key_resp_15.keys,key_resp_15.rt,key_resp_13.keys,key_resp_13.corr,key_resp_13.rt,ranodm_loop.thisRepN,ranodm_loop.thisTrialN,ranodm_loop.thisN,ranodm_loop.thisIndex,ranodm_loop.ran,participant,Wiek*,Płeć,date,expName,psychopyVersion,OS,frameRate,study_id,session,key_resp_16.keys,key_resp_16.rt,key_resp_4.keys,key_resp_4.rt,next_letter.thisRepN,next_letter.thisTrialN,next_letter.thisN,next_letter.thisIndex,next_letter.ran,letter,simple_recall,key_resp_5.keys,key_resp_5.rt,simple_recall_corr,simple_recall_corrkeys,next_level.thisRepN,next_level.thisTrialN,next_level.thisN,next_level.thisIndex,next_level.ran,key_resp_2.keys,key_resp_2.rt,digit_answer,key_resp.keys,key_resp.corr,key_resp.rt,RT_list,next_equation.thisRepN,next_equation.thisTrialN,next_equation.thisN,next_equation.thisIndex,next_equation.ran,Task,Trial,Problem,Operation_answer,processing_score,sumRT,meanRT,sumdiff,sd,RT,key_resp_3.keys,key_resp_3.rt,repeat_practice.thisRepN,repeat_practice.thisTrialN,repeat_practice.thisN,repeat_practice.thisIndex,repeat_practice.ran,key_resp_6.keys,key_resp_6.rt,key_resp_11.keys,key_resp_11.corr,operation_correct,repeat_if_wrong_prac.thisRepN,repeat_if_wrong_prac.thisTrialN,repeat_if_wrong_prac.thisN,repeat_if_wrong_prac.thisIndex,repeat_if_wrong_prac.ran,key_resp_11.rt,span_size_prac.thisRepN,span_size_prac.thisTrialN,span_size_prac.thisN,span_size_prac.thisIndex,span_size_prac.ran,complex_recall_practice,key_resp_9.keys,key_resp_9.corr,key_resp_9.rt,complex_prac_corr,span_recall_prac.thisRepN,span_recall_prac.thisTrialN,span_recall_prac.thisN,span_recall_prac.thisIndex,span_recall_prac.ran,key_resp_10.keys,key_resp_10.rt,key_resp_7.keys,key_resp_7.corr,key_resp_7.rt,repeat_if_wrong.thisRepN,repeat_if_wrong.thisTrialN,repeat_if_wrong.thisN,repeat_if_wrong.thisIndex,repeat_if_wrong.ran,span_size.thisRepN,span_size.thisTrialN,span_size.thisN,span_size.thisIndex,span_size.ran,complex_recall,key_resp_8.keys,key_resp_8.corr,key_resp_8.rt,complex_recall_corr,complex_recall_corrkeys,span_recall.thisRepN,span_recall.thisTrialN,span_recall.thisN,span_recall.thisIndex,span_recall.ran,key_resp_12.keys,key_resp_12.rt
space,14.6961,"[""period""]",0,[1.261599999994047],0,0,0,0,1,5f5797583cbc65245d493954,21,Mężczyzna,2022-05-28_09h17.29.619,task,2021.1.4,Win32,60.08171113,628b806c463b948bc644b84f,6291cc6afa0f3fb2606c0416,,,,,,,,,,,,,,,,,,,,,,,,,,,,,,,,,,,,,,,,,,,,,,,,,,,,,,,,,,,,,,,,,,,,,,,,,,,,,,,,,,,,,,,,,,,,,,,,,,,,,,,
,,"[""comma""]",0,[0.743900000005965],1,0,1,0,1,5f5797583cbc65245d493954,21,Mężczyzna,2022-05-28_09h17.29.619,task,2021.1.4,Win32,60.08171113,628b806c463b948bc644b84f,6291cc6afa0f3fb2606c0416,,,,,,,,,,,,,,,,,,,,,,,,,,,,,,,,,,,,,,,,,,,,,,,,,,,,,,,,,,,,,,,,,,,,,,,,,,,,,,,,,,,,,,,,,,,,,,,,,,,,,,,
,,"[""comma""]",0,[0.28690000000595717],2,0,2,0,1,5f5797583cbc65245d493954,21,Mężczyzna,2022-05-28_09h17.29.619,task,2021.1.4,Win32,60.08171113,628b806c463b948bc644b84f,6291cc6afa0f3fb2606c0416,,,,,,,,,,,,,,,,,,,,,,,,,,,,,,,,,,,,,,,,,,,,,,,,,,,,,,,,,,,,,,,,,,,,,,,,,,,,,,,,,,,,,,,,,,,,,,,,,,,,,,,
,,"[""period""]",0,[0.418300000011925],3,0,3,0,1,5f5797583cbc65245d493954,21,Mężczyzna,2022-05-28_09h17.29.619,task,2021.1.4,Win32,60.08171113,628b806c463b948bc644b84f,6291cc6afa0f3fb2606c0416,,,,,,,,,,,,,,,,,,,,,,,,,,,,,,,,,,,,,,,,,,,,,,,,,,,,,,,,,,,,,,,,,,,,,,,,,,,,,,,,,,,,,,,,,,,,,,,,,,,,,,,
,,"[""period""]",0,[0.21679999999702204],4,0,4,0,1,5f5797583cbc65245d493954,21,Mężczyzna,2022-05-28_09h17.29.619,task,2021.1.4,Win32,60.08171113,628b806c463b948bc644b84f,6291cc6afa0f3fb2606c0416,,,,,,,,,,,,,,,,,,,,,,,,,,,,,,,,,,,,,,,,,,,,,,,,,,,,,,,,,,,,,,,,,,,,,,,,,,,,,,,,,,,,,,,,,,,,,,,,,,,,,,,
,,"[""period"",""comma""]",0,"[0.21809999999403828,1.8340000000000032]",5,0,5,0,1,5f5797583cbc65245d493954,21,Mężczyzna,2022-05-28_09h17.29.619,task,2021.1.4,Win32,60.08171113,628b806c463b948bc644b84f,6291cc6afa0f3fb2606c0416,,,,,,,,,,,,,,,,,,,,,,,,,,,,,,,,,,,,,,,,,,,,,,,,,,,,,,,,,,,,,,,,,,,,,,,,,,,,,,,,,,,,,,,,,,,,,,,,,,,,,,,
,,,0,,6,0,6,0,1,5f5797583cbc65245d493954,21,Mężczyzna,2022-05-28_09h17.29.619,task,2021.1.4,Win32,60.08171113,628b806c463b948bc644b84f,6291cc6afa0f3fb2606c0416,,,,,,,,,,,,,,,,,,,,,,,,,,,,,,,,,,,,,,,,,,,,,,,,,,,,,,,,,,,,,,,,,,,,,,,,,,,,,,,,,,,,,,,,,,,,,,,,,,,,,,,
,,"[""comma""]",0,[0.13370000000297466],7,0,7,0,1,5f5797583cbc65245d493954,21,Mężczyzna,2022-05-28_09h17.29.619,task,2021.1.4,Win32,60.08171113,628b806c463b948bc644b84f,6291cc6afa0f3fb2606c0416,,,,,,,,,,,,,,,,,,,,,,,,,,,,,,,,,,,,,,,,,,,,,,,,,,,,,,,,,,,,,,,,,,,,,,,,,,,,,,,,,,,,,,,,,,,,,,,,,,,,,,,
,,"[""comma""]",0,[0.2837999999970151],8,0,8,0,1,5f5797583cbc65245d493954,21,Mężczyzna,2022-05-28_09h17.29.619,task,2021.1.4,Win32,60.08171113,628b806c463b948bc644b84f,6291cc6afa0f3fb2606c0416,,,,,,,,,,,,,,,,,,,,,,,,,,,,,,,,,,,,,,,,,,,,,,,,,,,,,,,,,,,,,,,,,,,,,,,,,,,,,,,,,,,,,,,,,,,,,,,,,,,,,,,
,,"[""period""]",0,[0.22670000000297819],9,0,9,0,1,5f5797583cbc65245d493954,21,Mężczyzna,2022-05-28_09h17.29.619,task,2021.1.4,Win32,60.08171113,628b806c463b948bc644b84f,6291cc6afa0f3fb2606c0416,,,,,,,,,,,,,,,,,,,,,,,,,,,,,,,,,,,,,,,,,,,,,,,,,,,,,,,,,,,,,,,,,,,,,,,,,,,,,,,,,,,,,,,,,,,,,,,,,,,,,,,
,,"[""comma"",""period""]",0,"[0.15029999999701715,1.9191000000089389]",10,0,10,0,1,5f5797583cbc65245d493954,21,Mężczyzna,2022-05-28_09h17.29.619,task,2021.1.4,Win32,60.08171113,628b806c463b948bc644b84f,6291cc6afa0f3fb2606c0416,,,,,,,,,,,,,,,,,,,,,,,,,,,,,,,,,,,,,,,,,,,,,,,,,,,,,,,,,,,,,,,,,,,,,,,,,,,,,,,,,,,,,,,,,,,,,,,,,,,,,,,
,,"[""comma""]",0,[1.725200000002971],11,0,11,0,1,5f5797583cbc65245d493954,21,Mężczyzna,2022-05-28_09h17.29.619,task,2021.1.4,Win32,60.08171113,628b806c463b948bc644b84f,6291cc6afa0f3fb2606c0416,,,,,,,,,,,,,,,,,,,,,,,,,,,,,,,,,,,,,,,,,,,,,,,,,,,,,,,,,,,,,,,,,,,,,,,,,,,,,,,,,,,,,,,,,,,,,,,,,,,,,,,
,,,0,,12,0,12,0,1,5f5797583cbc65245d493954,21,Mężczyzna,2022-05-28_09h17.29.619,task,2021.1.4,Win32,60.08171113,628b806c463b948bc644b84f,6291cc6afa0f3fb2606c0416,,,,,,,,,,,,,,,,,,,,,,,,,,,,,,,,,,,,,,,,,,,,,,,,,,,,,,,,,,,,,,,,,,,,,,,,,,,,,,,,,,,,,,,,,,,,,,,,,,,,,,,
,,"[""period""]",0,[0.23619999998807373],13,0,13,0,1,5f5797583cbc65245d493954,21,Mężczyzna,2022-05-28_09h17.29.619,task,2021.1.4,Win32,60.08171113,628b806c463b948bc644b84f,6291cc6afa0f3fb2606c0416,,,,,,,,,,,,,,,,,,,,,,,,,,,,,,,,,,,,,,,,,,,,,,,,,,,,,,,,,,,,,,,,,,,,,,,,,,,,,,,,,,,,,,,,,,,,,,,,,,,,,,,
,,"[""period""]",0,[0.22650000000000148],14,0,14,0,1,5f5797583cbc65245d493954,21,Mężczyzna,2022-05-28_09h17.29.619,task,2021.1.4,Win32,60.08171113,628b806c463b948bc644b84f,6291cc6afa0f3fb2606c0416,,,,,,,,,,,,,,,,,,,,,,,,,,,,,,,,,,,,,,,,,,,,,,,,,,,,,,,,,,,,,,,,,,,,,,,,,,,,,,,,,,,,,,,,,,,,,,,,,,,,,,,
,,"[""period"",""comma""]",0,"[0.043299999997017835,1.8755000000000024]",15,0,15,0,1,5f5797583cbc65245d493954,21,Mężczyzna,2022-05-28_09h17.29.619,task,2021.1.4,Win32,60.08171113,628b806c463b948bc644b84f,6291cc6afa0f3fb2606c0416,,,,,,,,,,,,,,,,,,,,,,,,,,,,,,,,,,,,,,,,,,,,,,,,,,,,,,,,,,,,,,,,,,,,,,,,,,,,,,,,,,,,,,,,,,,,,,,,,,,,,,,
,,"[""period""]",0,[1.7503000000119187],16,0,16,0,1,5f5797583cbc65245d493954,21,Mężczyzna,2022-05-28_09h17.29.619,task,2021.1.4,Win32,60.08171113,628b806c463b948bc644b84f,6291cc6afa0f3fb2606c0416,,,,,,,,,,,,,,,,,,,,,,,,,,,,,,,,,,,,,,,,,,,,,,,,,,,,,,,,,,,,,,,,,,,,,,,,,,,,,,,,,,,,,,,,,,,,,,,,,,,,,,,
,,,0,,17,0,17,0,1,5f5797583cbc65245d493954,21,Mężczyzna,2022-05-28_09h17.29.619,task,2021.1.4,Win32,60.08171113,628b806c463b948bc644b84f,6291cc6afa0f3fb2606c0416,,,,,,,,,,,,,,,,,,,,,,,,,,,,,,,,,,,,,,,,,,,,,,,,,,,,,,,,,,,,,,,,,,,,,,,,,,,,,,,,,,,,,,,,,,,,,,,,,,,,,,,
,,"[""comma""]",0,[0.021399999991061236],18,0,18,0,1,5f5797583cbc65245d493954,21,Mężczyzna,2022-05-28_09h17.29.619,task,2021.1.4,Win32,60.08171113,628b806c463b948bc644b84f,6291cc6afa0f3fb2606c0416,,,,,,,,,,,,,,,,,,,,,,,,,,,,,,,,,,,,,,,,,,,,,,,,,,,,,,,,,,,,,,,,,,,,,,,,,,,,,,,,,,,,,,,,,,,,,,,,,,,,,,,
,,"[""comma""]",0,[0.00040000000596762675],19,0,19,0,1,5f5797583cbc65245d493954,21,Mężczyzna,2022-05-28_09h17.29.619,task,2021.1.4,Win32,60.08171113,628b806c463b948bc644b84f,6291cc6afa0f3fb2606c0416,,,,,,,,,,,,,,,,,,,,,,,,,,,,,,,,,,,,,,,,,,,,,,,,,,,,,,,,,,,,,,,,,,,,,,,,,,,,,,,,,,,,,,,,,,,,,,,,,,,,,,,
,,"[""period""]",0,[0.13309999999404454],20,0,20,0,1,5f5797583cbc65245d493954,21,Mężczyzna,2022-05-28_09h17.29.619,task,2021.1.4,Win32,60.08171113,628b806c463b948bc644b84f,6291cc6afa0f3fb2606c0416,,,,,,,,,,,,,,,,,,,,,,,,,,,,,,,,,,,,,,,,,,,,,,,,,,,,,,,,,,,,,,,,,,,,,,,,,,,,,,,,,,,,,,,,,,,,,,,,,,,,,,,
,,"[""comma""]",0,[0.050299999997008626],21,0,21,0,1,5f5797583cbc65245d493954,21,Mężczyzna,2022-05-28_09h17.29.619,task,2021.1.4,Win32,60.08171113,628b806c463b948bc644b84f,6291cc6afa0f3fb2606c0416,,,,,,,,,,,,,,,,,,,,,,,,,,,,,,,,,,,,,,,,,,,,,,,,,,,,,,,,,,,,,,,,,,,,,,,,,,,,,,,,,,,,,,,,,,,,,,,,,,,,,,,
,,"[""period""]",0,[0.6168999999910625],22,0,22,0,1,5f5797583cbc65245d493954,21,Mężczyzna,2022-05-28_09h17.29.619,task,2021.1.4,Win32,60.08171113,628b806c463b948bc644b84f,6291cc6afa0f3fb2606c0416,,,,,,,,,,,,,,,,,,,,,,,,,,,,,,,,,,,,,,,,,,,,,,,,,,,,,,,,,,,,,,,,,,,,,,,,,,,,,,,,,,,,,,,,,,,,,,,,,,,,,,,
,,"[""comma"",""comma""]",0,"[0.3003000000119158,1.957499999999996]",23,0,23,0,1,5f5797583cbc65245d493954,21,Mężczyzna,2022-05-28_09h17.29.619,task,2021.1.4,Win32,60.08171113,628b806c463b948bc644b84f,6291cc6afa0f3fb2606c0416,,,,,,,,,,,,,,,,,,,,,,,,,,,,,,,,,,,,,,,,,,,,,,,,,,,,,,,,,,,,,,,,,,,,,,,,,,,,,,,,,,,,,,,,,,,,,,,,,,,,,,,
,,,0,,24,0,24,0,1,5f5797583cbc65245d493954,21,Mężczyzna,2022-05-28_09h17.29.619,task,2021.1.4,Win32,60.08171113,628b806c463b948bc644b84f,6291cc6afa0f3fb2606c0416,,,,,,,,,,,,,,,,,,,,,,,,,,,,,,,,,,,,,,,,,,,,,,,,,,,,,,,,,,,,,,,,,,,,,,,,,,,,,,,,,,,,,,,,,,,,,,,,,,,,,,,
,,"[""comma""]",0,[1.317099999994042],25,0,25,0,1,5f5797583cbc65245d493954,21,Mężczyzna,2022-05-28_09h17.29.619,task,2021.1.4,Win32,60.08171113,628b806c463b948bc644b84f,6291cc6afa0f3fb2606c0416,,,,,,,,,,,,,,,,,,,,,,,,,,,,,,,,,,,,,,,,,,,,,,,,,,,,,,,,,,,,,,,,,,,,,,,,,,,,,,,,,,,,,,,,,,,,,,,,,,,,,,,
,,"[""period""]",0,[0.542599999994053],26,0,26,0,1,5f5797583cbc65245d493954,21,Mężczyzna,2022-05-28_09h17.29.619,task,2021.1.4,Win32,60.08171113,628b806c463b948bc644b84f,6291cc6afa0f3fb2606c0416,,,,,,,,,,,,,,,,,,,,,,,,,,,,,,,,,,,,,,,,,,,,,,,,,,,,,,,,,,,,,,,,,,,,,,,,,,,,,,,,,,,,,,,,,,,,,,,,,,,,,,,
,,"[""period""]",0,[0.5835999999940498],27,0,27,0,1,5f5797583cbc65245d493954,21,Mężczyzna,2022-05-28_09h17.29.619,task,2021.1.4,Win32,60.08171113,628b806c463b948bc644b84f,6291cc6afa0f3fb2606c0416,,,,,,,,,,,,,,,,,,,,,,,,,,,,,,,,,,,,,,,,,,,,,,,,,,,,,,,,,,,,,,,,,,,,,,,,,,,,,,,,,,,,,,,,,,,,,,,,,,,,,,,
,,"[""comma"",""period""]",0,"[0.24269999998807634,1.8591999999880784]",28,0,28,0,1,5f5797583cbc65245d493954,21,Mężczyzna,2022-05-28_09h17.29.619,task,2021.1.4,Win32,60.08171113,628b806c463b948bc644b84f,6291cc6afa0f3fb2606c0416,,,,,,,,,,,,,,,,,,,,,,,,,,,,,,,,,,,,,,,,,,,,,,,,,,,,,,,,,,,,,,,,,,,,,,,,,,,,,,,,,,,,,,,,,,,,,,,,,,,,,,,
,,,0,,29,0,29,0,1,5f5797583cbc65245d493954,21,Mężczyzna,2022-05-28_09h17.29.619,task,2021.1.4,Win32,60.08171113,628b806c463b948bc644b84f,6291cc6afa0f3fb2606c0416,,,,,,,,,,,,,,,,,,,,,,,,,,,,,,,,,,,,,,,,,,,,,,,,,,,,,,,,,,,,,,,,,,,,,,,,,,,,,,,,,,,,,,,,,,,,,,,,,,,,,,,
,,"[""comma"",""comma""]",0,"[0.0042000000029815965,1.8332000000029893]",30,0,30,0,1,5f5797583cbc65245d493954,21,Mężczyzna,2022-05-28_09h17.29.619,task,2021.1.4,Win32,60.08171113,628b806c463b948bc644b84f,6291cc6afa0f3fb2606c0416,,,,,,,,,,,,,,,,,,,,,,,,,,,,,,,,,,,,,,,,,,,,,,,,,,,,,,,,,,,,,,,,,,,,,,,,,,,,,,,,,,,,,,,,,,,,,,,,,,,,,,,
,,,0,,31,0,31,0,1,5f5797583cbc65245d493954,21,Mężczyzna,2022-05-28_09h17.29.619,task,2021.1.4,Win32,60.08171113,628b806c463b948bc644b84f,6291cc6afa0f3fb2606c0416,,,,,,,,,,,,,,,,,,,,,,,,,,,,,,,,,,,,,,,,,,,,,,,,,,,,,,,,,,,,,,,,,,,,,,,,,,,,,,,,,,,,,,,,,,,,,,,,,,,,,,,
,,"[""period"",""period""]",0,"[0.183799999997035,1.8185999999940634]",32,0,32,0,1,5f5797583cbc65245d493954,21,Mężczyzna,2022-05-28_09h17.29.619,task,2021.1.4,Win32,60.08171113,628b806c463b948bc644b84f,6291cc6afa0f3fb2606c0416,,,,,,,,,,,,,,,,,,,,,,,,,,,,,,,,,,,,,,,,,,,,,,,,,,,,,,,,,,,,,,,,,,,,,,,,,,,,,,,,,,,,,,,,,,,,,,,,,,,,,,,
,,"[""comma""]",0,[1.750700000002979],33,0,33,0,1,5f5797583cbc65245d493954,21,Mężczyzna,2022-05-28_09h17.29.619,task,2021.1.4,Win32,60.08171113,628b806c463b948bc644b84f,6291cc6afa0f3fb2606c0416,,,,,,,,,,,,,,,,,,,,,,,,,,,,,,,,,,,,,,,,,,,,,,,,,,,,,,,,,,,,,,,,,,,,,,,,,,,,,,,,,,,,,,,,,,,,,,,,,,,,,,,
,,,0,,34,0,34,0,1,5f5797583cbc65245d493954,21,Mężczyzna,2022-05-28_09h17.29.619,task,2021.1.4,Win32,60.08171113,628b806c463b948bc644b84f,6291cc6afa0f3fb2606c0416,,,,,,,,,,,,,,,,,,,,,,,,,,,,,,,,,,,,,,,,,,,,,,,,,,,,,,,,,,,,,,,,,,,,,,,,,,,,,,,,,,,,,,,,,,,,,,,,,,,,,,,
,,"[""period""]",0,[0.17329999999699908],35,0,35,0,1,5f5797583cbc65245d493954,21,Mężczyzna,2022-05-28_09h17.29.619,task,2021.1.4,Win32,60.08171113,628b806c463b948bc644b84f,6291cc6afa0f3fb2606c0416,,,,,,,,,,,,,,,,,,,,,,,,,,,,,,,,,,,,,,,,,,,,,,,,,,,,,,,,,,,,,,,,,,,,,,,,,,,,,,,,,,,,,,,,,,,,,,,,,,,,,,,
,,"[""comma"",""comma""]",0,"[0.05290000000596251,1.8525999999940268]",36,0,36,0,1,5f5797583cbc65245d493954,21,Mężczyzna,2022-05-28_09h17.29.619,task,2021.1.4,Win32,60.08171113,628b806c463b948bc644b84f,6291cc6afa0f3fb2606c0416,,,,,,,,,,,,,,,,,,,,,,,,,,,,,,,,,,,,,,,,,,,,,,,,,,,,,,,,,,,,,,,,,,,,,,,,,,,,,,,,,,,,,,,,,,,,,,,,,,,,,,,
,,,0,,37,0,37,0,1,5f5797583cbc65245d493954,21,Mężczyzna,2022-05-28_09h17.29.619,task,2021.1.4,Win32,60.08171113,628b806c463b948bc644b84f,6291cc6afa0f3fb2606c0416,,,,,,,,,,,,,,,,,,,,,,,,,,,,,,,,,,,,,,,,,,,,,,,,,,,,,,,,,,,,,,,,,,,,,,,,,,,,,,,,,,,,,,,,,,,,,,,,,,,,,,,
,,"[""comma"",""comma""]",0,"[0.14120000000298205,1.5335000000000036]",38,0,38,0,1,5f5797583cbc65245d493954,21,Mężczyzna,2022-05-28_09h17.29.619,task,2021.1.4,Win32,60.08171113,628b806c463b948bc644b84f,6291cc6afa0f3fb2606c0416,,,,,,,,,,,,,,,,,,,,,,,,,,,,,,,,,,,,,,,,,,,,,,,,,,,,,,,,,,,,,,,,,,,,,,,,,,,,,,,,,,,,,,,,,,,,,,,,,,,,,,,
,,,0,,39,0,39,0,1,5f5797583cbc65245d493954,21,Mężczyzna,2022-05-28_09h17.29.619,task,2021.1.4,Win32,60.08171113,628b806c463b948bc644b84f,6291cc6afa0f3fb2606c0416,,,,,,,,,,,,,,,,,,,,,,,,,,,,,,,,,,,,,,,,,,,,,,,,,,,,,,,,,,,,,,,,,,,,,,,,,,,,,,,,,,,,,,,,,,,,,,,,,,,,,,,
,,"[""comma""]",0,[0.25109999999403954],40,0,40,0,1,5f5797583cbc65245d493954,21,Mężczyzna,2022-05-28_09h17.29.619,task,2021.1.4,Win32,60.08171113,628b806c463b948bc644b84f,6291cc6afa0f3fb2606c0416,,,,,,,,,,,,,,,,,,,,,,,,,,,,,,,,,,,,,,,,,,,,,,,,,,,,,,,,,,,,,,,,,,,,,,,,,,,,,,,,,,,,,,,,,,,,,,,,,,,,,,,
,,"[""period""]",0,[0.2527999999970234],41,0,41,0,1,5f5797583cbc65245d493954,21,Mężczyzna,2022-05-28_09h17.29.619,task,2021.1.4,Win32,60.08171113,628b806c463b948bc644b84f,6291cc6afa0f3fb2606c0416,,,,,,,,,,,,,,,,,,,,,,,,,,,,,,,,,,,,,,,,,,,,,,,,,,,,,,,,,,,,,,,,,,,,,,,,,,,,,,,,,,,,,,,,,,,,,,,,,,,,,,,
,,"[""comma""]",0,[0.23449999999999704],42,0,42,0,1,5f5797583cbc65245d493954,21,Mężczyzna,2022-05-28_09h17.29.619,task,2021.1.4,Win32,60.08171113,628b806c463b948bc644b84f,6291cc6afa0f3fb2606c0416,,,,,,,,,,,,,,,,,,,,,,,,,,,,,,,,,,,,,,,,,,,,,,,,,,,,,,,,,,,,,,,,,,,,,,,,,,,,,,,,,,,,,,,,,,,,,,,,,,,,,,,
,,"[""period""]",0,[0.22279999999702227],43,0,43,0,1,5f5797583cbc65245d493954,21,Mężczyzna,2022-05-28_09h17.29.619,task,2021.1.4,Win32,60.08171113,628b806c463b948bc644b84f,6291cc6afa0f3fb2606c0416,,,,,,,,,,,,,,,,,,,,,,,,,,,,,,,,,,,,,,,,,,,,,,,,,,,,,,,,,,,,,,,,,,,,,,,,,,,,,,,,,,,,,,,,,,,,,,,,,,,,,,,
,,"[""period""]",0,[0.21929999999701977],44,0,44,0,1,5f5797583cbc65245d493954,21,Mężczyzna,2022-05-28_09h17.29.619,task,2021.1.4,Win32,60.08171113,628b806c463b948bc644b84f,6291cc6afa0f3fb2606c0416,,,,,,,,,,,,,,,,,,,,,,,,,,,,,,,,,,,,,,,,,,,,,,,,,,,,,,,,,,,,,,,,,,,,,,,,,,,,,,,,,,,,,,,,,,,,,,,,,,,,,,,
,,"[""comma"",""comma""]",0,"[0.000599999994051359,1.2230000000000132]",45,0,45,0,1,5f5797583cbc65245d493954,21,Mężczyzna,2022-05-28_09h17.29.619,task,2021.1.4,Win32,60.08171113,628b806c463b948bc644b84f,6291cc6afa0f3fb2606c0416,,,,,,,,,,,,,,,,,,,,,,,,,,,,,,,,,,,,,,,,,,,,,,,,,,,,,,,,,,,,,,,,,,,,,,,,,,,,,,,,,,,,,,,,,,,,,,,,,,,,,,,
,,"[""comma""]",0,[1.560899999991051],46,0,46,0,1,5f5797583cbc65245d493954,21,Mężczyzna,2022-05-28_09h17.29.619,task,2021.1.4,Win32,60.08171113,628b806c463b948bc644b84f,6291cc6afa0f3fb2606c0416,,,,,,,,,,,,,,,,,,,,,,,,,,,,,,,,,,,,,,,,,,,,,,,,,,,,,,,,,,,,,,,,,,,,,,,,,,,,,,,,,,,,,,,,,,,,,,,,,,,,,,,
,,"[""period""]",0,[1.65209999999405],47,0,47,0,1,5f5797583cbc65245d493954,21,Mężczyzna,2022-05-28_09h17.29.619,task,2021.1.4,Win32,60.08171113,628b806c463b948bc644b84f,6291cc6afa0f3fb2606c0416,,,,,,,,,,,,,,,,,,,,,,,,,,,,,,,,,,,,,,,,,,,,,,,,,,,,,,,,,,,,,,,,,,,,,,,,,,,,,,,,,,,,,,,,,,,,,,,,,,,,,,,
,,"[""period""]",0,[0.6338999999910584],48,0,48,0,1,5f5797583cbc65245d493954,21,Mężczyzna,2022-05-28_09h17.29.619,task,2021.1.4,Win32,60.08171113,628b806c463b948bc644b84f,6291cc6afa0f3fb2606c0416,,,,,,,,,,,,,,,,,,,,,,,,,,,,,,,,,,,,,,,,,,,,,,,,,,,,,,,,,,,,,,,,,,,,,,,,,,,,,,,,,,,,,,,,,,,,,,,,,,,,,,,
,,"[""period""]",0,[0.30049999999999955],49,0,49,0,1,5f5797583cbc65245d493954,21,Mężczyzna,2022-05-28_09h17.29.619,task,2021.1.4,Win32,60.08171113,628b806c463b948bc644b84f,6291cc6afa0f3fb2606c0416,,,,,,,,,,,,,,,,,,,,,,,,,,,,,,,,,,,,,,,,,,,,,,,,,,,,,,,,,,,,,,,,,,,,,,,,,,,,,,,,,,,,,,,,,,,,,,,,,,,,,,,
,,"[""period"",""comma""]",0,"[-0.031999999999982265,1.8070000000000164]",50,0,50,0,1,5f5797583cbc65245d493954,21,Mężczyzna,2022-05-28_09h17.29.619,task,2021.1.4,Win32,60.08171113,628b806c463b948bc644b84f,6291cc6afa0f3fb2606c0416,,,,,,,,,,,,,,,,,,,,,,,,,,,,,,,,,,,,,,,,,,,,,,,,,,,,,,,,,,,,,,,,,,,,,,,,,,,,,,,,,,,,,,,,,,,,,,,,,,,,,,,
,,"[""period""]",0,[1.6670000000000016],51,0,51,0,1,5f5797583cbc65245d493954,21,Mężczyzna,2022-05-28_09h17.29.619,task,2021.1.4,Win32,60.08171113,628b806c463b948bc644b84f,6291cc6afa0f3fb2606c0416,,,,,,,,,,,,,,,,,,,,,,,,,,,,,,,,,,,,,,,,,,,,,,,,,,,,,,,,,,,,,,,,,,,,,,,,,,,,,,,,,,,,,,,,,,,,,,,,,,,,,,,
,,,0,,52,0,52,0,1,5f5797583cbc65245d493954,21,Mężczyzna,2022-05-28_09h17.29.619,task,2021.1.4,Win32,60.08171113,628b806c463b948bc644b84f,6291cc6afa0f3fb2606c0416,,,,,,,,,,,,,,,,,,,,,,,,,,,,,,,,,,,,,,,,,,,,,,,,,,,,,,,,,,,,,,,,,,,,,,,,,,,,,,,,,,,,,,,,,,,,,,,,,,,,,,,
,,"[""comma""]",0,[0.26900000000000546],53,0,53,0,1,5f5797583cbc65245d493954,21,Mężczyzna,2022-05-28_09h17.29.619,task,2021.1.4,Win32,60.08171113,628b806c463b948bc644b84f,6291cc6afa0f3fb2606c0416,,,,,,,,,,,,,,,,,,,,,,,,,,,,,,,,,,,,,,,,,,,,,,,,,,,,,,,,,,,,,,,,,,,,,,,,,,,,,,,,,,,,,,,,,,,,,,,,,,,,,,,
,,"[""period""]",0,[0.011300000011914335],54,0,54,0,1,5f5797583cbc65245d493954,21,Mężczyzna,2022-05-28_09h17.29.619,task,2021.1.4,Win32,60.08171113,628b806c463b948bc644b84f,6291cc6afa0f3fb2606c0416,,,,,,,,,,,,,,,,,,,,,,,,,,,,,,,,,,,,,,,,,,,,,,,,,,,,,,,,,,,,,,,,,,,,,,,,,,,,,,,,,,,,,,,,,,,,,,,,,,,,,,,
,,"[""comma""]",0,[0.25079999999701386],55,0,55,0,1,5f5797583cbc65245d493954,21,Mężczyzna,2022-05-28_09h17.29.619,task,2021.1.4,Win32,60.08171113,628b806c463b948bc644b84f,6291cc6afa0f3fb2606c0416,,,,,,,,,,,,,,,,,,,,,,,,,,,,,,,,,,,,,,,,,,,,,,,,,,,,,,,,,,,,,,,,,,,,,,,,,,,,,,,,,,,,,,,,,,,,,,,,,,,,,,,
,,"[""period""]",0,[0.1515999999940334],56,0,56,0,1,5f5797583cbc65245d493954,21,Mężczyzna,2022-05-28_09h17.29.619,task,2021.1.4,Win32,60.08171113,628b806c463b948bc644b84f,6291cc6afa0f3fb2606c0416,,,,,,,,,,,,,,,,,,,,,,,,,,,,,,,,,,,,,,,,,,,,,,,,,,,,,,,,,,,,,,,,,,,,,,,,,,,,,,,,,,,,,,,,,,,,,,,,,,,,,,,
,,"[""comma""]",0,[0.19419999998808635],57,0,57,0,1,5f5797583cbc65245d493954,21,Mężczyzna,2022-05-28_09h17.29.619,task,2021.1.4,Win32,60.08171113,628b806c463b948bc644b84f,6291cc6afa0f3fb2606c0416,,,,,,,,,,,,,,,,,,,,,,,,,,,,,,,,,,,,,,,,,,,,,,,,,,,,,,,,,,,,,,,,,,,,,,,,,,,,,,,,,,,,,,,,,,,,,,,,,,,,,,,
,,"[""comma""]",0,[0.3211000000089541],58,0,58,0,1,5f5797583cbc65245d493954,21,Mężczyzna,2022-05-28_09h17.29.619,task,2021.1.4,Win32,60.08171113,628b806c463b948bc644b84f,6291cc6afa0f3fb2606c0416,,,,,,,,,,,,,,,,,,,,,,,,,,,,,,,,,,,,,,,,,,,,,,,,,,,,,,,,,,,,,,,,,,,,,,,,,,,,,,,,,,,,,,,,,,,,,,,,,,,,,,,
,,"[""comma"",""period""]",0,"[0.27780000001192207,1.9256000000089273]",59,0,59,0,1,5f5797583cbc65245d493954,21,Mężczyzna,2022-05-28_09h17.29.619,task,2021.1.4,Win32,60.08171113,628b806c463b948bc644b84f,6291cc6afa0f3fb2606c0416,,,,,,,,,,,,,,,,,,,,,,,,,,,,,,,,,,,,,,,,,,,,,,,,,,,,,,,,,,,,,,,,,,,,,,,,,,,,,,,,,,,,,,,,,,,,,,,,,,,,,,,
,,,0,,60,0,60,0,1,5f5797583cbc65245d493954,21,Mężczyzna,2022-05-28_09h17.29.619,task,2021.1.4,Win32,60.08171113,628b806c463b948bc644b84f,6291cc6afa0f3fb2606c0416,,,,,,,,,,,,,,,,,,,,,,,,,,,,,,,,,,,,,,,,,,,,,,,,,,,,,,,,,,,,,,,,,,,,,,,,,,,,,,,,,,,,,,,,,,,,,,,,,,,,,,,
,,"[""comma""]",0,[0.5735000000000241],61,0,61,0,1,5f5797583cbc65245d493954,21,Mężczyzna,2022-05-28_09h17.29.619,task,2021.1.4,Win32,60.08171113,628b806c463b948bc644b84f,6291cc6afa0f3fb2606c0416,,,,,,,,,,,,,,,,,,,,,,,,,,,,,,,,,,,,,,,,,,,,,,,,,,,,,,,,,,,,,,,,,,,,,,,,,,,,,,,,,,,,,,,,,,,,,,,,,,,,,,,
,,"[""comma"",""period""]",0,"[0.21719999998808248,1.8266999999880795]",62,0,62,0,1,5f5797583cbc65245d493954,21,Mężczyzna,2022-05-28_09h17.29.619,task,2021.1.4,Win32,60.08171113,628b806c463b948bc644b84f,6291cc6afa0f3fb2606c0416,,,,,,,,,,,,,,,,,,,,,,,,,,,,,,,,,,,,,,,,,,,,,,,,,,,,,,,,,,,,,,,,,,,,,,,,,,,,,,,,,,,,,,,,,,,,,,,,,,,,,,,
,,"[""period""]",0,[1.1172000000029811],63,0,63,0,1,5f5797583cbc65245d493954,21,Mężczyzna,2022-05-28_09h17.29.619,task,2021.1.4,Win32,60.08171113,628b806c463b948bc644b84f,6291cc6afa0f3fb2606c0416,,,,,,,,,,,,,,,,,,,,,,,,,,,,,,,,,,,,,,,,,,,,,,,,,,,,,,,,,,,,,,,,,,,,,,,,,,,,,,,,,,,,,,,,,,,,,,,,,,,,,,,
,,,0,,64,0,64,0,1,5f5797583cbc65245d493954,21,Mężczyzna,2022-05-28_09h17.29.619,task,2021.1.4,Win32,60.08171113,628b806c463b948bc644b84f,6291cc6afa0f3fb2606c0416,,,,,,,,,,,,,,,,,,,,,,,,,,,,,,,,,,,,,,,,,,,,,,,,,,,,,,,,,,,,,,,,,,,,,,,,,,,,,,,,,,,,,,,,,,,,,,,,,,,,,,,
,,"[""period""]",0,[-0.024599999994023847],65,0,65,0,1,5f5797583cbc65245d493954,21,Mężczyzna,2022-05-28_09h17.29.619,task,2021.1.4,Win32,60.08171113,628b806c463b948bc644b84f,6291cc6afa0f3fb2606c0416,,,,,,,,,,,,,,,,,,,,,,,,,,,,,,,,,,,,,,,,,,,,,,,,,,,,,,,,,,,,,,,,,,,,,,,,,,,,,,,,,,,,,,,,,,,,,,,,,,,,,,,
,,"[""comma""]",0,[0.008200000002972274],66,0,66,0,1,5f5797583cbc65245d493954,21,Mężczyzna,2022-05-28_09h17.29.619,task,2021.1.4,Win32,60.08171113,628b806c463b948bc644b84f,6291cc6afa0f3fb2606c0416,,,,,,,,,,,,,,,,,,,,,,,,,,,,,,,,,,,,,,,,,,,,,,,,,,,,,,,,,,,,,,,,,,,,,,,,,,,,,,,,,,,,,,,,,,,,,,,,,,,,,,,
,,"[""period""]",0,[0.5557999999970207],67,0,67,0,1,5f5797583cbc65245d493954,21,Mężczyzna,2022-05-28_09h17.29.619,task,2021.1.4,Win32,60.08171113,628b806c463b948bc644b84f,6291cc6afa0f3fb2606c0416,,,,,,,,,,,,,,,,,,,,,,,,,,,,,,,,,,,,,,,,,,,,,,,,,,,,,,,,,,,,,,,,,,,,,,,,,,,,,,,,,,,,,,,,,,,,,,,,,,,,,,,
,,"[""comma""]",0,[0.46720000000297546],68,0,68,0,1,5f5797583cbc65245d493954,21,Mężczyzna,2022-05-28_09h17.29.619,task,2021.1.4,Win32,60.08171113,628b806c463b948bc644b84f,6291cc6afa0f3fb2606c0416,,,,,,,,,,,,,,,,,,,,,,,,,,,,,,,,,,,,,,,,,,,,,,,,,,,,,,,,,,,,,,,,,,,,,,,,,,,,,,,,,,,,,,,,,,,,,,,,,,,,,,,
,,"[""period""]",0,[0.5395000000000039],69,0,69,0,1,5f5797583cbc65245d493954,21,Mężczyzna,2022-05-28_09h17.29.619,task,2021.1.4,Win32,60.08171113,628b806c463b948bc644b84f,6291cc6afa0f3fb2606c0416,,,,,,,,,,,,,,,,,,,,,,,,,,,,,,,,,,,,,,,,,,,,,,,,,,,,,,,,,,,,,,,,,,,,,,,,,,,,,,,,,,,,,,,,,,,,,,,,,,,,,,,
,,"[""period""]",0,[0.7365000000000066],70,0,70,0,1,5f5797583cbc65245d493954,21,Mężczyzna,2022-05-28_09h17.29.619,task,2021.1.4,Win32,60.08171113,628b806c463b948bc644b84f,6291cc6afa0f3fb2606c0416,,,,,,,,,,,,,,,,,,,,,,,,,,,,,,,,,,,,,,,,,,,,,,,,,,,,,,,,,,,,,,,,,,,,,,,,,,,,,,,,,,,,,,,,,,,,,,,,,,,,,,,
,,"[""period"",""comma""]",0,"[0.533900000005957,0.6189999999999998]",71,0,71,0,1,5f5797583cbc65245d493954,21,Mężczyzna,2022-05-28_09h17.29.619,task,2021.1.4,Win32,60.08171113,628b806c463b948bc644b84f,6291cc6afa0f3fb2606c0416,,,,,,,,,,,,,,,,,,,,,,,,,,,,,,,,,,,,,,,,,,,,,,,,,,,,,,,,,,,,,,,,,,,,,,,,,,,,,,,,,,,,,,,,,,,,,,,,,,,,,,,
,,"[""comma""]",0,[0.5917999999969936],72,0,72,0,1,5f5797583cbc65245d493954,21,Mężczyzna,2022-05-28_09h17.29.619,task,2021.1.4,Win32,60.08171113,628b806c463b948bc644b84f,6291cc6afa0f3fb2606c0416,,,,,,,,,,,,,,,,,,,,,,,,,,,,,,,,,,,,,,,,,,,,,,,,,,,,,,,,,,,,,,,,,,,,,,,,,,,,,,,,,,,,,,,,,,,,,,,,,,,,,,,
,,"[""comma""]",0,[0.3873999999910609],73,0,73,0,1,5f5797583cbc65245d493954,21,Mężczyzna,2022-05-28_09h17.29.619,task,2021.1.4,Win32,60.08171113,628b806c463b948bc644b84f,6291cc6afa0f3fb2606c0416,,,,,,,,,,,,,,,,,,,,,,,,,,,,,,,,,,,,,,,,,,,,,,,,,,,,,,,,,,,,,,,,,,,,,,,,,,,,,,,,,,,,,,,,,,,,,,,,,,,,,,,
,,"[""period""]",0,[0.2917999999970107],74,0,74,0,1,5f5797583cbc65245d493954,21,Mężczyzna,2022-05-28_09h17.29.619,task,2021.1.4,Win32,60.08171113,628b806c463b948bc644b84f,6291cc6afa0f3fb2606c0416,,,,,,,,,,,,,,,,,,,,,,,,,,,,,,,,,,,,,,,,,,,,,,,,,,,,,,,,,,,,,,,,,,,,,,,,,,,,,,,,,,,,,,,,,,,,,,,,,,,,,,,
,,"[""comma"",""period""]",0,"[0.6522000000030062,1.0169000000059611]",75,0,75,0,1,5f5797583cbc65245d493954,21,Mężczyzna,2022-05-28_09h17.29.619,task,2021.1.4,Win32,60.08171113,628b806c463b948bc644b84f,6291cc6afa0f3fb2606c0416,,,,,,,,,,,,,,,,,,,,,,,,,,,,,,,,,,,,,,,,,,,,,,,,,,,,,,,,,,,,,,,,,,,,,,,,,,,,,,,,,,,,,,,,,,,,,,,,,,,,,,,
,,"[""period""]",0,[0.6444000000059589],76,0,76,0,1,5f5797583cbc65245d493954,21,Mężczyzna,2022-05-28_09h17.29.619,task,2021.1.4,Win32,60.08171113,628b806c463b948bc644b84f,6291cc6afa0f3fb2606c0416,,,,,,,,,,,,,,,,,,,,,,,,,,,,,,,,,,,,,,,,,,,,,,,,,,,,,,,,,,,,,,,,,,,,,,,,,,,,,,,,,,,,,,,,,,,,,,,,,,,,,,,
,,"[""comma"",""period""]",0,"[0.5217999999970289,0.9335000000000093]",77,0,77,0,1,5f5797583cbc65245d493954,21,Mężczyzna,2022-05-28_09h17.29.619,task,2021.1.4,Win32,60.08171113,628b806c463b948bc644b84f,6291cc6afa0f3fb2606c0416,,,,,,,,,,,,,,,,,,,,,,,,,,,,,,,,,,,,,,,,,,,,,,,,,,,,,,,,,,,,,,,,,,,,,,,,,,,,,,,,,,,,,,,,,,,,,,,,,,,,,,,
,,"[""comma""]",0,[0.6185000000000116],78,0,78,0,1,5f5797583cbc65245d493954,21,Mężczyzna,2022-05-28_09h17.29.619,task,2021.1.4,Win32,60.08171113,628b806c463b948bc644b84f,6291cc6afa0f3fb2606c0416,,,,,,,,,,,,,,,,,,,,,,,,,,,,,,,,,,,,,,,,,,,,,,,,,,,,,,,,,,,,,,,,,,,,,,,,,,,,,,,,,,,,,,,,,,,,,,,,,,,,,,,
,,"[""period""]",0,[0.5255000000000223],79,0,79,0,1,5f5797583cbc65245d493954,21,Mężczyzna,2022-05-28_09h17.29.619,task,2021.1.4,Win32,60.08171113,628b806c463b948bc644b84f,6291cc6afa0f3fb2606c0416,,,,,,,,,,,,,,,,,,,,,,,,,,,,,,,,,,,,,,,,,,,,,,,,,,,,,,,,,,,,,,,,,,,,,,,,,,,,,,,,,,,,,,,,,,,,,,,,,,,,,,,
,,"[""comma"",""comma""]",0,"[0.33429999999700044,1.8436999999880754]",80,0,80,0,1,5f5797583cbc65245d493954,21,Mężczyzna,2022-05-28_09h17.29.619,task,2021.1.4,Win32,60.08171113,628b806c463b948bc644b84f,6291cc6afa0f3fb2606c0416,,,,,,,,,,,,,,,,,,,,,,,,,,,,,,,,,,,,,,,,,,,,,,,,,,,,,,,,,,,,,,,,,,,,,,,,,,,,,,,,,,,,,,,,,,,,,,,,,,,,,,,
,,,0,,81,0,81,0,1,5f5797583cbc65245d493954,21,Mężczyzna,2022-05-28_09h17.29.619,task,2021.1.4,Win32,60.08171113,628b806c463b948bc644b84f,6291cc6afa0f3fb2606c0416,,,,,,,,,,,,,,,,,,,,,,,,,,,,,,,,,,,,,,,,,,,,,,,,,,,,,,,,,,,,,,,,,,,,,,,,,,,,,,,,,,,,,,,,,,,,,,,,,,,,,,,
,,"[""period""]",0,[0.31729999999700453],82,0,82,0,1,5f5797583cbc65245d493954,21,Mężczyzna,2022-05-28_09h17.29.619,task,2021.1.4,Win32,60.08171113,628b806c463b948bc644b84f,6291cc6afa0f3fb2606c0416,,,,,,,,,,,,,,,,,,,,,,,,,,,,,,,,,,,,,,,,,,,,,,,,,,,,,,,,,,,,,,,,,,,,,,,,,,,,,,,,,,,,,,,,,,,,,,,,,,,,,,,
,,"[""period""]",0,[1.1552999999970268],83,0,83,0,1,5f5797583cbc65245d493954,21,Mężczyzna,2022-05-28_09h17.29.619,task,2021.1.4,Win32,60.08171113,628b806c463b948bc644b84f,6291cc6afa0f3fb2606c0416,,,,,,,,,,,,,,,,,,,,,,,,,,,,,,,,,,,,,,,,,,,,,,,,,,,,,,,,,,,,,,,,,,,,,,,,,,,,,,,,,,,,,,,,,,,,,,,,,,,,,,,
,,,0,,84,0,84,0,1,5f5797583cbc65245d493954,21,Mężczyzna,2022-05-28_09h17.29.619,task,2021.1.4,Win32,60.08171113,628b806c463b948bc644b84f,6291cc6afa0f3fb2606c0416,,,,,,,,,,,,,,,,,,,,,,,,,,,,,,,,,,,,,,,,,,,,,,,,,,,,,,,,,,,,,,,,,,,,,,,,,,,,,,,,,,,,,,,,,,,,,,,,,,,,,,,
,,"[""comma""]",0,[0.2504999999999882],85,0,85,0,1,5f5797583cbc65245d493954,21,Mężczyzna,2022-05-28_09h17.29.619,task,2021.1.4,Win32,60.08171113,628b806c463b948bc644b84f,6291cc6afa0f3fb2606c0416,,,,,,,,,,,,,,,,,,,,,,,,,,,,,,,,,,,,,,,,,,,,,,,,,,,,,,,,,,,,,,,,,,,,,,,,,,,,,,,,,,,,,,,,,,,,,,,,,,,,,,,
,,"[""comma""]",0,[0.30510000000893456],86,0,86,0,1,5f5797583cbc65245d493954,21,Mężczyzna,2022-05-28_09h17.29.619,task,2021.1.4,Win32,60.08171113,628b806c463b948bc644b84f,6291cc6afa0f3fb2606c0416,,,,,,,,,,,,,,,,,,,,,,,,,,,,,,,,,,,,,,,,,,,,,,,,,,,,,,,,,,,,,,,,,,,,,,,,,,,,,,,,,,,,,,,,,,,,,,,,,,,,,,,
,,"[""comma""]",0,[0.3675000000000068],87,0,87,0,1,5f5797583cbc65245d493954,21,Mężczyzna,2022-05-28_09h17.29.619,task,2021.1.4,Win32,60.08171113,628b806c463b948bc644b84f,6291cc6afa0f3fb2606c0416,,,,,,,,,,,,,,,,,,,,,,,,,,,,,,,,,,,,,,,,,,,,,,,,,,,,,,,,,,,,,,,,,,,,,,,,,,,,,,,,,,,,,,,,,,,,,,,,,,,,,,,
,,"[""period""]",0,[0.5902999999970575],88,0,88,0,1,5f5797583cbc65245d493954,21,Mężczyzna,2022-05-28_09h17.29.619,task,2021.1.4,Win32,60.08171113,628b806c463b948bc644b84f,6291cc6afa0f3fb2606c0416,,,,,,,,,,,,,,,,,,,,,,,,,,,,,,,,,,,,,,,,,,,,,,,,,,,,,,,,,,,,,,,,,,,,,,,,,,,,,,,,,,,,,,,,,,,,,,,,,,,,,,,
,,"[""period""]",0,[0.35290000000594546],89,0,89,0,1,5f5797583cbc65245d493954,21,Mężczyzna,2022-05-28_09h17.29.619,task,2021.1.4,Win32,60.08171113,628b806c463b948bc644b84f,6291cc6afa0f3fb2606c0416,,,,,,,,,,,,,,,,,,,,,,,,,,,,,,,,,,,,,,,,,,,,,,,,,,,,,,,,,,,,,,,,,,,,,,,,,,,,,,,,,,,,,,,,,,,,,,,,,,,,,,,
,,"[""comma""]",0,[0.4671000000089123],90,0,90,0,1,5f5797583cbc65245d493954,21,Mężczyzna,2022-05-28_09h17.29.619,task,2021.1.4,Win32,60.08171113,628b806c463b948bc644b84f,6291cc6afa0f3fb2606c0416,,,,,,,,,,,,,,,,,,,,,,,,,,,,,,,,,,,,,,,,,,,,,,,,,,,,,,,,,,,,,,,,,,,,,,,,,,,,,,,,,,,,,,,,,,,,,,,,,,,,,,,
,,"[""period""]",0,[0.717200000002947],91,0,91,0,1,5f5797583cbc65245d493954,21,Mężczyzna,2022-05-28_09h17.29.619,task,2021.1.4,Win32,60.08171113,628b806c463b948bc644b84f,6291cc6afa0f3fb2606c0416,,,,,,,,,,,,,,,,,,,,,,,,,,,,,,,,,,,,,,,,,,,,,,,,,,,,,,,,,,,,,,,,,,,,,,,,,,,,,,,,,,,,,,,,,,,,,,,,,,,,,,,
,,"[""comma""]",0,[0.26709999999400225],92,0,92,0,1,5f5797583cbc65245d493954,21,Mężczyzna,2022-05-28_09h17.29.619,task,2021.1.4,Win32,60.08171113,628b806c463b948bc644b84f,6291cc6afa0f3fb2606c0416,,,,,,,,,,,,,,,,,,,,,,,,,,,,,,,,,,,,,,,,,,,,,,,,,,,,,,,,,,,,,,,,,,,,,,,,,,,,,,,,,,,,,,,,,,,,,,,,,,,,,,,
,,"[""period""]",0,[0.3002999999969802],93,0,93,0,1,5f5797583cbc65245d493954,21,Mężczyzna,2022-05-28_09h17.29.619,task,2021.1.4,Win32,60.08171113,628b806c463b948bc644b84f,6291cc6afa0f3fb2606c0416,,,,,,,,,,,,,,,,,,,,,,,,,,,,,,,,,,,,,,,,,,,,,,,,,,,,,,,,,,,,,,,,,,,,,,,,,,,,,,,,,,,,,,,,,,,,,,,,,,,,,,,
,,"[""comma""]",0,[0.28390000000592863],94,0,94,0,1,5f5797583cbc65245d493954,21,Mężczyzna,2022-05-28_09h17.29.619,task,2021.1.4,Win32,60.08171113,628b806c463b948bc644b84f,6291cc6afa0f3fb2606c0416,,,,,,,,,,,,,,,,,,,,,,,,,,,,,,,,,,,,,,,,,,,,,,,,,,,,,,,,,,,,,,,,,,,,,,,,,,,,,,,,,,,,,,,,,,,,,,,,,,,,,,,
,,"[""period""]",0,[0.2540000000000191],95,0,95,0,1,5f5797583cbc65245d493954,21,Mężczyzna,2022-05-28_09h17.29.619,task,2021.1.4,Win32,60.08171113,628b806c463b948bc644b84f,6291cc6afa0f3fb2606c0416,,,,,,,,,,,,,,,,,,,,,,,,,,,,,,,,,,,,,,,,,,,,,,,,,,,,,,,,,,,,,,,,,,,,,,,,,,,,,,,,,,,,,,,,,,,,,,,,,,,,,,,
,,"[""comma""]",0,[0.3838999999910584],96,0,96,0,1,5f5797583cbc65245d493954,21,Mężczyzna,2022-05-28_09h17.29.619,task,2021.1.4,Win32,60.08171113,628b806c463b948bc644b84f,6291cc6afa0f3fb2606c0416,,,,,,,,,,,,,,,,,,,,,,,,,,,,,,,,,,,,,,,,,,,,,,,,,,,,,,,,,,,,,,,,,,,,,,,,,,,,,,,,,,,,,,,,,,,,,,,,,,,,,,,
,,"[""period""]",0,[0.23379999999701795],97,0,97,0,1,5f5797583cbc65245d493954,21,Mężczyzna,2022-05-28_09h17.29.619,task,2021.1.4,Win32,60.08171113,628b806c463b948bc644b84f,6291cc6afa0f3fb2606c0416,,,,,,,,,,,,,,,,,,,,,,,,,,,,,,,,,,,,,,,,,,,,,,,,,,,,,,,,,,,,,,,,,,,,,,,,,,,,,,,,,,,,,,,,,,,,,,,,,,,,,,,
,,"[""comma""]",0,[0.24010000000896525],98,0,98,0,1,5f5797583cbc65245d493954,21,Mężczyzna,2022-05-28_09h17.29.619,task,2021.1.4,Win32,60.08171113,628b806c463b948bc644b84f,6291cc6afa0f3fb2606c0416,,,,,,,,,,,,,,,,,,,,,,,,,,,,,,,,,,,,,,,,,,,,,,,,,,,,,,,,,,,,,,,,,,,,,,,,,,,,,,,,,,,,,,,,,,,,,,,,,,,,,,,
,,"[""period""]",0,[0.32240000000598457],99,0,99,0,1,5f5797583cbc65245d493954,21,Mężczyzna,2022-05-28_09h17.29.619,task,2021.1.4,Win32,60.08171113,628b806c463b948bc644b84f,6291cc6afa0f3fb2606c0416,,,,,,,,,,,,,,,,,,,,,,,,,,,,,,,,,,,,,,,,,,,,,,,,,,,,,,,,,,,,,,,,,,,,,,,,,,,,,,,,,,,,,,,,,,,,,,,,,,,,,,,
,,"[""comma""]",0,[0.3386000000089666],100,0,100,0,1,5f5797583cbc65245d493954,21,Mężczyzna,2022-05-28_09h17.29.619,task,2021.1.4,Win32,60.08171113,628b806c463b948bc644b84f,6291cc6afa0f3fb2606c0416,,,,,,,,,,,,,,,,,,,,,,,,,,,,,,,,,,,,,,,,,,,,,,,,,,,,,,,,,,,,,,,,,,,,,,,,,,,,,,,,,,,,,,,,,,,,,,,,,,,,,,,
,,"[""period""]",0,[0.5166999999880773],101,0,101,0,1,5f5797583cbc65245d493954,21,Mężczyzna,2022-05-28_09h17.29.619,task,2021.1.4,Win32,60.08171113,628b806c463b948bc644b84f,6291cc6afa0f3fb2606c0416,,,,,,,,,,,,,,,,,,,,,,,,,,,,,,,,,,,,,,,,,,,,,,,,,,,,,,,,,,,,,,,,,,,,,,,,,,,,,,,,,,,,,,,,,,,,,,,,,,,,,,,
,,"[""comma""]",0,[0.4423000000118691],102,0,102,0,1,5f5797583cbc65245d493954,21,Mężczyzna,2022-05-28_09h17.29.619,task,2021.1.4,Win32,60.08171113,628b806c463b948bc644b84f,6291cc6afa0f3fb2606c0416,,,,,,,,,,,,,,,,,,,,,,,,,,,,,,,,,,,,,,,,,,,,,,,,,,,,,,,,,,,,,,,,,,,,,,,,,,,,,,,,,,,,,,,,,,,,,,,,,,,,,,,
,,"[""period""]",0,[0.26400000000001],103,0,103,0,1,5f5797583cbc65245d493954,21,Mężczyzna,2022-05-28_09h17.29.619,task,2021.1.4,Win32,60.08171113,628b806c463b948bc644b84f,6291cc6afa0f3fb2606c0416,,,,,,,,,,,,,,,,,,,,,,,,,,,,,,,,,,,,,,,,,,,,,,,,,,,,,,,,,,,,,,,,,,,,,,,,,,,,,,,,,,,,,,,,,,,,,,,,,,,,,,,
,,"[""period""]",0,[0.24120000000294795],104,0,104,0,1,5f5797583cbc65245d493954,21,Mężczyzna,2022-05-28_09h17.29.619,task,2021.1.4,Win32,60.08171113,628b806c463b948bc644b84f,6291cc6afa0f3fb2606c0416,,,,,,,,,,,,,,,,,,,,,,,,,,,,,,,,,,,,,,,,,,,,,,,,,,,,,,,,,,,,,,,,,,,,,,,,,,,,,,,,,,,,,,,,,,,,,,,,,,,,,,,
,,"[""comma""]",0,[0.09899999999998954],105,0,105,0,1,5f5797583cbc65245d493954,21,Mężczyzna,2022-05-28_09h17.29.619,task,2021.1.4,Win32,60.08171113,628b806c463b948bc644b84f,6291cc6afa0f3fb2606c0416,,,,,,,,,,,,,,,,,,,,,,,,,,,,,,,,,,,,,,,,,,,,,,,,,,,,,,,,,,,,,,,,,,,,,,,,,,,,,,,,,,,,,,,,,,,,,,,,,,,,,,,
,,"[""period""]",0,[0.6507000000029848],106,0,106,0,1,5f5797583cbc65245d493954,21,Mężczyzna,2022-05-28_09h17.29.619,task,2021.1.4,Win32,60.08171113,628b806c463b948bc644b84f,6291cc6afa0f3fb2606c0416,,,,,,,,,,,,,,,,,,,,,,,,,,,,,,,,,,,,,,,,,,,,,,,,,,,,,,,,,,,,,,,,,,,,,,,,,,,,,,,,,,,,,,,,,,,,,,,,,,,,,,,
,,"[""comma""]",0,[0.35420000000300433],107,0,107,0,1,5f5797583cbc65245d493954,21,Mężczyzna,2022-05-28_09h17.29.619,task,2021.1.4,Win32,60.08171113,628b806c463b948bc644b84f,6291cc6afa0f3fb2606c0416,,,,,,,,,,,,,,,,,,,,,,,,,,,,,,,,,,,,,,,,,,,,,,,,,,,,,,,,,,,,,,,,,,,,,,,,,,,,,,,,,,,,,,,,,,,,,,,,,,,,,,,
,,"[""comma""]",0,[0.25529999999702113],108,0,108,0,1,5f5797583cbc65245d493954,21,Mężczyzna,2022-05-28_09h17.29.619,task,2021.1.4,Win32,60.08171113,628b806c463b948bc644b84f,6291cc6afa0f3fb2606c0416,,,,,,,,,,,,,,,,,,,,,,,,,,,,,,,,,,,,,,,,,,,,,,,,,,,,,,,,,,,,,,,,,,,,,,,,,,,,,,,,,,,,,,,,,,,,,,,,,,,,,,,
,,"[""comma""]",0,[0.5339999999999918],109,0,109,0,1,5f5797583cbc65245d493954,21,Mężczyzna,2022-05-28_09h17.29.619,task,2021.1.4,Win32,60.08171113,628b806c463b948bc644b84f,6291cc6afa0f3fb2606c0416,,,,,,,,,,,,,,,,,,,,,,,,,,,,,,,,,,,,,,,,,,,,,,,,,,,,,,,,,,,,,,,,,,,,,,,,,,,,,,,,,,,,,,,,,,,,,,,,,,,,,,,
,,"[""period""]",0,[0.27439999999103293],110,0,110,0,1,5f5797583cbc65245d493954,21,Mężczyzna,2022-05-28_09h17.29.619,task,2021.1.4,Win32,60.08171113,628b806c463b948bc644b84f,6291cc6afa0f3fb2606c0416,,,,,,,,,,,,,,,,,,,,,,,,,,,,,,,,,,,,,,,,,,,,,,,,,,,,,,,,,,,,,,,,,,,,,,,,,,,,,,,,,,,,,,,,,,,,,,,,,,,,,,,
,,"[""comma""]",0,[0.2712000000029775],111,0,111,0,1,5f5797583cbc65245d493954,21,Mężczyzna,2022-05-28_09h17.29.619,task,2021.1.4,Win32,60.08171113,628b806c463b948bc644b84f,6291cc6afa0f3fb2606c0416,,,,,,,,,,,,,,,,,,,,,,,,,,,,,,,,,,,,,,,,,,,,,,,,,,,,,,,,,,,,,,,,,,,,,,,,,,,,,,,,,,,,,,,,,,,,,,,,,,,,,,,
,,"[""period""]",0,[0.38420000000297705],112,0,112,0,1,5f5797583cbc65245d493954,21,Mężczyzna,2022-05-28_09h17.29.619,task,2021.1.4,Win32,60.08171113,628b806c463b948bc644b84f,6291cc6afa0f3fb2606c0416,,,,,,,,,,,,,,,,,,,,,,,,,,,,,,,,,,,,,,,,,,,,,,,,,,,,,,,,,,,,,,,,,,,,,,,,,,,,,,,,,,,,,,,,,,,,,,,,,,,,,,,
,,"[""comma"",""period""]",0,"[0.33580000001188637,1.9424000000059323]",113,0,113,0,1,5f5797583cbc65245d493954,21,Mężczyzna,2022-05-28_09h17.29.619,task,2021.1.4,Win32,60.08171113,628b806c463b948bc644b84f,6291cc6afa0f3fb2606c0416,,,,,,,,,,,,,,,,,,,,,,,,,,,,,,,,,,,,,,,,,,,,,,,,,,,,,,,,,,,,,,,,,,,,,,,,,,,,,,,,,,,,,,,,,,,,,,,,,,,,,,,
,,,0,,114,0,114,0,1,5f5797583cbc65245d493954,21,Mężczyzna,2022-05-28_09h17.29.619,task,2021.1.4,Win32,60.08171113,628b806c463b948bc644b84f,6291cc6afa0f3fb2606c0416,,,,,,,,,,,,,,,,,,,,,,,,,,,,,,,,,,,,,,,,,,,,,,,,,,,,,,,,,,,,,,,,,,,,,,,,,,,,,,,,,,,,,,,,,,,,,,,,,,,,,,,
,,"[""comma""]",0,[0.32499999999998863],115,0,115,0,1,5f5797583cbc65245d493954,21,Mężczyzna,2022-05-28_09h17.29.619,task,2021.1.4,Win32,60.08171113,628b806c463b948bc644b84f,6291cc6afa0f3fb2606c0416,,,,,,,,,,,,,,,,,,,,,,,,,,,,,,,,,,,,,,,,,,,,,,,,,,,,,,,,,,,,,,,,,,,,,,,,,,,,,,,,,,,,,,,,,,,,,,,,,,,,,,,
,,"[""comma""]",0,[0.3272000000029607],116,0,116,0,1,5f5797583cbc65245d493954,21,Mężczyzna,2022-05-28_09h17.29.619,task,2021.1.4,Win32,60.08171113,628b806c463b948bc644b84f,6291cc6afa0f3fb2606c0416,,,,,,,,,,,,,,,,,,,,,,,,,,,,,,,,,,,,,,,,,,,,,,,,,,,,,,,,,,,,,,,,,,,,,,,,,,,,,,,,,,,,,,,,,,,,,,,,,,,,,,,
,,"[""period""]",0,[0.3047999999970443],117,0,117,0,1,5f5797583cbc65245d493954,21,Mężczyzna,2022-05-28_09h17.29.619,task,2021.1.4,Win32,60.08171113,628b806c463b948bc644b84f,6291cc6afa0f3fb2606c0416,,,,,,,,,,,,,,,,,,,,,,,,,,,,,,,,,,,,,,,,,,,,,,,,,,,,,,,,,,,,,,,,,,,,,,,,,,,,,,,,,,,,,,,,,,,,,,,,,,,,,,,
,,"[""comma""]",0,[0.2518999999910534],118,0,118,0,1,5f5797583cbc65245d493954,21,Mężczyzna,2022-05-28_09h17.29.619,task,2021.1.4,Win32,60.08171113,628b806c463b948bc644b84f,6291cc6afa0f3fb2606c0416,,,,,,,,,,,,,,,,,,,,,,,,,,,,,,,,,,,,,,,,,,,,,,,,,,,,,,,,,,,,,,,,,,,,,,,,,,,,,,,,,,,,,,,,,,,,,,,,,,,,,,,
,,"[""period""]",0,[0.28770000000298523],119,0,119,0,1,5f5797583cbc65245d493954,21,Mężczyzna,2022-05-28_09h17.29.619,task,2021.1.4,Win32,60.08171113,628b806c463b948bc644b84f,6291cc6afa0f3fb2606c0416,,,,,,,,,,,,,,,,,,,,,,,,,,,,,,,,,,,,,,,,,,,,,,,,,,,,,,,,,,,,,,,,,,,,,,,,,,,,,,,,,,,,,,,,,,,,,,,,,,,,,,,
,,,,,,,,,,5f5797583cbc65245d493954,21,Mężczyzna,2022-05-28_09h17.29.619,task,2021.1.4,Win32,60.08171113,628b806c463b948bc644b84f,6291cc6afa0f3fb2606c0416,space,38.3817,space,5.9872,0,0,0,0,1,"X V Q F H G B L J M P D K C T S W R N Z
",,,,,,,,,,,,,,,,,,,,,,,,,,,,,,,,,,,,,,,,,,,,,,,,,,,,,,,,,,,,,,,,,,,,,,,,,,,,,,,,,,,,,,,,,,,,,
,,,,,,,,,,5f5797583cbc65245d493954,21,Mężczyzna,2022-05-28_09h17.29.619,task,2021.1.4,Win32,60.08171113,628b806c463b948bc644b84f,6291cc6afa0f3fb2606c0416,,,,,1,0,1,0,1,"X V Q F H G B L J M P D K C T S W R N Z
",,,,,,,,,,,,,,,,,,,,,,,,,,,,,,,,,,,,,,,,,,,,,,,,,,,,,,,,,,,,,,,,,,,,,,,,,,,,,,,,,,,,,,,,,,,,,
,,,,,,,,,,5f5797583cbc65245d493954,21,Mężczyzna,2022-05-28_09h17.29.619,task,2021.1.4,Win32,60.08171113,628b806c463b948bc644b84f,6291cc6afa0f3fb2606c0416,,,,,,,,,,,zd,"[""z"",""d""]","[1.7523000000118714,4.834900000005916,5.164999999999964]",1,ZD,0,0,0,0,1,,,,,,,,,,,,,,,,,,,,,,,,,,,,,,,,,,,,,,,,,,,,,,,,,,,,,,,,,,,,,,,,,,,,,,,,,,,,,,,,,,,
,,,,,,,,,,5f5797583cbc65245d493954,21,Mężczyzna,2022-05-28_09h17.29.619,task,2021.1.4,Win32,60.08171113,628b806c463b948bc644b84f,6291cc6afa0f3fb2606c0416,,,,,0,0,0,0,1,"X V Q F H G B L J M P D K C T S W R N Z
",,,,,,,,,,,,,,,,,,,,,,,,,,,,,,,,,,,,,,,,,,,,,,,,,,,,,,,,,,,,,,,,,,,,,,,,,,,,,,,,,,,,,,,,,,,,,
,,,,,,,,,,5f5797583cbc65245d493954,21,Mężczyzna,2022-05-28_09h17.29.619,task,2021.1.4,Win32,60.08171113,628b806c463b948bc644b84f,6291cc6afa0f3fb2606c0416,,,,,1,0,1,0,1,"X V Q F H G B L J M P D K C T S W R N Z
",,,,,,,,,,,,,,,,,,,,,,,,,,,,,,,,,,,,,,,,,,,,,,,,,,,,,,,,,,,,,,,,,,,,,,,,,,,,,,,,,,,,,,,,,,,,,
,,,,,,,,,,5f5797583cbc65245d493954,21,Mężczyzna,2022-05-28_09h17.29.619,task,2021.1.4,Win32,60.08171113,628b806c463b948bc644b84f,6291cc6afa0f3fb2606c0416,,,,,,,,,,,wh,"[""w"",""h""]","[1.1899999999999977,1.5050999999940018,1.9806999999880759]",1,WH,1,0,1,0,1,,,,,,,,,,,,,,,,,,,,,,,,,,,,,,,,,,,,,,,,,,,,,,,,,,,,,,,,,,,,,,,,,,,,,,,,,,,,,,,,,,,
,,,,,,,,,,5f5797583cbc65245d493954,21,Mężczyzna,2022-05-28_09h17.29.619,task,2021.1.4,Win32,60.08171113,628b806c463b948bc644b84f,6291cc6afa0f3fb2606c0416,,,,,0,0,0,0,1,"X V Q F H G B L J M P D K C T S W R N Z
",,,,,,,,,,,,,,,,,,,,,,,,,,,,,,,,,,,,,,,,,,,,,,,,,,,,,,,,,,,,,,,,,,,,,,,,,,,,,,,,,,,,,,,,,,,,,
,,,,,,,,,,5f5797583cbc65245d493954,21,Mężczyzna,2022-05-28_09h17.29.619,task,2021.1.4,Win32,60.08171113,628b806c463b948bc644b84f,6291cc6afa0f3fb2606c0416,,,,,1,0,1,0,1,"X V Q F H G B L J M P D K C T S W R N Z
",,,,,,,,,,,,,,,,,,,,,,,,,,,,,,,,,,,,,,,,,,,,,,,,,,,,,,,,,,,,,,,,,,,,,,,,,,,,,,,,,,,,,,,,,,,,,
,,,,,,,,,,5f5797583cbc65245d493954,21,Mężczyzna,2022-05-28_09h17.29.619,task,2021.1.4,Win32,60.08171113,628b806c463b948bc644b84f,6291cc6afa0f3fb2606c0416,,,,,2,0,2,0,1,"X V Q F H G B L J M P D K C T S W R N Z
",,,,,,,,,,,,,,,,,,,,,,,,,,,,,,,,,,,,,,,,,,,,,,,,,,,,,,,,,,,,,,,,,,,,,,,,,,,,,,,,,,,,,,,,,,,,,
,,,,,,,,,,5f5797583cbc65245d493954,21,Mężczyzna,2022-05-28_09h17.29.619,task,2021.1.4,Win32,60.08171113,628b806c463b948bc644b84f,6291cc6afa0f3fb2606c0416,,,,,,,,,,,ssc,"[""s"",""s"",""c""]","[0.6502999999970029,0.9396999999880791,1.3456999999880281,1.6357999999970048]",1,SSC,2,0,2,0,1,,,,,,,,,,,,,,,,,,,,,,,,,,,,,,,,,,,,,,,,,,,,,,,,,,,,,,,,,,,,,,,,,,,,,,,,,,,,,,,,,,,
,,,,,,,,,,5f5797583cbc65245d493954,21,Mężczyzna,2022-05-28_09h17.29.619,task,2021.1.4,Win32,60.08171113,628b806c463b948bc644b84f,6291cc6afa0f3fb2606c0416,,,,,0,0,0,0,1,"X V Q F H G B L J M P D K C T S W R N Z
",,,,,,,,,,,,,,,,,,,,,,,,,,,,,,,,,,,,,,,,,,,,,,,,,,,,,,,,,,,,,,,,,,,,,,,,,,,,,,,,,,,,,,,,,,,,,
,,,,,,,,,,5f5797583cbc65245d493954,21,Mężczyzna,2022-05-28_09h17.29.619,task,2021.1.4,Win32,60.08171113,628b806c463b948bc644b84f,6291cc6afa0f3fb2606c0416,,,,,1,0,1,0,1,"X V Q F H G B L J M P D K C T S W R N Z
",,,,,,,,,,,,,,,,,,,,,,,,,,,,,,,,,,,,,,,,,,,,,,,,,,,,,,,,,,,,,,,,,,,,,,,,,,,,,,,,,,,,,,,,,,,,,
,,,,,,,,,,5f5797583cbc65245d493954,21,Mężczyzna,2022-05-28_09h17.29.619,task,2021.1.4,Win32,60.08171113,628b806c463b948bc644b84f,6291cc6afa0f3fb2606c0416,,,,,2,0,2,0,1,"X V Q F H G B L J M P D K C T S W R N Z
",,,,,,,,,,,,,,,,,,,,,,,,,,,,,,,,,,,,,,,,,,,,,,,,,,,,,,,,,,,,,,,,,,,,,,,,,,,,,,,,,,,,,,,,,,,,,
,,,,,,,,,,5f5797583cbc65245d493954,21,Mężczyzna,2022-05-28_09h17.29.619,task,2021.1.4,Win32,60.08171113,628b806c463b948bc644b84f,6291cc6afa0f3fb2606c0416,,,,,,,,,,,tcv,"[""t"",""c"",""v""]","[0.9832000000029666,1.3253999999910775,1.6399999999999864,1.9652999999970007]",1,TCV,3,0,3,0,1,,,,,,,,,,,,,,,,,,,,,,,,,,,,,,,,,,,,,,,,,,,,,,,,,,,,,,,,,,,,,,,,,,,,,,,,,,,,,,,,,,,
,,,,,,,,,,5f5797583cbc65245d493954,21,Mężczyzna,2022-05-28_09h17.29.619,task,2021.1.4,Win32,60.08171113,628b806c463b948bc644b84f,6291cc6afa0f3fb2606c0416,,,,,0,0,0,0,1,"X V Q F H G B L J M P D K C T S W R N Z
",,,,,,,,,,,,,,,,,,,,,,,,,,,,,,,,,,,,,,,,,,,,,,,,,,,,,,,,,,,,,,,,,,,,,,,,,,,,,,,,,,,,,,,,,,,,,
,,,,,,,,,,5f5797583cbc65245d493954,21,Mężczyzna,2022-05-28_09h17.29.619,task,2021.1.4,Win32,60.08171113,628b806c463b948bc644b84f,6291cc6afa0f3fb2606c0416,,,,,1,0,1,0,1,"X V Q F H G B L J M P D K C T S W R N Z
",,,,,,,,,,,,,,,,,,,,,,,,,,,,,,,,,,,,,,,,,,,,,,,,,,,,,,,,,,,,,,,,,,,,,,,,,,,,,,,,,,,,,,,,,,,,,
,,,,,,,,,,5f5797583cbc65245d493954,21,Mężczyzna,2022-05-28_09h17.29.619,task,2021.1.4,Win32,60.08171113,628b806c463b948bc644b84f,6291cc6afa0f3fb2606c0416,,,,,2,0,2,0,1,"X V Q F H G B L J M P D K C T S W R N Z
",,,,,,,,,,,,,,,,,,,,,,,,,,,,,,,,,,,,,,,,,,,,,,,,,,,,,,,,,,,,,,,,,,,,,,,,,,,,,,,,,,,,,,,,,,,,,
,,,,,,,,,,5f5797583cbc65245d493954,21,Mężczyzna,2022-05-28_09h17.29.619,task,2021.1.4,Win32,60.08171113,628b806c463b948bc644b84f,6291cc6afa0f3fb2606c0416,,,,,3,0,3,0,1,"X V Q F H G B L J M P D K C T S W R N Z
",,,,,,,,,,,,,,,,,,,,,,,,,,,,,,,,,,,,,,,,,,,,,,,,,,,,,,,,,,,,,,,,,,,,,,,,,,,,,,,,,,,,,,,,,,,,,
,,,,,,,,,,5f5797583cbc65245d493954,21,Mężczyzna,2022-05-28_09h17.29.619,task,2021.1.4,Win32,60.08171113,628b806c463b948bc644b84f,6291cc6afa0f3fb2606c0416,,,,,,,,,,,ttzt,"[""t"",""t"",""z"",""t""]","[1.112799999997037,1.4027000000029943,1.7875000000000227,2.0382999999970366,2.593099999994081]",0,"TTZ
T",4,0,4,0,1,,,,,,,,,,,,,,,,,,,,,,,,,,,,,,,,,,,,,,,,,,,,,,,,,,,,,,,,,,,,,,,,,,,,,,,,,,,,,,,,,,,
,,,,,,,,,,5f5797583cbc65245d493954,21,Mężczyzna,2022-05-28_09h17.29.619,task,2021.1.4,Win32,60.08171113,628b806c463b948bc644b84f,6291cc6afa0f3fb2606c0416,,,,,0,0,0,0,1,"X V Q F H G B L J M P D K C T S W R N Z
",,,,,,,,,,,,,,,,,,,,,,,,,,,,,,,,,,,,,,,,,,,,,,,,,,,,,,,,,,,,,,,,,,,,,,,,,,,,,,,,,,,,,,,,,,,,,
,,,,,,,,,,5f5797583cbc65245d493954,21,Mężczyzna,2022-05-28_09h17.29.619,task,2021.1.4,Win32,60.08171113,628b806c463b948bc644b84f,6291cc6afa0f3fb2606c0416,,,,,1,0,1,0,1,"X V Q F H G B L J M P D K C T S W R N Z
",,,,,,,,,,,,,,,,,,,,,,,,,,,,,,,,,,,,,,,,,,,,,,,,,,,,,,,,,,,,,,,,,,,,,,,,,,,,,,,,,,,,,,,,,,,,,
,,,,,,,,,,5f5797583cbc65245d493954,21,Mężczyzna,2022-05-28_09h17.29.619,task,2021.1.4,Win32,60.08171113,628b806c463b948bc644b84f,6291cc6afa0f3fb2606c0416,,,,,2,0,2,0,1,"X V Q F H G B L J M P D K C T S W R N Z
",,,,,,,,,,,,,,,,,,,,,,,,,,,,,,,,,,,,,,,,,,,,,,,,,,,,,,,,,,,,,,,,,,,,,,,,,,,,,,,,,,,,,,,,,,,,,
,,,,,,,,,,5f5797583cbc65245d493954,21,Mężczyzna,2022-05-28_09h17.29.619,task,2021.1.4,Win32,60.08171113,628b806c463b948bc644b84f,6291cc6afa0f3fb2606c0416,,,,,3,0,3,0,1,"X V Q F H G B L J M P D K C T S W R N Z
",,,,,,,,,,,,,,,,,,,,,,,,,,,,,,,,,,,,,,,,,,,,,,,,,,,,,,,,,,,,,,,,,,,,,,,,,,,,,,,,,,,,,,,,,,,,,
,,,,,,,,,,5f5797583cbc65245d493954,21,Mężczyzna,2022-05-28_09h17.29.619,task,2021.1.4,Win32,60.08171113,628b806c463b948bc644b84f,6291cc6afa0f3fb2606c0416,,,,,,,,,,,qwrj,"[""q"",""w"",""r"",""j""]","[0.9379000000059818,1.3495000000000346,2.0587000000030002,2.5340000000000487,3.1296000000089634]",1,QWRJ,5,0,5,0,1,,,,,,,,,,,,,,,,,,,,,,,,,,,,,,,,,,,,,,,,,,,,,,,,,,,,,,,,,,,,,,,,,,,,,,,,,,,,,,,,,,,
,,,,,,,,,,5f5797583cbc65245d493954,21,Mężczyzna,2022-05-28_09h17.29.619,task,2021.1.4,Win32,60.08171113,628b806c463b948bc644b84f,6291cc6afa0f3fb2606c0416,,,,,0,0,0,0,1,"X V Q F H G B L J M P D K C T S W R N Z
",,,,,,,,,,,,,,,,,,,,,,,,,,,,,,,,,,,,,,,,,,,,,,,,,,,,,,,,,,,,,,,,,,,,,,,,,,,,,,,,,,,,,,,,,,,,,
,,,,,,,,,,5f5797583cbc65245d493954,21,Mężczyzna,2022-05-28_09h17.29.619,task,2021.1.4,Win32,60.08171113,628b806c463b948bc644b84f,6291cc6afa0f3fb2606c0416,,,,,1,0,1,0,1,"X V Q F H G B L J M P D K C T S W R N Z
",,,,,,,,,,,,,,,,,,,,,,,,,,,,,,,,,,,,,,,,,,,,,,,,,,,,,,,,,,,,,,,,,,,,,,,,,,,,,,,,,,,,,,,,,,,,,
,,,,,,,,,,5f5797583cbc65245d493954,21,Mężczyzna,2022-05-28_09h17.29.619,task,2021.1.4,Win32,60.08171113,628b806c463b948bc644b84f,6291cc6afa0f3fb2606c0416,,,,,2,0,2,0,1,"X V Q F H G B L J M P D K C T S W R N Z
",,,,,,,,,,,,,,,,,,,,,,,,,,,,,,,,,,,,,,,,,,,,,,,,,,,,,,,,,,,,,,,,,,,,,,,,,,,,,,,,,,,,,,,,,,,,,
,,,,,,,,,,5f5797583cbc65245d493954,21,Mężczyzna,2022-05-28_09h17.29.619,task,2021.1.4,Win32,60.08171113,628b806c463b948bc644b84f,6291cc6afa0f3fb2606c0416,,,,,3,0,3,0,1,"X V Q F H G B L J M P D K C T S W R N Z
",,,,,,,,,,,,,,,,,,,,,,,,,,,,,,,,,,,,,,,,,,,,,,,,,,,,,,,,,,,,,,,,,,,,,,,,,,,,,,,,,,,,,,,,,,,,,
,,,,,,,,,,5f5797583cbc65245d493954,21,Mężczyzna,2022-05-28_09h17.29.619,task,2021.1.4,Win32,60.08171113,628b806c463b948bc644b84f,6291cc6afa0f3fb2606c0416,,,,,,,,,,,llgd,"[""l"",""l"",""g"",""d""]","[1.3331000000089261,1.540200000002983,2.0405000000000086,2.340900000005945,2.8062000000029457]",1,LLGD,6,0,6,0,1,,,,,,,,,,,,,,,,,,,,,,,,,,,,,,,,,,,,,,,,,,,,,,,,,,,,,,,,,,,,,,,,,,,,,,,,,,,,,,,,,,,
,,,,,,,,,,5f5797583cbc65245d493954,21,Mężczyzna,2022-05-28_09h17.29.619,task,2021.1.4,Win32,60.08171113,628b806c463b948bc644b84f,6291cc6afa0f3fb2606c0416,,,,,0,0,0,0,1,"X V Q F H G B L J M P D K C T S W R N Z
",,,,,,,,,,,,,,,,,,,,,,,,,,,,,,,,,,,,,,,,,,,,,,,,,,,,,,,,,,,,,,,,,,,,,,,,,,,,,,,,,,,,,,,,,,,,,
,,,,,,,,,,5f5797583cbc65245d493954,21,Mężczyzna,2022-05-28_09h17.29.619,task,2021.1.4,Win32,60.08171113,628b806c463b948bc644b84f,6291cc6afa0f3fb2606c0416,,,,,1,0,1,0,1,"X V Q F H G B L J M P D K C T S W R N Z
",,,,,,,,,,,,,,,,,,,,,,,,,,,,,,,,,,,,,,,,,,,,,,,,,,,,,,,,,,,,,,,,,,,,,,,,,,,,,,,,,,,,,,,,,,,,,
,,,,,,,,,,5f5797583cbc65245d493954,21,Mężczyzna,2022-05-28_09h17.29.619,task,2021.1.4,Win32,60.08171113,628b806c463b948bc644b84f,6291cc6afa0f3fb2606c0416,,,,,2,0,2,0,1,"X V Q F H G B L J M P D K C T S W R N Z
",,,,,,,,,,,,,,,,,,,,,,,,,,,,,,,,,,,,,,,,,,,,,,,,,,,,,,,,,,,,,,,,,,,,,,,,,,,,,,,,,,,,,,,,,,,,,
,,,,,,,,,,5f5797583cbc65245d493954,21,Mężczyzna,2022-05-28_09h17.29.619,task,2021.1.4,Win32,60.08171113,628b806c463b948bc644b84f,6291cc6afa0f3fb2606c0416,,,,,3,0,3,0,1,"X V Q F H G B L J M P D K C T S W R N Z
",,,,,,,,,,,,,,,,,,,,,,,,,,,,,,,,,,,,,,,,,,,,,,,,,,,,,,,,,,,,,,,,,,,,,,,,,,,,,,,,,,,,,,,,,,,,,
,,,,,,,,,,5f5797583cbc65245d493954,21,Mężczyzna,2022-05-28_09h17.29.619,task,2021.1.4,Win32,60.08171113,628b806c463b948bc644b84f,6291cc6afa0f3fb2606c0416,,,,,4,0,4,0,1,"X V Q F H G B L J M P D K C T S W R N Z
",,,,,,,,,,,,,,,,,,,,,,,,,,,,,,,,,,,,,,,,,,,,,,,,,,,,,,,,,,,,,,,,,,,,,,,,,,,,,,,,,,,,,,,,,,,,,
,,,,,,,,,,5f5797583cbc65245d493954,21,Mężczyzna,2022-05-28_09h17.29.619,task,2021.1.4,Win32,60.08171113,628b806c463b948bc644b84f,6291cc6afa0f3fb2606c0416,,,,,,,,,,,mldbp,"[""m"",""l"",""d"",""b"",""p""]","[0.8057999999970207,0.9510999999940282,1.2409999999999854,2.6124999999999545,2.78269999998804,3.200099999993995]",1,MLDBP,7,0,7,0,1,,,,,,,,,,,,,,,,,,,,,,,,,,,,,,,,,,,,,,,,,,,,,,,,,,,,,,,,,,,,,,,,,,,,,,,,,,,,,,,,,,,
,,,,,,,,,,5f5797583cbc65245d493954,21,Mężczyzna,2022-05-28_09h17.29.619,task,2021.1.4,Win32,60.08171113,628b806c463b948bc644b84f,6291cc6afa0f3fb2606c0416,,,,,0,0,0,0,1,"X V Q F H G B L J M P D K C T S W R N Z
",,,,,,,,,,,,,,,,,,,,,,,,,,,,,,,,,,,,,,,,,,,,,,,,,,,,,,,,,,,,,,,,,,,,,,,,,,,,,,,,,,,,,,,,,,,,,
,,,,,,,,,,5f5797583cbc65245d493954,21,Mężczyzna,2022-05-28_09h17.29.619,task,2021.1.4,Win32,60.08171113,628b806c463b948bc644b84f,6291cc6afa0f3fb2606c0416,,,,,1,0,1,0,1,"X V Q F H G B L J M P D K C T S W R N Z
",,,,,,,,,,,,,,,,,,,,,,,,,,,,,,,,,,,,,,,,,,,,,,,,,,,,,,,,,,,,,,,,,,,,,,,,,,,,,,,,,,,,,,,,,,,,,
,,,,,,,,,,5f5797583cbc65245d493954,21,Mężczyzna,2022-05-28_09h17.29.619,task,2021.1.4,Win32,60.08171113,628b806c463b948bc644b84f,6291cc6afa0f3fb2606c0416,,,,,2,0,2,0,1,"X V Q F H G B L J M P D K C T S W R N Z
",,,,,,,,,,,,,,,,,,,,,,,,,,,,,,,,,,,,,,,,,,,,,,,,,,,,,,,,,,,,,,,,,,,,,,,,,,,,,,,,,,,,,,,,,,,,,
,,,,,,,,,,5f5797583cbc65245d493954,21,Mężczyzna,2022-05-28_09h17.29.619,task,2021.1.4,Win32,60.08171113,628b806c463b948bc644b84f,6291cc6afa0f3fb2606c0416,,,,,3,0,3,0,1,"X V Q F H G B L J M P D K C T S W R N Z
",,,,,,,,,,,,,,,,,,,,,,,,,,,,,,,,,,,,,,,,,,,,,,,,,,,,,,,,,,,,,,,,,,,,,,,,,,,,,,,,,,,,,,,,,,,,,
,,,,,,,,,,5f5797583cbc65245d493954,21,Mężczyzna,2022-05-28_09h17.29.619,task,2021.1.4,Win32,60.08171113,628b806c463b948bc644b84f,6291cc6afa0f3fb2606c0416,,,,,4,0,4,0,1,"X V Q F H G B L J M P D K C T S W R N Z
",,,,,,,,,,,,,,,,,,,,,,,,,,,,,,,,,,,,,,,,,,,,,,,,,,,,,,,,,,,,,,,,,,,,,,,,,,,,,,,,,,,,,,,,,,,,,
,,,,,,,,,,5f5797583cbc65245d493954,21,Mężczyzna,2022-05-28_09h17.29.619,task,2021.1.4,Win32,60.08171113,628b806c463b948bc644b84f,6291cc6afa0f3fb2606c0416,,,,,,,,,,,dwxnt,"[""d"",""w"",""x"",""n"",""t""]","[1.0427000000029807,1.5977000000029307,2.8449999999999704,3.179499999999962,3.573800000011886,4.149400000005926]",1,DWXNT,8,0,8,0,1,,,,,,,,,,,,,,,,,,,,,,,,,,,,,,,,,,,,,,,,,,,,,,,,,,,,,,,,,,,,,,,,,,,,,,,,,,,,,,,,,,,
,,,,,,,,,,5f5797583cbc65245d493954,21,Mężczyzna,2022-05-28_09h17.29.619,task,2021.1.4,Win32,60.08171113,628b806c463b948bc644b84f,6291cc6afa0f3fb2606c0416,,,,,0,0,0,0,1,"X V Q F H G B L J M P D K C T S W R N Z
",,,,,,,,,,,,,,,,,,,,,,,,,,,,,,,,,,,,,,,,,,,,,,,,,,,,,,,,,,,,,,,,,,,,,,,,,,,,,,,,,,,,,,,,,,,,,
,,,,,,,,,,5f5797583cbc65245d493954,21,Mężczyzna,2022-05-28_09h17.29.619,task,2021.1.4,Win32,60.08171113,628b806c463b948bc644b84f,6291cc6afa0f3fb2606c0416,,,,,1,0,1,0,1,"X V Q F H G B L J M P D K C T S W R N Z
",,,,,,,,,,,,,,,,,,,,,,,,,,,,,,,,,,,,,,,,,,,,,,,,,,,,,,,,,,,,,,,,,,,,,,,,,,,,,,,,,,,,,,,,,,,,,
,,,,,,,,,,5f5797583cbc65245d493954,21,Mężczyzna,2022-05-28_09h17.29.619,task,2021.1.4,Win32,60.08171113,628b806c463b948bc644b84f,6291cc6afa0f3fb2606c0416,,,,,2,0,2,0,1,"X V Q F H G B L J M P D K C T S W R N Z
",,,,,,,,,,,,,,,,,,,,,,,,,,,,,,,,,,,,,,,,,,,,,,,,,,,,,,,,,,,,,,,,,,,,,,,,,,,,,,,,,,,,,,,,,,,,,
,,,,,,,,,,5f5797583cbc65245d493954,21,Mężczyzna,2022-05-28_09h17.29.619,task,2021.1.4,Win32,60.08171113,628b806c463b948bc644b84f,6291cc6afa0f3fb2606c0416,,,,,3,0,3,0,1,"X V Q F H G B L J M P D K C T S W R N Z
",,,,,,,,,,,,,,,,,,,,,,,,,,,,,,,,,,,,,,,,,,,,,,,,,,,,,,,,,,,,,,,,,,,,,,,,,,,,,,,,,,,,,,,,,,,,,
,,,,,,,,,,5f5797583cbc65245d493954,21,Mężczyzna,2022-05-28_09h17.29.619,task,2021.1.4,Win32,60.08171113,628b806c463b948bc644b84f,6291cc6afa0f3fb2606c0416,,,,,4,0,4,0,1,"X V Q F H G B L J M P D K C T S W R N Z
",,,,,,,,,,,,,,,,,,,,,,,,,,,,,,,,,,,,,,,,,,,,,,,,,,,,,,,,,,,,,,,,,,,,,,,,,,,,,,,,,,,,,,,,,,,,,
,,,,,,,,,,5f5797583cbc65245d493954,21,Mężczyzna,2022-05-28_09h17.29.619,task,2021.1.4,Win32,60.08171113,628b806c463b948bc644b84f,6291cc6afa0f3fb2606c0416,,,,,5,0,5,0,1,"X V Q F H G B L J M P D K C T S W R N Z
",,,,,,,,,,,,,,,,,,,,,,,,,,,,,,,,,,,,,,,,,,,,,,,,,,,,,,,,,,,,,,,,,,,,,,,,,,,,,,,,,,,,,,,,,,,,,
,,,,,,,,,,5f5797583cbc65245d493954,21,Mężczyzna,2022-05-28_09h17.29.619,task,2021.1.4,Win32,60.08171113,628b806c463b948bc644b84f,6291cc6afa0f3fb2606c0416,,,,,,,,,,,bwwrnt,"[""b"",""w"",""w"",""r"",""n"",""t""]","[1.0320999999940454,1.502999999999986,1.7919000000059668,2.318200000003003,2.9374000000059937,3.1829999999999927,3.6082000000029666]",0,BWWFRN,9,0,9,0,1,,,,,,,,,,,,,,,,,,,,,,,,,,,,,,,,,,,,,,,,,,,,,,,,,,,,,,,,,,,,,,,,,,,,,,,,,,,,,,,,,,,
,,,,,,,,,,5f5797583cbc65245d493954,21,Mężczyzna,2022-05-28_09h17.29.619,task,2021.1.4,Win32,60.08171113,628b806c463b948bc644b84f,6291cc6afa0f3fb2606c0416,,,,,0,0,0,0,1,"X V Q F H G B L J M P D K C T S W R N Z
",,,,,,,,,,,,,,,,,,,,,,,,,,,,,,,,,,,,,,,,,,,,,,,,,,,,,,,,,,,,,,,,,,,,,,,,,,,,,,,,,,,,,,,,,,,,,
,,,,,,,,,,5f5797583cbc65245d493954,21,Mężczyzna,2022-05-28_09h17.29.619,task,2021.1.4,Win32,60.08171113,628b806c463b948bc644b84f,6291cc6afa0f3fb2606c0416,,,,,1,0,1,0,1,"X V Q F H G B L J M P D K C T S W R N Z
",,,,,,,,,,,,,,,,,,,,,,,,,,,,,,,,,,,,,,,,,,,,,,,,,,,,,,,,,,,,,,,,,,,,,,,,,,,,,,,,,,,,,,,,,,,,,
,,,,,,,,,,5f5797583cbc65245d493954,21,Mężczyzna,2022-05-28_09h17.29.619,task,2021.1.4,Win32,60.08171113,628b806c463b948bc644b84f,6291cc6afa0f3fb2606c0416,,,,,2,0,2,0,1,"X V Q F H G B L J M P D K C T S W R N Z
",,,,,,,,,,,,,,,,,,,,,,,,,,,,,,,,,,,,,,,,,,,,,,,,,,,,,,,,,,,,,,,,,,,,,,,,,,,,,,,,,,,,,,,,,,,,,
,,,,,,,,,,5f5797583cbc65245d493954,21,Mężczyzna,2022-05-28_09h17.29.619,task,2021.1.4,Win32,60.08171113,628b806c463b948bc644b84f,6291cc6afa0f3fb2606c0416,,,,,3,0,3,0,1,"X V Q F H G B L J M P D K C T S W R N Z
",,,,,,,,,,,,,,,,,,,,,,,,,,,,,,,,,,,,,,,,,,,,,,,,,,,,,,,,,,,,,,,,,,,,,,,,,,,,,,,,,,,,,,,,,,,,,
,,,,,,,,,,5f5797583cbc65245d493954,21,Mężczyzna,2022-05-28_09h17.29.619,task,2021.1.4,Win32,60.08171113,628b806c463b948bc644b84f,6291cc6afa0f3fb2606c0416,,,,,4,0,4,0,1,"X V Q F H G B L J M P D K C T S W R N Z
",,,,,,,,,,,,,,,,,,,,,,,,,,,,,,,,,,,,,,,,,,,,,,,,,,,,,,,,,,,,,,,,,,,,,,,,,,,,,,,,,,,,,,,,,,,,,
,,,,,,,,,,5f5797583cbc65245d493954,21,Mężczyzna,2022-05-28_09h17.29.619,task,2021.1.4,Win32,60.08171113,628b806c463b948bc644b84f,6291cc6afa0f3fb2606c0416,,,,,5,0,5,0,1,"X V Q F H G B L J M P D K C T S W R N Z
",,,,,,,,,,,,,,,,,,,,,,,,,,,,,,,,,,,,,,,,,,,,,,,,,,,,,,,,,,,,,,,,,,,,,,,,,,,,,,,,,,,,,,,,,,,,,
,,,,,,,,,,5f5797583cbc65245d493954,21,Mężczyzna,2022-05-28_09h17.29.619,task,2021.1.4,Win32,60.08171113,628b806c463b948bc644b84f,6291cc6afa0f3fb2606c0416,,,,,,,,,,,mnqrct,"[""m"",""n"",""q"",""r"",""c"",""t""]","[1.769700000003013,1.8453999999910593,2.6200000000000045,3.491700000002993,3.8357999999970502,3.91609999999406,4.4465000000000146]",0,MNQCVR,10,0,10,0,1,,,,,,,,,,,,,,,,,,,,,,,,,,,,,,,,,,,,,,,,,,,,,,,,,,,,,,,,,,,,,,,,,,,,,,,,,,,,,,,,,,,
,,,,,,,,,,5f5797583cbc65245d493954,21,Mężczyzna,2022-05-28_09h17.29.619,task,2021.1.4,Win32,60.08171113,628b806c463b948bc644b84f,6291cc6afa0f3fb2606c0416,,,,,0,0,0,0,1,"X V Q F H G B L J M P D K C T S W R N Z
",,,,,,,,,,,,,,,,,,,,,,,,,,,,,,,,,,,,,,,,,,,,,,,,,,,,,,,,,,,,,,,,,,,,,,,,,,,,,,,,,,,,,,,,,,,,,
,,,,,,,,,,5f5797583cbc65245d493954,21,Mężczyzna,2022-05-28_09h17.29.619,task,2021.1.4,Win32,60.08171113,628b806c463b948bc644b84f,6291cc6afa0f3fb2606c0416,,,,,1,0,1,0,1,"X V Q F H G B L J M P D K C T S W R N Z
",,,,,,,,,,,,,,,,,,,,,,,,,,,,,,,,,,,,,,,,,,,,,,,,,,,,,,,,,,,,,,,,,,,,,,,,,,,,,,,,,,,,,,,,,,,,,
,,,,,,,,,,5f5797583cbc65245d493954,21,Mężczyzna,2022-05-28_09h17.29.619,task,2021.1.4,Win32,60.08171113,628b806c463b948bc644b84f,6291cc6afa0f3fb2606c0416,,,,,2,0,2,0,1,"X V Q F H G B L J M P D K C T S W R N Z
",,,,,,,,,,,,,,,,,,,,,,,,,,,,,,,,,,,,,,,,,,,,,,,,,,,,,,,,,,,,,,,,,,,,,,,,,,,,,,,,,,,,,,,,,,,,,
,,,,,,,,,,5f5797583cbc65245d493954,21,Mężczyzna,2022-05-28_09h17.29.619,task,2021.1.4,Win32,60.08171113,628b806c463b948bc644b84f,6291cc6afa0f3fb2606c0416,,,,,3,0,3,0,1,"X V Q F H G B L J M P D K C T S W R N Z
",,,,,,,,,,,,,,,,,,,,,,,,,,,,,,,,,,,,,,,,,,,,,,,,,,,,,,,,,,,,,,,,,,,,,,,,,,,,,,,,,,,,,,,,,,,,,
,,,,,,,,,,5f5797583cbc65245d493954,21,Mężczyzna,2022-05-28_09h17.29.619,task,2021.1.4,Win32,60.08171113,628b806c463b948bc644b84f,6291cc6afa0f3fb2606c0416,,,,,4,0,4,0,1,"X V Q F H G B L J M P D K C T S W R N Z
",,,,,,,,,,,,,,,,,,,,,,,,,,,,,,,,,,,,,,,,,,,,,,,,,,,,,,,,,,,,,,,,,,,,,,,,,,,,,,,,,,,,,,,,,,,,,
,,,,,,,,,,5f5797583cbc65245d493954,21,Mężczyzna,2022-05-28_09h17.29.619,task,2021.1.4,Win32,60.08171113,628b806c463b948bc644b84f,6291cc6afa0f3fb2606c0416,,,,,5,0,5,0,1,"X V Q F H G B L J M P D K C T S W R N Z
",,,,,,,,,,,,,,,,,,,,,,,,,,,,,,,,,,,,,,,,,,,,,,,,,,,,,,,,,,,,,,,,,,,,,,,,,,,,,,,,,,,,,,,,,,,,,
,,,,,,,,,,5f5797583cbc65245d493954,21,Mężczyzna,2022-05-28_09h17.29.619,task,2021.1.4,Win32,60.08171113,628b806c463b948bc644b84f,6291cc6afa0f3fb2606c0416,,,,,,,,,,,tdtfbd,"[""t"",""d"",""t"",""f"",""b"",""d""]","[1.1289999999999623,1.4727000000029307,1.7927000000029807,3.138900000005947,3.6639999999999873,6.128499999999974,6.411600000008946]",0,VTDTFB,11,0,11,0,1,,,,,,,,,,,,,,,,,,,,,,,,,,,,,,,,,,,,,,,,,,,,,,,,,,,,,,,,,,,,,,,,,,,,,,,,,,,,,,,,,,,
,,,,,,,,,,5f5797583cbc65245d493954,21,Mężczyzna,2022-05-28_09h17.29.619,task,2021.1.4,Win32,60.08171113,628b806c463b948bc644b84f,6291cc6afa0f3fb2606c0416,,,,,,,,,,,,,,,,,,,,,space,8.6326,1,"[""1""]",1,[2.1505999999940286],[2.1505999999940286],0,0,0,1,1,Practice,2,(4x4) - 15,1,,,,,,,,,,,,,,,,,,,,,,,,,,,,,,,,,,,,,,,,,,,,,,,,,,,,,,,,,,,,,,,,,,,
,,,,,,,,,,5f5797583cbc65245d493954,21,Mężczyzna,2022-05-28_09h17.29.619,task,2021.1.4,Win32,60.08171113,628b806c463b948bc644b84f,6291cc6afa0f3fb2606c0416,,,,,,,,,,,,,,,,,,,,,,,7,"[""7""]",1,[2.734700000002988],"[2.1505999999940286,2.734700000002988]",0,1,1,7,1,Practice,8,(5x5) - 18,7,,,,,,,,,,,,,,,,,,,,,,,,,,,,,,,,,,,,,,,,,,,,,,,,,,,,,,,,,,,,,,,,,,,
,,,,,,,,,,5f5797583cbc65245d493954,21,Mężczyzna,2022-05-28_09h17.29.619,task,2021.1.4,Win32,60.08171113,628b806c463b948bc644b84f,6291cc6afa0f3fb2606c0416,,,,,,,,,,,,,,,,,,,,,,,2,"[""2""]",1,[4.787900000006005],"[2.1505999999940286,2.734700000002988,4.787900000006005]",0,2,2,2,1,Practice,3,(4x4) - 14,2,,,,,,,,,,,,,,,,,,,,,,,,,,,,,,,,,,,,,,,,,,,,,,,,,,,,,,,,,,,,,,,,,,,
,,,,,,,,,,5f5797583cbc65245d493954,21,Mężczyzna,2022-05-28_09h17.29.619,task,2021.1.4,Win32,60.08171113,628b806c463b948bc644b84f,6291cc6afa0f3fb2606c0416,,,,,,,,,,,,,,,,,,,,,,,0,"[""0""]",1,[2.1742000000029975],"[2.1505999999940286,2.734700000002988,4.787900000006005,2.1742000000029975]",0,3,3,0,1,Practice,1,(3x3) -  9,0,,,,,,,,,,,,,,,,,,,,,,,,,,,,,,,,,,,,,,,,,,,,,,,,,,,,,,,,,,,,,,,,,,,
,,,,,,,,,,5f5797583cbc65245d493954,21,Mężczyzna,2022-05-28_09h17.29.619,task,2021.1.4,Win32,60.08171113,628b806c463b948bc644b84f,6291cc6afa0f3fb2606c0416,,,,,,,,,,,,,,,,,,,,,,,8,"[""8""]",1,[1.9220000000000255],"[2.1505999999940286,2.734700000002988,4.787900000006005,2.1742000000029975,1.9220000000000255]",0,4,4,8,1,Practice,9,(3x3) - 1,8,,,,,,,,,,,,,,,,,,,,,,,,,,,,,,,,,,,,,,,,,,,,,,,,,,,,,,,,,,,,,,,,,,,
,,,,,,,,,,5f5797583cbc65245d493954,21,Mężczyzna,2022-05-28_09h17.29.619,task,2021.1.4,Win32,60.08171113,628b806c463b948bc644b84f,6291cc6afa0f3fb2606c0416,,,,,,,,,,,,,,,,,,,,,,,4,"[""4""]",1,[2.256500000000017],"[2.1505999999940286,2.734700000002988,4.787900000006005,2.1742000000029975,1.9220000000000255,2.256500000000017]",0,5,5,4,1,Practice,5,(2x6) - 8,4,,,,,,,,,,,,,,,,,,,,,,,,,,,,,,,,,,,,,,,,,,,,,,,,,,,,,,,,,,,,,,,,,,,
,,,,,,,,,,5f5797583cbc65245d493954,21,Mężczyzna,2022-05-28_09h17.29.619,task,2021.1.4,Win32,60.08171113,628b806c463b948bc644b84f,6291cc6afa0f3fb2606c0416,,,,,,,,,,,,,,,,,,,,,,,9,"[""9""]",1,[2.0460999999939986],"[2.1505999999940286,2.734700000002988,4.787900000006005,2.1742000000029975,1.9220000000000255,2.256500000000017,2.0460999999939986]",0,6,6,9,1,Practice,10,(20/2) - 1,9,,,,,,,,,,,,,,,,,,,,,,,,,,,,,,,,,,,,,,,,,,,,,,,,,,,,,,,,,,,,,,,,,,,
,,,,,,,,,,5f5797583cbc65245d493954,21,Mężczyzna,2022-05-28_09h17.29.619,task,2021.1.4,Win32,60.08171113,628b806c463b948bc644b84f,6291cc6afa0f3fb2606c0416,,,,,,,,,,,,,,,,,,,,,,,3,"[""3""]",1,[4.753500000000088],"[2.1505999999940286,2.734700000002988,4.787900000006005,2.1742000000029975,1.9220000000000255,2.256500000000017,2.0460999999939986,4.753500000000088]",0,7,7,3,1,Practice,4,(8/4) + 1,3,,,,,,,,,,,,,,,,,,,,,,,,,,,,,,,,,,,,,,,,,,,,,,,,,,,,,,,,,,,,,,,,,,,
,,,,,,,,,,5f5797583cbc65245d493954,21,Mężczyzna,2022-05-28_09h17.29.619,task,2021.1.4,Win32,60.08171113,628b806c463b948bc644b84f,6291cc6afa0f3fb2606c0416,,,,,,,,,,,,,,,,,,,,,,,6,"[""6""]",1,[2.629299999996988],"[2.1505999999940286,2.734700000002988,4.787900000006005,2.1742000000029975,1.9220000000000255,2.256500000000017,2.0460999999939986,4.753500000000088,2.629299999996988]",0,8,8,6,1,Practice,7,(25/5) + 1,6,,,,,,,,,,,,,,,,,,,,,,,,,,,,,,,,,,,,,,,,,,,,,,,,,,,,,,,,,,,,,,,,,,,
,,,,,,,,,,5f5797583cbc65245d493954,21,Mężczyzna,2022-05-28_09h17.29.619,task,2021.1.4,Win32,60.08171113,628b806c463b948bc644b84f,6291cc6afa0f3fb2606c0416,,,,,,,,,,,,,,,,,,,,,,,5,"[""5""]",1,[2.373299999997016],"[2.1505999999940286,2.734700000002988,4.787900000006005,2.1742000000029975,1.9220000000000255,2.256500000000017,2.0460999999939986,4.753500000000088,2.629299999996988,2.373299999997016]",0,9,9,5,1,Practice,6,(4/2) + 3,5,,,,,,,,,,,,,,,,,,,,,,,,,,,,,,,,,,,,,,,,,,,,,,,,,,,,,,,,,,,,,,,,,,,
,,,,,,,,,,5f5797583cbc65245d493954,21,Mężczyzna,2022-05-28_09h17.29.619,task,2021.1.4,Win32,60.08171113,628b806c463b948bc644b84f,6291cc6afa0f3fb2606c0416,,,,,,,,,,,,,,,,,,,,,,,,,,,,,,,,,,,,,1,27.8281,1.855206667,19.03289607,1.126436744,4.761413466,space,1.2635,0,0,0,0,1,,,,,,,,,,,,,,,,,,,,,,,,,,,,,,,,,,,,,,,,,,,,,,,,,,,,,,
,,,,,,,,,,5f5797583cbc65245d493954,21,Mężczyzna,2022-05-28_09h17.29.619,task,2021.1.4,Win32,60.08171113,628b806c463b948bc644b84f,6291cc6afa0f3fb2606c0416,,,,,,,,,,,,,,,,,,,,,,,,,,,,,,,,,Practice,4,(8/4) + 1,3,,,,,,,,,,,,,,space,14.1886,,0,0,0,0,0,3,1,,,,,,,,,,,,,,,,,,,,,,,,,,,,,,,,,,,,,,,,,,,,
,,,,,,,,,,5f5797583cbc65245d493954,21,Mężczyzna,2022-05-28_09h17.29.619,task,2021.1.4,Win32,60.08171113,628b806c463b948bc644b84f,6291cc6afa0f3fb2606c0416,,,,,,,,,,,,,,,,,,,,,,,8,,,,,,,,,,Practice,9,(3x3) - 1,8,,,,,,,,,,,,,,,,"[""8""]",1,1,0,1,1,8,1,[2.284100000008948],,,,,,,,,,,,,,,,,,,,,,,,,,,,,,,,,,,,,,,,,,,
,,,,,,,,,,5f5797583cbc65245d493954,21,Mężczyzna,2022-05-28_09h17.29.619,task,2021.1.4,Win32,60.08171113,628b806c463b948bc644b84f,6291cc6afa0f3fb2606c0416,,,,,,,,,,"X V Q F H G B L J M P D K C T S W R N Z
",,,,,,,,,,,,,,,,,,,,,,,,,,,,,,,,,,,,,,,,,,,,,,,,,,,0,0,0,0,1,,,,,,,,,,,,,,,,,,,,,,,,,,,,,,,,,,,,,,
,,,,,,,,,,5f5797583cbc65245d493954,21,Mężczyzna,2022-05-28_09h17.29.619,task,2021.1.4,Win32,60.08171113,628b806c463b948bc644b84f,6291cc6afa0f3fb2606c0416,,,,,,,,,,,,,,,,,,,,,,,6,,,,,,,,,,Practice,7,(25/5) + 1,6,,,,,,,,,,,,,,,,"[""6""]",1,1,0,0,0,6,1,[1.8314000000059423],,,,,,,,,,,,,,,,,,,,,,,,,,,,,,,,,,,,,,,,,,,
,,,,,,,,,,5f5797583cbc65245d493954,21,Mężczyzna,2022-05-28_09h17.29.619,task,2021.1.4,Win32,60.08171113,628b806c463b948bc644b84f,6291cc6afa0f3fb2606c0416,,,,,,,,,,"X V Q F H G B L J M P D K C T S W R N Z
",,,,,,,,,,,,,,,,,,,,,,,,,,,,,,,,,,,,,,,,,,,,,,,,,,,1,0,1,0,1,,,,,,,,,,,,,,,,,,,,,,,,,,,,,,,,,,,,,,
,,,,,,,,,,5f5797583cbc65245d493954,21,Mężczyzna,2022-05-28_09h17.29.619,task,2021.1.4,Win32,60.08171113,628b806c463b948bc644b84f,6291cc6afa0f3fb2606c0416,,,,,,,,,,,,,,,,,,,,,,,,,,,,,,,,,,,,,,,,,,,,,,,,,,,,,,,,,,,,,,,,,,zn,"[""z"",""n""]",0,"[1.7297000000029357,1.9354000000059841,2.4002000000029966]",1,0,0,0,0,1,,,,,,,,,,,,,,,,,,,,,,,,,,,,
,,,,,,,,,,5f5797583cbc65245d493954,21,Mężczyzna,2022-05-28_09h17.29.619,task,2021.1.4,Win32,60.08171113,628b806c463b948bc644b84f,6291cc6afa0f3fb2606c0416,,,,,,,,,,,,,,,,,,,,,,,4,,,,,,,,,,Practice,5,(2x6) - 8,4,,,,,,,,,,,,,,,,"[""4""]",1,1,0,0,0,4,1,[2.36099999999999],,,,,,,,,,,,,,,,,,,,,,,,,,,,,,,,,,,,,,,,,,,
,,,,,,,,,,5f5797583cbc65245d493954,21,Mężczyzna,2022-05-28_09h17.29.619,task,2021.1.4,Win32,60.08171113,628b806c463b948bc644b84f,6291cc6afa0f3fb2606c0416,,,,,,,,,,"X V Q F H G B L J M P D K C T S W R N Z
",,,,,,,,,,,,,,,,,,,,,,,,,,,,,,,,,,,,,,,,,,,,,,,,,,,0,0,0,0,1,,,,,,,,,,,,,,,,,,,,,,,,,,,,,,,,,,,,,,
,,,,,,,,,,5f5797583cbc65245d493954,21,Mężczyzna,2022-05-28_09h17.29.619,task,2021.1.4,Win32,60.08171113,628b806c463b948bc644b84f,6291cc6afa0f3fb2606c0416,,,,,,,,,,,,,,,,,,,,,,,4,,,,,,,,,,Practice,5,(2x6) - 8,4,,,,,,,,,,,,,,,,"[""4""]",1,1,0,0,0,4,1,[2.657799999996996],,,,,,,,,,,,,,,,,,,,,,,,,,,,,,,,,,,,,,,,,,,
,,,,,,,,,,5f5797583cbc65245d493954,21,Mężczyzna,2022-05-28_09h17.29.619,task,2021.1.4,Win32,60.08171113,628b806c463b948bc644b84f,6291cc6afa0f3fb2606c0416,,,,,,,,,,"X V Q F H G B L J M P D K C T S W R N Z
",,,,,,,,,,,,,,,,,,,,,,,,,,,,,,,,,,,,,,,,,,,,,,,,,,,1,0,1,0,1,,,,,,,,,,,,,,,,,,,,,,,,,,,,,,,,,,,,,,
,,,,,,,,,,5f5797583cbc65245d493954,21,Mężczyzna,2022-05-28_09h17.29.619,task,2021.1.4,Win32,60.08171113,628b806c463b948bc644b84f,6291cc6afa0f3fb2606c0416,,,,,,,,,,,,,,,,,,,,,,,,,,,,,,,,,,,,,,,,,,,,,,,,,,,,,,,,,,,,,,,,,,br,"[""b"",""r""]",0,"[2.966899999991142,3.267599999994104,3.5692999999970425]",1,1,0,1,0,1,,,,,,,,,,,,,,,,,,,,,,,,,,,,
,,,,,,,,,,5f5797583cbc65245d493954,21,Mężczyzna,2022-05-28_09h17.29.619,task,2021.1.4,Win32,60.08171113,628b806c463b948bc644b84f,6291cc6afa0f3fb2606c0416,,,,,,,,,,,,,,,,,,,,,,,9,,,,,,,,,,Practice,10,(20/2) - 1,9,,,,,,,,,,,,,,,,"[""9""]",1,1,0,0,0,9,1,[1.816799999996988],,,,,,,,,,,,,,,,,,,,,,,,,,,,,,,,,,,,,,,,,,,
,,,,,,,,,,5f5797583cbc65245d493954,21,Mężczyzna,2022-05-28_09h17.29.619,task,2021.1.4,Win32,60.08171113,628b806c463b948bc644b84f,6291cc6afa0f3fb2606c0416,,,,,,,,,,"X V Q F H G B L J M P D K C T S W R N Z
",,,,,,,,,,,,,,,,,,,,,,,,,,,,,,,,,,,,,,,,,,,,,,,,,,,0,0,0,0,1,,,,,,,,,,,,,,,,,,,,,,,,,,,,,,,,,,,,,,
,,,,,,,,,,5f5797583cbc65245d493954,21,Mężczyzna,2022-05-28_09h17.29.619,task,2021.1.4,Win32,60.08171113,628b806c463b948bc644b84f,6291cc6afa0f3fb2606c0416,,,,,,,,,,,,,,,,,,,,,,,0,,,,,,,,,,Practice,1,(3x3) -  9,0,,,,,,,,,,,,,,,,"[""0""]",1,1,0,0,0,0,1,[1.5154000000059114],,,,,,,,,,,,,,,,,,,,,,,,,,,,,,,,,,,,,,,,,,,
,,,,,,,,,,5f5797583cbc65245d493954,21,Mężczyzna,2022-05-28_09h17.29.619,task,2021.1.4,Win32,60.08171113,628b806c463b948bc644b84f,6291cc6afa0f3fb2606c0416,,,,,,,,,,"X V Q F H G B L J M P D K C T S W R N Z
",,,,,,,,,,,,,,,,,,,,,,,,,,,,,,,,,,,,,,,,,,,,,,,,,,,1,0,1,0,1,,,,,,,,,,,,,,,,,,,,,,,,,,,,,,,,,,,,,,
,,,,,,,,,,5f5797583cbc65245d493954,21,Mężczyzna,2022-05-28_09h17.29.619,task,2021.1.4,Win32,60.08171113,628b806c463b948bc644b84f,6291cc6afa0f3fb2606c0416,,,,,,,,,,,,,,,,,,,,,,,,,,,,,,,,,,,,,,,,,,,,,,,,,,,,,,,,,,,,,,,,,,hv,"[""h"",""v""]",0,"[2.2207999999969843,2.612700000002974,3.34699999999998]",1,2,0,2,0,1,,,,,,,,,,,,,,,,,,,,,,,,,,,,
,,,,,,,,,,5f5797583cbc65245d493954,21,Mężczyzna,2022-05-28_09h17.29.619,task,2021.1.4,Win32,60.08171113,628b806c463b948bc644b84f,6291cc6afa0f3fb2606c0416,,,,,,,,,,,,,,,,,,,,,,,6,,,,,,,,,,Task,37,(3/3) + 5,6,,,,,,,,,,,,,,,,,,1,,,,,,,,,,,,,,,,,,,,,,space,16.5368,"[""6""]",1,[2.733399999991093],0,0,0,36,1,,,,,,,,,,,,,,,,,,
,,,,,,,,,,5f5797583cbc65245d493954,21,Mężczyzna,2022-05-28_09h17.29.619,task,2021.1.4,Win32,60.08171113,628b806c463b948bc644b84f,6291cc6afa0f3fb2606c0416,,,,,,,,,,"X V Q F H G B L J M P D K C T S W R N Z
",,,,,,,,,,,,,,,,,,,,,,,,,,,,,,,,,,,,,,,,,,,,,,,,,,,,,,,,,,,,,,,,,,,,,,,,,,,,0,0,0,0,1,,,,,,,,,,,,,
,,,,,,,,,,5f5797583cbc65245d493954,21,Mężczyzna,2022-05-28_09h17.29.619,task,2021.1.4,Win32,60.08171113,628b806c463b948bc644b84f,6291cc6afa0f3fb2606c0416,,,,,,,,,,,,,,,,,,,,,,,2,,,,,,,,,,Task,19,(6/2) - 1,2,,,,,,,,,,,,,,,,,,1,,,,,,,,,,,,,,,,,,,,,,,,"[""2""]",1,[1.5088999999910584],0,0,0,18,1,,,,,,,,,,,,,,,,,,
,,,,,,,,,,5f5797583cbc65245d493954,21,Mężczyzna,2022-05-28_09h17.29.619,task,2021.1.4,Win32,60.08171113,628b806c463b948bc644b84f,6291cc6afa0f3fb2606c0416,,,,,,,,,,"X V Q F H G B L J M P D K C T S W R N Z
",,,,,,,,,,,,,,,,,,,,,,,,,,,,,,,,,,,,,,,,,,,,,,,,,,,,,,,,,,,,,,,,,,,,,,,,,,,,1,0,1,0,1,,,,,,,,,,,,,
,,,,,,,,,,5f5797583cbc65245d493954,21,Mężczyzna,2022-05-28_09h17.29.619,task,2021.1.4,Win32,60.08171113,628b806c463b948bc644b84f,6291cc6afa0f3fb2606c0416,,,,,,,,,,,,,,,,,,,,,,,,,,,,,,,,,,,,,,,,,,,,,,,,,,,,,,,,,,,,,,,,,,,,,,,,,,,,,,,,,,,,,,,,,,,zr,"[""z"",""r""]",0,"[1.426599999994096,1.9420000000000073,2.546799999997006]",1,ZR,0,0,0,0,1,,
,,,,,,,,,,5f5797583cbc65245d493954,21,Mężczyzna,2022-05-28_09h17.29.619,task,2021.1.4,Win32,60.08171113,628b806c463b948bc644b84f,6291cc6afa0f3fb2606c0416,,,,,,,,,,,,,,,,,,,,,,,0,,,,,,,,,,Task,8,(1x5) - 5,0,,,,,,,,,,,,,,,,,,1,,,,,,,,,,,,,,,,,,,,,,,,"[""0""]",1,[1.8668000000119491],0,0,0,7,1,,,,,,,,,,,,,,,,,,
,,,,,,,,,,5f5797583cbc65245d493954,21,Mężczyzna,2022-05-28_09h17.29.619,task,2021.1.4,Win32,60.08171113,628b806c463b948bc644b84f,6291cc6afa0f3fb2606c0416,,,,,,,,,,"X V Q F H G B L J M P D K C T S W R N Z
",,,,,,,,,,,,,,,,,,,,,,,,,,,,,,,,,,,,,,,,,,,,,,,,,,,,,,,,,,,,,,,,,,,,,,,,,,,,0,0,0,0,1,,,,,,,,,,,,,
,,,,,,,,,,5f5797583cbc65245d493954,21,Mężczyzna,2022-05-28_09h17.29.619,task,2021.1.4,Win32,60.08171113,628b806c463b948bc644b84f,6291cc6afa0f3fb2606c0416,,,,,,,,,,,,,,,,,,,,,,,0,,,,,,,,,,Task,17,(2x3) - 6,0,,,,,,,,,,,,,,,,,,1,,,,,,,,,,,,,,,,,,,,,,,,"[""0""]",1,[2.424299999996947],0,0,0,16,1,,,,,,,,,,,,,,,,,,
,,,,,,,,,,5f5797583cbc65245d493954,21,Mężczyzna,2022-05-28_09h17.29.619,task,2021.1.4,Win32,60.08171113,628b806c463b948bc644b84f,6291cc6afa0f3fb2606c0416,,,,,,,,,,"X V Q F H G B L J M P D K C T S W R N Z
",,,,,,,,,,,,,,,,,,,,,,,,,,,,,,,,,,,,,,,,,,,,,,,,,,,,,,,,,,,,,,,,,,,,,,,,,,,,1,0,1,0,1,,,,,,,,,,,,,
,,,,,,,,,,5f5797583cbc65245d493954,21,Mężczyzna,2022-05-28_09h17.29.619,task,2021.1.4,Win32,60.08171113,628b806c463b948bc644b84f,6291cc6afa0f3fb2606c0416,,,,,,,,,,,,,,,,,,,,,,,8,,,,,,,,,,Task,23,(2x3) + 2,8,,,,,,,,,,,,,,,,,,1,,,,,,,,,,,,,,,,,,,,,,,,"[""8""]",1,[2.5575000000000045],0,0,0,22,1,,,,,,,,,,,,,,,,,,
,,,,,,,,,,5f5797583cbc65245d493954,21,Mężczyzna,2022-05-28_09h17.29.619,task,2021.1.4,Win32,60.08171113,628b806c463b948bc644b84f,6291cc6afa0f3fb2606c0416,,,,,,,,,,"X V Q F H G B L J M P D K C T S W R N Z
",,,,,,,,,,,,,,,,,,,,,,,,,,,,,,,,,,,,,,,,,,,,,,,,,,,,,,,,,,,,,,,,,,,,,,,,,,,,2,0,2,0,1,,,,,,,,,,,,,
,,,,,,,,,,5f5797583cbc65245d493954,21,Mężczyzna,2022-05-28_09h17.29.619,task,2021.1.4,Win32,60.08171113,628b806c463b948bc644b84f,6291cc6afa0f3fb2606c0416,,,,,,,,,,,,,,,,,,,,,,,,,,,,,,,,,,,,,,,,,,,,,,,,,,,,,,,,,,,,,,,,,,,,,,,,,,,,,,,,,,,,,,,,,,,zpg,"[""z"",""p"",""g""]",0,"[1.1485000000000127,1.6887999999970589,2.1459000000060087,2.7397999999969898]",0,"Z
PG",1,0,1,0,1,,
,,,,,,,,,,5f5797583cbc65245d493954,21,Mężczyzna,2022-05-28_09h17.29.619,task,2021.1.4,Win32,60.08171113,628b806c463b948bc644b84f,6291cc6afa0f3fb2606c0416,,,,,,,,,,,,,,,,,,,,,,,8,,,,,,,,,,Task,39,(5x3) - 7,8,,,,,,,,,,,,,,,,,,1,,,,,,,,,,,,,,,,,,,,,,,,"[""8""]",1,[2.1862999999970043],0,0,0,38,1,,,,,,,,,,,,,,,,,,
,,,,,,,,,,5f5797583cbc65245d493954,21,Mężczyzna,2022-05-28_09h17.29.619,task,2021.1.4,Win32,60.08171113,628b806c463b948bc644b84f,6291cc6afa0f3fb2606c0416,,,,,,,,,,"X V Q F H G B L J M P D K C T S W R N Z
",,,,,,,,,,,,,,,,,,,,,,,,,,,,,,,,,,,,,,,,,,,,,,,,,,,,,,,,,,,,,,,,,,,,,,,,,,,,0,0,0,0,1,,,,,,,,,,,,,
,,,,,,,,,,5f5797583cbc65245d493954,21,Mężczyzna,2022-05-28_09h17.29.619,task,2021.1.4,Win32,60.08171113,628b806c463b948bc644b84f,6291cc6afa0f3fb2606c0416,,,,,,,,,,,,,,,,,,,,,,,9,,,,,,,,,,Task,24,(2x2) + 5,9,,,,,,,,,,,,,,,,,,1,,,,,,,,,,,,,,,,,,,,,,,,"[""9""]",1,[2.583899999991104],0,0,0,23,1,,,,,,,,,,,,,,,,,,
,,,,,,,,,,5f5797583cbc65245d493954,21,Mężczyzna,2022-05-28_09h17.29.619,task,2021.1.4,Win32,60.08171113,628b806c463b948bc644b84f,6291cc6afa0f3fb2606c0416,,,,,,,,,,"X V Q F H G B L J M P D K C T S W R N Z
",,,,,,,,,,,,,,,,,,,,,,,,,,,,,,,,,,,,,,,,,,,,,,,,,,,,,,,,,,,,,,,,,,,,,,,,,,,,1,0,1,0,1,,,,,,,,,,,,,
,,,,,,,,,,5f5797583cbc65245d493954,21,Mężczyzna,2022-05-28_09h17.29.619,task,2021.1.4,Win32,60.08171113,628b806c463b948bc644b84f,6291cc6afa0f3fb2606c0416,,,,,,,,,,,,,,,,,,,,,,,5,,,,,,,,,,Task,22,(3x1) + 2,5,,,,,,,,,,,,,,,,,,1,,,,,,,,,,,,,,,,,,,,,,,,"[""5""]",1,[2.1480999999940877],0,0,0,21,1,,,,,,,,,,,,,,,,,,
,,,,,,,,,,5f5797583cbc65245d493954,21,Mężczyzna,2022-05-28_09h17.29.619,task,2021.1.4,Win32,60.08171113,628b806c463b948bc644b84f,6291cc6afa0f3fb2606c0416,,,,,,,,,,"X V Q F H G B L J M P D K C T S W R N Z
",,,,,,,,,,,,,,,,,,,,,,,,,,,,,,,,,,,,,,,,,,,,,,,,,,,,,,,,,,,,,,,,,,,,,,,,,,,,2,0,2,0,1,,,,,,,,,,,,,
,,,,,,,,,,5f5797583cbc65245d493954,21,Mężczyzna,2022-05-28_09h17.29.619,task,2021.1.4,Win32,60.08171113,628b806c463b948bc644b84f,6291cc6afa0f3fb2606c0416,,,,,,,,,,,,,,,,,,,,,,,,,,,,,,,,,,,,,,,,,,,,,,,,,,,,,,,,,,,,,,,,,,,,,,,,,,,,,,,,,,,,,,,,,,,tcp,"[""t"",""c"",""p""]",0,"[1.1849999999999454,1.6552000000028784,2.0340999999939413,3.0172999999970216]",1,TCP,2,0,2,0,1,,
,,,,,,,,,,5f5797583cbc65245d493954,21,Mężczyzna,2022-05-28_09h17.29.619,task,2021.1.4,Win32,60.08171113,628b806c463b948bc644b84f,6291cc6afa0f3fb2606c0416,,,,,,,,,,,,,,,,,,,,,,,4,,,,,,,,,,Task,11,(18/3) - 2,4,,,,,,,,,,,,,,,,,,1,,,,,,,,,,,,,,,,,,,,,,,,"[""4""]",1,[3.241700000002993],0,0,0,10,1,,,,,,,,,,,,,,,,,,
,,,,,,,,,,5f5797583cbc65245d493954,21,Mężczyzna,2022-05-28_09h17.29.619,task,2021.1.4,Win32,60.08171113,628b806c463b948bc644b84f,6291cc6afa0f3fb2606c0416,,,,,,,,,,"X V Q F H G B L J M P D K C T S W R N Z
",,,,,,,,,,,,,,,,,,,,,,,,,,,,,,,,,,,,,,,,,,,,,,,,,,,,,,,,,,,,,,,,,,,,,,,,,,,,0,0,0,0,1,,,,,,,,,,,,,
,,,,,,,,,,5f5797583cbc65245d493954,21,Mężczyzna,2022-05-28_09h17.29.619,task,2021.1.4,Win32,60.08171113,628b806c463b948bc644b84f,6291cc6afa0f3fb2606c0416,,,,,,,,,,,,,,,,,,,,,,,1,,,,,,,,,,Task,18,(16/4) - 3,1,,,,,,,,,,,,,,,,,,1,,,,,,,,,,,,,,,,,,,,,,,,"[""1""]",1,[2.233899999991081],0,0,0,17,1,,,,,,,,,,,,,,,,,,
,,,,,,,,,,5f5797583cbc65245d493954,21,Mężczyzna,2022-05-28_09h17.29.619,task,2021.1.4,Win32,60.08171113,628b806c463b948bc644b84f,6291cc6afa0f3fb2606c0416,,,,,,,,,,"X V Q F H G B L J M P D K C T S W R N Z
",,,,,,,,,,,,,,,,,,,,,,,,,,,,,,,,,,,,,,,,,,,,,,,,,,,,,,,,,,,,,,,,,,,,,,,,,,,,1,0,1,0,1,,,,,,,,,,,,,
,,,,,,,,,,5f5797583cbc65245d493954,21,Mężczyzna,2022-05-28_09h17.29.619,task,2021.1.4,Win32,60.08171113,628b806c463b948bc644b84f,6291cc6afa0f3fb2606c0416,,,,,,,,,,,,,,,,,,,,,,,9,,,,,,,,,,Task,16,(3x8) - 15,9,,,,,,,,,,,,,,,,,,1,,,,,,,,,,,,,,,,,,,,,,,,"[""9""]",1,[2.6557999999970434],0,0,0,15,1,,,,,,,,,,,,,,,,,,
,,,,,,,,,,5f5797583cbc65245d493954,21,Mężczyzna,2022-05-28_09h17.29.619,task,2021.1.4,Win32,60.08171113,628b806c463b948bc644b84f,6291cc6afa0f3fb2606c0416,,,,,,,,,,"X V Q F H G B L J M P D K C T S W R N Z
",,,,,,,,,,,,,,,,,,,,,,,,,,,,,,,,,,,,,,,,,,,,,,,,,,,,,,,,,,,,,,,,,,,,,,,,,,,,2,0,2,0,1,,,,,,,,,,,,,
,,,,,,,,,,5f5797583cbc65245d493954,21,Mężczyzna,2022-05-28_09h17.29.619,task,2021.1.4,Win32,60.08171113,628b806c463b948bc644b84f,6291cc6afa0f3fb2606c0416,,,,,,,,,,,,,,,,,,,,,,,9,,,,,,,,,,Task,7,(3x7) - 12,9,,,,,,,,,,,,,,,,,,1,,,,,,,,,,,,,,,,,,,,,,,,"[""9""]",1,[3.74350000000004],0,0,0,6,1,,,,,,,,,,,,,,,,,,
,,,,,,,,,,5f5797583cbc65245d493954,21,Mężczyzna,2022-05-28_09h17.29.619,task,2021.1.4,Win32,60.08171113,628b806c463b948bc644b84f,6291cc6afa0f3fb2606c0416,,,,,,,,,,"X V Q F H G B L J M P D K C T S W R N Z
",,,,,,,,,,,,,,,,,,,,,,,,,,,,,,,,,,,,,,,,,,,,,,,,,,,,,,,,,,,,,,,,,,,,,,,,,,,,3,0,3,0,1,,,,,,,,,,,,,
,,,,,,,,,,5f5797583cbc65245d493954,21,Mężczyzna,2022-05-28_09h17.29.619,task,2021.1.4,Win32,60.08171113,628b806c463b948bc644b84f,6291cc6afa0f3fb2606c0416,,,,,,,,,,,,,,,,,,,,,,,,,,,,,,,,,,,,,,,,,,,,,,,,,,,,,,,,,,,,,,,,,,,,,,,,,,,,,,,,,,,,,,,,,,,rzmz,"[""r"",""z"",""m"",""z""]",0,"[1.3168999999910511,1.6500999999940404,1.9169999999999163,2.1002999999969916,2.6167999999969425]",0,"RZ
MZ
",3,0,3,0,1,,
,,,,,,,,,,5f5797583cbc65245d493954,21,Mężczyzna,2022-05-28_09h17.29.619,task,2021.1.4,Win32,60.08171113,628b806c463b948bc644b84f,6291cc6afa0f3fb2606c0416,,,,,,,,,,,,,,,,,,,,,,,5,,,,,,,,,,Task,29,(3x8) - 19 ,5,,,,,,,,,,,,,,,,,,1,,,,,,,,,,,,,,,,,,,,,,,,"[""5""]",1,[2.89820000000293],0,0,0,28,1,,,,,,,,,,,,,,,,,,
,,,,,,,,,,5f5797583cbc65245d493954,21,Mężczyzna,2022-05-28_09h17.29.619,task,2021.1.4,Win32,60.08171113,628b806c463b948bc644b84f,6291cc6afa0f3fb2606c0416,,,,,,,,,,"X V Q F H G B L J M P D K C T S W R N Z
",,,,,,,,,,,,,,,,,,,,,,,,,,,,,,,,,,,,,,,,,,,,,,,,,,,,,,,,,,,,,,,,,,,,,,,,,,,,0,0,0,0,1,,,,,,,,,,,,,
,,,,,,,,,,5f5797583cbc65245d493954,21,Mężczyzna,2022-05-28_09h17.29.619,task,2021.1.4,Win32,60.08171113,628b806c463b948bc644b84f,6291cc6afa0f3fb2606c0416,,,,,,,,,,,,,,,,,,,,,,,8,,,,,,,,,,Task,39,(5x3) - 7,8,,,,,,,,,,,,,,,,,,1,,,,,,,,,,,,,,,,,,,,,,,,"[""8""]",1,[2.1562999999970316],0,0,0,38,1,,,,,,,,,,,,,,,,,,
,,,,,,,,,,5f5797583cbc65245d493954,21,Mężczyzna,2022-05-28_09h17.29.619,task,2021.1.4,Win32,60.08171113,628b806c463b948bc644b84f,6291cc6afa0f3fb2606c0416,,,,,,,,,,"X V Q F H G B L J M P D K C T S W R N Z
",,,,,,,,,,,,,,,,,,,,,,,,,,,,,,,,,,,,,,,,,,,,,,,,,,,,,,,,,,,,,,,,,,,,,,,,,,,,1,0,1,0,1,,,,,,,,,,,,,
,,,,,,,,,,5f5797583cbc65245d493954,21,Mężczyzna,2022-05-28_09h17.29.619,task,2021.1.4,Win32,60.08171113,628b806c463b948bc644b84f,6291cc6afa0f3fb2606c0416,,,,,,,,,,,,,,,,,,,,,,,6,,,,,,,,,,Task,5,(2x3) + 0,6,,,,,,,,,,,,,,,,,,1,,,,,,,,,,,,,,,,,,,,,,,,"[""6""]",1,[2.4621999999881155],0,0,0,4,1,,,,,,,,,,,,,,,,,,
,,,,,,,,,,5f5797583cbc65245d493954,21,Mężczyzna,2022-05-28_09h17.29.619,task,2021.1.4,Win32,60.08171113,628b806c463b948bc644b84f,6291cc6afa0f3fb2606c0416,,,,,,,,,,"X V Q F H G B L J M P D K C T S W R N Z
",,,,,,,,,,,,,,,,,,,,,,,,,,,,,,,,,,,,,,,,,,,,,,,,,,,,,,,,,,,,,,,,,,,,,,,,,,,,2,0,2,0,1,,,,,,,,,,,,,
,,,,,,,,,,5f5797583cbc65245d493954,21,Mężczyzna,2022-05-28_09h17.29.619,task,2021.1.4,Win32,60.08171113,628b806c463b948bc644b84f,6291cc6afa0f3fb2606c0416,,,,,,,,,,,,,,,,,,,,,,,6,,,,,,,,,,Task,5,(2x3) + 0,6,,,,,,,,,,,,,,,,,,1,,,,,,,,,,,,,,,,,,,,,,,,"[""6""]",1,[2.417500000000018],0,0,0,4,1,,,,,,,,,,,,,,,,,,
,,,,,,,,,,5f5797583cbc65245d493954,21,Mężczyzna,2022-05-28_09h17.29.619,task,2021.1.4,Win32,60.08171113,628b806c463b948bc644b84f,6291cc6afa0f3fb2606c0416,,,,,,,,,,"X V Q F H G B L J M P D K C T S W R N Z
",,,,,,,,,,,,,,,,,,,,,,,,,,,,,,,,,,,,,,,,,,,,,,,,,,,,,,,,,,,,,,,,,,,,,,,,,,,,3,0,3,0,1,,,,,,,,,,,,,
,,,,,,,,,,5f5797583cbc65245d493954,21,Mężczyzna,2022-05-28_09h17.29.619,task,2021.1.4,Win32,60.08171113,628b806c463b948bc644b84f,6291cc6afa0f3fb2606c0416,,,,,,,,,,,,,,,,,,,,,,,,,,,,,,,,,,,,,,,,,,,,,,,,,,,,,,,,,,,,,,,,,,,,,,,,,,,,,,,,,,,,,,,,,,,wqfr,"[""w"",""q"",""f"",""r""]",0,"[2.800400000005993,3.2052000000029466,3.9165999999939913,4.199700000002963,5.116299999996954]",1,WQFR,4,0,4,0,1,,
,,,,,,,,,,5f5797583cbc65245d493954,21,Mężczyzna,2022-05-28_09h17.29.619,task,2021.1.4,Win32,60.08171113,628b806c463b948bc644b84f,6291cc6afa0f3fb2606c0416,,,,,,,,,,,,,,,,,,,,,,,2,,,,,,,,,,Task,2,(2x2) - 2,2,,,,,,,,,,,,,,,,,,1,,,,,,,,,,,,,,,,,,,,,,,,"[""2""]",1,[2.8590000000000373],0,0,0,1,1,,,,,,,,,,,,,,,,,,
,,,,,,,,,,5f5797583cbc65245d493954,21,Mężczyzna,2022-05-28_09h17.29.619,task,2021.1.4,Win32,60.08171113,628b806c463b948bc644b84f,6291cc6afa0f3fb2606c0416,,,,,,,,,,"X V Q F H G B L J M P D K C T S W R N Z
",,,,,,,,,,,,,,,,,,,,,,,,,,,,,,,,,,,,,,,,,,,,,,,,,,,,,,,,,,,,,,,,,,,,,,,,,,,,0,0,0,0,1,,,,,,,,,,,,,
,,,,,,,,,,5f5797583cbc65245d493954,21,Mężczyzna,2022-05-28_09h17.29.619,task,2021.1.4,Win32,60.08171113,628b806c463b948bc644b84f,6291cc6afa0f3fb2606c0416,,,,,,,,,,,,,,,,,,,,,,,6,,,,,,,,,,Task,30,(6/3) + 4 ,6,,,,,,,,,,,,,,,,,,1,,,,,,,,,,,,,,,,,,,,,,,,"[""6""]",1,[3.3576999999880854],0,0,0,29,1,,,,,,,,,,,,,,,,,,
,,,,,,,,,,5f5797583cbc65245d493954,21,Mężczyzna,2022-05-28_09h17.29.619,task,2021.1.4,Win32,60.08171113,628b806c463b948bc644b84f,6291cc6afa0f3fb2606c0416,,,,,,,,,,"X V Q F H G B L J M P D K C T S W R N Z
",,,,,,,,,,,,,,,,,,,,,,,,,,,,,,,,,,,,,,,,,,,,,,,,,,,,,,,,,,,,,,,,,,,,,,,,,,,,1,0,1,0,1,,,,,,,,,,,,,
,,,,,,,,,,5f5797583cbc65245d493954,21,Mężczyzna,2022-05-28_09h17.29.619,task,2021.1.4,Win32,60.08171113,628b806c463b948bc644b84f,6291cc6afa0f3fb2606c0416,,,,,,,,,,,,,,,,,,,,,,,9,,,,,,,,,,Task,7,(3x7) - 12,9,,,,,,,,,,,,,,,,,,1,,,,,,,,,,,,,,,,,,,,,,,,"[""9""]",1,[2.238900000005856],0,0,0,6,1,,,,,,,,,,,,,,,,,,
,,,,,,,,,,5f5797583cbc65245d493954,21,Mężczyzna,2022-05-28_09h17.29.619,task,2021.1.4,Win32,60.08171113,628b806c463b948bc644b84f,6291cc6afa0f3fb2606c0416,,,,,,,,,,"X V Q F H G B L J M P D K C T S W R N Z
",,,,,,,,,,,,,,,,,,,,,,,,,,,,,,,,,,,,,,,,,,,,,,,,,,,,,,,,,,,,,,,,,,,,,,,,,,,,2,0,2,0,1,,,,,,,,,,,,,
,,,,,,,,,,5f5797583cbc65245d493954,21,Mężczyzna,2022-05-28_09h17.29.619,task,2021.1.4,Win32,60.08171113,628b806c463b948bc644b84f,6291cc6afa0f3fb2606c0416,,,,,,,,,,,,,,,,,,,,,,,7,,,,,,,,,,Task,14,(2x2) + 3,7,,,,,,,,,,,,,,,,,,1,,,,,,,,,,,,,,,,,,,,,,,,"[""7""]",1,[3.3110000000000355],0,0,0,13,1,,,,,,,,,,,,,,,,,,
,,,,,,,,,,5f5797583cbc65245d493954,21,Mężczyzna,2022-05-28_09h17.29.619,task,2021.1.4,Win32,60.08171113,628b806c463b948bc644b84f,6291cc6afa0f3fb2606c0416,,,,,,,,,,"X V Q F H G B L J M P D K C T S W R N Z
",,,,,,,,,,,,,,,,,,,,,,,,,,,,,,,,,,,,,,,,,,,,,,,,,,,,,,,,,,,,,,,,,,,,,,,,,,,,3,0,3,0,1,,,,,,,,,,,,,
,,,,,,,,,,5f5797583cbc65245d493954,21,Mężczyzna,2022-05-28_09h17.29.619,task,2021.1.4,Win32,60.08171113,628b806c463b948bc644b84f,6291cc6afa0f3fb2606c0416,,,,,,,,,,,,,,,,,,,,,,,6,,,,,,,,,,Task,37,(3/3) + 5,6,,,,,,,,,,,,,,,,,,1,,,,,,,,,,,,,,,,,,,,,,,,"[""6""]",1,[2.608500000000049],0,0,0,36,1,,,,,,,,,,,,,,,,,,
,,,,,,,,,,5f5797583cbc65245d493954,21,Mężczyzna,2022-05-28_09h17.29.619,task,2021.1.4,Win32,60.08171113,628b806c463b948bc644b84f,6291cc6afa0f3fb2606c0416,,,,,,,,,,"X V Q F H G B L J M P D K C T S W R N Z
",,,,,,,,,,,,,,,,,,,,,,,,,,,,,,,,,,,,,,,,,,,,,,,,,,,,,,,,,,,,,,,,,,,,,,,,,,,,4,0,4,0,1,,,,,,,,,,,,,
,,,,,,,,,,5f5797583cbc65245d493954,21,Mężczyzna,2022-05-28_09h17.29.619,task,2021.1.4,Win32,60.08171113,628b806c463b948bc644b84f,6291cc6afa0f3fb2606c0416,,,,,,,,,,,,,,,,,,,,,,,,,,,,,,,,,,,,,,,,,,,,,,,,,,,,,,,,,,,,,,,,,,,,,,,,,,,,,,,,,,,,,,,,,,,xvjnv,"[""x"",""v"",""j"",""n"",""v""]",0,"[1.149799999996958,1.8580999999940104,2.566900000005944,3.38420000000292,4.0832999999970525,5.2507000000030075]",1,XVJNV,5,0,5,0,1,,
,,,,,,,,,,5f5797583cbc65245d493954,21,Mężczyzna,2022-05-28_09h17.29.619,task,2021.1.4,Win32,60.08171113,628b806c463b948bc644b84f,6291cc6afa0f3fb2606c0416,,,,,,,,,,,,,,,,,,,,,,,1,,,,,,,,,,Task,1,(12/6) - 1,1,,,,,,,,,,,,,,,,,,1,,,,,,,,,,,,,,,,,,,,,,,,"[""1""]",1,[1.916599999994105],0,0,0,0,1,,,,,,,,,,,,,,,,,,
,,,,,,,,,,5f5797583cbc65245d493954,21,Mężczyzna,2022-05-28_09h17.29.619,task,2021.1.4,Win32,60.08171113,628b806c463b948bc644b84f,6291cc6afa0f3fb2606c0416,,,,,,,,,,"X V Q F H G B L J M P D K C T S W R N Z
",,,,,,,,,,,,,,,,,,,,,,,,,,,,,,,,,,,,,,,,,,,,,,,,,,,,,,,,,,,,,,,,,,,,,,,,,,,,0,0,0,0,1,,,,,,,,,,,,,
,,,,,,,,,,5f5797583cbc65245d493954,21,Mężczyzna,2022-05-28_09h17.29.619,task,2021.1.4,Win32,60.08171113,628b806c463b948bc644b84f,6291cc6afa0f3fb2606c0416,,,,,,,,,,,,,,,,,,,,,,,2,,,,,,,,,,Task,19,(6/2) - 1,2,,,,,,,,,,,,,,,,,,1,,,,,,,,,,,,,,,,,,,,,,,,"[""2""]",1,[1.8852000000030102],0,0,0,18,1,,,,,,,,,,,,,,,,,,
,,,,,,,,,,5f5797583cbc65245d493954,21,Mężczyzna,2022-05-28_09h17.29.619,task,2021.1.4,Win32,60.08171113,628b806c463b948bc644b84f,6291cc6afa0f3fb2606c0416,,,,,,,,,,"X V Q F H G B L J M P D K C T S W R N Z
",,,,,,,,,,,,,,,,,,,,,,,,,,,,,,,,,,,,,,,,,,,,,,,,,,,,,,,,,,,,,,,,,,,,,,,,,,,,1,0,1,0,1,,,,,,,,,,,,,
,,,,,,,,,,5f5797583cbc65245d493954,21,Mężczyzna,2022-05-28_09h17.29.619,task,2021.1.4,Win32,60.08171113,628b806c463b948bc644b84f,6291cc6afa0f3fb2606c0416,,,,,,,,,,,,,,,,,,,,,,,9,,,,,,,,,,Task,16,(3x8) - 15,9,,,,,,,,,,,,,,,,,,1,,,,,,,,,,,,,,,,,,,,,,,,"[""9""]",1,[2.4675000000000864],0,0,0,15,1,,,,,,,,,,,,,,,,,,
,,,,,,,,,,5f5797583cbc65245d493954,21,Mężczyzna,2022-05-28_09h17.29.619,task,2021.1.4,Win32,60.08171113,628b806c463b948bc644b84f,6291cc6afa0f3fb2606c0416,,,,,,,,,,"X V Q F H G B L J M P D K C T S W R N Z
",,,,,,,,,,,,,,,,,,,,,,,,,,,,,,,,,,,,,,,,,,,,,,,,,,,,,,,,,,,,,,,,,,,,,,,,,,,,2,0,2,0,1,,,,,,,,,,,,,
,,,,,,,,,,5f5797583cbc65245d493954,21,Mężczyzna,2022-05-28_09h17.29.619,task,2021.1.4,Win32,60.08171113,628b806c463b948bc644b84f,6291cc6afa0f3fb2606c0416,,,,,,,,,,,,,,,,,,,,,,,0,,,,,,,,,,Task,8,(1x5) - 5,0,,,,,,,,,,,,,,,,,,1,,,,,,,,,,,,,,,,,,,,,,,,"[""0""]",1,[3.4878999999909865],0,0,0,7,1,,,,,,,,,,,,,,,,,,
,,,,,,,,,,5f5797583cbc65245d493954,21,Mężczyzna,2022-05-28_09h17.29.619,task,2021.1.4,Win32,60.08171113,628b806c463b948bc644b84f,6291cc6afa0f3fb2606c0416,,,,,,,,,,"X V Q F H G B L J M P D K C T S W R N Z
",,,,,,,,,,,,,,,,,,,,,,,,,,,,,,,,,,,,,,,,,,,,,,,,,,,,,,,,,,,,,,,,,,,,,,,,,,,,3,0,3,0,1,,,,,,,,,,,,,
,,,,,,,,,,5f5797583cbc65245d493954,21,Mężczyzna,2022-05-28_09h17.29.619,task,2021.1.4,Win32,60.08171113,628b806c463b948bc644b84f,6291cc6afa0f3fb2606c0416,,,,,,,,,,,,,,,,,,,,,,,,,,,,,,,,,Task,38,(4x6) - 17,7,,,,,,,,,,,,,,,,,,0,,,,,,,,,,,,,,,,,,,,,,,,,0,,0,0,0,37,1,,,,,,,,,,,,,,,,,,
,,,,,,,,,,5f5797583cbc65245d493954,21,Mężczyzna,2022-05-28_09h17.29.619,task,2021.1.4,Win32,60.08171113,628b806c463b948bc644b84f,6291cc6afa0f3fb2606c0416,,,,,,,,,,,,,,,,,,,,,,,8,,,,,,,,,,Task,32,(8/2) + 4,8,,,,,,,,,,,,,,,,,,1,,,,,,,,,,,,,,,,,,,,,,,,"[""8""]",1,[3.3335999999940213],0,1,1,31,1,,,,,,,,,,,,,,,,,,
,,,,,,,,,,5f5797583cbc65245d493954,21,Mężczyzna,2022-05-28_09h17.29.619,task,2021.1.4,Win32,60.08171113,628b806c463b948bc644b84f,6291cc6afa0f3fb2606c0416,,,,,,,,,,"X V Q F H G B L J M P D K C T S W R N Z
",,,,,,,,,,,,,,,,,,,,,,,,,,,,,,,,,,,,,,,,,,,,,,,,,,,,,,,,,,,,,,,,,,,,,,,,,,,,4,0,4,0,1,,,,,,,,,,,,,
,,,,,,,,,,5f5797583cbc65245d493954,21,Mężczyzna,2022-05-28_09h17.29.619,task,2021.1.4,Win32,60.08171113,628b806c463b948bc644b84f,6291cc6afa0f3fb2606c0416,,,,,,,,,,,,,,,,,,,,,,,9,,,,,,,,,,Task,16,(3x8) - 15,9,,,,,,,,,,,,,,,,,,1,,,,,,,,,,,,,,,,,,,,,,,,"[""9""]",1,[1.9505999999939831],0,0,0,15,1,,,,,,,,,,,,,,,,,,
,,,,,,,,,,5f5797583cbc65245d493954,21,Mężczyzna,2022-05-28_09h17.29.619,task,2021.1.4,Win32,60.08171113,628b806c463b948bc644b84f,6291cc6afa0f3fb2606c0416,,,,,,,,,,"X V Q F H G B L J M P D K C T S W R N Z
",,,,,,,,,,,,,,,,,,,,,,,,,,,,,,,,,,,,,,,,,,,,,,,,,,,,,,,,,,,,,,,,,,,,,,,,,,,,5,0,5,0,1,,,,,,,,,,,,,
,,,,,,,,,,5f5797583cbc65245d493954,21,Mężczyzna,2022-05-28_09h17.29.619,task,2021.1.4,Win32,60.08171113,628b806c463b948bc644b84f,6291cc6afa0f3fb2606c0416,,,,,,,,,,,,,,,,,,,,,,,,,,,,,,,,,,,,,,,,,,,,,,,,,,,,,,,,,,,,,,,,,,,,,,,,,,,,,,,,,,,,,,,,,,,jhgkd,"[""j"",""h"",""g"",""k"",""d""]",0,"[1.6335000000000264,2.0833999999911157,2.4669999999999845,3.0166999999880773,3.4167999999970107,3.8332999999970525]",0,JHGKVD,6,0,6,0,1,,
,,,,,,,,,,5f5797583cbc65245d493954,21,Mężczyzna,2022-05-28_09h17.29.619,task,2021.1.4,Win32,60.08171113,628b806c463b948bc644b84f,6291cc6afa0f3fb2606c0416,,,,,,,,,,,,,,,,,,,,,,,5,,,,,,,,,,Task,12,(4x4) - 11,5,,,,,,,,,,,,,,,,,,1,,,,,,,,,,,,,,,,,,,,,,,,"[""5""]",1,[3.2008999999910657],0,0,0,11,1,,,,,,,,,,,,,,,,,,
,,,,,,,,,,5f5797583cbc65245d493954,21,Mężczyzna,2022-05-28_09h17.29.619,task,2021.1.4,Win32,60.08171113,628b806c463b948bc644b84f,6291cc6afa0f3fb2606c0416,,,,,,,,,,"X V Q F H G B L J M P D K C T S W R N Z
",,,,,,,,,,,,,,,,,,,,,,,,,,,,,,,,,,,,,,,,,,,,,,,,,,,,,,,,,,,,,,,,,,,,,,,,,,,,0,0,0,0,1,,,,,,,,,,,,,
,,,,,,,,,,5f5797583cbc65245d493954,21,Mężczyzna,2022-05-28_09h17.29.619,task,2021.1.4,Win32,60.08171113,628b806c463b948bc644b84f,6291cc6afa0f3fb2606c0416,,,,,,,,,,,,,,,,,,,,,,,8,,,,,,,,,,Task,39,(5x3) - 7,8,,,,,,,,,,,,,,,,,,1,,,,,,,,,,,,,,,,,,,,,,,,"[""8""]",1,[2.3908999999911202],0,0,0,38,1,,,,,,,,,,,,,,,,,,
,,,,,,,,,,5f5797583cbc65245d493954,21,Mężczyzna,2022-05-28_09h17.29.619,task,2021.1.4,Win32,60.08171113,628b806c463b948bc644b84f,6291cc6afa0f3fb2606c0416,,,,,,,,,,"X V Q F H G B L J M P D K C T S W R N Z
",,,,,,,,,,,,,,,,,,,,,,,,,,,,,,,,,,,,,,,,,,,,,,,,,,,,,,,,,,,,,,,,,,,,,,,,,,,,1,0,1,0,1,,,,,,,,,,,,,
,,,,,,,,,,5f5797583cbc65245d493954,21,Mężczyzna,2022-05-28_09h17.29.619,task,2021.1.4,Win32,60.08171113,628b806c463b948bc644b84f,6291cc6afa0f3fb2606c0416,,,,,,,,,,,,,,,,,,,,,,,9,,,,,,,,,,Task,24,(2x2) + 5,9,,,,,,,,,,,,,,,,,,1,,,,,,,,,,,,,,,,,,,,,,,,"[""9""]",1,[2.3179999999999836],0,0,0,23,1,,,,,,,,,,,,,,,,,,
,,,,,,,,,,5f5797583cbc65245d493954,21,Mężczyzna,2022-05-28_09h17.29.619,task,2021.1.4,Win32,60.08171113,628b806c463b948bc644b84f,6291cc6afa0f3fb2606c0416,,,,,,,,,,"X V Q F H G B L J M P D K C T S W R N Z
",,,,,,,,,,,,,,,,,,,,,,,,,,,,,,,,,,,,,,,,,,,,,,,,,,,,,,,,,,,,,,,,,,,,,,,,,,,,2,0,2,0,1,,,,,,,,,,,,,
,,,,,,,,,,5f5797583cbc65245d493954,21,Mężczyzna,2022-05-28_09h17.29.619,task,2021.1.4,Win32,60.08171113,628b806c463b948bc644b84f,6291cc6afa0f3fb2606c0416,,,,,,,,,,,,,,,,,,,,,,,4,,,,,,,,,,Task,11,(18/3) - 2,4,,,,,,,,,,,,,,,,,,1,,,,,,,,,,,,,,,,,,,,,,,,"[""4""]",1,[2.6393000000119855],0,0,0,10,1,,,,,,,,,,,,,,,,,,
,,,,,,,,,,5f5797583cbc65245d493954,21,Mężczyzna,2022-05-28_09h17.29.619,task,2021.1.4,Win32,60.08171113,628b806c463b948bc644b84f,6291cc6afa0f3fb2606c0416,,,,,,,,,,"X V Q F H G B L J M P D K C T S W R N Z
",,,,,,,,,,,,,,,,,,,,,,,,,,,,,,,,,,,,,,,,,,,,,,,,,,,,,,,,,,,,,,,,,,,,,,,,,,,,3,0,3,0,1,,,,,,,,,,,,,
,,,,,,,,,,5f5797583cbc65245d493954,21,Mężczyzna,2022-05-28_09h17.29.619,task,2021.1.4,Win32,60.08171113,628b806c463b948bc644b84f,6291cc6afa0f3fb2606c0416,,,,,,,,,,,,,,,,,,,,,,,6,,,,,,,,,,Task,37,(3/3) + 5,6,,,,,,,,,,,,,,,,,,1,,,,,,,,,,,,,,,,,,,,,,,,"[""6""]",1,[2.4912999999969543],0,0,0,36,1,,,,,,,,,,,,,,,,,,
,,,,,,,,,,5f5797583cbc65245d493954,21,Mężczyzna,2022-05-28_09h17.29.619,task,2021.1.4,Win32,60.08171113,628b806c463b948bc644b84f,6291cc6afa0f3fb2606c0416,,,,,,,,,,"X V Q F H G B L J M P D K C T S W R N Z
",,,,,,,,,,,,,,,,,,,,,,,,,,,,,,,,,,,,,,,,,,,,,,,,,,,,,,,,,,,,,,,,,,,,,,,,,,,,4,0,4,0,1,,,,,,,,,,,,,
,,,,,,,,,,5f5797583cbc65245d493954,21,Mężczyzna,2022-05-28_09h17.29.619,task,2021.1.4,Win32,60.08171113,628b806c463b948bc644b84f,6291cc6afa0f3fb2606c0416,,,,,,,,,,,,,,,,,,,,,,,9,,,,,,,,,,Task,7,(3x7) - 12,9,,,,,,,,,,,,,,,,,,1,,,,,,,,,,,,,,,,,,,,,,,,"[""9""]",1,[1.8522999999969443],0,0,0,6,1,,,,,,,,,,,,,,,,,,
,,,,,,,,,,5f5797583cbc65245d493954,21,Mężczyzna,2022-05-28_09h17.29.619,task,2021.1.4,Win32,60.08171113,628b806c463b948bc644b84f,6291cc6afa0f3fb2606c0416,,,,,,,,,,"X V Q F H G B L J M P D K C T S W R N Z
",,,,,,,,,,,,,,,,,,,,,,,,,,,,,,,,,,,,,,,,,,,,,,,,,,,,,,,,,,,,,,,,,,,,,,,,,,,,5,0,5,0,1,,,,,,,,,,,,,
,,,,,,,,,,5f5797583cbc65245d493954,21,Mężczyzna,2022-05-28_09h17.29.619,task,2021.1.4,Win32,60.08171113,628b806c463b948bc644b84f,6291cc6afa0f3fb2606c0416,,,,,,,,,,,,,,,,,,,,,,,,,,,,,,,,,,,,,,,,,,,,,,,,,,,,,,,,,,,,,,,,,,,,,,,,,,,,,,,,,,,,,,,,,,,dcmbbj,"[""d"",""c"",""m"",""b"",""b"",""j""]",0,"[1.7803000000119482,2.134600000008959,2.4898000000119964,3.070500000000038,7.598200000002976,7.948800000011943,8.278600000008964]",1,DCMBBJ,7,0,7,0,1,,
,,,,,,,,,,5f5797583cbc65245d493954,21,Mężczyzna,2022-05-28_09h17.29.619,task,2021.1.4,Win32,60.08171113,628b806c463b948bc644b84f,6291cc6afa0f3fb2606c0416,,,,,,,,,,,,,,,,,,,,,,,8,,,,,,,,,,Task,15,(3x7) - 13,8,,,,,,,,,,,,,,,,,,1,,,,,,,,,,,,,,,,,,,,,,,,"[""8""]",1,[2.9792000000029475],0,0,0,14,1,,,,,,,,,,,,,,,,,,
,,,,,,,,,,5f5797583cbc65245d493954,21,Mężczyzna,2022-05-28_09h17.29.619,task,2021.1.4,Win32,60.08171113,628b806c463b948bc644b84f,6291cc6afa0f3fb2606c0416,,,,,,,,,,"X V Q F H G B L J M P D K C T S W R N Z
",,,,,,,,,,,,,,,,,,,,,,,,,,,,,,,,,,,,,,,,,,,,,,,,,,,,,,,,,,,,,,,,,,,,,,,,,,,,0,0,0,0,1,,,,,,,,,,,,,
,,,,,,,,,,5f5797583cbc65245d493954,21,Mężczyzna,2022-05-28_09h17.29.619,task,2021.1.4,Win32,60.08171113,628b806c463b948bc644b84f,6291cc6afa0f3fb2606c0416,,,,,,,,,,,,,,,,,,,,,,,2,,,,,,,,,,Task,19,(6/2) - 1,2,,,,,,,,,,,,,,,,,,1,,,,,,,,,,,,,,,,,,,,,,,,"[""2""]",1,[2.4509000000059586],0,0,0,18,1,,,,,,,,,,,,,,,,,,
,,,,,,,,,,5f5797583cbc65245d493954,21,Mężczyzna,2022-05-28_09h17.29.619,task,2021.1.4,Win32,60.08171113,628b806c463b948bc644b84f,6291cc6afa0f3fb2606c0416,,,,,,,,,,"X V Q F H G B L J M P D K C T S W R N Z
",,,,,,,,,,,,,,,,,,,,,,,,,,,,,,,,,,,,,,,,,,,,,,,,,,,,,,,,,,,,,,,,,,,,,,,,,,,,1,0,1,0,1,,,,,,,,,,,,,
,,,,,,,,,,5f5797583cbc65245d493954,21,Mężczyzna,2022-05-28_09h17.29.619,task,2021.1.4,Win32,60.08171113,628b806c463b948bc644b84f,6291cc6afa0f3fb2606c0416,,,,,,,,,,,,,,,,,,,,,,,1,,,,,,,,,,Task,9,(3x7) - 20,1,,,,,,,,,,,,,,,,,,1,,,,,,,,,,,,,,,,,,,,,,,,"[""1""]",1,[2.208099999994033],0,0,0,8,1,,,,,,,,,,,,,,,,,,
,,,,,,,,,,5f5797583cbc65245d493954,21,Mężczyzna,2022-05-28_09h17.29.619,task,2021.1.4,Win32,60.08171113,628b806c463b948bc644b84f,6291cc6afa0f3fb2606c0416,,,,,,,,,,"X V Q F H G B L J M P D K C T S W R N Z
",,,,,,,,,,,,,,,,,,,,,,,,,,,,,,,,,,,,,,,,,,,,,,,,,,,,,,,,,,,,,,,,,,,,,,,,,,,,2,0,2,0,1,,,,,,,,,,,,,
,,,,,,,,,,5f5797583cbc65245d493954,21,Mężczyzna,2022-05-28_09h17.29.619,task,2021.1.4,Win32,60.08171113,628b806c463b948bc644b84f,6291cc6afa0f3fb2606c0416,,,,,,,,,,,,,,,,,,,,,,,8,,,,,,,,,,Task,23,(2x3) + 2,8,,,,,,,,,,,,,,,,,,1,,,,,,,,,,,,,,,,,,,,,,,,"[""8""]",1,[2.3150000000000546],0,0,0,22,1,,,,,,,,,,,,,,,,,,
,,,,,,,,,,5f5797583cbc65245d493954,21,Mężczyzna,2022-05-28_09h17.29.619,task,2021.1.4,Win32,60.08171113,628b806c463b948bc644b84f,6291cc6afa0f3fb2606c0416,,,,,,,,,,"X V Q F H G B L J M P D K C T S W R N Z
",,,,,,,,,,,,,,,,,,,,,,,,,,,,,,,,,,,,,,,,,,,,,,,,,,,,,,,,,,,,,,,,,,,,,,,,,,,,3,0,3,0,1,,,,,,,,,,,,,
,,,,,,,,,,5f5797583cbc65245d493954,21,Mężczyzna,2022-05-28_09h17.29.619,task,2021.1.4,Win32,60.08171113,628b806c463b948bc644b84f,6291cc6afa0f3fb2606c0416,,,,,,,,,,,,,,,,,,,,,,,3,,,,,,,,,,Task,35,(1x2) + 1,3,,,,,,,,,,,,,,,,,,1,,,,,,,,,,,,,,,,,,,,,,,,"[""3""]",1,[2.492400000005887],0,0,0,34,1,,,,,,,,,,,,,,,,,,
,,,,,,,,,,5f5797583cbc65245d493954,21,Mężczyzna,2022-05-28_09h17.29.619,task,2021.1.4,Win32,60.08171113,628b806c463b948bc644b84f,6291cc6afa0f3fb2606c0416,,,,,,,,,,"X V Q F H G B L J M P D K C T S W R N Z
",,,,,,,,,,,,,,,,,,,,,,,,,,,,,,,,,,,,,,,,,,,,,,,,,,,,,,,,,,,,,,,,,,,,,,,,,,,,4,0,4,0,1,,,,,,,,,,,,,
,,,,,,,,,,5f5797583cbc65245d493954,21,Mężczyzna,2022-05-28_09h17.29.619,task,2021.1.4,Win32,60.08171113,628b806c463b948bc644b84f,6291cc6afa0f3fb2606c0416,,,,,,,,,,,,,,,,,,,,,,,5,,,,,,,,,,Task,12,(4x4) - 11,5,,,,,,,,,,,,,,,,,,1,,,,,,,,,,,,,,,,,,,,,,,,"[""5""]",1,[2.0461000000088916],0,0,0,11,1,,,,,,,,,,,,,,,,,,
,,,,,,,,,,5f5797583cbc65245d493954,21,Mężczyzna,2022-05-28_09h17.29.619,task,2021.1.4,Win32,60.08171113,628b806c463b948bc644b84f,6291cc6afa0f3fb2606c0416,,,,,,,,,,"X V Q F H G B L J M P D K C T S W R N Z
",,,,,,,,,,,,,,,,,,,,,,,,,,,,,,,,,,,,,,,,,,,,,,,,,,,,,,,,,,,,,,,,,,,,,,,,,,,,5,0,5,0,1,,,,,,,,,,,,,
,,,,,,,,,,5f5797583cbc65245d493954,21,Mężczyzna,2022-05-28_09h17.29.619,task,2021.1.4,Win32,60.08171113,628b806c463b948bc644b84f,6291cc6afa0f3fb2606c0416,,,,,,,,,,,,,,,,,,,,,,,9,,,,,,,,,,Task,40,(7x2) - 5,9,,,,,,,,,,,,,,,,,,1,,,,,,,,,,,,,,,,,,,,,,,,"[""9""]",1,[3.3927000000029466],0,0,0,39,1,,,,,,,,,,,,,,,,,,
,,,,,,,,,,5f5797583cbc65245d493954,21,Mężczyzna,2022-05-28_09h17.29.619,task,2021.1.4,Win32,60.08171113,628b806c463b948bc644b84f,6291cc6afa0f3fb2606c0416,,,,,,,,,,"X V Q F H G B L J M P D K C T S W R N Z
",,,,,,,,,,,,,,,,,,,,,,,,,,,,,,,,,,,,,,,,,,,,,,,,,,,,,,,,,,,,,,,,,,,,,,,,,,,,6,0,6,0,1,,,,,,,,,,,,,
,,,,,,,,,,5f5797583cbc65245d493954,21,Mężczyzna,2022-05-28_09h17.29.619,task,2021.1.4,Win32,60.08171113,628b806c463b948bc644b84f,6291cc6afa0f3fb2606c0416,,,,,,,,,,,,,,,,,,,,,,,,,,,,,,,,,,,,,,,,,,,,,,,,,,,,,,,,,,,,,,,,,,,,,,,,,,,,,,,,,,,,,,,,,,,dnjcvgs,"[""d"",""n"",""j"",""c"",""v"",""g"",""s""]",0,"[1.9013999999910993,2.6265999999941414,3.02900000000011,3.5430000000000064,4.287700000003042,8.395899999991116,8.541399999991086,9.30620000000306]",1,DNJCVGS,8,0,8,0,1,,
,,,,,,,,,,5f5797583cbc65245d493954,21,Mężczyzna,2022-05-28_09h17.29.619,task,2021.1.4,Win32,60.08171113,628b806c463b948bc644b84f,6291cc6afa0f3fb2606c0416,,,,,,,,,,,,,,,,,,,,,,,4,,,,,,,,,,Task,4,(1x5) - 1,4,,,,,,,,,,,,,,,,,,1,,,,,,,,,,,,,,,,,,,,,,,,"[""4""]",1,[2.153500000000008],0,0,0,3,1,,,,,,,,,,,,,,,,,,
,,,,,,,,,,5f5797583cbc65245d493954,21,Mężczyzna,2022-05-28_09h17.29.619,task,2021.1.4,Win32,60.08171113,628b806c463b948bc644b84f,6291cc6afa0f3fb2606c0416,,,,,,,,,,"X V Q F H G B L J M P D K C T S W R N Z
",,,,,,,,,,,,,,,,,,,,,,,,,,,,,,,,,,,,,,,,,,,,,,,,,,,,,,,,,,,,,,,,,,,,,,,,,,,,0,0,0,0,1,,,,,,,,,,,,,
,,,,,,,,,,5f5797583cbc65245d493954,21,Mężczyzna,2022-05-28_09h17.29.619,task,2021.1.4,Win32,60.08171113,628b806c463b948bc644b84f,6291cc6afa0f3fb2606c0416,,,,,,,,,,,,,,,,,,,,,,,6,,,,,,,,,,Task,30,(6/3) + 4 ,6,,,,,,,,,,,,,,,,,,1,,,,,,,,,,,,,,,,,,,,,,,,"[""6""]",1,[2.373499999999922],0,0,0,29,1,,,,,,,,,,,,,,,,,,
,,,,,,,,,,5f5797583cbc65245d493954,21,Mężczyzna,2022-05-28_09h17.29.619,task,2021.1.4,Win32,60.08171113,628b806c463b948bc644b84f,6291cc6afa0f3fb2606c0416,,,,,,,,,,"X V Q F H G B L J M P D K C T S W R N Z
",,,,,,,,,,,,,,,,,,,,,,,,,,,,,,,,,,,,,,,,,,,,,,,,,,,,,,,,,,,,,,,,,,,,,,,,,,,,1,0,1,0,1,,,,,,,,,,,,,
,,,,,,,,,,5f5797583cbc65245d493954,21,Mężczyzna,2022-05-28_09h17.29.619,task,2021.1.4,Win32,60.08171113,628b806c463b948bc644b84f,6291cc6afa0f3fb2606c0416,,,,,,,,,,,,,,,,,,,,,,,2,,,,,,,,,,Task,2,(2x2) - 2,2,,,,,,,,,,,,,,,,,,1,,,,,,,,,,,,,,,,,,,,,,,,"[""2""]",1,[3.0670000000000073],0,0,0,1,1,,,,,,,,,,,,,,,,,,
,,,,,,,,,,5f5797583cbc65245d493954,21,Mężczyzna,2022-05-28_09h17.29.619,task,2021.1.4,Win32,60.08171113,628b806c463b948bc644b84f,6291cc6afa0f3fb2606c0416,,,,,,,,,,"X V Q F H G B L J M P D K C T S W R N Z
",,,,,,,,,,,,,,,,,,,,,,,,,,,,,,,,,,,,,,,,,,,,,,,,,,,,,,,,,,,,,,,,,,,,,,,,,,,,2,0,2,0,1,,,,,,,,,,,,,
,,,,,,,,,,5f5797583cbc65245d493954,21,Mężczyzna,2022-05-28_09h17.29.619,task,2021.1.4,Win32,60.08171113,628b806c463b948bc644b84f,6291cc6afa0f3fb2606c0416,,,,,,,,,,,,,,,,,,,,,,,3,,,,,,,,,,Task,27,(3/3) + 2,3,,,,,,,,,,,,,,,,,,1,,,,,,,,,,,,,,,,,,,,,,,,"[""3""]",1,[3.61099999999999],0,0,0,26,1,,,,,,,,,,,,,,,,,,
,,,,,,,,,,5f5797583cbc65245d493954,21,Mężczyzna,2022-05-28_09h17.29.619,task,2021.1.4,Win32,60.08171113,628b806c463b948bc644b84f,6291cc6afa0f3fb2606c0416,,,,,,,,,,"X V Q F H G B L J M P D K C T S W R N Z
",,,,,,,,,,,,,,,,,,,,,,,,,,,,,,,,,,,,,,,,,,,,,,,,,,,,,,,,,,,,,,,,,,,,,,,,,,,,3,0,3,0,1,,,,,,,,,,,,,
,,,,,,,,,,5f5797583cbc65245d493954,21,Mężczyzna,2022-05-28_09h17.29.619,task,2021.1.4,Win32,60.08171113,628b806c463b948bc644b84f,6291cc6afa0f3fb2606c0416,,,,,,,,,,,,,,,,,,,,,,,2,,,,,,,,,,Task,26,(2x9) - 16,2,,,,,,,,,,,,,,,,,,1,,,,,,,,,,,,,,,,,,,,,,,,"[""2""]",1,[2.7462000000030002],0,0,0,25,1,,,,,,,,,,,,,,,,,,
,,,,,,,,,,5f5797583cbc65245d493954,21,Mężczyzna,2022-05-28_09h17.29.619,task,2021.1.4,Win32,60.08171113,628b806c463b948bc644b84f,6291cc6afa0f3fb2606c0416,,,,,,,,,,"X V Q F H G B L J M P D K C T S W R N Z
",,,,,,,,,,,,,,,,,,,,,,,,,,,,,,,,,,,,,,,,,,,,,,,,,,,,,,,,,,,,,,,,,,,,,,,,,,,,4,0,4,0,1,,,,,,,,,,,,,
,,,,,,,,,,5f5797583cbc65245d493954,21,Mężczyzna,2022-05-28_09h17.29.619,task,2021.1.4,Win32,60.08171113,628b806c463b948bc644b84f,6291cc6afa0f3fb2606c0416,,,,,,,,,,,,,,,,,,,,,,,9,,,,,,,,,,Task,16,(3x8) - 15,9,,,,,,,,,,,,,,,,,,1,,,,,,,,,,,,,,,,,,,,,,,,"[""9""]",1,[3.638700000003041],0,0,0,15,1,,,,,,,,,,,,,,,,,,
,,,,,,,,,,5f5797583cbc65245d493954,21,Mężczyzna,2022-05-28_09h17.29.619,task,2021.1.4,Win32,60.08171113,628b806c463b948bc644b84f,6291cc6afa0f3fb2606c0416,,,,,,,,,,"X V Q F H G B L J M P D K C T S W R N Z
",,,,,,,,,,,,,,,,,,,,,,,,,,,,,,,,,,,,,,,,,,,,,,,,,,,,,,,,,,,,,,,,,,,,,,,,,,,,5,0,5,0,1,,,,,,,,,,,,,
