key_resp_15.keys,key_resp_15.rt,key_resp_16.keys,key_resp_16.rt,key_resp_4.keys,key_resp_4.rt,next_letter.thisRepN,next_letter.thisTrialN,next_letter.thisN,next_letter.thisIndex,next_letter.ran,letter,participant,Wiek*,Płeć,date,expName,psychopyVersion,OS,frameRate,study_id,session,simple_recall,key_resp_5.keys,key_resp_5.rt,simple_recall_corr,simple_recall_corrkeys,next_level.thisRepN,next_level.thisTrialN,next_level.thisN,next_level.thisIndex,next_level.ran,key_resp_2.keys,key_resp_2.rt,digit_answer,key_resp.keys,key_resp.corr,key_resp.rt,RT_list,next_equation.thisRepN,next_equation.thisTrialN,next_equation.thisN,next_equation.thisIndex,next_equation.ran,Task,Trial,Problem,Operation_answer,processing_score,sumRT,meanRT,sumdiff,sd,RT,key_resp_3.keys,key_resp_3.rt,repeat_practice.thisRepN,repeat_practice.thisTrialN,repeat_practice.thisN,repeat_practice.thisIndex,repeat_practice.ran,key_resp_6.keys,key_resp_6.rt,key_resp_11.keys,key_resp_11.corr,key_resp_11.rt,operation_correct,repeat_if_wrong_prac.thisRepN,repeat_if_wrong_prac.thisTrialN,repeat_if_wrong_prac.thisN,repeat_if_wrong_prac.thisIndex,repeat_if_wrong_prac.ran,span_size_prac.thisRepN,span_size_prac.thisTrialN,span_size_prac.thisN,span_size_prac.thisIndex,span_size_prac.ran,complex_recall_practice,key_resp_9.keys,key_resp_9.corr,key_resp_9.rt,complex_prac_corr,span_recall_prac.thisRepN,span_recall_prac.thisTrialN,span_recall_prac.thisN,span_recall_prac.thisIndex,span_recall_prac.ran,key_resp_10.keys,key_resp_10.rt,key_resp_7.keys,key_resp_7.corr,key_resp_7.rt,repeat_if_wrong.thisRepN,repeat_if_wrong.thisTrialN,repeat_if_wrong.thisN,repeat_if_wrong.thisIndex,repeat_if_wrong.ran,span_size.thisRepN,span_size.thisTrialN,span_size.thisN,span_size.thisIndex,span_size.ran,complex_recall,key_resp_8.keys,key_resp_8.corr,key_resp_8.rt,complex_recall_corr,complex_recall_corrkeys,span_recall.thisRepN,span_recall.thisTrialN,span_recall.thisN,span_recall.thisIndex,span_recall.ran,key_resp_13.keys,key_resp_13.corr,key_resp_13.rt,random_loop.thisRepN,random_loop.thisTrialN,random_loop.thisN,random_loop.thisIndex,random_loop.ran,key_resp_12.keys,key_resp_12.rt
space,35.2065,space,25.867,space,5.834,0,0,0,0,1,X V Q F H G B L J M P D K C T S W R N Z,5f5e7de4c81d3672642cd612,20,Mężczyzna,2022-06-11_09h25.52.020,task,2021.1.4,Win32,59.9268892,6299f149e92ead563fba08ef,62a4433fcb93d3badaec54e0,,,,,,,,,,,,,,,,,,,,,,,,,,,,,,,,,,,,,,,,,,,,,,,,,,,,,,,,,,,,,,,,,,,,,,,,,,,,,,,,,,,,,,,,,,,,,,,,,,,,,
,,,,,,1,0,1,0,1,X V Q F H G B L J M P D K C T S W R N Z,5f5e7de4c81d3672642cd612,20,Mężczyzna,2022-06-11_09h25.52.020,task,2021.1.4,Win32,59.9268892,6299f149e92ead563fba08ef,62a4433fcb93d3badaec54e0,,,,,,,,,,,,,,,,,,,,,,,,,,,,,,,,,,,,,,,,,,,,,,,,,,,,,,,,,,,,,,,,,,,,,,,,,,,,,,,,,,,,,,,,,,,,,,,,,,,,,
,,,,,,,,,,,,5f5e7de4c81d3672642cd612,20,Mężczyzna,2022-06-11_09h25.52.020,task,2021.1.4,Win32,59.9268892,6299f149e92ead563fba08ef,62a4433fcb93d3badaec54e0,zv,"[""z"",""v""]","[2.2369000000001336,2.817100000000096,3.359499999999997]",1,ZV,0,0,0,0,1,,,,,,,,,,,,,,,,,,,,,,,,,,,,,,,,,,,,,,,,,,,,,,,,,,,,,,,,,,,,,,,,,,,,,,,,,,,,,,,,,,,,,,,,,,,
,,,,,,0,0,0,0,1,X V Q F H G B L J M P D K C T S W R N Z,5f5e7de4c81d3672642cd612,20,Mężczyzna,2022-06-11_09h25.52.020,task,2021.1.4,Win32,59.9268892,6299f149e92ead563fba08ef,62a4433fcb93d3badaec54e0,,,,,,,,,,,,,,,,,,,,,,,,,,,,,,,,,,,,,,,,,,,,,,,,,,,,,,,,,,,,,,,,,,,,,,,,,,,,,,,,,,,,,,,,,,,,,,,,,,,,,
,,,,,,1,0,1,0,1,X V Q F H G B L J M P D K C T S W R N Z,5f5e7de4c81d3672642cd612,20,Mężczyzna,2022-06-11_09h25.52.020,task,2021.1.4,Win32,59.9268892,6299f149e92ead563fba08ef,62a4433fcb93d3badaec54e0,,,,,,,,,,,,,,,,,,,,,,,,,,,,,,,,,,,,,,,,,,,,,,,,,,,,,,,,,,,,,,,,,,,,,,,,,,,,,,,,,,,,,,,,,,,,,,,,,,,,,
,,,,,,,,,,,,5f5e7de4c81d3672642cd612,20,Mężczyzna,2022-06-11_09h25.52.020,task,2021.1.4,Win32,59.9268892,6299f149e92ead563fba08ef,62a4433fcb93d3badaec54e0,qg,"[""q"",""g""]","[3.3967000000001804,3.6361000000000843,4.076499999999982]",1,QG,1,0,1,0,1,,,,,,,,,,,,,,,,,,,,,,,,,,,,,,,,,,,,,,,,,,,,,,,,,,,,,,,,,,,,,,,,,,,,,,,,,,,,,,,,,,,,,,,,,,,
,,,,,,0,0,0,0,1,X V Q F H G B L J M P D K C T S W R N Z,5f5e7de4c81d3672642cd612,20,Mężczyzna,2022-06-11_09h25.52.020,task,2021.1.4,Win32,59.9268892,6299f149e92ead563fba08ef,62a4433fcb93d3badaec54e0,,,,,,,,,,,,,,,,,,,,,,,,,,,,,,,,,,,,,,,,,,,,,,,,,,,,,,,,,,,,,,,,,,,,,,,,,,,,,,,,,,,,,,,,,,,,,,,,,,,,,
,,,,,,1,0,1,0,1,X V Q F H G B L J M P D K C T S W R N Z,5f5e7de4c81d3672642cd612,20,Mężczyzna,2022-06-11_09h25.52.020,task,2021.1.4,Win32,59.9268892,6299f149e92ead563fba08ef,62a4433fcb93d3badaec54e0,,,,,,,,,,,,,,,,,,,,,,,,,,,,,,,,,,,,,,,,,,,,,,,,,,,,,,,,,,,,,,,,,,,,,,,,,,,,,,,,,,,,,,,,,,,,,,,,,,,,,
,,,,,,2,0,2,0,1,X V Q F H G B L J M P D K C T S W R N Z,5f5e7de4c81d3672642cd612,20,Mężczyzna,2022-06-11_09h25.52.020,task,2021.1.4,Win32,59.9268892,6299f149e92ead563fba08ef,62a4433fcb93d3badaec54e0,,,,,,,,,,,,,,,,,,,,,,,,,,,,,,,,,,,,,,,,,,,,,,,,,,,,,,,,,,,,,,,,,,,,,,,,,,,,,,,,,,,,,,,,,,,,,,,,,,,,,
,,,,,,,,,,,,5f5e7de4c81d3672642cd612,20,Mężczyzna,2022-06-11_09h25.52.020,task,2021.1.4,Win32,59.9268892,6299f149e92ead563fba08ef,62a4433fcb93d3badaec54e0,mcb,"[""m"",""c"",""b""]","[0.8806999999999618,0.9673000000000513,1.152899999999903,2.2676999999999623]",1,MCB,2,0,2,0,1,,,,,,,,,,,,,,,,,,,,,,,,,,,,,,,,,,,,,,,,,,,,,,,,,,,,,,,,,,,,,,,,,,,,,,,,,,,,,,,,,,,,,,,,,,,
,,,,,,0,0,0,0,1,X V Q F H G B L J M P D K C T S W R N Z,5f5e7de4c81d3672642cd612,20,Mężczyzna,2022-06-11_09h25.52.020,task,2021.1.4,Win32,59.9268892,6299f149e92ead563fba08ef,62a4433fcb93d3badaec54e0,,,,,,,,,,,,,,,,,,,,,,,,,,,,,,,,,,,,,,,,,,,,,,,,,,,,,,,,,,,,,,,,,,,,,,,,,,,,,,,,,,,,,,,,,,,,,,,,,,,,,
,,,,,,1,0,1,0,1,X V Q F H G B L J M P D K C T S W R N Z,5f5e7de4c81d3672642cd612,20,Mężczyzna,2022-06-11_09h25.52.020,task,2021.1.4,Win32,59.9268892,6299f149e92ead563fba08ef,62a4433fcb93d3badaec54e0,,,,,,,,,,,,,,,,,,,,,,,,,,,,,,,,,,,,,,,,,,,,,,,,,,,,,,,,,,,,,,,,,,,,,,,,,,,,,,,,,,,,,,,,,,,,,,,,,,,,,
,,,,,,2,0,2,0,1,X V Q F H G B L J M P D K C T S W R N Z,5f5e7de4c81d3672642cd612,20,Mężczyzna,2022-06-11_09h25.52.020,task,2021.1.4,Win32,59.9268892,6299f149e92ead563fba08ef,62a4433fcb93d3badaec54e0,,,,,,,,,,,,,,,,,,,,,,,,,,,,,,,,,,,,,,,,,,,,,,,,,,,,,,,,,,,,,,,,,,,,,,,,,,,,,,,,,,,,,,,,,,,,,,,,,,,,,
,,,,,,,,,,,,5f5e7de4c81d3672642cd612,20,Mężczyzna,2022-06-11_09h25.52.020,task,2021.1.4,Win32,59.9268892,6299f149e92ead563fba08ef,62a4433fcb93d3badaec54e0,tgf,"[""t"",""g"",""f""]","[0.5753000000000554,0.8800999999998567,1.138199999999955,1.440899999999914]",1,TGF,3,0,3,0,1,,,,,,,,,,,,,,,,,,,,,,,,,,,,,,,,,,,,,,,,,,,,,,,,,,,,,,,,,,,,,,,,,,,,,,,,,,,,,,,,,,,,,,,,,,,
,,,,,,0,0,0,0,1,X V Q F H G B L J M P D K C T S W R N Z,5f5e7de4c81d3672642cd612,20,Mężczyzna,2022-06-11_09h25.52.020,task,2021.1.4,Win32,59.9268892,6299f149e92ead563fba08ef,62a4433fcb93d3badaec54e0,,,,,,,,,,,,,,,,,,,,,,,,,,,,,,,,,,,,,,,,,,,,,,,,,,,,,,,,,,,,,,,,,,,,,,,,,,,,,,,,,,,,,,,,,,,,,,,,,,,,,
,,,,,,1,0,1,0,1,X V Q F H G B L J M P D K C T S W R N Z,5f5e7de4c81d3672642cd612,20,Mężczyzna,2022-06-11_09h25.52.020,task,2021.1.4,Win32,59.9268892,6299f149e92ead563fba08ef,62a4433fcb93d3badaec54e0,,,,,,,,,,,,,,,,,,,,,,,,,,,,,,,,,,,,,,,,,,,,,,,,,,,,,,,,,,,,,,,,,,,,,,,,,,,,,,,,,,,,,,,,,,,,,,,,,,,,,
,,,,,,2,0,2,0,1,X V Q F H G B L J M P D K C T S W R N Z,5f5e7de4c81d3672642cd612,20,Mężczyzna,2022-06-11_09h25.52.020,task,2021.1.4,Win32,59.9268892,6299f149e92ead563fba08ef,62a4433fcb93d3badaec54e0,,,,,,,,,,,,,,,,,,,,,,,,,,,,,,,,,,,,,,,,,,,,,,,,,,,,,,,,,,,,,,,,,,,,,,,,,,,,,,,,,,,,,,,,,,,,,,,,,,,,,
,,,,,,3,0,3,0,1,X V Q F H G B L J M P D K C T S W R N Z,5f5e7de4c81d3672642cd612,20,Mężczyzna,2022-06-11_09h25.52.020,task,2021.1.4,Win32,59.9268892,6299f149e92ead563fba08ef,62a4433fcb93d3badaec54e0,,,,,,,,,,,,,,,,,,,,,,,,,,,,,,,,,,,,,,,,,,,,,,,,,,,,,,,,,,,,,,,,,,,,,,,,,,,,,,,,,,,,,,,,,,,,,,,,,,,,,
,,,,,,,,,,,,5f5e7de4c81d3672642cd612,20,Mężczyzna,2022-06-11_09h25.52.020,task,2021.1.4,Win32,59.9268892,6299f149e92ead563fba08ef,62a4433fcb93d3badaec54e0,shqc,"[""s"",""h"",""q"",""c""]","[0.6264000000001317,0.9591000000000918,1.1536000000000968,1.3853000000000293,3.821800000000053]",1,SHQC,4,0,4,0,1,,,,,,,,,,,,,,,,,,,,,,,,,,,,,,,,,,,,,,,,,,,,,,,,,,,,,,,,,,,,,,,,,,,,,,,,,,,,,,,,,,,,,,,,,,,
,,,,,,0,0,0,0,1,X V Q F H G B L J M P D K C T S W R N Z,5f5e7de4c81d3672642cd612,20,Mężczyzna,2022-06-11_09h25.52.020,task,2021.1.4,Win32,59.9268892,6299f149e92ead563fba08ef,62a4433fcb93d3badaec54e0,,,,,,,,,,,,,,,,,,,,,,,,,,,,,,,,,,,,,,,,,,,,,,,,,,,,,,,,,,,,,,,,,,,,,,,,,,,,,,,,,,,,,,,,,,,,,,,,,,,,,
,,,,,,1,0,1,0,1,X V Q F H G B L J M P D K C T S W R N Z,5f5e7de4c81d3672642cd612,20,Mężczyzna,2022-06-11_09h25.52.020,task,2021.1.4,Win32,59.9268892,6299f149e92ead563fba08ef,62a4433fcb93d3badaec54e0,,,,,,,,,,,,,,,,,,,,,,,,,,,,,,,,,,,,,,,,,,,,,,,,,,,,,,,,,,,,,,,,,,,,,,,,,,,,,,,,,,,,,,,,,,,,,,,,,,,,,
,,,,,,2,0,2,0,1,X V Q F H G B L J M P D K C T S W R N Z,5f5e7de4c81d3672642cd612,20,Mężczyzna,2022-06-11_09h25.52.020,task,2021.1.4,Win32,59.9268892,6299f149e92ead563fba08ef,62a4433fcb93d3badaec54e0,,,,,,,,,,,,,,,,,,,,,,,,,,,,,,,,,,,,,,,,,,,,,,,,,,,,,,,,,,,,,,,,,,,,,,,,,,,,,,,,,,,,,,,,,,,,,,,,,,,,,
,,,,,,3,0,3,0,1,X V Q F H G B L J M P D K C T S W R N Z,5f5e7de4c81d3672642cd612,20,Mężczyzna,2022-06-11_09h25.52.020,task,2021.1.4,Win32,59.9268892,6299f149e92ead563fba08ef,62a4433fcb93d3badaec54e0,,,,,,,,,,,,,,,,,,,,,,,,,,,,,,,,,,,,,,,,,,,,,,,,,,,,,,,,,,,,,,,,,,,,,,,,,,,,,,,,,,,,,,,,,,,,,,,,,,,,,
,,,,,,,,,,,,5f5e7de4c81d3672642cd612,20,Mężczyzna,2022-06-11_09h25.52.020,task,2021.1.4,Win32,59.9268892,6299f149e92ead563fba08ef,62a4433fcb93d3badaec54e0,rfgb,"[""r"",""f"",""g"",""b""]","[0.8836999999999477,1.0015999999998542,1.1954999999999814,1.381899999999888,2.0145999999998594]",1,RFGB,5,0,5,0,1,,,,,,,,,,,,,,,,,,,,,,,,,,,,,,,,,,,,,,,,,,,,,,,,,,,,,,,,,,,,,,,,,,,,,,,,,,,,,,,,,,,,,,,,,,,
,,,,,,0,0,0,0,1,X V Q F H G B L J M P D K C T S W R N Z,5f5e7de4c81d3672642cd612,20,Mężczyzna,2022-06-11_09h25.52.020,task,2021.1.4,Win32,59.9268892,6299f149e92ead563fba08ef,62a4433fcb93d3badaec54e0,,,,,,,,,,,,,,,,,,,,,,,,,,,,,,,,,,,,,,,,,,,,,,,,,,,,,,,,,,,,,,,,,,,,,,,,,,,,,,,,,,,,,,,,,,,,,,,,,,,,,
,,,,,,1,0,1,0,1,X V Q F H G B L J M P D K C T S W R N Z,5f5e7de4c81d3672642cd612,20,Mężczyzna,2022-06-11_09h25.52.020,task,2021.1.4,Win32,59.9268892,6299f149e92ead563fba08ef,62a4433fcb93d3badaec54e0,,,,,,,,,,,,,,,,,,,,,,,,,,,,,,,,,,,,,,,,,,,,,,,,,,,,,,,,,,,,,,,,,,,,,,,,,,,,,,,,,,,,,,,,,,,,,,,,,,,,,
,,,,,,2,0,2,0,1,X V Q F H G B L J M P D K C T S W R N Z,5f5e7de4c81d3672642cd612,20,Mężczyzna,2022-06-11_09h25.52.020,task,2021.1.4,Win32,59.9268892,6299f149e92ead563fba08ef,62a4433fcb93d3badaec54e0,,,,,,,,,,,,,,,,,,,,,,,,,,,,,,,,,,,,,,,,,,,,,,,,,,,,,,,,,,,,,,,,,,,,,,,,,,,,,,,,,,,,,,,,,,,,,,,,,,,,,
,,,,,,3,0,3,0,1,X V Q F H G B L J M P D K C T S W R N Z,5f5e7de4c81d3672642cd612,20,Mężczyzna,2022-06-11_09h25.52.020,task,2021.1.4,Win32,59.9268892,6299f149e92ead563fba08ef,62a4433fcb93d3badaec54e0,,,,,,,,,,,,,,,,,,,,,,,,,,,,,,,,,,,,,,,,,,,,,,,,,,,,,,,,,,,,,,,,,,,,,,,,,,,,,,,,,,,,,,,,,,,,,,,,,,,,,
,,,,,,4,0,4,0,1,X V Q F H G B L J M P D K C T S W R N Z,5f5e7de4c81d3672642cd612,20,Mężczyzna,2022-06-11_09h25.52.020,task,2021.1.4,Win32,59.9268892,6299f149e92ead563fba08ef,62a4433fcb93d3badaec54e0,,,,,,,,,,,,,,,,,,,,,,,,,,,,,,,,,,,,,,,,,,,,,,,,,,,,,,,,,,,,,,,,,,,,,,,,,,,,,,,,,,,,,,,,,,,,,,,,,,,,,
,,,,,,,,,,,,5f5e7de4c81d3672642cd612,20,Mężczyzna,2022-06-11_09h25.52.020,task,2021.1.4,Win32,59.9268892,6299f149e92ead563fba08ef,62a4433fcb93d3badaec54e0,dgqlg,"[""d"",""g"",""q"",""l"",""g""]","[1.5421999999999514,1.9010999999998432,2.23599999999999,2.8579999999999757,3.2053999999998837,3.5720000000000027]",1,DGQLG,6,0,6,0,1,,,,,,,,,,,,,,,,,,,,,,,,,,,,,,,,,,,,,,,,,,,,,,,,,,,,,,,,,,,,,,,,,,,,,,,,,,,,,,,,,,,,,,,,,,,
,,,,,,0,0,0,0,1,X V Q F H G B L J M P D K C T S W R N Z,5f5e7de4c81d3672642cd612,20,Mężczyzna,2022-06-11_09h25.52.020,task,2021.1.4,Win32,59.9268892,6299f149e92ead563fba08ef,62a4433fcb93d3badaec54e0,,,,,,,,,,,,,,,,,,,,,,,,,,,,,,,,,,,,,,,,,,,,,,,,,,,,,,,,,,,,,,,,,,,,,,,,,,,,,,,,,,,,,,,,,,,,,,,,,,,,,
,,,,,,1,0,1,0,1,X V Q F H G B L J M P D K C T S W R N Z,5f5e7de4c81d3672642cd612,20,Mężczyzna,2022-06-11_09h25.52.020,task,2021.1.4,Win32,59.9268892,6299f149e92ead563fba08ef,62a4433fcb93d3badaec54e0,,,,,,,,,,,,,,,,,,,,,,,,,,,,,,,,,,,,,,,,,,,,,,,,,,,,,,,,,,,,,,,,,,,,,,,,,,,,,,,,,,,,,,,,,,,,,,,,,,,,,
,,,,,,2,0,2,0,1,X V Q F H G B L J M P D K C T S W R N Z,5f5e7de4c81d3672642cd612,20,Mężczyzna,2022-06-11_09h25.52.020,task,2021.1.4,Win32,59.9268892,6299f149e92ead563fba08ef,62a4433fcb93d3badaec54e0,,,,,,,,,,,,,,,,,,,,,,,,,,,,,,,,,,,,,,,,,,,,,,,,,,,,,,,,,,,,,,,,,,,,,,,,,,,,,,,,,,,,,,,,,,,,,,,,,,,,,
,,,,,,3,0,3,0,1,X V Q F H G B L J M P D K C T S W R N Z,5f5e7de4c81d3672642cd612,20,Mężczyzna,2022-06-11_09h25.52.020,task,2021.1.4,Win32,59.9268892,6299f149e92ead563fba08ef,62a4433fcb93d3badaec54e0,,,,,,,,,,,,,,,,,,,,,,,,,,,,,,,,,,,,,,,,,,,,,,,,,,,,,,,,,,,,,,,,,,,,,,,,,,,,,,,,,,,,,,,,,,,,,,,,,,,,,
,,,,,,4,0,4,0,1,X V Q F H G B L J M P D K C T S W R N Z,5f5e7de4c81d3672642cd612,20,Mężczyzna,2022-06-11_09h25.52.020,task,2021.1.4,Win32,59.9268892,6299f149e92ead563fba08ef,62a4433fcb93d3badaec54e0,,,,,,,,,,,,,,,,,,,,,,,,,,,,,,,,,,,,,,,,,,,,,,,,,,,,,,,,,,,,,,,,,,,,,,,,,,,,,,,,,,,,,,,,,,,,,,,,,,,,,
,,,,,,,,,,,,5f5e7de4c81d3672642cd612,20,Mężczyzna,2022-06-11_09h25.52.020,task,2021.1.4,Win32,59.9268892,6299f149e92ead563fba08ef,62a4433fcb93d3badaec54e0,qzcgf,"[""q"",""z"",""c"",""g"",""f""]","[1.2824000000001377,1.570999999999998,1.9263000000000545,2.5096999999999525,2.6591000000000804,2.9904999999999973]",1,QZCGF,7,0,7,0,1,,,,,,,,,,,,,,,,,,,,,,,,,,,,,,,,,,,,,,,,,,,,,,,,,,,,,,,,,,,,,,,,,,,,,,,,,,,,,,,,,,,,,,,,,,,
,,,,,,0,0,0,0,1,X V Q F H G B L J M P D K C T S W R N Z,5f5e7de4c81d3672642cd612,20,Mężczyzna,2022-06-11_09h25.52.020,task,2021.1.4,Win32,59.9268892,6299f149e92ead563fba08ef,62a4433fcb93d3badaec54e0,,,,,,,,,,,,,,,,,,,,,,,,,,,,,,,,,,,,,,,,,,,,,,,,,,,,,,,,,,,,,,,,,,,,,,,,,,,,,,,,,,,,,,,,,,,,,,,,,,,,,
,,,,,,1,0,1,0,1,X V Q F H G B L J M P D K C T S W R N Z,5f5e7de4c81d3672642cd612,20,Mężczyzna,2022-06-11_09h25.52.020,task,2021.1.4,Win32,59.9268892,6299f149e92ead563fba08ef,62a4433fcb93d3badaec54e0,,,,,,,,,,,,,,,,,,,,,,,,,,,,,,,,,,,,,,,,,,,,,,,,,,,,,,,,,,,,,,,,,,,,,,,,,,,,,,,,,,,,,,,,,,,,,,,,,,,,,
,,,,,,2,0,2,0,1,X V Q F H G B L J M P D K C T S W R N Z,5f5e7de4c81d3672642cd612,20,Mężczyzna,2022-06-11_09h25.52.020,task,2021.1.4,Win32,59.9268892,6299f149e92ead563fba08ef,62a4433fcb93d3badaec54e0,,,,,,,,,,,,,,,,,,,,,,,,,,,,,,,,,,,,,,,,,,,,,,,,,,,,,,,,,,,,,,,,,,,,,,,,,,,,,,,,,,,,,,,,,,,,,,,,,,,,,
,,,,,,3,0,3,0,1,X V Q F H G B L J M P D K C T S W R N Z,5f5e7de4c81d3672642cd612,20,Mężczyzna,2022-06-11_09h25.52.020,task,2021.1.4,Win32,59.9268892,6299f149e92ead563fba08ef,62a4433fcb93d3badaec54e0,,,,,,,,,,,,,,,,,,,,,,,,,,,,,,,,,,,,,,,,,,,,,,,,,,,,,,,,,,,,,,,,,,,,,,,,,,,,,,,,,,,,,,,,,,,,,,,,,,,,,
,,,,,,4,0,4,0,1,X V Q F H G B L J M P D K C T S W R N Z,5f5e7de4c81d3672642cd612,20,Mężczyzna,2022-06-11_09h25.52.020,task,2021.1.4,Win32,59.9268892,6299f149e92ead563fba08ef,62a4433fcb93d3badaec54e0,,,,,,,,,,,,,,,,,,,,,,,,,,,,,,,,,,,,,,,,,,,,,,,,,,,,,,,,,,,,,,,,,,,,,,,,,,,,,,,,,,,,,,,,,,,,,,,,,,,,,
,,,,,,5,0,5,0,1,X V Q F H G B L J M P D K C T S W R N Z,5f5e7de4c81d3672642cd612,20,Mężczyzna,2022-06-11_09h25.52.020,task,2021.1.4,Win32,59.9268892,6299f149e92ead563fba08ef,62a4433fcb93d3badaec54e0,,,,,,,,,,,,,,,,,,,,,,,,,,,,,,,,,,,,,,,,,,,,,,,,,,,,,,,,,,,,,,,,,,,,,,,,,,,,,,,,,,,,,,,,,,,,,,,,,,,,,
,,,,,,,,,,,,5f5e7de4c81d3672642cd612,20,Mężczyzna,2022-06-11_09h25.52.020,task,2021.1.4,Win32,59.9268892,6299f149e92ead563fba08ef,62a4433fcb93d3badaec54e0,tmzfwc,"[""t"",""m"",""z"",""f"",""w"",""c""]","[0.9896999999999423,1.1443000000000438,1.4531999999999528,1.6894999999999811,1.934399999999897,2.1680999999998676,2.4773999999999035]",1,TMZFWC,8,0,8,0,1,,,,,,,,,,,,,,,,,,,,,,,,,,,,,,,,,,,,,,,,,,,,,,,,,,,,,,,,,,,,,,,,,,,,,,,,,,,,,,,,,,,,,,,,,,,
,,,,,,0,0,0,0,1,X V Q F H G B L J M P D K C T S W R N Z,5f5e7de4c81d3672642cd612,20,Mężczyzna,2022-06-11_09h25.52.020,task,2021.1.4,Win32,59.9268892,6299f149e92ead563fba08ef,62a4433fcb93d3badaec54e0,,,,,,,,,,,,,,,,,,,,,,,,,,,,,,,,,,,,,,,,,,,,,,,,,,,,,,,,,,,,,,,,,,,,,,,,,,,,,,,,,,,,,,,,,,,,,,,,,,,,,
,,,,,,1,0,1,0,1,X V Q F H G B L J M P D K C T S W R N Z,5f5e7de4c81d3672642cd612,20,Mężczyzna,2022-06-11_09h25.52.020,task,2021.1.4,Win32,59.9268892,6299f149e92ead563fba08ef,62a4433fcb93d3badaec54e0,,,,,,,,,,,,,,,,,,,,,,,,,,,,,,,,,,,,,,,,,,,,,,,,,,,,,,,,,,,,,,,,,,,,,,,,,,,,,,,,,,,,,,,,,,,,,,,,,,,,,
,,,,,,2,0,2,0,1,X V Q F H G B L J M P D K C T S W R N Z,5f5e7de4c81d3672642cd612,20,Mężczyzna,2022-06-11_09h25.52.020,task,2021.1.4,Win32,59.9268892,6299f149e92ead563fba08ef,62a4433fcb93d3badaec54e0,,,,,,,,,,,,,,,,,,,,,,,,,,,,,,,,,,,,,,,,,,,,,,,,,,,,,,,,,,,,,,,,,,,,,,,,,,,,,,,,,,,,,,,,,,,,,,,,,,,,,
,,,,,,3,0,3,0,1,X V Q F H G B L J M P D K C T S W R N Z,5f5e7de4c81d3672642cd612,20,Mężczyzna,2022-06-11_09h25.52.020,task,2021.1.4,Win32,59.9268892,6299f149e92ead563fba08ef,62a4433fcb93d3badaec54e0,,,,,,,,,,,,,,,,,,,,,,,,,,,,,,,,,,,,,,,,,,,,,,,,,,,,,,,,,,,,,,,,,,,,,,,,,,,,,,,,,,,,,,,,,,,,,,,,,,,,,
,,,,,,4,0,4,0,1,X V Q F H G B L J M P D K C T S W R N Z,5f5e7de4c81d3672642cd612,20,Mężczyzna,2022-06-11_09h25.52.020,task,2021.1.4,Win32,59.9268892,6299f149e92ead563fba08ef,62a4433fcb93d3badaec54e0,,,,,,,,,,,,,,,,,,,,,,,,,,,,,,,,,,,,,,,,,,,,,,,,,,,,,,,,,,,,,,,,,,,,,,,,,,,,,,,,,,,,,,,,,,,,,,,,,,,,,
,,,,,,5,0,5,0,1,X V Q F H G B L J M P D K C T S W R N Z,5f5e7de4c81d3672642cd612,20,Mężczyzna,2022-06-11_09h25.52.020,task,2021.1.4,Win32,59.9268892,6299f149e92ead563fba08ef,62a4433fcb93d3badaec54e0,,,,,,,,,,,,,,,,,,,,,,,,,,,,,,,,,,,,,,,,,,,,,,,,,,,,,,,,,,,,,,,,,,,,,,,,,,,,,,,,,,,,,,,,,,,,,,,,,,,,,
,,,,,,,,,,,,5f5e7de4c81d3672642cd612,20,Mężczyzna,2022-06-11_09h25.52.020,task,2021.1.4,Win32,59.9268892,6299f149e92ead563fba08ef,62a4433fcb93d3badaec54e0,tgvrfg,"[""t"",""g"",""v"",""r"",""f"",""g""]","[1.9616000000000895,2.151300000000049,2.822300000000041,3.7169000000001233,3.919699999999949,4.09719999999993,4.340100000000092]",0,TGVFRG,9,0,9,0,1,,,,,,,,,,,,,,,,,,,,,,,,,,,,,,,,,,,,,,,,,,,,,,,,,,,,,,,,,,,,,,,,,,,,,,,,,,,,,,,,,,,,,,,,,,,
,,,,,,0,0,0,0,1,X V Q F H G B L J M P D K C T S W R N Z,5f5e7de4c81d3672642cd612,20,Mężczyzna,2022-06-11_09h25.52.020,task,2021.1.4,Win32,59.9268892,6299f149e92ead563fba08ef,62a4433fcb93d3badaec54e0,,,,,,,,,,,,,,,,,,,,,,,,,,,,,,,,,,,,,,,,,,,,,,,,,,,,,,,,,,,,,,,,,,,,,,,,,,,,,,,,,,,,,,,,,,,,,,,,,,,,,
,,,,,,1,0,1,0,1,X V Q F H G B L J M P D K C T S W R N Z,5f5e7de4c81d3672642cd612,20,Mężczyzna,2022-06-11_09h25.52.020,task,2021.1.4,Win32,59.9268892,6299f149e92ead563fba08ef,62a4433fcb93d3badaec54e0,,,,,,,,,,,,,,,,,,,,,,,,,,,,,,,,,,,,,,,,,,,,,,,,,,,,,,,,,,,,,,,,,,,,,,,,,,,,,,,,,,,,,,,,,,,,,,,,,,,,,
,,,,,,2,0,2,0,1,X V Q F H G B L J M P D K C T S W R N Z,5f5e7de4c81d3672642cd612,20,Mężczyzna,2022-06-11_09h25.52.020,task,2021.1.4,Win32,59.9268892,6299f149e92ead563fba08ef,62a4433fcb93d3badaec54e0,,,,,,,,,,,,,,,,,,,,,,,,,,,,,,,,,,,,,,,,,,,,,,,,,,,,,,,,,,,,,,,,,,,,,,,,,,,,,,,,,,,,,,,,,,,,,,,,,,,,,
,,,,,,3,0,3,0,1,X V Q F H G B L J M P D K C T S W R N Z,5f5e7de4c81d3672642cd612,20,Mężczyzna,2022-06-11_09h25.52.020,task,2021.1.4,Win32,59.9268892,6299f149e92ead563fba08ef,62a4433fcb93d3badaec54e0,,,,,,,,,,,,,,,,,,,,,,,,,,,,,,,,,,,,,,,,,,,,,,,,,,,,,,,,,,,,,,,,,,,,,,,,,,,,,,,,,,,,,,,,,,,,,,,,,,,,,
,,,,,,4,0,4,0,1,X V Q F H G B L J M P D K C T S W R N Z,5f5e7de4c81d3672642cd612,20,Mężczyzna,2022-06-11_09h25.52.020,task,2021.1.4,Win32,59.9268892,6299f149e92ead563fba08ef,62a4433fcb93d3badaec54e0,,,,,,,,,,,,,,,,,,,,,,,,,,,,,,,,,,,,,,,,,,,,,,,,,,,,,,,,,,,,,,,,,,,,,,,,,,,,,,,,,,,,,,,,,,,,,,,,,,,,,
,,,,,,5,0,5,0,1,X V Q F H G B L J M P D K C T S W R N Z,5f5e7de4c81d3672642cd612,20,Mężczyzna,2022-06-11_09h25.52.020,task,2021.1.4,Win32,59.9268892,6299f149e92ead563fba08ef,62a4433fcb93d3badaec54e0,,,,,,,,,,,,,,,,,,,,,,,,,,,,,,,,,,,,,,,,,,,,,,,,,,,,,,,,,,,,,,,,,,,,,,,,,,,,,,,,,,,,,,,,,,,,,,,,,,,,,
,,,,,,,,,,,,5f5e7de4c81d3672642cd612,20,Mężczyzna,2022-06-11_09h25.52.020,task,2021.1.4,Win32,59.9268892,6299f149e92ead563fba08ef,62a4433fcb93d3badaec54e0,twthxx,"[""t"",""w"",""t"",""h"",""x"",""x""]","[1.5228999999999075,1.7194999999999823,2.097399999999908,2.432099999999849,3.0062999999998112,3.1523999999998864,3.437599999999861]",1,TWTHXX,10,0,10,0,1,,,,,,,,,,,,,,,,,,,,,,,,,,,,,,,,,,,,,,,,,,,,,,,,,,,,,,,,,,,,,,,,,,,,,,,,,,,,,,,,,,,,,,,,,,,
,,,,,,0,0,0,0,1,X V Q F H G B L J M P D K C T S W R N Z,5f5e7de4c81d3672642cd612,20,Mężczyzna,2022-06-11_09h25.52.020,task,2021.1.4,Win32,59.9268892,6299f149e92ead563fba08ef,62a4433fcb93d3badaec54e0,,,,,,,,,,,,,,,,,,,,,,,,,,,,,,,,,,,,,,,,,,,,,,,,,,,,,,,,,,,,,,,,,,,,,,,,,,,,,,,,,,,,,,,,,,,,,,,,,,,,,
,,,,,,1,0,1,0,1,X V Q F H G B L J M P D K C T S W R N Z,5f5e7de4c81d3672642cd612,20,Mężczyzna,2022-06-11_09h25.52.020,task,2021.1.4,Win32,59.9268892,6299f149e92ead563fba08ef,62a4433fcb93d3badaec54e0,,,,,,,,,,,,,,,,,,,,,,,,,,,,,,,,,,,,,,,,,,,,,,,,,,,,,,,,,,,,,,,,,,,,,,,,,,,,,,,,,,,,,,,,,,,,,,,,,,,,,
,,,,,,2,0,2,0,1,X V Q F H G B L J M P D K C T S W R N Z,5f5e7de4c81d3672642cd612,20,Mężczyzna,2022-06-11_09h25.52.020,task,2021.1.4,Win32,59.9268892,6299f149e92ead563fba08ef,62a4433fcb93d3badaec54e0,,,,,,,,,,,,,,,,,,,,,,,,,,,,,,,,,,,,,,,,,,,,,,,,,,,,,,,,,,,,,,,,,,,,,,,,,,,,,,,,,,,,,,,,,,,,,,,,,,,,,
,,,,,,3,0,3,0,1,X V Q F H G B L J M P D K C T S W R N Z,5f5e7de4c81d3672642cd612,20,Mężczyzna,2022-06-11_09h25.52.020,task,2021.1.4,Win32,59.9268892,6299f149e92ead563fba08ef,62a4433fcb93d3badaec54e0,,,,,,,,,,,,,,,,,,,,,,,,,,,,,,,,,,,,,,,,,,,,,,,,,,,,,,,,,,,,,,,,,,,,,,,,,,,,,,,,,,,,,,,,,,,,,,,,,,,,,
,,,,,,4,0,4,0,1,X V Q F H G B L J M P D K C T S W R N Z,5f5e7de4c81d3672642cd612,20,Mężczyzna,2022-06-11_09h25.52.020,task,2021.1.4,Win32,59.9268892,6299f149e92ead563fba08ef,62a4433fcb93d3badaec54e0,,,,,,,,,,,,,,,,,,,,,,,,,,,,,,,,,,,,,,,,,,,,,,,,,,,,,,,,,,,,,,,,,,,,,,,,,,,,,,,,,,,,,,,,,,,,,,,,,,,,,
,,,,,,5,0,5,0,1,X V Q F H G B L J M P D K C T S W R N Z,5f5e7de4c81d3672642cd612,20,Mężczyzna,2022-06-11_09h25.52.020,task,2021.1.4,Win32,59.9268892,6299f149e92ead563fba08ef,62a4433fcb93d3badaec54e0,,,,,,,,,,,,,,,,,,,,,,,,,,,,,,,,,,,,,,,,,,,,,,,,,,,,,,,,,,,,,,,,,,,,,,,,,,,,,,,,,,,,,,,,,,,,,,,,,,,,,
,,,,,,6,0,6,0,1,X V Q F H G B L J M P D K C T S W R N Z,5f5e7de4c81d3672642cd612,20,Mężczyzna,2022-06-11_09h25.52.020,task,2021.1.4,Win32,59.9268892,6299f149e92ead563fba08ef,62a4433fcb93d3badaec54e0,,,,,,,,,,,,,,,,,,,,,,,,,,,,,,,,,,,,,,,,,,,,,,,,,,,,,,,,,,,,,,,,,,,,,,,,,,,,,,,,,,,,,,,,,,,,,,,,,,,,,
,,,,,,,,,,,,5f5e7de4c81d3672642cd612,20,Mężczyzna,2022-06-11_09h25.52.020,task,2021.1.4,Win32,59.9268892,6299f149e92ead563fba08ef,62a4433fcb93d3badaec54e0,hzdhdff,"[""h"",""z"",""d"",""h"",""d"",""f"",""f""]","[1.1539999999999964,1.5209999999999866,1.766199999999941,2.091899999999896,2.3283000000000413,2.501300000000043,2.652100000000104,2.9493000000000507]",1,HZDHDFF,11,0,11,0,1,,,,,,,,,,,,,,,,,,,,,,,,,,,,,,,,,,,,,,,,,,,,,,,,,,,,,,,,,,,,,,,,,,,,,,,,,,,,,,,,,,,,,,,,,,,
,,,,,,0,0,0,0,1,X V Q F H G B L J M P D K C T S W R N Z,5f5e7de4c81d3672642cd612,20,Mężczyzna,2022-06-11_09h25.52.020,task,2021.1.4,Win32,59.9268892,6299f149e92ead563fba08ef,62a4433fcb93d3badaec54e0,,,,,,,,,,,,,,,,,,,,,,,,,,,,,,,,,,,,,,,,,,,,,,,,,,,,,,,,,,,,,,,,,,,,,,,,,,,,,,,,,,,,,,,,,,,,,,,,,,,,,
,,,,,,1,0,1,0,1,X V Q F H G B L J M P D K C T S W R N Z,5f5e7de4c81d3672642cd612,20,Mężczyzna,2022-06-11_09h25.52.020,task,2021.1.4,Win32,59.9268892,6299f149e92ead563fba08ef,62a4433fcb93d3badaec54e0,,,,,,,,,,,,,,,,,,,,,,,,,,,,,,,,,,,,,,,,,,,,,,,,,,,,,,,,,,,,,,,,,,,,,,,,,,,,,,,,,,,,,,,,,,,,,,,,,,,,,
,,,,,,2,0,2,0,1,X V Q F H G B L J M P D K C T S W R N Z,5f5e7de4c81d3672642cd612,20,Mężczyzna,2022-06-11_09h25.52.020,task,2021.1.4,Win32,59.9268892,6299f149e92ead563fba08ef,62a4433fcb93d3badaec54e0,,,,,,,,,,,,,,,,,,,,,,,,,,,,,,,,,,,,,,,,,,,,,,,,,,,,,,,,,,,,,,,,,,,,,,,,,,,,,,,,,,,,,,,,,,,,,,,,,,,,,
,,,,,,3,0,3,0,1,X V Q F H G B L J M P D K C T S W R N Z,5f5e7de4c81d3672642cd612,20,Mężczyzna,2022-06-11_09h25.52.020,task,2021.1.4,Win32,59.9268892,6299f149e92ead563fba08ef,62a4433fcb93d3badaec54e0,,,,,,,,,,,,,,,,,,,,,,,,,,,,,,,,,,,,,,,,,,,,,,,,,,,,,,,,,,,,,,,,,,,,,,,,,,,,,,,,,,,,,,,,,,,,,,,,,,,,,
,,,,,,4,0,4,0,1,X V Q F H G B L J M P D K C T S W R N Z,5f5e7de4c81d3672642cd612,20,Mężczyzna,2022-06-11_09h25.52.020,task,2021.1.4,Win32,59.9268892,6299f149e92ead563fba08ef,62a4433fcb93d3badaec54e0,,,,,,,,,,,,,,,,,,,,,,,,,,,,,,,,,,,,,,,,,,,,,,,,,,,,,,,,,,,,,,,,,,,,,,,,,,,,,,,,,,,,,,,,,,,,,,,,,,,,,
,,,,,,5,0,5,0,1,X V Q F H G B L J M P D K C T S W R N Z,5f5e7de4c81d3672642cd612,20,Mężczyzna,2022-06-11_09h25.52.020,task,2021.1.4,Win32,59.9268892,6299f149e92ead563fba08ef,62a4433fcb93d3badaec54e0,,,,,,,,,,,,,,,,,,,,,,,,,,,,,,,,,,,,,,,,,,,,,,,,,,,,,,,,,,,,,,,,,,,,,,,,,,,,,,,,,,,,,,,,,,,,,,,,,,,,,
,,,,,,6,0,6,0,1,X V Q F H G B L J M P D K C T S W R N Z,5f5e7de4c81d3672642cd612,20,Mężczyzna,2022-06-11_09h25.52.020,task,2021.1.4,Win32,59.9268892,6299f149e92ead563fba08ef,62a4433fcb93d3badaec54e0,,,,,,,,,,,,,,,,,,,,,,,,,,,,,,,,,,,,,,,,,,,,,,,,,,,,,,,,,,,,,,,,,,,,,,,,,,,,,,,,,,,,,,,,,,,,,,,,,,,,,
,,,,,,,,,,,,5f5e7de4c81d3672642cd612,20,Mężczyzna,2022-06-11_09h25.52.020,task,2021.1.4,Win32,59.9268892,6299f149e92ead563fba08ef,62a4433fcb93d3badaec54e0,swkhdjj,"[""s"",""w"",""k"",""h"",""d"",""j"",""j""]","[1.9438999999998998,2.998699999999957,4.1556999999999675,4.391800000000046,4.575699999999955,4.703499999999991,5.145699999999948,5.938599999999866]",0,SWKHDJD,12,0,12,0,1,,,,,,,,,,,,,,,,,,,,,,,,,,,,,,,,,,,,,,,,,,,,,,,,,,,,,,,,,,,,,,,,,,,,,,,,,,,,,,,,,,,,,,,,,,,
,,,,,,0,0,0,0,1,X V Q F H G B L J M P D K C T S W R N Z,5f5e7de4c81d3672642cd612,20,Mężczyzna,2022-06-11_09h25.52.020,task,2021.1.4,Win32,59.9268892,6299f149e92ead563fba08ef,62a4433fcb93d3badaec54e0,,,,,,,,,,,,,,,,,,,,,,,,,,,,,,,,,,,,,,,,,,,,,,,,,,,,,,,,,,,,,,,,,,,,,,,,,,,,,,,,,,,,,,,,,,,,,,,,,,,,,
,,,,,,1,0,1,0,1,X V Q F H G B L J M P D K C T S W R N Z,5f5e7de4c81d3672642cd612,20,Mężczyzna,2022-06-11_09h25.52.020,task,2021.1.4,Win32,59.9268892,6299f149e92ead563fba08ef,62a4433fcb93d3badaec54e0,,,,,,,,,,,,,,,,,,,,,,,,,,,,,,,,,,,,,,,,,,,,,,,,,,,,,,,,,,,,,,,,,,,,,,,,,,,,,,,,,,,,,,,,,,,,,,,,,,,,,
,,,,,,2,0,2,0,1,X V Q F H G B L J M P D K C T S W R N Z,5f5e7de4c81d3672642cd612,20,Mężczyzna,2022-06-11_09h25.52.020,task,2021.1.4,Win32,59.9268892,6299f149e92ead563fba08ef,62a4433fcb93d3badaec54e0,,,,,,,,,,,,,,,,,,,,,,,,,,,,,,,,,,,,,,,,,,,,,,,,,,,,,,,,,,,,,,,,,,,,,,,,,,,,,,,,,,,,,,,,,,,,,,,,,,,,,
,,,,,,3,0,3,0,1,X V Q F H G B L J M P D K C T S W R N Z,5f5e7de4c81d3672642cd612,20,Mężczyzna,2022-06-11_09h25.52.020,task,2021.1.4,Win32,59.9268892,6299f149e92ead563fba08ef,62a4433fcb93d3badaec54e0,,,,,,,,,,,,,,,,,,,,,,,,,,,,,,,,,,,,,,,,,,,,,,,,,,,,,,,,,,,,,,,,,,,,,,,,,,,,,,,,,,,,,,,,,,,,,,,,,,,,,
,,,,,,4,0,4,0,1,X V Q F H G B L J M P D K C T S W R N Z,5f5e7de4c81d3672642cd612,20,Mężczyzna,2022-06-11_09h25.52.020,task,2021.1.4,Win32,59.9268892,6299f149e92ead563fba08ef,62a4433fcb93d3badaec54e0,,,,,,,,,,,,,,,,,,,,,,,,,,,,,,,,,,,,,,,,,,,,,,,,,,,,,,,,,,,,,,,,,,,,,,,,,,,,,,,,,,,,,,,,,,,,,,,,,,,,,
,,,,,,5,0,5,0,1,X V Q F H G B L J M P D K C T S W R N Z,5f5e7de4c81d3672642cd612,20,Mężczyzna,2022-06-11_09h25.52.020,task,2021.1.4,Win32,59.9268892,6299f149e92ead563fba08ef,62a4433fcb93d3badaec54e0,,,,,,,,,,,,,,,,,,,,,,,,,,,,,,,,,,,,,,,,,,,,,,,,,,,,,,,,,,,,,,,,,,,,,,,,,,,,,,,,,,,,,,,,,,,,,,,,,,,,,
,,,,,,6,0,6,0,1,X V Q F H G B L J M P D K C T S W R N Z,5f5e7de4c81d3672642cd612,20,Mężczyzna,2022-06-11_09h25.52.020,task,2021.1.4,Win32,59.9268892,6299f149e92ead563fba08ef,62a4433fcb93d3badaec54e0,,,,,,,,,,,,,,,,,,,,,,,,,,,,,,,,,,,,,,,,,,,,,,,,,,,,,,,,,,,,,,,,,,,,,,,,,,,,,,,,,,,,,,,,,,,,,,,,,,,,,
,,,,,,,,,,,,5f5e7de4c81d3672642cd612,20,Mężczyzna,2022-06-11_09h25.52.020,task,2021.1.4,Win32,59.9268892,6299f149e92ead563fba08ef,62a4433fcb93d3badaec54e0,hbppzlg,"[""h"",""b"",""p"",""p"",""z"",""l"",""g""]","[1.657699999999977,1.911600000000135,2.155300000000068,2.34030000000007,2.592199999999991,2.7874000000001615,3.0474000000001524,3.308800000000076]",1,HBPPZLG,13,0,13,0,1,,,,,,,,,,,,,,,,,,,,,,,,,,,,,,,,,,,,,,,,,,,,,,,,,,,,,,,,,,,,,,,,,,,,,,,,,,,,,,,,,,,,,,,,,,,
,,,,,,0,0,0,0,1,X V Q F H G B L J M P D K C T S W R N Z,5f5e7de4c81d3672642cd612,20,Mężczyzna,2022-06-11_09h25.52.020,task,2021.1.4,Win32,59.9268892,6299f149e92ead563fba08ef,62a4433fcb93d3badaec54e0,,,,,,,,,,,,,,,,,,,,,,,,,,,,,,,,,,,,,,,,,,,,,,,,,,,,,,,,,,,,,,,,,,,,,,,,,,,,,,,,,,,,,,,,,,,,,,,,,,,,,
,,,,,,1,0,1,0,1,X V Q F H G B L J M P D K C T S W R N Z,5f5e7de4c81d3672642cd612,20,Mężczyzna,2022-06-11_09h25.52.020,task,2021.1.4,Win32,59.9268892,6299f149e92ead563fba08ef,62a4433fcb93d3badaec54e0,,,,,,,,,,,,,,,,,,,,,,,,,,,,,,,,,,,,,,,,,,,,,,,,,,,,,,,,,,,,,,,,,,,,,,,,,,,,,,,,,,,,,,,,,,,,,,,,,,,,,
,,,,,,2,0,2,0,1,X V Q F H G B L J M P D K C T S W R N Z,5f5e7de4c81d3672642cd612,20,Mężczyzna,2022-06-11_09h25.52.020,task,2021.1.4,Win32,59.9268892,6299f149e92ead563fba08ef,62a4433fcb93d3badaec54e0,,,,,,,,,,,,,,,,,,,,,,,,,,,,,,,,,,,,,,,,,,,,,,,,,,,,,,,,,,,,,,,,,,,,,,,,,,,,,,,,,,,,,,,,,,,,,,,,,,,,,
,,,,,,3,0,3,0,1,X V Q F H G B L J M P D K C T S W R N Z,5f5e7de4c81d3672642cd612,20,Mężczyzna,2022-06-11_09h25.52.020,task,2021.1.4,Win32,59.9268892,6299f149e92ead563fba08ef,62a4433fcb93d3badaec54e0,,,,,,,,,,,,,,,,,,,,,,,,,,,,,,,,,,,,,,,,,,,,,,,,,,,,,,,,,,,,,,,,,,,,,,,,,,,,,,,,,,,,,,,,,,,,,,,,,,,,,
,,,,,,4,0,4,0,1,X V Q F H G B L J M P D K C T S W R N Z,5f5e7de4c81d3672642cd612,20,Mężczyzna,2022-06-11_09h25.52.020,task,2021.1.4,Win32,59.9268892,6299f149e92ead563fba08ef,62a4433fcb93d3badaec54e0,,,,,,,,,,,,,,,,,,,,,,,,,,,,,,,,,,,,,,,,,,,,,,,,,,,,,,,,,,,,,,,,,,,,,,,,,,,,,,,,,,,,,,,,,,,,,,,,,,,,,
,,,,,,5,0,5,0,1,X V Q F H G B L J M P D K C T S W R N Z,5f5e7de4c81d3672642cd612,20,Mężczyzna,2022-06-11_09h25.52.020,task,2021.1.4,Win32,59.9268892,6299f149e92ead563fba08ef,62a4433fcb93d3badaec54e0,,,,,,,,,,,,,,,,,,,,,,,,,,,,,,,,,,,,,,,,,,,,,,,,,,,,,,,,,,,,,,,,,,,,,,,,,,,,,,,,,,,,,,,,,,,,,,,,,,,,,
,,,,,,6,0,6,0,1,X V Q F H G B L J M P D K C T S W R N Z,5f5e7de4c81d3672642cd612,20,Mężczyzna,2022-06-11_09h25.52.020,task,2021.1.4,Win32,59.9268892,6299f149e92ead563fba08ef,62a4433fcb93d3badaec54e0,,,,,,,,,,,,,,,,,,,,,,,,,,,,,,,,,,,,,,,,,,,,,,,,,,,,,,,,,,,,,,,,,,,,,,,,,,,,,,,,,,,,,,,,,,,,,,,,,,,,,
,,,,,,7,0,7,0,1,X V Q F H G B L J M P D K C T S W R N Z,5f5e7de4c81d3672642cd612,20,Mężczyzna,2022-06-11_09h25.52.020,task,2021.1.4,Win32,59.9268892,6299f149e92ead563fba08ef,62a4433fcb93d3badaec54e0,,,,,,,,,,,,,,,,,,,,,,,,,,,,,,,,,,,,,,,,,,,,,,,,,,,,,,,,,,,,,,,,,,,,,,,,,,,,,,,,,,,,,,,,,,,,,,,,,,,,,
,,,,,,,,,,,,5f5e7de4c81d3672642cd612,20,Mężczyzna,2022-06-11_09h25.52.020,task,2021.1.4,Win32,59.9268892,6299f149e92ead563fba08ef,62a4433fcb93d3badaec54e0,nszmwtz,"[""n"",""s"",""z"",""m"",""w"",""t"",""z""]","[1.6373999999999,1.7801999999999794,2.1393000000000484,2.4651999999999816,2.8176999999999452,3.390199999999993,3.7793000000000916,3.9371999999999616]",0,NSZMWTNZ,14,0,14,0,1,,,,,,,,,,,,,,,,,,,,,,,,,,,,,,,,,,,,,,,,,,,,,,,,,,,,,,,,,,,,,,,,,,,,,,,,,,,,,,,,,,,,,,,,,,,
,,,,,,0,0,0,0,1,X V Q F H G B L J M P D K C T S W R N Z,5f5e7de4c81d3672642cd612,20,Mężczyzna,2022-06-11_09h25.52.020,task,2021.1.4,Win32,59.9268892,6299f149e92ead563fba08ef,62a4433fcb93d3badaec54e0,,,,,,,,,,,,,,,,,,,,,,,,,,,,,,,,,,,,,,,,,,,,,,,,,,,,,,,,,,,,,,,,,,,,,,,,,,,,,,,,,,,,,,,,,,,,,,,,,,,,,
,,,,,,1,0,1,0,1,X V Q F H G B L J M P D K C T S W R N Z,5f5e7de4c81d3672642cd612,20,Mężczyzna,2022-06-11_09h25.52.020,task,2021.1.4,Win32,59.9268892,6299f149e92ead563fba08ef,62a4433fcb93d3badaec54e0,,,,,,,,,,,,,,,,,,,,,,,,,,,,,,,,,,,,,,,,,,,,,,,,,,,,,,,,,,,,,,,,,,,,,,,,,,,,,,,,,,,,,,,,,,,,,,,,,,,,,
,,,,,,2,0,2,0,1,X V Q F H G B L J M P D K C T S W R N Z,5f5e7de4c81d3672642cd612,20,Mężczyzna,2022-06-11_09h25.52.020,task,2021.1.4,Win32,59.9268892,6299f149e92ead563fba08ef,62a4433fcb93d3badaec54e0,,,,,,,,,,,,,,,,,,,,,,,,,,,,,,,,,,,,,,,,,,,,,,,,,,,,,,,,,,,,,,,,,,,,,,,,,,,,,,,,,,,,,,,,,,,,,,,,,,,,,
,,,,,,3,0,3,0,1,X V Q F H G B L J M P D K C T S W R N Z,5f5e7de4c81d3672642cd612,20,Mężczyzna,2022-06-11_09h25.52.020,task,2021.1.4,Win32,59.9268892,6299f149e92ead563fba08ef,62a4433fcb93d3badaec54e0,,,,,,,,,,,,,,,,,,,,,,,,,,,,,,,,,,,,,,,,,,,,,,,,,,,,,,,,,,,,,,,,,,,,,,,,,,,,,,,,,,,,,,,,,,,,,,,,,,,,,
,,,,,,4,0,4,0,1,X V Q F H G B L J M P D K C T S W R N Z,5f5e7de4c81d3672642cd612,20,Mężczyzna,2022-06-11_09h25.52.020,task,2021.1.4,Win32,59.9268892,6299f149e92ead563fba08ef,62a4433fcb93d3badaec54e0,,,,,,,,,,,,,,,,,,,,,,,,,,,,,,,,,,,,,,,,,,,,,,,,,,,,,,,,,,,,,,,,,,,,,,,,,,,,,,,,,,,,,,,,,,,,,,,,,,,,,
,,,,,,5,0,5,0,1,X V Q F H G B L J M P D K C T S W R N Z,5f5e7de4c81d3672642cd612,20,Mężczyzna,2022-06-11_09h25.52.020,task,2021.1.4,Win32,59.9268892,6299f149e92ead563fba08ef,62a4433fcb93d3badaec54e0,,,,,,,,,,,,,,,,,,,,,,,,,,,,,,,,,,,,,,,,,,,,,,,,,,,,,,,,,,,,,,,,,,,,,,,,,,,,,,,,,,,,,,,,,,,,,,,,,,,,,
,,,,,,6,0,6,0,1,X V Q F H G B L J M P D K C T S W R N Z,5f5e7de4c81d3672642cd612,20,Mężczyzna,2022-06-11_09h25.52.020,task,2021.1.4,Win32,59.9268892,6299f149e92ead563fba08ef,62a4433fcb93d3badaec54e0,,,,,,,,,,,,,,,,,,,,,,,,,,,,,,,,,,,,,,,,,,,,,,,,,,,,,,,,,,,,,,,,,,,,,,,,,,,,,,,,,,,,,,,,,,,,,,,,,,,,,
,,,,,,7,0,7,0,1,X V Q F H G B L J M P D K C T S W R N Z,5f5e7de4c81d3672642cd612,20,Mężczyzna,2022-06-11_09h25.52.020,task,2021.1.4,Win32,59.9268892,6299f149e92ead563fba08ef,62a4433fcb93d3badaec54e0,,,,,,,,,,,,,,,,,,,,,,,,,,,,,,,,,,,,,,,,,,,,,,,,,,,,,,,,,,,,,,,,,,,,,,,,,,,,,,,,,,,,,,,,,,,,,,,,,,,,,
,,,,,,,,,,,,5f5e7de4c81d3672642cd612,20,Mężczyzna,2022-06-11_09h25.52.020,task,2021.1.4,Win32,59.9268892,6299f149e92ead563fba08ef,62a4433fcb93d3badaec54e0,xvztzwq,"[""x"",""v"",""z"",""t"",""z"",""w"",""q""]","[2.0525999999998703,2.317199999999957,2.5926999999999794,3.018899999999917,4.247800000000041,4.566899999999919,5.381699999999967,5.709599999999853]",0,XVZTVWJQ,15,0,15,0,1,,,,,,,,,,,,,,,,,,,,,,,,,,,,,,,,,,,,,,,,,,,,,,,,,,,,,,,,,,,,,,,,,,,,,,,,,,,,,,,,,,,,,,,,,,,
,,,,,,0,0,0,0,1,X V Q F H G B L J M P D K C T S W R N Z,5f5e7de4c81d3672642cd612,20,Mężczyzna,2022-06-11_09h25.52.020,task,2021.1.4,Win32,59.9268892,6299f149e92ead563fba08ef,62a4433fcb93d3badaec54e0,,,,,,,,,,,,,,,,,,,,,,,,,,,,,,,,,,,,,,,,,,,,,,,,,,,,,,,,,,,,,,,,,,,,,,,,,,,,,,,,,,,,,,,,,,,,,,,,,,,,,
,,,,,,1,0,1,0,1,X V Q F H G B L J M P D K C T S W R N Z,5f5e7de4c81d3672642cd612,20,Mężczyzna,2022-06-11_09h25.52.020,task,2021.1.4,Win32,59.9268892,6299f149e92ead563fba08ef,62a4433fcb93d3badaec54e0,,,,,,,,,,,,,,,,,,,,,,,,,,,,,,,,,,,,,,,,,,,,,,,,,,,,,,,,,,,,,,,,,,,,,,,,,,,,,,,,,,,,,,,,,,,,,,,,,,,,,
,,,,,,2,0,2,0,1,X V Q F H G B L J M P D K C T S W R N Z,5f5e7de4c81d3672642cd612,20,Mężczyzna,2022-06-11_09h25.52.020,task,2021.1.4,Win32,59.9268892,6299f149e92ead563fba08ef,62a4433fcb93d3badaec54e0,,,,,,,,,,,,,,,,,,,,,,,,,,,,,,,,,,,,,,,,,,,,,,,,,,,,,,,,,,,,,,,,,,,,,,,,,,,,,,,,,,,,,,,,,,,,,,,,,,,,,
,,,,,,3,0,3,0,1,X V Q F H G B L J M P D K C T S W R N Z,5f5e7de4c81d3672642cd612,20,Mężczyzna,2022-06-11_09h25.52.020,task,2021.1.4,Win32,59.9268892,6299f149e92ead563fba08ef,62a4433fcb93d3badaec54e0,,,,,,,,,,,,,,,,,,,,,,,,,,,,,,,,,,,,,,,,,,,,,,,,,,,,,,,,,,,,,,,,,,,,,,,,,,,,,,,,,,,,,,,,,,,,,,,,,,,,,
,,,,,,4,0,4,0,1,X V Q F H G B L J M P D K C T S W R N Z,5f5e7de4c81d3672642cd612,20,Mężczyzna,2022-06-11_09h25.52.020,task,2021.1.4,Win32,59.9268892,6299f149e92ead563fba08ef,62a4433fcb93d3badaec54e0,,,,,,,,,,,,,,,,,,,,,,,,,,,,,,,,,,,,,,,,,,,,,,,,,,,,,,,,,,,,,,,,,,,,,,,,,,,,,,,,,,,,,,,,,,,,,,,,,,,,,
,,,,,,5,0,5,0,1,X V Q F H G B L J M P D K C T S W R N Z,5f5e7de4c81d3672642cd612,20,Mężczyzna,2022-06-11_09h25.52.020,task,2021.1.4,Win32,59.9268892,6299f149e92ead563fba08ef,62a4433fcb93d3badaec54e0,,,,,,,,,,,,,,,,,,,,,,,,,,,,,,,,,,,,,,,,,,,,,,,,,,,,,,,,,,,,,,,,,,,,,,,,,,,,,,,,,,,,,,,,,,,,,,,,,,,,,
,,,,,,6,0,6,0,1,X V Q F H G B L J M P D K C T S W R N Z,5f5e7de4c81d3672642cd612,20,Mężczyzna,2022-06-11_09h25.52.020,task,2021.1.4,Win32,59.9268892,6299f149e92ead563fba08ef,62a4433fcb93d3badaec54e0,,,,,,,,,,,,,,,,,,,,,,,,,,,,,,,,,,,,,,,,,,,,,,,,,,,,,,,,,,,,,,,,,,,,,,,,,,,,,,,,,,,,,,,,,,,,,,,,,,,,,
,,,,,,7,0,7,0,1,X V Q F H G B L J M P D K C T S W R N Z,5f5e7de4c81d3672642cd612,20,Mężczyzna,2022-06-11_09h25.52.020,task,2021.1.4,Win32,59.9268892,6299f149e92ead563fba08ef,62a4433fcb93d3badaec54e0,,,,,,,,,,,,,,,,,,,,,,,,,,,,,,,,,,,,,,,,,,,,,,,,,,,,,,,,,,,,,,,,,,,,,,,,,,,,,,,,,,,,,,,,,,,,,,,,,,,,,
,,,,,,,,,,,,5f5e7de4c81d3672642cd612,20,Mężczyzna,2022-06-11_09h25.52.020,task,2021.1.4,Win32,59.9268892,6299f149e92ead563fba08ef,62a4433fcb93d3badaec54e0,fxnnqvwq,"[""f"",""x"",""n"",""n"",""q"",""v"",""w"",""q""]","[2.041999999999973,2.3069000000000983,2.5728000000000293,2.7414999999999736,2.991300000000024,3.505999999999972,4.448100000000068,4.507800000000032,4.934200000000146]",1,FXNNQVWQ,16,0,16,0,1,,,,,,,,,,,,,,,,,,,,,,,,,,,,,,,,,,,,,,,,,,,,,,,,,,,,,,,,,,,,,,,,,,,,,,,,,,,,,,,,,,,,,,,,,,,
,,,,,,0,0,0,0,1,X V Q F H G B L J M P D K C T S W R N Z,5f5e7de4c81d3672642cd612,20,Mężczyzna,2022-06-11_09h25.52.020,task,2021.1.4,Win32,59.9268892,6299f149e92ead563fba08ef,62a4433fcb93d3badaec54e0,,,,,,,,,,,,,,,,,,,,,,,,,,,,,,,,,,,,,,,,,,,,,,,,,,,,,,,,,,,,,,,,,,,,,,,,,,,,,,,,,,,,,,,,,,,,,,,,,,,,,
,,,,,,1,0,1,0,1,X V Q F H G B L J M P D K C T S W R N Z,5f5e7de4c81d3672642cd612,20,Mężczyzna,2022-06-11_09h25.52.020,task,2021.1.4,Win32,59.9268892,6299f149e92ead563fba08ef,62a4433fcb93d3badaec54e0,,,,,,,,,,,,,,,,,,,,,,,,,,,,,,,,,,,,,,,,,,,,,,,,,,,,,,,,,,,,,,,,,,,,,,,,,,,,,,,,,,,,,,,,,,,,,,,,,,,,,
,,,,,,2,0,2,0,1,X V Q F H G B L J M P D K C T S W R N Z,5f5e7de4c81d3672642cd612,20,Mężczyzna,2022-06-11_09h25.52.020,task,2021.1.4,Win32,59.9268892,6299f149e92ead563fba08ef,62a4433fcb93d3badaec54e0,,,,,,,,,,,,,,,,,,,,,,,,,,,,,,,,,,,,,,,,,,,,,,,,,,,,,,,,,,,,,,,,,,,,,,,,,,,,,,,,,,,,,,,,,,,,,,,,,,,,,
,,,,,,3,0,3,0,1,X V Q F H G B L J M P D K C T S W R N Z,5f5e7de4c81d3672642cd612,20,Mężczyzna,2022-06-11_09h25.52.020,task,2021.1.4,Win32,59.9268892,6299f149e92ead563fba08ef,62a4433fcb93d3badaec54e0,,,,,,,,,,,,,,,,,,,,,,,,,,,,,,,,,,,,,,,,,,,,,,,,,,,,,,,,,,,,,,,,,,,,,,,,,,,,,,,,,,,,,,,,,,,,,,,,,,,,,
,,,,,,4,0,4,0,1,X V Q F H G B L J M P D K C T S W R N Z,5f5e7de4c81d3672642cd612,20,Mężczyzna,2022-06-11_09h25.52.020,task,2021.1.4,Win32,59.9268892,6299f149e92ead563fba08ef,62a4433fcb93d3badaec54e0,,,,,,,,,,,,,,,,,,,,,,,,,,,,,,,,,,,,,,,,,,,,,,,,,,,,,,,,,,,,,,,,,,,,,,,,,,,,,,,,,,,,,,,,,,,,,,,,,,,,,
,,,,,,5,0,5,0,1,X V Q F H G B L J M P D K C T S W R N Z,5f5e7de4c81d3672642cd612,20,Mężczyzna,2022-06-11_09h25.52.020,task,2021.1.4,Win32,59.9268892,6299f149e92ead563fba08ef,62a4433fcb93d3badaec54e0,,,,,,,,,,,,,,,,,,,,,,,,,,,,,,,,,,,,,,,,,,,,,,,,,,,,,,,,,,,,,,,,,,,,,,,,,,,,,,,,,,,,,,,,,,,,,,,,,,,,,
,,,,,,6,0,6,0,1,X V Q F H G B L J M P D K C T S W R N Z,5f5e7de4c81d3672642cd612,20,Mężczyzna,2022-06-11_09h25.52.020,task,2021.1.4,Win32,59.9268892,6299f149e92ead563fba08ef,62a4433fcb93d3badaec54e0,,,,,,,,,,,,,,,,,,,,,,,,,,,,,,,,,,,,,,,,,,,,,,,,,,,,,,,,,,,,,,,,,,,,,,,,,,,,,,,,,,,,,,,,,,,,,,,,,,,,,
,,,,,,7,0,7,0,1,X V Q F H G B L J M P D K C T S W R N Z,5f5e7de4c81d3672642cd612,20,Mężczyzna,2022-06-11_09h25.52.020,task,2021.1.4,Win32,59.9268892,6299f149e92ead563fba08ef,62a4433fcb93d3badaec54e0,,,,,,,,,,,,,,,,,,,,,,,,,,,,,,,,,,,,,,,,,,,,,,,,,,,,,,,,,,,,,,,,,,,,,,,,,,,,,,,,,,,,,,,,,,,,,,,,,,,,,
,,,,,,,,,,,,5f5e7de4c81d3672642cd612,20,Mężczyzna,2022-06-11_09h25.52.020,task,2021.1.4,Win32,59.9268892,6299f149e92ead563fba08ef,62a4433fcb93d3badaec54e0,hkxmtnnk,"[""h"",""k"",""x"",""m"",""t"",""n"",""n"",""k""]","[1.6861999999999284,1.8703999999999041,2.176300000000026,2.495999999999981,2.8361000000000445,3.2121000000000777,4.086199999999906,4.332300000000032,4.5371999999999275]",1,HKXMTNNK,17,0,17,0,1,,,,,,,,,,,,,,,,,,,,,,,,,,,,,,,,,,,,,,,,,,,,,,,,,,,,,,,,,,,,,,,,,,,,,,,,,,,,,,,,,,,,,,,,,,,
,,,,,,0,0,0,0,1,X V Q F H G B L J M P D K C T S W R N Z,5f5e7de4c81d3672642cd612,20,Mężczyzna,2022-06-11_09h25.52.020,task,2021.1.4,Win32,59.9268892,6299f149e92ead563fba08ef,62a4433fcb93d3badaec54e0,,,,,,,,,,,,,,,,,,,,,,,,,,,,,,,,,,,,,,,,,,,,,,,,,,,,,,,,,,,,,,,,,,,,,,,,,,,,,,,,,,,,,,,,,,,,,,,,,,,,,
,,,,,,1,0,1,0,1,X V Q F H G B L J M P D K C T S W R N Z,5f5e7de4c81d3672642cd612,20,Mężczyzna,2022-06-11_09h25.52.020,task,2021.1.4,Win32,59.9268892,6299f149e92ead563fba08ef,62a4433fcb93d3badaec54e0,,,,,,,,,,,,,,,,,,,,,,,,,,,,,,,,,,,,,,,,,,,,,,,,,,,,,,,,,,,,,,,,,,,,,,,,,,,,,,,,,,,,,,,,,,,,,,,,,,,,,
,,,,,,2,0,2,0,1,X V Q F H G B L J M P D K C T S W R N Z,5f5e7de4c81d3672642cd612,20,Mężczyzna,2022-06-11_09h25.52.020,task,2021.1.4,Win32,59.9268892,6299f149e92ead563fba08ef,62a4433fcb93d3badaec54e0,,,,,,,,,,,,,,,,,,,,,,,,,,,,,,,,,,,,,,,,,,,,,,,,,,,,,,,,,,,,,,,,,,,,,,,,,,,,,,,,,,,,,,,,,,,,,,,,,,,,,
,,,,,,3,0,3,0,1,X V Q F H G B L J M P D K C T S W R N Z,5f5e7de4c81d3672642cd612,20,Mężczyzna,2022-06-11_09h25.52.020,task,2021.1.4,Win32,59.9268892,6299f149e92ead563fba08ef,62a4433fcb93d3badaec54e0,,,,,,,,,,,,,,,,,,,,,,,,,,,,,,,,,,,,,,,,,,,,,,,,,,,,,,,,,,,,,,,,,,,,,,,,,,,,,,,,,,,,,,,,,,,,,,,,,,,,,
,,,,,,4,0,4,0,1,X V Q F H G B L J M P D K C T S W R N Z,5f5e7de4c81d3672642cd612,20,Mężczyzna,2022-06-11_09h25.52.020,task,2021.1.4,Win32,59.9268892,6299f149e92ead563fba08ef,62a4433fcb93d3badaec54e0,,,,,,,,,,,,,,,,,,,,,,,,,,,,,,,,,,,,,,,,,,,,,,,,,,,,,,,,,,,,,,,,,,,,,,,,,,,,,,,,,,,,,,,,,,,,,,,,,,,,,
,,,,,,5,0,5,0,1,X V Q F H G B L J M P D K C T S W R N Z,5f5e7de4c81d3672642cd612,20,Mężczyzna,2022-06-11_09h25.52.020,task,2021.1.4,Win32,59.9268892,6299f149e92ead563fba08ef,62a4433fcb93d3badaec54e0,,,,,,,,,,,,,,,,,,,,,,,,,,,,,,,,,,,,,,,,,,,,,,,,,,,,,,,,,,,,,,,,,,,,,,,,,,,,,,,,,,,,,,,,,,,,,,,,,,,,,
,,,,,,6,0,6,0,1,X V Q F H G B L J M P D K C T S W R N Z,5f5e7de4c81d3672642cd612,20,Mężczyzna,2022-06-11_09h25.52.020,task,2021.1.4,Win32,59.9268892,6299f149e92ead563fba08ef,62a4433fcb93d3badaec54e0,,,,,,,,,,,,,,,,,,,,,,,,,,,,,,,,,,,,,,,,,,,,,,,,,,,,,,,,,,,,,,,,,,,,,,,,,,,,,,,,,,,,,,,,,,,,,,,,,,,,,
,,,,,,7,0,7,0,1,X V Q F H G B L J M P D K C T S W R N Z,5f5e7de4c81d3672642cd612,20,Mężczyzna,2022-06-11_09h25.52.020,task,2021.1.4,Win32,59.9268892,6299f149e92ead563fba08ef,62a4433fcb93d3badaec54e0,,,,,,,,,,,,,,,,,,,,,,,,,,,,,,,,,,,,,,,,,,,,,,,,,,,,,,,,,,,,,,,,,,,,,,,,,,,,,,,,,,,,,,,,,,,,,,,,,,,,,
,,,,,,8,0,8,0,1,X V Q F H G B L J M P D K C T S W R N Z,5f5e7de4c81d3672642cd612,20,Mężczyzna,2022-06-11_09h25.52.020,task,2021.1.4,Win32,59.9268892,6299f149e92ead563fba08ef,62a4433fcb93d3badaec54e0,,,,,,,,,,,,,,,,,,,,,,,,,,,,,,,,,,,,,,,,,,,,,,,,,,,,,,,,,,,,,,,,,,,,,,,,,,,,,,,,,,,,,,,,,,,,,,,,,,,,,
,,,,,,,,,,,,5f5e7de4c81d3672642cd612,20,Mężczyzna,2022-06-11_09h25.52.020,task,2021.1.4,Win32,59.9268892,6299f149e92ead563fba08ef,62a4433fcb93d3badaec54e0,hlrmvstz,"[""h"",""l"",""r"",""m"",""v"",""s"",""t"",""z""]","[1.8625000000000114,1.961500000000001,3.2901999999999703,4.064699999999959,4.2631999999999834,4.698300000000074,4.992600000000095,6.3436000000000945,6.82830000000007]",0,HLRVMSVTZ,18,0,18,0,1,,,,,,,,,,,,,,,,,,,,,,,,,,,,,,,,,,,,,,,,,,,,,,,,,,,,,,,,,,,,,,,,,,,,,,,,,,,,,,,,,,,,,,,,,,,
,,,,,,0,0,0,0,1,X V Q F H G B L J M P D K C T S W R N Z,5f5e7de4c81d3672642cd612,20,Mężczyzna,2022-06-11_09h25.52.020,task,2021.1.4,Win32,59.9268892,6299f149e92ead563fba08ef,62a4433fcb93d3badaec54e0,,,,,,,,,,,,,,,,,,,,,,,,,,,,,,,,,,,,,,,,,,,,,,,,,,,,,,,,,,,,,,,,,,,,,,,,,,,,,,,,,,,,,,,,,,,,,,,,,,,,,
,,,,,,1,0,1,0,1,X V Q F H G B L J M P D K C T S W R N Z,5f5e7de4c81d3672642cd612,20,Mężczyzna,2022-06-11_09h25.52.020,task,2021.1.4,Win32,59.9268892,6299f149e92ead563fba08ef,62a4433fcb93d3badaec54e0,,,,,,,,,,,,,,,,,,,,,,,,,,,,,,,,,,,,,,,,,,,,,,,,,,,,,,,,,,,,,,,,,,,,,,,,,,,,,,,,,,,,,,,,,,,,,,,,,,,,,
,,,,,,2,0,2,0,1,X V Q F H G B L J M P D K C T S W R N Z,5f5e7de4c81d3672642cd612,20,Mężczyzna,2022-06-11_09h25.52.020,task,2021.1.4,Win32,59.9268892,6299f149e92ead563fba08ef,62a4433fcb93d3badaec54e0,,,,,,,,,,,,,,,,,,,,,,,,,,,,,,,,,,,,,,,,,,,,,,,,,,,,,,,,,,,,,,,,,,,,,,,,,,,,,,,,,,,,,,,,,,,,,,,,,,,,,
,,,,,,3,0,3,0,1,X V Q F H G B L J M P D K C T S W R N Z,5f5e7de4c81d3672642cd612,20,Mężczyzna,2022-06-11_09h25.52.020,task,2021.1.4,Win32,59.9268892,6299f149e92ead563fba08ef,62a4433fcb93d3badaec54e0,,,,,,,,,,,,,,,,,,,,,,,,,,,,,,,,,,,,,,,,,,,,,,,,,,,,,,,,,,,,,,,,,,,,,,,,,,,,,,,,,,,,,,,,,,,,,,,,,,,,,
,,,,,,4,0,4,0,1,X V Q F H G B L J M P D K C T S W R N Z,5f5e7de4c81d3672642cd612,20,Mężczyzna,2022-06-11_09h25.52.020,task,2021.1.4,Win32,59.9268892,6299f149e92ead563fba08ef,62a4433fcb93d3badaec54e0,,,,,,,,,,,,,,,,,,,,,,,,,,,,,,,,,,,,,,,,,,,,,,,,,,,,,,,,,,,,,,,,,,,,,,,,,,,,,,,,,,,,,,,,,,,,,,,,,,,,,
,,,,,,5,0,5,0,1,X V Q F H G B L J M P D K C T S W R N Z,5f5e7de4c81d3672642cd612,20,Mężczyzna,2022-06-11_09h25.52.020,task,2021.1.4,Win32,59.9268892,6299f149e92ead563fba08ef,62a4433fcb93d3badaec54e0,,,,,,,,,,,,,,,,,,,,,,,,,,,,,,,,,,,,,,,,,,,,,,,,,,,,,,,,,,,,,,,,,,,,,,,,,,,,,,,,,,,,,,,,,,,,,,,,,,,,,
,,,,,,6,0,6,0,1,X V Q F H G B L J M P D K C T S W R N Z,5f5e7de4c81d3672642cd612,20,Mężczyzna,2022-06-11_09h25.52.020,task,2021.1.4,Win32,59.9268892,6299f149e92ead563fba08ef,62a4433fcb93d3badaec54e0,,,,,,,,,,,,,,,,,,,,,,,,,,,,,,,,,,,,,,,,,,,,,,,,,,,,,,,,,,,,,,,,,,,,,,,,,,,,,,,,,,,,,,,,,,,,,,,,,,,,,
,,,,,,7,0,7,0,1,X V Q F H G B L J M P D K C T S W R N Z,5f5e7de4c81d3672642cd612,20,Mężczyzna,2022-06-11_09h25.52.020,task,2021.1.4,Win32,59.9268892,6299f149e92ead563fba08ef,62a4433fcb93d3badaec54e0,,,,,,,,,,,,,,,,,,,,,,,,,,,,,,,,,,,,,,,,,,,,,,,,,,,,,,,,,,,,,,,,,,,,,,,,,,,,,,,,,,,,,,,,,,,,,,,,,,,,,
,,,,,,8,0,8,0,1,X V Q F H G B L J M P D K C T S W R N Z,5f5e7de4c81d3672642cd612,20,Mężczyzna,2022-06-11_09h25.52.020,task,2021.1.4,Win32,59.9268892,6299f149e92ead563fba08ef,62a4433fcb93d3badaec54e0,,,,,,,,,,,,,,,,,,,,,,,,,,,,,,,,,,,,,,,,,,,,,,,,,,,,,,,,,,,,,,,,,,,,,,,,,,,,,,,,,,,,,,,,,,,,,,,,,,,,,
,,,,,,,,,,,,5f5e7de4c81d3672642cd612,20,Mężczyzna,2022-06-11_09h25.52.020,task,2021.1.4,Win32,59.9268892,6299f149e92ead563fba08ef,62a4433fcb93d3badaec54e0,jmgbkclw,"[""j"",""m"",""g"",""b"",""k"",""c"",""l"",""w""]","[0.9558000000000106,1.138499999999965,2.669499999999971,3.0616000000000554,5.236300000000028,5.728499999999997,6.016600000000096,6.104399999999885,6.397699999999929]",0,JMGBKCWPD,19,0,19,0,1,,,,,,,,,,,,,,,,,,,,,,,,,,,,,,,,,,,,,,,,,,,,,,,,,,,,,,,,,,,,,,,,,,,,,,,,,,,,,,,,,,,,,,,,,,,
,,,,,,0,0,0,0,1,X V Q F H G B L J M P D K C T S W R N Z,5f5e7de4c81d3672642cd612,20,Mężczyzna,2022-06-11_09h25.52.020,task,2021.1.4,Win32,59.9268892,6299f149e92ead563fba08ef,62a4433fcb93d3badaec54e0,,,,,,,,,,,,,,,,,,,,,,,,,,,,,,,,,,,,,,,,,,,,,,,,,,,,,,,,,,,,,,,,,,,,,,,,,,,,,,,,,,,,,,,,,,,,,,,,,,,,,
,,,,,,1,0,1,0,1,X V Q F H G B L J M P D K C T S W R N Z,5f5e7de4c81d3672642cd612,20,Mężczyzna,2022-06-11_09h25.52.020,task,2021.1.4,Win32,59.9268892,6299f149e92ead563fba08ef,62a4433fcb93d3badaec54e0,,,,,,,,,,,,,,,,,,,,,,,,,,,,,,,,,,,,,,,,,,,,,,,,,,,,,,,,,,,,,,,,,,,,,,,,,,,,,,,,,,,,,,,,,,,,,,,,,,,,,
,,,,,,2,0,2,0,1,X V Q F H G B L J M P D K C T S W R N Z,5f5e7de4c81d3672642cd612,20,Mężczyzna,2022-06-11_09h25.52.020,task,2021.1.4,Win32,59.9268892,6299f149e92ead563fba08ef,62a4433fcb93d3badaec54e0,,,,,,,,,,,,,,,,,,,,,,,,,,,,,,,,,,,,,,,,,,,,,,,,,,,,,,,,,,,,,,,,,,,,,,,,,,,,,,,,,,,,,,,,,,,,,,,,,,,,,
,,,,,,3,0,3,0,1,X V Q F H G B L J M P D K C T S W R N Z,5f5e7de4c81d3672642cd612,20,Mężczyzna,2022-06-11_09h25.52.020,task,2021.1.4,Win32,59.9268892,6299f149e92ead563fba08ef,62a4433fcb93d3badaec54e0,,,,,,,,,,,,,,,,,,,,,,,,,,,,,,,,,,,,,,,,,,,,,,,,,,,,,,,,,,,,,,,,,,,,,,,,,,,,,,,,,,,,,,,,,,,,,,,,,,,,,
,,,,,,4,0,4,0,1,X V Q F H G B L J M P D K C T S W R N Z,5f5e7de4c81d3672642cd612,20,Mężczyzna,2022-06-11_09h25.52.020,task,2021.1.4,Win32,59.9268892,6299f149e92ead563fba08ef,62a4433fcb93d3badaec54e0,,,,,,,,,,,,,,,,,,,,,,,,,,,,,,,,,,,,,,,,,,,,,,,,,,,,,,,,,,,,,,,,,,,,,,,,,,,,,,,,,,,,,,,,,,,,,,,,,,,,,
,,,,,,5,0,5,0,1,X V Q F H G B L J M P D K C T S W R N Z,5f5e7de4c81d3672642cd612,20,Mężczyzna,2022-06-11_09h25.52.020,task,2021.1.4,Win32,59.9268892,6299f149e92ead563fba08ef,62a4433fcb93d3badaec54e0,,,,,,,,,,,,,,,,,,,,,,,,,,,,,,,,,,,,,,,,,,,,,,,,,,,,,,,,,,,,,,,,,,,,,,,,,,,,,,,,,,,,,,,,,,,,,,,,,,,,,
,,,,,,6,0,6,0,1,X V Q F H G B L J M P D K C T S W R N Z,5f5e7de4c81d3672642cd612,20,Mężczyzna,2022-06-11_09h25.52.020,task,2021.1.4,Win32,59.9268892,6299f149e92ead563fba08ef,62a4433fcb93d3badaec54e0,,,,,,,,,,,,,,,,,,,,,,,,,,,,,,,,,,,,,,,,,,,,,,,,,,,,,,,,,,,,,,,,,,,,,,,,,,,,,,,,,,,,,,,,,,,,,,,,,,,,,
,,,,,,7,0,7,0,1,X V Q F H G B L J M P D K C T S W R N Z,5f5e7de4c81d3672642cd612,20,Mężczyzna,2022-06-11_09h25.52.020,task,2021.1.4,Win32,59.9268892,6299f149e92ead563fba08ef,62a4433fcb93d3badaec54e0,,,,,,,,,,,,,,,,,,,,,,,,,,,,,,,,,,,,,,,,,,,,,,,,,,,,,,,,,,,,,,,,,,,,,,,,,,,,,,,,,,,,,,,,,,,,,,,,,,,,,
,,,,,,8,0,8,0,1,X V Q F H G B L J M P D K C T S W R N Z,5f5e7de4c81d3672642cd612,20,Mężczyzna,2022-06-11_09h25.52.020,task,2021.1.4,Win32,59.9268892,6299f149e92ead563fba08ef,62a4433fcb93d3badaec54e0,,,,,,,,,,,,,,,,,,,,,,,,,,,,,,,,,,,,,,,,,,,,,,,,,,,,,,,,,,,,,,,,,,,,,,,,,,,,,,,,,,,,,,,,,,,,,,,,,,,,,
,,,,,,,,,,,,5f5e7de4c81d3672642cd612,20,Mężczyzna,2022-06-11_09h25.52.020,task,2021.1.4,Win32,59.9268892,6299f149e92ead563fba08ef,62a4433fcb93d3badaec54e0,hgxqbxtix,"[""h"",""g"",""x"",""q"",""b"",""x"",""t"",""i"",""x""]","[2.1246999999999048,2.4333999999998923,2.725999999999999,3.0771000000000868,4.3069999999999595,4.735500000000002,5.276999999999987,7.811399999999878,8.116600000000062,8.319100000000049]",0,HGXQBXTPQ,20,0,20,0,1,,,,,,,,,,,,,,,,,,,,,,,,,,,,,,,,,,,,,,,,,,,,,,,,,,,,,,,,,,,,,,,,,,,,,,,,,,,,,,,,,,,,,,,,,,,
,,,,,,,,,,,,5f5e7de4c81d3672642cd612,20,Mężczyzna,2022-06-11_09h25.52.020,task,2021.1.4,Win32,59.9268892,6299f149e92ead563fba08ef,62a4433fcb93d3badaec54e0,,,,,,,,,,,space,8.6023,5,"[""5""]",1,[11.488499999999988],[11.488499999999988],0,0,0,5,1,Practice,6,(4/2) + 3,5,,,,,,,,,,,,,,,,,,,,,,,,,,,,,,,,,,,,,,,,,,,,,,,,,,,,,,,,,,,,,,,,,,,,,,,,,,,
,,,,,,,,,,,,5f5e7de4c81d3672642cd612,20,Mężczyzna,2022-06-11_09h25.52.020,task,2021.1.4,Win32,59.9268892,6299f149e92ead563fba08ef,62a4433fcb93d3badaec54e0,,,,,,,,,,,,,8,"[""8""]",1,[3.495800000000088],"[11.488499999999988,3.495800000000088]",0,1,1,8,1,Practice,9,(3x3) - 1,8,,,,,,,,,,,,,,,,,,,,,,,,,,,,,,,,,,,,,,,,,,,,,,,,,,,,,,,,,,,,,,,,,,,,,,,,,,,
,,,,,,,,,,,,5f5e7de4c81d3672642cd612,20,Mężczyzna,2022-06-11_09h25.52.020,task,2021.1.4,Win32,59.9268892,6299f149e92ead563fba08ef,62a4433fcb93d3badaec54e0,,,,,,,,,,,,,9,"[""9""]",1,[2.120800000000031],"[11.488499999999988,3.495800000000088,2.120800000000031]",0,2,2,9,1,Practice,10,(20/2) - 1,9,,,,,,,,,,,,,,,,,,,,,,,,,,,,,,,,,,,,,,,,,,,,,,,,,,,,,,,,,,,,,,,,,,,,,,,,,,,
,,,,,,,,,,,,5f5e7de4c81d3672642cd612,20,Mężczyzna,2022-06-11_09h25.52.020,task,2021.1.4,Win32,59.9268892,6299f149e92ead563fba08ef,62a4433fcb93d3badaec54e0,,,,,,,,,,,,,3,"[""3""]",1,[3.2006000000001222],"[11.488499999999988,3.495800000000088,2.120800000000031,3.2006000000001222]",0,3,3,3,1,Practice,4,(8/4) + 1,3,,,,,,,,,,,,,,,,,,,,,,,,,,,,,,,,,,,,,,,,,,,,,,,,,,,,,,,,,,,,,,,,,,,,,,,,,,,
,,,,,,,,,,,,5f5e7de4c81d3672642cd612,20,Mężczyzna,2022-06-11_09h25.52.020,task,2021.1.4,Win32,59.9268892,6299f149e92ead563fba08ef,62a4433fcb93d3badaec54e0,,,,,,,,,,,,,0,"[""0""]",1,[1.79849999999999],"[11.488499999999988,3.495800000000088,2.120800000000031,3.2006000000001222,1.79849999999999]",0,4,4,0,1,Practice,1,(3x3) -  9,0,,,,,,,,,,,,,,,,,,,,,,,,,,,,,,,,,,,,,,,,,,,,,,,,,,,,,,,,,,,,,,,,,,,,,,,,,,,
,,,,,,,,,,,,5f5e7de4c81d3672642cd612,20,Mężczyzna,2022-06-11_09h25.52.020,task,2021.1.4,Win32,59.9268892,6299f149e92ead563fba08ef,62a4433fcb93d3badaec54e0,,,,,,,,,,,,,2,"[""2""]",1,[2.485300000000052],"[11.488499999999988,3.495800000000088,2.120800000000031,3.2006000000001222,1.79849999999999,2.485300000000052]",0,5,5,2,1,Practice,3,(4x4) - 14,2,,,,,,,,,,,,,,,,,,,,,,,,,,,,,,,,,,,,,,,,,,,,,,,,,,,,,,,,,,,,,,,,,,,,,,,,,,,
,,,,,,,,,,,,5f5e7de4c81d3672642cd612,20,Mężczyzna,2022-06-11_09h25.52.020,task,2021.1.4,Win32,59.9268892,6299f149e92ead563fba08ef,62a4433fcb93d3badaec54e0,,,,,,,,,,,,,1,"[""1""]",1,[7.122900000000186],"[11.488499999999988,3.495800000000088,2.120800000000031,3.2006000000001222,1.79849999999999,2.485300000000052,7.122900000000186]",0,6,6,1,1,Practice,2,(4x4) - 15,1,,,,,,,,,,,,,,,,,,,,,,,,,,,,,,,,,,,,,,,,,,,,,,,,,,,,,,,,,,,,,,,,,,,,,,,,,,,
,,,,,,,,,,,,5f5e7de4c81d3672642cd612,20,Mężczyzna,2022-06-11_09h25.52.020,task,2021.1.4,Win32,59.9268892,6299f149e92ead563fba08ef,62a4433fcb93d3badaec54e0,,,,,,,,,,,,,4,"[""4""]",1,[3.1258999999998878],"[11.488499999999988,3.495800000000088,2.120800000000031,3.2006000000001222,1.79849999999999,2.485300000000052,7.122900000000186,3.1258999999998878]",0,7,7,4,1,Practice,5,(2x6) - 8,4,,,,,,,,,,,,,,,,,,,,,,,,,,,,,,,,,,,,,,,,,,,,,,,,,,,,,,,,,,,,,,,,,,,,,,,,,,,
,,,,,,,,,,,,5f5e7de4c81d3672642cd612,20,Mężczyzna,2022-06-11_09h25.52.020,task,2021.1.4,Win32,59.9268892,6299f149e92ead563fba08ef,62a4433fcb93d3badaec54e0,,,,,,,,,,,,,6,"[""6""]",1,[2.2678999999998837],"[11.488499999999988,3.495800000000088,2.120800000000031,3.2006000000001222,1.79849999999999,2.485300000000052,7.122900000000186,3.1258999999998878,2.2678999999998837]",0,8,8,6,1,Practice,7,(25/5) + 1,6,,,,,,,,,,,,,,,,,,,,,,,,,,,,,,,,,,,,,,,,,,,,,,,,,,,,,,,,,,,,,,,,,,,,,,,,,,,
,,,,,,,,,,,,5f5e7de4c81d3672642cd612,20,Mężczyzna,2022-06-11_09h25.52.020,task,2021.1.4,Win32,59.9268892,6299f149e92ead563fba08ef,62a4433fcb93d3badaec54e0,,,,,,,,,,,,,7,"[""7""]",1,[19.60730000000001],"[11.488499999999988,3.495800000000088,2.120800000000031,3.2006000000001222,1.79849999999999,2.485300000000052,7.122900000000186,3.1258999999998878,2.2678999999998837,19.60730000000001]",0,9,9,7,1,Practice,8,(5x5) - 18,7,,,,,,,,,,,,,,,,,,,,,,,,,,,,,,,,,,,,,,,,,,,,,,,,,,,,,,,,,,,,,,,,,,,,,,,,,,,
,,,,,,,,,,,,5f5e7de4c81d3672642cd612,20,Mężczyzna,2022-06-11_09h25.52.020,task,2021.1.4,Win32,59.9268892,6299f149e92ead563fba08ef,62a4433fcb93d3badaec54e0,,,,,,,,,,,,,,,,,,,,,,,,,,,1,56.7135,3.7809,332.551644,4.708514585,15.92886763,space,4.1446,0,0,0,0,1,,,,,,,,,,,,,,,,,,,,,,,,,,,,,,,,,,,,,,,,,,,,,,,,,,,,,,,,,,,,,,
,,,,,,,,,,,,5f5e7de4c81d3672642cd612,20,Mężczyzna,2022-06-11_09h25.52.020,task,2021.1.4,Win32,59.9268892,6299f149e92ead563fba08ef,62a4433fcb93d3badaec54e0,,,,,,,,,,,,,2,,,,,,,,,,Practice,3,(4x4) - 14,2,,,,,,,,,,,,,,space,172.8953,"[""2""]",1,[4.0505999999995765],1,0,0,0,2,1,,,,,,,,,,,,,,,,,,,,,,,,,,,,,,,,,,,,,,,,,,,,,,,,,,,
,,,,,,,,,,,X V Q F H G B L J M P D K C T S W R N Z,5f5e7de4c81d3672642cd612,20,Mężczyzna,2022-06-11_09h25.52.020,task,2021.1.4,Win32,59.9268892,6299f149e92ead563fba08ef,62a4433fcb93d3badaec54e0,,,,,,,,,,,,,,,,,,,,,,,,,,,,,,,,,,,,,,,,,,,,,,,,,,,0,0,0,0,1,,,,,,,,,,,,,,,,,,,,,,,,,,,,,,,,,,,,,,,,,,,,,,
,,,,,,,,,,,,5f5e7de4c81d3672642cd612,20,Mężczyzna,2022-06-11_09h25.52.020,task,2021.1.4,Win32,59.9268892,6299f149e92ead563fba08ef,62a4433fcb93d3badaec54e0,,,,,,,,,,,,,0,,,,,,,,,,Practice,1,(3x3) -  9,0,,,,,,,,,,,,,,,,"[""0""]",1,[2.1100000000000136],1,0,0,0,0,1,,,,,,,,,,,,,,,,,,,,,,,,,,,,,,,,,,,,,,,,,,,,,,,,,,,
,,,,,,,,,,,X V Q F H G B L J M P D K C T S W R N Z,5f5e7de4c81d3672642cd612,20,Mężczyzna,2022-06-11_09h25.52.020,task,2021.1.4,Win32,59.9268892,6299f149e92ead563fba08ef,62a4433fcb93d3badaec54e0,,,,,,,,,,,,,,,,,,,,,,,,,,,,,,,,,,,,,,,,,,,,,,,,,,,1,0,1,0,1,,,,,,,,,,,,,,,,,,,,,,,,,,,,,,,,,,,,,,,,,,,,,,
,,,,,,,,,,,,5f5e7de4c81d3672642cd612,20,Mężczyzna,2022-06-11_09h25.52.020,task,2021.1.4,Win32,59.9268892,6299f149e92ead563fba08ef,62a4433fcb93d3badaec54e0,,,,,,,,,,,,,,,,,,,,,,,,,,,,,,,,,,,,,,,,,,,,,,,,,,,,,,,,zv,"[""z"",""v""]",0,"[1.7970000000000255,1.9852000000001908,2.9866000000000668]",1,0,0,0,0,1,,,,,,,,,,,,,,,,,,,,,,,,,,,,,,,,,,,,
,,,,,,,,,,,,5f5e7de4c81d3672642cd612,20,Mężczyzna,2022-06-11_09h25.52.020,task,2021.1.4,Win32,59.9268892,6299f149e92ead563fba08ef,62a4433fcb93d3badaec54e0,,,,,,,,,,,,,7,,,,,,,,,,Practice,8,(5x5) - 18,7,,,,,,,,,,,,,,,,"[""7""]",1,[2.179399999999873],1,0,0,0,7,1,,,,,,,,,,,,,,,,,,,,,,,,,,,,,,,,,,,,,,,,,,,,,,,,,,,
,,,,,,,,,,,X V Q F H G B L J M P D K C T S W R N Z,5f5e7de4c81d3672642cd612,20,Mężczyzna,2022-06-11_09h25.52.020,task,2021.1.4,Win32,59.9268892,6299f149e92ead563fba08ef,62a4433fcb93d3badaec54e0,,,,,,,,,,,,,,,,,,,,,,,,,,,,,,,,,,,,,,,,,,,,,,,,,,,0,0,0,0,1,,,,,,,,,,,,,,,,,,,,,,,,,,,,,,,,,,,,,,,,,,,,,,
,,,,,,,,,,,,5f5e7de4c81d3672642cd612,20,Mężczyzna,2022-06-11_09h25.52.020,task,2021.1.4,Win32,59.9268892,6299f149e92ead563fba08ef,62a4433fcb93d3badaec54e0,,,,,,,,,,,,,2,,,,,,,,,,Practice,3,(4x4) - 14,2,,,,,,,,,,,,,,,,"[""2""]",1,[1.6175000000000637],1,0,0,0,2,1,,,,,,,,,,,,,,,,,,,,,,,,,,,,,,,,,,,,,,,,,,,,,,,,,,,
,,,,,,,,,,,X V Q F H G B L J M P D K C T S W R N Z,5f5e7de4c81d3672642cd612,20,Mężczyzna,2022-06-11_09h25.52.020,task,2021.1.4,Win32,59.9268892,6299f149e92ead563fba08ef,62a4433fcb93d3badaec54e0,,,,,,,,,,,,,,,,,,,,,,,,,,,,,,,,,,,,,,,,,,,,,,,,,,,1,0,1,0,1,,,,,,,,,,,,,,,,,,,,,,,,,,,,,,,,,,,,,,,,,,,,,,
,,,,,,,,,,,,5f5e7de4c81d3672642cd612,20,Mężczyzna,2022-06-11_09h25.52.020,task,2021.1.4,Win32,59.9268892,6299f149e92ead563fba08ef,62a4433fcb93d3badaec54e0,,,,,,,,,,,,,,,,,,,,,,,,,,,,,,,,,,,,,,,,,,,,,,,,,,,,,,,,vb,"[""v"",""b""]",0,"[1.4885000000000446,1.5895000000000437,3.3606000000000904]",1,1,0,1,0,1,,,,,,,,,,,,,,,,,,,,,,,,,,,,,,,,,,,,
,,,,,,,,,,,,5f5e7de4c81d3672642cd612,20,Mężczyzna,2022-06-11_09h25.52.020,task,2021.1.4,Win32,59.9268892,6299f149e92ead563fba08ef,62a4433fcb93d3badaec54e0,,,,,,,,,,,,,8,,,,,,,,,,Practice,9,(3x3) - 1,8,,,,,,,,,,,,,,,,"[""8""]",1,[2.8603000000002794],1,0,0,0,8,1,,,,,,,,,,,,,,,,,,,,,,,,,,,,,,,,,,,,,,,,,,,,,,,,,,,
,,,,,,,,,,,X V Q F H G B L J M P D K C T S W R N Z,5f5e7de4c81d3672642cd612,20,Mężczyzna,2022-06-11_09h25.52.020,task,2021.1.4,Win32,59.9268892,6299f149e92ead563fba08ef,62a4433fcb93d3badaec54e0,,,,,,,,,,,,,,,,,,,,,,,,,,,,,,,,,,,,,,,,,,,,,,,,,,,0,0,0,0,1,,,,,,,,,,,,,,,,,,,,,,,,,,,,,,,,,,,,,,,,,,,,,,
,,,,,,,,,,,,5f5e7de4c81d3672642cd612,20,Mężczyzna,2022-06-11_09h25.52.020,task,2021.1.4,Win32,59.9268892,6299f149e92ead563fba08ef,62a4433fcb93d3badaec54e0,,,,,,,,,,,,,1,,,,,,,,,,Practice,2,(4x4) - 15,1,,,,,,,,,,,,,,,,"[""1""]",1,[1.436699999999746],1,0,0,0,1,1,,,,,,,,,,,,,,,,,,,,,,,,,,,,,,,,,,,,,,,,,,,,,,,,,,,
,,,,,,,,,,,X V Q F H G B L J M P D K C T S W R N Z,5f5e7de4c81d3672642cd612,20,Mężczyzna,2022-06-11_09h25.52.020,task,2021.1.4,Win32,59.9268892,6299f149e92ead563fba08ef,62a4433fcb93d3badaec54e0,,,,,,,,,,,,,,,,,,,,,,,,,,,,,,,,,,,,,,,,,,,,,,,,,,,1,0,1,0,1,,,,,,,,,,,,,,,,,,,,,,,,,,,,,,,,,,,,,,,,,,,,,,
,,,,,,,,,,,,5f5e7de4c81d3672642cd612,20,Mężczyzna,2022-06-11_09h25.52.020,task,2021.1.4,Win32,59.9268892,6299f149e92ead563fba08ef,62a4433fcb93d3badaec54e0,,,,,,,,,,,,,,,,,,,,,,,,,,,,,,,,,,,,,,,,,,,,,,,,,,,,,,,,jd,"[""j"",""d""]",0,"[1.5813999999999169,1.7142000000002326,12.067700000000173]",1,2,0,2,0,1,,,,,,,,,,,,,,,,,,,,,,,,,,,,,,,,,,,,
,,,,,,,,,,,,5f5e7de4c81d3672642cd612,20,Mężczyzna,2022-06-11_09h25.52.020,task,2021.1.4,Win32,59.9268892,6299f149e92ead563fba08ef,62a4433fcb93d3badaec54e0,,,,,,,,,,,,,9,,,,,,,,,,Task,40,(7x2) - 5,9,,,,,,,,,,,,,,,,,,,1,,,,,,,,,,,,,,,,,,,,,space,20.0515,"[""9""]",1,[4.096499999999992],0,0,0,39,1,,,,,,,,,,,,,,,,,,,,,,,,,,
,,,,,,,,,,,X V Q F H G B L J M P D K C T S W R N Z,5f5e7de4c81d3672642cd612,20,Mężczyzna,2022-06-11_09h25.52.020,task,2021.1.4,Win32,59.9268892,6299f149e92ead563fba08ef,62a4433fcb93d3badaec54e0,,,,,,,,,,,,,,,,,,,,,,,,,,,,,,,,,,,,,,,,,,,,,,,,,,,,,,,,,,,,,,,,,,,,,,,,,,,,0,0,0,0,1,,,,,,,,,,,,,,,,,,,,,
,,,,,,,,,,,,5f5e7de4c81d3672642cd612,20,Mężczyzna,2022-06-11_09h25.52.020,task,2021.1.4,Win32,59.9268892,6299f149e92ead563fba08ef,62a4433fcb93d3badaec54e0,,,,,,,,,,,,,9,,,,,,,,,,Task,16,(3x8) - 15,9,,,,,,,,,,,,,,,,,,,1,,,,,,,,,,,,,,,,,,,,,,,"[""9""]",1,[8.623500000000035],0,0,0,15,1,,,,,,,,,,,,,,,,,,,,,,,,,,
,,,,,,,,,,,X V Q F H G B L J M P D K C T S W R N Z,5f5e7de4c81d3672642cd612,20,Mężczyzna,2022-06-11_09h25.52.020,task,2021.1.4,Win32,59.9268892,6299f149e92ead563fba08ef,62a4433fcb93d3badaec54e0,,,,,,,,,,,,,,,,,,,,,,,,,,,,,,,,,,,,,,,,,,,,,,,,,,,,,,,,,,,,,,,,,,,,,,,,,,,,1,0,1,0,1,,,,,,,,,,,,,,,,,,,,,
,,,,,,,,,,,,5f5e7de4c81d3672642cd612,20,Mężczyzna,2022-06-11_09h25.52.020,task,2021.1.4,Win32,59.9268892,6299f149e92ead563fba08ef,62a4433fcb93d3badaec54e0,,,,,,,,,,,,,,,,,,,,,,,,,,,,,,,,,,,,,,,,,,,,,,,,,,,,,,,,,,,,,,,,,,,,,,,,,,,,,,,,,zm,"[""z"",""m""]",0,"[1.3276999999997088,1.4931999999997743,2.36850000000004]",1,ZM,0,0,0,0,1,,,,,,,,,,
,,,,,,,,,,,,5f5e7de4c81d3672642cd612,20,Mężczyzna,2022-06-11_09h25.52.020,task,2021.1.4,Win32,59.9268892,6299f149e92ead563fba08ef,62a4433fcb93d3badaec54e0,,,,,,,,,,,,,4,,,,,,,,,,Task,11,(18/3) - 2,4,,,,,,,,,,,,,,,,,,,1,,,,,,,,,,,,,,,,,,,,,,,"[""4""]",1,[7.106899999999882],0,0,0,10,1,,,,,,,,,,,,,,,,,,,,,,,,,,
,,,,,,,,,,,X V Q F H G B L J M P D K C T S W R N Z,5f5e7de4c81d3672642cd612,20,Mężczyzna,2022-06-11_09h25.52.020,task,2021.1.4,Win32,59.9268892,6299f149e92ead563fba08ef,62a4433fcb93d3badaec54e0,,,,,,,,,,,,,,,,,,,,,,,,,,,,,,,,,,,,,,,,,,,,,,,,,,,,,,,,,,,,,,,,,,,,,,,,,,,,0,0,0,0,1,,,,,,,,,,,,,,,,,,,,,
,,,,,,,,,,,,5f5e7de4c81d3672642cd612,20,Mężczyzna,2022-06-11_09h25.52.020,task,2021.1.4,Win32,59.9268892,6299f149e92ead563fba08ef,62a4433fcb93d3badaec54e0,,,,,,,,,,,,,5,,,,,,,,,,Task,12,(4x4) - 11,5,,,,,,,,,,,,,,,,,,,1,,,,,,,,,,,,,,,,,,,,,,,"[""5""]",1,[5.080600000000118],0,0,0,11,1,,,,,,,,,,,,,,,,,,,,,,,,,,
,,,,,,,,,,,X V Q F H G B L J M P D K C T S W R N Z,5f5e7de4c81d3672642cd612,20,Mężczyzna,2022-06-11_09h25.52.020,task,2021.1.4,Win32,59.9268892,6299f149e92ead563fba08ef,62a4433fcb93d3badaec54e0,,,,,,,,,,,,,,,,,,,,,,,,,,,,,,,,,,,,,,,,,,,,,,,,,,,,,,,,,,,,,,,,,,,,,,,,,,,,1,0,1,0,1,,,,,,,,,,,,,,,,,,,,,
,,,,,,,,,,,,5f5e7de4c81d3672642cd612,20,Mężczyzna,2022-06-11_09h25.52.020,task,2021.1.4,Win32,59.9268892,6299f149e92ead563fba08ef,62a4433fcb93d3badaec54e0,,,,,,,,,,,,,2,,,,,,,,,,Task,10,(2x5) - 8,2,,,,,,,,,,,,,,,,,,,1,,,,,,,,,,,,,,,,,,,,,,,"[""2""]",1,[3.3396000000000186],0,0,0,9,1,,,,,,,,,,,,,,,,,,,,,,,,,,
,,,,,,,,,,,X V Q F H G B L J M P D K C T S W R N Z,5f5e7de4c81d3672642cd612,20,Mężczyzna,2022-06-11_09h25.52.020,task,2021.1.4,Win32,59.9268892,6299f149e92ead563fba08ef,62a4433fcb93d3badaec54e0,,,,,,,,,,,,,,,,,,,,,,,,,,,,,,,,,,,,,,,,,,,,,,,,,,,,,,,,,,,,,,,,,,,,,,,,,,,,2,0,2,0,1,,,,,,,,,,,,,,,,,,,,,
,,,,,,,,,,,,5f5e7de4c81d3672642cd612,20,Mężczyzna,2022-06-11_09h25.52.020,task,2021.1.4,Win32,59.9268892,6299f149e92ead563fba08ef,62a4433fcb93d3badaec54e0,,,,,,,,,,,,,,,,,,,,,,,,,,,,,,,,,,,,,,,,,,,,,,,,,,,,,,,,,,,,,,,,,,,,,,,,,,,,,,,,,vjq,"[""v"",""j"",""q""]",0,"[0.9766000000000759,1.1197000000000799,1.2697999999998046,2.0667000000000826]",1,VJQ,1,0,1,0,1,,,,,,,,,,
,,,,,,,,,,,,5f5e7de4c81d3672642cd612,20,Mężczyzna,2022-06-11_09h25.52.020,task,2021.1.4,Win32,59.9268892,6299f149e92ead563fba08ef,62a4433fcb93d3badaec54e0,,,,,,,,,,,,,7,,,,,,,,,,Task,6,(12/2) + 1,7,,,,,,,,,,,,,,,,,,,1,,,,,,,,,,,,,,,,,,,,,,,"[""7""]",1,[2.1113999999998896],0,0,0,5,1,,,,,,,,,,,,,,,,,,,,,,,,,,
,,,,,,,,,,,X V Q F H G B L J M P D K C T S W R N Z,5f5e7de4c81d3672642cd612,20,Mężczyzna,2022-06-11_09h25.52.020,task,2021.1.4,Win32,59.9268892,6299f149e92ead563fba08ef,62a4433fcb93d3badaec54e0,,,,,,,,,,,,,,,,,,,,,,,,,,,,,,,,,,,,,,,,,,,,,,,,,,,,,,,,,,,,,,,,,,,,,,,,,,,,0,0,0,0,1,,,,,,,,,,,,,,,,,,,,,
,,,,,,,,,,,,5f5e7de4c81d3672642cd612,20,Mężczyzna,2022-06-11_09h25.52.020,task,2021.1.4,Win32,59.9268892,6299f149e92ead563fba08ef,62a4433fcb93d3badaec54e0,,,,,,,,,,,,,8,,,,,,,,,,Task,15,(3x7) - 13,8,,,,,,,,,,,,,,,,,,,1,,,,,,,,,,,,,,,,,,,,,,,"[""8""]",1,[6.1684999999999945],0,0,0,14,1,,,,,,,,,,,,,,,,,,,,,,,,,,
,,,,,,,,,,,X V Q F H G B L J M P D K C T S W R N Z,5f5e7de4c81d3672642cd612,20,Mężczyzna,2022-06-11_09h25.52.020,task,2021.1.4,Win32,59.9268892,6299f149e92ead563fba08ef,62a4433fcb93d3badaec54e0,,,,,,,,,,,,,,,,,,,,,,,,,,,,,,,,,,,,,,,,,,,,,,,,,,,,,,,,,,,,,,,,,,,,,,,,,,,,1,0,1,0,1,,,,,,,,,,,,,,,,,,,,,
,,,,,,,,,,,,5f5e7de4c81d3672642cd612,20,Mężczyzna,2022-06-11_09h25.52.020,task,2021.1.4,Win32,59.9268892,6299f149e92ead563fba08ef,62a4433fcb93d3badaec54e0,,,,,,,,,,,,,9,,,,,,,,,,Task,7,(3x7) - 12,9,,,,,,,,,,,,,,,,,,,1,,,,,,,,,,,,,,,,,,,,,,,"[""9""]",1,[13.770200000000159],0,0,0,6,1,,,,,,,,,,,,,,,,,,,,,,,,,,
,,,,,,,,,,,X V Q F H G B L J M P D K C T S W R N Z,5f5e7de4c81d3672642cd612,20,Mężczyzna,2022-06-11_09h25.52.020,task,2021.1.4,Win32,59.9268892,6299f149e92ead563fba08ef,62a4433fcb93d3badaec54e0,,,,,,,,,,,,,,,,,,,,,,,,,,,,,,,,,,,,,,,,,,,,,,,,,,,,,,,,,,,,,,,,,,,,,,,,,,,,2,0,2,0,1,,,,,,,,,,,,,,,,,,,,,
,,,,,,,,,,,,5f5e7de4c81d3672642cd612,20,Mężczyzna,2022-06-11_09h25.52.020,task,2021.1.4,Win32,59.9268892,6299f149e92ead563fba08ef,62a4433fcb93d3badaec54e0,,,,,,,,,,,,,3,,,,,,,,,,Task,3,(2x3) - 3,3,,,,,,,,,,,,,,,,,,,1,,,,,,,,,,,,,,,,,,,,,,,"[""3""]",1,[3.1981000000000677],0,0,0,2,1,,,,,,,,,,,,,,,,,,,,,,,,,,
,,,,,,,,,,,X V Q F H G B L J M P D K C T S W R N Z,5f5e7de4c81d3672642cd612,20,Mężczyzna,2022-06-11_09h25.52.020,task,2021.1.4,Win32,59.9268892,6299f149e92ead563fba08ef,62a4433fcb93d3badaec54e0,,,,,,,,,,,,,,,,,,,,,,,,,,,,,,,,,,,,,,,,,,,,,,,,,,,,,,,,,,,,,,,,,,,,,,,,,,,,3,0,3,0,1,,,,,,,,,,,,,,,,,,,,,
,,,,,,,,,,,,5f5e7de4c81d3672642cd612,20,Mężczyzna,2022-06-11_09h25.52.020,task,2021.1.4,Win32,59.9268892,6299f149e92ead563fba08ef,62a4433fcb93d3badaec54e0,,,,,,,,,,,,,,,,,,,,,,,,,,,,,,,,,,,,,,,,,,,,,,,,,,,,,,,,,,,,,,,,,,,,,,,,,,,,,,,,,lrzt,"[""l"",""r"",""z"",""t""]",0,"[0.9547000000002299,1.2433000000003176,1.5532000000002881,1.8935000000000173,2.2283000000003312]",1,LRZT,2,0,2,0,1,,,,,,,,,,
,,,,,,,,,,,,5f5e7de4c81d3672642cd612,20,Mężczyzna,2022-06-11_09h25.52.020,task,2021.1.4,Win32,59.9268892,6299f149e92ead563fba08ef,62a4433fcb93d3badaec54e0,,,,,,,,,,,,,0,,,,,,,,,,Task,17,(2x3) - 6,0,,,,,,,,,,,,,,,,,,,1,,,,,,,,,,,,,,,,,,,,,,,"[""0""]",1,[2.3631000000000313],0,0,0,16,1,,,,,,,,,,,,,,,,,,,,,,,,,,
,,,,,,,,,,,X V Q F H G B L J M P D K C T S W R N Z,5f5e7de4c81d3672642cd612,20,Mężczyzna,2022-06-11_09h25.52.020,task,2021.1.4,Win32,59.9268892,6299f149e92ead563fba08ef,62a4433fcb93d3badaec54e0,,,,,,,,,,,,,,,,,,,,,,,,,,,,,,,,,,,,,,,,,,,,,,,,,,,,,,,,,,,,,,,,,,,,,,,,,,,,0,0,0,0,1,,,,,,,,,,,,,,,,,,,,,
,,,,,,,,,,,,5f5e7de4c81d3672642cd612,20,Mężczyzna,2022-06-11_09h25.52.020,task,2021.1.4,Win32,59.9268892,6299f149e92ead563fba08ef,62a4433fcb93d3badaec54e0,,,,,,,,,,,,,5,,,,,,,,,,Task,22,(3x1) + 2,5,,,,,,,,,,,,,,,,,,,1,,,,,,,,,,,,,,,,,,,,,,,"[""5""]",1,[3.6052000000001954],0,0,0,21,1,,,,,,,,,,,,,,,,,,,,,,,,,,
,,,,,,,,,,,X V Q F H G B L J M P D K C T S W R N Z,5f5e7de4c81d3672642cd612,20,Mężczyzna,2022-06-11_09h25.52.020,task,2021.1.4,Win32,59.9268892,6299f149e92ead563fba08ef,62a4433fcb93d3badaec54e0,,,,,,,,,,,,,,,,,,,,,,,,,,,,,,,,,,,,,,,,,,,,,,,,,,,,,,,,,,,,,,,,,,,,,,,,,,,,1,0,1,0,1,,,,,,,,,,,,,,,,,,,,,
,,,,,,,,,,,,5f5e7de4c81d3672642cd612,20,Mężczyzna,2022-06-11_09h25.52.020,task,2021.1.4,Win32,59.9268892,6299f149e92ead563fba08ef,62a4433fcb93d3badaec54e0,,,,,,,,,,,,,2,,,,,,,,,,Task,10,(2x5) - 8,2,,,,,,,,,,,,,,,,,,,1,,,,,,,,,,,,,,,,,,,,,,,"[""2""]",1,[2.7216999999997142],0,0,0,9,1,,,,,,,,,,,,,,,,,,,,,,,,,,
,,,,,,,,,,,X V Q F H G B L J M P D K C T S W R N Z,5f5e7de4c81d3672642cd612,20,Mężczyzna,2022-06-11_09h25.52.020,task,2021.1.4,Win32,59.9268892,6299f149e92ead563fba08ef,62a4433fcb93d3badaec54e0,,,,,,,,,,,,,,,,,,,,,,,,,,,,,,,,,,,,,,,,,,,,,,,,,,,,,,,,,,,,,,,,,,,,,,,,,,,,2,0,2,0,1,,,,,,,,,,,,,,,,,,,,,
,,,,,,,,,,,,5f5e7de4c81d3672642cd612,20,Mężczyzna,2022-06-11_09h25.52.020,task,2021.1.4,Win32,59.9268892,6299f149e92ead563fba08ef,62a4433fcb93d3badaec54e0,,,,,,,,,,,,,0,,,,,,,,,,Task,17,(2x3) - 6,0,,,,,,,,,,,,,,,,,,,1,,,,,,,,,,,,,,,,,,,,,,,"[""0""]",1,[1.5698999999998478],0,0,0,16,1,,,,,,,,,,,,,,,,,,,,,,,,,,
,,,,,,,,,,,X V Q F H G B L J M P D K C T S W R N Z,5f5e7de4c81d3672642cd612,20,Mężczyzna,2022-06-11_09h25.52.020,task,2021.1.4,Win32,59.9268892,6299f149e92ead563fba08ef,62a4433fcb93d3badaec54e0,,,,,,,,,,,,,,,,,,,,,,,,,,,,,,,,,,,,,,,,,,,,,,,,,,,,,,,,,,,,,,,,,,,,,,,,,,,,3,0,3,0,1,,,,,,,,,,,,,,,,,,,,,
,,,,,,,,,,,,5f5e7de4c81d3672642cd612,20,Mężczyzna,2022-06-11_09h25.52.020,task,2021.1.4,Win32,59.9268892,6299f149e92ead563fba08ef,62a4433fcb93d3badaec54e0,,,,,,,,,,,,,9,,,,,,,,,,Task,7,(3x7) - 12,9,,,,,,,,,,,,,,,,,,,1,,,,,,,,,,,,,,,,,,,,,,,"[""9""]",1,[2.447999999999979],0,0,0,6,1,,,,,,,,,,,,,,,,,,,,,,,,,,
,,,,,,,,,,,X V Q F H G B L J M P D K C T S W R N Z,5f5e7de4c81d3672642cd612,20,Mężczyzna,2022-06-11_09h25.52.020,task,2021.1.4,Win32,59.9268892,6299f149e92ead563fba08ef,62a4433fcb93d3badaec54e0,,,,,,,,,,,,,,,,,,,,,,,,,,,,,,,,,,,,,,,,,,,,,,,,,,,,,,,,,,,,,,,,,,,,,,,,,,,,4,0,4,0,1,,,,,,,,,,,,,,,,,,,,,
,,,,,,,,,,,,5f5e7de4c81d3672642cd612,20,Mężczyzna,2022-06-11_09h25.52.020,task,2021.1.4,Win32,59.9268892,6299f149e92ead563fba08ef,62a4433fcb93d3badaec54e0,,,,,,,,,,,,,,,,,,,,,,,,,,,,,,,,,,,,,,,,,,,,,,,,,,,,,,,,,,,,,,,,,,,,,,,,,,,,,,,,,gkwgp,"[""g"",""k"",""w"",""g"",""p""]",0,"[1.2440000000000282,1.995600000000195,2.318300000000363,2.919100000000185,3.0442000000002736,3.4863000000003694]",1,GKWGP,3,0,3,0,1,,,,,,,,,,
,,,,,,,,,,,,5f5e7de4c81d3672642cd612,20,Mężczyzna,2022-06-11_09h25.52.020,task,2021.1.4,Win32,59.9268892,6299f149e92ead563fba08ef,62a4433fcb93d3badaec54e0,,,,,,,,,,,,,8,,,,,,,,,,Task,15,(3x7) - 13,8,,,,,,,,,,,,,,,,,,,1,,,,,,,,,,,,,,,,,,,,,,,"[""8""]",1,[4.950900000000388],0,0,0,14,1,,,,,,,,,,,,,,,,,,,,,,,,,,
,,,,,,,,,,,X V Q F H G B L J M P D K C T S W R N Z,5f5e7de4c81d3672642cd612,20,Mężczyzna,2022-06-11_09h25.52.020,task,2021.1.4,Win32,59.9268892,6299f149e92ead563fba08ef,62a4433fcb93d3badaec54e0,,,,,,,,,,,,,,,,,,,,,,,,,,,,,,,,,,,,,,,,,,,,,,,,,,,,,,,,,,,,,,,,,,,,,,,,,,,,0,0,0,0,1,,,,,,,,,,,,,,,,,,,,,
,,,,,,,,,,,,5f5e7de4c81d3672642cd612,20,Mężczyzna,2022-06-11_09h25.52.020,task,2021.1.4,Win32,59.9268892,6299f149e92ead563fba08ef,62a4433fcb93d3badaec54e0,,,,,,,,,,,,,,,,,,,,,,,Task,12,(4x4) - 11,5,,,,,,,,,,,,,,,,,,,0,,,,,,,,,,,,,,,,,,,,,,,,0,,0,0,0,11,1,,,,,,,,,,,,,,,,,,,,,,,,,,
,,,,,,,,,,,,5f5e7de4c81d3672642cd612,20,Mężczyzna,2022-06-11_09h25.52.020,task,2021.1.4,Win32,59.9268892,6299f149e92ead563fba08ef,62a4433fcb93d3badaec54e0,,,,,,,,,,,,,2,,,,,,,,,,Task,19,(6/2) - 1,2,,,,,,,,,,,,,,,,,,,1,,,,,,,,,,,,,,,,,,,,,,,"[""2""]",1,[3.5666999999997415],0,1,1,18,1,,,,,,,,,,,,,,,,,,,,,,,,,,
,,,,,,,,,,,X V Q F H G B L J M P D K C T S W R N Z,5f5e7de4c81d3672642cd612,20,Mężczyzna,2022-06-11_09h25.52.020,task,2021.1.4,Win32,59.9268892,6299f149e92ead563fba08ef,62a4433fcb93d3badaec54e0,,,,,,,,,,,,,,,,,,,,,,,,,,,,,,,,,,,,,,,,,,,,,,,,,,,,,,,,,,,,,,,,,,,,,,,,,,,,1,0,1,0,1,,,,,,,,,,,,,,,,,,,,,
,,,,,,,,,,,,5f5e7de4c81d3672642cd612,20,Mężczyzna,2022-06-11_09h25.52.020,task,2021.1.4,Win32,59.9268892,6299f149e92ead563fba08ef,62a4433fcb93d3badaec54e0,,,,,,,,,,,,,7,,,,,,,,,,Task,38,(4x6) - 17,7,,,,,,,,,,,,,,,,,,,1,,,,,,,,,,,,,,,,,,,,,,,"[""7""]",1,[5.8301000000001295],0,0,0,37,1,,,,,,,,,,,,,,,,,,,,,,,,,,
,,,,,,,,,,,X V Q F H G B L J M P D K C T S W R N Z,5f5e7de4c81d3672642cd612,20,Mężczyzna,2022-06-11_09h25.52.020,task,2021.1.4,Win32,59.9268892,6299f149e92ead563fba08ef,62a4433fcb93d3badaec54e0,,,,,,,,,,,,,,,,,,,,,,,,,,,,,,,,,,,,,,,,,,,,,,,,,,,,,,,,,,,,,,,,,,,,,,,,,,,,2,0,2,0,1,,,,,,,,,,,,,,,,,,,,,
,,,,,,,,,,,,5f5e7de4c81d3672642cd612,20,Mężczyzna,2022-06-11_09h25.52.020,task,2021.1.4,Win32,59.9268892,6299f149e92ead563fba08ef,62a4433fcb93d3badaec54e0,,,,,,,,,,,,,0,,,,,,,,,,Task,17,(2x3) - 6,0,,,,,,,,,,,,,,,,,,,1,,,,,,,,,,,,,,,,,,,,,,,"[""0""]",1,[3.0892999999998665],0,0,0,16,1,,,,,,,,,,,,,,,,,,,,,,,,,,
,,,,,,,,,,,X V Q F H G B L J M P D K C T S W R N Z,5f5e7de4c81d3672642cd612,20,Mężczyzna,2022-06-11_09h25.52.020,task,2021.1.4,Win32,59.9268892,6299f149e92ead563fba08ef,62a4433fcb93d3badaec54e0,,,,,,,,,,,,,,,,,,,,,,,,,,,,,,,,,,,,,,,,,,,,,,,,,,,,,,,,,,,,,,,,,,,,,,,,,,,,3,0,3,0,1,,,,,,,,,,,,,,,,,,,,,
,,,,,,,,,,,,5f5e7de4c81d3672642cd612,20,Mężczyzna,2022-06-11_09h25.52.020,task,2021.1.4,Win32,59.9268892,6299f149e92ead563fba08ef,62a4433fcb93d3badaec54e0,,,,,,,,,,,,,7,,,,,,,,,,Task,30,(6/3) + 4 ,6,,,,,,,,,,,,,,,,,,,0,,,,,,,,,,,,,,,,,,,,,,,"[""7""]",0,[3.6208999999998923],0,0,0,29,1,,,,,,,,,,,,,,,,,,,,,,,,,,
,,,,,,,,,,,,5f5e7de4c81d3672642cd612,20,Mężczyzna,2022-06-11_09h25.52.020,task,2021.1.4,Win32,59.9268892,6299f149e92ead563fba08ef,62a4433fcb93d3badaec54e0,,,,,,,,,,,,,3,,,,,,,,,,Task,3,(2x3) - 3,3,,,,,,,,,,,,,,,,,,,1,,,,,,,,,,,,,,,,,,,,,,,"[""3""]",1,[2.534799999999791],0,1,1,2,1,,,,,,,,,,,,,,,,,,,,,,,,,,
,,,,,,,,,,,X V Q F H G B L J M P D K C T S W R N Z,5f5e7de4c81d3672642cd612,20,Mężczyzna,2022-06-11_09h25.52.020,task,2021.1.4,Win32,59.9268892,6299f149e92ead563fba08ef,62a4433fcb93d3badaec54e0,,,,,,,,,,,,,,,,,,,,,,,,,,,,,,,,,,,,,,,,,,,,,,,,,,,,,,,,,,,,,,,,,,,,,,,,,,,,4,0,4,0,1,,,,,,,,,,,,,,,,,,,,,
,,,,,,,,,,,,5f5e7de4c81d3672642cd612,20,Mężczyzna,2022-06-11_09h25.52.020,task,2021.1.4,Win32,59.9268892,6299f149e92ead563fba08ef,62a4433fcb93d3badaec54e0,,,,,,,,,,,,,4,,,,,,,,,,Task,4,(1x5) - 1,4,,,,,,,,,,,,,,,,,,,1,,,,,,,,,,,,,,,,,,,,,,,"[""4""]",1,[3.4758999999999105],0,0,0,3,1,,,,,,,,,,,,,,,,,,,,,,,,,,
,,,,,,,,,,,X V Q F H G B L J M P D K C T S W R N Z,5f5e7de4c81d3672642cd612,20,Mężczyzna,2022-06-11_09h25.52.020,task,2021.1.4,Win32,59.9268892,6299f149e92ead563fba08ef,62a4433fcb93d3badaec54e0,,,,,,,,,,,,,,,,,,,,,,,,,,,,,,,,,,,,,,,,,,,,,,,,,,,,,,,,,,,,,,,,,,,,,,,,,,,,5,0,5,0,1,,,,,,,,,,,,,,,,,,,,,
,,,,,,,,,,,,5f5e7de4c81d3672642cd612,20,Mężczyzna,2022-06-11_09h25.52.020,task,2021.1.4,Win32,59.9268892,6299f149e92ead563fba08ef,62a4433fcb93d3badaec54e0,,,,,,,,,,,,,,,,,,,,,,,,,,,,,,,,,,,,,,,,,,,,,,,,,,,,,,,,,,,,,,,,,,,,,,,,,,,,,,,,,lsfelq,"[""l"",""s"",""f"",""e"",""l"",""q""]",0,"[1.2042000000002417,1.3376000000000658,1.6086000000001377,3.581399999999917,3.7485000000000355,3.9215000000000373,17.511100000000056]",0,LSLFQW,4,0,4,0,1,,,,,,,,,,
,,,,,,,,,,,,5f5e7de4c81d3672642cd612,20,Mężczyzna,2022-06-11_09h25.52.020,task,2021.1.4,Win32,59.9268892,6299f149e92ead563fba08ef,62a4433fcb93d3badaec54e0,,,,,,,,,,,,,1,,,,,,,,,,Task,1,(12/6) - 1,1,,,,,,,,,,,,,,,,,,,1,,,,,,,,,,,,,,,,,,,,,,,"[""1""]",1,[4.020100000000184],0,0,0,0,1,,,,,,,,,,,,,,,,,,,,,,,,,,
,,,,,,,,,,,X V Q F H G B L J M P D K C T S W R N Z,5f5e7de4c81d3672642cd612,20,Mężczyzna,2022-06-11_09h25.52.020,task,2021.1.4,Win32,59.9268892,6299f149e92ead563fba08ef,62a4433fcb93d3badaec54e0,,,,,,,,,,,,,,,,,,,,,,,,,,,,,,,,,,,,,,,,,,,,,,,,,,,,,,,,,,,,,,,,,,,,,,,,,,,,0,0,0,0,1,,,,,,,,,,,,,,,,,,,,,
,,,,,,,,,,,,5f5e7de4c81d3672642cd612,20,Mężczyzna,2022-06-11_09h25.52.020,task,2021.1.4,Win32,59.9268892,6299f149e92ead563fba08ef,62a4433fcb93d3badaec54e0,,,,,,,,,,,,,9,,,,,,,,,,Task,40,(7x2) - 5,9,,,,,,,,,,,,,,,,,,,1,,,,,,,,,,,,,,,,,,,,,,,"[""9""]",1,[2.993799999999851],0,0,0,39,1,,,,,,,,,,,,,,,,,,,,,,,,,,
,,,,,,,,,,,X V Q F H G B L J M P D K C T S W R N Z,5f5e7de4c81d3672642cd612,20,Mężczyzna,2022-06-11_09h25.52.020,task,2021.1.4,Win32,59.9268892,6299f149e92ead563fba08ef,62a4433fcb93d3badaec54e0,,,,,,,,,,,,,,,,,,,,,,,,,,,,,,,,,,,,,,,,,,,,,,,,,,,,,,,,,,,,,,,,,,,,,,,,,,,,1,0,1,0,1,,,,,,,,,,,,,,,,,,,,,
,,,,,,,,,,,,5f5e7de4c81d3672642cd612,20,Mężczyzna,2022-06-11_09h25.52.020,task,2021.1.4,Win32,59.9268892,6299f149e92ead563fba08ef,62a4433fcb93d3badaec54e0,,,,,,,,,,,,,0,,,,,,,,,,Task,33,(1/1) - 1,0,,,,,,,,,,,,,,,,,,,1,,,,,,,,,,,,,,,,,,,,,,,"[""0""]",1,[2.576999999999998],0,0,0,32,1,,,,,,,,,,,,,,,,,,,,,,,,,,
,,,,,,,,,,,X V Q F H G B L J M P D K C T S W R N Z,5f5e7de4c81d3672642cd612,20,Mężczyzna,2022-06-11_09h25.52.020,task,2021.1.4,Win32,59.9268892,6299f149e92ead563fba08ef,62a4433fcb93d3badaec54e0,,,,,,,,,,,,,,,,,,,,,,,,,,,,,,,,,,,,,,,,,,,,,,,,,,,,,,,,,,,,,,,,,,,,,,,,,,,,2,0,2,0,1,,,,,,,,,,,,,,,,,,,,,
,,,,,,,,,,,,5f5e7de4c81d3672642cd612,20,Mężczyzna,2022-06-11_09h25.52.020,task,2021.1.4,Win32,59.9268892,6299f149e92ead563fba08ef,62a4433fcb93d3badaec54e0,,,,,,,,,,,,,7,,,,,,,,,,Task,6,(12/2) + 1,7,,,,,,,,,,,,,,,,,,,1,,,,,,,,,,,,,,,,,,,,,,,"[""7""]",1,[2.1967999999998256],0,0,0,5,1,,,,,,,,,,,,,,,,,,,,,,,,,,
,,,,,,,,,,,X V Q F H G B L J M P D K C T S W R N Z,5f5e7de4c81d3672642cd612,20,Mężczyzna,2022-06-11_09h25.52.020,task,2021.1.4,Win32,59.9268892,6299f149e92ead563fba08ef,62a4433fcb93d3badaec54e0,,,,,,,,,,,,,,,,,,,,,,,,,,,,,,,,,,,,,,,,,,,,,,,,,,,,,,,,,,,,,,,,,,,,,,,,,,,,3,0,3,0,1,,,,,,,,,,,,,,,,,,,,,
,,,,,,,,,,,,5f5e7de4c81d3672642cd612,20,Mężczyzna,2022-06-11_09h25.52.020,task,2021.1.4,Win32,59.9268892,6299f149e92ead563fba08ef,62a4433fcb93d3badaec54e0,,,,,,,,,,,,,7,,,,,,,,,,Task,6,(12/2) + 1,7,,,,,,,,,,,,,,,,,,,1,,,,,,,,,,,,,,,,,,,,,,,"[""7""]",1,[2.146800000000326],0,0,0,5,1,,,,,,,,,,,,,,,,,,,,,,,,,,
,,,,,,,,,,,X V Q F H G B L J M P D K C T S W R N Z,5f5e7de4c81d3672642cd612,20,Mężczyzna,2022-06-11_09h25.52.020,task,2021.1.4,Win32,59.9268892,6299f149e92ead563fba08ef,62a4433fcb93d3badaec54e0,,,,,,,,,,,,,,,,,,,,,,,,,,,,,,,,,,,,,,,,,,,,,,,,,,,,,,,,,,,,,,,,,,,,,,,,,,,,4,0,4,0,1,,,,,,,,,,,,,,,,,,,,,
,,,,,,,,,,,,5f5e7de4c81d3672642cd612,20,Mężczyzna,2022-06-11_09h25.52.020,task,2021.1.4,Win32,59.9268892,6299f149e92ead563fba08ef,62a4433fcb93d3badaec54e0,,,,,,,,,,,,,7,,,,,,,,,,Task,15,(3x7) - 13,8,,,,,,,,,,,,,,,,,,,0,,,,,,,,,,,,,,,,,,,,,,,"[""7""]",0,[2.2213999999999032],0,0,0,14,1,,,,,,,,,,,,,,,,,,,,,,,,,,
,,,,,,,,,,,,5f5e7de4c81d3672642cd612,20,Mężczyzna,2022-06-11_09h25.52.020,task,2021.1.4,Win32,59.9268892,6299f149e92ead563fba08ef,62a4433fcb93d3badaec54e0,,,,,,,,,,,,,6,,,,,,,,,,Task,21,(10/2) - 1,4,,,,,,,,,,,,,,,,,,,0,,,,,,,,,,,,,,,,,,,,,,,"[""6""]",0,[1.8840000000000146],0,1,1,20,1,,,,,,,,,,,,,,,,,,,,,,,,,,
,,,,,,,,,,,,5f5e7de4c81d3672642cd612,20,Mężczyzna,2022-06-11_09h25.52.020,task,2021.1.4,Win32,59.9268892,6299f149e92ead563fba08ef,62a4433fcb93d3badaec54e0,,,,,,,,,,,,,6,,,,,,,,,,Task,13,(3x4) - 6,6,,,,,,,,,,,,,,,,,,,1,,,,,,,,,,,,,,,,,,,,,,,"[""6""]",1,[6.004600000000096],0,2,2,12,1,,,,,,,,,,,,,,,,,,,,,,,,,,
,,,,,,,,,,,X V Q F H G B L J M P D K C T S W R N Z,5f5e7de4c81d3672642cd612,20,Mężczyzna,2022-06-11_09h25.52.020,task,2021.1.4,Win32,59.9268892,6299f149e92ead563fba08ef,62a4433fcb93d3badaec54e0,,,,,,,,,,,,,,,,,,,,,,,,,,,,,,,,,,,,,,,,,,,,,,,,,,,,,,,,,,,,,,,,,,,,,,,,,,,,5,0,5,0,1,,,,,,,,,,,,,,,,,,,,,
,,,,,,,,,,,,5f5e7de4c81d3672642cd612,20,Mężczyzna,2022-06-11_09h25.52.020,task,2021.1.4,Win32,59.9268892,6299f149e92ead563fba08ef,62a4433fcb93d3badaec54e0,,,,,,,,,,,,,,,,,,,,,,,,,,,,,,,,,,,,,,,,,,,,,,,,,,,,,,,,,,,,,,,,,,,,,,,,,,,,,,,,,rlhljm,"[""r"",""l"",""h"",""l"",""j"",""m""]",0,"[1.1866000000001122,1.4125000000000227,1.655100000000175,1.9748999999999342,2.2776999999997543,2.4896999999997433,2.952699999999709]",1,RLHLJM,5,0,5,0,1,,,,,,,,,,
,,,,,,,,,,,,5f5e7de4c81d3672642cd612,20,Mężczyzna,2022-06-11_09h25.52.020,task,2021.1.4,Win32,59.9268892,6299f149e92ead563fba08ef,62a4433fcb93d3badaec54e0,,,,,,,,,,,,,4,,,,,,,,,,Task,4,(1x5) - 1,4,,,,,,,,,,,,,,,,,,,1,,,,,,,,,,,,,,,,,,,,,,,"[""4""]",1,[2.161999999999921],0,0,0,3,1,,,,,,,,,,,,,,,,,,,,,,,,,,
,,,,,,,,,,,X V Q F H G B L J M P D K C T S W R N Z,5f5e7de4c81d3672642cd612,20,Mężczyzna,2022-06-11_09h25.52.020,task,2021.1.4,Win32,59.9268892,6299f149e92ead563fba08ef,62a4433fcb93d3badaec54e0,,,,,,,,,,,,,,,,,,,,,,,,,,,,,,,,,,,,,,,,,,,,,,,,,,,,,,,,,,,,,,,,,,,,,,,,,,,,0,0,0,0,1,,,,,,,,,,,,,,,,,,,,,
,,,,,,,,,,,,5f5e7de4c81d3672642cd612,20,Mężczyzna,2022-06-11_09h25.52.020,task,2021.1.4,Win32,59.9268892,6299f149e92ead563fba08ef,62a4433fcb93d3badaec54e0,,,,,,,,,,,,,5,,,,,,,,,,Task,22,(3x1) + 2,5,,,,,,,,,,,,,,,,,,,1,,,,,,,,,,,,,,,,,,,,,,,"[""5""]",1,[2.5607999999997446],0,0,0,21,1,,,,,,,,,,,,,,,,,,,,,,,,,,
,,,,,,,,,,,X V Q F H G B L J M P D K C T S W R N Z,5f5e7de4c81d3672642cd612,20,Mężczyzna,2022-06-11_09h25.52.020,task,2021.1.4,Win32,59.9268892,6299f149e92ead563fba08ef,62a4433fcb93d3badaec54e0,,,,,,,,,,,,,,,,,,,,,,,,,,,,,,,,,,,,,,,,,,,,,,,,,,,,,,,,,,,,,,,,,,,,,,,,,,,,1,0,1,0,1,,,,,,,,,,,,,,,,,,,,,
,,,,,,,,,,,,5f5e7de4c81d3672642cd612,20,Mężczyzna,2022-06-11_09h25.52.020,task,2021.1.4,Win32,59.9268892,6299f149e92ead563fba08ef,62a4433fcb93d3badaec54e0,,,,,,,,,,,,,0,,,,,,,,,,Task,8,(1x5) - 5,0,,,,,,,,,,,,,,,,,,,1,,,,,,,,,,,,,,,,,,,,,,,"[""0""]",1,[1.835400000000277],0,0,0,7,1,,,,,,,,,,,,,,,,,,,,,,,,,,
,,,,,,,,,,,X V Q F H G B L J M P D K C T S W R N Z,5f5e7de4c81d3672642cd612,20,Mężczyzna,2022-06-11_09h25.52.020,task,2021.1.4,Win32,59.9268892,6299f149e92ead563fba08ef,62a4433fcb93d3badaec54e0,,,,,,,,,,,,,,,,,,,,,,,,,,,,,,,,,,,,,,,,,,,,,,,,,,,,,,,,,,,,,,,,,,,,,,,,,,,,2,0,2,0,1,,,,,,,,,,,,,,,,,,,,,
,,,,,,,,,,,,5f5e7de4c81d3672642cd612,20,Mężczyzna,2022-06-11_09h25.52.020,task,2021.1.4,Win32,59.9268892,6299f149e92ead563fba08ef,62a4433fcb93d3badaec54e0,,,,,,,,,,,,,4,,,,,,,,,,Task,28,(2x5) - 6,4,,,,,,,,,,,,,,,,,,,1,,,,,,,,,,,,,,,,,,,,,,,"[""4""]",1,[2.146600000000035],0,0,0,27,1,,,,,,,,,,,,,,,,,,,,,,,,,,
,,,,,,,,,,,X V Q F H G B L J M P D K C T S W R N Z,5f5e7de4c81d3672642cd612,20,Mężczyzna,2022-06-11_09h25.52.020,task,2021.1.4,Win32,59.9268892,6299f149e92ead563fba08ef,62a4433fcb93d3badaec54e0,,,,,,,,,,,,,,,,,,,,,,,,,,,,,,,,,,,,,,,,,,,,,,,,,,,,,,,,,,,,,,,,,,,,,,,,,,,,3,0,3,0,1,,,,,,,,,,,,,,,,,,,,,
,,,,,,,,,,,,5f5e7de4c81d3672642cd612,20,Mężczyzna,2022-06-11_09h25.52.020,task,2021.1.4,Win32,59.9268892,6299f149e92ead563fba08ef,62a4433fcb93d3badaec54e0,,,,,,,,,,,,,5,,,,,,,,,,Task,22,(3x1) + 2,5,,,,,,,,,,,,,,,,,,,1,,,,,,,,,,,,,,,,,,,,,,,"[""5""]",1,[2.651700000000119],0,0,0,21,1,,,,,,,,,,,,,,,,,,,,,,,,,,
,,,,,,,,,,,X V Q F H G B L J M P D K C T S W R N Z,5f5e7de4c81d3672642cd612,20,Mężczyzna,2022-06-11_09h25.52.020,task,2021.1.4,Win32,59.9268892,6299f149e92ead563fba08ef,62a4433fcb93d3badaec54e0,,,,,,,,,,,,,,,,,,,,,,,,,,,,,,,,,,,,,,,,,,,,,,,,,,,,,,,,,,,,,,,,,,,,,,,,,,,,4,0,4,0,1,,,,,,,,,,,,,,,,,,,,,
,,,,,,,,,,,,5f5e7de4c81d3672642cd612,20,Mężczyzna,2022-06-11_09h25.52.020,task,2021.1.4,Win32,59.9268892,6299f149e92ead563fba08ef,62a4433fcb93d3badaec54e0,,,,,,,,,,,,,2,,,,,,,,,,Task,19,(6/2) - 1,2,,,,,,,,,,,,,,,,,,,1,,,,,,,,,,,,,,,,,,,,,,,"[""2""]",1,[4.196700000000192],0,0,0,18,1,,,,,,,,,,,,,,,,,,,,,,,,,,
,,,,,,,,,,,X V Q F H G B L J M P D K C T S W R N Z,5f5e7de4c81d3672642cd612,20,Mężczyzna,2022-06-11_09h25.52.020,task,2021.1.4,Win32,59.9268892,6299f149e92ead563fba08ef,62a4433fcb93d3badaec54e0,,,,,,,,,,,,,,,,,,,,,,,,,,,,,,,,,,,,,,,,,,,,,,,,,,,,,,,,,,,,,,,,,,,,,,,,,,,,5,0,5,0,1,,,,,,,,,,,,,,,,,,,,,
,,,,,,,,,,,,5f5e7de4c81d3672642cd612,20,Mężczyzna,2022-06-11_09h25.52.020,task,2021.1.4,Win32,59.9268892,6299f149e92ead563fba08ef,62a4433fcb93d3badaec54e0,,,,,,,,,,,,,6,,,,,,,,,,Task,37,(3/3) + 5,6,,,,,,,,,,,,,,,,,,,1,,,,,,,,,,,,,,,,,,,,,,,"[""6""]",1,[2.2517000000002554],0,0,0,36,1,,,,,,,,,,,,,,,,,,,,,,,,,,
,,,,,,,,,,,X V Q F H G B L J M P D K C T S W R N Z,5f5e7de4c81d3672642cd612,20,Mężczyzna,2022-06-11_09h25.52.020,task,2021.1.4,Win32,59.9268892,6299f149e92ead563fba08ef,62a4433fcb93d3badaec54e0,,,,,,,,,,,,,,,,,,,,,,,,,,,,,,,,,,,,,,,,,,,,,,,,,,,,,,,,,,,,,,,,,,,,,,,,,,,,6,0,6,0,1,,,,,,,,,,,,,,,,,,,,,
,,,,,,,,,,,,5f5e7de4c81d3672642cd612,20,Mężczyzna,2022-06-11_09h25.52.020,task,2021.1.4,Win32,59.9268892,6299f149e92ead563fba08ef,62a4433fcb93d3badaec54e0,,,,,,,,,,,,,,,,,,,,,,,,,,,,,,,,,,,,,,,,,,,,,,,,,,,,,,,,,,,,,,,,,,,,,,,,,,,,,,,,,kzghddx,"[""k"",""z"",""g"",""h"",""d"",""d"",""x""]",0,"[1.7456000000000813,2.103299999999763,2.7632999999998447,3.776799999999753,4.078799999999774,4.2496000000001,4.467399999999884,4.758600000000115]",1,KZGHDDX,6,0,6,0,1,,,,,,,,,,
,,,,,,,,,,,,5f5e7de4c81d3672642cd612,20,Mężczyzna,2022-06-11_09h25.52.020,task,2021.1.4,Win32,59.9268892,6299f149e92ead563fba08ef,62a4433fcb93d3badaec54e0,,,,,,,,,,,,,4,,,,,,,,,,Task,4,(1x5) - 1,4,,,,,,,,,,,,,,,,,,,1,,,,,,,,,,,,,,,,,,,,,,,"[""4""]",1,[2.2153000000002976],0,0,0,3,1,,,,,,,,,,,,,,,,,,,,,,,,,,
,,,,,,,,,,,X V Q F H G B L J M P D K C T S W R N Z,5f5e7de4c81d3672642cd612,20,Mężczyzna,2022-06-11_09h25.52.020,task,2021.1.4,Win32,59.9268892,6299f149e92ead563fba08ef,62a4433fcb93d3badaec54e0,,,,,,,,,,,,,,,,,,,,,,,,,,,,,,,,,,,,,,,,,,,,,,,,,,,,,,,,,,,,,,,,,,,,,,,,,,,,0,0,0,0,1,,,,,,,,,,,,,,,,,,,,,
,,,,,,,,,,,,5f5e7de4c81d3672642cd612,20,Mężczyzna,2022-06-11_09h25.52.020,task,2021.1.4,Win32,59.9268892,6299f149e92ead563fba08ef,62a4433fcb93d3badaec54e0,,,,,,,,,,,,,8,,,,,,,,,,Task,39,(5x3) - 7,8,,,,,,,,,,,,,,,,,,,1,,,,,,,,,,,,,,,,,,,,,,,"[""8""]",1,[4.6192999999997255],0,0,0,38,1,,,,,,,,,,,,,,,,,,,,,,,,,,
,,,,,,,,,,,X V Q F H G B L J M P D K C T S W R N Z,5f5e7de4c81d3672642cd612,20,Mężczyzna,2022-06-11_09h25.52.020,task,2021.1.4,Win32,59.9268892,6299f149e92ead563fba08ef,62a4433fcb93d3badaec54e0,,,,,,,,,,,,,,,,,,,,,,,,,,,,,,,,,,,,,,,,,,,,,,,,,,,,,,,,,,,,,,,,,,,,,,,,,,,,1,0,1,0,1,,,,,,,,,,,,,,,,,,,,,
,,,,,,,,,,,,5f5e7de4c81d3672642cd612,20,Mężczyzna,2022-06-11_09h25.52.020,task,2021.1.4,Win32,59.9268892,6299f149e92ead563fba08ef,62a4433fcb93d3badaec54e0,,,,,,,,,,,,,3,,,,,,,,,,Task,26,(2x9) - 16,2,,,,,,,,,,,,,,,,,,,0,,,,,,,,,,,,,,,,,,,,,,,"[""3""]",0,[2.354400000000396],0,0,0,25,1,,,,,,,,,,,,,,,,,,,,,,,,,,
,,,,,,,,,,,,5f5e7de4c81d3672642cd612,20,Mężczyzna,2022-06-11_09h25.52.020,task,2021.1.4,Win32,59.9268892,6299f149e92ead563fba08ef,62a4433fcb93d3badaec54e0,,,,,,,,,,,,,8,,,,,,,,,,Task,39,(5x3) - 7,8,,,,,,,,,,,,,,,,,,,1,,,,,,,,,,,,,,,,,,,,,,,"[""8""]",1,[3.8242000000001326],0,1,1,38,1,,,,,,,,,,,,,,,,,,,,,,,,,,
,,,,,,,,,,,X V Q F H G B L J M P D K C T S W R N Z,5f5e7de4c81d3672642cd612,20,Mężczyzna,2022-06-11_09h25.52.020,task,2021.1.4,Win32,59.9268892,6299f149e92ead563fba08ef,62a4433fcb93d3badaec54e0,,,,,,,,,,,,,,,,,,,,,,,,,,,,,,,,,,,,,,,,,,,,,,,,,,,,,,,,,,,,,,,,,,,,,,,,,,,,2,0,2,0,1,,,,,,,,,,,,,,,,,,,,,
,,,,,,,,,,,,5f5e7de4c81d3672642cd612,20,Mężczyzna,2022-06-11_09h25.52.020,task,2021.1.4,Win32,59.9268892,6299f149e92ead563fba08ef,62a4433fcb93d3badaec54e0,,,,,,,,,,,,,0,,,,,,,,,,Task,33,(1/1) - 1,0,,,,,,,,,,,,,,,,,,,1,,,,,,,,,,,,,,,,,,,,,,,"[""0""]",1,[1.4316000000001168],0,0,0,32,1,,,,,,,,,,,,,,,,,,,,,,,,,,
,,,,,,,,,,,X V Q F H G B L J M P D K C T S W R N Z,5f5e7de4c81d3672642cd612,20,Mężczyzna,2022-06-11_09h25.52.020,task,2021.1.4,Win32,59.9268892,6299f149e92ead563fba08ef,62a4433fcb93d3badaec54e0,,,,,,,,,,,,,,,,,,,,,,,,,,,,,,,,,,,,,,,,,,,,,,,,,,,,,,,,,,,,,,,,,,,,,,,,,,,,3,0,3,0,1,,,,,,,,,,,,,,,,,,,,,
,,,,,,,,,,,,5f5e7de4c81d3672642cd612,20,Mężczyzna,2022-06-11_09h25.52.020,task,2021.1.4,Win32,59.9268892,6299f149e92ead563fba08ef,62a4433fcb93d3badaec54e0,,,,,,,,,,,,,0,,,,,,,,,,Task,8,(1x5) - 5,0,,,,,,,,,,,,,,,,,,,1,,,,,,,,,,,,,,,,,,,,,,,"[""0""]",1,[3.6497999999996864],0,0,0,7,1,,,,,,,,,,,,,,,,,,,,,,,,,,
,,,,,,,,,,,X V Q F H G B L J M P D K C T S W R N Z,5f5e7de4c81d3672642cd612,20,Mężczyzna,2022-06-11_09h25.52.020,task,2021.1.4,Win32,59.9268892,6299f149e92ead563fba08ef,62a4433fcb93d3badaec54e0,,,,,,,,,,,,,,,,,,,,,,,,,,,,,,,,,,,,,,,,,,,,,,,,,,,,,,,,,,,,,,,,,,,,,,,,,,,,4,0,4,0,1,,,,,,,,,,,,,,,,,,,,,
,,,,,,,,,,,,5f5e7de4c81d3672642cd612,20,Mężczyzna,2022-06-11_09h25.52.020,task,2021.1.4,Win32,59.9268892,6299f149e92ead563fba08ef,62a4433fcb93d3badaec54e0,,,,,,,,,,,,,4,,,,,,,,,,Task,21,(10/2) - 1,4,,,,,,,,,,,,,,,,,,,1,,,,,,,,,,,,,,,,,,,,,,,"[""4""]",1,[3.8585999999995693],0,0,0,20,1,,,,,,,,,,,,,,,,,,,,,,,,,,
,,,,,,,,,,,X V Q F H G B L J M P D K C T S W R N Z,5f5e7de4c81d3672642cd612,20,Mężczyzna,2022-06-11_09h25.52.020,task,2021.1.4,Win32,59.9268892,6299f149e92ead563fba08ef,62a4433fcb93d3badaec54e0,,,,,,,,,,,,,,,,,,,,,,,,,,,,,,,,,,,,,,,,,,,,,,,,,,,,,,,,,,,,,,,,,,,,,,,,,,,,5,0,5,0,1,,,,,,,,,,,,,,,,,,,,,
,,,,,,,,,,,,5f5e7de4c81d3672642cd612,20,Mężczyzna,2022-06-11_09h25.52.020,task,2021.1.4,Win32,59.9268892,6299f149e92ead563fba08ef,62a4433fcb93d3badaec54e0,,,,,,,,,,,,,4,,,,,,,,,,Task,21,(10/2) - 1,4,,,,,,,,,,,,,,,,,,,1,,,,,,,,,,,,,,,,,,,,,,,"[""4""]",1,[1.8958999999999833],0,0,0,20,1,,,,,,,,,,,,,,,,,,,,,,,,,,
,,,,,,,,,,,X V Q F H G B L J M P D K C T S W R N Z,5f5e7de4c81d3672642cd612,20,Mężczyzna,2022-06-11_09h25.52.020,task,2021.1.4,Win32,59.9268892,6299f149e92ead563fba08ef,62a4433fcb93d3badaec54e0,,,,,,,,,,,,,,,,,,,,,,,,,,,,,,,,,,,,,,,,,,,,,,,,,,,,,,,,,,,,,,,,,,,,,,,,,,,,6,0,6,0,1,,,,,,,,,,,,,,,,,,,,,
,,,,,,,,,,,,5f5e7de4c81d3672642cd612,20,Mężczyzna,2022-06-11_09h25.52.020,task,2021.1.4,Win32,59.9268892,6299f149e92ead563fba08ef,62a4433fcb93d3badaec54e0,,,,,,,,,,,,,4,,,,,,,,,,Task,28,(2x5) - 6,4,,,,,,,,,,,,,,,,,,,1,,,,,,,,,,,,,,,,,,,,,,,"[""4""]",1,[4.098899999999958],0,0,0,27,1,,,,,,,,,,,,,,,,,,,,,,,,,,
,,,,,,,,,,,X V Q F H G B L J M P D K C T S W R N Z,5f5e7de4c81d3672642cd612,20,Mężczyzna,2022-06-11_09h25.52.020,task,2021.1.4,Win32,59.9268892,6299f149e92ead563fba08ef,62a4433fcb93d3badaec54e0,,,,,,,,,,,,,,,,,,,,,,,,,,,,,,,,,,,,,,,,,,,,,,,,,,,,,,,,,,,,,,,,,,,,,,,,,,,,7,0,7,0,1,,,,,,,,,,,,,,,,,,,,,
,,,,,,,,,,,,5f5e7de4c81d3672642cd612,20,Mężczyzna,2022-06-11_09h25.52.020,task,2021.1.4,Win32,59.9268892,6299f149e92ead563fba08ef,62a4433fcb93d3badaec54e0,,,,,,,,,,,,,,,,,,,,,,,,,,,,,,,,,,,,,,,,,,,,,,,,,,,,,,,,,,,,,,,,,,,,,,,,,,,,,,,,,hztgvwrt,"[""h"",""z"",""t"",""g"",""v"",""w"",""r"",""t""]",0,"[1.46120000000019,1.580600000000004,1.8663000000001375,2.918400000000247,3.4401000000000295,3.773400000000265,4.244500000000016,5.260600000000068,5.761999999999944]",0,HXTGVWRH,7,0,7,0,1,,,,,,,,,,
,,,,,,,,,,,,5f5e7de4c81d3672642cd612,20,Mężczyzna,2022-06-11_09h25.52.020,task,2021.1.4,Win32,59.9268892,6299f149e92ead563fba08ef,62a4433fcb93d3badaec54e0,,,,,,,,,,,,,4,,,,,,,,,,Task,11,(18/3) - 2,4,,,,,,,,,,,,,,,,,,,1,,,,,,,,,,,,,,,,,,,,,,,"[""4""]",1,[4.121000000000095],0,0,0,10,1,,,,,,,,,,,,,,,,,,,,,,,,,,
,,,,,,,,,,,X V Q F H G B L J M P D K C T S W R N Z,5f5e7de4c81d3672642cd612,20,Mężczyzna,2022-06-11_09h25.52.020,task,2021.1.4,Win32,59.9268892,6299f149e92ead563fba08ef,62a4433fcb93d3badaec54e0,,,,,,,,,,,,,,,,,,,,,,,,,,,,,,,,,,,,,,,,,,,,,,,,,,,,,,,,,,,,,,,,,,,,,,,,,,,,0,0,0,0,1,,,,,,,,,,,,,,,,,,,,,
,,,,,,,,,,,,5f5e7de4c81d3672642cd612,20,Mężczyzna,2022-06-11_09h25.52.020,task,2021.1.4,Win32,59.9268892,6299f149e92ead563fba08ef,62a4433fcb93d3badaec54e0,,,,,,,,,,,,,7,,,,,,,,,,Task,38,(4x6) - 17,7,,,,,,,,,,,,,,,,,,,1,,,,,,,,,,,,,,,,,,,,,,,"[""7""]",1,[5.148899999999912],0,0,0,37,1,,,,,,,,,,,,,,,,,,,,,,,,,,
,,,,,,,,,,,X V Q F H G B L J M P D K C T S W R N Z,5f5e7de4c81d3672642cd612,20,Mężczyzna,2022-06-11_09h25.52.020,task,2021.1.4,Win32,59.9268892,6299f149e92ead563fba08ef,62a4433fcb93d3badaec54e0,,,,,,,,,,,,,,,,,,,,,,,,,,,,,,,,,,,,,,,,,,,,,,,,,,,,,,,,,,,,,,,,,,,,,,,,,,,,1,0,1,0,1,,,,,,,,,,,,,,,,,,,,,
,,,,,,,,,,,,5f5e7de4c81d3672642cd612,20,Mężczyzna,2022-06-11_09h25.52.020,task,2021.1.4,Win32,59.9268892,6299f149e92ead563fba08ef,62a4433fcb93d3badaec54e0,,,,,,,,,,,,,8,,,,,,,,,,Task,23,(2x3) + 2,8,,,,,,,,,,,,,,,,,,,1,,,,,,,,,,,,,,,,,,,,,,,"[""8""]",1,[2.3530999999995856],0,0,0,22,1,,,,,,,,,,,,,,,,,,,,,,,,,,
,,,,,,,,,,,X V Q F H G B L J M P D K C T S W R N Z,5f5e7de4c81d3672642cd612,20,Mężczyzna,2022-06-11_09h25.52.020,task,2021.1.4,Win32,59.9268892,6299f149e92ead563fba08ef,62a4433fcb93d3badaec54e0,,,,,,,,,,,,,,,,,,,,,,,,,,,,,,,,,,,,,,,,,,,,,,,,,,,,,,,,,,,,,,,,,,,,,,,,,,,,2,0,2,0,1,,,,,,,,,,,,,,,,,,,,,
,,,,,,,,,,,,5f5e7de4c81d3672642cd612,20,Mężczyzna,2022-06-11_09h25.52.020,task,2021.1.4,Win32,59.9268892,6299f149e92ead563fba08ef,62a4433fcb93d3badaec54e0,,,,,,,,,,,,,7,,,,,,,,,,Task,14,(2x2) + 3,7,,,,,,,,,,,,,,,,,,,1,,,,,,,,,,,,,,,,,,,,,,,"[""7""]",1,[3.556699999999637],0,0,0,13,1,,,,,,,,,,,,,,,,,,,,,,,,,,
,,,,,,,,,,,X V Q F H G B L J M P D K C T S W R N Z,5f5e7de4c81d3672642cd612,20,Mężczyzna,2022-06-11_09h25.52.020,task,2021.1.4,Win32,59.9268892,6299f149e92ead563fba08ef,62a4433fcb93d3badaec54e0,,,,,,,,,,,,,,,,,,,,,,,,,,,,,,,,,,,,,,,,,,,,,,,,,,,,,,,,,,,,,,,,,,,,,,,,,,,,3,0,3,0,1,,,,,,,,,,,,,,,,,,,,,
,,,,,,,,,,,,5f5e7de4c81d3672642cd612,20,Mężczyzna,2022-06-11_09h25.52.020,task,2021.1.4,Win32,59.9268892,6299f149e92ead563fba08ef,62a4433fcb93d3badaec54e0,,,,,,,,,,,,,0,,,,,,,,,,Task,17,(2x3) - 6,0,,,,,,,,,,,,,,,,,,,1,,,,,,,,,,,,,,,,,,,,,,,"[""0""]",1,[1.5851999999995314],0,0,0,16,1,,,,,,,,,,,,,,,,,,,,,,,,,,
,,,,,,,,,,,X V Q F H G B L J M P D K C T S W R N Z,5f5e7de4c81d3672642cd612,20,Mężczyzna,2022-06-11_09h25.52.020,task,2021.1.4,Win32,59.9268892,6299f149e92ead563fba08ef,62a4433fcb93d3badaec54e0,,,,,,,,,,,,,,,,,,,,,,,,,,,,,,,,,,,,,,,,,,,,,,,,,,,,,,,,,,,,,,,,,,,,,,,,,,,,4,0,4,0,1,,,,,,,,,,,,,,,,,,,,,
,,,,,,,,,,,,5f5e7de4c81d3672642cd612,20,Mężczyzna,2022-06-11_09h25.52.020,task,2021.1.4,Win32,59.9268892,6299f149e92ead563fba08ef,62a4433fcb93d3badaec54e0,,,,,,,,,,,,,2,,,,,,,,,,Task,10,(2x5) - 8,2,,,,,,,,,,,,,,,,,,,1,,,,,,,,,,,,,,,,,,,,,,,"[""2""]",1,[1.9798000000002958],0,0,0,9,1,,,,,,,,,,,,,,,,,,,,,,,,,,
,,,,,,,,,,,X V Q F H G B L J M P D K C T S W R N Z,5f5e7de4c81d3672642cd612,20,Mężczyzna,2022-06-11_09h25.52.020,task,2021.1.4,Win32,59.9268892,6299f149e92ead563fba08ef,62a4433fcb93d3badaec54e0,,,,,,,,,,,,,,,,,,,,,,,,,,,,,,,,,,,,,,,,,,,,,,,,,,,,,,,,,,,,,,,,,,,,,,,,,,,,5,0,5,0,1,,,,,,,,,,,,,,,,,,,,,
,,,,,,,,,,,,5f5e7de4c81d3672642cd612,20,Mężczyzna,2022-06-11_09h25.52.020,task,2021.1.4,Win32,59.9268892,6299f149e92ead563fba08ef,62a4433fcb93d3badaec54e0,,,,,,,,,,,,,5,,,,,,,,,,Task,22,(3x1) + 2,5,,,,,,,,,,,,,,,,,,,1,,,,,,,,,,,,,,,,,,,,,,,"[""5""]",1,[5.913499999999885],0,0,0,21,1,,,,,,,,,,,,,,,,,,,,,,,,,,
,,,,,,,,,,,X V Q F H G B L J M P D K C T S W R N Z,5f5e7de4c81d3672642cd612,20,Mężczyzna,2022-06-11_09h25.52.020,task,2021.1.4,Win32,59.9268892,6299f149e92ead563fba08ef,62a4433fcb93d3badaec54e0,,,,,,,,,,,,,,,,,,,,,,,,,,,,,,,,,,,,,,,,,,,,,,,,,,,,,,,,,,,,,,,,,,,,,,,,,,,,6,0,6,0,1,,,,,,,,,,,,,,,,,,,,,
,,,,,,,,,,,,5f5e7de4c81d3672642cd612,20,Mężczyzna,2022-06-11_09h25.52.020,task,2021.1.4,Win32,59.9268892,6299f149e92ead563fba08ef,62a4433fcb93d3badaec54e0,,,,,,,,,,,,,2,,,,,,,,,,Task,2,(2x2) - 2,2,,,,,,,,,,,,,,,,,,,1,,,,,,,,,,,,,,,,,,,,,,,"[""2""]",1,[1.5544999999999618],0,0,0,1,1,,,,,,,,,,,,,,,,,,,,,,,,,,
,,,,,,,,,,,X V Q F H G B L J M P D K C T S W R N Z,5f5e7de4c81d3672642cd612,20,Mężczyzna,2022-06-11_09h25.52.020,task,2021.1.4,Win32,59.9268892,6299f149e92ead563fba08ef,62a4433fcb93d3badaec54e0,,,,,,,,,,,,,,,,,,,,,,,,,,,,,,,,,,,,,,,,,,,,,,,,,,,,,,,,,,,,,,,,,,,,,,,,,,,,7,0,7,0,1,,,,,,,,,,,,,,,,,,,,,
,,,,,,,,,,,,5f5e7de4c81d3672642cd612,20,Mężczyzna,2022-06-11_09h25.52.020,task,2021.1.4,Win32,59.9268892,6299f149e92ead563fba08ef,62a4433fcb93d3badaec54e0,,,,,,,,,,,,,,,,,,,,,,,,,,,,,,,,,,,,,,,,,,,,,,,,,,,,,,,,,,,,,,,,,,,,,,,,,,,,,,,,,hxwcddbj,"[""h"",""x"",""w"",""c"",""d"",""d"",""b"",""j""]",0,"[1.6965000000000146,1.9941000000001168,2.219000000000051,2.478199999999788,2.714699999999766,2.8931999999997515,3.289299999999912,3.4197999999998956,3.6820000000000164]",1,HXWCDDBJ,8,0,8,0,1,,,,,,,,,,
,,,,,,,,,,,,5f5e7de4c81d3672642cd612,20,Mężczyzna,2022-06-11_09h25.52.020,task,2021.1.4,Win32,59.9268892,6299f149e92ead563fba08ef,62a4433fcb93d3badaec54e0,,,,,,,,,,,,,8,,,,,,,,,,Task,39,(5x3) - 7,8,,,,,,,,,,,,,,,,,,,1,,,,,,,,,,,,,,,,,,,,,,,"[""8""]",1,[3.1936999999995805],0,0,0,38,1,,,,,,,,,,,,,,,,,,,,,,,,,,
,,,,,,,,,,,X V Q F H G B L J M P D K C T S W R N Z,5f5e7de4c81d3672642cd612,20,Mężczyzna,2022-06-11_09h25.52.020,task,2021.1.4,Win32,59.9268892,6299f149e92ead563fba08ef,62a4433fcb93d3badaec54e0,,,,,,,,,,,,,,,,,,,,,,,,,,,,,,,,,,,,,,,,,,,,,,,,,,,,,,,,,,,,,,,,,,,,,,,,,,,,0,0,0,0,1,,,,,,,,,,,,,,,,,,,,,
,,,,,,,,,,,,5f5e7de4c81d3672642cd612,20,Mężczyzna,2022-06-11_09h25.52.020,task,2021.1.4,Win32,59.9268892,6299f149e92ead563fba08ef,62a4433fcb93d3badaec54e0,,,,,,,,,,,,,0,,,,,,,,,,Task,33,(1/1) - 1,0,,,,,,,,,,,,,,,,,,,1,,,,,,,,,,,,,,,,,,,,,,,"[""0""]",1,[1.2964000000004035],0,0,0,32,1,,,,,,,,,,,,,,,,,,,,,,,,,,
,,,,,,,,,,,X V Q F H G B L J M P D K C T S W R N Z,5f5e7de4c81d3672642cd612,20,Mężczyzna,2022-06-11_09h25.52.020,task,2021.1.4,Win32,59.9268892,6299f149e92ead563fba08ef,62a4433fcb93d3badaec54e0,,,,,,,,,,,,,,,,,,,,,,,,,,,,,,,,,,,,,,,,,,,,,,,,,,,,,,,,,,,,,,,,,,,,,,,,,,,,1,0,1,0,1,,,,,,,,,,,,,,,,,,,,,
,,,,,,,,,,,,5f5e7de4c81d3672642cd612,20,Mężczyzna,2022-06-11_09h25.52.020,task,2021.1.4,Win32,59.9268892,6299f149e92ead563fba08ef,62a4433fcb93d3badaec54e0,,,,,,,,,,,,,4,,,,,,,,,,Task,28,(2x5) - 6,4,,,,,,,,,,,,,,,,,,,1,,,,,,,,,,,,,,,,,,,,,,,"[""4""]",1,[2.168400000000247],0,0,0,27,1,,,,,,,,,,,,,,,,,,,,,,,,,,
,,,,,,,,,,,X V Q F H G B L J M P D K C T S W R N Z,5f5e7de4c81d3672642cd612,20,Mężczyzna,2022-06-11_09h25.52.020,task,2021.1.4,Win32,59.9268892,6299f149e92ead563fba08ef,62a4433fcb93d3badaec54e0,,,,,,,,,,,,,,,,,,,,,,,,,,,,,,,,,,,,,,,,,,,,,,,,,,,,,,,,,,,,,,,,,,,,,,,,,,,,2,0,2,0,1,,,,,,,,,,,,,,,,,,,,,
,,,,,,,,,,,,5f5e7de4c81d3672642cd612,20,Mężczyzna,2022-06-11_09h25.52.020,task,2021.1.4,Win32,59.9268892,6299f149e92ead563fba08ef,62a4433fcb93d3badaec54e0,,,,,,,,,,,,,1,,,,,,,,,,Task,9,(3x7) - 20,1,,,,,,,,,,,,,,,,,,,1,,,,,,,,,,,,,,,,,,,,,,,"[""1""]",1,[3.803200000000288],0,0,0,8,1,,,,,,,,,,,,,,,,,,,,,,,,,,
,,,,,,,,,,,X V Q F H G B L J M P D K C T S W R N Z,5f5e7de4c81d3672642cd612,20,Mężczyzna,2022-06-11_09h25.52.020,task,2021.1.4,Win32,59.9268892,6299f149e92ead563fba08ef,62a4433fcb93d3badaec54e0,,,,,,,,,,,,,,,,,,,,,,,,,,,,,,,,,,,,,,,,,,,,,,,,,,,,,,,,,,,,,,,,,,,,,,,,,,,,3,0,3,0,1,,,,,,,,,,,,,,,,,,,,,
,,,,,,,,,,,,5f5e7de4c81d3672642cd612,20,Mężczyzna,2022-06-11_09h25.52.020,task,2021.1.4,Win32,59.9268892,6299f149e92ead563fba08ef,62a4433fcb93d3badaec54e0,,,,,,,,,,,,,2,,,,,,,,,,Task,19,(6/2) - 1,2,,,,,,,,,,,,,,,,,,,1,,,,,,,,,,,,,,,,,,,,,,,"[""2""]",1,[3.470800000000281],0,0,0,18,1,,,,,,,,,,,,,,,,,,,,,,,,,,
,,,,,,,,,,,X V Q F H G B L J M P D K C T S W R N Z,5f5e7de4c81d3672642cd612,20,Mężczyzna,2022-06-11_09h25.52.020,task,2021.1.4,Win32,59.9268892,6299f149e92ead563fba08ef,62a4433fcb93d3badaec54e0,,,,,,,,,,,,,,,,,,,,,,,,,,,,,,,,,,,,,,,,,,,,,,,,,,,,,,,,,,,,,,,,,,,,,,,,,,,,4,0,4,0,1,,,,,,,,,,,,,,,,,,,,,
,,,,,,,,,,,,5f5e7de4c81d3672642cd612,20,Mężczyzna,2022-06-11_09h25.52.020,task,2021.1.4,Win32,59.9268892,6299f149e92ead563fba08ef,62a4433fcb93d3badaec54e0,,,,,,,,,,,,,0,,,,,,,,,,Task,33,(1/1) - 1,0,,,,,,,,,,,,,,,,,,,1,,,,,,,,,,,,,,,,,,,,,,,"[""0""]",1,[1.4652999999996155],0,0,0,32,1,,,,,,,,,,,,,,,,,,,,,,,,,,
,,,,,,,,,,,X V Q F H G B L J M P D K C T S W R N Z,5f5e7de4c81d3672642cd612,20,Mężczyzna,2022-06-11_09h25.52.020,task,2021.1.4,Win32,59.9268892,6299f149e92ead563fba08ef,62a4433fcb93d3badaec54e0,,,,,,,,,,,,,,,,,,,,,,,,,,,,,,,,,,,,,,,,,,,,,,,,,,,,,,,,,,,,,,,,,,,,,,,,,,,,5,0,5,0,1,,,,,,,,,,,,,,,,,,,,,
,,,,,,,,,,,,5f5e7de4c81d3672642cd612,20,Mężczyzna,2022-06-11_09h25.52.020,task,2021.1.4,Win32,59.9268892,6299f149e92ead563fba08ef,62a4433fcb93d3badaec54e0,,,,,,,,,,,,,5,,,,,,,,,,Task,12,(4x4) - 11,5,,,,,,,,,,,,,,,,,,,1,,,,,,,,,,,,,,,,,,,,,,,"[""5""]",1,[6.878400000000056],0,0,0,11,1,,,,,,,,,,,,,,,,,,,,,,,,,,
,,,,,,,,,,,X V Q F H G B L J M P D K C T S W R N Z,5f5e7de4c81d3672642cd612,20,Mężczyzna,2022-06-11_09h25.52.020,task,2021.1.4,Win32,59.9268892,6299f149e92ead563fba08ef,62a4433fcb93d3badaec54e0,,,,,,,,,,,,,,,,,,,,,,,,,,,,,,,,,,,,,,,,,,,,,,,,,,,,,,,,,,,,,,,,,,,,,,,,,,,,6,0,6,0,1,,,,,,,,,,,,,,,,,,,,,
,,,,,,,,,,,,5f5e7de4c81d3672642cd612,20,Mężczyzna,2022-06-11_09h25.52.020,task,2021.1.4,Win32,59.9268892,6299f149e92ead563fba08ef,62a4433fcb93d3badaec54e0,,,,,,,,,,,,,2,,,,,,,,,,Task,2,(2x2) - 2,2,,,,,,,,,,,,,,,,,,,1,,,,,,,,,,,,,,,,,,,,,,,"[""2""]",1,[2.7127000000000407],0,0,0,1,1,,,,,,,,,,,,,,,,,,,,,,,,,,
,,,,,,,,,,,X V Q F H G B L J M P D K C T S W R N Z,5f5e7de4c81d3672642cd612,20,Mężczyzna,2022-06-11_09h25.52.020,task,2021.1.4,Win32,59.9268892,6299f149e92ead563fba08ef,62a4433fcb93d3badaec54e0,,,,,,,,,,,,,,,,,,,,,,,,,,,,,,,,,,,,,,,,,,,,,,,,,,,,,,,,,,,,,,,,,,,,,,,,,,,,7,0,7,0,1,,,,,,,,,,,,,,,,,,,,,
,,,,,,,,,,,,5f5e7de4c81d3672642cd612,20,Mężczyzna,2022-06-11_09h25.52.020,task,2021.1.4,Win32,59.9268892,6299f149e92ead563fba08ef,62a4433fcb93d3badaec54e0,,,,,,,,,,,,,1,,,,,,,,,,Task,9,(3x7) - 20,1,,,,,,,,,,,,,,,,,,,1,,,,,,,,,,,,,,,,,,,,,,,"[""1""]",1,[6.176600000000235],0,0,0,8,1,,,,,,,,,,,,,,,,,,,,,,,,,,
,,,,,,,,,,,X V Q F H G B L J M P D K C T S W R N Z,5f5e7de4c81d3672642cd612,20,Mężczyzna,2022-06-11_09h25.52.020,task,2021.1.4,Win32,59.9268892,6299f149e92ead563fba08ef,62a4433fcb93d3badaec54e0,,,,,,,,,,,,,,,,,,,,,,,,,,,,,,,,,,,,,,,,,,,,,,,,,,,,,,,,,,,,,,,,,,,,,,,,,,,,8,0,8,0,1,,,,,,,,,,,,,,,,,,,,,
,,,,,,,,,,,,5f5e7de4c81d3672642cd612,20,Mężczyzna,2022-06-11_09h25.52.020,task,2021.1.4,Win32,59.9268892,6299f149e92ead563fba08ef,62a4433fcb93d3badaec54e0,,,,,,,,,,,,,,,,,,,,,,,,,,,,,,,,,,,,,,,,,,,,,,,,,,,,,,,,,,,,,,,,,,,,,,,,,,,,,,,,,jkphgszszw,"[""j"",""k"",""p"",""h"",""g"",""s"",""z"",""s"",""z"",""w""]",0,"[1.5534000000000106,1.828000000000202,2.7027999999997974,3.01279999999997,3.5916000000001986,3.9636000000002696,4.28919999999971,6.494199999999864,7.244000000000142,7.632500000000164,7.88130000000001]",0,JHPGSBSZW,9,0,9,0,1,,,,,,,,,,
