key_resp_15.keys,key_resp_15.rt,key_resp_13.keys,key_resp_13.corr,key_resp_13.rt,ranodm_loop.thisRepN,ranodm_loop.thisTrialN,ranodm_loop.thisN,ranodm_loop.thisIndex,ranodm_loop.ran,participant,Wiek*,Płeć,date,expName,psychopyVersion,OS,frameRate,study_id,session,key_resp_16.keys,key_resp_16.rt,key_resp_4.keys,key_resp_4.rt,next_letter.thisRepN,next_letter.thisTrialN,next_letter.thisN,next_letter.thisIndex,next_letter.ran,letter,simple_recall,key_resp_5.keys,key_resp_5.rt,simple_recall_corr,simple_recall_corrkeys,next_level.thisRepN,next_level.thisTrialN,next_level.thisN,next_level.thisIndex,next_level.ran,key_resp_2.keys,key_resp_2.rt,digit_answer,key_resp.keys,key_resp.corr,key_resp.rt,RT_list,next_equation.thisRepN,next_equation.thisTrialN,next_equation.thisN,next_equation.thisIndex,next_equation.ran,Task,Trial,Problem,Operation_answer,processing_score,sumRT,meanRT,sumdiff,sd,RT,key_resp_3.keys,key_resp_3.rt,repeat_practice.thisRepN,repeat_practice.thisTrialN,repeat_practice.thisN,repeat_practice.thisIndex,repeat_practice.ran,key_resp_6.keys,key_resp_6.rt,key_resp_11.keys,key_resp_11.corr,key_resp_11.rt,operation_correct,repeat_if_wrong_prac.thisRepN,repeat_if_wrong_prac.thisTrialN,repeat_if_wrong_prac.thisN,repeat_if_wrong_prac.thisIndex,repeat_if_wrong_prac.ran,span_size_prac.thisRepN,span_size_prac.thisTrialN,span_size_prac.thisN,span_size_prac.thisIndex,span_size_prac.ran,complex_recall_practice,key_resp_9.keys,key_resp_9.corr,key_resp_9.rt,complex_prac_corr,span_recall_prac.thisRepN,span_recall_prac.thisTrialN,span_recall_prac.thisN,span_recall_prac.thisIndex,span_recall_prac.ran,key_resp_10.keys,key_resp_10.rt,key_resp_7.keys,key_resp_7.corr,key_resp_7.rt,repeat_if_wrong.thisRepN,repeat_if_wrong.thisTrialN,repeat_if_wrong.thisN,repeat_if_wrong.thisIndex,repeat_if_wrong.ran,span_size.thisRepN,span_size.thisTrialN,span_size.thisN,span_size.thisIndex,span_size.ran,complex_recall,key_resp_8.keys,key_resp_8.corr,key_resp_8.rt,complex_recall_corr,complex_recall_corrkeys,span_recall.thisRepN,span_recall.thisTrialN,span_recall.thisN,span_recall.thisIndex,span_recall.ran,key_resp_12.keys,key_resp_12.rt
space,14.4499,"[""period""]",0,[1.0592999992370622],0,0,0,0,1,5f61d8946a529c04bdffd02d,18,Mężczyzna,2022-06-04_09h37.20.345,task,2021.1.4,Win32,60.36095853,628b806c463b948bc644b84f,629afece692063e219f8d5b1,,,,,,,,,,,,,,,,,,,,,,,,,,,,,,,,,,,,,,,,,,,,,,,,,,,,,,,,,,,,,,,,,,,,,,,,,,,,,,,,,,,,,,,,,,,,,,,,,,,,,,,
,,"[""comma""]",0,[1.2838999996185336],1,0,1,0,1,5f61d8946a529c04bdffd02d,18,Mężczyzna,2022-06-04_09h37.20.345,task,2021.1.4,Win32,60.36095853,628b806c463b948bc644b84f,629afece692063e219f8d5b1,,,,,,,,,,,,,,,,,,,,,,,,,,,,,,,,,,,,,,,,,,,,,,,,,,,,,,,,,,,,,,,,,,,,,,,,,,,,,,,,,,,,,,,,,,,,,,,,,,,,,,,
,,"[""comma""]",0,[1.2711000003814732],2,0,2,0,1,5f61d8946a529c04bdffd02d,18,Mężczyzna,2022-06-04_09h37.20.345,task,2021.1.4,Win32,60.36095853,628b806c463b948bc644b84f,629afece692063e219f8d5b1,,,,,,,,,,,,,,,,,,,,,,,,,,,,,,,,,,,,,,,,,,,,,,,,,,,,,,,,,,,,,,,,,,,,,,,,,,,,,,,,,,,,,,,,,,,,,,,,,,,,,,,
,,"[""period""]",0,[1.452699999809262],3,0,3,0,1,5f61d8946a529c04bdffd02d,18,Mężczyzna,2022-06-04_09h37.20.345,task,2021.1.4,Win32,60.36095853,628b806c463b948bc644b84f,629afece692063e219f8d5b1,,,,,,,,,,,,,,,,,,,,,,,,,,,,,,,,,,,,,,,,,,,,,,,,,,,,,,,,,,,,,,,,,,,,,,,,,,,,,,,,,,,,,,,,,,,,,,,,,,,,,,,
,,"[""comma""]",0,[1.1048000001907283],4,0,4,0,1,5f61d8946a529c04bdffd02d,18,Mężczyzna,2022-06-04_09h37.20.345,task,2021.1.4,Win32,60.36095853,628b806c463b948bc644b84f,629afece692063e219f8d5b1,,,,,,,,,,,,,,,,,,,,,,,,,,,,,,,,,,,,,,,,,,,,,,,,,,,,,,,,,,,,,,,,,,,,,,,,,,,,,,,,,,,,,,,,,,,,,,,,,,,,,,,
,,"[""period""]",0,[1.5443000001907308],5,0,5,0,1,5f61d8946a529c04bdffd02d,18,Mężczyzna,2022-06-04_09h37.20.345,task,2021.1.4,Win32,60.36095853,628b806c463b948bc644b84f,629afece692063e219f8d5b1,,,,,,,,,,,,,,,,,,,,,,,,,,,,,,,,,,,,,,,,,,,,,,,,,,,,,,,,,,,,,,,,,,,,,,,,,,,,,,,,,,,,,,,,,,,,,,,,,,,,,,,
,,"[""period""]",0,[1.5500999994278004],6,0,6,0,1,5f61d8946a529c04bdffd02d,18,Mężczyzna,2022-06-04_09h37.20.345,task,2021.1.4,Win32,60.36095853,628b806c463b948bc644b84f,629afece692063e219f8d5b1,,,,,,,,,,,,,,,,,,,,,,,,,,,,,,,,,,,,,,,,,,,,,,,,,,,,,,,,,,,,,,,,,,,,,,,,,,,,,,,,,,,,,,,,,,,,,,,,,,,,,,,
,,"[""period""]",0,[1.5866999998092695],7,0,7,0,1,5f61d8946a529c04bdffd02d,18,Mężczyzna,2022-06-04_09h37.20.345,task,2021.1.4,Win32,60.36095853,628b806c463b948bc644b84f,629afece692063e219f8d5b1,,,,,,,,,,,,,,,,,,,,,,,,,,,,,,,,,,,,,,,,,,,,,,,,,,,,,,,,,,,,,,,,,,,,,,,,,,,,,,,,,,,,,,,,,,,,,,,,,,,,,,,
,,"[""period""]",0,[1.037399999618529],8,0,8,0,1,5f61d8946a529c04bdffd02d,18,Mężczyzna,2022-06-04_09h37.20.345,task,2021.1.4,Win32,60.36095853,628b806c463b948bc644b84f,629afece692063e219f8d5b1,,,,,,,,,,,,,,,,,,,,,,,,,,,,,,,,,,,,,,,,,,,,,,,,,,,,,,,,,,,,,,,,,,,,,,,,,,,,,,,,,,,,,,,,,,,,,,,,,,,,,,,
,,"[""comma""]",0,[1.059199999809266],9,0,9,0,1,5f61d8946a529c04bdffd02d,18,Mężczyzna,2022-06-04_09h37.20.345,task,2021.1.4,Win32,60.36095853,628b806c463b948bc644b84f,629afece692063e219f8d5b1,,,,,,,,,,,,,,,,,,,,,,,,,,,,,,,,,,,,,,,,,,,,,,,,,,,,,,,,,,,,,,,,,,,,,,,,,,,,,,,,,,,,,,,,,,,,,,,,,,,,,,,
,,"[""period""]",0,[0.15360000038148058],10,0,10,0,1,5f61d8946a529c04bdffd02d,18,Mężczyzna,2022-06-04_09h37.20.345,task,2021.1.4,Win32,60.36095853,628b806c463b948bc644b84f,629afece692063e219f8d5b1,,,,,,,,,,,,,,,,,,,,,,,,,,,,,,,,,,,,,,,,,,,,,,,,,,,,,,,,,,,,,,,,,,,,,,,,,,,,,,,,,,,,,,,,,,,,,,,,,,,,,,,
,,"[""comma""]",0,[1.0338000001907375],11,0,11,0,1,5f61d8946a529c04bdffd02d,18,Mężczyzna,2022-06-04_09h37.20.345,task,2021.1.4,Win32,60.36095853,628b806c463b948bc644b84f,629afece692063e219f8d5b1,,,,,,,,,,,,,,,,,,,,,,,,,,,,,,,,,,,,,,,,,,,,,,,,,,,,,,,,,,,,,,,,,,,,,,,,,,,,,,,,,,,,,,,,,,,,,,,,,,,,,,,
,,,0,,12,0,12,0,1,5f61d8946a529c04bdffd02d,18,Mężczyzna,2022-06-04_09h37.20.345,task,2021.1.4,Win32,60.36095853,628b806c463b948bc644b84f,629afece692063e219f8d5b1,,,,,,,,,,,,,,,,,,,,,,,,,,,,,,,,,,,,,,,,,,,,,,,,,,,,,,,,,,,,,,,,,,,,,,,,,,,,,,,,,,,,,,,,,,,,,,,,,,,,,,,
,,"[""period"",""period""]",0,"[0.06519999980925206,0.44059999942778916]",13,0,13,0,1,5f61d8946a529c04bdffd02d,18,Mężczyzna,2022-06-04_09h37.20.345,task,2021.1.4,Win32,60.36095853,628b806c463b948bc644b84f,629afece692063e219f8d5b1,,,,,,,,,,,,,,,,,,,,,,,,,,,,,,,,,,,,,,,,,,,,,,,,,,,,,,,,,,,,,,,,,,,,,,,,,,,,,,,,,,,,,,,,,,,,,,,,,,,,,,,
,,"[""comma""]",0,[0.3656999998092658],14,0,14,0,1,5f61d8946a529c04bdffd02d,18,Mężczyzna,2022-06-04_09h37.20.345,task,2021.1.4,Win32,60.36095853,628b806c463b948bc644b84f,629afece692063e219f8d5b1,,,,,,,,,,,,,,,,,,,,,,,,,,,,,,,,,,,,,,,,,,,,,,,,,,,,,,,,,,,,,,,,,,,,,,,,,,,,,,,,,,,,,,,,,,,,,,,,,,,,,,,
,,"[""comma""]",0,[0.6000000000000085],15,0,15,0,1,5f61d8946a529c04bdffd02d,18,Mężczyzna,2022-06-04_09h37.20.345,task,2021.1.4,Win32,60.36095853,628b806c463b948bc644b84f,629afece692063e219f8d5b1,,,,,,,,,,,,,,,,,,,,,,,,,,,,,,,,,,,,,,,,,,,,,,,,,,,,,,,,,,,,,,,,,,,,,,,,,,,,,,,,,,,,,,,,,,,,,,,,,,,,,,,
,,"[""period""]",0,[0.3943000001907251],16,0,16,0,1,5f61d8946a529c04bdffd02d,18,Mężczyzna,2022-06-04_09h37.20.345,task,2021.1.4,Win32,60.36095853,628b806c463b948bc644b84f,629afece692063e219f8d5b1,,,,,,,,,,,,,,,,,,,,,,,,,,,,,,,,,,,,,,,,,,,,,,,,,,,,,,,,,,,,,,,,,,,,,,,,,,,,,,,,,,,,,,,,,,,,,,,,,,,,,,,
,,"[""period""]",0,[0.48450000000001125],17,0,17,0,1,5f61d8946a529c04bdffd02d,18,Mężczyzna,2022-06-04_09h37.20.345,task,2021.1.4,Win32,60.36095853,628b806c463b948bc644b84f,629afece692063e219f8d5b1,,,,,,,,,,,,,,,,,,,,,,,,,,,,,,,,,,,,,,,,,,,,,,,,,,,,,,,,,,,,,,,,,,,,,,,,,,,,,,,,,,,,,,,,,,,,,,,,,,,,,,,
,,"[""period""]",0,[0.2663999996185282],18,0,18,0,1,5f61d8946a529c04bdffd02d,18,Mężczyzna,2022-06-04_09h37.20.345,task,2021.1.4,Win32,60.36095853,628b806c463b948bc644b84f,629afece692063e219f8d5b1,,,,,,,,,,,,,,,,,,,,,,,,,,,,,,,,,,,,,,,,,,,,,,,,,,,,,,,,,,,,,,,,,,,,,,,,,,,,,,,,,,,,,,,,,,,,,,,,,,,,,,,
,,"[""comma""]",0,[0.9877000007629277],19,0,19,0,1,5f61d8946a529c04bdffd02d,18,Mężczyzna,2022-06-04_09h37.20.345,task,2021.1.4,Win32,60.36095853,628b806c463b948bc644b84f,629afece692063e219f8d5b1,,,,,,,,,,,,,,,,,,,,,,,,,,,,,,,,,,,,,,,,,,,,,,,,,,,,,,,,,,,,,,,,,,,,,,,,,,,,,,,,,,,,,,,,,,,,,,,,,,,,,,,
,,"[""comma""]",0,[0.2860999994277904],20,0,20,0,1,5f61d8946a529c04bdffd02d,18,Mężczyzna,2022-06-04_09h37.20.345,task,2021.1.4,Win32,60.36095853,628b806c463b948bc644b84f,629afece692063e219f8d5b1,,,,,,,,,,,,,,,,,,,,,,,,,,,,,,,,,,,,,,,,,,,,,,,,,,,,,,,,,,,,,,,,,,,,,,,,,,,,,,,,,,,,,,,,,,,,,,,,,,,,,,,
,,"[""comma""]",0,[0.47310000038146427],21,0,21,0,1,5f61d8946a529c04bdffd02d,18,Mężczyzna,2022-06-04_09h37.20.345,task,2021.1.4,Win32,60.36095853,628b806c463b948bc644b84f,629afece692063e219f8d5b1,,,,,,,,,,,,,,,,,,,,,,,,,,,,,,,,,,,,,,,,,,,,,,,,,,,,,,,,,,,,,,,,,,,,,,,,,,,,,,,,,,,,,,,,,,,,,,,,,,,,,,,
,,"[""comma""]",0,[0.36660000038146734],22,0,22,0,1,5f61d8946a529c04bdffd02d,18,Mężczyzna,2022-06-04_09h37.20.345,task,2021.1.4,Win32,60.36095853,628b806c463b948bc644b84f,629afece692063e219f8d5b1,,,,,,,,,,,,,,,,,,,,,,,,,,,,,,,,,,,,,,,,,,,,,,,,,,,,,,,,,,,,,,,,,,,,,,,,,,,,,,,,,,,,,,,,,,,,,,,,,,,,,,,
,,"[""period""]",0,[0.8352999992370655],23,0,23,0,1,5f61d8946a529c04bdffd02d,18,Mężczyzna,2022-06-04_09h37.20.345,task,2021.1.4,Win32,60.36095853,628b806c463b948bc644b84f,629afece692063e219f8d5b1,,,,,,,,,,,,,,,,,,,,,,,,,,,,,,,,,,,,,,,,,,,,,,,,,,,,,,,,,,,,,,,,,,,,,,,,,,,,,,,,,,,,,,,,,,,,,,,,,,,,,,,
,,"[""comma""]",0,[0.6330999994277988],24,0,24,0,1,5f61d8946a529c04bdffd02d,18,Mężczyzna,2022-06-04_09h37.20.345,task,2021.1.4,Win32,60.36095853,628b806c463b948bc644b84f,629afece692063e219f8d5b1,,,,,,,,,,,,,,,,,,,,,,,,,,,,,,,,,,,,,,,,,,,,,,,,,,,,,,,,,,,,,,,,,,,,,,,,,,,,,,,,,,,,,,,,,,,,,,,,,,,,,,,
,,"[""comma""]",0,[0.9788000001907307],25,0,25,0,1,5f61d8946a529c04bdffd02d,18,Mężczyzna,2022-06-04_09h37.20.345,task,2021.1.4,Win32,60.36095853,628b806c463b948bc644b84f,629afece692063e219f8d5b1,,,,,,,,,,,,,,,,,,,,,,,,,,,,,,,,,,,,,,,,,,,,,,,,,,,,,,,,,,,,,,,,,,,,,,,,,,,,,,,,,,,,,,,,,,,,,,,,,,,,,,,
,,"[""period""]",0,[1.1588000001907375],26,0,26,0,1,5f61d8946a529c04bdffd02d,18,Mężczyzna,2022-06-04_09h37.20.345,task,2021.1.4,Win32,60.36095853,628b806c463b948bc644b84f,629afece692063e219f8d5b1,,,,,,,,,,,,,,,,,,,,,,,,,,,,,,,,,,,,,,,,,,,,,,,,,,,,,,,,,,,,,,,,,,,,,,,,,,,,,,,,,,,,,,,,,,,,,,,,,,,,,,,
,,"[""comma""]",0,[1.1779000005722082],27,0,27,0,1,5f61d8946a529c04bdffd02d,18,Mężczyzna,2022-06-04_09h37.20.345,task,2021.1.4,Win32,60.36095853,628b806c463b948bc644b84f,629afece692063e219f8d5b1,,,,,,,,,,,,,,,,,,,,,,,,,,,,,,,,,,,,,,,,,,,,,,,,,,,,,,,,,,,,,,,,,,,,,,,,,,,,,,,,,,,,,,,,,,,,,,,,,,,,,,,
,,"[""period""]",0,[1.0651999998092663],28,0,28,0,1,5f61d8946a529c04bdffd02d,18,Mężczyzna,2022-06-04_09h37.20.345,task,2021.1.4,Win32,60.36095853,628b806c463b948bc644b84f,629afece692063e219f8d5b1,,,,,,,,,,,,,,,,,,,,,,,,,,,,,,,,,,,,,,,,,,,,,,,,,,,,,,,,,,,,,,,,,,,,,,,,,,,,,,,,,,,,,,,,,,,,,,,,,,,,,,,
,,"[""comma""]",0,[1.3366000003814662],29,0,29,0,1,5f61d8946a529c04bdffd02d,18,Mężczyzna,2022-06-04_09h37.20.345,task,2021.1.4,Win32,60.36095853,628b806c463b948bc644b84f,629afece692063e219f8d5b1,,,,,,,,,,,,,,,,,,,,,,,,,,,,,,,,,,,,,,,,,,,,,,,,,,,,,,,,,,,,,,,,,,,,,,,,,,,,,,,,,,,,,,,,,,,,,,,,,,,,,,,
,,"[""comma""]",0,[1.3405000000000058],30,0,30,0,1,5f61d8946a529c04bdffd02d,18,Mężczyzna,2022-06-04_09h37.20.345,task,2021.1.4,Win32,60.36095853,628b806c463b948bc644b84f,629afece692063e219f8d5b1,,,,,,,,,,,,,,,,,,,,,,,,,,,,,,,,,,,,,,,,,,,,,,,,,,,,,,,,,,,,,,,,,,,,,,,,,,,,,,,,,,,,,,,,,,,,,,,,,,,,,,,
,,"[""period""]",0,[1.3798000001907411],31,0,31,0,1,5f61d8946a529c04bdffd02d,18,Mężczyzna,2022-06-04_09h37.20.345,task,2021.1.4,Win32,60.36095853,628b806c463b948bc644b84f,629afece692063e219f8d5b1,,,,,,,,,,,,,,,,,,,,,,,,,,,,,,,,,,,,,,,,,,,,,,,,,,,,,,,,,,,,,,,,,,,,,,,,,,,,,,,,,,,,,,,,,,,,,,,,,,,,,,,
,,"[""period""]",0,[1.8326999998092646],32,0,32,0,1,5f61d8946a529c04bdffd02d,18,Mężczyzna,2022-06-04_09h37.20.345,task,2021.1.4,Win32,60.36095853,628b806c463b948bc644b84f,629afece692063e219f8d5b1,,,,,,,,,,,,,,,,,,,,,,,,,,,,,,,,,,,,,,,,,,,,,,,,,,,,,,,,,,,,,,,,,,,,,,,,,,,,,,,,,,,,,,,,,,,,,,,,,,,,,,,
,,"[""period""]",0,[1.666899999618522],33,0,33,0,1,5f61d8946a529c04bdffd02d,18,Mężczyzna,2022-06-04_09h37.20.345,task,2021.1.4,Win32,60.36095853,628b806c463b948bc644b84f,629afece692063e219f8d5b1,,,,,,,,,,,,,,,,,,,,,,,,,,,,,,,,,,,,,,,,,,,,,,,,,,,,,,,,,,,,,,,,,,,,,,,,,,,,,,,,,,,,,,,,,,,,,,,,,,,,,,,
,,"[""comma""]",0,[1.1730000000000018],34,0,34,0,1,5f61d8946a529c04bdffd02d,18,Mężczyzna,2022-06-04_09h37.20.345,task,2021.1.4,Win32,60.36095853,628b806c463b948bc644b84f,629afece692063e219f8d5b1,,,,,,,,,,,,,,,,,,,,,,,,,,,,,,,,,,,,,,,,,,,,,,,,,,,,,,,,,,,,,,,,,,,,,,,,,,,,,,,,,,,,,,,,,,,,,,,,,,,,,,,
,,"[""period""]",0,[1.1613999996185385],35,0,35,0,1,5f61d8946a529c04bdffd02d,18,Mężczyzna,2022-06-04_09h37.20.345,task,2021.1.4,Win32,60.36095853,628b806c463b948bc644b84f,629afece692063e219f8d5b1,,,,,,,,,,,,,,,,,,,,,,,,,,,,,,,,,,,,,,,,,,,,,,,,,,,,,,,,,,,,,,,,,,,,,,,,,,,,,,,,,,,,,,,,,,,,,,,,,,,,,,,
,,"[""comma""]",0,[1.16530000019074],36,0,36,0,1,5f61d8946a529c04bdffd02d,18,Mężczyzna,2022-06-04_09h37.20.345,task,2021.1.4,Win32,60.36095853,628b806c463b948bc644b84f,629afece692063e219f8d5b1,,,,,,,,,,,,,,,,,,,,,,,,,,,,,,,,,,,,,,,,,,,,,,,,,,,,,,,,,,,,,,,,,,,,,,,,,,,,,,,,,,,,,,,,,,,,,,,,,,,,,,,
,,"[""comma""]",0,[1.4335999994277984],37,0,37,0,1,5f61d8946a529c04bdffd02d,18,Mężczyzna,2022-06-04_09h37.20.345,task,2021.1.4,Win32,60.36095853,628b806c463b948bc644b84f,629afece692063e219f8d5b1,,,,,,,,,,,,,,,,,,,,,,,,,,,,,,,,,,,,,,,,,,,,,,,,,,,,,,,,,,,,,,,,,,,,,,,,,,,,,,,,,,,,,,,,,,,,,,,,,,,,,,,
,,"[""period""]",0,[1.2404999999999973],38,0,38,0,1,5f61d8946a529c04bdffd02d,18,Mężczyzna,2022-06-04_09h37.20.345,task,2021.1.4,Win32,60.36095853,628b806c463b948bc644b84f,629afece692063e219f8d5b1,,,,,,,,,,,,,,,,,,,,,,,,,,,,,,,,,,,,,,,,,,,,,,,,,,,,,,,,,,,,,,,,,,,,,,,,,,,,,,,,,,,,,,,,,,,,,,,,,,,,,,,
,,"[""comma""]",0,[1.4655999994277948],39,0,39,0,1,5f61d8946a529c04bdffd02d,18,Mężczyzna,2022-06-04_09h37.20.345,task,2021.1.4,Win32,60.36095853,628b806c463b948bc644b84f,629afece692063e219f8d5b1,,,,,,,,,,,,,,,,,,,,,,,,,,,,,,,,,,,,,,,,,,,,,,,,,,,,,,,,,,,,,,,,,,,,,,,,,,,,,,,,,,,,,,,,,,,,,,,,,,,,,,,
,,"[""period""]",0,[1.041800000190733],40,0,40,0,1,5f61d8946a529c04bdffd02d,18,Mężczyzna,2022-06-04_09h37.20.345,task,2021.1.4,Win32,60.36095853,628b806c463b948bc644b84f,629afece692063e219f8d5b1,,,,,,,,,,,,,,,,,,,,,,,,,,,,,,,,,,,,,,,,,,,,,,,,,,,,,,,,,,,,,,,,,,,,,,,,,,,,,,,,,,,,,,,,,,,,,,,,,,,,,,,
,,"[""period""]",0,[1.0288000001907278],41,0,41,0,1,5f61d8946a529c04bdffd02d,18,Mężczyzna,2022-06-04_09h37.20.345,task,2021.1.4,Win32,60.36095853,628b806c463b948bc644b84f,629afece692063e219f8d5b1,,,,,,,,,,,,,,,,,,,,,,,,,,,,,,,,,,,,,,,,,,,,,,,,,,,,,,,,,,,,,,,,,,,,,,,,,,,,,,,,,,,,,,,,,,,,,,,,,,,,,,,
,,"[""comma""]",0,[1.1174999999999926],42,0,42,0,1,5f61d8946a529c04bdffd02d,18,Mężczyzna,2022-06-04_09h37.20.345,task,2021.1.4,Win32,60.36095853,628b806c463b948bc644b84f,629afece692063e219f8d5b1,,,,,,,,,,,,,,,,,,,,,,,,,,,,,,,,,,,,,,,,,,,,,,,,,,,,,,,,,,,,,,,,,,,,,,,,,,,,,,,,,,,,,,,,,,,,,,,,,,,,,,,
,,"[""comma""]",0,[1.0960000000000036],43,0,43,0,1,5f61d8946a529c04bdffd02d,18,Mężczyzna,2022-06-04_09h37.20.345,task,2021.1.4,Win32,60.36095853,628b806c463b948bc644b84f,629afece692063e219f8d5b1,,,,,,,,,,,,,,,,,,,,,,,,,,,,,,,,,,,,,,,,,,,,,,,,,,,,,,,,,,,,,,,,,,,,,,,,,,,,,,,,,,,,,,,,,,,,,,,,,,,,,,,
,,"[""comma""]",0,[1.2786999998092483],44,0,44,0,1,5f61d8946a529c04bdffd02d,18,Mężczyzna,2022-06-04_09h37.20.345,task,2021.1.4,Win32,60.36095853,628b806c463b948bc644b84f,629afece692063e219f8d5b1,,,,,,,,,,,,,,,,,,,,,,,,,,,,,,,,,,,,,,,,,,,,,,,,,,,,,,,,,,,,,,,,,,,,,,,,,,,,,,,,,,,,,,,,,,,,,,,,,,,,,,,
,,"[""period""]",0,[1.2176000003814806],45,0,45,0,1,5f61d8946a529c04bdffd02d,18,Mężczyzna,2022-06-04_09h37.20.345,task,2021.1.4,Win32,60.36095853,628b806c463b948bc644b84f,629afece692063e219f8d5b1,,,,,,,,,,,,,,,,,,,,,,,,,,,,,,,,,,,,,,,,,,,,,,,,,,,,,,,,,,,,,,,,,,,,,,,,,,,,,,,,,,,,,,,,,,,,,,,,,,,,,,,
,,"[""period""]",0,[1.1789000005721846],46,0,46,0,1,5f61d8946a529c04bdffd02d,18,Mężczyzna,2022-06-04_09h37.20.345,task,2021.1.4,Win32,60.36095853,628b806c463b948bc644b84f,629afece692063e219f8d5b1,,,,,,,,,,,,,,,,,,,,,,,,,,,,,,,,,,,,,,,,,,,,,,,,,,,,,,,,,,,,,,,,,,,,,,,,,,,,,,,,,,,,,,,,,,,,,,,,,,,,,,,
,,"[""comma""]",0,[0.9663999996185169],47,0,47,0,1,5f61d8946a529c04bdffd02d,18,Mężczyzna,2022-06-04_09h37.20.345,task,2021.1.4,Win32,60.36095853,628b806c463b948bc644b84f,629afece692063e219f8d5b1,,,,,,,,,,,,,,,,,,,,,,,,,,,,,,,,,,,,,,,,,,,,,,,,,,,,,,,,,,,,,,,,,,,,,,,,,,,,,,,,,,,,,,,,,,,,,,,,,,,,,,,
,,"[""period""]",0,[0.9834999999999923],48,0,48,0,1,5f61d8946a529c04bdffd02d,18,Mężczyzna,2022-06-04_09h37.20.345,task,2021.1.4,Win32,60.36095853,628b806c463b948bc644b84f,629afece692063e219f8d5b1,,,,,,,,,,,,,,,,,,,,,,,,,,,,,,,,,,,,,,,,,,,,,,,,,,,,,,,,,,,,,,,,,,,,,,,,,,,,,,,,,,,,,,,,,,,,,,,,,,,,,,,
,,"[""comma""]",0,[1.0215000000000032],49,0,49,0,1,5f61d8946a529c04bdffd02d,18,Mężczyzna,2022-06-04_09h37.20.345,task,2021.1.4,Win32,60.36095853,628b806c463b948bc644b84f,629afece692063e219f8d5b1,,,,,,,,,,,,,,,,,,,,,,,,,,,,,,,,,,,,,,,,,,,,,,,,,,,,,,,,,,,,,,,,,,,,,,,,,,,,,,,,,,,,,,,,,,,,,,,,,,,,,,,
,,"[""period""]",0,[0.9700999994277879],50,0,50,0,1,5f61d8946a529c04bdffd02d,18,Mężczyzna,2022-06-04_09h37.20.345,task,2021.1.4,Win32,60.36095853,628b806c463b948bc644b84f,629afece692063e219f8d5b1,,,,,,,,,,,,,,,,,,,,,,,,,,,,,,,,,,,,,,,,,,,,,,,,,,,,,,,,,,,,,,,,,,,,,,,,,,,,,,,,,,,,,,,,,,,,,,,,,,,,,,,
,,"[""period""]",0,[0.9898000001907405],51,0,51,0,1,5f61d8946a529c04bdffd02d,18,Mężczyzna,2022-06-04_09h37.20.345,task,2021.1.4,Win32,60.36095853,628b806c463b948bc644b84f,629afece692063e219f8d5b1,,,,,,,,,,,,,,,,,,,,,,,,,,,,,,,,,,,,,,,,,,,,,,,,,,,,,,,,,,,,,,,,,,,,,,,,,,,,,,,,,,,,,,,,,,,,,,,,,,,,,,,
,,"[""comma""]",0,[0.8868999996185494],52,0,52,0,1,5f61d8946a529c04bdffd02d,18,Mężczyzna,2022-06-04_09h37.20.345,task,2021.1.4,Win32,60.36095853,628b806c463b948bc644b84f,629afece692063e219f8d5b1,,,,,,,,,,,,,,,,,,,,,,,,,,,,,,,,,,,,,,,,,,,,,,,,,,,,,,,,,,,,,,,,,,,,,,,,,,,,,,,,,,,,,,,,,,,,,,,,,,,,,,,
,,"[""comma""]",0,[0.9721000003814879],53,0,53,0,1,5f61d8946a529c04bdffd02d,18,Mężczyzna,2022-06-04_09h37.20.345,task,2021.1.4,Win32,60.36095853,628b806c463b948bc644b84f,629afece692063e219f8d5b1,,,,,,,,,,,,,,,,,,,,,,,,,,,,,,,,,,,,,,,,,,,,,,,,,,,,,,,,,,,,,,,,,,,,,,,,,,,,,,,,,,,,,,,,,,,,,,,,,,,,,,,
,,"[""comma""]",0,[0.8827999992370792],54,0,54,0,1,5f61d8946a529c04bdffd02d,18,Mężczyzna,2022-06-04_09h37.20.345,task,2021.1.4,Win32,60.36095853,628b806c463b948bc644b84f,629afece692063e219f8d5b1,,,,,,,,,,,,,,,,,,,,,,,,,,,,,,,,,,,,,,,,,,,,,,,,,,,,,,,,,,,,,,,,,,,,,,,,,,,,,,,,,,,,,,,,,,,,,,,,,,,,,,,
,,"[""period""]",0,[0.9261999998092847],55,0,55,0,1,5f61d8946a529c04bdffd02d,18,Mężczyzna,2022-06-04_09h37.20.345,task,2021.1.4,Win32,60.36095853,628b806c463b948bc644b84f,629afece692063e219f8d5b1,,,,,,,,,,,,,,,,,,,,,,,,,,,,,,,,,,,,,,,,,,,,,,,,,,,,,,,,,,,,,,,,,,,,,,,,,,,,,,,,,,,,,,,,,,,,,,,,,,,,,,,
,,"[""comma""]",0,[1.8568999996185198],56,0,56,0,1,5f61d8946a529c04bdffd02d,18,Mężczyzna,2022-06-04_09h37.20.345,task,2021.1.4,Win32,60.36095853,628b806c463b948bc644b84f,629afece692063e219f8d5b1,,,,,,,,,,,,,,,,,,,,,,,,,,,,,,,,,,,,,,,,,,,,,,,,,,,,,,,,,,,,,,,,,,,,,,,,,,,,,,,,,,,,,,,,,,,,,,,,,,,,,,,
,,,0,,57,0,57,0,1,5f61d8946a529c04bdffd02d,18,Mężczyzna,2022-06-04_09h37.20.345,task,2021.1.4,Win32,60.36095853,628b806c463b948bc644b84f,629afece692063e219f8d5b1,,,,,,,,,,,,,,,,,,,,,,,,,,,,,,,,,,,,,,,,,,,,,,,,,,,,,,,,,,,,,,,,,,,,,,,,,,,,,,,,,,,,,,,,,,,,,,,,,,,,,,,
,,"[""period""]",0,[0.8953000001907299],58,0,58,0,1,5f61d8946a529c04bdffd02d,18,Mężczyzna,2022-06-04_09h37.20.345,task,2021.1.4,Win32,60.36095853,628b806c463b948bc644b84f,629afece692063e219f8d5b1,,,,,,,,,,,,,,,,,,,,,,,,,,,,,,,,,,,,,,,,,,,,,,,,,,,,,,,,,,,,,,,,,,,,,,,,,,,,,,,,,,,,,,,,,,,,,,,,,,,,,,,
,,"[""period""]",0,[0.771000000000015],59,0,59,0,1,5f61d8946a529c04bdffd02d,18,Mężczyzna,2022-06-04_09h37.20.345,task,2021.1.4,Win32,60.36095853,628b806c463b948bc644b84f,629afece692063e219f8d5b1,,,,,,,,,,,,,,,,,,,,,,,,,,,,,,,,,,,,,,,,,,,,,,,,,,,,,,,,,,,,,,,,,,,,,,,,,,,,,,,,,,,,,,,,,,,,,,,,,,,,,,,
,,"[""comma""]",0,[0.6001999998092629],60,0,60,0,1,5f61d8946a529c04bdffd02d,18,Mężczyzna,2022-06-04_09h37.20.345,task,2021.1.4,Win32,60.36095853,628b806c463b948bc644b84f,629afece692063e219f8d5b1,,,,,,,,,,,,,,,,,,,,,,,,,,,,,,,,,,,,,,,,,,,,,,,,,,,,,,,,,,,,,,,,,,,,,,,,,,,,,,,,,,,,,,,,,,,,,,,,,,,,,,,
,,"[""period""]",0,[0.9933999996185321],61,0,61,0,1,5f61d8946a529c04bdffd02d,18,Mężczyzna,2022-06-04_09h37.20.345,task,2021.1.4,Win32,60.36095853,628b806c463b948bc644b84f,629afece692063e219f8d5b1,,,,,,,,,,,,,,,,,,,,,,,,,,,,,,,,,,,,,,,,,,,,,,,,,,,,,,,,,,,,,,,,,,,,,,,,,,,,,,,,,,,,,,,,,,,,,,,,,,,,,,,
,,"[""comma""]",0,[1.033300000190735],62,0,62,0,1,5f61d8946a529c04bdffd02d,18,Mężczyzna,2022-06-04_09h37.20.345,task,2021.1.4,Win32,60.36095853,628b806c463b948bc644b84f,629afece692063e219f8d5b1,,,,,,,,,,,,,,,,,,,,,,,,,,,,,,,,,,,,,,,,,,,,,,,,,,,,,,,,,,,,,,,,,,,,,,,,,,,,,,,,,,,,,,,,,,,,,,,,,,,,,,,
,,"[""period""]",0,[1.0328000001907185],63,0,63,0,1,5f61d8946a529c04bdffd02d,18,Mężczyzna,2022-06-04_09h37.20.345,task,2021.1.4,Win32,60.36095853,628b806c463b948bc644b84f,629afece692063e219f8d5b1,,,,,,,,,,,,,,,,,,,,,,,,,,,,,,,,,,,,,,,,,,,,,,,,,,,,,,,,,,,,,,,,,,,,,,,,,,,,,,,,,,,,,,,,,,,,,,,,,,,,,,,
,,"[""period""]",0,[1.1071999998092679],64,0,64,0,1,5f61d8946a529c04bdffd02d,18,Mężczyzna,2022-06-04_09h37.20.345,task,2021.1.4,Win32,60.36095853,628b806c463b948bc644b84f,629afece692063e219f8d5b1,,,,,,,,,,,,,,,,,,,,,,,,,,,,,,,,,,,,,,,,,,,,,,,,,,,,,,,,,,,,,,,,,,,,,,,,,,,,,,,,,,,,,,,,,,,,,,,,,,,,,,,
,,,0,,65,0,65,0,1,5f61d8946a529c04bdffd02d,18,Mężczyzna,2022-06-04_09h37.20.345,task,2021.1.4,Win32,60.36095853,628b806c463b948bc644b84f,629afece692063e219f8d5b1,,,,,,,,,,,,,,,,,,,,,,,,,,,,,,,,,,,,,,,,,,,,,,,,,,,,,,,,,,,,,,,,,,,,,,,,,,,,,,,,,,,,,,,,,,,,,,,,,,,,,,,
,,"[""period"",""comma""]",0,"[0.19419999980925695,0.8728999996185394]",66,0,66,0,1,5f61d8946a529c04bdffd02d,18,Mężczyzna,2022-06-04_09h37.20.345,task,2021.1.4,Win32,60.36095853,628b806c463b948bc644b84f,629afece692063e219f8d5b1,,,,,,,,,,,,,,,,,,,,,,,,,,,,,,,,,,,,,,,,,,,,,,,,,,,,,,,,,,,,,,,,,,,,,,,,,,,,,,,,,,,,,,,,,,,,,,,,,,,,,,,
,,"[""comma""]",0,[0.5340000000000202],67,0,67,0,1,5f61d8946a529c04bdffd02d,18,Mężczyzna,2022-06-04_09h37.20.345,task,2021.1.4,Win32,60.36095853,628b806c463b948bc644b84f,629afece692063e219f8d5b1,,,,,,,,,,,,,,,,,,,,,,,,,,,,,,,,,,,,,,,,,,,,,,,,,,,,,,,,,,,,,,,,,,,,,,,,,,,,,,,,,,,,,,,,,,,,,,,,,,,,,,,
,,"[""period""]",0,[0.3063000001907312],68,0,68,0,1,5f61d8946a529c04bdffd02d,18,Mężczyzna,2022-06-04_09h37.20.345,task,2021.1.4,Win32,60.36095853,628b806c463b948bc644b84f,629afece692063e219f8d5b1,,,,,,,,,,,,,,,,,,,,,,,,,,,,,,,,,,,,,,,,,,,,,,,,,,,,,,,,,,,,,,,,,,,,,,,,,,,,,,,,,,,,,,,,,,,,,,,,,,,,,,,
,,"[""comma""]",0,[0.26650000000000773],69,0,69,0,1,5f61d8946a529c04bdffd02d,18,Mężczyzna,2022-06-04_09h37.20.345,task,2021.1.4,Win32,60.36095853,628b806c463b948bc644b84f,629afece692063e219f8d5b1,,,,,,,,,,,,,,,,,,,,,,,,,,,,,,,,,,,,,,,,,,,,,,,,,,,,,,,,,,,,,,,,,,,,,,,,,,,,,,,,,,,,,,,,,,,,,,,,,,,,,,,
,,"[""comma""]",0,[0.6443999996185426],70,0,70,0,1,5f61d8946a529c04bdffd02d,18,Mężczyzna,2022-06-04_09h37.20.345,task,2021.1.4,Win32,60.36095853,628b806c463b948bc644b84f,629afece692063e219f8d5b1,,,,,,,,,,,,,,,,,,,,,,,,,,,,,,,,,,,,,,,,,,,,,,,,,,,,,,,,,,,,,,,,,,,,,,,,,,,,,,,,,,,,,,,,,,,,,,,,,,,,,,,
,,"[""period""]",0,[1.3335999994277756],71,0,71,0,1,5f61d8946a529c04bdffd02d,18,Mężczyzna,2022-06-04_09h37.20.345,task,2021.1.4,Win32,60.36095853,628b806c463b948bc644b84f,629afece692063e219f8d5b1,,,,,,,,,,,,,,,,,,,,,,,,,,,,,,,,,,,,,,,,,,,,,,,,,,,,,,,,,,,,,,,,,,,,,,,,,,,,,,,,,,,,,,,,,,,,,,,,,,,,,,,
,,"[""period""]",0,[1.7229999999999848],72,0,72,0,1,5f61d8946a529c04bdffd02d,18,Mężczyzna,2022-06-04_09h37.20.345,task,2021.1.4,Win32,60.36095853,628b806c463b948bc644b84f,629afece692063e219f8d5b1,,,,,,,,,,,,,,,,,,,,,,,,,,,,,,,,,,,,,,,,,,,,,,,,,,,,,,,,,,,,,,,,,,,,,,,,,,,,,,,,,,,,,,,,,,,,,,,,,,,,,,,
,,"[""comma""]",0,[1.034100000381443],73,0,73,0,1,5f61d8946a529c04bdffd02d,18,Mężczyzna,2022-06-04_09h37.20.345,task,2021.1.4,Win32,60.36095853,628b806c463b948bc644b84f,629afece692063e219f8d5b1,,,,,,,,,,,,,,,,,,,,,,,,,,,,,,,,,,,,,,,,,,,,,,,,,,,,,,,,,,,,,,,,,,,,,,,,,,,,,,,,,,,,,,,,,,,,,,,,,,,,,,,
,,"[""period""]",0,[0.5001999998092685],74,0,74,0,1,5f61d8946a529c04bdffd02d,18,Mężczyzna,2022-06-04_09h37.20.345,task,2021.1.4,Win32,60.36095853,628b806c463b948bc644b84f,629afece692063e219f8d5b1,,,,,,,,,,,,,,,,,,,,,,,,,,,,,,,,,,,,,,,,,,,,,,,,,,,,,,,,,,,,,,,,,,,,,,,,,,,,,,,,,,,,,,,,,,,,,,,,,,,,,,,
,,"[""comma"",""comma""]",0,"[0.0708000001907294,1.9661000003814593]",75,0,75,0,1,5f61d8946a529c04bdffd02d,18,Mężczyzna,2022-06-04_09h37.20.345,task,2021.1.4,Win32,60.36095853,628b806c463b948bc644b84f,629afece692063e219f8d5b1,,,,,,,,,,,,,,,,,,,,,,,,,,,,,,,,,,,,,,,,,,,,,,,,,,,,,,,,,,,,,,,,,,,,,,,,,,,,,,,,,,,,,,,,,,,,,,,,,,,,,,,
,,,0,,76,0,76,0,1,5f61d8946a529c04bdffd02d,18,Mężczyzna,2022-06-04_09h37.20.345,task,2021.1.4,Win32,60.36095853,628b806c463b948bc644b84f,629afece692063e219f8d5b1,,,,,,,,,,,,,,,,,,,,,,,,,,,,,,,,,,,,,,,,,,,,,,,,,,,,,,,,,,,,,,,,,,,,,,,,,,,,,,,,,,,,,,,,,,,,,,,,,,,,,,,
,,"[""comma"",""period""]",0,"[0.19939999961854937,1.1678999996185269]",77,0,77,0,1,5f61d8946a529c04bdffd02d,18,Mężczyzna,2022-06-04_09h37.20.345,task,2021.1.4,Win32,60.36095853,628b806c463b948bc644b84f,629afece692063e219f8d5b1,,,,,,,,,,,,,,,,,,,,,,,,,,,,,,,,,,,,,,,,,,,,,,,,,,,,,,,,,,,,,,,,,,,,,,,,,,,,,,,,,,,,,,,,,,,,,,,,,,,,,,,
,,"[""period""]",0,[0.5334000005722146],78,0,78,0,1,5f61d8946a529c04bdffd02d,18,Mężczyzna,2022-06-04_09h37.20.345,task,2021.1.4,Win32,60.36095853,628b806c463b948bc644b84f,629afece692063e219f8d5b1,,,,,,,,,,,,,,,,,,,,,,,,,,,,,,,,,,,,,,,,,,,,,,,,,,,,,,,,,,,,,,,,,,,,,,,,,,,,,,,,,,,,,,,,,,,,,,,,,,,,,,,
,,"[""comma""]",0,[0.30760000038148405],79,0,79,0,1,5f61d8946a529c04bdffd02d,18,Mężczyzna,2022-06-04_09h37.20.345,task,2021.1.4,Win32,60.36095853,628b806c463b948bc644b84f,629afece692063e219f8d5b1,,,,,,,,,,,,,,,,,,,,,,,,,,,,,,,,,,,,,,,,,,,,,,,,,,,,,,,,,,,,,,,,,,,,,,,,,,,,,,,,,,,,,,,,,,,,,,,,,,,,,,,
,,"[""period""]",0,[0.30919999980926605],80,0,80,0,1,5f61d8946a529c04bdffd02d,18,Mężczyzna,2022-06-04_09h37.20.345,task,2021.1.4,Win32,60.36095853,628b806c463b948bc644b84f,629afece692063e219f8d5b1,,,,,,,,,,,,,,,,,,,,,,,,,,,,,,,,,,,,,,,,,,,,,,,,,,,,,,,,,,,,,,,,,,,,,,,,,,,,,,,,,,,,,,,,,,,,,,,,,,,,,,,
,,"[""period""]",0,[0.7695999994277827],81,0,81,0,1,5f61d8946a529c04bdffd02d,18,Mężczyzna,2022-06-04_09h37.20.345,task,2021.1.4,Win32,60.36095853,628b806c463b948bc644b84f,629afece692063e219f8d5b1,,,,,,,,,,,,,,,,,,,,,,,,,,,,,,,,,,,,,,,,,,,,,,,,,,,,,,,,,,,,,,,,,,,,,,,,,,,,,,,,,,,,,,,,,,,,,,,,,,,,,,,
,,"[""comma""]",0,[0.2956000003814836],82,0,82,0,1,5f61d8946a529c04bdffd02d,18,Mężczyzna,2022-06-04_09h37.20.345,task,2021.1.4,Win32,60.36095853,628b806c463b948bc644b84f,629afece692063e219f8d5b1,,,,,,,,,,,,,,,,,,,,,,,,,,,,,,,,,,,,,,,,,,,,,,,,,,,,,,,,,,,,,,,,,,,,,,,,,,,,,,,,,,,,,,,,,,,,,,,,,,,,,,,
,,"[""comma""]",0,[1.0389999999999873],83,0,83,0,1,5f61d8946a529c04bdffd02d,18,Mężczyzna,2022-06-04_09h37.20.345,task,2021.1.4,Win32,60.36095853,628b806c463b948bc644b84f,629afece692063e219f8d5b1,,,,,,,,,,,,,,,,,,,,,,,,,,,,,,,,,,,,,,,,,,,,,,,,,,,,,,,,,,,,,,,,,,,,,,,,,,,,,,,,,,,,,,,,,,,,,,,,,,,,,,,
,,"[""period""]",0,[0.5498000001907144],84,0,84,0,1,5f61d8946a529c04bdffd02d,18,Mężczyzna,2022-06-04_09h37.20.345,task,2021.1.4,Win32,60.36095853,628b806c463b948bc644b84f,629afece692063e219f8d5b1,,,,,,,,,,,,,,,,,,,,,,,,,,,,,,,,,,,,,,,,,,,,,,,,,,,,,,,,,,,,,,,,,,,,,,,,,,,,,,,,,,,,,,,,,,,,,,,,,,,,,,,
,,"[""period""]",0,[0.333500000000015],85,0,85,0,1,5f61d8946a529c04bdffd02d,18,Mężczyzna,2022-06-04_09h37.20.345,task,2021.1.4,Win32,60.36095853,628b806c463b948bc644b84f,629afece692063e219f8d5b1,,,,,,,,,,,,,,,,,,,,,,,,,,,,,,,,,,,,,,,,,,,,,,,,,,,,,,,,,,,,,,,,,,,,,,,,,,,,,,,,,,,,,,,,,,,,,,,,,,,,,,,
,,"[""comma""]",0,[0.21590000057219072],86,0,86,0,1,5f61d8946a529c04bdffd02d,18,Mężczyzna,2022-06-04_09h37.20.345,task,2021.1.4,Win32,60.36095853,628b806c463b948bc644b84f,629afece692063e219f8d5b1,,,,,,,,,,,,,,,,,,,,,,,,,,,,,,,,,,,,,,,,,,,,,,,,,,,,,,,,,,,,,,,,,,,,,,,,,,,,,,,,,,,,,,,,,,,,,,,,,,,,,,,
,,"[""period""]",0,[0.40789999961850754],87,0,87,0,1,5f61d8946a529c04bdffd02d,18,Mężczyzna,2022-06-04_09h37.20.345,task,2021.1.4,Win32,60.36095853,628b806c463b948bc644b84f,629afece692063e219f8d5b1,,,,,,,,,,,,,,,,,,,,,,,,,,,,,,,,,,,,,,,,,,,,,,,,,,,,,,,,,,,,,,,,,,,,,,,,,,,,,,,,,,,,,,,,,,,,,,,,,,,,,,,
,,"[""comma""]",0,[0.15980000019072804],88,0,88,0,1,5f61d8946a529c04bdffd02d,18,Mężczyzna,2022-06-04_09h37.20.345,task,2021.1.4,Win32,60.36095853,628b806c463b948bc644b84f,629afece692063e219f8d5b1,,,,,,,,,,,,,,,,,,,,,,,,,,,,,,,,,,,,,,,,,,,,,,,,,,,,,,,,,,,,,,,,,,,,,,,,,,,,,,,,,,,,,,,,,,,,,,,,,,,,,,,
,,"[""period""]",0,[0.2424999999999784],89,0,89,0,1,5f61d8946a529c04bdffd02d,18,Mężczyzna,2022-06-04_09h37.20.345,task,2021.1.4,Win32,60.36095853,628b806c463b948bc644b84f,629afece692063e219f8d5b1,,,,,,,,,,,,,,,,,,,,,,,,,,,,,,,,,,,,,,,,,,,,,,,,,,,,,,,,,,,,,,,,,,,,,,,,,,,,,,,,,,,,,,,,,,,,,,,,,,,,,,,
,,"[""comma""]",0,[0.616299999237043],90,0,90,0,1,5f61d8946a529c04bdffd02d,18,Mężczyzna,2022-06-04_09h37.20.345,task,2021.1.4,Win32,60.36095853,628b806c463b948bc644b84f,629afece692063e219f8d5b1,,,,,,,,,,,,,,,,,,,,,,,,,,,,,,,,,,,,,,,,,,,,,,,,,,,,,,,,,,,,,,,,,,,,,,,,,,,,,,,,,,,,,,,,,,,,,,,,,,,,,,,
,,"[""comma""]",0,[0.7325000000000159],91,0,91,0,1,5f61d8946a529c04bdffd02d,18,Mężczyzna,2022-06-04_09h37.20.345,task,2021.1.4,Win32,60.36095853,628b806c463b948bc644b84f,629afece692063e219f8d5b1,,,,,,,,,,,,,,,,,,,,,,,,,,,,,,,,,,,,,,,,,,,,,,,,,,,,,,,,,,,,,,,,,,,,,,,,,,,,,,,,,,,,,,,,,,,,,,,,,,,,,,,
,,"[""period""]",0,[0.590200000762934],92,0,92,0,1,5f61d8946a529c04bdffd02d,18,Mężczyzna,2022-06-04_09h37.20.345,task,2021.1.4,Win32,60.36095853,628b806c463b948bc644b84f,629afece692063e219f8d5b1,,,,,,,,,,,,,,,,,,,,,,,,,,,,,,,,,,,,,,,,,,,,,,,,,,,,,,,,,,,,,,,,,,,,,,,,,,,,,,,,,,,,,,,,,,,,,,,,,,,,,,,
,,"[""period""]",0,[0.4608000001907442],93,0,93,0,1,5f61d8946a529c04bdffd02d,18,Mężczyzna,2022-06-04_09h37.20.345,task,2021.1.4,Win32,60.36095853,628b806c463b948bc644b84f,629afece692063e219f8d5b1,,,,,,,,,,,,,,,,,,,,,,,,,,,,,,,,,,,,,,,,,,,,,,,,,,,,,,,,,,,,,,,,,,,,,,,,,,,,,,,,,,,,,,,,,,,,,,,,,,,,,,,
,,"[""period""]",0,[0.977399999618541],94,0,94,0,1,5f61d8946a529c04bdffd02d,18,Mężczyzna,2022-06-04_09h37.20.345,task,2021.1.4,Win32,60.36095853,628b806c463b948bc644b84f,629afece692063e219f8d5b1,,,,,,,,,,,,,,,,,,,,,,,,,,,,,,,,,,,,,,,,,,,,,,,,,,,,,,,,,,,,,,,,,,,,,,,,,,,,,,,,,,,,,,,,,,,,,,,,,,,,,,,
,,"[""comma""]",0,[0.9081999998092556],95,0,95,0,1,5f61d8946a529c04bdffd02d,18,Mężczyzna,2022-06-04_09h37.20.345,task,2021.1.4,Win32,60.36095853,628b806c463b948bc644b84f,629afece692063e219f8d5b1,,,,,,,,,,,,,,,,,,,,,,,,,,,,,,,,,,,,,,,,,,,,,,,,,,,,,,,,,,,,,,,,,,,,,,,,,,,,,,,,,,,,,,,,,,,,,,,,,,,,,,,
,,"[""period""]",0,[1.1659999999999968],96,0,96,0,1,5f61d8946a529c04bdffd02d,18,Mężczyzna,2022-06-04_09h37.20.345,task,2021.1.4,Win32,60.36095853,628b806c463b948bc644b84f,629afece692063e219f8d5b1,,,,,,,,,,,,,,,,,,,,,,,,,,,,,,,,,,,,,,,,,,,,,,,,,,,,,,,,,,,,,,,,,,,,,,,,,,,,,,,,,,,,,,,,,,,,,,,,,,,,,,,
,,"[""comma""]",0,[0.6854999999999905],97,0,97,0,1,5f61d8946a529c04bdffd02d,18,Mężczyzna,2022-06-04_09h37.20.345,task,2021.1.4,Win32,60.36095853,628b806c463b948bc644b84f,629afece692063e219f8d5b1,,,,,,,,,,,,,,,,,,,,,,,,,,,,,,,,,,,,,,,,,,,,,,,,,,,,,,,,,,,,,,,,,,,,,,,,,,,,,,,,,,,,,,,,,,,,,,,,,,,,,,,
,,"[""period"",""period""]",0,"[0.3269999999999982,1.8845999994277918]",98,0,98,0,1,5f61d8946a529c04bdffd02d,18,Mężczyzna,2022-06-04_09h37.20.345,task,2021.1.4,Win32,60.36095853,628b806c463b948bc644b84f,629afece692063e219f8d5b1,,,,,,,,,,,,,,,,,,,,,,,,,,,,,,,,,,,,,,,,,,,,,,,,,,,,,,,,,,,,,,,,,,,,,,,,,,,,,,,,,,,,,,,,,,,,,,,,,,,,,,,
,,,0,,99,0,99,0,1,5f61d8946a529c04bdffd02d,18,Mężczyzna,2022-06-04_09h37.20.345,task,2021.1.4,Win32,60.36095853,628b806c463b948bc644b84f,629afece692063e219f8d5b1,,,,,,,,,,,,,,,,,,,,,,,,,,,,,,,,,,,,,,,,,,,,,,,,,,,,,,,,,,,,,,,,,,,,,,,,,,,,,,,,,,,,,,,,,,,,,,,,,,,,,,,
,,"[""comma""]",0,[0.3110999994277961],100,0,100,0,1,5f61d8946a529c04bdffd02d,18,Mężczyzna,2022-06-04_09h37.20.345,task,2021.1.4,Win32,60.36095853,628b806c463b948bc644b84f,629afece692063e219f8d5b1,,,,,,,,,,,,,,,,,,,,,,,,,,,,,,,,,,,,,,,,,,,,,,,,,,,,,,,,,,,,,,,,,,,,,,,,,,,,,,,,,,,,,,,,,,,,,,,,,,,,,,,
,,"[""comma""]",0,[0.2051000003814636],101,0,101,0,1,5f61d8946a529c04bdffd02d,18,Mężczyzna,2022-06-04_09h37.20.345,task,2021.1.4,Win32,60.36095853,628b806c463b948bc644b84f,629afece692063e219f8d5b1,,,,,,,,,,,,,,,,,,,,,,,,,,,,,,,,,,,,,,,,,,,,,,,,,,,,,,,,,,,,,,,,,,,,,,,,,,,,,,,,,,,,,,,,,,,,,,,,,,,,,,,
,,"[""period""]",0,[0.2515000000000214],102,0,102,0,1,5f61d8946a529c04bdffd02d,18,Mężczyzna,2022-06-04_09h37.20.345,task,2021.1.4,Win32,60.36095853,628b806c463b948bc644b84f,629afece692063e219f8d5b1,,,,,,,,,,,,,,,,,,,,,,,,,,,,,,,,,,,,,,,,,,,,,,,,,,,,,,,,,,,,,,,,,,,,,,,,,,,,,,,,,,,,,,,,,,,,,,,,,,,,,,,
,,"[""period""]",0,[0.305499999999995],103,0,103,0,1,5f61d8946a529c04bdffd02d,18,Mężczyzna,2022-06-04_09h37.20.345,task,2021.1.4,Win32,60.36095853,628b806c463b948bc644b84f,629afece692063e219f8d5b1,,,,,,,,,,,,,,,,,,,,,,,,,,,,,,,,,,,,,,,,,,,,,,,,,,,,,,,,,,,,,,,,,,,,,,,,,,,,,,,,,,,,,,,,,,,,,,,,,,,,,,,
,,"[""comma""]",0,[0.25609999942778927],104,0,104,0,1,5f61d8946a529c04bdffd02d,18,Mężczyzna,2022-06-04_09h37.20.345,task,2021.1.4,Win32,60.36095853,628b806c463b948bc644b84f,629afece692063e219f8d5b1,,,,,,,,,,,,,,,,,,,,,,,,,,,,,,,,,,,,,,,,,,,,,,,,,,,,,,,,,,,,,,,,,,,,,,,,,,,,,,,,,,,,,,,,,,,,,,,,,,,,,,,
,,"[""comma""]",0,[0.5736000003814752],105,0,105,0,1,5f61d8946a529c04bdffd02d,18,Mężczyzna,2022-06-04_09h37.20.345,task,2021.1.4,Win32,60.36095853,628b806c463b948bc644b84f,629afece692063e219f8d5b1,,,,,,,,,,,,,,,,,,,,,,,,,,,,,,,,,,,,,,,,,,,,,,,,,,,,,,,,,,,,,,,,,,,,,,,,,,,,,,,,,,,,,,,,,,,,,,,,,,,,,,,
,,"[""period""]",0,[0.9598000001907678],106,0,106,0,1,5f61d8946a529c04bdffd02d,18,Mężczyzna,2022-06-04_09h37.20.345,task,2021.1.4,Win32,60.36095853,628b806c463b948bc644b84f,629afece692063e219f8d5b1,,,,,,,,,,,,,,,,,,,,,,,,,,,,,,,,,,,,,,,,,,,,,,,,,,,,,,,,,,,,,,,,,,,,,,,,,,,,,,,,,,,,,,,,,,,,,,,,,,,,,,,
,,"[""comma""]",0,[0.9866999998092751],107,0,107,0,1,5f61d8946a529c04bdffd02d,18,Mężczyzna,2022-06-04_09h37.20.345,task,2021.1.4,Win32,60.36095853,628b806c463b948bc644b84f,629afece692063e219f8d5b1,,,,,,,,,,,,,,,,,,,,,,,,,,,,,,,,,,,,,,,,,,,,,,,,,,,,,,,,,,,,,,,,,,,,,,,,,,,,,,,,,,,,,,,,,,,,,,,,,,,,,,,
,,"[""period""]",0,[0.9681999998092579],108,0,108,0,1,5f61d8946a529c04bdffd02d,18,Mężczyzna,2022-06-04_09h37.20.345,task,2021.1.4,Win32,60.36095853,628b806c463b948bc644b84f,629afece692063e219f8d5b1,,,,,,,,,,,,,,,,,,,,,,,,,,,,,,,,,,,,,,,,,,,,,,,,,,,,,,,,,,,,,,,,,,,,,,,,,,,,,,,,,,,,,,,,,,,,,,,,,,,,,,,
,,"[""period""]",0,[0.8601999998092538],109,0,109,0,1,5f61d8946a529c04bdffd02d,18,Mężczyzna,2022-06-04_09h37.20.345,task,2021.1.4,Win32,60.36095853,628b806c463b948bc644b84f,629afece692063e219f8d5b1,,,,,,,,,,,,,,,,,,,,,,,,,,,,,,,,,,,,,,,,,,,,,,,,,,,,,,,,,,,,,,,,,,,,,,,,,,,,,,,,,,,,,,,,,,,,,,,,,,,,,,,
,,"[""comma""]",0,[1.0013000001907244],110,0,110,0,1,5f61d8946a529c04bdffd02d,18,Mężczyzna,2022-06-04_09h37.20.345,task,2021.1.4,Win32,60.36095853,628b806c463b948bc644b84f,629afece692063e219f8d5b1,,,,,,,,,,,,,,,,,,,,,,,,,,,,,,,,,,,,,,,,,,,,,,,,,,,,,,,,,,,,,,,,,,,,,,,,,,,,,,,,,,,,,,,,,,,,,,,,,,,,,,,
,,"[""period""]",0,[0.9683000001907089],111,0,111,0,1,5f61d8946a529c04bdffd02d,18,Mężczyzna,2022-06-04_09h37.20.345,task,2021.1.4,Win32,60.36095853,628b806c463b948bc644b84f,629afece692063e219f8d5b1,,,,,,,,,,,,,,,,,,,,,,,,,,,,,,,,,,,,,,,,,,,,,,,,,,,,,,,,,,,,,,,,,,,,,,,,,,,,,,,,,,,,,,,,,,,,,,,,,,,,,,,
,,"[""period""]",0,[1.000100000381451],112,0,112,0,1,5f61d8946a529c04bdffd02d,18,Mężczyzna,2022-06-04_09h37.20.345,task,2021.1.4,Win32,60.36095853,628b806c463b948bc644b84f,629afece692063e219f8d5b1,,,,,,,,,,,,,,,,,,,,,,,,,,,,,,,,,,,,,,,,,,,,,,,,,,,,,,,,,,,,,,,,,,,,,,,,,,,,,,,,,,,,,,,,,,,,,,,,,,,,,,,
,,"[""comma""]",0,[1.0330999994278045],113,0,113,0,1,5f61d8946a529c04bdffd02d,18,Mężczyzna,2022-06-04_09h37.20.345,task,2021.1.4,Win32,60.36095853,628b806c463b948bc644b84f,629afece692063e219f8d5b1,,,,,,,,,,,,,,,,,,,,,,,,,,,,,,,,,,,,,,,,,,,,,,,,,,,,,,,,,,,,,,,,,,,,,,,,,,,,,,,,,,,,,,,,,,,,,,,,,,,,,,,
,,"[""comma""]",0,[0.9938000001907312],114,0,114,0,1,5f61d8946a529c04bdffd02d,18,Mężczyzna,2022-06-04_09h37.20.345,task,2021.1.4,Win32,60.36095853,628b806c463b948bc644b84f,629afece692063e219f8d5b1,,,,,,,,,,,,,,,,,,,,,,,,,,,,,,,,,,,,,,,,,,,,,,,,,,,,,,,,,,,,,,,,,,,,,,,,,,,,,,,,,,,,,,,,,,,,,,,,,,,,,,,
,,"[""period""]",0,[1.416800000190733],115,0,115,0,1,5f61d8946a529c04bdffd02d,18,Mężczyzna,2022-06-04_09h37.20.345,task,2021.1.4,Win32,60.36095853,628b806c463b948bc644b84f,629afece692063e219f8d5b1,,,,,,,,,,,,,,,,,,,,,,,,,,,,,,,,,,,,,,,,,,,,,,,,,,,,,,,,,,,,,,,,,,,,,,,,,,,,,,,,,,,,,,,,,,,,,,,,,,,,,,,
,,"[""comma""]",0,[0.97950000000003],116,0,116,0,1,5f61d8946a529c04bdffd02d,18,Mężczyzna,2022-06-04_09h37.20.345,task,2021.1.4,Win32,60.36095853,628b806c463b948bc644b84f,629afece692063e219f8d5b1,,,,,,,,,,,,,,,,,,,,,,,,,,,,,,,,,,,,,,,,,,,,,,,,,,,,,,,,,,,,,,,,,,,,,,,,,,,,,,,,,,,,,,,,,,,,,,,,,,,,,,,
,,"[""period""]",0,[0.8883999996185139],117,0,117,0,1,5f61d8946a529c04bdffd02d,18,Mężczyzna,2022-06-04_09h37.20.345,task,2021.1.4,Win32,60.36095853,628b806c463b948bc644b84f,629afece692063e219f8d5b1,,,,,,,,,,,,,,,,,,,,,,,,,,,,,,,,,,,,,,,,,,,,,,,,,,,,,,,,,,,,,,,,,,,,,,,,,,,,,,,,,,,,,,,,,,,,,,,,,,,,,,,
,,"[""period""]",0,[0.8681999998092351],118,0,118,0,1,5f61d8946a529c04bdffd02d,18,Mężczyzna,2022-06-04_09h37.20.345,task,2021.1.4,Win32,60.36095853,628b806c463b948bc644b84f,629afece692063e219f8d5b1,,,,,,,,,,,,,,,,,,,,,,,,,,,,,,,,,,,,,,,,,,,,,,,,,,,,,,,,,,,,,,,,,,,,,,,,,,,,,,,,,,,,,,,,,,,,,,,,,,,,,,,
,,"[""comma""]",0,[0.728900000572196],119,0,119,0,1,5f61d8946a529c04bdffd02d,18,Mężczyzna,2022-06-04_09h37.20.345,task,2021.1.4,Win32,60.36095853,628b806c463b948bc644b84f,629afece692063e219f8d5b1,,,,,,,,,,,,,,,,,,,,,,,,,,,,,,,,,,,,,,,,,,,,,,,,,,,,,,,,,,,,,,,,,,,,,,,,,,,,,,,,,,,,,,,,,,,,,,,,,,,,,,,
,,,,,,,,,,5f61d8946a529c04bdffd02d,18,Mężczyzna,2022-06-04_09h37.20.345,task,2021.1.4,Win32,60.36095853,628b806c463b948bc644b84f,629afece692063e219f8d5b1,space,15.8119,space,7.0835,0,0,0,0,1,X V Q F H G B L J M P D K C T S W R N Z,,,,,,,,,,,,,,,,,,,,,,,,,,,,,,,,,,,,,,,,,,,,,,,,,,,,,,,,,,,,,,,,,,,,,,,,,,,,,,,,,,,,,,,,,,,,,
,,,,,,,,,,5f61d8946a529c04bdffd02d,18,Mężczyzna,2022-06-04_09h37.20.345,task,2021.1.4,Win32,60.36095853,628b806c463b948bc644b84f,629afece692063e219f8d5b1,,,,,1,0,1,0,1,X V Q F H G B L J M P D K C T S W R N Z,,,,,,,,,,,,,,,,,,,,,,,,,,,,,,,,,,,,,,,,,,,,,,,,,,,,,,,,,,,,,,,,,,,,,,,,,,,,,,,,,,,,,,,,,,,,,
,,,,,,,,,,5f61d8946a529c04bdffd02d,18,Mężczyzna,2022-06-04_09h37.20.345,task,2021.1.4,Win32,60.36095853,628b806c463b948bc644b84f,629afece692063e219f8d5b1,,,,,,,,,,,zf,"[""z"",""f""]","[2.721700000762951,2.7964999999999804,4.627200000762912]",1,ZF,0,0,0,0,1,,,,,,,,,,,,,,,,,,,,,,,,,,,,,,,,,,,,,,,,,,,,,,,,,,,,,,,,,,,,,,,,,,,,,,,,,,,,,,,,,,,
,,,,,,,,,,5f61d8946a529c04bdffd02d,18,Mężczyzna,2022-06-04_09h37.20.345,task,2021.1.4,Win32,60.36095853,628b806c463b948bc644b84f,629afece692063e219f8d5b1,,,,,0,0,0,0,1,X V Q F H G B L J M P D K C T S W R N Z,,,,,,,,,,,,,,,,,,,,,,,,,,,,,,,,,,,,,,,,,,,,,,,,,,,,,,,,,,,,,,,,,,,,,,,,,,,,,,,,,,,,,,,,,,,,,
,,,,,,,,,,5f61d8946a529c04bdffd02d,18,Mężczyzna,2022-06-04_09h37.20.345,task,2021.1.4,Win32,60.36095853,628b806c463b948bc644b84f,629afece692063e219f8d5b1,,,,,1,0,1,0,1,X V Q F H G B L J M P D K C T S W R N Z,,,,,,,,,,,,,,,,,,,,,,,,,,,,,,,,,,,,,,,,,,,,,,,,,,,,,,,,,,,,,,,,,,,,,,,,,,,,,,,,,,,,,,,,,,,,,
,,,,,,,,,,5f61d8946a529c04bdffd02d,18,Mężczyzna,2022-06-04_09h37.20.345,task,2021.1.4,Win32,60.36095853,628b806c463b948bc644b84f,629afece692063e219f8d5b1,,,,,,,,,,,hr,"[""h"",""r""]","[0.5450000000000159,0.6148000001907121,0.881700000762919]",1,HR,1,0,1,0,1,,,,,,,,,,,,,,,,,,,,,,,,,,,,,,,,,,,,,,,,,,,,,,,,,,,,,,,,,,,,,,,,,,,,,,,,,,,,,,,,,,,
,,,,,,,,,,5f61d8946a529c04bdffd02d,18,Mężczyzna,2022-06-04_09h37.20.345,task,2021.1.4,Win32,60.36095853,628b806c463b948bc644b84f,629afece692063e219f8d5b1,,,,,0,0,0,0,1,X V Q F H G B L J M P D K C T S W R N Z,,,,,,,,,,,,,,,,,,,,,,,,,,,,,,,,,,,,,,,,,,,,,,,,,,,,,,,,,,,,,,,,,,,,,,,,,,,,,,,,,,,,,,,,,,,,,
,,,,,,,,,,5f61d8946a529c04bdffd02d,18,Mężczyzna,2022-06-04_09h37.20.345,task,2021.1.4,Win32,60.36095853,628b806c463b948bc644b84f,629afece692063e219f8d5b1,,,,,1,0,1,0,1,X V Q F H G B L J M P D K C T S W R N Z,,,,,,,,,,,,,,,,,,,,,,,,,,,,,,,,,,,,,,,,,,,,,,,,,,,,,,,,,,,,,,,,,,,,,,,,,,,,,,,,,,,,,,,,,,,,,
,,,,,,,,,,5f61d8946a529c04bdffd02d,18,Mężczyzna,2022-06-04_09h37.20.345,task,2021.1.4,Win32,60.36095853,628b806c463b948bc644b84f,629afece692063e219f8d5b1,,,,,2,0,2,0,1,X V Q F H G B L J M P D K C T S W R N Z,,,,,,,,,,,,,,,,,,,,,,,,,,,,,,,,,,,,,,,,,,,,,,,,,,,,,,,,,,,,,,,,,,,,,,,,,,,,,,,,,,,,,,,,,,,,,
,,,,,,,,,,5f61d8946a529c04bdffd02d,18,Mężczyzna,2022-06-04_09h37.20.345,task,2021.1.4,Win32,60.36095853,628b806c463b948bc644b84f,629afece692063e219f8d5b1,,,,,,,,,,,klg,"[""k"",""l"",""g""]","[0.5855000000000246,0.6604000005722241,0.8240000000000123,1.4453000001907412]",1,KLG,2,0,2,0,1,,,,,,,,,,,,,,,,,,,,,,,,,,,,,,,,,,,,,,,,,,,,,,,,,,,,,,,,,,,,,,,,,,,,,,,,,,,,,,,,,,,
,,,,,,,,,,5f61d8946a529c04bdffd02d,18,Mężczyzna,2022-06-04_09h37.20.345,task,2021.1.4,Win32,60.36095853,628b806c463b948bc644b84f,629afece692063e219f8d5b1,,,,,0,0,0,0,1,X V Q F H G B L J M P D K C T S W R N Z,,,,,,,,,,,,,,,,,,,,,,,,,,,,,,,,,,,,,,,,,,,,,,,,,,,,,,,,,,,,,,,,,,,,,,,,,,,,,,,,,,,,,,,,,,,,,
,,,,,,,,,,5f61d8946a529c04bdffd02d,18,Mężczyzna,2022-06-04_09h37.20.345,task,2021.1.4,Win32,60.36095853,628b806c463b948bc644b84f,629afece692063e219f8d5b1,,,,,1,0,1,0,1,X V Q F H G B L J M P D K C T S W R N Z,,,,,,,,,,,,,,,,,,,,,,,,,,,,,,,,,,,,,,,,,,,,,,,,,,,,,,,,,,,,,,,,,,,,,,,,,,,,,,,,,,,,,,,,,,,,,
,,,,,,,,,,5f61d8946a529c04bdffd02d,18,Mężczyzna,2022-06-04_09h37.20.345,task,2021.1.4,Win32,60.36095853,628b806c463b948bc644b84f,629afece692063e219f8d5b1,,,,,2,0,2,0,1,X V Q F H G B L J M P D K C T S W R N Z,,,,,,,,,,,,,,,,,,,,,,,,,,,,,,,,,,,,,,,,,,,,,,,,,,,,,,,,,,,,,,,,,,,,,,,,,,,,,,,,,,,,,,,,,,,,,
,,,,,,,,,,5f61d8946a529c04bdffd02d,18,Mężczyzna,2022-06-04_09h37.20.345,task,2021.1.4,Win32,60.36095853,628b806c463b948bc644b84f,629afece692063e219f8d5b1,,,,,,,,,,,bgg,"[""b"",""g"",""g""]","[0.3821000003815129,0.4940000000000282,0.6953000001907412,0.8831000003814893]",1,BGG,3,0,3,0,1,,,,,,,,,,,,,,,,,,,,,,,,,,,,,,,,,,,,,,,,,,,,,,,,,,,,,,,,,,,,,,,,,,,,,,,,,,,,,,,,,,,
,,,,,,,,,,5f61d8946a529c04bdffd02d,18,Mężczyzna,2022-06-04_09h37.20.345,task,2021.1.4,Win32,60.36095853,628b806c463b948bc644b84f,629afece692063e219f8d5b1,,,,,0,0,0,0,1,X V Q F H G B L J M P D K C T S W R N Z,,,,,,,,,,,,,,,,,,,,,,,,,,,,,,,,,,,,,,,,,,,,,,,,,,,,,,,,,,,,,,,,,,,,,,,,,,,,,,,,,,,,,,,,,,,,,
,,,,,,,,,,5f61d8946a529c04bdffd02d,18,Mężczyzna,2022-06-04_09h37.20.345,task,2021.1.4,Win32,60.36095853,628b806c463b948bc644b84f,629afece692063e219f8d5b1,,,,,1,0,1,0,1,X V Q F H G B L J M P D K C T S W R N Z,,,,,,,,,,,,,,,,,,,,,,,,,,,,,,,,,,,,,,,,,,,,,,,,,,,,,,,,,,,,,,,,,,,,,,,,,,,,,,,,,,,,,,,,,,,,,
,,,,,,,,,,5f61d8946a529c04bdffd02d,18,Mężczyzna,2022-06-04_09h37.20.345,task,2021.1.4,Win32,60.36095853,628b806c463b948bc644b84f,629afece692063e219f8d5b1,,,,,2,0,2,0,1,X V Q F H G B L J M P D K C T S W R N Z,,,,,,,,,,,,,,,,,,,,,,,,,,,,,,,,,,,,,,,,,,,,,,,,,,,,,,,,,,,,,,,,,,,,,,,,,,,,,,,,,,,,,,,,,,,,,
,,,,,,,,,,5f61d8946a529c04bdffd02d,18,Mężczyzna,2022-06-04_09h37.20.345,task,2021.1.4,Win32,60.36095853,628b806c463b948bc644b84f,629afece692063e219f8d5b1,,,,,3,0,3,0,1,X V Q F H G B L J M P D K C T S W R N Z,,,,,,,,,,,,,,,,,,,,,,,,,,,,,,,,,,,,,,,,,,,,,,,,,,,,,,,,,,,,,,,,,,,,,,,,,,,,,,,,,,,,,,,,,,,,,
,,,,,,,,,,5f61d8946a529c04bdffd02d,18,Mężczyzna,2022-06-04_09h37.20.345,task,2021.1.4,Win32,60.36095853,628b806c463b948bc644b84f,629afece692063e219f8d5b1,,,,,,,,,,,kwgh,"[""k"",""w"",""g"",""h""]","[0.46999999999997044,0.5582000007629517,0.7443000001907194,0.9990000000000236,1.3604000005722128]",1,KWGH,4,0,4,0,1,,,,,,,,,,,,,,,,,,,,,,,,,,,,,,,,,,,,,,,,,,,,,,,,,,,,,,,,,,,,,,,,,,,,,,,,,,,,,,,,,,,
,,,,,,,,,,5f61d8946a529c04bdffd02d,18,Mężczyzna,2022-06-04_09h37.20.345,task,2021.1.4,Win32,60.36095853,628b806c463b948bc644b84f,629afece692063e219f8d5b1,,,,,0,0,0,0,1,X V Q F H G B L J M P D K C T S W R N Z,,,,,,,,,,,,,,,,,,,,,,,,,,,,,,,,,,,,,,,,,,,,,,,,,,,,,,,,,,,,,,,,,,,,,,,,,,,,,,,,,,,,,,,,,,,,,
,,,,,,,,,,5f61d8946a529c04bdffd02d,18,Mężczyzna,2022-06-04_09h37.20.345,task,2021.1.4,Win32,60.36095853,628b806c463b948bc644b84f,629afece692063e219f8d5b1,,,,,1,0,1,0,1,X V Q F H G B L J M P D K C T S W R N Z,,,,,,,,,,,,,,,,,,,,,,,,,,,,,,,,,,,,,,,,,,,,,,,,,,,,,,,,,,,,,,,,,,,,,,,,,,,,,,,,,,,,,,,,,,,,,
,,,,,,,,,,5f61d8946a529c04bdffd02d,18,Mężczyzna,2022-06-04_09h37.20.345,task,2021.1.4,Win32,60.36095853,628b806c463b948bc644b84f,629afece692063e219f8d5b1,,,,,2,0,2,0,1,X V Q F H G B L J M P D K C T S W R N Z,,,,,,,,,,,,,,,,,,,,,,,,,,,,,,,,,,,,,,,,,,,,,,,,,,,,,,,,,,,,,,,,,,,,,,,,,,,,,,,,,,,,,,,,,,,,,
,,,,,,,,,,5f61d8946a529c04bdffd02d,18,Mężczyzna,2022-06-04_09h37.20.345,task,2021.1.4,Win32,60.36095853,628b806c463b948bc644b84f,629afece692063e219f8d5b1,,,,,3,0,3,0,1,X V Q F H G B L J M P D K C T S W R N Z,,,,,,,,,,,,,,,,,,,,,,,,,,,,,,,,,,,,,,,,,,,,,,,,,,,,,,,,,,,,,,,,,,,,,,,,,,,,,,,,,,,,,,,,,,,,,
,,,,,,,,,,5f61d8946a529c04bdffd02d,18,Mężczyzna,2022-06-04_09h37.20.345,task,2021.1.4,Win32,60.36095853,628b806c463b948bc644b84f,629afece692063e219f8d5b1,,,,,,,,,,,msdx,"[""m"",""s"",""d"",""x""]","[0.6494999999999891,0.7674999999999841,0.9055000000000177,1.1925999994277845,1.5262999992370396]",1,MSDX,5,0,5,0,1,,,,,,,,,,,,,,,,,,,,,,,,,,,,,,,,,,,,,,,,,,,,,,,,,,,,,,,,,,,,,,,,,,,,,,,,,,,,,,,,,,,
,,,,,,,,,,5f61d8946a529c04bdffd02d,18,Mężczyzna,2022-06-04_09h37.20.345,task,2021.1.4,Win32,60.36095853,628b806c463b948bc644b84f,629afece692063e219f8d5b1,,,,,0,0,0,0,1,X V Q F H G B L J M P D K C T S W R N Z,,,,,,,,,,,,,,,,,,,,,,,,,,,,,,,,,,,,,,,,,,,,,,,,,,,,,,,,,,,,,,,,,,,,,,,,,,,,,,,,,,,,,,,,,,,,,
,,,,,,,,,,5f61d8946a529c04bdffd02d,18,Mężczyzna,2022-06-04_09h37.20.345,task,2021.1.4,Win32,60.36095853,628b806c463b948bc644b84f,629afece692063e219f8d5b1,,,,,1,0,1,0,1,X V Q F H G B L J M P D K C T S W R N Z,,,,,,,,,,,,,,,,,,,,,,,,,,,,,,,,,,,,,,,,,,,,,,,,,,,,,,,,,,,,,,,,,,,,,,,,,,,,,,,,,,,,,,,,,,,,,
,,,,,,,,,,5f61d8946a529c04bdffd02d,18,Mężczyzna,2022-06-04_09h37.20.345,task,2021.1.4,Win32,60.36095853,628b806c463b948bc644b84f,629afece692063e219f8d5b1,,,,,2,0,2,0,1,X V Q F H G B L J M P D K C T S W R N Z,,,,,,,,,,,,,,,,,,,,,,,,,,,,,,,,,,,,,,,,,,,,,,,,,,,,,,,,,,,,,,,,,,,,,,,,,,,,,,,,,,,,,,,,,,,,,
,,,,,,,,,,5f61d8946a529c04bdffd02d,18,Mężczyzna,2022-06-04_09h37.20.345,task,2021.1.4,Win32,60.36095853,628b806c463b948bc644b84f,629afece692063e219f8d5b1,,,,,3,0,3,0,1,X V Q F H G B L J M P D K C T S W R N Z,,,,,,,,,,,,,,,,,,,,,,,,,,,,,,,,,,,,,,,,,,,,,,,,,,,,,,,,,,,,,,,,,,,,,,,,,,,,,,,,,,,,,,,,,,,,,
,,,,,,,,,,5f61d8946a529c04bdffd02d,18,Mężczyzna,2022-06-04_09h37.20.345,task,2021.1.4,Win32,60.36095853,628b806c463b948bc644b84f,629afece692063e219f8d5b1,,,,,4,0,4,0,1,X V Q F H G B L J M P D K C T S W R N Z,,,,,,,,,,,,,,,,,,,,,,,,,,,,,,,,,,,,,,,,,,,,,,,,,,,,,,,,,,,,,,,,,,,,,,,,,,,,,,,,,,,,,,,,,,,,,
,,,,,,,,,,5f61d8946a529c04bdffd02d,18,Mężczyzna,2022-06-04_09h37.20.345,task,2021.1.4,Win32,60.36095853,628b806c463b948bc644b84f,629afece692063e219f8d5b1,,,,,,,,,,,tpdvh,"[""t"",""p"",""d"",""v"",""h""]","[0.33980000019073486,0.5058000001907317,0.6999000005721996,1.541800000190733,1.8511999998092392,2.0009999999999764]",1,TPDVH,6,0,6,0,1,,,,,,,,,,,,,,,,,,,,,,,,,,,,,,,,,,,,,,,,,,,,,,,,,,,,,,,,,,,,,,,,,,,,,,,,,,,,,,,,,,,
,,,,,,,,,,5f61d8946a529c04bdffd02d,18,Mężczyzna,2022-06-04_09h37.20.345,task,2021.1.4,Win32,60.36095853,628b806c463b948bc644b84f,629afece692063e219f8d5b1,,,,,0,0,0,0,1,X V Q F H G B L J M P D K C T S W R N Z,,,,,,,,,,,,,,,,,,,,,,,,,,,,,,,,,,,,,,,,,,,,,,,,,,,,,,,,,,,,,,,,,,,,,,,,,,,,,,,,,,,,,,,,,,,,,
,,,,,,,,,,5f61d8946a529c04bdffd02d,18,Mężczyzna,2022-06-04_09h37.20.345,task,2021.1.4,Win32,60.36095853,628b806c463b948bc644b84f,629afece692063e219f8d5b1,,,,,1,0,1,0,1,X V Q F H G B L J M P D K C T S W R N Z,,,,,,,,,,,,,,,,,,,,,,,,,,,,,,,,,,,,,,,,,,,,,,,,,,,,,,,,,,,,,,,,,,,,,,,,,,,,,,,,,,,,,,,,,,,,,
,,,,,,,,,,5f61d8946a529c04bdffd02d,18,Mężczyzna,2022-06-04_09h37.20.345,task,2021.1.4,Win32,60.36095853,628b806c463b948bc644b84f,629afece692063e219f8d5b1,,,,,2,0,2,0,1,X V Q F H G B L J M P D K C T S W R N Z,,,,,,,,,,,,,,,,,,,,,,,,,,,,,,,,,,,,,,,,,,,,,,,,,,,,,,,,,,,,,,,,,,,,,,,,,,,,,,,,,,,,,,,,,,,,,
,,,,,,,,,,5f61d8946a529c04bdffd02d,18,Mężczyzna,2022-06-04_09h37.20.345,task,2021.1.4,Win32,60.36095853,628b806c463b948bc644b84f,629afece692063e219f8d5b1,,,,,3,0,3,0,1,X V Q F H G B L J M P D K C T S W R N Z,,,,,,,,,,,,,,,,,,,,,,,,,,,,,,,,,,,,,,,,,,,,,,,,,,,,,,,,,,,,,,,,,,,,,,,,,,,,,,,,,,,,,,,,,,,,,
,,,,,,,,,,5f61d8946a529c04bdffd02d,18,Mężczyzna,2022-06-04_09h37.20.345,task,2021.1.4,Win32,60.36095853,628b806c463b948bc644b84f,629afece692063e219f8d5b1,,,,,4,0,4,0,1,X V Q F H G B L J M P D K C T S W R N Z,,,,,,,,,,,,,,,,,,,,,,,,,,,,,,,,,,,,,,,,,,,,,,,,,,,,,,,,,,,,,,,,,,,,,,,,,,,,,,,,,,,,,,,,,,,,,
,,,,,,,,,,5f61d8946a529c04bdffd02d,18,Mężczyzna,2022-06-04_09h37.20.345,task,2021.1.4,Win32,60.36095853,628b806c463b948bc644b84f,629afece692063e219f8d5b1,,,,,,,,,,,xgklm,"[""x"",""g"",""k"",""l"",""m""]","[0.9906000003814484,1.3358000001907158,1.590300000190723,1.8206000003814324,1.9814000005721937,2.3879000005721878]",0,XGKML,7,0,7,0,1,,,,,,,,,,,,,,,,,,,,,,,,,,,,,,,,,,,,,,,,,,,,,,,,,,,,,,,,,,,,,,,,,,,,,,,,,,,,,,,,,,,
,,,,,,,,,,5f61d8946a529c04bdffd02d,18,Mężczyzna,2022-06-04_09h37.20.345,task,2021.1.4,Win32,60.36095853,628b806c463b948bc644b84f,629afece692063e219f8d5b1,,,,,0,0,0,0,1,X V Q F H G B L J M P D K C T S W R N Z,,,,,,,,,,,,,,,,,,,,,,,,,,,,,,,,,,,,,,,,,,,,,,,,,,,,,,,,,,,,,,,,,,,,,,,,,,,,,,,,,,,,,,,,,,,,,
,,,,,,,,,,5f61d8946a529c04bdffd02d,18,Mężczyzna,2022-06-04_09h37.20.345,task,2021.1.4,Win32,60.36095853,628b806c463b948bc644b84f,629afece692063e219f8d5b1,,,,,1,0,1,0,1,X V Q F H G B L J M P D K C T S W R N Z,,,,,,,,,,,,,,,,,,,,,,,,,,,,,,,,,,,,,,,,,,,,,,,,,,,,,,,,,,,,,,,,,,,,,,,,,,,,,,,,,,,,,,,,,,,,,
,,,,,,,,,,5f61d8946a529c04bdffd02d,18,Mężczyzna,2022-06-04_09h37.20.345,task,2021.1.4,Win32,60.36095853,628b806c463b948bc644b84f,629afece692063e219f8d5b1,,,,,2,0,2,0,1,X V Q F H G B L J M P D K C T S W R N Z,,,,,,,,,,,,,,,,,,,,,,,,,,,,,,,,,,,,,,,,,,,,,,,,,,,,,,,,,,,,,,,,,,,,,,,,,,,,,,,,,,,,,,,,,,,,,
,,,,,,,,,,5f61d8946a529c04bdffd02d,18,Mężczyzna,2022-06-04_09h37.20.345,task,2021.1.4,Win32,60.36095853,628b806c463b948bc644b84f,629afece692063e219f8d5b1,,,,,3,0,3,0,1,X V Q F H G B L J M P D K C T S W R N Z,,,,,,,,,,,,,,,,,,,,,,,,,,,,,,,,,,,,,,,,,,,,,,,,,,,,,,,,,,,,,,,,,,,,,,,,,,,,,,,,,,,,,,,,,,,,,
,,,,,,,,,,5f61d8946a529c04bdffd02d,18,Mężczyzna,2022-06-04_09h37.20.345,task,2021.1.4,Win32,60.36095853,628b806c463b948bc644b84f,629afece692063e219f8d5b1,,,,,4,0,4,0,1,X V Q F H G B L J M P D K C T S W R N Z,,,,,,,,,,,,,,,,,,,,,,,,,,,,,,,,,,,,,,,,,,,,,,,,,,,,,,,,,,,,,,,,,,,,,,,,,,,,,,,,,,,,,,,,,,,,,
,,,,,,,,,,5f61d8946a529c04bdffd02d,18,Mężczyzna,2022-06-04_09h37.20.345,task,2021.1.4,Win32,60.36095853,628b806c463b948bc644b84f,629afece692063e219f8d5b1,,,,,,,,,,,whsvg,"[""w"",""h"",""s"",""v"",""g""]","[1.3486999998092415,1.8723999996185512,2.358199999809244,2.714999999999975,2.9243000001907262,3.298699999809287]",1,WHSVG,8,0,8,0,1,,,,,,,,,,,,,,,,,,,,,,,,,,,,,,,,,,,,,,,,,,,,,,,,,,,,,,,,,,,,,,,,,,,,,,,,,,,,,,,,,,,
,,,,,,,,,,5f61d8946a529c04bdffd02d,18,Mężczyzna,2022-06-04_09h37.20.345,task,2021.1.4,Win32,60.36095853,628b806c463b948bc644b84f,629afece692063e219f8d5b1,,,,,0,0,0,0,1,X V Q F H G B L J M P D K C T S W R N Z,,,,,,,,,,,,,,,,,,,,,,,,,,,,,,,,,,,,,,,,,,,,,,,,,,,,,,,,,,,,,,,,,,,,,,,,,,,,,,,,,,,,,,,,,,,,,
,,,,,,,,,,5f61d8946a529c04bdffd02d,18,Mężczyzna,2022-06-04_09h37.20.345,task,2021.1.4,Win32,60.36095853,628b806c463b948bc644b84f,629afece692063e219f8d5b1,,,,,1,0,1,0,1,X V Q F H G B L J M P D K C T S W R N Z,,,,,,,,,,,,,,,,,,,,,,,,,,,,,,,,,,,,,,,,,,,,,,,,,,,,,,,,,,,,,,,,,,,,,,,,,,,,,,,,,,,,,,,,,,,,,
,,,,,,,,,,5f61d8946a529c04bdffd02d,18,Mężczyzna,2022-06-04_09h37.20.345,task,2021.1.4,Win32,60.36095853,628b806c463b948bc644b84f,629afece692063e219f8d5b1,,,,,2,0,2,0,1,X V Q F H G B L J M P D K C T S W R N Z,,,,,,,,,,,,,,,,,,,,,,,,,,,,,,,,,,,,,,,,,,,,,,,,,,,,,,,,,,,,,,,,,,,,,,,,,,,,,,,,,,,,,,,,,,,,,
,,,,,,,,,,5f61d8946a529c04bdffd02d,18,Mężczyzna,2022-06-04_09h37.20.345,task,2021.1.4,Win32,60.36095853,628b806c463b948bc644b84f,629afece692063e219f8d5b1,,,,,3,0,3,0,1,X V Q F H G B L J M P D K C T S W R N Z,,,,,,,,,,,,,,,,,,,,,,,,,,,,,,,,,,,,,,,,,,,,,,,,,,,,,,,,,,,,,,,,,,,,,,,,,,,,,,,,,,,,,,,,,,,,,
,,,,,,,,,,5f61d8946a529c04bdffd02d,18,Mężczyzna,2022-06-04_09h37.20.345,task,2021.1.4,Win32,60.36095853,628b806c463b948bc644b84f,629afece692063e219f8d5b1,,,,,4,0,4,0,1,X V Q F H G B L J M P D K C T S W R N Z,,,,,,,,,,,,,,,,,,,,,,,,,,,,,,,,,,,,,,,,,,,,,,,,,,,,,,,,,,,,,,,,,,,,,,,,,,,,,,,,,,,,,,,,,,,,,
,,,,,,,,,,5f61d8946a529c04bdffd02d,18,Mężczyzna,2022-06-04_09h37.20.345,task,2021.1.4,Win32,60.36095853,628b806c463b948bc644b84f,629afece692063e219f8d5b1,,,,,5,0,5,0,1,X V Q F H G B L J M P D K C T S W R N Z,,,,,,,,,,,,,,,,,,,,,,,,,,,,,,,,,,,,,,,,,,,,,,,,,,,,,,,,,,,,,,,,,,,,,,,,,,,,,,,,,,,,,,,,,,,,,
,,,,,,,,,,5f61d8946a529c04bdffd02d,18,Mężczyzna,2022-06-04_09h37.20.345,task,2021.1.4,Win32,60.36095853,628b806c463b948bc644b84f,629afece692063e219f8d5b1,,,,,,,,,,,pcpxsx,"[""p"",""c"",""p"",""x"",""s"",""x""]","[1.7261999998092392,1.915899999618489,2.1153000001907003,2.305199999809247,2.7405999994277863,2.9698999996185194,3.3113000001907267]",1,PCPXSX,9,0,9,0,1,,,,,,,,,,,,,,,,,,,,,,,,,,,,,,,,,,,,,,,,,,,,,,,,,,,,,,,,,,,,,,,,,,,,,,,,,,,,,,,,,,,
,,,,,,,,,,5f61d8946a529c04bdffd02d,18,Mężczyzna,2022-06-04_09h37.20.345,task,2021.1.4,Win32,60.36095853,628b806c463b948bc644b84f,629afece692063e219f8d5b1,,,,,0,0,0,0,1,X V Q F H G B L J M P D K C T S W R N Z,,,,,,,,,,,,,,,,,,,,,,,,,,,,,,,,,,,,,,,,,,,,,,,,,,,,,,,,,,,,,,,,,,,,,,,,,,,,,,,,,,,,,,,,,,,,,
,,,,,,,,,,5f61d8946a529c04bdffd02d,18,Mężczyzna,2022-06-04_09h37.20.345,task,2021.1.4,Win32,60.36095853,628b806c463b948bc644b84f,629afece692063e219f8d5b1,,,,,1,0,1,0,1,X V Q F H G B L J M P D K C T S W R N Z,,,,,,,,,,,,,,,,,,,,,,,,,,,,,,,,,,,,,,,,,,,,,,,,,,,,,,,,,,,,,,,,,,,,,,,,,,,,,,,,,,,,,,,,,,,,,
,,,,,,,,,,5f61d8946a529c04bdffd02d,18,Mężczyzna,2022-06-04_09h37.20.345,task,2021.1.4,Win32,60.36095853,628b806c463b948bc644b84f,629afece692063e219f8d5b1,,,,,2,0,2,0,1,X V Q F H G B L J M P D K C T S W R N Z,,,,,,,,,,,,,,,,,,,,,,,,,,,,,,,,,,,,,,,,,,,,,,,,,,,,,,,,,,,,,,,,,,,,,,,,,,,,,,,,,,,,,,,,,,,,,
,,,,,,,,,,5f61d8946a529c04bdffd02d,18,Mężczyzna,2022-06-04_09h37.20.345,task,2021.1.4,Win32,60.36095853,628b806c463b948bc644b84f,629afece692063e219f8d5b1,,,,,3,0,3,0,1,X V Q F H G B L J M P D K C T S W R N Z,,,,,,,,,,,,,,,,,,,,,,,,,,,,,,,,,,,,,,,,,,,,,,,,,,,,,,,,,,,,,,,,,,,,,,,,,,,,,,,,,,,,,,,,,,,,,
,,,,,,,,,,5f61d8946a529c04bdffd02d,18,Mężczyzna,2022-06-04_09h37.20.345,task,2021.1.4,Win32,60.36095853,628b806c463b948bc644b84f,629afece692063e219f8d5b1,,,,,4,0,4,0,1,X V Q F H G B L J M P D K C T S W R N Z,,,,,,,,,,,,,,,,,,,,,,,,,,,,,,,,,,,,,,,,,,,,,,,,,,,,,,,,,,,,,,,,,,,,,,,,,,,,,,,,,,,,,,,,,,,,,
,,,,,,,,,,5f61d8946a529c04bdffd02d,18,Mężczyzna,2022-06-04_09h37.20.345,task,2021.1.4,Win32,60.36095853,628b806c463b948bc644b84f,629afece692063e219f8d5b1,,,,,5,0,5,0,1,X V Q F H G B L J M P D K C T S W R N Z,,,,,,,,,,,,,,,,,,,,,,,,,,,,,,,,,,,,,,,,,,,,,,,,,,,,,,,,,,,,,,,,,,,,,,,,,,,,,,,,,,,,,,,,,,,,,
,,,,,,,,,,5f61d8946a529c04bdffd02d,18,Mężczyzna,2022-06-04_09h37.20.345,task,2021.1.4,Win32,60.36095853,628b806c463b948bc644b84f,629afece692063e219f8d5b1,,,,,,,,,,,mlhgql,"[""m"",""l"",""h"",""g"",""q"",""l""]","[0.41110000038145245,0.5221000003814424,0.7113000001907608,0.8683999996185321,2.066500000000019,4.078899999618557,4.3763999996185134]",0,MLHGQR,10,0,10,0,1,,,,,,,,,,,,,,,,,,,,,,,,,,,,,,,,,,,,,,,,,,,,,,,,,,,,,,,,,,,,,,,,,,,,,,,,,,,,,,,,,,,
,,,,,,,,,,5f61d8946a529c04bdffd02d,18,Mężczyzna,2022-06-04_09h37.20.345,task,2021.1.4,Win32,60.36095853,628b806c463b948bc644b84f,629afece692063e219f8d5b1,,,,,0,0,0,0,1,X V Q F H G B L J M P D K C T S W R N Z,,,,,,,,,,,,,,,,,,,,,,,,,,,,,,,,,,,,,,,,,,,,,,,,,,,,,,,,,,,,,,,,,,,,,,,,,,,,,,,,,,,,,,,,,,,,,
,,,,,,,,,,5f61d8946a529c04bdffd02d,18,Mężczyzna,2022-06-04_09h37.20.345,task,2021.1.4,Win32,60.36095853,628b806c463b948bc644b84f,629afece692063e219f8d5b1,,,,,1,0,1,0,1,X V Q F H G B L J M P D K C T S W R N Z,,,,,,,,,,,,,,,,,,,,,,,,,,,,,,,,,,,,,,,,,,,,,,,,,,,,,,,,,,,,,,,,,,,,,,,,,,,,,,,,,,,,,,,,,,,,,
,,,,,,,,,,5f61d8946a529c04bdffd02d,18,Mężczyzna,2022-06-04_09h37.20.345,task,2021.1.4,Win32,60.36095853,628b806c463b948bc644b84f,629afece692063e219f8d5b1,,,,,2,0,2,0,1,X V Q F H G B L J M P D K C T S W R N Z,,,,,,,,,,,,,,,,,,,,,,,,,,,,,,,,,,,,,,,,,,,,,,,,,,,,,,,,,,,,,,,,,,,,,,,,,,,,,,,,,,,,,,,,,,,,,
,,,,,,,,,,5f61d8946a529c04bdffd02d,18,Mężczyzna,2022-06-04_09h37.20.345,task,2021.1.4,Win32,60.36095853,628b806c463b948bc644b84f,629afece692063e219f8d5b1,,,,,3,0,3,0,1,X V Q F H G B L J M P D K C T S W R N Z,,,,,,,,,,,,,,,,,,,,,,,,,,,,,,,,,,,,,,,,,,,,,,,,,,,,,,,,,,,,,,,,,,,,,,,,,,,,,,,,,,,,,,,,,,,,,
,,,,,,,,,,5f61d8946a529c04bdffd02d,18,Mężczyzna,2022-06-04_09h37.20.345,task,2021.1.4,Win32,60.36095853,628b806c463b948bc644b84f,629afece692063e219f8d5b1,,,,,4,0,4,0,1,X V Q F H G B L J M P D K C T S W R N Z,,,,,,,,,,,,,,,,,,,,,,,,,,,,,,,,,,,,,,,,,,,,,,,,,,,,,,,,,,,,,,,,,,,,,,,,,,,,,,,,,,,,,,,,,,,,,
,,,,,,,,,,5f61d8946a529c04bdffd02d,18,Mężczyzna,2022-06-04_09h37.20.345,task,2021.1.4,Win32,60.36095853,628b806c463b948bc644b84f,629afece692063e219f8d5b1,,,,,5,0,5,0,1,X V Q F H G B L J M P D K C T S W R N Z,,,,,,,,,,,,,,,,,,,,,,,,,,,,,,,,,,,,,,,,,,,,,,,,,,,,,,,,,,,,,,,,,,,,,,,,,,,,,,,,,,,,,,,,,,,,,
,,,,,,,,,,5f61d8946a529c04bdffd02d,18,Mężczyzna,2022-06-04_09h37.20.345,task,2021.1.4,Win32,60.36095853,628b806c463b948bc644b84f,629afece692063e219f8d5b1,,,,,,,,,,,zdvjbp,"[""z"",""d"",""v"",""j"",""b"",""p""]","[0.9843000001907285,1.2989999999999782,1.7491999998092638,2.0989999999999895,2.374600000381463,3.0501000003814625,3.375499999999988]",1,ZDVJBP,11,0,11,0,1,,,,,,,,,,,,,,,,,,,,,,,,,,,,,,,,,,,,,,,,,,,,,,,,,,,,,,,,,,,,,,,,,,,,,,,,,,,,,,,,,,,
,,,,,,,,,,5f61d8946a529c04bdffd02d,18,Mężczyzna,2022-06-04_09h37.20.345,task,2021.1.4,Win32,60.36095853,628b806c463b948bc644b84f,629afece692063e219f8d5b1,,,,,0,0,0,0,1,X V Q F H G B L J M P D K C T S W R N Z,,,,,,,,,,,,,,,,,,,,,,,,,,,,,,,,,,,,,,,,,,,,,,,,,,,,,,,,,,,,,,,,,,,,,,,,,,,,,,,,,,,,,,,,,,,,,
,,,,,,,,,,5f61d8946a529c04bdffd02d,18,Mężczyzna,2022-06-04_09h37.20.345,task,2021.1.4,Win32,60.36095853,628b806c463b948bc644b84f,629afece692063e219f8d5b1,,,,,1,0,1,0,1,X V Q F H G B L J M P D K C T S W R N Z,,,,,,,,,,,,,,,,,,,,,,,,,,,,,,,,,,,,,,,,,,,,,,,,,,,,,,,,,,,,,,,,,,,,,,,,,,,,,,,,,,,,,,,,,,,,,
,,,,,,,,,,5f61d8946a529c04bdffd02d,18,Mężczyzna,2022-06-04_09h37.20.345,task,2021.1.4,Win32,60.36095853,628b806c463b948bc644b84f,629afece692063e219f8d5b1,,,,,2,0,2,0,1,X V Q F H G B L J M P D K C T S W R N Z,,,,,,,,,,,,,,,,,,,,,,,,,,,,,,,,,,,,,,,,,,,,,,,,,,,,,,,,,,,,,,,,,,,,,,,,,,,,,,,,,,,,,,,,,,,,,
,,,,,,,,,,5f61d8946a529c04bdffd02d,18,Mężczyzna,2022-06-04_09h37.20.345,task,2021.1.4,Win32,60.36095853,628b806c463b948bc644b84f,629afece692063e219f8d5b1,,,,,3,0,3,0,1,X V Q F H G B L J M P D K C T S W R N Z,,,,,,,,,,,,,,,,,,,,,,,,,,,,,,,,,,,,,,,,,,,,,,,,,,,,,,,,,,,,,,,,,,,,,,,,,,,,,,,,,,,,,,,,,,,,,
,,,,,,,,,,5f61d8946a529c04bdffd02d,18,Mężczyzna,2022-06-04_09h37.20.345,task,2021.1.4,Win32,60.36095853,628b806c463b948bc644b84f,629afece692063e219f8d5b1,,,,,4,0,4,0,1,X V Q F H G B L J M P D K C T S W R N Z,,,,,,,,,,,,,,,,,,,,,,,,,,,,,,,,,,,,,,,,,,,,,,,,,,,,,,,,,,,,,,,,,,,,,,,,,,,,,,,,,,,,,,,,,,,,,
,,,,,,,,,,5f61d8946a529c04bdffd02d,18,Mężczyzna,2022-06-04_09h37.20.345,task,2021.1.4,Win32,60.36095853,628b806c463b948bc644b84f,629afece692063e219f8d5b1,,,,,5,0,5,0,1,X V Q F H G B L J M P D K C T S W R N Z,,,,,,,,,,,,,,,,,,,,,,,,,,,,,,,,,,,,,,,,,,,,,,,,,,,,,,,,,,,,,,,,,,,,,,,,,,,,,,,,,,,,,,,,,,,,,
,,,,,,,,,,5f61d8946a529c04bdffd02d,18,Mężczyzna,2022-06-04_09h37.20.345,task,2021.1.4,Win32,60.36095853,628b806c463b948bc644b84f,629afece692063e219f8d5b1,,,,,6,0,6,0,1,X V Q F H G B L J M P D K C T S W R N Z,,,,,,,,,,,,,,,,,,,,,,,,,,,,,,,,,,,,,,,,,,,,,,,,,,,,,,,,,,,,,,,,,,,,,,,,,,,,,,,,,,,,,,,,,,,,,
,,,,,,,,,,5f61d8946a529c04bdffd02d,18,Mężczyzna,2022-06-04_09h37.20.345,task,2021.1.4,Win32,60.36095853,628b806c463b948bc644b84f,629afece692063e219f8d5b1,,,,,,,,,,,jpfwqwg,"[""j"",""p"",""f"",""w"",""q"",""w"",""g""]","[0.36569999980929424,0.4998999996185489,0.7263999996185362,0.9713000001907517,1.3763999996185703,1.9263999996185817,2.5020000000000095,2.7416000003814815]",0,JWPFQWZ,12,0,12,0,1,,,,,,,,,,,,,,,,,,,,,,,,,,,,,,,,,,,,,,,,,,,,,,,,,,,,,,,,,,,,,,,,,,,,,,,,,,,,,,,,,,,
,,,,,,,,,,5f61d8946a529c04bdffd02d,18,Mężczyzna,2022-06-04_09h37.20.345,task,2021.1.4,Win32,60.36095853,628b806c463b948bc644b84f,629afece692063e219f8d5b1,,,,,0,0,0,0,1,X V Q F H G B L J M P D K C T S W R N Z,,,,,,,,,,,,,,,,,,,,,,,,,,,,,,,,,,,,,,,,,,,,,,,,,,,,,,,,,,,,,,,,,,,,,,,,,,,,,,,,,,,,,,,,,,,,,
,,,,,,,,,,5f61d8946a529c04bdffd02d,18,Mężczyzna,2022-06-04_09h37.20.345,task,2021.1.4,Win32,60.36095853,628b806c463b948bc644b84f,629afece692063e219f8d5b1,,,,,1,0,1,0,1,X V Q F H G B L J M P D K C T S W R N Z,,,,,,,,,,,,,,,,,,,,,,,,,,,,,,,,,,,,,,,,,,,,,,,,,,,,,,,,,,,,,,,,,,,,,,,,,,,,,,,,,,,,,,,,,,,,,
,,,,,,,,,,5f61d8946a529c04bdffd02d,18,Mężczyzna,2022-06-04_09h37.20.345,task,2021.1.4,Win32,60.36095853,628b806c463b948bc644b84f,629afece692063e219f8d5b1,,,,,2,0,2,0,1,X V Q F H G B L J M P D K C T S W R N Z,,,,,,,,,,,,,,,,,,,,,,,,,,,,,,,,,,,,,,,,,,,,,,,,,,,,,,,,,,,,,,,,,,,,,,,,,,,,,,,,,,,,,,,,,,,,,
,,,,,,,,,,5f61d8946a529c04bdffd02d,18,Mężczyzna,2022-06-04_09h37.20.345,task,2021.1.4,Win32,60.36095853,628b806c463b948bc644b84f,629afece692063e219f8d5b1,,,,,3,0,3,0,1,X V Q F H G B L J M P D K C T S W R N Z,,,,,,,,,,,,,,,,,,,,,,,,,,,,,,,,,,,,,,,,,,,,,,,,,,,,,,,,,,,,,,,,,,,,,,,,,,,,,,,,,,,,,,,,,,,,,
,,,,,,,,,,5f61d8946a529c04bdffd02d,18,Mężczyzna,2022-06-04_09h37.20.345,task,2021.1.4,Win32,60.36095853,628b806c463b948bc644b84f,629afece692063e219f8d5b1,,,,,4,0,4,0,1,X V Q F H G B L J M P D K C T S W R N Z,,,,,,,,,,,,,,,,,,,,,,,,,,,,,,,,,,,,,,,,,,,,,,,,,,,,,,,,,,,,,,,,,,,,,,,,,,,,,,,,,,,,,,,,,,,,,
,,,,,,,,,,5f61d8946a529c04bdffd02d,18,Mężczyzna,2022-06-04_09h37.20.345,task,2021.1.4,Win32,60.36095853,628b806c463b948bc644b84f,629afece692063e219f8d5b1,,,,,5,0,5,0,1,X V Q F H G B L J M P D K C T S W R N Z,,,,,,,,,,,,,,,,,,,,,,,,,,,,,,,,,,,,,,,,,,,,,,,,,,,,,,,,,,,,,,,,,,,,,,,,,,,,,,,,,,,,,,,,,,,,,
,,,,,,,,,,5f61d8946a529c04bdffd02d,18,Mężczyzna,2022-06-04_09h37.20.345,task,2021.1.4,Win32,60.36095853,628b806c463b948bc644b84f,629afece692063e219f8d5b1,,,,,6,0,6,0,1,X V Q F H G B L J M P D K C T S W R N Z,,,,,,,,,,,,,,,,,,,,,,,,,,,,,,,,,,,,,,,,,,,,,,,,,,,,,,,,,,,,,,,,,,,,,,,,,,,,,,,,,,,,,,,,,,,,,
,,,,,,,,,,5f61d8946a529c04bdffd02d,18,Mężczyzna,2022-06-04_09h37.20.345,task,2021.1.4,Win32,60.36095853,628b806c463b948bc644b84f,629afece692063e219f8d5b1,,,,,,,,,,,qcwvcs,"[""q"",""c"",""w"",""v"",""c"",""s""]","[2.148399999618505,2.308800000190729,3.138499999999965,5.005999999999972,5.725199999809263,6.2761000003814615,6.697399999618483]",0,QCWBVDS,13,0,13,0,1,,,,,,,,,,,,,,,,,,,,,,,,,,,,,,,,,,,,,,,,,,,,,,,,,,,,,,,,,,,,,,,,,,,,,,,,,,,,,,,,,,,
,,,,,,,,,,5f61d8946a529c04bdffd02d,18,Mężczyzna,2022-06-04_09h37.20.345,task,2021.1.4,Win32,60.36095853,628b806c463b948bc644b84f,629afece692063e219f8d5b1,,,,,0,0,0,0,1,X V Q F H G B L J M P D K C T S W R N Z,,,,,,,,,,,,,,,,,,,,,,,,,,,,,,,,,,,,,,,,,,,,,,,,,,,,,,,,,,,,,,,,,,,,,,,,,,,,,,,,,,,,,,,,,,,,,
,,,,,,,,,,5f61d8946a529c04bdffd02d,18,Mężczyzna,2022-06-04_09h37.20.345,task,2021.1.4,Win32,60.36095853,628b806c463b948bc644b84f,629afece692063e219f8d5b1,,,,,1,0,1,0,1,X V Q F H G B L J M P D K C T S W R N Z,,,,,,,,,,,,,,,,,,,,,,,,,,,,,,,,,,,,,,,,,,,,,,,,,,,,,,,,,,,,,,,,,,,,,,,,,,,,,,,,,,,,,,,,,,,,,
,,,,,,,,,,5f61d8946a529c04bdffd02d,18,Mężczyzna,2022-06-04_09h37.20.345,task,2021.1.4,Win32,60.36095853,628b806c463b948bc644b84f,629afece692063e219f8d5b1,,,,,2,0,2,0,1,X V Q F H G B L J M P D K C T S W R N Z,,,,,,,,,,,,,,,,,,,,,,,,,,,,,,,,,,,,,,,,,,,,,,,,,,,,,,,,,,,,,,,,,,,,,,,,,,,,,,,,,,,,,,,,,,,,,
,,,,,,,,,,5f61d8946a529c04bdffd02d,18,Mężczyzna,2022-06-04_09h37.20.345,task,2021.1.4,Win32,60.36095853,628b806c463b948bc644b84f,629afece692063e219f8d5b1,,,,,3,0,3,0,1,X V Q F H G B L J M P D K C T S W R N Z,,,,,,,,,,,,,,,,,,,,,,,,,,,,,,,,,,,,,,,,,,,,,,,,,,,,,,,,,,,,,,,,,,,,,,,,,,,,,,,,,,,,,,,,,,,,,
,,,,,,,,,,5f61d8946a529c04bdffd02d,18,Mężczyzna,2022-06-04_09h37.20.345,task,2021.1.4,Win32,60.36095853,628b806c463b948bc644b84f,629afece692063e219f8d5b1,,,,,4,0,4,0,1,X V Q F H G B L J M P D K C T S W R N Z,,,,,,,,,,,,,,,,,,,,,,,,,,,,,,,,,,,,,,,,,,,,,,,,,,,,,,,,,,,,,,,,,,,,,,,,,,,,,,,,,,,,,,,,,,,,,
,,,,,,,,,,5f61d8946a529c04bdffd02d,18,Mężczyzna,2022-06-04_09h37.20.345,task,2021.1.4,Win32,60.36095853,628b806c463b948bc644b84f,629afece692063e219f8d5b1,,,,,5,0,5,0,1,X V Q F H G B L J M P D K C T S W R N Z,,,,,,,,,,,,,,,,,,,,,,,,,,,,,,,,,,,,,,,,,,,,,,,,,,,,,,,,,,,,,,,,,,,,,,,,,,,,,,,,,,,,,,,,,,,,,
,,,,,,,,,,5f61d8946a529c04bdffd02d,18,Mężczyzna,2022-06-04_09h37.20.345,task,2021.1.4,Win32,60.36095853,628b806c463b948bc644b84f,629afece692063e219f8d5b1,,,,,6,0,6,0,1,X V Q F H G B L J M P D K C T S W R N Z,,,,,,,,,,,,,,,,,,,,,,,,,,,,,,,,,,,,,,,,,,,,,,,,,,,,,,,,,,,,,,,,,,,,,,,,,,,,,,,,,,,,,,,,,,,,,
,,,,,,,,,,5f61d8946a529c04bdffd02d,18,Mężczyzna,2022-06-04_09h37.20.345,task,2021.1.4,Win32,60.36095853,628b806c463b948bc644b84f,629afece692063e219f8d5b1,,,,,,,,,,,dxpllgg,"[""d"",""x"",""p"",""l"",""l"",""g"",""g""]","[0.7829000005722264,1.048700000762949,1.360900000572201,1.5097000007629617,1.8901000003814943,2.236500000000035,2.3914000005722187,2.6680000000000064]",1,DXPLLGG,14,0,14,0,1,,,,,,,,,,,,,,,,,,,,,,,,,,,,,,,,,,,,,,,,,,,,,,,,,,,,,,,,,,,,,,,,,,,,,,,,,,,,,,,,,,,
,,,,,,,,,,5f61d8946a529c04bdffd02d,18,Mężczyzna,2022-06-04_09h37.20.345,task,2021.1.4,Win32,60.36095853,628b806c463b948bc644b84f,629afece692063e219f8d5b1,,,,,0,0,0,0,1,X V Q F H G B L J M P D K C T S W R N Z,,,,,,,,,,,,,,,,,,,,,,,,,,,,,,,,,,,,,,,,,,,,,,,,,,,,,,,,,,,,,,,,,,,,,,,,,,,,,,,,,,,,,,,,,,,,,
,,,,,,,,,,5f61d8946a529c04bdffd02d,18,Mężczyzna,2022-06-04_09h37.20.345,task,2021.1.4,Win32,60.36095853,628b806c463b948bc644b84f,629afece692063e219f8d5b1,,,,,1,0,1,0,1,X V Q F H G B L J M P D K C T S W R N Z,,,,,,,,,,,,,,,,,,,,,,,,,,,,,,,,,,,,,,,,,,,,,,,,,,,,,,,,,,,,,,,,,,,,,,,,,,,,,,,,,,,,,,,,,,,,,
,,,,,,,,,,5f61d8946a529c04bdffd02d,18,Mężczyzna,2022-06-04_09h37.20.345,task,2021.1.4,Win32,60.36095853,628b806c463b948bc644b84f,629afece692063e219f8d5b1,,,,,2,0,2,0,1,X V Q F H G B L J M P D K C T S W R N Z,,,,,,,,,,,,,,,,,,,,,,,,,,,,,,,,,,,,,,,,,,,,,,,,,,,,,,,,,,,,,,,,,,,,,,,,,,,,,,,,,,,,,,,,,,,,,
,,,,,,,,,,5f61d8946a529c04bdffd02d,18,Mężczyzna,2022-06-04_09h37.20.345,task,2021.1.4,Win32,60.36095853,628b806c463b948bc644b84f,629afece692063e219f8d5b1,,,,,3,0,3,0,1,X V Q F H G B L J M P D K C T S W R N Z,,,,,,,,,,,,,,,,,,,,,,,,,,,,,,,,,,,,,,,,,,,,,,,,,,,,,,,,,,,,,,,,,,,,,,,,,,,,,,,,,,,,,,,,,,,,,
,,,,,,,,,,5f61d8946a529c04bdffd02d,18,Mężczyzna,2022-06-04_09h37.20.345,task,2021.1.4,Win32,60.36095853,628b806c463b948bc644b84f,629afece692063e219f8d5b1,,,,,4,0,4,0,1,X V Q F H G B L J M P D K C T S W R N Z,,,,,,,,,,,,,,,,,,,,,,,,,,,,,,,,,,,,,,,,,,,,,,,,,,,,,,,,,,,,,,,,,,,,,,,,,,,,,,,,,,,,,,,,,,,,,
,,,,,,,,,,5f61d8946a529c04bdffd02d,18,Mężczyzna,2022-06-04_09h37.20.345,task,2021.1.4,Win32,60.36095853,628b806c463b948bc644b84f,629afece692063e219f8d5b1,,,,,5,0,5,0,1,X V Q F H G B L J M P D K C T S W R N Z,,,,,,,,,,,,,,,,,,,,,,,,,,,,,,,,,,,,,,,,,,,,,,,,,,,,,,,,,,,,,,,,,,,,,,,,,,,,,,,,,,,,,,,,,,,,,
,,,,,,,,,,5f61d8946a529c04bdffd02d,18,Mężczyzna,2022-06-04_09h37.20.345,task,2021.1.4,Win32,60.36095853,628b806c463b948bc644b84f,629afece692063e219f8d5b1,,,,,6,0,6,0,1,X V Q F H G B L J M P D K C T S W R N Z,,,,,,,,,,,,,,,,,,,,,,,,,,,,,,,,,,,,,,,,,,,,,,,,,,,,,,,,,,,,,,,,,,,,,,,,,,,,,,,,,,,,,,,,,,,,,
,,,,,,,,,,5f61d8946a529c04bdffd02d,18,Mężczyzna,2022-06-04_09h37.20.345,task,2021.1.4,Win32,60.36095853,628b806c463b948bc644b84f,629afece692063e219f8d5b1,,,,,,,,,,,dgkhgv,"[""d"",""g"",""k"",""h"",""g"",""v""]","[0.5023000001907008,0.7234000005722123,1.4944000005721705,3.0533000001906885,3.7656000003814256,4.1547000007629435,4.99010000038146]",0,DGKGHVR,15,0,15,0,1,,,,,,,,,,,,,,,,,,,,,,,,,,,,,,,,,,,,,,,,,,,,,,,,,,,,,,,,,,,,,,,,,,,,,,,,,,,,,,,,,,,
,,,,,,,,,,5f61d8946a529c04bdffd02d,18,Mężczyzna,2022-06-04_09h37.20.345,task,2021.1.4,Win32,60.36095853,628b806c463b948bc644b84f,629afece692063e219f8d5b1,,,,,,,,,,,,,,,,,,,,,space,7.8335,5,"[""5""]",1,[5.146799999237032],[5.146799999237032],0,0,0,5,1,Practice,6,(4/2) + 3,5,,,,,,,,,,,,,,,,,,,,,,,,,,,,,,,,,,,,,,,,,,,,,,,,,,,,,,,,,,,,,,,,,,,
,,,,,,,,,,5f61d8946a529c04bdffd02d,18,Mężczyzna,2022-06-04_09h37.20.345,task,2021.1.4,Win32,60.36095853,628b806c463b948bc644b84f,629afece692063e219f8d5b1,,,,,,,,,,,,,,,,,,,,,,,1,"[""1""]",1,[2.2143000001907467],"[5.146799999237032,2.2143000001907467]",0,1,1,1,1,Practice,2,(4x4) - 15,1,,,,,,,,,,,,,,,,,,,,,,,,,,,,,,,,,,,,,,,,,,,,,,,,,,,,,,,,,,,,,,,,,,,
,,,,,,,,,,5f61d8946a529c04bdffd02d,18,Mężczyzna,2022-06-04_09h37.20.345,task,2021.1.4,Win32,60.36095853,628b806c463b948bc644b84f,629afece692063e219f8d5b1,,,,,,,,,,,,,,,,,,,,,,,6,"[""6""]",1,[2.1160999994277745],"[5.146799999237032,2.2143000001907467,2.1160999994277745]",0,2,2,6,1,Practice,7,(25/5) + 1,6,,,,,,,,,,,,,,,,,,,,,,,,,,,,,,,,,,,,,,,,,,,,,,,,,,,,,,,,,,,,,,,,,,,
,,,,,,,,,,5f61d8946a529c04bdffd02d,18,Mężczyzna,2022-06-04_09h37.20.345,task,2021.1.4,Win32,60.36095853,628b806c463b948bc644b84f,629afece692063e219f8d5b1,,,,,,,,,,,,,,,,,,,,,,,8,"[""8""]",1,[1.7351000003814647],"[5.146799999237032,2.2143000001907467,2.1160999994277745,1.7351000003814647]",0,3,3,8,1,Practice,9,(3x3) - 1,8,,,,,,,,,,,,,,,,,,,,,,,,,,,,,,,,,,,,,,,,,,,,,,,,,,,,,,,,,,,,,,,,,,,
,,,,,,,,,,5f61d8946a529c04bdffd02d,18,Mężczyzna,2022-06-04_09h37.20.345,task,2021.1.4,Win32,60.36095853,628b806c463b948bc644b84f,629afece692063e219f8d5b1,,,,,,,,,,,,,,,,,,,,,,,3,"[""3""]",1,[1.7913000001907449],"[5.146799999237032,2.2143000001907467,2.1160999994277745,1.7351000003814647,1.7913000001907449]",0,4,4,3,1,Practice,4,(8/4) + 1,3,,,,,,,,,,,,,,,,,,,,,,,,,,,,,,,,,,,,,,,,,,,,,,,,,,,,,,,,,,,,,,,,,,,
,,,,,,,,,,5f61d8946a529c04bdffd02d,18,Mężczyzna,2022-06-04_09h37.20.345,task,2021.1.4,Win32,60.36095853,628b806c463b948bc644b84f,629afece692063e219f8d5b1,,,,,,,,,,,,,,,,,,,,,,,0,"[""0""]",1,[1.4361999998092756],"[5.146799999237032,2.2143000001907467,2.1160999994277745,1.7351000003814647,1.7913000001907449,1.4361999998092756]",0,5,5,0,1,Practice,1,(3x3) -  9,0,,,,,,,,,,,,,,,,,,,,,,,,,,,,,,,,,,,,,,,,,,,,,,,,,,,,,,,,,,,,,,,,,,,
,,,,,,,,,,5f61d8946a529c04bdffd02d,18,Mężczyzna,2022-06-04_09h37.20.345,task,2021.1.4,Win32,60.36095853,628b806c463b948bc644b84f,629afece692063e219f8d5b1,,,,,,,,,,,,,,,,,,,,,,,4,"[""4""]",1,[2.2819999999999823],"[5.146799999237032,2.2143000001907467,2.1160999994277745,1.7351000003814647,1.7913000001907449,1.4361999998092756,2.2819999999999823]",0,6,6,4,1,Practice,5,(2x6) - 8,4,,,,,,,,,,,,,,,,,,,,,,,,,,,,,,,,,,,,,,,,,,,,,,,,,,,,,,,,,,,,,,,,,,,
,,,,,,,,,,5f61d8946a529c04bdffd02d,18,Mężczyzna,2022-06-04_09h37.20.345,task,2021.1.4,Win32,60.36095853,628b806c463b948bc644b84f,629afece692063e219f8d5b1,,,,,,,,,,,,,,,,,,,,,,,2,"[""2""]",1,[2.375],"[5.146799999237032,2.2143000001907467,2.1160999994277745,1.7351000003814647,1.7913000001907449,1.4361999998092756,2.2819999999999823,2.375]",0,7,7,2,1,Practice,3,(4x4) - 14,2,,,,,,,,,,,,,,,,,,,,,,,,,,,,,,,,,,,,,,,,,,,,,,,,,,,,,,,,,,,,,,,,,,,
,,,,,,,,,,5f61d8946a529c04bdffd02d,18,Mężczyzna,2022-06-04_09h37.20.345,task,2021.1.4,Win32,60.36095853,628b806c463b948bc644b84f,629afece692063e219f8d5b1,,,,,,,,,,,,,,,,,,,,,,,9,"[""9""]",1,[2.038300000190702],"[5.146799999237032,2.2143000001907467,2.1160999994277745,1.7351000003814647,1.7913000001907449,1.4361999998092756,2.2819999999999823,2.375,2.038300000190702]",0,8,8,9,1,Practice,10,(20/2) - 1,9,,,,,,,,,,,,,,,,,,,,,,,,,,,,,,,,,,,,,,,,,,,,,,,,,,,,,,,,,,,,,,,,,,,
,,,,,,,,,,5f61d8946a529c04bdffd02d,18,Mężczyzna,2022-06-04_09h37.20.345,task,2021.1.4,Win32,60.36095853,628b806c463b948bc644b84f,629afece692063e219f8d5b1,,,,,,,,,,,,,,,,,,,,,,,7,"[""7""]",1,[2.410300000190773],"[5.146799999237032,2.2143000001907467,2.1160999994277745,1.7351000003814647,1.7913000001907449,1.4361999998092756,2.2819999999999823,2.375,2.038300000190702,2.410300000190773]",0,9,9,7,1,Practice,8,(5x5) - 18,7,,,,,,,,,,,,,,,,,,,,,,,,,,,,,,,,,,,,,,,,,,,,,,,,,,,,,,,,,,,,,,,,,,,
,,,,,,,,,,5f61d8946a529c04bdffd02d,18,Mężczyzna,2022-06-04_09h37.20.345,task,2021.1.4,Win32,60.36095853,628b806c463b948bc644b84f,629afece692063e219f8d5b1,,,,,,,,,,,,,,,,,,,,,,,,,,,,,,,,,,,,,1,23.5454,1.569693333,15.68617084,1.022616606,4.208044177,space,1.6035,0,0,0,0,1,,,,,,,,,,,,,,,,,,,,,,,,,,,,,,,,,,,,,,,,,,,,,,,,,,,,,,
,,,,,,,,,,5f61d8946a529c04bdffd02d,18,Mężczyzna,2022-06-04_09h37.20.345,task,2021.1.4,Win32,60.36095853,628b806c463b948bc644b84f,629afece692063e219f8d5b1,,,,,,,,,,,,,,,,,,,,,,,5,,,,,,,,,,Practice,6,(4/2) + 3,5,,,,,,,,,,,,,,space,12.2828,"[""5""]",1,[3.1551000003814806],1,0,0,0,5,1,,,,,,,,,,,,,,,,,,,,,,,,,,,,,,,,,,,,,,,,,,,
,,,,,,,,,,5f61d8946a529c04bdffd02d,18,Mężczyzna,2022-06-04_09h37.20.345,task,2021.1.4,Win32,60.36095853,628b806c463b948bc644b84f,629afece692063e219f8d5b1,,,,,,,,,,X V Q F H G B L J M P D K C T S W R N Z,,,,,,,,,,,,,,,,,,,,,,,,,,,,,,,,,,,,,,,,,,,,,,,,,,,0,0,0,0,1,,,,,,,,,,,,,,,,,,,,,,,,,,,,,,,,,,,,,,
,,,,,,,,,,5f61d8946a529c04bdffd02d,18,Mężczyzna,2022-06-04_09h37.20.345,task,2021.1.4,Win32,60.36095853,628b806c463b948bc644b84f,629afece692063e219f8d5b1,,,,,,,,,,,,,,,,,,,,,,,0,,,,,,,,,,Practice,1,(3x3) -  9,0,,,,,,,,,,,,,,,,"[""0""]",1,[2.280699999809258],1,0,0,0,0,1,,,,,,,,,,,,,,,,,,,,,,,,,,,,,,,,,,,,,,,,,,,
,,,,,,,,,,5f61d8946a529c04bdffd02d,18,Mężczyzna,2022-06-04_09h37.20.345,task,2021.1.4,Win32,60.36095853,628b806c463b948bc644b84f,629afece692063e219f8d5b1,,,,,,,,,,X V Q F H G B L J M P D K C T S W R N Z,,,,,,,,,,,,,,,,,,,,,,,,,,,,,,,,,,,,,,,,,,,,,,,,,,,1,0,1,0,1,,,,,,,,,,,,,,,,,,,,,,,,,,,,,,,,,,,,,,
,,,,,,,,,,5f61d8946a529c04bdffd02d,18,Mężczyzna,2022-06-04_09h37.20.345,task,2021.1.4,Win32,60.36095853,628b806c463b948bc644b84f,629afece692063e219f8d5b1,,,,,,,,,,,,,,,,,,,,,,,,,,,,,,,,,,,,,,,,,,,,,,,,,,,,,,,,,,,,,,,,,,zt,"[""z"",""t""]",0,"[1.6090000000000373,1.8743000001907149,2.545400000572272]",1,0,0,0,0,1,,,,,,,,,,,,,,,,,,,,,,,,,,,,
,,,,,,,,,,5f61d8946a529c04bdffd02d,18,Mężczyzna,2022-06-04_09h37.20.345,task,2021.1.4,Win32,60.36095853,628b806c463b948bc644b84f,629afece692063e219f8d5b1,,,,,,,,,,,,,,,,,,,,,,,8,,,,,,,,,,Practice,9,(3x3) - 1,8,,,,,,,,,,,,,,,,"[""8""]",1,[1.8520000000000891],1,0,0,0,8,1,,,,,,,,,,,,,,,,,,,,,,,,,,,,,,,,,,,,,,,,,,,
,,,,,,,,,,5f61d8946a529c04bdffd02d,18,Mężczyzna,2022-06-04_09h37.20.345,task,2021.1.4,Win32,60.36095853,628b806c463b948bc644b84f,629afece692063e219f8d5b1,,,,,,,,,,X V Q F H G B L J M P D K C T S W R N Z,,,,,,,,,,,,,,,,,,,,,,,,,,,,,,,,,,,,,,,,,,,,,,,,,,,0,0,0,0,1,,,,,,,,,,,,,,,,,,,,,,,,,,,,,,,,,,,,,,
,,,,,,,,,,5f61d8946a529c04bdffd02d,18,Mężczyzna,2022-06-04_09h37.20.345,task,2021.1.4,Win32,60.36095853,628b806c463b948bc644b84f,629afece692063e219f8d5b1,,,,,,,,,,,,,,,,,,,,,,,5,,,,,,,,,,Practice,6,(4/2) + 3,5,,,,,,,,,,,,,,,,"[""5""]",1,[1.9772000007628776],1,0,0,0,5,1,,,,,,,,,,,,,,,,,,,,,,,,,,,,,,,,,,,,,,,,,,,
,,,,,,,,,,5f61d8946a529c04bdffd02d,18,Mężczyzna,2022-06-04_09h37.20.345,task,2021.1.4,Win32,60.36095853,628b806c463b948bc644b84f,629afece692063e219f8d5b1,,,,,,,,,,X V Q F H G B L J M P D K C T S W R N Z,,,,,,,,,,,,,,,,,,,,,,,,,,,,,,,,,,,,,,,,,,,,,,,,,,,1,0,1,0,1,,,,,,,,,,,,,,,,,,,,,,,,,,,,,,,,,,,,,,
,,,,,,,,,,5f61d8946a529c04bdffd02d,18,Mężczyzna,2022-06-04_09h37.20.345,task,2021.1.4,Win32,60.36095853,628b806c463b948bc644b84f,629afece692063e219f8d5b1,,,,,,,,,,,,,,,,,,,,,,,,,,,,,,,,,,,,,,,,,,,,,,,,,,,,,,,,,,,,,,,,,,sh,"[""s"",""h""]",0,"[1.1172999992370478,1.253199999809226,1.6332999992370105]",1,1,0,1,0,1,,,,,,,,,,,,,,,,,,,,,,,,,,,,
,,,,,,,,,,5f61d8946a529c04bdffd02d,18,Mężczyzna,2022-06-04_09h37.20.345,task,2021.1.4,Win32,60.36095853,628b806c463b948bc644b84f,629afece692063e219f8d5b1,,,,,,,,,,,,,,,,,,,,,,,3,,,,,,,,,,Practice,4,(8/4) + 1,3,,,,,,,,,,,,,,,,"[""3""]",1,[1.8529999999999518],1,0,0,0,3,1,,,,,,,,,,,,,,,,,,,,,,,,,,,,,,,,,,,,,,,,,,,
,,,,,,,,,,5f61d8946a529c04bdffd02d,18,Mężczyzna,2022-06-04_09h37.20.345,task,2021.1.4,Win32,60.36095853,628b806c463b948bc644b84f,629afece692063e219f8d5b1,,,,,,,,,,X V Q F H G B L J M P D K C T S W R N Z,,,,,,,,,,,,,,,,,,,,,,,,,,,,,,,,,,,,,,,,,,,,,,,,,,,0,0,0,0,1,,,,,,,,,,,,,,,,,,,,,,,,,,,,,,,,,,,,,,
,,,,,,,,,,5f61d8946a529c04bdffd02d,18,Mężczyzna,2022-06-04_09h37.20.345,task,2021.1.4,Win32,60.36095853,628b806c463b948bc644b84f,629afece692063e219f8d5b1,,,,,,,,,,,,,,,,,,,,,,,8,,,,,,,,,,Practice,9,(3x3) - 1,8,,,,,,,,,,,,,,,,"[""8""]",1,[1.461999999999989],1,0,0,0,8,1,,,,,,,,,,,,,,,,,,,,,,,,,,,,,,,,,,,,,,,,,,,
,,,,,,,,,,5f61d8946a529c04bdffd02d,18,Mężczyzna,2022-06-04_09h37.20.345,task,2021.1.4,Win32,60.36095853,628b806c463b948bc644b84f,629afece692063e219f8d5b1,,,,,,,,,,X V Q F H G B L J M P D K C T S W R N Z,,,,,,,,,,,,,,,,,,,,,,,,,,,,,,,,,,,,,,,,,,,,,,,,,,,1,0,1,0,1,,,,,,,,,,,,,,,,,,,,,,,,,,,,,,,,,,,,,,
,,,,,,,,,,5f61d8946a529c04bdffd02d,18,Mężczyzna,2022-06-04_09h37.20.345,task,2021.1.4,Win32,60.36095853,628b806c463b948bc644b84f,629afece692063e219f8d5b1,,,,,,,,,,,,,,,,,,,,,,,,,,,,,,,,,,,,,,,,,,,,,,,,,,,,,,,,,,,,,,,,,,xj,"[""x"",""j""]",0,"[1.2101000003814306,1.3204000005721355,1.669999999999959]",1,2,0,2,0,1,,,,,,,,,,,,,,,,,,,,,,,,,,,,
,,,,,,,,,,5f61d8946a529c04bdffd02d,18,Mężczyzna,2022-06-04_09h37.20.345,task,2021.1.4,Win32,60.36095853,628b806c463b948bc644b84f,629afece692063e219f8d5b1,,,,,,,,,,,,,,,,,,,,,,,6,,,,,,,,,,Task,13,(3x4) - 6,6,,,,,,,,,,,,,,,,,,,1,,,,,,,,,,,,,,,,,,,,,space,12.04,"[""6""]",1,[3.5539999999999736],0,0,0,12,1,,,,,,,,,,,,,,,,,,
,,,,,,,,,,5f61d8946a529c04bdffd02d,18,Mężczyzna,2022-06-04_09h37.20.345,task,2021.1.4,Win32,60.36095853,628b806c463b948bc644b84f,629afece692063e219f8d5b1,,,,,,,,,,X V Q F H G B L J M P D K C T S W R N Z,,,,,,,,,,,,,,,,,,,,,,,,,,,,,,,,,,,,,,,,,,,,,,,,,,,,,,,,,,,,,,,,,,,,,,,,,,,,0,0,0,0,1,,,,,,,,,,,,,
,,,,,,,,,,5f61d8946a529c04bdffd02d,18,Mężczyzna,2022-06-04_09h37.20.345,task,2021.1.4,Win32,60.36095853,628b806c463b948bc644b84f,629afece692063e219f8d5b1,,,,,,,,,,,,,,,,,,,,,,,4,,,,,,,,,,Task,4,(1x5) - 1,4,,,,,,,,,,,,,,,,,,,1,,,,,,,,,,,,,,,,,,,,,,,"[""4""]",1,[1.9743000001907376],0,0,0,3,1,,,,,,,,,,,,,,,,,,
,,,,,,,,,,5f61d8946a529c04bdffd02d,18,Mężczyzna,2022-06-04_09h37.20.345,task,2021.1.4,Win32,60.36095853,628b806c463b948bc644b84f,629afece692063e219f8d5b1,,,,,,,,,,X V Q F H G B L J M P D K C T S W R N Z,,,,,,,,,,,,,,,,,,,,,,,,,,,,,,,,,,,,,,,,,,,,,,,,,,,,,,,,,,,,,,,,,,,,,,,,,,,,1,0,1,0,1,,,,,,,,,,,,,
,,,,,,,,,,5f61d8946a529c04bdffd02d,18,Mężczyzna,2022-06-04_09h37.20.345,task,2021.1.4,Win32,60.36095853,628b806c463b948bc644b84f,629afece692063e219f8d5b1,,,,,,,,,,,,,,,,,,,,,,,,,,,,,,,,,,,,,,,,,,,,,,,,,,,,,,,,,,,,,,,,,,,,,,,,,,,,,,,,,,,,,,,,,,,zr,"[""z"",""r""]",0,"[0.8794999999998936,0.9702000007629294,1.1943000001906512]",1,ZR,0,0,0,0,1,,
,,,,,,,,,,5f61d8946a529c04bdffd02d,18,Mężczyzna,2022-06-04_09h37.20.345,task,2021.1.4,Win32,60.36095853,628b806c463b948bc644b84f,629afece692063e219f8d5b1,,,,,,,,,,,,,,,,,,,,,,,4,,,,,,,,,,Task,11,(18/3) - 2,4,,,,,,,,,,,,,,,,,,,1,,,,,,,,,,,,,,,,,,,,,,,"[""4""]",1,[2.6901000003815625],0,0,0,10,1,,,,,,,,,,,,,,,,,,
,,,,,,,,,,5f61d8946a529c04bdffd02d,18,Mężczyzna,2022-06-04_09h37.20.345,task,2021.1.4,Win32,60.36095853,628b806c463b948bc644b84f,629afece692063e219f8d5b1,,,,,,,,,,X V Q F H G B L J M P D K C T S W R N Z,,,,,,,,,,,,,,,,,,,,,,,,,,,,,,,,,,,,,,,,,,,,,,,,,,,,,,,,,,,,,,,,,,,,,,,,,,,,0,0,0,0,1,,,,,,,,,,,,,
,,,,,,,,,,5f61d8946a529c04bdffd02d,18,Mężczyzna,2022-06-04_09h37.20.345,task,2021.1.4,Win32,60.36095853,628b806c463b948bc644b84f,629afece692063e219f8d5b1,,,,,,,,,,,,,,,,,,,,,,,0,,,,,,,,,,Task,25,(10/5) - 2,0,,,,,,,,,,,,,,,,,,,1,,,,,,,,,,,,,,,,,,,,,,,"[""0""]",1,[3.0686999998092688],0,0,0,24,1,,,,,,,,,,,,,,,,,,
,,,,,,,,,,5f61d8946a529c04bdffd02d,18,Mężczyzna,2022-06-04_09h37.20.345,task,2021.1.4,Win32,60.36095853,628b806c463b948bc644b84f,629afece692063e219f8d5b1,,,,,,,,,,X V Q F H G B L J M P D K C T S W R N Z,,,,,,,,,,,,,,,,,,,,,,,,,,,,,,,,,,,,,,,,,,,,,,,,,,,,,,,,,,,,,,,,,,,,,,,,,,,,1,0,1,0,1,,,,,,,,,,,,,
,,,,,,,,,,5f61d8946a529c04bdffd02d,18,Mężczyzna,2022-06-04_09h37.20.345,task,2021.1.4,Win32,60.36095853,628b806c463b948bc644b84f,629afece692063e219f8d5b1,,,,,,,,,,,,,,,,,,,,,,,,,,,,,,,,,Task,16,(3x8) - 15,9,,,,,,,,,,,,,,,,,,,0,,,,,,,,,,,,,,,,,,,,,,,,0,,0,0,0,15,1,,,,,,,,,,,,,,,,,,
,,,,,,,,,,5f61d8946a529c04bdffd02d,18,Mężczyzna,2022-06-04_09h37.20.345,task,2021.1.4,Win32,60.36095853,628b806c463b948bc644b84f,629afece692063e219f8d5b1,,,,,,,,,,,,,,,,,,,,,,,3,,,,,,,,,,Task,3,(2x3) - 3,3,,,,,,,,,,,,,,,,,,,1,,,,,,,,,,,,,,,,,,,,,,,"[""3""]",1,[2.3181999998092806],0,1,1,2,1,,,,,,,,,,,,,,,,,,
,,,,,,,,,,5f61d8946a529c04bdffd02d,18,Mężczyzna,2022-06-04_09h37.20.345,task,2021.1.4,Win32,60.36095853,628b806c463b948bc644b84f,629afece692063e219f8d5b1,,,,,,,,,,X V Q F H G B L J M P D K C T S W R N Z,,,,,,,,,,,,,,,,,,,,,,,,,,,,,,,,,,,,,,,,,,,,,,,,,,,,,,,,,,,,,,,,,,,,,,,,,,,,2,0,2,0,1,,,,,,,,,,,,,
,,,,,,,,,,5f61d8946a529c04bdffd02d,18,Mężczyzna,2022-06-04_09h37.20.345,task,2021.1.4,Win32,60.36095853,628b806c463b948bc644b84f,629afece692063e219f8d5b1,,,,,,,,,,,,,,,,,,,,,,,,,,,,,,,,,,,,,,,,,,,,,,,,,,,,,,,,,,,,,,,,,,,,,,,,,,,,,,,,,,,,,,,,,,,sbj,"[""s"",""b"",""j""]",0,"[1.300800000190634,1.409200000762894,1.4838000001907403,1.9079000005721127]",1,SBJ,1,0,1,0,1,,
,,,,,,,,,,5f61d8946a529c04bdffd02d,18,Mężczyzna,2022-06-04_09h37.20.345,task,2021.1.4,Win32,60.36095853,628b806c463b948bc644b84f,629afece692063e219f8d5b1,,,,,,,,,,,,,,,,,,,,,,,4,,,,,,,,,,Task,11,(18/3) - 2,4,,,,,,,,,,,,,,,,,,,1,,,,,,,,,,,,,,,,,,,,,,,"[""4""]",1,[2.5501000003814625],0,0,0,10,1,,,,,,,,,,,,,,,,,,
,,,,,,,,,,5f61d8946a529c04bdffd02d,18,Mężczyzna,2022-06-04_09h37.20.345,task,2021.1.4,Win32,60.36095853,628b806c463b948bc644b84f,629afece692063e219f8d5b1,,,,,,,,,,X V Q F H G B L J M P D K C T S W R N Z,,,,,,,,,,,,,,,,,,,,,,,,,,,,,,,,,,,,,,,,,,,,,,,,,,,,,,,,,,,,,,,,,,,,,,,,,,,,0,0,0,0,1,,,,,,,,,,,,,
,,,,,,,,,,5f61d8946a529c04bdffd02d,18,Mężczyzna,2022-06-04_09h37.20.345,task,2021.1.4,Win32,60.36095853,628b806c463b948bc644b84f,629afece692063e219f8d5b1,,,,,,,,,,,,,,,,,,,,,,,,,,,,,,,,,Task,38,(4x6) - 17,7,,,,,,,,,,,,,,,,,,,0,,,,,,,,,,,,,,,,,,,,,,,,0,,0,0,0,37,1,,,,,,,,,,,,,,,,,,
,,,,,,,,,,5f61d8946a529c04bdffd02d,18,Mężczyzna,2022-06-04_09h37.20.345,task,2021.1.4,Win32,60.36095853,628b806c463b948bc644b84f,629afece692063e219f8d5b1,,,,,,,,,,,,,,,,,,,,,,,8,,,,,,,,,,Task,32,(8/2) + 4,8,,,,,,,,,,,,,,,,,,,1,,,,,,,,,,,,,,,,,,,,,,,"[""8""]",1,[3.4323000001907076],0,1,1,31,1,,,,,,,,,,,,,,,,,,
,,,,,,,,,,5f61d8946a529c04bdffd02d,18,Mężczyzna,2022-06-04_09h37.20.345,task,2021.1.4,Win32,60.36095853,628b806c463b948bc644b84f,629afece692063e219f8d5b1,,,,,,,,,,X V Q F H G B L J M P D K C T S W R N Z,,,,,,,,,,,,,,,,,,,,,,,,,,,,,,,,,,,,,,,,,,,,,,,,,,,,,,,,,,,,,,,,,,,,,,,,,,,,1,0,1,0,1,,,,,,,,,,,,,
,,,,,,,,,,5f61d8946a529c04bdffd02d,18,Mężczyzna,2022-06-04_09h37.20.345,task,2021.1.4,Win32,60.36095853,628b806c463b948bc644b84f,629afece692063e219f8d5b1,,,,,,,,,,,,,,,,,,,,,,,9,,,,,,,,,,Task,16,(3x8) - 15,9,,,,,,,,,,,,,,,,,,,1,,,,,,,,,,,,,,,,,,,,,,,"[""9""]",1,[3.5323000001907303],0,0,0,15,1,,,,,,,,,,,,,,,,,,
,,,,,,,,,,5f61d8946a529c04bdffd02d,18,Mężczyzna,2022-06-04_09h37.20.345,task,2021.1.4,Win32,60.36095853,628b806c463b948bc644b84f,629afece692063e219f8d5b1,,,,,,,,,,X V Q F H G B L J M P D K C T S W R N Z,,,,,,,,,,,,,,,,,,,,,,,,,,,,,,,,,,,,,,,,,,,,,,,,,,,,,,,,,,,,,,,,,,,,,,,,,,,,2,0,2,0,1,,,,,,,,,,,,,
,,,,,,,,,,5f61d8946a529c04bdffd02d,18,Mężczyzna,2022-06-04_09h37.20.345,task,2021.1.4,Win32,60.36095853,628b806c463b948bc644b84f,629afece692063e219f8d5b1,,,,,,,,,,,,,,,,,,,,,,,1,,,,,,,,,,Task,18,(16/4) - 3,1,,,,,,,,,,,,,,,,,,,1,,,,,,,,,,,,,,,,,,,,,,,"[""1""]",1,[2.741999999999962],0,0,0,17,1,,,,,,,,,,,,,,,,,,
,,,,,,,,,,5f61d8946a529c04bdffd02d,18,Mężczyzna,2022-06-04_09h37.20.345,task,2021.1.4,Win32,60.36095853,628b806c463b948bc644b84f,629afece692063e219f8d5b1,,,,,,,,,,X V Q F H G B L J M P D K C T S W R N Z,,,,,,,,,,,,,,,,,,,,,,,,,,,,,,,,,,,,,,,,,,,,,,,,,,,,,,,,,,,,,,,,,,,,,,,,,,,,3,0,3,0,1,,,,,,,,,,,,,
,,,,,,,,,,5f61d8946a529c04bdffd02d,18,Mężczyzna,2022-06-04_09h37.20.345,task,2021.1.4,Win32,60.36095853,628b806c463b948bc644b84f,629afece692063e219f8d5b1,,,,,,,,,,,,,,,,,,,,,,,,,,,,,,,,,,,,,,,,,,,,,,,,,,,,,,,,,,,,,,,,,,,,,,,,,,,,,,,,,,,,,,,,,,,hjp,"[""h"",""j"",""p""]",0,"[0.8530000000000655,0.9270000000000209,1.0118999996185494,1.208899999618552]",0,GHHP,2,0,2,0,1,,
,,,,,,,,,,5f61d8946a529c04bdffd02d,18,Mężczyzna,2022-06-04_09h37.20.345,task,2021.1.4,Win32,60.36095853,628b806c463b948bc644b84f,629afece692063e219f8d5b1,,,,,,,,,,,,,,,,,,,,,,,0,,,,,,,,,,Task,25,(10/5) - 2,0,,,,,,,,,,,,,,,,,,,1,,,,,,,,,,,,,,,,,,,,,,,"[""0""]",1,[1.549200000762994],0,0,0,24,1,,,,,,,,,,,,,,,,,,
,,,,,,,,,,5f61d8946a529c04bdffd02d,18,Mężczyzna,2022-06-04_09h37.20.345,task,2021.1.4,Win32,60.36095853,628b806c463b948bc644b84f,629afece692063e219f8d5b1,,,,,,,,,,X V Q F H G B L J M P D K C T S W R N Z,,,,,,,,,,,,,,,,,,,,,,,,,,,,,,,,,,,,,,,,,,,,,,,,,,,,,,,,,,,,,,,,,,,,,,,,,,,,0,0,0,0,1,,,,,,,,,,,,,
,,,,,,,,,,5f61d8946a529c04bdffd02d,18,Mężczyzna,2022-06-04_09h37.20.345,task,2021.1.4,Win32,60.36095853,628b806c463b948bc644b84f,629afece692063e219f8d5b1,,,,,,,,,,,,,,,,,,,,,,,6,,,,,,,,,,Task,37,(3/3) + 5,6,,,,,,,,,,,,,,,,,,,1,,,,,,,,,,,,,,,,,,,,,,,"[""6""]",1,[2.5541000003814815],0,0,0,36,1,,,,,,,,,,,,,,,,,,
,,,,,,,,,,5f61d8946a529c04bdffd02d,18,Mężczyzna,2022-06-04_09h37.20.345,task,2021.1.4,Win32,60.36095853,628b806c463b948bc644b84f,629afece692063e219f8d5b1,,,,,,,,,,X V Q F H G B L J M P D K C T S W R N Z,,,,,,,,,,,,,,,,,,,,,,,,,,,,,,,,,,,,,,,,,,,,,,,,,,,,,,,,,,,,,,,,,,,,,,,,,,,,1,0,1,0,1,,,,,,,,,,,,,
,,,,,,,,,,5f61d8946a529c04bdffd02d,18,Mężczyzna,2022-06-04_09h37.20.345,task,2021.1.4,Win32,60.36095853,628b806c463b948bc644b84f,629afece692063e219f8d5b1,,,,,,,,,,,,,,,,,,,,,,,6,,,,,,,,,,Task,30,(6/3) + 4 ,6,,,,,,,,,,,,,,,,,,,1,,,,,,,,,,,,,,,,,,,,,,,"[""6""]",1,[2.231699999809166],0,0,0,29,1,,,,,,,,,,,,,,,,,,
,,,,,,,,,,5f61d8946a529c04bdffd02d,18,Mężczyzna,2022-06-04_09h37.20.345,task,2021.1.4,Win32,60.36095853,628b806c463b948bc644b84f,629afece692063e219f8d5b1,,,,,,,,,,X V Q F H G B L J M P D K C T S W R N Z,,,,,,,,,,,,,,,,,,,,,,,,,,,,,,,,,,,,,,,,,,,,,,,,,,,,,,,,,,,,,,,,,,,,,,,,,,,,2,0,2,0,1,,,,,,,,,,,,,
,,,,,,,,,,5f61d8946a529c04bdffd02d,18,Mężczyzna,2022-06-04_09h37.20.345,task,2021.1.4,Win32,60.36095853,628b806c463b948bc644b84f,629afece692063e219f8d5b1,,,,,,,,,,,,,,,,,,,,,,,0,,,,,,,,,,Task,8,(1x5) - 5,0,,,,,,,,,,,,,,,,,,,1,,,,,,,,,,,,,,,,,,,,,,,"[""0""]",1,[1.999900000572211],0,0,0,7,1,,,,,,,,,,,,,,,,,,
,,,,,,,,,,5f61d8946a529c04bdffd02d,18,Mężczyzna,2022-06-04_09h37.20.345,task,2021.1.4,Win32,60.36095853,628b806c463b948bc644b84f,629afece692063e219f8d5b1,,,,,,,,,,X V Q F H G B L J M P D K C T S W R N Z,,,,,,,,,,,,,,,,,,,,,,,,,,,,,,,,,,,,,,,,,,,,,,,,,,,,,,,,,,,,,,,,,,,,,,,,,,,,3,0,3,0,1,,,,,,,,,,,,,
,,,,,,,,,,5f61d8946a529c04bdffd02d,18,Mężczyzna,2022-06-04_09h37.20.345,task,2021.1.4,Win32,60.36095853,628b806c463b948bc644b84f,629afece692063e219f8d5b1,,,,,,,,,,,,,,,,,,,,,,,,,,,,,,,,,,,,,,,,,,,,,,,,,,,,,,,,,,,,,,,,,,,,,,,,,,,,,,,,,,,,,,,,,,,mzmk,"[""m"",""z"",""m"",""k""]",0,"[0.9617999992370869,1.1511999998092506,1.3911999998092597,1.48599999999999,1.9616999998092979]",1,MZMK,3,0,3,0,1,,
,,,,,,,,,,5f61d8946a529c04bdffd02d,18,Mężczyzna,2022-06-04_09h37.20.345,task,2021.1.4,Win32,60.36095853,628b806c463b948bc644b84f,629afece692063e219f8d5b1,,,,,,,,,,,,,,,,,,,,,,,3,,,,,,,,,,Task,20,(18/9) + 1,3,,,,,,,,,,,,,,,,,,,1,,,,,,,,,,,,,,,,,,,,,,,"[""3""]",1,[1.8821999998092451],0,0,0,19,1,,,,,,,,,,,,,,,,,,
,,,,,,,,,,5f61d8946a529c04bdffd02d,18,Mężczyzna,2022-06-04_09h37.20.345,task,2021.1.4,Win32,60.36095853,628b806c463b948bc644b84f,629afece692063e219f8d5b1,,,,,,,,,,X V Q F H G B L J M P D K C T S W R N Z,,,,,,,,,,,,,,,,,,,,,,,,,,,,,,,,,,,,,,,,,,,,,,,,,,,,,,,,,,,,,,,,,,,,,,,,,,,,0,0,0,0,1,,,,,,,,,,,,,
,,,,,,,,,,5f61d8946a529c04bdffd02d,18,Mężczyzna,2022-06-04_09h37.20.345,task,2021.1.4,Win32,60.36095853,628b806c463b948bc644b84f,629afece692063e219f8d5b1,,,,,,,,,,,,,,,,,,,,,,,0,,,,,,,,,,Task,8,(1x5) - 5,0,,,,,,,,,,,,,,,,,,,1,,,,,,,,,,,,,,,,,,,,,,,"[""0""]",1,[1.3767000007629804],0,0,0,7,1,,,,,,,,,,,,,,,,,,
,,,,,,,,,,5f61d8946a529c04bdffd02d,18,Mężczyzna,2022-06-04_09h37.20.345,task,2021.1.4,Win32,60.36095853,628b806c463b948bc644b84f,629afece692063e219f8d5b1,,,,,,,,,,X V Q F H G B L J M P D K C T S W R N Z,,,,,,,,,,,,,,,,,,,,,,,,,,,,,,,,,,,,,,,,,,,,,,,,,,,,,,,,,,,,,,,,,,,,,,,,,,,,1,0,1,0,1,,,,,,,,,,,,,
,,,,,,,,,,5f61d8946a529c04bdffd02d,18,Mężczyzna,2022-06-04_09h37.20.345,task,2021.1.4,Win32,60.36095853,628b806c463b948bc644b84f,629afece692063e219f8d5b1,,,,,,,,,,,,,,,,,,,,,,,5,,,,,,,,,,Task,12,(4x4) - 11,5,,,,,,,,,,,,,,,,,,,1,,,,,,,,,,,,,,,,,,,,,,,"[""5""]",1,[1.6253999996184803],0,0,0,11,1,,,,,,,,,,,,,,,,,,
,,,,,,,,,,5f61d8946a529c04bdffd02d,18,Mężczyzna,2022-06-04_09h37.20.345,task,2021.1.4,Win32,60.36095853,628b806c463b948bc644b84f,629afece692063e219f8d5b1,,,,,,,,,,X V Q F H G B L J M P D K C T S W R N Z,,,,,,,,,,,,,,,,,,,,,,,,,,,,,,,,,,,,,,,,,,,,,,,,,,,,,,,,,,,,,,,,,,,,,,,,,,,,2,0,2,0,1,,,,,,,,,,,,,
,,,,,,,,,,5f61d8946a529c04bdffd02d,18,Mężczyzna,2022-06-04_09h37.20.345,task,2021.1.4,Win32,60.36095853,628b806c463b948bc644b84f,629afece692063e219f8d5b1,,,,,,,,,,,,,,,,,,,,,,,1,,,,,,,,,,Task,18,(16/4) - 3,1,,,,,,,,,,,,,,,,,,,1,,,,,,,,,,,,,,,,,,,,,,,"[""1""]",1,[2.2336000003814434],0,0,0,17,1,,,,,,,,,,,,,,,,,,
,,,,,,,,,,5f61d8946a529c04bdffd02d,18,Mężczyzna,2022-06-04_09h37.20.345,task,2021.1.4,Win32,60.36095853,628b806c463b948bc644b84f,629afece692063e219f8d5b1,,,,,,,,,,X V Q F H G B L J M P D K C T S W R N Z,,,,,,,,,,,,,,,,,,,,,,,,,,,,,,,,,,,,,,,,,,,,,,,,,,,,,,,,,,,,,,,,,,,,,,,,,,,,3,0,3,0,1,,,,,,,,,,,,,
,,,,,,,,,,5f61d8946a529c04bdffd02d,18,Mężczyzna,2022-06-04_09h37.20.345,task,2021.1.4,Win32,60.36095853,628b806c463b948bc644b84f,629afece692063e219f8d5b1,,,,,,,,,,,,,,,,,,,,,,,3,,,,,,,,,,Task,35,(1x2) + 1,3,,,,,,,,,,,,,,,,,,,1,,,,,,,,,,,,,,,,,,,,,,,"[""3""]",1,[2.099400000572132],0,0,0,34,1,,,,,,,,,,,,,,,,,,
,,,,,,,,,,5f61d8946a529c04bdffd02d,18,Mężczyzna,2022-06-04_09h37.20.345,task,2021.1.4,Win32,60.36095853,628b806c463b948bc644b84f,629afece692063e219f8d5b1,,,,,,,,,,X V Q F H G B L J M P D K C T S W R N Z,,,,,,,,,,,,,,,,,,,,,,,,,,,,,,,,,,,,,,,,,,,,,,,,,,,,,,,,,,,,,,,,,,,,,,,,,,,,4,0,4,0,1,,,,,,,,,,,,,
,,,,,,,,,,5f61d8946a529c04bdffd02d,18,Mężczyzna,2022-06-04_09h37.20.345,task,2021.1.4,Win32,60.36095853,628b806c463b948bc644b84f,629afece692063e219f8d5b1,,,,,,,,,,,,,,,,,,,,,,,,,,,,,,,,,,,,,,,,,,,,,,,,,,,,,,,,,,,,,,,,,,,,,,,,,,,,,,,,,,,,,,,,,,,qpgmt,"[""q"",""p"",""g"",""m"",""t""]",0,"[1.0996000003814288,1.333600000381466,1.7996000003814743,2.293699999809178,2.444800000190753,2.891499999999951]",1,QPGMT,4,0,4,0,1,,
,,,,,,,,,,5f61d8946a529c04bdffd02d,18,Mężczyzna,2022-06-04_09h37.20.345,task,2021.1.4,Win32,60.36095853,628b806c463b948bc644b84f,629afece692063e219f8d5b1,,,,,,,,,,,,,,,,,,,,,,,6,,,,,,,,,,Task,30,(6/3) + 4 ,6,,,,,,,,,,,,,,,,,,,1,,,,,,,,,,,,,,,,,,,,,,,"[""6""]",1,[2.6096999998093224],0,0,0,29,1,,,,,,,,,,,,,,,,,,
,,,,,,,,,,5f61d8946a529c04bdffd02d,18,Mężczyzna,2022-06-04_09h37.20.345,task,2021.1.4,Win32,60.36095853,628b806c463b948bc644b84f,629afece692063e219f8d5b1,,,,,,,,,,X V Q F H G B L J M P D K C T S W R N Z,,,,,,,,,,,,,,,,,,,,,,,,,,,,,,,,,,,,,,,,,,,,,,,,,,,,,,,,,,,,,,,,,,,,,,,,,,,,0,0,0,0,1,,,,,,,,,,,,,
,,,,,,,,,,5f61d8946a529c04bdffd02d,18,Mężczyzna,2022-06-04_09h37.20.345,task,2021.1.4,Win32,60.36095853,628b806c463b948bc644b84f,629afece692063e219f8d5b1,,,,,,,,,,,,,,,,,,,,,,,9,,,,,,,,,,Task,24,(2x2) + 5,9,,,,,,,,,,,,,,,,,,,1,,,,,,,,,,,,,,,,,,,,,,,"[""9""]",1,[1.7545000000000073],0,0,0,23,1,,,,,,,,,,,,,,,,,,
,,,,,,,,,,5f61d8946a529c04bdffd02d,18,Mężczyzna,2022-06-04_09h37.20.345,task,2021.1.4,Win32,60.36095853,628b806c463b948bc644b84f,629afece692063e219f8d5b1,,,,,,,,,,X V Q F H G B L J M P D K C T S W R N Z,,,,,,,,,,,,,,,,,,,,,,,,,,,,,,,,,,,,,,,,,,,,,,,,,,,,,,,,,,,,,,,,,,,,,,,,,,,,1,0,1,0,1,,,,,,,,,,,,,
,,,,,,,,,,5f61d8946a529c04bdffd02d,18,Mężczyzna,2022-06-04_09h37.20.345,task,2021.1.4,Win32,60.36095853,628b806c463b948bc644b84f,629afece692063e219f8d5b1,,,,,,,,,,,,,,,,,,,,,,,9,,,,,,,,,,Task,16,(3x8) - 15,9,,,,,,,,,,,,,,,,,,,1,,,,,,,,,,,,,,,,,,,,,,,"[""9""]",1,[2.104000000000042],0,0,0,15,1,,,,,,,,,,,,,,,,,,
,,,,,,,,,,5f61d8946a529c04bdffd02d,18,Mężczyzna,2022-06-04_09h37.20.345,task,2021.1.4,Win32,60.36095853,628b806c463b948bc644b84f,629afece692063e219f8d5b1,,,,,,,,,,X V Q F H G B L J M P D K C T S W R N Z,,,,,,,,,,,,,,,,,,,,,,,,,,,,,,,,,,,,,,,,,,,,,,,,,,,,,,,,,,,,,,,,,,,,,,,,,,,,2,0,2,0,1,,,,,,,,,,,,,
,,,,,,,,,,5f61d8946a529c04bdffd02d,18,Mężczyzna,2022-06-04_09h37.20.345,task,2021.1.4,Win32,60.36095853,628b806c463b948bc644b84f,629afece692063e219f8d5b1,,,,,,,,,,,,,,,,,,,,,,,5,,,,,,,,,,Task,36,(8/4) + 3,5,,,,,,,,,,,,,,,,,,,1,,,,,,,,,,,,,,,,,,,,,,,"[""5""]",1,[1.5988999996185385],0,0,0,35,1,,,,,,,,,,,,,,,,,,
,,,,,,,,,,5f61d8946a529c04bdffd02d,18,Mężczyzna,2022-06-04_09h37.20.345,task,2021.1.4,Win32,60.36095853,628b806c463b948bc644b84f,629afece692063e219f8d5b1,,,,,,,,,,X V Q F H G B L J M P D K C T S W R N Z,,,,,,,,,,,,,,,,,,,,,,,,,,,,,,,,,,,,,,,,,,,,,,,,,,,,,,,,,,,,,,,,,,,,,,,,,,,,3,0,3,0,1,,,,,,,,,,,,,
,,,,,,,,,,5f61d8946a529c04bdffd02d,18,Mężczyzna,2022-06-04_09h37.20.345,task,2021.1.4,Win32,60.36095853,628b806c463b948bc644b84f,629afece692063e219f8d5b1,,,,,,,,,,,,,,,,,,,,,,,0,,,,,,,,,,Task,8,(1x5) - 5,0,,,,,,,,,,,,,,,,,,,1,,,,,,,,,,,,,,,,,,,,,,,"[""0""]",1,[1.5203999996185757],0,0,0,7,1,,,,,,,,,,,,,,,,,,
,,,,,,,,,,5f61d8946a529c04bdffd02d,18,Mężczyzna,2022-06-04_09h37.20.345,task,2021.1.4,Win32,60.36095853,628b806c463b948bc644b84f,629afece692063e219f8d5b1,,,,,,,,,,X V Q F H G B L J M P D K C T S W R N Z,,,,,,,,,,,,,,,,,,,,,,,,,,,,,,,,,,,,,,,,,,,,,,,,,,,,,,,,,,,,,,,,,,,,,,,,,,,,4,0,4,0,1,,,,,,,,,,,,,
,,,,,,,,,,5f61d8946a529c04bdffd02d,18,Mężczyzna,2022-06-04_09h37.20.345,task,2021.1.4,Win32,60.36095853,628b806c463b948bc644b84f,629afece692063e219f8d5b1,,,,,,,,,,,,,,,,,,,,,,,0,,,,,,,,,,Task,4,(1x5) - 1,4,,,,,,,,,,,,,,,,,,,0,,,,,,,,,,,,,,,,,,,,,,,"[""0""]",0,[2.7411999998091687],0,0,0,3,1,,,,,,,,,,,,,,,,,,
,,,,,,,,,,5f61d8946a529c04bdffd02d,18,Mężczyzna,2022-06-04_09h37.20.345,task,2021.1.4,Win32,60.36095853,628b806c463b948bc644b84f,629afece692063e219f8d5b1,,,,,,,,,,,,,,,,,,,,,,,3,,,,,,,,,,Task,27,(3/3) + 2,3,,,,,,,,,,,,,,,,,,,1,,,,,,,,,,,,,,,,,,,,,,,"[""3""]",1,[2.9494999999999436],0,1,1,26,1,,,,,,,,,,,,,,,,,,
,,,,,,,,,,5f61d8946a529c04bdffd02d,18,Mężczyzna,2022-06-04_09h37.20.345,task,2021.1.4,Win32,60.36095853,628b806c463b948bc644b84f,629afece692063e219f8d5b1,,,,,,,,,,X V Q F H G B L J M P D K C T S W R N Z,,,,,,,,,,,,,,,,,,,,,,,,,,,,,,,,,,,,,,,,,,,,,,,,,,,,,,,,,,,,,,,,,,,,,,,,,,,,5,0,5,0,1,,,,,,,,,,,,,
,,,,,,,,,,5f61d8946a529c04bdffd02d,18,Mężczyzna,2022-06-04_09h37.20.345,task,2021.1.4,Win32,60.36095853,628b806c463b948bc644b84f,629afece692063e219f8d5b1,,,,,,,,,,,,,,,,,,,,,,,,,,,,,,,,,,,,,,,,,,,,,,,,,,,,,,,,,,,,,,,,,,,,,,,,,,,,,,,,,,,,,,,,,,,bcrcbg,"[""b"",""c"",""r"",""c"",""b"",""g""]",0,"[1.309199999809266,1.7380999994278454,2.0850000000000364,2.4603999996185166,2.799299999237064,3.065699999809226,3.4703999996185075]",1,BCRCBG,5,0,5,0,1,,
,,,,,,,,,,5f61d8946a529c04bdffd02d,18,Mężczyzna,2022-06-04_09h37.20.345,task,2021.1.4,Win32,60.36095853,628b806c463b948bc644b84f,629afece692063e219f8d5b1,,,,,,,,,,,,,,,,,,,,,,,6,,,,,,,,,,Task,37,(3/3) + 5,6,,,,,,,,,,,,,,,,,,,1,,,,,,,,,,,,,,,,,,,,,,,"[""6""]",1,[2.3658000001906885],0,0,0,36,1,,,,,,,,,,,,,,,,,,
,,,,,,,,,,5f61d8946a529c04bdffd02d,18,Mężczyzna,2022-06-04_09h37.20.345,task,2021.1.4,Win32,60.36095853,628b806c463b948bc644b84f,629afece692063e219f8d5b1,,,,,,,,,,X V Q F H G B L J M P D K C T S W R N Z,,,,,,,,,,,,,,,,,,,,,,,,,,,,,,,,,,,,,,,,,,,,,,,,,,,,,,,,,,,,,,,,,,,,,,,,,,,,0,0,0,0,1,,,,,,,,,,,,,
,,,,,,,,,,5f61d8946a529c04bdffd02d,18,Mężczyzna,2022-06-04_09h37.20.345,task,2021.1.4,Win32,60.36095853,628b806c463b948bc644b84f,629afece692063e219f8d5b1,,,,,,,,,,,,,,,,,,,,,,,6,,,,,,,,,,Task,30,(6/3) + 4 ,6,,,,,,,,,,,,,,,,,,,1,,,,,,,,,,,,,,,,,,,,,,,"[""6""]",1,[2.69399999999996],0,0,0,29,1,,,,,,,,,,,,,,,,,,
,,,,,,,,,,5f61d8946a529c04bdffd02d,18,Mężczyzna,2022-06-04_09h37.20.345,task,2021.1.4,Win32,60.36095853,628b806c463b948bc644b84f,629afece692063e219f8d5b1,,,,,,,,,,X V Q F H G B L J M P D K C T S W R N Z,,,,,,,,,,,,,,,,,,,,,,,,,,,,,,,,,,,,,,,,,,,,,,,,,,,,,,,,,,,,,,,,,,,,,,,,,,,,1,0,1,0,1,,,,,,,,,,,,,
,,,,,,,,,,5f61d8946a529c04bdffd02d,18,Mężczyzna,2022-06-04_09h37.20.345,task,2021.1.4,Win32,60.36095853,628b806c463b948bc644b84f,629afece692063e219f8d5b1,,,,,,,,,,,,,,,,,,,,,,,0,,,,,,,,,,Task,17,(2x3) - 6,0,,,,,,,,,,,,,,,,,,,1,,,,,,,,,,,,,,,,,,,,,,,"[""0""]",1,[1.8317999992369778],0,0,0,16,1,,,,,,,,,,,,,,,,,,
,,,,,,,,,,5f61d8946a529c04bdffd02d,18,Mężczyzna,2022-06-04_09h37.20.345,task,2021.1.4,Win32,60.36095853,628b806c463b948bc644b84f,629afece692063e219f8d5b1,,,,,,,,,,X V Q F H G B L J M P D K C T S W R N Z,,,,,,,,,,,,,,,,,,,,,,,,,,,,,,,,,,,,,,,,,,,,,,,,,,,,,,,,,,,,,,,,,,,,,,,,,,,,2,0,2,0,1,,,,,,,,,,,,,
,,,,,,,,,,5f61d8946a529c04bdffd02d,18,Mężczyzna,2022-06-04_09h37.20.345,task,2021.1.4,Win32,60.36095853,628b806c463b948bc644b84f,629afece692063e219f8d5b1,,,,,,,,,,,,,,,,,,,,,,,4,,,,,,,,,,Task,11,(18/3) - 2,4,,,,,,,,,,,,,,,,,,,1,,,,,,,,,,,,,,,,,,,,,,,"[""4""]",1,[3.531299999237035],0,0,0,10,1,,,,,,,,,,,,,,,,,,
,,,,,,,,,,5f61d8946a529c04bdffd02d,18,Mężczyzna,2022-06-04_09h37.20.345,task,2021.1.4,Win32,60.36095853,628b806c463b948bc644b84f,629afece692063e219f8d5b1,,,,,,,,,,X V Q F H G B L J M P D K C T S W R N Z,,,,,,,,,,,,,,,,,,,,,,,,,,,,,,,,,,,,,,,,,,,,,,,,,,,,,,,,,,,,,,,,,,,,,,,,,,,,3,0,3,0,1,,,,,,,,,,,,,
,,,,,,,,,,5f61d8946a529c04bdffd02d,18,Mężczyzna,2022-06-04_09h37.20.345,task,2021.1.4,Win32,60.36095853,628b806c463b948bc644b84f,629afece692063e219f8d5b1,,,,,,,,,,,,,,,,,,,,,,,7,,,,,,,,,,Task,31,(4/2) + 5,7,,,,,,,,,,,,,,,,,,,1,,,,,,,,,,,,,,,,,,,,,,,"[""7""]",1,[3.7338000001907403],0,0,0,30,1,,,,,,,,,,,,,,,,,,
,,,,,,,,,,5f61d8946a529c04bdffd02d,18,Mężczyzna,2022-06-04_09h37.20.345,task,2021.1.4,Win32,60.36095853,628b806c463b948bc644b84f,629afece692063e219f8d5b1,,,,,,,,,,X V Q F H G B L J M P D K C T S W R N Z,,,,,,,,,,,,,,,,,,,,,,,,,,,,,,,,,,,,,,,,,,,,,,,,,,,,,,,,,,,,,,,,,,,,,,,,,,,,4,0,4,0,1,,,,,,,,,,,,,
,,,,,,,,,,5f61d8946a529c04bdffd02d,18,Mężczyzna,2022-06-04_09h37.20.345,task,2021.1.4,Win32,60.36095853,628b806c463b948bc644b84f,629afece692063e219f8d5b1,,,,,,,,,,,,,,,,,,,,,,,6,,,,,,,,,,Task,37,(3/3) + 5,6,,,,,,,,,,,,,,,,,,,1,,,,,,,,,,,,,,,,,,,,,,,"[""6""]",1,[2.305500000000052],0,0,0,36,1,,,,,,,,,,,,,,,,,,
,,,,,,,,,,5f61d8946a529c04bdffd02d,18,Mężczyzna,2022-06-04_09h37.20.345,task,2021.1.4,Win32,60.36095853,628b806c463b948bc644b84f,629afece692063e219f8d5b1,,,,,,,,,,X V Q F H G B L J M P D K C T S W R N Z,,,,,,,,,,,,,,,,,,,,,,,,,,,,,,,,,,,,,,,,,,,,,,,,,,,,,,,,,,,,,,,,,,,,,,,,,,,,5,0,5,0,1,,,,,,,,,,,,,
,,,,,,,,,,5f61d8946a529c04bdffd02d,18,Mężczyzna,2022-06-04_09h37.20.345,task,2021.1.4,Win32,60.36095853,628b806c463b948bc644b84f,629afece692063e219f8d5b1,,,,,,,,,,,,,,,,,,,,,,,5,,,,,,,,,,Task,22,(3x1) + 2,5,,,,,,,,,,,,,,,,,,,1,,,,,,,,,,,,,,,,,,,,,,,"[""5""]",1,[4.033300000190707],0,0,0,21,1,,,,,,,,,,,,,,,,,,
,,,,,,,,,,5f61d8946a529c04bdffd02d,18,Mężczyzna,2022-06-04_09h37.20.345,task,2021.1.4,Win32,60.36095853,628b806c463b948bc644b84f,629afece692063e219f8d5b1,,,,,,,,,,X V Q F H G B L J M P D K C T S W R N Z,,,,,,,,,,,,,,,,,,,,,,,,,,,,,,,,,,,,,,,,,,,,,,,,,,,,,,,,,,,,,,,,,,,,,,,,,,,,6,0,6,0,1,,,,,,,,,,,,,
