key_resp_15.keys,key_resp_15.rt,key_resp_13.keys,key_resp_13.corr,ranodm_loop.thisRepN,ranodm_loop.thisTrialN,ranodm_loop.thisN,ranodm_loop.thisIndex,ranodm_loop.ran,participant,Wiek*,Płeć,date,expName,psychopyVersion,OS,frameRate,study_id,session,key_resp_13.rt,key_resp_16.keys,key_resp_16.rt,key_resp_4.keys,key_resp_4.rt,next_letter.thisRepN,next_letter.thisTrialN,next_letter.thisN,next_letter.thisIndex,next_letter.ran,letter,simple_recall,key_resp_5.keys,key_resp_5.rt,simple_recall_corr,simple_recall_corrkeys,next_level.thisRepN,next_level.thisTrialN,next_level.thisN,next_level.thisIndex,next_level.ran,key_resp_2.keys,key_resp_2.rt,digit_answer,key_resp.keys,key_resp.corr,key_resp.rt,RT_list,next_equation.thisRepN,next_equation.thisTrialN,next_equation.thisN,next_equation.thisIndex,next_equation.ran,Task,Trial,Problem,Operation_answer,processing_score,sumRT,meanRT,sumdiff,sd,RT,key_resp_3.keys,key_resp_3.rt,repeat_practice.thisRepN,repeat_practice.thisTrialN,repeat_practice.thisN,repeat_practice.thisIndex,repeat_practice.ran,key_resp_6.keys,key_resp_6.rt,key_resp_11.keys,key_resp_11.corr,key_resp_11.rt,operation_correct,repeat_if_wrong_prac.thisRepN,repeat_if_wrong_prac.thisTrialN,repeat_if_wrong_prac.thisN,repeat_if_wrong_prac.thisIndex,repeat_if_wrong_prac.ran,span_size_prac.thisRepN,span_size_prac.thisTrialN,span_size_prac.thisN,span_size_prac.thisIndex,span_size_prac.ran,complex_recall_practice,key_resp_9.keys,key_resp_9.corr,key_resp_9.rt,complex_prac_corr,span_recall_prac.thisRepN,span_recall_prac.thisTrialN,span_recall_prac.thisN,span_recall_prac.thisIndex,span_recall_prac.ran,key_resp_10.keys,key_resp_10.rt,key_resp_7.keys,key_resp_7.corr,key_resp_7.rt,repeat_if_wrong.thisRepN,repeat_if_wrong.thisTrialN,repeat_if_wrong.thisN,repeat_if_wrong.thisIndex,repeat_if_wrong.ran,span_size.thisRepN,span_size.thisTrialN,span_size.thisN,span_size.thisIndex,span_size.ran,complex_recall,key_resp_8.keys,key_resp_8.corr,key_resp_8.rt,complex_recall_corr,complex_recall_corrkeys,span_recall.thisRepN,span_recall.thisTrialN,span_recall.thisN,span_recall.thisIndex,span_recall.ran,key_resp_12.keys,key_resp_12.rt
space,9.162,,0,0,0,0,0,1,5f6285720560ae1db06d599a,28,Mężczyzna,2022-05-28_09h30.03.426,task,2021.1.4,Win32,30.00120005,628b806c463b948bc644b84f,6291ce462717b102165d2698,,,,,,,,,,,,,,,,,,,,,,,,,,,,,,,,,,,,,,,,,,,,,,,,,,,,,,,,,,,,,,,,,,,,,,,,,,,,,,,,,,,,,,,,,,,,,,,,,,,,,,,,
,,,0,1,0,1,0,1,5f6285720560ae1db06d599a,28,Mężczyzna,2022-05-28_09h30.03.426,task,2021.1.4,Win32,30.00120005,628b806c463b948bc644b84f,6291ce462717b102165d2698,,,,,,,,,,,,,,,,,,,,,,,,,,,,,,,,,,,,,,,,,,,,,,,,,,,,,,,,,,,,,,,,,,,,,,,,,,,,,,,,,,,,,,,,,,,,,,,,,,,,,,,,
,,,0,2,0,2,0,1,5f6285720560ae1db06d599a,28,Mężczyzna,2022-05-28_09h30.03.426,task,2021.1.4,Win32,30.00120005,628b806c463b948bc644b84f,6291ce462717b102165d2698,,,,,,,,,,,,,,,,,,,,,,,,,,,,,,,,,,,,,,,,,,,,,,,,,,,,,,,,,,,,,,,,,,,,,,,,,,,,,,,,,,,,,,,,,,,,,,,,,,,,,,,,
,,"[""comma""]",0,3,0,3,0,1,5f6285720560ae1db06d599a,28,Mężczyzna,2022-05-28_09h30.03.426,task,2021.1.4,Win32,30.00120005,628b806c463b948bc644b84f,6291ce462717b102165d2698,[0.43120000004768144],,,,,,,,,,,,,,,,,,,,,,,,,,,,,,,,,,,,,,,,,,,,,,,,,,,,,,,,,,,,,,,,,,,,,,,,,,,,,,,,,,,,,,,,,,,,,,,,,,,,,,,
,,"[""period""]",0,4,0,4,0,1,5f6285720560ae1db06d599a,28,Mężczyzna,2022-05-28_09h30.03.426,task,2021.1.4,Win32,30.00120005,628b806c463b948bc644b84f,6291ce462717b102165d2698,[0.1800999999046411],,,,,,,,,,,,,,,,,,,,,,,,,,,,,,,,,,,,,,,,,,,,,,,,,,,,,,,,,,,,,,,,,,,,,,,,,,,,,,,,,,,,,,,,,,,,,,,,,,,,,,,
,,"[""comma""]",0,5,0,5,0,1,5f6285720560ae1db06d599a,28,Mężczyzna,2022-05-28_09h30.03.426,task,2021.1.4,Win32,30.00120005,628b806c463b948bc644b84f,6291ce462717b102165d2698,[0.04399999999999693],,,,,,,,,,,,,,,,,,,,,,,,,,,,,,,,,,,,,,,,,,,,,,,,,,,,,,,,,,,,,,,,,,,,,,,,,,,,,,,,,,,,,,,,,,,,,,,,,,,,,,,
,,"[""period""]",0,6,0,6,0,1,5f6285720560ae1db06d599a,28,Mężczyzna,2022-05-28_09h30.03.426,task,2021.1.4,Win32,30.00120005,628b806c463b948bc644b84f,6291ce462717b102165d2698,[0.47670000004768553],,,,,,,,,,,,,,,,,,,,,,,,,,,,,,,,,,,,,,,,,,,,,,,,,,,,,,,,,,,,,,,,,,,,,,,,,,,,,,,,,,,,,,,,,,,,,,,,,,,,,,,
,,"[""period"",""period""]",0,7,0,7,0,1,5f6285720560ae1db06d599a,28,Mężczyzna,2022-05-28_09h30.03.426,task,2021.1.4,Win32,30.00120005,628b806c463b948bc644b84f,6291ce462717b102165d2698,"[0.24929999995231356,1.9282000000476813]",,,,,,,,,,,,,,,,,,,,,,,,,,,,,,,,,,,,,,,,,,,,,,,,,,,,,,,,,,,,,,,,,,,,,,,,,,,,,,,,,,,,,,,,,,,,,,,,,,,,,,,
,,,0,8,0,8,0,1,5f6285720560ae1db06d599a,28,Mężczyzna,2022-05-28_09h30.03.426,task,2021.1.4,Win32,30.00120005,628b806c463b948bc644b84f,6291ce462717b102165d2698,,,,,,,,,,,,,,,,,,,,,,,,,,,,,,,,,,,,,,,,,,,,,,,,,,,,,,,,,,,,,,,,,,,,,,,,,,,,,,,,,,,,,,,,,,,,,,,,,,,,,,,,
,,"[""comma""]",0,9,0,9,0,1,5f6285720560ae1db06d599a,28,Mężczyzna,2022-05-28_09h30.03.426,task,2021.1.4,Win32,30.00120005,628b806c463b948bc644b84f,6291ce462717b102165d2698,[0.35740000009538164],,,,,,,,,,,,,,,,,,,,,,,,,,,,,,,,,,,,,,,,,,,,,,,,,,,,,,,,,,,,,,,,,,,,,,,,,,,,,,,,,,,,,,,,,,,,,,,,,,,,,,,
,,"[""period"",""comma""]",0,10,0,10,0,1,5f6285720560ae1db06d599a,28,Mężczyzna,2022-05-28_09h30.03.426,task,2021.1.4,Win32,30.00120005,628b806c463b948bc644b84f,6291ce462717b102165d2698,"[0.22839999985694703,1.7050000000000125]",,,,,,,,,,,,,,,,,,,,,,,,,,,,,,,,,,,,,,,,,,,,,,,,,,,,,,,,,,,,,,,,,,,,,,,,,,,,,,,,,,,,,,,,,,,,,,,,,,,,,,,
,,"[""comma""]",0,11,0,11,0,1,5f6285720560ae1db06d599a,28,Mężczyzna,2022-05-28_09h30.03.426,task,2021.1.4,Win32,30.00120005,628b806c463b948bc644b84f,6291ce462717b102165d2698,[1.8713999998569477],,,,,,,,,,,,,,,,,,,,,,,,,,,,,,,,,,,,,,,,,,,,,,,,,,,,,,,,,,,,,,,,,,,,,,,,,,,,,,,,,,,,,,,,,,,,,,,,,,,,,,,
,,"[""period""]",0,12,0,12,0,1,5f6285720560ae1db06d599a,28,Mężczyzna,2022-05-28_09h30.03.426,task,2021.1.4,Win32,30.00120005,628b806c463b948bc644b84f,6291ce462717b102165d2698,[1.620700000047691],,,,,,,,,,,,,,,,,,,,,,,,,,,,,,,,,,,,,,,,,,,,,,,,,,,,,,,,,,,,,,,,,,,,,,,,,,,,,,,,,,,,,,,,,,,,,,,,,,,,,,,
,,"[""comma""]",0,13,0,13,0,1,5f6285720560ae1db06d599a,28,Mężczyzna,2022-05-28_09h30.03.426,task,2021.1.4,Win32,30.00120005,628b806c463b948bc644b84f,6291ce462717b102165d2698,[1.1555999999046378],,,,,,,,,,,,,,,,,,,,,,,,,,,,,,,,,,,,,,,,,,,,,,,,,,,,,,,,,,,,,,,,,,,,,,,,,,,,,,,,,,,,,,,,,,,,,,,,,,,,,,,
,,"[""comma""]",0,14,0,14,0,1,5f6285720560ae1db06d599a,28,Mężczyzna,2022-05-28_09h30.03.426,task,2021.1.4,Win32,30.00120005,628b806c463b948bc644b84f,6291ce462717b102165d2698,[0.6912000000477008],,,,,,,,,,,,,,,,,,,,,,,,,,,,,,,,,,,,,,,,,,,,,,,,,,,,,,,,,,,,,,,,,,,,,,,,,,,,,,,,,,,,,,,,,,,,,,,,,,,,,,,
,,"[""comma"",""period""]",0,15,0,15,0,1,5f6285720560ae1db06d599a,28,Mężczyzna,2022-05-28_09h30.03.426,task,2021.1.4,Win32,30.00120005,628b806c463b948bc644b84f,6291ce462717b102165d2698,"[0.7437000000476814,1.7719000000953713]",,,,,,,,,,,,,,,,,,,,,,,,,,,,,,,,,,,,,,,,,,,,,,,,,,,,,,,,,,,,,,,,,,,,,,,,,,,,,,,,,,,,,,,,,,,,,,,,,,,,,,,
,,"[""period""]",0,16,0,16,0,1,5f6285720560ae1db06d599a,28,Mężczyzna,2022-05-28_09h30.03.426,task,2021.1.4,Win32,30.00120005,628b806c463b948bc644b84f,6291ce462717b102165d2698,[1.3550999999046383],,,,,,,,,,,,,,,,,,,,,,,,,,,,,,,,,,,,,,,,,,,,,,,,,,,,,,,,,,,,,,,,,,,,,,,,,,,,,,,,,,,,,,,,,,,,,,,,,,,,,,,
,,"[""comma"",""period"",""comma""]",0,17,0,17,0,1,5f6285720560ae1db06d599a,28,Mężczyzna,2022-05-28_09h30.03.426,task,2021.1.4,Win32,30.00120005,628b806c463b948bc644b84f,6291ce462717b102165d2698,"[0.4121000001430275,1.0564000000953513,1.6057000000476762]",,,,,,,,,,,,,,,,,,,,,,,,,,,,,,,,,,,,,,,,,,,,,,,,,,,,,,,,,,,,,,,,,,,,,,,,,,,,,,,,,,,,,,,,,,,,,,,,,,,,,,,
,,"[""period""]",0,18,0,18,0,1,5f6285720560ae1db06d599a,28,Mężczyzna,2022-05-28_09h30.03.426,task,2021.1.4,Win32,30.00120005,628b806c463b948bc644b84f,6291ce462717b102165d2698,[0.29300000000000637],,,,,,,,,,,,,,,,,,,,,,,,,,,,,,,,,,,,,,,,,,,,,,,,,,,,,,,,,,,,,,,,,,,,,,,,,,,,,,,,,,,,,,,,,,,,,,,,,,,,,,,
,,"[""comma"",""period""]",0,19,0,19,0,1,5f6285720560ae1db06d599a,28,Mężczyzna,2022-05-28_09h30.03.426,task,2021.1.4,Win32,30.00120005,628b806c463b948bc644b84f,6291ce462717b102165d2698,"[0.6162000000476837,1.805200000047705]",,,,,,,,,,,,,,,,,,,,,,,,,,,,,,,,,,,,,,,,,,,,,,,,,,,,,,,,,,,,,,,,,,,,,,,,,,,,,,,,,,,,,,,,,,,,,,,,,,,,,,,
,,"[""period""]",0,20,0,20,0,1,5f6285720560ae1db06d599a,28,Mężczyzna,2022-05-28_09h30.03.426,task,2021.1.4,Win32,30.00120005,628b806c463b948bc644b84f,6291ce462717b102165d2698,[1.512799999952307],,,,,,,,,,,,,,,,,,,,,,,,,,,,,,,,,,,,,,,,,,,,,,,,,,,,,,,,,,,,,,,,,,,,,,,,,,,,,,,,,,,,,,,,,,,,,,,,,,,,,,,
,,"[""comma""]",0,21,0,21,0,1,5f6285720560ae1db06d599a,28,Mężczyzna,2022-05-28_09h30.03.426,task,2021.1.4,Win32,30.00120005,628b806c463b948bc644b84f,6291ce462717b102165d2698,[0.7187000000476758],,,,,,,,,,,,,,,,,,,,,,,,,,,,,,,,,,,,,,,,,,,,,,,,,,,,,,,,,,,,,,,,,,,,,,,,,,,,,,,,,,,,,,,,,,,,,,,,,,,,,,,
,,"[""period""]",0,22,0,22,0,1,5f6285720560ae1db06d599a,28,Mężczyzna,2022-05-28_09h30.03.426,task,2021.1.4,Win32,30.00120005,628b806c463b948bc644b84f,6291ce462717b102165d2698,[0.35960000014307525],,,,,,,,,,,,,,,,,,,,,,,,,,,,,,,,,,,,,,,,,,,,,,,,,,,,,,,,,,,,,,,,,,,,,,,,,,,,,,,,,,,,,,,,,,,,,,,,,,,,,,,
,,"[""comma""]",0,23,0,23,0,1,5f6285720560ae1db06d599a,28,Mężczyzna,2022-05-28_09h30.03.426,task,2021.1.4,Win32,30.00120005,628b806c463b948bc644b84f,6291ce462717b102165d2698,[0.2889000000953672],,,,,,,,,,,,,,,,,,,,,,,,,,,,,,,,,,,,,,,,,,,,,,,,,,,,,,,,,,,,,,,,,,,,,,,,,,,,,,,,,,,,,,,,,,,,,,,,,,,,,,,
,,"[""comma"",""period""]",0,24,0,24,0,1,5f6285720560ae1db06d599a,28,Mężczyzna,2022-05-28_09h30.03.426,task,2021.1.4,Win32,30.00120005,628b806c463b948bc644b84f,6291ce462717b102165d2698,"[0.25709999990462507,1.1447000000476635]",,,,,,,,,,,,,,,,,,,,,,,,,,,,,,,,,,,,,,,,,,,,,,,,,,,,,,,,,,,,,,,,,,,,,,,,,,,,,,,,,,,,,,,,,,,,,,,,,,,,,,,
,,"[""comma""]",0,25,0,25,0,1,5f6285720560ae1db06d599a,28,Mężczyzna,2022-05-28_09h30.03.426,task,2021.1.4,Win32,30.00120005,628b806c463b948bc644b84f,6291ce462717b102165d2698,[0.6920999999046273],,,,,,,,,,,,,,,,,,,,,,,,,,,,,,,,,,,,,,,,,,,,,,,,,,,,,,,,,,,,,,,,,,,,,,,,,,,,,,,,,,,,,,,,,,,,,,,,,,,,,,,
,,"[""period""]",0,26,0,26,0,1,5f6285720560ae1db06d599a,28,Mężczyzna,2022-05-28_09h30.03.426,task,2021.1.4,Win32,30.00120005,628b806c463b948bc644b84f,6291ce462717b102165d2698,[0.39099999999999113],,,,,,,,,,,,,,,,,,,,,,,,,,,,,,,,,,,,,,,,,,,,,,,,,,,,,,,,,,,,,,,,,,,,,,,,,,,,,,,,,,,,,,,,,,,,,,,,,,,,,,,
,,"[""comma"",""period""]",0,27,0,27,0,1,5f6285720560ae1db06d599a,28,Mężczyzna,2022-05-28_09h30.03.426,task,2021.1.4,Win32,30.00120005,628b806c463b948bc644b84f,6291ce462717b102165d2698,"[0.31320000004768644,1.288899999856966]",,,,,,,,,,,,,,,,,,,,,,,,,,,,,,,,,,,,,,,,,,,,,,,,,,,,,,,,,,,,,,,,,,,,,,,,,,,,,,,,,,,,,,,,,,,,,,,,,,,,,,,
,,"[""comma""]",0,28,0,28,0,1,5f6285720560ae1db06d599a,28,Mężczyzna,2022-05-28_09h30.03.426,task,2021.1.4,Win32,30.00120005,628b806c463b948bc644b84f,6291ce462717b102165d2698,[0.47570000004768076],,,,,,,,,,,,,,,,,,,,,,,,,,,,,,,,,,,,,,,,,,,,,,,,,,,,,,,,,,,,,,,,,,,,,,,,,,,,,,,,,,,,,,,,,,,,,,,,,,,,,,,
,,"[""period"",""comma""]",0,29,0,29,0,1,5f6285720560ae1db06d599a,28,Mężczyzna,2022-05-28_09h30.03.426,task,2021.1.4,Win32,30.00120005,628b806c463b948bc644b84f,6291ce462717b102165d2698,"[0.40850000000000364,1.9729000000953647]",,,,,,,,,,,,,,,,,,,,,,,,,,,,,,,,,,,,,,,,,,,,,,,,,,,,,,,,,,,,,,,,,,,,,,,,,,,,,,,,,,,,,,,,,,,,,,,,,,,,,,,
,,"[""period""]",0,30,0,30,0,1,5f6285720560ae1db06d599a,28,Mężczyzna,2022-05-28_09h30.03.426,task,2021.1.4,Win32,30.00120005,628b806c463b948bc644b84f,6291ce462717b102165d2698,[1.4637000000476803],,,,,,,,,,,,,,,,,,,,,,,,,,,,,,,,,,,,,,,,,,,,,,,,,,,,,,,,,,,,,,,,,,,,,,,,,,,,,,,,,,,,,,,,,,,,,,,,,,,,,,,
,,"[""comma"",""period""]",0,31,0,31,0,1,5f6285720560ae1db06d599a,28,Mężczyzna,2022-05-28_09h30.03.426,task,2021.1.4,Win32,30.00120005,628b806c463b948bc644b84f,6291ce462717b102165d2698,"[0.40930000019073987,1.453400000095371]",,,,,,,,,,,,,,,,,,,,,,,,,,,,,,,,,,,,,,,,,,,,,,,,,,,,,,,,,,,,,,,,,,,,,,,,,,,,,,,,,,,,,,,,,,,,,,,,,,,,,,,
,,"[""comma""]",0,32,0,32,0,1,5f6285720560ae1db06d599a,28,Mężczyzna,2022-05-28_09h30.03.426,task,2021.1.4,Win32,30.00120005,628b806c463b948bc644b84f,6291ce462717b102165d2698,[0.9132000000476808],,,,,,,,,,,,,,,,,,,,,,,,,,,,,,,,,,,,,,,,,,,,,,,,,,,,,,,,,,,,,,,,,,,,,,,,,,,,,,,,,,,,,,,,,,,,,,,,,,,,,,,
,,"[""period"",""comma""]",0,33,0,33,0,1,5f6285720560ae1db06d599a,28,Mężczyzna,2022-05-28_09h30.03.426,task,2021.1.4,Win32,30.00120005,628b806c463b948bc644b84f,6291ce462717b102165d2698,"[0.20490000009539244,1.5126000001430668]",,,,,,,,,,,,,,,,,,,,,,,,,,,,,,,,,,,,,,,,,,,,,,,,,,,,,,,,,,,,,,,,,,,,,,,,,,,,,,,,,,,,,,,,,,,,,,,,,,,,,,,
,,"[""comma""]",0,34,0,34,0,1,5f6285720560ae1db06d599a,28,Mężczyzna,2022-05-28_09h30.03.426,task,2021.1.4,Win32,30.00120005,628b806c463b948bc644b84f,6291ce462717b102165d2698,[1.6225000000000023],,,,,,,,,,,,,,,,,,,,,,,,,,,,,,,,,,,,,,,,,,,,,,,,,,,,,,,,,,,,,,,,,,,,,,,,,,,,,,,,,,,,,,,,,,,,,,,,,,,,,,,
,,"[""period"",""comma"",""comma""]",0,35,0,35,0,1,5f6285720560ae1db06d599a,28,Mężczyzna,2022-05-28_09h30.03.426,task,2021.1.4,Win32,30.00120005,628b806c463b948bc644b84f,6291ce462717b102165d2698,"[0.5239000000953808,1.3599000000953652,1.9824000000953674]",,,,,,,,,,,,,,,,,,,,,,,,,,,,,,,,,,,,,,,,,,,,,,,,,,,,,,,,,,,,,,,,,,,,,,,,,,,,,,,,,,,,,,,,,,,,,,,,,,,,,,,
,,"[""period"",""period""]",0,36,0,36,0,1,5f6285720560ae1db06d599a,28,Mężczyzna,2022-05-28_09h30.03.426,task,2021.1.4,Win32,30.00120005,628b806c463b948bc644b84f,6291ce462717b102165d2698,"[0.4772999999523222,1.3772999999522995]",,,,,,,,,,,,,,,,,,,,,,,,,,,,,,,,,,,,,,,,,,,,,,,,,,,,,,,,,,,,,,,,,,,,,,,,,,,,,,,,,,,,,,,,,,,,,,,,,,,,,,,
,,,0,37,0,37,0,1,5f6285720560ae1db06d599a,28,Mężczyzna,2022-05-28_09h30.03.426,task,2021.1.4,Win32,30.00120005,628b806c463b948bc644b84f,6291ce462717b102165d2698,,,,,,,,,,,,,,,,,,,,,,,,,,,,,,,,,,,,,,,,,,,,,,,,,,,,,,,,,,,,,,,,,,,,,,,,,,,,,,,,,,,,,,,,,,,,,,,,,,,,,,,,
,,"[""period"",""comma""]",0,38,0,38,0,1,5f6285720560ae1db06d599a,28,Mężczyzna,2022-05-28_09h30.03.426,task,2021.1.4,Win32,30.00120005,628b806c463b948bc644b84f,6291ce462717b102165d2698,"[0.5282000000476899,1.540799999952327]",,,,,,,,,,,,,,,,,,,,,,,,,,,,,,,,,,,,,,,,,,,,,,,,,,,,,,,,,,,,,,,,,,,,,,,,,,,,,,,,,,,,,,,,,,,,,,,,,,,,,,,
,,,0,39,0,39,0,1,5f6285720560ae1db06d599a,28,Mężczyzna,2022-05-28_09h30.03.426,task,2021.1.4,Win32,30.00120005,628b806c463b948bc644b84f,6291ce462717b102165d2698,,,,,,,,,,,,,,,,,,,,,,,,,,,,,,,,,,,,,,,,,,,,,,,,,,,,,,,,,,,,,,,,,,,,,,,,,,,,,,,,,,,,,,,,,,,,,,,,,,,,,,,,
,,,0,40,0,40,0,1,5f6285720560ae1db06d599a,28,Mężczyzna,2022-05-28_09h30.03.426,task,2021.1.4,Win32,30.00120005,628b806c463b948bc644b84f,6291ce462717b102165d2698,,,,,,,,,,,,,,,,,,,,,,,,,,,,,,,,,,,,,,,,,,,,,,,,,,,,,,,,,,,,,,,,,,,,,,,,,,,,,,,,,,,,,,,,,,,,,,,,,,,,,,,,
,,,0,41,0,41,0,1,5f6285720560ae1db06d599a,28,Mężczyzna,2022-05-28_09h30.03.426,task,2021.1.4,Win32,30.00120005,628b806c463b948bc644b84f,6291ce462717b102165d2698,,,,,,,,,,,,,,,,,,,,,,,,,,,,,,,,,,,,,,,,,,,,,,,,,,,,,,,,,,,,,,,,,,,,,,,,,,,,,,,,,,,,,,,,,,,,,,,,,,,,,,,,
,,,0,42,0,42,0,1,5f6285720560ae1db06d599a,28,Mężczyzna,2022-05-28_09h30.03.426,task,2021.1.4,Win32,30.00120005,628b806c463b948bc644b84f,6291ce462717b102165d2698,,,,,,,,,,,,,,,,,,,,,,,,,,,,,,,,,,,,,,,,,,,,,,,,,,,,,,,,,,,,,,,,,,,,,,,,,,,,,,,,,,,,,,,,,,,,,,,,,,,,,,,,
,,,0,43,0,43,0,1,5f6285720560ae1db06d599a,28,Mężczyzna,2022-05-28_09h30.03.426,task,2021.1.4,Win32,30.00120005,628b806c463b948bc644b84f,6291ce462717b102165d2698,,,,,,,,,,,,,,,,,,,,,,,,,,,,,,,,,,,,,,,,,,,,,,,,,,,,,,,,,,,,,,,,,,,,,,,,,,,,,,,,,,,,,,,,,,,,,,,,,,,,,,,,
,,,0,44,0,44,0,1,5f6285720560ae1db06d599a,28,Mężczyzna,2022-05-28_09h30.03.426,task,2021.1.4,Win32,30.00120005,628b806c463b948bc644b84f,6291ce462717b102165d2698,,,,,,,,,,,,,,,,,,,,,,,,,,,,,,,,,,,,,,,,,,,,,,,,,,,,,,,,,,,,,,,,,,,,,,,,,,,,,,,,,,,,,,,,,,,,,,,,,,,,,,,,
,,,0,45,0,45,0,1,5f6285720560ae1db06d599a,28,Mężczyzna,2022-05-28_09h30.03.426,task,2021.1.4,Win32,30.00120005,628b806c463b948bc644b84f,6291ce462717b102165d2698,,,,,,,,,,,,,,,,,,,,,,,,,,,,,,,,,,,,,,,,,,,,,,,,,,,,,,,,,,,,,,,,,,,,,,,,,,,,,,,,,,,,,,,,,,,,,,,,,,,,,,,,
,,,0,46,0,46,0,1,5f6285720560ae1db06d599a,28,Mężczyzna,2022-05-28_09h30.03.426,task,2021.1.4,Win32,30.00120005,628b806c463b948bc644b84f,6291ce462717b102165d2698,,,,,,,,,,,,,,,,,,,,,,,,,,,,,,,,,,,,,,,,,,,,,,,,,,,,,,,,,,,,,,,,,,,,,,,,,,,,,,,,,,,,,,,,,,,,,,,,,,,,,,,,
,,,0,47,0,47,0,1,5f6285720560ae1db06d599a,28,Mężczyzna,2022-05-28_09h30.03.426,task,2021.1.4,Win32,30.00120005,628b806c463b948bc644b84f,6291ce462717b102165d2698,,,,,,,,,,,,,,,,,,,,,,,,,,,,,,,,,,,,,,,,,,,,,,,,,,,,,,,,,,,,,,,,,,,,,,,,,,,,,,,,,,,,,,,,,,,,,,,,,,,,,,,,
,,"[""period""]",0,48,0,48,0,1,5f6285720560ae1db06d599a,28,Mężczyzna,2022-05-28_09h30.03.426,task,2021.1.4,Win32,30.00120005,628b806c463b948bc644b84f,6291ce462717b102165d2698,[0.0284000000953597],,,,,,,,,,,,,,,,,,,,,,,,,,,,,,,,,,,,,,,,,,,,,,,,,,,,,,,,,,,,,,,,,,,,,,,,,,,,,,,,,,,,,,,,,,,,,,,,,,,,,,,
,,"[""comma""]",0,49,0,49,0,1,5f6285720560ae1db06d599a,28,Mężczyzna,2022-05-28_09h30.03.426,task,2021.1.4,Win32,30.00120005,628b806c463b948bc644b84f,6291ce462717b102165d2698,[0.3389000000953786],,,,,,,,,,,,,,,,,,,,,,,,,,,,,,,,,,,,,,,,,,,,,,,,,,,,,,,,,,,,,,,,,,,,,,,,,,,,,,,,,,,,,,,,,,,,,,,,,,,,,,,
,,"[""period""]",0,50,0,50,0,1,5f6285720560ae1db06d599a,28,Mężczyzna,2022-05-28_09h30.03.426,task,2021.1.4,Win32,30.00120005,628b806c463b948bc644b84f,6291ce462717b102165d2698,[0.25730000019072463],,,,,,,,,,,,,,,,,,,,,,,,,,,,,,,,,,,,,,,,,,,,,,,,,,,,,,,,,,,,,,,,,,,,,,,,,,,,,,,,,,,,,,,,,,,,,,,,,,,,,,,
,,"[""period""]",0,51,0,51,0,1,5f6285720560ae1db06d599a,28,Mężczyzna,2022-05-28_09h30.03.426,task,2021.1.4,Win32,30.00120005,628b806c463b948bc644b84f,6291ce462717b102165d2698,[0.3747000000477101],,,,,,,,,,,,,,,,,,,,,,,,,,,,,,,,,,,,,,,,,,,,,,,,,,,,,,,,,,,,,,,,,,,,,,,,,,,,,,,,,,,,,,,,,,,,,,,,,,,,,,,
,,"[""comma""]",0,52,0,52,0,1,5f6285720560ae1db06d599a,28,Mężczyzna,2022-05-28_09h30.03.426,task,2021.1.4,Win32,30.00120005,628b806c463b948bc644b84f,6291ce462717b102165d2698,[0.37410000014307343],,,,,,,,,,,,,,,,,,,,,,,,,,,,,,,,,,,,,,,,,,,,,,,,,,,,,,,,,,,,,,,,,,,,,,,,,,,,,,,,,,,,,,,,,,,,,,,,,,,,,,,
,,"[""period""]",0,53,0,53,0,1,5f6285720560ae1db06d599a,28,Mężczyzna,2022-05-28_09h30.03.426,task,2021.1.4,Win32,30.00120005,628b806c463b948bc644b84f,6291ce462717b102165d2698,[0.23900000000000432],,,,,,,,,,,,,,,,,,,,,,,,,,,,,,,,,,,,,,,,,,,,,,,,,,,,,,,,,,,,,,,,,,,,,,,,,,,,,,,,,,,,,,,,,,,,,,,,,,,,,,,
,,"[""period""]",0,54,0,54,0,1,5f6285720560ae1db06d599a,28,Mężczyzna,2022-05-28_09h30.03.426,task,2021.1.4,Win32,30.00120005,628b806c463b948bc644b84f,6291ce462717b102165d2698,[0.46090000009536425],,,,,,,,,,,,,,,,,,,,,,,,,,,,,,,,,,,,,,,,,,,,,,,,,,,,,,,,,,,,,,,,,,,,,,,,,,,,,,,,,,,,,,,,,,,,,,,,,,,,,,,
,,"[""comma""]",0,55,0,55,0,1,5f6285720560ae1db06d599a,28,Mężczyzna,2022-05-28_09h30.03.426,task,2021.1.4,Win32,30.00120005,628b806c463b948bc644b84f,6291ce462717b102165d2698,[0.29489999985696613],,,,,,,,,,,,,,,,,,,,,,,,,,,,,,,,,,,,,,,,,,,,,,,,,,,,,,,,,,,,,,,,,,,,,,,,,,,,,,,,,,,,,,,,,,,,,,,,,,,,,,,
,,"[""period""]",0,56,0,56,0,1,5f6285720560ae1db06d599a,28,Mężczyzna,2022-05-28_09h30.03.426,task,2021.1.4,Win32,30.00120005,628b806c463b948bc644b84f,6291ce462717b102165d2698,[0.2565999999046369],,,,,,,,,,,,,,,,,,,,,,,,,,,,,,,,,,,,,,,,,,,,,,,,,,,,,,,,,,,,,,,,,,,,,,,,,,,,,,,,,,,,,,,,,,,,,,,,,,,,,,,
,,"[""comma""]",0,57,0,57,0,1,5f6285720560ae1db06d599a,28,Mężczyzna,2022-05-28_09h30.03.426,task,2021.1.4,Win32,30.00120005,628b806c463b948bc644b84f,6291ce462717b102165d2698,[0.27429999995231924],,,,,,,,,,,,,,,,,,,,,,,,,,,,,,,,,,,,,,,,,,,,,,,,,,,,,,,,,,,,,,,,,,,,,,,,,,,,,,,,,,,,,,,,,,,,,,,,,,,,,,,
,,"[""period""]",0,58,0,58,0,1,5f6285720560ae1db06d599a,28,Mężczyzna,2022-05-28_09h30.03.426,task,2021.1.4,Win32,30.00120005,628b806c463b948bc644b84f,6291ce462717b102165d2698,[0.4638000001907301],,,,,,,,,,,,,,,,,,,,,,,,,,,,,,,,,,,,,,,,,,,,,,,,,,,,,,,,,,,,,,,,,,,,,,,,,,,,,,,,,,,,,,,,,,,,,,,,,,,,,,,
,,"[""period""]",0,59,0,59,0,1,5f6285720560ae1db06d599a,28,Mężczyzna,2022-05-28_09h30.03.426,task,2021.1.4,Win32,30.00120005,628b806c463b948bc644b84f,6291ce462717b102165d2698,[0.3907000000476728],,,,,,,,,,,,,,,,,,,,,,,,,,,,,,,,,,,,,,,,,,,,,,,,,,,,,,,,,,,,,,,,,,,,,,,,,,,,,,,,,,,,,,,,,,,,,,,,,,,,,,,
,,"[""period""]",0,60,0,60,0,1,5f6285720560ae1db06d599a,28,Mężczyzna,2022-05-28_09h30.03.426,task,2021.1.4,Win32,30.00120005,628b806c463b948bc644b84f,6291ce462717b102165d2698,[0.34199999999998454],,,,,,,,,,,,,,,,,,,,,,,,,,,,,,,,,,,,,,,,,,,,,,,,,,,,,,,,,,,,,,,,,,,,,,,,,,,,,,,,,,,,,,,,,,,,,,,,,,,,,,,
,,"[""comma""]",0,61,0,61,0,1,5f6285720560ae1db06d599a,28,Mężczyzna,2022-05-28_09h30.03.426,task,2021.1.4,Win32,30.00120005,628b806c463b948bc644b84f,6291ce462717b102165d2698,[0.3072000000476862],,,,,,,,,,,,,,,,,,,,,,,,,,,,,,,,,,,,,,,,,,,,,,,,,,,,,,,,,,,,,,,,,,,,,,,,,,,,,,,,,,,,,,,,,,,,,,,,,,,,,,,
,,"[""comma""]",0,62,0,62,0,1,5f6285720560ae1db06d599a,28,Mężczyzna,2022-05-28_09h30.03.426,task,2021.1.4,Win32,30.00120005,628b806c463b948bc644b84f,6291ce462717b102165d2698,[0.4249000000953629],,,,,,,,,,,,,,,,,,,,,,,,,,,,,,,,,,,,,,,,,,,,,,,,,,,,,,,,,,,,,,,,,,,,,,,,,,,,,,,,,,,,,,,,,,,,,,,,,,,,,,,
,,"[""period""]",0,63,0,63,0,1,5f6285720560ae1db06d599a,28,Mężczyzna,2022-05-28_09h30.03.426,task,2021.1.4,Win32,30.00120005,628b806c463b948bc644b84f,6291ce462717b102165d2698,[0.49770000004770054],,,,,,,,,,,,,,,,,,,,,,,,,,,,,,,,,,,,,,,,,,,,,,,,,,,,,,,,,,,,,,,,,,,,,,,,,,,,,,,,,,,,,,,,,,,,,,,,,,,,,,,
,,"[""comma""]",0,64,0,64,0,1,5f6285720560ae1db06d599a,28,Mężczyzna,2022-05-28_09h30.03.426,task,2021.1.4,Win32,30.00120005,628b806c463b948bc644b84f,6291ce462717b102165d2698,[0.36170000004770486],,,,,,,,,,,,,,,,,,,,,,,,,,,,,,,,,,,,,,,,,,,,,,,,,,,,,,,,,,,,,,,,,,,,,,,,,,,,,,,,,,,,,,,,,,,,,,,,,,,,,,,
,,"[""period"",""comma""]",0,65,0,65,0,1,5f6285720560ae1db06d599a,28,Mężczyzna,2022-05-28_09h30.03.426,task,2021.1.4,Win32,30.00120005,628b806c463b948bc644b84f,6291ce462717b102165d2698,"[0.007799999952311509,1.2099999999999795]",,,,,,,,,,,,,,,,,,,,,,,,,,,,,,,,,,,,,,,,,,,,,,,,,,,,,,,,,,,,,,,,,,,,,,,,,,,,,,,,,,,,,,,,,,,,,,,,,,,,,,,
,,"[""period""]",0,66,0,66,0,1,5f6285720560ae1db06d599a,28,Mężczyzna,2022-05-28_09h30.03.426,task,2021.1.4,Win32,30.00120005,628b806c463b948bc644b84f,6291ce462717b102165d2698,[0.6072000000476976],,,,,,,,,,,,,,,,,,,,,,,,,,,,,,,,,,,,,,,,,,,,,,,,,,,,,,,,,,,,,,,,,,,,,,,,,,,,,,,,,,,,,,,,,,,,,,,,,,,,,,,
,,"[""comma""]",0,67,0,67,0,1,5f6285720560ae1db06d599a,28,Mężczyzna,2022-05-28_09h30.03.426,task,2021.1.4,Win32,30.00120005,628b806c463b948bc644b84f,6291ce462717b102165d2698,[0.3329999999999984],,,,,,,,,,,,,,,,,,,,,,,,,,,,,,,,,,,,,,,,,,,,,,,,,,,,,,,,,,,,,,,,,,,,,,,,,,,,,,,,,,,,,,,,,,,,,,,,,,,,,,,
,,"[""comma""]",0,68,0,68,0,1,5f6285720560ae1db06d599a,28,Mężczyzna,2022-05-28_09h30.03.426,task,2021.1.4,Win32,30.00120005,628b806c463b948bc644b84f,6291ce462717b102165d2698,[0.22359999990464985],,,,,,,,,,,,,,,,,,,,,,,,,,,,,,,,,,,,,,,,,,,,,,,,,,,,,,,,,,,,,,,,,,,,,,,,,,,,,,,,,,,,,,,,,,,,,,,,,,,,,,,
,,"[""period""]",0,69,0,69,0,1,5f6285720560ae1db06d599a,28,Mężczyzna,2022-05-28_09h30.03.426,task,2021.1.4,Win32,30.00120005,628b806c463b948bc644b84f,6291ce462717b102165d2698,[0.32940000009537584],,,,,,,,,,,,,,,,,,,,,,,,,,,,,,,,,,,,,,,,,,,,,,,,,,,,,,,,,,,,,,,,,,,,,,,,,,,,,,,,,,,,,,,,,,,,,,,,,,,,,,,
,,"[""comma""]",0,70,0,70,0,1,5f6285720560ae1db06d599a,28,Mężczyzna,2022-05-28_09h30.03.426,task,2021.1.4,Win32,30.00120005,628b806c463b948bc644b84f,6291ce462717b102165d2698,[0.292600000143068],,,,,,,,,,,,,,,,,,,,,,,,,,,,,,,,,,,,,,,,,,,,,,,,,,,,,,,,,,,,,,,,,,,,,,,,,,,,,,,,,,,,,,,,,,,,,,,,,,,,,,,
,,"[""period""]",0,71,0,71,0,1,5f6285720560ae1db06d599a,28,Mężczyzna,2022-05-28_09h30.03.426,task,2021.1.4,Win32,30.00120005,628b806c463b948bc644b84f,6291ce462717b102165d2698,[0.6744999999999948],,,,,,,,,,,,,,,,,,,,,,,,,,,,,,,,,,,,,,,,,,,,,,,,,,,,,,,,,,,,,,,,,,,,,,,,,,,,,,,,,,,,,,,,,,,,,,,,,,,,,,,
,,"[""period""]",0,72,0,72,0,1,5f6285720560ae1db06d599a,28,Mężczyzna,2022-05-28_09h30.03.426,task,2021.1.4,Win32,30.00120005,628b806c463b948bc644b84f,6291ce462717b102165d2698,[1.7900999999046405],,,,,,,,,,,,,,,,,,,,,,,,,,,,,,,,,,,,,,,,,,,,,,,,,,,,,,,,,,,,,,,,,,,,,,,,,,,,,,,,,,,,,,,,,,,,,,,,,,,,,,,
,,,0,73,0,73,0,1,5f6285720560ae1db06d599a,28,Mężczyzna,2022-05-28_09h30.03.426,task,2021.1.4,Win32,30.00120005,628b806c463b948bc644b84f,6291ce462717b102165d2698,,,,,,,,,,,,,,,,,,,,,,,,,,,,,,,,,,,,,,,,,,,,,,,,,,,,,,,,,,,,,,,,,,,,,,,,,,,,,,,,,,,,,,,,,,,,,,,,,,,,,,,,
,,"[""comma""]",0,74,0,74,0,1,5f6285720560ae1db06d599a,28,Mężczyzna,2022-05-28_09h30.03.426,task,2021.1.4,Win32,30.00120005,628b806c463b948bc644b84f,6291ce462717b102165d2698,[0.1733999998569402],,,,,,,,,,,,,,,,,,,,,,,,,,,,,,,,,,,,,,,,,,,,,,,,,,,,,,,,,,,,,,,,,,,,,,,,,,,,,,,,,,,,,,,,,,,,,,,,,,,,,,,
,,"[""period""]",0,75,0,75,0,1,5f6285720560ae1db06d599a,28,Mężczyzna,2022-05-28_09h30.03.426,task,2021.1.4,Win32,30.00120005,628b806c463b948bc644b84f,6291ce462717b102165d2698,[0.8389999999999986],,,,,,,,,,,,,,,,,,,,,,,,,,,,,,,,,,,,,,,,,,,,,,,,,,,,,,,,,,,,,,,,,,,,,,,,,,,,,,,,,,,,,,,,,,,,,,,,,,,,,,,
,,"[""comma""]",0,76,0,76,0,1,5f6285720560ae1db06d599a,28,Mężczyzna,2022-05-28_09h30.03.426,task,2021.1.4,Win32,30.00120005,628b806c463b948bc644b84f,6291ce462717b102165d2698,[1.4792999999523317],,,,,,,,,,,,,,,,,,,,,,,,,,,,,,,,,,,,,,,,,,,,,,,,,,,,,,,,,,,,,,,,,,,,,,,,,,,,,,,,,,,,,,,,,,,,,,,,,,,,,,,
,,"[""period""]",0,77,0,77,0,1,5f6285720560ae1db06d599a,28,Mężczyzna,2022-05-28_09h30.03.426,task,2021.1.4,Win32,30.00120005,628b806c463b948bc644b84f,6291ce462717b102165d2698,[1.761599999904604],,,,,,,,,,,,,,,,,,,,,,,,,,,,,,,,,,,,,,,,,,,,,,,,,,,,,,,,,,,,,,,,,,,,,,,,,,,,,,,,,,,,,,,,,,,,,,,,,,,,,,,
,,,0,78,0,78,0,1,5f6285720560ae1db06d599a,28,Mężczyzna,2022-05-28_09h30.03.426,task,2021.1.4,Win32,30.00120005,628b806c463b948bc644b84f,6291ce462717b102165d2698,,,,,,,,,,,,,,,,,,,,,,,,,,,,,,,,,,,,,,,,,,,,,,,,,,,,,,,,,,,,,,,,,,,,,,,,,,,,,,,,,,,,,,,,,,,,,,,,,,,,,,,,
,,"[""comma""]",0,79,0,79,0,1,5f6285720560ae1db06d599a,28,Mężczyzna,2022-05-28_09h30.03.426,task,2021.1.4,Win32,30.00120005,628b806c463b948bc644b84f,6291ce462717b102165d2698,[0.2307000000476478],,,,,,,,,,,,,,,,,,,,,,,,,,,,,,,,,,,,,,,,,,,,,,,,,,,,,,,,,,,,,,,,,,,,,,,,,,,,,,,,,,,,,,,,,,,,,,,,,,,,,,,
,,"[""period""]",0,80,0,80,0,1,5f6285720560ae1db06d599a,28,Mężczyzna,2022-05-28_09h30.03.426,task,2021.1.4,Win32,30.00120005,628b806c463b948bc644b84f,6291ce462717b102165d2698,[0.2572000000476464],,,,,,,,,,,,,,,,,,,,,,,,,,,,,,,,,,,,,,,,,,,,,,,,,,,,,,,,,,,,,,,,,,,,,,,,,,,,,,,,,,,,,,,,,,,,,,,,,,,,,,,
,,"[""comma""]",0,81,0,81,0,1,5f6285720560ae1db06d599a,28,Mężczyzna,2022-05-28_09h30.03.426,task,2021.1.4,Win32,30.00120005,628b806c463b948bc644b84f,6291ce462717b102165d2698,[0.35589999985694476],,,,,,,,,,,,,,,,,,,,,,,,,,,,,,,,,,,,,,,,,,,,,,,,,,,,,,,,,,,,,,,,,,,,,,,,,,,,,,,,,,,,,,,,,,,,,,,,,,,,,,,
,,"[""period""]",0,82,0,82,0,1,5f6285720560ae1db06d599a,28,Mężczyzna,2022-05-28_09h30.03.426,task,2021.1.4,Win32,30.00120005,628b806c463b948bc644b84f,6291ce462717b102165d2698,[0.356700000047681],,,,,,,,,,,,,,,,,,,,,,,,,,,,,,,,,,,,,,,,,,,,,,,,,,,,,,,,,,,,,,,,,,,,,,,,,,,,,,,,,,,,,,,,,,,,,,,,,,,,,,,
,,"[""comma""]",0,83,0,83,0,1,5f6285720560ae1db06d599a,28,Mężczyzna,2022-05-28_09h30.03.426,task,2021.1.4,Win32,30.00120005,628b806c463b948bc644b84f,6291ce462717b102165d2698,[1.054099999904622],,,,,,,,,,,,,,,,,,,,,,,,,,,,,,,,,,,,,,,,,,,,,,,,,,,,,,,,,,,,,,,,,,,,,,,,,,,,,,,,,,,,,,,,,,,,,,,,,,,,,,,
,,"[""period""]",0,84,0,84,0,1,5f6285720560ae1db06d599a,28,Mężczyzna,2022-05-28_09h30.03.426,task,2021.1.4,Win32,30.00120005,628b806c463b948bc644b84f,6291ce462717b102165d2698,[0.8077000000477028],,,,,,,,,,,,,,,,,,,,,,,,,,,,,,,,,,,,,,,,,,,,,,,,,,,,,,,,,,,,,,,,,,,,,,,,,,,,,,,,,,,,,,,,,,,,,,,,,,,,,,,
,,"[""comma""]",0,85,0,85,0,1,5f6285720560ae1db06d599a,28,Mężczyzna,2022-05-28_09h30.03.426,task,2021.1.4,Win32,30.00120005,628b806c463b948bc644b84f,6291ce462717b102165d2698,[1.01270000004763],,,,,,,,,,,,,,,,,,,,,,,,,,,,,,,,,,,,,,,,,,,,,,,,,,,,,,,,,,,,,,,,,,,,,,,,,,,,,,,,,,,,,,,,,,,,,,,,,,,,,,,
,,"[""period""]",0,86,0,86,0,1,5f6285720560ae1db06d599a,28,Mężczyzna,2022-05-28_09h30.03.426,task,2021.1.4,Win32,30.00120005,628b806c463b948bc644b84f,6291ce462717b102165d2698,[0.9427000000476369],,,,,,,,,,,,,,,,,,,,,,,,,,,,,,,,,,,,,,,,,,,,,,,,,,,,,,,,,,,,,,,,,,,,,,,,,,,,,,,,,,,,,,,,,,,,,,,,,,,,,,,
,,"[""comma""]",0,87,0,87,0,1,5f6285720560ae1db06d599a,28,Mężczyzna,2022-05-28_09h30.03.426,task,2021.1.4,Win32,30.00120005,628b806c463b948bc644b84f,6291ce462717b102165d2698,[1.0072000000477033],,,,,,,,,,,,,,,,,,,,,,,,,,,,,,,,,,,,,,,,,,,,,,,,,,,,,,,,,,,,,,,,,,,,,,,,,,,,,,,,,,,,,,,,,,,,,,,,,,,,,,,
,,"[""period""]",0,88,0,88,0,1,5f6285720560ae1db06d599a,28,Mężczyzna,2022-05-28_09h30.03.426,task,2021.1.4,Win32,30.00120005,628b806c463b948bc644b84f,6291ce462717b102165d2698,[1.5382000000476523],,,,,,,,,,,,,,,,,,,,,,,,,,,,,,,,,,,,,,,,,,,,,,,,,,,,,,,,,,,,,,,,,,,,,,,,,,,,,,,,,,,,,,,,,,,,,,,,,,,,,,,
,,"[""comma""]",0,89,0,89,0,1,5f6285720560ae1db06d599a,28,Mężczyzna,2022-05-28_09h30.03.426,task,2021.1.4,Win32,30.00120005,628b806c463b948bc644b84f,6291ce462717b102165d2698,[0.9415000000000191],,,,,,,,,,,,,,,,,,,,,,,,,,,,,,,,,,,,,,,,,,,,,,,,,,,,,,,,,,,,,,,,,,,,,,,,,,,,,,,,,,,,,,,,,,,,,,,,,,,,,,,
,,"[""period""]",0,90,0,90,0,1,5f6285720560ae1db06d599a,28,Mężczyzna,2022-05-28_09h30.03.426,task,2021.1.4,Win32,30.00120005,628b806c463b948bc644b84f,6291ce462717b102165d2698,[1.4636000001430602],,,,,,,,,,,,,,,,,,,,,,,,,,,,,,,,,,,,,,,,,,,,,,,,,,,,,,,,,,,,,,,,,,,,,,,,,,,,,,,,,,,,,,,,,,,,,,,,,,,,,,,
,,,0,91,0,91,0,1,5f6285720560ae1db06d599a,28,Mężczyzna,2022-05-28_09h30.03.426,task,2021.1.4,Win32,30.00120005,628b806c463b948bc644b84f,6291ce462717b102165d2698,,,,,,,,,,,,,,,,,,,,,,,,,,,,,,,,,,,,,,,,,,,,,,,,,,,,,,,,,,,,,,,,,,,,,,,,,,,,,,,,,,,,,,,,,,,,,,,,,,,,,,,,
,,"[""comma""]",0,92,0,92,0,1,5f6285720560ae1db06d599a,28,Mężczyzna,2022-05-28_09h30.03.426,task,2021.1.4,Win32,30.00120005,628b806c463b948bc644b84f,6291ce462717b102165d2698,[0.3583999998569425],,,,,,,,,,,,,,,,,,,,,,,,,,,,,,,,,,,,,,,,,,,,,,,,,,,,,,,,,,,,,,,,,,,,,,,,,,,,,,,,,,,,,,,,,,,,,,,,,,,,,,,
,,"[""comma""]",0,93,0,93,0,1,5f6285720560ae1db06d599a,28,Mężczyzna,2022-05-28_09h30.03.426,task,2021.1.4,Win32,30.00120005,628b806c463b948bc644b84f,6291ce462717b102165d2698,[0.24200000000001864],,,,,,,,,,,,,,,,,,,,,,,,,,,,,,,,,,,,,,,,,,,,,,,,,,,,,,,,,,,,,,,,,,,,,,,,,,,,,,,,,,,,,,,,,,,,,,,,,,,,,,,
,,"[""comma""]",0,94,0,94,0,1,5f6285720560ae1db06d599a,28,Mężczyzna,2022-05-28_09h30.03.426,task,2021.1.4,Win32,30.00120005,628b806c463b948bc644b84f,6291ce462717b102165d2698,[0.37400000000002365],,,,,,,,,,,,,,,,,,,,,,,,,,,,,,,,,,,,,,,,,,,,,,,,,,,,,,,,,,,,,,,,,,,,,,,,,,,,,,,,,,,,,,,,,,,,,,,,,,,,,,,
,,"[""period""]",0,95,0,95,0,1,5f6285720560ae1db06d599a,28,Mężczyzna,2022-05-28_09h30.03.426,task,2021.1.4,Win32,30.00120005,628b806c463b948bc644b84f,6291ce462717b102165d2698,[0.3079999999999927],,,,,,,,,,,,,,,,,,,,,,,,,,,,,,,,,,,,,,,,,,,,,,,,,,,,,,,,,,,,,,,,,,,,,,,,,,,,,,,,,,,,,,,,,,,,,,,,,,,,,,,
,,"[""period""]",0,96,0,96,0,1,5f6285720560ae1db06d599a,28,Mężczyzna,2022-05-28_09h30.03.426,task,2021.1.4,Win32,30.00120005,628b806c463b948bc644b84f,6291ce462717b102165d2698,[0.5314999999999941],,,,,,,,,,,,,,,,,,,,,,,,,,,,,,,,,,,,,,,,,,,,,,,,,,,,,,,,,,,,,,,,,,,,,,,,,,,,,,,,,,,,,,,,,,,,,,,,,,,,,,,
,,"[""comma""]",0,97,0,97,0,1,5f6285720560ae1db06d599a,28,Mężczyzna,2022-05-28_09h30.03.426,task,2021.1.4,Win32,30.00120005,628b806c463b948bc644b84f,6291ce462717b102165d2698,[0.3234000000953756],,,,,,,,,,,,,,,,,,,,,,,,,,,,,,,,,,,,,,,,,,,,,,,,,,,,,,,,,,,,,,,,,,,,,,,,,,,,,,,,,,,,,,,,,,,,,,,,,,,,,,,
,,"[""period""]",0,98,0,98,0,1,5f6285720560ae1db06d599a,28,Mężczyzna,2022-05-28_09h30.03.426,task,2021.1.4,Win32,30.00120005,628b806c463b948bc644b84f,6291ce462717b102165d2698,[0.29169999980928196],,,,,,,,,,,,,,,,,,,,,,,,,,,,,,,,,,,,,,,,,,,,,,,,,,,,,,,,,,,,,,,,,,,,,,,,,,,,,,,,,,,,,,,,,,,,,,,,,,,,,,,
,,"[""comma""]",0,99,0,99,0,1,5f6285720560ae1db06d599a,28,Mężczyzna,2022-05-28_09h30.03.426,task,2021.1.4,Win32,30.00120005,628b806c463b948bc644b84f,6291ce462717b102165d2698,[0.2904999999999518],,,,,,,,,,,,,,,,,,,,,,,,,,,,,,,,,,,,,,,,,,,,,,,,,,,,,,,,,,,,,,,,,,,,,,,,,,,,,,,,,,,,,,,,,,,,,,,,,,,,,,,
,,"[""period""]",0,100,0,100,0,1,5f6285720560ae1db06d599a,28,Mężczyzna,2022-05-28_09h30.03.426,task,2021.1.4,Win32,30.00120005,628b806c463b948bc644b84f,6291ce462717b102165d2698,[0.29000000000002046],,,,,,,,,,,,,,,,,,,,,,,,,,,,,,,,,,,,,,,,,,,,,,,,,,,,,,,,,,,,,,,,,,,,,,,,,,,,,,,,,,,,,,,,,,,,,,,,,,,,,,,
,,"[""period""]",0,101,0,101,0,1,5f6285720560ae1db06d599a,28,Mężczyzna,2022-05-28_09h30.03.426,task,2021.1.4,Win32,30.00120005,628b806c463b948bc644b84f,6291ce462717b102165d2698,[0.24250000000000682],,,,,,,,,,,,,,,,,,,,,,,,,,,,,,,,,,,,,,,,,,,,,,,,,,,,,,,,,,,,,,,,,,,,,,,,,,,,,,,,,,,,,,,,,,,,,,,,,,,,,,,
,,"[""comma""]",0,102,0,102,0,1,5f6285720560ae1db06d599a,28,Mężczyzna,2022-05-28_09h30.03.426,task,2021.1.4,Win32,30.00120005,628b806c463b948bc644b84f,6291ce462717b102165d2698,[0.022200000047689628],,,,,,,,,,,,,,,,,,,,,,,,,,,,,,,,,,,,,,,,,,,,,,,,,,,,,,,,,,,,,,,,,,,,,,,,,,,,,,,,,,,,,,,,,,,,,,,,,,,,,,,
,,"[""period""]",0,103,0,103,0,1,5f6285720560ae1db06d599a,28,Mężczyzna,2022-05-28_09h30.03.426,task,2021.1.4,Win32,30.00120005,628b806c463b948bc644b84f,6291ce462717b102165d2698,[0.3837999999523163],,,,,,,,,,,,,,,,,,,,,,,,,,,,,,,,,,,,,,,,,,,,,,,,,,,,,,,,,,,,,,,,,,,,,,,,,,,,,,,,,,,,,,,,,,,,,,,,,,,,,,,
,,"[""comma""]",0,104,0,104,0,1,5f6285720560ae1db06d599a,28,Mężczyzna,2022-05-28_09h30.03.426,task,2021.1.4,Win32,30.00120005,628b806c463b948bc644b84f,6291ce462717b102165d2698,[0.30009999990465985],,,,,,,,,,,,,,,,,,,,,,,,,,,,,,,,,,,,,,,,,,,,,,,,,,,,,,,,,,,,,,,,,,,,,,,,,,,,,,,,,,,,,,,,,,,,,,,,,,,,,,,
,,"[""comma""]",0,105,0,105,0,1,5f6285720560ae1db06d599a,28,Mężczyzna,2022-05-28_09h30.03.426,task,2021.1.4,Win32,30.00120005,628b806c463b948bc644b84f,6291ce462717b102165d2698,[0.24049999999999727],,,,,,,,,,,,,,,,,,,,,,,,,,,,,,,,,,,,,,,,,,,,,,,,,,,,,,,,,,,,,,,,,,,,,,,,,,,,,,,,,,,,,,,,,,,,,,,,,,,,,,,
,,"[""period""]",0,106,0,106,0,1,5f6285720560ae1db06d599a,28,Mężczyzna,2022-05-28_09h30.03.426,task,2021.1.4,Win32,30.00120005,628b806c463b948bc644b84f,6291ce462717b102165d2698,[0.32860000014306934],,,,,,,,,,,,,,,,,,,,,,,,,,,,,,,,,,,,,,,,,,,,,,,,,,,,,,,,,,,,,,,,,,,,,,,,,,,,,,,,,,,,,,,,,,,,,,,,,,,,,,,
,,"[""comma""]",0,107,0,107,0,1,5f6285720560ae1db06d599a,28,Mężczyzna,2022-05-28_09h30.03.426,task,2021.1.4,Win32,30.00120005,628b806c463b948bc644b84f,6291ce462717b102165d2698,[0.3736000001430284],,,,,,,,,,,,,,,,,,,,,,,,,,,,,,,,,,,,,,,,,,,,,,,,,,,,,,,,,,,,,,,,,,,,,,,,,,,,,,,,,,,,,,,,,,,,,,,,,,,,,,,
,,"[""period""]",0,108,0,108,0,1,5f6285720560ae1db06d599a,28,Mężczyzna,2022-05-28_09h30.03.426,task,2021.1.4,Win32,30.00120005,628b806c463b948bc644b84f,6291ce462717b102165d2698,[0.5325000000000273],,,,,,,,,,,,,,,,,,,,,,,,,,,,,,,,,,,,,,,,,,,,,,,,,,,,,,,,,,,,,,,,,,,,,,,,,,,,,,,,,,,,,,,,,,,,,,,,,,,,,,,
,,"[""period""]",0,109,0,109,0,1,5f6285720560ae1db06d599a,28,Mężczyzna,2022-05-28_09h30.03.426,task,2021.1.4,Win32,30.00120005,628b806c463b948bc644b84f,6291ce462717b102165d2698,[0.39109999990466804],,,,,,,,,,,,,,,,,,,,,,,,,,,,,,,,,,,,,,,,,,,,,,,,,,,,,,,,,,,,,,,,,,,,,,,,,,,,,,,,,,,,,,,,,,,,,,,,,,,,,,,
,,"[""period""]",0,110,0,110,0,1,5f6285720560ae1db06d599a,28,Mężczyzna,2022-05-28_09h30.03.426,task,2021.1.4,Win32,30.00120005,628b806c463b948bc644b84f,6291ce462717b102165d2698,[0.6566000001430439],,,,,,,,,,,,,,,,,,,,,,,,,,,,,,,,,,,,,,,,,,,,,,,,,,,,,,,,,,,,,,,,,,,,,,,,,,,,,,,,,,,,,,,,,,,,,,,,,,,,,,,
,,"[""comma""]",0,111,0,111,0,1,5f6285720560ae1db06d599a,28,Mężczyzna,2022-05-28_09h30.03.426,task,2021.1.4,Win32,30.00120005,628b806c463b948bc644b84f,6291ce462717b102165d2698,[0.3152999999523445],,,,,,,,,,,,,,,,,,,,,,,,,,,,,,,,,,,,,,,,,,,,,,,,,,,,,,,,,,,,,,,,,,,,,,,,,,,,,,,,,,,,,,,,,,,,,,,,,,,,,,,
,,"[""comma""]",0,112,0,112,0,1,5f6285720560ae1db06d599a,28,Mężczyzna,2022-05-28_09h30.03.426,task,2021.1.4,Win32,30.00120005,628b806c463b948bc644b84f,6291ce462717b102165d2698,[0.5620000000000118],,,,,,,,,,,,,,,,,,,,,,,,,,,,,,,,,,,,,,,,,,,,,,,,,,,,,,,,,,,,,,,,,,,,,,,,,,,,,,,,,,,,,,,,,,,,,,,,,,,,,,,
,,"[""period""]",0,113,0,113,0,1,5f6285720560ae1db06d599a,28,Mężczyzna,2022-05-28_09h30.03.426,task,2021.1.4,Win32,30.00120005,628b806c463b948bc644b84f,6291ce462717b102165d2698,[0.7031999998092715],,,,,,,,,,,,,,,,,,,,,,,,,,,,,,,,,,,,,,,,,,,,,,,,,,,,,,,,,,,,,,,,,,,,,,,,,,,,,,,,,,,,,,,,,,,,,,,,,,,,,,,
,,"[""period""]",0,114,0,114,0,1,5f6285720560ae1db06d599a,28,Mężczyzna,2022-05-28_09h30.03.426,task,2021.1.4,Win32,30.00120005,628b806c463b948bc644b84f,6291ce462717b102165d2698,[0.7413999998569807],,,,,,,,,,,,,,,,,,,,,,,,,,,,,,,,,,,,,,,,,,,,,,,,,,,,,,,,,,,,,,,,,,,,,,,,,,,,,,,,,,,,,,,,,,,,,,,,,,,,,,,
,,"[""comma""]",0,115,0,115,0,1,5f6285720560ae1db06d599a,28,Mężczyzna,2022-05-28_09h30.03.426,task,2021.1.4,Win32,30.00120005,628b806c463b948bc644b84f,6291ce462717b102165d2698,[0.6974999999999909],,,,,,,,,,,,,,,,,,,,,,,,,,,,,,,,,,,,,,,,,,,,,,,,,,,,,,,,,,,,,,,,,,,,,,,,,,,,,,,,,,,,,,,,,,,,,,,,,,,,,,,
,,"[""comma""]",0,116,0,116,0,1,5f6285720560ae1db06d599a,28,Mężczyzna,2022-05-28_09h30.03.426,task,2021.1.4,Win32,30.00120005,628b806c463b948bc644b84f,6291ce462717b102165d2698,[0.6747999999523131],,,,,,,,,,,,,,,,,,,,,,,,,,,,,,,,,,,,,,,,,,,,,,,,,,,,,,,,,,,,,,,,,,,,,,,,,,,,,,,,,,,,,,,,,,,,,,,,,,,,,,,
,,"[""period""]",0,117,0,117,0,1,5f6285720560ae1db06d599a,28,Mężczyzna,2022-05-28_09h30.03.426,task,2021.1.4,Win32,30.00120005,628b806c463b948bc644b84f,6291ce462717b102165d2698,[0.3277999999523331],,,,,,,,,,,,,,,,,,,,,,,,,,,,,,,,,,,,,,,,,,,,,,,,,,,,,,,,,,,,,,,,,,,,,,,,,,,,,,,,,,,,,,,,,,,,,,,,,,,,,,,
,,"[""period""]",0,118,0,118,0,1,5f6285720560ae1db06d599a,28,Mężczyzna,2022-05-28_09h30.03.426,task,2021.1.4,Win32,30.00120005,628b806c463b948bc644b84f,6291ce462717b102165d2698,[0.3394999999999868],,,,,,,,,,,,,,,,,,,,,,,,,,,,,,,,,,,,,,,,,,,,,,,,,,,,,,,,,,,,,,,,,,,,,,,,,,,,,,,,,,,,,,,,,,,,,,,,,,,,,,,
,,"[""comma""]",0,119,0,119,0,1,5f6285720560ae1db06d599a,28,Mężczyzna,2022-05-28_09h30.03.426,task,2021.1.4,Win32,30.00120005,628b806c463b948bc644b84f,6291ce462717b102165d2698,[0.3577000000477142],,,,,,,,,,,,,,,,,,,,,,,,,,,,,,,,,,,,,,,,,,,,,,,,,,,,,,,,,,,,,,,,,,,,,,,,,,,,,,,,,,,,,,,,,,,,,,,,,,,,,,,
,,,,,,,,,5f6285720560ae1db06d599a,28,Mężczyzna,2022-05-28_09h30.03.426,task,2021.1.4,Win32,30.00120005,628b806c463b948bc644b84f,6291ce462717b102165d2698,,space,15.3488,space,6.0327,0,0,0,0,1,"X V Q F H G B L J M P D K C T S W R N Z
",,,,,,,,,,,,,,,,,,,,,,,,,,,,,,,,,,,,,,,,,,,,,,,,,,,,,,,,,,,,,,,,,,,,,,,,,,,,,,,,,,,,,,,,,,,,,
,,,,,,,,,5f6285720560ae1db06d599a,28,Mężczyzna,2022-05-28_09h30.03.426,task,2021.1.4,Win32,30.00120005,628b806c463b948bc644b84f,6291ce462717b102165d2698,,,,,,1,0,1,0,1,"X V Q F H G B L J M P D K C T S W R N Z
",,,,,,,,,,,,,,,,,,,,,,,,,,,,,,,,,,,,,,,,,,,,,,,,,,,,,,,,,,,,,,,,,,,,,,,,,,,,,,,,,,,,,,,,,,,,,
,,,,,,,,,5f6285720560ae1db06d599a,28,Mężczyzna,2022-05-28_09h30.03.426,task,2021.1.4,Win32,30.00120005,628b806c463b948bc644b84f,6291ce462717b102165d2698,,,,,,,,,,,,zs,"[""z"",""s""]","[1.5205999999046185,1.983299999952294,3.2289000000953365]",1,ZS,0,0,0,0,1,,,,,,,,,,,,,,,,,,,,,,,,,,,,,,,,,,,,,,,,,,,,,,,,,,,,,,,,,,,,,,,,,,,,,,,,,,,,,,,,,,,
,,,,,,,,,5f6285720560ae1db06d599a,28,Mężczyzna,2022-05-28_09h30.03.426,task,2021.1.4,Win32,30.00120005,628b806c463b948bc644b84f,6291ce462717b102165d2698,,,,,,0,0,0,0,1,"X V Q F H G B L J M P D K C T S W R N Z
",,,,,,,,,,,,,,,,,,,,,,,,,,,,,,,,,,,,,,,,,,,,,,,,,,,,,,,,,,,,,,,,,,,,,,,,,,,,,,,,,,,,,,,,,,,,,
,,,,,,,,,5f6285720560ae1db06d599a,28,Mężczyzna,2022-05-28_09h30.03.426,task,2021.1.4,Win32,30.00120005,628b806c463b948bc644b84f,6291ce462717b102165d2698,,,,,,1,0,1,0,1,"X V Q F H G B L J M P D K C T S W R N Z
",,,,,,,,,,,,,,,,,,,,,,,,,,,,,,,,,,,,,,,,,,,,,,,,,,,,,,,,,,,,,,,,,,,,,,,,,,,,,,,,,,,,,,,,,,,,,
,,,,,,,,,5f6285720560ae1db06d599a,28,Mężczyzna,2022-05-28_09h30.03.426,task,2021.1.4,Win32,30.00120005,628b806c463b948bc644b84f,6291ce462717b102165d2698,,,,,,,,,,,,rh,"[""r"",""h""]","[1.1923999998569457,1.5825999999046303,1.9216999998092774]",1,RH,1,0,1,0,1,,,,,,,,,,,,,,,,,,,,,,,,,,,,,,,,,,,,,,,,,,,,,,,,,,,,,,,,,,,,,,,,,,,,,,,,,,,,,,,,,,,
,,,,,,,,,5f6285720560ae1db06d599a,28,Mężczyzna,2022-05-28_09h30.03.426,task,2021.1.4,Win32,30.00120005,628b806c463b948bc644b84f,6291ce462717b102165d2698,,,,,,0,0,0,0,1,"X V Q F H G B L J M P D K C T S W R N Z
",,,,,,,,,,,,,,,,,,,,,,,,,,,,,,,,,,,,,,,,,,,,,,,,,,,,,,,,,,,,,,,,,,,,,,,,,,,,,,,,,,,,,,,,,,,,,
,,,,,,,,,5f6285720560ae1db06d599a,28,Mężczyzna,2022-05-28_09h30.03.426,task,2021.1.4,Win32,30.00120005,628b806c463b948bc644b84f,6291ce462717b102165d2698,,,,,,1,0,1,0,1,"X V Q F H G B L J M P D K C T S W R N Z
",,,,,,,,,,,,,,,,,,,,,,,,,,,,,,,,,,,,,,,,,,,,,,,,,,,,,,,,,,,,,,,,,,,,,,,,,,,,,,,,,,,,,,,,,,,,,
,,,,,,,,,5f6285720560ae1db06d599a,28,Mężczyzna,2022-05-28_09h30.03.426,task,2021.1.4,Win32,30.00120005,628b806c463b948bc644b84f,6291ce462717b102165d2698,,,,,,2,0,2,0,1,"X V Q F H G B L J M P D K C T S W R N Z
",,,,,,,,,,,,,,,,,,,,,,,,,,,,,,,,,,,,,,,,,,,,,,,,,,,,,,,,,,,,,,,,,,,,,,,,,,,,,,,,,,,,,,,,,,,,,
,,,,,,,,,5f6285720560ae1db06d599a,28,Mężczyzna,2022-05-28_09h30.03.426,task,2021.1.4,Win32,30.00120005,628b806c463b948bc644b84f,6291ce462717b102165d2698,,,,,,,,,,,,bhb,"[""b"",""h"",""b""]","[0.5745000000000005,0.8770999999046012,1.1472999999522813,1.4722000000476783]",1,BHB,2,0,2,0,1,,,,,,,,,,,,,,,,,,,,,,,,,,,,,,,,,,,,,,,,,,,,,,,,,,,,,,,,,,,,,,,,,,,,,,,,,,,,,,,,,,,
,,,,,,,,,5f6285720560ae1db06d599a,28,Mężczyzna,2022-05-28_09h30.03.426,task,2021.1.4,Win32,30.00120005,628b806c463b948bc644b84f,6291ce462717b102165d2698,,,,,,0,0,0,0,1,"X V Q F H G B L J M P D K C T S W R N Z
",,,,,,,,,,,,,,,,,,,,,,,,,,,,,,,,,,,,,,,,,,,,,,,,,,,,,,,,,,,,,,,,,,,,,,,,,,,,,,,,,,,,,,,,,,,,,
,,,,,,,,,5f6285720560ae1db06d599a,28,Mężczyzna,2022-05-28_09h30.03.426,task,2021.1.4,Win32,30.00120005,628b806c463b948bc644b84f,6291ce462717b102165d2698,,,,,,1,0,1,0,1,"X V Q F H G B L J M P D K C T S W R N Z
",,,,,,,,,,,,,,,,,,,,,,,,,,,,,,,,,,,,,,,,,,,,,,,,,,,,,,,,,,,,,,,,,,,,,,,,,,,,,,,,,,,,,,,,,,,,,
,,,,,,,,,5f6285720560ae1db06d599a,28,Mężczyzna,2022-05-28_09h30.03.426,task,2021.1.4,Win32,30.00120005,628b806c463b948bc644b84f,6291ce462717b102165d2698,,,,,,2,0,2,0,1,"X V Q F H G B L J M P D K C T S W R N Z
",,,,,,,,,,,,,,,,,,,,,,,,,,,,,,,,,,,,,,,,,,,,,,,,,,,,,,,,,,,,,,,,,,,,,,,,,,,,,,,,,,,,,,,,,,,,,
,,,,,,,,,5f6285720560ae1db06d599a,28,Mężczyzna,2022-05-28_09h30.03.426,task,2021.1.4,Win32,30.00120005,628b806c463b948bc644b84f,6291ce462717b102165d2698,,,,,,,,,,,,lct,"[""l"",""c"",""t""]","[0.9232999999523486,1.4595999999046398,1.7058999998569675,2.1477999999523263]",1,LCT,3,0,3,0,1,,,,,,,,,,,,,,,,,,,,,,,,,,,,,,,,,,,,,,,,,,,,,,,,,,,,,,,,,,,,,,,,,,,,,,,,,,,,,,,,,,,
,,,,,,,,,5f6285720560ae1db06d599a,28,Mężczyzna,2022-05-28_09h30.03.426,task,2021.1.4,Win32,30.00120005,628b806c463b948bc644b84f,6291ce462717b102165d2698,,,,,,0,0,0,0,1,"X V Q F H G B L J M P D K C T S W R N Z
",,,,,,,,,,,,,,,,,,,,,,,,,,,,,,,,,,,,,,,,,,,,,,,,,,,,,,,,,,,,,,,,,,,,,,,,,,,,,,,,,,,,,,,,,,,,,
,,,,,,,,,5f6285720560ae1db06d599a,28,Mężczyzna,2022-05-28_09h30.03.426,task,2021.1.4,Win32,30.00120005,628b806c463b948bc644b84f,6291ce462717b102165d2698,,,,,,1,0,1,0,1,"X V Q F H G B L J M P D K C T S W R N Z
",,,,,,,,,,,,,,,,,,,,,,,,,,,,,,,,,,,,,,,,,,,,,,,,,,,,,,,,,,,,,,,,,,,,,,,,,,,,,,,,,,,,,,,,,,,,,
,,,,,,,,,5f6285720560ae1db06d599a,28,Mężczyzna,2022-05-28_09h30.03.426,task,2021.1.4,Win32,30.00120005,628b806c463b948bc644b84f,6291ce462717b102165d2698,,,,,,2,0,2,0,1,"X V Q F H G B L J M P D K C T S W R N Z
",,,,,,,,,,,,,,,,,,,,,,,,,,,,,,,,,,,,,,,,,,,,,,,,,,,,,,,,,,,,,,,,,,,,,,,,,,,,,,,,,,,,,,,,,,,,,
,,,,,,,,,5f6285720560ae1db06d599a,28,Mężczyzna,2022-05-28_09h30.03.426,task,2021.1.4,Win32,30.00120005,628b806c463b948bc644b84f,6291ce462717b102165d2698,,,,,,3,0,3,0,1,"X V Q F H G B L J M P D K C T S W R N Z
",,,,,,,,,,,,,,,,,,,,,,,,,,,,,,,,,,,,,,,,,,,,,,,,,,,,,,,,,,,,,,,,,,,,,,,,,,,,,,,,,,,,,,,,,,,,,
,,,,,,,,,5f6285720560ae1db06d599a,28,Mężczyzna,2022-05-28_09h30.03.426,task,2021.1.4,Win32,30.00120005,628b806c463b948bc644b84f,6291ce462717b102165d2698,,,,,,,,,,,,crfs,"[""c"",""r"",""f"",""s""]","[0.5567999999523181,0.7239999999999895,0.9549999999999841,1.1949999999999932,1.6780999999046458]",1,CRFS,4,0,4,0,1,,,,,,,,,,,,,,,,,,,,,,,,,,,,,,,,,,,,,,,,,,,,,,,,,,,,,,,,,,,,,,,,,,,,,,,,,,,,,,,,,,,
,,,,,,,,,5f6285720560ae1db06d599a,28,Mężczyzna,2022-05-28_09h30.03.426,task,2021.1.4,Win32,30.00120005,628b806c463b948bc644b84f,6291ce462717b102165d2698,,,,,,0,0,0,0,1,"X V Q F H G B L J M P D K C T S W R N Z
",,,,,,,,,,,,,,,,,,,,,,,,,,,,,,,,,,,,,,,,,,,,,,,,,,,,,,,,,,,,,,,,,,,,,,,,,,,,,,,,,,,,,,,,,,,,,
,,,,,,,,,5f6285720560ae1db06d599a,28,Mężczyzna,2022-05-28_09h30.03.426,task,2021.1.4,Win32,30.00120005,628b806c463b948bc644b84f,6291ce462717b102165d2698,,,,,,1,0,1,0,1,"X V Q F H G B L J M P D K C T S W R N Z
",,,,,,,,,,,,,,,,,,,,,,,,,,,,,,,,,,,,,,,,,,,,,,,,,,,,,,,,,,,,,,,,,,,,,,,,,,,,,,,,,,,,,,,,,,,,,
,,,,,,,,,5f6285720560ae1db06d599a,28,Mężczyzna,2022-05-28_09h30.03.426,task,2021.1.4,Win32,30.00120005,628b806c463b948bc644b84f,6291ce462717b102165d2698,,,,,,2,0,2,0,1,"X V Q F H G B L J M P D K C T S W R N Z
",,,,,,,,,,,,,,,,,,,,,,,,,,,,,,,,,,,,,,,,,,,,,,,,,,,,,,,,,,,,,,,,,,,,,,,,,,,,,,,,,,,,,,,,,,,,,
,,,,,,,,,5f6285720560ae1db06d599a,28,Mężczyzna,2022-05-28_09h30.03.426,task,2021.1.4,Win32,30.00120005,628b806c463b948bc644b84f,6291ce462717b102165d2698,,,,,,3,0,3,0,1,"X V Q F H G B L J M P D K C T S W R N Z
",,,,,,,,,,,,,,,,,,,,,,,,,,,,,,,,,,,,,,,,,,,,,,,,,,,,,,,,,,,,,,,,,,,,,,,,,,,,,,,,,,,,,,,,,,,,,
,,,,,,,,,5f6285720560ae1db06d599a,28,Mężczyzna,2022-05-28_09h30.03.426,task,2021.1.4,Win32,30.00120005,628b806c463b948bc644b84f,6291ce462717b102165d2698,,,,,,,,,,,,cvzf,"[""c"",""v"",""z"",""f""]","[0.6969000000953542,0.8902000000476846,1.126900000095361,3.1382999999523236,3.7771000001430366]",0,"CVZ
S",5,0,5,0,1,,,,,,,,,,,,,,,,,,,,,,,,,,,,,,,,,,,,,,,,,,,,,,,,,,,,,,,,,,,,,,,,,,,,,,,,,,,,,,,,,,,
,,,,,,,,,5f6285720560ae1db06d599a,28,Mężczyzna,2022-05-28_09h30.03.426,task,2021.1.4,Win32,30.00120005,628b806c463b948bc644b84f,6291ce462717b102165d2698,,,,,,0,0,0,0,1,"X V Q F H G B L J M P D K C T S W R N Z
",,,,,,,,,,,,,,,,,,,,,,,,,,,,,,,,,,,,,,,,,,,,,,,,,,,,,,,,,,,,,,,,,,,,,,,,,,,,,,,,,,,,,,,,,,,,,
,,,,,,,,,5f6285720560ae1db06d599a,28,Mężczyzna,2022-05-28_09h30.03.426,task,2021.1.4,Win32,30.00120005,628b806c463b948bc644b84f,6291ce462717b102165d2698,,,,,,1,0,1,0,1,"X V Q F H G B L J M P D K C T S W R N Z
",,,,,,,,,,,,,,,,,,,,,,,,,,,,,,,,,,,,,,,,,,,,,,,,,,,,,,,,,,,,,,,,,,,,,,,,,,,,,,,,,,,,,,,,,,,,,
,,,,,,,,,5f6285720560ae1db06d599a,28,Mężczyzna,2022-05-28_09h30.03.426,task,2021.1.4,Win32,30.00120005,628b806c463b948bc644b84f,6291ce462717b102165d2698,,,,,,2,0,2,0,1,"X V Q F H G B L J M P D K C T S W R N Z
",,,,,,,,,,,,,,,,,,,,,,,,,,,,,,,,,,,,,,,,,,,,,,,,,,,,,,,,,,,,,,,,,,,,,,,,,,,,,,,,,,,,,,,,,,,,,
,,,,,,,,,5f6285720560ae1db06d599a,28,Mężczyzna,2022-05-28_09h30.03.426,task,2021.1.4,Win32,30.00120005,628b806c463b948bc644b84f,6291ce462717b102165d2698,,,,,,3,0,3,0,1,"X V Q F H G B L J M P D K C T S W R N Z
",,,,,,,,,,,,,,,,,,,,,,,,,,,,,,,,,,,,,,,,,,,,,,,,,,,,,,,,,,,,,,,,,,,,,,,,,,,,,,,,,,,,,,,,,,,,,
,,,,,,,,,5f6285720560ae1db06d599a,28,Mężczyzna,2022-05-28_09h30.03.426,task,2021.1.4,Win32,30.00120005,628b806c463b948bc644b84f,6291ce462717b102165d2698,,,,,,,,,,,,bqnx,"[""b"",""q"",""n"",""x""]","[1.0764000000953615,1.2608000001907271,1.6554000000953693,1.9447000000476464,2.437300000190703]",1,BQNX,6,0,6,0,1,,,,,,,,,,,,,,,,,,,,,,,,,,,,,,,,,,,,,,,,,,,,,,,,,,,,,,,,,,,,,,,,,,,,,,,,,,,,,,,,,,,
,,,,,,,,,5f6285720560ae1db06d599a,28,Mężczyzna,2022-05-28_09h30.03.426,task,2021.1.4,Win32,30.00120005,628b806c463b948bc644b84f,6291ce462717b102165d2698,,,,,,0,0,0,0,1,"X V Q F H G B L J M P D K C T S W R N Z
",,,,,,,,,,,,,,,,,,,,,,,,,,,,,,,,,,,,,,,,,,,,,,,,,,,,,,,,,,,,,,,,,,,,,,,,,,,,,,,,,,,,,,,,,,,,,
,,,,,,,,,5f6285720560ae1db06d599a,28,Mężczyzna,2022-05-28_09h30.03.426,task,2021.1.4,Win32,30.00120005,628b806c463b948bc644b84f,6291ce462717b102165d2698,,,,,,1,0,1,0,1,"X V Q F H G B L J M P D K C T S W R N Z
",,,,,,,,,,,,,,,,,,,,,,,,,,,,,,,,,,,,,,,,,,,,,,,,,,,,,,,,,,,,,,,,,,,,,,,,,,,,,,,,,,,,,,,,,,,,,
,,,,,,,,,5f6285720560ae1db06d599a,28,Mężczyzna,2022-05-28_09h30.03.426,task,2021.1.4,Win32,30.00120005,628b806c463b948bc644b84f,6291ce462717b102165d2698,,,,,,2,0,2,0,1,"X V Q F H G B L J M P D K C T S W R N Z
",,,,,,,,,,,,,,,,,,,,,,,,,,,,,,,,,,,,,,,,,,,,,,,,,,,,,,,,,,,,,,,,,,,,,,,,,,,,,,,,,,,,,,,,,,,,,
,,,,,,,,,5f6285720560ae1db06d599a,28,Mężczyzna,2022-05-28_09h30.03.426,task,2021.1.4,Win32,30.00120005,628b806c463b948bc644b84f,6291ce462717b102165d2698,,,,,,3,0,3,0,1,"X V Q F H G B L J M P D K C T S W R N Z
",,,,,,,,,,,,,,,,,,,,,,,,,,,,,,,,,,,,,,,,,,,,,,,,,,,,,,,,,,,,,,,,,,,,,,,,,,,,,,,,,,,,,,,,,,,,,
,,,,,,,,,5f6285720560ae1db06d599a,28,Mężczyzna,2022-05-28_09h30.03.426,task,2021.1.4,Win32,30.00120005,628b806c463b948bc644b84f,6291ce462717b102165d2698,,,,,,4,0,4,0,1,"X V Q F H G B L J M P D K C T S W R N Z
",,,,,,,,,,,,,,,,,,,,,,,,,,,,,,,,,,,,,,,,,,,,,,,,,,,,,,,,,,,,,,,,,,,,,,,,,,,,,,,,,,,,,,,,,,,,,
,,,,,,,,,5f6285720560ae1db06d599a,28,Mężczyzna,2022-05-28_09h30.03.426,task,2021.1.4,Win32,30.00120005,628b806c463b948bc644b84f,6291ce462717b102165d2698,,,,,,,,,,,,bnvch,"[""b"",""n"",""v"",""c"",""h""]","[0.5267999999522885,0.7435999999046317,1.1940999999046085,1.4072000000476805,1.973299999952303,2.377899999856936]",1,BNVCH,7,0,7,0,1,,,,,,,,,,,,,,,,,,,,,,,,,,,,,,,,,,,,,,,,,,,,,,,,,,,,,,,,,,,,,,,,,,,,,,,,,,,,,,,,,,,
,,,,,,,,,5f6285720560ae1db06d599a,28,Mężczyzna,2022-05-28_09h30.03.426,task,2021.1.4,Win32,30.00120005,628b806c463b948bc644b84f,6291ce462717b102165d2698,,,,,,0,0,0,0,1,"X V Q F H G B L J M P D K C T S W R N Z
",,,,,,,,,,,,,,,,,,,,,,,,,,,,,,,,,,,,,,,,,,,,,,,,,,,,,,,,,,,,,,,,,,,,,,,,,,,,,,,,,,,,,,,,,,,,,
,,,,,,,,,5f6285720560ae1db06d599a,28,Mężczyzna,2022-05-28_09h30.03.426,task,2021.1.4,Win32,30.00120005,628b806c463b948bc644b84f,6291ce462717b102165d2698,,,,,,1,0,1,0,1,"X V Q F H G B L J M P D K C T S W R N Z
",,,,,,,,,,,,,,,,,,,,,,,,,,,,,,,,,,,,,,,,,,,,,,,,,,,,,,,,,,,,,,,,,,,,,,,,,,,,,,,,,,,,,,,,,,,,,
,,,,,,,,,5f6285720560ae1db06d599a,28,Mężczyzna,2022-05-28_09h30.03.426,task,2021.1.4,Win32,30.00120005,628b806c463b948bc644b84f,6291ce462717b102165d2698,,,,,,2,0,2,0,1,"X V Q F H G B L J M P D K C T S W R N Z
",,,,,,,,,,,,,,,,,,,,,,,,,,,,,,,,,,,,,,,,,,,,,,,,,,,,,,,,,,,,,,,,,,,,,,,,,,,,,,,,,,,,,,,,,,,,,
,,,,,,,,,5f6285720560ae1db06d599a,28,Mężczyzna,2022-05-28_09h30.03.426,task,2021.1.4,Win32,30.00120005,628b806c463b948bc644b84f,6291ce462717b102165d2698,,,,,,3,0,3,0,1,"X V Q F H G B L J M P D K C T S W R N Z
",,,,,,,,,,,,,,,,,,,,,,,,,,,,,,,,,,,,,,,,,,,,,,,,,,,,,,,,,,,,,,,,,,,,,,,,,,,,,,,,,,,,,,,,,,,,,
,,,,,,,,,5f6285720560ae1db06d599a,28,Mężczyzna,2022-05-28_09h30.03.426,task,2021.1.4,Win32,30.00120005,628b806c463b948bc644b84f,6291ce462717b102165d2698,,,,,,4,0,4,0,1,"X V Q F H G B L J M P D K C T S W R N Z
",,,,,,,,,,,,,,,,,,,,,,,,,,,,,,,,,,,,,,,,,,,,,,,,,,,,,,,,,,,,,,,,,,,,,,,,,,,,,,,,,,,,,,,,,,,,,
,,,,,,,,,5f6285720560ae1db06d599a,28,Mężczyzna,2022-05-28_09h30.03.426,task,2021.1.4,Win32,30.00120005,628b806c463b948bc644b84f,6291ce462717b102165d2698,,,,,,,,,,,,wdgjz,"[""w"",""d"",""g"",""j"",""z""]","[0.7649999999999864,1.0550000000000068,1.392300000190744,1.6057000000477046,1.8425000000000296,2.681600000143078]",0,"WDGJZ
",8,0,8,0,1,,,,,,,,,,,,,,,,,,,,,,,,,,,,,,,,,,,,,,,,,,,,,,,,,,,,,,,,,,,,,,,,,,,,,,,,,,,,,,,,,,,
,,,,,,,,,5f6285720560ae1db06d599a,28,Mężczyzna,2022-05-28_09h30.03.426,task,2021.1.4,Win32,30.00120005,628b806c463b948bc644b84f,6291ce462717b102165d2698,,,,,,0,0,0,0,1,"X V Q F H G B L J M P D K C T S W R N Z
",,,,,,,,,,,,,,,,,,,,,,,,,,,,,,,,,,,,,,,,,,,,,,,,,,,,,,,,,,,,,,,,,,,,,,,,,,,,,,,,,,,,,,,,,,,,,
,,,,,,,,,5f6285720560ae1db06d599a,28,Mężczyzna,2022-05-28_09h30.03.426,task,2021.1.4,Win32,30.00120005,628b806c463b948bc644b84f,6291ce462717b102165d2698,,,,,,1,0,1,0,1,"X V Q F H G B L J M P D K C T S W R N Z
",,,,,,,,,,,,,,,,,,,,,,,,,,,,,,,,,,,,,,,,,,,,,,,,,,,,,,,,,,,,,,,,,,,,,,,,,,,,,,,,,,,,,,,,,,,,,
,,,,,,,,,5f6285720560ae1db06d599a,28,Mężczyzna,2022-05-28_09h30.03.426,task,2021.1.4,Win32,30.00120005,628b806c463b948bc644b84f,6291ce462717b102165d2698,,,,,,2,0,2,0,1,"X V Q F H G B L J M P D K C T S W R N Z
",,,,,,,,,,,,,,,,,,,,,,,,,,,,,,,,,,,,,,,,,,,,,,,,,,,,,,,,,,,,,,,,,,,,,,,,,,,,,,,,,,,,,,,,,,,,,
,,,,,,,,,5f6285720560ae1db06d599a,28,Mężczyzna,2022-05-28_09h30.03.426,task,2021.1.4,Win32,30.00120005,628b806c463b948bc644b84f,6291ce462717b102165d2698,,,,,,3,0,3,0,1,"X V Q F H G B L J M P D K C T S W R N Z
",,,,,,,,,,,,,,,,,,,,,,,,,,,,,,,,,,,,,,,,,,,,,,,,,,,,,,,,,,,,,,,,,,,,,,,,,,,,,,,,,,,,,,,,,,,,,
,,,,,,,,,5f6285720560ae1db06d599a,28,Mężczyzna,2022-05-28_09h30.03.426,task,2021.1.4,Win32,30.00120005,628b806c463b948bc644b84f,6291ce462717b102165d2698,,,,,,4,0,4,0,1,"X V Q F H G B L J M P D K C T S W R N Z
",,,,,,,,,,,,,,,,,,,,,,,,,,,,,,,,,,,,,,,,,,,,,,,,,,,,,,,,,,,,,,,,,,,,,,,,,,,,,,,,,,,,,,,,,,,,,
,,,,,,,,,5f6285720560ae1db06d599a,28,Mężczyzna,2022-05-28_09h30.03.426,task,2021.1.4,Win32,30.00120005,628b806c463b948bc644b84f,6291ce462717b102165d2698,,,,,,,,,,,,lvcpf,"[""l"",""v"",""c"",""p"",""f""]","[1.8234000000953756,2.023700000047654,2.396600000143053,2.6542999999522863,2.879900000095347,5.27220000004769]",1,LVCPF,9,0,9,0,1,,,,,,,,,,,,,,,,,,,,,,,,,,,,,,,,,,,,,,,,,,,,,,,,,,,,,,,,,,,,,,,,,,,,,,,,,,,,,,,,,,,
,,,,,,,,,5f6285720560ae1db06d599a,28,Mężczyzna,2022-05-28_09h30.03.426,task,2021.1.4,Win32,30.00120005,628b806c463b948bc644b84f,6291ce462717b102165d2698,,,,,,0,0,0,0,1,"X V Q F H G B L J M P D K C T S W R N Z
",,,,,,,,,,,,,,,,,,,,,,,,,,,,,,,,,,,,,,,,,,,,,,,,,,,,,,,,,,,,,,,,,,,,,,,,,,,,,,,,,,,,,,,,,,,,,
,,,,,,,,,5f6285720560ae1db06d599a,28,Mężczyzna,2022-05-28_09h30.03.426,task,2021.1.4,Win32,30.00120005,628b806c463b948bc644b84f,6291ce462717b102165d2698,,,,,,1,0,1,0,1,"X V Q F H G B L J M P D K C T S W R N Z
",,,,,,,,,,,,,,,,,,,,,,,,,,,,,,,,,,,,,,,,,,,,,,,,,,,,,,,,,,,,,,,,,,,,,,,,,,,,,,,,,,,,,,,,,,,,,
,,,,,,,,,5f6285720560ae1db06d599a,28,Mężczyzna,2022-05-28_09h30.03.426,task,2021.1.4,Win32,30.00120005,628b806c463b948bc644b84f,6291ce462717b102165d2698,,,,,,2,0,2,0,1,"X V Q F H G B L J M P D K C T S W R N Z
",,,,,,,,,,,,,,,,,,,,,,,,,,,,,,,,,,,,,,,,,,,,,,,,,,,,,,,,,,,,,,,,,,,,,,,,,,,,,,,,,,,,,,,,,,,,,
,,,,,,,,,5f6285720560ae1db06d599a,28,Mężczyzna,2022-05-28_09h30.03.426,task,2021.1.4,Win32,30.00120005,628b806c463b948bc644b84f,6291ce462717b102165d2698,,,,,,3,0,3,0,1,"X V Q F H G B L J M P D K C T S W R N Z
",,,,,,,,,,,,,,,,,,,,,,,,,,,,,,,,,,,,,,,,,,,,,,,,,,,,,,,,,,,,,,,,,,,,,,,,,,,,,,,,,,,,,,,,,,,,,
,,,,,,,,,5f6285720560ae1db06d599a,28,Mężczyzna,2022-05-28_09h30.03.426,task,2021.1.4,Win32,30.00120005,628b806c463b948bc644b84f,6291ce462717b102165d2698,,,,,,4,0,4,0,1,"X V Q F H G B L J M P D K C T S W R N Z
",,,,,,,,,,,,,,,,,,,,,,,,,,,,,,,,,,,,,,,,,,,,,,,,,,,,,,,,,,,,,,,,,,,,,,,,,,,,,,,,,,,,,,,,,,,,,
,,,,,,,,,5f6285720560ae1db06d599a,28,Mężczyzna,2022-05-28_09h30.03.426,task,2021.1.4,Win32,30.00120005,628b806c463b948bc644b84f,6291ce462717b102165d2698,,,,,,5,0,5,0,1,"X V Q F H G B L J M P D K C T S W R N Z
",,,,,,,,,,,,,,,,,,,,,,,,,,,,,,,,,,,,,,,,,,,,,,,,,,,,,,,,,,,,,,,,,,,,,,,,,,,,,,,,,,,,,,,,,,,,,
,,,,,,,,,5f6285720560ae1db06d599a,28,Mężczyzna,2022-05-28_09h30.03.426,task,2021.1.4,Win32,30.00120005,628b806c463b948bc644b84f,6291ce462717b102165d2698,,,,,,,,,,,,nxmrx,"[""n"",""x"",""m"",""r"",""x""]","[0.5762000000476633,1.5099000000953424,2.1446000001430434,2.328999999999951,4.180299999952297,24.208299999952317]",0,NXRMSJ,10,0,10,0,1,,,,,,,,,,,,,,,,,,,,,,,,,,,,,,,,,,,,,,,,,,,,,,,,,,,,,,,,,,,,,,,,,,,,,,,,,,,,,,,,,,,
,,,,,,,,,5f6285720560ae1db06d599a,28,Mężczyzna,2022-05-28_09h30.03.426,task,2021.1.4,Win32,30.00120005,628b806c463b948bc644b84f,6291ce462717b102165d2698,,,,,,0,0,0,0,1,"X V Q F H G B L J M P D K C T S W R N Z
",,,,,,,,,,,,,,,,,,,,,,,,,,,,,,,,,,,,,,,,,,,,,,,,,,,,,,,,,,,,,,,,,,,,,,,,,,,,,,,,,,,,,,,,,,,,,
,,,,,,,,,5f6285720560ae1db06d599a,28,Mężczyzna,2022-05-28_09h30.03.426,task,2021.1.4,Win32,30.00120005,628b806c463b948bc644b84f,6291ce462717b102165d2698,,,,,,1,0,1,0,1,"X V Q F H G B L J M P D K C T S W R N Z
",,,,,,,,,,,,,,,,,,,,,,,,,,,,,,,,,,,,,,,,,,,,,,,,,,,,,,,,,,,,,,,,,,,,,,,,,,,,,,,,,,,,,,,,,,,,,
,,,,,,,,,5f6285720560ae1db06d599a,28,Mężczyzna,2022-05-28_09h30.03.426,task,2021.1.4,Win32,30.00120005,628b806c463b948bc644b84f,6291ce462717b102165d2698,,,,,,2,0,2,0,1,"X V Q F H G B L J M P D K C T S W R N Z
",,,,,,,,,,,,,,,,,,,,,,,,,,,,,,,,,,,,,,,,,,,,,,,,,,,,,,,,,,,,,,,,,,,,,,,,,,,,,,,,,,,,,,,,,,,,,
,,,,,,,,,5f6285720560ae1db06d599a,28,Mężczyzna,2022-05-28_09h30.03.426,task,2021.1.4,Win32,30.00120005,628b806c463b948bc644b84f,6291ce462717b102165d2698,,,,,,3,0,3,0,1,"X V Q F H G B L J M P D K C T S W R N Z
",,,,,,,,,,,,,,,,,,,,,,,,,,,,,,,,,,,,,,,,,,,,,,,,,,,,,,,,,,,,,,,,,,,,,,,,,,,,,,,,,,,,,,,,,,,,,
,,,,,,,,,5f6285720560ae1db06d599a,28,Mężczyzna,2022-05-28_09h30.03.426,task,2021.1.4,Win32,30.00120005,628b806c463b948bc644b84f,6291ce462717b102165d2698,,,,,,4,0,4,0,1,"X V Q F H G B L J M P D K C T S W R N Z
",,,,,,,,,,,,,,,,,,,,,,,,,,,,,,,,,,,,,,,,,,,,,,,,,,,,,,,,,,,,,,,,,,,,,,,,,,,,,,,,,,,,,,,,,,,,,
,,,,,,,,,5f6285720560ae1db06d599a,28,Mężczyzna,2022-05-28_09h30.03.426,task,2021.1.4,Win32,30.00120005,628b806c463b948bc644b84f,6291ce462717b102165d2698,,,,,,5,0,5,0,1,"X V Q F H G B L J M P D K C T S W R N Z
",,,,,,,,,,,,,,,,,,,,,,,,,,,,,,,,,,,,,,,,,,,,,,,,,,,,,,,,,,,,,,,,,,,,,,,,,,,,,,,,,,,,,,,,,,,,,
,,,,,,,,,5f6285720560ae1db06d599a,28,Mężczyzna,2022-05-28_09h30.03.426,task,2021.1.4,Win32,30.00120005,628b806c463b948bc644b84f,6291ce462717b102165d2698,,,,,,,,,,,,mndkvk,"[""m"",""n"",""d"",""k"",""v"",""k""]","[0.7235000000000014,0.9569999999999936,1.2068000001906967,1.9155000000000086,2.2427000000476482,2.574700000047642,3.071700000047656]",1,MNDKVK,11,0,11,0,1,,,,,,,,,,,,,,,,,,,,,,,,,,,,,,,,,,,,,,,,,,,,,,,,,,,,,,,,,,,,,,,,,,,,,,,,,,,,,,,,,,,
,,,,,,,,,5f6285720560ae1db06d599a,28,Mężczyzna,2022-05-28_09h30.03.426,task,2021.1.4,Win32,30.00120005,628b806c463b948bc644b84f,6291ce462717b102165d2698,,,,,,0,0,0,0,1,"X V Q F H G B L J M P D K C T S W R N Z
",,,,,,,,,,,,,,,,,,,,,,,,,,,,,,,,,,,,,,,,,,,,,,,,,,,,,,,,,,,,,,,,,,,,,,,,,,,,,,,,,,,,,,,,,,,,,
,,,,,,,,,5f6285720560ae1db06d599a,28,Mężczyzna,2022-05-28_09h30.03.426,task,2021.1.4,Win32,30.00120005,628b806c463b948bc644b84f,6291ce462717b102165d2698,,,,,,1,0,1,0,1,"X V Q F H G B L J M P D K C T S W R N Z
",,,,,,,,,,,,,,,,,,,,,,,,,,,,,,,,,,,,,,,,,,,,,,,,,,,,,,,,,,,,,,,,,,,,,,,,,,,,,,,,,,,,,,,,,,,,,
,,,,,,,,,5f6285720560ae1db06d599a,28,Mężczyzna,2022-05-28_09h30.03.426,task,2021.1.4,Win32,30.00120005,628b806c463b948bc644b84f,6291ce462717b102165d2698,,,,,,2,0,2,0,1,"X V Q F H G B L J M P D K C T S W R N Z
",,,,,,,,,,,,,,,,,,,,,,,,,,,,,,,,,,,,,,,,,,,,,,,,,,,,,,,,,,,,,,,,,,,,,,,,,,,,,,,,,,,,,,,,,,,,,
,,,,,,,,,5f6285720560ae1db06d599a,28,Mężczyzna,2022-05-28_09h30.03.426,task,2021.1.4,Win32,30.00120005,628b806c463b948bc644b84f,6291ce462717b102165d2698,,,,,,3,0,3,0,1,"X V Q F H G B L J M P D K C T S W R N Z
",,,,,,,,,,,,,,,,,,,,,,,,,,,,,,,,,,,,,,,,,,,,,,,,,,,,,,,,,,,,,,,,,,,,,,,,,,,,,,,,,,,,,,,,,,,,,
,,,,,,,,,5f6285720560ae1db06d599a,28,Mężczyzna,2022-05-28_09h30.03.426,task,2021.1.4,Win32,30.00120005,628b806c463b948bc644b84f,6291ce462717b102165d2698,,,,,,4,0,4,0,1,"X V Q F H G B L J M P D K C T S W R N Z
",,,,,,,,,,,,,,,,,,,,,,,,,,,,,,,,,,,,,,,,,,,,,,,,,,,,,,,,,,,,,,,,,,,,,,,,,,,,,,,,,,,,,,,,,,,,,
,,,,,,,,,5f6285720560ae1db06d599a,28,Mężczyzna,2022-05-28_09h30.03.426,task,2021.1.4,Win32,30.00120005,628b806c463b948bc644b84f,6291ce462717b102165d2698,,,,,,5,0,5,0,1,"X V Q F H G B L J M P D K C T S W R N Z
",,,,,,,,,,,,,,,,,,,,,,,,,,,,,,,,,,,,,,,,,,,,,,,,,,,,,,,,,,,,,,,,,,,,,,,,,,,,,,,,,,,,,,,,,,,,,
,,,,,,,,,5f6285720560ae1db06d599a,28,Mężczyzna,2022-05-28_09h30.03.426,task,2021.1.4,Win32,30.00120005,628b806c463b948bc644b84f,6291ce462717b102165d2698,,,,,,,,,,,,bngkhg,"[""b"",""n"",""g"",""k"",""h"",""g""]","[0.6281000001430357,0.8084000000953324,1.3716000001430189,1.8324000000953333,2.1232999999522804,3.1887000000476746,3.539100000143037]",0,BNGKHC,12,0,12,0,1,,,,,,,,,,,,,,,,,,,,,,,,,,,,,,,,,,,,,,,,,,,,,,,,,,,,,,,,,,,,,,,,,,,,,,,,,,,,,,,,,,,
,,,,,,,,,5f6285720560ae1db06d599a,28,Mężczyzna,2022-05-28_09h30.03.426,task,2021.1.4,Win32,30.00120005,628b806c463b948bc644b84f,6291ce462717b102165d2698,,,,,,0,0,0,0,1,"X V Q F H G B L J M P D K C T S W R N Z
",,,,,,,,,,,,,,,,,,,,,,,,,,,,,,,,,,,,,,,,,,,,,,,,,,,,,,,,,,,,,,,,,,,,,,,,,,,,,,,,,,,,,,,,,,,,,
,,,,,,,,,5f6285720560ae1db06d599a,28,Mężczyzna,2022-05-28_09h30.03.426,task,2021.1.4,Win32,30.00120005,628b806c463b948bc644b84f,6291ce462717b102165d2698,,,,,,1,0,1,0,1,"X V Q F H G B L J M P D K C T S W R N Z
",,,,,,,,,,,,,,,,,,,,,,,,,,,,,,,,,,,,,,,,,,,,,,,,,,,,,,,,,,,,,,,,,,,,,,,,,,,,,,,,,,,,,,,,,,,,,
,,,,,,,,,5f6285720560ae1db06d599a,28,Mężczyzna,2022-05-28_09h30.03.426,task,2021.1.4,Win32,30.00120005,628b806c463b948bc644b84f,6291ce462717b102165d2698,,,,,,2,0,2,0,1,"X V Q F H G B L J M P D K C T S W R N Z
",,,,,,,,,,,,,,,,,,,,,,,,,,,,,,,,,,,,,,,,,,,,,,,,,,,,,,,,,,,,,,,,,,,,,,,,,,,,,,,,,,,,,,,,,,,,,
,,,,,,,,,5f6285720560ae1db06d599a,28,Mężczyzna,2022-05-28_09h30.03.426,task,2021.1.4,Win32,30.00120005,628b806c463b948bc644b84f,6291ce462717b102165d2698,,,,,,3,0,3,0,1,"X V Q F H G B L J M P D K C T S W R N Z
",,,,,,,,,,,,,,,,,,,,,,,,,,,,,,,,,,,,,,,,,,,,,,,,,,,,,,,,,,,,,,,,,,,,,,,,,,,,,,,,,,,,,,,,,,,,,
,,,,,,,,,5f6285720560ae1db06d599a,28,Mężczyzna,2022-05-28_09h30.03.426,task,2021.1.4,Win32,30.00120005,628b806c463b948bc644b84f,6291ce462717b102165d2698,,,,,,4,0,4,0,1,"X V Q F H G B L J M P D K C T S W R N Z
",,,,,,,,,,,,,,,,,,,,,,,,,,,,,,,,,,,,,,,,,,,,,,,,,,,,,,,,,,,,,,,,,,,,,,,,,,,,,,,,,,,,,,,,,,,,,
,,,,,,,,,5f6285720560ae1db06d599a,28,Mężczyzna,2022-05-28_09h30.03.426,task,2021.1.4,Win32,30.00120005,628b806c463b948bc644b84f,6291ce462717b102165d2698,,,,,,5,0,5,0,1,"X V Q F H G B L J M P D K C T S W R N Z
",,,,,,,,,,,,,,,,,,,,,,,,,,,,,,,,,,,,,,,,,,,,,,,,,,,,,,,,,,,,,,,,,,,,,,,,,,,,,,,,,,,,,,,,,,,,,
,,,,,,,,,5f6285720560ae1db06d599a,28,Mężczyzna,2022-05-28_09h30.03.426,task,2021.1.4,Win32,30.00120005,628b806c463b948bc644b84f,6291ce462717b102165d2698,,,,,,,,,,,,qqbxdp,"[""q"",""q"",""b"",""x"",""d"",""p""]","[0.7133999998569607,0.877099999904658,1.1233999998569857,1.3973999998569866,1.946099999904618,2.14029999995239,2.5482999999522917]",1,QQBXDP,13,0,13,0,1,,,,,,,,,,,,,,,,,,,,,,,,,,,,,,,,,,,,,,,,,,,,,,,,,,,,,,,,,,,,,,,,,,,,,,,,,,,,,,,,,,,
,,,,,,,,,5f6285720560ae1db06d599a,28,Mężczyzna,2022-05-28_09h30.03.426,task,2021.1.4,Win32,30.00120005,628b806c463b948bc644b84f,6291ce462717b102165d2698,,,,,,0,0,0,0,1,"X V Q F H G B L J M P D K C T S W R N Z
",,,,,,,,,,,,,,,,,,,,,,,,,,,,,,,,,,,,,,,,,,,,,,,,,,,,,,,,,,,,,,,,,,,,,,,,,,,,,,,,,,,,,,,,,,,,,
,,,,,,,,,5f6285720560ae1db06d599a,28,Mężczyzna,2022-05-28_09h30.03.426,task,2021.1.4,Win32,30.00120005,628b806c463b948bc644b84f,6291ce462717b102165d2698,,,,,,1,0,1,0,1,"X V Q F H G B L J M P D K C T S W R N Z
",,,,,,,,,,,,,,,,,,,,,,,,,,,,,,,,,,,,,,,,,,,,,,,,,,,,,,,,,,,,,,,,,,,,,,,,,,,,,,,,,,,,,,,,,,,,,
,,,,,,,,,5f6285720560ae1db06d599a,28,Mężczyzna,2022-05-28_09h30.03.426,task,2021.1.4,Win32,30.00120005,628b806c463b948bc644b84f,6291ce462717b102165d2698,,,,,,2,0,2,0,1,"X V Q F H G B L J M P D K C T S W R N Z
",,,,,,,,,,,,,,,,,,,,,,,,,,,,,,,,,,,,,,,,,,,,,,,,,,,,,,,,,,,,,,,,,,,,,,,,,,,,,,,,,,,,,,,,,,,,,
,,,,,,,,,5f6285720560ae1db06d599a,28,Mężczyzna,2022-05-28_09h30.03.426,task,2021.1.4,Win32,30.00120005,628b806c463b948bc644b84f,6291ce462717b102165d2698,,,,,,3,0,3,0,1,"X V Q F H G B L J M P D K C T S W R N Z
",,,,,,,,,,,,,,,,,,,,,,,,,,,,,,,,,,,,,,,,,,,,,,,,,,,,,,,,,,,,,,,,,,,,,,,,,,,,,,,,,,,,,,,,,,,,,
,,,,,,,,,5f6285720560ae1db06d599a,28,Mężczyzna,2022-05-28_09h30.03.426,task,2021.1.4,Win32,30.00120005,628b806c463b948bc644b84f,6291ce462717b102165d2698,,,,,,4,0,4,0,1,"X V Q F H G B L J M P D K C T S W R N Z
",,,,,,,,,,,,,,,,,,,,,,,,,,,,,,,,,,,,,,,,,,,,,,,,,,,,,,,,,,,,,,,,,,,,,,,,,,,,,,,,,,,,,,,,,,,,,
,,,,,,,,,5f6285720560ae1db06d599a,28,Mężczyzna,2022-05-28_09h30.03.426,task,2021.1.4,Win32,30.00120005,628b806c463b948bc644b84f,6291ce462717b102165d2698,,,,,,5,0,5,0,1,"X V Q F H G B L J M P D K C T S W R N Z
",,,,,,,,,,,,,,,,,,,,,,,,,,,,,,,,,,,,,,,,,,,,,,,,,,,,,,,,,,,,,,,,,,,,,,,,,,,,,,,,,,,,,,,,,,,,,
,,,,,,,,,5f6285720560ae1db06d599a,28,Mężczyzna,2022-05-28_09h30.03.426,task,2021.1.4,Win32,30.00120005,628b806c463b948bc644b84f,6291ce462717b102165d2698,,,,,,6,0,6,0,1,"X V Q F H G B L J M P D K C T S W R N Z
",,,,,,,,,,,,,,,,,,,,,,,,,,,,,,,,,,,,,,,,,,,,,,,,,,,,,,,,,,,,,,,,,,,,,,,,,,,,,,,,,,,,,,,,,,,,,
,,,,,,,,,5f6285720560ae1db06d599a,28,Mężczyzna,2022-05-28_09h30.03.426,task,2021.1.4,Win32,30.00120005,628b806c463b948bc644b84f,6291ce462717b102165d2698,,,,,,,,,,,,rzqxcq,"[""r"",""z"",""q"",""x"",""c"",""q""]","[1.3417000000476946,1.5556000001430448,1.8252000000477437,2.19340000009538,4.347700000047666,4.62280000019075,4.901000000000067]",0,"RZ
QXGJW",14,0,14,0,1,,,,,,,,,,,,,,,,,,,,,,,,,,,,,,,,,,,,,,,,,,,,,,,,,,,,,,,,,,,,,,,,,,,,,,,,,,,,,,,,,,,
,,,,,,,,,5f6285720560ae1db06d599a,28,Mężczyzna,2022-05-28_09h30.03.426,task,2021.1.4,Win32,30.00120005,628b806c463b948bc644b84f,6291ce462717b102165d2698,,,,,,0,0,0,0,1,"X V Q F H G B L J M P D K C T S W R N Z
",,,,,,,,,,,,,,,,,,,,,,,,,,,,,,,,,,,,,,,,,,,,,,,,,,,,,,,,,,,,,,,,,,,,,,,,,,,,,,,,,,,,,,,,,,,,,
,,,,,,,,,5f6285720560ae1db06d599a,28,Mężczyzna,2022-05-28_09h30.03.426,task,2021.1.4,Win32,30.00120005,628b806c463b948bc644b84f,6291ce462717b102165d2698,,,,,,1,0,1,0,1,"X V Q F H G B L J M P D K C T S W R N Z
",,,,,,,,,,,,,,,,,,,,,,,,,,,,,,,,,,,,,,,,,,,,,,,,,,,,,,,,,,,,,,,,,,,,,,,,,,,,,,,,,,,,,,,,,,,,,
,,,,,,,,,5f6285720560ae1db06d599a,28,Mężczyzna,2022-05-28_09h30.03.426,task,2021.1.4,Win32,30.00120005,628b806c463b948bc644b84f,6291ce462717b102165d2698,,,,,,2,0,2,0,1,"X V Q F H G B L J M P D K C T S W R N Z
",,,,,,,,,,,,,,,,,,,,,,,,,,,,,,,,,,,,,,,,,,,,,,,,,,,,,,,,,,,,,,,,,,,,,,,,,,,,,,,,,,,,,,,,,,,,,
,,,,,,,,,5f6285720560ae1db06d599a,28,Mężczyzna,2022-05-28_09h30.03.426,task,2021.1.4,Win32,30.00120005,628b806c463b948bc644b84f,6291ce462717b102165d2698,,,,,,3,0,3,0,1,"X V Q F H G B L J M P D K C T S W R N Z
",,,,,,,,,,,,,,,,,,,,,,,,,,,,,,,,,,,,,,,,,,,,,,,,,,,,,,,,,,,,,,,,,,,,,,,,,,,,,,,,,,,,,,,,,,,,,
,,,,,,,,,5f6285720560ae1db06d599a,28,Mężczyzna,2022-05-28_09h30.03.426,task,2021.1.4,Win32,30.00120005,628b806c463b948bc644b84f,6291ce462717b102165d2698,,,,,,4,0,4,0,1,"X V Q F H G B L J M P D K C T S W R N Z
",,,,,,,,,,,,,,,,,,,,,,,,,,,,,,,,,,,,,,,,,,,,,,,,,,,,,,,,,,,,,,,,,,,,,,,,,,,,,,,,,,,,,,,,,,,,,
,,,,,,,,,5f6285720560ae1db06d599a,28,Mężczyzna,2022-05-28_09h30.03.426,task,2021.1.4,Win32,30.00120005,628b806c463b948bc644b84f,6291ce462717b102165d2698,,,,,,5,0,5,0,1,"X V Q F H G B L J M P D K C T S W R N Z
",,,,,,,,,,,,,,,,,,,,,,,,,,,,,,,,,,,,,,,,,,,,,,,,,,,,,,,,,,,,,,,,,,,,,,,,,,,,,,,,,,,,,,,,,,,,,
,,,,,,,,,5f6285720560ae1db06d599a,28,Mężczyzna,2022-05-28_09h30.03.426,task,2021.1.4,Win32,30.00120005,628b806c463b948bc644b84f,6291ce462717b102165d2698,,,,,,6,0,6,0,1,"X V Q F H G B L J M P D K C T S W R N Z
",,,,,,,,,,,,,,,,,,,,,,,,,,,,,,,,,,,,,,,,,,,,,,,,,,,,,,,,,,,,,,,,,,,,,,,,,,,,,,,,,,,,,,,,,,,,,
,,,,,,,,,5f6285720560ae1db06d599a,28,Mężczyzna,2022-05-28_09h30.03.426,task,2021.1.4,Win32,30.00120005,628b806c463b948bc644b84f,6291ce462717b102165d2698,,,,,,,,,,,,gpngpcr,"[""g"",""p"",""n"",""g"",""p"",""c"",""r""]","[0.44329999995227354,0.654099999904588,0.9207999999523508,1.3889000000954184,1.6732000000477,2.0940999999046426,2.620400000095401,2.9620999999045807]",0,GPNGCFR,15,0,15,0,1,,,,,,,,,,,,,,,,,,,,,,,,,,,,,,,,,,,,,,,,,,,,,,,,,,,,,,,,,,,,,,,,,,,,,,,,,,,,,,,,,,,
,,,,,,,,,5f6285720560ae1db06d599a,28,Mężczyzna,2022-05-28_09h30.03.426,task,2021.1.4,Win32,30.00120005,628b806c463b948bc644b84f,6291ce462717b102165d2698,,,,,,0,0,0,0,1,"X V Q F H G B L J M P D K C T S W R N Z
",,,,,,,,,,,,,,,,,,,,,,,,,,,,,,,,,,,,,,,,,,,,,,,,,,,,,,,,,,,,,,,,,,,,,,,,,,,,,,,,,,,,,,,,,,,,,
,,,,,,,,,5f6285720560ae1db06d599a,28,Mężczyzna,2022-05-28_09h30.03.426,task,2021.1.4,Win32,30.00120005,628b806c463b948bc644b84f,6291ce462717b102165d2698,,,,,,1,0,1,0,1,"X V Q F H G B L J M P D K C T S W R N Z
",,,,,,,,,,,,,,,,,,,,,,,,,,,,,,,,,,,,,,,,,,,,,,,,,,,,,,,,,,,,,,,,,,,,,,,,,,,,,,,,,,,,,,,,,,,,,
,,,,,,,,,5f6285720560ae1db06d599a,28,Mężczyzna,2022-05-28_09h30.03.426,task,2021.1.4,Win32,30.00120005,628b806c463b948bc644b84f,6291ce462717b102165d2698,,,,,,2,0,2,0,1,"X V Q F H G B L J M P D K C T S W R N Z
",,,,,,,,,,,,,,,,,,,,,,,,,,,,,,,,,,,,,,,,,,,,,,,,,,,,,,,,,,,,,,,,,,,,,,,,,,,,,,,,,,,,,,,,,,,,,
,,,,,,,,,5f6285720560ae1db06d599a,28,Mężczyzna,2022-05-28_09h30.03.426,task,2021.1.4,Win32,30.00120005,628b806c463b948bc644b84f,6291ce462717b102165d2698,,,,,,3,0,3,0,1,"X V Q F H G B L J M P D K C T S W R N Z
",,,,,,,,,,,,,,,,,,,,,,,,,,,,,,,,,,,,,,,,,,,,,,,,,,,,,,,,,,,,,,,,,,,,,,,,,,,,,,,,,,,,,,,,,,,,,
,,,,,,,,,5f6285720560ae1db06d599a,28,Mężczyzna,2022-05-28_09h30.03.426,task,2021.1.4,Win32,30.00120005,628b806c463b948bc644b84f,6291ce462717b102165d2698,,,,,,4,0,4,0,1,"X V Q F H G B L J M P D K C T S W R N Z
",,,,,,,,,,,,,,,,,,,,,,,,,,,,,,,,,,,,,,,,,,,,,,,,,,,,,,,,,,,,,,,,,,,,,,,,,,,,,,,,,,,,,,,,,,,,,
,,,,,,,,,5f6285720560ae1db06d599a,28,Mężczyzna,2022-05-28_09h30.03.426,task,2021.1.4,Win32,30.00120005,628b806c463b948bc644b84f,6291ce462717b102165d2698,,,,,,5,0,5,0,1,"X V Q F H G B L J M P D K C T S W R N Z
",,,,,,,,,,,,,,,,,,,,,,,,,,,,,,,,,,,,,,,,,,,,,,,,,,,,,,,,,,,,,,,,,,,,,,,,,,,,,,,,,,,,,,,,,,,,,
,,,,,,,,,5f6285720560ae1db06d599a,28,Mężczyzna,2022-05-28_09h30.03.426,task,2021.1.4,Win32,30.00120005,628b806c463b948bc644b84f,6291ce462717b102165d2698,,,,,,6,0,6,0,1,"X V Q F H G B L J M P D K C T S W R N Z
",,,,,,,,,,,,,,,,,,,,,,,,,,,,,,,,,,,,,,,,,,,,,,,,,,,,,,,,,,,,,,,,,,,,,,,,,,,,,,,,,,,,,,,,,,,,,
,,,,,,,,,5f6285720560ae1db06d599a,28,Mężczyzna,2022-05-28_09h30.03.426,task,2021.1.4,Win32,30.00120005,628b806c463b948bc644b84f,6291ce462717b102165d2698,,,,,,,,,,,,thwkgj,"[""t"",""h"",""w"",""k"",""g"",""j""]","[0.6141000001431394,0.8266000001431166,1.2214000000954002,1.5379000000954193,2.9482000000476773,3.1939000000953683,3.5421000001431366]",0,THWKTGJ,16,0,16,0,1,,,,,,,,,,,,,,,,,,,,,,,,,,,,,,,,,,,,,,,,,,,,,,,,,,,,,,,,,,,,,,,,,,,,,,,,,,,,,,,,,,,
,,,,,,,,,5f6285720560ae1db06d599a,28,Mężczyzna,2022-05-28_09h30.03.426,task,2021.1.4,Win32,30.00120005,628b806c463b948bc644b84f,6291ce462717b102165d2698,,,,,,,,,,,,,,,,,,,,,,space,8.726,1,"[""1""]",1,[14.364500000000021],[14.364500000000021],0,0,0,1,1,Practice,2,(4x4) - 15,1,,,,,,,,,,,,,,,,,,,,,,,,,,,,,,,,,,,,,,,,,,,,,,,,,,,,,,,,,,,,,,,,,,,
,,,,,,,,,5f6285720560ae1db06d599a,28,Mężczyzna,2022-05-28_09h30.03.426,task,2021.1.4,Win32,30.00120005,628b806c463b948bc644b84f,6291ce462717b102165d2698,,,,,,,,,,,,,,,,,,,,,,,,2,"[""2""]",1,[5.671700000047736],"[14.364500000000021,5.671700000047736]",0,1,1,2,1,Practice,3,(4x4) - 14,2,,,,,,,,,,,,,,,,,,,,,,,,,,,,,,,,,,,,,,,,,,,,,,,,,,,,,,,,,,,,,,,,,,,
,,,,,,,,,5f6285720560ae1db06d599a,28,Mężczyzna,2022-05-28_09h30.03.426,task,2021.1.4,Win32,30.00120005,628b806c463b948bc644b84f,6291ce462717b102165d2698,,,,,,,,,,,,,,,,,,,,,,,,6,"[""6""]",1,[5.803799999952275],"[14.364500000000021,5.671700000047736,5.803799999952275]",0,2,2,6,1,Practice,7,(25/5) + 1,6,,,,,,,,,,,,,,,,,,,,,,,,,,,,,,,,,,,,,,,,,,,,,,,,,,,,,,,,,,,,,,,,,,,
,,,,,,,,,5f6285720560ae1db06d599a,28,Mężczyzna,2022-05-28_09h30.03.426,task,2021.1.4,Win32,30.00120005,628b806c463b948bc644b84f,6291ce462717b102165d2698,,,,,,,,,,,,,,,,,,,,,,,,7,"[""7""]",1,[7.0424000000954265],"[14.364500000000021,5.671700000047736,5.803799999952275,7.0424000000954265]",0,3,3,7,1,Practice,8,(5x5) - 18,7,,,,,,,,,,,,,,,,,,,,,,,,,,,,,,,,,,,,,,,,,,,,,,,,,,,,,,,,,,,,,,,,,,,
,,,,,,,,,5f6285720560ae1db06d599a,28,Mężczyzna,2022-05-28_09h30.03.426,task,2021.1.4,Win32,30.00120005,628b806c463b948bc644b84f,6291ce462717b102165d2698,,,,,,,,,,,,,,,,,,,,,,,,0,"[""0""]",1,[3.9915999999045653],"[14.364500000000021,5.671700000047736,5.803799999952275,7.0424000000954265,3.9915999999045653]",0,4,4,0,1,Practice,1,(3x3) -  9,0,,,,,,,,,,,,,,,,,,,,,,,,,,,,,,,,,,,,,,,,,,,,,,,,,,,,,,,,,,,,,,,,,,,
,,,,,,,,,5f6285720560ae1db06d599a,28,Mężczyzna,2022-05-28_09h30.03.426,task,2021.1.4,Win32,30.00120005,628b806c463b948bc644b84f,6291ce462717b102165d2698,,,,,,,,,,,,,,,,,,,,,,,,3,"[""3""]",1,[6.337099999904581],"[14.364500000000021,5.671700000047736,5.803799999952275,7.0424000000954265,3.9915999999045653,6.337099999904581]",0,5,5,3,1,Practice,4,(8/4) + 1,3,,,,,,,,,,,,,,,,,,,,,,,,,,,,,,,,,,,,,,,,,,,,,,,,,,,,,,,,,,,,,,,,,,,
,,,,,,,,,5f6285720560ae1db06d599a,28,Mężczyzna,2022-05-28_09h30.03.426,task,2021.1.4,Win32,30.00120005,628b806c463b948bc644b84f,6291ce462717b102165d2698,,,,,,,,,,,,,,,,,,,,,,,,8,"[""8""]",1,[4.270700000047668],"[14.364500000000021,5.671700000047736,5.803799999952275,7.0424000000954265,3.9915999999045653,6.337099999904581,4.270700000047668]",0,6,6,8,1,Practice,9,(3x3) - 1,8,,,,,,,,,,,,,,,,,,,,,,,,,,,,,,,,,,,,,,,,,,,,,,,,,,,,,,,,,,,,,,,,,,,
,,,,,,,,,5f6285720560ae1db06d599a,28,Mężczyzna,2022-05-28_09h30.03.426,task,2021.1.4,Win32,30.00120005,628b806c463b948bc644b84f,6291ce462717b102165d2698,,,,,,,,,,,,,,,,,,,,,,,,5,"[""5""]",1,[4.258500000000026],"[14.364500000000021,5.671700000047736,5.803799999952275,7.0424000000954265,3.9915999999045653,6.337099999904581,4.270700000047668,4.258500000000026]",0,7,7,5,1,Practice,6,(4/2) + 3,5,,,,,,,,,,,,,,,,,,,,,,,,,,,,,,,,,,,,,,,,,,,,,,,,,,,,,,,,,,,,,,,,,,,
,,,,,,,,,5f6285720560ae1db06d599a,28,Mężczyzna,2022-05-28_09h30.03.426,task,2021.1.4,Win32,30.00120005,628b806c463b948bc644b84f,6291ce462717b102165d2698,,,,,,,,,,,,,,,,,,,,,,,,9,"[""9""]",1,[2.573799999952257],"[14.364500000000021,5.671700000047736,5.803799999952275,7.0424000000954265,3.9915999999045653,6.337099999904581,4.270700000047668,4.258500000000026,2.573799999952257]",0,8,8,9,1,Practice,10,(20/2) - 1,9,,,,,,,,,,,,,,,,,,,,,,,,,,,,,,,,,,,,,,,,,,,,,,,,,,,,,,,,,,,,,,,,,,,
,,,,,,,,,5f6285720560ae1db06d599a,28,Mężczyzna,2022-05-28_09h30.03.426,task,2021.1.4,Win32,30.00120005,628b806c463b948bc644b84f,6291ce462717b102165d2698,,,,,,,,,,,,,,,,,,,,,,,,4,"[""4""]",1,[4.697999999999979],"[14.364500000000021,5.671700000047736,5.803799999952275,7.0424000000954265,3.9915999999045653,6.337099999904581,4.270700000047668,4.258500000000026,2.573799999952257,4.697999999999979]",0,9,9,4,1,Practice,5,(2x6) - 8,4,,,,,,,,,,,,,,,,,,,,,,,,,,,,,,,,,,,,,,,,,,,,,,,,,,,,,,,,,,,,,,,,,,,
,,,,,,,,,5f6285720560ae1db06d599a,28,Mężczyzna,2022-05-28_09h30.03.426,task,2021.1.4,Win32,30.00120005,628b806c463b948bc644b84f,6291ce462717b102165d2698,,,,,,,,,,,,,,,,,,,,,,,,,,,,,,,,,,,,,,1,59.0121,3.93414,133.3984407,2.982151804,11.62809165,space,3.3059,0,0,0,0,1,,,,,,,,,,,,,,,,,,,,,,,,,,,,,,,,,,,,,,,,,,,,,,,,,,,,,,
,,,,,,,,,5f6285720560ae1db06d599a,28,Mężczyzna,2022-05-28_09h30.03.426,task,2021.1.4,Win32,30.00120005,628b806c463b948bc644b84f,6291ce462717b102165d2698,,,,,,,,,,,,,,,,,,,,,,,,2,,,,,,,,,,Practice,3,(4x4) - 14,2,,,,,,,,,,,,,,space,13.6084,"[""2""]",1,[6.3700000000000045],1,0,0,0,2,1,,,,,,,,,,,,,,,,,,,,,,,,,,,,,,,,,,,,,,,,,,,
,,,,,,,,,5f6285720560ae1db06d599a,28,Mężczyzna,2022-05-28_09h30.03.426,task,2021.1.4,Win32,30.00120005,628b806c463b948bc644b84f,6291ce462717b102165d2698,,,,,,,,,,,"X V Q F H G B L J M P D K C T S W R N Z
",,,,,,,,,,,,,,,,,,,,,,,,,,,,,,,,,,,,,,,,,,,,,,,,,,,0,0,0,0,1,,,,,,,,,,,,,,,,,,,,,,,,,,,,,,,,,,,,,,
,,,,,,,,,5f6285720560ae1db06d599a,28,Mężczyzna,2022-05-28_09h30.03.426,task,2021.1.4,Win32,30.00120005,628b806c463b948bc644b84f,6291ce462717b102165d2698,,,,,,,,,,,,,,,,,,,,,,,,0,,,,,,,,,,Practice,1,(3x3) -  9,0,,,,,,,,,,,,,,,,"[""0""]",1,[3.236600000143085],1,0,0,0,0,1,,,,,,,,,,,,,,,,,,,,,,,,,,,,,,,,,,,,,,,,,,,
,,,,,,,,,5f6285720560ae1db06d599a,28,Mężczyzna,2022-05-28_09h30.03.426,task,2021.1.4,Win32,30.00120005,628b806c463b948bc644b84f,6291ce462717b102165d2698,,,,,,,,,,,"X V Q F H G B L J M P D K C T S W R N Z
",,,,,,,,,,,,,,,,,,,,,,,,,,,,,,,,,,,,,,,,,,,,,,,,,,,1,0,1,0,1,,,,,,,,,,,,,,,,,,,,,,,,,,,,,,,,,,,,,,
,,,,,,,,,5f6285720560ae1db06d599a,28,Mężczyzna,2022-05-28_09h30.03.426,task,2021.1.4,Win32,30.00120005,628b806c463b948bc644b84f,6291ce462717b102165d2698,,,,,,,,,,,,,,,,,,,,,,,,,,,,,,,,,,,,,,,,,,,,,,,,,,,,,,,,,,,,,,,,,,,zz,"[""z"",""z""]",0,"[1.9686000001430557,2.438600000143083,2.8534000000953483]",0,0,0,0,0,1,,,,,,,,,,,,,,,,,,,,,,,,,,,,
,,,,,,,,,5f6285720560ae1db06d599a,28,Mężczyzna,2022-05-28_09h30.03.426,task,2021.1.4,Win32,30.00120005,628b806c463b948bc644b84f,6291ce462717b102165d2698,,,,,,,,,,,,,,,,,,,,,,,,0,,,,,,,,,,Practice,1,(3x3) -  9,0,,,,,,,,,,,,,,,,"[""0""]",1,[2.8379999999999654],1,0,0,0,0,1,,,,,,,,,,,,,,,,,,,,,,,,,,,,,,,,,,,,,,,,,,,
,,,,,,,,,5f6285720560ae1db06d599a,28,Mężczyzna,2022-05-28_09h30.03.426,task,2021.1.4,Win32,30.00120005,628b806c463b948bc644b84f,6291ce462717b102165d2698,,,,,,,,,,,"X V Q F H G B L J M P D K C T S W R N Z
",,,,,,,,,,,,,,,,,,,,,,,,,,,,,,,,,,,,,,,,,,,,,,,,,,,0,0,0,0,1,,,,,,,,,,,,,,,,,,,,,,,,,,,,,,,,,,,,,,
,,,,,,,,,5f6285720560ae1db06d599a,28,Mężczyzna,2022-05-28_09h30.03.426,task,2021.1.4,Win32,30.00120005,628b806c463b948bc644b84f,6291ce462717b102165d2698,,,,,,,,,,,,,,,,,,,,,,,,3,,,,,,,,,,Practice,4,(8/4) + 1,3,,,,,,,,,,,,,,,,"[""3""]",1,[2.694399999856955],1,0,0,0,3,1,,,,,,,,,,,,,,,,,,,,,,,,,,,,,,,,,,,,,,,,,,,
,,,,,,,,,5f6285720560ae1db06d599a,28,Mężczyzna,2022-05-28_09h30.03.426,task,2021.1.4,Win32,30.00120005,628b806c463b948bc644b84f,6291ce462717b102165d2698,,,,,,,,,,,"X V Q F H G B L J M P D K C T S W R N Z
",,,,,,,,,,,,,,,,,,,,,,,,,,,,,,,,,,,,,,,,,,,,,,,,,,,1,0,1,0,1,,,,,,,,,,,,,,,,,,,,,,,,,,,,,,,,,,,,,,
,,,,,,,,,5f6285720560ae1db06d599a,28,Mężczyzna,2022-05-28_09h30.03.426,task,2021.1.4,Win32,30.00120005,628b806c463b948bc644b84f,6291ce462717b102165d2698,,,,,,,,,,,,,,,,,,,,,,,,,,,,,,,,,,,,,,,,,,,,,,,,,,,,,,,,,,,,,,,,,,,vt,"[""v"",""t""]",0,"[1.049299999952268,1.455500000000029,1.9389000000953729]",1,1,0,1,0,1,,,,,,,,,,,,,,,,,,,,,,,,,,,,
,,,,,,,,,5f6285720560ae1db06d599a,28,Mężczyzna,2022-05-28_09h30.03.426,task,2021.1.4,Win32,30.00120005,628b806c463b948bc644b84f,6291ce462717b102165d2698,,,,,,,,,,,,,,,,,,,,,,,,7,,,,,,,,,,Practice,8,(5x5) - 18,7,,,,,,,,,,,,,,,,"[""7""]",1,[8.49160000014308],1,0,0,0,7,1,,,,,,,,,,,,,,,,,,,,,,,,,,,,,,,,,,,,,,,,,,,
,,,,,,,,,5f6285720560ae1db06d599a,28,Mężczyzna,2022-05-28_09h30.03.426,task,2021.1.4,Win32,30.00120005,628b806c463b948bc644b84f,6291ce462717b102165d2698,,,,,,,,,,,"X V Q F H G B L J M P D K C T S W R N Z
",,,,,,,,,,,,,,,,,,,,,,,,,,,,,,,,,,,,,,,,,,,,,,,,,,,0,0,0,0,1,,,,,,,,,,,,,,,,,,,,,,,,,,,,,,,,,,,,,,
,,,,,,,,,5f6285720560ae1db06d599a,28,Mężczyzna,2022-05-28_09h30.03.426,task,2021.1.4,Win32,30.00120005,628b806c463b948bc644b84f,6291ce462717b102165d2698,,,,,,,,,,,,,,,,,,,,,,,,9,,,,,,,,,,Practice,10,(20/2) - 1,9,,,,,,,,,,,,,,,,"[""9""]",1,[1.7905999999046571],1,0,0,0,9,1,,,,,,,,,,,,,,,,,,,,,,,,,,,,,,,,,,,,,,,,,,,
,,,,,,,,,5f6285720560ae1db06d599a,28,Mężczyzna,2022-05-28_09h30.03.426,task,2021.1.4,Win32,30.00120005,628b806c463b948bc644b84f,6291ce462717b102165d2698,,,,,,,,,,,"X V Q F H G B L J M P D K C T S W R N Z
",,,,,,,,,,,,,,,,,,,,,,,,,,,,,,,,,,,,,,,,,,,,,,,,,,,1,0,1,0,1,,,,,,,,,,,,,,,,,,,,,,,,,,,,,,,,,,,,,,
,,,,,,,,,5f6285720560ae1db06d599a,28,Mężczyzna,2022-05-28_09h30.03.426,task,2021.1.4,Win32,30.00120005,628b806c463b948bc644b84f,6291ce462717b102165d2698,,,,,,,,,,,,,,,,,,,,,,,,,,,,,,,,,,,,,,,,,,,,,,,,,,,,,,,,,,,,,,,,,,,nw,"[""n"",""w""]",0,"[1.0810000000000173,1.4414000000954275,2.3425000000000864]",1,2,0,2,0,1,,,,,,,,,,,,,,,,,,,,,,,,,,,,
,,,,,,,,,5f6285720560ae1db06d599a,28,Mężczyzna,2022-05-28_09h30.03.426,task,2021.1.4,Win32,30.00120005,628b806c463b948bc644b84f,6291ce462717b102165d2698,,,,,,,,,,,,,,,,,,,,,,,,4,,,,,,,,,,Practice,5,(2x6) - 8,4,,,,,,,,,,,,,,,,"[""4""]",1,[2.894099999904711],1,0,0,0,4,1,,,,,,,,,,,,,,,,,,,,,,,,,,,,,,,,,,,,,,,,,,,
,,,,,,,,,5f6285720560ae1db06d599a,28,Mężczyzna,2022-05-28_09h30.03.426,task,2021.1.4,Win32,30.00120005,628b806c463b948bc644b84f,6291ce462717b102165d2698,,,,,,,,,,,"X V Q F H G B L J M P D K C T S W R N Z
",,,,,,,,,,,,,,,,,,,,,,,,,,,,,,,,,,,,,,,,,,,,,,,,,,,0,0,0,0,1,,,,,,,,,,,,,,,,,,,,,,,,,,,,,,,,,,,,,,
,,,,,,,,,5f6285720560ae1db06d599a,28,Mężczyzna,2022-05-28_09h30.03.426,task,2021.1.4,Win32,30.00120005,628b806c463b948bc644b84f,6291ce462717b102165d2698,,,,,,,,,,,,,,,,,,,,,,,,9,,,,,,,,,,Practice,10,(20/2) - 1,9,,,,,,,,,,,,,,,,"[""9""]",1,[2.5137999999523117],1,0,0,0,9,1,,,,,,,,,,,,,,,,,,,,,,,,,,,,,,,,,,,,,,,,,,,
,,,,,,,,,5f6285720560ae1db06d599a,28,Mężczyzna,2022-05-28_09h30.03.426,task,2021.1.4,Win32,30.00120005,628b806c463b948bc644b84f,6291ce462717b102165d2698,,,,,,,,,,,"X V Q F H G B L J M P D K C T S W R N Z
",,,,,,,,,,,,,,,,,,,,,,,,,,,,,,,,,,,,,,,,,,,,,,,,,,,1,0,1,0,1,,,,,,,,,,,,,,,,,,,,,,,,,,,,,,,,,,,,,,
,,,,,,,,,5f6285720560ae1db06d599a,28,Mężczyzna,2022-05-28_09h30.03.426,task,2021.1.4,Win32,30.00120005,628b806c463b948bc644b84f,6291ce462717b102165d2698,,,,,,,,,,,,,,,,,,,,,,,,,,,,,,,,,,,,,,,,,,,,,,,,,,,,,,,,,,,,,,,,,,,bl,"[""b"",""l""]",0,"[1.3799000000954038,1.6559000000954711,2.16640000009545]",1,3,0,3,0,1,,,,,,,,,,,,,,,,,,,,,,,,,,,,
,,,,,,,,,5f6285720560ae1db06d599a,28,Mężczyzna,2022-05-28_09h30.03.426,task,2021.1.4,Win32,30.00120005,628b806c463b948bc644b84f,6291ce462717b102165d2698,,,,,,,,,,,,,,,,,,,,,,,,3,,,,,,,,,,Task,35,(1x2) + 1,3,,,,,,,,,,,,,,,,,,,1,,,,,,,,,,,,,,,,,,,,,space,27.6449,"[""3""]",1,[2.5064000000953683],0,0,0,34,1,,,,,,,,,,,,,,,,,,
,,,,,,,,,5f6285720560ae1db06d599a,28,Mężczyzna,2022-05-28_09h30.03.426,task,2021.1.4,Win32,30.00120005,628b806c463b948bc644b84f,6291ce462717b102165d2698,,,,,,,,,,,"X V Q F H G B L J M P D K C T S W R N Z
",,,,,,,,,,,,,,,,,,,,,,,,,,,,,,,,,,,,,,,,,,,,,,,,,,,,,,,,,,,,,,,,,,,,,,,,,,,,0,0,0,0,1,,,,,,,,,,,,,
,,,,,,,,,5f6285720560ae1db06d599a,28,Mężczyzna,2022-05-28_09h30.03.426,task,2021.1.4,Win32,30.00120005,628b806c463b948bc644b84f,6291ce462717b102165d2698,,,,,,,,,,,,,,,,,,,,,,,,4,,,,,,,,,,Task,21,(10/2) - 1,4,,,,,,,,,,,,,,,,,,,1,,,,,,,,,,,,,,,,,,,,,,,"[""4""]",1,[2.620700000047691],0,0,0,20,1,,,,,,,,,,,,,,,,,,
,,,,,,,,,5f6285720560ae1db06d599a,28,Mężczyzna,2022-05-28_09h30.03.426,task,2021.1.4,Win32,30.00120005,628b806c463b948bc644b84f,6291ce462717b102165d2698,,,,,,,,,,,"X V Q F H G B L J M P D K C T S W R N Z
",,,,,,,,,,,,,,,,,,,,,,,,,,,,,,,,,,,,,,,,,,,,,,,,,,,,,,,,,,,,,,,,,,,,,,,,,,,,1,0,1,0,1,,,,,,,,,,,,,
,,,,,,,,,5f6285720560ae1db06d599a,28,Mężczyzna,2022-05-28_09h30.03.426,task,2021.1.4,Win32,30.00120005,628b806c463b948bc644b84f,6291ce462717b102165d2698,,,,,,,,,,,,,,,,,,,,,,,,,,,,,,,,,,,,,,,,,,,,,,,,,,,,,,,,,,,,,,,,,,,,,,,,,,,,,,,,,,,,,,,,,,,,zh,"[""z"",""h""]",0,"[1.6403999998569816,1.8208999998570334,2.774399999856996]",1,ZH,0,0,0,0,1,,
,,,,,,,,,5f6285720560ae1db06d599a,28,Mężczyzna,2022-05-28_09h30.03.426,task,2021.1.4,Win32,30.00120005,628b806c463b948bc644b84f,6291ce462717b102165d2698,,,,,,,,,,,,,,,,,,,,,,,,1,,,,,,,,,,Task,9,(3x7) - 20,1,,,,,,,,,,,,,,,,,,,1,,,,,,,,,,,,,,,,,,,,,,,"[""1""]",1,[4.704800000190744],0,0,0,8,1,,,,,,,,,,,,,,,,,,
,,,,,,,,,5f6285720560ae1db06d599a,28,Mężczyzna,2022-05-28_09h30.03.426,task,2021.1.4,Win32,30.00120005,628b806c463b948bc644b84f,6291ce462717b102165d2698,,,,,,,,,,,"X V Q F H G B L J M P D K C T S W R N Z
",,,,,,,,,,,,,,,,,,,,,,,,,,,,,,,,,,,,,,,,,,,,,,,,,,,,,,,,,,,,,,,,,,,,,,,,,,,,0,0,0,0,1,,,,,,,,,,,,,
,,,,,,,,,5f6285720560ae1db06d599a,28,Mężczyzna,2022-05-28_09h30.03.426,task,2021.1.4,Win32,30.00120005,628b806c463b948bc644b84f,6291ce462717b102165d2698,,,,,,,,,,,,,,,,,,,,,,,,8,,,,,,,,,,Task,38,(4x6) - 17,7,,,,,,,,,,,,,,,,,,,0,,,,,,,,,,,,,,,,,,,,,,,"[""8""]",0,[10.20740000009539],0,0,0,37,1,,,,,,,,,,,,,,,,,,
,,,,,,,,,5f6285720560ae1db06d599a,28,Mężczyzna,2022-05-28_09h30.03.426,task,2021.1.4,Win32,30.00120005,628b806c463b948bc644b84f,6291ce462717b102165d2698,,,,,,,,,,,,,,,,,,,,,,,,0,,,,,,,,,,Task,33,(1/1) - 1,0,,,,,,,,,,,,,,,,,,,1,,,,,,,,,,,,,,,,,,,,,,,"[""0""]",1,[3.9662000000477065],0,1,1,32,1,,,,,,,,,,,,,,,,,,
,,,,,,,,,5f6285720560ae1db06d599a,28,Mężczyzna,2022-05-28_09h30.03.426,task,2021.1.4,Win32,30.00120005,628b806c463b948bc644b84f,6291ce462717b102165d2698,,,,,,,,,,,"X V Q F H G B L J M P D K C T S W R N Z
",,,,,,,,,,,,,,,,,,,,,,,,,,,,,,,,,,,,,,,,,,,,,,,,,,,,,,,,,,,,,,,,,,,,,,,,,,,,1,0,1,0,1,,,,,,,,,,,,,
,,,,,,,,,5f6285720560ae1db06d599a,28,Mężczyzna,2022-05-28_09h30.03.426,task,2021.1.4,Win32,30.00120005,628b806c463b948bc644b84f,6291ce462717b102165d2698,,,,,,,,,,,,,,,,,,,,,,,,2,,,,,,,,,,Task,26,(2x9) - 16,2,,,,,,,,,,,,,,,,,,,1,,,,,,,,,,,,,,,,,,,,,,,"[""2""]",1,[3.2250000000000227],0,0,0,25,1,,,,,,,,,,,,,,,,,,
,,,,,,,,,5f6285720560ae1db06d599a,28,Mężczyzna,2022-05-28_09h30.03.426,task,2021.1.4,Win32,30.00120005,628b806c463b948bc644b84f,6291ce462717b102165d2698,,,,,,,,,,,"X V Q F H G B L J M P D K C T S W R N Z
",,,,,,,,,,,,,,,,,,,,,,,,,,,,,,,,,,,,,,,,,,,,,,,,,,,,,,,,,,,,,,,,,,,,,,,,,,,,2,0,2,0,1,,,,,,,,,,,,,
,,,,,,,,,5f6285720560ae1db06d599a,28,Mężczyzna,2022-05-28_09h30.03.426,task,2021.1.4,Win32,30.00120005,628b806c463b948bc644b84f,6291ce462717b102165d2698,,,,,,,,,,,,,,,,,,,,,,,,,,,,,,,,,,,,,,,,,,,,,,,,,,,,,,,,,,,,,,,,,,,,,,,,,,,,,,,,,,,,,,,,,,,,lmw,"[""l"",""m"",""w""]",0,"[1.140400000095383,1.2395999999046126,1.5414000000953365,2.288000000000011]",1,LMW,1,0,1,0,1,,
,,,,,,,,,5f6285720560ae1db06d599a,28,Mężczyzna,2022-05-28_09h30.03.426,task,2021.1.4,Win32,30.00120005,628b806c463b948bc644b84f,6291ce462717b102165d2698,,,,,,,,,,,,,,,,,,,,,,,,7,,,,,,,,,,Task,6,(12/2) + 1,7,,,,,,,,,,,,,,,,,,,1,,,,,,,,,,,,,,,,,,,,,,,"[""7""]",1,[2.3707999999523963],0,0,0,5,1,,,,,,,,,,,,,,,,,,
,,,,,,,,,5f6285720560ae1db06d599a,28,Mężczyzna,2022-05-28_09h30.03.426,task,2021.1.4,Win32,30.00120005,628b806c463b948bc644b84f,6291ce462717b102165d2698,,,,,,,,,,,"X V Q F H G B L J M P D K C T S W R N Z
",,,,,,,,,,,,,,,,,,,,,,,,,,,,,,,,,,,,,,,,,,,,,,,,,,,,,,,,,,,,,,,,,,,,,,,,,,,,0,0,0,0,1,,,,,,,,,,,,,
,,,,,,,,,5f6285720560ae1db06d599a,28,Mężczyzna,2022-05-28_09h30.03.426,task,2021.1.4,Win32,30.00120005,628b806c463b948bc644b84f,6291ce462717b102165d2698,,,,,,,,,,,,,,,,,,,,,,,,3,,,,,,,,,,Task,27,(3/3) + 2,3,,,,,,,,,,,,,,,,,,,1,,,,,,,,,,,,,,,,,,,,,,,"[""3""]",1,[7.189799999952356],0,0,0,26,1,,,,,,,,,,,,,,,,,,
,,,,,,,,,5f6285720560ae1db06d599a,28,Mężczyzna,2022-05-28_09h30.03.426,task,2021.1.4,Win32,30.00120005,628b806c463b948bc644b84f,6291ce462717b102165d2698,,,,,,,,,,,"X V Q F H G B L J M P D K C T S W R N Z
",,,,,,,,,,,,,,,,,,,,,,,,,,,,,,,,,,,,,,,,,,,,,,,,,,,,,,,,,,,,,,,,,,,,,,,,,,,,1,0,1,0,1,,,,,,,,,,,,,
,,,,,,,,,5f6285720560ae1db06d599a,28,Mężczyzna,2022-05-28_09h30.03.426,task,2021.1.4,Win32,30.00120005,628b806c463b948bc644b84f,6291ce462717b102165d2698,,,,,,,,,,,,,,,,,,,,,,,,4,,,,,,,,,,Task,21,(10/2) - 1,4,,,,,,,,,,,,,,,,,,,1,,,,,,,,,,,,,,,,,,,,,,,"[""4""]",1,[2.6268999998569598],0,0,0,20,1,,,,,,,,,,,,,,,,,,
,,,,,,,,,5f6285720560ae1db06d599a,28,Mężczyzna,2022-05-28_09h30.03.426,task,2021.1.4,Win32,30.00120005,628b806c463b948bc644b84f,6291ce462717b102165d2698,,,,,,,,,,,"X V Q F H G B L J M P D K C T S W R N Z
",,,,,,,,,,,,,,,,,,,,,,,,,,,,,,,,,,,,,,,,,,,,,,,,,,,,,,,,,,,,,,,,,,,,,,,,,,,,2,0,2,0,1,,,,,,,,,,,,,
,,,,,,,,,5f6285720560ae1db06d599a,28,Mężczyzna,2022-05-28_09h30.03.426,task,2021.1.4,Win32,30.00120005,628b806c463b948bc644b84f,6291ce462717b102165d2698,,,,,,,,,,,,,,,,,,,,,,,,0,,,,,,,,,,Task,33,(1/1) - 1,0,,,,,,,,,,,,,,,,,,,1,,,,,,,,,,,,,,,,,,,,,,,"[""0""]",1,[4.872299999952247],0,0,0,32,1,,,,,,,,,,,,,,,,,,
,,,,,,,,,5f6285720560ae1db06d599a,28,Mężczyzna,2022-05-28_09h30.03.426,task,2021.1.4,Win32,30.00120005,628b806c463b948bc644b84f,6291ce462717b102165d2698,,,,,,,,,,,"X V Q F H G B L J M P D K C T S W R N Z
",,,,,,,,,,,,,,,,,,,,,,,,,,,,,,,,,,,,,,,,,,,,,,,,,,,,,,,,,,,,,,,,,,,,,,,,,,,,3,0,3,0,1,,,,,,,,,,,,,
,,,,,,,,,5f6285720560ae1db06d599a,28,Mężczyzna,2022-05-28_09h30.03.426,task,2021.1.4,Win32,30.00120005,628b806c463b948bc644b84f,6291ce462717b102165d2698,,,,,,,,,,,,,,,,,,,,,,,,,,,,,,,,,,,,,,,,,,,,,,,,,,,,,,,,,,,,,,,,,,,,,,,,,,,,,,,,,,,,,,,,,,,,sjqp,"[""s"",""j"",""q"",""p""]",0,"[1.4954999999999927,1.6647999999522654,1.8217999999523045,2.1049999999999045,2.496199999809278]",1,SJQP,2,0,2,0,1,,
,,,,,,,,,5f6285720560ae1db06d599a,28,Mężczyzna,2022-05-28_09h30.03.426,task,2021.1.4,Win32,30.00120005,628b806c463b948bc644b84f,6291ce462717b102165d2698,,,,,,,,,,,,,,,,,,,,,,,,6,,,,,,,,,,Task,30,(6/3) + 4 ,6,,,,,,,,,,,,,,,,,,,1,,,,,,,,,,,,,,,,,,,,,,,"[""6""]",1,[4.158500000000004],0,0,0,29,1,,,,,,,,,,,,,,,,,,
,,,,,,,,,5f6285720560ae1db06d599a,28,Mężczyzna,2022-05-28_09h30.03.426,task,2021.1.4,Win32,30.00120005,628b806c463b948bc644b84f,6291ce462717b102165d2698,,,,,,,,,,,"X V Q F H G B L J M P D K C T S W R N Z
",,,,,,,,,,,,,,,,,,,,,,,,,,,,,,,,,,,,,,,,,,,,,,,,,,,,,,,,,,,,,,,,,,,,,,,,,,,,0,0,0,0,1,,,,,,,,,,,,,
,,,,,,,,,5f6285720560ae1db06d599a,28,Mężczyzna,2022-05-28_09h30.03.426,task,2021.1.4,Win32,30.00120005,628b806c463b948bc644b84f,6291ce462717b102165d2698,,,,,,,,,,,,,,,,,,,,,,,,5,,,,,,,,,,Task,36,(8/4) + 3,5,,,,,,,,,,,,,,,,,,,1,,,,,,,,,,,,,,,,,,,,,,,"[""5""]",1,[1.9390999999045562],0,0,0,35,1,,,,,,,,,,,,,,,,,,
,,,,,,,,,5f6285720560ae1db06d599a,28,Mężczyzna,2022-05-28_09h30.03.426,task,2021.1.4,Win32,30.00120005,628b806c463b948bc644b84f,6291ce462717b102165d2698,,,,,,,,,,,"X V Q F H G B L J M P D K C T S W R N Z
",,,,,,,,,,,,,,,,,,,,,,,,,,,,,,,,,,,,,,,,,,,,,,,,,,,,,,,,,,,,,,,,,,,,,,,,,,,,1,0,1,0,1,,,,,,,,,,,,,
,,,,,,,,,5f6285720560ae1db06d599a,28,Mężczyzna,2022-05-28_09h30.03.426,task,2021.1.4,Win32,30.00120005,628b806c463b948bc644b84f,6291ce462717b102165d2698,,,,,,,,,,,,,,,,,,,,,,,,3,,,,,,,,,,Task,3,(2x3) - 3,3,,,,,,,,,,,,,,,,,,,1,,,,,,,,,,,,,,,,,,,,,,,"[""3""]",1,[4.172500000000014],0,0,0,2,1,,,,,,,,,,,,,,,,,,
,,,,,,,,,5f6285720560ae1db06d599a,28,Mężczyzna,2022-05-28_09h30.03.426,task,2021.1.4,Win32,30.00120005,628b806c463b948bc644b84f,6291ce462717b102165d2698,,,,,,,,,,,"X V Q F H G B L J M P D K C T S W R N Z
",,,,,,,,,,,,,,,,,,,,,,,,,,,,,,,,,,,,,,,,,,,,,,,,,,,,,,,,,,,,,,,,,,,,,,,,,,,,2,0,2,0,1,,,,,,,,,,,,,
,,,,,,,,,5f6285720560ae1db06d599a,28,Mężczyzna,2022-05-28_09h30.03.426,task,2021.1.4,Win32,30.00120005,628b806c463b948bc644b84f,6291ce462717b102165d2698,,,,,,,,,,,,,,,,,,,,,,,,,,,,,,,,,,Task,38,(4x6) - 17,7,,,,,,,,,,,,,,,,,,,0,,,,,,,,,,,,,,,,,,,,,,,,0,,0,0,0,37,1,,,,,,,,,,,,,,,,,,
,,,,,,,,,5f6285720560ae1db06d599a,28,Mężczyzna,2022-05-28_09h30.03.426,task,2021.1.4,Win32,30.00120005,628b806c463b948bc644b84f,6291ce462717b102165d2698,,,,,,,,,,,,,,,,,,,,,,,,4,,,,,,,,,,Task,28,(2x5) - 6,4,,,,,,,,,,,,,,,,,,,1,,,,,,,,,,,,,,,,,,,,,,,"[""4""]",1,[3.0948000001907303],0,1,1,27,1,,,,,,,,,,,,,,,,,,
,,,,,,,,,5f6285720560ae1db06d599a,28,Mężczyzna,2022-05-28_09h30.03.426,task,2021.1.4,Win32,30.00120005,628b806c463b948bc644b84f,6291ce462717b102165d2698,,,,,,,,,,,"X V Q F H G B L J M P D K C T S W R N Z
",,,,,,,,,,,,,,,,,,,,,,,,,,,,,,,,,,,,,,,,,,,,,,,,,,,,,,,,,,,,,,,,,,,,,,,,,,,,3,0,3,0,1,,,,,,,,,,,,,
,,,,,,,,,5f6285720560ae1db06d599a,28,Mężczyzna,2022-05-28_09h30.03.426,task,2021.1.4,Win32,30.00120005,628b806c463b948bc644b84f,6291ce462717b102165d2698,,,,,,,,,,,,,,,,,,,,,,,,2,,,,,,,,,,Task,26,(2x9) - 16,2,,,,,,,,,,,,,,,,,,,1,,,,,,,,,,,,,,,,,,,,,,,"[""2""]",1,[3.088099999904557],0,0,0,25,1,,,,,,,,,,,,,,,,,,
,,,,,,,,,5f6285720560ae1db06d599a,28,Mężczyzna,2022-05-28_09h30.03.426,task,2021.1.4,Win32,30.00120005,628b806c463b948bc644b84f,6291ce462717b102165d2698,,,,,,,,,,,"X V Q F H G B L J M P D K C T S W R N Z
",,,,,,,,,,,,,,,,,,,,,,,,,,,,,,,,,,,,,,,,,,,,,,,,,,,,,,,,,,,,,,,,,,,,,,,,,,,,4,0,4,0,1,,,,,,,,,,,,,
,,,,,,,,,5f6285720560ae1db06d599a,28,Mężczyzna,2022-05-28_09h30.03.426,task,2021.1.4,Win32,30.00120005,628b806c463b948bc644b84f,6291ce462717b102165d2698,,,,,,,,,,,,,,,,,,,,,,,,,,,,,,,,,,,,,,,,,,,,,,,,,,,,,,,,,,,,,,,,,,,,,,,,,,,,,,,,,,,,,,,,,,,,kqkfn,"[""k"",""q"",""k"",""f"",""n""]",0,"[1.1891000001429575,1.4646000001430366,1.8044000000953702,2.3399000000953265,2.926800000190724,3.423800000190681]",1,KQKFN,3,0,3,0,1,,
,,,,,,,,,5f6285720560ae1db06d599a,28,Mężczyzna,2022-05-28_09h30.03.426,task,2021.1.4,Win32,30.00120005,628b806c463b948bc644b84f,6291ce462717b102165d2698,,,,,,,,,,,,,,,,,,,,,,,,6,,,,,,,,,,Task,37,(3/3) + 5,6,,,,,,,,,,,,,,,,,,,1,,,,,,,,,,,,,,,,,,,,,,,"[""6""]",1,[2.4712999999522935],0,0,0,36,1,,,,,,,,,,,,,,,,,,
,,,,,,,,,5f6285720560ae1db06d599a,28,Mężczyzna,2022-05-28_09h30.03.426,task,2021.1.4,Win32,30.00120005,628b806c463b948bc644b84f,6291ce462717b102165d2698,,,,,,,,,,,"X V Q F H G B L J M P D K C T S W R N Z
",,,,,,,,,,,,,,,,,,,,,,,,,,,,,,,,,,,,,,,,,,,,,,,,,,,,,,,,,,,,,,,,,,,,,,,,,,,,0,0,0,0,1,,,,,,,,,,,,,
,,,,,,,,,5f6285720560ae1db06d599a,28,Mężczyzna,2022-05-28_09h30.03.426,task,2021.1.4,Win32,30.00120005,628b806c463b948bc644b84f,6291ce462717b102165d2698,,,,,,,,,,,,,,,,,,,,,,,,1,,,,,,,,,,Task,1,(12/6) - 1,1,,,,,,,,,,,,,,,,,,,1,,,,,,,,,,,,,,,,,,,,,,,"[""1""]",1,[2.2879999999998972],0,0,0,0,1,,,,,,,,,,,,,,,,,,
,,,,,,,,,5f6285720560ae1db06d599a,28,Mężczyzna,2022-05-28_09h30.03.426,task,2021.1.4,Win32,30.00120005,628b806c463b948bc644b84f,6291ce462717b102165d2698,,,,,,,,,,,"X V Q F H G B L J M P D K C T S W R N Z
",,,,,,,,,,,,,,,,,,,,,,,,,,,,,,,,,,,,,,,,,,,,,,,,,,,,,,,,,,,,,,,,,,,,,,,,,,,,1,0,1,0,1,,,,,,,,,,,,,
,,,,,,,,,5f6285720560ae1db06d599a,28,Mężczyzna,2022-05-28_09h30.03.426,task,2021.1.4,Win32,30.00120005,628b806c463b948bc644b84f,6291ce462717b102165d2698,,,,,,,,,,,,,,,,,,,,,,,,3,,,,,,,,,,Task,20,(18/9) + 1,3,,,,,,,,,,,,,,,,,,,1,,,,,,,,,,,,,,,,,,,,,,,"[""3""]",1,[2.1271000001430593],0,0,0,19,1,,,,,,,,,,,,,,,,,,
,,,,,,,,,5f6285720560ae1db06d599a,28,Mężczyzna,2022-05-28_09h30.03.426,task,2021.1.4,Win32,30.00120005,628b806c463b948bc644b84f,6291ce462717b102165d2698,,,,,,,,,,,"X V Q F H G B L J M P D K C T S W R N Z
",,,,,,,,,,,,,,,,,,,,,,,,,,,,,,,,,,,,,,,,,,,,,,,,,,,,,,,,,,,,,,,,,,,,,,,,,,,,2,0,2,0,1,,,,,,,,,,,,,
,,,,,,,,,5f6285720560ae1db06d599a,28,Mężczyzna,2022-05-28_09h30.03.426,task,2021.1.4,Win32,30.00120005,628b806c463b948bc644b84f,6291ce462717b102165d2698,,,,,,,,,,,,,,,,,,,,,,,,1,,,,,,,,,,Task,1,(12/6) - 1,1,,,,,,,,,,,,,,,,,,,1,,,,,,,,,,,,,,,,,,,,,,,"[""1""]",1,[3.7380000000000564],0,0,0,0,1,,,,,,,,,,,,,,,,,,
,,,,,,,,,5f6285720560ae1db06d599a,28,Mężczyzna,2022-05-28_09h30.03.426,task,2021.1.4,Win32,30.00120005,628b806c463b948bc644b84f,6291ce462717b102165d2698,,,,,,,,,,,"X V Q F H G B L J M P D K C T S W R N Z
",,,,,,,,,,,,,,,,,,,,,,,,,,,,,,,,,,,,,,,,,,,,,,,,,,,,,,,,,,,,,,,,,,,,,,,,,,,,3,0,3,0,1,,,,,,,,,,,,,
,,,,,,,,,5f6285720560ae1db06d599a,28,Mężczyzna,2022-05-28_09h30.03.426,task,2021.1.4,Win32,30.00120005,628b806c463b948bc644b84f,6291ce462717b102165d2698,,,,,,,,,,,,,,,,,,,,,,,,8,,,,,,,,,,Task,39,(5x3) - 7,8,,,,,,,,,,,,,,,,,,,1,,,,,,,,,,,,,,,,,,,,,,,"[""8""]",1,[4.393200000047614],0,0,0,38,1,,,,,,,,,,,,,,,,,,
,,,,,,,,,5f6285720560ae1db06d599a,28,Mężczyzna,2022-05-28_09h30.03.426,task,2021.1.4,Win32,30.00120005,628b806c463b948bc644b84f,6291ce462717b102165d2698,,,,,,,,,,,"X V Q F H G B L J M P D K C T S W R N Z
",,,,,,,,,,,,,,,,,,,,,,,,,,,,,,,,,,,,,,,,,,,,,,,,,,,,,,,,,,,,,,,,,,,,,,,,,,,,4,0,4,0,1,,,,,,,,,,,,,
,,,,,,,,,5f6285720560ae1db06d599a,28,Mężczyzna,2022-05-28_09h30.03.426,task,2021.1.4,Win32,30.00120005,628b806c463b948bc644b84f,6291ce462717b102165d2698,,,,,,,,,,,,,,,,,,,,,,,,8,,,,,,,,,,Task,39,(5x3) - 7,8,,,,,,,,,,,,,,,,,,,1,,,,,,,,,,,,,,,,,,,,,,,"[""8""]",1,[5.088199999809262],0,0,0,38,1,,,,,,,,,,,,,,,,,,
,,,,,,,,,5f6285720560ae1db06d599a,28,Mężczyzna,2022-05-28_09h30.03.426,task,2021.1.4,Win32,30.00120005,628b806c463b948bc644b84f,6291ce462717b102165d2698,,,,,,,,,,,"X V Q F H G B L J M P D K C T S W R N Z
",,,,,,,,,,,,,,,,,,,,,,,,,,,,,,,,,,,,,,,,,,,,,,,,,,,,,,,,,,,,,,,,,,,,,,,,,,,,5,0,5,0,1,,,,,,,,,,,,,
,,,,,,,,,5f6285720560ae1db06d599a,28,Mężczyzna,2022-05-28_09h30.03.426,task,2021.1.4,Win32,30.00120005,628b806c463b948bc644b84f,6291ce462717b102165d2698,,,,,,,,,,,,,,,,,,,,,,,,,,,,,,,,,,,,,,,,,,,,,,,,,,,,,,,,,,,,,,,,,,,,,,,,,,,,,,,,,,,,,,,,,,,,hrztfn,"[""h"",""r"",""z"",""t"",""f"",""n""]",0,"[1.3442000000476355,1.5322000000476237,1.9500999999046371,2.2160999999046,3.0475999999046053,3.2897999999522654,3.7717999999522362]",0,"HRZ
TFN",4,0,4,0,1,,
,,,,,,,,,5f6285720560ae1db06d599a,28,Mężczyzna,2022-05-28_09h30.03.426,task,2021.1.4,Win32,30.00120005,628b806c463b948bc644b84f,6291ce462717b102165d2698,,,,,,,,,,,,,,,,,,,,,,,,8,,,,,,,,,,Task,39,(5x3) - 7,8,,,,,,,,,,,,,,,,,,,1,,,,,,,,,,,,,,,,,,,,,,,"[""8""]",1,[4.164299999952277],0,0,0,38,1,,,,,,,,,,,,,,,,,,
,,,,,,,,,5f6285720560ae1db06d599a,28,Mężczyzna,2022-05-28_09h30.03.426,task,2021.1.4,Win32,30.00120005,628b806c463b948bc644b84f,6291ce462717b102165d2698,,,,,,,,,,,"X V Q F H G B L J M P D K C T S W R N Z
",,,,,,,,,,,,,,,,,,,,,,,,,,,,,,,,,,,,,,,,,,,,,,,,,,,,,,,,,,,,,,,,,,,,,,,,,,,,0,0,0,0,1,,,,,,,,,,,,,
,,,,,,,,,5f6285720560ae1db06d599a,28,Mężczyzna,2022-05-28_09h30.03.426,task,2021.1.4,Win32,30.00120005,628b806c463b948bc644b84f,6291ce462717b102165d2698,,,,,,,,,,,,,,,,,,,,,,,,,,,,,,,,,,Task,18,(16/4) - 3,1,,,,,,,,,,,,,,,,,,,0,,,,,,,,,,,,,,,,,,,,,,,,0,,0,0,0,17,1,,,,,,,,,,,,,,,,,,
,,,,,,,,,5f6285720560ae1db06d599a,28,Mężczyzna,2022-05-28_09h30.03.426,task,2021.1.4,Win32,30.00120005,628b806c463b948bc644b84f,6291ce462717b102165d2698,,,,,,,,,,,,,,,,,,,,,,,,0,,,,,,,,,,Task,25,(10/5) - 2,0,,,,,,,,,,,,,,,,,,,1,,,,,,,,,,,,,,,,,,,,,,,"[""0""]",1,[4.204300000190756],0,1,1,24,1,,,,,,,,,,,,,,,,,,
,,,,,,,,,5f6285720560ae1db06d599a,28,Mężczyzna,2022-05-28_09h30.03.426,task,2021.1.4,Win32,30.00120005,628b806c463b948bc644b84f,6291ce462717b102165d2698,,,,,,,,,,,"X V Q F H G B L J M P D K C T S W R N Z
",,,,,,,,,,,,,,,,,,,,,,,,,,,,,,,,,,,,,,,,,,,,,,,,,,,,,,,,,,,,,,,,,,,,,,,,,,,,1,0,1,0,1,,,,,,,,,,,,,
,,,,,,,,,5f6285720560ae1db06d599a,28,Mężczyzna,2022-05-28_09h30.03.426,task,2021.1.4,Win32,30.00120005,628b806c463b948bc644b84f,6291ce462717b102165d2698,,,,,,,,,,,,,,,,,,,,,,,,3,,,,,,,,,,Task,27,(3/3) + 2,3,,,,,,,,,,,,,,,,,,,1,,,,,,,,,,,,,,,,,,,,,,,"[""3""]",1,[2.220399999856909],0,0,0,26,1,,,,,,,,,,,,,,,,,,
,,,,,,,,,5f6285720560ae1db06d599a,28,Mężczyzna,2022-05-28_09h30.03.426,task,2021.1.4,Win32,30.00120005,628b806c463b948bc644b84f,6291ce462717b102165d2698,,,,,,,,,,,"X V Q F H G B L J M P D K C T S W R N Z
",,,,,,,,,,,,,,,,,,,,,,,,,,,,,,,,,,,,,,,,,,,,,,,,,,,,,,,,,,,,,,,,,,,,,,,,,,,,2,0,2,0,1,,,,,,,,,,,,,
,,,,,,,,,5f6285720560ae1db06d599a,28,Mężczyzna,2022-05-28_09h30.03.426,task,2021.1.4,Win32,30.00120005,628b806c463b948bc644b84f,6291ce462717b102165d2698,,,,,,,,,,,,,,,,,,,,,,,,6,,,,,,,,,,Task,30,(6/3) + 4 ,6,,,,,,,,,,,,,,,,,,,1,,,,,,,,,,,,,,,,,,,,,,,"[""6""]",1,[3.390600000143081],0,0,0,29,1,,,,,,,,,,,,,,,,,,
,,,,,,,,,5f6285720560ae1db06d599a,28,Mężczyzna,2022-05-28_09h30.03.426,task,2021.1.4,Win32,30.00120005,628b806c463b948bc644b84f,6291ce462717b102165d2698,,,,,,,,,,,"X V Q F H G B L J M P D K C T S W R N Z
",,,,,,,,,,,,,,,,,,,,,,,,,,,,,,,,,,,,,,,,,,,,,,,,,,,,,,,,,,,,,,,,,,,,,,,,,,,,3,0,3,0,1,,,,,,,,,,,,,
,,,,,,,,,5f6285720560ae1db06d599a,28,Mężczyzna,2022-05-28_09h30.03.426,task,2021.1.4,Win32,30.00120005,628b806c463b948bc644b84f,6291ce462717b102165d2698,,,,,,,,,,,,,,,,,,,,,,,,3,,,,,,,,,,Task,35,(1x2) + 1,3,,,,,,,,,,,,,,,,,,,1,,,,,,,,,,,,,,,,,,,,,,,"[""3""]",1,[1.9645999999046353],0,0,0,34,1,,,,,,,,,,,,,,,,,,
,,,,,,,,,5f6285720560ae1db06d599a,28,Mężczyzna,2022-05-28_09h30.03.426,task,2021.1.4,Win32,30.00120005,628b806c463b948bc644b84f,6291ce462717b102165d2698,,,,,,,,,,,"X V Q F H G B L J M P D K C T S W R N Z
",,,,,,,,,,,,,,,,,,,,,,,,,,,,,,,,,,,,,,,,,,,,,,,,,,,,,,,,,,,,,,,,,,,,,,,,,,,,4,0,4,0,1,,,,,,,,,,,,,
,,,,,,,,,5f6285720560ae1db06d599a,28,Mężczyzna,2022-05-28_09h30.03.426,task,2021.1.4,Win32,30.00120005,628b806c463b948bc644b84f,6291ce462717b102165d2698,,,,,,,,,,,,,,,,,,,,,,,,5,,,,,,,,,,Task,36,(8/4) + 3,5,,,,,,,,,,,,,,,,,,,1,,,,,,,,,,,,,,,,,,,,,,,"[""5""]",1,[2.243000000000052],0,0,0,35,1,,,,,,,,,,,,,,,,,,
,,,,,,,,,5f6285720560ae1db06d599a,28,Mężczyzna,2022-05-28_09h30.03.426,task,2021.1.4,Win32,30.00120005,628b806c463b948bc644b84f,6291ce462717b102165d2698,,,,,,,,,,,"X V Q F H G B L J M P D K C T S W R N Z
",,,,,,,,,,,,,,,,,,,,,,,,,,,,,,,,,,,,,,,,,,,,,,,,,,,,,,,,,,,,,,,,,,,,,,,,,,,,5,0,5,0,1,,,,,,,,,,,,,
