key_resp_15.keys,key_resp_15.rt,key_resp_13.keys,key_resp_13.corr,ranodm_loop.thisRepN,ranodm_loop.thisTrialN,ranodm_loop.thisN,ranodm_loop.thisIndex,ranodm_loop.ran,participant,Wiek*,Płeć,date,expName,psychopyVersion,OS,frameRate,study_id,session,key_resp_13.rt,key_resp_16.keys,key_resp_16.rt,key_resp_4.keys,key_resp_4.rt,next_letter.thisRepN,next_letter.thisTrialN,next_letter.thisN,next_letter.thisIndex,next_letter.ran,letter,simple_recall,key_resp_5.keys,key_resp_5.rt,simple_recall_corr,simple_recall_corrkeys,next_level.thisRepN,next_level.thisTrialN,next_level.thisN,next_level.thisIndex,next_level.ran,key_resp_2.keys,key_resp_2.rt,digit_answer,key_resp.keys,key_resp.corr,key_resp.rt,RT_list,next_equation.thisRepN,next_equation.thisTrialN,next_equation.thisN,next_equation.thisIndex,next_equation.ran,Task,Trial,Problem,Operation_answer,processing_score,sumRT,meanRT,sumdiff,sd,RT,key_resp_3.keys,key_resp_3.rt,repeat_practice.thisRepN,repeat_practice.thisTrialN,repeat_practice.thisN,repeat_practice.thisIndex,repeat_practice.ran,key_resp_6.keys,key_resp_6.rt,key_resp_11.keys,key_resp_11.corr,key_resp_11.rt,operation_correct,repeat_if_wrong_prac.thisRepN,repeat_if_wrong_prac.thisTrialN,repeat_if_wrong_prac.thisN,repeat_if_wrong_prac.thisIndex,repeat_if_wrong_prac.ran,span_size_prac.thisRepN,span_size_prac.thisTrialN,span_size_prac.thisN,span_size_prac.thisIndex,span_size_prac.ran,complex_recall_practice,key_resp_9.keys,key_resp_9.corr,key_resp_9.rt,complex_prac_corr,span_recall_prac.thisRepN,span_recall_prac.thisTrialN,span_recall_prac.thisN,span_recall_prac.thisIndex,span_recall_prac.ran,key_resp_10.keys,key_resp_10.rt,key_resp_7.keys,key_resp_7.corr,key_resp_7.rt,repeat_if_wrong.thisRepN,repeat_if_wrong.thisTrialN,repeat_if_wrong.thisN,repeat_if_wrong.thisIndex,repeat_if_wrong.ran,span_size.thisRepN,span_size.thisTrialN,span_size.thisN,span_size.thisIndex,span_size.ran,complex_recall,key_resp_8.keys,key_resp_8.corr,key_resp_8.rt,complex_recall_corr,complex_recall_corrkeys,span_recall.thisRepN,span_recall.thisTrialN,span_recall.thisN,span_recall.thisIndex,span_recall.ran,key_resp_12.keys,key_resp_12.rt
space,22.6101,,0,0,0,0,0,1,5f63bfde15806b111703d6f9,22,Mężczyzna,2022-06-04_08h38.10.957,task,2021.1.4,Win32,59.97720866,628b806c463b948bc644b84f,629afdadcaaa92ffdccc9ea6,,,,,,,,,,,,,,,,,,,,,,,,,,,,,,,,,,,,,,,,,,,,,,,,,,,,,,,,,,,,,,,,,,,,,,,,,,,,,,,,,,,,,,,,,,,,,,,,,,,,,,,,
,,"[""comma""]",0,1,0,1,0,1,5f63bfde15806b111703d6f9,22,Mężczyzna,2022-06-04_08h38.10.957,task,2021.1.4,Win32,59.97720866,628b806c463b948bc644b84f,629afdadcaaa92ffdccc9ea6,[0.2671999999999599],,,,,,,,,,,,,,,,,,,,,,,,,,,,,,,,,,,,,,,,,,,,,,,,,,,,,,,,,,,,,,,,,,,,,,,,,,,,,,,,,,,,,,,,,,,,,,,,,,,,,,,
,,"[""comma""]",0,2,0,2,0,1,5f63bfde15806b111703d6f9,22,Mężczyzna,2022-06-04_08h38.10.957,task,2021.1.4,Win32,59.97720866,628b806c463b948bc644b84f,629afdadcaaa92ffdccc9ea6,[0.5840999999999781],,,,,,,,,,,,,,,,,,,,,,,,,,,,,,,,,,,,,,,,,,,,,,,,,,,,,,,,,,,,,,,,,,,,,,,,,,,,,,,,,,,,,,,,,,,,,,,,,,,,,,,
,,"[""period""]",0,3,0,3,0,1,5f63bfde15806b111703d6f9,22,Mężczyzna,2022-06-04_08h38.10.957,task,2021.1.4,Win32,59.97720866,628b806c463b948bc644b84f,629afdadcaaa92ffdccc9ea6,[0.6415999999999826],,,,,,,,,,,,,,,,,,,,,,,,,,,,,,,,,,,,,,,,,,,,,,,,,,,,,,,,,,,,,,,,,,,,,,,,,,,,,,,,,,,,,,,,,,,,,,,,,,,,,,,
,,"[""period""]",0,4,0,4,0,1,5f63bfde15806b111703d6f9,22,Mężczyzna,2022-06-04_08h38.10.957,task,2021.1.4,Win32,59.97720866,628b806c463b948bc644b84f,629afdadcaaa92ffdccc9ea6,[0.683799999999934],,,,,,,,,,,,,,,,,,,,,,,,,,,,,,,,,,,,,,,,,,,,,,,,,,,,,,,,,,,,,,,,,,,,,,,,,,,,,,,,,,,,,,,,,,,,,,,,,,,,,,,
,,"[""comma""]",0,5,0,5,0,1,5f63bfde15806b111703d6f9,22,Mężczyzna,2022-06-04_08h38.10.957,task,2021.1.4,Win32,59.97720866,628b806c463b948bc644b84f,629afdadcaaa92ffdccc9ea6,[0.5603000000000407],,,,,,,,,,,,,,,,,,,,,,,,,,,,,,,,,,,,,,,,,,,,,,,,,,,,,,,,,,,,,,,,,,,,,,,,,,,,,,,,,,,,,,,,,,,,,,,,,,,,,,,
,,"[""period""]",0,6,0,6,0,1,5f63bfde15806b111703d6f9,22,Mężczyzna,2022-06-04_08h38.10.957,task,2021.1.4,Win32,59.97720866,628b806c463b948bc644b84f,629afdadcaaa92ffdccc9ea6,[0.48440000000002215],,,,,,,,,,,,,,,,,,,,,,,,,,,,,,,,,,,,,,,,,,,,,,,,,,,,,,,,,,,,,,,,,,,,,,,,,,,,,,,,,,,,,,,,,,,,,,,,,,,,,,,
,,"[""period""]",0,7,0,7,0,1,5f63bfde15806b111703d6f9,22,Mężczyzna,2022-06-04_08h38.10.957,task,2021.1.4,Win32,59.97720866,628b806c463b948bc644b84f,629afdadcaaa92ffdccc9ea6,[0.7409999999999997],,,,,,,,,,,,,,,,,,,,,,,,,,,,,,,,,,,,,,,,,,,,,,,,,,,,,,,,,,,,,,,,,,,,,,,,,,,,,,,,,,,,,,,,,,,,,,,,,,,,,,,
,,"[""comma""]",0,8,0,8,0,1,5f63bfde15806b111703d6f9,22,Mężczyzna,2022-06-04_08h38.10.957,task,2021.1.4,Win32,59.97720866,628b806c463b948bc644b84f,629afdadcaaa92ffdccc9ea6,[0.8070000000000022],,,,,,,,,,,,,,,,,,,,,,,,,,,,,,,,,,,,,,,,,,,,,,,,,,,,,,,,,,,,,,,,,,,,,,,,,,,,,,,,,,,,,,,,,,,,,,,,,,,,,,,
,,"[""comma""]",0,9,0,9,0,1,5f63bfde15806b111703d6f9,22,Mężczyzna,2022-06-04_08h38.10.957,task,2021.1.4,Win32,59.97720866,628b806c463b948bc644b84f,629afdadcaaa92ffdccc9ea6,[0.7952000000000794],,,,,,,,,,,,,,,,,,,,,,,,,,,,,,,,,,,,,,,,,,,,,,,,,,,,,,,,,,,,,,,,,,,,,,,,,,,,,,,,,,,,,,,,,,,,,,,,,,,,,,,
,,"[""comma""]",0,10,0,10,0,1,5f63bfde15806b111703d6f9,22,Mężczyzna,2022-06-04_08h38.10.957,task,2021.1.4,Win32,59.97720866,628b806c463b948bc644b84f,629afdadcaaa92ffdccc9ea6,[0.333300000000051],,,,,,,,,,,,,,,,,,,,,,,,,,,,,,,,,,,,,,,,,,,,,,,,,,,,,,,,,,,,,,,,,,,,,,,,,,,,,,,,,,,,,,,,,,,,,,,,,,,,,,,
,,"[""period""]",0,11,0,11,0,1,5f63bfde15806b111703d6f9,22,Mężczyzna,2022-06-04_08h38.10.957,task,2021.1.4,Win32,59.97720866,628b806c463b948bc644b84f,629afdadcaaa92ffdccc9ea6,[0.285699999999963],,,,,,,,,,,,,,,,,,,,,,,,,,,,,,,,,,,,,,,,,,,,,,,,,,,,,,,,,,,,,,,,,,,,,,,,,,,,,,,,,,,,,,,,,,,,,,,,,,,,,,,
,,"[""comma""]",0,12,0,12,0,1,5f63bfde15806b111703d6f9,22,Mężczyzna,2022-06-04_08h38.10.957,task,2021.1.4,Win32,59.97720866,628b806c463b948bc644b84f,629afdadcaaa92ffdccc9ea6,[0.28390000000004534],,,,,,,,,,,,,,,,,,,,,,,,,,,,,,,,,,,,,,,,,,,,,,,,,,,,,,,,,,,,,,,,,,,,,,,,,,,,,,,,,,,,,,,,,,,,,,,,,,,,,,,
,,"[""period""]",0,13,0,13,0,1,5f63bfde15806b111703d6f9,22,Mężczyzna,2022-06-04_08h38.10.957,task,2021.1.4,Win32,59.97720866,628b806c463b948bc644b84f,629afdadcaaa92ffdccc9ea6,[0.28319999999996526],,,,,,,,,,,,,,,,,,,,,,,,,,,,,,,,,,,,,,,,,,,,,,,,,,,,,,,,,,,,,,,,,,,,,,,,,,,,,,,,,,,,,,,,,,,,,,,,,,,,,,,
,,"[""period""]",0,14,0,14,0,1,5f63bfde15806b111703d6f9,22,Mężczyzna,2022-06-04_08h38.10.957,task,2021.1.4,Win32,59.97720866,628b806c463b948bc644b84f,629afdadcaaa92ffdccc9ea6,[0.2004999999999768],,,,,,,,,,,,,,,,,,,,,,,,,,,,,,,,,,,,,,,,,,,,,,,,,,,,,,,,,,,,,,,,,,,,,,,,,,,,,,,,,,,,,,,,,,,,,,,,,,,,,,,
,,"[""period""]",0,15,0,15,0,1,5f63bfde15806b111703d6f9,22,Mężczyzna,2022-06-04_08h38.10.957,task,2021.1.4,Win32,59.97720866,628b806c463b948bc644b84f,629afdadcaaa92ffdccc9ea6,[0.24109999999996035],,,,,,,,,,,,,,,,,,,,,,,,,,,,,,,,,,,,,,,,,,,,,,,,,,,,,,,,,,,,,,,,,,,,,,,,,,,,,,,,,,,,,,,,,,,,,,,,,,,,,,,
,,"[""comma""]",0,16,0,16,0,1,5f63bfde15806b111703d6f9,22,Mężczyzna,2022-06-04_08h38.10.957,task,2021.1.4,Win32,59.97720866,628b806c463b948bc644b84f,629afdadcaaa92ffdccc9ea6,[0.14380000000005566],,,,,,,,,,,,,,,,,,,,,,,,,,,,,,,,,,,,,,,,,,,,,,,,,,,,,,,,,,,,,,,,,,,,,,,,,,,,,,,,,,,,,,,,,,,,,,,,,,,,,,,
,,"[""period""]",0,17,0,17,0,1,5f63bfde15806b111703d6f9,22,Mężczyzna,2022-06-04_08h38.10.957,task,2021.1.4,Win32,59.97720866,628b806c463b948bc644b84f,629afdadcaaa92ffdccc9ea6,[0.30699999999998795],,,,,,,,,,,,,,,,,,,,,,,,,,,,,,,,,,,,,,,,,,,,,,,,,,,,,,,,,,,,,,,,,,,,,,,,,,,,,,,,,,,,,,,,,,,,,,,,,,,,,,,
,,"[""comma""]",0,18,0,18,0,1,5f63bfde15806b111703d6f9,22,Mężczyzna,2022-06-04_08h38.10.957,task,2021.1.4,Win32,59.97720866,628b806c463b948bc644b84f,629afdadcaaa92ffdccc9ea6,[0.22430000000005634],,,,,,,,,,,,,,,,,,,,,,,,,,,,,,,,,,,,,,,,,,,,,,,,,,,,,,,,,,,,,,,,,,,,,,,,,,,,,,,,,,,,,,,,,,,,,,,,,,,,,,,
,,"[""comma""]",0,19,0,19,0,1,5f63bfde15806b111703d6f9,22,Mężczyzna,2022-06-04_08h38.10.957,task,2021.1.4,Win32,59.97720866,628b806c463b948bc644b84f,629afdadcaaa92ffdccc9ea6,[0.138600000000082],,,,,,,,,,,,,,,,,,,,,,,,,,,,,,,,,,,,,,,,,,,,,,,,,,,,,,,,,,,,,,,,,,,,,,,,,,,,,,,,,,,,,,,,,,,,,,,,,,,,,,,
,,"[""comma""]",0,20,0,20,0,1,5f63bfde15806b111703d6f9,22,Mężczyzna,2022-06-04_08h38.10.957,task,2021.1.4,Win32,59.97720866,628b806c463b948bc644b84f,629afdadcaaa92ffdccc9ea6,[0.31829999999993674],,,,,,,,,,,,,,,,,,,,,,,,,,,,,,,,,,,,,,,,,,,,,,,,,,,,,,,,,,,,,,,,,,,,,,,,,,,,,,,,,,,,,,,,,,,,,,,,,,,,,,,
,,"[""period""]",0,21,0,21,0,1,5f63bfde15806b111703d6f9,22,Mężczyzna,2022-06-04_08h38.10.957,task,2021.1.4,Win32,59.97720866,628b806c463b948bc644b84f,629afdadcaaa92ffdccc9ea6,[0.28380000000007044],,,,,,,,,,,,,,,,,,,,,,,,,,,,,,,,,,,,,,,,,,,,,,,,,,,,,,,,,,,,,,,,,,,,,,,,,,,,,,,,,,,,,,,,,,,,,,,,,,,,,,,
,,"[""comma""]",0,22,0,22,0,1,5f63bfde15806b111703d6f9,22,Mężczyzna,2022-06-04_08h38.10.957,task,2021.1.4,Win32,59.97720866,628b806c463b948bc644b84f,629afdadcaaa92ffdccc9ea6,[0.2754000000000474],,,,,,,,,,,,,,,,,,,,,,,,,,,,,,,,,,,,,,,,,,,,,,,,,,,,,,,,,,,,,,,,,,,,,,,,,,,,,,,,,,,,,,,,,,,,,,,,,,,,,,,
,,"[""period"",""period""]",0,23,0,23,0,1,5f63bfde15806b111703d6f9,22,Mężczyzna,2022-06-04_08h38.10.957,task,2021.1.4,Win32,59.97720866,628b806c463b948bc644b84f,629afdadcaaa92ffdccc9ea6,"[0.053200000000089176,1.892100000000113]",,,,,,,,,,,,,,,,,,,,,,,,,,,,,,,,,,,,,,,,,,,,,,,,,,,,,,,,,,,,,,,,,,,,,,,,,,,,,,,,,,,,,,,,,,,,,,,,,,,,,,,
,,,0,24,0,24,0,1,5f63bfde15806b111703d6f9,22,Mężczyzna,2022-06-04_08h38.10.957,task,2021.1.4,Win32,59.97720866,628b806c463b948bc644b84f,629afdadcaaa92ffdccc9ea6,,,,,,,,,,,,,,,,,,,,,,,,,,,,,,,,,,,,,,,,,,,,,,,,,,,,,,,,,,,,,,,,,,,,,,,,,,,,,,,,,,,,,,,,,,,,,,,,,,,,,,,,
,,"[""comma""]",0,25,0,25,0,1,5f63bfde15806b111703d6f9,22,Mężczyzna,2022-06-04_08h38.10.957,task,2021.1.4,Win32,59.97720866,628b806c463b948bc644b84f,629afdadcaaa92ffdccc9ea6,[0.2676000000001011],,,,,,,,,,,,,,,,,,,,,,,,,,,,,,,,,,,,,,,,,,,,,,,,,,,,,,,,,,,,,,,,,,,,,,,,,,,,,,,,,,,,,,,,,,,,,,,,,,,,,,,
,,"[""period"",""period""]",0,26,0,26,0,1,5f63bfde15806b111703d6f9,22,Mężczyzna,2022-06-04_08h38.10.957,task,2021.1.4,Win32,59.97720866,628b806c463b948bc644b84f,629afdadcaaa92ffdccc9ea6,"[0.10329999999993333,1.916799999999938]",,,,,,,,,,,,,,,,,,,,,,,,,,,,,,,,,,,,,,,,,,,,,,,,,,,,,,,,,,,,,,,,,,,,,,,,,,,,,,,,,,,,,,,,,,,,,,,,,,,,,,,
,,,0,27,0,27,0,1,5f63bfde15806b111703d6f9,22,Mężczyzna,2022-06-04_08h38.10.957,task,2021.1.4,Win32,59.97720866,628b806c463b948bc644b84f,629afdadcaaa92ffdccc9ea6,,,,,,,,,,,,,,,,,,,,,,,,,,,,,,,,,,,,,,,,,,,,,,,,,,,,,,,,,,,,,,,,,,,,,,,,,,,,,,,,,,,,,,,,,,,,,,,,,,,,,,,,
,,"[""period""]",0,28,0,28,0,1,5f63bfde15806b111703d6f9,22,Mężczyzna,2022-06-04_08h38.10.957,task,2021.1.4,Win32,59.97720866,628b806c463b948bc644b84f,629afdadcaaa92ffdccc9ea6,[0.05659999999997467],,,,,,,,,,,,,,,,,,,,,,,,,,,,,,,,,,,,,,,,,,,,,,,,,,,,,,,,,,,,,,,,,,,,,,,,,,,,,,,,,,,,,,,,,,,,,,,,,,,,,,,
,,"[""comma""]",0,29,0,29,0,1,5f63bfde15806b111703d6f9,22,Mężczyzna,2022-06-04_08h38.10.957,task,2021.1.4,Win32,59.97720866,628b806c463b948bc644b84f,629afdadcaaa92ffdccc9ea6,[0.2505000000000166],,,,,,,,,,,,,,,,,,,,,,,,,,,,,,,,,,,,,,,,,,,,,,,,,,,,,,,,,,,,,,,,,,,,,,,,,,,,,,,,,,,,,,,,,,,,,,,,,,,,,,,
,,"[""period""]",0,30,0,30,0,1,5f63bfde15806b111703d6f9,22,Mężczyzna,2022-06-04_08h38.10.957,task,2021.1.4,Win32,59.97720866,628b806c463b948bc644b84f,629afdadcaaa92ffdccc9ea6,[0.10869999999994207],,,,,,,,,,,,,,,,,,,,,,,,,,,,,,,,,,,,,,,,,,,,,,,,,,,,,,,,,,,,,,,,,,,,,,,,,,,,,,,,,,,,,,,,,,,,,,,,,,,,,,,
,,"[""comma""]",0,31,0,31,0,1,5f63bfde15806b111703d6f9,22,Mężczyzna,2022-06-04_08h38.10.957,task,2021.1.4,Win32,59.97720866,628b806c463b948bc644b84f,629afdadcaaa92ffdccc9ea6,[0.1498999999999171],,,,,,,,,,,,,,,,,,,,,,,,,,,,,,,,,,,,,,,,,,,,,,,,,,,,,,,,,,,,,,,,,,,,,,,,,,,,,,,,,,,,,,,,,,,,,,,,,,,,,,,
,,"[""comma""]",0,32,0,32,0,1,5f63bfde15806b111703d6f9,22,Mężczyzna,2022-06-04_08h38.10.957,task,2021.1.4,Win32,59.97720866,628b806c463b948bc644b84f,629afdadcaaa92ffdccc9ea6,[0.2746999999999389],,,,,,,,,,,,,,,,,,,,,,,,,,,,,,,,,,,,,,,,,,,,,,,,,,,,,,,,,,,,,,,,,,,,,,,,,,,,,,,,,,,,,,,,,,,,,,,,,,,,,,,
,,"[""period""]",0,33,0,33,0,1,5f63bfde15806b111703d6f9,22,Mężczyzna,2022-06-04_08h38.10.957,task,2021.1.4,Win32,59.97720866,628b806c463b948bc644b84f,629afdadcaaa92ffdccc9ea6,[0.27590000000000714],,,,,,,,,,,,,,,,,,,,,,,,,,,,,,,,,,,,,,,,,,,,,,,,,,,,,,,,,,,,,,,,,,,,,,,,,,,,,,,,,,,,,,,,,,,,,,,,,,,,,,,
,,"[""period""]",0,34,0,34,0,1,5f63bfde15806b111703d6f9,22,Mężczyzna,2022-06-04_08h38.10.957,task,2021.1.4,Win32,59.97720866,628b806c463b948bc644b84f,629afdadcaaa92ffdccc9ea6,[0.41049999999998477],,,,,,,,,,,,,,,,,,,,,,,,,,,,,,,,,,,,,,,,,,,,,,,,,,,,,,,,,,,,,,,,,,,,,,,,,,,,,,,,,,,,,,,,,,,,,,,,,,,,,,,
,,"[""comma""]",0,35,0,35,0,1,5f63bfde15806b111703d6f9,22,Mężczyzna,2022-06-04_08h38.10.957,task,2021.1.4,Win32,59.97720866,628b806c463b948bc644b84f,629afdadcaaa92ffdccc9ea6,[0.49449999999998795],,,,,,,,,,,,,,,,,,,,,,,,,,,,,,,,,,,,,,,,,,,,,,,,,,,,,,,,,,,,,,,,,,,,,,,,,,,,,,,,,,,,,,,,,,,,,,,,,,,,,,,
,,"[""period""]",0,36,0,36,0,1,5f63bfde15806b111703d6f9,22,Mężczyzna,2022-06-04_08h38.10.957,task,2021.1.4,Win32,59.97720866,628b806c463b948bc644b84f,629afdadcaaa92ffdccc9ea6,[0.6669000000000267],,,,,,,,,,,,,,,,,,,,,,,,,,,,,,,,,,,,,,,,,,,,,,,,,,,,,,,,,,,,,,,,,,,,,,,,,,,,,,,,,,,,,,,,,,,,,,,,,,,,,,,
,,"[""period""]",0,37,0,37,0,1,5f63bfde15806b111703d6f9,22,Mężczyzna,2022-06-04_08h38.10.957,task,2021.1.4,Win32,59.97720866,628b806c463b948bc644b84f,629afdadcaaa92ffdccc9ea6,[0.30309999999997217],,,,,,,,,,,,,,,,,,,,,,,,,,,,,,,,,,,,,,,,,,,,,,,,,,,,,,,,,,,,,,,,,,,,,,,,,,,,,,,,,,,,,,,,,,,,,,,,,,,,,,,
,,"[""period""]",0,38,0,38,0,1,5f63bfde15806b111703d6f9,22,Mężczyzna,2022-06-04_08h38.10.957,task,2021.1.4,Win32,59.97720866,628b806c463b948bc644b84f,629afdadcaaa92ffdccc9ea6,[0.2849999999999966],,,,,,,,,,,,,,,,,,,,,,,,,,,,,,,,,,,,,,,,,,,,,,,,,,,,,,,,,,,,,,,,,,,,,,,,,,,,,,,,,,,,,,,,,,,,,,,,,,,,,,,
,,"[""comma""]",0,39,0,39,0,1,5f63bfde15806b111703d6f9,22,Mężczyzna,2022-06-04_08h38.10.957,task,2021.1.4,Win32,59.97720866,628b806c463b948bc644b84f,629afdadcaaa92ffdccc9ea6,[0.30390000000002715],,,,,,,,,,,,,,,,,,,,,,,,,,,,,,,,,,,,,,,,,,,,,,,,,,,,,,,,,,,,,,,,,,,,,,,,,,,,,,,,,,,,,,,,,,,,,,,,,,,,,,,
,,"[""comma""]",0,40,0,40,0,1,5f63bfde15806b111703d6f9,22,Mężczyzna,2022-06-04_08h38.10.957,task,2021.1.4,Win32,59.97720866,628b806c463b948bc644b84f,629afdadcaaa92ffdccc9ea6,[0.3505000000000109],,,,,,,,,,,,,,,,,,,,,,,,,,,,,,,,,,,,,,,,,,,,,,,,,,,,,,,,,,,,,,,,,,,,,,,,,,,,,,,,,,,,,,,,,,,,,,,,,,,,,,,
,,"[""period""]",0,41,0,41,0,1,5f63bfde15806b111703d6f9,22,Mężczyzna,2022-06-04_08h38.10.957,task,2021.1.4,Win32,59.97720866,628b806c463b948bc644b84f,629afdadcaaa92ffdccc9ea6,[0.3024999999999807],,,,,,,,,,,,,,,,,,,,,,,,,,,,,,,,,,,,,,,,,,,,,,,,,,,,,,,,,,,,,,,,,,,,,,,,,,,,,,,,,,,,,,,,,,,,,,,,,,,,,,,
,,"[""comma""]",0,42,0,42,0,1,5f63bfde15806b111703d6f9,22,Mężczyzna,2022-06-04_08h38.10.957,task,2021.1.4,Win32,59.97720866,628b806c463b948bc644b84f,629afdadcaaa92ffdccc9ea6,[0.22939999999999827],,,,,,,,,,,,,,,,,,,,,,,,,,,,,,,,,,,,,,,,,,,,,,,,,,,,,,,,,,,,,,,,,,,,,,,,,,,,,,,,,,,,,,,,,,,,,,,,,,,,,,,
,,"[""comma""]",0,43,0,43,0,1,5f63bfde15806b111703d6f9,22,Mężczyzna,2022-06-04_08h38.10.957,task,2021.1.4,Win32,59.97720866,628b806c463b948bc644b84f,629afdadcaaa92ffdccc9ea6,[0.2536000000000911],,,,,,,,,,,,,,,,,,,,,,,,,,,,,,,,,,,,,,,,,,,,,,,,,,,,,,,,,,,,,,,,,,,,,,,,,,,,,,,,,,,,,,,,,,,,,,,,,,,,,,,
,,"[""period""]",0,44,0,44,0,1,5f63bfde15806b111703d6f9,22,Mężczyzna,2022-06-04_08h38.10.957,task,2021.1.4,Win32,59.97720866,628b806c463b948bc644b84f,629afdadcaaa92ffdccc9ea6,[0.2504000000000133],,,,,,,,,,,,,,,,,,,,,,,,,,,,,,,,,,,,,,,,,,,,,,,,,,,,,,,,,,,,,,,,,,,,,,,,,,,,,,,,,,,,,,,,,,,,,,,,,,,,,,,
,,"[""comma""]",0,45,0,45,0,1,5f63bfde15806b111703d6f9,22,Mężczyzna,2022-06-04_08h38.10.957,task,2021.1.4,Win32,59.97720866,628b806c463b948bc644b84f,629afdadcaaa92ffdccc9ea6,[0.2920999999999765],,,,,,,,,,,,,,,,,,,,,,,,,,,,,,,,,,,,,,,,,,,,,,,,,,,,,,,,,,,,,,,,,,,,,,,,,,,,,,,,,,,,,,,,,,,,,,,,,,,,,,,
,,"[""period""]",0,46,0,46,0,1,5f63bfde15806b111703d6f9,22,Mężczyzna,2022-06-04_08h38.10.957,task,2021.1.4,Win32,59.97720866,628b806c463b948bc644b84f,629afdadcaaa92ffdccc9ea6,[0.2579000000000349],,,,,,,,,,,,,,,,,,,,,,,,,,,,,,,,,,,,,,,,,,,,,,,,,,,,,,,,,,,,,,,,,,,,,,,,,,,,,,,,,,,,,,,,,,,,,,,,,,,,,,,
,,"[""comma"",""comma""]",0,47,0,47,0,1,5f63bfde15806b111703d6f9,22,Mężczyzna,2022-06-04_08h38.10.957,task,2021.1.4,Win32,59.97720866,628b806c463b948bc644b84f,629afdadcaaa92ffdccc9ea6,"[0.28359999999997854,1.8915999999999826]",,,,,,,,,,,,,,,,,,,,,,,,,,,,,,,,,,,,,,,,,,,,,,,,,,,,,,,,,,,,,,,,,,,,,,,,,,,,,,,,,,,,,,,,,,,,,,,,,,,,,,,
,,,0,48,0,48,0,1,5f63bfde15806b111703d6f9,22,Mężczyzna,2022-06-04_08h38.10.957,task,2021.1.4,Win32,59.97720866,628b806c463b948bc644b84f,629afdadcaaa92ffdccc9ea6,,,,,,,,,,,,,,,,,,,,,,,,,,,,,,,,,,,,,,,,,,,,,,,,,,,,,,,,,,,,,,,,,,,,,,,,,,,,,,,,,,,,,,,,,,,,,,,,,,,,,,,,
,,"[""comma""]",0,49,0,49,0,1,5f63bfde15806b111703d6f9,22,Mężczyzna,2022-06-04_08h38.10.957,task,2021.1.4,Win32,59.97720866,628b806c463b948bc644b84f,629afdadcaaa92ffdccc9ea6,[0.21709999999998786],,,,,,,,,,,,,,,,,,,,,,,,,,,,,,,,,,,,,,,,,,,,,,,,,,,,,,,,,,,,,,,,,,,,,,,,,,,,,,,,,,,,,,,,,,,,,,,,,,,,,,,
,,"[""comma""]",0,50,0,50,0,1,5f63bfde15806b111703d6f9,22,Mężczyzna,2022-06-04_08h38.10.957,task,2021.1.4,Win32,59.97720866,628b806c463b948bc644b84f,629afdadcaaa92ffdccc9ea6,[0.27879999999990446],,,,,,,,,,,,,,,,,,,,,,,,,,,,,,,,,,,,,,,,,,,,,,,,,,,,,,,,,,,,,,,,,,,,,,,,,,,,,,,,,,,,,,,,,,,,,,,,,,,,,,,
,,"[""period""]",0,51,0,51,0,1,5f63bfde15806b111703d6f9,22,Mężczyzna,2022-06-04_08h38.10.957,task,2021.1.4,Win32,59.97720866,628b806c463b948bc644b84f,629afdadcaaa92ffdccc9ea6,[0.15050000000002228],,,,,,,,,,,,,,,,,,,,,,,,,,,,,,,,,,,,,,,,,,,,,,,,,,,,,,,,,,,,,,,,,,,,,,,,,,,,,,,,,,,,,,,,,,,,,,,,,,,,,,,
,,"[""period""]",0,52,0,52,0,1,5f63bfde15806b111703d6f9,22,Mężczyzna,2022-06-04_08h38.10.957,task,2021.1.4,Win32,59.97720866,628b806c463b948bc644b84f,629afdadcaaa92ffdccc9ea6,[0.09969999999992751],,,,,,,,,,,,,,,,,,,,,,,,,,,,,,,,,,,,,,,,,,,,,,,,,,,,,,,,,,,,,,,,,,,,,,,,,,,,,,,,,,,,,,,,,,,,,,,,,,,,,,,
,,"[""comma""]",0,53,0,53,0,1,5f63bfde15806b111703d6f9,22,Mężczyzna,2022-06-04_08h38.10.957,task,2021.1.4,Win32,59.97720866,628b806c463b948bc644b84f,629afdadcaaa92ffdccc9ea6,[0.26909999999998035],,,,,,,,,,,,,,,,,,,,,,,,,,,,,,,,,,,,,,,,,,,,,,,,,,,,,,,,,,,,,,,,,,,,,,,,,,,,,,,,,,,,,,,,,,,,,,,,,,,,,,,
,,"[""period""]",0,54,0,54,0,1,5f63bfde15806b111703d6f9,22,Mężczyzna,2022-06-04_08h38.10.957,task,2021.1.4,Win32,59.97720866,628b806c463b948bc644b84f,629afdadcaaa92ffdccc9ea6,[0.15420000000005984],,,,,,,,,,,,,,,,,,,,,,,,,,,,,,,,,,,,,,,,,,,,,,,,,,,,,,,,,,,,,,,,,,,,,,,,,,,,,,,,,,,,,,,,,,,,,,,,,,,,,,,
,,"[""period""]",0,55,0,55,0,1,5f63bfde15806b111703d6f9,22,Mężczyzna,2022-06-04_08h38.10.957,task,2021.1.4,Win32,59.97720866,628b806c463b948bc644b84f,629afdadcaaa92ffdccc9ea6,[0.1667000000000769],,,,,,,,,,,,,,,,,,,,,,,,,,,,,,,,,,,,,,,,,,,,,,,,,,,,,,,,,,,,,,,,,,,,,,,,,,,,,,,,,,,,,,,,,,,,,,,,,,,,,,,
,,"[""comma""]",0,56,0,56,0,1,5f63bfde15806b111703d6f9,22,Mężczyzna,2022-06-04_08h38.10.957,task,2021.1.4,Win32,59.97720866,628b806c463b948bc644b84f,629afdadcaaa92ffdccc9ea6,[0.30669999999994957],,,,,,,,,,,,,,,,,,,,,,,,,,,,,,,,,,,,,,,,,,,,,,,,,,,,,,,,,,,,,,,,,,,,,,,,,,,,,,,,,,,,,,,,,,,,,,,,,,,,,,,
,,"[""period""]",0,57,0,57,0,1,5f63bfde15806b111703d6f9,22,Mężczyzna,2022-06-04_08h38.10.957,task,2021.1.4,Win32,59.97720866,628b806c463b948bc644b84f,629afdadcaaa92ffdccc9ea6,[-0.01650000000000773],,,,,,,,,,,,,,,,,,,,,,,,,,,,,,,,,,,,,,,,,,,,,,,,,,,,,,,,,,,,,,,,,,,,,,,,,,,,,,,,,,,,,,,,,,,,,,,,,,,,,,,
,,"[""period""]",0,58,0,58,0,1,5f63bfde15806b111703d6f9,22,Mężczyzna,2022-06-04_08h38.10.957,task,2021.1.4,Win32,59.97720866,628b806c463b948bc644b84f,629afdadcaaa92ffdccc9ea6,[0.017900000000025784],,,,,,,,,,,,,,,,,,,,,,,,,,,,,,,,,,,,,,,,,,,,,,,,,,,,,,,,,,,,,,,,,,,,,,,,,,,,,,,,,,,,,,,,,,,,,,,,,,,,,,,
,,"[""period""]",0,59,0,59,0,1,5f63bfde15806b111703d6f9,22,Mężczyzna,2022-06-04_08h38.10.957,task,2021.1.4,Win32,59.97720866,628b806c463b948bc644b84f,629afdadcaaa92ffdccc9ea6,[0.41810000000009495],,,,,,,,,,,,,,,,,,,,,,,,,,,,,,,,,,,,,,,,,,,,,,,,,,,,,,,,,,,,,,,,,,,,,,,,,,,,,,,,,,,,,,,,,,,,,,,,,,,,,,,
,,"[""comma""]",0,60,0,60,0,1,5f63bfde15806b111703d6f9,22,Mężczyzna,2022-06-04_08h38.10.957,task,2021.1.4,Win32,59.97720866,628b806c463b948bc644b84f,629afdadcaaa92ffdccc9ea6,[0.3166999999999689],,,,,,,,,,,,,,,,,,,,,,,,,,,,,,,,,,,,,,,,,,,,,,,,,,,,,,,,,,,,,,,,,,,,,,,,,,,,,,,,,,,,,,,,,,,,,,,,,,,,,,,
,,"[""comma""]",0,61,0,61,0,1,5f63bfde15806b111703d6f9,22,Mężczyzna,2022-06-04_08h38.10.957,task,2021.1.4,Win32,59.97720866,628b806c463b948bc644b84f,629afdadcaaa92ffdccc9ea6,[0.32509999999999195],,,,,,,,,,,,,,,,,,,,,,,,,,,,,,,,,,,,,,,,,,,,,,,,,,,,,,,,,,,,,,,,,,,,,,,,,,,,,,,,,,,,,,,,,,,,,,,,,,,,,,,
,,"[""period""]",0,62,0,62,0,1,5f63bfde15806b111703d6f9,22,Mężczyzna,2022-06-04_08h38.10.957,task,2021.1.4,Win32,59.97720866,628b806c463b948bc644b84f,629afdadcaaa92ffdccc9ea6,[0.3003999999999962],,,,,,,,,,,,,,,,,,,,,,,,,,,,,,,,,,,,,,,,,,,,,,,,,,,,,,,,,,,,,,,,,,,,,,,,,,,,,,,,,,,,,,,,,,,,,,,,,,,,,,,
,,"[""comma""]",0,63,0,63,0,1,5f63bfde15806b111703d6f9,22,Mężczyzna,2022-06-04_08h38.10.957,task,2021.1.4,Win32,59.97720866,628b806c463b948bc644b84f,629afdadcaaa92ffdccc9ea6,[0.4087000000000671],,,,,,,,,,,,,,,,,,,,,,,,,,,,,,,,,,,,,,,,,,,,,,,,,,,,,,,,,,,,,,,,,,,,,,,,,,,,,,,,,,,,,,,,,,,,,,,,,,,,,,,
,,"[""comma""]",0,64,0,64,0,1,5f63bfde15806b111703d6f9,22,Mężczyzna,2022-06-04_08h38.10.957,task,2021.1.4,Win32,59.97720866,628b806c463b948bc644b84f,629afdadcaaa92ffdccc9ea6,[0.266900000000021],,,,,,,,,,,,,,,,,,,,,,,,,,,,,,,,,,,,,,,,,,,,,,,,,,,,,,,,,,,,,,,,,,,,,,,,,,,,,,,,,,,,,,,,,,,,,,,,,,,,,,,
,,"[""period"",""period""]",0,65,0,65,0,1,5f63bfde15806b111703d6f9,22,Mężczyzna,2022-06-04_08h38.10.957,task,2021.1.4,Win32,59.97720866,628b806c463b948bc644b84f,629afdadcaaa92ffdccc9ea6,"[0.050499999999999545,1.606699999999961]",,,,,,,,,,,,,,,,,,,,,,,,,,,,,,,,,,,,,,,,,,,,,,,,,,,,,,,,,,,,,,,,,,,,,,,,,,,,,,,,,,,,,,,,,,,,,,,,,,,,,,,
,,"[""period""]",0,66,0,66,0,1,5f63bfde15806b111703d6f9,22,Mężczyzna,2022-06-04_08h38.10.957,task,2021.1.4,Win32,59.97720866,628b806c463b948bc644b84f,629afdadcaaa92ffdccc9ea6,[1.720499999999987],,,,,,,,,,,,,,,,,,,,,,,,,,,,,,,,,,,,,,,,,,,,,,,,,,,,,,,,,,,,,,,,,,,,,,,,,,,,,,,,,,,,,,,,,,,,,,,,,,,,,,,
,,"[""comma""]",0,67,0,67,0,1,5f63bfde15806b111703d6f9,22,Mężczyzna,2022-06-04_08h38.10.957,task,2021.1.4,Win32,59.97720866,628b806c463b948bc644b84f,629afdadcaaa92ffdccc9ea6,[1.8341000000000918],,,,,,,,,,,,,,,,,,,,,,,,,,,,,,,,,,,,,,,,,,,,,,,,,,,,,,,,,,,,,,,,,,,,,,,,,,,,,,,,,,,,,,,,,,,,,,,,,,,,,,,
,,"[""period""]",0,68,0,68,0,1,5f63bfde15806b111703d6f9,22,Mężczyzna,2022-06-04_08h38.10.957,task,2021.1.4,Win32,59.97720866,628b806c463b948bc644b84f,629afdadcaaa92ffdccc9ea6,[1.9559000000000424],,,,,,,,,,,,,,,,,,,,,,,,,,,,,,,,,,,,,,,,,,,,,,,,,,,,,,,,,,,,,,,,,,,,,,,,,,,,,,,,,,,,,,,,,,,,,,,,,,,,,,,
,,,0,69,0,69,0,1,5f63bfde15806b111703d6f9,22,Mężczyzna,2022-06-04_08h38.10.957,task,2021.1.4,Win32,59.97720866,628b806c463b948bc644b84f,629afdadcaaa92ffdccc9ea6,,,,,,,,,,,,,,,,,,,,,,,,,,,,,,,,,,,,,,,,,,,,,,,,,,,,,,,,,,,,,,,,,,,,,,,,,,,,,,,,,,,,,,,,,,,,,,,,,,,,,,,,
,,"[""comma""]",0,70,0,70,0,1,5f63bfde15806b111703d6f9,22,Mężczyzna,2022-06-04_08h38.10.957,task,2021.1.4,Win32,59.97720866,628b806c463b948bc644b84f,629afdadcaaa92ffdccc9ea6,[0.2776000000001204],,,,,,,,,,,,,,,,,,,,,,,,,,,,,,,,,,,,,,,,,,,,,,,,,,,,,,,,,,,,,,,,,,,,,,,,,,,,,,,,,,,,,,,,,,,,,,,,,,,,,,,
,,"[""comma""]",0,71,0,71,0,1,5f63bfde15806b111703d6f9,22,Mężczyzna,2022-06-04_08h38.10.957,task,2021.1.4,Win32,59.97720866,628b806c463b948bc644b84f,629afdadcaaa92ffdccc9ea6,[0.3257000000000687],,,,,,,,,,,,,,,,,,,,,,,,,,,,,,,,,,,,,,,,,,,,,,,,,,,,,,,,,,,,,,,,,,,,,,,,,,,,,,,,,,,,,,,,,,,,,,,,,,,,,,,
,,"[""period""]",0,72,0,72,0,1,5f63bfde15806b111703d6f9,22,Mężczyzna,2022-06-04_08h38.10.957,task,2021.1.4,Win32,59.97720866,628b806c463b948bc644b84f,629afdadcaaa92ffdccc9ea6,[0.18469999999993547],,,,,,,,,,,,,,,,,,,,,,,,,,,,,,,,,,,,,,,,,,,,,,,,,,,,,,,,,,,,,,,,,,,,,,,,,,,,,,,,,,,,,,,,,,,,,,,,,,,,,,,
,,"[""comma""]",0,73,0,73,0,1,5f63bfde15806b111703d6f9,22,Mężczyzna,2022-06-04_08h38.10.957,task,2021.1.4,Win32,59.97720866,628b806c463b948bc644b84f,629afdadcaaa92ffdccc9ea6,[0.7164000000000215],,,,,,,,,,,,,,,,,,,,,,,,,,,,,,,,,,,,,,,,,,,,,,,,,,,,,,,,,,,,,,,,,,,,,,,,,,,,,,,,,,,,,,,,,,,,,,,,,,,,,,,
,,"[""comma""]",0,74,0,74,0,1,5f63bfde15806b111703d6f9,22,Mężczyzna,2022-06-04_08h38.10.957,task,2021.1.4,Win32,59.97720866,628b806c463b948bc644b84f,629afdadcaaa92ffdccc9ea6,[0.3669000000000153],,,,,,,,,,,,,,,,,,,,,,,,,,,,,,,,,,,,,,,,,,,,,,,,,,,,,,,,,,,,,,,,,,,,,,,,,,,,,,,,,,,,,,,,,,,,,,,,,,,,,,,
,,"[""comma""]",0,75,0,75,0,1,5f63bfde15806b111703d6f9,22,Mężczyzna,2022-06-04_08h38.10.957,task,2021.1.4,Win32,59.97720866,628b806c463b948bc644b84f,629afdadcaaa92ffdccc9ea6,[0.4173000000000968],,,,,,,,,,,,,,,,,,,,,,,,,,,,,,,,,,,,,,,,,,,,,,,,,,,,,,,,,,,,,,,,,,,,,,,,,,,,,,,,,,,,,,,,,,,,,,,,,,,,,,,
,,"[""period""]",0,76,0,76,0,1,5f63bfde15806b111703d6f9,22,Mężczyzna,2022-06-04_08h38.10.957,task,2021.1.4,Win32,59.97720866,628b806c463b948bc644b84f,629afdadcaaa92ffdccc9ea6,[0.1220000000000141],,,,,,,,,,,,,,,,,,,,,,,,,,,,,,,,,,,,,,,,,,,,,,,,,,,,,,,,,,,,,,,,,,,,,,,,,,,,,,,,,,,,,,,,,,,,,,,,,,,,,,,
,,"[""comma""]",0,77,0,77,0,1,5f63bfde15806b111703d6f9,22,Mężczyzna,2022-06-04_08h38.10.957,task,2021.1.4,Win32,59.97720866,628b806c463b948bc644b84f,629afdadcaaa92ffdccc9ea6,[0.33600000000001273],,,,,,,,,,,,,,,,,,,,,,,,,,,,,,,,,,,,,,,,,,,,,,,,,,,,,,,,,,,,,,,,,,,,,,,,,,,,,,,,,,,,,,,,,,,,,,,,,,,,,,,
,,"[""period""]",0,78,0,78,0,1,5f63bfde15806b111703d6f9,22,Mężczyzna,2022-06-04_08h38.10.957,task,2021.1.4,Win32,59.97720866,628b806c463b948bc644b84f,629afdadcaaa92ffdccc9ea6,[0.05190000000004602],,,,,,,,,,,,,,,,,,,,,,,,,,,,,,,,,,,,,,,,,,,,,,,,,,,,,,,,,,,,,,,,,,,,,,,,,,,,,,,,,,,,,,,,,,,,,,,,,,,,,,,
,,"[""period""]",0,79,0,79,0,1,5f63bfde15806b111703d6f9,22,Mężczyzna,2022-06-04_08h38.10.957,task,2021.1.4,Win32,59.97720866,628b806c463b948bc644b84f,629afdadcaaa92ffdccc9ea6,[0.24359999999995807],,,,,,,,,,,,,,,,,,,,,,,,,,,,,,,,,,,,,,,,,,,,,,,,,,,,,,,,,,,,,,,,,,,,,,,,,,,,,,,,,,,,,,,,,,,,,,,,,,,,,,,
,,"[""comma""]",0,80,0,80,0,1,5f63bfde15806b111703d6f9,22,Mężczyzna,2022-06-04_08h38.10.957,task,2021.1.4,Win32,59.97720866,628b806c463b948bc644b84f,629afdadcaaa92ffdccc9ea6,[0.27040000000005193],,,,,,,,,,,,,,,,,,,,,,,,,,,,,,,,,,,,,,,,,,,,,,,,,,,,,,,,,,,,,,,,,,,,,,,,,,,,,,,,,,,,,,,,,,,,,,,,,,,,,,,
,,"[""period"",""period""]",0,81,0,81,0,1,5f63bfde15806b111703d6f9,22,Mężczyzna,2022-06-04_08h38.10.957,task,2021.1.4,Win32,59.97720866,628b806c463b948bc644b84f,629afdadcaaa92ffdccc9ea6,"[0.09240000000005466,1.9510000000000218]",,,,,,,,,,,,,,,,,,,,,,,,,,,,,,,,,,,,,,,,,,,,,,,,,,,,,,,,,,,,,,,,,,,,,,,,,,,,,,,,,,,,,,,,,,,,,,,,,,,,,,,
,,"[""period""]",0,82,0,82,0,1,5f63bfde15806b111703d6f9,22,Mężczyzna,2022-06-04_08h38.10.957,task,2021.1.4,Win32,59.97720866,628b806c463b948bc644b84f,629afdadcaaa92ffdccc9ea6,[1.8432000000000812],,,,,,,,,,,,,,,,,,,,,,,,,,,,,,,,,,,,,,,,,,,,,,,,,,,,,,,,,,,,,,,,,,,,,,,,,,,,,,,,,,,,,,,,,,,,,,,,,,,,,,,
,,"[""period""]",0,83,0,83,0,1,5f63bfde15806b111703d6f9,22,Mężczyzna,2022-06-04_08h38.10.957,task,2021.1.4,Win32,59.97720866,628b806c463b948bc644b84f,629afdadcaaa92ffdccc9ea6,[1.9721000000000117],,,,,,,,,,,,,,,,,,,,,,,,,,,,,,,,,,,,,,,,,,,,,,,,,,,,,,,,,,,,,,,,,,,,,,,,,,,,,,,,,,,,,,,,,,,,,,,,,,,,,,,
,,,0,84,0,84,0,1,5f63bfde15806b111703d6f9,22,Mężczyzna,2022-06-04_08h38.10.957,task,2021.1.4,Win32,59.97720866,628b806c463b948bc644b84f,629afdadcaaa92ffdccc9ea6,,,,,,,,,,,,,,,,,,,,,,,,,,,,,,,,,,,,,,,,,,,,,,,,,,,,,,,,,,,,,,,,,,,,,,,,,,,,,,,,,,,,,,,,,,,,,,,,,,,,,,,,
,,"[""comma""]",0,85,0,85,0,1,5f63bfde15806b111703d6f9,22,Mężczyzna,2022-06-04_08h38.10.957,task,2021.1.4,Win32,59.97720866,628b806c463b948bc644b84f,629afdadcaaa92ffdccc9ea6,[0.28390000000007376],,,,,,,,,,,,,,,,,,,,,,,,,,,,,,,,,,,,,,,,,,,,,,,,,,,,,,,,,,,,,,,,,,,,,,,,,,,,,,,,,,,,,,,,,,,,,,,,,,,,,,,
,,"[""period""]",0,86,0,86,0,1,5f63bfde15806b111703d6f9,22,Mężczyzna,2022-06-04_08h38.10.957,task,2021.1.4,Win32,59.97720866,628b806c463b948bc644b84f,629afdadcaaa92ffdccc9ea6,[0.2004999999999768],,,,,,,,,,,,,,,,,,,,,,,,,,,,,,,,,,,,,,,,,,,,,,,,,,,,,,,,,,,,,,,,,,,,,,,,,,,,,,,,,,,,,,,,,,,,,,,,,,,,,,,
,,"[""period""]",0,87,0,87,0,1,5f63bfde15806b111703d6f9,22,Mężczyzna,2022-06-04_08h38.10.957,task,2021.1.4,Win32,59.97720866,628b806c463b948bc644b84f,629afdadcaaa92ffdccc9ea6,[0.037800000000004275],,,,,,,,,,,,,,,,,,,,,,,,,,,,,,,,,,,,,,,,,,,,,,,,,,,,,,,,,,,,,,,,,,,,,,,,,,,,,,,,,,,,,,,,,,,,,,,,,,,,,,,
,,"[""comma""]",0,88,0,88,0,1,5f63bfde15806b111703d6f9,22,Mężczyzna,2022-06-04_08h38.10.957,task,2021.1.4,Win32,59.97720866,628b806c463b948bc644b84f,629afdadcaaa92ffdccc9ea6,[0.04059999999998354],,,,,,,,,,,,,,,,,,,,,,,,,,,,,,,,,,,,,,,,,,,,,,,,,,,,,,,,,,,,,,,,,,,,,,,,,,,,,,,,,,,,,,,,,,,,,,,,,,,,,,,
,,"[""comma""]",0,89,0,89,0,1,5f63bfde15806b111703d6f9,22,Mężczyzna,2022-06-04_08h38.10.957,task,2021.1.4,Win32,59.97720866,628b806c463b948bc644b84f,629afdadcaaa92ffdccc9ea6,[0.06019999999995207],,,,,,,,,,,,,,,,,,,,,,,,,,,,,,,,,,,,,,,,,,,,,,,,,,,,,,,,,,,,,,,,,,,,,,,,,,,,,,,,,,,,,,,,,,,,,,,,,,,,,,,
,,"[""period""]",0,90,0,90,0,1,5f63bfde15806b111703d6f9,22,Mężczyzna,2022-06-04_08h38.10.957,task,2021.1.4,Win32,59.97720866,628b806c463b948bc644b84f,629afdadcaaa92ffdccc9ea6,[-0.0067999999999415195],,,,,,,,,,,,,,,,,,,,,,,,,,,,,,,,,,,,,,,,,,,,,,,,,,,,,,,,,,,,,,,,,,,,,,,,,,,,,,,,,,,,,,,,,,,,,,,,,,,,,,,
,,"[""comma""]",0,91,0,91,0,1,5f63bfde15806b111703d6f9,22,Mężczyzna,2022-06-04_08h38.10.957,task,2021.1.4,Win32,59.97720866,628b806c463b948bc644b84f,629afdadcaaa92ffdccc9ea6,[0.11240000000003647],,,,,,,,,,,,,,,,,,,,,,,,,,,,,,,,,,,,,,,,,,,,,,,,,,,,,,,,,,,,,,,,,,,,,,,,,,,,,,,,,,,,,,,,,,,,,,,,,,,,,,,
,,"[""period""]",0,92,0,92,0,1,5f63bfde15806b111703d6f9,22,Mężczyzna,2022-06-04_08h38.10.957,task,2021.1.4,Win32,59.97720866,628b806c463b948bc644b84f,629afdadcaaa92ffdccc9ea6,[0.27199999999999136],,,,,,,,,,,,,,,,,,,,,,,,,,,,,,,,,,,,,,,,,,,,,,,,,,,,,,,,,,,,,,,,,,,,,,,,,,,,,,,,,,,,,,,,,,,,,,,,,,,,,,,
,,"[""comma""]",0,93,0,93,0,1,5f63bfde15806b111703d6f9,22,Mężczyzna,2022-06-04_08h38.10.957,task,2021.1.4,Win32,59.97720866,628b806c463b948bc644b84f,629afdadcaaa92ffdccc9ea6,[0.8328000000000202],,,,,,,,,,,,,,,,,,,,,,,,,,,,,,,,,,,,,,,,,,,,,,,,,,,,,,,,,,,,,,,,,,,,,,,,,,,,,,,,,,,,,,,,,,,,,,,,,,,,,,,
,,"[""comma""]",0,94,0,94,0,1,5f63bfde15806b111703d6f9,22,Mężczyzna,2022-06-04_08h38.10.957,task,2021.1.4,Win32,59.97720866,628b806c463b948bc644b84f,629afdadcaaa92ffdccc9ea6,[0.36709999999999354],,,,,,,,,,,,,,,,,,,,,,,,,,,,,,,,,,,,,,,,,,,,,,,,,,,,,,,,,,,,,,,,,,,,,,,,,,,,,,,,,,,,,,,,,,,,,,,,,,,,,,,
,,"[""comma"",""period""]",0,95,0,95,0,1,5f63bfde15806b111703d6f9,22,Mężczyzna,2022-06-04_08h38.10.957,task,2021.1.4,Win32,59.97720866,628b806c463b948bc644b84f,629afdadcaaa92ffdccc9ea6,"[0.3735999999999535,1.8769000000000347]",,,,,,,,,,,,,,,,,,,,,,,,,,,,,,,,,,,,,,,,,,,,,,,,,,,,,,,,,,,,,,,,,,,,,,,,,,,,,,,,,,,,,,,,,,,,,,,,,,,,,,,
,,,0,96,0,96,0,1,5f63bfde15806b111703d6f9,22,Mężczyzna,2022-06-04_08h38.10.957,task,2021.1.4,Win32,59.97720866,628b806c463b948bc644b84f,629afdadcaaa92ffdccc9ea6,,,,,,,,,,,,,,,,,,,,,,,,,,,,,,,,,,,,,,,,,,,,,,,,,,,,,,,,,,,,,,,,,,,,,,,,,,,,,,,,,,,,,,,,,,,,,,,,,,,,,,,,
,,"[""comma""]",0,97,0,97,0,1,5f63bfde15806b111703d6f9,22,Mężczyzna,2022-06-04_08h38.10.957,task,2021.1.4,Win32,59.97720866,628b806c463b948bc644b84f,629afdadcaaa92ffdccc9ea6,[0.2599999999999909],,,,,,,,,,,,,,,,,,,,,,,,,,,,,,,,,,,,,,,,,,,,,,,,,,,,,,,,,,,,,,,,,,,,,,,,,,,,,,,,,,,,,,,,,,,,,,,,,,,,,,,
,,"[""period"",""comma""]",0,98,0,98,0,1,5f63bfde15806b111703d6f9,22,Mężczyzna,2022-06-04_08h38.10.957,task,2021.1.4,Win32,59.97720866,628b806c463b948bc644b84f,629afdadcaaa92ffdccc9ea6,"[0.304800000000057,1.9006000000001109]",,,,,,,,,,,,,,,,,,,,,,,,,,,,,,,,,,,,,,,,,,,,,,,,,,,,,,,,,,,,,,,,,,,,,,,,,,,,,,,,,,,,,,,,,,,,,,,,,,,,,,,
,,,0,99,0,99,0,1,5f63bfde15806b111703d6f9,22,Mężczyzna,2022-06-04_08h38.10.957,task,2021.1.4,Win32,59.97720866,628b806c463b948bc644b84f,629afdadcaaa92ffdccc9ea6,,,,,,,,,,,,,,,,,,,,,,,,,,,,,,,,,,,,,,,,,,,,,,,,,,,,,,,,,,,,,,,,,,,,,,,,,,,,,,,,,,,,,,,,,,,,,,,,,,,,,,,,
,,"[""period""]",0,100,0,100,0,1,5f63bfde15806b111703d6f9,22,Mężczyzna,2022-06-04_08h38.10.957,task,2021.1.4,Win32,59.97720866,628b806c463b948bc644b84f,629afdadcaaa92ffdccc9ea6,[0.1503999999999337],,,,,,,,,,,,,,,,,,,,,,,,,,,,,,,,,,,,,,,,,,,,,,,,,,,,,,,,,,,,,,,,,,,,,,,,,,,,,,,,,,,,,,,,,,,,,,,,,,,,,,,
,,"[""period""]",0,101,0,101,0,1,5f63bfde15806b111703d6f9,22,Mężczyzna,2022-06-04_08h38.10.957,task,2021.1.4,Win32,59.97720866,628b806c463b948bc644b84f,629afdadcaaa92ffdccc9ea6,[0.28369999999995343],,,,,,,,,,,,,,,,,,,,,,,,,,,,,,,,,,,,,,,,,,,,,,,,,,,,,,,,,,,,,,,,,,,,,,,,,,,,,,,,,,,,,,,,,,,,,,,,,,,,,,,
,,"[""comma""]",0,102,0,102,0,1,5f63bfde15806b111703d6f9,22,Mężczyzna,2022-06-04_08h38.10.957,task,2021.1.4,Win32,59.97720866,628b806c463b948bc644b84f,629afdadcaaa92ffdccc9ea6,[0.33869999999996026],,,,,,,,,,,,,,,,,,,,,,,,,,,,,,,,,,,,,,,,,,,,,,,,,,,,,,,,,,,,,,,,,,,,,,,,,,,,,,,,,,,,,,,,,,,,,,,,,,,,,,,
,,"[""period""]",0,103,0,103,0,1,5f63bfde15806b111703d6f9,22,Mężczyzna,2022-06-04_08h38.10.957,task,2021.1.4,Win32,59.97720866,628b806c463b948bc644b84f,629afdadcaaa92ffdccc9ea6,[0.2497000000000753],,,,,,,,,,,,,,,,,,,,,,,,,,,,,,,,,,,,,,,,,,,,,,,,,,,,,,,,,,,,,,,,,,,,,,,,,,,,,,,,,,,,,,,,,,,,,,,,,,,,,,,
,,"[""comma""]",0,104,0,104,0,1,5f63bfde15806b111703d6f9,22,Mężczyzna,2022-06-04_08h38.10.957,task,2021.1.4,Win32,59.97720866,628b806c463b948bc644b84f,629afdadcaaa92ffdccc9ea6,[0.12239999999991369],,,,,,,,,,,,,,,,,,,,,,,,,,,,,,,,,,,,,,,,,,,,,,,,,,,,,,,,,,,,,,,,,,,,,,,,,,,,,,,,,,,,,,,,,,,,,,,,,,,,,,,
,,"[""comma""]",0,105,0,105,0,1,5f63bfde15806b111703d6f9,22,Mężczyzna,2022-06-04_08h38.10.957,task,2021.1.4,Win32,59.97720866,628b806c463b948bc644b84f,629afdadcaaa92ffdccc9ea6,[0.2670999999999708],,,,,,,,,,,,,,,,,,,,,,,,,,,,,,,,,,,,,,,,,,,,,,,,,,,,,,,,,,,,,,,,,,,,,,,,,,,,,,,,,,,,,,,,,,,,,,,,,,,,,,,
,,"[""comma""]",0,106,0,106,0,1,5f63bfde15806b111703d6f9,22,Mężczyzna,2022-06-04_08h38.10.957,task,2021.1.4,Win32,59.97720866,628b806c463b948bc644b84f,629afdadcaaa92ffdccc9ea6,[0.08369999999990796],,,,,,,,,,,,,,,,,,,,,,,,,,,,,,,,,,,,,,,,,,,,,,,,,,,,,,,,,,,,,,,,,,,,,,,,,,,,,,,,,,,,,,,,,,,,,,,,,,,,,,,
,,"[""period""]",0,107,0,107,0,1,5f63bfde15806b111703d6f9,22,Mężczyzna,2022-06-04_08h38.10.957,task,2021.1.4,Win32,59.97720866,628b806c463b948bc644b84f,629afdadcaaa92ffdccc9ea6,[0.2348999999999819],,,,,,,,,,,,,,,,,,,,,,,,,,,,,,,,,,,,,,,,,,,,,,,,,,,,,,,,,,,,,,,,,,,,,,,,,,,,,,,,,,,,,,,,,,,,,,,,,,,,,,,
,,"[""period""]",0,108,0,108,0,1,5f63bfde15806b111703d6f9,22,Mężczyzna,2022-06-04_08h38.10.957,task,2021.1.4,Win32,59.97720866,628b806c463b948bc644b84f,629afdadcaaa92ffdccc9ea6,[0.3099000000000274],,,,,,,,,,,,,,,,,,,,,,,,,,,,,,,,,,,,,,,,,,,,,,,,,,,,,,,,,,,,,,,,,,,,,,,,,,,,,,,,,,,,,,,,,,,,,,,,,,,,,,,
,,"[""comma""]",0,109,0,109,0,1,5f63bfde15806b111703d6f9,22,Mężczyzna,2022-06-04_08h38.10.957,task,2021.1.4,Win32,59.97720866,628b806c463b948bc644b84f,629afdadcaaa92ffdccc9ea6,[0.28359999999997854],,,,,,,,,,,,,,,,,,,,,,,,,,,,,,,,,,,,,,,,,,,,,,,,,,,,,,,,,,,,,,,,,,,,,,,,,,,,,,,,,,,,,,,,,,,,,,,,,,,,,,,
,,"[""period""]",0,110,0,110,0,1,5f63bfde15806b111703d6f9,22,Mężczyzna,2022-06-04_08h38.10.957,task,2021.1.4,Win32,59.97720866,628b806c463b948bc644b84f,629afdadcaaa92ffdccc9ea6,[0.27630000000004884],,,,,,,,,,,,,,,,,,,,,,,,,,,,,,,,,,,,,,,,,,,,,,,,,,,,,,,,,,,,,,,,,,,,,,,,,,,,,,,,,,,,,,,,,,,,,,,,,,,,,,,
,,"[""period""]",0,111,0,111,0,1,5f63bfde15806b111703d6f9,22,Mężczyzna,2022-06-04_08h38.10.957,task,2021.1.4,Win32,59.97720866,628b806c463b948bc644b84f,629afdadcaaa92ffdccc9ea6,[0.259900000000016],,,,,,,,,,,,,,,,,,,,,,,,,,,,,,,,,,,,,,,,,,,,,,,,,,,,,,,,,,,,,,,,,,,,,,,,,,,,,,,,,,,,,,,,,,,,,,,,,,,,,,,
,,"[""period""]",0,112,0,112,0,1,5f63bfde15806b111703d6f9,22,Mężczyzna,2022-06-04_08h38.10.957,task,2021.1.4,Win32,59.97720866,628b806c463b948bc644b84f,629afdadcaaa92ffdccc9ea6,[0.38740000000001373],,,,,,,,,,,,,,,,,,,,,,,,,,,,,,,,,,,,,,,,,,,,,,,,,,,,,,,,,,,,,,,,,,,,,,,,,,,,,,,,,,,,,,,,,,,,,,,,,,,,,,,
,,"[""period""]",0,113,0,113,0,1,5f63bfde15806b111703d6f9,22,Mężczyzna,2022-06-04_08h38.10.957,task,2021.1.4,Win32,59.97720866,628b806c463b948bc644b84f,629afdadcaaa92ffdccc9ea6,[0.2842999999999165],,,,,,,,,,,,,,,,,,,,,,,,,,,,,,,,,,,,,,,,,,,,,,,,,,,,,,,,,,,,,,,,,,,,,,,,,,,,,,,,,,,,,,,,,,,,,,,,,,,,,,,
,,"[""comma""]",0,114,0,114,0,1,5f63bfde15806b111703d6f9,22,Mężczyzna,2022-06-04_08h38.10.957,task,2021.1.4,Win32,59.97720866,628b806c463b948bc644b84f,629afdadcaaa92ffdccc9ea6,[0.25900000000001455],,,,,,,,,,,,,,,,,,,,,,,,,,,,,,,,,,,,,,,,,,,,,,,,,,,,,,,,,,,,,,,,,,,,,,,,,,,,,,,,,,,,,,,,,,,,,,,,,,,,,,,
,,"[""period"",""period""]",0,115,0,115,0,1,5f63bfde15806b111703d6f9,22,Mężczyzna,2022-06-04_08h38.10.957,task,2021.1.4,Win32,59.97720866,628b806c463b948bc644b84f,629afdadcaaa92ffdccc9ea6,"[0.05389999999999873,1.7538000000000693]",,,,,,,,,,,,,,,,,,,,,,,,,,,,,,,,,,,,,,,,,,,,,,,,,,,,,,,,,,,,,,,,,,,,,,,,,,,,,,,,,,,,,,,,,,,,,,,,,,,,,,,
,,"[""comma""]",0,116,0,116,0,1,5f63bfde15806b111703d6f9,22,Mężczyzna,2022-06-04_08h38.10.957,task,2021.1.4,Win32,59.97720866,628b806c463b948bc644b84f,629afdadcaaa92ffdccc9ea6,[1.9290000000000305],,,,,,,,,,,,,,,,,,,,,,,,,,,,,,,,,,,,,,,,,,,,,,,,,,,,,,,,,,,,,,,,,,,,,,,,,,,,,,,,,,,,,,,,,,,,,,,,,,,,,,,
,,,0,117,0,117,0,1,5f63bfde15806b111703d6f9,22,Mężczyzna,2022-06-04_08h38.10.957,task,2021.1.4,Win32,59.97720866,628b806c463b948bc644b84f,629afdadcaaa92ffdccc9ea6,,,,,,,,,,,,,,,,,,,,,,,,,,,,,,,,,,,,,,,,,,,,,,,,,,,,,,,,,,,,,,,,,,,,,,,,,,,,,,,,,,,,,,,,,,,,,,,,,,,,,,,,
,,"[""comma""]",0,118,0,118,0,1,5f63bfde15806b111703d6f9,22,Mężczyzna,2022-06-04_08h38.10.957,task,2021.1.4,Win32,59.97720866,628b806c463b948bc644b84f,629afdadcaaa92ffdccc9ea6,[0.27619999999996026],,,,,,,,,,,,,,,,,,,,,,,,,,,,,,,,,,,,,,,,,,,,,,,,,,,,,,,,,,,,,,,,,,,,,,,,,,,,,,,,,,,,,,,,,,,,,,,,,,,,,,,
,,"[""comma""]",0,119,0,119,0,1,5f63bfde15806b111703d6f9,22,Mężczyzna,2022-06-04_08h38.10.957,task,2021.1.4,Win32,59.97720866,628b806c463b948bc644b84f,629afdadcaaa92ffdccc9ea6,[0.38709999999997535],,,,,,,,,,,,,,,,,,,,,,,,,,,,,,,,,,,,,,,,,,,,,,,,,,,,,,,,,,,,,,,,,,,,,,,,,,,,,,,,,,,,,,,,,,,,,,,,,,,,,,,
,,,,,,,,,5f63bfde15806b111703d6f9,22,Mężczyzna,2022-06-04_08h38.10.957,task,2021.1.4,Win32,59.97720866,628b806c463b948bc644b84f,629afdadcaaa92ffdccc9ea6,,space,225.1702,space,27.1777,0,0,0,0,1,X V Q F H G B L J M P D K C T S W R N Z,,,,,,,,,,,,,,,,,,,,,,,,,,,,,,,,,,,,,,,,,,,,,,,,,,,,,,,,,,,,,,,,,,,,,,,,,,,,,,,,,,,,,,,,,,,,,
,,,,,,,,,5f63bfde15806b111703d6f9,22,Mężczyzna,2022-06-04_08h38.10.957,task,2021.1.4,Win32,59.97720866,628b806c463b948bc644b84f,629afdadcaaa92ffdccc9ea6,,,,,,1,0,1,0,1,X V Q F H G B L J M P D K C T S W R N Z,,,,,,,,,,,,,,,,,,,,,,,,,,,,,,,,,,,,,,,,,,,,,,,,,,,,,,,,,,,,,,,,,,,,,,,,,,,,,,,,,,,,,,,,,,,,,
,,,,,,,,,5f63bfde15806b111703d6f9,22,Mężczyzna,2022-06-04_08h38.10.957,task,2021.1.4,Win32,59.97720866,628b806c463b948bc644b84f,629afdadcaaa92ffdccc9ea6,,,,,,,,,,,,zf,"[""z"",""f""]","[3.0516000000001213,3.49369999999999,6.018600000000106]",1,ZF,0,0,0,0,1,,,,,,,,,,,,,,,,,,,,,,,,,,,,,,,,,,,,,,,,,,,,,,,,,,,,,,,,,,,,,,,,,,,,,,,,,,,,,,,,,,,
,,,,,,,,,5f63bfde15806b111703d6f9,22,Mężczyzna,2022-06-04_08h38.10.957,task,2021.1.4,Win32,59.97720866,628b806c463b948bc644b84f,629afdadcaaa92ffdccc9ea6,,,,,,0,0,0,0,1,X V Q F H G B L J M P D K C T S W R N Z,,,,,,,,,,,,,,,,,,,,,,,,,,,,,,,,,,,,,,,,,,,,,,,,,,,,,,,,,,,,,,,,,,,,,,,,,,,,,,,,,,,,,,,,,,,,,
,,,,,,,,,5f63bfde15806b111703d6f9,22,Mężczyzna,2022-06-04_08h38.10.957,task,2021.1.4,Win32,59.97720866,628b806c463b948bc644b84f,629afdadcaaa92ffdccc9ea6,,,,,,1,0,1,0,1,X V Q F H G B L J M P D K C T S W R N Z,,,,,,,,,,,,,,,,,,,,,,,,,,,,,,,,,,,,,,,,,,,,,,,,,,,,,,,,,,,,,,,,,,,,,,,,,,,,,,,,,,,,,,,,,,,,,
,,,,,,,,,5f63bfde15806b111703d6f9,22,Mężczyzna,2022-06-04_08h38.10.957,task,2021.1.4,Win32,59.97720866,628b806c463b948bc644b84f,629afdadcaaa92ffdccc9ea6,,,,,,,,,,,,xc,"[""x"",""c""]","[4.3581000000001495,4.750600000000077,5.717300000000023]",1,XC,1,0,1,0,1,,,,,,,,,,,,,,,,,,,,,,,,,,,,,,,,,,,,,,,,,,,,,,,,,,,,,,,,,,,,,,,,,,,,,,,,,,,,,,,,,,,
,,,,,,,,,5f63bfde15806b111703d6f9,22,Mężczyzna,2022-06-04_08h38.10.957,task,2021.1.4,Win32,59.97720866,628b806c463b948bc644b84f,629afdadcaaa92ffdccc9ea6,,,,,,0,0,0,0,1,X V Q F H G B L J M P D K C T S W R N Z,,,,,,,,,,,,,,,,,,,,,,,,,,,,,,,,,,,,,,,,,,,,,,,,,,,,,,,,,,,,,,,,,,,,,,,,,,,,,,,,,,,,,,,,,,,,,
,,,,,,,,,5f63bfde15806b111703d6f9,22,Mężczyzna,2022-06-04_08h38.10.957,task,2021.1.4,Win32,59.97720866,628b806c463b948bc644b84f,629afdadcaaa92ffdccc9ea6,,,,,,1,0,1,0,1,X V Q F H G B L J M P D K C T S W R N Z,,,,,,,,,,,,,,,,,,,,,,,,,,,,,,,,,,,,,,,,,,,,,,,,,,,,,,,,,,,,,,,,,,,,,,,,,,,,,,,,,,,,,,,,,,,,,
,,,,,,,,,5f63bfde15806b111703d6f9,22,Mężczyzna,2022-06-04_08h38.10.957,task,2021.1.4,Win32,59.97720866,628b806c463b948bc644b84f,629afdadcaaa92ffdccc9ea6,,,,,,2,0,2,0,1,X V Q F H G B L J M P D K C T S W R N Z,,,,,,,,,,,,,,,,,,,,,,,,,,,,,,,,,,,,,,,,,,,,,,,,,,,,,,,,,,,,,,,,,,,,,,,,,,,,,,,,,,,,,,,,,,,,,
,,,,,,,,,5f63bfde15806b111703d6f9,22,Mężczyzna,2022-06-04_08h38.10.957,task,2021.1.4,Win32,59.97720866,628b806c463b948bc644b84f,629afdadcaaa92ffdccc9ea6,,,,,,,,,,,,vdj,"[""v"",""d"",""j""]","[2.9579000000001088,3.6171000000000504,4.0452999999999975,5.600900000000138]",1,VDJ,2,0,2,0,1,,,,,,,,,,,,,,,,,,,,,,,,,,,,,,,,,,,,,,,,,,,,,,,,,,,,,,,,,,,,,,,,,,,,,,,,,,,,,,,,,,,
,,,,,,,,,5f63bfde15806b111703d6f9,22,Mężczyzna,2022-06-04_08h38.10.957,task,2021.1.4,Win32,59.97720866,628b806c463b948bc644b84f,629afdadcaaa92ffdccc9ea6,,,,,,0,0,0,0,1,X V Q F H G B L J M P D K C T S W R N Z,,,,,,,,,,,,,,,,,,,,,,,,,,,,,,,,,,,,,,,,,,,,,,,,,,,,,,,,,,,,,,,,,,,,,,,,,,,,,,,,,,,,,,,,,,,,,
,,,,,,,,,5f63bfde15806b111703d6f9,22,Mężczyzna,2022-06-04_08h38.10.957,task,2021.1.4,Win32,59.97720866,628b806c463b948bc644b84f,629afdadcaaa92ffdccc9ea6,,,,,,1,0,1,0,1,X V Q F H G B L J M P D K C T S W R N Z,,,,,,,,,,,,,,,,,,,,,,,,,,,,,,,,,,,,,,,,,,,,,,,,,,,,,,,,,,,,,,,,,,,,,,,,,,,,,,,,,,,,,,,,,,,,,
,,,,,,,,,5f63bfde15806b111703d6f9,22,Mężczyzna,2022-06-04_08h38.10.957,task,2021.1.4,Win32,59.97720866,628b806c463b948bc644b84f,629afdadcaaa92ffdccc9ea6,,,,,,2,0,2,0,1,X V Q F H G B L J M P D K C T S W R N Z,,,,,,,,,,,,,,,,,,,,,,,,,,,,,,,,,,,,,,,,,,,,,,,,,,,,,,,,,,,,,,,,,,,,,,,,,,,,,,,,,,,,,,,,,,,,,
,,,,,,,,,5f63bfde15806b111703d6f9,22,Mężczyzna,2022-06-04_08h38.10.957,task,2021.1.4,Win32,59.97720866,628b806c463b948bc644b84f,629afdadcaaa92ffdccc9ea6,,,,,,,,,,,,bhx,"[""b"",""h"",""x""]","[1.3906999999999243,1.8993999999999005,2.537800000000061,3.300299999999993]",1,BHX,3,0,3,0,1,,,,,,,,,,,,,,,,,,,,,,,,,,,,,,,,,,,,,,,,,,,,,,,,,,,,,,,,,,,,,,,,,,,,,,,,,,,,,,,,,,,
,,,,,,,,,5f63bfde15806b111703d6f9,22,Mężczyzna,2022-06-04_08h38.10.957,task,2021.1.4,Win32,59.97720866,628b806c463b948bc644b84f,629afdadcaaa92ffdccc9ea6,,,,,,0,0,0,0,1,X V Q F H G B L J M P D K C T S W R N Z,,,,,,,,,,,,,,,,,,,,,,,,,,,,,,,,,,,,,,,,,,,,,,,,,,,,,,,,,,,,,,,,,,,,,,,,,,,,,,,,,,,,,,,,,,,,,
,,,,,,,,,5f63bfde15806b111703d6f9,22,Mężczyzna,2022-06-04_08h38.10.957,task,2021.1.4,Win32,59.97720866,628b806c463b948bc644b84f,629afdadcaaa92ffdccc9ea6,,,,,,1,0,1,0,1,X V Q F H G B L J M P D K C T S W R N Z,,,,,,,,,,,,,,,,,,,,,,,,,,,,,,,,,,,,,,,,,,,,,,,,,,,,,,,,,,,,,,,,,,,,,,,,,,,,,,,,,,,,,,,,,,,,,
,,,,,,,,,5f63bfde15806b111703d6f9,22,Mężczyzna,2022-06-04_08h38.10.957,task,2021.1.4,Win32,59.97720866,628b806c463b948bc644b84f,629afdadcaaa92ffdccc9ea6,,,,,,2,0,2,0,1,X V Q F H G B L J M P D K C T S W R N Z,,,,,,,,,,,,,,,,,,,,,,,,,,,,,,,,,,,,,,,,,,,,,,,,,,,,,,,,,,,,,,,,,,,,,,,,,,,,,,,,,,,,,,,,,,,,,
,,,,,,,,,5f63bfde15806b111703d6f9,22,Mężczyzna,2022-06-04_08h38.10.957,task,2021.1.4,Win32,59.97720866,628b806c463b948bc644b84f,629afdadcaaa92ffdccc9ea6,,,,,,3,0,3,0,1,X V Q F H G B L J M P D K C T S W R N Z,,,,,,,,,,,,,,,,,,,,,,,,,,,,,,,,,,,,,,,,,,,,,,,,,,,,,,,,,,,,,,,,,,,,,,,,,,,,,,,,,,,,,,,,,,,,,
,,,,,,,,,5f63bfde15806b111703d6f9,22,Mężczyzna,2022-06-04_08h38.10.957,task,2021.1.4,Win32,59.97720866,628b806c463b948bc644b84f,629afdadcaaa92ffdccc9ea6,,,,,,,,,,,,jfkk,"[""j"",""f"",""k"",""k""]","[4.23560000000009,4.876500000000078,5.359399999999937,5.522500000000036,6.000499999999988]",1,JFKK,4,0,4,0,1,,,,,,,,,,,,,,,,,,,,,,,,,,,,,,,,,,,,,,,,,,,,,,,,,,,,,,,,,,,,,,,,,,,,,,,,,,,,,,,,,,,
,,,,,,,,,5f63bfde15806b111703d6f9,22,Mężczyzna,2022-06-04_08h38.10.957,task,2021.1.4,Win32,59.97720866,628b806c463b948bc644b84f,629afdadcaaa92ffdccc9ea6,,,,,,0,0,0,0,1,X V Q F H G B L J M P D K C T S W R N Z,,,,,,,,,,,,,,,,,,,,,,,,,,,,,,,,,,,,,,,,,,,,,,,,,,,,,,,,,,,,,,,,,,,,,,,,,,,,,,,,,,,,,,,,,,,,,
,,,,,,,,,5f63bfde15806b111703d6f9,22,Mężczyzna,2022-06-04_08h38.10.957,task,2021.1.4,Win32,59.97720866,628b806c463b948bc644b84f,629afdadcaaa92ffdccc9ea6,,,,,,1,0,1,0,1,X V Q F H G B L J M P D K C T S W R N Z,,,,,,,,,,,,,,,,,,,,,,,,,,,,,,,,,,,,,,,,,,,,,,,,,,,,,,,,,,,,,,,,,,,,,,,,,,,,,,,,,,,,,,,,,,,,,
,,,,,,,,,5f63bfde15806b111703d6f9,22,Mężczyzna,2022-06-04_08h38.10.957,task,2021.1.4,Win32,59.97720866,628b806c463b948bc644b84f,629afdadcaaa92ffdccc9ea6,,,,,,2,0,2,0,1,X V Q F H G B L J M P D K C T S W R N Z,,,,,,,,,,,,,,,,,,,,,,,,,,,,,,,,,,,,,,,,,,,,,,,,,,,,,,,,,,,,,,,,,,,,,,,,,,,,,,,,,,,,,,,,,,,,,
,,,,,,,,,5f63bfde15806b111703d6f9,22,Mężczyzna,2022-06-04_08h38.10.957,task,2021.1.4,Win32,59.97720866,628b806c463b948bc644b84f,629afdadcaaa92ffdccc9ea6,,,,,,3,0,3,0,1,X V Q F H G B L J M P D K C T S W R N Z,,,,,,,,,,,,,,,,,,,,,,,,,,,,,,,,,,,,,,,,,,,,,,,,,,,,,,,,,,,,,,,,,,,,,,,,,,,,,,,,,,,,,,,,,,,,,
,,,,,,,,,5f63bfde15806b111703d6f9,22,Mężczyzna,2022-06-04_08h38.10.957,task,2021.1.4,Win32,59.97720866,628b806c463b948bc644b84f,629afdadcaaa92ffdccc9ea6,,,,,,,,,,,,ldnr,"[""l"",""d"",""n"",""r""]","[1.3999000000002297,1.8383000000001175,2.4337000000000444,2.7723000000000866,4.635300000000143]",1,LDNR,5,0,5,0,1,,,,,,,,,,,,,,,,,,,,,,,,,,,,,,,,,,,,,,,,,,,,,,,,,,,,,,,,,,,,,,,,,,,,,,,,,,,,,,,,,,,
,,,,,,,,,5f63bfde15806b111703d6f9,22,Mężczyzna,2022-06-04_08h38.10.957,task,2021.1.4,Win32,59.97720866,628b806c463b948bc644b84f,629afdadcaaa92ffdccc9ea6,,,,,,0,0,0,0,1,X V Q F H G B L J M P D K C T S W R N Z,,,,,,,,,,,,,,,,,,,,,,,,,,,,,,,,,,,,,,,,,,,,,,,,,,,,,,,,,,,,,,,,,,,,,,,,,,,,,,,,,,,,,,,,,,,,,
,,,,,,,,,5f63bfde15806b111703d6f9,22,Mężczyzna,2022-06-04_08h38.10.957,task,2021.1.4,Win32,59.97720866,628b806c463b948bc644b84f,629afdadcaaa92ffdccc9ea6,,,,,,1,0,1,0,1,X V Q F H G B L J M P D K C T S W R N Z,,,,,,,,,,,,,,,,,,,,,,,,,,,,,,,,,,,,,,,,,,,,,,,,,,,,,,,,,,,,,,,,,,,,,,,,,,,,,,,,,,,,,,,,,,,,,
,,,,,,,,,5f63bfde15806b111703d6f9,22,Mężczyzna,2022-06-04_08h38.10.957,task,2021.1.4,Win32,59.97720866,628b806c463b948bc644b84f,629afdadcaaa92ffdccc9ea6,,,,,,2,0,2,0,1,X V Q F H G B L J M P D K C T S W R N Z,,,,,,,,,,,,,,,,,,,,,,,,,,,,,,,,,,,,,,,,,,,,,,,,,,,,,,,,,,,,,,,,,,,,,,,,,,,,,,,,,,,,,,,,,,,,,
,,,,,,,,,5f63bfde15806b111703d6f9,22,Mężczyzna,2022-06-04_08h38.10.957,task,2021.1.4,Win32,59.97720866,628b806c463b948bc644b84f,629afdadcaaa92ffdccc9ea6,,,,,,3,0,3,0,1,X V Q F H G B L J M P D K C T S W R N Z,,,,,,,,,,,,,,,,,,,,,,,,,,,,,,,,,,,,,,,,,,,,,,,,,,,,,,,,,,,,,,,,,,,,,,,,,,,,,,,,,,,,,,,,,,,,,
,,,,,,,,,5f63bfde15806b111703d6f9,22,Mężczyzna,2022-06-04_08h38.10.957,task,2021.1.4,Win32,59.97720866,628b806c463b948bc644b84f,629afdadcaaa92ffdccc9ea6,,,,,,4,0,4,0,1,X V Q F H G B L J M P D K C T S W R N Z,,,,,,,,,,,,,,,,,,,,,,,,,,,,,,,,,,,,,,,,,,,,,,,,,,,,,,,,,,,,,,,,,,,,,,,,,,,,,,,,,,,,,,,,,,,,,
,,,,,,,,,5f63bfde15806b111703d6f9,22,Mężczyzna,2022-06-04_08h38.10.957,task,2021.1.4,Win32,59.97720866,628b806c463b948bc644b84f,629afdadcaaa92ffdccc9ea6,,,,,,,,,,,,fxpnb,"[""f"",""x"",""p"",""n"",""b""]","[1.533800000000042,4.401499999999942,5.1182999999999765,6.286199999999894,6.566500000000019,7.423199999999952]",1,FXPNB,6,0,6,0,1,,,,,,,,,,,,,,,,,,,,,,,,,,,,,,,,,,,,,,,,,,,,,,,,,,,,,,,,,,,,,,,,,,,,,,,,,,,,,,,,,,,
,,,,,,,,,5f63bfde15806b111703d6f9,22,Mężczyzna,2022-06-04_08h38.10.957,task,2021.1.4,Win32,59.97720866,628b806c463b948bc644b84f,629afdadcaaa92ffdccc9ea6,,,,,,0,0,0,0,1,X V Q F H G B L J M P D K C T S W R N Z,,,,,,,,,,,,,,,,,,,,,,,,,,,,,,,,,,,,,,,,,,,,,,,,,,,,,,,,,,,,,,,,,,,,,,,,,,,,,,,,,,,,,,,,,,,,,
,,,,,,,,,5f63bfde15806b111703d6f9,22,Mężczyzna,2022-06-04_08h38.10.957,task,2021.1.4,Win32,59.97720866,628b806c463b948bc644b84f,629afdadcaaa92ffdccc9ea6,,,,,,1,0,1,0,1,X V Q F H G B L J M P D K C T S W R N Z,,,,,,,,,,,,,,,,,,,,,,,,,,,,,,,,,,,,,,,,,,,,,,,,,,,,,,,,,,,,,,,,,,,,,,,,,,,,,,,,,,,,,,,,,,,,,
,,,,,,,,,5f63bfde15806b111703d6f9,22,Mężczyzna,2022-06-04_08h38.10.957,task,2021.1.4,Win32,59.97720866,628b806c463b948bc644b84f,629afdadcaaa92ffdccc9ea6,,,,,,2,0,2,0,1,X V Q F H G B L J M P D K C T S W R N Z,,,,,,,,,,,,,,,,,,,,,,,,,,,,,,,,,,,,,,,,,,,,,,,,,,,,,,,,,,,,,,,,,,,,,,,,,,,,,,,,,,,,,,,,,,,,,
,,,,,,,,,5f63bfde15806b111703d6f9,22,Mężczyzna,2022-06-04_08h38.10.957,task,2021.1.4,Win32,59.97720866,628b806c463b948bc644b84f,629afdadcaaa92ffdccc9ea6,,,,,,3,0,3,0,1,X V Q F H G B L J M P D K C T S W R N Z,,,,,,,,,,,,,,,,,,,,,,,,,,,,,,,,,,,,,,,,,,,,,,,,,,,,,,,,,,,,,,,,,,,,,,,,,,,,,,,,,,,,,,,,,,,,,
,,,,,,,,,5f63bfde15806b111703d6f9,22,Mężczyzna,2022-06-04_08h38.10.957,task,2021.1.4,Win32,59.97720866,628b806c463b948bc644b84f,629afdadcaaa92ffdccc9ea6,,,,,,4,0,4,0,1,X V Q F H G B L J M P D K C T S W R N Z,,,,,,,,,,,,,,,,,,,,,,,,,,,,,,,,,,,,,,,,,,,,,,,,,,,,,,,,,,,,,,,,,,,,,,,,,,,,,,,,,,,,,,,,,,,,,
,,,,,,,,,5f63bfde15806b111703d6f9,22,Mężczyzna,2022-06-04_08h38.10.957,task,2021.1.4,Win32,59.97720866,628b806c463b948bc644b84f,629afdadcaaa92ffdccc9ea6,,,,,,,,,,,,pdftz,"[""p"",""d"",""f"",""t"",""z""]","[1.3939000000001442,2.2244000000001733,3.4129000000001497,3.9506000000001222,4.473400000000083,4.9742000000002236]",1,PDFTZ,7,0,7,0,1,,,,,,,,,,,,,,,,,,,,,,,,,,,,,,,,,,,,,,,,,,,,,,,,,,,,,,,,,,,,,,,,,,,,,,,,,,,,,,,,,,,
,,,,,,,,,5f63bfde15806b111703d6f9,22,Mężczyzna,2022-06-04_08h38.10.957,task,2021.1.4,Win32,59.97720866,628b806c463b948bc644b84f,629afdadcaaa92ffdccc9ea6,,,,,,0,0,0,0,1,X V Q F H G B L J M P D K C T S W R N Z,,,,,,,,,,,,,,,,,,,,,,,,,,,,,,,,,,,,,,,,,,,,,,,,,,,,,,,,,,,,,,,,,,,,,,,,,,,,,,,,,,,,,,,,,,,,,
,,,,,,,,,5f63bfde15806b111703d6f9,22,Mężczyzna,2022-06-04_08h38.10.957,task,2021.1.4,Win32,59.97720866,628b806c463b948bc644b84f,629afdadcaaa92ffdccc9ea6,,,,,,1,0,1,0,1,X V Q F H G B L J M P D K C T S W R N Z,,,,,,,,,,,,,,,,,,,,,,,,,,,,,,,,,,,,,,,,,,,,,,,,,,,,,,,,,,,,,,,,,,,,,,,,,,,,,,,,,,,,,,,,,,,,,
,,,,,,,,,5f63bfde15806b111703d6f9,22,Mężczyzna,2022-06-04_08h38.10.957,task,2021.1.4,Win32,59.97720866,628b806c463b948bc644b84f,629afdadcaaa92ffdccc9ea6,,,,,,2,0,2,0,1,X V Q F H G B L J M P D K C T S W R N Z,,,,,,,,,,,,,,,,,,,,,,,,,,,,,,,,,,,,,,,,,,,,,,,,,,,,,,,,,,,,,,,,,,,,,,,,,,,,,,,,,,,,,,,,,,,,,
,,,,,,,,,5f63bfde15806b111703d6f9,22,Mężczyzna,2022-06-04_08h38.10.957,task,2021.1.4,Win32,59.97720866,628b806c463b948bc644b84f,629afdadcaaa92ffdccc9ea6,,,,,,3,0,3,0,1,X V Q F H G B L J M P D K C T S W R N Z,,,,,,,,,,,,,,,,,,,,,,,,,,,,,,,,,,,,,,,,,,,,,,,,,,,,,,,,,,,,,,,,,,,,,,,,,,,,,,,,,,,,,,,,,,,,,
,,,,,,,,,5f63bfde15806b111703d6f9,22,Mężczyzna,2022-06-04_08h38.10.957,task,2021.1.4,Win32,59.97720866,628b806c463b948bc644b84f,629afdadcaaa92ffdccc9ea6,,,,,,4,0,4,0,1,X V Q F H G B L J M P D K C T S W R N Z,,,,,,,,,,,,,,,,,,,,,,,,,,,,,,,,,,,,,,,,,,,,,,,,,,,,,,,,,,,,,,,,,,,,,,,,,,,,,,,,,,,,,,,,,,,,,
,,,,,,,,,5f63bfde15806b111703d6f9,22,Mężczyzna,2022-06-04_08h38.10.957,task,2021.1.4,Win32,59.97720866,628b806c463b948bc644b84f,629afdadcaaa92ffdccc9ea6,,,,,,5,0,5,0,1,X V Q F H G B L J M P D K C T S W R N Z,,,,,,,,,,,,,,,,,,,,,,,,,,,,,,,,,,,,,,,,,,,,,,,,,,,,,,,,,,,,,,,,,,,,,,,,,,,,,,,,,,,,,,,,,,,,,
,,,,,,,,,5f63bfde15806b111703d6f9,22,Mężczyzna,2022-06-04_08h38.10.957,task,2021.1.4,Win32,59.97720866,628b806c463b948bc644b84f,629afdadcaaa92ffdccc9ea6,,,,,,,,,,,,ptzmkd,"[""p"",""t"",""z"",""m"",""k"",""d""]","[1.0928999999998723,2.1936000000000604,2.619600000000105,3.226699999999937,3.499500000000012,3.677699999999959,4.2333999999999605]",0,PTZMKT,8,0,8,0,1,,,,,,,,,,,,,,,,,,,,,,,,,,,,,,,,,,,,,,,,,,,,,,,,,,,,,,,,,,,,,,,,,,,,,,,,,,,,,,,,,,,
,,,,,,,,,5f63bfde15806b111703d6f9,22,Mężczyzna,2022-06-04_08h38.10.957,task,2021.1.4,Win32,59.97720866,628b806c463b948bc644b84f,629afdadcaaa92ffdccc9ea6,,,,,,0,0,0,0,1,X V Q F H G B L J M P D K C T S W R N Z,,,,,,,,,,,,,,,,,,,,,,,,,,,,,,,,,,,,,,,,,,,,,,,,,,,,,,,,,,,,,,,,,,,,,,,,,,,,,,,,,,,,,,,,,,,,,
,,,,,,,,,5f63bfde15806b111703d6f9,22,Mężczyzna,2022-06-04_08h38.10.957,task,2021.1.4,Win32,59.97720866,628b806c463b948bc644b84f,629afdadcaaa92ffdccc9ea6,,,,,,1,0,1,0,1,X V Q F H G B L J M P D K C T S W R N Z,,,,,,,,,,,,,,,,,,,,,,,,,,,,,,,,,,,,,,,,,,,,,,,,,,,,,,,,,,,,,,,,,,,,,,,,,,,,,,,,,,,,,,,,,,,,,
,,,,,,,,,5f63bfde15806b111703d6f9,22,Mężczyzna,2022-06-04_08h38.10.957,task,2021.1.4,Win32,59.97720866,628b806c463b948bc644b84f,629afdadcaaa92ffdccc9ea6,,,,,,2,0,2,0,1,X V Q F H G B L J M P D K C T S W R N Z,,,,,,,,,,,,,,,,,,,,,,,,,,,,,,,,,,,,,,,,,,,,,,,,,,,,,,,,,,,,,,,,,,,,,,,,,,,,,,,,,,,,,,,,,,,,,
,,,,,,,,,5f63bfde15806b111703d6f9,22,Mężczyzna,2022-06-04_08h38.10.957,task,2021.1.4,Win32,59.97720866,628b806c463b948bc644b84f,629afdadcaaa92ffdccc9ea6,,,,,,3,0,3,0,1,X V Q F H G B L J M P D K C T S W R N Z,,,,,,,,,,,,,,,,,,,,,,,,,,,,,,,,,,,,,,,,,,,,,,,,,,,,,,,,,,,,,,,,,,,,,,,,,,,,,,,,,,,,,,,,,,,,,
,,,,,,,,,5f63bfde15806b111703d6f9,22,Mężczyzna,2022-06-04_08h38.10.957,task,2021.1.4,Win32,59.97720866,628b806c463b948bc644b84f,629afdadcaaa92ffdccc9ea6,,,,,,4,0,4,0,1,X V Q F H G B L J M P D K C T S W R N Z,,,,,,,,,,,,,,,,,,,,,,,,,,,,,,,,,,,,,,,,,,,,,,,,,,,,,,,,,,,,,,,,,,,,,,,,,,,,,,,,,,,,,,,,,,,,,
,,,,,,,,,5f63bfde15806b111703d6f9,22,Mężczyzna,2022-06-04_08h38.10.957,task,2021.1.4,Win32,59.97720866,628b806c463b948bc644b84f,629afdadcaaa92ffdccc9ea6,,,,,,5,0,5,0,1,X V Q F H G B L J M P D K C T S W R N Z,,,,,,,,,,,,,,,,,,,,,,,,,,,,,,,,,,,,,,,,,,,,,,,,,,,,,,,,,,,,,,,,,,,,,,,,,,,,,,,,,,,,,,,,,,,,,
,,,,,,,,,5f63bfde15806b111703d6f9,22,Mężczyzna,2022-06-04_08h38.10.957,task,2021.1.4,Win32,59.97720866,628b806c463b948bc644b84f,629afdadcaaa92ffdccc9ea6,,,,,,,,,,,,ghzkzm,"[""g"",""h"",""z"",""k"",""z"",""m""]","[1.2273000000000138,2.20029999999997,2.5836000000000467,3.5034999999999172,4.889200000000187,8.987499999999955,12.202300000000037]",0,GHZKZP,9,0,9,0,1,,,,,,,,,,,,,,,,,,,,,,,,,,,,,,,,,,,,,,,,,,,,,,,,,,,,,,,,,,,,,,,,,,,,,,,,,,,,,,,,,,,
,,,,,,,,,5f63bfde15806b111703d6f9,22,Mężczyzna,2022-06-04_08h38.10.957,task,2021.1.4,Win32,59.97720866,628b806c463b948bc644b84f,629afdadcaaa92ffdccc9ea6,,,,,,0,0,0,0,1,X V Q F H G B L J M P D K C T S W R N Z,,,,,,,,,,,,,,,,,,,,,,,,,,,,,,,,,,,,,,,,,,,,,,,,,,,,,,,,,,,,,,,,,,,,,,,,,,,,,,,,,,,,,,,,,,,,,
,,,,,,,,,5f63bfde15806b111703d6f9,22,Mężczyzna,2022-06-04_08h38.10.957,task,2021.1.4,Win32,59.97720866,628b806c463b948bc644b84f,629afdadcaaa92ffdccc9ea6,,,,,,1,0,1,0,1,X V Q F H G B L J M P D K C T S W R N Z,,,,,,,,,,,,,,,,,,,,,,,,,,,,,,,,,,,,,,,,,,,,,,,,,,,,,,,,,,,,,,,,,,,,,,,,,,,,,,,,,,,,,,,,,,,,,
,,,,,,,,,5f63bfde15806b111703d6f9,22,Mężczyzna,2022-06-04_08h38.10.957,task,2021.1.4,Win32,59.97720866,628b806c463b948bc644b84f,629afdadcaaa92ffdccc9ea6,,,,,,2,0,2,0,1,X V Q F H G B L J M P D K C T S W R N Z,,,,,,,,,,,,,,,,,,,,,,,,,,,,,,,,,,,,,,,,,,,,,,,,,,,,,,,,,,,,,,,,,,,,,,,,,,,,,,,,,,,,,,,,,,,,,
,,,,,,,,,5f63bfde15806b111703d6f9,22,Mężczyzna,2022-06-04_08h38.10.957,task,2021.1.4,Win32,59.97720866,628b806c463b948bc644b84f,629afdadcaaa92ffdccc9ea6,,,,,,3,0,3,0,1,X V Q F H G B L J M P D K C T S W R N Z,,,,,,,,,,,,,,,,,,,,,,,,,,,,,,,,,,,,,,,,,,,,,,,,,,,,,,,,,,,,,,,,,,,,,,,,,,,,,,,,,,,,,,,,,,,,,
,,,,,,,,,5f63bfde15806b111703d6f9,22,Mężczyzna,2022-06-04_08h38.10.957,task,2021.1.4,Win32,59.97720866,628b806c463b948bc644b84f,629afdadcaaa92ffdccc9ea6,,,,,,4,0,4,0,1,X V Q F H G B L J M P D K C T S W R N Z,,,,,,,,,,,,,,,,,,,,,,,,,,,,,,,,,,,,,,,,,,,,,,,,,,,,,,,,,,,,,,,,,,,,,,,,,,,,,,,,,,,,,,,,,,,,,
,,,,,,,,,5f63bfde15806b111703d6f9,22,Mężczyzna,2022-06-04_08h38.10.957,task,2021.1.4,Win32,59.97720866,628b806c463b948bc644b84f,629afdadcaaa92ffdccc9ea6,,,,,,5,0,5,0,1,X V Q F H G B L J M P D K C T S W R N Z,,,,,,,,,,,,,,,,,,,,,,,,,,,,,,,,,,,,,,,,,,,,,,,,,,,,,,,,,,,,,,,,,,,,,,,,,,,,,,,,,,,,,,,,,,,,,
,,,,,,,,,5f63bfde15806b111703d6f9,22,Mężczyzna,2022-06-04_08h38.10.957,task,2021.1.4,Win32,59.97720866,628b806c463b948bc644b84f,629afdadcaaa92ffdccc9ea6,,,,,,,,,,,,zgbpjb,"[""z"",""g"",""b"",""p"",""j"",""b""]","[1.191699999999969,1.4526999999999362,2.0706999999998743,2.315400000000068,2.7596999999999525,7.924800000000005,8.682600000000093]",0,ZGBPJF,10,0,10,0,1,,,,,,,,,,,,,,,,,,,,,,,,,,,,,,,,,,,,,,,,,,,,,,,,,,,,,,,,,,,,,,,,,,,,,,,,,,,,,,,,,,,
,,,,,,,,,5f63bfde15806b111703d6f9,22,Mężczyzna,2022-06-04_08h38.10.957,task,2021.1.4,Win32,59.97720866,628b806c463b948bc644b84f,629afdadcaaa92ffdccc9ea6,,,,,,,,,,,,,,,,,,,,,,space,19.4717,4,"[""4""]",1,[19.883099999999786],[19.883099999999786],0,0,0,4,1,Practice,5,(2x6) - 8,4,,,,,,,,,,,,,,,,,,,,,,,,,,,,,,,,,,,,,,,,,,,,,,,,,,,,,,,,,,,,,,,,,,,
,,,,,,,,,5f63bfde15806b111703d6f9,22,Mężczyzna,2022-06-04_08h38.10.957,task,2021.1.4,Win32,59.97720866,628b806c463b948bc644b84f,629afdadcaaa92ffdccc9ea6,,,,,,,,,,,,,,,,,,,,,,,,8,"[""8""]",1,[15.250999999999976],"[19.883099999999786,15.250999999999976]",0,1,1,8,1,Practice,9,(3x3) - 1,8,,,,,,,,,,,,,,,,,,,,,,,,,,,,,,,,,,,,,,,,,,,,,,,,,,,,,,,,,,,,,,,,,,,
,,,,,,,,,5f63bfde15806b111703d6f9,22,Mężczyzna,2022-06-04_08h38.10.957,task,2021.1.4,Win32,59.97720866,628b806c463b948bc644b84f,629afdadcaaa92ffdccc9ea6,,,,,,,,,,,,,,,,,,,,,,,,7,"[""7""]",1,[5.94090000000017],"[19.883099999999786,15.250999999999976,5.94090000000017]",0,2,2,7,1,Practice,8,(5x5) - 18,7,,,,,,,,,,,,,,,,,,,,,,,,,,,,,,,,,,,,,,,,,,,,,,,,,,,,,,,,,,,,,,,,,,,
,,,,,,,,,5f63bfde15806b111703d6f9,22,Mężczyzna,2022-06-04_08h38.10.957,task,2021.1.4,Win32,59.97720866,628b806c463b948bc644b84f,629afdadcaaa92ffdccc9ea6,,,,,,,,,,,,,,,,,,,,,,,,1,"[""1""]",1,[8.311099999999897],"[19.883099999999786,15.250999999999976,5.94090000000017,8.311099999999897]",0,3,3,1,1,Practice,2,(4x4) - 15,1,,,,,,,,,,,,,,,,,,,,,,,,,,,,,,,,,,,,,,,,,,,,,,,,,,,,,,,,,,,,,,,,,,,
,,,,,,,,,5f63bfde15806b111703d6f9,22,Mężczyzna,2022-06-04_08h38.10.957,task,2021.1.4,Win32,59.97720866,628b806c463b948bc644b84f,629afdadcaaa92ffdccc9ea6,,,,,,,,,,,,,,,,,,,,,,,,6,"[""6""]",1,[4.451199999999972],"[19.883099999999786,15.250999999999976,5.94090000000017,8.311099999999897,4.451199999999972]",0,4,4,6,1,Practice,7,(25/5) + 1,6,,,,,,,,,,,,,,,,,,,,,,,,,,,,,,,,,,,,,,,,,,,,,,,,,,,,,,,,,,,,,,,,,,,
,,,,,,,,,5f63bfde15806b111703d6f9,22,Mężczyzna,2022-06-04_08h38.10.957,task,2021.1.4,Win32,59.97720866,628b806c463b948bc644b84f,629afdadcaaa92ffdccc9ea6,,,,,,,,,,,,,,,,,,,,,,,,5,"[""5""]",0,[3.2555000000000973],"[19.883099999999786,15.250999999999976,5.94090000000017,8.311099999999897,4.451199999999972,3.2555000000000973]",0,5,5,3,1,Practice,4,(8/4) + 1,3,,,,,,,,,,,,,,,,,,,,,,,,,,,,,,,,,,,,,,,,,,,,,,,,,,,,,,,,,,,,,,,,,,,
,,,,,,,,,5f63bfde15806b111703d6f9,22,Mężczyzna,2022-06-04_08h38.10.957,task,2021.1.4,Win32,59.97720866,628b806c463b948bc644b84f,629afdadcaaa92ffdccc9ea6,,,,,,,,,,,,,,,,,,,,,,,,2,"[""2""]",1,[2.1334999999999127],"[19.883099999999786,15.250999999999976,5.94090000000017,8.311099999999897,4.451199999999972,3.2555000000000973,2.1334999999999127]",0,6,6,2,1,Practice,3,(4x4) - 14,2,,,,,,,,,,,,,,,,,,,,,,,,,,,,,,,,,,,,,,,,,,,,,,,,,,,,,,,,,,,,,,,,,,,
,,,,,,,,,5f63bfde15806b111703d6f9,22,Mężczyzna,2022-06-04_08h38.10.957,task,2021.1.4,Win32,59.97720866,628b806c463b948bc644b84f,629afdadcaaa92ffdccc9ea6,,,,,,,,,,,,,,,,,,,,,,,,5,"[""5""]",1,[4.5172000000000025],"[19.883099999999786,15.250999999999976,5.94090000000017,8.311099999999897,4.451199999999972,3.2555000000000973,2.1334999999999127,4.5172000000000025]",0,7,7,5,1,Practice,6,(4/2) + 3,5,,,,,,,,,,,,,,,,,,,,,,,,,,,,,,,,,,,,,,,,,,,,,,,,,,,,,,,,,,,,,,,,,,,
,,,,,,,,,5f63bfde15806b111703d6f9,22,Mężczyzna,2022-06-04_08h38.10.957,task,2021.1.4,Win32,59.97720866,628b806c463b948bc644b84f,629afdadcaaa92ffdccc9ea6,,,,,,,,,,,,,,,,,,,,,,,,9,"[""9""]",1,[2.6376000000000204],"[19.883099999999786,15.250999999999976,5.94090000000017,8.311099999999897,4.451199999999972,3.2555000000000973,2.1334999999999127,4.5172000000000025,2.6376000000000204]",0,8,8,9,1,Practice,10,(20/2) - 1,9,,,,,,,,,,,,,,,,,,,,,,,,,,,,,,,,,,,,,,,,,,,,,,,,,,,,,,,,,,,,,,,,,,,
,,,,,,,,,5f63bfde15806b111703d6f9,22,Mężczyzna,2022-06-04_08h38.10.957,task,2021.1.4,Win32,59.97720866,628b806c463b948bc644b84f,629afdadcaaa92ffdccc9ea6,,,,,,,,,,,,,,,,,,,,,,,,0,"[""0""]",1,[2.3396000000001322],"[19.883099999999786,15.250999999999976,5.94090000000017,8.311099999999897,4.451199999999972,3.2555000000000973,2.1334999999999127,4.5172000000000025,2.6376000000000204,2.3396000000001322]",0,9,9,0,1,Practice,1,(3x3) -  9,0,,,,,,,,,,,,,,,,,,,,,,,,,,,,,,,,,,,,,,,,,,,,,,,,,,,,,,,,,,,,,,,,,,,
,,,,,,,,,5f63bfde15806b111703d6f9,22,Mężczyzna,2022-06-04_08h38.10.957,task,2021.1.4,Win32,59.97720866,628b806c463b948bc644b84f,629afdadcaaa92ffdccc9ea6,,,,,,,,,,,,,,,,,,,,,,,,,,,,,,,,,,,,,,0.9,68.7207,4.58138,380.3175302,5.035325413,17.57251957,space,3.3538,0,0,0,0,1,,,,,,,,,,,,,,,,,,,,,,,,,,,,,,,,,,,,,,,,,,,,,,,,,,,,,,
,,,,,,,,,5f63bfde15806b111703d6f9,22,Mężczyzna,2022-06-04_08h38.10.957,task,2021.1.4,Win32,59.97720866,628b806c463b948bc644b84f,629afdadcaaa92ffdccc9ea6,,,,,,,,,,,,,,,,,,,,,,,,8,,,,,,,,,,Practice,9,(3x3) - 1,8,,,,,,,,,,,,,,space,24.4361,"[""8""]",1,[12.766900000000192],1,0,0,0,8,1,,,,,,,,,,,,,,,,,,,,,,,,,,,,,,,,,,,,,,,,,,,
,,,,,,,,,5f63bfde15806b111703d6f9,22,Mężczyzna,2022-06-04_08h38.10.957,task,2021.1.4,Win32,59.97720866,628b806c463b948bc644b84f,629afdadcaaa92ffdccc9ea6,,,,,,,,,,,X V Q F H G B L J M P D K C T S W R N Z,,,,,,,,,,,,,,,,,,,,,,,,,,,,,,,,,,,,,,,,,,,,,,,,,,,0,0,0,0,1,,,,,,,,,,,,,,,,,,,,,,,,,,,,,,,,,,,,,,
,,,,,,,,,5f63bfde15806b111703d6f9,22,Mężczyzna,2022-06-04_08h38.10.957,task,2021.1.4,Win32,59.97720866,628b806c463b948bc644b84f,629afdadcaaa92ffdccc9ea6,,,,,,,,,,,,,,,,,,,,,,,,6,,,,,,,,,,Practice,7,(25/5) + 1,6,,,,,,,,,,,,,,,,"[""6""]",1,[8.717100000000073],1,0,0,0,6,1,,,,,,,,,,,,,,,,,,,,,,,,,,,,,,,,,,,,,,,,,,,
,,,,,,,,,5f63bfde15806b111703d6f9,22,Mężczyzna,2022-06-04_08h38.10.957,task,2021.1.4,Win32,59.97720866,628b806c463b948bc644b84f,629afdadcaaa92ffdccc9ea6,,,,,,,,,,,X V Q F H G B L J M P D K C T S W R N Z,,,,,,,,,,,,,,,,,,,,,,,,,,,,,,,,,,,,,,,,,,,,,,,,,,,1,0,1,0,1,,,,,,,,,,,,,,,,,,,,,,,,,,,,,,,,,,,,,,
,,,,,,,,,5f63bfde15806b111703d6f9,22,Mężczyzna,2022-06-04_08h38.10.957,task,2021.1.4,Win32,59.97720866,628b806c463b948bc644b84f,629afdadcaaa92ffdccc9ea6,,,,,,,,,,,,,,,,,,,,,,,,,,,,,,,,,,,,,,,,,,,,,,,,,,,,,,,,,,,,,,,,,,,zk,"[""z"",""k""]",0,"[4.169100000000071,4.540200000000141,6.151800000000094]",1,0,0,0,0,1,,,,,,,,,,,,,,,,,,,,,,,,,,,,
,,,,,,,,,5f63bfde15806b111703d6f9,22,Mężczyzna,2022-06-04_08h38.10.957,task,2021.1.4,Win32,59.97720866,628b806c463b948bc644b84f,629afdadcaaa92ffdccc9ea6,,,,,,,,,,,,,,,,,,,,,,,,1,,,,,,,,,,Practice,2,(4x4) - 15,1,,,,,,,,,,,,,,,,"[""1""]",1,[2.8104000000000724],1,0,0,0,1,1,,,,,,,,,,,,,,,,,,,,,,,,,,,,,,,,,,,,,,,,,,,
,,,,,,,,,5f63bfde15806b111703d6f9,22,Mężczyzna,2022-06-04_08h38.10.957,task,2021.1.4,Win32,59.97720866,628b806c463b948bc644b84f,629afdadcaaa92ffdccc9ea6,,,,,,,,,,,X V Q F H G B L J M P D K C T S W R N Z,,,,,,,,,,,,,,,,,,,,,,,,,,,,,,,,,,,,,,,,,,,,,,,,,,,0,0,0,0,1,,,,,,,,,,,,,,,,,,,,,,,,,,,,,,,,,,,,,,
,,,,,,,,,5f63bfde15806b111703d6f9,22,Mężczyzna,2022-06-04_08h38.10.957,task,2021.1.4,Win32,59.97720866,628b806c463b948bc644b84f,629afdadcaaa92ffdccc9ea6,,,,,,,,,,,,,,,,,,,,,,,,5,,,,,,,,,,Practice,6,(4/2) + 3,5,,,,,,,,,,,,,,,,"[""5""]",1,[4.984100000000126],1,0,0,0,5,1,,,,,,,,,,,,,,,,,,,,,,,,,,,,,,,,,,,,,,,,,,,
,,,,,,,,,5f63bfde15806b111703d6f9,22,Mężczyzna,2022-06-04_08h38.10.957,task,2021.1.4,Win32,59.97720866,628b806c463b948bc644b84f,629afdadcaaa92ffdccc9ea6,,,,,,,,,,,X V Q F H G B L J M P D K C T S W R N Z,,,,,,,,,,,,,,,,,,,,,,,,,,,,,,,,,,,,,,,,,,,,,,,,,,,1,0,1,0,1,,,,,,,,,,,,,,,,,,,,,,,,,,,,,,,,,,,,,,
,,,,,,,,,5f63bfde15806b111703d6f9,22,Mężczyzna,2022-06-04_08h38.10.957,task,2021.1.4,Win32,59.97720866,628b806c463b948bc644b84f,629afdadcaaa92ffdccc9ea6,,,,,,,,,,,,,,,,,,,,,,,,,,,,,,,,,,,,,,,,,,,,,,,,,,,,,,,,,,,,,,,,,,,tp,"[""t"",""p""]",0,"[3.342899999999986,3.693800000000124,4.555700000000002]",1,1,0,1,0,1,,,,,,,,,,,,,,,,,,,,,,,,,,,,
,,,,,,,,,5f63bfde15806b111703d6f9,22,Mężczyzna,2022-06-04_08h38.10.957,task,2021.1.4,Win32,59.97720866,628b806c463b948bc644b84f,629afdadcaaa92ffdccc9ea6,,,,,,,,,,,,,,,,,,,,,,,,3,,,,,,,,,,Practice,4,(8/4) + 1,3,,,,,,,,,,,,,,,,"[""3""]",1,[5.449799999999982],1,0,0,0,3,1,,,,,,,,,,,,,,,,,,,,,,,,,,,,,,,,,,,,,,,,,,,
,,,,,,,,,5f63bfde15806b111703d6f9,22,Mężczyzna,2022-06-04_08h38.10.957,task,2021.1.4,Win32,59.97720866,628b806c463b948bc644b84f,629afdadcaaa92ffdccc9ea6,,,,,,,,,,,X V Q F H G B L J M P D K C T S W R N Z,,,,,,,,,,,,,,,,,,,,,,,,,,,,,,,,,,,,,,,,,,,,,,,,,,,0,0,0,0,1,,,,,,,,,,,,,,,,,,,,,,,,,,,,,,,,,,,,,,
,,,,,,,,,5f63bfde15806b111703d6f9,22,Mężczyzna,2022-06-04_08h38.10.957,task,2021.1.4,Win32,59.97720866,628b806c463b948bc644b84f,629afdadcaaa92ffdccc9ea6,,,,,,,,,,,,,,,,,,,,,,,,2,,,,,,,,,,Practice,3,(4x4) - 14,2,,,,,,,,,,,,,,,,"[""2""]",1,[5.787899999999922],1,0,0,0,2,1,,,,,,,,,,,,,,,,,,,,,,,,,,,,,,,,,,,,,,,,,,,
,,,,,,,,,5f63bfde15806b111703d6f9,22,Mężczyzna,2022-06-04_08h38.10.957,task,2021.1.4,Win32,59.97720866,628b806c463b948bc644b84f,629afdadcaaa92ffdccc9ea6,,,,,,,,,,,X V Q F H G B L J M P D K C T S W R N Z,,,,,,,,,,,,,,,,,,,,,,,,,,,,,,,,,,,,,,,,,,,,,,,,,,,1,0,1,0,1,,,,,,,,,,,,,,,,,,,,,,,,,,,,,,,,,,,,,,
,,,,,,,,,5f63bfde15806b111703d6f9,22,Mężczyzna,2022-06-04_08h38.10.957,task,2021.1.4,Win32,59.97720866,628b806c463b948bc644b84f,629afdadcaaa92ffdccc9ea6,,,,,,,,,,,,,,,,,,,,,,,,,,,,,,,,,,,,,,,,,,,,,,,,,,,,,,,,,,,,,,,,,,,gt,"[""g"",""t""]",0,"[3.069699999999898,3.258699999999976,3.705000000000041]",1,2,0,2,0,1,,,,,,,,,,,,,,,,,,,,,,,,,,,,
,,,,,,,,,5f63bfde15806b111703d6f9,22,Mężczyzna,2022-06-04_08h38.10.957,task,2021.1.4,Win32,59.97720866,628b806c463b948bc644b84f,629afdadcaaa92ffdccc9ea6,,,,,,,,,,,,,,,,,,,,,,,,0,,,,,,,,,,Task,33,(1/1) - 1,0,,,,,,,,,,,,,,,,,,,1,,,,,,,,,,,,,,,,,,,,,space,10.6107,"[""0""]",1,[3.1947999999999865],0,0,0,32,1,,,,,,,,,,,,,,,,,,
,,,,,,,,,5f63bfde15806b111703d6f9,22,Mężczyzna,2022-06-04_08h38.10.957,task,2021.1.4,Win32,59.97720866,628b806c463b948bc644b84f,629afdadcaaa92ffdccc9ea6,,,,,,,,,,,X V Q F H G B L J M P D K C T S W R N Z,,,,,,,,,,,,,,,,,,,,,,,,,,,,,,,,,,,,,,,,,,,,,,,,,,,,,,,,,,,,,,,,,,,,,,,,,,,,0,0,0,0,1,,,,,,,,,,,,,
,,,,,,,,,5f63bfde15806b111703d6f9,22,Mężczyzna,2022-06-04_08h38.10.957,task,2021.1.4,Win32,59.97720866,628b806c463b948bc644b84f,629afdadcaaa92ffdccc9ea6,,,,,,,,,,,,,,,,,,,,,,,,9,,,,,,,,,,Task,16,(3x8) - 15,9,,,,,,,,,,,,,,,,,,,1,,,,,,,,,,,,,,,,,,,,,,,"[""9""]",1,[5.684499999999957],0,0,0,15,1,,,,,,,,,,,,,,,,,,
,,,,,,,,,5f63bfde15806b111703d6f9,22,Mężczyzna,2022-06-04_08h38.10.957,task,2021.1.4,Win32,59.97720866,628b806c463b948bc644b84f,629afdadcaaa92ffdccc9ea6,,,,,,,,,,,X V Q F H G B L J M P D K C T S W R N Z,,,,,,,,,,,,,,,,,,,,,,,,,,,,,,,,,,,,,,,,,,,,,,,,,,,,,,,,,,,,,,,,,,,,,,,,,,,,1,0,1,0,1,,,,,,,,,,,,,
,,,,,,,,,5f63bfde15806b111703d6f9,22,Mężczyzna,2022-06-04_08h38.10.957,task,2021.1.4,Win32,59.97720866,628b806c463b948bc644b84f,629afdadcaaa92ffdccc9ea6,,,,,,,,,,,,,,,,,,,,,,,,,,,,,,,,,,,,,,,,,,,,,,,,,,,,,,,,,,,,,,,,,,,,,,,,,,,,,,,,,,,,,,,,,,,,zp,"[""z"",""p""]",0,"[3.188199999999938,3.639099999999871,3.9740999999999076]",1,ZP,0,0,0,0,1,,
,,,,,,,,,5f63bfde15806b111703d6f9,22,Mężczyzna,2022-06-04_08h38.10.957,task,2021.1.4,Win32,59.97720866,628b806c463b948bc644b84f,629afdadcaaa92ffdccc9ea6,,,,,,,,,,,,,,,,,,,,,,,,5,,,,,,,,,,Task,36,(8/4) + 3,5,,,,,,,,,,,,,,,,,,,1,,,,,,,,,,,,,,,,,,,,,,,"[""5""]",1,[2.891300000000001],0,0,0,35,1,,,,,,,,,,,,,,,,,,
,,,,,,,,,5f63bfde15806b111703d6f9,22,Mężczyzna,2022-06-04_08h38.10.957,task,2021.1.4,Win32,59.97720866,628b806c463b948bc644b84f,629afdadcaaa92ffdccc9ea6,,,,,,,,,,,X V Q F H G B L J M P D K C T S W R N Z,,,,,,,,,,,,,,,,,,,,,,,,,,,,,,,,,,,,,,,,,,,,,,,,,,,,,,,,,,,,,,,,,,,,,,,,,,,,0,0,0,0,1,,,,,,,,,,,,,
,,,,,,,,,5f63bfde15806b111703d6f9,22,Mężczyzna,2022-06-04_08h38.10.957,task,2021.1.4,Win32,59.97720866,628b806c463b948bc644b84f,629afdadcaaa92ffdccc9ea6,,,,,,,,,,,,,,,,,,,,,,,,2,,,,,,,,,,Task,10,(2x5) - 8,2,,,,,,,,,,,,,,,,,,,1,,,,,,,,,,,,,,,,,,,,,,,"[""2""]",1,[2.866399999999885],0,0,0,9,1,,,,,,,,,,,,,,,,,,
,,,,,,,,,5f63bfde15806b111703d6f9,22,Mężczyzna,2022-06-04_08h38.10.957,task,2021.1.4,Win32,59.97720866,628b806c463b948bc644b84f,629afdadcaaa92ffdccc9ea6,,,,,,,,,,,X V Q F H G B L J M P D K C T S W R N Z,,,,,,,,,,,,,,,,,,,,,,,,,,,,,,,,,,,,,,,,,,,,,,,,,,,,,,,,,,,,,,,,,,,,,,,,,,,,1,0,1,0,1,,,,,,,,,,,,,
,,,,,,,,,5f63bfde15806b111703d6f9,22,Mężczyzna,2022-06-04_08h38.10.957,task,2021.1.4,Win32,59.97720866,628b806c463b948bc644b84f,629afdadcaaa92ffdccc9ea6,,,,,,,,,,,,,,,,,,,,,,,,0,,,,,,,,,,Task,25,(10/5) - 2,0,,,,,,,,,,,,,,,,,,,1,,,,,,,,,,,,,,,,,,,,,,,"[""0""]",1,[2.967800000000011],0,0,0,24,1,,,,,,,,,,,,,,,,,,
,,,,,,,,,5f63bfde15806b111703d6f9,22,Mężczyzna,2022-06-04_08h38.10.957,task,2021.1.4,Win32,59.97720866,628b806c463b948bc644b84f,629afdadcaaa92ffdccc9ea6,,,,,,,,,,,X V Q F H G B L J M P D K C T S W R N Z,,,,,,,,,,,,,,,,,,,,,,,,,,,,,,,,,,,,,,,,,,,,,,,,,,,,,,,,,,,,,,,,,,,,,,,,,,,,2,0,2,0,1,,,,,,,,,,,,,
,,,,,,,,,5f63bfde15806b111703d6f9,22,Mężczyzna,2022-06-04_08h38.10.957,task,2021.1.4,Win32,59.97720866,628b806c463b948bc644b84f,629afdadcaaa92ffdccc9ea6,,,,,,,,,,,,,,,,,,,,,,,,,,,,,,,,,,,,,,,,,,,,,,,,,,,,,,,,,,,,,,,,,,,,,,,,,,,,,,,,,,,,,,,,,,,,zqc,"[""z"",""q"",""c""]",0,"[2.300299999999993,2.583699999999908,2.8502999999999474,3.483600000000024]",1,ZQC,1,0,1,0,1,,
,,,,,,,,,5f63bfde15806b111703d6f9,22,Mężczyzna,2022-06-04_08h38.10.957,task,2021.1.4,Win32,59.97720866,628b806c463b948bc644b84f,629afdadcaaa92ffdccc9ea6,,,,,,,,,,,,,,,,,,,,,,,,2,,,,,,,,,,Task,2,(2x2) - 2,2,,,,,,,,,,,,,,,,,,,1,,,,,,,,,,,,,,,,,,,,,,,"[""2""]",1,[2.7503000000000384],0,0,0,1,1,,,,,,,,,,,,,,,,,,
,,,,,,,,,5f63bfde15806b111703d6f9,22,Mężczyzna,2022-06-04_08h38.10.957,task,2021.1.4,Win32,59.97720866,628b806c463b948bc644b84f,629afdadcaaa92ffdccc9ea6,,,,,,,,,,,X V Q F H G B L J M P D K C T S W R N Z,,,,,,,,,,,,,,,,,,,,,,,,,,,,,,,,,,,,,,,,,,,,,,,,,,,,,,,,,,,,,,,,,,,,,,,,,,,,0,0,0,0,1,,,,,,,,,,,,,
,,,,,,,,,5f63bfde15806b111703d6f9,22,Mężczyzna,2022-06-04_08h38.10.957,task,2021.1.4,Win32,59.97720866,628b806c463b948bc644b84f,629afdadcaaa92ffdccc9ea6,,,,,,,,,,,,,,,,,,,,,,,,4,,,,,,,,,,Task,28,(2x5) - 6,4,,,,,,,,,,,,,,,,,,,1,,,,,,,,,,,,,,,,,,,,,,,"[""4""]",1,[3.266899999999964],0,0,0,27,1,,,,,,,,,,,,,,,,,,
,,,,,,,,,5f63bfde15806b111703d6f9,22,Mężczyzna,2022-06-04_08h38.10.957,task,2021.1.4,Win32,59.97720866,628b806c463b948bc644b84f,629afdadcaaa92ffdccc9ea6,,,,,,,,,,,X V Q F H G B L J M P D K C T S W R N Z,,,,,,,,,,,,,,,,,,,,,,,,,,,,,,,,,,,,,,,,,,,,,,,,,,,,,,,,,,,,,,,,,,,,,,,,,,,,1,0,1,0,1,,,,,,,,,,,,,
,,,,,,,,,5f63bfde15806b111703d6f9,22,Mężczyzna,2022-06-04_08h38.10.957,task,2021.1.4,Win32,59.97720866,628b806c463b948bc644b84f,629afdadcaaa92ffdccc9ea6,,,,,,,,,,,,,,,,,,,,,,,,4,,,,,,,,,,Task,21,(10/2) - 1,4,,,,,,,,,,,,,,,,,,,1,,,,,,,,,,,,,,,,,,,,,,,"[""4""]",1,[4.443199999999933],0,0,0,20,1,,,,,,,,,,,,,,,,,,
,,,,,,,,,5f63bfde15806b111703d6f9,22,Mężczyzna,2022-06-04_08h38.10.957,task,2021.1.4,Win32,59.97720866,628b806c463b948bc644b84f,629afdadcaaa92ffdccc9ea6,,,,,,,,,,,X V Q F H G B L J M P D K C T S W R N Z,,,,,,,,,,,,,,,,,,,,,,,,,,,,,,,,,,,,,,,,,,,,,,,,,,,,,,,,,,,,,,,,,,,,,,,,,,,,2,0,2,0,1,,,,,,,,,,,,,
,,,,,,,,,5f63bfde15806b111703d6f9,22,Mężczyzna,2022-06-04_08h38.10.957,task,2021.1.4,Win32,59.97720866,628b806c463b948bc644b84f,629afdadcaaa92ffdccc9ea6,,,,,,,,,,,,,,,,,,,,,,,,5,,,,,,,,,,Task,22,(3x1) + 2,5,,,,,,,,,,,,,,,,,,,1,,,,,,,,,,,,,,,,,,,,,,,"[""5""]",1,[3.516499999999951],0,0,0,21,1,,,,,,,,,,,,,,,,,,
,,,,,,,,,5f63bfde15806b111703d6f9,22,Mężczyzna,2022-06-04_08h38.10.957,task,2021.1.4,Win32,59.97720866,628b806c463b948bc644b84f,629afdadcaaa92ffdccc9ea6,,,,,,,,,,,X V Q F H G B L J M P D K C T S W R N Z,,,,,,,,,,,,,,,,,,,,,,,,,,,,,,,,,,,,,,,,,,,,,,,,,,,,,,,,,,,,,,,,,,,,,,,,,,,,3,0,3,0,1,,,,,,,,,,,,,
,,,,,,,,,5f63bfde15806b111703d6f9,22,Mężczyzna,2022-06-04_08h38.10.957,task,2021.1.4,Win32,59.97720866,628b806c463b948bc644b84f,629afdadcaaa92ffdccc9ea6,,,,,,,,,,,,,,,,,,,,,,,,,,,,,,,,,,,,,,,,,,,,,,,,,,,,,,,,,,,,,,,,,,,,,,,,,,,,,,,,,,,,,,,,,,,,lcvt,"[""l"",""c"",""v"",""t""]",0,"[2.69500000000005,3.259999999999991,3.941900000000146,4.317699999999945,5.036799999999971]",1,LCVT,2,0,2,0,1,,
,,,,,,,,,5f63bfde15806b111703d6f9,22,Mężczyzna,2022-06-04_08h38.10.957,task,2021.1.4,Win32,59.97720866,628b806c463b948bc644b84f,629afdadcaaa92ffdccc9ea6,,,,,,,,,,,,,,,,,,,,,,,,0,,,,,,,,,,Task,40,(7x2) - 5,9,,,,,,,,,,,,,,,,,,,0,,,,,,,,,,,,,,,,,,,,,,,"[""0""]",0,[4.484100000000126],0,0,0,39,1,,,,,,,,,,,,,,,,,,
,,,,,,,,,5f63bfde15806b111703d6f9,22,Mężczyzna,2022-06-04_08h38.10.957,task,2021.1.4,Win32,59.97720866,628b806c463b948bc644b84f,629afdadcaaa92ffdccc9ea6,,,,,,,,,,,,,,,,,,,,,,,,6,,,,,,,,,,Task,5,(2x3) + 0,6,,,,,,,,,,,,,,,,,,,1,,,,,,,,,,,,,,,,,,,,,,,"[""6""]",1,[8.339600000000246],0,1,1,4,1,,,,,,,,,,,,,,,,,,
,,,,,,,,,5f63bfde15806b111703d6f9,22,Mężczyzna,2022-06-04_08h38.10.957,task,2021.1.4,Win32,59.97720866,628b806c463b948bc644b84f,629afdadcaaa92ffdccc9ea6,,,,,,,,,,,X V Q F H G B L J M P D K C T S W R N Z,,,,,,,,,,,,,,,,,,,,,,,,,,,,,,,,,,,,,,,,,,,,,,,,,,,,,,,,,,,,,,,,,,,,,,,,,,,,0,0,0,0,1,,,,,,,,,,,,,
,,,,,,,,,5f63bfde15806b111703d6f9,22,Mężczyzna,2022-06-04_08h38.10.957,task,2021.1.4,Win32,59.97720866,628b806c463b948bc644b84f,629afdadcaaa92ffdccc9ea6,,,,,,,,,,,,,,,,,,,,,,,,4,,,,,,,,,,Task,21,(10/2) - 1,4,,,,,,,,,,,,,,,,,,,1,,,,,,,,,,,,,,,,,,,,,,,"[""4""]",1,[6.100799999999936],0,0,0,20,1,,,,,,,,,,,,,,,,,,
,,,,,,,,,5f63bfde15806b111703d6f9,22,Mężczyzna,2022-06-04_08h38.10.957,task,2021.1.4,Win32,59.97720866,628b806c463b948bc644b84f,629afdadcaaa92ffdccc9ea6,,,,,,,,,,,X V Q F H G B L J M P D K C T S W R N Z,,,,,,,,,,,,,,,,,,,,,,,,,,,,,,,,,,,,,,,,,,,,,,,,,,,,,,,,,,,,,,,,,,,,,,,,,,,,1,0,1,0,1,,,,,,,,,,,,,
,,,,,,,,,5f63bfde15806b111703d6f9,22,Mężczyzna,2022-06-04_08h38.10.957,task,2021.1.4,Win32,59.97720866,628b806c463b948bc644b84f,629afdadcaaa92ffdccc9ea6,,,,,,,,,,,,,,,,,,,,,,,,9,,,,,,,,,,Task,40,(7x2) - 5,9,,,,,,,,,,,,,,,,,,,1,,,,,,,,,,,,,,,,,,,,,,,"[""9""]",1,[2.8381999999999152],0,0,0,39,1,,,,,,,,,,,,,,,,,,
,,,,,,,,,5f63bfde15806b111703d6f9,22,Mężczyzna,2022-06-04_08h38.10.957,task,2021.1.4,Win32,59.97720866,628b806c463b948bc644b84f,629afdadcaaa92ffdccc9ea6,,,,,,,,,,,X V Q F H G B L J M P D K C T S W R N Z,,,,,,,,,,,,,,,,,,,,,,,,,,,,,,,,,,,,,,,,,,,,,,,,,,,,,,,,,,,,,,,,,,,,,,,,,,,,2,0,2,0,1,,,,,,,,,,,,,
,,,,,,,,,5f63bfde15806b111703d6f9,22,Mężczyzna,2022-06-04_08h38.10.957,task,2021.1.4,Win32,59.97720866,628b806c463b948bc644b84f,629afdadcaaa92ffdccc9ea6,,,,,,,,,,,,,,,,,,,,,,,,5,,,,,,,,,,Task,1,(12/6) - 1,1,,,,,,,,,,,,,,,,,,,0,,,,,,,,,,,,,,,,,,,,,,,"[""5""]",0,[2.8516000000001895],0,0,0,0,1,,,,,,,,,,,,,,,,,,
,,,,,,,,,5f63bfde15806b111703d6f9,22,Mężczyzna,2022-06-04_08h38.10.957,task,2021.1.4,Win32,59.97720866,628b806c463b948bc644b84f,629afdadcaaa92ffdccc9ea6,,,,,,,,,,,,,,,,,,,,,,,,5,,,,,,,,,,Task,36,(8/4) + 3,5,,,,,,,,,,,,,,,,,,,1,,,,,,,,,,,,,,,,,,,,,,,"[""5""]",1,[6.083400000000438],0,1,1,35,1,,,,,,,,,,,,,,,,,,
,,,,,,,,,5f63bfde15806b111703d6f9,22,Mężczyzna,2022-06-04_08h38.10.957,task,2021.1.4,Win32,59.97720866,628b806c463b948bc644b84f,629afdadcaaa92ffdccc9ea6,,,,,,,,,,,X V Q F H G B L J M P D K C T S W R N Z,,,,,,,,,,,,,,,,,,,,,,,,,,,,,,,,,,,,,,,,,,,,,,,,,,,,,,,,,,,,,,,,,,,,,,,,,,,,3,0,3,0,1,,,,,,,,,,,,,
,,,,,,,,,5f63bfde15806b111703d6f9,22,Mężczyzna,2022-06-04_08h38.10.957,task,2021.1.4,Win32,59.97720866,628b806c463b948bc644b84f,629afdadcaaa92ffdccc9ea6,,,,,,,,,,,,,,,,,,,,,,,,6,,,,,,,,,,Task,30,(6/3) + 4 ,6,,,,,,,,,,,,,,,,,,,1,,,,,,,,,,,,,,,,,,,,,,,"[""6""]",1,[6.033799999999701],0,0,0,29,1,,,,,,,,,,,,,,,,,,
,,,,,,,,,5f63bfde15806b111703d6f9,22,Mężczyzna,2022-06-04_08h38.10.957,task,2021.1.4,Win32,59.97720866,628b806c463b948bc644b84f,629afdadcaaa92ffdccc9ea6,,,,,,,,,,,X V Q F H G B L J M P D K C T S W R N Z,,,,,,,,,,,,,,,,,,,,,,,,,,,,,,,,,,,,,,,,,,,,,,,,,,,,,,,,,,,,,,,,,,,,,,,,,,,,4,0,4,0,1,,,,,,,,,,,,,
,,,,,,,,,5f63bfde15806b111703d6f9,22,Mężczyzna,2022-06-04_08h38.10.957,task,2021.1.4,Win32,59.97720866,628b806c463b948bc644b84f,629afdadcaaa92ffdccc9ea6,,,,,,,,,,,,,,,,,,,,,,,,,,,,,,,,,,,,,,,,,,,,,,,,,,,,,,,,,,,,,,,,,,,,,,,,,,,,,,,,,,,,,,,,,,,,pzhft,"[""p"",""z"",""h"",""f"",""t""]",0,"[2.617200000000139,5.850999999999885,6.900700000000143,7.21990000000028,7.483999999999924,8.211099999999988]",1,PZHFT,3,0,3,0,1,,
,,,,,,,,,5f63bfde15806b111703d6f9,22,Mężczyzna,2022-06-04_08h38.10.957,task,2021.1.4,Win32,59.97720866,628b806c463b948bc644b84f,629afdadcaaa92ffdccc9ea6,,,,,,,,,,,,,,,,,,,,,,,,0,,,,,,,,,,Task,8,(1x5) - 5,0,,,,,,,,,,,,,,,,,,,1,,,,,,,,,,,,,,,,,,,,,,,"[""0""]",1,[3.067099999999755],0,0,0,7,1,,,,,,,,,,,,,,,,,,
,,,,,,,,,5f63bfde15806b111703d6f9,22,Mężczyzna,2022-06-04_08h38.10.957,task,2021.1.4,Win32,59.97720866,628b806c463b948bc644b84f,629afdadcaaa92ffdccc9ea6,,,,,,,,,,,X V Q F H G B L J M P D K C T S W R N Z,,,,,,,,,,,,,,,,,,,,,,,,,,,,,,,,,,,,,,,,,,,,,,,,,,,,,,,,,,,,,,,,,,,,,,,,,,,,0,0,0,0,1,,,,,,,,,,,,,
,,,,,,,,,5f63bfde15806b111703d6f9,22,Mężczyzna,2022-06-04_08h38.10.957,task,2021.1.4,Win32,59.97720866,628b806c463b948bc644b84f,629afdadcaaa92ffdccc9ea6,,,,,,,,,,,,,,,,,,,,,,,,3,,,,,,,,,,Task,3,(2x3) - 3,3,,,,,,,,,,,,,,,,,,,1,,,,,,,,,,,,,,,,,,,,,,,"[""3""]",1,[3.1084999999998217],0,0,0,2,1,,,,,,,,,,,,,,,,,,
,,,,,,,,,5f63bfde15806b111703d6f9,22,Mężczyzna,2022-06-04_08h38.10.957,task,2021.1.4,Win32,59.97720866,628b806c463b948bc644b84f,629afdadcaaa92ffdccc9ea6,,,,,,,,,,,X V Q F H G B L J M P D K C T S W R N Z,,,,,,,,,,,,,,,,,,,,,,,,,,,,,,,,,,,,,,,,,,,,,,,,,,,,,,,,,,,,,,,,,,,,,,,,,,,,1,0,1,0,1,,,,,,,,,,,,,
,,,,,,,,,5f63bfde15806b111703d6f9,22,Mężczyzna,2022-06-04_08h38.10.957,task,2021.1.4,Win32,59.97720866,628b806c463b948bc644b84f,629afdadcaaa92ffdccc9ea6,,,,,,,,,,,,,,,,,,,,,,,,9,,,,,,,,,,Task,16,(3x8) - 15,9,,,,,,,,,,,,,,,,,,,1,,,,,,,,,,,,,,,,,,,,,,,"[""9""]",1,[4.017000000000053],0,0,0,15,1,,,,,,,,,,,,,,,,,,
,,,,,,,,,5f63bfde15806b111703d6f9,22,Mężczyzna,2022-06-04_08h38.10.957,task,2021.1.4,Win32,59.97720866,628b806c463b948bc644b84f,629afdadcaaa92ffdccc9ea6,,,,,,,,,,,X V Q F H G B L J M P D K C T S W R N Z,,,,,,,,,,,,,,,,,,,,,,,,,,,,,,,,,,,,,,,,,,,,,,,,,,,,,,,,,,,,,,,,,,,,,,,,,,,,2,0,2,0,1,,,,,,,,,,,,,
,,,,,,,,,5f63bfde15806b111703d6f9,22,Mężczyzna,2022-06-04_08h38.10.957,task,2021.1.4,Win32,59.97720866,628b806c463b948bc644b84f,629afdadcaaa92ffdccc9ea6,,,,,,,,,,,,,,,,,,,,,,,,7,,,,,,,,,,Task,6,(12/2) + 1,7,,,,,,,,,,,,,,,,,,,1,,,,,,,,,,,,,,,,,,,,,,,"[""7""]",1,[9.270400000000336],0,0,0,5,1,,,,,,,,,,,,,,,,,,
,,,,,,,,,5f63bfde15806b111703d6f9,22,Mężczyzna,2022-06-04_08h38.10.957,task,2021.1.4,Win32,59.97720866,628b806c463b948bc644b84f,629afdadcaaa92ffdccc9ea6,,,,,,,,,,,X V Q F H G B L J M P D K C T S W R N Z,,,,,,,,,,,,,,,,,,,,,,,,,,,,,,,,,,,,,,,,,,,,,,,,,,,,,,,,,,,,,,,,,,,,,,,,,,,,3,0,3,0,1,,,,,,,,,,,,,
,,,,,,,,,5f63bfde15806b111703d6f9,22,Mężczyzna,2022-06-04_08h38.10.957,task,2021.1.4,Win32,59.97720866,628b806c463b948bc644b84f,629afdadcaaa92ffdccc9ea6,,,,,,,,,,,,,,,,,,,,,,,,9,,,,,,,,,,Task,16,(3x8) - 15,9,,,,,,,,,,,,,,,,,,,1,,,,,,,,,,,,,,,,,,,,,,,"[""9""]",1,[7.26729999999975],0,0,0,15,1,,,,,,,,,,,,,,,,,,
,,,,,,,,,5f63bfde15806b111703d6f9,22,Mężczyzna,2022-06-04_08h38.10.957,task,2021.1.4,Win32,59.97720866,628b806c463b948bc644b84f,629afdadcaaa92ffdccc9ea6,,,,,,,,,,,X V Q F H G B L J M P D K C T S W R N Z,,,,,,,,,,,,,,,,,,,,,,,,,,,,,,,,,,,,,,,,,,,,,,,,,,,,,,,,,,,,,,,,,,,,,,,,,,,,4,0,4,0,1,,,,,,,,,,,,,
,,,,,,,,,5f63bfde15806b111703d6f9,22,Mężczyzna,2022-06-04_08h38.10.957,task,2021.1.4,Win32,59.97720866,628b806c463b948bc644b84f,629afdadcaaa92ffdccc9ea6,,,,,,,,,,,,,,,,,,,,,,,,5,,,,,,,,,,Task,29,(3x8) - 19 ,5,,,,,,,,,,,,,,,,,,,1,,,,,,,,,,,,,,,,,,,,,,,"[""5""]",1,[6.733800000000201],0,0,0,28,1,,,,,,,,,,,,,,,,,,
,,,,,,,,,5f63bfde15806b111703d6f9,22,Mężczyzna,2022-06-04_08h38.10.957,task,2021.1.4,Win32,59.97720866,628b806c463b948bc644b84f,629afdadcaaa92ffdccc9ea6,,,,,,,,,,,X V Q F H G B L J M P D K C T S W R N Z,,,,,,,,,,,,,,,,,,,,,,,,,,,,,,,,,,,,,,,,,,,,,,,,,,,,,,,,,,,,,,,,,,,,,,,,,,,,5,0,5,0,1,,,,,,,,,,,,,
,,,,,,,,,5f63bfde15806b111703d6f9,22,Mężczyzna,2022-06-04_08h38.10.957,task,2021.1.4,Win32,59.97720866,628b806c463b948bc644b84f,629afdadcaaa92ffdccc9ea6,,,,,,,,,,,,,,,,,,,,,,,,,,,,,,,,,,,,,,,,,,,,,,,,,,,,,,,,,,,,,,,,,,,,,,,,,,,,,,,,,,,,,,,,,,,,rnrdqr,"[""r"",""n"",""r"",""d"",""q"",""r""]",0,"[2.3271000000002005,2.673999999999978,2.9557999999997264,4.585900000000038,4.940899999999829,5.201000000000022,6.073899999999867]",1,RNRDQR,4,0,4,0,1,,
,,,,,,,,,5f63bfde15806b111703d6f9,22,Mężczyzna,2022-06-04_08h38.10.957,task,2021.1.4,Win32,59.97720866,628b806c463b948bc644b84f,629afdadcaaa92ffdccc9ea6,,,,,,,,,,,,,,,,,,,,,,,,3,,,,,,,,,,Task,20,(18/9) + 1,3,,,,,,,,,,,,,,,,,,,1,,,,,,,,,,,,,,,,,,,,,,,"[""3""]",1,[3.839999999999918],0,0,0,19,1,,,,,,,,,,,,,,,,,,
,,,,,,,,,5f63bfde15806b111703d6f9,22,Mężczyzna,2022-06-04_08h38.10.957,task,2021.1.4,Win32,59.97720866,628b806c463b948bc644b84f,629afdadcaaa92ffdccc9ea6,,,,,,,,,,,X V Q F H G B L J M P D K C T S W R N Z,,,,,,,,,,,,,,,,,,,,,,,,,,,,,,,,,,,,,,,,,,,,,,,,,,,,,,,,,,,,,,,,,,,,,,,,,,,,0,0,0,0,1,,,,,,,,,,,,,
,,,,,,,,,5f63bfde15806b111703d6f9,22,Mężczyzna,2022-06-04_08h38.10.957,task,2021.1.4,Win32,59.97720866,628b806c463b948bc644b84f,629afdadcaaa92ffdccc9ea6,,,,,,,,,,,,,,,,,,,,,,,,6,,,,,,,,,,Task,37,(3/3) + 5,6,,,,,,,,,,,,,,,,,,,1,,,,,,,,,,,,,,,,,,,,,,,"[""6""]",1,[4.102700000000141],0,0,0,36,1,,,,,,,,,,,,,,,,,,
,,,,,,,,,5f63bfde15806b111703d6f9,22,Mężczyzna,2022-06-04_08h38.10.957,task,2021.1.4,Win32,59.97720866,628b806c463b948bc644b84f,629afdadcaaa92ffdccc9ea6,,,,,,,,,,,X V Q F H G B L J M P D K C T S W R N Z,,,,,,,,,,,,,,,,,,,,,,,,,,,,,,,,,,,,,,,,,,,,,,,,,,,,,,,,,,,,,,,,,,,,,,,,,,,,1,0,1,0,1,,,,,,,,,,,,,
,,,,,,,,,5f63bfde15806b111703d6f9,22,Mężczyzna,2022-06-04_08h38.10.957,task,2021.1.4,Win32,59.97720866,628b806c463b948bc644b84f,629afdadcaaa92ffdccc9ea6,,,,,,,,,,,,,,,,,,,,,,,,7,,,,,,,,,,Task,38,(4x6) - 17,7,,,,,,,,,,,,,,,,,,,1,,,,,,,,,,,,,,,,,,,,,,,"[""7""]",1,[11.143399999999929],0,0,0,37,1,,,,,,,,,,,,,,,,,,
,,,,,,,,,5f63bfde15806b111703d6f9,22,Mężczyzna,2022-06-04_08h38.10.957,task,2021.1.4,Win32,59.97720866,628b806c463b948bc644b84f,629afdadcaaa92ffdccc9ea6,,,,,,,,,,,X V Q F H G B L J M P D K C T S W R N Z,,,,,,,,,,,,,,,,,,,,,,,,,,,,,,,,,,,,,,,,,,,,,,,,,,,,,,,,,,,,,,,,,,,,,,,,,,,,2,0,2,0,1,,,,,,,,,,,,,
,,,,,,,,,5f63bfde15806b111703d6f9,22,Mężczyzna,2022-06-04_08h38.10.957,task,2021.1.4,Win32,59.97720866,628b806c463b948bc644b84f,629afdadcaaa92ffdccc9ea6,,,,,,,,,,,,,,,,,,,,,,,,6,,,,,,,,,,Task,37,(3/3) + 5,6,,,,,,,,,,,,,,,,,,,1,,,,,,,,,,,,,,,,,,,,,,,"[""6""]",1,[4.740000000000009],0,0,0,36,1,,,,,,,,,,,,,,,,,,
,,,,,,,,,5f63bfde15806b111703d6f9,22,Mężczyzna,2022-06-04_08h38.10.957,task,2021.1.4,Win32,59.97720866,628b806c463b948bc644b84f,629afdadcaaa92ffdccc9ea6,,,,,,,,,,,X V Q F H G B L J M P D K C T S W R N Z,,,,,,,,,,,,,,,,,,,,,,,,,,,,,,,,,,,,,,,,,,,,,,,,,,,,,,,,,,,,,,,,,,,,,,,,,,,,3,0,3,0,1,,,,,,,,,,,,,
,,,,,,,,,5f63bfde15806b111703d6f9,22,Mężczyzna,2022-06-04_08h38.10.957,task,2021.1.4,Win32,59.97720866,628b806c463b948bc644b84f,629afdadcaaa92ffdccc9ea6,,,,,,,,,,,,,,,,,,,,,,,,5,,,,,,,,,,Task,29,(3x8) - 19 ,5,,,,,,,,,,,,,,,,,,,1,,,,,,,,,,,,,,,,,,,,,,,"[""5""]",1,[9.669999999999845],0,0,0,28,1,,,,,,,,,,,,,,,,,,
,,,,,,,,,5f63bfde15806b111703d6f9,22,Mężczyzna,2022-06-04_08h38.10.957,task,2021.1.4,Win32,59.97720866,628b806c463b948bc644b84f,629afdadcaaa92ffdccc9ea6,,,,,,,,,,,X V Q F H G B L J M P D K C T S W R N Z,,,,,,,,,,,,,,,,,,,,,,,,,,,,,,,,,,,,,,,,,,,,,,,,,,,,,,,,,,,,,,,,,,,,,,,,,,,,4,0,4,0,1,,,,,,,,,,,,,
,,,,,,,,,5f63bfde15806b111703d6f9,22,Mężczyzna,2022-06-04_08h38.10.957,task,2021.1.4,Win32,59.97720866,628b806c463b948bc644b84f,629afdadcaaa92ffdccc9ea6,,,,,,,,,,,,,,,,,,,,,,,,4,,,,,,,,,,Task,21,(10/2) - 1,4,,,,,,,,,,,,,,,,,,,1,,,,,,,,,,,,,,,,,,,,,,,"[""4""]",1,[3.7554999999999836],0,0,0,20,1,,,,,,,,,,,,,,,,,,
,,,,,,,,,5f63bfde15806b111703d6f9,22,Mężczyzna,2022-06-04_08h38.10.957,task,2021.1.4,Win32,59.97720866,628b806c463b948bc644b84f,629afdadcaaa92ffdccc9ea6,,,,,,,,,,,X V Q F H G B L J M P D K C T S W R N Z,,,,,,,,,,,,,,,,,,,,,,,,,,,,,,,,,,,,,,,,,,,,,,,,,,,,,,,,,,,,,,,,,,,,,,,,,,,,5,0,5,0,1,,,,,,,,,,,,,
,,,,,,,,,5f63bfde15806b111703d6f9,22,Mężczyzna,2022-06-04_08h38.10.957,task,2021.1.4,Win32,59.97720866,628b806c463b948bc644b84f,629afdadcaaa92ffdccc9ea6,,,,,,,,,,,,,,,,,,,,,,,,2,,,,,,,,,,Task,26,(2x9) - 16,2,,,,,,,,,,,,,,,,,,,1,,,,,,,,,,,,,,,,,,,,,,,"[""2""]",1,[12.867700000000013],0,0,0,25,1,,,,,,,,,,,,,,,,,,
,,,,,,,,,5f63bfde15806b111703d6f9,22,Mężczyzna,2022-06-04_08h38.10.957,task,2021.1.4,Win32,59.97720866,628b806c463b948bc644b84f,629afdadcaaa92ffdccc9ea6,,,,,,,,,,,X V Q F H G B L J M P D K C T S W R N Z,,,,,,,,,,,,,,,,,,,,,,,,,,,,,,,,,,,,,,,,,,,,,,,,,,,,,,,,,,,,,,,,,,,,,,,,,,,,6,0,6,0,1,,,,,,,,,,,,,
,,,,,,,,,5f63bfde15806b111703d6f9,22,Mężczyzna,2022-06-04_08h38.10.957,task,2021.1.4,Win32,59.97720866,628b806c463b948bc644b84f,629afdadcaaa92ffdccc9ea6,,,,,,,,,,,,,,,,,,,,,,,,,,,,,,,,,,,,,,,,,,,,,,,,,,,,,,,,,,,,,,,,,,,,,,,,,,,,,,,,,,,,,,,,,,,,kstdszr,"[""k"",""s"",""t"",""d"",""s"",""z"",""r""]",0,"[3.0117999999997664,3.1197000000001935,3.45049999999992,3.652499999999918,3.9842000000001008,4.200799999999845,4.918700000000172,5.850799999999708]",1,KSTDSZR,5,0,5,0,1,,
,,,,,,,,,5f63bfde15806b111703d6f9,22,Mężczyzna,2022-06-04_08h38.10.957,task,2021.1.4,Win32,59.97720866,628b806c463b948bc644b84f,629afdadcaaa92ffdccc9ea6,,,,,,,,,,,,,,,,,,,,,,,,1,,,,,,,,,,Task,9,(3x7) - 20,1,,,,,,,,,,,,,,,,,,,1,,,,,,,,,,,,,,,,,,,,,,,"[""1""]",1,[7.234699999999748],0,0,0,8,1,,,,,,,,,,,,,,,,,,
,,,,,,,,,5f63bfde15806b111703d6f9,22,Mężczyzna,2022-06-04_08h38.10.957,task,2021.1.4,Win32,59.97720866,628b806c463b948bc644b84f,629afdadcaaa92ffdccc9ea6,,,,,,,,,,,X V Q F H G B L J M P D K C T S W R N Z,,,,,,,,,,,,,,,,,,,,,,,,,,,,,,,,,,,,,,,,,,,,,,,,,,,,,,,,,,,,,,,,,,,,,,,,,,,,0,0,0,0,1,,,,,,,,,,,,,
,,,,,,,,,5f63bfde15806b111703d6f9,22,Mężczyzna,2022-06-04_08h38.10.957,task,2021.1.4,Win32,59.97720866,628b806c463b948bc644b84f,629afdadcaaa92ffdccc9ea6,,,,,,,,,,,,,,,,,,,,,,,,8,,,,,,,,,,Task,32,(8/2) + 4,8,,,,,,,,,,,,,,,,,,,1,,,,,,,,,,,,,,,,,,,,,,,"[""8""]",1,[5.2172999999997955],0,0,0,31,1,,,,,,,,,,,,,,,,,,
,,,,,,,,,5f63bfde15806b111703d6f9,22,Mężczyzna,2022-06-04_08h38.10.957,task,2021.1.4,Win32,59.97720866,628b806c463b948bc644b84f,629afdadcaaa92ffdccc9ea6,,,,,,,,,,,X V Q F H G B L J M P D K C T S W R N Z,,,,,,,,,,,,,,,,,,,,,,,,,,,,,,,,,,,,,,,,,,,,,,,,,,,,,,,,,,,,,,,,,,,,,,,,,,,,1,0,1,0,1,,,,,,,,,,,,,
,,,,,,,,,5f63bfde15806b111703d6f9,22,Mężczyzna,2022-06-04_08h38.10.957,task,2021.1.4,Win32,59.97720866,628b806c463b948bc644b84f,629afdadcaaa92ffdccc9ea6,,,,,,,,,,,,,,,,,,,,,,,,1,,,,,,,,,,Task,9,(3x7) - 20,1,,,,,,,,,,,,,,,,,,,1,,,,,,,,,,,,,,,,,,,,,,,"[""1""]",1,[3.826200000000199],0,0,0,8,1,,,,,,,,,,,,,,,,,,
,,,,,,,,,5f63bfde15806b111703d6f9,22,Mężczyzna,2022-06-04_08h38.10.957,task,2021.1.4,Win32,59.97720866,628b806c463b948bc644b84f,629afdadcaaa92ffdccc9ea6,,,,,,,,,,,X V Q F H G B L J M P D K C T S W R N Z,,,,,,,,,,,,,,,,,,,,,,,,,,,,,,,,,,,,,,,,,,,,,,,,,,,,,,,,,,,,,,,,,,,,,,,,,,,,2,0,2,0,1,,,,,,,,,,,,,
,,,,,,,,,5f63bfde15806b111703d6f9,22,Mężczyzna,2022-06-04_08h38.10.957,task,2021.1.4,Win32,59.97720866,628b806c463b948bc644b84f,629afdadcaaa92ffdccc9ea6,,,,,,,,,,,,,,,,,,,,,,,,4,,,,,,,,,,Task,4,(1x5) - 1,4,,,,,,,,,,,,,,,,,,,1,,,,,,,,,,,,,,,,,,,,,,,"[""4""]",1,[2.0386000000000877],0,0,0,3,1,,,,,,,,,,,,,,,,,,
,,,,,,,,,5f63bfde15806b111703d6f9,22,Mężczyzna,2022-06-04_08h38.10.957,task,2021.1.4,Win32,59.97720866,628b806c463b948bc644b84f,629afdadcaaa92ffdccc9ea6,,,,,,,,,,,X V Q F H G B L J M P D K C T S W R N Z,,,,,,,,,,,,,,,,,,,,,,,,,,,,,,,,,,,,,,,,,,,,,,,,,,,,,,,,,,,,,,,,,,,,,,,,,,,,3,0,3,0,1,,,,,,,,,,,,,
,,,,,,,,,5f63bfde15806b111703d6f9,22,Mężczyzna,2022-06-04_08h38.10.957,task,2021.1.4,Win32,59.97720866,628b806c463b948bc644b84f,629afdadcaaa92ffdccc9ea6,,,,,,,,,,,,,,,,,,,,,,,,9,,,,,,,,,,Task,40,(7x2) - 5,9,,,,,,,,,,,,,,,,,,,1,,,,,,,,,,,,,,,,,,,,,,,"[""9""]",1,[4.399799999999914],0,0,0,39,1,,,,,,,,,,,,,,,,,,
,,,,,,,,,5f63bfde15806b111703d6f9,22,Mężczyzna,2022-06-04_08h38.10.957,task,2021.1.4,Win32,59.97720866,628b806c463b948bc644b84f,629afdadcaaa92ffdccc9ea6,,,,,,,,,,,X V Q F H G B L J M P D K C T S W R N Z,,,,,,,,,,,,,,,,,,,,,,,,,,,,,,,,,,,,,,,,,,,,,,,,,,,,,,,,,,,,,,,,,,,,,,,,,,,,4,0,4,0,1,,,,,,,,,,,,,
,,,,,,,,,5f63bfde15806b111703d6f9,22,Mężczyzna,2022-06-04_08h38.10.957,task,2021.1.4,Win32,59.97720866,628b806c463b948bc644b84f,629afdadcaaa92ffdccc9ea6,,,,,,,,,,,,,,,,,,,,,,,,6,,,,,,,,,,Task,5,(2x3) + 0,6,,,,,,,,,,,,,,,,,,,1,,,,,,,,,,,,,,,,,,,,,,,"[""6""]",1,[5.4392999999997755],0,0,0,4,1,,,,,,,,,,,,,,,,,,
,,,,,,,,,5f63bfde15806b111703d6f9,22,Mężczyzna,2022-06-04_08h38.10.957,task,2021.1.4,Win32,59.97720866,628b806c463b948bc644b84f,629afdadcaaa92ffdccc9ea6,,,,,,,,,,,X V Q F H G B L J M P D K C T S W R N Z,,,,,,,,,,,,,,,,,,,,,,,,,,,,,,,,,,,,,,,,,,,,,,,,,,,,,,,,,,,,,,,,,,,,,,,,,,,,5,0,5,0,1,,,,,,,,,,,,,
,,,,,,,,,5f63bfde15806b111703d6f9,22,Mężczyzna,2022-06-04_08h38.10.957,task,2021.1.4,Win32,59.97720866,628b806c463b948bc644b84f,629afdadcaaa92ffdccc9ea6,,,,,,,,,,,,,,,,,,,,,,,,,,,,,,,,,,Task,7,(3x7) - 12,9,,,,,,,,,,,,,,,,,,,0,,,,,,,,,,,,,,,,,,,,,,,,0,,0,0,0,6,1,,,,,,,,,,,,,,,,,,
,,,,,,,,,5f63bfde15806b111703d6f9,22,Mężczyzna,2022-06-04_08h38.10.957,task,2021.1.4,Win32,59.97720866,628b806c463b948bc644b84f,629afdadcaaa92ffdccc9ea6,,,,,,,,,,,,,,,,,,,,,,,,3,,,,,,,,,,Task,35,(1x2) + 1,3,,,,,,,,,,,,,,,,,,,1,,,,,,,,,,,,,,,,,,,,,,,"[""3""]",1,[4.212399999999889],0,1,1,34,1,,,,,,,,,,,,,,,,,,
,,,,,,,,,5f63bfde15806b111703d6f9,22,Mężczyzna,2022-06-04_08h38.10.957,task,2021.1.4,Win32,59.97720866,628b806c463b948bc644b84f,629afdadcaaa92ffdccc9ea6,,,,,,,,,,,X V Q F H G B L J M P D K C T S W R N Z,,,,,,,,,,,,,,,,,,,,,,,,,,,,,,,,,,,,,,,,,,,,,,,,,,,,,,,,,,,,,,,,,,,,,,,,,,,,6,0,6,0,1,,,,,,,,,,,,,
,,,,,,,,,5f63bfde15806b111703d6f9,22,Mężczyzna,2022-06-04_08h38.10.957,task,2021.1.4,Win32,59.97720866,628b806c463b948bc644b84f,629afdadcaaa92ffdccc9ea6,,,,,,,,,,,,,,,,,,,,,,,,5,,,,,,,,,,Task,29,(3x8) - 19 ,5,,,,,,,,,,,,,,,,,,,1,,,,,,,,,,,,,,,,,,,,,,,"[""5""]",1,[5.356399999999894],0,0,0,28,1,,,,,,,,,,,,,,,,,,
,,,,,,,,,5f63bfde15806b111703d6f9,22,Mężczyzna,2022-06-04_08h38.10.957,task,2021.1.4,Win32,59.97720866,628b806c463b948bc644b84f,629afdadcaaa92ffdccc9ea6,,,,,,,,,,,X V Q F H G B L J M P D K C T S W R N Z,,,,,,,,,,,,,,,,,,,,,,,,,,,,,,,,,,,,,,,,,,,,,,,,,,,,,,,,,,,,,,,,,,,,,,,,,,,,7,0,7,0,1,,,,,,,,,,,,,
,,,,,,,,,5f63bfde15806b111703d6f9,22,Mężczyzna,2022-06-04_08h38.10.957,task,2021.1.4,Win32,59.97720866,628b806c463b948bc644b84f,629afdadcaaa92ffdccc9ea6,,,,,,,,,,,,,,,,,,,,,,,,,,,,,,,,,,,,,,,,,,,,,,,,,,,,,,,,,,,,,,,,,,,,,,,,,,,,,,,,,,,,,,,,,,,,fjhlhjp,"[""f"",""j"",""h"",""l"",""h"",""j"",""p""]",0,"[3.166500000000042,3.602900000000318,26.278800000000274,29.075900000000274,29.75480000000016,30.25680000000034,30.96880000000033,32.055700000000115]",0,FJHZLHJP,6,0,6,0,1,,
,,,,,,,,,5f63bfde15806b111703d6f9,22,Mężczyzna,2022-06-04_08h38.10.957,task,2021.1.4,Win32,59.97720866,628b806c463b948bc644b84f,629afdadcaaa92ffdccc9ea6,,,,,,,,,,,,,,,,,,,,,,,,8,,,,,,,,,,Task,39,(5x3) - 7,8,,,,,,,,,,,,,,,,,,,1,,,,,,,,,,,,,,,,,,,,,,,"[""8""]",1,[3.9174000000000433],0,0,0,38,1,,,,,,,,,,,,,,,,,,
,,,,,,,,,5f63bfde15806b111703d6f9,22,Mężczyzna,2022-06-04_08h38.10.957,task,2021.1.4,Win32,59.97720866,628b806c463b948bc644b84f,629afdadcaaa92ffdccc9ea6,,,,,,,,,,,X V Q F H G B L J M P D K C T S W R N Z,,,,,,,,,,,,,,,,,,,,,,,,,,,,,,,,,,,,,,,,,,,,,,,,,,,,,,,,,,,,,,,,,,,,,,,,,,,,0,0,0,0,1,,,,,,,,,,,,,
,,,,,,,,,5f63bfde15806b111703d6f9,22,Mężczyzna,2022-06-04_08h38.10.957,task,2021.1.4,Win32,59.97720866,628b806c463b948bc644b84f,629afdadcaaa92ffdccc9ea6,,,,,,,,,,,,,,,,,,,,,,,,0,,,,,,,,,,Task,8,(1x5) - 5,0,,,,,,,,,,,,,,,,,,,1,,,,,,,,,,,,,,,,,,,,,,,"[""0""]",1,[2.62279999999987],0,0,0,7,1,,,,,,,,,,,,,,,,,,
,,,,,,,,,5f63bfde15806b111703d6f9,22,Mężczyzna,2022-06-04_08h38.10.957,task,2021.1.4,Win32,59.97720866,628b806c463b948bc644b84f,629afdadcaaa92ffdccc9ea6,,,,,,,,,,,X V Q F H G B L J M P D K C T S W R N Z,,,,,,,,,,,,,,,,,,,,,,,,,,,,,,,,,,,,,,,,,,,,,,,,,,,,,,,,,,,,,,,,,,,,,,,,,,,,1,0,1,0,1,,,,,,,,,,,,,
,,,,,,,,,5f63bfde15806b111703d6f9,22,Mężczyzna,2022-06-04_08h38.10.957,task,2021.1.4,Win32,59.97720866,628b806c463b948bc644b84f,629afdadcaaa92ffdccc9ea6,,,,,,,,,,,,,,,,,,,,,,,,4,,,,,,,,,,Task,4,(1x5) - 1,4,,,,,,,,,,,,,,,,,,,1,,,,,,,,,,,,,,,,,,,,,,,"[""4""]",1,[4.721400000000358],0,0,0,3,1,,,,,,,,,,,,,,,,,,
,,,,,,,,,5f63bfde15806b111703d6f9,22,Mężczyzna,2022-06-04_08h38.10.957,task,2021.1.4,Win32,59.97720866,628b806c463b948bc644b84f,629afdadcaaa92ffdccc9ea6,,,,,,,,,,,X V Q F H G B L J M P D K C T S W R N Z,,,,,,,,,,,,,,,,,,,,,,,,,,,,,,,,,,,,,,,,,,,,,,,,,,,,,,,,,,,,,,,,,,,,,,,,,,,,2,0,2,0,1,,,,,,,,,,,,,
,,,,,,,,,5f63bfde15806b111703d6f9,22,Mężczyzna,2022-06-04_08h38.10.957,task,2021.1.4,Win32,59.97720866,628b806c463b948bc644b84f,629afdadcaaa92ffdccc9ea6,,,,,,,,,,,,,,,,,,,,,,,,9,,,,,,,,,,Task,40,(7x2) - 5,9,,,,,,,,,,,,,,,,,,,1,,,,,,,,,,,,,,,,,,,,,,,"[""9""]",1,[4.5504000000000815],0,0,0,39,1,,,,,,,,,,,,,,,,,,
,,,,,,,,,5f63bfde15806b111703d6f9,22,Mężczyzna,2022-06-04_08h38.10.957,task,2021.1.4,Win32,59.97720866,628b806c463b948bc644b84f,629afdadcaaa92ffdccc9ea6,,,,,,,,,,,X V Q F H G B L J M P D K C T S W R N Z,,,,,,,,,,,,,,,,,,,,,,,,,,,,,,,,,,,,,,,,,,,,,,,,,,,,,,,,,,,,,,,,,,,,,,,,,,,,3,0,3,0,1,,,,,,,,,,,,,
,,,,,,,,,5f63bfde15806b111703d6f9,22,Mężczyzna,2022-06-04_08h38.10.957,task,2021.1.4,Win32,59.97720866,628b806c463b948bc644b84f,629afdadcaaa92ffdccc9ea6,,,,,,,,,,,,,,,,,,,,,,,,8,,,,,,,,,,Task,38,(4x6) - 17,7,,,,,,,,,,,,,,,,,,,0,,,,,,,,,,,,,,,,,,,,,,,"[""8""]",0,[6.45089999999982],0,0,0,37,1,,,,,,,,,,,,,,,,,,
,,,,,,,,,5f63bfde15806b111703d6f9,22,Mężczyzna,2022-06-04_08h38.10.957,task,2021.1.4,Win32,59.97720866,628b806c463b948bc644b84f,629afdadcaaa92ffdccc9ea6,,,,,,,,,,,,,,,,,,,,,,,,8,,,,,,,,,,Task,23,(2x3) + 2,8,,,,,,,,,,,,,,,,,,,1,,,,,,,,,,,,,,,,,,,,,,,"[""8""]",1,[4.500500000000102],0,1,1,22,1,,,,,,,,,,,,,,,,,,
,,,,,,,,,5f63bfde15806b111703d6f9,22,Mężczyzna,2022-06-04_08h38.10.957,task,2021.1.4,Win32,59.97720866,628b806c463b948bc644b84f,629afdadcaaa92ffdccc9ea6,,,,,,,,,,,X V Q F H G B L J M P D K C T S W R N Z,,,,,,,,,,,,,,,,,,,,,,,,,,,,,,,,,,,,,,,,,,,,,,,,,,,,,,,,,,,,,,,,,,,,,,,,,,,,4,0,4,0,1,,,,,,,,,,,,,
,,,,,,,,,5f63bfde15806b111703d6f9,22,Mężczyzna,2022-06-04_08h38.10.957,task,2021.1.4,Win32,59.97720866,628b806c463b948bc644b84f,629afdadcaaa92ffdccc9ea6,,,,,,,,,,,,,,,,,,,,,,,,3,,,,,,,,,,Task,27,(3/3) + 2,3,,,,,,,,,,,,,,,,,,,1,,,,,,,,,,,,,,,,,,,,,,,"[""3""]",1,[5.294599999999946],0,0,0,26,1,,,,,,,,,,,,,,,,,,
,,,,,,,,,5f63bfde15806b111703d6f9,22,Mężczyzna,2022-06-04_08h38.10.957,task,2021.1.4,Win32,59.97720866,628b806c463b948bc644b84f,629afdadcaaa92ffdccc9ea6,,,,,,,,,,,X V Q F H G B L J M P D K C T S W R N Z,,,,,,,,,,,,,,,,,,,,,,,,,,,,,,,,,,,,,,,,,,,,,,,,,,,,,,,,,,,,,,,,,,,,,,,,,,,,5,0,5,0,1,,,,,,,,,,,,,
,,,,,,,,,5f63bfde15806b111703d6f9,22,Mężczyzna,2022-06-04_08h38.10.957,task,2021.1.4,Win32,59.97720866,628b806c463b948bc644b84f,629afdadcaaa92ffdccc9ea6,,,,,,,,,,,,,,,,,,,,,,,,8,,,,,,,,,,Task,23,(2x3) + 2,8,,,,,,,,,,,,,,,,,,,1,,,,,,,,,,,,,,,,,,,,,,,"[""8""]",1,[4.876500000000078],0,0,0,22,1,,,,,,,,,,,,,,,,,,
,,,,,,,,,5f63bfde15806b111703d6f9,22,Mężczyzna,2022-06-04_08h38.10.957,task,2021.1.4,Win32,59.97720866,628b806c463b948bc644b84f,629afdadcaaa92ffdccc9ea6,,,,,,,,,,,X V Q F H G B L J M P D K C T S W R N Z,,,,,,,,,,,,,,,,,,,,,,,,,,,,,,,,,,,,,,,,,,,,,,,,,,,,,,,,,,,,,,,,,,,,,,,,,,,,6,0,6,0,1,,,,,,,,,,,,,
,,,,,,,,,5f63bfde15806b111703d6f9,22,Mężczyzna,2022-06-04_08h38.10.957,task,2021.1.4,Win32,59.97720866,628b806c463b948bc644b84f,629afdadcaaa92ffdccc9ea6,,,,,,,,,,,,,,,,,,,,,,,,5,,,,,,,,,,Task,36,(8/4) + 3,5,,,,,,,,,,,,,,,,,,,1,,,,,,,,,,,,,,,,,,,,,,,"[""5""]",1,[16.137500000000045],0,0,0,35,1,,,,,,,,,,,,,,,,,,
,,,,,,,,,5f63bfde15806b111703d6f9,22,Mężczyzna,2022-06-04_08h38.10.957,task,2021.1.4,Win32,59.97720866,628b806c463b948bc644b84f,629afdadcaaa92ffdccc9ea6,,,,,,,,,,,X V Q F H G B L J M P D K C T S W R N Z,,,,,,,,,,,,,,,,,,,,,,,,,,,,,,,,,,,,,,,,,,,,,,,,,,,,,,,,,,,,,,,,,,,,,,,,,,,,7,0,7,0,1,,,,,,,,,,,,,
,,,,,,,,,5f63bfde15806b111703d6f9,22,Mężczyzna,2022-06-04_08h38.10.957,task,2021.1.4,Win32,59.97720866,628b806c463b948bc644b84f,629afdadcaaa92ffdccc9ea6,,,,,,,,,,,,,,,,,,,,,,,,,,,,,,,,,,,,,,,,,,,,,,,,,,,,,,,,,,,,,,,,,,,,,,,,,,,,,,,,,,,,,,,,,,,,chjdwfds,"[""c"",""h"",""j"",""d"",""w"",""f"",""d"",""s""]",0,"[2.8026000000002114,3.266700000000128,3.5734999999999673,8.100900000000365,8.804400000000442,19.95540000000051,21.68740000000048,22.01830000000041,25.7016000000001]",0,CHJDWFCS,7,0,7,0,1,,
,,,,,,,,,5f63bfde15806b111703d6f9,22,Mężczyzna,2022-06-04_08h38.10.957,task,2021.1.4,Win32,59.97720866,628b806c463b948bc644b84f,629afdadcaaa92ffdccc9ea6,,,,,,,,,,,,,,,,,,,,,,,,,,,,,,,,,,,,,,,,,,,,,,,,,,,,,,,,,,,,,,,,,,,,,,,,,,,,,,,,,,,,,,,,,,,,,,,,,,,,,,,space,2.6056
