key_resp_15.keys,key_resp_15.rt,key_resp_16.keys,key_resp_16.rt,key_resp_4.keys,key_resp_4.rt,next_letter.thisRepN,next_letter.thisTrialN,next_letter.thisN,next_letter.thisIndex,next_letter.ran,letter,participant,Wiek*,Płeć,date,expName,psychopyVersion,OS,frameRate,study_id,session,simple_recall,key_resp_5.keys,key_resp_5.rt,simple_recall_corr,simple_recall_corrkeys,next_level.thisRepN,next_level.thisTrialN,next_level.thisN,next_level.thisIndex,next_level.ran,key_resp_2.keys,key_resp_2.rt,digit_answer,key_resp.keys,key_resp.corr,key_resp.rt,RT_list,next_equation.thisRepN,next_equation.thisTrialN,next_equation.thisN,next_equation.thisIndex,next_equation.ran,Task,Trial,Problem,Operation_answer,processing_score,sumRT,meanRT,sumdiff,sd,RT,key_resp_3.keys,key_resp_3.rt,repeat_practice.thisRepN,repeat_practice.thisTrialN,repeat_practice.thisN,repeat_practice.thisIndex,repeat_practice.ran,key_resp_6.keys,key_resp_6.rt,key_resp_11.keys,key_resp_11.corr,key_resp_11.rt,operation_correct,repeat_if_wrong_prac.thisRepN,repeat_if_wrong_prac.thisTrialN,repeat_if_wrong_prac.thisN,repeat_if_wrong_prac.thisIndex,repeat_if_wrong_prac.ran,span_size_prac.thisRepN,span_size_prac.thisTrialN,span_size_prac.thisN,span_size_prac.thisIndex,span_size_prac.ran,complex_recall_practice,key_resp_9.keys,key_resp_9.corr,key_resp_9.rt,complex_prac_corr,span_recall_prac.thisRepN,span_recall_prac.thisTrialN,span_recall_prac.thisN,span_recall_prac.thisIndex,span_recall_prac.ran,key_resp_10.keys,key_resp_10.rt,key_resp_7.keys,key_resp_7.corr,key_resp_7.rt,repeat_if_wrong.thisRepN,repeat_if_wrong.thisTrialN,repeat_if_wrong.thisN,repeat_if_wrong.thisIndex,repeat_if_wrong.ran,span_size.thisRepN,span_size.thisTrialN,span_size.thisN,span_size.thisIndex,span_size.ran,complex_recall,key_resp_8.keys,key_resp_8.corr,key_resp_8.rt,complex_recall_corr,complex_recall_corrkeys,span_recall.thisRepN,span_recall.thisTrialN,span_recall.thisN,span_recall.thisIndex,span_recall.ran,key_resp_13.keys,key_resp_13.corr,random_loop.thisRepN,random_loop.thisTrialN,random_loop.thisN,random_loop.thisIndex,random_loop.ran,key_resp_13.rt,key_resp_12.keys,key_resp_12.rt
space,10.1354,space,18.9949,space,5.7373,0,0,0,0,1,X V Q F H G B L J M P D K C T S W R N Z,5f64f12fc0570701c3bfbe7a,22,Kobieta,2022-06-11_09h39.06.999,task,2021.1.4,Win32,59.8372427,6299f149e92ead563fba08ef,62a44457c549e93cd7b5552b,,,,,,,,,,,,,,,,,,,,,,,,,,,,,,,,,,,,,,,,,,,,,,,,,,,,,,,,,,,,,,,,,,,,,,,,,,,,,,,,,,,,,,,,,,,,,,,,,,,,,
,,,,,,1,0,1,0,1,X V Q F H G B L J M P D K C T S W R N Z,5f64f12fc0570701c3bfbe7a,22,Kobieta,2022-06-11_09h39.06.999,task,2021.1.4,Win32,59.8372427,6299f149e92ead563fba08ef,62a44457c549e93cd7b5552b,,,,,,,,,,,,,,,,,,,,,,,,,,,,,,,,,,,,,,,,,,,,,,,,,,,,,,,,,,,,,,,,,,,,,,,,,,,,,,,,,,,,,,,,,,,,,,,,,,,,,
,,,,,,,,,,,,5f64f12fc0570701c3bfbe7a,22,Kobieta,2022-06-11_09h39.06.999,task,2021.1.4,Win32,59.8372427,6299f149e92ead563fba08ef,62a44457c549e93cd7b5552b,zq,"[""z"",""q""]","[21.234400000095363,21.783799999952308,22.649299999952305]",1,ZQ,0,0,0,0,1,,,,,,,,,,,,,,,,,,,,,,,,,,,,,,,,,,,,,,,,,,,,,,,,,,,,,,,,,,,,,,,,,,,,,,,,,,,,,,,,,,,,,,,,,,,
,,,,,,0,0,0,0,1,X V Q F H G B L J M P D K C T S W R N Z,5f64f12fc0570701c3bfbe7a,22,Kobieta,2022-06-11_09h39.06.999,task,2021.1.4,Win32,59.8372427,6299f149e92ead563fba08ef,62a44457c549e93cd7b5552b,,,,,,,,,,,,,,,,,,,,,,,,,,,,,,,,,,,,,,,,,,,,,,,,,,,,,,,,,,,,,,,,,,,,,,,,,,,,,,,,,,,,,,,,,,,,,,,,,,,,,
,,,,,,1,0,1,0,1,X V Q F H G B L J M P D K C T S W R N Z,5f64f12fc0570701c3bfbe7a,22,Kobieta,2022-06-11_09h39.06.999,task,2021.1.4,Win32,59.8372427,6299f149e92ead563fba08ef,62a44457c549e93cd7b5552b,,,,,,,,,,,,,,,,,,,,,,,,,,,,,,,,,,,,,,,,,,,,,,,,,,,,,,,,,,,,,,,,,,,,,,,,,,,,,,,,,,,,,,,,,,,,,,,,,,,,,
,,,,,,,,,,,,5f64f12fc0570701c3bfbe7a,22,Kobieta,2022-06-11_09h39.06.999,task,2021.1.4,Win32,59.8372427,6299f149e92ead563fba08ef,62a44457c549e93cd7b5552b,sz,"[""s"",""z""]","[1.4854999999999876,1.772399999856944,2.2834999999999894]",1,SZ,1,0,1,0,1,,,,,,,,,,,,,,,,,,,,,,,,,,,,,,,,,,,,,,,,,,,,,,,,,,,,,,,,,,,,,,,,,,,,,,,,,,,,,,,,,,,,,,,,,,,
,,,,,,0,0,0,0,1,X V Q F H G B L J M P D K C T S W R N Z,5f64f12fc0570701c3bfbe7a,22,Kobieta,2022-06-11_09h39.06.999,task,2021.1.4,Win32,59.8372427,6299f149e92ead563fba08ef,62a44457c549e93cd7b5552b,,,,,,,,,,,,,,,,,,,,,,,,,,,,,,,,,,,,,,,,,,,,,,,,,,,,,,,,,,,,,,,,,,,,,,,,,,,,,,,,,,,,,,,,,,,,,,,,,,,,,
,,,,,,1,0,1,0,1,X V Q F H G B L J M P D K C T S W R N Z,5f64f12fc0570701c3bfbe7a,22,Kobieta,2022-06-11_09h39.06.999,task,2021.1.4,Win32,59.8372427,6299f149e92ead563fba08ef,62a44457c549e93cd7b5552b,,,,,,,,,,,,,,,,,,,,,,,,,,,,,,,,,,,,,,,,,,,,,,,,,,,,,,,,,,,,,,,,,,,,,,,,,,,,,,,,,,,,,,,,,,,,,,,,,,,,,
,,,,,,2,0,2,0,1,X V Q F H G B L J M P D K C T S W R N Z,5f64f12fc0570701c3bfbe7a,22,Kobieta,2022-06-11_09h39.06.999,task,2021.1.4,Win32,59.8372427,6299f149e92ead563fba08ef,62a44457c549e93cd7b5552b,,,,,,,,,,,,,,,,,,,,,,,,,,,,,,,,,,,,,,,,,,,,,,,,,,,,,,,,,,,,,,,,,,,,,,,,,,,,,,,,,,,,,,,,,,,,,,,,,,,,,
,,,,,,,,,,,,5f64f12fc0570701c3bfbe7a,22,Kobieta,2022-06-11_09h39.06.999,task,2021.1.4,Win32,59.8372427,6299f149e92ead563fba08ef,62a44457c549e93cd7b5552b,xlk,"[""x"",""l"",""k""]","[1.4509000000953733,1.7515000000000072,1.9187999999523129,3.019799999952312]",1,XLK,2,0,2,0,1,,,,,,,,,,,,,,,,,,,,,,,,,,,,,,,,,,,,,,,,,,,,,,,,,,,,,,,,,,,,,,,,,,,,,,,,,,,,,,,,,,,,,,,,,,,
,,,,,,0,0,0,0,1,X V Q F H G B L J M P D K C T S W R N Z,5f64f12fc0570701c3bfbe7a,22,Kobieta,2022-06-11_09h39.06.999,task,2021.1.4,Win32,59.8372427,6299f149e92ead563fba08ef,62a44457c549e93cd7b5552b,,,,,,,,,,,,,,,,,,,,,,,,,,,,,,,,,,,,,,,,,,,,,,,,,,,,,,,,,,,,,,,,,,,,,,,,,,,,,,,,,,,,,,,,,,,,,,,,,,,,,
,,,,,,1,0,1,0,1,X V Q F H G B L J M P D K C T S W R N Z,5f64f12fc0570701c3bfbe7a,22,Kobieta,2022-06-11_09h39.06.999,task,2021.1.4,Win32,59.8372427,6299f149e92ead563fba08ef,62a44457c549e93cd7b5552b,,,,,,,,,,,,,,,,,,,,,,,,,,,,,,,,,,,,,,,,,,,,,,,,,,,,,,,,,,,,,,,,,,,,,,,,,,,,,,,,,,,,,,,,,,,,,,,,,,,,,
,,,,,,2,0,2,0,1,X V Q F H G B L J M P D K C T S W R N Z,5f64f12fc0570701c3bfbe7a,22,Kobieta,2022-06-11_09h39.06.999,task,2021.1.4,Win32,59.8372427,6299f149e92ead563fba08ef,62a44457c549e93cd7b5552b,,,,,,,,,,,,,,,,,,,,,,,,,,,,,,,,,,,,,,,,,,,,,,,,,,,,,,,,,,,,,,,,,,,,,,,,,,,,,,,,,,,,,,,,,,,,,,,,,,,,,
,,,,,,,,,,,,5f64f12fc0570701c3bfbe7a,22,Kobieta,2022-06-11_09h39.06.999,task,2021.1.4,Win32,59.8372427,6299f149e92ead563fba08ef,62a44457c549e93cd7b5552b,mvv,"[""m"",""v"",""v""]","[0.9671000001430485,2.9161000001430466,3.035700000047683,3.6599000000953623]",1,MVV,3,0,3,0,1,,,,,,,,,,,,,,,,,,,,,,,,,,,,,,,,,,,,,,,,,,,,,,,,,,,,,,,,,,,,,,,,,,,,,,,,,,,,,,,,,,,,,,,,,,,
,,,,,,0,0,0,0,1,X V Q F H G B L J M P D K C T S W R N Z,5f64f12fc0570701c3bfbe7a,22,Kobieta,2022-06-11_09h39.06.999,task,2021.1.4,Win32,59.8372427,6299f149e92ead563fba08ef,62a44457c549e93cd7b5552b,,,,,,,,,,,,,,,,,,,,,,,,,,,,,,,,,,,,,,,,,,,,,,,,,,,,,,,,,,,,,,,,,,,,,,,,,,,,,,,,,,,,,,,,,,,,,,,,,,,,,
,,,,,,1,0,1,0,1,X V Q F H G B L J M P D K C T S W R N Z,5f64f12fc0570701c3bfbe7a,22,Kobieta,2022-06-11_09h39.06.999,task,2021.1.4,Win32,59.8372427,6299f149e92ead563fba08ef,62a44457c549e93cd7b5552b,,,,,,,,,,,,,,,,,,,,,,,,,,,,,,,,,,,,,,,,,,,,,,,,,,,,,,,,,,,,,,,,,,,,,,,,,,,,,,,,,,,,,,,,,,,,,,,,,,,,,
,,,,,,2,0,2,0,1,X V Q F H G B L J M P D K C T S W R N Z,5f64f12fc0570701c3bfbe7a,22,Kobieta,2022-06-11_09h39.06.999,task,2021.1.4,Win32,59.8372427,6299f149e92ead563fba08ef,62a44457c549e93cd7b5552b,,,,,,,,,,,,,,,,,,,,,,,,,,,,,,,,,,,,,,,,,,,,,,,,,,,,,,,,,,,,,,,,,,,,,,,,,,,,,,,,,,,,,,,,,,,,,,,,,,,,,
,,,,,,3,0,3,0,1,X V Q F H G B L J M P D K C T S W R N Z,5f64f12fc0570701c3bfbe7a,22,Kobieta,2022-06-11_09h39.06.999,task,2021.1.4,Win32,59.8372427,6299f149e92ead563fba08ef,62a44457c549e93cd7b5552b,,,,,,,,,,,,,,,,,,,,,,,,,,,,,,,,,,,,,,,,,,,,,,,,,,,,,,,,,,,,,,,,,,,,,,,,,,,,,,,,,,,,,,,,,,,,,,,,,,,,,
,,,,,,,,,,,,5f64f12fc0570701c3bfbe7a,22,Kobieta,2022-06-11_09h39.06.999,task,2021.1.4,Win32,59.8372427,6299f149e92ead563fba08ef,62a44457c549e93cd7b5552b,lzs,"[""l"",""z"",""s""]","[2.7677000000476824,3.585200000047678,3.7789999999999964,4.665999999999997]",0,LZSZ,4,0,4,0,1,,,,,,,,,,,,,,,,,,,,,,,,,,,,,,,,,,,,,,,,,,,,,,,,,,,,,,,,,,,,,,,,,,,,,,,,,,,,,,,,,,,,,,,,,,,
,,,,,,0,0,0,0,1,X V Q F H G B L J M P D K C T S W R N Z,5f64f12fc0570701c3bfbe7a,22,Kobieta,2022-06-11_09h39.06.999,task,2021.1.4,Win32,59.8372427,6299f149e92ead563fba08ef,62a44457c549e93cd7b5552b,,,,,,,,,,,,,,,,,,,,,,,,,,,,,,,,,,,,,,,,,,,,,,,,,,,,,,,,,,,,,,,,,,,,,,,,,,,,,,,,,,,,,,,,,,,,,,,,,,,,,
,,,,,,1,0,1,0,1,X V Q F H G B L J M P D K C T S W R N Z,5f64f12fc0570701c3bfbe7a,22,Kobieta,2022-06-11_09h39.06.999,task,2021.1.4,Win32,59.8372427,6299f149e92ead563fba08ef,62a44457c549e93cd7b5552b,,,,,,,,,,,,,,,,,,,,,,,,,,,,,,,,,,,,,,,,,,,,,,,,,,,,,,,,,,,,,,,,,,,,,,,,,,,,,,,,,,,,,,,,,,,,,,,,,,,,,
,,,,,,2,0,2,0,1,X V Q F H G B L J M P D K C T S W R N Z,5f64f12fc0570701c3bfbe7a,22,Kobieta,2022-06-11_09h39.06.999,task,2021.1.4,Win32,59.8372427,6299f149e92ead563fba08ef,62a44457c549e93cd7b5552b,,,,,,,,,,,,,,,,,,,,,,,,,,,,,,,,,,,,,,,,,,,,,,,,,,,,,,,,,,,,,,,,,,,,,,,,,,,,,,,,,,,,,,,,,,,,,,,,,,,,,
,,,,,,3,0,3,0,1,X V Q F H G B L J M P D K C T S W R N Z,5f64f12fc0570701c3bfbe7a,22,Kobieta,2022-06-11_09h39.06.999,task,2021.1.4,Win32,59.8372427,6299f149e92ead563fba08ef,62a44457c549e93cd7b5552b,,,,,,,,,,,,,,,,,,,,,,,,,,,,,,,,,,,,,,,,,,,,,,,,,,,,,,,,,,,,,,,,,,,,,,,,,,,,,,,,,,,,,,,,,,,,,,,,,,,,,
,,,,,,,,,,,,5f64f12fc0570701c3bfbe7a,22,Kobieta,2022-06-11_09h39.06.999,task,2021.1.4,Win32,59.8372427,6299f149e92ead563fba08ef,62a44457c549e93cd7b5552b,bttl,"[""b"",""t"",""t"",""l""]","[1.0489999999999924,1.4005999999046281,1.5333999998569396,2.200299999952307,2.4663999998569466]",1,BTTL,5,0,5,0,1,,,,,,,,,,,,,,,,,,,,,,,,,,,,,,,,,,,,,,,,,,,,,,,,,,,,,,,,,,,,,,,,,,,,,,,,,,,,,,,,,,,,,,,,,,,
,,,,,,0,0,0,0,1,X V Q F H G B L J M P D K C T S W R N Z,5f64f12fc0570701c3bfbe7a,22,Kobieta,2022-06-11_09h39.06.999,task,2021.1.4,Win32,59.8372427,6299f149e92ead563fba08ef,62a44457c549e93cd7b5552b,,,,,,,,,,,,,,,,,,,,,,,,,,,,,,,,,,,,,,,,,,,,,,,,,,,,,,,,,,,,,,,,,,,,,,,,,,,,,,,,,,,,,,,,,,,,,,,,,,,,,
,,,,,,1,0,1,0,1,X V Q F H G B L J M P D K C T S W R N Z,5f64f12fc0570701c3bfbe7a,22,Kobieta,2022-06-11_09h39.06.999,task,2021.1.4,Win32,59.8372427,6299f149e92ead563fba08ef,62a44457c549e93cd7b5552b,,,,,,,,,,,,,,,,,,,,,,,,,,,,,,,,,,,,,,,,,,,,,,,,,,,,,,,,,,,,,,,,,,,,,,,,,,,,,,,,,,,,,,,,,,,,,,,,,,,,,
,,,,,,2,0,2,0,1,X V Q F H G B L J M P D K C T S W R N Z,5f64f12fc0570701c3bfbe7a,22,Kobieta,2022-06-11_09h39.06.999,task,2021.1.4,Win32,59.8372427,6299f149e92ead563fba08ef,62a44457c549e93cd7b5552b,,,,,,,,,,,,,,,,,,,,,,,,,,,,,,,,,,,,,,,,,,,,,,,,,,,,,,,,,,,,,,,,,,,,,,,,,,,,,,,,,,,,,,,,,,,,,,,,,,,,,
,,,,,,3,0,3,0,1,X V Q F H G B L J M P D K C T S W R N Z,5f64f12fc0570701c3bfbe7a,22,Kobieta,2022-06-11_09h39.06.999,task,2021.1.4,Win32,59.8372427,6299f149e92ead563fba08ef,62a44457c549e93cd7b5552b,,,,,,,,,,,,,,,,,,,,,,,,,,,,,,,,,,,,,,,,,,,,,,,,,,,,,,,,,,,,,,,,,,,,,,,,,,,,,,,,,,,,,,,,,,,,,,,,,,,,,
,,,,,,,,,,,,5f64f12fc0570701c3bfbe7a,22,Kobieta,2022-06-11_09h39.06.999,task,2021.1.4,Win32,59.8372427,6299f149e92ead563fba08ef,62a44457c549e93cd7b5552b,ddvq,"[""d"",""d"",""v"",""q""]","[1.5837000000476849,1.7522000000476794,2.0512999999523203,2.6172999999523228,3.8004999999999995]",1,DDVQ,6,0,6,0,1,,,,,,,,,,,,,,,,,,,,,,,,,,,,,,,,,,,,,,,,,,,,,,,,,,,,,,,,,,,,,,,,,,,,,,,,,,,,,,,,,,,,,,,,,,,
,,,,,,0,0,0,0,1,X V Q F H G B L J M P D K C T S W R N Z,5f64f12fc0570701c3bfbe7a,22,Kobieta,2022-06-11_09h39.06.999,task,2021.1.4,Win32,59.8372427,6299f149e92ead563fba08ef,62a44457c549e93cd7b5552b,,,,,,,,,,,,,,,,,,,,,,,,,,,,,,,,,,,,,,,,,,,,,,,,,,,,,,,,,,,,,,,,,,,,,,,,,,,,,,,,,,,,,,,,,,,,,,,,,,,,,
,,,,,,1,0,1,0,1,X V Q F H G B L J M P D K C T S W R N Z,5f64f12fc0570701c3bfbe7a,22,Kobieta,2022-06-11_09h39.06.999,task,2021.1.4,Win32,59.8372427,6299f149e92ead563fba08ef,62a44457c549e93cd7b5552b,,,,,,,,,,,,,,,,,,,,,,,,,,,,,,,,,,,,,,,,,,,,,,,,,,,,,,,,,,,,,,,,,,,,,,,,,,,,,,,,,,,,,,,,,,,,,,,,,,,,,
,,,,,,2,0,2,0,1,X V Q F H G B L J M P D K C T S W R N Z,5f64f12fc0570701c3bfbe7a,22,Kobieta,2022-06-11_09h39.06.999,task,2021.1.4,Win32,59.8372427,6299f149e92ead563fba08ef,62a44457c549e93cd7b5552b,,,,,,,,,,,,,,,,,,,,,,,,,,,,,,,,,,,,,,,,,,,,,,,,,,,,,,,,,,,,,,,,,,,,,,,,,,,,,,,,,,,,,,,,,,,,,,,,,,,,,
,,,,,,3,0,3,0,1,X V Q F H G B L J M P D K C T S W R N Z,5f64f12fc0570701c3bfbe7a,22,Kobieta,2022-06-11_09h39.06.999,task,2021.1.4,Win32,59.8372427,6299f149e92ead563fba08ef,62a44457c549e93cd7b5552b,,,,,,,,,,,,,,,,,,,,,,,,,,,,,,,,,,,,,,,,,,,,,,,,,,,,,,,,,,,,,,,,,,,,,,,,,,,,,,,,,,,,,,,,,,,,,,,,,,,,,
,,,,,,4,0,4,0,1,X V Q F H G B L J M P D K C T S W R N Z,5f64f12fc0570701c3bfbe7a,22,Kobieta,2022-06-11_09h39.06.999,task,2021.1.4,Win32,59.8372427,6299f149e92ead563fba08ef,62a44457c549e93cd7b5552b,,,,,,,,,,,,,,,,,,,,,,,,,,,,,,,,,,,,,,,,,,,,,,,,,,,,,,,,,,,,,,,,,,,,,,,,,,,,,,,,,,,,,,,,,,,,,,,,,,,,,
,,,,,,,,,,,,5f64f12fc0570701c3bfbe7a,22,Kobieta,2022-06-11_09h39.06.999,task,2021.1.4,Win32,59.8372427,6299f149e92ead563fba08ef,62a44457c549e93cd7b5552b,trxp,"[""t"",""r"",""x"",""p""]","[2.0847999999523097,6.13900000000001,7.136700000047682,7.587299999952307,8.16729999995232]",0,TRXPV,7,0,7,0,1,,,,,,,,,,,,,,,,,,,,,,,,,,,,,,,,,,,,,,,,,,,,,,,,,,,,,,,,,,,,,,,,,,,,,,,,,,,,,,,,,,,,,,,,,,,
,,,,,,0,0,0,0,1,X V Q F H G B L J M P D K C T S W R N Z,5f64f12fc0570701c3bfbe7a,22,Kobieta,2022-06-11_09h39.06.999,task,2021.1.4,Win32,59.8372427,6299f149e92ead563fba08ef,62a44457c549e93cd7b5552b,,,,,,,,,,,,,,,,,,,,,,,,,,,,,,,,,,,,,,,,,,,,,,,,,,,,,,,,,,,,,,,,,,,,,,,,,,,,,,,,,,,,,,,,,,,,,,,,,,,,,
,,,,,,1,0,1,0,1,X V Q F H G B L J M P D K C T S W R N Z,5f64f12fc0570701c3bfbe7a,22,Kobieta,2022-06-11_09h39.06.999,task,2021.1.4,Win32,59.8372427,6299f149e92ead563fba08ef,62a44457c549e93cd7b5552b,,,,,,,,,,,,,,,,,,,,,,,,,,,,,,,,,,,,,,,,,,,,,,,,,,,,,,,,,,,,,,,,,,,,,,,,,,,,,,,,,,,,,,,,,,,,,,,,,,,,,
,,,,,,2,0,2,0,1,X V Q F H G B L J M P D K C T S W R N Z,5f64f12fc0570701c3bfbe7a,22,Kobieta,2022-06-11_09h39.06.999,task,2021.1.4,Win32,59.8372427,6299f149e92ead563fba08ef,62a44457c549e93cd7b5552b,,,,,,,,,,,,,,,,,,,,,,,,,,,,,,,,,,,,,,,,,,,,,,,,,,,,,,,,,,,,,,,,,,,,,,,,,,,,,,,,,,,,,,,,,,,,,,,,,,,,,
,,,,,,3,0,3,0,1,X V Q F H G B L J M P D K C T S W R N Z,5f64f12fc0570701c3bfbe7a,22,Kobieta,2022-06-11_09h39.06.999,task,2021.1.4,Win32,59.8372427,6299f149e92ead563fba08ef,62a44457c549e93cd7b5552b,,,,,,,,,,,,,,,,,,,,,,,,,,,,,,,,,,,,,,,,,,,,,,,,,,,,,,,,,,,,,,,,,,,,,,,,,,,,,,,,,,,,,,,,,,,,,,,,,,,,,
,,,,,,4,0,4,0,1,X V Q F H G B L J M P D K C T S W R N Z,5f64f12fc0570701c3bfbe7a,22,Kobieta,2022-06-11_09h39.06.999,task,2021.1.4,Win32,59.8372427,6299f149e92ead563fba08ef,62a44457c549e93cd7b5552b,,,,,,,,,,,,,,,,,,,,,,,,,,,,,,,,,,,,,,,,,,,,,,,,,,,,,,,,,,,,,,,,,,,,,,,,,,,,,,,,,,,,,,,,,,,,,,,,,,,,,
,,,,,,,,,,,,5f64f12fc0570701c3bfbe7a,22,Kobieta,2022-06-11_09h39.06.999,task,2021.1.4,Win32,59.8372427,6299f149e92ead563fba08ef,62a44457c549e93cd7b5552b,xnbmx,"[""x"",""n"",""b"",""m"",""x""]","[1.8425000000000011,2.4507999999523236,3.5015000000000214,3.922799999952332,4.265700000047701,5.143599999904637]",1,XNBMX,8,0,8,0,1,,,,,,,,,,,,,,,,,,,,,,,,,,,,,,,,,,,,,,,,,,,,,,,,,,,,,,,,,,,,,,,,,,,,,,,,,,,,,,,,,,,,,,,,,,,
,,,,,,0,0,0,0,1,X V Q F H G B L J M P D K C T S W R N Z,5f64f12fc0570701c3bfbe7a,22,Kobieta,2022-06-11_09h39.06.999,task,2021.1.4,Win32,59.8372427,6299f149e92ead563fba08ef,62a44457c549e93cd7b5552b,,,,,,,,,,,,,,,,,,,,,,,,,,,,,,,,,,,,,,,,,,,,,,,,,,,,,,,,,,,,,,,,,,,,,,,,,,,,,,,,,,,,,,,,,,,,,,,,,,,,,
,,,,,,1,0,1,0,1,X V Q F H G B L J M P D K C T S W R N Z,5f64f12fc0570701c3bfbe7a,22,Kobieta,2022-06-11_09h39.06.999,task,2021.1.4,Win32,59.8372427,6299f149e92ead563fba08ef,62a44457c549e93cd7b5552b,,,,,,,,,,,,,,,,,,,,,,,,,,,,,,,,,,,,,,,,,,,,,,,,,,,,,,,,,,,,,,,,,,,,,,,,,,,,,,,,,,,,,,,,,,,,,,,,,,,,,
,,,,,,2,0,2,0,1,X V Q F H G B L J M P D K C T S W R N Z,5f64f12fc0570701c3bfbe7a,22,Kobieta,2022-06-11_09h39.06.999,task,2021.1.4,Win32,59.8372427,6299f149e92ead563fba08ef,62a44457c549e93cd7b5552b,,,,,,,,,,,,,,,,,,,,,,,,,,,,,,,,,,,,,,,,,,,,,,,,,,,,,,,,,,,,,,,,,,,,,,,,,,,,,,,,,,,,,,,,,,,,,,,,,,,,,
,,,,,,3,0,3,0,1,X V Q F H G B L J M P D K C T S W R N Z,5f64f12fc0570701c3bfbe7a,22,Kobieta,2022-06-11_09h39.06.999,task,2021.1.4,Win32,59.8372427,6299f149e92ead563fba08ef,62a44457c549e93cd7b5552b,,,,,,,,,,,,,,,,,,,,,,,,,,,,,,,,,,,,,,,,,,,,,,,,,,,,,,,,,,,,,,,,,,,,,,,,,,,,,,,,,,,,,,,,,,,,,,,,,,,,,
,,,,,,4,0,4,0,1,X V Q F H G B L J M P D K C T S W R N Z,5f64f12fc0570701c3bfbe7a,22,Kobieta,2022-06-11_09h39.06.999,task,2021.1.4,Win32,59.8372427,6299f149e92ead563fba08ef,62a44457c549e93cd7b5552b,,,,,,,,,,,,,,,,,,,,,,,,,,,,,,,,,,,,,,,,,,,,,,,,,,,,,,,,,,,,,,,,,,,,,,,,,,,,,,,,,,,,,,,,,,,,,,,,,,,,,
,,,,,,,,,,,,5f64f12fc0570701c3bfbe7a,22,Kobieta,2022-06-11_09h39.06.999,task,2021.1.4,Win32,59.8372427,6299f149e92ead563fba08ef,62a44457c549e93cd7b5552b,rlsjq,"[""r"",""l"",""s"",""j"",""q""]","[1.1506000001430436,1.517300000190744,2.5844000000953713,3.169000000000011,3.767800000190732,4.517600000143062]",0,RSLJQ,9,0,9,0,1,,,,,,,,,,,,,,,,,,,,,,,,,,,,,,,,,,,,,,,,,,,,,,,,,,,,,,,,,,,,,,,,,,,,,,,,,,,,,,,,,,,,,,,,,,,
,,,,,,0,0,0,0,1,X V Q F H G B L J M P D K C T S W R N Z,5f64f12fc0570701c3bfbe7a,22,Kobieta,2022-06-11_09h39.06.999,task,2021.1.4,Win32,59.8372427,6299f149e92ead563fba08ef,62a44457c549e93cd7b5552b,,,,,,,,,,,,,,,,,,,,,,,,,,,,,,,,,,,,,,,,,,,,,,,,,,,,,,,,,,,,,,,,,,,,,,,,,,,,,,,,,,,,,,,,,,,,,,,,,,,,,
,,,,,,1,0,1,0,1,X V Q F H G B L J M P D K C T S W R N Z,5f64f12fc0570701c3bfbe7a,22,Kobieta,2022-06-11_09h39.06.999,task,2021.1.4,Win32,59.8372427,6299f149e92ead563fba08ef,62a44457c549e93cd7b5552b,,,,,,,,,,,,,,,,,,,,,,,,,,,,,,,,,,,,,,,,,,,,,,,,,,,,,,,,,,,,,,,,,,,,,,,,,,,,,,,,,,,,,,,,,,,,,,,,,,,,,
,,,,,,2,0,2,0,1,X V Q F H G B L J M P D K C T S W R N Z,5f64f12fc0570701c3bfbe7a,22,Kobieta,2022-06-11_09h39.06.999,task,2021.1.4,Win32,59.8372427,6299f149e92ead563fba08ef,62a44457c549e93cd7b5552b,,,,,,,,,,,,,,,,,,,,,,,,,,,,,,,,,,,,,,,,,,,,,,,,,,,,,,,,,,,,,,,,,,,,,,,,,,,,,,,,,,,,,,,,,,,,,,,,,,,,,
,,,,,,3,0,3,0,1,X V Q F H G B L J M P D K C T S W R N Z,5f64f12fc0570701c3bfbe7a,22,Kobieta,2022-06-11_09h39.06.999,task,2021.1.4,Win32,59.8372427,6299f149e92ead563fba08ef,62a44457c549e93cd7b5552b,,,,,,,,,,,,,,,,,,,,,,,,,,,,,,,,,,,,,,,,,,,,,,,,,,,,,,,,,,,,,,,,,,,,,,,,,,,,,,,,,,,,,,,,,,,,,,,,,,,,,
,,,,,,4,0,4,0,1,X V Q F H G B L J M P D K C T S W R N Z,5f64f12fc0570701c3bfbe7a,22,Kobieta,2022-06-11_09h39.06.999,task,2021.1.4,Win32,59.8372427,6299f149e92ead563fba08ef,62a44457c549e93cd7b5552b,,,,,,,,,,,,,,,,,,,,,,,,,,,,,,,,,,,,,,,,,,,,,,,,,,,,,,,,,,,,,,,,,,,,,,,,,,,,,,,,,,,,,,,,,,,,,,,,,,,,,
,,,,,,,,,,,,5f64f12fc0570701c3bfbe7a,22,Kobieta,2022-06-11_09h39.06.999,task,2021.1.4,Win32,59.8372427,6299f149e92ead563fba08ef,62a44457c549e93cd7b5552b,fgfjmu,"[""f"",""g"",""f"",""j"",""m"",""u""]","[2.4168999998569234,3.7169999999999845,5.975599999904631,8.336599999904621,8.884399999856925,10.067599999904616,10.803299999952316]",0,FGWMM,10,0,10,0,1,,,,,,,,,,,,,,,,,,,,,,,,,,,,,,,,,,,,,,,,,,,,,,,,,,,,,,,,,,,,,,,,,,,,,,,,,,,,,,,,,,,,,,,,,,,
,,,,,,,,,,,,5f64f12fc0570701c3bfbe7a,22,Kobieta,2022-06-11_09h39.06.999,task,2021.1.4,Win32,59.8372427,6299f149e92ead563fba08ef,62a44457c549e93cd7b5552b,,,,,,,,,,,space,7.0215,7,"[""7""]",1,[4.921999999999997],[4.921999999999997],0,0,0,7,1,Practice,8,(5x5) - 18,7,,,,,,,,,,,,,,,,,,,,,,,,,,,,,,,,,,,,,,,,,,,,,,,,,,,,,,,,,,,,,,,,,,,,,,,,,,,
,,,,,,,,,,,,5f64f12fc0570701c3bfbe7a,22,Kobieta,2022-06-11_09h39.06.999,task,2021.1.4,Win32,59.8372427,6299f149e92ead563fba08ef,62a44457c549e93cd7b5552b,,,,,,,,,,,,,5,"[""5""]",1,[4.484000000000009],"[4.921999999999997,4.484000000000009]",0,1,1,5,1,Practice,6,(4/2) + 3,5,,,,,,,,,,,,,,,,,,,,,,,,,,,,,,,,,,,,,,,,,,,,,,,,,,,,,,,,,,,,,,,,,,,,,,,,,,,
,,,,,,,,,,,,5f64f12fc0570701c3bfbe7a,22,Kobieta,2022-06-11_09h39.06.999,task,2021.1.4,Win32,59.8372427,6299f149e92ead563fba08ef,62a44457c549e93cd7b5552b,,,,,,,,,,,,,8,"[""8""]",1,[2.606399999856933],"[4.921999999999997,4.484000000000009,2.606399999856933]",0,2,2,8,1,Practice,9,(3x3) - 1,8,,,,,,,,,,,,,,,,,,,,,,,,,,,,,,,,,,,,,,,,,,,,,,,,,,,,,,,,,,,,,,,,,,,,,,,,,,,
,,,,,,,,,,,,5f64f12fc0570701c3bfbe7a,22,Kobieta,2022-06-11_09h39.06.999,task,2021.1.4,Win32,59.8372427,6299f149e92ead563fba08ef,62a44457c549e93cd7b5552b,,,,,,,,,,,,,4,"[""4""]",1,[2.5585000000000093],"[4.921999999999997,4.484000000000009,2.606399999856933,2.5585000000000093]",0,3,3,4,1,Practice,5,(2x6) - 8,4,,,,,,,,,,,,,,,,,,,,,,,,,,,,,,,,,,,,,,,,,,,,,,,,,,,,,,,,,,,,,,,,,,,,,,,,,,,
,,,,,,,,,,,,5f64f12fc0570701c3bfbe7a,22,Kobieta,2022-06-11_09h39.06.999,task,2021.1.4,Win32,59.8372427,6299f149e92ead563fba08ef,62a44457c549e93cd7b5552b,,,,,,,,,,,,,0,"[""0""]",1,[2.021100000143065],"[4.921999999999997,4.484000000000009,2.606399999856933,2.5585000000000093,2.021100000143065]",0,4,4,0,1,Practice,1,(3x3) -  9,0,,,,,,,,,,,,,,,,,,,,,,,,,,,,,,,,,,,,,,,,,,,,,,,,,,,,,,,,,,,,,,,,,,,,,,,,,,,
,,,,,,,,,,,,5f64f12fc0570701c3bfbe7a,22,Kobieta,2022-06-11_09h39.06.999,task,2021.1.4,Win32,59.8372427,6299f149e92ead563fba08ef,62a44457c549e93cd7b5552b,,,,,,,,,,,,,6,"[""6""]",1,[2.497400000095354],"[4.921999999999997,4.484000000000009,2.606399999856933,2.5585000000000093,2.021100000143065,2.497400000095354]",0,5,5,6,1,Practice,7,(25/5) + 1,6,,,,,,,,,,,,,,,,,,,,,,,,,,,,,,,,,,,,,,,,,,,,,,,,,,,,,,,,,,,,,,,,,,,,,,,,,,,
,,,,,,,,,,,,5f64f12fc0570701c3bfbe7a,22,Kobieta,2022-06-11_09h39.06.999,task,2021.1.4,Win32,59.8372427,6299f149e92ead563fba08ef,62a44457c549e93cd7b5552b,,,,,,,,,,,,,1,"[""1""]",1,[3.005599999904632],"[4.921999999999997,4.484000000000009,2.606399999856933,2.5585000000000093,2.021100000143065,2.497400000095354,3.005599999904632]",0,6,6,1,1,Practice,2,(4x4) - 15,1,,,,,,,,,,,,,,,,,,,,,,,,,,,,,,,,,,,,,,,,,,,,,,,,,,,,,,,,,,,,,,,,,,,,,,,,,,,
,,,,,,,,,,,,5f64f12fc0570701c3bfbe7a,22,Kobieta,2022-06-11_09h39.06.999,task,2021.1.4,Win32,59.8372427,6299f149e92ead563fba08ef,62a44457c549e93cd7b5552b,,,,,,,,,,,,,3,"[""3""]",1,[2.252299999952328],"[4.921999999999997,4.484000000000009,2.606399999856933,2.5585000000000093,2.021100000143065,2.497400000095354,3.005599999904632,2.252299999952328]",0,7,7,3,1,Practice,4,(8/4) + 1,3,,,,,,,,,,,,,,,,,,,,,,,,,,,,,,,,,,,,,,,,,,,,,,,,,,,,,,,,,,,,,,,,,,,,,,,,,,,
,,,,,,,,,,,,5f64f12fc0570701c3bfbe7a,22,Kobieta,2022-06-11_09h39.06.999,task,2021.1.4,Win32,59.8372427,6299f149e92ead563fba08ef,62a44457c549e93cd7b5552b,,,,,,,,,,,,,2,"[""2""]",1,[2.1192999999522897],"[4.921999999999997,4.484000000000009,2.606399999856933,2.5585000000000093,2.021100000143065,2.497400000095354,3.005599999904632,2.252299999952328,2.1192999999522897]",0,8,8,2,1,Practice,3,(4x4) - 14,2,,,,,,,,,,,,,,,,,,,,,,,,,,,,,,,,,,,,,,,,,,,,,,,,,,,,,,,,,,,,,,,,,,,,,,,,,,,
,,,,,,,,,,,,5f64f12fc0570701c3bfbe7a,22,Kobieta,2022-06-11_09h39.06.999,task,2021.1.4,Win32,59.8372427,6299f149e92ead563fba08ef,62a44457c549e93cd7b5552b,,,,,,,,,,,,,9,"[""9""]",1,[2.0686999998092688],"[4.921999999999997,4.484000000000009,2.606399999856933,2.5585000000000093,2.021100000143065,2.497400000095354,3.005599999904632,2.252299999952328,2.1192999999522897,2.0686999998092688]",0,9,9,9,1,Practice,10,(20/2) - 1,9,,,,,,,,,,,,,,,,,,,,,,,,,,,,,,,,,,,,,,,,,,,,,,,,,,,,,,,,,,,,,,,,,,,,,,,,,,,
,,,,,,,,,,,,5f64f12fc0570701c3bfbe7a,22,Kobieta,2022-06-11_09h39.06.999,task,2021.1.4,Win32,59.8372427,6299f149e92ead563fba08ef,62a44457c549e93cd7b5552b,,,,,,,,,,,,,,,,,,,,,,,,,,,1,28.5353,1.902353333,18.49190991,1.110312566,4.766959754,space,1.683,0,0,0,0,1,,,,,,,,,,,,,,,,,,,,,,,,,,,,,,,,,,,,,,,,,,,,,,,,,,,,,,,,,,,,,,
,,,,,,,,,,,,5f64f12fc0570701c3bfbe7a,22,Kobieta,2022-06-11_09h39.06.999,task,2021.1.4,Win32,59.8372427,6299f149e92ead563fba08ef,62a44457c549e93cd7b5552b,,,,,,,,,,,,,9,,,,,,,,,,Practice,10,(20/2) - 1,9,,,,,,,,,,,,,,space,12.7287,"[""9""]",1,[2.816900000095359],1,0,0,0,9,1,,,,,,,,,,,,,,,,,,,,,,,,,,,,,,,,,,,,,,,,,,,,,,,,,,,
,,,,,,,,,,,X V Q F H G B L J M P D K C T S W R N Z,5f64f12fc0570701c3bfbe7a,22,Kobieta,2022-06-11_09h39.06.999,task,2021.1.4,Win32,59.8372427,6299f149e92ead563fba08ef,62a44457c549e93cd7b5552b,,,,,,,,,,,,,,,,,,,,,,,,,,,,,,,,,,,,,,,,,,,,,,,,,,,0,0,0,0,1,,,,,,,,,,,,,,,,,,,,,,,,,,,,,,,,,,,,,,,,,,,,,,
,,,,,,,,,,,,5f64f12fc0570701c3bfbe7a,22,Kobieta,2022-06-11_09h39.06.999,task,2021.1.4,Win32,59.8372427,6299f149e92ead563fba08ef,62a44457c549e93cd7b5552b,,,,,,,,,,,,,1,,,,,,,,,,Practice,2,(4x4) - 15,1,,,,,,,,,,,,,,,,"[""1""]",1,[1.7055999999046207],1,0,0,0,1,1,,,,,,,,,,,,,,,,,,,,,,,,,,,,,,,,,,,,,,,,,,,,,,,,,,,
,,,,,,,,,,,X V Q F H G B L J M P D K C T S W R N Z,5f64f12fc0570701c3bfbe7a,22,Kobieta,2022-06-11_09h39.06.999,task,2021.1.4,Win32,59.8372427,6299f149e92ead563fba08ef,62a44457c549e93cd7b5552b,,,,,,,,,,,,,,,,,,,,,,,,,,,,,,,,,,,,,,,,,,,,,,,,,,,1,0,1,0,1,,,,,,,,,,,,,,,,,,,,,,,,,,,,,,,,,,,,,,,,,,,,,,
,,,,,,,,,,,,5f64f12fc0570701c3bfbe7a,22,Kobieta,2022-06-11_09h39.06.999,task,2021.1.4,Win32,59.8372427,6299f149e92ead563fba08ef,62a44457c549e93cd7b5552b,,,,,,,,,,,,,,,,,,,,,,,,,,,,,,,,,,,,,,,,,,,,,,,,,,,,,,,,zm,"[""z"",""m""]",0,"[2.304200000047672,2.8460999999045953,3.8344999999999914]",1,0,0,0,0,1,,,,,,,,,,,,,,,,,,,,,,,,,,,,,,,,,,,,
,,,,,,,,,,,,5f64f12fc0570701c3bfbe7a,22,Kobieta,2022-06-11_09h39.06.999,task,2021.1.4,Win32,59.8372427,6299f149e92ead563fba08ef,62a44457c549e93cd7b5552b,,,,,,,,,,,,,8,,,,,,,,,,Practice,9,(3x3) - 1,8,,,,,,,,,,,,,,,,"[""8""]",1,[2.259800000190751],1,0,0,0,8,1,,,,,,,,,,,,,,,,,,,,,,,,,,,,,,,,,,,,,,,,,,,,,,,,,,,
,,,,,,,,,,,X V Q F H G B L J M P D K C T S W R N Z,5f64f12fc0570701c3bfbe7a,22,Kobieta,2022-06-11_09h39.06.999,task,2021.1.4,Win32,59.8372427,6299f149e92ead563fba08ef,62a44457c549e93cd7b5552b,,,,,,,,,,,,,,,,,,,,,,,,,,,,,,,,,,,,,,,,,,,,,,,,,,,0,0,0,0,1,,,,,,,,,,,,,,,,,,,,,,,,,,,,,,,,,,,,,,,,,,,,,,
,,,,,,,,,,,,5f64f12fc0570701c3bfbe7a,22,Kobieta,2022-06-11_09h39.06.999,task,2021.1.4,Win32,59.8372427,6299f149e92ead563fba08ef,62a44457c549e93cd7b5552b,,,,,,,,,,,,,2,,,,,,,,,,Practice,3,(4x4) - 14,2,,,,,,,,,,,,,,,,"[""2""]",1,[2.0955000000000155],1,0,0,0,2,1,,,,,,,,,,,,,,,,,,,,,,,,,,,,,,,,,,,,,,,,,,,,,,,,,,,
,,,,,,,,,,,X V Q F H G B L J M P D K C T S W R N Z,5f64f12fc0570701c3bfbe7a,22,Kobieta,2022-06-11_09h39.06.999,task,2021.1.4,Win32,59.8372427,6299f149e92ead563fba08ef,62a44457c549e93cd7b5552b,,,,,,,,,,,,,,,,,,,,,,,,,,,,,,,,,,,,,,,,,,,,,,,,,,,1,0,1,0,1,,,,,,,,,,,,,,,,,,,,,,,,,,,,,,,,,,,,,,,,,,,,,,
,,,,,,,,,,,,5f64f12fc0570701c3bfbe7a,22,Kobieta,2022-06-11_09h39.06.999,task,2021.1.4,Win32,59.8372427,6299f149e92ead563fba08ef,62a44457c549e93cd7b5552b,,,,,,,,,,,,,,,,,,,,,,,,,,,,,,,,,,,,,,,,,,,,,,,,,,,,,,,,qm,"[""q"",""m""]",0,"[2.456599999904597,2.920799999952294,3.554399999856912]",1,1,0,1,0,1,,,,,,,,,,,,,,,,,,,,,,,,,,,,,,,,,,,,
,,,,,,,,,,,,5f64f12fc0570701c3bfbe7a,22,Kobieta,2022-06-11_09h39.06.999,task,2021.1.4,Win32,59.8372427,6299f149e92ead563fba08ef,62a44457c549e93cd7b5552b,,,,,,,,,,,,,5,,,,,,,,,,Practice,6,(4/2) + 3,5,,,,,,,,,,,,,,,,"[""5""]",1,[2.9168999998569802],1,0,0,0,5,1,,,,,,,,,,,,,,,,,,,,,,,,,,,,,,,,,,,,,,,,,,,,,,,,,,,
,,,,,,,,,,,X V Q F H G B L J M P D K C T S W R N Z,5f64f12fc0570701c3bfbe7a,22,Kobieta,2022-06-11_09h39.06.999,task,2021.1.4,Win32,59.8372427,6299f149e92ead563fba08ef,62a44457c549e93cd7b5552b,,,,,,,,,,,,,,,,,,,,,,,,,,,,,,,,,,,,,,,,,,,,,,,,,,,0,0,0,0,1,,,,,,,,,,,,,,,,,,,,,,,,,,,,,,,,,,,,,,,,,,,,,,
,,,,,,,,,,,,5f64f12fc0570701c3bfbe7a,22,Kobieta,2022-06-11_09h39.06.999,task,2021.1.4,Win32,59.8372427,6299f149e92ead563fba08ef,62a44457c549e93cd7b5552b,,,,,,,,,,,,,9,,,,,,,,,,Practice,10,(20/2) - 1,9,,,,,,,,,,,,,,,,"[""9""]",1,[1.982499999999959],1,0,0,0,9,1,,,,,,,,,,,,,,,,,,,,,,,,,,,,,,,,,,,,,,,,,,,,,,,,,,,
,,,,,,,,,,,X V Q F H G B L J M P D K C T S W R N Z,5f64f12fc0570701c3bfbe7a,22,Kobieta,2022-06-11_09h39.06.999,task,2021.1.4,Win32,59.8372427,6299f149e92ead563fba08ef,62a44457c549e93cd7b5552b,,,,,,,,,,,,,,,,,,,,,,,,,,,,,,,,,,,,,,,,,,,,,,,,,,,1,0,1,0,1,,,,,,,,,,,,,,,,,,,,,,,,,,,,,,,,,,,,,,,,,,,,,,
,,,,,,,,,,,,5f64f12fc0570701c3bfbe7a,22,Kobieta,2022-06-11_09h39.06.999,task,2021.1.4,Win32,59.8372427,6299f149e92ead563fba08ef,62a44457c549e93cd7b5552b,,,,,,,,,,,,,,,,,,,,,,,,,,,,,,,,,,,,,,,,,,,,,,,,,,,,,,,,rn,"[""r"",""n""]",0,"[1.5937000000477042,1.9846000001430752,2.5557000000476933]",1,2,0,2,0,1,,,,,,,,,,,,,,,,,,,,,,,,,,,,,,,,,,,,
,,,,,,,,,,,,5f64f12fc0570701c3bfbe7a,22,Kobieta,2022-06-11_09h39.06.999,task,2021.1.4,Win32,59.8372427,6299f149e92ead563fba08ef,62a44457c549e93cd7b5552b,,,,,,,,,,,,,7,,,,,,,,,,Task,31,(4/2) + 5,7,,,,,,,,,,,,,,,,,,,1,,,,,,,,,,,,,,,,,,,,,space,12.0735,"[""7""]",1,[3.128399999856981],0,0,0,30,1,,,,,,,,,,,,,,,,,,,,,,,,,,
,,,,,,,,,,,X V Q F H G B L J M P D K C T S W R N Z,5f64f12fc0570701c3bfbe7a,22,Kobieta,2022-06-11_09h39.06.999,task,2021.1.4,Win32,59.8372427,6299f149e92ead563fba08ef,62a44457c549e93cd7b5552b,,,,,,,,,,,,,,,,,,,,,,,,,,,,,,,,,,,,,,,,,,,,,,,,,,,,,,,,,,,,,,,,,,,,,,,,,,,,0,0,0,0,1,,,,,,,,,,,,,,,,,,,,,
,,,,,,,,,,,,5f64f12fc0570701c3bfbe7a,22,Kobieta,2022-06-11_09h39.06.999,task,2021.1.4,Win32,59.8372427,6299f149e92ead563fba08ef,62a44457c549e93cd7b5552b,,,,,,,,,,,,,8,,,,,,,,,,Task,23,(2x3) + 2,8,,,,,,,,,,,,,,,,,,,1,,,,,,,,,,,,,,,,,,,,,,,"[""8""]",1,[3.456799999952352],0,0,0,22,1,,,,,,,,,,,,,,,,,,,,,,,,,,
,,,,,,,,,,,X V Q F H G B L J M P D K C T S W R N Z,5f64f12fc0570701c3bfbe7a,22,Kobieta,2022-06-11_09h39.06.999,task,2021.1.4,Win32,59.8372427,6299f149e92ead563fba08ef,62a44457c549e93cd7b5552b,,,,,,,,,,,,,,,,,,,,,,,,,,,,,,,,,,,,,,,,,,,,,,,,,,,,,,,,,,,,,,,,,,,,,,,,,,,,1,0,1,0,1,,,,,,,,,,,,,,,,,,,,,
,,,,,,,,,,,,5f64f12fc0570701c3bfbe7a,22,Kobieta,2022-06-11_09h39.06.999,task,2021.1.4,Win32,59.8372427,6299f149e92ead563fba08ef,62a44457c549e93cd7b5552b,,,,,,,,,,,,,,,,,,,,,,,,,,,,,,,,,,,,,,,,,,,,,,,,,,,,,,,,,,,,,,,,,,,,,,,,,,,,,,,,,zx,"[""z"",""x""]",0,"[1.908899999856942,2.505899999856979,3.1392999999523]",1,ZX,0,0,0,0,1,,,,,,,,,,
,,,,,,,,,,,,5f64f12fc0570701c3bfbe7a,22,Kobieta,2022-06-11_09h39.06.999,task,2021.1.4,Win32,59.8372427,6299f149e92ead563fba08ef,62a44457c549e93cd7b5552b,,,,,,,,,,,,,1,,,,,,,,,,Task,18,(16/4) - 3,1,,,,,,,,,,,,,,,,,,,1,,,,,,,,,,,,,,,,,,,,,,,"[""1""]",1,[4.324899999856939],0,0,0,17,1,,,,,,,,,,,,,,,,,,,,,,,,,,
,,,,,,,,,,,X V Q F H G B L J M P D K C T S W R N Z,5f64f12fc0570701c3bfbe7a,22,Kobieta,2022-06-11_09h39.06.999,task,2021.1.4,Win32,59.8372427,6299f149e92ead563fba08ef,62a44457c549e93cd7b5552b,,,,,,,,,,,,,,,,,,,,,,,,,,,,,,,,,,,,,,,,,,,,,,,,,,,,,,,,,,,,,,,,,,,,,,,,,,,,0,0,0,0,1,,,,,,,,,,,,,,,,,,,,,
,,,,,,,,,,,,5f64f12fc0570701c3bfbe7a,22,Kobieta,2022-06-11_09h39.06.999,task,2021.1.4,Win32,59.8372427,6299f149e92ead563fba08ef,62a44457c549e93cd7b5552b,,,,,,,,,,,,,2,,,,,,,,,,Task,26,(2x9) - 16,2,,,,,,,,,,,,,,,,,,,1,,,,,,,,,,,,,,,,,,,,,,,"[""2""]",1,[3.2805000000000177],0,0,0,25,1,,,,,,,,,,,,,,,,,,,,,,,,,,
,,,,,,,,,,,X V Q F H G B L J M P D K C T S W R N Z,5f64f12fc0570701c3bfbe7a,22,Kobieta,2022-06-11_09h39.06.999,task,2021.1.4,Win32,59.8372427,6299f149e92ead563fba08ef,62a44457c549e93cd7b5552b,,,,,,,,,,,,,,,,,,,,,,,,,,,,,,,,,,,,,,,,,,,,,,,,,,,,,,,,,,,,,,,,,,,,,,,,,,,,1,0,1,0,1,,,,,,,,,,,,,,,,,,,,,
,,,,,,,,,,,,5f64f12fc0570701c3bfbe7a,22,Kobieta,2022-06-11_09h39.06.999,task,2021.1.4,Win32,59.8372427,6299f149e92ead563fba08ef,62a44457c549e93cd7b5552b,,,,,,,,,,,,,4,,,,,,,,,,Task,24,(2x2) + 5,9,,,,,,,,,,,,,,,,,,,0,,,,,,,,,,,,,,,,,,,,,,,"[""4""]",0,[3.6179000000953465],0,0,0,23,1,,,,,,,,,,,,,,,,,,,,,,,,,,
,,,,,,,,,,,,5f64f12fc0570701c3bfbe7a,22,Kobieta,2022-06-11_09h39.06.999,task,2021.1.4,Win32,59.8372427,6299f149e92ead563fba08ef,62a44457c549e93cd7b5552b,,,,,,,,,,,,,,,,,,,,,,,Task,19,(6/2) - 1,2,,,,,,,,,,,,,,,,,,,0,,,,,,,,,,,,,,,,,,,,,,,,0,,0,1,1,18,1,,,,,,,,,,,,,,,,,,,,,,,,,,
,,,,,,,,,,,,5f64f12fc0570701c3bfbe7a,22,Kobieta,2022-06-11_09h39.06.999,task,2021.1.4,Win32,59.8372427,6299f149e92ead563fba08ef,62a44457c549e93cd7b5552b,,,,,,,,,,,,,4,,,,,,,,,,Task,11,(18/3) - 2,4,,,,,,,,,,,,,,,,,,,1,,,,,,,,,,,,,,,,,,,,,,,"[""4""]",1,[3.283200000047657],0,2,2,10,1,,,,,,,,,,,,,,,,,,,,,,,,,,
,,,,,,,,,,,X V Q F H G B L J M P D K C T S W R N Z,5f64f12fc0570701c3bfbe7a,22,Kobieta,2022-06-11_09h39.06.999,task,2021.1.4,Win32,59.8372427,6299f149e92ead563fba08ef,62a44457c549e93cd7b5552b,,,,,,,,,,,,,,,,,,,,,,,,,,,,,,,,,,,,,,,,,,,,,,,,,,,,,,,,,,,,,,,,,,,,,,,,,,,,2,0,2,0,1,,,,,,,,,,,,,,,,,,,,,
,,,,,,,,,,,,5f64f12fc0570701c3bfbe7a,22,Kobieta,2022-06-11_09h39.06.999,task,2021.1.4,Win32,59.8372427,6299f149e92ead563fba08ef,62a44457c549e93cd7b5552b,,,,,,,,,,,,,,,,,,,,,,,,,,,,,,,,,,,,,,,,,,,,,,,,,,,,,,,,,,,,,,,,,,,,,,,,,,,,,,,,,jvx,"[""j"",""v"",""x""]",0,"[2.684200000047724,3.102100000143082,3.6987000000477224,4.8040000000000305]",1,JVX,1,0,1,0,1,,,,,,,,,,
,,,,,,,,,,,,5f64f12fc0570701c3bfbe7a,22,Kobieta,2022-06-11_09h39.06.999,task,2021.1.4,Win32,59.8372427,6299f149e92ead563fba08ef,62a44457c549e93cd7b5552b,,,,,,,,,,,,,9,,,,,,,,,,Task,14,(2x2) + 3,7,,,,,,,,,,,,,,,,,,,0,,,,,,,,,,,,,,,,,,,,,,,"[""9""]",0,[2.2624999999999886],0,0,0,13,1,,,,,,,,,,,,,,,,,,,,,,,,,,
,,,,,,,,,,,,5f64f12fc0570701c3bfbe7a,22,Kobieta,2022-06-11_09h39.06.999,task,2021.1.4,Win32,59.8372427,6299f149e92ead563fba08ef,62a44457c549e93cd7b5552b,,,,,,,,,,,,,8,,,,,,,,,,Task,23,(2x3) + 2,8,,,,,,,,,,,,,,,,,,,1,,,,,,,,,,,,,,,,,,,,,,,"[""8""]",1,[3.3730000000000473],0,1,1,22,1,,,,,,,,,,,,,,,,,,,,,,,,,,
,,,,,,,,,,,X V Q F H G B L J M P D K C T S W R N Z,5f64f12fc0570701c3bfbe7a,22,Kobieta,2022-06-11_09h39.06.999,task,2021.1.4,Win32,59.8372427,6299f149e92ead563fba08ef,62a44457c549e93cd7b5552b,,,,,,,,,,,,,,,,,,,,,,,,,,,,,,,,,,,,,,,,,,,,,,,,,,,,,,,,,,,,,,,,,,,,,,,,,,,,0,0,0,0,1,,,,,,,,,,,,,,,,,,,,,
,,,,,,,,,,,,5f64f12fc0570701c3bfbe7a,22,Kobieta,2022-06-11_09h39.06.999,task,2021.1.4,Win32,59.8372427,6299f149e92ead563fba08ef,62a44457c549e93cd7b5552b,,,,,,,,,,,,,0,,,,,,,,,,Task,8,(1x5) - 5,0,,,,,,,,,,,,,,,,,,,1,,,,,,,,,,,,,,,,,,,,,,,"[""0""]",1,[3.1337999999523163],0,0,0,7,1,,,,,,,,,,,,,,,,,,,,,,,,,,
,,,,,,,,,,,X V Q F H G B L J M P D K C T S W R N Z,5f64f12fc0570701c3bfbe7a,22,Kobieta,2022-06-11_09h39.06.999,task,2021.1.4,Win32,59.8372427,6299f149e92ead563fba08ef,62a44457c549e93cd7b5552b,,,,,,,,,,,,,,,,,,,,,,,,,,,,,,,,,,,,,,,,,,,,,,,,,,,,,,,,,,,,,,,,,,,,,,,,,,,,1,0,1,0,1,,,,,,,,,,,,,,,,,,,,,
,,,,,,,,,,,,5f64f12fc0570701c3bfbe7a,22,Kobieta,2022-06-11_09h39.06.999,task,2021.1.4,Win32,59.8372427,6299f149e92ead563fba08ef,62a44457c549e93cd7b5552b,,,,,,,,,,,,,2,,,,,,,,,,Task,19,(6/2) - 1,2,,,,,,,,,,,,,,,,,,,1,,,,,,,,,,,,,,,,,,,,,,,"[""2""]",1,[2.031900000095334],0,0,0,18,1,,,,,,,,,,,,,,,,,,,,,,,,,,
,,,,,,,,,,,X V Q F H G B L J M P D K C T S W R N Z,5f64f12fc0570701c3bfbe7a,22,Kobieta,2022-06-11_09h39.06.999,task,2021.1.4,Win32,59.8372427,6299f149e92ead563fba08ef,62a44457c549e93cd7b5552b,,,,,,,,,,,,,,,,,,,,,,,,,,,,,,,,,,,,,,,,,,,,,,,,,,,,,,,,,,,,,,,,,,,,,,,,,,,,2,0,2,0,1,,,,,,,,,,,,,,,,,,,,,
,,,,,,,,,,,,5f64f12fc0570701c3bfbe7a,22,Kobieta,2022-06-11_09h39.06.999,task,2021.1.4,Win32,59.8372427,6299f149e92ead563fba08ef,62a44457c549e93cd7b5552b,,,,,,,,,,,,,2,,,,,,,,,,Task,2,(2x2) - 2,2,,,,,,,,,,,,,,,,,,,1,,,,,,,,,,,,,,,,,,,,,,,"[""2""]",1,[1.9187000000476928],0,0,0,1,1,,,,,,,,,,,,,,,,,,,,,,,,,,
,,,,,,,,,,,X V Q F H G B L J M P D K C T S W R N Z,5f64f12fc0570701c3bfbe7a,22,Kobieta,2022-06-11_09h39.06.999,task,2021.1.4,Win32,59.8372427,6299f149e92ead563fba08ef,62a44457c549e93cd7b5552b,,,,,,,,,,,,,,,,,,,,,,,,,,,,,,,,,,,,,,,,,,,,,,,,,,,,,,,,,,,,,,,,,,,,,,,,,,,,3,0,3,0,1,,,,,,,,,,,,,,,,,,,,,
,,,,,,,,,,,,5f64f12fc0570701c3bfbe7a,22,Kobieta,2022-06-11_09h39.06.999,task,2021.1.4,Win32,59.8372427,6299f149e92ead563fba08ef,62a44457c549e93cd7b5552b,,,,,,,,,,,,,,,,,,,,,,,,,,,,,,,,,,,,,,,,,,,,,,,,,,,,,,,,,,,,,,,,,,,,,,,,,,,,,,,,,vbsz,"[""v"",""b"",""s"",""z""]",0,"[1.8442999999523408,3.0504999999999995,3.57029999995234,3.968399999856956,5.003799999952321]",0,WBSZ,2,0,2,0,1,,,,,,,,,,
,,,,,,,,,,,,5f64f12fc0570701c3bfbe7a,22,Kobieta,2022-06-11_09h39.06.999,task,2021.1.4,Win32,59.8372427,6299f149e92ead563fba08ef,62a44457c549e93cd7b5552b,,,,,,,,,,,,,5,,,,,,,,,,Task,12,(4x4) - 11,5,,,,,,,,,,,,,,,,,,,1,,,,,,,,,,,,,,,,,,,,,,,"[""5""]",1,[4.205700000047727],0,0,0,11,1,,,,,,,,,,,,,,,,,,,,,,,,,,
,,,,,,,,,,,X V Q F H G B L J M P D K C T S W R N Z,5f64f12fc0570701c3bfbe7a,22,Kobieta,2022-06-11_09h39.06.999,task,2021.1.4,Win32,59.8372427,6299f149e92ead563fba08ef,62a44457c549e93cd7b5552b,,,,,,,,,,,,,,,,,,,,,,,,,,,,,,,,,,,,,,,,,,,,,,,,,,,,,,,,,,,,,,,,,,,,,,,,,,,,0,0,0,0,1,,,,,,,,,,,,,,,,,,,,,
,,,,,,,,,,,,5f64f12fc0570701c3bfbe7a,22,Kobieta,2022-06-11_09h39.06.999,task,2021.1.4,Win32,59.8372427,6299f149e92ead563fba08ef,62a44457c549e93cd7b5552b,,,,,,,,,,,,,2,,,,,,,,,,Task,2,(2x2) - 2,2,,,,,,,,,,,,,,,,,,,1,,,,,,,,,,,,,,,,,,,,,,,"[""2""]",1,[2.450200000047687],0,0,0,1,1,,,,,,,,,,,,,,,,,,,,,,,,,,
,,,,,,,,,,,X V Q F H G B L J M P D K C T S W R N Z,5f64f12fc0570701c3bfbe7a,22,Kobieta,2022-06-11_09h39.06.999,task,2021.1.4,Win32,59.8372427,6299f149e92ead563fba08ef,62a44457c549e93cd7b5552b,,,,,,,,,,,,,,,,,,,,,,,,,,,,,,,,,,,,,,,,,,,,,,,,,,,,,,,,,,,,,,,,,,,,,,,,,,,,1,0,1,0,1,,,,,,,,,,,,,,,,,,,,,
,,,,,,,,,,,,5f64f12fc0570701c3bfbe7a,22,Kobieta,2022-06-11_09h39.06.999,task,2021.1.4,Win32,59.8372427,6299f149e92ead563fba08ef,62a44457c549e93cd7b5552b,,,,,,,,,,,,,0,,,,,,,,,,Task,17,(2x3) - 6,0,,,,,,,,,,,,,,,,,,,1,,,,,,,,,,,,,,,,,,,,,,,"[""0""]",1,[2.573200000047734],0,0,0,16,1,,,,,,,,,,,,,,,,,,,,,,,,,,
,,,,,,,,,,,X V Q F H G B L J M P D K C T S W R N Z,5f64f12fc0570701c3bfbe7a,22,Kobieta,2022-06-11_09h39.06.999,task,2021.1.4,Win32,59.8372427,6299f149e92ead563fba08ef,62a44457c549e93cd7b5552b,,,,,,,,,,,,,,,,,,,,,,,,,,,,,,,,,,,,,,,,,,,,,,,,,,,,,,,,,,,,,,,,,,,,,,,,,,,,2,0,2,0,1,,,,,,,,,,,,,,,,,,,,,
,,,,,,,,,,,,5f64f12fc0570701c3bfbe7a,22,Kobieta,2022-06-11_09h39.06.999,task,2021.1.4,Win32,59.8372427,6299f149e92ead563fba08ef,62a44457c549e93cd7b5552b,,,,,,,,,,,,,,,,,,,,,,,Task,13,(3x4) - 6,6,,,,,,,,,,,,,,,,,,,0,,,,,,,,,,,,,,,,,,,,,,,,0,,0,0,0,12,1,,,,,,,,,,,,,,,,,,,,,,,,,,
,,,,,,,,,,,,5f64f12fc0570701c3bfbe7a,22,Kobieta,2022-06-11_09h39.06.999,task,2021.1.4,Win32,59.8372427,6299f149e92ead563fba08ef,62a44457c549e93cd7b5552b,,,,,,,,,,,,,,,,,,,,,,,Task,34,(9/3) - 2,1,,,,,,,,,,,,,,,,,,,0,,,,,,,,,,,,,,,,,,,,,,,,0,,0,1,1,33,1,,,,,,,,,,,,,,,,,,,,,,,,,,
,,,,,,,,,,,,5f64f12fc0570701c3bfbe7a,22,Kobieta,2022-06-11_09h39.06.999,task,2021.1.4,Win32,59.8372427,6299f149e92ead563fba08ef,62a44457c549e93cd7b5552b,,,,,,,,,,,,,8,,,,,,,,,,Task,32,(8/2) + 4,8,,,,,,,,,,,,,,,,,,,1,,,,,,,,,,,,,,,,,,,,,,,"[""8""]",1,[3.4479000000953874],0,2,2,31,1,,,,,,,,,,,,,,,,,,,,,,,,,,
,,,,,,,,,,,X V Q F H G B L J M P D K C T S W R N Z,5f64f12fc0570701c3bfbe7a,22,Kobieta,2022-06-11_09h39.06.999,task,2021.1.4,Win32,59.8372427,6299f149e92ead563fba08ef,62a44457c549e93cd7b5552b,,,,,,,,,,,,,,,,,,,,,,,,,,,,,,,,,,,,,,,,,,,,,,,,,,,,,,,,,,,,,,,,,,,,,,,,,,,,3,0,3,0,1,,,,,,,,,,,,,,,,,,,,,
,,,,,,,,,,,,5f64f12fc0570701c3bfbe7a,22,Kobieta,2022-06-11_09h39.06.999,task,2021.1.4,Win32,59.8372427,6299f149e92ead563fba08ef,62a44457c549e93cd7b5552b,,,,,,,,,,,,,,,,,,,,,,,,,,,,,,,,,,,,,,,,,,,,,,,,,,,,,,,,,,,,,,,,,,,,,,,,,,,,,,,,,rvfl,"[""r"",""v"",""f"",""l""]",0,"[1.9097000000476783,2.591299999952298,3.993499999999983,5.334499999999991,7.130499999999984]",0,RFRL,3,0,3,0,1,,,,,,,,,,
,,,,,,,,,,,,5f64f12fc0570701c3bfbe7a,22,Kobieta,2022-06-11_09h39.06.999,task,2021.1.4,Win32,59.8372427,6299f149e92ead563fba08ef,62a44457c549e93cd7b5552b,,,,,,,,,,,,,,,,,,,,,,,,,,,,,,,,,,,,,,,,,,,,,,,,,,,,,,,,,,,,,,,,,,,,,,,,,,,,,,,,,,,,,,,,,,,,,0,0,0,0,0,1,,,
,,,,,,,,,,,,5f64f12fc0570701c3bfbe7a,22,Kobieta,2022-06-11_09h39.06.999,task,2021.1.4,Win32,59.8372427,6299f149e92ead563fba08ef,62a44457c549e93cd7b5552b,,,,,,,,,,,,,,,,,,,,,,,,,,,,,,,,,,,,,,,,,,,,,,,,,,,,,,,,,,,,,,,,,,,,,,,,,,,,,,,,,,,,,,,,,,,,"[""comma""]",0,1,0,1,0,1,[0.05070000004769781],,
,,,,,,,,,,,,5f64f12fc0570701c3bfbe7a,22,Kobieta,2022-06-11_09h39.06.999,task,2021.1.4,Win32,59.8372427,6299f149e92ead563fba08ef,62a44457c549e93cd7b5552b,,,,,,,,,,,,,,,,,,,,,,,,,,,,,,,,,,,,,,,,,,,,,,,,,,,,,,,,,,,,,,,,,,,,,,,,,,,,,,,,,,,,,,,,,,,,"[""period""]",0,2,0,2,0,1,[1.1887000000476746],,
,,,,,,,,,,,,5f64f12fc0570701c3bfbe7a,22,Kobieta,2022-06-11_09h39.06.999,task,2021.1.4,Win32,59.8372427,6299f149e92ead563fba08ef,62a44457c549e93cd7b5552b,,,,,,,,,,,,,,,,,,,,,,,,,,,,,,,,,,,,,,,,,,,,,,,,,,,,,,,,,,,,,,,,,,,,,,,,,,,,,,,,,,,,,,,,,,,,"[""period""]",0,3,0,3,0,1,[1.1508999998569607],,
,,,,,,,,,,,,5f64f12fc0570701c3bfbe7a,22,Kobieta,2022-06-11_09h39.06.999,task,2021.1.4,Win32,59.8372427,6299f149e92ead563fba08ef,62a44457c549e93cd7b5552b,,,,,,,,,,,,,,,,,,,,,,,,,,,,,,,,,,,,,,,,,,,,,,,,,,,,,,,,,,,,,,,,,,,,,,,,,,,,,,,,,,,,,,,,,,,,"[""period""]",0,4,0,4,0,1,[0.6617000000476878],,
,,,,,,,,,,,,5f64f12fc0570701c3bfbe7a,22,Kobieta,2022-06-11_09h39.06.999,task,2021.1.4,Win32,59.8372427,6299f149e92ead563fba08ef,62a44457c549e93cd7b5552b,,,,,,,,,,,,,,,,,,,,,,,,,,,,,,,,,,,,,,,,,,,,,,,,,,,,,,,,,,,,,,,,,,,,,,,,,,,,,,,,,,,,,,,,,,,,"[""comma""]",0,5,0,5,0,1,[0.4799000000953697],,
,,,,,,,,,,,,5f64f12fc0570701c3bfbe7a,22,Kobieta,2022-06-11_09h39.06.999,task,2021.1.4,Win32,59.8372427,6299f149e92ead563fba08ef,62a44457c549e93cd7b5552b,,,,,,,,,,,,,,,,,,,,,,,,,,,,,,,,,,,,,,,,,,,,,,,,,,,,,,,,,,,,,,,,,,,,,,,,,,,,,,,,,,,,,,,,,,,,"[""comma""]",0,6,0,6,0,1,[0.3268999998569484],,
,,,,,,,,,,,,5f64f12fc0570701c3bfbe7a,22,Kobieta,2022-06-11_09h39.06.999,task,2021.1.4,Win32,59.8372427,6299f149e92ead563fba08ef,62a44457c549e93cd7b5552b,,,,,,,,,,,,,,,,,,,,,,,,,,,,,,,,,,,,,,,,,,,,,,,,,,,,,,,,,,,,,,,,,,,,,,,,,,,,,,,,,,,,,,,,,,,,"[""comma"",""period""]",0,7,0,7,0,1,"[0.2753999998569725,1.8682999999523418]",,
,,,,,,,,,,,,5f64f12fc0570701c3bfbe7a,22,Kobieta,2022-06-11_09h39.06.999,task,2021.1.4,Win32,59.8372427,6299f149e92ead563fba08ef,62a44457c549e93cd7b5552b,,,,,,,,,,,,,,,,,,,,,,,,,,,,,,,,,,,,,,,,,,,,,,,,,,,,,,,,,,,,,,,,,,,,,,,,,,,,,,,,,,,,,,,,,,,,,0,8,0,8,0,1,,,
,,,,,,,,,,,,5f64f12fc0570701c3bfbe7a,22,Kobieta,2022-06-11_09h39.06.999,task,2021.1.4,Win32,59.8372427,6299f149e92ead563fba08ef,62a44457c549e93cd7b5552b,,,,,,,,,,,,,,,,,,,,,,,,,,,,,,,,,,,,,,,,,,,,,,,,,,,,,,,,,,,,,,,,,,,,,,,,,,,,,,,,,,,,,,,,,,,,"[""comma""]",0,9,0,9,0,1,[0.2910999999046453],,
,,,,,,,,,,,,5f64f12fc0570701c3bfbe7a,22,Kobieta,2022-06-11_09h39.06.999,task,2021.1.4,Win32,59.8372427,6299f149e92ead563fba08ef,62a44457c549e93cd7b5552b,,,,,,,,,,,,,,,,,,,,,,,,,,,,,,,,,,,,,,,,,,,,,,,,,,,,,,,,,,,,,,,,,,,,,,,,,,,,,,,,,,,,,,,,,,,,"[""comma""]",0,10,0,10,0,1,[0.2884000000953506],,
,,,,,,,,,,,,5f64f12fc0570701c3bfbe7a,22,Kobieta,2022-06-11_09h39.06.999,task,2021.1.4,Win32,59.8372427,6299f149e92ead563fba08ef,62a44457c549e93cd7b5552b,,,,,,,,,,,,,,,,,,,,,,,,,,,,,,,,,,,,,,,,,,,,,,,,,,,,,,,,,,,,,,,,,,,,,,,,,,,,,,,,,,,,,,,,,,,,"[""comma""]",0,11,0,11,0,1,[0.31659999990461074],,
,,,,,,,,,,,,5f64f12fc0570701c3bfbe7a,22,Kobieta,2022-06-11_09h39.06.999,task,2021.1.4,Win32,59.8372427,6299f149e92ead563fba08ef,62a44457c549e93cd7b5552b,,,,,,,,,,,,,,,,,,,,,,,,,,,,,,,,,,,,,,,,,,,,,,,,,,,,,,,,,,,,,,,,,,,,,,,,,,,,,,,,,,,,,,,,,,,,"[""comma""]",0,12,0,12,0,1,[0.316799999952309],,
,,,,,,,,,,,,5f64f12fc0570701c3bfbe7a,22,Kobieta,2022-06-11_09h39.06.999,task,2021.1.4,Win32,59.8372427,6299f149e92ead563fba08ef,62a44457c549e93cd7b5552b,,,,,,,,,,,,,,,,,,,,,,,,,,,,,,,,,,,,,,,,,,,,,,,,,,,,,,,,,,,,,,,,,,,,,,,,,,,,,,,,,,,,,,,,,,,,"[""period""]",0,13,0,13,0,1,[0.30020000004770964],,
,,,,,,,,,,,,5f64f12fc0570701c3bfbe7a,22,Kobieta,2022-06-11_09h39.06.999,task,2021.1.4,Win32,59.8372427,6299f149e92ead563fba08ef,62a44457c549e93cd7b5552b,,,,,,,,,,,,,,,,,,,,,,,,,,,,,,,,,,,,,,,,,,,,,,,,,,,,,,,,,,,,,,,,,,,,,,,,,,,,,,,,,,,,,,,,,,,,"[""period""]",0,14,0,14,0,1,[0.35739999985696613],,
,,,,,,,,,,,,5f64f12fc0570701c3bfbe7a,22,Kobieta,2022-06-11_09h39.06.999,task,2021.1.4,Win32,59.8372427,6299f149e92ead563fba08ef,62a44457c549e93cd7b5552b,,,,,,,,,,,,,,,,,,,,,,,,,,,,,,,,,,,,,,,,,,,,,,,,,,,,,,,,,,,,,,,,,,,,,,,,,,,,,,,,,,,,,,,,,,,,"[""period""]",0,15,0,15,0,1,[0.2741000001430507],,
,,,,,,,,,,,,5f64f12fc0570701c3bfbe7a,22,Kobieta,2022-06-11_09h39.06.999,task,2021.1.4,Win32,59.8372427,6299f149e92ead563fba08ef,62a44457c549e93cd7b5552b,,,,,,,,,,,,,,,,,,,,,,,,,,,,,,,,,,,,,,,,,,,,,,,,,,,,,,,,,,,,,,,,,,,,,,,,,,,,,,,,,,,,,,,,,,,,"[""period""]",0,16,0,16,0,1,[0.3160000000000309],,
,,,,,,,,,,,,5f64f12fc0570701c3bfbe7a,22,Kobieta,2022-06-11_09h39.06.999,task,2021.1.4,Win32,59.8372427,6299f149e92ead563fba08ef,62a44457c549e93cd7b5552b,,,,,,,,,,,,,,,,,,,,,,,,,,,,,,,,,,,,,,,,,,,,,,,,,,,,,,,,,,,,,,,,,,,,,,,,,,,,,,,,,,,,,,,,,,,,"[""comma""]",0,17,0,17,0,1,[0.30239999985701616],,
,,,,,,,,,,,,5f64f12fc0570701c3bfbe7a,22,Kobieta,2022-06-11_09h39.06.999,task,2021.1.4,Win32,59.8372427,6299f149e92ead563fba08ef,62a44457c549e93cd7b5552b,,,,,,,,,,,,,,,,,,,,,,,,,,,,,,,,,,,,,,,,,,,,,,,,,,,,,,,,,,,,,,,,,,,,,,,,,,,,,,,,,,,,,,,,,,,,"[""comma""]",0,18,0,18,0,1,[0.36320000004764097],,
,,,,,,,,,,,,5f64f12fc0570701c3bfbe7a,22,Kobieta,2022-06-11_09h39.06.999,task,2021.1.4,Win32,59.8372427,6299f149e92ead563fba08ef,62a44457c549e93cd7b5552b,,,,,,,,,,,,,,,,,,,,,,,,,,,,,,,,,,,,,,,,,,,,,,,,,,,,,,,,,,,,,,,,,,,,,,,,,,,,,,,,,,,,,,,,,,,,"[""comma""]",0,19,0,19,0,1,[0.3082999999523963],,
,,,,,,,,,,,,5f64f12fc0570701c3bfbe7a,22,Kobieta,2022-06-11_09h39.06.999,task,2021.1.4,Win32,59.8372427,6299f149e92ead563fba08ef,62a44457c549e93cd7b5552b,,,,,,,,,,,,,,,,,,,,,,,,,,,,,,,,,,,,,,,,,,,,,,,,,,,,,,,,,,,,,,,,,,,,,,,,,,,,,,,,,,,,,,,,,,,,"[""comma""]",0,20,0,20,0,1,[0.3399000000953265],,
,,,,,,,,,,,,5f64f12fc0570701c3bfbe7a,22,Kobieta,2022-06-11_09h39.06.999,task,2021.1.4,Win32,59.8372427,6299f149e92ead563fba08ef,62a44457c549e93cd7b5552b,,,,,,,,,,,,,,,,,,,,,,,,,,,,,,,,,,,,,,,,,,,,,,,,,,,,,,,,,,,,,,,,,,,,,,,,,,,,,,,,,,,,,,,,,,,,"[""comma""]",0,21,0,21,0,1,[0.5584999999999809],,
,,,,,,,,,,,,5f64f12fc0570701c3bfbe7a,22,Kobieta,2022-06-11_09h39.06.999,task,2021.1.4,Win32,59.8372427,6299f149e92ead563fba08ef,62a44457c549e93cd7b5552b,,,,,,,,,,,,,,,,,,,,,,,,,,,,,,,,,,,,,,,,,,,,,,,,,,,,,,,,,,,,,,,,,,,,,,,,,,,,,,,,,,,,,,,,,,,,"[""period""]",0,22,0,22,0,1,[0.2340000000000373],,
,,,,,,,,,,,,5f64f12fc0570701c3bfbe7a,22,Kobieta,2022-06-11_09h39.06.999,task,2021.1.4,Win32,59.8372427,6299f149e92ead563fba08ef,62a44457c549e93cd7b5552b,,,,,,,,,,,,,,,,,,,,,,,,,,,,,,,,,,,,,,,,,,,,,,,,,,,,,,,,,,,,,,,,,,,,,,,,,,,,,,,,,,,,,,,,,,,,"[""period"",""comma""]",0,23,0,23,0,1,"[0.29979999995236994,1.6695000000000846]",,
,,,,,,,,,,,,5f64f12fc0570701c3bfbe7a,22,Kobieta,2022-06-11_09h39.06.999,task,2021.1.4,Win32,59.8372427,6299f149e92ead563fba08ef,62a44457c549e93cd7b5552b,,,,,,,,,,,,,,,,,,,,,,,,,,,,,,,,,,,,,,,,,,,,,,,,,,,,,,,,,,,,,,,,,,,,,,,,,,,,,,,,,,,,,,,,,,,,"[""period""]",0,24,0,24,0,1,[0.7160000000000082],,
,,,,,,,,,,,,5f64f12fc0570701c3bfbe7a,22,Kobieta,2022-06-11_09h39.06.999,task,2021.1.4,Win32,59.8372427,6299f149e92ead563fba08ef,62a44457c549e93cd7b5552b,,,,,,,,,,,,,,,,,,,,,,,,,,,,,,,,,,,,,,,,,,,,,,,,,,,,,,,,,,,,,,,,,,,,,,,,,,,,,,,,,,,,,,,,,,,,"[""period""]",0,25,0,25,0,1,[0.3602000000477119],,
,,,,,,,,,,,,5f64f12fc0570701c3bfbe7a,22,Kobieta,2022-06-11_09h39.06.999,task,2021.1.4,Win32,59.8372427,6299f149e92ead563fba08ef,62a44457c549e93cd7b5552b,,,,,,,,,,,,,,,,,,,,,,,,,,,,,,,,,,,,,,,,,,,,,,,,,,,,,,,,,,,,,,,,,,,,,,,,,,,,,,,,,,,,,,,,,,,,"[""comma""]",0,26,0,26,0,1,[0.4246999998092633],,
,,,,,,,,,,,,5f64f12fc0570701c3bfbe7a,22,Kobieta,2022-06-11_09h39.06.999,task,2021.1.4,Win32,59.8372427,6299f149e92ead563fba08ef,62a44457c549e93cd7b5552b,,,,,,,,,,,,,,,,,,,,,,,,,,,,,,,,,,,,,,,,,,,,,,,,,,,,,,,,,,,,,,,,,,,,,,,,,,,,,,,,,,,,,,,,,,,,"[""comma""]",0,27,0,27,0,1,[0.16310000014300385],,
,,,,,,,,,,,,5f64f12fc0570701c3bfbe7a,22,Kobieta,2022-06-11_09h39.06.999,task,2021.1.4,Win32,59.8372427,6299f149e92ead563fba08ef,62a44457c549e93cd7b5552b,,,,,,,,,,,,,,,,,,,,,,,,,,,,,,,,,,,,,,,,,,,,,,,,,,,,,,,,,,,,,,,,,,,,,,,,,,,,,,,,,,,,,,,,,,,,"[""comma""]",0,28,0,28,0,1,[0.28559999990466167],,
,,,,,,,,,,,,5f64f12fc0570701c3bfbe7a,22,Kobieta,2022-06-11_09h39.06.999,task,2021.1.4,Win32,59.8372427,6299f149e92ead563fba08ef,62a44457c549e93cd7b5552b,,,,,,,,,,,,,,,,,,,,,,,,,,,,,,,,,,,,,,,,,,,,,,,,,,,,,,,,,,,,,,,,,,,,,,,,,,,,,,,,,,,,,,,,,,,,"[""period""]",0,29,0,29,0,1,[0.1688999998568761],,
,,,,,,,,,,,,5f64f12fc0570701c3bfbe7a,22,Kobieta,2022-06-11_09h39.06.999,task,2021.1.4,Win32,59.8372427,6299f149e92ead563fba08ef,62a44457c549e93cd7b5552b,,,,,,,,,,,,,,,,,,,,,,,,,,,,,,,,,,,,,,,,,,,,,,,,,,,,,,,,,,,,,,,,,,,,,,,,,,,,,,,,,,,,,,,,,,,,"[""period""]",0,30,0,30,0,1,[0.3072999999523063],,
,,,,,,,,,,,,5f64f12fc0570701c3bfbe7a,22,Kobieta,2022-06-11_09h39.06.999,task,2021.1.4,Win32,59.8372427,6299f149e92ead563fba08ef,62a44457c549e93cd7b5552b,,,,,,,,,,,,,,,,,,,,,,,,,,,,,,,,,,,,,,,,,,,,,,,,,,,,,,,,,,,,,,,,,,,,,,,,,,,,,,,,,,,,,,,,,,,,"[""comma"",""comma""]",0,31,0,31,0,1,"[0.12149999999996908,1.6332000000477365]",,
,,,,,,,,,,,,5f64f12fc0570701c3bfbe7a,22,Kobieta,2022-06-11_09h39.06.999,task,2021.1.4,Win32,59.8372427,6299f149e92ead563fba08ef,62a44457c549e93cd7b5552b,,,,,,,,,,,,,,,,,,,,,,,,,,,,,,,,,,,,,,,,,,,,,,,,,,,,,,,,,,,,,,,,,,,,,,,,,,,,,,,,,,,,,,,,,,,,"[""comma""]",0,32,0,32,0,1,[1.5425000000000182],,
,,,,,,,,,,,,5f64f12fc0570701c3bfbe7a,22,Kobieta,2022-06-11_09h39.06.999,task,2021.1.4,Win32,59.8372427,6299f149e92ead563fba08ef,62a44457c549e93cd7b5552b,,,,,,,,,,,,,,,,,,,,,,,,,,,,,,,,,,,,,,,,,,,,,,,,,,,,,,,,,,,,,,,,,,,,,,,,,,,,,,,,,,,,,,,,,,,,"[""period""]",0,33,0,33,0,1,[1.2029999999999745],,
,,,,,,,,,,,,5f64f12fc0570701c3bfbe7a,22,Kobieta,2022-06-11_09h39.06.999,task,2021.1.4,Win32,59.8372427,6299f149e92ead563fba08ef,62a44457c549e93cd7b5552b,,,,,,,,,,,,,,,,,,,,,,,,,,,,,,,,,,,,,,,,,,,,,,,,,,,,,,,,,,,,,,,,,,,,,,,,,,,,,,,,,,,,,,,,,,,,"[""comma""]",0,34,0,34,0,1,[0.46820000004765916],,
,,,,,,,,,,,,5f64f12fc0570701c3bfbe7a,22,Kobieta,2022-06-11_09h39.06.999,task,2021.1.4,Win32,59.8372427,6299f149e92ead563fba08ef,62a44457c549e93cd7b5552b,,,,,,,,,,,,,,,,,,,,,,,,,,,,,,,,,,,,,,,,,,,,,,,,,,,,,,,,,,,,,,,,,,,,,,,,,,,,,,,,,,,,,,,,,,,,"[""period"",""period""]",0,35,0,35,0,1,"[0.20379999995225262,1.7605999999045707]",,
,,,,,,,,,,,,5f64f12fc0570701c3bfbe7a,22,Kobieta,2022-06-11_09h39.06.999,task,2021.1.4,Win32,59.8372427,6299f149e92ead563fba08ef,62a44457c549e93cd7b5552b,,,,,,,,,,,,,,,,,,,,,,,,,,,,,,,,,,,,,,,,,,,,,,,,,,,,,,,,,,,,,,,,,,,,,,,,,,,,,,,,,,,,,,,,,,,,"[""comma""]",0,36,0,36,0,1,[1.2685000000000173],,
,,,,,,,,,,,,5f64f12fc0570701c3bfbe7a,22,Kobieta,2022-06-11_09h39.06.999,task,2021.1.4,Win32,59.8372427,6299f149e92ead563fba08ef,62a44457c549e93cd7b5552b,,,,,,,,,,,,,,,,,,,,,,,,,,,,,,,,,,,,,,,,,,,,,,,,,,,,,,,,,,,,,,,,,,,,,,,,,,,,,,,,,,,,,,,,,,,,"[""comma""]",0,37,0,37,0,1,[1.1009000000954074],,
,,,,,,,,,,,,5f64f12fc0570701c3bfbe7a,22,Kobieta,2022-06-11_09h39.06.999,task,2021.1.4,Win32,59.8372427,6299f149e92ead563fba08ef,62a44457c549e93cd7b5552b,,,,,,,,,,,,,,,,,,,,,,,,,,,,,,,,,,,,,,,,,,,,,,,,,,,,,,,,,,,,,,,,,,,,,,,,,,,,,,,,,,,,,,,,,,,,"[""period"",""comma""]",0,38,0,38,0,1,"[0.07240000009539926,1.76400000000001]",,
,,,,,,,,,,,,5f64f12fc0570701c3bfbe7a,22,Kobieta,2022-06-11_09h39.06.999,task,2021.1.4,Win32,59.8372427,6299f149e92ead563fba08ef,62a44457c549e93cd7b5552b,,,,,,,,,,,,,,,,,,,,,,,,,,,,,,,,,,,,,,,,,,,,,,,,,,,,,,,,,,,,,,,,,,,,,,,,,,,,,,,,,,,,,,,,,,,,"[""period""]",0,39,0,39,0,1,[1.0492000000476764],,
,,,,,,,,,,,,5f64f12fc0570701c3bfbe7a,22,Kobieta,2022-06-11_09h39.06.999,task,2021.1.4,Win32,59.8372427,6299f149e92ead563fba08ef,62a44457c549e93cd7b5552b,,,,,,,,,,,,,,,,,,,,,,,,,,,,,,,,,,,,,,,,,,,,,,,,,,,,,,,,,,,,,,,,,,,,,,,,,,,,,,,,,,,,,,,,,,,,"[""comma"",""comma""]",0,40,0,40,0,1,"[0.03829999995230082,1.04170000004774]",,
,,,,,,,,,,,,5f64f12fc0570701c3bfbe7a,22,Kobieta,2022-06-11_09h39.06.999,task,2021.1.4,Win32,59.8372427,6299f149e92ead563fba08ef,62a44457c549e93cd7b5552b,,,,,,,,,,,,,,,,,,,,,,,,,,,,,,,,,,,,,,,,,,,,,,,,,,,,,,,,,,,,,,,,,,,,,,,,,,,,,,,,,,,,,,,,,,,,"[""period"",""period""]",0,41,0,41,0,1,"[0.7083999998569652,1.8588999998569307]",,
,,,,,,,,,,,,5f64f12fc0570701c3bfbe7a,22,Kobieta,2022-06-11_09h39.06.999,task,2021.1.4,Win32,59.8372427,6299f149e92ead563fba08ef,62a44457c549e93cd7b5552b,,,,,,,,,,,,,,,,,,,,,,,,,,,,,,,,,,,,,,,,,,,,,,,,,,,,,,,,,,,,,,,,,,,,,,,,,,,,,,,,,,,,,,,,,,,,"[""period""]",0,42,0,42,0,1,[1.071099999904618],,
,,,,,,,,,,,,5f64f12fc0570701c3bfbe7a,22,Kobieta,2022-06-11_09h39.06.999,task,2021.1.4,Win32,59.8372427,6299f149e92ead563fba08ef,62a44457c549e93cd7b5552b,,,,,,,,,,,,,,,,,,,,,,,,,,,,,,,,,,,,,,,,,,,,,,,,,,,,,,,,,,,,,,,,,,,,,,,,,,,,,,,,,,,,,,,,,,,,"[""comma"",""comma""]",0,43,0,43,0,1,"[0.3579000000953556,1.601600000143094]",,
,,,,,,,,,,,,5f64f12fc0570701c3bfbe7a,22,Kobieta,2022-06-11_09h39.06.999,task,2021.1.4,Win32,59.8372427,6299f149e92ead563fba08ef,62a44457c549e93cd7b5552b,,,,,,,,,,,,,,,,,,,,,,,,,,,,,,,,,,,,,,,,,,,,,,,,,,,,,,,,,,,,,,,,,,,,,,,,,,,,,,,,,,,,,,,,,,,,"[""period""]",0,44,0,44,0,1,[0.22149999999999181],,
,,,,,,,,,,,,5f64f12fc0570701c3bfbe7a,22,Kobieta,2022-06-11_09h39.06.999,task,2021.1.4,Win32,59.8372427,6299f149e92ead563fba08ef,62a44457c549e93cd7b5552b,,,,,,,,,,,,,,,,,,,,,,,,,,,,,,,,,,,,,,,,,,,,,,,,,,,,,,,,,,,,,,,,,,,,,,,,,,,,,,,,,,,,,,,,,,,,"[""comma"",""period""]",0,45,0,45,0,1,"[0.37509999990459164,1.9100999999046735]",,
,,,,,,,,,,,,5f64f12fc0570701c3bfbe7a,22,Kobieta,2022-06-11_09h39.06.999,task,2021.1.4,Win32,59.8372427,6299f149e92ead563fba08ef,62a44457c549e93cd7b5552b,,,,,,,,,,,,,,,,,,,,,,,,,,,,,,,,,,,,,,,,,,,,,,,,,,,,,,,,,,,,,,,,,,,,,,,,,,,,,,,,,,,,,,,,,,,,"[""comma""]",0,46,0,46,0,1,[1.633899999856908],,
,,,,,,,,,,,,5f64f12fc0570701c3bfbe7a,22,Kobieta,2022-06-11_09h39.06.999,task,2021.1.4,Win32,59.8372427,6299f149e92ead563fba08ef,62a44457c549e93cd7b5552b,,,,,,,,,,,,,,,,,,,,,,,,,,,,,,,,,,,,,,,,,,,,,,,,,,,,,,,,,,,,,,,,,,,,,,,,,,,,,,,,,,,,,,,,,,,,"[""comma""]",0,47,0,47,0,1,[1.1732000000477],,
,,,,,,,,,,,,5f64f12fc0570701c3bfbe7a,22,Kobieta,2022-06-11_09h39.06.999,task,2021.1.4,Win32,59.8372427,6299f149e92ead563fba08ef,62a44457c549e93cd7b5552b,,,,,,,,,,,,,,,,,,,,,,,,,,,,,,,,,,,,,,,,,,,,,,,,,,,,,,,,,,,,,,,,,,,,,,,,,,,,,,,,,,,,,,,,,,,,"[""comma""]",0,48,0,48,0,1,[1.2595000000000027],,
,,,,,,,,,,,,5f64f12fc0570701c3bfbe7a,22,Kobieta,2022-06-11_09h39.06.999,task,2021.1.4,Win32,59.8372427,6299f149e92ead563fba08ef,62a44457c549e93cd7b5552b,,,,,,,,,,,,,,,,,,,,,,,,,,,,,,,,,,,,,,,,,,,,,,,,,,,,,,,,,,,,,,,,,,,,,,,,,,,,,,,,,,,,,,,,,,,,"[""comma"",""comma""]",0,49,0,49,0,1,"[0.39090000009537107,1.9505000000000337]",,
,,,,,,,,,,,,5f64f12fc0570701c3bfbe7a,22,Kobieta,2022-06-11_09h39.06.999,task,2021.1.4,Win32,59.8372427,6299f149e92ead563fba08ef,62a44457c549e93cd7b5552b,,,,,,,,,,,,,,,,,,,,,,,,,,,,,,,,,,,,,,,,,,,,,,,,,,,,,,,,,,,,,,,,,,,,,,,,,,,,,,,,,,,,,,,,,,,,,0,50,0,50,0,1,,,
,,,,,,,,,,,,5f64f12fc0570701c3bfbe7a,22,Kobieta,2022-06-11_09h39.06.999,task,2021.1.4,Win32,59.8372427,6299f149e92ead563fba08ef,62a44457c549e93cd7b5552b,,,,,,,,,,,,,,,,,,,,,,,,,,,,,,,,,,,,,,,,,,,,,,,,,,,,,,,,,,,,,,,,,,,,,,,,,,,,,,,,,,,,,,,,,,,,"[""period"",""comma""]",0,51,0,51,0,1,"[0.009899999856997965,0.9555999999046207]",,
,,,,,,,,,,,,5f64f12fc0570701c3bfbe7a,22,Kobieta,2022-06-11_09h39.06.999,task,2021.1.4,Win32,59.8372427,6299f149e92ead563fba08ef,62a44457c549e93cd7b5552b,,,,,,,,,,,,,,,,,,,,,,,,,,,,,,,,,,,,,,,,,,,,,,,,,,,,,,,,,,,,,,,,,,,,,,,,,,,,,,,,,,,,,,,,,,,,"[""comma"",""period""]",0,52,0,52,0,1,"[0.34920000004774465,1.2032000000476728]",,
,,,,,,,,,,,,5f64f12fc0570701c3bfbe7a,22,Kobieta,2022-06-11_09h39.06.999,task,2021.1.4,Win32,59.8372427,6299f149e92ead563fba08ef,62a44457c549e93cd7b5552b,,,,,,,,,,,,,,,,,,,,,,,,,,,,,,,,,,,,,,,,,,,,,,,,,,,,,,,,,,,,,,,,,,,,,,,,,,,,,,,,,,,,,,,,,,,,"[""comma"",""period""]",0,53,0,53,0,1,"[0.27949999999998454,1.20770000004768]",,
,,,,,,,,,,,,5f64f12fc0570701c3bfbe7a,22,Kobieta,2022-06-11_09h39.06.999,task,2021.1.4,Win32,59.8372427,6299f149e92ead563fba08ef,62a44457c549e93cd7b5552b,,,,,,,,,,,,,,,,,,,,,,,,,,,,,,,,,,,,,,,,,,,,,,,,,,,,,,,,,,,,,,,,,,,,,,,,,,,,,,,,,,,,,,,,,,,,"[""period"",""comma""]",0,54,0,54,0,1,"[0.26900000000000546,1.752400000095463]",,
,,,,,,,,,,,,5f64f12fc0570701c3bfbe7a,22,Kobieta,2022-06-11_09h39.06.999,task,2021.1.4,Win32,59.8372427,6299f149e92ead563fba08ef,62a44457c549e93cd7b5552b,,,,,,,,,,,,,,,,,,,,,,,,,,,,,,,,,,,,,,,,,,,,,,,,,,,,,,,,,,,,,,,,,,,,,,,,,,,,,,,,,,,,,,,,,,,,"[""comma""]",0,55,0,55,0,1,[1.9652999999523217],,
,,,,,,,,,,,,5f64f12fc0570701c3bfbe7a,22,Kobieta,2022-06-11_09h39.06.999,task,2021.1.4,Win32,59.8372427,6299f149e92ead563fba08ef,62a44457c549e93cd7b5552b,,,,,,,,,,,,,,,,,,,,,,,,,,,,,,,,,,,,,,,,,,,,,,,,,,,,,,,,,,,,,,,,,,,,,,,,,,,,,,,,,,,,,,,,,,,,"[""comma""]",0,56,0,56,0,1,[1.8333000001906612],,
,,,,,,,,,,,,5f64f12fc0570701c3bfbe7a,22,Kobieta,2022-06-11_09h39.06.999,task,2021.1.4,Win32,59.8372427,6299f149e92ead563fba08ef,62a44457c549e93cd7b5552b,,,,,,,,,,,,,,,,,,,,,,,,,,,,,,,,,,,,,,,,,,,,,,,,,,,,,,,,,,,,,,,,,,,,,,,,,,,,,,,,,,,,,,,,,,,,"[""comma""]",0,57,0,57,0,1,[1.9517000000477083],,
,,,,,,,,,,,,5f64f12fc0570701c3bfbe7a,22,Kobieta,2022-06-11_09h39.06.999,task,2021.1.4,Win32,59.8372427,6299f149e92ead563fba08ef,62a44457c549e93cd7b5552b,,,,,,,,,,,,,,,,,,,,,,,,,,,,,,,,,,,,,,,,,,,,,,,,,,,,,,,,,,,,,,,,,,,,,,,,,,,,,,,,,,,,,,,,,,,,,0,58,0,58,0,1,,,
,,,,,,,,,,,,5f64f12fc0570701c3bfbe7a,22,Kobieta,2022-06-11_09h39.06.999,task,2021.1.4,Win32,59.8372427,6299f149e92ead563fba08ef,62a44457c549e93cd7b5552b,,,,,,,,,,,,,,,,,,,,,,,,,,,,,,,,,,,,,,,,,,,,,,,,,,,,,,,,,,,,,,,,,,,,,,,,,,,,,,,,,,,,,,,,,,,,"[""comma"",""period""]",0,59,0,59,0,1,"[0.027399999856925206,1.1164999999999736]",,
,,,,,,,,,,,,5f64f12fc0570701c3bfbe7a,22,Kobieta,2022-06-11_09h39.06.999,task,2021.1.4,Win32,59.8372427,6299f149e92ead563fba08ef,62a44457c549e93cd7b5552b,,,,,,,,,,,,,,,,,,,,,,,,,,,,,,,,,,,,,,,,,,,,,,,,,,,,,,,,,,,,,,,,,,,,,,,,,,,,,,,,,,,,,,,,,,,,"[""period"",""period""]",0,60,0,60,0,1,"[0.3294000000954611,1.810299999952349]",,
,,,,,,,,,,,,5f64f12fc0570701c3bfbe7a,22,Kobieta,2022-06-11_09h39.06.999,task,2021.1.4,Win32,59.8372427,6299f149e92ead563fba08ef,62a44457c549e93cd7b5552b,,,,,,,,,,,,,,,,,,,,,,,,,,,,,,,,,,,,,,,,,,,,,,,,,,,,,,,,,,,,,,,,,,,,,,,,,,,,,,,,,,,,,,,,,,,,"[""period""]",0,61,0,61,0,1,[1.6340999999046062],,
,,,,,,,,,,,,5f64f12fc0570701c3bfbe7a,22,Kobieta,2022-06-11_09h39.06.999,task,2021.1.4,Win32,59.8372427,6299f149e92ead563fba08ef,62a44457c549e93cd7b5552b,,,,,,,,,,,,,,,,,,,,,,,,,,,,,,,,,,,,,,,,,,,,,,,,,,,,,,,,,,,,,,,,,,,,,,,,,,,,,,,,,,,,,,,,,,,,,0,62,0,62,0,1,,,
,,,,,,,,,,,,5f64f12fc0570701c3bfbe7a,22,Kobieta,2022-06-11_09h39.06.999,task,2021.1.4,Win32,59.8372427,6299f149e92ead563fba08ef,62a44457c549e93cd7b5552b,,,,,,,,,,,,,,,,,,,,,,,,,,,,,,,,,,,,,,,,,,,,,,,,,,,,,,,,,,,,,,,,,,,,,,,,,,,,,,,,,,,,,,,,,,,,"[""period"",""period""]",0,63,0,63,0,1,"[0.2847999999522699,1.9332999999522826]",,
,,,,,,,,,,,,5f64f12fc0570701c3bfbe7a,22,Kobieta,2022-06-11_09h39.06.999,task,2021.1.4,Win32,59.8372427,6299f149e92ead563fba08ef,62a44457c549e93cd7b5552b,,,,,,,,,,,,,,,,,,,,,,,,,,,,,,,,,,,,,,,,,,,,,,,,,,,,,,,,,,,,,,,,,,,,,,,,,,,,,,,,,,,,,,,,,,,,,0,64,0,64,0,1,,,
,,,,,,,,,,,,5f64f12fc0570701c3bfbe7a,22,Kobieta,2022-06-11_09h39.06.999,task,2021.1.4,Win32,59.8372427,6299f149e92ead563fba08ef,62a44457c549e93cd7b5552b,,,,,,,,,,,,,,,,,,,,,,,,,,,,,,,,,,,,,,,,,,,,,,,,,,,,,,,,,,,,,,,,,,,,,,,,,,,,,,,,,,,,,,,,,,,,"[""period""]",0,65,0,65,0,1,[0.6848000001907621],,
,,,,,,,,,,,,5f64f12fc0570701c3bfbe7a,22,Kobieta,2022-06-11_09h39.06.999,task,2021.1.4,Win32,59.8372427,6299f149e92ead563fba08ef,62a44457c549e93cd7b5552b,,,,,,,,,,,,,,,,,,,,,,,,,,,,,,,,,,,,,,,,,,,,,,,,,,,,,,,,,,,,,,,,,,,,,,,,,,,,,,,,,,,,,,,,,,,,"[""period""]",0,66,0,66,0,1,[0.26699999999993906],,
,,,,,,,,,,,,5f64f12fc0570701c3bfbe7a,22,Kobieta,2022-06-11_09h39.06.999,task,2021.1.4,Win32,59.8372427,6299f149e92ead563fba08ef,62a44457c549e93cd7b5552b,,,,,,,,,,,,,,,,,,,,,,,,,,,,,,,,,,,,,,,,,,,,,,,,,,,,,,,,,,,,,,,,,,,,,,,,,,,,,,,,,,,,,,,,,,,,,0,67,0,67,0,1,,,
,,,,,,,,,,,,5f64f12fc0570701c3bfbe7a,22,Kobieta,2022-06-11_09h39.06.999,task,2021.1.4,Win32,59.8372427,6299f149e92ead563fba08ef,62a44457c549e93cd7b5552b,,,,,,,,,,,,,,,,,,,,,,,,,,,,,,,,,,,,,,,,,,,,,,,,,,,,,,,,,,,,,,,,,,,,,,,,,,,,,,,,,,,,,,,,,,,,"[""period"",""comma""]",0,68,0,68,0,1,"[1.011900000095352,1.656299999952239]",,
,,,,,,,,,,,,5f64f12fc0570701c3bfbe7a,22,Kobieta,2022-06-11_09h39.06.999,task,2021.1.4,Win32,59.8372427,6299f149e92ead563fba08ef,62a44457c549e93cd7b5552b,,,,,,,,,,,,,,,,,,,,,,,,,,,,,,,,,,,,,,,,,,,,,,,,,,,,,,,,,,,,,,,,,,,,,,,,,,,,,,,,,,,,,,,,,,,,,0,69,0,69,0,1,,,
,,,,,,,,,,,,5f64f12fc0570701c3bfbe7a,22,Kobieta,2022-06-11_09h39.06.999,task,2021.1.4,Win32,59.8372427,6299f149e92ead563fba08ef,62a44457c549e93cd7b5552b,,,,,,,,,,,,,,,,,,,,,,,,,,,,,,,,,,,,,,,,,,,,,,,,,,,,,,,,,,,,,,,,,,,,,,,,,,,,,,,,,,,,,,,,,,,,"[""period""]",0,70,0,70,0,1,[0.25020000004769827],,
,,,,,,,,,,,,5f64f12fc0570701c3bfbe7a,22,Kobieta,2022-06-11_09h39.06.999,task,2021.1.4,Win32,59.8372427,6299f149e92ead563fba08ef,62a44457c549e93cd7b5552b,,,,,,,,,,,,,,,,,,,,,,,,,,,,,,,,,,,,,,,,,,,,,,,,,,,,,,,,,,,,,,,,,,,,,,,,,,,,,,,,,,,,,,,,,,,,"[""period""]",0,71,0,71,0,1,[0.2768999998570507],,
,,,,,,,,,,,,5f64f12fc0570701c3bfbe7a,22,Kobieta,2022-06-11_09h39.06.999,task,2021.1.4,Win32,59.8372427,6299f149e92ead563fba08ef,62a44457c549e93cd7b5552b,,,,,,,,,,,,,,,,,,,,,,,,,,,,,,,,,,,,,,,,,,,,,,,,,,,,,,,,,,,,,,,,,,,,,,,,,,,,,,,,,,,,,,,,,,,,"[""period""]",0,72,0,72,0,1,[0.31749999999999545],,
,,,,,,,,,,,,5f64f12fc0570701c3bfbe7a,22,Kobieta,2022-06-11_09h39.06.999,task,2021.1.4,Win32,59.8372427,6299f149e92ead563fba08ef,62a44457c549e93cd7b5552b,,,,,,,,,,,,,,,,,,,,,,,,,,,,,,,,,,,,,,,,,,,,,,,,,,,,,,,,,,,,,,,,,,,,,,,,,,,,,,,,,,,,,,,,,,,,"[""comma""]",0,73,0,73,0,1,[0.30100000000004457],,
,,,,,,,,,,,,5f64f12fc0570701c3bfbe7a,22,Kobieta,2022-06-11_09h39.06.999,task,2021.1.4,Win32,59.8372427,6299f149e92ead563fba08ef,62a44457c549e93cd7b5552b,,,,,,,,,,,,,,,,,,,,,,,,,,,,,,,,,,,,,,,,,,,,,,,,,,,,,,,,,,,,,,,,,,,,,,,,,,,,,,,,,,,,,,,,,,,,"[""comma""]",0,74,0,74,0,1,[0.2668000001907558],,
,,,,,,,,,,,,5f64f12fc0570701c3bfbe7a,22,Kobieta,2022-06-11_09h39.06.999,task,2021.1.4,Win32,59.8372427,6299f149e92ead563fba08ef,62a44457c549e93cd7b5552b,,,,,,,,,,,,,,,,,,,,,,,,,,,,,,,,,,,,,,,,,,,,,,,,,,,,,,,,,,,,,,,,,,,,,,,,,,,,,,,,,,,,,,,,,,,,"[""comma""]",0,75,0,75,0,1,[0.255400000095392],,
,,,,,,,,,,,,5f64f12fc0570701c3bfbe7a,22,Kobieta,2022-06-11_09h39.06.999,task,2021.1.4,Win32,59.8372427,6299f149e92ead563fba08ef,62a44457c549e93cd7b5552b,,,,,,,,,,,,,,,,,,,,,,,,,,,,,,,,,,,,,,,,,,,,,,,,,,,,,,,,,,,,,,,,,,,,,,,,,,,,,,,,,,,,,,,,,,,,"[""comma""]",0,76,0,76,0,1,[0.06699999999989359],,
,,,,,,,,,,,,5f64f12fc0570701c3bfbe7a,22,Kobieta,2022-06-11_09h39.06.999,task,2021.1.4,Win32,59.8372427,6299f149e92ead563fba08ef,62a44457c549e93cd7b5552b,,,,,,,,,,,,,,,,,,,,,,,,,,,,,,,,,,,,,,,,,,,,,,,,,,,,,,,,,,,,,,,,,,,,,,,,,,,,,,,,,,,,,,,,,,,,"[""period""]",0,77,0,77,0,1,[0.38289999985693157],,
,,,,,,,,,,,,5f64f12fc0570701c3bfbe7a,22,Kobieta,2022-06-11_09h39.06.999,task,2021.1.4,Win32,59.8372427,6299f149e92ead563fba08ef,62a44457c549e93cd7b5552b,,,,,,,,,,,,,,,,,,,,,,,,,,,,,,,,,,,,,,,,,,,,,,,,,,,,,,,,,,,,,,,,,,,,,,,,,,,,,,,,,,,,,,,,,,,,"[""period""]",0,78,0,78,0,1,[0.23620000004757458],,
,,,,,,,,,,,,5f64f12fc0570701c3bfbe7a,22,Kobieta,2022-06-11_09h39.06.999,task,2021.1.4,Win32,59.8372427,6299f149e92ead563fba08ef,62a44457c549e93cd7b5552b,,,,,,,,,,,,,,,,,,,,,,,,,,,,,,,,,,,,,,,,,,,,,,,,,,,,,,,,,,,,,,,,,,,,,,,,,,,,,,,,,,,,,,,,,,,,"[""period""]",0,79,0,79,0,1,[0.2777000000476164],,
,,,,,,,,,,,,5f64f12fc0570701c3bfbe7a,22,Kobieta,2022-06-11_09h39.06.999,task,2021.1.4,Win32,59.8372427,6299f149e92ead563fba08ef,62a44457c549e93cd7b5552b,,,,,,,,,,,,,,,,,,,,,,,,,,,,,,,,,,,,,,,,,,,,,,,,,,,,,,,,,,,,,,,,,,,,,,,,,,,,,,,,,,,,,,,,,,,,"[""comma""]",0,80,0,80,0,1,[0.2493999998569052],,
,,,,,,,,,,,,5f64f12fc0570701c3bfbe7a,22,Kobieta,2022-06-11_09h39.06.999,task,2021.1.4,Win32,59.8372427,6299f149e92ead563fba08ef,62a44457c549e93cd7b5552b,,,,,,,,,,,,,,,,,,,,,,,,,,,,,,,,,,,,,,,,,,,,,,,,,,,,,,,,,,,,,,,,,,,,,,,,,,,,,,,,,,,,,,,,,,,,"[""comma""]",0,81,0,81,0,1,[0.26620000004777467],,
,,,,,,,,,,,,5f64f12fc0570701c3bfbe7a,22,Kobieta,2022-06-11_09h39.06.999,task,2021.1.4,Win32,59.8372427,6299f149e92ead563fba08ef,62a44457c549e93cd7b5552b,,,,,,,,,,,,,,,,,,,,,,,,,,,,,,,,,,,,,,,,,,,,,,,,,,,,,,,,,,,,,,,,,,,,,,,,,,,,,,,,,,,,,,,,,,,,"[""comma"",""comma""]",0,82,0,82,0,1,"[0.22379999995234812,1.8776000001430475]",,
,,,,,,,,,,,,5f64f12fc0570701c3bfbe7a,22,Kobieta,2022-06-11_09h39.06.999,task,2021.1.4,Win32,59.8372427,6299f149e92ead563fba08ef,62a44457c549e93cd7b5552b,,,,,,,,,,,,,,,,,,,,,,,,,,,,,,,,,,,,,,,,,,,,,,,,,,,,,,,,,,,,,,,,,,,,,,,,,,,,,,,,,,,,,,,,,,,,"[""comma""]",0,83,0,83,0,1,[1.925700000047641],,
,,,,,,,,,,,,5f64f12fc0570701c3bfbe7a,22,Kobieta,2022-06-11_09h39.06.999,task,2021.1.4,Win32,59.8372427,6299f149e92ead563fba08ef,62a44457c549e93cd7b5552b,,,,,,,,,,,,,,,,,,,,,,,,,,,,,,,,,,,,,,,,,,,,,,,,,,,,,,,,,,,,,,,,,,,,,,,,,,,,,,,,,,,,,,,,,,,,"[""comma""]",0,84,0,84,0,1,[1.7830000000000155],,
,,,,,,,,,,,,5f64f12fc0570701c3bfbe7a,22,Kobieta,2022-06-11_09h39.06.999,task,2021.1.4,Win32,59.8372427,6299f149e92ead563fba08ef,62a44457c549e93cd7b5552b,,,,,,,,,,,,,,,,,,,,,,,,,,,,,,,,,,,,,,,,,,,,,,,,,,,,,,,,,,,,,,,,,,,,,,,,,,,,,,,,,,,,,,,,,,,,"[""period""]",0,85,0,85,0,1,[1.8309000000954256],,
,,,,,,,,,,,,5f64f12fc0570701c3bfbe7a,22,Kobieta,2022-06-11_09h39.06.999,task,2021.1.4,Win32,59.8372427,6299f149e92ead563fba08ef,62a44457c549e93cd7b5552b,,,,,,,,,,,,,,,,,,,,,,,,,,,,,,,,,,,,,,,,,,,,,,,,,,,,,,,,,,,,,,,,,,,,,,,,,,,,,,,,,,,,,,,,,,,,"[""period""]",0,86,0,86,0,1,[1.5326999998092106],,
,,,,,,,,,,,,5f64f12fc0570701c3bfbe7a,22,Kobieta,2022-06-11_09h39.06.999,task,2021.1.4,Win32,59.8372427,6299f149e92ead563fba08ef,62a44457c549e93cd7b5552b,,,,,,,,,,,,,,,,,,,,,,,,,,,,,,,,,,,,,,,,,,,,,,,,,,,,,,,,,,,,,,,,,,,,,,,,,,,,,,,,,,,,,,,,,,,,"[""period""]",0,87,0,87,0,1,[1.9206000001430539],,
,,,,,,,,,,,,5f64f12fc0570701c3bfbe7a,22,Kobieta,2022-06-11_09h39.06.999,task,2021.1.4,Win32,59.8372427,6299f149e92ead563fba08ef,62a44457c549e93cd7b5552b,,,,,,,,,,,,,,,,,,,,,,,,,,,,,,,,,,,,,,,,,,,,,,,,,,,,,,,,,,,,,,,,,,,,,,,,,,,,,,,,,,,,,,,,,,,,"[""comma""]",0,88,0,88,0,1,[1.8880000000000337],,
,,,,,,,,,,,,5f64f12fc0570701c3bfbe7a,22,Kobieta,2022-06-11_09h39.06.999,task,2021.1.4,Win32,59.8372427,6299f149e92ead563fba08ef,62a44457c549e93cd7b5552b,,,,,,,,,,,,,,,,,,,,,,,,,,,,,,,,,,,,,,,,,,,,,,,,,,,,,,,,,,,,,,,,,,,,,,,,,,,,,,,,,,,,,,,,,,,,"[""comma""]",0,89,0,89,0,1,[0.6438000001908222],,
,,,,,,,,,,,,5f64f12fc0570701c3bfbe7a,22,Kobieta,2022-06-11_09h39.06.999,task,2021.1.4,Win32,59.8372427,6299f149e92ead563fba08ef,62a44457c549e93cd7b5552b,,,,,,,,,,,,,,,,,,,,,,,,,,,,,,,,,,,,,,,,,,,,,,,,,,,,,,,,,,,,,,,,,,,,,,,,,,,,,,,,,,,,,,,,,,,,"[""comma""]",0,90,0,90,0,1,[0.2587999999523163],,
,,,,,,,,,,,,5f64f12fc0570701c3bfbe7a,22,Kobieta,2022-06-11_09h39.06.999,task,2021.1.4,Win32,59.8372427,6299f149e92ead563fba08ef,62a44457c549e93cd7b5552b,,,,,,,,,,,,,,,,,,,,,,,,,,,,,,,,,,,,,,,,,,,,,,,,,,,,,,,,,,,,,,,,,,,,,,,,,,,,,,,,,,,,,,,,,,,,"[""comma"",""comma""]",0,91,0,91,0,1,"[0.24929999995231356,1.7489000000953183]",,
,,,,,,,,,,,,5f64f12fc0570701c3bfbe7a,22,Kobieta,2022-06-11_09h39.06.999,task,2021.1.4,Win32,59.8372427,6299f149e92ead563fba08ef,62a44457c549e93cd7b5552b,,,,,,,,,,,,,,,,,,,,,,,,,,,,,,,,,,,,,,,,,,,,,,,,,,,,,,,,,,,,,,,,,,,,,,,,,,,,,,,,,,,,,,,,,,,,,0,92,0,92,0,1,,,
,,,,,,,,,,,,5f64f12fc0570701c3bfbe7a,22,Kobieta,2022-06-11_09h39.06.999,task,2021.1.4,Win32,59.8372427,6299f149e92ead563fba08ef,62a44457c549e93cd7b5552b,,,,,,,,,,,,,,,,,,,,,,,,,,,,,,,,,,,,,,,,,,,,,,,,,,,,,,,,,,,,,,,,,,,,,,,,,,,,,,,,,,,,,,,,,,,,"[""comma""]",0,93,0,93,0,1,[0.26749999999992724],,
,,,,,,,,,,,,5f64f12fc0570701c3bfbe7a,22,Kobieta,2022-06-11_09h39.06.999,task,2021.1.4,Win32,59.8372427,6299f149e92ead563fba08ef,62a44457c549e93cd7b5552b,,,,,,,,,,,,,,,,,,,,,,,,,,,,,,,,,,,,,,,,,,,,,,,,,,,,,,,,,,,,,,,,,,,,,,,,,,,,,,,,,,,,,,,,,,,,"[""period""]",0,94,0,94,0,1,[0.3050999999046553],,
,,,,,,,,,,,,5f64f12fc0570701c3bfbe7a,22,Kobieta,2022-06-11_09h39.06.999,task,2021.1.4,Win32,59.8372427,6299f149e92ead563fba08ef,62a44457c549e93cd7b5552b,,,,,,,,,,,,,,,,,,,,,,,,,,,,,,,,,,,,,,,,,,,,,,,,,,,,,,,,,,,,,,,,,,,,,,,,,,,,,,,,,,,,,,,,,,,,"[""period""]",0,95,0,95,0,1,[0.33950000000004366],,
,,,,,,,,,,,,5f64f12fc0570701c3bfbe7a,22,Kobieta,2022-06-11_09h39.06.999,task,2021.1.4,Win32,59.8372427,6299f149e92ead563fba08ef,62a44457c549e93cd7b5552b,,,,,,,,,,,,,,,,,,,,,,,,,,,,,,,,,,,,,,,,,,,,,,,,,,,,,,,,,,,,,,,,,,,,,,,,,,,,,,,,,,,,,,,,,,,,"[""period""]",0,96,0,96,0,1,[0.2523000001906439],,
,,,,,,,,,,,,5f64f12fc0570701c3bfbe7a,22,Kobieta,2022-06-11_09h39.06.999,task,2021.1.4,Win32,59.8372427,6299f149e92ead563fba08ef,62a44457c549e93cd7b5552b,,,,,,,,,,,,,,,,,,,,,,,,,,,,,,,,,,,,,,,,,,,,,,,,,,,,,,,,,,,,,,,,,,,,,,,,,,,,,,,,,,,,,,,,,,,,"[""comma""]",0,97,0,97,0,1,[0.2799999999999727],,
,,,,,,,,,,,,5f64f12fc0570701c3bfbe7a,22,Kobieta,2022-06-11_09h39.06.999,task,2021.1.4,Win32,59.8372427,6299f149e92ead563fba08ef,62a44457c549e93cd7b5552b,,,,,,,,,,,,,,,,,,,,,,,,,,,,,,,,,,,,,,,,,,,,,,,,,,,,,,,,,,,,,,,,,,,,,,,,,,,,,,,,,,,,,,,,,,,,"[""comma""]",0,98,0,98,0,1,[0.3350000000000364],,
,,,,,,,,,,,,5f64f12fc0570701c3bfbe7a,22,Kobieta,2022-06-11_09h39.06.999,task,2021.1.4,Win32,59.8372427,6299f149e92ead563fba08ef,62a44457c549e93cd7b5552b,,,,,,,,,,,,,,,,,,,,,,,,,,,,,,,,,,,,,,,,,,,,,,,,,,,,,,,,,,,,,,,,,,,,,,,,,,,,,,,,,,,,,,,,,,,,"[""comma""]",0,99,0,99,0,1,[0.2332000000477592],,
,,,,,,,,,,,,5f64f12fc0570701c3bfbe7a,22,Kobieta,2022-06-11_09h39.06.999,task,2021.1.4,Win32,59.8372427,6299f149e92ead563fba08ef,62a44457c549e93cd7b5552b,,,,,,,,,,,,,,,,,,,,,,,,,,,,,,,,,,,,,,,,,,,,,,,,,,,,,,,,,,,,,,,,,,,,,,,,,,,,,,,,,,,,,,,,,,,,"[""comma""]",0,100,0,100,0,1,[0.22879999995234357],,
,,,,,,,,,,,,5f64f12fc0570701c3bfbe7a,22,Kobieta,2022-06-11_09h39.06.999,task,2021.1.4,Win32,59.8372427,6299f149e92ead563fba08ef,62a44457c549e93cd7b5552b,,,,,,,,,,,,,,,,,,,,,,,,,,,,,,,,,,,,,,,,,,,,,,,,,,,,,,,,,,,,,,,,,,,,,,,,,,,,,,,,,,,,,,,,,,,,"[""comma""]",0,101,0,101,0,1,[0.44960000014305024],,
,,,,,,,,,,,,5f64f12fc0570701c3bfbe7a,22,Kobieta,2022-06-11_09h39.06.999,task,2021.1.4,Win32,59.8372427,6299f149e92ead563fba08ef,62a44457c549e93cd7b5552b,,,,,,,,,,,,,,,,,,,,,,,,,,,,,,,,,,,,,,,,,,,,,,,,,,,,,,,,,,,,,,,,,,,,,,,,,,,,,,,,,,,,,,,,,,,,"[""period""]",0,102,0,102,0,1,[0.6337999999523163],,
,,,,,,,,,,,,5f64f12fc0570701c3bfbe7a,22,Kobieta,2022-06-11_09h39.06.999,task,2021.1.4,Win32,59.8372427,6299f149e92ead563fba08ef,62a44457c549e93cd7b5552b,,,,,,,,,,,,,,,,,,,,,,,,,,,,,,,,,,,,,,,,,,,,,,,,,,,,,,,,,,,,,,,,,,,,,,,,,,,,,,,,,,,,,,,,,,,,"[""comma""]",0,103,0,103,0,1,[0.9565000000000055],,
,,,,,,,,,,,,5f64f12fc0570701c3bfbe7a,22,Kobieta,2022-06-11_09h39.06.999,task,2021.1.4,Win32,59.8372427,6299f149e92ead563fba08ef,62a44457c549e93cd7b5552b,,,,,,,,,,,,,,,,,,,,,,,,,,,,,,,,,,,,,,,,,,,,,,,,,,,,,,,,,,,,,,,,,,,,,,,,,,,,,,,,,,,,,,,,,,,,"[""comma""]",0,104,0,104,0,1,[0.3935000000000173],,
,,,,,,,,,,,,5f64f12fc0570701c3bfbe7a,22,Kobieta,2022-06-11_09h39.06.999,task,2021.1.4,Win32,59.8372427,6299f149e92ead563fba08ef,62a44457c549e93cd7b5552b,,,,,,,,,,,,,,,,,,,,,,,,,,,,,,,,,,,,,,,,,,,,,,,,,,,,,,,,,,,,,,,,,,,,,,,,,,,,,,,,,,,,,,,,,,,,"[""comma"",""period""]",0,105,0,105,0,1,"[0.2189000000953456,1.7894999999999754]",,
,,,,,,,,,,,,5f64f12fc0570701c3bfbe7a,22,Kobieta,2022-06-11_09h39.06.999,task,2021.1.4,Win32,59.8372427,6299f149e92ead563fba08ef,62a44457c549e93cd7b5552b,,,,,,,,,,,,,,,,,,,,,,,,,,,,,,,,,,,,,,,,,,,,,,,,,,,,,,,,,,,,,,,,,,,,,,,,,,,,,,,,,,,,,,,,,,,,,0,106,0,106,0,1,,,
,,,,,,,,,,,,5f64f12fc0570701c3bfbe7a,22,Kobieta,2022-06-11_09h39.06.999,task,2021.1.4,Win32,59.8372427,6299f149e92ead563fba08ef,62a44457c549e93cd7b5552b,,,,,,,,,,,,,,,,,,,,,,,,,,,,,,,,,,,,,,,,,,,,,,,,,,,,,,,,,,,,,,,,,,,,,,,,,,,,,,,,,,,,,,,,,,,,"[""period""]",0,107,0,107,0,1,[0.2997000000476646],,
,,,,,,,,,,,,5f64f12fc0570701c3bfbe7a,22,Kobieta,2022-06-11_09h39.06.999,task,2021.1.4,Win32,59.8372427,6299f149e92ead563fba08ef,62a44457c549e93cd7b5552b,,,,,,,,,,,,,,,,,,,,,,,,,,,,,,,,,,,,,,,,,,,,,,,,,,,,,,,,,,,,,,,,,,,,,,,,,,,,,,,,,,,,,,,,,,,,"[""period""]",0,108,0,108,0,1,[0.2827999999523172],,
,,,,,,,,,,,,5f64f12fc0570701c3bfbe7a,22,Kobieta,2022-06-11_09h39.06.999,task,2021.1.4,Win32,59.8372427,6299f149e92ead563fba08ef,62a44457c549e93cd7b5552b,,,,,,,,,,,,,,,,,,,,,,,,,,,,,,,,,,,,,,,,,,,,,,,,,,,,,,,,,,,,,,,,,,,,,,,,,,,,,,,,,,,,,,,,,,,,"[""period""]",0,109,0,109,0,1,[0.5462000000476337],,
,,,,,,,,,,,,5f64f12fc0570701c3bfbe7a,22,Kobieta,2022-06-11_09h39.06.999,task,2021.1.4,Win32,59.8372427,6299f149e92ead563fba08ef,62a44457c549e93cd7b5552b,,,,,,,,,,,,,,,,,,,,,,,,,,,,,,,,,,,,,,,,,,,,,,,,,,,,,,,,,,,,,,,,,,,,,,,,,,,,,,,,,,,,,,,,,,,,"[""comma""]",0,110,0,110,0,1,[0.5040999999046107],,
,,,,,,,,,,,,5f64f12fc0570701c3bfbe7a,22,Kobieta,2022-06-11_09h39.06.999,task,2021.1.4,Win32,59.8372427,6299f149e92ead563fba08ef,62a44457c549e93cd7b5552b,,,,,,,,,,,,,,,,,,,,,,,,,,,,,,,,,,,,,,,,,,,,,,,,,,,,,,,,,,,,,,,,,,,,,,,,,,,,,,,,,,,,,,,,,,,,"[""comma""]",0,111,0,111,0,1,[0.5255000000000791],,
,,,,,,,,,,,,5f64f12fc0570701c3bfbe7a,22,Kobieta,2022-06-11_09h39.06.999,task,2021.1.4,Win32,59.8372427,6299f149e92ead563fba08ef,62a44457c549e93cd7b5552b,,,,,,,,,,,,,,,,,,,,,,,,,,,,,,,,,,,,,,,,,,,,,,,,,,,,,,,,,,,,,,,,,,,,,,,,,,,,,,,,,,,,,,,,,,,,"[""comma""]",0,112,0,112,0,1,[0.5187000000477155],,
,,,,,,,,,,,,5f64f12fc0570701c3bfbe7a,22,Kobieta,2022-06-11_09h39.06.999,task,2021.1.4,Win32,59.8372427,6299f149e92ead563fba08ef,62a44457c549e93cd7b5552b,,,,,,,,,,,,,,,,,,,,,,,,,,,,,,,,,,,,,,,,,,,,,,,,,,,,,,,,,,,,,,,,,,,,,,,,,,,,,,,,,,,,,,,,,,,,"[""period""]",0,113,0,113,0,1,[0.5367999999523363],,
,,,,,,,,,,,,5f64f12fc0570701c3bfbe7a,22,Kobieta,2022-06-11_09h39.06.999,task,2021.1.4,Win32,59.8372427,6299f149e92ead563fba08ef,62a44457c549e93cd7b5552b,,,,,,,,,,,,,,,,,,,,,,,,,,,,,,,,,,,,,,,,,,,,,,,,,,,,,,,,,,,,,,,,,,,,,,,,,,,,,,,,,,,,,,,,,,,,"[""comma""]",0,114,0,114,0,1,[0.8667999999523772],,
,,,,,,,,,,,,5f64f12fc0570701c3bfbe7a,22,Kobieta,2022-06-11_09h39.06.999,task,2021.1.4,Win32,59.8372427,6299f149e92ead563fba08ef,62a44457c549e93cd7b5552b,,,,,,,,,,,,,,,,,,,,,,,,,,,,,,,,,,,,,,,,,,,,,,,,,,,,,,,,,,,,,,,,,,,,,,,,,,,,,,,,,,,,,,,,,,,,"[""comma""]",0,115,0,115,0,1,[1.7160000000000082],,
,,,,,,,,,,,,5f64f12fc0570701c3bfbe7a,22,Kobieta,2022-06-11_09h39.06.999,task,2021.1.4,Win32,59.8372427,6299f149e92ead563fba08ef,62a44457c549e93cd7b5552b,,,,,,,,,,,,,,,,,,,,,,,,,,,,,,,,,,,,,,,,,,,,,,,,,,,,,,,,,,,,,,,,,,,,,,,,,,,,,,,,,,,,,,,,,,,,,0,116,0,116,0,1,,,
,,,,,,,,,,,,5f64f12fc0570701c3bfbe7a,22,Kobieta,2022-06-11_09h39.06.999,task,2021.1.4,Win32,59.8372427,6299f149e92ead563fba08ef,62a44457c549e93cd7b5552b,,,,,,,,,,,,,,,,,,,,,,,,,,,,,,,,,,,,,,,,,,,,,,,,,,,,,,,,,,,,,,,,,,,,,,,,,,,,,,,,,,,,,,,,,,,,"[""comma""]",0,117,0,117,0,1,[0.5157999999522644],,
,,,,,,,,,,,,5f64f12fc0570701c3bfbe7a,22,Kobieta,2022-06-11_09h39.06.999,task,2021.1.4,Win32,59.8372427,6299f149e92ead563fba08ef,62a44457c549e93cd7b5552b,,,,,,,,,,,,,,,,,,,,,,,,,,,,,,,,,,,,,,,,,,,,,,,,,,,,,,,,,,,,,,,,,,,,,,,,,,,,,,,,,,,,,,,,,,,,"[""period""]",0,118,0,118,0,1,[0.4004000000953738],,
,,,,,,,,,,,,5f64f12fc0570701c3bfbe7a,22,Kobieta,2022-06-11_09h39.06.999,task,2021.1.4,Win32,59.8372427,6299f149e92ead563fba08ef,62a44457c549e93cd7b5552b,,,,,,,,,,,,,,,,,,,,,,,,,,,,,,,,,,,,,,,,,,,,,,,,,,,,,,,,,,,,,,,,,,,,,,,,,,,,,,,,,,,,,,,,,,,,"[""period""]",0,119,0,119,0,1,[0.4599999999999227],,
,,,,,,,,,,,,5f64f12fc0570701c3bfbe7a,22,Kobieta,2022-06-11_09h39.06.999,task,2021.1.4,Win32,59.8372427,6299f149e92ead563fba08ef,62a44457c549e93cd7b5552b,,,,,,,,,,,,,,,,,,,,,,,,,,,,,,,,,,,,,,,,,,,,,,,,,,,,,,,,,,,,,,,,,,,,,,,,,,,,,,,,,,,,,,,,,,,,,,,,,,,,space,1.7191
