key_resp_15.keys,key_resp_15.rt,key_resp_16.keys,key_resp_16.rt,key_resp_4.keys,key_resp_4.rt,next_letter.thisRepN,next_letter.thisTrialN,next_letter.thisN,next_letter.thisIndex,next_letter.ran,letter,participant,Wiek*,Płeć,date,expName,psychopyVersion,OS,frameRate,study_id,session,simple_recall,key_resp_5.keys,key_resp_5.rt,simple_recall_corr,simple_recall_corrkeys,next_level.thisRepN,next_level.thisTrialN,next_level.thisN,next_level.thisIndex,next_level.ran,key_resp_2.keys,key_resp_2.rt,digit_answer,key_resp.keys,key_resp.corr,key_resp.rt,RT_list,next_equation.thisRepN,next_equation.thisTrialN,next_equation.thisN,next_equation.thisIndex,next_equation.ran,Task,Trial,Problem,Operation_answer,processing_score,sumRT,meanRT,sumdiff,sd,RT,key_resp_3.keys,key_resp_3.rt,repeat_practice.thisRepN,repeat_practice.thisTrialN,repeat_practice.thisN,repeat_practice.thisIndex,repeat_practice.ran,key_resp_6.keys,key_resp_6.rt,key_resp_11.keys,key_resp_11.corr,key_resp_11.rt,operation_correct,repeat_if_wrong_prac.thisRepN,repeat_if_wrong_prac.thisTrialN,repeat_if_wrong_prac.thisN,repeat_if_wrong_prac.thisIndex,repeat_if_wrong_prac.ran,span_size_prac.thisRepN,span_size_prac.thisTrialN,span_size_prac.thisN,span_size_prac.thisIndex,span_size_prac.ran,complex_recall_practice,key_resp_9.keys,key_resp_9.corr,key_resp_9.rt,complex_prac_corr,span_recall_prac.thisRepN,span_recall_prac.thisTrialN,span_recall_prac.thisN,span_recall_prac.thisIndex,span_recall_prac.ran,key_resp_10.keys,key_resp_10.rt,key_resp_7.keys,key_resp_7.corr,key_resp_7.rt,repeat_if_wrong.thisRepN,repeat_if_wrong.thisTrialN,repeat_if_wrong.thisN,repeat_if_wrong.thisIndex,repeat_if_wrong.ran,span_size.thisRepN,span_size.thisTrialN,span_size.thisN,span_size.thisIndex,span_size.ran,complex_recall,key_resp_8.keys,key_resp_8.corr,key_resp_8.rt,complex_recall_corr,complex_recall_corrkeys,span_recall.thisRepN,span_recall.thisTrialN,span_recall.thisN,span_recall.thisIndex,span_recall.ran,key_resp_13.keys,key_resp_13.corr,key_resp_13.rt,random_loop.thisRepN,random_loop.thisTrialN,random_loop.thisN,random_loop.thisIndex,random_loop.ran,key_resp_12.keys,key_resp_12.rt
space,29.8922,space,39.0205,space,17.6149,0,0,0,0,1,X V Q F H G B L J M P D K C T S W R N Z,5f6e0be76cea482e27d38c95,21,Mężczyzna,2022-06-25_15h32.49.617,task,2021.1.4,Win32,143.8021283,6299f149e92ead563fba08ef,62b70e44376dedcfaf3f02d8,,,,,,,,,,,,,,,,,,,,,,,,,,,,,,,,,,,,,,,,,,,,,,,,,,,,,,,,,,,,,,,,,,,,,,,,,,,,,,,,,,,,,,,,,,,,,,,,,,,,,
,,,,,,1,0,1,0,1,X V Q F H G B L J M P D K C T S W R N Z,5f6e0be76cea482e27d38c95,21,Mężczyzna,2022-06-25_15h32.49.617,task,2021.1.4,Win32,143.8021283,6299f149e92ead563fba08ef,62b70e44376dedcfaf3f02d8,,,,,,,,,,,,,,,,,,,,,,,,,,,,,,,,,,,,,,,,,,,,,,,,,,,,,,,,,,,,,,,,,,,,,,,,,,,,,,,,,,,,,,,,,,,,,,,,,,,,,
,,,,,,,,,,,,5f6e0be76cea482e27d38c95,21,Mężczyzna,2022-06-25_15h32.49.617,task,2021.1.4,Win32,143.8021283,6299f149e92ead563fba08ef,62b70e44376dedcfaf3f02d8,zf,"[""z"",""f""]","[2.093500000000006,2.869600000023837,5.226300000011918]",1,ZF,0,0,0,0,1,,,,,,,,,,,,,,,,,,,,,,,,,,,,,,,,,,,,,,,,,,,,,,,,,,,,,,,,,,,,,,,,,,,,,,,,,,,,,,,,,,,,,,,,,,,
,,,,,,0,0,0,0,1,X V Q F H G B L J M P D K C T S W R N Z,5f6e0be76cea482e27d38c95,21,Mężczyzna,2022-06-25_15h32.49.617,task,2021.1.4,Win32,143.8021283,6299f149e92ead563fba08ef,62b70e44376dedcfaf3f02d8,,,,,,,,,,,,,,,,,,,,,,,,,,,,,,,,,,,,,,,,,,,,,,,,,,,,,,,,,,,,,,,,,,,,,,,,,,,,,,,,,,,,,,,,,,,,,,,,,,,,,
,,,,,,1,0,1,0,1,X V Q F H G B L J M P D K C T S W R N Z,5f6e0be76cea482e27d38c95,21,Mężczyzna,2022-06-25_15h32.49.617,task,2021.1.4,Win32,143.8021283,6299f149e92ead563fba08ef,62b70e44376dedcfaf3f02d8,,,,,,,,,,,,,,,,,,,,,,,,,,,,,,,,,,,,,,,,,,,,,,,,,,,,,,,,,,,,,,,,,,,,,,,,,,,,,,,,,,,,,,,,,,,,,,,,,,,,,
,,,,,,,,,,,,5f6e0be76cea482e27d38c95,21,Mężczyzna,2022-06-25_15h32.49.617,task,2021.1.4,Win32,143.8021283,6299f149e92ead563fba08ef,62b70e44376dedcfaf3f02d8,rz,"[""r"",""z""]","[2.659100000023841,2.9606999999880657,3.8276999999880843]",1,RZ,1,0,1,0,1,,,,,,,,,,,,,,,,,,,,,,,,,,,,,,,,,,,,,,,,,,,,,,,,,,,,,,,,,,,,,,,,,,,,,,,,,,,,,,,,,,,,,,,,,,,
,,,,,,0,0,0,0,1,X V Q F H G B L J M P D K C T S W R N Z,5f6e0be76cea482e27d38c95,21,Mężczyzna,2022-06-25_15h32.49.617,task,2021.1.4,Win32,143.8021283,6299f149e92ead563fba08ef,62b70e44376dedcfaf3f02d8,,,,,,,,,,,,,,,,,,,,,,,,,,,,,,,,,,,,,,,,,,,,,,,,,,,,,,,,,,,,,,,,,,,,,,,,,,,,,,,,,,,,,,,,,,,,,,,,,,,,,
,,,,,,1,0,1,0,1,X V Q F H G B L J M P D K C T S W R N Z,5f6e0be76cea482e27d38c95,21,Mężczyzna,2022-06-25_15h32.49.617,task,2021.1.4,Win32,143.8021283,6299f149e92ead563fba08ef,62b70e44376dedcfaf3f02d8,,,,,,,,,,,,,,,,,,,,,,,,,,,,,,,,,,,,,,,,,,,,,,,,,,,,,,,,,,,,,,,,,,,,,,,,,,,,,,,,,,,,,,,,,,,,,,,,,,,,,
,,,,,,2,0,2,0,1,X V Q F H G B L J M P D K C T S W R N Z,5f6e0be76cea482e27d38c95,21,Mężczyzna,2022-06-25_15h32.49.617,task,2021.1.4,Win32,143.8021283,6299f149e92ead563fba08ef,62b70e44376dedcfaf3f02d8,,,,,,,,,,,,,,,,,,,,,,,,,,,,,,,,,,,,,,,,,,,,,,,,,,,,,,,,,,,,,,,,,,,,,,,,,,,,,,,,,,,,,,,,,,,,,,,,,,,,,
,,,,,,,,,,,,5f6e0be76cea482e27d38c95,21,Mężczyzna,2022-06-25_15h32.49.617,task,2021.1.4,Win32,143.8021283,6299f149e92ead563fba08ef,62b70e44376dedcfaf3f02d8,wkv,"[""w"",""k"",""v""]","[1.095499999999987,1.4499999999999886,1.7108000000119148,2.560899999976158]",1,WKV,2,0,2,0,1,,,,,,,,,,,,,,,,,,,,,,,,,,,,,,,,,,,,,,,,,,,,,,,,,,,,,,,,,,,,,,,,,,,,,,,,,,,,,,,,,,,,,,,,,,,
,,,,,,0,0,0,0,1,X V Q F H G B L J M P D K C T S W R N Z,5f6e0be76cea482e27d38c95,21,Mężczyzna,2022-06-25_15h32.49.617,task,2021.1.4,Win32,143.8021283,6299f149e92ead563fba08ef,62b70e44376dedcfaf3f02d8,,,,,,,,,,,,,,,,,,,,,,,,,,,,,,,,,,,,,,,,,,,,,,,,,,,,,,,,,,,,,,,,,,,,,,,,,,,,,,,,,,,,,,,,,,,,,,,,,,,,,
,,,,,,1,0,1,0,1,X V Q F H G B L J M P D K C T S W R N Z,5f6e0be76cea482e27d38c95,21,Mężczyzna,2022-06-25_15h32.49.617,task,2021.1.4,Win32,143.8021283,6299f149e92ead563fba08ef,62b70e44376dedcfaf3f02d8,,,,,,,,,,,,,,,,,,,,,,,,,,,,,,,,,,,,,,,,,,,,,,,,,,,,,,,,,,,,,,,,,,,,,,,,,,,,,,,,,,,,,,,,,,,,,,,,,,,,,
,,,,,,2,0,2,0,1,X V Q F H G B L J M P D K C T S W R N Z,5f6e0be76cea482e27d38c95,21,Mężczyzna,2022-06-25_15h32.49.617,task,2021.1.4,Win32,143.8021283,6299f149e92ead563fba08ef,62b70e44376dedcfaf3f02d8,,,,,,,,,,,,,,,,,,,,,,,,,,,,,,,,,,,,,,,,,,,,,,,,,,,,,,,,,,,,,,,,,,,,,,,,,,,,,,,,,,,,,,,,,,,,,,,,,,,,,
,,,,,,,,,,,,5f6e0be76cea482e27d38c95,21,Mężczyzna,2022-06-25_15h32.49.617,task,2021.1.4,Win32,143.8021283,6299f149e92ead563fba08ef,62b70e44376dedcfaf3f02d8,wkm,"[""w"",""k"",""m""]","[1.2766999999880966,1.5380999999642597,1.8230999999642563,2.474000000000018]",1,WKM,3,0,3,0,1,,,,,,,,,,,,,,,,,,,,,,,,,,,,,,,,,,,,,,,,,,,,,,,,,,,,,,,,,,,,,,,,,,,,,,,,,,,,,,,,,,,,,,,,,,,
,,,,,,0,0,0,0,1,X V Q F H G B L J M P D K C T S W R N Z,5f6e0be76cea482e27d38c95,21,Mężczyzna,2022-06-25_15h32.49.617,task,2021.1.4,Win32,143.8021283,6299f149e92ead563fba08ef,62b70e44376dedcfaf3f02d8,,,,,,,,,,,,,,,,,,,,,,,,,,,,,,,,,,,,,,,,,,,,,,,,,,,,,,,,,,,,,,,,,,,,,,,,,,,,,,,,,,,,,,,,,,,,,,,,,,,,,
,,,,,,1,0,1,0,1,X V Q F H G B L J M P D K C T S W R N Z,5f6e0be76cea482e27d38c95,21,Mężczyzna,2022-06-25_15h32.49.617,task,2021.1.4,Win32,143.8021283,6299f149e92ead563fba08ef,62b70e44376dedcfaf3f02d8,,,,,,,,,,,,,,,,,,,,,,,,,,,,,,,,,,,,,,,,,,,,,,,,,,,,,,,,,,,,,,,,,,,,,,,,,,,,,,,,,,,,,,,,,,,,,,,,,,,,,
,,,,,,2,0,2,0,1,X V Q F H G B L J M P D K C T S W R N Z,5f6e0be76cea482e27d38c95,21,Mężczyzna,2022-06-25_15h32.49.617,task,2021.1.4,Win32,143.8021283,6299f149e92ead563fba08ef,62b70e44376dedcfaf3f02d8,,,,,,,,,,,,,,,,,,,,,,,,,,,,,,,,,,,,,,,,,,,,,,,,,,,,,,,,,,,,,,,,,,,,,,,,,,,,,,,,,,,,,,,,,,,,,,,,,,,,,
,,,,,,3,0,3,0,1,X V Q F H G B L J M P D K C T S W R N Z,5f6e0be76cea482e27d38c95,21,Mężczyzna,2022-06-25_15h32.49.617,task,2021.1.4,Win32,143.8021283,6299f149e92ead563fba08ef,62b70e44376dedcfaf3f02d8,,,,,,,,,,,,,,,,,,,,,,,,,,,,,,,,,,,,,,,,,,,,,,,,,,,,,,,,,,,,,,,,,,,,,,,,,,,,,,,,,,,,,,,,,,,,,,,,,,,,,
,,,,,,,,,,,,5f6e0be76cea482e27d38c95,21,Mężczyzna,2022-06-25_15h32.49.617,task,2021.1.4,Win32,143.8021283,6299f149e92ead563fba08ef,62b70e44376dedcfaf3f02d8,hxcf,"[""h"",""x"",""c"",""f""]","[1.27829999995231,1.8831999999880793,2.3281999999880725,2.75629999995229,3.3892999999523]",1,HXCF,4,0,4,0,1,,,,,,,,,,,,,,,,,,,,,,,,,,,,,,,,,,,,,,,,,,,,,,,,,,,,,,,,,,,,,,,,,,,,,,,,,,,,,,,,,,,,,,,,,,,
,,,,,,0,0,0,0,1,X V Q F H G B L J M P D K C T S W R N Z,5f6e0be76cea482e27d38c95,21,Mężczyzna,2022-06-25_15h32.49.617,task,2021.1.4,Win32,143.8021283,6299f149e92ead563fba08ef,62b70e44376dedcfaf3f02d8,,,,,,,,,,,,,,,,,,,,,,,,,,,,,,,,,,,,,,,,,,,,,,,,,,,,,,,,,,,,,,,,,,,,,,,,,,,,,,,,,,,,,,,,,,,,,,,,,,,,,
,,,,,,1,0,1,0,1,X V Q F H G B L J M P D K C T S W R N Z,5f6e0be76cea482e27d38c95,21,Mężczyzna,2022-06-25_15h32.49.617,task,2021.1.4,Win32,143.8021283,6299f149e92ead563fba08ef,62b70e44376dedcfaf3f02d8,,,,,,,,,,,,,,,,,,,,,,,,,,,,,,,,,,,,,,,,,,,,,,,,,,,,,,,,,,,,,,,,,,,,,,,,,,,,,,,,,,,,,,,,,,,,,,,,,,,,,
,,,,,,2,0,2,0,1,X V Q F H G B L J M P D K C T S W R N Z,5f6e0be76cea482e27d38c95,21,Mężczyzna,2022-06-25_15h32.49.617,task,2021.1.4,Win32,143.8021283,6299f149e92ead563fba08ef,62b70e44376dedcfaf3f02d8,,,,,,,,,,,,,,,,,,,,,,,,,,,,,,,,,,,,,,,,,,,,,,,,,,,,,,,,,,,,,,,,,,,,,,,,,,,,,,,,,,,,,,,,,,,,,,,,,,,,,
,,,,,,3,0,3,0,1,X V Q F H G B L J M P D K C T S W R N Z,5f6e0be76cea482e27d38c95,21,Mężczyzna,2022-06-25_15h32.49.617,task,2021.1.4,Win32,143.8021283,6299f149e92ead563fba08ef,62b70e44376dedcfaf3f02d8,,,,,,,,,,,,,,,,,,,,,,,,,,,,,,,,,,,,,,,,,,,,,,,,,,,,,,,,,,,,,,,,,,,,,,,,,,,,,,,,,,,,,,,,,,,,,,,,,,,,,
,,,,,,,,,,,,5f6e0be76cea482e27d38c95,21,Mężczyzna,2022-06-25_15h32.49.617,task,2021.1.4,Win32,143.8021283,6299f149e92ead563fba08ef,62b70e44376dedcfaf3f02d8,ntzd,"[""n"",""t"",""z"",""d""]","[1.1099999999999852,1.41130000001192,2.0166000000238284,2.6603000000119152,3.5275000000000034]",1,NTZD,5,0,5,0,1,,,,,,,,,,,,,,,,,,,,,,,,,,,,,,,,,,,,,,,,,,,,,,,,,,,,,,,,,,,,,,,,,,,,,,,,,,,,,,,,,,,,,,,,,,,
,,,,,,0,0,0,0,1,X V Q F H G B L J M P D K C T S W R N Z,5f6e0be76cea482e27d38c95,21,Mężczyzna,2022-06-25_15h32.49.617,task,2021.1.4,Win32,143.8021283,6299f149e92ead563fba08ef,62b70e44376dedcfaf3f02d8,,,,,,,,,,,,,,,,,,,,,,,,,,,,,,,,,,,,,,,,,,,,,,,,,,,,,,,,,,,,,,,,,,,,,,,,,,,,,,,,,,,,,,,,,,,,,,,,,,,,,
,,,,,,1,0,1,0,1,X V Q F H G B L J M P D K C T S W R N Z,5f6e0be76cea482e27d38c95,21,Mężczyzna,2022-06-25_15h32.49.617,task,2021.1.4,Win32,143.8021283,6299f149e92ead563fba08ef,62b70e44376dedcfaf3f02d8,,,,,,,,,,,,,,,,,,,,,,,,,,,,,,,,,,,,,,,,,,,,,,,,,,,,,,,,,,,,,,,,,,,,,,,,,,,,,,,,,,,,,,,,,,,,,,,,,,,,,
,,,,,,2,0,2,0,1,X V Q F H G B L J M P D K C T S W R N Z,5f6e0be76cea482e27d38c95,21,Mężczyzna,2022-06-25_15h32.49.617,task,2021.1.4,Win32,143.8021283,6299f149e92ead563fba08ef,62b70e44376dedcfaf3f02d8,,,,,,,,,,,,,,,,,,,,,,,,,,,,,,,,,,,,,,,,,,,,,,,,,,,,,,,,,,,,,,,,,,,,,,,,,,,,,,,,,,,,,,,,,,,,,,,,,,,,,
,,,,,,3,0,3,0,1,X V Q F H G B L J M P D K C T S W R N Z,5f6e0be76cea482e27d38c95,21,Mężczyzna,2022-06-25_15h32.49.617,task,2021.1.4,Win32,143.8021283,6299f149e92ead563fba08ef,62b70e44376dedcfaf3f02d8,,,,,,,,,,,,,,,,,,,,,,,,,,,,,,,,,,,,,,,,,,,,,,,,,,,,,,,,,,,,,,,,,,,,,,,,,,,,,,,,,,,,,,,,,,,,,,,,,,,,,
,,,,,,4,0,4,0,1,X V Q F H G B L J M P D K C T S W R N Z,5f6e0be76cea482e27d38c95,21,Mężczyzna,2022-06-25_15h32.49.617,task,2021.1.4,Win32,143.8021283,6299f149e92ead563fba08ef,62b70e44376dedcfaf3f02d8,,,,,,,,,,,,,,,,,,,,,,,,,,,,,,,,,,,,,,,,,,,,,,,,,,,,,,,,,,,,,,,,,,,,,,,,,,,,,,,,,,,,,,,,,,,,,,,,,,,,,
,,,,,,,,,,,,5f6e0be76cea482e27d38c95,21,Mężczyzna,2022-06-25_15h32.49.617,task,2021.1.4,Win32,143.8021283,6299f149e92ead563fba08ef,62b70e44376dedcfaf3f02d8,hmbcs,"[""h"",""m"",""b"",""c"",""s""]","[1.3373000000119077,1.6343000000119048,2.0391000000238364,2.3811999999880697,2.592199999988054,3.083100000023819]",1,HMBCS,6,0,6,0,1,,,,,,,,,,,,,,,,,,,,,,,,,,,,,,,,,,,,,,,,,,,,,,,,,,,,,,,,,,,,,,,,,,,,,,,,,,,,,,,,,,,,,,,,,,,
,,,,,,0,0,0,0,1,X V Q F H G B L J M P D K C T S W R N Z,5f6e0be76cea482e27d38c95,21,Mężczyzna,2022-06-25_15h32.49.617,task,2021.1.4,Win32,143.8021283,6299f149e92ead563fba08ef,62b70e44376dedcfaf3f02d8,,,,,,,,,,,,,,,,,,,,,,,,,,,,,,,,,,,,,,,,,,,,,,,,,,,,,,,,,,,,,,,,,,,,,,,,,,,,,,,,,,,,,,,,,,,,,,,,,,,,,
,,,,,,1,0,1,0,1,X V Q F H G B L J M P D K C T S W R N Z,5f6e0be76cea482e27d38c95,21,Mężczyzna,2022-06-25_15h32.49.617,task,2021.1.4,Win32,143.8021283,6299f149e92ead563fba08ef,62b70e44376dedcfaf3f02d8,,,,,,,,,,,,,,,,,,,,,,,,,,,,,,,,,,,,,,,,,,,,,,,,,,,,,,,,,,,,,,,,,,,,,,,,,,,,,,,,,,,,,,,,,,,,,,,,,,,,,
,,,,,,2,0,2,0,1,X V Q F H G B L J M P D K C T S W R N Z,5f6e0be76cea482e27d38c95,21,Mężczyzna,2022-06-25_15h32.49.617,task,2021.1.4,Win32,143.8021283,6299f149e92ead563fba08ef,62b70e44376dedcfaf3f02d8,,,,,,,,,,,,,,,,,,,,,,,,,,,,,,,,,,,,,,,,,,,,,,,,,,,,,,,,,,,,,,,,,,,,,,,,,,,,,,,,,,,,,,,,,,,,,,,,,,,,,
,,,,,,3,0,3,0,1,X V Q F H G B L J M P D K C T S W R N Z,5f6e0be76cea482e27d38c95,21,Mężczyzna,2022-06-25_15h32.49.617,task,2021.1.4,Win32,143.8021283,6299f149e92ead563fba08ef,62b70e44376dedcfaf3f02d8,,,,,,,,,,,,,,,,,,,,,,,,,,,,,,,,,,,,,,,,,,,,,,,,,,,,,,,,,,,,,,,,,,,,,,,,,,,,,,,,,,,,,,,,,,,,,,,,,,,,,
,,,,,,4,0,4,0,1,X V Q F H G B L J M P D K C T S W R N Z,5f6e0be76cea482e27d38c95,21,Mężczyzna,2022-06-25_15h32.49.617,task,2021.1.4,Win32,143.8021283,6299f149e92ead563fba08ef,62b70e44376dedcfaf3f02d8,,,,,,,,,,,,,,,,,,,,,,,,,,,,,,,,,,,,,,,,,,,,,,,,,,,,,,,,,,,,,,,,,,,,,,,,,,,,,,,,,,,,,,,,,,,,,,,,,,,,,
,,,,,,,,,,,,5f6e0be76cea482e27d38c95,21,Mężczyzna,2022-06-25_15h32.49.617,task,2021.1.4,Win32,143.8021283,6299f149e92ead563fba08ef,62b70e44376dedcfaf3f02d8,fpqrs,"[""f"",""p"",""q"",""r"",""s""]","[1.1448000000119123,1.4014999999999986,1.9421999999880768,2.2111999999880823,2.415800000011899,2.786800000011908]",1,FPQRS,7,0,7,0,1,,,,,,,,,,,,,,,,,,,,,,,,,,,,,,,,,,,,,,,,,,,,,,,,,,,,,,,,,,,,,,,,,,,,,,,,,,,,,,,,,,,,,,,,,,,
,,,,,,0,0,0,0,1,X V Q F H G B L J M P D K C T S W R N Z,5f6e0be76cea482e27d38c95,21,Mężczyzna,2022-06-25_15h32.49.617,task,2021.1.4,Win32,143.8021283,6299f149e92ead563fba08ef,62b70e44376dedcfaf3f02d8,,,,,,,,,,,,,,,,,,,,,,,,,,,,,,,,,,,,,,,,,,,,,,,,,,,,,,,,,,,,,,,,,,,,,,,,,,,,,,,,,,,,,,,,,,,,,,,,,,,,,
,,,,,,1,0,1,0,1,X V Q F H G B L J M P D K C T S W R N Z,5f6e0be76cea482e27d38c95,21,Mężczyzna,2022-06-25_15h32.49.617,task,2021.1.4,Win32,143.8021283,6299f149e92ead563fba08ef,62b70e44376dedcfaf3f02d8,,,,,,,,,,,,,,,,,,,,,,,,,,,,,,,,,,,,,,,,,,,,,,,,,,,,,,,,,,,,,,,,,,,,,,,,,,,,,,,,,,,,,,,,,,,,,,,,,,,,,
,,,,,,2,0,2,0,1,X V Q F H G B L J M P D K C T S W R N Z,5f6e0be76cea482e27d38c95,21,Mężczyzna,2022-06-25_15h32.49.617,task,2021.1.4,Win32,143.8021283,6299f149e92ead563fba08ef,62b70e44376dedcfaf3f02d8,,,,,,,,,,,,,,,,,,,,,,,,,,,,,,,,,,,,,,,,,,,,,,,,,,,,,,,,,,,,,,,,,,,,,,,,,,,,,,,,,,,,,,,,,,,,,,,,,,,,,
,,,,,,3,0,3,0,1,X V Q F H G B L J M P D K C T S W R N Z,5f6e0be76cea482e27d38c95,21,Mężczyzna,2022-06-25_15h32.49.617,task,2021.1.4,Win32,143.8021283,6299f149e92ead563fba08ef,62b70e44376dedcfaf3f02d8,,,,,,,,,,,,,,,,,,,,,,,,,,,,,,,,,,,,,,,,,,,,,,,,,,,,,,,,,,,,,,,,,,,,,,,,,,,,,,,,,,,,,,,,,,,,,,,,,,,,,
,,,,,,4,0,4,0,1,X V Q F H G B L J M P D K C T S W R N Z,5f6e0be76cea482e27d38c95,21,Mężczyzna,2022-06-25_15h32.49.617,task,2021.1.4,Win32,143.8021283,6299f149e92ead563fba08ef,62b70e44376dedcfaf3f02d8,,,,,,,,,,,,,,,,,,,,,,,,,,,,,,,,,,,,,,,,,,,,,,,,,,,,,,,,,,,,,,,,,,,,,,,,,,,,,,,,,,,,,,,,,,,,,,,,,,,,,
,,,,,,5,0,5,0,1,X V Q F H G B L J M P D K C T S W R N Z,5f6e0be76cea482e27d38c95,21,Mężczyzna,2022-06-25_15h32.49.617,task,2021.1.4,Win32,143.8021283,6299f149e92ead563fba08ef,62b70e44376dedcfaf3f02d8,,,,,,,,,,,,,,,,,,,,,,,,,,,,,,,,,,,,,,,,,,,,,,,,,,,,,,,,,,,,,,,,,,,,,,,,,,,,,,,,,,,,,,,,,,,,,,,,,,,,,
,,,,,,,,,,,,5f6e0be76cea482e27d38c95,21,Mężczyzna,2022-06-25_15h32.49.617,task,2021.1.4,Win32,143.8021283,6299f149e92ead563fba08ef,62b70e44376dedcfaf3f02d8,nxvhzb,"[""n"",""x"",""v"",""h"",""z"",""b""]","[0.5317999999523124,1.005899999976151,1.4333999999761602,1.7983999999761409,2.4762999999523174,2.6481999999880657,3.2641999999880795]",1,NXVHZB,8,0,8,0,1,,,,,,,,,,,,,,,,,,,,,,,,,,,,,,,,,,,,,,,,,,,,,,,,,,,,,,,,,,,,,,,,,,,,,,,,,,,,,,,,,,,,,,,,,,,
,,,,,,0,0,0,0,1,X V Q F H G B L J M P D K C T S W R N Z,5f6e0be76cea482e27d38c95,21,Mężczyzna,2022-06-25_15h32.49.617,task,2021.1.4,Win32,143.8021283,6299f149e92ead563fba08ef,62b70e44376dedcfaf3f02d8,,,,,,,,,,,,,,,,,,,,,,,,,,,,,,,,,,,,,,,,,,,,,,,,,,,,,,,,,,,,,,,,,,,,,,,,,,,,,,,,,,,,,,,,,,,,,,,,,,,,,
,,,,,,1,0,1,0,1,X V Q F H G B L J M P D K C T S W R N Z,5f6e0be76cea482e27d38c95,21,Mężczyzna,2022-06-25_15h32.49.617,task,2021.1.4,Win32,143.8021283,6299f149e92ead563fba08ef,62b70e44376dedcfaf3f02d8,,,,,,,,,,,,,,,,,,,,,,,,,,,,,,,,,,,,,,,,,,,,,,,,,,,,,,,,,,,,,,,,,,,,,,,,,,,,,,,,,,,,,,,,,,,,,,,,,,,,,
,,,,,,2,0,2,0,1,X V Q F H G B L J M P D K C T S W R N Z,5f6e0be76cea482e27d38c95,21,Mężczyzna,2022-06-25_15h32.49.617,task,2021.1.4,Win32,143.8021283,6299f149e92ead563fba08ef,62b70e44376dedcfaf3f02d8,,,,,,,,,,,,,,,,,,,,,,,,,,,,,,,,,,,,,,,,,,,,,,,,,,,,,,,,,,,,,,,,,,,,,,,,,,,,,,,,,,,,,,,,,,,,,,,,,,,,,
,,,,,,3,0,3,0,1,X V Q F H G B L J M P D K C T S W R N Z,5f6e0be76cea482e27d38c95,21,Mężczyzna,2022-06-25_15h32.49.617,task,2021.1.4,Win32,143.8021283,6299f149e92ead563fba08ef,62b70e44376dedcfaf3f02d8,,,,,,,,,,,,,,,,,,,,,,,,,,,,,,,,,,,,,,,,,,,,,,,,,,,,,,,,,,,,,,,,,,,,,,,,,,,,,,,,,,,,,,,,,,,,,,,,,,,,,
,,,,,,4,0,4,0,1,X V Q F H G B L J M P D K C T S W R N Z,5f6e0be76cea482e27d38c95,21,Mężczyzna,2022-06-25_15h32.49.617,task,2021.1.4,Win32,143.8021283,6299f149e92ead563fba08ef,62b70e44376dedcfaf3f02d8,,,,,,,,,,,,,,,,,,,,,,,,,,,,,,,,,,,,,,,,,,,,,,,,,,,,,,,,,,,,,,,,,,,,,,,,,,,,,,,,,,,,,,,,,,,,,,,,,,,,,
,,,,,,5,0,5,0,1,X V Q F H G B L J M P D K C T S W R N Z,5f6e0be76cea482e27d38c95,21,Mężczyzna,2022-06-25_15h32.49.617,task,2021.1.4,Win32,143.8021283,6299f149e92ead563fba08ef,62b70e44376dedcfaf3f02d8,,,,,,,,,,,,,,,,,,,,,,,,,,,,,,,,,,,,,,,,,,,,,,,,,,,,,,,,,,,,,,,,,,,,,,,,,,,,,,,,,,,,,,,,,,,,,,,,,,,,,
,,,,,,,,,,,,5f6e0be76cea482e27d38c95,21,Mężczyzna,2022-06-25_15h32.49.617,task,2021.1.4,Win32,143.8021283,6299f149e92ead563fba08ef,62b70e44376dedcfaf3f02d8,ggrccm,"[""g"",""g"",""r"",""c"",""c"",""m""]","[1.420100000023865,2.058900000035777,3.2290000000000134,3.9759000000357787,4.29020000004769,4.779900000035781,5.635900000035775]",1,GGRCCM,9,0,9,0,1,,,,,,,,,,,,,,,,,,,,,,,,,,,,,,,,,,,,,,,,,,,,,,,,,,,,,,,,,,,,,,,,,,,,,,,,,,,,,,,,,,,,,,,,,,,
,,,,,,0,0,0,0,1,X V Q F H G B L J M P D K C T S W R N Z,5f6e0be76cea482e27d38c95,21,Mężczyzna,2022-06-25_15h32.49.617,task,2021.1.4,Win32,143.8021283,6299f149e92ead563fba08ef,62b70e44376dedcfaf3f02d8,,,,,,,,,,,,,,,,,,,,,,,,,,,,,,,,,,,,,,,,,,,,,,,,,,,,,,,,,,,,,,,,,,,,,,,,,,,,,,,,,,,,,,,,,,,,,,,,,,,,,
,,,,,,1,0,1,0,1,X V Q F H G B L J M P D K C T S W R N Z,5f6e0be76cea482e27d38c95,21,Mężczyzna,2022-06-25_15h32.49.617,task,2021.1.4,Win32,143.8021283,6299f149e92ead563fba08ef,62b70e44376dedcfaf3f02d8,,,,,,,,,,,,,,,,,,,,,,,,,,,,,,,,,,,,,,,,,,,,,,,,,,,,,,,,,,,,,,,,,,,,,,,,,,,,,,,,,,,,,,,,,,,,,,,,,,,,,
,,,,,,2,0,2,0,1,X V Q F H G B L J M P D K C T S W R N Z,5f6e0be76cea482e27d38c95,21,Mężczyzna,2022-06-25_15h32.49.617,task,2021.1.4,Win32,143.8021283,6299f149e92ead563fba08ef,62b70e44376dedcfaf3f02d8,,,,,,,,,,,,,,,,,,,,,,,,,,,,,,,,,,,,,,,,,,,,,,,,,,,,,,,,,,,,,,,,,,,,,,,,,,,,,,,,,,,,,,,,,,,,,,,,,,,,,
,,,,,,3,0,3,0,1,X V Q F H G B L J M P D K C T S W R N Z,5f6e0be76cea482e27d38c95,21,Mężczyzna,2022-06-25_15h32.49.617,task,2021.1.4,Win32,143.8021283,6299f149e92ead563fba08ef,62b70e44376dedcfaf3f02d8,,,,,,,,,,,,,,,,,,,,,,,,,,,,,,,,,,,,,,,,,,,,,,,,,,,,,,,,,,,,,,,,,,,,,,,,,,,,,,,,,,,,,,,,,,,,,,,,,,,,,
,,,,,,4,0,4,0,1,X V Q F H G B L J M P D K C T S W R N Z,5f6e0be76cea482e27d38c95,21,Mężczyzna,2022-06-25_15h32.49.617,task,2021.1.4,Win32,143.8021283,6299f149e92ead563fba08ef,62b70e44376dedcfaf3f02d8,,,,,,,,,,,,,,,,,,,,,,,,,,,,,,,,,,,,,,,,,,,,,,,,,,,,,,,,,,,,,,,,,,,,,,,,,,,,,,,,,,,,,,,,,,,,,,,,,,,,,
,,,,,,5,0,5,0,1,X V Q F H G B L J M P D K C T S W R N Z,5f6e0be76cea482e27d38c95,21,Mężczyzna,2022-06-25_15h32.49.617,task,2021.1.4,Win32,143.8021283,6299f149e92ead563fba08ef,62b70e44376dedcfaf3f02d8,,,,,,,,,,,,,,,,,,,,,,,,,,,,,,,,,,,,,,,,,,,,,,,,,,,,,,,,,,,,,,,,,,,,,,,,,,,,,,,,,,,,,,,,,,,,,,,,,,,,,
,,,,,,6,0,6,0,1,X V Q F H G B L J M P D K C T S W R N Z,5f6e0be76cea482e27d38c95,21,Mężczyzna,2022-06-25_15h32.49.617,task,2021.1.4,Win32,143.8021283,6299f149e92ead563fba08ef,62b70e44376dedcfaf3f02d8,,,,,,,,,,,,,,,,,,,,,,,,,,,,,,,,,,,,,,,,,,,,,,,,,,,,,,,,,,,,,,,,,,,,,,,,,,,,,,,,,,,,,,,,,,,,,,,,,,,,,
,,,,,,,,,,,,5f6e0be76cea482e27d38c95,21,Mężczyzna,2022-06-25_15h32.49.617,task,2021.1.4,Win32,143.8021283,6299f149e92ead563fba08ef,62b70e44376dedcfaf3f02d8,fclcdfh,"[""f"",""c"",""l"",""c"",""d"",""f"",""h""]","[1.9058999999761568,2.1793999999761695,2.6237999999523254,3.2120000000000175,3.8846999999881007,4.089699999988085,4.409699999988078,4.922799999952332]",0,LCFCDLH,10,0,10,0,1,,,,,,,,,,,,,,,,,,,,,,,,,,,,,,,,,,,,,,,,,,,,,,,,,,,,,,,,,,,,,,,,,,,,,,,,,,,,,,,,,,,,,,,,,,,
,,,,,,0,0,0,0,1,X V Q F H G B L J M P D K C T S W R N Z,5f6e0be76cea482e27d38c95,21,Mężczyzna,2022-06-25_15h32.49.617,task,2021.1.4,Win32,143.8021283,6299f149e92ead563fba08ef,62b70e44376dedcfaf3f02d8,,,,,,,,,,,,,,,,,,,,,,,,,,,,,,,,,,,,,,,,,,,,,,,,,,,,,,,,,,,,,,,,,,,,,,,,,,,,,,,,,,,,,,,,,,,,,,,,,,,,,
,,,,,,1,0,1,0,1,X V Q F H G B L J M P D K C T S W R N Z,5f6e0be76cea482e27d38c95,21,Mężczyzna,2022-06-25_15h32.49.617,task,2021.1.4,Win32,143.8021283,6299f149e92ead563fba08ef,62b70e44376dedcfaf3f02d8,,,,,,,,,,,,,,,,,,,,,,,,,,,,,,,,,,,,,,,,,,,,,,,,,,,,,,,,,,,,,,,,,,,,,,,,,,,,,,,,,,,,,,,,,,,,,,,,,,,,,
,,,,,,2,0,2,0,1,X V Q F H G B L J M P D K C T S W R N Z,5f6e0be76cea482e27d38c95,21,Mężczyzna,2022-06-25_15h32.49.617,task,2021.1.4,Win32,143.8021283,6299f149e92ead563fba08ef,62b70e44376dedcfaf3f02d8,,,,,,,,,,,,,,,,,,,,,,,,,,,,,,,,,,,,,,,,,,,,,,,,,,,,,,,,,,,,,,,,,,,,,,,,,,,,,,,,,,,,,,,,,,,,,,,,,,,,,
,,,,,,3,0,3,0,1,X V Q F H G B L J M P D K C T S W R N Z,5f6e0be76cea482e27d38c95,21,Mężczyzna,2022-06-25_15h32.49.617,task,2021.1.4,Win32,143.8021283,6299f149e92ead563fba08ef,62b70e44376dedcfaf3f02d8,,,,,,,,,,,,,,,,,,,,,,,,,,,,,,,,,,,,,,,,,,,,,,,,,,,,,,,,,,,,,,,,,,,,,,,,,,,,,,,,,,,,,,,,,,,,,,,,,,,,,
,,,,,,4,0,4,0,1,X V Q F H G B L J M P D K C T S W R N Z,5f6e0be76cea482e27d38c95,21,Mężczyzna,2022-06-25_15h32.49.617,task,2021.1.4,Win32,143.8021283,6299f149e92ead563fba08ef,62b70e44376dedcfaf3f02d8,,,,,,,,,,,,,,,,,,,,,,,,,,,,,,,,,,,,,,,,,,,,,,,,,,,,,,,,,,,,,,,,,,,,,,,,,,,,,,,,,,,,,,,,,,,,,,,,,,,,,
,,,,,,5,0,5,0,1,X V Q F H G B L J M P D K C T S W R N Z,5f6e0be76cea482e27d38c95,21,Mężczyzna,2022-06-25_15h32.49.617,task,2021.1.4,Win32,143.8021283,6299f149e92ead563fba08ef,62b70e44376dedcfaf3f02d8,,,,,,,,,,,,,,,,,,,,,,,,,,,,,,,,,,,,,,,,,,,,,,,,,,,,,,,,,,,,,,,,,,,,,,,,,,,,,,,,,,,,,,,,,,,,,,,,,,,,,
,,,,,,6,0,6,0,1,X V Q F H G B L J M P D K C T S W R N Z,5f6e0be76cea482e27d38c95,21,Mężczyzna,2022-06-25_15h32.49.617,task,2021.1.4,Win32,143.8021283,6299f149e92ead563fba08ef,62b70e44376dedcfaf3f02d8,,,,,,,,,,,,,,,,,,,,,,,,,,,,,,,,,,,,,,,,,,,,,,,,,,,,,,,,,,,,,,,,,,,,,,,,,,,,,,,,,,,,,,,,,,,,,,,,,,,,,
,,,,,,,,,,,,5f6e0be76cea482e27d38c95,21,Mężczyzna,2022-06-25_15h32.49.617,task,2021.1.4,Win32,143.8021283,6299f149e92ead563fba08ef,62b70e44376dedcfaf3f02d8,zctrkbn,"[""z"",""c"",""t"",""r"",""k"",""b"",""n""]","[1.7238000000119769,1.9516000000238591,2.283199999988142,2.5566999999880977,2.8819000000357846,3.138600000023871,3.26969999998812,3.788600000023905]",1,ZCTRKBN,11,0,11,0,1,,,,,,,,,,,,,,,,,,,,,,,,,,,,,,,,,,,,,,,,,,,,,,,,,,,,,,,,,,,,,,,,,,,,,,,,,,,,,,,,,,,,,,,,,,,
,,,,,,0,0,0,0,1,X V Q F H G B L J M P D K C T S W R N Z,5f6e0be76cea482e27d38c95,21,Mężczyzna,2022-06-25_15h32.49.617,task,2021.1.4,Win32,143.8021283,6299f149e92ead563fba08ef,62b70e44376dedcfaf3f02d8,,,,,,,,,,,,,,,,,,,,,,,,,,,,,,,,,,,,,,,,,,,,,,,,,,,,,,,,,,,,,,,,,,,,,,,,,,,,,,,,,,,,,,,,,,,,,,,,,,,,,
,,,,,,1,0,1,0,1,X V Q F H G B L J M P D K C T S W R N Z,5f6e0be76cea482e27d38c95,21,Mężczyzna,2022-06-25_15h32.49.617,task,2021.1.4,Win32,143.8021283,6299f149e92ead563fba08ef,62b70e44376dedcfaf3f02d8,,,,,,,,,,,,,,,,,,,,,,,,,,,,,,,,,,,,,,,,,,,,,,,,,,,,,,,,,,,,,,,,,,,,,,,,,,,,,,,,,,,,,,,,,,,,,,,,,,,,,
,,,,,,2,0,2,0,1,X V Q F H G B L J M P D K C T S W R N Z,5f6e0be76cea482e27d38c95,21,Mężczyzna,2022-06-25_15h32.49.617,task,2021.1.4,Win32,143.8021283,6299f149e92ead563fba08ef,62b70e44376dedcfaf3f02d8,,,,,,,,,,,,,,,,,,,,,,,,,,,,,,,,,,,,,,,,,,,,,,,,,,,,,,,,,,,,,,,,,,,,,,,,,,,,,,,,,,,,,,,,,,,,,,,,,,,,,
,,,,,,3,0,3,0,1,X V Q F H G B L J M P D K C T S W R N Z,5f6e0be76cea482e27d38c95,21,Mężczyzna,2022-06-25_15h32.49.617,task,2021.1.4,Win32,143.8021283,6299f149e92ead563fba08ef,62b70e44376dedcfaf3f02d8,,,,,,,,,,,,,,,,,,,,,,,,,,,,,,,,,,,,,,,,,,,,,,,,,,,,,,,,,,,,,,,,,,,,,,,,,,,,,,,,,,,,,,,,,,,,,,,,,,,,,
,,,,,,4,0,4,0,1,X V Q F H G B L J M P D K C T S W R N Z,5f6e0be76cea482e27d38c95,21,Mężczyzna,2022-06-25_15h32.49.617,task,2021.1.4,Win32,143.8021283,6299f149e92ead563fba08ef,62b70e44376dedcfaf3f02d8,,,,,,,,,,,,,,,,,,,,,,,,,,,,,,,,,,,,,,,,,,,,,,,,,,,,,,,,,,,,,,,,,,,,,,,,,,,,,,,,,,,,,,,,,,,,,,,,,,,,,
,,,,,,5,0,5,0,1,X V Q F H G B L J M P D K C T S W R N Z,5f6e0be76cea482e27d38c95,21,Mężczyzna,2022-06-25_15h32.49.617,task,2021.1.4,Win32,143.8021283,6299f149e92ead563fba08ef,62b70e44376dedcfaf3f02d8,,,,,,,,,,,,,,,,,,,,,,,,,,,,,,,,,,,,,,,,,,,,,,,,,,,,,,,,,,,,,,,,,,,,,,,,,,,,,,,,,,,,,,,,,,,,,,,,,,,,,
,,,,,,6,0,6,0,1,X V Q F H G B L J M P D K C T S W R N Z,5f6e0be76cea482e27d38c95,21,Mężczyzna,2022-06-25_15h32.49.617,task,2021.1.4,Win32,143.8021283,6299f149e92ead563fba08ef,62b70e44376dedcfaf3f02d8,,,,,,,,,,,,,,,,,,,,,,,,,,,,,,,,,,,,,,,,,,,,,,,,,,,,,,,,,,,,,,,,,,,,,,,,,,,,,,,,,,,,,,,,,,,,,,,,,,,,,
,,,,,,,,,,,,5f6e0be76cea482e27d38c95,21,Mężczyzna,2022-06-25_15h32.49.617,task,2021.1.4,Win32,143.8021283,6299f149e92ead563fba08ef,62b70e44376dedcfaf3f02d8,nhcqrzn,"[""n"",""h"",""c"",""q"",""r"",""z"",""n""]","[2.0931999999880873,2.9890000000000327,3.718999999999994,4.015000000000043,4.415699999988078,4.961999999999989,5.128000000000043,5.710099999964257]",1,NHCQRZN,12,0,12,0,1,,,,,,,,,,,,,,,,,,,,,,,,,,,,,,,,,,,,,,,,,,,,,,,,,,,,,,,,,,,,,,,,,,,,,,,,,,,,,,,,,,,,,,,,,,,
,,,,,,0,0,0,0,1,X V Q F H G B L J M P D K C T S W R N Z,5f6e0be76cea482e27d38c95,21,Mężczyzna,2022-06-25_15h32.49.617,task,2021.1.4,Win32,143.8021283,6299f149e92ead563fba08ef,62b70e44376dedcfaf3f02d8,,,,,,,,,,,,,,,,,,,,,,,,,,,,,,,,,,,,,,,,,,,,,,,,,,,,,,,,,,,,,,,,,,,,,,,,,,,,,,,,,,,,,,,,,,,,,,,,,,,,,
,,,,,,1,0,1,0,1,X V Q F H G B L J M P D K C T S W R N Z,5f6e0be76cea482e27d38c95,21,Mężczyzna,2022-06-25_15h32.49.617,task,2021.1.4,Win32,143.8021283,6299f149e92ead563fba08ef,62b70e44376dedcfaf3f02d8,,,,,,,,,,,,,,,,,,,,,,,,,,,,,,,,,,,,,,,,,,,,,,,,,,,,,,,,,,,,,,,,,,,,,,,,,,,,,,,,,,,,,,,,,,,,,,,,,,,,,
,,,,,,2,0,2,0,1,X V Q F H G B L J M P D K C T S W R N Z,5f6e0be76cea482e27d38c95,21,Mężczyzna,2022-06-25_15h32.49.617,task,2021.1.4,Win32,143.8021283,6299f149e92ead563fba08ef,62b70e44376dedcfaf3f02d8,,,,,,,,,,,,,,,,,,,,,,,,,,,,,,,,,,,,,,,,,,,,,,,,,,,,,,,,,,,,,,,,,,,,,,,,,,,,,,,,,,,,,,,,,,,,,,,,,,,,,
,,,,,,3,0,3,0,1,X V Q F H G B L J M P D K C T S W R N Z,5f6e0be76cea482e27d38c95,21,Mężczyzna,2022-06-25_15h32.49.617,task,2021.1.4,Win32,143.8021283,6299f149e92ead563fba08ef,62b70e44376dedcfaf3f02d8,,,,,,,,,,,,,,,,,,,,,,,,,,,,,,,,,,,,,,,,,,,,,,,,,,,,,,,,,,,,,,,,,,,,,,,,,,,,,,,,,,,,,,,,,,,,,,,,,,,,,
,,,,,,4,0,4,0,1,X V Q F H G B L J M P D K C T S W R N Z,5f6e0be76cea482e27d38c95,21,Mężczyzna,2022-06-25_15h32.49.617,task,2021.1.4,Win32,143.8021283,6299f149e92ead563fba08ef,62b70e44376dedcfaf3f02d8,,,,,,,,,,,,,,,,,,,,,,,,,,,,,,,,,,,,,,,,,,,,,,,,,,,,,,,,,,,,,,,,,,,,,,,,,,,,,,,,,,,,,,,,,,,,,,,,,,,,,
,,,,,,5,0,5,0,1,X V Q F H G B L J M P D K C T S W R N Z,5f6e0be76cea482e27d38c95,21,Mężczyzna,2022-06-25_15h32.49.617,task,2021.1.4,Win32,143.8021283,6299f149e92ead563fba08ef,62b70e44376dedcfaf3f02d8,,,,,,,,,,,,,,,,,,,,,,,,,,,,,,,,,,,,,,,,,,,,,,,,,,,,,,,,,,,,,,,,,,,,,,,,,,,,,,,,,,,,,,,,,,,,,,,,,,,,,
,,,,,,6,0,6,0,1,X V Q F H G B L J M P D K C T S W R N Z,5f6e0be76cea482e27d38c95,21,Mężczyzna,2022-06-25_15h32.49.617,task,2021.1.4,Win32,143.8021283,6299f149e92ead563fba08ef,62b70e44376dedcfaf3f02d8,,,,,,,,,,,,,,,,,,,,,,,,,,,,,,,,,,,,,,,,,,,,,,,,,,,,,,,,,,,,,,,,,,,,,,,,,,,,,,,,,,,,,,,,,,,,,,,,,,,,,
,,,,,,7,0,7,0,1,X V Q F H G B L J M P D K C T S W R N Z,5f6e0be76cea482e27d38c95,21,Mężczyzna,2022-06-25_15h32.49.617,task,2021.1.4,Win32,143.8021283,6299f149e92ead563fba08ef,62b70e44376dedcfaf3f02d8,,,,,,,,,,,,,,,,,,,,,,,,,,,,,,,,,,,,,,,,,,,,,,,,,,,,,,,,,,,,,,,,,,,,,,,,,,,,,,,,,,,,,,,,,,,,,,,,,,,,,
,,,,,,,,,,,,5f6e0be76cea482e27d38c95,21,Mężczyzna,2022-06-25_15h32.49.617,task,2021.1.4,Win32,143.8021283,6299f149e92ead563fba08ef,62b70e44376dedcfaf3f02d8,lwhlbchk,"[""l"",""w"",""h"",""l"",""b"",""c"",""h"",""k""]","[1.0260000000000105,1.4243000000118968,2.4161999999880663,2.7873000000118964,4.4983999999761295,5.200399999976128,7.253300000011905,7.5613999999761745,7.9093000000119105]",0,LHWLCBKK,13,0,13,0,1,,,,,,,,,,,,,,,,,,,,,,,,,,,,,,,,,,,,,,,,,,,,,,,,,,,,,,,,,,,,,,,,,,,,,,,,,,,,,,,,,,,,,,,,,,,
,,,,,,0,0,0,0,1,X V Q F H G B L J M P D K C T S W R N Z,5f6e0be76cea482e27d38c95,21,Mężczyzna,2022-06-25_15h32.49.617,task,2021.1.4,Win32,143.8021283,6299f149e92ead563fba08ef,62b70e44376dedcfaf3f02d8,,,,,,,,,,,,,,,,,,,,,,,,,,,,,,,,,,,,,,,,,,,,,,,,,,,,,,,,,,,,,,,,,,,,,,,,,,,,,,,,,,,,,,,,,,,,,,,,,,,,,
,,,,,,1,0,1,0,1,X V Q F H G B L J M P D K C T S W R N Z,5f6e0be76cea482e27d38c95,21,Mężczyzna,2022-06-25_15h32.49.617,task,2021.1.4,Win32,143.8021283,6299f149e92ead563fba08ef,62b70e44376dedcfaf3f02d8,,,,,,,,,,,,,,,,,,,,,,,,,,,,,,,,,,,,,,,,,,,,,,,,,,,,,,,,,,,,,,,,,,,,,,,,,,,,,,,,,,,,,,,,,,,,,,,,,,,,,
,,,,,,2,0,2,0,1,X V Q F H G B L J M P D K C T S W R N Z,5f6e0be76cea482e27d38c95,21,Mężczyzna,2022-06-25_15h32.49.617,task,2021.1.4,Win32,143.8021283,6299f149e92ead563fba08ef,62b70e44376dedcfaf3f02d8,,,,,,,,,,,,,,,,,,,,,,,,,,,,,,,,,,,,,,,,,,,,,,,,,,,,,,,,,,,,,,,,,,,,,,,,,,,,,,,,,,,,,,,,,,,,,,,,,,,,,
,,,,,,3,0,3,0,1,X V Q F H G B L J M P D K C T S W R N Z,5f6e0be76cea482e27d38c95,21,Mężczyzna,2022-06-25_15h32.49.617,task,2021.1.4,Win32,143.8021283,6299f149e92ead563fba08ef,62b70e44376dedcfaf3f02d8,,,,,,,,,,,,,,,,,,,,,,,,,,,,,,,,,,,,,,,,,,,,,,,,,,,,,,,,,,,,,,,,,,,,,,,,,,,,,,,,,,,,,,,,,,,,,,,,,,,,,
,,,,,,4,0,4,0,1,X V Q F H G B L J M P D K C T S W R N Z,5f6e0be76cea482e27d38c95,21,Mężczyzna,2022-06-25_15h32.49.617,task,2021.1.4,Win32,143.8021283,6299f149e92ead563fba08ef,62b70e44376dedcfaf3f02d8,,,,,,,,,,,,,,,,,,,,,,,,,,,,,,,,,,,,,,,,,,,,,,,,,,,,,,,,,,,,,,,,,,,,,,,,,,,,,,,,,,,,,,,,,,,,,,,,,,,,,
,,,,,,5,0,5,0,1,X V Q F H G B L J M P D K C T S W R N Z,5f6e0be76cea482e27d38c95,21,Mężczyzna,2022-06-25_15h32.49.617,task,2021.1.4,Win32,143.8021283,6299f149e92ead563fba08ef,62b70e44376dedcfaf3f02d8,,,,,,,,,,,,,,,,,,,,,,,,,,,,,,,,,,,,,,,,,,,,,,,,,,,,,,,,,,,,,,,,,,,,,,,,,,,,,,,,,,,,,,,,,,,,,,,,,,,,,
,,,,,,6,0,6,0,1,X V Q F H G B L J M P D K C T S W R N Z,5f6e0be76cea482e27d38c95,21,Mężczyzna,2022-06-25_15h32.49.617,task,2021.1.4,Win32,143.8021283,6299f149e92ead563fba08ef,62b70e44376dedcfaf3f02d8,,,,,,,,,,,,,,,,,,,,,,,,,,,,,,,,,,,,,,,,,,,,,,,,,,,,,,,,,,,,,,,,,,,,,,,,,,,,,,,,,,,,,,,,,,,,,,,,,,,,,
,,,,,,7,0,7,0,1,X V Q F H G B L J M P D K C T S W R N Z,5f6e0be76cea482e27d38c95,21,Mężczyzna,2022-06-25_15h32.49.617,task,2021.1.4,Win32,143.8021283,6299f149e92ead563fba08ef,62b70e44376dedcfaf3f02d8,,,,,,,,,,,,,,,,,,,,,,,,,,,,,,,,,,,,,,,,,,,,,,,,,,,,,,,,,,,,,,,,,,,,,,,,,,,,,,,,,,,,,,,,,,,,,,,,,,,,,
,,,,,,,,,,,,5f6e0be76cea482e27d38c95,21,Mężczyzna,2022-06-25_15h32.49.617,task,2021.1.4,Win32,143.8021283,6299f149e92ead563fba08ef,62b70e44376dedcfaf3f02d8,rhfbnh,"[""r"",""h"",""f"",""b"",""n"",""h""]","[2.655200000047671,3.1459000000357946,3.5058000000119023,4.446000000000026,4.783300000011934,5.055900000035763,5.672500000000014]",0,RHFHBNHF,14,0,14,0,1,,,,,,,,,,,,,,,,,,,,,,,,,,,,,,,,,,,,,,,,,,,,,,,,,,,,,,,,,,,,,,,,,,,,,,,,,,,,,,,,,,,,,,,,,,,
,,,,,,0,0,0,0,1,X V Q F H G B L J M P D K C T S W R N Z,5f6e0be76cea482e27d38c95,21,Mężczyzna,2022-06-25_15h32.49.617,task,2021.1.4,Win32,143.8021283,6299f149e92ead563fba08ef,62b70e44376dedcfaf3f02d8,,,,,,,,,,,,,,,,,,,,,,,,,,,,,,,,,,,,,,,,,,,,,,,,,,,,,,,,,,,,,,,,,,,,,,,,,,,,,,,,,,,,,,,,,,,,,,,,,,,,,
,,,,,,1,0,1,0,1,X V Q F H G B L J M P D K C T S W R N Z,5f6e0be76cea482e27d38c95,21,Mężczyzna,2022-06-25_15h32.49.617,task,2021.1.4,Win32,143.8021283,6299f149e92ead563fba08ef,62b70e44376dedcfaf3f02d8,,,,,,,,,,,,,,,,,,,,,,,,,,,,,,,,,,,,,,,,,,,,,,,,,,,,,,,,,,,,,,,,,,,,,,,,,,,,,,,,,,,,,,,,,,,,,,,,,,,,,
,,,,,,2,0,2,0,1,X V Q F H G B L J M P D K C T S W R N Z,5f6e0be76cea482e27d38c95,21,Mężczyzna,2022-06-25_15h32.49.617,task,2021.1.4,Win32,143.8021283,6299f149e92ead563fba08ef,62b70e44376dedcfaf3f02d8,,,,,,,,,,,,,,,,,,,,,,,,,,,,,,,,,,,,,,,,,,,,,,,,,,,,,,,,,,,,,,,,,,,,,,,,,,,,,,,,,,,,,,,,,,,,,,,,,,,,,
,,,,,,3,0,3,0,1,X V Q F H G B L J M P D K C T S W R N Z,5f6e0be76cea482e27d38c95,21,Mężczyzna,2022-06-25_15h32.49.617,task,2021.1.4,Win32,143.8021283,6299f149e92ead563fba08ef,62b70e44376dedcfaf3f02d8,,,,,,,,,,,,,,,,,,,,,,,,,,,,,,,,,,,,,,,,,,,,,,,,,,,,,,,,,,,,,,,,,,,,,,,,,,,,,,,,,,,,,,,,,,,,,,,,,,,,,
,,,,,,4,0,4,0,1,X V Q F H G B L J M P D K C T S W R N Z,5f6e0be76cea482e27d38c95,21,Mężczyzna,2022-06-25_15h32.49.617,task,2021.1.4,Win32,143.8021283,6299f149e92ead563fba08ef,62b70e44376dedcfaf3f02d8,,,,,,,,,,,,,,,,,,,,,,,,,,,,,,,,,,,,,,,,,,,,,,,,,,,,,,,,,,,,,,,,,,,,,,,,,,,,,,,,,,,,,,,,,,,,,,,,,,,,,
,,,,,,5,0,5,0,1,X V Q F H G B L J M P D K C T S W R N Z,5f6e0be76cea482e27d38c95,21,Mężczyzna,2022-06-25_15h32.49.617,task,2021.1.4,Win32,143.8021283,6299f149e92ead563fba08ef,62b70e44376dedcfaf3f02d8,,,,,,,,,,,,,,,,,,,,,,,,,,,,,,,,,,,,,,,,,,,,,,,,,,,,,,,,,,,,,,,,,,,,,,,,,,,,,,,,,,,,,,,,,,,,,,,,,,,,,
,,,,,,6,0,6,0,1,X V Q F H G B L J M P D K C T S W R N Z,5f6e0be76cea482e27d38c95,21,Mężczyzna,2022-06-25_15h32.49.617,task,2021.1.4,Win32,143.8021283,6299f149e92ead563fba08ef,62b70e44376dedcfaf3f02d8,,,,,,,,,,,,,,,,,,,,,,,,,,,,,,,,,,,,,,,,,,,,,,,,,,,,,,,,,,,,,,,,,,,,,,,,,,,,,,,,,,,,,,,,,,,,,,,,,,,,,
,,,,,,7,0,7,0,1,X V Q F H G B L J M P D K C T S W R N Z,5f6e0be76cea482e27d38c95,21,Mężczyzna,2022-06-25_15h32.49.617,task,2021.1.4,Win32,143.8021283,6299f149e92ead563fba08ef,62b70e44376dedcfaf3f02d8,,,,,,,,,,,,,,,,,,,,,,,,,,,,,,,,,,,,,,,,,,,,,,,,,,,,,,,,,,,,,,,,,,,,,,,,,,,,,,,,,,,,,,,,,,,,,,,,,,,,,
,,,,,,,,,,,,5f6e0be76cea482e27d38c95,21,Mężczyzna,2022-06-25_15h32.49.617,task,2021.1.4,Win32,143.8021283,6299f149e92ead563fba08ef,62b70e44376dedcfaf3f02d8,xbgjhtfb,"[""x"",""b"",""g"",""j"",""h"",""t"",""f"",""b""]","[0.8916999999880773,1.1471999999880609,1.6321999999880745,1.8891999999880795,2.3915000000000077,2.6190999999642486,3.9021999999880563,4.30219999998809,4.798199999988071]",0,XBGJKTFW,15,0,15,0,1,,,,,,,,,,,,,,,,,,,,,,,,,,,,,,,,,,,,,,,,,,,,,,,,,,,,,,,,,,,,,,,,,,,,,,,,,,,,,,,,,,,,,,,,,,,
,,,,,,,,,,,,5f6e0be76cea482e27d38c95,21,Mężczyzna,2022-06-25_15h32.49.617,task,2021.1.4,Win32,143.8021283,6299f149e92ead563fba08ef,62b70e44376dedcfaf3f02d8,,,,,,,,,,,space,15.2241,8,"[""8""]",1,[4.711899999976197],[4.711899999976197],0,0,0,8,1,Practice,9,(3x3) - 1,8,,,,,,,,,,,,,,,,,,,,,,,,,,,,,,,,,,,,,,,,,,,,,,,,,,,,,,,,,,,,,,,,,,,,,,,,,,,
,,,,,,,,,,,,5f6e0be76cea482e27d38c95,21,Mężczyzna,2022-06-25_15h32.49.617,task,2021.1.4,Win32,143.8021283,6299f149e92ead563fba08ef,62b70e44376dedcfaf3f02d8,,,,,,,,,,,,,3,"[""3""]",1,[4.093899999976145],"[4.711899999976197,4.093899999976145]",0,1,1,3,1,Practice,4,(8/4) + 1,3,,,,,,,,,,,,,,,,,,,,,,,,,,,,,,,,,,,,,,,,,,,,,,,,,,,,,,,,,,,,,,,,,,,,,,,,,,,
,,,,,,,,,,,,5f6e0be76cea482e27d38c95,21,Mężczyzna,2022-06-25_15h32.49.617,task,2021.1.4,Win32,143.8021283,6299f149e92ead563fba08ef,62b70e44376dedcfaf3f02d8,,,,,,,,,,,,,9,"[""9""]",1,[3.220799999952362],"[4.711899999976197,4.093899999976145,3.220799999952362]",0,2,2,9,1,Practice,10,(20/2) - 1,9,,,,,,,,,,,,,,,,,,,,,,,,,,,,,,,,,,,,,,,,,,,,,,,,,,,,,,,,,,,,,,,,,,,,,,,,,,,
,,,,,,,,,,,,5f6e0be76cea482e27d38c95,21,Mężczyzna,2022-06-25_15h32.49.617,task,2021.1.4,Win32,143.8021283,6299f149e92ead563fba08ef,62b70e44376dedcfaf3f02d8,,,,,,,,,,,,,2,"[""2""]",1,[2.9241000000238273],"[4.711899999976197,4.093899999976145,3.220799999952362,2.9241000000238273]",0,3,3,2,1,Practice,3,(4x4) - 14,2,,,,,,,,,,,,,,,,,,,,,,,,,,,,,,,,,,,,,,,,,,,,,,,,,,,,,,,,,,,,,,,,,,,,,,,,,,,
,,,,,,,,,,,,5f6e0be76cea482e27d38c95,21,Mężczyzna,2022-06-25_15h32.49.617,task,2021.1.4,Win32,143.8021283,6299f149e92ead563fba08ef,62b70e44376dedcfaf3f02d8,,,,,,,,,,,,,6,"[""6""]",1,[3.2003999999761845],"[4.711899999976197,4.093899999976145,3.220799999952362,2.9241000000238273,3.2003999999761845]",0,4,4,6,1,Practice,7,(25/5) + 1,6,,,,,,,,,,,,,,,,,,,,,,,,,,,,,,,,,,,,,,,,,,,,,,,,,,,,,,,,,,,,,,,,,,,,,,,,,,,
,,,,,,,,,,,,5f6e0be76cea482e27d38c95,21,Mężczyzna,2022-06-25_15h32.49.617,task,2021.1.4,Win32,143.8021283,6299f149e92ead563fba08ef,62b70e44376dedcfaf3f02d8,,,,,,,,,,,,,4,"[""4""]",1,[4.054800000011937],"[4.711899999976197,4.093899999976145,3.220799999952362,2.9241000000238273,3.2003999999761845,4.054800000011937]",0,5,5,4,1,Practice,5,(2x6) - 8,4,,,,,,,,,,,,,,,,,,,,,,,,,,,,,,,,,,,,,,,,,,,,,,,,,,,,,,,,,,,,,,,,,,,,,,,,,,,
,,,,,,,,,,,,5f6e0be76cea482e27d38c95,21,Mężczyzna,2022-06-25_15h32.49.617,task,2021.1.4,Win32,143.8021283,6299f149e92ead563fba08ef,62b70e44376dedcfaf3f02d8,,,,,,,,,,,,,1,"[""1""]",1,[2.490900000035765],"[4.711899999976197,4.093899999976145,3.220799999952362,2.9241000000238273,3.2003999999761845,4.054800000011937,2.490900000035765]",0,6,6,1,1,Practice,2,(4x4) - 15,1,,,,,,,,,,,,,,,,,,,,,,,,,,,,,,,,,,,,,,,,,,,,,,,,,,,,,,,,,,,,,,,,,,,,,,,,,,,
,,,,,,,,,,,,5f6e0be76cea482e27d38c95,21,Mężczyzna,2022-06-25_15h32.49.617,task,2021.1.4,Win32,143.8021283,6299f149e92ead563fba08ef,62b70e44376dedcfaf3f02d8,,,,,,,,,,,,,8,"[""8""]",0,[2.5438999999761336],"[4.711899999976197,4.093899999976145,3.220799999952362,2.9241000000238273,3.2003999999761845,4.054800000011937,2.490900000035765,2.5438999999761336]",0,7,7,7,1,Practice,8,(5x5) - 18,7,,,,,,,,,,,,,,,,,,,,,,,,,,,,,,,,,,,,,,,,,,,,,,,,,,,,,,,,,,,,,,,,,,,,,,,,,,,
,,,,,,,,,,,,5f6e0be76cea482e27d38c95,21,Mężczyzna,2022-06-25_15h32.49.617,task,2021.1.4,Win32,143.8021283,6299f149e92ead563fba08ef,62b70e44376dedcfaf3f02d8,,,,,,,,,,,,,5,"[""5""]",1,[2.6592999999522817],"[4.711899999976197,4.093899999976145,3.220799999952362,2.9241000000238273,3.2003999999761845,4.054800000011937,2.490900000035765,2.5438999999761336,2.6592999999522817]",0,8,8,5,1,Practice,6,(4/2) + 3,5,,,,,,,,,,,,,,,,,,,,,,,,,,,,,,,,,,,,,,,,,,,,,,,,,,,,,,,,,,,,,,,,,,,,,,,,,,,
,,,,,,,,,,,,5f6e0be76cea482e27d38c95,21,Mężczyzna,2022-06-25_15h32.49.617,task,2021.1.4,Win32,143.8021283,6299f149e92ead563fba08ef,62b70e44376dedcfaf3f02d8,,,,,,,,,,,,,0,"[""0""]",1,[1.8648000000119396],"[4.711899999976197,4.093899999976145,3.220799999952362,2.9241000000238273,3.2003999999761845,4.054800000011937,2.490900000035765,2.5438999999761336,2.6592999999522817,1.8648000000119396]",0,9,9,0,1,Practice,1,(3x3) -  9,0,,,,,,,,,,,,,,,,,,,,,,,,,,,,,,,,,,,,,,,,,,,,,,,,,,,,,,,,,,,,,,,,,,,,,,,,,,,
,,,,,,,,,,,,5f6e0be76cea482e27d38c95,21,Mężczyzna,2022-06-25_15h32.49.617,task,2021.1.4,Win32,143.8021283,6299f149e92ead563fba08ef,62b70e44376dedcfaf3f02d8,,,,,,,,,,,,,,,,,,,,,,,,,,,0.9,31.7648,2.117653333,18.10614822,1.098670354,4.952222848,space,1.8174,0,0,0,0,1,,,,,,,,,,,,,,,,,,,,,,,,,,,,,,,,,,,,,,,,,,,,,,,,,,,,,,,,,,,,,,
,,,,,,,,,,,,5f6e0be76cea482e27d38c95,21,Mężczyzna,2022-06-25_15h32.49.617,task,2021.1.4,Win32,143.8021283,6299f149e92ead563fba08ef,62b70e44376dedcfaf3f02d8,,,,,,,,,,,,,7,,,,,,,,,,Practice,8,(5x5) - 18,7,,,,,,,,,,,,,,space,25.8963,"[""7""]",1,[3.2286999999880663],1,0,0,0,7,1,,,,,,,,,,,,,,,,,,,,,,,,,,,,,,,,,,,,,,,,,,,,,,,,,,,
,,,,,,,,,,,X V Q F H G B L J M P D K C T S W R N Z,5f6e0be76cea482e27d38c95,21,Mężczyzna,2022-06-25_15h32.49.617,task,2021.1.4,Win32,143.8021283,6299f149e92ead563fba08ef,62b70e44376dedcfaf3f02d8,,,,,,,,,,,,,,,,,,,,,,,,,,,,,,,,,,,,,,,,,,,,,,,,,,,0,0,0,0,1,,,,,,,,,,,,,,,,,,,,,,,,,,,,,,,,,,,,,,,,,,,,,,
,,,,,,,,,,,,5f6e0be76cea482e27d38c95,21,Mężczyzna,2022-06-25_15h32.49.617,task,2021.1.4,Win32,143.8021283,6299f149e92ead563fba08ef,62b70e44376dedcfaf3f02d8,,,,,,,,,,,,,9,,,,,,,,,,Practice,10,(20/2) - 1,9,,,,,,,,,,,,,,,,"[""9""]",1,[2.7283999999761477],1,0,0,0,9,1,,,,,,,,,,,,,,,,,,,,,,,,,,,,,,,,,,,,,,,,,,,,,,,,,,,
,,,,,,,,,,,X V Q F H G B L J M P D K C T S W R N Z,5f6e0be76cea482e27d38c95,21,Mężczyzna,2022-06-25_15h32.49.617,task,2021.1.4,Win32,143.8021283,6299f149e92ead563fba08ef,62b70e44376dedcfaf3f02d8,,,,,,,,,,,,,,,,,,,,,,,,,,,,,,,,,,,,,,,,,,,,,,,,,,,1,0,1,0,1,,,,,,,,,,,,,,,,,,,,,,,,,,,,,,,,,,,,,,,,,,,,,,
,,,,,,,,,,,,5f6e0be76cea482e27d38c95,21,Mężczyzna,2022-06-25_15h32.49.617,task,2021.1.4,Win32,143.8021283,6299f149e92ead563fba08ef,62b70e44376dedcfaf3f02d8,,,,,,,,,,,,,,,,,,,,,,,,,,,,,,,,,,,,,,,,,,,,,,,,,,,,,,,,zq,"[""z"",""q""]",0,"[3.125,3.472600000023874,4.94960000002385]",1,0,0,0,0,1,,,,,,,,,,,,,,,,,,,,,,,,,,,,,,,,,,,,
,,,,,,,,,,,,5f6e0be76cea482e27d38c95,21,Mężczyzna,2022-06-25_15h32.49.617,task,2021.1.4,Win32,143.8021283,6299f149e92ead563fba08ef,62b70e44376dedcfaf3f02d8,,,,,,,,,,,,,5,,,,,,,,,,Practice,6,(4/2) + 3,5,,,,,,,,,,,,,,,,"[""5""]",1,[2.290499999999952],1,0,0,0,5,1,,,,,,,,,,,,,,,,,,,,,,,,,,,,,,,,,,,,,,,,,,,,,,,,,,,
,,,,,,,,,,,X V Q F H G B L J M P D K C T S W R N Z,5f6e0be76cea482e27d38c95,21,Mężczyzna,2022-06-25_15h32.49.617,task,2021.1.4,Win32,143.8021283,6299f149e92ead563fba08ef,62b70e44376dedcfaf3f02d8,,,,,,,,,,,,,,,,,,,,,,,,,,,,,,,,,,,,,,,,,,,,,,,,,,,0,0,0,0,1,,,,,,,,,,,,,,,,,,,,,,,,,,,,,,,,,,,,,,,,,,,,,,
,,,,,,,,,,,,5f6e0be76cea482e27d38c95,21,Mężczyzna,2022-06-25_15h32.49.617,task,2021.1.4,Win32,143.8021283,6299f149e92ead563fba08ef,62b70e44376dedcfaf3f02d8,,,,,,,,,,,,,2,,,,,,,,,,Practice,3,(4x4) - 14,2,,,,,,,,,,,,,,,,"[""2""]",1,[1.9569999999999936],1,0,0,0,2,1,,,,,,,,,,,,,,,,,,,,,,,,,,,,,,,,,,,,,,,,,,,,,,,,,,,
,,,,,,,,,,,X V Q F H G B L J M P D K C T S W R N Z,5f6e0be76cea482e27d38c95,21,Mężczyzna,2022-06-25_15h32.49.617,task,2021.1.4,Win32,143.8021283,6299f149e92ead563fba08ef,62b70e44376dedcfaf3f02d8,,,,,,,,,,,,,,,,,,,,,,,,,,,,,,,,,,,,,,,,,,,,,,,,,,,1,0,1,0,1,,,,,,,,,,,,,,,,,,,,,,,,,,,,,,,,,,,,,,,,,,,,,,
,,,,,,,,,,,,5f6e0be76cea482e27d38c95,21,Mężczyzna,2022-06-25_15h32.49.617,task,2021.1.4,Win32,143.8021283,6299f149e92ead563fba08ef,62b70e44376dedcfaf3f02d8,,,,,,,,,,,,,,,,,,,,,,,,,,,,,,,,,,,,,,,,,,,,,,,,,,,,,,,,gd,"[""g"",""d""]",0,"[3.0379000000357905,3.348300000011932,4.538900000035767]",1,1,0,1,0,1,,,,,,,,,,,,,,,,,,,,,,,,,,,,,,,,,,,,
,,,,,,,,,,,,5f6e0be76cea482e27d38c95,21,Mężczyzna,2022-06-25_15h32.49.617,task,2021.1.4,Win32,143.8021283,6299f149e92ead563fba08ef,62b70e44376dedcfaf3f02d8,,,,,,,,,,,,,9,,,,,,,,,,Practice,10,(20/2) - 1,9,,,,,,,,,,,,,,,,"[""9""]",1,[1.9936000000238323],1,0,0,0,9,1,,,,,,,,,,,,,,,,,,,,,,,,,,,,,,,,,,,,,,,,,,,,,,,,,,,
,,,,,,,,,,,X V Q F H G B L J M P D K C T S W R N Z,5f6e0be76cea482e27d38c95,21,Mężczyzna,2022-06-25_15h32.49.617,task,2021.1.4,Win32,143.8021283,6299f149e92ead563fba08ef,62b70e44376dedcfaf3f02d8,,,,,,,,,,,,,,,,,,,,,,,,,,,,,,,,,,,,,,,,,,,,,,,,,,,0,0,0,0,1,,,,,,,,,,,,,,,,,,,,,,,,,,,,,,,,,,,,,,,,,,,,,,
,,,,,,,,,,,,5f6e0be76cea482e27d38c95,21,Mężczyzna,2022-06-25_15h32.49.617,task,2021.1.4,Win32,143.8021283,6299f149e92ead563fba08ef,62b70e44376dedcfaf3f02d8,,,,,,,,,,,,,2,,,,,,,,,,Practice,3,(4x4) - 14,2,,,,,,,,,,,,,,,,"[""2""]",1,[2.2395999999642413],1,0,0,0,2,1,,,,,,,,,,,,,,,,,,,,,,,,,,,,,,,,,,,,,,,,,,,,,,,,,,,
,,,,,,,,,,,X V Q F H G B L J M P D K C T S W R N Z,5f6e0be76cea482e27d38c95,21,Mężczyzna,2022-06-25_15h32.49.617,task,2021.1.4,Win32,143.8021283,6299f149e92ead563fba08ef,62b70e44376dedcfaf3f02d8,,,,,,,,,,,,,,,,,,,,,,,,,,,,,,,,,,,,,,,,,,,,,,,,,,,1,0,1,0,1,,,,,,,,,,,,,,,,,,,,,,,,,,,,,,,,,,,,,,,,,,,,,,
,,,,,,,,,,,,5f6e0be76cea482e27d38c95,21,Mężczyzna,2022-06-25_15h32.49.617,task,2021.1.4,Win32,143.8021283,6299f149e92ead563fba08ef,62b70e44376dedcfaf3f02d8,,,,,,,,,,,,,,,,,,,,,,,,,,,,,,,,,,,,,,,,,,,,,,,,,,,,,,,,pj,"[""p"",""j""]",0,"[4.7592999999523045,5.826299999952312,6.562199999988081]",1,2,0,2,0,1,,,,,,,,,,,,,,,,,,,,,,,,,,,,,,,,,,,,
,,,,,,,,,,,,5f6e0be76cea482e27d38c95,21,Mężczyzna,2022-06-25_15h32.49.617,task,2021.1.4,Win32,143.8021283,6299f149e92ead563fba08ef,62b70e44376dedcfaf3f02d8,,,,,,,,,,,,,3,,,,,,,,,,Task,35,(1x2) + 1,3,,,,,,,,,,,,,,,,,,,1,,,,,,,,,,,,,,,,,,,,,space,26.1703,"[""3""]",1,[2.6216999999880954],0,0,0,34,1,,,,,,,,,,,,,,,,,,,,,,,,,,
,,,,,,,,,,,X V Q F H G B L J M P D K C T S W R N Z,5f6e0be76cea482e27d38c95,21,Mężczyzna,2022-06-25_15h32.49.617,task,2021.1.4,Win32,143.8021283,6299f149e92ead563fba08ef,62b70e44376dedcfaf3f02d8,,,,,,,,,,,,,,,,,,,,,,,,,,,,,,,,,,,,,,,,,,,,,,,,,,,,,,,,,,,,,,,,,,,,,,,,,,,,0,0,0,0,1,,,,,,,,,,,,,,,,,,,,,
,,,,,,,,,,,,5f6e0be76cea482e27d38c95,21,Mężczyzna,2022-06-25_15h32.49.617,task,2021.1.4,Win32,143.8021283,6299f149e92ead563fba08ef,62b70e44376dedcfaf3f02d8,,,,,,,,,,,,,6,,,,,,,,,,Task,37,(3/3) + 5,6,,,,,,,,,,,,,,,,,,,1,,,,,,,,,,,,,,,,,,,,,,,"[""6""]",1,[3.8545999999642504],0,0,0,36,1,,,,,,,,,,,,,,,,,,,,,,,,,,
,,,,,,,,,,,X V Q F H G B L J M P D K C T S W R N Z,5f6e0be76cea482e27d38c95,21,Mężczyzna,2022-06-25_15h32.49.617,task,2021.1.4,Win32,143.8021283,6299f149e92ead563fba08ef,62b70e44376dedcfaf3f02d8,,,,,,,,,,,,,,,,,,,,,,,,,,,,,,,,,,,,,,,,,,,,,,,,,,,,,,,,,,,,,,,,,,,,,,,,,,,,1,0,1,0,1,,,,,,,,,,,,,,,,,,,,,
,,,,,,,,,,,,5f6e0be76cea482e27d38c95,21,Mężczyzna,2022-06-25_15h32.49.617,task,2021.1.4,Win32,143.8021283,6299f149e92ead563fba08ef,62b70e44376dedcfaf3f02d8,,,,,,,,,,,,,,,,,,,,,,,,,,,,,,,,,,,,,,,,,,,,,,,,,,,,,,,,,,,,,,,,,,,,,,,,,,,,,,,,,zc,"[""z"",""c""]",0,"[2.8755999999642086,3.1605999999642904,3.9600999999642568]",1,ZC,0,0,0,0,1,,,,,,,,,,
,,,,,,,,,,,,5f6e0be76cea482e27d38c95,21,Mężczyzna,2022-06-25_15h32.49.617,task,2021.1.4,Win32,143.8021283,6299f149e92ead563fba08ef,62b70e44376dedcfaf3f02d8,,,,,,,,,,,,,,,,,,,,,,,Task,13,(3x4) - 6,6,,,,,,,,,,,,,,,,,,,0,,,,,,,,,,,,,,,,,,,,,,,,0,,0,0,0,12,1,,,,,,,,,,,,,,,,,,,,,,,,,,
,,,,,,,,,,,,5f6e0be76cea482e27d38c95,21,Mężczyzna,2022-06-25_15h32.49.617,task,2021.1.4,Win32,143.8021283,6299f149e92ead563fba08ef,62b70e44376dedcfaf3f02d8,,,,,,,,,,,,,3,,,,,,,,,,Task,20,(18/9) + 1,3,,,,,,,,,,,,,,,,,,,1,,,,,,,,,,,,,,,,,,,,,,,"[""3""]",1,[4.346099999964281],0,1,1,19,1,,,,,,,,,,,,,,,,,,,,,,,,,,
,,,,,,,,,,,X V Q F H G B L J M P D K C T S W R N Z,5f6e0be76cea482e27d38c95,21,Mężczyzna,2022-06-25_15h32.49.617,task,2021.1.4,Win32,143.8021283,6299f149e92ead563fba08ef,62b70e44376dedcfaf3f02d8,,,,,,,,,,,,,,,,,,,,,,,,,,,,,,,,,,,,,,,,,,,,,,,,,,,,,,,,,,,,,,,,,,,,,,,,,,,,0,0,0,0,1,,,,,,,,,,,,,,,,,,,,,
,,,,,,,,,,,,5f6e0be76cea482e27d38c95,21,Mężczyzna,2022-06-25_15h32.49.617,task,2021.1.4,Win32,143.8021283,6299f149e92ead563fba08ef,62b70e44376dedcfaf3f02d8,,,,,,,,,,,,,,,,,,,,,,,Task,22,(3x1) + 2,5,,,,,,,,,,,,,,,,,,,0,,,,,,,,,,,,,,,,,,,,,,,,0,,0,0,0,21,1,,,,,,,,,,,,,,,,,,,,,,,,,,
,,,,,,,,,,,,5f6e0be76cea482e27d38c95,21,Mężczyzna,2022-06-25_15h32.49.617,task,2021.1.4,Win32,143.8021283,6299f149e92ead563fba08ef,62b70e44376dedcfaf3f02d8,,,,,,,,,,,,,5,,,,,,,,,,Task,36,(8/4) + 3,5,,,,,,,,,,,,,,,,,,,1,,,,,,,,,,,,,,,,,,,,,,,"[""5""]",1,[2.5841999999880727],0,1,1,35,1,,,,,,,,,,,,,,,,,,,,,,,,,,
,,,,,,,,,,,X V Q F H G B L J M P D K C T S W R N Z,5f6e0be76cea482e27d38c95,21,Mężczyzna,2022-06-25_15h32.49.617,task,2021.1.4,Win32,143.8021283,6299f149e92ead563fba08ef,62b70e44376dedcfaf3f02d8,,,,,,,,,,,,,,,,,,,,,,,,,,,,,,,,,,,,,,,,,,,,,,,,,,,,,,,,,,,,,,,,,,,,,,,,,,,,1,0,1,0,1,,,,,,,,,,,,,,,,,,,,,
,,,,,,,,,,,,5f6e0be76cea482e27d38c95,21,Mężczyzna,2022-06-25_15h32.49.617,task,2021.1.4,Win32,143.8021283,6299f149e92ead563fba08ef,62b70e44376dedcfaf3f02d8,,,,,,,,,,,,,1,,,,,,,,,,Task,9,(3x7) - 20,1,,,,,,,,,,,,,,,,,,,1,,,,,,,,,,,,,,,,,,,,,,,"[""1""]",1,[3.925199999988081],0,0,0,8,1,,,,,,,,,,,,,,,,,,,,,,,,,,
,,,,,,,,,,,X V Q F H G B L J M P D K C T S W R N Z,5f6e0be76cea482e27d38c95,21,Mężczyzna,2022-06-25_15h32.49.617,task,2021.1.4,Win32,143.8021283,6299f149e92ead563fba08ef,62b70e44376dedcfaf3f02d8,,,,,,,,,,,,,,,,,,,,,,,,,,,,,,,,,,,,,,,,,,,,,,,,,,,,,,,,,,,,,,,,,,,,,,,,,,,,2,0,2,0,1,,,,,,,,,,,,,,,,,,,,,
,,,,,,,,,,,,5f6e0be76cea482e27d38c95,21,Mężczyzna,2022-06-25_15h32.49.617,task,2021.1.4,Win32,143.8021283,6299f149e92ead563fba08ef,62b70e44376dedcfaf3f02d8,,,,,,,,,,,,,,,,,,,,,,,,,,,,,,,,,,,,,,,,,,,,,,,,,,,,,,,,,,,,,,,,,,,,,,,,,,,,,,,,,glh,"[""g"",""l"",""h""]",0,"[2.4543999999762036,3.778399999976159,4.104300000011904,6.419499999999971]",1,GLH,1,0,1,0,1,,,,,,,,,,
,,,,,,,,,,,,5f6e0be76cea482e27d38c95,21,Mężczyzna,2022-06-25_15h32.49.617,task,2021.1.4,Win32,143.8021283,6299f149e92ead563fba08ef,62b70e44376dedcfaf3f02d8,,,,,,,,,,,,,,,,,,,,,,,Task,15,(3x7) - 13,8,,,,,,,,,,,,,,,,,,,0,,,,,,,,,,,,,,,,,,,,,,,,0,,0,0,0,14,1,,,,,,,,,,,,,,,,,,,,,,,,,,
,,,,,,,,,,,,5f6e0be76cea482e27d38c95,21,Mężczyzna,2022-06-25_15h32.49.617,task,2021.1.4,Win32,143.8021283,6299f149e92ead563fba08ef,62b70e44376dedcfaf3f02d8,,,,,,,,,,,,,0,,,,,,,,,,Task,33,(1/1) - 1,0,,,,,,,,,,,,,,,,,,,1,,,,,,,,,,,,,,,,,,,,,,,"[""0""]",1,[2.084300000011922],0,1,1,32,1,,,,,,,,,,,,,,,,,,,,,,,,,,
,,,,,,,,,,,X V Q F H G B L J M P D K C T S W R N Z,5f6e0be76cea482e27d38c95,21,Mężczyzna,2022-06-25_15h32.49.617,task,2021.1.4,Win32,143.8021283,6299f149e92ead563fba08ef,62b70e44376dedcfaf3f02d8,,,,,,,,,,,,,,,,,,,,,,,,,,,,,,,,,,,,,,,,,,,,,,,,,,,,,,,,,,,,,,,,,,,,,,,,,,,,0,0,0,0,1,,,,,,,,,,,,,,,,,,,,,
,,,,,,,,,,,,5f6e0be76cea482e27d38c95,21,Mężczyzna,2022-06-25_15h32.49.617,task,2021.1.4,Win32,143.8021283,6299f149e92ead563fba08ef,62b70e44376dedcfaf3f02d8,,,,,,,,,,,,,,,,,,,,,,,Task,1,(12/6) - 1,1,,,,,,,,,,,,,,,,,,,0,,,,,,,,,,,,,,,,,,,,,,,,0,,0,0,0,0,1,,,,,,,,,,,,,,,,,,,,,,,,,,
,,,,,,,,,,,,5f6e0be76cea482e27d38c95,21,Mężczyzna,2022-06-25_15h32.49.617,task,2021.1.4,Win32,143.8021283,6299f149e92ead563fba08ef,62b70e44376dedcfaf3f02d8,,,,,,,,,,,,,9,,,,,,,,,,Task,40,(7x2) - 5,9,,,,,,,,,,,,,,,,,,,1,,,,,,,,,,,,,,,,,,,,,,,"[""9""]",1,[2.4070999999642027],0,1,1,39,1,,,,,,,,,,,,,,,,,,,,,,,,,,
,,,,,,,,,,,X V Q F H G B L J M P D K C T S W R N Z,5f6e0be76cea482e27d38c95,21,Mężczyzna,2022-06-25_15h32.49.617,task,2021.1.4,Win32,143.8021283,6299f149e92ead563fba08ef,62b70e44376dedcfaf3f02d8,,,,,,,,,,,,,,,,,,,,,,,,,,,,,,,,,,,,,,,,,,,,,,,,,,,,,,,,,,,,,,,,,,,,,,,,,,,,1,0,1,0,1,,,,,,,,,,,,,,,,,,,,,
,,,,,,,,,,,,5f6e0be76cea482e27d38c95,21,Mężczyzna,2022-06-25_15h32.49.617,task,2021.1.4,Win32,143.8021283,6299f149e92ead563fba08ef,62b70e44376dedcfaf3f02d8,,,,,,,,,,,,,7,,,,,,,,,,Task,6,(12/2) + 1,7,,,,,,,,,,,,,,,,,,,1,,,,,,,,,,,,,,,,,,,,,,,"[""7""]",1,[4.075699999988046],0,0,0,5,1,,,,,,,,,,,,,,,,,,,,,,,,,,
,,,,,,,,,,,X V Q F H G B L J M P D K C T S W R N Z,5f6e0be76cea482e27d38c95,21,Mężczyzna,2022-06-25_15h32.49.617,task,2021.1.4,Win32,143.8021283,6299f149e92ead563fba08ef,62b70e44376dedcfaf3f02d8,,,,,,,,,,,,,,,,,,,,,,,,,,,,,,,,,,,,,,,,,,,,,,,,,,,,,,,,,,,,,,,,,,,,,,,,,,,,2,0,2,0,1,,,,,,,,,,,,,,,,,,,,,
,,,,,,,,,,,,5f6e0be76cea482e27d38c95,21,Mężczyzna,2022-06-25_15h32.49.617,task,2021.1.4,Win32,143.8021283,6299f149e92ead563fba08ef,62b70e44376dedcfaf3f02d8,,,,,,,,,,,,,9,,,,,,,,,,Task,24,(2x2) + 5,9,,,,,,,,,,,,,,,,,,,1,,,,,,,,,,,,,,,,,,,,,,,"[""9""]",1,[2.7328000000119346],0,0,0,23,1,,,,,,,,,,,,,,,,,,,,,,,,,,
,,,,,,,,,,,X V Q F H G B L J M P D K C T S W R N Z,5f6e0be76cea482e27d38c95,21,Mężczyzna,2022-06-25_15h32.49.617,task,2021.1.4,Win32,143.8021283,6299f149e92ead563fba08ef,62b70e44376dedcfaf3f02d8,,,,,,,,,,,,,,,,,,,,,,,,,,,,,,,,,,,,,,,,,,,,,,,,,,,,,,,,,,,,,,,,,,,,,,,,,,,,3,0,3,0,1,,,,,,,,,,,,,,,,,,,,,
,,,,,,,,,,,,5f6e0be76cea482e27d38c95,21,Mężczyzna,2022-06-25_15h32.49.617,task,2021.1.4,Win32,143.8021283,6299f149e92ead563fba08ef,62b70e44376dedcfaf3f02d8,,,,,,,,,,,,,,,,,,,,,,,,,,,,,,,,,,,,,,,,,,,,,,,,,,,,,,,,,,,,,,,,,,,,,,,,,,,,,,,,,zsnn,"[""z"",""s"",""n"",""n""]",0,"[1.7659999999999627,2.080000000000041,2.6391999999881364,2.9009999999999536,6.329199999988077]",1,ZSNN,2,0,2,0,1,,,,,,,,,,
,,,,,,,,,,,,5f6e0be76cea482e27d38c95,21,Mężczyzna,2022-06-25_15h32.49.617,task,2021.1.4,Win32,143.8021283,6299f149e92ead563fba08ef,62b70e44376dedcfaf3f02d8,,,,,,,,,,,,,1,,,,,,,,,,Task,34,(9/3) - 2,1,,,,,,,,,,,,,,,,,,,1,,,,,,,,,,,,,,,,,,,,,,,"[""1""]",1,[2.887699999988058],0,0,0,33,1,,,,,,,,,,,,,,,,,,,,,,,,,,
,,,,,,,,,,,X V Q F H G B L J M P D K C T S W R N Z,5f6e0be76cea482e27d38c95,21,Mężczyzna,2022-06-25_15h32.49.617,task,2021.1.4,Win32,143.8021283,6299f149e92ead563fba08ef,62b70e44376dedcfaf3f02d8,,,,,,,,,,,,,,,,,,,,,,,,,,,,,,,,,,,,,,,,,,,,,,,,,,,,,,,,,,,,,,,,,,,,,,,,,,,,0,0,0,0,1,,,,,,,,,,,,,,,,,,,,,
,,,,,,,,,,,,5f6e0be76cea482e27d38c95,21,Mężczyzna,2022-06-25_15h32.49.617,task,2021.1.4,Win32,143.8021283,6299f149e92ead563fba08ef,62b70e44376dedcfaf3f02d8,,,,,,,,,,,,,5,,,,,,,,,,Task,12,(4x4) - 11,5,,,,,,,,,,,,,,,,,,,1,,,,,,,,,,,,,,,,,,,,,,,"[""5""]",1,[2.471499999999992],0,0,0,11,1,,,,,,,,,,,,,,,,,,,,,,,,,,
,,,,,,,,,,,X V Q F H G B L J M P D K C T S W R N Z,5f6e0be76cea482e27d38c95,21,Mężczyzna,2022-06-25_15h32.49.617,task,2021.1.4,Win32,143.8021283,6299f149e92ead563fba08ef,62b70e44376dedcfaf3f02d8,,,,,,,,,,,,,,,,,,,,,,,,,,,,,,,,,,,,,,,,,,,,,,,,,,,,,,,,,,,,,,,,,,,,,,,,,,,,1,0,1,0,1,,,,,,,,,,,,,,,,,,,,,
,,,,,,,,,,,,5f6e0be76cea482e27d38c95,21,Mężczyzna,2022-06-25_15h32.49.617,task,2021.1.4,Win32,143.8021283,6299f149e92ead563fba08ef,62b70e44376dedcfaf3f02d8,,,,,,,,,,,,,7,,,,,,,,,,Task,31,(4/2) + 5,7,,,,,,,,,,,,,,,,,,,1,,,,,,,,,,,,,,,,,,,,,,,"[""7""]",1,[2.680100000023913],0,0,0,30,1,,,,,,,,,,,,,,,,,,,,,,,,,,
,,,,,,,,,,,X V Q F H G B L J M P D K C T S W R N Z,5f6e0be76cea482e27d38c95,21,Mężczyzna,2022-06-25_15h32.49.617,task,2021.1.4,Win32,143.8021283,6299f149e92ead563fba08ef,62b70e44376dedcfaf3f02d8,,,,,,,,,,,,,,,,,,,,,,,,,,,,,,,,,,,,,,,,,,,,,,,,,,,,,,,,,,,,,,,,,,,,,,,,,,,,2,0,2,0,1,,,,,,,,,,,,,,,,,,,,,
,,,,,,,,,,,,5f6e0be76cea482e27d38c95,21,Mężczyzna,2022-06-25_15h32.49.617,task,2021.1.4,Win32,143.8021283,6299f149e92ead563fba08ef,62b70e44376dedcfaf3f02d8,,,,,,,,,,,,,5,,,,,,,,,,Task,12,(4x4) - 11,5,,,,,,,,,,,,,,,,,,,1,,,,,,,,,,,,,,,,,,,,,,,"[""5""]",1,[1.9866000000238273],0,0,0,11,1,,,,,,,,,,,,,,,,,,,,,,,,,,
,,,,,,,,,,,X V Q F H G B L J M P D K C T S W R N Z,5f6e0be76cea482e27d38c95,21,Mężczyzna,2022-06-25_15h32.49.617,task,2021.1.4,Win32,143.8021283,6299f149e92ead563fba08ef,62b70e44376dedcfaf3f02d8,,,,,,,,,,,,,,,,,,,,,,,,,,,,,,,,,,,,,,,,,,,,,,,,,,,,,,,,,,,,,,,,,,,,,,,,,,,,3,0,3,0,1,,,,,,,,,,,,,,,,,,,,,
,,,,,,,,,,,,5f6e0be76cea482e27d38c95,21,Mężczyzna,2022-06-25_15h32.49.617,task,2021.1.4,Win32,143.8021283,6299f149e92ead563fba08ef,62b70e44376dedcfaf3f02d8,,,,,,,,,,,,,3,,,,,,,,,,Task,35,(1x2) + 1,3,,,,,,,,,,,,,,,,,,,1,,,,,,,,,,,,,,,,,,,,,,,"[""3""]",1,[2.734600000023761],0,0,0,34,1,,,,,,,,,,,,,,,,,,,,,,,,,,
,,,,,,,,,,,X V Q F H G B L J M P D K C T S W R N Z,5f6e0be76cea482e27d38c95,21,Mężczyzna,2022-06-25_15h32.49.617,task,2021.1.4,Win32,143.8021283,6299f149e92ead563fba08ef,62b70e44376dedcfaf3f02d8,,,,,,,,,,,,,,,,,,,,,,,,,,,,,,,,,,,,,,,,,,,,,,,,,,,,,,,,,,,,,,,,,,,,,,,,,,,,4,0,4,0,1,,,,,,,,,,,,,,,,,,,,,
,,,,,,,,,,,,5f6e0be76cea482e27d38c95,21,Mężczyzna,2022-06-25_15h32.49.617,task,2021.1.4,Win32,143.8021283,6299f149e92ead563fba08ef,62b70e44376dedcfaf3f02d8,,,,,,,,,,,,,,,,,,,,,,,,,,,,,,,,,,,,,,,,,,,,,,,,,,,,,,,,,,,,,,,,,,,,,,,,,,,,,,,,,xgpl,"[""x"",""g"",""p"",""l""]",0,"[3.7787000000477065,4.120700000047691,6.322800000011966,6.607800000011935,7.25180000001194]",0,XGNPL,3,0,3,0,1,,,,,,,,,,
,,,,,,,,,,,,5f6e0be76cea482e27d38c95,21,Mężczyzna,2022-06-25_15h32.49.617,task,2021.1.4,Win32,143.8021283,6299f149e92ead563fba08ef,62b70e44376dedcfaf3f02d8,,,,,,,,,,,,,,,,,,,,,,,Task,7,(3x7) - 12,9,,,,,,,,,,,,,,,,,,,0,,,,,,,,,,,,,,,,,,,,,,,,0,,0,0,0,6,1,,,,,,,,,,,,,,,,,,,,,,,,,,
,,,,,,,,,,,,5f6e0be76cea482e27d38c95,21,Mężczyzna,2022-06-25_15h32.49.617,task,2021.1.4,Win32,143.8021283,6299f149e92ead563fba08ef,62b70e44376dedcfaf3f02d8,,,,,,,,,,,,,8,,,,,,,,,,Task,32,(8/2) + 4,8,,,,,,,,,,,,,,,,,,,1,,,,,,,,,,,,,,,,,,,,,,,"[""8""]",1,[2.86749999999995],0,1,1,31,1,,,,,,,,,,,,,,,,,,,,,,,,,,
,,,,,,,,,,,X V Q F H G B L J M P D K C T S W R N Z,5f6e0be76cea482e27d38c95,21,Mężczyzna,2022-06-25_15h32.49.617,task,2021.1.4,Win32,143.8021283,6299f149e92ead563fba08ef,62b70e44376dedcfaf3f02d8,,,,,,,,,,,,,,,,,,,,,,,,,,,,,,,,,,,,,,,,,,,,,,,,,,,,,,,,,,,,,,,,,,,,,,,,,,,,0,0,0,0,1,,,,,,,,,,,,,,,,,,,,,
,,,,,,,,,,,,5f6e0be76cea482e27d38c95,21,Mężczyzna,2022-06-25_15h32.49.617,task,2021.1.4,Win32,143.8021283,6299f149e92ead563fba08ef,62b70e44376dedcfaf3f02d8,,,,,,,,,,,,,1,,,,,,,,,,Task,18,(16/4) - 3,1,,,,,,,,,,,,,,,,,,,1,,,,,,,,,,,,,,,,,,,,,,,"[""1""]",1,[3.15840000003584],0,0,0,17,1,,,,,,,,,,,,,,,,,,,,,,,,,,
,,,,,,,,,,,X V Q F H G B L J M P D K C T S W R N Z,5f6e0be76cea482e27d38c95,21,Mężczyzna,2022-06-25_15h32.49.617,task,2021.1.4,Win32,143.8021283,6299f149e92ead563fba08ef,62b70e44376dedcfaf3f02d8,,,,,,,,,,,,,,,,,,,,,,,,,,,,,,,,,,,,,,,,,,,,,,,,,,,,,,,,,,,,,,,,,,,,,,,,,,,,1,0,1,0,1,,,,,,,,,,,,,,,,,,,,,
,,,,,,,,,,,,5f6e0be76cea482e27d38c95,21,Mężczyzna,2022-06-25_15h32.49.617,task,2021.1.4,Win32,143.8021283,6299f149e92ead563fba08ef,62b70e44376dedcfaf3f02d8,,,,,,,,,,,,,4,,,,,,,,,,Task,4,(1x5) - 1,4,,,,,,,,,,,,,,,,,,,1,,,,,,,,,,,,,,,,,,,,,,,"[""4""]",1,[2.5903000000118936],0,0,0,3,1,,,,,,,,,,,,,,,,,,,,,,,,,,
,,,,,,,,,,,X V Q F H G B L J M P D K C T S W R N Z,5f6e0be76cea482e27d38c95,21,Mężczyzna,2022-06-25_15h32.49.617,task,2021.1.4,Win32,143.8021283,6299f149e92ead563fba08ef,62b70e44376dedcfaf3f02d8,,,,,,,,,,,,,,,,,,,,,,,,,,,,,,,,,,,,,,,,,,,,,,,,,,,,,,,,,,,,,,,,,,,,,,,,,,,,2,0,2,0,1,,,,,,,,,,,,,,,,,,,,,
,,,,,,,,,,,,5f6e0be76cea482e27d38c95,21,Mężczyzna,2022-06-25_15h32.49.617,task,2021.1.4,Win32,143.8021283,6299f149e92ead563fba08ef,62b70e44376dedcfaf3f02d8,,,,,,,,,,,,,4,,,,,,,,,,Task,28,(2x5) - 6,4,,,,,,,,,,,,,,,,,,,1,,,,,,,,,,,,,,,,,,,,,,,"[""4""]",1,[1.9266999999880454],0,0,0,27,1,,,,,,,,,,,,,,,,,,,,,,,,,,
,,,,,,,,,,,X V Q F H G B L J M P D K C T S W R N Z,5f6e0be76cea482e27d38c95,21,Mężczyzna,2022-06-25_15h32.49.617,task,2021.1.4,Win32,143.8021283,6299f149e92ead563fba08ef,62b70e44376dedcfaf3f02d8,,,,,,,,,,,,,,,,,,,,,,,,,,,,,,,,,,,,,,,,,,,,,,,,,,,,,,,,,,,,,,,,,,,,,,,,,,,,3,0,3,0,1,,,,,,,,,,,,,,,,,,,,,
,,,,,,,,,,,,5f6e0be76cea482e27d38c95,21,Mężczyzna,2022-06-25_15h32.49.617,task,2021.1.4,Win32,143.8021283,6299f149e92ead563fba08ef,62b70e44376dedcfaf3f02d8,,,,,,,,,,,,,6,,,,,,,,,,Task,30,(6/3) + 4 ,6,,,,,,,,,,,,,,,,,,,1,,,,,,,,,,,,,,,,,,,,,,,"[""6""]",1,[2.9798999999760554],0,0,0,29,1,,,,,,,,,,,,,,,,,,,,,,,,,,
,,,,,,,,,,,X V Q F H G B L J M P D K C T S W R N Z,5f6e0be76cea482e27d38c95,21,Mężczyzna,2022-06-25_15h32.49.617,task,2021.1.4,Win32,143.8021283,6299f149e92ead563fba08ef,62b70e44376dedcfaf3f02d8,,,,,,,,,,,,,,,,,,,,,,,,,,,,,,,,,,,,,,,,,,,,,,,,,,,,,,,,,,,,,,,,,,,,,,,,,,,,4,0,4,0,1,,,,,,,,,,,,,,,,,,,,,
,,,,,,,,,,,,5f6e0be76cea482e27d38c95,21,Mężczyzna,2022-06-25_15h32.49.617,task,2021.1.4,Win32,143.8021283,6299f149e92ead563fba08ef,62b70e44376dedcfaf3f02d8,,,,,,,,,,,,,,,,,,,,,,,,,,,,,,,,,,,,,,,,,,,,,,,,,,,,,,,,,,,,,,,,,,,,,,,,,,,,,,,,,qfww,"[""q"",""f"",""w"",""w""]",0,"[2.653500000000008,3.5082000000477365,4.324300000011931,4.666800000011904,5.5222000000477465]",0,PQFWW,4,0,4,0,1,,,,,,,,,,
,,,,,,,,,,,,5f6e0be76cea482e27d38c95,21,Mężczyzna,2022-06-25_15h32.49.617,task,2021.1.4,Win32,143.8021283,6299f149e92ead563fba08ef,62b70e44376dedcfaf3f02d8,,,,,,,,,,,,,,,,,,,,,,,,,,,,,,,,,,,,,,,,,,,,,,,,,,,,,,,,,,,,,,,,,,,,,,,,,,,,,,,,,,,,,,,,,,,,"[""period""]",0,[1.9491000000239183],0,0,0,0,1,,
,,,,,,,,,,,,5f6e0be76cea482e27d38c95,21,Mężczyzna,2022-06-25_15h32.49.617,task,2021.1.4,Win32,143.8021283,6299f149e92ead563fba08ef,62b70e44376dedcfaf3f02d8,,,,,,,,,,,,,,,,,,,,,,,,,,,,,,,,,,,,,,,,,,,,,,,,,,,,,,,,,,,,,,,,,,,,,,,,,,,,,,,,,,,,,,,,,,,,"[""period""]",0,[1.6182999999523418],1,0,1,0,1,,
,,,,,,,,,,,,5f6e0be76cea482e27d38c95,21,Mężczyzna,2022-06-25_15h32.49.617,task,2021.1.4,Win32,143.8021283,6299f149e92ead563fba08ef,62b70e44376dedcfaf3f02d8,,,,,,,,,,,,,,,,,,,,,,,,,,,,,,,,,,,,,,,,,,,,,,,,,,,,,,,,,,,,,,,,,,,,,,,,,,,,,,,,,,,,,,,,,,,,"[""period""]",0,[1.4031000000238691],2,0,2,0,1,,
,,,,,,,,,,,,5f6e0be76cea482e27d38c95,21,Mężczyzna,2022-06-25_15h32.49.617,task,2021.1.4,Win32,143.8021283,6299f149e92ead563fba08ef,62b70e44376dedcfaf3f02d8,,,,,,,,,,,,,,,,,,,,,,,,,,,,,,,,,,,,,,,,,,,,,,,,,,,,,,,,,,,,,,,,,,,,,,,,,,,,,,,,,,,,,,,,,,,,"[""comma""]",0,[1.0511000000238937],3,0,3,0,1,,
,,,,,,,,,,,,5f6e0be76cea482e27d38c95,21,Mężczyzna,2022-06-25_15h32.49.617,task,2021.1.4,Win32,143.8021283,6299f149e92ead563fba08ef,62b70e44376dedcfaf3f02d8,,,,,,,,,,,,,,,,,,,,,,,,,,,,,,,,,,,,,,,,,,,,,,,,,,,,,,,,,,,,,,,,,,,,,,,,,,,,,,,,,,,,,,,,,,,,"[""period""]",0,[0.7918999999761809],4,0,4,0,1,,
,,,,,,,,,,,,5f6e0be76cea482e27d38c95,21,Mężczyzna,2022-06-25_15h32.49.617,task,2021.1.4,Win32,143.8021283,6299f149e92ead563fba08ef,62b70e44376dedcfaf3f02d8,,,,,,,,,,,,,,,,,,,,,,,,,,,,,,,,,,,,,,,,,,,,,,,,,,,,,,,,,,,,,,,,,,,,,,,,,,,,,,,,,,,,,,,,,,,,"[""period""]",0,[0.6161000000238346],5,0,5,0,1,,
,,,,,,,,,,,,5f6e0be76cea482e27d38c95,21,Mężczyzna,2022-06-25_15h32.49.617,task,2021.1.4,Win32,143.8021283,6299f149e92ead563fba08ef,62b70e44376dedcfaf3f02d8,,,,,,,,,,,,,,,,,,,,,,,,,,,,,,,,,,,,,,,,,,,,,,,,,,,,,,,,,,,,,,,,,,,,,,,,,,,,,,,,,,,,,,,,,,,,"[""comma""]",0,[0.5149999999999864],6,0,6,0,1,,
,,,,,,,,,,,,5f6e0be76cea482e27d38c95,21,Mężczyzna,2022-06-25_15h32.49.617,task,2021.1.4,Win32,143.8021283,6299f149e92ead563fba08ef,62b70e44376dedcfaf3f02d8,,,,,,,,,,,,,,,,,,,,,,,,,,,,,,,,,,,,,,,,,,,,,,,,,,,,,,,,,,,,,,,,,,,,,,,,,,,,,,,,,,,,,,,,,,,,"[""comma""]",0,[0.5461000000238982],7,0,7,0,1,,
,,,,,,,,,,,,5f6e0be76cea482e27d38c95,21,Mężczyzna,2022-06-25_15h32.49.617,task,2021.1.4,Win32,143.8021283,6299f149e92ead563fba08ef,62b70e44376dedcfaf3f02d8,,,,,,,,,,,,,,,,,,,,,,,,,,,,,,,,,,,,,,,,,,,,,,,,,,,,,,,,,,,,,,,,,,,,,,,,,,,,,,,,,,,,,,,,,,,,"[""period""]",0,[0.4391999999880909],8,0,8,0,1,,
,,,,,,,,,,,,5f6e0be76cea482e27d38c95,21,Mężczyzna,2022-06-25_15h32.49.617,task,2021.1.4,Win32,143.8021283,6299f149e92ead563fba08ef,62b70e44376dedcfaf3f02d8,,,,,,,,,,,,,,,,,,,,,,,,,,,,,,,,,,,,,,,,,,,,,,,,,,,,,,,,,,,,,,,,,,,,,,,,,,,,,,,,,,,,,,,,,,,,"[""comma""]",0,[0.29300000000000637],9,0,9,0,1,,
,,,,,,,,,,,,5f6e0be76cea482e27d38c95,21,Mężczyzna,2022-06-25_15h32.49.617,task,2021.1.4,Win32,143.8021283,6299f149e92ead563fba08ef,62b70e44376dedcfaf3f02d8,,,,,,,,,,,,,,,,,,,,,,,,,,,,,,,,,,,,,,,,,,,,,,,,,,,,,,,,,,,,,,,,,,,,,,,,,,,,,,,,,,,,,,,,,,,,"[""comma""]",0,[0.42109999996432634],10,0,10,0,1,,
,,,,,,,,,,,,5f6e0be76cea482e27d38c95,21,Mężczyzna,2022-06-25_15h32.49.617,task,2021.1.4,Win32,143.8021283,6299f149e92ead563fba08ef,62b70e44376dedcfaf3f02d8,,,,,,,,,,,,,,,,,,,,,,,,,,,,,,,,,,,,,,,,,,,,,,,,,,,,,,,,,,,,,,,,,,,,,,,,,,,,,,,,,,,,,,,,,,,,"[""comma""]",0,[0.5710000000000264],11,0,11,0,1,,
,,,,,,,,,,,,5f6e0be76cea482e27d38c95,21,Mężczyzna,2022-06-25_15h32.49.617,task,2021.1.4,Win32,143.8021283,6299f149e92ead563fba08ef,62b70e44376dedcfaf3f02d8,,,,,,,,,,,,,,,,,,,,,,,,,,,,,,,,,,,,,,,,,,,,,,,,,,,,,,,,,,,,,,,,,,,,,,,,,,,,,,,,,,,,,,,,,,,,"[""comma""]",0,[0.65300000000002],12,0,12,0,1,,
,,,,,,,,,,,,5f6e0be76cea482e27d38c95,21,Mężczyzna,2022-06-25_15h32.49.617,task,2021.1.4,Win32,143.8021283,6299f149e92ead563fba08ef,62b70e44376dedcfaf3f02d8,,,,,,,,,,,,,,,,,,,,,,,,,,,,,,,,,,,,,,,,,,,,,,,,,,,,,,,,,,,,,,,,,,,,,,,,,,,,,,,,,,,,,,,,,,,,"[""period""]",0,[0.4658000000118818],13,0,13,0,1,,
,,,,,,,,,,,,5f6e0be76cea482e27d38c95,21,Mężczyzna,2022-06-25_15h32.49.617,task,2021.1.4,Win32,143.8021283,6299f149e92ead563fba08ef,62b70e44376dedcfaf3f02d8,,,,,,,,,,,,,,,,,,,,,,,,,,,,,,,,,,,,,,,,,,,,,,,,,,,,,,,,,,,,,,,,,,,,,,,,,,,,,,,,,,,,,,,,,,,,"[""comma""]",0,[0.5308000000119364],14,0,14,0,1,,
,,,,,,,,,,,,5f6e0be76cea482e27d38c95,21,Mężczyzna,2022-06-25_15h32.49.617,task,2021.1.4,Win32,143.8021283,6299f149e92ead563fba08ef,62b70e44376dedcfaf3f02d8,,,,,,,,,,,,,,,,,,,,,,,,,,,,,,,,,,,,,,,,,,,,,,,,,,,,,,,,,,,,,,,,,,,,,,,,,,,,,,,,,,,,,,,,,,,,"[""period""]",0,[0.3558000000118682],15,0,15,0,1,,
,,,,,,,,,,,,5f6e0be76cea482e27d38c95,21,Mężczyzna,2022-06-25_15h32.49.617,task,2021.1.4,Win32,143.8021283,6299f149e92ead563fba08ef,62b70e44376dedcfaf3f02d8,,,,,,,,,,,,,,,,,,,,,,,,,,,,,,,,,,,,,,,,,,,,,,,,,,,,,,,,,,,,,,,,,,,,,,,,,,,,,,,,,,,,,,,,,,,,"[""comma""]",0,[0.27809999996429724],16,0,16,0,1,,
,,,,,,,,,,,,5f6e0be76cea482e27d38c95,21,Mężczyzna,2022-06-25_15h32.49.617,task,2021.1.4,Win32,143.8021283,6299f149e92ead563fba08ef,62b70e44376dedcfaf3f02d8,,,,,,,,,,,,,,,,,,,,,,,,,,,,,,,,,,,,,,,,,,,,,,,,,,,,,,,,,,,,,,,,,,,,,,,,,,,,,,,,,,,,,,,,,,,,"[""comma""]",0,[0.16099999999994452],17,0,17,0,1,,
,,,,,,,,,,,,5f6e0be76cea482e27d38c95,21,Mężczyzna,2022-06-25_15h32.49.617,task,2021.1.4,Win32,143.8021283,6299f149e92ead563fba08ef,62b70e44376dedcfaf3f02d8,,,,,,,,,,,,,,,,,,,,,,,,,,,,,,,,,,,,,,,,,,,,,,,,,,,,,,,,,,,,,,,,,,,,,,,,,,,,,,,,,,,,,,,,,,,,"[""period""]",0,[0.18049999999993815],18,0,18,0,1,,
,,,,,,,,,,,,5f6e0be76cea482e27d38c95,21,Mężczyzna,2022-06-25_15h32.49.617,task,2021.1.4,Win32,143.8021283,6299f149e92ead563fba08ef,62b70e44376dedcfaf3f02d8,,,,,,,,,,,,,,,,,,,,,,,,,,,,,,,,,,,,,,,,,,,,,,,,,,,,,,,,,,,,,,,,,,,,,,,,,,,,,,,,,,,,,,,,,,,,"[""period"",""comma""]",0,"[0.23280000001193457,1.9728000000119437]",19,0,19,0,1,,
,,,,,,,,,,,,5f6e0be76cea482e27d38c95,21,Mężczyzna,2022-06-25_15h32.49.617,task,2021.1.4,Win32,143.8021283,6299f149e92ead563fba08ef,62b70e44376dedcfaf3f02d8,,,,,,,,,,,,,,,,,,,,,,,,,,,,,,,,,,,,,,,,,,,,,,,,,,,,,,,,,,,,,,,,,,,,,,,,,,,,,,,,,,,,,,,,,,,,,0,,20,0,20,0,1,,
,,,,,,,,,,,,5f6e0be76cea482e27d38c95,21,Mężczyzna,2022-06-25_15h32.49.617,task,2021.1.4,Win32,143.8021283,6299f149e92ead563fba08ef,62b70e44376dedcfaf3f02d8,,,,,,,,,,,,,,,,,,,,,,,,,,,,,,,,,,,,,,,,,,,,,,,,,,,,,,,,,,,,,,,,,,,,,,,,,,,,,,,,,,,,,,,,,,,,"[""period""]",0,[0.16289999997616178],21,0,21,0,1,,
,,,,,,,,,,,,5f6e0be76cea482e27d38c95,21,Mężczyzna,2022-06-25_15h32.49.617,task,2021.1.4,Win32,143.8021283,6299f149e92ead563fba08ef,62b70e44376dedcfaf3f02d8,,,,,,,,,,,,,,,,,,,,,,,,,,,,,,,,,,,,,,,,,,,,,,,,,,,,,,,,,,,,,,,,,,,,,,,,,,,,,,,,,,,,,,,,,,,,"[""period""]",0,[0.22219999998810636],22,0,22,0,1,,
,,,,,,,,,,,,5f6e0be76cea482e27d38c95,21,Mężczyzna,2022-06-25_15h32.49.617,task,2021.1.4,Win32,143.8021283,6299f149e92ead563fba08ef,62b70e44376dedcfaf3f02d8,,,,,,,,,,,,,,,,,,,,,,,,,,,,,,,,,,,,,,,,,,,,,,,,,,,,,,,,,,,,,,,,,,,,,,,,,,,,,,,,,,,,,,,,,,,,"[""comma""]",0,[0.0016000000238136636],23,0,23,0,1,,
,,,,,,,,,,,,5f6e0be76cea482e27d38c95,21,Mężczyzna,2022-06-25_15h32.49.617,task,2021.1.4,Win32,143.8021283,6299f149e92ead563fba08ef,62b70e44376dedcfaf3f02d8,,,,,,,,,,,,,,,,,,,,,,,,,,,,,,,,,,,,,,,,,,,,,,,,,,,,,,,,,,,,,,,,,,,,,,,,,,,,,,,,,,,,,,,,,,,,"[""period""]",0,[0.15259999996419538],24,0,24,0,1,,
,,,,,,,,,,,,5f6e0be76cea482e27d38c95,21,Mężczyzna,2022-06-25_15h32.49.617,task,2021.1.4,Win32,143.8021283,6299f149e92ead563fba08ef,62b70e44376dedcfaf3f02d8,,,,,,,,,,,,,,,,,,,,,,,,,,,,,,,,,,,,,,,,,,,,,,,,,,,,,,,,,,,,,,,,,,,,,,,,,,,,,,,,,,,,,,,,,,,,"[""comma"",""comma""]",0,"[0.1256000000238373,1.9386000000238255]",25,0,25,0,1,,
,,,,,,,,,,,,5f6e0be76cea482e27d38c95,21,Mężczyzna,2022-06-25_15h32.49.617,task,2021.1.4,Win32,143.8021283,6299f149e92ead563fba08ef,62b70e44376dedcfaf3f02d8,,,,,,,,,,,,,,,,,,,,,,,,,,,,,,,,,,,,,,,,,,,,,,,,,,,,,,,,,,,,,,,,,,,,,,,,,,,,,,,,,,,,,,,,,,,,,0,,26,0,26,0,1,,
,,,,,,,,,,,,5f6e0be76cea482e27d38c95,21,Mężczyzna,2022-06-25_15h32.49.617,task,2021.1.4,Win32,143.8021283,6299f149e92ead563fba08ef,62b70e44376dedcfaf3f02d8,,,,,,,,,,,,,,,,,,,,,,,,,,,,,,,,,,,,,,,,,,,,,,,,,,,,,,,,,,,,,,,,,,,,,,,,,,,,,,,,,,,,,,,,,,,,"[""comma""]",0,[0.18590000003575824],27,0,27,0,1,,
,,,,,,,,,,,,5f6e0be76cea482e27d38c95,21,Mężczyzna,2022-06-25_15h32.49.617,task,2021.1.4,Win32,143.8021283,6299f149e92ead563fba08ef,62b70e44376dedcfaf3f02d8,,,,,,,,,,,,,,,,,,,,,,,,,,,,,,,,,,,,,,,,,,,,,,,,,,,,,,,,,,,,,,,,,,,,,,,,,,,,,,,,,,,,,,,,,,,,"[""period""]",0,[0.04600000000004911],28,0,28,0,1,,
,,,,,,,,,,,,5f6e0be76cea482e27d38c95,21,Mężczyzna,2022-06-25_15h32.49.617,task,2021.1.4,Win32,143.8021283,6299f149e92ead563fba08ef,62b70e44376dedcfaf3f02d8,,,,,,,,,,,,,,,,,,,,,,,,,,,,,,,,,,,,,,,,,,,,,,,,,,,,,,,,,,,,,,,,,,,,,,,,,,,,,,,,,,,,,,,,,,,,"[""period""]",0,[0.13919999998802268],29,0,29,0,1,,
,,,,,,,,,,,,5f6e0be76cea482e27d38c95,21,Mężczyzna,2022-06-25_15h32.49.617,task,2021.1.4,Win32,143.8021283,6299f149e92ead563fba08ef,62b70e44376dedcfaf3f02d8,,,,,,,,,,,,,,,,,,,,,,,,,,,,,,,,,,,,,,,,,,,,,,,,,,,,,,,,,,,,,,,,,,,,,,,,,,,,,,,,,,,,,,,,,,,,"[""comma""]",0,[0.2038000000119382],30,0,30,0,1,,
,,,,,,,,,,,,5f6e0be76cea482e27d38c95,21,Mężczyzna,2022-06-25_15h32.49.617,task,2021.1.4,Win32,143.8021283,6299f149e92ead563fba08ef,62b70e44376dedcfaf3f02d8,,,,,,,,,,,,,,,,,,,,,,,,,,,,,,,,,,,,,,,,,,,,,,,,,,,,,,,,,,,,,,,,,,,,,,,,,,,,,,,,,,,,,,,,,,,,"[""period""]",0,[0.21180000001186272],31,0,31,0,1,,
,,,,,,,,,,,,5f6e0be76cea482e27d38c95,21,Mężczyzna,2022-06-25_15h32.49.617,task,2021.1.4,Win32,143.8021283,6299f149e92ead563fba08ef,62b70e44376dedcfaf3f02d8,,,,,,,,,,,,,,,,,,,,,,,,,,,,,,,,,,,,,,,,,,,,,,,,,,,,,,,,,,,,,,,,,,,,,,,,,,,,,,,,,,,,,,,,,,,,"[""comma"",""comma""]",0,"[0.07069999998805088,1.9188000000118564]",32,0,32,0,1,,
,,,,,,,,,,,,5f6e0be76cea482e27d38c95,21,Mężczyzna,2022-06-25_15h32.49.617,task,2021.1.4,Win32,143.8021283,6299f149e92ead563fba08ef,62b70e44376dedcfaf3f02d8,,,,,,,,,,,,,,,,,,,,,,,,,,,,,,,,,,,,,,,,,,,,,,,,,,,,,,,,,,,,,,,,,,,,,,,,,,,,,,,,,,,,,,,,,,,,"[""comma""]",0,[1.9096000000238291],33,0,33,0,1,,
,,,,,,,,,,,,5f6e0be76cea482e27d38c95,21,Mężczyzna,2022-06-25_15h32.49.617,task,2021.1.4,Win32,143.8021283,6299f149e92ead563fba08ef,62b70e44376dedcfaf3f02d8,,,,,,,,,,,,,,,,,,,,,,,,,,,,,,,,,,,,,,,,,,,,,,,,,,,,,,,,,,,,,,,,,,,,,,,,,,,,,,,,,,,,,,,,,,,,"[""period""]",0,[1.956600000023741],34,0,34,0,1,,
,,,,,,,,,,,,5f6e0be76cea482e27d38c95,21,Mężczyzna,2022-06-25_15h32.49.617,task,2021.1.4,Win32,143.8021283,6299f149e92ead563fba08ef,62b70e44376dedcfaf3f02d8,,,,,,,,,,,,,,,,,,,,,,,,,,,,,,,,,,,,,,,,,,,,,,,,,,,,,,,,,,,,,,,,,,,,,,,,,,,,,,,,,,,,,,,,,,,,"[""comma""]",0,[1.7931000000238555],35,0,35,0,1,,
,,,,,,,,,,,,5f6e0be76cea482e27d38c95,21,Mężczyzna,2022-06-25_15h32.49.617,task,2021.1.4,Win32,143.8021283,6299f149e92ead563fba08ef,62b70e44376dedcfaf3f02d8,,,,,,,,,,,,,,,,,,,,,,,,,,,,,,,,,,,,,,,,,,,,,,,,,,,,,,,,,,,,,,,,,,,,,,,,,,,,,,,,,,,,,,,,,,,,,0,,36,0,36,0,1,,
,,,,,,,,,,,,5f6e0be76cea482e27d38c95,21,Mężczyzna,2022-06-25_15h32.49.617,task,2021.1.4,Win32,143.8021283,6299f149e92ead563fba08ef,62b70e44376dedcfaf3f02d8,,,,,,,,,,,,,,,,,,,,,,,,,,,,,,,,,,,,,,,,,,,,,,,,,,,,,,,,,,,,,,,,,,,,,,,,,,,,,,,,,,,,,,,,,,,,"[""period""]",0,[0.011600000023804569],37,0,37,0,1,,
,,,,,,,,,,,,5f6e0be76cea482e27d38c95,21,Mężczyzna,2022-06-25_15h32.49.617,task,2021.1.4,Win32,143.8021283,6299f149e92ead563fba08ef,62b70e44376dedcfaf3f02d8,,,,,,,,,,,,,,,,,,,,,,,,,,,,,,,,,,,,,,,,,,,,,,,,,,,,,,,,,,,,,,,,,,,,,,,,,,,,,,,,,,,,,,,,,,,,"[""comma""]",0,[0.2644999999999982],38,0,38,0,1,,
,,,,,,,,,,,,5f6e0be76cea482e27d38c95,21,Mężczyzna,2022-06-25_15h32.49.617,task,2021.1.4,Win32,143.8021283,6299f149e92ead563fba08ef,62b70e44376dedcfaf3f02d8,,,,,,,,,,,,,,,,,,,,,,,,,,,,,,,,,,,,,,,,,,,,,,,,,,,,,,,,,,,,,,,,,,,,,,,,,,,,,,,,,,,,,,,,,,,,"[""period"",""comma""]",0,"[0.21590000003573095,1.9776000000238128]",39,0,39,0,1,,
,,,,,,,,,,,,5f6e0be76cea482e27d38c95,21,Mężczyzna,2022-06-25_15h32.49.617,task,2021.1.4,Win32,143.8021283,6299f149e92ead563fba08ef,62b70e44376dedcfaf3f02d8,,,,,,,,,,,,,,,,,,,,,,,,,,,,,,,,,,,,,,,,,,,,,,,,,,,,,,,,,,,,,,,,,,,,,,,,,,,,,,,,,,,,,,,,,,,,"[""period""]",0,[1.9288000000118473],40,0,40,0,1,,
,,,,,,,,,,,,5f6e0be76cea482e27d38c95,21,Mężczyzna,2022-06-25_15h32.49.617,task,2021.1.4,Win32,143.8021283,6299f149e92ead563fba08ef,62b70e44376dedcfaf3f02d8,,,,,,,,,,,,,,,,,,,,,,,,,,,,,,,,,,,,,,,,,,,,,,,,,,,,,,,,,,,,,,,,,,,,,,,,,,,,,,,,,,,,,,,,,,,,,0,,41,0,41,0,1,,
,,,,,,,,,,,,5f6e0be76cea482e27d38c95,21,Mężczyzna,2022-06-25_15h32.49.617,task,2021.1.4,Win32,143.8021283,6299f149e92ead563fba08ef,62b70e44376dedcfaf3f02d8,,,,,,,,,,,,,,,,,,,,,,,,,,,,,,,,,,,,,,,,,,,,,,,,,,,,,,,,,,,,,,,,,,,,,,,,,,,,,,,,,,,,,,,,,,,,"[""period""]",0,[0.09030000001189364],42,0,42,0,1,,
,,,,,,,,,,,,5f6e0be76cea482e27d38c95,21,Mężczyzna,2022-06-25_15h32.49.617,task,2021.1.4,Win32,143.8021283,6299f149e92ead563fba08ef,62b70e44376dedcfaf3f02d8,,,,,,,,,,,,,,,,,,,,,,,,,,,,,,,,,,,,,,,,,,,,,,,,,,,,,,,,,,,,,,,,,,,,,,,,,,,,,,,,,,,,,,,,,,,,"[""comma""]",0,[0.16699999999991633],43,0,43,0,1,,
,,,,,,,,,,,,5f6e0be76cea482e27d38c95,21,Mężczyzna,2022-06-25_15h32.49.617,task,2021.1.4,Win32,143.8021283,6299f149e92ead563fba08ef,62b70e44376dedcfaf3f02d8,,,,,,,,,,,,,,,,,,,,,,,,,,,,,,,,,,,,,,,,,,,,,,,,,,,,,,,,,,,,,,,,,,,,,,,,,,,,,,,,,,,,,,,,,,,,"[""period""]",0,[0.24780000001192093],44,0,44,0,1,,
,,,,,,,,,,,,5f6e0be76cea482e27d38c95,21,Mężczyzna,2022-06-25_15h32.49.617,task,2021.1.4,Win32,143.8021283,6299f149e92ead563fba08ef,62b70e44376dedcfaf3f02d8,,,,,,,,,,,,,,,,,,,,,,,,,,,,,,,,,,,,,,,,,,,,,,,,,,,,,,,,,,,,,,,,,,,,,,,,,,,,,,,,,,,,,,,,,,,,"[""comma""]",0,[0.2386000000238937],45,0,45,0,1,,
,,,,,,,,,,,,5f6e0be76cea482e27d38c95,21,Mężczyzna,2022-06-25_15h32.49.617,task,2021.1.4,Win32,143.8021283,6299f149e92ead563fba08ef,62b70e44376dedcfaf3f02d8,,,,,,,,,,,,,,,,,,,,,,,,,,,,,,,,,,,,,,,,,,,,,,,,,,,,,,,,,,,,,,,,,,,,,,,,,,,,,,,,,,,,,,,,,,,,"[""comma""]",0,[0.22909999996431907],46,0,46,0,1,,
,,,,,,,,,,,,5f6e0be76cea482e27d38c95,21,Mężczyzna,2022-06-25_15h32.49.617,task,2021.1.4,Win32,143.8021283,6299f149e92ead563fba08ef,62b70e44376dedcfaf3f02d8,,,,,,,,,,,,,,,,,,,,,,,,,,,,,,,,,,,,,,,,,,,,,,,,,,,,,,,,,,,,,,,,,,,,,,,,,,,,,,,,,,,,,,,,,,,,"[""comma""]",0,[0.13949999999999818],47,0,47,0,1,,
,,,,,,,,,,,,5f6e0be76cea482e27d38c95,21,Mężczyzna,2022-06-25_15h32.49.617,task,2021.1.4,Win32,143.8021283,6299f149e92ead563fba08ef,62b70e44376dedcfaf3f02d8,,,,,,,,,,,,,,,,,,,,,,,,,,,,,,,,,,,,,,,,,,,,,,,,,,,,,,,,,,,,,,,,,,,,,,,,,,,,,,,,,,,,,,,,,,,,"[""period""]",0,[0.15310000002375546],48,0,48,0,1,,
,,,,,,,,,,,,5f6e0be76cea482e27d38c95,21,Mężczyzna,2022-06-25_15h32.49.617,task,2021.1.4,Win32,143.8021283,6299f149e92ead563fba08ef,62b70e44376dedcfaf3f02d8,,,,,,,,,,,,,,,,,,,,,,,,,,,,,,,,,,,,,,,,,,,,,,,,,,,,,,,,,,,,,,,,,,,,,,,,,,,,,,,,,,,,,,,,,,,,"[""comma""]",0,[0.17739999997615996],49,0,49,0,1,,
,,,,,,,,,,,,5f6e0be76cea482e27d38c95,21,Mężczyzna,2022-06-25_15h32.49.617,task,2021.1.4,Win32,143.8021283,6299f149e92ead563fba08ef,62b70e44376dedcfaf3f02d8,,,,,,,,,,,,,,,,,,,,,,,,,,,,,,,,,,,,,,,,,,,,,,,,,,,,,,,,,,,,,,,,,,,,,,,,,,,,,,,,,,,,,,,,,,,,"[""period"",""period""]",0,"[0.18469999998796993,1.9814999999999827]",50,0,50,0,1,,
,,,,,,,,,,,,5f6e0be76cea482e27d38c95,21,Mężczyzna,2022-06-25_15h32.49.617,task,2021.1.4,Win32,143.8021283,6299f149e92ead563fba08ef,62b70e44376dedcfaf3f02d8,,,,,,,,,,,,,,,,,,,,,,,,,,,,,,,,,,,,,,,,,,,,,,,,,,,,,,,,,,,,,,,,,,,,,,,,,,,,,,,,,,,,,,,,,,,,"[""comma""]",0,[1.8914999999999509],51,0,51,0,1,,
,,,,,,,,,,,,5f6e0be76cea482e27d38c95,21,Mężczyzna,2022-06-25_15h32.49.617,task,2021.1.4,Win32,143.8021283,6299f149e92ead563fba08ef,62b70e44376dedcfaf3f02d8,,,,,,,,,,,,,,,,,,,,,,,,,,,,,,,,,,,,,,,,,,,,,,,,,,,,,,,,,,,,,,,,,,,,,,,,,,,,,,,,,,,,,,,,,,,,"[""comma""]",0,[1.8993000000119764],52,0,52,0,1,,
,,,,,,,,,,,,5f6e0be76cea482e27d38c95,21,Mężczyzna,2022-06-25_15h32.49.617,task,2021.1.4,Win32,143.8021283,6299f149e92ead563fba08ef,62b70e44376dedcfaf3f02d8,,,,,,,,,,,,,,,,,,,,,,,,,,,,,,,,,,,,,,,,,,,,,,,,,,,,,,,,,,,,,,,,,,,,,,,,,,,,,,,,,,,,,,,,,,,,,0,,53,0,53,0,1,,
,,,,,,,,,,,,5f6e0be76cea482e27d38c95,21,Mężczyzna,2022-06-25_15h32.49.617,task,2021.1.4,Win32,143.8021283,6299f149e92ead563fba08ef,62b70e44376dedcfaf3f02d8,,,,,,,,,,,,,,,,,,,,,,,,,,,,,,,,,,,,,,,,,,,,,,,,,,,,,,,,,,,,,,,,,,,,,,,,,,,,,,,,,,,,,,,,,,,,"[""comma"",""comma""]",0,"[0.07839999997622726,1.9896999999881473]",54,0,54,0,1,,
,,,,,,,,,,,,5f6e0be76cea482e27d38c95,21,Mężczyzna,2022-06-25_15h32.49.617,task,2021.1.4,Win32,143.8021283,6299f149e92ead563fba08ef,62b70e44376dedcfaf3f02d8,,,,,,,,,,,,,,,,,,,,,,,,,,,,,,,,,,,,,,,,,,,,,,,,,,,,,,,,,,,,,,,,,,,,,,,,,,,,,,,,,,,,,,,,,,,,,0,,55,0,55,0,1,,
,,,,,,,,,,,,5f6e0be76cea482e27d38c95,21,Mężczyzna,2022-06-25_15h32.49.617,task,2021.1.4,Win32,143.8021283,6299f149e92ead563fba08ef,62b70e44376dedcfaf3f02d8,,,,,,,,,,,,,,,,,,,,,,,,,,,,,,,,,,,,,,,,,,,,,,,,,,,,,,,,,,,,,,,,,,,,,,,,,,,,,,,,,,,,,,,,,,,,"[""period"",""comma""]",0,"[0.036599999964323615,1.87239999997621]",56,0,56,0,1,,
,,,,,,,,,,,,5f6e0be76cea482e27d38c95,21,Mężczyzna,2022-06-25_15h32.49.617,task,2021.1.4,Win32,143.8021283,6299f149e92ead563fba08ef,62b70e44376dedcfaf3f02d8,,,,,,,,,,,,,,,,,,,,,,,,,,,,,,,,,,,,,,,,,,,,,,,,,,,,,,,,,,,,,,,,,,,,,,,,,,,,,,,,,,,,,,,,,,,,,0,,57,0,57,0,1,,
,,,,,,,,,,,,5f6e0be76cea482e27d38c95,21,Mężczyzna,2022-06-25_15h32.49.617,task,2021.1.4,Win32,143.8021283,6299f149e92ead563fba08ef,62b70e44376dedcfaf3f02d8,,,,,,,,,,,,,,,,,,,,,,,,,,,,,,,,,,,,,,,,,,,,,,,,,,,,,,,,,,,,,,,,,,,,,,,,,,,,,,,,,,,,,,,,,,,,"[""period""]",0,[0.21630000001187],58,0,58,0,1,,
,,,,,,,,,,,,5f6e0be76cea482e27d38c95,21,Mężczyzna,2022-06-25_15h32.49.617,task,2021.1.4,Win32,143.8021283,6299f149e92ead563fba08ef,62b70e44376dedcfaf3f02d8,,,,,,,,,,,,,,,,,,,,,,,,,,,,,,,,,,,,,,,,,,,,,,,,,,,,,,,,,,,,,,,,,,,,,,,,,,,,,,,,,,,,,,,,,,,,"[""comma""]",0,[0.2873999999761736],59,0,59,0,1,,
,,,,,,,,,,,,5f6e0be76cea482e27d38c95,21,Mężczyzna,2022-06-25_15h32.49.617,task,2021.1.4,Win32,143.8021283,6299f149e92ead563fba08ef,62b70e44376dedcfaf3f02d8,,,,,,,,,,,,,,,,,,,,,,,,,,,,,,,,,,,,,,,,,,,,,,,,,,,,,,,,,,,,,,,,,,,,,,,,,,,,,,,,,,,,,,,,,,,,"[""period""]",0,[0.47250000000008185],60,0,60,0,1,,
,,,,,,,,,,,,5f6e0be76cea482e27d38c95,21,Mężczyzna,2022-06-25_15h32.49.617,task,2021.1.4,Win32,143.8021283,6299f149e92ead563fba08ef,62b70e44376dedcfaf3f02d8,,,,,,,,,,,,,,,,,,,,,,,,,,,,,,,,,,,,,,,,,,,,,,,,,,,,,,,,,,,,,,,,,,,,,,,,,,,,,,,,,,,,,,,,,,,,"[""period""]",0,[0.27989999997623727],61,0,61,0,1,,
,,,,,,,,,,,,5f6e0be76cea482e27d38c95,21,Mężczyzna,2022-06-25_15h32.49.617,task,2021.1.4,Win32,143.8021283,6299f149e92ead563fba08ef,62b70e44376dedcfaf3f02d8,,,,,,,,,,,,,,,,,,,,,,,,,,,,,,,,,,,,,,,,,,,,,,,,,,,,,,,,,,,,,,,,,,,,,,,,,,,,,,,,,,,,,,,,,,,,"[""period""]",0,[0.4123999999761736],62,0,62,0,1,,
,,,,,,,,,,,,5f6e0be76cea482e27d38c95,21,Mężczyzna,2022-06-25_15h32.49.617,task,2021.1.4,Win32,143.8021283,6299f149e92ead563fba08ef,62b70e44376dedcfaf3f02d8,,,,,,,,,,,,,,,,,,,,,,,,,,,,,,,,,,,,,,,,,,,,,,,,,,,,,,,,,,,,,,,,,,,,,,,,,,,,,,,,,,,,,,,,,,,,"[""comma""]",0,[0.4603000000118982],63,0,63,0,1,,
,,,,,,,,,,,,5f6e0be76cea482e27d38c95,21,Mężczyzna,2022-06-25_15h32.49.617,task,2021.1.4,Win32,143.8021283,6299f149e92ead563fba08ef,62b70e44376dedcfaf3f02d8,,,,,,,,,,,,,,,,,,,,,,,,,,,,,,,,,,,,,,,,,,,,,,,,,,,,,,,,,,,,,,,,,,,,,,,,,,,,,,,,,,,,,,,,,,,,"[""period""]",0,[0.46739999997623727],64,0,64,0,1,,
,,,,,,,,,,,,5f6e0be76cea482e27d38c95,21,Mężczyzna,2022-06-25_15h32.49.617,task,2021.1.4,Win32,143.8021283,6299f149e92ead563fba08ef,62b70e44376dedcfaf3f02d8,,,,,,,,,,,,,,,,,,,,,,,,,,,,,,,,,,,,,,,,,,,,,,,,,,,,,,,,,,,,,,,,,,,,,,,,,,,,,,,,,,,,,,,,,,,,"[""comma""]",0,[0.9884999999999309],65,0,65,0,1,,
,,,,,,,,,,,,5f6e0be76cea482e27d38c95,21,Mężczyzna,2022-06-25_15h32.49.617,task,2021.1.4,Win32,143.8021283,6299f149e92ead563fba08ef,62b70e44376dedcfaf3f02d8,,,,,,,,,,,,,,,,,,,,,,,,,,,,,,,,,,,,,,,,,,,,,,,,,,,,,,,,,,,,,,,,,,,,,,,,,,,,,,,,,,,,,,,,,,,,"[""period""]",0,[0.6025999999642409],66,0,66,0,1,,
,,,,,,,,,,,,5f6e0be76cea482e27d38c95,21,Mężczyzna,2022-06-25_15h32.49.617,task,2021.1.4,Win32,143.8021283,6299f149e92ead563fba08ef,62b70e44376dedcfaf3f02d8,,,,,,,,,,,,,,,,,,,,,,,,,,,,,,,,,,,,,,,,,,,,,,,,,,,,,,,,,,,,,,,,,,,,,,,,,,,,,,,,,,,,,,,,,,,,"[""period""]",0,[0.5534000000358219],67,0,67,0,1,,
,,,,,,,,,,,,5f6e0be76cea482e27d38c95,21,Mężczyzna,2022-06-25_15h32.49.617,task,2021.1.4,Win32,143.8021283,6299f149e92ead563fba08ef,62b70e44376dedcfaf3f02d8,,,,,,,,,,,,,,,,,,,,,,,,,,,,,,,,,,,,,,,,,,,,,,,,,,,,,,,,,,,,,,,,,,,,,,,,,,,,,,,,,,,,,,,,,,,,"[""period""]",0,[0.2693999999762582],68,0,68,0,1,,
,,,,,,,,,,,,5f6e0be76cea482e27d38c95,21,Mężczyzna,2022-06-25_15h32.49.617,task,2021.1.4,Win32,143.8021283,6299f149e92ead563fba08ef,62b70e44376dedcfaf3f02d8,,,,,,,,,,,,,,,,,,,,,,,,,,,,,,,,,,,,,,,,,,,,,,,,,,,,,,,,,,,,,,,,,,,,,,,,,,,,,,,,,,,,,,,,,,,,"[""comma""]",0,[0.1743999999762309],69,0,69,0,1,,
,,,,,,,,,,,,5f6e0be76cea482e27d38c95,21,Mężczyzna,2022-06-25_15h32.49.617,task,2021.1.4,Win32,143.8021283,6299f149e92ead563fba08ef,62b70e44376dedcfaf3f02d8,,,,,,,,,,,,,,,,,,,,,,,,,,,,,,,,,,,,,,,,,,,,,,,,,,,,,,,,,,,,,,,,,,,,,,,,,,,,,,,,,,,,,,,,,,,,"[""period"",""comma""]",0,"[0.07930000001192639,1.9275999999642863]",70,0,70,0,1,,
,,,,,,,,,,,,5f6e0be76cea482e27d38c95,21,Mężczyzna,2022-06-25_15h32.49.617,task,2021.1.4,Win32,143.8021283,6299f149e92ead563fba08ef,62b70e44376dedcfaf3f02d8,,,,,,,,,,,,,,,,,,,,,,,,,,,,,,,,,,,,,,,,,,,,,,,,,,,,,,,,,,,,,,,,,,,,,,,,,,,,,,,,,,,,,,,,,,,,"[""period""]",0,[1.9523000000119737],71,0,71,0,1,,
,,,,,,,,,,,,5f6e0be76cea482e27d38c95,21,Mężczyzna,2022-06-25_15h32.49.617,task,2021.1.4,Win32,143.8021283,6299f149e92ead563fba08ef,62b70e44376dedcfaf3f02d8,,,,,,,,,,,,,,,,,,,,,,,,,,,,,,,,,,,,,,,,,,,,,,,,,,,,,,,,,,,,,,,,,,,,,,,,,,,,,,,,,,,,,,,,,,,,"[""period""]",0,[1.9313000000119018],72,0,72,0,1,,
,,,,,,,,,,,,5f6e0be76cea482e27d38c95,21,Mężczyzna,2022-06-25_15h32.49.617,task,2021.1.4,Win32,143.8021283,6299f149e92ead563fba08ef,62b70e44376dedcfaf3f02d8,,,,,,,,,,,,,,,,,,,,,,,,,,,,,,,,,,,,,,,,,,,,,,,,,,,,,,,,,,,,,,,,,,,,,,,,,,,,,,,,,,,,,,,,,,,,"[""comma""]",0,[1.967199999988111],73,0,73,0,1,,
,,,,,,,,,,,,5f6e0be76cea482e27d38c95,21,Mężczyzna,2022-06-25_15h32.49.617,task,2021.1.4,Win32,143.8021283,6299f149e92ead563fba08ef,62b70e44376dedcfaf3f02d8,,,,,,,,,,,,,,,,,,,,,,,,,,,,,,,,,,,,,,,,,,,,,,,,,,,,,,,,,,,,,,,,,,,,,,,,,,,,,,,,,,,,,,,,,,,,"[""period""]",0,[1.5243000000119764],74,0,74,0,1,,
,,,,,,,,,,,,5f6e0be76cea482e27d38c95,21,Mężczyzna,2022-06-25_15h32.49.617,task,2021.1.4,Win32,143.8021283,6299f149e92ead563fba08ef,62b70e44376dedcfaf3f02d8,,,,,,,,,,,,,,,,,,,,,,,,,,,,,,,,,,,,,,,,,,,,,,,,,,,,,,,,,,,,,,,,,,,,,,,,,,,,,,,,,,,,,,,,,,,,"[""comma""]",0,[1.4181000000238555],75,0,75,0,1,,
,,,,,,,,,,,,5f6e0be76cea482e27d38c95,21,Mężczyzna,2022-06-25_15h32.49.617,task,2021.1.4,Win32,143.8021283,6299f149e92ead563fba08ef,62b70e44376dedcfaf3f02d8,,,,,,,,,,,,,,,,,,,,,,,,,,,,,,,,,,,,,,,,,,,,,,,,,,,,,,,,,,,,,,,,,,,,,,,,,,,,,,,,,,,,,,,,,,,,"[""period""]",0,[1.4483000000119546],76,0,76,0,1,,
,,,,,,,,,,,,5f6e0be76cea482e27d38c95,21,Mężczyzna,2022-06-25_15h32.49.617,task,2021.1.4,Win32,143.8021283,6299f149e92ead563fba08ef,62b70e44376dedcfaf3f02d8,,,,,,,,,,,,,,,,,,,,,,,,,,,,,,,,,,,,,,,,,,,,,,,,,,,,,,,,,,,,,,,,,,,,,,,,,,,,,,,,,,,,,,,,,,,,,0,,77,0,77,0,1,,
,,,,,,,,,,,,5f6e0be76cea482e27d38c95,21,Mężczyzna,2022-06-25_15h32.49.617,task,2021.1.4,Win32,143.8021283,6299f149e92ead563fba08ef,62b70e44376dedcfaf3f02d8,,,,,,,,,,,,,,,,,,,,,,,,,,,,,,,,,,,,,,,,,,,,,,,,,,,,,,,,,,,,,,,,,,,,,,,,,,,,,,,,,,,,,,,,,,,,"[""comma""]",0,[0.2603000000118527],78,0,78,0,1,,
,,,,,,,,,,,,5f6e0be76cea482e27d38c95,21,Mężczyzna,2022-06-25_15h32.49.617,task,2021.1.4,Win32,143.8021283,6299f149e92ead563fba08ef,62b70e44376dedcfaf3f02d8,,,,,,,,,,,,,,,,,,,,,,,,,,,,,,,,,,,,,,,,,,,,,,,,,,,,,,,,,,,,,,,,,,,,,,,,,,,,,,,,,,,,,,,,,,,,"[""comma""]",0,[0.23419999998804997],79,0,79,0,1,,
,,,,,,,,,,,,5f6e0be76cea482e27d38c95,21,Mężczyzna,2022-06-25_15h32.49.617,task,2021.1.4,Win32,143.8021283,6299f149e92ead563fba08ef,62b70e44376dedcfaf3f02d8,,,,,,,,,,,,,,,,,,,,,,,,,,,,,,,,,,,,,,,,,,,,,,,,,,,,,,,,,,,,,,,,,,,,,,,,,,,,,,,,,,,,,,,,,,,,"[""comma""]",0,[0.2471000000238064],80,0,80,0,1,,
,,,,,,,,,,,,5f6e0be76cea482e27d38c95,21,Mężczyzna,2022-06-25_15h32.49.617,task,2021.1.4,Win32,143.8021283,6299f149e92ead563fba08ef,62b70e44376dedcfaf3f02d8,,,,,,,,,,,,,,,,,,,,,,,,,,,,,,,,,,,,,,,,,,,,,,,,,,,,,,,,,,,,,,,,,,,,,,,,,,,,,,,,,,,,,,,,,,,,"[""period""]",0,[0.3113000000118973],81,0,81,0,1,,
,,,,,,,,,,,,5f6e0be76cea482e27d38c95,21,Mężczyzna,2022-06-25_15h32.49.617,task,2021.1.4,Win32,143.8021283,6299f149e92ead563fba08ef,62b70e44376dedcfaf3f02d8,,,,,,,,,,,,,,,,,,,,,,,,,,,,,,,,,,,,,,,,,,,,,,,,,,,,,,,,,,,,,,,,,,,,,,,,,,,,,,,,,,,,,,,,,,,,"[""comma""]",0,[0.5240000000000009],82,0,82,0,1,,
,,,,,,,,,,,,5f6e0be76cea482e27d38c95,21,Mężczyzna,2022-06-25_15h32.49.617,task,2021.1.4,Win32,143.8021283,6299f149e92ead563fba08ef,62b70e44376dedcfaf3f02d8,,,,,,,,,,,,,,,,,,,,,,,,,,,,,,,,,,,,,,,,,,,,,,,,,,,,,,,,,,,,,,,,,,,,,,,,,,,,,,,,,,,,,,,,,,,,"[""period""]",0,[0.5216000000237955],83,0,83,0,1,,
,,,,,,,,,,,,5f6e0be76cea482e27d38c95,21,Mężczyzna,2022-06-25_15h32.49.617,task,2021.1.4,Win32,143.8021283,6299f149e92ead563fba08ef,62b70e44376dedcfaf3f02d8,,,,,,,,,,,,,,,,,,,,,,,,,,,,,,,,,,,,,,,,,,,,,,,,,,,,,,,,,,,,,,,,,,,,,,,,,,,,,,,,,,,,,,,,,,,,"[""comma""]",0,[0.3402000000476164],84,0,84,0,1,,
,,,,,,,,,,,,5f6e0be76cea482e27d38c95,21,Mężczyzna,2022-06-25_15h32.49.617,task,2021.1.4,Win32,143.8021283,6299f149e92ead563fba08ef,62b70e44376dedcfaf3f02d8,,,,,,,,,,,,,,,,,,,,,,,,,,,,,,,,,,,,,,,,,,,,,,,,,,,,,,,,,,,,,,,,,,,,,,,,,,,,,,,,,,,,,,,,,,,,"[""comma""]",0,[0.2343000000118991],85,0,85,0,1,,
,,,,,,,,,,,,5f6e0be76cea482e27d38c95,21,Mężczyzna,2022-06-25_15h32.49.617,task,2021.1.4,Win32,143.8021283,6299f149e92ead563fba08ef,62b70e44376dedcfaf3f02d8,,,,,,,,,,,,,,,,,,,,,,,,,,,,,,,,,,,,,,,,,,,,,,,,,,,,,,,,,,,,,,,,,,,,,,,,,,,,,,,,,,,,,,,,,,,,"[""period""]",0,[0.23019999998803087],86,0,86,0,1,,
,,,,,,,,,,,,5f6e0be76cea482e27d38c95,21,Mężczyzna,2022-06-25_15h32.49.617,task,2021.1.4,Win32,143.8021283,6299f149e92ead563fba08ef,62b70e44376dedcfaf3f02d8,,,,,,,,,,,,,,,,,,,,,,,,,,,,,,,,,,,,,,,,,,,,,,,,,,,,,,,,,,,,,,,,,,,,,,,,,,,,,,,,,,,,,,,,,,,,"[""comma""]",0,[0.24419999998804087],87,0,87,0,1,,
,,,,,,,,,,,,5f6e0be76cea482e27d38c95,21,Mężczyzna,2022-06-25_15h32.49.617,task,2021.1.4,Win32,143.8021283,6299f149e92ead563fba08ef,62b70e44376dedcfaf3f02d8,,,,,,,,,,,,,,,,,,,,,,,,,,,,,,,,,,,,,,,,,,,,,,,,,,,,,,,,,,,,,,,,,,,,,,,,,,,,,,,,,,,,,,,,,,,,"[""period""]",0,[0.4743000000119082],88,0,88,0,1,,
,,,,,,,,,,,,5f6e0be76cea482e27d38c95,21,Mężczyzna,2022-06-25_15h32.49.617,task,2021.1.4,Win32,143.8021283,6299f149e92ead563fba08ef,62b70e44376dedcfaf3f02d8,,,,,,,,,,,,,,,,,,,,,,,,,,,,,,,,,,,,,,,,,,,,,,,,,,,,,,,,,,,,,,,,,,,,,,,,,,,,,,,,,,,,,,,,,,,,"[""comma""]",0,[0.31630000001189273],89,0,89,0,1,,
,,,,,,,,,,,,5f6e0be76cea482e27d38c95,21,Mężczyzna,2022-06-25_15h32.49.617,task,2021.1.4,Win32,143.8021283,6299f149e92ead563fba08ef,62b70e44376dedcfaf3f02d8,,,,,,,,,,,,,,,,,,,,,,,,,,,,,,,,,,,,,,,,,,,,,,,,,,,,,,,,,,,,,,,,,,,,,,,,,,,,,,,,,,,,,,,,,,,,"[""period""]",0,[0.4041999999881227],90,0,90,0,1,,
,,,,,,,,,,,,5f6e0be76cea482e27d38c95,21,Mężczyzna,2022-06-25_15h32.49.617,task,2021.1.4,Win32,143.8021283,6299f149e92ead563fba08ef,62b70e44376dedcfaf3f02d8,,,,,,,,,,,,,,,,,,,,,,,,,,,,,,,,,,,,,,,,,,,,,,,,,,,,,,,,,,,,,,,,,,,,,,,,,,,,,,,,,,,,,,,,,,,,"[""comma""]",0,[0.23530000001187545],91,0,91,0,1,,
,,,,,,,,,,,,5f6e0be76cea482e27d38c95,21,Mężczyzna,2022-06-25_15h32.49.617,task,2021.1.4,Win32,143.8021283,6299f149e92ead563fba08ef,62b70e44376dedcfaf3f02d8,,,,,,,,,,,,,,,,,,,,,,,,,,,,,,,,,,,,,,,,,,,,,,,,,,,,,,,,,,,,,,,,,,,,,,,,,,,,,,,,,,,,,,,,,,,,"[""comma""]",0,[0.2651999999881127],92,0,92,0,1,,
,,,,,,,,,,,,5f6e0be76cea482e27d38c95,21,Mężczyzna,2022-06-25_15h32.49.617,task,2021.1.4,Win32,143.8021283,6299f149e92ead563fba08ef,62b70e44376dedcfaf3f02d8,,,,,,,,,,,,,,,,,,,,,,,,,,,,,,,,,,,,,,,,,,,,,,,,,,,,,,,,,,,,,,,,,,,,,,,,,,,,,,,,,,,,,,,,,,,,"[""comma""]",0,[0.22249999999996817],93,0,93,0,1,,
,,,,,,,,,,,,5f6e0be76cea482e27d38c95,21,Mężczyzna,2022-06-25_15h32.49.617,task,2021.1.4,Win32,143.8021283,6299f149e92ead563fba08ef,62b70e44376dedcfaf3f02d8,,,,,,,,,,,,,,,,,,,,,,,,,,,,,,,,,,,,,,,,,,,,,,,,,,,,,,,,,,,,,,,,,,,,,,,,,,,,,,,,,,,,,,,,,,,,"[""period""]",0,[0.3663999999761245],94,0,94,0,1,,
,,,,,,,,,,,,5f6e0be76cea482e27d38c95,21,Mężczyzna,2022-06-25_15h32.49.617,task,2021.1.4,Win32,143.8021283,6299f149e92ead563fba08ef,62b70e44376dedcfaf3f02d8,,,,,,,,,,,,,,,,,,,,,,,,,,,,,,,,,,,,,,,,,,,,,,,,,,,,,,,,,,,,,,,,,,,,,,,,,,,,,,,,,,,,,,,,,,,,"[""period""]",0,[0.23699999999996635],95,0,95,0,1,,
,,,,,,,,,,,,5f6e0be76cea482e27d38c95,21,Mężczyzna,2022-06-25_15h32.49.617,task,2021.1.4,Win32,143.8021283,6299f149e92ead563fba08ef,62b70e44376dedcfaf3f02d8,,,,,,,,,,,,,,,,,,,,,,,,,,,,,,,,,,,,,,,,,,,,,,,,,,,,,,,,,,,,,,,,,,,,,,,,,,,,,,,,,,,,,,,,,,,,"[""comma""]",0,[0.2051999999880536],96,0,96,0,1,,
,,,,,,,,,,,,5f6e0be76cea482e27d38c95,21,Mężczyzna,2022-06-25_15h32.49.617,task,2021.1.4,Win32,143.8021283,6299f149e92ead563fba08ef,62b70e44376dedcfaf3f02d8,,,,,,,,,,,,,,,,,,,,,,,,,,,,,,,,,,,,,,,,,,,,,,,,,,,,,,,,,,,,,,,,,,,,,,,,,,,,,,,,,,,,,,,,,,,,"[""period""]",0,[0.007400000035772791],97,0,97,0,1,,
,,,,,,,,,,,,5f6e0be76cea482e27d38c95,21,Mężczyzna,2022-06-25_15h32.49.617,task,2021.1.4,Win32,143.8021283,6299f149e92ead563fba08ef,62b70e44376dedcfaf3f02d8,,,,,,,,,,,,,,,,,,,,,,,,,,,,,,,,,,,,,,,,,,,,,,,,,,,,,,,,,,,,,,,,,,,,,,,,,,,,,,,,,,,,,,,,,,,,"[""period""]",0,[1.8971999999880609],98,0,98,0,1,,
,,,,,,,,,,,,5f6e0be76cea482e27d38c95,21,Mężczyzna,2022-06-25_15h32.49.617,task,2021.1.4,Win32,143.8021283,6299f149e92ead563fba08ef,62b70e44376dedcfaf3f02d8,,,,,,,,,,,,,,,,,,,,,,,,,,,,,,,,,,,,,,,,,,,,,,,,,,,,,,,,,,,,,,,,,,,,,,,,,,,,,,,,,,,,,,,,,,,,,0,,99,0,99,0,1,,
,,,,,,,,,,,,5f6e0be76cea482e27d38c95,21,Mężczyzna,2022-06-25_15h32.49.617,task,2021.1.4,Win32,143.8021283,6299f149e92ead563fba08ef,62b70e44376dedcfaf3f02d8,,,,,,,,,,,,,,,,,,,,,,,,,,,,,,,,,,,,,,,,,,,,,,,,,,,,,,,,,,,,,,,,,,,,,,,,,,,,,,,,,,,,,,,,,,,,"[""period""]",0,[0.014300000011871816],100,0,100,0,1,,
,,,,,,,,,,,,5f6e0be76cea482e27d38c95,21,Mężczyzna,2022-06-25_15h32.49.617,task,2021.1.4,Win32,143.8021283,6299f149e92ead563fba08ef,62b70e44376dedcfaf3f02d8,,,,,,,,,,,,,,,,,,,,,,,,,,,,,,,,,,,,,,,,,,,,,,,,,,,,,,,,,,,,,,,,,,,,,,,,,,,,,,,,,,,,,,,,,,,,"[""comma""]",0,[0.34050000000002],101,0,101,0,1,,
,,,,,,,,,,,,5f6e0be76cea482e27d38c95,21,Mężczyzna,2022-06-25_15h32.49.617,task,2021.1.4,Win32,143.8021283,6299f149e92ead563fba08ef,62b70e44376dedcfaf3f02d8,,,,,,,,,,,,,,,,,,,,,,,,,,,,,,,,,,,,,,,,,,,,,,,,,,,,,,,,,,,,,,,,,,,,,,,,,,,,,,,,,,,,,,,,,,,,"[""period""]",0,[0.2623000000119191],102,0,102,0,1,,
,,,,,,,,,,,,5f6e0be76cea482e27d38c95,21,Mężczyzna,2022-06-25_15h32.49.617,task,2021.1.4,Win32,143.8021283,6299f149e92ead563fba08ef,62b70e44376dedcfaf3f02d8,,,,,,,,,,,,,,,,,,,,,,,,,,,,,,,,,,,,,,,,,,,,,,,,,,,,,,,,,,,,,,,,,,,,,,,,,,,,,,,,,,,,,,,,,,,,"[""comma""]",0,[0.32720000004769645],103,0,103,0,1,,
,,,,,,,,,,,,5f6e0be76cea482e27d38c95,21,Mężczyzna,2022-06-25_15h32.49.617,task,2021.1.4,Win32,143.8021283,6299f149e92ead563fba08ef,62b70e44376dedcfaf3f02d8,,,,,,,,,,,,,,,,,,,,,,,,,,,,,,,,,,,,,,,,,,,,,,,,,,,,,,,,,,,,,,,,,,,,,,,,,,,,,,,,,,,,,,,,,,,,"[""comma""]",0,[0.64810000002376],104,0,104,0,1,,
,,,,,,,,,,,,5f6e0be76cea482e27d38c95,21,Mężczyzna,2022-06-25_15h32.49.617,task,2021.1.4,Win32,143.8021283,6299f149e92ead563fba08ef,62b70e44376dedcfaf3f02d8,,,,,,,,,,,,,,,,,,,,,,,,,,,,,,,,,,,,,,,,,,,,,,,,,,,,,,,,,,,,,,,,,,,,,,,,,,,,,,,,,,,,,,,,,,,,"[""comma""]",0,[0.2573999999762009],105,0,105,0,1,,
,,,,,,,,,,,,5f6e0be76cea482e27d38c95,21,Mężczyzna,2022-06-25_15h32.49.617,task,2021.1.4,Win32,143.8021283,6299f149e92ead563fba08ef,62b70e44376dedcfaf3f02d8,,,,,,,,,,,,,,,,,,,,,,,,,,,,,,,,,,,,,,,,,,,,,,,,,,,,,,,,,,,,,,,,,,,,,,,,,,,,,,,,,,,,,,,,,,,,"[""comma""]",0,[0.24110000002383458],106,0,106,0,1,,
,,,,,,,,,,,,5f6e0be76cea482e27d38c95,21,Mężczyzna,2022-06-25_15h32.49.617,task,2021.1.4,Win32,143.8021283,6299f149e92ead563fba08ef,62b70e44376dedcfaf3f02d8,,,,,,,,,,,,,,,,,,,,,,,,,,,,,,,,,,,,,,,,,,,,,,,,,,,,,,,,,,,,,,,,,,,,,,,,,,,,,,,,,,,,,,,,,,,,"[""comma"",""period""]",0,"[0.10719999998809726,1.6693000000119582]",107,0,107,0,1,,
,,,,,,,,,,,,5f6e0be76cea482e27d38c95,21,Mężczyzna,2022-06-25_15h32.49.617,task,2021.1.4,Win32,143.8021283,6299f149e92ead563fba08ef,62b70e44376dedcfaf3f02d8,,,,,,,,,,,,,,,,,,,,,,,,,,,,,,,,,,,,,,,,,,,,,,,,,,,,,,,,,,,,,,,,,,,,,,,,,,,,,,,,,,,,,,,,,,,,"[""comma""]",0,[1.9911999999879981],108,0,108,0,1,,
,,,,,,,,,,,,5f6e0be76cea482e27d38c95,21,Mężczyzna,2022-06-25_15h32.49.617,task,2021.1.4,Win32,143.8021283,6299f149e92ead563fba08ef,62b70e44376dedcfaf3f02d8,,,,,,,,,,,,,,,,,,,,,,,,,,,,,,,,,,,,,,,,,,,,,,,,,,,,,,,,,,,,,,,,,,,,,,,,,,,,,,,,,,,,,,,,,,,,,0,,109,0,109,0,1,,
,,,,,,,,,,,,5f6e0be76cea482e27d38c95,21,Mężczyzna,2022-06-25_15h32.49.617,task,2021.1.4,Win32,143.8021283,6299f149e92ead563fba08ef,62b70e44376dedcfaf3f02d8,,,,,,,,,,,,,,,,,,,,,,,,,,,,,,,,,,,,,,,,,,,,,,,,,,,,,,,,,,,,,,,,,,,,,,,,,,,,,,,,,,,,,,,,,,,,"[""period""]",0,[0.19799999999997908],110,0,110,0,1,,
,,,,,,,,,,,,5f6e0be76cea482e27d38c95,21,Mężczyzna,2022-06-25_15h32.49.617,task,2021.1.4,Win32,143.8021283,6299f149e92ead563fba08ef,62b70e44376dedcfaf3f02d8,,,,,,,,,,,,,,,,,,,,,,,,,,,,,,,,,,,,,,,,,,,,,,,,,,,,,,,,,,,,,,,,,,,,,,,,,,,,,,,,,,,,,,,,,,,,"[""comma""]",0,[0.3664000000356964],111,0,111,0,1,,
,,,,,,,,,,,,5f6e0be76cea482e27d38c95,21,Mężczyzna,2022-06-25_15h32.49.617,task,2021.1.4,Win32,143.8021283,6299f149e92ead563fba08ef,62b70e44376dedcfaf3f02d8,,,,,,,,,,,,,,,,,,,,,,,,,,,,,,,,,,,,,,,,,,,,,,,,,,,,,,,,,,,,,,,,,,,,,,,,,,,,,,,,,,,,,,,,,,,,"[""comma""]",0,[0.2876999999881491],112,0,112,0,1,,
,,,,,,,,,,,,5f6e0be76cea482e27d38c95,21,Mężczyzna,2022-06-25_15h32.49.617,task,2021.1.4,Win32,143.8021283,6299f149e92ead563fba08ef,62b70e44376dedcfaf3f02d8,,,,,,,,,,,,,,,,,,,,,,,,,,,,,,,,,,,,,,,,,,,,,,,,,,,,,,,,,,,,,,,,,,,,,,,,,,,,,,,,,,,,,,,,,,,,"[""period""]",0,[0.20389999997610175],113,0,113,0,1,,
,,,,,,,,,,,,5f6e0be76cea482e27d38c95,21,Mężczyzna,2022-06-25_15h32.49.617,task,2021.1.4,Win32,143.8021283,6299f149e92ead563fba08ef,62b70e44376dedcfaf3f02d8,,,,,,,,,,,,,,,,,,,,,,,,,,,,,,,,,,,,,,,,,,,,,,,,,,,,,,,,,,,,,,,,,,,,,,,,,,,,,,,,,,,,,,,,,,,,"[""comma""]",0,[0.205799999952319],114,0,114,0,1,,
,,,,,,,,,,,,5f6e0be76cea482e27d38c95,21,Mężczyzna,2022-06-25_15h32.49.617,task,2021.1.4,Win32,143.8021283,6299f149e92ead563fba08ef,62b70e44376dedcfaf3f02d8,,,,,,,,,,,,,,,,,,,,,,,,,,,,,,,,,,,,,,,,,,,,,,,,,,,,,,,,,,,,,,,,,,,,,,,,,,,,,,,,,,,,,,,,,,,,"[""period""]",0,[0.059899999976096296],115,0,115,0,1,,
,,,,,,,,,,,,5f6e0be76cea482e27d38c95,21,Mężczyzna,2022-06-25_15h32.49.617,task,2021.1.4,Win32,143.8021283,6299f149e92ead563fba08ef,62b70e44376dedcfaf3f02d8,,,,,,,,,,,,,,,,,,,,,,,,,,,,,,,,,,,,,,,,,,,,,,,,,,,,,,,,,,,,,,,,,,,,,,,,,,,,,,,,,,,,,,,,,,,,"[""period""]",0,[0.18199999999990268],116,0,116,0,1,,
,,,,,,,,,,,,5f6e0be76cea482e27d38c95,21,Mężczyzna,2022-06-25_15h32.49.617,task,2021.1.4,Win32,143.8021283,6299f149e92ead563fba08ef,62b70e44376dedcfaf3f02d8,,,,,,,,,,,,,,,,,,,,,,,,,,,,,,,,,,,,,,,,,,,,,,,,,,,,,,,,,,,,,,,,,,,,,,,,,,,,,,,,,,,,,,,,,,,,"[""period""]",0,[0.21220000004768735],117,0,117,0,1,,
,,,,,,,,,,,,5f6e0be76cea482e27d38c95,21,Mężczyzna,2022-06-25_15h32.49.617,task,2021.1.4,Win32,143.8021283,6299f149e92ead563fba08ef,62b70e44376dedcfaf3f02d8,,,,,,,,,,,,,,,,,,,,,,,,,,,,,,,,,,,,,,,,,,,,,,,,,,,,,,,,,,,,,,,,,,,,,,,,,,,,,,,,,,,,,,,,,,,,"[""comma""]",0,[0.12289999997608447],118,0,118,0,1,,
,,,,,,,,,,,,5f6e0be76cea482e27d38c95,21,Mężczyzna,2022-06-25_15h32.49.617,task,2021.1.4,Win32,143.8021283,6299f149e92ead563fba08ef,62b70e44376dedcfaf3f02d8,,,,,,,,,,,,,,,,,,,,,,,,,,,,,,,,,,,,,,,,,,,,,,,,,,,,,,,,,,,,,,,,,,,,,,,,,,,,,,,,,,,,,,,,,,,,"[""period"",""period""]",0,"[0.05119999998805724,1.9838999999760745]",119,0,119,0,1,,
,,,,,,,,,,,,5f6e0be76cea482e27d38c95,21,Mężczyzna,2022-06-25_15h32.49.617,task,2021.1.4,Win32,143.8021283,6299f149e92ead563fba08ef,62b70e44376dedcfaf3f02d8,,,,,,,,,,,,,,,,,,,,,,,,,,,,,,,,,,,,,,,,,,,,,,,,,,,,,,,,,,,,,,,,,,,,,,,,,,,,,,,,,,,,,,,,,,,,,,,,,,,,space,3.0537
