key_resp_15.keys,key_resp_15.rt,key_resp_16.keys,key_resp_16.rt,key_resp_4.keys,key_resp_4.rt,next_letter.thisRepN,next_letter.thisTrialN,next_letter.thisN,next_letter.thisIndex,next_letter.ran,letter,participant,Wiek*,Płeć,date,expName,psychopyVersion,OS,frameRate,study_id,session,simple_recall,key_resp_5.keys,key_resp_5.rt,simple_recall_corr,simple_recall_corrkeys,next_level.thisRepN,next_level.thisTrialN,next_level.thisN,next_level.thisIndex,next_level.ran,key_resp_2.keys,key_resp_2.rt,digit_answer,key_resp.keys,key_resp.corr,key_resp.rt,RT_list,next_equation.thisRepN,next_equation.thisTrialN,next_equation.thisN,next_equation.thisIndex,next_equation.ran,Task,Trial,Problem,Operation_answer,processing_score,sumRT,meanRT,sumdiff,sd,RT,key_resp_3.keys,key_resp_3.rt,repeat_practice.thisRepN,repeat_practice.thisTrialN,repeat_practice.thisN,repeat_practice.thisIndex,repeat_practice.ran,key_resp_6.keys,key_resp_6.rt,key_resp_11.keys,key_resp_11.corr,key_resp_11.rt,operation_correct,repeat_if_wrong_prac.thisRepN,repeat_if_wrong_prac.thisTrialN,repeat_if_wrong_prac.thisN,repeat_if_wrong_prac.thisIndex,repeat_if_wrong_prac.ran,span_size_prac.thisRepN,span_size_prac.thisTrialN,span_size_prac.thisN,span_size_prac.thisIndex,span_size_prac.ran,complex_recall_practice,key_resp_9.keys,key_resp_9.corr,key_resp_9.rt,complex_prac_corr,span_recall_prac.thisRepN,span_recall_prac.thisTrialN,span_recall_prac.thisN,span_recall_prac.thisIndex,span_recall_prac.ran,key_resp_10.keys,key_resp_10.rt,key_resp_7.keys,key_resp_7.corr,key_resp_7.rt,repeat_if_wrong.thisRepN,repeat_if_wrong.thisTrialN,repeat_if_wrong.thisN,repeat_if_wrong.thisIndex,repeat_if_wrong.ran,span_size.thisRepN,span_size.thisTrialN,span_size.thisN,span_size.thisIndex,span_size.ran,complex_recall,key_resp_8.keys,key_resp_8.corr,key_resp_8.rt,complex_recall_corr,complex_recall_corrkeys,span_recall.thisRepN,span_recall.thisTrialN,span_recall.thisN,span_recall.thisIndex,span_recall.ran,key_resp_13.keys,key_resp_13.corr,key_resp_13.rt,random_loop.thisRepN,random_loop.thisTrialN,random_loop.thisN,random_loop.thisIndex,random_loop.ran,key_resp_12.keys,key_resp_12.rt
space,12.061,space,22.354,space,8.898,0,0,0,0,1,X V Q F H G B L J M P D K C T S W R N Z,5f70f2daea9a9f7076484982,38,Kobieta,2022-06-25_15h33.04.873,task,2021.1.4,Win32,60.0240096,6299f149e92ead563fba08ef,62b70e4589fe82b3a0170f2d,,,,,,,,,,,,,,,,,,,,,,,,,,,,,,,,,,,,,,,,,,,,,,,,,,,,,,,,,,,,,,,,,,,,,,,,,,,,,,,,,,,,,,,,,,,,,,,,,,,,,
,,,,,,1,0,1,0,1,X V Q F H G B L J M P D K C T S W R N Z,5f70f2daea9a9f7076484982,38,Kobieta,2022-06-25_15h33.04.873,task,2021.1.4,Win32,60.0240096,6299f149e92ead563fba08ef,62b70e4589fe82b3a0170f2d,,,,,,,,,,,,,,,,,,,,,,,,,,,,,,,,,,,,,,,,,,,,,,,,,,,,,,,,,,,,,,,,,,,,,,,,,,,,,,,,,,,,,,,,,,,,,,,,,,,,,
,,,,,,,,,,,,5f70f2daea9a9f7076484982,38,Kobieta,2022-06-25_15h33.04.873,task,2021.1.4,Win32,60.0240096,6299f149e92ead563fba08ef,62b70e4589fe82b3a0170f2d,zn,"[""z"",""n""]","[1.7959999999999994,2.428999999999995,4.044000000000004]",1,ZN,0,0,0,0,1,,,,,,,,,,,,,,,,,,,,,,,,,,,,,,,,,,,,,,,,,,,,,,,,,,,,,,,,,,,,,,,,,,,,,,,,,,,,,,,,,,,,,,,,,,,
,,,,,,0,0,0,0,1,X V Q F H G B L J M P D K C T S W R N Z,5f70f2daea9a9f7076484982,38,Kobieta,2022-06-25_15h33.04.873,task,2021.1.4,Win32,60.0240096,6299f149e92ead563fba08ef,62b70e4589fe82b3a0170f2d,,,,,,,,,,,,,,,,,,,,,,,,,,,,,,,,,,,,,,,,,,,,,,,,,,,,,,,,,,,,,,,,,,,,,,,,,,,,,,,,,,,,,,,,,,,,,,,,,,,,,
,,,,,,1,0,1,0,1,X V Q F H G B L J M P D K C T S W R N Z,5f70f2daea9a9f7076484982,38,Kobieta,2022-06-25_15h33.04.873,task,2021.1.4,Win32,60.0240096,6299f149e92ead563fba08ef,62b70e4589fe82b3a0170f2d,,,,,,,,,,,,,,,,,,,,,,,,,,,,,,,,,,,,,,,,,,,,,,,,,,,,,,,,,,,,,,,,,,,,,,,,,,,,,,,,,,,,,,,,,,,,,,,,,,,,,
,,,,,,,,,,,,5f70f2daea9a9f7076484982,38,Kobieta,2022-06-25_15h33.04.873,task,2021.1.4,Win32,60.0240096,6299f149e92ead563fba08ef,62b70e4589fe82b3a0170f2d,sm,"[""s"",""m""]","[1.2650000000000006,1.9150000000000063,3.316999999999993]",1,SM,1,0,1,0,1,,,,,,,,,,,,,,,,,,,,,,,,,,,,,,,,,,,,,,,,,,,,,,,,,,,,,,,,,,,,,,,,,,,,,,,,,,,,,,,,,,,,,,,,,,,
,,,,,,0,0,0,0,1,X V Q F H G B L J M P D K C T S W R N Z,5f70f2daea9a9f7076484982,38,Kobieta,2022-06-25_15h33.04.873,task,2021.1.4,Win32,60.0240096,6299f149e92ead563fba08ef,62b70e4589fe82b3a0170f2d,,,,,,,,,,,,,,,,,,,,,,,,,,,,,,,,,,,,,,,,,,,,,,,,,,,,,,,,,,,,,,,,,,,,,,,,,,,,,,,,,,,,,,,,,,,,,,,,,,,,,
,,,,,,1,0,1,0,1,X V Q F H G B L J M P D K C T S W R N Z,5f70f2daea9a9f7076484982,38,Kobieta,2022-06-25_15h33.04.873,task,2021.1.4,Win32,60.0240096,6299f149e92ead563fba08ef,62b70e4589fe82b3a0170f2d,,,,,,,,,,,,,,,,,,,,,,,,,,,,,,,,,,,,,,,,,,,,,,,,,,,,,,,,,,,,,,,,,,,,,,,,,,,,,,,,,,,,,,,,,,,,,,,,,,,,,
,,,,,,2,0,2,0,1,X V Q F H G B L J M P D K C T S W R N Z,5f70f2daea9a9f7076484982,38,Kobieta,2022-06-25_15h33.04.873,task,2021.1.4,Win32,60.0240096,6299f149e92ead563fba08ef,62b70e4589fe82b3a0170f2d,,,,,,,,,,,,,,,,,,,,,,,,,,,,,,,,,,,,,,,,,,,,,,,,,,,,,,,,,,,,,,,,,,,,,,,,,,,,,,,,,,,,,,,,,,,,,,,,,,,,,
,,,,,,,,,,,,5f70f2daea9a9f7076484982,38,Kobieta,2022-06-25_15h33.04.873,task,2021.1.4,Win32,60.0240096,6299f149e92ead563fba08ef,62b70e4589fe82b3a0170f2d,nxm,"[""n"",""x"",""m""]","[1.9980000000000047,2.450000000000003,3.182000000000002,3.9000000000000057]",1,NXM,2,0,2,0,1,,,,,,,,,,,,,,,,,,,,,,,,,,,,,,,,,,,,,,,,,,,,,,,,,,,,,,,,,,,,,,,,,,,,,,,,,,,,,,,,,,,,,,,,,,,
,,,,,,0,0,0,0,1,X V Q F H G B L J M P D K C T S W R N Z,5f70f2daea9a9f7076484982,38,Kobieta,2022-06-25_15h33.04.873,task,2021.1.4,Win32,60.0240096,6299f149e92ead563fba08ef,62b70e4589fe82b3a0170f2d,,,,,,,,,,,,,,,,,,,,,,,,,,,,,,,,,,,,,,,,,,,,,,,,,,,,,,,,,,,,,,,,,,,,,,,,,,,,,,,,,,,,,,,,,,,,,,,,,,,,,
,,,,,,1,0,1,0,1,X V Q F H G B L J M P D K C T S W R N Z,5f70f2daea9a9f7076484982,38,Kobieta,2022-06-25_15h33.04.873,task,2021.1.4,Win32,60.0240096,6299f149e92ead563fba08ef,62b70e4589fe82b3a0170f2d,,,,,,,,,,,,,,,,,,,,,,,,,,,,,,,,,,,,,,,,,,,,,,,,,,,,,,,,,,,,,,,,,,,,,,,,,,,,,,,,,,,,,,,,,,,,,,,,,,,,,
,,,,,,2,0,2,0,1,X V Q F H G B L J M P D K C T S W R N Z,5f70f2daea9a9f7076484982,38,Kobieta,2022-06-25_15h33.04.873,task,2021.1.4,Win32,60.0240096,6299f149e92ead563fba08ef,62b70e4589fe82b3a0170f2d,,,,,,,,,,,,,,,,,,,,,,,,,,,,,,,,,,,,,,,,,,,,,,,,,,,,,,,,,,,,,,,,,,,,,,,,,,,,,,,,,,,,,,,,,,,,,,,,,,,,,
,,,,,,,,,,,,5f70f2daea9a9f7076484982,38,Kobieta,2022-06-25_15h33.04.873,task,2021.1.4,Win32,60.0240096,6299f149e92ead563fba08ef,62b70e4589fe82b3a0170f2d,xnv,"[""x"",""n"",""v""]","[1.347999999999999,1.9369999999999976,2.4399999999999977,3.5829999999999984]",1,XNV,3,0,3,0,1,,,,,,,,,,,,,,,,,,,,,,,,,,,,,,,,,,,,,,,,,,,,,,,,,,,,,,,,,,,,,,,,,,,,,,,,,,,,,,,,,,,,,,,,,,,
,,,,,,0,0,0,0,1,X V Q F H G B L J M P D K C T S W R N Z,5f70f2daea9a9f7076484982,38,Kobieta,2022-06-25_15h33.04.873,task,2021.1.4,Win32,60.0240096,6299f149e92ead563fba08ef,62b70e4589fe82b3a0170f2d,,,,,,,,,,,,,,,,,,,,,,,,,,,,,,,,,,,,,,,,,,,,,,,,,,,,,,,,,,,,,,,,,,,,,,,,,,,,,,,,,,,,,,,,,,,,,,,,,,,,,
,,,,,,1,0,1,0,1,X V Q F H G B L J M P D K C T S W R N Z,5f70f2daea9a9f7076484982,38,Kobieta,2022-06-25_15h33.04.873,task,2021.1.4,Win32,60.0240096,6299f149e92ead563fba08ef,62b70e4589fe82b3a0170f2d,,,,,,,,,,,,,,,,,,,,,,,,,,,,,,,,,,,,,,,,,,,,,,,,,,,,,,,,,,,,,,,,,,,,,,,,,,,,,,,,,,,,,,,,,,,,,,,,,,,,,
,,,,,,2,0,2,0,1,X V Q F H G B L J M P D K C T S W R N Z,5f70f2daea9a9f7076484982,38,Kobieta,2022-06-25_15h33.04.873,task,2021.1.4,Win32,60.0240096,6299f149e92ead563fba08ef,62b70e4589fe82b3a0170f2d,,,,,,,,,,,,,,,,,,,,,,,,,,,,,,,,,,,,,,,,,,,,,,,,,,,,,,,,,,,,,,,,,,,,,,,,,,,,,,,,,,,,,,,,,,,,,,,,,,,,,
,,,,,,3,0,3,0,1,X V Q F H G B L J M P D K C T S W R N Z,5f70f2daea9a9f7076484982,38,Kobieta,2022-06-25_15h33.04.873,task,2021.1.4,Win32,60.0240096,6299f149e92ead563fba08ef,62b70e4589fe82b3a0170f2d,,,,,,,,,,,,,,,,,,,,,,,,,,,,,,,,,,,,,,,,,,,,,,,,,,,,,,,,,,,,,,,,,,,,,,,,,,,,,,,,,,,,,,,,,,,,,,,,,,,,,
,,,,,,,,,,,,5f70f2daea9a9f7076484982,38,Kobieta,2022-06-25_15h33.04.873,task,2021.1.4,Win32,60.0240096,6299f149e92ead563fba08ef,62b70e4589fe82b3a0170f2d,psdb,"[""p"",""s"",""d"",""b""]","[1.1470000000000056,1.6509999999999962,2.3810000000000002,2.7860000000000014,3.468999999999994]",1,PSDB,4,0,4,0,1,,,,,,,,,,,,,,,,,,,,,,,,,,,,,,,,,,,,,,,,,,,,,,,,,,,,,,,,,,,,,,,,,,,,,,,,,,,,,,,,,,,,,,,,,,,
,,,,,,0,0,0,0,1,X V Q F H G B L J M P D K C T S W R N Z,5f70f2daea9a9f7076484982,38,Kobieta,2022-06-25_15h33.04.873,task,2021.1.4,Win32,60.0240096,6299f149e92ead563fba08ef,62b70e4589fe82b3a0170f2d,,,,,,,,,,,,,,,,,,,,,,,,,,,,,,,,,,,,,,,,,,,,,,,,,,,,,,,,,,,,,,,,,,,,,,,,,,,,,,,,,,,,,,,,,,,,,,,,,,,,,
,,,,,,1,0,1,0,1,X V Q F H G B L J M P D K C T S W R N Z,5f70f2daea9a9f7076484982,38,Kobieta,2022-06-25_15h33.04.873,task,2021.1.4,Win32,60.0240096,6299f149e92ead563fba08ef,62b70e4589fe82b3a0170f2d,,,,,,,,,,,,,,,,,,,,,,,,,,,,,,,,,,,,,,,,,,,,,,,,,,,,,,,,,,,,,,,,,,,,,,,,,,,,,,,,,,,,,,,,,,,,,,,,,,,,,
,,,,,,2,0,2,0,1,X V Q F H G B L J M P D K C T S W R N Z,5f70f2daea9a9f7076484982,38,Kobieta,2022-06-25_15h33.04.873,task,2021.1.4,Win32,60.0240096,6299f149e92ead563fba08ef,62b70e4589fe82b3a0170f2d,,,,,,,,,,,,,,,,,,,,,,,,,,,,,,,,,,,,,,,,,,,,,,,,,,,,,,,,,,,,,,,,,,,,,,,,,,,,,,,,,,,,,,,,,,,,,,,,,,,,,
,,,,,,3,0,3,0,1,X V Q F H G B L J M P D K C T S W R N Z,5f70f2daea9a9f7076484982,38,Kobieta,2022-06-25_15h33.04.873,task,2021.1.4,Win32,60.0240096,6299f149e92ead563fba08ef,62b70e4589fe82b3a0170f2d,,,,,,,,,,,,,,,,,,,,,,,,,,,,,,,,,,,,,,,,,,,,,,,,,,,,,,,,,,,,,,,,,,,,,,,,,,,,,,,,,,,,,,,,,,,,,,,,,,,,,
,,,,,,,,,,,,5f70f2daea9a9f7076484982,38,Kobieta,2022-06-25_15h33.04.873,task,2021.1.4,Win32,60.0240096,6299f149e92ead563fba08ef,62b70e4589fe82b3a0170f2d,xnfv,"[""x"",""n"",""f"",""v""]","[1.9819999999999993,2.665999999999997,3.4299999999999926,4.1640000000000015,4.837000000000003]",1,XNFV,5,0,5,0,1,,,,,,,,,,,,,,,,,,,,,,,,,,,,,,,,,,,,,,,,,,,,,,,,,,,,,,,,,,,,,,,,,,,,,,,,,,,,,,,,,,,,,,,,,,,
,,,,,,0,0,0,0,1,X V Q F H G B L J M P D K C T S W R N Z,5f70f2daea9a9f7076484982,38,Kobieta,2022-06-25_15h33.04.873,task,2021.1.4,Win32,60.0240096,6299f149e92ead563fba08ef,62b70e4589fe82b3a0170f2d,,,,,,,,,,,,,,,,,,,,,,,,,,,,,,,,,,,,,,,,,,,,,,,,,,,,,,,,,,,,,,,,,,,,,,,,,,,,,,,,,,,,,,,,,,,,,,,,,,,,,
,,,,,,1,0,1,0,1,X V Q F H G B L J M P D K C T S W R N Z,5f70f2daea9a9f7076484982,38,Kobieta,2022-06-25_15h33.04.873,task,2021.1.4,Win32,60.0240096,6299f149e92ead563fba08ef,62b70e4589fe82b3a0170f2d,,,,,,,,,,,,,,,,,,,,,,,,,,,,,,,,,,,,,,,,,,,,,,,,,,,,,,,,,,,,,,,,,,,,,,,,,,,,,,,,,,,,,,,,,,,,,,,,,,,,,
,,,,,,2,0,2,0,1,X V Q F H G B L J M P D K C T S W R N Z,5f70f2daea9a9f7076484982,38,Kobieta,2022-06-25_15h33.04.873,task,2021.1.4,Win32,60.0240096,6299f149e92ead563fba08ef,62b70e4589fe82b3a0170f2d,,,,,,,,,,,,,,,,,,,,,,,,,,,,,,,,,,,,,,,,,,,,,,,,,,,,,,,,,,,,,,,,,,,,,,,,,,,,,,,,,,,,,,,,,,,,,,,,,,,,,
,,,,,,3,0,3,0,1,X V Q F H G B L J M P D K C T S W R N Z,5f70f2daea9a9f7076484982,38,Kobieta,2022-06-25_15h33.04.873,task,2021.1.4,Win32,60.0240096,6299f149e92ead563fba08ef,62b70e4589fe82b3a0170f2d,,,,,,,,,,,,,,,,,,,,,,,,,,,,,,,,,,,,,,,,,,,,,,,,,,,,,,,,,,,,,,,,,,,,,,,,,,,,,,,,,,,,,,,,,,,,,,,,,,,,,
,,,,,,4,0,4,0,1,X V Q F H G B L J M P D K C T S W R N Z,5f70f2daea9a9f7076484982,38,Kobieta,2022-06-25_15h33.04.873,task,2021.1.4,Win32,60.0240096,6299f149e92ead563fba08ef,62b70e4589fe82b3a0170f2d,,,,,,,,,,,,,,,,,,,,,,,,,,,,,,,,,,,,,,,,,,,,,,,,,,,,,,,,,,,,,,,,,,,,,,,,,,,,,,,,,,,,,,,,,,,,,,,,,,,,,
,,,,,,,,,,,,5f70f2daea9a9f7076484982,38,Kobieta,2022-06-25_15h33.04.873,task,2021.1.4,Win32,60.0240096,6299f149e92ead563fba08ef,62b70e4589fe82b3a0170f2d,gnxlt,"[""g"",""n"",""x"",""l"",""t""]","[1.2970000000000113,1.6970000000000027,2.478999999999999,3.094999999999999,3.817999999999998,9.097000000000008]",1,GNXLT,6,0,6,0,1,,,,,,,,,,,,,,,,,,,,,,,,,,,,,,,,,,,,,,,,,,,,,,,,,,,,,,,,,,,,,,,,,,,,,,,,,,,,,,,,,,,,,,,,,,,
,,,,,,0,0,0,0,1,X V Q F H G B L J M P D K C T S W R N Z,5f70f2daea9a9f7076484982,38,Kobieta,2022-06-25_15h33.04.873,task,2021.1.4,Win32,60.0240096,6299f149e92ead563fba08ef,62b70e4589fe82b3a0170f2d,,,,,,,,,,,,,,,,,,,,,,,,,,,,,,,,,,,,,,,,,,,,,,,,,,,,,,,,,,,,,,,,,,,,,,,,,,,,,,,,,,,,,,,,,,,,,,,,,,,,,
,,,,,,1,0,1,0,1,X V Q F H G B L J M P D K C T S W R N Z,5f70f2daea9a9f7076484982,38,Kobieta,2022-06-25_15h33.04.873,task,2021.1.4,Win32,60.0240096,6299f149e92ead563fba08ef,62b70e4589fe82b3a0170f2d,,,,,,,,,,,,,,,,,,,,,,,,,,,,,,,,,,,,,,,,,,,,,,,,,,,,,,,,,,,,,,,,,,,,,,,,,,,,,,,,,,,,,,,,,,,,,,,,,,,,,
,,,,,,2,0,2,0,1,X V Q F H G B L J M P D K C T S W R N Z,5f70f2daea9a9f7076484982,38,Kobieta,2022-06-25_15h33.04.873,task,2021.1.4,Win32,60.0240096,6299f149e92ead563fba08ef,62b70e4589fe82b3a0170f2d,,,,,,,,,,,,,,,,,,,,,,,,,,,,,,,,,,,,,,,,,,,,,,,,,,,,,,,,,,,,,,,,,,,,,,,,,,,,,,,,,,,,,,,,,,,,,,,,,,,,,
,,,,,,3,0,3,0,1,X V Q F H G B L J M P D K C T S W R N Z,5f70f2daea9a9f7076484982,38,Kobieta,2022-06-25_15h33.04.873,task,2021.1.4,Win32,60.0240096,6299f149e92ead563fba08ef,62b70e4589fe82b3a0170f2d,,,,,,,,,,,,,,,,,,,,,,,,,,,,,,,,,,,,,,,,,,,,,,,,,,,,,,,,,,,,,,,,,,,,,,,,,,,,,,,,,,,,,,,,,,,,,,,,,,,,,
,,,,,,4,0,4,0,1,X V Q F H G B L J M P D K C T S W R N Z,5f70f2daea9a9f7076484982,38,Kobieta,2022-06-25_15h33.04.873,task,2021.1.4,Win32,60.0240096,6299f149e92ead563fba08ef,62b70e4589fe82b3a0170f2d,,,,,,,,,,,,,,,,,,,,,,,,,,,,,,,,,,,,,,,,,,,,,,,,,,,,,,,,,,,,,,,,,,,,,,,,,,,,,,,,,,,,,,,,,,,,,,,,,,,,,
,,,,,,,,,,,,5f70f2daea9a9f7076484982,38,Kobieta,2022-06-25_15h33.04.873,task,2021.1.4,Win32,60.0240096,6299f149e92ead563fba08ef,62b70e4589fe82b3a0170f2d,dwbpg,"[""d"",""w"",""b"",""p"",""g""]","[1.6000000000000085,1.86399999999999,2.769999999999982,3.313999999999993,3.7649999999999864,4.578999999999979]",0,DWPBG,7,0,7,0,1,,,,,,,,,,,,,,,,,,,,,,,,,,,,,,,,,,,,,,,,,,,,,,,,,,,,,,,,,,,,,,,,,,,,,,,,,,,,,,,,,,,,,,,,,,,
,,,,,,0,0,0,0,1,X V Q F H G B L J M P D K C T S W R N Z,5f70f2daea9a9f7076484982,38,Kobieta,2022-06-25_15h33.04.873,task,2021.1.4,Win32,60.0240096,6299f149e92ead563fba08ef,62b70e4589fe82b3a0170f2d,,,,,,,,,,,,,,,,,,,,,,,,,,,,,,,,,,,,,,,,,,,,,,,,,,,,,,,,,,,,,,,,,,,,,,,,,,,,,,,,,,,,,,,,,,,,,,,,,,,,,
,,,,,,1,0,1,0,1,X V Q F H G B L J M P D K C T S W R N Z,5f70f2daea9a9f7076484982,38,Kobieta,2022-06-25_15h33.04.873,task,2021.1.4,Win32,60.0240096,6299f149e92ead563fba08ef,62b70e4589fe82b3a0170f2d,,,,,,,,,,,,,,,,,,,,,,,,,,,,,,,,,,,,,,,,,,,,,,,,,,,,,,,,,,,,,,,,,,,,,,,,,,,,,,,,,,,,,,,,,,,,,,,,,,,,,
,,,,,,2,0,2,0,1,X V Q F H G B L J M P D K C T S W R N Z,5f70f2daea9a9f7076484982,38,Kobieta,2022-06-25_15h33.04.873,task,2021.1.4,Win32,60.0240096,6299f149e92ead563fba08ef,62b70e4589fe82b3a0170f2d,,,,,,,,,,,,,,,,,,,,,,,,,,,,,,,,,,,,,,,,,,,,,,,,,,,,,,,,,,,,,,,,,,,,,,,,,,,,,,,,,,,,,,,,,,,,,,,,,,,,,
,,,,,,3,0,3,0,1,X V Q F H G B L J M P D K C T S W R N Z,5f70f2daea9a9f7076484982,38,Kobieta,2022-06-25_15h33.04.873,task,2021.1.4,Win32,60.0240096,6299f149e92ead563fba08ef,62b70e4589fe82b3a0170f2d,,,,,,,,,,,,,,,,,,,,,,,,,,,,,,,,,,,,,,,,,,,,,,,,,,,,,,,,,,,,,,,,,,,,,,,,,,,,,,,,,,,,,,,,,,,,,,,,,,,,,
,,,,,,4,0,4,0,1,X V Q F H G B L J M P D K C T S W R N Z,5f70f2daea9a9f7076484982,38,Kobieta,2022-06-25_15h33.04.873,task,2021.1.4,Win32,60.0240096,6299f149e92ead563fba08ef,62b70e4589fe82b3a0170f2d,,,,,,,,,,,,,,,,,,,,,,,,,,,,,,,,,,,,,,,,,,,,,,,,,,,,,,,,,,,,,,,,,,,,,,,,,,,,,,,,,,,,,,,,,,,,,,,,,,,,,
,,,,,,,,,,,,5f70f2daea9a9f7076484982,38,Kobieta,2022-06-25_15h33.04.873,task,2021.1.4,Win32,60.0240096,6299f149e92ead563fba08ef,62b70e4589fe82b3a0170f2d,bjttl,"[""b"",""j"",""t"",""t"",""l""]","[1.2489999999999952,1.620999999999981,2.0649999999999977,2.2479999999999905,2.8479999999999848,3.4369999999999834]",1,BJTTL,8,0,8,0,1,,,,,,,,,,,,,,,,,,,,,,,,,,,,,,,,,,,,,,,,,,,,,,,,,,,,,,,,,,,,,,,,,,,,,,,,,,,,,,,,,,,,,,,,,,,
,,,,,,0,0,0,0,1,X V Q F H G B L J M P D K C T S W R N Z,5f70f2daea9a9f7076484982,38,Kobieta,2022-06-25_15h33.04.873,task,2021.1.4,Win32,60.0240096,6299f149e92ead563fba08ef,62b70e4589fe82b3a0170f2d,,,,,,,,,,,,,,,,,,,,,,,,,,,,,,,,,,,,,,,,,,,,,,,,,,,,,,,,,,,,,,,,,,,,,,,,,,,,,,,,,,,,,,,,,,,,,,,,,,,,,
,,,,,,1,0,1,0,1,X V Q F H G B L J M P D K C T S W R N Z,5f70f2daea9a9f7076484982,38,Kobieta,2022-06-25_15h33.04.873,task,2021.1.4,Win32,60.0240096,6299f149e92ead563fba08ef,62b70e4589fe82b3a0170f2d,,,,,,,,,,,,,,,,,,,,,,,,,,,,,,,,,,,,,,,,,,,,,,,,,,,,,,,,,,,,,,,,,,,,,,,,,,,,,,,,,,,,,,,,,,,,,,,,,,,,,
,,,,,,2,0,2,0,1,X V Q F H G B L J M P D K C T S W R N Z,5f70f2daea9a9f7076484982,38,Kobieta,2022-06-25_15h33.04.873,task,2021.1.4,Win32,60.0240096,6299f149e92ead563fba08ef,62b70e4589fe82b3a0170f2d,,,,,,,,,,,,,,,,,,,,,,,,,,,,,,,,,,,,,,,,,,,,,,,,,,,,,,,,,,,,,,,,,,,,,,,,,,,,,,,,,,,,,,,,,,,,,,,,,,,,,
,,,,,,3,0,3,0,1,X V Q F H G B L J M P D K C T S W R N Z,5f70f2daea9a9f7076484982,38,Kobieta,2022-06-25_15h33.04.873,task,2021.1.4,Win32,60.0240096,6299f149e92ead563fba08ef,62b70e4589fe82b3a0170f2d,,,,,,,,,,,,,,,,,,,,,,,,,,,,,,,,,,,,,,,,,,,,,,,,,,,,,,,,,,,,,,,,,,,,,,,,,,,,,,,,,,,,,,,,,,,,,,,,,,,,,
,,,,,,4,0,4,0,1,X V Q F H G B L J M P D K C T S W R N Z,5f70f2daea9a9f7076484982,38,Kobieta,2022-06-25_15h33.04.873,task,2021.1.4,Win32,60.0240096,6299f149e92ead563fba08ef,62b70e4589fe82b3a0170f2d,,,,,,,,,,,,,,,,,,,,,,,,,,,,,,,,,,,,,,,,,,,,,,,,,,,,,,,,,,,,,,,,,,,,,,,,,,,,,,,,,,,,,,,,,,,,,,,,,,,,,
,,,,,,5,0,5,0,1,X V Q F H G B L J M P D K C T S W R N Z,5f70f2daea9a9f7076484982,38,Kobieta,2022-06-25_15h33.04.873,task,2021.1.4,Win32,60.0240096,6299f149e92ead563fba08ef,62b70e4589fe82b3a0170f2d,,,,,,,,,,,,,,,,,,,,,,,,,,,,,,,,,,,,,,,,,,,,,,,,,,,,,,,,,,,,,,,,,,,,,,,,,,,,,,,,,,,,,,,,,,,,,,,,,,,,,
,,,,,,,,,,,,5f70f2daea9a9f7076484982,38,Kobieta,2022-06-25_15h33.04.873,task,2021.1.4,Win32,60.0240096,6299f149e92ead563fba08ef,62b70e4589fe82b3a0170f2d,sbjnq,"[""s"",""b"",""j"",""n"",""q""]","[1.0970000000000084,1.6470000000000198,1.997000000000014,9.516999999999996,12.343999999999994,13.125]",0,SBJCNQ,9,0,9,0,1,,,,,,,,,,,,,,,,,,,,,,,,,,,,,,,,,,,,,,,,,,,,,,,,,,,,,,,,,,,,,,,,,,,,,,,,,,,,,,,,,,,,,,,,,,,
,,,,,,0,0,0,0,1,X V Q F H G B L J M P D K C T S W R N Z,5f70f2daea9a9f7076484982,38,Kobieta,2022-06-25_15h33.04.873,task,2021.1.4,Win32,60.0240096,6299f149e92ead563fba08ef,62b70e4589fe82b3a0170f2d,,,,,,,,,,,,,,,,,,,,,,,,,,,,,,,,,,,,,,,,,,,,,,,,,,,,,,,,,,,,,,,,,,,,,,,,,,,,,,,,,,,,,,,,,,,,,,,,,,,,,
,,,,,,1,0,1,0,1,X V Q F H G B L J M P D K C T S W R N Z,5f70f2daea9a9f7076484982,38,Kobieta,2022-06-25_15h33.04.873,task,2021.1.4,Win32,60.0240096,6299f149e92ead563fba08ef,62b70e4589fe82b3a0170f2d,,,,,,,,,,,,,,,,,,,,,,,,,,,,,,,,,,,,,,,,,,,,,,,,,,,,,,,,,,,,,,,,,,,,,,,,,,,,,,,,,,,,,,,,,,,,,,,,,,,,,
,,,,,,2,0,2,0,1,X V Q F H G B L J M P D K C T S W R N Z,5f70f2daea9a9f7076484982,38,Kobieta,2022-06-25_15h33.04.873,task,2021.1.4,Win32,60.0240096,6299f149e92ead563fba08ef,62b70e4589fe82b3a0170f2d,,,,,,,,,,,,,,,,,,,,,,,,,,,,,,,,,,,,,,,,,,,,,,,,,,,,,,,,,,,,,,,,,,,,,,,,,,,,,,,,,,,,,,,,,,,,,,,,,,,,,
,,,,,,3,0,3,0,1,X V Q F H G B L J M P D K C T S W R N Z,5f70f2daea9a9f7076484982,38,Kobieta,2022-06-25_15h33.04.873,task,2021.1.4,Win32,60.0240096,6299f149e92ead563fba08ef,62b70e4589fe82b3a0170f2d,,,,,,,,,,,,,,,,,,,,,,,,,,,,,,,,,,,,,,,,,,,,,,,,,,,,,,,,,,,,,,,,,,,,,,,,,,,,,,,,,,,,,,,,,,,,,,,,,,,,,
,,,,,,4,0,4,0,1,X V Q F H G B L J M P D K C T S W R N Z,5f70f2daea9a9f7076484982,38,Kobieta,2022-06-25_15h33.04.873,task,2021.1.4,Win32,60.0240096,6299f149e92ead563fba08ef,62b70e4589fe82b3a0170f2d,,,,,,,,,,,,,,,,,,,,,,,,,,,,,,,,,,,,,,,,,,,,,,,,,,,,,,,,,,,,,,,,,,,,,,,,,,,,,,,,,,,,,,,,,,,,,,,,,,,,,
,,,,,,5,0,5,0,1,X V Q F H G B L J M P D K C T S W R N Z,5f70f2daea9a9f7076484982,38,Kobieta,2022-06-25_15h33.04.873,task,2021.1.4,Win32,60.0240096,6299f149e92ead563fba08ef,62b70e4589fe82b3a0170f2d,,,,,,,,,,,,,,,,,,,,,,,,,,,,,,,,,,,,,,,,,,,,,,,,,,,,,,,,,,,,,,,,,,,,,,,,,,,,,,,,,,,,,,,,,,,,,,,,,,,,,
,,,,,,,,,,,,5f70f2daea9a9f7076484982,38,Kobieta,2022-06-25_15h33.04.873,task,2021.1.4,Win32,60.0240096,6299f149e92ead563fba08ef,62b70e4589fe82b3a0170f2d,pnzqnt,"[""p"",""n"",""z"",""q"",""n"",""t""]","[1.5130000000000052,1.8660000000000139,2.413000000000011,2.8140000000000214,3.3530000000000086,3.7120000000000175,7.295000000000016]",1,PNZQNT,10,0,10,0,1,,,,,,,,,,,,,,,,,,,,,,,,,,,,,,,,,,,,,,,,,,,,,,,,,,,,,,,,,,,,,,,,,,,,,,,,,,,,,,,,,,,,,,,,,,,
,,,,,,0,0,0,0,1,X V Q F H G B L J M P D K C T S W R N Z,5f70f2daea9a9f7076484982,38,Kobieta,2022-06-25_15h33.04.873,task,2021.1.4,Win32,60.0240096,6299f149e92ead563fba08ef,62b70e4589fe82b3a0170f2d,,,,,,,,,,,,,,,,,,,,,,,,,,,,,,,,,,,,,,,,,,,,,,,,,,,,,,,,,,,,,,,,,,,,,,,,,,,,,,,,,,,,,,,,,,,,,,,,,,,,,
,,,,,,1,0,1,0,1,X V Q F H G B L J M P D K C T S W R N Z,5f70f2daea9a9f7076484982,38,Kobieta,2022-06-25_15h33.04.873,task,2021.1.4,Win32,60.0240096,6299f149e92ead563fba08ef,62b70e4589fe82b3a0170f2d,,,,,,,,,,,,,,,,,,,,,,,,,,,,,,,,,,,,,,,,,,,,,,,,,,,,,,,,,,,,,,,,,,,,,,,,,,,,,,,,,,,,,,,,,,,,,,,,,,,,,
,,,,,,2,0,2,0,1,X V Q F H G B L J M P D K C T S W R N Z,5f70f2daea9a9f7076484982,38,Kobieta,2022-06-25_15h33.04.873,task,2021.1.4,Win32,60.0240096,6299f149e92ead563fba08ef,62b70e4589fe82b3a0170f2d,,,,,,,,,,,,,,,,,,,,,,,,,,,,,,,,,,,,,,,,,,,,,,,,,,,,,,,,,,,,,,,,,,,,,,,,,,,,,,,,,,,,,,,,,,,,,,,,,,,,,
,,,,,,3,0,3,0,1,X V Q F H G B L J M P D K C T S W R N Z,5f70f2daea9a9f7076484982,38,Kobieta,2022-06-25_15h33.04.873,task,2021.1.4,Win32,60.0240096,6299f149e92ead563fba08ef,62b70e4589fe82b3a0170f2d,,,,,,,,,,,,,,,,,,,,,,,,,,,,,,,,,,,,,,,,,,,,,,,,,,,,,,,,,,,,,,,,,,,,,,,,,,,,,,,,,,,,,,,,,,,,,,,,,,,,,
,,,,,,4,0,4,0,1,X V Q F H G B L J M P D K C T S W R N Z,5f70f2daea9a9f7076484982,38,Kobieta,2022-06-25_15h33.04.873,task,2021.1.4,Win32,60.0240096,6299f149e92ead563fba08ef,62b70e4589fe82b3a0170f2d,,,,,,,,,,,,,,,,,,,,,,,,,,,,,,,,,,,,,,,,,,,,,,,,,,,,,,,,,,,,,,,,,,,,,,,,,,,,,,,,,,,,,,,,,,,,,,,,,,,,,
,,,,,,5,0,5,0,1,X V Q F H G B L J M P D K C T S W R N Z,5f70f2daea9a9f7076484982,38,Kobieta,2022-06-25_15h33.04.873,task,2021.1.4,Win32,60.0240096,6299f149e92ead563fba08ef,62b70e4589fe82b3a0170f2d,,,,,,,,,,,,,,,,,,,,,,,,,,,,,,,,,,,,,,,,,,,,,,,,,,,,,,,,,,,,,,,,,,,,,,,,,,,,,,,,,,,,,,,,,,,,,,,,,,,,,
,,,,,,,,,,,,5f70f2daea9a9f7076484982,38,Kobieta,2022-06-25_15h33.04.873,task,2021.1.4,Win32,60.0240096,6299f149e92ead563fba08ef,62b70e4589fe82b3a0170f2d,wpvtbg,"[""w"",""p"",""v"",""t"",""b"",""g""]","[2.212999999999994,2.8629999999999995,3.312999999999988,3.765999999999991,4.228999999999985,4.9669999999999845,5.960999999999984]",0,WPVTGB,11,0,11,0,1,,,,,,,,,,,,,,,,,,,,,,,,,,,,,,,,,,,,,,,,,,,,,,,,,,,,,,,,,,,,,,,,,,,,,,,,,,,,,,,,,,,,,,,,,,,
,,,,,,0,0,0,0,1,X V Q F H G B L J M P D K C T S W R N Z,5f70f2daea9a9f7076484982,38,Kobieta,2022-06-25_15h33.04.873,task,2021.1.4,Win32,60.0240096,6299f149e92ead563fba08ef,62b70e4589fe82b3a0170f2d,,,,,,,,,,,,,,,,,,,,,,,,,,,,,,,,,,,,,,,,,,,,,,,,,,,,,,,,,,,,,,,,,,,,,,,,,,,,,,,,,,,,,,,,,,,,,,,,,,,,,
,,,,,,1,0,1,0,1,X V Q F H G B L J M P D K C T S W R N Z,5f70f2daea9a9f7076484982,38,Kobieta,2022-06-25_15h33.04.873,task,2021.1.4,Win32,60.0240096,6299f149e92ead563fba08ef,62b70e4589fe82b3a0170f2d,,,,,,,,,,,,,,,,,,,,,,,,,,,,,,,,,,,,,,,,,,,,,,,,,,,,,,,,,,,,,,,,,,,,,,,,,,,,,,,,,,,,,,,,,,,,,,,,,,,,,
,,,,,,2,0,2,0,1,X V Q F H G B L J M P D K C T S W R N Z,5f70f2daea9a9f7076484982,38,Kobieta,2022-06-25_15h33.04.873,task,2021.1.4,Win32,60.0240096,6299f149e92ead563fba08ef,62b70e4589fe82b3a0170f2d,,,,,,,,,,,,,,,,,,,,,,,,,,,,,,,,,,,,,,,,,,,,,,,,,,,,,,,,,,,,,,,,,,,,,,,,,,,,,,,,,,,,,,,,,,,,,,,,,,,,,
,,,,,,3,0,3,0,1,X V Q F H G B L J M P D K C T S W R N Z,5f70f2daea9a9f7076484982,38,Kobieta,2022-06-25_15h33.04.873,task,2021.1.4,Win32,60.0240096,6299f149e92ead563fba08ef,62b70e4589fe82b3a0170f2d,,,,,,,,,,,,,,,,,,,,,,,,,,,,,,,,,,,,,,,,,,,,,,,,,,,,,,,,,,,,,,,,,,,,,,,,,,,,,,,,,,,,,,,,,,,,,,,,,,,,,
,,,,,,4,0,4,0,1,X V Q F H G B L J M P D K C T S W R N Z,5f70f2daea9a9f7076484982,38,Kobieta,2022-06-25_15h33.04.873,task,2021.1.4,Win32,60.0240096,6299f149e92ead563fba08ef,62b70e4589fe82b3a0170f2d,,,,,,,,,,,,,,,,,,,,,,,,,,,,,,,,,,,,,,,,,,,,,,,,,,,,,,,,,,,,,,,,,,,,,,,,,,,,,,,,,,,,,,,,,,,,,,,,,,,,,
,,,,,,5,0,5,0,1,X V Q F H G B L J M P D K C T S W R N Z,5f70f2daea9a9f7076484982,38,Kobieta,2022-06-25_15h33.04.873,task,2021.1.4,Win32,60.0240096,6299f149e92ead563fba08ef,62b70e4589fe82b3a0170f2d,,,,,,,,,,,,,,,,,,,,,,,,,,,,,,,,,,,,,,,,,,,,,,,,,,,,,,,,,,,,,,,,,,,,,,,,,,,,,,,,,,,,,,,,,,,,,,,,,,,,,
,,,,,,,,,,,,5f70f2daea9a9f7076484982,38,Kobieta,2022-06-25_15h33.04.873,task,2021.1.4,Win32,60.0240096,6299f149e92ead563fba08ef,62b70e4589fe82b3a0170f2d,fbnkjl,"[""f"",""b"",""n"",""k"",""j"",""l""]","[2.01400000000001,2.552000000000021,3.0800000000000125,3.4990000000000236,4.063000000000017,4.846000000000004,5.785000000000025]",1,FBNKJL,12,0,12,0,1,,,,,,,,,,,,,,,,,,,,,,,,,,,,,,,,,,,,,,,,,,,,,,,,,,,,,,,,,,,,,,,,,,,,,,,,,,,,,,,,,,,,,,,,,,,
,,,,,,0,0,0,0,1,X V Q F H G B L J M P D K C T S W R N Z,5f70f2daea9a9f7076484982,38,Kobieta,2022-06-25_15h33.04.873,task,2021.1.4,Win32,60.0240096,6299f149e92ead563fba08ef,62b70e4589fe82b3a0170f2d,,,,,,,,,,,,,,,,,,,,,,,,,,,,,,,,,,,,,,,,,,,,,,,,,,,,,,,,,,,,,,,,,,,,,,,,,,,,,,,,,,,,,,,,,,,,,,,,,,,,,
,,,,,,1,0,1,0,1,X V Q F H G B L J M P D K C T S W R N Z,5f70f2daea9a9f7076484982,38,Kobieta,2022-06-25_15h33.04.873,task,2021.1.4,Win32,60.0240096,6299f149e92ead563fba08ef,62b70e4589fe82b3a0170f2d,,,,,,,,,,,,,,,,,,,,,,,,,,,,,,,,,,,,,,,,,,,,,,,,,,,,,,,,,,,,,,,,,,,,,,,,,,,,,,,,,,,,,,,,,,,,,,,,,,,,,
,,,,,,2,0,2,0,1,X V Q F H G B L J M P D K C T S W R N Z,5f70f2daea9a9f7076484982,38,Kobieta,2022-06-25_15h33.04.873,task,2021.1.4,Win32,60.0240096,6299f149e92ead563fba08ef,62b70e4589fe82b3a0170f2d,,,,,,,,,,,,,,,,,,,,,,,,,,,,,,,,,,,,,,,,,,,,,,,,,,,,,,,,,,,,,,,,,,,,,,,,,,,,,,,,,,,,,,,,,,,,,,,,,,,,,
,,,,,,3,0,3,0,1,X V Q F H G B L J M P D K C T S W R N Z,5f70f2daea9a9f7076484982,38,Kobieta,2022-06-25_15h33.04.873,task,2021.1.4,Win32,60.0240096,6299f149e92ead563fba08ef,62b70e4589fe82b3a0170f2d,,,,,,,,,,,,,,,,,,,,,,,,,,,,,,,,,,,,,,,,,,,,,,,,,,,,,,,,,,,,,,,,,,,,,,,,,,,,,,,,,,,,,,,,,,,,,,,,,,,,,
,,,,,,4,0,4,0,1,X V Q F H G B L J M P D K C T S W R N Z,5f70f2daea9a9f7076484982,38,Kobieta,2022-06-25_15h33.04.873,task,2021.1.4,Win32,60.0240096,6299f149e92ead563fba08ef,62b70e4589fe82b3a0170f2d,,,,,,,,,,,,,,,,,,,,,,,,,,,,,,,,,,,,,,,,,,,,,,,,,,,,,,,,,,,,,,,,,,,,,,,,,,,,,,,,,,,,,,,,,,,,,,,,,,,,,
,,,,,,5,0,5,0,1,X V Q F H G B L J M P D K C T S W R N Z,5f70f2daea9a9f7076484982,38,Kobieta,2022-06-25_15h33.04.873,task,2021.1.4,Win32,60.0240096,6299f149e92ead563fba08ef,62b70e4589fe82b3a0170f2d,,,,,,,,,,,,,,,,,,,,,,,,,,,,,,,,,,,,,,,,,,,,,,,,,,,,,,,,,,,,,,,,,,,,,,,,,,,,,,,,,,,,,,,,,,,,,,,,,,,,,
,,,,,,6,0,6,0,1,X V Q F H G B L J M P D K C T S W R N Z,5f70f2daea9a9f7076484982,38,Kobieta,2022-06-25_15h33.04.873,task,2021.1.4,Win32,60.0240096,6299f149e92ead563fba08ef,62b70e4589fe82b3a0170f2d,,,,,,,,,,,,,,,,,,,,,,,,,,,,,,,,,,,,,,,,,,,,,,,,,,,,,,,,,,,,,,,,,,,,,,,,,,,,,,,,,,,,,,,,,,,,,,,,,,,,,
,,,,,,,,,,,,5f70f2daea9a9f7076484982,38,Kobieta,2022-06-25_15h33.04.873,task,2021.1.4,Win32,60.0240096,6299f149e92ead563fba08ef,62b70e4589fe82b3a0170f2d,wwvpzpr,"[""w"",""w"",""v"",""p"",""z"",""p"",""r""]","[0.8710000000000093,1.046999999999997,1.8789999999999907,2.9780000000000086,5.685000000000002,8.699000000000012,9.497000000000014,10.342000000000013]",1,WWVPZPR,13,0,13,0,1,,,,,,,,,,,,,,,,,,,,,,,,,,,,,,,,,,,,,,,,,,,,,,,,,,,,,,,,,,,,,,,,,,,,,,,,,,,,,,,,,,,,,,,,,,,
,,,,,,0,0,0,0,1,X V Q F H G B L J M P D K C T S W R N Z,5f70f2daea9a9f7076484982,38,Kobieta,2022-06-25_15h33.04.873,task,2021.1.4,Win32,60.0240096,6299f149e92ead563fba08ef,62b70e4589fe82b3a0170f2d,,,,,,,,,,,,,,,,,,,,,,,,,,,,,,,,,,,,,,,,,,,,,,,,,,,,,,,,,,,,,,,,,,,,,,,,,,,,,,,,,,,,,,,,,,,,,,,,,,,,,
,,,,,,1,0,1,0,1,X V Q F H G B L J M P D K C T S W R N Z,5f70f2daea9a9f7076484982,38,Kobieta,2022-06-25_15h33.04.873,task,2021.1.4,Win32,60.0240096,6299f149e92ead563fba08ef,62b70e4589fe82b3a0170f2d,,,,,,,,,,,,,,,,,,,,,,,,,,,,,,,,,,,,,,,,,,,,,,,,,,,,,,,,,,,,,,,,,,,,,,,,,,,,,,,,,,,,,,,,,,,,,,,,,,,,,
,,,,,,2,0,2,0,1,X V Q F H G B L J M P D K C T S W R N Z,5f70f2daea9a9f7076484982,38,Kobieta,2022-06-25_15h33.04.873,task,2021.1.4,Win32,60.0240096,6299f149e92ead563fba08ef,62b70e4589fe82b3a0170f2d,,,,,,,,,,,,,,,,,,,,,,,,,,,,,,,,,,,,,,,,,,,,,,,,,,,,,,,,,,,,,,,,,,,,,,,,,,,,,,,,,,,,,,,,,,,,,,,,,,,,,
,,,,,,3,0,3,0,1,X V Q F H G B L J M P D K C T S W R N Z,5f70f2daea9a9f7076484982,38,Kobieta,2022-06-25_15h33.04.873,task,2021.1.4,Win32,60.0240096,6299f149e92ead563fba08ef,62b70e4589fe82b3a0170f2d,,,,,,,,,,,,,,,,,,,,,,,,,,,,,,,,,,,,,,,,,,,,,,,,,,,,,,,,,,,,,,,,,,,,,,,,,,,,,,,,,,,,,,,,,,,,,,,,,,,,,
,,,,,,4,0,4,0,1,X V Q F H G B L J M P D K C T S W R N Z,5f70f2daea9a9f7076484982,38,Kobieta,2022-06-25_15h33.04.873,task,2021.1.4,Win32,60.0240096,6299f149e92ead563fba08ef,62b70e4589fe82b3a0170f2d,,,,,,,,,,,,,,,,,,,,,,,,,,,,,,,,,,,,,,,,,,,,,,,,,,,,,,,,,,,,,,,,,,,,,,,,,,,,,,,,,,,,,,,,,,,,,,,,,,,,,
,,,,,,5,0,5,0,1,X V Q F H G B L J M P D K C T S W R N Z,5f70f2daea9a9f7076484982,38,Kobieta,2022-06-25_15h33.04.873,task,2021.1.4,Win32,60.0240096,6299f149e92ead563fba08ef,62b70e4589fe82b3a0170f2d,,,,,,,,,,,,,,,,,,,,,,,,,,,,,,,,,,,,,,,,,,,,,,,,,,,,,,,,,,,,,,,,,,,,,,,,,,,,,,,,,,,,,,,,,,,,,,,,,,,,,
,,,,,,6,0,6,0,1,X V Q F H G B L J M P D K C T S W R N Z,5f70f2daea9a9f7076484982,38,Kobieta,2022-06-25_15h33.04.873,task,2021.1.4,Win32,60.0240096,6299f149e92ead563fba08ef,62b70e4589fe82b3a0170f2d,,,,,,,,,,,,,,,,,,,,,,,,,,,,,,,,,,,,,,,,,,,,,,,,,,,,,,,,,,,,,,,,,,,,,,,,,,,,,,,,,,,,,,,,,,,,,,,,,,,,,
,,,,,,,,,,,,5f70f2daea9a9f7076484982,38,Kobieta,2022-06-25_15h33.04.873,task,2021.1.4,Win32,60.0240096,6299f149e92ead563fba08ef,62b70e4589fe82b3a0170f2d,ggqkzff,"[""g"",""g"",""q"",""k"",""z"",""f"",""f""]","[3.430000000000007,3.6140000000000043,4.232000000000028,4.979000000000013,5.431000000000012,6.565000000000026,6.820000000000022,7.7620000000000005]",0,GGQFKZF,14,0,14,0,1,,,,,,,,,,,,,,,,,,,,,,,,,,,,,,,,,,,,,,,,,,,,,,,,,,,,,,,,,,,,,,,,,,,,,,,,,,,,,,,,,,,,,,,,,,,
,,,,,,0,0,0,0,1,X V Q F H G B L J M P D K C T S W R N Z,5f70f2daea9a9f7076484982,38,Kobieta,2022-06-25_15h33.04.873,task,2021.1.4,Win32,60.0240096,6299f149e92ead563fba08ef,62b70e4589fe82b3a0170f2d,,,,,,,,,,,,,,,,,,,,,,,,,,,,,,,,,,,,,,,,,,,,,,,,,,,,,,,,,,,,,,,,,,,,,,,,,,,,,,,,,,,,,,,,,,,,,,,,,,,,,
,,,,,,1,0,1,0,1,X V Q F H G B L J M P D K C T S W R N Z,5f70f2daea9a9f7076484982,38,Kobieta,2022-06-25_15h33.04.873,task,2021.1.4,Win32,60.0240096,6299f149e92ead563fba08ef,62b70e4589fe82b3a0170f2d,,,,,,,,,,,,,,,,,,,,,,,,,,,,,,,,,,,,,,,,,,,,,,,,,,,,,,,,,,,,,,,,,,,,,,,,,,,,,,,,,,,,,,,,,,,,,,,,,,,,,
,,,,,,2,0,2,0,1,X V Q F H G B L J M P D K C T S W R N Z,5f70f2daea9a9f7076484982,38,Kobieta,2022-06-25_15h33.04.873,task,2021.1.4,Win32,60.0240096,6299f149e92ead563fba08ef,62b70e4589fe82b3a0170f2d,,,,,,,,,,,,,,,,,,,,,,,,,,,,,,,,,,,,,,,,,,,,,,,,,,,,,,,,,,,,,,,,,,,,,,,,,,,,,,,,,,,,,,,,,,,,,,,,,,,,,
,,,,,,3,0,3,0,1,X V Q F H G B L J M P D K C T S W R N Z,5f70f2daea9a9f7076484982,38,Kobieta,2022-06-25_15h33.04.873,task,2021.1.4,Win32,60.0240096,6299f149e92ead563fba08ef,62b70e4589fe82b3a0170f2d,,,,,,,,,,,,,,,,,,,,,,,,,,,,,,,,,,,,,,,,,,,,,,,,,,,,,,,,,,,,,,,,,,,,,,,,,,,,,,,,,,,,,,,,,,,,,,,,,,,,,
,,,,,,4,0,4,0,1,X V Q F H G B L J M P D K C T S W R N Z,5f70f2daea9a9f7076484982,38,Kobieta,2022-06-25_15h33.04.873,task,2021.1.4,Win32,60.0240096,6299f149e92ead563fba08ef,62b70e4589fe82b3a0170f2d,,,,,,,,,,,,,,,,,,,,,,,,,,,,,,,,,,,,,,,,,,,,,,,,,,,,,,,,,,,,,,,,,,,,,,,,,,,,,,,,,,,,,,,,,,,,,,,,,,,,,
,,,,,,5,0,5,0,1,X V Q F H G B L J M P D K C T S W R N Z,5f70f2daea9a9f7076484982,38,Kobieta,2022-06-25_15h33.04.873,task,2021.1.4,Win32,60.0240096,6299f149e92ead563fba08ef,62b70e4589fe82b3a0170f2d,,,,,,,,,,,,,,,,,,,,,,,,,,,,,,,,,,,,,,,,,,,,,,,,,,,,,,,,,,,,,,,,,,,,,,,,,,,,,,,,,,,,,,,,,,,,,,,,,,,,,
,,,,,,6,0,6,0,1,X V Q F H G B L J M P D K C T S W R N Z,5f70f2daea9a9f7076484982,38,Kobieta,2022-06-25_15h33.04.873,task,2021.1.4,Win32,60.0240096,6299f149e92ead563fba08ef,62b70e4589fe82b3a0170f2d,,,,,,,,,,,,,,,,,,,,,,,,,,,,,,,,,,,,,,,,,,,,,,,,,,,,,,,,,,,,,,,,,,,,,,,,,,,,,,,,,,,,,,,,,,,,,,,,,,,,,
,,,,,,,,,,,,5f70f2daea9a9f7076484982,38,Kobieta,2022-06-25_15h33.04.873,task,2021.1.4,Win32,60.0240096,6299f149e92ead563fba08ef,62b70e4589fe82b3a0170f2d,hnppssk,"[""h"",""n"",""p"",""p"",""s"",""s"",""k""]","[2.2290000000000134,2.5960000000000036,3.3460000000000036,3.5,3.794000000000011,8.214000000000027,8.31000000000003,8.978000000000037]",0,HSNPPSK,15,0,15,0,1,,,,,,,,,,,,,,,,,,,,,,,,,,,,,,,,,,,,,,,,,,,,,,,,,,,,,,,,,,,,,,,,,,,,,,,,,,,,,,,,,,,,,,,,,,,
,,,,,,0,0,0,0,1,X V Q F H G B L J M P D K C T S W R N Z,5f70f2daea9a9f7076484982,38,Kobieta,2022-06-25_15h33.04.873,task,2021.1.4,Win32,60.0240096,6299f149e92ead563fba08ef,62b70e4589fe82b3a0170f2d,,,,,,,,,,,,,,,,,,,,,,,,,,,,,,,,,,,,,,,,,,,,,,,,,,,,,,,,,,,,,,,,,,,,,,,,,,,,,,,,,,,,,,,,,,,,,,,,,,,,,
,,,,,,1,0,1,0,1,X V Q F H G B L J M P D K C T S W R N Z,5f70f2daea9a9f7076484982,38,Kobieta,2022-06-25_15h33.04.873,task,2021.1.4,Win32,60.0240096,6299f149e92ead563fba08ef,62b70e4589fe82b3a0170f2d,,,,,,,,,,,,,,,,,,,,,,,,,,,,,,,,,,,,,,,,,,,,,,,,,,,,,,,,,,,,,,,,,,,,,,,,,,,,,,,,,,,,,,,,,,,,,,,,,,,,,
,,,,,,2,0,2,0,1,X V Q F H G B L J M P D K C T S W R N Z,5f70f2daea9a9f7076484982,38,Kobieta,2022-06-25_15h33.04.873,task,2021.1.4,Win32,60.0240096,6299f149e92ead563fba08ef,62b70e4589fe82b3a0170f2d,,,,,,,,,,,,,,,,,,,,,,,,,,,,,,,,,,,,,,,,,,,,,,,,,,,,,,,,,,,,,,,,,,,,,,,,,,,,,,,,,,,,,,,,,,,,,,,,,,,,,
,,,,,,3,0,3,0,1,X V Q F H G B L J M P D K C T S W R N Z,5f70f2daea9a9f7076484982,38,Kobieta,2022-06-25_15h33.04.873,task,2021.1.4,Win32,60.0240096,6299f149e92ead563fba08ef,62b70e4589fe82b3a0170f2d,,,,,,,,,,,,,,,,,,,,,,,,,,,,,,,,,,,,,,,,,,,,,,,,,,,,,,,,,,,,,,,,,,,,,,,,,,,,,,,,,,,,,,,,,,,,,,,,,,,,,
,,,,,,4,0,4,0,1,X V Q F H G B L J M P D K C T S W R N Z,5f70f2daea9a9f7076484982,38,Kobieta,2022-06-25_15h33.04.873,task,2021.1.4,Win32,60.0240096,6299f149e92ead563fba08ef,62b70e4589fe82b3a0170f2d,,,,,,,,,,,,,,,,,,,,,,,,,,,,,,,,,,,,,,,,,,,,,,,,,,,,,,,,,,,,,,,,,,,,,,,,,,,,,,,,,,,,,,,,,,,,,,,,,,,,,
,,,,,,5,0,5,0,1,X V Q F H G B L J M P D K C T S W R N Z,5f70f2daea9a9f7076484982,38,Kobieta,2022-06-25_15h33.04.873,task,2021.1.4,Win32,60.0240096,6299f149e92ead563fba08ef,62b70e4589fe82b3a0170f2d,,,,,,,,,,,,,,,,,,,,,,,,,,,,,,,,,,,,,,,,,,,,,,,,,,,,,,,,,,,,,,,,,,,,,,,,,,,,,,,,,,,,,,,,,,,,,,,,,,,,,
,,,,,,6,0,6,0,1,X V Q F H G B L J M P D K C T S W R N Z,5f70f2daea9a9f7076484982,38,Kobieta,2022-06-25_15h33.04.873,task,2021.1.4,Win32,60.0240096,6299f149e92ead563fba08ef,62b70e4589fe82b3a0170f2d,,,,,,,,,,,,,,,,,,,,,,,,,,,,,,,,,,,,,,,,,,,,,,,,,,,,,,,,,,,,,,,,,,,,,,,,,,,,,,,,,,,,,,,,,,,,,,,,,,,,,
,,,,,,,,,,,,5f70f2daea9a9f7076484982,38,Kobieta,2022-06-25_15h33.04.873,task,2021.1.4,Win32,60.0240096,6299f149e92ead563fba08ef,62b70e4589fe82b3a0170f2d,fpkmffc,"[""f"",""p"",""k"",""m"",""f"",""f"",""c""]","[1.9180000000000064,2.5300000000000296,2.9500000000000455,3.3040000000000305,3.7139999999999986,3.8850000000000477,4.129000000000019,4.9290000000000305]",1,FPKMFFC,16,0,16,0,1,,,,,,,,,,,,,,,,,,,,,,,,,,,,,,,,,,,,,,,,,,,,,,,,,,,,,,,,,,,,,,,,,,,,,,,,,,,,,,,,,,,,,,,,,,,
,,,,,,0,0,0,0,1,X V Q F H G B L J M P D K C T S W R N Z,5f70f2daea9a9f7076484982,38,Kobieta,2022-06-25_15h33.04.873,task,2021.1.4,Win32,60.0240096,6299f149e92ead563fba08ef,62b70e4589fe82b3a0170f2d,,,,,,,,,,,,,,,,,,,,,,,,,,,,,,,,,,,,,,,,,,,,,,,,,,,,,,,,,,,,,,,,,,,,,,,,,,,,,,,,,,,,,,,,,,,,,,,,,,,,,
,,,,,,1,0,1,0,1,X V Q F H G B L J M P D K C T S W R N Z,5f70f2daea9a9f7076484982,38,Kobieta,2022-06-25_15h33.04.873,task,2021.1.4,Win32,60.0240096,6299f149e92ead563fba08ef,62b70e4589fe82b3a0170f2d,,,,,,,,,,,,,,,,,,,,,,,,,,,,,,,,,,,,,,,,,,,,,,,,,,,,,,,,,,,,,,,,,,,,,,,,,,,,,,,,,,,,,,,,,,,,,,,,,,,,,
,,,,,,2,0,2,0,1,X V Q F H G B L J M P D K C T S W R N Z,5f70f2daea9a9f7076484982,38,Kobieta,2022-06-25_15h33.04.873,task,2021.1.4,Win32,60.0240096,6299f149e92ead563fba08ef,62b70e4589fe82b3a0170f2d,,,,,,,,,,,,,,,,,,,,,,,,,,,,,,,,,,,,,,,,,,,,,,,,,,,,,,,,,,,,,,,,,,,,,,,,,,,,,,,,,,,,,,,,,,,,,,,,,,,,,
,,,,,,3,0,3,0,1,X V Q F H G B L J M P D K C T S W R N Z,5f70f2daea9a9f7076484982,38,Kobieta,2022-06-25_15h33.04.873,task,2021.1.4,Win32,60.0240096,6299f149e92ead563fba08ef,62b70e4589fe82b3a0170f2d,,,,,,,,,,,,,,,,,,,,,,,,,,,,,,,,,,,,,,,,,,,,,,,,,,,,,,,,,,,,,,,,,,,,,,,,,,,,,,,,,,,,,,,,,,,,,,,,,,,,,
,,,,,,4,0,4,0,1,X V Q F H G B L J M P D K C T S W R N Z,5f70f2daea9a9f7076484982,38,Kobieta,2022-06-25_15h33.04.873,task,2021.1.4,Win32,60.0240096,6299f149e92ead563fba08ef,62b70e4589fe82b3a0170f2d,,,,,,,,,,,,,,,,,,,,,,,,,,,,,,,,,,,,,,,,,,,,,,,,,,,,,,,,,,,,,,,,,,,,,,,,,,,,,,,,,,,,,,,,,,,,,,,,,,,,,
,,,,,,5,0,5,0,1,X V Q F H G B L J M P D K C T S W R N Z,5f70f2daea9a9f7076484982,38,Kobieta,2022-06-25_15h33.04.873,task,2021.1.4,Win32,60.0240096,6299f149e92ead563fba08ef,62b70e4589fe82b3a0170f2d,,,,,,,,,,,,,,,,,,,,,,,,,,,,,,,,,,,,,,,,,,,,,,,,,,,,,,,,,,,,,,,,,,,,,,,,,,,,,,,,,,,,,,,,,,,,,,,,,,,,,
,,,,,,6,0,6,0,1,X V Q F H G B L J M P D K C T S W R N Z,5f70f2daea9a9f7076484982,38,Kobieta,2022-06-25_15h33.04.873,task,2021.1.4,Win32,60.0240096,6299f149e92ead563fba08ef,62b70e4589fe82b3a0170f2d,,,,,,,,,,,,,,,,,,,,,,,,,,,,,,,,,,,,,,,,,,,,,,,,,,,,,,,,,,,,,,,,,,,,,,,,,,,,,,,,,,,,,,,,,,,,,,,,,,,,,
,,,,,,7,0,7,0,1,X V Q F H G B L J M P D K C T S W R N Z,5f70f2daea9a9f7076484982,38,Kobieta,2022-06-25_15h33.04.873,task,2021.1.4,Win32,60.0240096,6299f149e92ead563fba08ef,62b70e4589fe82b3a0170f2d,,,,,,,,,,,,,,,,,,,,,,,,,,,,,,,,,,,,,,,,,,,,,,,,,,,,,,,,,,,,,,,,,,,,,,,,,,,,,,,,,,,,,,,,,,,,,,,,,,,,,
,,,,,,,,,,,,5f70f2daea9a9f7076484982,38,Kobieta,2022-06-25_15h33.04.873,task,2021.1.4,Win32,60.0240096,6299f149e92ead563fba08ef,62b70e4589fe82b3a0170f2d,rbjjf,"[""r"",""b"",""j"",""j"",""f""]","[1.6169999999999618,1.9009999999999536,7.231999999999971,7.518999999999949,9.742999999999995,12.143999999999949]",0,RLJJBFHM,17,0,17,0,1,,,,,,,,,,,,,,,,,,,,,,,,,,,,,,,,,,,,,,,,,,,,,,,,,,,,,,,,,,,,,,,,,,,,,,,,,,,,,,,,,,,,,,,,,,,
,,,,,,0,0,0,0,1,X V Q F H G B L J M P D K C T S W R N Z,5f70f2daea9a9f7076484982,38,Kobieta,2022-06-25_15h33.04.873,task,2021.1.4,Win32,60.0240096,6299f149e92ead563fba08ef,62b70e4589fe82b3a0170f2d,,,,,,,,,,,,,,,,,,,,,,,,,,,,,,,,,,,,,,,,,,,,,,,,,,,,,,,,,,,,,,,,,,,,,,,,,,,,,,,,,,,,,,,,,,,,,,,,,,,,,
,,,,,,1,0,1,0,1,X V Q F H G B L J M P D K C T S W R N Z,5f70f2daea9a9f7076484982,38,Kobieta,2022-06-25_15h33.04.873,task,2021.1.4,Win32,60.0240096,6299f149e92ead563fba08ef,62b70e4589fe82b3a0170f2d,,,,,,,,,,,,,,,,,,,,,,,,,,,,,,,,,,,,,,,,,,,,,,,,,,,,,,,,,,,,,,,,,,,,,,,,,,,,,,,,,,,,,,,,,,,,,,,,,,,,,
,,,,,,2,0,2,0,1,X V Q F H G B L J M P D K C T S W R N Z,5f70f2daea9a9f7076484982,38,Kobieta,2022-06-25_15h33.04.873,task,2021.1.4,Win32,60.0240096,6299f149e92ead563fba08ef,62b70e4589fe82b3a0170f2d,,,,,,,,,,,,,,,,,,,,,,,,,,,,,,,,,,,,,,,,,,,,,,,,,,,,,,,,,,,,,,,,,,,,,,,,,,,,,,,,,,,,,,,,,,,,,,,,,,,,,
,,,,,,3,0,3,0,1,X V Q F H G B L J M P D K C T S W R N Z,5f70f2daea9a9f7076484982,38,Kobieta,2022-06-25_15h33.04.873,task,2021.1.4,Win32,60.0240096,6299f149e92ead563fba08ef,62b70e4589fe82b3a0170f2d,,,,,,,,,,,,,,,,,,,,,,,,,,,,,,,,,,,,,,,,,,,,,,,,,,,,,,,,,,,,,,,,,,,,,,,,,,,,,,,,,,,,,,,,,,,,,,,,,,,,,
,,,,,,4,0,4,0,1,X V Q F H G B L J M P D K C T S W R N Z,5f70f2daea9a9f7076484982,38,Kobieta,2022-06-25_15h33.04.873,task,2021.1.4,Win32,60.0240096,6299f149e92ead563fba08ef,62b70e4589fe82b3a0170f2d,,,,,,,,,,,,,,,,,,,,,,,,,,,,,,,,,,,,,,,,,,,,,,,,,,,,,,,,,,,,,,,,,,,,,,,,,,,,,,,,,,,,,,,,,,,,,,,,,,,,,
,,,,,,5,0,5,0,1,X V Q F H G B L J M P D K C T S W R N Z,5f70f2daea9a9f7076484982,38,Kobieta,2022-06-25_15h33.04.873,task,2021.1.4,Win32,60.0240096,6299f149e92ead563fba08ef,62b70e4589fe82b3a0170f2d,,,,,,,,,,,,,,,,,,,,,,,,,,,,,,,,,,,,,,,,,,,,,,,,,,,,,,,,,,,,,,,,,,,,,,,,,,,,,,,,,,,,,,,,,,,,,,,,,,,,,
,,,,,,6,0,6,0,1,X V Q F H G B L J M P D K C T S W R N Z,5f70f2daea9a9f7076484982,38,Kobieta,2022-06-25_15h33.04.873,task,2021.1.4,Win32,60.0240096,6299f149e92ead563fba08ef,62b70e4589fe82b3a0170f2d,,,,,,,,,,,,,,,,,,,,,,,,,,,,,,,,,,,,,,,,,,,,,,,,,,,,,,,,,,,,,,,,,,,,,,,,,,,,,,,,,,,,,,,,,,,,,,,,,,,,,
,,,,,,7,0,7,0,1,X V Q F H G B L J M P D K C T S W R N Z,5f70f2daea9a9f7076484982,38,Kobieta,2022-06-25_15h33.04.873,task,2021.1.4,Win32,60.0240096,6299f149e92ead563fba08ef,62b70e4589fe82b3a0170f2d,,,,,,,,,,,,,,,,,,,,,,,,,,,,,,,,,,,,,,,,,,,,,,,,,,,,,,,,,,,,,,,,,,,,,,,,,,,,,,,,,,,,,,,,,,,,,,,,,,,,,
,,,,,,,,,,,,5f70f2daea9a9f7076484982,38,Kobieta,2022-06-25_15h33.04.873,task,2021.1.4,Win32,60.0240096,6299f149e92ead563fba08ef,62b70e4589fe82b3a0170f2d,tpphb,"[""t"",""p"",""p"",""h"",""b""]","[1.8310000000000173,2.579999999999984,2.880999999999972,3.848000000000013,4.3139999999999645,18.37700000000001]",0,TPBTHPDX,18,0,18,0,1,,,,,,,,,,,,,,,,,,,,,,,,,,,,,,,,,,,,,,,,,,,,,,,,,,,,,,,,,,,,,,,,,,,,,,,,,,,,,,,,,,,,,,,,,,,
,,,,,,0,0,0,0,1,X V Q F H G B L J M P D K C T S W R N Z,5f70f2daea9a9f7076484982,38,Kobieta,2022-06-25_15h33.04.873,task,2021.1.4,Win32,60.0240096,6299f149e92ead563fba08ef,62b70e4589fe82b3a0170f2d,,,,,,,,,,,,,,,,,,,,,,,,,,,,,,,,,,,,,,,,,,,,,,,,,,,,,,,,,,,,,,,,,,,,,,,,,,,,,,,,,,,,,,,,,,,,,,,,,,,,,
,,,,,,1,0,1,0,1,X V Q F H G B L J M P D K C T S W R N Z,5f70f2daea9a9f7076484982,38,Kobieta,2022-06-25_15h33.04.873,task,2021.1.4,Win32,60.0240096,6299f149e92ead563fba08ef,62b70e4589fe82b3a0170f2d,,,,,,,,,,,,,,,,,,,,,,,,,,,,,,,,,,,,,,,,,,,,,,,,,,,,,,,,,,,,,,,,,,,,,,,,,,,,,,,,,,,,,,,,,,,,,,,,,,,,,
,,,,,,2,0,2,0,1,X V Q F H G B L J M P D K C T S W R N Z,5f70f2daea9a9f7076484982,38,Kobieta,2022-06-25_15h33.04.873,task,2021.1.4,Win32,60.0240096,6299f149e92ead563fba08ef,62b70e4589fe82b3a0170f2d,,,,,,,,,,,,,,,,,,,,,,,,,,,,,,,,,,,,,,,,,,,,,,,,,,,,,,,,,,,,,,,,,,,,,,,,,,,,,,,,,,,,,,,,,,,,,,,,,,,,,
,,,,,,3,0,3,0,1,X V Q F H G B L J M P D K C T S W R N Z,5f70f2daea9a9f7076484982,38,Kobieta,2022-06-25_15h33.04.873,task,2021.1.4,Win32,60.0240096,6299f149e92ead563fba08ef,62b70e4589fe82b3a0170f2d,,,,,,,,,,,,,,,,,,,,,,,,,,,,,,,,,,,,,,,,,,,,,,,,,,,,,,,,,,,,,,,,,,,,,,,,,,,,,,,,,,,,,,,,,,,,,,,,,,,,,
,,,,,,4,0,4,0,1,X V Q F H G B L J M P D K C T S W R N Z,5f70f2daea9a9f7076484982,38,Kobieta,2022-06-25_15h33.04.873,task,2021.1.4,Win32,60.0240096,6299f149e92ead563fba08ef,62b70e4589fe82b3a0170f2d,,,,,,,,,,,,,,,,,,,,,,,,,,,,,,,,,,,,,,,,,,,,,,,,,,,,,,,,,,,,,,,,,,,,,,,,,,,,,,,,,,,,,,,,,,,,,,,,,,,,,
,,,,,,5,0,5,0,1,X V Q F H G B L J M P D K C T S W R N Z,5f70f2daea9a9f7076484982,38,Kobieta,2022-06-25_15h33.04.873,task,2021.1.4,Win32,60.0240096,6299f149e92ead563fba08ef,62b70e4589fe82b3a0170f2d,,,,,,,,,,,,,,,,,,,,,,,,,,,,,,,,,,,,,,,,,,,,,,,,,,,,,,,,,,,,,,,,,,,,,,,,,,,,,,,,,,,,,,,,,,,,,,,,,,,,,
,,,,,,6,0,6,0,1,X V Q F H G B L J M P D K C T S W R N Z,5f70f2daea9a9f7076484982,38,Kobieta,2022-06-25_15h33.04.873,task,2021.1.4,Win32,60.0240096,6299f149e92ead563fba08ef,62b70e4589fe82b3a0170f2d,,,,,,,,,,,,,,,,,,,,,,,,,,,,,,,,,,,,,,,,,,,,,,,,,,,,,,,,,,,,,,,,,,,,,,,,,,,,,,,,,,,,,,,,,,,,,,,,,,,,,
,,,,,,7,0,7,0,1,X V Q F H G B L J M P D K C T S W R N Z,5f70f2daea9a9f7076484982,38,Kobieta,2022-06-25_15h33.04.873,task,2021.1.4,Win32,60.0240096,6299f149e92ead563fba08ef,62b70e4589fe82b3a0170f2d,,,,,,,,,,,,,,,,,,,,,,,,,,,,,,,,,,,,,,,,,,,,,,,,,,,,,,,,,,,,,,,,,,,,,,,,,,,,,,,,,,,,,,,,,,,,,,,,,,,,,
,,,,,,,,,,,,5f70f2daea9a9f7076484982,38,Kobieta,2022-06-25_15h33.04.873,task,2021.1.4,Win32,60.0240096,6299f149e92ead563fba08ef,62b70e4589fe82b3a0170f2d,fjhqkblk,"[""f"",""j"",""h"",""q"",""k"",""b"",""l"",""k""]","[2.0610000000000355,2.9250000000000114,3.7630000000000337,5.02800000000002,6.2590000000000146,7.411000000000001,8.961999999999989,9.256000000000029,10.372000000000014]",1,FJHQKBLK,19,0,19,0,1,,,,,,,,,,,,,,,,,,,,,,,,,,,,,,,,,,,,,,,,,,,,,,,,,,,,,,,,,,,,,,,,,,,,,,,,,,,,,,,,,,,,,,,,,,,
,,,,,,0,0,0,0,1,X V Q F H G B L J M P D K C T S W R N Z,5f70f2daea9a9f7076484982,38,Kobieta,2022-06-25_15h33.04.873,task,2021.1.4,Win32,60.0240096,6299f149e92ead563fba08ef,62b70e4589fe82b3a0170f2d,,,,,,,,,,,,,,,,,,,,,,,,,,,,,,,,,,,,,,,,,,,,,,,,,,,,,,,,,,,,,,,,,,,,,,,,,,,,,,,,,,,,,,,,,,,,,,,,,,,,,
,,,,,,1,0,1,0,1,X V Q F H G B L J M P D K C T S W R N Z,5f70f2daea9a9f7076484982,38,Kobieta,2022-06-25_15h33.04.873,task,2021.1.4,Win32,60.0240096,6299f149e92ead563fba08ef,62b70e4589fe82b3a0170f2d,,,,,,,,,,,,,,,,,,,,,,,,,,,,,,,,,,,,,,,,,,,,,,,,,,,,,,,,,,,,,,,,,,,,,,,,,,,,,,,,,,,,,,,,,,,,,,,,,,,,,
,,,,,,2,0,2,0,1,X V Q F H G B L J M P D K C T S W R N Z,5f70f2daea9a9f7076484982,38,Kobieta,2022-06-25_15h33.04.873,task,2021.1.4,Win32,60.0240096,6299f149e92ead563fba08ef,62b70e4589fe82b3a0170f2d,,,,,,,,,,,,,,,,,,,,,,,,,,,,,,,,,,,,,,,,,,,,,,,,,,,,,,,,,,,,,,,,,,,,,,,,,,,,,,,,,,,,,,,,,,,,,,,,,,,,,
,,,,,,3,0,3,0,1,X V Q F H G B L J M P D K C T S W R N Z,5f70f2daea9a9f7076484982,38,Kobieta,2022-06-25_15h33.04.873,task,2021.1.4,Win32,60.0240096,6299f149e92ead563fba08ef,62b70e4589fe82b3a0170f2d,,,,,,,,,,,,,,,,,,,,,,,,,,,,,,,,,,,,,,,,,,,,,,,,,,,,,,,,,,,,,,,,,,,,,,,,,,,,,,,,,,,,,,,,,,,,,,,,,,,,,
,,,,,,4,0,4,0,1,X V Q F H G B L J M P D K C T S W R N Z,5f70f2daea9a9f7076484982,38,Kobieta,2022-06-25_15h33.04.873,task,2021.1.4,Win32,60.0240096,6299f149e92ead563fba08ef,62b70e4589fe82b3a0170f2d,,,,,,,,,,,,,,,,,,,,,,,,,,,,,,,,,,,,,,,,,,,,,,,,,,,,,,,,,,,,,,,,,,,,,,,,,,,,,,,,,,,,,,,,,,,,,,,,,,,,,
,,,,,,5,0,5,0,1,X V Q F H G B L J M P D K C T S W R N Z,5f70f2daea9a9f7076484982,38,Kobieta,2022-06-25_15h33.04.873,task,2021.1.4,Win32,60.0240096,6299f149e92ead563fba08ef,62b70e4589fe82b3a0170f2d,,,,,,,,,,,,,,,,,,,,,,,,,,,,,,,,,,,,,,,,,,,,,,,,,,,,,,,,,,,,,,,,,,,,,,,,,,,,,,,,,,,,,,,,,,,,,,,,,,,,,
,,,,,,6,0,6,0,1,X V Q F H G B L J M P D K C T S W R N Z,5f70f2daea9a9f7076484982,38,Kobieta,2022-06-25_15h33.04.873,task,2021.1.4,Win32,60.0240096,6299f149e92ead563fba08ef,62b70e4589fe82b3a0170f2d,,,,,,,,,,,,,,,,,,,,,,,,,,,,,,,,,,,,,,,,,,,,,,,,,,,,,,,,,,,,,,,,,,,,,,,,,,,,,,,,,,,,,,,,,,,,,,,,,,,,,
,,,,,,7,0,7,0,1,X V Q F H G B L J M P D K C T S W R N Z,5f70f2daea9a9f7076484982,38,Kobieta,2022-06-25_15h33.04.873,task,2021.1.4,Win32,60.0240096,6299f149e92ead563fba08ef,62b70e4589fe82b3a0170f2d,,,,,,,,,,,,,,,,,,,,,,,,,,,,,,,,,,,,,,,,,,,,,,,,,,,,,,,,,,,,,,,,,,,,,,,,,,,,,,,,,,,,,,,,,,,,,,,,,,,,,
,,,,,,,,,,,,5f70f2daea9a9f7076484982,38,Kobieta,2022-06-25_15h33.04.873,task,2021.1.4,Win32,60.0240096,6299f149e92ead563fba08ef,62b70e4589fe82b3a0170f2d,fvzznxh,"[""f"",""v"",""z"",""z"",""n"",""x"",""h""]","[1.9490000000000123,2.3969999999999914,3.312999999999988,3.5190000000000055,4.343999999999994,6.28000000000003,10.129999999999995,10.79400000000004]",0,FVZZNXHZ,20,0,20,0,1,,,,,,,,,,,,,,,,,,,,,,,,,,,,,,,,,,,,,,,,,,,,,,,,,,,,,,,,,,,,,,,,,,,,,,,,,,,,,,,,,,,,,,,,,,,
,,,,,,,,,,,,5f70f2daea9a9f7076484982,38,Kobieta,2022-06-25_15h33.04.873,task,2021.1.4,Win32,60.0240096,6299f149e92ead563fba08ef,62b70e4589fe82b3a0170f2d,,,,,,,,,,,space,9.201,9,"[""9""]",1,[6.382999999999981],[6.382999999999981],0,0,0,9,1,Practice,10,(20/2) - 1,9,,,,,,,,,,,,,,,,,,,,,,,,,,,,,,,,,,,,,,,,,,,,,,,,,,,,,,,,,,,,,,,,,,,,,,,,,,,
,,,,,,,,,,,,5f70f2daea9a9f7076484982,38,Kobieta,2022-06-25_15h33.04.873,task,2021.1.4,Win32,60.0240096,6299f149e92ead563fba08ef,62b70e4589fe82b3a0170f2d,,,,,,,,,,,,,0,"[""0""]",1,[2.8969999999999914],"[6.382999999999981,2.8969999999999914]",0,1,1,0,1,Practice,1,(3x3) -  9,0,,,,,,,,,,,,,,,,,,,,,,,,,,,,,,,,,,,,,,,,,,,,,,,,,,,,,,,,,,,,,,,,,,,,,,,,,,,
,,,,,,,,,,,,5f70f2daea9a9f7076484982,38,Kobieta,2022-06-25_15h33.04.873,task,2021.1.4,Win32,60.0240096,6299f149e92ead563fba08ef,62b70e4589fe82b3a0170f2d,,,,,,,,,,,,,8,"[""8""]",1,[3.532000000000039],"[6.382999999999981,2.8969999999999914,3.532000000000039]",0,2,2,8,1,Practice,9,(3x3) - 1,8,,,,,,,,,,,,,,,,,,,,,,,,,,,,,,,,,,,,,,,,,,,,,,,,,,,,,,,,,,,,,,,,,,,,,,,,,,,
,,,,,,,,,,,,5f70f2daea9a9f7076484982,38,Kobieta,2022-06-25_15h33.04.873,task,2021.1.4,Win32,60.0240096,6299f149e92ead563fba08ef,62b70e4589fe82b3a0170f2d,,,,,,,,,,,,,5,"[""5""]",1,[2.747000000000014],"[6.382999999999981,2.8969999999999914,3.532000000000039,2.747000000000014]",0,3,3,5,1,Practice,6,(4/2) + 3,5,,,,,,,,,,,,,,,,,,,,,,,,,,,,,,,,,,,,,,,,,,,,,,,,,,,,,,,,,,,,,,,,,,,,,,,,,,,
,,,,,,,,,,,,5f70f2daea9a9f7076484982,38,Kobieta,2022-06-25_15h33.04.873,task,2021.1.4,Win32,60.0240096,6299f149e92ead563fba08ef,62b70e4589fe82b3a0170f2d,,,,,,,,,,,,,7,"[""7""]",1,[6.766999999999996],"[6.382999999999981,2.8969999999999914,3.532000000000039,2.747000000000014,6.766999999999996]",0,4,4,7,1,Practice,8,(5x5) - 18,7,,,,,,,,,,,,,,,,,,,,,,,,,,,,,,,,,,,,,,,,,,,,,,,,,,,,,,,,,,,,,,,,,,,,,,,,,,,
,,,,,,,,,,,,5f70f2daea9a9f7076484982,38,Kobieta,2022-06-25_15h33.04.873,task,2021.1.4,Win32,60.0240096,6299f149e92ead563fba08ef,62b70e4589fe82b3a0170f2d,,,,,,,,,,,,,4,"[""4""]",1,[2.5500000000000114],"[6.382999999999981,2.8969999999999914,3.532000000000039,2.747000000000014,6.766999999999996,2.5500000000000114]",0,5,5,4,1,Practice,5,(2x6) - 8,4,,,,,,,,,,,,,,,,,,,,,,,,,,,,,,,,,,,,,,,,,,,,,,,,,,,,,,,,,,,,,,,,,,,,,,,,,,,
,,,,,,,,,,,,5f70f2daea9a9f7076484982,38,Kobieta,2022-06-25_15h33.04.873,task,2021.1.4,Win32,60.0240096,6299f149e92ead563fba08ef,62b70e4589fe82b3a0170f2d,,,,,,,,,,,,,3,"[""3""]",1,[2.4460000000000264],"[6.382999999999981,2.8969999999999914,3.532000000000039,2.747000000000014,6.766999999999996,2.5500000000000114,2.4460000000000264]",0,6,6,3,1,Practice,4,(8/4) + 1,3,,,,,,,,,,,,,,,,,,,,,,,,,,,,,,,,,,,,,,,,,,,,,,,,,,,,,,,,,,,,,,,,,,,,,,,,,,,
,,,,,,,,,,,,5f70f2daea9a9f7076484982,38,Kobieta,2022-06-25_15h33.04.873,task,2021.1.4,Win32,60.0240096,6299f149e92ead563fba08ef,62b70e4589fe82b3a0170f2d,,,,,,,,,,,,,1,"[""1""]",1,[1.9809999999999945],"[6.382999999999981,2.8969999999999914,3.532000000000039,2.747000000000014,6.766999999999996,2.5500000000000114,2.4460000000000264,1.9809999999999945]",0,7,7,1,1,Practice,2,(4x4) - 15,1,,,,,,,,,,,,,,,,,,,,,,,,,,,,,,,,,,,,,,,,,,,,,,,,,,,,,,,,,,,,,,,,,,,,,,,,,,,
,,,,,,,,,,,,5f70f2daea9a9f7076484982,38,Kobieta,2022-06-25_15h33.04.873,task,2021.1.4,Win32,60.0240096,6299f149e92ead563fba08ef,62b70e4589fe82b3a0170f2d,,,,,,,,,,,,,6,"[""6""]",1,[1.9370000000000118],"[6.382999999999981,2.8969999999999914,3.532000000000039,2.747000000000014,6.766999999999996,2.5500000000000114,2.4460000000000264,1.9809999999999945,1.9370000000000118]",0,8,8,6,1,Practice,7,(25/5) + 1,6,,,,,,,,,,,,,,,,,,,,,,,,,,,,,,,,,,,,,,,,,,,,,,,,,,,,,,,,,,,,,,,,,,,,,,,,,,,
,,,,,,,,,,,,5f70f2daea9a9f7076484982,38,Kobieta,2022-06-25_15h33.04.873,task,2021.1.4,Win32,60.0240096,6299f149e92ead563fba08ef,62b70e4589fe82b3a0170f2d,,,,,,,,,,,,,2,"[""2""]",1,[1.9069999999999823],"[6.382999999999981,2.8969999999999914,3.532000000000039,2.747000000000014,6.766999999999996,2.5500000000000114,2.4460000000000264,1.9809999999999945,1.9370000000000118,1.9069999999999823]",0,9,9,2,1,Practice,3,(4x4) - 14,2,,,,,,,,,,,,,,,,,,,,,,,,,,,,,,,,,,,,,,,,,,,,,,,,,,,,,,,,,,,,,,,,,,,,,,,,,,,
,,,,,,,,,,,,5f70f2daea9a9f7076484982,38,Kobieta,2022-06-25_15h33.04.873,task,2021.1.4,Win32,60.0240096,6299f149e92ead563fba08ef,62b70e4589fe82b3a0170f2d,,,,,,,,,,,,,,,,,,,,,,,,,,,1,33.147,2.2098,41.0826942,1.654946005,6.479560693,space,2.121,0,0,0,0,1,,,,,,,,,,,,,,,,,,,,,,,,,,,,,,,,,,,,,,,,,,,,,,,,,,,,,,,,,,,,,,
,,,,,,,,,,,,5f70f2daea9a9f7076484982,38,Kobieta,2022-06-25_15h33.04.873,task,2021.1.4,Win32,60.0240096,6299f149e92ead563fba08ef,62b70e4589fe82b3a0170f2d,,,,,,,,,,,,,5,,,,,,,,,,Practice,6,(4/2) + 3,5,,,,,,,,,,,,,,space,28.756,"[""5""]",1,[3.8559999999999945],1,0,0,0,5,1,,,,,,,,,,,,,,,,,,,,,,,,,,,,,,,,,,,,,,,,,,,,,,,,,,,
,,,,,,,,,,,X V Q F H G B L J M P D K C T S W R N Z,5f70f2daea9a9f7076484982,38,Kobieta,2022-06-25_15h33.04.873,task,2021.1.4,Win32,60.0240096,6299f149e92ead563fba08ef,62b70e4589fe82b3a0170f2d,,,,,,,,,,,,,,,,,,,,,,,,,,,,,,,,,,,,,,,,,,,,,,,,,,,0,0,0,0,1,,,,,,,,,,,,,,,,,,,,,,,,,,,,,,,,,,,,,,,,,,,,,,
,,,,,,,,,,,,5f70f2daea9a9f7076484982,38,Kobieta,2022-06-25_15h33.04.873,task,2021.1.4,Win32,60.0240096,6299f149e92ead563fba08ef,62b70e4589fe82b3a0170f2d,,,,,,,,,,,,,4,,,,,,,,,,Practice,5,(2x6) - 8,4,,,,,,,,,,,,,,,,"[""4""]",1,[3.146000000000015],1,0,0,0,4,1,,,,,,,,,,,,,,,,,,,,,,,,,,,,,,,,,,,,,,,,,,,,,,,,,,,
,,,,,,,,,,,X V Q F H G B L J M P D K C T S W R N Z,5f70f2daea9a9f7076484982,38,Kobieta,2022-06-25_15h33.04.873,task,2021.1.4,Win32,60.0240096,6299f149e92ead563fba08ef,62b70e4589fe82b3a0170f2d,,,,,,,,,,,,,,,,,,,,,,,,,,,,,,,,,,,,,,,,,,,,,,,,,,,1,0,1,0,1,,,,,,,,,,,,,,,,,,,,,,,,,,,,,,,,,,,,,,,,,,,,,,
,,,,,,,,,,,,5f70f2daea9a9f7076484982,38,Kobieta,2022-06-25_15h33.04.873,task,2021.1.4,Win32,60.0240096,6299f149e92ead563fba08ef,62b70e4589fe82b3a0170f2d,,,,,,,,,,,,,,,,,,,,,,,,,,,,,,,,,,,,,,,,,,,,,,,,,,,,,,,,zf,"[""z"",""f""]",0,"[2.3840000000000146,3.3350000000000364,4.483000000000004]",1,0,0,0,0,1,,,,,,,,,,,,,,,,,,,,,,,,,,,,,,,,,,,,
,,,,,,,,,,,,5f70f2daea9a9f7076484982,38,Kobieta,2022-06-25_15h33.04.873,task,2021.1.4,Win32,60.0240096,6299f149e92ead563fba08ef,62b70e4589fe82b3a0170f2d,,,,,,,,,,,,,8,,,,,,,,,,Practice,9,(3x3) - 1,8,,,,,,,,,,,,,,,,"[""8""]",1,[4.403999999999996],1,0,0,0,8,1,,,,,,,,,,,,,,,,,,,,,,,,,,,,,,,,,,,,,,,,,,,,,,,,,,,
,,,,,,,,,,,X V Q F H G B L J M P D K C T S W R N Z,5f70f2daea9a9f7076484982,38,Kobieta,2022-06-25_15h33.04.873,task,2021.1.4,Win32,60.0240096,6299f149e92ead563fba08ef,62b70e4589fe82b3a0170f2d,,,,,,,,,,,,,,,,,,,,,,,,,,,,,,,,,,,,,,,,,,,,,,,,,,,0,0,0,0,1,,,,,,,,,,,,,,,,,,,,,,,,,,,,,,,,,,,,,,,,,,,,,,
,,,,,,,,,,,,5f70f2daea9a9f7076484982,38,Kobieta,2022-06-25_15h33.04.873,task,2021.1.4,Win32,60.0240096,6299f149e92ead563fba08ef,62b70e4589fe82b3a0170f2d,,,,,,,,,,,,,5,,,,,,,,,,Practice,6,(4/2) + 3,5,,,,,,,,,,,,,,,,"[""5""]",1,[3.4500000000000455],1,0,0,0,5,1,,,,,,,,,,,,,,,,,,,,,,,,,,,,,,,,,,,,,,,,,,,,,,,,,,,
,,,,,,,,,,,X V Q F H G B L J M P D K C T S W R N Z,5f70f2daea9a9f7076484982,38,Kobieta,2022-06-25_15h33.04.873,task,2021.1.4,Win32,60.0240096,6299f149e92ead563fba08ef,62b70e4589fe82b3a0170f2d,,,,,,,,,,,,,,,,,,,,,,,,,,,,,,,,,,,,,,,,,,,,,,,,,,,1,0,1,0,1,,,,,,,,,,,,,,,,,,,,,,,,,,,,,,,,,,,,,,,,,,,,,,
,,,,,,,,,,,,5f70f2daea9a9f7076484982,38,Kobieta,2022-06-25_15h33.04.873,task,2021.1.4,Win32,60.0240096,6299f149e92ead563fba08ef,62b70e4589fe82b3a0170f2d,,,,,,,,,,,,,,,,,,,,,,,,,,,,,,,,,,,,,,,,,,,,,,,,,,,,,,,,xk,"[""x"",""k""]",0,"[1.8859999999999673,2.6829999999999927,3.6819999999999595]",1,1,0,1,0,1,,,,,,,,,,,,,,,,,,,,,,,,,,,,,,,,,,,,
,,,,,,,,,,,,5f70f2daea9a9f7076484982,38,Kobieta,2022-06-25_15h33.04.873,task,2021.1.4,Win32,60.0240096,6299f149e92ead563fba08ef,62b70e4589fe82b3a0170f2d,,,,,,,,,,,,,1,,,,,,,,,,Practice,2,(4x4) - 15,1,,,,,,,,,,,,,,,,"[""1""]",1,[1.9799999999999613],1,0,0,0,1,1,,,,,,,,,,,,,,,,,,,,,,,,,,,,,,,,,,,,,,,,,,,,,,,,,,,
,,,,,,,,,,,X V Q F H G B L J M P D K C T S W R N Z,5f70f2daea9a9f7076484982,38,Kobieta,2022-06-25_15h33.04.873,task,2021.1.4,Win32,60.0240096,6299f149e92ead563fba08ef,62b70e4589fe82b3a0170f2d,,,,,,,,,,,,,,,,,,,,,,,,,,,,,,,,,,,,,,,,,,,,,,,,,,,0,0,0,0,1,,,,,,,,,,,,,,,,,,,,,,,,,,,,,,,,,,,,,,,,,,,,,,
,,,,,,,,,,,,5f70f2daea9a9f7076484982,38,Kobieta,2022-06-25_15h33.04.873,task,2021.1.4,Win32,60.0240096,6299f149e92ead563fba08ef,62b70e4589fe82b3a0170f2d,,,,,,,,,,,,,5,,,,,,,,,,Practice,4,(8/4) + 1,3,,,,,,,,,,,,,,,,"[""5""]",0,[2.8350000000000364],0,0,0,0,3,1,,,,,,,,,,,,,,,,,,,,,,,,,,,,,,,,,,,,,,,,,,,,,,,,,,,
,,,,,,,,,,,,5f70f2daea9a9f7076484982,38,Kobieta,2022-06-25_15h33.04.873,task,2021.1.4,Win32,60.0240096,6299f149e92ead563fba08ef,62b70e4589fe82b3a0170f2d,,,,,,,,,,,,,7,,,,,,,,,,Practice,8,(5x5) - 18,7,,,,,,,,,,,,,,,,"[""7""]",1,[4.09699999999998],1,0,1,1,7,1,,,,,,,,,,,,,,,,,,,,,,,,,,,,,,,,,,,,,,,,,,,,,,,,,,,
,,,,,,,,,,,X V Q F H G B L J M P D K C T S W R N Z,5f70f2daea9a9f7076484982,38,Kobieta,2022-06-25_15h33.04.873,task,2021.1.4,Win32,60.0240096,6299f149e92ead563fba08ef,62b70e4589fe82b3a0170f2d,,,,,,,,,,,,,,,,,,,,,,,,,,,,,,,,,,,,,,,,,,,,,,,,,,,1,0,1,0,1,,,,,,,,,,,,,,,,,,,,,,,,,,,,,,,,,,,,,,,,,,,,,,
,,,,,,,,,,,,5f70f2daea9a9f7076484982,38,Kobieta,2022-06-25_15h33.04.873,task,2021.1.4,Win32,60.0240096,6299f149e92ead563fba08ef,62b70e4589fe82b3a0170f2d,,,,,,,,,,,,,,,,,,,,,,,,,,,,,,,,,,,,,,,,,,,,,,,,,,,,,,,,lz,"[""l"",""z""]",0,"[1.7180000000000746,2.6159999999999854,3.66700000000003]",1,2,0,2,0,1,,,,,,,,,,,,,,,,,,,,,,,,,,,,,,,,,,,,
,,,,,,,,,,,,5f70f2daea9a9f7076484982,38,Kobieta,2022-06-25_15h33.04.873,task,2021.1.4,Win32,60.0240096,6299f149e92ead563fba08ef,62b70e4589fe82b3a0170f2d,,,,,,,,,,,,,1,,,,,,,,,,Task,9,(3x7) - 20,1,,,,,,,,,,,,,,,,,,,1,,,,,,,,,,,,,,,,,,,,,space,25.224,"[""1""]",1,[2.384999999999991],0,0,0,8,1,,,,,,,,,,,,,,,,,,,,,,,,,,
,,,,,,,,,,,X V Q F H G B L J M P D K C T S W R N Z,5f70f2daea9a9f7076484982,38,Kobieta,2022-06-25_15h33.04.873,task,2021.1.4,Win32,60.0240096,6299f149e92ead563fba08ef,62b70e4589fe82b3a0170f2d,,,,,,,,,,,,,,,,,,,,,,,,,,,,,,,,,,,,,,,,,,,,,,,,,,,,,,,,,,,,,,,,,,,,,,,,,,,,0,0,0,0,1,,,,,,,,,,,,,,,,,,,,,
,,,,,,,,,,,,5f70f2daea9a9f7076484982,38,Kobieta,2022-06-25_15h33.04.873,task,2021.1.4,Win32,60.0240096,6299f149e92ead563fba08ef,62b70e4589fe82b3a0170f2d,,,,,,,,,,,,,8,,,,,,,,,,Task,23,(2x3) + 2,8,,,,,,,,,,,,,,,,,,,1,,,,,,,,,,,,,,,,,,,,,,,"[""8""]",1,[2.7490000000000236],0,0,0,22,1,,,,,,,,,,,,,,,,,,,,,,,,,,
,,,,,,,,,,,X V Q F H G B L J M P D K C T S W R N Z,5f70f2daea9a9f7076484982,38,Kobieta,2022-06-25_15h33.04.873,task,2021.1.4,Win32,60.0240096,6299f149e92ead563fba08ef,62b70e4589fe82b3a0170f2d,,,,,,,,,,,,,,,,,,,,,,,,,,,,,,,,,,,,,,,,,,,,,,,,,,,,,,,,,,,,,,,,,,,,,,,,,,,,1,0,1,0,1,,,,,,,,,,,,,,,,,,,,,
,,,,,,,,,,,,5f70f2daea9a9f7076484982,38,Kobieta,2022-06-25_15h33.04.873,task,2021.1.4,Win32,60.0240096,6299f149e92ead563fba08ef,62b70e4589fe82b3a0170f2d,,,,,,,,,,,,,,,,,,,,,,,,,,,,,,,,,,,,,,,,,,,,,,,,,,,,,,,,,,,,,,,,,,,,,,,,,,,,,,,,,zm,"[""z"",""m""]",0,"[1.7189999999999372,2.3199999999999363,3.6200000000000045]",1,ZM,0,0,0,0,1,,,,,,,,,,
,,,,,,,,,,,,5f70f2daea9a9f7076484982,38,Kobieta,2022-06-25_15h33.04.873,task,2021.1.4,Win32,60.0240096,6299f149e92ead563fba08ef,62b70e4589fe82b3a0170f2d,,,,,,,,,,,,,4,,,,,,,,,,Task,21,(10/2) - 1,4,,,,,,,,,,,,,,,,,,,1,,,,,,,,,,,,,,,,,,,,,,,"[""4""]",1,[3.187000000000012],0,0,0,20,1,,,,,,,,,,,,,,,,,,,,,,,,,,
,,,,,,,,,,,X V Q F H G B L J M P D K C T S W R N Z,5f70f2daea9a9f7076484982,38,Kobieta,2022-06-25_15h33.04.873,task,2021.1.4,Win32,60.0240096,6299f149e92ead563fba08ef,62b70e4589fe82b3a0170f2d,,,,,,,,,,,,,,,,,,,,,,,,,,,,,,,,,,,,,,,,,,,,,,,,,,,,,,,,,,,,,,,,,,,,,,,,,,,,0,0,0,0,1,,,,,,,,,,,,,,,,,,,,,
,,,,,,,,,,,,5f70f2daea9a9f7076484982,38,Kobieta,2022-06-25_15h33.04.873,task,2021.1.4,Win32,60.0240096,6299f149e92ead563fba08ef,62b70e4589fe82b3a0170f2d,,,,,,,,,,,,,7,,,,,,,,,,Task,31,(4/2) + 5,7,,,,,,,,,,,,,,,,,,,1,,,,,,,,,,,,,,,,,,,,,,,"[""7""]",1,[4.015999999999963],0,0,0,30,1,,,,,,,,,,,,,,,,,,,,,,,,,,
,,,,,,,,,,,X V Q F H G B L J M P D K C T S W R N Z,5f70f2daea9a9f7076484982,38,Kobieta,2022-06-25_15h33.04.873,task,2021.1.4,Win32,60.0240096,6299f149e92ead563fba08ef,62b70e4589fe82b3a0170f2d,,,,,,,,,,,,,,,,,,,,,,,,,,,,,,,,,,,,,,,,,,,,,,,,,,,,,,,,,,,,,,,,,,,,,,,,,,,,1,0,1,0,1,,,,,,,,,,,,,,,,,,,,,
,,,,,,,,,,,,5f70f2daea9a9f7076484982,38,Kobieta,2022-06-25_15h33.04.873,task,2021.1.4,Win32,60.0240096,6299f149e92ead563fba08ef,62b70e4589fe82b3a0170f2d,,,,,,,,,,,,,6,,,,,,,,,,Task,13,(3x4) - 6,6,,,,,,,,,,,,,,,,,,,1,,,,,,,,,,,,,,,,,,,,,,,"[""6""]",1,[3.9699999999999136],0,0,0,12,1,,,,,,,,,,,,,,,,,,,,,,,,,,
,,,,,,,,,,,X V Q F H G B L J M P D K C T S W R N Z,5f70f2daea9a9f7076484982,38,Kobieta,2022-06-25_15h33.04.873,task,2021.1.4,Win32,60.0240096,6299f149e92ead563fba08ef,62b70e4589fe82b3a0170f2d,,,,,,,,,,,,,,,,,,,,,,,,,,,,,,,,,,,,,,,,,,,,,,,,,,,,,,,,,,,,,,,,,,,,,,,,,,,,2,0,2,0,1,,,,,,,,,,,,,,,,,,,,,
,,,,,,,,,,,,5f70f2daea9a9f7076484982,38,Kobieta,2022-06-25_15h33.04.873,task,2021.1.4,Win32,60.0240096,6299f149e92ead563fba08ef,62b70e4589fe82b3a0170f2d,,,,,,,,,,,,,,,,,,,,,,,,,,,,,,,,,,,,,,,,,,,,,,,,,,,,,,,,,,,,,,,,,,,,,,,,,,,,,,,,,lcj,"[""l"",""c"",""j""]",0,"[1.47199999999998,2.134999999999991,2.6509999999999536,3.6000000000000227]",1,LCJ,1,0,1,0,1,,,,,,,,,,
,,,,,,,,,,,,5f70f2daea9a9f7076484982,38,Kobieta,2022-06-25_15h33.04.873,task,2021.1.4,Win32,60.0240096,6299f149e92ead563fba08ef,62b70e4589fe82b3a0170f2d,,,,,,,,,,,,,1,,,,,,,,,,Task,9,(3x7) - 20,1,,,,,,,,,,,,,,,,,,,1,,,,,,,,,,,,,,,,,,,,,,,"[""1""]",1,[2.030999999999949],0,0,0,8,1,,,,,,,,,,,,,,,,,,,,,,,,,,
,,,,,,,,,,,X V Q F H G B L J M P D K C T S W R N Z,5f70f2daea9a9f7076484982,38,Kobieta,2022-06-25_15h33.04.873,task,2021.1.4,Win32,60.0240096,6299f149e92ead563fba08ef,62b70e4589fe82b3a0170f2d,,,,,,,,,,,,,,,,,,,,,,,,,,,,,,,,,,,,,,,,,,,,,,,,,,,,,,,,,,,,,,,,,,,,,,,,,,,,0,0,0,0,1,,,,,,,,,,,,,,,,,,,,,
,,,,,,,,,,,,5f70f2daea9a9f7076484982,38,Kobieta,2022-06-25_15h33.04.873,task,2021.1.4,Win32,60.0240096,6299f149e92ead563fba08ef,62b70e4589fe82b3a0170f2d,,,,,,,,,,,,,7,,,,,,,,,,Task,30,(6/3) + 4 ,6,,,,,,,,,,,,,,,,,,,0,,,,,,,,,,,,,,,,,,,,,,,"[""7""]",0,[3.613999999999919],0,0,0,29,1,,,,,,,,,,,,,,,,,,,,,,,,,,
,,,,,,,,,,,,5f70f2daea9a9f7076484982,38,Kobieta,2022-06-25_15h33.04.873,task,2021.1.4,Win32,60.0240096,6299f149e92ead563fba08ef,62b70e4589fe82b3a0170f2d,,,,,,,,,,,,,0,,,,,,,,,,Task,8,(1x5) - 5,0,,,,,,,,,,,,,,,,,,,1,,,,,,,,,,,,,,,,,,,,,,,"[""0""]",1,[4.979000000000042],0,1,1,7,1,,,,,,,,,,,,,,,,,,,,,,,,,,
,,,,,,,,,,,X V Q F H G B L J M P D K C T S W R N Z,5f70f2daea9a9f7076484982,38,Kobieta,2022-06-25_15h33.04.873,task,2021.1.4,Win32,60.0240096,6299f149e92ead563fba08ef,62b70e4589fe82b3a0170f2d,,,,,,,,,,,,,,,,,,,,,,,,,,,,,,,,,,,,,,,,,,,,,,,,,,,,,,,,,,,,,,,,,,,,,,,,,,,,1,0,1,0,1,,,,,,,,,,,,,,,,,,,,,
,,,,,,,,,,,,5f70f2daea9a9f7076484982,38,Kobieta,2022-06-25_15h33.04.873,task,2021.1.4,Win32,60.0240096,6299f149e92ead563fba08ef,62b70e4589fe82b3a0170f2d,,,,,,,,,,,,,8,,,,,,,,,,Task,32,(8/2) + 4,8,,,,,,,,,,,,,,,,,,,1,,,,,,,,,,,,,,,,,,,,,,,"[""8""]",1,[4.0779999999999745],0,0,0,31,1,,,,,,,,,,,,,,,,,,,,,,,,,,
,,,,,,,,,,,X V Q F H G B L J M P D K C T S W R N Z,5f70f2daea9a9f7076484982,38,Kobieta,2022-06-25_15h33.04.873,task,2021.1.4,Win32,60.0240096,6299f149e92ead563fba08ef,62b70e4589fe82b3a0170f2d,,,,,,,,,,,,,,,,,,,,,,,,,,,,,,,,,,,,,,,,,,,,,,,,,,,,,,,,,,,,,,,,,,,,,,,,,,,,2,0,2,0,1,,,,,,,,,,,,,,,,,,,,,
,,,,,,,,,,,,5f70f2daea9a9f7076484982,38,Kobieta,2022-06-25_15h33.04.873,task,2021.1.4,Win32,60.0240096,6299f149e92ead563fba08ef,62b70e4589fe82b3a0170f2d,,,,,,,,,,,,,,,,,,,,,,,Task,7,(3x7) - 12,9,,,,,,,,,,,,,,,,,,,0,,,,,,,,,,,,,,,,,,,,,,,,0,,0,0,0,6,1,,,,,,,,,,,,,,,,,,,,,,,,,,
,,,,,,,,,,,,5f70f2daea9a9f7076484982,38,Kobieta,2022-06-25_15h33.04.873,task,2021.1.4,Win32,60.0240096,6299f149e92ead563fba08ef,62b70e4589fe82b3a0170f2d,,,,,,,,,,,,,1,,,,,,,,,,Task,18,(16/4) - 3,1,,,,,,,,,,,,,,,,,,,1,,,,,,,,,,,,,,,,,,,,,,,"[""1""]",1,[3.6849999999999454],0,1,1,17,1,,,,,,,,,,,,,,,,,,,,,,,,,,
,,,,,,,,,,,X V Q F H G B L J M P D K C T S W R N Z,5f70f2daea9a9f7076484982,38,Kobieta,2022-06-25_15h33.04.873,task,2021.1.4,Win32,60.0240096,6299f149e92ead563fba08ef,62b70e4589fe82b3a0170f2d,,,,,,,,,,,,,,,,,,,,,,,,,,,,,,,,,,,,,,,,,,,,,,,,,,,,,,,,,,,,,,,,,,,,,,,,,,,,3,0,3,0,1,,,,,,,,,,,,,,,,,,,,,
,,,,,,,,,,,,5f70f2daea9a9f7076484982,38,Kobieta,2022-06-25_15h33.04.873,task,2021.1.4,Win32,60.0240096,6299f149e92ead563fba08ef,62b70e4589fe82b3a0170f2d,,,,,,,,,,,,,,,,,,,,,,,,,,,,,,,,,,,,,,,,,,,,,,,,,,,,,,,,,,,,,,,,,,,,,,,,,,,,,,,,,vrxp,"[""v"",""r"",""x"",""p""]",0,"[1.7010000000000218,2.2420000000000755,3.1520000000000437,3.9540000000000646,4.683999999999969]",1,VRXP,2,0,2,0,1,,,,,,,,,,
,,,,,,,,,,,,5f70f2daea9a9f7076484982,38,Kobieta,2022-06-25_15h33.04.873,task,2021.1.4,Win32,60.0240096,6299f149e92ead563fba08ef,62b70e4589fe82b3a0170f2d,,,,,,,,,,,,,1,,,,,,,,,,Task,9,(3x7) - 20,1,,,,,,,,,,,,,,,,,,,1,,,,,,,,,,,,,,,,,,,,,,,"[""1""]",1,[2.5550000000000637],0,0,0,8,1,,,,,,,,,,,,,,,,,,,,,,,,,,
,,,,,,,,,,,X V Q F H G B L J M P D K C T S W R N Z,5f70f2daea9a9f7076484982,38,Kobieta,2022-06-25_15h33.04.873,task,2021.1.4,Win32,60.0240096,6299f149e92ead563fba08ef,62b70e4589fe82b3a0170f2d,,,,,,,,,,,,,,,,,,,,,,,,,,,,,,,,,,,,,,,,,,,,,,,,,,,,,,,,,,,,,,,,,,,,,,,,,,,,0,0,0,0,1,,,,,,,,,,,,,,,,,,,,,
,,,,,,,,,,,,5f70f2daea9a9f7076484982,38,Kobieta,2022-06-25_15h33.04.873,task,2021.1.4,Win32,60.0240096,6299f149e92ead563fba08ef,62b70e4589fe82b3a0170f2d,,,,,,,,,,,,,1,,,,,,,,,,Task,18,(16/4) - 3,1,,,,,,,,,,,,,,,,,,,1,,,,,,,,,,,,,,,,,,,,,,,"[""1""]",1,[2.505000000000109],0,0,0,17,1,,,,,,,,,,,,,,,,,,,,,,,,,,
,,,,,,,,,,,X V Q F H G B L J M P D K C T S W R N Z,5f70f2daea9a9f7076484982,38,Kobieta,2022-06-25_15h33.04.873,task,2021.1.4,Win32,60.0240096,6299f149e92ead563fba08ef,62b70e4589fe82b3a0170f2d,,,,,,,,,,,,,,,,,,,,,,,,,,,,,,,,,,,,,,,,,,,,,,,,,,,,,,,,,,,,,,,,,,,,,,,,,,,,1,0,1,0,1,,,,,,,,,,,,,,,,,,,,,
,,,,,,,,,,,,5f70f2daea9a9f7076484982,38,Kobieta,2022-06-25_15h33.04.873,task,2021.1.4,Win32,60.0240096,6299f149e92ead563fba08ef,62b70e4589fe82b3a0170f2d,,,,,,,,,,,,,1,,,,,,,,,,Task,34,(9/3) - 2,1,,,,,,,,,,,,,,,,,,,1,,,,,,,,,,,,,,,,,,,,,,,"[""1""]",1,[2.516999999999939],0,0,0,33,1,,,,,,,,,,,,,,,,,,,,,,,,,,
,,,,,,,,,,,X V Q F H G B L J M P D K C T S W R N Z,5f70f2daea9a9f7076484982,38,Kobieta,2022-06-25_15h33.04.873,task,2021.1.4,Win32,60.0240096,6299f149e92ead563fba08ef,62b70e4589fe82b3a0170f2d,,,,,,,,,,,,,,,,,,,,,,,,,,,,,,,,,,,,,,,,,,,,,,,,,,,,,,,,,,,,,,,,,,,,,,,,,,,,2,0,2,0,1,,,,,,,,,,,,,,,,,,,,,
,,,,,,,,,,,,5f70f2daea9a9f7076484982,38,Kobieta,2022-06-25_15h33.04.873,task,2021.1.4,Win32,60.0240096,6299f149e92ead563fba08ef,62b70e4589fe82b3a0170f2d,,,,,,,,,,,,,3,,,,,,,,,,Task,25,(10/5) - 2,0,,,,,,,,,,,,,,,,,,,0,,,,,,,,,,,,,,,,,,,,,,,"[""3""]",0,[3.4640000000000555],0,0,0,24,1,,,,,,,,,,,,,,,,,,,,,,,,,,
,,,,,,,,,,,,5f70f2daea9a9f7076484982,38,Kobieta,2022-06-25_15h33.04.873,task,2021.1.4,Win32,60.0240096,6299f149e92ead563fba08ef,62b70e4589fe82b3a0170f2d,,,,,,,,,,,,,0,,,,,,,,,,Task,8,(1x5) - 5,0,,,,,,,,,,,,,,,,,,,1,,,,,,,,,,,,,,,,,,,,,,,"[""0""]",1,[4.265999999999963],0,1,1,7,1,,,,,,,,,,,,,,,,,,,,,,,,,,
,,,,,,,,,,,X V Q F H G B L J M P D K C T S W R N Z,5f70f2daea9a9f7076484982,38,Kobieta,2022-06-25_15h33.04.873,task,2021.1.4,Win32,60.0240096,6299f149e92ead563fba08ef,62b70e4589fe82b3a0170f2d,,,,,,,,,,,,,,,,,,,,,,,,,,,,,,,,,,,,,,,,,,,,,,,,,,,,,,,,,,,,,,,,,,,,,,,,,,,,3,0,3,0,1,,,,,,,,,,,,,,,,,,,,,
,,,,,,,,,,,,5f70f2daea9a9f7076484982,38,Kobieta,2022-06-25_15h33.04.873,task,2021.1.4,Win32,60.0240096,6299f149e92ead563fba08ef,62b70e4589fe82b3a0170f2d,,,,,,,,,,,,,0,,,,,,,,,,Task,17,(2x3) - 6,0,,,,,,,,,,,,,,,,,,,1,,,,,,,,,,,,,,,,,,,,,,,"[""0""]",1,[2.634999999999991],0,0,0,16,1,,,,,,,,,,,,,,,,,,,,,,,,,,
,,,,,,,,,,,X V Q F H G B L J M P D K C T S W R N Z,5f70f2daea9a9f7076484982,38,Kobieta,2022-06-25_15h33.04.873,task,2021.1.4,Win32,60.0240096,6299f149e92ead563fba08ef,62b70e4589fe82b3a0170f2d,,,,,,,,,,,,,,,,,,,,,,,,,,,,,,,,,,,,,,,,,,,,,,,,,,,,,,,,,,,,,,,,,,,,,,,,,,,,4,0,4,0,1,,,,,,,,,,,,,,,,,,,,,
,,,,,,,,,,,,5f70f2daea9a9f7076484982,38,Kobieta,2022-06-25_15h33.04.873,task,2021.1.4,Win32,60.0240096,6299f149e92ead563fba08ef,62b70e4589fe82b3a0170f2d,,,,,,,,,,,,,,,,,,,,,,,,,,,,,,,,,,,,,,,,,,,,,,,,,,,,,,,,,,,,,,,,,,,,,,,,,,,,,,,,,xlqqp,"[""x"",""l"",""q"",""q"",""p""]",0,"[2.2169999999999845,2.9160000000000537,3.5049999999999955,3.6860000000000355,4.338000000000079,5.205000000000041]",1,XLQQP,3,0,3,0,1,,,,,,,,,,
,,,,,,,,,,,,5f70f2daea9a9f7076484982,38,Kobieta,2022-06-25_15h33.04.873,task,2021.1.4,Win32,60.0240096,6299f149e92ead563fba08ef,62b70e4589fe82b3a0170f2d,,,,,,,,,,,,,3,,,,,,,,,,Task,27,(3/3) + 2,3,,,,,,,,,,,,,,,,,,,1,,,,,,,,,,,,,,,,,,,,,,,"[""3""]",1,[2.4689999999999372],0,0,0,26,1,,,,,,,,,,,,,,,,,,,,,,,,,,
,,,,,,,,,,,X V Q F H G B L J M P D K C T S W R N Z,5f70f2daea9a9f7076484982,38,Kobieta,2022-06-25_15h33.04.873,task,2021.1.4,Win32,60.0240096,6299f149e92ead563fba08ef,62b70e4589fe82b3a0170f2d,,,,,,,,,,,,,,,,,,,,,,,,,,,,,,,,,,,,,,,,,,,,,,,,,,,,,,,,,,,,,,,,,,,,,,,,,,,,0,0,0,0,1,,,,,,,,,,,,,,,,,,,,,
,,,,,,,,,,,,5f70f2daea9a9f7076484982,38,Kobieta,2022-06-25_15h33.04.873,task,2021.1.4,Win32,60.0240096,6299f149e92ead563fba08ef,62b70e4589fe82b3a0170f2d,,,,,,,,,,,,,2,,,,,,,,,,Task,10,(2x5) - 8,2,,,,,,,,,,,,,,,,,,,1,,,,,,,,,,,,,,,,,,,,,,,"[""2""]",1,[2.01400000000001],0,0,0,9,1,,,,,,,,,,,,,,,,,,,,,,,,,,
,,,,,,,,,,,X V Q F H G B L J M P D K C T S W R N Z,5f70f2daea9a9f7076484982,38,Kobieta,2022-06-25_15h33.04.873,task,2021.1.4,Win32,60.0240096,6299f149e92ead563fba08ef,62b70e4589fe82b3a0170f2d,,,,,,,,,,,,,,,,,,,,,,,,,,,,,,,,,,,,,,,,,,,,,,,,,,,,,,,,,,,,,,,,,,,,,,,,,,,,1,0,1,0,1,,,,,,,,,,,,,,,,,,,,,
,,,,,,,,,,,,5f70f2daea9a9f7076484982,38,Kobieta,2022-06-25_15h33.04.873,task,2021.1.4,Win32,60.0240096,6299f149e92ead563fba08ef,62b70e4589fe82b3a0170f2d,,,,,,,,,,,,,8,,,,,,,,,,Task,39,(5x3) - 7,8,,,,,,,,,,,,,,,,,,,1,,,,,,,,,,,,,,,,,,,,,,,"[""8""]",1,[2.75],0,0,0,38,1,,,,,,,,,,,,,,,,,,,,,,,,,,
,,,,,,,,,,,X V Q F H G B L J M P D K C T S W R N Z,5f70f2daea9a9f7076484982,38,Kobieta,2022-06-25_15h33.04.873,task,2021.1.4,Win32,60.0240096,6299f149e92ead563fba08ef,62b70e4589fe82b3a0170f2d,,,,,,,,,,,,,,,,,,,,,,,,,,,,,,,,,,,,,,,,,,,,,,,,,,,,,,,,,,,,,,,,,,,,,,,,,,,,2,0,2,0,1,,,,,,,,,,,,,,,,,,,,,
,,,,,,,,,,,,5f70f2daea9a9f7076484982,38,Kobieta,2022-06-25_15h33.04.873,task,2021.1.4,Win32,60.0240096,6299f149e92ead563fba08ef,62b70e4589fe82b3a0170f2d,,,,,,,,,,,,,1,,,,,,,,,,Task,18,(16/4) - 3,1,,,,,,,,,,,,,,,,,,,1,,,,,,,,,,,,,,,,,,,,,,,"[""1""]",1,[2.65300000000002],0,0,0,17,1,,,,,,,,,,,,,,,,,,,,,,,,,,
,,,,,,,,,,,X V Q F H G B L J M P D K C T S W R N Z,5f70f2daea9a9f7076484982,38,Kobieta,2022-06-25_15h33.04.873,task,2021.1.4,Win32,60.0240096,6299f149e92ead563fba08ef,62b70e4589fe82b3a0170f2d,,,,,,,,,,,,,,,,,,,,,,,,,,,,,,,,,,,,,,,,,,,,,,,,,,,,,,,,,,,,,,,,,,,,,,,,,,,,3,0,3,0,1,,,,,,,,,,,,,,,,,,,,,
,,,,,,,,,,,,5f70f2daea9a9f7076484982,38,Kobieta,2022-06-25_15h33.04.873,task,2021.1.4,Win32,60.0240096,6299f149e92ead563fba08ef,62b70e4589fe82b3a0170f2d,,,,,,,,,,,,,3,,,,,,,,,,Task,25,(10/5) - 2,0,,,,,,,,,,,,,,,,,,,0,,,,,,,,,,,,,,,,,,,,,,,"[""3""]",0,[2.816000000000031],0,0,0,24,1,,,,,,,,,,,,,,,,,,,,,,,,,,
,,,,,,,,,,,,5f70f2daea9a9f7076484982,38,Kobieta,2022-06-25_15h33.04.873,task,2021.1.4,Win32,60.0240096,6299f149e92ead563fba08ef,62b70e4589fe82b3a0170f2d,,,,,,,,,,,,,2,,,,,,,,,,Task,19,(6/2) - 1,2,,,,,,,,,,,,,,,,,,,1,,,,,,,,,,,,,,,,,,,,,,,"[""2""]",1,[3.7129999999999654],0,1,1,18,1,,,,,,,,,,,,,,,,,,,,,,,,,,
,,,,,,,,,,,X V Q F H G B L J M P D K C T S W R N Z,5f70f2daea9a9f7076484982,38,Kobieta,2022-06-25_15h33.04.873,task,2021.1.4,Win32,60.0240096,6299f149e92ead563fba08ef,62b70e4589fe82b3a0170f2d,,,,,,,,,,,,,,,,,,,,,,,,,,,,,,,,,,,,,,,,,,,,,,,,,,,,,,,,,,,,,,,,,,,,,,,,,,,,4,0,4,0,1,,,,,,,,,,,,,,,,,,,,,
,,,,,,,,,,,,5f70f2daea9a9f7076484982,38,Kobieta,2022-06-25_15h33.04.873,task,2021.1.4,Win32,60.0240096,6299f149e92ead563fba08ef,62b70e4589fe82b3a0170f2d,,,,,,,,,,,,,1,,,,,,,,,,Task,9,(3x7) - 20,1,,,,,,,,,,,,,,,,,,,1,,,,,,,,,,,,,,,,,,,,,,,"[""1""]",1,[3.634999999999991],0,0,0,8,1,,,,,,,,,,,,,,,,,,,,,,,,,,
,,,,,,,,,,,X V Q F H G B L J M P D K C T S W R N Z,5f70f2daea9a9f7076484982,38,Kobieta,2022-06-25_15h33.04.873,task,2021.1.4,Win32,60.0240096,6299f149e92ead563fba08ef,62b70e4589fe82b3a0170f2d,,,,,,,,,,,,,,,,,,,,,,,,,,,,,,,,,,,,,,,,,,,,,,,,,,,,,,,,,,,,,,,,,,,,,,,,,,,,5,0,5,0,1,,,,,,,,,,,,,,,,,,,,,
,,,,,,,,,,,,5f70f2daea9a9f7076484982,38,Kobieta,2022-06-25_15h33.04.873,task,2021.1.4,Win32,60.0240096,6299f149e92ead563fba08ef,62b70e4589fe82b3a0170f2d,,,,,,,,,,,,,,,,,,,,,,,,,,,,,,,,,,,,,,,,,,,,,,,,,,,,,,,,,,,,,,,,,,,,,,,,,,,,,,,,,qvbgk,"[""q"",""v"",""b"",""g"",""k""]",0,"[1.6760000000000446,3.2690000000000055,3.5260000000000673,4.406000000000063,5.499000000000024,8.88900000000001]",0,QVGGKM,4,0,4,0,1,,,,,,,,,,
,,,,,,,,,,,,5f70f2daea9a9f7076484982,38,Kobieta,2022-06-25_15h33.04.873,task,2021.1.4,Win32,60.0240096,6299f149e92ead563fba08ef,62b70e4589fe82b3a0170f2d,,,,,,,,,,,,,7,,,,,,,,,,Task,38,(4x6) - 17,7,,,,,,,,,,,,,,,,,,,1,,,,,,,,,,,,,,,,,,,,,,,"[""7""]",1,[5.429000000000087],0,0,0,37,1,,,,,,,,,,,,,,,,,,,,,,,,,,
,,,,,,,,,,,X V Q F H G B L J M P D K C T S W R N Z,5f70f2daea9a9f7076484982,38,Kobieta,2022-06-25_15h33.04.873,task,2021.1.4,Win32,60.0240096,6299f149e92ead563fba08ef,62b70e4589fe82b3a0170f2d,,,,,,,,,,,,,,,,,,,,,,,,,,,,,,,,,,,,,,,,,,,,,,,,,,,,,,,,,,,,,,,,,,,,,,,,,,,,0,0,0,0,1,,,,,,,,,,,,,,,,,,,,,
,,,,,,,,,,,,5f70f2daea9a9f7076484982,38,Kobieta,2022-06-25_15h33.04.873,task,2021.1.4,Win32,60.0240096,6299f149e92ead563fba08ef,62b70e4589fe82b3a0170f2d,,,,,,,,,,,,,8,,,,,,,,,,Task,39,(5x3) - 7,8,,,,,,,,,,,,,,,,,,,1,,,,,,,,,,,,,,,,,,,,,,,"[""8""]",1,[2.619000000000028],0,0,0,38,1,,,,,,,,,,,,,,,,,,,,,,,,,,
,,,,,,,,,,,X V Q F H G B L J M P D K C T S W R N Z,5f70f2daea9a9f7076484982,38,Kobieta,2022-06-25_15h33.04.873,task,2021.1.4,Win32,60.0240096,6299f149e92ead563fba08ef,62b70e4589fe82b3a0170f2d,,,,,,,,,,,,,,,,,,,,,,,,,,,,,,,,,,,,,,,,,,,,,,,,,,,,,,,,,,,,,,,,,,,,,,,,,,,,1,0,1,0,1,,,,,,,,,,,,,,,,,,,,,
,,,,,,,,,,,,5f70f2daea9a9f7076484982,38,Kobieta,2022-06-25_15h33.04.873,task,2021.1.4,Win32,60.0240096,6299f149e92ead563fba08ef,62b70e4589fe82b3a0170f2d,,,,,,,,,,,,,3,,,,,,,,,,Task,27,(3/3) + 2,3,,,,,,,,,,,,,,,,,,,1,,,,,,,,,,,,,,,,,,,,,,,"[""3""]",1,[2.0679999999999836],0,0,0,26,1,,,,,,,,,,,,,,,,,,,,,,,,,,
,,,,,,,,,,,X V Q F H G B L J M P D K C T S W R N Z,5f70f2daea9a9f7076484982,38,Kobieta,2022-06-25_15h33.04.873,task,2021.1.4,Win32,60.0240096,6299f149e92ead563fba08ef,62b70e4589fe82b3a0170f2d,,,,,,,,,,,,,,,,,,,,,,,,,,,,,,,,,,,,,,,,,,,,,,,,,,,,,,,,,,,,,,,,,,,,,,,,,,,,2,0,2,0,1,,,,,,,,,,,,,,,,,,,,,
,,,,,,,,,,,,5f70f2daea9a9f7076484982,38,Kobieta,2022-06-25_15h33.04.873,task,2021.1.4,Win32,60.0240096,6299f149e92ead563fba08ef,62b70e4589fe82b3a0170f2d,,,,,,,,,,,,,5,,,,,,,,,,Task,29,(3x8) - 19 ,5,,,,,,,,,,,,,,,,,,,1,,,,,,,,,,,,,,,,,,,,,,,"[""5""]",1,[3.383000000000038],0,0,0,28,1,,,,,,,,,,,,,,,,,,,,,,,,,,
,,,,,,,,,,,X V Q F H G B L J M P D K C T S W R N Z,5f70f2daea9a9f7076484982,38,Kobieta,2022-06-25_15h33.04.873,task,2021.1.4,Win32,60.0240096,6299f149e92ead563fba08ef,62b70e4589fe82b3a0170f2d,,,,,,,,,,,,,,,,,,,,,,,,,,,,,,,,,,,,,,,,,,,,,,,,,,,,,,,,,,,,,,,,,,,,,,,,,,,,3,0,3,0,1,,,,,,,,,,,,,,,,,,,,,
,,,,,,,,,,,,5f70f2daea9a9f7076484982,38,Kobieta,2022-06-25_15h33.04.873,task,2021.1.4,Win32,60.0240096,6299f149e92ead563fba08ef,62b70e4589fe82b3a0170f2d,,,,,,,,,,,,,4,,,,,,,,,,Task,28,(2x5) - 6,4,,,,,,,,,,,,,,,,,,,1,,,,,,,,,,,,,,,,,,,,,,,"[""4""]",1,[1.766999999999939],0,0,0,27,1,,,,,,,,,,,,,,,,,,,,,,,,,,
,,,,,,,,,,,X V Q F H G B L J M P D K C T S W R N Z,5f70f2daea9a9f7076484982,38,Kobieta,2022-06-25_15h33.04.873,task,2021.1.4,Win32,60.0240096,6299f149e92ead563fba08ef,62b70e4589fe82b3a0170f2d,,,,,,,,,,,,,,,,,,,,,,,,,,,,,,,,,,,,,,,,,,,,,,,,,,,,,,,,,,,,,,,,,,,,,,,,,,,,4,0,4,0,1,,,,,,,,,,,,,,,,,,,,,
,,,,,,,,,,,,5f70f2daea9a9f7076484982,38,Kobieta,2022-06-25_15h33.04.873,task,2021.1.4,Win32,60.0240096,6299f149e92ead563fba08ef,62b70e4589fe82b3a0170f2d,,,,,,,,,,,,,0,,,,,,,,,,Task,25,(10/5) - 2,0,,,,,,,,,,,,,,,,,,,1,,,,,,,,,,,,,,,,,,,,,,,"[""0""]",1,[3.0860000000000127],0,0,0,24,1,,,,,,,,,,,,,,,,,,,,,,,,,,
,,,,,,,,,,,X V Q F H G B L J M P D K C T S W R N Z,5f70f2daea9a9f7076484982,38,Kobieta,2022-06-25_15h33.04.873,task,2021.1.4,Win32,60.0240096,6299f149e92ead563fba08ef,62b70e4589fe82b3a0170f2d,,,,,,,,,,,,,,,,,,,,,,,,,,,,,,,,,,,,,,,,,,,,,,,,,,,,,,,,,,,,,,,,,,,,,,,,,,,,5,0,5,0,1,,,,,,,,,,,,,,,,,,,,,
,,,,,,,,,,,,5f70f2daea9a9f7076484982,38,Kobieta,2022-06-25_15h33.04.873,task,2021.1.4,Win32,60.0240096,6299f149e92ead563fba08ef,62b70e4589fe82b3a0170f2d,,,,,,,,,,,,,,,,,,,,,,,,,,,,,,,,,,,,,,,,,,,,,,,,,,,,,,,,,,,,,,,,,,,,,,,,,,,,,,,,,ttckdc,"[""t"",""t"",""c"",""k"",""d"",""c""]",0,"[1.740000000000009,1.9370000000000118,2.266999999999939,2.8659999999999854,3.33299999999997,3.58299999999997,4.353999999999928]",1,TTCKDC,5,0,5,0,1,,,,,,,,,,
,,,,,,,,,,,,5f70f2daea9a9f7076484982,38,Kobieta,2022-06-25_15h33.04.873,task,2021.1.4,Win32,60.0240096,6299f149e92ead563fba08ef,62b70e4589fe82b3a0170f2d,,,,,,,,,,,,,3,,,,,,,,,,Task,3,(2x3) - 3,3,,,,,,,,,,,,,,,,,,,1,,,,,,,,,,,,,,,,,,,,,,,"[""3""]",1,[2.01400000000001],0,0,0,2,1,,,,,,,,,,,,,,,,,,,,,,,,,,
,,,,,,,,,,,X V Q F H G B L J M P D K C T S W R N Z,5f70f2daea9a9f7076484982,38,Kobieta,2022-06-25_15h33.04.873,task,2021.1.4,Win32,60.0240096,6299f149e92ead563fba08ef,62b70e4589fe82b3a0170f2d,,,,,,,,,,,,,,,,,,,,,,,,,,,,,,,,,,,,,,,,,,,,,,,,,,,,,,,,,,,,,,,,,,,,,,,,,,,,0,0,0,0,1,,,,,,,,,,,,,,,,,,,,,
,,,,,,,,,,,,5f70f2daea9a9f7076484982,38,Kobieta,2022-06-25_15h33.04.873,task,2021.1.4,Win32,60.0240096,6299f149e92ead563fba08ef,62b70e4589fe82b3a0170f2d,,,,,,,,,,,,,0,,,,,,,,,,Task,17,(2x3) - 6,0,,,,,,,,,,,,,,,,,,,1,,,,,,,,,,,,,,,,,,,,,,,"[""0""]",1,[2.0650000000000546],0,0,0,16,1,,,,,,,,,,,,,,,,,,,,,,,,,,
,,,,,,,,,,,X V Q F H G B L J M P D K C T S W R N Z,5f70f2daea9a9f7076484982,38,Kobieta,2022-06-25_15h33.04.873,task,2021.1.4,Win32,60.0240096,6299f149e92ead563fba08ef,62b70e4589fe82b3a0170f2d,,,,,,,,,,,,,,,,,,,,,,,,,,,,,,,,,,,,,,,,,,,,,,,,,,,,,,,,,,,,,,,,,,,,,,,,,,,,1,0,1,0,1,,,,,,,,,,,,,,,,,,,,,
,,,,,,,,,,,,5f70f2daea9a9f7076484982,38,Kobieta,2022-06-25_15h33.04.873,task,2021.1.4,Win32,60.0240096,6299f149e92ead563fba08ef,62b70e4589fe82b3a0170f2d,,,,,,,,,,,,,5,,,,,,,,,,Task,22,(3x1) + 2,5,,,,,,,,,,,,,,,,,,,1,,,,,,,,,,,,,,,,,,,,,,,"[""5""]",1,[2.7959999999999354],0,0,0,21,1,,,,,,,,,,,,,,,,,,,,,,,,,,
,,,,,,,,,,,X V Q F H G B L J M P D K C T S W R N Z,5f70f2daea9a9f7076484982,38,Kobieta,2022-06-25_15h33.04.873,task,2021.1.4,Win32,60.0240096,6299f149e92ead563fba08ef,62b70e4589fe82b3a0170f2d,,,,,,,,,,,,,,,,,,,,,,,,,,,,,,,,,,,,,,,,,,,,,,,,,,,,,,,,,,,,,,,,,,,,,,,,,,,,2,0,2,0,1,,,,,,,,,,,,,,,,,,,,,
,,,,,,,,,,,,5f70f2daea9a9f7076484982,38,Kobieta,2022-06-25_15h33.04.873,task,2021.1.4,Win32,60.0240096,6299f149e92ead563fba08ef,62b70e4589fe82b3a0170f2d,,,,,,,,,,,,,3,,,,,,,,,,Task,3,(2x3) - 3,3,,,,,,,,,,,,,,,,,,,1,,,,,,,,,,,,,,,,,,,,,,,"[""3""]",1,[2.546000000000049],0,0,0,2,1,,,,,,,,,,,,,,,,,,,,,,,,,,
,,,,,,,,,,,X V Q F H G B L J M P D K C T S W R N Z,5f70f2daea9a9f7076484982,38,Kobieta,2022-06-25_15h33.04.873,task,2021.1.4,Win32,60.0240096,6299f149e92ead563fba08ef,62b70e4589fe82b3a0170f2d,,,,,,,,,,,,,,,,,,,,,,,,,,,,,,,,,,,,,,,,,,,,,,,,,,,,,,,,,,,,,,,,,,,,,,,,,,,,3,0,3,0,1,,,,,,,,,,,,,,,,,,,,,
,,,,,,,,,,,,5f70f2daea9a9f7076484982,38,Kobieta,2022-06-25_15h33.04.873,task,2021.1.4,Win32,60.0240096,6299f149e92ead563fba08ef,62b70e4589fe82b3a0170f2d,,,,,,,,,,,,,1,,,,,,,,,,Task,18,(16/4) - 3,1,,,,,,,,,,,,,,,,,,,1,,,,,,,,,,,,,,,,,,,,,,,"[""1""]",1,[2.064999999999941],0,0,0,17,1,,,,,,,,,,,,,,,,,,,,,,,,,,
,,,,,,,,,,,X V Q F H G B L J M P D K C T S W R N Z,5f70f2daea9a9f7076484982,38,Kobieta,2022-06-25_15h33.04.873,task,2021.1.4,Win32,60.0240096,6299f149e92ead563fba08ef,62b70e4589fe82b3a0170f2d,,,,,,,,,,,,,,,,,,,,,,,,,,,,,,,,,,,,,,,,,,,,,,,,,,,,,,,,,,,,,,,,,,,,,,,,,,,,4,0,4,0,1,,,,,,,,,,,,,,,,,,,,,
,,,,,,,,,,,,5f70f2daea9a9f7076484982,38,Kobieta,2022-06-25_15h33.04.873,task,2021.1.4,Win32,60.0240096,6299f149e92ead563fba08ef,62b70e4589fe82b3a0170f2d,,,,,,,,,,,,,9,,,,,,,,,,Task,40,(7x2) - 5,9,,,,,,,,,,,,,,,,,,,1,,,,,,,,,,,,,,,,,,,,,,,"[""9""]",1,[2.522000000000048],0,0,0,39,1,,,,,,,,,,,,,,,,,,,,,,,,,,
,,,,,,,,,,,X V Q F H G B L J M P D K C T S W R N Z,5f70f2daea9a9f7076484982,38,Kobieta,2022-06-25_15h33.04.873,task,2021.1.4,Win32,60.0240096,6299f149e92ead563fba08ef,62b70e4589fe82b3a0170f2d,,,,,,,,,,,,,,,,,,,,,,,,,,,,,,,,,,,,,,,,,,,,,,,,,,,,,,,,,,,,,,,,,,,,,,,,,,,,5,0,5,0,1,,,,,,,,,,,,,,,,,,,,,
,,,,,,,,,,,,5f70f2daea9a9f7076484982,38,Kobieta,2022-06-25_15h33.04.873,task,2021.1.4,Win32,60.0240096,6299f149e92ead563fba08ef,62b70e4589fe82b3a0170f2d,,,,,,,,,,,,,9,,,,,,,,,,Task,16,(3x8) - 15,9,,,,,,,,,,,,,,,,,,,1,,,,,,,,,,,,,,,,,,,,,,,"[""9""]",1,[4.0330000000000155],0,0,0,15,1,,,,,,,,,,,,,,,,,,,,,,,,,,
,,,,,,,,,,,X V Q F H G B L J M P D K C T S W R N Z,5f70f2daea9a9f7076484982,38,Kobieta,2022-06-25_15h33.04.873,task,2021.1.4,Win32,60.0240096,6299f149e92ead563fba08ef,62b70e4589fe82b3a0170f2d,,,,,,,,,,,,,,,,,,,,,,,,,,,,,,,,,,,,,,,,,,,,,,,,,,,,,,,,,,,,,,,,,,,,,,,,,,,,6,0,6,0,1,,,,,,,,,,,,,,,,,,,,,
,,,,,,,,,,,,5f70f2daea9a9f7076484982,38,Kobieta,2022-06-25_15h33.04.873,task,2021.1.4,Win32,60.0240096,6299f149e92ead563fba08ef,62b70e4589fe82b3a0170f2d,,,,,,,,,,,,,,,,,,,,,,,,,,,,,,,,,,,,,,,,,,,,,,,,,,,,,,,,,,,,,,,,,,,,,,,,,,,,,,,,,ldqhkn,"[""l"",""d"",""q"",""h"",""k"",""n""]",0,"[2.0190000000000055,2.50100000000009,3.900000000000091,4.721000000000004,5.518000000000029,6.451000000000022,7.607000000000085]",0,LDQHWVN,6,0,6,0,1,,,,,,,,,,
,,,,,,,,,,,,5f70f2daea9a9f7076484982,38,Kobieta,2022-06-25_15h33.04.873,task,2021.1.4,Win32,60.0240096,6299f149e92ead563fba08ef,62b70e4589fe82b3a0170f2d,,,,,,,,,,,,,9,,,,,,,,,,Task,7,(3x7) - 12,9,,,,,,,,,,,,,,,,,,,1,,,,,,,,,,,,,,,,,,,,,,,"[""9""]",1,[2.368000000000052],0,0,0,6,1,,,,,,,,,,,,,,,,,,,,,,,,,,
,,,,,,,,,,,X V Q F H G B L J M P D K C T S W R N Z,5f70f2daea9a9f7076484982,38,Kobieta,2022-06-25_15h33.04.873,task,2021.1.4,Win32,60.0240096,6299f149e92ead563fba08ef,62b70e4589fe82b3a0170f2d,,,,,,,,,,,,,,,,,,,,,,,,,,,,,,,,,,,,,,,,,,,,,,,,,,,,,,,,,,,,,,,,,,,,,,,,,,,,0,0,0,0,1,,,,,,,,,,,,,,,,,,,,,
,,,,,,,,,,,,5f70f2daea9a9f7076484982,38,Kobieta,2022-06-25_15h33.04.873,task,2021.1.4,Win32,60.0240096,6299f149e92ead563fba08ef,62b70e4589fe82b3a0170f2d,,,,,,,,,,,,,7,,,,,,,,,,Task,6,(12/2) + 1,7,,,,,,,,,,,,,,,,,,,1,,,,,,,,,,,,,,,,,,,,,,,"[""7""]",1,[4.064000000000078],0,0,0,5,1,,,,,,,,,,,,,,,,,,,,,,,,,,
,,,,,,,,,,,X V Q F H G B L J M P D K C T S W R N Z,5f70f2daea9a9f7076484982,38,Kobieta,2022-06-25_15h33.04.873,task,2021.1.4,Win32,60.0240096,6299f149e92ead563fba08ef,62b70e4589fe82b3a0170f2d,,,,,,,,,,,,,,,,,,,,,,,,,,,,,,,,,,,,,,,,,,,,,,,,,,,,,,,,,,,,,,,,,,,,,,,,,,,,1,0,1,0,1,,,,,,,,,,,,,,,,,,,,,
,,,,,,,,,,,,5f70f2daea9a9f7076484982,38,Kobieta,2022-06-25_15h33.04.873,task,2021.1.4,Win32,60.0240096,6299f149e92ead563fba08ef,62b70e4589fe82b3a0170f2d,,,,,,,,,,,,,4,,,,,,,,,,Task,4,(1x5) - 1,4,,,,,,,,,,,,,,,,,,,1,,,,,,,,,,,,,,,,,,,,,,,"[""4""]",1,[1.782000000000039],0,0,0,3,1,,,,,,,,,,,,,,,,,,,,,,,,,,
,,,,,,,,,,,X V Q F H G B L J M P D K C T S W R N Z,5f70f2daea9a9f7076484982,38,Kobieta,2022-06-25_15h33.04.873,task,2021.1.4,Win32,60.0240096,6299f149e92ead563fba08ef,62b70e4589fe82b3a0170f2d,,,,,,,,,,,,,,,,,,,,,,,,,,,,,,,,,,,,,,,,,,,,,,,,,,,,,,,,,,,,,,,,,,,,,,,,,,,,2,0,2,0,1,,,,,,,,,,,,,,,,,,,,,
,,,,,,,,,,,,5f70f2daea9a9f7076484982,38,Kobieta,2022-06-25_15h33.04.873,task,2021.1.4,Win32,60.0240096,6299f149e92ead563fba08ef,62b70e4589fe82b3a0170f2d,,,,,,,,,,,,,8,,,,,,,,,,Task,32,(8/2) + 4,8,,,,,,,,,,,,,,,,,,,1,,,,,,,,,,,,,,,,,,,,,,,"[""8""]",1,[2.3350000000000364],0,0,0,31,1,,,,,,,,,,,,,,,,,,,,,,,,,,
,,,,,,,,,,,X V Q F H G B L J M P D K C T S W R N Z,5f70f2daea9a9f7076484982,38,Kobieta,2022-06-25_15h33.04.873,task,2021.1.4,Win32,60.0240096,6299f149e92ead563fba08ef,62b70e4589fe82b3a0170f2d,,,,,,,,,,,,,,,,,,,,,,,,,,,,,,,,,,,,,,,,,,,,,,,,,,,,,,,,,,,,,,,,,,,,,,,,,,,,3,0,3,0,1,,,,,,,,,,,,,,,,,,,,,
,,,,,,,,,,,,5f70f2daea9a9f7076484982,38,Kobieta,2022-06-25_15h33.04.873,task,2021.1.4,Win32,60.0240096,6299f149e92ead563fba08ef,62b70e4589fe82b3a0170f2d,,,,,,,,,,,,,3,,,,,,,,,,Task,20,(18/9) + 1,3,,,,,,,,,,,,,,,,,,,1,,,,,,,,,,,,,,,,,,,,,,,"[""3""]",1,[2.280999999999949],0,0,0,19,1,,,,,,,,,,,,,,,,,,,,,,,,,,
,,,,,,,,,,,X V Q F H G B L J M P D K C T S W R N Z,5f70f2daea9a9f7076484982,38,Kobieta,2022-06-25_15h33.04.873,task,2021.1.4,Win32,60.0240096,6299f149e92ead563fba08ef,62b70e4589fe82b3a0170f2d,,,,,,,,,,,,,,,,,,,,,,,,,,,,,,,,,,,,,,,,,,,,,,,,,,,,,,,,,,,,,,,,,,,,,,,,,,,,4,0,4,0,1,,,,,,,,,,,,,,,,,,,,,
,,,,,,,,,,,,5f70f2daea9a9f7076484982,38,Kobieta,2022-06-25_15h33.04.873,task,2021.1.4,Win32,60.0240096,6299f149e92ead563fba08ef,62b70e4589fe82b3a0170f2d,,,,,,,,,,,,,7,,,,,,,,,,Task,38,(4x6) - 17,7,,,,,,,,,,,,,,,,,,,1,,,,,,,,,,,,,,,,,,,,,,,"[""7""]",1,[5.128000000000043],0,0,0,37,1,,,,,,,,,,,,,,,,,,,,,,,,,,
,,,,,,,,,,,X V Q F H G B L J M P D K C T S W R N Z,5f70f2daea9a9f7076484982,38,Kobieta,2022-06-25_15h33.04.873,task,2021.1.4,Win32,60.0240096,6299f149e92ead563fba08ef,62b70e4589fe82b3a0170f2d,,,,,,,,,,,,,,,,,,,,,,,,,,,,,,,,,,,,,,,,,,,,,,,,,,,,,,,,,,,,,,,,,,,,,,,,,,,,5,0,5,0,1,,,,,,,,,,,,,,,,,,,,,
,,,,,,,,,,,,5f70f2daea9a9f7076484982,38,Kobieta,2022-06-25_15h33.04.873,task,2021.1.4,Win32,60.0240096,6299f149e92ead563fba08ef,62b70e4589fe82b3a0170f2d,,,,,,,,,,,,,4,,,,,,,,,,Task,28,(2x5) - 6,4,,,,,,,,,,,,,,,,,,,1,,,,,,,,,,,,,,,,,,,,,,,"[""4""]",1,[1.967999999999961],0,0,0,27,1,,,,,,,,,,,,,,,,,,,,,,,,,,
,,,,,,,,,,,X V Q F H G B L J M P D K C T S W R N Z,5f70f2daea9a9f7076484982,38,Kobieta,2022-06-25_15h33.04.873,task,2021.1.4,Win32,60.0240096,6299f149e92ead563fba08ef,62b70e4589fe82b3a0170f2d,,,,,,,,,,,,,,,,,,,,,,,,,,,,,,,,,,,,,,,,,,,,,,,,,,,,,,,,,,,,,,,,,,,,,,,,,,,,6,0,6,0,1,,,,,,,,,,,,,,,,,,,,,
,,,,,,,,,,,,5f70f2daea9a9f7076484982,38,Kobieta,2022-06-25_15h33.04.873,task,2021.1.4,Win32,60.0240096,6299f149e92ead563fba08ef,62b70e4589fe82b3a0170f2d,,,,,,,,,,,,,,,,,,,,,,,,,,,,,,,,,,,,,,,,,,,,,,,,,,,,,,,,,,,,,,,,,,,,,,,,,,,,,,,,,vfdbbhx,"[""v"",""f"",""d"",""b"",""b"",""h"",""x""]",0,"[2.0190000000000055,3.2549999999999955,4.606999999999971,5.317999999999984,5.55600000000004,6.2999999999999545,6.849000000000046,7.531000000000063]",1,VFDBBHX,7,0,7,0,1,,,,,,,,,,
,,,,,,,,,,,,5f70f2daea9a9f7076484982,38,Kobieta,2022-06-25_15h33.04.873,task,2021.1.4,Win32,60.0240096,6299f149e92ead563fba08ef,62b70e4589fe82b3a0170f2d,,,,,,,,,,,,,2,,,,,,,,,,Task,19,(6/2) - 1,2,,,,,,,,,,,,,,,,,,,1,,,,,,,,,,,,,,,,,,,,,,,"[""2""]",1,[2.8630000000000564],0,0,0,18,1,,,,,,,,,,,,,,,,,,,,,,,,,,
,,,,,,,,,,,X V Q F H G B L J M P D K C T S W R N Z,5f70f2daea9a9f7076484982,38,Kobieta,2022-06-25_15h33.04.873,task,2021.1.4,Win32,60.0240096,6299f149e92ead563fba08ef,62b70e4589fe82b3a0170f2d,,,,,,,,,,,,,,,,,,,,,,,,,,,,,,,,,,,,,,,,,,,,,,,,,,,,,,,,,,,,,,,,,,,,,,,,,,,,0,0,0,0,1,,,,,,,,,,,,,,,,,,,,,
,,,,,,,,,,,,5f70f2daea9a9f7076484982,38,Kobieta,2022-06-25_15h33.04.873,task,2021.1.4,Win32,60.0240096,6299f149e92ead563fba08ef,62b70e4589fe82b3a0170f2d,,,,,,,,,,,,,9,,,,,,,,,,Task,40,(7x2) - 5,9,,,,,,,,,,,,,,,,,,,1,,,,,,,,,,,,,,,,,,,,,,,"[""9""]",1,[2.7829999999999018],0,0,0,39,1,,,,,,,,,,,,,,,,,,,,,,,,,,
,,,,,,,,,,,X V Q F H G B L J M P D K C T S W R N Z,5f70f2daea9a9f7076484982,38,Kobieta,2022-06-25_15h33.04.873,task,2021.1.4,Win32,60.0240096,6299f149e92ead563fba08ef,62b70e4589fe82b3a0170f2d,,,,,,,,,,,,,,,,,,,,,,,,,,,,,,,,,,,,,,,,,,,,,,,,,,,,,,,,,,,,,,,,,,,,,,,,,,,,1,0,1,0,1,,,,,,,,,,,,,,,,,,,,,
,,,,,,,,,,,,5f70f2daea9a9f7076484982,38,Kobieta,2022-06-25_15h33.04.873,task,2021.1.4,Win32,60.0240096,6299f149e92ead563fba08ef,62b70e4589fe82b3a0170f2d,,,,,,,,,,,,,0,,,,,,,,,,Task,25,(10/5) - 2,0,,,,,,,,,,,,,,,,,,,1,,,,,,,,,,,,,,,,,,,,,,,"[""0""]",1,[3.27800000000002],0,0,0,24,1,,,,,,,,,,,,,,,,,,,,,,,,,,
,,,,,,,,,,,X V Q F H G B L J M P D K C T S W R N Z,5f70f2daea9a9f7076484982,38,Kobieta,2022-06-25_15h33.04.873,task,2021.1.4,Win32,60.0240096,6299f149e92ead563fba08ef,62b70e4589fe82b3a0170f2d,,,,,,,,,,,,,,,,,,,,,,,,,,,,,,,,,,,,,,,,,,,,,,,,,,,,,,,,,,,,,,,,,,,,,,,,,,,,2,0,2,0,1,,,,,,,,,,,,,,,,,,,,,
,,,,,,,,,,,,5f70f2daea9a9f7076484982,38,Kobieta,2022-06-25_15h33.04.873,task,2021.1.4,Win32,60.0240096,6299f149e92ead563fba08ef,62b70e4589fe82b3a0170f2d,,,,,,,,,,,,,2,,,,,,,,,,Task,19,(6/2) - 1,2,,,,,,,,,,,,,,,,,,,1,,,,,,,,,,,,,,,,,,,,,,,"[""2""]",1,[3.6790000000000873],0,0,0,18,1,,,,,,,,,,,,,,,,,,,,,,,,,,
,,,,,,,,,,,X V Q F H G B L J M P D K C T S W R N Z,5f70f2daea9a9f7076484982,38,Kobieta,2022-06-25_15h33.04.873,task,2021.1.4,Win32,60.0240096,6299f149e92ead563fba08ef,62b70e4589fe82b3a0170f2d,,,,,,,,,,,,,,,,,,,,,,,,,,,,,,,,,,,,,,,,,,,,,,,,,,,,,,,,,,,,,,,,,,,,,,,,,,,,3,0,3,0,1,,,,,,,,,,,,,,,,,,,,,
,,,,,,,,,,,,5f70f2daea9a9f7076484982,38,Kobieta,2022-06-25_15h33.04.873,task,2021.1.4,Win32,60.0240096,6299f149e92ead563fba08ef,62b70e4589fe82b3a0170f2d,,,,,,,,,,,,,4,,,,,,,,,,Task,4,(1x5) - 1,4,,,,,,,,,,,,,,,,,,,1,,,,,,,,,,,,,,,,,,,,,,,"[""4""]",1,[1.8289999999999509],0,0,0,3,1,,,,,,,,,,,,,,,,,,,,,,,,,,
,,,,,,,,,,,X V Q F H G B L J M P D K C T S W R N Z,5f70f2daea9a9f7076484982,38,Kobieta,2022-06-25_15h33.04.873,task,2021.1.4,Win32,60.0240096,6299f149e92ead563fba08ef,62b70e4589fe82b3a0170f2d,,,,,,,,,,,,,,,,,,,,,,,,,,,,,,,,,,,,,,,,,,,,,,,,,,,,,,,,,,,,,,,,,,,,,,,,,,,,4,0,4,0,1,,,,,,,,,,,,,,,,,,,,,
,,,,,,,,,,,,5f70f2daea9a9f7076484982,38,Kobieta,2022-06-25_15h33.04.873,task,2021.1.4,Win32,60.0240096,6299f149e92ead563fba08ef,62b70e4589fe82b3a0170f2d,,,,,,,,,,,,,5,,,,,,,,,,Task,12,(4x4) - 11,5,,,,,,,,,,,,,,,,,,,1,,,,,,,,,,,,,,,,,,,,,,,"[""5""]",1,[2.7810000000000628],0,0,0,11,1,,,,,,,,,,,,,,,,,,,,,,,,,,
,,,,,,,,,,,X V Q F H G B L J M P D K C T S W R N Z,5f70f2daea9a9f7076484982,38,Kobieta,2022-06-25_15h33.04.873,task,2021.1.4,Win32,60.0240096,6299f149e92ead563fba08ef,62b70e4589fe82b3a0170f2d,,,,,,,,,,,,,,,,,,,,,,,,,,,,,,,,,,,,,,,,,,,,,,,,,,,,,,,,,,,,,,,,,,,,,,,,,,,,5,0,5,0,1,,,,,,,,,,,,,,,,,,,,,
,,,,,,,,,,,,5f70f2daea9a9f7076484982,38,Kobieta,2022-06-25_15h33.04.873,task,2021.1.4,Win32,60.0240096,6299f149e92ead563fba08ef,62b70e4589fe82b3a0170f2d,,,,,,,,,,,,,5,,,,,,,,,,Task,29,(3x8) - 19 ,5,,,,,,,,,,,,,,,,,,,1,,,,,,,,,,,,,,,,,,,,,,,"[""5""]",1,[2.6849999999999454],0,0,0,28,1,,,,,,,,,,,,,,,,,,,,,,,,,,
,,,,,,,,,,,X V Q F H G B L J M P D K C T S W R N Z,5f70f2daea9a9f7076484982,38,Kobieta,2022-06-25_15h33.04.873,task,2021.1.4,Win32,60.0240096,6299f149e92ead563fba08ef,62b70e4589fe82b3a0170f2d,,,,,,,,,,,,,,,,,,,,,,,,,,,,,,,,,,,,,,,,,,,,,,,,,,,,,,,,,,,,,,,,,,,,,,,,,,,,6,0,6,0,1,,,,,,,,,,,,,,,,,,,,,
,,,,,,,,,,,,5f70f2daea9a9f7076484982,38,Kobieta,2022-06-25_15h33.04.873,task,2021.1.4,Win32,60.0240096,6299f149e92ead563fba08ef,62b70e4589fe82b3a0170f2d,,,,,,,,,,,,,2,,,,,,,,,,Task,10,(2x5) - 8,2,,,,,,,,,,,,,,,,,,,1,,,,,,,,,,,,,,,,,,,,,,,"[""2""]",1,[2.245999999999981],0,0,0,9,1,,,,,,,,,,,,,,,,,,,,,,,,,,
,,,,,,,,,,,X V Q F H G B L J M P D K C T S W R N Z,5f70f2daea9a9f7076484982,38,Kobieta,2022-06-25_15h33.04.873,task,2021.1.4,Win32,60.0240096,6299f149e92ead563fba08ef,62b70e4589fe82b3a0170f2d,,,,,,,,,,,,,,,,,,,,,,,,,,,,,,,,,,,,,,,,,,,,,,,,,,,,,,,,,,,,,,,,,,,,,,,,,,,,7,0,7,0,1,,,,,,,,,,,,,,,,,,,,,
,,,,,,,,,,,,5f70f2daea9a9f7076484982,38,Kobieta,2022-06-25_15h33.04.873,task,2021.1.4,Win32,60.0240096,6299f149e92ead563fba08ef,62b70e4589fe82b3a0170f2d,,,,,,,,,,,,,,,,,,,,,,,,,,,,,,,,,,,,,,,,,,,,,,,,,,,,,,,,,,,,,,,,,,,,,,,,,,,,,,,,,msjcjkz,"[""m"",""s"",""j"",""c"",""j"",""k"",""z""]",0,"[3.0670000000000073,3.5020000000000664,4.583000000000084,6.048999999999978,7.638000000000034,7.8659999999999854,8.470000000000027,9.233000000000061]",0,MSJCPJKZ,8,0,8,0,1,,,,,,,,,,
,,,,,,,,,,,,5f70f2daea9a9f7076484982,38,Kobieta,2022-06-25_15h33.04.873,task,2021.1.4,Win32,60.0240096,6299f149e92ead563fba08ef,62b70e4589fe82b3a0170f2d,,,,,,,,,,,,,5,,,,,,,,,,Task,1,(12/6) - 1,1,,,,,,,,,,,,,,,,,,,0,,,,,,,,,,,,,,,,,,,,,,,"[""5""]",0,[2.365000000000009],0,0,0,0,1,,,,,,,,,,,,,,,,,,,,,,,,,,
,,,,,,,,,,,,5f70f2daea9a9f7076484982,38,Kobieta,2022-06-25_15h33.04.873,task,2021.1.4,Win32,60.0240096,6299f149e92ead563fba08ef,62b70e4589fe82b3a0170f2d,,,,,,,,,,,,,2,,,,,,,,,,Task,2,(2x2) - 2,2,,,,,,,,,,,,,,,,,,,1,,,,,,,,,,,,,,,,,,,,,,,"[""2""]",1,[2.021000000000072],0,1,1,1,1,,,,,,,,,,,,,,,,,,,,,,,,,,
,,,,,,,,,,,X V Q F H G B L J M P D K C T S W R N Z,5f70f2daea9a9f7076484982,38,Kobieta,2022-06-25_15h33.04.873,task,2021.1.4,Win32,60.0240096,6299f149e92ead563fba08ef,62b70e4589fe82b3a0170f2d,,,,,,,,,,,,,,,,,,,,,,,,,,,,,,,,,,,,,,,,,,,,,,,,,,,,,,,,,,,,,,,,,,,,,,,,,,,,0,0,0,0,1,,,,,,,,,,,,,,,,,,,,,
,,,,,,,,,,,,5f70f2daea9a9f7076484982,38,Kobieta,2022-06-25_15h33.04.873,task,2021.1.4,Win32,60.0240096,6299f149e92ead563fba08ef,62b70e4589fe82b3a0170f2d,,,,,,,,,,,,,6,,,,,,,,,,Task,13,(3x4) - 6,6,,,,,,,,,,,,,,,,,,,1,,,,,,,,,,,,,,,,,,,,,,,"[""6""]",1,[1.613999999999919],0,0,0,12,1,,,,,,,,,,,,,,,,,,,,,,,,,,
,,,,,,,,,,,X V Q F H G B L J M P D K C T S W R N Z,5f70f2daea9a9f7076484982,38,Kobieta,2022-06-25_15h33.04.873,task,2021.1.4,Win32,60.0240096,6299f149e92ead563fba08ef,62b70e4589fe82b3a0170f2d,,,,,,,,,,,,,,,,,,,,,,,,,,,,,,,,,,,,,,,,,,,,,,,,,,,,,,,,,,,,,,,,,,,,,,,,,,,,1,0,1,0,1,,,,,,,,,,,,,,,,,,,,,
,,,,,,,,,,,,5f70f2daea9a9f7076484982,38,Kobieta,2022-06-25_15h33.04.873,task,2021.1.4,Win32,60.0240096,6299f149e92ead563fba08ef,62b70e4589fe82b3a0170f2d,,,,,,,,,,,,,4,,,,,,,,,,Task,11,(18/3) - 2,4,,,,,,,,,,,,,,,,,,,1,,,,,,,,,,,,,,,,,,,,,,,"[""4""]",1,[2.3350000000000364],0,0,0,10,1,,,,,,,,,,,,,,,,,,,,,,,,,,
,,,,,,,,,,,X V Q F H G B L J M P D K C T S W R N Z,5f70f2daea9a9f7076484982,38,Kobieta,2022-06-25_15h33.04.873,task,2021.1.4,Win32,60.0240096,6299f149e92ead563fba08ef,62b70e4589fe82b3a0170f2d,,,,,,,,,,,,,,,,,,,,,,,,,,,,,,,,,,,,,,,,,,,,,,,,,,,,,,,,,,,,,,,,,,,,,,,,,,,,2,0,2,0,1,,,,,,,,,,,,,,,,,,,,,
,,,,,,,,,,,,5f70f2daea9a9f7076484982,38,Kobieta,2022-06-25_15h33.04.873,task,2021.1.4,Win32,60.0240096,6299f149e92ead563fba08ef,62b70e4589fe82b3a0170f2d,,,,,,,,,,,,,6,,,,,,,,,,Task,37,(3/3) + 5,6,,,,,,,,,,,,,,,,,,,1,,,,,,,,,,,,,,,,,,,,,,,"[""6""]",1,[2.3170000000000073],0,0,0,36,1,,,,,,,,,,,,,,,,,,,,,,,,,,
,,,,,,,,,,,X V Q F H G B L J M P D K C T S W R N Z,5f70f2daea9a9f7076484982,38,Kobieta,2022-06-25_15h33.04.873,task,2021.1.4,Win32,60.0240096,6299f149e92ead563fba08ef,62b70e4589fe82b3a0170f2d,,,,,,,,,,,,,,,,,,,,,,,,,,,,,,,,,,,,,,,,,,,,,,,,,,,,,,,,,,,,,,,,,,,,,,,,,,,,3,0,3,0,1,,,,,,,,,,,,,,,,,,,,,
,,,,,,,,,,,,5f70f2daea9a9f7076484982,38,Kobieta,2022-06-25_15h33.04.873,task,2021.1.4,Win32,60.0240096,6299f149e92ead563fba08ef,62b70e4589fe82b3a0170f2d,,,,,,,,,,,,,3,,,,,,,,,,Task,3,(2x3) - 3,3,,,,,,,,,,,,,,,,,,,1,,,,,,,,,,,,,,,,,,,,,,,"[""3""]",1,[1.5480000000000018],0,0,0,2,1,,,,,,,,,,,,,,,,,,,,,,,,,,
,,,,,,,,,,,X V Q F H G B L J M P D K C T S W R N Z,5f70f2daea9a9f7076484982,38,Kobieta,2022-06-25_15h33.04.873,task,2021.1.4,Win32,60.0240096,6299f149e92ead563fba08ef,62b70e4589fe82b3a0170f2d,,,,,,,,,,,,,,,,,,,,,,,,,,,,,,,,,,,,,,,,,,,,,,,,,,,,,,,,,,,,,,,,,,,,,,,,,,,,4,0,4,0,1,,,,,,,,,,,,,,,,,,,,,
,,,,,,,,,,,,5f70f2daea9a9f7076484982,38,Kobieta,2022-06-25_15h33.04.873,task,2021.1.4,Win32,60.0240096,6299f149e92ead563fba08ef,62b70e4589fe82b3a0170f2d,,,,,,,,,,,,,4,,,,,,,,,,Task,28,(2x5) - 6,4,,,,,,,,,,,,,,,,,,,1,,,,,,,,,,,,,,,,,,,,,,,"[""4""]",1,[1.5300000000000864],0,0,0,27,1,,,,,,,,,,,,,,,,,,,,,,,,,,
,,,,,,,,,,,X V Q F H G B L J M P D K C T S W R N Z,5f70f2daea9a9f7076484982,38,Kobieta,2022-06-25_15h33.04.873,task,2021.1.4,Win32,60.0240096,6299f149e92ead563fba08ef,62b70e4589fe82b3a0170f2d,,,,,,,,,,,,,,,,,,,,,,,,,,,,,,,,,,,,,,,,,,,,,,,,,,,,,,,,,,,,,,,,,,,,,,,,,,,,5,0,5,0,1,,,,,,,,,,,,,,,,,,,,,
,,,,,,,,,,,,5f70f2daea9a9f7076484982,38,Kobieta,2022-06-25_15h33.04.873,task,2021.1.4,Win32,60.0240096,6299f149e92ead563fba08ef,62b70e4589fe82b3a0170f2d,,,,,,,,,,,,,6,,,,,,,,,,Task,37,(3/3) + 5,6,,,,,,,,,,,,,,,,,,,1,,,,,,,,,,,,,,,,,,,,,,,"[""6""]",1,[2.0179999999999154],0,0,0,36,1,,,,,,,,,,,,,,,,,,,,,,,,,,
,,,,,,,,,,,X V Q F H G B L J M P D K C T S W R N Z,5f70f2daea9a9f7076484982,38,Kobieta,2022-06-25_15h33.04.873,task,2021.1.4,Win32,60.0240096,6299f149e92ead563fba08ef,62b70e4589fe82b3a0170f2d,,,,,,,,,,,,,,,,,,,,,,,,,,,,,,,,,,,,,,,,,,,,,,,,,,,,,,,,,,,,,,,,,,,,,,,,,,,,6,0,6,0,1,,,,,,,,,,,,,,,,,,,,,
,,,,,,,,,,,,5f70f2daea9a9f7076484982,38,Kobieta,2022-06-25_15h33.04.873,task,2021.1.4,Win32,60.0240096,6299f149e92ead563fba08ef,62b70e4589fe82b3a0170f2d,,,,,,,,,,,,,4,,,,,,,,,,Task,28,(2x5) - 6,4,,,,,,,,,,,,,,,,,,,1,,,,,,,,,,,,,,,,,,,,,,,"[""4""]",1,[1.4180000000000064],0,0,0,27,1,,,,,,,,,,,,,,,,,,,,,,,,,,
,,,,,,,,,,,X V Q F H G B L J M P D K C T S W R N Z,5f70f2daea9a9f7076484982,38,Kobieta,2022-06-25_15h33.04.873,task,2021.1.4,Win32,60.0240096,6299f149e92ead563fba08ef,62b70e4589fe82b3a0170f2d,,,,,,,,,,,,,,,,,,,,,,,,,,,,,,,,,,,,,,,,,,,,,,,,,,,,,,,,,,,,,,,,,,,,,,,,,,,,7,0,7,0,1,,,,,,,,,,,,,,,,,,,,,
,,,,,,,,,,,,5f70f2daea9a9f7076484982,38,Kobieta,2022-06-25_15h33.04.873,task,2021.1.4,Win32,60.0240096,6299f149e92ead563fba08ef,62b70e4589fe82b3a0170f2d,,,,,,,,,,,,,,,,,,,,,,,,,,,,,,,,,,,,,,,,,,,,,,,,,,,,,,,,,,,,,,,,,,,,,,,,,,,,,,,,,bxdqqwnd,"[""b"",""x"",""d"",""q"",""q"",""w"",""n"",""d""]",0,"[2.5550000000000637,2.9850000000000136,4.701000000000022,6.016000000000076,6.465000000000032,8.333000000000084,9.913000000000011,10.314000000000078,11.164000000000101]",1,BXDQQWND,9,0,9,0,1,,,,,,,,,,
,,,,,,,,,,,,5f70f2daea9a9f7076484982,38,Kobieta,2022-06-25_15h33.04.873,task,2021.1.4,Win32,60.0240096,6299f149e92ead563fba08ef,62b70e4589fe82b3a0170f2d,,,,,,,,,,,,,1,,,,,,,,,,Task,34,(9/3) - 2,1,,,,,,,,,,,,,,,,,,,1,,,,,,,,,,,,,,,,,,,,,,,"[""1""]",1,[2.747000000000071],0,0,0,33,1,,,,,,,,,,,,,,,,,,,,,,,,,,
,,,,,,,,,,,X V Q F H G B L J M P D K C T S W R N Z,5f70f2daea9a9f7076484982,38,Kobieta,2022-06-25_15h33.04.873,task,2021.1.4,Win32,60.0240096,6299f149e92ead563fba08ef,62b70e4589fe82b3a0170f2d,,,,,,,,,,,,,,,,,,,,,,,,,,,,,,,,,,,,,,,,,,,,,,,,,,,,,,,,,,,,,,,,,,,,,,,,,,,,0,0,0,0,1,,,,,,,,,,,,,,,,,,,,,
,,,,,,,,,,,,5f70f2daea9a9f7076484982,38,Kobieta,2022-06-25_15h33.04.873,task,2021.1.4,Win32,60.0240096,6299f149e92ead563fba08ef,62b70e4589fe82b3a0170f2d,,,,,,,,,,,,,7,,,,,,,,,,Task,6,(12/2) + 1,7,,,,,,,,,,,,,,,,,,,1,,,,,,,,,,,,,,,,,,,,,,,"[""7""]",1,[2.661999999999921],0,0,0,5,1,,,,,,,,,,,,,,,,,,,,,,,,,,
,,,,,,,,,,,X V Q F H G B L J M P D K C T S W R N Z,5f70f2daea9a9f7076484982,38,Kobieta,2022-06-25_15h33.04.873,task,2021.1.4,Win32,60.0240096,6299f149e92ead563fba08ef,62b70e4589fe82b3a0170f2d,,,,,,,,,,,,,,,,,,,,,,,,,,,,,,,,,,,,,,,,,,,,,,,,,,,,,,,,,,,,,,,,,,,,,,,,,,,,1,0,1,0,1,,,,,,,,,,,,,,,,,,,,,
,,,,,,,,,,,,5f70f2daea9a9f7076484982,38,Kobieta,2022-06-25_15h33.04.873,task,2021.1.4,Win32,60.0240096,6299f149e92ead563fba08ef,62b70e4589fe82b3a0170f2d,,,,,,,,,,,,,5,,,,,,,,,,Task,29,(3x8) - 19 ,5,,,,,,,,,,,,,,,,,,,1,,,,,,,,,,,,,,,,,,,,,,,"[""5""]",1,[2.5960000000000036],0,0,0,28,1,,,,,,,,,,,,,,,,,,,,,,,,,,
,,,,,,,,,,,X V Q F H G B L J M P D K C T S W R N Z,5f70f2daea9a9f7076484982,38,Kobieta,2022-06-25_15h33.04.873,task,2021.1.4,Win32,60.0240096,6299f149e92ead563fba08ef,62b70e4589fe82b3a0170f2d,,,,,,,,,,,,,,,,,,,,,,,,,,,,,,,,,,,,,,,,,,,,,,,,,,,,,,,,,,,,,,,,,,,,,,,,,,,,2,0,2,0,1,,,,,,,,,,,,,,,,,,,,,
,,,,,,,,,,,,5f70f2daea9a9f7076484982,38,Kobieta,2022-06-25_15h33.04.873,task,2021.1.4,Win32,60.0240096,6299f149e92ead563fba08ef,62b70e4589fe82b3a0170f2d,,,,,,,,,,,,,1,,,,,,,,,,Task,11,(18/3) - 2,4,,,,,,,,,,,,,,,,,,,0,,,,,,,,,,,,,,,,,,,,,,,"[""1""]",0,[2.0159999999999627],0,0,0,10,1,,,,,,,,,,,,,,,,,,,,,,,,,,
,,,,,,,,,,,,5f70f2daea9a9f7076484982,38,Kobieta,2022-06-25_15h33.04.873,task,2021.1.4,Win32,60.0240096,6299f149e92ead563fba08ef,62b70e4589fe82b3a0170f2d,,,,,,,,,,,,,8,,,,,,,,,,Task,39,(5x3) - 7,8,,,,,,,,,,,,,,,,,,,1,,,,,,,,,,,,,,,,,,,,,,,"[""8""]",1,[4.44500000000005],0,1,1,38,1,,,,,,,,,,,,,,,,,,,,,,,,,,
,,,,,,,,,,,X V Q F H G B L J M P D K C T S W R N Z,5f70f2daea9a9f7076484982,38,Kobieta,2022-06-25_15h33.04.873,task,2021.1.4,Win32,60.0240096,6299f149e92ead563fba08ef,62b70e4589fe82b3a0170f2d,,,,,,,,,,,,,,,,,,,,,,,,,,,,,,,,,,,,,,,,,,,,,,,,,,,,,,,,,,,,,,,,,,,,,,,,,,,,3,0,3,0,1,,,,,,,,,,,,,,,,,,,,,
,,,,,,,,,,,,5f70f2daea9a9f7076484982,38,Kobieta,2022-06-25_15h33.04.873,task,2021.1.4,Win32,60.0240096,6299f149e92ead563fba08ef,62b70e4589fe82b3a0170f2d,,,,,,,,,,,,,7,,,,,,,,,,Task,14,(2x2) + 3,7,,,,,,,,,,,,,,,,,,,1,,,,,,,,,,,,,,,,,,,,,,,"[""7""]",1,[1.6129999999999427],0,0,0,13,1,,,,,,,,,,,,,,,,,,,,,,,,,,
,,,,,,,,,,,X V Q F H G B L J M P D K C T S W R N Z,5f70f2daea9a9f7076484982,38,Kobieta,2022-06-25_15h33.04.873,task,2021.1.4,Win32,60.0240096,6299f149e92ead563fba08ef,62b70e4589fe82b3a0170f2d,,,,,,,,,,,,,,,,,,,,,,,,,,,,,,,,,,,,,,,,,,,,,,,,,,,,,,,,,,,,,,,,,,,,,,,,,,,,4,0,4,0,1,,,,,,,,,,,,,,,,,,,,,
,,,,,,,,,,,,5f70f2daea9a9f7076484982,38,Kobieta,2022-06-25_15h33.04.873,task,2021.1.4,Win32,60.0240096,6299f149e92ead563fba08ef,62b70e4589fe82b3a0170f2d,,,,,,,,,,,,,5,,,,,,,,,,Task,22,(3x1) + 2,5,,,,,,,,,,,,,,,,,,,1,,,,,,,,,,,,,,,,,,,,,,,"[""5""]",1,[2.216000000000008],0,0,0,21,1,,,,,,,,,,,,,,,,,,,,,,,,,,
,,,,,,,,,,,X V Q F H G B L J M P D K C T S W R N Z,5f70f2daea9a9f7076484982,38,Kobieta,2022-06-25_15h33.04.873,task,2021.1.4,Win32,60.0240096,6299f149e92ead563fba08ef,62b70e4589fe82b3a0170f2d,,,,,,,,,,,,,,,,,,,,,,,,,,,,,,,,,,,,,,,,,,,,,,,,,,,,,,,,,,,,,,,,,,,,,,,,,,,,5,0,5,0,1,,,,,,,,,,,,,,,,,,,,,
,,,,,,,,,,,,5f70f2daea9a9f7076484982,38,Kobieta,2022-06-25_15h33.04.873,task,2021.1.4,Win32,60.0240096,6299f149e92ead563fba08ef,62b70e4589fe82b3a0170f2d,,,,,,,,,,,,,6,,,,,,,,,,Task,37,(3/3) + 5,6,,,,,,,,,,,,,,,,,,,1,,,,,,,,,,,,,,,,,,,,,,,"[""6""]",1,[1.9800000000000182],0,0,0,36,1,,,,,,,,,,,,,,,,,,,,,,,,,,
,,,,,,,,,,,X V Q F H G B L J M P D K C T S W R N Z,5f70f2daea9a9f7076484982,38,Kobieta,2022-06-25_15h33.04.873,task,2021.1.4,Win32,60.0240096,6299f149e92ead563fba08ef,62b70e4589fe82b3a0170f2d,,,,,,,,,,,,,,,,,,,,,,,,,,,,,,,,,,,,,,,,,,,,,,,,,,,,,,,,,,,,,,,,,,,,,,,,,,,,6,0,6,0,1,,,,,,,,,,,,,,,,,,,,,
,,,,,,,,,,,,5f70f2daea9a9f7076484982,38,Kobieta,2022-06-25_15h33.04.873,task,2021.1.4,Win32,60.0240096,6299f149e92ead563fba08ef,62b70e4589fe82b3a0170f2d,,,,,,,,,,,,,2,,,,,,,,,,Task,2,(2x2) - 2,2,,,,,,,,,,,,,,,,,,,1,,,,,,,,,,,,,,,,,,,,,,,"[""2""]",1,[1.8640000000000327],0,0,0,1,1,,,,,,,,,,,,,,,,,,,,,,,,,,
