key_resp_15.keys,key_resp_15.rt,key_resp_16.keys,key_resp_16.rt,key_resp_4.keys,key_resp_4.rt,next_letter.thisRepN,next_letter.thisTrialN,next_letter.thisN,next_letter.thisIndex,next_letter.ran,letter,participant,Wiek*,Płeć,date,expName,psychopyVersion,OS,frameRate,study_id,session,simple_recall,key_resp_5.keys,key_resp_5.rt,simple_recall_corr,simple_recall_corrkeys,next_level.thisRepN,next_level.thisTrialN,next_level.thisN,next_level.thisIndex,next_level.ran,key_resp_2.keys,key_resp_2.rt,digit_answer,key_resp.keys,key_resp.corr,key_resp.rt,RT_list,next_equation.thisRepN,next_equation.thisTrialN,next_equation.thisN,next_equation.thisIndex,next_equation.ran,Task,Trial,Problem,Operation_answer,processing_score,sumRT,meanRT,sumdiff,sd,RT,key_resp_3.keys,key_resp_3.rt,repeat_practice.thisRepN,repeat_practice.thisTrialN,repeat_practice.thisN,repeat_practice.thisIndex,repeat_practice.ran,key_resp_6.keys,key_resp_6.rt,key_resp_11.keys,key_resp_11.corr,key_resp_11.rt,operation_correct,repeat_if_wrong_prac.thisRepN,repeat_if_wrong_prac.thisTrialN,repeat_if_wrong_prac.thisN,repeat_if_wrong_prac.thisIndex,repeat_if_wrong_prac.ran,span_size_prac.thisRepN,span_size_prac.thisTrialN,span_size_prac.thisN,span_size_prac.thisIndex,span_size_prac.ran,complex_recall_practice,key_resp_9.keys,key_resp_9.corr,key_resp_9.rt,complex_prac_corr,span_recall_prac.thisRepN,span_recall_prac.thisTrialN,span_recall_prac.thisN,span_recall_prac.thisIndex,span_recall_prac.ran,key_resp_10.keys,key_resp_10.rt,key_resp_7.keys,key_resp_7.corr,key_resp_7.rt,repeat_if_wrong.thisRepN,repeat_if_wrong.thisTrialN,repeat_if_wrong.thisN,repeat_if_wrong.thisIndex,repeat_if_wrong.ran,span_size.thisRepN,span_size.thisTrialN,span_size.thisN,span_size.thisIndex,span_size.ran,complex_recall,key_resp_8.keys,key_resp_8.corr,key_resp_8.rt,complex_recall_corr,complex_recall_corrkeys,span_recall.thisRepN,span_recall.thisTrialN,span_recall.thisN,span_recall.thisIndex,span_recall.ran,key_resp_13.keys,key_resp_13.corr,key_resp_13.rt,random_loop.thisRepN,random_loop.thisTrialN,random_loop.thisN,random_loop.thisIndex,random_loop.ran,key_resp_12.keys,key_resp_12.rt
space,12.6401,space,16.6674,space,5.6411,0,0,0,0,1,X V Q F H G B L J M P D K C T S W R N Z,5f72473314afc916af99e341,25,Mężczyzna,2022-06-11_09h37.47.163,task,2021.1.4,Win32,144.1753172,6299f149e92ead563fba08ef,62a44415dc99d82adcabbfb9,,,,,,,,,,,,,,,,,,,,,,,,,,,,,,,,,,,,,,,,,,,,,,,,,,,,,,,,,,,,,,,,,,,,,,,,,,,,,,,,,,,,,,,,,,,,,,,,,,,,,
,,,,,,1,0,1,0,1,X V Q F H G B L J M P D K C T S W R N Z,5f72473314afc916af99e341,25,Mężczyzna,2022-06-11_09h37.47.163,task,2021.1.4,Win32,144.1753172,6299f149e92ead563fba08ef,62a44415dc99d82adcabbfb9,,,,,,,,,,,,,,,,,,,,,,,,,,,,,,,,,,,,,,,,,,,,,,,,,,,,,,,,,,,,,,,,,,,,,,,,,,,,,,,,,,,,,,,,,,,,,,,,,,,,,
,,,,,,,,,,,,5f72473314afc916af99e341,25,Mężczyzna,2022-06-11_09h37.47.163,task,2021.1.4,Win32,144.1753172,6299f149e92ead563fba08ef,62a44415dc99d82adcabbfb9,zb,"[""z"",""b""]","[1.63250000000005,2.090000000000032,3.10450000000003]",1,ZB,0,0,0,0,1,,,,,,,,,,,,,,,,,,,,,,,,,,,,,,,,,,,,,,,,,,,,,,,,,,,,,,,,,,,,,,,,,,,,,,,,,,,,,,,,,,,,,,,,,,,
,,,,,,0,0,0,0,1,X V Q F H G B L J M P D K C T S W R N Z,5f72473314afc916af99e341,25,Mężczyzna,2022-06-11_09h37.47.163,task,2021.1.4,Win32,144.1753172,6299f149e92ead563fba08ef,62a44415dc99d82adcabbfb9,,,,,,,,,,,,,,,,,,,,,,,,,,,,,,,,,,,,,,,,,,,,,,,,,,,,,,,,,,,,,,,,,,,,,,,,,,,,,,,,,,,,,,,,,,,,,,,,,,,,,
,,,,,,1,0,1,0,1,X V Q F H G B L J M P D K C T S W R N Z,5f72473314afc916af99e341,25,Mężczyzna,2022-06-11_09h37.47.163,task,2021.1.4,Win32,144.1753172,6299f149e92ead563fba08ef,62a44415dc99d82adcabbfb9,,,,,,,,,,,,,,,,,,,,,,,,,,,,,,,,,,,,,,,,,,,,,,,,,,,,,,,,,,,,,,,,,,,,,,,,,,,,,,,,,,,,,,,,,,,,,,,,,,,,,
,,,,,,,,,,,,5f72473314afc916af99e341,25,Mężczyzna,2022-06-11_09h37.47.163,task,2021.1.4,Win32,144.1753172,6299f149e92ead563fba08ef,62a44415dc99d82adcabbfb9,bx,"[""b"",""x""]","[0.7484999999999218,1.1402999999522763,1.5723999999761418]",1,BX,1,0,1,0,1,,,,,,,,,,,,,,,,,,,,,,,,,,,,,,,,,,,,,,,,,,,,,,,,,,,,,,,,,,,,,,,,,,,,,,,,,,,,,,,,,,,,,,,,,,,
,,,,,,0,0,0,0,1,X V Q F H G B L J M P D K C T S W R N Z,5f72473314afc916af99e341,25,Mężczyzna,2022-06-11_09h37.47.163,task,2021.1.4,Win32,144.1753172,6299f149e92ead563fba08ef,62a44415dc99d82adcabbfb9,,,,,,,,,,,,,,,,,,,,,,,,,,,,,,,,,,,,,,,,,,,,,,,,,,,,,,,,,,,,,,,,,,,,,,,,,,,,,,,,,,,,,,,,,,,,,,,,,,,,,
,,,,,,1,0,1,0,1,X V Q F H G B L J M P D K C T S W R N Z,5f72473314afc916af99e341,25,Mężczyzna,2022-06-11_09h37.47.163,task,2021.1.4,Win32,144.1753172,6299f149e92ead563fba08ef,62a44415dc99d82adcabbfb9,,,,,,,,,,,,,,,,,,,,,,,,,,,,,,,,,,,,,,,,,,,,,,,,,,,,,,,,,,,,,,,,,,,,,,,,,,,,,,,,,,,,,,,,,,,,,,,,,,,,,
,,,,,,2,0,2,0,1,X V Q F H G B L J M P D K C T S W R N Z,5f72473314afc916af99e341,25,Mężczyzna,2022-06-11_09h37.47.163,task,2021.1.4,Win32,144.1753172,6299f149e92ead563fba08ef,62a44415dc99d82adcabbfb9,,,,,,,,,,,,,,,,,,,,,,,,,,,,,,,,,,,,,,,,,,,,,,,,,,,,,,,,,,,,,,,,,,,,,,,,,,,,,,,,,,,,,,,,,,,,,,,,,,,,,
,,,,,,,,,,,,5f72473314afc916af99e341,25,Mężczyzna,2022-06-11_09h37.47.163,task,2021.1.4,Win32,144.1753172,6299f149e92ead563fba08ef,62a44415dc99d82adcabbfb9,cqd,"[""c"",""q"",""d""]","[0.5902999999523217,0.9511999999284626,1.3338999999760972,1.8698999999761554]",1,CQD,2,0,2,0,1,,,,,,,,,,,,,,,,,,,,,,,,,,,,,,,,,,,,,,,,,,,,,,,,,,,,,,,,,,,,,,,,,,,,,,,,,,,,,,,,,,,,,,,,,,,
,,,,,,0,0,0,0,1,X V Q F H G B L J M P D K C T S W R N Z,5f72473314afc916af99e341,25,Mężczyzna,2022-06-11_09h37.47.163,task,2021.1.4,Win32,144.1753172,6299f149e92ead563fba08ef,62a44415dc99d82adcabbfb9,,,,,,,,,,,,,,,,,,,,,,,,,,,,,,,,,,,,,,,,,,,,,,,,,,,,,,,,,,,,,,,,,,,,,,,,,,,,,,,,,,,,,,,,,,,,,,,,,,,,,
,,,,,,1,0,1,0,1,X V Q F H G B L J M P D K C T S W R N Z,5f72473314afc916af99e341,25,Mężczyzna,2022-06-11_09h37.47.163,task,2021.1.4,Win32,144.1753172,6299f149e92ead563fba08ef,62a44415dc99d82adcabbfb9,,,,,,,,,,,,,,,,,,,,,,,,,,,,,,,,,,,,,,,,,,,,,,,,,,,,,,,,,,,,,,,,,,,,,,,,,,,,,,,,,,,,,,,,,,,,,,,,,,,,,
,,,,,,2,0,2,0,1,X V Q F H G B L J M P D K C T S W R N Z,5f72473314afc916af99e341,25,Mężczyzna,2022-06-11_09h37.47.163,task,2021.1.4,Win32,144.1753172,6299f149e92ead563fba08ef,62a44415dc99d82adcabbfb9,,,,,,,,,,,,,,,,,,,,,,,,,,,,,,,,,,,,,,,,,,,,,,,,,,,,,,,,,,,,,,,,,,,,,,,,,,,,,,,,,,,,,,,,,,,,,,,,,,,,,
,,,,,,,,,,,,5f72473314afc916af99e341,25,Mężczyzna,2022-06-11_09h37.47.163,task,2021.1.4,Win32,144.1753172,6299f149e92ead563fba08ef,62a44415dc99d82adcabbfb9,ffb,"[""f"",""f"",""b""]","[0.5480000000000018,0.7635000000000218,3.115699999928438,3.667699999928459]",1,FFB,3,0,3,0,1,,,,,,,,,,,,,,,,,,,,,,,,,,,,,,,,,,,,,,,,,,,,,,,,,,,,,,,,,,,,,,,,,,,,,,,,,,,,,,,,,,,,,,,,,,,
,,,,,,0,0,0,0,1,X V Q F H G B L J M P D K C T S W R N Z,5f72473314afc916af99e341,25,Mężczyzna,2022-06-11_09h37.47.163,task,2021.1.4,Win32,144.1753172,6299f149e92ead563fba08ef,62a44415dc99d82adcabbfb9,,,,,,,,,,,,,,,,,,,,,,,,,,,,,,,,,,,,,,,,,,,,,,,,,,,,,,,,,,,,,,,,,,,,,,,,,,,,,,,,,,,,,,,,,,,,,,,,,,,,,
,,,,,,1,0,1,0,1,X V Q F H G B L J M P D K C T S W R N Z,5f72473314afc916af99e341,25,Mężczyzna,2022-06-11_09h37.47.163,task,2021.1.4,Win32,144.1753172,6299f149e92ead563fba08ef,62a44415dc99d82adcabbfb9,,,,,,,,,,,,,,,,,,,,,,,,,,,,,,,,,,,,,,,,,,,,,,,,,,,,,,,,,,,,,,,,,,,,,,,,,,,,,,,,,,,,,,,,,,,,,,,,,,,,,
,,,,,,2,0,2,0,1,X V Q F H G B L J M P D K C T S W R N Z,5f72473314afc916af99e341,25,Mężczyzna,2022-06-11_09h37.47.163,task,2021.1.4,Win32,144.1753172,6299f149e92ead563fba08ef,62a44415dc99d82adcabbfb9,,,,,,,,,,,,,,,,,,,,,,,,,,,,,,,,,,,,,,,,,,,,,,,,,,,,,,,,,,,,,,,,,,,,,,,,,,,,,,,,,,,,,,,,,,,,,,,,,,,,,
,,,,,,3,0,3,0,1,X V Q F H G B L J M P D K C T S W R N Z,5f72473314afc916af99e341,25,Mężczyzna,2022-06-11_09h37.47.163,task,2021.1.4,Win32,144.1753172,6299f149e92ead563fba08ef,62a44415dc99d82adcabbfb9,,,,,,,,,,,,,,,,,,,,,,,,,,,,,,,,,,,,,,,,,,,,,,,,,,,,,,,,,,,,,,,,,,,,,,,,,,,,,,,,,,,,,,,,,,,,,,,,,,,,,
,,,,,,,,,,,,5f72473314afc916af99e341,25,Mężczyzna,2022-06-11_09h37.47.163,task,2021.1.4,Win32,144.1753172,6299f149e92ead563fba08ef,62a44415dc99d82adcabbfb9,hmcl,"[""h"",""m"",""c"",""l""]","[0.5622999999523017,0.9582999999522599,1.2338999999761882,1.521899999976199,2.0332999999523054]",1,HMCL,4,0,4,0,1,,,,,,,,,,,,,,,,,,,,,,,,,,,,,,,,,,,,,,,,,,,,,,,,,,,,,,,,,,,,,,,,,,,,,,,,,,,,,,,,,,,,,,,,,,,
,,,,,,0,0,0,0,1,X V Q F H G B L J M P D K C T S W R N Z,5f72473314afc916af99e341,25,Mężczyzna,2022-06-11_09h37.47.163,task,2021.1.4,Win32,144.1753172,6299f149e92ead563fba08ef,62a44415dc99d82adcabbfb9,,,,,,,,,,,,,,,,,,,,,,,,,,,,,,,,,,,,,,,,,,,,,,,,,,,,,,,,,,,,,,,,,,,,,,,,,,,,,,,,,,,,,,,,,,,,,,,,,,,,,
,,,,,,1,0,1,0,1,X V Q F H G B L J M P D K C T S W R N Z,5f72473314afc916af99e341,25,Mężczyzna,2022-06-11_09h37.47.163,task,2021.1.4,Win32,144.1753172,6299f149e92ead563fba08ef,62a44415dc99d82adcabbfb9,,,,,,,,,,,,,,,,,,,,,,,,,,,,,,,,,,,,,,,,,,,,,,,,,,,,,,,,,,,,,,,,,,,,,,,,,,,,,,,,,,,,,,,,,,,,,,,,,,,,,
,,,,,,2,0,2,0,1,X V Q F H G B L J M P D K C T S W R N Z,5f72473314afc916af99e341,25,Mężczyzna,2022-06-11_09h37.47.163,task,2021.1.4,Win32,144.1753172,6299f149e92ead563fba08ef,62a44415dc99d82adcabbfb9,,,,,,,,,,,,,,,,,,,,,,,,,,,,,,,,,,,,,,,,,,,,,,,,,,,,,,,,,,,,,,,,,,,,,,,,,,,,,,,,,,,,,,,,,,,,,,,,,,,,,
,,,,,,3,0,3,0,1,X V Q F H G B L J M P D K C T S W R N Z,5f72473314afc916af99e341,25,Mężczyzna,2022-06-11_09h37.47.163,task,2021.1.4,Win32,144.1753172,6299f149e92ead563fba08ef,62a44415dc99d82adcabbfb9,,,,,,,,,,,,,,,,,,,,,,,,,,,,,,,,,,,,,,,,,,,,,,,,,,,,,,,,,,,,,,,,,,,,,,,,,,,,,,,,,,,,,,,,,,,,,,,,,,,,,
,,,,,,,,,,,,5f72473314afc916af99e341,25,Mężczyzna,2022-06-11_09h37.47.163,task,2021.1.4,Win32,144.1753172,6299f149e92ead563fba08ef,62a44415dc99d82adcabbfb9,mxjx,"[""m"",""x"",""j"",""x""]","[0.6721999999284662,1.1282999999523327,1.4586000000238073,1.8081999999284335,2.2501999999284408]",1,MXJX,5,0,5,0,1,,,,,,,,,,,,,,,,,,,,,,,,,,,,,,,,,,,,,,,,,,,,,,,,,,,,,,,,,,,,,,,,,,,,,,,,,,,,,,,,,,,,,,,,,,,
,,,,,,0,0,0,0,1,X V Q F H G B L J M P D K C T S W R N Z,5f72473314afc916af99e341,25,Mężczyzna,2022-06-11_09h37.47.163,task,2021.1.4,Win32,144.1753172,6299f149e92ead563fba08ef,62a44415dc99d82adcabbfb9,,,,,,,,,,,,,,,,,,,,,,,,,,,,,,,,,,,,,,,,,,,,,,,,,,,,,,,,,,,,,,,,,,,,,,,,,,,,,,,,,,,,,,,,,,,,,,,,,,,,,
,,,,,,1,0,1,0,1,X V Q F H G B L J M P D K C T S W R N Z,5f72473314afc916af99e341,25,Mężczyzna,2022-06-11_09h37.47.163,task,2021.1.4,Win32,144.1753172,6299f149e92ead563fba08ef,62a44415dc99d82adcabbfb9,,,,,,,,,,,,,,,,,,,,,,,,,,,,,,,,,,,,,,,,,,,,,,,,,,,,,,,,,,,,,,,,,,,,,,,,,,,,,,,,,,,,,,,,,,,,,,,,,,,,,
,,,,,,2,0,2,0,1,X V Q F H G B L J M P D K C T S W R N Z,5f72473314afc916af99e341,25,Mężczyzna,2022-06-11_09h37.47.163,task,2021.1.4,Win32,144.1753172,6299f149e92ead563fba08ef,62a44415dc99d82adcabbfb9,,,,,,,,,,,,,,,,,,,,,,,,,,,,,,,,,,,,,,,,,,,,,,,,,,,,,,,,,,,,,,,,,,,,,,,,,,,,,,,,,,,,,,,,,,,,,,,,,,,,,
,,,,,,3,0,3,0,1,X V Q F H G B L J M P D K C T S W R N Z,5f72473314afc916af99e341,25,Mężczyzna,2022-06-11_09h37.47.163,task,2021.1.4,Win32,144.1753172,6299f149e92ead563fba08ef,62a44415dc99d82adcabbfb9,,,,,,,,,,,,,,,,,,,,,,,,,,,,,,,,,,,,,,,,,,,,,,,,,,,,,,,,,,,,,,,,,,,,,,,,,,,,,,,,,,,,,,,,,,,,,,,,,,,,,
,,,,,,4,0,4,0,1,X V Q F H G B L J M P D K C T S W R N Z,5f72473314afc916af99e341,25,Mężczyzna,2022-06-11_09h37.47.163,task,2021.1.4,Win32,144.1753172,6299f149e92ead563fba08ef,62a44415dc99d82adcabbfb9,,,,,,,,,,,,,,,,,,,,,,,,,,,,,,,,,,,,,,,,,,,,,,,,,,,,,,,,,,,,,,,,,,,,,,,,,,,,,,,,,,,,,,,,,,,,,,,,,,,,,
,,,,,,,,,,,,5f72473314afc916af99e341,25,Mężczyzna,2022-06-11_09h37.47.163,task,2021.1.4,Win32,144.1753172,6299f149e92ead563fba08ef,62a44415dc99d82adcabbfb9,fgwqz,"[""f"",""g"",""w"",""q"",""z""]","[0.73960000002387,1.2443999999761672,2.059399999976108,2.5282000000477183,2.8277000000476846,3.2196000000238882]",1,FGWQZ,6,0,6,0,1,,,,,,,,,,,,,,,,,,,,,,,,,,,,,,,,,,,,,,,,,,,,,,,,,,,,,,,,,,,,,,,,,,,,,,,,,,,,,,,,,,,,,,,,,,,
,,,,,,0,0,0,0,1,X V Q F H G B L J M P D K C T S W R N Z,5f72473314afc916af99e341,25,Mężczyzna,2022-06-11_09h37.47.163,task,2021.1.4,Win32,144.1753172,6299f149e92ead563fba08ef,62a44415dc99d82adcabbfb9,,,,,,,,,,,,,,,,,,,,,,,,,,,,,,,,,,,,,,,,,,,,,,,,,,,,,,,,,,,,,,,,,,,,,,,,,,,,,,,,,,,,,,,,,,,,,,,,,,,,,
,,,,,,1,0,1,0,1,X V Q F H G B L J M P D K C T S W R N Z,5f72473314afc916af99e341,25,Mężczyzna,2022-06-11_09h37.47.163,task,2021.1.4,Win32,144.1753172,6299f149e92ead563fba08ef,62a44415dc99d82adcabbfb9,,,,,,,,,,,,,,,,,,,,,,,,,,,,,,,,,,,,,,,,,,,,,,,,,,,,,,,,,,,,,,,,,,,,,,,,,,,,,,,,,,,,,,,,,,,,,,,,,,,,,
,,,,,,2,0,2,0,1,X V Q F H G B L J M P D K C T S W R N Z,5f72473314afc916af99e341,25,Mężczyzna,2022-06-11_09h37.47.163,task,2021.1.4,Win32,144.1753172,6299f149e92ead563fba08ef,62a44415dc99d82adcabbfb9,,,,,,,,,,,,,,,,,,,,,,,,,,,,,,,,,,,,,,,,,,,,,,,,,,,,,,,,,,,,,,,,,,,,,,,,,,,,,,,,,,,,,,,,,,,,,,,,,,,,,
,,,,,,3,0,3,0,1,X V Q F H G B L J M P D K C T S W R N Z,5f72473314afc916af99e341,25,Mężczyzna,2022-06-11_09h37.47.163,task,2021.1.4,Win32,144.1753172,6299f149e92ead563fba08ef,62a44415dc99d82adcabbfb9,,,,,,,,,,,,,,,,,,,,,,,,,,,,,,,,,,,,,,,,,,,,,,,,,,,,,,,,,,,,,,,,,,,,,,,,,,,,,,,,,,,,,,,,,,,,,,,,,,,,,
,,,,,,4,0,4,0,1,X V Q F H G B L J M P D K C T S W R N Z,5f72473314afc916af99e341,25,Mężczyzna,2022-06-11_09h37.47.163,task,2021.1.4,Win32,144.1753172,6299f149e92ead563fba08ef,62a44415dc99d82adcabbfb9,,,,,,,,,,,,,,,,,,,,,,,,,,,,,,,,,,,,,,,,,,,,,,,,,,,,,,,,,,,,,,,,,,,,,,,,,,,,,,,,,,,,,,,,,,,,,,,,,,,,,
,,,,,,,,,,,,5f72473314afc916af99e341,25,Mężczyzna,2022-06-11_09h37.47.163,task,2021.1.4,Win32,144.1753172,6299f149e92ead563fba08ef,62a44415dc99d82adcabbfb9,nnmdh,"[""n"",""n"",""m"",""d"",""h""]","[1.2894999999999754,1.5836999999285126,1.9692999999523408,2.4853999999761527,2.842600000023822,3.417799999952308]",1,NNMDH,7,0,7,0,1,,,,,,,,,,,,,,,,,,,,,,,,,,,,,,,,,,,,,,,,,,,,,,,,,,,,,,,,,,,,,,,,,,,,,,,,,,,,,,,,,,,,,,,,,,,
,,,,,,0,0,0,0,1,X V Q F H G B L J M P D K C T S W R N Z,5f72473314afc916af99e341,25,Mężczyzna,2022-06-11_09h37.47.163,task,2021.1.4,Win32,144.1753172,6299f149e92ead563fba08ef,62a44415dc99d82adcabbfb9,,,,,,,,,,,,,,,,,,,,,,,,,,,,,,,,,,,,,,,,,,,,,,,,,,,,,,,,,,,,,,,,,,,,,,,,,,,,,,,,,,,,,,,,,,,,,,,,,,,,,
,,,,,,1,0,1,0,1,X V Q F H G B L J M P D K C T S W R N Z,5f72473314afc916af99e341,25,Mężczyzna,2022-06-11_09h37.47.163,task,2021.1.4,Win32,144.1753172,6299f149e92ead563fba08ef,62a44415dc99d82adcabbfb9,,,,,,,,,,,,,,,,,,,,,,,,,,,,,,,,,,,,,,,,,,,,,,,,,,,,,,,,,,,,,,,,,,,,,,,,,,,,,,,,,,,,,,,,,,,,,,,,,,,,,
,,,,,,2,0,2,0,1,X V Q F H G B L J M P D K C T S W R N Z,5f72473314afc916af99e341,25,Mężczyzna,2022-06-11_09h37.47.163,task,2021.1.4,Win32,144.1753172,6299f149e92ead563fba08ef,62a44415dc99d82adcabbfb9,,,,,,,,,,,,,,,,,,,,,,,,,,,,,,,,,,,,,,,,,,,,,,,,,,,,,,,,,,,,,,,,,,,,,,,,,,,,,,,,,,,,,,,,,,,,,,,,,,,,,
,,,,,,3,0,3,0,1,X V Q F H G B L J M P D K C T S W R N Z,5f72473314afc916af99e341,25,Mężczyzna,2022-06-11_09h37.47.163,task,2021.1.4,Win32,144.1753172,6299f149e92ead563fba08ef,62a44415dc99d82adcabbfb9,,,,,,,,,,,,,,,,,,,,,,,,,,,,,,,,,,,,,,,,,,,,,,,,,,,,,,,,,,,,,,,,,,,,,,,,,,,,,,,,,,,,,,,,,,,,,,,,,,,,,
,,,,,,4,0,4,0,1,X V Q F H G B L J M P D K C T S W R N Z,5f72473314afc916af99e341,25,Mężczyzna,2022-06-11_09h37.47.163,task,2021.1.4,Win32,144.1753172,6299f149e92ead563fba08ef,62a44415dc99d82adcabbfb9,,,,,,,,,,,,,,,,,,,,,,,,,,,,,,,,,,,,,,,,,,,,,,,,,,,,,,,,,,,,,,,,,,,,,,,,,,,,,,,,,,,,,,,,,,,,,,,,,,,,,
,,,,,,5,0,5,0,1,X V Q F H G B L J M P D K C T S W R N Z,5f72473314afc916af99e341,25,Mężczyzna,2022-06-11_09h37.47.163,task,2021.1.4,Win32,144.1753172,6299f149e92ead563fba08ef,62a44415dc99d82adcabbfb9,,,,,,,,,,,,,,,,,,,,,,,,,,,,,,,,,,,,,,,,,,,,,,,,,,,,,,,,,,,,,,,,,,,,,,,,,,,,,,,,,,,,,,,,,,,,,,,,,,,,,
,,,,,,,,,,,,5f72473314afc916af99e341,25,Mężczyzna,2022-06-11_09h37.47.163,task,2021.1.4,Win32,144.1753172,6299f149e92ead563fba08ef,62a44415dc99d82adcabbfb9,rvzmhc,"[""r"",""v"",""z"",""m"",""h"",""c""]","[0.88539999997613,1.3651999999284499,2.261299999952371,2.685399999976198,2.973500000000058,3.18779999995229,3.8535000000000537]",1,RVZMHC,8,0,8,0,1,,,,,,,,,,,,,,,,,,,,,,,,,,,,,,,,,,,,,,,,,,,,,,,,,,,,,,,,,,,,,,,,,,,,,,,,,,,,,,,,,,,,,,,,,,,
,,,,,,0,0,0,0,1,X V Q F H G B L J M P D K C T S W R N Z,5f72473314afc916af99e341,25,Mężczyzna,2022-06-11_09h37.47.163,task,2021.1.4,Win32,144.1753172,6299f149e92ead563fba08ef,62a44415dc99d82adcabbfb9,,,,,,,,,,,,,,,,,,,,,,,,,,,,,,,,,,,,,,,,,,,,,,,,,,,,,,,,,,,,,,,,,,,,,,,,,,,,,,,,,,,,,,,,,,,,,,,,,,,,,
,,,,,,1,0,1,0,1,X V Q F H G B L J M P D K C T S W R N Z,5f72473314afc916af99e341,25,Mężczyzna,2022-06-11_09h37.47.163,task,2021.1.4,Win32,144.1753172,6299f149e92ead563fba08ef,62a44415dc99d82adcabbfb9,,,,,,,,,,,,,,,,,,,,,,,,,,,,,,,,,,,,,,,,,,,,,,,,,,,,,,,,,,,,,,,,,,,,,,,,,,,,,,,,,,,,,,,,,,,,,,,,,,,,,
,,,,,,2,0,2,0,1,X V Q F H G B L J M P D K C T S W R N Z,5f72473314afc916af99e341,25,Mężczyzna,2022-06-11_09h37.47.163,task,2021.1.4,Win32,144.1753172,6299f149e92ead563fba08ef,62a44415dc99d82adcabbfb9,,,,,,,,,,,,,,,,,,,,,,,,,,,,,,,,,,,,,,,,,,,,,,,,,,,,,,,,,,,,,,,,,,,,,,,,,,,,,,,,,,,,,,,,,,,,,,,,,,,,,
,,,,,,3,0,3,0,1,X V Q F H G B L J M P D K C T S W R N Z,5f72473314afc916af99e341,25,Mężczyzna,2022-06-11_09h37.47.163,task,2021.1.4,Win32,144.1753172,6299f149e92ead563fba08ef,62a44415dc99d82adcabbfb9,,,,,,,,,,,,,,,,,,,,,,,,,,,,,,,,,,,,,,,,,,,,,,,,,,,,,,,,,,,,,,,,,,,,,,,,,,,,,,,,,,,,,,,,,,,,,,,,,,,,,
,,,,,,4,0,4,0,1,X V Q F H G B L J M P D K C T S W R N Z,5f72473314afc916af99e341,25,Mężczyzna,2022-06-11_09h37.47.163,task,2021.1.4,Win32,144.1753172,6299f149e92ead563fba08ef,62a44415dc99d82adcabbfb9,,,,,,,,,,,,,,,,,,,,,,,,,,,,,,,,,,,,,,,,,,,,,,,,,,,,,,,,,,,,,,,,,,,,,,,,,,,,,,,,,,,,,,,,,,,,,,,,,,,,,
,,,,,,5,0,5,0,1,X V Q F H G B L J M P D K C T S W R N Z,5f72473314afc916af99e341,25,Mężczyzna,2022-06-11_09h37.47.163,task,2021.1.4,Win32,144.1753172,6299f149e92ead563fba08ef,62a44415dc99d82adcabbfb9,,,,,,,,,,,,,,,,,,,,,,,,,,,,,,,,,,,,,,,,,,,,,,,,,,,,,,,,,,,,,,,,,,,,,,,,,,,,,,,,,,,,,,,,,,,,,,,,,,,,,
,,,,,,,,,,,,5f72473314afc916af99e341,25,Mężczyzna,2022-06-11_09h37.47.163,task,2021.1.4,Win32,144.1753172,6299f149e92ead563fba08ef,62a44415dc99d82adcabbfb9,cmgrvb,"[""c"",""m"",""g"",""r"",""v"",""b""]","[1.2647999999524018,1.5762999999523117,1.7848999999762327,2.1927000000476937,2.4808999999761454,2.7607000000476773,3.144999999999982]",1,CMGRVB,9,0,9,0,1,,,,,,,,,,,,,,,,,,,,,,,,,,,,,,,,,,,,,,,,,,,,,,,,,,,,,,,,,,,,,,,,,,,,,,,,,,,,,,,,,,,,,,,,,,,
,,,,,,0,0,0,0,1,X V Q F H G B L J M P D K C T S W R N Z,5f72473314afc916af99e341,25,Mężczyzna,2022-06-11_09h37.47.163,task,2021.1.4,Win32,144.1753172,6299f149e92ead563fba08ef,62a44415dc99d82adcabbfb9,,,,,,,,,,,,,,,,,,,,,,,,,,,,,,,,,,,,,,,,,,,,,,,,,,,,,,,,,,,,,,,,,,,,,,,,,,,,,,,,,,,,,,,,,,,,,,,,,,,,,
,,,,,,1,0,1,0,1,X V Q F H G B L J M P D K C T S W R N Z,5f72473314afc916af99e341,25,Mężczyzna,2022-06-11_09h37.47.163,task,2021.1.4,Win32,144.1753172,6299f149e92ead563fba08ef,62a44415dc99d82adcabbfb9,,,,,,,,,,,,,,,,,,,,,,,,,,,,,,,,,,,,,,,,,,,,,,,,,,,,,,,,,,,,,,,,,,,,,,,,,,,,,,,,,,,,,,,,,,,,,,,,,,,,,
,,,,,,2,0,2,0,1,X V Q F H G B L J M P D K C T S W R N Z,5f72473314afc916af99e341,25,Mężczyzna,2022-06-11_09h37.47.163,task,2021.1.4,Win32,144.1753172,6299f149e92ead563fba08ef,62a44415dc99d82adcabbfb9,,,,,,,,,,,,,,,,,,,,,,,,,,,,,,,,,,,,,,,,,,,,,,,,,,,,,,,,,,,,,,,,,,,,,,,,,,,,,,,,,,,,,,,,,,,,,,,,,,,,,
,,,,,,3,0,3,0,1,X V Q F H G B L J M P D K C T S W R N Z,5f72473314afc916af99e341,25,Mężczyzna,2022-06-11_09h37.47.163,task,2021.1.4,Win32,144.1753172,6299f149e92ead563fba08ef,62a44415dc99d82adcabbfb9,,,,,,,,,,,,,,,,,,,,,,,,,,,,,,,,,,,,,,,,,,,,,,,,,,,,,,,,,,,,,,,,,,,,,,,,,,,,,,,,,,,,,,,,,,,,,,,,,,,,,
,,,,,,4,0,4,0,1,X V Q F H G B L J M P D K C T S W R N Z,5f72473314afc916af99e341,25,Mężczyzna,2022-06-11_09h37.47.163,task,2021.1.4,Win32,144.1753172,6299f149e92ead563fba08ef,62a44415dc99d82adcabbfb9,,,,,,,,,,,,,,,,,,,,,,,,,,,,,,,,,,,,,,,,,,,,,,,,,,,,,,,,,,,,,,,,,,,,,,,,,,,,,,,,,,,,,,,,,,,,,,,,,,,,,
,,,,,,5,0,5,0,1,X V Q F H G B L J M P D K C T S W R N Z,5f72473314afc916af99e341,25,Mężczyzna,2022-06-11_09h37.47.163,task,2021.1.4,Win32,144.1753172,6299f149e92ead563fba08ef,62a44415dc99d82adcabbfb9,,,,,,,,,,,,,,,,,,,,,,,,,,,,,,,,,,,,,,,,,,,,,,,,,,,,,,,,,,,,,,,,,,,,,,,,,,,,,,,,,,,,,,,,,,,,,,,,,,,,,
,,,,,,6,0,6,0,1,X V Q F H G B L J M P D K C T S W R N Z,5f72473314afc916af99e341,25,Mężczyzna,2022-06-11_09h37.47.163,task,2021.1.4,Win32,144.1753172,6299f149e92ead563fba08ef,62a44415dc99d82adcabbfb9,,,,,,,,,,,,,,,,,,,,,,,,,,,,,,,,,,,,,,,,,,,,,,,,,,,,,,,,,,,,,,,,,,,,,,,,,,,,,,,,,,,,,,,,,,,,,,,,,,,,,
,,,,,,,,,,,,5f72473314afc916af99e341,25,Mężczyzna,2022-06-11_09h37.47.163,task,2021.1.4,Win32,144.1753172,6299f149e92ead563fba08ef,62a44415dc99d82adcabbfb9,shqsdcf,"[""s"",""h"",""q"",""s"",""d"",""c"",""f""]","[1.305600000023901,6.05629999995233,6.480299999952308,7.240399999976148,7.528500000000008,7.776600000023905,8.376500000000078,8.743100000023901]",0,SHQFDCF,10,0,10,0,1,,,,,,,,,,,,,,,,,,,,,,,,,,,,,,,,,,,,,,,,,,,,,,,,,,,,,,,,,,,,,,,,,,,,,,,,,,,,,,,,,,,,,,,,,,,
,,,,,,0,0,0,0,1,X V Q F H G B L J M P D K C T S W R N Z,5f72473314afc916af99e341,25,Mężczyzna,2022-06-11_09h37.47.163,task,2021.1.4,Win32,144.1753172,6299f149e92ead563fba08ef,62a44415dc99d82adcabbfb9,,,,,,,,,,,,,,,,,,,,,,,,,,,,,,,,,,,,,,,,,,,,,,,,,,,,,,,,,,,,,,,,,,,,,,,,,,,,,,,,,,,,,,,,,,,,,,,,,,,,,
,,,,,,1,0,1,0,1,X V Q F H G B L J M P D K C T S W R N Z,5f72473314afc916af99e341,25,Mężczyzna,2022-06-11_09h37.47.163,task,2021.1.4,Win32,144.1753172,6299f149e92ead563fba08ef,62a44415dc99d82adcabbfb9,,,,,,,,,,,,,,,,,,,,,,,,,,,,,,,,,,,,,,,,,,,,,,,,,,,,,,,,,,,,,,,,,,,,,,,,,,,,,,,,,,,,,,,,,,,,,,,,,,,,,
,,,,,,2,0,2,0,1,X V Q F H G B L J M P D K C T S W R N Z,5f72473314afc916af99e341,25,Mężczyzna,2022-06-11_09h37.47.163,task,2021.1.4,Win32,144.1753172,6299f149e92ead563fba08ef,62a44415dc99d82adcabbfb9,,,,,,,,,,,,,,,,,,,,,,,,,,,,,,,,,,,,,,,,,,,,,,,,,,,,,,,,,,,,,,,,,,,,,,,,,,,,,,,,,,,,,,,,,,,,,,,,,,,,,
,,,,,,3,0,3,0,1,X V Q F H G B L J M P D K C T S W R N Z,5f72473314afc916af99e341,25,Mężczyzna,2022-06-11_09h37.47.163,task,2021.1.4,Win32,144.1753172,6299f149e92ead563fba08ef,62a44415dc99d82adcabbfb9,,,,,,,,,,,,,,,,,,,,,,,,,,,,,,,,,,,,,,,,,,,,,,,,,,,,,,,,,,,,,,,,,,,,,,,,,,,,,,,,,,,,,,,,,,,,,,,,,,,,,
,,,,,,4,0,4,0,1,X V Q F H G B L J M P D K C T S W R N Z,5f72473314afc916af99e341,25,Mężczyzna,2022-06-11_09h37.47.163,task,2021.1.4,Win32,144.1753172,6299f149e92ead563fba08ef,62a44415dc99d82adcabbfb9,,,,,,,,,,,,,,,,,,,,,,,,,,,,,,,,,,,,,,,,,,,,,,,,,,,,,,,,,,,,,,,,,,,,,,,,,,,,,,,,,,,,,,,,,,,,,,,,,,,,,
,,,,,,5,0,5,0,1,X V Q F H G B L J M P D K C T S W R N Z,5f72473314afc916af99e341,25,Mężczyzna,2022-06-11_09h37.47.163,task,2021.1.4,Win32,144.1753172,6299f149e92ead563fba08ef,62a44415dc99d82adcabbfb9,,,,,,,,,,,,,,,,,,,,,,,,,,,,,,,,,,,,,,,,,,,,,,,,,,,,,,,,,,,,,,,,,,,,,,,,,,,,,,,,,,,,,,,,,,,,,,,,,,,,,
,,,,,,6,0,6,0,1,X V Q F H G B L J M P D K C T S W R N Z,5f72473314afc916af99e341,25,Mężczyzna,2022-06-11_09h37.47.163,task,2021.1.4,Win32,144.1753172,6299f149e92ead563fba08ef,62a44415dc99d82adcabbfb9,,,,,,,,,,,,,,,,,,,,,,,,,,,,,,,,,,,,,,,,,,,,,,,,,,,,,,,,,,,,,,,,,,,,,,,,,,,,,,,,,,,,,,,,,,,,,,,,,,,,,
,,,,,,,,,,,,5f72473314afc916af99e341,25,Mężczyzna,2022-06-11_09h37.47.163,task,2021.1.4,Win32,144.1753172,6299f149e92ead563fba08ef,62a44415dc99d82adcabbfb9,ppmdfdg,"[""p"",""p"",""m"",""d"",""f"",""d"",""g""]","[1.379299999952309,1.5391000000238364,1.9071999999284799,2.271299999952248,2.635299999952281,2.9952999999522945,4.09079999995231,5.647399999976074]",1,PPMDFDG,11,0,11,0,1,,,,,,,,,,,,,,,,,,,,,,,,,,,,,,,,,,,,,,,,,,,,,,,,,,,,,,,,,,,,,,,,,,,,,,,,,,,,,,,,,,,,,,,,,,,
,,,,,,0,0,0,0,1,X V Q F H G B L J M P D K C T S W R N Z,5f72473314afc916af99e341,25,Mężczyzna,2022-06-11_09h37.47.163,task,2021.1.4,Win32,144.1753172,6299f149e92ead563fba08ef,62a44415dc99d82adcabbfb9,,,,,,,,,,,,,,,,,,,,,,,,,,,,,,,,,,,,,,,,,,,,,,,,,,,,,,,,,,,,,,,,,,,,,,,,,,,,,,,,,,,,,,,,,,,,,,,,,,,,,
,,,,,,1,0,1,0,1,X V Q F H G B L J M P D K C T S W R N Z,5f72473314afc916af99e341,25,Mężczyzna,2022-06-11_09h37.47.163,task,2021.1.4,Win32,144.1753172,6299f149e92ead563fba08ef,62a44415dc99d82adcabbfb9,,,,,,,,,,,,,,,,,,,,,,,,,,,,,,,,,,,,,,,,,,,,,,,,,,,,,,,,,,,,,,,,,,,,,,,,,,,,,,,,,,,,,,,,,,,,,,,,,,,,,
,,,,,,2,0,2,0,1,X V Q F H G B L J M P D K C T S W R N Z,5f72473314afc916af99e341,25,Mężczyzna,2022-06-11_09h37.47.163,task,2021.1.4,Win32,144.1753172,6299f149e92ead563fba08ef,62a44415dc99d82adcabbfb9,,,,,,,,,,,,,,,,,,,,,,,,,,,,,,,,,,,,,,,,,,,,,,,,,,,,,,,,,,,,,,,,,,,,,,,,,,,,,,,,,,,,,,,,,,,,,,,,,,,,,
,,,,,,3,0,3,0,1,X V Q F H G B L J M P D K C T S W R N Z,5f72473314afc916af99e341,25,Mężczyzna,2022-06-11_09h37.47.163,task,2021.1.4,Win32,144.1753172,6299f149e92ead563fba08ef,62a44415dc99d82adcabbfb9,,,,,,,,,,,,,,,,,,,,,,,,,,,,,,,,,,,,,,,,,,,,,,,,,,,,,,,,,,,,,,,,,,,,,,,,,,,,,,,,,,,,,,,,,,,,,,,,,,,,,
,,,,,,4,0,4,0,1,X V Q F H G B L J M P D K C T S W R N Z,5f72473314afc916af99e341,25,Mężczyzna,2022-06-11_09h37.47.163,task,2021.1.4,Win32,144.1753172,6299f149e92ead563fba08ef,62a44415dc99d82adcabbfb9,,,,,,,,,,,,,,,,,,,,,,,,,,,,,,,,,,,,,,,,,,,,,,,,,,,,,,,,,,,,,,,,,,,,,,,,,,,,,,,,,,,,,,,,,,,,,,,,,,,,,
,,,,,,5,0,5,0,1,X V Q F H G B L J M P D K C T S W R N Z,5f72473314afc916af99e341,25,Mężczyzna,2022-06-11_09h37.47.163,task,2021.1.4,Win32,144.1753172,6299f149e92ead563fba08ef,62a44415dc99d82adcabbfb9,,,,,,,,,,,,,,,,,,,,,,,,,,,,,,,,,,,,,,,,,,,,,,,,,,,,,,,,,,,,,,,,,,,,,,,,,,,,,,,,,,,,,,,,,,,,,,,,,,,,,
,,,,,,6,0,6,0,1,X V Q F H G B L J M P D K C T S W R N Z,5f72473314afc916af99e341,25,Mężczyzna,2022-06-11_09h37.47.163,task,2021.1.4,Win32,144.1753172,6299f149e92ead563fba08ef,62a44415dc99d82adcabbfb9,,,,,,,,,,,,,,,,,,,,,,,,,,,,,,,,,,,,,,,,,,,,,,,,,,,,,,,,,,,,,,,,,,,,,,,,,,,,,,,,,,,,,,,,,,,,,,,,,,,,,
,,,,,,,,,,,,5f72473314afc916af99e341,25,Mężczyzna,2022-06-11_09h37.47.163,task,2021.1.4,Win32,144.1753172,6299f149e92ead563fba08ef,62a44415dc99d82adcabbfb9,fdnpmkr,"[""f"",""d"",""n"",""p"",""m"",""k"",""r""]","[0.8780000000000427,3.053799999952389,3.6061000000238437,4.598600000023907,4.966199999928449,5.182600000023854,5.451699999928451,5.654199999928437]",1,FDNPMKR,12,0,12,0,1,,,,,,,,,,,,,,,,,,,,,,,,,,,,,,,,,,,,,,,,,,,,,,,,,,,,,,,,,,,,,,,,,,,,,,,,,,,,,,,,,,,,,,,,,,,
,,,,,,0,0,0,0,1,X V Q F H G B L J M P D K C T S W R N Z,5f72473314afc916af99e341,25,Mężczyzna,2022-06-11_09h37.47.163,task,2021.1.4,Win32,144.1753172,6299f149e92ead563fba08ef,62a44415dc99d82adcabbfb9,,,,,,,,,,,,,,,,,,,,,,,,,,,,,,,,,,,,,,,,,,,,,,,,,,,,,,,,,,,,,,,,,,,,,,,,,,,,,,,,,,,,,,,,,,,,,,,,,,,,,
,,,,,,1,0,1,0,1,X V Q F H G B L J M P D K C T S W R N Z,5f72473314afc916af99e341,25,Mężczyzna,2022-06-11_09h37.47.163,task,2021.1.4,Win32,144.1753172,6299f149e92ead563fba08ef,62a44415dc99d82adcabbfb9,,,,,,,,,,,,,,,,,,,,,,,,,,,,,,,,,,,,,,,,,,,,,,,,,,,,,,,,,,,,,,,,,,,,,,,,,,,,,,,,,,,,,,,,,,,,,,,,,,,,,
,,,,,,2,0,2,0,1,X V Q F H G B L J M P D K C T S W R N Z,5f72473314afc916af99e341,25,Mężczyzna,2022-06-11_09h37.47.163,task,2021.1.4,Win32,144.1753172,6299f149e92ead563fba08ef,62a44415dc99d82adcabbfb9,,,,,,,,,,,,,,,,,,,,,,,,,,,,,,,,,,,,,,,,,,,,,,,,,,,,,,,,,,,,,,,,,,,,,,,,,,,,,,,,,,,,,,,,,,,,,,,,,,,,,
,,,,,,3,0,3,0,1,X V Q F H G B L J M P D K C T S W R N Z,5f72473314afc916af99e341,25,Mężczyzna,2022-06-11_09h37.47.163,task,2021.1.4,Win32,144.1753172,6299f149e92ead563fba08ef,62a44415dc99d82adcabbfb9,,,,,,,,,,,,,,,,,,,,,,,,,,,,,,,,,,,,,,,,,,,,,,,,,,,,,,,,,,,,,,,,,,,,,,,,,,,,,,,,,,,,,,,,,,,,,,,,,,,,,
,,,,,,4,0,4,0,1,X V Q F H G B L J M P D K C T S W R N Z,5f72473314afc916af99e341,25,Mężczyzna,2022-06-11_09h37.47.163,task,2021.1.4,Win32,144.1753172,6299f149e92ead563fba08ef,62a44415dc99d82adcabbfb9,,,,,,,,,,,,,,,,,,,,,,,,,,,,,,,,,,,,,,,,,,,,,,,,,,,,,,,,,,,,,,,,,,,,,,,,,,,,,,,,,,,,,,,,,,,,,,,,,,,,,
,,,,,,5,0,5,0,1,X V Q F H G B L J M P D K C T S W R N Z,5f72473314afc916af99e341,25,Mężczyzna,2022-06-11_09h37.47.163,task,2021.1.4,Win32,144.1753172,6299f149e92ead563fba08ef,62a44415dc99d82adcabbfb9,,,,,,,,,,,,,,,,,,,,,,,,,,,,,,,,,,,,,,,,,,,,,,,,,,,,,,,,,,,,,,,,,,,,,,,,,,,,,,,,,,,,,,,,,,,,,,,,,,,,,
,,,,,,6,0,6,0,1,X V Q F H G B L J M P D K C T S W R N Z,5f72473314afc916af99e341,25,Mężczyzna,2022-06-11_09h37.47.163,task,2021.1.4,Win32,144.1753172,6299f149e92ead563fba08ef,62a44415dc99d82adcabbfb9,,,,,,,,,,,,,,,,,,,,,,,,,,,,,,,,,,,,,,,,,,,,,,,,,,,,,,,,,,,,,,,,,,,,,,,,,,,,,,,,,,,,,,,,,,,,,,,,,,,,,
,,,,,,7,0,7,0,1,X V Q F H G B L J M P D K C T S W R N Z,5f72473314afc916af99e341,25,Mężczyzna,2022-06-11_09h37.47.163,task,2021.1.4,Win32,144.1753172,6299f149e92ead563fba08ef,62a44415dc99d82adcabbfb9,,,,,,,,,,,,,,,,,,,,,,,,,,,,,,,,,,,,,,,,,,,,,,,,,,,,,,,,,,,,,,,,,,,,,,,,,,,,,,,,,,,,,,,,,,,,,,,,,,,,,
,,,,,,,,,,,,5f72473314afc916af99e341,25,Mężczyzna,2022-06-11_09h37.47.163,task,2021.1.4,Win32,144.1753172,6299f149e92ead563fba08ef,62a44415dc99d82adcabbfb9,bcgzdkpk,"[""b"",""c"",""g"",""z"",""d"",""k"",""p"",""k""]","[0.8322000000476919,1.1609999999999445,1.4249999999999545,1.7294999999999163,2.152100000023779,2.4669999999999845,2.9248999999761054,3.176200000047629,3.496200000047679]",1,BCGZDKPK,13,0,13,0,1,,,,,,,,,,,,,,,,,,,,,,,,,,,,,,,,,,,,,,,,,,,,,,,,,,,,,,,,,,,,,,,,,,,,,,,,,,,,,,,,,,,,,,,,,,,
,,,,,,0,0,0,0,1,X V Q F H G B L J M P D K C T S W R N Z,5f72473314afc916af99e341,25,Mężczyzna,2022-06-11_09h37.47.163,task,2021.1.4,Win32,144.1753172,6299f149e92ead563fba08ef,62a44415dc99d82adcabbfb9,,,,,,,,,,,,,,,,,,,,,,,,,,,,,,,,,,,,,,,,,,,,,,,,,,,,,,,,,,,,,,,,,,,,,,,,,,,,,,,,,,,,,,,,,,,,,,,,,,,,,
,,,,,,1,0,1,0,1,X V Q F H G B L J M P D K C T S W R N Z,5f72473314afc916af99e341,25,Mężczyzna,2022-06-11_09h37.47.163,task,2021.1.4,Win32,144.1753172,6299f149e92ead563fba08ef,62a44415dc99d82adcabbfb9,,,,,,,,,,,,,,,,,,,,,,,,,,,,,,,,,,,,,,,,,,,,,,,,,,,,,,,,,,,,,,,,,,,,,,,,,,,,,,,,,,,,,,,,,,,,,,,,,,,,,
,,,,,,2,0,2,0,1,X V Q F H G B L J M P D K C T S W R N Z,5f72473314afc916af99e341,25,Mężczyzna,2022-06-11_09h37.47.163,task,2021.1.4,Win32,144.1753172,6299f149e92ead563fba08ef,62a44415dc99d82adcabbfb9,,,,,,,,,,,,,,,,,,,,,,,,,,,,,,,,,,,,,,,,,,,,,,,,,,,,,,,,,,,,,,,,,,,,,,,,,,,,,,,,,,,,,,,,,,,,,,,,,,,,,
,,,,,,3,0,3,0,1,X V Q F H G B L J M P D K C T S W R N Z,5f72473314afc916af99e341,25,Mężczyzna,2022-06-11_09h37.47.163,task,2021.1.4,Win32,144.1753172,6299f149e92ead563fba08ef,62a44415dc99d82adcabbfb9,,,,,,,,,,,,,,,,,,,,,,,,,,,,,,,,,,,,,,,,,,,,,,,,,,,,,,,,,,,,,,,,,,,,,,,,,,,,,,,,,,,,,,,,,,,,,,,,,,,,,
,,,,,,4,0,4,0,1,X V Q F H G B L J M P D K C T S W R N Z,5f72473314afc916af99e341,25,Mężczyzna,2022-06-11_09h37.47.163,task,2021.1.4,Win32,144.1753172,6299f149e92ead563fba08ef,62a44415dc99d82adcabbfb9,,,,,,,,,,,,,,,,,,,,,,,,,,,,,,,,,,,,,,,,,,,,,,,,,,,,,,,,,,,,,,,,,,,,,,,,,,,,,,,,,,,,,,,,,,,,,,,,,,,,,
,,,,,,5,0,5,0,1,X V Q F H G B L J M P D K C T S W R N Z,5f72473314afc916af99e341,25,Mężczyzna,2022-06-11_09h37.47.163,task,2021.1.4,Win32,144.1753172,6299f149e92ead563fba08ef,62a44415dc99d82adcabbfb9,,,,,,,,,,,,,,,,,,,,,,,,,,,,,,,,,,,,,,,,,,,,,,,,,,,,,,,,,,,,,,,,,,,,,,,,,,,,,,,,,,,,,,,,,,,,,,,,,,,,,
,,,,,,6,0,6,0,1,X V Q F H G B L J M P D K C T S W R N Z,5f72473314afc916af99e341,25,Mężczyzna,2022-06-11_09h37.47.163,task,2021.1.4,Win32,144.1753172,6299f149e92ead563fba08ef,62a44415dc99d82adcabbfb9,,,,,,,,,,,,,,,,,,,,,,,,,,,,,,,,,,,,,,,,,,,,,,,,,,,,,,,,,,,,,,,,,,,,,,,,,,,,,,,,,,,,,,,,,,,,,,,,,,,,,
,,,,,,7,0,7,0,1,X V Q F H G B L J M P D K C T S W R N Z,5f72473314afc916af99e341,25,Mężczyzna,2022-06-11_09h37.47.163,task,2021.1.4,Win32,144.1753172,6299f149e92ead563fba08ef,62a44415dc99d82adcabbfb9,,,,,,,,,,,,,,,,,,,,,,,,,,,,,,,,,,,,,,,,,,,,,,,,,,,,,,,,,,,,,,,,,,,,,,,,,,,,,,,,,,,,,,,,,,,,,,,,,,,,,
,,,,,,,,,,,,5f72473314afc916af99e341,25,Mężczyzna,2022-06-11_09h37.47.163,task,2021.1.4,Win32,144.1753172,6299f149e92ead563fba08ef,62a44415dc99d82adcabbfb9,xnxjkrs,"[""x"",""n"",""x"",""j"",""k"",""r"",""s""]","[0.5457999999523508,1.2176999999284135,1.6977999999522808,2.0338999999761427,2.385799999952269,2.6097999999523154,2.921799999952327,3.7395999999046126]",0,XNXJKRSN,14,0,14,0,1,,,,,,,,,,,,,,,,,,,,,,,,,,,,,,,,,,,,,,,,,,,,,,,,,,,,,,,,,,,,,,,,,,,,,,,,,,,,,,,,,,,,,,,,,,,
,,,,,,0,0,0,0,1,X V Q F H G B L J M P D K C T S W R N Z,5f72473314afc916af99e341,25,Mężczyzna,2022-06-11_09h37.47.163,task,2021.1.4,Win32,144.1753172,6299f149e92ead563fba08ef,62a44415dc99d82adcabbfb9,,,,,,,,,,,,,,,,,,,,,,,,,,,,,,,,,,,,,,,,,,,,,,,,,,,,,,,,,,,,,,,,,,,,,,,,,,,,,,,,,,,,,,,,,,,,,,,,,,,,,
,,,,,,1,0,1,0,1,X V Q F H G B L J M P D K C T S W R N Z,5f72473314afc916af99e341,25,Mężczyzna,2022-06-11_09h37.47.163,task,2021.1.4,Win32,144.1753172,6299f149e92ead563fba08ef,62a44415dc99d82adcabbfb9,,,,,,,,,,,,,,,,,,,,,,,,,,,,,,,,,,,,,,,,,,,,,,,,,,,,,,,,,,,,,,,,,,,,,,,,,,,,,,,,,,,,,,,,,,,,,,,,,,,,,
,,,,,,2,0,2,0,1,X V Q F H G B L J M P D K C T S W R N Z,5f72473314afc916af99e341,25,Mężczyzna,2022-06-11_09h37.47.163,task,2021.1.4,Win32,144.1753172,6299f149e92ead563fba08ef,62a44415dc99d82adcabbfb9,,,,,,,,,,,,,,,,,,,,,,,,,,,,,,,,,,,,,,,,,,,,,,,,,,,,,,,,,,,,,,,,,,,,,,,,,,,,,,,,,,,,,,,,,,,,,,,,,,,,,
,,,,,,3,0,3,0,1,X V Q F H G B L J M P D K C T S W R N Z,5f72473314afc916af99e341,25,Mężczyzna,2022-06-11_09h37.47.163,task,2021.1.4,Win32,144.1753172,6299f149e92ead563fba08ef,62a44415dc99d82adcabbfb9,,,,,,,,,,,,,,,,,,,,,,,,,,,,,,,,,,,,,,,,,,,,,,,,,,,,,,,,,,,,,,,,,,,,,,,,,,,,,,,,,,,,,,,,,,,,,,,,,,,,,
,,,,,,4,0,4,0,1,X V Q F H G B L J M P D K C T S W R N Z,5f72473314afc916af99e341,25,Mężczyzna,2022-06-11_09h37.47.163,task,2021.1.4,Win32,144.1753172,6299f149e92ead563fba08ef,62a44415dc99d82adcabbfb9,,,,,,,,,,,,,,,,,,,,,,,,,,,,,,,,,,,,,,,,,,,,,,,,,,,,,,,,,,,,,,,,,,,,,,,,,,,,,,,,,,,,,,,,,,,,,,,,,,,,,
,,,,,,5,0,5,0,1,X V Q F H G B L J M P D K C T S W R N Z,5f72473314afc916af99e341,25,Mężczyzna,2022-06-11_09h37.47.163,task,2021.1.4,Win32,144.1753172,6299f149e92ead563fba08ef,62a44415dc99d82adcabbfb9,,,,,,,,,,,,,,,,,,,,,,,,,,,,,,,,,,,,,,,,,,,,,,,,,,,,,,,,,,,,,,,,,,,,,,,,,,,,,,,,,,,,,,,,,,,,,,,,,,,,,
,,,,,,6,0,6,0,1,X V Q F H G B L J M P D K C T S W R N Z,5f72473314afc916af99e341,25,Mężczyzna,2022-06-11_09h37.47.163,task,2021.1.4,Win32,144.1753172,6299f149e92ead563fba08ef,62a44415dc99d82adcabbfb9,,,,,,,,,,,,,,,,,,,,,,,,,,,,,,,,,,,,,,,,,,,,,,,,,,,,,,,,,,,,,,,,,,,,,,,,,,,,,,,,,,,,,,,,,,,,,,,,,,,,,
,,,,,,7,0,7,0,1,X V Q F H G B L J M P D K C T S W R N Z,5f72473314afc916af99e341,25,Mężczyzna,2022-06-11_09h37.47.163,task,2021.1.4,Win32,144.1753172,6299f149e92ead563fba08ef,62a44415dc99d82adcabbfb9,,,,,,,,,,,,,,,,,,,,,,,,,,,,,,,,,,,,,,,,,,,,,,,,,,,,,,,,,,,,,,,,,,,,,,,,,,,,,,,,,,,,,,,,,,,,,,,,,,,,,
,,,,,,,,,,,,5f72473314afc916af99e341,25,Mężczyzna,2022-06-11_09h37.47.163,task,2021.1.4,Win32,144.1753172,6299f149e92ead563fba08ef,62a44415dc99d82adcabbfb9,fmswkhgc,"[""f"",""m"",""s"",""w"",""k"",""h"",""g"",""c""]","[1.5216000000237955,1.728600000023789,1.9683999999762136,2.425200000047653,2.791899999976181,3.328700000047661,3.560700000047632,3.936800000071571,4.284899999976119]",1,FMSWKHGC,15,0,15,0,1,,,,,,,,,,,,,,,,,,,,,,,,,,,,,,,,,,,,,,,,,,,,,,,,,,,,,,,,,,,,,,,,,,,,,,,,,,,,,,,,,,,,,,,,,,,
,,,,,,0,0,0,0,1,X V Q F H G B L J M P D K C T S W R N Z,5f72473314afc916af99e341,25,Mężczyzna,2022-06-11_09h37.47.163,task,2021.1.4,Win32,144.1753172,6299f149e92ead563fba08ef,62a44415dc99d82adcabbfb9,,,,,,,,,,,,,,,,,,,,,,,,,,,,,,,,,,,,,,,,,,,,,,,,,,,,,,,,,,,,,,,,,,,,,,,,,,,,,,,,,,,,,,,,,,,,,,,,,,,,,
,,,,,,1,0,1,0,1,X V Q F H G B L J M P D K C T S W R N Z,5f72473314afc916af99e341,25,Mężczyzna,2022-06-11_09h37.47.163,task,2021.1.4,Win32,144.1753172,6299f149e92ead563fba08ef,62a44415dc99d82adcabbfb9,,,,,,,,,,,,,,,,,,,,,,,,,,,,,,,,,,,,,,,,,,,,,,,,,,,,,,,,,,,,,,,,,,,,,,,,,,,,,,,,,,,,,,,,,,,,,,,,,,,,,
,,,,,,2,0,2,0,1,X V Q F H G B L J M P D K C T S W R N Z,5f72473314afc916af99e341,25,Mężczyzna,2022-06-11_09h37.47.163,task,2021.1.4,Win32,144.1753172,6299f149e92ead563fba08ef,62a44415dc99d82adcabbfb9,,,,,,,,,,,,,,,,,,,,,,,,,,,,,,,,,,,,,,,,,,,,,,,,,,,,,,,,,,,,,,,,,,,,,,,,,,,,,,,,,,,,,,,,,,,,,,,,,,,,,
,,,,,,3,0,3,0,1,X V Q F H G B L J M P D K C T S W R N Z,5f72473314afc916af99e341,25,Mężczyzna,2022-06-11_09h37.47.163,task,2021.1.4,Win32,144.1753172,6299f149e92ead563fba08ef,62a44415dc99d82adcabbfb9,,,,,,,,,,,,,,,,,,,,,,,,,,,,,,,,,,,,,,,,,,,,,,,,,,,,,,,,,,,,,,,,,,,,,,,,,,,,,,,,,,,,,,,,,,,,,,,,,,,,,
,,,,,,4,0,4,0,1,X V Q F H G B L J M P D K C T S W R N Z,5f72473314afc916af99e341,25,Mężczyzna,2022-06-11_09h37.47.163,task,2021.1.4,Win32,144.1753172,6299f149e92ead563fba08ef,62a44415dc99d82adcabbfb9,,,,,,,,,,,,,,,,,,,,,,,,,,,,,,,,,,,,,,,,,,,,,,,,,,,,,,,,,,,,,,,,,,,,,,,,,,,,,,,,,,,,,,,,,,,,,,,,,,,,,
,,,,,,5,0,5,0,1,X V Q F H G B L J M P D K C T S W R N Z,5f72473314afc916af99e341,25,Mężczyzna,2022-06-11_09h37.47.163,task,2021.1.4,Win32,144.1753172,6299f149e92ead563fba08ef,62a44415dc99d82adcabbfb9,,,,,,,,,,,,,,,,,,,,,,,,,,,,,,,,,,,,,,,,,,,,,,,,,,,,,,,,,,,,,,,,,,,,,,,,,,,,,,,,,,,,,,,,,,,,,,,,,,,,,
,,,,,,6,0,6,0,1,X V Q F H G B L J M P D K C T S W R N Z,5f72473314afc916af99e341,25,Mężczyzna,2022-06-11_09h37.47.163,task,2021.1.4,Win32,144.1753172,6299f149e92ead563fba08ef,62a44415dc99d82adcabbfb9,,,,,,,,,,,,,,,,,,,,,,,,,,,,,,,,,,,,,,,,,,,,,,,,,,,,,,,,,,,,,,,,,,,,,,,,,,,,,,,,,,,,,,,,,,,,,,,,,,,,,
,,,,,,7,0,7,0,1,X V Q F H G B L J M P D K C T S W R N Z,5f72473314afc916af99e341,25,Mężczyzna,2022-06-11_09h37.47.163,task,2021.1.4,Win32,144.1753172,6299f149e92ead563fba08ef,62a44415dc99d82adcabbfb9,,,,,,,,,,,,,,,,,,,,,,,,,,,,,,,,,,,,,,,,,,,,,,,,,,,,,,,,,,,,,,,,,,,,,,,,,,,,,,,,,,,,,,,,,,,,,,,,,,,,,
,,,,,,8,0,8,0,1,X V Q F H G B L J M P D K C T S W R N Z,5f72473314afc916af99e341,25,Mężczyzna,2022-06-11_09h37.47.163,task,2021.1.4,Win32,144.1753172,6299f149e92ead563fba08ef,62a44415dc99d82adcabbfb9,,,,,,,,,,,,,,,,,,,,,,,,,,,,,,,,,,,,,,,,,,,,,,,,,,,,,,,,,,,,,,,,,,,,,,,,,,,,,,,,,,,,,,,,,,,,,,,,,,,,,
,,,,,,,,,,,,5f72473314afc916af99e341,25,Mężczyzna,2022-06-11_09h37.47.163,task,2021.1.4,Win32,144.1753172,6299f149e92ead563fba08ef,62a44415dc99d82adcabbfb9,jvkgrxvg,"[""j"",""v"",""k"",""g"",""r"",""x"",""v"",""g""]","[0.4797999999523199,1.1831000000238419,1.8389999999999418,2.8791000000237545,3.2551000000238446,4.160100000023817,5.399600000023838,6.12760000002379,6.3034999999999854]",0,JVRXGBWFR,16,0,16,0,1,,,,,,,,,,,,,,,,,,,,,,,,,,,,,,,,,,,,,,,,,,,,,,,,,,,,,,,,,,,,,,,,,,,,,,,,,,,,,,,,,,,,,,,,,,,
,,,,,,0,0,0,0,1,X V Q F H G B L J M P D K C T S W R N Z,5f72473314afc916af99e341,25,Mężczyzna,2022-06-11_09h37.47.163,task,2021.1.4,Win32,144.1753172,6299f149e92ead563fba08ef,62a44415dc99d82adcabbfb9,,,,,,,,,,,,,,,,,,,,,,,,,,,,,,,,,,,,,,,,,,,,,,,,,,,,,,,,,,,,,,,,,,,,,,,,,,,,,,,,,,,,,,,,,,,,,,,,,,,,,
,,,,,,1,0,1,0,1,X V Q F H G B L J M P D K C T S W R N Z,5f72473314afc916af99e341,25,Mężczyzna,2022-06-11_09h37.47.163,task,2021.1.4,Win32,144.1753172,6299f149e92ead563fba08ef,62a44415dc99d82adcabbfb9,,,,,,,,,,,,,,,,,,,,,,,,,,,,,,,,,,,,,,,,,,,,,,,,,,,,,,,,,,,,,,,,,,,,,,,,,,,,,,,,,,,,,,,,,,,,,,,,,,,,,
,,,,,,2,0,2,0,1,X V Q F H G B L J M P D K C T S W R N Z,5f72473314afc916af99e341,25,Mężczyzna,2022-06-11_09h37.47.163,task,2021.1.4,Win32,144.1753172,6299f149e92ead563fba08ef,62a44415dc99d82adcabbfb9,,,,,,,,,,,,,,,,,,,,,,,,,,,,,,,,,,,,,,,,,,,,,,,,,,,,,,,,,,,,,,,,,,,,,,,,,,,,,,,,,,,,,,,,,,,,,,,,,,,,,
,,,,,,3,0,3,0,1,X V Q F H G B L J M P D K C T S W R N Z,5f72473314afc916af99e341,25,Mężczyzna,2022-06-11_09h37.47.163,task,2021.1.4,Win32,144.1753172,6299f149e92ead563fba08ef,62a44415dc99d82adcabbfb9,,,,,,,,,,,,,,,,,,,,,,,,,,,,,,,,,,,,,,,,,,,,,,,,,,,,,,,,,,,,,,,,,,,,,,,,,,,,,,,,,,,,,,,,,,,,,,,,,,,,,
,,,,,,4,0,4,0,1,X V Q F H G B L J M P D K C T S W R N Z,5f72473314afc916af99e341,25,Mężczyzna,2022-06-11_09h37.47.163,task,2021.1.4,Win32,144.1753172,6299f149e92ead563fba08ef,62a44415dc99d82adcabbfb9,,,,,,,,,,,,,,,,,,,,,,,,,,,,,,,,,,,,,,,,,,,,,,,,,,,,,,,,,,,,,,,,,,,,,,,,,,,,,,,,,,,,,,,,,,,,,,,,,,,,,
,,,,,,5,0,5,0,1,X V Q F H G B L J M P D K C T S W R N Z,5f72473314afc916af99e341,25,Mężczyzna,2022-06-11_09h37.47.163,task,2021.1.4,Win32,144.1753172,6299f149e92ead563fba08ef,62a44415dc99d82adcabbfb9,,,,,,,,,,,,,,,,,,,,,,,,,,,,,,,,,,,,,,,,,,,,,,,,,,,,,,,,,,,,,,,,,,,,,,,,,,,,,,,,,,,,,,,,,,,,,,,,,,,,,
,,,,,,6,0,6,0,1,X V Q F H G B L J M P D K C T S W R N Z,5f72473314afc916af99e341,25,Mężczyzna,2022-06-11_09h37.47.163,task,2021.1.4,Win32,144.1753172,6299f149e92ead563fba08ef,62a44415dc99d82adcabbfb9,,,,,,,,,,,,,,,,,,,,,,,,,,,,,,,,,,,,,,,,,,,,,,,,,,,,,,,,,,,,,,,,,,,,,,,,,,,,,,,,,,,,,,,,,,,,,,,,,,,,,
,,,,,,7,0,7,0,1,X V Q F H G B L J M P D K C T S W R N Z,5f72473314afc916af99e341,25,Mężczyzna,2022-06-11_09h37.47.163,task,2021.1.4,Win32,144.1753172,6299f149e92ead563fba08ef,62a44415dc99d82adcabbfb9,,,,,,,,,,,,,,,,,,,,,,,,,,,,,,,,,,,,,,,,,,,,,,,,,,,,,,,,,,,,,,,,,,,,,,,,,,,,,,,,,,,,,,,,,,,,,,,,,,,,,
,,,,,,8,0,8,0,1,X V Q F H G B L J M P D K C T S W R N Z,5f72473314afc916af99e341,25,Mężczyzna,2022-06-11_09h37.47.163,task,2021.1.4,Win32,144.1753172,6299f149e92ead563fba08ef,62a44415dc99d82adcabbfb9,,,,,,,,,,,,,,,,,,,,,,,,,,,,,,,,,,,,,,,,,,,,,,,,,,,,,,,,,,,,,,,,,,,,,,,,,,,,,,,,,,,,,,,,,,,,,,,,,,,,,
,,,,,,,,,,,,5f72473314afc916af99e341,25,Mężczyzna,2022-06-11_09h37.47.163,task,2021.1.4,Win32,144.1753172,6299f149e92ead563fba08ef,62a44415dc99d82adcabbfb9,qrscrrpg,"[""q"",""r"",""s"",""c"",""r"",""r"",""p"",""g""]","[1.647199999928489,4.690000000000055,5.14709999990464,5.393599999904723,8.083599999904663,8.27800000000002,8.605399999976157,8.841999999999985,9.034799999952384]",0,QHSCPRRXD,17,0,17,0,1,,,,,,,,,,,,,,,,,,,,,,,,,,,,,,,,,,,,,,,,,,,,,,,,,,,,,,,,,,,,,,,,,,,,,,,,,,,,,,,,,,,,,,,,,,,
,,,,,,0,0,0,0,1,X V Q F H G B L J M P D K C T S W R N Z,5f72473314afc916af99e341,25,Mężczyzna,2022-06-11_09h37.47.163,task,2021.1.4,Win32,144.1753172,6299f149e92ead563fba08ef,62a44415dc99d82adcabbfb9,,,,,,,,,,,,,,,,,,,,,,,,,,,,,,,,,,,,,,,,,,,,,,,,,,,,,,,,,,,,,,,,,,,,,,,,,,,,,,,,,,,,,,,,,,,,,,,,,,,,,
,,,,,,1,0,1,0,1,X V Q F H G B L J M P D K C T S W R N Z,5f72473314afc916af99e341,25,Mężczyzna,2022-06-11_09h37.47.163,task,2021.1.4,Win32,144.1753172,6299f149e92ead563fba08ef,62a44415dc99d82adcabbfb9,,,,,,,,,,,,,,,,,,,,,,,,,,,,,,,,,,,,,,,,,,,,,,,,,,,,,,,,,,,,,,,,,,,,,,,,,,,,,,,,,,,,,,,,,,,,,,,,,,,,,
,,,,,,2,0,2,0,1,X V Q F H G B L J M P D K C T S W R N Z,5f72473314afc916af99e341,25,Mężczyzna,2022-06-11_09h37.47.163,task,2021.1.4,Win32,144.1753172,6299f149e92ead563fba08ef,62a44415dc99d82adcabbfb9,,,,,,,,,,,,,,,,,,,,,,,,,,,,,,,,,,,,,,,,,,,,,,,,,,,,,,,,,,,,,,,,,,,,,,,,,,,,,,,,,,,,,,,,,,,,,,,,,,,,,
,,,,,,3,0,3,0,1,X V Q F H G B L J M P D K C T S W R N Z,5f72473314afc916af99e341,25,Mężczyzna,2022-06-11_09h37.47.163,task,2021.1.4,Win32,144.1753172,6299f149e92ead563fba08ef,62a44415dc99d82adcabbfb9,,,,,,,,,,,,,,,,,,,,,,,,,,,,,,,,,,,,,,,,,,,,,,,,,,,,,,,,,,,,,,,,,,,,,,,,,,,,,,,,,,,,,,,,,,,,,,,,,,,,,
,,,,,,4,0,4,0,1,X V Q F H G B L J M P D K C T S W R N Z,5f72473314afc916af99e341,25,Mężczyzna,2022-06-11_09h37.47.163,task,2021.1.4,Win32,144.1753172,6299f149e92ead563fba08ef,62a44415dc99d82adcabbfb9,,,,,,,,,,,,,,,,,,,,,,,,,,,,,,,,,,,,,,,,,,,,,,,,,,,,,,,,,,,,,,,,,,,,,,,,,,,,,,,,,,,,,,,,,,,,,,,,,,,,,
,,,,,,5,0,5,0,1,X V Q F H G B L J M P D K C T S W R N Z,5f72473314afc916af99e341,25,Mężczyzna,2022-06-11_09h37.47.163,task,2021.1.4,Win32,144.1753172,6299f149e92ead563fba08ef,62a44415dc99d82adcabbfb9,,,,,,,,,,,,,,,,,,,,,,,,,,,,,,,,,,,,,,,,,,,,,,,,,,,,,,,,,,,,,,,,,,,,,,,,,,,,,,,,,,,,,,,,,,,,,,,,,,,,,
,,,,,,6,0,6,0,1,X V Q F H G B L J M P D K C T S W R N Z,5f72473314afc916af99e341,25,Mężczyzna,2022-06-11_09h37.47.163,task,2021.1.4,Win32,144.1753172,6299f149e92ead563fba08ef,62a44415dc99d82adcabbfb9,,,,,,,,,,,,,,,,,,,,,,,,,,,,,,,,,,,,,,,,,,,,,,,,,,,,,,,,,,,,,,,,,,,,,,,,,,,,,,,,,,,,,,,,,,,,,,,,,,,,,
,,,,,,7,0,7,0,1,X V Q F H G B L J M P D K C T S W R N Z,5f72473314afc916af99e341,25,Mężczyzna,2022-06-11_09h37.47.163,task,2021.1.4,Win32,144.1753172,6299f149e92ead563fba08ef,62a44415dc99d82adcabbfb9,,,,,,,,,,,,,,,,,,,,,,,,,,,,,,,,,,,,,,,,,,,,,,,,,,,,,,,,,,,,,,,,,,,,,,,,,,,,,,,,,,,,,,,,,,,,,,,,,,,,,
,,,,,,8,0,8,0,1,X V Q F H G B L J M P D K C T S W R N Z,5f72473314afc916af99e341,25,Mężczyzna,2022-06-11_09h37.47.163,task,2021.1.4,Win32,144.1753172,6299f149e92ead563fba08ef,62a44415dc99d82adcabbfb9,,,,,,,,,,,,,,,,,,,,,,,,,,,,,,,,,,,,,,,,,,,,,,,,,,,,,,,,,,,,,,,,,,,,,,,,,,,,,,,,,,,,,,,,,,,,,,,,,,,,,
,,,,,,,,,,,,5f72473314afc916af99e341,25,Mężczyzna,2022-06-11_09h37.47.163,task,2021.1.4,Win32,144.1753172,6299f149e92ead563fba08ef,62a44415dc99d82adcabbfb9,czkdqnxn,"[""c"",""z"",""k"",""d"",""q"",""n"",""x"",""n""]","[1.3403999999761709,1.6265999999046699,2.1251999999284408,3.218499999999949,3.530499999999961,3.754599999904599,5.058699999928422,5.346799999952282,5.714799999952334]",0,CZFKDQNXN,18,0,18,0,1,,,,,,,,,,,,,,,,,,,,,,,,,,,,,,,,,,,,,,,,,,,,,,,,,,,,,,,,,,,,,,,,,,,,,,,,,,,,,,,,,,,,,,,,,,,
,,,,,,,,,,,,5f72473314afc916af99e341,25,Mężczyzna,2022-06-11_09h37.47.163,task,2021.1.4,Win32,144.1753172,6299f149e92ead563fba08ef,62a44415dc99d82adcabbfb9,,,,,,,,,,,space,5.9166,4,"[""4""]",1,[2.728100000023801],[2.728100000023801],0,0,0,4,1,Practice,5,(2x6) - 8,4,,,,,,,,,,,,,,,,,,,,,,,,,,,,,,,,,,,,,,,,,,,,,,,,,,,,,,,,,,,,,,,,,,,,,,,,,,,
,,,,,,,,,,,,5f72473314afc916af99e341,25,Mężczyzna,2022-06-11_09h37.47.163,task,2021.1.4,Win32,144.1753172,6299f149e92ead563fba08ef,62a44415dc99d82adcabbfb9,,,,,,,,,,,,,9,"[""9""]",1,[1.9297999999523654],"[2.728100000023801,1.9297999999523654]",0,1,1,9,1,Practice,10,(20/2) - 1,9,,,,,,,,,,,,,,,,,,,,,,,,,,,,,,,,,,,,,,,,,,,,,,,,,,,,,,,,,,,,,,,,,,,,,,,,,,,
,,,,,,,,,,,,5f72473314afc916af99e341,25,Mężczyzna,2022-06-11_09h37.47.163,task,2021.1.4,Win32,144.1753172,6299f149e92ead563fba08ef,62a44415dc99d82adcabbfb9,,,,,,,,,,,,,1,"[""1""]",1,[2.1927000000476937],"[2.728100000023801,1.9297999999523654,2.1927000000476937]",0,2,2,1,1,Practice,2,(4x4) - 15,1,,,,,,,,,,,,,,,,,,,,,,,,,,,,,,,,,,,,,,,,,,,,,,,,,,,,,,,,,,,,,,,,,,,,,,,,,,,
,,,,,,,,,,,,5f72473314afc916af99e341,25,Mężczyzna,2022-06-11_09h37.47.163,task,2021.1.4,Win32,144.1753172,6299f149e92ead563fba08ef,62a44415dc99d82adcabbfb9,,,,,,,,,,,,,6,"[""6""]",1,[2.258299999952328],"[2.728100000023801,1.9297999999523654,2.1927000000476937,2.258299999952328]",0,3,3,6,1,Practice,7,(25/5) + 1,6,,,,,,,,,,,,,,,,,,,,,,,,,,,,,,,,,,,,,,,,,,,,,,,,,,,,,,,,,,,,,,,,,,,,,,,,,,,
,,,,,,,,,,,,5f72473314afc916af99e341,25,Mężczyzna,2022-06-11_09h37.47.163,task,2021.1.4,Win32,144.1753172,6299f149e92ead563fba08ef,62a44415dc99d82adcabbfb9,,,,,,,,,,,,,2,"[""2""]",1,[1.3964000000953547],"[2.728100000023801,1.9297999999523654,2.1927000000476937,2.258299999952328,1.3964000000953547]",0,4,4,2,1,Practice,3,(4x4) - 14,2,,,,,,,,,,,,,,,,,,,,,,,,,,,,,,,,,,,,,,,,,,,,,,,,,,,,,,,,,,,,,,,,,,,,,,,,,,,
,,,,,,,,,,,,5f72473314afc916af99e341,25,Mężczyzna,2022-06-11_09h37.47.163,task,2021.1.4,Win32,144.1753172,6299f149e92ead563fba08ef,62a44415dc99d82adcabbfb9,,,,,,,,,,,,,0,"[""0""]",1,[1.3538000000714874],"[2.728100000023801,1.9297999999523654,2.1927000000476937,2.258299999952328,1.3964000000953547,1.3538000000714874]",0,5,5,0,1,Practice,1,(3x3) -  9,0,,,,,,,,,,,,,,,,,,,,,,,,,,,,,,,,,,,,,,,,,,,,,,,,,,,,,,,,,,,,,,,,,,,,,,,,,,,
,,,,,,,,,,,,5f72473314afc916af99e341,25,Mężczyzna,2022-06-11_09h37.47.163,task,2021.1.4,Win32,144.1753172,6299f149e92ead563fba08ef,62a44415dc99d82adcabbfb9,,,,,,,,,,,,,3,"[""3""]",1,[1.5308999999762136],"[2.728100000023801,1.9297999999523654,2.1927000000476937,2.258299999952328,1.3964000000953547,1.3538000000714874,1.5308999999762136]",0,6,6,3,1,Practice,4,(8/4) + 1,3,,,,,,,,,,,,,,,,,,,,,,,,,,,,,,,,,,,,,,,,,,,,,,,,,,,,,,,,,,,,,,,,,,,,,,,,,,,
,,,,,,,,,,,,5f72473314afc916af99e341,25,Mężczyzna,2022-06-11_09h37.47.163,task,2021.1.4,Win32,144.1753172,6299f149e92ead563fba08ef,62a44415dc99d82adcabbfb9,,,,,,,,,,,,,7,"[""7""]",1,[2.1585000000000036],"[2.728100000023801,1.9297999999523654,2.1927000000476937,2.258299999952328,1.3964000000953547,1.3538000000714874,1.5308999999762136,2.1585000000000036]",0,7,7,7,1,Practice,8,(5x5) - 18,7,,,,,,,,,,,,,,,,,,,,,,,,,,,,,,,,,,,,,,,,,,,,,,,,,,,,,,,,,,,,,,,,,,,,,,,,,,,
,,,,,,,,,,,,5f72473314afc916af99e341,25,Mężczyzna,2022-06-11_09h37.47.163,task,2021.1.4,Win32,144.1753172,6299f149e92ead563fba08ef,62a44415dc99d82adcabbfb9,,,,,,,,,,,,,8,"[""8""]",1,[1.1945000000000618],"[2.728100000023801,1.9297999999523654,2.1927000000476937,2.258299999952328,1.3964000000953547,1.3538000000714874,1.5308999999762136,2.1585000000000036,1.1945000000000618]",0,8,8,8,1,Practice,9,(3x3) - 1,8,,,,,,,,,,,,,,,,,,,,,,,,,,,,,,,,,,,,,,,,,,,,,,,,,,,,,,,,,,,,,,,,,,,,,,,,,,,
,,,,,,,,,,,,5f72473314afc916af99e341,25,Mężczyzna,2022-06-11_09h37.47.163,task,2021.1.4,Win32,144.1753172,6299f149e92ead563fba08ef,62a44415dc99d82adcabbfb9,,,,,,,,,,,,,5,"[""5""]",1,[1.6488999999761518],"[2.728100000023801,1.9297999999523654,2.1927000000476937,2.258299999952328,1.3964000000953547,1.3538000000714874,1.5308999999762136,2.1585000000000036,1.1945000000000618,1.6488999999761518]",0,9,9,5,1,Practice,6,(4/2) + 3,5,,,,,,,,,,,,,,,,,,,,,,,,,,,,,,,,,,,,,,,,,,,,,,,,,,,,,,,,,,,,,,,,,,,,,,,,,,,
,,,,,,,,,,,,5f72473314afc916af99e341,25,Mężczyzna,2022-06-11_09h37.47.163,task,2021.1.4,Win32,144.1753172,6299f149e92ead563fba08ef,62a44415dc99d82adcabbfb9,,,,,,,,,,,,,,,,,,,,,,,,,,,1,18.3919,1.226126667,5.937963696,0.629177436,2.849404452,space,45.5148,0,0,0,0,1,,,,,,,,,,,,,,,,,,,,,,,,,,,,,,,,,,,,,,,,,,,,,,,,,,,,,,,,,,,,,,
,,,,,,,,,,,,5f72473314afc916af99e341,25,Mężczyzna,2022-06-11_09h37.47.163,task,2021.1.4,Win32,144.1753172,6299f149e92ead563fba08ef,62a44415dc99d82adcabbfb9,,,,,,,,,,,,,9,,,,,,,,,,Practice,10,(20/2) - 1,9,,,,,,,,,,,,,,space,13.3207,"[""9""]",1,[2.8218999999761536],1,0,0,0,9,1,,,,,,,,,,,,,,,,,,,,,,,,,,,,,,,,,,,,,,,,,,,,,,,,,,,
,,,,,,,,,,,X V Q F H G B L J M P D K C T S W R N Z,5f72473314afc916af99e341,25,Mężczyzna,2022-06-11_09h37.47.163,task,2021.1.4,Win32,144.1753172,6299f149e92ead563fba08ef,62a44415dc99d82adcabbfb9,,,,,,,,,,,,,,,,,,,,,,,,,,,,,,,,,,,,,,,,,,,,,,,,,,,0,0,0,0,1,,,,,,,,,,,,,,,,,,,,,,,,,,,,,,,,,,,,,,,,,,,,,,
,,,,,,,,,,,,5f72473314afc916af99e341,25,Mężczyzna,2022-06-11_09h37.47.163,task,2021.1.4,Win32,144.1753172,6299f149e92ead563fba08ef,62a44415dc99d82adcabbfb9,,,,,,,,,,,,,7,,,,,,,,,,Practice,8,(5x5) - 18,7,,,,,,,,,,,,,,,,"[""7""]",1,[2.327199999928439],1,0,0,0,7,1,,,,,,,,,,,,,,,,,,,,,,,,,,,,,,,,,,,,,,,,,,,,,,,,,,,
,,,,,,,,,,,X V Q F H G B L J M P D K C T S W R N Z,5f72473314afc916af99e341,25,Mężczyzna,2022-06-11_09h37.47.163,task,2021.1.4,Win32,144.1753172,6299f149e92ead563fba08ef,62a44415dc99d82adcabbfb9,,,,,,,,,,,,,,,,,,,,,,,,,,,,,,,,,,,,,,,,,,,,,,,,,,,1,0,1,0,1,,,,,,,,,,,,,,,,,,,,,,,,,,,,,,,,,,,,,,,,,,,,,,
,,,,,,,,,,,,5f72473314afc916af99e341,25,Mężczyzna,2022-06-11_09h37.47.163,task,2021.1.4,Win32,144.1753172,6299f149e92ead563fba08ef,62a44415dc99d82adcabbfb9,,,,,,,,,,,,,,,,,,,,,,,,,,,,,,,,,,,,,,,,,,,,,,,,,,,,,,,,zq,"[""z"",""q""]",0,"[1.9532999999522644,2.263399999976059,3.474200000047631]",1,0,0,0,0,1,,,,,,,,,,,,,,,,,,,,,,,,,,,,,,,,,,,,
,,,,,,,,,,,,5f72473314afc916af99e341,25,Mężczyzna,2022-06-11_09h37.47.163,task,2021.1.4,Win32,144.1753172,6299f149e92ead563fba08ef,62a44415dc99d82adcabbfb9,,,,,,,,,,,,,1,,,,,,,,,,Practice,2,(4x4) - 15,1,,,,,,,,,,,,,,,,"[""1""]",1,[1.5684000000953802],1,0,0,0,1,1,,,,,,,,,,,,,,,,,,,,,,,,,,,,,,,,,,,,,,,,,,,,,,,,,,,
,,,,,,,,,,,X V Q F H G B L J M P D K C T S W R N Z,5f72473314afc916af99e341,25,Mężczyzna,2022-06-11_09h37.47.163,task,2021.1.4,Win32,144.1753172,6299f149e92ead563fba08ef,62a44415dc99d82adcabbfb9,,,,,,,,,,,,,,,,,,,,,,,,,,,,,,,,,,,,,,,,,,,,,,,,,,,0,0,0,0,1,,,,,,,,,,,,,,,,,,,,,,,,,,,,,,,,,,,,,,,,,,,,,,
,,,,,,,,,,,,5f72473314afc916af99e341,25,Mężczyzna,2022-06-11_09h37.47.163,task,2021.1.4,Win32,144.1753172,6299f149e92ead563fba08ef,62a44415dc99d82adcabbfb9,,,,,,,,,,,,,1,,,,,,,,,,Practice,2,(4x4) - 15,1,,,,,,,,,,,,,,,,"[""1""]",1,[1.9584999999999582],1,0,0,0,1,1,,,,,,,,,,,,,,,,,,,,,,,,,,,,,,,,,,,,,,,,,,,,,,,,,,,
,,,,,,,,,,,X V Q F H G B L J M P D K C T S W R N Z,5f72473314afc916af99e341,25,Mężczyzna,2022-06-11_09h37.47.163,task,2021.1.4,Win32,144.1753172,6299f149e92ead563fba08ef,62a44415dc99d82adcabbfb9,,,,,,,,,,,,,,,,,,,,,,,,,,,,,,,,,,,,,,,,,,,,,,,,,,,1,0,1,0,1,,,,,,,,,,,,,,,,,,,,,,,,,,,,,,,,,,,,,,,,,,,,,,
,,,,,,,,,,,,5f72473314afc916af99e341,25,Mężczyzna,2022-06-11_09h37.47.163,task,2021.1.4,Win32,144.1753172,6299f149e92ead563fba08ef,62a44415dc99d82adcabbfb9,,,,,,,,,,,,,,,,,,,,,,,,,,,,,,,,,,,,,,,,,,,,,,,,,,,,,,,,kd,"[""k"",""d""]",0,"[1.5674999999999955,2.2551000000238446,2.831299999952307]",1,1,0,1,0,1,,,,,,,,,,,,,,,,,,,,,,,,,,,,,,,,,,,,
,,,,,,,,,,,,5f72473314afc916af99e341,25,Mężczyzna,2022-06-11_09h37.47.163,task,2021.1.4,Win32,144.1753172,6299f149e92ead563fba08ef,62a44415dc99d82adcabbfb9,,,,,,,,,,,,,,,,,,,,,,,Practice,4,(8/4) + 1,3,,,,,,,,,,,,,,,,,0,,0,0,0,0,3,1,,,,,,,,,,,,,,,,,,,,,,,,,,,,,,,,,,,,,,,,,,,,,,,,,,,
,,,,,,,,,,,,5f72473314afc916af99e341,25,Mężczyzna,2022-06-11_09h37.47.163,task,2021.1.4,Win32,144.1753172,6299f149e92ead563fba08ef,62a44415dc99d82adcabbfb9,,,,,,,,,,,,,,,,,,,,,,,Practice,9,(3x3) - 1,8,,,,,,,,,,,,,,,,,0,,0,0,1,1,8,1,,,,,,,,,,,,,,,,,,,,,,,,,,,,,,,,,,,,,,,,,,,,,,,,,,,
,,,,,,,,,,,,5f72473314afc916af99e341,25,Mężczyzna,2022-06-11_09h37.47.163,task,2021.1.4,Win32,144.1753172,6299f149e92ead563fba08ef,62a44415dc99d82adcabbfb9,,,,,,,,,,,,,8,,,,,,,,,,Practice,1,(3x3) -  9,0,,,,,,,,,,,,,,,,"[""8""]",0,[1.2124999999999773],0,0,2,2,0,1,,,,,,,,,,,,,,,,,,,,,,,,,,,,,,,,,,,,,,,,,,,,,,,,,,,
,,,,,,,,,,,,5f72473314afc916af99e341,25,Mężczyzna,2022-06-11_09h37.47.163,task,2021.1.4,Win32,144.1753172,6299f149e92ead563fba08ef,62a44415dc99d82adcabbfb9,,,,,,,,,,,,,7,,,,,,,,,,Practice,8,(5x5) - 18,7,,,,,,,,,,,,,,,,"[""7""]",1,[2.000899999976127],1,0,3,3,7,1,,,,,,,,,,,,,,,,,,,,,,,,,,,,,,,,,,,,,,,,,,,,,,,,,,,
,,,,,,,,,,,X V Q F H G B L J M P D K C T S W R N Z,5f72473314afc916af99e341,25,Mężczyzna,2022-06-11_09h37.47.163,task,2021.1.4,Win32,144.1753172,6299f149e92ead563fba08ef,62a44415dc99d82adcabbfb9,,,,,,,,,,,,,,,,,,,,,,,,,,,,,,,,,,,,,,,,,,,,,,,,,,,0,0,0,0,1,,,,,,,,,,,,,,,,,,,,,,,,,,,,,,,,,,,,,,,,,,,,,,
,,,,,,,,,,,,5f72473314afc916af99e341,25,Mężczyzna,2022-06-11_09h37.47.163,task,2021.1.4,Win32,144.1753172,6299f149e92ead563fba08ef,62a44415dc99d82adcabbfb9,,,,,,,,,,,,,2,,,,,,,,,,Practice,3,(4x4) - 14,2,,,,,,,,,,,,,,,,"[""2""]",1,[1.2644999999999982],1,0,0,0,2,1,,,,,,,,,,,,,,,,,,,,,,,,,,,,,,,,,,,,,,,,,,,,,,,,,,,
,,,,,,,,,,,X V Q F H G B L J M P D K C T S W R N Z,5f72473314afc916af99e341,25,Mężczyzna,2022-06-11_09h37.47.163,task,2021.1.4,Win32,144.1753172,6299f149e92ead563fba08ef,62a44415dc99d82adcabbfb9,,,,,,,,,,,,,,,,,,,,,,,,,,,,,,,,,,,,,,,,,,,,,,,,,,,1,0,1,0,1,,,,,,,,,,,,,,,,,,,,,,,,,,,,,,,,,,,,,,,,,,,,,,
,,,,,,,,,,,,5f72473314afc916af99e341,25,Mężczyzna,2022-06-11_09h37.47.163,task,2021.1.4,Win32,144.1753172,6299f149e92ead563fba08ef,62a44415dc99d82adcabbfb9,,,,,,,,,,,,,,,,,,,,,,,,,,,,,,,,,,,,,,,,,,,,,,,,,,,,,,,,gz,"[""g"",""z""]",0,"[1.3966000000239092,1.7627000000477437,2.178799999952389]",1,2,0,2,0,1,,,,,,,,,,,,,,,,,,,,,,,,,,,,,,,,,,,,
,,,,,,,,,,,,5f72473314afc916af99e341,25,Mężczyzna,2022-06-11_09h37.47.163,task,2021.1.4,Win32,144.1753172,6299f149e92ead563fba08ef,62a44415dc99d82adcabbfb9,,,,,,,,,,,,,8,,,,,,,,,,Task,32,(8/2) + 4,8,,,,,,,,,,,,,,,,,,,1,,,,,,,,,,,,,,,,,,,,,space,13.4008,"[""8""]",1,[2.2453999999761436],0,0,0,31,1,,,,,,,,,,,,,,,,,,,,,,,,,,
,,,,,,,,,,,X V Q F H G B L J M P D K C T S W R N Z,5f72473314afc916af99e341,25,Mężczyzna,2022-06-11_09h37.47.163,task,2021.1.4,Win32,144.1753172,6299f149e92ead563fba08ef,62a44415dc99d82adcabbfb9,,,,,,,,,,,,,,,,,,,,,,,,,,,,,,,,,,,,,,,,,,,,,,,,,,,,,,,,,,,,,,,,,,,,,,,,,,,,0,0,0,0,1,,,,,,,,,,,,,,,,,,,,,
,,,,,,,,,,,,5f72473314afc916af99e341,25,Mężczyzna,2022-06-11_09h37.47.163,task,2021.1.4,Win32,144.1753172,6299f149e92ead563fba08ef,62a44415dc99d82adcabbfb9,,,,,,,,,,,,,,,,,,,,,,,Task,40,(7x2) - 5,9,,,,,,,,,,,,,,,,,,,0,,,,,,,,,,,,,,,,,,,,,,,,0,,0,0,0,39,1,,,,,,,,,,,,,,,,,,,,,,,,,,
,,,,,,,,,,,,5f72473314afc916af99e341,25,Mężczyzna,2022-06-11_09h37.47.163,task,2021.1.4,Win32,144.1753172,6299f149e92ead563fba08ef,62a44415dc99d82adcabbfb9,,,,,,,,,,,,,,,,,,,,,,,Task,13,(3x4) - 6,6,,,,,,,,,,,,,,,,,,,0,,,,,,,,,,,,,,,,,,,,,,,,0,,0,1,1,12,1,,,,,,,,,,,,,,,,,,,,,,,,,,
,,,,,,,,,,,,5f72473314afc916af99e341,25,Mężczyzna,2022-06-11_09h37.47.163,task,2021.1.4,Win32,144.1753172,6299f149e92ead563fba08ef,62a44415dc99d82adcabbfb9,,,,,,,,,,,,,3,,,,,,,,,,Task,25,(10/5) - 2,0,,,,,,,,,,,,,,,,,,,0,,,,,,,,,,,,,,,,,,,,,,,"[""3""]",0,[2.11229999995237],0,2,2,24,1,,,,,,,,,,,,,,,,,,,,,,,,,,
,,,,,,,,,,,,5f72473314afc916af99e341,25,Mężczyzna,2022-06-11_09h37.47.163,task,2021.1.4,Win32,144.1753172,6299f149e92ead563fba08ef,62a44415dc99d82adcabbfb9,,,,,,,,,,,,,4,,,,,,,,,,Task,28,(2x5) - 6,4,,,,,,,,,,,,,,,,,,,1,,,,,,,,,,,,,,,,,,,,,,,"[""4""]",1,[1.6003999999761618],0,3,3,27,1,,,,,,,,,,,,,,,,,,,,,,,,,,
,,,,,,,,,,,X V Q F H G B L J M P D K C T S W R N Z,5f72473314afc916af99e341,25,Mężczyzna,2022-06-11_09h37.47.163,task,2021.1.4,Win32,144.1753172,6299f149e92ead563fba08ef,62a44415dc99d82adcabbfb9,,,,,,,,,,,,,,,,,,,,,,,,,,,,,,,,,,,,,,,,,,,,,,,,,,,,,,,,,,,,,,,,,,,,,,,,,,,,1,0,1,0,1,,,,,,,,,,,,,,,,,,,,,
,,,,,,,,,,,,5f72473314afc916af99e341,25,Mężczyzna,2022-06-11_09h37.47.163,task,2021.1.4,Win32,144.1753172,6299f149e92ead563fba08ef,62a44415dc99d82adcabbfb9,,,,,,,,,,,,,,,,,,,,,,,,,,,,,,,,,,,,,,,,,,,,,,,,,,,,,,,,,,,,,,,,,,,,,,,,,,,,,,,,,zc,"[""z"",""c""]",0,"[1.4318999999761672,1.715899999976159,2.219299999952227]",1,ZC,0,0,0,0,1,,,,,,,,,,
,,,,,,,,,,,,5f72473314afc916af99e341,25,Mężczyzna,2022-06-11_09h37.47.163,task,2021.1.4,Win32,144.1753172,6299f149e92ead563fba08ef,62a44415dc99d82adcabbfb9,,,,,,,,,,,,,1,,,,,,,,,,Task,9,(3x7) - 20,1,,,,,,,,,,,,,,,,,,,1,,,,,,,,,,,,,,,,,,,,,,,"[""1""]",1,[1.989299999952209],0,0,0,8,1,,,,,,,,,,,,,,,,,,,,,,,,,,
,,,,,,,,,,,X V Q F H G B L J M P D K C T S W R N Z,5f72473314afc916af99e341,25,Mężczyzna,2022-06-11_09h37.47.163,task,2021.1.4,Win32,144.1753172,6299f149e92ead563fba08ef,62a44415dc99d82adcabbfb9,,,,,,,,,,,,,,,,,,,,,,,,,,,,,,,,,,,,,,,,,,,,,,,,,,,,,,,,,,,,,,,,,,,,,,,,,,,,0,0,0,0,1,,,,,,,,,,,,,,,,,,,,,
,,,,,,,,,,,,5f72473314afc916af99e341,25,Mężczyzna,2022-06-11_09h37.47.163,task,2021.1.4,Win32,144.1753172,6299f149e92ead563fba08ef,62a44415dc99d82adcabbfb9,,,,,,,,,,,,,1,,,,,,,,,,Task,37,(3/3) + 5,6,,,,,,,,,,,,,,,,,,,0,,,,,,,,,,,,,,,,,,,,,,,"[""1""]",0,[2.1268000000713982],0,0,0,36,1,,,,,,,,,,,,,,,,,,,,,,,,,,
,,,,,,,,,,,,5f72473314afc916af99e341,25,Mężczyzna,2022-06-11_09h37.47.163,task,2021.1.4,Win32,144.1753172,6299f149e92ead563fba08ef,62a44415dc99d82adcabbfb9,,,,,,,,,,,,,6,,,,,,,,,,Task,5,(2x3) + 0,6,,,,,,,,,,,,,,,,,,,1,,,,,,,,,,,,,,,,,,,,,,,"[""6""]",1,[2.37010000002374],0,1,1,4,1,,,,,,,,,,,,,,,,,,,,,,,,,,
,,,,,,,,,,,X V Q F H G B L J M P D K C T S W R N Z,5f72473314afc916af99e341,25,Mężczyzna,2022-06-11_09h37.47.163,task,2021.1.4,Win32,144.1753172,6299f149e92ead563fba08ef,62a44415dc99d82adcabbfb9,,,,,,,,,,,,,,,,,,,,,,,,,,,,,,,,,,,,,,,,,,,,,,,,,,,,,,,,,,,,,,,,,,,,,,,,,,,,1,0,1,0,1,,,,,,,,,,,,,,,,,,,,,
,,,,,,,,,,,,5f72473314afc916af99e341,25,Mężczyzna,2022-06-11_09h37.47.163,task,2021.1.4,Win32,144.1753172,6299f149e92ead563fba08ef,62a44415dc99d82adcabbfb9,,,,,,,,,,,,,8,,,,,,,,,,Task,32,(8/2) + 4,8,,,,,,,,,,,,,,,,,,,1,,,,,,,,,,,,,,,,,,,,,,,"[""8""]",1,[2.536699999928487],0,0,0,31,1,,,,,,,,,,,,,,,,,,,,,,,,,,
,,,,,,,,,,,X V Q F H G B L J M P D K C T S W R N Z,5f72473314afc916af99e341,25,Mężczyzna,2022-06-11_09h37.47.163,task,2021.1.4,Win32,144.1753172,6299f149e92ead563fba08ef,62a44415dc99d82adcabbfb9,,,,,,,,,,,,,,,,,,,,,,,,,,,,,,,,,,,,,,,,,,,,,,,,,,,,,,,,,,,,,,,,,,,,,,,,,,,,2,0,2,0,1,,,,,,,,,,,,,,,,,,,,,
,,,,,,,,,,,,5f72473314afc916af99e341,25,Mężczyzna,2022-06-11_09h37.47.163,task,2021.1.4,Win32,144.1753172,6299f149e92ead563fba08ef,62a44415dc99d82adcabbfb9,,,,,,,,,,,,,,,,,,,,,,,,,,,,,,,,,,,,,,,,,,,,,,,,,,,,,,,,,,,,,,,,,,,,,,,,,,,,,,,,,xqg,"[""x"",""q"",""g""]",0,"[2.104900000095313,2.4492000000477674,2.800900000095453,3.4098000000715274]",1,XQG,1,0,1,0,1,,,,,,,,,,
,,,,,,,,,,,,5f72473314afc916af99e341,25,Mężczyzna,2022-06-11_09h37.47.163,task,2021.1.4,Win32,144.1753172,6299f149e92ead563fba08ef,62a44415dc99d82adcabbfb9,,,,,,,,,,,,,6,,,,,,,,,,Task,37,(3/3) + 5,6,,,,,,,,,,,,,,,,,,,1,,,,,,,,,,,,,,,,,,,,,,,"[""6""]",1,[1.9498999999761963],0,0,0,36,1,,,,,,,,,,,,,,,,,,,,,,,,,,
,,,,,,,,,,,X V Q F H G B L J M P D K C T S W R N Z,5f72473314afc916af99e341,25,Mężczyzna,2022-06-11_09h37.47.163,task,2021.1.4,Win32,144.1753172,6299f149e92ead563fba08ef,62a44415dc99d82adcabbfb9,,,,,,,,,,,,,,,,,,,,,,,,,,,,,,,,,,,,,,,,,,,,,,,,,,,,,,,,,,,,,,,,,,,,,,,,,,,,0,0,0,0,1,,,,,,,,,,,,,,,,,,,,,
,,,,,,,,,,,,5f72473314afc916af99e341,25,Mężczyzna,2022-06-11_09h37.47.163,task,2021.1.4,Win32,144.1753172,6299f149e92ead563fba08ef,62a44415dc99d82adcabbfb9,,,,,,,,,,,,,,,,,,,,,,,Task,7,(3x7) - 12,9,,,,,,,,,,,,,,,,,,,0,,,,,,,,,,,,,,,,,,,,,,,,0,,0,0,0,6,1,,,,,,,,,,,,,,,,,,,,,,,,,,
,,,,,,,,,,,,5f72473314afc916af99e341,25,Mężczyzna,2022-06-11_09h37.47.163,task,2021.1.4,Win32,144.1753172,6299f149e92ead563fba08ef,62a44415dc99d82adcabbfb9,,,,,,,,,,,,,7,,,,,,,,,,Task,13,(3x4) - 6,6,,,,,,,,,,,,,,,,,,,0,,,,,,,,,,,,,,,,,,,,,,,"[""7""]",0,[2.7630999999046253],0,1,1,12,1,,,,,,,,,,,,,,,,,,,,,,,,,,
,,,,,,,,,,,,5f72473314afc916af99e341,25,Mężczyzna,2022-06-11_09h37.47.163,task,2021.1.4,Win32,144.1753172,6299f149e92ead563fba08ef,62a44415dc99d82adcabbfb9,,,,,,,,,,,,,1,,,,,,,,,,Task,9,(3x7) - 20,1,,,,,,,,,,,,,,,,,,,1,,,,,,,,,,,,,,,,,,,,,,,"[""1""]",1,[2.2056000000238782],0,2,2,8,1,,,,,,,,,,,,,,,,,,,,,,,,,,
,,,,,,,,,,,X V Q F H G B L J M P D K C T S W R N Z,5f72473314afc916af99e341,25,Mężczyzna,2022-06-11_09h37.47.163,task,2021.1.4,Win32,144.1753172,6299f149e92ead563fba08ef,62a44415dc99d82adcabbfb9,,,,,,,,,,,,,,,,,,,,,,,,,,,,,,,,,,,,,,,,,,,,,,,,,,,,,,,,,,,,,,,,,,,,,,,,,,,,1,0,1,0,1,,,,,,,,,,,,,,,,,,,,,
,,,,,,,,,,,,5f72473314afc916af99e341,25,Mężczyzna,2022-06-11_09h37.47.163,task,2021.1.4,Win32,144.1753172,6299f149e92ead563fba08ef,62a44415dc99d82adcabbfb9,,,,,,,,,,,,,2,,,,,,,,,,Task,26,(2x9) - 16,2,,,,,,,,,,,,,,,,,,,1,,,,,,,,,,,,,,,,,,,,,,,"[""2""]",1,[2.396600000023909],0,0,0,25,1,,,,,,,,,,,,,,,,,,,,,,,,,,
,,,,,,,,,,,X V Q F H G B L J M P D K C T S W R N Z,5f72473314afc916af99e341,25,Mężczyzna,2022-06-11_09h37.47.163,task,2021.1.4,Win32,144.1753172,6299f149e92ead563fba08ef,62a44415dc99d82adcabbfb9,,,,,,,,,,,,,,,,,,,,,,,,,,,,,,,,,,,,,,,,,,,,,,,,,,,,,,,,,,,,,,,,,,,,,,,,,,,,2,0,2,0,1,,,,,,,,,,,,,,,,,,,,,
,,,,,,,,,,,,5f72473314afc916af99e341,25,Mężczyzna,2022-06-11_09h37.47.163,task,2021.1.4,Win32,144.1753172,6299f149e92ead563fba08ef,62a44415dc99d82adcabbfb9,,,,,,,,,,,,,4,,,,,,,,,,Task,28,(2x5) - 6,4,,,,,,,,,,,,,,,,,,,1,,,,,,,,,,,,,,,,,,,,,,,"[""4""]",1,[1.8481999999285108],0,0,0,27,1,,,,,,,,,,,,,,,,,,,,,,,,,,
,,,,,,,,,,,X V Q F H G B L J M P D K C T S W R N Z,5f72473314afc916af99e341,25,Mężczyzna,2022-06-11_09h37.47.163,task,2021.1.4,Win32,144.1753172,6299f149e92ead563fba08ef,62a44415dc99d82adcabbfb9,,,,,,,,,,,,,,,,,,,,,,,,,,,,,,,,,,,,,,,,,,,,,,,,,,,,,,,,,,,,,,,,,,,,,,,,,,,,3,0,3,0,1,,,,,,,,,,,,,,,,,,,,,
,,,,,,,,,,,,5f72473314afc916af99e341,25,Mężczyzna,2022-06-11_09h37.47.163,task,2021.1.4,Win32,144.1753172,6299f149e92ead563fba08ef,62a44415dc99d82adcabbfb9,,,,,,,,,,,,,,,,,,,,,,,,,,,,,,,,,,,,,,,,,,,,,,,,,,,,,,,,,,,,,,,,,,,,,,,,,,,,,,,,,xwgp,"[""x"",""w"",""g"",""p""]",0,"[1.4652999999523217,2.03449999999998,2.889499999999998,3.298899999976129,3.817599999904587]",0,HWGP,2,0,2,0,1,,,,,,,,,,
,,,,,,,,,,,,5f72473314afc916af99e341,25,Mężczyzna,2022-06-11_09h37.47.163,task,2021.1.4,Win32,144.1753172,6299f149e92ead563fba08ef,62a44415dc99d82adcabbfb9,,,,,,,,,,,,,6,,,,,,,,,,Task,5,(2x3) + 0,6,,,,,,,,,,,,,,,,,,,1,,,,,,,,,,,,,,,,,,,,,,,"[""6""]",1,[2.0291000000238455],0,0,0,4,1,,,,,,,,,,,,,,,,,,,,,,,,,,
,,,,,,,,,,,X V Q F H G B L J M P D K C T S W R N Z,5f72473314afc916af99e341,25,Mężczyzna,2022-06-11_09h37.47.163,task,2021.1.4,Win32,144.1753172,6299f149e92ead563fba08ef,62a44415dc99d82adcabbfb9,,,,,,,,,,,,,,,,,,,,,,,,,,,,,,,,,,,,,,,,,,,,,,,,,,,,,,,,,,,,,,,,,,,,,,,,,,,,0,0,0,0,1,,,,,,,,,,,,,,,,,,,,,
,,,,,,,,,,,,5f72473314afc916af99e341,25,Mężczyzna,2022-06-11_09h37.47.163,task,2021.1.4,Win32,144.1753172,6299f149e92ead563fba08ef,62a44415dc99d82adcabbfb9,,,,,,,,,,,,,5,,,,,,,,,,Task,12,(4x4) - 11,5,,,,,,,,,,,,,,,,,,,1,,,,,,,,,,,,,,,,,,,,,,,"[""5""]",1,[1.6244999999998981],0,0,0,11,1,,,,,,,,,,,,,,,,,,,,,,,,,,
,,,,,,,,,,,X V Q F H G B L J M P D K C T S W R N Z,5f72473314afc916af99e341,25,Mężczyzna,2022-06-11_09h37.47.163,task,2021.1.4,Win32,144.1753172,6299f149e92ead563fba08ef,62a44415dc99d82adcabbfb9,,,,,,,,,,,,,,,,,,,,,,,,,,,,,,,,,,,,,,,,,,,,,,,,,,,,,,,,,,,,,,,,,,,,,,,,,,,,1,0,1,0,1,,,,,,,,,,,,,,,,,,,,,
,,,,,,,,,,,,5f72473314afc916af99e341,25,Mężczyzna,2022-06-11_09h37.47.163,task,2021.1.4,Win32,144.1753172,6299f149e92ead563fba08ef,62a44415dc99d82adcabbfb9,,,,,,,,,,,,,8,,,,,,,,,,Task,23,(2x3) + 2,8,,,,,,,,,,,,,,,,,,,1,,,,,,,,,,,,,,,,,,,,,,,"[""8""]",1,[1.7082000000475546],0,0,0,22,1,,,,,,,,,,,,,,,,,,,,,,,,,,
,,,,,,,,,,,X V Q F H G B L J M P D K C T S W R N Z,5f72473314afc916af99e341,25,Mężczyzna,2022-06-11_09h37.47.163,task,2021.1.4,Win32,144.1753172,6299f149e92ead563fba08ef,62a44415dc99d82adcabbfb9,,,,,,,,,,,,,,,,,,,,,,,,,,,,,,,,,,,,,,,,,,,,,,,,,,,,,,,,,,,,,,,,,,,,,,,,,,,,2,0,2,0,1,,,,,,,,,,,,,,,,,,,,,
,,,,,,,,,,,,5f72473314afc916af99e341,25,Mężczyzna,2022-06-11_09h37.47.163,task,2021.1.4,Win32,144.1753172,6299f149e92ead563fba08ef,62a44415dc99d82adcabbfb9,,,,,,,,,,,,,4,,,,,,,,,,Task,28,(2x5) - 6,4,,,,,,,,,,,,,,,,,,,1,,,,,,,,,,,,,,,,,,,,,,,"[""4""]",1,[1.3466999999284326],0,0,0,27,1,,,,,,,,,,,,,,,,,,,,,,,,,,
,,,,,,,,,,,X V Q F H G B L J M P D K C T S W R N Z,5f72473314afc916af99e341,25,Mężczyzna,2022-06-11_09h37.47.163,task,2021.1.4,Win32,144.1753172,6299f149e92ead563fba08ef,62a44415dc99d82adcabbfb9,,,,,,,,,,,,,,,,,,,,,,,,,,,,,,,,,,,,,,,,,,,,,,,,,,,,,,,,,,,,,,,,,,,,,,,,,,,,3,0,3,0,1,,,,,,,,,,,,,,,,,,,,,
,,,,,,,,,,,,5f72473314afc916af99e341,25,Mężczyzna,2022-06-11_09h37.47.163,task,2021.1.4,Win32,144.1753172,6299f149e92ead563fba08ef,62a44415dc99d82adcabbfb9,,,,,,,,,,,,,,,,,,,,,,,,,,,,,,,,,,,,,,,,,,,,,,,,,,,,,,,,,,,,,,,,,,,,,,,,,,,,,,,,,sgjt,"[""s"",""g"",""j"",""t""]",0,"[1.3197000000477601,1.632100000023911,1.9194000000952656,2.2236000000239073,2.5914999999999964]",1,SGJT,3,0,3,0,1,,,,,,,,,,
,,,,,,,,,,,,5f72473314afc916af99e341,25,Mężczyzna,2022-06-11_09h37.47.163,task,2021.1.4,Win32,144.1753172,6299f149e92ead563fba08ef,62a44415dc99d82adcabbfb9,,,,,,,,,,,,,9,,,,,,,,,,Task,40,(7x2) - 5,9,,,,,,,,,,,,,,,,,,,1,,,,,,,,,,,,,,,,,,,,,,,"[""9""]",1,[2.041100000023789],0,0,0,39,1,,,,,,,,,,,,,,,,,,,,,,,,,,
,,,,,,,,,,,X V Q F H G B L J M P D K C T S W R N Z,5f72473314afc916af99e341,25,Mężczyzna,2022-06-11_09h37.47.163,task,2021.1.4,Win32,144.1753172,6299f149e92ead563fba08ef,62a44415dc99d82adcabbfb9,,,,,,,,,,,,,,,,,,,,,,,,,,,,,,,,,,,,,,,,,,,,,,,,,,,,,,,,,,,,,,,,,,,,,,,,,,,,0,0,0,0,1,,,,,,,,,,,,,,,,,,,,,
,,,,,,,,,,,,5f72473314afc916af99e341,25,Mężczyzna,2022-06-11_09h37.47.163,task,2021.1.4,Win32,144.1753172,6299f149e92ead563fba08ef,62a44415dc99d82adcabbfb9,,,,,,,,,,,,,1,,,,,,,,,,Task,1,(12/6) - 1,1,,,,,,,,,,,,,,,,,,,1,,,,,,,,,,,,,,,,,,,,,,,"[""1""]",1,[2.6080999999046526],0,0,0,0,1,,,,,,,,,,,,,,,,,,,,,,,,,,
,,,,,,,,,,,X V Q F H G B L J M P D K C T S W R N Z,5f72473314afc916af99e341,25,Mężczyzna,2022-06-11_09h37.47.163,task,2021.1.4,Win32,144.1753172,6299f149e92ead563fba08ef,62a44415dc99d82adcabbfb9,,,,,,,,,,,,,,,,,,,,,,,,,,,,,,,,,,,,,,,,,,,,,,,,,,,,,,,,,,,,,,,,,,,,,,,,,,,,1,0,1,0,1,,,,,,,,,,,,,,,,,,,,,
,,,,,,,,,,,,5f72473314afc916af99e341,25,Mężczyzna,2022-06-11_09h37.47.163,task,2021.1.4,Win32,144.1753172,6299f149e92ead563fba08ef,62a44415dc99d82adcabbfb9,,,,,,,,,,,,,5,,,,,,,,,,Task,22,(3x1) + 2,5,,,,,,,,,,,,,,,,,,,1,,,,,,,,,,,,,,,,,,,,,,,"[""5""]",1,[1.7895000000000891],0,0,0,21,1,,,,,,,,,,,,,,,,,,,,,,,,,,
,,,,,,,,,,,X V Q F H G B L J M P D K C T S W R N Z,5f72473314afc916af99e341,25,Mężczyzna,2022-06-11_09h37.47.163,task,2021.1.4,Win32,144.1753172,6299f149e92ead563fba08ef,62a44415dc99d82adcabbfb9,,,,,,,,,,,,,,,,,,,,,,,,,,,,,,,,,,,,,,,,,,,,,,,,,,,,,,,,,,,,,,,,,,,,,,,,,,,,2,0,2,0,1,,,,,,,,,,,,,,,,,,,,,
,,,,,,,,,,,,5f72473314afc916af99e341,25,Mężczyzna,2022-06-11_09h37.47.163,task,2021.1.4,Win32,144.1753172,6299f149e92ead563fba08ef,62a44415dc99d82adcabbfb9,,,,,,,,,,,,,4,,,,,,,,,,Task,4,(1x5) - 1,4,,,,,,,,,,,,,,,,,,,1,,,,,,,,,,,,,,,,,,,,,,,"[""4""]",1,[1.7183000000713946],0,0,0,3,1,,,,,,,,,,,,,,,,,,,,,,,,,,
,,,,,,,,,,,X V Q F H G B L J M P D K C T S W R N Z,5f72473314afc916af99e341,25,Mężczyzna,2022-06-11_09h37.47.163,task,2021.1.4,Win32,144.1753172,6299f149e92ead563fba08ef,62a44415dc99d82adcabbfb9,,,,,,,,,,,,,,,,,,,,,,,,,,,,,,,,,,,,,,,,,,,,,,,,,,,,,,,,,,,,,,,,,,,,,,,,,,,,3,0,3,0,1,,,,,,,,,,,,,,,,,,,,,
,,,,,,,,,,,,5f72473314afc916af99e341,25,Mężczyzna,2022-06-11_09h37.47.163,task,2021.1.4,Win32,144.1753172,6299f149e92ead563fba08ef,62a44415dc99d82adcabbfb9,,,,,,,,,,,,,7,,,,,,,,,,Task,6,(12/2) + 1,7,,,,,,,,,,,,,,,,,,,1,,,,,,,,,,,,,,,,,,,,,,,"[""7""]",1,[2.3336000000238073],0,0,0,5,1,,,,,,,,,,,,,,,,,,,,,,,,,,
,,,,,,,,,,,X V Q F H G B L J M P D K C T S W R N Z,5f72473314afc916af99e341,25,Mężczyzna,2022-06-11_09h37.47.163,task,2021.1.4,Win32,144.1753172,6299f149e92ead563fba08ef,62a44415dc99d82adcabbfb9,,,,,,,,,,,,,,,,,,,,,,,,,,,,,,,,,,,,,,,,,,,,,,,,,,,,,,,,,,,,,,,,,,,,,,,,,,,,4,0,4,0,1,,,,,,,,,,,,,,,,,,,,,
,,,,,,,,,,,,5f72473314afc916af99e341,25,Mężczyzna,2022-06-11_09h37.47.163,task,2021.1.4,Win32,144.1753172,6299f149e92ead563fba08ef,62a44415dc99d82adcabbfb9,,,,,,,,,,,,,,,,,,,,,,,,,,,,,,,,,,,,,,,,,,,,,,,,,,,,,,,,,,,,,,,,,,,,,,,,,,,,,,,,,lkfzm,"[""l"",""k"",""f"",""z"",""m""]",0,"[1.362900000095351,1.6254000000953965,1.9377000000476983,2.298100000023851,2.5143000000714437,3.313400000095271]",1,LKFZM,4,0,4,0,1,,,,,,,,,,
,,,,,,,,,,,,5f72473314afc916af99e341,25,Mężczyzna,2022-06-11_09h37.47.163,task,2021.1.4,Win32,144.1753172,6299f149e92ead563fba08ef,62a44415dc99d82adcabbfb9,,,,,,,,,,,,,5,,,,,,,,,,Task,36,(8/4) + 3,5,,,,,,,,,,,,,,,,,,,1,,,,,,,,,,,,,,,,,,,,,,,"[""5""]",1,[1.4851999999284544],0,0,0,35,1,,,,,,,,,,,,,,,,,,,,,,,,,,
,,,,,,,,,,,X V Q F H G B L J M P D K C T S W R N Z,5f72473314afc916af99e341,25,Mężczyzna,2022-06-11_09h37.47.163,task,2021.1.4,Win32,144.1753172,6299f149e92ead563fba08ef,62a44415dc99d82adcabbfb9,,,,,,,,,,,,,,,,,,,,,,,,,,,,,,,,,,,,,,,,,,,,,,,,,,,,,,,,,,,,,,,,,,,,,,,,,,,,0,0,0,0,1,,,,,,,,,,,,,,,,,,,,,
,,,,,,,,,,,,5f72473314afc916af99e341,25,Mężczyzna,2022-06-11_09h37.47.163,task,2021.1.4,Win32,144.1753172,6299f149e92ead563fba08ef,62a44415dc99d82adcabbfb9,,,,,,,,,,,,,9,,,,,,,,,,Task,7,(3x7) - 12,9,,,,,,,,,,,,,,,,,,,1,,,,,,,,,,,,,,,,,,,,,,,"[""9""]",1,[2.294499999999971],0,0,0,6,1,,,,,,,,,,,,,,,,,,,,,,,,,,
,,,,,,,,,,,X V Q F H G B L J M P D K C T S W R N Z,5f72473314afc916af99e341,25,Mężczyzna,2022-06-11_09h37.47.163,task,2021.1.4,Win32,144.1753172,6299f149e92ead563fba08ef,62a44415dc99d82adcabbfb9,,,,,,,,,,,,,,,,,,,,,,,,,,,,,,,,,,,,,,,,,,,,,,,,,,,,,,,,,,,,,,,,,,,,,,,,,,,,1,0,1,0,1,,,,,,,,,,,,,,,,,,,,,
,,,,,,,,,,,,5f72473314afc916af99e341,25,Mężczyzna,2022-06-11_09h37.47.163,task,2021.1.4,Win32,144.1753172,6299f149e92ead563fba08ef,62a44415dc99d82adcabbfb9,,,,,,,,,,,,,3,,,,,,,,,,Task,27,(3/3) + 2,3,,,,,,,,,,,,,,,,,,,1,,,,,,,,,,,,,,,,,,,,,,,"[""3""]",1,[1.6668999999760672],0,0,0,26,1,,,,,,,,,,,,,,,,,,,,,,,,,,
,,,,,,,,,,,X V Q F H G B L J M P D K C T S W R N Z,5f72473314afc916af99e341,25,Mężczyzna,2022-06-11_09h37.47.163,task,2021.1.4,Win32,144.1753172,6299f149e92ead563fba08ef,62a44415dc99d82adcabbfb9,,,,,,,,,,,,,,,,,,,,,,,,,,,,,,,,,,,,,,,,,,,,,,,,,,,,,,,,,,,,,,,,,,,,,,,,,,,,2,0,2,0,1,,,,,,,,,,,,,,,,,,,,,
,,,,,,,,,,,,5f72473314afc916af99e341,25,Mężczyzna,2022-06-11_09h37.47.163,task,2021.1.4,Win32,144.1753172,6299f149e92ead563fba08ef,62a44415dc99d82adcabbfb9,,,,,,,,,,,,,5,,,,,,,,,,Task,22,(3x1) + 2,5,,,,,,,,,,,,,,,,,,,1,,,,,,,,,,,,,,,,,,,,,,,"[""5""]",1,[1.3222999999522926],0,0,0,21,1,,,,,,,,,,,,,,,,,,,,,,,,,,
,,,,,,,,,,,X V Q F H G B L J M P D K C T S W R N Z,5f72473314afc916af99e341,25,Mężczyzna,2022-06-11_09h37.47.163,task,2021.1.4,Win32,144.1753172,6299f149e92ead563fba08ef,62a44415dc99d82adcabbfb9,,,,,,,,,,,,,,,,,,,,,,,,,,,,,,,,,,,,,,,,,,,,,,,,,,,,,,,,,,,,,,,,,,,,,,,,,,,,3,0,3,0,1,,,,,,,,,,,,,,,,,,,,,
,,,,,,,,,,,,5f72473314afc916af99e341,25,Mężczyzna,2022-06-11_09h37.47.163,task,2021.1.4,Win32,144.1753172,6299f149e92ead563fba08ef,62a44415dc99d82adcabbfb9,,,,,,,,,,,,,6,,,,,,,,,,Task,13,(3x4) - 6,6,,,,,,,,,,,,,,,,,,,1,,,,,,,,,,,,,,,,,,,,,,,"[""6""]",1,[2.0271000000236654],0,0,0,12,1,,,,,,,,,,,,,,,,,,,,,,,,,,
,,,,,,,,,,,X V Q F H G B L J M P D K C T S W R N Z,5f72473314afc916af99e341,25,Mężczyzna,2022-06-11_09h37.47.163,task,2021.1.4,Win32,144.1753172,6299f149e92ead563fba08ef,62a44415dc99d82adcabbfb9,,,,,,,,,,,,,,,,,,,,,,,,,,,,,,,,,,,,,,,,,,,,,,,,,,,,,,,,,,,,,,,,,,,,,,,,,,,,4,0,4,0,1,,,,,,,,,,,,,,,,,,,,,
,,,,,,,,,,,,5f72473314afc916af99e341,25,Mężczyzna,2022-06-11_09h37.47.163,task,2021.1.4,Win32,144.1753172,6299f149e92ead563fba08ef,62a44415dc99d82adcabbfb9,,,,,,,,,,,,,1,,,,,,,,,,Task,9,(3x7) - 20,1,,,,,,,,,,,,,,,,,,,1,,,,,,,,,,,,,,,,,,,,,,,"[""1""]",1,[1.7204999999999018],0,0,0,8,1,,,,,,,,,,,,,,,,,,,,,,,,,,
,,,,,,,,,,,X V Q F H G B L J M P D K C T S W R N Z,5f72473314afc916af99e341,25,Mężczyzna,2022-06-11_09h37.47.163,task,2021.1.4,Win32,144.1753172,6299f149e92ead563fba08ef,62a44415dc99d82adcabbfb9,,,,,,,,,,,,,,,,,,,,,,,,,,,,,,,,,,,,,,,,,,,,,,,,,,,,,,,,,,,,,,,,,,,,,,,,,,,,5,0,5,0,1,,,,,,,,,,,,,,,,,,,,,
,,,,,,,,,,,,5f72473314afc916af99e341,25,Mężczyzna,2022-06-11_09h37.47.163,task,2021.1.4,Win32,144.1753172,6299f149e92ead563fba08ef,62a44415dc99d82adcabbfb9,,,,,,,,,,,,,,,,,,,,,,,,,,,,,,,,,,,,,,,,,,,,,,,,,,,,,,,,,,,,,,,,,,,,,,,,,,,,,,,,,cplrrr,"[""c"",""p"",""l"",""r"",""r"",""r""]",0,"[1.2625000000000455,1.5353999999761072,1.8546000000237655,2.2546000000238564,2.542500000000018,2.8386000000239164,3.502700000047753]",1,CPLRRR,5,0,5,0,1,,,,,,,,,,
,,,,,,,,,,,,5f72473314afc916af99e341,25,Mężczyzna,2022-06-11_09h37.47.163,task,2021.1.4,Win32,144.1753172,6299f149e92ead563fba08ef,62a44415dc99d82adcabbfb9,,,,,,,,,,,,,9,,,,,,,,,,Task,24,(2x2) + 5,9,,,,,,,,,,,,,,,,,,,1,,,,,,,,,,,,,,,,,,,,,,,"[""9""]",1,[1.866799999952491],0,0,0,23,1,,,,,,,,,,,,,,,,,,,,,,,,,,
,,,,,,,,,,,X V Q F H G B L J M P D K C T S W R N Z,5f72473314afc916af99e341,25,Mężczyzna,2022-06-11_09h37.47.163,task,2021.1.4,Win32,144.1753172,6299f149e92ead563fba08ef,62a44415dc99d82adcabbfb9,,,,,,,,,,,,,,,,,,,,,,,,,,,,,,,,,,,,,,,,,,,,,,,,,,,,,,,,,,,,,,,,,,,,,,,,,,,,0,0,0,0,1,,,,,,,,,,,,,,,,,,,,,
,,,,,,,,,,,,5f72473314afc916af99e341,25,Mężczyzna,2022-06-11_09h37.47.163,task,2021.1.4,Win32,144.1753172,6299f149e92ead563fba08ef,62a44415dc99d82adcabbfb9,,,,,,,,,,,,,3,,,,,,,,,,Task,27,(3/3) + 2,3,,,,,,,,,,,,,,,,,,,1,,,,,,,,,,,,,,,,,,,,,,,"[""3""]",1,[1.7497999999523017],0,0,0,26,1,,,,,,,,,,,,,,,,,,,,,,,,,,
,,,,,,,,,,,X V Q F H G B L J M P D K C T S W R N Z,5f72473314afc916af99e341,25,Mężczyzna,2022-06-11_09h37.47.163,task,2021.1.4,Win32,144.1753172,6299f149e92ead563fba08ef,62a44415dc99d82adcabbfb9,,,,,,,,,,,,,,,,,,,,,,,,,,,,,,,,,,,,,,,,,,,,,,,,,,,,,,,,,,,,,,,,,,,,,,,,,,,,1,0,1,0,1,,,,,,,,,,,,,,,,,,,,,
,,,,,,,,,,,,5f72473314afc916af99e341,25,Mężczyzna,2022-06-11_09h37.47.163,task,2021.1.4,Win32,144.1753172,6299f149e92ead563fba08ef,62a44415dc99d82adcabbfb9,,,,,,,,,,,,,5,,,,,,,,,,Task,22,(3x1) + 2,5,,,,,,,,,,,,,,,,,,,1,,,,,,,,,,,,,,,,,,,,,,,"[""5""]",1,[1.5861000000238619],0,0,0,21,1,,,,,,,,,,,,,,,,,,,,,,,,,,
,,,,,,,,,,,X V Q F H G B L J M P D K C T S W R N Z,5f72473314afc916af99e341,25,Mężczyzna,2022-06-11_09h37.47.163,task,2021.1.4,Win32,144.1753172,6299f149e92ead563fba08ef,62a44415dc99d82adcabbfb9,,,,,,,,,,,,,,,,,,,,,,,,,,,,,,,,,,,,,,,,,,,,,,,,,,,,,,,,,,,,,,,,,,,,,,,,,,,,2,0,2,0,1,,,,,,,,,,,,,,,,,,,,,
,,,,,,,,,,,,5f72473314afc916af99e341,25,Mężczyzna,2022-06-11_09h37.47.163,task,2021.1.4,Win32,144.1753172,6299f149e92ead563fba08ef,62a44415dc99d82adcabbfb9,,,,,,,,,,,,,1,,,,,,,,,,Task,25,(10/5) - 2,0,,,,,,,,,,,,,,,,,,,0,,,,,,,,,,,,,,,,,,,,,,,"[""1""]",0,[2.08849999999984],0,0,0,24,1,,,,,,,,,,,,,,,,,,,,,,,,,,
,,,,,,,,,,,,5f72473314afc916af99e341,25,Mężczyzna,2022-06-11_09h37.47.163,task,2021.1.4,Win32,144.1753172,6299f149e92ead563fba08ef,62a44415dc99d82adcabbfb9,,,,,,,,,,,,,7,,,,,,,,,,Task,6,(12/2) + 1,7,,,,,,,,,,,,,,,,,,,1,,,,,,,,,,,,,,,,,,,,,,,"[""7""]",1,[2.2238999999760836],0,1,1,5,1,,,,,,,,,,,,,,,,,,,,,,,,,,
,,,,,,,,,,,X V Q F H G B L J M P D K C T S W R N Z,5f72473314afc916af99e341,25,Mężczyzna,2022-06-11_09h37.47.163,task,2021.1.4,Win32,144.1753172,6299f149e92ead563fba08ef,62a44415dc99d82adcabbfb9,,,,,,,,,,,,,,,,,,,,,,,,,,,,,,,,,,,,,,,,,,,,,,,,,,,,,,,,,,,,,,,,,,,,,,,,,,,,3,0,3,0,1,,,,,,,,,,,,,,,,,,,,,
,,,,,,,,,,,,5f72473314afc916af99e341,25,Mężczyzna,2022-06-11_09h37.47.163,task,2021.1.4,Win32,144.1753172,6299f149e92ead563fba08ef,62a44415dc99d82adcabbfb9,,,,,,,,,,,,,4,,,,,,,,,,Task,28,(2x5) - 6,4,,,,,,,,,,,,,,,,,,,1,,,,,,,,,,,,,,,,,,,,,,,"[""4""]",1,[2.102800000071511],0,0,0,27,1,,,,,,,,,,,,,,,,,,,,,,,,,,
,,,,,,,,,,,X V Q F H G B L J M P D K C T S W R N Z,5f72473314afc916af99e341,25,Mężczyzna,2022-06-11_09h37.47.163,task,2021.1.4,Win32,144.1753172,6299f149e92ead563fba08ef,62a44415dc99d82adcabbfb9,,,,,,,,,,,,,,,,,,,,,,,,,,,,,,,,,,,,,,,,,,,,,,,,,,,,,,,,,,,,,,,,,,,,,,,,,,,,4,0,4,0,1,,,,,,,,,,,,,,,,,,,,,
,,,,,,,,,,,,5f72473314afc916af99e341,25,Mężczyzna,2022-06-11_09h37.47.163,task,2021.1.4,Win32,144.1753172,6299f149e92ead563fba08ef,62a44415dc99d82adcabbfb9,,,,,,,,,,,,,1,,,,,,,,,,Task,1,(12/6) - 1,1,,,,,,,,,,,,,,,,,,,1,,,,,,,,,,,,,,,,,,,,,,,"[""1""]",1,[1.8065999999046198],0,0,0,0,1,,,,,,,,,,,,,,,,,,,,,,,,,,
,,,,,,,,,,,X V Q F H G B L J M P D K C T S W R N Z,5f72473314afc916af99e341,25,Mężczyzna,2022-06-11_09h37.47.163,task,2021.1.4,Win32,144.1753172,6299f149e92ead563fba08ef,62a44415dc99d82adcabbfb9,,,,,,,,,,,,,,,,,,,,,,,,,,,,,,,,,,,,,,,,,,,,,,,,,,,,,,,,,,,,,,,,,,,,,,,,,,,,5,0,5,0,1,,,,,,,,,,,,,,,,,,,,,
,,,,,,,,,,,,5f72473314afc916af99e341,25,Mężczyzna,2022-06-11_09h37.47.163,task,2021.1.4,Win32,144.1753172,6299f149e92ead563fba08ef,62a44415dc99d82adcabbfb9,,,,,,,,,,,,,3,,,,,,,,,,Task,6,(12/2) + 1,7,,,,,,,,,,,,,,,,,,,0,,,,,,,,,,,,,,,,,,,,,,,"[""3""]",0,[2.1662999999523436],0,0,0,5,1,,,,,,,,,,,,,,,,,,,,,,,,,,
,,,,,,,,,,,,5f72473314afc916af99e341,25,Mężczyzna,2022-06-11_09h37.47.163,task,2021.1.4,Win32,144.1753172,6299f149e92ead563fba08ef,62a44415dc99d82adcabbfb9,,,,,,,,,,,,,,,,,,,,,,,Task,40,(7x2) - 5,9,,,,,,,,,,,,,,,,,,,0,,,,,,,,,,,,,,,,,,,,,,,,0,,0,1,1,39,1,,,,,,,,,,,,,,,,,,,,,,,,,,
,,,,,,,,,,,,5f72473314afc916af99e341,25,Mężczyzna,2022-06-11_09h37.47.163,task,2021.1.4,Win32,144.1753172,6299f149e92ead563fba08ef,62a44415dc99d82adcabbfb9,,,,,,,,,,,,,0,,,,,,,,,,Task,17,(2x3) - 6,0,,,,,,,,,,,,,,,,,,,1,,,,,,,,,,,,,,,,,,,,,,,"[""0""]",1,[1.4853999999761527],0,2,2,16,1,,,,,,,,,,,,,,,,,,,,,,,,,,
,,,,,,,,,,,X V Q F H G B L J M P D K C T S W R N Z,5f72473314afc916af99e341,25,Mężczyzna,2022-06-11_09h37.47.163,task,2021.1.4,Win32,144.1753172,6299f149e92ead563fba08ef,62a44415dc99d82adcabbfb9,,,,,,,,,,,,,,,,,,,,,,,,,,,,,,,,,,,,,,,,,,,,,,,,,,,,,,,,,,,,,,,,,,,,,,,,,,,,6,0,6,0,1,,,,,,,,,,,,,,,,,,,,,
,,,,,,,,,,,,5f72473314afc916af99e341,25,Mężczyzna,2022-06-11_09h37.47.163,task,2021.1.4,Win32,144.1753172,6299f149e92ead563fba08ef,62a44415dc99d82adcabbfb9,,,,,,,,,,,,,,,,,,,,,,,,,,,,,,,,,,,,,,,,,,,,,,,,,,,,,,,,,,,,,,,,,,,,,,,,,,,,,,,,,hqkcww,"[""h"",""q"",""k"",""c"",""w"",""w""]",0,"[1.6462000000476564,2.1181000000240147,3.9982000000477456,4.294200000047795,4.8702000000478165,7.662700000047835,8.046600000024]",0,HQKCWWQ,6,0,6,0,1,,,,,,,,,,
,,,,,,,,,,,,5f72473314afc916af99e341,25,Mężczyzna,2022-06-11_09h37.47.163,task,2021.1.4,Win32,144.1753172,6299f149e92ead563fba08ef,62a44415dc99d82adcabbfb9,,,,,,,,,,,,,8,,,,,,,,,,Task,15,(3x7) - 13,8,,,,,,,,,,,,,,,,,,,1,,,,,,,,,,,,,,,,,,,,,,,"[""8""]",1,[2.619299999952318],0,0,0,14,1,,,,,,,,,,,,,,,,,,,,,,,,,,
,,,,,,,,,,,X V Q F H G B L J M P D K C T S W R N Z,5f72473314afc916af99e341,25,Mężczyzna,2022-06-11_09h37.47.163,task,2021.1.4,Win32,144.1753172,6299f149e92ead563fba08ef,62a44415dc99d82adcabbfb9,,,,,,,,,,,,,,,,,,,,,,,,,,,,,,,,,,,,,,,,,,,,,,,,,,,,,,,,,,,,,,,,,,,,,,,,,,,,0,0,0,0,1,,,,,,,,,,,,,,,,,,,,,
,,,,,,,,,,,,5f72473314afc916af99e341,25,Mężczyzna,2022-06-11_09h37.47.163,task,2021.1.4,Win32,144.1753172,6299f149e92ead563fba08ef,62a44415dc99d82adcabbfb9,,,,,,,,,,,,,5,,,,,,,,,,Task,22,(3x1) + 2,5,,,,,,,,,,,,,,,,,,,1,,,,,,,,,,,,,,,,,,,,,,,"[""5""]",1,[2.2187000000476473],0,0,0,21,1,,,,,,,,,,,,,,,,,,,,,,,,,,
,,,,,,,,,,,X V Q F H G B L J M P D K C T S W R N Z,5f72473314afc916af99e341,25,Mężczyzna,2022-06-11_09h37.47.163,task,2021.1.4,Win32,144.1753172,6299f149e92ead563fba08ef,62a44415dc99d82adcabbfb9,,,,,,,,,,,,,,,,,,,,,,,,,,,,,,,,,,,,,,,,,,,,,,,,,,,,,,,,,,,,,,,,,,,,,,,,,,,,1,0,1,0,1,,,,,,,,,,,,,,,,,,,,,
,,,,,,,,,,,,5f72473314afc916af99e341,25,Mężczyzna,2022-06-11_09h37.47.163,task,2021.1.4,Win32,144.1753172,6299f149e92ead563fba08ef,62a44415dc99d82adcabbfb9,,,,,,,,,,,,,5,,,,,,,,,,Task,12,(4x4) - 11,5,,,,,,,,,,,,,,,,,,,1,,,,,,,,,,,,,,,,,,,,,,,"[""5""]",1,[1.569799999952238],0,0,0,11,1,,,,,,,,,,,,,,,,,,,,,,,,,,
,,,,,,,,,,,X V Q F H G B L J M P D K C T S W R N Z,5f72473314afc916af99e341,25,Mężczyzna,2022-06-11_09h37.47.163,task,2021.1.4,Win32,144.1753172,6299f149e92ead563fba08ef,62a44415dc99d82adcabbfb9,,,,,,,,,,,,,,,,,,,,,,,,,,,,,,,,,,,,,,,,,,,,,,,,,,,,,,,,,,,,,,,,,,,,,,,,,,,,2,0,2,0,1,,,,,,,,,,,,,,,,,,,,,
,,,,,,,,,,,,5f72473314afc916af99e341,25,Mężczyzna,2022-06-11_09h37.47.163,task,2021.1.4,Win32,144.1753172,6299f149e92ead563fba08ef,62a44415dc99d82adcabbfb9,,,,,,,,,,,,,1,,,,,,,,,,Task,9,(3x7) - 20,1,,,,,,,,,,,,,,,,,,,1,,,,,,,,,,,,,,,,,,,,,,,"[""1""]",1,[1.2841000000237273],0,0,0,8,1,,,,,,,,,,,,,,,,,,,,,,,,,,
,,,,,,,,,,,X V Q F H G B L J M P D K C T S W R N Z,5f72473314afc916af99e341,25,Mężczyzna,2022-06-11_09h37.47.163,task,2021.1.4,Win32,144.1753172,6299f149e92ead563fba08ef,62a44415dc99d82adcabbfb9,,,,,,,,,,,,,,,,,,,,,,,,,,,,,,,,,,,,,,,,,,,,,,,,,,,,,,,,,,,,,,,,,,,,,,,,,,,,3,0,3,0,1,,,,,,,,,,,,,,,,,,,,,
,,,,,,,,,,,,5f72473314afc916af99e341,25,Mężczyzna,2022-06-11_09h37.47.163,task,2021.1.4,Win32,144.1753172,6299f149e92ead563fba08ef,62a44415dc99d82adcabbfb9,,,,,,,,,,,,,,,,,,,,,,,Task,25,(10/5) - 2,0,,,,,,,,,,,,,,,,,,,0,,,,,,,,,,,,,,,,,,,,,,,,0,,0,0,0,24,1,,,,,,,,,,,,,,,,,,,,,,,,,,
,,,,,,,,,,,,5f72473314afc916af99e341,25,Mężczyzna,2022-06-11_09h37.47.163,task,2021.1.4,Win32,144.1753172,6299f149e92ead563fba08ef,62a44415dc99d82adcabbfb9,,,,,,,,,,,,,5,,,,,,,,,,Task,36,(8/4) + 3,5,,,,,,,,,,,,,,,,,,,1,,,,,,,,,,,,,,,,,,,,,,,"[""5""]",1,[1.9002999999522672],0,1,1,35,1,,,,,,,,,,,,,,,,,,,,,,,,,,
,,,,,,,,,,,X V Q F H G B L J M P D K C T S W R N Z,5f72473314afc916af99e341,25,Mężczyzna,2022-06-11_09h37.47.163,task,2021.1.4,Win32,144.1753172,6299f149e92ead563fba08ef,62a44415dc99d82adcabbfb9,,,,,,,,,,,,,,,,,,,,,,,,,,,,,,,,,,,,,,,,,,,,,,,,,,,,,,,,,,,,,,,,,,,,,,,,,,,,4,0,4,0,1,,,,,,,,,,,,,,,,,,,,,
,,,,,,,,,,,,5f72473314afc916af99e341,25,Mężczyzna,2022-06-11_09h37.47.163,task,2021.1.4,Win32,144.1753172,6299f149e92ead563fba08ef,62a44415dc99d82adcabbfb9,,,,,,,,,,,,,8,,,,,,,,,,Task,39,(5x3) - 7,8,,,,,,,,,,,,,,,,,,,1,,,,,,,,,,,,,,,,,,,,,,,"[""8""]",1,[2.2216000000237273],0,0,0,38,1,,,,,,,,,,,,,,,,,,,,,,,,,,
,,,,,,,,,,,X V Q F H G B L J M P D K C T S W R N Z,5f72473314afc916af99e341,25,Mężczyzna,2022-06-11_09h37.47.163,task,2021.1.4,Win32,144.1753172,6299f149e92ead563fba08ef,62a44415dc99d82adcabbfb9,,,,,,,,,,,,,,,,,,,,,,,,,,,,,,,,,,,,,,,,,,,,,,,,,,,,,,,,,,,,,,,,,,,,,,,,,,,,5,0,5,0,1,,,,,,,,,,,,,,,,,,,,,
,,,,,,,,,,,,5f72473314afc916af99e341,25,Mężczyzna,2022-06-11_09h37.47.163,task,2021.1.4,Win32,144.1753172,6299f149e92ead563fba08ef,62a44415dc99d82adcabbfb9,,,,,,,,,,,,,0,,,,,,,,,,Task,8,(1x5) - 5,0,,,,,,,,,,,,,,,,,,,1,,,,,,,,,,,,,,,,,,,,,,,"[""0""]",1,[2.258399999976291],0,0,0,7,1,,,,,,,,,,,,,,,,,,,,,,,,,,
,,,,,,,,,,,X V Q F H G B L J M P D K C T S W R N Z,5f72473314afc916af99e341,25,Mężczyzna,2022-06-11_09h37.47.163,task,2021.1.4,Win32,144.1753172,6299f149e92ead563fba08ef,62a44415dc99d82adcabbfb9,,,,,,,,,,,,,,,,,,,,,,,,,,,,,,,,,,,,,,,,,,,,,,,,,,,,,,,,,,,,,,,,,,,,,,,,,,,,6,0,6,0,1,,,,,,,,,,,,,,,,,,,,,
,,,,,,,,,,,,5f72473314afc916af99e341,25,Mężczyzna,2022-06-11_09h37.47.163,task,2021.1.4,Win32,144.1753172,6299f149e92ead563fba08ef,62a44415dc99d82adcabbfb9,,,,,,,,,,,,,,,,,,,,,,,,,,,,,,,,,,,,,,,,,,,,,,,,,,,,,,,,,,,,,,,,,,,,,,,,,,,,,,,,,wkwpsl,"[""w"",""k"",""w"",""p"",""s"",""l""]",0,"[1.695899999976291,2.86259999990466,4.794000000000096,5.098199999928511,5.3751999999285545,5.658000000000129,6.3140999999047835]",0,WPKVSPL,7,0,7,0,1,,,,,,,,,,
,,,,,,,,,,,,5f72473314afc916af99e341,25,Mężczyzna,2022-06-11_09h37.47.163,task,2021.1.4,Win32,144.1753172,6299f149e92ead563fba08ef,62a44415dc99d82adcabbfb9,,,,,,,,,,,,,,,,,,,,,,,,,,,,,,,,,,,,,,,,,,,,,,,,,,,,,,,,,,,,,,,,,,,,,,,,,,,,,,,,,,,,,,,,,,,,"[""period""]",0,[1.4372000000478238],0,0,0,0,1,,
,,,,,,,,,,,,5f72473314afc916af99e341,25,Mężczyzna,2022-06-11_09h37.47.163,task,2021.1.4,Win32,144.1753172,6299f149e92ead563fba08ef,62a44415dc99d82adcabbfb9,,,,,,,,,,,,,,,,,,,,,,,,,,,,,,,,,,,,,,,,,,,,,,,,,,,,,,,,,,,,,,,,,,,,,,,,,,,,,,,,,,,,,,,,,,,,"[""period""]",0,[1.7462000000475655],1,0,1,0,1,,
,,,,,,,,,,,,5f72473314afc916af99e341,25,Mężczyzna,2022-06-11_09h37.47.163,task,2021.1.4,Win32,144.1753172,6299f149e92ead563fba08ef,62a44415dc99d82adcabbfb9,,,,,,,,,,,,,,,,,,,,,,,,,,,,,,,,,,,,,,,,,,,,,,,,,,,,,,,,,,,,,,,,,,,,,,,,,,,,,,,,,,,,,,,,,,,,"[""comma""]",0,[1.3704999999999927],2,0,2,0,1,,
,,,,,,,,,,,,5f72473314afc916af99e341,25,Mężczyzna,2022-06-11_09h37.47.163,task,2021.1.4,Win32,144.1753172,6299f149e92ead563fba08ef,62a44415dc99d82adcabbfb9,,,,,,,,,,,,,,,,,,,,,,,,,,,,,,,,,,,,,,,,,,,,,,,,,,,,,,,,,,,,,,,,,,,,,,,,,,,,,,,,,,,,,,,,,,,,"[""period""]",0,[0.9866000000238273],3,0,3,0,1,,
,,,,,,,,,,,,5f72473314afc916af99e341,25,Mężczyzna,2022-06-11_09h37.47.163,task,2021.1.4,Win32,144.1753172,6299f149e92ead563fba08ef,62a44415dc99d82adcabbfb9,,,,,,,,,,,,,,,,,,,,,,,,,,,,,,,,,,,,,,,,,,,,,,,,,,,,,,,,,,,,,,,,,,,,,,,,,,,,,,,,,,,,,,,,,,,,"[""comma""]",0,[0.4996999999284526],4,0,4,0,1,,
,,,,,,,,,,,,5f72473314afc916af99e341,25,Mężczyzna,2022-06-11_09h37.47.163,task,2021.1.4,Win32,144.1753172,6299f149e92ead563fba08ef,62a44415dc99d82adcabbfb9,,,,,,,,,,,,,,,,,,,,,,,,,,,,,,,,,,,,,,,,,,,,,,,,,,,,,,,,,,,,,,,,,,,,,,,,,,,,,,,,,,,,,,,,,,,,"[""comma"",""comma""]",0,"[0.22720000004756002,1.8272000000476964]",5,0,5,0,1,,
,,,,,,,,,,,,5f72473314afc916af99e341,25,Mężczyzna,2022-06-11_09h37.47.163,task,2021.1.4,Win32,144.1753172,6299f149e92ead563fba08ef,62a44415dc99d82adcabbfb9,,,,,,,,,,,,,,,,,,,,,,,,,,,,,,,,,,,,,,,,,,,,,,,,,,,,,,,,,,,,,,,,,,,,,,,,,,,,,,,,,,,,,,,,,,,,"[""period""]",0,[1.2108000000716856],6,0,6,0,1,,
,,,,,,,,,,,,5f72473314afc916af99e341,25,Mężczyzna,2022-06-11_09h37.47.163,task,2021.1.4,Win32,144.1753172,6299f149e92ead563fba08ef,62a44415dc99d82adcabbfb9,,,,,,,,,,,,,,,,,,,,,,,,,,,,,,,,,,,,,,,,,,,,,,,,,,,,,,,,,,,,,,,,,,,,,,,,,,,,,,,,,,,,,,,,,,,,"[""period""]",0,[0.8597999999524291],7,0,7,0,1,,
,,,,,,,,,,,,5f72473314afc916af99e341,25,Mężczyzna,2022-06-11_09h37.47.163,task,2021.1.4,Win32,144.1753172,6299f149e92ead563fba08ef,62a44415dc99d82adcabbfb9,,,,,,,,,,,,,,,,,,,,,,,,,,,,,,,,,,,,,,,,,,,,,,,,,,,,,,,,,,,,,,,,,,,,,,,,,,,,,,,,,,,,,,,,,,,,"[""comma""]",0,[0.24389999997629275],8,0,8,0,1,,
,,,,,,,,,,,,5f72473314afc916af99e341,25,Mężczyzna,2022-06-11_09h37.47.163,task,2021.1.4,Win32,144.1753172,6299f149e92ead563fba08ef,62a44415dc99d82adcabbfb9,,,,,,,,,,,,,,,,,,,,,,,,,,,,,,,,,,,,,,,,,,,,,,,,,,,,,,,,,,,,,,,,,,,,,,,,,,,,,,,,,,,,,,,,,,,,"[""period"",""comma""]",0,"[0.19570000004773647,1.6679999999998927]",9,0,9,0,1,,
,,,,,,,,,,,,5f72473314afc916af99e341,25,Mężczyzna,2022-06-11_09h37.47.163,task,2021.1.4,Win32,144.1753172,6299f149e92ead563fba08ef,62a44415dc99d82adcabbfb9,,,,,,,,,,,,,,,,,,,,,,,,,,,,,,,,,,,,,,,,,,,,,,,,,,,,,,,,,,,,,,,,,,,,,,,,,,,,,,,,,,,,,,,,,,,,"[""comma""]",0,[1.3243999999760945],10,0,10,0,1,,
,,,,,,,,,,,,5f72473314afc916af99e341,25,Mężczyzna,2022-06-11_09h37.47.163,task,2021.1.4,Win32,144.1753172,6299f149e92ead563fba08ef,62a44415dc99d82adcabbfb9,,,,,,,,,,,,,,,,,,,,,,,,,,,,,,,,,,,,,,,,,,,,,,,,,,,,,,,,,,,,,,,,,,,,,,,,,,,,,,,,,,,,,,,,,,,,"[""period""]",0,[0.98860000002378],11,0,11,0,1,,
,,,,,,,,,,,,5f72473314afc916af99e341,25,Mężczyzna,2022-06-11_09h37.47.163,task,2021.1.4,Win32,144.1753172,6299f149e92ead563fba08ef,62a44415dc99d82adcabbfb9,,,,,,,,,,,,,,,,,,,,,,,,,,,,,,,,,,,,,,,,,,,,,,,,,,,,,,,,,,,,,,,,,,,,,,,,,,,,,,,,,,,,,,,,,,,,"[""period""]",0,[0.5248999999762418],12,0,12,0,1,,
,,,,,,,,,,,,5f72473314afc916af99e341,25,Mężczyzna,2022-06-11_09h37.47.163,task,2021.1.4,Win32,144.1753172,6299f149e92ead563fba08ef,62a44415dc99d82adcabbfb9,,,,,,,,,,,,,,,,,,,,,,,,,,,,,,,,,,,,,,,,,,,,,,,,,,,,,,,,,,,,,,,,,,,,,,,,,,,,,,,,,,,,,,,,,,,,"[""period""]",0,[0.2292000000477401],13,0,13,0,1,,
,,,,,,,,,,,,5f72473314afc916af99e341,25,Mężczyzna,2022-06-11_09h37.47.163,task,2021.1.4,Win32,144.1753172,6299f149e92ead563fba08ef,62a44415dc99d82adcabbfb9,,,,,,,,,,,,,,,,,,,,,,,,,,,,,,,,,,,,,,,,,,,,,,,,,,,,,,,,,,,,,,,,,,,,,,,,,,,,,,,,,,,,,,,,,,,,"[""period""]",0,[0.34920000004763097],14,0,14,0,1,,
,,,,,,,,,,,,5f72473314afc916af99e341,25,Mężczyzna,2022-06-11_09h37.47.163,task,2021.1.4,Win32,144.1753172,6299f149e92ead563fba08ef,62a44415dc99d82adcabbfb9,,,,,,,,,,,,,,,,,,,,,,,,,,,,,,,,,,,,,,,,,,,,,,,,,,,,,,,,,,,,,,,,,,,,,,,,,,,,,,,,,,,,,,,,,,,,"[""comma"",""period""]",0,"[0.23719999992840712,1.8215999999047199]",15,0,15,0,1,,
,,,,,,,,,,,,5f72473314afc916af99e341,25,Mężczyzna,2022-06-11_09h37.47.163,task,2021.1.4,Win32,144.1753172,6299f149e92ead563fba08ef,62a44415dc99d82adcabbfb9,,,,,,,,,,,,,,,,,,,,,,,,,,,,,,,,,,,,,,,,,,,,,,,,,,,,,,,,,,,,,,,,,,,,,,,,,,,,,,,,,,,,,,,,,,,,,0,,16,0,16,0,1,,
,,,,,,,,,,,,5f72473314afc916af99e341,25,Mężczyzna,2022-06-11_09h37.47.163,task,2021.1.4,Win32,144.1753172,6299f149e92ead563fba08ef,62a44415dc99d82adcabbfb9,,,,,,,,,,,,,,,,,,,,,,,,,,,,,,,,,,,,,,,,,,,,,,,,,,,,,,,,,,,,,,,,,,,,,,,,,,,,,,,,,,,,,,,,,,,,"[""comma"",""period""]",0,"[0.045799999952350845,1.7898999999761145]",17,0,17,0,1,,
,,,,,,,,,,,,5f72473314afc916af99e341,25,Mężczyzna,2022-06-11_09h37.47.163,task,2021.1.4,Win32,144.1753172,6299f149e92ead563fba08ef,62a44415dc99d82adcabbfb9,,,,,,,,,,,,,,,,,,,,,,,,,,,,,,,,,,,,,,,,,,,,,,,,,,,,,,,,,,,,,,,,,,,,,,,,,,,,,,,,,,,,,,,,,,,,"[""comma""]",0,[1.694600000023911],18,0,18,0,1,,
,,,,,,,,,,,,5f72473314afc916af99e341,25,Mężczyzna,2022-06-11_09h37.47.163,task,2021.1.4,Win32,144.1753172,6299f149e92ead563fba08ef,62a44415dc99d82adcabbfb9,,,,,,,,,,,,,,,,,,,,,,,,,,,,,,,,,,,,,,,,,,,,,,,,,,,,,,,,,,,,,,,,,,,,,,,,,,,,,,,,,,,,,,,,,,,,"[""comma""]",0,[1.2223999999762327],19,0,19,0,1,,
,,,,,,,,,,,,5f72473314afc916af99e341,25,Mężczyzna,2022-06-11_09h37.47.163,task,2021.1.4,Win32,144.1753172,6299f149e92ead563fba08ef,62a44415dc99d82adcabbfb9,,,,,,,,,,,,,,,,,,,,,,,,,,,,,,,,,,,,,,,,,,,,,,,,,,,,,,,,,,,,,,,,,,,,,,,,,,,,,,,,,,,,,,,,,,,,"[""period""]",0,[0.6542999999524],20,0,20,0,1,,
,,,,,,,,,,,,5f72473314afc916af99e341,25,Mężczyzna,2022-06-11_09h37.47.163,task,2021.1.4,Win32,144.1753172,6299f149e92ead563fba08ef,62a44415dc99d82adcabbfb9,,,,,,,,,,,,,,,,,,,,,,,,,,,,,,,,,,,,,,,,,,,,,,,,,,,,,,,,,,,,,,,,,,,,,,,,,,,,,,,,,,,,,,,,,,,,"[""period"",""period""]",0,"[0.19100000000003092,1.7508999999761272]",21,0,21,0,1,,
,,,,,,,,,,,,5f72473314afc916af99e341,25,Mężczyzna,2022-06-11_09h37.47.163,task,2021.1.4,Win32,144.1753172,6299f149e92ead563fba08ef,62a44415dc99d82adcabbfb9,,,,,,,,,,,,,,,,,,,,,,,,,,,,,,,,,,,,,,,,,,,,,,,,,,,,,,,,,,,,,,,,,,,,,,,,,,,,,,,,,,,,,,,,,,,,"[""comma""]",0,[1.5277999999523217],22,0,22,0,1,,
,,,,,,,,,,,,5f72473314afc916af99e341,25,Mężczyzna,2022-06-11_09h37.47.163,task,2021.1.4,Win32,144.1753172,6299f149e92ead563fba08ef,62a44415dc99d82adcabbfb9,,,,,,,,,,,,,,,,,,,,,,,,,,,,,,,,,,,,,,,,,,,,,,,,,,,,,,,,,,,,,,,,,,,,,,,,,,,,,,,,,,,,,,,,,,,,"[""period""]",0,[1.0472000000477237],23,0,23,0,1,,
,,,,,,,,,,,,5f72473314afc916af99e341,25,Mężczyzna,2022-06-11_09h37.47.163,task,2021.1.4,Win32,144.1753172,6299f149e92ead563fba08ef,62a44415dc99d82adcabbfb9,,,,,,,,,,,,,,,,,,,,,,,,,,,,,,,,,,,,,,,,,,,,,,,,,,,,,,,,,,,,,,,,,,,,,,,,,,,,,,,,,,,,,,,,,,,,"[""period""]",0,[0.7513999999762291],24,0,24,0,1,,
,,,,,,,,,,,,5f72473314afc916af99e341,25,Mężczyzna,2022-06-11_09h37.47.163,task,2021.1.4,Win32,144.1753172,6299f149e92ead563fba08ef,62a44415dc99d82adcabbfb9,,,,,,,,,,,,,,,,,,,,,,,,,,,,,,,,,,,,,,,,,,,,,,,,,,,,,,,,,,,,,,,,,,,,,,,,,,,,,,,,,,,,,,,,,,,,"[""comma"",""period""]",0,"[0.32780000007164745,1.9120000000000346]",25,0,25,0,1,,
,,,,,,,,,,,,5f72473314afc916af99e341,25,Mężczyzna,2022-06-11_09h37.47.163,task,2021.1.4,Win32,144.1753172,6299f149e92ead563fba08ef,62a44415dc99d82adcabbfb9,,,,,,,,,,,,,,,,,,,,,,,,,,,,,,,,,,,,,,,,,,,,,,,,,,,,,,,,,,,,,,,,,,,,,,,,,,,,,,,,,,,,,,,,,,,,"[""comma""]",0,[1.2482000000477456],26,0,26,0,1,,
,,,,,,,,,,,,5f72473314afc916af99e341,25,Mężczyzna,2022-06-11_09h37.47.163,task,2021.1.4,Win32,144.1753172,6299f149e92ead563fba08ef,62a44415dc99d82adcabbfb9,,,,,,,,,,,,,,,,,,,,,,,,,,,,,,,,,,,,,,,,,,,,,,,,,,,,,,,,,,,,,,,,,,,,,,,,,,,,,,,,,,,,,,,,,,,,"[""comma""]",0,[0.8963999999759835],27,0,27,0,1,,
,,,,,,,,,,,,5f72473314afc916af99e341,25,Mężczyzna,2022-06-11_09h37.47.163,task,2021.1.4,Win32,144.1753172,6299f149e92ead563fba08ef,62a44415dc99d82adcabbfb9,,,,,,,,,,,,,,,,,,,,,,,,,,,,,,,,,,,,,,,,,,,,,,,,,,,,,,,,,,,,,,,,,,,,,,,,,,,,,,,,,,,,,,,,,,,,"[""comma""]",0,[0.2957000000476455],28,0,28,0,1,,
,,,,,,,,,,,,5f72473314afc916af99e341,25,Mężczyzna,2022-06-11_09h37.47.163,task,2021.1.4,Win32,144.1753172,6299f149e92ead563fba08ef,62a44415dc99d82adcabbfb9,,,,,,,,,,,,,,,,,,,,,,,,,,,,,,,,,,,,,,,,,,,,,,,,,,,,,,,,,,,,,,,,,,,,,,,,,,,,,,,,,,,,,,,,,,,,"[""period"",""period""]",0,"[0.10460000002399283,1.6407000000476728]",29,0,29,0,1,,
,,,,,,,,,,,,5f72473314afc916af99e341,25,Mężczyzna,2022-06-11_09h37.47.163,task,2021.1.4,Win32,144.1753172,6299f149e92ead563fba08ef,62a44415dc99d82adcabbfb9,,,,,,,,,,,,,,,,,,,,,,,,,,,,,,,,,,,,,,,,,,,,,,,,,,,,,,,,,,,,,,,,,,,,,,,,,,,,,,,,,,,,,,,,,,,,"[""period""]",0,[1.2651000000237218],30,0,30,0,1,,
,,,,,,,,,,,,5f72473314afc916af99e341,25,Mężczyzna,2022-06-11_09h37.47.163,task,2021.1.4,Win32,144.1753172,6299f149e92ead563fba08ef,62a44415dc99d82adcabbfb9,,,,,,,,,,,,,,,,,,,,,,,,,,,,,,,,,,,,,,,,,,,,,,,,,,,,,,,,,,,,,,,,,,,,,,,,,,,,,,,,,,,,,,,,,,,,"[""period""]",0,[1.0090999999044925],31,0,31,0,1,,
,,,,,,,,,,,,5f72473314afc916af99e341,25,Mężczyzna,2022-06-11_09h37.47.163,task,2021.1.4,Win32,144.1753172,6299f149e92ead563fba08ef,62a44415dc99d82adcabbfb9,,,,,,,,,,,,,,,,,,,,,,,,,,,,,,,,,,,,,,,,,,,,,,,,,,,,,,,,,,,,,,,,,,,,,,,,,,,,,,,,,,,,,,,,,,,,"[""comma""]",0,[0.5099999999999909],32,0,32,0,1,,
,,,,,,,,,,,,5f72473314afc916af99e341,25,Mężczyzna,2022-06-11_09h37.47.163,task,2021.1.4,Win32,144.1753172,6299f149e92ead563fba08ef,62a44415dc99d82adcabbfb9,,,,,,,,,,,,,,,,,,,,,,,,,,,,,,,,,,,,,,,,,,,,,,,,,,,,,,,,,,,,,,,,,,,,,,,,,,,,,,,,,,,,,,,,,,,,"[""comma"",""comma""]",0,"[0.07330000007164017,1.5534999999999854]",33,0,33,0,1,,
,,,,,,,,,,,,5f72473314afc916af99e341,25,Mężczyzna,2022-06-11_09h37.47.163,task,2021.1.4,Win32,144.1753172,6299f149e92ead563fba08ef,62a44415dc99d82adcabbfb9,,,,,,,,,,,,,,,,,,,,,,,,,,,,,,,,,,,,,,,,,,,,,,,,,,,,,,,,,,,,,,,,,,,,,,,,,,,,,,,,,,,,,,,,,,,,"[""period""]",0,[1.0818999999760308],34,0,34,0,1,,
,,,,,,,,,,,,5f72473314afc916af99e341,25,Mężczyzna,2022-06-11_09h37.47.163,task,2021.1.4,Win32,144.1753172,6299f149e92ead563fba08ef,62a44415dc99d82adcabbfb9,,,,,,,,,,,,,,,,,,,,,,,,,,,,,,,,,,,,,,,,,,,,,,,,,,,,,,,,,,,,,,,,,,,,,,,,,,,,,,,,,,,,,,,,,,,,"[""comma""]",0,[0.5541000000237091],35,0,35,0,1,,
,,,,,,,,,,,,5f72473314afc916af99e341,25,Mężczyzna,2022-06-11_09h37.47.163,task,2021.1.4,Win32,144.1753172,6299f149e92ead563fba08ef,62a44415dc99d82adcabbfb9,,,,,,,,,,,,,,,,,,,,,,,,,,,,,,,,,,,,,,,,,,,,,,,,,,,,,,,,,,,,,,,,,,,,,,,,,,,,,,,,,,,,,,,,,,,,"[""period"",""period""]",0,"[0.2502999999521762,1.930399999976089]",36,0,36,0,1,,
,,,,,,,,,,,,5f72473314afc916af99e341,25,Mężczyzna,2022-06-11_09h37.47.163,task,2021.1.4,Win32,144.1753172,6299f149e92ead563fba08ef,62a44415dc99d82adcabbfb9,,,,,,,,,,,,,,,,,,,,,,,,,,,,,,,,,,,,,,,,,,,,,,,,,,,,,,,,,,,,,,,,,,,,,,,,,,,,,,,,,,,,,,,,,,,,"[""comma""]",0,[1.906699999928378],37,0,37,0,1,,
,,,,,,,,,,,,5f72473314afc916af99e341,25,Mężczyzna,2022-06-11_09h37.47.163,task,2021.1.4,Win32,144.1753172,6299f149e92ead563fba08ef,62a44415dc99d82adcabbfb9,,,,,,,,,,,,,,,,,,,,,,,,,,,,,,,,,,,,,,,,,,,,,,,,,,,,,,,,,,,,,,,,,,,,,,,,,,,,,,,,,,,,,,,,,,,,"[""period""]",0,[1.3309999999999036],38,0,38,0,1,,
,,,,,,,,,,,,5f72473314afc916af99e341,25,Mężczyzna,2022-06-11_09h37.47.163,task,2021.1.4,Win32,144.1753172,6299f149e92ead563fba08ef,62a44415dc99d82adcabbfb9,,,,,,,,,,,,,,,,,,,,,,,,,,,,,,,,,,,,,,,,,,,,,,,,,,,,,,,,,,,,,,,,,,,,,,,,,,,,,,,,,,,,,,,,,,,,"[""period""]",0,[0.7082999999522599],39,0,39,0,1,,
,,,,,,,,,,,,5f72473314afc916af99e341,25,Mężczyzna,2022-06-11_09h37.47.163,task,2021.1.4,Win32,144.1753172,6299f149e92ead563fba08ef,62a44415dc99d82adcabbfb9,,,,,,,,,,,,,,,,,,,,,,,,,,,,,,,,,,,,,,,,,,,,,,,,,,,,,,,,,,,,,,,,,,,,,,,,,,,,,,,,,,,,,,,,,,,,"[""comma"",""comma""]",0,"[0.21920000004752183,1.8272000000476964]",40,0,40,0,1,,
,,,,,,,,,,,,5f72473314afc916af99e341,25,Mężczyzna,2022-06-11_09h37.47.163,task,2021.1.4,Win32,144.1753172,6299f149e92ead563fba08ef,62a44415dc99d82adcabbfb9,,,,,,,,,,,,,,,,,,,,,,,,,,,,,,,,,,,,,,,,,,,,,,,,,,,,,,,,,,,,,,,,,,,,,,,,,,,,,,,,,,,,,,,,,,,,"[""period""]",0,[1.2274999999999636],41,0,41,0,1,,
,,,,,,,,,,,,5f72473314afc916af99e341,25,Mężczyzna,2022-06-11_09h37.47.163,task,2021.1.4,Win32,144.1753172,6299f149e92ead563fba08ef,62a44415dc99d82adcabbfb9,,,,,,,,,,,,,,,,,,,,,,,,,,,,,,,,,,,,,,,,,,,,,,,,,,,,,,,,,,,,,,,,,,,,,,,,,,,,,,,,,,,,,,,,,,,,"[""period""]",0,[0.6836000000237163],42,0,42,0,1,,
,,,,,,,,,,,,5f72473314afc916af99e341,25,Mężczyzna,2022-06-11_09h37.47.163,task,2021.1.4,Win32,144.1753172,6299f149e92ead563fba08ef,62a44415dc99d82adcabbfb9,,,,,,,,,,,,,,,,,,,,,,,,,,,,,,,,,,,,,,,,,,,,,,,,,,,,,,,,,,,,,,,,,,,,,,,,,,,,,,,,,,,,,,,,,,,,"[""period"",""comma""]",0,"[0.18070000004763642,1.68389999997612]",43,0,43,0,1,,
,,,,,,,,,,,,5f72473314afc916af99e341,25,Mężczyzna,2022-06-11_09h37.47.163,task,2021.1.4,Win32,144.1753172,6299f149e92ead563fba08ef,62a44415dc99d82adcabbfb9,,,,,,,,,,,,,,,,,,,,,,,,,,,,,,,,,,,,,,,,,,,,,,,,,,,,,,,,,,,,,,,,,,,,,,,,,,,,,,,,,,,,,,,,,,,,"[""comma""]",0,[0.9652000000478438],44,0,44,0,1,,
,,,,,,,,,,,,5f72473314afc916af99e341,25,Mężczyzna,2022-06-11_09h37.47.163,task,2021.1.4,Win32,144.1753172,6299f149e92ead563fba08ef,62a44415dc99d82adcabbfb9,,,,,,,,,,,,,,,,,,,,,,,,,,,,,,,,,,,,,,,,,,,,,,,,,,,,,,,,,,,,,,,,,,,,,,,,,,,,,,,,,,,,,,,,,,,,"[""period""]",0,[0.8061000000236618],45,0,45,0,1,,
,,,,,,,,,,,,5f72473314afc916af99e341,25,Mężczyzna,2022-06-11_09h37.47.163,task,2021.1.4,Win32,144.1753172,6299f149e92ead563fba08ef,62a44415dc99d82adcabbfb9,,,,,,,,,,,,,,,,,,,,,,,,,,,,,,,,,,,,,,,,,,,,,,,,,,,,,,,,,,,,,,,,,,,,,,,,,,,,,,,,,,,,,,,,,,,,"[""period""]",0,[0.6687000000476928],46,0,46,0,1,,
,,,,,,,,,,,,5f72473314afc916af99e341,25,Mężczyzna,2022-06-11_09h37.47.163,task,2021.1.4,Win32,144.1753172,6299f149e92ead563fba08ef,62a44415dc99d82adcabbfb9,,,,,,,,,,,,,,,,,,,,,,,,,,,,,,,,,,,,,,,,,,,,,,,,,,,,,,,,,,,,,,,,,,,,,,,,,,,,,,,,,,,,,,,,,,,,"[""period""]",0,[0.6208000000715401],47,0,47,0,1,,
,,,,,,,,,,,,5f72473314afc916af99e341,25,Mężczyzna,2022-06-11_09h37.47.163,task,2021.1.4,Win32,144.1753172,6299f149e92ead563fba08ef,62a44415dc99d82adcabbfb9,,,,,,,,,,,,,,,,,,,,,,,,,,,,,,,,,,,,,,,,,,,,,,,,,,,,,,,,,,,,,,,,,,,,,,,,,,,,,,,,,,,,,,,,,,,,"[""comma""]",0,[0.3653000000715565],48,0,48,0,1,,
,,,,,,,,,,,,5f72473314afc916af99e341,25,Mężczyzna,2022-06-11_09h37.47.163,task,2021.1.4,Win32,144.1753172,6299f149e92ead563fba08ef,62a44415dc99d82adcabbfb9,,,,,,,,,,,,,,,,,,,,,,,,,,,,,,,,,,,,,,,,,,,,,,,,,,,,,,,,,,,,,,,,,,,,,,,,,,,,,,,,,,,,,,,,,,,,"[""period"",""period""]",0,"[0.0696000000236836,1.7333000000714947]",49,0,49,0,1,,
,,,,,,,,,,,,5f72473314afc916af99e341,25,Mężczyzna,2022-06-11_09h37.47.163,task,2021.1.4,Win32,144.1753172,6299f149e92ead563fba08ef,62a44415dc99d82adcabbfb9,,,,,,,,,,,,,,,,,,,,,,,,,,,,,,,,,,,,,,,,,,,,,,,,,,,,,,,,,,,,,,,,,,,,,,,,,,,,,,,,,,,,,,,,,,,,"[""comma""]",0,[1.5418000000713619],50,0,50,0,1,,
,,,,,,,,,,,,5f72473314afc916af99e341,25,Mężczyzna,2022-06-11_09h37.47.163,task,2021.1.4,Win32,144.1753172,6299f149e92ead563fba08ef,62a44415dc99d82adcabbfb9,,,,,,,,,,,,,,,,,,,,,,,,,,,,,,,,,,,,,,,,,,,,,,,,,,,,,,,,,,,,,,,,,,,,,,,,,,,,,,,,,,,,,,,,,,,,"[""comma""]",0,[1.3417999999524],51,0,51,0,1,,
,,,,,,,,,,,,5f72473314afc916af99e341,25,Mężczyzna,2022-06-11_09h37.47.163,task,2021.1.4,Win32,144.1753172,6299f149e92ead563fba08ef,62a44415dc99d82adcabbfb9,,,,,,,,,,,,,,,,,,,,,,,,,,,,,,,,,,,,,,,,,,,,,,,,,,,,,,,,,,,,,,,,,,,,,,,,,,,,,,,,,,,,,,,,,,,,"[""period""]",0,[0.9739999999999327],52,0,52,0,1,,
