key_resp_15.keys,key_resp_15.rt,key_resp_16.keys,key_resp_16.rt,key_resp_4.keys,key_resp_4.rt,next_letter.thisRepN,next_letter.thisTrialN,next_letter.thisN,next_letter.thisIndex,next_letter.ran,letter,participant,Wiek*,Płeć,date,expName,psychopyVersion,OS,frameRate,study_id,session,simple_recall,key_resp_5.keys,key_resp_5.rt,simple_recall_corr,simple_recall_corrkeys,next_level.thisRepN,next_level.thisTrialN,next_level.thisN,next_level.thisIndex,next_level.ran,key_resp_2.keys,key_resp_2.rt,digit_answer,key_resp.keys,key_resp.corr,key_resp.rt,RT_list,next_equation.thisRepN,next_equation.thisTrialN,next_equation.thisN,next_equation.thisIndex,next_equation.ran,Task,Trial,Problem,Operation_answer,processing_score,sumRT,meanRT,sumdiff,sd,RT,key_resp_3.keys,key_resp_3.rt,repeat_practice.thisRepN,repeat_practice.thisTrialN,repeat_practice.thisN,repeat_practice.thisIndex,repeat_practice.ran,key_resp_6.keys,key_resp_6.rt,key_resp_11.keys,key_resp_11.corr,key_resp_11.rt,operation_correct,repeat_if_wrong_prac.thisRepN,repeat_if_wrong_prac.thisTrialN,repeat_if_wrong_prac.thisN,repeat_if_wrong_prac.thisIndex,repeat_if_wrong_prac.ran,span_size_prac.thisRepN,span_size_prac.thisTrialN,span_size_prac.thisN,span_size_prac.thisIndex,span_size_prac.ran,complex_recall_practice,key_resp_9.keys,key_resp_9.corr,key_resp_9.rt,complex_prac_corr,span_recall_prac.thisRepN,span_recall_prac.thisTrialN,span_recall_prac.thisN,span_recall_prac.thisIndex,span_recall_prac.ran,key_resp_10.keys,key_resp_10.rt,key_resp_7.keys,key_resp_7.corr,key_resp_7.rt,repeat_if_wrong.thisRepN,repeat_if_wrong.thisTrialN,repeat_if_wrong.thisN,repeat_if_wrong.thisIndex,repeat_if_wrong.ran,span_size.thisRepN,span_size.thisTrialN,span_size.thisN,span_size.thisIndex,span_size.ran,complex_recall,key_resp_8.keys,key_resp_8.corr,key_resp_8.rt,complex_recall_corr,complex_recall_corrkeys,span_recall.thisRepN,span_recall.thisTrialN,span_recall.thisN,span_recall.thisIndex,span_recall.ran,key_resp_13.keys,key_resp_13.corr,key_resp_13.rt,random_loop.thisRepN,random_loop.thisTrialN,random_loop.thisN,random_loop.thisIndex,random_loop.ran,key_resp_12.keys,key_resp_12.rt
space,11.1197,space,11.6796,space,44.2404,0,0,0,0,1,X V Q F H G B L J M P D K C T S W R N Z,5f761e5106b786071f45b4aa,25,Mężczyzna,2022-06-11_11h43.42.771,task,2021.1.4,Win32,142.7347987,6299f149e92ead563fba08ef,62a45d14cffe747c8b5ef0f2,,,,,,,,,,,,,,,,,,,,,,,,,,,,,,,,,,,,,,,,,,,,,,,,,,,,,,,,,,,,,,,,,,,,,,,,,,,,,,,,,,,,,,,,,,,,,,,,,,,,,
,,,,,,1,0,1,0,1,X V Q F H G B L J M P D K C T S W R N Z,5f761e5106b786071f45b4aa,25,Mężczyzna,2022-06-11_11h43.42.771,task,2021.1.4,Win32,142.7347987,6299f149e92ead563fba08ef,62a45d14cffe747c8b5ef0f2,,,,,,,,,,,,,,,,,,,,,,,,,,,,,,,,,,,,,,,,,,,,,,,,,,,,,,,,,,,,,,,,,,,,,,,,,,,,,,,,,,,,,,,,,,,,,,,,,,,,,
,,,,,,,,,,,,5f761e5106b786071f45b4aa,25,Mężczyzna,2022-06-11_11h43.42.771,task,2021.1.4,Win32,142.7347987,6299f149e92ead563fba08ef,62a45d14cffe747c8b5ef0f2,zr,"[""z"",""r""]","[1.4935000000000116,2.195199999988091,3.0396999999880734]",1,ZR,0,0,0,0,1,,,,,,,,,,,,,,,,,,,,,,,,,,,,,,,,,,,,,,,,,,,,,,,,,,,,,,,,,,,,,,,,,,,,,,,,,,,,,,,,,,,,,,,,,,,
,,,,,,0,0,0,0,1,X V Q F H G B L J M P D K C T S W R N Z,5f761e5106b786071f45b4aa,25,Mężczyzna,2022-06-11_11h43.42.771,task,2021.1.4,Win32,142.7347987,6299f149e92ead563fba08ef,62a45d14cffe747c8b5ef0f2,,,,,,,,,,,,,,,,,,,,,,,,,,,,,,,,,,,,,,,,,,,,,,,,,,,,,,,,,,,,,,,,,,,,,,,,,,,,,,,,,,,,,,,,,,,,,,,,,,,,,
,,,,,,1,0,1,0,1,X V Q F H G B L J M P D K C T S W R N Z,5f761e5106b786071f45b4aa,25,Mężczyzna,2022-06-11_11h43.42.771,task,2021.1.4,Win32,142.7347987,6299f149e92ead563fba08ef,62a45d14cffe747c8b5ef0f2,,,,,,,,,,,,,,,,,,,,,,,,,,,,,,,,,,,,,,,,,,,,,,,,,,,,,,,,,,,,,,,,,,,,,,,,,,,,,,,,,,,,,,,,,,,,,,,,,,,,,
,,,,,,,,,,,,5f761e5106b786071f45b4aa,25,Mężczyzna,2022-06-11_11h43.42.771,task,2021.1.4,Win32,142.7347987,6299f149e92ead563fba08ef,62a45d14cffe747c8b5ef0f2,ph,"[""p"",""h""]","[0.9326000000238253,1.1621999999880757,6.555300000011897]",1,PH,1,0,1,0,1,,,,,,,,,,,,,,,,,,,,,,,,,,,,,,,,,,,,,,,,,,,,,,,,,,,,,,,,,,,,,,,,,,,,,,,,,,,,,,,,,,,,,,,,,,,
,,,,,,0,0,0,0,1,X V Q F H G B L J M P D K C T S W R N Z,5f761e5106b786071f45b4aa,25,Mężczyzna,2022-06-11_11h43.42.771,task,2021.1.4,Win32,142.7347987,6299f149e92ead563fba08ef,62a45d14cffe747c8b5ef0f2,,,,,,,,,,,,,,,,,,,,,,,,,,,,,,,,,,,,,,,,,,,,,,,,,,,,,,,,,,,,,,,,,,,,,,,,,,,,,,,,,,,,,,,,,,,,,,,,,,,,,
,,,,,,1,0,1,0,1,X V Q F H G B L J M P D K C T S W R N Z,5f761e5106b786071f45b4aa,25,Mężczyzna,2022-06-11_11h43.42.771,task,2021.1.4,Win32,142.7347987,6299f149e92ead563fba08ef,62a45d14cffe747c8b5ef0f2,,,,,,,,,,,,,,,,,,,,,,,,,,,,,,,,,,,,,,,,,,,,,,,,,,,,,,,,,,,,,,,,,,,,,,,,,,,,,,,,,,,,,,,,,,,,,,,,,,,,,
,,,,,,2,0,2,0,1,X V Q F H G B L J M P D K C T S W R N Z,5f761e5106b786071f45b4aa,25,Mężczyzna,2022-06-11_11h43.42.771,task,2021.1.4,Win32,142.7347987,6299f149e92ead563fba08ef,62a45d14cffe747c8b5ef0f2,,,,,,,,,,,,,,,,,,,,,,,,,,,,,,,,,,,,,,,,,,,,,,,,,,,,,,,,,,,,,,,,,,,,,,,,,,,,,,,,,,,,,,,,,,,,,,,,,,,,,
,,,,,,,,,,,,5f761e5106b786071f45b4aa,25,Mężczyzna,2022-06-11_11h43.42.771,task,2021.1.4,Win32,142.7347987,6299f149e92ead563fba08ef,62a45d14cffe747c8b5ef0f2,bmt,"[""b"",""m"",""t""]","[0.5413999999761643,0.6743999999761741,0.9168000000119321,1.9935000000000116]",1,BMT,2,0,2,0,1,,,,,,,,,,,,,,,,,,,,,,,,,,,,,,,,,,,,,,,,,,,,,,,,,,,,,,,,,,,,,,,,,,,,,,,,,,,,,,,,,,,,,,,,,,,
,,,,,,0,0,0,0,1,X V Q F H G B L J M P D K C T S W R N Z,5f761e5106b786071f45b4aa,25,Mężczyzna,2022-06-11_11h43.42.771,task,2021.1.4,Win32,142.7347987,6299f149e92ead563fba08ef,62a45d14cffe747c8b5ef0f2,,,,,,,,,,,,,,,,,,,,,,,,,,,,,,,,,,,,,,,,,,,,,,,,,,,,,,,,,,,,,,,,,,,,,,,,,,,,,,,,,,,,,,,,,,,,,,,,,,,,,
,,,,,,1,0,1,0,1,X V Q F H G B L J M P D K C T S W R N Z,5f761e5106b786071f45b4aa,25,Mężczyzna,2022-06-11_11h43.42.771,task,2021.1.4,Win32,142.7347987,6299f149e92ead563fba08ef,62a45d14cffe747c8b5ef0f2,,,,,,,,,,,,,,,,,,,,,,,,,,,,,,,,,,,,,,,,,,,,,,,,,,,,,,,,,,,,,,,,,,,,,,,,,,,,,,,,,,,,,,,,,,,,,,,,,,,,,
,,,,,,2,0,2,0,1,X V Q F H G B L J M P D K C T S W R N Z,5f761e5106b786071f45b4aa,25,Mężczyzna,2022-06-11_11h43.42.771,task,2021.1.4,Win32,142.7347987,6299f149e92ead563fba08ef,62a45d14cffe747c8b5ef0f2,,,,,,,,,,,,,,,,,,,,,,,,,,,,,,,,,,,,,,,,,,,,,,,,,,,,,,,,,,,,,,,,,,,,,,,,,,,,,,,,,,,,,,,,,,,,,,,,,,,,,
,,,,,,,,,,,,5f761e5106b786071f45b4aa,25,Mężczyzna,2022-06-11_11h43.42.771,task,2021.1.4,Win32,142.7347987,6299f149e92ead563fba08ef,62a45d14cffe747c8b5ef0f2,kxv,"[""k"",""x"",""v""]","[1.159300000011939,1.6044000000357812,1.8199000000357728,2.458600000023864]",1,KXV,3,0,3,0,1,,,,,,,,,,,,,,,,,,,,,,,,,,,,,,,,,,,,,,,,,,,,,,,,,,,,,,,,,,,,,,,,,,,,,,,,,,,,,,,,,,,,,,,,,,,
,,,,,,0,0,0,0,1,X V Q F H G B L J M P D K C T S W R N Z,5f761e5106b786071f45b4aa,25,Mężczyzna,2022-06-11_11h43.42.771,task,2021.1.4,Win32,142.7347987,6299f149e92ead563fba08ef,62a45d14cffe747c8b5ef0f2,,,,,,,,,,,,,,,,,,,,,,,,,,,,,,,,,,,,,,,,,,,,,,,,,,,,,,,,,,,,,,,,,,,,,,,,,,,,,,,,,,,,,,,,,,,,,,,,,,,,,
,,,,,,1,0,1,0,1,X V Q F H G B L J M P D K C T S W R N Z,5f761e5106b786071f45b4aa,25,Mężczyzna,2022-06-11_11h43.42.771,task,2021.1.4,Win32,142.7347987,6299f149e92ead563fba08ef,62a45d14cffe747c8b5ef0f2,,,,,,,,,,,,,,,,,,,,,,,,,,,,,,,,,,,,,,,,,,,,,,,,,,,,,,,,,,,,,,,,,,,,,,,,,,,,,,,,,,,,,,,,,,,,,,,,,,,,,
,,,,,,2,0,2,0,1,X V Q F H G B L J M P D K C T S W R N Z,5f761e5106b786071f45b4aa,25,Mężczyzna,2022-06-11_11h43.42.771,task,2021.1.4,Win32,142.7347987,6299f149e92ead563fba08ef,62a45d14cffe747c8b5ef0f2,,,,,,,,,,,,,,,,,,,,,,,,,,,,,,,,,,,,,,,,,,,,,,,,,,,,,,,,,,,,,,,,,,,,,,,,,,,,,,,,,,,,,,,,,,,,,,,,,,,,,
,,,,,,3,0,3,0,1,X V Q F H G B L J M P D K C T S W R N Z,5f761e5106b786071f45b4aa,25,Mężczyzna,2022-06-11_11h43.42.771,task,2021.1.4,Win32,142.7347987,6299f149e92ead563fba08ef,62a45d14cffe747c8b5ef0f2,,,,,,,,,,,,,,,,,,,,,,,,,,,,,,,,,,,,,,,,,,,,,,,,,,,,,,,,,,,,,,,,,,,,,,,,,,,,,,,,,,,,,,,,,,,,,,,,,,,,,
,,,,,,,,,,,,5f761e5106b786071f45b4aa,25,Mężczyzna,2022-06-11_11h43.42.771,task,2021.1.4,Win32,142.7347987,6299f149e92ead563fba08ef,62a45d14cffe747c8b5ef0f2,vtmd,"[""v"",""t"",""m"",""d""]","[0.3224999999999909,0.38410000002383526,0.9376999999880695,1.2366000000238273,1.925100000023832]",1,VTMD,4,0,4,0,1,,,,,,,,,,,,,,,,,,,,,,,,,,,,,,,,,,,,,,,,,,,,,,,,,,,,,,,,,,,,,,,,,,,,,,,,,,,,,,,,,,,,,,,,,,,
,,,,,,0,0,0,0,1,X V Q F H G B L J M P D K C T S W R N Z,5f761e5106b786071f45b4aa,25,Mężczyzna,2022-06-11_11h43.42.771,task,2021.1.4,Win32,142.7347987,6299f149e92ead563fba08ef,62a45d14cffe747c8b5ef0f2,,,,,,,,,,,,,,,,,,,,,,,,,,,,,,,,,,,,,,,,,,,,,,,,,,,,,,,,,,,,,,,,,,,,,,,,,,,,,,,,,,,,,,,,,,,,,,,,,,,,,
,,,,,,1,0,1,0,1,X V Q F H G B L J M P D K C T S W R N Z,5f761e5106b786071f45b4aa,25,Mężczyzna,2022-06-11_11h43.42.771,task,2021.1.4,Win32,142.7347987,6299f149e92ead563fba08ef,62a45d14cffe747c8b5ef0f2,,,,,,,,,,,,,,,,,,,,,,,,,,,,,,,,,,,,,,,,,,,,,,,,,,,,,,,,,,,,,,,,,,,,,,,,,,,,,,,,,,,,,,,,,,,,,,,,,,,,,
,,,,,,2,0,2,0,1,X V Q F H G B L J M P D K C T S W R N Z,5f761e5106b786071f45b4aa,25,Mężczyzna,2022-06-11_11h43.42.771,task,2021.1.4,Win32,142.7347987,6299f149e92ead563fba08ef,62a45d14cffe747c8b5ef0f2,,,,,,,,,,,,,,,,,,,,,,,,,,,,,,,,,,,,,,,,,,,,,,,,,,,,,,,,,,,,,,,,,,,,,,,,,,,,,,,,,,,,,,,,,,,,,,,,,,,,,
,,,,,,3,0,3,0,1,X V Q F H G B L J M P D K C T S W R N Z,5f761e5106b786071f45b4aa,25,Mężczyzna,2022-06-11_11h43.42.771,task,2021.1.4,Win32,142.7347987,6299f149e92ead563fba08ef,62a45d14cffe747c8b5ef0f2,,,,,,,,,,,,,,,,,,,,,,,,,,,,,,,,,,,,,,,,,,,,,,,,,,,,,,,,,,,,,,,,,,,,,,,,,,,,,,,,,,,,,,,,,,,,,,,,,,,,,
,,,,,,,,,,,,5f761e5106b786071f45b4aa,25,Mężczyzna,2022-06-11_11h43.42.771,task,2021.1.4,Win32,142.7347987,6299f149e92ead563fba08ef,62a45d14cffe747c8b5ef0f2,cfdn,"[""c"",""f"",""d"",""n""]","[0.493599999964232,0.7220999999642288,1.5001999999880695,1.9305999999642438,2.5007999999523065]",1,CFDN,5,0,5,0,1,,,,,,,,,,,,,,,,,,,,,,,,,,,,,,,,,,,,,,,,,,,,,,,,,,,,,,,,,,,,,,,,,,,,,,,,,,,,,,,,,,,,,,,,,,,
,,,,,,0,0,0,0,1,X V Q F H G B L J M P D K C T S W R N Z,5f761e5106b786071f45b4aa,25,Mężczyzna,2022-06-11_11h43.42.771,task,2021.1.4,Win32,142.7347987,6299f149e92ead563fba08ef,62a45d14cffe747c8b5ef0f2,,,,,,,,,,,,,,,,,,,,,,,,,,,,,,,,,,,,,,,,,,,,,,,,,,,,,,,,,,,,,,,,,,,,,,,,,,,,,,,,,,,,,,,,,,,,,,,,,,,,,
,,,,,,1,0,1,0,1,X V Q F H G B L J M P D K C T S W R N Z,5f761e5106b786071f45b4aa,25,Mężczyzna,2022-06-11_11h43.42.771,task,2021.1.4,Win32,142.7347987,6299f149e92ead563fba08ef,62a45d14cffe747c8b5ef0f2,,,,,,,,,,,,,,,,,,,,,,,,,,,,,,,,,,,,,,,,,,,,,,,,,,,,,,,,,,,,,,,,,,,,,,,,,,,,,,,,,,,,,,,,,,,,,,,,,,,,,
,,,,,,2,0,2,0,1,X V Q F H G B L J M P D K C T S W R N Z,5f761e5106b786071f45b4aa,25,Mężczyzna,2022-06-11_11h43.42.771,task,2021.1.4,Win32,142.7347987,6299f149e92ead563fba08ef,62a45d14cffe747c8b5ef0f2,,,,,,,,,,,,,,,,,,,,,,,,,,,,,,,,,,,,,,,,,,,,,,,,,,,,,,,,,,,,,,,,,,,,,,,,,,,,,,,,,,,,,,,,,,,,,,,,,,,,,
,,,,,,3,0,3,0,1,X V Q F H G B L J M P D K C T S W R N Z,5f761e5106b786071f45b4aa,25,Mężczyzna,2022-06-11_11h43.42.771,task,2021.1.4,Win32,142.7347987,6299f149e92ead563fba08ef,62a45d14cffe747c8b5ef0f2,,,,,,,,,,,,,,,,,,,,,,,,,,,,,,,,,,,,,,,,,,,,,,,,,,,,,,,,,,,,,,,,,,,,,,,,,,,,,,,,,,,,,,,,,,,,,,,,,,,,,
,,,,,,4,0,4,0,1,X V Q F H G B L J M P D K C T S W R N Z,5f761e5106b786071f45b4aa,25,Mężczyzna,2022-06-11_11h43.42.771,task,2021.1.4,Win32,142.7347987,6299f149e92ead563fba08ef,62a45d14cffe747c8b5ef0f2,,,,,,,,,,,,,,,,,,,,,,,,,,,,,,,,,,,,,,,,,,,,,,,,,,,,,,,,,,,,,,,,,,,,,,,,,,,,,,,,,,,,,,,,,,,,,,,,,,,,,
,,,,,,,,,,,,5f761e5106b786071f45b4aa,25,Mężczyzna,2022-06-11_11h43.42.771,task,2021.1.4,Win32,142.7347987,6299f149e92ead563fba08ef,62a45d14cffe747c8b5ef0f2,dfxsp,"[""d"",""f"",""x"",""s"",""p""]","[0.8893000000119287,1.1066000000238319,1.3710000000000093,1.6971999999880722,2.236199999988088,2.924199999988076]",1,DFXSP,6,0,6,0,1,,,,,,,,,,,,,,,,,,,,,,,,,,,,,,,,,,,,,,,,,,,,,,,,,,,,,,,,,,,,,,,,,,,,,,,,,,,,,,,,,,,,,,,,,,,
,,,,,,0,0,0,0,1,X V Q F H G B L J M P D K C T S W R N Z,5f761e5106b786071f45b4aa,25,Mężczyzna,2022-06-11_11h43.42.771,task,2021.1.4,Win32,142.7347987,6299f149e92ead563fba08ef,62a45d14cffe747c8b5ef0f2,,,,,,,,,,,,,,,,,,,,,,,,,,,,,,,,,,,,,,,,,,,,,,,,,,,,,,,,,,,,,,,,,,,,,,,,,,,,,,,,,,,,,,,,,,,,,,,,,,,,,
,,,,,,1,0,1,0,1,X V Q F H G B L J M P D K C T S W R N Z,5f761e5106b786071f45b4aa,25,Mężczyzna,2022-06-11_11h43.42.771,task,2021.1.4,Win32,142.7347987,6299f149e92ead563fba08ef,62a45d14cffe747c8b5ef0f2,,,,,,,,,,,,,,,,,,,,,,,,,,,,,,,,,,,,,,,,,,,,,,,,,,,,,,,,,,,,,,,,,,,,,,,,,,,,,,,,,,,,,,,,,,,,,,,,,,,,,
,,,,,,2,0,2,0,1,X V Q F H G B L J M P D K C T S W R N Z,5f761e5106b786071f45b4aa,25,Mężczyzna,2022-06-11_11h43.42.771,task,2021.1.4,Win32,142.7347987,6299f149e92ead563fba08ef,62a45d14cffe747c8b5ef0f2,,,,,,,,,,,,,,,,,,,,,,,,,,,,,,,,,,,,,,,,,,,,,,,,,,,,,,,,,,,,,,,,,,,,,,,,,,,,,,,,,,,,,,,,,,,,,,,,,,,,,
,,,,,,3,0,3,0,1,X V Q F H G B L J M P D K C T S W R N Z,5f761e5106b786071f45b4aa,25,Mężczyzna,2022-06-11_11h43.42.771,task,2021.1.4,Win32,142.7347987,6299f149e92ead563fba08ef,62a45d14cffe747c8b5ef0f2,,,,,,,,,,,,,,,,,,,,,,,,,,,,,,,,,,,,,,,,,,,,,,,,,,,,,,,,,,,,,,,,,,,,,,,,,,,,,,,,,,,,,,,,,,,,,,,,,,,,,
,,,,,,4,0,4,0,1,X V Q F H G B L J M P D K C T S W R N Z,5f761e5106b786071f45b4aa,25,Mężczyzna,2022-06-11_11h43.42.771,task,2021.1.4,Win32,142.7347987,6299f149e92ead563fba08ef,62a45d14cffe747c8b5ef0f2,,,,,,,,,,,,,,,,,,,,,,,,,,,,,,,,,,,,,,,,,,,,,,,,,,,,,,,,,,,,,,,,,,,,,,,,,,,,,,,,,,,,,,,,,,,,,,,,,,,,,
,,,,,,,,,,,,5f761e5106b786071f45b4aa,25,Mężczyzna,2022-06-11_11h43.42.771,task,2021.1.4,Win32,142.7347987,6299f149e92ead563fba08ef,62a45d14cffe747c8b5ef0f2,vshxr,"[""v"",""s"",""h"",""x"",""r""]","[1.0513999999761552,1.3403999999761425,1.812899999976139,2.217199999988054,2.3289999999999793,3.611699999988076]",1,VSHXR,7,0,7,0,1,,,,,,,,,,,,,,,,,,,,,,,,,,,,,,,,,,,,,,,,,,,,,,,,,,,,,,,,,,,,,,,,,,,,,,,,,,,,,,,,,,,,,,,,,,,
,,,,,,0,0,0,0,1,X V Q F H G B L J M P D K C T S W R N Z,5f761e5106b786071f45b4aa,25,Mężczyzna,2022-06-11_11h43.42.771,task,2021.1.4,Win32,142.7347987,6299f149e92ead563fba08ef,62a45d14cffe747c8b5ef0f2,,,,,,,,,,,,,,,,,,,,,,,,,,,,,,,,,,,,,,,,,,,,,,,,,,,,,,,,,,,,,,,,,,,,,,,,,,,,,,,,,,,,,,,,,,,,,,,,,,,,,
,,,,,,1,0,1,0,1,X V Q F H G B L J M P D K C T S W R N Z,5f761e5106b786071f45b4aa,25,Mężczyzna,2022-06-11_11h43.42.771,task,2021.1.4,Win32,142.7347987,6299f149e92ead563fba08ef,62a45d14cffe747c8b5ef0f2,,,,,,,,,,,,,,,,,,,,,,,,,,,,,,,,,,,,,,,,,,,,,,,,,,,,,,,,,,,,,,,,,,,,,,,,,,,,,,,,,,,,,,,,,,,,,,,,,,,,,
,,,,,,2,0,2,0,1,X V Q F H G B L J M P D K C T S W R N Z,5f761e5106b786071f45b4aa,25,Mężczyzna,2022-06-11_11h43.42.771,task,2021.1.4,Win32,142.7347987,6299f149e92ead563fba08ef,62a45d14cffe747c8b5ef0f2,,,,,,,,,,,,,,,,,,,,,,,,,,,,,,,,,,,,,,,,,,,,,,,,,,,,,,,,,,,,,,,,,,,,,,,,,,,,,,,,,,,,,,,,,,,,,,,,,,,,,
,,,,,,3,0,3,0,1,X V Q F H G B L J M P D K C T S W R N Z,5f761e5106b786071f45b4aa,25,Mężczyzna,2022-06-11_11h43.42.771,task,2021.1.4,Win32,142.7347987,6299f149e92ead563fba08ef,62a45d14cffe747c8b5ef0f2,,,,,,,,,,,,,,,,,,,,,,,,,,,,,,,,,,,,,,,,,,,,,,,,,,,,,,,,,,,,,,,,,,,,,,,,,,,,,,,,,,,,,,,,,,,,,,,,,,,,,
,,,,,,4,0,4,0,1,X V Q F H G B L J M P D K C T S W R N Z,5f761e5106b786071f45b4aa,25,Mężczyzna,2022-06-11_11h43.42.771,task,2021.1.4,Win32,142.7347987,6299f149e92ead563fba08ef,62a45d14cffe747c8b5ef0f2,,,,,,,,,,,,,,,,,,,,,,,,,,,,,,,,,,,,,,,,,,,,,,,,,,,,,,,,,,,,,,,,,,,,,,,,,,,,,,,,,,,,,,,,,,,,,,,,,,,,,
,,,,,,5,0,5,0,1,X V Q F H G B L J M P D K C T S W R N Z,5f761e5106b786071f45b4aa,25,Mężczyzna,2022-06-11_11h43.42.771,task,2021.1.4,Win32,142.7347987,6299f149e92ead563fba08ef,62a45d14cffe747c8b5ef0f2,,,,,,,,,,,,,,,,,,,,,,,,,,,,,,,,,,,,,,,,,,,,,,,,,,,,,,,,,,,,,,,,,,,,,,,,,,,,,,,,,,,,,,,,,,,,,,,,,,,,,
,,,,,,,,,,,,5f761e5106b786071f45b4aa,25,Mężczyzna,2022-06-11_11h43.42.771,task,2021.1.4,Win32,142.7347987,6299f149e92ead563fba08ef,62a45d14cffe747c8b5ef0f2,xxscqr,"[""x"",""x"",""s"",""c"",""q"",""r""]","[0.389599999964247,0.5628999999761675,0.7503999999761675,5.356999999999999,5.625699999988086,6.0650999999642465,13.944800000011924]",1,XXSCQR,8,0,8,0,1,,,,,,,,,,,,,,,,,,,,,,,,,,,,,,,,,,,,,,,,,,,,,,,,,,,,,,,,,,,,,,,,,,,,,,,,,,,,,,,,,,,,,,,,,,,
,,,,,,0,0,0,0,1,X V Q F H G B L J M P D K C T S W R N Z,5f761e5106b786071f45b4aa,25,Mężczyzna,2022-06-11_11h43.42.771,task,2021.1.4,Win32,142.7347987,6299f149e92ead563fba08ef,62a45d14cffe747c8b5ef0f2,,,,,,,,,,,,,,,,,,,,,,,,,,,,,,,,,,,,,,,,,,,,,,,,,,,,,,,,,,,,,,,,,,,,,,,,,,,,,,,,,,,,,,,,,,,,,,,,,,,,,
,,,,,,1,0,1,0,1,X V Q F H G B L J M P D K C T S W R N Z,5f761e5106b786071f45b4aa,25,Mężczyzna,2022-06-11_11h43.42.771,task,2021.1.4,Win32,142.7347987,6299f149e92ead563fba08ef,62a45d14cffe747c8b5ef0f2,,,,,,,,,,,,,,,,,,,,,,,,,,,,,,,,,,,,,,,,,,,,,,,,,,,,,,,,,,,,,,,,,,,,,,,,,,,,,,,,,,,,,,,,,,,,,,,,,,,,,
,,,,,,2,0,2,0,1,X V Q F H G B L J M P D K C T S W R N Z,5f761e5106b786071f45b4aa,25,Mężczyzna,2022-06-11_11h43.42.771,task,2021.1.4,Win32,142.7347987,6299f149e92ead563fba08ef,62a45d14cffe747c8b5ef0f2,,,,,,,,,,,,,,,,,,,,,,,,,,,,,,,,,,,,,,,,,,,,,,,,,,,,,,,,,,,,,,,,,,,,,,,,,,,,,,,,,,,,,,,,,,,,,,,,,,,,,
,,,,,,3,0,3,0,1,X V Q F H G B L J M P D K C T S W R N Z,5f761e5106b786071f45b4aa,25,Mężczyzna,2022-06-11_11h43.42.771,task,2021.1.4,Win32,142.7347987,6299f149e92ead563fba08ef,62a45d14cffe747c8b5ef0f2,,,,,,,,,,,,,,,,,,,,,,,,,,,,,,,,,,,,,,,,,,,,,,,,,,,,,,,,,,,,,,,,,,,,,,,,,,,,,,,,,,,,,,,,,,,,,,,,,,,,,
,,,,,,4,0,4,0,1,X V Q F H G B L J M P D K C T S W R N Z,5f761e5106b786071f45b4aa,25,Mężczyzna,2022-06-11_11h43.42.771,task,2021.1.4,Win32,142.7347987,6299f149e92ead563fba08ef,62a45d14cffe747c8b5ef0f2,,,,,,,,,,,,,,,,,,,,,,,,,,,,,,,,,,,,,,,,,,,,,,,,,,,,,,,,,,,,,,,,,,,,,,,,,,,,,,,,,,,,,,,,,,,,,,,,,,,,,
,,,,,,5,0,5,0,1,X V Q F H G B L J M P D K C T S W R N Z,5f761e5106b786071f45b4aa,25,Mężczyzna,2022-06-11_11h43.42.771,task,2021.1.4,Win32,142.7347987,6299f149e92ead563fba08ef,62a45d14cffe747c8b5ef0f2,,,,,,,,,,,,,,,,,,,,,,,,,,,,,,,,,,,,,,,,,,,,,,,,,,,,,,,,,,,,,,,,,,,,,,,,,,,,,,,,,,,,,,,,,,,,,,,,,,,,,
,,,,,,,,,,,,5f761e5106b786071f45b4aa,25,Mężczyzna,2022-06-11_11h43.42.771,task,2021.1.4,Win32,142.7347987,6299f149e92ead563fba08ef,62a45d14cffe747c8b5ef0f2,mdtgvm,"[""m"",""d"",""t"",""g"",""v"",""m""]","[0.6687000000476928,1.069200000047715,1.499200000047722,1.7241000000238387,2.0418000000119605,2.4609000000357923,20.228600000023846]",1,MDTGVM,9,0,9,0,1,,,,,,,,,,,,,,,,,,,,,,,,,,,,,,,,,,,,,,,,,,,,,,,,,,,,,,,,,,,,,,,,,,,,,,,,,,,,,,,,,,,,,,,,,,,
,,,,,,0,0,0,0,1,X V Q F H G B L J M P D K C T S W R N Z,5f761e5106b786071f45b4aa,25,Mężczyzna,2022-06-11_11h43.42.771,task,2021.1.4,Win32,142.7347987,6299f149e92ead563fba08ef,62a45d14cffe747c8b5ef0f2,,,,,,,,,,,,,,,,,,,,,,,,,,,,,,,,,,,,,,,,,,,,,,,,,,,,,,,,,,,,,,,,,,,,,,,,,,,,,,,,,,,,,,,,,,,,,,,,,,,,,
,,,,,,1,0,1,0,1,X V Q F H G B L J M P D K C T S W R N Z,5f761e5106b786071f45b4aa,25,Mężczyzna,2022-06-11_11h43.42.771,task,2021.1.4,Win32,142.7347987,6299f149e92ead563fba08ef,62a45d14cffe747c8b5ef0f2,,,,,,,,,,,,,,,,,,,,,,,,,,,,,,,,,,,,,,,,,,,,,,,,,,,,,,,,,,,,,,,,,,,,,,,,,,,,,,,,,,,,,,,,,,,,,,,,,,,,,
,,,,,,2,0,2,0,1,X V Q F H G B L J M P D K C T S W R N Z,5f761e5106b786071f45b4aa,25,Mężczyzna,2022-06-11_11h43.42.771,task,2021.1.4,Win32,142.7347987,6299f149e92ead563fba08ef,62a45d14cffe747c8b5ef0f2,,,,,,,,,,,,,,,,,,,,,,,,,,,,,,,,,,,,,,,,,,,,,,,,,,,,,,,,,,,,,,,,,,,,,,,,,,,,,,,,,,,,,,,,,,,,,,,,,,,,,
,,,,,,3,0,3,0,1,X V Q F H G B L J M P D K C T S W R N Z,5f761e5106b786071f45b4aa,25,Mężczyzna,2022-06-11_11h43.42.771,task,2021.1.4,Win32,142.7347987,6299f149e92ead563fba08ef,62a45d14cffe747c8b5ef0f2,,,,,,,,,,,,,,,,,,,,,,,,,,,,,,,,,,,,,,,,,,,,,,,,,,,,,,,,,,,,,,,,,,,,,,,,,,,,,,,,,,,,,,,,,,,,,,,,,,,,,
,,,,,,4,0,4,0,1,X V Q F H G B L J M P D K C T S W R N Z,5f761e5106b786071f45b4aa,25,Mężczyzna,2022-06-11_11h43.42.771,task,2021.1.4,Win32,142.7347987,6299f149e92ead563fba08ef,62a45d14cffe747c8b5ef0f2,,,,,,,,,,,,,,,,,,,,,,,,,,,,,,,,,,,,,,,,,,,,,,,,,,,,,,,,,,,,,,,,,,,,,,,,,,,,,,,,,,,,,,,,,,,,,,,,,,,,,
,,,,,,5,0,5,0,1,X V Q F H G B L J M P D K C T S W R N Z,5f761e5106b786071f45b4aa,25,Mężczyzna,2022-06-11_11h43.42.771,task,2021.1.4,Win32,142.7347987,6299f149e92ead563fba08ef,62a45d14cffe747c8b5ef0f2,,,,,,,,,,,,,,,,,,,,,,,,,,,,,,,,,,,,,,,,,,,,,,,,,,,,,,,,,,,,,,,,,,,,,,,,,,,,,,,,,,,,,,,,,,,,,,,,,,,,,
,,,,,,6,0,6,0,1,X V Q F H G B L J M P D K C T S W R N Z,5f761e5106b786071f45b4aa,25,Mężczyzna,2022-06-11_11h43.42.771,task,2021.1.4,Win32,142.7347987,6299f149e92ead563fba08ef,62a45d14cffe747c8b5ef0f2,,,,,,,,,,,,,,,,,,,,,,,,,,,,,,,,,,,,,,,,,,,,,,,,,,,,,,,,,,,,,,,,,,,,,,,,,,,,,,,,,,,,,,,,,,,,,,,,,,,,,
,,,,,,,,,,,,5f761e5106b786071f45b4aa,25,Mężczyzna,2022-06-11_11h43.42.771,task,2021.1.4,Win32,142.7347987,6299f149e92ead563fba08ef,62a45d14cffe747c8b5ef0f2,pllcltb,"[""p"",""l"",""l"",""c"",""l"",""t"",""b""]","[0.5793000000119264,0.833100000023876,1.02800000000002,1.4093000000119673,2.0093999999761536,2.3704999999999927,2.5903000000119505,3.243600000023889]",1,PLLCLTB,10,0,10,0,1,,,,,,,,,,,,,,,,,,,,,,,,,,,,,,,,,,,,,,,,,,,,,,,,,,,,,,,,,,,,,,,,,,,,,,,,,,,,,,,,,,,,,,,,,,,
,,,,,,0,0,0,0,1,X V Q F H G B L J M P D K C T S W R N Z,5f761e5106b786071f45b4aa,25,Mężczyzna,2022-06-11_11h43.42.771,task,2021.1.4,Win32,142.7347987,6299f149e92ead563fba08ef,62a45d14cffe747c8b5ef0f2,,,,,,,,,,,,,,,,,,,,,,,,,,,,,,,,,,,,,,,,,,,,,,,,,,,,,,,,,,,,,,,,,,,,,,,,,,,,,,,,,,,,,,,,,,,,,,,,,,,,,
,,,,,,1,0,1,0,1,X V Q F H G B L J M P D K C T S W R N Z,5f761e5106b786071f45b4aa,25,Mężczyzna,2022-06-11_11h43.42.771,task,2021.1.4,Win32,142.7347987,6299f149e92ead563fba08ef,62a45d14cffe747c8b5ef0f2,,,,,,,,,,,,,,,,,,,,,,,,,,,,,,,,,,,,,,,,,,,,,,,,,,,,,,,,,,,,,,,,,,,,,,,,,,,,,,,,,,,,,,,,,,,,,,,,,,,,,
,,,,,,2,0,2,0,1,X V Q F H G B L J M P D K C T S W R N Z,5f761e5106b786071f45b4aa,25,Mężczyzna,2022-06-11_11h43.42.771,task,2021.1.4,Win32,142.7347987,6299f149e92ead563fba08ef,62a45d14cffe747c8b5ef0f2,,,,,,,,,,,,,,,,,,,,,,,,,,,,,,,,,,,,,,,,,,,,,,,,,,,,,,,,,,,,,,,,,,,,,,,,,,,,,,,,,,,,,,,,,,,,,,,,,,,,,
,,,,,,3,0,3,0,1,X V Q F H G B L J M P D K C T S W R N Z,5f761e5106b786071f45b4aa,25,Mężczyzna,2022-06-11_11h43.42.771,task,2021.1.4,Win32,142.7347987,6299f149e92ead563fba08ef,62a45d14cffe747c8b5ef0f2,,,,,,,,,,,,,,,,,,,,,,,,,,,,,,,,,,,,,,,,,,,,,,,,,,,,,,,,,,,,,,,,,,,,,,,,,,,,,,,,,,,,,,,,,,,,,,,,,,,,,
,,,,,,4,0,4,0,1,X V Q F H G B L J M P D K C T S W R N Z,5f761e5106b786071f45b4aa,25,Mężczyzna,2022-06-11_11h43.42.771,task,2021.1.4,Win32,142.7347987,6299f149e92ead563fba08ef,62a45d14cffe747c8b5ef0f2,,,,,,,,,,,,,,,,,,,,,,,,,,,,,,,,,,,,,,,,,,,,,,,,,,,,,,,,,,,,,,,,,,,,,,,,,,,,,,,,,,,,,,,,,,,,,,,,,,,,,
,,,,,,5,0,5,0,1,X V Q F H G B L J M P D K C T S W R N Z,5f761e5106b786071f45b4aa,25,Mężczyzna,2022-06-11_11h43.42.771,task,2021.1.4,Win32,142.7347987,6299f149e92ead563fba08ef,62a45d14cffe747c8b5ef0f2,,,,,,,,,,,,,,,,,,,,,,,,,,,,,,,,,,,,,,,,,,,,,,,,,,,,,,,,,,,,,,,,,,,,,,,,,,,,,,,,,,,,,,,,,,,,,,,,,,,,,
,,,,,,6,0,6,0,1,X V Q F H G B L J M P D K C T S W R N Z,5f761e5106b786071f45b4aa,25,Mężczyzna,2022-06-11_11h43.42.771,task,2021.1.4,Win32,142.7347987,6299f149e92ead563fba08ef,62a45d14cffe747c8b5ef0f2,,,,,,,,,,,,,,,,,,,,,,,,,,,,,,,,,,,,,,,,,,,,,,,,,,,,,,,,,,,,,,,,,,,,,,,,,,,,,,,,,,,,,,,,,,,,,,,,,,,,,
,,,,,,,,,,,,5f761e5106b786071f45b4aa,25,Mężczyzna,2022-06-11_11h43.42.771,task,2021.1.4,Win32,142.7347987,6299f149e92ead563fba08ef,62a45d14cffe747c8b5ef0f2,cdrrvdq,"[""c"",""d"",""r"",""r"",""v"",""d"",""q""]","[0.979399999976124,1.2086999999880277,1.4451999999880627,1.7156999999880327,1.98599999999999,2.2640999999642304,2.7173999999761236,3.771500000000003]",1,CDRRVDQ,11,0,11,0,1,,,,,,,,,,,,,,,,,,,,,,,,,,,,,,,,,,,,,,,,,,,,,,,,,,,,,,,,,,,,,,,,,,,,,,,,,,,,,,,,,,,,,,,,,,,
,,,,,,0,0,0,0,1,X V Q F H G B L J M P D K C T S W R N Z,5f761e5106b786071f45b4aa,25,Mężczyzna,2022-06-11_11h43.42.771,task,2021.1.4,Win32,142.7347987,6299f149e92ead563fba08ef,62a45d14cffe747c8b5ef0f2,,,,,,,,,,,,,,,,,,,,,,,,,,,,,,,,,,,,,,,,,,,,,,,,,,,,,,,,,,,,,,,,,,,,,,,,,,,,,,,,,,,,,,,,,,,,,,,,,,,,,
,,,,,,1,0,1,0,1,X V Q F H G B L J M P D K C T S W R N Z,5f761e5106b786071f45b4aa,25,Mężczyzna,2022-06-11_11h43.42.771,task,2021.1.4,Win32,142.7347987,6299f149e92ead563fba08ef,62a45d14cffe747c8b5ef0f2,,,,,,,,,,,,,,,,,,,,,,,,,,,,,,,,,,,,,,,,,,,,,,,,,,,,,,,,,,,,,,,,,,,,,,,,,,,,,,,,,,,,,,,,,,,,,,,,,,,,,
,,,,,,2,0,2,0,1,X V Q F H G B L J M P D K C T S W R N Z,5f761e5106b786071f45b4aa,25,Mężczyzna,2022-06-11_11h43.42.771,task,2021.1.4,Win32,142.7347987,6299f149e92ead563fba08ef,62a45d14cffe747c8b5ef0f2,,,,,,,,,,,,,,,,,,,,,,,,,,,,,,,,,,,,,,,,,,,,,,,,,,,,,,,,,,,,,,,,,,,,,,,,,,,,,,,,,,,,,,,,,,,,,,,,,,,,,
,,,,,,3,0,3,0,1,X V Q F H G B L J M P D K C T S W R N Z,5f761e5106b786071f45b4aa,25,Mężczyzna,2022-06-11_11h43.42.771,task,2021.1.4,Win32,142.7347987,6299f149e92ead563fba08ef,62a45d14cffe747c8b5ef0f2,,,,,,,,,,,,,,,,,,,,,,,,,,,,,,,,,,,,,,,,,,,,,,,,,,,,,,,,,,,,,,,,,,,,,,,,,,,,,,,,,,,,,,,,,,,,,,,,,,,,,
,,,,,,4,0,4,0,1,X V Q F H G B L J M P D K C T S W R N Z,5f761e5106b786071f45b4aa,25,Mężczyzna,2022-06-11_11h43.42.771,task,2021.1.4,Win32,142.7347987,6299f149e92ead563fba08ef,62a45d14cffe747c8b5ef0f2,,,,,,,,,,,,,,,,,,,,,,,,,,,,,,,,,,,,,,,,,,,,,,,,,,,,,,,,,,,,,,,,,,,,,,,,,,,,,,,,,,,,,,,,,,,,,,,,,,,,,
,,,,,,5,0,5,0,1,X V Q F H G B L J M P D K C T S W R N Z,5f761e5106b786071f45b4aa,25,Mężczyzna,2022-06-11_11h43.42.771,task,2021.1.4,Win32,142.7347987,6299f149e92ead563fba08ef,62a45d14cffe747c8b5ef0f2,,,,,,,,,,,,,,,,,,,,,,,,,,,,,,,,,,,,,,,,,,,,,,,,,,,,,,,,,,,,,,,,,,,,,,,,,,,,,,,,,,,,,,,,,,,,,,,,,,,,,
,,,,,,6,0,6,0,1,X V Q F H G B L J M P D K C T S W R N Z,5f761e5106b786071f45b4aa,25,Mężczyzna,2022-06-11_11h43.42.771,task,2021.1.4,Win32,142.7347987,6299f149e92ead563fba08ef,62a45d14cffe747c8b5ef0f2,,,,,,,,,,,,,,,,,,,,,,,,,,,,,,,,,,,,,,,,,,,,,,,,,,,,,,,,,,,,,,,,,,,,,,,,,,,,,,,,,,,,,,,,,,,,,,,,,,,,,
,,,,,,7,0,7,0,1,X V Q F H G B L J M P D K C T S W R N Z,5f761e5106b786071f45b4aa,25,Mężczyzna,2022-06-11_11h43.42.771,task,2021.1.4,Win32,142.7347987,6299f149e92ead563fba08ef,62a45d14cffe747c8b5ef0f2,,,,,,,,,,,,,,,,,,,,,,,,,,,,,,,,,,,,,,,,,,,,,,,,,,,,,,,,,,,,,,,,,,,,,,,,,,,,,,,,,,,,,,,,,,,,,,,,,,,,,
,,,,,,,,,,,,5f761e5106b786071f45b4aa,25,Mężczyzna,2022-06-11_11h43.42.771,task,2021.1.4,Win32,142.7347987,6299f149e92ead563fba08ef,62a45d14cffe747c8b5ef0f2,vnhppvch,"[""v"",""n"",""h"",""p"",""p"",""v"",""c"",""h""]","[1.1388000000119405,1.430499999999995,1.6804000000357746,2.4171000000238223,2.625400000035768,3.3471999999881064,3.680600000023844,4.499699999988081,5.73599999999999]",0,VNHPPHCV,12,0,12,0,1,,,,,,,,,,,,,,,,,,,,,,,,,,,,,,,,,,,,,,,,,,,,,,,,,,,,,,,,,,,,,,,,,,,,,,,,,,,,,,,,,,,,,,,,,,,
,,,,,,0,0,0,0,1,X V Q F H G B L J M P D K C T S W R N Z,5f761e5106b786071f45b4aa,25,Mężczyzna,2022-06-11_11h43.42.771,task,2021.1.4,Win32,142.7347987,6299f149e92ead563fba08ef,62a45d14cffe747c8b5ef0f2,,,,,,,,,,,,,,,,,,,,,,,,,,,,,,,,,,,,,,,,,,,,,,,,,,,,,,,,,,,,,,,,,,,,,,,,,,,,,,,,,,,,,,,,,,,,,,,,,,,,,
,,,,,,1,0,1,0,1,X V Q F H G B L J M P D K C T S W R N Z,5f761e5106b786071f45b4aa,25,Mężczyzna,2022-06-11_11h43.42.771,task,2021.1.4,Win32,142.7347987,6299f149e92ead563fba08ef,62a45d14cffe747c8b5ef0f2,,,,,,,,,,,,,,,,,,,,,,,,,,,,,,,,,,,,,,,,,,,,,,,,,,,,,,,,,,,,,,,,,,,,,,,,,,,,,,,,,,,,,,,,,,,,,,,,,,,,,
,,,,,,2,0,2,0,1,X V Q F H G B L J M P D K C T S W R N Z,5f761e5106b786071f45b4aa,25,Mężczyzna,2022-06-11_11h43.42.771,task,2021.1.4,Win32,142.7347987,6299f149e92ead563fba08ef,62a45d14cffe747c8b5ef0f2,,,,,,,,,,,,,,,,,,,,,,,,,,,,,,,,,,,,,,,,,,,,,,,,,,,,,,,,,,,,,,,,,,,,,,,,,,,,,,,,,,,,,,,,,,,,,,,,,,,,,
,,,,,,3,0,3,0,1,X V Q F H G B L J M P D K C T S W R N Z,5f761e5106b786071f45b4aa,25,Mężczyzna,2022-06-11_11h43.42.771,task,2021.1.4,Win32,142.7347987,6299f149e92ead563fba08ef,62a45d14cffe747c8b5ef0f2,,,,,,,,,,,,,,,,,,,,,,,,,,,,,,,,,,,,,,,,,,,,,,,,,,,,,,,,,,,,,,,,,,,,,,,,,,,,,,,,,,,,,,,,,,,,,,,,,,,,,
,,,,,,4,0,4,0,1,X V Q F H G B L J M P D K C T S W R N Z,5f761e5106b786071f45b4aa,25,Mężczyzna,2022-06-11_11h43.42.771,task,2021.1.4,Win32,142.7347987,6299f149e92ead563fba08ef,62a45d14cffe747c8b5ef0f2,,,,,,,,,,,,,,,,,,,,,,,,,,,,,,,,,,,,,,,,,,,,,,,,,,,,,,,,,,,,,,,,,,,,,,,,,,,,,,,,,,,,,,,,,,,,,,,,,,,,,
,,,,,,5,0,5,0,1,X V Q F H G B L J M P D K C T S W R N Z,5f761e5106b786071f45b4aa,25,Mężczyzna,2022-06-11_11h43.42.771,task,2021.1.4,Win32,142.7347987,6299f149e92ead563fba08ef,62a45d14cffe747c8b5ef0f2,,,,,,,,,,,,,,,,,,,,,,,,,,,,,,,,,,,,,,,,,,,,,,,,,,,,,,,,,,,,,,,,,,,,,,,,,,,,,,,,,,,,,,,,,,,,,,,,,,,,,
,,,,,,6,0,6,0,1,X V Q F H G B L J M P D K C T S W R N Z,5f761e5106b786071f45b4aa,25,Mężczyzna,2022-06-11_11h43.42.771,task,2021.1.4,Win32,142.7347987,6299f149e92ead563fba08ef,62a45d14cffe747c8b5ef0f2,,,,,,,,,,,,,,,,,,,,,,,,,,,,,,,,,,,,,,,,,,,,,,,,,,,,,,,,,,,,,,,,,,,,,,,,,,,,,,,,,,,,,,,,,,,,,,,,,,,,,
,,,,,,7,0,7,0,1,X V Q F H G B L J M P D K C T S W R N Z,5f761e5106b786071f45b4aa,25,Mężczyzna,2022-06-11_11h43.42.771,task,2021.1.4,Win32,142.7347987,6299f149e92ead563fba08ef,62a45d14cffe747c8b5ef0f2,,,,,,,,,,,,,,,,,,,,,,,,,,,,,,,,,,,,,,,,,,,,,,,,,,,,,,,,,,,,,,,,,,,,,,,,,,,,,,,,,,,,,,,,,,,,,,,,,,,,,
,,,,,,,,,,,,5f761e5106b786071f45b4aa,25,Mężczyzna,2022-06-11_11h43.42.771,task,2021.1.4,Win32,142.7347987,6299f149e92ead563fba08ef,62a45d14cffe747c8b5ef0f2,rxbzzpbm,"[""r"",""x"",""b"",""z"",""z"",""p"",""b"",""m""]","[1.661800000011965,1.9953000000119232,4.590100000023881,4.95150000000001,5.202100000023847,5.868000000000052,6.175399999976207,6.402899999976171,8.092800000011948]",1,RXBZZPBM,13,0,13,0,1,,,,,,,,,,,,,,,,,,,,,,,,,,,,,,,,,,,,,,,,,,,,,,,,,,,,,,,,,,,,,,,,,,,,,,,,,,,,,,,,,,,,,,,,,,,
,,,,,,0,0,0,0,1,X V Q F H G B L J M P D K C T S W R N Z,5f761e5106b786071f45b4aa,25,Mężczyzna,2022-06-11_11h43.42.771,task,2021.1.4,Win32,142.7347987,6299f149e92ead563fba08ef,62a45d14cffe747c8b5ef0f2,,,,,,,,,,,,,,,,,,,,,,,,,,,,,,,,,,,,,,,,,,,,,,,,,,,,,,,,,,,,,,,,,,,,,,,,,,,,,,,,,,,,,,,,,,,,,,,,,,,,,
,,,,,,1,0,1,0,1,X V Q F H G B L J M P D K C T S W R N Z,5f761e5106b786071f45b4aa,25,Mężczyzna,2022-06-11_11h43.42.771,task,2021.1.4,Win32,142.7347987,6299f149e92ead563fba08ef,62a45d14cffe747c8b5ef0f2,,,,,,,,,,,,,,,,,,,,,,,,,,,,,,,,,,,,,,,,,,,,,,,,,,,,,,,,,,,,,,,,,,,,,,,,,,,,,,,,,,,,,,,,,,,,,,,,,,,,,
,,,,,,2,0,2,0,1,X V Q F H G B L J M P D K C T S W R N Z,5f761e5106b786071f45b4aa,25,Mężczyzna,2022-06-11_11h43.42.771,task,2021.1.4,Win32,142.7347987,6299f149e92ead563fba08ef,62a45d14cffe747c8b5ef0f2,,,,,,,,,,,,,,,,,,,,,,,,,,,,,,,,,,,,,,,,,,,,,,,,,,,,,,,,,,,,,,,,,,,,,,,,,,,,,,,,,,,,,,,,,,,,,,,,,,,,,
,,,,,,3,0,3,0,1,X V Q F H G B L J M P D K C T S W R N Z,5f761e5106b786071f45b4aa,25,Mężczyzna,2022-06-11_11h43.42.771,task,2021.1.4,Win32,142.7347987,6299f149e92ead563fba08ef,62a45d14cffe747c8b5ef0f2,,,,,,,,,,,,,,,,,,,,,,,,,,,,,,,,,,,,,,,,,,,,,,,,,,,,,,,,,,,,,,,,,,,,,,,,,,,,,,,,,,,,,,,,,,,,,,,,,,,,,
,,,,,,4,0,4,0,1,X V Q F H G B L J M P D K C T S W R N Z,5f761e5106b786071f45b4aa,25,Mężczyzna,2022-06-11_11h43.42.771,task,2021.1.4,Win32,142.7347987,6299f149e92ead563fba08ef,62a45d14cffe747c8b5ef0f2,,,,,,,,,,,,,,,,,,,,,,,,,,,,,,,,,,,,,,,,,,,,,,,,,,,,,,,,,,,,,,,,,,,,,,,,,,,,,,,,,,,,,,,,,,,,,,,,,,,,,
,,,,,,5,0,5,0,1,X V Q F H G B L J M P D K C T S W R N Z,5f761e5106b786071f45b4aa,25,Mężczyzna,2022-06-11_11h43.42.771,task,2021.1.4,Win32,142.7347987,6299f149e92ead563fba08ef,62a45d14cffe747c8b5ef0f2,,,,,,,,,,,,,,,,,,,,,,,,,,,,,,,,,,,,,,,,,,,,,,,,,,,,,,,,,,,,,,,,,,,,,,,,,,,,,,,,,,,,,,,,,,,,,,,,,,,,,
,,,,,,6,0,6,0,1,X V Q F H G B L J M P D K C T S W R N Z,5f761e5106b786071f45b4aa,25,Mężczyzna,2022-06-11_11h43.42.771,task,2021.1.4,Win32,142.7347987,6299f149e92ead563fba08ef,62a45d14cffe747c8b5ef0f2,,,,,,,,,,,,,,,,,,,,,,,,,,,,,,,,,,,,,,,,,,,,,,,,,,,,,,,,,,,,,,,,,,,,,,,,,,,,,,,,,,,,,,,,,,,,,,,,,,,,,
,,,,,,7,0,7,0,1,X V Q F H G B L J M P D K C T S W R N Z,5f761e5106b786071f45b4aa,25,Mężczyzna,2022-06-11_11h43.42.771,task,2021.1.4,Win32,142.7347987,6299f149e92ead563fba08ef,62a45d14cffe747c8b5ef0f2,,,,,,,,,,,,,,,,,,,,,,,,,,,,,,,,,,,,,,,,,,,,,,,,,,,,,,,,,,,,,,,,,,,,,,,,,,,,,,,,,,,,,,,,,,,,,,,,,,,,,
,,,,,,,,,,,,5f761e5106b786071f45b4aa,25,Mężczyzna,2022-06-11_11h43.42.771,task,2021.1.4,Win32,142.7347987,6299f149e92ead563fba08ef,62a45d14cffe747c8b5ef0f2,vmxdfpsf,"[""v"",""m"",""x"",""d"",""f"",""p"",""s"",""f""]","[1.0996999999880472,1.5299000000357523,1.8893000000118718,2.2283000000118705,2.7568000000118786,3.2226000000238173,3.9444000000357278,4.256100000023821,5.200999999999965]",0,VMXDMPSF,14,0,14,0,1,,,,,,,,,,,,,,,,,,,,,,,,,,,,,,,,,,,,,,,,,,,,,,,,,,,,,,,,,,,,,,,,,,,,,,,,,,,,,,,,,,,,,,,,,,,
,,,,,,0,0,0,0,1,X V Q F H G B L J M P D K C T S W R N Z,5f761e5106b786071f45b4aa,25,Mężczyzna,2022-06-11_11h43.42.771,task,2021.1.4,Win32,142.7347987,6299f149e92ead563fba08ef,62a45d14cffe747c8b5ef0f2,,,,,,,,,,,,,,,,,,,,,,,,,,,,,,,,,,,,,,,,,,,,,,,,,,,,,,,,,,,,,,,,,,,,,,,,,,,,,,,,,,,,,,,,,,,,,,,,,,,,,
,,,,,,1,0,1,0,1,X V Q F H G B L J M P D K C T S W R N Z,5f761e5106b786071f45b4aa,25,Mężczyzna,2022-06-11_11h43.42.771,task,2021.1.4,Win32,142.7347987,6299f149e92ead563fba08ef,62a45d14cffe747c8b5ef0f2,,,,,,,,,,,,,,,,,,,,,,,,,,,,,,,,,,,,,,,,,,,,,,,,,,,,,,,,,,,,,,,,,,,,,,,,,,,,,,,,,,,,,,,,,,,,,,,,,,,,,
,,,,,,2,0,2,0,1,X V Q F H G B L J M P D K C T S W R N Z,5f761e5106b786071f45b4aa,25,Mężczyzna,2022-06-11_11h43.42.771,task,2021.1.4,Win32,142.7347987,6299f149e92ead563fba08ef,62a45d14cffe747c8b5ef0f2,,,,,,,,,,,,,,,,,,,,,,,,,,,,,,,,,,,,,,,,,,,,,,,,,,,,,,,,,,,,,,,,,,,,,,,,,,,,,,,,,,,,,,,,,,,,,,,,,,,,,
,,,,,,3,0,3,0,1,X V Q F H G B L J M P D K C T S W R N Z,5f761e5106b786071f45b4aa,25,Mężczyzna,2022-06-11_11h43.42.771,task,2021.1.4,Win32,142.7347987,6299f149e92ead563fba08ef,62a45d14cffe747c8b5ef0f2,,,,,,,,,,,,,,,,,,,,,,,,,,,,,,,,,,,,,,,,,,,,,,,,,,,,,,,,,,,,,,,,,,,,,,,,,,,,,,,,,,,,,,,,,,,,,,,,,,,,,
,,,,,,4,0,4,0,1,X V Q F H G B L J M P D K C T S W R N Z,5f761e5106b786071f45b4aa,25,Mężczyzna,2022-06-11_11h43.42.771,task,2021.1.4,Win32,142.7347987,6299f149e92ead563fba08ef,62a45d14cffe747c8b5ef0f2,,,,,,,,,,,,,,,,,,,,,,,,,,,,,,,,,,,,,,,,,,,,,,,,,,,,,,,,,,,,,,,,,,,,,,,,,,,,,,,,,,,,,,,,,,,,,,,,,,,,,
,,,,,,5,0,5,0,1,X V Q F H G B L J M P D K C T S W R N Z,5f761e5106b786071f45b4aa,25,Mężczyzna,2022-06-11_11h43.42.771,task,2021.1.4,Win32,142.7347987,6299f149e92ead563fba08ef,62a45d14cffe747c8b5ef0f2,,,,,,,,,,,,,,,,,,,,,,,,,,,,,,,,,,,,,,,,,,,,,,,,,,,,,,,,,,,,,,,,,,,,,,,,,,,,,,,,,,,,,,,,,,,,,,,,,,,,,
,,,,,,6,0,6,0,1,X V Q F H G B L J M P D K C T S W R N Z,5f761e5106b786071f45b4aa,25,Mężczyzna,2022-06-11_11h43.42.771,task,2021.1.4,Win32,142.7347987,6299f149e92ead563fba08ef,62a45d14cffe747c8b5ef0f2,,,,,,,,,,,,,,,,,,,,,,,,,,,,,,,,,,,,,,,,,,,,,,,,,,,,,,,,,,,,,,,,,,,,,,,,,,,,,,,,,,,,,,,,,,,,,,,,,,,,,
,,,,,,7,0,7,0,1,X V Q F H G B L J M P D K C T S W R N Z,5f761e5106b786071f45b4aa,25,Mężczyzna,2022-06-11_11h43.42.771,task,2021.1.4,Win32,142.7347987,6299f149e92ead563fba08ef,62a45d14cffe747c8b5ef0f2,,,,,,,,,,,,,,,,,,,,,,,,,,,,,,,,,,,,,,,,,,,,,,,,,,,,,,,,,,,,,,,,,,,,,,,,,,,,,,,,,,,,,,,,,,,,,,,,,,,,,
,,,,,,,,,,,,5f761e5106b786071f45b4aa,25,Mężczyzna,2022-06-11_11h43.42.771,task,2021.1.4,Win32,142.7347987,6299f149e92ead563fba08ef,62a45d14cffe747c8b5ef0f2,ktcfvtpj,"[""k"",""t"",""c"",""f"",""v"",""t"",""p"",""j""]","[0.8411000000238005,1.5491999999880477,3.426600000023825,3.722499999999968,4.152900000035743,4.423999999999978,4.896300000011877,5.133600000023819,5.895600000023819]",1,KTCFVTPJ,15,0,15,0,1,,,,,,,,,,,,,,,,,,,,,,,,,,,,,,,,,,,,,,,,,,,,,,,,,,,,,,,,,,,,,,,,,,,,,,,,,,,,,,,,,,,,,,,,,,,
,,,,,,0,0,0,0,1,X V Q F H G B L J M P D K C T S W R N Z,5f761e5106b786071f45b4aa,25,Mężczyzna,2022-06-11_11h43.42.771,task,2021.1.4,Win32,142.7347987,6299f149e92ead563fba08ef,62a45d14cffe747c8b5ef0f2,,,,,,,,,,,,,,,,,,,,,,,,,,,,,,,,,,,,,,,,,,,,,,,,,,,,,,,,,,,,,,,,,,,,,,,,,,,,,,,,,,,,,,,,,,,,,,,,,,,,,
,,,,,,1,0,1,0,1,X V Q F H G B L J M P D K C T S W R N Z,5f761e5106b786071f45b4aa,25,Mężczyzna,2022-06-11_11h43.42.771,task,2021.1.4,Win32,142.7347987,6299f149e92ead563fba08ef,62a45d14cffe747c8b5ef0f2,,,,,,,,,,,,,,,,,,,,,,,,,,,,,,,,,,,,,,,,,,,,,,,,,,,,,,,,,,,,,,,,,,,,,,,,,,,,,,,,,,,,,,,,,,,,,,,,,,,,,
,,,,,,2,0,2,0,1,X V Q F H G B L J M P D K C T S W R N Z,5f761e5106b786071f45b4aa,25,Mężczyzna,2022-06-11_11h43.42.771,task,2021.1.4,Win32,142.7347987,6299f149e92ead563fba08ef,62a45d14cffe747c8b5ef0f2,,,,,,,,,,,,,,,,,,,,,,,,,,,,,,,,,,,,,,,,,,,,,,,,,,,,,,,,,,,,,,,,,,,,,,,,,,,,,,,,,,,,,,,,,,,,,,,,,,,,,
,,,,,,3,0,3,0,1,X V Q F H G B L J M P D K C T S W R N Z,5f761e5106b786071f45b4aa,25,Mężczyzna,2022-06-11_11h43.42.771,task,2021.1.4,Win32,142.7347987,6299f149e92ead563fba08ef,62a45d14cffe747c8b5ef0f2,,,,,,,,,,,,,,,,,,,,,,,,,,,,,,,,,,,,,,,,,,,,,,,,,,,,,,,,,,,,,,,,,,,,,,,,,,,,,,,,,,,,,,,,,,,,,,,,,,,,,
,,,,,,4,0,4,0,1,X V Q F H G B L J M P D K C T S W R N Z,5f761e5106b786071f45b4aa,25,Mężczyzna,2022-06-11_11h43.42.771,task,2021.1.4,Win32,142.7347987,6299f149e92ead563fba08ef,62a45d14cffe747c8b5ef0f2,,,,,,,,,,,,,,,,,,,,,,,,,,,,,,,,,,,,,,,,,,,,,,,,,,,,,,,,,,,,,,,,,,,,,,,,,,,,,,,,,,,,,,,,,,,,,,,,,,,,,
,,,,,,5,0,5,0,1,X V Q F H G B L J M P D K C T S W R N Z,5f761e5106b786071f45b4aa,25,Mężczyzna,2022-06-11_11h43.42.771,task,2021.1.4,Win32,142.7347987,6299f149e92ead563fba08ef,62a45d14cffe747c8b5ef0f2,,,,,,,,,,,,,,,,,,,,,,,,,,,,,,,,,,,,,,,,,,,,,,,,,,,,,,,,,,,,,,,,,,,,,,,,,,,,,,,,,,,,,,,,,,,,,,,,,,,,,
,,,,,,6,0,6,0,1,X V Q F H G B L J M P D K C T S W R N Z,5f761e5106b786071f45b4aa,25,Mężczyzna,2022-06-11_11h43.42.771,task,2021.1.4,Win32,142.7347987,6299f149e92ead563fba08ef,62a45d14cffe747c8b5ef0f2,,,,,,,,,,,,,,,,,,,,,,,,,,,,,,,,,,,,,,,,,,,,,,,,,,,,,,,,,,,,,,,,,,,,,,,,,,,,,,,,,,,,,,,,,,,,,,,,,,,,,
,,,,,,7,0,7,0,1,X V Q F H G B L J M P D K C T S W R N Z,5f761e5106b786071f45b4aa,25,Mężczyzna,2022-06-11_11h43.42.771,task,2021.1.4,Win32,142.7347987,6299f149e92ead563fba08ef,62a45d14cffe747c8b5ef0f2,,,,,,,,,,,,,,,,,,,,,,,,,,,,,,,,,,,,,,,,,,,,,,,,,,,,,,,,,,,,,,,,,,,,,,,,,,,,,,,,,,,,,,,,,,,,,,,,,,,,,
,,,,,,8,0,8,0,1,X V Q F H G B L J M P D K C T S W R N Z,5f761e5106b786071f45b4aa,25,Mężczyzna,2022-06-11_11h43.42.771,task,2021.1.4,Win32,142.7347987,6299f149e92ead563fba08ef,62a45d14cffe747c8b5ef0f2,,,,,,,,,,,,,,,,,,,,,,,,,,,,,,,,,,,,,,,,,,,,,,,,,,,,,,,,,,,,,,,,,,,,,,,,,,,,,,,,,,,,,,,,,,,,,,,,,,,,,
,,,,,,,,,,,,5f761e5106b786071f45b4aa,25,Mężczyzna,2022-06-11_11h43.42.771,task,2021.1.4,Win32,142.7347987,6299f149e92ead563fba08ef,62a45d14cffe747c8b5ef0f2,smzwhttdq,"[""s"",""m"",""z"",""w"",""h"",""t"",""t"",""d"",""q""]","[1.2088000000118768,1.8059999999999832,2.1814999999999714,2.4174999999999613,3.500899999976127,3.7461999999880504,3.986800000011897,4.204600000023788,4.474399999976129,5.660800000011875]",1,SMZWHTTDQ,16,0,16,0,1,,,,,,,,,,,,,,,,,,,,,,,,,,,,,,,,,,,,,,,,,,,,,,,,,,,,,,,,,,,,,,,,,,,,,,,,,,,,,,,,,,,,,,,,,,,
,,,,,,0,0,0,0,1,X V Q F H G B L J M P D K C T S W R N Z,5f761e5106b786071f45b4aa,25,Mężczyzna,2022-06-11_11h43.42.771,task,2021.1.4,Win32,142.7347987,6299f149e92ead563fba08ef,62a45d14cffe747c8b5ef0f2,,,,,,,,,,,,,,,,,,,,,,,,,,,,,,,,,,,,,,,,,,,,,,,,,,,,,,,,,,,,,,,,,,,,,,,,,,,,,,,,,,,,,,,,,,,,,,,,,,,,,
,,,,,,1,0,1,0,1,X V Q F H G B L J M P D K C T S W R N Z,5f761e5106b786071f45b4aa,25,Mężczyzna,2022-06-11_11h43.42.771,task,2021.1.4,Win32,142.7347987,6299f149e92ead563fba08ef,62a45d14cffe747c8b5ef0f2,,,,,,,,,,,,,,,,,,,,,,,,,,,,,,,,,,,,,,,,,,,,,,,,,,,,,,,,,,,,,,,,,,,,,,,,,,,,,,,,,,,,,,,,,,,,,,,,,,,,,
,,,,,,2,0,2,0,1,X V Q F H G B L J M P D K C T S W R N Z,5f761e5106b786071f45b4aa,25,Mężczyzna,2022-06-11_11h43.42.771,task,2021.1.4,Win32,142.7347987,6299f149e92ead563fba08ef,62a45d14cffe747c8b5ef0f2,,,,,,,,,,,,,,,,,,,,,,,,,,,,,,,,,,,,,,,,,,,,,,,,,,,,,,,,,,,,,,,,,,,,,,,,,,,,,,,,,,,,,,,,,,,,,,,,,,,,,
,,,,,,3,0,3,0,1,X V Q F H G B L J M P D K C T S W R N Z,5f761e5106b786071f45b4aa,25,Mężczyzna,2022-06-11_11h43.42.771,task,2021.1.4,Win32,142.7347987,6299f149e92ead563fba08ef,62a45d14cffe747c8b5ef0f2,,,,,,,,,,,,,,,,,,,,,,,,,,,,,,,,,,,,,,,,,,,,,,,,,,,,,,,,,,,,,,,,,,,,,,,,,,,,,,,,,,,,,,,,,,,,,,,,,,,,,
,,,,,,4,0,4,0,1,X V Q F H G B L J M P D K C T S W R N Z,5f761e5106b786071f45b4aa,25,Mężczyzna,2022-06-11_11h43.42.771,task,2021.1.4,Win32,142.7347987,6299f149e92ead563fba08ef,62a45d14cffe747c8b5ef0f2,,,,,,,,,,,,,,,,,,,,,,,,,,,,,,,,,,,,,,,,,,,,,,,,,,,,,,,,,,,,,,,,,,,,,,,,,,,,,,,,,,,,,,,,,,,,,,,,,,,,,
,,,,,,5,0,5,0,1,X V Q F H G B L J M P D K C T S W R N Z,5f761e5106b786071f45b4aa,25,Mężczyzna,2022-06-11_11h43.42.771,task,2021.1.4,Win32,142.7347987,6299f149e92ead563fba08ef,62a45d14cffe747c8b5ef0f2,,,,,,,,,,,,,,,,,,,,,,,,,,,,,,,,,,,,,,,,,,,,,,,,,,,,,,,,,,,,,,,,,,,,,,,,,,,,,,,,,,,,,,,,,,,,,,,,,,,,,
,,,,,,6,0,6,0,1,X V Q F H G B L J M P D K C T S W R N Z,5f761e5106b786071f45b4aa,25,Mężczyzna,2022-06-11_11h43.42.771,task,2021.1.4,Win32,142.7347987,6299f149e92ead563fba08ef,62a45d14cffe747c8b5ef0f2,,,,,,,,,,,,,,,,,,,,,,,,,,,,,,,,,,,,,,,,,,,,,,,,,,,,,,,,,,,,,,,,,,,,,,,,,,,,,,,,,,,,,,,,,,,,,,,,,,,,,
,,,,,,7,0,7,0,1,X V Q F H G B L J M P D K C T S W R N Z,5f761e5106b786071f45b4aa,25,Mężczyzna,2022-06-11_11h43.42.771,task,2021.1.4,Win32,142.7347987,6299f149e92ead563fba08ef,62a45d14cffe747c8b5ef0f2,,,,,,,,,,,,,,,,,,,,,,,,,,,,,,,,,,,,,,,,,,,,,,,,,,,,,,,,,,,,,,,,,,,,,,,,,,,,,,,,,,,,,,,,,,,,,,,,,,,,,
,,,,,,8,0,8,0,1,X V Q F H G B L J M P D K C T S W R N Z,5f761e5106b786071f45b4aa,25,Mężczyzna,2022-06-11_11h43.42.771,task,2021.1.4,Win32,142.7347987,6299f149e92ead563fba08ef,62a45d14cffe747c8b5ef0f2,,,,,,,,,,,,,,,,,,,,,,,,,,,,,,,,,,,,,,,,,,,,,,,,,,,,,,,,,,,,,,,,,,,,,,,,,,,,,,,,,,,,,,,,,,,,,,,,,,,,,
,,,,,,,,,,,,5f761e5106b786071f45b4aa,25,Mężczyzna,2022-06-11_11h43.42.771,task,2021.1.4,Win32,142.7347987,6299f149e92ead563fba08ef,62a45d14cffe747c8b5ef0f2,skhmsbrkt,"[""s"",""k"",""h"",""m"",""s"",""b"",""r"",""k"",""t""]","[0.9451000000238423,1.4234000000357696,1.667400000035741,1.932300000011935,2.292400000035741,2.6970000000000027,2.951100000023814,3.362300000011885,3.6466999999880727,4.618800000011902]",0,SKHMRBRKJ,17,0,17,0,1,,,,,,,,,,,,,,,,,,,,,,,,,,,,,,,,,,,,,,,,,,,,,,,,,,,,,,,,,,,,,,,,,,,,,,,,,,,,,,,,,,,,,,,,,,,
,,,,,,0,0,0,0,1,X V Q F H G B L J M P D K C T S W R N Z,5f761e5106b786071f45b4aa,25,Mężczyzna,2022-06-11_11h43.42.771,task,2021.1.4,Win32,142.7347987,6299f149e92ead563fba08ef,62a45d14cffe747c8b5ef0f2,,,,,,,,,,,,,,,,,,,,,,,,,,,,,,,,,,,,,,,,,,,,,,,,,,,,,,,,,,,,,,,,,,,,,,,,,,,,,,,,,,,,,,,,,,,,,,,,,,,,,
,,,,,,1,0,1,0,1,X V Q F H G B L J M P D K C T S W R N Z,5f761e5106b786071f45b4aa,25,Mężczyzna,2022-06-11_11h43.42.771,task,2021.1.4,Win32,142.7347987,6299f149e92ead563fba08ef,62a45d14cffe747c8b5ef0f2,,,,,,,,,,,,,,,,,,,,,,,,,,,,,,,,,,,,,,,,,,,,,,,,,,,,,,,,,,,,,,,,,,,,,,,,,,,,,,,,,,,,,,,,,,,,,,,,,,,,,
,,,,,,2,0,2,0,1,X V Q F H G B L J M P D K C T S W R N Z,5f761e5106b786071f45b4aa,25,Mężczyzna,2022-06-11_11h43.42.771,task,2021.1.4,Win32,142.7347987,6299f149e92ead563fba08ef,62a45d14cffe747c8b5ef0f2,,,,,,,,,,,,,,,,,,,,,,,,,,,,,,,,,,,,,,,,,,,,,,,,,,,,,,,,,,,,,,,,,,,,,,,,,,,,,,,,,,,,,,,,,,,,,,,,,,,,,
,,,,,,3,0,3,0,1,X V Q F H G B L J M P D K C T S W R N Z,5f761e5106b786071f45b4aa,25,Mężczyzna,2022-06-11_11h43.42.771,task,2021.1.4,Win32,142.7347987,6299f149e92ead563fba08ef,62a45d14cffe747c8b5ef0f2,,,,,,,,,,,,,,,,,,,,,,,,,,,,,,,,,,,,,,,,,,,,,,,,,,,,,,,,,,,,,,,,,,,,,,,,,,,,,,,,,,,,,,,,,,,,,,,,,,,,,
,,,,,,4,0,4,0,1,X V Q F H G B L J M P D K C T S W R N Z,5f761e5106b786071f45b4aa,25,Mężczyzna,2022-06-11_11h43.42.771,task,2021.1.4,Win32,142.7347987,6299f149e92ead563fba08ef,62a45d14cffe747c8b5ef0f2,,,,,,,,,,,,,,,,,,,,,,,,,,,,,,,,,,,,,,,,,,,,,,,,,,,,,,,,,,,,,,,,,,,,,,,,,,,,,,,,,,,,,,,,,,,,,,,,,,,,,
,,,,,,5,0,5,0,1,X V Q F H G B L J M P D K C T S W R N Z,5f761e5106b786071f45b4aa,25,Mężczyzna,2022-06-11_11h43.42.771,task,2021.1.4,Win32,142.7347987,6299f149e92ead563fba08ef,62a45d14cffe747c8b5ef0f2,,,,,,,,,,,,,,,,,,,,,,,,,,,,,,,,,,,,,,,,,,,,,,,,,,,,,,,,,,,,,,,,,,,,,,,,,,,,,,,,,,,,,,,,,,,,,,,,,,,,,
,,,,,,6,0,6,0,1,X V Q F H G B L J M P D K C T S W R N Z,5f761e5106b786071f45b4aa,25,Mężczyzna,2022-06-11_11h43.42.771,task,2021.1.4,Win32,142.7347987,6299f149e92ead563fba08ef,62a45d14cffe747c8b5ef0f2,,,,,,,,,,,,,,,,,,,,,,,,,,,,,,,,,,,,,,,,,,,,,,,,,,,,,,,,,,,,,,,,,,,,,,,,,,,,,,,,,,,,,,,,,,,,,,,,,,,,,
,,,,,,7,0,7,0,1,X V Q F H G B L J M P D K C T S W R N Z,5f761e5106b786071f45b4aa,25,Mężczyzna,2022-06-11_11h43.42.771,task,2021.1.4,Win32,142.7347987,6299f149e92ead563fba08ef,62a45d14cffe747c8b5ef0f2,,,,,,,,,,,,,,,,,,,,,,,,,,,,,,,,,,,,,,,,,,,,,,,,,,,,,,,,,,,,,,,,,,,,,,,,,,,,,,,,,,,,,,,,,,,,,,,,,,,,,
,,,,,,8,0,8,0,1,X V Q F H G B L J M P D K C T S W R N Z,5f761e5106b786071f45b4aa,25,Mężczyzna,2022-06-11_11h43.42.771,task,2021.1.4,Win32,142.7347987,6299f149e92ead563fba08ef,62a45d14cffe747c8b5ef0f2,,,,,,,,,,,,,,,,,,,,,,,,,,,,,,,,,,,,,,,,,,,,,,,,,,,,,,,,,,,,,,,,,,,,,,,,,,,,,,,,,,,,,,,,,,,,,,,,,,,,,
,,,,,,,,,,,,5f761e5106b786071f45b4aa,25,Mężczyzna,2022-06-11_11h43.42.771,task,2021.1.4,Win32,142.7347987,6299f149e92ead563fba08ef,62a45d14cffe747c8b5ef0f2,kzhjdzppb,"[""k"",""z"",""h"",""j"",""d"",""z"",""p"",""p"",""b""]","[0.9361999999880481,1.3248999999761395,2.286699999988059,2.5014999999999645,2.8070999999642368,2.986800000011897,3.576399999976161,3.683099999964213,3.9245999999642436,4.57469999998807]",1,KZHJDZPPB,18,0,18,0,1,,,,,,,,,,,,,,,,,,,,,,,,,,,,,,,,,,,,,,,,,,,,,,,,,,,,,,,,,,,,,,,,,,,,,,,,,,,,,,,,,,,,,,,,,,,
,,,,,,0,0,0,0,1,X V Q F H G B L J M P D K C T S W R N Z,5f761e5106b786071f45b4aa,25,Mężczyzna,2022-06-11_11h43.42.771,task,2021.1.4,Win32,142.7347987,6299f149e92ead563fba08ef,62a45d14cffe747c8b5ef0f2,,,,,,,,,,,,,,,,,,,,,,,,,,,,,,,,,,,,,,,,,,,,,,,,,,,,,,,,,,,,,,,,,,,,,,,,,,,,,,,,,,,,,,,,,,,,,,,,,,,,,
,,,,,,1,0,1,0,1,X V Q F H G B L J M P D K C T S W R N Z,5f761e5106b786071f45b4aa,25,Mężczyzna,2022-06-11_11h43.42.771,task,2021.1.4,Win32,142.7347987,6299f149e92ead563fba08ef,62a45d14cffe747c8b5ef0f2,,,,,,,,,,,,,,,,,,,,,,,,,,,,,,,,,,,,,,,,,,,,,,,,,,,,,,,,,,,,,,,,,,,,,,,,,,,,,,,,,,,,,,,,,,,,,,,,,,,,,
,,,,,,2,0,2,0,1,X V Q F H G B L J M P D K C T S W R N Z,5f761e5106b786071f45b4aa,25,Mężczyzna,2022-06-11_11h43.42.771,task,2021.1.4,Win32,142.7347987,6299f149e92ead563fba08ef,62a45d14cffe747c8b5ef0f2,,,,,,,,,,,,,,,,,,,,,,,,,,,,,,,,,,,,,,,,,,,,,,,,,,,,,,,,,,,,,,,,,,,,,,,,,,,,,,,,,,,,,,,,,,,,,,,,,,,,,
,,,,,,3,0,3,0,1,X V Q F H G B L J M P D K C T S W R N Z,5f761e5106b786071f45b4aa,25,Mężczyzna,2022-06-11_11h43.42.771,task,2021.1.4,Win32,142.7347987,6299f149e92ead563fba08ef,62a45d14cffe747c8b5ef0f2,,,,,,,,,,,,,,,,,,,,,,,,,,,,,,,,,,,,,,,,,,,,,,,,,,,,,,,,,,,,,,,,,,,,,,,,,,,,,,,,,,,,,,,,,,,,,,,,,,,,,
,,,,,,4,0,4,0,1,X V Q F H G B L J M P D K C T S W R N Z,5f761e5106b786071f45b4aa,25,Mężczyzna,2022-06-11_11h43.42.771,task,2021.1.4,Win32,142.7347987,6299f149e92ead563fba08ef,62a45d14cffe747c8b5ef0f2,,,,,,,,,,,,,,,,,,,,,,,,,,,,,,,,,,,,,,,,,,,,,,,,,,,,,,,,,,,,,,,,,,,,,,,,,,,,,,,,,,,,,,,,,,,,,,,,,,,,,
,,,,,,5,0,5,0,1,X V Q F H G B L J M P D K C T S W R N Z,5f761e5106b786071f45b4aa,25,Mężczyzna,2022-06-11_11h43.42.771,task,2021.1.4,Win32,142.7347987,6299f149e92ead563fba08ef,62a45d14cffe747c8b5ef0f2,,,,,,,,,,,,,,,,,,,,,,,,,,,,,,,,,,,,,,,,,,,,,,,,,,,,,,,,,,,,,,,,,,,,,,,,,,,,,,,,,,,,,,,,,,,,,,,,,,,,,
,,,,,,6,0,6,0,1,X V Q F H G B L J M P D K C T S W R N Z,5f761e5106b786071f45b4aa,25,Mężczyzna,2022-06-11_11h43.42.771,task,2021.1.4,Win32,142.7347987,6299f149e92ead563fba08ef,62a45d14cffe747c8b5ef0f2,,,,,,,,,,,,,,,,,,,,,,,,,,,,,,,,,,,,,,,,,,,,,,,,,,,,,,,,,,,,,,,,,,,,,,,,,,,,,,,,,,,,,,,,,,,,,,,,,,,,,
,,,,,,7,0,7,0,1,X V Q F H G B L J M P D K C T S W R N Z,5f761e5106b786071f45b4aa,25,Mężczyzna,2022-06-11_11h43.42.771,task,2021.1.4,Win32,142.7347987,6299f149e92ead563fba08ef,62a45d14cffe747c8b5ef0f2,,,,,,,,,,,,,,,,,,,,,,,,,,,,,,,,,,,,,,,,,,,,,,,,,,,,,,,,,,,,,,,,,,,,,,,,,,,,,,,,,,,,,,,,,,,,,,,,,,,,,
,,,,,,8,0,8,0,1,X V Q F H G B L J M P D K C T S W R N Z,5f761e5106b786071f45b4aa,25,Mężczyzna,2022-06-11_11h43.42.771,task,2021.1.4,Win32,142.7347987,6299f149e92ead563fba08ef,62a45d14cffe747c8b5ef0f2,,,,,,,,,,,,,,,,,,,,,,,,,,,,,,,,,,,,,,,,,,,,,,,,,,,,,,,,,,,,,,,,,,,,,,,,,,,,,,,,,,,,,,,,,,,,,,,,,,,,,
,,,,,,9,0,9,0,1,X V Q F H G B L J M P D K C T S W R N Z,5f761e5106b786071f45b4aa,25,Mężczyzna,2022-06-11_11h43.42.771,task,2021.1.4,Win32,142.7347987,6299f149e92ead563fba08ef,62a45d14cffe747c8b5ef0f2,,,,,,,,,,,,,,,,,,,,,,,,,,,,,,,,,,,,,,,,,,,,,,,,,,,,,,,,,,,,,,,,,,,,,,,,,,,,,,,,,,,,,,,,,,,,,,,,,,,,,
,,,,,,,,,,,,5f761e5106b786071f45b4aa,25,Mężczyzna,2022-06-11_11h43.42.771,task,2021.1.4,Win32,142.7347987,6299f149e92ead563fba08ef,62a45d14cffe747c8b5ef0f2,nktkmdtlw,"[""n"",""k"",""t"",""k"",""m"",""d"",""t"",""l"",""w""]","[1.8064999999999714,2.0551999999880763,2.805099999964227,3.2151999999880445,3.424300000011897,3.7148000000119055,4.194599999964225,4.5350999999641886,4.904899999976124,5.765999999999963]",0,NKTKMDTLWR,19,0,19,0,1,,,,,,,,,,,,,,,,,,,,,,,,,,,,,,,,,,,,,,,,,,,,,,,,,,,,,,,,,,,,,,,,,,,,,,,,,,,,,,,,,,,,,,,,,,,
,,,,,,0,0,0,0,1,X V Q F H G B L J M P D K C T S W R N Z,5f761e5106b786071f45b4aa,25,Mężczyzna,2022-06-11_11h43.42.771,task,2021.1.4,Win32,142.7347987,6299f149e92ead563fba08ef,62a45d14cffe747c8b5ef0f2,,,,,,,,,,,,,,,,,,,,,,,,,,,,,,,,,,,,,,,,,,,,,,,,,,,,,,,,,,,,,,,,,,,,,,,,,,,,,,,,,,,,,,,,,,,,,,,,,,,,,
,,,,,,1,0,1,0,1,X V Q F H G B L J M P D K C T S W R N Z,5f761e5106b786071f45b4aa,25,Mężczyzna,2022-06-11_11h43.42.771,task,2021.1.4,Win32,142.7347987,6299f149e92ead563fba08ef,62a45d14cffe747c8b5ef0f2,,,,,,,,,,,,,,,,,,,,,,,,,,,,,,,,,,,,,,,,,,,,,,,,,,,,,,,,,,,,,,,,,,,,,,,,,,,,,,,,,,,,,,,,,,,,,,,,,,,,,
,,,,,,2,0,2,0,1,X V Q F H G B L J M P D K C T S W R N Z,5f761e5106b786071f45b4aa,25,Mężczyzna,2022-06-11_11h43.42.771,task,2021.1.4,Win32,142.7347987,6299f149e92ead563fba08ef,62a45d14cffe747c8b5ef0f2,,,,,,,,,,,,,,,,,,,,,,,,,,,,,,,,,,,,,,,,,,,,,,,,,,,,,,,,,,,,,,,,,,,,,,,,,,,,,,,,,,,,,,,,,,,,,,,,,,,,,
,,,,,,3,0,3,0,1,X V Q F H G B L J M P D K C T S W R N Z,5f761e5106b786071f45b4aa,25,Mężczyzna,2022-06-11_11h43.42.771,task,2021.1.4,Win32,142.7347987,6299f149e92ead563fba08ef,62a45d14cffe747c8b5ef0f2,,,,,,,,,,,,,,,,,,,,,,,,,,,,,,,,,,,,,,,,,,,,,,,,,,,,,,,,,,,,,,,,,,,,,,,,,,,,,,,,,,,,,,,,,,,,,,,,,,,,,
,,,,,,4,0,4,0,1,X V Q F H G B L J M P D K C T S W R N Z,5f761e5106b786071f45b4aa,25,Mężczyzna,2022-06-11_11h43.42.771,task,2021.1.4,Win32,142.7347987,6299f149e92ead563fba08ef,62a45d14cffe747c8b5ef0f2,,,,,,,,,,,,,,,,,,,,,,,,,,,,,,,,,,,,,,,,,,,,,,,,,,,,,,,,,,,,,,,,,,,,,,,,,,,,,,,,,,,,,,,,,,,,,,,,,,,,,
,,,,,,5,0,5,0,1,X V Q F H G B L J M P D K C T S W R N Z,5f761e5106b786071f45b4aa,25,Mężczyzna,2022-06-11_11h43.42.771,task,2021.1.4,Win32,142.7347987,6299f149e92ead563fba08ef,62a45d14cffe747c8b5ef0f2,,,,,,,,,,,,,,,,,,,,,,,,,,,,,,,,,,,,,,,,,,,,,,,,,,,,,,,,,,,,,,,,,,,,,,,,,,,,,,,,,,,,,,,,,,,,,,,,,,,,,
,,,,,,6,0,6,0,1,X V Q F H G B L J M P D K C T S W R N Z,5f761e5106b786071f45b4aa,25,Mężczyzna,2022-06-11_11h43.42.771,task,2021.1.4,Win32,142.7347987,6299f149e92ead563fba08ef,62a45d14cffe747c8b5ef0f2,,,,,,,,,,,,,,,,,,,,,,,,,,,,,,,,,,,,,,,,,,,,,,,,,,,,,,,,,,,,,,,,,,,,,,,,,,,,,,,,,,,,,,,,,,,,,,,,,,,,,
,,,,,,7,0,7,0,1,X V Q F H G B L J M P D K C T S W R N Z,5f761e5106b786071f45b4aa,25,Mężczyzna,2022-06-11_11h43.42.771,task,2021.1.4,Win32,142.7347987,6299f149e92ead563fba08ef,62a45d14cffe747c8b5ef0f2,,,,,,,,,,,,,,,,,,,,,,,,,,,,,,,,,,,,,,,,,,,,,,,,,,,,,,,,,,,,,,,,,,,,,,,,,,,,,,,,,,,,,,,,,,,,,,,,,,,,,
,,,,,,8,0,8,0,1,X V Q F H G B L J M P D K C T S W R N Z,5f761e5106b786071f45b4aa,25,Mężczyzna,2022-06-11_11h43.42.771,task,2021.1.4,Win32,142.7347987,6299f149e92ead563fba08ef,62a45d14cffe747c8b5ef0f2,,,,,,,,,,,,,,,,,,,,,,,,,,,,,,,,,,,,,,,,,,,,,,,,,,,,,,,,,,,,,,,,,,,,,,,,,,,,,,,,,,,,,,,,,,,,,,,,,,,,,
,,,,,,9,0,9,0,1,X V Q F H G B L J M P D K C T S W R N Z,5f761e5106b786071f45b4aa,25,Mężczyzna,2022-06-11_11h43.42.771,task,2021.1.4,Win32,142.7347987,6299f149e92ead563fba08ef,62a45d14cffe747c8b5ef0f2,,,,,,,,,,,,,,,,,,,,,,,,,,,,,,,,,,,,,,,,,,,,,,,,,,,,,,,,,,,,,,,,,,,,,,,,,,,,,,,,,,,,,,,,,,,,,,,,,,,,,
,,,,,,,,,,,,5f761e5106b786071f45b4aa,25,Mężczyzna,2022-06-11_11h43.42.771,task,2021.1.4,Win32,142.7347987,6299f149e92ead563fba08ef,62a45d14cffe747c8b5ef0f2,wsxckwkvdk,"[""w"",""s"",""x"",""c"",""k"",""w"",""k"",""v"",""d"",""k""]","[0.7016000000238591,0.9102000000477233,1.1209000000357605,1.443700000047727,1.8480000000000132,2.187900000035768,2.632900000035761,2.950700000047732,3.2145000000000437,3.578400000035799,4.30030000001193]",0,WSXCKWKVDH,20,0,20,0,1,,,,,,,,,,,,,,,,,,,,,,,,,,,,,,,,,,,,,,,,,,,,,,,,,,,,,,,,,,,,,,,,,,,,,,,,,,,,,,,,,,,,,,,,,,,
,,,,,,0,0,0,0,1,X V Q F H G B L J M P D K C T S W R N Z,5f761e5106b786071f45b4aa,25,Mężczyzna,2022-06-11_11h43.42.771,task,2021.1.4,Win32,142.7347987,6299f149e92ead563fba08ef,62a45d14cffe747c8b5ef0f2,,,,,,,,,,,,,,,,,,,,,,,,,,,,,,,,,,,,,,,,,,,,,,,,,,,,,,,,,,,,,,,,,,,,,,,,,,,,,,,,,,,,,,,,,,,,,,,,,,,,,
,,,,,,1,0,1,0,1,X V Q F H G B L J M P D K C T S W R N Z,5f761e5106b786071f45b4aa,25,Mężczyzna,2022-06-11_11h43.42.771,task,2021.1.4,Win32,142.7347987,6299f149e92ead563fba08ef,62a45d14cffe747c8b5ef0f2,,,,,,,,,,,,,,,,,,,,,,,,,,,,,,,,,,,,,,,,,,,,,,,,,,,,,,,,,,,,,,,,,,,,,,,,,,,,,,,,,,,,,,,,,,,,,,,,,,,,,
,,,,,,2,0,2,0,1,X V Q F H G B L J M P D K C T S W R N Z,5f761e5106b786071f45b4aa,25,Mężczyzna,2022-06-11_11h43.42.771,task,2021.1.4,Win32,142.7347987,6299f149e92ead563fba08ef,62a45d14cffe747c8b5ef0f2,,,,,,,,,,,,,,,,,,,,,,,,,,,,,,,,,,,,,,,,,,,,,,,,,,,,,,,,,,,,,,,,,,,,,,,,,,,,,,,,,,,,,,,,,,,,,,,,,,,,,
,,,,,,3,0,3,0,1,X V Q F H G B L J M P D K C T S W R N Z,5f761e5106b786071f45b4aa,25,Mężczyzna,2022-06-11_11h43.42.771,task,2021.1.4,Win32,142.7347987,6299f149e92ead563fba08ef,62a45d14cffe747c8b5ef0f2,,,,,,,,,,,,,,,,,,,,,,,,,,,,,,,,,,,,,,,,,,,,,,,,,,,,,,,,,,,,,,,,,,,,,,,,,,,,,,,,,,,,,,,,,,,,,,,,,,,,,
,,,,,,4,0,4,0,1,X V Q F H G B L J M P D K C T S W R N Z,5f761e5106b786071f45b4aa,25,Mężczyzna,2022-06-11_11h43.42.771,task,2021.1.4,Win32,142.7347987,6299f149e92ead563fba08ef,62a45d14cffe747c8b5ef0f2,,,,,,,,,,,,,,,,,,,,,,,,,,,,,,,,,,,,,,,,,,,,,,,,,,,,,,,,,,,,,,,,,,,,,,,,,,,,,,,,,,,,,,,,,,,,,,,,,,,,,
,,,,,,5,0,5,0,1,X V Q F H G B L J M P D K C T S W R N Z,5f761e5106b786071f45b4aa,25,Mężczyzna,2022-06-11_11h43.42.771,task,2021.1.4,Win32,142.7347987,6299f149e92ead563fba08ef,62a45d14cffe747c8b5ef0f2,,,,,,,,,,,,,,,,,,,,,,,,,,,,,,,,,,,,,,,,,,,,,,,,,,,,,,,,,,,,,,,,,,,,,,,,,,,,,,,,,,,,,,,,,,,,,,,,,,,,,
,,,,,,6,0,6,0,1,X V Q F H G B L J M P D K C T S W R N Z,5f761e5106b786071f45b4aa,25,Mężczyzna,2022-06-11_11h43.42.771,task,2021.1.4,Win32,142.7347987,6299f149e92ead563fba08ef,62a45d14cffe747c8b5ef0f2,,,,,,,,,,,,,,,,,,,,,,,,,,,,,,,,,,,,,,,,,,,,,,,,,,,,,,,,,,,,,,,,,,,,,,,,,,,,,,,,,,,,,,,,,,,,,,,,,,,,,
,,,,,,7,0,7,0,1,X V Q F H G B L J M P D K C T S W R N Z,5f761e5106b786071f45b4aa,25,Mężczyzna,2022-06-11_11h43.42.771,task,2021.1.4,Win32,142.7347987,6299f149e92ead563fba08ef,62a45d14cffe747c8b5ef0f2,,,,,,,,,,,,,,,,,,,,,,,,,,,,,,,,,,,,,,,,,,,,,,,,,,,,,,,,,,,,,,,,,,,,,,,,,,,,,,,,,,,,,,,,,,,,,,,,,,,,,
,,,,,,8,0,8,0,1,X V Q F H G B L J M P D K C T S W R N Z,5f761e5106b786071f45b4aa,25,Mężczyzna,2022-06-11_11h43.42.771,task,2021.1.4,Win32,142.7347987,6299f149e92ead563fba08ef,62a45d14cffe747c8b5ef0f2,,,,,,,,,,,,,,,,,,,,,,,,,,,,,,,,,,,,,,,,,,,,,,,,,,,,,,,,,,,,,,,,,,,,,,,,,,,,,,,,,,,,,,,,,,,,,,,,,,,,,
,,,,,,9,0,9,0,1,X V Q F H G B L J M P D K C T S W R N Z,5f761e5106b786071f45b4aa,25,Mężczyzna,2022-06-11_11h43.42.771,task,2021.1.4,Win32,142.7347987,6299f149e92ead563fba08ef,62a45d14cffe747c8b5ef0f2,,,,,,,,,,,,,,,,,,,,,,,,,,,,,,,,,,,,,,,,,,,,,,,,,,,,,,,,,,,,,,,,,,,,,,,,,,,,,,,,,,,,,,,,,,,,,,,,,,,,,
,,,,,,,,,,,,5f761e5106b786071f45b4aa,25,Mężczyzna,2022-06-11_11h43.42.771,task,2021.1.4,Win32,142.7347987,6299f149e92ead563fba08ef,62a45d14cffe747c8b5ef0f2,tsxdtnjdn,"[""t"",""s"",""x"",""d"",""t"",""n"",""j"",""d"",""n""]","[1.0814999999999486,1.7851000000238173,8.727199999988045,9.402900000035743,9.56910000002381,9.999600000023804,10.186900000035735,10.61940000003574,11.474400000035757,13.277999999999963]",0,TSXDTNNJDN,21,0,21,0,1,,,,,,,,,,,,,,,,,,,,,,,,,,,,,,,,,,,,,,,,,,,,,,,,,,,,,,,,,,,,,,,,,,,,,,,,,,,,,,,,,,,,,,,,,,,
,,,,,,,,,,,,5f761e5106b786071f45b4aa,25,Mężczyzna,2022-06-11_11h43.42.771,task,2021.1.4,Win32,142.7347987,6299f149e92ead563fba08ef,62a45d14cffe747c8b5ef0f2,,,,,,,,,,,space,5.861,7,"[""7""]",1,[4.91770000004766],[4.91770000004766],0,0,0,7,1,Practice,8,(5x5) - 18,7,,,,,,,,,,,,,,,,,,,,,,,,,,,,,,,,,,,,,,,,,,,,,,,,,,,,,,,,,,,,,,,,,,,,,,,,,,,
,,,,,,,,,,,,5f761e5106b786071f45b4aa,25,Mężczyzna,2022-06-11_11h43.42.771,task,2021.1.4,Win32,142.7347987,6299f149e92ead563fba08ef,62a45d14cffe747c8b5ef0f2,,,,,,,,,,,,,3,"[""3""]",1,[2.868399999976134],"[4.91770000004766,2.868399999976134]",0,1,1,3,1,Practice,4,(8/4) + 1,3,,,,,,,,,,,,,,,,,,,,,,,,,,,,,,,,,,,,,,,,,,,,,,,,,,,,,,,,,,,,,,,,,,,,,,,,,,,
,,,,,,,,,,,,5f761e5106b786071f45b4aa,25,Mężczyzna,2022-06-11_11h43.42.771,task,2021.1.4,Win32,142.7347987,6299f149e92ead563fba08ef,62a45d14cffe747c8b5ef0f2,,,,,,,,,,,,,6,"[""6""]",1,[1.7517000000476628],"[4.91770000004766,2.868399999976134,1.7517000000476628]",0,2,2,6,1,Practice,7,(25/5) + 1,6,,,,,,,,,,,,,,,,,,,,,,,,,,,,,,,,,,,,,,,,,,,,,,,,,,,,,,,,,,,,,,,,,,,,,,,,,,,
,,,,,,,,,,,,5f761e5106b786071f45b4aa,25,Mężczyzna,2022-06-11_11h43.42.771,task,2021.1.4,Win32,142.7347987,6299f149e92ead563fba08ef,62a45d14cffe747c8b5ef0f2,,,,,,,,,,,,,2,"[""2""]",1,[1.9795999999642504],"[4.91770000004766,2.868399999976134,1.7517000000476628,1.9795999999642504]",0,3,3,2,1,Practice,3,(4x4) - 14,2,,,,,,,,,,,,,,,,,,,,,,,,,,,,,,,,,,,,,,,,,,,,,,,,,,,,,,,,,,,,,,,,,,,,,,,,,,,
,,,,,,,,,,,,5f761e5106b786071f45b4aa,25,Mężczyzna,2022-06-11_11h43.42.771,task,2021.1.4,Win32,142.7347987,6299f149e92ead563fba08ef,62a45d14cffe747c8b5ef0f2,,,,,,,,,,,,,8,"[""8""]",1,[1.3639000000357555],"[4.91770000004766,2.868399999976134,1.7517000000476628,1.9795999999642504,1.3639000000357555]",0,4,4,8,1,Practice,9,(3x3) - 1,8,,,,,,,,,,,,,,,,,,,,,,,,,,,,,,,,,,,,,,,,,,,,,,,,,,,,,,,,,,,,,,,,,,,,,,,,,,,
,,,,,,,,,,,,5f761e5106b786071f45b4aa,25,Mężczyzna,2022-06-11_11h43.42.771,task,2021.1.4,Win32,142.7347987,6299f149e92ead563fba08ef,62a45d14cffe747c8b5ef0f2,,,,,,,,,,,,,9,"[""9""]",1,[2.0623999999762077],"[4.91770000004766,2.868399999976134,1.7517000000476628,1.9795999999642504,1.3639000000357555,2.0623999999762077]",0,5,5,9,1,Practice,10,(20/2) - 1,9,,,,,,,,,,,,,,,,,,,,,,,,,,,,,,,,,,,,,,,,,,,,,,,,,,,,,,,,,,,,,,,,,,,,,,,,,,,
,,,,,,,,,,,,5f761e5106b786071f45b4aa,25,Mężczyzna,2022-06-11_11h43.42.771,task,2021.1.4,Win32,142.7347987,6299f149e92ead563fba08ef,62a45d14cffe747c8b5ef0f2,,,,,,,,,,,,,0,"[""0""]",1,[1.2360999999642672],"[4.91770000004766,2.868399999976134,1.7517000000476628,1.9795999999642504,1.3639000000357555,2.0623999999762077,1.2360999999642672]",0,6,6,0,1,Practice,1,(3x3) -  9,0,,,,,,,,,,,,,,,,,,,,,,,,,,,,,,,,,,,,,,,,,,,,,,,,,,,,,,,,,,,,,,,,,,,,,,,,,,,
,,,,,,,,,,,,5f761e5106b786071f45b4aa,25,Mężczyzna,2022-06-11_11h43.42.771,task,2021.1.4,Win32,142.7347987,6299f149e92ead563fba08ef,62a45d14cffe747c8b5ef0f2,,,,,,,,,,,,,4,"[""4""]",1,[3.2428000000119255],"[4.91770000004766,2.868399999976134,1.7517000000476628,1.9795999999642504,1.3639000000357555,2.0623999999762077,1.2360999999642672,3.2428000000119255]",0,7,7,4,1,Practice,5,(2x6) - 8,4,,,,,,,,,,,,,,,,,,,,,,,,,,,,,,,,,,,,,,,,,,,,,,,,,,,,,,,,,,,,,,,,,,,,,,,,,,,
,,,,,,,,,,,,5f761e5106b786071f45b4aa,25,Mężczyzna,2022-06-11_11h43.42.771,task,2021.1.4,Win32,142.7347987,6299f149e92ead563fba08ef,62a45d14cffe747c8b5ef0f2,,,,,,,,,,,,,1,"[""1""]",1,[2.0791000000238],"[4.91770000004766,2.868399999976134,1.7517000000476628,1.9795999999642504,1.3639000000357555,2.0623999999762077,1.2360999999642672,3.2428000000119255,2.0791000000238]",0,8,8,1,1,Practice,2,(4x4) - 15,1,,,,,,,,,,,,,,,,,,,,,,,,,,,,,,,,,,,,,,,,,,,,,,,,,,,,,,,,,,,,,,,,,,,,,,,,,,,
,,,,,,,,,,,,5f761e5106b786071f45b4aa,25,Mężczyzna,2022-06-11_11h43.42.771,task,2021.1.4,Win32,142.7347987,6299f149e92ead563fba08ef,62a45d14cffe747c8b5ef0f2,,,,,,,,,,,,,5,"[""5""]",1,[2.069600000023911],"[4.91770000004766,2.868399999976134,1.7517000000476628,1.9795999999642504,1.3639000000357555,2.0623999999762077,1.2360999999642672,3.2428000000119255,2.0791000000238,2.069600000023911]",0,9,9,5,1,Practice,6,(4/2) + 3,5,,,,,,,,,,,,,,,,,,,,,,,,,,,,,,,,,,,,,,,,,,,,,,,,,,,,,,,,,,,,,,,,,,,,,,,,,,,
,,,,,,,,,,,,5f761e5106b786071f45b4aa,25,Mężczyzna,2022-06-11_11h43.42.771,task,2021.1.4,Win32,142.7347987,6299f149e92ead563fba08ef,62a45d14cffe747c8b5ef0f2,,,,,,,,,,,,,,,,,,,,,,,,,,,1,23.5713,1.57142,16.77485756,1.057508316,4.299791454,space,25.02,0,0,0,0,1,,,,,,,,,,,,,,,,,,,,,,,,,,,,,,,,,,,,,,,,,,,,,,,,,,,,,,,,,,,,,,
,,,,,,,,,,,,5f761e5106b786071f45b4aa,25,Mężczyzna,2022-06-11_11h43.42.771,task,2021.1.4,Win32,142.7347987,6299f149e92ead563fba08ef,62a45d14cffe747c8b5ef0f2,,,,,,,,,,,,,7,,,,,,,,,,Practice,8,(5x5) - 18,7,,,,,,,,,,,,,,space,13.1249,"[""7""]",1,[3.090000000000032],1,0,0,0,7,1,,,,,,,,,,,,,,,,,,,,,,,,,,,,,,,,,,,,,,,,,,,,,,,,,,,
,,,,,,,,,,,X V Q F H G B L J M P D K C T S W R N Z,5f761e5106b786071f45b4aa,25,Mężczyzna,2022-06-11_11h43.42.771,task,2021.1.4,Win32,142.7347987,6299f149e92ead563fba08ef,62a45d14cffe747c8b5ef0f2,,,,,,,,,,,,,,,,,,,,,,,,,,,,,,,,,,,,,,,,,,,,,,,,,,,0,0,0,0,1,,,,,,,,,,,,,,,,,,,,,,,,,,,,,,,,,,,,,,,,,,,,,,
,,,,,,,,,,,,5f761e5106b786071f45b4aa,25,Mężczyzna,2022-06-11_11h43.42.771,task,2021.1.4,Win32,142.7347987,6299f149e92ead563fba08ef,62a45d14cffe747c8b5ef0f2,,,,,,,,,,,,,6,,,,,,,,,,Practice,7,(25/5) + 1,6,,,,,,,,,,,,,,,,"[""6""]",1,[1.6408000000118363],1,0,0,0,6,1,,,,,,,,,,,,,,,,,,,,,,,,,,,,,,,,,,,,,,,,,,,,,,,,,,,
,,,,,,,,,,,X V Q F H G B L J M P D K C T S W R N Z,5f761e5106b786071f45b4aa,25,Mężczyzna,2022-06-11_11h43.42.771,task,2021.1.4,Win32,142.7347987,6299f149e92ead563fba08ef,62a45d14cffe747c8b5ef0f2,,,,,,,,,,,,,,,,,,,,,,,,,,,,,,,,,,,,,,,,,,,,,,,,,,,1,0,1,0,1,,,,,,,,,,,,,,,,,,,,,,,,,,,,,,,,,,,,,,,,,,,,,,
,,,,,,,,,,,,5f761e5106b786071f45b4aa,25,Mężczyzna,2022-06-11_11h43.42.771,task,2021.1.4,Win32,142.7347987,6299f149e92ead563fba08ef,62a45d14cffe747c8b5ef0f2,,,,,,,,,,,,,,,,,,,,,,,,,,,,,,,,,,,,,,,,,,,,,,,,,,,,,,,,zk,"[""z"",""k""]",0,"[1.57000000000005,2.0575000000000045,2.82569999998816]",1,0,0,0,0,1,,,,,,,,,,,,,,,,,,,,,,,,,,,,,,,,,,,,
,,,,,,,,,,,,5f761e5106b786071f45b4aa,25,Mężczyzna,2022-06-11_11h43.42.771,task,2021.1.4,Win32,142.7347987,6299f149e92ead563fba08ef,62a45d14cffe747c8b5ef0f2,,,,,,,,,,,,,3,,,,,,,,,,Practice,4,(8/4) + 1,3,,,,,,,,,,,,,,,,"[""3""]",1,[1.8126999999880127],1,0,0,0,3,1,,,,,,,,,,,,,,,,,,,,,,,,,,,,,,,,,,,,,,,,,,,,,,,,,,,
,,,,,,,,,,,X V Q F H G B L J M P D K C T S W R N Z,5f761e5106b786071f45b4aa,25,Mężczyzna,2022-06-11_11h43.42.771,task,2021.1.4,Win32,142.7347987,6299f149e92ead563fba08ef,62a45d14cffe747c8b5ef0f2,,,,,,,,,,,,,,,,,,,,,,,,,,,,,,,,,,,,,,,,,,,,,,,,,,,0,0,0,0,1,,,,,,,,,,,,,,,,,,,,,,,,,,,,,,,,,,,,,,,,,,,,,,
,,,,,,,,,,,,5f761e5106b786071f45b4aa,25,Mężczyzna,2022-06-11_11h43.42.771,task,2021.1.4,Win32,142.7347987,6299f149e92ead563fba08ef,62a45d14cffe747c8b5ef0f2,,,,,,,,,,,,,2,,,,,,,,,,Practice,3,(4x4) - 14,2,,,,,,,,,,,,,,,,"[""2""]",1,[1.3562999999522845],1,0,0,0,2,1,,,,,,,,,,,,,,,,,,,,,,,,,,,,,,,,,,,,,,,,,,,,,,,,,,,
,,,,,,,,,,,X V Q F H G B L J M P D K C T S W R N Z,5f761e5106b786071f45b4aa,25,Mężczyzna,2022-06-11_11h43.42.771,task,2021.1.4,Win32,142.7347987,6299f149e92ead563fba08ef,62a45d14cffe747c8b5ef0f2,,,,,,,,,,,,,,,,,,,,,,,,,,,,,,,,,,,,,,,,,,,,,,,,,,,1,0,1,0,1,,,,,,,,,,,,,,,,,,,,,,,,,,,,,,,,,,,,,,,,,,,,,,
,,,,,,,,,,,,5f761e5106b786071f45b4aa,25,Mężczyzna,2022-06-11_11h43.42.771,task,2021.1.4,Win32,142.7347987,6299f149e92ead563fba08ef,62a45d14cffe747c8b5ef0f2,,,,,,,,,,,,,,,,,,,,,,,,,,,,,,,,,,,,,,,,,,,,,,,,,,,,,,,,dx,"[""d"",""x""]",0,"[1.7172999999522744,1.7293999999761809,2.4120000000000346]",1,1,0,1,0,1,,,,,,,,,,,,,,,,,,,,,,,,,,,,,,,,,,,,
,,,,,,,,,,,,5f761e5106b786071f45b4aa,25,Mężczyzna,2022-06-11_11h43.42.771,task,2021.1.4,Win32,142.7347987,6299f149e92ead563fba08ef,62a45d14cffe747c8b5ef0f2,,,,,,,,,,,,,5,,,,,,,,,,Practice,6,(4/2) + 3,5,,,,,,,,,,,,,,,,"[""5""]",1,[1.7426999999880763],1,0,0,0,5,1,,,,,,,,,,,,,,,,,,,,,,,,,,,,,,,,,,,,,,,,,,,,,,,,,,,
,,,,,,,,,,,X V Q F H G B L J M P D K C T S W R N Z,5f761e5106b786071f45b4aa,25,Mężczyzna,2022-06-11_11h43.42.771,task,2021.1.4,Win32,142.7347987,6299f149e92ead563fba08ef,62a45d14cffe747c8b5ef0f2,,,,,,,,,,,,,,,,,,,,,,,,,,,,,,,,,,,,,,,,,,,,,,,,,,,0,0,0,0,1,,,,,,,,,,,,,,,,,,,,,,,,,,,,,,,,,,,,,,,,,,,,,,
,,,,,,,,,,,,5f761e5106b786071f45b4aa,25,Mężczyzna,2022-06-11_11h43.42.771,task,2021.1.4,Win32,142.7347987,6299f149e92ead563fba08ef,62a45d14cffe747c8b5ef0f2,,,,,,,,,,,,,5,,,,,,,,,,Practice,6,(4/2) + 3,5,,,,,,,,,,,,,,,,"[""5""]",1,[1.4181999999881327],1,0,0,0,5,1,,,,,,,,,,,,,,,,,,,,,,,,,,,,,,,,,,,,,,,,,,,,,,,,,,,
,,,,,,,,,,,X V Q F H G B L J M P D K C T S W R N Z,5f761e5106b786071f45b4aa,25,Mężczyzna,2022-06-11_11h43.42.771,task,2021.1.4,Win32,142.7347987,6299f149e92ead563fba08ef,62a45d14cffe747c8b5ef0f2,,,,,,,,,,,,,,,,,,,,,,,,,,,,,,,,,,,,,,,,,,,,,,,,,,,1,0,1,0,1,,,,,,,,,,,,,,,,,,,,,,,,,,,,,,,,,,,,,,,,,,,,,,
,,,,,,,,,,,,5f761e5106b786071f45b4aa,25,Mężczyzna,2022-06-11_11h43.42.771,task,2021.1.4,Win32,142.7347987,6299f149e92ead563fba08ef,62a45d14cffe747c8b5ef0f2,,,,,,,,,,,,,,,,,,,,,,,,,,,,,,,,,,,,,,,,,,,,,,,,,,,,,,,,rn,"[""r"",""n""]",0,"[1.3006000000239055,1.64650000000006,2.186600000023873]",1,2,0,2,0,1,,,,,,,,,,,,,,,,,,,,,,,,,,,,,,,,,,,,
,,,,,,,,,,,,5f761e5106b786071f45b4aa,25,Mężczyzna,2022-06-11_11h43.42.771,task,2021.1.4,Win32,142.7347987,6299f149e92ead563fba08ef,62a45d14cffe747c8b5ef0f2,,,,,,,,,,,,,9,,,,,,,,,,Task,40,(7x2) - 5,9,,,,,,,,,,,,,,,,,,,1,,,,,,,,,,,,,,,,,,,,,space,11.0127,"[""9""]",1,[3.9936999999880527],0,0,0,39,1,,,,,,,,,,,,,,,,,,,,,,,,,,
,,,,,,,,,,,X V Q F H G B L J M P D K C T S W R N Z,5f761e5106b786071f45b4aa,25,Mężczyzna,2022-06-11_11h43.42.771,task,2021.1.4,Win32,142.7347987,6299f149e92ead563fba08ef,62a45d14cffe747c8b5ef0f2,,,,,,,,,,,,,,,,,,,,,,,,,,,,,,,,,,,,,,,,,,,,,,,,,,,,,,,,,,,,,,,,,,,,,,,,,,,,0,0,0,0,1,,,,,,,,,,,,,,,,,,,,,
,,,,,,,,,,,,5f761e5106b786071f45b4aa,25,Mężczyzna,2022-06-11_11h43.42.771,task,2021.1.4,Win32,142.7347987,6299f149e92ead563fba08ef,62a45d14cffe747c8b5ef0f2,,,,,,,,,,,,,3,,,,,,,,,,Task,3,(2x3) - 3,3,,,,,,,,,,,,,,,,,,,1,,,,,,,,,,,,,,,,,,,,,,,"[""3""]",1,[2.2226000000238173],0,0,0,2,1,,,,,,,,,,,,,,,,,,,,,,,,,,
,,,,,,,,,,,X V Q F H G B L J M P D K C T S W R N Z,5f761e5106b786071f45b4aa,25,Mężczyzna,2022-06-11_11h43.42.771,task,2021.1.4,Win32,142.7347987,6299f149e92ead563fba08ef,62a45d14cffe747c8b5ef0f2,,,,,,,,,,,,,,,,,,,,,,,,,,,,,,,,,,,,,,,,,,,,,,,,,,,,,,,,,,,,,,,,,,,,,,,,,,,,1,0,1,0,1,,,,,,,,,,,,,,,,,,,,,
,,,,,,,,,,,,5f761e5106b786071f45b4aa,25,Mężczyzna,2022-06-11_11h43.42.771,task,2021.1.4,Win32,142.7347987,6299f149e92ead563fba08ef,62a45d14cffe747c8b5ef0f2,,,,,,,,,,,,,,,,,,,,,,,,,,,,,,,,,,,,,,,,,,,,,,,,,,,,,,,,,,,,,,,,,,,,,,,,,,,,,,,,,zv,"[""z"",""v""]",0,"[1.4311000000238892,2.965800000011882,3.4312000000477383]",1,ZV,0,0,0,0,1,,,,,,,,,,
,,,,,,,,,,,,5f761e5106b786071f45b4aa,25,Mężczyzna,2022-06-11_11h43.42.771,task,2021.1.4,Win32,142.7347987,6299f149e92ead563fba08ef,62a45d14cffe747c8b5ef0f2,,,,,,,,,,,,,4,,,,,,,,,,Task,4,(1x5) - 1,4,,,,,,,,,,,,,,,,,,,1,,,,,,,,,,,,,,,,,,,,,,,"[""4""]",1,[1.6948000000119237],0,0,0,3,1,,,,,,,,,,,,,,,,,,,,,,,,,,
,,,,,,,,,,,X V Q F H G B L J M P D K C T S W R N Z,5f761e5106b786071f45b4aa,25,Mężczyzna,2022-06-11_11h43.42.771,task,2021.1.4,Win32,142.7347987,6299f149e92ead563fba08ef,62a45d14cffe747c8b5ef0f2,,,,,,,,,,,,,,,,,,,,,,,,,,,,,,,,,,,,,,,,,,,,,,,,,,,,,,,,,,,,,,,,,,,,,,,,,,,,0,0,0,0,1,,,,,,,,,,,,,,,,,,,,,
,,,,,,,,,,,,5f761e5106b786071f45b4aa,25,Mężczyzna,2022-06-11_11h43.42.771,task,2021.1.4,Win32,142.7347987,6299f149e92ead563fba08ef,62a45d14cffe747c8b5ef0f2,,,,,,,,,,,,,1,,,,,,,,,,Task,9,(3x7) - 20,1,,,,,,,,,,,,,,,,,,,1,,,,,,,,,,,,,,,,,,,,,,,"[""1""]",1,[2.1316999999879727],0,0,0,8,1,,,,,,,,,,,,,,,,,,,,,,,,,,
,,,,,,,,,,,X V Q F H G B L J M P D K C T S W R N Z,5f761e5106b786071f45b4aa,25,Mężczyzna,2022-06-11_11h43.42.771,task,2021.1.4,Win32,142.7347987,6299f149e92ead563fba08ef,62a45d14cffe747c8b5ef0f2,,,,,,,,,,,,,,,,,,,,,,,,,,,,,,,,,,,,,,,,,,,,,,,,,,,,,,,,,,,,,,,,,,,,,,,,,,,,1,0,1,0,1,,,,,,,,,,,,,,,,,,,,,
,,,,,,,,,,,,5f761e5106b786071f45b4aa,25,Mężczyzna,2022-06-11_11h43.42.771,task,2021.1.4,Win32,142.7347987,6299f149e92ead563fba08ef,62a45d14cffe747c8b5ef0f2,,,,,,,,,,,,,7,,,,,,,,,,Task,6,(12/2) + 1,7,,,,,,,,,,,,,,,,,,,1,,,,,,,,,,,,,,,,,,,,,,,"[""7""]",1,[1.9443999999762127],0,0,0,5,1,,,,,,,,,,,,,,,,,,,,,,,,,,
,,,,,,,,,,,X V Q F H G B L J M P D K C T S W R N Z,5f761e5106b786071f45b4aa,25,Mężczyzna,2022-06-11_11h43.42.771,task,2021.1.4,Win32,142.7347987,6299f149e92ead563fba08ef,62a45d14cffe747c8b5ef0f2,,,,,,,,,,,,,,,,,,,,,,,,,,,,,,,,,,,,,,,,,,,,,,,,,,,,,,,,,,,,,,,,,,,,,,,,,,,,2,0,2,0,1,,,,,,,,,,,,,,,,,,,,,
,,,,,,,,,,,,5f761e5106b786071f45b4aa,25,Mężczyzna,2022-06-11_11h43.42.771,task,2021.1.4,Win32,142.7347987,6299f149e92ead563fba08ef,62a45d14cffe747c8b5ef0f2,,,,,,,,,,,,,,,,,,,,,,,,,,,,,,,,,,,,,,,,,,,,,,,,,,,,,,,,,,,,,,,,,,,,,,,,,,,,,,,,,zkl,"[""z"",""k"",""l""]",0,"[1.2983999999761409,1.6536999999880209,1.853099999964229,2.4308000000119137]",1,ZKL,1,0,1,0,1,,,,,,,,,,
,,,,,,,,,,,,5f761e5106b786071f45b4aa,25,Mężczyzna,2022-06-11_11h43.42.771,task,2021.1.4,Win32,142.7347987,6299f149e92ead563fba08ef,62a45d14cffe747c8b5ef0f2,,,,,,,,,,,,,8,,,,,,,,,,Task,15,(3x7) - 13,8,,,,,,,,,,,,,,,,,,,1,,,,,,,,,,,,,,,,,,,,,,,"[""8""]",1,[3.153400000035731],0,0,0,14,1,,,,,,,,,,,,,,,,,,,,,,,,,,
,,,,,,,,,,,X V Q F H G B L J M P D K C T S W R N Z,5f761e5106b786071f45b4aa,25,Mężczyzna,2022-06-11_11h43.42.771,task,2021.1.4,Win32,142.7347987,6299f149e92ead563fba08ef,62a45d14cffe747c8b5ef0f2,,,,,,,,,,,,,,,,,,,,,,,,,,,,,,,,,,,,,,,,,,,,,,,,,,,,,,,,,,,,,,,,,,,,,,,,,,,,0,0,0,0,1,,,,,,,,,,,,,,,,,,,,,
,,,,,,,,,,,,5f761e5106b786071f45b4aa,25,Mężczyzna,2022-06-11_11h43.42.771,task,2021.1.4,Win32,142.7347987,6299f149e92ead563fba08ef,62a45d14cffe747c8b5ef0f2,,,,,,,,,,,,,5,,,,,,,,,,Task,29,(3x8) - 19 ,5,,,,,,,,,,,,,,,,,,,1,,,,,,,,,,,,,,,,,,,,,,,"[""5""]",1,[3.228199999988078],0,0,0,28,1,,,,,,,,,,,,,,,,,,,,,,,,,,
,,,,,,,,,,,X V Q F H G B L J M P D K C T S W R N Z,5f761e5106b786071f45b4aa,25,Mężczyzna,2022-06-11_11h43.42.771,task,2021.1.4,Win32,142.7347987,6299f149e92ead563fba08ef,62a45d14cffe747c8b5ef0f2,,,,,,,,,,,,,,,,,,,,,,,,,,,,,,,,,,,,,,,,,,,,,,,,,,,,,,,,,,,,,,,,,,,,,,,,,,,,1,0,1,0,1,,,,,,,,,,,,,,,,,,,,,
,,,,,,,,,,,,5f761e5106b786071f45b4aa,25,Mężczyzna,2022-06-11_11h43.42.771,task,2021.1.4,Win32,142.7347987,6299f149e92ead563fba08ef,62a45d14cffe747c8b5ef0f2,,,,,,,,,,,,,8,,,,,,,,,,Task,32,(8/2) + 4,8,,,,,,,,,,,,,,,,,,,1,,,,,,,,,,,,,,,,,,,,,,,"[""8""]",1,[1.985599999964279],0,0,0,31,1,,,,,,,,,,,,,,,,,,,,,,,,,,
,,,,,,,,,,,X V Q F H G B L J M P D K C T S W R N Z,5f761e5106b786071f45b4aa,25,Mężczyzna,2022-06-11_11h43.42.771,task,2021.1.4,Win32,142.7347987,6299f149e92ead563fba08ef,62a45d14cffe747c8b5ef0f2,,,,,,,,,,,,,,,,,,,,,,,,,,,,,,,,,,,,,,,,,,,,,,,,,,,,,,,,,,,,,,,,,,,,,,,,,,,,2,0,2,0,1,,,,,,,,,,,,,,,,,,,,,
,,,,,,,,,,,,5f761e5106b786071f45b4aa,25,Mężczyzna,2022-06-11_11h43.42.771,task,2021.1.4,Win32,142.7347987,6299f149e92ead563fba08ef,62a45d14cffe747c8b5ef0f2,,,,,,,,,,,,,7,,,,,,,,,,Task,14,(2x2) + 3,7,,,,,,,,,,,,,,,,,,,1,,,,,,,,,,,,,,,,,,,,,,,"[""7""]",1,[2.743600000023889],0,0,0,13,1,,,,,,,,,,,,,,,,,,,,,,,,,,
,,,,,,,,,,,X V Q F H G B L J M P D K C T S W R N Z,5f761e5106b786071f45b4aa,25,Mężczyzna,2022-06-11_11h43.42.771,task,2021.1.4,Win32,142.7347987,6299f149e92ead563fba08ef,62a45d14cffe747c8b5ef0f2,,,,,,,,,,,,,,,,,,,,,,,,,,,,,,,,,,,,,,,,,,,,,,,,,,,,,,,,,,,,,,,,,,,,,,,,,,,,3,0,3,0,1,,,,,,,,,,,,,,,,,,,,,
,,,,,,,,,,,,5f761e5106b786071f45b4aa,25,Mężczyzna,2022-06-11_11h43.42.771,task,2021.1.4,Win32,142.7347987,6299f149e92ead563fba08ef,62a45d14cffe747c8b5ef0f2,,,,,,,,,,,,,,,,,,,,,,,,,,,,,,,,,,,,,,,,,,,,,,,,,,,,,,,,,,,,,,,,,,,,,,,,,,,,,,,,,xjn,"[""x"",""j"",""n""]",0,"[1.1906000000238919,1.2368000000119537,1.5148000000119737,2.2368000000119537]",0,XJZN,2,0,2,0,1,,,,,,,,,,
,,,,,,,,,,,,5f761e5106b786071f45b4aa,25,Mężczyzna,2022-06-11_11h43.42.771,task,2021.1.4,Win32,142.7347987,6299f149e92ead563fba08ef,62a45d14cffe747c8b5ef0f2,,,,,,,,,,,,,,,,,,,,,,,Task,38,(4x6) - 17,7,,,,,,,,,,,,,,,,,,,0,,,,,,,,,,,,,,,,,,,,,,,,0,,0,0,0,37,1,,,,,,,,,,,,,,,,,,,,,,,,,,
,,,,,,,,,,,,5f761e5106b786071f45b4aa,25,Mężczyzna,2022-06-11_11h43.42.771,task,2021.1.4,Win32,142.7347987,6299f149e92ead563fba08ef,62a45d14cffe747c8b5ef0f2,,,,,,,,,,,,,0,,,,,,,,,,Task,33,(1/1) - 1,0,,,,,,,,,,,,,,,,,,,1,,,,,,,,,,,,,,,,,,,,,,,"[""0""]",1,[1.8511000000238482],0,1,1,32,1,,,,,,,,,,,,,,,,,,,,,,,,,,
,,,,,,,,,,,X V Q F H G B L J M P D K C T S W R N Z,5f761e5106b786071f45b4aa,25,Mężczyzna,2022-06-11_11h43.42.771,task,2021.1.4,Win32,142.7347987,6299f149e92ead563fba08ef,62a45d14cffe747c8b5ef0f2,,,,,,,,,,,,,,,,,,,,,,,,,,,,,,,,,,,,,,,,,,,,,,,,,,,,,,,,,,,,,,,,,,,,,,,,,,,,0,0,0,0,1,,,,,,,,,,,,,,,,,,,,,
,,,,,,,,,,,,5f761e5106b786071f45b4aa,25,Mężczyzna,2022-06-11_11h43.42.771,task,2021.1.4,Win32,142.7347987,6299f149e92ead563fba08ef,62a45d14cffe747c8b5ef0f2,,,,,,,,,,,,,1,,,,,,,,,,Task,34,(9/3) - 2,1,,,,,,,,,,,,,,,,,,,1,,,,,,,,,,,,,,,,,,,,,,,"[""1""]",1,[2.8743000000118855],0,0,0,33,1,,,,,,,,,,,,,,,,,,,,,,,,,,
,,,,,,,,,,,X V Q F H G B L J M P D K C T S W R N Z,5f761e5106b786071f45b4aa,25,Mężczyzna,2022-06-11_11h43.42.771,task,2021.1.4,Win32,142.7347987,6299f149e92ead563fba08ef,62a45d14cffe747c8b5ef0f2,,,,,,,,,,,,,,,,,,,,,,,,,,,,,,,,,,,,,,,,,,,,,,,,,,,,,,,,,,,,,,,,,,,,,,,,,,,,1,0,1,0,1,,,,,,,,,,,,,,,,,,,,,
,,,,,,,,,,,,5f761e5106b786071f45b4aa,25,Mężczyzna,2022-06-11_11h43.42.771,task,2021.1.4,Win32,142.7347987,6299f149e92ead563fba08ef,62a45d14cffe747c8b5ef0f2,,,,,,,,,,,,,4,,,,,,,,,,Task,4,(1x5) - 1,4,,,,,,,,,,,,,,,,,,,1,,,,,,,,,,,,,,,,,,,,,,,"[""4""]",1,[1.7711000000238073],0,0,0,3,1,,,,,,,,,,,,,,,,,,,,,,,,,,
,,,,,,,,,,,X V Q F H G B L J M P D K C T S W R N Z,5f761e5106b786071f45b4aa,25,Mężczyzna,2022-06-11_11h43.42.771,task,2021.1.4,Win32,142.7347987,6299f149e92ead563fba08ef,62a45d14cffe747c8b5ef0f2,,,,,,,,,,,,,,,,,,,,,,,,,,,,,,,,,,,,,,,,,,,,,,,,,,,,,,,,,,,,,,,,,,,,,,,,,,,,2,0,2,0,1,,,,,,,,,,,,,,,,,,,,,
,,,,,,,,,,,,5f761e5106b786071f45b4aa,25,Mężczyzna,2022-06-11_11h43.42.771,task,2021.1.4,Win32,142.7347987,6299f149e92ead563fba08ef,62a45d14cffe747c8b5ef0f2,,,,,,,,,,,,,2,,,,,,,,,,Task,10,(2x5) - 8,2,,,,,,,,,,,,,,,,,,,1,,,,,,,,,,,,,,,,,,,,,,,"[""2""]",1,[1.9578999999761209],0,0,0,9,1,,,,,,,,,,,,,,,,,,,,,,,,,,
,,,,,,,,,,,X V Q F H G B L J M P D K C T S W R N Z,5f761e5106b786071f45b4aa,25,Mężczyzna,2022-06-11_11h43.42.771,task,2021.1.4,Win32,142.7347987,6299f149e92ead563fba08ef,62a45d14cffe747c8b5ef0f2,,,,,,,,,,,,,,,,,,,,,,,,,,,,,,,,,,,,,,,,,,,,,,,,,,,,,,,,,,,,,,,,,,,,,,,,,,,,3,0,3,0,1,,,,,,,,,,,,,,,,,,,,,
,,,,,,,,,,,,5f761e5106b786071f45b4aa,25,Mężczyzna,2022-06-11_11h43.42.771,task,2021.1.4,Win32,142.7347987,6299f149e92ead563fba08ef,62a45d14cffe747c8b5ef0f2,,,,,,,,,,,,,,,,,,,,,,,,,,,,,,,,,,,,,,,,,,,,,,,,,,,,,,,,,,,,,,,,,,,,,,,,,,,,,,,,,twvh,"[""t"",""w"",""v"",""h""]",0,"[1.6881000000238373,1.951900000035721,4.175699999988069,4.236699999987991,5.182800000011866]",1,TWVH,3,0,3,0,1,,,,,,,,,,
,,,,,,,,,,,,5f761e5106b786071f45b4aa,25,Mężczyzna,2022-06-11_11h43.42.771,task,2021.1.4,Win32,142.7347987,6299f149e92ead563fba08ef,62a45d14cffe747c8b5ef0f2,,,,,,,,,,,,,5,,,,,,,,,,Task,22,(3x1) + 2,5,,,,,,,,,,,,,,,,,,,1,,,,,,,,,,,,,,,,,,,,,,,"[""5""]",1,[1.5767000000477083],0,0,0,21,1,,,,,,,,,,,,,,,,,,,,,,,,,,
,,,,,,,,,,,X V Q F H G B L J M P D K C T S W R N Z,5f761e5106b786071f45b4aa,25,Mężczyzna,2022-06-11_11h43.42.771,task,2021.1.4,Win32,142.7347987,6299f149e92ead563fba08ef,62a45d14cffe747c8b5ef0f2,,,,,,,,,,,,,,,,,,,,,,,,,,,,,,,,,,,,,,,,,,,,,,,,,,,,,,,,,,,,,,,,,,,,,,,,,,,,0,0,0,0,1,,,,,,,,,,,,,,,,,,,,,
,,,,,,,,,,,,5f761e5106b786071f45b4aa,25,Mężczyzna,2022-06-11_11h43.42.771,task,2021.1.4,Win32,142.7347987,6299f149e92ead563fba08ef,62a45d14cffe747c8b5ef0f2,,,,,,,,,,,,,5,,,,,,,,,,Task,22,(3x1) + 2,5,,,,,,,,,,,,,,,,,,,1,,,,,,,,,,,,,,,,,,,,,,,"[""5""]",1,[1.0881999999880918],0,0,0,21,1,,,,,,,,,,,,,,,,,,,,,,,,,,
,,,,,,,,,,,X V Q F H G B L J M P D K C T S W R N Z,5f761e5106b786071f45b4aa,25,Mężczyzna,2022-06-11_11h43.42.771,task,2021.1.4,Win32,142.7347987,6299f149e92ead563fba08ef,62a45d14cffe747c8b5ef0f2,,,,,,,,,,,,,,,,,,,,,,,,,,,,,,,,,,,,,,,,,,,,,,,,,,,,,,,,,,,,,,,,,,,,,,,,,,,,1,0,1,0,1,,,,,,,,,,,,,,,,,,,,,
,,,,,,,,,,,,5f761e5106b786071f45b4aa,25,Mężczyzna,2022-06-11_11h43.42.771,task,2021.1.4,Win32,142.7347987,6299f149e92ead563fba08ef,62a45d14cffe747c8b5ef0f2,,,,,,,,,,,,,7,,,,,,,,,,Task,6,(12/2) + 1,7,,,,,,,,,,,,,,,,,,,1,,,,,,,,,,,,,,,,,,,,,,,"[""7""]",1,[1.784899999976119],0,0,0,5,1,,,,,,,,,,,,,,,,,,,,,,,,,,
,,,,,,,,,,,X V Q F H G B L J M P D K C T S W R N Z,5f761e5106b786071f45b4aa,25,Mężczyzna,2022-06-11_11h43.42.771,task,2021.1.4,Win32,142.7347987,6299f149e92ead563fba08ef,62a45d14cffe747c8b5ef0f2,,,,,,,,,,,,,,,,,,,,,,,,,,,,,,,,,,,,,,,,,,,,,,,,,,,,,,,,,,,,,,,,,,,,,,,,,,,,2,0,2,0,1,,,,,,,,,,,,,,,,,,,,,
,,,,,,,,,,,,5f761e5106b786071f45b4aa,25,Mężczyzna,2022-06-11_11h43.42.771,task,2021.1.4,Win32,142.7347987,6299f149e92ead563fba08ef,62a45d14cffe747c8b5ef0f2,,,,,,,,,,,,,1,,,,,,,,,,Task,9,(3x7) - 20,1,,,,,,,,,,,,,,,,,,,1,,,,,,,,,,,,,,,,,,,,,,,"[""1""]",1,[1.7084999999999582],0,0,0,8,1,,,,,,,,,,,,,,,,,,,,,,,,,,
,,,,,,,,,,,X V Q F H G B L J M P D K C T S W R N Z,5f761e5106b786071f45b4aa,25,Mężczyzna,2022-06-11_11h43.42.771,task,2021.1.4,Win32,142.7347987,6299f149e92ead563fba08ef,62a45d14cffe747c8b5ef0f2,,,,,,,,,,,,,,,,,,,,,,,,,,,,,,,,,,,,,,,,,,,,,,,,,,,,,,,,,,,,,,,,,,,,,,,,,,,,3,0,3,0,1,,,,,,,,,,,,,,,,,,,,,
,,,,,,,,,,,,5f761e5106b786071f45b4aa,25,Mężczyzna,2022-06-11_11h43.42.771,task,2021.1.4,Win32,142.7347987,6299f149e92ead563fba08ef,62a45d14cffe747c8b5ef0f2,,,,,,,,,,,,,1,,,,,,,,,,Task,9,(3x7) - 20,1,,,,,,,,,,,,,,,,,,,1,,,,,,,,,,,,,,,,,,,,,,,"[""1""]",1,[1.3563000000118564],0,0,0,8,1,,,,,,,,,,,,,,,,,,,,,,,,,,
,,,,,,,,,,,X V Q F H G B L J M P D K C T S W R N Z,5f761e5106b786071f45b4aa,25,Mężczyzna,2022-06-11_11h43.42.771,task,2021.1.4,Win32,142.7347987,6299f149e92ead563fba08ef,62a45d14cffe747c8b5ef0f2,,,,,,,,,,,,,,,,,,,,,,,,,,,,,,,,,,,,,,,,,,,,,,,,,,,,,,,,,,,,,,,,,,,,,,,,,,,,4,0,4,0,1,,,,,,,,,,,,,,,,,,,,,
,,,,,,,,,,,,5f761e5106b786071f45b4aa,25,Mężczyzna,2022-06-11_11h43.42.771,task,2021.1.4,Win32,142.7347987,6299f149e92ead563fba08ef,62a45d14cffe747c8b5ef0f2,,,,,,,,,,,,,,,,,,,,,,,,,,,,,,,,,,,,,,,,,,,,,,,,,,,,,,,,,,,,,,,,,,,,,,,,,,,,,,,,,xnnkv,"[""x"",""n"",""n"",""k"",""v""]",0,"[1.1208000000118545,1.7213999999761427,1.8561000000238437,2.068499999999972,2.3478000000119437,4.236100000023839]",1,XNNKV,4,0,4,0,1,,,,,,,,,,
,,,,,,,,,,,,5f761e5106b786071f45b4aa,25,Mężczyzna,2022-06-11_11h43.42.771,task,2021.1.4,Win32,142.7347987,6299f149e92ead563fba08ef,62a45d14cffe747c8b5ef0f2,,,,,,,,,,,,,1,,,,,,,,,,Task,1,(12/6) - 1,1,,,,,,,,,,,,,,,,,,,1,,,,,,,,,,,,,,,,,,,,,,,"[""1""]",1,[2.4089000000357146],0,0,0,0,1,,,,,,,,,,,,,,,,,,,,,,,,,,
,,,,,,,,,,,X V Q F H G B L J M P D K C T S W R N Z,5f761e5106b786071f45b4aa,25,Mężczyzna,2022-06-11_11h43.42.771,task,2021.1.4,Win32,142.7347987,6299f149e92ead563fba08ef,62a45d14cffe747c8b5ef0f2,,,,,,,,,,,,,,,,,,,,,,,,,,,,,,,,,,,,,,,,,,,,,,,,,,,,,,,,,,,,,,,,,,,,,,,,,,,,0,0,0,0,1,,,,,,,,,,,,,,,,,,,,,
,,,,,,,,,,,,5f761e5106b786071f45b4aa,25,Mężczyzna,2022-06-11_11h43.42.771,task,2021.1.4,Win32,142.7347987,6299f149e92ead563fba08ef,62a45d14cffe747c8b5ef0f2,,,,,,,,,,,,,6,,,,,,,,,,Task,30,(6/3) + 4 ,6,,,,,,,,,,,,,,,,,,,1,,,,,,,,,,,,,,,,,,,,,,,"[""6""]",1,[2.6949999999999363],0,0,0,29,1,,,,,,,,,,,,,,,,,,,,,,,,,,
,,,,,,,,,,,X V Q F H G B L J M P D K C T S W R N Z,5f761e5106b786071f45b4aa,25,Mężczyzna,2022-06-11_11h43.42.771,task,2021.1.4,Win32,142.7347987,6299f149e92ead563fba08ef,62a45d14cffe747c8b5ef0f2,,,,,,,,,,,,,,,,,,,,,,,,,,,,,,,,,,,,,,,,,,,,,,,,,,,,,,,,,,,,,,,,,,,,,,,,,,,,1,0,1,0,1,,,,,,,,,,,,,,,,,,,,,
,,,,,,,,,,,,5f761e5106b786071f45b4aa,25,Mężczyzna,2022-06-11_11h43.42.771,task,2021.1.4,Win32,142.7347987,6299f149e92ead563fba08ef,62a45d14cffe747c8b5ef0f2,,,,,,,,,,,,,1,,,,,,,,,,Task,1,(12/6) - 1,1,,,,,,,,,,,,,,,,,,,1,,,,,,,,,,,,,,,,,,,,,,,"[""1""]",1,[2.1741999999881045],0,0,0,0,1,,,,,,,,,,,,,,,,,,,,,,,,,,
,,,,,,,,,,,X V Q F H G B L J M P D K C T S W R N Z,5f761e5106b786071f45b4aa,25,Mężczyzna,2022-06-11_11h43.42.771,task,2021.1.4,Win32,142.7347987,6299f149e92ead563fba08ef,62a45d14cffe747c8b5ef0f2,,,,,,,,,,,,,,,,,,,,,,,,,,,,,,,,,,,,,,,,,,,,,,,,,,,,,,,,,,,,,,,,,,,,,,,,,,,,2,0,2,0,1,,,,,,,,,,,,,,,,,,,,,
,,,,,,,,,,,,5f761e5106b786071f45b4aa,25,Mężczyzna,2022-06-11_11h43.42.771,task,2021.1.4,Win32,142.7347987,6299f149e92ead563fba08ef,62a45d14cffe747c8b5ef0f2,,,,,,,,,,,,,6,,,,,,,,,,Task,16,(3x8) - 15,9,,,,,,,,,,,,,,,,,,,0,,,,,,,,,,,,,,,,,,,,,,,"[""6""]",0,[2.4155000000000655],0,0,0,15,1,,,,,,,,,,,,,,,,,,,,,,,,,,
,,,,,,,,,,,,5f761e5106b786071f45b4aa,25,Mężczyzna,2022-06-11_11h43.42.771,task,2021.1.4,Win32,142.7347987,6299f149e92ead563fba08ef,62a45d14cffe747c8b5ef0f2,,,,,,,,,,,,,9,,,,,,,,,,Task,24,(2x2) + 5,9,,,,,,,,,,,,,,,,,,,1,,,,,,,,,,,,,,,,,,,,,,,"[""9""]",1,[2.014100000023859],0,1,1,23,1,,,,,,,,,,,,,,,,,,,,,,,,,,
,,,,,,,,,,,X V Q F H G B L J M P D K C T S W R N Z,5f761e5106b786071f45b4aa,25,Mężczyzna,2022-06-11_11h43.42.771,task,2021.1.4,Win32,142.7347987,6299f149e92ead563fba08ef,62a45d14cffe747c8b5ef0f2,,,,,,,,,,,,,,,,,,,,,,,,,,,,,,,,,,,,,,,,,,,,,,,,,,,,,,,,,,,,,,,,,,,,,,,,,,,,3,0,3,0,1,,,,,,,,,,,,,,,,,,,,,
,,,,,,,,,,,,5f761e5106b786071f45b4aa,25,Mężczyzna,2022-06-11_11h43.42.771,task,2021.1.4,Win32,142.7347987,6299f149e92ead563fba08ef,62a45d14cffe747c8b5ef0f2,,,,,,,,,,,,,9,,,,,,,,,,Task,16,(3x8) - 15,9,,,,,,,,,,,,,,,,,,,1,,,,,,,,,,,,,,,,,,,,,,,"[""9""]",1,[2.2492000000476082],0,0,0,15,1,,,,,,,,,,,,,,,,,,,,,,,,,,
,,,,,,,,,,,X V Q F H G B L J M P D K C T S W R N Z,5f761e5106b786071f45b4aa,25,Mężczyzna,2022-06-11_11h43.42.771,task,2021.1.4,Win32,142.7347987,6299f149e92ead563fba08ef,62a45d14cffe747c8b5ef0f2,,,,,,,,,,,,,,,,,,,,,,,,,,,,,,,,,,,,,,,,,,,,,,,,,,,,,,,,,,,,,,,,,,,,,,,,,,,,4,0,4,0,1,,,,,,,,,,,,,,,,,,,,,
,,,,,,,,,,,,5f761e5106b786071f45b4aa,25,Mężczyzna,2022-06-11_11h43.42.771,task,2021.1.4,Win32,142.7347987,6299f149e92ead563fba08ef,62a45d14cffe747c8b5ef0f2,,,,,,,,,,,,,3,,,,,,,,,,Task,27,(3/3) + 2,3,,,,,,,,,,,,,,,,,,,1,,,,,,,,,,,,,,,,,,,,,,,"[""3""]",1,[2.1669999999999163],0,0,0,26,1,,,,,,,,,,,,,,,,,,,,,,,,,,
,,,,,,,,,,,X V Q F H G B L J M P D K C T S W R N Z,5f761e5106b786071f45b4aa,25,Mężczyzna,2022-06-11_11h43.42.771,task,2021.1.4,Win32,142.7347987,6299f149e92ead563fba08ef,62a45d14cffe747c8b5ef0f2,,,,,,,,,,,,,,,,,,,,,,,,,,,,,,,,,,,,,,,,,,,,,,,,,,,,,,,,,,,,,,,,,,,,,,,,,,,,5,0,5,0,1,,,,,,,,,,,,,,,,,,,,,
,,,,,,,,,,,,5f761e5106b786071f45b4aa,25,Mężczyzna,2022-06-11_11h43.42.771,task,2021.1.4,Win32,142.7347987,6299f149e92ead563fba08ef,62a45d14cffe747c8b5ef0f2,,,,,,,,,,,,,,,,,,,,,,,,,,,,,,,,,,,,,,,,,,,,,,,,,,,,,,,,,,,,,,,,,,,,,,,,,,,,,,,,,hxgqnd,"[""h"",""x"",""g"",""q"",""n"",""d""]",0,"[1.8761999999881027,2.208500000000072,3.4096999999881064,3.8328000000119573,4.2776999999880445,4.5625,5.466000000000008]",1,HXGQND,5,0,5,0,1,,,,,,,,,,
,,,,,,,,,,,,5f761e5106b786071f45b4aa,25,Mężczyzna,2022-06-11_11h43.42.771,task,2021.1.4,Win32,142.7347987,6299f149e92ead563fba08ef,62a45d14cffe747c8b5ef0f2,,,,,,,,,,,,,3,,,,,,,,,,Task,3,(2x3) - 3,3,,,,,,,,,,,,,,,,,,,1,,,,,,,,,,,,,,,,,,,,,,,"[""3""]",1,[1.9095999999642572],0,0,0,2,1,,,,,,,,,,,,,,,,,,,,,,,,,,
,,,,,,,,,,,X V Q F H G B L J M P D K C T S W R N Z,5f761e5106b786071f45b4aa,25,Mężczyzna,2022-06-11_11h43.42.771,task,2021.1.4,Win32,142.7347987,6299f149e92ead563fba08ef,62a45d14cffe747c8b5ef0f2,,,,,,,,,,,,,,,,,,,,,,,,,,,,,,,,,,,,,,,,,,,,,,,,,,,,,,,,,,,,,,,,,,,,,,,,,,,,0,0,0,0,1,,,,,,,,,,,,,,,,,,,,,
,,,,,,,,,,,,5f761e5106b786071f45b4aa,25,Mężczyzna,2022-06-11_11h43.42.771,task,2021.1.4,Win32,142.7347987,6299f149e92ead563fba08ef,62a45d14cffe747c8b5ef0f2,,,,,,,,,,,,,4,,,,,,,,,,Task,4,(1x5) - 1,4,,,,,,,,,,,,,,,,,,,1,,,,,,,,,,,,,,,,,,,,,,,"[""4""]",1,[1.3328999999762345],0,0,0,3,1,,,,,,,,,,,,,,,,,,,,,,,,,,
,,,,,,,,,,,X V Q F H G B L J M P D K C T S W R N Z,5f761e5106b786071f45b4aa,25,Mężczyzna,2022-06-11_11h43.42.771,task,2021.1.4,Win32,142.7347987,6299f149e92ead563fba08ef,62a45d14cffe747c8b5ef0f2,,,,,,,,,,,,,,,,,,,,,,,,,,,,,,,,,,,,,,,,,,,,,,,,,,,,,,,,,,,,,,,,,,,,,,,,,,,,1,0,1,0,1,,,,,,,,,,,,,,,,,,,,,
,,,,,,,,,,,,5f761e5106b786071f45b4aa,25,Mężczyzna,2022-06-11_11h43.42.771,task,2021.1.4,Win32,142.7347987,6299f149e92ead563fba08ef,62a45d14cffe747c8b5ef0f2,,,,,,,,,,,,,2,,,,,,,,,,Task,2,(2x2) - 2,2,,,,,,,,,,,,,,,,,,,1,,,,,,,,,,,,,,,,,,,,,,,"[""2""]",1,[1.6107999999522917],0,0,0,1,1,,,,,,,,,,,,,,,,,,,,,,,,,,
,,,,,,,,,,,X V Q F H G B L J M P D K C T S W R N Z,5f761e5106b786071f45b4aa,25,Mężczyzna,2022-06-11_11h43.42.771,task,2021.1.4,Win32,142.7347987,6299f149e92ead563fba08ef,62a45d14cffe747c8b5ef0f2,,,,,,,,,,,,,,,,,,,,,,,,,,,,,,,,,,,,,,,,,,,,,,,,,,,,,,,,,,,,,,,,,,,,,,,,,,,,2,0,2,0,1,,,,,,,,,,,,,,,,,,,,,
,,,,,,,,,,,,5f761e5106b786071f45b4aa,25,Mężczyzna,2022-06-11_11h43.42.771,task,2021.1.4,Win32,142.7347987,6299f149e92ead563fba08ef,62a45d14cffe747c8b5ef0f2,,,,,,,,,,,,,0,,,,,,,,,,Task,33,(1/1) - 1,0,,,,,,,,,,,,,,,,,,,1,,,,,,,,,,,,,,,,,,,,,,,"[""0""]",1,[1.6625000000000227],0,0,0,32,1,,,,,,,,,,,,,,,,,,,,,,,,,,
,,,,,,,,,,,X V Q F H G B L J M P D K C T S W R N Z,5f761e5106b786071f45b4aa,25,Mężczyzna,2022-06-11_11h43.42.771,task,2021.1.4,Win32,142.7347987,6299f149e92ead563fba08ef,62a45d14cffe747c8b5ef0f2,,,,,,,,,,,,,,,,,,,,,,,,,,,,,,,,,,,,,,,,,,,,,,,,,,,,,,,,,,,,,,,,,,,,,,,,,,,,3,0,3,0,1,,,,,,,,,,,,,,,,,,,,,
,,,,,,,,,,,,5f761e5106b786071f45b4aa,25,Mężczyzna,2022-06-11_11h43.42.771,task,2021.1.4,Win32,142.7347987,6299f149e92ead563fba08ef,62a45d14cffe747c8b5ef0f2,,,,,,,,,,,,,3,,,,,,,,,,Task,35,(1x2) + 1,3,,,,,,,,,,,,,,,,,,,1,,,,,,,,,,,,,,,,,,,,,,,"[""3""]",1,[1.402600000023881],0,0,0,34,1,,,,,,,,,,,,,,,,,,,,,,,,,,
,,,,,,,,,,,X V Q F H G B L J M P D K C T S W R N Z,5f761e5106b786071f45b4aa,25,Mężczyzna,2022-06-11_11h43.42.771,task,2021.1.4,Win32,142.7347987,6299f149e92ead563fba08ef,62a45d14cffe747c8b5ef0f2,,,,,,,,,,,,,,,,,,,,,,,,,,,,,,,,,,,,,,,,,,,,,,,,,,,,,,,,,,,,,,,,,,,,,,,,,,,,4,0,4,0,1,,,,,,,,,,,,,,,,,,,,,
,,,,,,,,,,,,5f761e5106b786071f45b4aa,25,Mężczyzna,2022-06-11_11h43.42.771,task,2021.1.4,Win32,142.7347987,6299f149e92ead563fba08ef,62a45d14cffe747c8b5ef0f2,,,,,,,,,,,,,5,,,,,,,,,,Task,12,(4x4) - 11,5,,,,,,,,,,,,,,,,,,,1,,,,,,,,,,,,,,,,,,,,,,,"[""5""]",1,[1.6140000000000327],0,0,0,11,1,,,,,,,,,,,,,,,,,,,,,,,,,,
,,,,,,,,,,,X V Q F H G B L J M P D K C T S W R N Z,5f761e5106b786071f45b4aa,25,Mężczyzna,2022-06-11_11h43.42.771,task,2021.1.4,Win32,142.7347987,6299f149e92ead563fba08ef,62a45d14cffe747c8b5ef0f2,,,,,,,,,,,,,,,,,,,,,,,,,,,,,,,,,,,,,,,,,,,,,,,,,,,,,,,,,,,,,,,,,,,,,,,,,,,,5,0,5,0,1,,,,,,,,,,,,,,,,,,,,,
,,,,,,,,,,,,5f761e5106b786071f45b4aa,25,Mężczyzna,2022-06-11_11h43.42.771,task,2021.1.4,Win32,142.7347987,6299f149e92ead563fba08ef,62a45d14cffe747c8b5ef0f2,,,,,,,,,,,,,0,,,,,,,,,,Task,40,(7x2) - 5,9,,,,,,,,,,,,,,,,,,,0,,,,,,,,,,,,,,,,,,,,,,,"[""0""]",0,[2.027699999988158],0,0,0,39,1,,,,,,,,,,,,,,,,,,,,,,,,,,
,,,,,,,,,,,,5f761e5106b786071f45b4aa,25,Mężczyzna,2022-06-11_11h43.42.771,task,2021.1.4,Win32,142.7347987,6299f149e92ead563fba08ef,62a45d14cffe747c8b5ef0f2,,,,,,,,,,,,,3,,,,,,,,,,Task,3,(2x3) - 3,3,,,,,,,,,,,,,,,,,,,1,,,,,,,,,,,,,,,,,,,,,,,"[""3""]",1,[2.007600000023899],0,1,1,2,1,,,,,,,,,,,,,,,,,,,,,,,,,,
,,,,,,,,,,,X V Q F H G B L J M P D K C T S W R N Z,5f761e5106b786071f45b4aa,25,Mężczyzna,2022-06-11_11h43.42.771,task,2021.1.4,Win32,142.7347987,6299f149e92ead563fba08ef,62a45d14cffe747c8b5ef0f2,,,,,,,,,,,,,,,,,,,,,,,,,,,,,,,,,,,,,,,,,,,,,,,,,,,,,,,,,,,,,,,,,,,,,,,,,,,,6,0,6,0,1,,,,,,,,,,,,,,,,,,,,,
,,,,,,,,,,,,5f761e5106b786071f45b4aa,25,Mężczyzna,2022-06-11_11h43.42.771,task,2021.1.4,Win32,142.7347987,6299f149e92ead563fba08ef,62a45d14cffe747c8b5ef0f2,,,,,,,,,,,,,,,,,,,,,,,,,,,,,,,,,,,,,,,,,,,,,,,,,,,,,,,,,,,,,,,,,,,,,,,,,,,,,,,,,rwgbbxs,"[""r"",""w"",""g"",""b"",""b"",""x"",""s""]",0,"[1.506100000023821,1.7711999999880845,2.2908000000119273,2.506199999988098,2.653900000035719,3.01480000001186,3.15300000000002,3.7638000000118836]",1,RWGBBXS,6,0,6,0,1,,,,,,,,,,
,,,,,,,,,,,,5f761e5106b786071f45b4aa,25,Mężczyzna,2022-06-11_11h43.42.771,task,2021.1.4,Win32,142.7347987,6299f149e92ead563fba08ef,62a45d14cffe747c8b5ef0f2,,,,,,,,,,,,,5,,,,,,,,,,Task,36,(8/4) + 3,5,,,,,,,,,,,,,,,,,,,1,,,,,,,,,,,,,,,,,,,,,,,"[""5""]",1,[1.6111999999881164],0,0,0,35,1,,,,,,,,,,,,,,,,,,,,,,,,,,
,,,,,,,,,,,X V Q F H G B L J M P D K C T S W R N Z,5f761e5106b786071f45b4aa,25,Mężczyzna,2022-06-11_11h43.42.771,task,2021.1.4,Win32,142.7347987,6299f149e92ead563fba08ef,62a45d14cffe747c8b5ef0f2,,,,,,,,,,,,,,,,,,,,,,,,,,,,,,,,,,,,,,,,,,,,,,,,,,,,,,,,,,,,,,,,,,,,,,,,,,,,0,0,0,0,1,,,,,,,,,,,,,,,,,,,,,
,,,,,,,,,,,,5f761e5106b786071f45b4aa,25,Mężczyzna,2022-06-11_11h43.42.771,task,2021.1.4,Win32,142.7347987,6299f149e92ead563fba08ef,62a45d14cffe747c8b5ef0f2,,,,,,,,,,,,,7,,,,,,,,,,Task,6,(12/2) + 1,7,,,,,,,,,,,,,,,,,,,1,,,,,,,,,,,,,,,,,,,,,,,"[""7""]",1,[1.500600000023951],0,0,0,5,1,,,,,,,,,,,,,,,,,,,,,,,,,,
,,,,,,,,,,,X V Q F H G B L J M P D K C T S W R N Z,5f761e5106b786071f45b4aa,25,Mężczyzna,2022-06-11_11h43.42.771,task,2021.1.4,Win32,142.7347987,6299f149e92ead563fba08ef,62a45d14cffe747c8b5ef0f2,,,,,,,,,,,,,,,,,,,,,,,,,,,,,,,,,,,,,,,,,,,,,,,,,,,,,,,,,,,,,,,,,,,,,,,,,,,,1,0,1,0,1,,,,,,,,,,,,,,,,,,,,,
,,,,,,,,,,,,5f761e5106b786071f45b4aa,25,Mężczyzna,2022-06-11_11h43.42.771,task,2021.1.4,Win32,142.7347987,6299f149e92ead563fba08ef,62a45d14cffe747c8b5ef0f2,,,,,,,,,,,,,7,,,,,,,,,,Task,38,(4x6) - 17,7,,,,,,,,,,,,,,,,,,,1,,,,,,,,,,,,,,,,,,,,,,,"[""7""]",1,[2.9088999999761427],0,0,0,37,1,,,,,,,,,,,,,,,,,,,,,,,,,,
,,,,,,,,,,,X V Q F H G B L J M P D K C T S W R N Z,5f761e5106b786071f45b4aa,25,Mężczyzna,2022-06-11_11h43.42.771,task,2021.1.4,Win32,142.7347987,6299f149e92ead563fba08ef,62a45d14cffe747c8b5ef0f2,,,,,,,,,,,,,,,,,,,,,,,,,,,,,,,,,,,,,,,,,,,,,,,,,,,,,,,,,,,,,,,,,,,,,,,,,,,,2,0,2,0,1,,,,,,,,,,,,,,,,,,,,,
,,,,,,,,,,,,5f761e5106b786071f45b4aa,25,Mężczyzna,2022-06-11_11h43.42.771,task,2021.1.4,Win32,142.7347987,6299f149e92ead563fba08ef,62a45d14cffe747c8b5ef0f2,,,,,,,,,,,,,3,,,,,,,,,,Task,27,(3/3) + 2,3,,,,,,,,,,,,,,,,,,,1,,,,,,,,,,,,,,,,,,,,,,,"[""3""]",1,[1.49269999998819],0,0,0,26,1,,,,,,,,,,,,,,,,,,,,,,,,,,
,,,,,,,,,,,X V Q F H G B L J M P D K C T S W R N Z,5f761e5106b786071f45b4aa,25,Mężczyzna,2022-06-11_11h43.42.771,task,2021.1.4,Win32,142.7347987,6299f149e92ead563fba08ef,62a45d14cffe747c8b5ef0f2,,,,,,,,,,,,,,,,,,,,,,,,,,,,,,,,,,,,,,,,,,,,,,,,,,,,,,,,,,,,,,,,,,,,,,,,,,,,3,0,3,0,1,,,,,,,,,,,,,,,,,,,,,
,,,,,,,,,,,,5f761e5106b786071f45b4aa,25,Mężczyzna,2022-06-11_11h43.42.771,task,2021.1.4,Win32,142.7347987,6299f149e92ead563fba08ef,62a45d14cffe747c8b5ef0f2,,,,,,,,,,,,,4,,,,,,,,,,Task,11,(18/3) - 2,4,,,,,,,,,,,,,,,,,,,1,,,,,,,,,,,,,,,,,,,,,,,"[""4""]",1,[2.1602999999523718],0,0,0,10,1,,,,,,,,,,,,,,,,,,,,,,,,,,
,,,,,,,,,,,X V Q F H G B L J M P D K C T S W R N Z,5f761e5106b786071f45b4aa,25,Mężczyzna,2022-06-11_11h43.42.771,task,2021.1.4,Win32,142.7347987,6299f149e92ead563fba08ef,62a45d14cffe747c8b5ef0f2,,,,,,,,,,,,,,,,,,,,,,,,,,,,,,,,,,,,,,,,,,,,,,,,,,,,,,,,,,,,,,,,,,,,,,,,,,,,4,0,4,0,1,,,,,,,,,,,,,,,,,,,,,
,,,,,,,,,,,,5f761e5106b786071f45b4aa,25,Mężczyzna,2022-06-11_11h43.42.771,task,2021.1.4,Win32,142.7347987,6299f149e92ead563fba08ef,62a45d14cffe747c8b5ef0f2,,,,,,,,,,,,,0,,,,,,,,,,Task,8,(1x5) - 5,0,,,,,,,,,,,,,,,,,,,1,,,,,,,,,,,,,,,,,,,,,,,"[""0""]",1,[1.514400000035721],0,0,0,7,1,,,,,,,,,,,,,,,,,,,,,,,,,,
,,,,,,,,,,,X V Q F H G B L J M P D K C T S W R N Z,5f761e5106b786071f45b4aa,25,Mężczyzna,2022-06-11_11h43.42.771,task,2021.1.4,Win32,142.7347987,6299f149e92ead563fba08ef,62a45d14cffe747c8b5ef0f2,,,,,,,,,,,,,,,,,,,,,,,,,,,,,,,,,,,,,,,,,,,,,,,,,,,,,,,,,,,,,,,,,,,,,,,,,,,,5,0,5,0,1,,,,,,,,,,,,,,,,,,,,,
,,,,,,,,,,,,5f761e5106b786071f45b4aa,25,Mężczyzna,2022-06-11_11h43.42.771,task,2021.1.4,Win32,142.7347987,6299f149e92ead563fba08ef,62a45d14cffe747c8b5ef0f2,,,,,,,,,,,,,9,,,,,,,,,,Task,24,(2x2) + 5,9,,,,,,,,,,,,,,,,,,,1,,,,,,,,,,,,,,,,,,,,,,,"[""9""]",1,[2.4961999999881073],0,0,0,23,1,,,,,,,,,,,,,,,,,,,,,,,,,,
,,,,,,,,,,,X V Q F H G B L J M P D K C T S W R N Z,5f761e5106b786071f45b4aa,25,Mężczyzna,2022-06-11_11h43.42.771,task,2021.1.4,Win32,142.7347987,6299f149e92ead563fba08ef,62a45d14cffe747c8b5ef0f2,,,,,,,,,,,,,,,,,,,,,,,,,,,,,,,,,,,,,,,,,,,,,,,,,,,,,,,,,,,,,,,,,,,,,,,,,,,,6,0,6,0,1,,,,,,,,,,,,,,,,,,,,,
,,,,,,,,,,,,5f761e5106b786071f45b4aa,25,Mężczyzna,2022-06-11_11h43.42.771,task,2021.1.4,Win32,142.7347987,6299f149e92ead563fba08ef,62a45d14cffe747c8b5ef0f2,,,,,,,,,,,,,2,,,,,,,,,,Task,2,(2x2) - 2,2,,,,,,,,,,,,,,,,,,,1,,,,,,,,,,,,,,,,,,,,,,,"[""2""]",1,[2.138899999976161],0,0,0,1,1,,,,,,,,,,,,,,,,,,,,,,,,,,
,,,,,,,,,,,X V Q F H G B L J M P D K C T S W R N Z,5f761e5106b786071f45b4aa,25,Mężczyzna,2022-06-11_11h43.42.771,task,2021.1.4,Win32,142.7347987,6299f149e92ead563fba08ef,62a45d14cffe747c8b5ef0f2,,,,,,,,,,,,,,,,,,,,,,,,,,,,,,,,,,,,,,,,,,,,,,,,,,,,,,,,,,,,,,,,,,,,,,,,,,,,7,0,7,0,1,,,,,,,,,,,,,,,,,,,,,
,,,,,,,,,,,,5f761e5106b786071f45b4aa,25,Mężczyzna,2022-06-11_11h43.42.771,task,2021.1.4,Win32,142.7347987,6299f149e92ead563fba08ef,62a45d14cffe747c8b5ef0f2,,,,,,,,,,,,,,,,,,,,,,,,,,,,,,,,,,,,,,,,,,,,,,,,,,,,,,,,,,,,,,,,,,,,,,,,,,,,,,,,,rvvqcsz,"[""r"",""v"",""v"",""q"",""c"",""s"",""z""]",0,"[1.6413000000118245,2.201399999976161,2.3361999999880254,2.7154999999999063,3.0166000000238,3.2926000000237536,3.4171999999880427,4.001399999976115]",0,RVVPQCSZ,7,0,7,0,1,,,,,,,,,,
,,,,,,,,,,,,5f761e5106b786071f45b4aa,25,Mężczyzna,2022-06-11_11h43.42.771,task,2021.1.4,Win32,142.7347987,6299f149e92ead563fba08ef,62a45d14cffe747c8b5ef0f2,,,,,,,,,,,,,2,,,,,,,,,,Task,19,(6/2) - 1,2,,,,,,,,,,,,,,,,,,,1,,,,,,,,,,,,,,,,,,,,,,,"[""2""]",1,[1.9859000000358265],0,0,0,18,1,,,,,,,,,,,,,,,,,,,,,,,,,,
,,,,,,,,,,,X V Q F H G B L J M P D K C T S W R N Z,5f761e5106b786071f45b4aa,25,Mężczyzna,2022-06-11_11h43.42.771,task,2021.1.4,Win32,142.7347987,6299f149e92ead563fba08ef,62a45d14cffe747c8b5ef0f2,,,,,,,,,,,,,,,,,,,,,,,,,,,,,,,,,,,,,,,,,,,,,,,,,,,,,,,,,,,,,,,,,,,,,,,,,,,,0,0,0,0,1,,,,,,,,,,,,,,,,,,,,,
,,,,,,,,,,,,5f761e5106b786071f45b4aa,25,Mężczyzna,2022-06-11_11h43.42.771,task,2021.1.4,Win32,142.7347987,6299f149e92ead563fba08ef,62a45d14cffe747c8b5ef0f2,,,,,,,,,,,,,9,,,,,,,,,,Task,16,(3x8) - 15,9,,,,,,,,,,,,,,,,,,,1,,,,,,,,,,,,,,,,,,,,,,,"[""9""]",1,[2.2638000000119973],0,0,0,15,1,,,,,,,,,,,,,,,,,,,,,,,,,,
,,,,,,,,,,,X V Q F H G B L J M P D K C T S W R N Z,5f761e5106b786071f45b4aa,25,Mężczyzna,2022-06-11_11h43.42.771,task,2021.1.4,Win32,142.7347987,6299f149e92ead563fba08ef,62a45d14cffe747c8b5ef0f2,,,,,,,,,,,,,,,,,,,,,,,,,,,,,,,,,,,,,,,,,,,,,,,,,,,,,,,,,,,,,,,,,,,,,,,,,,,,1,0,1,0,1,,,,,,,,,,,,,,,,,,,,,
,,,,,,,,,,,,5f761e5106b786071f45b4aa,25,Mężczyzna,2022-06-11_11h43.42.771,task,2021.1.4,Win32,142.7347987,6299f149e92ead563fba08ef,62a45d14cffe747c8b5ef0f2,,,,,,,,,,,,,8,,,,,,,,,,Task,39,(5x3) - 7,8,,,,,,,,,,,,,,,,,,,1,,,,,,,,,,,,,,,,,,,,,,,"[""8""]",1,[3.2501999999880127],0,0,0,38,1,,,,,,,,,,,,,,,,,,,,,,,,,,
,,,,,,,,,,,X V Q F H G B L J M P D K C T S W R N Z,5f761e5106b786071f45b4aa,25,Mężczyzna,2022-06-11_11h43.42.771,task,2021.1.4,Win32,142.7347987,6299f149e92ead563fba08ef,62a45d14cffe747c8b5ef0f2,,,,,,,,,,,,,,,,,,,,,,,,,,,,,,,,,,,,,,,,,,,,,,,,,,,,,,,,,,,,,,,,,,,,,,,,,,,,2,0,2,0,1,,,,,,,,,,,,,,,,,,,,,
,,,,,,,,,,,,5f761e5106b786071f45b4aa,25,Mężczyzna,2022-06-11_11h43.42.771,task,2021.1.4,Win32,142.7347987,6299f149e92ead563fba08ef,62a45d14cffe747c8b5ef0f2,,,,,,,,,,,,,0,,,,,,,,,,Task,8,(1x5) - 5,0,,,,,,,,,,,,,,,,,,,1,,,,,,,,,,,,,,,,,,,,,,,"[""0""]",1,[1.0817999999522954],0,0,0,7,1,,,,,,,,,,,,,,,,,,,,,,,,,,
,,,,,,,,,,,X V Q F H G B L J M P D K C T S W R N Z,5f761e5106b786071f45b4aa,25,Mężczyzna,2022-06-11_11h43.42.771,task,2021.1.4,Win32,142.7347987,6299f149e92ead563fba08ef,62a45d14cffe747c8b5ef0f2,,,,,,,,,,,,,,,,,,,,,,,,,,,,,,,,,,,,,,,,,,,,,,,,,,,,,,,,,,,,,,,,,,,,,,,,,,,,3,0,3,0,1,,,,,,,,,,,,,,,,,,,,,
,,,,,,,,,,,,5f761e5106b786071f45b4aa,25,Mężczyzna,2022-06-11_11h43.42.771,task,2021.1.4,Win32,142.7347987,6299f149e92ead563fba08ef,62a45d14cffe747c8b5ef0f2,,,,,,,,,,,,,9,,,,,,,,,,Task,16,(3x8) - 15,9,,,,,,,,,,,,,,,,,,,1,,,,,,,,,,,,,,,,,,,,,,,"[""9""]",1,[1.562100000023861],0,0,0,15,1,,,,,,,,,,,,,,,,,,,,,,,,,,
,,,,,,,,,,,X V Q F H G B L J M P D K C T S W R N Z,5f761e5106b786071f45b4aa,25,Mężczyzna,2022-06-11_11h43.42.771,task,2021.1.4,Win32,142.7347987,6299f149e92ead563fba08ef,62a45d14cffe747c8b5ef0f2,,,,,,,,,,,,,,,,,,,,,,,,,,,,,,,,,,,,,,,,,,,,,,,,,,,,,,,,,,,,,,,,,,,,,,,,,,,,4,0,4,0,1,,,,,,,,,,,,,,,,,,,,,
,,,,,,,,,,,,5f761e5106b786071f45b4aa,25,Mężczyzna,2022-06-11_11h43.42.771,task,2021.1.4,Win32,142.7347987,6299f149e92ead563fba08ef,62a45d14cffe747c8b5ef0f2,,,,,,,,,,,,,2,,,,,,,,,,Task,2,(2x2) - 2,2,,,,,,,,,,,,,,,,,,,1,,,,,,,,,,,,,,,,,,,,,,,"[""2""]",1,[1.5138999999761609],0,0,0,1,1,,,,,,,,,,,,,,,,,,,,,,,,,,
,,,,,,,,,,,X V Q F H G B L J M P D K C T S W R N Z,5f761e5106b786071f45b4aa,25,Mężczyzna,2022-06-11_11h43.42.771,task,2021.1.4,Win32,142.7347987,6299f149e92ead563fba08ef,62a45d14cffe747c8b5ef0f2,,,,,,,,,,,,,,,,,,,,,,,,,,,,,,,,,,,,,,,,,,,,,,,,,,,,,,,,,,,,,,,,,,,,,,,,,,,,5,0,5,0,1,,,,,,,,,,,,,,,,,,,,,
,,,,,,,,,,,,5f761e5106b786071f45b4aa,25,Mężczyzna,2022-06-11_11h43.42.771,task,2021.1.4,Win32,142.7347987,6299f149e92ead563fba08ef,62a45d14cffe747c8b5ef0f2,,,,,,,,,,,,,0,,,,,,,,,,Task,8,(1x5) - 5,0,,,,,,,,,,,,,,,,,,,1,,,,,,,,,,,,,,,,,,,,,,,"[""0""]",1,[1.7223000000118418],0,0,0,7,1,,,,,,,,,,,,,,,,,,,,,,,,,,
,,,,,,,,,,,X V Q F H G B L J M P D K C T S W R N Z,5f761e5106b786071f45b4aa,25,Mężczyzna,2022-06-11_11h43.42.771,task,2021.1.4,Win32,142.7347987,6299f149e92ead563fba08ef,62a45d14cffe747c8b5ef0f2,,,,,,,,,,,,,,,,,,,,,,,,,,,,,,,,,,,,,,,,,,,,,,,,,,,,,,,,,,,,,,,,,,,,,,,,,,,,6,0,6,0,1,,,,,,,,,,,,,,,,,,,,,
,,,,,,,,,,,,5f761e5106b786071f45b4aa,25,Mężczyzna,2022-06-11_11h43.42.771,task,2021.1.4,Win32,142.7347987,6299f149e92ead563fba08ef,62a45d14cffe747c8b5ef0f2,,,,,,,,,,,,,5,,,,,,,,,,Task,22,(3x1) + 2,5,,,,,,,,,,,,,,,,,,,1,,,,,,,,,,,,,,,,,,,,,,,"[""5""]",1,[1.6587999999522935],0,0,0,21,1,,,,,,,,,,,,,,,,,,,,,,,,,,
,,,,,,,,,,,X V Q F H G B L J M P D K C T S W R N Z,5f761e5106b786071f45b4aa,25,Mężczyzna,2022-06-11_11h43.42.771,task,2021.1.4,Win32,142.7347987,6299f149e92ead563fba08ef,62a45d14cffe747c8b5ef0f2,,,,,,,,,,,,,,,,,,,,,,,,,,,,,,,,,,,,,,,,,,,,,,,,,,,,,,,,,,,,,,,,,,,,,,,,,,,,7,0,7,0,1,,,,,,,,,,,,,,,,,,,,,
,,,,,,,,,,,,5f761e5106b786071f45b4aa,25,Mężczyzna,2022-06-11_11h43.42.771,task,2021.1.4,Win32,142.7347987,6299f149e92ead563fba08ef,62a45d14cffe747c8b5ef0f2,,,,,,,,,,,,,,,,,,,,,,,,,,,,,,,,,,,,,,,,,,,,,,,,,,,,,,,,,,,,,,,,,,,,,,,,,,,,,,,,,pbjntsbw,"[""p"",""b"",""j"",""n"",""t"",""s"",""b"",""w""]",0,"[1.3808000000119591,1.76580000001195,2.0213000000119337,2.7569000000357846,3.1728000000118755,3.5475000000000136,4.451900000035721,4.743300000011914,5.669300000011958]",1,PBJNTSBW,8,0,8,0,1,,,,,,,,,,
,,,,,,,,,,,,5f761e5106b786071f45b4aa,25,Mężczyzna,2022-06-11_11h43.42.771,task,2021.1.4,Win32,142.7347987,6299f149e92ead563fba08ef,62a45d14cffe747c8b5ef0f2,,,,,,,,,,,,,9,,,,,,,,,,Task,7,(3x7) - 12,9,,,,,,,,,,,,,,,,,,,1,,,,,,,,,,,,,,,,,,,,,,,"[""9""]",1,[2.666499999999928],0,0,0,6,1,,,,,,,,,,,,,,,,,,,,,,,,,,
,,,,,,,,,,,X V Q F H G B L J M P D K C T S W R N Z,5f761e5106b786071f45b4aa,25,Mężczyzna,2022-06-11_11h43.42.771,task,2021.1.4,Win32,142.7347987,6299f149e92ead563fba08ef,62a45d14cffe747c8b5ef0f2,,,,,,,,,,,,,,,,,,,,,,,,,,,,,,,,,,,,,,,,,,,,,,,,,,,,,,,,,,,,,,,,,,,,,,,,,,,,0,0,0,0,1,,,,,,,,,,,,,,,,,,,,,
,,,,,,,,,,,,5f761e5106b786071f45b4aa,25,Mężczyzna,2022-06-11_11h43.42.771,task,2021.1.4,Win32,142.7347987,6299f149e92ead563fba08ef,62a45d14cffe747c8b5ef0f2,,,,,,,,,,,,,1,,,,,,,,,,Task,18,(16/4) - 3,1,,,,,,,,,,,,,,,,,,,1,,,,,,,,,,,,,,,,,,,,,,,"[""1""]",1,[2.5237999999523026],0,0,0,17,1,,,,,,,,,,,,,,,,,,,,,,,,,,
,,,,,,,,,,,X V Q F H G B L J M P D K C T S W R N Z,5f761e5106b786071f45b4aa,25,Mężczyzna,2022-06-11_11h43.42.771,task,2021.1.4,Win32,142.7347987,6299f149e92ead563fba08ef,62a45d14cffe747c8b5ef0f2,,,,,,,,,,,,,,,,,,,,,,,,,,,,,,,,,,,,,,,,,,,,,,,,,,,,,,,,,,,,,,,,,,,,,,,,,,,,1,0,1,0,1,,,,,,,,,,,,,,,,,,,,,
,,,,,,,,,,,,5f761e5106b786071f45b4aa,25,Mężczyzna,2022-06-11_11h43.42.771,task,2021.1.4,Win32,142.7347987,6299f149e92ead563fba08ef,62a45d14cffe747c8b5ef0f2,,,,,,,,,,,,,5,,,,,,,,,,Task,22,(3x1) + 2,5,,,,,,,,,,,,,,,,,,,1,,,,,,,,,,,,,,,,,,,,,,,"[""5""]",1,[1.2283000000119273],0,0,0,21,1,,,,,,,,,,,,,,,,,,,,,,,,,,
,,,,,,,,,,,X V Q F H G B L J M P D K C T S W R N Z,5f761e5106b786071f45b4aa,25,Mężczyzna,2022-06-11_11h43.42.771,task,2021.1.4,Win32,142.7347987,6299f149e92ead563fba08ef,62a45d14cffe747c8b5ef0f2,,,,,,,,,,,,,,,,,,,,,,,,,,,,,,,,,,,,,,,,,,,,,,,,,,,,,,,,,,,,,,,,,,,,,,,,,,,,2,0,2,0,1,,,,,,,,,,,,,,,,,,,,,
