key_resp_15.keys,key_resp_15.rt,key_resp_16.keys,key_resp_16.rt,key_resp_4.keys,key_resp_4.rt,next_letter.thisRepN,next_letter.thisTrialN,next_letter.thisN,next_letter.thisIndex,next_letter.ran,letter,participant,Wiek*,Płeć,date,expName,psychopyVersion,OS,frameRate,study_id,session,simple_recall,key_resp_5.keys,key_resp_5.rt,simple_recall_corr,simple_recall_corrkeys,next_level.thisRepN,next_level.thisTrialN,next_level.thisN,next_level.thisIndex,next_level.ran,key_resp_2.keys,key_resp_2.rt,digit_answer,key_resp.keys,key_resp.corr,key_resp.rt,RT_list,next_equation.thisRepN,next_equation.thisTrialN,next_equation.thisN,next_equation.thisIndex,next_equation.ran,Task,Trial,Problem,Operation_answer,processing_score,sumRT,meanRT,sumdiff,sd,RT,key_resp_3.keys,key_resp_3.rt,repeat_practice.thisRepN,repeat_practice.thisTrialN,repeat_practice.thisN,repeat_practice.thisIndex,repeat_practice.ran,key_resp_6.keys,key_resp_6.rt,key_resp_11.keys,key_resp_11.corr,key_resp_11.rt,operation_correct,repeat_if_wrong_prac.thisRepN,repeat_if_wrong_prac.thisTrialN,repeat_if_wrong_prac.thisN,repeat_if_wrong_prac.thisIndex,repeat_if_wrong_prac.ran,span_size_prac.thisRepN,span_size_prac.thisTrialN,span_size_prac.thisN,span_size_prac.thisIndex,span_size_prac.ran,complex_recall_practice,key_resp_9.keys,key_resp_9.corr,key_resp_9.rt,complex_prac_corr,span_recall_prac.thisRepN,span_recall_prac.thisTrialN,span_recall_prac.thisN,span_recall_prac.thisIndex,span_recall_prac.ran,key_resp_10.keys,key_resp_10.rt,key_resp_7.keys,key_resp_7.corr,key_resp_7.rt,repeat_if_wrong.thisRepN,repeat_if_wrong.thisTrialN,repeat_if_wrong.thisN,repeat_if_wrong.thisIndex,repeat_if_wrong.ran,span_size.thisRepN,span_size.thisTrialN,span_size.thisN,span_size.thisIndex,span_size.ran,complex_recall,key_resp_8.keys,key_resp_8.corr,key_resp_8.rt,complex_recall_corr,complex_recall_corrkeys,span_recall.thisRepN,span_recall.thisTrialN,span_recall.thisN,span_recall.thisIndex,span_recall.ran,key_resp_13.keys,key_resp_13.corr,key_resp_13.rt,random_loop.thisRepN,random_loop.thisTrialN,random_loop.thisN,random_loop.thisIndex,random_loop.ran,key_resp_12.keys,key_resp_12.rt
space,18.1153,space,16.705,space,7.9396,0,0,0,0,1,X V Q F H G B L J M P D K C T S W R N Z,5f7bd801486f5e1ce581980f,21,Kobieta,2022-06-11_09h29.31.629,task,2021.1.4,MacIntel,60.0024001,6299f149e92ead563fba08ef,62a4443cf9ee4b52b50eafaf,,,,,,,,,,,,,,,,,,,,,,,,,,,,,,,,,,,,,,,,,,,,,,,,,,,,,,,,,,,,,,,,,,,,,,,,,,,,,,,,,,,,,,,,,,,,,,,,,,,,,
,,,,,,1,0,1,0,1,X V Q F H G B L J M P D K C T S W R N Z,5f7bd801486f5e1ce581980f,21,Kobieta,2022-06-11_09h29.31.629,task,2021.1.4,MacIntel,60.0024001,6299f149e92ead563fba08ef,62a4443cf9ee4b52b50eafaf,,,,,,,,,,,,,,,,,,,,,,,,,,,,,,,,,,,,,,,,,,,,,,,,,,,,,,,,,,,,,,,,,,,,,,,,,,,,,,,,,,,,,,,,,,,,,,,,,,,,,
,,,,,,,,,,,,5f7bd801486f5e1ce581980f,21,Kobieta,2022-06-11_09h29.31.629,task,2021.1.4,MacIntel,60.0024001,6299f149e92ead563fba08ef,62a4443cf9ee4b52b50eafaf,zw,"[""z"",""w""]","[1.877299999997021,2.1806999999955394,4.163699999995529]",1,ZW,0,0,0,0,1,,,,,,,,,,,,,,,,,,,,,,,,,,,,,,,,,,,,,,,,,,,,,,,,,,,,,,,,,,,,,,,,,,,,,,,,,,,,,,,,,,,,,,,,,,,
,,,,,,0,0,0,0,1,X V Q F H G B L J M P D K C T S W R N Z,5f7bd801486f5e1ce581980f,21,Kobieta,2022-06-11_09h29.31.629,task,2021.1.4,MacIntel,60.0024001,6299f149e92ead563fba08ef,62a4443cf9ee4b52b50eafaf,,,,,,,,,,,,,,,,,,,,,,,,,,,,,,,,,,,,,,,,,,,,,,,,,,,,,,,,,,,,,,,,,,,,,,,,,,,,,,,,,,,,,,,,,,,,,,,,,,,,,
,,,,,,1,0,1,0,1,X V Q F H G B L J M P D K C T S W R N Z,5f7bd801486f5e1ce581980f,21,Kobieta,2022-06-11_09h29.31.629,task,2021.1.4,MacIntel,60.0024001,6299f149e92ead563fba08ef,62a4443cf9ee4b52b50eafaf,,,,,,,,,,,,,,,,,,,,,,,,,,,,,,,,,,,,,,,,,,,,,,,,,,,,,,,,,,,,,,,,,,,,,,,,,,,,,,,,,,,,,,,,,,,,,,,,,,,,,
,,,,,,,,,,,,5f7bd801486f5e1ce581980f,21,Kobieta,2022-06-11_09h29.31.629,task,2021.1.4,MacIntel,60.0024001,6299f149e92ead563fba08ef,62a4443cf9ee4b52b50eafaf,xp,"[""x"",""p""]","[2.2863000000044735,2.4549000000059635,3.2051000000014938]",1,XP,1,0,1,0,1,,,,,,,,,,,,,,,,,,,,,,,,,,,,,,,,,,,,,,,,,,,,,,,,,,,,,,,,,,,,,,,,,,,,,,,,,,,,,,,,,,,,,,,,,,,
,,,,,,0,0,0,0,1,X V Q F H G B L J M P D K C T S W R N Z,5f7bd801486f5e1ce581980f,21,Kobieta,2022-06-11_09h29.31.629,task,2021.1.4,MacIntel,60.0024001,6299f149e92ead563fba08ef,62a4443cf9ee4b52b50eafaf,,,,,,,,,,,,,,,,,,,,,,,,,,,,,,,,,,,,,,,,,,,,,,,,,,,,,,,,,,,,,,,,,,,,,,,,,,,,,,,,,,,,,,,,,,,,,,,,,,,,,
,,,,,,1,0,1,0,1,X V Q F H G B L J M P D K C T S W R N Z,5f7bd801486f5e1ce581980f,21,Kobieta,2022-06-11_09h29.31.629,task,2021.1.4,MacIntel,60.0024001,6299f149e92ead563fba08ef,62a4443cf9ee4b52b50eafaf,,,,,,,,,,,,,,,,,,,,,,,,,,,,,,,,,,,,,,,,,,,,,,,,,,,,,,,,,,,,,,,,,,,,,,,,,,,,,,,,,,,,,,,,,,,,,,,,,,,,,
,,,,,,2,0,2,0,1,X V Q F H G B L J M P D K C T S W R N Z,5f7bd801486f5e1ce581980f,21,Kobieta,2022-06-11_09h29.31.629,task,2021.1.4,MacIntel,60.0024001,6299f149e92ead563fba08ef,62a4443cf9ee4b52b50eafaf,,,,,,,,,,,,,,,,,,,,,,,,,,,,,,,,,,,,,,,,,,,,,,,,,,,,,,,,,,,,,,,,,,,,,,,,,,,,,,,,,,,,,,,,,,,,,,,,,,,,,
,,,,,,,,,,,,5f7bd801486f5e1ce581980f,21,Kobieta,2022-06-11_09h29.31.629,task,2021.1.4,MacIntel,60.0024001,6299f149e92ead563fba08ef,62a4443cf9ee4b52b50eafaf,nrw,"[""n"",""r"",""w""]","[1.1997000000029772,1.3503000000044665,1.551000000000002,2.4213000000044644]",1,NRW,2,0,2,0,1,,,,,,,,,,,,,,,,,,,,,,,,,,,,,,,,,,,,,,,,,,,,,,,,,,,,,,,,,,,,,,,,,,,,,,,,,,,,,,,,,,,,,,,,,,,
,,,,,,0,0,0,0,1,X V Q F H G B L J M P D K C T S W R N Z,5f7bd801486f5e1ce581980f,21,Kobieta,2022-06-11_09h29.31.629,task,2021.1.4,MacIntel,60.0024001,6299f149e92ead563fba08ef,62a4443cf9ee4b52b50eafaf,,,,,,,,,,,,,,,,,,,,,,,,,,,,,,,,,,,,,,,,,,,,,,,,,,,,,,,,,,,,,,,,,,,,,,,,,,,,,,,,,,,,,,,,,,,,,,,,,,,,,
,,,,,,1,0,1,0,1,X V Q F H G B L J M P D K C T S W R N Z,5f7bd801486f5e1ce581980f,21,Kobieta,2022-06-11_09h29.31.629,task,2021.1.4,MacIntel,60.0024001,6299f149e92ead563fba08ef,62a4443cf9ee4b52b50eafaf,,,,,,,,,,,,,,,,,,,,,,,,,,,,,,,,,,,,,,,,,,,,,,,,,,,,,,,,,,,,,,,,,,,,,,,,,,,,,,,,,,,,,,,,,,,,,,,,,,,,,
,,,,,,2,0,2,0,1,X V Q F H G B L J M P D K C T S W R N Z,5f7bd801486f5e1ce581980f,21,Kobieta,2022-06-11_09h29.31.629,task,2021.1.4,MacIntel,60.0024001,6299f149e92ead563fba08ef,62a4443cf9ee4b52b50eafaf,,,,,,,,,,,,,,,,,,,,,,,,,,,,,,,,,,,,,,,,,,,,,,,,,,,,,,,,,,,,,,,,,,,,,,,,,,,,,,,,,,,,,,,,,,,,,,,,,,,,,
,,,,,,,,,,,,5f7bd801486f5e1ce581980f,21,Kobieta,2022-06-11_09h29.31.629,task,2021.1.4,MacIntel,60.0024001,6299f149e92ead563fba08ef,62a4443cf9ee4b52b50eafaf,shk,"[""s"",""h"",""k""]","[1.180700000002986,1.5697000000029817,1.9164999999999992,2.217500000000001]",1,SHK,3,0,3,0,1,,,,,,,,,,,,,,,,,,,,,,,,,,,,,,,,,,,,,,,,,,,,,,,,,,,,,,,,,,,,,,,,,,,,,,,,,,,,,,,,,,,,,,,,,,,
,,,,,,0,0,0,0,1,X V Q F H G B L J M P D K C T S W R N Z,5f7bd801486f5e1ce581980f,21,Kobieta,2022-06-11_09h29.31.629,task,2021.1.4,MacIntel,60.0024001,6299f149e92ead563fba08ef,62a4443cf9ee4b52b50eafaf,,,,,,,,,,,,,,,,,,,,,,,,,,,,,,,,,,,,,,,,,,,,,,,,,,,,,,,,,,,,,,,,,,,,,,,,,,,,,,,,,,,,,,,,,,,,,,,,,,,,,
,,,,,,1,0,1,0,1,X V Q F H G B L J M P D K C T S W R N Z,5f7bd801486f5e1ce581980f,21,Kobieta,2022-06-11_09h29.31.629,task,2021.1.4,MacIntel,60.0024001,6299f149e92ead563fba08ef,62a4443cf9ee4b52b50eafaf,,,,,,,,,,,,,,,,,,,,,,,,,,,,,,,,,,,,,,,,,,,,,,,,,,,,,,,,,,,,,,,,,,,,,,,,,,,,,,,,,,,,,,,,,,,,,,,,,,,,,
,,,,,,2,0,2,0,1,X V Q F H G B L J M P D K C T S W R N Z,5f7bd801486f5e1ce581980f,21,Kobieta,2022-06-11_09h29.31.629,task,2021.1.4,MacIntel,60.0024001,6299f149e92ead563fba08ef,62a4443cf9ee4b52b50eafaf,,,,,,,,,,,,,,,,,,,,,,,,,,,,,,,,,,,,,,,,,,,,,,,,,,,,,,,,,,,,,,,,,,,,,,,,,,,,,,,,,,,,,,,,,,,,,,,,,,,,,
,,,,,,3,0,3,0,1,X V Q F H G B L J M P D K C T S W R N Z,5f7bd801486f5e1ce581980f,21,Kobieta,2022-06-11_09h29.31.629,task,2021.1.4,MacIntel,60.0024001,6299f149e92ead563fba08ef,62a4443cf9ee4b52b50eafaf,,,,,,,,,,,,,,,,,,,,,,,,,,,,,,,,,,,,,,,,,,,,,,,,,,,,,,,,,,,,,,,,,,,,,,,,,,,,,,,,,,,,,,,,,,,,,,,,,,,,,
,,,,,,,,,,,,5f7bd801486f5e1ce581980f,21,Kobieta,2022-06-11_09h29.31.629,task,2021.1.4,MacIntel,60.0024001,6299f149e92ead563fba08ef,62a4443cf9ee4b52b50eafaf,wthx,"[""w"",""t"",""h"",""x""]","[0.8160000000000025,1.1693999999985039,1.534300000004464,1.8323999999985148,2.165300000004464]",1,WTHX,4,0,4,0,1,,,,,,,,,,,,,,,,,,,,,,,,,,,,,,,,,,,,,,,,,,,,,,,,,,,,,,,,,,,,,,,,,,,,,,,,,,,,,,,,,,,,,,,,,,,
,,,,,,0,0,0,0,1,X V Q F H G B L J M P D K C T S W R N Z,5f7bd801486f5e1ce581980f,21,Kobieta,2022-06-11_09h29.31.629,task,2021.1.4,MacIntel,60.0024001,6299f149e92ead563fba08ef,62a4443cf9ee4b52b50eafaf,,,,,,,,,,,,,,,,,,,,,,,,,,,,,,,,,,,,,,,,,,,,,,,,,,,,,,,,,,,,,,,,,,,,,,,,,,,,,,,,,,,,,,,,,,,,,,,,,,,,,
,,,,,,1,0,1,0,1,X V Q F H G B L J M P D K C T S W R N Z,5f7bd801486f5e1ce581980f,21,Kobieta,2022-06-11_09h29.31.629,task,2021.1.4,MacIntel,60.0024001,6299f149e92ead563fba08ef,62a4443cf9ee4b52b50eafaf,,,,,,,,,,,,,,,,,,,,,,,,,,,,,,,,,,,,,,,,,,,,,,,,,,,,,,,,,,,,,,,,,,,,,,,,,,,,,,,,,,,,,,,,,,,,,,,,,,,,,
,,,,,,2,0,2,0,1,X V Q F H G B L J M P D K C T S W R N Z,5f7bd801486f5e1ce581980f,21,Kobieta,2022-06-11_09h29.31.629,task,2021.1.4,MacIntel,60.0024001,6299f149e92ead563fba08ef,62a4443cf9ee4b52b50eafaf,,,,,,,,,,,,,,,,,,,,,,,,,,,,,,,,,,,,,,,,,,,,,,,,,,,,,,,,,,,,,,,,,,,,,,,,,,,,,,,,,,,,,,,,,,,,,,,,,,,,,
,,,,,,3,0,3,0,1,X V Q F H G B L J M P D K C T S W R N Z,5f7bd801486f5e1ce581980f,21,Kobieta,2022-06-11_09h29.31.629,task,2021.1.4,MacIntel,60.0024001,6299f149e92ead563fba08ef,62a4443cf9ee4b52b50eafaf,,,,,,,,,,,,,,,,,,,,,,,,,,,,,,,,,,,,,,,,,,,,,,,,,,,,,,,,,,,,,,,,,,,,,,,,,,,,,,,,,,,,,,,,,,,,,,,,,,,,,
,,,,,,,,,,,,5f7bd801486f5e1ce581980f,21,Kobieta,2022-06-11_09h29.31.629,task,2021.1.4,MacIntel,60.0024001,6299f149e92ead563fba08ef,62a4443cf9ee4b52b50eafaf,shdg,"[""s"",""h"",""d"",""g""]","[0.8336000000014963,1.9861000000014997,2.386300000004468,2.6677000000029807,3.099899999998513]",1,SHDG,5,0,5,0,1,,,,,,,,,,,,,,,,,,,,,,,,,,,,,,,,,,,,,,,,,,,,,,,,,,,,,,,,,,,,,,,,,,,,,,,,,,,,,,,,,,,,,,,,,,,
,,,,,,0,0,0,0,1,X V Q F H G B L J M P D K C T S W R N Z,5f7bd801486f5e1ce581980f,21,Kobieta,2022-06-11_09h29.31.629,task,2021.1.4,MacIntel,60.0024001,6299f149e92ead563fba08ef,62a4443cf9ee4b52b50eafaf,,,,,,,,,,,,,,,,,,,,,,,,,,,,,,,,,,,,,,,,,,,,,,,,,,,,,,,,,,,,,,,,,,,,,,,,,,,,,,,,,,,,,,,,,,,,,,,,,,,,,
,,,,,,1,0,1,0,1,X V Q F H G B L J M P D K C T S W R N Z,5f7bd801486f5e1ce581980f,21,Kobieta,2022-06-11_09h29.31.629,task,2021.1.4,MacIntel,60.0024001,6299f149e92ead563fba08ef,62a4443cf9ee4b52b50eafaf,,,,,,,,,,,,,,,,,,,,,,,,,,,,,,,,,,,,,,,,,,,,,,,,,,,,,,,,,,,,,,,,,,,,,,,,,,,,,,,,,,,,,,,,,,,,,,,,,,,,,
,,,,,,2,0,2,0,1,X V Q F H G B L J M P D K C T S W R N Z,5f7bd801486f5e1ce581980f,21,Kobieta,2022-06-11_09h29.31.629,task,2021.1.4,MacIntel,60.0024001,6299f149e92ead563fba08ef,62a4443cf9ee4b52b50eafaf,,,,,,,,,,,,,,,,,,,,,,,,,,,,,,,,,,,,,,,,,,,,,,,,,,,,,,,,,,,,,,,,,,,,,,,,,,,,,,,,,,,,,,,,,,,,,,,,,,,,,
,,,,,,3,0,3,0,1,X V Q F H G B L J M P D K C T S W R N Z,5f7bd801486f5e1ce581980f,21,Kobieta,2022-06-11_09h29.31.629,task,2021.1.4,MacIntel,60.0024001,6299f149e92ead563fba08ef,62a4443cf9ee4b52b50eafaf,,,,,,,,,,,,,,,,,,,,,,,,,,,,,,,,,,,,,,,,,,,,,,,,,,,,,,,,,,,,,,,,,,,,,,,,,,,,,,,,,,,,,,,,,,,,,,,,,,,,,
,,,,,,4,0,4,0,1,X V Q F H G B L J M P D K C T S W R N Z,5f7bd801486f5e1ce581980f,21,Kobieta,2022-06-11_09h29.31.629,task,2021.1.4,MacIntel,60.0024001,6299f149e92ead563fba08ef,62a4443cf9ee4b52b50eafaf,,,,,,,,,,,,,,,,,,,,,,,,,,,,,,,,,,,,,,,,,,,,,,,,,,,,,,,,,,,,,,,,,,,,,,,,,,,,,,,,,,,,,,,,,,,,,,,,,,,,,
,,,,,,,,,,,,5f7bd801486f5e1ce581980f,21,Kobieta,2022-06-11_09h29.31.629,task,2021.1.4,MacIntel,60.0024001,6299f149e92ead563fba08ef,62a4443cf9ee4b52b50eafaf,grlsf,"[""g"",""r"",""l"",""s"",""f""]","[2.6511999999955265,3.3152999999970234,3.988699999995532,4.616599999994037,4.78179999999702,4.938000000000002]",0,GRLFZ,6,0,6,0,1,,,,,,,,,,,,,,,,,,,,,,,,,,,,,,,,,,,,,,,,,,,,,,,,,,,,,,,,,,,,,,,,,,,,,,,,,,,,,,,,,,,,,,,,,,,
,,,,,,0,0,0,0,1,X V Q F H G B L J M P D K C T S W R N Z,5f7bd801486f5e1ce581980f,21,Kobieta,2022-06-11_09h29.31.629,task,2021.1.4,MacIntel,60.0024001,6299f149e92ead563fba08ef,62a4443cf9ee4b52b50eafaf,,,,,,,,,,,,,,,,,,,,,,,,,,,,,,,,,,,,,,,,,,,,,,,,,,,,,,,,,,,,,,,,,,,,,,,,,,,,,,,,,,,,,,,,,,,,,,,,,,,,,
,,,,,,1,0,1,0,1,X V Q F H G B L J M P D K C T S W R N Z,5f7bd801486f5e1ce581980f,21,Kobieta,2022-06-11_09h29.31.629,task,2021.1.4,MacIntel,60.0024001,6299f149e92ead563fba08ef,62a4443cf9ee4b52b50eafaf,,,,,,,,,,,,,,,,,,,,,,,,,,,,,,,,,,,,,,,,,,,,,,,,,,,,,,,,,,,,,,,,,,,,,,,,,,,,,,,,,,,,,,,,,,,,,,,,,,,,,
,,,,,,2,0,2,0,1,X V Q F H G B L J M P D K C T S W R N Z,5f7bd801486f5e1ce581980f,21,Kobieta,2022-06-11_09h29.31.629,task,2021.1.4,MacIntel,60.0024001,6299f149e92ead563fba08ef,62a4443cf9ee4b52b50eafaf,,,,,,,,,,,,,,,,,,,,,,,,,,,,,,,,,,,,,,,,,,,,,,,,,,,,,,,,,,,,,,,,,,,,,,,,,,,,,,,,,,,,,,,,,,,,,,,,,,,,,
,,,,,,3,0,3,0,1,X V Q F H G B L J M P D K C T S W R N Z,5f7bd801486f5e1ce581980f,21,Kobieta,2022-06-11_09h29.31.629,task,2021.1.4,MacIntel,60.0024001,6299f149e92ead563fba08ef,62a4443cf9ee4b52b50eafaf,,,,,,,,,,,,,,,,,,,,,,,,,,,,,,,,,,,,,,,,,,,,,,,,,,,,,,,,,,,,,,,,,,,,,,,,,,,,,,,,,,,,,,,,,,,,,,,,,,,,,
,,,,,,4,0,4,0,1,X V Q F H G B L J M P D K C T S W R N Z,5f7bd801486f5e1ce581980f,21,Kobieta,2022-06-11_09h29.31.629,task,2021.1.4,MacIntel,60.0024001,6299f149e92ead563fba08ef,62a4443cf9ee4b52b50eafaf,,,,,,,,,,,,,,,,,,,,,,,,,,,,,,,,,,,,,,,,,,,,,,,,,,,,,,,,,,,,,,,,,,,,,,,,,,,,,,,,,,,,,,,,,,,,,,,,,,,,,
,,,,,,,,,,,,5f7bd801486f5e1ce581980f,21,Kobieta,2022-06-11_09h29.31.629,task,2021.1.4,MacIntel,60.0024001,6299f149e92ead563fba08ef,62a4443cf9ee4b52b50eafaf,prsjj,"[""p"",""r"",""s"",""j"",""j""]","[1.8681000000014905,2.1345000000000027,2.433499999999995,2.9684999999999917,3.133100000001491,3.517700000002975]",1,PRSJJ,7,0,7,0,1,,,,,,,,,,,,,,,,,,,,,,,,,,,,,,,,,,,,,,,,,,,,,,,,,,,,,,,,,,,,,,,,,,,,,,,,,,,,,,,,,,,,,,,,,,,
,,,,,,0,0,0,0,1,X V Q F H G B L J M P D K C T S W R N Z,5f7bd801486f5e1ce581980f,21,Kobieta,2022-06-11_09h29.31.629,task,2021.1.4,MacIntel,60.0024001,6299f149e92ead563fba08ef,62a4443cf9ee4b52b50eafaf,,,,,,,,,,,,,,,,,,,,,,,,,,,,,,,,,,,,,,,,,,,,,,,,,,,,,,,,,,,,,,,,,,,,,,,,,,,,,,,,,,,,,,,,,,,,,,,,,,,,,
,,,,,,1,0,1,0,1,X V Q F H G B L J M P D K C T S W R N Z,5f7bd801486f5e1ce581980f,21,Kobieta,2022-06-11_09h29.31.629,task,2021.1.4,MacIntel,60.0024001,6299f149e92ead563fba08ef,62a4443cf9ee4b52b50eafaf,,,,,,,,,,,,,,,,,,,,,,,,,,,,,,,,,,,,,,,,,,,,,,,,,,,,,,,,,,,,,,,,,,,,,,,,,,,,,,,,,,,,,,,,,,,,,,,,,,,,,
,,,,,,2,0,2,0,1,X V Q F H G B L J M P D K C T S W R N Z,5f7bd801486f5e1ce581980f,21,Kobieta,2022-06-11_09h29.31.629,task,2021.1.4,MacIntel,60.0024001,6299f149e92ead563fba08ef,62a4443cf9ee4b52b50eafaf,,,,,,,,,,,,,,,,,,,,,,,,,,,,,,,,,,,,,,,,,,,,,,,,,,,,,,,,,,,,,,,,,,,,,,,,,,,,,,,,,,,,,,,,,,,,,,,,,,,,,
,,,,,,3,0,3,0,1,X V Q F H G B L J M P D K C T S W R N Z,5f7bd801486f5e1ce581980f,21,Kobieta,2022-06-11_09h29.31.629,task,2021.1.4,MacIntel,60.0024001,6299f149e92ead563fba08ef,62a4443cf9ee4b52b50eafaf,,,,,,,,,,,,,,,,,,,,,,,,,,,,,,,,,,,,,,,,,,,,,,,,,,,,,,,,,,,,,,,,,,,,,,,,,,,,,,,,,,,,,,,,,,,,,,,,,,,,,
,,,,,,4,0,4,0,1,X V Q F H G B L J M P D K C T S W R N Z,5f7bd801486f5e1ce581980f,21,Kobieta,2022-06-11_09h29.31.629,task,2021.1.4,MacIntel,60.0024001,6299f149e92ead563fba08ef,62a4443cf9ee4b52b50eafaf,,,,,,,,,,,,,,,,,,,,,,,,,,,,,,,,,,,,,,,,,,,,,,,,,,,,,,,,,,,,,,,,,,,,,,,,,,,,,,,,,,,,,,,,,,,,,,,,,,,,,
,,,,,,,,,,,,5f7bd801486f5e1ce581980f,21,Kobieta,2022-06-11_09h29.31.629,task,2021.1.4,MacIntel,60.0024001,6299f149e92ead563fba08ef,62a4443cf9ee4b52b50eafaf,mqftr,"[""m"",""q"",""f"",""t"",""r""]","[0.9654000000059568,1.39970000000298,2.0182000000029916,3.017300000004468,3.2167000000029873,4.300000000000011]",0,MQHTF,8,0,8,0,1,,,,,,,,,,,,,,,,,,,,,,,,,,,,,,,,,,,,,,,,,,,,,,,,,,,,,,,,,,,,,,,,,,,,,,,,,,,,,,,,,,,,,,,,,,,
,,,,,,0,0,0,0,1,X V Q F H G B L J M P D K C T S W R N Z,5f7bd801486f5e1ce581980f,21,Kobieta,2022-06-11_09h29.31.629,task,2021.1.4,MacIntel,60.0024001,6299f149e92ead563fba08ef,62a4443cf9ee4b52b50eafaf,,,,,,,,,,,,,,,,,,,,,,,,,,,,,,,,,,,,,,,,,,,,,,,,,,,,,,,,,,,,,,,,,,,,,,,,,,,,,,,,,,,,,,,,,,,,,,,,,,,,,
,,,,,,1,0,1,0,1,X V Q F H G B L J M P D K C T S W R N Z,5f7bd801486f5e1ce581980f,21,Kobieta,2022-06-11_09h29.31.629,task,2021.1.4,MacIntel,60.0024001,6299f149e92ead563fba08ef,62a4443cf9ee4b52b50eafaf,,,,,,,,,,,,,,,,,,,,,,,,,,,,,,,,,,,,,,,,,,,,,,,,,,,,,,,,,,,,,,,,,,,,,,,,,,,,,,,,,,,,,,,,,,,,,,,,,,,,,
,,,,,,2,0,2,0,1,X V Q F H G B L J M P D K C T S W R N Z,5f7bd801486f5e1ce581980f,21,Kobieta,2022-06-11_09h29.31.629,task,2021.1.4,MacIntel,60.0024001,6299f149e92ead563fba08ef,62a4443cf9ee4b52b50eafaf,,,,,,,,,,,,,,,,,,,,,,,,,,,,,,,,,,,,,,,,,,,,,,,,,,,,,,,,,,,,,,,,,,,,,,,,,,,,,,,,,,,,,,,,,,,,,,,,,,,,,
,,,,,,3,0,3,0,1,X V Q F H G B L J M P D K C T S W R N Z,5f7bd801486f5e1ce581980f,21,Kobieta,2022-06-11_09h29.31.629,task,2021.1.4,MacIntel,60.0024001,6299f149e92ead563fba08ef,62a4443cf9ee4b52b50eafaf,,,,,,,,,,,,,,,,,,,,,,,,,,,,,,,,,,,,,,,,,,,,,,,,,,,,,,,,,,,,,,,,,,,,,,,,,,,,,,,,,,,,,,,,,,,,,,,,,,,,,
,,,,,,4,0,4,0,1,X V Q F H G B L J M P D K C T S W R N Z,5f7bd801486f5e1ce581980f,21,Kobieta,2022-06-11_09h29.31.629,task,2021.1.4,MacIntel,60.0024001,6299f149e92ead563fba08ef,62a4443cf9ee4b52b50eafaf,,,,,,,,,,,,,,,,,,,,,,,,,,,,,,,,,,,,,,,,,,,,,,,,,,,,,,,,,,,,,,,,,,,,,,,,,,,,,,,,,,,,,,,,,,,,,,,,,,,,,
,,,,,,,,,,,,5f7bd801486f5e1ce581980f,21,Kobieta,2022-06-11_09h29.31.629,task,2021.1.4,MacIntel,60.0024001,6299f149e92ead563fba08ef,62a4443cf9ee4b52b50eafaf,htrxv,"[""h"",""t"",""r"",""x"",""v""]","[2.4499999999999886,2.8006999999955156,3.783799999997001,4.433899999998488,5.149199999995517,5.449599999994035]",0,HCNXV,9,0,9,0,1,,,,,,,,,,,,,,,,,,,,,,,,,,,,,,,,,,,,,,,,,,,,,,,,,,,,,,,,,,,,,,,,,,,,,,,,,,,,,,,,,,,,,,,,,,,
,,,,,,,,,,,,5f7bd801486f5e1ce581980f,21,Kobieta,2022-06-11_09h29.31.629,task,2021.1.4,MacIntel,60.0024001,6299f149e92ead563fba08ef,62a4443cf9ee4b52b50eafaf,,,,,,,,,,,space,13.7418,4,"[""4""]",1,[11.619099999994035],[11.619099999994035],0,0,0,4,1,Practice,5,(2x6) - 8,4,,,,,,,,,,,,,,,,,,,,,,,,,,,,,,,,,,,,,,,,,,,,,,,,,,,,,,,,,,,,,,,,,,,,,,,,,,,
,,,,,,,,,,,,5f7bd801486f5e1ce581980f,21,Kobieta,2022-06-11_09h29.31.629,task,2021.1.4,MacIntel,60.0024001,6299f149e92ead563fba08ef,62a4443cf9ee4b52b50eafaf,,,,,,,,,,,,,7,"[""7""]",1,[5.569399999998495],"[11.619099999994035,5.569399999998495]",0,1,1,7,1,Practice,8,(5x5) - 18,7,,,,,,,,,,,,,,,,,,,,,,,,,,,,,,,,,,,,,,,,,,,,,,,,,,,,,,,,,,,,,,,,,,,,,,,,,,,
,,,,,,,,,,,,5f7bd801486f5e1ce581980f,21,Kobieta,2022-06-11_09h29.31.629,task,2021.1.4,MacIntel,60.0024001,6299f149e92ead563fba08ef,62a4443cf9ee4b52b50eafaf,,,,,,,,,,,,,6,"[""6""]",1,[2.5175000000000125],"[11.619099999994035,5.569399999998495,2.5175000000000125]",0,2,2,6,1,Practice,7,(25/5) + 1,6,,,,,,,,,,,,,,,,,,,,,,,,,,,,,,,,,,,,,,,,,,,,,,,,,,,,,,,,,,,,,,,,,,,,,,,,,,,
,,,,,,,,,,,,5f7bd801486f5e1ce581980f,21,Kobieta,2022-06-11_09h29.31.629,task,2021.1.4,MacIntel,60.0024001,6299f149e92ead563fba08ef,62a4443cf9ee4b52b50eafaf,,,,,,,,,,,,,5,"[""5""]",1,[2.63900000000001],"[11.619099999994035,5.569399999998495,2.5175000000000125,2.63900000000001]",0,3,3,5,1,Practice,6,(4/2) + 3,5,,,,,,,,,,,,,,,,,,,,,,,,,,,,,,,,,,,,,,,,,,,,,,,,,,,,,,,,,,,,,,,,,,,,,,,,,,,
,,,,,,,,,,,,5f7bd801486f5e1ce581980f,21,Kobieta,2022-06-11_09h29.31.629,task,2021.1.4,MacIntel,60.0024001,6299f149e92ead563fba08ef,62a4443cf9ee4b52b50eafaf,,,,,,,,,,,,,8,"[""8""]",1,[2.1515999999940334],"[11.619099999994035,5.569399999998495,2.5175000000000125,2.63900000000001,2.1515999999940334]",0,4,4,8,1,Practice,9,(3x3) - 1,8,,,,,,,,,,,,,,,,,,,,,,,,,,,,,,,,,,,,,,,,,,,,,,,,,,,,,,,,,,,,,,,,,,,,,,,,,,,
,,,,,,,,,,,,5f7bd801486f5e1ce581980f,21,Kobieta,2022-06-11_09h29.31.629,task,2021.1.4,MacIntel,60.0024001,6299f149e92ead563fba08ef,62a4443cf9ee4b52b50eafaf,,,,,,,,,,,,,0,"[""0""]",1,[1.766399999998498],"[11.619099999994035,5.569399999998495,2.5175000000000125,2.63900000000001,2.1515999999940334,1.766399999998498]",0,5,5,0,1,Practice,1,(3x3) -  9,0,,,,,,,,,,,,,,,,,,,,,,,,,,,,,,,,,,,,,,,,,,,,,,,,,,,,,,,,,,,,,,,,,,,,,,,,,,,
,,,,,,,,,,,,5f7bd801486f5e1ce581980f,21,Kobieta,2022-06-11_09h29.31.629,task,2021.1.4,MacIntel,60.0024001,6299f149e92ead563fba08ef,62a4443cf9ee4b52b50eafaf,,,,,,,,,,,,,9,"[""9""]",1,[2.3824000000059584],"[11.619099999994035,5.569399999998495,2.5175000000000125,2.63900000000001,2.1515999999940334,1.766399999998498,2.3824000000059584]",0,6,6,9,1,Practice,10,(20/2) - 1,9,,,,,,,,,,,,,,,,,,,,,,,,,,,,,,,,,,,,,,,,,,,,,,,,,,,,,,,,,,,,,,,,,,,,,,,,,,,
,,,,,,,,,,,,5f7bd801486f5e1ce581980f,21,Kobieta,2022-06-11_09h29.31.629,task,2021.1.4,MacIntel,60.0024001,6299f149e92ead563fba08ef,62a4443cf9ee4b52b50eafaf,,,,,,,,,,,,,3,"[""3""]",1,[2.751199999995521],"[11.619099999994035,5.569399999998495,2.5175000000000125,2.63900000000001,2.1515999999940334,1.766399999998498,2.3824000000059584,2.751199999995521]",0,7,7,3,1,Practice,4,(8/4) + 1,3,,,,,,,,,,,,,,,,,,,,,,,,,,,,,,,,,,,,,,,,,,,,,,,,,,,,,,,,,,,,,,,,,,,,,,,,,,,
,,,,,,,,,,,,5f7bd801486f5e1ce581980f,21,Kobieta,2022-06-11_09h29.31.629,task,2021.1.4,MacIntel,60.0024001,6299f149e92ead563fba08ef,62a4443cf9ee4b52b50eafaf,,,,,,,,,,,,,1,"[""1""]",1,[2.782499999999999],"[11.619099999994035,5.569399999998495,2.5175000000000125,2.63900000000001,2.1515999999940334,1.766399999998498,2.3824000000059584,2.751199999995521,2.782499999999999]",0,8,8,1,1,Practice,2,(4x4) - 15,1,,,,,,,,,,,,,,,,,,,,,,,,,,,,,,,,,,,,,,,,,,,,,,,,,,,,,,,,,,,,,,,,,,,,,,,,,,,
,,,,,,,,,,,,5f7bd801486f5e1ce581980f,21,Kobieta,2022-06-11_09h29.31.629,task,2021.1.4,MacIntel,60.0024001,6299f149e92ead563fba08ef,62a4443cf9ee4b52b50eafaf,,,,,,,,,,,,,2,"[""2""]",1,[3.3632999999970252],"[11.619099999994035,5.569399999998495,2.5175000000000125,2.63900000000001,2.1515999999940334,1.766399999998498,2.3824000000059584,2.751199999995521,2.782499999999999,3.3632999999970252]",0,9,9,2,1,Practice,3,(4x4) - 14,2,,,,,,,,,,,,,,,,,,,,,,,,,,,,,,,,,,,,,,,,,,,,,,,,,,,,,,,,,,,,,,,,,,,,,,,,,,,
,,,,,,,,,,,,5f7bd801486f5e1ce581980f,21,Kobieta,2022-06-11_09h29.31.629,task,2021.1.4,MacIntel,60.0024001,6299f149e92ead563fba08ef,62a4443cf9ee4b52b50eafaf,,,,,,,,,,,,,,,,,,,,,,,,,,,1,37.5424,2.502826667,94.08957781,2.504523612,8.964497584,space,1.3686,0,0,0,0,1,,,,,,,,,,,,,,,,,,,,,,,,,,,,,,,,,,,,,,,,,,,,,,,,,,,,,,,,,,,,,,
,,,,,,,,,,,,5f7bd801486f5e1ce581980f,21,Kobieta,2022-06-11_09h29.31.629,task,2021.1.4,MacIntel,60.0024001,6299f149e92ead563fba08ef,62a4443cf9ee4b52b50eafaf,,,,,,,,,,,,,7,,,,,,,,,,Practice,8,(5x5) - 18,7,,,,,,,,,,,,,,space,15.0041,"[""7""]",1,[8.214599999994022],1,0,0,0,7,1,,,,,,,,,,,,,,,,,,,,,,,,,,,,,,,,,,,,,,,,,,,,,,,,,,,
,,,,,,,,,,,X V Q F H G B L J M P D K C T S W R N Z,5f7bd801486f5e1ce581980f,21,Kobieta,2022-06-11_09h29.31.629,task,2021.1.4,MacIntel,60.0024001,6299f149e92ead563fba08ef,62a4443cf9ee4b52b50eafaf,,,,,,,,,,,,,,,,,,,,,,,,,,,,,,,,,,,,,,,,,,,,,,,,,,,0,0,0,0,1,,,,,,,,,,,,,,,,,,,,,,,,,,,,,,,,,,,,,,,,,,,,,,
,,,,,,,,,,,,5f7bd801486f5e1ce581980f,21,Kobieta,2022-06-11_09h29.31.629,task,2021.1.4,MacIntel,60.0024001,6299f149e92ead563fba08ef,62a4443cf9ee4b52b50eafaf,,,,,,,,,,,,,0,,,,,,,,,,Practice,1,(3x3) -  9,0,,,,,,,,,,,,,,,,"[""0""]",1,[5.0648999999985165],1,0,0,0,0,1,,,,,,,,,,,,,,,,,,,,,,,,,,,,,,,,,,,,,,,,,,,,,,,,,,,
,,,,,,,,,,,X V Q F H G B L J M P D K C T S W R N Z,5f7bd801486f5e1ce581980f,21,Kobieta,2022-06-11_09h29.31.629,task,2021.1.4,MacIntel,60.0024001,6299f149e92ead563fba08ef,62a4443cf9ee4b52b50eafaf,,,,,,,,,,,,,,,,,,,,,,,,,,,,,,,,,,,,,,,,,,,,,,,,,,,1,0,1,0,1,,,,,,,,,,,,,,,,,,,,,,,,,,,,,,,,,,,,,,,,,,,,,,
,,,,,,,,,,,,5f7bd801486f5e1ce581980f,21,Kobieta,2022-06-11_09h29.31.629,task,2021.1.4,MacIntel,60.0024001,6299f149e92ead563fba08ef,62a4443cf9ee4b52b50eafaf,,,,,,,,,,,,,,,,,,,,,,,,,,,,,,,,,,,,,,,,,,,,,,,,,,,,,,,,zm,"[""z"",""m""]",0,"[3.164899999998539,3.302399999998528,3.669299999997037]",1,0,0,0,0,1,,,,,,,,,,,,,,,,,,,,,,,,,,,,,,,,,,,,
,,,,,,,,,,,,5f7bd801486f5e1ce581980f,21,Kobieta,2022-06-11_09h29.31.629,task,2021.1.4,MacIntel,60.0024001,6299f149e92ead563fba08ef,62a4443cf9ee4b52b50eafaf,,,,,,,,,,,,,2,,,,,,,,,,Practice,3,(4x4) - 14,2,,,,,,,,,,,,,,,,"[""2""]",1,[2.7665000000000077],1,0,0,0,2,1,,,,,,,,,,,,,,,,,,,,,,,,,,,,,,,,,,,,,,,,,,,,,,,,,,,
,,,,,,,,,,,X V Q F H G B L J M P D K C T S W R N Z,5f7bd801486f5e1ce581980f,21,Kobieta,2022-06-11_09h29.31.629,task,2021.1.4,MacIntel,60.0024001,6299f149e92ead563fba08ef,62a4443cf9ee4b52b50eafaf,,,,,,,,,,,,,,,,,,,,,,,,,,,,,,,,,,,,,,,,,,,,,,,,,,,0,0,0,0,1,,,,,,,,,,,,,,,,,,,,,,,,,,,,,,,,,,,,,,,,,,,,,,
,,,,,,,,,,,,5f7bd801486f5e1ce581980f,21,Kobieta,2022-06-11_09h29.31.629,task,2021.1.4,MacIntel,60.0024001,6299f149e92ead563fba08ef,62a4443cf9ee4b52b50eafaf,,,,,,,,,,,,,7,,,,,,,,,,Practice,8,(5x5) - 18,7,,,,,,,,,,,,,,,,"[""7""]",1,[2.8023999999984994],1,0,0,0,7,1,,,,,,,,,,,,,,,,,,,,,,,,,,,,,,,,,,,,,,,,,,,,,,,,,,,
,,,,,,,,,,,X V Q F H G B L J M P D K C T S W R N Z,5f7bd801486f5e1ce581980f,21,Kobieta,2022-06-11_09h29.31.629,task,2021.1.4,MacIntel,60.0024001,6299f149e92ead563fba08ef,62a4443cf9ee4b52b50eafaf,,,,,,,,,,,,,,,,,,,,,,,,,,,,,,,,,,,,,,,,,,,,,,,,,,,1,0,1,0,1,,,,,,,,,,,,,,,,,,,,,,,,,,,,,,,,,,,,,,,,,,,,,,
,,,,,,,,,,,,5f7bd801486f5e1ce581980f,21,Kobieta,2022-06-11_09h29.31.629,task,2021.1.4,MacIntel,60.0024001,6299f149e92ead563fba08ef,62a4443cf9ee4b52b50eafaf,,,,,,,,,,,,,,,,,,,,,,,,,,,,,,,,,,,,,,,,,,,,,,,,,,,,,,,,tt,"[""t"",""t""]",0,"[1.599899999998513,1.7715000000000032,1.953700000002982]",1,1,0,1,0,1,,,,,,,,,,,,,,,,,,,,,,,,,,,,,,,,,,,,
,,,,,,,,,,,,5f7bd801486f5e1ce581980f,21,Kobieta,2022-06-11_09h29.31.629,task,2021.1.4,MacIntel,60.0024001,6299f149e92ead563fba08ef,62a4443cf9ee4b52b50eafaf,,,,,,,,,,,,,4,,,,,,,,,,Practice,5,(2x6) - 8,4,,,,,,,,,,,,,,,,"[""4""]",1,[7.09889999999848],1,0,0,0,4,1,,,,,,,,,,,,,,,,,,,,,,,,,,,,,,,,,,,,,,,,,,,,,,,,,,,
,,,,,,,,,,,X V Q F H G B L J M P D K C T S W R N Z,5f7bd801486f5e1ce581980f,21,Kobieta,2022-06-11_09h29.31.629,task,2021.1.4,MacIntel,60.0024001,6299f149e92ead563fba08ef,62a4443cf9ee4b52b50eafaf,,,,,,,,,,,,,,,,,,,,,,,,,,,,,,,,,,,,,,,,,,,,,,,,,,,0,0,0,0,1,,,,,,,,,,,,,,,,,,,,,,,,,,,,,,,,,,,,,,,,,,,,,,
,,,,,,,,,,,,5f7bd801486f5e1ce581980f,21,Kobieta,2022-06-11_09h29.31.629,task,2021.1.4,MacIntel,60.0024001,6299f149e92ead563fba08ef,62a4443cf9ee4b52b50eafaf,,,,,,,,,,,,,1,,,,,,,,,,Practice,2,(4x4) - 15,1,,,,,,,,,,,,,,,,"[""1""]",1,[2.1619000000059714],1,0,0,0,1,1,,,,,,,,,,,,,,,,,,,,,,,,,,,,,,,,,,,,,,,,,,,,,,,,,,,
,,,,,,,,,,,X V Q F H G B L J M P D K C T S W R N Z,5f7bd801486f5e1ce581980f,21,Kobieta,2022-06-11_09h29.31.629,task,2021.1.4,MacIntel,60.0024001,6299f149e92ead563fba08ef,62a4443cf9ee4b52b50eafaf,,,,,,,,,,,,,,,,,,,,,,,,,,,,,,,,,,,,,,,,,,,,,,,,,,,1,0,1,0,1,,,,,,,,,,,,,,,,,,,,,,,,,,,,,,,,,,,,,,,,,,,,,,
,,,,,,,,,,,,5f7bd801486f5e1ce581980f,21,Kobieta,2022-06-11_09h29.31.629,task,2021.1.4,MacIntel,60.0024001,6299f149e92ead563fba08ef,62a4443cf9ee4b52b50eafaf,,,,,,,,,,,,,,,,,,,,,,,,,,,,,,,,,,,,,,,,,,,,,,,,,,,,,,,,jq,"[""j"",""q""]",0,"[1.3003999999985467,1.4172999999970557,1.8517000000030066]",1,2,0,2,0,1,,,,,,,,,,,,,,,,,,,,,,,,,,,,,,,,,,,,
,,,,,,,,,,,,5f7bd801486f5e1ce581980f,21,Kobieta,2022-06-11_09h29.31.629,task,2021.1.4,MacIntel,60.0024001,6299f149e92ead563fba08ef,62a4443cf9ee4b52b50eafaf,,,,,,,,,,,,,9,,,,,,,,,,Task,31,(4/2) + 5,7,,,,,,,,,,,,,,,,,,,0,,,,,,,,,,,,,,,,,,,,,space,15.4316,"[""9""]",0,[4.496399999998516],0,0,0,30,1,,,,,,,,,,,,,,,,,,,,,,,,,,
,,,,,,,,,,,,5f7bd801486f5e1ce581980f,21,Kobieta,2022-06-11_09h29.31.629,task,2021.1.4,MacIntel,60.0024001,6299f149e92ead563fba08ef,62a4443cf9ee4b52b50eafaf,,,,,,,,,,,,,,,,,,,,,,,Task,15,(3x7) - 13,8,,,,,,,,,,,,,,,,,,,0,,,,,,,,,,,,,,,,,,,,,,,,0,,0,1,1,14,1,,,,,,,,,,,,,,,,,,,,,,,,,,
,,,,,,,,,,,,5f7bd801486f5e1ce581980f,21,Kobieta,2022-06-11_09h29.31.629,task,2021.1.4,MacIntel,60.0024001,6299f149e92ead563fba08ef,62a4443cf9ee4b52b50eafaf,,,,,,,,,,,,,1,,,,,,,,,,Task,18,(16/4) - 3,1,,,,,,,,,,,,,,,,,,,1,,,,,,,,,,,,,,,,,,,,,,,"[""1""]",1,[3.385300000004463],0,2,2,17,1,,,,,,,,,,,,,,,,,,,,,,,,,,
,,,,,,,,,,,X V Q F H G B L J M P D K C T S W R N Z,5f7bd801486f5e1ce581980f,21,Kobieta,2022-06-11_09h29.31.629,task,2021.1.4,MacIntel,60.0024001,6299f149e92ead563fba08ef,62a4443cf9ee4b52b50eafaf,,,,,,,,,,,,,,,,,,,,,,,,,,,,,,,,,,,,,,,,,,,,,,,,,,,,,,,,,,,,,,,,,,,,,,,,,,,,0,0,0,0,1,,,,,,,,,,,,,,,,,,,,,
,,,,,,,,,,,,5f7bd801486f5e1ce581980f,21,Kobieta,2022-06-11_09h29.31.629,task,2021.1.4,MacIntel,60.0024001,6299f149e92ead563fba08ef,62a4443cf9ee4b52b50eafaf,,,,,,,,,,,,,2,,,,,,,,,,Task,2,(2x2) - 2,2,,,,,,,,,,,,,,,,,,,1,,,,,,,,,,,,,,,,,,,,,,,"[""2""]",1,[4.92160000000149],0,0,0,1,1,,,,,,,,,,,,,,,,,,,,,,,,,,
,,,,,,,,,,,X V Q F H G B L J M P D K C T S W R N Z,5f7bd801486f5e1ce581980f,21,Kobieta,2022-06-11_09h29.31.629,task,2021.1.4,MacIntel,60.0024001,6299f149e92ead563fba08ef,62a4443cf9ee4b52b50eafaf,,,,,,,,,,,,,,,,,,,,,,,,,,,,,,,,,,,,,,,,,,,,,,,,,,,,,,,,,,,,,,,,,,,,,,,,,,,,1,0,1,0,1,,,,,,,,,,,,,,,,,,,,,
,,,,,,,,,,,,5f7bd801486f5e1ce581980f,21,Kobieta,2022-06-11_09h29.31.629,task,2021.1.4,MacIntel,60.0024001,6299f149e92ead563fba08ef,62a4443cf9ee4b52b50eafaf,,,,,,,,,,,,,,,,,,,,,,,,,,,,,,,,,,,,,,,,,,,,,,,,,,,,,,,,,,,,,,,,,,,,,,,,,,,,,,,,,zf,"[""z"",""f""]",0,"[1.5464999999999804,1.8838000000044417,2.1017000000029498]",1,ZF,0,0,0,0,1,,,,,,,,,,
,,,,,,,,,,,,5f7bd801486f5e1ce581980f,21,Kobieta,2022-06-11_09h29.31.629,task,2021.1.4,MacIntel,60.0024001,6299f149e92ead563fba08ef,62a4443cf9ee4b52b50eafaf,,,,,,,,,,,,,,,,,,,,,,,Task,11,(18/3) - 2,4,,,,,,,,,,,,,,,,,,,0,,,,,,,,,,,,,,,,,,,,,,,,0,,0,0,0,10,1,,,,,,,,,,,,,,,,,,,,,,,,,,
,,,,,,,,,,,,5f7bd801486f5e1ce581980f,21,Kobieta,2022-06-11_09h29.31.629,task,2021.1.4,MacIntel,60.0024001,6299f149e92ead563fba08ef,62a4443cf9ee4b52b50eafaf,,,,,,,,,,,,,3,,,,,,,,,,Task,20,(18/9) + 1,3,,,,,,,,,,,,,,,,,,,1,,,,,,,,,,,,,,,,,,,,,,,"[""3""]",1,[4.301100000001497],0,1,1,19,1,,,,,,,,,,,,,,,,,,,,,,,,,,
,,,,,,,,,,,X V Q F H G B L J M P D K C T S W R N Z,5f7bd801486f5e1ce581980f,21,Kobieta,2022-06-11_09h29.31.629,task,2021.1.4,MacIntel,60.0024001,6299f149e92ead563fba08ef,62a4443cf9ee4b52b50eafaf,,,,,,,,,,,,,,,,,,,,,,,,,,,,,,,,,,,,,,,,,,,,,,,,,,,,,,,,,,,,,,,,,,,,,,,,,,,,0,0,0,0,1,,,,,,,,,,,,,,,,,,,,,
,,,,,,,,,,,,5f7bd801486f5e1ce581980f,21,Kobieta,2022-06-11_09h29.31.629,task,2021.1.4,MacIntel,60.0024001,6299f149e92ead563fba08ef,62a4443cf9ee4b52b50eafaf,,,,,,,,,,,,,6,,,,,,,,,,Task,13,(3x4) - 6,6,,,,,,,,,,,,,,,,,,,1,,,,,,,,,,,,,,,,,,,,,,,"[""6""]",1,[3.1013000000044713],0,0,0,12,1,,,,,,,,,,,,,,,,,,,,,,,,,,
,,,,,,,,,,,X V Q F H G B L J M P D K C T S W R N Z,5f7bd801486f5e1ce581980f,21,Kobieta,2022-06-11_09h29.31.629,task,2021.1.4,MacIntel,60.0024001,6299f149e92ead563fba08ef,62a4443cf9ee4b52b50eafaf,,,,,,,,,,,,,,,,,,,,,,,,,,,,,,,,,,,,,,,,,,,,,,,,,,,,,,,,,,,,,,,,,,,,,,,,,,,,1,0,1,0,1,,,,,,,,,,,,,,,,,,,,,
,,,,,,,,,,,,5f7bd801486f5e1ce581980f,21,Kobieta,2022-06-11_09h29.31.629,task,2021.1.4,MacIntel,60.0024001,6299f149e92ead563fba08ef,62a4443cf9ee4b52b50eafaf,,,,,,,,,,,,,6,,,,,,,,,,Task,30,(6/3) + 4 ,6,,,,,,,,,,,,,,,,,,,1,,,,,,,,,,,,,,,,,,,,,,,"[""6""]",1,[4.399099999994007],0,0,0,29,1,,,,,,,,,,,,,,,,,,,,,,,,,,
,,,,,,,,,,,X V Q F H G B L J M P D K C T S W R N Z,5f7bd801486f5e1ce581980f,21,Kobieta,2022-06-11_09h29.31.629,task,2021.1.4,MacIntel,60.0024001,6299f149e92ead563fba08ef,62a4443cf9ee4b52b50eafaf,,,,,,,,,,,,,,,,,,,,,,,,,,,,,,,,,,,,,,,,,,,,,,,,,,,,,,,,,,,,,,,,,,,,,,,,,,,,2,0,2,0,1,,,,,,,,,,,,,,,,,,,,,
,,,,,,,,,,,,5f7bd801486f5e1ce581980f,21,Kobieta,2022-06-11_09h29.31.629,task,2021.1.4,MacIntel,60.0024001,6299f149e92ead563fba08ef,62a4443cf9ee4b52b50eafaf,,,,,,,,,,,,,,,,,,,,,,,,,,,,,,,,,,,,,,,,,,,,,,,,,,,,,,,,,,,,,,,,,,,,,,,,,,,,,,,,,zkr,"[""z"",""k"",""r""]",0,"[1.516599999994014,1.8472999999970057,1.9693999999985294,2.1850000000000023]",1,ZKR,1,0,1,0,1,,,,,,,,,,
,,,,,,,,,,,,5f7bd801486f5e1ce581980f,21,Kobieta,2022-06-11_09h29.31.629,task,2021.1.4,MacIntel,60.0024001,6299f149e92ead563fba08ef,62a4443cf9ee4b52b50eafaf,,,,,,,,,,,,,0,,,,,,,,,,Task,29,(3x8) - 19 ,5,,,,,,,,,,,,,,,,,,,0,,,,,,,,,,,,,,,,,,,,,,,"[""0""]",0,[4.203999999999951],0,0,0,28,1,,,,,,,,,,,,,,,,,,,,,,,,,,
,,,,,,,,,,,,5f7bd801486f5e1ce581980f,21,Kobieta,2022-06-11_09h29.31.629,task,2021.1.4,MacIntel,60.0024001,6299f149e92ead563fba08ef,62a4443cf9ee4b52b50eafaf,,,,,,,,,,,,,3,,,,,,,,,,Task,27,(3/3) + 2,3,,,,,,,,,,,,,,,,,,,1,,,,,,,,,,,,,,,,,,,,,,,"[""3""]",1,[3.399000000000001],0,1,1,26,1,,,,,,,,,,,,,,,,,,,,,,,,,,
,,,,,,,,,,,X V Q F H G B L J M P D K C T S W R N Z,5f7bd801486f5e1ce581980f,21,Kobieta,2022-06-11_09h29.31.629,task,2021.1.4,MacIntel,60.0024001,6299f149e92ead563fba08ef,62a4443cf9ee4b52b50eafaf,,,,,,,,,,,,,,,,,,,,,,,,,,,,,,,,,,,,,,,,,,,,,,,,,,,,,,,,,,,,,,,,,,,,,,,,,,,,0,0,0,0,1,,,,,,,,,,,,,,,,,,,,,
,,,,,,,,,,,,5f7bd801486f5e1ce581980f,21,Kobieta,2022-06-11_09h29.31.629,task,2021.1.4,MacIntel,60.0024001,6299f149e92ead563fba08ef,62a4443cf9ee4b52b50eafaf,,,,,,,,,,,,,9,,,,,,,,,,Task,7,(3x7) - 12,9,,,,,,,,,,,,,,,,,,,1,,,,,,,,,,,,,,,,,,,,,,,"[""9""]",1,[4.38330000000451],0,0,0,6,1,,,,,,,,,,,,,,,,,,,,,,,,,,
,,,,,,,,,,,X V Q F H G B L J M P D K C T S W R N Z,5f7bd801486f5e1ce581980f,21,Kobieta,2022-06-11_09h29.31.629,task,2021.1.4,MacIntel,60.0024001,6299f149e92ead563fba08ef,62a4443cf9ee4b52b50eafaf,,,,,,,,,,,,,,,,,,,,,,,,,,,,,,,,,,,,,,,,,,,,,,,,,,,,,,,,,,,,,,,,,,,,,,,,,,,,1,0,1,0,1,,,,,,,,,,,,,,,,,,,,,
,,,,,,,,,,,,5f7bd801486f5e1ce581980f,21,Kobieta,2022-06-11_09h29.31.629,task,2021.1.4,MacIntel,60.0024001,6299f149e92ead563fba08ef,62a4443cf9ee4b52b50eafaf,,,,,,,,,,,,,2,,,,,,,,,,Task,10,(2x5) - 8,2,,,,,,,,,,,,,,,,,,,1,,,,,,,,,,,,,,,,,,,,,,,"[""2""]",1,[2.09970000000294],0,0,0,9,1,,,,,,,,,,,,,,,,,,,,,,,,,,
,,,,,,,,,,,X V Q F H G B L J M P D K C T S W R N Z,5f7bd801486f5e1ce581980f,21,Kobieta,2022-06-11_09h29.31.629,task,2021.1.4,MacIntel,60.0024001,6299f149e92ead563fba08ef,62a4443cf9ee4b52b50eafaf,,,,,,,,,,,,,,,,,,,,,,,,,,,,,,,,,,,,,,,,,,,,,,,,,,,,,,,,,,,,,,,,,,,,,,,,,,,,2,0,2,0,1,,,,,,,,,,,,,,,,,,,,,
,,,,,,,,,,,,5f7bd801486f5e1ce581980f,21,Kobieta,2022-06-11_09h29.31.629,task,2021.1.4,MacIntel,60.0024001,6299f149e92ead563fba08ef,62a4443cf9ee4b52b50eafaf,,,,,,,,,,,,,8,,,,,,,,,,Task,39,(5x3) - 7,8,,,,,,,,,,,,,,,,,,,1,,,,,,,,,,,,,,,,,,,,,,,"[""8""]",1,[4.749400000005949],0,0,0,38,1,,,,,,,,,,,,,,,,,,,,,,,,,,
,,,,,,,,,,,X V Q F H G B L J M P D K C T S W R N Z,5f7bd801486f5e1ce581980f,21,Kobieta,2022-06-11_09h29.31.629,task,2021.1.4,MacIntel,60.0024001,6299f149e92ead563fba08ef,62a4443cf9ee4b52b50eafaf,,,,,,,,,,,,,,,,,,,,,,,,,,,,,,,,,,,,,,,,,,,,,,,,,,,,,,,,,,,,,,,,,,,,,,,,,,,,3,0,3,0,1,,,,,,,,,,,,,,,,,,,,,
,,,,,,,,,,,,5f7bd801486f5e1ce581980f,21,Kobieta,2022-06-11_09h29.31.629,task,2021.1.4,MacIntel,60.0024001,6299f149e92ead563fba08ef,62a4443cf9ee4b52b50eafaf,,,,,,,,,,,,,,,,,,,,,,,,,,,,,,,,,,,,,,,,,,,,,,,,,,,,,,,,,,,,,,,,,,,,,,,,,,,,,,,,,mqbz,"[""m"",""q"",""b"",""z""]",0,"[1.6493999999984794,2.067799999997021,2.7999999999999545,3.1888999999985117,3.485599999994008]",1,MQBZ,2,0,2,0,1,,,,,,,,,,
,,,,,,,,,,,,5f7bd801486f5e1ce581980f,21,Kobieta,2022-06-11_09h29.31.629,task,2021.1.4,MacIntel,60.0024001,6299f149e92ead563fba08ef,62a4443cf9ee4b52b50eafaf,,,,,,,,,,,,,8,,,,,,,,,,Task,7,(3x7) - 12,9,,,,,,,,,,,,,,,,,,,0,,,,,,,,,,,,,,,,,,,,,,,"[""8""]",0,[2.982699999995532],0,0,0,6,1,,,,,,,,,,,,,,,,,,,,,,,,,,
,,,,,,,,,,,,5f7bd801486f5e1ce581980f,21,Kobieta,2022-06-11_09h29.31.629,task,2021.1.4,MacIntel,60.0024001,6299f149e92ead563fba08ef,62a4443cf9ee4b52b50eafaf,,,,,,,,,,,,,2,,,,,,,,,,Task,26,(2x9) - 16,2,,,,,,,,,,,,,,,,,,,1,,,,,,,,,,,,,,,,,,,,,,,"[""2""]",1,[3.903500000000008],0,1,1,25,1,,,,,,,,,,,,,,,,,,,,,,,,,,
,,,,,,,,,,,X V Q F H G B L J M P D K C T S W R N Z,5f7bd801486f5e1ce581980f,21,Kobieta,2022-06-11_09h29.31.629,task,2021.1.4,MacIntel,60.0024001,6299f149e92ead563fba08ef,62a4443cf9ee4b52b50eafaf,,,,,,,,,,,,,,,,,,,,,,,,,,,,,,,,,,,,,,,,,,,,,,,,,,,,,,,,,,,,,,,,,,,,,,,,,,,,0,0,0,0,1,,,,,,,,,,,,,,,,,,,,,
,,,,,,,,,,,,5f7bd801486f5e1ce581980f,21,Kobieta,2022-06-11_09h29.31.629,task,2021.1.4,MacIntel,60.0024001,6299f149e92ead563fba08ef,62a4443cf9ee4b52b50eafaf,,,,,,,,,,,,,7,,,,,,,,,,Task,31,(4/2) + 5,7,,,,,,,,,,,,,,,,,,,1,,,,,,,,,,,,,,,,,,,,,,,"[""7""]",1,[3.345899999998494],0,0,0,30,1,,,,,,,,,,,,,,,,,,,,,,,,,,
,,,,,,,,,,,X V Q F H G B L J M P D K C T S W R N Z,5f7bd801486f5e1ce581980f,21,Kobieta,2022-06-11_09h29.31.629,task,2021.1.4,MacIntel,60.0024001,6299f149e92ead563fba08ef,62a4443cf9ee4b52b50eafaf,,,,,,,,,,,,,,,,,,,,,,,,,,,,,,,,,,,,,,,,,,,,,,,,,,,,,,,,,,,,,,,,,,,,,,,,,,,,1,0,1,0,1,,,,,,,,,,,,,,,,,,,,,
,,,,,,,,,,,,5f7bd801486f5e1ce581980f,21,Kobieta,2022-06-11_09h29.31.629,task,2021.1.4,MacIntel,60.0024001,6299f149e92ead563fba08ef,62a4443cf9ee4b52b50eafaf,,,,,,,,,,,,,9,,,,,,,,,,Task,7,(3x7) - 12,9,,,,,,,,,,,,,,,,,,,1,,,,,,,,,,,,,,,,,,,,,,,"[""9""]",1,[4.253100000001496],0,0,0,6,1,,,,,,,,,,,,,,,,,,,,,,,,,,
,,,,,,,,,,,X V Q F H G B L J M P D K C T S W R N Z,5f7bd801486f5e1ce581980f,21,Kobieta,2022-06-11_09h29.31.629,task,2021.1.4,MacIntel,60.0024001,6299f149e92ead563fba08ef,62a4443cf9ee4b52b50eafaf,,,,,,,,,,,,,,,,,,,,,,,,,,,,,,,,,,,,,,,,,,,,,,,,,,,,,,,,,,,,,,,,,,,,,,,,,,,,2,0,2,0,1,,,,,,,,,,,,,,,,,,,,,
,,,,,,,,,,,,5f7bd801486f5e1ce581980f,21,Kobieta,2022-06-11_09h29.31.629,task,2021.1.4,MacIntel,60.0024001,6299f149e92ead563fba08ef,62a4443cf9ee4b52b50eafaf,,,,,,,,,,,,,3,,,,,,,,,,Task,35,(1x2) + 1,3,,,,,,,,,,,,,,,,,,,1,,,,,,,,,,,,,,,,,,,,,,,"[""3""]",1,[2.4134000000059928],0,0,0,34,1,,,,,,,,,,,,,,,,,,,,,,,,,,
,,,,,,,,,,,X V Q F H G B L J M P D K C T S W R N Z,5f7bd801486f5e1ce581980f,21,Kobieta,2022-06-11_09h29.31.629,task,2021.1.4,MacIntel,60.0024001,6299f149e92ead563fba08ef,62a4443cf9ee4b52b50eafaf,,,,,,,,,,,,,,,,,,,,,,,,,,,,,,,,,,,,,,,,,,,,,,,,,,,,,,,,,,,,,,,,,,,,,,,,,,,,3,0,3,0,1,,,,,,,,,,,,,,,,,,,,,
,,,,,,,,,,,,5f7bd801486f5e1ce581980f,21,Kobieta,2022-06-11_09h29.31.629,task,2021.1.4,MacIntel,60.0024001,6299f149e92ead563fba08ef,62a4443cf9ee4b52b50eafaf,,,,,,,,,,,,,3,,,,,,,,,,Task,20,(18/9) + 1,3,,,,,,,,,,,,,,,,,,,1,,,,,,,,,,,,,,,,,,,,,,,"[""3""]",1,[2.6077999999969848],0,0,0,19,1,,,,,,,,,,,,,,,,,,,,,,,,,,
,,,,,,,,,,,X V Q F H G B L J M P D K C T S W R N Z,5f7bd801486f5e1ce581980f,21,Kobieta,2022-06-11_09h29.31.629,task,2021.1.4,MacIntel,60.0024001,6299f149e92ead563fba08ef,62a4443cf9ee4b52b50eafaf,,,,,,,,,,,,,,,,,,,,,,,,,,,,,,,,,,,,,,,,,,,,,,,,,,,,,,,,,,,,,,,,,,,,,,,,,,,,4,0,4,0,1,,,,,,,,,,,,,,,,,,,,,
,,,,,,,,,,,,5f7bd801486f5e1ce581980f,21,Kobieta,2022-06-11_09h29.31.629,task,2021.1.4,MacIntel,60.0024001,6299f149e92ead563fba08ef,62a4443cf9ee4b52b50eafaf,,,,,,,,,,,,,,,,,,,,,,,,,,,,,,,,,,,,,,,,,,,,,,,,,,,,,,,,,,,,,,,,,,,,,,,,,,,,,,,,,tbvkl,"[""t"",""b"",""v"",""k"",""l""]",0,"[2.383700000002989,2.782899999998506,3.1672999999970557,3.4820000000000277,3.7152000000029943,4.282299999997008]",1,TBVKL,3,0,3,0,1,,,,,,,,,,
,,,,,,,,,,,,5f7bd801486f5e1ce581980f,21,Kobieta,2022-06-11_09h29.31.629,task,2021.1.4,MacIntel,60.0024001,6299f149e92ead563fba08ef,62a4443cf9ee4b52b50eafaf,,,,,,,,,,,,,5,,,,,,,,,,Task,36,(8/4) + 3,5,,,,,,,,,,,,,,,,,,,1,,,,,,,,,,,,,,,,,,,,,,,"[""5""]",1,[3.7522999999969784],0,0,0,35,1,,,,,,,,,,,,,,,,,,,,,,,,,,
,,,,,,,,,,,X V Q F H G B L J M P D K C T S W R N Z,5f7bd801486f5e1ce581980f,21,Kobieta,2022-06-11_09h29.31.629,task,2021.1.4,MacIntel,60.0024001,6299f149e92ead563fba08ef,62a4443cf9ee4b52b50eafaf,,,,,,,,,,,,,,,,,,,,,,,,,,,,,,,,,,,,,,,,,,,,,,,,,,,,,,,,,,,,,,,,,,,,,,,,,,,,0,0,0,0,1,,,,,,,,,,,,,,,,,,,,,
,,,,,,,,,,,,5f7bd801486f5e1ce581980f,21,Kobieta,2022-06-11_09h29.31.629,task,2021.1.4,MacIntel,60.0024001,6299f149e92ead563fba08ef,62a4443cf9ee4b52b50eafaf,,,,,,,,,,,,,0,,,,,,,,,,Task,8,(1x5) - 5,0,,,,,,,,,,,,,,,,,,,1,,,,,,,,,,,,,,,,,,,,,,,"[""0""]",1,[1.9335000000000377],0,0,0,7,1,,,,,,,,,,,,,,,,,,,,,,,,,,
,,,,,,,,,,,X V Q F H G B L J M P D K C T S W R N Z,5f7bd801486f5e1ce581980f,21,Kobieta,2022-06-11_09h29.31.629,task,2021.1.4,MacIntel,60.0024001,6299f149e92ead563fba08ef,62a4443cf9ee4b52b50eafaf,,,,,,,,,,,,,,,,,,,,,,,,,,,,,,,,,,,,,,,,,,,,,,,,,,,,,,,,,,,,,,,,,,,,,,,,,,,,1,0,1,0,1,,,,,,,,,,,,,,,,,,,,,
,,,,,,,,,,,,5f7bd801486f5e1ce581980f,21,Kobieta,2022-06-11_09h29.31.629,task,2021.1.4,MacIntel,60.0024001,6299f149e92ead563fba08ef,62a4443cf9ee4b52b50eafaf,,,,,,,,,,,,,2,,,,,,,,,,Task,19,(6/2) - 1,2,,,,,,,,,,,,,,,,,,,1,,,,,,,,,,,,,,,,,,,,,,,"[""2""]",1,[2.7491000000014765],0,0,0,18,1,,,,,,,,,,,,,,,,,,,,,,,,,,
,,,,,,,,,,,X V Q F H G B L J M P D K C T S W R N Z,5f7bd801486f5e1ce581980f,21,Kobieta,2022-06-11_09h29.31.629,task,2021.1.4,MacIntel,60.0024001,6299f149e92ead563fba08ef,62a4443cf9ee4b52b50eafaf,,,,,,,,,,,,,,,,,,,,,,,,,,,,,,,,,,,,,,,,,,,,,,,,,,,,,,,,,,,,,,,,,,,,,,,,,,,,2,0,2,0,1,,,,,,,,,,,,,,,,,,,,,
,,,,,,,,,,,,5f7bd801486f5e1ce581980f,21,Kobieta,2022-06-11_09h29.31.629,task,2021.1.4,MacIntel,60.0024001,6299f149e92ead563fba08ef,62a4443cf9ee4b52b50eafaf,,,,,,,,,,,,,0,,,,,,,,,,Task,33,(1/1) - 1,0,,,,,,,,,,,,,,,,,,,1,,,,,,,,,,,,,,,,,,,,,,,"[""0""]",1,[2.5167999999970334],0,0,0,32,1,,,,,,,,,,,,,,,,,,,,,,,,,,
,,,,,,,,,,,X V Q F H G B L J M P D K C T S W R N Z,5f7bd801486f5e1ce581980f,21,Kobieta,2022-06-11_09h29.31.629,task,2021.1.4,MacIntel,60.0024001,6299f149e92ead563fba08ef,62a4443cf9ee4b52b50eafaf,,,,,,,,,,,,,,,,,,,,,,,,,,,,,,,,,,,,,,,,,,,,,,,,,,,,,,,,,,,,,,,,,,,,,,,,,,,,3,0,3,0,1,,,,,,,,,,,,,,,,,,,,,
,,,,,,,,,,,,5f7bd801486f5e1ce581980f,21,Kobieta,2022-06-11_09h29.31.629,task,2021.1.4,MacIntel,60.0024001,6299f149e92ead563fba08ef,62a4443cf9ee4b52b50eafaf,,,,,,,,,,,,,4,,,,,,,,,,Task,4,(1x5) - 1,4,,,,,,,,,,,,,,,,,,,1,,,,,,,,,,,,,,,,,,,,,,,"[""4""]",1,[1.9520999999940614],0,0,0,3,1,,,,,,,,,,,,,,,,,,,,,,,,,,
,,,,,,,,,,,X V Q F H G B L J M P D K C T S W R N Z,5f7bd801486f5e1ce581980f,21,Kobieta,2022-06-11_09h29.31.629,task,2021.1.4,MacIntel,60.0024001,6299f149e92ead563fba08ef,62a4443cf9ee4b52b50eafaf,,,,,,,,,,,,,,,,,,,,,,,,,,,,,,,,,,,,,,,,,,,,,,,,,,,,,,,,,,,,,,,,,,,,,,,,,,,,4,0,4,0,1,,,,,,,,,,,,,,,,,,,,,
,,,,,,,,,,,,5f7bd801486f5e1ce581980f,21,Kobieta,2022-06-11_09h29.31.629,task,2021.1.4,MacIntel,60.0024001,6299f149e92ead563fba08ef,62a4443cf9ee4b52b50eafaf,,,,,,,,,,,,,5,,,,,,,,,,Task,36,(8/4) + 3,5,,,,,,,,,,,,,,,,,,,1,,,,,,,,,,,,,,,,,,,,,,,"[""5""]",1,[6.166600000001438],0,0,0,35,1,,,,,,,,,,,,,,,,,,,,,,,,,,
,,,,,,,,,,,X V Q F H G B L J M P D K C T S W R N Z,5f7bd801486f5e1ce581980f,21,Kobieta,2022-06-11_09h29.31.629,task,2021.1.4,MacIntel,60.0024001,6299f149e92ead563fba08ef,62a4443cf9ee4b52b50eafaf,,,,,,,,,,,,,,,,,,,,,,,,,,,,,,,,,,,,,,,,,,,,,,,,,,,,,,,,,,,,,,,,,,,,,,,,,,,,5,0,5,0,1,,,,,,,,,,,,,,,,,,,,,
,,,,,,,,,,,,5f7bd801486f5e1ce581980f,21,Kobieta,2022-06-11_09h29.31.629,task,2021.1.4,MacIntel,60.0024001,6299f149e92ead563fba08ef,62a4443cf9ee4b52b50eafaf,,,,,,,,,,,,,,,,,,,,,,,,,,,,,,,,,,,,,,,,,,,,,,,,,,,,,,,,,,,,,,,,,,,,,,,,,,,,,,,,,gbgwn,"[""g"",""b"",""g"",""w"",""n""]",0,"[2.217899999998508,2.508100000001491,2.8619999999999663,3.2509999999999764,3.6504999999999654,4.344899999998461]",0,GWGBWN,4,0,4,0,1,,,,,,,,,,
,,,,,,,,,,,,5f7bd801486f5e1ce581980f,21,Kobieta,2022-06-11_09h29.31.629,task,2021.1.4,MacIntel,60.0024001,6299f149e92ead563fba08ef,62a4443cf9ee4b52b50eafaf,,,,,,,,,,,,,6,,,,,,,,,,Task,13,(3x4) - 6,6,,,,,,,,,,,,,,,,,,,1,,,,,,,,,,,,,,,,,,,,,,,"[""6""]",1,[2.2561999999955447],0,0,0,12,1,,,,,,,,,,,,,,,,,,,,,,,,,,
,,,,,,,,,,,X V Q F H G B L J M P D K C T S W R N Z,5f7bd801486f5e1ce581980f,21,Kobieta,2022-06-11_09h29.31.629,task,2021.1.4,MacIntel,60.0024001,6299f149e92ead563fba08ef,62a4443cf9ee4b52b50eafaf,,,,,,,,,,,,,,,,,,,,,,,,,,,,,,,,,,,,,,,,,,,,,,,,,,,,,,,,,,,,,,,,,,,,,,,,,,,,0,0,0,0,1,,,,,,,,,,,,,,,,,,,,,
,,,,,,,,,,,,5f7bd801486f5e1ce581980f,21,Kobieta,2022-06-11_09h29.31.629,task,2021.1.4,MacIntel,60.0024001,6299f149e92ead563fba08ef,62a4443cf9ee4b52b50eafaf,,,,,,,,,,,,,4,,,,,,,,,,Task,21,(10/2) - 1,4,,,,,,,,,,,,,,,,,,,1,,,,,,,,,,,,,,,,,,,,,,,"[""4""]",1,[1.9657999999969888],0,0,0,20,1,,,,,,,,,,,,,,,,,,,,,,,,,,
,,,,,,,,,,,X V Q F H G B L J M P D K C T S W R N Z,5f7bd801486f5e1ce581980f,21,Kobieta,2022-06-11_09h29.31.629,task,2021.1.4,MacIntel,60.0024001,6299f149e92ead563fba08ef,62a4443cf9ee4b52b50eafaf,,,,,,,,,,,,,,,,,,,,,,,,,,,,,,,,,,,,,,,,,,,,,,,,,,,,,,,,,,,,,,,,,,,,,,,,,,,,1,0,1,0,1,,,,,,,,,,,,,,,,,,,,,
,,,,,,,,,,,,5f7bd801486f5e1ce581980f,21,Kobieta,2022-06-11_09h29.31.629,task,2021.1.4,MacIntel,60.0024001,6299f149e92ead563fba08ef,62a4443cf9ee4b52b50eafaf,,,,,,,,,,,,,2,,,,,,,,,,Task,26,(2x9) - 16,2,,,,,,,,,,,,,,,,,,,1,,,,,,,,,,,,,,,,,,,,,,,"[""2""]",1,[2.266099999994026],0,0,0,25,1,,,,,,,,,,,,,,,,,,,,,,,,,,
,,,,,,,,,,,X V Q F H G B L J M P D K C T S W R N Z,5f7bd801486f5e1ce581980f,21,Kobieta,2022-06-11_09h29.31.629,task,2021.1.4,MacIntel,60.0024001,6299f149e92ead563fba08ef,62a4443cf9ee4b52b50eafaf,,,,,,,,,,,,,,,,,,,,,,,,,,,,,,,,,,,,,,,,,,,,,,,,,,,,,,,,,,,,,,,,,,,,,,,,,,,,2,0,2,0,1,,,,,,,,,,,,,,,,,,,,,
,,,,,,,,,,,,5f7bd801486f5e1ce581980f,21,Kobieta,2022-06-11_09h29.31.629,task,2021.1.4,MacIntel,60.0024001,6299f149e92ead563fba08ef,62a4443cf9ee4b52b50eafaf,,,,,,,,,,,,,4,,,,,,,,,,Task,37,(3/3) + 5,6,,,,,,,,,,,,,,,,,,,0,,,,,,,,,,,,,,,,,,,,,,,"[""4""]",0,[2.9450999999939995],0,0,0,36,1,,,,,,,,,,,,,,,,,,,,,,,,,,
,,,,,,,,,,,,5f7bd801486f5e1ce581980f,21,Kobieta,2022-06-11_09h29.31.629,task,2021.1.4,MacIntel,60.0024001,6299f149e92ead563fba08ef,62a4443cf9ee4b52b50eafaf,,,,,,,,,,,,,4,,,,,,,,,,Task,21,(10/2) - 1,4,,,,,,,,,,,,,,,,,,,1,,,,,,,,,,,,,,,,,,,,,,,"[""4""]",1,[2.6990999999941323],0,1,1,20,1,,,,,,,,,,,,,,,,,,,,,,,,,,
,,,,,,,,,,,X V Q F H G B L J M P D K C T S W R N Z,5f7bd801486f5e1ce581980f,21,Kobieta,2022-06-11_09h29.31.629,task,2021.1.4,MacIntel,60.0024001,6299f149e92ead563fba08ef,62a4443cf9ee4b52b50eafaf,,,,,,,,,,,,,,,,,,,,,,,,,,,,,,,,,,,,,,,,,,,,,,,,,,,,,,,,,,,,,,,,,,,,,,,,,,,,3,0,3,0,1,,,,,,,,,,,,,,,,,,,,,
,,,,,,,,,,,,5f7bd801486f5e1ce581980f,21,Kobieta,2022-06-11_09h29.31.629,task,2021.1.4,MacIntel,60.0024001,6299f149e92ead563fba08ef,62a4443cf9ee4b52b50eafaf,,,,,,,,,,,,,6,,,,,,,,,,Task,37,(3/3) + 5,6,,,,,,,,,,,,,,,,,,,1,,,,,,,,,,,,,,,,,,,,,,,"[""6""]",1,[2.7344000000059623],0,0,0,36,1,,,,,,,,,,,,,,,,,,,,,,,,,,
,,,,,,,,,,,X V Q F H G B L J M P D K C T S W R N Z,5f7bd801486f5e1ce581980f,21,Kobieta,2022-06-11_09h29.31.629,task,2021.1.4,MacIntel,60.0024001,6299f149e92ead563fba08ef,62a4443cf9ee4b52b50eafaf,,,,,,,,,,,,,,,,,,,,,,,,,,,,,,,,,,,,,,,,,,,,,,,,,,,,,,,,,,,,,,,,,,,,,,,,,,,,4,0,4,0,1,,,,,,,,,,,,,,,,,,,,,
,,,,,,,,,,,,5f7bd801486f5e1ce581980f,21,Kobieta,2022-06-11_09h29.31.629,task,2021.1.4,MacIntel,60.0024001,6299f149e92ead563fba08ef,62a4443cf9ee4b52b50eafaf,,,,,,,,,,,,,7,,,,,,,,,,Task,38,(4x6) - 17,7,,,,,,,,,,,,,,,,,,,1,,,,,,,,,,,,,,,,,,,,,,,"[""7""]",1,[8.161100000001397],0,0,0,37,1,,,,,,,,,,,,,,,,,,,,,,,,,,
,,,,,,,,,,,X V Q F H G B L J M P D K C T S W R N Z,5f7bd801486f5e1ce581980f,21,Kobieta,2022-06-11_09h29.31.629,task,2021.1.4,MacIntel,60.0024001,6299f149e92ead563fba08ef,62a4443cf9ee4b52b50eafaf,,,,,,,,,,,,,,,,,,,,,,,,,,,,,,,,,,,,,,,,,,,,,,,,,,,,,,,,,,,,,,,,,,,,,,,,,,,,5,0,5,0,1,,,,,,,,,,,,,,,,,,,,,
,,,,,,,,,,,,5f7bd801486f5e1ce581980f,21,Kobieta,2022-06-11_09h29.31.629,task,2021.1.4,MacIntel,60.0024001,6299f149e92ead563fba08ef,62a4443cf9ee4b52b50eafaf,,,,,,,,,,,,,,,,,,,,,,,,,,,,,,,,,,,,,,,,,,,,,,,,,,,,,,,,,,,,,,,,,,,,,,,,,,,,,,,,,gdvgcn,"[""g"",""d"",""v"",""g"",""c"",""n""]",0,"[2.4319999999999027,2.877499999999941,3.41220000000294,3.735500000000002,3.9434000000059086,4.312400000005937,5.4291000000014265]",1,GDVGCN,5,0,5,0,1,,,,,,,,,,
,,,,,,,,,,,,5f7bd801486f5e1ce581980f,21,Kobieta,2022-06-11_09h29.31.629,task,2021.1.4,MacIntel,60.0024001,6299f149e92ead563fba08ef,62a4443cf9ee4b52b50eafaf,,,,,,,,,,,,,9,,,,,,,,,,Task,40,(7x2) - 5,9,,,,,,,,,,,,,,,,,,,1,,,,,,,,,,,,,,,,,,,,,,,"[""9""]",1,[5.463199999995595],0,0,0,39,1,,,,,,,,,,,,,,,,,,,,,,,,,,
,,,,,,,,,,,X V Q F H G B L J M P D K C T S W R N Z,5f7bd801486f5e1ce581980f,21,Kobieta,2022-06-11_09h29.31.629,task,2021.1.4,MacIntel,60.0024001,6299f149e92ead563fba08ef,62a4443cf9ee4b52b50eafaf,,,,,,,,,,,,,,,,,,,,,,,,,,,,,,,,,,,,,,,,,,,,,,,,,,,,,,,,,,,,,,,,,,,,,,,,,,,,0,0,0,0,1,,,,,,,,,,,,,,,,,,,,,
,,,,,,,,,,,,5f7bd801486f5e1ce581980f,21,Kobieta,2022-06-11_09h29.31.629,task,2021.1.4,MacIntel,60.0024001,6299f149e92ead563fba08ef,62a4443cf9ee4b52b50eafaf,,,,,,,,,,,,,1,,,,,,,,,,Task,9,(3x7) - 20,1,,,,,,,,,,,,,,,,,,,1,,,,,,,,,,,,,,,,,,,,,,,"[""1""]",1,[1.7155999999940832],0,0,0,8,1,,,,,,,,,,,,,,,,,,,,,,,,,,
,,,,,,,,,,,X V Q F H G B L J M P D K C T S W R N Z,5f7bd801486f5e1ce581980f,21,Kobieta,2022-06-11_09h29.31.629,task,2021.1.4,MacIntel,60.0024001,6299f149e92ead563fba08ef,62a4443cf9ee4b52b50eafaf,,,,,,,,,,,,,,,,,,,,,,,,,,,,,,,,,,,,,,,,,,,,,,,,,,,,,,,,,,,,,,,,,,,,,,,,,,,,1,0,1,0,1,,,,,,,,,,,,,,,,,,,,,
,,,,,,,,,,,,5f7bd801486f5e1ce581980f,21,Kobieta,2022-06-11_09h29.31.629,task,2021.1.4,MacIntel,60.0024001,6299f149e92ead563fba08ef,62a4443cf9ee4b52b50eafaf,,,,,,,,,,,,,9,,,,,,,,,,Task,7,(3x7) - 12,9,,,,,,,,,,,,,,,,,,,1,,,,,,,,,,,,,,,,,,,,,,,"[""9""]",1,[4.733800000004408],0,0,0,6,1,,,,,,,,,,,,,,,,,,,,,,,,,,
,,,,,,,,,,,X V Q F H G B L J M P D K C T S W R N Z,5f7bd801486f5e1ce581980f,21,Kobieta,2022-06-11_09h29.31.629,task,2021.1.4,MacIntel,60.0024001,6299f149e92ead563fba08ef,62a4443cf9ee4b52b50eafaf,,,,,,,,,,,,,,,,,,,,,,,,,,,,,,,,,,,,,,,,,,,,,,,,,,,,,,,,,,,,,,,,,,,,,,,,,,,,2,0,2,0,1,,,,,,,,,,,,,,,,,,,,,
,,,,,,,,,,,,5f7bd801486f5e1ce581980f,21,Kobieta,2022-06-11_09h29.31.629,task,2021.1.4,MacIntel,60.0024001,6299f149e92ead563fba08ef,62a4443cf9ee4b52b50eafaf,,,,,,,,,,,,,5,,,,,,,,,,Task,29,(3x8) - 19 ,5,,,,,,,,,,,,,,,,,,,1,,,,,,,,,,,,,,,,,,,,,,,"[""5""]",1,[3.313600000001543],0,0,0,28,1,,,,,,,,,,,,,,,,,,,,,,,,,,
,,,,,,,,,,,X V Q F H G B L J M P D K C T S W R N Z,5f7bd801486f5e1ce581980f,21,Kobieta,2022-06-11_09h29.31.629,task,2021.1.4,MacIntel,60.0024001,6299f149e92ead563fba08ef,62a4443cf9ee4b52b50eafaf,,,,,,,,,,,,,,,,,,,,,,,,,,,,,,,,,,,,,,,,,,,,,,,,,,,,,,,,,,,,,,,,,,,,,,,,,,,,3,0,3,0,1,,,,,,,,,,,,,,,,,,,,,
,,,,,,,,,,,,5f7bd801486f5e1ce581980f,21,Kobieta,2022-06-11_09h29.31.629,task,2021.1.4,MacIntel,60.0024001,6299f149e92ead563fba08ef,62a4443cf9ee4b52b50eafaf,,,,,,,,,,,,,1,,,,,,,,,,Task,18,(16/4) - 3,1,,,,,,,,,,,,,,,,,,,1,,,,,,,,,,,,,,,,,,,,,,,"[""1""]",1,[2.914600000001542],0,0,0,17,1,,,,,,,,,,,,,,,,,,,,,,,,,,
,,,,,,,,,,,X V Q F H G B L J M P D K C T S W R N Z,5f7bd801486f5e1ce581980f,21,Kobieta,2022-06-11_09h29.31.629,task,2021.1.4,MacIntel,60.0024001,6299f149e92ead563fba08ef,62a4443cf9ee4b52b50eafaf,,,,,,,,,,,,,,,,,,,,,,,,,,,,,,,,,,,,,,,,,,,,,,,,,,,,,,,,,,,,,,,,,,,,,,,,,,,,4,0,4,0,1,,,,,,,,,,,,,,,,,,,,,
,,,,,,,,,,,,5f7bd801486f5e1ce581980f,21,Kobieta,2022-06-11_09h29.31.629,task,2021.1.4,MacIntel,60.0024001,6299f149e92ead563fba08ef,62a4443cf9ee4b52b50eafaf,,,,,,,,,,,,,9,,,,,,,,,,Task,40,(7x2) - 5,9,,,,,,,,,,,,,,,,,,,1,,,,,,,,,,,,,,,,,,,,,,,"[""9""]",1,[4.429900000005887],0,0,0,39,1,,,,,,,,,,,,,,,,,,,,,,,,,,
,,,,,,,,,,,X V Q F H G B L J M P D K C T S W R N Z,5f7bd801486f5e1ce581980f,21,Kobieta,2022-06-11_09h29.31.629,task,2021.1.4,MacIntel,60.0024001,6299f149e92ead563fba08ef,62a4443cf9ee4b52b50eafaf,,,,,,,,,,,,,,,,,,,,,,,,,,,,,,,,,,,,,,,,,,,,,,,,,,,,,,,,,,,,,,,,,,,,,,,,,,,,5,0,5,0,1,,,,,,,,,,,,,,,,,,,,,
,,,,,,,,,,,,5f7bd801486f5e1ce581980f,21,Kobieta,2022-06-11_09h29.31.629,task,2021.1.4,MacIntel,60.0024001,6299f149e92ead563fba08ef,62a4443cf9ee4b52b50eafaf,,,,,,,,,,,,,4,,,,,,,,,,Task,4,(1x5) - 1,4,,,,,,,,,,,,,,,,,,,1,,,,,,,,,,,,,,,,,,,,,,,"[""4""]",1,[2.1480000000000246],0,0,0,3,1,,,,,,,,,,,,,,,,,,,,,,,,,,
,,,,,,,,,,,X V Q F H G B L J M P D K C T S W R N Z,5f7bd801486f5e1ce581980f,21,Kobieta,2022-06-11_09h29.31.629,task,2021.1.4,MacIntel,60.0024001,6299f149e92ead563fba08ef,62a4443cf9ee4b52b50eafaf,,,,,,,,,,,,,,,,,,,,,,,,,,,,,,,,,,,,,,,,,,,,,,,,,,,,,,,,,,,,,,,,,,,,,,,,,,,,6,0,6,0,1,,,,,,,,,,,,,,,,,,,,,
,,,,,,,,,,,,5f7bd801486f5e1ce581980f,21,Kobieta,2022-06-11_09h29.31.629,task,2021.1.4,MacIntel,60.0024001,6299f149e92ead563fba08ef,62a4443cf9ee4b52b50eafaf,,,,,,,,,,,,,,,,,,,,,,,,,,,,,,,,,,,,,,,,,,,,,,,,,,,,,,,,,,,,,,,,,,,,,,,,,,,,,,,,,dthztx,"[""d"",""t"",""h"",""z"",""t"",""x""]",0,"[2.0054999999999836,2.449799999997026,2.9828999999984944,3.3841999999955306,3.8997999999970716,4.247500000000059,5.130499999999984]",0,DTHZTKX,6,0,6,0,1,,,,,,,,,,
,,,,,,,,,,,,5f7bd801486f5e1ce581980f,21,Kobieta,2022-06-11_09h29.31.629,task,2021.1.4,MacIntel,60.0024001,6299f149e92ead563fba08ef,62a4443cf9ee4b52b50eafaf,,,,,,,,,,,,,7,,,,,,,,,,Task,6,(12/2) + 1,7,,,,,,,,,,,,,,,,,,,1,,,,,,,,,,,,,,,,,,,,,,,"[""7""]",1,[2.663600000001452],0,0,0,5,1,,,,,,,,,,,,,,,,,,,,,,,,,,
,,,,,,,,,,,X V Q F H G B L J M P D K C T S W R N Z,5f7bd801486f5e1ce581980f,21,Kobieta,2022-06-11_09h29.31.629,task,2021.1.4,MacIntel,60.0024001,6299f149e92ead563fba08ef,62a4443cf9ee4b52b50eafaf,,,,,,,,,,,,,,,,,,,,,,,,,,,,,,,,,,,,,,,,,,,,,,,,,,,,,,,,,,,,,,,,,,,,,,,,,,,,0,0,0,0,1,,,,,,,,,,,,,,,,,,,,,
,,,,,,,,,,,,5f7bd801486f5e1ce581980f,21,Kobieta,2022-06-11_09h29.31.629,task,2021.1.4,MacIntel,60.0024001,6299f149e92ead563fba08ef,62a4443cf9ee4b52b50eafaf,,,,,,,,,,,,,6,,,,,,,,,,Task,30,(6/3) + 4 ,6,,,,,,,,,,,,,,,,,,,1,,,,,,,,,,,,,,,,,,,,,,,"[""6""]",1,[4.2554000000059204],0,0,0,29,1,,,,,,,,,,,,,,,,,,,,,,,,,,
,,,,,,,,,,,X V Q F H G B L J M P D K C T S W R N Z,5f7bd801486f5e1ce581980f,21,Kobieta,2022-06-11_09h29.31.629,task,2021.1.4,MacIntel,60.0024001,6299f149e92ead563fba08ef,62a4443cf9ee4b52b50eafaf,,,,,,,,,,,,,,,,,,,,,,,,,,,,,,,,,,,,,,,,,,,,,,,,,,,,,,,,,,,,,,,,,,,,,,,,,,,,1,0,1,0,1,,,,,,,,,,,,,,,,,,,,,
,,,,,,,,,,,,5f7bd801486f5e1ce581980f,21,Kobieta,2022-06-11_09h29.31.629,task,2021.1.4,MacIntel,60.0024001,6299f149e92ead563fba08ef,62a4443cf9ee4b52b50eafaf,,,,,,,,,,,,,5,,,,,,,,,,Task,36,(8/4) + 3,5,,,,,,,,,,,,,,,,,,,1,,,,,,,,,,,,,,,,,,,,,,,"[""5""]",1,[2.149699999995505],0,0,0,35,1,,,,,,,,,,,,,,,,,,,,,,,,,,
,,,,,,,,,,,X V Q F H G B L J M P D K C T S W R N Z,5f7bd801486f5e1ce581980f,21,Kobieta,2022-06-11_09h29.31.629,task,2021.1.4,MacIntel,60.0024001,6299f149e92ead563fba08ef,62a4443cf9ee4b52b50eafaf,,,,,,,,,,,,,,,,,,,,,,,,,,,,,,,,,,,,,,,,,,,,,,,,,,,,,,,,,,,,,,,,,,,,,,,,,,,,2,0,2,0,1,,,,,,,,,,,,,,,,,,,,,
,,,,,,,,,,,,5f7bd801486f5e1ce581980f,21,Kobieta,2022-06-11_09h29.31.629,task,2021.1.4,MacIntel,60.0024001,6299f149e92ead563fba08ef,62a4443cf9ee4b52b50eafaf,,,,,,,,,,,,,2,,,,,,,,,,Task,2,(2x2) - 2,2,,,,,,,,,,,,,,,,,,,1,,,,,,,,,,,,,,,,,,,,,,,"[""2""]",1,[2.1052000000030375],0,0,0,1,1,,,,,,,,,,,,,,,,,,,,,,,,,,
,,,,,,,,,,,X V Q F H G B L J M P D K C T S W R N Z,5f7bd801486f5e1ce581980f,21,Kobieta,2022-06-11_09h29.31.629,task,2021.1.4,MacIntel,60.0024001,6299f149e92ead563fba08ef,62a4443cf9ee4b52b50eafaf,,,,,,,,,,,,,,,,,,,,,,,,,,,,,,,,,,,,,,,,,,,,,,,,,,,,,,,,,,,,,,,,,,,,,,,,,,,,3,0,3,0,1,,,,,,,,,,,,,,,,,,,,,
,,,,,,,,,,,,5f7bd801486f5e1ce581980f,21,Kobieta,2022-06-11_09h29.31.629,task,2021.1.4,MacIntel,60.0024001,6299f149e92ead563fba08ef,62a4443cf9ee4b52b50eafaf,,,,,,,,,,,,,5,,,,,,,,,,Task,36,(8/4) + 3,5,,,,,,,,,,,,,,,,,,,1,,,,,,,,,,,,,,,,,,,,,,,"[""5""]",1,[3.27800000000002],0,0,0,35,1,,,,,,,,,,,,,,,,,,,,,,,,,,
,,,,,,,,,,,X V Q F H G B L J M P D K C T S W R N Z,5f7bd801486f5e1ce581980f,21,Kobieta,2022-06-11_09h29.31.629,task,2021.1.4,MacIntel,60.0024001,6299f149e92ead563fba08ef,62a4443cf9ee4b52b50eafaf,,,,,,,,,,,,,,,,,,,,,,,,,,,,,,,,,,,,,,,,,,,,,,,,,,,,,,,,,,,,,,,,,,,,,,,,,,,,4,0,4,0,1,,,,,,,,,,,,,,,,,,,,,
,,,,,,,,,,,,5f7bd801486f5e1ce581980f,21,Kobieta,2022-06-11_09h29.31.629,task,2021.1.4,MacIntel,60.0024001,6299f149e92ead563fba08ef,62a4443cf9ee4b52b50eafaf,,,,,,,,,,,,,6,,,,,,,,,,Task,15,(3x7) - 13,8,,,,,,,,,,,,,,,,,,,0,,,,,,,,,,,,,,,,,,,,,,,"[""6""]",0,[8.332100000001446],0,0,0,14,1,,,,,,,,,,,,,,,,,,,,,,,,,,
,,,,,,,,,,,,5f7bd801486f5e1ce581980f,21,Kobieta,2022-06-11_09h29.31.629,task,2021.1.4,MacIntel,60.0024001,6299f149e92ead563fba08ef,62a4443cf9ee4b52b50eafaf,,,,,,,,,,,,,7,,,,,,,,,,Task,14,(2x2) + 3,7,,,,,,,,,,,,,,,,,,,1,,,,,,,,,,,,,,,,,,,,,,,"[""7""]",1,[2.999500000000012],0,1,1,13,1,,,,,,,,,,,,,,,,,,,,,,,,,,
,,,,,,,,,,,X V Q F H G B L J M P D K C T S W R N Z,5f7bd801486f5e1ce581980f,21,Kobieta,2022-06-11_09h29.31.629,task,2021.1.4,MacIntel,60.0024001,6299f149e92ead563fba08ef,62a4443cf9ee4b52b50eafaf,,,,,,,,,,,,,,,,,,,,,,,,,,,,,,,,,,,,,,,,,,,,,,,,,,,,,,,,,,,,,,,,,,,,,,,,,,,,5,0,5,0,1,,,,,,,,,,,,,,,,,,,,,
,,,,,,,,,,,,5f7bd801486f5e1ce581980f,21,Kobieta,2022-06-11_09h29.31.629,task,2021.1.4,MacIntel,60.0024001,6299f149e92ead563fba08ef,62a4443cf9ee4b52b50eafaf,,,,,,,,,,,,,3,,,,,,,,,,Task,3,(2x3) - 3,3,,,,,,,,,,,,,,,,,,,1,,,,,,,,,,,,,,,,,,,,,,,"[""3""]",1,[2.3626999999954705],0,0,0,2,1,,,,,,,,,,,,,,,,,,,,,,,,,,
,,,,,,,,,,,X V Q F H G B L J M P D K C T S W R N Z,5f7bd801486f5e1ce581980f,21,Kobieta,2022-06-11_09h29.31.629,task,2021.1.4,MacIntel,60.0024001,6299f149e92ead563fba08ef,62a4443cf9ee4b52b50eafaf,,,,,,,,,,,,,,,,,,,,,,,,,,,,,,,,,,,,,,,,,,,,,,,,,,,,,,,,,,,,,,,,,,,,,,,,,,,,6,0,6,0,1,,,,,,,,,,,,,,,,,,,,,
,,,,,,,,,,,,5f7bd801486f5e1ce581980f,21,Kobieta,2022-06-11_09h29.31.629,task,2021.1.4,MacIntel,60.0024001,6299f149e92ead563fba08ef,62a4443cf9ee4b52b50eafaf,,,,,,,,,,,,,,,,,,,,,,,,,,,,,,,,,,,,,,,,,,,,,,,,,,,,,,,,,,,,,,,,,,,,,,,,,,,,,,,,,wcxfpkz,"[""w"",""c"",""x"",""f"",""p"",""k"",""z""]",0,"[2.0037000000029366,2.3843999999910466,11.434099999994032,12.58409999999401,13.983599999993999,14.333399999991116,14.448999999999955,14.847099999994043]",1,WCXFPKZ,7,0,7,0,1,,,,,,,,,,
,,,,,,,,,,,,5f7bd801486f5e1ce581980f,21,Kobieta,2022-06-11_09h29.31.629,task,2021.1.4,MacIntel,60.0024001,6299f149e92ead563fba08ef,62a4443cf9ee4b52b50eafaf,,,,,,,,,,,,,4,,,,,,,,,,Task,21,(10/2) - 1,4,,,,,,,,,,,,,,,,,,,1,,,,,,,,,,,,,,,,,,,,,,,"[""4""]",1,[3.1108000000119773],0,0,0,20,1,,,,,,,,,,,,,,,,,,,,,,,,,,
,,,,,,,,,,,X V Q F H G B L J M P D K C T S W R N Z,5f7bd801486f5e1ce581980f,21,Kobieta,2022-06-11_09h29.31.629,task,2021.1.4,MacIntel,60.0024001,6299f149e92ead563fba08ef,62a4443cf9ee4b52b50eafaf,,,,,,,,,,,,,,,,,,,,,,,,,,,,,,,,,,,,,,,,,,,,,,,,,,,,,,,,,,,,,,,,,,,,,,,,,,,,0,0,0,0,1,,,,,,,,,,,,,,,,,,,,,
,,,,,,,,,,,,5f7bd801486f5e1ce581980f,21,Kobieta,2022-06-11_09h29.31.629,task,2021.1.4,MacIntel,60.0024001,6299f149e92ead563fba08ef,62a4443cf9ee4b52b50eafaf,,,,,,,,,,,,,1,,,,,,,,,,Task,18,(16/4) - 3,1,,,,,,,,,,,,,,,,,,,1,,,,,,,,,,,,,,,,,,,,,,,"[""1""]",1,[2.707299999997076],0,0,0,17,1,,,,,,,,,,,,,,,,,,,,,,,,,,
,,,,,,,,,,,X V Q F H G B L J M P D K C T S W R N Z,5f7bd801486f5e1ce581980f,21,Kobieta,2022-06-11_09h29.31.629,task,2021.1.4,MacIntel,60.0024001,6299f149e92ead563fba08ef,62a4443cf9ee4b52b50eafaf,,,,,,,,,,,,,,,,,,,,,,,,,,,,,,,,,,,,,,,,,,,,,,,,,,,,,,,,,,,,,,,,,,,,,,,,,,,,1,0,1,0,1,,,,,,,,,,,,,,,,,,,,,
,,,,,,,,,,,,5f7bd801486f5e1ce581980f,21,Kobieta,2022-06-11_09h29.31.629,task,2021.1.4,MacIntel,60.0024001,6299f149e92ead563fba08ef,62a4443cf9ee4b52b50eafaf,,,,,,,,,,,,,2,,,,,,,,,,Task,2,(2x2) - 2,2,,,,,,,,,,,,,,,,,,,1,,,,,,,,,,,,,,,,,,,,,,,"[""2""]",1,[1.7615000000000691],0,0,0,1,1,,,,,,,,,,,,,,,,,,,,,,,,,,
,,,,,,,,,,,X V Q F H G B L J M P D K C T S W R N Z,5f7bd801486f5e1ce581980f,21,Kobieta,2022-06-11_09h29.31.629,task,2021.1.4,MacIntel,60.0024001,6299f149e92ead563fba08ef,62a4443cf9ee4b52b50eafaf,,,,,,,,,,,,,,,,,,,,,,,,,,,,,,,,,,,,,,,,,,,,,,,,,,,,,,,,,,,,,,,,,,,,,,,,,,,,2,0,2,0,1,,,,,,,,,,,,,,,,,,,,,
,,,,,,,,,,,,5f7bd801486f5e1ce581980f,21,Kobieta,2022-06-11_09h29.31.629,task,2021.1.4,MacIntel,60.0024001,6299f149e92ead563fba08ef,62a4443cf9ee4b52b50eafaf,,,,,,,,,,,,,2,,,,,,,,,,Task,10,(2x5) - 8,2,,,,,,,,,,,,,,,,,,,1,,,,,,,,,,,,,,,,,,,,,,,"[""2""]",1,[1.8172999999970898],0,0,0,9,1,,,,,,,,,,,,,,,,,,,,,,,,,,
,,,,,,,,,,,X V Q F H G B L J M P D K C T S W R N Z,5f7bd801486f5e1ce581980f,21,Kobieta,2022-06-11_09h29.31.629,task,2021.1.4,MacIntel,60.0024001,6299f149e92ead563fba08ef,62a4443cf9ee4b52b50eafaf,,,,,,,,,,,,,,,,,,,,,,,,,,,,,,,,,,,,,,,,,,,,,,,,,,,,,,,,,,,,,,,,,,,,,,,,,,,,3,0,3,0,1,,,,,,,,,,,,,,,,,,,,,
,,,,,,,,,,,,5f7bd801486f5e1ce581980f,21,Kobieta,2022-06-11_09h29.31.629,task,2021.1.4,MacIntel,60.0024001,6299f149e92ead563fba08ef,62a4443cf9ee4b52b50eafaf,,,,,,,,,,,,,6,,,,,,,,,,Task,37,(3/3) + 5,6,,,,,,,,,,,,,,,,,,,1,,,,,,,,,,,,,,,,,,,,,,,"[""6""]",1,[3.102300000011951],0,0,0,36,1,,,,,,,,,,,,,,,,,,,,,,,,,,
,,,,,,,,,,,X V Q F H G B L J M P D K C T S W R N Z,5f7bd801486f5e1ce581980f,21,Kobieta,2022-06-11_09h29.31.629,task,2021.1.4,MacIntel,60.0024001,6299f149e92ead563fba08ef,62a4443cf9ee4b52b50eafaf,,,,,,,,,,,,,,,,,,,,,,,,,,,,,,,,,,,,,,,,,,,,,,,,,,,,,,,,,,,,,,,,,,,,,,,,,,,,4,0,4,0,1,,,,,,,,,,,,,,,,,,,,,
,,,,,,,,,,,,5f7bd801486f5e1ce581980f,21,Kobieta,2022-06-11_09h29.31.629,task,2021.1.4,MacIntel,60.0024001,6299f149e92ead563fba08ef,62a4443cf9ee4b52b50eafaf,,,,,,,,,,,,,7,,,,,,,,,,Task,14,(2x2) + 3,7,,,,,,,,,,,,,,,,,,,1,,,,,,,,,,,,,,,,,,,,,,,"[""7""]",1,[2.352700000002983],0,0,0,13,1,,,,,,,,,,,,,,,,,,,,,,,,,,
,,,,,,,,,,,X V Q F H G B L J M P D K C T S W R N Z,5f7bd801486f5e1ce581980f,21,Kobieta,2022-06-11_09h29.31.629,task,2021.1.4,MacIntel,60.0024001,6299f149e92ead563fba08ef,62a4443cf9ee4b52b50eafaf,,,,,,,,,,,,,,,,,,,,,,,,,,,,,,,,,,,,,,,,,,,,,,,,,,,,,,,,,,,,,,,,,,,,,,,,,,,,5,0,5,0,1,,,,,,,,,,,,,,,,,,,,,
,,,,,,,,,,,,5f7bd801486f5e1ce581980f,21,Kobieta,2022-06-11_09h29.31.629,task,2021.1.4,MacIntel,60.0024001,6299f149e92ead563fba08ef,62a4443cf9ee4b52b50eafaf,,,,,,,,,,,,,0,,,,,,,,,,Task,17,(2x3) - 6,0,,,,,,,,,,,,,,,,,,,1,,,,,,,,,,,,,,,,,,,,,,,"[""0""]",1,[2.5355999999940195],0,0,0,16,1,,,,,,,,,,,,,,,,,,,,,,,,,,
,,,,,,,,,,,X V Q F H G B L J M P D K C T S W R N Z,5f7bd801486f5e1ce581980f,21,Kobieta,2022-06-11_09h29.31.629,task,2021.1.4,MacIntel,60.0024001,6299f149e92ead563fba08ef,62a4443cf9ee4b52b50eafaf,,,,,,,,,,,,,,,,,,,,,,,,,,,,,,,,,,,,,,,,,,,,,,,,,,,,,,,,,,,,,,,,,,,,,,,,,,,,6,0,6,0,1,,,,,,,,,,,,,,,,,,,,,
,,,,,,,,,,,,5f7bd801486f5e1ce581980f,21,Kobieta,2022-06-11_09h29.31.629,task,2021.1.4,MacIntel,60.0024001,6299f149e92ead563fba08ef,62a4443cf9ee4b52b50eafaf,,,,,,,,,,,,,0,,,,,,,,,,Task,25,(10/5) - 2,0,,,,,,,,,,,,,,,,,,,1,,,,,,,,,,,,,,,,,,,,,,,"[""0""]",1,[4.032299999997008],0,0,0,24,1,,,,,,,,,,,,,,,,,,,,,,,,,,
,,,,,,,,,,,X V Q F H G B L J M P D K C T S W R N Z,5f7bd801486f5e1ce581980f,21,Kobieta,2022-06-11_09h29.31.629,task,2021.1.4,MacIntel,60.0024001,6299f149e92ead563fba08ef,62a4443cf9ee4b52b50eafaf,,,,,,,,,,,,,,,,,,,,,,,,,,,,,,,,,,,,,,,,,,,,,,,,,,,,,,,,,,,,,,,,,,,,,,,,,,,,7,0,7,0,1,,,,,,,,,,,,,,,,,,,,,
,,,,,,,,,,,,5f7bd801486f5e1ce581980f,21,Kobieta,2022-06-11_09h29.31.629,task,2021.1.4,MacIntel,60.0024001,6299f149e92ead563fba08ef,62a4443cf9ee4b52b50eafaf,,,,,,,,,,,,,,,,,,,,,,,,,,,,,,,,,,,,,,,,,,,,,,,,,,,,,,,,,,,,,,,,,,,,,,,,,,,,,,,,,rkttwh,"[""r"",""k"",""t"",""t"",""w"",""h""]",0,"[1.6105000000000018,1.7907999999970343,2.1154999999999973,2.2492999999969925,2.383299999997007,3.286299999997027,4.549499999999966]",0,RKTTWGQH,8,0,8,0,1,,,,,,,,,,
,,,,,,,,,,,,5f7bd801486f5e1ce581980f,21,Kobieta,2022-06-11_09h29.31.629,task,2021.1.4,MacIntel,60.0024001,6299f149e92ead563fba08ef,62a4443cf9ee4b52b50eafaf,,,,,,,,,,,,,0,,,,,,,,,,Task,33,(1/1) - 1,0,,,,,,,,,,,,,,,,,,,1,,,,,,,,,,,,,,,,,,,,,,,"[""0""]",1,[1.3955000000000837],0,0,0,32,1,,,,,,,,,,,,,,,,,,,,,,,,,,
,,,,,,,,,,,X V Q F H G B L J M P D K C T S W R N Z,5f7bd801486f5e1ce581980f,21,Kobieta,2022-06-11_09h29.31.629,task,2021.1.4,MacIntel,60.0024001,6299f149e92ead563fba08ef,62a4443cf9ee4b52b50eafaf,,,,,,,,,,,,,,,,,,,,,,,,,,,,,,,,,,,,,,,,,,,,,,,,,,,,,,,,,,,,,,,,,,,,,,,,,,,,0,0,0,0,1,,,,,,,,,,,,,,,,,,,,,
,,,,,,,,,,,,5f7bd801486f5e1ce581980f,21,Kobieta,2022-06-11_09h29.31.629,task,2021.1.4,MacIntel,60.0024001,6299f149e92ead563fba08ef,62a4443cf9ee4b52b50eafaf,,,,,,,,,,,,,3,,,,,,,,,,Task,35,(1x2) + 1,3,,,,,,,,,,,,,,,,,,,1,,,,,,,,,,,,,,,,,,,,,,,"[""3""]",1,[2.1974000000059277],0,0,0,34,1,,,,,,,,,,,,,,,,,,,,,,,,,,
,,,,,,,,,,,X V Q F H G B L J M P D K C T S W R N Z,5f7bd801486f5e1ce581980f,21,Kobieta,2022-06-11_09h29.31.629,task,2021.1.4,MacIntel,60.0024001,6299f149e92ead563fba08ef,62a4443cf9ee4b52b50eafaf,,,,,,,,,,,,,,,,,,,,,,,,,,,,,,,,,,,,,,,,,,,,,,,,,,,,,,,,,,,,,,,,,,,,,,,,,,,,1,0,1,0,1,,,,,,,,,,,,,,,,,,,,,
,,,,,,,,,,,,5f7bd801486f5e1ce581980f,21,Kobieta,2022-06-11_09h29.31.629,task,2021.1.4,MacIntel,60.0024001,6299f149e92ead563fba08ef,62a4443cf9ee4b52b50eafaf,,,,,,,,,,,,,2,,,,,,,,,,Task,3,(2x3) - 3,3,,,,,,,,,,,,,,,,,,,0,,,,,,,,,,,,,,,,,,,,,,,"[""2""]",0,[2.479899999991062],0,0,0,2,1,,,,,,,,,,,,,,,,,,,,,,,,,,
,,,,,,,,,,,,5f7bd801486f5e1ce581980f,21,Kobieta,2022-06-11_09h29.31.629,task,2021.1.4,MacIntel,60.0024001,6299f149e92ead563fba08ef,62a4443cf9ee4b52b50eafaf,,,,,,,,,,,,,7,,,,,,,,,,Task,38,(4x6) - 17,7,,,,,,,,,,,,,,,,,,,1,,,,,,,,,,,,,,,,,,,,,,,"[""7""]",1,[5.778599999994071],0,1,1,37,1,,,,,,,,,,,,,,,,,,,,,,,,,,
,,,,,,,,,,,X V Q F H G B L J M P D K C T S W R N Z,5f7bd801486f5e1ce581980f,21,Kobieta,2022-06-11_09h29.31.629,task,2021.1.4,MacIntel,60.0024001,6299f149e92ead563fba08ef,62a4443cf9ee4b52b50eafaf,,,,,,,,,,,,,,,,,,,,,,,,,,,,,,,,,,,,,,,,,,,,,,,,,,,,,,,,,,,,,,,,,,,,,,,,,,,,2,0,2,0,1,,,,,,,,,,,,,,,,,,,,,
,,,,,,,,,,,,5f7bd801486f5e1ce581980f,21,Kobieta,2022-06-11_09h29.31.629,task,2021.1.4,MacIntel,60.0024001,6299f149e92ead563fba08ef,62a4443cf9ee4b52b50eafaf,,,,,,,,,,,,,3,,,,,,,,,,Task,35,(1x2) + 1,3,,,,,,,,,,,,,,,,,,,1,,,,,,,,,,,,,,,,,,,,,,,"[""3""]",1,[2.534599999994043],0,0,0,34,1,,,,,,,,,,,,,,,,,,,,,,,,,,
,,,,,,,,,,,X V Q F H G B L J M P D K C T S W R N Z,5f7bd801486f5e1ce581980f,21,Kobieta,2022-06-11_09h29.31.629,task,2021.1.4,MacIntel,60.0024001,6299f149e92ead563fba08ef,62a4443cf9ee4b52b50eafaf,,,,,,,,,,,,,,,,,,,,,,,,,,,,,,,,,,,,,,,,,,,,,,,,,,,,,,,,,,,,,,,,,,,,,,,,,,,,3,0,3,0,1,,,,,,,,,,,,,,,,,,,,,
,,,,,,,,,,,,5f7bd801486f5e1ce581980f,21,Kobieta,2022-06-11_09h29.31.629,task,2021.1.4,MacIntel,60.0024001,6299f149e92ead563fba08ef,62a4443cf9ee4b52b50eafaf,,,,,,,,,,,,,3,,,,,,,,,,Task,20,(18/9) + 1,3,,,,,,,,,,,,,,,,,,,1,,,,,,,,,,,,,,,,,,,,,,,"[""3""]",1,[1.797100000008868],0,0,0,19,1,,,,,,,,,,,,,,,,,,,,,,,,,,
,,,,,,,,,,,X V Q F H G B L J M P D K C T S W R N Z,5f7bd801486f5e1ce581980f,21,Kobieta,2022-06-11_09h29.31.629,task,2021.1.4,MacIntel,60.0024001,6299f149e92ead563fba08ef,62a4443cf9ee4b52b50eafaf,,,,,,,,,,,,,,,,,,,,,,,,,,,,,,,,,,,,,,,,,,,,,,,,,,,,,,,,,,,,,,,,,,,,,,,,,,,,4,0,4,0,1,,,,,,,,,,,,,,,,,,,,,
,,,,,,,,,,,,5f7bd801486f5e1ce581980f,21,Kobieta,2022-06-11_09h29.31.629,task,2021.1.4,MacIntel,60.0024001,6299f149e92ead563fba08ef,62a4443cf9ee4b52b50eafaf,,,,,,,,,,,,,5,,,,,,,,,,Task,29,(3x8) - 19 ,5,,,,,,,,,,,,,,,,,,,1,,,,,,,,,,,,,,,,,,,,,,,"[""5""]",1,[4.017399999991085],0,0,0,28,1,,,,,,,,,,,,,,,,,,,,,,,,,,
,,,,,,,,,,,X V Q F H G B L J M P D K C T S W R N Z,5f7bd801486f5e1ce581980f,21,Kobieta,2022-06-11_09h29.31.629,task,2021.1.4,MacIntel,60.0024001,6299f149e92ead563fba08ef,62a4443cf9ee4b52b50eafaf,,,,,,,,,,,,,,,,,,,,,,,,,,,,,,,,,,,,,,,,,,,,,,,,,,,,,,,,,,,,,,,,,,,,,,,,,,,,5,0,5,0,1,,,,,,,,,,,,,,,,,,,,,
,,,,,,,,,,,,5f7bd801486f5e1ce581980f,21,Kobieta,2022-06-11_09h29.31.629,task,2021.1.4,MacIntel,60.0024001,6299f149e92ead563fba08ef,62a4443cf9ee4b52b50eafaf,,,,,,,,,,,,,6,,,,,,,,,,Task,5,(2x3) + 0,6,,,,,,,,,,,,,,,,,,,1,,,,,,,,,,,,,,,,,,,,,,,"[""6""]",1,[3.054099999994037],0,0,0,4,1,,,,,,,,,,,,,,,,,,,,,,,,,,
,,,,,,,,,,,X V Q F H G B L J M P D K C T S W R N Z,5f7bd801486f5e1ce581980f,21,Kobieta,2022-06-11_09h29.31.629,task,2021.1.4,MacIntel,60.0024001,6299f149e92ead563fba08ef,62a4443cf9ee4b52b50eafaf,,,,,,,,,,,,,,,,,,,,,,,,,,,,,,,,,,,,,,,,,,,,,,,,,,,,,,,,,,,,,,,,,,,,,,,,,,,,6,0,6,0,1,,,,,,,,,,,,,,,,,,,,,
,,,,,,,,,,,,5f7bd801486f5e1ce581980f,21,Kobieta,2022-06-11_09h29.31.629,task,2021.1.4,MacIntel,60.0024001,6299f149e92ead563fba08ef,62a4443cf9ee4b52b50eafaf,,,,,,,,,,,,,4,,,,,,,,,,Task,4,(1x5) - 1,4,,,,,,,,,,,,,,,,,,,1,,,,,,,,,,,,,,,,,,,,,,,"[""4""]",1,[3.813800000011952],0,0,0,3,1,,,,,,,,,,,,,,,,,,,,,,,,,,
,,,,,,,,,,,X V Q F H G B L J M P D K C T S W R N Z,5f7bd801486f5e1ce581980f,21,Kobieta,2022-06-11_09h29.31.629,task,2021.1.4,MacIntel,60.0024001,6299f149e92ead563fba08ef,62a4443cf9ee4b52b50eafaf,,,,,,,,,,,,,,,,,,,,,,,,,,,,,,,,,,,,,,,,,,,,,,,,,,,,,,,,,,,,,,,,,,,,,,,,,,,,7,0,7,0,1,,,,,,,,,,,,,,,,,,,,,
,,,,,,,,,,,,5f7bd801486f5e1ce581980f,21,Kobieta,2022-06-11_09h29.31.629,task,2021.1.4,MacIntel,60.0024001,6299f149e92ead563fba08ef,62a4443cf9ee4b52b50eafaf,,,,,,,,,,,,,,,,,,,,,,,,,,,,,,,,,,,,,,,,,,,,,,,,,,,,,,,,,,,,,,,,,,,,,,,,,,,,,,,,,sxrhnqqx,"[""s"",""x"",""r"",""h"",""n"",""q"",""q"",""x""]",0,"[1.8419000000059214,2.740700000002903,3.1334999999999127,3.414700000002881,3.6452999999969506,6.95049999999992,7.127799999997023,7.945600000008881,10.932299999996985]",1,SXRHNQQX,9,0,9,0,1,,,,,,,,,,
,,,,,,,,,,,,5f7bd801486f5e1ce581980f,21,Kobieta,2022-06-11_09h29.31.629,task,2021.1.4,MacIntel,60.0024001,6299f149e92ead563fba08ef,62a4443cf9ee4b52b50eafaf,,,,,,,,,,,,,3,,,,,,,,,,Task,3,(2x3) - 3,3,,,,,,,,,,,,,,,,,,,1,,,,,,,,,,,,,,,,,,,,,,,"[""3""]",1,[2.163499999999999],0,0,0,2,1,,,,,,,,,,,,,,,,,,,,,,,,,,
,,,,,,,,,,,X V Q F H G B L J M P D K C T S W R N Z,5f7bd801486f5e1ce581980f,21,Kobieta,2022-06-11_09h29.31.629,task,2021.1.4,MacIntel,60.0024001,6299f149e92ead563fba08ef,62a4443cf9ee4b52b50eafaf,,,,,,,,,,,,,,,,,,,,,,,,,,,,,,,,,,,,,,,,,,,,,,,,,,,,,,,,,,,,,,,,,,,,,,,,,,,,0,0,0,0,1,,,,,,,,,,,,,,,,,,,,,
,,,,,,,,,,,,5f7bd801486f5e1ce581980f,21,Kobieta,2022-06-11_09h29.31.629,task,2021.1.4,MacIntel,60.0024001,6299f149e92ead563fba08ef,62a4443cf9ee4b52b50eafaf,,,,,,,,,,,,,9,,,,,,,,,,Task,7,(3x7) - 12,9,,,,,,,,,,,,,,,,,,,1,,,,,,,,,,,,,,,,,,,,,,,"[""9""]",1,[3.2638999999911675],0,0,0,6,1,,,,,,,,,,,,,,,,,,,,,,,,,,
,,,,,,,,,,,X V Q F H G B L J M P D K C T S W R N Z,5f7bd801486f5e1ce581980f,21,Kobieta,2022-06-11_09h29.31.629,task,2021.1.4,MacIntel,60.0024001,6299f149e92ead563fba08ef,62a4443cf9ee4b52b50eafaf,,,,,,,,,,,,,,,,,,,,,,,,,,,,,,,,,,,,,,,,,,,,,,,,,,,,,,,,,,,,,,,,,,,,,,,,,,,,1,0,1,0,1,,,,,,,,,,,,,,,,,,,,,
,,,,,,,,,,,,5f7bd801486f5e1ce581980f,21,Kobieta,2022-06-11_09h29.31.629,task,2021.1.4,MacIntel,60.0024001,6299f149e92ead563fba08ef,62a4443cf9ee4b52b50eafaf,,,,,,,,,,,,,7,,,,,,,,,,Task,36,(8/4) + 3,5,,,,,,,,,,,,,,,,,,,0,,,,,,,,,,,,,,,,,,,,,,,"[""7""]",0,[5.119400000005953],0,0,0,35,1,,,,,,,,,,,,,,,,,,,,,,,,,,
,,,,,,,,,,,,5f7bd801486f5e1ce581980f,21,Kobieta,2022-06-11_09h29.31.629,task,2021.1.4,MacIntel,60.0024001,6299f149e92ead563fba08ef,62a4443cf9ee4b52b50eafaf,,,,,,,,,,,,,1,,,,,,,,,,Task,34,(9/3) - 2,1,,,,,,,,,,,,,,,,,,,1,,,,,,,,,,,,,,,,,,,,,,,"[""1""]",1,[2.9966000000089252],0,1,1,33,1,,,,,,,,,,,,,,,,,,,,,,,,,,
,,,,,,,,,,,X V Q F H G B L J M P D K C T S W R N Z,5f7bd801486f5e1ce581980f,21,Kobieta,2022-06-11_09h29.31.629,task,2021.1.4,MacIntel,60.0024001,6299f149e92ead563fba08ef,62a4443cf9ee4b52b50eafaf,,,,,,,,,,,,,,,,,,,,,,,,,,,,,,,,,,,,,,,,,,,,,,,,,,,,,,,,,,,,,,,,,,,,,,,,,,,,2,0,2,0,1,,,,,,,,,,,,,,,,,,,,,
,,,,,,,,,,,,5f7bd801486f5e1ce581980f,21,Kobieta,2022-06-11_09h29.31.629,task,2021.1.4,MacIntel,60.0024001,6299f149e92ead563fba08ef,62a4443cf9ee4b52b50eafaf,,,,,,,,,,,,,7,,,,,,,,,,Task,6,(12/2) + 1,7,,,,,,,,,,,,,,,,,,,1,,,,,,,,,,,,,,,,,,,,,,,"[""7""]",1,[7.2018000000119855],0,0,0,5,1,,,,,,,,,,,,,,,,,,,,,,,,,,
,,,,,,,,,,,X V Q F H G B L J M P D K C T S W R N Z,5f7bd801486f5e1ce581980f,21,Kobieta,2022-06-11_09h29.31.629,task,2021.1.4,MacIntel,60.0024001,6299f149e92ead563fba08ef,62a4443cf9ee4b52b50eafaf,,,,,,,,,,,,,,,,,,,,,,,,,,,,,,,,,,,,,,,,,,,,,,,,,,,,,,,,,,,,,,,,,,,,,,,,,,,,3,0,3,0,1,,,,,,,,,,,,,,,,,,,,,
,,,,,,,,,,,,5f7bd801486f5e1ce581980f,21,Kobieta,2022-06-11_09h29.31.629,task,2021.1.4,MacIntel,60.0024001,6299f149e92ead563fba08ef,62a4443cf9ee4b52b50eafaf,,,,,,,,,,,,,0,,,,,,,,,,Task,8,(1x5) - 5,0,,,,,,,,,,,,,,,,,,,1,,,,,,,,,,,,,,,,,,,,,,,"[""0""]",1,[1.9481000000089352],0,0,0,7,1,,,,,,,,,,,,,,,,,,,,,,,,,,
,,,,,,,,,,,X V Q F H G B L J M P D K C T S W R N Z,5f7bd801486f5e1ce581980f,21,Kobieta,2022-06-11_09h29.31.629,task,2021.1.4,MacIntel,60.0024001,6299f149e92ead563fba08ef,62a4443cf9ee4b52b50eafaf,,,,,,,,,,,,,,,,,,,,,,,,,,,,,,,,,,,,,,,,,,,,,,,,,,,,,,,,,,,,,,,,,,,,,,,,,,,,4,0,4,0,1,,,,,,,,,,,,,,,,,,,,,
,,,,,,,,,,,,5f7bd801486f5e1ce581980f,21,Kobieta,2022-06-11_09h29.31.629,task,2021.1.4,MacIntel,60.0024001,6299f149e92ead563fba08ef,62a4443cf9ee4b52b50eafaf,,,,,,,,,,,,,5,,,,,,,,,,Task,22,(3x1) + 2,5,,,,,,,,,,,,,,,,,,,1,,,,,,,,,,,,,,,,,,,,,,,"[""5""]",1,[2.3817000000029793],0,0,0,21,1,,,,,,,,,,,,,,,,,,,,,,,,,,
,,,,,,,,,,,X V Q F H G B L J M P D K C T S W R N Z,5f7bd801486f5e1ce581980f,21,Kobieta,2022-06-11_09h29.31.629,task,2021.1.4,MacIntel,60.0024001,6299f149e92ead563fba08ef,62a4443cf9ee4b52b50eafaf,,,,,,,,,,,,,,,,,,,,,,,,,,,,,,,,,,,,,,,,,,,,,,,,,,,,,,,,,,,,,,,,,,,,,,,,,,,,5,0,5,0,1,,,,,,,,,,,,,,,,,,,,,
,,,,,,,,,,,,5f7bd801486f5e1ce581980f,21,Kobieta,2022-06-11_09h29.31.629,task,2021.1.4,MacIntel,60.0024001,6299f149e92ead563fba08ef,62a4443cf9ee4b52b50eafaf,,,,,,,,,,,,,0,,,,,,,,,,Task,26,(2x9) - 16,2,,,,,,,,,,,,,,,,,,,0,,,,,,,,,,,,,,,,,,,,,,,"[""0""]",0,[5.016600000009021],0,0,0,25,1,,,,,,,,,,,,,,,,,,,,,,,,,,
,,,,,,,,,,,,5f7bd801486f5e1ce581980f,21,Kobieta,2022-06-11_09h29.31.629,task,2021.1.4,MacIntel,60.0024001,6299f149e92ead563fba08ef,62a4443cf9ee4b52b50eafaf,,,,,,,,,,,,,1,,,,,,,,,,Task,9,(3x7) - 20,1,,,,,,,,,,,,,,,,,,,1,,,,,,,,,,,,,,,,,,,,,,,"[""1""]",1,[1.887200000002963],0,1,1,8,1,,,,,,,,,,,,,,,,,,,,,,,,,,
,,,,,,,,,,,X V Q F H G B L J M P D K C T S W R N Z,5f7bd801486f5e1ce581980f,21,Kobieta,2022-06-11_09h29.31.629,task,2021.1.4,MacIntel,60.0024001,6299f149e92ead563fba08ef,62a4443cf9ee4b52b50eafaf,,,,,,,,,,,,,,,,,,,,,,,,,,,,,,,,,,,,,,,,,,,,,,,,,,,,,,,,,,,,,,,,,,,,,,,,,,,,6,0,6,0,1,,,,,,,,,,,,,,,,,,,,,
,,,,,,,,,,,,5f7bd801486f5e1ce581980f,21,Kobieta,2022-06-11_09h29.31.629,task,2021.1.4,MacIntel,60.0024001,6299f149e92ead563fba08ef,62a4443cf9ee4b52b50eafaf,,,,,,,,,,,,,2,,,,,,,,,,Task,26,(2x9) - 16,2,,,,,,,,,,,,,,,,,,,1,,,,,,,,,,,,,,,,,,,,,,,"[""2""]",1,[1.9142000000030066],0,0,0,25,1,,,,,,,,,,,,,,,,,,,,,,,,,,
,,,,,,,,,,,X V Q F H G B L J M P D K C T S W R N Z,5f7bd801486f5e1ce581980f,21,Kobieta,2022-06-11_09h29.31.629,task,2021.1.4,MacIntel,60.0024001,6299f149e92ead563fba08ef,62a4443cf9ee4b52b50eafaf,,,,,,,,,,,,,,,,,,,,,,,,,,,,,,,,,,,,,,,,,,,,,,,,,,,,,,,,,,,,,,,,,,,,,,,,,,,,7,0,7,0,1,,,,,,,,,,,,,,,,,,,,,
,,,,,,,,,,,,5f7bd801486f5e1ce581980f,21,Kobieta,2022-06-11_09h29.31.629,task,2021.1.4,MacIntel,60.0024001,6299f149e92ead563fba08ef,62a4443cf9ee4b52b50eafaf,,,,,,,,,,,,,5,,,,,,,,,,Task,29,(3x8) - 19 ,5,,,,,,,,,,,,,,,,,,,1,,,,,,,,,,,,,,,,,,,,,,,"[""5""]",1,[3.7291999999880545],0,0,0,28,1,,,,,,,,,,,,,,,,,,,,,,,,,,
,,,,,,,,,,,X V Q F H G B L J M P D K C T S W R N Z,5f7bd801486f5e1ce581980f,21,Kobieta,2022-06-11_09h29.31.629,task,2021.1.4,MacIntel,60.0024001,6299f149e92ead563fba08ef,62a4443cf9ee4b52b50eafaf,,,,,,,,,,,,,,,,,,,,,,,,,,,,,,,,,,,,,,,,,,,,,,,,,,,,,,,,,,,,,,,,,,,,,,,,,,,,8,0,8,0,1,,,,,,,,,,,,,,,,,,,,,
,,,,,,,,,,,,5f7bd801486f5e1ce581980f,21,Kobieta,2022-06-11_09h29.31.629,task,2021.1.4,MacIntel,60.0024001,6299f149e92ead563fba08ef,62a4443cf9ee4b52b50eafaf,,,,,,,,,,,,,,,,,,,,,,,,,,,,,,,,,,,,,,,,,,,,,,,,,,,,,,,,,,,,,,,,,,,,,,,,,,,,,,,,,rtpgsgmt,"[""r"",""t"",""p"",""g"",""s"",""g"",""m"",""t""]",0,"[1.7022000000030175,2.117099999994025,2.6522000000029493,4.050899999991088,4.26779999999701,4.517700000002947,5.2060999999940805,5.334799999997017,5.799799999997049]",0,DSPGSGMTD,10,0,10,0,1,,,,,,,,,,
,,,,,,,,,,,,5f7bd801486f5e1ce581980f,21,Kobieta,2022-06-11_09h29.31.629,task,2021.1.4,MacIntel,60.0024001,6299f149e92ead563fba08ef,62a4443cf9ee4b52b50eafaf,,,,,,,,,,,,,5,,,,,,,,,,Task,36,(8/4) + 3,5,,,,,,,,,,,,,,,,,,,1,,,,,,,,,,,,,,,,,,,,,,,"[""5""]",1,[3.0815000000000055],0,0,0,35,1,,,,,,,,,,,,,,,,,,,,,,,,,,
,,,,,,,,,,,X V Q F H G B L J M P D K C T S W R N Z,5f7bd801486f5e1ce581980f,21,Kobieta,2022-06-11_09h29.31.629,task,2021.1.4,MacIntel,60.0024001,6299f149e92ead563fba08ef,62a4443cf9ee4b52b50eafaf,,,,,,,,,,,,,,,,,,,,,,,,,,,,,,,,,,,,,,,,,,,,,,,,,,,,,,,,,,,,,,,,,,,,,,,,,,,,0,0,0,0,1,,,,,,,,,,,,,,,,,,,,,
,,,,,,,,,,,,5f7bd801486f5e1ce581980f,21,Kobieta,2022-06-11_09h29.31.629,task,2021.1.4,MacIntel,60.0024001,6299f149e92ead563fba08ef,62a4443cf9ee4b52b50eafaf,,,,,,,,,,,,,0,,,,,,,,,,Task,17,(2x3) - 6,0,,,,,,,,,,,,,,,,,,,1,,,,,,,,,,,,,,,,,,,,,,,"[""0""]",1,[1.6466000000089025],0,0,0,16,1,,,,,,,,,,,,,,,,,,,,,,,,,,
,,,,,,,,,,,X V Q F H G B L J M P D K C T S W R N Z,5f7bd801486f5e1ce581980f,21,Kobieta,2022-06-11_09h29.31.629,task,2021.1.4,MacIntel,60.0024001,6299f149e92ead563fba08ef,62a4443cf9ee4b52b50eafaf,,,,,,,,,,,,,,,,,,,,,,,,,,,,,,,,,,,,,,,,,,,,,,,,,,,,,,,,,,,,,,,,,,,,,,,,,,,,1,0,1,0,1,,,,,,,,,,,,,,,,,,,,,
,,,,,,,,,,,,5f7bd801486f5e1ce581980f,21,Kobieta,2022-06-11_09h29.31.629,task,2021.1.4,MacIntel,60.0024001,6299f149e92ead563fba08ef,62a4443cf9ee4b52b50eafaf,,,,,,,,,,,,,3,,,,,,,,,,Task,20,(18/9) + 1,3,,,,,,,,,,,,,,,,,,,1,,,,,,,,,,,,,,,,,,,,,,,"[""3""]",1,[2.7497999999969807],0,0,0,19,1,,,,,,,,,,,,,,,,,,,,,,,,,,
,,,,,,,,,,,X V Q F H G B L J M P D K C T S W R N Z,5f7bd801486f5e1ce581980f,21,Kobieta,2022-06-11_09h29.31.629,task,2021.1.4,MacIntel,60.0024001,6299f149e92ead563fba08ef,62a4443cf9ee4b52b50eafaf,,,,,,,,,,,,,,,,,,,,,,,,,,,,,,,,,,,,,,,,,,,,,,,,,,,,,,,,,,,,,,,,,,,,,,,,,,,,2,0,2,0,1,,,,,,,,,,,,,,,,,,,,,
,,,,,,,,,,,,5f7bd801486f5e1ce581980f,21,Kobieta,2022-06-11_09h29.31.629,task,2021.1.4,MacIntel,60.0024001,6299f149e92ead563fba08ef,62a4443cf9ee4b52b50eafaf,,,,,,,,,,,,,3,,,,,,,,,,Task,20,(18/9) + 1,3,,,,,,,,,,,,,,,,,,,1,,,,,,,,,,,,,,,,,,,,,,,"[""3""]",1,[2.4705000000000155],0,0,0,19,1,,,,,,,,,,,,,,,,,,,,,,,,,,
,,,,,,,,,,,X V Q F H G B L J M P D K C T S W R N Z,5f7bd801486f5e1ce581980f,21,Kobieta,2022-06-11_09h29.31.629,task,2021.1.4,MacIntel,60.0024001,6299f149e92ead563fba08ef,62a4443cf9ee4b52b50eafaf,,,,,,,,,,,,,,,,,,,,,,,,,,,,,,,,,,,,,,,,,,,,,,,,,,,,,,,,,,,,,,,,,,,,,,,,,,,,3,0,3,0,1,,,,,,,,,,,,,,,,,,,,,
,,,,,,,,,,,,5f7bd801486f5e1ce581980f,21,Kobieta,2022-06-11_09h29.31.629,task,2021.1.4,MacIntel,60.0024001,6299f149e92ead563fba08ef,62a4443cf9ee4b52b50eafaf,,,,,,,,,,,,,3,,,,,,,,,,Task,3,(2x3) - 3,3,,,,,,,,,,,,,,,,,,,1,,,,,,,,,,,,,,,,,,,,,,,"[""3""]",1,[2.66599999999994],0,0,0,2,1,,,,,,,,,,,,,,,,,,,,,,,,,,
,,,,,,,,,,,X V Q F H G B L J M P D K C T S W R N Z,5f7bd801486f5e1ce581980f,21,Kobieta,2022-06-11_09h29.31.629,task,2021.1.4,MacIntel,60.0024001,6299f149e92ead563fba08ef,62a4443cf9ee4b52b50eafaf,,,,,,,,,,,,,,,,,,,,,,,,,,,,,,,,,,,,,,,,,,,,,,,,,,,,,,,,,,,,,,,,,,,,,,,,,,,,4,0,4,0,1,,,,,,,,,,,,,,,,,,,,,
,,,,,,,,,,,,5f7bd801486f5e1ce581980f,21,Kobieta,2022-06-11_09h29.31.629,task,2021.1.4,MacIntel,60.0024001,6299f149e92ead563fba08ef,62a4443cf9ee4b52b50eafaf,,,,,,,,,,,,,9,,,,,,,,,,Task,24,(2x2) + 5,9,,,,,,,,,,,,,,,,,,,1,,,,,,,,,,,,,,,,,,,,,,,"[""9""]",1,[3.182299999996985],0,0,0,23,1,,,,,,,,,,,,,,,,,,,,,,,,,,
,,,,,,,,,,,X V Q F H G B L J M P D K C T S W R N Z,5f7bd801486f5e1ce581980f,21,Kobieta,2022-06-11_09h29.31.629,task,2021.1.4,MacIntel,60.0024001,6299f149e92ead563fba08ef,62a4443cf9ee4b52b50eafaf,,,,,,,,,,,,,,,,,,,,,,,,,,,,,,,,,,,,,,,,,,,,,,,,,,,,,,,,,,,,,,,,,,,,,,,,,,,,5,0,5,0,1,,,,,,,,,,,,,,,,,,,,,
,,,,,,,,,,,,5f7bd801486f5e1ce581980f,21,Kobieta,2022-06-11_09h29.31.629,task,2021.1.4,MacIntel,60.0024001,6299f149e92ead563fba08ef,62a4443cf9ee4b52b50eafaf,,,,,,,,,,,,,8,,,,,,,,,,Task,15,(3x7) - 13,8,,,,,,,,,,,,,,,,,,,1,,,,,,,,,,,,,,,,,,,,,,,"[""8""]",1,[5.499900000005937],0,0,0,14,1,,,,,,,,,,,,,,,,,,,,,,,,,,
,,,,,,,,,,,X V Q F H G B L J M P D K C T S W R N Z,5f7bd801486f5e1ce581980f,21,Kobieta,2022-06-11_09h29.31.629,task,2021.1.4,MacIntel,60.0024001,6299f149e92ead563fba08ef,62a4443cf9ee4b52b50eafaf,,,,,,,,,,,,,,,,,,,,,,,,,,,,,,,,,,,,,,,,,,,,,,,,,,,,,,,,,,,,,,,,,,,,,,,,,,,,6,0,6,0,1,,,,,,,,,,,,,,,,,,,,,
,,,,,,,,,,,,5f7bd801486f5e1ce581980f,21,Kobieta,2022-06-11_09h29.31.629,task,2021.1.4,MacIntel,60.0024001,6299f149e92ead563fba08ef,62a4443cf9ee4b52b50eafaf,,,,,,,,,,,,,2,,,,,,,,,,Task,11,(18/3) - 2,4,,,,,,,,,,,,,,,,,,,0,,,,,,,,,,,,,,,,,,,,,,,"[""2""]",0,[6.273000000000025],0,0,0,10,1,,,,,,,,,,,,,,,,,,,,,,,,,,
,,,,,,,,,,,,5f7bd801486f5e1ce581980f,21,Kobieta,2022-06-11_09h29.31.629,task,2021.1.4,MacIntel,60.0024001,6299f149e92ead563fba08ef,62a4443cf9ee4b52b50eafaf,,,,,,,,,,,,,1,,,,,,,,,,Task,1,(12/6) - 1,1,,,,,,,,,,,,,,,,,,,1,,,,,,,,,,,,,,,,,,,,,,,"[""1""]",1,[3.671799999997006],0,1,1,0,1,,,,,,,,,,,,,,,,,,,,,,,,,,
,,,,,,,,,,,X V Q F H G B L J M P D K C T S W R N Z,5f7bd801486f5e1ce581980f,21,Kobieta,2022-06-11_09h29.31.629,task,2021.1.4,MacIntel,60.0024001,6299f149e92ead563fba08ef,62a4443cf9ee4b52b50eafaf,,,,,,,,,,,,,,,,,,,,,,,,,,,,,,,,,,,,,,,,,,,,,,,,,,,,,,,,,,,,,,,,,,,,,,,,,,,,7,0,7,0,1,,,,,,,,,,,,,,,,,,,,,
,,,,,,,,,,,,5f7bd801486f5e1ce581980f,21,Kobieta,2022-06-11_09h29.31.629,task,2021.1.4,MacIntel,60.0024001,6299f149e92ead563fba08ef,62a4443cf9ee4b52b50eafaf,,,,,,,,,,,,,7,,,,,,,,,,Task,6,(12/2) + 1,7,,,,,,,,,,,,,,,,,,,1,,,,,,,,,,,,,,,,,,,,,,,"[""7""]",1,[3.0522000000029266],0,0,0,5,1,,,,,,,,,,,,,,,,,,,,,,,,,,
,,,,,,,,,,,X V Q F H G B L J M P D K C T S W R N Z,5f7bd801486f5e1ce581980f,21,Kobieta,2022-06-11_09h29.31.629,task,2021.1.4,MacIntel,60.0024001,6299f149e92ead563fba08ef,62a4443cf9ee4b52b50eafaf,,,,,,,,,,,,,,,,,,,,,,,,,,,,,,,,,,,,,,,,,,,,,,,,,,,,,,,,,,,,,,,,,,,,,,,,,,,,8,0,8,0,1,,,,,,,,,,,,,,,,,,,,,
,,,,,,,,,,,,5f7bd801486f5e1ce581980f,21,Kobieta,2022-06-11_09h29.31.629,task,2021.1.4,MacIntel,60.0024001,6299f149e92ead563fba08ef,62a4443cf9ee4b52b50eafaf,,,,,,,,,,,,,,,,,,,,,,,,,,,,,,,,,,,,,,,,,,,,,,,,,,,,,,,,,,,,,,,,,,,,,,,,,,,,,,,,,wfvnjqvn,"[""w"",""f"",""v"",""n"",""j"",""q"",""v"",""n""]",0,"[1.7667999999970334,2.3170000000000073,3.117599999994127,3.600200000003042,4.084799999997017,5.283400000006054,5.705900000005954,6.272099999994111,7.068099999994047]",0,WFVNJQVMS,11,0,11,0,1,,,,,,,,,,
,,,,,,,,,,,,5f7bd801486f5e1ce581980f,21,Kobieta,2022-06-11_09h29.31.629,task,2021.1.4,MacIntel,60.0024001,6299f149e92ead563fba08ef,62a4443cf9ee4b52b50eafaf,,,,,,,,,,,,,,,,,,,,,,,,,,,,,,,,,,,,,,,,,,,,,,,,,,,,,,,,,,,,,,,,,,,,,,,,,,,,,,,,,,,,,,,,,,,,"[""comma""]",0,[1.618900000005965],0,0,0,0,1,,
,,,,,,,,,,,,5f7bd801486f5e1ce581980f,21,Kobieta,2022-06-11_09h29.31.629,task,2021.1.4,MacIntel,60.0024001,6299f149e92ead563fba08ef,62a4443cf9ee4b52b50eafaf,,,,,,,,,,,,,,,,,,,,,,,,,,,,,,,,,,,,,,,,,,,,,,,,,,,,,,,,,,,,,,,,,,,,,,,,,,,,,,,,,,,,,,,,,,,,"[""comma""]",0,[1.649000000000001],1,0,1,0,1,,
,,,,,,,,,,,,5f7bd801486f5e1ce581980f,21,Kobieta,2022-06-11_09h29.31.629,task,2021.1.4,MacIntel,60.0024001,6299f149e92ead563fba08ef,62a4443cf9ee4b52b50eafaf,,,,,,,,,,,,,,,,,,,,,,,,,,,,,,,,,,,,,,,,,,,,,,,,,,,,,,,,,,,,,,,,,,,,,,,,,,,,,,,,,,,,,,,,,,,,"[""period""]",0,[0.983799999997018],2,0,2,0,1,,
,,,,,,,,,,,,5f7bd801486f5e1ce581980f,21,Kobieta,2022-06-11_09h29.31.629,task,2021.1.4,MacIntel,60.0024001,6299f149e92ead563fba08ef,62a4443cf9ee4b52b50eafaf,,,,,,,,,,,,,,,,,,,,,,,,,,,,,,,,,,,,,,,,,,,,,,,,,,,,,,,,,,,,,,,,,,,,,,,,,,,,,,,,,,,,,,,,,,,,"[""period""]",0,[0.9830000000000609],3,0,3,0,1,,
,,,,,,,,,,,,5f7bd801486f5e1ce581980f,21,Kobieta,2022-06-11_09h29.31.629,task,2021.1.4,MacIntel,60.0024001,6299f149e92ead563fba08ef,62a4443cf9ee4b52b50eafaf,,,,,,,,,,,,,,,,,,,,,,,,,,,,,,,,,,,,,,,,,,,,,,,,,,,,,,,,,,,,,,,,,,,,,,,,,,,,,,,,,,,,,,,,,,,,"[""comma""]",0,[0.7422999999970443],4,0,4,0,1,,
,,,,,,,,,,,,5f7bd801486f5e1ce581980f,21,Kobieta,2022-06-11_09h29.31.629,task,2021.1.4,MacIntel,60.0024001,6299f149e92ead563fba08ef,62a4443cf9ee4b52b50eafaf,,,,,,,,,,,,,,,,,,,,,,,,,,,,,,,,,,,,,,,,,,,,,,,,,,,,,,,,,,,,,,,,,,,,,,,,,,,,,,,,,,,,,,,,,,,,"[""comma""]",0,[0.8190999999940232],5,0,5,0,1,,
,,,,,,,,,,,,5f7bd801486f5e1ce581980f,21,Kobieta,2022-06-11_09h29.31.629,task,2021.1.4,MacIntel,60.0024001,6299f149e92ead563fba08ef,62a4443cf9ee4b52b50eafaf,,,,,,,,,,,,,,,,,,,,,,,,,,,,,,,,,,,,,,,,,,,,,,,,,,,,,,,,,,,,,,,,,,,,,,,,,,,,,,,,,,,,,,,,,,,,"[""period""]",0,[0.46129999999698157],6,0,6,0,1,,
,,,,,,,,,,,,5f7bd801486f5e1ce581980f,21,Kobieta,2022-06-11_09h29.31.629,task,2021.1.4,MacIntel,60.0024001,6299f149e92ead563fba08ef,62a4443cf9ee4b52b50eafaf,,,,,,,,,,,,,,,,,,,,,,,,,,,,,,,,,,,,,,,,,,,,,,,,,,,,,,,,,,,,,,,,,,,,,,,,,,,,,,,,,,,,,,,,,,,,"[""comma""]",0,[0.4502000000030648],7,0,7,0,1,,
,,,,,,,,,,,,5f7bd801486f5e1ce581980f,21,Kobieta,2022-06-11_09h29.31.629,task,2021.1.4,MacIntel,60.0024001,6299f149e92ead563fba08ef,62a4443cf9ee4b52b50eafaf,,,,,,,,,,,,,,,,,,,,,,,,,,,,,,,,,,,,,,,,,,,,,,,,,,,,,,,,,,,,,,,,,,,,,,,,,,,,,,,,,,,,,,,,,,,,"[""comma""]",0,[0.5337000000029093],8,0,8,0,1,,
,,,,,,,,,,,,5f7bd801486f5e1ce581980f,21,Kobieta,2022-06-11_09h29.31.629,task,2021.1.4,MacIntel,60.0024001,6299f149e92ead563fba08ef,62a4443cf9ee4b52b50eafaf,,,,,,,,,,,,,,,,,,,,,,,,,,,,,,,,,,,,,,,,,,,,,,,,,,,,,,,,,,,,,,,,,,,,,,,,,,,,,,,,,,,,,,,,,,,,"[""period""]",0,[0.8695000000000164],9,0,9,0,1,,
,,,,,,,,,,,,5f7bd801486f5e1ce581980f,21,Kobieta,2022-06-11_09h29.31.629,task,2021.1.4,MacIntel,60.0024001,6299f149e92ead563fba08ef,62a4443cf9ee4b52b50eafaf,,,,,,,,,,,,,,,,,,,,,,,,,,,,,,,,,,,,,,,,,,,,,,,,,,,,,,,,,,,,,,,,,,,,,,,,,,,,,,,,,,,,,,,,,,,,"[""period""]",0,[0.6499000000060278],10,0,10,0,1,,
,,,,,,,,,,,,5f7bd801486f5e1ce581980f,21,Kobieta,2022-06-11_09h29.31.629,task,2021.1.4,MacIntel,60.0024001,6299f149e92ead563fba08ef,62a4443cf9ee4b52b50eafaf,,,,,,,,,,,,,,,,,,,,,,,,,,,,,,,,,,,,,,,,,,,,,,,,,,,,,,,,,,,,,,,,,,,,,,,,,,,,,,,,,,,,,,,,,,,,"[""period""]",0,[0.5665999999940823],11,0,11,0,1,,
,,,,,,,,,,,,5f7bd801486f5e1ce581980f,21,Kobieta,2022-06-11_09h29.31.629,task,2021.1.4,MacIntel,60.0024001,6299f149e92ead563fba08ef,62a4443cf9ee4b52b50eafaf,,,,,,,,,,,,,,,,,,,,,,,,,,,,,,,,,,,,,,,,,,,,,,,,,,,,,,,,,,,,,,,,,,,,,,,,,,,,,,,,,,,,,,,,,,,,"[""comma""]",0,[0.35039999999105476],12,0,12,0,1,,
,,,,,,,,,,,,5f7bd801486f5e1ce581980f,21,Kobieta,2022-06-11_09h29.31.629,task,2021.1.4,MacIntel,60.0024001,6299f149e92ead563fba08ef,62a4443cf9ee4b52b50eafaf,,,,,,,,,,,,,,,,,,,,,,,,,,,,,,,,,,,,,,,,,,,,,,,,,,,,,,,,,,,,,,,,,,,,,,,,,,,,,,,,,,,,,,,,,,,,"[""comma""]",0,[0.4237999999970725],13,0,13,0,1,,
,,,,,,,,,,,,5f7bd801486f5e1ce581980f,21,Kobieta,2022-06-11_09h29.31.629,task,2021.1.4,MacIntel,60.0024001,6299f149e92ead563fba08ef,62a4443cf9ee4b52b50eafaf,,,,,,,,,,,,,,,,,,,,,,,,,,,,,,,,,,,,,,,,,,,,,,,,,,,,,,,,,,,,,,,,,,,,,,,,,,,,,,,,,,,,,,,,,,,,"[""comma""]",0,[0.5014999999999645],14,0,14,0,1,,
,,,,,,,,,,,,5f7bd801486f5e1ce581980f,21,Kobieta,2022-06-11_09h29.31.629,task,2021.1.4,MacIntel,60.0024001,6299f149e92ead563fba08ef,62a4443cf9ee4b52b50eafaf,,,,,,,,,,,,,,,,,,,,,,,,,,,,,,,,,,,,,,,,,,,,,,,,,,,,,,,,,,,,,,,,,,,,,,,,,,,,,,,,,,,,,,,,,,,,"[""period""]",0,[0.41879999999707707],15,0,15,0,1,,
,,,,,,,,,,,,5f7bd801486f5e1ce581980f,21,Kobieta,2022-06-11_09h29.31.629,task,2021.1.4,MacIntel,60.0024001,6299f149e92ead563fba08ef,62a4443cf9ee4b52b50eafaf,,,,,,,,,,,,,,,,,,,,,,,,,,,,,,,,,,,,,,,,,,,,,,,,,,,,,,,,,,,,,,,,,,,,,,,,,,,,,,,,,,,,,,,,,,,,"[""period""]",0,[0.4524000000059232],16,0,16,0,1,,
,,,,,,,,,,,,5f7bd801486f5e1ce581980f,21,Kobieta,2022-06-11_09h29.31.629,task,2021.1.4,MacIntel,60.0024001,6299f149e92ead563fba08ef,62a4443cf9ee4b52b50eafaf,,,,,,,,,,,,,,,,,,,,,,,,,,,,,,,,,,,,,,,,,,,,,,,,,,,,,,,,,,,,,,,,,,,,,,,,,,,,,,,,,,,,,,,,,,,,"[""comma""]",0,[0.5705000000000382],17,0,17,0,1,,
,,,,,,,,,,,,5f7bd801486f5e1ce581980f,21,Kobieta,2022-06-11_09h29.31.629,task,2021.1.4,MacIntel,60.0024001,6299f149e92ead563fba08ef,62a4443cf9ee4b52b50eafaf,,,,,,,,,,,,,,,,,,,,,,,,,,,,,,,,,,,,,,,,,,,,,,,,,,,,,,,,,,,,,,,,,,,,,,,,,,,,,,,,,,,,,,,,,,,,"[""comma""]",0,[0.2737000000029184],18,0,18,0,1,,
,,,,,,,,,,,,5f7bd801486f5e1ce581980f,21,Kobieta,2022-06-11_09h29.31.629,task,2021.1.4,MacIntel,60.0024001,6299f149e92ead563fba08ef,62a4443cf9ee4b52b50eafaf,,,,,,,,,,,,,,,,,,,,,,,,,,,,,,,,,,,,,,,,,,,,,,,,,,,,,,,,,,,,,,,,,,,,,,,,,,,,,,,,,,,,,,,,,,,,"[""period""]",0,[0.4511999999881482],19,0,19,0,1,,
,,,,,,,,,,,,5f7bd801486f5e1ce581980f,21,Kobieta,2022-06-11_09h29.31.629,task,2021.1.4,MacIntel,60.0024001,6299f149e92ead563fba08ef,62a4443cf9ee4b52b50eafaf,,,,,,,,,,,,,,,,,,,,,,,,,,,,,,,,,,,,,,,,,,,,,,,,,,,,,,,,,,,,,,,,,,,,,,,,,,,,,,,,,,,,,,,,,,,,"[""period""]",0,[0.26820000000293476],20,0,20,0,1,,
,,,,,,,,,,,,5f7bd801486f5e1ce581980f,21,Kobieta,2022-06-11_09h29.31.629,task,2021.1.4,MacIntel,60.0024001,6299f149e92ead563fba08ef,62a4443cf9ee4b52b50eafaf,,,,,,,,,,,,,,,,,,,,,,,,,,,,,,,,,,,,,,,,,,,,,,,,,,,,,,,,,,,,,,,,,,,,,,,,,,,,,,,,,,,,,,,,,,,,"[""comma""]",0,[0.27259999999409956],21,0,21,0,1,,
,,,,,,,,,,,,5f7bd801486f5e1ce581980f,21,Kobieta,2022-06-11_09h29.31.629,task,2021.1.4,MacIntel,60.0024001,6299f149e92ead563fba08ef,62a4443cf9ee4b52b50eafaf,,,,,,,,,,,,,,,,,,,,,,,,,,,,,,,,,,,,,,,,,,,,,,,,,,,,,,,,,,,,,,,,,,,,,,,,,,,,,,,,,,,,,,,,,,,,"[""period""]",0,[0.2845999999940432],22,0,22,0,1,,
,,,,,,,,,,,,5f7bd801486f5e1ce581980f,21,Kobieta,2022-06-11_09h29.31.629,task,2021.1.4,MacIntel,60.0024001,6299f149e92ead563fba08ef,62a4443cf9ee4b52b50eafaf,,,,,,,,,,,,,,,,,,,,,,,,,,,,,,,,,,,,,,,,,,,,,,,,,,,,,,,,,,,,,,,,,,,,,,,,,,,,,,,,,,,,,,,,,,,,"[""comma""]",0,[0.36599999999998545],23,0,23,0,1,,
,,,,,,,,,,,,5f7bd801486f5e1ce581980f,21,Kobieta,2022-06-11_09h29.31.629,task,2021.1.4,MacIntel,60.0024001,6299f149e92ead563fba08ef,62a4443cf9ee4b52b50eafaf,,,,,,,,,,,,,,,,,,,,,,,,,,,,,,,,,,,,,,,,,,,,,,,,,,,,,,,,,,,,,,,,,,,,,,,,,,,,,,,,,,,,,,,,,,,,"[""comma""]",0,[0.3990000000000009],24,0,24,0,1,,
,,,,,,,,,,,,5f7bd801486f5e1ce581980f,21,Kobieta,2022-06-11_09h29.31.629,task,2021.1.4,MacIntel,60.0024001,6299f149e92ead563fba08ef,62a4443cf9ee4b52b50eafaf,,,,,,,,,,,,,,,,,,,,,,,,,,,,,,,,,,,,,,,,,,,,,,,,,,,,,,,,,,,,,,,,,,,,,,,,,,,,,,,,,,,,,,,,,,,,"[""period""]",0,[0.4327999999969734],25,0,25,0,1,,
,,,,,,,,,,,,5f7bd801486f5e1ce581980f,21,Kobieta,2022-06-11_09h29.31.629,task,2021.1.4,MacIntel,60.0024001,6299f149e92ead563fba08ef,62a4443cf9ee4b52b50eafaf,,,,,,,,,,,,,,,,,,,,,,,,,,,,,,,,,,,,,,,,,,,,,,,,,,,,,,,,,,,,,,,,,,,,,,,,,,,,,,,,,,,,,,,,,,,,"[""comma""]",0,[0.3332999999969388],26,0,26,0,1,,
,,,,,,,,,,,,5f7bd801486f5e1ce581980f,21,Kobieta,2022-06-11_09h29.31.629,task,2021.1.4,MacIntel,60.0024001,6299f149e92ead563fba08ef,62a4443cf9ee4b52b50eafaf,,,,,,,,,,,,,,,,,,,,,,,,,,,,,,,,,,,,,,,,,,,,,,,,,,,,,,,,,,,,,,,,,,,,,,,,,,,,,,,,,,,,,,,,,,,,"[""period""]",0,[0.24979999999698066],27,0,27,0,1,,
,,,,,,,,,,,,5f7bd801486f5e1ce581980f,21,Kobieta,2022-06-11_09h29.31.629,task,2021.1.4,MacIntel,60.0024001,6299f149e92ead563fba08ef,62a4443cf9ee4b52b50eafaf,,,,,,,,,,,,,,,,,,,,,,,,,,,,,,,,,,,,,,,,,,,,,,,,,,,,,,,,,,,,,,,,,,,,,,,,,,,,,,,,,,,,,,,,,,,,"[""period""]",0,[0.2867999999970152],28,0,28,0,1,,
,,,,,,,,,,,,5f7bd801486f5e1ce581980f,21,Kobieta,2022-06-11_09h29.31.629,task,2021.1.4,MacIntel,60.0024001,6299f149e92ead563fba08ef,62a4443cf9ee4b52b50eafaf,,,,,,,,,,,,,,,,,,,,,,,,,,,,,,,,,,,,,,,,,,,,,,,,,,,,,,,,,,,,,,,,,,,,,,,,,,,,,,,,,,,,,,,,,,,,"[""comma""]",0,[0.3324999999999818],29,0,29,0,1,,
,,,,,,,,,,,,5f7bd801486f5e1ce581980f,21,Kobieta,2022-06-11_09h29.31.629,task,2021.1.4,MacIntel,60.0024001,6299f149e92ead563fba08ef,62a4443cf9ee4b52b50eafaf,,,,,,,,,,,,,,,,,,,,,,,,,,,,,,,,,,,,,,,,,,,,,,,,,,,,,,,,,,,,,,,,,,,,,,,,,,,,,,,,,,,,,,,,,,,,"[""comma""]",0,[0.39630000001193366],30,0,30,0,1,,
,,,,,,,,,,,,5f7bd801486f5e1ce581980f,21,Kobieta,2022-06-11_09h29.31.629,task,2021.1.4,MacIntel,60.0024001,6299f149e92ead563fba08ef,62a4443cf9ee4b52b50eafaf,,,,,,,,,,,,,,,,,,,,,,,,,,,,,,,,,,,,,,,,,,,,,,,,,,,,,,,,,,,,,,,,,,,,,,,,,,,,,,,,,,,,,,,,,,,,"[""period""]",0,[0.2676999999881673],31,0,31,0,1,,
,,,,,,,,,,,,5f7bd801486f5e1ce581980f,21,Kobieta,2022-06-11_09h29.31.629,task,2021.1.4,MacIntel,60.0024001,6299f149e92ead563fba08ef,62a4443cf9ee4b52b50eafaf,,,,,,,,,,,,,,,,,,,,,,,,,,,,,,,,,,,,,,,,,,,,,,,,,,,,,,,,,,,,,,,,,,,,,,,,,,,,,,,,,,,,,,,,,,,,"[""comma""]",0,[0.5332000000030348],32,0,32,0,1,,
,,,,,,,,,,,,5f7bd801486f5e1ce581980f,21,Kobieta,2022-06-11_09h29.31.629,task,2021.1.4,MacIntel,60.0024001,6299f149e92ead563fba08ef,62a4443cf9ee4b52b50eafaf,,,,,,,,,,,,,,,,,,,,,,,,,,,,,,,,,,,,,,,,,,,,,,,,,,,,,,,,,,,,,,,,,,,,,,,,,,,,,,,,,,,,,,,,,,,,"[""period""]",0,[0.38390000000606506],33,0,33,0,1,,
,,,,,,,,,,,,5f7bd801486f5e1ce581980f,21,Kobieta,2022-06-11_09h29.31.629,task,2021.1.4,MacIntel,60.0024001,6299f149e92ead563fba08ef,62a4443cf9ee4b52b50eafaf,,,,,,,,,,,,,,,,,,,,,,,,,,,,,,,,,,,,,,,,,,,,,,,,,,,,,,,,,,,,,,,,,,,,,,,,,,,,,,,,,,,,,,,,,,,,"[""comma""]",0,[0.36649999999985994],34,0,34,0,1,,
,,,,,,,,,,,,5f7bd801486f5e1ce581980f,21,Kobieta,2022-06-11_09h29.31.629,task,2021.1.4,MacIntel,60.0024001,6299f149e92ead563fba08ef,62a4443cf9ee4b52b50eafaf,,,,,,,,,,,,,,,,,,,,,,,,,,,,,,,,,,,,,,,,,,,,,,,,,,,,,,,,,,,,,,,,,,,,,,,,,,,,,,,,,,,,,,,,,,,,"[""period""]",0,[0.38449999999988904],35,0,35,0,1,,
,,,,,,,,,,,,5f7bd801486f5e1ce581980f,21,Kobieta,2022-06-11_09h29.31.629,task,2021.1.4,MacIntel,60.0024001,6299f149e92ead563fba08ef,62a4443cf9ee4b52b50eafaf,,,,,,,,,,,,,,,,,,,,,,,,,,,,,,,,,,,,,,,,,,,,,,,,,,,,,,,,,,,,,,,,,,,,,,,,,,,,,,,,,,,,,,,,,,,,"[""period""]",0,[0.3673000000119373],36,0,36,0,1,,
,,,,,,,,,,,,5f7bd801486f5e1ce581980f,21,Kobieta,2022-06-11_09h29.31.629,task,2021.1.4,MacIntel,60.0024001,6299f149e92ead563fba08ef,62a4443cf9ee4b52b50eafaf,,,,,,,,,,,,,,,,,,,,,,,,,,,,,,,,,,,,,,,,,,,,,,,,,,,,,,,,,,,,,,,,,,,,,,,,,,,,,,,,,,,,,,,,,,,,"[""comma""]",0,[0.6349999999999909],37,0,37,0,1,,
,,,,,,,,,,,,5f7bd801486f5e1ce581980f,21,Kobieta,2022-06-11_09h29.31.629,task,2021.1.4,MacIntel,60.0024001,6299f149e92ead563fba08ef,62a4443cf9ee4b52b50eafaf,,,,,,,,,,,,,,,,,,,,,,,,,,,,,,,,,,,,,,,,,,,,,,,,,,,,,,,,,,,,,,,,,,,,,,,,,,,,,,,,,,,,,,,,,,,,"[""comma""]",0,[0.5679999999999836],38,0,38,0,1,,
,,,,,,,,,,,,5f7bd801486f5e1ce581980f,21,Kobieta,2022-06-11_09h29.31.629,task,2021.1.4,MacIntel,60.0024001,6299f149e92ead563fba08ef,62a4443cf9ee4b52b50eafaf,,,,,,,,,,,,,,,,,,,,,,,,,,,,,,,,,,,,,,,,,,,,,,,,,,,,,,,,,,,,,,,,,,,,,,,,,,,,,,,,,,,,,,,,,,,,"[""period""]",0,[0.4832999999969161],39,0,39,0,1,,
,,,,,,,,,,,,5f7bd801486f5e1ce581980f,21,Kobieta,2022-06-11_09h29.31.629,task,2021.1.4,MacIntel,60.0024001,6299f149e92ead563fba08ef,62a4443cf9ee4b52b50eafaf,,,,,,,,,,,,,,,,,,,,,,,,,,,,,,,,,,,,,,,,,,,,,,,,,,,,,,,,,,,,,,,,,,,,,,,,,,,,,,,,,,,,,,,,,,,,"[""comma""]",0,[0.38520000000312393],40,0,40,0,1,,
,,,,,,,,,,,,5f7bd801486f5e1ce581980f,21,Kobieta,2022-06-11_09h29.31.629,task,2021.1.4,MacIntel,60.0024001,6299f149e92ead563fba08ef,62a4443cf9ee4b52b50eafaf,,,,,,,,,,,,,,,,,,,,,,,,,,,,,,,,,,,,,,,,,,,,,,,,,,,,,,,,,,,,,,,,,,,,,,,,,,,,,,,,,,,,,,,,,,,,"[""period""]",0,[0.4181000000089625],41,0,41,0,1,,
,,,,,,,,,,,,5f7bd801486f5e1ce581980f,21,Kobieta,2022-06-11_09h29.31.629,task,2021.1.4,MacIntel,60.0024001,6299f149e92ead563fba08ef,62a4443cf9ee4b52b50eafaf,,,,,,,,,,,,,,,,,,,,,,,,,,,,,,,,,,,,,,,,,,,,,,,,,,,,,,,,,,,,,,,,,,,,,,,,,,,,,,,,,,,,,,,,,,,,"[""period""]",0,[0.4175000000000182],42,0,42,0,1,,
,,,,,,,,,,,,5f7bd801486f5e1ce581980f,21,Kobieta,2022-06-11_09h29.31.629,task,2021.1.4,MacIntel,60.0024001,6299f149e92ead563fba08ef,62a4443cf9ee4b52b50eafaf,,,,,,,,,,,,,,,,,,,,,,,,,,,,,,,,,,,,,,,,,,,,,,,,,,,,,,,,,,,,,,,,,,,,,,,,,,,,,,,,,,,,,,,,,,,,"[""comma""]",0,[0.3717999999969379],43,0,43,0,1,,
,,,,,,,,,,,,5f7bd801486f5e1ce581980f,21,Kobieta,2022-06-11_09h29.31.629,task,2021.1.4,MacIntel,60.0024001,6299f149e92ead563fba08ef,62a4443cf9ee4b52b50eafaf,,,,,,,,,,,,,,,,,,,,,,,,,,,,,,,,,,,,,,,,,,,,,,,,,,,,,,,,,,,,,,,,,,,,,,,,,,,,,,,,,,,,,,,,,,,,"[""period""]",0,[0.4322999999969852],44,0,44,0,1,,
,,,,,,,,,,,,5f7bd801486f5e1ce581980f,21,Kobieta,2022-06-11_09h29.31.629,task,2021.1.4,MacIntel,60.0024001,6299f149e92ead563fba08ef,62a4443cf9ee4b52b50eafaf,,,,,,,,,,,,,,,,,,,,,,,,,,,,,,,,,,,,,,,,,,,,,,,,,,,,,,,,,,,,,,,,,,,,,,,,,,,,,,,,,,,,,,,,,,,,"[""comma"",""comma""]",0,"[0.2507000000030075,1.9510000000000218]",45,0,45,0,1,,
,,,,,,,,,,,,5f7bd801486f5e1ce581980f,21,Kobieta,2022-06-11_09h29.31.629,task,2021.1.4,MacIntel,60.0024001,6299f149e92ead563fba08ef,62a4443cf9ee4b52b50eafaf,,,,,,,,,,,,,,,,,,,,,,,,,,,,,,,,,,,,,,,,,,,,,,,,,,,,,,,,,,,,,,,,,,,,,,,,,,,,,,,,,,,,,,,,,,,,,0,,46,0,46,0,1,,
,,,,,,,,,,,,5f7bd801486f5e1ce581980f,21,Kobieta,2022-06-11_09h29.31.629,task,2021.1.4,MacIntel,60.0024001,6299f149e92ead563fba08ef,62a4443cf9ee4b52b50eafaf,,,,,,,,,,,,,,,,,,,,,,,,,,,,,,,,,,,,,,,,,,,,,,,,,,,,,,,,,,,,,,,,,,,,,,,,,,,,,,,,,,,,,,,,,,,,"[""comma""]",0,[0.4337999999970634],47,0,47,0,1,,
,,,,,,,,,,,,5f7bd801486f5e1ce581980f,21,Kobieta,2022-06-11_09h29.31.629,task,2021.1.4,MacIntel,60.0024001,6299f149e92ead563fba08ef,62a4443cf9ee4b52b50eafaf,,,,,,,,,,,,,,,,,,,,,,,,,,,,,,,,,,,,,,,,,,,,,,,,,,,,,,,,,,,,,,,,,,,,,,,,,,,,,,,,,,,,,,,,,,,,"[""period""]",0,[0.250399999991032],48,0,48,0,1,,
,,,,,,,,,,,,5f7bd801486f5e1ce581980f,21,Kobieta,2022-06-11_09h29.31.629,task,2021.1.4,MacIntel,60.0024001,6299f149e92ead563fba08ef,62a4443cf9ee4b52b50eafaf,,,,,,,,,,,,,,,,,,,,,,,,,,,,,,,,,,,,,,,,,,,,,,,,,,,,,,,,,,,,,,,,,,,,,,,,,,,,,,,,,,,,,,,,,,,,"[""period""]",0,[0.3986000000088552],49,0,49,0,1,,
,,,,,,,,,,,,5f7bd801486f5e1ce581980f,21,Kobieta,2022-06-11_09h29.31.629,task,2021.1.4,MacIntel,60.0024001,6299f149e92ead563fba08ef,62a4443cf9ee4b52b50eafaf,,,,,,,,,,,,,,,,,,,,,,,,,,,,,,,,,,,,,,,,,,,,,,,,,,,,,,,,,,,,,,,,,,,,,,,,,,,,,,,,,,,,,,,,,,,,"[""comma""]",0,[0.25229999999692154],50,0,50,0,1,,
,,,,,,,,,,,,5f7bd801486f5e1ce581980f,21,Kobieta,2022-06-11_09h29.31.629,task,2021.1.4,MacIntel,60.0024001,6299f149e92ead563fba08ef,62a4443cf9ee4b52b50eafaf,,,,,,,,,,,,,,,,,,,,,,,,,,,,,,,,,,,,,,,,,,,,,,,,,,,,,,,,,,,,,,,,,,,,,,,,,,,,,,,,,,,,,,,,,,,,"[""period""]",0,[0.08200000000010732],51,0,51,0,1,,
,,,,,,,,,,,,5f7bd801486f5e1ce581980f,21,Kobieta,2022-06-11_09h29.31.629,task,2021.1.4,MacIntel,60.0024001,6299f149e92ead563fba08ef,62a4443cf9ee4b52b50eafaf,,,,,,,,,,,,,,,,,,,,,,,,,,,,,,,,,,,,,,,,,,,,,,,,,,,,,,,,,,,,,,,,,,,,,,,,,,,,,,,,,,,,,,,,,,,,"[""period""]",0,[0.3517000000028929],52,0,52,0,1,,
,,,,,,,,,,,,5f7bd801486f5e1ce581980f,21,Kobieta,2022-06-11_09h29.31.629,task,2021.1.4,MacIntel,60.0024001,6299f149e92ead563fba08ef,62a4443cf9ee4b52b50eafaf,,,,,,,,,,,,,,,,,,,,,,,,,,,,,,,,,,,,,,,,,,,,,,,,,,,,,,,,,,,,,,,,,,,,,,,,,,,,,,,,,,,,,,,,,,,,"[""comma""]",0,[0.4206000000090171],53,0,53,0,1,,
,,,,,,,,,,,,5f7bd801486f5e1ce581980f,21,Kobieta,2022-06-11_09h29.31.629,task,2021.1.4,MacIntel,60.0024001,6299f149e92ead563fba08ef,62a4443cf9ee4b52b50eafaf,,,,,,,,,,,,,,,,,,,,,,,,,,,,,,,,,,,,,,,,,,,,,,,,,,,,,,,,,,,,,,,,,,,,,,,,,,,,,,,,,,,,,,,,,,,,"[""period""]",0,[0.3217999999969834],54,0,54,0,1,,
,,,,,,,,,,,,5f7bd801486f5e1ce581980f,21,Kobieta,2022-06-11_09h29.31.629,task,2021.1.4,MacIntel,60.0024001,6299f149e92ead563fba08ef,62a4443cf9ee4b52b50eafaf,,,,,,,,,,,,,,,,,,,,,,,,,,,,,,,,,,,,,,,,,,,,,,,,,,,,,,,,,,,,,,,,,,,,,,,,,,,,,,,,,,,,,,,,,,,,"[""period""]",0,[0.23390000000586042],55,0,55,0,1,,
,,,,,,,,,,,,5f7bd801486f5e1ce581980f,21,Kobieta,2022-06-11_09h29.31.629,task,2021.1.4,MacIntel,60.0024001,6299f149e92ead563fba08ef,62a4443cf9ee4b52b50eafaf,,,,,,,,,,,,,,,,,,,,,,,,,,,,,,,,,,,,,,,,,,,,,,,,,,,,,,,,,,,,,,,,,,,,,,,,,,,,,,,,,,,,,,,,,,,,"[""comma""]",0,[0.13799999999991996],56,0,56,0,1,,
,,,,,,,,,,,,5f7bd801486f5e1ce581980f,21,Kobieta,2022-06-11_09h29.31.629,task,2021.1.4,MacIntel,60.0024001,6299f149e92ead563fba08ef,62a4443cf9ee4b52b50eafaf,,,,,,,,,,,,,,,,,,,,,,,,,,,,,,,,,,,,,,,,,,,,,,,,,,,,,,,,,,,,,,,,,,,,,,,,,,,,,,,,,,,,,,,,,,,,"[""comma""]",0,[0.199899999991203],57,0,57,0,1,,
,,,,,,,,,,,,5f7bd801486f5e1ce581980f,21,Kobieta,2022-06-11_09h29.31.629,task,2021.1.4,MacIntel,60.0024001,6299f149e92ead563fba08ef,62a4443cf9ee4b52b50eafaf,,,,,,,,,,,,,,,,,,,,,,,,,,,,,,,,,,,,,,,,,,,,,,,,,,,,,,,,,,,,,,,,,,,,,,,,,,,,,,,,,,,,,,,,,,,,"[""period""]",0,[0.034699999988106356],58,0,58,0,1,,
,,,,,,,,,,,,5f7bd801486f5e1ce581980f,21,Kobieta,2022-06-11_09h29.31.629,task,2021.1.4,MacIntel,60.0024001,6299f149e92ead563fba08ef,62a4443cf9ee4b52b50eafaf,,,,,,,,,,,,,,,,,,,,,,,,,,,,,,,,,,,,,,,,,,,,,,,,,,,,,,,,,,,,,,,,,,,,,,,,,,,,,,,,,,,,,,,,,,,,"[""comma""]",0,[0.3657999999970798],59,0,59,0,1,,
,,,,,,,,,,,,5f7bd801486f5e1ce581980f,21,Kobieta,2022-06-11_09h29.31.629,task,2021.1.4,MacIntel,60.0024001,6299f149e92ead563fba08ef,62a4443cf9ee4b52b50eafaf,,,,,,,,,,,,,,,,,,,,,,,,,,,,,,,,,,,,,,,,,,,,,,,,,,,,,,,,,,,,,,,,,,,,,,,,,,,,,,,,,,,,,,,,,,,,"[""period""]",0,[0.5179000000059659],60,0,60,0,1,,
,,,,,,,,,,,,5f7bd801486f5e1ce581980f,21,Kobieta,2022-06-11_09h29.31.629,task,2021.1.4,MacIntel,60.0024001,6299f149e92ead563fba08ef,62a4443cf9ee4b52b50eafaf,,,,,,,,,,,,,,,,,,,,,,,,,,,,,,,,,,,,,,,,,,,,,,,,,,,,,,,,,,,,,,,,,,,,,,,,,,,,,,,,,,,,,,,,,,,,"[""comma""]",0,[0.4357000000031803],61,0,61,0,1,,
,,,,,,,,,,,,5f7bd801486f5e1ce581980f,21,Kobieta,2022-06-11_09h29.31.629,task,2021.1.4,MacIntel,60.0024001,6299f149e92ead563fba08ef,62a4443cf9ee4b52b50eafaf,,,,,,,,,,,,,,,,,,,,,,,,,,,,,,,,,,,,,,,,,,,,,,,,,,,,,,,,,,,,,,,,,,,,,,,,,,,,,,,,,,,,,,,,,,,,"[""period""]",0,[0.416599999994105],62,0,62,0,1,,
,,,,,,,,,,,,5f7bd801486f5e1ce581980f,21,Kobieta,2022-06-11_09h29.31.629,task,2021.1.4,MacIntel,60.0024001,6299f149e92ead563fba08ef,62a4443cf9ee4b52b50eafaf,,,,,,,,,,,,,,,,,,,,,,,,,,,,,,,,,,,,,,,,,,,,,,,,,,,,,,,,,,,,,,,,,,,,,,,,,,,,,,,,,,,,,,,,,,,,"[""period""]",0,[0.3498999999910666],63,0,63,0,1,,
,,,,,,,,,,,,5f7bd801486f5e1ce581980f,21,Kobieta,2022-06-11_09h29.31.629,task,2021.1.4,MacIntel,60.0024001,6299f149e92ead563fba08ef,62a4443cf9ee4b52b50eafaf,,,,,,,,,,,,,,,,,,,,,,,,,,,,,,,,,,,,,,,,,,,,,,,,,,,,,,,,,,,,,,,,,,,,,,,,,,,,,,,,,,,,,,,,,,,,"[""comma""]",0,[0.4466000000090844],64,0,64,0,1,,
