key_resp_15.keys,key_resp_15.rt,key_resp_13.keys,key_resp_13.corr,key_resp_13.rt,ranodm_loop.thisRepN,ranodm_loop.thisTrialN,ranodm_loop.thisN,ranodm_loop.thisIndex,ranodm_loop.ran,participant,Wiek*,Płeć,date,expName,psychopyVersion,OS,frameRate,study_id,session,key_resp_16.keys,key_resp_16.rt,key_resp_4.keys,key_resp_4.rt,next_letter.thisRepN,next_letter.thisTrialN,next_letter.thisN,next_letter.thisIndex,next_letter.ran,letter,simple_recall,key_resp_5.keys,key_resp_5.rt,simple_recall_corr,simple_recall_corrkeys,next_level.thisRepN,next_level.thisTrialN,next_level.thisN,next_level.thisIndex,next_level.ran,key_resp_2.keys,key_resp_2.rt,digit_answer,key_resp.keys,key_resp.corr,key_resp.rt,RT_list,next_equation.thisRepN,next_equation.thisTrialN,next_equation.thisN,next_equation.thisIndex,next_equation.ran,Task,Trial,Problem,Operation_answer,processing_score,sumRT,meanRT,sumdiff,sd,RT,key_resp_3.keys,key_resp_3.rt,repeat_practice.thisRepN,repeat_practice.thisTrialN,repeat_practice.thisN,repeat_practice.thisIndex,repeat_practice.ran,key_resp_6.keys,key_resp_6.rt,key_resp_11.keys,key_resp_11.corr,key_resp_11.rt,operation_correct,repeat_if_wrong_prac.thisRepN,repeat_if_wrong_prac.thisTrialN,repeat_if_wrong_prac.thisN,repeat_if_wrong_prac.thisIndex,repeat_if_wrong_prac.ran,span_size_prac.thisRepN,span_size_prac.thisTrialN,span_size_prac.thisN,span_size_prac.thisIndex,span_size_prac.ran,complex_recall_practice,key_resp_9.keys,key_resp_9.corr,key_resp_9.rt,complex_prac_corr,span_recall_prac.thisRepN,span_recall_prac.thisTrialN,span_recall_prac.thisN,span_recall_prac.thisIndex,span_recall_prac.ran,key_resp_10.keys,key_resp_10.rt,key_resp_7.keys,key_resp_7.corr,key_resp_7.rt,repeat_if_wrong.thisRepN,repeat_if_wrong.thisTrialN,repeat_if_wrong.thisN,repeat_if_wrong.thisIndex,repeat_if_wrong.ran,span_size.thisRepN,span_size.thisTrialN,span_size.thisN,span_size.thisIndex,span_size.ran,complex_recall,key_resp_8.keys,key_resp_8.corr,key_resp_8.rt,complex_recall_corr,complex_recall_corrkeys,span_recall.thisRepN,span_recall.thisTrialN,span_recall.thisN,span_recall.thisIndex,span_recall.ran,key_resp_12.keys,key_resp_12.rt
space,22.1643,"[""comma""]",0,[1.3887999999523117],0,0,0,0,1,5f83c8f31854ab56a1f68bea,25,Mężczyzna,2022-06-04_08h13.05.124,task,2021.1.4,Win32,59.74786401,628b806c463b948bc644b84f,629af756e151686bcd6f9a91,,,,,,,,,,,,,,,,,,,,,,,,,,,,,,,,,,,,,,,,,,,,,,,,,,,,,,,,,,,,,,,,,,,,,,,,,,,,,,,,,,,,,,,,,,,,,,,,,,,,,,,
,,"[""period""]",0,[1.0702999999523257],1,0,1,0,1,5f83c8f31854ab56a1f68bea,25,Mężczyzna,2022-06-04_08h13.05.124,task,2021.1.4,Win32,59.74786401,628b806c463b948bc644b84f,629af756e151686bcd6f9a91,,,,,,,,,,,,,,,,,,,,,,,,,,,,,,,,,,,,,,,,,,,,,,,,,,,,,,,,,,,,,,,,,,,,,,,,,,,,,,,,,,,,,,,,,,,,,,,,,,,,,,,
,,"[""comma""]",0,[0.8062000000476957],2,0,2,0,1,5f83c8f31854ab56a1f68bea,25,Mężczyzna,2022-06-04_08h13.05.124,task,2021.1.4,Win32,59.74786401,628b806c463b948bc644b84f,629af756e151686bcd6f9a91,,,,,,,,,,,,,,,,,,,,,,,,,,,,,,,,,,,,,,,,,,,,,,,,,,,,,,,,,,,,,,,,,,,,,,,,,,,,,,,,,,,,,,,,,,,,,,,,,,,,,,,
,,"[""comma""]",0,[0.7235999999046498],3,0,3,0,1,5f83c8f31854ab56a1f68bea,25,Mężczyzna,2022-06-04_08h13.05.124,task,2021.1.4,Win32,59.74786401,628b806c463b948bc644b84f,629af756e151686bcd6f9a91,,,,,,,,,,,,,,,,,,,,,,,,,,,,,,,,,,,,,,,,,,,,,,,,,,,,,,,,,,,,,,,,,,,,,,,,,,,,,,,,,,,,,,,,,,,,,,,,,,,,,,,
,,"[""period""]",0,[0.7536000001430523],4,0,4,0,1,5f83c8f31854ab56a1f68bea,25,Mężczyzna,2022-06-04_08h13.05.124,task,2021.1.4,Win32,59.74786401,628b806c463b948bc644b84f,629af756e151686bcd6f9a91,,,,,,,,,,,,,,,,,,,,,,,,,,,,,,,,,,,,,,,,,,,,,,,,,,,,,,,,,,,,,,,,,,,,,,,,,,,,,,,,,,,,,,,,,,,,,,,,,,,,,,,
,,"[""period""]",0,[0.9069000000953622],5,0,5,0,1,5f83c8f31854ab56a1f68bea,25,Mężczyzna,2022-06-04_08h13.05.124,task,2021.1.4,Win32,59.74786401,628b806c463b948bc644b84f,629af756e151686bcd6f9a91,,,,,,,,,,,,,,,,,,,,,,,,,,,,,,,,,,,,,,,,,,,,,,,,,,,,,,,,,,,,,,,,,,,,,,,,,,,,,,,,,,,,,,,,,,,,,,,,,,,,,,,
,,"[""comma""]",0,[0.5667000000476605],6,0,6,0,1,5f83c8f31854ab56a1f68bea,25,Mężczyzna,2022-06-04_08h13.05.124,task,2021.1.4,Win32,59.74786401,628b806c463b948bc644b84f,629af756e151686bcd6f9a91,,,,,,,,,,,,,,,,,,,,,,,,,,,,,,,,,,,,,,,,,,,,,,,,,,,,,,,,,,,,,,,,,,,,,,,,,,,,,,,,,,,,,,,,,,,,,,,,,,,,,,,
,,"[""comma""]",0,[0.6040999999046335],7,0,7,0,1,5f83c8f31854ab56a1f68bea,25,Mężczyzna,2022-06-04_08h13.05.124,task,2021.1.4,Win32,59.74786401,628b806c463b948bc644b84f,629af756e151686bcd6f9a91,,,,,,,,,,,,,,,,,,,,,,,,,,,,,,,,,,,,,,,,,,,,,,,,,,,,,,,,,,,,,,,,,,,,,,,,,,,,,,,,,,,,,,,,,,,,,,,,,,,,,,,
,,"[""period""]",0,[0.6847000000476839],8,0,8,0,1,5f83c8f31854ab56a1f68bea,25,Mężczyzna,2022-06-04_08h13.05.124,task,2021.1.4,Win32,59.74786401,628b806c463b948bc644b84f,629af756e151686bcd6f9a91,,,,,,,,,,,,,,,,,,,,,,,,,,,,,,,,,,,,,,,,,,,,,,,,,,,,,,,,,,,,,,,,,,,,,,,,,,,,,,,,,,,,,,,,,,,,,,,,,,,,,,,
,,"[""period""]",0,[0.8079999999999927],9,0,9,0,1,5f83c8f31854ab56a1f68bea,25,Mężczyzna,2022-06-04_08h13.05.124,task,2021.1.4,Win32,59.74786401,628b806c463b948bc644b84f,629af756e151686bcd6f9a91,,,,,,,,,,,,,,,,,,,,,,,,,,,,,,,,,,,,,,,,,,,,,,,,,,,,,,,,,,,,,,,,,,,,,,,,,,,,,,,,,,,,,,,,,,,,,,,,,,,,,,,
,,"[""comma""]",0,[0.8032999999523156],10,0,10,0,1,5f83c8f31854ab56a1f68bea,25,Mężczyzna,2022-06-04_08h13.05.124,task,2021.1.4,Win32,59.74786401,628b806c463b948bc644b84f,629af756e151686bcd6f9a91,,,,,,,,,,,,,,,,,,,,,,,,,,,,,,,,,,,,,,,,,,,,,,,,,,,,,,,,,,,,,,,,,,,,,,,,,,,,,,,,,,,,,,,,,,,,,,,,,,,,,,,
,,"[""comma""]",0,[0.7439000000953513],11,0,11,0,1,5f83c8f31854ab56a1f68bea,25,Mężczyzna,2022-06-04_08h13.05.124,task,2021.1.4,Win32,59.74786401,628b806c463b948bc644b84f,629af756e151686bcd6f9a91,,,,,,,,,,,,,,,,,,,,,,,,,,,,,,,,,,,,,,,,,,,,,,,,,,,,,,,,,,,,,,,,,,,,,,,,,,,,,,,,,,,,,,,,,,,,,,,,,,,,,,,
,,"[""period""]",0,[0.551299999952306],12,0,12,0,1,5f83c8f31854ab56a1f68bea,25,Mężczyzna,2022-06-04_08h13.05.124,task,2021.1.4,Win32,59.74786401,628b806c463b948bc644b84f,629af756e151686bcd6f9a91,,,,,,,,,,,,,,,,,,,,,,,,,,,,,,,,,,,,,,,,,,,,,,,,,,,,,,,,,,,,,,,,,,,,,,,,,,,,,,,,,,,,,,,,,,,,,,,,,,,,,,,
,,"[""comma""]",0,[0.6580999999046355],13,0,13,0,1,5f83c8f31854ab56a1f68bea,25,Mężczyzna,2022-06-04_08h13.05.124,task,2021.1.4,Win32,59.74786401,628b806c463b948bc644b84f,629af756e151686bcd6f9a91,,,,,,,,,,,,,,,,,,,,,,,,,,,,,,,,,,,,,,,,,,,,,,,,,,,,,,,,,,,,,,,,,,,,,,,,,,,,,,,,,,,,,,,,,,,,,,,,,,,,,,,
,,"[""comma""]",0,[0.8430000000000177],14,0,14,0,1,5f83c8f31854ab56a1f68bea,25,Mężczyzna,2022-06-04_08h13.05.124,task,2021.1.4,Win32,59.74786401,628b806c463b948bc644b84f,629af756e151686bcd6f9a91,,,,,,,,,,,,,,,,,,,,,,,,,,,,,,,,,,,,,,,,,,,,,,,,,,,,,,,,,,,,,,,,,,,,,,,,,,,,,,,,,,,,,,,,,,,,,,,,,,,,,,,
,,"[""comma""]",0,[0.5545999999046103],15,0,15,0,1,5f83c8f31854ab56a1f68bea,25,Mężczyzna,2022-06-04_08h13.05.124,task,2021.1.4,Win32,59.74786401,628b806c463b948bc644b84f,629af756e151686bcd6f9a91,,,,,,,,,,,,,,,,,,,,,,,,,,,,,,,,,,,,,,,,,,,,,,,,,,,,,,,,,,,,,,,,,,,,,,,,,,,,,,,,,,,,,,,,,,,,,,,,,,,,,,,
,,"[""period""]",0,[0.6069000000953793],16,0,16,0,1,5f83c8f31854ab56a1f68bea,25,Mężczyzna,2022-06-04_08h13.05.124,task,2021.1.4,Win32,59.74786401,628b806c463b948bc644b84f,629af756e151686bcd6f9a91,,,,,,,,,,,,,,,,,,,,,,,,,,,,,,,,,,,,,,,,,,,,,,,,,,,,,,,,,,,,,,,,,,,,,,,,,,,,,,,,,,,,,,,,,,,,,,,,,,,,,,,
,,"[""period""]",0,[0.6449999999999818],17,0,17,0,1,5f83c8f31854ab56a1f68bea,25,Mężczyzna,2022-06-04_08h13.05.124,task,2021.1.4,Win32,59.74786401,628b806c463b948bc644b84f,629af756e151686bcd6f9a91,,,,,,,,,,,,,,,,,,,,,,,,,,,,,,,,,,,,,,,,,,,,,,,,,,,,,,,,,,,,,,,,,,,,,,,,,,,,,,,,,,,,,,,,,,,,,,,,,,,,,,,
,,"[""period""]",0,[0.7132999999523122],18,0,18,0,1,5f83c8f31854ab56a1f68bea,25,Mężczyzna,2022-06-04_08h13.05.124,task,2021.1.4,Win32,59.74786401,628b806c463b948bc644b84f,629af756e151686bcd6f9a91,,,,,,,,,,,,,,,,,,,,,,,,,,,,,,,,,,,,,,,,,,,,,,,,,,,,,,,,,,,,,,,,,,,,,,,,,,,,,,,,,,,,,,,,,,,,,,,,,,,,,,,
,,"[""period""]",0,[0.7777000000477017],19,0,19,0,1,5f83c8f31854ab56a1f68bea,25,Mężczyzna,2022-06-04_08h13.05.124,task,2021.1.4,Win32,59.74786401,628b806c463b948bc644b84f,629af756e151686bcd6f9a91,,,,,,,,,,,,,,,,,,,,,,,,,,,,,,,,,,,,,,,,,,,,,,,,,,,,,,,,,,,,,,,,,,,,,,,,,,,,,,,,,,,,,,,,,,,,,,,,,,,,,,,
,,"[""comma""]",0,[0.6069999999999993],20,0,20,0,1,5f83c8f31854ab56a1f68bea,25,Mężczyzna,2022-06-04_08h13.05.124,task,2021.1.4,Win32,59.74786401,628b806c463b948bc644b84f,629af756e151686bcd6f9a91,,,,,,,,,,,,,,,,,,,,,,,,,,,,,,,,,,,,,,,,,,,,,,,,,,,,,,,,,,,,,,,,,,,,,,,,,,,,,,,,,,,,,,,,,,,,,,,,,,,,,,,
,,"[""period""]",0,[0.7272999999523222],21,0,21,0,1,5f83c8f31854ab56a1f68bea,25,Mężczyzna,2022-06-04_08h13.05.124,task,2021.1.4,Win32,59.74786401,628b806c463b948bc644b84f,629af756e151686bcd6f9a91,,,,,,,,,,,,,,,,,,,,,,,,,,,,,,,,,,,,,,,,,,,,,,,,,,,,,,,,,,,,,,,,,,,,,,,,,,,,,,,,,,,,,,,,,,,,,,,,,,,,,,,
,,"[""comma""]",0,[0.7374000000953629],22,0,22,0,1,5f83c8f31854ab56a1f68bea,25,Mężczyzna,2022-06-04_08h13.05.124,task,2021.1.4,Win32,59.74786401,628b806c463b948bc644b84f,629af756e151686bcd6f9a91,,,,,,,,,,,,,,,,,,,,,,,,,,,,,,,,,,,,,,,,,,,,,,,,,,,,,,,,,,,,,,,,,,,,,,,,,,,,,,,,,,,,,,,,,,,,,,,,,,,,,,,
,,"[""period""]",0,[0.7418999998569689],23,0,23,0,1,5f83c8f31854ab56a1f68bea,25,Mężczyzna,2022-06-04_08h13.05.124,task,2021.1.4,Win32,59.74786401,628b806c463b948bc644b84f,629af756e151686bcd6f9a91,,,,,,,,,,,,,,,,,,,,,,,,,,,,,,,,,,,,,,,,,,,,,,,,,,,,,,,,,,,,,,,,,,,,,,,,,,,,,,,,,,,,,,,,,,,,,,,,,,,,,,,
,,"[""comma""]",0,[0.6516000001430484],24,0,24,0,1,5f83c8f31854ab56a1f68bea,25,Mężczyzna,2022-06-04_08h13.05.124,task,2021.1.4,Win32,59.74786401,628b806c463b948bc644b84f,629af756e151686bcd6f9a91,,,,,,,,,,,,,,,,,,,,,,,,,,,,,,,,,,,,,,,,,,,,,,,,,,,,,,,,,,,,,,,,,,,,,,,,,,,,,,,,,,,,,,,,,,,,,,,,,,,,,,,
,,"[""period""]",0,[0.5878999998569725],25,0,25,0,1,5f83c8f31854ab56a1f68bea,25,Mężczyzna,2022-06-04_08h13.05.124,task,2021.1.4,Win32,59.74786401,628b806c463b948bc644b84f,629af756e151686bcd6f9a91,,,,,,,,,,,,,,,,,,,,,,,,,,,,,,,,,,,,,,,,,,,,,,,,,,,,,,,,,,,,,,,,,,,,,,,,,,,,,,,,,,,,,,,,,,,,,,,,,,,,,,,
,,"[""period""]",0,[0.6193999998569382],26,0,26,0,1,5f83c8f31854ab56a1f68bea,25,Mężczyzna,2022-06-04_08h13.05.124,task,2021.1.4,Win32,59.74786401,628b806c463b948bc644b84f,629af756e151686bcd6f9a91,,,,,,,,,,,,,,,,,,,,,,,,,,,,,,,,,,,,,,,,,,,,,,,,,,,,,,,,,,,,,,,,,,,,,,,,,,,,,,,,,,,,,,,,,,,,,,,,,,,,,,,
,,"[""comma""]",0,[0.636200000047694],27,0,27,0,1,5f83c8f31854ab56a1f68bea,25,Mężczyzna,2022-06-04_08h13.05.124,task,2021.1.4,Win32,59.74786401,628b806c463b948bc644b84f,629af756e151686bcd6f9a91,,,,,,,,,,,,,,,,,,,,,,,,,,,,,,,,,,,,,,,,,,,,,,,,,,,,,,,,,,,,,,,,,,,,,,,,,,,,,,,,,,,,,,,,,,,,,,,,,,,,,,,
,,"[""comma""]",0,[0.5943000001907421],28,0,28,0,1,5f83c8f31854ab56a1f68bea,25,Mężczyzna,2022-06-04_08h13.05.124,task,2021.1.4,Win32,59.74786401,628b806c463b948bc644b84f,629af756e151686bcd6f9a91,,,,,,,,,,,,,,,,,,,,,,,,,,,,,,,,,,,,,,,,,,,,,,,,,,,,,,,,,,,,,,,,,,,,,,,,,,,,,,,,,,,,,,,,,,,,,,,,,,,,,,,
,,"[""period""]",0,[0.4007999999523122],29,0,29,0,1,5f83c8f31854ab56a1f68bea,25,Mężczyzna,2022-06-04_08h13.05.124,task,2021.1.4,Win32,59.74786401,628b806c463b948bc644b84f,629af756e151686bcd6f9a91,,,,,,,,,,,,,,,,,,,,,,,,,,,,,,,,,,,,,,,,,,,,,,,,,,,,,,,,,,,,,,,,,,,,,,,,,,,,,,,,,,,,,,,,,,,,,,,,,,,,,,,
,,"[""period""]",0,[0.5772999999523165],30,0,30,0,1,5f83c8f31854ab56a1f68bea,25,Mężczyzna,2022-06-04_08h13.05.124,task,2021.1.4,Win32,59.74786401,628b806c463b948bc644b84f,629af756e151686bcd6f9a91,,,,,,,,,,,,,,,,,,,,,,,,,,,,,,,,,,,,,,,,,,,,,,,,,,,,,,,,,,,,,,,,,,,,,,,,,,,,,,,,,,,,,,,,,,,,,,,,,,,,,,,
,,"[""period""]",0,[0.7150000000000034],31,0,31,0,1,5f83c8f31854ab56a1f68bea,25,Mężczyzna,2022-06-04_08h13.05.124,task,2021.1.4,Win32,59.74786401,628b806c463b948bc644b84f,629af756e151686bcd6f9a91,,,,,,,,,,,,,,,,,,,,,,,,,,,,,,,,,,,,,,,,,,,,,,,,,,,,,,,,,,,,,,,,,,,,,,,,,,,,,,,,,,,,,,,,,,,,,,,,,,,,,,,
,,"[""comma""]",0,[0.9559000000953688],32,0,32,0,1,5f83c8f31854ab56a1f68bea,25,Mężczyzna,2022-06-04_08h13.05.124,task,2021.1.4,Win32,59.74786401,628b806c463b948bc644b84f,629af756e151686bcd6f9a91,,,,,,,,,,,,,,,,,,,,,,,,,,,,,,,,,,,,,,,,,,,,,,,,,,,,,,,,,,,,,,,,,,,,,,,,,,,,,,,,,,,,,,,,,,,,,,,,,,,,,,,
,,"[""period""]",0,[0.7192999999523124],33,0,33,0,1,5f83c8f31854ab56a1f68bea,25,Mężczyzna,2022-06-04_08h13.05.124,task,2021.1.4,Win32,59.74786401,628b806c463b948bc644b84f,629af756e151686bcd6f9a91,,,,,,,,,,,,,,,,,,,,,,,,,,,,,,,,,,,,,,,,,,,,,,,,,,,,,,,,,,,,,,,,,,,,,,,,,,,,,,,,,,,,,,,,,,,,,,,,,,,,,,,
,,"[""period""]",0,[0.703000000000003],34,0,34,0,1,5f83c8f31854ab56a1f68bea,25,Mężczyzna,2022-06-04_08h13.05.124,task,2021.1.4,Win32,59.74786401,628b806c463b948bc644b84f,629af756e151686bcd6f9a91,,,,,,,,,,,,,,,,,,,,,,,,,,,,,,,,,,,,,,,,,,,,,,,,,,,,,,,,,,,,,,,,,,,,,,,,,,,,,,,,,,,,,,,,,,,,,,,,,,,,,,,
,,"[""comma""]",0,[0.42030000019073555],35,0,35,0,1,5f83c8f31854ab56a1f68bea,25,Mężczyzna,2022-06-04_08h13.05.124,task,2021.1.4,Win32,59.74786401,628b806c463b948bc644b84f,629af756e151686bcd6f9a91,,,,,,,,,,,,,,,,,,,,,,,,,,,,,,,,,,,,,,,,,,,,,,,,,,,,,,,,,,,,,,,,,,,,,,,,,,,,,,,,,,,,,,,,,,,,,,,,,,,,,,,
,,"[""comma""]",0,[0.6552999999523195],36,0,36,0,1,5f83c8f31854ab56a1f68bea,25,Mężczyzna,2022-06-04_08h13.05.124,task,2021.1.4,Win32,59.74786401,628b806c463b948bc644b84f,629af756e151686bcd6f9a91,,,,,,,,,,,,,,,,,,,,,,,,,,,,,,,,,,,,,,,,,,,,,,,,,,,,,,,,,,,,,,,,,,,,,,,,,,,,,,,,,,,,,,,,,,,,,,,,,,,,,,,
,,"[""period""]",0,[0.5247000000476589],37,0,37,0,1,5f83c8f31854ab56a1f68bea,25,Mężczyzna,2022-06-04_08h13.05.124,task,2021.1.4,Win32,59.74786401,628b806c463b948bc644b84f,629af756e151686bcd6f9a91,,,,,,,,,,,,,,,,,,,,,,,,,,,,,,,,,,,,,,,,,,,,,,,,,,,,,,,,,,,,,,,,,,,,,,,,,,,,,,,,,,,,,,,,,,,,,,,,,,,,,,,
,,"[""comma""]",0,[0.7164000000953479],38,0,38,0,1,5f83c8f31854ab56a1f68bea,25,Mężczyzna,2022-06-04_08h13.05.124,task,2021.1.4,Win32,59.74786401,628b806c463b948bc644b84f,629af756e151686bcd6f9a91,,,,,,,,,,,,,,,,,,,,,,,,,,,,,,,,,,,,,,,,,,,,,,,,,,,,,,,,,,,,,,,,,,,,,,,,,,,,,,,,,,,,,,,,,,,,,,,,,,,,,,,
,,"[""comma""]",0,[0.6442999999523238],39,0,39,0,1,5f83c8f31854ab56a1f68bea,25,Mężczyzna,2022-06-04_08h13.05.124,task,2021.1.4,Win32,59.74786401,628b806c463b948bc644b84f,629af756e151686bcd6f9a91,,,,,,,,,,,,,,,,,,,,,,,,,,,,,,,,,,,,,,,,,,,,,,,,,,,,,,,,,,,,,,,,,,,,,,,,,,,,,,,,,,,,,,,,,,,,,,,,,,,,,,,
,,"[""period""]",0,[0.5947999999523006],40,0,40,0,1,5f83c8f31854ab56a1f68bea,25,Mężczyzna,2022-06-04_08h13.05.124,task,2021.1.4,Win32,59.74786401,628b806c463b948bc644b84f,629af756e151686bcd6f9a91,,,,,,,,,,,,,,,,,,,,,,,,,,,,,,,,,,,,,,,,,,,,,,,,,,,,,,,,,,,,,,,,,,,,,,,,,,,,,,,,,,,,,,,,,,,,,,,,,,,,,,,
,,"[""comma""]",0,[0.561899999856962],41,0,41,0,1,5f83c8f31854ab56a1f68bea,25,Mężczyzna,2022-06-04_08h13.05.124,task,2021.1.4,Win32,59.74786401,628b806c463b948bc644b84f,629af756e151686bcd6f9a91,,,,,,,,,,,,,,,,,,,,,,,,,,,,,,,,,,,,,,,,,,,,,,,,,,,,,,,,,,,,,,,,,,,,,,,,,,,,,,,,,,,,,,,,,,,,,,,,,,,,,,,
,,"[""comma""]",0,[0.7860000000000014],42,0,42,0,1,5f83c8f31854ab56a1f68bea,25,Mężczyzna,2022-06-04_08h13.05.124,task,2021.1.4,Win32,59.74786401,628b806c463b948bc644b84f,629af756e151686bcd6f9a91,,,,,,,,,,,,,,,,,,,,,,,,,,,,,,,,,,,,,,,,,,,,,,,,,,,,,,,,,,,,,,,,,,,,,,,,,,,,,,,,,,,,,,,,,,,,,,,,,,,,,,,
,,"[""period""]",0,[0.42939999985694044],43,0,43,0,1,5f83c8f31854ab56a1f68bea,25,Mężczyzna,2022-06-04_08h13.05.124,task,2021.1.4,Win32,59.74786401,628b806c463b948bc644b84f,629af756e151686bcd6f9a91,,,,,,,,,,,,,,,,,,,,,,,,,,,,,,,,,,,,,,,,,,,,,,,,,,,,,,,,,,,,,,,,,,,,,,,,,,,,,,,,,,,,,,,,,,,,,,,,,,,,,,,
,,"[""comma""]",0,[0.5149000000953663],44,0,44,0,1,5f83c8f31854ab56a1f68bea,25,Mężczyzna,2022-06-04_08h13.05.124,task,2021.1.4,Win32,59.74786401,628b806c463b948bc644b84f,629af756e151686bcd6f9a91,,,,,,,,,,,,,,,,,,,,,,,,,,,,,,,,,,,,,,,,,,,,,,,,,,,,,,,,,,,,,,,,,,,,,,,,,,,,,,,,,,,,,,,,,,,,,,,,,,,,,,,
,,"[""period""]",0,[0.5342000000476617],45,0,45,0,1,5f83c8f31854ab56a1f68bea,25,Mężczyzna,2022-06-04_08h13.05.124,task,2021.1.4,Win32,59.74786401,628b806c463b948bc644b84f,629af756e151686bcd6f9a91,,,,,,,,,,,,,,,,,,,,,,,,,,,,,,,,,,,,,,,,,,,,,,,,,,,,,,,,,,,,,,,,,,,,,,,,,,,,,,,,,,,,,,,,,,,,,,,,,,,,,,,
,,"[""comma""]",0,[0.5914000000953479],46,0,46,0,1,5f83c8f31854ab56a1f68bea,25,Mężczyzna,2022-06-04_08h13.05.124,task,2021.1.4,Win32,59.74786401,628b806c463b948bc644b84f,629af756e151686bcd6f9a91,,,,,,,,,,,,,,,,,,,,,,,,,,,,,,,,,,,,,,,,,,,,,,,,,,,,,,,,,,,,,,,,,,,,,,,,,,,,,,,,,,,,,,,,,,,,,,,,,,,,,,,
,,"[""period""]",0,[0.48399999999998045],47,0,47,0,1,5f83c8f31854ab56a1f68bea,25,Mężczyzna,2022-06-04_08h13.05.124,task,2021.1.4,Win32,59.74786401,628b806c463b948bc644b84f,629af756e151686bcd6f9a91,,,,,,,,,,,,,,,,,,,,,,,,,,,,,,,,,,,,,,,,,,,,,,,,,,,,,,,,,,,,,,,,,,,,,,,,,,,,,,,,,,,,,,,,,,,,,,,,,,,,,,,
,,"[""period""]",0,[0.4630000000000223],48,0,48,0,1,5f83c8f31854ab56a1f68bea,25,Mężczyzna,2022-06-04_08h13.05.124,task,2021.1.4,Win32,59.74786401,628b806c463b948bc644b84f,629af756e151686bcd6f9a91,,,,,,,,,,,,,,,,,,,,,,,,,,,,,,,,,,,,,,,,,,,,,,,,,,,,,,,,,,,,,,,,,,,,,,,,,,,,,,,,,,,,,,,,,,,,,,,,,,,,,,,
,,"[""comma""]",0,[0.4748000001907542],49,0,49,0,1,5f83c8f31854ab56a1f68bea,25,Mężczyzna,2022-06-04_08h13.05.124,task,2021.1.4,Win32,59.74786401,628b806c463b948bc644b84f,629af756e151686bcd6f9a91,,,,,,,,,,,,,,,,,,,,,,,,,,,,,,,,,,,,,,,,,,,,,,,,,,,,,,,,,,,,,,,,,,,,,,,,,,,,,,,,,,,,,,,,,,,,,,,,,,,,,,,
,,"[""comma""]",0,[0.5790999999046278],50,0,50,0,1,5f83c8f31854ab56a1f68bea,25,Mężczyzna,2022-06-04_08h13.05.124,task,2021.1.4,Win32,59.74786401,628b806c463b948bc644b84f,629af756e151686bcd6f9a91,,,,,,,,,,,,,,,,,,,,,,,,,,,,,,,,,,,,,,,,,,,,,,,,,,,,,,,,,,,,,,,,,,,,,,,,,,,,,,,,,,,,,,,,,,,,,,,,,,,,,,,
,,"[""period""]",0,[0.5604000000953704],51,0,51,0,1,5f83c8f31854ab56a1f68bea,25,Mężczyzna,2022-06-04_08h13.05.124,task,2021.1.4,Win32,59.74786401,628b806c463b948bc644b84f,629af756e151686bcd6f9a91,,,,,,,,,,,,,,,,,,,,,,,,,,,,,,,,,,,,,,,,,,,,,,,,,,,,,,,,,,,,,,,,,,,,,,,,,,,,,,,,,,,,,,,,,,,,,,,,,,,,,,,
,,"[""period""]",0,[0.6567000000476924],52,0,52,0,1,5f83c8f31854ab56a1f68bea,25,Mężczyzna,2022-06-04_08h13.05.124,task,2021.1.4,Win32,59.74786401,628b806c463b948bc644b84f,629af756e151686bcd6f9a91,,,,,,,,,,,,,,,,,,,,,,,,,,,,,,,,,,,,,,,,,,,,,,,,,,,,,,,,,,,,,,,,,,,,,,,,,,,,,,,,,,,,,,,,,,,,,,,,,,,,,,,
,,"[""comma""]",0,[0.6026000001430702],53,0,53,0,1,5f83c8f31854ab56a1f68bea,25,Mężczyzna,2022-06-04_08h13.05.124,task,2021.1.4,Win32,59.74786401,628b806c463b948bc644b84f,629af756e151686bcd6f9a91,,,,,,,,,,,,,,,,,,,,,,,,,,,,,,,,,,,,,,,,,,,,,,,,,,,,,,,,,,,,,,,,,,,,,,,,,,,,,,,,,,,,,,,,,,,,,,,,,,,,,,,
,,"[""period""]",0,[0.5037999999522924],54,0,54,0,1,5f83c8f31854ab56a1f68bea,25,Mężczyzna,2022-06-04_08h13.05.124,task,2021.1.4,Win32,59.74786401,628b806c463b948bc644b84f,629af756e151686bcd6f9a91,,,,,,,,,,,,,,,,,,,,,,,,,,,,,,,,,,,,,,,,,,,,,,,,,,,,,,,,,,,,,,,,,,,,,,,,,,,,,,,,,,,,,,,,,,,,,,,,,,,,,,,
,,"[""comma""]",0,[0.3022999999523108],55,0,55,0,1,5f83c8f31854ab56a1f68bea,25,Mężczyzna,2022-06-04_08h13.05.124,task,2021.1.4,Win32,59.74786401,628b806c463b948bc644b84f,629af756e151686bcd6f9a91,,,,,,,,,,,,,,,,,,,,,,,,,,,,,,,,,,,,,,,,,,,,,,,,,,,,,,,,,,,,,,,,,,,,,,,,,,,,,,,,,,,,,,,,,,,,,,,,,,,,,,,
,,"[""period""]",0,[0.3029000000953772],56,0,56,0,1,5f83c8f31854ab56a1f68bea,25,Mężczyzna,2022-06-04_08h13.05.124,task,2021.1.4,Win32,59.74786401,628b806c463b948bc644b84f,629af756e151686bcd6f9a91,,,,,,,,,,,,,,,,,,,,,,,,,,,,,,,,,,,,,,,,,,,,,,,,,,,,,,,,,,,,,,,,,,,,,,,,,,,,,,,,,,,,,,,,,,,,,,,,,,,,,,,
,,"[""comma""]",0,[0.31439999985693134],57,0,57,0,1,5f83c8f31854ab56a1f68bea,25,Mężczyzna,2022-06-04_08h13.05.124,task,2021.1.4,Win32,59.74786401,628b806c463b948bc644b84f,629af756e151686bcd6f9a91,,,,,,,,,,,,,,,,,,,,,,,,,,,,,,,,,,,,,,,,,,,,,,,,,,,,,,,,,,,,,,,,,,,,,,,,,,,,,,,,,,,,,,,,,,,,,,,,,,,,,,,
,,"[""period""]",0,[0.6179000000953749],58,0,58,0,1,5f83c8f31854ab56a1f68bea,25,Mężczyzna,2022-06-04_08h13.05.124,task,2021.1.4,Win32,59.74786401,628b806c463b948bc644b84f,629af756e151686bcd6f9a91,,,,,,,,,,,,,,,,,,,,,,,,,,,,,,,,,,,,,,,,,,,,,,,,,,,,,,,,,,,,,,,,,,,,,,,,,,,,,,,,,,,,,,,,,,,,,,,,,,,,,,,
,,"[""period""]",0,[0.4504999999999768],59,0,59,0,1,5f83c8f31854ab56a1f68bea,25,Mężczyzna,2022-06-04_08h13.05.124,task,2021.1.4,Win32,59.74786401,628b806c463b948bc644b84f,629af756e151686bcd6f9a91,,,,,,,,,,,,,,,,,,,,,,,,,,,,,,,,,,,,,,,,,,,,,,,,,,,,,,,,,,,,,,,,,,,,,,,,,,,,,,,,,,,,,,,,,,,,,,,,,,,,,,,
,,"[""comma""]",0,[0.5257999999523122],60,0,60,0,1,5f83c8f31854ab56a1f68bea,25,Mężczyzna,2022-06-04_08h13.05.124,task,2021.1.4,Win32,59.74786401,628b806c463b948bc644b84f,629af756e151686bcd6f9a91,,,,,,,,,,,,,,,,,,,,,,,,,,,,,,,,,,,,,,,,,,,,,,,,,,,,,,,,,,,,,,,,,,,,,,,,,,,,,,,,,,,,,,,,,,,,,,,,,,,,,,,
,,"[""period""]",0,[0.7703999998569486],61,0,61,0,1,5f83c8f31854ab56a1f68bea,25,Mężczyzna,2022-06-04_08h13.05.124,task,2021.1.4,Win32,59.74786401,628b806c463b948bc644b84f,629af756e151686bcd6f9a91,,,,,,,,,,,,,,,,,,,,,,,,,,,,,,,,,,,,,,,,,,,,,,,,,,,,,,,,,,,,,,,,,,,,,,,,,,,,,,,,,,,,,,,,,,,,,,,,,,,,,,,
,,"[""comma""]",0,[0.680499999999995],62,0,62,0,1,5f83c8f31854ab56a1f68bea,25,Mężczyzna,2022-06-04_08h13.05.124,task,2021.1.4,Win32,59.74786401,628b806c463b948bc644b84f,629af756e151686bcd6f9a91,,,,,,,,,,,,,,,,,,,,,,,,,,,,,,,,,,,,,,,,,,,,,,,,,,,,,,,,,,,,,,,,,,,,,,,,,,,,,,,,,,,,,,,,,,,,,,,,,,,,,,,
,,"[""comma""]",0,[0.7315000000000111],63,0,63,0,1,5f83c8f31854ab56a1f68bea,25,Mężczyzna,2022-06-04_08h13.05.124,task,2021.1.4,Win32,59.74786401,628b806c463b948bc644b84f,629af756e151686bcd6f9a91,,,,,,,,,,,,,,,,,,,,,,,,,,,,,,,,,,,,,,,,,,,,,,,,,,,,,,,,,,,,,,,,,,,,,,,,,,,,,,,,,,,,,,,,,,,,,,,,,,,,,,,
,,"[""period""]",0,[0.6738000001907096],64,0,64,0,1,5f83c8f31854ab56a1f68bea,25,Mężczyzna,2022-06-04_08h13.05.124,task,2021.1.4,Win32,59.74786401,628b806c463b948bc644b84f,629af756e151686bcd6f9a91,,,,,,,,,,,,,,,,,,,,,,,,,,,,,,,,,,,,,,,,,,,,,,,,,,,,,,,,,,,,,,,,,,,,,,,,,,,,,,,,,,,,,,,,,,,,,,,,,,,,,,,
,,"[""comma""]",0,[0.6534000000953597],65,0,65,0,1,5f83c8f31854ab56a1f68bea,25,Mężczyzna,2022-06-04_08h13.05.124,task,2021.1.4,Win32,59.74786401,628b806c463b948bc644b84f,629af756e151686bcd6f9a91,,,,,,,,,,,,,,,,,,,,,,,,,,,,,,,,,,,,,,,,,,,,,,,,,,,,,,,,,,,,,,,,,,,,,,,,,,,,,,,,,,,,,,,,,,,,,,,,,,,,,,,
,,"[""period""]",0,[0.5512000000476576],66,0,66,0,1,5f83c8f31854ab56a1f68bea,25,Mężczyzna,2022-06-04_08h13.05.124,task,2021.1.4,Win32,59.74786401,628b806c463b948bc644b84f,629af756e151686bcd6f9a91,,,,,,,,,,,,,,,,,,,,,,,,,,,,,,,,,,,,,,,,,,,,,,,,,,,,,,,,,,,,,,,,,,,,,,,,,,,,,,,,,,,,,,,,,,,,,,,,,,,,,,,
,,"[""comma""]",0,[0.5267000000476969],67,0,67,0,1,5f83c8f31854ab56a1f68bea,25,Mężczyzna,2022-06-04_08h13.05.124,task,2021.1.4,Win32,59.74786401,628b806c463b948bc644b84f,629af756e151686bcd6f9a91,,,,,,,,,,,,,,,,,,,,,,,,,,,,,,,,,,,,,,,,,,,,,,,,,,,,,,,,,,,,,,,,,,,,,,,,,,,,,,,,,,,,,,,,,,,,,,,,,,,,,,,
,,"[""comma""]",0,[0.3748999998569502],68,0,68,0,1,5f83c8f31854ab56a1f68bea,25,Mężczyzna,2022-06-04_08h13.05.124,task,2021.1.4,Win32,59.74786401,628b806c463b948bc644b84f,629af756e151686bcd6f9a91,,,,,,,,,,,,,,,,,,,,,,,,,,,,,,,,,,,,,,,,,,,,,,,,,,,,,,,,,,,,,,,,,,,,,,,,,,,,,,,,,,,,,,,,,,,,,,,,,,,,,,,
,,"[""period""]",0,[0.5692000000476582],69,0,69,0,1,5f83c8f31854ab56a1f68bea,25,Mężczyzna,2022-06-04_08h13.05.124,task,2021.1.4,Win32,59.74786401,628b806c463b948bc644b84f,629af756e151686bcd6f9a91,,,,,,,,,,,,,,,,,,,,,,,,,,,,,,,,,,,,,,,,,,,,,,,,,,,,,,,,,,,,,,,,,,,,,,,,,,,,,,,,,,,,,,,,,,,,,,,,,,,,,,,
,,"[""comma""]",0,[0.7418999998569689],70,0,70,0,1,5f83c8f31854ab56a1f68bea,25,Mężczyzna,2022-06-04_08h13.05.124,task,2021.1.4,Win32,59.74786401,628b806c463b948bc644b84f,629af756e151686bcd6f9a91,,,,,,,,,,,,,,,,,,,,,,,,,,,,,,,,,,,,,,,,,,,,,,,,,,,,,,,,,,,,,,,,,,,,,,,,,,,,,,,,,,,,,,,,,,,,,,,,,,,,,,,
,,"[""comma""]",0,[0.809300000190774],71,0,71,0,1,5f83c8f31854ab56a1f68bea,25,Mężczyzna,2022-06-04_08h13.05.124,task,2021.1.4,Win32,59.74786401,628b806c463b948bc644b84f,629af756e151686bcd6f9a91,,,,,,,,,,,,,,,,,,,,,,,,,,,,,,,,,,,,,,,,,,,,,,,,,,,,,,,,,,,,,,,,,,,,,,,,,,,,,,,,,,,,,,,,,,,,,,,,,,,,,,,
,,"[""period""]",0,[0.7828999998569657],72,0,72,0,1,5f83c8f31854ab56a1f68bea,25,Mężczyzna,2022-06-04_08h13.05.124,task,2021.1.4,Win32,59.74786401,628b806c463b948bc644b84f,629af756e151686bcd6f9a91,,,,,,,,,,,,,,,,,,,,,,,,,,,,,,,,,,,,,,,,,,,,,,,,,,,,,,,,,,,,,,,,,,,,,,,,,,,,,,,,,,,,,,,,,,,,,,,,,,,,,,,
,,"[""period""]",0,[0.7457999999522826],73,0,73,0,1,5f83c8f31854ab56a1f68bea,25,Mężczyzna,2022-06-04_08h13.05.124,task,2021.1.4,Win32,59.74786401,628b806c463b948bc644b84f,629af756e151686bcd6f9a91,,,,,,,,,,,,,,,,,,,,,,,,,,,,,,,,,,,,,,,,,,,,,,,,,,,,,,,,,,,,,,,,,,,,,,,,,,,,,,,,,,,,,,,,,,,,,,,,,,,,,,,
,,"[""period""]",0,[0.6279000000953374],74,0,74,0,1,5f83c8f31854ab56a1f68bea,25,Mężczyzna,2022-06-04_08h13.05.124,task,2021.1.4,Win32,59.74786401,628b806c463b948bc644b84f,629af756e151686bcd6f9a91,,,,,,,,,,,,,,,,,,,,,,,,,,,,,,,,,,,,,,,,,,,,,,,,,,,,,,,,,,,,,,,,,,,,,,,,,,,,,,,,,,,,,,,,,,,,,,,,,,,,,,,
,,"[""comma""]",0,[0.5020000000000095],75,0,75,0,1,5f83c8f31854ab56a1f68bea,25,Mężczyzna,2022-06-04_08h13.05.124,task,2021.1.4,Win32,59.74786401,628b806c463b948bc644b84f,629af756e151686bcd6f9a91,,,,,,,,,,,,,,,,,,,,,,,,,,,,,,,,,,,,,,,,,,,,,,,,,,,,,,,,,,,,,,,,,,,,,,,,,,,,,,,,,,,,,,,,,,,,,,,,,,,,,,,
,,"[""comma""]",0,[0.6804000000954034],76,0,76,0,1,5f83c8f31854ab56a1f68bea,25,Mężczyzna,2022-06-04_08h13.05.124,task,2021.1.4,Win32,59.74786401,628b806c463b948bc644b84f,629af756e151686bcd6f9a91,,,,,,,,,,,,,,,,,,,,,,,,,,,,,,,,,,,,,,,,,,,,,,,,,,,,,,,,,,,,,,,,,,,,,,,,,,,,,,,,,,,,,,,,,,,,,,,,,,,,,,,
,,"[""period""]",0,[0.7405999999046458],77,0,77,0,1,5f83c8f31854ab56a1f68bea,25,Mężczyzna,2022-06-04_08h13.05.124,task,2021.1.4,Win32,59.74786401,628b806c463b948bc644b84f,629af756e151686bcd6f9a91,,,,,,,,,,,,,,,,,,,,,,,,,,,,,,,,,,,,,,,,,,,,,,,,,,,,,,,,,,,,,,,,,,,,,,,,,,,,,,,,,,,,,,,,,,,,,,,,,,,,,,,
,,"[""comma""]",0,[0.5213000001907062],78,0,78,0,1,5f83c8f31854ab56a1f68bea,25,Mężczyzna,2022-06-04_08h13.05.124,task,2021.1.4,Win32,59.74786401,628b806c463b948bc644b84f,629af756e151686bcd6f9a91,,,,,,,,,,,,,,,,,,,,,,,,,,,,,,,,,,,,,,,,,,,,,,,,,,,,,,,,,,,,,,,,,,,,,,,,,,,,,,,,,,,,,,,,,,,,,,,,,,,,,,,
,,"[""period""]",0,[0.5668999998569575],79,0,79,0,1,5f83c8f31854ab56a1f68bea,25,Mężczyzna,2022-06-04_08h13.05.124,task,2021.1.4,Win32,59.74786401,628b806c463b948bc644b84f,629af756e151686bcd6f9a91,,,,,,,,,,,,,,,,,,,,,,,,,,,,,,,,,,,,,,,,,,,,,,,,,,,,,,,,,,,,,,,,,,,,,,,,,,,,,,,,,,,,,,,,,,,,,,,,,,,,,,,
,,"[""period""]",0,[0.5907999999523099],80,0,80,0,1,5f83c8f31854ab56a1f68bea,25,Mężczyzna,2022-06-04_08h13.05.124,task,2021.1.4,Win32,59.74786401,628b806c463b948bc644b84f,629af756e151686bcd6f9a91,,,,,,,,,,,,,,,,,,,,,,,,,,,,,,,,,,,,,,,,,,,,,,,,,,,,,,,,,,,,,,,,,,,,,,,,,,,,,,,,,,,,,,,,,,,,,,,,,,,,,,,
,,"[""comma""]",0,[0.5648999998569479],81,0,81,0,1,5f83c8f31854ab56a1f68bea,25,Mężczyzna,2022-06-04_08h13.05.124,task,2021.1.4,Win32,59.74786401,628b806c463b948bc644b84f,629af756e151686bcd6f9a91,,,,,,,,,,,,,,,,,,,,,,,,,,,,,,,,,,,,,,,,,,,,,,,,,,,,,,,,,,,,,,,,,,,,,,,,,,,,,,,,,,,,,,,,,,,,,,,,,,,,,,,
,,"[""comma""]",0,[0.5848999998569298],82,0,82,0,1,5f83c8f31854ab56a1f68bea,25,Mężczyzna,2022-06-04_08h13.05.124,task,2021.1.4,Win32,59.74786401,628b806c463b948bc644b84f,629af756e151686bcd6f9a91,,,,,,,,,,,,,,,,,,,,,,,,,,,,,,,,,,,,,,,,,,,,,,,,,,,,,,,,,,,,,,,,,,,,,,,,,,,,,,,,,,,,,,,,,,,,,,,,,,,,,,,
,,"[""period""]",0,[0.6215000000000259],83,0,83,0,1,5f83c8f31854ab56a1f68bea,25,Mężczyzna,2022-06-04_08h13.05.124,task,2021.1.4,Win32,59.74786401,628b806c463b948bc644b84f,629af756e151686bcd6f9a91,,,,,,,,,,,,,,,,,,,,,,,,,,,,,,,,,,,,,,,,,,,,,,,,,,,,,,,,,,,,,,,,,,,,,,,,,,,,,,,,,,,,,,,,,,,,,,,,,,,,,,,
,,"[""comma""]",0,[0.6287999999523208],84,0,84,0,1,5f83c8f31854ab56a1f68bea,25,Mężczyzna,2022-06-04_08h13.05.124,task,2021.1.4,Win32,59.74786401,628b806c463b948bc644b84f,629af756e151686bcd6f9a91,,,,,,,,,,,,,,,,,,,,,,,,,,,,,,,,,,,,,,,,,,,,,,,,,,,,,,,,,,,,,,,,,,,,,,,,,,,,,,,,,,,,,,,,,,,,,,,,,,,,,,,
,,"[""comma""]",0,[0.48599999999999],85,0,85,0,1,5f83c8f31854ab56a1f68bea,25,Mężczyzna,2022-06-04_08h13.05.124,task,2021.1.4,Win32,59.74786401,628b806c463b948bc644b84f,629af756e151686bcd6f9a91,,,,,,,,,,,,,,,,,,,,,,,,,,,,,,,,,,,,,,,,,,,,,,,,,,,,,,,,,,,,,,,,,,,,,,,,,,,,,,,,,,,,,,,,,,,,,,,,,,,,,,,
,,"[""period""]",0,[0.4939000000953797],86,0,86,0,1,5f83c8f31854ab56a1f68bea,25,Mężczyzna,2022-06-04_08h13.05.124,task,2021.1.4,Win32,59.74786401,628b806c463b948bc644b84f,629af756e151686bcd6f9a91,,,,,,,,,,,,,,,,,,,,,,,,,,,,,,,,,,,,,,,,,,,,,,,,,,,,,,,,,,,,,,,,,,,,,,,,,,,,,,,,,,,,,,,,,,,,,,,,,,,,,,,
,,"[""period""]",0,[0.7022000000476964],87,0,87,0,1,5f83c8f31854ab56a1f68bea,25,Mężczyzna,2022-06-04_08h13.05.124,task,2021.1.4,Win32,59.74786401,628b806c463b948bc644b84f,629af756e151686bcd6f9a91,,,,,,,,,,,,,,,,,,,,,,,,,,,,,,,,,,,,,,,,,,,,,,,,,,,,,,,,,,,,,,,,,,,,,,,,,,,,,,,,,,,,,,,,,,,,,,,,,,,,,,,
,,"[""period""]",0,[0.6534000000953597],88,0,88,0,1,5f83c8f31854ab56a1f68bea,25,Mężczyzna,2022-06-04_08h13.05.124,task,2021.1.4,Win32,59.74786401,628b806c463b948bc644b84f,629af756e151686bcd6f9a91,,,,,,,,,,,,,,,,,,,,,,,,,,,,,,,,,,,,,,,,,,,,,,,,,,,,,,,,,,,,,,,,,,,,,,,,,,,,,,,,,,,,,,,,,,,,,,,,,,,,,,,
,,"[""comma""]",0,[0.6496000001430389],89,0,89,0,1,5f83c8f31854ab56a1f68bea,25,Mężczyzna,2022-06-04_08h13.05.124,task,2021.1.4,Win32,59.74786401,628b806c463b948bc644b84f,629af756e151686bcd6f9a91,,,,,,,,,,,,,,,,,,,,,,,,,,,,,,,,,,,,,,,,,,,,,,,,,,,,,,,,,,,,,,,,,,,,,,,,,,,,,,,,,,,,,,,,,,,,,,,,,,,,,,,
,,"[""comma""]",0,[0.6002999999523126],90,0,90,0,1,5f83c8f31854ab56a1f68bea,25,Mężczyzna,2022-06-04_08h13.05.124,task,2021.1.4,Win32,59.74786401,628b806c463b948bc644b84f,629af756e151686bcd6f9a91,,,,,,,,,,,,,,,,,,,,,,,,,,,,,,,,,,,,,,,,,,,,,,,,,,,,,,,,,,,,,,,,,,,,,,,,,,,,,,,,,,,,,,,,,,,,,,,,,,,,,,,
,,"[""period""]",0,[0.24490000009535606],91,0,91,0,1,5f83c8f31854ab56a1f68bea,25,Mężczyzna,2022-06-04_08h13.05.124,task,2021.1.4,Win32,59.74786401,628b806c463b948bc644b84f,629af756e151686bcd6f9a91,,,,,,,,,,,,,,,,,,,,,,,,,,,,,,,,,,,,,,,,,,,,,,,,,,,,,,,,,,,,,,,,,,,,,,,,,,,,,,,,,,,,,,,,,,,,,,,,,,,,,,,
,,"[""comma""]",0,[0.3855000000000359],92,0,92,0,1,5f83c8f31854ab56a1f68bea,25,Mężczyzna,2022-06-04_08h13.05.124,task,2021.1.4,Win32,59.74786401,628b806c463b948bc644b84f,629af756e151686bcd6f9a91,,,,,,,,,,,,,,,,,,,,,,,,,,,,,,,,,,,,,,,,,,,,,,,,,,,,,,,,,,,,,,,,,,,,,,,,,,,,,,,,,,,,,,,,,,,,,,,,,,,,,,,
,,"[""comma""]",0,[0.49370000004768144],93,0,93,0,1,5f83c8f31854ab56a1f68bea,25,Mężczyzna,2022-06-04_08h13.05.124,task,2021.1.4,Win32,59.74786401,628b806c463b948bc644b84f,629af756e151686bcd6f9a91,,,,,,,,,,,,,,,,,,,,,,,,,,,,,,,,,,,,,,,,,,,,,,,,,,,,,,,,,,,,,,,,,,,,,,,,,,,,,,,,,,,,,,,,,,,,,,,,,,,,,,,
,,"[""comma""]",0,[0.5603999998569407],94,0,94,0,1,5f83c8f31854ab56a1f68bea,25,Mężczyzna,2022-06-04_08h13.05.124,task,2021.1.4,Win32,59.74786401,628b806c463b948bc644b84f,629af756e151686bcd6f9a91,,,,,,,,,,,,,,,,,,,,,,,,,,,,,,,,,,,,,,,,,,,,,,,,,,,,,,,,,,,,,,,,,,,,,,,,,,,,,,,,,,,,,,,,,,,,,,,,,,,,,,,
,,"[""period""]",0,[0.5538999998569238],95,0,95,0,1,5f83c8f31854ab56a1f68bea,25,Mężczyzna,2022-06-04_08h13.05.124,task,2021.1.4,Win32,59.74786401,628b806c463b948bc644b84f,629af756e151686bcd6f9a91,,,,,,,,,,,,,,,,,,,,,,,,,,,,,,,,,,,,,,,,,,,,,,,,,,,,,,,,,,,,,,,,,,,,,,,,,,,,,,,,,,,,,,,,,,,,,,,,,,,,,,,
,,"[""period""]",0,[0.5639000000953729],96,0,96,0,1,5f83c8f31854ab56a1f68bea,25,Mężczyzna,2022-06-04_08h13.05.124,task,2021.1.4,Win32,59.74786401,628b806c463b948bc644b84f,629af756e151686bcd6f9a91,,,,,,,,,,,,,,,,,,,,,,,,,,,,,,,,,,,,,,,,,,,,,,,,,,,,,,,,,,,,,,,,,,,,,,,,,,,,,,,,,,,,,,,,,,,,,,,,,,,,,,,
,,"[""comma""]",0,[0.23639999985698523],97,0,97,0,1,5f83c8f31854ab56a1f68bea,25,Mężczyzna,2022-06-04_08h13.05.124,task,2021.1.4,Win32,59.74786401,628b806c463b948bc644b84f,629af756e151686bcd6f9a91,,,,,,,,,,,,,,,,,,,,,,,,,,,,,,,,,,,,,,,,,,,,,,,,,,,,,,,,,,,,,,,,,,,,,,,,,,,,,,,,,,,,,,,,,,,,,,,,,,,,,,,
,,"[""period""]",0,[0.4202000000477142],98,0,98,0,1,5f83c8f31854ab56a1f68bea,25,Mężczyzna,2022-06-04_08h13.05.124,task,2021.1.4,Win32,59.74786401,628b806c463b948bc644b84f,629af756e151686bcd6f9a91,,,,,,,,,,,,,,,,,,,,,,,,,,,,,,,,,,,,,,,,,,,,,,,,,,,,,,,,,,,,,,,,,,,,,,,,,,,,,,,,,,,,,,,,,,,,,,,,,,,,,,,
,,"[""period""]",0,[0.2964000000953888],99,0,99,0,1,5f83c8f31854ab56a1f68bea,25,Mężczyzna,2022-06-04_08h13.05.124,task,2021.1.4,Win32,59.74786401,628b806c463b948bc644b84f,629af756e151686bcd6f9a91,,,,,,,,,,,,,,,,,,,,,,,,,,,,,,,,,,,,,,,,,,,,,,,,,,,,,,,,,,,,,,,,,,,,,,,,,,,,,,,,,,,,,,,,,,,,,,,,,,,,,,,
,,"[""comma""]",0,[0.5307999999523076],100,0,100,0,1,5f83c8f31854ab56a1f68bea,25,Mężczyzna,2022-06-04_08h13.05.124,task,2021.1.4,Win32,59.74786401,628b806c463b948bc644b84f,629af756e151686bcd6f9a91,,,,,,,,,,,,,,,,,,,,,,,,,,,,,,,,,,,,,,,,,,,,,,,,,,,,,,,,,,,,,,,,,,,,,,,,,,,,,,,,,,,,,,,,,,,,,,,,,,,,,,,
,,"[""comma""]",0,[0.7262999999523458],101,0,101,0,1,5f83c8f31854ab56a1f68bea,25,Mężczyzna,2022-06-04_08h13.05.124,task,2021.1.4,Win32,59.74786401,628b806c463b948bc644b84f,629af756e151686bcd6f9a91,,,,,,,,,,,,,,,,,,,,,,,,,,,,,,,,,,,,,,,,,,,,,,,,,,,,,,,,,,,,,,,,,,,,,,,,,,,,,,,,,,,,,,,,,,,,,,,,,,,,,,,
,,"[""comma""]",0,[0.5654999999999859],102,0,102,0,1,5f83c8f31854ab56a1f68bea,25,Mężczyzna,2022-06-04_08h13.05.124,task,2021.1.4,Win32,59.74786401,628b806c463b948bc644b84f,629af756e151686bcd6f9a91,,,,,,,,,,,,,,,,,,,,,,,,,,,,,,,,,,,,,,,,,,,,,,,,,,,,,,,,,,,,,,,,,,,,,,,,,,,,,,,,,,,,,,,,,,,,,,,,,,,,,,,
,,"[""period""]",0,[0.48320000004770236],103,0,103,0,1,5f83c8f31854ab56a1f68bea,25,Mężczyzna,2022-06-04_08h13.05.124,task,2021.1.4,Win32,59.74786401,628b806c463b948bc644b84f,629af756e151686bcd6f9a91,,,,,,,,,,,,,,,,,,,,,,,,,,,,,,,,,,,,,,,,,,,,,,,,,,,,,,,,,,,,,,,,,,,,,,,,,,,,,,,,,,,,,,,,,,,,,,,,,,,,,,,
,,"[""period""]",0,[0.5834000000954234],104,0,104,0,1,5f83c8f31854ab56a1f68bea,25,Mężczyzna,2022-06-04_08h13.05.124,task,2021.1.4,Win32,59.74786401,628b806c463b948bc644b84f,629af756e151686bcd6f9a91,,,,,,,,,,,,,,,,,,,,,,,,,,,,,,,,,,,,,,,,,,,,,,,,,,,,,,,,,,,,,,,,,,,,,,,,,,,,,,,,,,,,,,,,,,,,,,,,,,,,,,,
,,"[""comma""]",0,[0.3182999999523304],105,0,105,0,1,5f83c8f31854ab56a1f68bea,25,Mężczyzna,2022-06-04_08h13.05.124,task,2021.1.4,Win32,59.74786401,628b806c463b948bc644b84f,629af756e151686bcd6f9a91,,,,,,,,,,,,,,,,,,,,,,,,,,,,,,,,,,,,,,,,,,,,,,,,,,,,,,,,,,,,,,,,,,,,,,,,,,,,,,,,,,,,,,,,,,,,,,,,,,,,,,,
,,"[""period""]",0,[0.47269999980926514],106,0,106,0,1,5f83c8f31854ab56a1f68bea,25,Mężczyzna,2022-06-04_08h13.05.124,task,2021.1.4,Win32,59.74786401,628b806c463b948bc644b84f,629af756e151686bcd6f9a91,,,,,,,,,,,,,,,,,,,,,,,,,,,,,,,,,,,,,,,,,,,,,,,,,,,,,,,,,,,,,,,,,,,,,,,,,,,,,,,,,,,,,,,,,,,,,,,,,,,,,,,
,,"[""period""]",0,[0.3527000000476619],107,0,107,0,1,5f83c8f31854ab56a1f68bea,25,Mężczyzna,2022-06-04_08h13.05.124,task,2021.1.4,Win32,59.74786401,628b806c463b948bc644b84f,629af756e151686bcd6f9a91,,,,,,,,,,,,,,,,,,,,,,,,,,,,,,,,,,,,,,,,,,,,,,,,,,,,,,,,,,,,,,,,,,,,,,,,,,,,,,,,,,,,,,,,,,,,,,,,,,,,,,,
,,"[""comma""]",0,[0.34170000004769463],108,0,108,0,1,5f83c8f31854ab56a1f68bea,25,Mężczyzna,2022-06-04_08h13.05.124,task,2021.1.4,Win32,59.74786401,628b806c463b948bc644b84f,629af756e151686bcd6f9a91,,,,,,,,,,,,,,,,,,,,,,,,,,,,,,,,,,,,,,,,,,,,,,,,,,,,,,,,,,,,,,,,,,,,,,,,,,,,,,,,,,,,,,,,,,,,,,,,,,,,,,,
,,"[""comma""]",0,[0.39639999985689656],109,0,109,0,1,5f83c8f31854ab56a1f68bea,25,Mężczyzna,2022-06-04_08h13.05.124,task,2021.1.4,Win32,59.74786401,628b806c463b948bc644b84f,629af756e151686bcd6f9a91,,,,,,,,,,,,,,,,,,,,,,,,,,,,,,,,,,,,,,,,,,,,,,,,,,,,,,,,,,,,,,,,,,,,,,,,,,,,,,,,,,,,,,,,,,,,,,,,,,,,,,,
,,"[""comma""]",0,[0.5361000001430511],110,0,110,0,1,5f83c8f31854ab56a1f68bea,25,Mężczyzna,2022-06-04_08h13.05.124,task,2021.1.4,Win32,59.74786401,628b806c463b948bc644b84f,629af756e151686bcd6f9a91,,,,,,,,,,,,,,,,,,,,,,,,,,,,,,,,,,,,,,,,,,,,,,,,,,,,,,,,,,,,,,,,,,,,,,,,,,,,,,,,,,,,,,,,,,,,,,,,,,,,,,,
,,"[""period""]",0,[0.4837999999522822],111,0,111,0,1,5f83c8f31854ab56a1f68bea,25,Mężczyzna,2022-06-04_08h13.05.124,task,2021.1.4,Win32,59.74786401,628b806c463b948bc644b84f,629af756e151686bcd6f9a91,,,,,,,,,,,,,,,,,,,,,,,,,,,,,,,,,,,,,,,,,,,,,,,,,,,,,,,,,,,,,,,,,,,,,,,,,,,,,,,,,,,,,,,,,,,,,,,,,,,,,,,
,,"[""period""]",0,[0.35860000014304205],112,0,112,0,1,5f83c8f31854ab56a1f68bea,25,Mężczyzna,2022-06-04_08h13.05.124,task,2021.1.4,Win32,59.74786401,628b806c463b948bc644b84f,629af756e151686bcd6f9a91,,,,,,,,,,,,,,,,,,,,,,,,,,,,,,,,,,,,,,,,,,,,,,,,,,,,,,,,,,,,,,,,,,,,,,,,,,,,,,,,,,,,,,,,,,,,,,,,,,,,,,,
,,"[""period""]",0,[0.6245999999046035],113,0,113,0,1,5f83c8f31854ab56a1f68bea,25,Mężczyzna,2022-06-04_08h13.05.124,task,2021.1.4,Win32,59.74786401,628b806c463b948bc644b84f,629af756e151686bcd6f9a91,,,,,,,,,,,,,,,,,,,,,,,,,,,,,,,,,,,,,,,,,,,,,,,,,,,,,,,,,,,,,,,,,,,,,,,,,,,,,,,,,,,,,,,,,,,,,,,,,,,,,,,
,,"[""comma""]",0,[0.6910000000000309],114,0,114,0,1,5f83c8f31854ab56a1f68bea,25,Mężczyzna,2022-06-04_08h13.05.124,task,2021.1.4,Win32,59.74786401,628b806c463b948bc644b84f,629af756e151686bcd6f9a91,,,,,,,,,,,,,,,,,,,,,,,,,,,,,,,,,,,,,,,,,,,,,,,,,,,,,,,,,,,,,,,,,,,,,,,,,,,,,,,,,,,,,,,,,,,,,,,,,,,,,,,
,,"[""period""]",0,[0.5684000000953802],115,0,115,0,1,5f83c8f31854ab56a1f68bea,25,Mężczyzna,2022-06-04_08h13.05.124,task,2021.1.4,Win32,59.74786401,628b806c463b948bc644b84f,629af756e151686bcd6f9a91,,,,,,,,,,,,,,,,,,,,,,,,,,,,,,,,,,,,,,,,,,,,,,,,,,,,,,,,,,,,,,,,,,,,,,,,,,,,,,,,,,,,,,,,,,,,,,,,,,,,,,,
,,"[""comma""]",0,[0.4673999998569798],116,0,116,0,1,5f83c8f31854ab56a1f68bea,25,Mężczyzna,2022-06-04_08h13.05.124,task,2021.1.4,Win32,59.74786401,628b806c463b948bc644b84f,629af756e151686bcd6f9a91,,,,,,,,,,,,,,,,,,,,,,,,,,,,,,,,,,,,,,,,,,,,,,,,,,,,,,,,,,,,,,,,,,,,,,,,,,,,,,,,,,,,,,,,,,,,,,,,,,,,,,,
,,"[""comma""]",0,[0.3464999999999918],117,0,117,0,1,5f83c8f31854ab56a1f68bea,25,Mężczyzna,2022-06-04_08h13.05.124,task,2021.1.4,Win32,59.74786401,628b806c463b948bc644b84f,629af756e151686bcd6f9a91,,,,,,,,,,,,,,,,,,,,,,,,,,,,,,,,,,,,,,,,,,,,,,,,,,,,,,,,,,,,,,,,,,,,,,,,,,,,,,,,,,,,,,,,,,,,,,,,,,,,,,,
,,"[""period""]",0,[0.2857999999523031],118,0,118,0,1,5f83c8f31854ab56a1f68bea,25,Mężczyzna,2022-06-04_08h13.05.124,task,2021.1.4,Win32,59.74786401,628b806c463b948bc644b84f,629af756e151686bcd6f9a91,,,,,,,,,,,,,,,,,,,,,,,,,,,,,,,,,,,,,,,,,,,,,,,,,,,,,,,,,,,,,,,,,,,,,,,,,,,,,,,,,,,,,,,,,,,,,,,,,,,,,,,
,,"[""period""]",0,[0.4810000000000514],119,0,119,0,1,5f83c8f31854ab56a1f68bea,25,Mężczyzna,2022-06-04_08h13.05.124,task,2021.1.4,Win32,59.74786401,628b806c463b948bc644b84f,629af756e151686bcd6f9a91,,,,,,,,,,,,,,,,,,,,,,,,,,,,,,,,,,,,,,,,,,,,,,,,,,,,,,,,,,,,,,,,,,,,,,,,,,,,,,,,,,,,,,,,,,,,,,,,,,,,,,,
,,,,,,,,,,5f83c8f31854ab56a1f68bea,25,Mężczyzna,2022-06-04_08h13.05.124,task,2021.1.4,Win32,59.74786401,628b806c463b948bc644b84f,629af756e151686bcd6f9a91,space,11.0425,space,5.6416,0,0,0,0,1,X V Q F H G B L J M P D K C T S W R N Z,,,,,,,,,,,,,,,,,,,,,,,,,,,,,,,,,,,,,,,,,,,,,,,,,,,,,,,,,,,,,,,,,,,,,,,,,,,,,,,,,,,,,,,,,,,,,
,,,,,,,,,,5f83c8f31854ab56a1f68bea,25,Mężczyzna,2022-06-04_08h13.05.124,task,2021.1.4,Win32,59.74786401,628b806c463b948bc644b84f,629af756e151686bcd6f9a91,,,,,1,0,1,0,1,X V Q F H G B L J M P D K C T S W R N Z,,,,,,,,,,,,,,,,,,,,,,,,,,,,,,,,,,,,,,,,,,,,,,,,,,,,,,,,,,,,,,,,,,,,,,,,,,,,,,,,,,,,,,,,,,,,,
,,,,,,,,,,5f83c8f31854ab56a1f68bea,25,Mężczyzna,2022-06-04_08h13.05.124,task,2021.1.4,Win32,59.74786401,628b806c463b948bc644b84f,629af756e151686bcd6f9a91,,,,,,,,,,,zt,"[""z"",""t""]","[1.6456000001430198,2.075700000047675,2.6651000001430134]",1,ZT,0,0,0,0,1,,,,,,,,,,,,,,,,,,,,,,,,,,,,,,,,,,,,,,,,,,,,,,,,,,,,,,,,,,,,,,,,,,,,,,,,,,,,,,,,,,,
,,,,,,,,,,5f83c8f31854ab56a1f68bea,25,Mężczyzna,2022-06-04_08h13.05.124,task,2021.1.4,Win32,59.74786401,628b806c463b948bc644b84f,629af756e151686bcd6f9a91,,,,,0,0,0,0,1,X V Q F H G B L J M P D K C T S W R N Z,,,,,,,,,,,,,,,,,,,,,,,,,,,,,,,,,,,,,,,,,,,,,,,,,,,,,,,,,,,,,,,,,,,,,,,,,,,,,,,,,,,,,,,,,,,,,
,,,,,,,,,,5f83c8f31854ab56a1f68bea,25,Mężczyzna,2022-06-04_08h13.05.124,task,2021.1.4,Win32,59.74786401,628b806c463b948bc644b84f,629af756e151686bcd6f9a91,,,,,1,0,1,0,1,X V Q F H G B L J M P D K C T S W R N Z,,,,,,,,,,,,,,,,,,,,,,,,,,,,,,,,,,,,,,,,,,,,,,,,,,,,,,,,,,,,,,,,,,,,,,,,,,,,,,,,,,,,,,,,,,,,,
,,,,,,,,,,5f83c8f31854ab56a1f68bea,25,Mężczyzna,2022-06-04_08h13.05.124,task,2021.1.4,Win32,59.74786401,628b806c463b948bc644b84f,629af756e151686bcd6f9a91,,,,,,,,,,,gf,"[""g"",""f""]","[0.6219000000953656,0.7787000000476496,1.2835999999046521]",1,GF,1,0,1,0,1,,,,,,,,,,,,,,,,,,,,,,,,,,,,,,,,,,,,,,,,,,,,,,,,,,,,,,,,,,,,,,,,,,,,,,,,,,,,,,,,,,,
,,,,,,,,,,5f83c8f31854ab56a1f68bea,25,Mężczyzna,2022-06-04_08h13.05.124,task,2021.1.4,Win32,59.74786401,628b806c463b948bc644b84f,629af756e151686bcd6f9a91,,,,,0,0,0,0,1,X V Q F H G B L J M P D K C T S W R N Z,,,,,,,,,,,,,,,,,,,,,,,,,,,,,,,,,,,,,,,,,,,,,,,,,,,,,,,,,,,,,,,,,,,,,,,,,,,,,,,,,,,,,,,,,,,,,
,,,,,,,,,,5f83c8f31854ab56a1f68bea,25,Mężczyzna,2022-06-04_08h13.05.124,task,2021.1.4,Win32,59.74786401,628b806c463b948bc644b84f,629af756e151686bcd6f9a91,,,,,1,0,1,0,1,X V Q F H G B L J M P D K C T S W R N Z,,,,,,,,,,,,,,,,,,,,,,,,,,,,,,,,,,,,,,,,,,,,,,,,,,,,,,,,,,,,,,,,,,,,,,,,,,,,,,,,,,,,,,,,,,,,,
,,,,,,,,,,5f83c8f31854ab56a1f68bea,25,Mężczyzna,2022-06-04_08h13.05.124,task,2021.1.4,Win32,59.74786401,628b806c463b948bc644b84f,629af756e151686bcd6f9a91,,,,,2,0,2,0,1,X V Q F H G B L J M P D K C T S W R N Z,,,,,,,,,,,,,,,,,,,,,,,,,,,,,,,,,,,,,,,,,,,,,,,,,,,,,,,,,,,,,,,,,,,,,,,,,,,,,,,,,,,,,,,,,,,,,
,,,,,,,,,,5f83c8f31854ab56a1f68bea,25,Mężczyzna,2022-06-04_08h13.05.124,task,2021.1.4,Win32,59.74786401,628b806c463b948bc644b84f,629af756e151686bcd6f9a91,,,,,,,,,,,xvl,"[""x"",""v"",""l""]","[0.6434000000953688,0.9677999999523195,1.1412000000477178,1.538000000000011]",1,XVL,2,0,2,0,1,,,,,,,,,,,,,,,,,,,,,,,,,,,,,,,,,,,,,,,,,,,,,,,,,,,,,,,,,,,,,,,,,,,,,,,,,,,,,,,,,,,
,,,,,,,,,,5f83c8f31854ab56a1f68bea,25,Mężczyzna,2022-06-04_08h13.05.124,task,2021.1.4,Win32,59.74786401,628b806c463b948bc644b84f,629af756e151686bcd6f9a91,,,,,0,0,0,0,1,X V Q F H G B L J M P D K C T S W R N Z,,,,,,,,,,,,,,,,,,,,,,,,,,,,,,,,,,,,,,,,,,,,,,,,,,,,,,,,,,,,,,,,,,,,,,,,,,,,,,,,,,,,,,,,,,,,,
,,,,,,,,,,5f83c8f31854ab56a1f68bea,25,Mężczyzna,2022-06-04_08h13.05.124,task,2021.1.4,Win32,59.74786401,628b806c463b948bc644b84f,629af756e151686bcd6f9a91,,,,,1,0,1,0,1,X V Q F H G B L J M P D K C T S W R N Z,,,,,,,,,,,,,,,,,,,,,,,,,,,,,,,,,,,,,,,,,,,,,,,,,,,,,,,,,,,,,,,,,,,,,,,,,,,,,,,,,,,,,,,,,,,,,
,,,,,,,,,,5f83c8f31854ab56a1f68bea,25,Mężczyzna,2022-06-04_08h13.05.124,task,2021.1.4,Win32,59.74786401,628b806c463b948bc644b84f,629af756e151686bcd6f9a91,,,,,2,0,2,0,1,X V Q F H G B L J M P D K C T S W R N Z,,,,,,,,,,,,,,,,,,,,,,,,,,,,,,,,,,,,,,,,,,,,,,,,,,,,,,,,,,,,,,,,,,,,,,,,,,,,,,,,,,,,,,,,,,,,,
,,,,,,,,,,5f83c8f31854ab56a1f68bea,25,Mężczyzna,2022-06-04_08h13.05.124,task,2021.1.4,Win32,59.74786401,628b806c463b948bc644b84f,629af756e151686bcd6f9a91,,,,,,,,,,,vvr,"[""v"",""v"",""r""]","[0.6129999999999995,0.8291999998092479,1.1687999999522845,1.6206999998092328]",1,VVR,3,0,3,0,1,,,,,,,,,,,,,,,,,,,,,,,,,,,,,,,,,,,,,,,,,,,,,,,,,,,,,,,,,,,,,,,,,,,,,,,,,,,,,,,,,,,
,,,,,,,,,,5f83c8f31854ab56a1f68bea,25,Mężczyzna,2022-06-04_08h13.05.124,task,2021.1.4,Win32,59.74786401,628b806c463b948bc644b84f,629af756e151686bcd6f9a91,,,,,0,0,0,0,1,X V Q F H G B L J M P D K C T S W R N Z,,,,,,,,,,,,,,,,,,,,,,,,,,,,,,,,,,,,,,,,,,,,,,,,,,,,,,,,,,,,,,,,,,,,,,,,,,,,,,,,,,,,,,,,,,,,,
,,,,,,,,,,5f83c8f31854ab56a1f68bea,25,Mężczyzna,2022-06-04_08h13.05.124,task,2021.1.4,Win32,59.74786401,628b806c463b948bc644b84f,629af756e151686bcd6f9a91,,,,,1,0,1,0,1,X V Q F H G B L J M P D K C T S W R N Z,,,,,,,,,,,,,,,,,,,,,,,,,,,,,,,,,,,,,,,,,,,,,,,,,,,,,,,,,,,,,,,,,,,,,,,,,,,,,,,,,,,,,,,,,,,,,
,,,,,,,,,,5f83c8f31854ab56a1f68bea,25,Mężczyzna,2022-06-04_08h13.05.124,task,2021.1.4,Win32,59.74786401,628b806c463b948bc644b84f,629af756e151686bcd6f9a91,,,,,2,0,2,0,1,X V Q F H G B L J M P D K C T S W R N Z,,,,,,,,,,,,,,,,,,,,,,,,,,,,,,,,,,,,,,,,,,,,,,,,,,,,,,,,,,,,,,,,,,,,,,,,,,,,,,,,,,,,,,,,,,,,,
,,,,,,,,,,5f83c8f31854ab56a1f68bea,25,Mężczyzna,2022-06-04_08h13.05.124,task,2021.1.4,Win32,59.74786401,628b806c463b948bc644b84f,629af756e151686bcd6f9a91,,,,,3,0,3,0,1,X V Q F H G B L J M P D K C T S W R N Z,,,,,,,,,,,,,,,,,,,,,,,,,,,,,,,,,,,,,,,,,,,,,,,,,,,,,,,,,,,,,,,,,,,,,,,,,,,,,,,,,,,,,,,,,,,,,
,,,,,,,,,,5f83c8f31854ab56a1f68bea,25,Mężczyzna,2022-06-04_08h13.05.124,task,2021.1.4,Win32,59.74786401,628b806c463b948bc644b84f,629af756e151686bcd6f9a91,,,,,,,,,,,rkxl,"[""r"",""k"",""x"",""l""]","[0.6071999998092679,1.1996999998092974,1.4161999998092938,1.7488999998569739,1.9768999998569825]",1,RKXL,4,0,4,0,1,,,,,,,,,,,,,,,,,,,,,,,,,,,,,,,,,,,,,,,,,,,,,,,,,,,,,,,,,,,,,,,,,,,,,,,,,,,,,,,,,,,
,,,,,,,,,,5f83c8f31854ab56a1f68bea,25,Mężczyzna,2022-06-04_08h13.05.124,task,2021.1.4,Win32,59.74786401,628b806c463b948bc644b84f,629af756e151686bcd6f9a91,,,,,0,0,0,0,1,X V Q F H G B L J M P D K C T S W R N Z,,,,,,,,,,,,,,,,,,,,,,,,,,,,,,,,,,,,,,,,,,,,,,,,,,,,,,,,,,,,,,,,,,,,,,,,,,,,,,,,,,,,,,,,,,,,,
,,,,,,,,,,5f83c8f31854ab56a1f68bea,25,Mężczyzna,2022-06-04_08h13.05.124,task,2021.1.4,Win32,59.74786401,628b806c463b948bc644b84f,629af756e151686bcd6f9a91,,,,,1,0,1,0,1,X V Q F H G B L J M P D K C T S W R N Z,,,,,,,,,,,,,,,,,,,,,,,,,,,,,,,,,,,,,,,,,,,,,,,,,,,,,,,,,,,,,,,,,,,,,,,,,,,,,,,,,,,,,,,,,,,,,
,,,,,,,,,,5f83c8f31854ab56a1f68bea,25,Mężczyzna,2022-06-04_08h13.05.124,task,2021.1.4,Win32,59.74786401,628b806c463b948bc644b84f,629af756e151686bcd6f9a91,,,,,2,0,2,0,1,X V Q F H G B L J M P D K C T S W R N Z,,,,,,,,,,,,,,,,,,,,,,,,,,,,,,,,,,,,,,,,,,,,,,,,,,,,,,,,,,,,,,,,,,,,,,,,,,,,,,,,,,,,,,,,,,,,,
,,,,,,,,,,5f83c8f31854ab56a1f68bea,25,Mężczyzna,2022-06-04_08h13.05.124,task,2021.1.4,Win32,59.74786401,628b806c463b948bc644b84f,629af756e151686bcd6f9a91,,,,,3,0,3,0,1,X V Q F H G B L J M P D K C T S W R N Z,,,,,,,,,,,,,,,,,,,,,,,,,,,,,,,,,,,,,,,,,,,,,,,,,,,,,,,,,,,,,,,,,,,,,,,,,,,,,,,,,,,,,,,,,,,,,
,,,,,,,,,,5f83c8f31854ab56a1f68bea,25,Mężczyzna,2022-06-04_08h13.05.124,task,2021.1.4,Win32,59.74786401,628b806c463b948bc644b84f,629af756e151686bcd6f9a91,,,,,,,,,,,gkcn,"[""g"",""k"",""c"",""n""]","[1.016400000095416,1.221200000047702,1.4152999999523672,1.5732999999523258,1.8352999999523263]",1,GKCN,5,0,5,0,1,,,,,,,,,,,,,,,,,,,,,,,,,,,,,,,,,,,,,,,,,,,,,,,,,,,,,,,,,,,,,,,,,,,,,,,,,,,,,,,,,,,
,,,,,,,,,,5f83c8f31854ab56a1f68bea,25,Mężczyzna,2022-06-04_08h13.05.124,task,2021.1.4,Win32,59.74786401,628b806c463b948bc644b84f,629af756e151686bcd6f9a91,,,,,0,0,0,0,1,X V Q F H G B L J M P D K C T S W R N Z,,,,,,,,,,,,,,,,,,,,,,,,,,,,,,,,,,,,,,,,,,,,,,,,,,,,,,,,,,,,,,,,,,,,,,,,,,,,,,,,,,,,,,,,,,,,,
,,,,,,,,,,5f83c8f31854ab56a1f68bea,25,Mężczyzna,2022-06-04_08h13.05.124,task,2021.1.4,Win32,59.74786401,628b806c463b948bc644b84f,629af756e151686bcd6f9a91,,,,,1,0,1,0,1,X V Q F H G B L J M P D K C T S W R N Z,,,,,,,,,,,,,,,,,,,,,,,,,,,,,,,,,,,,,,,,,,,,,,,,,,,,,,,,,,,,,,,,,,,,,,,,,,,,,,,,,,,,,,,,,,,,,
,,,,,,,,,,5f83c8f31854ab56a1f68bea,25,Mężczyzna,2022-06-04_08h13.05.124,task,2021.1.4,Win32,59.74786401,628b806c463b948bc644b84f,629af756e151686bcd6f9a91,,,,,2,0,2,0,1,X V Q F H G B L J M P D K C T S W R N Z,,,,,,,,,,,,,,,,,,,,,,,,,,,,,,,,,,,,,,,,,,,,,,,,,,,,,,,,,,,,,,,,,,,,,,,,,,,,,,,,,,,,,,,,,,,,,
,,,,,,,,,,5f83c8f31854ab56a1f68bea,25,Mężczyzna,2022-06-04_08h13.05.124,task,2021.1.4,Win32,59.74786401,628b806c463b948bc644b84f,629af756e151686bcd6f9a91,,,,,3,0,3,0,1,X V Q F H G B L J M P D K C T S W R N Z,,,,,,,,,,,,,,,,,,,,,,,,,,,,,,,,,,,,,,,,,,,,,,,,,,,,,,,,,,,,,,,,,,,,,,,,,,,,,,,,,,,,,,,,,,,,,
,,,,,,,,,,5f83c8f31854ab56a1f68bea,25,Mężczyzna,2022-06-04_08h13.05.124,task,2021.1.4,Win32,59.74786401,628b806c463b948bc644b84f,629af756e151686bcd6f9a91,,,,,4,0,4,0,1,X V Q F H G B L J M P D K C T S W R N Z,,,,,,,,,,,,,,,,,,,,,,,,,,,,,,,,,,,,,,,,,,,,,,,,,,,,,,,,,,,,,,,,,,,,,,,,,,,,,,,,,,,,,,,,,,,,,
,,,,,,,,,,5f83c8f31854ab56a1f68bea,25,Mężczyzna,2022-06-04_08h13.05.124,task,2021.1.4,Win32,59.74786401,628b806c463b948bc644b84f,629af756e151686bcd6f9a91,,,,,,,,,,,ljqmv,"[""l"",""j"",""q"",""m"",""v""]","[0.6407999999523213,0.932700000047646,1.1489000000953524,1.3687000000476814,1.7074999999999818,2.06279999995229]",1,LJQMV,6,0,6,0,1,,,,,,,,,,,,,,,,,,,,,,,,,,,,,,,,,,,,,,,,,,,,,,,,,,,,,,,,,,,,,,,,,,,,,,,,,,,,,,,,,,,
,,,,,,,,,,5f83c8f31854ab56a1f68bea,25,Mężczyzna,2022-06-04_08h13.05.124,task,2021.1.4,Win32,59.74786401,628b806c463b948bc644b84f,629af756e151686bcd6f9a91,,,,,0,0,0,0,1,X V Q F H G B L J M P D K C T S W R N Z,,,,,,,,,,,,,,,,,,,,,,,,,,,,,,,,,,,,,,,,,,,,,,,,,,,,,,,,,,,,,,,,,,,,,,,,,,,,,,,,,,,,,,,,,,,,,
,,,,,,,,,,5f83c8f31854ab56a1f68bea,25,Mężczyzna,2022-06-04_08h13.05.124,task,2021.1.4,Win32,59.74786401,628b806c463b948bc644b84f,629af756e151686bcd6f9a91,,,,,1,0,1,0,1,X V Q F H G B L J M P D K C T S W R N Z,,,,,,,,,,,,,,,,,,,,,,,,,,,,,,,,,,,,,,,,,,,,,,,,,,,,,,,,,,,,,,,,,,,,,,,,,,,,,,,,,,,,,,,,,,,,,
,,,,,,,,,,5f83c8f31854ab56a1f68bea,25,Mężczyzna,2022-06-04_08h13.05.124,task,2021.1.4,Win32,59.74786401,628b806c463b948bc644b84f,629af756e151686bcd6f9a91,,,,,2,0,2,0,1,X V Q F H G B L J M P D K C T S W R N Z,,,,,,,,,,,,,,,,,,,,,,,,,,,,,,,,,,,,,,,,,,,,,,,,,,,,,,,,,,,,,,,,,,,,,,,,,,,,,,,,,,,,,,,,,,,,,
,,,,,,,,,,5f83c8f31854ab56a1f68bea,25,Mężczyzna,2022-06-04_08h13.05.124,task,2021.1.4,Win32,59.74786401,628b806c463b948bc644b84f,629af756e151686bcd6f9a91,,,,,3,0,3,0,1,X V Q F H G B L J M P D K C T S W R N Z,,,,,,,,,,,,,,,,,,,,,,,,,,,,,,,,,,,,,,,,,,,,,,,,,,,,,,,,,,,,,,,,,,,,,,,,,,,,,,,,,,,,,,,,,,,,,
,,,,,,,,,,5f83c8f31854ab56a1f68bea,25,Mężczyzna,2022-06-04_08h13.05.124,task,2021.1.4,Win32,59.74786401,628b806c463b948bc644b84f,629af756e151686bcd6f9a91,,,,,4,0,4,0,1,X V Q F H G B L J M P D K C T S W R N Z,,,,,,,,,,,,,,,,,,,,,,,,,,,,,,,,,,,,,,,,,,,,,,,,,,,,,,,,,,,,,,,,,,,,,,,,,,,,,,,,,,,,,,,,,,,,,
,,,,,,,,,,5f83c8f31854ab56a1f68bea,25,Mężczyzna,2022-06-04_08h13.05.124,task,2021.1.4,Win32,59.74786401,628b806c463b948bc644b84f,629af756e151686bcd6f9a91,,,,,,,,,,,rdpvx,"[""r"",""d"",""p"",""v"",""x""]","[0.6139999999999759,0.8510999999046476,1.0459999999999923,1.3238999998569625,1.6066999998092797,1.9603999998569748]",1,RDPVX,7,0,7,0,1,,,,,,,,,,,,,,,,,,,,,,,,,,,,,,,,,,,,,,,,,,,,,,,,,,,,,,,,,,,,,,,,,,,,,,,,,,,,,,,,,,,
,,,,,,,,,,5f83c8f31854ab56a1f68bea,25,Mężczyzna,2022-06-04_08h13.05.124,task,2021.1.4,Win32,59.74786401,628b806c463b948bc644b84f,629af756e151686bcd6f9a91,,,,,0,0,0,0,1,X V Q F H G B L J M P D K C T S W R N Z,,,,,,,,,,,,,,,,,,,,,,,,,,,,,,,,,,,,,,,,,,,,,,,,,,,,,,,,,,,,,,,,,,,,,,,,,,,,,,,,,,,,,,,,,,,,,
,,,,,,,,,,5f83c8f31854ab56a1f68bea,25,Mężczyzna,2022-06-04_08h13.05.124,task,2021.1.4,Win32,59.74786401,628b806c463b948bc644b84f,629af756e151686bcd6f9a91,,,,,1,0,1,0,1,X V Q F H G B L J M P D K C T S W R N Z,,,,,,,,,,,,,,,,,,,,,,,,,,,,,,,,,,,,,,,,,,,,,,,,,,,,,,,,,,,,,,,,,,,,,,,,,,,,,,,,,,,,,,,,,,,,,
,,,,,,,,,,5f83c8f31854ab56a1f68bea,25,Mężczyzna,2022-06-04_08h13.05.124,task,2021.1.4,Win32,59.74786401,628b806c463b948bc644b84f,629af756e151686bcd6f9a91,,,,,2,0,2,0,1,X V Q F H G B L J M P D K C T S W R N Z,,,,,,,,,,,,,,,,,,,,,,,,,,,,,,,,,,,,,,,,,,,,,,,,,,,,,,,,,,,,,,,,,,,,,,,,,,,,,,,,,,,,,,,,,,,,,
,,,,,,,,,,5f83c8f31854ab56a1f68bea,25,Mężczyzna,2022-06-04_08h13.05.124,task,2021.1.4,Win32,59.74786401,628b806c463b948bc644b84f,629af756e151686bcd6f9a91,,,,,3,0,3,0,1,X V Q F H G B L J M P D K C T S W R N Z,,,,,,,,,,,,,,,,,,,,,,,,,,,,,,,,,,,,,,,,,,,,,,,,,,,,,,,,,,,,,,,,,,,,,,,,,,,,,,,,,,,,,,,,,,,,,
,,,,,,,,,,5f83c8f31854ab56a1f68bea,25,Mężczyzna,2022-06-04_08h13.05.124,task,2021.1.4,Win32,59.74786401,628b806c463b948bc644b84f,629af756e151686bcd6f9a91,,,,,4,0,4,0,1,X V Q F H G B L J M P D K C T S W R N Z,,,,,,,,,,,,,,,,,,,,,,,,,,,,,,,,,,,,,,,,,,,,,,,,,,,,,,,,,,,,,,,,,,,,,,,,,,,,,,,,,,,,,,,,,,,,,
,,,,,,,,,,5f83c8f31854ab56a1f68bea,25,Mężczyzna,2022-06-04_08h13.05.124,task,2021.1.4,Win32,59.74786401,628b806c463b948bc644b84f,629af756e151686bcd6f9a91,,,,,5,0,5,0,1,X V Q F H G B L J M P D K C T S W R N Z,,,,,,,,,,,,,,,,,,,,,,,,,,,,,,,,,,,,,,,,,,,,,,,,,,,,,,,,,,,,,,,,,,,,,,,,,,,,,,,,,,,,,,,,,,,,,
,,,,,,,,,,5f83c8f31854ab56a1f68bea,25,Mężczyzna,2022-06-04_08h13.05.124,task,2021.1.4,Win32,59.74786401,628b806c463b948bc644b84f,629af756e151686bcd6f9a91,,,,,,,,,,,cjsggt,"[""c"",""j"",""s"",""g"",""g"",""t""]","[0.5401000001430134,0.7139000000953502,0.8987999999523026,1.1992000000476537,1.350999999999999,1.5824999999999818,1.8747000000476532]",1,CJSGGT,8,0,8,0,1,,,,,,,,,,,,,,,,,,,,,,,,,,,,,,,,,,,,,,,,,,,,,,,,,,,,,,,,,,,,,,,,,,,,,,,,,,,,,,,,,,,
,,,,,,,,,,5f83c8f31854ab56a1f68bea,25,Mężczyzna,2022-06-04_08h13.05.124,task,2021.1.4,Win32,59.74786401,628b806c463b948bc644b84f,629af756e151686bcd6f9a91,,,,,0,0,0,0,1,X V Q F H G B L J M P D K C T S W R N Z,,,,,,,,,,,,,,,,,,,,,,,,,,,,,,,,,,,,,,,,,,,,,,,,,,,,,,,,,,,,,,,,,,,,,,,,,,,,,,,,,,,,,,,,,,,,,
,,,,,,,,,,5f83c8f31854ab56a1f68bea,25,Mężczyzna,2022-06-04_08h13.05.124,task,2021.1.4,Win32,59.74786401,628b806c463b948bc644b84f,629af756e151686bcd6f9a91,,,,,1,0,1,0,1,X V Q F H G B L J M P D K C T S W R N Z,,,,,,,,,,,,,,,,,,,,,,,,,,,,,,,,,,,,,,,,,,,,,,,,,,,,,,,,,,,,,,,,,,,,,,,,,,,,,,,,,,,,,,,,,,,,,
,,,,,,,,,,5f83c8f31854ab56a1f68bea,25,Mężczyzna,2022-06-04_08h13.05.124,task,2021.1.4,Win32,59.74786401,628b806c463b948bc644b84f,629af756e151686bcd6f9a91,,,,,2,0,2,0,1,X V Q F H G B L J M P D K C T S W R N Z,,,,,,,,,,,,,,,,,,,,,,,,,,,,,,,,,,,,,,,,,,,,,,,,,,,,,,,,,,,,,,,,,,,,,,,,,,,,,,,,,,,,,,,,,,,,,
,,,,,,,,,,5f83c8f31854ab56a1f68bea,25,Mężczyzna,2022-06-04_08h13.05.124,task,2021.1.4,Win32,59.74786401,628b806c463b948bc644b84f,629af756e151686bcd6f9a91,,,,,3,0,3,0,1,X V Q F H G B L J M P D K C T S W R N Z,,,,,,,,,,,,,,,,,,,,,,,,,,,,,,,,,,,,,,,,,,,,,,,,,,,,,,,,,,,,,,,,,,,,,,,,,,,,,,,,,,,,,,,,,,,,,
,,,,,,,,,,5f83c8f31854ab56a1f68bea,25,Mężczyzna,2022-06-04_08h13.05.124,task,2021.1.4,Win32,59.74786401,628b806c463b948bc644b84f,629af756e151686bcd6f9a91,,,,,4,0,4,0,1,X V Q F H G B L J M P D K C T S W R N Z,,,,,,,,,,,,,,,,,,,,,,,,,,,,,,,,,,,,,,,,,,,,,,,,,,,,,,,,,,,,,,,,,,,,,,,,,,,,,,,,,,,,,,,,,,,,,
,,,,,,,,,,5f83c8f31854ab56a1f68bea,25,Mężczyzna,2022-06-04_08h13.05.124,task,2021.1.4,Win32,59.74786401,628b806c463b948bc644b84f,629af756e151686bcd6f9a91,,,,,5,0,5,0,1,X V Q F H G B L J M P D K C T S W R N Z,,,,,,,,,,,,,,,,,,,,,,,,,,,,,,,,,,,,,,,,,,,,,,,,,,,,,,,,,,,,,,,,,,,,,,,,,,,,,,,,,,,,,,,,,,,,,
,,,,,,,,,,5f83c8f31854ab56a1f68bea,25,Mężczyzna,2022-06-04_08h13.05.124,task,2021.1.4,Win32,59.74786401,628b806c463b948bc644b84f,629af756e151686bcd6f9a91,,,,,,,,,,,gxvcmn,"[""g"",""x"",""v"",""c"",""m"",""n""]","[0.7880000000000109,1.2427999999523536,1.8017999999523227,2.012400000095397,2.3842999999523045,2.5815000000000055,2.955799999952319]",1,GXVCMN,9,0,9,0,1,,,,,,,,,,,,,,,,,,,,,,,,,,,,,,,,,,,,,,,,,,,,,,,,,,,,,,,,,,,,,,,,,,,,,,,,,,,,,,,,,,,
,,,,,,,,,,5f83c8f31854ab56a1f68bea,25,Mężczyzna,2022-06-04_08h13.05.124,task,2021.1.4,Win32,59.74786401,628b806c463b948bc644b84f,629af756e151686bcd6f9a91,,,,,0,0,0,0,1,X V Q F H G B L J M P D K C T S W R N Z,,,,,,,,,,,,,,,,,,,,,,,,,,,,,,,,,,,,,,,,,,,,,,,,,,,,,,,,,,,,,,,,,,,,,,,,,,,,,,,,,,,,,,,,,,,,,
,,,,,,,,,,5f83c8f31854ab56a1f68bea,25,Mężczyzna,2022-06-04_08h13.05.124,task,2021.1.4,Win32,59.74786401,628b806c463b948bc644b84f,629af756e151686bcd6f9a91,,,,,1,0,1,0,1,X V Q F H G B L J M P D K C T S W R N Z,,,,,,,,,,,,,,,,,,,,,,,,,,,,,,,,,,,,,,,,,,,,,,,,,,,,,,,,,,,,,,,,,,,,,,,,,,,,,,,,,,,,,,,,,,,,,
,,,,,,,,,,5f83c8f31854ab56a1f68bea,25,Mężczyzna,2022-06-04_08h13.05.124,task,2021.1.4,Win32,59.74786401,628b806c463b948bc644b84f,629af756e151686bcd6f9a91,,,,,2,0,2,0,1,X V Q F H G B L J M P D K C T S W R N Z,,,,,,,,,,,,,,,,,,,,,,,,,,,,,,,,,,,,,,,,,,,,,,,,,,,,,,,,,,,,,,,,,,,,,,,,,,,,,,,,,,,,,,,,,,,,,
,,,,,,,,,,5f83c8f31854ab56a1f68bea,25,Mężczyzna,2022-06-04_08h13.05.124,task,2021.1.4,Win32,59.74786401,628b806c463b948bc644b84f,629af756e151686bcd6f9a91,,,,,3,0,3,0,1,X V Q F H G B L J M P D K C T S W R N Z,,,,,,,,,,,,,,,,,,,,,,,,,,,,,,,,,,,,,,,,,,,,,,,,,,,,,,,,,,,,,,,,,,,,,,,,,,,,,,,,,,,,,,,,,,,,,
,,,,,,,,,,5f83c8f31854ab56a1f68bea,25,Mężczyzna,2022-06-04_08h13.05.124,task,2021.1.4,Win32,59.74786401,628b806c463b948bc644b84f,629af756e151686bcd6f9a91,,,,,4,0,4,0,1,X V Q F H G B L J M P D K C T S W R N Z,,,,,,,,,,,,,,,,,,,,,,,,,,,,,,,,,,,,,,,,,,,,,,,,,,,,,,,,,,,,,,,,,,,,,,,,,,,,,,,,,,,,,,,,,,,,,
,,,,,,,,,,5f83c8f31854ab56a1f68bea,25,Mężczyzna,2022-06-04_08h13.05.124,task,2021.1.4,Win32,59.74786401,628b806c463b948bc644b84f,629af756e151686bcd6f9a91,,,,,5,0,5,0,1,X V Q F H G B L J M P D K C T S W R N Z,,,,,,,,,,,,,,,,,,,,,,,,,,,,,,,,,,,,,,,,,,,,,,,,,,,,,,,,,,,,,,,,,,,,,,,,,,,,,,,,,,,,,,,,,,,,,
,,,,,,,,,,5f83c8f31854ab56a1f68bea,25,Mężczyzna,2022-06-04_08h13.05.124,task,2021.1.4,Win32,59.74786401,628b806c463b948bc644b84f,629af756e151686bcd6f9a91,,,,,6,0,6,0,1,X V Q F H G B L J M P D K C T S W R N Z,,,,,,,,,,,,,,,,,,,,,,,,,,,,,,,,,,,,,,,,,,,,,,,,,,,,,,,,,,,,,,,,,,,,,,,,,,,,,,,,,,,,,,,,,,,,,
,,,,,,,,,,5f83c8f31854ab56a1f68bea,25,Mężczyzna,2022-06-04_08h13.05.124,task,2021.1.4,Win32,59.74786401,628b806c463b948bc644b84f,629af756e151686bcd6f9a91,,,,,,,,,,,zqzzbsg,"[""z"",""q"",""z"",""z"",""b"",""s"",""g""]","[0.4650999999046235,0.6730000000000018,0.8941999998092456,1.0366999998092297,1.4214999999999804,1.7896999998092724,2.0833999998569652,2.4737999999522913]",1,ZQZZBSG,10,0,10,0,1,,,,,,,,,,,,,,,,,,,,,,,,,,,,,,,,,,,,,,,,,,,,,,,,,,,,,,,,,,,,,,,,,,,,,,,,,,,,,,,,,,,
,,,,,,,,,,5f83c8f31854ab56a1f68bea,25,Mężczyzna,2022-06-04_08h13.05.124,task,2021.1.4,Win32,59.74786401,628b806c463b948bc644b84f,629af756e151686bcd6f9a91,,,,,0,0,0,0,1,X V Q F H G B L J M P D K C T S W R N Z,,,,,,,,,,,,,,,,,,,,,,,,,,,,,,,,,,,,,,,,,,,,,,,,,,,,,,,,,,,,,,,,,,,,,,,,,,,,,,,,,,,,,,,,,,,,,
,,,,,,,,,,5f83c8f31854ab56a1f68bea,25,Mężczyzna,2022-06-04_08h13.05.124,task,2021.1.4,Win32,59.74786401,628b806c463b948bc644b84f,629af756e151686bcd6f9a91,,,,,1,0,1,0,1,X V Q F H G B L J M P D K C T S W R N Z,,,,,,,,,,,,,,,,,,,,,,,,,,,,,,,,,,,,,,,,,,,,,,,,,,,,,,,,,,,,,,,,,,,,,,,,,,,,,,,,,,,,,,,,,,,,,
,,,,,,,,,,5f83c8f31854ab56a1f68bea,25,Mężczyzna,2022-06-04_08h13.05.124,task,2021.1.4,Win32,59.74786401,628b806c463b948bc644b84f,629af756e151686bcd6f9a91,,,,,2,0,2,0,1,X V Q F H G B L J M P D K C T S W R N Z,,,,,,,,,,,,,,,,,,,,,,,,,,,,,,,,,,,,,,,,,,,,,,,,,,,,,,,,,,,,,,,,,,,,,,,,,,,,,,,,,,,,,,,,,,,,,
,,,,,,,,,,5f83c8f31854ab56a1f68bea,25,Mężczyzna,2022-06-04_08h13.05.124,task,2021.1.4,Win32,59.74786401,628b806c463b948bc644b84f,629af756e151686bcd6f9a91,,,,,3,0,3,0,1,X V Q F H G B L J M P D K C T S W R N Z,,,,,,,,,,,,,,,,,,,,,,,,,,,,,,,,,,,,,,,,,,,,,,,,,,,,,,,,,,,,,,,,,,,,,,,,,,,,,,,,,,,,,,,,,,,,,
,,,,,,,,,,5f83c8f31854ab56a1f68bea,25,Mężczyzna,2022-06-04_08h13.05.124,task,2021.1.4,Win32,59.74786401,628b806c463b948bc644b84f,629af756e151686bcd6f9a91,,,,,4,0,4,0,1,X V Q F H G B L J M P D K C T S W R N Z,,,,,,,,,,,,,,,,,,,,,,,,,,,,,,,,,,,,,,,,,,,,,,,,,,,,,,,,,,,,,,,,,,,,,,,,,,,,,,,,,,,,,,,,,,,,,
,,,,,,,,,,5f83c8f31854ab56a1f68bea,25,Mężczyzna,2022-06-04_08h13.05.124,task,2021.1.4,Win32,59.74786401,628b806c463b948bc644b84f,629af756e151686bcd6f9a91,,,,,5,0,5,0,1,X V Q F H G B L J M P D K C T S W R N Z,,,,,,,,,,,,,,,,,,,,,,,,,,,,,,,,,,,,,,,,,,,,,,,,,,,,,,,,,,,,,,,,,,,,,,,,,,,,,,,,,,,,,,,,,,,,,
,,,,,,,,,,5f83c8f31854ab56a1f68bea,25,Mężczyzna,2022-06-04_08h13.05.124,task,2021.1.4,Win32,59.74786401,628b806c463b948bc644b84f,629af756e151686bcd6f9a91,,,,,6,0,6,0,1,X V Q F H G B L J M P D K C T S W R N Z,,,,,,,,,,,,,,,,,,,,,,,,,,,,,,,,,,,,,,,,,,,,,,,,,,,,,,,,,,,,,,,,,,,,,,,,,,,,,,,,,,,,,,,,,,,,,
,,,,,,,,,,5f83c8f31854ab56a1f68bea,25,Mężczyzna,2022-06-04_08h13.05.124,task,2021.1.4,Win32,59.74786401,628b806c463b948bc644b84f,629af756e151686bcd6f9a91,,,,,,,,,,,nwwgspz,"[""n"",""w"",""w"",""g"",""s"",""p"",""z""]","[0.7742000000476992,1.130400000095392,1.2921000001430798,1.5734000000953756,1.8500000000000227,2.177500000000009,2.354300000190733,2.5893000001907467]",1,NWWGSPZ,11,0,11,0,1,,,,,,,,,,,,,,,,,,,,,,,,,,,,,,,,,,,,,,,,,,,,,,,,,,,,,,,,,,,,,,,,,,,,,,,,,,,,,,,,,,,
,,,,,,,,,,5f83c8f31854ab56a1f68bea,25,Mężczyzna,2022-06-04_08h13.05.124,task,2021.1.4,Win32,59.74786401,628b806c463b948bc644b84f,629af756e151686bcd6f9a91,,,,,0,0,0,0,1,X V Q F H G B L J M P D K C T S W R N Z,,,,,,,,,,,,,,,,,,,,,,,,,,,,,,,,,,,,,,,,,,,,,,,,,,,,,,,,,,,,,,,,,,,,,,,,,,,,,,,,,,,,,,,,,,,,,
,,,,,,,,,,5f83c8f31854ab56a1f68bea,25,Mężczyzna,2022-06-04_08h13.05.124,task,2021.1.4,Win32,59.74786401,628b806c463b948bc644b84f,629af756e151686bcd6f9a91,,,,,1,0,1,0,1,X V Q F H G B L J M P D K C T S W R N Z,,,,,,,,,,,,,,,,,,,,,,,,,,,,,,,,,,,,,,,,,,,,,,,,,,,,,,,,,,,,,,,,,,,,,,,,,,,,,,,,,,,,,,,,,,,,,
,,,,,,,,,,5f83c8f31854ab56a1f68bea,25,Mężczyzna,2022-06-04_08h13.05.124,task,2021.1.4,Win32,59.74786401,628b806c463b948bc644b84f,629af756e151686bcd6f9a91,,,,,2,0,2,0,1,X V Q F H G B L J M P D K C T S W R N Z,,,,,,,,,,,,,,,,,,,,,,,,,,,,,,,,,,,,,,,,,,,,,,,,,,,,,,,,,,,,,,,,,,,,,,,,,,,,,,,,,,,,,,,,,,,,,
,,,,,,,,,,5f83c8f31854ab56a1f68bea,25,Mężczyzna,2022-06-04_08h13.05.124,task,2021.1.4,Win32,59.74786401,628b806c463b948bc644b84f,629af756e151686bcd6f9a91,,,,,3,0,3,0,1,X V Q F H G B L J M P D K C T S W R N Z,,,,,,,,,,,,,,,,,,,,,,,,,,,,,,,,,,,,,,,,,,,,,,,,,,,,,,,,,,,,,,,,,,,,,,,,,,,,,,,,,,,,,,,,,,,,,
,,,,,,,,,,5f83c8f31854ab56a1f68bea,25,Mężczyzna,2022-06-04_08h13.05.124,task,2021.1.4,Win32,59.74786401,628b806c463b948bc644b84f,629af756e151686bcd6f9a91,,,,,4,0,4,0,1,X V Q F H G B L J M P D K C T S W R N Z,,,,,,,,,,,,,,,,,,,,,,,,,,,,,,,,,,,,,,,,,,,,,,,,,,,,,,,,,,,,,,,,,,,,,,,,,,,,,,,,,,,,,,,,,,,,,
,,,,,,,,,,5f83c8f31854ab56a1f68bea,25,Mężczyzna,2022-06-04_08h13.05.124,task,2021.1.4,Win32,59.74786401,628b806c463b948bc644b84f,629af756e151686bcd6f9a91,,,,,5,0,5,0,1,X V Q F H G B L J M P D K C T S W R N Z,,,,,,,,,,,,,,,,,,,,,,,,,,,,,,,,,,,,,,,,,,,,,,,,,,,,,,,,,,,,,,,,,,,,,,,,,,,,,,,,,,,,,,,,,,,,,
,,,,,,,,,,5f83c8f31854ab56a1f68bea,25,Mężczyzna,2022-06-04_08h13.05.124,task,2021.1.4,Win32,59.74786401,628b806c463b948bc644b84f,629af756e151686bcd6f9a91,,,,,6,0,6,0,1,X V Q F H G B L J M P D K C T S W R N Z,,,,,,,,,,,,,,,,,,,,,,,,,,,,,,,,,,,,,,,,,,,,,,,,,,,,,,,,,,,,,,,,,,,,,,,,,,,,,,,,,,,,,,,,,,,,,
,,,,,,,,,,5f83c8f31854ab56a1f68bea,25,Mężczyzna,2022-06-04_08h13.05.124,task,2021.1.4,Win32,59.74786401,628b806c463b948bc644b84f,629af756e151686bcd6f9a91,,,,,7,0,7,0,1,X V Q F H G B L J M P D K C T S W R N Z,,,,,,,,,,,,,,,,,,,,,,,,,,,,,,,,,,,,,,,,,,,,,,,,,,,,,,,,,,,,,,,,,,,,,,,,,,,,,,,,,,,,,,,,,,,,,
,,,,,,,,,,5f83c8f31854ab56a1f68bea,25,Mężczyzna,2022-06-04_08h13.05.124,task,2021.1.4,Win32,59.74786401,628b806c463b948bc644b84f,629af756e151686bcd6f9a91,,,,,,,,,,,lwgqnqqw,"[""l"",""w"",""g"",""q"",""n"",""q"",""q"",""w""]","[0.3896999998092383,0.5977999999523149,1.217099999904633,1.7828999998569088,2.710599999904616,2.9636999998092506,3.0986999998092415,3.518599999904609,4.015299999952276]",0,LWNQQWWR,12,0,12,0,1,,,,,,,,,,,,,,,,,,,,,,,,,,,,,,,,,,,,,,,,,,,,,,,,,,,,,,,,,,,,,,,,,,,,,,,,,,,,,,,,,,,
,,,,,,,,,,5f83c8f31854ab56a1f68bea,25,Mężczyzna,2022-06-04_08h13.05.124,task,2021.1.4,Win32,59.74786401,628b806c463b948bc644b84f,629af756e151686bcd6f9a91,,,,,0,0,0,0,1,X V Q F H G B L J M P D K C T S W R N Z,,,,,,,,,,,,,,,,,,,,,,,,,,,,,,,,,,,,,,,,,,,,,,,,,,,,,,,,,,,,,,,,,,,,,,,,,,,,,,,,,,,,,,,,,,,,,
,,,,,,,,,,5f83c8f31854ab56a1f68bea,25,Mężczyzna,2022-06-04_08h13.05.124,task,2021.1.4,Win32,59.74786401,628b806c463b948bc644b84f,629af756e151686bcd6f9a91,,,,,1,0,1,0,1,X V Q F H G B L J M P D K C T S W R N Z,,,,,,,,,,,,,,,,,,,,,,,,,,,,,,,,,,,,,,,,,,,,,,,,,,,,,,,,,,,,,,,,,,,,,,,,,,,,,,,,,,,,,,,,,,,,,
,,,,,,,,,,5f83c8f31854ab56a1f68bea,25,Mężczyzna,2022-06-04_08h13.05.124,task,2021.1.4,Win32,59.74786401,628b806c463b948bc644b84f,629af756e151686bcd6f9a91,,,,,2,0,2,0,1,X V Q F H G B L J M P D K C T S W R N Z,,,,,,,,,,,,,,,,,,,,,,,,,,,,,,,,,,,,,,,,,,,,,,,,,,,,,,,,,,,,,,,,,,,,,,,,,,,,,,,,,,,,,,,,,,,,,
,,,,,,,,,,5f83c8f31854ab56a1f68bea,25,Mężczyzna,2022-06-04_08h13.05.124,task,2021.1.4,Win32,59.74786401,628b806c463b948bc644b84f,629af756e151686bcd6f9a91,,,,,3,0,3,0,1,X V Q F H G B L J M P D K C T S W R N Z,,,,,,,,,,,,,,,,,,,,,,,,,,,,,,,,,,,,,,,,,,,,,,,,,,,,,,,,,,,,,,,,,,,,,,,,,,,,,,,,,,,,,,,,,,,,,
,,,,,,,,,,5f83c8f31854ab56a1f68bea,25,Mężczyzna,2022-06-04_08h13.05.124,task,2021.1.4,Win32,59.74786401,628b806c463b948bc644b84f,629af756e151686bcd6f9a91,,,,,4,0,4,0,1,X V Q F H G B L J M P D K C T S W R N Z,,,,,,,,,,,,,,,,,,,,,,,,,,,,,,,,,,,,,,,,,,,,,,,,,,,,,,,,,,,,,,,,,,,,,,,,,,,,,,,,,,,,,,,,,,,,,
,,,,,,,,,,5f83c8f31854ab56a1f68bea,25,Mężczyzna,2022-06-04_08h13.05.124,task,2021.1.4,Win32,59.74786401,628b806c463b948bc644b84f,629af756e151686bcd6f9a91,,,,,5,0,5,0,1,X V Q F H G B L J M P D K C T S W R N Z,,,,,,,,,,,,,,,,,,,,,,,,,,,,,,,,,,,,,,,,,,,,,,,,,,,,,,,,,,,,,,,,,,,,,,,,,,,,,,,,,,,,,,,,,,,,,
,,,,,,,,,,5f83c8f31854ab56a1f68bea,25,Mężczyzna,2022-06-04_08h13.05.124,task,2021.1.4,Win32,59.74786401,628b806c463b948bc644b84f,629af756e151686bcd6f9a91,,,,,6,0,6,0,1,X V Q F H G B L J M P D K C T S W R N Z,,,,,,,,,,,,,,,,,,,,,,,,,,,,,,,,,,,,,,,,,,,,,,,,,,,,,,,,,,,,,,,,,,,,,,,,,,,,,,,,,,,,,,,,,,,,,
,,,,,,,,,,5f83c8f31854ab56a1f68bea,25,Mężczyzna,2022-06-04_08h13.05.124,task,2021.1.4,Win32,59.74786401,628b806c463b948bc644b84f,629af756e151686bcd6f9a91,,,,,7,0,7,0,1,X V Q F H G B L J M P D K C T S W R N Z,,,,,,,,,,,,,,,,,,,,,,,,,,,,,,,,,,,,,,,,,,,,,,,,,,,,,,,,,,,,,,,,,,,,,,,,,,,,,,,,,,,,,,,,,,,,,
,,,,,,,,,,5f83c8f31854ab56a1f68bea,25,Mężczyzna,2022-06-04_08h13.05.124,task,2021.1.4,Win32,59.74786401,628b806c463b948bc644b84f,629af756e151686bcd6f9a91,,,,,,,,,,,tfqzrwhj,"[""t"",""f"",""q"",""z"",""r"",""w"",""h"",""j""]","[0.766700000047706,1.1281000001430357,1.5,2.280200000047671,2.8032000000476955,2.981700000047681,3.75,3.9334000000953893,4.3489999999999895]",1,TFQZRWHJ,13,0,13,0,1,,,,,,,,,,,,,,,,,,,,,,,,,,,,,,,,,,,,,,,,,,,,,,,,,,,,,,,,,,,,,,,,,,,,,,,,,,,,,,,,,,,
,,,,,,,,,,5f83c8f31854ab56a1f68bea,25,Mężczyzna,2022-06-04_08h13.05.124,task,2021.1.4,Win32,59.74786401,628b806c463b948bc644b84f,629af756e151686bcd6f9a91,,,,,0,0,0,0,1,X V Q F H G B L J M P D K C T S W R N Z,,,,,,,,,,,,,,,,,,,,,,,,,,,,,,,,,,,,,,,,,,,,,,,,,,,,,,,,,,,,,,,,,,,,,,,,,,,,,,,,,,,,,,,,,,,,,
,,,,,,,,,,5f83c8f31854ab56a1f68bea,25,Mężczyzna,2022-06-04_08h13.05.124,task,2021.1.4,Win32,59.74786401,628b806c463b948bc644b84f,629af756e151686bcd6f9a91,,,,,1,0,1,0,1,X V Q F H G B L J M P D K C T S W R N Z,,,,,,,,,,,,,,,,,,,,,,,,,,,,,,,,,,,,,,,,,,,,,,,,,,,,,,,,,,,,,,,,,,,,,,,,,,,,,,,,,,,,,,,,,,,,,
,,,,,,,,,,5f83c8f31854ab56a1f68bea,25,Mężczyzna,2022-06-04_08h13.05.124,task,2021.1.4,Win32,59.74786401,628b806c463b948bc644b84f,629af756e151686bcd6f9a91,,,,,2,0,2,0,1,X V Q F H G B L J M P D K C T S W R N Z,,,,,,,,,,,,,,,,,,,,,,,,,,,,,,,,,,,,,,,,,,,,,,,,,,,,,,,,,,,,,,,,,,,,,,,,,,,,,,,,,,,,,,,,,,,,,
,,,,,,,,,,5f83c8f31854ab56a1f68bea,25,Mężczyzna,2022-06-04_08h13.05.124,task,2021.1.4,Win32,59.74786401,628b806c463b948bc644b84f,629af756e151686bcd6f9a91,,,,,3,0,3,0,1,X V Q F H G B L J M P D K C T S W R N Z,,,,,,,,,,,,,,,,,,,,,,,,,,,,,,,,,,,,,,,,,,,,,,,,,,,,,,,,,,,,,,,,,,,,,,,,,,,,,,,,,,,,,,,,,,,,,
,,,,,,,,,,5f83c8f31854ab56a1f68bea,25,Mężczyzna,2022-06-04_08h13.05.124,task,2021.1.4,Win32,59.74786401,628b806c463b948bc644b84f,629af756e151686bcd6f9a91,,,,,4,0,4,0,1,X V Q F H G B L J M P D K C T S W R N Z,,,,,,,,,,,,,,,,,,,,,,,,,,,,,,,,,,,,,,,,,,,,,,,,,,,,,,,,,,,,,,,,,,,,,,,,,,,,,,,,,,,,,,,,,,,,,
,,,,,,,,,,5f83c8f31854ab56a1f68bea,25,Mężczyzna,2022-06-04_08h13.05.124,task,2021.1.4,Win32,59.74786401,628b806c463b948bc644b84f,629af756e151686bcd6f9a91,,,,,5,0,5,0,1,X V Q F H G B L J M P D K C T S W R N Z,,,,,,,,,,,,,,,,,,,,,,,,,,,,,,,,,,,,,,,,,,,,,,,,,,,,,,,,,,,,,,,,,,,,,,,,,,,,,,,,,,,,,,,,,,,,,
,,,,,,,,,,5f83c8f31854ab56a1f68bea,25,Mężczyzna,2022-06-04_08h13.05.124,task,2021.1.4,Win32,59.74786401,628b806c463b948bc644b84f,629af756e151686bcd6f9a91,,,,,6,0,6,0,1,X V Q F H G B L J M P D K C T S W R N Z,,,,,,,,,,,,,,,,,,,,,,,,,,,,,,,,,,,,,,,,,,,,,,,,,,,,,,,,,,,,,,,,,,,,,,,,,,,,,,,,,,,,,,,,,,,,,
,,,,,,,,,,5f83c8f31854ab56a1f68bea,25,Mężczyzna,2022-06-04_08h13.05.124,task,2021.1.4,Win32,59.74786401,628b806c463b948bc644b84f,629af756e151686bcd6f9a91,,,,,7,0,7,0,1,X V Q F H G B L J M P D K C T S W R N Z,,,,,,,,,,,,,,,,,,,,,,,,,,,,,,,,,,,,,,,,,,,,,,,,,,,,,,,,,,,,,,,,,,,,,,,,,,,,,,,,,,,,,,,,,,,,,
,,,,,,,,,,5f83c8f31854ab56a1f68bea,25,Mężczyzna,2022-06-04_08h13.05.124,task,2021.1.4,Win32,59.74786401,628b806c463b948bc644b84f,629af756e151686bcd6f9a91,,,,,,,,,,,rxvvqdpx,"[""r"",""x"",""v"",""v"",""q"",""d"",""p"",""x""]","[0.6967000000475991,0.9235999999045816,1.151099999904659,1.282599999904619,2.56279999995229,3.1805999999046435,3.282799999952317,3.467099999904576,3.991700000047672]",1,RXVVQDPX,14,0,14,0,1,,,,,,,,,,,,,,,,,,,,,,,,,,,,,,,,,,,,,,,,,,,,,,,,,,,,,,,,,,,,,,,,,,,,,,,,,,,,,,,,,,,
,,,,,,,,,,5f83c8f31854ab56a1f68bea,25,Mężczyzna,2022-06-04_08h13.05.124,task,2021.1.4,Win32,59.74786401,628b806c463b948bc644b84f,629af756e151686bcd6f9a91,,,,,0,0,0,0,1,X V Q F H G B L J M P D K C T S W R N Z,,,,,,,,,,,,,,,,,,,,,,,,,,,,,,,,,,,,,,,,,,,,,,,,,,,,,,,,,,,,,,,,,,,,,,,,,,,,,,,,,,,,,,,,,,,,,
,,,,,,,,,,5f83c8f31854ab56a1f68bea,25,Mężczyzna,2022-06-04_08h13.05.124,task,2021.1.4,Win32,59.74786401,628b806c463b948bc644b84f,629af756e151686bcd6f9a91,,,,,1,0,1,0,1,X V Q F H G B L J M P D K C T S W R N Z,,,,,,,,,,,,,,,,,,,,,,,,,,,,,,,,,,,,,,,,,,,,,,,,,,,,,,,,,,,,,,,,,,,,,,,,,,,,,,,,,,,,,,,,,,,,,
,,,,,,,,,,5f83c8f31854ab56a1f68bea,25,Mężczyzna,2022-06-04_08h13.05.124,task,2021.1.4,Win32,59.74786401,628b806c463b948bc644b84f,629af756e151686bcd6f9a91,,,,,2,0,2,0,1,X V Q F H G B L J M P D K C T S W R N Z,,,,,,,,,,,,,,,,,,,,,,,,,,,,,,,,,,,,,,,,,,,,,,,,,,,,,,,,,,,,,,,,,,,,,,,,,,,,,,,,,,,,,,,,,,,,,
,,,,,,,,,,5f83c8f31854ab56a1f68bea,25,Mężczyzna,2022-06-04_08h13.05.124,task,2021.1.4,Win32,59.74786401,628b806c463b948bc644b84f,629af756e151686bcd6f9a91,,,,,3,0,3,0,1,X V Q F H G B L J M P D K C T S W R N Z,,,,,,,,,,,,,,,,,,,,,,,,,,,,,,,,,,,,,,,,,,,,,,,,,,,,,,,,,,,,,,,,,,,,,,,,,,,,,,,,,,,,,,,,,,,,,
,,,,,,,,,,5f83c8f31854ab56a1f68bea,25,Mężczyzna,2022-06-04_08h13.05.124,task,2021.1.4,Win32,59.74786401,628b806c463b948bc644b84f,629af756e151686bcd6f9a91,,,,,4,0,4,0,1,X V Q F H G B L J M P D K C T S W R N Z,,,,,,,,,,,,,,,,,,,,,,,,,,,,,,,,,,,,,,,,,,,,,,,,,,,,,,,,,,,,,,,,,,,,,,,,,,,,,,,,,,,,,,,,,,,,,
,,,,,,,,,,5f83c8f31854ab56a1f68bea,25,Mężczyzna,2022-06-04_08h13.05.124,task,2021.1.4,Win32,59.74786401,628b806c463b948bc644b84f,629af756e151686bcd6f9a91,,,,,5,0,5,0,1,X V Q F H G B L J M P D K C T S W R N Z,,,,,,,,,,,,,,,,,,,,,,,,,,,,,,,,,,,,,,,,,,,,,,,,,,,,,,,,,,,,,,,,,,,,,,,,,,,,,,,,,,,,,,,,,,,,,
,,,,,,,,,,5f83c8f31854ab56a1f68bea,25,Mężczyzna,2022-06-04_08h13.05.124,task,2021.1.4,Win32,59.74786401,628b806c463b948bc644b84f,629af756e151686bcd6f9a91,,,,,6,0,6,0,1,X V Q F H G B L J M P D K C T S W R N Z,,,,,,,,,,,,,,,,,,,,,,,,,,,,,,,,,,,,,,,,,,,,,,,,,,,,,,,,,,,,,,,,,,,,,,,,,,,,,,,,,,,,,,,,,,,,,
,,,,,,,,,,5f83c8f31854ab56a1f68bea,25,Mężczyzna,2022-06-04_08h13.05.124,task,2021.1.4,Win32,59.74786401,628b806c463b948bc644b84f,629af756e151686bcd6f9a91,,,,,7,0,7,0,1,X V Q F H G B L J M P D K C T S W R N Z,,,,,,,,,,,,,,,,,,,,,,,,,,,,,,,,,,,,,,,,,,,,,,,,,,,,,,,,,,,,,,,,,,,,,,,,,,,,,,,,,,,,,,,,,,,,,
,,,,,,,,,,5f83c8f31854ab56a1f68bea,25,Mężczyzna,2022-06-04_08h13.05.124,task,2021.1.4,Win32,59.74786401,628b806c463b948bc644b84f,629af756e151686bcd6f9a91,,,,,8,0,8,0,1,X V Q F H G B L J M P D K C T S W R N Z,,,,,,,,,,,,,,,,,,,,,,,,,,,,,,,,,,,,,,,,,,,,,,,,,,,,,,,,,,,,,,,,,,,,,,,,,,,,,,,,,,,,,,,,,,,,,
,,,,,,,,,,5f83c8f31854ab56a1f68bea,25,Mężczyzna,2022-06-04_08h13.05.124,task,2021.1.4,Win32,59.74786401,628b806c463b948bc644b84f,629af756e151686bcd6f9a91,,,,,,,,,,,vkmkhdpll,"[""v"",""k"",""m"",""k"",""h"",""d"",""p"",""l"",""l""]","[1.2089000000953547,1.331900000095402,1.565800000190734,3.0508000001907476,4.233999999999924,4.495499999999993,4.61749999999995,4.810100000143052,7.383100000143031,8.026600000143048]",0,VKMKHDPLV,15,0,15,0,1,,,,,,,,,,,,,,,,,,,,,,,,,,,,,,,,,,,,,,,,,,,,,,,,,,,,,,,,,,,,,,,,,,,,,,,,,,,,,,,,,,,
,,,,,,,,,,5f83c8f31854ab56a1f68bea,25,Mężczyzna,2022-06-04_08h13.05.124,task,2021.1.4,Win32,59.74786401,628b806c463b948bc644b84f,629af756e151686bcd6f9a91,,,,,0,0,0,0,1,X V Q F H G B L J M P D K C T S W R N Z,,,,,,,,,,,,,,,,,,,,,,,,,,,,,,,,,,,,,,,,,,,,,,,,,,,,,,,,,,,,,,,,,,,,,,,,,,,,,,,,,,,,,,,,,,,,,
,,,,,,,,,,5f83c8f31854ab56a1f68bea,25,Mężczyzna,2022-06-04_08h13.05.124,task,2021.1.4,Win32,59.74786401,628b806c463b948bc644b84f,629af756e151686bcd6f9a91,,,,,1,0,1,0,1,X V Q F H G B L J M P D K C T S W R N Z,,,,,,,,,,,,,,,,,,,,,,,,,,,,,,,,,,,,,,,,,,,,,,,,,,,,,,,,,,,,,,,,,,,,,,,,,,,,,,,,,,,,,,,,,,,,,
,,,,,,,,,,5f83c8f31854ab56a1f68bea,25,Mężczyzna,2022-06-04_08h13.05.124,task,2021.1.4,Win32,59.74786401,628b806c463b948bc644b84f,629af756e151686bcd6f9a91,,,,,2,0,2,0,1,X V Q F H G B L J M P D K C T S W R N Z,,,,,,,,,,,,,,,,,,,,,,,,,,,,,,,,,,,,,,,,,,,,,,,,,,,,,,,,,,,,,,,,,,,,,,,,,,,,,,,,,,,,,,,,,,,,,
,,,,,,,,,,5f83c8f31854ab56a1f68bea,25,Mężczyzna,2022-06-04_08h13.05.124,task,2021.1.4,Win32,59.74786401,628b806c463b948bc644b84f,629af756e151686bcd6f9a91,,,,,3,0,3,0,1,X V Q F H G B L J M P D K C T S W R N Z,,,,,,,,,,,,,,,,,,,,,,,,,,,,,,,,,,,,,,,,,,,,,,,,,,,,,,,,,,,,,,,,,,,,,,,,,,,,,,,,,,,,,,,,,,,,,
,,,,,,,,,,5f83c8f31854ab56a1f68bea,25,Mężczyzna,2022-06-04_08h13.05.124,task,2021.1.4,Win32,59.74786401,628b806c463b948bc644b84f,629af756e151686bcd6f9a91,,,,,4,0,4,0,1,X V Q F H G B L J M P D K C T S W R N Z,,,,,,,,,,,,,,,,,,,,,,,,,,,,,,,,,,,,,,,,,,,,,,,,,,,,,,,,,,,,,,,,,,,,,,,,,,,,,,,,,,,,,,,,,,,,,
,,,,,,,,,,5f83c8f31854ab56a1f68bea,25,Mężczyzna,2022-06-04_08h13.05.124,task,2021.1.4,Win32,59.74786401,628b806c463b948bc644b84f,629af756e151686bcd6f9a91,,,,,5,0,5,0,1,X V Q F H G B L J M P D K C T S W R N Z,,,,,,,,,,,,,,,,,,,,,,,,,,,,,,,,,,,,,,,,,,,,,,,,,,,,,,,,,,,,,,,,,,,,,,,,,,,,,,,,,,,,,,,,,,,,,
,,,,,,,,,,5f83c8f31854ab56a1f68bea,25,Mężczyzna,2022-06-04_08h13.05.124,task,2021.1.4,Win32,59.74786401,628b806c463b948bc644b84f,629af756e151686bcd6f9a91,,,,,6,0,6,0,1,X V Q F H G B L J M P D K C T S W R N Z,,,,,,,,,,,,,,,,,,,,,,,,,,,,,,,,,,,,,,,,,,,,,,,,,,,,,,,,,,,,,,,,,,,,,,,,,,,,,,,,,,,,,,,,,,,,,
,,,,,,,,,,5f83c8f31854ab56a1f68bea,25,Mężczyzna,2022-06-04_08h13.05.124,task,2021.1.4,Win32,59.74786401,628b806c463b948bc644b84f,629af756e151686bcd6f9a91,,,,,7,0,7,0,1,X V Q F H G B L J M P D K C T S W R N Z,,,,,,,,,,,,,,,,,,,,,,,,,,,,,,,,,,,,,,,,,,,,,,,,,,,,,,,,,,,,,,,,,,,,,,,,,,,,,,,,,,,,,,,,,,,,,
,,,,,,,,,,5f83c8f31854ab56a1f68bea,25,Mężczyzna,2022-06-04_08h13.05.124,task,2021.1.4,Win32,59.74786401,628b806c463b948bc644b84f,629af756e151686bcd6f9a91,,,,,8,0,8,0,1,X V Q F H G B L J M P D K C T S W R N Z,,,,,,,,,,,,,,,,,,,,,,,,,,,,,,,,,,,,,,,,,,,,,,,,,,,,,,,,,,,,,,,,,,,,,,,,,,,,,,,,,,,,,,,,,,,,,
,,,,,,,,,,5f83c8f31854ab56a1f68bea,25,Mężczyzna,2022-06-04_08h13.05.124,task,2021.1.4,Win32,59.74786401,628b806c463b948bc644b84f,629af756e151686bcd6f9a91,,,,,,,,,,,kskpmvpqf,"[""k"",""s"",""k"",""p"",""m"",""v"",""p"",""q"",""f""]","[0.5523000001907121,0.8229000000953874,0.9530000000000882,1.1612000000477565,1.5231000001431312,1.7445000000000164,1.8875000000000455,2.705200000047739,3.2482000000477456,4.836999999999989]",1,KSKPMVPQF,16,0,16,0,1,,,,,,,,,,,,,,,,,,,,,,,,,,,,,,,,,,,,,,,,,,,,,,,,,,,,,,,,,,,,,,,,,,,,,,,,,,,,,,,,,,,
,,,,,,,,,,5f83c8f31854ab56a1f68bea,25,Mężczyzna,2022-06-04_08h13.05.124,task,2021.1.4,Win32,59.74786401,628b806c463b948bc644b84f,629af756e151686bcd6f9a91,,,,,0,0,0,0,1,X V Q F H G B L J M P D K C T S W R N Z,,,,,,,,,,,,,,,,,,,,,,,,,,,,,,,,,,,,,,,,,,,,,,,,,,,,,,,,,,,,,,,,,,,,,,,,,,,,,,,,,,,,,,,,,,,,,
,,,,,,,,,,5f83c8f31854ab56a1f68bea,25,Mężczyzna,2022-06-04_08h13.05.124,task,2021.1.4,Win32,59.74786401,628b806c463b948bc644b84f,629af756e151686bcd6f9a91,,,,,1,0,1,0,1,X V Q F H G B L J M P D K C T S W R N Z,,,,,,,,,,,,,,,,,,,,,,,,,,,,,,,,,,,,,,,,,,,,,,,,,,,,,,,,,,,,,,,,,,,,,,,,,,,,,,,,,,,,,,,,,,,,,
,,,,,,,,,,5f83c8f31854ab56a1f68bea,25,Mężczyzna,2022-06-04_08h13.05.124,task,2021.1.4,Win32,59.74786401,628b806c463b948bc644b84f,629af756e151686bcd6f9a91,,,,,2,0,2,0,1,X V Q F H G B L J M P D K C T S W R N Z,,,,,,,,,,,,,,,,,,,,,,,,,,,,,,,,,,,,,,,,,,,,,,,,,,,,,,,,,,,,,,,,,,,,,,,,,,,,,,,,,,,,,,,,,,,,,
,,,,,,,,,,5f83c8f31854ab56a1f68bea,25,Mężczyzna,2022-06-04_08h13.05.124,task,2021.1.4,Win32,59.74786401,628b806c463b948bc644b84f,629af756e151686bcd6f9a91,,,,,3,0,3,0,1,X V Q F H G B L J M P D K C T S W R N Z,,,,,,,,,,,,,,,,,,,,,,,,,,,,,,,,,,,,,,,,,,,,,,,,,,,,,,,,,,,,,,,,,,,,,,,,,,,,,,,,,,,,,,,,,,,,,
,,,,,,,,,,5f83c8f31854ab56a1f68bea,25,Mężczyzna,2022-06-04_08h13.05.124,task,2021.1.4,Win32,59.74786401,628b806c463b948bc644b84f,629af756e151686bcd6f9a91,,,,,4,0,4,0,1,X V Q F H G B L J M P D K C T S W R N Z,,,,,,,,,,,,,,,,,,,,,,,,,,,,,,,,,,,,,,,,,,,,,,,,,,,,,,,,,,,,,,,,,,,,,,,,,,,,,,,,,,,,,,,,,,,,,
,,,,,,,,,,5f83c8f31854ab56a1f68bea,25,Mężczyzna,2022-06-04_08h13.05.124,task,2021.1.4,Win32,59.74786401,628b806c463b948bc644b84f,629af756e151686bcd6f9a91,,,,,5,0,5,0,1,X V Q F H G B L J M P D K C T S W R N Z,,,,,,,,,,,,,,,,,,,,,,,,,,,,,,,,,,,,,,,,,,,,,,,,,,,,,,,,,,,,,,,,,,,,,,,,,,,,,,,,,,,,,,,,,,,,,
,,,,,,,,,,5f83c8f31854ab56a1f68bea,25,Mężczyzna,2022-06-04_08h13.05.124,task,2021.1.4,Win32,59.74786401,628b806c463b948bc644b84f,629af756e151686bcd6f9a91,,,,,6,0,6,0,1,X V Q F H G B L J M P D K C T S W R N Z,,,,,,,,,,,,,,,,,,,,,,,,,,,,,,,,,,,,,,,,,,,,,,,,,,,,,,,,,,,,,,,,,,,,,,,,,,,,,,,,,,,,,,,,,,,,,
,,,,,,,,,,5f83c8f31854ab56a1f68bea,25,Mężczyzna,2022-06-04_08h13.05.124,task,2021.1.4,Win32,59.74786401,628b806c463b948bc644b84f,629af756e151686bcd6f9a91,,,,,7,0,7,0,1,X V Q F H G B L J M P D K C T S W R N Z,,,,,,,,,,,,,,,,,,,,,,,,,,,,,,,,,,,,,,,,,,,,,,,,,,,,,,,,,,,,,,,,,,,,,,,,,,,,,,,,,,,,,,,,,,,,,
,,,,,,,,,,5f83c8f31854ab56a1f68bea,25,Mężczyzna,2022-06-04_08h13.05.124,task,2021.1.4,Win32,59.74786401,628b806c463b948bc644b84f,629af756e151686bcd6f9a91,,,,,8,0,8,0,1,X V Q F H G B L J M P D K C T S W R N Z,,,,,,,,,,,,,,,,,,,,,,,,,,,,,,,,,,,,,,,,,,,,,,,,,,,,,,,,,,,,,,,,,,,,,,,,,,,,,,,,,,,,,,,,,,,,,
,,,,,,,,,,5f83c8f31854ab56a1f68bea,25,Mężczyzna,2022-06-04_08h13.05.124,task,2021.1.4,Win32,59.74786401,628b806c463b948bc644b84f,629af756e151686bcd6f9a91,,,,,,,,,,,vpqmkrshf,"[""v"",""p"",""q"",""m"",""k"",""r"",""s"",""h"",""f""]","[1.2004000000953283,1.3994000000952838,1.7686000001430102,2.3798000001906985,2.6362000000476655,3.1481000001430175,3.3944000000952883,3.951900000095293,4.0662000000476155,6.369300000190719]",0,VPQMKRFHS,17,0,17,0,1,,,,,,,,,,,,,,,,,,,,,,,,,,,,,,,,,,,,,,,,,,,,,,,,,,,,,,,,,,,,,,,,,,,,,,,,,,,,,,,,,,,
,,,,,,,,,,5f83c8f31854ab56a1f68bea,25,Mężczyzna,2022-06-04_08h13.05.124,task,2021.1.4,Win32,59.74786401,628b806c463b948bc644b84f,629af756e151686bcd6f9a91,,,,,0,0,0,0,1,X V Q F H G B L J M P D K C T S W R N Z,,,,,,,,,,,,,,,,,,,,,,,,,,,,,,,,,,,,,,,,,,,,,,,,,,,,,,,,,,,,,,,,,,,,,,,,,,,,,,,,,,,,,,,,,,,,,
,,,,,,,,,,5f83c8f31854ab56a1f68bea,25,Mężczyzna,2022-06-04_08h13.05.124,task,2021.1.4,Win32,59.74786401,628b806c463b948bc644b84f,629af756e151686bcd6f9a91,,,,,1,0,1,0,1,X V Q F H G B L J M P D K C T S W R N Z,,,,,,,,,,,,,,,,,,,,,,,,,,,,,,,,,,,,,,,,,,,,,,,,,,,,,,,,,,,,,,,,,,,,,,,,,,,,,,,,,,,,,,,,,,,,,
,,,,,,,,,,5f83c8f31854ab56a1f68bea,25,Mężczyzna,2022-06-04_08h13.05.124,task,2021.1.4,Win32,59.74786401,628b806c463b948bc644b84f,629af756e151686bcd6f9a91,,,,,2,0,2,0,1,X V Q F H G B L J M P D K C T S W R N Z,,,,,,,,,,,,,,,,,,,,,,,,,,,,,,,,,,,,,,,,,,,,,,,,,,,,,,,,,,,,,,,,,,,,,,,,,,,,,,,,,,,,,,,,,,,,,
,,,,,,,,,,5f83c8f31854ab56a1f68bea,25,Mężczyzna,2022-06-04_08h13.05.124,task,2021.1.4,Win32,59.74786401,628b806c463b948bc644b84f,629af756e151686bcd6f9a91,,,,,3,0,3,0,1,X V Q F H G B L J M P D K C T S W R N Z,,,,,,,,,,,,,,,,,,,,,,,,,,,,,,,,,,,,,,,,,,,,,,,,,,,,,,,,,,,,,,,,,,,,,,,,,,,,,,,,,,,,,,,,,,,,,
,,,,,,,,,,5f83c8f31854ab56a1f68bea,25,Mężczyzna,2022-06-04_08h13.05.124,task,2021.1.4,Win32,59.74786401,628b806c463b948bc644b84f,629af756e151686bcd6f9a91,,,,,4,0,4,0,1,X V Q F H G B L J M P D K C T S W R N Z,,,,,,,,,,,,,,,,,,,,,,,,,,,,,,,,,,,,,,,,,,,,,,,,,,,,,,,,,,,,,,,,,,,,,,,,,,,,,,,,,,,,,,,,,,,,,
,,,,,,,,,,5f83c8f31854ab56a1f68bea,25,Mężczyzna,2022-06-04_08h13.05.124,task,2021.1.4,Win32,59.74786401,628b806c463b948bc644b84f,629af756e151686bcd6f9a91,,,,,5,0,5,0,1,X V Q F H G B L J M P D K C T S W R N Z,,,,,,,,,,,,,,,,,,,,,,,,,,,,,,,,,,,,,,,,,,,,,,,,,,,,,,,,,,,,,,,,,,,,,,,,,,,,,,,,,,,,,,,,,,,,,
,,,,,,,,,,5f83c8f31854ab56a1f68bea,25,Mężczyzna,2022-06-04_08h13.05.124,task,2021.1.4,Win32,59.74786401,628b806c463b948bc644b84f,629af756e151686bcd6f9a91,,,,,6,0,6,0,1,X V Q F H G B L J M P D K C T S W R N Z,,,,,,,,,,,,,,,,,,,,,,,,,,,,,,,,,,,,,,,,,,,,,,,,,,,,,,,,,,,,,,,,,,,,,,,,,,,,,,,,,,,,,,,,,,,,,
,,,,,,,,,,5f83c8f31854ab56a1f68bea,25,Mężczyzna,2022-06-04_08h13.05.124,task,2021.1.4,Win32,59.74786401,628b806c463b948bc644b84f,629af756e151686bcd6f9a91,,,,,7,0,7,0,1,X V Q F H G B L J M P D K C T S W R N Z,,,,,,,,,,,,,,,,,,,,,,,,,,,,,,,,,,,,,,,,,,,,,,,,,,,,,,,,,,,,,,,,,,,,,,,,,,,,,,,,,,,,,,,,,,,,,
,,,,,,,,,,5f83c8f31854ab56a1f68bea,25,Mężczyzna,2022-06-04_08h13.05.124,task,2021.1.4,Win32,59.74786401,628b806c463b948bc644b84f,629af756e151686bcd6f9a91,,,,,8,0,8,0,1,X V Q F H G B L J M P D K C T S W R N Z,,,,,,,,,,,,,,,,,,,,,,,,,,,,,,,,,,,,,,,,,,,,,,,,,,,,,,,,,,,,,,,,,,,,,,,,,,,,,,,,,,,,,,,,,,,,,
,,,,,,,,,,5f83c8f31854ab56a1f68bea,25,Mężczyzna,2022-06-04_08h13.05.124,task,2021.1.4,Win32,59.74786401,628b806c463b948bc644b84f,629af756e151686bcd6f9a91,,,,,,,,,,,vsqmpcrql,"[""v"",""s"",""q"",""m"",""p"",""c"",""r"",""q"",""l""]","[1.606399999856876,1.8653999998568906,2.3134999999999764,2.521299999952248,3.3742000000476082,3.5394999999999754,3.7603999998568725,6.880399999856877,6.982200000047669,7.182099999904608]",0,BSPCCQLBR,18,0,18,0,1,,,,,,,,,,,,,,,,,,,,,,,,,,,,,,,,,,,,,,,,,,,,,,,,,,,,,,,,,,,,,,,,,,,,,,,,,,,,,,,,,,,
,,,,,,,,,,5f83c8f31854ab56a1f68bea,25,Mężczyzna,2022-06-04_08h13.05.124,task,2021.1.4,Win32,59.74786401,628b806c463b948bc644b84f,629af756e151686bcd6f9a91,,,,,,,,,,,,,,,,,,,,,space,17.0038,5,"[""5""]",0,[4.940500000000043],[4.940500000000043],0,0,0,8,1,Practice,9,(3x3) - 1,8,,,,,,,,,,,,,,,,,,,,,,,,,,,,,,,,,,,,,,,,,,,,,,,,,,,,,,,,,,,,,,,,,,,
,,,,,,,,,,5f83c8f31854ab56a1f68bea,25,Mężczyzna,2022-06-04_08h13.05.124,task,2021.1.4,Win32,59.74786401,628b806c463b948bc644b84f,629af756e151686bcd6f9a91,,,,,,,,,,,,,,,,,,,,,,,3,"[""3""]",1,[3.0555999999046435],"[4.940500000000043,3.0555999999046435]",0,1,1,3,1,Practice,4,(8/4) + 1,3,,,,,,,,,,,,,,,,,,,,,,,,,,,,,,,,,,,,,,,,,,,,,,,,,,,,,,,,,,,,,,,,,,,
,,,,,,,,,,5f83c8f31854ab56a1f68bea,25,Mężczyzna,2022-06-04_08h13.05.124,task,2021.1.4,Win32,59.74786401,628b806c463b948bc644b84f,629af756e151686bcd6f9a91,,,,,,,,,,,,,,,,,,,,,,,6,"[""6""]",1,[2.3327999999522717],"[4.940500000000043,3.0555999999046435,2.3327999999522717]",0,2,2,6,1,Practice,7,(25/5) + 1,6,,,,,,,,,,,,,,,,,,,,,,,,,,,,,,,,,,,,,,,,,,,,,,,,,,,,,,,,,,,,,,,,,,,
,,,,,,,,,,5f83c8f31854ab56a1f68bea,25,Mężczyzna,2022-06-04_08h13.05.124,task,2021.1.4,Win32,59.74786401,628b806c463b948bc644b84f,629af756e151686bcd6f9a91,,,,,,,,,,,,,,,,,,,,,,,9,"[""9""]",1,[1.6150999999046007],"[4.940500000000043,3.0555999999046435,2.3327999999522717,1.6150999999046007]",0,3,3,9,1,Practice,10,(20/2) - 1,9,,,,,,,,,,,,,,,,,,,,,,,,,,,,,,,,,,,,,,,,,,,,,,,,,,,,,,,,,,,,,,,,,,,
,,,,,,,,,,5f83c8f31854ab56a1f68bea,25,Mężczyzna,2022-06-04_08h13.05.124,task,2021.1.4,Win32,59.74786401,628b806c463b948bc644b84f,629af756e151686bcd6f9a91,,,,,,,,,,,,,,,,,,,,,,,4,"[""4""]",1,[2.4442000000476582],"[4.940500000000043,3.0555999999046435,2.3327999999522717,1.6150999999046007,2.4442000000476582]",0,4,4,4,1,Practice,5,(2x6) - 8,4,,,,,,,,,,,,,,,,,,,,,,,,,,,,,,,,,,,,,,,,,,,,,,,,,,,,,,,,,,,,,,,,,,,
,,,,,,,,,,5f83c8f31854ab56a1f68bea,25,Mężczyzna,2022-06-04_08h13.05.124,task,2021.1.4,Win32,59.74786401,628b806c463b948bc644b84f,629af756e151686bcd6f9a91,,,,,,,,,,,,,,,,,,,,,,,2,"[""2""]",1,[1.7212999999522935],"[4.940500000000043,3.0555999999046435,2.3327999999522717,1.6150999999046007,2.4442000000476582,1.7212999999522935]",0,5,5,2,1,Practice,3,(4x4) - 14,2,,,,,,,,,,,,,,,,,,,,,,,,,,,,,,,,,,,,,,,,,,,,,,,,,,,,,,,,,,,,,,,,,,,
,,,,,,,,,,5f83c8f31854ab56a1f68bea,25,Mężczyzna,2022-06-04_08h13.05.124,task,2021.1.4,Win32,59.74786401,628b806c463b948bc644b84f,629af756e151686bcd6f9a91,,,,,,,,,,,,,,,,,,,,,,,1,"[""1""]",1,[1.7772999999523336],"[4.940500000000043,3.0555999999046435,2.3327999999522717,1.6150999999046007,2.4442000000476582,1.7212999999522935,1.7772999999523336]",0,6,6,1,1,Practice,2,(4x4) - 15,1,,,,,,,,,,,,,,,,,,,,,,,,,,,,,,,,,,,,,,,,,,,,,,,,,,,,,,,,,,,,,,,,,,,
,,,,,,,,,,5f83c8f31854ab56a1f68bea,25,Mężczyzna,2022-06-04_08h13.05.124,task,2021.1.4,Win32,59.74786401,628b806c463b948bc644b84f,629af756e151686bcd6f9a91,,,,,,,,,,,,,,,,,,,,,,,5,"[""5""]",1,[2.133900000095423],"[4.940500000000043,3.0555999999046435,2.3327999999522717,1.6150999999046007,2.4442000000476582,1.7212999999522935,1.7772999999523336,2.133900000095423]",0,7,7,5,1,Practice,6,(4/2) + 3,5,,,,,,,,,,,,,,,,,,,,,,,,,,,,,,,,,,,,,,,,,,,,,,,,,,,,,,,,,,,,,,,,,,,
,,,,,,,,,,5f83c8f31854ab56a1f68bea,25,Mężczyzna,2022-06-04_08h13.05.124,task,2021.1.4,Win32,59.74786401,628b806c463b948bc644b84f,629af756e151686bcd6f9a91,,,,,,,,,,,,,,,,,,,,,,,0,"[""0""]",1,[1.4470000000000027],"[4.940500000000043,3.0555999999046435,2.3327999999522717,1.6150999999046007,2.4442000000476582,1.7212999999522935,1.7772999999523336,2.133900000095423,1.4470000000000027]",0,8,8,0,1,Practice,1,(3x3) -  9,0,,,,,,,,,,,,,,,,,,,,,,,,,,,,,,,,,,,,,,,,,,,,,,,,,,,,,,,,,,,,,,,,,,,
,,,,,,,,,,5f83c8f31854ab56a1f68bea,25,Mężczyzna,2022-06-04_08h13.05.124,task,2021.1.4,Win32,59.74786401,628b806c463b948bc644b84f,629af756e151686bcd6f9a91,,,,,,,,,,,,,,,,,,,,,,,7,"[""7""]",1,[1.8535000000000537],"[4.940500000000043,3.0555999999046435,2.3327999999522717,1.6150999999046007,2.4442000000476582,1.7212999999522935,1.7772999999523336,2.133900000095423,1.4470000000000027,1.8535000000000537]",0,9,9,7,1,Practice,8,(5x5) - 18,7,,,,,,,,,,,,,,,,,,,,,,,,,,,,,,,,,,,,,,,,,,,,,,,,,,,,,,,,,,,,,,,,,,,
,,,,,,,,,,5f83c8f31854ab56a1f68bea,25,Mężczyzna,2022-06-04_08h13.05.124,task,2021.1.4,Win32,59.74786401,628b806c463b948bc644b84f,629af756e151686bcd6f9a91,,,,,,,,,,,,,,,,,,,,,,,,,,,,,,,,,,,,,0.9,23.3212,1.554746667,15.62957459,1.020770121,4.188333578,space,1.7084,0,0,0,0,1,,,,,,,,,,,,,,,,,,,,,,,,,,,,,,,,,,,,,,,,,,,,,,,,,,,,,,
,,,,,,,,,,5f83c8f31854ab56a1f68bea,25,Mężczyzna,2022-06-04_08h13.05.124,task,2021.1.4,Win32,59.74786401,628b806c463b948bc644b84f,629af756e151686bcd6f9a91,,,,,,,,,,,,,,,,,,,,,,,5,,,,,,,,,,Practice,6,(4/2) + 3,5,,,,,,,,,,,,,,space,10.6007,"[""5""]",1,[2.4429999999999836],1,0,0,0,5,1,,,,,,,,,,,,,,,,,,,,,,,,,,,,,,,,,,,,,,,,,,,
,,,,,,,,,,5f83c8f31854ab56a1f68bea,25,Mężczyzna,2022-06-04_08h13.05.124,task,2021.1.4,Win32,59.74786401,628b806c463b948bc644b84f,629af756e151686bcd6f9a91,,,,,,,,,,X V Q F H G B L J M P D K C T S W R N Z,,,,,,,,,,,,,,,,,,,,,,,,,,,,,,,,,,,,,,,,,,,,,,,,,,,0,0,0,0,1,,,,,,,,,,,,,,,,,,,,,,,,,,,,,,,,,,,,,,
,,,,,,,,,,5f83c8f31854ab56a1f68bea,25,Mężczyzna,2022-06-04_08h13.05.124,task,2021.1.4,Win32,59.74786401,628b806c463b948bc644b84f,629af756e151686bcd6f9a91,,,,,,,,,,,,,,,,,,,,,,,5,,,,,,,,,,Practice,6,(4/2) + 3,5,,,,,,,,,,,,,,,,"[""5""]",1,[1.4389000000953729],1,0,0,0,5,1,,,,,,,,,,,,,,,,,,,,,,,,,,,,,,,,,,,,,,,,,,,
,,,,,,,,,,5f83c8f31854ab56a1f68bea,25,Mężczyzna,2022-06-04_08h13.05.124,task,2021.1.4,Win32,59.74786401,628b806c463b948bc644b84f,629af756e151686bcd6f9a91,,,,,,,,,,X V Q F H G B L J M P D K C T S W R N Z,,,,,,,,,,,,,,,,,,,,,,,,,,,,,,,,,,,,,,,,,,,,,,,,,,,1,0,1,0,1,,,,,,,,,,,,,,,,,,,,,,,,,,,,,,,,,,,,,,
,,,,,,,,,,5f83c8f31854ab56a1f68bea,25,Mężczyzna,2022-06-04_08h13.05.124,task,2021.1.4,Win32,59.74786401,628b806c463b948bc644b84f,629af756e151686bcd6f9a91,,,,,,,,,,,,,,,,,,,,,,,,,,,,,,,,,,,,,,,,,,,,,,,,,,,,,,,,,,,,,,,,,,zf,"[""z"",""f""]",0,"[1.8044999999999618,2.0724000000953993,2.51400000000001]",1,0,0,0,0,1,,,,,,,,,,,,,,,,,,,,,,,,,,,,
,,,,,,,,,,5f83c8f31854ab56a1f68bea,25,Mężczyzna,2022-06-04_08h13.05.124,task,2021.1.4,Win32,59.74786401,628b806c463b948bc644b84f,629af756e151686bcd6f9a91,,,,,,,,,,,,,,,,,,,,,,,2,,,,,,,,,,Practice,3,(4x4) - 14,2,,,,,,,,,,,,,,,,"[""2""]",1,[1.27800000000002],1,0,0,0,2,1,,,,,,,,,,,,,,,,,,,,,,,,,,,,,,,,,,,,,,,,,,,
,,,,,,,,,,5f83c8f31854ab56a1f68bea,25,Mężczyzna,2022-06-04_08h13.05.124,task,2021.1.4,Win32,59.74786401,628b806c463b948bc644b84f,629af756e151686bcd6f9a91,,,,,,,,,,X V Q F H G B L J M P D K C T S W R N Z,,,,,,,,,,,,,,,,,,,,,,,,,,,,,,,,,,,,,,,,,,,,,,,,,,,0,0,0,0,1,,,,,,,,,,,,,,,,,,,,,,,,,,,,,,,,,,,,,,
,,,,,,,,,,5f83c8f31854ab56a1f68bea,25,Mężczyzna,2022-06-04_08h13.05.124,task,2021.1.4,Win32,59.74786401,628b806c463b948bc644b84f,629af756e151686bcd6f9a91,,,,,,,,,,,,,,,,,,,,,,,5,,,,,,,,,,Practice,9,(3x3) - 1,8,,,,,,,,,,,,,,,,"[""5""]",0,[1.2982000000477],0,0,0,0,8,1,,,,,,,,,,,,,,,,,,,,,,,,,,,,,,,,,,,,,,,,,,,
,,,,,,,,,,5f83c8f31854ab56a1f68bea,25,Mężczyzna,2022-06-04_08h13.05.124,task,2021.1.4,Win32,59.74786401,628b806c463b948bc644b84f,629af756e151686bcd6f9a91,,,,,,,,,,,,,,,,,,,,,,,1,,,,,,,,,,Practice,2,(4x4) - 15,1,,,,,,,,,,,,,,,,"[""1""]",1,[1.5941000001430439],1,0,1,1,1,1,,,,,,,,,,,,,,,,,,,,,,,,,,,,,,,,,,,,,,,,,,,
,,,,,,,,,,5f83c8f31854ab56a1f68bea,25,Mężczyzna,2022-06-04_08h13.05.124,task,2021.1.4,Win32,59.74786401,628b806c463b948bc644b84f,629af756e151686bcd6f9a91,,,,,,,,,,X V Q F H G B L J M P D K C T S W R N Z,,,,,,,,,,,,,,,,,,,,,,,,,,,,,,,,,,,,,,,,,,,,,,,,,,,1,0,1,0,1,,,,,,,,,,,,,,,,,,,,,,,,,,,,,,,,,,,,,,
,,,,,,,,,,5f83c8f31854ab56a1f68bea,25,Mężczyzna,2022-06-04_08h13.05.124,task,2021.1.4,Win32,59.74786401,628b806c463b948bc644b84f,629af756e151686bcd6f9a91,,,,,,,,,,,,,,,,,,,,,,,,,,,,,,,,,,,,,,,,,,,,,,,,,,,,,,,,,,,,,,,,,,cm,"[""c"",""m""]",0,"[1.6889999999999645,1.7990999999046835,2.086799999952291]",1,1,0,1,0,1,,,,,,,,,,,,,,,,,,,,,,,,,,,,
,,,,,,,,,,5f83c8f31854ab56a1f68bea,25,Mężczyzna,2022-06-04_08h13.05.124,task,2021.1.4,Win32,59.74786401,628b806c463b948bc644b84f,629af756e151686bcd6f9a91,,,,,,,,,,,,,,,,,,,,,,,3,,,,,,,,,,Practice,4,(8/4) + 1,3,,,,,,,,,,,,,,,,"[""3""]",1,[1.7530999999046344],1,0,0,0,3,1,,,,,,,,,,,,,,,,,,,,,,,,,,,,,,,,,,,,,,,,,,,
,,,,,,,,,,5f83c8f31854ab56a1f68bea,25,Mężczyzna,2022-06-04_08h13.05.124,task,2021.1.4,Win32,59.74786401,628b806c463b948bc644b84f,629af756e151686bcd6f9a91,,,,,,,,,,X V Q F H G B L J M P D K C T S W R N Z,,,,,,,,,,,,,,,,,,,,,,,,,,,,,,,,,,,,,,,,,,,,,,,,,,,0,0,0,0,1,,,,,,,,,,,,,,,,,,,,,,,,,,,,,,,,,,,,,,
,,,,,,,,,,5f83c8f31854ab56a1f68bea,25,Mężczyzna,2022-06-04_08h13.05.124,task,2021.1.4,Win32,59.74786401,628b806c463b948bc644b84f,629af756e151686bcd6f9a91,,,,,,,,,,,,,,,,,,,,,,,5,,,,,,,,,,Practice,6,(4/2) + 3,5,,,,,,,,,,,,,,,,"[""5""]",1,[1.9664000000954047],1,0,0,0,5,1,,,,,,,,,,,,,,,,,,,,,,,,,,,,,,,,,,,,,,,,,,,
,,,,,,,,,,5f83c8f31854ab56a1f68bea,25,Mężczyzna,2022-06-04_08h13.05.124,task,2021.1.4,Win32,59.74786401,628b806c463b948bc644b84f,629af756e151686bcd6f9a91,,,,,,,,,,X V Q F H G B L J M P D K C T S W R N Z,,,,,,,,,,,,,,,,,,,,,,,,,,,,,,,,,,,,,,,,,,,,,,,,,,,1,0,1,0,1,,,,,,,,,,,,,,,,,,,,,,,,,,,,,,,,,,,,,,
,,,,,,,,,,5f83c8f31854ab56a1f68bea,25,Mężczyzna,2022-06-04_08h13.05.124,task,2021.1.4,Win32,59.74786401,628b806c463b948bc644b84f,629af756e151686bcd6f9a91,,,,,,,,,,,,,,,,,,,,,,,,,,,,,,,,,,,,,,,,,,,,,,,,,,,,,,,,,,,,,,,,,,gd,"[""g"",""d""]",0,"[1.8237000000476655,2.0543000001907785,2.497600000143052]",1,2,0,2,0,1,,,,,,,,,,,,,,,,,,,,,,,,,,,,
,,,,,,,,,,5f83c8f31854ab56a1f68bea,25,Mężczyzna,2022-06-04_08h13.05.124,task,2021.1.4,Win32,59.74786401,628b806c463b948bc644b84f,629af756e151686bcd6f9a91,,,,,,,,,,,,,,,,,,,,,,,6,,,,,,,,,,Task,5,(2x3) + 0,6,,,,,,,,,,,,,,,,,,,1,,,,,,,,,,,,,,,,,,,,,space,20.0747,"[""6""]",1,[3.5385999999045907],0,0,0,4,1,,,,,,,,,,,,,,,,,,
,,,,,,,,,,5f83c8f31854ab56a1f68bea,25,Mężczyzna,2022-06-04_08h13.05.124,task,2021.1.4,Win32,59.74786401,628b806c463b948bc644b84f,629af756e151686bcd6f9a91,,,,,,,,,,X V Q F H G B L J M P D K C T S W R N Z,,,,,,,,,,,,,,,,,,,,,,,,,,,,,,,,,,,,,,,,,,,,,,,,,,,,,,,,,,,,,,,,,,,,,,,,,,,,0,0,0,0,1,,,,,,,,,,,,,
,,,,,,,,,,5f83c8f31854ab56a1f68bea,25,Mężczyzna,2022-06-04_08h13.05.124,task,2021.1.4,Win32,59.74786401,628b806c463b948bc644b84f,629af756e151686bcd6f9a91,,,,,,,,,,,,,,,,,,,,,,,3,,,,,,,,,,Task,35,(1x2) + 1,3,,,,,,,,,,,,,,,,,,,1,,,,,,,,,,,,,,,,,,,,,,,"[""3""]",1,[1.9452000000477483],0,0,0,34,1,,,,,,,,,,,,,,,,,,
,,,,,,,,,,5f83c8f31854ab56a1f68bea,25,Mężczyzna,2022-06-04_08h13.05.124,task,2021.1.4,Win32,59.74786401,628b806c463b948bc644b84f,629af756e151686bcd6f9a91,,,,,,,,,,X V Q F H G B L J M P D K C T S W R N Z,,,,,,,,,,,,,,,,,,,,,,,,,,,,,,,,,,,,,,,,,,,,,,,,,,,,,,,,,,,,,,,,,,,,,,,,,,,,1,0,1,0,1,,,,,,,,,,,,,
,,,,,,,,,,5f83c8f31854ab56a1f68bea,25,Mężczyzna,2022-06-04_08h13.05.124,task,2021.1.4,Win32,59.74786401,628b806c463b948bc644b84f,629af756e151686bcd6f9a91,,,,,,,,,,,,,,,,,,,,,,,,,,,,,,,,,,,,,,,,,,,,,,,,,,,,,,,,,,,,,,,,,,,,,,,,,,,,,,,,,,,,,,,,,,,zb,"[""z"",""b""]",0,"[1.4204000000953556,1.7224000000953765,1.9847000000477237]",1,ZB,0,0,0,0,1,,
,,,,,,,,,,5f83c8f31854ab56a1f68bea,25,Mężczyzna,2022-06-04_08h13.05.124,task,2021.1.4,Win32,59.74786401,628b806c463b948bc644b84f,629af756e151686bcd6f9a91,,,,,,,,,,,,,,,,,,,,,,,7,,,,,,,,,,Task,31,(4/2) + 5,7,,,,,,,,,,,,,,,,,,,1,,,,,,,,,,,,,,,,,,,,,,,"[""7""]",1,[1.6312999999522617],0,0,0,30,1,,,,,,,,,,,,,,,,,,
,,,,,,,,,,5f83c8f31854ab56a1f68bea,25,Mężczyzna,2022-06-04_08h13.05.124,task,2021.1.4,Win32,59.74786401,628b806c463b948bc644b84f,629af756e151686bcd6f9a91,,,,,,,,,,X V Q F H G B L J M P D K C T S W R N Z,,,,,,,,,,,,,,,,,,,,,,,,,,,,,,,,,,,,,,,,,,,,,,,,,,,,,,,,,,,,,,,,,,,,,,,,,,,,0,0,0,0,1,,,,,,,,,,,,,
,,,,,,,,,,5f83c8f31854ab56a1f68bea,25,Mężczyzna,2022-06-04_08h13.05.124,task,2021.1.4,Win32,59.74786401,628b806c463b948bc644b84f,629af756e151686bcd6f9a91,,,,,,,,,,,,,,,,,,,,,,,4,,,,,,,,,,Task,28,(2x5) - 6,4,,,,,,,,,,,,,,,,,,,1,,,,,,,,,,,,,,,,,,,,,,,"[""4""]",1,[1.6755000000000564],0,0,0,27,1,,,,,,,,,,,,,,,,,,
,,,,,,,,,,5f83c8f31854ab56a1f68bea,25,Mężczyzna,2022-06-04_08h13.05.124,task,2021.1.4,Win32,59.74786401,628b806c463b948bc644b84f,629af756e151686bcd6f9a91,,,,,,,,,,X V Q F H G B L J M P D K C T S W R N Z,,,,,,,,,,,,,,,,,,,,,,,,,,,,,,,,,,,,,,,,,,,,,,,,,,,,,,,,,,,,,,,,,,,,,,,,,,,,1,0,1,0,1,,,,,,,,,,,,,
,,,,,,,,,,5f83c8f31854ab56a1f68bea,25,Mężczyzna,2022-06-04_08h13.05.124,task,2021.1.4,Win32,59.74786401,628b806c463b948bc644b84f,629af756e151686bcd6f9a91,,,,,,,,,,,,,,,,,,,,,,,4,,,,,,,,,,Task,21,(10/2) - 1,4,,,,,,,,,,,,,,,,,,,1,,,,,,,,,,,,,,,,,,,,,,,"[""4""]",1,[1.6485000000000127],0,0,0,20,1,,,,,,,,,,,,,,,,,,
,,,,,,,,,,5f83c8f31854ab56a1f68bea,25,Mężczyzna,2022-06-04_08h13.05.124,task,2021.1.4,Win32,59.74786401,628b806c463b948bc644b84f,629af756e151686bcd6f9a91,,,,,,,,,,X V Q F H G B L J M P D K C T S W R N Z,,,,,,,,,,,,,,,,,,,,,,,,,,,,,,,,,,,,,,,,,,,,,,,,,,,,,,,,,,,,,,,,,,,,,,,,,,,,2,0,2,0,1,,,,,,,,,,,,,
,,,,,,,,,,5f83c8f31854ab56a1f68bea,25,Mężczyzna,2022-06-04_08h13.05.124,task,2021.1.4,Win32,59.74786401,628b806c463b948bc644b84f,629af756e151686bcd6f9a91,,,,,,,,,,,,,,,,,,,,,,,,,,,,,,,,,,,,,,,,,,,,,,,,,,,,,,,,,,,,,,,,,,,,,,,,,,,,,,,,,,,,,,,,,,,zqt,"[""z"",""q"",""t""]",0,"[1.4343000001906603,1.6614999999999327,1.9293000001906648,2.7174999999999727]",1,ZQT,1,0,1,0,1,,
,,,,,,,,,,5f83c8f31854ab56a1f68bea,25,Mężczyzna,2022-06-04_08h13.05.124,task,2021.1.4,Win32,59.74786401,628b806c463b948bc644b84f,629af756e151686bcd6f9a91,,,,,,,,,,,,,,,,,,,,,,,6,,,,,,,,,,Task,30,(6/3) + 4 ,6,,,,,,,,,,,,,,,,,,,1,,,,,,,,,,,,,,,,,,,,,,,"[""6""]",1,[1.569199999809257],0,0,0,29,1,,,,,,,,,,,,,,,,,,
,,,,,,,,,,5f83c8f31854ab56a1f68bea,25,Mężczyzna,2022-06-04_08h13.05.124,task,2021.1.4,Win32,59.74786401,628b806c463b948bc644b84f,629af756e151686bcd6f9a91,,,,,,,,,,X V Q F H G B L J M P D K C T S W R N Z,,,,,,,,,,,,,,,,,,,,,,,,,,,,,,,,,,,,,,,,,,,,,,,,,,,,,,,,,,,,,,,,,,,,,,,,,,,,0,0,0,0,1,,,,,,,,,,,,,
,,,,,,,,,,5f83c8f31854ab56a1f68bea,25,Mężczyzna,2022-06-04_08h13.05.124,task,2021.1.4,Win32,59.74786401,628b806c463b948bc644b84f,629af756e151686bcd6f9a91,,,,,,,,,,,,,,,,,,,,,,,9,,,,,,,,,,Task,40,(7x2) - 5,9,,,,,,,,,,,,,,,,,,,1,,,,,,,,,,,,,,,,,,,,,,,"[""9""]",1,[1.9265999999046244],0,0,0,39,1,,,,,,,,,,,,,,,,,,
,,,,,,,,,,5f83c8f31854ab56a1f68bea,25,Mężczyzna,2022-06-04_08h13.05.124,task,2021.1.4,Win32,59.74786401,628b806c463b948bc644b84f,629af756e151686bcd6f9a91,,,,,,,,,,X V Q F H G B L J M P D K C T S W R N Z,,,,,,,,,,,,,,,,,,,,,,,,,,,,,,,,,,,,,,,,,,,,,,,,,,,,,,,,,,,,,,,,,,,,,,,,,,,,1,0,1,0,1,,,,,,,,,,,,,
,,,,,,,,,,5f83c8f31854ab56a1f68bea,25,Mężczyzna,2022-06-04_08h13.05.124,task,2021.1.4,Win32,59.74786401,628b806c463b948bc644b84f,629af756e151686bcd6f9a91,,,,,,,,,,,,,,,,,,,,,,,7,,,,,,,,,,Task,14,(2x2) + 3,7,,,,,,,,,,,,,,,,,,,1,,,,,,,,,,,,,,,,,,,,,,,"[""7""]",1,[1.27829999995231],0,0,0,13,1,,,,,,,,,,,,,,,,,,
,,,,,,,,,,5f83c8f31854ab56a1f68bea,25,Mężczyzna,2022-06-04_08h13.05.124,task,2021.1.4,Win32,59.74786401,628b806c463b948bc644b84f,629af756e151686bcd6f9a91,,,,,,,,,,X V Q F H G B L J M P D K C T S W R N Z,,,,,,,,,,,,,,,,,,,,,,,,,,,,,,,,,,,,,,,,,,,,,,,,,,,,,,,,,,,,,,,,,,,,,,,,,,,,2,0,2,0,1,,,,,,,,,,,,,
,,,,,,,,,,5f83c8f31854ab56a1f68bea,25,Mężczyzna,2022-06-04_08h13.05.124,task,2021.1.4,Win32,59.74786401,628b806c463b948bc644b84f,629af756e151686bcd6f9a91,,,,,,,,,,,,,,,,,,,,,,,8,,,,,,,,,,Task,38,(4x6) - 17,7,,,,,,,,,,,,,,,,,,,0,,,,,,,,,,,,,,,,,,,,,,,"[""8""]",0,[2.9893999998569143],0,0,0,37,1,,,,,,,,,,,,,,,,,,
,,,,,,,,,,5f83c8f31854ab56a1f68bea,25,Mężczyzna,2022-06-04_08h13.05.124,task,2021.1.4,Win32,59.74786401,628b806c463b948bc644b84f,629af756e151686bcd6f9a91,,,,,,,,,,,,,,,,,,,,,,,1,,,,,,,,,,Task,1,(12/6) - 1,1,,,,,,,,,,,,,,,,,,,1,,,,,,,,,,,,,,,,,,,,,,,"[""1""]",1,[3.5488999998569852],0,1,1,0,1,,,,,,,,,,,,,,,,,,
,,,,,,,,,,5f83c8f31854ab56a1f68bea,25,Mężczyzna,2022-06-04_08h13.05.124,task,2021.1.4,Win32,59.74786401,628b806c463b948bc644b84f,629af756e151686bcd6f9a91,,,,,,,,,,X V Q F H G B L J M P D K C T S W R N Z,,,,,,,,,,,,,,,,,,,,,,,,,,,,,,,,,,,,,,,,,,,,,,,,,,,,,,,,,,,,,,,,,,,,,,,,,,,,3,0,3,0,1,,,,,,,,,,,,,
,,,,,,,,,,5f83c8f31854ab56a1f68bea,25,Mężczyzna,2022-06-04_08h13.05.124,task,2021.1.4,Win32,59.74786401,628b806c463b948bc644b84f,629af756e151686bcd6f9a91,,,,,,,,,,,,,,,,,,,,,,,,,,,,,,,,,,,,,,,,,,,,,,,,,,,,,,,,,,,,,,,,,,,,,,,,,,,,,,,,,,,,,,,,,,,wqqx,"[""w"",""q"",""q"",""x""]",0,"[1.288499999999999,1.52670000004764,1.6924999999999955,1.9712000000475882,2.7274000000952583]",0,WLQX,2,0,2,0,1,,
,,,,,,,,,,5f83c8f31854ab56a1f68bea,25,Mężczyzna,2022-06-04_08h13.05.124,task,2021.1.4,Win32,59.74786401,628b806c463b948bc644b84f,629af756e151686bcd6f9a91,,,,,,,,,,,,,,,,,,,,,,,3,,,,,,,,,,Task,20,(18/9) + 1,3,,,,,,,,,,,,,,,,,,,1,,,,,,,,,,,,,,,,,,,,,,,"[""3""]",1,[1.5702999999522262],0,0,0,19,1,,,,,,,,,,,,,,,,,,
,,,,,,,,,,5f83c8f31854ab56a1f68bea,25,Mężczyzna,2022-06-04_08h13.05.124,task,2021.1.4,Win32,59.74786401,628b806c463b948bc644b84f,629af756e151686bcd6f9a91,,,,,,,,,,X V Q F H G B L J M P D K C T S W R N Z,,,,,,,,,,,,,,,,,,,,,,,,,,,,,,,,,,,,,,,,,,,,,,,,,,,,,,,,,,,,,,,,,,,,,,,,,,,,0,0,0,0,1,,,,,,,,,,,,,
,,,,,,,,,,5f83c8f31854ab56a1f68bea,25,Mężczyzna,2022-06-04_08h13.05.124,task,2021.1.4,Win32,59.74786401,628b806c463b948bc644b84f,629af756e151686bcd6f9a91,,,,,,,,,,,,,,,,,,,,,,,3,,,,,,,,,,Task,3,(2x3) - 3,3,,,,,,,,,,,,,,,,,,,1,,,,,,,,,,,,,,,,,,,,,,,"[""3""]",1,[1.579499999999939],0,0,0,2,1,,,,,,,,,,,,,,,,,,
,,,,,,,,,,5f83c8f31854ab56a1f68bea,25,Mężczyzna,2022-06-04_08h13.05.124,task,2021.1.4,Win32,59.74786401,628b806c463b948bc644b84f,629af756e151686bcd6f9a91,,,,,,,,,,X V Q F H G B L J M P D K C T S W R N Z,,,,,,,,,,,,,,,,,,,,,,,,,,,,,,,,,,,,,,,,,,,,,,,,,,,,,,,,,,,,,,,,,,,,,,,,,,,,1,0,1,0,1,,,,,,,,,,,,,
,,,,,,,,,,5f83c8f31854ab56a1f68bea,25,Mężczyzna,2022-06-04_08h13.05.124,task,2021.1.4,Win32,59.74786401,628b806c463b948bc644b84f,629af756e151686bcd6f9a91,,,,,,,,,,,,,,,,,,,,,,,9,,,,,,,,,,Task,24,(2x2) + 5,9,,,,,,,,,,,,,,,,,,,1,,,,,,,,,,,,,,,,,,,,,,,"[""9""]",1,[1.4747000000477328],0,0,0,23,1,,,,,,,,,,,,,,,,,,
,,,,,,,,,,5f83c8f31854ab56a1f68bea,25,Mężczyzna,2022-06-04_08h13.05.124,task,2021.1.4,Win32,59.74786401,628b806c463b948bc644b84f,629af756e151686bcd6f9a91,,,,,,,,,,X V Q F H G B L J M P D K C T S W R N Z,,,,,,,,,,,,,,,,,,,,,,,,,,,,,,,,,,,,,,,,,,,,,,,,,,,,,,,,,,,,,,,,,,,,,,,,,,,,2,0,2,0,1,,,,,,,,,,,,,
,,,,,,,,,,5f83c8f31854ab56a1f68bea,25,Mężczyzna,2022-06-04_08h13.05.124,task,2021.1.4,Win32,59.74786401,628b806c463b948bc644b84f,629af756e151686bcd6f9a91,,,,,,,,,,,,,,,,,,,,,,,2,,,,,,,,,,Task,26,(2x9) - 16,2,,,,,,,,,,,,,,,,,,,1,,,,,,,,,,,,,,,,,,,,,,,"[""2""]",1,[1.3220000000000027],0,0,0,25,1,,,,,,,,,,,,,,,,,,
,,,,,,,,,,5f83c8f31854ab56a1f68bea,25,Mężczyzna,2022-06-04_08h13.05.124,task,2021.1.4,Win32,59.74786401,628b806c463b948bc644b84f,629af756e151686bcd6f9a91,,,,,,,,,,X V Q F H G B L J M P D K C T S W R N Z,,,,,,,,,,,,,,,,,,,,,,,,,,,,,,,,,,,,,,,,,,,,,,,,,,,,,,,,,,,,,,,,,,,,,,,,,,,,3,0,3,0,1,,,,,,,,,,,,,
