key_resp_15.keys,key_resp_15.rt,key_resp_13.keys,key_resp_13.corr,key_resp_13.rt,ranodm_loop.thisRepN,ranodm_loop.thisTrialN,ranodm_loop.thisN,ranodm_loop.thisIndex,ranodm_loop.ran,participant,Wiek*,Płeć,date,expName,psychopyVersion,OS,frameRate,study_id,session,key_resp_16.keys,key_resp_16.rt,key_resp_4.keys,key_resp_4.rt,next_letter.thisRepN,next_letter.thisTrialN,next_letter.thisN,next_letter.thisIndex,next_letter.ran,letter,simple_recall,key_resp_5.keys,key_resp_5.rt,simple_recall_corr,simple_recall_corrkeys,next_level.thisRepN,next_level.thisTrialN,next_level.thisN,next_level.thisIndex,next_level.ran,key_resp_2.keys,key_resp_2.rt,digit_answer,key_resp.keys,key_resp.corr,key_resp.rt,RT_list,next_equation.thisRepN,next_equation.thisTrialN,next_equation.thisN,next_equation.thisIndex,next_equation.ran,Task,Trial,Problem,Operation_answer,processing_score,sumRT,meanRT,sumdiff,sd,RT,key_resp_3.keys,key_resp_3.rt,repeat_practice.thisRepN,repeat_practice.thisTrialN,repeat_practice.thisN,repeat_practice.thisIndex,repeat_practice.ran,key_resp_6.keys,key_resp_6.rt,key_resp_11.keys,key_resp_11.corr,key_resp_11.rt,operation_correct,repeat_if_wrong_prac.thisRepN,repeat_if_wrong_prac.thisTrialN,repeat_if_wrong_prac.thisN,repeat_if_wrong_prac.thisIndex,repeat_if_wrong_prac.ran,span_size_prac.thisRepN,span_size_prac.thisTrialN,span_size_prac.thisN,span_size_prac.thisIndex,span_size_prac.ran,complex_recall_practice,key_resp_9.keys,key_resp_9.corr,key_resp_9.rt,complex_prac_corr,span_recall_prac.thisRepN,span_recall_prac.thisTrialN,span_recall_prac.thisN,span_recall_prac.thisIndex,span_recall_prac.ran,key_resp_10.keys,key_resp_10.rt,key_resp_7.keys,key_resp_7.corr,key_resp_7.rt,repeat_if_wrong.thisRepN,repeat_if_wrong.thisTrialN,repeat_if_wrong.thisN,repeat_if_wrong.thisIndex,repeat_if_wrong.ran,span_size.thisRepN,span_size.thisTrialN,span_size.thisN,span_size.thisIndex,span_size.ran,complex_recall,key_resp_8.keys,key_resp_8.corr,key_resp_8.rt,complex_recall_corr,complex_recall_corrkeys,span_recall.thisRepN,span_recall.thisTrialN,span_recall.thisN,span_recall.thisIndex,span_recall.ran,key_resp_12.keys,key_resp_12.rt
space,13.6517,"[""comma""]",0,[1.747299999952304],0,0,0,0,1,5f8b41866245d7255a60d47e,22,Mężczyzna,2022-06-04_08h46.35.879,task,2021.1.4,Win32,59.69436485,628b806c463b948bc644b84f,629afed2c73149f0f46d6240,,,,,,,,,,,,,,,,,,,,,,,,,,,,,,,,,,,,,,,,,,,,,,,,,,,,,,,,,,,,,,,,,,,,,,,,,,,,,,,,,,,,,,,,,,,,,,,,,,,,,,,
,,"[""period"",""comma""]",0,"[1.3080999999046412,1.3535999999046453]",1,0,1,0,1,5f8b41866245d7255a60d47e,22,Mężczyzna,2022-06-04_08h46.35.879,task,2021.1.4,Win32,59.69436485,628b806c463b948bc644b84f,629afed2c73149f0f46d6240,,,,,,,,,,,,,,,,,,,,,,,,,,,,,,,,,,,,,,,,,,,,,,,,,,,,,,,,,,,,,,,,,,,,,,,,,,,,,,,,,,,,,,,,,,,,,,,,,,,,,,,
,,"[""comma""]",0,[1.310400000095342],2,0,2,0,1,5f8b41866245d7255a60d47e,22,Mężczyzna,2022-06-04_08h46.35.879,task,2021.1.4,Win32,59.69436485,628b806c463b948bc644b84f,629afed2c73149f0f46d6240,,,,,,,,,,,,,,,,,,,,,,,,,,,,,,,,,,,,,,,,,,,,,,,,,,,,,,,,,,,,,,,,,,,,,,,,,,,,,,,,,,,,,,,,,,,,,,,,,,,,,,,
,,"[""comma""]",0,[1.0434999999999945],3,0,3,0,1,5f8b41866245d7255a60d47e,22,Mężczyzna,2022-06-04_08h46.35.879,task,2021.1.4,Win32,59.69436485,628b806c463b948bc644b84f,629afed2c73149f0f46d6240,,,,,,,,,,,,,,,,,,,,,,,,,,,,,,,,,,,,,,,,,,,,,,,,,,,,,,,,,,,,,,,,,,,,,,,,,,,,,,,,,,,,,,,,,,,,,,,,,,,,,,,
,,"[""period""]",0,[1.0219000000953429],4,0,4,0,1,5f8b41866245d7255a60d47e,22,Mężczyzna,2022-06-04_08h46.35.879,task,2021.1.4,Win32,59.69436485,628b806c463b948bc644b84f,629afed2c73149f0f46d6240,,,,,,,,,,,,,,,,,,,,,,,,,,,,,,,,,,,,,,,,,,,,,,,,,,,,,,,,,,,,,,,,,,,,,,,,,,,,,,,,,,,,,,,,,,,,,,,,,,,,,,,
,,"[""comma""]",0,[1.1522999999523336],5,0,5,0,1,5f8b41866245d7255a60d47e,22,Mężczyzna,2022-06-04_08h46.35.879,task,2021.1.4,Win32,59.69436485,628b806c463b948bc644b84f,629afed2c73149f0f46d6240,,,,,,,,,,,,,,,,,,,,,,,,,,,,,,,,,,,,,,,,,,,,,,,,,,,,,,,,,,,,,,,,,,,,,,,,,,,,,,,,,,,,,,,,,,,,,,,,,,,,,,,
,,"[""comma""]",0,[1.0554000000953465],6,0,6,0,1,5f8b41866245d7255a60d47e,22,Mężczyzna,2022-06-04_08h46.35.879,task,2021.1.4,Win32,59.69436485,628b806c463b948bc644b84f,629afed2c73149f0f46d6240,,,,,,,,,,,,,,,,,,,,,,,,,,,,,,,,,,,,,,,,,,,,,,,,,,,,,,,,,,,,,,,,,,,,,,,,,,,,,,,,,,,,,,,,,,,,,,,,,,,,,,,
,,"[""period""]",0,[1.0627000000476983],7,0,7,0,1,5f8b41866245d7255a60d47e,22,Mężczyzna,2022-06-04_08h46.35.879,task,2021.1.4,Win32,59.69436485,628b806c463b948bc644b84f,629afed2c73149f0f46d6240,,,,,,,,,,,,,,,,,,,,,,,,,,,,,,,,,,,,,,,,,,,,,,,,,,,,,,,,,,,,,,,,,,,,,,,,,,,,,,,,,,,,,,,,,,,,,,,,,,,,,,,
,,"[""comma""]",0,[0.9442000000476582],8,0,8,0,1,5f8b41866245d7255a60d47e,22,Mężczyzna,2022-06-04_08h46.35.879,task,2021.1.4,Win32,59.69436485,628b806c463b948bc644b84f,629afed2c73149f0f46d6240,,,,,,,,,,,,,,,,,,,,,,,,,,,,,,,,,,,,,,,,,,,,,,,,,,,,,,,,,,,,,,,,,,,,,,,,,,,,,,,,,,,,,,,,,,,,,,,,,,,,,,,
,,"[""period""]",0,[0.8494000000953861],9,0,9,0,1,5f8b41866245d7255a60d47e,22,Mężczyzna,2022-06-04_08h46.35.879,task,2021.1.4,Win32,59.69436485,628b806c463b948bc644b84f,629afed2c73149f0f46d6240,,,,,,,,,,,,,,,,,,,,,,,,,,,,,,,,,,,,,,,,,,,,,,,,,,,,,,,,,,,,,,,,,,,,,,,,,,,,,,,,,,,,,,,,,,,,,,,,,,,,,,,
,,"[""comma""]",0,[0.7475000000000023],10,0,10,0,1,5f8b41866245d7255a60d47e,22,Mężczyzna,2022-06-04_08h46.35.879,task,2021.1.4,Win32,59.69436485,628b806c463b948bc644b84f,629afed2c73149f0f46d6240,,,,,,,,,,,,,,,,,,,,,,,,,,,,,,,,,,,,,,,,,,,,,,,,,,,,,,,,,,,,,,,,,,,,,,,,,,,,,,,,,,,,,,,,,,,,,,,,,,,,,,,
,,"[""comma""]",0,[0.960899999856963],11,0,11,0,1,5f8b41866245d7255a60d47e,22,Mężczyzna,2022-06-04_08h46.35.879,task,2021.1.4,Win32,59.69436485,628b806c463b948bc644b84f,629afed2c73149f0f46d6240,,,,,,,,,,,,,,,,,,,,,,,,,,,,,,,,,,,,,,,,,,,,,,,,,,,,,,,,,,,,,,,,,,,,,,,,,,,,,,,,,,,,,,,,,,,,,,,,,,,,,,,
,,"[""comma"",""period""]",0,"[0.48660000014302796,1.9664000000953479]",12,0,12,0,1,5f8b41866245d7255a60d47e,22,Mężczyzna,2022-06-04_08h46.35.879,task,2021.1.4,Win32,59.69436485,628b806c463b948bc644b84f,629afed2c73149f0f46d6240,,,,,,,,,,,,,,,,,,,,,,,,,,,,,,,,,,,,,,,,,,,,,,,,,,,,,,,,,,,,,,,,,,,,,,,,,,,,,,,,,,,,,,,,,,,,,,,,,,,,,,,
,,,0,,13,0,13,0,1,5f8b41866245d7255a60d47e,22,Mężczyzna,2022-06-04_08h46.35.879,task,2021.1.4,Win32,59.69436485,628b806c463b948bc644b84f,629afed2c73149f0f46d6240,,,,,,,,,,,,,,,,,,,,,,,,,,,,,,,,,,,,,,,,,,,,,,,,,,,,,,,,,,,,,,,,,,,,,,,,,,,,,,,,,,,,,,,,,,,,,,,,,,,,,,,
,,"[""comma""]",0,[0.22390000009534106],14,0,14,0,1,5f8b41866245d7255a60d47e,22,Mężczyzna,2022-06-04_08h46.35.879,task,2021.1.4,Win32,59.69436485,628b806c463b948bc644b84f,629afed2c73149f0f46d6240,,,,,,,,,,,,,,,,,,,,,,,,,,,,,,,,,,,,,,,,,,,,,,,,,,,,,,,,,,,,,,,,,,,,,,,,,,,,,,,,,,,,,,,,,,,,,,,,,,,,,,,
,,"[""period""]",0,[0.2702999999522717],15,0,15,0,1,5f8b41866245d7255a60d47e,22,Mężczyzna,2022-06-04_08h46.35.879,task,2021.1.4,Win32,59.69436485,628b806c463b948bc644b84f,629afed2c73149f0f46d6240,,,,,,,,,,,,,,,,,,,,,,,,,,,,,,,,,,,,,,,,,,,,,,,,,,,,,,,,,,,,,,,,,,,,,,,,,,,,,,,,,,,,,,,,,,,,,,,,,,,,,,,
,,"[""comma""]",0,[0.1752000000476528],16,0,16,0,1,5f8b41866245d7255a60d47e,22,Mężczyzna,2022-06-04_08h46.35.879,task,2021.1.4,Win32,59.69436485,628b806c463b948bc644b84f,629afed2c73149f0f46d6240,,,,,,,,,,,,,,,,,,,,,,,,,,,,,,,,,,,,,,,,,,,,,,,,,,,,,,,,,,,,,,,,,,,,,,,,,,,,,,,,,,,,,,,,,,,,,,,,,,,,,,,
,,"[""period""]",0,[0.3154000000953374],17,0,17,0,1,5f8b41866245d7255a60d47e,22,Mężczyzna,2022-06-04_08h46.35.879,task,2021.1.4,Win32,59.69436485,628b806c463b948bc644b84f,629afed2c73149f0f46d6240,,,,,,,,,,,,,,,,,,,,,,,,,,,,,,,,,,,,,,,,,,,,,,,,,,,,,,,,,,,,,,,,,,,,,,,,,,,,,,,,,,,,,,,,,,,,,,,,,,,,,,,
,,"[""comma""]",0,[0.27520000004767553],18,0,18,0,1,5f8b41866245d7255a60d47e,22,Mężczyzna,2022-06-04_08h46.35.879,task,2021.1.4,Win32,59.69436485,628b806c463b948bc644b84f,629afed2c73149f0f46d6240,,,,,,,,,,,,,,,,,,,,,,,,,,,,,,,,,,,,,,,,,,,,,,,,,,,,,,,,,,,,,,,,,,,,,,,,,,,,,,,,,,,,,,,,,,,,,,,,,,,,,,,
,,"[""period""]",0,[0.24900000000002365],19,0,19,0,1,5f8b41866245d7255a60d47e,22,Mężczyzna,2022-06-04_08h46.35.879,task,2021.1.4,Win32,59.69436485,628b806c463b948bc644b84f,629afed2c73149f0f46d6240,,,,,,,,,,,,,,,,,,,,,,,,,,,,,,,,,,,,,,,,,,,,,,,,,,,,,,,,,,,,,,,,,,,,,,,,,,,,,,,,,,,,,,,,,,,,,,,,,,,,,,,
,,"[""comma""]",0,[0.296900000095377],20,0,20,0,1,5f8b41866245d7255a60d47e,22,Mężczyzna,2022-06-04_08h46.35.879,task,2021.1.4,Win32,59.69436485,628b806c463b948bc644b84f,629afed2c73149f0f46d6240,,,,,,,,,,,,,,,,,,,,,,,,,,,,,,,,,,,,,,,,,,,,,,,,,,,,,,,,,,,,,,,,,,,,,,,,,,,,,,,,,,,,,,,,,,,,,,,,,,,,,,,
,,"[""period""]",0,[0.43549999999999045],21,0,21,0,1,5f8b41866245d7255a60d47e,22,Mężczyzna,2022-06-04_08h46.35.879,task,2021.1.4,Win32,59.69436485,628b806c463b948bc644b84f,629afed2c73149f0f46d6240,,,,,,,,,,,,,,,,,,,,,,,,,,,,,,,,,,,,,,,,,,,,,,,,,,,,,,,,,,,,,,,,,,,,,,,,,,,,,,,,,,,,,,,,,,,,,,,,,,,,,,,
,,"[""comma""]",0,[0.2785999999045998],22,0,22,0,1,5f8b41866245d7255a60d47e,22,Mężczyzna,2022-06-04_08h46.35.879,task,2021.1.4,Win32,59.69436485,628b806c463b948bc644b84f,629afed2c73149f0f46d6240,,,,,,,,,,,,,,,,,,,,,,,,,,,,,,,,,,,,,,,,,,,,,,,,,,,,,,,,,,,,,,,,,,,,,,,,,,,,,,,,,,,,,,,,,,,,,,,,,,,,,,,
,,"[""comma""]",0,[0.2685999999046089],23,0,23,0,1,5f8b41866245d7255a60d47e,22,Mężczyzna,2022-06-04_08h46.35.879,task,2021.1.4,Win32,59.69436485,628b806c463b948bc644b84f,629afed2c73149f0f46d6240,,,,,,,,,,,,,,,,,,,,,,,,,,,,,,,,,,,,,,,,,,,,,,,,,,,,,,,,,,,,,,,,,,,,,,,,,,,,,,,,,,,,,,,,,,,,,,,,,,,,,,,
,,"[""period""]",0,[0.2812999999522958],24,0,24,0,1,5f8b41866245d7255a60d47e,22,Mężczyzna,2022-06-04_08h46.35.879,task,2021.1.4,Win32,59.69436485,628b806c463b948bc644b84f,629afed2c73149f0f46d6240,,,,,,,,,,,,,,,,,,,,,,,,,,,,,,,,,,,,,,,,,,,,,,,,,,,,,,,,,,,,,,,,,,,,,,,,,,,,,,,,,,,,,,,,,,,,,,,,,,,,,,,
,,"[""comma""]",0,[0.24450000000001637],25,0,25,0,1,5f8b41866245d7255a60d47e,22,Mężczyzna,2022-06-04_08h46.35.879,task,2021.1.4,Win32,59.69436485,628b806c463b948bc644b84f,629afed2c73149f0f46d6240,,,,,,,,,,,,,,,,,,,,,,,,,,,,,,,,,,,,,,,,,,,,,,,,,,,,,,,,,,,,,,,,,,,,,,,,,,,,,,,,,,,,,,,,,,,,,,,,,,,,,,,
,,"[""comma""]",0,[0.2722999999523381],26,0,26,0,1,5f8b41866245d7255a60d47e,22,Mężczyzna,2022-06-04_08h46.35.879,task,2021.1.4,Win32,59.69436485,628b806c463b948bc644b84f,629afed2c73149f0f46d6240,,,,,,,,,,,,,,,,,,,,,,,,,,,,,,,,,,,,,,,,,,,,,,,,,,,,,,,,,,,,,,,,,,,,,,,,,,,,,,,,,,,,,,,,,,,,,,,,,,,,,,,
,,"[""comma""]",0,[0.2522999999523563],27,0,27,0,1,5f8b41866245d7255a60d47e,22,Mężczyzna,2022-06-04_08h46.35.879,task,2021.1.4,Win32,59.69436485,628b806c463b948bc644b84f,629afed2c73149f0f46d6240,,,,,,,,,,,,,,,,,,,,,,,,,,,,,,,,,,,,,,,,,,,,,,,,,,,,,,,,,,,,,,,,,,,,,,,,,,,,,,,,,,,,,,,,,,,,,,,,,,,,,,,
,,"[""period""]",0,[0.23699999999996635],28,0,28,0,1,5f8b41866245d7255a60d47e,22,Mężczyzna,2022-06-04_08h46.35.879,task,2021.1.4,Win32,59.69436485,628b806c463b948bc644b84f,629afed2c73149f0f46d6240,,,,,,,,,,,,,,,,,,,,,,,,,,,,,,,,,,,,,,,,,,,,,,,,,,,,,,,,,,,,,,,,,,,,,,,,,,,,,,,,,,,,,,,,,,,,,,,,,,,,,,,
,,"[""comma""]",0,[0.2670999999046444],29,0,29,0,1,5f8b41866245d7255a60d47e,22,Mężczyzna,2022-06-04_08h46.35.879,task,2021.1.4,Win32,59.69436485,628b806c463b948bc644b84f,629afed2c73149f0f46d6240,,,,,,,,,,,,,,,,,,,,,,,,,,,,,,,,,,,,,,,,,,,,,,,,,,,,,,,,,,,,,,,,,,,,,,,,,,,,,,,,,,,,,,,,,,,,,,,,,,,,,,,
,,"[""comma""]",0,[0.2736000001430625],30,0,30,0,1,5f8b41866245d7255a60d47e,22,Mężczyzna,2022-06-04_08h46.35.879,task,2021.1.4,Win32,59.69436485,628b806c463b948bc644b84f,629afed2c73149f0f46d6240,,,,,,,,,,,,,,,,,,,,,,,,,,,,,,,,,,,,,,,,,,,,,,,,,,,,,,,,,,,,,,,,,,,,,,,,,,,,,,,,,,,,,,,,,,,,,,,,,,,,,,,
,,"[""comma""]",0,[0.26340000009537334],31,0,31,0,1,5f8b41866245d7255a60d47e,22,Mężczyzna,2022-06-04_08h46.35.879,task,2021.1.4,Win32,59.69436485,628b806c463b948bc644b84f,629afed2c73149f0f46d6240,,,,,,,,,,,,,,,,,,,,,,,,,,,,,,,,,,,,,,,,,,,,,,,,,,,,,,,,,,,,,,,,,,,,,,,,,,,,,,,,,,,,,,,,,,,,,,,,,,,,,,,
,,"[""period""]",0,[0.2555999999046321],32,0,32,0,1,5f8b41866245d7255a60d47e,22,Mężczyzna,2022-06-04_08h46.35.879,task,2021.1.4,Win32,59.69436485,628b806c463b948bc644b84f,629afed2c73149f0f46d6240,,,,,,,,,,,,,,,,,,,,,,,,,,,,,,,,,,,,,,,,,,,,,,,,,,,,,,,,,,,,,,,,,,,,,,,,,,,,,,,,,,,,,,,,,,,,,,,,,,,,,,,
,,"[""comma""]",0,[0.28489999985697523],33,0,33,0,1,5f8b41866245d7255a60d47e,22,Mężczyzna,2022-06-04_08h46.35.879,task,2021.1.4,Win32,59.69436485,628b806c463b948bc644b84f,629afed2c73149f0f46d6240,,,,,,,,,,,,,,,,,,,,,,,,,,,,,,,,,,,,,,,,,,,,,,,,,,,,,,,,,,,,,,,,,,,,,,,,,,,,,,,,,,,,,,,,,,,,,,,,,,,,,,,
,,"[""comma""]",0,[0.2296000001430798],34,0,34,0,1,5f8b41866245d7255a60d47e,22,Mężczyzna,2022-06-04_08h46.35.879,task,2021.1.4,Win32,59.69436485,628b806c463b948bc644b84f,629afed2c73149f0f46d6240,,,,,,,,,,,,,,,,,,,,,,,,,,,,,,,,,,,,,,,,,,,,,,,,,,,,,,,,,,,,,,,,,,,,,,,,,,,,,,,,,,,,,,,,,,,,,,,,,,,,,,,
,,"[""comma""]",0,[0.27670000004764006],35,0,35,0,1,5f8b41866245d7255a60d47e,22,Mężczyzna,2022-06-04_08h46.35.879,task,2021.1.4,Win32,59.69436485,628b806c463b948bc644b84f,629afed2c73149f0f46d6240,,,,,,,,,,,,,,,,,,,,,,,,,,,,,,,,,,,,,,,,,,,,,,,,,,,,,,,,,,,,,,,,,,,,,,,,,,,,,,,,,,,,,,,,,,,,,,,,,,,,,,,
,,"[""period""]",0,[0.31969999980924513],36,0,36,0,1,5f8b41866245d7255a60d47e,22,Mężczyzna,2022-06-04_08h46.35.879,task,2021.1.4,Win32,59.69436485,628b806c463b948bc644b84f,629afed2c73149f0f46d6240,,,,,,,,,,,,,,,,,,,,,,,,,,,,,,,,,,,,,,,,,,,,,,,,,,,,,,,,,,,,,,,,,,,,,,,,,,,,,,,,,,,,,,,,,,,,,,,,,,,,,,,
,,"[""comma""]",0,[0.16029999995231492],37,0,37,0,1,5f8b41866245d7255a60d47e,22,Mężczyzna,2022-06-04_08h46.35.879,task,2021.1.4,Win32,59.69436485,628b806c463b948bc644b84f,629afed2c73149f0f46d6240,,,,,,,,,,,,,,,,,,,,,,,,,,,,,,,,,,,,,,,,,,,,,,,,,,,,,,,,,,,,,,,,,,,,,,,,,,,,,,,,,,,,,,,,,,,,,,,,,,,,,,,
,,"[""period""]",0,[0.30439999985696886],38,0,38,0,1,5f8b41866245d7255a60d47e,22,Mężczyzna,2022-06-04_08h46.35.879,task,2021.1.4,Win32,59.69436485,628b806c463b948bc644b84f,629afed2c73149f0f46d6240,,,,,,,,,,,,,,,,,,,,,,,,,,,,,,,,,,,,,,,,,,,,,,,,,,,,,,,,,,,,,,,,,,,,,,,,,,,,,,,,,,,,,,,,,,,,,,,,,,,,,,,
,,"[""comma""]",0,[0.26740000009539244],39,0,39,0,1,5f8b41866245d7255a60d47e,22,Mężczyzna,2022-06-04_08h46.35.879,task,2021.1.4,Win32,59.69436485,628b806c463b948bc644b84f,629afed2c73149f0f46d6240,,,,,,,,,,,,,,,,,,,,,,,,,,,,,,,,,,,,,,,,,,,,,,,,,,,,,,,,,,,,,,,,,,,,,,,,,,,,,,,,,,,,,,,,,,,,,,,,,,,,,,,
,,"[""comma""]",0,[0.23950000000002092],40,0,40,0,1,5f8b41866245d7255a60d47e,22,Mężczyzna,2022-06-04_08h46.35.879,task,2021.1.4,Win32,59.69436485,628b806c463b948bc644b84f,629afed2c73149f0f46d6240,,,,,,,,,,,,,,,,,,,,,,,,,,,,,,,,,,,,,,,,,,,,,,,,,,,,,,,,,,,,,,,,,,,,,,,,,,,,,,,,,,,,,,,,,,,,,,,,,,,,,,,
,,"[""period""]",0,[0.3050000000000068],41,0,41,0,1,5f8b41866245d7255a60d47e,22,Mężczyzna,2022-06-04_08h46.35.879,task,2021.1.4,Win32,59.69436485,628b806c463b948bc644b84f,629afed2c73149f0f46d6240,,,,,,,,,,,,,,,,,,,,,,,,,,,,,,,,,,,,,,,,,,,,,,,,,,,,,,,,,,,,,,,,,,,,,,,,,,,,,,,,,,,,,,,,,,,,,,,,,,,,,,,
,,"[""comma""]",0,[0.3193999998568984],42,0,42,0,1,5f8b41866245d7255a60d47e,22,Mężczyzna,2022-06-04_08h46.35.879,task,2021.1.4,Win32,59.69436485,628b806c463b948bc644b84f,629afed2c73149f0f46d6240,,,,,,,,,,,,,,,,,,,,,,,,,,,,,,,,,,,,,,,,,,,,,,,,,,,,,,,,,,,,,,,,,,,,,,,,,,,,,,,,,,,,,,,,,,,,,,,,,,,,,,,
,,"[""period""]",0,[0.6802999999523536],43,0,43,0,1,5f8b41866245d7255a60d47e,22,Mężczyzna,2022-06-04_08h46.35.879,task,2021.1.4,Win32,59.69436485,628b806c463b948bc644b84f,629afed2c73149f0f46d6240,,,,,,,,,,,,,,,,,,,,,,,,,,,,,,,,,,,,,,,,,,,,,,,,,,,,,,,,,,,,,,,,,,,,,,,,,,,,,,,,,,,,,,,,,,,,,,,,,,,,,,,
,,"[""period""]",0,[0.5678999998569338],44,0,44,0,1,5f8b41866245d7255a60d47e,22,Mężczyzna,2022-06-04_08h46.35.879,task,2021.1.4,Win32,59.69436485,628b806c463b948bc644b84f,629afed2c73149f0f46d6240,,,,,,,,,,,,,,,,,,,,,,,,,,,,,,,,,,,,,,,,,,,,,,,,,,,,,,,,,,,,,,,,,,,,,,,,,,,,,,,,,,,,,,,,,,,,,,,,,,,,,,,
,,"[""period""]",0,[0.6026999998092606],45,0,45,0,1,5f8b41866245d7255a60d47e,22,Mężczyzna,2022-06-04_08h46.35.879,task,2021.1.4,Win32,59.69436485,628b806c463b948bc644b84f,629afed2c73149f0f46d6240,,,,,,,,,,,,,,,,,,,,,,,,,,,,,,,,,,,,,,,,,,,,,,,,,,,,,,,,,,,,,,,,,,,,,,,,,,,,,,,,,,,,,,,,,,,,,,,,,,,,,,,
,,"[""comma""]",0,[0.5515999999046244],46,0,46,0,1,5f8b41866245d7255a60d47e,22,Mężczyzna,2022-06-04_08h46.35.879,task,2021.1.4,Win32,59.69436485,628b806c463b948bc644b84f,629afed2c73149f0f46d6240,,,,,,,,,,,,,,,,,,,,,,,,,,,,,,,,,,,,,,,,,,,,,,,,,,,,,,,,,,,,,,,,,,,,,,,,,,,,,,,,,,,,,,,,,,,,,,,,,,,,,,,
,,"[""period""]",0,[0.4856000001430516],47,0,47,0,1,5f8b41866245d7255a60d47e,22,Mężczyzna,2022-06-04_08h46.35.879,task,2021.1.4,Win32,59.69436485,628b806c463b948bc644b84f,629afed2c73149f0f46d6240,,,,,,,,,,,,,,,,,,,,,,,,,,,,,,,,,,,,,,,,,,,,,,,,,,,,,,,,,,,,,,,,,,,,,,,,,,,,,,,,,,,,,,,,,,,,,,,,,,,,,,,
,,"[""comma""]",0,[0.2997000000476646],48,0,48,0,1,5f8b41866245d7255a60d47e,22,Mężczyzna,2022-06-04_08h46.35.879,task,2021.1.4,Win32,59.69436485,628b806c463b948bc644b84f,629afed2c73149f0f46d6240,,,,,,,,,,,,,,,,,,,,,,,,,,,,,,,,,,,,,,,,,,,,,,,,,,,,,,,,,,,,,,,,,,,,,,,,,,,,,,,,,,,,,,,,,,,,,,,,,,,,,,,
,,"[""comma""]",0,[0.2675000000000409],49,0,49,0,1,5f8b41866245d7255a60d47e,22,Mężczyzna,2022-06-04_08h46.35.879,task,2021.1.4,Win32,59.69436485,628b806c463b948bc644b84f,629afed2c73149f0f46d6240,,,,,,,,,,,,,,,,,,,,,,,,,,,,,,,,,,,,,,,,,,,,,,,,,,,,,,,,,,,,,,,,,,,,,,,,,,,,,,,,,,,,,,,,,,,,,,,,,,,,,,,
,,"[""period""]",0,[0.40540000009536925],50,0,50,0,1,5f8b41866245d7255a60d47e,22,Mężczyzna,2022-06-04_08h46.35.879,task,2021.1.4,Win32,59.69436485,628b806c463b948bc644b84f,629afed2c73149f0f46d6240,,,,,,,,,,,,,,,,,,,,,,,,,,,,,,,,,,,,,,,,,,,,,,,,,,,,,,,,,,,,,,,,,,,,,,,,,,,,,,,,,,,,,,,,,,,,,,,,,,,,,,,
,,"[""comma""]",0,[0.27029999995232856],51,0,51,0,1,5f8b41866245d7255a60d47e,22,Mężczyzna,2022-06-04_08h46.35.879,task,2021.1.4,Win32,59.69436485,628b806c463b948bc644b84f,629afed2c73149f0f46d6240,,,,,,,,,,,,,,,,,,,,,,,,,,,,,,,,,,,,,,,,,,,,,,,,,,,,,,,,,,,,,,,,,,,,,,,,,,,,,,,,,,,,,,,,,,,,,,,,,,,,,,,
,,"[""period""]",0,[0.27179999995234994],52,0,52,0,1,5f8b41866245d7255a60d47e,22,Mężczyzna,2022-06-04_08h46.35.879,task,2021.1.4,Win32,59.69436485,628b806c463b948bc644b84f,629afed2c73149f0f46d6240,,,,,,,,,,,,,,,,,,,,,,,,,,,,,,,,,,,,,,,,,,,,,,,,,,,,,,,,,,,,,,,,,,,,,,,,,,,,,,,,,,,,,,,,,,,,,,,,,,,,,,,
,,"[""period""]",0,[0.5251000001430839],53,0,53,0,1,5f8b41866245d7255a60d47e,22,Mężczyzna,2022-06-04_08h46.35.879,task,2021.1.4,Win32,59.69436485,628b806c463b948bc644b84f,629afed2c73149f0f46d6240,,,,,,,,,,,,,,,,,,,,,,,,,,,,,,,,,,,,,,,,,,,,,,,,,,,,,,,,,,,,,,,,,,,,,,,,,,,,,,,,,,,,,,,,,,,,,,,,,,,,,,,
,,"[""comma""]",0,[0.3947000000476919],54,0,54,0,1,5f8b41866245d7255a60d47e,22,Mężczyzna,2022-06-04_08h46.35.879,task,2021.1.4,Win32,59.69436485,628b806c463b948bc644b84f,629afed2c73149f0f46d6240,,,,,,,,,,,,,,,,,,,,,,,,,,,,,,,,,,,,,,,,,,,,,,,,,,,,,,,,,,,,,,,,,,,,,,,,,,,,,,,,,,,,,,,,,,,,,,,,,,,,,,,
,,"[""comma""]",0,[0.3337999999523049],55,0,55,0,1,5f8b41866245d7255a60d47e,22,Mężczyzna,2022-06-04_08h46.35.879,task,2021.1.4,Win32,59.69436485,628b806c463b948bc644b84f,629afed2c73149f0f46d6240,,,,,,,,,,,,,,,,,,,,,,,,,,,,,,,,,,,,,,,,,,,,,,,,,,,,,,,,,,,,,,,,,,,,,,,,,,,,,,,,,,,,,,,,,,,,,,,,,,,,,,,
,,"[""period""]",0,[0.35499999999996135],56,0,56,0,1,5f8b41866245d7255a60d47e,22,Mężczyzna,2022-06-04_08h46.35.879,task,2021.1.4,Win32,59.69436485,628b806c463b948bc644b84f,629afed2c73149f0f46d6240,,,,,,,,,,,,,,,,,,,,,,,,,,,,,,,,,,,,,,,,,,,,,,,,,,,,,,,,,,,,,,,,,,,,,,,,,,,,,,,,,,,,,,,,,,,,,,,,,,,,,,,
,,"[""comma""]",0,[0.2572999999522949],57,0,57,0,1,5f8b41866245d7255a60d47e,22,Mężczyzna,2022-06-04_08h46.35.879,task,2021.1.4,Win32,59.69436485,628b806c463b948bc644b84f,629afed2c73149f0f46d6240,,,,,,,,,,,,,,,,,,,,,,,,,,,,,,,,,,,,,,,,,,,,,,,,,,,,,,,,,,,,,,,,,,,,,,,,,,,,,,,,,,,,,,,,,,,,,,,,,,,,,,,
,,"[""comma""]",0,[0.4247999999523131],58,0,58,0,1,5f8b41866245d7255a60d47e,22,Mężczyzna,2022-06-04_08h46.35.879,task,2021.1.4,Win32,59.69436485,628b806c463b948bc644b84f,629afed2c73149f0f46d6240,,,,,,,,,,,,,,,,,,,,,,,,,,,,,,,,,,,,,,,,,,,,,,,,,,,,,,,,,,,,,,,,,,,,,,,,,,,,,,,,,,,,,,,,,,,,,,,,,,,,,,,
,,"[""comma""]",0,[0.3079000000954011],59,0,59,0,1,5f8b41866245d7255a60d47e,22,Mężczyzna,2022-06-04_08h46.35.879,task,2021.1.4,Win32,59.69436485,628b806c463b948bc644b84f,629afed2c73149f0f46d6240,,,,,,,,,,,,,,,,,,,,,,,,,,,,,,,,,,,,,,,,,,,,,,,,,,,,,,,,,,,,,,,,,,,,,,,,,,,,,,,,,,,,,,,,,,,,,,,,,,,,,,,
,,"[""period""]",0,[0.5004000000953397],60,0,60,0,1,5f8b41866245d7255a60d47e,22,Mężczyzna,2022-06-04_08h46.35.879,task,2021.1.4,Win32,59.69436485,628b806c463b948bc644b84f,629afed2c73149f0f46d6240,,,,,,,,,,,,,,,,,,,,,,,,,,,,,,,,,,,,,,,,,,,,,,,,,,,,,,,,,,,,,,,,,,,,,,,,,,,,,,,,,,,,,,,,,,,,,,,,,,,,,,,
,,"[""comma""]",0,[0.5804999999999723],61,0,61,0,1,5f8b41866245d7255a60d47e,22,Mężczyzna,2022-06-04_08h46.35.879,task,2021.1.4,Win32,59.69436485,628b806c463b948bc644b84f,629afed2c73149f0f46d6240,,,,,,,,,,,,,,,,,,,,,,,,,,,,,,,,,,,,,,,,,,,,,,,,,,,,,,,,,,,,,,,,,,,,,,,,,,,,,,,,,,,,,,,,,,,,,,,,,,,,,,,
,,"[""comma""]",0,[0.5749999999999886],62,0,62,0,1,5f8b41866245d7255a60d47e,22,Mężczyzna,2022-06-04_08h46.35.879,task,2021.1.4,Win32,59.69436485,628b806c463b948bc644b84f,629afed2c73149f0f46d6240,,,,,,,,,,,,,,,,,,,,,,,,,,,,,,,,,,,,,,,,,,,,,,,,,,,,,,,,,,,,,,,,,,,,,,,,,,,,,,,,,,,,,,,,,,,,,,,,,,,,,,,
,,"[""period""]",0,[0.3482999999523031],63,0,63,0,1,5f8b41866245d7255a60d47e,22,Mężczyzna,2022-06-04_08h46.35.879,task,2021.1.4,Win32,59.69436485,628b806c463b948bc644b84f,629afed2c73149f0f46d6240,,,,,,,,,,,,,,,,,,,,,,,,,,,,,,,,,,,,,,,,,,,,,,,,,,,,,,,,,,,,,,,,,,,,,,,,,,,,,,,,,,,,,,,,,,,,,,,,,,,,,,,
,,"[""comma""]",0,[0.2895000000000323],64,0,64,0,1,5f8b41866245d7255a60d47e,22,Mężczyzna,2022-06-04_08h46.35.879,task,2021.1.4,Win32,59.69436485,628b806c463b948bc644b84f,629afed2c73149f0f46d6240,,,,,,,,,,,,,,,,,,,,,,,,,,,,,,,,,,,,,,,,,,,,,,,,,,,,,,,,,,,,,,,,,,,,,,,,,,,,,,,,,,,,,,,,,,,,,,,,,,,,,,,
,,"[""comma""]",0,[0.3352000000476778],65,0,65,0,1,5f8b41866245d7255a60d47e,22,Mężczyzna,2022-06-04_08h46.35.879,task,2021.1.4,Win32,59.69436485,628b806c463b948bc644b84f,629afed2c73149f0f46d6240,,,,,,,,,,,,,,,,,,,,,,,,,,,,,,,,,,,,,,,,,,,,,,,,,,,,,,,,,,,,,,,,,,,,,,,,,,,,,,,,,,,,,,,,,,,,,,,,,,,,,,,
,,"[""period""]",0,[0.30309999990464576],66,0,66,0,1,5f8b41866245d7255a60d47e,22,Mężczyzna,2022-06-04_08h46.35.879,task,2021.1.4,Win32,59.69436485,628b806c463b948bc644b84f,629afed2c73149f0f46d6240,,,,,,,,,,,,,,,,,,,,,,,,,,,,,,,,,,,,,,,,,,,,,,,,,,,,,,,,,,,,,,,,,,,,,,,,,,,,,,,,,,,,,,,,,,,,,,,,,,,,,,,
,,"[""comma""]",0,[0.2759999999999536],67,0,67,0,1,5f8b41866245d7255a60d47e,22,Mężczyzna,2022-06-04_08h46.35.879,task,2021.1.4,Win32,59.69436485,628b806c463b948bc644b84f,629afed2c73149f0f46d6240,,,,,,,,,,,,,,,,,,,,,,,,,,,,,,,,,,,,,,,,,,,,,,,,,,,,,,,,,,,,,,,,,,,,,,,,,,,,,,,,,,,,,,,,,,,,,,,,,,,,,,,
,,"[""period""]",0,[0.2832000000476569],68,0,68,0,1,5f8b41866245d7255a60d47e,22,Mężczyzna,2022-06-04_08h46.35.879,task,2021.1.4,Win32,59.69436485,628b806c463b948bc644b84f,629afed2c73149f0f46d6240,,,,,,,,,,,,,,,,,,,,,,,,,,,,,,,,,,,,,,,,,,,,,,,,,,,,,,,,,,,,,,,,,,,,,,,,,,,,,,,,,,,,,,,,,,,,,,,,,,,,,,,
,,"[""comma""]",0,[0.33190000009534515],69,0,69,0,1,5f8b41866245d7255a60d47e,22,Mężczyzna,2022-06-04_08h46.35.879,task,2021.1.4,Win32,59.69436485,628b806c463b948bc644b84f,629afed2c73149f0f46d6240,,,,,,,,,,,,,,,,,,,,,,,,,,,,,,,,,,,,,,,,,,,,,,,,,,,,,,,,,,,,,,,,,,,,,,,,,,,,,,,,,,,,,,,,,,,,,,,,,,,,,,,
,,"[""period""]",0,[0.34429999995234084],70,0,70,0,1,5f8b41866245d7255a60d47e,22,Mężczyzna,2022-06-04_08h46.35.879,task,2021.1.4,Win32,59.69436485,628b806c463b948bc644b84f,629afed2c73149f0f46d6240,,,,,,,,,,,,,,,,,,,,,,,,,,,,,,,,,,,,,,,,,,,,,,,,,,,,,,,,,,,,,,,,,,,,,,,,,,,,,,,,,,,,,,,,,,,,,,,,,,,,,,,
,,"[""period""]",0,[0.1848999998569525],71,0,71,0,1,5f8b41866245d7255a60d47e,22,Mężczyzna,2022-06-04_08h46.35.879,task,2021.1.4,Win32,59.69436485,628b806c463b948bc644b84f,629afed2c73149f0f46d6240,,,,,,,,,,,,,,,,,,,,,,,,,,,,,,,,,,,,,,,,,,,,,,,,,,,,,,,,,,,,,,,,,,,,,,,,,,,,,,,,,,,,,,,,,,,,,,,,,,,,,,,
,,"[""comma""]",0,[0.295799999952294],72,0,72,0,1,5f8b41866245d7255a60d47e,22,Mężczyzna,2022-06-04_08h46.35.879,task,2021.1.4,Win32,59.69436485,628b806c463b948bc644b84f,629afed2c73149f0f46d6240,,,,,,,,,,,,,,,,,,,,,,,,,,,,,,,,,,,,,,,,,,,,,,,,,,,,,,,,,,,,,,,,,,,,,,,,,,,,,,,,,,,,,,,,,,,,,,,,,,,,,,,
,,"[""comma""]",0,[0.4343999998569643],73,0,73,0,1,5f8b41866245d7255a60d47e,22,Mężczyzna,2022-06-04_08h46.35.879,task,2021.1.4,Win32,59.69436485,628b806c463b948bc644b84f,629afed2c73149f0f46d6240,,,,,,,,,,,,,,,,,,,,,,,,,,,,,,,,,,,,,,,,,,,,,,,,,,,,,,,,,,,,,,,,,,,,,,,,,,,,,,,,,,,,,,,,,,,,,,,,,,,,,,,
,,"[""period""]",0,[0.48349999999999227],74,0,74,0,1,5f8b41866245d7255a60d47e,22,Mężczyzna,2022-06-04_08h46.35.879,task,2021.1.4,Win32,59.69436485,628b806c463b948bc644b84f,629afed2c73149f0f46d6240,,,,,,,,,,,,,,,,,,,,,,,,,,,,,,,,,,,,,,,,,,,,,,,,,,,,,,,,,,,,,,,,,,,,,,,,,,,,,,,,,,,,,,,,,,,,,,,,,,,,,,,
,,"[""period""]",0,[0.4784999999999968],75,0,75,0,1,5f8b41866245d7255a60d47e,22,Mężczyzna,2022-06-04_08h46.35.879,task,2021.1.4,Win32,59.69436485,628b806c463b948bc644b84f,629afed2c73149f0f46d6240,,,,,,,,,,,,,,,,,,,,,,,,,,,,,,,,,,,,,,,,,,,,,,,,,,,,,,,,,,,,,,,,,,,,,,,,,,,,,,,,,,,,,,,,,,,,,,,,,,,,,,,
,,"[""comma""]",0,[0.303900000095382],76,0,76,0,1,5f8b41866245d7255a60d47e,22,Mężczyzna,2022-06-04_08h46.35.879,task,2021.1.4,Win32,59.69436485,628b806c463b948bc644b84f,629afed2c73149f0f46d6240,,,,,,,,,,,,,,,,,,,,,,,,,,,,,,,,,,,,,,,,,,,,,,,,,,,,,,,,,,,,,,,,,,,,,,,,,,,,,,,,,,,,,,,,,,,,,,,,,,,,,,,
,,"[""comma""]",0,[0.24659999990461756],77,0,77,0,1,5f8b41866245d7255a60d47e,22,Mężczyzna,2022-06-04_08h46.35.879,task,2021.1.4,Win32,59.69436485,628b806c463b948bc644b84f,629afed2c73149f0f46d6240,,,,,,,,,,,,,,,,,,,,,,,,,,,,,,,,,,,,,,,,,,,,,,,,,,,,,,,,,,,,,,,,,,,,,,,,,,,,,,,,,,,,,,,,,,,,,,,,,,,,,,,
,,"[""comma""]",0,[0.26040000009538744],78,0,78,0,1,5f8b41866245d7255a60d47e,22,Mężczyzna,2022-06-04_08h46.35.879,task,2021.1.4,Win32,59.69436485,628b806c463b948bc644b84f,629afed2c73149f0f46d6240,,,,,,,,,,,,,,,,,,,,,,,,,,,,,,,,,,,,,,,,,,,,,,,,,,,,,,,,,,,,,,,,,,,,,,,,,,,,,,,,,,,,,,,,,,,,,,,,,,,,,,,
,,"[""period""]",0,[0.2512000000476746],79,0,79,0,1,5f8b41866245d7255a60d47e,22,Mężczyzna,2022-06-04_08h46.35.879,task,2021.1.4,Win32,59.69436485,628b806c463b948bc644b84f,629afed2c73149f0f46d6240,,,,,,,,,,,,,,,,,,,,,,,,,,,,,,,,,,,,,,,,,,,,,,,,,,,,,,,,,,,,,,,,,,,,,,,,,,,,,,,,,,,,,,,,,,,,,,,,,,,,,,,
,,"[""comma""]",0,[0.25870000004772464],80,0,80,0,1,5f8b41866245d7255a60d47e,22,Mężczyzna,2022-06-04_08h46.35.879,task,2021.1.4,Win32,59.69436485,628b806c463b948bc644b84f,629afed2c73149f0f46d6240,,,,,,,,,,,,,,,,,,,,,,,,,,,,,,,,,,,,,,,,,,,,,,,,,,,,,,,,,,,,,,,,,,,,,,,,,,,,,,,,,,,,,,,,,,,,,,,,,,,,,,,
,,"[""comma""]",0,[0.24840000009538699],81,0,81,0,1,5f8b41866245d7255a60d47e,22,Mężczyzna,2022-06-04_08h46.35.879,task,2021.1.4,Win32,59.69436485,628b806c463b948bc644b84f,629afed2c73149f0f46d6240,,,,,,,,,,,,,,,,,,,,,,,,,,,,,,,,,,,,,,,,,,,,,,,,,,,,,,,,,,,,,,,,,,,,,,,,,,,,,,,,,,,,,,,,,,,,,,,,,,,,,,,
,,"[""period""]",0,[0.24529999995229446],82,0,82,0,1,5f8b41866245d7255a60d47e,22,Mężczyzna,2022-06-04_08h46.35.879,task,2021.1.4,Win32,59.69436485,628b806c463b948bc644b84f,629afed2c73149f0f46d6240,,,,,,,,,,,,,,,,,,,,,,,,,,,,,,,,,,,,,,,,,,,,,,,,,,,,,,,,,,,,,,,,,,,,,,,,,,,,,,,,,,,,,,,,,,,,,,,,,,,,,,,
,,"[""period""]",0,[0.2743000001906921],83,0,83,0,1,5f8b41866245d7255a60d47e,22,Mężczyzna,2022-06-04_08h46.35.879,task,2021.1.4,Win32,59.69436485,628b806c463b948bc644b84f,629afed2c73149f0f46d6240,,,,,,,,,,,,,,,,,,,,,,,,,,,,,,,,,,,,,,,,,,,,,,,,,,,,,,,,,,,,,,,,,,,,,,,,,,,,,,,,,,,,,,,,,,,,,,,,,,,,,,,
,,"[""comma""]",0,[0.22540000009536243],84,0,84,0,1,5f8b41866245d7255a60d47e,22,Mężczyzna,2022-06-04_08h46.35.879,task,2021.1.4,Win32,59.69436485,628b806c463b948bc644b84f,629afed2c73149f0f46d6240,,,,,,,,,,,,,,,,,,,,,,,,,,,,,,,,,,,,,,,,,,,,,,,,,,,,,,,,,,,,,,,,,,,,,,,,,,,,,,,,,,,,,,,,,,,,,,,,,,,,,,,
,,"[""comma""]",0,[0.30049999999999955],85,0,85,0,1,5f8b41866245d7255a60d47e,22,Mężczyzna,2022-06-04_08h46.35.879,task,2021.1.4,Win32,59.69436485,628b806c463b948bc644b84f,629afed2c73149f0f46d6240,,,,,,,,,,,,,,,,,,,,,,,,,,,,,,,,,,,,,,,,,,,,,,,,,,,,,,,,,,,,,,,,,,,,,,,,,,,,,,,,,,,,,,,,,,,,,,,,,,,,,,,
,,"[""comma""]",0,[0.27340000009536425],86,0,86,0,1,5f8b41866245d7255a60d47e,22,Mężczyzna,2022-06-04_08h46.35.879,task,2021.1.4,Win32,59.69436485,628b806c463b948bc644b84f,629afed2c73149f0f46d6240,,,,,,,,,,,,,,,,,,,,,,,,,,,,,,,,,,,,,,,,,,,,,,,,,,,,,,,,,,,,,,,,,,,,,,,,,,,,,,,,,,,,,,,,,,,,,,,,,,,,,,,
,,"[""period""]",0,[0.37819999980928287],87,0,87,0,1,5f8b41866245d7255a60d47e,22,Mężczyzna,2022-06-04_08h46.35.879,task,2021.1.4,Win32,59.69436485,628b806c463b948bc644b84f,629afed2c73149f0f46d6240,,,,,,,,,,,,,,,,,,,,,,,,,,,,,,,,,,,,,,,,,,,,,,,,,,,,,,,,,,,,,,,,,,,,,,,,,,,,,,,,,,,,,,,,,,,,,,,,,,,,,,,
,,"[""period""]",0,[0.43560000014304023],88,0,88,0,1,5f8b41866245d7255a60d47e,22,Mężczyzna,2022-06-04_08h46.35.879,task,2021.1.4,Win32,59.69436485,628b806c463b948bc644b84f,629afed2c73149f0f46d6240,,,,,,,,,,,,,,,,,,,,,,,,,,,,,,,,,,,,,,,,,,,,,,,,,,,,,,,,,,,,,,,,,,,,,,,,,,,,,,,,,,,,,,,,,,,,,,,,,,,,,,,
,,"[""comma""]",0,[0.2889000000953388],89,0,89,0,1,5f8b41866245d7255a60d47e,22,Mężczyzna,2022-06-04_08h46.35.879,task,2021.1.4,Win32,59.69436485,628b806c463b948bc644b84f,629afed2c73149f0f46d6240,,,,,,,,,,,,,,,,,,,,,,,,,,,,,,,,,,,,,,,,,,,,,,,,,,,,,,,,,,,,,,,,,,,,,,,,,,,,,,,,,,,,,,,,,,,,,,,,,,,,,,,
,,"[""period""]",0,[0.28559999990466167],90,0,90,0,1,5f8b41866245d7255a60d47e,22,Mężczyzna,2022-06-04_08h46.35.879,task,2021.1.4,Win32,59.69436485,628b806c463b948bc644b84f,629afed2c73149f0f46d6240,,,,,,,,,,,,,,,,,,,,,,,,,,,,,,,,,,,,,,,,,,,,,,,,,,,,,,,,,,,,,,,,,,,,,,,,,,,,,,,,,,,,,,,,,,,,,,,,,,,,,,,
,,"[""comma""]",0,[0.2519000000954179],91,0,91,0,1,5f8b41866245d7255a60d47e,22,Mężczyzna,2022-06-04_08h46.35.879,task,2021.1.4,Win32,59.69436485,628b806c463b948bc644b84f,629afed2c73149f0f46d6240,,,,,,,,,,,,,,,,,,,,,,,,,,,,,,,,,,,,,,,,,,,,,,,,,,,,,,,,,,,,,,,,,,,,,,,,,,,,,,,,,,,,,,,,,,,,,,,,,,,,,,,
,,"[""period""]",0,[0.27690000009533833],92,0,92,0,1,5f8b41866245d7255a60d47e,22,Mężczyzna,2022-06-04_08h46.35.879,task,2021.1.4,Win32,59.69436485,628b806c463b948bc644b84f,629afed2c73149f0f46d6240,,,,,,,,,,,,,,,,,,,,,,,,,,,,,,,,,,,,,,,,,,,,,,,,,,,,,,,,,,,,,,,,,,,,,,,,,,,,,,,,,,,,,,,,,,,,,,,,,,,,,,,
,,"[""comma""]",0,[0.21659999990464485],93,0,93,0,1,5f8b41866245d7255a60d47e,22,Mężczyzna,2022-06-04_08h46.35.879,task,2021.1.4,Win32,59.69436485,628b806c463b948bc644b84f,629afed2c73149f0f46d6240,,,,,,,,,,,,,,,,,,,,,,,,,,,,,,,,,,,,,,,,,,,,,,,,,,,,,,,,,,,,,,,,,,,,,,,,,,,,,,,,,,,,,,,,,,,,,,,,,,,,,,,
,,"[""comma""]",0,[0.28600000000000136],94,0,94,0,1,5f8b41866245d7255a60d47e,22,Mężczyzna,2022-06-04_08h46.35.879,task,2021.1.4,Win32,59.69436485,628b806c463b948bc644b84f,629afed2c73149f0f46d6240,,,,,,,,,,,,,,,,,,,,,,,,,,,,,,,,,,,,,,,,,,,,,,,,,,,,,,,,,,,,,,,,,,,,,,,,,,,,,,,,,,,,,,,,,,,,,,,,,,,,,,,
,,"[""period""]",0,[0.2670999999046444],95,0,95,0,1,5f8b41866245d7255a60d47e,22,Mężczyzna,2022-06-04_08h46.35.879,task,2021.1.4,Win32,59.69436485,628b806c463b948bc644b84f,629afed2c73149f0f46d6240,,,,,,,,,,,,,,,,,,,,,,,,,,,,,,,,,,,,,,,,,,,,,,,,,,,,,,,,,,,,,,,,,,,,,,,,,,,,,,,,,,,,,,,,,,,,,,,,,,,,,,,
,,"[""period""]",0,[0.2967999999523272],96,0,96,0,1,5f8b41866245d7255a60d47e,22,Mężczyzna,2022-06-04_08h46.35.879,task,2021.1.4,Win32,59.69436485,628b806c463b948bc644b84f,629afed2c73149f0f46d6240,,,,,,,,,,,,,,,,,,,,,,,,,,,,,,,,,,,,,,,,,,,,,,,,,,,,,,,,,,,,,,,,,,,,,,,,,,,,,,,,,,,,,,,,,,,,,,,,,,,,,,,
,,"[""comma""]",0,[0.24509999990465303],97,0,97,0,1,5f8b41866245d7255a60d47e,22,Mężczyzna,2022-06-04_08h46.35.879,task,2021.1.4,Win32,59.69436485,628b806c463b948bc644b84f,629afed2c73149f0f46d6240,,,,,,,,,,,,,,,,,,,,,,,,,,,,,,,,,,,,,,,,,,,,,,,,,,,,,,,,,,,,,,,,,,,,,,,,,,,,,,,,,,,,,,,,,,,,,,,,,,,,,,,
,,"[""comma""]",0,[0.2588999998569079],98,0,98,0,1,5f8b41866245d7255a60d47e,22,Mężczyzna,2022-06-04_08h46.35.879,task,2021.1.4,Win32,59.69436485,628b806c463b948bc644b84f,629afed2c73149f0f46d6240,,,,,,,,,,,,,,,,,,,,,,,,,,,,,,,,,,,,,,,,,,,,,,,,,,,,,,,,,,,,,,,,,,,,,,,,,,,,,,,,,,,,,,,,,,,,,,,,,,,,,,,
,,"[""period""]",0,[0.25449999999995043],99,0,99,0,1,5f8b41866245d7255a60d47e,22,Mężczyzna,2022-06-04_08h46.35.879,task,2021.1.4,Win32,59.69436485,628b806c463b948bc644b84f,629afed2c73149f0f46d6240,,,,,,,,,,,,,,,,,,,,,,,,,,,,,,,,,,,,,,,,,,,,,,,,,,,,,,,,,,,,,,,,,,,,,,,,,,,,,,,,,,,,,,,,,,,,,,,,,,,,,,,
,,"[""comma""]",0,[0.27949999999998454],100,0,100,0,1,5f8b41866245d7255a60d47e,22,Mężczyzna,2022-06-04_08h46.35.879,task,2021.1.4,Win32,59.69436485,628b806c463b948bc644b84f,629afed2c73149f0f46d6240,,,,,,,,,,,,,,,,,,,,,,,,,,,,,,,,,,,,,,,,,,,,,,,,,,,,,,,,,,,,,,,,,,,,,,,,,,,,,,,,,,,,,,,,,,,,,,,,,,,,,,,
,,"[""period""]",0,[0.23559999990459346],101,0,101,0,1,5f8b41866245d7255a60d47e,22,Mężczyzna,2022-06-04_08h46.35.879,task,2021.1.4,Win32,59.69436485,628b806c463b948bc644b84f,629afed2c73149f0f46d6240,,,,,,,,,,,,,,,,,,,,,,,,,,,,,,,,,,,,,,,,,,,,,,,,,,,,,,,,,,,,,,,,,,,,,,,,,,,,,,,,,,,,,,,,,,,,,,,,,,,,,,,
,,"[""period""]",0,[0.24309999990464348],102,0,102,0,1,5f8b41866245d7255a60d47e,22,Mężczyzna,2022-06-04_08h46.35.879,task,2021.1.4,Win32,59.69436485,628b806c463b948bc644b84f,629afed2c73149f0f46d6240,,,,,,,,,,,,,,,,,,,,,,,,,,,,,,,,,,,,,,,,,,,,,,,,,,,,,,,,,,,,,,,,,,,,,,,,,,,,,,,,,,,,,,,,,,,,,,,,,,,,,,,
,,"[""comma""]",0,[0.25029999995234675],103,0,103,0,1,5f8b41866245d7255a60d47e,22,Mężczyzna,2022-06-04_08h46.35.879,task,2021.1.4,Win32,59.69436485,628b806c463b948bc644b84f,629afed2c73149f0f46d6240,,,,,,,,,,,,,,,,,,,,,,,,,,,,,,,,,,,,,,,,,,,,,,,,,,,,,,,,,,,,,,,,,,,,,,,,,,,,,,,,,,,,,,,,,,,,,,,,,,,,,,,
,,"[""period""]",0,[0.27510000014302705],104,0,104,0,1,5f8b41866245d7255a60d47e,22,Mężczyzna,2022-06-04_08h46.35.879,task,2021.1.4,Win32,59.69436485,628b806c463b948bc644b84f,629afed2c73149f0f46d6240,,,,,,,,,,,,,,,,,,,,,,,,,,,,,,,,,,,,,,,,,,,,,,,,,,,,,,,,,,,,,,,,,,,,,,,,,,,,,,,,,,,,,,,,,,,,,,,,,,,,,,,
,,"[""period""]",0,[0.30040000009535106],105,0,105,0,1,5f8b41866245d7255a60d47e,22,Mężczyzna,2022-06-04_08h46.35.879,task,2021.1.4,Win32,59.69436485,628b806c463b948bc644b84f,629afed2c73149f0f46d6240,,,,,,,,,,,,,,,,,,,,,,,,,,,,,,,,,,,,,,,,,,,,,,,,,,,,,,,,,,,,,,,,,,,,,,,,,,,,,,,,,,,,,,,,,,,,,,,,,,,,,,,
,,"[""comma""]",0,[0.3131999998092283],106,0,106,0,1,5f8b41866245d7255a60d47e,22,Mężczyzna,2022-06-04_08h46.35.879,task,2021.1.4,Win32,59.69436485,628b806c463b948bc644b84f,629afed2c73149f0f46d6240,,,,,,,,,,,,,,,,,,,,,,,,,,,,,,,,,,,,,,,,,,,,,,,,,,,,,,,,,,,,,,,,,,,,,,,,,,,,,,,,,,,,,,,,,,,,,,,,,,,,,,,
,,"[""comma""]",0,[0.26329999995232356],107,0,107,0,1,5f8b41866245d7255a60d47e,22,Mężczyzna,2022-06-04_08h46.35.879,task,2021.1.4,Win32,59.69436485,628b806c463b948bc644b84f,629afed2c73149f0f46d6240,,,,,,,,,,,,,,,,,,,,,,,,,,,,,,,,,,,,,,,,,,,,,,,,,,,,,,,,,,,,,,,,,,,,,,,,,,,,,,,,,,,,,,,,,,,,,,,,,,,,,,,
,,"[""comma""]",0,[0.5464999999999804],108,0,108,0,1,5f8b41866245d7255a60d47e,22,Mężczyzna,2022-06-04_08h46.35.879,task,2021.1.4,Win32,59.69436485,628b806c463b948bc644b84f,629afed2c73149f0f46d6240,,,,,,,,,,,,,,,,,,,,,,,,,,,,,,,,,,,,,,,,,,,,,,,,,,,,,,,,,,,,,,,,,,,,,,,,,,,,,,,,,,,,,,,,,,,,,,,,,,,,,,,
,,"[""period""]",0,[0.3487000000477565],109,0,109,0,1,5f8b41866245d7255a60d47e,22,Mężczyzna,2022-06-04_08h46.35.879,task,2021.1.4,Win32,59.69436485,628b806c463b948bc644b84f,629afed2c73149f0f46d6240,,,,,,,,,,,,,,,,,,,,,,,,,,,,,,,,,,,,,,,,,,,,,,,,,,,,,,,,,,,,,,,,,,,,,,,,,,,,,,,,,,,,,,,,,,,,,,,,,,,,,,,
,,"[""comma""]",0,[0.48160000014308935],110,0,110,0,1,5f8b41866245d7255a60d47e,22,Mężczyzna,2022-06-04_08h46.35.879,task,2021.1.4,Win32,59.69436485,628b806c463b948bc644b84f,629afed2c73149f0f46d6240,,,,,,,,,,,,,,,,,,,,,,,,,,,,,,,,,,,,,,,,,,,,,,,,,,,,,,,,,,,,,,,,,,,,,,,,,,,,,,,,,,,,,,,,,,,,,,,,,,,,,,,
,,"[""period""]",0,[0.5386000001431057],111,0,111,0,1,5f8b41866245d7255a60d47e,22,Mężczyzna,2022-06-04_08h46.35.879,task,2021.1.4,Win32,59.69436485,628b806c463b948bc644b84f,629afed2c73149f0f46d6240,,,,,,,,,,,,,,,,,,,,,,,,,,,,,,,,,,,,,,,,,,,,,,,,,,,,,,,,,,,,,,,,,,,,,,,,,,,,,,,,,,,,,,,,,,,,,,,,,,,,,,,
,,"[""comma""]",0,[0.3122000000477101],112,0,112,0,1,5f8b41866245d7255a60d47e,22,Mężczyzna,2022-06-04_08h46.35.879,task,2021.1.4,Win32,59.69436485,628b806c463b948bc644b84f,629afed2c73149f0f46d6240,,,,,,,,,,,,,,,,,,,,,,,,,,,,,,,,,,,,,,,,,,,,,,,,,,,,,,,,,,,,,,,,,,,,,,,,,,,,,,,,,,,,,,,,,,,,,,,,,,,,,,,
,,"[""period"",""period""]",0,"[0.00040000009539653547,0.988200000047641]",113,0,113,0,1,5f8b41866245d7255a60d47e,22,Mężczyzna,2022-06-04_08h46.35.879,task,2021.1.4,Win32,59.69436485,628b806c463b948bc644b84f,629afed2c73149f0f46d6240,,,,,,,,,,,,,,,,,,,,,,,,,,,,,,,,,,,,,,,,,,,,,,,,,,,,,,,,,,,,,,,,,,,,,,,,,,,,,,,,,,,,,,,,,,,,,,,,,,,,,,,
,,"[""comma""]",0,[1.0400000000000773],114,0,114,0,1,5f8b41866245d7255a60d47e,22,Mężczyzna,2022-06-04_08h46.35.879,task,2021.1.4,Win32,59.69436485,628b806c463b948bc644b84f,629afed2c73149f0f46d6240,,,,,,,,,,,,,,,,,,,,,,,,,,,,,,,,,,,,,,,,,,,,,,,,,,,,,,,,,,,,,,,,,,,,,,,,,,,,,,,,,,,,,,,,,,,,,,,,,,,,,,,
,,"[""period""]",0,[1.4929000000953465],115,0,115,0,1,5f8b41866245d7255a60d47e,22,Mężczyzna,2022-06-04_08h46.35.879,task,2021.1.4,Win32,59.69436485,628b806c463b948bc644b84f,629afed2c73149f0f46d6240,,,,,,,,,,,,,,,,,,,,,,,,,,,,,,,,,,,,,,,,,,,,,,,,,,,,,,,,,,,,,,,,,,,,,,,,,,,,,,,,,,,,,,,,,,,,,,,,,,,,,,,
,,,0,,116,0,116,0,1,5f8b41866245d7255a60d47e,22,Mężczyzna,2022-06-04_08h46.35.879,task,2021.1.4,Win32,59.69436485,628b806c463b948bc644b84f,629afed2c73149f0f46d6240,,,,,,,,,,,,,,,,,,,,,,,,,,,,,,,,,,,,,,,,,,,,,,,,,,,,,,,,,,,,,,,,,,,,,,,,,,,,,,,,,,,,,,,,,,,,,,,,,,,,,,,
,,"[""comma""]",0,[0.39709999990463984],117,0,117,0,1,5f8b41866245d7255a60d47e,22,Mężczyzna,2022-06-04_08h46.35.879,task,2021.1.4,Win32,59.69436485,628b806c463b948bc644b84f,629afed2c73149f0f46d6240,,,,,,,,,,,,,,,,,,,,,,,,,,,,,,,,,,,,,,,,,,,,,,,,,,,,,,,,,,,,,,,,,,,,,,,,,,,,,,,,,,,,,,,,,,,,,,,,,,,,,,,
,,"[""period""]",0,[0.3241999998093661],118,0,118,0,1,5f8b41866245d7255a60d47e,22,Mężczyzna,2022-06-04_08h46.35.879,task,2021.1.4,Win32,59.69436485,628b806c463b948bc644b84f,629afed2c73149f0f46d6240,,,,,,,,,,,,,,,,,,,,,,,,,,,,,,,,,,,,,,,,,,,,,,,,,,,,,,,,,,,,,,,,,,,,,,,,,,,,,,,,,,,,,,,,,,,,,,,,,,,,,,,
,,"[""comma""]",0,[0.3540999999046335],119,0,119,0,1,5f8b41866245d7255a60d47e,22,Mężczyzna,2022-06-04_08h46.35.879,task,2021.1.4,Win32,59.69436485,628b806c463b948bc644b84f,629afed2c73149f0f46d6240,,,,,,,,,,,,,,,,,,,,,,,,,,,,,,,,,,,,,,,,,,,,,,,,,,,,,,,,,,,,,,,,,,,,,,,,,,,,,,,,,,,,,,,,,,,,,,,,,,,,,,,
,,,,,,,,,,5f8b41866245d7255a60d47e,22,Mężczyzna,2022-06-04_08h46.35.879,task,2021.1.4,Win32,59.69436485,628b806c463b948bc644b84f,629afed2c73149f0f46d6240,space,167.9751,space,4.0089,0,0,0,0,1,X V Q F H G B L J M P D K C T S W R N Z,,,,,,,,,,,,,,,,,,,,,,,,,,,,,,,,,,,,,,,,,,,,,,,,,,,,,,,,,,,,,,,,,,,,,,,,,,,,,,,,,,,,,,,,,,,,,
,,,,,,,,,,5f8b41866245d7255a60d47e,22,Mężczyzna,2022-06-04_08h46.35.879,task,2021.1.4,Win32,59.69436485,628b806c463b948bc644b84f,629afed2c73149f0f46d6240,,,,,1,0,1,0,1,X V Q F H G B L J M P D K C T S W R N Z,,,,,,,,,,,,,,,,,,,,,,,,,,,,,,,,,,,,,,,,,,,,,,,,,,,,,,,,,,,,,,,,,,,,,,,,,,,,,,,,,,,,,,,,,,,,,
,,,,,,,,,,5f8b41866245d7255a60d47e,22,Mężczyzna,2022-06-04_08h46.35.879,task,2021.1.4,Win32,59.69436485,628b806c463b948bc644b84f,629afed2c73149f0f46d6240,,,,,,,,,,,zw,"[""z"",""w""]","[3.316000000000031,3.600999999999999,4.3086000001430875]",1,ZW,0,0,0,0,1,,,,,,,,,,,,,,,,,,,,,,,,,,,,,,,,,,,,,,,,,,,,,,,,,,,,,,,,,,,,,,,,,,,,,,,,,,,,,,,,,,,
,,,,,,,,,,5f8b41866245d7255a60d47e,22,Mężczyzna,2022-06-04_08h46.35.879,task,2021.1.4,Win32,59.69436485,628b806c463b948bc644b84f,629afed2c73149f0f46d6240,,,,,0,0,0,0,1,X V Q F H G B L J M P D K C T S W R N Z,,,,,,,,,,,,,,,,,,,,,,,,,,,,,,,,,,,,,,,,,,,,,,,,,,,,,,,,,,,,,,,,,,,,,,,,,,,,,,,,,,,,,,,,,,,,,
,,,,,,,,,,5f8b41866245d7255a60d47e,22,Mężczyzna,2022-06-04_08h46.35.879,task,2021.1.4,Win32,59.69436485,628b806c463b948bc644b84f,629afed2c73149f0f46d6240,,,,,1,0,1,0,1,X V Q F H G B L J M P D K C T S W R N Z,,,,,,,,,,,,,,,,,,,,,,,,,,,,,,,,,,,,,,,,,,,,,,,,,,,,,,,,,,,,,,,,,,,,,,,,,,,,,,,,,,,,,,,,,,,,,
,,,,,,,,,,5f8b41866245d7255a60d47e,22,Mężczyzna,2022-06-04_08h46.35.879,task,2021.1.4,Win32,59.69436485,628b806c463b948bc644b84f,629afed2c73149f0f46d6240,,,,,,,,,,,tv,"[""t"",""v""]","[1.344500000000039,1.5436999998092915,2.2736999998093097]",1,TV,1,0,1,0,1,,,,,,,,,,,,,,,,,,,,,,,,,,,,,,,,,,,,,,,,,,,,,,,,,,,,,,,,,,,,,,,,,,,,,,,,,,,,,,,,,,,
,,,,,,,,,,5f8b41866245d7255a60d47e,22,Mężczyzna,2022-06-04_08h46.35.879,task,2021.1.4,Win32,59.69436485,628b806c463b948bc644b84f,629afed2c73149f0f46d6240,,,,,0,0,0,0,1,X V Q F H G B L J M P D K C T S W R N Z,,,,,,,,,,,,,,,,,,,,,,,,,,,,,,,,,,,,,,,,,,,,,,,,,,,,,,,,,,,,,,,,,,,,,,,,,,,,,,,,,,,,,,,,,,,,,
,,,,,,,,,,5f8b41866245d7255a60d47e,22,Mężczyzna,2022-06-04_08h46.35.879,task,2021.1.4,Win32,59.69436485,628b806c463b948bc644b84f,629afed2c73149f0f46d6240,,,,,1,0,1,0,1,X V Q F H G B L J M P D K C T S W R N Z,,,,,,,,,,,,,,,,,,,,,,,,,,,,,,,,,,,,,,,,,,,,,,,,,,,,,,,,,,,,,,,,,,,,,,,,,,,,,,,,,,,,,,,,,,,,,
,,,,,,,,,,5f8b41866245d7255a60d47e,22,Mężczyzna,2022-06-04_08h46.35.879,task,2021.1.4,Win32,59.69436485,628b806c463b948bc644b84f,629afed2c73149f0f46d6240,,,,,2,0,2,0,1,X V Q F H G B L J M P D K C T S W R N Z,,,,,,,,,,,,,,,,,,,,,,,,,,,,,,,,,,,,,,,,,,,,,,,,,,,,,,,,,,,,,,,,,,,,,,,,,,,,,,,,,,,,,,,,,,,,,
,,,,,,,,,,5f8b41866245d7255a60d47e,22,Mężczyzna,2022-06-04_08h46.35.879,task,2021.1.4,Win32,59.69436485,628b806c463b948bc644b84f,629afed2c73149f0f46d6240,,,,,,,,,,,hpx,"[""h"",""p"",""x""]","[1.16729999995232,1.803900000095382,2.312000000000012,2.9010000000000673]",1,HPX,2,0,2,0,1,,,,,,,,,,,,,,,,,,,,,,,,,,,,,,,,,,,,,,,,,,,,,,,,,,,,,,,,,,,,,,,,,,,,,,,,,,,,,,,,,,,
,,,,,,,,,,5f8b41866245d7255a60d47e,22,Mężczyzna,2022-06-04_08h46.35.879,task,2021.1.4,Win32,59.69436485,628b806c463b948bc644b84f,629afed2c73149f0f46d6240,,,,,0,0,0,0,1,X V Q F H G B L J M P D K C T S W R N Z,,,,,,,,,,,,,,,,,,,,,,,,,,,,,,,,,,,,,,,,,,,,,,,,,,,,,,,,,,,,,,,,,,,,,,,,,,,,,,,,,,,,,,,,,,,,,
,,,,,,,,,,5f8b41866245d7255a60d47e,22,Mężczyzna,2022-06-04_08h46.35.879,task,2021.1.4,Win32,59.69436485,628b806c463b948bc644b84f,629afed2c73149f0f46d6240,,,,,1,0,1,0,1,X V Q F H G B L J M P D K C T S W R N Z,,,,,,,,,,,,,,,,,,,,,,,,,,,,,,,,,,,,,,,,,,,,,,,,,,,,,,,,,,,,,,,,,,,,,,,,,,,,,,,,,,,,,,,,,,,,,
,,,,,,,,,,5f8b41866245d7255a60d47e,22,Mężczyzna,2022-06-04_08h46.35.879,task,2021.1.4,Win32,59.69436485,628b806c463b948bc644b84f,629afed2c73149f0f46d6240,,,,,2,0,2,0,1,X V Q F H G B L J M P D K C T S W R N Z,,,,,,,,,,,,,,,,,,,,,,,,,,,,,,,,,,,,,,,,,,,,,,,,,,,,,,,,,,,,,,,,,,,,,,,,,,,,,,,,,,,,,,,,,,,,,
,,,,,,,,,,5f8b41866245d7255a60d47e,22,Mężczyzna,2022-06-04_08h46.35.879,task,2021.1.4,Win32,59.69436485,628b806c463b948bc644b84f,629afed2c73149f0f46d6240,,,,,,,,,,,bgv,"[""b"",""g"",""v""]","[2.3762999999522663,2.6327000000476346,2.8429000000953693,3.3619000000953747]",1,BGV,3,0,3,0,1,,,,,,,,,,,,,,,,,,,,,,,,,,,,,,,,,,,,,,,,,,,,,,,,,,,,,,,,,,,,,,,,,,,,,,,,,,,,,,,,,,,
,,,,,,,,,,5f8b41866245d7255a60d47e,22,Mężczyzna,2022-06-04_08h46.35.879,task,2021.1.4,Win32,59.69436485,628b806c463b948bc644b84f,629afed2c73149f0f46d6240,,,,,0,0,0,0,1,X V Q F H G B L J M P D K C T S W R N Z,,,,,,,,,,,,,,,,,,,,,,,,,,,,,,,,,,,,,,,,,,,,,,,,,,,,,,,,,,,,,,,,,,,,,,,,,,,,,,,,,,,,,,,,,,,,,
,,,,,,,,,,5f8b41866245d7255a60d47e,22,Mężczyzna,2022-06-04_08h46.35.879,task,2021.1.4,Win32,59.69436485,628b806c463b948bc644b84f,629afed2c73149f0f46d6240,,,,,1,0,1,0,1,X V Q F H G B L J M P D K C T S W R N Z,,,,,,,,,,,,,,,,,,,,,,,,,,,,,,,,,,,,,,,,,,,,,,,,,,,,,,,,,,,,,,,,,,,,,,,,,,,,,,,,,,,,,,,,,,,,,
,,,,,,,,,,5f8b41866245d7255a60d47e,22,Mężczyzna,2022-06-04_08h46.35.879,task,2021.1.4,Win32,59.69436485,628b806c463b948bc644b84f,629afed2c73149f0f46d6240,,,,,2,0,2,0,1,X V Q F H G B L J M P D K C T S W R N Z,,,,,,,,,,,,,,,,,,,,,,,,,,,,,,,,,,,,,,,,,,,,,,,,,,,,,,,,,,,,,,,,,,,,,,,,,,,,,,,,,,,,,,,,,,,,,
,,,,,,,,,,5f8b41866245d7255a60d47e,22,Mężczyzna,2022-06-04_08h46.35.879,task,2021.1.4,Win32,59.69436485,628b806c463b948bc644b84f,629afed2c73149f0f46d6240,,,,,3,0,3,0,1,X V Q F H G B L J M P D K C T S W R N Z,,,,,,,,,,,,,,,,,,,,,,,,,,,,,,,,,,,,,,,,,,,,,,,,,,,,,,,,,,,,,,,,,,,,,,,,,,,,,,,,,,,,,,,,,,,,,
,,,,,,,,,,5f8b41866245d7255a60d47e,22,Mężczyzna,2022-06-04_08h46.35.879,task,2021.1.4,Win32,59.69436485,628b806c463b948bc644b84f,629afed2c73149f0f46d6240,,,,,,,,,,,fqmn,"[""f"",""q"",""m"",""n""]","[1.1718000001908422,1.7868000001907376,2.3350000000000364,2.5060000000000855,3.0244000000953974]",1,FQMN,4,0,4,0,1,,,,,,,,,,,,,,,,,,,,,,,,,,,,,,,,,,,,,,,,,,,,,,,,,,,,,,,,,,,,,,,,,,,,,,,,,,,,,,,,,,,
,,,,,,,,,,5f8b41866245d7255a60d47e,22,Mężczyzna,2022-06-04_08h46.35.879,task,2021.1.4,Win32,59.69436485,628b806c463b948bc644b84f,629afed2c73149f0f46d6240,,,,,0,0,0,0,1,X V Q F H G B L J M P D K C T S W R N Z,,,,,,,,,,,,,,,,,,,,,,,,,,,,,,,,,,,,,,,,,,,,,,,,,,,,,,,,,,,,,,,,,,,,,,,,,,,,,,,,,,,,,,,,,,,,,
,,,,,,,,,,5f8b41866245d7255a60d47e,22,Mężczyzna,2022-06-04_08h46.35.879,task,2021.1.4,Win32,59.69436485,628b806c463b948bc644b84f,629afed2c73149f0f46d6240,,,,,1,0,1,0,1,X V Q F H G B L J M P D K C T S W R N Z,,,,,,,,,,,,,,,,,,,,,,,,,,,,,,,,,,,,,,,,,,,,,,,,,,,,,,,,,,,,,,,,,,,,,,,,,,,,,,,,,,,,,,,,,,,,,
,,,,,,,,,,5f8b41866245d7255a60d47e,22,Mężczyzna,2022-06-04_08h46.35.879,task,2021.1.4,Win32,59.69436485,628b806c463b948bc644b84f,629afed2c73149f0f46d6240,,,,,2,0,2,0,1,X V Q F H G B L J M P D K C T S W R N Z,,,,,,,,,,,,,,,,,,,,,,,,,,,,,,,,,,,,,,,,,,,,,,,,,,,,,,,,,,,,,,,,,,,,,,,,,,,,,,,,,,,,,,,,,,,,,
,,,,,,,,,,5f8b41866245d7255a60d47e,22,Mężczyzna,2022-06-04_08h46.35.879,task,2021.1.4,Win32,59.69436485,628b806c463b948bc644b84f,629afed2c73149f0f46d6240,,,,,3,0,3,0,1,X V Q F H G B L J M P D K C T S W R N Z,,,,,,,,,,,,,,,,,,,,,,,,,,,,,,,,,,,,,,,,,,,,,,,,,,,,,,,,,,,,,,,,,,,,,,,,,,,,,,,,,,,,,,,,,,,,,
,,,,,,,,,,5f8b41866245d7255a60d47e,22,Mężczyzna,2022-06-04_08h46.35.879,task,2021.1.4,Win32,59.69436485,628b806c463b948bc644b84f,629afed2c73149f0f46d6240,,,,,,,,,,,cdcw,"[""c"",""d"",""c"",""w""]","[6.861699999809275,7.199000000000069,7.449199999809366,8.441399999857026,9.091399999857003]",1,CDCW,5,0,5,0,1,,,,,,,,,,,,,,,,,,,,,,,,,,,,,,,,,,,,,,,,,,,,,,,,,,,,,,,,,,,,,,,,,,,,,,,,,,,,,,,,,,,
,,,,,,,,,,5f8b41866245d7255a60d47e,22,Mężczyzna,2022-06-04_08h46.35.879,task,2021.1.4,Win32,59.69436485,628b806c463b948bc644b84f,629afed2c73149f0f46d6240,,,,,0,0,0,0,1,X V Q F H G B L J M P D K C T S W R N Z,,,,,,,,,,,,,,,,,,,,,,,,,,,,,,,,,,,,,,,,,,,,,,,,,,,,,,,,,,,,,,,,,,,,,,,,,,,,,,,,,,,,,,,,,,,,,
,,,,,,,,,,5f8b41866245d7255a60d47e,22,Mężczyzna,2022-06-04_08h46.35.879,task,2021.1.4,Win32,59.69436485,628b806c463b948bc644b84f,629afed2c73149f0f46d6240,,,,,1,0,1,0,1,X V Q F H G B L J M P D K C T S W R N Z,,,,,,,,,,,,,,,,,,,,,,,,,,,,,,,,,,,,,,,,,,,,,,,,,,,,,,,,,,,,,,,,,,,,,,,,,,,,,,,,,,,,,,,,,,,,,
,,,,,,,,,,5f8b41866245d7255a60d47e,22,Mężczyzna,2022-06-04_08h46.35.879,task,2021.1.4,Win32,59.69436485,628b806c463b948bc644b84f,629afed2c73149f0f46d6240,,,,,2,0,2,0,1,X V Q F H G B L J M P D K C T S W R N Z,,,,,,,,,,,,,,,,,,,,,,,,,,,,,,,,,,,,,,,,,,,,,,,,,,,,,,,,,,,,,,,,,,,,,,,,,,,,,,,,,,,,,,,,,,,,,
,,,,,,,,,,5f8b41866245d7255a60d47e,22,Mężczyzna,2022-06-04_08h46.35.879,task,2021.1.4,Win32,59.69436485,628b806c463b948bc644b84f,629afed2c73149f0f46d6240,,,,,3,0,3,0,1,X V Q F H G B L J M P D K C T S W R N Z,,,,,,,,,,,,,,,,,,,,,,,,,,,,,,,,,,,,,,,,,,,,,,,,,,,,,,,,,,,,,,,,,,,,,,,,,,,,,,,,,,,,,,,,,,,,,
,,,,,,,,,,5f8b41866245d7255a60d47e,22,Mężczyzna,2022-06-04_08h46.35.879,task,2021.1.4,Win32,59.69436485,628b806c463b948bc644b84f,629afed2c73149f0f46d6240,,,,,4,0,4,0,1,X V Q F H G B L J M P D K C T S W R N Z,,,,,,,,,,,,,,,,,,,,,,,,,,,,,,,,,,,,,,,,,,,,,,,,,,,,,,,,,,,,,,,,,,,,,,,,,,,,,,,,,,,,,,,,,,,,,
,,,,,,,,,,5f8b41866245d7255a60d47e,22,Mężczyzna,2022-06-04_08h46.35.879,task,2021.1.4,Win32,59.69436485,628b806c463b948bc644b84f,629afed2c73149f0f46d6240,,,,,,,,,,,psfgj,"[""p"",""s"",""f"",""g"",""j""]","[1.4234000000952847,1.9372000000475964,4.194100000142953,5.459799999952224,6.794100000142976,7.232900000095356]",0,PSGFJ,6,0,6,0,1,,,,,,,,,,,,,,,,,,,,,,,,,,,,,,,,,,,,,,,,,,,,,,,,,,,,,,,,,,,,,,,,,,,,,,,,,,,,,,,,,,,
,,,,,,,,,,5f8b41866245d7255a60d47e,22,Mężczyzna,2022-06-04_08h46.35.879,task,2021.1.4,Win32,59.69436485,628b806c463b948bc644b84f,629afed2c73149f0f46d6240,,,,,0,0,0,0,1,X V Q F H G B L J M P D K C T S W R N Z,,,,,,,,,,,,,,,,,,,,,,,,,,,,,,,,,,,,,,,,,,,,,,,,,,,,,,,,,,,,,,,,,,,,,,,,,,,,,,,,,,,,,,,,,,,,,
,,,,,,,,,,5f8b41866245d7255a60d47e,22,Mężczyzna,2022-06-04_08h46.35.879,task,2021.1.4,Win32,59.69436485,628b806c463b948bc644b84f,629afed2c73149f0f46d6240,,,,,1,0,1,0,1,X V Q F H G B L J M P D K C T S W R N Z,,,,,,,,,,,,,,,,,,,,,,,,,,,,,,,,,,,,,,,,,,,,,,,,,,,,,,,,,,,,,,,,,,,,,,,,,,,,,,,,,,,,,,,,,,,,,
,,,,,,,,,,5f8b41866245d7255a60d47e,22,Mężczyzna,2022-06-04_08h46.35.879,task,2021.1.4,Win32,59.69436485,628b806c463b948bc644b84f,629afed2c73149f0f46d6240,,,,,2,0,2,0,1,X V Q F H G B L J M P D K C T S W R N Z,,,,,,,,,,,,,,,,,,,,,,,,,,,,,,,,,,,,,,,,,,,,,,,,,,,,,,,,,,,,,,,,,,,,,,,,,,,,,,,,,,,,,,,,,,,,,
,,,,,,,,,,5f8b41866245d7255a60d47e,22,Mężczyzna,2022-06-04_08h46.35.879,task,2021.1.4,Win32,59.69436485,628b806c463b948bc644b84f,629afed2c73149f0f46d6240,,,,,3,0,3,0,1,X V Q F H G B L J M P D K C T S W R N Z,,,,,,,,,,,,,,,,,,,,,,,,,,,,,,,,,,,,,,,,,,,,,,,,,,,,,,,,,,,,,,,,,,,,,,,,,,,,,,,,,,,,,,,,,,,,,
,,,,,,,,,,5f8b41866245d7255a60d47e,22,Mężczyzna,2022-06-04_08h46.35.879,task,2021.1.4,Win32,59.69436485,628b806c463b948bc644b84f,629afed2c73149f0f46d6240,,,,,4,0,4,0,1,X V Q F H G B L J M P D K C T S W R N Z,,,,,,,,,,,,,,,,,,,,,,,,,,,,,,,,,,,,,,,,,,,,,,,,,,,,,,,,,,,,,,,,,,,,,,,,,,,,,,,,,,,,,,,,,,,,,
,,,,,,,,,,5f8b41866245d7255a60d47e,22,Mężczyzna,2022-06-04_08h46.35.879,task,2021.1.4,Win32,59.69436485,628b806c463b948bc644b84f,629afed2c73149f0f46d6240,,,,,,,,,,,rtbsv,"[""r"",""t"",""b"",""s"",""v""]","[0.9199999999999591,1.1018000001906785,1.4344000000953656,1.7338000001907403,1.9794999999999163,2.8054000000953465]",1,RTBSV,7,0,7,0,1,,,,,,,,,,,,,,,,,,,,,,,,,,,,,,,,,,,,,,,,,,,,,,,,,,,,,,,,,,,,,,,,,,,,,,,,,,,,,,,,,,,
,,,,,,,,,,5f8b41866245d7255a60d47e,22,Mężczyzna,2022-06-04_08h46.35.879,task,2021.1.4,Win32,59.69436485,628b806c463b948bc644b84f,629afed2c73149f0f46d6240,,,,,0,0,0,0,1,X V Q F H G B L J M P D K C T S W R N Z,,,,,,,,,,,,,,,,,,,,,,,,,,,,,,,,,,,,,,,,,,,,,,,,,,,,,,,,,,,,,,,,,,,,,,,,,,,,,,,,,,,,,,,,,,,,,
,,,,,,,,,,5f8b41866245d7255a60d47e,22,Mężczyzna,2022-06-04_08h46.35.879,task,2021.1.4,Win32,59.69436485,628b806c463b948bc644b84f,629afed2c73149f0f46d6240,,,,,1,0,1,0,1,X V Q F H G B L J M P D K C T S W R N Z,,,,,,,,,,,,,,,,,,,,,,,,,,,,,,,,,,,,,,,,,,,,,,,,,,,,,,,,,,,,,,,,,,,,,,,,,,,,,,,,,,,,,,,,,,,,,
,,,,,,,,,,5f8b41866245d7255a60d47e,22,Mężczyzna,2022-06-04_08h46.35.879,task,2021.1.4,Win32,59.69436485,628b806c463b948bc644b84f,629afed2c73149f0f46d6240,,,,,2,0,2,0,1,X V Q F H G B L J M P D K C T S W R N Z,,,,,,,,,,,,,,,,,,,,,,,,,,,,,,,,,,,,,,,,,,,,,,,,,,,,,,,,,,,,,,,,,,,,,,,,,,,,,,,,,,,,,,,,,,,,,
,,,,,,,,,,5f8b41866245d7255a60d47e,22,Mężczyzna,2022-06-04_08h46.35.879,task,2021.1.4,Win32,59.69436485,628b806c463b948bc644b84f,629afed2c73149f0f46d6240,,,,,3,0,3,0,1,X V Q F H G B L J M P D K C T S W R N Z,,,,,,,,,,,,,,,,,,,,,,,,,,,,,,,,,,,,,,,,,,,,,,,,,,,,,,,,,,,,,,,,,,,,,,,,,,,,,,,,,,,,,,,,,,,,,
,,,,,,,,,,5f8b41866245d7255a60d47e,22,Mężczyzna,2022-06-04_08h46.35.879,task,2021.1.4,Win32,59.69436485,628b806c463b948bc644b84f,629afed2c73149f0f46d6240,,,,,4,0,4,0,1,X V Q F H G B L J M P D K C T S W R N Z,,,,,,,,,,,,,,,,,,,,,,,,,,,,,,,,,,,,,,,,,,,,,,,,,,,,,,,,,,,,,,,,,,,,,,,,,,,,,,,,,,,,,,,,,,,,,
,,,,,,,,,,5f8b41866245d7255a60d47e,22,Mężczyzna,2022-06-04_08h46.35.879,task,2021.1.4,Win32,59.69436485,628b806c463b948bc644b84f,629afed2c73149f0f46d6240,,,,,,,,,,,ngcvr,"[""n"",""g"",""c"",""v"",""r""]","[1.1124000000953629,1.6366000001429484,2.2064000000953,2.5314999999999372,2.9319999999999027,3.603999999999928]",1,NGCVR,8,0,8,0,1,,,,,,,,,,,,,,,,,,,,,,,,,,,,,,,,,,,,,,,,,,,,,,,,,,,,,,,,,,,,,,,,,,,,,,,,,,,,,,,,,,,
,,,,,,,,,,5f8b41866245d7255a60d47e,22,Mężczyzna,2022-06-04_08h46.35.879,task,2021.1.4,Win32,59.69436485,628b806c463b948bc644b84f,629afed2c73149f0f46d6240,,,,,0,0,0,0,1,X V Q F H G B L J M P D K C T S W R N Z,,,,,,,,,,,,,,,,,,,,,,,,,,,,,,,,,,,,,,,,,,,,,,,,,,,,,,,,,,,,,,,,,,,,,,,,,,,,,,,,,,,,,,,,,,,,,
,,,,,,,,,,5f8b41866245d7255a60d47e,22,Mężczyzna,2022-06-04_08h46.35.879,task,2021.1.4,Win32,59.69436485,628b806c463b948bc644b84f,629afed2c73149f0f46d6240,,,,,1,0,1,0,1,X V Q F H G B L J M P D K C T S W R N Z,,,,,,,,,,,,,,,,,,,,,,,,,,,,,,,,,,,,,,,,,,,,,,,,,,,,,,,,,,,,,,,,,,,,,,,,,,,,,,,,,,,,,,,,,,,,,
,,,,,,,,,,5f8b41866245d7255a60d47e,22,Mężczyzna,2022-06-04_08h46.35.879,task,2021.1.4,Win32,59.69436485,628b806c463b948bc644b84f,629afed2c73149f0f46d6240,,,,,2,0,2,0,1,X V Q F H G B L J M P D K C T S W R N Z,,,,,,,,,,,,,,,,,,,,,,,,,,,,,,,,,,,,,,,,,,,,,,,,,,,,,,,,,,,,,,,,,,,,,,,,,,,,,,,,,,,,,,,,,,,,,
,,,,,,,,,,5f8b41866245d7255a60d47e,22,Mężczyzna,2022-06-04_08h46.35.879,task,2021.1.4,Win32,59.69436485,628b806c463b948bc644b84f,629afed2c73149f0f46d6240,,,,,3,0,3,0,1,X V Q F H G B L J M P D K C T S W R N Z,,,,,,,,,,,,,,,,,,,,,,,,,,,,,,,,,,,,,,,,,,,,,,,,,,,,,,,,,,,,,,,,,,,,,,,,,,,,,,,,,,,,,,,,,,,,,
,,,,,,,,,,5f8b41866245d7255a60d47e,22,Mężczyzna,2022-06-04_08h46.35.879,task,2021.1.4,Win32,59.69436485,628b806c463b948bc644b84f,629afed2c73149f0f46d6240,,,,,4,0,4,0,1,X V Q F H G B L J M P D K C T S W R N Z,,,,,,,,,,,,,,,,,,,,,,,,,,,,,,,,,,,,,,,,,,,,,,,,,,,,,,,,,,,,,,,,,,,,,,,,,,,,,,,,,,,,,,,,,,,,,
,,,,,,,,,,5f8b41866245d7255a60d47e,22,Mężczyzna,2022-06-04_08h46.35.879,task,2021.1.4,Win32,59.69436485,628b806c463b948bc644b84f,629afed2c73149f0f46d6240,,,,,5,0,5,0,1,X V Q F H G B L J M P D K C T S W R N Z,,,,,,,,,,,,,,,,,,,,,,,,,,,,,,,,,,,,,,,,,,,,,,,,,,,,,,,,,,,,,,,,,,,,,,,,,,,,,,,,,,,,,,,,,,,,,
,,,,,,,,,,5f8b41866245d7255a60d47e,22,Mężczyzna,2022-06-04_08h46.35.879,task,2021.1.4,Win32,59.69436485,628b806c463b948bc644b84f,629afed2c73149f0f46d6240,,,,,,,,,,,vpkwgwp,"[""v"",""p"",""k"",""w"",""g"",""w"",""p""]","[1.0769999999999982,1.5614000000953183,2.115799999952287,3.2942999999522726,3.97820000004765,4.292200000047615,4.662099999904626,5.106999999999971]",0,VPKGWP,9,0,9,0,1,,,,,,,,,,,,,,,,,,,,,,,,,,,,,,,,,,,,,,,,,,,,,,,,,,,,,,,,,,,,,,,,,,,,,,,,,,,,,,,,,,,
,,,,,,,,,,5f8b41866245d7255a60d47e,22,Mężczyzna,2022-06-04_08h46.35.879,task,2021.1.4,Win32,59.69436485,628b806c463b948bc644b84f,629afed2c73149f0f46d6240,,,,,0,0,0,0,1,X V Q F H G B L J M P D K C T S W R N Z,,,,,,,,,,,,,,,,,,,,,,,,,,,,,,,,,,,,,,,,,,,,,,,,,,,,,,,,,,,,,,,,,,,,,,,,,,,,,,,,,,,,,,,,,,,,,
,,,,,,,,,,5f8b41866245d7255a60d47e,22,Mężczyzna,2022-06-04_08h46.35.879,task,2021.1.4,Win32,59.69436485,628b806c463b948bc644b84f,629afed2c73149f0f46d6240,,,,,1,0,1,0,1,X V Q F H G B L J M P D K C T S W R N Z,,,,,,,,,,,,,,,,,,,,,,,,,,,,,,,,,,,,,,,,,,,,,,,,,,,,,,,,,,,,,,,,,,,,,,,,,,,,,,,,,,,,,,,,,,,,,
,,,,,,,,,,5f8b41866245d7255a60d47e,22,Mężczyzna,2022-06-04_08h46.35.879,task,2021.1.4,Win32,59.69436485,628b806c463b948bc644b84f,629afed2c73149f0f46d6240,,,,,2,0,2,0,1,X V Q F H G B L J M P D K C T S W R N Z,,,,,,,,,,,,,,,,,,,,,,,,,,,,,,,,,,,,,,,,,,,,,,,,,,,,,,,,,,,,,,,,,,,,,,,,,,,,,,,,,,,,,,,,,,,,,
,,,,,,,,,,5f8b41866245d7255a60d47e,22,Mężczyzna,2022-06-04_08h46.35.879,task,2021.1.4,Win32,59.69436485,628b806c463b948bc644b84f,629afed2c73149f0f46d6240,,,,,3,0,3,0,1,X V Q F H G B L J M P D K C T S W R N Z,,,,,,,,,,,,,,,,,,,,,,,,,,,,,,,,,,,,,,,,,,,,,,,,,,,,,,,,,,,,,,,,,,,,,,,,,,,,,,,,,,,,,,,,,,,,,
,,,,,,,,,,5f8b41866245d7255a60d47e,22,Mężczyzna,2022-06-04_08h46.35.879,task,2021.1.4,Win32,59.69436485,628b806c463b948bc644b84f,629afed2c73149f0f46d6240,,,,,4,0,4,0,1,X V Q F H G B L J M P D K C T S W R N Z,,,,,,,,,,,,,,,,,,,,,,,,,,,,,,,,,,,,,,,,,,,,,,,,,,,,,,,,,,,,,,,,,,,,,,,,,,,,,,,,,,,,,,,,,,,,,
,,,,,,,,,,5f8b41866245d7255a60d47e,22,Mężczyzna,2022-06-04_08h46.35.879,task,2021.1.4,Win32,59.69436485,628b806c463b948bc644b84f,629afed2c73149f0f46d6240,,,,,5,0,5,0,1,X V Q F H G B L J M P D K C T S W R N Z,,,,,,,,,,,,,,,,,,,,,,,,,,,,,,,,,,,,,,,,,,,,,,,,,,,,,,,,,,,,,,,,,,,,,,,,,,,,,,,,,,,,,,,,,,,,,
,,,,,,,,,,5f8b41866245d7255a60d47e,22,Mężczyzna,2022-06-04_08h46.35.879,task,2021.1.4,Win32,59.69436485,628b806c463b948bc644b84f,629afed2c73149f0f46d6240,,,,,,,,,,,zmkzdd,"[""z"",""m"",""k"",""z"",""d"",""d""]","[1.587299999952279,2.1564999999999372,3.3144999999999527,4.033099999904607,4.288799999952289,4.471499999999992,5.224499999999921]",1,ZMKZDD,10,0,10,0,1,,,,,,,,,,,,,,,,,,,,,,,,,,,,,,,,,,,,,,,,,,,,,,,,,,,,,,,,,,,,,,,,,,,,,,,,,,,,,,,,,,,
,,,,,,,,,,5f8b41866245d7255a60d47e,22,Mężczyzna,2022-06-04_08h46.35.879,task,2021.1.4,Win32,59.69436485,628b806c463b948bc644b84f,629afed2c73149f0f46d6240,,,,,0,0,0,0,1,X V Q F H G B L J M P D K C T S W R N Z,,,,,,,,,,,,,,,,,,,,,,,,,,,,,,,,,,,,,,,,,,,,,,,,,,,,,,,,,,,,,,,,,,,,,,,,,,,,,,,,,,,,,,,,,,,,,
,,,,,,,,,,5f8b41866245d7255a60d47e,22,Mężczyzna,2022-06-04_08h46.35.879,task,2021.1.4,Win32,59.69436485,628b806c463b948bc644b84f,629afed2c73149f0f46d6240,,,,,1,0,1,0,1,X V Q F H G B L J M P D K C T S W R N Z,,,,,,,,,,,,,,,,,,,,,,,,,,,,,,,,,,,,,,,,,,,,,,,,,,,,,,,,,,,,,,,,,,,,,,,,,,,,,,,,,,,,,,,,,,,,,
,,,,,,,,,,5f8b41866245d7255a60d47e,22,Mężczyzna,2022-06-04_08h46.35.879,task,2021.1.4,Win32,59.69436485,628b806c463b948bc644b84f,629afed2c73149f0f46d6240,,,,,2,0,2,0,1,X V Q F H G B L J M P D K C T S W R N Z,,,,,,,,,,,,,,,,,,,,,,,,,,,,,,,,,,,,,,,,,,,,,,,,,,,,,,,,,,,,,,,,,,,,,,,,,,,,,,,,,,,,,,,,,,,,,
,,,,,,,,,,5f8b41866245d7255a60d47e,22,Mężczyzna,2022-06-04_08h46.35.879,task,2021.1.4,Win32,59.69436485,628b806c463b948bc644b84f,629afed2c73149f0f46d6240,,,,,3,0,3,0,1,X V Q F H G B L J M P D K C T S W R N Z,,,,,,,,,,,,,,,,,,,,,,,,,,,,,,,,,,,,,,,,,,,,,,,,,,,,,,,,,,,,,,,,,,,,,,,,,,,,,,,,,,,,,,,,,,,,,
,,,,,,,,,,5f8b41866245d7255a60d47e,22,Mężczyzna,2022-06-04_08h46.35.879,task,2021.1.4,Win32,59.69436485,628b806c463b948bc644b84f,629afed2c73149f0f46d6240,,,,,4,0,4,0,1,X V Q F H G B L J M P D K C T S W R N Z,,,,,,,,,,,,,,,,,,,,,,,,,,,,,,,,,,,,,,,,,,,,,,,,,,,,,,,,,,,,,,,,,,,,,,,,,,,,,,,,,,,,,,,,,,,,,
,,,,,,,,,,5f8b41866245d7255a60d47e,22,Mężczyzna,2022-06-04_08h46.35.879,task,2021.1.4,Win32,59.69436485,628b806c463b948bc644b84f,629afed2c73149f0f46d6240,,,,,5,0,5,0,1,X V Q F H G B L J M P D K C T S W R N Z,,,,,,,,,,,,,,,,,,,,,,,,,,,,,,,,,,,,,,,,,,,,,,,,,,,,,,,,,,,,,,,,,,,,,,,,,,,,,,,,,,,,,,,,,,,,,
,,,,,,,,,,5f8b41866245d7255a60d47e,22,Mężczyzna,2022-06-04_08h46.35.879,task,2021.1.4,Win32,59.69436485,628b806c463b948bc644b84f,629afed2c73149f0f46d6240,,,,,,,,,,,spqtpd,"[""s"",""p"",""q"",""t"",""p"",""d""]","[0.9347999999523608,1.395700000047782,2.073700000047779,2.404799999952388,2.833200000047782,3.4201000001430657,4.057700000047703]",0,SPQPTD,11,0,11,0,1,,,,,,,,,,,,,,,,,,,,,,,,,,,,,,,,,,,,,,,,,,,,,,,,,,,,,,,,,,,,,,,,,,,,,,,,,,,,,,,,,,,
,,,,,,,,,,5f8b41866245d7255a60d47e,22,Mężczyzna,2022-06-04_08h46.35.879,task,2021.1.4,Win32,59.69436485,628b806c463b948bc644b84f,629afed2c73149f0f46d6240,,,,,0,0,0,0,1,X V Q F H G B L J M P D K C T S W R N Z,,,,,,,,,,,,,,,,,,,,,,,,,,,,,,,,,,,,,,,,,,,,,,,,,,,,,,,,,,,,,,,,,,,,,,,,,,,,,,,,,,,,,,,,,,,,,
,,,,,,,,,,5f8b41866245d7255a60d47e,22,Mężczyzna,2022-06-04_08h46.35.879,task,2021.1.4,Win32,59.69436485,628b806c463b948bc644b84f,629afed2c73149f0f46d6240,,,,,1,0,1,0,1,X V Q F H G B L J M P D K C T S W R N Z,,,,,,,,,,,,,,,,,,,,,,,,,,,,,,,,,,,,,,,,,,,,,,,,,,,,,,,,,,,,,,,,,,,,,,,,,,,,,,,,,,,,,,,,,,,,,
,,,,,,,,,,5f8b41866245d7255a60d47e,22,Mężczyzna,2022-06-04_08h46.35.879,task,2021.1.4,Win32,59.69436485,628b806c463b948bc644b84f,629afed2c73149f0f46d6240,,,,,2,0,2,0,1,X V Q F H G B L J M P D K C T S W R N Z,,,,,,,,,,,,,,,,,,,,,,,,,,,,,,,,,,,,,,,,,,,,,,,,,,,,,,,,,,,,,,,,,,,,,,,,,,,,,,,,,,,,,,,,,,,,,
,,,,,,,,,,5f8b41866245d7255a60d47e,22,Mężczyzna,2022-06-04_08h46.35.879,task,2021.1.4,Win32,59.69436485,628b806c463b948bc644b84f,629afed2c73149f0f46d6240,,,,,3,0,3,0,1,X V Q F H G B L J M P D K C T S W R N Z,,,,,,,,,,,,,,,,,,,,,,,,,,,,,,,,,,,,,,,,,,,,,,,,,,,,,,,,,,,,,,,,,,,,,,,,,,,,,,,,,,,,,,,,,,,,,
,,,,,,,,,,5f8b41866245d7255a60d47e,22,Mężczyzna,2022-06-04_08h46.35.879,task,2021.1.4,Win32,59.69436485,628b806c463b948bc644b84f,629afed2c73149f0f46d6240,,,,,4,0,4,0,1,X V Q F H G B L J M P D K C T S W R N Z,,,,,,,,,,,,,,,,,,,,,,,,,,,,,,,,,,,,,,,,,,,,,,,,,,,,,,,,,,,,,,,,,,,,,,,,,,,,,,,,,,,,,,,,,,,,,
,,,,,,,,,,5f8b41866245d7255a60d47e,22,Mężczyzna,2022-06-04_08h46.35.879,task,2021.1.4,Win32,59.69436485,628b806c463b948bc644b84f,629afed2c73149f0f46d6240,,,,,5,0,5,0,1,X V Q F H G B L J M P D K C T S W R N Z,,,,,,,,,,,,,,,,,,,,,,,,,,,,,,,,,,,,,,,,,,,,,,,,,,,,,,,,,,,,,,,,,,,,,,,,,,,,,,,,,,,,,,,,,,,,,
,,,,,,,,,,5f8b41866245d7255a60d47e,22,Mężczyzna,2022-06-04_08h46.35.879,task,2021.1.4,Win32,59.69436485,628b806c463b948bc644b84f,629afed2c73149f0f46d6240,,,,,,,,,,,ktcbpx,"[""k"",""t"",""c"",""b"",""p"",""x""]","[1.2532000000476273,1.78449999999998,2.158999999999992,3.578999999999951,3.9999000000954084,4.696000000000026,5.403800000190699]",1,KTCBPX,12,0,12,0,1,,,,,,,,,,,,,,,,,,,,,,,,,,,,,,,,,,,,,,,,,,,,,,,,,,,,,,,,,,,,,,,,,,,,,,,,,,,,,,,,,,,
,,,,,,,,,,5f8b41866245d7255a60d47e,22,Mężczyzna,2022-06-04_08h46.35.879,task,2021.1.4,Win32,59.69436485,628b806c463b948bc644b84f,629afed2c73149f0f46d6240,,,,,0,0,0,0,1,X V Q F H G B L J M P D K C T S W R N Z,,,,,,,,,,,,,,,,,,,,,,,,,,,,,,,,,,,,,,,,,,,,,,,,,,,,,,,,,,,,,,,,,,,,,,,,,,,,,,,,,,,,,,,,,,,,,
,,,,,,,,,,5f8b41866245d7255a60d47e,22,Mężczyzna,2022-06-04_08h46.35.879,task,2021.1.4,Win32,59.69436485,628b806c463b948bc644b84f,629afed2c73149f0f46d6240,,,,,1,0,1,0,1,X V Q F H G B L J M P D K C T S W R N Z,,,,,,,,,,,,,,,,,,,,,,,,,,,,,,,,,,,,,,,,,,,,,,,,,,,,,,,,,,,,,,,,,,,,,,,,,,,,,,,,,,,,,,,,,,,,,
,,,,,,,,,,5f8b41866245d7255a60d47e,22,Mężczyzna,2022-06-04_08h46.35.879,task,2021.1.4,Win32,59.69436485,628b806c463b948bc644b84f,629afed2c73149f0f46d6240,,,,,2,0,2,0,1,X V Q F H G B L J M P D K C T S W R N Z,,,,,,,,,,,,,,,,,,,,,,,,,,,,,,,,,,,,,,,,,,,,,,,,,,,,,,,,,,,,,,,,,,,,,,,,,,,,,,,,,,,,,,,,,,,,,
,,,,,,,,,,5f8b41866245d7255a60d47e,22,Mężczyzna,2022-06-04_08h46.35.879,task,2021.1.4,Win32,59.69436485,628b806c463b948bc644b84f,629afed2c73149f0f46d6240,,,,,3,0,3,0,1,X V Q F H G B L J M P D K C T S W R N Z,,,,,,,,,,,,,,,,,,,,,,,,,,,,,,,,,,,,,,,,,,,,,,,,,,,,,,,,,,,,,,,,,,,,,,,,,,,,,,,,,,,,,,,,,,,,,
,,,,,,,,,,5f8b41866245d7255a60d47e,22,Mężczyzna,2022-06-04_08h46.35.879,task,2021.1.4,Win32,59.69436485,628b806c463b948bc644b84f,629afed2c73149f0f46d6240,,,,,4,0,4,0,1,X V Q F H G B L J M P D K C T S W R N Z,,,,,,,,,,,,,,,,,,,,,,,,,,,,,,,,,,,,,,,,,,,,,,,,,,,,,,,,,,,,,,,,,,,,,,,,,,,,,,,,,,,,,,,,,,,,,
,,,,,,,,,,5f8b41866245d7255a60d47e,22,Mężczyzna,2022-06-04_08h46.35.879,task,2021.1.4,Win32,59.69436485,628b806c463b948bc644b84f,629afed2c73149f0f46d6240,,,,,5,0,5,0,1,X V Q F H G B L J M P D K C T S W R N Z,,,,,,,,,,,,,,,,,,,,,,,,,,,,,,,,,,,,,,,,,,,,,,,,,,,,,,,,,,,,,,,,,,,,,,,,,,,,,,,,,,,,,,,,,,,,,
,,,,,,,,,,5f8b41866245d7255a60d47e,22,Mężczyzna,2022-06-04_08h46.35.879,task,2021.1.4,Win32,59.69436485,628b806c463b948bc644b84f,629afed2c73149f0f46d6240,,,,,6,0,6,0,1,X V Q F H G B L J M P D K C T S W R N Z,,,,,,,,,,,,,,,,,,,,,,,,,,,,,,,,,,,,,,,,,,,,,,,,,,,,,,,,,,,,,,,,,,,,,,,,,,,,,,,,,,,,,,,,,,,,,
,,,,,,,,,,5f8b41866245d7255a60d47e,22,Mężczyzna,2022-06-04_08h46.35.879,task,2021.1.4,Win32,59.69436485,628b806c463b948bc644b84f,629afed2c73149f0f46d6240,,,,,,,,,,,nschgr,"[""n"",""s"",""c"",""h"",""g"",""r""]","[1.2712999999523618,2.022599999904628,2.38770000004763,3.1465999999046517,3.932900000095401,4.377599999904646,5.0674999999999955]",0,NSCGHGR,13,0,13,0,1,,,,,,,,,,,,,,,,,,,,,,,,,,,,,,,,,,,,,,,,,,,,,,,,,,,,,,,,,,,,,,,,,,,,,,,,,,,,,,,,,,,
,,,,,,,,,,5f8b41866245d7255a60d47e,22,Mężczyzna,2022-06-04_08h46.35.879,task,2021.1.4,Win32,59.69436485,628b806c463b948bc644b84f,629afed2c73149f0f46d6240,,,,,0,0,0,0,1,X V Q F H G B L J M P D K C T S W R N Z,,,,,,,,,,,,,,,,,,,,,,,,,,,,,,,,,,,,,,,,,,,,,,,,,,,,,,,,,,,,,,,,,,,,,,,,,,,,,,,,,,,,,,,,,,,,,
,,,,,,,,,,5f8b41866245d7255a60d47e,22,Mężczyzna,2022-06-04_08h46.35.879,task,2021.1.4,Win32,59.69436485,628b806c463b948bc644b84f,629afed2c73149f0f46d6240,,,,,1,0,1,0,1,X V Q F H G B L J M P D K C T S W R N Z,,,,,,,,,,,,,,,,,,,,,,,,,,,,,,,,,,,,,,,,,,,,,,,,,,,,,,,,,,,,,,,,,,,,,,,,,,,,,,,,,,,,,,,,,,,,,
,,,,,,,,,,5f8b41866245d7255a60d47e,22,Mężczyzna,2022-06-04_08h46.35.879,task,2021.1.4,Win32,59.69436485,628b806c463b948bc644b84f,629afed2c73149f0f46d6240,,,,,2,0,2,0,1,X V Q F H G B L J M P D K C T S W R N Z,,,,,,,,,,,,,,,,,,,,,,,,,,,,,,,,,,,,,,,,,,,,,,,,,,,,,,,,,,,,,,,,,,,,,,,,,,,,,,,,,,,,,,,,,,,,,
,,,,,,,,,,5f8b41866245d7255a60d47e,22,Mężczyzna,2022-06-04_08h46.35.879,task,2021.1.4,Win32,59.69436485,628b806c463b948bc644b84f,629afed2c73149f0f46d6240,,,,,3,0,3,0,1,X V Q F H G B L J M P D K C T S W R N Z,,,,,,,,,,,,,,,,,,,,,,,,,,,,,,,,,,,,,,,,,,,,,,,,,,,,,,,,,,,,,,,,,,,,,,,,,,,,,,,,,,,,,,,,,,,,,
,,,,,,,,,,5f8b41866245d7255a60d47e,22,Mężczyzna,2022-06-04_08h46.35.879,task,2021.1.4,Win32,59.69436485,628b806c463b948bc644b84f,629afed2c73149f0f46d6240,,,,,4,0,4,0,1,X V Q F H G B L J M P D K C T S W R N Z,,,,,,,,,,,,,,,,,,,,,,,,,,,,,,,,,,,,,,,,,,,,,,,,,,,,,,,,,,,,,,,,,,,,,,,,,,,,,,,,,,,,,,,,,,,,,
,,,,,,,,,,5f8b41866245d7255a60d47e,22,Mężczyzna,2022-06-04_08h46.35.879,task,2021.1.4,Win32,59.69436485,628b806c463b948bc644b84f,629afed2c73149f0f46d6240,,,,,5,0,5,0,1,X V Q F H G B L J M P D K C T S W R N Z,,,,,,,,,,,,,,,,,,,,,,,,,,,,,,,,,,,,,,,,,,,,,,,,,,,,,,,,,,,,,,,,,,,,,,,,,,,,,,,,,,,,,,,,,,,,,
,,,,,,,,,,5f8b41866245d7255a60d47e,22,Mężczyzna,2022-06-04_08h46.35.879,task,2021.1.4,Win32,59.69436485,628b806c463b948bc644b84f,629afed2c73149f0f46d6240,,,,,6,0,6,0,1,X V Q F H G B L J M P D K C T S W R N Z,,,,,,,,,,,,,,,,,,,,,,,,,,,,,,,,,,,,,,,,,,,,,,,,,,,,,,,,,,,,,,,,,,,,,,,,,,,,,,,,,,,,,,,,,,,,,
,,,,,,,,,,5f8b41866245d7255a60d47e,22,Mężczyzna,2022-06-04_08h46.35.879,task,2021.1.4,Win32,59.69436485,628b806c463b948bc644b84f,629afed2c73149f0f46d6240,,,,,,,,,,,bgjnsw,"[""b"",""g"",""j"",""n"",""s"",""w""]","[0.9085000000000036,1.346899999856987,1.7407999999522872,1.98599999999999,3.7188999998569443,3.935700000047632,4.493899999856922]",0,BGJNSWZ,14,0,14,0,1,,,,,,,,,,,,,,,,,,,,,,,,,,,,,,,,,,,,,,,,,,,,,,,,,,,,,,,,,,,,,,,,,,,,,,,,,,,,,,,,,,,
,,,,,,,,,,5f8b41866245d7255a60d47e,22,Mężczyzna,2022-06-04_08h46.35.879,task,2021.1.4,Win32,59.69436485,628b806c463b948bc644b84f,629afed2c73149f0f46d6240,,,,,0,0,0,0,1,X V Q F H G B L J M P D K C T S W R N Z,,,,,,,,,,,,,,,,,,,,,,,,,,,,,,,,,,,,,,,,,,,,,,,,,,,,,,,,,,,,,,,,,,,,,,,,,,,,,,,,,,,,,,,,,,,,,
,,,,,,,,,,5f8b41866245d7255a60d47e,22,Mężczyzna,2022-06-04_08h46.35.879,task,2021.1.4,Win32,59.69436485,628b806c463b948bc644b84f,629afed2c73149f0f46d6240,,,,,1,0,1,0,1,X V Q F H G B L J M P D K C T S W R N Z,,,,,,,,,,,,,,,,,,,,,,,,,,,,,,,,,,,,,,,,,,,,,,,,,,,,,,,,,,,,,,,,,,,,,,,,,,,,,,,,,,,,,,,,,,,,,
,,,,,,,,,,5f8b41866245d7255a60d47e,22,Mężczyzna,2022-06-04_08h46.35.879,task,2021.1.4,Win32,59.69436485,628b806c463b948bc644b84f,629afed2c73149f0f46d6240,,,,,2,0,2,0,1,X V Q F H G B L J M P D K C T S W R N Z,,,,,,,,,,,,,,,,,,,,,,,,,,,,,,,,,,,,,,,,,,,,,,,,,,,,,,,,,,,,,,,,,,,,,,,,,,,,,,,,,,,,,,,,,,,,,
,,,,,,,,,,5f8b41866245d7255a60d47e,22,Mężczyzna,2022-06-04_08h46.35.879,task,2021.1.4,Win32,59.69436485,628b806c463b948bc644b84f,629afed2c73149f0f46d6240,,,,,3,0,3,0,1,X V Q F H G B L J M P D K C T S W R N Z,,,,,,,,,,,,,,,,,,,,,,,,,,,,,,,,,,,,,,,,,,,,,,,,,,,,,,,,,,,,,,,,,,,,,,,,,,,,,,,,,,,,,,,,,,,,,
,,,,,,,,,,5f8b41866245d7255a60d47e,22,Mężczyzna,2022-06-04_08h46.35.879,task,2021.1.4,Win32,59.69436485,628b806c463b948bc644b84f,629afed2c73149f0f46d6240,,,,,4,0,4,0,1,X V Q F H G B L J M P D K C T S W R N Z,,,,,,,,,,,,,,,,,,,,,,,,,,,,,,,,,,,,,,,,,,,,,,,,,,,,,,,,,,,,,,,,,,,,,,,,,,,,,,,,,,,,,,,,,,,,,
,,,,,,,,,,5f8b41866245d7255a60d47e,22,Mężczyzna,2022-06-04_08h46.35.879,task,2021.1.4,Win32,59.69436485,628b806c463b948bc644b84f,629afed2c73149f0f46d6240,,,,,5,0,5,0,1,X V Q F H G B L J M P D K C T S W R N Z,,,,,,,,,,,,,,,,,,,,,,,,,,,,,,,,,,,,,,,,,,,,,,,,,,,,,,,,,,,,,,,,,,,,,,,,,,,,,,,,,,,,,,,,,,,,,
,,,,,,,,,,5f8b41866245d7255a60d47e,22,Mężczyzna,2022-06-04_08h46.35.879,task,2021.1.4,Win32,59.69436485,628b806c463b948bc644b84f,629afed2c73149f0f46d6240,,,,,6,0,6,0,1,X V Q F H G B L J M P D K C T S W R N Z,,,,,,,,,,,,,,,,,,,,,,,,,,,,,,,,,,,,,,,,,,,,,,,,,,,,,,,,,,,,,,,,,,,,,,,,,,,,,,,,,,,,,,,,,,,,,
,,,,,,,,,,5f8b41866245d7255a60d47e,22,Mężczyzna,2022-06-04_08h46.35.879,task,2021.1.4,Win32,59.69436485,628b806c463b948bc644b84f,629afed2c73149f0f46d6240,,,,,,,,,,,mpnggfd,"[""m"",""p"",""n"",""g"",""g"",""f"",""d""]","[1.0382999999523008,1.3819999999999482,1.950699999809217,2.5946999998092224,2.7715999999046517,4.990099999904601,5.2818999998569325,5.827499999999986]",0,MPNNGFD,15,0,15,0,1,,,,,,,,,,,,,,,,,,,,,,,,,,,,,,,,,,,,,,,,,,,,,,,,,,,,,,,,,,,,,,,,,,,,,,,,,,,,,,,,,,,
,,,,,,,,,,5f8b41866245d7255a60d47e,22,Mężczyzna,2022-06-04_08h46.35.879,task,2021.1.4,Win32,59.69436485,628b806c463b948bc644b84f,629afed2c73149f0f46d6240,,,,,,,,,,,,,,,,,,,,,space,5.9346,8,"[""8""]",1,[4.793399999857002],[4.793399999857002],0,0,0,8,1,Practice,9,(3x3) - 1,8,,,,,,,,,,,,,,,,,,,,,,,,,,,,,,,,,,,,,,,,,,,,,,,,,,,,,,,,,,,,,,,,,,,
,,,,,,,,,,5f8b41866245d7255a60d47e,22,Mężczyzna,2022-06-04_08h46.35.879,task,2021.1.4,Win32,59.69436485,628b806c463b948bc644b84f,629afed2c73149f0f46d6240,,,,,,,,,,,,,,,,,,,,,,,6,"[""6""]",1,[2.982299999952261],"[4.793399999857002,2.982299999952261]",0,1,1,6,1,Practice,7,(25/5) + 1,6,,,,,,,,,,,,,,,,,,,,,,,,,,,,,,,,,,,,,,,,,,,,,,,,,,,,,,,,,,,,,,,,,,,
,,,,,,,,,,5f8b41866245d7255a60d47e,22,Mężczyzna,2022-06-04_08h46.35.879,task,2021.1.4,Win32,59.69436485,628b806c463b948bc644b84f,629afed2c73149f0f46d6240,,,,,,,,,,,,,,,,,,,,,,,1,"[""1""]",1,[2.2771999998093406],"[4.793399999857002,2.982299999952261,2.2771999998093406]",0,2,2,1,1,Practice,2,(4x4) - 15,1,,,,,,,,,,,,,,,,,,,,,,,,,,,,,,,,,,,,,,,,,,,,,,,,,,,,,,,,,,,,,,,,,,,
,,,,,,,,,,5f8b41866245d7255a60d47e,22,Mężczyzna,2022-06-04_08h46.35.879,task,2021.1.4,Win32,59.69436485,628b806c463b948bc644b84f,629afed2c73149f0f46d6240,,,,,,,,,,,,,,,,,,,,,,,7,"[""7""]",1,[2.9382000000476864],"[4.793399999857002,2.982299999952261,2.2771999998093406,2.9382000000476864]",0,3,3,7,1,Practice,8,(5x5) - 18,7,,,,,,,,,,,,,,,,,,,,,,,,,,,,,,,,,,,,,,,,,,,,,,,,,,,,,,,,,,,,,,,,,,,
,,,,,,,,,,5f8b41866245d7255a60d47e,22,Mężczyzna,2022-06-04_08h46.35.879,task,2021.1.4,Win32,59.69436485,628b806c463b948bc644b84f,629afed2c73149f0f46d6240,,,,,,,,,,,,,,,,,,,,,,,2,"[""2""]",1,[1.9971000001430639],"[4.793399999857002,2.982299999952261,2.2771999998093406,2.9382000000476864,1.9971000001430639]",0,4,4,2,1,Practice,3,(4x4) - 14,2,,,,,,,,,,,,,,,,,,,,,,,,,,,,,,,,,,,,,,,,,,,,,,,,,,,,,,,,,,,,,,,,,,,
,,,,,,,,,,5f8b41866245d7255a60d47e,22,Mężczyzna,2022-06-04_08h46.35.879,task,2021.1.4,Win32,59.69436485,628b806c463b948bc644b84f,629afed2c73149f0f46d6240,,,,,,,,,,,,,,,,,,,,,,,3,"[""3""]",1,[2.88250000000005],"[4.793399999857002,2.982299999952261,2.2771999998093406,2.9382000000476864,1.9971000001430639,2.88250000000005]",0,5,5,3,1,Practice,4,(8/4) + 1,3,,,,,,,,,,,,,,,,,,,,,,,,,,,,,,,,,,,,,,,,,,,,,,,,,,,,,,,,,,,,,,,,,,,
,,,,,,,,,,5f8b41866245d7255a60d47e,22,Mężczyzna,2022-06-04_08h46.35.879,task,2021.1.4,Win32,59.69436485,628b806c463b948bc644b84f,629afed2c73149f0f46d6240,,,,,,,,,,,,,,,,,,,,,,,5,"[""5""]",1,[2.213599999904659],"[4.793399999857002,2.982299999952261,2.2771999998093406,2.9382000000476864,1.9971000001430639,2.88250000000005,2.213599999904659]",0,6,6,5,1,Practice,6,(4/2) + 3,5,,,,,,,,,,,,,,,,,,,,,,,,,,,,,,,,,,,,,,,,,,,,,,,,,,,,,,,,,,,,,,,,,,,
,,,,,,,,,,5f8b41866245d7255a60d47e,22,Mężczyzna,2022-06-04_08h46.35.879,task,2021.1.4,Win32,59.69436485,628b806c463b948bc644b84f,629afed2c73149f0f46d6240,,,,,,,,,,,,,,,,,,,,,,,4,"[""4""]",1,[2.393799999952307],"[4.793399999857002,2.982299999952261,2.2771999998093406,2.9382000000476864,1.9971000001430639,2.88250000000005,2.213599999904659,2.393799999952307]",0,7,7,4,1,Practice,5,(2x6) - 8,4,,,,,,,,,,,,,,,,,,,,,,,,,,,,,,,,,,,,,,,,,,,,,,,,,,,,,,,,,,,,,,,,,,,
,,,,,,,,,,5f8b41866245d7255a60d47e,22,Mężczyzna,2022-06-04_08h46.35.879,task,2021.1.4,Win32,59.69436485,628b806c463b948bc644b84f,629afed2c73149f0f46d6240,,,,,,,,,,,,,,,,,,,,,,,9,"[""9""]",1,[3.7596000001429957],"[4.793399999857002,2.982299999952261,2.2771999998093406,2.9382000000476864,1.9971000001430639,2.88250000000005,2.213599999904659,2.393799999952307,3.7596000001429957]",0,8,8,9,1,Practice,10,(20/2) - 1,9,,,,,,,,,,,,,,,,,,,,,,,,,,,,,,,,,,,,,,,,,,,,,,,,,,,,,,,,,,,,,,,,,,,
,,,,,,,,,,5f8b41866245d7255a60d47e,22,Mężczyzna,2022-06-04_08h46.35.879,task,2021.1.4,Win32,59.69436485,628b806c463b948bc644b84f,629afed2c73149f0f46d6240,,,,,,,,,,,,,,,,,,,,,,,1,"[""1""]",0,[2.6336999998093233],"[4.793399999857002,2.982299999952261,2.2771999998093406,2.9382000000476864,1.9971000001430639,2.88250000000005,2.213599999904659,2.393799999952307,3.7596000001429957,2.6336999998093233]",0,9,9,0,1,Practice,1,(3x3) -  9,0,,,,,,,,,,,,,,,,,,,,,,,,,,,,,,,,,,,,,,,,,,,,,,,,,,,,,,,,,,,,,,,,,,,
,,,,,,,,,,5f8b41866245d7255a60d47e,22,Mężczyzna,2022-06-04_08h46.35.879,task,2021.1.4,Win32,59.69436485,628b806c463b948bc644b84f,629afed2c73149f0f46d6240,,,,,,,,,,,,,,,,,,,,,,,,,,,,,,,,,,,,,0.9,28.8714,1.92476,15.59392069,1.019605175,4.555341351,space,5.4594,0,0,0,0,1,,,,,,,,,,,,,,,,,,,,,,,,,,,,,,,,,,,,,,,,,,,,,,,,,,,,,,
,,,,,,,,,,5f8b41866245d7255a60d47e,22,Mężczyzna,2022-06-04_08h46.35.879,task,2021.1.4,Win32,59.69436485,628b806c463b948bc644b84f,629afed2c73149f0f46d6240,,,,,,,,,,,,,,,,,,,,,,,5,,,,,,,,,,Practice,6,(4/2) + 3,5,,,,,,,,,,,,,,space,10.0933,"[""5""]",1,[3.5838999998569534],1,0,0,0,5,1,,,,,,,,,,,,,,,,,,,,,,,,,,,,,,,,,,,,,,,,,,,
,,,,,,,,,,5f8b41866245d7255a60d47e,22,Mężczyzna,2022-06-04_08h46.35.879,task,2021.1.4,Win32,59.69436485,628b806c463b948bc644b84f,629afed2c73149f0f46d6240,,,,,,,,,,X V Q F H G B L J M P D K C T S W R N Z,,,,,,,,,,,,,,,,,,,,,,,,,,,,,,,,,,,,,,,,,,,,,,,,,,,0,0,0,0,1,,,,,,,,,,,,,,,,,,,,,,,,,,,,,,,,,,,,,,
,,,,,,,,,,5f8b41866245d7255a60d47e,22,Mężczyzna,2022-06-04_08h46.35.879,task,2021.1.4,Win32,59.69436485,628b806c463b948bc644b84f,629afed2c73149f0f46d6240,,,,,,,,,,,,,,,,,,,,,,,1,,,,,,,,,,Practice,2,(4x4) - 15,1,,,,,,,,,,,,,,,,"[""1""]",1,[2.280700000047659],1,0,0,0,1,1,,,,,,,,,,,,,,,,,,,,,,,,,,,,,,,,,,,,,,,,,,,
,,,,,,,,,,5f8b41866245d7255a60d47e,22,Mężczyzna,2022-06-04_08h46.35.879,task,2021.1.4,Win32,59.69436485,628b806c463b948bc644b84f,629afed2c73149f0f46d6240,,,,,,,,,,X V Q F H G B L J M P D K C T S W R N Z,,,,,,,,,,,,,,,,,,,,,,,,,,,,,,,,,,,,,,,,,,,,,,,,,,,1,0,1,0,1,,,,,,,,,,,,,,,,,,,,,,,,,,,,,,,,,,,,,,
,,,,,,,,,,5f8b41866245d7255a60d47e,22,Mężczyzna,2022-06-04_08h46.35.879,task,2021.1.4,Win32,59.69436485,628b806c463b948bc644b84f,629afed2c73149f0f46d6240,,,,,,,,,,,,,,,,,,,,,,,,,,,,,,,,,,,,,,,,,,,,,,,,,,,,,,,,,,,,,,,,,,zv,"[""z"",""v""]",0,"[2.436400000095432,2.7335999999046408,3.3702999999522945]",1,0,0,0,0,1,,,,,,,,,,,,,,,,,,,,,,,,,,,,
,,,,,,,,,,5f8b41866245d7255a60d47e,22,Mężczyzna,2022-06-04_08h46.35.879,task,2021.1.4,Win32,59.69436485,628b806c463b948bc644b84f,629afed2c73149f0f46d6240,,,,,,,,,,,,,,,,,,,,,,,3,,,,,,,,,,Practice,4,(8/4) + 1,3,,,,,,,,,,,,,,,,"[""3""]",1,[2.041200000047752],1,0,0,0,3,1,,,,,,,,,,,,,,,,,,,,,,,,,,,,,,,,,,,,,,,,,,,
,,,,,,,,,,5f8b41866245d7255a60d47e,22,Mężczyzna,2022-06-04_08h46.35.879,task,2021.1.4,Win32,59.69436485,628b806c463b948bc644b84f,629afed2c73149f0f46d6240,,,,,,,,,,X V Q F H G B L J M P D K C T S W R N Z,,,,,,,,,,,,,,,,,,,,,,,,,,,,,,,,,,,,,,,,,,,,,,,,,,,0,0,0,0,1,,,,,,,,,,,,,,,,,,,,,,,,,,,,,,,,,,,,,,
,,,,,,,,,,5f8b41866245d7255a60d47e,22,Mężczyzna,2022-06-04_08h46.35.879,task,2021.1.4,Win32,59.69436485,628b806c463b948bc644b84f,629afed2c73149f0f46d6240,,,,,,,,,,,,,,,,,,,,,,,0,,,,,,,,,,Practice,1,(3x3) -  9,0,,,,,,,,,,,,,,,,"[""0""]",1,[1.9505999999046253],1,0,0,0,0,1,,,,,,,,,,,,,,,,,,,,,,,,,,,,,,,,,,,,,,,,,,,
,,,,,,,,,,5f8b41866245d7255a60d47e,22,Mężczyzna,2022-06-04_08h46.35.879,task,2021.1.4,Win32,59.69436485,628b806c463b948bc644b84f,629afed2c73149f0f46d6240,,,,,,,,,,X V Q F H G B L J M P D K C T S W R N Z,,,,,,,,,,,,,,,,,,,,,,,,,,,,,,,,,,,,,,,,,,,,,,,,,,,1,0,1,0,1,,,,,,,,,,,,,,,,,,,,,,,,,,,,,,,,,,,,,,
,,,,,,,,,,5f8b41866245d7255a60d47e,22,Mężczyzna,2022-06-04_08h46.35.879,task,2021.1.4,Win32,59.69436485,628b806c463b948bc644b84f,629afed2c73149f0f46d6240,,,,,,,,,,,,,,,,,,,,,,,,,,,,,,,,,,,,,,,,,,,,,,,,,,,,,,,,,,,,,,,,,,wt,"[""w"",""t""]",0,"[1.8460000000000036,2.0732000000476773,2.3479999999999563]",1,1,0,1,0,1,,,,,,,,,,,,,,,,,,,,,,,,,,,,
,,,,,,,,,,5f8b41866245d7255a60d47e,22,Mężczyzna,2022-06-04_08h46.35.879,task,2021.1.4,Win32,59.69436485,628b806c463b948bc644b84f,629afed2c73149f0f46d6240,,,,,,,,,,,,,,,,,,,,,,,5,,,,,,,,,,Practice,6,(4/2) + 3,5,,,,,,,,,,,,,,,,"[""5""]",1,[3.528400000095303],1,0,0,0,5,1,,,,,,,,,,,,,,,,,,,,,,,,,,,,,,,,,,,,,,,,,,,
,,,,,,,,,,5f8b41866245d7255a60d47e,22,Mężczyzna,2022-06-04_08h46.35.879,task,2021.1.4,Win32,59.69436485,628b806c463b948bc644b84f,629afed2c73149f0f46d6240,,,,,,,,,,X V Q F H G B L J M P D K C T S W R N Z,,,,,,,,,,,,,,,,,,,,,,,,,,,,,,,,,,,,,,,,,,,,,,,,,,,0,0,0,0,1,,,,,,,,,,,,,,,,,,,,,,,,,,,,,,,,,,,,,,
,,,,,,,,,,5f8b41866245d7255a60d47e,22,Mężczyzna,2022-06-04_08h46.35.879,task,2021.1.4,Win32,59.69436485,628b806c463b948bc644b84f,629afed2c73149f0f46d6240,,,,,,,,,,,,,,,,,,,,,,,8,,,,,,,,,,Practice,9,(3x3) - 1,8,,,,,,,,,,,,,,,,"[""8""]",1,[2.3834000000954347],1,0,0,0,8,1,,,,,,,,,,,,,,,,,,,,,,,,,,,,,,,,,,,,,,,,,,,
,,,,,,,,,,5f8b41866245d7255a60d47e,22,Mężczyzna,2022-06-04_08h46.35.879,task,2021.1.4,Win32,59.69436485,628b806c463b948bc644b84f,629afed2c73149f0f46d6240,,,,,,,,,,X V Q F H G B L J M P D K C T S W R N Z,,,,,,,,,,,,,,,,,,,,,,,,,,,,,,,,,,,,,,,,,,,,,,,,,,,1,0,1,0,1,,,,,,,,,,,,,,,,,,,,,,,,,,,,,,,,,,,,,,
,,,,,,,,,,5f8b41866245d7255a60d47e,22,Mężczyzna,2022-06-04_08h46.35.879,task,2021.1.4,Win32,59.69436485,628b806c463b948bc644b84f,629afed2c73149f0f46d6240,,,,,,,,,,,,,,,,,,,,,,,,,,,,,,,,,,,,,,,,,,,,,,,,,,,,,,,,,,,,,,,,,,xm,"[""x"",""m""]",0,"[2.0646999998092497,2.1611999998092415,2.5940999999046426]",1,2,0,2,0,1,,,,,,,,,,,,,,,,,,,,,,,,,,,,
,,,,,,,,,,5f8b41866245d7255a60d47e,22,Mężczyzna,2022-06-04_08h46.35.879,task,2021.1.4,Win32,59.69436485,628b806c463b948bc644b84f,629afed2c73149f0f46d6240,,,,,,,,,,,,,,,,,,,,,,,3,,,,,,,,,,Task,35,(1x2) + 1,3,,,,,,,,,,,,,,,,,,,1,,,,,,,,,,,,,,,,,,,,,space,5.4318,"[""3""]",1,[3.5160000000000764],0,0,0,34,1,,,,,,,,,,,,,,,,,,
,,,,,,,,,,5f8b41866245d7255a60d47e,22,Mężczyzna,2022-06-04_08h46.35.879,task,2021.1.4,Win32,59.69436485,628b806c463b948bc644b84f,629afed2c73149f0f46d6240,,,,,,,,,,X V Q F H G B L J M P D K C T S W R N Z,,,,,,,,,,,,,,,,,,,,,,,,,,,,,,,,,,,,,,,,,,,,,,,,,,,,,,,,,,,,,,,,,,,,,,,,,,,,0,0,0,0,1,,,,,,,,,,,,,
,,,,,,,,,,5f8b41866245d7255a60d47e,22,Mężczyzna,2022-06-04_08h46.35.879,task,2021.1.4,Win32,59.69436485,628b806c463b948bc644b84f,629afed2c73149f0f46d6240,,,,,,,,,,,,,,,,,,,,,,,7,,,,,,,,,,Task,31,(4/2) + 5,7,,,,,,,,,,,,,,,,,,,1,,,,,,,,,,,,,,,,,,,,,,,"[""7""]",1,[2.859299999952327],0,0,0,30,1,,,,,,,,,,,,,,,,,,
,,,,,,,,,,5f8b41866245d7255a60d47e,22,Mężczyzna,2022-06-04_08h46.35.879,task,2021.1.4,Win32,59.69436485,628b806c463b948bc644b84f,629afed2c73149f0f46d6240,,,,,,,,,,X V Q F H G B L J M P D K C T S W R N Z,,,,,,,,,,,,,,,,,,,,,,,,,,,,,,,,,,,,,,,,,,,,,,,,,,,,,,,,,,,,,,,,,,,,,,,,,,,,1,0,1,0,1,,,,,,,,,,,,,
,,,,,,,,,,5f8b41866245d7255a60d47e,22,Mężczyzna,2022-06-04_08h46.35.879,task,2021.1.4,Win32,59.69436485,628b806c463b948bc644b84f,629afed2c73149f0f46d6240,,,,,,,,,,,,,,,,,,,,,,,,,,,,,,,,,,,,,,,,,,,,,,,,,,,,,,,,,,,,,,,,,,,,,,,,,,,,,,,,,,,,,,,,,,,zz,"[""z"",""z""]",0,"[1.5328999998569088,1.7377999999522444,2.000499999999988]",1,ZZ,0,0,0,0,1,,
,,,,,,,,,,5f8b41866245d7255a60d47e,22,Mężczyzna,2022-06-04_08h46.35.879,task,2021.1.4,Win32,59.69436485,628b806c463b948bc644b84f,629afed2c73149f0f46d6240,,,,,,,,,,,,,,,,,,,,,,,2,,,,,,,,,,Task,2,(2x2) - 2,2,,,,,,,,,,,,,,,,,,,1,,,,,,,,,,,,,,,,,,,,,,,"[""2""]",1,[2.111400000095273],0,0,0,1,1,,,,,,,,,,,,,,,,,,
,,,,,,,,,,5f8b41866245d7255a60d47e,22,Mężczyzna,2022-06-04_08h46.35.879,task,2021.1.4,Win32,59.69436485,628b806c463b948bc644b84f,629afed2c73149f0f46d6240,,,,,,,,,,X V Q F H G B L J M P D K C T S W R N Z,,,,,,,,,,,,,,,,,,,,,,,,,,,,,,,,,,,,,,,,,,,,,,,,,,,,,,,,,,,,,,,,,,,,,,,,,,,,0,0,0,0,1,,,,,,,,,,,,,
,,,,,,,,,,5f8b41866245d7255a60d47e,22,Mężczyzna,2022-06-04_08h46.35.879,task,2021.1.4,Win32,59.69436485,628b806c463b948bc644b84f,629afed2c73149f0f46d6240,,,,,,,,,,,,,,,,,,,,,,,,,,,,,,,,,Task,15,(3x7) - 13,8,,,,,,,,,,,,,,,,,,,0,,,,,,,,,,,,,,,,,,,,,,,,0,,0,0,0,14,1,,,,,,,,,,,,,,,,,,
,,,,,,,,,,5f8b41866245d7255a60d47e,22,Mężczyzna,2022-06-04_08h46.35.879,task,2021.1.4,Win32,59.69436485,628b806c463b948bc644b84f,629afed2c73149f0f46d6240,,,,,,,,,,,,,,,,,,,,,,,2,,,,,,,,,,Task,19,(6/2) - 1,2,,,,,,,,,,,,,,,,,,,1,,,,,,,,,,,,,,,,,,,,,,,"[""2""]",1,[2.5232999999523145],0,1,1,18,1,,,,,,,,,,,,,,,,,,
,,,,,,,,,,5f8b41866245d7255a60d47e,22,Mężczyzna,2022-06-04_08h46.35.879,task,2021.1.4,Win32,59.69436485,628b806c463b948bc644b84f,629afed2c73149f0f46d6240,,,,,,,,,,X V Q F H G B L J M P D K C T S W R N Z,,,,,,,,,,,,,,,,,,,,,,,,,,,,,,,,,,,,,,,,,,,,,,,,,,,,,,,,,,,,,,,,,,,,,,,,,,,,1,0,1,0,1,,,,,,,,,,,,,
,,,,,,,,,,5f8b41866245d7255a60d47e,22,Mężczyzna,2022-06-04_08h46.35.879,task,2021.1.4,Win32,59.69436485,628b806c463b948bc644b84f,629afed2c73149f0f46d6240,,,,,,,,,,,,,,,,,,,,,,,8,,,,,,,,,,Task,15,(3x7) - 13,8,,,,,,,,,,,,,,,,,,,1,,,,,,,,,,,,,,,,,,,,,,,"[""8""]",1,[3.1154000000954056],0,0,0,14,1,,,,,,,,,,,,,,,,,,
,,,,,,,,,,5f8b41866245d7255a60d47e,22,Mężczyzna,2022-06-04_08h46.35.879,task,2021.1.4,Win32,59.69436485,628b806c463b948bc644b84f,629afed2c73149f0f46d6240,,,,,,,,,,X V Q F H G B L J M P D K C T S W R N Z,,,,,,,,,,,,,,,,,,,,,,,,,,,,,,,,,,,,,,,,,,,,,,,,,,,,,,,,,,,,,,,,,,,,,,,,,,,,2,0,2,0,1,,,,,,,,,,,,,
,,,,,,,,,,5f8b41866245d7255a60d47e,22,Mężczyzna,2022-06-04_08h46.35.879,task,2021.1.4,Win32,59.69436485,628b806c463b948bc644b84f,629afed2c73149f0f46d6240,,,,,,,,,,,,,,,,,,,,,,,,,,,,,,,,,,,,,,,,,,,,,,,,,,,,,,,,,,,,,,,,,,,,,,,,,,,,,,,,,,,,,,,,,,,zf,"[""z"",""f""]",0,"[2.4191000001430893,2.915299999952367,3.28520000004778]",0,RNF,1,0,1,0,1,,
,,,,,,,,,,5f8b41866245d7255a60d47e,22,Mężczyzna,2022-06-04_08h46.35.879,task,2021.1.4,Win32,59.69436485,628b806c463b948bc644b84f,629afed2c73149f0f46d6240,,,,,,,,,,,,,,,,,,,,,,,0,,,,,,,,,,Task,17,(2x3) - 6,0,,,,,,,,,,,,,,,,,,,1,,,,,,,,,,,,,,,,,,,,,,,"[""0""]",1,[2.0822999999522835],0,0,0,16,1,,,,,,,,,,,,,,,,,,
,,,,,,,,,,5f8b41866245d7255a60d47e,22,Mężczyzna,2022-06-04_08h46.35.879,task,2021.1.4,Win32,59.69436485,628b806c463b948bc644b84f,629afed2c73149f0f46d6240,,,,,,,,,,X V Q F H G B L J M P D K C T S W R N Z,,,,,,,,,,,,,,,,,,,,,,,,,,,,,,,,,,,,,,,,,,,,,,,,,,,,,,,,,,,,,,,,,,,,,,,,,,,,0,0,0,0,1,,,,,,,,,,,,,
,,,,,,,,,,5f8b41866245d7255a60d47e,22,Mężczyzna,2022-06-04_08h46.35.879,task,2021.1.4,Win32,59.69436485,628b806c463b948bc644b84f,629afed2c73149f0f46d6240,,,,,,,,,,,,,,,,,,,,,,,0,,,,,,,,,,Task,8,(1x5) - 5,0,,,,,,,,,,,,,,,,,,,1,,,,,,,,,,,,,,,,,,,,,,,"[""0""]",1,[1.6184000000953347],0,0,0,7,1,,,,,,,,,,,,,,,,,,
,,,,,,,,,,5f8b41866245d7255a60d47e,22,Mężczyzna,2022-06-04_08h46.35.879,task,2021.1.4,Win32,59.69436485,628b806c463b948bc644b84f,629afed2c73149f0f46d6240,,,,,,,,,,X V Q F H G B L J M P D K C T S W R N Z,,,,,,,,,,,,,,,,,,,,,,,,,,,,,,,,,,,,,,,,,,,,,,,,,,,,,,,,,,,,,,,,,,,,,,,,,,,,1,0,1,0,1,,,,,,,,,,,,,
,,,,,,,,,,5f8b41866245d7255a60d47e,22,Mężczyzna,2022-06-04_08h46.35.879,task,2021.1.4,Win32,59.69436485,628b806c463b948bc644b84f,629afed2c73149f0f46d6240,,,,,,,,,,,,,,,,,,,,,,,1,,,,,,,,,,Task,1,(12/6) - 1,1,,,,,,,,,,,,,,,,,,,1,,,,,,,,,,,,,,,,,,,,,,,"[""1""]",1,[4.4670999999048036],0,0,0,0,1,,,,,,,,,,,,,,,,,,
,,,,,,,,,,5f8b41866245d7255a60d47e,22,Mężczyzna,2022-06-04_08h46.35.879,task,2021.1.4,Win32,59.69436485,628b806c463b948bc644b84f,629afed2c73149f0f46d6240,,,,,,,,,,X V Q F H G B L J M P D K C T S W R N Z,,,,,,,,,,,,,,,,,,,,,,,,,,,,,,,,,,,,,,,,,,,,,,,,,,,,,,,,,,,,,,,,,,,,,,,,,,,,2,0,2,0,1,,,,,,,,,,,,,
,,,,,,,,,,5f8b41866245d7255a60d47e,22,Mężczyzna,2022-06-04_08h46.35.879,task,2021.1.4,Win32,59.69436485,628b806c463b948bc644b84f,629afed2c73149f0f46d6240,,,,,,,,,,,,,,,,,,,,,,,,,,,,,,,,,,,,,,,,,,,,,,,,,,,,,,,,,,,,,,,,,,,,,,,,,,,,,,,,,,,,,,,,,,,cxx,"[""c"",""x"",""x""]",0,"[1.1835000000000946,1.411599999904638,1.5824999999999818,1.7646999998094088]",1,CXX,2,0,2,0,1,,
,,,,,,,,,,5f8b41866245d7255a60d47e,22,Mężczyzna,2022-06-04_08h46.35.879,task,2021.1.4,Win32,59.69436485,628b806c463b948bc644b84f,629afed2c73149f0f46d6240,,,,,,,,,,,,,,,,,,,,,,,4,,,,,,,,,,Task,21,(10/2) - 1,4,,,,,,,,,,,,,,,,,,,1,,,,,,,,,,,,,,,,,,,,,,,"[""4""]",1,[1.6732999999524054],0,0,0,20,1,,,,,,,,,,,,,,,,,,
,,,,,,,,,,5f8b41866245d7255a60d47e,22,Mężczyzna,2022-06-04_08h46.35.879,task,2021.1.4,Win32,59.69436485,628b806c463b948bc644b84f,629afed2c73149f0f46d6240,,,,,,,,,,X V Q F H G B L J M P D K C T S W R N Z,,,,,,,,,,,,,,,,,,,,,,,,,,,,,,,,,,,,,,,,,,,,,,,,,,,,,,,,,,,,,,,,,,,,,,,,,,,,0,0,0,0,1,,,,,,,,,,,,,
,,,,,,,,,,5f8b41866245d7255a60d47e,22,Mężczyzna,2022-06-04_08h46.35.879,task,2021.1.4,Win32,59.69436485,628b806c463b948bc644b84f,629afed2c73149f0f46d6240,,,,,,,,,,,,,,,,,,,,,,,5,,,,,,,,,,Task,29,(3x8) - 19 ,5,,,,,,,,,,,,,,,,,,,1,,,,,,,,,,,,,,,,,,,,,,,"[""5""]",1,[2.8508999998568925],0,0,0,28,1,,,,,,,,,,,,,,,,,,
,,,,,,,,,,5f8b41866245d7255a60d47e,22,Mężczyzna,2022-06-04_08h46.35.879,task,2021.1.4,Win32,59.69436485,628b806c463b948bc644b84f,629afed2c73149f0f46d6240,,,,,,,,,,X V Q F H G B L J M P D K C T S W R N Z,,,,,,,,,,,,,,,,,,,,,,,,,,,,,,,,,,,,,,,,,,,,,,,,,,,,,,,,,,,,,,,,,,,,,,,,,,,,1,0,1,0,1,,,,,,,,,,,,,
,,,,,,,,,,5f8b41866245d7255a60d47e,22,Mężczyzna,2022-06-04_08h46.35.879,task,2021.1.4,Win32,59.69436485,628b806c463b948bc644b84f,629afed2c73149f0f46d6240,,,,,,,,,,,,,,,,,,,,,,,9,,,,,,,,,,Task,24,(2x2) + 5,9,,,,,,,,,,,,,,,,,,,1,,,,,,,,,,,,,,,,,,,,,,,"[""9""]",1,[1.7989000000952728],0,0,0,23,1,,,,,,,,,,,,,,,,,,
,,,,,,,,,,5f8b41866245d7255a60d47e,22,Mężczyzna,2022-06-04_08h46.35.879,task,2021.1.4,Win32,59.69436485,628b806c463b948bc644b84f,629afed2c73149f0f46d6240,,,,,,,,,,X V Q F H G B L J M P D K C T S W R N Z,,,,,,,,,,,,,,,,,,,,,,,,,,,,,,,,,,,,,,,,,,,,,,,,,,,,,,,,,,,,,,,,,,,,,,,,,,,,2,0,2,0,1,,,,,,,,,,,,,
,,,,,,,,,,5f8b41866245d7255a60d47e,22,Mężczyzna,2022-06-04_08h46.35.879,task,2021.1.4,Win32,59.69436485,628b806c463b948bc644b84f,629afed2c73149f0f46d6240,,,,,,,,,,,,,,,,,,,,,,,1,,,,,,,,,,Task,9,(3x7) - 20,1,,,,,,,,,,,,,,,,,,,1,,,,,,,,,,,,,,,,,,,,,,,"[""1""]",1,[1.9760999999045907],0,0,0,8,1,,,,,,,,,,,,,,,,,,
,,,,,,,,,,5f8b41866245d7255a60d47e,22,Mężczyzna,2022-06-04_08h46.35.879,task,2021.1.4,Win32,59.69436485,628b806c463b948bc644b84f,629afed2c73149f0f46d6240,,,,,,,,,,X V Q F H G B L J M P D K C T S W R N Z,,,,,,,,,,,,,,,,,,,,,,,,,,,,,,,,,,,,,,,,,,,,,,,,,,,,,,,,,,,,,,,,,,,,,,,,,,,,3,0,3,0,1,,,,,,,,,,,,,
,,,,,,,,,,5f8b41866245d7255a60d47e,22,Mężczyzna,2022-06-04_08h46.35.879,task,2021.1.4,Win32,59.69436485,628b806c463b948bc644b84f,629afed2c73149f0f46d6240,,,,,,,,,,,,,,,,,,,,,,,,,,,,,,,,,,,,,,,,,,,,,,,,,,,,,,,,,,,,,,,,,,,,,,,,,,,,,,,,,,,,,,,,,,,qltt,"[""q"",""l"",""t"",""t""]",0,"[1.2609000000954893,1.4088000001906948,1.579800000190744,1.750800000190793,1.9576000001432021]",1,QLTT,3,0,3,0,1,,
,,,,,,,,,,5f8b41866245d7255a60d47e,22,Mężczyzna,2022-06-04_08h46.35.879,task,2021.1.4,Win32,59.69436485,628b806c463b948bc644b84f,629afed2c73149f0f46d6240,,,,,,,,,,,,,,,,,,,,,,,5,,,,,,,,,,Task,12,(4x4) - 11,5,,,,,,,,,,,,,,,,,,,1,,,,,,,,,,,,,,,,,,,,,,,"[""5""]",1,[2.0865999999045926],0,0,0,11,1,,,,,,,,,,,,,,,,,,
,,,,,,,,,,5f8b41866245d7255a60d47e,22,Mężczyzna,2022-06-04_08h46.35.879,task,2021.1.4,Win32,59.69436485,628b806c463b948bc644b84f,629afed2c73149f0f46d6240,,,,,,,,,,X V Q F H G B L J M P D K C T S W R N Z,,,,,,,,,,,,,,,,,,,,,,,,,,,,,,,,,,,,,,,,,,,,,,,,,,,,,,,,,,,,,,,,,,,,,,,,,,,,0,0,0,0,1,,,,,,,,,,,,,
,,,,,,,,,,5f8b41866245d7255a60d47e,22,Mężczyzna,2022-06-04_08h46.35.879,task,2021.1.4,Win32,59.69436485,628b806c463b948bc644b84f,629afed2c73149f0f46d6240,,,,,,,,,,,,,,,,,,,,,,,7,,,,,,,,,,Task,34,(9/3) - 2,1,,,,,,,,,,,,,,,,,,,0,,,,,,,,,,,,,,,,,,,,,,,"[""7""]",0,[1.9617000000478129],0,0,0,33,1,,,,,,,,,,,,,,,,,,
,,,,,,,,,,5f8b41866245d7255a60d47e,22,Mężczyzna,2022-06-04_08h46.35.879,task,2021.1.4,Win32,59.69436485,628b806c463b948bc644b84f,629afed2c73149f0f46d6240,,,,,,,,,,,,,,,,,,,,,,,5,,,,,,,,,,Task,29,(3x8) - 19 ,5,,,,,,,,,,,,,,,,,,,1,,,,,,,,,,,,,,,,,,,,,,,"[""5""]",1,[2.0069000000953565],0,1,1,28,1,,,,,,,,,,,,,,,,,,
,,,,,,,,,,5f8b41866245d7255a60d47e,22,Mężczyzna,2022-06-04_08h46.35.879,task,2021.1.4,Win32,59.69436485,628b806c463b948bc644b84f,629afed2c73149f0f46d6240,,,,,,,,,,X V Q F H G B L J M P D K C T S W R N Z,,,,,,,,,,,,,,,,,,,,,,,,,,,,,,,,,,,,,,,,,,,,,,,,,,,,,,,,,,,,,,,,,,,,,,,,,,,,1,0,1,0,1,,,,,,,,,,,,,
,,,,,,,,,,5f8b41866245d7255a60d47e,22,Mężczyzna,2022-06-04_08h46.35.879,task,2021.1.4,Win32,59.69436485,628b806c463b948bc644b84f,629afed2c73149f0f46d6240,,,,,,,,,,,,,,,,,,,,,,,1,,,,,,,,,,Task,18,(16/4) - 3,1,,,,,,,,,,,,,,,,,,,1,,,,,,,,,,,,,,,,,,,,,,,"[""1""]",1,[1.8511000001431057],0,0,0,17,1,,,,,,,,,,,,,,,,,,
,,,,,,,,,,5f8b41866245d7255a60d47e,22,Mężczyzna,2022-06-04_08h46.35.879,task,2021.1.4,Win32,59.69436485,628b806c463b948bc644b84f,629afed2c73149f0f46d6240,,,,,,,,,,X V Q F H G B L J M P D K C T S W R N Z,,,,,,,,,,,,,,,,,,,,,,,,,,,,,,,,,,,,,,,,,,,,,,,,,,,,,,,,,,,,,,,,,,,,,,,,,,,,2,0,2,0,1,,,,,,,,,,,,,
,,,,,,,,,,5f8b41866245d7255a60d47e,22,Mężczyzna,2022-06-04_08h46.35.879,task,2021.1.4,Win32,59.69436485,628b806c463b948bc644b84f,629afed2c73149f0f46d6240,,,,,,,,,,,,,,,,,,,,,,,0,,,,,,,,,,Task,8,(1x5) - 5,0,,,,,,,,,,,,,,,,,,,1,,,,,,,,,,,,,,,,,,,,,,,"[""0""]",1,[1.4350999999046508],0,0,0,7,1,,,,,,,,,,,,,,,,,,
,,,,,,,,,,5f8b41866245d7255a60d47e,22,Mężczyzna,2022-06-04_08h46.35.879,task,2021.1.4,Win32,59.69436485,628b806c463b948bc644b84f,629afed2c73149f0f46d6240,,,,,,,,,,X V Q F H G B L J M P D K C T S W R N Z,,,,,,,,,,,,,,,,,,,,,,,,,,,,,,,,,,,,,,,,,,,,,,,,,,,,,,,,,,,,,,,,,,,,,,,,,,,,3,0,3,0,1,,,,,,,,,,,,,
,,,,,,,,,,5f8b41866245d7255a60d47e,22,Mężczyzna,2022-06-04_08h46.35.879,task,2021.1.4,Win32,59.69436485,628b806c463b948bc644b84f,629afed2c73149f0f46d6240,,,,,,,,,,,,,,,,,,,,,,,8,,,,,,,,,,Task,32,(8/2) + 4,8,,,,,,,,,,,,,,,,,,,1,,,,,,,,,,,,,,,,,,,,,,,"[""8""]",1,[3.2411000001429784],0,0,0,31,1,,,,,,,,,,,,,,,,,,
,,,,,,,,,,5f8b41866245d7255a60d47e,22,Mężczyzna,2022-06-04_08h46.35.879,task,2021.1.4,Win32,59.69436485,628b806c463b948bc644b84f,629afed2c73149f0f46d6240,,,,,,,,,,X V Q F H G B L J M P D K C T S W R N Z,,,,,,,,,,,,,,,,,,,,,,,,,,,,,,,,,,,,,,,,,,,,,,,,,,,,,,,,,,,,,,,,,,,,,,,,,,,,4,0,4,0,1,,,,,,,,,,,,,
,,,,,,,,,,5f8b41866245d7255a60d47e,22,Mężczyzna,2022-06-04_08h46.35.879,task,2021.1.4,Win32,59.69436485,628b806c463b948bc644b84f,629afed2c73149f0f46d6240,,,,,,,,,,,,,,,,,,,,,,,,,,,,,,,,,,,,,,,,,,,,,,,,,,,,,,,,,,,,,,,,,,,,,,,,,,,,,,,,,,,,,,,,,,,pzhtl,"[""p"",""z"",""h"",""t"",""l""]",0,"[1.6837999999524982,1.8552000000477165,2.467299999952502,2.6186000001432603,2.852799999952367,3.2576000001431566]",1,PZHTL,4,0,4,0,1,,
,,,,,,,,,,5f8b41866245d7255a60d47e,22,Mężczyzna,2022-06-04_08h46.35.879,task,2021.1.4,Win32,59.69436485,628b806c463b948bc644b84f,629afed2c73149f0f46d6240,,,,,,,,,,,,,,,,,,,,,,,5,,,,,,,,,,Task,12,(4x4) - 11,5,,,,,,,,,,,,,,,,,,,1,,,,,,,,,,,,,,,,,,,,,,,"[""5""]",1,[1.2542000000476037],0,0,0,11,1,,,,,,,,,,,,,,,,,,
,,,,,,,,,,5f8b41866245d7255a60d47e,22,Mężczyzna,2022-06-04_08h46.35.879,task,2021.1.4,Win32,59.69436485,628b806c463b948bc644b84f,629afed2c73149f0f46d6240,,,,,,,,,,X V Q F H G B L J M P D K C T S W R N Z,,,,,,,,,,,,,,,,,,,,,,,,,,,,,,,,,,,,,,,,,,,,,,,,,,,,,,,,,,,,,,,,,,,,,,,,,,,,0,0,0,0,1,,,,,,,,,,,,,
,,,,,,,,,,5f8b41866245d7255a60d47e,22,Mężczyzna,2022-06-04_08h46.35.879,task,2021.1.4,Win32,59.69436485,628b806c463b948bc644b84f,629afed2c73149f0f46d6240,,,,,,,,,,,,,,,,,,,,,,,0,,,,,,,,,,Task,17,(2x3) - 6,0,,,,,,,,,,,,,,,,,,,1,,,,,,,,,,,,,,,,,,,,,,,"[""0""]",1,[2.7532999999523327],0,0,0,16,1,,,,,,,,,,,,,,,,,,
,,,,,,,,,,5f8b41866245d7255a60d47e,22,Mężczyzna,2022-06-04_08h46.35.879,task,2021.1.4,Win32,59.69436485,628b806c463b948bc644b84f,629afed2c73149f0f46d6240,,,,,,,,,,X V Q F H G B L J M P D K C T S W R N Z,,,,,,,,,,,,,,,,,,,,,,,,,,,,,,,,,,,,,,,,,,,,,,,,,,,,,,,,,,,,,,,,,,,,,,,,,,,,1,0,1,0,1,,,,,,,,,,,,,
,,,,,,,,,,5f8b41866245d7255a60d47e,22,Mężczyzna,2022-06-04_08h46.35.879,task,2021.1.4,Win32,59.69436485,628b806c463b948bc644b84f,629afed2c73149f0f46d6240,,,,,,,,,,,,,,,,,,,,,,,0,,,,,,,,,,Task,8,(1x5) - 5,0,,,,,,,,,,,,,,,,,,,1,,,,,,,,,,,,,,,,,,,,,,,"[""0""]",1,[1.183200000047691],0,0,0,7,1,,,,,,,,,,,,,,,,,,
,,,,,,,,,,5f8b41866245d7255a60d47e,22,Mężczyzna,2022-06-04_08h46.35.879,task,2021.1.4,Win32,59.69436485,628b806c463b948bc644b84f,629afed2c73149f0f46d6240,,,,,,,,,,X V Q F H G B L J M P D K C T S W R N Z,,,,,,,,,,,,,,,,,,,,,,,,,,,,,,,,,,,,,,,,,,,,,,,,,,,,,,,,,,,,,,,,,,,,,,,,,,,,2,0,2,0,1,,,,,,,,,,,,,
,,,,,,,,,,5f8b41866245d7255a60d47e,22,Mężczyzna,2022-06-04_08h46.35.879,task,2021.1.4,Win32,59.69436485,628b806c463b948bc644b84f,629afed2c73149f0f46d6240,,,,,,,,,,,,,,,,,,,,,,,1,,,,,,,,,,Task,1,(12/6) - 1,1,,,,,,,,,,,,,,,,,,,1,,,,,,,,,,,,,,,,,,,,,,,"[""1""]",1,[3.9320000000000164],0,0,0,0,1,,,,,,,,,,,,,,,,,,
,,,,,,,,,,5f8b41866245d7255a60d47e,22,Mężczyzna,2022-06-04_08h46.35.879,task,2021.1.4,Win32,59.69436485,628b806c463b948bc644b84f,629afed2c73149f0f46d6240,,,,,,,,,,X V Q F H G B L J M P D K C T S W R N Z,,,,,,,,,,,,,,,,,,,,,,,,,,,,,,,,,,,,,,,,,,,,,,,,,,,,,,,,,,,,,,,,,,,,,,,,,,,,3,0,3,0,1,,,,,,,,,,,,,
,,,,,,,,,,5f8b41866245d7255a60d47e,22,Mężczyzna,2022-06-04_08h46.35.879,task,2021.1.4,Win32,59.69436485,628b806c463b948bc644b84f,629afed2c73149f0f46d6240,,,,,,,,,,,,,,,,,,,,,,,2,,,,,,,,,,Task,10,(2x5) - 8,2,,,,,,,,,,,,,,,,,,,1,,,,,,,,,,,,,,,,,,,,,,,"[""2""]",1,[1.6880999999045798],0,0,0,9,1,,,,,,,,,,,,,,,,,,
,,,,,,,,,,5f8b41866245d7255a60d47e,22,Mężczyzna,2022-06-04_08h46.35.879,task,2021.1.4,Win32,59.69436485,628b806c463b948bc644b84f,629afed2c73149f0f46d6240,,,,,,,,,,X V Q F H G B L J M P D K C T S W R N Z,,,,,,,,,,,,,,,,,,,,,,,,,,,,,,,,,,,,,,,,,,,,,,,,,,,,,,,,,,,,,,,,,,,,,,,,,,,,4,0,4,0,1,,,,,,,,,,,,,
,,,,,,,,,,5f8b41866245d7255a60d47e,22,Mężczyzna,2022-06-04_08h46.35.879,task,2021.1.4,Win32,59.69436485,628b806c463b948bc644b84f,629afed2c73149f0f46d6240,,,,,,,,,,,,,,,,,,,,,,,6,,,,,,,,,,Task,37,(3/3) + 5,6,,,,,,,,,,,,,,,,,,,1,,,,,,,,,,,,,,,,,,,,,,,"[""6""]",1,[3.2949000000953674],0,0,0,36,1,,,,,,,,,,,,,,,,,,
,,,,,,,,,,5f8b41866245d7255a60d47e,22,Mężczyzna,2022-06-04_08h46.35.879,task,2021.1.4,Win32,59.69436485,628b806c463b948bc644b84f,629afed2c73149f0f46d6240,,,,,,,,,,X V Q F H G B L J M P D K C T S W R N Z,,,,,,,,,,,,,,,,,,,,,,,,,,,,,,,,,,,,,,,,,,,,,,,,,,,,,,,,,,,,,,,,,,,,,,,,,,,,5,0,5,0,1,,,,,,,,,,,,,
,,,,,,,,,,5f8b41866245d7255a60d47e,22,Mężczyzna,2022-06-04_08h46.35.879,task,2021.1.4,Win32,59.69436485,628b806c463b948bc644b84f,629afed2c73149f0f46d6240,,,,,,,,,,,,,,,,,,,,,,,,,,,,,,,,,,,,,,,,,,,,,,,,,,,,,,,,,,,,,,,,,,,,,,,,,,,,,,,,,,,,,,,,,,,hxplms,"[""h"",""x"",""p"",""l"",""m"",""s""]",0,"[2.7080000000000837,2.9019000000953383,3.1530999999047253,3.751599999904556,4.070900000095435,4.344099999904529,4.595099999904505]",1,HXPLMS,5,0,5,0,1,,
,,,,,,,,,,5f8b41866245d7255a60d47e,22,Mężczyzna,2022-06-04_08h46.35.879,task,2021.1.4,Win32,59.69436485,628b806c463b948bc644b84f,629afed2c73149f0f46d6240,,,,,,,,,,,,,,,,,,,,,,,1,,,,,,,,,,Task,9,(3x7) - 20,1,,,,,,,,,,,,,,,,,,,1,,,,,,,,,,,,,,,,,,,,,,,"[""1""]",1,[1.0872000000476874],0,0,0,8,1,,,,,,,,,,,,,,,,,,
,,,,,,,,,,5f8b41866245d7255a60d47e,22,Mężczyzna,2022-06-04_08h46.35.879,task,2021.1.4,Win32,59.69436485,628b806c463b948bc644b84f,629afed2c73149f0f46d6240,,,,,,,,,,X V Q F H G B L J M P D K C T S W R N Z,,,,,,,,,,,,,,,,,,,,,,,,,,,,,,,,,,,,,,,,,,,,,,,,,,,,,,,,,,,,,,,,,,,,,,,,,,,,0,0,0,0,1,,,,,,,,,,,,,
,,,,,,,,,,5f8b41866245d7255a60d47e,22,Mężczyzna,2022-06-04_08h46.35.879,task,2021.1.4,Win32,59.69436485,628b806c463b948bc644b84f,629afed2c73149f0f46d6240,,,,,,,,,,,,,,,,,,,,,,,1,,,,,,,,,,Task,18,(16/4) - 3,1,,,,,,,,,,,,,,,,,,,1,,,,,,,,,,,,,,,,,,,,,,,"[""1""]",1,[2.159800000190671],0,0,0,17,1,,,,,,,,,,,,,,,,,,
,,,,,,,,,,5f8b41866245d7255a60d47e,22,Mężczyzna,2022-06-04_08h46.35.879,task,2021.1.4,Win32,59.69436485,628b806c463b948bc644b84f,629afed2c73149f0f46d6240,,,,,,,,,,X V Q F H G B L J M P D K C T S W R N Z,,,,,,,,,,,,,,,,,,,,,,,,,,,,,,,,,,,,,,,,,,,,,,,,,,,,,,,,,,,,,,,,,,,,,,,,,,,,1,0,1,0,1,,,,,,,,,,,,,
,,,,,,,,,,5f8b41866245d7255a60d47e,22,Mężczyzna,2022-06-04_08h46.35.879,task,2021.1.4,Win32,59.69436485,628b806c463b948bc644b84f,629afed2c73149f0f46d6240,,,,,,,,,,,,,,,,,,,,,,,1,,,,,,,,,,Task,9,(3x7) - 20,1,,,,,,,,,,,,,,,,,,,1,,,,,,,,,,,,,,,,,,,,,,,"[""1""]",1,[1.6203000001908094],0,0,0,8,1,,,,,,,,,,,,,,,,,,
,,,,,,,,,,5f8b41866245d7255a60d47e,22,Mężczyzna,2022-06-04_08h46.35.879,task,2021.1.4,Win32,59.69436485,628b806c463b948bc644b84f,629afed2c73149f0f46d6240,,,,,,,,,,X V Q F H G B L J M P D K C T S W R N Z,,,,,,,,,,,,,,,,,,,,,,,,,,,,,,,,,,,,,,,,,,,,,,,,,,,,,,,,,,,,,,,,,,,,,,,,,,,,2,0,2,0,1,,,,,,,,,,,,,
,,,,,,,,,,5f8b41866245d7255a60d47e,22,Mężczyzna,2022-06-04_08h46.35.879,task,2021.1.4,Win32,59.69436485,628b806c463b948bc644b84f,629afed2c73149f0f46d6240,,,,,,,,,,,,,,,,,,,,,,,1,,,,,,,,,,Task,18,(16/4) - 3,1,,,,,,,,,,,,,,,,,,,1,,,,,,,,,,,,,,,,,,,,,,,"[""1""]",1,[2.320400000095333],0,0,0,17,1,,,,,,,,,,,,,,,,,,
,,,,,,,,,,5f8b41866245d7255a60d47e,22,Mężczyzna,2022-06-04_08h46.35.879,task,2021.1.4,Win32,59.69436485,628b806c463b948bc644b84f,629afed2c73149f0f46d6240,,,,,,,,,,X V Q F H G B L J M P D K C T S W R N Z,,,,,,,,,,,,,,,,,,,,,,,,,,,,,,,,,,,,,,,,,,,,,,,,,,,,,,,,,,,,,,,,,,,,,,,,,,,,3,0,3,0,1,,,,,,,,,,,,,
,,,,,,,,,,5f8b41866245d7255a60d47e,22,Mężczyzna,2022-06-04_08h46.35.879,task,2021.1.4,Win32,59.69436485,628b806c463b948bc644b84f,629afed2c73149f0f46d6240,,,,,,,,,,,,,,,,,,,,,,,8,,,,,,,,,,Task,39,(5x3) - 7,8,,,,,,,,,,,,,,,,,,,1,,,,,,,,,,,,,,,,,,,,,,,"[""8""]",1,[2.7537999999524345],0,0,0,38,1,,,,,,,,,,,,,,,,,,
,,,,,,,,,,5f8b41866245d7255a60d47e,22,Mężczyzna,2022-06-04_08h46.35.879,task,2021.1.4,Win32,59.69436485,628b806c463b948bc644b84f,629afed2c73149f0f46d6240,,,,,,,,,,X V Q F H G B L J M P D K C T S W R N Z,,,,,,,,,,,,,,,,,,,,,,,,,,,,,,,,,,,,,,,,,,,,,,,,,,,,,,,,,,,,,,,,,,,,,,,,,,,,4,0,4,0,1,,,,,,,,,,,,,
,,,,,,,,,,5f8b41866245d7255a60d47e,22,Mężczyzna,2022-06-04_08h46.35.879,task,2021.1.4,Win32,59.69436485,628b806c463b948bc644b84f,629afed2c73149f0f46d6240,,,,,,,,,,,,,,,,,,,,,,,4,,,,,,,,,,Task,4,(1x5) - 1,4,,,,,,,,,,,,,,,,,,,1,,,,,,,,,,,,,,,,,,,,,,,"[""4""]",1,[1.6749999999999545],0,0,0,3,1,,,,,,,,,,,,,,,,,,
,,,,,,,,,,5f8b41866245d7255a60d47e,22,Mężczyzna,2022-06-04_08h46.35.879,task,2021.1.4,Win32,59.69436485,628b806c463b948bc644b84f,629afed2c73149f0f46d6240,,,,,,,,,,X V Q F H G B L J M P D K C T S W R N Z,,,,,,,,,,,,,,,,,,,,,,,,,,,,,,,,,,,,,,,,,,,,,,,,,,,,,,,,,,,,,,,,,,,,,,,,,,,,5,0,5,0,1,,,,,,,,,,,,,
,,,,,,,,,,5f8b41866245d7255a60d47e,22,Mężczyzna,2022-06-04_08h46.35.879,task,2021.1.4,Win32,59.69436485,628b806c463b948bc644b84f,629afed2c73149f0f46d6240,,,,,,,,,,,,,,,,,,,,,,,3,,,,,,,,,,Task,20,(18/9) + 1,3,,,,,,,,,,,,,,,,,,,1,,,,,,,,,,,,,,,,,,,,,,,"[""3""]",1,[3.134499999999889],0,0,0,19,1,,,,,,,,,,,,,,,,,,
,,,,,,,,,,5f8b41866245d7255a60d47e,22,Mężczyzna,2022-06-04_08h46.35.879,task,2021.1.4,Win32,59.69436485,628b806c463b948bc644b84f,629afed2c73149f0f46d6240,,,,,,,,,,X V Q F H G B L J M P D K C T S W R N Z,,,,,,,,,,,,,,,,,,,,,,,,,,,,,,,,,,,,,,,,,,,,,,,,,,,,,,,,,,,,,,,,,,,,,,,,,,,,6,0,6,0,1,,,,,,,,,,,,,
,,,,,,,,,,5f8b41866245d7255a60d47e,22,Mężczyzna,2022-06-04_08h46.35.879,task,2021.1.4,Win32,59.69436485,628b806c463b948bc644b84f,629afed2c73149f0f46d6240,,,,,,,,,,,,,,,,,,,,,,,,,,,,,,,,,,,,,,,,,,,,,,,,,,,,,,,,,,,,,,,,,,,,,,,,,,,,,,,,,,,,,,,,,,,stltqgf,"[""s"",""t"",""l"",""t"",""q"",""g"",""f""]",0,"[1.6085000000000491,1.9294999999999618,2.20120000004772,2.566700000047831,4.4887000000478565,4.784400000095502,5.047300000190717,5.503400000095326]",0,STLTGQF,6,0,6,0,1,,
,,,,,,,,,,5f8b41866245d7255a60d47e,22,Mężczyzna,2022-06-04_08h46.35.879,task,2021.1.4,Win32,59.69436485,628b806c463b948bc644b84f,629afed2c73149f0f46d6240,,,,,,,,,,,,,,,,,,,,,,,8,,,,,,,,,,Task,15,(3x7) - 13,8,,,,,,,,,,,,,,,,,,,1,,,,,,,,,,,,,,,,,,,,,,,"[""8""]",1,[1.757400000095231],0,0,0,14,1,,,,,,,,,,,,,,,,,,
,,,,,,,,,,5f8b41866245d7255a60d47e,22,Mężczyzna,2022-06-04_08h46.35.879,task,2021.1.4,Win32,59.69436485,628b806c463b948bc644b84f,629afed2c73149f0f46d6240,,,,,,,,,,X V Q F H G B L J M P D K C T S W R N Z,,,,,,,,,,,,,,,,,,,,,,,,,,,,,,,,,,,,,,,,,,,,,,,,,,,,,,,,,,,,,,,,,,,,,,,,,,,,0,0,0,0,1,,,,,,,,,,,,,
