key_resp_15.keys,key_resp_15.rt,key_resp_13.keys,key_resp_13.corr,ranodm_loop.thisRepN,ranodm_loop.thisTrialN,ranodm_loop.thisN,ranodm_loop.thisIndex,ranodm_loop.ran,participant,Wiek*,Płeć,date,expName,psychopyVersion,OS,frameRate,study_id,session,key_resp_13.rt,key_resp_16.keys,key_resp_16.rt,key_resp_4.keys,key_resp_4.rt,next_letter.thisRepN,next_letter.thisTrialN,next_letter.thisN,next_letter.thisIndex,next_letter.ran,letter,simple_recall,key_resp_5.keys,key_resp_5.rt,simple_recall_corr,simple_recall_corrkeys,next_level.thisRepN,next_level.thisTrialN,next_level.thisN,next_level.thisIndex,next_level.ran,key_resp_2.keys,key_resp_2.rt,digit_answer,key_resp.keys,key_resp.corr,key_resp.rt,RT_list,next_equation.thisRepN,next_equation.thisTrialN,next_equation.thisN,next_equation.thisIndex,next_equation.ran,Task,Trial,Problem,Operation_answer,processing_score,sumRT,meanRT,sumdiff,sd,RT,key_resp_3.keys,key_resp_3.rt,repeat_practice.thisRepN,repeat_practice.thisTrialN,repeat_practice.thisN,repeat_practice.thisIndex,repeat_practice.ran,key_resp_6.keys,key_resp_6.rt,key_resp_11.keys,key_resp_11.corr,key_resp_11.rt,operation_correct,repeat_if_wrong_prac.thisRepN,repeat_if_wrong_prac.thisTrialN,repeat_if_wrong_prac.thisN,repeat_if_wrong_prac.thisIndex,repeat_if_wrong_prac.ran,span_size_prac.thisRepN,span_size_prac.thisTrialN,span_size_prac.thisN,span_size_prac.thisIndex,span_size_prac.ran,complex_recall_practice,key_resp_9.keys,key_resp_9.corr,key_resp_9.rt,complex_prac_corr,span_recall_prac.thisRepN,span_recall_prac.thisTrialN,span_recall_prac.thisN,span_recall_prac.thisIndex,span_recall_prac.ran,key_resp_10.keys,key_resp_10.rt,key_resp_7.keys,key_resp_7.corr,key_resp_7.rt,repeat_if_wrong.thisRepN,repeat_if_wrong.thisTrialN,repeat_if_wrong.thisN,repeat_if_wrong.thisIndex,repeat_if_wrong.ran,span_size.thisRepN,span_size.thisTrialN,span_size.thisN,span_size.thisIndex,span_size.ran,complex_recall,key_resp_8.keys,key_resp_8.corr,key_resp_8.rt,complex_recall_corr,complex_recall_corrkeys,span_recall.thisRepN,span_recall.thisTrialN,span_recall.thisN,span_recall.thisIndex,span_recall.ran,key_resp_12.keys,key_resp_12.rt
space,2.2769,,0,0,0,0,0,1,5f957181be463b3d6a83a84a,21,Mężczyzna,2022-06-04_08h37.08.743,task,2021.1.4,Win32,59.672992,628b806c463b948bc644b84f,629afd0c5bce29c44bada6ea,,,,,,,,,,,,,,,,,,,,,,,,,,,,,,,,,,,,,,,,,,,,,,,,,,,,,,,,,,,,,,,,,,,,,,,,,,,,,,,,,,,,,,,,,,,,,,,,,,,,,,,,
,,"[""period""]",0,1,0,1,0,1,5f957181be463b3d6a83a84a,21,Mężczyzna,2022-06-04_08h37.08.743,task,2021.1.4,Win32,59.672992,628b806c463b948bc644b84f,629afd0c5bce29c44bada6ea,[0.7360999999046314],,,,,,,,,,,,,,,,,,,,,,,,,,,,,,,,,,,,,,,,,,,,,,,,,,,,,,,,,,,,,,,,,,,,,,,,,,,,,,,,,,,,,,,,,,,,,,,,,,,,,,,
,,"[""comma""]",0,2,0,2,0,1,5f957181be463b3d6a83a84a,21,Mężczyzna,2022-06-04_08h37.08.743,task,2021.1.4,Win32,59.672992,628b806c463b948bc644b84f,629afd0c5bce29c44bada6ea,[0.5407999999523199],,,,,,,,,,,,,,,,,,,,,,,,,,,,,,,,,,,,,,,,,,,,,,,,,,,,,,,,,,,,,,,,,,,,,,,,,,,,,,,,,,,,,,,,,,,,,,,,,,,,,,,
,,"[""comma""]",0,3,0,3,0,1,5f957181be463b3d6a83a84a,21,Mężczyzna,2022-06-04_08h37.08.743,task,2021.1.4,Win32,59.672992,628b806c463b948bc644b84f,629afd0c5bce29c44bada6ea,[0.7860999999046285],,,,,,,,,,,,,,,,,,,,,,,,,,,,,,,,,,,,,,,,,,,,,,,,,,,,,,,,,,,,,,,,,,,,,,,,,,,,,,,,,,,,,,,,,,,,,,,,,,,,,,,
,,"[""period""]",0,4,0,4,0,1,5f957181be463b3d6a83a84a,21,Mężczyzna,2022-06-04_08h37.08.743,task,2021.1.4,Win32,59.672992,628b806c463b948bc644b84f,629afd0c5bce29c44bada6ea,[0.4026999999284797],,,,,,,,,,,,,,,,,,,,,,,,,,,,,,,,,,,,,,,,,,,,,,,,,,,,,,,,,,,,,,,,,,,,,,,,,,,,,,,,,,,,,,,,,,,,,,,,,,,,,,,
,,"[""period""]",0,5,0,5,0,1,5f957181be463b3d6a83a84a,21,Mężczyzna,2022-06-04_08h37.08.743,task,2021.1.4,Win32,59.672992,628b806c463b948bc644b84f,629afd0c5bce29c44bada6ea,[0.39289999997615865],,,,,,,,,,,,,,,,,,,,,,,,,,,,,,,,,,,,,,,,,,,,,,,,,,,,,,,,,,,,,,,,,,,,,,,,,,,,,,,,,,,,,,,,,,,,,,,,,,,,,,,
,,"[""comma""]",0,6,0,6,0,1,5f957181be463b3d6a83a84a,21,Mężczyzna,2022-06-04_08h37.08.743,task,2021.1.4,Win32,59.672992,628b806c463b948bc644b84f,629afd0c5bce29c44bada6ea,[0.4422000000476842],,,,,,,,,,,,,,,,,,,,,,,,,,,,,,,,,,,,,,,,,,,,,,,,,,,,,,,,,,,,,,,,,,,,,,,,,,,,,,,,,,,,,,,,,,,,,,,,,,,,,,,
,,"[""comma""]",0,7,0,7,0,1,5f957181be463b3d6a83a84a,21,Mężczyzna,2022-06-04_08h37.08.743,task,2021.1.4,Win32,59.672992,628b806c463b948bc644b84f,629afd0c5bce29c44bada6ea,[0.5708000000715217],,,,,,,,,,,,,,,,,,,,,,,,,,,,,,,,,,,,,,,,,,,,,,,,,,,,,,,,,,,,,,,,,,,,,,,,,,,,,,,,,,,,,,,,,,,,,,,,,,,,,,,
,,"[""comma""]",0,8,0,8,0,1,5f957181be463b3d6a83a84a,21,Mężczyzna,2022-06-04_08h37.08.743,task,2021.1.4,Win32,59.672992,628b806c463b948bc644b84f,629afd0c5bce29c44bada6ea,[0.586900000095369],,,,,,,,,,,,,,,,,,,,,,,,,,,,,,,,,,,,,,,,,,,,,,,,,,,,,,,,,,,,,,,,,,,,,,,,,,,,,,,,,,,,,,,,,,,,,,,,,,,,,,,
,,"[""period""]",0,9,0,9,0,1,5f957181be463b3d6a83a84a,21,Mężczyzna,2022-06-04_08h37.08.743,task,2021.1.4,Win32,59.672992,628b806c463b948bc644b84f,629afd0c5bce29c44bada6ea,[0.33439999997616354],,,,,,,,,,,,,,,,,,,,,,,,,,,,,,,,,,,,,,,,,,,,,,,,,,,,,,,,,,,,,,,,,,,,,,,,,,,,,,,,,,,,,,,,,,,,,,,,,,,,,,,
,,"[""period""]",0,10,0,10,0,1,5f957181be463b3d6a83a84a,21,Mężczyzna,2022-06-04_08h37.08.743,task,2021.1.4,Win32,59.672992,628b806c463b948bc644b84f,629afd0c5bce29c44bada6ea,[0.6424000000953711],,,,,,,,,,,,,,,,,,,,,,,,,,,,,,,,,,,,,,,,,,,,,,,,,,,,,,,,,,,,,,,,,,,,,,,,,,,,,,,,,,,,,,,,,,,,,,,,,,,,,,,
,,"[""comma""]",0,11,0,11,0,1,5f957181be463b3d6a83a84a,21,Mężczyzna,2022-06-04_08h37.08.743,task,2021.1.4,Win32,59.672992,628b806c463b948bc644b84f,629afd0c5bce29c44bada6ea,[0.4033000000715248],,,,,,,,,,,,,,,,,,,,,,,,,,,,,,,,,,,,,,,,,,,,,,,,,,,,,,,,,,,,,,,,,,,,,,,,,,,,,,,,,,,,,,,,,,,,,,,,,,,,,,,
,,"[""period""]",0,12,0,12,0,1,5f957181be463b3d6a83a84a,21,Mężczyzna,2022-06-04_08h37.08.743,task,2021.1.4,Win32,59.672992,628b806c463b948bc644b84f,629afd0c5bce29c44bada6ea,[0.41800000000000637],,,,,,,,,,,,,,,,,,,,,,,,,,,,,,,,,,,,,,,,,,,,,,,,,,,,,,,,,,,,,,,,,,,,,,,,,,,,,,,,,,,,,,,,,,,,,,,,,,,,,,,
,,"[""period""]",0,13,0,13,0,1,5f957181be463b3d6a83a84a,21,Mężczyzna,2022-06-04_08h37.08.743,task,2021.1.4,Win32,59.672992,628b806c463b948bc644b84f,629afd0c5bce29c44bada6ea,[0.35139999997616655],,,,,,,,,,,,,,,,,,,,,,,,,,,,,,,,,,,,,,,,,,,,,,,,,,,,,,,,,,,,,,,,,,,,,,,,,,,,,,,,,,,,,,,,,,,,,,,,,,,,,,,
,,"[""comma""]",0,14,0,14,0,1,5f957181be463b3d6a83a84a,21,Mężczyzna,2022-06-04_08h37.08.743,task,2021.1.4,Win32,59.672992,628b806c463b948bc644b84f,629afd0c5bce29c44bada6ea,[0.47959999990462165],,,,,,,,,,,,,,,,,,,,,,,,,,,,,,,,,,,,,,,,,,,,,,,,,,,,,,,,,,,,,,,,,,,,,,,,,,,,,,,,,,,,,,,,,,,,,,,,,,,,,,,
,,"[""period""]",0,15,0,15,0,1,5f957181be463b3d6a83a84a,21,Mężczyzna,2022-06-04_08h37.08.743,task,2021.1.4,Win32,59.672992,628b806c463b948bc644b84f,629afd0c5bce29c44bada6ea,[0.39469999992847704],,,,,,,,,,,,,,,,,,,,,,,,,,,,,,,,,,,,,,,,,,,,,,,,,,,,,,,,,,,,,,,,,,,,,,,,,,,,,,,,,,,,,,,,,,,,,,,,,,,,,,,
,,"[""period""]",0,16,0,16,0,1,5f957181be463b3d6a83a84a,21,Mężczyzna,2022-06-04_08h37.08.743,task,2021.1.4,Win32,59.672992,628b806c463b948bc644b84f,629afd0c5bce29c44bada6ea,[0.6427000000476966],,,,,,,,,,,,,,,,,,,,,,,,,,,,,,,,,,,,,,,,,,,,,,,,,,,,,,,,,,,,,,,,,,,,,,,,,,,,,,,,,,,,,,,,,,,,,,,,,,,,,,,
,,"[""comma""]",0,17,0,17,0,1,5f957181be463b3d6a83a84a,21,Mężczyzna,2022-06-04_08h37.08.743,task,2021.1.4,Win32,59.672992,628b806c463b948bc644b84f,629afd0c5bce29c44bada6ea,[0.420600000023839],,,,,,,,,,,,,,,,,,,,,,,,,,,,,,,,,,,,,,,,,,,,,,,,,,,,,,,,,,,,,,,,,,,,,,,,,,,,,,,,,,,,,,,,,,,,,,,,,,,,,,,
,,"[""comma""]",0,18,0,18,0,1,5f957181be463b3d6a83a84a,21,Mężczyzna,2022-06-04_08h37.08.743,task,2021.1.4,Win32,59.672992,628b806c463b948bc644b84f,629afd0c5bce29c44bada6ea,[1.1434999999999889],,,,,,,,,,,,,,,,,,,,,,,,,,,,,,,,,,,,,,,,,,,,,,,,,,,,,,,,,,,,,,,,,,,,,,,,,,,,,,,,,,,,,,,,,,,,,,,,,,,,,,,
,,"[""period""]",0,19,0,19,0,1,5f957181be463b3d6a83a84a,21,Mężczyzna,2022-06-04_08h37.08.743,task,2021.1.4,Win32,59.672992,628b806c463b948bc644b84f,629afd0c5bce29c44bada6ea,[0.4344999999999999],,,,,,,,,,,,,,,,,,,,,,,,,,,,,,,,,,,,,,,,,,,,,,,,,,,,,,,,,,,,,,,,,,,,,,,,,,,,,,,,,,,,,,,,,,,,,,,,,,,,,,,
,,"[""comma""]",0,20,0,20,0,1,5f957181be463b3d6a83a84a,21,Mężczyzna,2022-06-04_08h37.08.743,task,2021.1.4,Win32,59.672992,628b806c463b948bc644b84f,629afd0c5bce29c44bada6ea,[0.7193999999761616],,,,,,,,,,,,,,,,,,,,,,,,,,,,,,,,,,,,,,,,,,,,,,,,,,,,,,,,,,,,,,,,,,,,,,,,,,,,,,,,,,,,,,,,,,,,,,,,,,,,,,,
,,"[""period""]",0,21,0,21,0,1,5f957181be463b3d6a83a84a,21,Mężczyzna,2022-06-04_08h37.08.743,task,2021.1.4,Win32,59.672992,628b806c463b948bc644b84f,629afd0c5bce29c44bada6ea,[0.2453999999761578],,,,,,,,,,,,,,,,,,,,,,,,,,,,,,,,,,,,,,,,,,,,,,,,,,,,,,,,,,,,,,,,,,,,,,,,,,,,,,,,,,,,,,,,,,,,,,,,,,,,,,,
,,"[""comma""]",0,22,0,22,0,1,5f957181be463b3d6a83a84a,21,Mężczyzna,2022-06-04_08h37.08.743,task,2021.1.4,Win32,59.672992,628b806c463b948bc644b84f,629afd0c5bce29c44bada6ea,[0.49759999990462234],,,,,,,,,,,,,,,,,,,,,,,,,,,,,,,,,,,,,,,,,,,,,,,,,,,,,,,,,,,,,,,,,,,,,,,,,,,,,,,,,,,,,,,,,,,,,,,,,,,,,,,
,,"[""comma""]",0,23,0,23,0,1,5f957181be463b3d6a83a84a,21,Mężczyzna,2022-06-04_08h37.08.743,task,2021.1.4,Win32,59.672992,628b806c463b948bc644b84f,629afd0c5bce29c44bada6ea,[0.4386000000238397],,,,,,,,,,,,,,,,,,,,,,,,,,,,,,,,,,,,,,,,,,,,,,,,,,,,,,,,,,,,,,,,,,,,,,,,,,,,,,,,,,,,,,,,,,,,,,,,,,,,,,,
,,"[""period""]",0,24,0,24,0,1,5f957181be463b3d6a83a84a,21,Mężczyzna,2022-06-04_08h37.08.743,task,2021.1.4,Win32,59.672992,628b806c463b948bc644b84f,629afd0c5bce29c44bada6ea,[0.3889999999999958],,,,,,,,,,,,,,,,,,,,,,,,,,,,,,,,,,,,,,,,,,,,,,,,,,,,,,,,,,,,,,,,,,,,,,,,,,,,,,,,,,,,,,,,,,,,,,,,,,,,,,,
,,"[""period""]",0,25,0,25,0,1,5f957181be463b3d6a83a84a,21,Mężczyzna,2022-06-04_08h37.08.743,task,2021.1.4,Win32,59.672992,628b806c463b948bc644b84f,629afd0c5bce29c44bada6ea,[0.4599000000953737],,,,,,,,,,,,,,,,,,,,,,,,,,,,,,,,,,,,,,,,,,,,,,,,,,,,,,,,,,,,,,,,,,,,,,,,,,,,,,,,,,,,,,,,,,,,,,,,,,,,,,,
,,"[""period""]",0,26,0,26,0,1,5f957181be463b3d6a83a84a,21,Mężczyzna,2022-06-04_08h37.08.743,task,2021.1.4,Win32,59.672992,628b806c463b948bc644b84f,629afd0c5bce29c44bada6ea,[0.6838999999761626],,,,,,,,,,,,,,,,,,,,,,,,,,,,,,,,,,,,,,,,,,,,,,,,,,,,,,,,,,,,,,,,,,,,,,,,,,,,,,,,,,,,,,,,,,,,,,,,,,,,,,,
,,"[""comma""]",0,27,0,27,0,1,5f957181be463b3d6a83a84a,21,Mężczyzna,2022-06-04_08h37.08.743,task,2021.1.4,Win32,59.672992,628b806c463b948bc644b84f,629afd0c5bce29c44bada6ea,[0.40500000000000114],,,,,,,,,,,,,,,,,,,,,,,,,,,,,,,,,,,,,,,,,,,,,,,,,,,,,,,,,,,,,,,,,,,,,,,,,,,,,,,,,,,,,,,,,,,,,,,,,,,,,,,
,,"[""comma""]",0,28,0,28,0,1,5f957181be463b3d6a83a84a,21,Mężczyzna,2022-06-04_08h37.08.743,task,2021.1.4,Win32,59.672992,628b806c463b948bc644b84f,629afd0c5bce29c44bada6ea,[0.47400000000000375],,,,,,,,,,,,,,,,,,,,,,,,,,,,,,,,,,,,,,,,,,,,,,,,,,,,,,,,,,,,,,,,,,,,,,,,,,,,,,,,,,,,,,,,,,,,,,,,,,,,,,,
,,"[""period""]",0,29,0,29,0,1,5f957181be463b3d6a83a84a,21,Mężczyzna,2022-06-04_08h37.08.743,task,2021.1.4,Win32,59.672992,628b806c463b948bc644b84f,629afd0c5bce29c44bada6ea,[0.5542000000476861],,,,,,,,,,,,,,,,,,,,,,,,,,,,,,,,,,,,,,,,,,,,,,,,,,,,,,,,,,,,,,,,,,,,,,,,,,,,,,,,,,,,,,,,,,,,,,,,,,,,,,,
,,"[""comma""]",0,30,0,30,0,1,5f957181be463b3d6a83a84a,21,Mężczyzna,2022-06-04_08h37.08.743,task,2021.1.4,Win32,59.672992,628b806c463b948bc644b84f,629afd0c5bce29c44bada6ea,[0.9474999999999909],,,,,,,,,,,,,,,,,,,,,,,,,,,,,,,,,,,,,,,,,,,,,,,,,,,,,,,,,,,,,,,,,,,,,,,,,,,,,,,,,,,,,,,,,,,,,,,,,,,,,,,
,,"[""period""]",0,31,0,31,0,1,5f957181be463b3d6a83a84a,21,Mężczyzna,2022-06-04_08h37.08.743,task,2021.1.4,Win32,59.672992,628b806c463b948bc644b84f,629afd0c5bce29c44bada6ea,[0.30510000002384174],,,,,,,,,,,,,,,,,,,,,,,,,,,,,,,,,,,,,,,,,,,,,,,,,,,,,,,,,,,,,,,,,,,,,,,,,,,,,,,,,,,,,,,,,,,,,,,,,,,,,,,
,,"[""comma"",""comma""]",0,32,0,32,0,1,5f957181be463b3d6a83a84a,21,Mężczyzna,2022-06-04_08h37.08.743,task,2021.1.4,Win32,59.672992,628b806c463b948bc644b84f,629afd0c5bce29c44bada6ea,"[0.11750000000000682,0.4612000000476826]",,,,,,,,,,,,,,,,,,,,,,,,,,,,,,,,,,,,,,,,,,,,,,,,,,,,,,,,,,,,,,,,,,,,,,,,,,,,,,,,,,,,,,,,,,,,,,,,,,,,,,,
,,"[""period""]",0,33,0,33,0,1,5f957181be463b3d6a83a84a,21,Mężczyzna,2022-06-04_08h37.08.743,task,2021.1.4,Win32,59.672992,628b806c463b948bc644b84f,629afd0c5bce29c44bada6ea,[0.26329999995230935],,,,,,,,,,,,,,,,,,,,,,,,,,,,,,,,,,,,,,,,,,,,,,,,,,,,,,,,,,,,,,,,,,,,,,,,,,,,,,,,,,,,,,,,,,,,,,,,,,,,,,,
,,"[""period""]",0,34,0,34,0,1,5f957181be463b3d6a83a84a,21,Mężczyzna,2022-06-04_08h37.08.743,task,2021.1.4,Win32,59.672992,628b806c463b948bc644b84f,629afd0c5bce29c44bada6ea,[0.5528999999761481],,,,,,,,,,,,,,,,,,,,,,,,,,,,,,,,,,,,,,,,,,,,,,,,,,,,,,,,,,,,,,,,,,,,,,,,,,,,,,,,,,,,,,,,,,,,,,,,,,,,,,,
,,"[""comma""]",0,35,0,35,0,1,5f957181be463b3d6a83a84a,21,Mężczyzna,2022-06-04_08h37.08.743,task,2021.1.4,Win32,59.672992,628b806c463b948bc644b84f,629afd0c5bce29c44bada6ea,[0.9453999999761606],,,,,,,,,,,,,,,,,,,,,,,,,,,,,,,,,,,,,,,,,,,,,,,,,,,,,,,,,,,,,,,,,,,,,,,,,,,,,,,,,,,,,,,,,,,,,,,,,,,,,,,
,,"[""comma""]",0,36,0,36,0,1,5f957181be463b3d6a83a84a,21,Mężczyzna,2022-06-04_08h37.08.743,task,2021.1.4,Win32,59.672992,628b806c463b948bc644b84f,629afd0c5bce29c44bada6ea,[0.6861999999284762],,,,,,,,,,,,,,,,,,,,,,,,,,,,,,,,,,,,,,,,,,,,,,,,,,,,,,,,,,,,,,,,,,,,,,,,,,,,,,,,,,,,,,,,,,,,,,,,,,,,,,,
,,"[""comma""]",0,37,0,37,0,1,5f957181be463b3d6a83a84a,21,Mężczyzna,2022-06-04_08h37.08.743,task,2021.1.4,Win32,59.672992,628b806c463b948bc644b84f,629afd0c5bce29c44bada6ea,[0.45559999990463496],,,,,,,,,,,,,,,,,,,,,,,,,,,,,,,,,,,,,,,,,,,,,,,,,,,,,,,,,,,,,,,,,,,,,,,,,,,,,,,,,,,,,,,,,,,,,,,,,,,,,,,
,,"[""comma""]",0,38,0,38,0,1,5f957181be463b3d6a83a84a,21,Mężczyzna,2022-06-04_08h37.08.743,task,2021.1.4,Win32,59.672992,628b806c463b948bc644b84f,629afd0c5bce29c44bada6ea,[0.7873999999761594],,,,,,,,,,,,,,,,,,,,,,,,,,,,,,,,,,,,,,,,,,,,,,,,,,,,,,,,,,,,,,,,,,,,,,,,,,,,,,,,,,,,,,,,,,,,,,,,,,,,,,,
,,"[""period""]",0,39,0,39,0,1,5f957181be463b3d6a83a84a,21,Mężczyzna,2022-06-04_08h37.08.743,task,2021.1.4,Win32,59.672992,628b806c463b948bc644b84f,629afd0c5bce29c44bada6ea,[0.4966999999284809],,,,,,,,,,,,,,,,,,,,,,,,,,,,,,,,,,,,,,,,,,,,,,,,,,,,,,,,,,,,,,,,,,,,,,,,,,,,,,,,,,,,,,,,,,,,,,,,,,,,,,,
,,"[""period""]",0,40,0,40,0,1,5f957181be463b3d6a83a84a,21,Mężczyzna,2022-06-04_08h37.08.743,task,2021.1.4,Win32,59.672992,628b806c463b948bc644b84f,629afd0c5bce29c44bada6ea,[0.5377999999523269],,,,,,,,,,,,,,,,,,,,,,,,,,,,,,,,,,,,,,,,,,,,,,,,,,,,,,,,,,,,,,,,,,,,,,,,,,,,,,,,,,,,,,,,,,,,,,,,,,,,,,,
,,"[""comma""]",0,41,0,41,0,1,5f957181be463b3d6a83a84a,21,Mężczyzna,2022-06-04_08h37.08.743,task,2021.1.4,Win32,59.672992,628b806c463b948bc644b84f,629afd0c5bce29c44bada6ea,[0.6149999999999949],,,,,,,,,,,,,,,,,,,,,,,,,,,,,,,,,,,,,,,,,,,,,,,,,,,,,,,,,,,,,,,,,,,,,,,,,,,,,,,,,,,,,,,,,,,,,,,,,,,,,,,
,,"[""period""]",0,42,0,42,0,1,5f957181be463b3d6a83a84a,21,Mężczyzna,2022-06-04_08h37.08.743,task,2021.1.4,Win32,59.672992,628b806c463b948bc644b84f,629afd0c5bce29c44bada6ea,[0.560799999952323],,,,,,,,,,,,,,,,,,,,,,,,,,,,,,,,,,,,,,,,,,,,,,,,,,,,,,,,,,,,,,,,,,,,,,,,,,,,,,,,,,,,,,,,,,,,,,,,,,,,,,,
,,"[""period""]",0,43,0,43,0,1,5f957181be463b3d6a83a84a,21,Mężczyzna,2022-06-04_08h37.08.743,task,2021.1.4,Win32,59.672992,628b806c463b948bc644b84f,629afd0c5bce29c44bada6ea,[0.5686000000238494],,,,,,,,,,,,,,,,,,,,,,,,,,,,,,,,,,,,,,,,,,,,,,,,,,,,,,,,,,,,,,,,,,,,,,,,,,,,,,,,,,,,,,,,,,,,,,,,,,,,,,,
,,"[""period""]",0,44,0,44,0,1,5f957181be463b3d6a83a84a,21,Mężczyzna,2022-06-04_08h37.08.743,task,2021.1.4,Win32,59.672992,628b806c463b948bc644b84f,629afd0c5bce29c44bada6ea,[0.5375000000000085],,,,,,,,,,,,,,,,,,,,,,,,,,,,,,,,,,,,,,,,,,,,,,,,,,,,,,,,,,,,,,,,,,,,,,,,,,,,,,,,,,,,,,,,,,,,,,,,,,,,,,,
,,"[""comma""]",0,45,0,45,0,1,5f957181be463b3d6a83a84a,21,Mężczyzna,2022-06-04_08h37.08.743,task,2021.1.4,Win32,59.672992,628b806c463b948bc644b84f,629afd0c5bce29c44bada6ea,[0.32210000002382344],,,,,,,,,,,,,,,,,,,,,,,,,,,,,,,,,,,,,,,,,,,,,,,,,,,,,,,,,,,,,,,,,,,,,,,,,,,,,,,,,,,,,,,,,,,,,,,,,,,,,,,
,,"[""comma""]",0,46,0,46,0,1,5f957181be463b3d6a83a84a,21,Mężczyzna,2022-06-04_08h37.08.743,task,2021.1.4,Win32,59.672992,628b806c463b948bc644b84f,629afd0c5bce29c44bada6ea,[0.40179999995231697],,,,,,,,,,,,,,,,,,,,,,,,,,,,,,,,,,,,,,,,,,,,,,,,,,,,,,,,,,,,,,,,,,,,,,,,,,,,,,,,,,,,,,,,,,,,,,,,,,,,,,,
,,"[""comma""]",0,47,0,47,0,1,5f957181be463b3d6a83a84a,21,Mężczyzna,2022-06-04_08h37.08.743,task,2021.1.4,Win32,59.672992,628b806c463b948bc644b84f,629afd0c5bce29c44bada6ea,[0.4885999999046362],,,,,,,,,,,,,,,,,,,,,,,,,,,,,,,,,,,,,,,,,,,,,,,,,,,,,,,,,,,,,,,,,,,,,,,,,,,,,,,,,,,,,,,,,,,,,,,,,,,,,,,
,,"[""period""]",0,48,0,48,0,1,5f957181be463b3d6a83a84a,21,Mężczyzna,2022-06-04_08h37.08.743,task,2021.1.4,Win32,59.672992,628b806c463b948bc644b84f,629afd0c5bce29c44bada6ea,[0.6418000000715267],,,,,,,,,,,,,,,,,,,,,,,,,,,,,,,,,,,,,,,,,,,,,,,,,,,,,,,,,,,,,,,,,,,,,,,,,,,,,,,,,,,,,,,,,,,,,,,,,,,,,,,
,,"[""comma""]",0,49,0,49,0,1,5f957181be463b3d6a83a84a,21,Mężczyzna,2022-06-04_08h37.08.743,task,2021.1.4,Win32,59.672992,628b806c463b948bc644b84f,629afd0c5bce29c44bada6ea,[0.4578000000715292],,,,,,,,,,,,,,,,,,,,,,,,,,,,,,,,,,,,,,,,,,,,,,,,,,,,,,,,,,,,,,,,,,,,,,,,,,,,,,,,,,,,,,,,,,,,,,,,,,,,,,,
,,"[""comma""]",0,50,0,50,0,1,5f957181be463b3d6a83a84a,21,Mężczyzna,2022-06-04_08h37.08.743,task,2021.1.4,Win32,59.672992,628b806c463b948bc644b84f,629afd0c5bce29c44bada6ea,[0.49320000004766484],,,,,,,,,,,,,,,,,,,,,,,,,,,,,,,,,,,,,,,,,,,,,,,,,,,,,,,,,,,,,,,,,,,,,,,,,,,,,,,,,,,,,,,,,,,,,,,,,,,,,,,
,,"[""period""]",0,51,0,51,0,1,5f957181be463b3d6a83a84a,21,Mężczyzna,2022-06-04_08h37.08.743,task,2021.1.4,Win32,59.672992,628b806c463b948bc644b84f,629afd0c5bce29c44bada6ea,[0.33430000007152216],,,,,,,,,,,,,,,,,,,,,,,,,,,,,,,,,,,,,,,,,,,,,,,,,,,,,,,,,,,,,,,,,,,,,,,,,,,,,,,,,,,,,,,,,,,,,,,,,,,,,,,
,,"[""period""]",0,52,0,52,0,1,5f957181be463b3d6a83a84a,21,Mężczyzna,2022-06-04_08h37.08.743,task,2021.1.4,Win32,59.672992,628b806c463b948bc644b84f,629afd0c5bce29c44bada6ea,[0.418899999976162],,,,,,,,,,,,,,,,,,,,,,,,,,,,,,,,,,,,,,,,,,,,,,,,,,,,,,,,,,,,,,,,,,,,,,,,,,,,,,,,,,,,,,,,,,,,,,,,,,,,,,,
,,"[""period""]",0,53,0,53,0,1,5f957181be463b3d6a83a84a,21,Mężczyzna,2022-06-04_08h37.08.743,task,2021.1.4,Win32,59.672992,628b806c463b948bc644b84f,629afd0c5bce29c44bada6ea,[0.6901000000238469],,,,,,,,,,,,,,,,,,,,,,,,,,,,,,,,,,,,,,,,,,,,,,,,,,,,,,,,,,,,,,,,,,,,,,,,,,,,,,,,,,,,,,,,,,,,,,,,,,,,,,,
,,"[""comma""]",0,54,0,54,0,1,5f957181be463b3d6a83a84a,21,Mężczyzna,2022-06-04_08h37.08.743,task,2021.1.4,Win32,59.672992,628b806c463b948bc644b84f,629afd0c5bce29c44bada6ea,[0.4257000000476694],,,,,,,,,,,,,,,,,,,,,,,,,,,,,,,,,,,,,,,,,,,,,,,,,,,,,,,,,,,,,,,,,,,,,,,,,,,,,,,,,,,,,,,,,,,,,,,,,,,,,,,
,,"[""comma""]",0,55,0,55,0,1,5f957181be463b3d6a83a84a,21,Mężczyzna,2022-06-04_08h37.08.743,task,2021.1.4,Win32,59.672992,628b806c463b948bc644b84f,629afd0c5bce29c44bada6ea,[0.477400000095372],,,,,,,,,,,,,,,,,,,,,,,,,,,,,,,,,,,,,,,,,,,,,,,,,,,,,,,,,,,,,,,,,,,,,,,,,,,,,,,,,,,,,,,,,,,,,,,,,,,,,,,
,,"[""period"",""period""]",0,56,0,56,0,1,5f957181be463b3d6a83a84a,21,Mężczyzna,2022-06-04_08h37.08.743,task,2021.1.4,Win32,59.672992,628b806c463b948bc644b84f,629afd0c5bce29c44bada6ea,"[0.30170000004767417,1.8922000000476658]",,,,,,,,,,,,,,,,,,,,,,,,,,,,,,,,,,,,,,,,,,,,,,,,,,,,,,,,,,,,,,,,,,,,,,,,,,,,,,,,,,,,,,,,,,,,,,,,,,,,,,,
,,,0,57,0,57,0,1,5f957181be463b3d6a83a84a,21,Mężczyzna,2022-06-04_08h37.08.743,task,2021.1.4,Win32,59.672992,628b806c463b948bc644b84f,629afd0c5bce29c44bada6ea,,,,,,,,,,,,,,,,,,,,,,,,,,,,,,,,,,,,,,,,,,,,,,,,,,,,,,,,,,,,,,,,,,,,,,,,,,,,,,,,,,,,,,,,,,,,,,,,,,,,,,,,
,,"[""comma""]",0,58,0,58,0,1,5f957181be463b3d6a83a84a,21,Mężczyzna,2022-06-04_08h37.08.743,task,2021.1.4,Win32,59.672992,628b806c463b948bc644b84f,629afd0c5bce29c44bada6ea,[0.9604999999999961],,,,,,,,,,,,,,,,,,,,,,,,,,,,,,,,,,,,,,,,,,,,,,,,,,,,,,,,,,,,,,,,,,,,,,,,,,,,,,,,,,,,,,,,,,,,,,,,,,,,,,,
,,"[""period""]",0,59,0,59,0,1,5f957181be463b3d6a83a84a,21,Mężczyzna,2022-06-04_08h37.08.743,task,2021.1.4,Win32,59.672992,628b806c463b948bc644b84f,629afd0c5bce29c44bada6ea,[0.39419999992847465],,,,,,,,,,,,,,,,,,,,,,,,,,,,,,,,,,,,,,,,,,,,,,,,,,,,,,,,,,,,,,,,,,,,,,,,,,,,,,,,,,,,,,,,,,,,,,,,,,,,,,,
,,"[""period""]",0,60,0,60,0,1,5f957181be463b3d6a83a84a,21,Mężczyzna,2022-06-04_08h37.08.743,task,2021.1.4,Win32,59.672992,628b806c463b948bc644b84f,629afd0c5bce29c44bada6ea,[0.41910000002383185],,,,,,,,,,,,,,,,,,,,,,,,,,,,,,,,,,,,,,,,,,,,,,,,,,,,,,,,,,,,,,,,,,,,,,,,,,,,,,,,,,,,,,,,,,,,,,,,,,,,,,,
,,"[""comma""]",0,61,0,61,0,1,5f957181be463b3d6a83a84a,21,Mężczyzna,2022-06-04_08h37.08.743,task,2021.1.4,Win32,59.672992,628b806c463b948bc644b84f,629afd0c5bce29c44bada6ea,[0.3733999999761579],,,,,,,,,,,,,,,,,,,,,,,,,,,,,,,,,,,,,,,,,,,,,,,,,,,,,,,,,,,,,,,,,,,,,,,,,,,,,,,,,,,,,,,,,,,,,,,,,,,,,,,
,,"[""comma""]",0,62,0,62,0,1,5f957181be463b3d6a83a84a,21,Mężczyzna,2022-06-04_08h37.08.743,task,2021.1.4,Win32,59.672992,628b806c463b948bc644b84f,629afd0c5bce29c44bada6ea,[0.5682000000476819],,,,,,,,,,,,,,,,,,,,,,,,,,,,,,,,,,,,,,,,,,,,,,,,,,,,,,,,,,,,,,,,,,,,,,,,,,,,,,,,,,,,,,,,,,,,,,,,,,,,,,,
,,"[""comma""]",0,63,0,63,0,1,5f957181be463b3d6a83a84a,21,Mężczyzna,2022-06-04_08h37.08.743,task,2021.1.4,Win32,59.672992,628b806c463b948bc644b84f,629afd0c5bce29c44bada6ea,[0.4411999999284717],,,,,,,,,,,,,,,,,,,,,,,,,,,,,,,,,,,,,,,,,,,,,,,,,,,,,,,,,,,,,,,,,,,,,,,,,,,,,,,,,,,,,,,,,,,,,,,,,,,,,,,
,,"[""period""]",0,64,0,64,0,1,5f957181be463b3d6a83a84a,21,Mężczyzna,2022-06-04_08h37.08.743,task,2021.1.4,Win32,59.672992,628b806c463b948bc644b84f,629afd0c5bce29c44bada6ea,[0.30210000002384163],,,,,,,,,,,,,,,,,,,,,,,,,,,,,,,,,,,,,,,,,,,,,,,,,,,,,,,,,,,,,,,,,,,,,,,,,,,,,,,,,,,,,,,,,,,,,,,,,,,,,,,
,,"[""period""]",0,65,0,65,0,1,5f957181be463b3d6a83a84a,21,Mężczyzna,2022-06-04_08h37.08.743,task,2021.1.4,Win32,59.672992,628b806c463b948bc644b84f,629afd0c5bce29c44bada6ea,[0.7025000000000148],,,,,,,,,,,,,,,,,,,,,,,,,,,,,,,,,,,,,,,,,,,,,,,,,,,,,,,,,,,,,,,,,,,,,,,,,,,,,,,,,,,,,,,,,,,,,,,,,,,,,,,
,,"[""period""]",0,66,0,66,0,1,5f957181be463b3d6a83a84a,21,Mężczyzna,2022-06-04_08h37.08.743,task,2021.1.4,Win32,59.672992,628b806c463b948bc644b84f,629afd0c5bce29c44bada6ea,[0.5570000000000164],,,,,,,,,,,,,,,,,,,,,,,,,,,,,,,,,,,,,,,,,,,,,,,,,,,,,,,,,,,,,,,,,,,,,,,,,,,,,,,,,,,,,,,,,,,,,,,,,,,,,,,
,,"[""period""]",0,67,0,67,0,1,5f957181be463b3d6a83a84a,21,Mężczyzna,2022-06-04_08h37.08.743,task,2021.1.4,Win32,59.672992,628b806c463b948bc644b84f,629afd0c5bce29c44bada6ea,[0.6237999999523254],,,,,,,,,,,,,,,,,,,,,,,,,,,,,,,,,,,,,,,,,,,,,,,,,,,,,,,,,,,,,,,,,,,,,,,,,,,,,,,,,,,,,,,,,,,,,,,,,,,,,,,
,,"[""comma""]",0,68,0,68,0,1,5f957181be463b3d6a83a84a,21,Mężczyzna,2022-06-04_08h37.08.743,task,2021.1.4,Win32,59.672992,628b806c463b948bc644b84f,629afd0c5bce29c44bada6ea,[0.3930000000000007],,,,,,,,,,,,,,,,,,,,,,,,,,,,,,,,,,,,,,,,,,,,,,,,,,,,,,,,,,,,,,,,,,,,,,,,,,,,,,,,,,,,,,,,,,,,,,,,,,,,,,,
,,"[""period"",""period""]",0,69,0,69,0,1,5f957181be463b3d6a83a84a,21,Mężczyzna,2022-06-04_08h37.08.743,task,2021.1.4,Win32,59.672992,628b806c463b948bc644b84f,629afd0c5bce29c44bada6ea,"[0.16280000007154172,1.7153000000715224]",,,,,,,,,,,,,,,,,,,,,,,,,,,,,,,,,,,,,,,,,,,,,,,,,,,,,,,,,,,,,,,,,,,,,,,,,,,,,,,,,,,,,,,,,,,,,,,,,,,,,,,
,,,0,70,0,70,0,1,5f957181be463b3d6a83a84a,21,Mężczyzna,2022-06-04_08h37.08.743,task,2021.1.4,Win32,59.672992,628b806c463b948bc644b84f,629afd0c5bce29c44bada6ea,,,,,,,,,,,,,,,,,,,,,,,,,,,,,,,,,,,,,,,,,,,,,,,,,,,,,,,,,,,,,,,,,,,,,,,,,,,,,,,,,,,,,,,,,,,,,,,,,,,,,,,,
,,"[""comma""]",0,71,0,71,0,1,5f957181be463b3d6a83a84a,21,Mężczyzna,2022-06-04_08h37.08.743,task,2021.1.4,Win32,59.672992,628b806c463b948bc644b84f,629afd0c5bce29c44bada6ea,[0.4287999999523322],,,,,,,,,,,,,,,,,,,,,,,,,,,,,,,,,,,,,,,,,,,,,,,,,,,,,,,,,,,,,,,,,,,,,,,,,,,,,,,,,,,,,,,,,,,,,,,,,,,,,,,
,,"[""comma""]",0,72,0,72,0,1,5f957181be463b3d6a83a84a,21,Mężczyzna,2022-06-04_08h37.08.743,task,2021.1.4,Win32,59.672992,628b806c463b948bc644b84f,629afd0c5bce29c44bada6ea,[0.5373999999761736],,,,,,,,,,,,,,,,,,,,,,,,,,,,,,,,,,,,,,,,,,,,,,,,,,,,,,,,,,,,,,,,,,,,,,,,,,,,,,,,,,,,,,,,,,,,,,,,,,,,,,,
,,"[""comma""]",0,73,0,73,0,1,5f957181be463b3d6a83a84a,21,Mężczyzna,2022-06-04_08h37.08.743,task,2021.1.4,Win32,59.672992,628b806c463b948bc644b84f,629afd0c5bce29c44bada6ea,[0.37760000002384686],,,,,,,,,,,,,,,,,,,,,,,,,,,,,,,,,,,,,,,,,,,,,,,,,,,,,,,,,,,,,,,,,,,,,,,,,,,,,,,,,,,,,,,,,,,,,,,,,,,,,,,
,,"[""period""]",0,74,0,74,0,1,5f957181be463b3d6a83a84a,21,Mężczyzna,2022-06-04_08h37.08.743,task,2021.1.4,Win32,59.672992,628b806c463b948bc644b84f,629afd0c5bce29c44bada6ea,[0.24320000004766484],,,,,,,,,,,,,,,,,,,,,,,,,,,,,,,,,,,,,,,,,,,,,,,,,,,,,,,,,,,,,,,,,,,,,,,,,,,,,,,,,,,,,,,,,,,,,,,,,,,,,,,
,,"[""period""]",0,75,0,75,0,1,5f957181be463b3d6a83a84a,21,Mężczyzna,2022-06-04_08h37.08.743,task,2021.1.4,Win32,59.672992,628b806c463b948bc644b84f,629afd0c5bce29c44bada6ea,[0.38800000000000523],,,,,,,,,,,,,,,,,,,,,,,,,,,,,,,,,,,,,,,,,,,,,,,,,,,,,,,,,,,,,,,,,,,,,,,,,,,,,,,,,,,,,,,,,,,,,,,,,,,,,,,
,,"[""comma""]",0,76,0,76,0,1,5f957181be463b3d6a83a84a,21,Mężczyzna,2022-06-04_08h37.08.743,task,2021.1.4,Win32,59.672992,628b806c463b948bc644b84f,629afd0c5bce29c44bada6ea,[0.7572999999523233],,,,,,,,,,,,,,,,,,,,,,,,,,,,,,,,,,,,,,,,,,,,,,,,,,,,,,,,,,,,,,,,,,,,,,,,,,,,,,,,,,,,,,,,,,,,,,,,,,,,,,,
,,"[""period"",""period""]",0,77,0,77,0,1,5f957181be463b3d6a83a84a,21,Mężczyzna,2022-06-04_08h37.08.743,task,2021.1.4,Win32,59.672992,628b806c463b948bc644b84f,629afd0c5bce29c44bada6ea,"[0.8383999999761613,1.5587999999523277]",,,,,,,,,,,,,,,,,,,,,,,,,,,,,,,,,,,,,,,,,,,,,,,,,,,,,,,,,,,,,,,,,,,,,,,,,,,,,,,,,,,,,,,,,,,,,,,,,,,,,,,
,,"[""comma""]",0,78,0,78,0,1,5f957181be463b3d6a83a84a,21,Mężczyzna,2022-06-04_08h37.08.743,task,2021.1.4,Win32,59.672992,628b806c463b948bc644b84f,629afd0c5bce29c44bada6ea,[1.057899999976172],,,,,,,,,,,,,,,,,,,,,,,,,,,,,,,,,,,,,,,,,,,,,,,,,,,,,,,,,,,,,,,,,,,,,,,,,,,,,,,,,,,,,,,,,,,,,,,,,,,,,,,
,,,0,79,0,79,0,1,5f957181be463b3d6a83a84a,21,Mężczyzna,2022-06-04_08h37.08.743,task,2021.1.4,Win32,59.672992,628b806c463b948bc644b84f,629afd0c5bce29c44bada6ea,,,,,,,,,,,,,,,,,,,,,,,,,,,,,,,,,,,,,,,,,,,,,,,,,,,,,,,,,,,,,,,,,,,,,,,,,,,,,,,,,,,,,,,,,,,,,,,,,,,,,,,,
,,"[""comma""]",0,80,0,80,0,1,5f957181be463b3d6a83a84a,21,Mężczyzna,2022-06-04_08h37.08.743,task,2021.1.4,Win32,59.672992,628b806c463b948bc644b84f,629afd0c5bce29c44bada6ea,[0.38749999999998863],,,,,,,,,,,,,,,,,,,,,,,,,,,,,,,,,,,,,,,,,,,,,,,,,,,,,,,,,,,,,,,,,,,,,,,,,,,,,,,,,,,,,,,,,,,,,,,,,,,,,,,
,,"[""period""]",0,81,0,81,0,1,5f957181be463b3d6a83a84a,21,Mężczyzna,2022-06-04_08h37.08.743,task,2021.1.4,Win32,59.672992,628b806c463b948bc644b84f,629afd0c5bce29c44bada6ea,[0.35880000007153967],,,,,,,,,,,,,,,,,,,,,,,,,,,,,,,,,,,,,,,,,,,,,,,,,,,,,,,,,,,,,,,,,,,,,,,,,,,,,,,,,,,,,,,,,,,,,,,,,,,,,,,
,,"[""period""]",0,82,0,82,0,1,5f957181be463b3d6a83a84a,21,Mężczyzna,2022-06-04_08h37.08.743,task,2021.1.4,Win32,59.672992,628b806c463b948bc644b84f,629afd0c5bce29c44bada6ea,[0.504200000047689],,,,,,,,,,,,,,,,,,,,,,,,,,,,,,,,,,,,,,,,,,,,,,,,,,,,,,,,,,,,,,,,,,,,,,,,,,,,,,,,,,,,,,,,,,,,,,,,,,,,,,,
,,"[""comma""]",0,83,0,83,0,1,5f957181be463b3d6a83a84a,21,Mężczyzna,2022-06-04_08h37.08.743,task,2021.1.4,Win32,59.672992,628b806c463b948bc644b84f,629afd0c5bce29c44bada6ea,[0.3684000000953631],,,,,,,,,,,,,,,,,,,,,,,,,,,,,,,,,,,,,,,,,,,,,,,,,,,,,,,,,,,,,,,,,,,,,,,,,,,,,,,,,,,,,,,,,,,,,,,,,,,,,,,
,,"[""period""]",0,84,0,84,0,1,5f957181be463b3d6a83a84a,21,Mężczyzna,2022-06-04_08h37.08.743,task,2021.1.4,Win32,59.672992,628b806c463b948bc644b84f,629afd0c5bce29c44bada6ea,[0.3797000000476771],,,,,,,,,,,,,,,,,,,,,,,,,,,,,,,,,,,,,,,,,,,,,,,,,,,,,,,,,,,,,,,,,,,,,,,,,,,,,,,,,,,,,,,,,,,,,,,,,,,,,,,
,,"[""comma""]",0,85,0,85,0,1,5f957181be463b3d6a83a84a,21,Mężczyzna,2022-06-04_08h37.08.743,task,2021.1.4,Win32,59.672992,628b806c463b948bc644b84f,629afd0c5bce29c44bada6ea,[0.3253000000715076],,,,,,,,,,,,,,,,,,,,,,,,,,,,,,,,,,,,,,,,,,,,,,,,,,,,,,,,,,,,,,,,,,,,,,,,,,,,,,,,,,,,,,,,,,,,,,,,,,,,,,,
,,"[""period""]",0,86,0,86,0,1,5f957181be463b3d6a83a84a,21,Mężczyzna,2022-06-04_08h37.08.743,task,2021.1.4,Win32,59.672992,628b806c463b948bc644b84f,629afd0c5bce29c44bada6ea,[0.3349000000953879],,,,,,,,,,,,,,,,,,,,,,,,,,,,,,,,,,,,,,,,,,,,,,,,,,,,,,,,,,,,,,,,,,,,,,,,,,,,,,,,,,,,,,,,,,,,,,,,,,,,,,,
,,"[""period""]",0,87,0,87,0,1,5f957181be463b3d6a83a84a,21,Mężczyzna,2022-06-04_08h37.08.743,task,2021.1.4,Win32,59.672992,628b806c463b948bc644b84f,629afd0c5bce29c44bada6ea,[0.28470000004767826],,,,,,,,,,,,,,,,,,,,,,,,,,,,,,,,,,,,,,,,,,,,,,,,,,,,,,,,,,,,,,,,,,,,,,,,,,,,,,,,,,,,,,,,,,,,,,,,,,,,,,,
,,"[""comma""]",0,88,0,88,0,1,5f957181be463b3d6a83a84a,21,Mężczyzna,2022-06-04_08h37.08.743,task,2021.1.4,Win32,59.672992,628b806c463b948bc644b84f,629afd0c5bce29c44bada6ea,[0.18439999997616496],,,,,,,,,,,,,,,,,,,,,,,,,,,,,,,,,,,,,,,,,,,,,,,,,,,,,,,,,,,,,,,,,,,,,,,,,,,,,,,,,,,,,,,,,,,,,,,,,,,,,,,
,,"[""period""]",0,89,0,89,0,1,5f957181be463b3d6a83a84a,21,Mężczyzna,2022-06-04_08h37.08.743,task,2021.1.4,Win32,59.672992,628b806c463b948bc644b84f,629afd0c5bce29c44bada6ea,[0.2267000000476571],,,,,,,,,,,,,,,,,,,,,,,,,,,,,,,,,,,,,,,,,,,,,,,,,,,,,,,,,,,,,,,,,,,,,,,,,,,,,,,,,,,,,,,,,,,,,,,,,,,,,,,
,,"[""period""]",0,90,0,90,0,1,5f957181be463b3d6a83a84a,21,Mężczyzna,2022-06-04_08h37.08.743,task,2021.1.4,Win32,59.672992,628b806c463b948bc644b84f,629afd0c5bce29c44bada6ea,[0.24699999999998568],,,,,,,,,,,,,,,,,,,,,,,,,,,,,,,,,,,,,,,,,,,,,,,,,,,,,,,,,,,,,,,,,,,,,,,,,,,,,,,,,,,,,,,,,,,,,,,,,,,,,,,
,,"[""comma""]",0,91,0,91,0,1,5f957181be463b3d6a83a84a,21,Mężczyzna,2022-06-04_08h37.08.743,task,2021.1.4,Win32,59.672992,628b806c463b948bc644b84f,629afd0c5bce29c44bada6ea,[0.3688000000715306],,,,,,,,,,,,,,,,,,,,,,,,,,,,,,,,,,,,,,,,,,,,,,,,,,,,,,,,,,,,,,,,,,,,,,,,,,,,,,,,,,,,,,,,,,,,,,,,,,,,,,,
,,"[""period""]",0,92,0,92,0,1,5f957181be463b3d6a83a84a,21,Mężczyzna,2022-06-04_08h37.08.743,task,2021.1.4,Win32,59.672992,628b806c463b948bc644b84f,629afd0c5bce29c44bada6ea,[0.2902000000476903],,,,,,,,,,,,,,,,,,,,,,,,,,,,,,,,,,,,,,,,,,,,,,,,,,,,,,,,,,,,,,,,,,,,,,,,,,,,,,,,,,,,,,,,,,,,,,,,,,,,,,,
,,"[""comma""]",0,93,0,93,0,1,5f957181be463b3d6a83a84a,21,Mężczyzna,2022-06-04_08h37.08.743,task,2021.1.4,Win32,59.672992,628b806c463b948bc644b84f,629afd0c5bce29c44bada6ea,[0.41900000000001114],,,,,,,,,,,,,,,,,,,,,,,,,,,,,,,,,,,,,,,,,,,,,,,,,,,,,,,,,,,,,,,,,,,,,,,,,,,,,,,,,,,,,,,,,,,,,,,,,,,,,,,
,,"[""period""]",0,94,0,94,0,1,5f957181be463b3d6a83a84a,21,Mężczyzna,2022-06-04_08h37.08.743,task,2021.1.4,Win32,59.672992,628b806c463b948bc644b84f,629afd0c5bce29c44bada6ea,[0.0857000000476944],,,,,,,,,,,,,,,,,,,,,,,,,,,,,,,,,,,,,,,,,,,,,,,,,,,,,,,,,,,,,,,,,,,,,,,,,,,,,,,,,,,,,,,,,,,,,,,,,,,,,,,
,,"[""period""]",0,95,0,95,0,1,5f957181be463b3d6a83a84a,21,Mężczyzna,2022-06-04_08h37.08.743,task,2021.1.4,Win32,59.672992,628b806c463b948bc644b84f,629afd0c5bce29c44bada6ea,[0.42020000004768576],,,,,,,,,,,,,,,,,,,,,,,,,,,,,,,,,,,,,,,,,,,,,,,,,,,,,,,,,,,,,,,,,,,,,,,,,,,,,,,,,,,,,,,,,,,,,,,,,,,,,,,
,,"[""comma""]",0,96,0,96,0,1,5f957181be463b3d6a83a84a,21,Mężczyzna,2022-06-04_08h37.08.743,task,2021.1.4,Win32,59.672992,628b806c463b948bc644b84f,629afd0c5bce29c44bada6ea,[0.44089999997615337],,,,,,,,,,,,,,,,,,,,,,,,,,,,,,,,,,,,,,,,,,,,,,,,,,,,,,,,,,,,,,,,,,,,,,,,,,,,,,,,,,,,,,,,,,,,,,,,,,,,,,,
,,"[""period""]",0,97,0,97,0,1,5f957181be463b3d6a83a84a,21,Mężczyzna,2022-06-04_08h37.08.743,task,2021.1.4,Win32,59.672992,628b806c463b948bc644b84f,629afd0c5bce29c44bada6ea,[0.37699999999998113],,,,,,,,,,,,,,,,,,,,,,,,,,,,,,,,,,,,,,,,,,,,,,,,,,,,,,,,,,,,,,,,,,,,,,,,,,,,,,,,,,,,,,,,,,,,,,,,,,,,,,,
,,"[""period""]",0,98,0,98,0,1,5f957181be463b3d6a83a84a,21,Mężczyzna,2022-06-04_08h37.08.743,task,2021.1.4,Win32,59.672992,628b806c463b948bc644b84f,629afd0c5bce29c44bada6ea,[0.33770000004767553],,,,,,,,,,,,,,,,,,,,,,,,,,,,,,,,,,,,,,,,,,,,,,,,,,,,,,,,,,,,,,,,,,,,,,,,,,,,,,,,,,,,,,,,,,,,,,,,,,,,,,,
,,"[""comma""]",0,99,0,99,0,1,5f957181be463b3d6a83a84a,21,Mężczyzna,2022-06-04_08h37.08.743,task,2021.1.4,Win32,59.672992,628b806c463b948bc644b84f,629afd0c5bce29c44bada6ea,[0.1513999999761495],,,,,,,,,,,,,,,,,,,,,,,,,,,,,,,,,,,,,,,,,,,,,,,,,,,,,,,,,,,,,,,,,,,,,,,,,,,,,,,,,,,,,,,,,,,,,,,,,,,,,,,
,,"[""comma""]",0,100,0,100,0,1,5f957181be463b3d6a83a84a,21,Mężczyzna,2022-06-04_08h37.08.743,task,2021.1.4,Win32,59.672992,628b806c463b948bc644b84f,629afd0c5bce29c44bada6ea,[0.3568999999761502],,,,,,,,,,,,,,,,,,,,,,,,,,,,,,,,,,,,,,,,,,,,,,,,,,,,,,,,,,,,,,,,,,,,,,,,,,,,,,,,,,,,,,,,,,,,,,,,,,,,,,,
,,"[""period""]",0,101,0,101,0,1,5f957181be463b3d6a83a84a,21,Mężczyzna,2022-06-04_08h37.08.743,task,2021.1.4,Win32,59.672992,628b806c463b948bc644b84f,629afd0c5bce29c44bada6ea,[0.3187000000476701],,,,,,,,,,,,,,,,,,,,,,,,,,,,,,,,,,,,,,,,,,,,,,,,,,,,,,,,,,,,,,,,,,,,,,,,,,,,,,,,,,,,,,,,,,,,,,,,,,,,,,,
,,"[""period""]",0,102,0,102,0,1,5f957181be463b3d6a83a84a,21,Mężczyzna,2022-06-04_08h37.08.743,task,2021.1.4,Win32,59.672992,628b806c463b948bc644b84f,629afd0c5bce29c44bada6ea,[0.4246000000238439],,,,,,,,,,,,,,,,,,,,,,,,,,,,,,,,,,,,,,,,,,,,,,,,,,,,,,,,,,,,,,,,,,,,,,,,,,,,,,,,,,,,,,,,,,,,,,,,,,,,,,,
,,"[""period""]",0,103,0,103,0,1,5f957181be463b3d6a83a84a,21,Mężczyzna,2022-06-04_08h37.08.743,task,2021.1.4,Win32,59.672992,628b806c463b948bc644b84f,629afd0c5bce29c44bada6ea,[0.5535000000000139],,,,,,,,,,,,,,,,,,,,,,,,,,,,,,,,,,,,,,,,,,,,,,,,,,,,,,,,,,,,,,,,,,,,,,,,,,,,,,,,,,,,,,,,,,,,,,,,,,,,,,,
,,"[""comma""]",0,104,0,104,0,1,5f957181be463b3d6a83a84a,21,Mężczyzna,2022-06-04_08h37.08.743,task,2021.1.4,Win32,59.672992,628b806c463b948bc644b84f,629afd0c5bce29c44bada6ea,[0.6753999999761504],,,,,,,,,,,,,,,,,,,,,,,,,,,,,,,,,,,,,,,,,,,,,,,,,,,,,,,,,,,,,,,,,,,,,,,,,,,,,,,,,,,,,,,,,,,,,,,,,,,,,,,
,,"[""comma""]",0,105,0,105,0,1,5f957181be463b3d6a83a84a,21,Mężczyzna,2022-06-04_08h37.08.743,task,2021.1.4,Win32,59.672992,628b806c463b948bc644b84f,629afd0c5bce29c44bada6ea,[0.7552999999523138],,,,,,,,,,,,,,,,,,,,,,,,,,,,,,,,,,,,,,,,,,,,,,,,,,,,,,,,,,,,,,,,,,,,,,,,,,,,,,,,,,,,,,,,,,,,,,,,,,,,,,,
,,"[""period""]",0,106,0,106,0,1,5f957181be463b3d6a83a84a,21,Mężczyzna,2022-06-04_08h37.08.743,task,2021.1.4,Win32,59.672992,628b806c463b948bc644b84f,629afd0c5bce29c44bada6ea,[0.3365000000000009],,,,,,,,,,,,,,,,,,,,,,,,,,,,,,,,,,,,,,,,,,,,,,,,,,,,,,,,,,,,,,,,,,,,,,,,,,,,,,,,,,,,,,,,,,,,,,,,,,,,,,,
,,"[""comma""]",0,107,0,107,0,1,5f957181be463b3d6a83a84a,21,Mężczyzna,2022-06-04_08h37.08.743,task,2021.1.4,Win32,59.672992,628b806c463b948bc644b84f,629afd0c5bce29c44bada6ea,[0.9931000000238441],,,,,,,,,,,,,,,,,,,,,,,,,,,,,,,,,,,,,,,,,,,,,,,,,,,,,,,,,,,,,,,,,,,,,,,,,,,,,,,,,,,,,,,,,,,,,,,,,,,,,,,
,,"[""period""]",0,108,0,108,0,1,5f957181be463b3d6a83a84a,21,Mężczyzna,2022-06-04_08h37.08.743,task,2021.1.4,Win32,59.672992,628b806c463b948bc644b84f,629afd0c5bce29c44bada6ea,[0.4367000000476935],,,,,,,,,,,,,,,,,,,,,,,,,,,,,,,,,,,,,,,,,,,,,,,,,,,,,,,,,,,,,,,,,,,,,,,,,,,,,,,,,,,,,,,,,,,,,,,,,,,,,,,
,,"[""comma""]",0,109,0,109,0,1,5f957181be463b3d6a83a84a,21,Mężczyzna,2022-06-04_08h37.08.743,task,2021.1.4,Win32,59.672992,628b806c463b948bc644b84f,629afd0c5bce29c44bada6ea,[0.26079999995232583],,,,,,,,,,,,,,,,,,,,,,,,,,,,,,,,,,,,,,,,,,,,,,,,,,,,,,,,,,,,,,,,,,,,,,,,,,,,,,,,,,,,,,,,,,,,,,,,,,,,,,,
,,"[""period""]",0,110,0,110,0,1,5f957181be463b3d6a83a84a,21,Mężczyzna,2022-06-04_08h37.08.743,task,2021.1.4,Win32,59.672992,628b806c463b948bc644b84f,629afd0c5bce29c44bada6ea,[0.23869999992848534],,,,,,,,,,,,,,,,,,,,,,,,,,,,,,,,,,,,,,,,,,,,,,,,,,,,,,,,,,,,,,,,,,,,,,,,,,,,,,,,,,,,,,,,,,,,,,,,,,,,,,,
,,"[""comma""]",0,111,0,111,0,1,5f957181be463b3d6a83a84a,21,Mężczyzna,2022-06-04_08h37.08.743,task,2021.1.4,Win32,59.672992,628b806c463b948bc644b84f,629afd0c5bce29c44bada6ea,[0.4386000000238255],,,,,,,,,,,,,,,,,,,,,,,,,,,,,,,,,,,,,,,,,,,,,,,,,,,,,,,,,,,,,,,,,,,,,,,,,,,,,,,,,,,,,,,,,,,,,,,,,,,,,,,
,,"[""comma""]",0,112,0,112,0,1,5f957181be463b3d6a83a84a,21,Mężczyzna,2022-06-04_08h37.08.743,task,2021.1.4,Win32,59.672992,628b806c463b948bc644b84f,629afd0c5bce29c44bada6ea,[0.2657999999523213],,,,,,,,,,,,,,,,,,,,,,,,,,,,,,,,,,,,,,,,,,,,,,,,,,,,,,,,,,,,,,,,,,,,,,,,,,,,,,,,,,,,,,,,,,,,,,,,,,,,,,,
,,"[""period""]",0,113,0,113,0,1,5f957181be463b3d6a83a84a,21,Mężczyzna,2022-06-04_08h37.08.743,task,2021.1.4,Win32,59.672992,628b806c463b948bc644b84f,629afd0c5bce29c44bada6ea,[1.0116000000238046],,,,,,,,,,,,,,,,,,,,,,,,,,,,,,,,,,,,,,,,,,,,,,,,,,,,,,,,,,,,,,,,,,,,,,,,,,,,,,,,,,,,,,,,,,,,,,,,,,,,,,,
,,"[""comma""]",0,114,0,114,0,1,5f957181be463b3d6a83a84a,21,Mężczyzna,2022-06-04_08h37.08.743,task,2021.1.4,Win32,59.672992,628b806c463b948bc644b84f,629afd0c5bce29c44bada6ea,[0.8301000000238332],,,,,,,,,,,,,,,,,,,,,,,,,,,,,,,,,,,,,,,,,,,,,,,,,,,,,,,,,,,,,,,,,,,,,,,,,,,,,,,,,,,,,,,,,,,,,,,,,,,,,,,
,,"[""period""]",0,115,0,115,0,1,5f957181be463b3d6a83a84a,21,Mężczyzna,2022-06-04_08h37.08.743,task,2021.1.4,Win32,59.672992,628b806c463b948bc644b84f,629afd0c5bce29c44bada6ea,[0.7187999999522958],,,,,,,,,,,,,,,,,,,,,,,,,,,,,,,,,,,,,,,,,,,,,,,,,,,,,,,,,,,,,,,,,,,,,,,,,,,,,,,,,,,,,,,,,,,,,,,,,,,,,,,
,,"[""comma""]",0,116,0,116,0,1,5f957181be463b3d6a83a84a,21,Mężczyzna,2022-06-04_08h37.08.743,task,2021.1.4,Win32,59.672992,628b806c463b948bc644b84f,629afd0c5bce29c44bada6ea,[0.30619999992842395],,,,,,,,,,,,,,,,,,,,,,,,,,,,,,,,,,,,,,,,,,,,,,,,,,,,,,,,,,,,,,,,,,,,,,,,,,,,,,,,,,,,,,,,,,,,,,,,,,,,,,,
,,"[""period""]",0,117,0,117,0,1,5f957181be463b3d6a83a84a,21,Mężczyzna,2022-06-04_08h37.08.743,task,2021.1.4,Win32,59.672992,628b806c463b948bc644b84f,629afd0c5bce29c44bada6ea,[0.4256000000238487],,,,,,,,,,,,,,,,,,,,,,,,,,,,,,,,,,,,,,,,,,,,,,,,,,,,,,,,,,,,,,,,,,,,,,,,,,,,,,,,,,,,,,,,,,,,,,,,,,,,,,,
,,"[""comma""]",0,118,0,118,0,1,5f957181be463b3d6a83a84a,21,Mężczyzna,2022-06-04_08h37.08.743,task,2021.1.4,Win32,59.672992,628b806c463b948bc644b84f,629afd0c5bce29c44bada6ea,[0.36299999999999955],,,,,,,,,,,,,,,,,,,,,,,,,,,,,,,,,,,,,,,,,,,,,,,,,,,,,,,,,,,,,,,,,,,,,,,,,,,,,,,,,,,,,,,,,,,,,,,,,,,,,,,
,,"[""comma""]",0,119,0,119,0,1,5f957181be463b3d6a83a84a,21,Mężczyzna,2022-06-04_08h37.08.743,task,2021.1.4,Win32,59.672992,628b806c463b948bc644b84f,629afd0c5bce29c44bada6ea,[0.7800000000000296],,,,,,,,,,,,,,,,,,,,,,,,,,,,,,,,,,,,,,,,,,,,,,,,,,,,,,,,,,,,,,,,,,,,,,,,,,,,,,,,,,,,,,,,,,,,,,,,,,,,,,,
,,,,,,,,,5f957181be463b3d6a83a84a,21,Mężczyzna,2022-06-04_08h37.08.743,task,2021.1.4,Win32,59.672992,628b806c463b948bc644b84f,629afd0c5bce29c44bada6ea,,space,24.6398,space,11.7924,0,0,0,0,1,X V Q F H G B L J M P D K C T S W R N Z,,,,,,,,,,,,,,,,,,,,,,,,,,,,,,,,,,,,,,,,,,,,,,,,,,,,,,,,,,,,,,,,,,,,,,,,,,,,,,,,,,,,,,,,,,,,,
,,,,,,,,,5f957181be463b3d6a83a84a,21,Mężczyzna,2022-06-04_08h37.08.743,task,2021.1.4,Win32,59.672992,628b806c463b948bc644b84f,629afd0c5bce29c44bada6ea,,,,,,1,0,1,0,1,X V Q F H G B L J M P D K C T S W R N Z,,,,,,,,,,,,,,,,,,,,,,,,,,,,,,,,,,,,,,,,,,,,,,,,,,,,,,,,,,,,,,,,,,,,,,,,,,,,,,,,,,,,,,,,,,,,,
,,,,,,,,,5f957181be463b3d6a83a84a,21,Mężczyzna,2022-06-04_08h37.08.743,task,2021.1.4,Win32,59.672992,628b806c463b948bc644b84f,629afd0c5bce29c44bada6ea,,,,,,,,,,,,zr,"[""z"",""r""]","[1.9521000000238473,2.288200000047709,4.6227000000477005]",1,ZR,0,0,0,0,1,,,,,,,,,,,,,,,,,,,,,,,,,,,,,,,,,,,,,,,,,,,,,,,,,,,,,,,,,,,,,,,,,,,,,,,,,,,,,,,,,,,
,,,,,,,,,5f957181be463b3d6a83a84a,21,Mężczyzna,2022-06-04_08h37.08.743,task,2021.1.4,Win32,59.672992,628b806c463b948bc644b84f,629afd0c5bce29c44bada6ea,,,,,,0,0,0,0,1,X V Q F H G B L J M P D K C T S W R N Z,,,,,,,,,,,,,,,,,,,,,,,,,,,,,,,,,,,,,,,,,,,,,,,,,,,,,,,,,,,,,,,,,,,,,,,,,,,,,,,,,,,,,,,,,,,,,
,,,,,,,,,5f957181be463b3d6a83a84a,21,Mężczyzna,2022-06-04_08h37.08.743,task,2021.1.4,Win32,59.672992,628b806c463b948bc644b84f,629afd0c5bce29c44bada6ea,,,,,,1,0,1,0,1,X V Q F H G B L J M P D K C T S W R N Z,,,,,,,,,,,,,,,,,,,,,,,,,,,,,,,,,,,,,,,,,,,,,,,,,,,,,,,,,,,,,,,,,,,,,,,,,,,,,,,,,,,,,,,,,,,,,
,,,,,,,,,5f957181be463b3d6a83a84a,21,Mężczyzna,2022-06-04_08h37.08.743,task,2021.1.4,Win32,59.672992,628b806c463b948bc644b84f,629afd0c5bce29c44bada6ea,,,,,,,,,,,,dz,"[""d"",""z""]","[1.4796000000238791,1.8088000000715283,3.3485000000000014]",1,DZ,1,0,1,0,1,,,,,,,,,,,,,,,,,,,,,,,,,,,,,,,,,,,,,,,,,,,,,,,,,,,,,,,,,,,,,,,,,,,,,,,,,,,,,,,,,,,
,,,,,,,,,5f957181be463b3d6a83a84a,21,Mężczyzna,2022-06-04_08h37.08.743,task,2021.1.4,Win32,59.672992,628b806c463b948bc644b84f,629afd0c5bce29c44bada6ea,,,,,,0,0,0,0,1,X V Q F H G B L J M P D K C T S W R N Z,,,,,,,,,,,,,,,,,,,,,,,,,,,,,,,,,,,,,,,,,,,,,,,,,,,,,,,,,,,,,,,,,,,,,,,,,,,,,,,,,,,,,,,,,,,,,
,,,,,,,,,5f957181be463b3d6a83a84a,21,Mężczyzna,2022-06-04_08h37.08.743,task,2021.1.4,Win32,59.672992,628b806c463b948bc644b84f,629afd0c5bce29c44bada6ea,,,,,,1,0,1,0,1,X V Q F H G B L J M P D K C T S W R N Z,,,,,,,,,,,,,,,,,,,,,,,,,,,,,,,,,,,,,,,,,,,,,,,,,,,,,,,,,,,,,,,,,,,,,,,,,,,,,,,,,,,,,,,,,,,,,
,,,,,,,,,5f957181be463b3d6a83a84a,21,Mężczyzna,2022-06-04_08h37.08.743,task,2021.1.4,Win32,59.672992,628b806c463b948bc644b84f,629afd0c5bce29c44bada6ea,,,,,,2,0,2,0,1,X V Q F H G B L J M P D K C T S W R N Z,,,,,,,,,,,,,,,,,,,,,,,,,,,,,,,,,,,,,,,,,,,,,,,,,,,,,,,,,,,,,,,,,,,,,,,,,,,,,,,,,,,,,,,,,,,,,
,,,,,,,,,5f957181be463b3d6a83a84a,21,Mężczyzna,2022-06-04_08h37.08.743,task,2021.1.4,Win32,59.672992,628b806c463b948bc644b84f,629afd0c5bce29c44bada6ea,,,,,,,,,,,,nnd,"[""n"",""n"",""d""]","[1.1229999999999905,1.3147999999522995,1.7308999999761454,2.434899999976153]",1,NND,2,0,2,0,1,,,,,,,,,,,,,,,,,,,,,,,,,,,,,,,,,,,,,,,,,,,,,,,,,,,,,,,,,,,,,,,,,,,,,,,,,,,,,,,,,,,
,,,,,,,,,5f957181be463b3d6a83a84a,21,Mężczyzna,2022-06-04_08h37.08.743,task,2021.1.4,Win32,59.672992,628b806c463b948bc644b84f,629afd0c5bce29c44bada6ea,,,,,,0,0,0,0,1,X V Q F H G B L J M P D K C T S W R N Z,,,,,,,,,,,,,,,,,,,,,,,,,,,,,,,,,,,,,,,,,,,,,,,,,,,,,,,,,,,,,,,,,,,,,,,,,,,,,,,,,,,,,,,,,,,,,
,,,,,,,,,5f957181be463b3d6a83a84a,21,Mężczyzna,2022-06-04_08h37.08.743,task,2021.1.4,Win32,59.672992,628b806c463b948bc644b84f,629afd0c5bce29c44bada6ea,,,,,,1,0,1,0,1,X V Q F H G B L J M P D K C T S W R N Z,,,,,,,,,,,,,,,,,,,,,,,,,,,,,,,,,,,,,,,,,,,,,,,,,,,,,,,,,,,,,,,,,,,,,,,,,,,,,,,,,,,,,,,,,,,,,
,,,,,,,,,5f957181be463b3d6a83a84a,21,Mężczyzna,2022-06-04_08h37.08.743,task,2021.1.4,Win32,59.672992,628b806c463b948bc644b84f,629afd0c5bce29c44bada6ea,,,,,,2,0,2,0,1,X V Q F H G B L J M P D K C T S W R N Z,,,,,,,,,,,,,,,,,,,,,,,,,,,,,,,,,,,,,,,,,,,,,,,,,,,,,,,,,,,,,,,,,,,,,,,,,,,,,,,,,,,,,,,,,,,,,
,,,,,,,,,5f957181be463b3d6a83a84a,21,Mężczyzna,2022-06-04_08h37.08.743,task,2021.1.4,Win32,59.672992,628b806c463b948bc644b84f,629afd0c5bce29c44bada6ea,,,,,,,,,,,,nzk,"[""n"",""z"",""k""]","[1.9664999999999964,2.27179999995235,2.837299999952336,3.9990000000000236]",1,NZK,3,0,3,0,1,,,,,,,,,,,,,,,,,,,,,,,,,,,,,,,,,,,,,,,,,,,,,,,,,,,,,,,,,,,,,,,,,,,,,,,,,,,,,,,,,,,
,,,,,,,,,5f957181be463b3d6a83a84a,21,Mężczyzna,2022-06-04_08h37.08.743,task,2021.1.4,Win32,59.672992,628b806c463b948bc644b84f,629afd0c5bce29c44bada6ea,,,,,,0,0,0,0,1,X V Q F H G B L J M P D K C T S W R N Z,,,,,,,,,,,,,,,,,,,,,,,,,,,,,,,,,,,,,,,,,,,,,,,,,,,,,,,,,,,,,,,,,,,,,,,,,,,,,,,,,,,,,,,,,,,,,
,,,,,,,,,5f957181be463b3d6a83a84a,21,Mężczyzna,2022-06-04_08h37.08.743,task,2021.1.4,Win32,59.672992,628b806c463b948bc644b84f,629afd0c5bce29c44bada6ea,,,,,,1,0,1,0,1,X V Q F H G B L J M P D K C T S W R N Z,,,,,,,,,,,,,,,,,,,,,,,,,,,,,,,,,,,,,,,,,,,,,,,,,,,,,,,,,,,,,,,,,,,,,,,,,,,,,,,,,,,,,,,,,,,,,
,,,,,,,,,5f957181be463b3d6a83a84a,21,Mężczyzna,2022-06-04_08h37.08.743,task,2021.1.4,Win32,59.672992,628b806c463b948bc644b84f,629afd0c5bce29c44bada6ea,,,,,,2,0,2,0,1,X V Q F H G B L J M P D K C T S W R N Z,,,,,,,,,,,,,,,,,,,,,,,,,,,,,,,,,,,,,,,,,,,,,,,,,,,,,,,,,,,,,,,,,,,,,,,,,,,,,,,,,,,,,,,,,,,,,
,,,,,,,,,5f957181be463b3d6a83a84a,21,Mężczyzna,2022-06-04_08h37.08.743,task,2021.1.4,Win32,59.672992,628b806c463b948bc644b84f,629afd0c5bce29c44bada6ea,,,,,,3,0,3,0,1,X V Q F H G B L J M P D K C T S W R N Z,,,,,,,,,,,,,,,,,,,,,,,,,,,,,,,,,,,,,,,,,,,,,,,,,,,,,,,,,,,,,,,,,,,,,,,,,,,,,,,,,,,,,,,,,,,,,
,,,,,,,,,5f957181be463b3d6a83a84a,21,Mężczyzna,2022-06-04_08h37.08.743,task,2021.1.4,Win32,59.672992,628b806c463b948bc644b84f,629afd0c5bce29c44bada6ea,,,,,,,,,,,,rndz,"[""r"",""n"",""d"",""z""]","[0.38450000000000273,1.3913000000715101,1.863200000047641,2.2074000000953333,2.9194000000953224]",1,RNDZ,4,0,4,0,1,,,,,,,,,,,,,,,,,,,,,,,,,,,,,,,,,,,,,,,,,,,,,,,,,,,,,,,,,,,,,,,,,,,,,,,,,,,,,,,,,,,
,,,,,,,,,5f957181be463b3d6a83a84a,21,Mężczyzna,2022-06-04_08h37.08.743,task,2021.1.4,Win32,59.672992,628b806c463b948bc644b84f,629afd0c5bce29c44bada6ea,,,,,,0,0,0,0,1,X V Q F H G B L J M P D K C T S W R N Z,,,,,,,,,,,,,,,,,,,,,,,,,,,,,,,,,,,,,,,,,,,,,,,,,,,,,,,,,,,,,,,,,,,,,,,,,,,,,,,,,,,,,,,,,,,,,
,,,,,,,,,5f957181be463b3d6a83a84a,21,Mężczyzna,2022-06-04_08h37.08.743,task,2021.1.4,Win32,59.672992,628b806c463b948bc644b84f,629afd0c5bce29c44bada6ea,,,,,,1,0,1,0,1,X V Q F H G B L J M P D K C T S W R N Z,,,,,,,,,,,,,,,,,,,,,,,,,,,,,,,,,,,,,,,,,,,,,,,,,,,,,,,,,,,,,,,,,,,,,,,,,,,,,,,,,,,,,,,,,,,,,
,,,,,,,,,5f957181be463b3d6a83a84a,21,Mężczyzna,2022-06-04_08h37.08.743,task,2021.1.4,Win32,59.672992,628b806c463b948bc644b84f,629afd0c5bce29c44bada6ea,,,,,,2,0,2,0,1,X V Q F H G B L J M P D K C T S W R N Z,,,,,,,,,,,,,,,,,,,,,,,,,,,,,,,,,,,,,,,,,,,,,,,,,,,,,,,,,,,,,,,,,,,,,,,,,,,,,,,,,,,,,,,,,,,,,
,,,,,,,,,5f957181be463b3d6a83a84a,21,Mężczyzna,2022-06-04_08h37.08.743,task,2021.1.4,Win32,59.672992,628b806c463b948bc644b84f,629afd0c5bce29c44bada6ea,,,,,,3,0,3,0,1,X V Q F H G B L J M P D K C T S W R N Z,,,,,,,,,,,,,,,,,,,,,,,,,,,,,,,,,,,,,,,,,,,,,,,,,,,,,,,,,,,,,,,,,,,,,,,,,,,,,,,,,,,,,,,,,,,,,
,,,,,,,,,5f957181be463b3d6a83a84a,21,Mężczyzna,2022-06-04_08h37.08.743,task,2021.1.4,Win32,59.672992,628b806c463b948bc644b84f,629afd0c5bce29c44bada6ea,,,,,,,,,,,,fvhk,"[""f"",""v"",""h"",""k""]","[1.379599999904599,1.87529999995229,7.817699999928436,8.122799999952292,8.787499999999966]",0,FHVK,5,0,5,0,1,,,,,,,,,,,,,,,,,,,,,,,,,,,,,,,,,,,,,,,,,,,,,,,,,,,,,,,,,,,,,,,,,,,,,,,,,,,,,,,,,,,
,,,,,,,,,5f957181be463b3d6a83a84a,21,Mężczyzna,2022-06-04_08h37.08.743,task,2021.1.4,Win32,59.672992,628b806c463b948bc644b84f,629afd0c5bce29c44bada6ea,,,,,,0,0,0,0,1,X V Q F H G B L J M P D K C T S W R N Z,,,,,,,,,,,,,,,,,,,,,,,,,,,,,,,,,,,,,,,,,,,,,,,,,,,,,,,,,,,,,,,,,,,,,,,,,,,,,,,,,,,,,,,,,,,,,
,,,,,,,,,5f957181be463b3d6a83a84a,21,Mężczyzna,2022-06-04_08h37.08.743,task,2021.1.4,Win32,59.672992,628b806c463b948bc644b84f,629afd0c5bce29c44bada6ea,,,,,,1,0,1,0,1,X V Q F H G B L J M P D K C T S W R N Z,,,,,,,,,,,,,,,,,,,,,,,,,,,,,,,,,,,,,,,,,,,,,,,,,,,,,,,,,,,,,,,,,,,,,,,,,,,,,,,,,,,,,,,,,,,,,
,,,,,,,,,5f957181be463b3d6a83a84a,21,Mężczyzna,2022-06-04_08h37.08.743,task,2021.1.4,Win32,59.672992,628b806c463b948bc644b84f,629afd0c5bce29c44bada6ea,,,,,,2,0,2,0,1,X V Q F H G B L J M P D K C T S W R N Z,,,,,,,,,,,,,,,,,,,,,,,,,,,,,,,,,,,,,,,,,,,,,,,,,,,,,,,,,,,,,,,,,,,,,,,,,,,,,,,,,,,,,,,,,,,,,
,,,,,,,,,5f957181be463b3d6a83a84a,21,Mężczyzna,2022-06-04_08h37.08.743,task,2021.1.4,Win32,59.672992,628b806c463b948bc644b84f,629afd0c5bce29c44bada6ea,,,,,,3,0,3,0,1,X V Q F H G B L J M P D K C T S W R N Z,,,,,,,,,,,,,,,,,,,,,,,,,,,,,,,,,,,,,,,,,,,,,,,,,,,,,,,,,,,,,,,,,,,,,,,,,,,,,,,,,,,,,,,,,,,,,
,,,,,,,,,5f957181be463b3d6a83a84a,21,Mężczyzna,2022-06-04_08h37.08.743,task,2021.1.4,Win32,59.672992,628b806c463b948bc644b84f,629afd0c5bce29c44bada6ea,,,,,,,,,,,,mwvk,"[""m"",""w"",""v"",""k""]","[1.073000000000036,1.5853999999761754,2.312000000000012,2.8735000000000355,3.6893999999761604]",0,MWVH,6,0,6,0,1,,,,,,,,,,,,,,,,,,,,,,,,,,,,,,,,,,,,,,,,,,,,,,,,,,,,,,,,,,,,,,,,,,,,,,,,,,,,,,,,,,,
,,,,,,,,,5f957181be463b3d6a83a84a,21,Mężczyzna,2022-06-04_08h37.08.743,task,2021.1.4,Win32,59.672992,628b806c463b948bc644b84f,629afd0c5bce29c44bada6ea,,,,,,0,0,0,0,1,X V Q F H G B L J M P D K C T S W R N Z,,,,,,,,,,,,,,,,,,,,,,,,,,,,,,,,,,,,,,,,,,,,,,,,,,,,,,,,,,,,,,,,,,,,,,,,,,,,,,,,,,,,,,,,,,,,,
,,,,,,,,,5f957181be463b3d6a83a84a,21,Mężczyzna,2022-06-04_08h37.08.743,task,2021.1.4,Win32,59.672992,628b806c463b948bc644b84f,629afd0c5bce29c44bada6ea,,,,,,1,0,1,0,1,X V Q F H G B L J M P D K C T S W R N Z,,,,,,,,,,,,,,,,,,,,,,,,,,,,,,,,,,,,,,,,,,,,,,,,,,,,,,,,,,,,,,,,,,,,,,,,,,,,,,,,,,,,,,,,,,,,,
,,,,,,,,,5f957181be463b3d6a83a84a,21,Mężczyzna,2022-06-04_08h37.08.743,task,2021.1.4,Win32,59.672992,628b806c463b948bc644b84f,629afd0c5bce29c44bada6ea,,,,,,2,0,2,0,1,X V Q F H G B L J M P D K C T S W R N Z,,,,,,,,,,,,,,,,,,,,,,,,,,,,,,,,,,,,,,,,,,,,,,,,,,,,,,,,,,,,,,,,,,,,,,,,,,,,,,,,,,,,,,,,,,,,,
,,,,,,,,,5f957181be463b3d6a83a84a,21,Mężczyzna,2022-06-04_08h37.08.743,task,2021.1.4,Win32,59.672992,628b806c463b948bc644b84f,629afd0c5bce29c44bada6ea,,,,,,3,0,3,0,1,X V Q F H G B L J M P D K C T S W R N Z,,,,,,,,,,,,,,,,,,,,,,,,,,,,,,,,,,,,,,,,,,,,,,,,,,,,,,,,,,,,,,,,,,,,,,,,,,,,,,,,,,,,,,,,,,,,,
,,,,,,,,,5f957181be463b3d6a83a84a,21,Mężczyzna,2022-06-04_08h37.08.743,task,2021.1.4,Win32,59.672992,628b806c463b948bc644b84f,629afd0c5bce29c44bada6ea,,,,,,,,,,,,grgl,"[""g"",""r"",""g"",""l""]","[1.1208999999761318,1.4276999999284499,1.9952999999522945,2.5767999999523,3.2777999999523217]",1,GRGL,7,0,7,0,1,,,,,,,,,,,,,,,,,,,,,,,,,,,,,,,,,,,,,,,,,,,,,,,,,,,,,,,,,,,,,,,,,,,,,,,,,,,,,,,,,,,
,,,,,,,,,5f957181be463b3d6a83a84a,21,Mężczyzna,2022-06-04_08h37.08.743,task,2021.1.4,Win32,59.672992,628b806c463b948bc644b84f,629afd0c5bce29c44bada6ea,,,,,,0,0,0,0,1,X V Q F H G B L J M P D K C T S W R N Z,,,,,,,,,,,,,,,,,,,,,,,,,,,,,,,,,,,,,,,,,,,,,,,,,,,,,,,,,,,,,,,,,,,,,,,,,,,,,,,,,,,,,,,,,,,,,
,,,,,,,,,5f957181be463b3d6a83a84a,21,Mężczyzna,2022-06-04_08h37.08.743,task,2021.1.4,Win32,59.672992,628b806c463b948bc644b84f,629afd0c5bce29c44bada6ea,,,,,,1,0,1,0,1,X V Q F H G B L J M P D K C T S W R N Z,,,,,,,,,,,,,,,,,,,,,,,,,,,,,,,,,,,,,,,,,,,,,,,,,,,,,,,,,,,,,,,,,,,,,,,,,,,,,,,,,,,,,,,,,,,,,
,,,,,,,,,5f957181be463b3d6a83a84a,21,Mężczyzna,2022-06-04_08h37.08.743,task,2021.1.4,Win32,59.672992,628b806c463b948bc644b84f,629afd0c5bce29c44bada6ea,,,,,,2,0,2,0,1,X V Q F H G B L J M P D K C T S W R N Z,,,,,,,,,,,,,,,,,,,,,,,,,,,,,,,,,,,,,,,,,,,,,,,,,,,,,,,,,,,,,,,,,,,,,,,,,,,,,,,,,,,,,,,,,,,,,
,,,,,,,,,5f957181be463b3d6a83a84a,21,Mężczyzna,2022-06-04_08h37.08.743,task,2021.1.4,Win32,59.672992,628b806c463b948bc644b84f,629afd0c5bce29c44bada6ea,,,,,,3,0,3,0,1,X V Q F H G B L J M P D K C T S W R N Z,,,,,,,,,,,,,,,,,,,,,,,,,,,,,,,,,,,,,,,,,,,,,,,,,,,,,,,,,,,,,,,,,,,,,,,,,,,,,,,,,,,,,,,,,,,,,
,,,,,,,,,5f957181be463b3d6a83a84a,21,Mężczyzna,2022-06-04_08h37.08.743,task,2021.1.4,Win32,59.672992,628b806c463b948bc644b84f,629afd0c5bce29c44bada6ea,,,,,,4,0,4,0,1,X V Q F H G B L J M P D K C T S W R N Z,,,,,,,,,,,,,,,,,,,,,,,,,,,,,,,,,,,,,,,,,,,,,,,,,,,,,,,,,,,,,,,,,,,,,,,,,,,,,,,,,,,,,,,,,,,,,
,,,,,,,,,5f957181be463b3d6a83a84a,21,Mężczyzna,2022-06-04_08h37.08.743,task,2021.1.4,Win32,59.672992,628b806c463b948bc644b84f,629afd0c5bce29c44bada6ea,,,,,,,,,,,,ptsbq,"[""p"",""t"",""s"",""b"",""q""]","[1.1001000000238719,1.5547999999523086,2.0377999999523126,3.0813999999761563,3.5451999999284567,4.546299999952339]",1,PTSBQ,8,0,8,0,1,,,,,,,,,,,,,,,,,,,,,,,,,,,,,,,,,,,,,,,,,,,,,,,,,,,,,,,,,,,,,,,,,,,,,,,,,,,,,,,,,,,
,,,,,,,,,5f957181be463b3d6a83a84a,21,Mężczyzna,2022-06-04_08h37.08.743,task,2021.1.4,Win32,59.672992,628b806c463b948bc644b84f,629afd0c5bce29c44bada6ea,,,,,,0,0,0,0,1,X V Q F H G B L J M P D K C T S W R N Z,,,,,,,,,,,,,,,,,,,,,,,,,,,,,,,,,,,,,,,,,,,,,,,,,,,,,,,,,,,,,,,,,,,,,,,,,,,,,,,,,,,,,,,,,,,,,
,,,,,,,,,5f957181be463b3d6a83a84a,21,Mężczyzna,2022-06-04_08h37.08.743,task,2021.1.4,Win32,59.672992,628b806c463b948bc644b84f,629afd0c5bce29c44bada6ea,,,,,,1,0,1,0,1,X V Q F H G B L J M P D K C T S W R N Z,,,,,,,,,,,,,,,,,,,,,,,,,,,,,,,,,,,,,,,,,,,,,,,,,,,,,,,,,,,,,,,,,,,,,,,,,,,,,,,,,,,,,,,,,,,,,
,,,,,,,,,5f957181be463b3d6a83a84a,21,Mężczyzna,2022-06-04_08h37.08.743,task,2021.1.4,Win32,59.672992,628b806c463b948bc644b84f,629afd0c5bce29c44bada6ea,,,,,,2,0,2,0,1,X V Q F H G B L J M P D K C T S W R N Z,,,,,,,,,,,,,,,,,,,,,,,,,,,,,,,,,,,,,,,,,,,,,,,,,,,,,,,,,,,,,,,,,,,,,,,,,,,,,,,,,,,,,,,,,,,,,
,,,,,,,,,5f957181be463b3d6a83a84a,21,Mężczyzna,2022-06-04_08h37.08.743,task,2021.1.4,Win32,59.672992,628b806c463b948bc644b84f,629afd0c5bce29c44bada6ea,,,,,,3,0,3,0,1,X V Q F H G B L J M P D K C T S W R N Z,,,,,,,,,,,,,,,,,,,,,,,,,,,,,,,,,,,,,,,,,,,,,,,,,,,,,,,,,,,,,,,,,,,,,,,,,,,,,,,,,,,,,,,,,,,,,
,,,,,,,,,5f957181be463b3d6a83a84a,21,Mężczyzna,2022-06-04_08h37.08.743,task,2021.1.4,Win32,59.672992,628b806c463b948bc644b84f,629afd0c5bce29c44bada6ea,,,,,,4,0,4,0,1,X V Q F H G B L J M P D K C T S W R N Z,,,,,,,,,,,,,,,,,,,,,,,,,,,,,,,,,,,,,,,,,,,,,,,,,,,,,,,,,,,,,,,,,,,,,,,,,,,,,,,,,,,,,,,,,,,,,
,,,,,,,,,5f957181be463b3d6a83a84a,21,Mężczyzna,2022-06-04_08h37.08.743,task,2021.1.4,Win32,59.672992,628b806c463b948bc644b84f,629afd0c5bce29c44bada6ea,,,,,,,,,,,,bcmxm,"[""b"",""c"",""m"",""x"",""m""]","[2.2917000000476833,3.282299999952329,3.828200000047673,4.323600000023816,4.843600000023855,19.31639999997617]",0,BXCBM,9,0,9,0,1,,,,,,,,,,,,,,,,,,,,,,,,,,,,,,,,,,,,,,,,,,,,,,,,,,,,,,,,,,,,,,,,,,,,,,,,,,,,,,,,,,,
,,,,,,,,,5f957181be463b3d6a83a84a,21,Mężczyzna,2022-06-04_08h37.08.743,task,2021.1.4,Win32,59.672992,628b806c463b948bc644b84f,629afd0c5bce29c44bada6ea,,,,,,0,0,0,0,1,X V Q F H G B L J M P D K C T S W R N Z,,,,,,,,,,,,,,,,,,,,,,,,,,,,,,,,,,,,,,,,,,,,,,,,,,,,,,,,,,,,,,,,,,,,,,,,,,,,,,,,,,,,,,,,,,,,,
,,,,,,,,,5f957181be463b3d6a83a84a,21,Mężczyzna,2022-06-04_08h37.08.743,task,2021.1.4,Win32,59.672992,628b806c463b948bc644b84f,629afd0c5bce29c44bada6ea,,,,,,1,0,1,0,1,X V Q F H G B L J M P D K C T S W R N Z,,,,,,,,,,,,,,,,,,,,,,,,,,,,,,,,,,,,,,,,,,,,,,,,,,,,,,,,,,,,,,,,,,,,,,,,,,,,,,,,,,,,,,,,,,,,,
,,,,,,,,,5f957181be463b3d6a83a84a,21,Mężczyzna,2022-06-04_08h37.08.743,task,2021.1.4,Win32,59.672992,628b806c463b948bc644b84f,629afd0c5bce29c44bada6ea,,,,,,2,0,2,0,1,X V Q F H G B L J M P D K C T S W R N Z,,,,,,,,,,,,,,,,,,,,,,,,,,,,,,,,,,,,,,,,,,,,,,,,,,,,,,,,,,,,,,,,,,,,,,,,,,,,,,,,,,,,,,,,,,,,,
,,,,,,,,,5f957181be463b3d6a83a84a,21,Mężczyzna,2022-06-04_08h37.08.743,task,2021.1.4,Win32,59.672992,628b806c463b948bc644b84f,629afd0c5bce29c44bada6ea,,,,,,3,0,3,0,1,X V Q F H G B L J M P D K C T S W R N Z,,,,,,,,,,,,,,,,,,,,,,,,,,,,,,,,,,,,,,,,,,,,,,,,,,,,,,,,,,,,,,,,,,,,,,,,,,,,,,,,,,,,,,,,,,,,,
,,,,,,,,,5f957181be463b3d6a83a84a,21,Mężczyzna,2022-06-04_08h37.08.743,task,2021.1.4,Win32,59.672992,628b806c463b948bc644b84f,629afd0c5bce29c44bada6ea,,,,,,4,0,4,0,1,X V Q F H G B L J M P D K C T S W R N Z,,,,,,,,,,,,,,,,,,,,,,,,,,,,,,,,,,,,,,,,,,,,,,,,,,,,,,,,,,,,,,,,,,,,,,,,,,,,,,,,,,,,,,,,,,,,,
,,,,,,,,,5f957181be463b3d6a83a84a,21,Mężczyzna,2022-06-04_08h37.08.743,task,2021.1.4,Win32,59.672992,628b806c463b948bc644b84f,629afd0c5bce29c44bada6ea,,,,,,,,,,,,hvdnt,"[""h"",""v"",""d"",""n"",""t""]","[2.3888000000715124,2.809399999976165,3.1957000000476796,3.571300000071517,4.047300000071516,5.4181000000238555]",1,HVDNT,10,0,10,0,1,,,,,,,,,,,,,,,,,,,,,,,,,,,,,,,,,,,,,,,,,,,,,,,,,,,,,,,,,,,,,,,,,,,,,,,,,,,,,,,,,,,
,,,,,,,,,5f957181be463b3d6a83a84a,21,Mężczyzna,2022-06-04_08h37.08.743,task,2021.1.4,Win32,59.672992,628b806c463b948bc644b84f,629afd0c5bce29c44bada6ea,,,,,,0,0,0,0,1,X V Q F H G B L J M P D K C T S W R N Z,,,,,,,,,,,,,,,,,,,,,,,,,,,,,,,,,,,,,,,,,,,,,,,,,,,,,,,,,,,,,,,,,,,,,,,,,,,,,,,,,,,,,,,,,,,,,
,,,,,,,,,5f957181be463b3d6a83a84a,21,Mężczyzna,2022-06-04_08h37.08.743,task,2021.1.4,Win32,59.672992,628b806c463b948bc644b84f,629afd0c5bce29c44bada6ea,,,,,,1,0,1,0,1,X V Q F H G B L J M P D K C T S W R N Z,,,,,,,,,,,,,,,,,,,,,,,,,,,,,,,,,,,,,,,,,,,,,,,,,,,,,,,,,,,,,,,,,,,,,,,,,,,,,,,,,,,,,,,,,,,,,
,,,,,,,,,5f957181be463b3d6a83a84a,21,Mężczyzna,2022-06-04_08h37.08.743,task,2021.1.4,Win32,59.672992,628b806c463b948bc644b84f,629afd0c5bce29c44bada6ea,,,,,,2,0,2,0,1,X V Q F H G B L J M P D K C T S W R N Z,,,,,,,,,,,,,,,,,,,,,,,,,,,,,,,,,,,,,,,,,,,,,,,,,,,,,,,,,,,,,,,,,,,,,,,,,,,,,,,,,,,,,,,,,,,,,
,,,,,,,,,5f957181be463b3d6a83a84a,21,Mężczyzna,2022-06-04_08h37.08.743,task,2021.1.4,Win32,59.672992,628b806c463b948bc644b84f,629afd0c5bce29c44bada6ea,,,,,,3,0,3,0,1,X V Q F H G B L J M P D K C T S W R N Z,,,,,,,,,,,,,,,,,,,,,,,,,,,,,,,,,,,,,,,,,,,,,,,,,,,,,,,,,,,,,,,,,,,,,,,,,,,,,,,,,,,,,,,,,,,,,
,,,,,,,,,5f957181be463b3d6a83a84a,21,Mężczyzna,2022-06-04_08h37.08.743,task,2021.1.4,Win32,59.672992,628b806c463b948bc644b84f,629afd0c5bce29c44bada6ea,,,,,,4,0,4,0,1,X V Q F H G B L J M P D K C T S W R N Z,,,,,,,,,,,,,,,,,,,,,,,,,,,,,,,,,,,,,,,,,,,,,,,,,,,,,,,,,,,,,,,,,,,,,,,,,,,,,,,,,,,,,,,,,,,,,
,,,,,,,,,5f957181be463b3d6a83a84a,21,Mężczyzna,2022-06-04_08h37.08.743,task,2021.1.4,Win32,59.672992,628b806c463b948bc644b84f,629afd0c5bce29c44bada6ea,,,,,,5,0,5,0,1,X V Q F H G B L J M P D K C T S W R N Z,,,,,,,,,,,,,,,,,,,,,,,,,,,,,,,,,,,,,,,,,,,,,,,,,,,,,,,,,,,,,,,,,,,,,,,,,,,,,,,,,,,,,,,,,,,,,
,,,,,,,,,5f957181be463b3d6a83a84a,21,Mężczyzna,2022-06-04_08h37.08.743,task,2021.1.4,Win32,59.672992,628b806c463b948bc644b84f,629afd0c5bce29c44bada6ea,,,,,,,,,,,,mvwdnb,"[""m"",""v"",""w"",""d"",""n"",""b""]","[1.3278000000715338,2.125600000023894,2.6138999999761836,6.023700000047711,8.41500000000002,8.725999999999999,9.895100000023888]",0,MVDWNB,11,0,11,0,1,,,,,,,,,,,,,,,,,,,,,,,,,,,,,,,,,,,,,,,,,,,,,,,,,,,,,,,,,,,,,,,,,,,,,,,,,,,,,,,,,,,
,,,,,,,,,5f957181be463b3d6a83a84a,21,Mężczyzna,2022-06-04_08h37.08.743,task,2021.1.4,Win32,59.672992,628b806c463b948bc644b84f,629afd0c5bce29c44bada6ea,,,,,,0,0,0,0,1,X V Q F H G B L J M P D K C T S W R N Z,,,,,,,,,,,,,,,,,,,,,,,,,,,,,,,,,,,,,,,,,,,,,,,,,,,,,,,,,,,,,,,,,,,,,,,,,,,,,,,,,,,,,,,,,,,,,
,,,,,,,,,5f957181be463b3d6a83a84a,21,Mężczyzna,2022-06-04_08h37.08.743,task,2021.1.4,Win32,59.672992,628b806c463b948bc644b84f,629afd0c5bce29c44bada6ea,,,,,,1,0,1,0,1,X V Q F H G B L J M P D K C T S W R N Z,,,,,,,,,,,,,,,,,,,,,,,,,,,,,,,,,,,,,,,,,,,,,,,,,,,,,,,,,,,,,,,,,,,,,,,,,,,,,,,,,,,,,,,,,,,,,
,,,,,,,,,5f957181be463b3d6a83a84a,21,Mężczyzna,2022-06-04_08h37.08.743,task,2021.1.4,Win32,59.672992,628b806c463b948bc644b84f,629afd0c5bce29c44bada6ea,,,,,,2,0,2,0,1,X V Q F H G B L J M P D K C T S W R N Z,,,,,,,,,,,,,,,,,,,,,,,,,,,,,,,,,,,,,,,,,,,,,,,,,,,,,,,,,,,,,,,,,,,,,,,,,,,,,,,,,,,,,,,,,,,,,
,,,,,,,,,5f957181be463b3d6a83a84a,21,Mężczyzna,2022-06-04_08h37.08.743,task,2021.1.4,Win32,59.672992,628b806c463b948bc644b84f,629afd0c5bce29c44bada6ea,,,,,,3,0,3,0,1,X V Q F H G B L J M P D K C T S W R N Z,,,,,,,,,,,,,,,,,,,,,,,,,,,,,,,,,,,,,,,,,,,,,,,,,,,,,,,,,,,,,,,,,,,,,,,,,,,,,,,,,,,,,,,,,,,,,
,,,,,,,,,5f957181be463b3d6a83a84a,21,Mężczyzna,2022-06-04_08h37.08.743,task,2021.1.4,Win32,59.672992,628b806c463b948bc644b84f,629afd0c5bce29c44bada6ea,,,,,,4,0,4,0,1,X V Q F H G B L J M P D K C T S W R N Z,,,,,,,,,,,,,,,,,,,,,,,,,,,,,,,,,,,,,,,,,,,,,,,,,,,,,,,,,,,,,,,,,,,,,,,,,,,,,,,,,,,,,,,,,,,,,
,,,,,,,,,5f957181be463b3d6a83a84a,21,Mężczyzna,2022-06-04_08h37.08.743,task,2021.1.4,Win32,59.672992,628b806c463b948bc644b84f,629afd0c5bce29c44bada6ea,,,,,,5,0,5,0,1,X V Q F H G B L J M P D K C T S W R N Z,,,,,,,,,,,,,,,,,,,,,,,,,,,,,,,,,,,,,,,,,,,,,,,,,,,,,,,,,,,,,,,,,,,,,,,,,,,,,,,,,,,,,,,,,,,,,
,,,,,,,,,5f957181be463b3d6a83a84a,21,Mężczyzna,2022-06-04_08h37.08.743,task,2021.1.4,Win32,59.672992,628b806c463b948bc644b84f,629afd0c5bce29c44bada6ea,,,,,,,,,,,,ddjdgh,"[""d"",""d"",""j"",""d"",""g"",""h""]","[0.5841000000238523,0.9989000000953752,1.5103000000715383,2.2254000000953624,2.8461000000238528,3.1987000000477224,4.4068000000715415]",1,DDJDGH,12,0,12,0,1,,,,,,,,,,,,,,,,,,,,,,,,,,,,,,,,,,,,,,,,,,,,,,,,,,,,,,,,,,,,,,,,,,,,,,,,,,,,,,,,,,,
,,,,,,,,,5f957181be463b3d6a83a84a,21,Mężczyzna,2022-06-04_08h37.08.743,task,2021.1.4,Win32,59.672992,628b806c463b948bc644b84f,629afd0c5bce29c44bada6ea,,,,,,0,0,0,0,1,X V Q F H G B L J M P D K C T S W R N Z,,,,,,,,,,,,,,,,,,,,,,,,,,,,,,,,,,,,,,,,,,,,,,,,,,,,,,,,,,,,,,,,,,,,,,,,,,,,,,,,,,,,,,,,,,,,,
,,,,,,,,,5f957181be463b3d6a83a84a,21,Mężczyzna,2022-06-04_08h37.08.743,task,2021.1.4,Win32,59.672992,628b806c463b948bc644b84f,629afd0c5bce29c44bada6ea,,,,,,1,0,1,0,1,X V Q F H G B L J M P D K C T S W R N Z,,,,,,,,,,,,,,,,,,,,,,,,,,,,,,,,,,,,,,,,,,,,,,,,,,,,,,,,,,,,,,,,,,,,,,,,,,,,,,,,,,,,,,,,,,,,,
,,,,,,,,,5f957181be463b3d6a83a84a,21,Mężczyzna,2022-06-04_08h37.08.743,task,2021.1.4,Win32,59.672992,628b806c463b948bc644b84f,629afd0c5bce29c44bada6ea,,,,,,2,0,2,0,1,X V Q F H G B L J M P D K C T S W R N Z,,,,,,,,,,,,,,,,,,,,,,,,,,,,,,,,,,,,,,,,,,,,,,,,,,,,,,,,,,,,,,,,,,,,,,,,,,,,,,,,,,,,,,,,,,,,,
,,,,,,,,,5f957181be463b3d6a83a84a,21,Mężczyzna,2022-06-04_08h37.08.743,task,2021.1.4,Win32,59.672992,628b806c463b948bc644b84f,629afd0c5bce29c44bada6ea,,,,,,3,0,3,0,1,X V Q F H G B L J M P D K C T S W R N Z,,,,,,,,,,,,,,,,,,,,,,,,,,,,,,,,,,,,,,,,,,,,,,,,,,,,,,,,,,,,,,,,,,,,,,,,,,,,,,,,,,,,,,,,,,,,,
,,,,,,,,,5f957181be463b3d6a83a84a,21,Mężczyzna,2022-06-04_08h37.08.743,task,2021.1.4,Win32,59.672992,628b806c463b948bc644b84f,629afd0c5bce29c44bada6ea,,,,,,4,0,4,0,1,X V Q F H G B L J M P D K C T S W R N Z,,,,,,,,,,,,,,,,,,,,,,,,,,,,,,,,,,,,,,,,,,,,,,,,,,,,,,,,,,,,,,,,,,,,,,,,,,,,,,,,,,,,,,,,,,,,,
,,,,,,,,,5f957181be463b3d6a83a84a,21,Mężczyzna,2022-06-04_08h37.08.743,task,2021.1.4,Win32,59.672992,628b806c463b948bc644b84f,629afd0c5bce29c44bada6ea,,,,,,5,0,5,0,1,X V Q F H G B L J M P D K C T S W R N Z,,,,,,,,,,,,,,,,,,,,,,,,,,,,,,,,,,,,,,,,,,,,,,,,,,,,,,,,,,,,,,,,,,,,,,,,,,,,,,,,,,,,,,,,,,,,,
,,,,,,,,,5f957181be463b3d6a83a84a,21,Mężczyzna,2022-06-04_08h37.08.743,task,2021.1.4,Win32,59.672992,628b806c463b948bc644b84f,629afd0c5bce29c44bada6ea,,,,,,,,,,,,qthqjxm,"[""q"",""t"",""h"",""q"",""j"",""x"",""m""]","[1.2538000000715215,1.748800000071526,2.596200000047702,3.1474999999999795,3.6636000000238482,4.4354999999999905,4.859600000023818,5.7721000000238405]",0,QTHJXM,13,0,13,0,1,,,,,,,,,,,,,,,,,,,,,,,,,,,,,,,,,,,,,,,,,,,,,,,,,,,,,,,,,,,,,,,,,,,,,,,,,,,,,,,,,,,
,,,,,,,,,5f957181be463b3d6a83a84a,21,Mężczyzna,2022-06-04_08h37.08.743,task,2021.1.4,Win32,59.672992,628b806c463b948bc644b84f,629afd0c5bce29c44bada6ea,,,,,,0,0,0,0,1,X V Q F H G B L J M P D K C T S W R N Z,,,,,,,,,,,,,,,,,,,,,,,,,,,,,,,,,,,,,,,,,,,,,,,,,,,,,,,,,,,,,,,,,,,,,,,,,,,,,,,,,,,,,,,,,,,,,
,,,,,,,,,5f957181be463b3d6a83a84a,21,Mężczyzna,2022-06-04_08h37.08.743,task,2021.1.4,Win32,59.672992,628b806c463b948bc644b84f,629afd0c5bce29c44bada6ea,,,,,,1,0,1,0,1,X V Q F H G B L J M P D K C T S W R N Z,,,,,,,,,,,,,,,,,,,,,,,,,,,,,,,,,,,,,,,,,,,,,,,,,,,,,,,,,,,,,,,,,,,,,,,,,,,,,,,,,,,,,,,,,,,,,
,,,,,,,,,5f957181be463b3d6a83a84a,21,Mężczyzna,2022-06-04_08h37.08.743,task,2021.1.4,Win32,59.672992,628b806c463b948bc644b84f,629afd0c5bce29c44bada6ea,,,,,,2,0,2,0,1,X V Q F H G B L J M P D K C T S W R N Z,,,,,,,,,,,,,,,,,,,,,,,,,,,,,,,,,,,,,,,,,,,,,,,,,,,,,,,,,,,,,,,,,,,,,,,,,,,,,,,,,,,,,,,,,,,,,
,,,,,,,,,5f957181be463b3d6a83a84a,21,Mężczyzna,2022-06-04_08h37.08.743,task,2021.1.4,Win32,59.672992,628b806c463b948bc644b84f,629afd0c5bce29c44bada6ea,,,,,,3,0,3,0,1,X V Q F H G B L J M P D K C T S W R N Z,,,,,,,,,,,,,,,,,,,,,,,,,,,,,,,,,,,,,,,,,,,,,,,,,,,,,,,,,,,,,,,,,,,,,,,,,,,,,,,,,,,,,,,,,,,,,
,,,,,,,,,5f957181be463b3d6a83a84a,21,Mężczyzna,2022-06-04_08h37.08.743,task,2021.1.4,Win32,59.672992,628b806c463b948bc644b84f,629afd0c5bce29c44bada6ea,,,,,,4,0,4,0,1,X V Q F H G B L J M P D K C T S W R N Z,,,,,,,,,,,,,,,,,,,,,,,,,,,,,,,,,,,,,,,,,,,,,,,,,,,,,,,,,,,,,,,,,,,,,,,,,,,,,,,,,,,,,,,,,,,,,
,,,,,,,,,5f957181be463b3d6a83a84a,21,Mężczyzna,2022-06-04_08h37.08.743,task,2021.1.4,Win32,59.672992,628b806c463b948bc644b84f,629afd0c5bce29c44bada6ea,,,,,,5,0,5,0,1,X V Q F H G B L J M P D K C T S W R N Z,,,,,,,,,,,,,,,,,,,,,,,,,,,,,,,,,,,,,,,,,,,,,,,,,,,,,,,,,,,,,,,,,,,,,,,,,,,,,,,,,,,,,,,,,,,,,
,,,,,,,,,5f957181be463b3d6a83a84a,21,Mężczyzna,2022-06-04_08h37.08.743,task,2021.1.4,Win32,59.672992,628b806c463b948bc644b84f,629afd0c5bce29c44bada6ea,,,,,,,,,,,,sqjsmx,"[""s"",""q"",""j"",""s"",""m"",""x""]","[1.7074000000953333,4.058999999999969,5.3858000000715265,7.6819999999999595,14.818100000023833,15.168499999999995,16.06720000004765]",0,SJSQSX,14,0,14,0,1,,,,,,,,,,,,,,,,,,,,,,,,,,,,,,,,,,,,,,,,,,,,,,,,,,,,,,,,,,,,,,,,,,,,,,,,,,,,,,,,,,,
,,,,,,,,,5f957181be463b3d6a83a84a,21,Mężczyzna,2022-06-04_08h37.08.743,task,2021.1.4,Win32,59.672992,628b806c463b948bc644b84f,629afd0c5bce29c44bada6ea,,,,,,,,,,,,,,,,,,,,,,space,15.6964,5,"[""5""]",0,[5.219000000000051],[5.219000000000051],0,0,0,1,1,Practice,2,(4x4) - 15,1,,,,,,,,,,,,,,,,,,,,,,,,,,,,,,,,,,,,,,,,,,,,,,,,,,,,,,,,,,,,,,,,,,,
,,,,,,,,,5f957181be463b3d6a83a84a,21,Mężczyzna,2022-06-04_08h37.08.743,task,2021.1.4,Win32,59.672992,628b806c463b948bc644b84f,629afd0c5bce29c44bada6ea,,,,,,,,,,,,,,,,,,,,,,,,4,"[""4""]",1,[3.1846000000238064],"[5.219000000000051,3.1846000000238064]",0,1,1,4,1,Practice,5,(2x6) - 8,4,,,,,,,,,,,,,,,,,,,,,,,,,,,,,,,,,,,,,,,,,,,,,,,,,,,,,,,,,,,,,,,,,,,
,,,,,,,,,5f957181be463b3d6a83a84a,21,Mężczyzna,2022-06-04_08h37.08.743,task,2021.1.4,Win32,59.672992,628b806c463b948bc644b84f,629afd0c5bce29c44bada6ea,,,,,,,,,,,,,,,,,,,,,,,,9,"[""9""]",1,[3.202599999904578],"[5.219000000000051,3.1846000000238064,3.202599999904578]",0,2,2,9,1,Practice,10,(20/2) - 1,9,,,,,,,,,,,,,,,,,,,,,,,,,,,,,,,,,,,,,,,,,,,,,,,,,,,,,,,,,,,,,,,,,,,
,,,,,,,,,5f957181be463b3d6a83a84a,21,Mężczyzna,2022-06-04_08h37.08.743,task,2021.1.4,Win32,59.672992,628b806c463b948bc644b84f,629afd0c5bce29c44bada6ea,,,,,,,,,,,,,,,,,,,,,,,,0,"[""0""]",1,[1.9811000000238437],"[5.219000000000051,3.1846000000238064,3.202599999904578,1.9811000000238437]",0,3,3,0,1,Practice,1,(3x3) -  9,0,,,,,,,,,,,,,,,,,,,,,,,,,,,,,,,,,,,,,,,,,,,,,,,,,,,,,,,,,,,,,,,,,,,
,,,,,,,,,5f957181be463b3d6a83a84a,21,Mężczyzna,2022-06-04_08h37.08.743,task,2021.1.4,Win32,59.672992,628b806c463b948bc644b84f,629afd0c5bce29c44bada6ea,,,,,,,,,,,,,,,,,,,,,,,,5,"[""5""]",1,[3.649000000000001],"[5.219000000000051,3.1846000000238064,3.202599999904578,1.9811000000238437,3.649000000000001]",0,4,4,5,1,Practice,6,(4/2) + 3,5,,,,,,,,,,,,,,,,,,,,,,,,,,,,,,,,,,,,,,,,,,,,,,,,,,,,,,,,,,,,,,,,,,,
,,,,,,,,,5f957181be463b3d6a83a84a,21,Mężczyzna,2022-06-04_08h37.08.743,task,2021.1.4,Win32,59.672992,628b806c463b948bc644b84f,629afd0c5bce29c44bada6ea,,,,,,,,,,,,,,,,,,,,,,,,8,"[""8""]",1,[2.5982000000476546],"[5.219000000000051,3.1846000000238064,3.202599999904578,1.9811000000238437,3.649000000000001,2.5982000000476546]",0,5,5,8,1,Practice,9,(3x3) - 1,8,,,,,,,,,,,,,,,,,,,,,,,,,,,,,,,,,,,,,,,,,,,,,,,,,,,,,,,,,,,,,,,,,,,
,,,,,,,,,5f957181be463b3d6a83a84a,21,Mężczyzna,2022-06-04_08h37.08.743,task,2021.1.4,Win32,59.672992,628b806c463b948bc644b84f,629afd0c5bce29c44bada6ea,,,,,,,,,,,,,,,,,,,,,,,,7,"[""7""]",1,[2.732499999999959],"[5.219000000000051,3.1846000000238064,3.202599999904578,1.9811000000238437,3.649000000000001,2.5982000000476546,2.732499999999959]",0,6,6,7,1,Practice,8,(5x5) - 18,7,,,,,,,,,,,,,,,,,,,,,,,,,,,,,,,,,,,,,,,,,,,,,,,,,,,,,,,,,,,,,,,,,,,
,,,,,,,,,5f957181be463b3d6a83a84a,21,Mężczyzna,2022-06-04_08h37.08.743,task,2021.1.4,Win32,59.672992,628b806c463b948bc644b84f,629afd0c5bce29c44bada6ea,,,,,,,,,,,,,,,,,,,,,,,,2,"[""2""]",1,[3.466900000095393],"[5.219000000000051,3.1846000000238064,3.202599999904578,1.9811000000238437,3.649000000000001,2.5982000000476546,2.732499999999959,3.466900000095393]",0,7,7,2,1,Practice,3,(4x4) - 14,2,,,,,,,,,,,,,,,,,,,,,,,,,,,,,,,,,,,,,,,,,,,,,,,,,,,,,,,,,,,,,,,,,,,
,,,,,,,,,5f957181be463b3d6a83a84a,21,Mężczyzna,2022-06-04_08h37.08.743,task,2021.1.4,Win32,59.672992,628b806c463b948bc644b84f,629afd0c5bce29c44bada6ea,,,,,,,,,,,,,,,,,,,,,,,,3,"[""3""]",1,[2.2339999999999236],"[5.219000000000051,3.1846000000238064,3.202599999904578,1.9811000000238437,3.649000000000001,2.5982000000476546,2.732499999999959,3.466900000095393,2.2339999999999236]",0,8,8,3,1,Practice,4,(8/4) + 1,3,,,,,,,,,,,,,,,,,,,,,,,,,,,,,,,,,,,,,,,,,,,,,,,,,,,,,,,,,,,,,,,,,,,
,,,,,,,,,5f957181be463b3d6a83a84a,21,Mężczyzna,2022-06-04_08h37.08.743,task,2021.1.4,Win32,59.672992,628b806c463b948bc644b84f,629afd0c5bce29c44bada6ea,,,,,,,,,,,,,,,,,,,,,,,,6,"[""6""]",1,[3.4603999999761754],"[5.219000000000051,3.1846000000238064,3.202599999904578,1.9811000000238437,3.649000000000001,2.5982000000476546,2.732499999999959,3.466900000095393,2.2339999999999236,3.4603999999761754]",0,9,9,6,1,Practice,7,(25/5) + 1,6,,,,,,,,,,,,,,,,,,,,,,,,,,,,,,,,,,,,,,,,,,,,,,,,,,,,,,,,,,,,,,,,,,,
,,,,,,,,,5f957181be463b3d6a83a84a,21,Mężczyzna,2022-06-04_08h37.08.743,task,2021.1.4,Win32,59.672992,628b806c463b948bc644b84f,629afd0c5bce29c44bada6ea,,,,,,,,,,,,,,,,,,,,,,,,,,,,,,,,,,,,,,0.9,31.7283,2.11522,18.59484942,1.113398683,4.987788603,space,2.3413,0,0,0,0,1,,,,,,,,,,,,,,,,,,,,,,,,,,,,,,,,,,,,,,,,,,,,,,,,,,,,,,
,,,,,,,,,5f957181be463b3d6a83a84a,21,Mężczyzna,2022-06-04_08h37.08.743,task,2021.1.4,Win32,59.672992,628b806c463b948bc644b84f,629afd0c5bce29c44bada6ea,,,,,,,,,,,,,,,,,,,,,,,,5,,,,,,,,,,Practice,6,(4/2) + 3,5,,,,,,,,,,,,,,space,31.0918,"[""5""]",1,[2.418700000047693],1,0,0,0,5,1,,,,,,,,,,,,,,,,,,,,,,,,,,,,,,,,,,,,,,,,,,,
,,,,,,,,,5f957181be463b3d6a83a84a,21,Mężczyzna,2022-06-04_08h37.08.743,task,2021.1.4,Win32,59.672992,628b806c463b948bc644b84f,629afd0c5bce29c44bada6ea,,,,,,,,,,,X V Q F H G B L J M P D K C T S W R N Z,,,,,,,,,,,,,,,,,,,,,,,,,,,,,,,,,,,,,,,,,,,,,,,,,,,0,0,0,0,1,,,,,,,,,,,,,,,,,,,,,,,,,,,,,,,,,,,,,,
,,,,,,,,,5f957181be463b3d6a83a84a,21,Mężczyzna,2022-06-04_08h37.08.743,task,2021.1.4,Win32,59.672992,628b806c463b948bc644b84f,629afd0c5bce29c44bada6ea,,,,,,,,,,,,,,,,,,,,,,,,0,,,,,,,,,,Practice,1,(3x3) -  9,0,,,,,,,,,,,,,,,,"[""0""]",1,[1.9617000000476992],1,0,0,0,0,1,,,,,,,,,,,,,,,,,,,,,,,,,,,,,,,,,,,,,,,,,,,
,,,,,,,,,5f957181be463b3d6a83a84a,21,Mężczyzna,2022-06-04_08h37.08.743,task,2021.1.4,Win32,59.672992,628b806c463b948bc644b84f,629afd0c5bce29c44bada6ea,,,,,,,,,,,X V Q F H G B L J M P D K C T S W R N Z,,,,,,,,,,,,,,,,,,,,,,,,,,,,,,,,,,,,,,,,,,,,,,,,,,,1,0,1,0,1,,,,,,,,,,,,,,,,,,,,,,,,,,,,,,,,,,,,,,
,,,,,,,,,5f957181be463b3d6a83a84a,21,Mężczyzna,2022-06-04_08h37.08.743,task,2021.1.4,Win32,59.672992,628b806c463b948bc644b84f,629afd0c5bce29c44bada6ea,,,,,,,,,,,,,,,,,,,,,,,,,,,,,,,,,,,,,,,,,,,,,,,,,,,,,,,,,,,,,,,,,,,zl,"[""z"",""l""]",0,"[1.9565000000000055,2.1586000000238528,2.762600000023781]",1,0,0,0,0,1,,,,,,,,,,,,,,,,,,,,,,,,,,,,
,,,,,,,,,5f957181be463b3d6a83a84a,21,Mężczyzna,2022-06-04_08h37.08.743,task,2021.1.4,Win32,59.672992,628b806c463b948bc644b84f,629afd0c5bce29c44bada6ea,,,,,,,,,,,,,,,,,,,,,,,,9,,,,,,,,,,Practice,10,(20/2) - 1,9,,,,,,,,,,,,,,,,"[""9""]",1,[1.8915000000000646],1,0,0,0,9,1,,,,,,,,,,,,,,,,,,,,,,,,,,,,,,,,,,,,,,,,,,,
,,,,,,,,,5f957181be463b3d6a83a84a,21,Mężczyzna,2022-06-04_08h37.08.743,task,2021.1.4,Win32,59.672992,628b806c463b948bc644b84f,629afd0c5bce29c44bada6ea,,,,,,,,,,,X V Q F H G B L J M P D K C T S W R N Z,,,,,,,,,,,,,,,,,,,,,,,,,,,,,,,,,,,,,,,,,,,,,,,,,,,0,0,0,0,1,,,,,,,,,,,,,,,,,,,,,,,,,,,,,,,,,,,,,,
,,,,,,,,,5f957181be463b3d6a83a84a,21,Mężczyzna,2022-06-04_08h37.08.743,task,2021.1.4,Win32,59.672992,628b806c463b948bc644b84f,629afd0c5bce29c44bada6ea,,,,,,,,,,,,,,,,,,,,,,,,0,,,,,,,,,,Practice,1,(3x3) -  9,0,,,,,,,,,,,,,,,,"[""0""]",1,[1.291399999976079],1,0,0,0,0,1,,,,,,,,,,,,,,,,,,,,,,,,,,,,,,,,,,,,,,,,,,,
,,,,,,,,,5f957181be463b3d6a83a84a,21,Mężczyzna,2022-06-04_08h37.08.743,task,2021.1.4,Win32,59.672992,628b806c463b948bc644b84f,629afd0c5bce29c44bada6ea,,,,,,,,,,,X V Q F H G B L J M P D K C T S W R N Z,,,,,,,,,,,,,,,,,,,,,,,,,,,,,,,,,,,,,,,,,,,,,,,,,,,1,0,1,0,1,,,,,,,,,,,,,,,,,,,,,,,,,,,,,,,,,,,,,,
,,,,,,,,,5f957181be463b3d6a83a84a,21,Mężczyzna,2022-06-04_08h37.08.743,task,2021.1.4,Win32,59.672992,628b806c463b948bc644b84f,629afd0c5bce29c44bada6ea,,,,,,,,,,,,,,,,,,,,,,,,,,,,,,,,,,,,,,,,,,,,,,,,,,,,,,,,,,,,,,,,,,,tt,"[""t"",""t""]",0,"[1.756899999976099,2.0218999999760854,2.9437999999522617]",1,1,0,1,0,1,,,,,,,,,,,,,,,,,,,,,,,,,,,,
,,,,,,,,,5f957181be463b3d6a83a84a,21,Mężczyzna,2022-06-04_08h37.08.743,task,2021.1.4,Win32,59.672992,628b806c463b948bc644b84f,629afd0c5bce29c44bada6ea,,,,,,,,,,,,,,,,,,,,,,,,4,,,,,,,,,,Practice,4,(8/4) + 1,3,,,,,,,,,,,,,,,,"[""4""]",0,[2.9653000000714655],0,0,0,0,3,1,,,,,,,,,,,,,,,,,,,,,,,,,,,,,,,,,,,,,,,,,,,
,,,,,,,,,5f957181be463b3d6a83a84a,21,Mężczyzna,2022-06-04_08h37.08.743,task,2021.1.4,Win32,59.672992,628b806c463b948bc644b84f,629afd0c5bce29c44bada6ea,,,,,,,,,,,,,,,,,,,,,,,,5,,,,,,,,,,Practice,2,(4x4) - 15,1,,,,,,,,,,,,,,,,"[""5""]",0,[1.9764999999999873],0,0,1,1,1,1,,,,,,,,,,,,,,,,,,,,,,,,,,,,,,,,,,,,,,,,,,,
,,,,,,,,,5f957181be463b3d6a83a84a,21,Mężczyzna,2022-06-04_08h37.08.743,task,2021.1.4,Win32,59.672992,628b806c463b948bc644b84f,629afd0c5bce29c44bada6ea,,,,,,,,,,,,,,,,,,,,,,,,7,,,,,,,,,,Practice,8,(5x5) - 18,7,,,,,,,,,,,,,,,,"[""7""]",1,[2.7060000000000173],1,0,2,2,7,1,,,,,,,,,,,,,,,,,,,,,,,,,,,,,,,,,,,,,,,,,,,
,,,,,,,,,5f957181be463b3d6a83a84a,21,Mężczyzna,2022-06-04_08h37.08.743,task,2021.1.4,Win32,59.672992,628b806c463b948bc644b84f,629afd0c5bce29c44bada6ea,,,,,,,,,,,X V Q F H G B L J M P D K C T S W R N Z,,,,,,,,,,,,,,,,,,,,,,,,,,,,,,,,,,,,,,,,,,,,,,,,,,,0,0,0,0,1,,,,,,,,,,,,,,,,,,,,,,,,,,,,,,,,,,,,,,
,,,,,,,,,5f957181be463b3d6a83a84a,21,Mężczyzna,2022-06-04_08h37.08.743,task,2021.1.4,Win32,59.672992,628b806c463b948bc644b84f,629afd0c5bce29c44bada6ea,,,,,,,,,,,,,,,,,,,,,,,,8,,,,,,,,,,Practice,9,(3x3) - 1,8,,,,,,,,,,,,,,,,"[""8""]",1,[2.2245000000000346],1,0,0,0,8,1,,,,,,,,,,,,,,,,,,,,,,,,,,,,,,,,,,,,,,,,,,,
,,,,,,,,,5f957181be463b3d6a83a84a,21,Mężczyzna,2022-06-04_08h37.08.743,task,2021.1.4,Win32,59.672992,628b806c463b948bc644b84f,629afd0c5bce29c44bada6ea,,,,,,,,,,,X V Q F H G B L J M P D K C T S W R N Z,,,,,,,,,,,,,,,,,,,,,,,,,,,,,,,,,,,,,,,,,,,,,,,,,,,1,0,1,0,1,,,,,,,,,,,,,,,,,,,,,,,,,,,,,,,,,,,,,,
,,,,,,,,,5f957181be463b3d6a83a84a,21,Mężczyzna,2022-06-04_08h37.08.743,task,2021.1.4,Win32,59.672992,628b806c463b948bc644b84f,629afd0c5bce29c44bada6ea,,,,,,,,,,,,,,,,,,,,,,,,,,,,,,,,,,,,,,,,,,,,,,,,,,,,,,,,,,,,,,,,,,,dh,"[""d"",""h""]",0,"[2.435000000000059,2.8034999999999854,3.69789999997613]",1,2,0,2,0,1,,,,,,,,,,,,,,,,,,,,,,,,,,,,
,,,,,,,,,5f957181be463b3d6a83a84a,21,Mężczyzna,2022-06-04_08h37.08.743,task,2021.1.4,Win32,59.672992,628b806c463b948bc644b84f,629afd0c5bce29c44bada6ea,,,,,,,,,,,,,,,,,,,,,,,,5,,,,,,,,,,Task,22,(3x1) + 2,5,,,,,,,,,,,,,,,,,,,1,,,,,,,,,,,,,,,,,,,,,space,62.5544,"[""5""]",1,[1.915600000023801],0,0,0,21,1,,,,,,,,,,,,,,,,,,
,,,,,,,,,5f957181be463b3d6a83a84a,21,Mężczyzna,2022-06-04_08h37.08.743,task,2021.1.4,Win32,59.672992,628b806c463b948bc644b84f,629afd0c5bce29c44bada6ea,,,,,,,,,,,X V Q F H G B L J M P D K C T S W R N Z,,,,,,,,,,,,,,,,,,,,,,,,,,,,,,,,,,,,,,,,,,,,,,,,,,,,,,,,,,,,,,,,,,,,,,,,,,,,0,0,0,0,1,,,,,,,,,,,,,
,,,,,,,,,5f957181be463b3d6a83a84a,21,Mężczyzna,2022-06-04_08h37.08.743,task,2021.1.4,Win32,59.672992,628b806c463b948bc644b84f,629afd0c5bce29c44bada6ea,,,,,,,,,,,,,,,,,,,,,,,,4,,,,,,,,,,Task,35,(1x2) + 1,3,,,,,,,,,,,,,,,,,,,0,,,,,,,,,,,,,,,,,,,,,,,"[""4""]",0,[1.97560000002386],0,0,0,34,1,,,,,,,,,,,,,,,,,,
,,,,,,,,,5f957181be463b3d6a83a84a,21,Mężczyzna,2022-06-04_08h37.08.743,task,2021.1.4,Win32,59.672992,628b806c463b948bc644b84f,629afd0c5bce29c44bada6ea,,,,,,,,,,,,,,,,,,,,,,,,5,,,,,,,,,,Task,36,(8/4) + 3,5,,,,,,,,,,,,,,,,,,,1,,,,,,,,,,,,,,,,,,,,,,,"[""5""]",1,[1.733000000000061],0,1,1,35,1,,,,,,,,,,,,,,,,,,
,,,,,,,,,5f957181be463b3d6a83a84a,21,Mężczyzna,2022-06-04_08h37.08.743,task,2021.1.4,Win32,59.672992,628b806c463b948bc644b84f,629afd0c5bce29c44bada6ea,,,,,,,,,,,X V Q F H G B L J M P D K C T S W R N Z,,,,,,,,,,,,,,,,,,,,,,,,,,,,,,,,,,,,,,,,,,,,,,,,,,,,,,,,,,,,,,,,,,,,,,,,,,,,1,0,1,0,1,,,,,,,,,,,,,
,,,,,,,,,5f957181be463b3d6a83a84a,21,Mężczyzna,2022-06-04_08h37.08.743,task,2021.1.4,Win32,59.672992,628b806c463b948bc644b84f,629afd0c5bce29c44bada6ea,,,,,,,,,,,,,,,,,,,,,,,,,,,,,,,,,,,,,,,,,,,,,,,,,,,,,,,,,,,,,,,,,,,,,,,,,,,,,,,,,,,,,,,,,,,,zk,"[""z"",""k""]",0,"[2.02439999997614,2.148499999999899,2.7414999999999736]",1,ZK,0,0,0,0,1,,
,,,,,,,,,5f957181be463b3d6a83a84a,21,Mężczyzna,2022-06-04_08h37.08.743,task,2021.1.4,Win32,59.672992,628b806c463b948bc644b84f,629afd0c5bce29c44bada6ea,,,,,,,,,,,,,,,,,,,,,,,,2,,,,,,,,,,Task,19,(6/2) - 1,2,,,,,,,,,,,,,,,,,,,1,,,,,,,,,,,,,,,,,,,,,,,"[""2""]",1,[2.1272999999523563],0,0,0,18,1,,,,,,,,,,,,,,,,,,
,,,,,,,,,5f957181be463b3d6a83a84a,21,Mężczyzna,2022-06-04_08h37.08.743,task,2021.1.4,Win32,59.672992,628b806c463b948bc644b84f,629afd0c5bce29c44bada6ea,,,,,,,,,,,X V Q F H G B L J M P D K C T S W R N Z,,,,,,,,,,,,,,,,,,,,,,,,,,,,,,,,,,,,,,,,,,,,,,,,,,,,,,,,,,,,,,,,,,,,,,,,,,,,0,0,0,0,1,,,,,,,,,,,,,
,,,,,,,,,5f957181be463b3d6a83a84a,21,Mężczyzna,2022-06-04_08h37.08.743,task,2021.1.4,Win32,59.672992,628b806c463b948bc644b84f,629afd0c5bce29c44bada6ea,,,,,,,,,,,,,,,,,,,,,,,,1,,,,,,,,,,Task,34,(9/3) - 2,1,,,,,,,,,,,,,,,,,,,1,,,,,,,,,,,,,,,,,,,,,,,"[""1""]",1,[2.155800000071622],0,0,0,33,1,,,,,,,,,,,,,,,,,,
,,,,,,,,,5f957181be463b3d6a83a84a,21,Mężczyzna,2022-06-04_08h37.08.743,task,2021.1.4,Win32,59.672992,628b806c463b948bc644b84f,629afd0c5bce29c44bada6ea,,,,,,,,,,,X V Q F H G B L J M P D K C T S W R N Z,,,,,,,,,,,,,,,,,,,,,,,,,,,,,,,,,,,,,,,,,,,,,,,,,,,,,,,,,,,,,,,,,,,,,,,,,,,,1,0,1,0,1,,,,,,,,,,,,,
,,,,,,,,,5f957181be463b3d6a83a84a,21,Mężczyzna,2022-06-04_08h37.08.743,task,2021.1.4,Win32,59.672992,628b806c463b948bc644b84f,629afd0c5bce29c44bada6ea,,,,,,,,,,,,,,,,,,,,,,,,5,,,,,,,,,,Task,14,(2x2) + 3,7,,,,,,,,,,,,,,,,,,,0,,,,,,,,,,,,,,,,,,,,,,,"[""5""]",0,[2.3981000000238737],0,0,0,13,1,,,,,,,,,,,,,,,,,,
,,,,,,,,,5f957181be463b3d6a83a84a,21,Mężczyzna,2022-06-04_08h37.08.743,task,2021.1.4,Win32,59.672992,628b806c463b948bc644b84f,629afd0c5bce29c44bada6ea,,,,,,,,,,,,,,,,,,,,,,,,0,,,,,,,,,,Task,25,(10/5) - 2,0,,,,,,,,,,,,,,,,,,,1,,,,,,,,,,,,,,,,,,,,,,,"[""0""]",1,[2.73599999999999],0,1,1,24,1,,,,,,,,,,,,,,,,,,
,,,,,,,,,5f957181be463b3d6a83a84a,21,Mężczyzna,2022-06-04_08h37.08.743,task,2021.1.4,Win32,59.672992,628b806c463b948bc644b84f,629afd0c5bce29c44bada6ea,,,,,,,,,,,X V Q F H G B L J M P D K C T S W R N Z,,,,,,,,,,,,,,,,,,,,,,,,,,,,,,,,,,,,,,,,,,,,,,,,,,,,,,,,,,,,,,,,,,,,,,,,,,,,2,0,2,0,1,,,,,,,,,,,,,
,,,,,,,,,5f957181be463b3d6a83a84a,21,Mężczyzna,2022-06-04_08h37.08.743,task,2021.1.4,Win32,59.672992,628b806c463b948bc644b84f,629afd0c5bce29c44bada6ea,,,,,,,,,,,,,,,,,,,,,,,,,,,,,,,,,,,,,,,,,,,,,,,,,,,,,,,,,,,,,,,,,,,,,,,,,,,,,,,,,,,,,,,,,,,,fpl,"[""f"",""p"",""l""]",0,"[1.7238999999760836,1.8502999999523126,1.9622000000476874,2.9309999999999263]",1,FPL,1,0,1,0,1,,
,,,,,,,,,5f957181be463b3d6a83a84a,21,Mężczyzna,2022-06-04_08h37.08.743,task,2021.1.4,Win32,59.672992,628b806c463b948bc644b84f,629afd0c5bce29c44bada6ea,,,,,,,,,,,,,,,,,,,,,,,,5,,,,,,,,,,Task,22,(3x1) + 2,5,,,,,,,,,,,,,,,,,,,1,,,,,,,,,,,,,,,,,,,,,,,"[""5""]",1,[3.665800000071499],0,0,0,21,1,,,,,,,,,,,,,,,,,,
,,,,,,,,,5f957181be463b3d6a83a84a,21,Mężczyzna,2022-06-04_08h37.08.743,task,2021.1.4,Win32,59.672992,628b806c463b948bc644b84f,629afd0c5bce29c44bada6ea,,,,,,,,,,,X V Q F H G B L J M P D K C T S W R N Z,,,,,,,,,,,,,,,,,,,,,,,,,,,,,,,,,,,,,,,,,,,,,,,,,,,,,,,,,,,,,,,,,,,,,,,,,,,,0,0,0,0,1,,,,,,,,,,,,,
,,,,,,,,,5f957181be463b3d6a83a84a,21,Mężczyzna,2022-06-04_08h37.08.743,task,2021.1.4,Win32,59.672992,628b806c463b948bc644b84f,629afd0c5bce29c44bada6ea,,,,,,,,,,,,,,,,,,,,,,,,2,,,,,,,,,,Task,19,(6/2) - 1,2,,,,,,,,,,,,,,,,,,,1,,,,,,,,,,,,,,,,,,,,,,,"[""2""]",1,[1.9596000000237837],0,0,0,18,1,,,,,,,,,,,,,,,,,,
,,,,,,,,,5f957181be463b3d6a83a84a,21,Mężczyzna,2022-06-04_08h37.08.743,task,2021.1.4,Win32,59.672992,628b806c463b948bc644b84f,629afd0c5bce29c44bada6ea,,,,,,,,,,,X V Q F H G B L J M P D K C T S W R N Z,,,,,,,,,,,,,,,,,,,,,,,,,,,,,,,,,,,,,,,,,,,,,,,,,,,,,,,,,,,,,,,,,,,,,,,,,,,,1,0,1,0,1,,,,,,,,,,,,,
,,,,,,,,,5f957181be463b3d6a83a84a,21,Mężczyzna,2022-06-04_08h37.08.743,task,2021.1.4,Win32,59.672992,628b806c463b948bc644b84f,629afd0c5bce29c44bada6ea,,,,,,,,,,,,,,,,,,,,,,,,3,,,,,,,,,,Task,3,(2x3) - 3,3,,,,,,,,,,,,,,,,,,,1,,,,,,,,,,,,,,,,,,,,,,,"[""3""]",1,[2.5239000000952956],0,0,0,2,1,,,,,,,,,,,,,,,,,,
,,,,,,,,,5f957181be463b3d6a83a84a,21,Mężczyzna,2022-06-04_08h37.08.743,task,2021.1.4,Win32,59.672992,628b806c463b948bc644b84f,629afd0c5bce29c44bada6ea,,,,,,,,,,,X V Q F H G B L J M P D K C T S W R N Z,,,,,,,,,,,,,,,,,,,,,,,,,,,,,,,,,,,,,,,,,,,,,,,,,,,,,,,,,,,,,,,,,,,,,,,,,,,,2,0,2,0,1,,,,,,,,,,,,,
,,,,,,,,,5f957181be463b3d6a83a84a,21,Mężczyzna,2022-06-04_08h37.08.743,task,2021.1.4,Win32,59.672992,628b806c463b948bc644b84f,629afd0c5bce29c44bada6ea,,,,,,,,,,,,,,,,,,,,,,,,6,,,,,,,,,,Task,37,(3/3) + 5,6,,,,,,,,,,,,,,,,,,,1,,,,,,,,,,,,,,,,,,,,,,,"[""6""]",1,[2.1506000000238146],0,0,0,36,1,,,,,,,,,,,,,,,,,,
,,,,,,,,,5f957181be463b3d6a83a84a,21,Mężczyzna,2022-06-04_08h37.08.743,task,2021.1.4,Win32,59.672992,628b806c463b948bc644b84f,629afd0c5bce29c44bada6ea,,,,,,,,,,,X V Q F H G B L J M P D K C T S W R N Z,,,,,,,,,,,,,,,,,,,,,,,,,,,,,,,,,,,,,,,,,,,,,,,,,,,,,,,,,,,,,,,,,,,,,,,,,,,,3,0,3,0,1,,,,,,,,,,,,,
,,,,,,,,,5f957181be463b3d6a83a84a,21,Mężczyzna,2022-06-04_08h37.08.743,task,2021.1.4,Win32,59.672992,628b806c463b948bc644b84f,629afd0c5bce29c44bada6ea,,,,,,,,,,,,,,,,,,,,,,,,,,,,,,,,,,,,,,,,,,,,,,,,,,,,,,,,,,,,,,,,,,,,,,,,,,,,,,,,,,,,,,,,,,,,wkgj,"[""w"",""k"",""g"",""j""]",0,"[1.8663999999762382,2.312899999976139,2.5625,3.4263999999761836,3.9852999999523036]",1,WKGJ,2,0,2,0,1,,
,,,,,,,,,5f957181be463b3d6a83a84a,21,Mężczyzna,2022-06-04_08h37.08.743,task,2021.1.4,Win32,59.672992,628b806c463b948bc644b84f,629afd0c5bce29c44bada6ea,,,,,,,,,,,,,,,,,,,,,,,,9,,,,,,,,,,Task,16,(3x8) - 15,9,,,,,,,,,,,,,,,,,,,1,,,,,,,,,,,,,,,,,,,,,,,"[""9""]",1,[4.55369999992854],0,0,0,15,1,,,,,,,,,,,,,,,,,,
,,,,,,,,,5f957181be463b3d6a83a84a,21,Mężczyzna,2022-06-04_08h37.08.743,task,2021.1.4,Win32,59.672992,628b806c463b948bc644b84f,629afd0c5bce29c44bada6ea,,,,,,,,,,,X V Q F H G B L J M P D K C T S W R N Z,,,,,,,,,,,,,,,,,,,,,,,,,,,,,,,,,,,,,,,,,,,,,,,,,,,,,,,,,,,,,,,,,,,,,,,,,,,,0,0,0,0,1,,,,,,,,,,,,,
,,,,,,,,,5f957181be463b3d6a83a84a,21,Mężczyzna,2022-06-04_08h37.08.743,task,2021.1.4,Win32,59.672992,628b806c463b948bc644b84f,629afd0c5bce29c44bada6ea,,,,,,,,,,,,,,,,,,,,,,,,9,,,,,,,,,,Task,7,(3x7) - 12,9,,,,,,,,,,,,,,,,,,,1,,,,,,,,,,,,,,,,,,,,,,,"[""9""]",1,[2.9618000000715483],0,0,0,6,1,,,,,,,,,,,,,,,,,,
,,,,,,,,,5f957181be463b3d6a83a84a,21,Mężczyzna,2022-06-04_08h37.08.743,task,2021.1.4,Win32,59.672992,628b806c463b948bc644b84f,629afd0c5bce29c44bada6ea,,,,,,,,,,,X V Q F H G B L J M P D K C T S W R N Z,,,,,,,,,,,,,,,,,,,,,,,,,,,,,,,,,,,,,,,,,,,,,,,,,,,,,,,,,,,,,,,,,,,,,,,,,,,,1,0,1,0,1,,,,,,,,,,,,,
,,,,,,,,,5f957181be463b3d6a83a84a,21,Mężczyzna,2022-06-04_08h37.08.743,task,2021.1.4,Win32,59.672992,628b806c463b948bc644b84f,629afd0c5bce29c44bada6ea,,,,,,,,,,,,,,,,,,,,,,,,5,,,,,,,,,,Task,36,(8/4) + 3,5,,,,,,,,,,,,,,,,,,,1,,,,,,,,,,,,,,,,,,,,,,,"[""5""]",1,[2.0895000000000437],0,0,0,35,1,,,,,,,,,,,,,,,,,,
,,,,,,,,,5f957181be463b3d6a83a84a,21,Mężczyzna,2022-06-04_08h37.08.743,task,2021.1.4,Win32,59.672992,628b806c463b948bc644b84f,629afd0c5bce29c44bada6ea,,,,,,,,,,,X V Q F H G B L J M P D K C T S W R N Z,,,,,,,,,,,,,,,,,,,,,,,,,,,,,,,,,,,,,,,,,,,,,,,,,,,,,,,,,,,,,,,,,,,,,,,,,,,,2,0,2,0,1,,,,,,,,,,,,,
,,,,,,,,,5f957181be463b3d6a83a84a,21,Mężczyzna,2022-06-04_08h37.08.743,task,2021.1.4,Win32,59.672992,628b806c463b948bc644b84f,629afd0c5bce29c44bada6ea,,,,,,,,,,,,,,,,,,,,,,,,8,,,,,,,,,,Task,32,(8/2) + 4,8,,,,,,,,,,,,,,,,,,,1,,,,,,,,,,,,,,,,,,,,,,,"[""8""]",1,[2.406100000023798],0,0,0,31,1,,,,,,,,,,,,,,,,,,
,,,,,,,,,5f957181be463b3d6a83a84a,21,Mężczyzna,2022-06-04_08h37.08.743,task,2021.1.4,Win32,59.672992,628b806c463b948bc644b84f,629afd0c5bce29c44bada6ea,,,,,,,,,,,X V Q F H G B L J M P D K C T S W R N Z,,,,,,,,,,,,,,,,,,,,,,,,,,,,,,,,,,,,,,,,,,,,,,,,,,,,,,,,,,,,,,,,,,,,,,,,,,,,3,0,3,0,1,,,,,,,,,,,,,
,,,,,,,,,5f957181be463b3d6a83a84a,21,Mężczyzna,2022-06-04_08h37.08.743,task,2021.1.4,Win32,59.672992,628b806c463b948bc644b84f,629afd0c5bce29c44bada6ea,,,,,,,,,,,,,,,,,,,,,,,,8,,,,,,,,,,Task,23,(2x3) + 2,8,,,,,,,,,,,,,,,,,,,1,,,,,,,,,,,,,,,,,,,,,,,"[""8""]",1,[2.6268999999762173],0,0,0,22,1,,,,,,,,,,,,,,,,,,
,,,,,,,,,5f957181be463b3d6a83a84a,21,Mężczyzna,2022-06-04_08h37.08.743,task,2021.1.4,Win32,59.672992,628b806c463b948bc644b84f,629afd0c5bce29c44bada6ea,,,,,,,,,,,X V Q F H G B L J M P D K C T S W R N Z,,,,,,,,,,,,,,,,,,,,,,,,,,,,,,,,,,,,,,,,,,,,,,,,,,,,,,,,,,,,,,,,,,,,,,,,,,,,4,0,4,0,1,,,,,,,,,,,,,
,,,,,,,,,5f957181be463b3d6a83a84a,21,Mężczyzna,2022-06-04_08h37.08.743,task,2021.1.4,Win32,59.672992,628b806c463b948bc644b84f,629afd0c5bce29c44bada6ea,,,,,,,,,,,,,,,,,,,,,,,,,,,,,,,,,,,,,,,,,,,,,,,,,,,,,,,,,,,,,,,,,,,,,,,,,,,,,,,,,,,,,,,,,,,,pkzsf,"[""p"",""k"",""z"",""s"",""f""]",0,"[1.460400000095433,1.7383000000716038,2.154900000095381,3.0746000000239064,4.062700000047698,5.260200000047689]",1,PKZSF,3,0,3,0,1,,
,,,,,,,,,5f957181be463b3d6a83a84a,21,Mężczyzna,2022-06-04_08h37.08.743,task,2021.1.4,Win32,59.672992,628b806c463b948bc644b84f,629afd0c5bce29c44bada6ea,,,,,,,,,,,,,,,,,,,,,,,,4,,,,,,,,,,Task,28,(2x5) - 6,4,,,,,,,,,,,,,,,,,,,1,,,,,,,,,,,,,,,,,,,,,,,"[""4""]",1,[2.347799999952258],0,0,0,27,1,,,,,,,,,,,,,,,,,,
,,,,,,,,,5f957181be463b3d6a83a84a,21,Mężczyzna,2022-06-04_08h37.08.743,task,2021.1.4,Win32,59.672992,628b806c463b948bc644b84f,629afd0c5bce29c44bada6ea,,,,,,,,,,,X V Q F H G B L J M P D K C T S W R N Z,,,,,,,,,,,,,,,,,,,,,,,,,,,,,,,,,,,,,,,,,,,,,,,,,,,,,,,,,,,,,,,,,,,,,,,,,,,,0,0,0,0,1,,,,,,,,,,,,,
,,,,,,,,,5f957181be463b3d6a83a84a,21,Mężczyzna,2022-06-04_08h37.08.743,task,2021.1.4,Win32,59.672992,628b806c463b948bc644b84f,629afd0c5bce29c44bada6ea,,,,,,,,,,,,,,,,,,,,,,,,5,,,,,,,,,,Task,14,(2x2) + 3,7,,,,,,,,,,,,,,,,,,,0,,,,,,,,,,,,,,,,,,,,,,,"[""5""]",0,[2.380999999999972],0,0,0,13,1,,,,,,,,,,,,,,,,,,
,,,,,,,,,5f957181be463b3d6a83a84a,21,Mężczyzna,2022-06-04_08h37.08.743,task,2021.1.4,Win32,59.672992,628b806c463b948bc644b84f,629afd0c5bce29c44bada6ea,,,,,,,,,,,,,,,,,,,,,,,,7,,,,,,,,,,Task,31,(4/2) + 5,7,,,,,,,,,,,,,,,,,,,1,,,,,,,,,,,,,,,,,,,,,,,"[""7""]",1,[1.765400000095383],0,1,1,30,1,,,,,,,,,,,,,,,,,,
,,,,,,,,,5f957181be463b3d6a83a84a,21,Mężczyzna,2022-06-04_08h37.08.743,task,2021.1.4,Win32,59.672992,628b806c463b948bc644b84f,629afd0c5bce29c44bada6ea,,,,,,,,,,,X V Q F H G B L J M P D K C T S W R N Z,,,,,,,,,,,,,,,,,,,,,,,,,,,,,,,,,,,,,,,,,,,,,,,,,,,,,,,,,,,,,,,,,,,,,,,,,,,,1,0,1,0,1,,,,,,,,,,,,,
,,,,,,,,,5f957181be463b3d6a83a84a,21,Mężczyzna,2022-06-04_08h37.08.743,task,2021.1.4,Win32,59.672992,628b806c463b948bc644b84f,629afd0c5bce29c44bada6ea,,,,,,,,,,,,,,,,,,,,,,,,5,,,,,,,,,,Task,27,(3/3) + 2,3,,,,,,,,,,,,,,,,,,,0,,,,,,,,,,,,,,,,,,,,,,,"[""5""]",0,[2.4241000000238273],0,0,0,26,1,,,,,,,,,,,,,,,,,,
,,,,,,,,,5f957181be463b3d6a83a84a,21,Mężczyzna,2022-06-04_08h37.08.743,task,2021.1.4,Win32,59.672992,628b806c463b948bc644b84f,629afd0c5bce29c44bada6ea,,,,,,,,,,,,,,,,,,,,,,,,4,,,,,,,,,,Task,28,(2x5) - 6,4,,,,,,,,,,,,,,,,,,,1,,,,,,,,,,,,,,,,,,,,,,,"[""4""]",1,[2.1349000000953993],0,1,1,27,1,,,,,,,,,,,,,,,,,,
,,,,,,,,,5f957181be463b3d6a83a84a,21,Mężczyzna,2022-06-04_08h37.08.743,task,2021.1.4,Win32,59.672992,628b806c463b948bc644b84f,629afd0c5bce29c44bada6ea,,,,,,,,,,,X V Q F H G B L J M P D K C T S W R N Z,,,,,,,,,,,,,,,,,,,,,,,,,,,,,,,,,,,,,,,,,,,,,,,,,,,,,,,,,,,,,,,,,,,,,,,,,,,,2,0,2,0,1,,,,,,,,,,,,,
,,,,,,,,,5f957181be463b3d6a83a84a,21,Mężczyzna,2022-06-04_08h37.08.743,task,2021.1.4,Win32,59.672992,628b806c463b948bc644b84f,629afd0c5bce29c44bada6ea,,,,,,,,,,,,,,,,,,,,,,,,2,,,,,,,,,,Task,25,(10/5) - 2,0,,,,,,,,,,,,,,,,,,,0,,,,,,,,,,,,,,,,,,,,,,,"[""2""]",0,[1.957199999928548],0,0,0,24,1,,,,,,,,,,,,,,,,,,
,,,,,,,,,5f957181be463b3d6a83a84a,21,Mężczyzna,2022-06-04_08h37.08.743,task,2021.1.4,Win32,59.672992,628b806c463b948bc644b84f,629afd0c5bce29c44bada6ea,,,,,,,,,,,,,,,,,,,,,,,,2,,,,,,,,,,Task,19,(6/2) - 1,2,,,,,,,,,,,,,,,,,,,1,,,,,,,,,,,,,,,,,,,,,,,"[""2""]",1,[2.06379999995238],0,1,1,18,1,,,,,,,,,,,,,,,,,,
,,,,,,,,,5f957181be463b3d6a83a84a,21,Mężczyzna,2022-06-04_08h37.08.743,task,2021.1.4,Win32,59.672992,628b806c463b948bc644b84f,629afd0c5bce29c44bada6ea,,,,,,,,,,,X V Q F H G B L J M P D K C T S W R N Z,,,,,,,,,,,,,,,,,,,,,,,,,,,,,,,,,,,,,,,,,,,,,,,,,,,,,,,,,,,,,,,,,,,,,,,,,,,,3,0,3,0,1,,,,,,,,,,,,,
,,,,,,,,,5f957181be463b3d6a83a84a,21,Mężczyzna,2022-06-04_08h37.08.743,task,2021.1.4,Win32,59.672992,628b806c463b948bc644b84f,629afd0c5bce29c44bada6ea,,,,,,,,,,,,,,,,,,,,,,,,4,,,,,,,,,,Task,21,(10/2) - 1,4,,,,,,,,,,,,,,,,,,,1,,,,,,,,,,,,,,,,,,,,,,,"[""4""]",1,[2.277100000023893],0,0,0,20,1,,,,,,,,,,,,,,,,,,
,,,,,,,,,5f957181be463b3d6a83a84a,21,Mężczyzna,2022-06-04_08h37.08.743,task,2021.1.4,Win32,59.672992,628b806c463b948bc644b84f,629afd0c5bce29c44bada6ea,,,,,,,,,,,X V Q F H G B L J M P D K C T S W R N Z,,,,,,,,,,,,,,,,,,,,,,,,,,,,,,,,,,,,,,,,,,,,,,,,,,,,,,,,,,,,,,,,,,,,,,,,,,,,4,0,4,0,1,,,,,,,,,,,,,
,,,,,,,,,5f957181be463b3d6a83a84a,21,Mężczyzna,2022-06-04_08h37.08.743,task,2021.1.4,Win32,59.672992,628b806c463b948bc644b84f,629afd0c5bce29c44bada6ea,,,,,,,,,,,,,,,,,,,,,,,,2,,,,,,,,,,Task,26,(2x9) - 16,2,,,,,,,,,,,,,,,,,,,1,,,,,,,,,,,,,,,,,,,,,,,"[""2""]",1,[2.021199999928399],0,0,0,25,1,,,,,,,,,,,,,,,,,,
,,,,,,,,,5f957181be463b3d6a83a84a,21,Mężczyzna,2022-06-04_08h37.08.743,task,2021.1.4,Win32,59.672992,628b806c463b948bc644b84f,629afd0c5bce29c44bada6ea,,,,,,,,,,,X V Q F H G B L J M P D K C T S W R N Z,,,,,,,,,,,,,,,,,,,,,,,,,,,,,,,,,,,,,,,,,,,,,,,,,,,,,,,,,,,,,,,,,,,,,,,,,,,,5,0,5,0,1,,,,,,,,,,,,,
,,,,,,,,,5f957181be463b3d6a83a84a,21,Mężczyzna,2022-06-04_08h37.08.743,task,2021.1.4,Win32,59.672992,628b806c463b948bc644b84f,629afd0c5bce29c44bada6ea,,,,,,,,,,,,,,,,,,,,,,,,,,,,,,,,,,,,,,,,,,,,,,,,,,,,,,,,,,,,,,,,,,,,,,,,,,,,,,,,,,,,,,,,,,,,njwjf,"[""n"",""j"",""w"",""j"",""f""]",0,"[1.9240999999045698,4.236799999952268,9.116399999976124,14.016599999904543,14.205999999999904,14.900599999904557]",0,NLJFWF,4,0,4,0,1,,
,,,,,,,,,5f957181be463b3d6a83a84a,21,Mężczyzna,2022-06-04_08h37.08.743,task,2021.1.4,Win32,59.672992,628b806c463b948bc644b84f,629afd0c5bce29c44bada6ea,,,,,,,,,,,,,,,,,,,,,,,,,,,,,,,,,,Task,39,(5x3) - 7,8,,,,,,,,,,,,,,,,,,,0,,,,,,,,,,,,,,,,,,,,,,,,0,,0,0,0,38,1,,,,,,,,,,,,,,,,,,
,,,,,,,,,5f957181be463b3d6a83a84a,21,Mężczyzna,2022-06-04_08h37.08.743,task,2021.1.4,Win32,59.672992,628b806c463b948bc644b84f,629afd0c5bce29c44bada6ea,,,,,,,,,,,,,,,,,,,,,,,,5,,,,,,,,,,Task,36,(8/4) + 3,5,,,,,,,,,,,,,,,,,,,1,,,,,,,,,,,,,,,,,,,,,,,"[""5""]",1,[2.5058999999761227],0,1,1,35,1,,,,,,,,,,,,,,,,,,
,,,,,,,,,5f957181be463b3d6a83a84a,21,Mężczyzna,2022-06-04_08h37.08.743,task,2021.1.4,Win32,59.672992,628b806c463b948bc644b84f,629afd0c5bce29c44bada6ea,,,,,,,,,,,X V Q F H G B L J M P D K C T S W R N Z,,,,,,,,,,,,,,,,,,,,,,,,,,,,,,,,,,,,,,,,,,,,,,,,,,,,,,,,,,,,,,,,,,,,,,,,,,,,0,0,0,0,1,,,,,,,,,,,,,
,,,,,,,,,5f957181be463b3d6a83a84a,21,Mężczyzna,2022-06-04_08h37.08.743,task,2021.1.4,Win32,59.672992,628b806c463b948bc644b84f,629afd0c5bce29c44bada6ea,,,,,,,,,,,,,,,,,,,,,,,,1,,,,,,,,,,Task,9,(3x7) - 20,1,,,,,,,,,,,,,,,,,,,1,,,,,,,,,,,,,,,,,,,,,,,"[""1""]",1,[1.9666000000238455],0,0,0,8,1,,,,,,,,,,,,,,,,,,
,,,,,,,,,5f957181be463b3d6a83a84a,21,Mężczyzna,2022-06-04_08h37.08.743,task,2021.1.4,Win32,59.672992,628b806c463b948bc644b84f,629afd0c5bce29c44bada6ea,,,,,,,,,,,X V Q F H G B L J M P D K C T S W R N Z,,,,,,,,,,,,,,,,,,,,,,,,,,,,,,,,,,,,,,,,,,,,,,,,,,,,,,,,,,,,,,,,,,,,,,,,,,,,1,0,1,0,1,,,,,,,,,,,,,
,,,,,,,,,5f957181be463b3d6a83a84a,21,Mężczyzna,2022-06-04_08h37.08.743,task,2021.1.4,Win32,59.672992,628b806c463b948bc644b84f,629afd0c5bce29c44bada6ea,,,,,,,,,,,,,,,,,,,,,,,,4,,,,,,,,,,Task,28,(2x5) - 6,4,,,,,,,,,,,,,,,,,,,1,,,,,,,,,,,,,,,,,,,,,,,"[""4""]",1,[1.690700000047741],0,0,0,27,1,,,,,,,,,,,,,,,,,,
,,,,,,,,,5f957181be463b3d6a83a84a,21,Mężczyzna,2022-06-04_08h37.08.743,task,2021.1.4,Win32,59.672992,628b806c463b948bc644b84f,629afd0c5bce29c44bada6ea,,,,,,,,,,,X V Q F H G B L J M P D K C T S W R N Z,,,,,,,,,,,,,,,,,,,,,,,,,,,,,,,,,,,,,,,,,,,,,,,,,,,,,,,,,,,,,,,,,,,,,,,,,,,,2,0,2,0,1,,,,,,,,,,,,,
,,,,,,,,,5f957181be463b3d6a83a84a,21,Mężczyzna,2022-06-04_08h37.08.743,task,2021.1.4,Win32,59.672992,628b806c463b948bc644b84f,629afd0c5bce29c44bada6ea,,,,,,,,,,,,,,,,,,,,,,,,7,,,,,,,,,,Task,6,(12/2) + 1,7,,,,,,,,,,,,,,,,,,,1,,,,,,,,,,,,,,,,,,,,,,,"[""7""]",1,[2.18879999995238],0,0,0,5,1,,,,,,,,,,,,,,,,,,
,,,,,,,,,5f957181be463b3d6a83a84a,21,Mężczyzna,2022-06-04_08h37.08.743,task,2021.1.4,Win32,59.672992,628b806c463b948bc644b84f,629afd0c5bce29c44bada6ea,,,,,,,,,,,X V Q F H G B L J M P D K C T S W R N Z,,,,,,,,,,,,,,,,,,,,,,,,,,,,,,,,,,,,,,,,,,,,,,,,,,,,,,,,,,,,,,,,,,,,,,,,,,,,3,0,3,0,1,,,,,,,,,,,,,
,,,,,,,,,5f957181be463b3d6a83a84a,21,Mężczyzna,2022-06-04_08h37.08.743,task,2021.1.4,Win32,59.672992,628b806c463b948bc644b84f,629afd0c5bce29c44bada6ea,,,,,,,,,,,,,,,,,,,,,,,,8,,,,,,,,,,Task,23,(2x3) + 2,8,,,,,,,,,,,,,,,,,,,1,,,,,,,,,,,,,,,,,,,,,,,"[""8""]",1,[3.312100000023861],0,0,0,22,1,,,,,,,,,,,,,,,,,,
,,,,,,,,,5f957181be463b3d6a83a84a,21,Mężczyzna,2022-06-04_08h37.08.743,task,2021.1.4,Win32,59.672992,628b806c463b948bc644b84f,629afd0c5bce29c44bada6ea,,,,,,,,,,,X V Q F H G B L J M P D K C T S W R N Z,,,,,,,,,,,,,,,,,,,,,,,,,,,,,,,,,,,,,,,,,,,,,,,,,,,,,,,,,,,,,,,,,,,,,,,,,,,,4,0,4,0,1,,,,,,,,,,,,,
,,,,,,,,,5f957181be463b3d6a83a84a,21,Mężczyzna,2022-06-04_08h37.08.743,task,2021.1.4,Win32,59.672992,628b806c463b948bc644b84f,629afd0c5bce29c44bada6ea,,,,,,,,,,,,,,,,,,,,,,,,8,,,,,,,,,,Task,15,(3x7) - 13,8,,,,,,,,,,,,,,,,,,,1,,,,,,,,,,,,,,,,,,,,,,,"[""8""]",1,[4.395599999904675],0,0,0,14,1,,,,,,,,,,,,,,,,,,
,,,,,,,,,5f957181be463b3d6a83a84a,21,Mężczyzna,2022-06-04_08h37.08.743,task,2021.1.4,Win32,59.672992,628b806c463b948bc644b84f,629afd0c5bce29c44bada6ea,,,,,,,,,,,X V Q F H G B L J M P D K C T S W R N Z,,,,,,,,,,,,,,,,,,,,,,,,,,,,,,,,,,,,,,,,,,,,,,,,,,,,,,,,,,,,,,,,,,,,,,,,,,,,5,0,5,0,1,,,,,,,,,,,,,
,,,,,,,,,5f957181be463b3d6a83a84a,21,Mężczyzna,2022-06-04_08h37.08.743,task,2021.1.4,Win32,59.672992,628b806c463b948bc644b84f,629afd0c5bce29c44bada6ea,,,,,,,,,,,,,,,,,,,,,,,,,,,,,,,,,,,,,,,,,,,,,,,,,,,,,,,,,,,,,,,,,,,,,,,,,,,,,,,,,,,,,,,,,,,,bgnwzt,"[""b"",""g"",""n"",""w"",""z"",""t""]",0,"[2.3737999999522117,2.7962999999522253,3.14810000002376,3.652799999952208,4.301899999976058,4.72589999997615,5.286299999952234]",0,BNGWZT,5,0,5,0,1,,
,,,,,,,,,5f957181be463b3d6a83a84a,21,Mężczyzna,2022-06-04_08h37.08.743,task,2021.1.4,Win32,59.672992,628b806c463b948bc644b84f,629afd0c5bce29c44bada6ea,,,,,,,,,,,,,,,,,,,,,,,,,,,,,,,,,,,,,,,,,,,,,,,,,,,,,,,,,,,,,,,,,,,,,,,,,,,,,,,,,,,,,,,,,,,,,,,,,,,,,,,space,1.7566
