key_resp_15.keys,key_resp_15.rt,key_resp_16.keys,key_resp_16.rt,key_resp_4.keys,key_resp_4.rt,next_letter.thisRepN,next_letter.thisTrialN,next_letter.thisN,next_letter.thisIndex,next_letter.ran,letter,participant,Wiek*,Płeć,date,expName,psychopyVersion,OS,frameRate,study_id,session,simple_recall,key_resp_5.keys,key_resp_5.rt,simple_recall_corr,simple_recall_corrkeys,next_level.thisRepN,next_level.thisTrialN,next_level.thisN,next_level.thisIndex,next_level.ran,key_resp_2.keys,key_resp_2.rt,digit_answer,key_resp.keys,key_resp.corr,key_resp.rt,RT_list,next_equation.thisRepN,next_equation.thisTrialN,next_equation.thisN,next_equation.thisIndex,next_equation.ran,Task,Trial,Problem,Operation_answer,processing_score,sumRT,meanRT,sumdiff,sd,RT,key_resp_3.keys,key_resp_3.rt,repeat_practice.thisRepN,repeat_practice.thisTrialN,repeat_practice.thisN,repeat_practice.thisIndex,repeat_practice.ran,key_resp_6.keys,key_resp_6.rt,key_resp_11.keys,key_resp_11.corr,key_resp_11.rt,operation_correct,repeat_if_wrong_prac.thisRepN,repeat_if_wrong_prac.thisTrialN,repeat_if_wrong_prac.thisN,repeat_if_wrong_prac.thisIndex,repeat_if_wrong_prac.ran,span_size_prac.thisRepN,span_size_prac.thisTrialN,span_size_prac.thisN,span_size_prac.thisIndex,span_size_prac.ran,complex_recall_practice,key_resp_9.keys,key_resp_9.corr,key_resp_9.rt,complex_prac_corr,span_recall_prac.thisRepN,span_recall_prac.thisTrialN,span_recall_prac.thisN,span_recall_prac.thisIndex,span_recall_prac.ran,key_resp_10.keys,key_resp_10.rt,key_resp_7.keys,key_resp_7.corr,key_resp_7.rt,repeat_if_wrong.thisRepN,repeat_if_wrong.thisTrialN,repeat_if_wrong.thisN,repeat_if_wrong.thisIndex,repeat_if_wrong.ran,span_size.thisRepN,span_size.thisTrialN,span_size.thisN,span_size.thisIndex,span_size.ran,complex_recall,key_resp_8.keys,key_resp_8.corr,key_resp_8.rt,complex_recall_corr,complex_recall_corrkeys,span_recall.thisRepN,span_recall.thisTrialN,span_recall.thisN,span_recall.thisIndex,span_recall.ran,key_resp_13.keys,key_resp_13.corr,key_resp_13.rt,random_loop.thisRepN,random_loop.thisTrialN,random_loop.thisN,random_loop.thisIndex,random_loop.ran,key_resp_12.keys,key_resp_12.rt
space,30.3546,space,30.9388,space,7.9808,0,0,0,0,1,X V Q F H G B L J M P D K C T S W R N Z,5f966b181caf595331d1685e,45,Mężczyzna,2022-06-11_09h25.06.494,task,2021.1.4,MacIntel,60.04202942,6299f149e92ead563fba08ef,62a44328412e284fb5dcb2db,,,,,,,,,,,,,,,,,,,,,,,,,,,,,,,,,,,,,,,,,,,,,,,,,,,,,,,,,,,,,,,,,,,,,,,,,,,,,,,,,,,,,,,,,,,,,,,,,,,,,
,,,,,,1,0,1,0,1,X V Q F H G B L J M P D K C T S W R N Z,5f966b181caf595331d1685e,45,Mężczyzna,2022-06-11_09h25.06.494,task,2021.1.4,MacIntel,60.04202942,6299f149e92ead563fba08ef,62a44328412e284fb5dcb2db,,,,,,,,,,,,,,,,,,,,,,,,,,,,,,,,,,,,,,,,,,,,,,,,,,,,,,,,,,,,,,,,,,,,,,,,,,,,,,,,,,,,,,,,,,,,,,,,,,,,,
,,,,,,,,,,,,5f966b181caf595331d1685e,45,Mężczyzna,2022-06-11_09h25.06.494,task,2021.1.4,MacIntel,60.04202942,6299f149e92ead563fba08ef,62a44328412e284fb5dcb2db,zx,"[""z"",""x""]","[2.5034999999999883,2.9107999999970104,5.586200000002975]",1,ZX,0,0,0,0,1,,,,,,,,,,,,,,,,,,,,,,,,,,,,,,,,,,,,,,,,,,,,,,,,,,,,,,,,,,,,,,,,,,,,,,,,,,,,,,,,,,,,,,,,,,,
,,,,,,0,0,0,0,1,X V Q F H G B L J M P D K C T S W R N Z,5f966b181caf595331d1685e,45,Mężczyzna,2022-06-11_09h25.06.494,task,2021.1.4,MacIntel,60.04202942,6299f149e92ead563fba08ef,62a44328412e284fb5dcb2db,,,,,,,,,,,,,,,,,,,,,,,,,,,,,,,,,,,,,,,,,,,,,,,,,,,,,,,,,,,,,,,,,,,,,,,,,,,,,,,,,,,,,,,,,,,,,,,,,,,,,
,,,,,,1,0,1,0,1,X V Q F H G B L J M P D K C T S W R N Z,5f966b181caf595331d1685e,45,Mężczyzna,2022-06-11_09h25.06.494,task,2021.1.4,MacIntel,60.04202942,6299f149e92ead563fba08ef,62a44328412e284fb5dcb2db,,,,,,,,,,,,,,,,,,,,,,,,,,,,,,,,,,,,,,,,,,,,,,,,,,,,,,,,,,,,,,,,,,,,,,,,,,,,,,,,,,,,,,,,,,,,,,,,,,,,,
,,,,,,,,,,,,5f966b181caf595331d1685e,45,Mężczyzna,2022-06-11_09h25.06.494,task,2021.1.4,MacIntel,60.04202942,6299f149e92ead563fba08ef,62a44328412e284fb5dcb2db,cp,"[""c"",""p""]","[1.394999999999996,1.6672000000029783,2.3678000000119255]",1,CP,1,0,1,0,1,,,,,,,,,,,,,,,,,,,,,,,,,,,,,,,,,,,,,,,,,,,,,,,,,,,,,,,,,,,,,,,,,,,,,,,,,,,,,,,,,,,,,,,,,,,
,,,,,,0,0,0,0,1,X V Q F H G B L J M P D K C T S W R N Z,5f966b181caf595331d1685e,45,Mężczyzna,2022-06-11_09h25.06.494,task,2021.1.4,MacIntel,60.04202942,6299f149e92ead563fba08ef,62a44328412e284fb5dcb2db,,,,,,,,,,,,,,,,,,,,,,,,,,,,,,,,,,,,,,,,,,,,,,,,,,,,,,,,,,,,,,,,,,,,,,,,,,,,,,,,,,,,,,,,,,,,,,,,,,,,,
,,,,,,1,0,1,0,1,X V Q F H G B L J M P D K C T S W R N Z,5f966b181caf595331d1685e,45,Mężczyzna,2022-06-11_09h25.06.494,task,2021.1.4,MacIntel,60.04202942,6299f149e92ead563fba08ef,62a44328412e284fb5dcb2db,,,,,,,,,,,,,,,,,,,,,,,,,,,,,,,,,,,,,,,,,,,,,,,,,,,,,,,,,,,,,,,,,,,,,,,,,,,,,,,,,,,,,,,,,,,,,,,,,,,,,
,,,,,,2,0,2,0,1,X V Q F H G B L J M P D K C T S W R N Z,5f966b181caf595331d1685e,45,Mężczyzna,2022-06-11_09h25.06.494,task,2021.1.4,MacIntel,60.04202942,6299f149e92ead563fba08ef,62a44328412e284fb5dcb2db,,,,,,,,,,,,,,,,,,,,,,,,,,,,,,,,,,,,,,,,,,,,,,,,,,,,,,,,,,,,,,,,,,,,,,,,,,,,,,,,,,,,,,,,,,,,,,,,,,,,,
,,,,,,,,,,,,5f966b181caf595331d1685e,45,Mężczyzna,2022-06-11_09h25.06.494,task,2021.1.4,MacIntel,60.04202942,6299f149e92ead563fba08ef,62a44328412e284fb5dcb2db,cpn,"[""c"",""p"",""n""]","[1.0775000000000006,1.4294999999999902,1.8628999999910576,2.3828999999910536]",1,CPN,2,0,2,0,1,,,,,,,,,,,,,,,,,,,,,,,,,,,,,,,,,,,,,,,,,,,,,,,,,,,,,,,,,,,,,,,,,,,,,,,,,,,,,,,,,,,,,,,,,,,
,,,,,,0,0,0,0,1,X V Q F H G B L J M P D K C T S W R N Z,5f966b181caf595331d1685e,45,Mężczyzna,2022-06-11_09h25.06.494,task,2021.1.4,MacIntel,60.04202942,6299f149e92ead563fba08ef,62a44328412e284fb5dcb2db,,,,,,,,,,,,,,,,,,,,,,,,,,,,,,,,,,,,,,,,,,,,,,,,,,,,,,,,,,,,,,,,,,,,,,,,,,,,,,,,,,,,,,,,,,,,,,,,,,,,,
,,,,,,1,0,1,0,1,X V Q F H G B L J M P D K C T S W R N Z,5f966b181caf595331d1685e,45,Mężczyzna,2022-06-11_09h25.06.494,task,2021.1.4,MacIntel,60.04202942,6299f149e92ead563fba08ef,62a44328412e284fb5dcb2db,,,,,,,,,,,,,,,,,,,,,,,,,,,,,,,,,,,,,,,,,,,,,,,,,,,,,,,,,,,,,,,,,,,,,,,,,,,,,,,,,,,,,,,,,,,,,,,,,,,,,
,,,,,,2,0,2,0,1,X V Q F H G B L J M P D K C T S W R N Z,5f966b181caf595331d1685e,45,Mężczyzna,2022-06-11_09h25.06.494,task,2021.1.4,MacIntel,60.04202942,6299f149e92ead563fba08ef,62a44328412e284fb5dcb2db,,,,,,,,,,,,,,,,,,,,,,,,,,,,,,,,,,,,,,,,,,,,,,,,,,,,,,,,,,,,,,,,,,,,,,,,,,,,,,,,,,,,,,,,,,,,,,,,,,,,,
,,,,,,,,,,,,5f966b181caf595331d1685e,45,Mężczyzna,2022-06-11_09h25.06.494,task,2021.1.4,MacIntel,60.04202942,6299f149e92ead563fba08ef,62a44328412e284fb5dcb2db,fhc,"[""f"",""h"",""c""]","[1.4654000000059568,1.79940000000596,2.066400000005956,2.9239000000059576]",1,FHC,3,0,3,0,1,,,,,,,,,,,,,,,,,,,,,,,,,,,,,,,,,,,,,,,,,,,,,,,,,,,,,,,,,,,,,,,,,,,,,,,,,,,,,,,,,,,,,,,,,,,
,,,,,,0,0,0,0,1,X V Q F H G B L J M P D K C T S W R N Z,5f966b181caf595331d1685e,45,Mężczyzna,2022-06-11_09h25.06.494,task,2021.1.4,MacIntel,60.04202942,6299f149e92ead563fba08ef,62a44328412e284fb5dcb2db,,,,,,,,,,,,,,,,,,,,,,,,,,,,,,,,,,,,,,,,,,,,,,,,,,,,,,,,,,,,,,,,,,,,,,,,,,,,,,,,,,,,,,,,,,,,,,,,,,,,,
,,,,,,1,0,1,0,1,X V Q F H G B L J M P D K C T S W R N Z,5f966b181caf595331d1685e,45,Mężczyzna,2022-06-11_09h25.06.494,task,2021.1.4,MacIntel,60.04202942,6299f149e92ead563fba08ef,62a44328412e284fb5dcb2db,,,,,,,,,,,,,,,,,,,,,,,,,,,,,,,,,,,,,,,,,,,,,,,,,,,,,,,,,,,,,,,,,,,,,,,,,,,,,,,,,,,,,,,,,,,,,,,,,,,,,
,,,,,,2,0,2,0,1,X V Q F H G B L J M P D K C T S W R N Z,5f966b181caf595331d1685e,45,Mężczyzna,2022-06-11_09h25.06.494,task,2021.1.4,MacIntel,60.04202942,6299f149e92ead563fba08ef,62a44328412e284fb5dcb2db,,,,,,,,,,,,,,,,,,,,,,,,,,,,,,,,,,,,,,,,,,,,,,,,,,,,,,,,,,,,,,,,,,,,,,,,,,,,,,,,,,,,,,,,,,,,,,,,,,,,,
,,,,,,3,0,3,0,1,X V Q F H G B L J M P D K C T S W R N Z,5f966b181caf595331d1685e,45,Mężczyzna,2022-06-11_09h25.06.494,task,2021.1.4,MacIntel,60.04202942,6299f149e92ead563fba08ef,62a44328412e284fb5dcb2db,,,,,,,,,,,,,,,,,,,,,,,,,,,,,,,,,,,,,,,,,,,,,,,,,,,,,,,,,,,,,,,,,,,,,,,,,,,,,,,,,,,,,,,,,,,,,,,,,,,,,
,,,,,,,,,,,,5f966b181caf595331d1685e,45,Mężczyzna,2022-06-11_09h25.06.494,task,2021.1.4,MacIntel,60.04202942,6299f149e92ead563fba08ef,62a44328412e284fb5dcb2db,ztnr,"[""z"",""t"",""n"",""r""]","[0.5482000000029643,1.0309999999999633,1.563900000005944,1.962499999999963,2.79820000000295]",1,ZTNR,4,0,4,0,1,,,,,,,,,,,,,,,,,,,,,,,,,,,,,,,,,,,,,,,,,,,,,,,,,,,,,,,,,,,,,,,,,,,,,,,,,,,,,,,,,,,,,,,,,,,
,,,,,,0,0,0,0,1,X V Q F H G B L J M P D K C T S W R N Z,5f966b181caf595331d1685e,45,Mężczyzna,2022-06-11_09h25.06.494,task,2021.1.4,MacIntel,60.04202942,6299f149e92ead563fba08ef,62a44328412e284fb5dcb2db,,,,,,,,,,,,,,,,,,,,,,,,,,,,,,,,,,,,,,,,,,,,,,,,,,,,,,,,,,,,,,,,,,,,,,,,,,,,,,,,,,,,,,,,,,,,,,,,,,,,,
,,,,,,1,0,1,0,1,X V Q F H G B L J M P D K C T S W R N Z,5f966b181caf595331d1685e,45,Mężczyzna,2022-06-11_09h25.06.494,task,2021.1.4,MacIntel,60.04202942,6299f149e92ead563fba08ef,62a44328412e284fb5dcb2db,,,,,,,,,,,,,,,,,,,,,,,,,,,,,,,,,,,,,,,,,,,,,,,,,,,,,,,,,,,,,,,,,,,,,,,,,,,,,,,,,,,,,,,,,,,,,,,,,,,,,
,,,,,,2,0,2,0,1,X V Q F H G B L J M P D K C T S W R N Z,5f966b181caf595331d1685e,45,Mężczyzna,2022-06-11_09h25.06.494,task,2021.1.4,MacIntel,60.04202942,6299f149e92ead563fba08ef,62a44328412e284fb5dcb2db,,,,,,,,,,,,,,,,,,,,,,,,,,,,,,,,,,,,,,,,,,,,,,,,,,,,,,,,,,,,,,,,,,,,,,,,,,,,,,,,,,,,,,,,,,,,,,,,,,,,,
,,,,,,3,0,3,0,1,X V Q F H G B L J M P D K C T S W R N Z,5f966b181caf595331d1685e,45,Mężczyzna,2022-06-11_09h25.06.494,task,2021.1.4,MacIntel,60.04202942,6299f149e92ead563fba08ef,62a44328412e284fb5dcb2db,,,,,,,,,,,,,,,,,,,,,,,,,,,,,,,,,,,,,,,,,,,,,,,,,,,,,,,,,,,,,,,,,,,,,,,,,,,,,,,,,,,,,,,,,,,,,,,,,,,,,
,,,,,,,,,,,,5f966b181caf595331d1685e,45,Mężczyzna,2022-06-11_09h25.06.494,task,2021.1.4,MacIntel,60.04202942,6299f149e92ead563fba08ef,62a44328412e284fb5dcb2db,jkvv,"[""j"",""k"",""v"",""v""]","[1.4032999999970173,1.7117000000029634,2.4253999999910434,2.6467999999970004,3.4247999999970204]",1,JKVV,5,0,5,0,1,,,,,,,,,,,,,,,,,,,,,,,,,,,,,,,,,,,,,,,,,,,,,,,,,,,,,,,,,,,,,,,,,,,,,,,,,,,,,,,,,,,,,,,,,,,
,,,,,,0,0,0,0,1,X V Q F H G B L J M P D K C T S W R N Z,5f966b181caf595331d1685e,45,Mężczyzna,2022-06-11_09h25.06.494,task,2021.1.4,MacIntel,60.04202942,6299f149e92ead563fba08ef,62a44328412e284fb5dcb2db,,,,,,,,,,,,,,,,,,,,,,,,,,,,,,,,,,,,,,,,,,,,,,,,,,,,,,,,,,,,,,,,,,,,,,,,,,,,,,,,,,,,,,,,,,,,,,,,,,,,,
,,,,,,1,0,1,0,1,X V Q F H G B L J M P D K C T S W R N Z,5f966b181caf595331d1685e,45,Mężczyzna,2022-06-11_09h25.06.494,task,2021.1.4,MacIntel,60.04202942,6299f149e92ead563fba08ef,62a44328412e284fb5dcb2db,,,,,,,,,,,,,,,,,,,,,,,,,,,,,,,,,,,,,,,,,,,,,,,,,,,,,,,,,,,,,,,,,,,,,,,,,,,,,,,,,,,,,,,,,,,,,,,,,,,,,
,,,,,,2,0,2,0,1,X V Q F H G B L J M P D K C T S W R N Z,5f966b181caf595331d1685e,45,Mężczyzna,2022-06-11_09h25.06.494,task,2021.1.4,MacIntel,60.04202942,6299f149e92ead563fba08ef,62a44328412e284fb5dcb2db,,,,,,,,,,,,,,,,,,,,,,,,,,,,,,,,,,,,,,,,,,,,,,,,,,,,,,,,,,,,,,,,,,,,,,,,,,,,,,,,,,,,,,,,,,,,,,,,,,,,,
,,,,,,3,0,3,0,1,X V Q F H G B L J M P D K C T S W R N Z,5f966b181caf595331d1685e,45,Mężczyzna,2022-06-11_09h25.06.494,task,2021.1.4,MacIntel,60.04202942,6299f149e92ead563fba08ef,62a44328412e284fb5dcb2db,,,,,,,,,,,,,,,,,,,,,,,,,,,,,,,,,,,,,,,,,,,,,,,,,,,,,,,,,,,,,,,,,,,,,,,,,,,,,,,,,,,,,,,,,,,,,,,,,,,,,
,,,,,,4,0,4,0,1,X V Q F H G B L J M P D K C T S W R N Z,5f966b181caf595331d1685e,45,Mężczyzna,2022-06-11_09h25.06.494,task,2021.1.4,MacIntel,60.04202942,6299f149e92ead563fba08ef,62a44328412e284fb5dcb2db,,,,,,,,,,,,,,,,,,,,,,,,,,,,,,,,,,,,,,,,,,,,,,,,,,,,,,,,,,,,,,,,,,,,,,,,,,,,,,,,,,,,,,,,,,,,,,,,,,,,,
,,,,,,,,,,,,5f966b181caf595331d1685e,45,Mężczyzna,2022-06-11_09h25.06.494,task,2021.1.4,MacIntel,60.04202942,6299f149e92ead563fba08ef,62a44328412e284fb5dcb2db,fbfbt,"[""f"",""b"",""f"",""b"",""t""]","[1.4509000000059586,1.979200000002976,2.460800000011915,2.7860000000000014,3.112700000002974,4.7620000000000005]",1,FBFBT,6,0,6,0,1,,,,,,,,,,,,,,,,,,,,,,,,,,,,,,,,,,,,,,,,,,,,,,,,,,,,,,,,,,,,,,,,,,,,,,,,,,,,,,,,,,,,,,,,,,,
,,,,,,0,0,0,0,1,X V Q F H G B L J M P D K C T S W R N Z,5f966b181caf595331d1685e,45,Mężczyzna,2022-06-11_09h25.06.494,task,2021.1.4,MacIntel,60.04202942,6299f149e92ead563fba08ef,62a44328412e284fb5dcb2db,,,,,,,,,,,,,,,,,,,,,,,,,,,,,,,,,,,,,,,,,,,,,,,,,,,,,,,,,,,,,,,,,,,,,,,,,,,,,,,,,,,,,,,,,,,,,,,,,,,,,
,,,,,,1,0,1,0,1,X V Q F H G B L J M P D K C T S W R N Z,5f966b181caf595331d1685e,45,Mężczyzna,2022-06-11_09h25.06.494,task,2021.1.4,MacIntel,60.04202942,6299f149e92ead563fba08ef,62a44328412e284fb5dcb2db,,,,,,,,,,,,,,,,,,,,,,,,,,,,,,,,,,,,,,,,,,,,,,,,,,,,,,,,,,,,,,,,,,,,,,,,,,,,,,,,,,,,,,,,,,,,,,,,,,,,,
,,,,,,2,0,2,0,1,X V Q F H G B L J M P D K C T S W R N Z,5f966b181caf595331d1685e,45,Mężczyzna,2022-06-11_09h25.06.494,task,2021.1.4,MacIntel,60.04202942,6299f149e92ead563fba08ef,62a44328412e284fb5dcb2db,,,,,,,,,,,,,,,,,,,,,,,,,,,,,,,,,,,,,,,,,,,,,,,,,,,,,,,,,,,,,,,,,,,,,,,,,,,,,,,,,,,,,,,,,,,,,,,,,,,,,
,,,,,,3,0,3,0,1,X V Q F H G B L J M P D K C T S W R N Z,5f966b181caf595331d1685e,45,Mężczyzna,2022-06-11_09h25.06.494,task,2021.1.4,MacIntel,60.04202942,6299f149e92ead563fba08ef,62a44328412e284fb5dcb2db,,,,,,,,,,,,,,,,,,,,,,,,,,,,,,,,,,,,,,,,,,,,,,,,,,,,,,,,,,,,,,,,,,,,,,,,,,,,,,,,,,,,,,,,,,,,,,,,,,,,,
,,,,,,4,0,4,0,1,X V Q F H G B L J M P D K C T S W R N Z,5f966b181caf595331d1685e,45,Mężczyzna,2022-06-11_09h25.06.494,task,2021.1.4,MacIntel,60.04202942,6299f149e92ead563fba08ef,62a44328412e284fb5dcb2db,,,,,,,,,,,,,,,,,,,,,,,,,,,,,,,,,,,,,,,,,,,,,,,,,,,,,,,,,,,,,,,,,,,,,,,,,,,,,,,,,,,,,,,,,,,,,,,,,,,,,
,,,,,,,,,,,,5f966b181caf595331d1685e,45,Mężczyzna,2022-06-11_09h25.06.494,task,2021.1.4,MacIntel,60.04202942,6299f149e92ead563fba08ef,62a44328412e284fb5dcb2db,lkvtf,"[""l"",""k"",""v"",""t"",""f""]","[1.3977999999970336,2.0965000000000202,3.359700000002988,6.3747999999970375,6.715200000002994,9.222200000003]",0,LVKVF,7,0,7,0,1,,,,,,,,,,,,,,,,,,,,,,,,,,,,,,,,,,,,,,,,,,,,,,,,,,,,,,,,,,,,,,,,,,,,,,,,,,,,,,,,,,,,,,,,,,,
,,,,,,0,0,0,0,1,X V Q F H G B L J M P D K C T S W R N Z,5f966b181caf595331d1685e,45,Mężczyzna,2022-06-11_09h25.06.494,task,2021.1.4,MacIntel,60.04202942,6299f149e92ead563fba08ef,62a44328412e284fb5dcb2db,,,,,,,,,,,,,,,,,,,,,,,,,,,,,,,,,,,,,,,,,,,,,,,,,,,,,,,,,,,,,,,,,,,,,,,,,,,,,,,,,,,,,,,,,,,,,,,,,,,,,
,,,,,,1,0,1,0,1,X V Q F H G B L J M P D K C T S W R N Z,5f966b181caf595331d1685e,45,Mężczyzna,2022-06-11_09h25.06.494,task,2021.1.4,MacIntel,60.04202942,6299f149e92ead563fba08ef,62a44328412e284fb5dcb2db,,,,,,,,,,,,,,,,,,,,,,,,,,,,,,,,,,,,,,,,,,,,,,,,,,,,,,,,,,,,,,,,,,,,,,,,,,,,,,,,,,,,,,,,,,,,,,,,,,,,,
,,,,,,2,0,2,0,1,X V Q F H G B L J M P D K C T S W R N Z,5f966b181caf595331d1685e,45,Mężczyzna,2022-06-11_09h25.06.494,task,2021.1.4,MacIntel,60.04202942,6299f149e92ead563fba08ef,62a44328412e284fb5dcb2db,,,,,,,,,,,,,,,,,,,,,,,,,,,,,,,,,,,,,,,,,,,,,,,,,,,,,,,,,,,,,,,,,,,,,,,,,,,,,,,,,,,,,,,,,,,,,,,,,,,,,
,,,,,,3,0,3,0,1,X V Q F H G B L J M P D K C T S W R N Z,5f966b181caf595331d1685e,45,Mężczyzna,2022-06-11_09h25.06.494,task,2021.1.4,MacIntel,60.04202942,6299f149e92ead563fba08ef,62a44328412e284fb5dcb2db,,,,,,,,,,,,,,,,,,,,,,,,,,,,,,,,,,,,,,,,,,,,,,,,,,,,,,,,,,,,,,,,,,,,,,,,,,,,,,,,,,,,,,,,,,,,,,,,,,,,,
,,,,,,4,0,4,0,1,X V Q F H G B L J M P D K C T S W R N Z,5f966b181caf595331d1685e,45,Mężczyzna,2022-06-11_09h25.06.494,task,2021.1.4,MacIntel,60.04202942,6299f149e92ead563fba08ef,62a44328412e284fb5dcb2db,,,,,,,,,,,,,,,,,,,,,,,,,,,,,,,,,,,,,,,,,,,,,,,,,,,,,,,,,,,,,,,,,,,,,,,,,,,,,,,,,,,,,,,,,,,,,,,,,,,,,
,,,,,,,,,,,,5f966b181caf595331d1685e,45,Mężczyzna,2022-06-11_09h25.06.494,task,2021.1.4,MacIntel,60.04202942,6299f149e92ead563fba08ef,62a44328412e284fb5dcb2db,njlxm,"[""n"",""j"",""l"",""x"",""m""]","[1.3717999999970232,2.2057000000029916,3.000400000005982,3.9457000000030007,4.414100000008943,7.653500000000008]",1,NJLXM,8,0,8,0,1,,,,,,,,,,,,,,,,,,,,,,,,,,,,,,,,,,,,,,,,,,,,,,,,,,,,,,,,,,,,,,,,,,,,,,,,,,,,,,,,,,,,,,,,,,,
,,,,,,0,0,0,0,1,X V Q F H G B L J M P D K C T S W R N Z,5f966b181caf595331d1685e,45,Mężczyzna,2022-06-11_09h25.06.494,task,2021.1.4,MacIntel,60.04202942,6299f149e92ead563fba08ef,62a44328412e284fb5dcb2db,,,,,,,,,,,,,,,,,,,,,,,,,,,,,,,,,,,,,,,,,,,,,,,,,,,,,,,,,,,,,,,,,,,,,,,,,,,,,,,,,,,,,,,,,,,,,,,,,,,,,
,,,,,,1,0,1,0,1,X V Q F H G B L J M P D K C T S W R N Z,5f966b181caf595331d1685e,45,Mężczyzna,2022-06-11_09h25.06.494,task,2021.1.4,MacIntel,60.04202942,6299f149e92ead563fba08ef,62a44328412e284fb5dcb2db,,,,,,,,,,,,,,,,,,,,,,,,,,,,,,,,,,,,,,,,,,,,,,,,,,,,,,,,,,,,,,,,,,,,,,,,,,,,,,,,,,,,,,,,,,,,,,,,,,,,,
,,,,,,2,0,2,0,1,X V Q F H G B L J M P D K C T S W R N Z,5f966b181caf595331d1685e,45,Mężczyzna,2022-06-11_09h25.06.494,task,2021.1.4,MacIntel,60.04202942,6299f149e92ead563fba08ef,62a44328412e284fb5dcb2db,,,,,,,,,,,,,,,,,,,,,,,,,,,,,,,,,,,,,,,,,,,,,,,,,,,,,,,,,,,,,,,,,,,,,,,,,,,,,,,,,,,,,,,,,,,,,,,,,,,,,
,,,,,,3,0,3,0,1,X V Q F H G B L J M P D K C T S W R N Z,5f966b181caf595331d1685e,45,Mężczyzna,2022-06-11_09h25.06.494,task,2021.1.4,MacIntel,60.04202942,6299f149e92ead563fba08ef,62a44328412e284fb5dcb2db,,,,,,,,,,,,,,,,,,,,,,,,,,,,,,,,,,,,,,,,,,,,,,,,,,,,,,,,,,,,,,,,,,,,,,,,,,,,,,,,,,,,,,,,,,,,,,,,,,,,,
,,,,,,4,0,4,0,1,X V Q F H G B L J M P D K C T S W R N Z,5f966b181caf595331d1685e,45,Mężczyzna,2022-06-11_09h25.06.494,task,2021.1.4,MacIntel,60.04202942,6299f149e92ead563fba08ef,62a44328412e284fb5dcb2db,,,,,,,,,,,,,,,,,,,,,,,,,,,,,,,,,,,,,,,,,,,,,,,,,,,,,,,,,,,,,,,,,,,,,,,,,,,,,,,,,,,,,,,,,,,,,,,,,,,,,
,,,,,,5,0,5,0,1,X V Q F H G B L J M P D K C T S W R N Z,5f966b181caf595331d1685e,45,Mężczyzna,2022-06-11_09h25.06.494,task,2021.1.4,MacIntel,60.04202942,6299f149e92ead563fba08ef,62a44328412e284fb5dcb2db,,,,,,,,,,,,,,,,,,,,,,,,,,,,,,,,,,,,,,,,,,,,,,,,,,,,,,,,,,,,,,,,,,,,,,,,,,,,,,,,,,,,,,,,,,,,,,,,,,,,,
,,,,,,,,,,,,5f966b181caf595331d1685e,45,Mężczyzna,2022-06-11_09h25.06.494,task,2021.1.4,MacIntel,60.04202942,6299f149e92ead563fba08ef,62a44328412e284fb5dcb2db,zksxk,"[""z"",""k"",""s"",""x"",""k""]","[2.3825999999940564,3.615700000002988,4.168000000000006,4.516299999997045,5.142799999997038,6.909799999997034]",0,ZKSXKZ,9,0,9,0,1,,,,,,,,,,,,,,,,,,,,,,,,,,,,,,,,,,,,,,,,,,,,,,,,,,,,,,,,,,,,,,,,,,,,,,,,,,,,,,,,,,,,,,,,,,,
,,,,,,0,0,0,0,1,X V Q F H G B L J M P D K C T S W R N Z,5f966b181caf595331d1685e,45,Mężczyzna,2022-06-11_09h25.06.494,task,2021.1.4,MacIntel,60.04202942,6299f149e92ead563fba08ef,62a44328412e284fb5dcb2db,,,,,,,,,,,,,,,,,,,,,,,,,,,,,,,,,,,,,,,,,,,,,,,,,,,,,,,,,,,,,,,,,,,,,,,,,,,,,,,,,,,,,,,,,,,,,,,,,,,,,
,,,,,,1,0,1,0,1,X V Q F H G B L J M P D K C T S W R N Z,5f966b181caf595331d1685e,45,Mężczyzna,2022-06-11_09h25.06.494,task,2021.1.4,MacIntel,60.04202942,6299f149e92ead563fba08ef,62a44328412e284fb5dcb2db,,,,,,,,,,,,,,,,,,,,,,,,,,,,,,,,,,,,,,,,,,,,,,,,,,,,,,,,,,,,,,,,,,,,,,,,,,,,,,,,,,,,,,,,,,,,,,,,,,,,,
,,,,,,2,0,2,0,1,X V Q F H G B L J M P D K C T S W R N Z,5f966b181caf595331d1685e,45,Mężczyzna,2022-06-11_09h25.06.494,task,2021.1.4,MacIntel,60.04202942,6299f149e92ead563fba08ef,62a44328412e284fb5dcb2db,,,,,,,,,,,,,,,,,,,,,,,,,,,,,,,,,,,,,,,,,,,,,,,,,,,,,,,,,,,,,,,,,,,,,,,,,,,,,,,,,,,,,,,,,,,,,,,,,,,,,
,,,,,,3,0,3,0,1,X V Q F H G B L J M P D K C T S W R N Z,5f966b181caf595331d1685e,45,Mężczyzna,2022-06-11_09h25.06.494,task,2021.1.4,MacIntel,60.04202942,6299f149e92ead563fba08ef,62a44328412e284fb5dcb2db,,,,,,,,,,,,,,,,,,,,,,,,,,,,,,,,,,,,,,,,,,,,,,,,,,,,,,,,,,,,,,,,,,,,,,,,,,,,,,,,,,,,,,,,,,,,,,,,,,,,,
,,,,,,4,0,4,0,1,X V Q F H G B L J M P D K C T S W R N Z,5f966b181caf595331d1685e,45,Mężczyzna,2022-06-11_09h25.06.494,task,2021.1.4,MacIntel,60.04202942,6299f149e92ead563fba08ef,62a44328412e284fb5dcb2db,,,,,,,,,,,,,,,,,,,,,,,,,,,,,,,,,,,,,,,,,,,,,,,,,,,,,,,,,,,,,,,,,,,,,,,,,,,,,,,,,,,,,,,,,,,,,,,,,,,,,
,,,,,,5,0,5,0,1,X V Q F H G B L J M P D K C T S W R N Z,5f966b181caf595331d1685e,45,Mężczyzna,2022-06-11_09h25.06.494,task,2021.1.4,MacIntel,60.04202942,6299f149e92ead563fba08ef,62a44328412e284fb5dcb2db,,,,,,,,,,,,,,,,,,,,,,,,,,,,,,,,,,,,,,,,,,,,,,,,,,,,,,,,,,,,,,,,,,,,,,,,,,,,,,,,,,,,,,,,,,,,,,,,,,,,,
,,,,,,,,,,,,5f966b181caf595331d1685e,45,Mężczyzna,2022-06-11_09h25.06.494,task,2021.1.4,MacIntel,60.04202942,6299f149e92ead563fba08ef,62a44328412e284fb5dcb2db,nfdmjf,"[""n"",""f"",""d"",""m"",""j"",""f""]","[1.2007000000029677,1.9509999999999934,2.593500000000006,3.235500000000002,4.677100000008949,5.909100000008948,7.823600000008952]",0,NFDMFJ,10,0,10,0,1,,,,,,,,,,,,,,,,,,,,,,,,,,,,,,,,,,,,,,,,,,,,,,,,,,,,,,,,,,,,,,,,,,,,,,,,,,,,,,,,,,,,,,,,,,,
,,,,,,0,0,0,0,1,X V Q F H G B L J M P D K C T S W R N Z,5f966b181caf595331d1685e,45,Mężczyzna,2022-06-11_09h25.06.494,task,2021.1.4,MacIntel,60.04202942,6299f149e92ead563fba08ef,62a44328412e284fb5dcb2db,,,,,,,,,,,,,,,,,,,,,,,,,,,,,,,,,,,,,,,,,,,,,,,,,,,,,,,,,,,,,,,,,,,,,,,,,,,,,,,,,,,,,,,,,,,,,,,,,,,,,
,,,,,,1,0,1,0,1,X V Q F H G B L J M P D K C T S W R N Z,5f966b181caf595331d1685e,45,Mężczyzna,2022-06-11_09h25.06.494,task,2021.1.4,MacIntel,60.04202942,6299f149e92ead563fba08ef,62a44328412e284fb5dcb2db,,,,,,,,,,,,,,,,,,,,,,,,,,,,,,,,,,,,,,,,,,,,,,,,,,,,,,,,,,,,,,,,,,,,,,,,,,,,,,,,,,,,,,,,,,,,,,,,,,,,,
,,,,,,2,0,2,0,1,X V Q F H G B L J M P D K C T S W R N Z,5f966b181caf595331d1685e,45,Mężczyzna,2022-06-11_09h25.06.494,task,2021.1.4,MacIntel,60.04202942,6299f149e92ead563fba08ef,62a44328412e284fb5dcb2db,,,,,,,,,,,,,,,,,,,,,,,,,,,,,,,,,,,,,,,,,,,,,,,,,,,,,,,,,,,,,,,,,,,,,,,,,,,,,,,,,,,,,,,,,,,,,,,,,,,,,
,,,,,,3,0,3,0,1,X V Q F H G B L J M P D K C T S W R N Z,5f966b181caf595331d1685e,45,Mężczyzna,2022-06-11_09h25.06.494,task,2021.1.4,MacIntel,60.04202942,6299f149e92ead563fba08ef,62a44328412e284fb5dcb2db,,,,,,,,,,,,,,,,,,,,,,,,,,,,,,,,,,,,,,,,,,,,,,,,,,,,,,,,,,,,,,,,,,,,,,,,,,,,,,,,,,,,,,,,,,,,,,,,,,,,,
,,,,,,4,0,4,0,1,X V Q F H G B L J M P D K C T S W R N Z,5f966b181caf595331d1685e,45,Mężczyzna,2022-06-11_09h25.06.494,task,2021.1.4,MacIntel,60.04202942,6299f149e92ead563fba08ef,62a44328412e284fb5dcb2db,,,,,,,,,,,,,,,,,,,,,,,,,,,,,,,,,,,,,,,,,,,,,,,,,,,,,,,,,,,,,,,,,,,,,,,,,,,,,,,,,,,,,,,,,,,,,,,,,,,,,
,,,,,,5,0,5,0,1,X V Q F H G B L J M P D K C T S W R N Z,5f966b181caf595331d1685e,45,Mężczyzna,2022-06-11_09h25.06.494,task,2021.1.4,MacIntel,60.04202942,6299f149e92ead563fba08ef,62a44328412e284fb5dcb2db,,,,,,,,,,,,,,,,,,,,,,,,,,,,,,,,,,,,,,,,,,,,,,,,,,,,,,,,,,,,,,,,,,,,,,,,,,,,,,,,,,,,,,,,,,,,,,,,,,,,,
,,,,,,,,,,,,5f966b181caf595331d1685e,45,Mężczyzna,2022-06-11_09h25.06.494,task,2021.1.4,MacIntel,60.04202942,6299f149e92ead563fba08ef,62a44328412e284fb5dcb2db,nrlxfj,"[""n"",""r"",""l"",""x"",""f"",""j""]","[1.5486000000089462,2.147400000005973,2.7457000000029836,3.9141000000089434,5.884200000002977,7.45980000001191,44.31020000000299]",0,NLRXFN,11,0,11,0,1,,,,,,,,,,,,,,,,,,,,,,,,,,,,,,,,,,,,,,,,,,,,,,,,,,,,,,,,,,,,,,,,,,,,,,,,,,,,,,,,,,,,,,,,,,,
,,,,,,,,,,,,5f966b181caf595331d1685e,45,Mężczyzna,2022-06-11_09h25.06.494,task,2021.1.4,MacIntel,60.04202942,6299f149e92ead563fba08ef,62a44328412e284fb5dcb2db,,,,,,,,,,,space,9.9491,8,"[""8""]",1,[6.03540000000595],[6.03540000000595],0,0,0,8,1,Practice,9,(3x3) - 1,8,,,,,,,,,,,,,,,,,,,,,,,,,,,,,,,,,,,,,,,,,,,,,,,,,,,,,,,,,,,,,,,,,,,,,,,,,,,
,,,,,,,,,,,,5f966b181caf595331d1685e,45,Mężczyzna,2022-06-11_09h25.06.494,task,2021.1.4,MacIntel,60.04202942,6299f149e92ead563fba08ef,62a44328412e284fb5dcb2db,,,,,,,,,,,,,4,"[""4""]",1,[5.2423000000118805],"[6.03540000000595,5.2423000000118805]",0,1,1,4,1,Practice,5,(2x6) - 8,4,,,,,,,,,,,,,,,,,,,,,,,,,,,,,,,,,,,,,,,,,,,,,,,,,,,,,,,,,,,,,,,,,,,,,,,,,,,
,,,,,,,,,,,,5f966b181caf595331d1685e,45,Mężczyzna,2022-06-11_09h25.06.494,task,2021.1.4,MacIntel,60.04202942,6299f149e92ead563fba08ef,62a44328412e284fb5dcb2db,,,,,,,,,,,,,5,"[""5""]",1,[5.217099999994048],"[6.03540000000595,5.2423000000118805,5.217099999994048]",0,2,2,5,1,Practice,6,(4/2) + 3,5,,,,,,,,,,,,,,,,,,,,,,,,,,,,,,,,,,,,,,,,,,,,,,,,,,,,,,,,,,,,,,,,,,,,,,,,,,,
,,,,,,,,,,,,5f966b181caf595331d1685e,45,Mężczyzna,2022-06-11_09h25.06.494,task,2021.1.4,MacIntel,60.04202942,6299f149e92ead563fba08ef,62a44328412e284fb5dcb2db,,,,,,,,,,,,,3,"[""3""]",1,[2.99909999999403],"[6.03540000000595,5.2423000000118805,5.217099999994048,2.99909999999403]",0,3,3,3,1,Practice,4,(8/4) + 1,3,,,,,,,,,,,,,,,,,,,,,,,,,,,,,,,,,,,,,,,,,,,,,,,,,,,,,,,,,,,,,,,,,,,,,,,,,,,
,,,,,,,,,,,,5f966b181caf595331d1685e,45,Mężczyzna,2022-06-11_09h25.06.494,task,2021.1.4,MacIntel,60.04202942,6299f149e92ead563fba08ef,62a44328412e284fb5dcb2db,,,,,,,,,,,,,2,"[""2""]",1,[4.0234000000059496],"[6.03540000000595,5.2423000000118805,5.217099999994048,2.99909999999403,4.0234000000059496]",0,4,4,2,1,Practice,3,(4x4) - 14,2,,,,,,,,,,,,,,,,,,,,,,,,,,,,,,,,,,,,,,,,,,,,,,,,,,,,,,,,,,,,,,,,,,,,,,,,,,,
,,,,,,,,,,,,5f966b181caf595331d1685e,45,Mężczyzna,2022-06-11_09h25.06.494,task,2021.1.4,MacIntel,60.04202942,6299f149e92ead563fba08ef,62a44328412e284fb5dcb2db,,,,,,,,,,,,,1,"[""1""]",1,[3.062000000000012],"[6.03540000000595,5.2423000000118805,5.217099999994048,2.99909999999403,4.0234000000059496,3.062000000000012]",0,5,5,1,1,Practice,2,(4x4) - 15,1,,,,,,,,,,,,,,,,,,,,,,,,,,,,,,,,,,,,,,,,,,,,,,,,,,,,,,,,,,,,,,,,,,,,,,,,,,,
,,,,,,,,,,,,5f966b181caf595331d1685e,45,Mężczyzna,2022-06-11_09h25.06.494,task,2021.1.4,MacIntel,60.04202942,6299f149e92ead563fba08ef,62a44328412e284fb5dcb2db,,,,,,,,,,,,,0,"[""0""]",1,[4.2851999999880945],"[6.03540000000595,5.2423000000118805,5.217099999994048,2.99909999999403,4.0234000000059496,3.062000000000012,4.2851999999880945]",0,6,6,0,1,Practice,1,(3x3) -  9,0,,,,,,,,,,,,,,,,,,,,,,,,,,,,,,,,,,,,,,,,,,,,,,,,,,,,,,,,,,,,,,,,,,,,,,,,,,,
,,,,,,,,,,,,5f966b181caf595331d1685e,45,Mężczyzna,2022-06-11_09h25.06.494,task,2021.1.4,MacIntel,60.04202942,6299f149e92ead563fba08ef,62a44328412e284fb5dcb2db,,,,,,,,,,,,,7,"[""7""]",1,[4.831700000002968],"[6.03540000000595,5.2423000000118805,5.217099999994048,2.99909999999403,4.0234000000059496,3.062000000000012,4.2851999999880945,4.831700000002968]",0,7,7,7,1,Practice,8,(5x5) - 18,7,,,,,,,,,,,,,,,,,,,,,,,,,,,,,,,,,,,,,,,,,,,,,,,,,,,,,,,,,,,,,,,,,,,,,,,,,,,
,,,,,,,,,,,,5f966b181caf595331d1685e,45,Mężczyzna,2022-06-11_09h25.06.494,task,2021.1.4,MacIntel,60.04202942,6299f149e92ead563fba08ef,62a44328412e284fb5dcb2db,,,,,,,,,,,,,9,"[""9""]",1,[5.118999999999971],"[6.03540000000595,5.2423000000118805,5.217099999994048,2.99909999999403,4.0234000000059496,3.062000000000012,4.2851999999880945,4.831700000002968,5.118999999999971]",0,8,8,9,1,Practice,10,(20/2) - 1,9,,,,,,,,,,,,,,,,,,,,,,,,,,,,,,,,,,,,,,,,,,,,,,,,,,,,,,,,,,,,,,,,,,,,,,,,,,,
,,,,,,,,,,,,5f966b181caf595331d1685e,45,Mężczyzna,2022-06-11_09h25.06.494,task,2021.1.4,MacIntel,60.04202942,6299f149e92ead563fba08ef,62a44328412e284fb5dcb2db,,,,,,,,,,,,,6,"[""6""]",1,[3.1326999999881195],"[6.03540000000595,5.2423000000118805,5.217099999994048,2.99909999999403,4.0234000000059496,3.062000000000012,4.2851999999880945,4.831700000002968,5.118999999999971,3.1326999999881195]",0,9,9,6,1,Practice,7,(25/5) + 1,6,,,,,,,,,,,,,,,,,,,,,,,,,,,,,,,,,,,,,,,,,,,,,,,,,,,,,,,,,,,,,,,,,,,,,,,,,,,
,,,,,,,,,,,,5f966b181caf595331d1685e,45,Mężczyzna,2022-06-11_09h25.06.494,task,2021.1.4,MacIntel,60.04202942,6299f149e92ead563fba08ef,62a44328412e284fb5dcb2db,,,,,,,,,,,,,,,,,,,,,,,,,,,1,43.9479,2.92986,31.72872906,1.454389426,6.68218472,space,4.8703,0,0,0,0,1,,,,,,,,,,,,,,,,,,,,,,,,,,,,,,,,,,,,,,,,,,,,,,,,,,,,,,,,,,,,,,
,,,,,,,,,,,,5f966b181caf595331d1685e,45,Mężczyzna,2022-06-11_09h25.06.494,task,2021.1.4,MacIntel,60.04202942,6299f149e92ead563fba08ef,62a44328412e284fb5dcb2db,,,,,,,,,,,,,9,,,,,,,,,,Practice,10,(20/2) - 1,9,,,,,,,,,,,,,,space,19.7751,"[""9""]",1,[4.323999999999955],1,0,0,0,9,1,,,,,,,,,,,,,,,,,,,,,,,,,,,,,,,,,,,,,,,,,,,,,,,,,,,
,,,,,,,,,,,X V Q F H G B L J M P D K C T S W R N Z,5f966b181caf595331d1685e,45,Mężczyzna,2022-06-11_09h25.06.494,task,2021.1.4,MacIntel,60.04202942,6299f149e92ead563fba08ef,62a44328412e284fb5dcb2db,,,,,,,,,,,,,,,,,,,,,,,,,,,,,,,,,,,,,,,,,,,,,,,,,,,0,0,0,0,1,,,,,,,,,,,,,,,,,,,,,,,,,,,,,,,,,,,,,,,,,,,,,,
,,,,,,,,,,,,5f966b181caf595331d1685e,45,Mężczyzna,2022-06-11_09h25.06.494,task,2021.1.4,MacIntel,60.04202942,6299f149e92ead563fba08ef,62a44328412e284fb5dcb2db,,,,,,,,,,,,,,,,,,,,,,,Practice,5,(2x6) - 8,4,,,,,,,,,,,,,,,,,0,,0,0,0,0,4,1,,,,,,,,,,,,,,,,,,,,,,,,,,,,,,,,,,,,,,,,,,,,,,,,,,,
,,,,,,,,,,,,5f966b181caf595331d1685e,45,Mężczyzna,2022-06-11_09h25.06.494,task,2021.1.4,MacIntel,60.04202942,6299f149e92ead563fba08ef,62a44328412e284fb5dcb2db,,,,,,,,,,,,,6,,,,,,,,,,Practice,7,(25/5) + 1,6,,,,,,,,,,,,,,,,"[""6""]",1,[4.018900000005942],1,0,1,1,6,1,,,,,,,,,,,,,,,,,,,,,,,,,,,,,,,,,,,,,,,,,,,,,,,,,,,
,,,,,,,,,,,X V Q F H G B L J M P D K C T S W R N Z,5f966b181caf595331d1685e,45,Mężczyzna,2022-06-11_09h25.06.494,task,2021.1.4,MacIntel,60.04202942,6299f149e92ead563fba08ef,62a44328412e284fb5dcb2db,,,,,,,,,,,,,,,,,,,,,,,,,,,,,,,,,,,,,,,,,,,,,,,,,,,1,0,1,0,1,,,,,,,,,,,,,,,,,,,,,,,,,,,,,,,,,,,,,,,,,,,,,,
,,,,,,,,,,,,5f966b181caf595331d1685e,45,Mężczyzna,2022-06-11_09h25.06.494,task,2021.1.4,MacIntel,60.04202942,6299f149e92ead563fba08ef,62a44328412e284fb5dcb2db,,,,,,,,,,,,,,,,,,,,,,,,,,,,,,,,,,,,,,,,,,,,,,,,,,,,,,,,zw,"[""z"",""w""]",0,"[3.6483999999910566,4.24439999999106,6.357700000002978]",1,0,0,0,0,1,,,,,,,,,,,,,,,,,,,,,,,,,,,,,,,,,,,,
,,,,,,,,,,,,5f966b181caf595331d1685e,45,Mężczyzna,2022-06-11_09h25.06.494,task,2021.1.4,MacIntel,60.04202942,6299f149e92ead563fba08ef,62a44328412e284fb5dcb2db,,,,,,,,,,,,,8,,,,,,,,,,Practice,9,(3x3) - 1,8,,,,,,,,,,,,,,,,"[""8""]",1,[2.9893999999910648],1,0,0,0,8,1,,,,,,,,,,,,,,,,,,,,,,,,,,,,,,,,,,,,,,,,,,,,,,,,,,,
,,,,,,,,,,,X V Q F H G B L J M P D K C T S W R N Z,5f966b181caf595331d1685e,45,Mężczyzna,2022-06-11_09h25.06.494,task,2021.1.4,MacIntel,60.04202942,6299f149e92ead563fba08ef,62a44328412e284fb5dcb2db,,,,,,,,,,,,,,,,,,,,,,,,,,,,,,,,,,,,,,,,,,,,,,,,,,,0,0,0,0,1,,,,,,,,,,,,,,,,,,,,,,,,,,,,,,,,,,,,,,,,,,,,,,
,,,,,,,,,,,,5f966b181caf595331d1685e,45,Mężczyzna,2022-06-11_09h25.06.494,task,2021.1.4,MacIntel,60.04202942,6299f149e92ead563fba08ef,62a44328412e284fb5dcb2db,,,,,,,,,,,,,0,,,,,,,,,,Practice,1,(3x3) -  9,0,,,,,,,,,,,,,,,,"[""0""]",1,[1.9757999999970366],1,0,0,0,0,1,,,,,,,,,,,,,,,,,,,,,,,,,,,,,,,,,,,,,,,,,,,,,,,,,,,
,,,,,,,,,,,X V Q F H G B L J M P D K C T S W R N Z,5f966b181caf595331d1685e,45,Mężczyzna,2022-06-11_09h25.06.494,task,2021.1.4,MacIntel,60.04202942,6299f149e92ead563fba08ef,62a44328412e284fb5dcb2db,,,,,,,,,,,,,,,,,,,,,,,,,,,,,,,,,,,,,,,,,,,,,,,,,,,1,0,1,0,1,,,,,,,,,,,,,,,,,,,,,,,,,,,,,,,,,,,,,,,,,,,,,,
,,,,,,,,,,,,5f966b181caf595331d1685e,45,Mężczyzna,2022-06-11_09h25.06.494,task,2021.1.4,MacIntel,60.04202942,6299f149e92ead563fba08ef,62a44328412e284fb5dcb2db,,,,,,,,,,,,,,,,,,,,,,,,,,,,,,,,,,,,,,,,,,,,,,,,,,,,,,,,rx,"[""r"",""x""]",0,"[2.9377999999970257,3.379799999997033,5.878200000003005]",1,1,0,1,0,1,,,,,,,,,,,,,,,,,,,,,,,,,,,,,,,,,,,,
,,,,,,,,,,,,5f966b181caf595331d1685e,45,Mężczyzna,2022-06-11_09h25.06.494,task,2021.1.4,MacIntel,60.04202942,6299f149e92ead563fba08ef,62a44328412e284fb5dcb2db,,,,,,,,,,,,,7,,,,,,,,,,Practice,8,(5x5) - 18,7,,,,,,,,,,,,,,,,"[""7""]",1,[2.7295999999940364],1,0,0,0,7,1,,,,,,,,,,,,,,,,,,,,,,,,,,,,,,,,,,,,,,,,,,,,,,,,,,,
,,,,,,,,,,,X V Q F H G B L J M P D K C T S W R N Z,5f966b181caf595331d1685e,45,Mężczyzna,2022-06-11_09h25.06.494,task,2021.1.4,MacIntel,60.04202942,6299f149e92ead563fba08ef,62a44328412e284fb5dcb2db,,,,,,,,,,,,,,,,,,,,,,,,,,,,,,,,,,,,,,,,,,,,,,,,,,,0,0,0,0,1,,,,,,,,,,,,,,,,,,,,,,,,,,,,,,,,,,,,,,,,,,,,,,
,,,,,,,,,,,,5f966b181caf595331d1685e,45,Mężczyzna,2022-06-11_09h25.06.494,task,2021.1.4,MacIntel,60.04202942,6299f149e92ead563fba08ef,62a44328412e284fb5dcb2db,,,,,,,,,,,,,8,,,,,,,,,,Practice,9,(3x3) - 1,8,,,,,,,,,,,,,,,,"[""8""]",1,[2.4827000000029784],1,0,0,0,8,1,,,,,,,,,,,,,,,,,,,,,,,,,,,,,,,,,,,,,,,,,,,,,,,,,,,
,,,,,,,,,,,X V Q F H G B L J M P D K C T S W R N Z,5f966b181caf595331d1685e,45,Mężczyzna,2022-06-11_09h25.06.494,task,2021.1.4,MacIntel,60.04202942,6299f149e92ead563fba08ef,62a44328412e284fb5dcb2db,,,,,,,,,,,,,,,,,,,,,,,,,,,,,,,,,,,,,,,,,,,,,,,,,,,1,0,1,0,1,,,,,,,,,,,,,,,,,,,,,,,,,,,,,,,,,,,,,,,,,,,,,,
,,,,,,,,,,,,5f966b181caf595331d1685e,45,Mężczyzna,2022-06-11_09h25.06.494,task,2021.1.4,MacIntel,60.04202942,6299f149e92ead563fba08ef,62a44328412e284fb5dcb2db,,,,,,,,,,,,,,,,,,,,,,,,,,,,,,,,,,,,,,,,,,,,,,,,,,,,,,,,nj,"[""n"",""j""]",0,"[3.0295999999940477,3.7802999999969984,4.682299999997042]",1,2,0,2,0,1,,,,,,,,,,,,,,,,,,,,,,,,,,,,,,,,,,,,
,,,,,,,,,,,,5f966b181caf595331d1685e,45,Mężczyzna,2022-06-11_09h25.06.494,task,2021.1.4,MacIntel,60.04202942,6299f149e92ead563fba08ef,62a44328412e284fb5dcb2db,,,,,,,,,,,,,4,,,,,,,,,,Task,21,(10/2) - 1,4,,,,,,,,,,,,,,,,,,,1,,,,,,,,,,,,,,,,,,,,,space,23.7025,"[""4""]",1,[4.313899999991065],0,0,0,20,1,,,,,,,,,,,,,,,,,,,,,,,,,,
,,,,,,,,,,,X V Q F H G B L J M P D K C T S W R N Z,5f966b181caf595331d1685e,45,Mężczyzna,2022-06-11_09h25.06.494,task,2021.1.4,MacIntel,60.04202942,6299f149e92ead563fba08ef,62a44328412e284fb5dcb2db,,,,,,,,,,,,,,,,,,,,,,,,,,,,,,,,,,,,,,,,,,,,,,,,,,,,,,,,,,,,,,,,,,,,,,,,,,,,0,0,0,0,1,,,,,,,,,,,,,,,,,,,,,
,,,,,,,,,,,,5f966b181caf595331d1685e,45,Mężczyzna,2022-06-11_09h25.06.494,task,2021.1.4,MacIntel,60.04202942,6299f149e92ead563fba08ef,62a44328412e284fb5dcb2db,,,,,,,,,,,,,6,,,,,,,,,,Task,5,(2x3) + 0,6,,,,,,,,,,,,,,,,,,,1,,,,,,,,,,,,,,,,,,,,,,,"[""6""]",1,[3.727400000006014],0,0,0,4,1,,,,,,,,,,,,,,,,,,,,,,,,,,
,,,,,,,,,,,X V Q F H G B L J M P D K C T S W R N Z,5f966b181caf595331d1685e,45,Mężczyzna,2022-06-11_09h25.06.494,task,2021.1.4,MacIntel,60.04202942,6299f149e92ead563fba08ef,62a44328412e284fb5dcb2db,,,,,,,,,,,,,,,,,,,,,,,,,,,,,,,,,,,,,,,,,,,,,,,,,,,,,,,,,,,,,,,,,,,,,,,,,,,,1,0,1,0,1,,,,,,,,,,,,,,,,,,,,,
,,,,,,,,,,,,5f966b181caf595331d1685e,45,Mężczyzna,2022-06-11_09h25.06.494,task,2021.1.4,MacIntel,60.04202942,6299f149e92ead563fba08ef,62a44328412e284fb5dcb2db,,,,,,,,,,,,,,,,,,,,,,,,,,,,,,,,,,,,,,,,,,,,,,,,,,,,,,,,,,,,,,,,,,,,,,,,,,,,,,,,,zf,"[""z"",""f""]",0,"[3.9705999999940786,4.781399999991095,5.793200000002969]",1,ZF,0,0,0,0,1,,,,,,,,,,
,,,,,,,,,,,,5f966b181caf595331d1685e,45,Mężczyzna,2022-06-11_09h25.06.494,task,2021.1.4,MacIntel,60.04202942,6299f149e92ead563fba08ef,62a44328412e284fb5dcb2db,,,,,,,,,,,,,7,,,,,,,,,,Task,14,(2x2) + 3,7,,,,,,,,,,,,,,,,,,,1,,,,,,,,,,,,,,,,,,,,,,,"[""7""]",1,[2.7689000000059423],0,0,0,13,1,,,,,,,,,,,,,,,,,,,,,,,,,,
,,,,,,,,,,,X V Q F H G B L J M P D K C T S W R N Z,5f966b181caf595331d1685e,45,Mężczyzna,2022-06-11_09h25.06.494,task,2021.1.4,MacIntel,60.04202942,6299f149e92ead563fba08ef,62a44328412e284fb5dcb2db,,,,,,,,,,,,,,,,,,,,,,,,,,,,,,,,,,,,,,,,,,,,,,,,,,,,,,,,,,,,,,,,,,,,,,,,,,,,0,0,0,0,1,,,,,,,,,,,,,,,,,,,,,
,,,,,,,,,,,,5f966b181caf595331d1685e,45,Mężczyzna,2022-06-11_09h25.06.494,task,2021.1.4,MacIntel,60.04202942,6299f149e92ead563fba08ef,62a44328412e284fb5dcb2db,,,,,,,,,,,,,6,,,,,,,,,,Task,13,(3x4) - 6,6,,,,,,,,,,,,,,,,,,,1,,,,,,,,,,,,,,,,,,,,,,,"[""6""]",1,[3.9983999999910793],0,0,0,12,1,,,,,,,,,,,,,,,,,,,,,,,,,,
,,,,,,,,,,,X V Q F H G B L J M P D K C T S W R N Z,5f966b181caf595331d1685e,45,Mężczyzna,2022-06-11_09h25.06.494,task,2021.1.4,MacIntel,60.04202942,6299f149e92ead563fba08ef,62a44328412e284fb5dcb2db,,,,,,,,,,,,,,,,,,,,,,,,,,,,,,,,,,,,,,,,,,,,,,,,,,,,,,,,,,,,,,,,,,,,,,,,,,,,1,0,1,0,1,,,,,,,,,,,,,,,,,,,,,
,,,,,,,,,,,,5f966b181caf595331d1685e,45,Mężczyzna,2022-06-11_09h25.06.494,task,2021.1.4,MacIntel,60.04202942,6299f149e92ead563fba08ef,62a44328412e284fb5dcb2db,,,,,,,,,,,,,7,,,,,,,,,,Task,31,(4/2) + 5,7,,,,,,,,,,,,,,,,,,,1,,,,,,,,,,,,,,,,,,,,,,,"[""7""]",1,[4.879099999994025],0,0,0,30,1,,,,,,,,,,,,,,,,,,,,,,,,,,
,,,,,,,,,,,X V Q F H G B L J M P D K C T S W R N Z,5f966b181caf595331d1685e,45,Mężczyzna,2022-06-11_09h25.06.494,task,2021.1.4,MacIntel,60.04202942,6299f149e92ead563fba08ef,62a44328412e284fb5dcb2db,,,,,,,,,,,,,,,,,,,,,,,,,,,,,,,,,,,,,,,,,,,,,,,,,,,,,,,,,,,,,,,,,,,,,,,,,,,,2,0,2,0,1,,,,,,,,,,,,,,,,,,,,,
,,,,,,,,,,,,5f966b181caf595331d1685e,45,Mężczyzna,2022-06-11_09h25.06.494,task,2021.1.4,MacIntel,60.04202942,6299f149e92ead563fba08ef,62a44328412e284fb5dcb2db,,,,,,,,,,,,,,,,,,,,,,,,,,,,,,,,,,,,,,,,,,,,,,,,,,,,,,,,,,,,,,,,,,,,,,,,,,,,,,,,,mtc,"[""m"",""t"",""c""]",0,"[2.9253999999910434,3.5395999999940386,4.051599999994039,5.280699999988087]",1,MTC,1,0,1,0,1,,,,,,,,,,
,,,,,,,,,,,,5f966b181caf595331d1685e,45,Mężczyzna,2022-06-11_09h25.06.494,task,2021.1.4,MacIntel,60.04202942,6299f149e92ead563fba08ef,62a44328412e284fb5dcb2db,,,,,,,,,,,,,9,,,,,,,,,,Task,16,(3x8) - 15,9,,,,,,,,,,,,,,,,,,,1,,,,,,,,,,,,,,,,,,,,,,,"[""9""]",1,[5.6886000000089325],0,0,0,15,1,,,,,,,,,,,,,,,,,,,,,,,,,,
,,,,,,,,,,,X V Q F H G B L J M P D K C T S W R N Z,5f966b181caf595331d1685e,45,Mężczyzna,2022-06-11_09h25.06.494,task,2021.1.4,MacIntel,60.04202942,6299f149e92ead563fba08ef,62a44328412e284fb5dcb2db,,,,,,,,,,,,,,,,,,,,,,,,,,,,,,,,,,,,,,,,,,,,,,,,,,,,,,,,,,,,,,,,,,,,,,,,,,,,0,0,0,0,1,,,,,,,,,,,,,,,,,,,,,
,,,,,,,,,,,,5f966b181caf595331d1685e,45,Mężczyzna,2022-06-11_09h25.06.494,task,2021.1.4,MacIntel,60.04202942,6299f149e92ead563fba08ef,62a44328412e284fb5dcb2db,,,,,,,,,,,,,0,,,,,,,,,,Task,33,(1/1) - 1,0,,,,,,,,,,,,,,,,,,,1,,,,,,,,,,,,,,,,,,,,,,,"[""0""]",1,[2.8115000000000236],0,0,0,32,1,,,,,,,,,,,,,,,,,,,,,,,,,,
,,,,,,,,,,,X V Q F H G B L J M P D K C T S W R N Z,5f966b181caf595331d1685e,45,Mężczyzna,2022-06-11_09h25.06.494,task,2021.1.4,MacIntel,60.04202942,6299f149e92ead563fba08ef,62a44328412e284fb5dcb2db,,,,,,,,,,,,,,,,,,,,,,,,,,,,,,,,,,,,,,,,,,,,,,,,,,,,,,,,,,,,,,,,,,,,,,,,,,,,1,0,1,0,1,,,,,,,,,,,,,,,,,,,,,
,,,,,,,,,,,,5f966b181caf595331d1685e,45,Mężczyzna,2022-06-11_09h25.06.494,task,2021.1.4,MacIntel,60.04202942,6299f149e92ead563fba08ef,62a44328412e284fb5dcb2db,,,,,,,,,,,,,1,,,,,,,,,,Task,34,(9/3) - 2,1,,,,,,,,,,,,,,,,,,,1,,,,,,,,,,,,,,,,,,,,,,,"[""1""]",1,[3.6955999999939877],0,0,0,33,1,,,,,,,,,,,,,,,,,,,,,,,,,,
,,,,,,,,,,,X V Q F H G B L J M P D K C T S W R N Z,5f966b181caf595331d1685e,45,Mężczyzna,2022-06-11_09h25.06.494,task,2021.1.4,MacIntel,60.04202942,6299f149e92ead563fba08ef,62a44328412e284fb5dcb2db,,,,,,,,,,,,,,,,,,,,,,,,,,,,,,,,,,,,,,,,,,,,,,,,,,,,,,,,,,,,,,,,,,,,,,,,,,,,2,0,2,0,1,,,,,,,,,,,,,,,,,,,,,
,,,,,,,,,,,,5f966b181caf595331d1685e,45,Mężczyzna,2022-06-11_09h25.06.494,task,2021.1.4,MacIntel,60.04202942,6299f149e92ead563fba08ef,62a44328412e284fb5dcb2db,,,,,,,,,,,,,1,,,,,,,,,,Task,34,(9/3) - 2,1,,,,,,,,,,,,,,,,,,,1,,,,,,,,,,,,,,,,,,,,,,,"[""1""]",1,[3.6185999999939895],0,0,0,33,1,,,,,,,,,,,,,,,,,,,,,,,,,,
,,,,,,,,,,,X V Q F H G B L J M P D K C T S W R N Z,5f966b181caf595331d1685e,45,Mężczyzna,2022-06-11_09h25.06.494,task,2021.1.4,MacIntel,60.04202942,6299f149e92ead563fba08ef,62a44328412e284fb5dcb2db,,,,,,,,,,,,,,,,,,,,,,,,,,,,,,,,,,,,,,,,,,,,,,,,,,,,,,,,,,,,,,,,,,,,,,,,,,,,3,0,3,0,1,,,,,,,,,,,,,,,,,,,,,
,,,,,,,,,,,,5f966b181caf595331d1685e,45,Mężczyzna,2022-06-11_09h25.06.494,task,2021.1.4,MacIntel,60.04202942,6299f149e92ead563fba08ef,62a44328412e284fb5dcb2db,,,,,,,,,,,,,,,,,,,,,,,,,,,,,,,,,,,,,,,,,,,,,,,,,,,,,,,,,,,,,,,,,,,,,,,,,,,,,,,,,xmlb,"[""x"",""m"",""l"",""b""]",0,"[3.502099999994016,4.255299999996964,5.969799999997008,7.083900000005883,14.966700000002902]",1,XMLB,2,0,2,0,1,,,,,,,,,,
,,,,,,,,,,,,5f966b181caf595331d1685e,45,Mężczyzna,2022-06-11_09h25.06.494,task,2021.1.4,MacIntel,60.04202942,6299f149e92ead563fba08ef,62a44328412e284fb5dcb2db,,,,,,,,,,,,,2,,,,,,,,,,Task,19,(6/2) - 1,2,,,,,,,,,,,,,,,,,,,1,,,,,,,,,,,,,,,,,,,,,,,"[""2""]",1,[4.84880000001192],0,0,0,18,1,,,,,,,,,,,,,,,,,,,,,,,,,,
,,,,,,,,,,,X V Q F H G B L J M P D K C T S W R N Z,5f966b181caf595331d1685e,45,Mężczyzna,2022-06-11_09h25.06.494,task,2021.1.4,MacIntel,60.04202942,6299f149e92ead563fba08ef,62a44328412e284fb5dcb2db,,,,,,,,,,,,,,,,,,,,,,,,,,,,,,,,,,,,,,,,,,,,,,,,,,,,,,,,,,,,,,,,,,,,,,,,,,,,0,0,0,0,1,,,,,,,,,,,,,,,,,,,,,
,,,,,,,,,,,,5f966b181caf595331d1685e,45,Mężczyzna,2022-06-11_09h25.06.494,task,2021.1.4,MacIntel,60.04202942,6299f149e92ead563fba08ef,62a44328412e284fb5dcb2db,,,,,,,,,,,,,1,,,,,,,,,,Task,9,(3x7) - 20,1,,,,,,,,,,,,,,,,,,,1,,,,,,,,,,,,,,,,,,,,,,,"[""1""]",1,[2.6488999999910448],0,0,0,8,1,,,,,,,,,,,,,,,,,,,,,,,,,,
,,,,,,,,,,,X V Q F H G B L J M P D K C T S W R N Z,5f966b181caf595331d1685e,45,Mężczyzna,2022-06-11_09h25.06.494,task,2021.1.4,MacIntel,60.04202942,6299f149e92ead563fba08ef,62a44328412e284fb5dcb2db,,,,,,,,,,,,,,,,,,,,,,,,,,,,,,,,,,,,,,,,,,,,,,,,,,,,,,,,,,,,,,,,,,,,,,,,,,,,1,0,1,0,1,,,,,,,,,,,,,,,,,,,,,
,,,,,,,,,,,,5f966b181caf595331d1685e,45,Mężczyzna,2022-06-11_09h25.06.494,task,2021.1.4,MacIntel,60.04202942,6299f149e92ead563fba08ef,62a44328412e284fb5dcb2db,,,,,,,,,,,,,3,,,,,,,,,,Task,20,(18/9) + 1,3,,,,,,,,,,,,,,,,,,,1,,,,,,,,,,,,,,,,,,,,,,,"[""3""]",1,[3.5255999999940286],0,0,0,19,1,,,,,,,,,,,,,,,,,,,,,,,,,,
,,,,,,,,,,,X V Q F H G B L J M P D K C T S W R N Z,5f966b181caf595331d1685e,45,Mężczyzna,2022-06-11_09h25.06.494,task,2021.1.4,MacIntel,60.04202942,6299f149e92ead563fba08ef,62a44328412e284fb5dcb2db,,,,,,,,,,,,,,,,,,,,,,,,,,,,,,,,,,,,,,,,,,,,,,,,,,,,,,,,,,,,,,,,,,,,,,,,,,,,2,0,2,0,1,,,,,,,,,,,,,,,,,,,,,
,,,,,,,,,,,,5f966b181caf595331d1685e,45,Mężczyzna,2022-06-11_09h25.06.494,task,2021.1.4,MacIntel,60.04202942,6299f149e92ead563fba08ef,62a44328412e284fb5dcb2db,,,,,,,,,,,,,0,,,,,,,,,,Task,8,(1x5) - 5,0,,,,,,,,,,,,,,,,,,,1,,,,,,,,,,,,,,,,,,,,,,,"[""0""]",1,[2.985900000005927],0,0,0,7,1,,,,,,,,,,,,,,,,,,,,,,,,,,
,,,,,,,,,,,X V Q F H G B L J M P D K C T S W R N Z,5f966b181caf595331d1685e,45,Mężczyzna,2022-06-11_09h25.06.494,task,2021.1.4,MacIntel,60.04202942,6299f149e92ead563fba08ef,62a44328412e284fb5dcb2db,,,,,,,,,,,,,,,,,,,,,,,,,,,,,,,,,,,,,,,,,,,,,,,,,,,,,,,,,,,,,,,,,,,,,,,,,,,,3,0,3,0,1,,,,,,,,,,,,,,,,,,,,,
,,,,,,,,,,,,5f966b181caf595331d1685e,45,Mężczyzna,2022-06-11_09h25.06.494,task,2021.1.4,MacIntel,60.04202942,6299f149e92ead563fba08ef,62a44328412e284fb5dcb2db,,,,,,,,,,,,,6,,,,,,,,,,Task,29,(3x8) - 19 ,5,,,,,,,,,,,,,,,,,,,0,,,,,,,,,,,,,,,,,,,,,,,"[""6""]",0,[4.5011000000089325],0,0,0,28,1,,,,,,,,,,,,,,,,,,,,,,,,,,
,,,,,,,,,,,,5f966b181caf595331d1685e,45,Mężczyzna,2022-06-11_09h25.06.494,task,2021.1.4,MacIntel,60.04202942,6299f149e92ead563fba08ef,62a44328412e284fb5dcb2db,,,,,,,,,,,,,2,,,,,,,,,,Task,2,(2x2) - 2,2,,,,,,,,,,,,,,,,,,,1,,,,,,,,,,,,,,,,,,,,,,,"[""2""]",1,[2.820500000000038],0,1,1,1,1,,,,,,,,,,,,,,,,,,,,,,,,,,
,,,,,,,,,,,X V Q F H G B L J M P D K C T S W R N Z,5f966b181caf595331d1685e,45,Mężczyzna,2022-06-11_09h25.06.494,task,2021.1.4,MacIntel,60.04202942,6299f149e92ead563fba08ef,62a44328412e284fb5dcb2db,,,,,,,,,,,,,,,,,,,,,,,,,,,,,,,,,,,,,,,,,,,,,,,,,,,,,,,,,,,,,,,,,,,,,,,,,,,,4,0,4,0,1,,,,,,,,,,,,,,,,,,,,,
,,,,,,,,,,,,5f966b181caf595331d1685e,45,Mężczyzna,2022-06-11_09h25.06.494,task,2021.1.4,MacIntel,60.04202942,6299f149e92ead563fba08ef,62a44328412e284fb5dcb2db,,,,,,,,,,,,,,,,,,,,,,,,,,,,,,,,,,,,,,,,,,,,,,,,,,,,,,,,,,,,,,,,,,,,,,,,,,,,,,,,,xgrjc,"[""x"",""g"",""r"",""j"",""c""]",0,"[3.498600000008878,4.683100000008835,5.730900000005931,6.796200000002955,7.634100000008857,9.933700000002887]",1,XGRJC,3,0,3,0,1,,,,,,,,,,
,,,,,,,,,,,,5f966b181caf595331d1685e,45,Mężczyzna,2022-06-11_09h25.06.494,task,2021.1.4,MacIntel,60.04202942,6299f149e92ead563fba08ef,62a44328412e284fb5dcb2db,,,,,,,,,,,,,8,,,,,,,,,,Task,32,(8/2) + 4,8,,,,,,,,,,,,,,,,,,,1,,,,,,,,,,,,,,,,,,,,,,,"[""8""]",1,[2.92450000000008],0,0,0,31,1,,,,,,,,,,,,,,,,,,,,,,,,,,
,,,,,,,,,,,X V Q F H G B L J M P D K C T S W R N Z,5f966b181caf595331d1685e,45,Mężczyzna,2022-06-11_09h25.06.494,task,2021.1.4,MacIntel,60.04202942,6299f149e92ead563fba08ef,62a44328412e284fb5dcb2db,,,,,,,,,,,,,,,,,,,,,,,,,,,,,,,,,,,,,,,,,,,,,,,,,,,,,,,,,,,,,,,,,,,,,,,,,,,,0,0,0,0,1,,,,,,,,,,,,,,,,,,,,,
,,,,,,,,,,,,5f966b181caf595331d1685e,45,Mężczyzna,2022-06-11_09h25.06.494,task,2021.1.4,MacIntel,60.04202942,6299f149e92ead563fba08ef,62a44328412e284fb5dcb2db,,,,,,,,,,,,,,,,,,,,,,,Task,16,(3x8) - 15,9,,,,,,,,,,,,,,,,,,,0,,,,,,,,,,,,,,,,,,,,,,,,0,,0,0,0,15,1,,,,,,,,,,,,,,,,,,,,,,,,,,
,,,,,,,,,,,,5f966b181caf595331d1685e,45,Mężczyzna,2022-06-11_09h25.06.494,task,2021.1.4,MacIntel,60.04202942,6299f149e92ead563fba08ef,62a44328412e284fb5dcb2db,,,,,,,,,,,,,4,,,,,,,,,,Task,4,(1x5) - 1,4,,,,,,,,,,,,,,,,,,,1,,,,,,,,,,,,,,,,,,,,,,,"[""4""]",1,[4.2147999999970125],0,1,1,3,1,,,,,,,,,,,,,,,,,,,,,,,,,,
,,,,,,,,,,,X V Q F H G B L J M P D K C T S W R N Z,5f966b181caf595331d1685e,45,Mężczyzna,2022-06-11_09h25.06.494,task,2021.1.4,MacIntel,60.04202942,6299f149e92ead563fba08ef,62a44328412e284fb5dcb2db,,,,,,,,,,,,,,,,,,,,,,,,,,,,,,,,,,,,,,,,,,,,,,,,,,,,,,,,,,,,,,,,,,,,,,,,,,,,1,0,1,0,1,,,,,,,,,,,,,,,,,,,,,
,,,,,,,,,,,,5f966b181caf595331d1685e,45,Mężczyzna,2022-06-11_09h25.06.494,task,2021.1.4,MacIntel,60.04202942,6299f149e92ead563fba08ef,62a44328412e284fb5dcb2db,,,,,,,,,,,,,1,,,,,,,,,,Task,37,(3/3) + 5,6,,,,,,,,,,,,,,,,,,,0,,,,,,,,,,,,,,,,,,,,,,,"[""1""]",0,[3.2777999999970007],0,0,0,36,1,,,,,,,,,,,,,,,,,,,,,,,,,,
,,,,,,,,,,,,5f966b181caf595331d1685e,45,Mężczyzna,2022-06-11_09h25.06.494,task,2021.1.4,MacIntel,60.04202942,6299f149e92ead563fba08ef,62a44328412e284fb5dcb2db,,,,,,,,,,,,,7,,,,,,,,,,Task,38,(4x6) - 17,7,,,,,,,,,,,,,,,,,,,1,,,,,,,,,,,,,,,,,,,,,,,"[""7""]",1,[4.3761000000089325],0,1,1,37,1,,,,,,,,,,,,,,,,,,,,,,,,,,
,,,,,,,,,,,X V Q F H G B L J M P D K C T S W R N Z,5f966b181caf595331d1685e,45,Mężczyzna,2022-06-11_09h25.06.494,task,2021.1.4,MacIntel,60.04202942,6299f149e92ead563fba08ef,62a44328412e284fb5dcb2db,,,,,,,,,,,,,,,,,,,,,,,,,,,,,,,,,,,,,,,,,,,,,,,,,,,,,,,,,,,,,,,,,,,,,,,,,,,,2,0,2,0,1,,,,,,,,,,,,,,,,,,,,,
,,,,,,,,,,,,5f966b181caf595331d1685e,45,Mężczyzna,2022-06-11_09h25.06.494,task,2021.1.4,MacIntel,60.04202942,6299f149e92ead563fba08ef,62a44328412e284fb5dcb2db,,,,,,,,,,,,,2,,,,,,,,,,Task,26,(2x9) - 16,2,,,,,,,,,,,,,,,,,,,1,,,,,,,,,,,,,,,,,,,,,,,"[""2""]",1,[2.8696000000089725],0,0,0,25,1,,,,,,,,,,,,,,,,,,,,,,,,,,
,,,,,,,,,,,X V Q F H G B L J M P D K C T S W R N Z,5f966b181caf595331d1685e,45,Mężczyzna,2022-06-11_09h25.06.494,task,2021.1.4,MacIntel,60.04202942,6299f149e92ead563fba08ef,62a44328412e284fb5dcb2db,,,,,,,,,,,,,,,,,,,,,,,,,,,,,,,,,,,,,,,,,,,,,,,,,,,,,,,,,,,,,,,,,,,,,,,,,,,,3,0,3,0,1,,,,,,,,,,,,,,,,,,,,,
,,,,,,,,,,,,5f966b181caf595331d1685e,45,Mężczyzna,2022-06-11_09h25.06.494,task,2021.1.4,MacIntel,60.04202942,6299f149e92ead563fba08ef,62a44328412e284fb5dcb2db,,,,,,,,,,,,,4,,,,,,,,,,Task,4,(1x5) - 1,4,,,,,,,,,,,,,,,,,,,1,,,,,,,,,,,,,,,,,,,,,,,"[""4""]",1,[3.415200000002983],0,0,0,3,1,,,,,,,,,,,,,,,,,,,,,,,,,,
,,,,,,,,,,,X V Q F H G B L J M P D K C T S W R N Z,5f966b181caf595331d1685e,45,Mężczyzna,2022-06-11_09h25.06.494,task,2021.1.4,MacIntel,60.04202942,6299f149e92ead563fba08ef,62a44328412e284fb5dcb2db,,,,,,,,,,,,,,,,,,,,,,,,,,,,,,,,,,,,,,,,,,,,,,,,,,,,,,,,,,,,,,,,,,,,,,,,,,,,4,0,4,0,1,,,,,,,,,,,,,,,,,,,,,
,,,,,,,,,,,,5f966b181caf595331d1685e,45,Mężczyzna,2022-06-11_09h25.06.494,task,2021.1.4,MacIntel,60.04202942,6299f149e92ead563fba08ef,62a44328412e284fb5dcb2db,,,,,,,,,,,,,1,,,,,,,,,,Task,37,(3/3) + 5,6,,,,,,,,,,,,,,,,,,,0,,,,,,,,,,,,,,,,,,,,,,,"[""1""]",0,[5.819599999994011],0,0,0,36,1,,,,,,,,,,,,,,,,,,,,,,,,,,
,,,,,,,,,,,,5f966b181caf595331d1685e,45,Mężczyzna,2022-06-11_09h25.06.494,task,2021.1.4,MacIntel,60.04202942,6299f149e92ead563fba08ef,62a44328412e284fb5dcb2db,,,,,,,,,,,,,1,,,,,,,,,,Task,9,(3x7) - 20,1,,,,,,,,,,,,,,,,,,,1,,,,,,,,,,,,,,,,,,,,,,,"[""1""]",1,[2.602299999997058],0,1,1,8,1,,,,,,,,,,,,,,,,,,,,,,,,,,
,,,,,,,,,,,X V Q F H G B L J M P D K C T S W R N Z,5f966b181caf595331d1685e,45,Mężczyzna,2022-06-11_09h25.06.494,task,2021.1.4,MacIntel,60.04202942,6299f149e92ead563fba08ef,62a44328412e284fb5dcb2db,,,,,,,,,,,,,,,,,,,,,,,,,,,,,,,,,,,,,,,,,,,,,,,,,,,,,,,,,,,,,,,,,,,,,,,,,,,,5,0,5,0,1,,,,,,,,,,,,,,,,,,,,,
,,,,,,,,,,,,5f966b181caf595331d1685e,45,Mężczyzna,2022-06-11_09h25.06.494,task,2021.1.4,MacIntel,60.04202942,6299f149e92ead563fba08ef,62a44328412e284fb5dcb2db,,,,,,,,,,,,,,,,,,,,,,,,,,,,,,,,,,,,,,,,,,,,,,,,,,,,,,,,,,,,,,,,,,,,,,,,,,,,,,,,,tqglhj,"[""t"",""q"",""g"",""l"",""h"",""j""]",0,"[2.546700000002943,3.1307999999969525,4.501200000002882,5.636499999999955,6.321299999996995,10.609099999993987,14.381999999999948]",1,TQGLHJ,4,0,4,0,1,,,,,,,,,,
,,,,,,,,,,,,5f966b181caf595331d1685e,45,Mężczyzna,2022-06-11_09h25.06.494,task,2021.1.4,MacIntel,60.04202942,6299f149e92ead563fba08ef,62a44328412e284fb5dcb2db,,,,,,,,,,,,,7,,,,,,,,,,Task,38,(4x6) - 17,7,,,,,,,,,,,,,,,,,,,1,,,,,,,,,,,,,,,,,,,,,,,"[""7""]",1,[3.6117000000029975],0,0,0,37,1,,,,,,,,,,,,,,,,,,,,,,,,,,
,,,,,,,,,,,X V Q F H G B L J M P D K C T S W R N Z,5f966b181caf595331d1685e,45,Mężczyzna,2022-06-11_09h25.06.494,task,2021.1.4,MacIntel,60.04202942,6299f149e92ead563fba08ef,62a44328412e284fb5dcb2db,,,,,,,,,,,,,,,,,,,,,,,,,,,,,,,,,,,,,,,,,,,,,,,,,,,,,,,,,,,,,,,,,,,,,,,,,,,,0,0,0,0,1,,,,,,,,,,,,,,,,,,,,,
,,,,,,,,,,,,5f966b181caf595331d1685e,45,Mężczyzna,2022-06-11_09h25.06.494,task,2021.1.4,MacIntel,60.04202942,6299f149e92ead563fba08ef,62a44328412e284fb5dcb2db,,,,,,,,,,,,,7,,,,,,,,,,Task,14,(2x2) + 3,7,,,,,,,,,,,,,,,,,,,1,,,,,,,,,,,,,,,,,,,,,,,"[""7""]",1,[4.02440000000604],0,0,0,13,1,,,,,,,,,,,,,,,,,,,,,,,,,,
,,,,,,,,,,,X V Q F H G B L J M P D K C T S W R N Z,5f966b181caf595331d1685e,45,Mężczyzna,2022-06-11_09h25.06.494,task,2021.1.4,MacIntel,60.04202942,6299f149e92ead563fba08ef,62a44328412e284fb5dcb2db,,,,,,,,,,,,,,,,,,,,,,,,,,,,,,,,,,,,,,,,,,,,,,,,,,,,,,,,,,,,,,,,,,,,,,,,,,,,1,0,1,0,1,,,,,,,,,,,,,,,,,,,,,
,,,,,,,,,,,,5f966b181caf595331d1685e,45,Mężczyzna,2022-06-11_09h25.06.494,task,2021.1.4,MacIntel,60.04202942,6299f149e92ead563fba08ef,62a44328412e284fb5dcb2db,,,,,,,,,,,,,6,,,,,,,,,,Task,5,(2x3) + 0,6,,,,,,,,,,,,,,,,,,,1,,,,,,,,,,,,,,,,,,,,,,,"[""6""]",1,[2.7934999999999945],0,0,0,4,1,,,,,,,,,,,,,,,,,,,,,,,,,,
,,,,,,,,,,,X V Q F H G B L J M P D K C T S W R N Z,5f966b181caf595331d1685e,45,Mężczyzna,2022-06-11_09h25.06.494,task,2021.1.4,MacIntel,60.04202942,6299f149e92ead563fba08ef,62a44328412e284fb5dcb2db,,,,,,,,,,,,,,,,,,,,,,,,,,,,,,,,,,,,,,,,,,,,,,,,,,,,,,,,,,,,,,,,,,,,,,,,,,,,2,0,2,0,1,,,,,,,,,,,,,,,,,,,,,
,,,,,,,,,,,,5f966b181caf595331d1685e,45,Mężczyzna,2022-06-11_09h25.06.494,task,2021.1.4,MacIntel,60.04202942,6299f149e92ead563fba08ef,62a44328412e284fb5dcb2db,,,,,,,,,,,,,9,,,,,,,,,,Task,24,(2x2) + 5,9,,,,,,,,,,,,,,,,,,,1,,,,,,,,,,,,,,,,,,,,,,,"[""9""]",1,[2.5597000000029766],0,0,0,23,1,,,,,,,,,,,,,,,,,,,,,,,,,,
,,,,,,,,,,,X V Q F H G B L J M P D K C T S W R N Z,5f966b181caf595331d1685e,45,Mężczyzna,2022-06-11_09h25.06.494,task,2021.1.4,MacIntel,60.04202942,6299f149e92ead563fba08ef,62a44328412e284fb5dcb2db,,,,,,,,,,,,,,,,,,,,,,,,,,,,,,,,,,,,,,,,,,,,,,,,,,,,,,,,,,,,,,,,,,,,,,,,,,,,3,0,3,0,1,,,,,,,,,,,,,,,,,,,,,
,,,,,,,,,,,,5f966b181caf595331d1685e,45,Mężczyzna,2022-06-11_09h25.06.494,task,2021.1.4,MacIntel,60.04202942,6299f149e92ead563fba08ef,62a44328412e284fb5dcb2db,,,,,,,,,,,,,4,,,,,,,,,,Task,28,(2x5) - 6,4,,,,,,,,,,,,,,,,,,,1,,,,,,,,,,,,,,,,,,,,,,,"[""4""]",1,[2.743900000005965],0,0,0,27,1,,,,,,,,,,,,,,,,,,,,,,,,,,
,,,,,,,,,,,X V Q F H G B L J M P D K C T S W R N Z,5f966b181caf595331d1685e,45,Mężczyzna,2022-06-11_09h25.06.494,task,2021.1.4,MacIntel,60.04202942,6299f149e92ead563fba08ef,62a44328412e284fb5dcb2db,,,,,,,,,,,,,,,,,,,,,,,,,,,,,,,,,,,,,,,,,,,,,,,,,,,,,,,,,,,,,,,,,,,,,,,,,,,,4,0,4,0,1,,,,,,,,,,,,,,,,,,,,,
,,,,,,,,,,,,5f966b181caf595331d1685e,45,Mężczyzna,2022-06-11_09h25.06.494,task,2021.1.4,MacIntel,60.04202942,6299f149e92ead563fba08ef,62a44328412e284fb5dcb2db,,,,,,,,,,,,,7,,,,,,,,,,Task,14,(2x2) + 3,7,,,,,,,,,,,,,,,,,,,1,,,,,,,,,,,,,,,,,,,,,,,"[""7""]",1,[2.4524999999999864],0,0,0,13,1,,,,,,,,,,,,,,,,,,,,,,,,,,
,,,,,,,,,,,X V Q F H G B L J M P D K C T S W R N Z,5f966b181caf595331d1685e,45,Mężczyzna,2022-06-11_09h25.06.494,task,2021.1.4,MacIntel,60.04202942,6299f149e92ead563fba08ef,62a44328412e284fb5dcb2db,,,,,,,,,,,,,,,,,,,,,,,,,,,,,,,,,,,,,,,,,,,,,,,,,,,,,,,,,,,,,,,,,,,,,,,,,,,,5,0,5,0,1,,,,,,,,,,,,,,,,,,,,,
,,,,,,,,,,,,5f966b181caf595331d1685e,45,Mężczyzna,2022-06-11_09h25.06.494,task,2021.1.4,MacIntel,60.04202942,6299f149e92ead563fba08ef,62a44328412e284fb5dcb2db,,,,,,,,,,,,,4,,,,,,,,,,Task,28,(2x5) - 6,4,,,,,,,,,,,,,,,,,,,1,,,,,,,,,,,,,,,,,,,,,,,"[""4""]",1,[2.7262000000030184],0,0,0,27,1,,,,,,,,,,,,,,,,,,,,,,,,,,
,,,,,,,,,,,X V Q F H G B L J M P D K C T S W R N Z,5f966b181caf595331d1685e,45,Mężczyzna,2022-06-11_09h25.06.494,task,2021.1.4,MacIntel,60.04202942,6299f149e92ead563fba08ef,62a44328412e284fb5dcb2db,,,,,,,,,,,,,,,,,,,,,,,,,,,,,,,,,,,,,,,,,,,,,,,,,,,,,,,,,,,,,,,,,,,,,,,,,,,,6,0,6,0,1,,,,,,,,,,,,,,,,,,,,,
,,,,,,,,,,,,5f966b181caf595331d1685e,45,Mężczyzna,2022-06-11_09h25.06.494,task,2021.1.4,MacIntel,60.04202942,6299f149e92ead563fba08ef,62a44328412e284fb5dcb2db,,,,,,,,,,,,,,,,,,,,,,,,,,,,,,,,,,,,,,,,,,,,,,,,,,,,,,,,,,,,,,,,,,,,,,,,,,,,,,,,,qhcsfxj,"[""q"",""h"",""c"",""s"",""f"",""x"",""j""]",0,"[2.8472000000029993,4.403999999999996,5.749000000000024,7.126799999997047,8.625599999994051,9.848700000002964,10.889700000003018,14.055499999999938]",1,QHCSFXJ,5,0,5,0,1,,,,,,,,,,
,,,,,,,,,,,,5f966b181caf595331d1685e,45,Mężczyzna,2022-06-11_09h25.06.494,task,2021.1.4,MacIntel,60.04202942,6299f149e92ead563fba08ef,62a44328412e284fb5dcb2db,,,,,,,,,,,,,3,,,,,,,,,,Task,20,(18/9) + 1,3,,,,,,,,,,,,,,,,,,,1,,,,,,,,,,,,,,,,,,,,,,,"[""3""]",1,[2.6432000000029348],0,0,0,19,1,,,,,,,,,,,,,,,,,,,,,,,,,,
,,,,,,,,,,,X V Q F H G B L J M P D K C T S W R N Z,5f966b181caf595331d1685e,45,Mężczyzna,2022-06-11_09h25.06.494,task,2021.1.4,MacIntel,60.04202942,6299f149e92ead563fba08ef,62a44328412e284fb5dcb2db,,,,,,,,,,,,,,,,,,,,,,,,,,,,,,,,,,,,,,,,,,,,,,,,,,,,,,,,,,,,,,,,,,,,,,,,,,,,0,0,0,0,1,,,,,,,,,,,,,,,,,,,,,
,,,,,,,,,,,,5f966b181caf595331d1685e,45,Mężczyzna,2022-06-11_09h25.06.494,task,2021.1.4,MacIntel,60.04202942,6299f149e92ead563fba08ef,62a44328412e284fb5dcb2db,,,,,,,,,,,,,4,,,,,,,,,,Task,28,(2x5) - 6,4,,,,,,,,,,,,,,,,,,,1,,,,,,,,,,,,,,,,,,,,,,,"[""4""]",1,[2.120600000008949],0,0,0,27,1,,,,,,,,,,,,,,,,,,,,,,,,,,
,,,,,,,,,,,X V Q F H G B L J M P D K C T S W R N Z,5f966b181caf595331d1685e,45,Mężczyzna,2022-06-11_09h25.06.494,task,2021.1.4,MacIntel,60.04202942,6299f149e92ead563fba08ef,62a44328412e284fb5dcb2db,,,,,,,,,,,,,,,,,,,,,,,,,,,,,,,,,,,,,,,,,,,,,,,,,,,,,,,,,,,,,,,,,,,,,,,,,,,,1,0,1,0,1,,,,,,,,,,,,,,,,,,,,,
,,,,,,,,,,,,5f966b181caf595331d1685e,45,Mężczyzna,2022-06-11_09h25.06.494,task,2021.1.4,MacIntel,60.04202942,6299f149e92ead563fba08ef,62a44328412e284fb5dcb2db,,,,,,,,,,,,,5,,,,,,,,,,Task,36,(8/4) + 3,5,,,,,,,,,,,,,,,,,,,1,,,,,,,,,,,,,,,,,,,,,,,"[""5""]",1,[2.814699999988079],0,0,0,35,1,,,,,,,,,,,,,,,,,,,,,,,,,,
,,,,,,,,,,,X V Q F H G B L J M P D K C T S W R N Z,5f966b181caf595331d1685e,45,Mężczyzna,2022-06-11_09h25.06.494,task,2021.1.4,MacIntel,60.04202942,6299f149e92ead563fba08ef,62a44328412e284fb5dcb2db,,,,,,,,,,,,,,,,,,,,,,,,,,,,,,,,,,,,,,,,,,,,,,,,,,,,,,,,,,,,,,,,,,,,,,,,,,,,2,0,2,0,1,,,,,,,,,,,,,,,,,,,,,
,,,,,,,,,,,,5f966b181caf595331d1685e,45,Mężczyzna,2022-06-11_09h25.06.494,task,2021.1.4,MacIntel,60.04202942,6299f149e92ead563fba08ef,62a44328412e284fb5dcb2db,,,,,,,,,,,,,3,,,,,,,,,,Task,27,(3/3) + 2,3,,,,,,,,,,,,,,,,,,,1,,,,,,,,,,,,,,,,,,,,,,,"[""3""]",1,[2.2670000000000528],0,0,0,26,1,,,,,,,,,,,,,,,,,,,,,,,,,,
,,,,,,,,,,,X V Q F H G B L J M P D K C T S W R N Z,5f966b181caf595331d1685e,45,Mężczyzna,2022-06-11_09h25.06.494,task,2021.1.4,MacIntel,60.04202942,6299f149e92ead563fba08ef,62a44328412e284fb5dcb2db,,,,,,,,,,,,,,,,,,,,,,,,,,,,,,,,,,,,,,,,,,,,,,,,,,,,,,,,,,,,,,,,,,,,,,,,,,,,3,0,3,0,1,,,,,,,,,,,,,,,,,,,,,
,,,,,,,,,,,,5f966b181caf595331d1685e,45,Mężczyzna,2022-06-11_09h25.06.494,task,2021.1.4,MacIntel,60.04202942,6299f149e92ead563fba08ef,62a44328412e284fb5dcb2db,,,,,,,,,,,,,9,,,,,,,,,,Task,24,(2x2) + 5,9,,,,,,,,,,,,,,,,,,,1,,,,,,,,,,,,,,,,,,,,,,,"[""9""]",1,[2.7432000000029575],0,0,0,23,1,,,,,,,,,,,,,,,,,,,,,,,,,,
,,,,,,,,,,,X V Q F H G B L J M P D K C T S W R N Z,5f966b181caf595331d1685e,45,Mężczyzna,2022-06-11_09h25.06.494,task,2021.1.4,MacIntel,60.04202942,6299f149e92ead563fba08ef,62a44328412e284fb5dcb2db,,,,,,,,,,,,,,,,,,,,,,,,,,,,,,,,,,,,,,,,,,,,,,,,,,,,,,,,,,,,,,,,,,,,,,,,,,,,4,0,4,0,1,,,,,,,,,,,,,,,,,,,,,
,,,,,,,,,,,,5f966b181caf595331d1685e,45,Mężczyzna,2022-06-11_09h25.06.494,task,2021.1.4,MacIntel,60.04202942,6299f149e92ead563fba08ef,62a44328412e284fb5dcb2db,,,,,,,,,,,,,2,,,,,,,,,,Task,19,(6/2) - 1,2,,,,,,,,,,,,,,,,,,,1,,,,,,,,,,,,,,,,,,,,,,,"[""2""]",1,[2.1833000000118545],0,0,0,18,1,,,,,,,,,,,,,,,,,,,,,,,,,,
,,,,,,,,,,,X V Q F H G B L J M P D K C T S W R N Z,5f966b181caf595331d1685e,45,Mężczyzna,2022-06-11_09h25.06.494,task,2021.1.4,MacIntel,60.04202942,6299f149e92ead563fba08ef,62a44328412e284fb5dcb2db,,,,,,,,,,,,,,,,,,,,,,,,,,,,,,,,,,,,,,,,,,,,,,,,,,,,,,,,,,,,,,,,,,,,,,,,,,,,5,0,5,0,1,,,,,,,,,,,,,,,,,,,,,
,,,,,,,,,,,,5f966b181caf595331d1685e,45,Mężczyzna,2022-06-11_09h25.06.494,task,2021.1.4,MacIntel,60.04202942,6299f149e92ead563fba08ef,62a44328412e284fb5dcb2db,,,,,,,,,,,,,2,,,,,,,,,,Task,2,(2x2) - 2,2,,,,,,,,,,,,,,,,,,,1,,,,,,,,,,,,,,,,,,,,,,,"[""2""]",1,[2.2649999999999864],0,0,0,1,1,,,,,,,,,,,,,,,,,,,,,,,,,,
,,,,,,,,,,,X V Q F H G B L J M P D K C T S W R N Z,5f966b181caf595331d1685e,45,Mężczyzna,2022-06-11_09h25.06.494,task,2021.1.4,MacIntel,60.04202942,6299f149e92ead563fba08ef,62a44328412e284fb5dcb2db,,,,,,,,,,,,,,,,,,,,,,,,,,,,,,,,,,,,,,,,,,,,,,,,,,,,,,,,,,,,,,,,,,,,,,,,,,,,6,0,6,0,1,,,,,,,,,,,,,,,,,,,,,
,,,,,,,,,,,,5f966b181caf595331d1685e,45,Mężczyzna,2022-06-11_09h25.06.494,task,2021.1.4,MacIntel,60.04202942,6299f149e92ead563fba08ef,62a44328412e284fb5dcb2db,,,,,,,,,,,,,4,,,,,,,,,,Task,4,(1x5) - 1,4,,,,,,,,,,,,,,,,,,,1,,,,,,,,,,,,,,,,,,,,,,,"[""4""]",1,[2.6955999999939877],0,0,0,3,1,,,,,,,,,,,,,,,,,,,,,,,,,,
,,,,,,,,,,,X V Q F H G B L J M P D K C T S W R N Z,5f966b181caf595331d1685e,45,Mężczyzna,2022-06-11_09h25.06.494,task,2021.1.4,MacIntel,60.04202942,6299f149e92ead563fba08ef,62a44328412e284fb5dcb2db,,,,,,,,,,,,,,,,,,,,,,,,,,,,,,,,,,,,,,,,,,,,,,,,,,,,,,,,,,,,,,,,,,,,,,,,,,,,7,0,7,0,1,,,,,,,,,,,,,,,,,,,,,
,,,,,,,,,,,,5f966b181caf595331d1685e,45,Mężczyzna,2022-06-11_09h25.06.494,task,2021.1.4,MacIntel,60.04202942,6299f149e92ead563fba08ef,62a44328412e284fb5dcb2db,,,,,,,,,,,,,,,,,,,,,,,,,,,,,,,,,,,,,,,,,,,,,,,,,,,,,,,,,,,,,,,,,,,,,,,,,,,,,,,,,dbclpkgj,"[""d"",""b"",""c"",""l"",""p"",""k"",""g"",""j""]",0,"[3.6213000000118427,4.2213000000118654,5.845300000011889,7.021700000002966,8.293300000011868,9.366499999999974,10.864100000008875,12.092499999999973,30.051300000011906]",1,DBCLPKGJ,6,0,6,0,1,,,,,,,,,,
,,,,,,,,,,,,5f966b181caf595331d1685e,45,Mężczyzna,2022-06-11_09h25.06.494,task,2021.1.4,MacIntel,60.04202942,6299f149e92ead563fba08ef,62a44328412e284fb5dcb2db,,,,,,,,,,,,,8,,,,,,,,,,Task,15,(3x7) - 13,8,,,,,,,,,,,,,,,,,,,1,,,,,,,,,,,,,,,,,,,,,,,"[""8""]",1,[4.411100000008901],0,0,0,14,1,,,,,,,,,,,,,,,,,,,,,,,,,,
,,,,,,,,,,,X V Q F H G B L J M P D K C T S W R N Z,5f966b181caf595331d1685e,45,Mężczyzna,2022-06-11_09h25.06.494,task,2021.1.4,MacIntel,60.04202942,6299f149e92ead563fba08ef,62a44328412e284fb5dcb2db,,,,,,,,,,,,,,,,,,,,,,,,,,,,,,,,,,,,,,,,,,,,,,,,,,,,,,,,,,,,,,,,,,,,,,,,,,,,0,0,0,0,1,,,,,,,,,,,,,,,,,,,,,
,,,,,,,,,,,,5f966b181caf595331d1685e,45,Mężczyzna,2022-06-11_09h25.06.494,task,2021.1.4,MacIntel,60.04202942,6299f149e92ead563fba08ef,62a44328412e284fb5dcb2db,,,,,,,,,,,,,5,,,,,,,,,,Task,36,(8/4) + 3,5,,,,,,,,,,,,,,,,,,,1,,,,,,,,,,,,,,,,,,,,,,,"[""5""]",1,[3.4591999999880727],0,0,0,35,1,,,,,,,,,,,,,,,,,,,,,,,,,,
,,,,,,,,,,,X V Q F H G B L J M P D K C T S W R N Z,5f966b181caf595331d1685e,45,Mężczyzna,2022-06-11_09h25.06.494,task,2021.1.4,MacIntel,60.04202942,6299f149e92ead563fba08ef,62a44328412e284fb5dcb2db,,,,,,,,,,,,,,,,,,,,,,,,,,,,,,,,,,,,,,,,,,,,,,,,,,,,,,,,,,,,,,,,,,,,,,,,,,,,1,0,1,0,1,,,,,,,,,,,,,,,,,,,,,
,,,,,,,,,,,,5f966b181caf595331d1685e,45,Mężczyzna,2022-06-11_09h25.06.494,task,2021.1.4,MacIntel,60.04202942,6299f149e92ead563fba08ef,62a44328412e284fb5dcb2db,,,,,,,,,,,,,4,,,,,,,,,,Task,28,(2x5) - 6,4,,,,,,,,,,,,,,,,,,,1,,,,,,,,,,,,,,,,,,,,,,,"[""4""]",1,[2.2270999999940386],0,0,0,27,1,,,,,,,,,,,,,,,,,,,,,,,,,,
,,,,,,,,,,,X V Q F H G B L J M P D K C T S W R N Z,5f966b181caf595331d1685e,45,Mężczyzna,2022-06-11_09h25.06.494,task,2021.1.4,MacIntel,60.04202942,6299f149e92ead563fba08ef,62a44328412e284fb5dcb2db,,,,,,,,,,,,,,,,,,,,,,,,,,,,,,,,,,,,,,,,,,,,,,,,,,,,,,,,,,,,,,,,,,,,,,,,,,,,2,0,2,0,1,,,,,,,,,,,,,,,,,,,,,
,,,,,,,,,,,,5f966b181caf595331d1685e,45,Mężczyzna,2022-06-11_09h25.06.494,task,2021.1.4,MacIntel,60.04202942,6299f149e92ead563fba08ef,62a44328412e284fb5dcb2db,,,,,,,,,,,,,9,,,,,,,,,,Task,24,(2x2) + 5,9,,,,,,,,,,,,,,,,,,,1,,,,,,,,,,,,,,,,,,,,,,,"[""9""]",1,[1.9184999999999945],0,0,0,23,1,,,,,,,,,,,,,,,,,,,,,,,,,,
,,,,,,,,,,,X V Q F H G B L J M P D K C T S W R N Z,5f966b181caf595331d1685e,45,Mężczyzna,2022-06-11_09h25.06.494,task,2021.1.4,MacIntel,60.04202942,6299f149e92ead563fba08ef,62a44328412e284fb5dcb2db,,,,,,,,,,,,,,,,,,,,,,,,,,,,,,,,,,,,,,,,,,,,,,,,,,,,,,,,,,,,,,,,,,,,,,,,,,,,3,0,3,0,1,,,,,,,,,,,,,,,,,,,,,
,,,,,,,,,,,,5f966b181caf595331d1685e,45,Mężczyzna,2022-06-11_09h25.06.494,task,2021.1.4,MacIntel,60.04202942,6299f149e92ead563fba08ef,62a44328412e284fb5dcb2db,,,,,,,,,,,,,4,,,,,,,,,,Task,4,(1x5) - 1,4,,,,,,,,,,,,,,,,,,,1,,,,,,,,,,,,,,,,,,,,,,,"[""4""]",1,[1.961599999994064],0,0,0,3,1,,,,,,,,,,,,,,,,,,,,,,,,,,
,,,,,,,,,,,X V Q F H G B L J M P D K C T S W R N Z,5f966b181caf595331d1685e,45,Mężczyzna,2022-06-11_09h25.06.494,task,2021.1.4,MacIntel,60.04202942,6299f149e92ead563fba08ef,62a44328412e284fb5dcb2db,,,,,,,,,,,,,,,,,,,,,,,,,,,,,,,,,,,,,,,,,,,,,,,,,,,,,,,,,,,,,,,,,,,,,,,,,,,,4,0,4,0,1,,,,,,,,,,,,,,,,,,,,,
,,,,,,,,,,,,5f966b181caf595331d1685e,45,Mężczyzna,2022-06-11_09h25.06.494,task,2021.1.4,MacIntel,60.04202942,6299f149e92ead563fba08ef,62a44328412e284fb5dcb2db,,,,,,,,,,,,,6,,,,,,,,,,Task,13,(3x4) - 6,6,,,,,,,,,,,,,,,,,,,1,,,,,,,,,,,,,,,,,,,,,,,"[""6""]",1,[2.849200000002952],0,0,0,12,1,,,,,,,,,,,,,,,,,,,,,,,,,,
,,,,,,,,,,,X V Q F H G B L J M P D K C T S W R N Z,5f966b181caf595331d1685e,45,Mężczyzna,2022-06-11_09h25.06.494,task,2021.1.4,MacIntel,60.04202942,6299f149e92ead563fba08ef,62a44328412e284fb5dcb2db,,,,,,,,,,,,,,,,,,,,,,,,,,,,,,,,,,,,,,,,,,,,,,,,,,,,,,,,,,,,,,,,,,,,,,,,,,,,5,0,5,0,1,,,,,,,,,,,,,,,,,,,,,
,,,,,,,,,,,,5f966b181caf595331d1685e,45,Mężczyzna,2022-06-11_09h25.06.494,task,2021.1.4,MacIntel,60.04202942,6299f149e92ead563fba08ef,62a44328412e284fb5dcb2db,,,,,,,,,,,,,1,,,,,,,,,,Task,18,(16/4) - 3,1,,,,,,,,,,,,,,,,,,,1,,,,,,,,,,,,,,,,,,,,,,,"[""1""]",1,[3.097299999996949],0,0,0,17,1,,,,,,,,,,,,,,,,,,,,,,,,,,
,,,,,,,,,,,X V Q F H G B L J M P D K C T S W R N Z,5f966b181caf595331d1685e,45,Mężczyzna,2022-06-11_09h25.06.494,task,2021.1.4,MacIntel,60.04202942,6299f149e92ead563fba08ef,62a44328412e284fb5dcb2db,,,,,,,,,,,,,,,,,,,,,,,,,,,,,,,,,,,,,,,,,,,,,,,,,,,,,,,,,,,,,,,,,,,,,,,,,,,,6,0,6,0,1,,,,,,,,,,,,,,,,,,,,,
,,,,,,,,,,,,5f966b181caf595331d1685e,45,Mężczyzna,2022-06-11_09h25.06.494,task,2021.1.4,MacIntel,60.04202942,6299f149e92ead563fba08ef,62a44328412e284fb5dcb2db,,,,,,,,,,,,,9,,,,,,,,,,Task,7,(3x7) - 12,9,,,,,,,,,,,,,,,,,,,1,,,,,,,,,,,,,,,,,,,,,,,"[""9""]",1,[2.727400000006014],0,0,0,6,1,,,,,,,,,,,,,,,,,,,,,,,,,,
,,,,,,,,,,,X V Q F H G B L J M P D K C T S W R N Z,5f966b181caf595331d1685e,45,Mężczyzna,2022-06-11_09h25.06.494,task,2021.1.4,MacIntel,60.04202942,6299f149e92ead563fba08ef,62a44328412e284fb5dcb2db,,,,,,,,,,,,,,,,,,,,,,,,,,,,,,,,,,,,,,,,,,,,,,,,,,,,,,,,,,,,,,,,,,,,,,,,,,,,7,0,7,0,1,,,,,,,,,,,,,,,,,,,,,
,,,,,,,,,,,,5f966b181caf595331d1685e,45,Mężczyzna,2022-06-11_09h25.06.494,task,2021.1.4,MacIntel,60.04202942,6299f149e92ead563fba08ef,62a44328412e284fb5dcb2db,,,,,,,,,,,,,3,,,,,,,,,,Task,35,(1x2) + 1,3,,,,,,,,,,,,,,,,,,,1,,,,,,,,,,,,,,,,,,,,,,,"[""3""]",1,[2.4980000000000473],0,0,0,34,1,,,,,,,,,,,,,,,,,,,,,,,,,,
,,,,,,,,,,,X V Q F H G B L J M P D K C T S W R N Z,5f966b181caf595331d1685e,45,Mężczyzna,2022-06-11_09h25.06.494,task,2021.1.4,MacIntel,60.04202942,6299f149e92ead563fba08ef,62a44328412e284fb5dcb2db,,,,,,,,,,,,,,,,,,,,,,,,,,,,,,,,,,,,,,,,,,,,,,,,,,,,,,,,,,,,,,,,,,,,,,,,,,,,8,0,8,0,1,,,,,,,,,,,,,,,,,,,,,
,,,,,,,,,,,,5f966b181caf595331d1685e,45,Mężczyzna,2022-06-11_09h25.06.494,task,2021.1.4,MacIntel,60.04202942,6299f149e92ead563fba08ef,62a44328412e284fb5dcb2db,,,,,,,,,,,,,,,,,,,,,,,,,,,,,,,,,,,,,,,,,,,,,,,,,,,,,,,,,,,,,,,,,,,,,,,,,,,,,,,,,mlfwpvlkf,"[""m"",""l"",""f"",""w"",""p"",""v"",""l"",""k"",""f""]",0,"[2.870700000003012,3.4308000000119137,5.044500000000085,6.277700000003051,7.941900000006058,8.729000000000042,10.665700000002971,11.091100000008964,11.944000000000074,22.033999999999992]",1,MLFWPVLKF,7,0,7,0,1,,,,,,,,,,
,,,,,,,,,,,,5f966b181caf595331d1685e,45,Mężczyzna,2022-06-11_09h25.06.494,task,2021.1.4,MacIntel,60.04202942,6299f149e92ead563fba08ef,62a44328412e284fb5dcb2db,,,,,,,,,,,,,9,,,,,,,,,,Task,40,(7x2) - 5,9,,,,,,,,,,,,,,,,,,,1,,,,,,,,,,,,,,,,,,,,,,,"[""9""]",1,[2.529700000003004],0,0,0,39,1,,,,,,,,,,,,,,,,,,,,,,,,,,
,,,,,,,,,,,X V Q F H G B L J M P D K C T S W R N Z,5f966b181caf595331d1685e,45,Mężczyzna,2022-06-11_09h25.06.494,task,2021.1.4,MacIntel,60.04202942,6299f149e92ead563fba08ef,62a44328412e284fb5dcb2db,,,,,,,,,,,,,,,,,,,,,,,,,,,,,,,,,,,,,,,,,,,,,,,,,,,,,,,,,,,,,,,,,,,,,,,,,,,,0,0,0,0,1,,,,,,,,,,,,,,,,,,,,,
,,,,,,,,,,,,5f966b181caf595331d1685e,45,Mężczyzna,2022-06-11_09h25.06.494,task,2021.1.4,MacIntel,60.04202942,6299f149e92ead563fba08ef,62a44328412e284fb5dcb2db,,,,,,,,,,,,,4,,,,,,,,,,Task,11,(18/3) - 2,4,,,,,,,,,,,,,,,,,,,1,,,,,,,,,,,,,,,,,,,,,,,"[""4""]",1,[2.7166999999881227],0,0,0,10,1,,,,,,,,,,,,,,,,,,,,,,,,,,
,,,,,,,,,,,X V Q F H G B L J M P D K C T S W R N Z,5f966b181caf595331d1685e,45,Mężczyzna,2022-06-11_09h25.06.494,task,2021.1.4,MacIntel,60.04202942,6299f149e92ead563fba08ef,62a44328412e284fb5dcb2db,,,,,,,,,,,,,,,,,,,,,,,,,,,,,,,,,,,,,,,,,,,,,,,,,,,,,,,,,,,,,,,,,,,,,,,,,,,,1,0,1,0,1,,,,,,,,,,,,,,,,,,,,,
,,,,,,,,,,,,5f966b181caf595331d1685e,45,Mężczyzna,2022-06-11_09h25.06.494,task,2021.1.4,MacIntel,60.04202942,6299f149e92ead563fba08ef,62a44328412e284fb5dcb2db,,,,,,,,,,,,,7,,,,,,,,,,Task,31,(4/2) + 5,7,,,,,,,,,,,,,,,,,,,1,,,,,,,,,,,,,,,,,,,,,,,"[""7""]",1,[2.500700000002894],0,0,0,30,1,,,,,,,,,,,,,,,,,,,,,,,,,,
,,,,,,,,,,,X V Q F H G B L J M P D K C T S W R N Z,5f966b181caf595331d1685e,45,Mężczyzna,2022-06-11_09h25.06.494,task,2021.1.4,MacIntel,60.04202942,6299f149e92ead563fba08ef,62a44328412e284fb5dcb2db,,,,,,,,,,,,,,,,,,,,,,,,,,,,,,,,,,,,,,,,,,,,,,,,,,,,,,,,,,,,,,,,,,,,,,,,,,,,2,0,2,0,1,,,,,,,,,,,,,,,,,,,,,
,,,,,,,,,,,,5f966b181caf595331d1685e,45,Mężczyzna,2022-06-11_09h25.06.494,task,2021.1.4,MacIntel,60.04202942,6299f149e92ead563fba08ef,62a44328412e284fb5dcb2db,,,,,,,,,,,,,7,,,,,,,,,,Task,38,(4x6) - 17,7,,,,,,,,,,,,,,,,,,,1,,,,,,,,,,,,,,,,,,,,,,,"[""7""]",1,[2.767400000005864],0,0,0,37,1,,,,,,,,,,,,,,,,,,,,,,,,,,
,,,,,,,,,,,X V Q F H G B L J M P D K C T S W R N Z,5f966b181caf595331d1685e,45,Mężczyzna,2022-06-11_09h25.06.494,task,2021.1.4,MacIntel,60.04202942,6299f149e92ead563fba08ef,62a44328412e284fb5dcb2db,,,,,,,,,,,,,,,,,,,,,,,,,,,,,,,,,,,,,,,,,,,,,,,,,,,,,,,,,,,,,,,,,,,,,,,,,,,,3,0,3,0,1,,,,,,,,,,,,,,,,,,,,,
,,,,,,,,,,,,5f966b181caf595331d1685e,45,Mężczyzna,2022-06-11_09h25.06.494,task,2021.1.4,MacIntel,60.04202942,6299f149e92ead563fba08ef,62a44328412e284fb5dcb2db,,,,,,,,,,,,,0,,,,,,,,,,Task,8,(1x5) - 5,0,,,,,,,,,,,,,,,,,,,1,,,,,,,,,,,,,,,,,,,,,,,"[""0""]",1,[1.8468999999910238],0,0,0,7,1,,,,,,,,,,,,,,,,,,,,,,,,,,
,,,,,,,,,,,X V Q F H G B L J M P D K C T S W R N Z,5f966b181caf595331d1685e,45,Mężczyzna,2022-06-11_09h25.06.494,task,2021.1.4,MacIntel,60.04202942,6299f149e92ead563fba08ef,62a44328412e284fb5dcb2db,,,,,,,,,,,,,,,,,,,,,,,,,,,,,,,,,,,,,,,,,,,,,,,,,,,,,,,,,,,,,,,,,,,,,,,,,,,,4,0,4,0,1,,,,,,,,,,,,,,,,,,,,,
,,,,,,,,,,,,5f966b181caf595331d1685e,45,Mężczyzna,2022-06-11_09h25.06.494,task,2021.1.4,MacIntel,60.04202942,6299f149e92ead563fba08ef,62a44328412e284fb5dcb2db,,,,,,,,,,,,,7,,,,,,,,,,Task,14,(2x2) + 3,7,,,,,,,,,,,,,,,,,,,1,,,,,,,,,,,,,,,,,,,,,,,"[""7""]",1,[2.77880000001187],0,0,0,13,1,,,,,,,,,,,,,,,,,,,,,,,,,,
,,,,,,,,,,,X V Q F H G B L J M P D K C T S W R N Z,5f966b181caf595331d1685e,45,Mężczyzna,2022-06-11_09h25.06.494,task,2021.1.4,MacIntel,60.04202942,6299f149e92ead563fba08ef,62a44328412e284fb5dcb2db,,,,,,,,,,,,,,,,,,,,,,,,,,,,,,,,,,,,,,,,,,,,,,,,,,,,,,,,,,,,,,,,,,,,,,,,,,,,5,0,5,0,1,,,,,,,,,,,,,,,,,,,,,
,,,,,,,,,,,,5f966b181caf595331d1685e,45,Mężczyzna,2022-06-11_09h25.06.494,task,2021.1.4,MacIntel,60.04202942,6299f149e92ead563fba08ef,62a44328412e284fb5dcb2db,,,,,,,,,,,,,4,,,,,,,,,,Task,21,(10/2) - 1,4,,,,,,,,,,,,,,,,,,,1,,,,,,,,,,,,,,,,,,,,,,,"[""4""]",1,[2.3654999999999973],0,0,0,20,1,,,,,,,,,,,,,,,,,,,,,,,,,,
,,,,,,,,,,,X V Q F H G B L J M P D K C T S W R N Z,5f966b181caf595331d1685e,45,Mężczyzna,2022-06-11_09h25.06.494,task,2021.1.4,MacIntel,60.04202942,6299f149e92ead563fba08ef,62a44328412e284fb5dcb2db,,,,,,,,,,,,,,,,,,,,,,,,,,,,,,,,,,,,,,,,,,,,,,,,,,,,,,,,,,,,,,,,,,,,,,,,,,,,6,0,6,0,1,,,,,,,,,,,,,,,,,,,,,
,,,,,,,,,,,,5f966b181caf595331d1685e,45,Mężczyzna,2022-06-11_09h25.06.494,task,2021.1.4,MacIntel,60.04202942,6299f149e92ead563fba08ef,62a44328412e284fb5dcb2db,,,,,,,,,,,,,7,,,,,,,,,,Task,30,(6/3) + 4 ,6,,,,,,,,,,,,,,,,,,,0,,,,,,,,,,,,,,,,,,,,,,,"[""7""]",0,[2.018000000000029],0,0,0,29,1,,,,,,,,,,,,,,,,,,,,,,,,,,
,,,,,,,,,,,,5f966b181caf595331d1685e,45,Mężczyzna,2022-06-11_09h25.06.494,task,2021.1.4,MacIntel,60.04202942,6299f149e92ead563fba08ef,62a44328412e284fb5dcb2db,,,,,,,,,,,,,4,,,,,,,,,,Task,11,(18/3) - 2,4,,,,,,,,,,,,,,,,,,,1,,,,,,,,,,,,,,,,,,,,,,,"[""4""]",1,[4.179599999994025],0,1,1,10,1,,,,,,,,,,,,,,,,,,,,,,,,,,
,,,,,,,,,,,X V Q F H G B L J M P D K C T S W R N Z,5f966b181caf595331d1685e,45,Mężczyzna,2022-06-11_09h25.06.494,task,2021.1.4,MacIntel,60.04202942,6299f149e92ead563fba08ef,62a44328412e284fb5dcb2db,,,,,,,,,,,,,,,,,,,,,,,,,,,,,,,,,,,,,,,,,,,,,,,,,,,,,,,,,,,,,,,,,,,,,,,,,,,,7,0,7,0,1,,,,,,,,,,,,,,,,,,,,,
,,,,,,,,,,,,5f966b181caf595331d1685e,45,Mężczyzna,2022-06-11_09h25.06.494,task,2021.1.4,MacIntel,60.04202942,6299f149e92ead563fba08ef,62a44328412e284fb5dcb2db,,,,,,,,,,,,,4,,,,,,,,,,Task,4,(1x5) - 1,4,,,,,,,,,,,,,,,,,,,1,,,,,,,,,,,,,,,,,,,,,,,"[""4""]",1,[2.336200000003032],0,0,0,3,1,,,,,,,,,,,,,,,,,,,,,,,,,,
,,,,,,,,,,,X V Q F H G B L J M P D K C T S W R N Z,5f966b181caf595331d1685e,45,Mężczyzna,2022-06-11_09h25.06.494,task,2021.1.4,MacIntel,60.04202942,6299f149e92ead563fba08ef,62a44328412e284fb5dcb2db,,,,,,,,,,,,,,,,,,,,,,,,,,,,,,,,,,,,,,,,,,,,,,,,,,,,,,,,,,,,,,,,,,,,,,,,,,,,8,0,8,0,1,,,,,,,,,,,,,,,,,,,,,
,,,,,,,,,,,,5f966b181caf595331d1685e,45,Mężczyzna,2022-06-11_09h25.06.494,task,2021.1.4,MacIntel,60.04202942,6299f149e92ead563fba08ef,62a44328412e284fb5dcb2db,,,,,,,,,,,,,5,,,,,,,,,,Task,29,(3x8) - 19 ,5,,,,,,,,,,,,,,,,,,,1,,,,,,,,,,,,,,,,,,,,,,,"[""5""]",1,[2.633400000005963],0,0,0,28,1,,,,,,,,,,,,,,,,,,,,,,,,,,
,,,,,,,,,,,X V Q F H G B L J M P D K C T S W R N Z,5f966b181caf595331d1685e,45,Mężczyzna,2022-06-11_09h25.06.494,task,2021.1.4,MacIntel,60.04202942,6299f149e92ead563fba08ef,62a44328412e284fb5dcb2db,,,,,,,,,,,,,,,,,,,,,,,,,,,,,,,,,,,,,,,,,,,,,,,,,,,,,,,,,,,,,,,,,,,,,,,,,,,,9,0,9,0,1,,,,,,,,,,,,,,,,,,,,,
,,,,,,,,,,,,5f966b181caf595331d1685e,45,Mężczyzna,2022-06-11_09h25.06.494,task,2021.1.4,MacIntel,60.04202942,6299f149e92ead563fba08ef,62a44328412e284fb5dcb2db,,,,,,,,,,,,,,,,,,,,,,,,,,,,,,,,,,,,,,,,,,,,,,,,,,,,,,,,,,,,,,,,,,,,,,,,,,,,,,,,,kkxdcqlxzw,"[""k"",""k"",""x"",""d"",""c"",""q"",""l"",""x"",""z"",""w""]",0,"[6.187400000005937,7.452499999999986,8.096499999999992,9.583499999999958,10.182000000000016,11.365499999999997,12.635900000006018,14.449200000002975,17.395799999997053,17.67660000000899,29.592299999997067]",1,KKXDCQLXZW,8,0,8,0,1,,,,,,,,,,
,,,,,,,,,,,,5f966b181caf595331d1685e,45,Mężczyzna,2022-06-11_09h25.06.494,task,2021.1.4,MacIntel,60.04202942,6299f149e92ead563fba08ef,62a44328412e284fb5dcb2db,,,,,,,,,,,,,1,,,,,,,,,,Task,9,(3x7) - 20,1,,,,,,,,,,,,,,,,,,,1,,,,,,,,,,,,,,,,,,,,,,,"[""1""]",1,[1.8102000000029648],0,0,0,8,1,,,,,,,,,,,,,,,,,,,,,,,,,,
,,,,,,,,,,,X V Q F H G B L J M P D K C T S W R N Z,5f966b181caf595331d1685e,45,Mężczyzna,2022-06-11_09h25.06.494,task,2021.1.4,MacIntel,60.04202942,6299f149e92ead563fba08ef,62a44328412e284fb5dcb2db,,,,,,,,,,,,,,,,,,,,,,,,,,,,,,,,,,,,,,,,,,,,,,,,,,,,,,,,,,,,,,,,,,,,,,,,,,,,0,0,0,0,1,,,,,,,,,,,,,,,,,,,,,
,,,,,,,,,,,,5f966b181caf595331d1685e,45,Mężczyzna,2022-06-11_09h25.06.494,task,2021.1.4,MacIntel,60.04202942,6299f149e92ead563fba08ef,62a44328412e284fb5dcb2db,,,,,,,,,,,,,1,,,,,,,,,,Task,20,(18/9) + 1,3,,,,,,,,,,,,,,,,,,,0,,,,,,,,,,,,,,,,,,,,,,,"[""1""]",0,[3.066400000005956],0,0,0,19,1,,,,,,,,,,,,,,,,,,,,,,,,,,
,,,,,,,,,,,,5f966b181caf595331d1685e,45,Mężczyzna,2022-06-11_09h25.06.494,task,2021.1.4,MacIntel,60.04202942,6299f149e92ead563fba08ef,62a44328412e284fb5dcb2db,,,,,,,,,,,,,8,,,,,,,,,,Task,23,(2x3) + 2,8,,,,,,,,,,,,,,,,,,,1,,,,,,,,,,,,,,,,,,,,,,,"[""8""]",1,[2.7515999999940277],0,1,1,22,1,,,,,,,,,,,,,,,,,,,,,,,,,,
,,,,,,,,,,,X V Q F H G B L J M P D K C T S W R N Z,5f966b181caf595331d1685e,45,Mężczyzna,2022-06-11_09h25.06.494,task,2021.1.4,MacIntel,60.04202942,6299f149e92ead563fba08ef,62a44328412e284fb5dcb2db,,,,,,,,,,,,,,,,,,,,,,,,,,,,,,,,,,,,,,,,,,,,,,,,,,,,,,,,,,,,,,,,,,,,,,,,,,,,1,0,1,0,1,,,,,,,,,,,,,,,,,,,,,
,,,,,,,,,,,,5f966b181caf595331d1685e,45,Mężczyzna,2022-06-11_09h25.06.494,task,2021.1.4,MacIntel,60.04202942,6299f149e92ead563fba08ef,62a44328412e284fb5dcb2db,,,,,,,,,,,,,0,,,,,,,,,,Task,8,(1x5) - 5,0,,,,,,,,,,,,,,,,,,,1,,,,,,,,,,,,,,,,,,,,,,,"[""0""]",1,[1.6787999999969543],0,0,0,7,1,,,,,,,,,,,,,,,,,,,,,,,,,,
,,,,,,,,,,,X V Q F H G B L J M P D K C T S W R N Z,5f966b181caf595331d1685e,45,Mężczyzna,2022-06-11_09h25.06.494,task,2021.1.4,MacIntel,60.04202942,6299f149e92ead563fba08ef,62a44328412e284fb5dcb2db,,,,,,,,,,,,,,,,,,,,,,,,,,,,,,,,,,,,,,,,,,,,,,,,,,,,,,,,,,,,,,,,,,,,,,,,,,,,2,0,2,0,1,,,,,,,,,,,,,,,,,,,,,
,,,,,,,,,,,,5f966b181caf595331d1685e,45,Mężczyzna,2022-06-11_09h25.06.494,task,2021.1.4,MacIntel,60.04202942,6299f149e92ead563fba08ef,62a44328412e284fb5dcb2db,,,,,,,,,,,,,5,,,,,,,,,,Task,12,(4x4) - 11,5,,,,,,,,,,,,,,,,,,,1,,,,,,,,,,,,,,,,,,,,,,,"[""5""]",1,[4.389900000005923],0,0,0,11,1,,,,,,,,,,,,,,,,,,,,,,,,,,
,,,,,,,,,,,X V Q F H G B L J M P D K C T S W R N Z,5f966b181caf595331d1685e,45,Mężczyzna,2022-06-11_09h25.06.494,task,2021.1.4,MacIntel,60.04202942,6299f149e92ead563fba08ef,62a44328412e284fb5dcb2db,,,,,,,,,,,,,,,,,,,,,,,,,,,,,,,,,,,,,,,,,,,,,,,,,,,,,,,,,,,,,,,,,,,,,,,,,,,,3,0,3,0,1,,,,,,,,,,,,,,,,,,,,,
,,,,,,,,,,,,5f966b181caf595331d1685e,45,Mężczyzna,2022-06-11_09h25.06.494,task,2021.1.4,MacIntel,60.04202942,6299f149e92ead563fba08ef,62a44328412e284fb5dcb2db,,,,,,,,,,,,,0,,,,,,,,,,Task,8,(1x5) - 5,0,,,,,,,,,,,,,,,,,,,1,,,,,,,,,,,,,,,,,,,,,,,"[""0""]",1,[1.5942000000029566],0,0,0,7,1,,,,,,,,,,,,,,,,,,,,,,,,,,
,,,,,,,,,,,X V Q F H G B L J M P D K C T S W R N Z,5f966b181caf595331d1685e,45,Mężczyzna,2022-06-11_09h25.06.494,task,2021.1.4,MacIntel,60.04202942,6299f149e92ead563fba08ef,62a44328412e284fb5dcb2db,,,,,,,,,,,,,,,,,,,,,,,,,,,,,,,,,,,,,,,,,,,,,,,,,,,,,,,,,,,,,,,,,,,,,,,,,,,,4,0,4,0,1,,,,,,,,,,,,,,,,,,,,,
,,,,,,,,,,,,5f966b181caf595331d1685e,45,Mężczyzna,2022-06-11_09h25.06.494,task,2021.1.4,MacIntel,60.04202942,6299f149e92ead563fba08ef,62a44328412e284fb5dcb2db,,,,,,,,,,,,,9,,,,,,,,,,Task,16,(3x8) - 15,9,,,,,,,,,,,,,,,,,,,1,,,,,,,,,,,,,,,,,,,,,,,"[""9""]",1,[2.311200000002941],0,0,0,15,1,,,,,,,,,,,,,,,,,,,,,,,,,,
,,,,,,,,,,,X V Q F H G B L J M P D K C T S W R N Z,5f966b181caf595331d1685e,45,Mężczyzna,2022-06-11_09h25.06.494,task,2021.1.4,MacIntel,60.04202942,6299f149e92ead563fba08ef,62a44328412e284fb5dcb2db,,,,,,,,,,,,,,,,,,,,,,,,,,,,,,,,,,,,,,,,,,,,,,,,,,,,,,,,,,,,,,,,,,,,,,,,,,,,5,0,5,0,1,,,,,,,,,,,,,,,,,,,,,
,,,,,,,,,,,,5f966b181caf595331d1685e,45,Mężczyzna,2022-06-11_09h25.06.494,task,2021.1.4,MacIntel,60.04202942,6299f149e92ead563fba08ef,62a44328412e284fb5dcb2db,,,,,,,,,,,,,1,,,,,,,,,,Task,37,(3/3) + 5,6,,,,,,,,,,,,,,,,,,,0,,,,,,,,,,,,,,,,,,,,,,,"[""1""]",0,[4.710000000000036],0,0,0,36,1,,,,,,,,,,,,,,,,,,,,,,,,,,
,,,,,,,,,,,,5f966b181caf595331d1685e,45,Mężczyzna,2022-06-11_09h25.06.494,task,2021.1.4,MacIntel,60.04202942,6299f149e92ead563fba08ef,62a44328412e284fb5dcb2db,,,,,,,,,,,,,2,,,,,,,,,,Task,19,(6/2) - 1,2,,,,,,,,,,,,,,,,,,,1,,,,,,,,,,,,,,,,,,,,,,,"[""2""]",1,[3.484499999999912],0,1,1,18,1,,,,,,,,,,,,,,,,,,,,,,,,,,
,,,,,,,,,,,X V Q F H G B L J M P D K C T S W R N Z,5f966b181caf595331d1685e,45,Mężczyzna,2022-06-11_09h25.06.494,task,2021.1.4,MacIntel,60.04202942,6299f149e92ead563fba08ef,62a44328412e284fb5dcb2db,,,,,,,,,,,,,,,,,,,,,,,,,,,,,,,,,,,,,,,,,,,,,,,,,,,,,,,,,,,,,,,,,,,,,,,,,,,,6,0,6,0,1,,,,,,,,,,,,,,,,,,,,,
,,,,,,,,,,,,5f966b181caf595331d1685e,45,Mężczyzna,2022-06-11_09h25.06.494,task,2021.1.4,MacIntel,60.04202942,6299f149e92ead563fba08ef,62a44328412e284fb5dcb2db,,,,,,,,,,,,,2,,,,,,,,,,Task,2,(2x2) - 2,2,,,,,,,,,,,,,,,,,,,1,,,,,,,,,,,,,,,,,,,,,,,"[""2""]",1,[2.8124000000060505],0,0,0,1,1,,,,,,,,,,,,,,,,,,,,,,,,,,
,,,,,,,,,,,X V Q F H G B L J M P D K C T S W R N Z,5f966b181caf595331d1685e,45,Mężczyzna,2022-06-11_09h25.06.494,task,2021.1.4,MacIntel,60.04202942,6299f149e92ead563fba08ef,62a44328412e284fb5dcb2db,,,,,,,,,,,,,,,,,,,,,,,,,,,,,,,,,,,,,,,,,,,,,,,,,,,,,,,,,,,,,,,,,,,,,,,,,,,,7,0,7,0,1,,,,,,,,,,,,,,,,,,,,,
,,,,,,,,,,,,5f966b181caf595331d1685e,45,Mężczyzna,2022-06-11_09h25.06.494,task,2021.1.4,MacIntel,60.04202942,6299f149e92ead563fba08ef,62a44328412e284fb5dcb2db,,,,,,,,,,,,,2,,,,,,,,,,Task,19,(6/2) - 1,2,,,,,,,,,,,,,,,,,,,1,,,,,,,,,,,,,,,,,,,,,,,"[""2""]",1,[3.2011999999880345],0,0,0,18,1,,,,,,,,,,,,,,,,,,,,,,,,,,
,,,,,,,,,,,X V Q F H G B L J M P D K C T S W R N Z,5f966b181caf595331d1685e,45,Mężczyzna,2022-06-11_09h25.06.494,task,2021.1.4,MacIntel,60.04202942,6299f149e92ead563fba08ef,62a44328412e284fb5dcb2db,,,,,,,,,,,,,,,,,,,,,,,,,,,,,,,,,,,,,,,,,,,,,,,,,,,,,,,,,,,,,,,,,,,,,,,,,,,,8,0,8,0,1,,,,,,,,,,,,,,,,,,,,,
,,,,,,,,,,,,5f966b181caf595331d1685e,45,Mężczyzna,2022-06-11_09h25.06.494,task,2021.1.4,MacIntel,60.04202942,6299f149e92ead563fba08ef,62a44328412e284fb5dcb2db,,,,,,,,,,,,,5,,,,,,,,,,Task,36,(8/4) + 3,5,,,,,,,,,,,,,,,,,,,1,,,,,,,,,,,,,,,,,,,,,,,"[""5""]",1,[3.2817000000029566],0,0,0,35,1,,,,,,,,,,,,,,,,,,,,,,,,,,
,,,,,,,,,,,X V Q F H G B L J M P D K C T S W R N Z,5f966b181caf595331d1685e,45,Mężczyzna,2022-06-11_09h25.06.494,task,2021.1.4,MacIntel,60.04202942,6299f149e92ead563fba08ef,62a44328412e284fb5dcb2db,,,,,,,,,,,,,,,,,,,,,,,,,,,,,,,,,,,,,,,,,,,,,,,,,,,,,,,,,,,,,,,,,,,,,,,,,,,,9,0,9,0,1,,,,,,,,,,,,,,,,,,,,,
,,,,,,,,,,,,5f966b181caf595331d1685e,45,Mężczyzna,2022-06-11_09h25.06.494,task,2021.1.4,MacIntel,60.04202942,6299f149e92ead563fba08ef,62a44328412e284fb5dcb2db,,,,,,,,,,,,,2,,,,,,,,,,Task,19,(6/2) - 1,2,,,,,,,,,,,,,,,,,,,1,,,,,,,,,,,,,,,,,,,,,,,"[""2""]",1,[2.0282000000029257],0,0,0,18,1,,,,,,,,,,,,,,,,,,,,,,,,,,
,,,,,,,,,,,X V Q F H G B L J M P D K C T S W R N Z,5f966b181caf595331d1685e,45,Mężczyzna,2022-06-11_09h25.06.494,task,2021.1.4,MacIntel,60.04202942,6299f149e92ead563fba08ef,62a44328412e284fb5dcb2db,,,,,,,,,,,,,,,,,,,,,,,,,,,,,,,,,,,,,,,,,,,,,,,,,,,,,,,,,,,,,,,,,,,,,,,,,,,,10,0,10,0,1,,,,,,,,,,,,,,,,,,,,,
,,,,,,,,,,,,5f966b181caf595331d1685e,45,Mężczyzna,2022-06-11_09h25.06.494,task,2021.1.4,MacIntel,60.04202942,6299f149e92ead563fba08ef,62a44328412e284fb5dcb2db,,,,,,,,,,,,,,,,,,,,,,,,,,,,,,,,,,,,,,,,,,,,,,,,,,,,,,,,,,,,,,,,,,,,,,,,,,,,,,,,,txrjbgbgrzn,"[""t"",""x"",""r"",""j"",""b"",""g"",""b"",""g"",""r"",""z"",""n""]",0,"[2.9181000000089625,3.455100000008997,5.165300000011939,5.832400000005919,8.481900000005908,9.95980000001191,12.044800000011946,12.480300000011994,14.908100000008972,15.387800000012021,17.70590000000584,41.240300000011985]",1,TXRJBGBGRZN,9,0,9,0,1,,,,,,,,,,
,,,,,,,,,,,,5f966b181caf595331d1685e,45,Mężczyzna,2022-06-11_09h25.06.494,task,2021.1.4,MacIntel,60.04202942,6299f149e92ead563fba08ef,62a44328412e284fb5dcb2db,,,,,,,,,,,,,6,,,,,,,,,,Task,5,(2x3) + 0,6,,,,,,,,,,,,,,,,,,,1,,,,,,,,,,,,,,,,,,,,,,,"[""6""]",1,[2.5284000000058313],0,0,0,4,1,,,,,,,,,,,,,,,,,,,,,,,,,,
,,,,,,,,,,,X V Q F H G B L J M P D K C T S W R N Z,5f966b181caf595331d1685e,45,Mężczyzna,2022-06-11_09h25.06.494,task,2021.1.4,MacIntel,60.04202942,6299f149e92ead563fba08ef,62a44328412e284fb5dcb2db,,,,,,,,,,,,,,,,,,,,,,,,,,,,,,,,,,,,,,,,,,,,,,,,,,,,,,,,,,,,,,,,,,,,,,,,,,,,0,0,0,0,1,,,,,,,,,,,,,,,,,,,,,
,,,,,,,,,,,,5f966b181caf595331d1685e,45,Mężczyzna,2022-06-11_09h25.06.494,task,2021.1.4,MacIntel,60.04202942,6299f149e92ead563fba08ef,62a44328412e284fb5dcb2db,,,,,,,,,,,,,8,,,,,,,,,,Task,15,(3x7) - 13,8,,,,,,,,,,,,,,,,,,,1,,,,,,,,,,,,,,,,,,,,,,,"[""8""]",1,[2.813900000006015],0,0,0,14,1,,,,,,,,,,,,,,,,,,,,,,,,,,
,,,,,,,,,,,X V Q F H G B L J M P D K C T S W R N Z,5f966b181caf595331d1685e,45,Mężczyzna,2022-06-11_09h25.06.494,task,2021.1.4,MacIntel,60.04202942,6299f149e92ead563fba08ef,62a44328412e284fb5dcb2db,,,,,,,,,,,,,,,,,,,,,,,,,,,,,,,,,,,,,,,,,,,,,,,,,,,,,,,,,,,,,,,,,,,,,,,,,,,,1,0,1,0,1,,,,,,,,,,,,,,,,,,,,,
,,,,,,,,,,,,5f966b181caf595331d1685e,45,Mężczyzna,2022-06-11_09h25.06.494,task,2021.1.4,MacIntel,60.04202942,6299f149e92ead563fba08ef,62a44328412e284fb5dcb2db,,,,,,,,,,,,,0,,,,,,,,,,Task,33,(1/1) - 1,0,,,,,,,,,,,,,,,,,,,1,,,,,,,,,,,,,,,,,,,,,,,"[""0""]",1,[2.7954999999999472],0,0,0,32,1,,,,,,,,,,,,,,,,,,,,,,,,,,
,,,,,,,,,,,X V Q F H G B L J M P D K C T S W R N Z,5f966b181caf595331d1685e,45,Mężczyzna,2022-06-11_09h25.06.494,task,2021.1.4,MacIntel,60.04202942,6299f149e92ead563fba08ef,62a44328412e284fb5dcb2db,,,,,,,,,,,,,,,,,,,,,,,,,,,,,,,,,,,,,,,,,,,,,,,,,,,,,,,,,,,,,,,,,,,,,,,,,,,,2,0,2,0,1,,,,,,,,,,,,,,,,,,,,,
,,,,,,,,,,,,5f966b181caf595331d1685e,45,Mężczyzna,2022-06-11_09h25.06.494,task,2021.1.4,MacIntel,60.04202942,6299f149e92ead563fba08ef,62a44328412e284fb5dcb2db,,,,,,,,,,,,,4,,,,,,,,,,Task,11,(18/3) - 2,4,,,,,,,,,,,,,,,,,,,1,,,,,,,,,,,,,,,,,,,,,,,"[""4""]",1,[3.0119000000058804],0,0,0,10,1,,,,,,,,,,,,,,,,,,,,,,,,,,
,,,,,,,,,,,X V Q F H G B L J M P D K C T S W R N Z,5f966b181caf595331d1685e,45,Mężczyzna,2022-06-11_09h25.06.494,task,2021.1.4,MacIntel,60.04202942,6299f149e92ead563fba08ef,62a44328412e284fb5dcb2db,,,,,,,,,,,,,,,,,,,,,,,,,,,,,,,,,,,,,,,,,,,,,,,,,,,,,,,,,,,,,,,,,,,,,,,,,,,,3,0,3,0,1,,,,,,,,,,,,,,,,,,,,,
,,,,,,,,,,,,5f966b181caf595331d1685e,45,Mężczyzna,2022-06-11_09h25.06.494,task,2021.1.4,MacIntel,60.04202942,6299f149e92ead563fba08ef,62a44328412e284fb5dcb2db,,,,,,,,,,,,,5,,,,,,,,,,Task,36,(8/4) + 3,5,,,,,,,,,,,,,,,,,,,1,,,,,,,,,,,,,,,,,,,,,,,"[""5""]",1,[2.6562000000028547],0,0,0,35,1,,,,,,,,,,,,,,,,,,,,,,,,,,
,,,,,,,,,,,X V Q F H G B L J M P D K C T S W R N Z,5f966b181caf595331d1685e,45,Mężczyzna,2022-06-11_09h25.06.494,task,2021.1.4,MacIntel,60.04202942,6299f149e92ead563fba08ef,62a44328412e284fb5dcb2db,,,,,,,,,,,,,,,,,,,,,,,,,,,,,,,,,,,,,,,,,,,,,,,,,,,,,,,,,,,,,,,,,,,,,,,,,,,,4,0,4,0,1,,,,,,,,,,,,,,,,,,,,,
,,,,,,,,,,,,5f966b181caf595331d1685e,45,Mężczyzna,2022-06-11_09h25.06.494,task,2021.1.4,MacIntel,60.04202942,6299f149e92ead563fba08ef,62a44328412e284fb5dcb2db,,,,,,,,,,,,,8,,,,,,,,,,Task,39,(5x3) - 7,8,,,,,,,,,,,,,,,,,,,1,,,,,,,,,,,,,,,,,,,,,,,"[""8""]",1,[2.59130000001187],0,0,0,38,1,,,,,,,,,,,,,,,,,,,,,,,,,,
,,,,,,,,,,,X V Q F H G B L J M P D K C T S W R N Z,5f966b181caf595331d1685e,45,Mężczyzna,2022-06-11_09h25.06.494,task,2021.1.4,MacIntel,60.04202942,6299f149e92ead563fba08ef,62a44328412e284fb5dcb2db,,,,,,,,,,,,,,,,,,,,,,,,,,,,,,,,,,,,,,,,,,,,,,,,,,,,,,,,,,,,,,,,,,,,,,,,,,,,5,0,5,0,1,,,,,,,,,,,,,,,,,,,,,
,,,,,,,,,,,,5f966b181caf595331d1685e,45,Mężczyzna,2022-06-11_09h25.06.494,task,2021.1.4,MacIntel,60.04202942,6299f149e92ead563fba08ef,62a44328412e284fb5dcb2db,,,,,,,,,,,,,5,,,,,,,,,,Task,29,(3x8) - 19 ,5,,,,,,,,,,,,,,,,,,,1,,,,,,,,,,,,,,,,,,,,,,,"[""5""]",1,[3.867599999994127],0,0,0,28,1,,,,,,,,,,,,,,,,,,,,,,,,,,
,,,,,,,,,,,X V Q F H G B L J M P D K C T S W R N Z,5f966b181caf595331d1685e,45,Mężczyzna,2022-06-11_09h25.06.494,task,2021.1.4,MacIntel,60.04202942,6299f149e92ead563fba08ef,62a44328412e284fb5dcb2db,,,,,,,,,,,,,,,,,,,,,,,,,,,,,,,,,,,,,,,,,,,,,,,,,,,,,,,,,,,,,,,,,,,,,,,,,,,,6,0,6,0,1,,,,,,,,,,,,,,,,,,,,,
,,,,,,,,,,,,5f966b181caf595331d1685e,45,Mężczyzna,2022-06-11_09h25.06.494,task,2021.1.4,MacIntel,60.04202942,6299f149e92ead563fba08ef,62a44328412e284fb5dcb2db,,,,,,,,,,,,,3,,,,,,,,,,Task,20,(18/9) + 1,3,,,,,,,,,,,,,,,,,,,1,,,,,,,,,,,,,,,,,,,,,,,"[""3""]",1,[2.843400000005886],0,0,0,19,1,,,,,,,,,,,,,,,,,,,,,,,,,,
,,,,,,,,,,,X V Q F H G B L J M P D K C T S W R N Z,5f966b181caf595331d1685e,45,Mężczyzna,2022-06-11_09h25.06.494,task,2021.1.4,MacIntel,60.04202942,6299f149e92ead563fba08ef,62a44328412e284fb5dcb2db,,,,,,,,,,,,,,,,,,,,,,,,,,,,,,,,,,,,,,,,,,,,,,,,,,,,,,,,,,,,,,,,,,,,,,,,,,,,7,0,7,0,1,,,,,,,,,,,,,,,,,,,,,
,,,,,,,,,,,,5f966b181caf595331d1685e,45,Mężczyzna,2022-06-11_09h25.06.494,task,2021.1.4,MacIntel,60.04202942,6299f149e92ead563fba08ef,62a44328412e284fb5dcb2db,,,,,,,,,,,,,4,,,,,,,,,,Task,28,(2x5) - 6,4,,,,,,,,,,,,,,,,,,,1,,,,,,,,,,,,,,,,,,,,,,,"[""4""]",1,[2.711900000005926],0,0,0,27,1,,,,,,,,,,,,,,,,,,,,,,,,,,
,,,,,,,,,,,X V Q F H G B L J M P D K C T S W R N Z,5f966b181caf595331d1685e,45,Mężczyzna,2022-06-11_09h25.06.494,task,2021.1.4,MacIntel,60.04202942,6299f149e92ead563fba08ef,62a44328412e284fb5dcb2db,,,,,,,,,,,,,,,,,,,,,,,,,,,,,,,,,,,,,,,,,,,,,,,,,,,,,,,,,,,,,,,,,,,,,,,,,,,,8,0,8,0,1,,,,,,,,,,,,,,,,,,,,,
,,,,,,,,,,,,5f966b181caf595331d1685e,45,Mężczyzna,2022-06-11_09h25.06.494,task,2021.1.4,MacIntel,60.04202942,6299f149e92ead563fba08ef,62a44328412e284fb5dcb2db,,,,,,,,,,,,,4,,,,,,,,,,Task,11,(18/3) - 2,4,,,,,,,,,,,,,,,,,,,1,,,,,,,,,,,,,,,,,,,,,,,"[""4""]",1,[1.8796999999881336],0,0,0,10,1,,,,,,,,,,,,,,,,,,,,,,,,,,
,,,,,,,,,,,X V Q F H G B L J M P D K C T S W R N Z,5f966b181caf595331d1685e,45,Mężczyzna,2022-06-11_09h25.06.494,task,2021.1.4,MacIntel,60.04202942,6299f149e92ead563fba08ef,62a44328412e284fb5dcb2db,,,,,,,,,,,,,,,,,,,,,,,,,,,,,,,,,,,,,,,,,,,,,,,,,,,,,,,,,,,,,,,,,,,,,,,,,,,,9,0,9,0,1,,,,,,,,,,,,,,,,,,,,,
,,,,,,,,,,,,5f966b181caf595331d1685e,45,Mężczyzna,2022-06-11_09h25.06.494,task,2021.1.4,MacIntel,60.04202942,6299f149e92ead563fba08ef,62a44328412e284fb5dcb2db,,,,,,,,,,,,,2,,,,,,,,,,Task,26,(2x9) - 16,2,,,,,,,,,,,,,,,,,,,1,,,,,,,,,,,,,,,,,,,,,,,"[""2""]",1,[2.374799999996867],0,0,0,25,1,,,,,,,,,,,,,,,,,,,,,,,,,,
,,,,,,,,,,,X V Q F H G B L J M P D K C T S W R N Z,5f966b181caf595331d1685e,45,Mężczyzna,2022-06-11_09h25.06.494,task,2021.1.4,MacIntel,60.04202942,6299f149e92ead563fba08ef,62a44328412e284fb5dcb2db,,,,,,,,,,,,,,,,,,,,,,,,,,,,,,,,,,,,,,,,,,,,,,,,,,,,,,,,,,,,,,,,,,,,,,,,,,,,10,0,10,0,1,,,,,,,,,,,,,,,,,,,,,
,,,,,,,,,,,,5f966b181caf595331d1685e,45,Mężczyzna,2022-06-11_09h25.06.494,task,2021.1.4,MacIntel,60.04202942,6299f149e92ead563fba08ef,62a44328412e284fb5dcb2db,,,,,,,,,,,,,6,,,,,,,,,,Task,13,(3x4) - 6,6,,,,,,,,,,,,,,,,,,,1,,,,,,,,,,,,,,,,,,,,,,,"[""6""]",1,[2.4358000000117954],0,0,0,12,1,,,,,,,,,,,,,,,,,,,,,,,,,,
,,,,,,,,,,,X V Q F H G B L J M P D K C T S W R N Z,5f966b181caf595331d1685e,45,Mężczyzna,2022-06-11_09h25.06.494,task,2021.1.4,MacIntel,60.04202942,6299f149e92ead563fba08ef,62a44328412e284fb5dcb2db,,,,,,,,,,,,,,,,,,,,,,,,,,,,,,,,,,,,,,,,,,,,,,,,,,,,,,,,,,,,,,,,,,,,,,,,,,,,11,0,11,0,1,,,,,,,,,,,,,,,,,,,,,
,,,,,,,,,,,,5f966b181caf595331d1685e,45,Mężczyzna,2022-06-11_09h25.06.494,task,2021.1.4,MacIntel,60.04202942,6299f149e92ead563fba08ef,62a44328412e284fb5dcb2db,,,,,,,,,,,,,,,,,,,,,,,,,,,,,,,,,,,,,,,,,,,,,,,,,,,,,,,,,,,,,,,,,,,,,,,,,,,,,,,,,cxcgdhbgslsq,"[""c"",""x"",""c"",""g"",""d"",""h"",""b"",""g"",""s"",""l"",""s"",""q""]",0,"[4.304200000002993,6.722900000005893,8.19020000000296,8.896400000005997,10.186900000006062,12.090200000003051,13.911799999997129,15.628600000008873,17.104600000008986,19.503799999997,20.308900000005906,21.84440000000609,38.581500000000005]",1,CXCGDHBGSLSQ,10,0,10,0,1,,,,,,,,,,
,,,,,,,,,,,,5f966b181caf595331d1685e,45,Mężczyzna,2022-06-11_09h25.06.494,task,2021.1.4,MacIntel,60.04202942,6299f149e92ead563fba08ef,62a44328412e284fb5dcb2db,,,,,,,,,,,,,4,,,,,,,,,,Task,11,(18/3) - 2,4,,,,,,,,,,,,,,,,,,,1,,,,,,,,,,,,,,,,,,,,,,,"[""4""]",1,[1.828499999999849],0,0,0,10,1,,,,,,,,,,,,,,,,,,,,,,,,,,
,,,,,,,,,,,X V Q F H G B L J M P D K C T S W R N Z,5f966b181caf595331d1685e,45,Mężczyzna,2022-06-11_09h25.06.494,task,2021.1.4,MacIntel,60.04202942,6299f149e92ead563fba08ef,62a44328412e284fb5dcb2db,,,,,,,,,,,,,,,,,,,,,,,,,,,,,,,,,,,,,,,,,,,,,,,,,,,,,,,,,,,,,,,,,,,,,,,,,,,,0,0,0,0,1,,,,,,,,,,,,,,,,,,,,,
,,,,,,,,,,,,5f966b181caf595331d1685e,45,Mężczyzna,2022-06-11_09h25.06.494,task,2021.1.4,MacIntel,60.04202942,6299f149e92ead563fba08ef,62a44328412e284fb5dcb2db,,,,,,,,,,,,,8,,,,,,,,,,Task,39,(5x3) - 7,8,,,,,,,,,,,,,,,,,,,1,,,,,,,,,,,,,,,,,,,,,,,"[""8""]",1,[2.9432000000028893],0,0,0,38,1,,,,,,,,,,,,,,,,,,,,,,,,,,
,,,,,,,,,,,X V Q F H G B L J M P D K C T S W R N Z,5f966b181caf595331d1685e,45,Mężczyzna,2022-06-11_09h25.06.494,task,2021.1.4,MacIntel,60.04202942,6299f149e92ead563fba08ef,62a44328412e284fb5dcb2db,,,,,,,,,,,,,,,,,,,,,,,,,,,,,,,,,,,,,,,,,,,,,,,,,,,,,,,,,,,,,,,,,,,,,,,,,,,,1,0,1,0,1,,,,,,,,,,,,,,,,,,,,,
,,,,,,,,,,,,5f966b181caf595331d1685e,45,Mężczyzna,2022-06-11_09h25.06.494,task,2021.1.4,MacIntel,60.04202942,6299f149e92ead563fba08ef,62a44328412e284fb5dcb2db,,,,,,,,,,,,,1,,,,,,,,,,Task,9,(3x7) - 20,1,,,,,,,,,,,,,,,,,,,1,,,,,,,,,,,,,,,,,,,,,,,"[""1""]",1,[2.129099999994196],0,0,0,8,1,,,,,,,,,,,,,,,,,,,,,,,,,,
,,,,,,,,,,,X V Q F H G B L J M P D K C T S W R N Z,5f966b181caf595331d1685e,45,Mężczyzna,2022-06-11_09h25.06.494,task,2021.1.4,MacIntel,60.04202942,6299f149e92ead563fba08ef,62a44328412e284fb5dcb2db,,,,,,,,,,,,,,,,,,,,,,,,,,,,,,,,,,,,,,,,,,,,,,,,,,,,,,,,,,,,,,,,,,,,,,,,,,,,2,0,2,0,1,,,,,,,,,,,,,,,,,,,,,
,,,,,,,,,,,,5f966b181caf595331d1685e,45,Mężczyzna,2022-06-11_09h25.06.494,task,2021.1.4,MacIntel,60.04202942,6299f149e92ead563fba08ef,62a44328412e284fb5dcb2db,,,,,,,,,,,,,7,,,,,,,,,,Task,38,(4x6) - 17,7,,,,,,,,,,,,,,,,,,,1,,,,,,,,,,,,,,,,,,,,,,,"[""7""]",1,[3.0249000000060278],0,0,0,37,1,,,,,,,,,,,,,,,,,,,,,,,,,,
,,,,,,,,,,,X V Q F H G B L J M P D K C T S W R N Z,5f966b181caf595331d1685e,45,Mężczyzna,2022-06-11_09h25.06.494,task,2021.1.4,MacIntel,60.04202942,6299f149e92ead563fba08ef,62a44328412e284fb5dcb2db,,,,,,,,,,,,,,,,,,,,,,,,,,,,,,,,,,,,,,,,,,,,,,,,,,,,,,,,,,,,,,,,,,,,,,,,,,,,3,0,3,0,1,,,,,,,,,,,,,,,,,,,,,
,,,,,,,,,,,,5f966b181caf595331d1685e,45,Mężczyzna,2022-06-11_09h25.06.494,task,2021.1.4,MacIntel,60.04202942,6299f149e92ead563fba08ef,62a44328412e284fb5dcb2db,,,,,,,,,,,,,9,,,,,,,,,,Task,16,(3x8) - 15,9,,,,,,,,,,,,,,,,,,,1,,,,,,,,,,,,,,,,,,,,,,,"[""9""]",1,[2.2280000000000655],0,0,0,15,1,,,,,,,,,,,,,,,,,,,,,,,,,,
,,,,,,,,,,,X V Q F H G B L J M P D K C T S W R N Z,5f966b181caf595331d1685e,45,Mężczyzna,2022-06-11_09h25.06.494,task,2021.1.4,MacIntel,60.04202942,6299f149e92ead563fba08ef,62a44328412e284fb5dcb2db,,,,,,,,,,,,,,,,,,,,,,,,,,,,,,,,,,,,,,,,,,,,,,,,,,,,,,,,,,,,,,,,,,,,,,,,,,,,4,0,4,0,1,,,,,,,,,,,,,,,,,,,,,
,,,,,,,,,,,,5f966b181caf595331d1685e,45,Mężczyzna,2022-06-11_09h25.06.494,task,2021.1.4,MacIntel,60.04202942,6299f149e92ead563fba08ef,62a44328412e284fb5dcb2db,,,,,,,,,,,,,3,,,,,,,,,,Task,17,(2x3) - 6,0,,,,,,,,,,,,,,,,,,,0,,,,,,,,,,,,,,,,,,,,,,,"[""3""]",0,[2.0815999999940686],0,0,0,16,1,,,,,,,,,,,,,,,,,,,,,,,,,,
,,,,,,,,,,,,5f966b181caf595331d1685e,45,Mężczyzna,2022-06-11_09h25.06.494,task,2021.1.4,MacIntel,60.04202942,6299f149e92ead563fba08ef,62a44328412e284fb5dcb2db,,,,,,,,,,,,,8,,,,,,,,,,Task,23,(2x3) + 2,8,,,,,,,,,,,,,,,,,,,1,,,,,,,,,,,,,,,,,,,,,,,"[""8""]",1,[4.134400000005826],0,1,1,22,1,,,,,,,,,,,,,,,,,,,,,,,,,,
,,,,,,,,,,,X V Q F H G B L J M P D K C T S W R N Z,5f966b181caf595331d1685e,45,Mężczyzna,2022-06-11_09h25.06.494,task,2021.1.4,MacIntel,60.04202942,6299f149e92ead563fba08ef,62a44328412e284fb5dcb2db,,,,,,,,,,,,,,,,,,,,,,,,,,,,,,,,,,,,,,,,,,,,,,,,,,,,,,,,,,,,,,,,,,,,,,,,,,,,5,0,5,0,1,,,,,,,,,,,,,,,,,,,,,
,,,,,,,,,,,,5f966b181caf595331d1685e,45,Mężczyzna,2022-06-11_09h25.06.494,task,2021.1.4,MacIntel,60.04202942,6299f149e92ead563fba08ef,62a44328412e284fb5dcb2db,,,,,,,,,,,,,0,,,,,,,,,,Task,25,(10/5) - 2,0,,,,,,,,,,,,,,,,,,,1,,,,,,,,,,,,,,,,,,,,,,,"[""0""]",1,[3.178000000000111],0,0,0,24,1,,,,,,,,,,,,,,,,,,,,,,,,,,
,,,,,,,,,,,X V Q F H G B L J M P D K C T S W R N Z,5f966b181caf595331d1685e,45,Mężczyzna,2022-06-11_09h25.06.494,task,2021.1.4,MacIntel,60.04202942,6299f149e92ead563fba08ef,62a44328412e284fb5dcb2db,,,,,,,,,,,,,,,,,,,,,,,,,,,,,,,,,,,,,,,,,,,,,,,,,,,,,,,,,,,,,,,,,,,,,,,,,,,,6,0,6,0,1,,,,,,,,,,,,,,,,,,,,,
,,,,,,,,,,,,5f966b181caf595331d1685e,45,Mężczyzna,2022-06-11_09h25.06.494,task,2021.1.4,MacIntel,60.04202942,6299f149e92ead563fba08ef,62a44328412e284fb5dcb2db,,,,,,,,,,,,,2,,,,,,,,,,Task,2,(2x2) - 2,2,,,,,,,,,,,,,,,,,,,1,,,,,,,,,,,,,,,,,,,,,,,"[""2""]",1,[2.4712000000029093],0,0,0,1,1,,,,,,,,,,,,,,,,,,,,,,,,,,
,,,,,,,,,,,X V Q F H G B L J M P D K C T S W R N Z,5f966b181caf595331d1685e,45,Mężczyzna,2022-06-11_09h25.06.494,task,2021.1.4,MacIntel,60.04202942,6299f149e92ead563fba08ef,62a44328412e284fb5dcb2db,,,,,,,,,,,,,,,,,,,,,,,,,,,,,,,,,,,,,,,,,,,,,,,,,,,,,,,,,,,,,,,,,,,,,,,,,,,,7,0,7,0,1,,,,,,,,,,,,,,,,,,,,,
,,,,,,,,,,,,5f966b181caf595331d1685e,45,Mężczyzna,2022-06-11_09h25.06.494,task,2021.1.4,MacIntel,60.04202942,6299f149e92ead563fba08ef,62a44328412e284fb5dcb2db,,,,,,,,,,,,,0,,,,,,,,,,Task,25,(10/5) - 2,0,,,,,,,,,,,,,,,,,,,1,,,,,,,,,,,,,,,,,,,,,,,"[""0""]",1,[1.7492999999969925],0,0,0,24,1,,,,,,,,,,,,,,,,,,,,,,,,,,
,,,,,,,,,,,X V Q F H G B L J M P D K C T S W R N Z,5f966b181caf595331d1685e,45,Mężczyzna,2022-06-11_09h25.06.494,task,2021.1.4,MacIntel,60.04202942,6299f149e92ead563fba08ef,62a44328412e284fb5dcb2db,,,,,,,,,,,,,,,,,,,,,,,,,,,,,,,,,,,,,,,,,,,,,,,,,,,,,,,,,,,,,,,,,,,,,,,,,,,,8,0,8,0,1,,,,,,,,,,,,,,,,,,,,,
,,,,,,,,,,,,5f966b181caf595331d1685e,45,Mężczyzna,2022-06-11_09h25.06.494,task,2021.1.4,MacIntel,60.04202942,6299f149e92ead563fba08ef,62a44328412e284fb5dcb2db,,,,,,,,,,,,,3,,,,,,,,,,Task,3,(2x3) - 3,3,,,,,,,,,,,,,,,,,,,1,,,,,,,,,,,,,,,,,,,,,,,"[""3""]",1,[3.2322999999969397],0,0,0,2,1,,,,,,,,,,,,,,,,,,,,,,,,,,
,,,,,,,,,,,X V Q F H G B L J M P D K C T S W R N Z,5f966b181caf595331d1685e,45,Mężczyzna,2022-06-11_09h25.06.494,task,2021.1.4,MacIntel,60.04202942,6299f149e92ead563fba08ef,62a44328412e284fb5dcb2db,,,,,,,,,,,,,,,,,,,,,,,,,,,,,,,,,,,,,,,,,,,,,,,,,,,,,,,,,,,,,,,,,,,,,,,,,,,,9,0,9,0,1,,,,,,,,,,,,,,,,,,,,,
,,,,,,,,,,,,5f966b181caf595331d1685e,45,Mężczyzna,2022-06-11_09h25.06.494,task,2021.1.4,MacIntel,60.04202942,6299f149e92ead563fba08ef,62a44328412e284fb5dcb2db,,,,,,,,,,,,,7,,,,,,,,,,Task,14,(2x2) + 3,7,,,,,,,,,,,,,,,,,,,1,,,,,,,,,,,,,,,,,,,,,,,"[""7""]",1,[3.4834999999998217],0,0,0,13,1,,,,,,,,,,,,,,,,,,,,,,,,,,
,,,,,,,,,,,X V Q F H G B L J M P D K C T S W R N Z,5f966b181caf595331d1685e,45,Mężczyzna,2022-06-11_09h25.06.494,task,2021.1.4,MacIntel,60.04202942,6299f149e92ead563fba08ef,62a44328412e284fb5dcb2db,,,,,,,,,,,,,,,,,,,,,,,,,,,,,,,,,,,,,,,,,,,,,,,,,,,,,,,,,,,,,,,,,,,,,,,,,,,,10,0,10,0,1,,,,,,,,,,,,,,,,,,,,,
,,,,,,,,,,,,5f966b181caf595331d1685e,45,Mężczyzna,2022-06-11_09h25.06.494,task,2021.1.4,MacIntel,60.04202942,6299f149e92ead563fba08ef,62a44328412e284fb5dcb2db,,,,,,,,,,,,,9,,,,,,,,,,Task,24,(2x2) + 5,9,,,,,,,,,,,,,,,,,,,1,,,,,,,,,,,,,,,,,,,,,,,"[""9""]",1,[2.453899999990881],0,0,0,23,1,,,,,,,,,,,,,,,,,,,,,,,,,,
,,,,,,,,,,,X V Q F H G B L J M P D K C T S W R N Z,5f966b181caf595331d1685e,45,Mężczyzna,2022-06-11_09h25.06.494,task,2021.1.4,MacIntel,60.04202942,6299f149e92ead563fba08ef,62a44328412e284fb5dcb2db,,,,,,,,,,,,,,,,,,,,,,,,,,,,,,,,,,,,,,,,,,,,,,,,,,,,,,,,,,,,,,,,,,,,,,,,,,,,11,0,11,0,1,,,,,,,,,,,,,,,,,,,,,
,,,,,,,,,,,,5f966b181caf595331d1685e,45,Mężczyzna,2022-06-11_09h25.06.494,task,2021.1.4,MacIntel,60.04202942,6299f149e92ead563fba08ef,62a44328412e284fb5dcb2db,,,,,,,,,,,,,6,,,,,,,,,,Task,3,(2x3) - 3,3,,,,,,,,,,,,,,,,,,,0,,,,,,,,,,,,,,,,,,,,,,,"[""6""]",0,[3.1932999999969525],0,0,0,2,1,,,,,,,,,,,,,,,,,,,,,,,,,,
,,,,,,,,,,,,5f966b181caf595331d1685e,45,Mężczyzna,2022-06-11_09h25.06.494,task,2021.1.4,MacIntel,60.04202942,6299f149e92ead563fba08ef,62a44328412e284fb5dcb2db,,,,,,,,,,,,,6,,,,,,,,,,Task,13,(3x4) - 6,6,,,,,,,,,,,,,,,,,,,1,,,,,,,,,,,,,,,,,,,,,,,"[""6""]",1,[2.779700000003004],0,1,1,12,1,,,,,,,,,,,,,,,,,,,,,,,,,,
,,,,,,,,,,,X V Q F H G B L J M P D K C T S W R N Z,5f966b181caf595331d1685e,45,Mężczyzna,2022-06-11_09h25.06.494,task,2021.1.4,MacIntel,60.04202942,6299f149e92ead563fba08ef,62a44328412e284fb5dcb2db,,,,,,,,,,,,,,,,,,,,,,,,,,,,,,,,,,,,,,,,,,,,,,,,,,,,,,,,,,,,,,,,,,,,,,,,,,,,12,0,12,0,1,,,,,,,,,,,,,,,,,,,,,
,,,,,,,,,,,,5f966b181caf595331d1685e,45,Mężczyzna,2022-06-11_09h25.06.494,task,2021.1.4,MacIntel,60.04202942,6299f149e92ead563fba08ef,62a44328412e284fb5dcb2db,,,,,,,,,,,,,,,,,,,,,,,,,,,,,,,,,,,,,,,,,,,,,,,,,,,,,,,,,,,,,,,,,,,,,,,,,,,,,,,,,pdsfdnrwzlxnz,"[""p"",""d"",""s"",""f"",""d"",""n"",""r"",""w"",""z"",""l"",""x"",""n"",""z""]",0,"[5.410900000005995,5.961900000005926,7.761799999997038,8.39810000000898,11.026700000003075,11.728700000003073,13.663700000003018,15.045100000008915,17.088799999997036,18.323700000002873,19.073799999996936,21.289999999999964,22.03220000000306,50.21979999999712]",1,PDSFDNRWZLXNZ,11,0,11,0,1,,,,,,,,,,
,,,,,,,,,,,,5f966b181caf595331d1685e,45,Mężczyzna,2022-06-11_09h25.06.494,task,2021.1.4,MacIntel,60.04202942,6299f149e92ead563fba08ef,62a44328412e284fb5dcb2db,,,,,,,,,,,,,0,,,,,,,,,,Task,17,(2x3) - 6,0,,,,,,,,,,,,,,,,,,,1,,,,,,,,,,,,,,,,,,,,,,,"[""0""]",1,[4.1257000000030075],0,0,0,16,1,,,,,,,,,,,,,,,,,,,,,,,,,,
,,,,,,,,,,,X V Q F H G B L J M P D K C T S W R N Z,5f966b181caf595331d1685e,45,Mężczyzna,2022-06-11_09h25.06.494,task,2021.1.4,MacIntel,60.04202942,6299f149e92ead563fba08ef,62a44328412e284fb5dcb2db,,,,,,,,,,,,,,,,,,,,,,,,,,,,,,,,,,,,,,,,,,,,,,,,,,,,,,,,,,,,,,,,,,,,,,,,,,,,0,0,0,0,1,,,,,,,,,,,,,,,,,,,,,
,,,,,,,,,,,,5f966b181caf595331d1685e,45,Mężczyzna,2022-06-11_09h25.06.494,task,2021.1.4,MacIntel,60.04202942,6299f149e92ead563fba08ef,62a44328412e284fb5dcb2db,,,,,,,,,,,,,2,,,,,,,,,,Task,19,(6/2) - 1,2,,,,,,,,,,,,,,,,,,,1,,,,,,,,,,,,,,,,,,,,,,,"[""2""]",1,[2.2257999999969797],0,0,0,18,1,,,,,,,,,,,,,,,,,,,,,,,,,,
,,,,,,,,,,,X V Q F H G B L J M P D K C T S W R N Z,5f966b181caf595331d1685e,45,Mężczyzna,2022-06-11_09h25.06.494,task,2021.1.4,MacIntel,60.04202942,6299f149e92ead563fba08ef,62a44328412e284fb5dcb2db,,,,,,,,,,,,,,,,,,,,,,,,,,,,,,,,,,,,,,,,,,,,,,,,,,,,,,,,,,,,,,,,,,,,,,,,,,,,1,0,1,0,1,,,,,,,,,,,,,,,,,,,,,
,,,,,,,,,,,,5f966b181caf595331d1685e,45,Mężczyzna,2022-06-11_09h25.06.494,task,2021.1.4,MacIntel,60.04202942,6299f149e92ead563fba08ef,62a44328412e284fb5dcb2db,,,,,,,,,,,,,5,,,,,,,,,,Task,22,(3x1) + 2,5,,,,,,,,,,,,,,,,,,,1,,,,,,,,,,,,,,,,,,,,,,,"[""5""]",1,[2.551599999994096],0,0,0,21,1,,,,,,,,,,,,,,,,,,,,,,,,,,
,,,,,,,,,,,X V Q F H G B L J M P D K C T S W R N Z,5f966b181caf595331d1685e,45,Mężczyzna,2022-06-11_09h25.06.494,task,2021.1.4,MacIntel,60.04202942,6299f149e92ead563fba08ef,62a44328412e284fb5dcb2db,,,,,,,,,,,,,,,,,,,,,,,,,,,,,,,,,,,,,,,,,,,,,,,,,,,,,,,,,,,,,,,,,,,,,,,,,,,,2,0,2,0,1,,,,,,,,,,,,,,,,,,,,,
,,,,,,,,,,,,5f966b181caf595331d1685e,45,Mężczyzna,2022-06-11_09h25.06.494,task,2021.1.4,MacIntel,60.04202942,6299f149e92ead563fba08ef,62a44328412e284fb5dcb2db,,,,,,,,,,,,,8,,,,,,,,,,Task,39,(5x3) - 7,8,,,,,,,,,,,,,,,,,,,1,,,,,,,,,,,,,,,,,,,,,,,"[""8""]",1,[2.1639999999999873],0,0,0,38,1,,,,,,,,,,,,,,,,,,,,,,,,,,
,,,,,,,,,,,X V Q F H G B L J M P D K C T S W R N Z,5f966b181caf595331d1685e,45,Mężczyzna,2022-06-11_09h25.06.494,task,2021.1.4,MacIntel,60.04202942,6299f149e92ead563fba08ef,62a44328412e284fb5dcb2db,,,,,,,,,,,,,,,,,,,,,,,,,,,,,,,,,,,,,,,,,,,,,,,,,,,,,,,,,,,,,,,,,,,,,,,,,,,,3,0,3,0,1,,,,,,,,,,,,,,,,,,,,,
,,,,,,,,,,,,5f966b181caf595331d1685e,45,Mężczyzna,2022-06-11_09h25.06.494,task,2021.1.4,MacIntel,60.04202942,6299f149e92ead563fba08ef,62a44328412e284fb5dcb2db,,,,,,,,,,,,,7,,,,,,,,,,Task,31,(4/2) + 5,7,,,,,,,,,,,,,,,,,,,1,,,,,,,,,,,,,,,,,,,,,,,"[""7""]",1,[2.425800000012032],0,0,0,30,1,,,,,,,,,,,,,,,,,,,,,,,,,,
,,,,,,,,,,,X V Q F H G B L J M P D K C T S W R N Z,5f966b181caf595331d1685e,45,Mężczyzna,2022-06-11_09h25.06.494,task,2021.1.4,MacIntel,60.04202942,6299f149e92ead563fba08ef,62a44328412e284fb5dcb2db,,,,,,,,,,,,,,,,,,,,,,,,,,,,,,,,,,,,,,,,,,,,,,,,,,,,,,,,,,,,,,,,,,,,,,,,,,,,4,0,4,0,1,,,,,,,,,,,,,,,,,,,,,
,,,,,,,,,,,,5f966b181caf595331d1685e,45,Mężczyzna,2022-06-11_09h25.06.494,task,2021.1.4,MacIntel,60.04202942,6299f149e92ead563fba08ef,62a44328412e284fb5dcb2db,,,,,,,,,,,,,1,,,,,,,,,,Task,18,(16/4) - 3,1,,,,,,,,,,,,,,,,,,,1,,,,,,,,,,,,,,,,,,,,,,,"[""1""]",1,[2.5105000000000928],0,0,0,17,1,,,,,,,,,,,,,,,,,,,,,,,,,,
