key_resp_15.keys,key_resp_15.rt,key_resp_13.keys,key_resp_13.corr,key_resp_13.rt,ranodm_loop.thisRepN,ranodm_loop.thisTrialN,ranodm_loop.thisN,ranodm_loop.thisIndex,ranodm_loop.ran,participant,Wiek*,Płeć,date,expName,psychopyVersion,OS,frameRate,study_id,session,key_resp_16.keys,key_resp_16.rt,key_resp_4.keys,key_resp_4.rt,next_letter.thisRepN,next_letter.thisTrialN,next_letter.thisN,next_letter.thisIndex,next_letter.ran,letter,simple_recall,key_resp_5.keys,key_resp_5.rt,simple_recall_corr,simple_recall_corrkeys,next_level.thisRepN,next_level.thisTrialN,next_level.thisN,next_level.thisIndex,next_level.ran,key_resp_2.keys,key_resp_2.rt,digit_answer,key_resp.keys,key_resp.corr,key_resp.rt,RT_list,next_equation.thisRepN,next_equation.thisTrialN,next_equation.thisN,next_equation.thisIndex,next_equation.ran,Task,Trial,Problem,Operation_answer,processing_score,sumRT,meanRT,sumdiff,sd,RT,key_resp_3.keys,key_resp_3.rt,repeat_practice.thisRepN,repeat_practice.thisTrialN,repeat_practice.thisN,repeat_practice.thisIndex,repeat_practice.ran,key_resp_6.keys,key_resp_6.rt,key_resp_11.keys,key_resp_11.corr,key_resp_11.rt,operation_correct,repeat_if_wrong_prac.thisRepN,repeat_if_wrong_prac.thisTrialN,repeat_if_wrong_prac.thisN,repeat_if_wrong_prac.thisIndex,repeat_if_wrong_prac.ran,span_size_prac.thisRepN,span_size_prac.thisTrialN,span_size_prac.thisN,span_size_prac.thisIndex,span_size_prac.ran,complex_recall_practice,key_resp_9.keys,key_resp_9.corr,key_resp_9.rt,complex_prac_corr,span_recall_prac.thisRepN,span_recall_prac.thisTrialN,span_recall_prac.thisN,span_recall_prac.thisIndex,span_recall_prac.ran,key_resp_10.keys,key_resp_10.rt,key_resp_7.keys,key_resp_7.corr,key_resp_7.rt,repeat_if_wrong.thisRepN,repeat_if_wrong.thisTrialN,repeat_if_wrong.thisN,repeat_if_wrong.thisIndex,repeat_if_wrong.ran,span_size.thisRepN,span_size.thisTrialN,span_size.thisN,span_size.thisIndex,span_size.ran,complex_recall,key_resp_8.keys,key_resp_8.corr,key_resp_8.rt,complex_recall_corr,complex_recall_corrkeys,span_recall.thisRepN,span_recall.thisTrialN,span_recall.thisN,span_recall.thisIndex,span_recall.ran,key_resp_12.keys,key_resp_12.rt
space,5.5999,"[""comma""]",0,[0.5642000000476912],0,0,0,0,1,5f97e6601f6d0e016087fc91,25,Mężczyzna,2022-06-04_08h17.09.951,task,2021.1.4,Win32,50.0150045,628b806c463b948bc644b84f,629af6bc3188c76df72114af,,,,,,,,,,,,,,,,,,,,,,,,,,,,,,,,,,,,,,,,,,,,,,,,,,,,,,,,,,,,,,,,,,,,,,,,,,,,,,,,,,,,,,,,,,,,,,,,,,,,,,,
,,"[""comma""]",0,[0.22790000009536016],1,0,1,0,1,5f97e6601f6d0e016087fc91,25,Mężczyzna,2022-06-04_08h17.09.951,task,2021.1.4,Win32,50.0150045,628b806c463b948bc644b84f,629af6bc3188c76df72114af,,,,,,,,,,,,,,,,,,,,,,,,,,,,,,,,,,,,,,,,,,,,,,,,,,,,,,,,,,,,,,,,,,,,,,,,,,,,,,,,,,,,,,,,,,,,,,,,,,,,,,,
,,"[""period""]",0,[0.28310000014305103],2,0,2,0,1,5f97e6601f6d0e016087fc91,25,Mężczyzna,2022-06-04_08h17.09.951,task,2021.1.4,Win32,50.0150045,628b806c463b948bc644b84f,629af6bc3188c76df72114af,,,,,,,,,,,,,,,,,,,,,,,,,,,,,,,,,,,,,,,,,,,,,,,,,,,,,,,,,,,,,,,,,,,,,,,,,,,,,,,,,,,,,,,,,,,,,,,,,,,,,,,
,,"[""comma""]",0,[0.36079999995232015],3,0,3,0,1,5f97e6601f6d0e016087fc91,25,Mężczyzna,2022-06-04_08h17.09.951,task,2021.1.4,Win32,50.0150045,628b806c463b948bc644b84f,629af6bc3188c76df72114af,,,,,,,,,,,,,,,,,,,,,,,,,,,,,,,,,,,,,,,,,,,,,,,,,,,,,,,,,,,,,,,,,,,,,,,,,,,,,,,,,,,,,,,,,,,,,,,,,,,,,,,
,,"[""period"",""period""]",0,"[0.05870000004769338,1.9426000001430594]",4,0,4,0,1,5f97e6601f6d0e016087fc91,25,Mężczyzna,2022-06-04_08h17.09.951,task,2021.1.4,Win32,50.0150045,628b806c463b948bc644b84f,629af6bc3188c76df72114af,,,,,,,,,,,,,,,,,,,,,,,,,,,,,,,,,,,,,,,,,,,,,,,,,,,,,,,,,,,,,,,,,,,,,,,,,,,,,,,,,,,,,,,,,,,,,,,,,,,,,,,
,,,0,,5,0,5,0,1,5f97e6601f6d0e016087fc91,25,Mężczyzna,2022-06-04_08h17.09.951,task,2021.1.4,Win32,50.0150045,628b806c463b948bc644b84f,629af6bc3188c76df72114af,,,,,,,,,,,,,,,,,,,,,,,,,,,,,,,,,,,,,,,,,,,,,,,,,,,,,,,,,,,,,,,,,,,,,,,,,,,,,,,,,,,,,,,,,,,,,,,,,,,,,,,
,,"[""period""]",0,[0.20039999985694124],6,0,6,0,1,5f97e6601f6d0e016087fc91,25,Mężczyzna,2022-06-04_08h17.09.951,task,2021.1.4,Win32,50.0150045,628b806c463b948bc644b84f,629af6bc3188c76df72114af,,,,,,,,,,,,,,,,,,,,,,,,,,,,,,,,,,,,,,,,,,,,,,,,,,,,,,,,,,,,,,,,,,,,,,,,,,,,,,,,,,,,,,,,,,,,,,,,,,,,,,,
,,"[""period""]",0,[0.26690000009536163],7,0,7,0,1,5f97e6601f6d0e016087fc91,25,Mężczyzna,2022-06-04_08h17.09.951,task,2021.1.4,Win32,50.0150045,628b806c463b948bc644b84f,629af6bc3188c76df72114af,,,,,,,,,,,,,,,,,,,,,,,,,,,,,,,,,,,,,,,,,,,,,,,,,,,,,,,,,,,,,,,,,,,,,,,,,,,,,,,,,,,,,,,,,,,,,,,,,,,,,,,
,,"[""comma""]",0,[0.3278000001907344],8,0,8,0,1,5f97e6601f6d0e016087fc91,25,Mężczyzna,2022-06-04_08h17.09.951,task,2021.1.4,Win32,50.0150045,628b806c463b948bc644b84f,629af6bc3188c76df72114af,,,,,,,,,,,,,,,,,,,,,,,,,,,,,,,,,,,,,,,,,,,,,,,,,,,,,,,,,,,,,,,,,,,,,,,,,,,,,,,,,,,,,,,,,,,,,,,,,,,,,,,
,,"[""comma""]",0,[0.24070000004768133],9,0,9,0,1,5f97e6601f6d0e016087fc91,25,Mężczyzna,2022-06-04_08h17.09.951,task,2021.1.4,Win32,50.0150045,628b806c463b948bc644b84f,629af6bc3188c76df72114af,,,,,,,,,,,,,,,,,,,,,,,,,,,,,,,,,,,,,,,,,,,,,,,,,,,,,,,,,,,,,,,,,,,,,,,,,,,,,,,,,,,,,,,,,,,,,,,,,,,,,,,
,,"[""period""]",0,[0.2802000000476852],10,0,10,0,1,5f97e6601f6d0e016087fc91,25,Mężczyzna,2022-06-04_08h17.09.951,task,2021.1.4,Win32,50.0150045,628b806c463b948bc644b84f,629af6bc3188c76df72114af,,,,,,,,,,,,,,,,,,,,,,,,,,,,,,,,,,,,,,,,,,,,,,,,,,,,,,,,,,,,,,,,,,,,,,,,,,,,,,,,,,,,,,,,,,,,,,,,,,,,,,,
,,"[""comma""]",0,[0.32450000000000045],11,0,11,0,1,5f97e6601f6d0e016087fc91,25,Mężczyzna,2022-06-04_08h17.09.951,task,2021.1.4,Win32,50.0150045,628b806c463b948bc644b84f,629af6bc3188c76df72114af,,,,,,,,,,,,,,,,,,,,,,,,,,,,,,,,,,,,,,,,,,,,,,,,,,,,,,,,,,,,,,,,,,,,,,,,,,,,,,,,,,,,,,,,,,,,,,,,,,,,,,,
,,"[""comma""]",0,[0.2909999999999968],12,0,12,0,1,5f97e6601f6d0e016087fc91,25,Mężczyzna,2022-06-04_08h17.09.951,task,2021.1.4,Win32,50.0150045,628b806c463b948bc644b84f,629af6bc3188c76df72114af,,,,,,,,,,,,,,,,,,,,,,,,,,,,,,,,,,,,,,,,,,,,,,,,,,,,,,,,,,,,,,,,,,,,,,,,,,,,,,,,,,,,,,,,,,,,,,,,,,,,,,,
,,"[""period""]",0,[0.24240000009535834],13,0,13,0,1,5f97e6601f6d0e016087fc91,25,Mężczyzna,2022-06-04_08h17.09.951,task,2021.1.4,Win32,50.0150045,628b806c463b948bc644b84f,629af6bc3188c76df72114af,,,,,,,,,,,,,,,,,,,,,,,,,,,,,,,,,,,,,,,,,,,,,,,,,,,,,,,,,,,,,,,,,,,,,,,,,,,,,,,,,,,,,,,,,,,,,,,,,,,,,,,
,,"[""comma""]",0,[0.31090000009535856],14,0,14,0,1,5f97e6601f6d0e016087fc91,25,Mężczyzna,2022-06-04_08h17.09.951,task,2021.1.4,Win32,50.0150045,628b806c463b948bc644b84f,629af6bc3188c76df72114af,,,,,,,,,,,,,,,,,,,,,,,,,,,,,,,,,,,,,,,,,,,,,,,,,,,,,,,,,,,,,,,,,,,,,,,,,,,,,,,,,,,,,,,,,,,,,,,,,,,,,,,
,,"[""period""]",0,[0.2229000000953647],15,0,15,0,1,5f97e6601f6d0e016087fc91,25,Mężczyzna,2022-06-04_08h17.09.951,task,2021.1.4,Win32,50.0150045,628b806c463b948bc644b84f,629af6bc3188c76df72114af,,,,,,,,,,,,,,,,,,,,,,,,,,,,,,,,,,,,,,,,,,,,,,,,,,,,,,,,,,,,,,,,,,,,,,,,,,,,,,,,,,,,,,,,,,,,,,,,,,,,,,,
,,"[""period""]",0,[0.309099999904646],16,0,16,0,1,5f97e6601f6d0e016087fc91,25,Mężczyzna,2022-06-04_08h17.09.951,task,2021.1.4,Win32,50.0150045,628b806c463b948bc644b84f,629af6bc3188c76df72114af,,,,,,,,,,,,,,,,,,,,,,,,,,,,,,,,,,,,,,,,,,,,,,,,,,,,,,,,,,,,,,,,,,,,,,,,,,,,,,,,,,,,,,,,,,,,,,,,,,,,,,,
,,"[""period""]",0,[0.32049999999998136],17,0,17,0,1,5f97e6601f6d0e016087fc91,25,Mężczyzna,2022-06-04_08h17.09.951,task,2021.1.4,Win32,50.0150045,628b806c463b948bc644b84f,629af6bc3188c76df72114af,,,,,,,,,,,,,,,,,,,,,,,,,,,,,,,,,,,,,,,,,,,,,,,,,,,,,,,,,,,,,,,,,,,,,,,,,,,,,,,,,,,,,,,,,,,,,,,,,,,,,,,
,,"[""comma""]",0,[0.16259999990461438],18,0,18,0,1,5f97e6601f6d0e016087fc91,25,Mężczyzna,2022-06-04_08h17.09.951,task,2021.1.4,Win32,50.0150045,628b806c463b948bc644b84f,629af6bc3188c76df72114af,,,,,,,,,,,,,,,,,,,,,,,,,,,,,,,,,,,,,,,,,,,,,,,,,,,,,,,,,,,,,,,,,,,,,,,,,,,,,,,,,,,,,,,,,,,,,,,,,,,,,,,
,,"[""comma""]",0,[0.2727999999523263],19,0,19,0,1,5f97e6601f6d0e016087fc91,25,Mężczyzna,2022-06-04_08h17.09.951,task,2021.1.4,Win32,50.0150045,628b806c463b948bc644b84f,629af6bc3188c76df72114af,,,,,,,,,,,,,,,,,,,,,,,,,,,,,,,,,,,,,,,,,,,,,,,,,,,,,,,,,,,,,,,,,,,,,,,,,,,,,,,,,,,,,,,,,,,,,,,,,,,,,,,
,,"[""period""]",0,[0.27170000004770145],20,0,20,0,1,5f97e6601f6d0e016087fc91,25,Mężczyzna,2022-06-04_08h17.09.951,task,2021.1.4,Win32,50.0150045,628b806c463b948bc644b84f,629af6bc3188c76df72114af,,,,,,,,,,,,,,,,,,,,,,,,,,,,,,,,,,,,,,,,,,,,,,,,,,,,,,,,,,,,,,,,,,,,,,,,,,,,,,,,,,,,,,,,,,,,,,,,,,,,,,,
,,"[""comma""]",0,[0.1900999999046462],21,0,21,0,1,5f97e6601f6d0e016087fc91,25,Mężczyzna,2022-06-04_08h17.09.951,task,2021.1.4,Win32,50.0150045,628b806c463b948bc644b84f,629af6bc3188c76df72114af,,,,,,,,,,,,,,,,,,,,,,,,,,,,,,,,,,,,,,,,,,,,,,,,,,,,,,,,,,,,,,,,,,,,,,,,,,,,,,,,,,,,,,,,,,,,,,,,,,,,,,,
,,"[""comma"",""comma""]",0,"[0.24310000014304478,1.65910000014307]",22,0,22,0,1,5f97e6601f6d0e016087fc91,25,Mężczyzna,2022-06-04_08h17.09.951,task,2021.1.4,Win32,50.0150045,628b806c463b948bc644b84f,629af6bc3188c76df72114af,,,,,,,,,,,,,,,,,,,,,,,,,,,,,,,,,,,,,,,,,,,,,,,,,,,,,,,,,,,,,,,,,,,,,,,,,,,,,,,,,,,,,,,,,,,,,,,,,,,,,,,
,,"[""comma""]",0,[0.8466000001430416],23,0,23,0,1,5f97e6601f6d0e016087fc91,25,Mężczyzna,2022-06-04_08h17.09.951,task,2021.1.4,Win32,50.0150045,628b806c463b948bc644b84f,629af6bc3188c76df72114af,,,,,,,,,,,,,,,,,,,,,,,,,,,,,,,,,,,,,,,,,,,,,,,,,,,,,,,,,,,,,,,,,,,,,,,,,,,,,,,,,,,,,,,,,,,,,,,,,,,,,,,
,,"[""comma""]",0,[0.6057000000476762],24,0,24,0,1,5f97e6601f6d0e016087fc91,25,Mężczyzna,2022-06-04_08h17.09.951,task,2021.1.4,Win32,50.0150045,628b806c463b948bc644b84f,629af6bc3188c76df72114af,,,,,,,,,,,,,,,,,,,,,,,,,,,,,,,,,,,,,,,,,,,,,,,,,,,,,,,,,,,,,,,,,,,,,,,,,,,,,,,,,,,,,,,,,,,,,,,,,,,,,,,
,,"[""comma""]",0,[0.3204000000953613],25,0,25,0,1,5f97e6601f6d0e016087fc91,25,Mężczyzna,2022-06-04_08h17.09.951,task,2021.1.4,Win32,50.0150045,628b806c463b948bc644b84f,629af6bc3188c76df72114af,,,,,,,,,,,,,,,,,,,,,,,,,,,,,,,,,,,,,,,,,,,,,,,,,,,,,,,,,,,,,,,,,,,,,,,,,,,,,,,,,,,,,,,,,,,,,,,,,,,,,,,
,,"[""period""]",0,[0.3007999999523179],26,0,26,0,1,5f97e6601f6d0e016087fc91,25,Mężczyzna,2022-06-04_08h17.09.951,task,2021.1.4,Win32,50.0150045,628b806c463b948bc644b84f,629af6bc3188c76df72114af,,,,,,,,,,,,,,,,,,,,,,,,,,,,,,,,,,,,,,,,,,,,,,,,,,,,,,,,,,,,,,,,,,,,,,,,,,,,,,,,,,,,,,,,,,,,,,,,,,,,,,,
,,"[""comma""]",0,[0.4424000000953754],27,0,27,0,1,5f97e6601f6d0e016087fc91,25,Mężczyzna,2022-06-04_08h17.09.951,task,2021.1.4,Win32,50.0150045,628b806c463b948bc644b84f,629af6bc3188c76df72114af,,,,,,,,,,,,,,,,,,,,,,,,,,,,,,,,,,,,,,,,,,,,,,,,,,,,,,,,,,,,,,,,,,,,,,,,,,,,,,,,,,,,,,,,,,,,,,,,,,,,,,,
,,"[""period""]",0,[0.5050000000000239],28,0,28,0,1,5f97e6601f6d0e016087fc91,25,Mężczyzna,2022-06-04_08h17.09.951,task,2021.1.4,Win32,50.0150045,628b806c463b948bc644b84f,629af6bc3188c76df72114af,,,,,,,,,,,,,,,,,,,,,,,,,,,,,,,,,,,,,,,,,,,,,,,,,,,,,,,,,,,,,,,,,,,,,,,,,,,,,,,,,,,,,,,,,,,,,,,,,,,,,,,
,,"[""comma""]",0,[0.2792999999523147],29,0,29,0,1,5f97e6601f6d0e016087fc91,25,Mężczyzna,2022-06-04_08h17.09.951,task,2021.1.4,Win32,50.0150045,628b806c463b948bc644b84f,629af6bc3188c76df72114af,,,,,,,,,,,,,,,,,,,,,,,,,,,,,,,,,,,,,,,,,,,,,,,,,,,,,,,,,,,,,,,,,,,,,,,,,,,,,,,,,,,,,,,,,,,,,,,,,,,,,,,
,,"[""comma""]",0,[0.22289999985693498],30,0,30,0,1,5f97e6601f6d0e016087fc91,25,Mężczyzna,2022-06-04_08h17.09.951,task,2021.1.4,Win32,50.0150045,628b806c463b948bc644b84f,629af6bc3188c76df72114af,,,,,,,,,,,,,,,,,,,,,,,,,,,,,,,,,,,,,,,,,,,,,,,,,,,,,,,,,,,,,,,,,,,,,,,,,,,,,,,,,,,,,,,,,,,,,,,,,,,,,,,
,,"[""period""]",0,[0.3015999999046244],31,0,31,0,1,5f97e6601f6d0e016087fc91,25,Mężczyzna,2022-06-04_08h17.09.951,task,2021.1.4,Win32,50.0150045,628b806c463b948bc644b84f,629af6bc3188c76df72114af,,,,,,,,,,,,,,,,,,,,,,,,,,,,,,,,,,,,,,,,,,,,,,,,,,,,,,,,,,,,,,,,,,,,,,,,,,,,,,,,,,,,,,,,,,,,,,,,,,,,,,,
,,"[""period""]",0,[0.3404000000953715],32,0,32,0,1,5f97e6601f6d0e016087fc91,25,Mężczyzna,2022-06-04_08h17.09.951,task,2021.1.4,Win32,50.0150045,628b806c463b948bc644b84f,629af6bc3188c76df72114af,,,,,,,,,,,,,,,,,,,,,,,,,,,,,,,,,,,,,,,,,,,,,,,,,,,,,,,,,,,,,,,,,,,,,,,,,,,,,,,,,,,,,,,,,,,,,,,,,,,,,,,
,,"[""period""]",0,[0.3393000001907467],33,0,33,0,1,5f97e6601f6d0e016087fc91,25,Mężczyzna,2022-06-04_08h17.09.951,task,2021.1.4,Win32,50.0150045,628b806c463b948bc644b84f,629af6bc3188c76df72114af,,,,,,,,,,,,,,,,,,,,,,,,,,,,,,,,,,,,,,,,,,,,,,,,,,,,,,,,,,,,,,,,,,,,,,,,,,,,,,,,,,,,,,,,,,,,,,,,,,,,,,,
,,"[""comma""]",0,[0.4877999999523297],34,0,34,0,1,5f97e6601f6d0e016087fc91,25,Mężczyzna,2022-06-04_08h17.09.951,task,2021.1.4,Win32,50.0150045,628b806c463b948bc644b84f,629af6bc3188c76df72114af,,,,,,,,,,,,,,,,,,,,,,,,,,,,,,,,,,,,,,,,,,,,,,,,,,,,,,,,,,,,,,,,,,,,,,,,,,,,,,,,,,,,,,,,,,,,,,,,,,,,,,,
,,"[""period""]",0,[0.5829999999999984],35,0,35,0,1,5f97e6601f6d0e016087fc91,25,Mężczyzna,2022-06-04_08h17.09.951,task,2021.1.4,Win32,50.0150045,628b806c463b948bc644b84f,629af6bc3188c76df72114af,,,,,,,,,,,,,,,,,,,,,,,,,,,,,,,,,,,,,,,,,,,,,,,,,,,,,,,,,,,,,,,,,,,,,,,,,,,,,,,,,,,,,,,,,,,,,,,,,,,,,,,
,,"[""comma""]",0,[0.8517000000476855],36,0,36,0,1,5f97e6601f6d0e016087fc91,25,Mężczyzna,2022-06-04_08h17.09.951,task,2021.1.4,Win32,50.0150045,628b806c463b948bc644b84f,629af6bc3188c76df72114af,,,,,,,,,,,,,,,,,,,,,,,,,,,,,,,,,,,,,,,,,,,,,,,,,,,,,,,,,,,,,,,,,,,,,,,,,,,,,,,,,,,,,,,,,,,,,,,,,,,,,,,
,,"[""period""]",0,[0.6008000001907305],37,0,37,0,1,5f97e6601f6d0e016087fc91,25,Mężczyzna,2022-06-04_08h17.09.951,task,2021.1.4,Win32,50.0150045,628b806c463b948bc644b84f,629af6bc3188c76df72114af,,,,,,,,,,,,,,,,,,,,,,,,,,,,,,,,,,,,,,,,,,,,,,,,,,,,,,,,,,,,,,,,,,,,,,,,,,,,,,,,,,,,,,,,,,,,,,,,,,,,,,,
,,"[""comma""]",0,[0.5224000000953595],38,0,38,0,1,5f97e6601f6d0e016087fc91,25,Mężczyzna,2022-06-04_08h17.09.951,task,2021.1.4,Win32,50.0150045,628b806c463b948bc644b84f,629af6bc3188c76df72114af,,,,,,,,,,,,,,,,,,,,,,,,,,,,,,,,,,,,,,,,,,,,,,,,,,,,,,,,,,,,,,,,,,,,,,,,,,,,,,,,,,,,,,,,,,,,,,,,,,,,,,,
,,"[""period"",""period""]",0,"[0.25979999995232106,1.9375999999046485]",39,0,39,0,1,5f97e6601f6d0e016087fc91,25,Mężczyzna,2022-06-04_08h17.09.951,task,2021.1.4,Win32,50.0150045,628b806c463b948bc644b84f,629af6bc3188c76df72114af,,,,,,,,,,,,,,,,,,,,,,,,,,,,,,,,,,,,,,,,,,,,,,,,,,,,,,,,,,,,,,,,,,,,,,,,,,,,,,,,,,,,,,,,,,,,,,,,,,,,,,,
,,"[""period""]",0,[1.8231000001430573],40,0,40,0,1,5f97e6601f6d0e016087fc91,25,Mężczyzna,2022-06-04_08h17.09.951,task,2021.1.4,Win32,50.0150045,628b806c463b948bc644b84f,629af6bc3188c76df72114af,,,,,,,,,,,,,,,,,,,,,,,,,,,,,,,,,,,,,,,,,,,,,,,,,,,,,,,,,,,,,,,,,,,,,,,,,,,,,,,,,,,,,,,,,,,,,,,,,,,,,,,
,,,0,,41,0,41,0,1,5f97e6601f6d0e016087fc91,25,Mężczyzna,2022-06-04_08h17.09.951,task,2021.1.4,Win32,50.0150045,628b806c463b948bc644b84f,629af6bc3188c76df72114af,,,,,,,,,,,,,,,,,,,,,,,,,,,,,,,,,,,,,,,,,,,,,,,,,,,,,,,,,,,,,,,,,,,,,,,,,,,,,,,,,,,,,,,,,,,,,,,,,,,,,,,
,,"[""period""]",0,[0.5714999999999861],42,0,42,0,1,5f97e6601f6d0e016087fc91,25,Mężczyzna,2022-06-04_08h17.09.951,task,2021.1.4,Win32,50.0150045,628b806c463b948bc644b84f,629af6bc3188c76df72114af,,,,,,,,,,,,,,,,,,,,,,,,,,,,,,,,,,,,,,,,,,,,,,,,,,,,,,,,,,,,,,,,,,,,,,,,,,,,,,,,,,,,,,,,,,,,,,,,,,,,,,,
,,"[""comma""]",0,[0.4402000000476676],43,0,43,0,1,5f97e6601f6d0e016087fc91,25,Mężczyzna,2022-06-04_08h17.09.951,task,2021.1.4,Win32,50.0150045,628b806c463b948bc644b84f,629af6bc3188c76df72114af,,,,,,,,,,,,,,,,,,,,,,,,,,,,,,,,,,,,,,,,,,,,,,,,,,,,,,,,,,,,,,,,,,,,,,,,,,,,,,,,,,,,,,,,,,,,,,,,,,,,,,,
,,"[""period""]",0,[0.6655000000000086],44,0,44,0,1,5f97e6601f6d0e016087fc91,25,Mężczyzna,2022-06-04_08h17.09.951,task,2021.1.4,Win32,50.0150045,628b806c463b948bc644b84f,629af6bc3188c76df72114af,,,,,,,,,,,,,,,,,,,,,,,,,,,,,,,,,,,,,,,,,,,,,,,,,,,,,,,,,,,,,,,,,,,,,,,,,,,,,,,,,,,,,,,,,,,,,,,,,,,,,,,
,,"[""comma""]",0,[0.5032000000476842],45,0,45,0,1,5f97e6601f6d0e016087fc91,25,Mężczyzna,2022-06-04_08h17.09.951,task,2021.1.4,Win32,50.0150045,628b806c463b948bc644b84f,629af6bc3188c76df72114af,,,,,,,,,,,,,,,,,,,,,,,,,,,,,,,,,,,,,,,,,,,,,,,,,,,,,,,,,,,,,,,,,,,,,,,,,,,,,,,,,,,,,,,,,,,,,,,,,,,,,,,
,,"[""period""]",0,[0.8009000000953677],46,0,46,0,1,5f97e6601f6d0e016087fc91,25,Mężczyzna,2022-06-04_08h17.09.951,task,2021.1.4,Win32,50.0150045,628b806c463b948bc644b84f,629af6bc3188c76df72114af,,,,,,,,,,,,,,,,,,,,,,,,,,,,,,,,,,,,,,,,,,,,,,,,,,,,,,,,,,,,,,,,,,,,,,,,,,,,,,,,,,,,,,,,,,,,,,,,,,,,,,,
,,"[""comma""]",0,[1.0800999999046326],47,0,47,0,1,5f97e6601f6d0e016087fc91,25,Mężczyzna,2022-06-04_08h17.09.951,task,2021.1.4,Win32,50.0150045,628b806c463b948bc644b84f,629af6bc3188c76df72114af,,,,,,,,,,,,,,,,,,,,,,,,,,,,,,,,,,,,,,,,,,,,,,,,,,,,,,,,,,,,,,,,,,,,,,,,,,,,,,,,,,,,,,,,,,,,,,,,,,,,,,,
,,"[""comma""]",0,[0.7388000001907358],48,0,48,0,1,5f97e6601f6d0e016087fc91,25,Mężczyzna,2022-06-04_08h17.09.951,task,2021.1.4,Win32,50.0150045,628b806c463b948bc644b84f,629af6bc3188c76df72114af,,,,,,,,,,,,,,,,,,,,,,,,,,,,,,,,,,,,,,,,,,,,,,,,,,,,,,,,,,,,,,,,,,,,,,,,,,,,,,,,,,,,,,,,,,,,,,,,,,,,,,,
,,"[""period""]",0,[0.8354999999999961],49,0,49,0,1,5f97e6601f6d0e016087fc91,25,Mężczyzna,2022-06-04_08h17.09.951,task,2021.1.4,Win32,50.0150045,628b806c463b948bc644b84f,629af6bc3188c76df72114af,,,,,,,,,,,,,,,,,,,,,,,,,,,,,,,,,,,,,,,,,,,,,,,,,,,,,,,,,,,,,,,,,,,,,,,,,,,,,,,,,,,,,,,,,,,,,,,,,,,,,,,
,,"[""comma""]",0,[0.9200000000000159],50,0,50,0,1,5f97e6601f6d0e016087fc91,25,Mężczyzna,2022-06-04_08h17.09.951,task,2021.1.4,Win32,50.0150045,628b806c463b948bc644b84f,629af6bc3188c76df72114af,,,,,,,,,,,,,,,,,,,,,,,,,,,,,,,,,,,,,,,,,,,,,,,,,,,,,,,,,,,,,,,,,,,,,,,,,,,,,,,,,,,,,,,,,,,,,,,,,,,,,,,
,,"[""comma""]",0,[0.8977999999522979],51,0,51,0,1,5f97e6601f6d0e016087fc91,25,Mężczyzna,2022-06-04_08h17.09.951,task,2021.1.4,Win32,50.0150045,628b806c463b948bc644b84f,629af6bc3188c76df72114af,,,,,,,,,,,,,,,,,,,,,,,,,,,,,,,,,,,,,,,,,,,,,,,,,,,,,,,,,,,,,,,,,,,,,,,,,,,,,,,,,,,,,,,,,,,,,,,,,,,,,,,
,,"[""period""]",0,[0.2887999999523174],52,0,52,0,1,5f97e6601f6d0e016087fc91,25,Mężczyzna,2022-06-04_08h17.09.951,task,2021.1.4,Win32,50.0150045,628b806c463b948bc644b84f,629af6bc3188c76df72114af,,,,,,,,,,,,,,,,,,,,,,,,,,,,,,,,,,,,,,,,,,,,,,,,,,,,,,,,,,,,,,,,,,,,,,,,,,,,,,,,,,,,,,,,,,,,,,,,,,,,,,,
,,"[""comma""]",0,[0.24759999990465076],53,0,53,0,1,5f97e6601f6d0e016087fc91,25,Mężczyzna,2022-06-04_08h17.09.951,task,2021.1.4,Win32,50.0150045,628b806c463b948bc644b84f,629af6bc3188c76df72114af,,,,,,,,,,,,,,,,,,,,,,,,,,,,,,,,,,,,,,,,,,,,,,,,,,,,,,,,,,,,,,,,,,,,,,,,,,,,,,,,,,,,,,,,,,,,,,,,,,,,,,,
,,"[""period""]",0,[0.240299999952299],54,0,54,0,1,5f97e6601f6d0e016087fc91,25,Mężczyzna,2022-06-04_08h17.09.951,task,2021.1.4,Win32,50.0150045,628b806c463b948bc644b84f,629af6bc3188c76df72114af,,,,,,,,,,,,,,,,,,,,,,,,,,,,,,,,,,,,,,,,,,,,,,,,,,,,,,,,,,,,,,,,,,,,,,,,,,,,,,,,,,,,,,,,,,,,,,,,,,,,,,,
,,"[""period""]",0,[0.3015000000000043],55,0,55,0,1,5f97e6601f6d0e016087fc91,25,Mężczyzna,2022-06-04_08h17.09.951,task,2021.1.4,Win32,50.0150045,628b806c463b948bc644b84f,629af6bc3188c76df72114af,,,,,,,,,,,,,,,,,,,,,,,,,,,,,,,,,,,,,,,,,,,,,,,,,,,,,,,,,,,,,,,,,,,,,,,,,,,,,,,,,,,,,,,,,,,,,,,,,,,,,,,
,,"[""period""]",0,[0.4035000000000082],56,0,56,0,1,5f97e6601f6d0e016087fc91,25,Mężczyzna,2022-06-04_08h17.09.951,task,2021.1.4,Win32,50.0150045,628b806c463b948bc644b84f,629af6bc3188c76df72114af,,,,,,,,,,,,,,,,,,,,,,,,,,,,,,,,,,,,,,,,,,,,,,,,,,,,,,,,,,,,,,,,,,,,,,,,,,,,,,,,,,,,,,,,,,,,,,,,,,,,,,,
,,"[""comma""]",0,[0.44170000004768895],57,0,57,0,1,5f97e6601f6d0e016087fc91,25,Mężczyzna,2022-06-04_08h17.09.951,task,2021.1.4,Win32,50.0150045,628b806c463b948bc644b84f,629af6bc3188c76df72114af,,,,,,,,,,,,,,,,,,,,,,,,,,,,,,,,,,,,,,,,,,,,,,,,,,,,,,,,,,,,,,,,,,,,,,,,,,,,,,,,,,,,,,,,,,,,,,,,,,,,,,,
,,"[""period""]",0,[0.40929999995231015],58,0,58,0,1,5f97e6601f6d0e016087fc91,25,Mężczyzna,2022-06-04_08h17.09.951,task,2021.1.4,Win32,50.0150045,628b806c463b948bc644b84f,629af6bc3188c76df72114af,,,,,,,,,,,,,,,,,,,,,,,,,,,,,,,,,,,,,,,,,,,,,,,,,,,,,,,,,,,,,,,,,,,,,,,,,,,,,,,,,,,,,,,,,,,,,,,,,,,,,,,
,,"[""comma""]",0,[0.47139999985697045],59,0,59,0,1,5f97e6601f6d0e016087fc91,25,Mężczyzna,2022-06-04_08h17.09.951,task,2021.1.4,Win32,50.0150045,628b806c463b948bc644b84f,629af6bc3188c76df72114af,,,,,,,,,,,,,,,,,,,,,,,,,,,,,,,,,,,,,,,,,,,,,,,,,,,,,,,,,,,,,,,,,,,,,,,,,,,,,,,,,,,,,,,,,,,,,,,,,,,,,,,
,,"[""period""]",0,[0.3272999999523165],60,0,60,0,1,5f97e6601f6d0e016087fc91,25,Mężczyzna,2022-06-04_08h17.09.951,task,2021.1.4,Win32,50.0150045,628b806c463b948bc644b84f,629af6bc3188c76df72114af,,,,,,,,,,,,,,,,,,,,,,,,,,,,,,,,,,,,,,,,,,,,,,,,,,,,,,,,,,,,,,,,,,,,,,,,,,,,,,,,,,,,,,,,,,,,,,,,,,,,,,,
,,"[""period""]",0,[0.4217999999523272],61,0,61,0,1,5f97e6601f6d0e016087fc91,25,Mężczyzna,2022-06-04_08h17.09.951,task,2021.1.4,Win32,50.0150045,628b806c463b948bc644b84f,629af6bc3188c76df72114af,,,,,,,,,,,,,,,,,,,,,,,,,,,,,,,,,,,,,,,,,,,,,,,,,,,,,,,,,,,,,,,,,,,,,,,,,,,,,,,,,,,,,,,,,,,,,,,,,,,,,,,
,,"[""period""]",0,[0.5204999999999984],62,0,62,0,1,5f97e6601f6d0e016087fc91,25,Mężczyzna,2022-06-04_08h17.09.951,task,2021.1.4,Win32,50.0150045,628b806c463b948bc644b84f,629af6bc3188c76df72114af,,,,,,,,,,,,,,,,,,,,,,,,,,,,,,,,,,,,,,,,,,,,,,,,,,,,,,,,,,,,,,,,,,,,,,,,,,,,,,,,,,,,,,,,,,,,,,,,,,,,,,,
,,"[""comma""]",0,[0.4187999999523129],63,0,63,0,1,5f97e6601f6d0e016087fc91,25,Mężczyzna,2022-06-04_08h17.09.951,task,2021.1.4,Win32,50.0150045,628b806c463b948bc644b84f,629af6bc3188c76df72114af,,,,,,,,,,,,,,,,,,,,,,,,,,,,,,,,,,,,,,,,,,,,,,,,,,,,,,,,,,,,,,,,,,,,,,,,,,,,,,,,,,,,,,,,,,,,,,,,,,,,,,,
,,"[""comma""]",0,[0.5687999999523186],64,0,64,0,1,5f97e6601f6d0e016087fc91,25,Mężczyzna,2022-06-04_08h17.09.951,task,2021.1.4,Win32,50.0150045,628b806c463b948bc644b84f,629af6bc3188c76df72114af,,,,,,,,,,,,,,,,,,,,,,,,,,,,,,,,,,,,,,,,,,,,,,,,,,,,,,,,,,,,,,,,,,,,,,,,,,,,,,,,,,,,,,,,,,,,,,,,,,,,,,,
,,"[""period""]",0,[0.29839999985696863],65,0,65,0,1,5f97e6601f6d0e016087fc91,25,Mężczyzna,2022-06-04_08h17.09.951,task,2021.1.4,Win32,50.0150045,628b806c463b948bc644b84f,629af6bc3188c76df72114af,,,,,,,,,,,,,,,,,,,,,,,,,,,,,,,,,,,,,,,,,,,,,,,,,,,,,,,,,,,,,,,,,,,,,,,,,,,,,,,,,,,,,,,,,,,,,,,,,,,,,,,
,,"[""comma""]",0,[0.4982999999523088],66,0,66,0,1,5f97e6601f6d0e016087fc91,25,Mężczyzna,2022-06-04_08h17.09.951,task,2021.1.4,Win32,50.0150045,628b806c463b948bc644b84f,629af6bc3188c76df72114af,,,,,,,,,,,,,,,,,,,,,,,,,,,,,,,,,,,,,,,,,,,,,,,,,,,,,,,,,,,,,,,,,,,,,,,,,,,,,,,,,,,,,,,,,,,,,,,,,,,,,,,
,,"[""period""]",0,[0.446700000047656],67,0,67,0,1,5f97e6601f6d0e016087fc91,25,Mężczyzna,2022-06-04_08h17.09.951,task,2021.1.4,Win32,50.0150045,628b806c463b948bc644b84f,629af6bc3188c76df72114af,,,,,,,,,,,,,,,,,,,,,,,,,,,,,,,,,,,,,,,,,,,,,,,,,,,,,,,,,,,,,,,,,,,,,,,,,,,,,,,,,,,,,,,,,,,,,,,,,,,,,,,
,,"[""comma""]",0,[0.6802000000476767],68,0,68,0,1,5f97e6601f6d0e016087fc91,25,Mężczyzna,2022-06-04_08h17.09.951,task,2021.1.4,Win32,50.0150045,628b806c463b948bc644b84f,629af6bc3188c76df72114af,,,,,,,,,,,,,,,,,,,,,,,,,,,,,,,,,,,,,,,,,,,,,,,,,,,,,,,,,,,,,,,,,,,,,,,,,,,,,,,,,,,,,,,,,,,,,,,,,,,,,,,
,,"[""period""]",0,[0.25849999999999795],69,0,69,0,1,5f97e6601f6d0e016087fc91,25,Mężczyzna,2022-06-04_08h17.09.951,task,2021.1.4,Win32,50.0150045,628b806c463b948bc644b84f,629af6bc3188c76df72114af,,,,,,,,,,,,,,,,,,,,,,,,,,,,,,,,,,,,,,,,,,,,,,,,,,,,,,,,,,,,,,,,,,,,,,,,,,,,,,,,,,,,,,,,,,,,,,,,,,,,,,,
,,"[""comma""]",0,[0.9054999999999893],70,0,70,0,1,5f97e6601f6d0e016087fc91,25,Mężczyzna,2022-06-04_08h17.09.951,task,2021.1.4,Win32,50.0150045,628b806c463b948bc644b84f,629af6bc3188c76df72114af,,,,,,,,,,,,,,,,,,,,,,,,,,,,,,,,,,,,,,,,,,,,,,,,,,,,,,,,,,,,,,,,,,,,,,,,,,,,,,,,,,,,,,,,,,,,,,,,,,,,,,,
,,"[""period""]",0,[0.45090000009537334],71,0,71,0,1,5f97e6601f6d0e016087fc91,25,Mężczyzna,2022-06-04_08h17.09.951,task,2021.1.4,Win32,50.0150045,628b806c463b948bc644b84f,629af6bc3188c76df72114af,,,,,,,,,,,,,,,,,,,,,,,,,,,,,,,,,,,,,,,,,,,,,,,,,,,,,,,,,,,,,,,,,,,,,,,,,,,,,,,,,,,,,,,,,,,,,,,,,,,,,,,
,,"[""period""]",0,[0.569500000000005],72,0,72,0,1,5f97e6601f6d0e016087fc91,25,Mężczyzna,2022-06-04_08h17.09.951,task,2021.1.4,Win32,50.0150045,628b806c463b948bc644b84f,629af6bc3188c76df72114af,,,,,,,,,,,,,,,,,,,,,,,,,,,,,,,,,,,,,,,,,,,,,,,,,,,,,,,,,,,,,,,,,,,,,,,,,,,,,,,,,,,,,,,,,,,,,,,,,,,,,,,
,,"[""comma""]",0,[0.7983999998569686],73,0,73,0,1,5f97e6601f6d0e016087fc91,25,Mężczyzna,2022-06-04_08h17.09.951,task,2021.1.4,Win32,50.0150045,628b806c463b948bc644b84f,629af6bc3188c76df72114af,,,,,,,,,,,,,,,,,,,,,,,,,,,,,,,,,,,,,,,,,,,,,,,,,,,,,,,,,,,,,,,,,,,,,,,,,,,,,,,,,,,,,,,,,,,,,,,,,,,,,,,
,,"[""comma""]",0,[0.4482999999522974],74,0,74,0,1,5f97e6601f6d0e016087fc91,25,Mężczyzna,2022-06-04_08h17.09.951,task,2021.1.4,Win32,50.0150045,628b806c463b948bc644b84f,629af6bc3188c76df72114af,,,,,,,,,,,,,,,,,,,,,,,,,,,,,,,,,,,,,,,,,,,,,,,,,,,,,,,,,,,,,,,,,,,,,,,,,,,,,,,,,,,,,,,,,,,,,,,,,,,,,,,
,,"[""period""]",0,[0.3424000000953811],75,0,75,0,1,5f97e6601f6d0e016087fc91,25,Mężczyzna,2022-06-04_08h17.09.951,task,2021.1.4,Win32,50.0150045,628b806c463b948bc644b84f,629af6bc3188c76df72114af,,,,,,,,,,,,,,,,,,,,,,,,,,,,,,,,,,,,,,,,,,,,,,,,,,,,,,,,,,,,,,,,,,,,,,,,,,,,,,,,,,,,,,,,,,,,,,,,,,,,,,,
,,"[""comma""]",0,[0.31150000000002365],76,0,76,0,1,5f97e6601f6d0e016087fc91,25,Mężczyzna,2022-06-04_08h17.09.951,task,2021.1.4,Win32,50.0150045,628b806c463b948bc644b84f,629af6bc3188c76df72114af,,,,,,,,,,,,,,,,,,,,,,,,,,,,,,,,,,,,,,,,,,,,,,,,,,,,,,,,,,,,,,,,,,,,,,,,,,,,,,,,,,,,,,,,,,,,,,,,,,,,,,,
,,"[""period""]",0,[0.3744999999999834],77,0,77,0,1,5f97e6601f6d0e016087fc91,25,Mężczyzna,2022-06-04_08h17.09.951,task,2021.1.4,Win32,50.0150045,628b806c463b948bc644b84f,629af6bc3188c76df72114af,,,,,,,,,,,,,,,,,,,,,,,,,,,,,,,,,,,,,,,,,,,,,,,,,,,,,,,,,,,,,,,,,,,,,,,,,,,,,,,,,,,,,,,,,,,,,,,,,,,,,,,
,,"[""period""]",0,[0.5714999999999861],78,0,78,0,1,5f97e6601f6d0e016087fc91,25,Mężczyzna,2022-06-04_08h17.09.951,task,2021.1.4,Win32,50.0150045,628b806c463b948bc644b84f,629af6bc3188c76df72114af,,,,,,,,,,,,,,,,,,,,,,,,,,,,,,,,,,,,,,,,,,,,,,,,,,,,,,,,,,,,,,,,,,,,,,,,,,,,,,,,,,,,,,,,,,,,,,,,,,,,,,,
,,"[""comma""]",0,[0.49140000009535356],79,0,79,0,1,5f97e6601f6d0e016087fc91,25,Mężczyzna,2022-06-04_08h17.09.951,task,2021.1.4,Win32,50.0150045,628b806c463b948bc644b84f,629af6bc3188c76df72114af,,,,,,,,,,,,,,,,,,,,,,,,,,,,,,,,,,,,,,,,,,,,,,,,,,,,,,,,,,,,,,,,,,,,,,,,,,,,,,,,,,,,,,,,,,,,,,,,,,,,,,,
,,"[""comma""]",0,[0.46630000019075624],80,0,80,0,1,5f97e6601f6d0e016087fc91,25,Mężczyzna,2022-06-04_08h17.09.951,task,2021.1.4,Win32,50.0150045,628b806c463b948bc644b84f,629af6bc3188c76df72114af,,,,,,,,,,,,,,,,,,,,,,,,,,,,,,,,,,,,,,,,,,,,,,,,,,,,,,,,,,,,,,,,,,,,,,,,,,,,,,,,,,,,,,,,,,,,,,,,,,,,,,,
,,"[""comma""]",0,[1.2302000000477165],81,0,81,0,1,5f97e6601f6d0e016087fc91,25,Mężczyzna,2022-06-04_08h17.09.951,task,2021.1.4,Win32,50.0150045,628b806c463b948bc644b84f,629af6bc3188c76df72114af,,,,,,,,,,,,,,,,,,,,,,,,,,,,,,,,,,,,,,,,,,,,,,,,,,,,,,,,,,,,,,,,,,,,,,,,,,,,,,,,,,,,,,,,,,,,,,,,,,,,,,,
,,"[""period""]",0,[0.6715000000000373],82,0,82,0,1,5f97e6601f6d0e016087fc91,25,Mężczyzna,2022-06-04_08h17.09.951,task,2021.1.4,Win32,50.0150045,628b806c463b948bc644b84f,629af6bc3188c76df72114af,,,,,,,,,,,,,,,,,,,,,,,,,,,,,,,,,,,,,,,,,,,,,,,,,,,,,,,,,,,,,,,,,,,,,,,,,,,,,,,,,,,,,,,,,,,,,,,,,,,,,,,
,,"[""period""]",0,[1.0849999999999795],83,0,83,0,1,5f97e6601f6d0e016087fc91,25,Mężczyzna,2022-06-04_08h17.09.951,task,2021.1.4,Win32,50.0150045,628b806c463b948bc644b84f,629af6bc3188c76df72114af,,,,,,,,,,,,,,,,,,,,,,,,,,,,,,,,,,,,,,,,,,,,,,,,,,,,,,,,,,,,,,,,,,,,,,,,,,,,,,,,,,,,,,,,,,,,,,,,,,,,,,,
,,"[""comma""]",0,[1.4817999999522726],84,0,84,0,1,5f97e6601f6d0e016087fc91,25,Mężczyzna,2022-06-04_08h17.09.951,task,2021.1.4,Win32,50.0150045,628b806c463b948bc644b84f,629af6bc3188c76df72114af,,,,,,,,,,,,,,,,,,,,,,,,,,,,,,,,,,,,,,,,,,,,,,,,,,,,,,,,,,,,,,,,,,,,,,,,,,,,,,,,,,,,,,,,,,,,,,,,,,,,,,,
,,,0,,85,0,85,0,1,5f97e6601f6d0e016087fc91,25,Mężczyzna,2022-06-04_08h17.09.951,task,2021.1.4,Win32,50.0150045,628b806c463b948bc644b84f,629af6bc3188c76df72114af,,,,,,,,,,,,,,,,,,,,,,,,,,,,,,,,,,,,,,,,,,,,,,,,,,,,,,,,,,,,,,,,,,,,,,,,,,,,,,,,,,,,,,,,,,,,,,,,,,,,,,,
,,"[""comma""]",0,[0.428900000095382],86,0,86,0,1,5f97e6601f6d0e016087fc91,25,Mężczyzna,2022-06-04_08h17.09.951,task,2021.1.4,Win32,50.0150045,628b806c463b948bc644b84f,629af6bc3188c76df72114af,,,,,,,,,,,,,,,,,,,,,,,,,,,,,,,,,,,,,,,,,,,,,,,,,,,,,,,,,,,,,,,,,,,,,,,,,,,,,,,,,,,,,,,,,,,,,,,,,,,,,,,
,,"[""period"",""period""]",0,"[0.2619000000954088,1.8216000001430643]",87,0,87,0,1,5f97e6601f6d0e016087fc91,25,Mężczyzna,2022-06-04_08h17.09.951,task,2021.1.4,Win32,50.0150045,628b806c463b948bc644b84f,629af6bc3188c76df72114af,,,,,,,,,,,,,,,,,,,,,,,,,,,,,,,,,,,,,,,,,,,,,,,,,,,,,,,,,,,,,,,,,,,,,,,,,,,,,,,,,,,,,,,,,,,,,,,,,,,,,,,
,,"[""period""]",0,[1.047099999904674],88,0,88,0,1,5f97e6601f6d0e016087fc91,25,Mężczyzna,2022-06-04_08h17.09.951,task,2021.1.4,Win32,50.0150045,628b806c463b948bc644b84f,629af6bc3188c76df72114af,,,,,,,,,,,,,,,,,,,,,,,,,,,,,,,,,,,,,,,,,,,,,,,,,,,,,,,,,,,,,,,,,,,,,,,,,,,,,,,,,,,,,,,,,,,,,,,,,,,,,,,
,,"[""comma""]",0,[0.6312999999523186],89,0,89,0,1,5f97e6601f6d0e016087fc91,25,Mężczyzna,2022-06-04_08h17.09.951,task,2021.1.4,Win32,50.0150045,628b806c463b948bc644b84f,629af6bc3188c76df72114af,,,,,,,,,,,,,,,,,,,,,,,,,,,,,,,,,,,,,,,,,,,,,,,,,,,,,,,,,,,,,,,,,,,,,,,,,,,,,,,,,,,,,,,,,,,,,,,,,,,,,,,
,,"[""period""]",0,[0.6937000000476701],90,0,90,0,1,5f97e6601f6d0e016087fc91,25,Mężczyzna,2022-06-04_08h17.09.951,task,2021.1.4,Win32,50.0150045,628b806c463b948bc644b84f,629af6bc3188c76df72114af,,,,,,,,,,,,,,,,,,,,,,,,,,,,,,,,,,,,,,,,,,,,,,,,,,,,,,,,,,,,,,,,,,,,,,,,,,,,,,,,,,,,,,,,,,,,,,,,,,,,,,,
,,"[""comma""]",0,[0.3739999999999668],91,0,91,0,1,5f97e6601f6d0e016087fc91,25,Mężczyzna,2022-06-04_08h17.09.951,task,2021.1.4,Win32,50.0150045,628b806c463b948bc644b84f,629af6bc3188c76df72114af,,,,,,,,,,,,,,,,,,,,,,,,,,,,,,,,,,,,,,,,,,,,,,,,,,,,,,,,,,,,,,,,,,,,,,,,,,,,,,,,,,,,,,,,,,,,,,,,,,,,,,,
,,"[""period""]",0,[0.3731999998092874],92,0,92,0,1,5f97e6601f6d0e016087fc91,25,Mężczyzna,2022-06-04_08h17.09.951,task,2021.1.4,Win32,50.0150045,628b806c463b948bc644b84f,629af6bc3188c76df72114af,,,,,,,,,,,,,,,,,,,,,,,,,,,,,,,,,,,,,,,,,,,,,,,,,,,,,,,,,,,,,,,,,,,,,,,,,,,,,,,,,,,,,,,,,,,,,,,,,,,,,,,
,,"[""period""]",0,[0.3079999999999927],93,0,93,0,1,5f97e6601f6d0e016087fc91,25,Mężczyzna,2022-06-04_08h17.09.951,task,2021.1.4,Win32,50.0150045,628b806c463b948bc644b84f,629af6bc3188c76df72114af,,,,,,,,,,,,,,,,,,,,,,,,,,,,,,,,,,,,,,,,,,,,,,,,,,,,,,,,,,,,,,,,,,,,,,,,,,,,,,,,,,,,,,,,,,,,,,,,,,,,,,,
,,"[""comma""]",0,[0.4423000001907553],94,0,94,0,1,5f97e6601f6d0e016087fc91,25,Mężczyzna,2022-06-04_08h17.09.951,task,2021.1.4,Win32,50.0150045,628b806c463b948bc644b84f,629af6bc3188c76df72114af,,,,,,,,,,,,,,,,,,,,,,,,,,,,,,,,,,,,,,,,,,,,,,,,,,,,,,,,,,,,,,,,,,,,,,,,,,,,,,,,,,,,,,,,,,,,,,,,,,,,,,,
,,"[""comma""]",0,[0.5421000001430798],95,0,95,0,1,5f97e6601f6d0e016087fc91,25,Mężczyzna,2022-06-04_08h17.09.951,task,2021.1.4,Win32,50.0150045,628b806c463b948bc644b84f,629af6bc3188c76df72114af,,,,,,,,,,,,,,,,,,,,,,,,,,,,,,,,,,,,,,,,,,,,,,,,,,,,,,,,,,,,,,,,,,,,,,,,,,,,,,,,,,,,,,,,,,,,,,,,,,,,,,,
,,"[""period""]",0,[0.3129000000953397],96,0,96,0,1,5f97e6601f6d0e016087fc91,25,Mężczyzna,2022-06-04_08h17.09.951,task,2021.1.4,Win32,50.0150045,628b806c463b948bc644b84f,629af6bc3188c76df72114af,,,,,,,,,,,,,,,,,,,,,,,,,,,,,,,,,,,,,,,,,,,,,,,,,,,,,,,,,,,,,,,,,,,,,,,,,,,,,,,,,,,,,,,,,,,,,,,,,,,,,,,
,,"[""comma""]",0,[0.6307999999523304],97,0,97,0,1,5f97e6601f6d0e016087fc91,25,Mężczyzna,2022-06-04_08h17.09.951,task,2021.1.4,Win32,50.0150045,628b806c463b948bc644b84f,629af6bc3188c76df72114af,,,,,,,,,,,,,,,,,,,,,,,,,,,,,,,,,,,,,,,,,,,,,,,,,,,,,,,,,,,,,,,,,,,,,,,,,,,,,,,,,,,,,,,,,,,,,,,,,,,,,,,
,,"[""period""]",0,[0.9602999999523263],98,0,98,0,1,5f97e6601f6d0e016087fc91,25,Mężczyzna,2022-06-04_08h17.09.951,task,2021.1.4,Win32,50.0150045,628b806c463b948bc644b84f,629af6bc3188c76df72114af,,,,,,,,,,,,,,,,,,,,,,,,,,,,,,,,,,,,,,,,,,,,,,,,,,,,,,,,,,,,,,,,,,,,,,,,,,,,,,,,,,,,,,,,,,,,,,,,,,,,,,,
,,,0,,99,0,99,0,1,5f97e6601f6d0e016087fc91,25,Mężczyzna,2022-06-04_08h17.09.951,task,2021.1.4,Win32,50.0150045,628b806c463b948bc644b84f,629af6bc3188c76df72114af,,,,,,,,,,,,,,,,,,,,,,,,,,,,,,,,,,,,,,,,,,,,,,,,,,,,,,,,,,,,,,,,,,,,,,,,,,,,,,,,,,,,,,,,,,,,,,,,,,,,,,,
,,"[""comma""]",0,[0.29470000004766916],100,0,100,0,1,5f97e6601f6d0e016087fc91,25,Mężczyzna,2022-06-04_08h17.09.951,task,2021.1.4,Win32,50.0150045,628b806c463b948bc644b84f,629af6bc3188c76df72114af,,,,,,,,,,,,,,,,,,,,,,,,,,,,,,,,,,,,,,,,,,,,,,,,,,,,,,,,,,,,,,,,,,,,,,,,,,,,,,,,,,,,,,,,,,,,,,,,,,,,,,,
,,"[""comma""]",0,[0.46909999990458573],101,0,101,0,1,5f97e6601f6d0e016087fc91,25,Mężczyzna,2022-06-04_08h17.09.951,task,2021.1.4,Win32,50.0150045,628b806c463b948bc644b84f,629af6bc3188c76df72114af,,,,,,,,,,,,,,,,,,,,,,,,,,,,,,,,,,,,,,,,,,,,,,,,,,,,,,,,,,,,,,,,,,,,,,,,,,,,,,,,,,,,,,,,,,,,,,,,,,,,,,,
,,"[""comma""]",0,[0.41189999985692793],102,0,102,0,1,5f97e6601f6d0e016087fc91,25,Mężczyzna,2022-06-04_08h17.09.951,task,2021.1.4,Win32,50.0150045,628b806c463b948bc644b84f,629af6bc3188c76df72114af,,,,,,,,,,,,,,,,,,,,,,,,,,,,,,,,,,,,,,,,,,,,,,,,,,,,,,,,,,,,,,,,,,,,,,,,,,,,,,,,,,,,,,,,,,,,,,,,,,,,,,,
,,"[""period""]",0,[0.3559000000954029],103,0,103,0,1,5f97e6601f6d0e016087fc91,25,Mężczyzna,2022-06-04_08h17.09.951,task,2021.1.4,Win32,50.0150045,628b806c463b948bc644b84f,629af6bc3188c76df72114af,,,,,,,,,,,,,,,,,,,,,,,,,,,,,,,,,,,,,,,,,,,,,,,,,,,,,,,,,,,,,,,,,,,,,,,,,,,,,,,,,,,,,,,,,,,,,,,,,,,,,,,
,,"[""period""]",0,[0.48229999995231765],104,0,104,0,1,5f97e6601f6d0e016087fc91,25,Mężczyzna,2022-06-04_08h17.09.951,task,2021.1.4,Win32,50.0150045,628b806c463b948bc644b84f,629af6bc3188c76df72114af,,,,,,,,,,,,,,,,,,,,,,,,,,,,,,,,,,,,,,,,,,,,,,,,,,,,,,,,,,,,,,,,,,,,,,,,,,,,,,,,,,,,,,,,,,,,,,,,,,,,,,,
,,"[""comma""]",0,[0.5684000000953802],105,0,105,0,1,5f97e6601f6d0e016087fc91,25,Mężczyzna,2022-06-04_08h17.09.951,task,2021.1.4,Win32,50.0150045,628b806c463b948bc644b84f,629af6bc3188c76df72114af,,,,,,,,,,,,,,,,,,,,,,,,,,,,,,,,,,,,,,,,,,,,,,,,,,,,,,,,,,,,,,,,,,,,,,,,,,,,,,,,,,,,,,,,,,,,,,,,,,,,,,,
,,"[""period""]",0,[0.384700000047701],106,0,106,0,1,5f97e6601f6d0e016087fc91,25,Mężczyzna,2022-06-04_08h17.09.951,task,2021.1.4,Win32,50.0150045,628b806c463b948bc644b84f,629af6bc3188c76df72114af,,,,,,,,,,,,,,,,,,,,,,,,,,,,,,,,,,,,,,,,,,,,,,,,,,,,,,,,,,,,,,,,,,,,,,,,,,,,,,,,,,,,,,,,,,,,,,,,,,,,,,,
,,"[""comma""]",0,[0.6302999999523422],107,0,107,0,1,5f97e6601f6d0e016087fc91,25,Mężczyzna,2022-06-04_08h17.09.951,task,2021.1.4,Win32,50.0150045,628b806c463b948bc644b84f,629af6bc3188c76df72114af,,,,,,,,,,,,,,,,,,,,,,,,,,,,,,,,,,,,,,,,,,,,,,,,,,,,,,,,,,,,,,,,,,,,,,,,,,,,,,,,,,,,,,,,,,,,,,,,,,,,,,,
,,"[""period""]",0,[0.5341000001430984],108,0,108,0,1,5f97e6601f6d0e016087fc91,25,Mężczyzna,2022-06-04_08h17.09.951,task,2021.1.4,Win32,50.0150045,628b806c463b948bc644b84f,629af6bc3188c76df72114af,,,,,,,,,,,,,,,,,,,,,,,,,,,,,,,,,,,,,,,,,,,,,,,,,,,,,,,,,,,,,,,,,,,,,,,,,,,,,,,,,,,,,,,,,,,,,,,,,,,,,,,
,,"[""comma""]",0,[0.42839999985693566],109,0,109,0,1,5f97e6601f6d0e016087fc91,25,Mężczyzna,2022-06-04_08h17.09.951,task,2021.1.4,Win32,50.0150045,628b806c463b948bc644b84f,629af6bc3188c76df72114af,,,,,,,,,,,,,,,,,,,,,,,,,,,,,,,,,,,,,,,,,,,,,,,,,,,,,,,,,,,,,,,,,,,,,,,,,,,,,,,,,,,,,,,,,,,,,,,,,,,,,,,
,,"[""period""]",0,[0.46779999995231947],110,0,110,0,1,5f97e6601f6d0e016087fc91,25,Mężczyzna,2022-06-04_08h17.09.951,task,2021.1.4,Win32,50.0150045,628b806c463b948bc644b84f,629af6bc3188c76df72114af,,,,,,,,,,,,,,,,,,,,,,,,,,,,,,,,,,,,,,,,,,,,,,,,,,,,,,,,,,,,,,,,,,,,,,,,,,,,,,,,,,,,,,,,,,,,,,,,,,,,,,,
,,"[""comma""]",0,[0.3945999999046421],111,0,111,0,1,5f97e6601f6d0e016087fc91,25,Mężczyzna,2022-06-04_08h17.09.951,task,2021.1.4,Win32,50.0150045,628b806c463b948bc644b84f,629af6bc3188c76df72114af,,,,,,,,,,,,,,,,,,,,,,,,,,,,,,,,,,,,,,,,,,,,,,,,,,,,,,,,,,,,,,,,,,,,,,,,,,,,,,,,,,,,,,,,,,,,,,,,,,,,,,,
,,"[""comma""]",0,[0.3827999999522831],112,0,112,0,1,5f97e6601f6d0e016087fc91,25,Mężczyzna,2022-06-04_08h17.09.951,task,2021.1.4,Win32,50.0150045,628b806c463b948bc644b84f,629af6bc3188c76df72114af,,,,,,,,,,,,,,,,,,,,,,,,,,,,,,,,,,,,,,,,,,,,,,,,,,,,,,,,,,,,,,,,,,,,,,,,,,,,,,,,,,,,,,,,,,,,,,,,,,,,,,,
,,"[""period""]",0,[0.6085000000000491],113,0,113,0,1,5f97e6601f6d0e016087fc91,25,Mężczyzna,2022-06-04_08h17.09.951,task,2021.1.4,Win32,50.0150045,628b806c463b948bc644b84f,629af6bc3188c76df72114af,,,,,,,,,,,,,,,,,,,,,,,,,,,,,,,,,,,,,,,,,,,,,,,,,,,,,,,,,,,,,,,,,,,,,,,,,,,,,,,,,,,,,,,,,,,,,,,,,,,,,,,
,,"[""period""]",0,[0.5832999999523167],114,0,114,0,1,5f97e6601f6d0e016087fc91,25,Mężczyzna,2022-06-04_08h17.09.951,task,2021.1.4,Win32,50.0150045,628b806c463b948bc644b84f,629af6bc3188c76df72114af,,,,,,,,,,,,,,,,,,,,,,,,,,,,,,,,,,,,,,,,,,,,,,,,,,,,,,,,,,,,,,,,,,,,,,,,,,,,,,,,,,,,,,,,,,,,,,,,,,,,,,,
,,"[""comma""]",0,[0.606099999904643],115,0,115,0,1,5f97e6601f6d0e016087fc91,25,Mężczyzna,2022-06-04_08h17.09.951,task,2021.1.4,Win32,50.0150045,628b806c463b948bc644b84f,629af6bc3188c76df72114af,,,,,,,,,,,,,,,,,,,,,,,,,,,,,,,,,,,,,,,,,,,,,,,,,,,,,,,,,,,,,,,,,,,,,,,,,,,,,,,,,,,,,,,,,,,,,,,,,,,,,,,
,,"[""comma""]",0,[0.9872999999523131],116,0,116,0,1,5f97e6601f6d0e016087fc91,25,Mężczyzna,2022-06-04_08h17.09.951,task,2021.1.4,Win32,50.0150045,628b806c463b948bc644b84f,629af6bc3188c76df72114af,,,,,,,,,,,,,,,,,,,,,,,,,,,,,,,,,,,,,,,,,,,,,,,,,,,,,,,,,,,,,,,,,,,,,,,,,,,,,,,,,,,,,,,,,,,,,,,,,,,,,,,
,,"[""period""]",0,[0.6119999999999663],117,0,117,0,1,5f97e6601f6d0e016087fc91,25,Mężczyzna,2022-06-04_08h17.09.951,task,2021.1.4,Win32,50.0150045,628b806c463b948bc644b84f,629af6bc3188c76df72114af,,,,,,,,,,,,,,,,,,,,,,,,,,,,,,,,,,,,,,,,,,,,,,,,,,,,,,,,,,,,,,,,,,,,,,,,,,,,,,,,,,,,,,,,,,,,,,,,,,,,,,,
,,"[""comma""]",0,[0.6007000000477092],118,0,118,0,1,5f97e6601f6d0e016087fc91,25,Mężczyzna,2022-06-04_08h17.09.951,task,2021.1.4,Win32,50.0150045,628b806c463b948bc644b84f,629af6bc3188c76df72114af,,,,,,,,,,,,,,,,,,,,,,,,,,,,,,,,,,,,,,,,,,,,,,,,,,,,,,,,,,,,,,,,,,,,,,,,,,,,,,,,,,,,,,,,,,,,,,,,,,,,,,,
,,"[""period""]",0,[0.5440999999046312],119,0,119,0,1,5f97e6601f6d0e016087fc91,25,Mężczyzna,2022-06-04_08h17.09.951,task,2021.1.4,Win32,50.0150045,628b806c463b948bc644b84f,629af6bc3188c76df72114af,,,,,,,,,,,,,,,,,,,,,,,,,,,,,,,,,,,,,,,,,,,,,,,,,,,,,,,,,,,,,,,,,,,,,,,,,,,,,,,,,,,,,,,,,,,,,,,,,,,,,,,
,,,,,,,,,,5f97e6601f6d0e016087fc91,25,Mężczyzna,2022-06-04_08h17.09.951,task,2021.1.4,Win32,50.0150045,628b806c463b948bc644b84f,629af6bc3188c76df72114af,space,16.8147,space,4.0205,0,0,0,0,1,X V Q F H G B L J M P D K C T S W R N Z,,,,,,,,,,,,,,,,,,,,,,,,,,,,,,,,,,,,,,,,,,,,,,,,,,,,,,,,,,,,,,,,,,,,,,,,,,,,,,,,,,,,,,,,,,,,,
,,,,,,,,,,5f97e6601f6d0e016087fc91,25,Mężczyzna,2022-06-04_08h17.09.951,task,2021.1.4,Win32,50.0150045,628b806c463b948bc644b84f,629af6bc3188c76df72114af,,,,,1,0,1,0,1,X V Q F H G B L J M P D K C T S W R N Z,,,,,,,,,,,,,,,,,,,,,,,,,,,,,,,,,,,,,,,,,,,,,,,,,,,,,,,,,,,,,,,,,,,,,,,,,,,,,,,,,,,,,,,,,,,,,
,,,,,,,,,,5f97e6601f6d0e016087fc91,25,Mężczyzna,2022-06-04_08h17.09.951,task,2021.1.4,Win32,50.0150045,628b806c463b948bc644b84f,629af6bc3188c76df72114af,,,,,,,,,,,zs,"[""z"",""s""]","[1.4313999998569216,1.5657999999523327,2.6340000000000146]",1,ZS,0,0,0,0,1,,,,,,,,,,,,,,,,,,,,,,,,,,,,,,,,,,,,,,,,,,,,,,,,,,,,,,,,,,,,,,,,,,,,,,,,,,,,,,,,,,,
,,,,,,,,,,5f97e6601f6d0e016087fc91,25,Mężczyzna,2022-06-04_08h17.09.951,task,2021.1.4,Win32,50.0150045,628b806c463b948bc644b84f,629af6bc3188c76df72114af,,,,,0,0,0,0,1,X V Q F H G B L J M P D K C T S W R N Z,,,,,,,,,,,,,,,,,,,,,,,,,,,,,,,,,,,,,,,,,,,,,,,,,,,,,,,,,,,,,,,,,,,,,,,,,,,,,,,,,,,,,,,,,,,,,
,,,,,,,,,,5f97e6601f6d0e016087fc91,25,Mężczyzna,2022-06-04_08h17.09.951,task,2021.1.4,Win32,50.0150045,628b806c463b948bc644b84f,629af6bc3188c76df72114af,,,,,1,0,1,0,1,X V Q F H G B L J M P D K C T S W R N Z,,,,,,,,,,,,,,,,,,,,,,,,,,,,,,,,,,,,,,,,,,,,,,,,,,,,,,,,,,,,,,,,,,,,,,,,,,,,,,,,,,,,,,,,,,,,,
,,,,,,,,,,5f97e6601f6d0e016087fc91,25,Mężczyzna,2022-06-04_08h17.09.951,task,2021.1.4,Win32,50.0150045,628b806c463b948bc644b84f,629af6bc3188c76df72114af,,,,,,,,,,,zd,"[""z"",""d""]","[0.8506999998093079,0.939599999904658,1.0191999998093024]",1,ZD,1,0,1,0,1,,,,,,,,,,,,,,,,,,,,,,,,,,,,,,,,,,,,,,,,,,,,,,,,,,,,,,,,,,,,,,,,,,,,,,,,,,,,,,,,,,,
,,,,,,,,,,5f97e6601f6d0e016087fc91,25,Mężczyzna,2022-06-04_08h17.09.951,task,2021.1.4,Win32,50.0150045,628b806c463b948bc644b84f,629af6bc3188c76df72114af,,,,,0,0,0,0,1,X V Q F H G B L J M P D K C T S W R N Z,,,,,,,,,,,,,,,,,,,,,,,,,,,,,,,,,,,,,,,,,,,,,,,,,,,,,,,,,,,,,,,,,,,,,,,,,,,,,,,,,,,,,,,,,,,,,
,,,,,,,,,,5f97e6601f6d0e016087fc91,25,Mężczyzna,2022-06-04_08h17.09.951,task,2021.1.4,Win32,50.0150045,628b806c463b948bc644b84f,629af6bc3188c76df72114af,,,,,1,0,1,0,1,X V Q F H G B L J M P D K C T S W R N Z,,,,,,,,,,,,,,,,,,,,,,,,,,,,,,,,,,,,,,,,,,,,,,,,,,,,,,,,,,,,,,,,,,,,,,,,,,,,,,,,,,,,,,,,,,,,,
,,,,,,,,,,5f97e6601f6d0e016087fc91,25,Mężczyzna,2022-06-04_08h17.09.951,task,2021.1.4,Win32,50.0150045,628b806c463b948bc644b84f,629af6bc3188c76df72114af,,,,,2,0,2,0,1,X V Q F H G B L J M P D K C T S W R N Z,,,,,,,,,,,,,,,,,,,,,,,,,,,,,,,,,,,,,,,,,,,,,,,,,,,,,,,,,,,,,,,,,,,,,,,,,,,,,,,,,,,,,,,,,,,,,
,,,,,,,,,,5f97e6601f6d0e016087fc91,25,Mężczyzna,2022-06-04_08h17.09.951,task,2021.1.4,Win32,50.0150045,628b806c463b948bc644b84f,629af6bc3188c76df72114af,,,,,,,,,,,hgv,"[""h"",""g"",""v""]","[0.712199999809286,0.8622999999523131,1.4091999998092888,1.5111999998092642]",1,HGV,2,0,2,0,1,,,,,,,,,,,,,,,,,,,,,,,,,,,,,,,,,,,,,,,,,,,,,,,,,,,,,,,,,,,,,,,,,,,,,,,,,,,,,,,,,,,
,,,,,,,,,,5f97e6601f6d0e016087fc91,25,Mężczyzna,2022-06-04_08h17.09.951,task,2021.1.4,Win32,50.0150045,628b806c463b948bc644b84f,629af6bc3188c76df72114af,,,,,0,0,0,0,1,X V Q F H G B L J M P D K C T S W R N Z,,,,,,,,,,,,,,,,,,,,,,,,,,,,,,,,,,,,,,,,,,,,,,,,,,,,,,,,,,,,,,,,,,,,,,,,,,,,,,,,,,,,,,,,,,,,,
,,,,,,,,,,5f97e6601f6d0e016087fc91,25,Mężczyzna,2022-06-04_08h17.09.951,task,2021.1.4,Win32,50.0150045,628b806c463b948bc644b84f,629af6bc3188c76df72114af,,,,,1,0,1,0,1,X V Q F H G B L J M P D K C T S W R N Z,,,,,,,,,,,,,,,,,,,,,,,,,,,,,,,,,,,,,,,,,,,,,,,,,,,,,,,,,,,,,,,,,,,,,,,,,,,,,,,,,,,,,,,,,,,,,
,,,,,,,,,,5f97e6601f6d0e016087fc91,25,Mężczyzna,2022-06-04_08h17.09.951,task,2021.1.4,Win32,50.0150045,628b806c463b948bc644b84f,629af6bc3188c76df72114af,,,,,2,0,2,0,1,X V Q F H G B L J M P D K C T S W R N Z,,,,,,,,,,,,,,,,,,,,,,,,,,,,,,,,,,,,,,,,,,,,,,,,,,,,,,,,,,,,,,,,,,,,,,,,,,,,,,,,,,,,,,,,,,,,,
,,,,,,,,,,5f97e6601f6d0e016087fc91,25,Mężczyzna,2022-06-04_08h17.09.951,task,2021.1.4,Win32,50.0150045,628b806c463b948bc644b84f,629af6bc3188c76df72114af,,,,,,,,,,,dxm,"[""d"",""x"",""m""]","[0.46570000004766143,0.6624999999999659,0.7989999999999782,1.0279999999999632]",1,DXM,3,0,3,0,1,,,,,,,,,,,,,,,,,,,,,,,,,,,,,,,,,,,,,,,,,,,,,,,,,,,,,,,,,,,,,,,,,,,,,,,,,,,,,,,,,,,
,,,,,,,,,,5f97e6601f6d0e016087fc91,25,Mężczyzna,2022-06-04_08h17.09.951,task,2021.1.4,Win32,50.0150045,628b806c463b948bc644b84f,629af6bc3188c76df72114af,,,,,0,0,0,0,1,X V Q F H G B L J M P D K C T S W R N Z,,,,,,,,,,,,,,,,,,,,,,,,,,,,,,,,,,,,,,,,,,,,,,,,,,,,,,,,,,,,,,,,,,,,,,,,,,,,,,,,,,,,,,,,,,,,,
,,,,,,,,,,5f97e6601f6d0e016087fc91,25,Mężczyzna,2022-06-04_08h17.09.951,task,2021.1.4,Win32,50.0150045,628b806c463b948bc644b84f,629af6bc3188c76df72114af,,,,,1,0,1,0,1,X V Q F H G B L J M P D K C T S W R N Z,,,,,,,,,,,,,,,,,,,,,,,,,,,,,,,,,,,,,,,,,,,,,,,,,,,,,,,,,,,,,,,,,,,,,,,,,,,,,,,,,,,,,,,,,,,,,
,,,,,,,,,,5f97e6601f6d0e016087fc91,25,Mężczyzna,2022-06-04_08h17.09.951,task,2021.1.4,Win32,50.0150045,628b806c463b948bc644b84f,629af6bc3188c76df72114af,,,,,2,0,2,0,1,X V Q F H G B L J M P D K C T S W R N Z,,,,,,,,,,,,,,,,,,,,,,,,,,,,,,,,,,,,,,,,,,,,,,,,,,,,,,,,,,,,,,,,,,,,,,,,,,,,,,,,,,,,,,,,,,,,,
,,,,,,,,,,5f97e6601f6d0e016087fc91,25,Mężczyzna,2022-06-04_08h17.09.951,task,2021.1.4,Win32,50.0150045,628b806c463b948bc644b84f,629af6bc3188c76df72114af,,,,,3,0,3,0,1,X V Q F H G B L J M P D K C T S W R N Z,,,,,,,,,,,,,,,,,,,,,,,,,,,,,,,,,,,,,,,,,,,,,,,,,,,,,,,,,,,,,,,,,,,,,,,,,,,,,,,,,,,,,,,,,,,,,
,,,,,,,,,,5f97e6601f6d0e016087fc91,25,Mężczyzna,2022-06-04_08h17.09.951,task,2021.1.4,Win32,50.0150045,628b806c463b948bc644b84f,629af6bc3188c76df72114af,,,,,,,,,,,fwmc,"[""f"",""w"",""m"",""c""]","[0.5995000000000346,0.8402999999523217,1.1257000000476864,1.6486000001430625,1.769400000095402]",1,FWMC,4,0,4,0,1,,,,,,,,,,,,,,,,,,,,,,,,,,,,,,,,,,,,,,,,,,,,,,,,,,,,,,,,,,,,,,,,,,,,,,,,,,,,,,,,,,,
,,,,,,,,,,5f97e6601f6d0e016087fc91,25,Mężczyzna,2022-06-04_08h17.09.951,task,2021.1.4,Win32,50.0150045,628b806c463b948bc644b84f,629af6bc3188c76df72114af,,,,,0,0,0,0,1,X V Q F H G B L J M P D K C T S W R N Z,,,,,,,,,,,,,,,,,,,,,,,,,,,,,,,,,,,,,,,,,,,,,,,,,,,,,,,,,,,,,,,,,,,,,,,,,,,,,,,,,,,,,,,,,,,,,
,,,,,,,,,,5f97e6601f6d0e016087fc91,25,Mężczyzna,2022-06-04_08h17.09.951,task,2021.1.4,Win32,50.0150045,628b806c463b948bc644b84f,629af6bc3188c76df72114af,,,,,1,0,1,0,1,X V Q F H G B L J M P D K C T S W R N Z,,,,,,,,,,,,,,,,,,,,,,,,,,,,,,,,,,,,,,,,,,,,,,,,,,,,,,,,,,,,,,,,,,,,,,,,,,,,,,,,,,,,,,,,,,,,,
,,,,,,,,,,5f97e6601f6d0e016087fc91,25,Mężczyzna,2022-06-04_08h17.09.951,task,2021.1.4,Win32,50.0150045,628b806c463b948bc644b84f,629af6bc3188c76df72114af,,,,,2,0,2,0,1,X V Q F H G B L J M P D K C T S W R N Z,,,,,,,,,,,,,,,,,,,,,,,,,,,,,,,,,,,,,,,,,,,,,,,,,,,,,,,,,,,,,,,,,,,,,,,,,,,,,,,,,,,,,,,,,,,,,
,,,,,,,,,,5f97e6601f6d0e016087fc91,25,Mężczyzna,2022-06-04_08h17.09.951,task,2021.1.4,Win32,50.0150045,628b806c463b948bc644b84f,629af6bc3188c76df72114af,,,,,3,0,3,0,1,X V Q F H G B L J M P D K C T S W R N Z,,,,,,,,,,,,,,,,,,,,,,,,,,,,,,,,,,,,,,,,,,,,,,,,,,,,,,,,,,,,,,,,,,,,,,,,,,,,,,,,,,,,,,,,,,,,,
,,,,,,,,,,5f97e6601f6d0e016087fc91,25,Mężczyzna,2022-06-04_08h17.09.951,task,2021.1.4,Win32,50.0150045,628b806c463b948bc644b84f,629af6bc3188c76df72114af,,,,,,,,,,,klnz,"[""k"",""l"",""n"",""z""]","[1.1471999998092883,1.2591999998092547,1.5993999998569848,1.8318999998569439,1.9935999999046317]",1,KLNZ,5,0,5,0,1,,,,,,,,,,,,,,,,,,,,,,,,,,,,,,,,,,,,,,,,,,,,,,,,,,,,,,,,,,,,,,,,,,,,,,,,,,,,,,,,,,,
,,,,,,,,,,5f97e6601f6d0e016087fc91,25,Mężczyzna,2022-06-04_08h17.09.951,task,2021.1.4,Win32,50.0150045,628b806c463b948bc644b84f,629af6bc3188c76df72114af,,,,,0,0,0,0,1,X V Q F H G B L J M P D K C T S W R N Z,,,,,,,,,,,,,,,,,,,,,,,,,,,,,,,,,,,,,,,,,,,,,,,,,,,,,,,,,,,,,,,,,,,,,,,,,,,,,,,,,,,,,,,,,,,,,
,,,,,,,,,,5f97e6601f6d0e016087fc91,25,Mężczyzna,2022-06-04_08h17.09.951,task,2021.1.4,Win32,50.0150045,628b806c463b948bc644b84f,629af6bc3188c76df72114af,,,,,1,0,1,0,1,X V Q F H G B L J M P D K C T S W R N Z,,,,,,,,,,,,,,,,,,,,,,,,,,,,,,,,,,,,,,,,,,,,,,,,,,,,,,,,,,,,,,,,,,,,,,,,,,,,,,,,,,,,,,,,,,,,,
,,,,,,,,,,5f97e6601f6d0e016087fc91,25,Mężczyzna,2022-06-04_08h17.09.951,task,2021.1.4,Win32,50.0150045,628b806c463b948bc644b84f,629af6bc3188c76df72114af,,,,,2,0,2,0,1,X V Q F H G B L J M P D K C T S W R N Z,,,,,,,,,,,,,,,,,,,,,,,,,,,,,,,,,,,,,,,,,,,,,,,,,,,,,,,,,,,,,,,,,,,,,,,,,,,,,,,,,,,,,,,,,,,,,
,,,,,,,,,,5f97e6601f6d0e016087fc91,25,Mężczyzna,2022-06-04_08h17.09.951,task,2021.1.4,Win32,50.0150045,628b806c463b948bc644b84f,629af6bc3188c76df72114af,,,,,3,0,3,0,1,X V Q F H G B L J M P D K C T S W R N Z,,,,,,,,,,,,,,,,,,,,,,,,,,,,,,,,,,,,,,,,,,,,,,,,,,,,,,,,,,,,,,,,,,,,,,,,,,,,,,,,,,,,,,,,,,,,,
,,,,,,,,,,5f97e6601f6d0e016087fc91,25,Mężczyzna,2022-06-04_08h17.09.951,task,2021.1.4,Win32,50.0150045,628b806c463b948bc644b84f,629af6bc3188c76df72114af,,,,,4,0,4,0,1,X V Q F H G B L J M P D K C T S W R N Z,,,,,,,,,,,,,,,,,,,,,,,,,,,,,,,,,,,,,,,,,,,,,,,,,,,,,,,,,,,,,,,,,,,,,,,,,,,,,,,,,,,,,,,,,,,,,
,,,,,,,,,,5f97e6601f6d0e016087fc91,25,Mężczyzna,2022-06-04_08h17.09.951,task,2021.1.4,Win32,50.0150045,628b806c463b948bc644b84f,629af6bc3188c76df72114af,,,,,,,,,,,sdqns,"[""s"",""d"",""q"",""n"",""s""]","[0.5186999998092574,0.7993999998569166,1.0870999999046376,1.3421999998092247,1.6096999998092656,1.9300999999045985]",1,SDQNS,6,0,6,0,1,,,,,,,,,,,,,,,,,,,,,,,,,,,,,,,,,,,,,,,,,,,,,,,,,,,,,,,,,,,,,,,,,,,,,,,,,,,,,,,,,,,
,,,,,,,,,,5f97e6601f6d0e016087fc91,25,Mężczyzna,2022-06-04_08h17.09.951,task,2021.1.4,Win32,50.0150045,628b806c463b948bc644b84f,629af6bc3188c76df72114af,,,,,0,0,0,0,1,X V Q F H G B L J M P D K C T S W R N Z,,,,,,,,,,,,,,,,,,,,,,,,,,,,,,,,,,,,,,,,,,,,,,,,,,,,,,,,,,,,,,,,,,,,,,,,,,,,,,,,,,,,,,,,,,,,,
,,,,,,,,,,5f97e6601f6d0e016087fc91,25,Mężczyzna,2022-06-04_08h17.09.951,task,2021.1.4,Win32,50.0150045,628b806c463b948bc644b84f,629af6bc3188c76df72114af,,,,,1,0,1,0,1,X V Q F H G B L J M P D K C T S W R N Z,,,,,,,,,,,,,,,,,,,,,,,,,,,,,,,,,,,,,,,,,,,,,,,,,,,,,,,,,,,,,,,,,,,,,,,,,,,,,,,,,,,,,,,,,,,,,
,,,,,,,,,,5f97e6601f6d0e016087fc91,25,Mężczyzna,2022-06-04_08h17.09.951,task,2021.1.4,Win32,50.0150045,628b806c463b948bc644b84f,629af6bc3188c76df72114af,,,,,2,0,2,0,1,X V Q F H G B L J M P D K C T S W R N Z,,,,,,,,,,,,,,,,,,,,,,,,,,,,,,,,,,,,,,,,,,,,,,,,,,,,,,,,,,,,,,,,,,,,,,,,,,,,,,,,,,,,,,,,,,,,,
,,,,,,,,,,5f97e6601f6d0e016087fc91,25,Mężczyzna,2022-06-04_08h17.09.951,task,2021.1.4,Win32,50.0150045,628b806c463b948bc644b84f,629af6bc3188c76df72114af,,,,,3,0,3,0,1,X V Q F H G B L J M P D K C T S W R N Z,,,,,,,,,,,,,,,,,,,,,,,,,,,,,,,,,,,,,,,,,,,,,,,,,,,,,,,,,,,,,,,,,,,,,,,,,,,,,,,,,,,,,,,,,,,,,
,,,,,,,,,,5f97e6601f6d0e016087fc91,25,Mężczyzna,2022-06-04_08h17.09.951,task,2021.1.4,Win32,50.0150045,628b806c463b948bc644b84f,629af6bc3188c76df72114af,,,,,4,0,4,0,1,X V Q F H G B L J M P D K C T S W R N Z,,,,,,,,,,,,,,,,,,,,,,,,,,,,,,,,,,,,,,,,,,,,,,,,,,,,,,,,,,,,,,,,,,,,,,,,,,,,,,,,,,,,,,,,,,,,,
,,,,,,,,,,5f97e6601f6d0e016087fc91,25,Mężczyzna,2022-06-04_08h17.09.951,task,2021.1.4,Win32,50.0150045,628b806c463b948bc644b84f,629af6bc3188c76df72114af,,,,,,,,,,,tggxv,"[""t"",""g"",""g"",""x"",""v""]","[0.7242000000476878,0.9785999999046453,1.1825000000000045,1.6097000000477237,1.8795999999046558,2.008000000000038]",1,TGGXV,7,0,7,0,1,,,,,,,,,,,,,,,,,,,,,,,,,,,,,,,,,,,,,,,,,,,,,,,,,,,,,,,,,,,,,,,,,,,,,,,,,,,,,,,,,,,
,,,,,,,,,,5f97e6601f6d0e016087fc91,25,Mężczyzna,2022-06-04_08h17.09.951,task,2021.1.4,Win32,50.0150045,628b806c463b948bc644b84f,629af6bc3188c76df72114af,,,,,0,0,0,0,1,X V Q F H G B L J M P D K C T S W R N Z,,,,,,,,,,,,,,,,,,,,,,,,,,,,,,,,,,,,,,,,,,,,,,,,,,,,,,,,,,,,,,,,,,,,,,,,,,,,,,,,,,,,,,,,,,,,,
,,,,,,,,,,5f97e6601f6d0e016087fc91,25,Mężczyzna,2022-06-04_08h17.09.951,task,2021.1.4,Win32,50.0150045,628b806c463b948bc644b84f,629af6bc3188c76df72114af,,,,,1,0,1,0,1,X V Q F H G B L J M P D K C T S W R N Z,,,,,,,,,,,,,,,,,,,,,,,,,,,,,,,,,,,,,,,,,,,,,,,,,,,,,,,,,,,,,,,,,,,,,,,,,,,,,,,,,,,,,,,,,,,,,
,,,,,,,,,,5f97e6601f6d0e016087fc91,25,Mężczyzna,2022-06-04_08h17.09.951,task,2021.1.4,Win32,50.0150045,628b806c463b948bc644b84f,629af6bc3188c76df72114af,,,,,2,0,2,0,1,X V Q F H G B L J M P D K C T S W R N Z,,,,,,,,,,,,,,,,,,,,,,,,,,,,,,,,,,,,,,,,,,,,,,,,,,,,,,,,,,,,,,,,,,,,,,,,,,,,,,,,,,,,,,,,,,,,,
,,,,,,,,,,5f97e6601f6d0e016087fc91,25,Mężczyzna,2022-06-04_08h17.09.951,task,2021.1.4,Win32,50.0150045,628b806c463b948bc644b84f,629af6bc3188c76df72114af,,,,,3,0,3,0,1,X V Q F H G B L J M P D K C T S W R N Z,,,,,,,,,,,,,,,,,,,,,,,,,,,,,,,,,,,,,,,,,,,,,,,,,,,,,,,,,,,,,,,,,,,,,,,,,,,,,,,,,,,,,,,,,,,,,
,,,,,,,,,,5f97e6601f6d0e016087fc91,25,Mężczyzna,2022-06-04_08h17.09.951,task,2021.1.4,Win32,50.0150045,628b806c463b948bc644b84f,629af6bc3188c76df72114af,,,,,4,0,4,0,1,X V Q F H G B L J M P D K C T S W R N Z,,,,,,,,,,,,,,,,,,,,,,,,,,,,,,,,,,,,,,,,,,,,,,,,,,,,,,,,,,,,,,,,,,,,,,,,,,,,,,,,,,,,,,,,,,,,,
,,,,,,,,,,5f97e6601f6d0e016087fc91,25,Mężczyzna,2022-06-04_08h17.09.951,task,2021.1.4,Win32,50.0150045,628b806c463b948bc644b84f,629af6bc3188c76df72114af,,,,,5,0,5,0,1,X V Q F H G B L J M P D K C T S W R N Z,,,,,,,,,,,,,,,,,,,,,,,,,,,,,,,,,,,,,,,,,,,,,,,,,,,,,,,,,,,,,,,,,,,,,,,,,,,,,,,,,,,,,,,,,,,,,
,,,,,,,,,,5f97e6601f6d0e016087fc91,25,Mężczyzna,2022-06-04_08h17.09.951,task,2021.1.4,Win32,50.0150045,628b806c463b948bc644b84f,629af6bc3188c76df72114af,,,,,,,,,,,wxzhkh,"[""w"",""x"",""z"",""h"",""k"",""h""]","[5.398200000047723,5.905200000047728,6.149599999904638,6.628000000000043,6.758399999856977,6.9112000000477,7.867299999952365]",1,WXZHKH,8,0,8,0,1,,,,,,,,,,,,,,,,,,,,,,,,,,,,,,,,,,,,,,,,,,,,,,,,,,,,,,,,,,,,,,,,,,,,,,,,,,,,,,,,,,,
,,,,,,,,,,5f97e6601f6d0e016087fc91,25,Mężczyzna,2022-06-04_08h17.09.951,task,2021.1.4,Win32,50.0150045,628b806c463b948bc644b84f,629af6bc3188c76df72114af,,,,,0,0,0,0,1,X V Q F H G B L J M P D K C T S W R N Z,,,,,,,,,,,,,,,,,,,,,,,,,,,,,,,,,,,,,,,,,,,,,,,,,,,,,,,,,,,,,,,,,,,,,,,,,,,,,,,,,,,,,,,,,,,,,
,,,,,,,,,,5f97e6601f6d0e016087fc91,25,Mężczyzna,2022-06-04_08h17.09.951,task,2021.1.4,Win32,50.0150045,628b806c463b948bc644b84f,629af6bc3188c76df72114af,,,,,1,0,1,0,1,X V Q F H G B L J M P D K C T S W R N Z,,,,,,,,,,,,,,,,,,,,,,,,,,,,,,,,,,,,,,,,,,,,,,,,,,,,,,,,,,,,,,,,,,,,,,,,,,,,,,,,,,,,,,,,,,,,,
,,,,,,,,,,5f97e6601f6d0e016087fc91,25,Mężczyzna,2022-06-04_08h17.09.951,task,2021.1.4,Win32,50.0150045,628b806c463b948bc644b84f,629af6bc3188c76df72114af,,,,,2,0,2,0,1,X V Q F H G B L J M P D K C T S W R N Z,,,,,,,,,,,,,,,,,,,,,,,,,,,,,,,,,,,,,,,,,,,,,,,,,,,,,,,,,,,,,,,,,,,,,,,,,,,,,,,,,,,,,,,,,,,,,
,,,,,,,,,,5f97e6601f6d0e016087fc91,25,Mężczyzna,2022-06-04_08h17.09.951,task,2021.1.4,Win32,50.0150045,628b806c463b948bc644b84f,629af6bc3188c76df72114af,,,,,3,0,3,0,1,X V Q F H G B L J M P D K C T S W R N Z,,,,,,,,,,,,,,,,,,,,,,,,,,,,,,,,,,,,,,,,,,,,,,,,,,,,,,,,,,,,,,,,,,,,,,,,,,,,,,,,,,,,,,,,,,,,,
,,,,,,,,,,5f97e6601f6d0e016087fc91,25,Mężczyzna,2022-06-04_08h17.09.951,task,2021.1.4,Win32,50.0150045,628b806c463b948bc644b84f,629af6bc3188c76df72114af,,,,,4,0,4,0,1,X V Q F H G B L J M P D K C T S W R N Z,,,,,,,,,,,,,,,,,,,,,,,,,,,,,,,,,,,,,,,,,,,,,,,,,,,,,,,,,,,,,,,,,,,,,,,,,,,,,,,,,,,,,,,,,,,,,
,,,,,,,,,,5f97e6601f6d0e016087fc91,25,Mężczyzna,2022-06-04_08h17.09.951,task,2021.1.4,Win32,50.0150045,628b806c463b948bc644b84f,629af6bc3188c76df72114af,,,,,5,0,5,0,1,X V Q F H G B L J M P D K C T S W R N Z,,,,,,,,,,,,,,,,,,,,,,,,,,,,,,,,,,,,,,,,,,,,,,,,,,,,,,,,,,,,,,,,,,,,,,,,,,,,,,,,,,,,,,,,,,,,,
,,,,,,,,,,5f97e6601f6d0e016087fc91,25,Mężczyzna,2022-06-04_08h17.09.951,task,2021.1.4,Win32,50.0150045,628b806c463b948bc644b84f,629af6bc3188c76df72114af,,,,,,,,,,,tbggtb,"[""t"",""b"",""g"",""g"",""t"",""b""]","[0.7710999999046635,1.032000000000039,1.3250000000000455,1.4990999999046721,3.648099999904673,3.8140000000000214,4.220599999904664]",0,TBGGFT,9,0,9,0,1,,,,,,,,,,,,,,,,,,,,,,,,,,,,,,,,,,,,,,,,,,,,,,,,,,,,,,,,,,,,,,,,,,,,,,,,,,,,,,,,,,,
,,,,,,,,,,5f97e6601f6d0e016087fc91,25,Mężczyzna,2022-06-04_08h17.09.951,task,2021.1.4,Win32,50.0150045,628b806c463b948bc644b84f,629af6bc3188c76df72114af,,,,,0,0,0,0,1,X V Q F H G B L J M P D K C T S W R N Z,,,,,,,,,,,,,,,,,,,,,,,,,,,,,,,,,,,,,,,,,,,,,,,,,,,,,,,,,,,,,,,,,,,,,,,,,,,,,,,,,,,,,,,,,,,,,
,,,,,,,,,,5f97e6601f6d0e016087fc91,25,Mężczyzna,2022-06-04_08h17.09.951,task,2021.1.4,Win32,50.0150045,628b806c463b948bc644b84f,629af6bc3188c76df72114af,,,,,1,0,1,0,1,X V Q F H G B L J M P D K C T S W R N Z,,,,,,,,,,,,,,,,,,,,,,,,,,,,,,,,,,,,,,,,,,,,,,,,,,,,,,,,,,,,,,,,,,,,,,,,,,,,,,,,,,,,,,,,,,,,,
,,,,,,,,,,5f97e6601f6d0e016087fc91,25,Mężczyzna,2022-06-04_08h17.09.951,task,2021.1.4,Win32,50.0150045,628b806c463b948bc644b84f,629af6bc3188c76df72114af,,,,,2,0,2,0,1,X V Q F H G B L J M P D K C T S W R N Z,,,,,,,,,,,,,,,,,,,,,,,,,,,,,,,,,,,,,,,,,,,,,,,,,,,,,,,,,,,,,,,,,,,,,,,,,,,,,,,,,,,,,,,,,,,,,
,,,,,,,,,,5f97e6601f6d0e016087fc91,25,Mężczyzna,2022-06-04_08h17.09.951,task,2021.1.4,Win32,50.0150045,628b806c463b948bc644b84f,629af6bc3188c76df72114af,,,,,3,0,3,0,1,X V Q F H G B L J M P D K C T S W R N Z,,,,,,,,,,,,,,,,,,,,,,,,,,,,,,,,,,,,,,,,,,,,,,,,,,,,,,,,,,,,,,,,,,,,,,,,,,,,,,,,,,,,,,,,,,,,,
,,,,,,,,,,5f97e6601f6d0e016087fc91,25,Mężczyzna,2022-06-04_08h17.09.951,task,2021.1.4,Win32,50.0150045,628b806c463b948bc644b84f,629af6bc3188c76df72114af,,,,,4,0,4,0,1,X V Q F H G B L J M P D K C T S W R N Z,,,,,,,,,,,,,,,,,,,,,,,,,,,,,,,,,,,,,,,,,,,,,,,,,,,,,,,,,,,,,,,,,,,,,,,,,,,,,,,,,,,,,,,,,,,,,
,,,,,,,,,,5f97e6601f6d0e016087fc91,25,Mężczyzna,2022-06-04_08h17.09.951,task,2021.1.4,Win32,50.0150045,628b806c463b948bc644b84f,629af6bc3188c76df72114af,,,,,5,0,5,0,1,X V Q F H G B L J M P D K C T S W R N Z,,,,,,,,,,,,,,,,,,,,,,,,,,,,,,,,,,,,,,,,,,,,,,,,,,,,,,,,,,,,,,,,,,,,,,,,,,,,,,,,,,,,,,,,,,,,,
,,,,,,,,,,5f97e6601f6d0e016087fc91,25,Mężczyzna,2022-06-04_08h17.09.951,task,2021.1.4,Win32,50.0150045,628b806c463b948bc644b84f,629af6bc3188c76df72114af,,,,,,,,,,,szrhjz,"[""s"",""z"",""r"",""h"",""j"",""z""]","[1.3627999999523013,1.5389000000953388,1.8787000000476723,2.011900000095352,2.129799999952297,2.66729999995232,3.649600000143039]",1,SZRHJZ,10,0,10,0,1,,,,,,,,,,,,,,,,,,,,,,,,,,,,,,,,,,,,,,,,,,,,,,,,,,,,,,,,,,,,,,,,,,,,,,,,,,,,,,,,,,,
,,,,,,,,,,5f97e6601f6d0e016087fc91,25,Mężczyzna,2022-06-04_08h17.09.951,task,2021.1.4,Win32,50.0150045,628b806c463b948bc644b84f,629af6bc3188c76df72114af,,,,,0,0,0,0,1,X V Q F H G B L J M P D K C T S W R N Z,,,,,,,,,,,,,,,,,,,,,,,,,,,,,,,,,,,,,,,,,,,,,,,,,,,,,,,,,,,,,,,,,,,,,,,,,,,,,,,,,,,,,,,,,,,,,
,,,,,,,,,,5f97e6601f6d0e016087fc91,25,Mężczyzna,2022-06-04_08h17.09.951,task,2021.1.4,Win32,50.0150045,628b806c463b948bc644b84f,629af6bc3188c76df72114af,,,,,1,0,1,0,1,X V Q F H G B L J M P D K C T S W R N Z,,,,,,,,,,,,,,,,,,,,,,,,,,,,,,,,,,,,,,,,,,,,,,,,,,,,,,,,,,,,,,,,,,,,,,,,,,,,,,,,,,,,,,,,,,,,,
,,,,,,,,,,5f97e6601f6d0e016087fc91,25,Mężczyzna,2022-06-04_08h17.09.951,task,2021.1.4,Win32,50.0150045,628b806c463b948bc644b84f,629af6bc3188c76df72114af,,,,,2,0,2,0,1,X V Q F H G B L J M P D K C T S W R N Z,,,,,,,,,,,,,,,,,,,,,,,,,,,,,,,,,,,,,,,,,,,,,,,,,,,,,,,,,,,,,,,,,,,,,,,,,,,,,,,,,,,,,,,,,,,,,
,,,,,,,,,,5f97e6601f6d0e016087fc91,25,Mężczyzna,2022-06-04_08h17.09.951,task,2021.1.4,Win32,50.0150045,628b806c463b948bc644b84f,629af6bc3188c76df72114af,,,,,3,0,3,0,1,X V Q F H G B L J M P D K C T S W R N Z,,,,,,,,,,,,,,,,,,,,,,,,,,,,,,,,,,,,,,,,,,,,,,,,,,,,,,,,,,,,,,,,,,,,,,,,,,,,,,,,,,,,,,,,,,,,,
,,,,,,,,,,5f97e6601f6d0e016087fc91,25,Mężczyzna,2022-06-04_08h17.09.951,task,2021.1.4,Win32,50.0150045,628b806c463b948bc644b84f,629af6bc3188c76df72114af,,,,,4,0,4,0,1,X V Q F H G B L J M P D K C T S W R N Z,,,,,,,,,,,,,,,,,,,,,,,,,,,,,,,,,,,,,,,,,,,,,,,,,,,,,,,,,,,,,,,,,,,,,,,,,,,,,,,,,,,,,,,,,,,,,
,,,,,,,,,,5f97e6601f6d0e016087fc91,25,Mężczyzna,2022-06-04_08h17.09.951,task,2021.1.4,Win32,50.0150045,628b806c463b948bc644b84f,629af6bc3188c76df72114af,,,,,5,0,5,0,1,X V Q F H G B L J M P D K C T S W R N Z,,,,,,,,,,,,,,,,,,,,,,,,,,,,,,,,,,,,,,,,,,,,,,,,,,,,,,,,,,,,,,,,,,,,,,,,,,,,,,,,,,,,,,,,,,,,,
,,,,,,,,,,5f97e6601f6d0e016087fc91,25,Mężczyzna,2022-06-04_08h17.09.951,task,2021.1.4,Win32,50.0150045,628b806c463b948bc644b84f,629af6bc3188c76df72114af,,,,,6,0,6,0,1,X V Q F H G B L J M P D K C T S W R N Z,,,,,,,,,,,,,,,,,,,,,,,,,,,,,,,,,,,,,,,,,,,,,,,,,,,,,,,,,,,,,,,,,,,,,,,,,,,,,,,,,,,,,,,,,,,,,
,,,,,,,,,,5f97e6601f6d0e016087fc91,25,Mężczyzna,2022-06-04_08h17.09.951,task,2021.1.4,Win32,50.0150045,628b806c463b948bc644b84f,629af6bc3188c76df72114af,,,,,,,,,,,zjqptkj,"[""z"",""j"",""q"",""p"",""t"",""k"",""j""]","[0.3623999998569616,0.5592999999523158,0.9186999998092915,1.3180000000000405,1.663000000000011,2.278500000000008,2.5121999998092974,2.77819999980926]",0,ZJQPTJK,11,0,11,0,1,,,,,,,,,,,,,,,,,,,,,,,,,,,,,,,,,,,,,,,,,,,,,,,,,,,,,,,,,,,,,,,,,,,,,,,,,,,,,,,,,,,
,,,,,,,,,,5f97e6601f6d0e016087fc91,25,Mężczyzna,2022-06-04_08h17.09.951,task,2021.1.4,Win32,50.0150045,628b806c463b948bc644b84f,629af6bc3188c76df72114af,,,,,0,0,0,0,1,X V Q F H G B L J M P D K C T S W R N Z,,,,,,,,,,,,,,,,,,,,,,,,,,,,,,,,,,,,,,,,,,,,,,,,,,,,,,,,,,,,,,,,,,,,,,,,,,,,,,,,,,,,,,,,,,,,,
,,,,,,,,,,5f97e6601f6d0e016087fc91,25,Mężczyzna,2022-06-04_08h17.09.951,task,2021.1.4,Win32,50.0150045,628b806c463b948bc644b84f,629af6bc3188c76df72114af,,,,,1,0,1,0,1,X V Q F H G B L J M P D K C T S W R N Z,,,,,,,,,,,,,,,,,,,,,,,,,,,,,,,,,,,,,,,,,,,,,,,,,,,,,,,,,,,,,,,,,,,,,,,,,,,,,,,,,,,,,,,,,,,,,
,,,,,,,,,,5f97e6601f6d0e016087fc91,25,Mężczyzna,2022-06-04_08h17.09.951,task,2021.1.4,Win32,50.0150045,628b806c463b948bc644b84f,629af6bc3188c76df72114af,,,,,2,0,2,0,1,X V Q F H G B L J M P D K C T S W R N Z,,,,,,,,,,,,,,,,,,,,,,,,,,,,,,,,,,,,,,,,,,,,,,,,,,,,,,,,,,,,,,,,,,,,,,,,,,,,,,,,,,,,,,,,,,,,,
,,,,,,,,,,5f97e6601f6d0e016087fc91,25,Mężczyzna,2022-06-04_08h17.09.951,task,2021.1.4,Win32,50.0150045,628b806c463b948bc644b84f,629af6bc3188c76df72114af,,,,,3,0,3,0,1,X V Q F H G B L J M P D K C T S W R N Z,,,,,,,,,,,,,,,,,,,,,,,,,,,,,,,,,,,,,,,,,,,,,,,,,,,,,,,,,,,,,,,,,,,,,,,,,,,,,,,,,,,,,,,,,,,,,
,,,,,,,,,,5f97e6601f6d0e016087fc91,25,Mężczyzna,2022-06-04_08h17.09.951,task,2021.1.4,Win32,50.0150045,628b806c463b948bc644b84f,629af6bc3188c76df72114af,,,,,4,0,4,0,1,X V Q F H G B L J M P D K C T S W R N Z,,,,,,,,,,,,,,,,,,,,,,,,,,,,,,,,,,,,,,,,,,,,,,,,,,,,,,,,,,,,,,,,,,,,,,,,,,,,,,,,,,,,,,,,,,,,,
,,,,,,,,,,5f97e6601f6d0e016087fc91,25,Mężczyzna,2022-06-04_08h17.09.951,task,2021.1.4,Win32,50.0150045,628b806c463b948bc644b84f,629af6bc3188c76df72114af,,,,,5,0,5,0,1,X V Q F H G B L J M P D K C T S W R N Z,,,,,,,,,,,,,,,,,,,,,,,,,,,,,,,,,,,,,,,,,,,,,,,,,,,,,,,,,,,,,,,,,,,,,,,,,,,,,,,,,,,,,,,,,,,,,
,,,,,,,,,,5f97e6601f6d0e016087fc91,25,Mężczyzna,2022-06-04_08h17.09.951,task,2021.1.4,Win32,50.0150045,628b806c463b948bc644b84f,629af6bc3188c76df72114af,,,,,6,0,6,0,1,X V Q F H G B L J M P D K C T S W R N Z,,,,,,,,,,,,,,,,,,,,,,,,,,,,,,,,,,,,,,,,,,,,,,,,,,,,,,,,,,,,,,,,,,,,,,,,,,,,,,,,,,,,,,,,,,,,,
,,,,,,,,,,5f97e6601f6d0e016087fc91,25,Mężczyzna,2022-06-04_08h17.09.951,task,2021.1.4,Win32,50.0150045,628b806c463b948bc644b84f,629af6bc3188c76df72114af,,,,,,,,,,,zmgvwnw,"[""z"",""m"",""g"",""v"",""w"",""n"",""w""]","[0.6442000000477037,0.8392000000476969,1.0596000001430639,1.4128000001907708,2.2997000000477215,3.019400000095402,3.1695000000000277,3.320600000143088]",1,ZMGVWNW,12,0,12,0,1,,,,,,,,,,,,,,,,,,,,,,,,,,,,,,,,,,,,,,,,,,,,,,,,,,,,,,,,,,,,,,,,,,,,,,,,,,,,,,,,,,,
,,,,,,,,,,5f97e6601f6d0e016087fc91,25,Mężczyzna,2022-06-04_08h17.09.951,task,2021.1.4,Win32,50.0150045,628b806c463b948bc644b84f,629af6bc3188c76df72114af,,,,,0,0,0,0,1,X V Q F H G B L J M P D K C T S W R N Z,,,,,,,,,,,,,,,,,,,,,,,,,,,,,,,,,,,,,,,,,,,,,,,,,,,,,,,,,,,,,,,,,,,,,,,,,,,,,,,,,,,,,,,,,,,,,
,,,,,,,,,,5f97e6601f6d0e016087fc91,25,Mężczyzna,2022-06-04_08h17.09.951,task,2021.1.4,Win32,50.0150045,628b806c463b948bc644b84f,629af6bc3188c76df72114af,,,,,1,0,1,0,1,X V Q F H G B L J M P D K C T S W R N Z,,,,,,,,,,,,,,,,,,,,,,,,,,,,,,,,,,,,,,,,,,,,,,,,,,,,,,,,,,,,,,,,,,,,,,,,,,,,,,,,,,,,,,,,,,,,,
,,,,,,,,,,5f97e6601f6d0e016087fc91,25,Mężczyzna,2022-06-04_08h17.09.951,task,2021.1.4,Win32,50.0150045,628b806c463b948bc644b84f,629af6bc3188c76df72114af,,,,,2,0,2,0,1,X V Q F H G B L J M P D K C T S W R N Z,,,,,,,,,,,,,,,,,,,,,,,,,,,,,,,,,,,,,,,,,,,,,,,,,,,,,,,,,,,,,,,,,,,,,,,,,,,,,,,,,,,,,,,,,,,,,
,,,,,,,,,,5f97e6601f6d0e016087fc91,25,Mężczyzna,2022-06-04_08h17.09.951,task,2021.1.4,Win32,50.0150045,628b806c463b948bc644b84f,629af6bc3188c76df72114af,,,,,3,0,3,0,1,X V Q F H G B L J M P D K C T S W R N Z,,,,,,,,,,,,,,,,,,,,,,,,,,,,,,,,,,,,,,,,,,,,,,,,,,,,,,,,,,,,,,,,,,,,,,,,,,,,,,,,,,,,,,,,,,,,,
,,,,,,,,,,5f97e6601f6d0e016087fc91,25,Mężczyzna,2022-06-04_08h17.09.951,task,2021.1.4,Win32,50.0150045,628b806c463b948bc644b84f,629af6bc3188c76df72114af,,,,,4,0,4,0,1,X V Q F H G B L J M P D K C T S W R N Z,,,,,,,,,,,,,,,,,,,,,,,,,,,,,,,,,,,,,,,,,,,,,,,,,,,,,,,,,,,,,,,,,,,,,,,,,,,,,,,,,,,,,,,,,,,,,
,,,,,,,,,,5f97e6601f6d0e016087fc91,25,Mężczyzna,2022-06-04_08h17.09.951,task,2021.1.4,Win32,50.0150045,628b806c463b948bc644b84f,629af6bc3188c76df72114af,,,,,5,0,5,0,1,X V Q F H G B L J M P D K C T S W R N Z,,,,,,,,,,,,,,,,,,,,,,,,,,,,,,,,,,,,,,,,,,,,,,,,,,,,,,,,,,,,,,,,,,,,,,,,,,,,,,,,,,,,,,,,,,,,,
,,,,,,,,,,5f97e6601f6d0e016087fc91,25,Mężczyzna,2022-06-04_08h17.09.951,task,2021.1.4,Win32,50.0150045,628b806c463b948bc644b84f,629af6bc3188c76df72114af,,,,,6,0,6,0,1,X V Q F H G B L J M P D K C T S W R N Z,,,,,,,,,,,,,,,,,,,,,,,,,,,,,,,,,,,,,,,,,,,,,,,,,,,,,,,,,,,,,,,,,,,,,,,,,,,,,,,,,,,,,,,,,,,,,
,,,,,,,,,,5f97e6601f6d0e016087fc91,25,Mężczyzna,2022-06-04_08h17.09.951,task,2021.1.4,Win32,50.0150045,628b806c463b948bc644b84f,629af6bc3188c76df72114af,,,,,,,,,,,cgxhwk,"[""c"",""g"",""x"",""h"",""w"",""k""]","[0.5311000001430557,1.0991000001430393,1.8019000000953724,1.961200000047711,2.483400000095344,2.718700000047704,2.993100000143045]",0,CGXHQKW,13,0,13,0,1,,,,,,,,,,,,,,,,,,,,,,,,,,,,,,,,,,,,,,,,,,,,,,,,,,,,,,,,,,,,,,,,,,,,,,,,,,,,,,,,,,,
,,,,,,,,,,5f97e6601f6d0e016087fc91,25,Mężczyzna,2022-06-04_08h17.09.951,task,2021.1.4,Win32,50.0150045,628b806c463b948bc644b84f,629af6bc3188c76df72114af,,,,,0,0,0,0,1,X V Q F H G B L J M P D K C T S W R N Z,,,,,,,,,,,,,,,,,,,,,,,,,,,,,,,,,,,,,,,,,,,,,,,,,,,,,,,,,,,,,,,,,,,,,,,,,,,,,,,,,,,,,,,,,,,,,
,,,,,,,,,,5f97e6601f6d0e016087fc91,25,Mężczyzna,2022-06-04_08h17.09.951,task,2021.1.4,Win32,50.0150045,628b806c463b948bc644b84f,629af6bc3188c76df72114af,,,,,1,0,1,0,1,X V Q F H G B L J M P D K C T S W R N Z,,,,,,,,,,,,,,,,,,,,,,,,,,,,,,,,,,,,,,,,,,,,,,,,,,,,,,,,,,,,,,,,,,,,,,,,,,,,,,,,,,,,,,,,,,,,,
,,,,,,,,,,5f97e6601f6d0e016087fc91,25,Mężczyzna,2022-06-04_08h17.09.951,task,2021.1.4,Win32,50.0150045,628b806c463b948bc644b84f,629af6bc3188c76df72114af,,,,,2,0,2,0,1,X V Q F H G B L J M P D K C T S W R N Z,,,,,,,,,,,,,,,,,,,,,,,,,,,,,,,,,,,,,,,,,,,,,,,,,,,,,,,,,,,,,,,,,,,,,,,,,,,,,,,,,,,,,,,,,,,,,
,,,,,,,,,,5f97e6601f6d0e016087fc91,25,Mężczyzna,2022-06-04_08h17.09.951,task,2021.1.4,Win32,50.0150045,628b806c463b948bc644b84f,629af6bc3188c76df72114af,,,,,3,0,3,0,1,X V Q F H G B L J M P D K C T S W R N Z,,,,,,,,,,,,,,,,,,,,,,,,,,,,,,,,,,,,,,,,,,,,,,,,,,,,,,,,,,,,,,,,,,,,,,,,,,,,,,,,,,,,,,,,,,,,,
,,,,,,,,,,5f97e6601f6d0e016087fc91,25,Mężczyzna,2022-06-04_08h17.09.951,task,2021.1.4,Win32,50.0150045,628b806c463b948bc644b84f,629af6bc3188c76df72114af,,,,,4,0,4,0,1,X V Q F H G B L J M P D K C T S W R N Z,,,,,,,,,,,,,,,,,,,,,,,,,,,,,,,,,,,,,,,,,,,,,,,,,,,,,,,,,,,,,,,,,,,,,,,,,,,,,,,,,,,,,,,,,,,,,
,,,,,,,,,,5f97e6601f6d0e016087fc91,25,Mężczyzna,2022-06-04_08h17.09.951,task,2021.1.4,Win32,50.0150045,628b806c463b948bc644b84f,629af6bc3188c76df72114af,,,,,5,0,5,0,1,X V Q F H G B L J M P D K C T S W R N Z,,,,,,,,,,,,,,,,,,,,,,,,,,,,,,,,,,,,,,,,,,,,,,,,,,,,,,,,,,,,,,,,,,,,,,,,,,,,,,,,,,,,,,,,,,,,,
,,,,,,,,,,5f97e6601f6d0e016087fc91,25,Mężczyzna,2022-06-04_08h17.09.951,task,2021.1.4,Win32,50.0150045,628b806c463b948bc644b84f,629af6bc3188c76df72114af,,,,,6,0,6,0,1,X V Q F H G B L J M P D K C T S W R N Z,,,,,,,,,,,,,,,,,,,,,,,,,,,,,,,,,,,,,,,,,,,,,,,,,,,,,,,,,,,,,,,,,,,,,,,,,,,,,,,,,,,,,,,,,,,,,
,,,,,,,,,,5f97e6601f6d0e016087fc91,25,Mężczyzna,2022-06-04_08h17.09.951,task,2021.1.4,Win32,50.0150045,628b806c463b948bc644b84f,629af6bc3188c76df72114af,,,,,,,,,,,mlcgtkf,"[""m"",""l"",""c"",""g"",""t"",""k"",""f""]","[0.4260999999046362,0.529599999904633,0.8274999999999864,1.368299999952285,1.6387999999523117,1.7637000000476633,1.9518999998569484,2.0645000000000095]",1,MLCGTKF,14,0,14,0,1,,,,,,,,,,,,,,,,,,,,,,,,,,,,,,,,,,,,,,,,,,,,,,,,,,,,,,,,,,,,,,,,,,,,,,,,,,,,,,,,,,,
,,,,,,,,,,5f97e6601f6d0e016087fc91,25,Mężczyzna,2022-06-04_08h17.09.951,task,2021.1.4,Win32,50.0150045,628b806c463b948bc644b84f,629af6bc3188c76df72114af,,,,,0,0,0,0,1,X V Q F H G B L J M P D K C T S W R N Z,,,,,,,,,,,,,,,,,,,,,,,,,,,,,,,,,,,,,,,,,,,,,,,,,,,,,,,,,,,,,,,,,,,,,,,,,,,,,,,,,,,,,,,,,,,,,
,,,,,,,,,,5f97e6601f6d0e016087fc91,25,Mężczyzna,2022-06-04_08h17.09.951,task,2021.1.4,Win32,50.0150045,628b806c463b948bc644b84f,629af6bc3188c76df72114af,,,,,1,0,1,0,1,X V Q F H G B L J M P D K C T S W R N Z,,,,,,,,,,,,,,,,,,,,,,,,,,,,,,,,,,,,,,,,,,,,,,,,,,,,,,,,,,,,,,,,,,,,,,,,,,,,,,,,,,,,,,,,,,,,,
,,,,,,,,,,5f97e6601f6d0e016087fc91,25,Mężczyzna,2022-06-04_08h17.09.951,task,2021.1.4,Win32,50.0150045,628b806c463b948bc644b84f,629af6bc3188c76df72114af,,,,,2,0,2,0,1,X V Q F H G B L J M P D K C T S W R N Z,,,,,,,,,,,,,,,,,,,,,,,,,,,,,,,,,,,,,,,,,,,,,,,,,,,,,,,,,,,,,,,,,,,,,,,,,,,,,,,,,,,,,,,,,,,,,
,,,,,,,,,,5f97e6601f6d0e016087fc91,25,Mężczyzna,2022-06-04_08h17.09.951,task,2021.1.4,Win32,50.0150045,628b806c463b948bc644b84f,629af6bc3188c76df72114af,,,,,3,0,3,0,1,X V Q F H G B L J M P D K C T S W R N Z,,,,,,,,,,,,,,,,,,,,,,,,,,,,,,,,,,,,,,,,,,,,,,,,,,,,,,,,,,,,,,,,,,,,,,,,,,,,,,,,,,,,,,,,,,,,,
,,,,,,,,,,5f97e6601f6d0e016087fc91,25,Mężczyzna,2022-06-04_08h17.09.951,task,2021.1.4,Win32,50.0150045,628b806c463b948bc644b84f,629af6bc3188c76df72114af,,,,,4,0,4,0,1,X V Q F H G B L J M P D K C T S W R N Z,,,,,,,,,,,,,,,,,,,,,,,,,,,,,,,,,,,,,,,,,,,,,,,,,,,,,,,,,,,,,,,,,,,,,,,,,,,,,,,,,,,,,,,,,,,,,
,,,,,,,,,,5f97e6601f6d0e016087fc91,25,Mężczyzna,2022-06-04_08h17.09.951,task,2021.1.4,Win32,50.0150045,628b806c463b948bc644b84f,629af6bc3188c76df72114af,,,,,5,0,5,0,1,X V Q F H G B L J M P D K C T S W R N Z,,,,,,,,,,,,,,,,,,,,,,,,,,,,,,,,,,,,,,,,,,,,,,,,,,,,,,,,,,,,,,,,,,,,,,,,,,,,,,,,,,,,,,,,,,,,,
,,,,,,,,,,5f97e6601f6d0e016087fc91,25,Mężczyzna,2022-06-04_08h17.09.951,task,2021.1.4,Win32,50.0150045,628b806c463b948bc644b84f,629af6bc3188c76df72114af,,,,,6,0,6,0,1,X V Q F H G B L J M P D K C T S W R N Z,,,,,,,,,,,,,,,,,,,,,,,,,,,,,,,,,,,,,,,,,,,,,,,,,,,,,,,,,,,,,,,,,,,,,,,,,,,,,,,,,,,,,,,,,,,,,
,,,,,,,,,,5f97e6601f6d0e016087fc91,25,Mężczyzna,2022-06-04_08h17.09.951,task,2021.1.4,Win32,50.0150045,628b806c463b948bc644b84f,629af6bc3188c76df72114af,,,,,7,0,7,0,1,X V Q F H G B L J M P D K C T S W R N Z,,,,,,,,,,,,,,,,,,,,,,,,,,,,,,,,,,,,,,,,,,,,,,,,,,,,,,,,,,,,,,,,,,,,,,,,,,,,,,,,,,,,,,,,,,,,,
,,,,,,,,,,5f97e6601f6d0e016087fc91,25,Mężczyzna,2022-06-04_08h17.09.951,task,2021.1.4,Win32,50.0150045,628b806c463b948bc644b84f,629af6bc3188c76df72114af,,,,,,,,,,,bjxcbwfg,"[""b"",""j"",""x"",""c"",""b"",""w"",""f"",""g""]","[0.39309999990462074,0.5038999998569693,1.0415999999046335,1.350999999999999,1.6125999999046599,1.8805999999046321,2.1427000000476824,2.467599999904621,3.0585999999046294]",0,BJXCWGFB,15,0,15,0,1,,,,,,,,,,,,,,,,,,,,,,,,,,,,,,,,,,,,,,,,,,,,,,,,,,,,,,,,,,,,,,,,,,,,,,,,,,,,,,,,,,,
,,,,,,,,,,5f97e6601f6d0e016087fc91,25,Mężczyzna,2022-06-04_08h17.09.951,task,2021.1.4,Win32,50.0150045,628b806c463b948bc644b84f,629af6bc3188c76df72114af,,,,,0,0,0,0,1,X V Q F H G B L J M P D K C T S W R N Z,,,,,,,,,,,,,,,,,,,,,,,,,,,,,,,,,,,,,,,,,,,,,,,,,,,,,,,,,,,,,,,,,,,,,,,,,,,,,,,,,,,,,,,,,,,,,
,,,,,,,,,,5f97e6601f6d0e016087fc91,25,Mężczyzna,2022-06-04_08h17.09.951,task,2021.1.4,Win32,50.0150045,628b806c463b948bc644b84f,629af6bc3188c76df72114af,,,,,1,0,1,0,1,X V Q F H G B L J M P D K C T S W R N Z,,,,,,,,,,,,,,,,,,,,,,,,,,,,,,,,,,,,,,,,,,,,,,,,,,,,,,,,,,,,,,,,,,,,,,,,,,,,,,,,,,,,,,,,,,,,,
,,,,,,,,,,5f97e6601f6d0e016087fc91,25,Mężczyzna,2022-06-04_08h17.09.951,task,2021.1.4,Win32,50.0150045,628b806c463b948bc644b84f,629af6bc3188c76df72114af,,,,,2,0,2,0,1,X V Q F H G B L J M P D K C T S W R N Z,,,,,,,,,,,,,,,,,,,,,,,,,,,,,,,,,,,,,,,,,,,,,,,,,,,,,,,,,,,,,,,,,,,,,,,,,,,,,,,,,,,,,,,,,,,,,
,,,,,,,,,,5f97e6601f6d0e016087fc91,25,Mężczyzna,2022-06-04_08h17.09.951,task,2021.1.4,Win32,50.0150045,628b806c463b948bc644b84f,629af6bc3188c76df72114af,,,,,3,0,3,0,1,X V Q F H G B L J M P D K C T S W R N Z,,,,,,,,,,,,,,,,,,,,,,,,,,,,,,,,,,,,,,,,,,,,,,,,,,,,,,,,,,,,,,,,,,,,,,,,,,,,,,,,,,,,,,,,,,,,,
,,,,,,,,,,5f97e6601f6d0e016087fc91,25,Mężczyzna,2022-06-04_08h17.09.951,task,2021.1.4,Win32,50.0150045,628b806c463b948bc644b84f,629af6bc3188c76df72114af,,,,,4,0,4,0,1,X V Q F H G B L J M P D K C T S W R N Z,,,,,,,,,,,,,,,,,,,,,,,,,,,,,,,,,,,,,,,,,,,,,,,,,,,,,,,,,,,,,,,,,,,,,,,,,,,,,,,,,,,,,,,,,,,,,
,,,,,,,,,,5f97e6601f6d0e016087fc91,25,Mężczyzna,2022-06-04_08h17.09.951,task,2021.1.4,Win32,50.0150045,628b806c463b948bc644b84f,629af6bc3188c76df72114af,,,,,5,0,5,0,1,X V Q F H G B L J M P D K C T S W R N Z,,,,,,,,,,,,,,,,,,,,,,,,,,,,,,,,,,,,,,,,,,,,,,,,,,,,,,,,,,,,,,,,,,,,,,,,,,,,,,,,,,,,,,,,,,,,,
,,,,,,,,,,5f97e6601f6d0e016087fc91,25,Mężczyzna,2022-06-04_08h17.09.951,task,2021.1.4,Win32,50.0150045,628b806c463b948bc644b84f,629af6bc3188c76df72114af,,,,,6,0,6,0,1,X V Q F H G B L J M P D K C T S W R N Z,,,,,,,,,,,,,,,,,,,,,,,,,,,,,,,,,,,,,,,,,,,,,,,,,,,,,,,,,,,,,,,,,,,,,,,,,,,,,,,,,,,,,,,,,,,,,
,,,,,,,,,,5f97e6601f6d0e016087fc91,25,Mężczyzna,2022-06-04_08h17.09.951,task,2021.1.4,Win32,50.0150045,628b806c463b948bc644b84f,629af6bc3188c76df72114af,,,,,7,0,7,0,1,X V Q F H G B L J M P D K C T S W R N Z,,,,,,,,,,,,,,,,,,,,,,,,,,,,,,,,,,,,,,,,,,,,,,,,,,,,,,,,,,,,,,,,,,,,,,,,,,,,,,,,,,,,,,,,,,,,,
,,,,,,,,,,5f97e6601f6d0e016087fc91,25,Mężczyzna,2022-06-04_08h17.09.951,task,2021.1.4,Win32,50.0150045,628b806c463b948bc644b84f,629af6bc3188c76df72114af,,,,,,,,,,,bjgvhvn,"[""b"",""j"",""g"",""v"",""h"",""v"",""n""]","[0.6000999999047281,0.7269000000953838,1.2017999999524136,1.470900000095412,3.3985000000000127,3.5592999999523727,3.9007000000477774,4.118700000047738]",0,BJGVHJVP,16,0,16,0,1,,,,,,,,,,,,,,,,,,,,,,,,,,,,,,,,,,,,,,,,,,,,,,,,,,,,,,,,,,,,,,,,,,,,,,,,,,,,,,,,,,,
,,,,,,,,,,5f97e6601f6d0e016087fc91,25,Mężczyzna,2022-06-04_08h17.09.951,task,2021.1.4,Win32,50.0150045,628b806c463b948bc644b84f,629af6bc3188c76df72114af,,,,,0,0,0,0,1,X V Q F H G B L J M P D K C T S W R N Z,,,,,,,,,,,,,,,,,,,,,,,,,,,,,,,,,,,,,,,,,,,,,,,,,,,,,,,,,,,,,,,,,,,,,,,,,,,,,,,,,,,,,,,,,,,,,
,,,,,,,,,,5f97e6601f6d0e016087fc91,25,Mężczyzna,2022-06-04_08h17.09.951,task,2021.1.4,Win32,50.0150045,628b806c463b948bc644b84f,629af6bc3188c76df72114af,,,,,1,0,1,0,1,X V Q F H G B L J M P D K C T S W R N Z,,,,,,,,,,,,,,,,,,,,,,,,,,,,,,,,,,,,,,,,,,,,,,,,,,,,,,,,,,,,,,,,,,,,,,,,,,,,,,,,,,,,,,,,,,,,,
,,,,,,,,,,5f97e6601f6d0e016087fc91,25,Mężczyzna,2022-06-04_08h17.09.951,task,2021.1.4,Win32,50.0150045,628b806c463b948bc644b84f,629af6bc3188c76df72114af,,,,,2,0,2,0,1,X V Q F H G B L J M P D K C T S W R N Z,,,,,,,,,,,,,,,,,,,,,,,,,,,,,,,,,,,,,,,,,,,,,,,,,,,,,,,,,,,,,,,,,,,,,,,,,,,,,,,,,,,,,,,,,,,,,
,,,,,,,,,,5f97e6601f6d0e016087fc91,25,Mężczyzna,2022-06-04_08h17.09.951,task,2021.1.4,Win32,50.0150045,628b806c463b948bc644b84f,629af6bc3188c76df72114af,,,,,3,0,3,0,1,X V Q F H G B L J M P D K C T S W R N Z,,,,,,,,,,,,,,,,,,,,,,,,,,,,,,,,,,,,,,,,,,,,,,,,,,,,,,,,,,,,,,,,,,,,,,,,,,,,,,,,,,,,,,,,,,,,,
,,,,,,,,,,5f97e6601f6d0e016087fc91,25,Mężczyzna,2022-06-04_08h17.09.951,task,2021.1.4,Win32,50.0150045,628b806c463b948bc644b84f,629af6bc3188c76df72114af,,,,,4,0,4,0,1,X V Q F H G B L J M P D K C T S W R N Z,,,,,,,,,,,,,,,,,,,,,,,,,,,,,,,,,,,,,,,,,,,,,,,,,,,,,,,,,,,,,,,,,,,,,,,,,,,,,,,,,,,,,,,,,,,,,
,,,,,,,,,,5f97e6601f6d0e016087fc91,25,Mężczyzna,2022-06-04_08h17.09.951,task,2021.1.4,Win32,50.0150045,628b806c463b948bc644b84f,629af6bc3188c76df72114af,,,,,5,0,5,0,1,X V Q F H G B L J M P D K C T S W R N Z,,,,,,,,,,,,,,,,,,,,,,,,,,,,,,,,,,,,,,,,,,,,,,,,,,,,,,,,,,,,,,,,,,,,,,,,,,,,,,,,,,,,,,,,,,,,,
,,,,,,,,,,5f97e6601f6d0e016087fc91,25,Mężczyzna,2022-06-04_08h17.09.951,task,2021.1.4,Win32,50.0150045,628b806c463b948bc644b84f,629af6bc3188c76df72114af,,,,,6,0,6,0,1,X V Q F H G B L J M P D K C T S W R N Z,,,,,,,,,,,,,,,,,,,,,,,,,,,,,,,,,,,,,,,,,,,,,,,,,,,,,,,,,,,,,,,,,,,,,,,,,,,,,,,,,,,,,,,,,,,,,
,,,,,,,,,,5f97e6601f6d0e016087fc91,25,Mężczyzna,2022-06-04_08h17.09.951,task,2021.1.4,Win32,50.0150045,628b806c463b948bc644b84f,629af6bc3188c76df72114af,,,,,7,0,7,0,1,X V Q F H G B L J M P D K C T S W R N Z,,,,,,,,,,,,,,,,,,,,,,,,,,,,,,,,,,,,,,,,,,,,,,,,,,,,,,,,,,,,,,,,,,,,,,,,,,,,,,,,,,,,,,,,,,,,,
,,,,,,,,,,5f97e6601f6d0e016087fc91,25,Mężczyzna,2022-06-04_08h17.09.951,task,2021.1.4,Win32,50.0150045,628b806c463b948bc644b84f,629af6bc3188c76df72114af,,,,,,,,,,,gdltbvnj,"[""g"",""d"",""l"",""t"",""b"",""v"",""n"",""j""]","[0.6797999999523654,0.86850000000004,1.0517999999523227,1.4070999999046307,1.6920000000000073,5.149599999904694,5.3075000000000045,6.505499999999984,6.680900000095335]",0,GDLTBVJK,17,0,17,0,1,,,,,,,,,,,,,,,,,,,,,,,,,,,,,,,,,,,,,,,,,,,,,,,,,,,,,,,,,,,,,,,,,,,,,,,,,,,,,,,,,,,
,,,,,,,,,,5f97e6601f6d0e016087fc91,25,Mężczyzna,2022-06-04_08h17.09.951,task,2021.1.4,Win32,50.0150045,628b806c463b948bc644b84f,629af6bc3188c76df72114af,,,,,,,,,,,,,,,,,,,,,space,6.0786,1,"[""1""]",1,[1.7657000000476728],[1.7657000000476728],0,0,0,1,1,Practice,2,(4x4) - 15,1,,,,,,,,,,,,,,,,,,,,,,,,,,,,,,,,,,,,,,,,,,,,,,,,,,,,,,,,,,,,,,,,,,,
,,,,,,,,,,5f97e6601f6d0e016087fc91,25,Mężczyzna,2022-06-04_08h17.09.951,task,2021.1.4,Win32,50.0150045,628b806c463b948bc644b84f,629af6bc3188c76df72114af,,,,,,,,,,,,,,,,,,,,,,,2,"[""2""]",1,[1.8392999999523454],"[1.7657000000476728,1.8392999999523454]",0,1,1,2,1,Practice,3,(4x4) - 14,2,,,,,,,,,,,,,,,,,,,,,,,,,,,,,,,,,,,,,,,,,,,,,,,,,,,,,,,,,,,,,,,,,,,
,,,,,,,,,,5f97e6601f6d0e016087fc91,25,Mężczyzna,2022-06-04_08h17.09.951,task,2021.1.4,Win32,50.0150045,628b806c463b948bc644b84f,629af6bc3188c76df72114af,,,,,,,,,,,,,,,,,,,,,,,4,"[""4""]",1,[3.012299999952347],"[1.7657000000476728,1.8392999999523454,3.012299999952347]",0,2,2,4,1,Practice,5,(2x6) - 8,4,,,,,,,,,,,,,,,,,,,,,,,,,,,,,,,,,,,,,,,,,,,,,,,,,,,,,,,,,,,,,,,,,,,
,,,,,,,,,,5f97e6601f6d0e016087fc91,25,Mężczyzna,2022-06-04_08h17.09.951,task,2021.1.4,Win32,50.0150045,628b806c463b948bc644b84f,629af6bc3188c76df72114af,,,,,,,,,,,,,,,,,,,,,,,3,"[""3""]",1,[1.8802000000476937],"[1.7657000000476728,1.8392999999523454,3.012299999952347,1.8802000000476937]",0,3,3,3,1,Practice,4,(8/4) + 1,3,,,,,,,,,,,,,,,,,,,,,,,,,,,,,,,,,,,,,,,,,,,,,,,,,,,,,,,,,,,,,,,,,,,
,,,,,,,,,,5f97e6601f6d0e016087fc91,25,Mężczyzna,2022-06-04_08h17.09.951,task,2021.1.4,Win32,50.0150045,628b806c463b948bc644b84f,629af6bc3188c76df72114af,,,,,,,,,,,,,,,,,,,,,,,9,"[""9""]",1,[1.7801999998092697],"[1.7657000000476728,1.8392999999523454,3.012299999952347,1.8802000000476937,1.7801999998092697]",0,4,4,9,1,Practice,10,(20/2) - 1,9,,,,,,,,,,,,,,,,,,,,,,,,,,,,,,,,,,,,,,,,,,,,,,,,,,,,,,,,,,,,,,,,,,,
,,,,,,,,,,5f97e6601f6d0e016087fc91,25,Mężczyzna,2022-06-04_08h17.09.951,task,2021.1.4,Win32,50.0150045,628b806c463b948bc644b84f,629af6bc3188c76df72114af,,,,,,,,,,,,,,,,,,,,,,,5,"[""5""]",1,[2.3310000000000173],"[1.7657000000476728,1.8392999999523454,3.012299999952347,1.8802000000476937,1.7801999998092697,2.3310000000000173]",0,5,5,5,1,Practice,6,(4/2) + 3,5,,,,,,,,,,,,,,,,,,,,,,,,,,,,,,,,,,,,,,,,,,,,,,,,,,,,,,,,,,,,,,,,,,,
,,,,,,,,,,5f97e6601f6d0e016087fc91,25,Mężczyzna,2022-06-04_08h17.09.951,task,2021.1.4,Win32,50.0150045,628b806c463b948bc644b84f,629af6bc3188c76df72114af,,,,,,,,,,,,,,,,,,,,,,,0,"[""0""]",1,[1.4206999998092442],"[1.7657000000476728,1.8392999999523454,3.012299999952347,1.8802000000476937,1.7801999998092697,2.3310000000000173,1.4206999998092442]",0,6,6,0,1,Practice,1,(3x3) -  9,0,,,,,,,,,,,,,,,,,,,,,,,,,,,,,,,,,,,,,,,,,,,,,,,,,,,,,,,,,,,,,,,,,,,
,,,,,,,,,,5f97e6601f6d0e016087fc91,25,Mężczyzna,2022-06-04_08h17.09.951,task,2021.1.4,Win32,50.0150045,628b806c463b948bc644b84f,629af6bc3188c76df72114af,,,,,,,,,,,,,,,,,,,,,,,7,"[""7""]",1,[2.413799999952289],"[1.7657000000476728,1.8392999999523454,3.012299999952347,1.8802000000476937,1.7801999998092697,2.3310000000000173,1.4206999998092442,2.413799999952289]",0,7,7,7,1,Practice,8,(5x5) - 18,7,,,,,,,,,,,,,,,,,,,,,,,,,,,,,,,,,,,,,,,,,,,,,,,,,,,,,,,,,,,,,,,,,,,
,,,,,,,,,,5f97e6601f6d0e016087fc91,25,Mężczyzna,2022-06-04_08h17.09.951,task,2021.1.4,Win32,50.0150045,628b806c463b948bc644b84f,629af6bc3188c76df72114af,,,,,,,,,,,,,,,,,,,,,,,8,"[""8""]",1,[1.5204000000953783],"[1.7657000000476728,1.8392999999523454,3.012299999952347,1.8802000000476937,1.7801999998092697,2.3310000000000173,1.4206999998092442,2.413799999952289,1.5204000000953783]",0,8,8,8,1,Practice,9,(3x3) - 1,8,,,,,,,,,,,,,,,,,,,,,,,,,,,,,,,,,,,,,,,,,,,,,,,,,,,,,,,,,,,,,,,,,,,
,,,,,,,,,,5f97e6601f6d0e016087fc91,25,Mężczyzna,2022-06-04_08h17.09.951,task,2021.1.4,Win32,50.0150045,628b806c463b948bc644b84f,629af6bc3188c76df72114af,,,,,,,,,,,,,,,,,,,,,,,6,"[""6""]",1,[1.8624999999999545],"[1.7657000000476728,1.8392999999523454,3.012299999952347,1.8802000000476937,1.7801999998092697,2.3310000000000173,1.4206999998092442,2.413799999952289,1.5204000000953783,1.8624999999999545]",0,9,9,6,1,Practice,7,(25/5) + 1,6,,,,,,,,,,,,,,,,,,,,,,,,,,,,,,,,,,,,,,,,,,,,,,,,,,,,,,,,,,,,,,,,,,,
,,,,,,,,,,5f97e6601f6d0e016087fc91,25,Mężczyzna,2022-06-04_08h17.09.951,task,2021.1.4,Win32,50.0150045,628b806c463b948bc644b84f,629af6bc3188c76df72114af,,,,,,,,,,,,,,,,,,,,,,,,,,,,,,,,,,,,,1,19.8261,1.32174,6.397906138,0.653090404,3.006713242,space,1.9801,0,0,0,0,1,,,,,,,,,,,,,,,,,,,,,,,,,,,,,,,,,,,,,,,,,,,,,,,,,,,,,,
,,,,,,,,,,5f97e6601f6d0e016087fc91,25,Mężczyzna,2022-06-04_08h17.09.951,task,2021.1.4,Win32,50.0150045,628b806c463b948bc644b84f,629af6bc3188c76df72114af,,,,,,,,,,,,,,,,,,,,,,,8,,,,,,,,,,Practice,9,(3x3) - 1,8,,,,,,,,,,,,,,space,5.238,"[""8""]",1,[1.24350000000004],1,0,0,0,8,1,,,,,,,,,,,,,,,,,,,,,,,,,,,,,,,,,,,,,,,,,,,
,,,,,,,,,,5f97e6601f6d0e016087fc91,25,Mężczyzna,2022-06-04_08h17.09.951,task,2021.1.4,Win32,50.0150045,628b806c463b948bc644b84f,629af6bc3188c76df72114af,,,,,,,,,,X V Q F H G B L J M P D K C T S W R N Z,,,,,,,,,,,,,,,,,,,,,,,,,,,,,,,,,,,,,,,,,,,,,,,,,,,0,0,0,0,1,,,,,,,,,,,,,,,,,,,,,,,,,,,,,,,,,,,,,,
,,,,,,,,,,5f97e6601f6d0e016087fc91,25,Mężczyzna,2022-06-04_08h17.09.951,task,2021.1.4,Win32,50.0150045,628b806c463b948bc644b84f,629af6bc3188c76df72114af,,,,,,,,,,,,,,,,,,,,,,,2,,,,,,,,,,Practice,3,(4x4) - 14,2,,,,,,,,,,,,,,,,"[""2""]",1,[1.4624000000953856],1,0,0,0,2,1,,,,,,,,,,,,,,,,,,,,,,,,,,,,,,,,,,,,,,,,,,,
,,,,,,,,,,5f97e6601f6d0e016087fc91,25,Mężczyzna,2022-06-04_08h17.09.951,task,2021.1.4,Win32,50.0150045,628b806c463b948bc644b84f,629af6bc3188c76df72114af,,,,,,,,,,X V Q F H G B L J M P D K C T S W R N Z,,,,,,,,,,,,,,,,,,,,,,,,,,,,,,,,,,,,,,,,,,,,,,,,,,,1,0,1,0,1,,,,,,,,,,,,,,,,,,,,,,,,,,,,,,,,,,,,,,
,,,,,,,,,,5f97e6601f6d0e016087fc91,25,Mężczyzna,2022-06-04_08h17.09.951,task,2021.1.4,Win32,50.0150045,628b806c463b948bc644b84f,629af6bc3188c76df72114af,,,,,,,,,,,,,,,,,,,,,,,,,,,,,,,,,,,,,,,,,,,,,,,,,,,,,,,,,,,,,,,,,,zd,"[""z"",""d""]",0,"[1.6134000000953392,1.803599999904577,2.3070000000000164]",1,0,0,0,0,1,,,,,,,,,,,,,,,,,,,,,,,,,,,,
,,,,,,,,,,5f97e6601f6d0e016087fc91,25,Mężczyzna,2022-06-04_08h17.09.951,task,2021.1.4,Win32,50.0150045,628b806c463b948bc644b84f,629af6bc3188c76df72114af,,,,,,,,,,,,,,,,,,,,,,,8,,,,,,,,,,Practice,9,(3x3) - 1,8,,,,,,,,,,,,,,,,"[""8""]",1,[1.1022999999522654],1,0,0,0,8,1,,,,,,,,,,,,,,,,,,,,,,,,,,,,,,,,,,,,,,,,,,,
,,,,,,,,,,5f97e6601f6d0e016087fc91,25,Mężczyzna,2022-06-04_08h17.09.951,task,2021.1.4,Win32,50.0150045,628b806c463b948bc644b84f,629af6bc3188c76df72114af,,,,,,,,,,X V Q F H G B L J M P D K C T S W R N Z,,,,,,,,,,,,,,,,,,,,,,,,,,,,,,,,,,,,,,,,,,,,,,,,,,,0,0,0,0,1,,,,,,,,,,,,,,,,,,,,,,,,,,,,,,,,,,,,,,
,,,,,,,,,,5f97e6601f6d0e016087fc91,25,Mężczyzna,2022-06-04_08h17.09.951,task,2021.1.4,Win32,50.0150045,628b806c463b948bc644b84f,629af6bc3188c76df72114af,,,,,,,,,,,,,,,,,,,,,,,0,,,,,,,,,,Practice,1,(3x3) -  9,0,,,,,,,,,,,,,,,,"[""0""]",1,[1.405999999999949],1,0,0,0,0,1,,,,,,,,,,,,,,,,,,,,,,,,,,,,,,,,,,,,,,,,,,,
,,,,,,,,,,5f97e6601f6d0e016087fc91,25,Mężczyzna,2022-06-04_08h17.09.951,task,2021.1.4,Win32,50.0150045,628b806c463b948bc644b84f,629af6bc3188c76df72114af,,,,,,,,,,X V Q F H G B L J M P D K C T S W R N Z,,,,,,,,,,,,,,,,,,,,,,,,,,,,,,,,,,,,,,,,,,,,,,,,,,,1,0,1,0,1,,,,,,,,,,,,,,,,,,,,,,,,,,,,,,,,,,,,,,
,,,,,,,,,,5f97e6601f6d0e016087fc91,25,Mężczyzna,2022-06-04_08h17.09.951,task,2021.1.4,Win32,50.0150045,628b806c463b948bc644b84f,629af6bc3188c76df72114af,,,,,,,,,,,,,,,,,,,,,,,,,,,,,,,,,,,,,,,,,,,,,,,,,,,,,,,,,,,,,,,,,,zp,"[""z"",""p""]",0,"[1.4064000000954593,1.5911000001431148,2.24940000009542]",1,1,0,1,0,1,,,,,,,,,,,,,,,,,,,,,,,,,,,,
,,,,,,,,,,5f97e6601f6d0e016087fc91,25,Mężczyzna,2022-06-04_08h17.09.951,task,2021.1.4,Win32,50.0150045,628b806c463b948bc644b84f,629af6bc3188c76df72114af,,,,,,,,,,,,,,,,,,,,,,,2,,,,,,,,,,Practice,3,(4x4) - 14,2,,,,,,,,,,,,,,,,"[""2""]",1,[1.1789999999999736],1,0,0,0,2,1,,,,,,,,,,,,,,,,,,,,,,,,,,,,,,,,,,,,,,,,,,,
,,,,,,,,,,5f97e6601f6d0e016087fc91,25,Mężczyzna,2022-06-04_08h17.09.951,task,2021.1.4,Win32,50.0150045,628b806c463b948bc644b84f,629af6bc3188c76df72114af,,,,,,,,,,X V Q F H G B L J M P D K C T S W R N Z,,,,,,,,,,,,,,,,,,,,,,,,,,,,,,,,,,,,,,,,,,,,,,,,,,,0,0,0,0,1,,,,,,,,,,,,,,,,,,,,,,,,,,,,,,,,,,,,,,
,,,,,,,,,,5f97e6601f6d0e016087fc91,25,Mężczyzna,2022-06-04_08h17.09.951,task,2021.1.4,Win32,50.0150045,628b806c463b948bc644b84f,629af6bc3188c76df72114af,,,,,,,,,,,,,,,,,,,,,,,6,,,,,,,,,,Practice,7,(25/5) + 1,6,,,,,,,,,,,,,,,,"[""6""]",1,[1.602099999904567],1,0,0,0,6,1,,,,,,,,,,,,,,,,,,,,,,,,,,,,,,,,,,,,,,,,,,,
,,,,,,,,,,5f97e6601f6d0e016087fc91,25,Mężczyzna,2022-06-04_08h17.09.951,task,2021.1.4,Win32,50.0150045,628b806c463b948bc644b84f,629af6bc3188c76df72114af,,,,,,,,,,X V Q F H G B L J M P D K C T S W R N Z,,,,,,,,,,,,,,,,,,,,,,,,,,,,,,,,,,,,,,,,,,,,,,,,,,,1,0,1,0,1,,,,,,,,,,,,,,,,,,,,,,,,,,,,,,,,,,,,,,
,,,,,,,,,,5f97e6601f6d0e016087fc91,25,Mężczyzna,2022-06-04_08h17.09.951,task,2021.1.4,Win32,50.0150045,628b806c463b948bc644b84f,629af6bc3188c76df72114af,,,,,,,,,,,,,,,,,,,,,,,,,,,,,,,,,,,,,,,,,,,,,,,,,,,,,,,,,,,,,,,,,,kn,"[""k"",""n""]",0,"[1.6134000000953392,1.913799999952289,2.3682999999523418]",1,2,0,2,0,1,,,,,,,,,,,,,,,,,,,,,,,,,,,,
,,,,,,,,,,5f97e6601f6d0e016087fc91,25,Mężczyzna,2022-06-04_08h17.09.951,task,2021.1.4,Win32,50.0150045,628b806c463b948bc644b84f,629af6bc3188c76df72114af,,,,,,,,,,,,,,,,,,,,,,,5,,,,,,,,,,Task,36,(8/4) + 3,5,,,,,,,,,,,,,,,,,,,1,,,,,,,,,,,,,,,,,,,,,space,10.0462,"[""5""]",1,[2.106700000047681],0,0,0,35,1,,,,,,,,,,,,,,,,,,
,,,,,,,,,,5f97e6601f6d0e016087fc91,25,Mężczyzna,2022-06-04_08h17.09.951,task,2021.1.4,Win32,50.0150045,628b806c463b948bc644b84f,629af6bc3188c76df72114af,,,,,,,,,,X V Q F H G B L J M P D K C T S W R N Z,,,,,,,,,,,,,,,,,,,,,,,,,,,,,,,,,,,,,,,,,,,,,,,,,,,,,,,,,,,,,,,,,,,,,,,,,,,,0,0,0,0,1,,,,,,,,,,,,,
,,,,,,,,,,5f97e6601f6d0e016087fc91,25,Mężczyzna,2022-06-04_08h17.09.951,task,2021.1.4,Win32,50.0150045,628b806c463b948bc644b84f,629af6bc3188c76df72114af,,,,,,,,,,,,,,,,,,,,,,,,,,,,,,,,,Task,31,(4/2) + 5,7,,,,,,,,,,,,,,,,,,,0,,,,,,,,,,,,,,,,,,,,,,,,0,,0,0,0,30,1,,,,,,,,,,,,,,,,,,
,,,,,,,,,,5f97e6601f6d0e016087fc91,25,Mężczyzna,2022-06-04_08h17.09.951,task,2021.1.4,Win32,50.0150045,628b806c463b948bc644b84f,629af6bc3188c76df72114af,,,,,,,,,,,,,,,,,,,,,,,6,,,,,,,,,,Task,32,(8/2) + 4,8,,,,,,,,,,,,,,,,,,,0,,,,,,,,,,,,,,,,,,,,,,,"[""6""]",0,[2.0389999999999873],0,1,1,31,1,,,,,,,,,,,,,,,,,,
,,,,,,,,,,5f97e6601f6d0e016087fc91,25,Mężczyzna,2022-06-04_08h17.09.951,task,2021.1.4,Win32,50.0150045,628b806c463b948bc644b84f,629af6bc3188c76df72114af,,,,,,,,,,,,,,,,,,,,,,,7,,,,,,,,,,Task,38,(4x6) - 17,7,,,,,,,,,,,,,,,,,,,1,,,,,,,,,,,,,,,,,,,,,,,"[""7""]",1,[2.89029999995239],0,2,2,37,1,,,,,,,,,,,,,,,,,,
,,,,,,,,,,5f97e6601f6d0e016087fc91,25,Mężczyzna,2022-06-04_08h17.09.951,task,2021.1.4,Win32,50.0150045,628b806c463b948bc644b84f,629af6bc3188c76df72114af,,,,,,,,,,X V Q F H G B L J M P D K C T S W R N Z,,,,,,,,,,,,,,,,,,,,,,,,,,,,,,,,,,,,,,,,,,,,,,,,,,,,,,,,,,,,,,,,,,,,,,,,,,,,1,0,1,0,1,,,,,,,,,,,,,
,,,,,,,,,,5f97e6601f6d0e016087fc91,25,Mężczyzna,2022-06-04_08h17.09.951,task,2021.1.4,Win32,50.0150045,628b806c463b948bc644b84f,629af6bc3188c76df72114af,,,,,,,,,,,,,,,,,,,,,,,,,,,,,,,,,,,,,,,,,,,,,,,,,,,,,,,,,,,,,,,,,,,,,,,,,,,,,,,,,,,,,,,,,,,zs,"[""z"",""s""]",0,"[2.1398999998569934,2.3197999999523518,2.59050000000002]",1,ZS,0,0,0,0,1,,
,,,,,,,,,,5f97e6601f6d0e016087fc91,25,Mężczyzna,2022-06-04_08h17.09.951,task,2021.1.4,Win32,50.0150045,628b806c463b948bc644b84f,629af6bc3188c76df72114af,,,,,,,,,,,,,,,,,,,,,,,9,,,,,,,,,,Task,24,(2x2) + 5,9,,,,,,,,,,,,,,,,,,,1,,,,,,,,,,,,,,,,,,,,,,,"[""9""]",1,[2.1393999998568916],0,0,0,23,1,,,,,,,,,,,,,,,,,,
,,,,,,,,,,5f97e6601f6d0e016087fc91,25,Mężczyzna,2022-06-04_08h17.09.951,task,2021.1.4,Win32,50.0150045,628b806c463b948bc644b84f,629af6bc3188c76df72114af,,,,,,,,,,X V Q F H G B L J M P D K C T S W R N Z,,,,,,,,,,,,,,,,,,,,,,,,,,,,,,,,,,,,,,,,,,,,,,,,,,,,,,,,,,,,,,,,,,,,,,,,,,,,0,0,0,0,1,,,,,,,,,,,,,
,,,,,,,,,,5f97e6601f6d0e016087fc91,25,Mężczyzna,2022-06-04_08h17.09.951,task,2021.1.4,Win32,50.0150045,628b806c463b948bc644b84f,629af6bc3188c76df72114af,,,,,,,,,,,,,,,,,,,,,,,0,,,,,,,,,,Task,8,(1x5) - 5,0,,,,,,,,,,,,,,,,,,,1,,,,,,,,,,,,,,,,,,,,,,,"[""0""]",1,[1.6801000001430566],0,0,0,7,1,,,,,,,,,,,,,,,,,,
,,,,,,,,,,5f97e6601f6d0e016087fc91,25,Mężczyzna,2022-06-04_08h17.09.951,task,2021.1.4,Win32,50.0150045,628b806c463b948bc644b84f,629af6bc3188c76df72114af,,,,,,,,,,X V Q F H G B L J M P D K C T S W R N Z,,,,,,,,,,,,,,,,,,,,,,,,,,,,,,,,,,,,,,,,,,,,,,,,,,,,,,,,,,,,,,,,,,,,,,,,,,,,1,0,1,0,1,,,,,,,,,,,,,
,,,,,,,,,,5f97e6601f6d0e016087fc91,25,Mężczyzna,2022-06-04_08h17.09.951,task,2021.1.4,Win32,50.0150045,628b806c463b948bc644b84f,629af6bc3188c76df72114af,,,,,,,,,,,,,,,,,,,,,,,3,,,,,,,,,,Task,20,(18/9) + 1,3,,,,,,,,,,,,,,,,,,,1,,,,,,,,,,,,,,,,,,,,,,,"[""3""]",1,[1.8184000000953802],0,0,0,19,1,,,,,,,,,,,,,,,,,,
,,,,,,,,,,5f97e6601f6d0e016087fc91,25,Mężczyzna,2022-06-04_08h17.09.951,task,2021.1.4,Win32,50.0150045,628b806c463b948bc644b84f,629af6bc3188c76df72114af,,,,,,,,,,X V Q F H G B L J M P D K C T S W R N Z,,,,,,,,,,,,,,,,,,,,,,,,,,,,,,,,,,,,,,,,,,,,,,,,,,,,,,,,,,,,,,,,,,,,,,,,,,,,2,0,2,0,1,,,,,,,,,,,,,
,,,,,,,,,,5f97e6601f6d0e016087fc91,25,Mężczyzna,2022-06-04_08h17.09.951,task,2021.1.4,Win32,50.0150045,628b806c463b948bc644b84f,629af6bc3188c76df72114af,,,,,,,,,,,,,,,,,,,,,,,,,,,,,,,,,,,,,,,,,,,,,,,,,,,,,,,,,,,,,,,,,,,,,,,,,,,,,,,,,,,,,,,,,,,bdk,"[""b"",""d"",""k""]",0,"[1.6289000000954275,1.8815000000000737,2.064400000095361,2.406600000143044]",1,BDK,1,0,1,0,1,,
,,,,,,,,,,5f97e6601f6d0e016087fc91,25,Mężczyzna,2022-06-04_08h17.09.951,task,2021.1.4,Win32,50.0150045,628b806c463b948bc644b84f,629af6bc3188c76df72114af,,,,,,,,,,,,,,,,,,,,,,,2,,,,,,,,,,Task,19,(6/2) - 1,2,,,,,,,,,,,,,,,,,,,1,,,,,,,,,,,,,,,,,,,,,,,"[""2""]",1,[2.1629000000954193],0,0,0,18,1,,,,,,,,,,,,,,,,,,
,,,,,,,,,,5f97e6601f6d0e016087fc91,25,Mężczyzna,2022-06-04_08h17.09.951,task,2021.1.4,Win32,50.0150045,628b806c463b948bc644b84f,629af6bc3188c76df72114af,,,,,,,,,,X V Q F H G B L J M P D K C T S W R N Z,,,,,,,,,,,,,,,,,,,,,,,,,,,,,,,,,,,,,,,,,,,,,,,,,,,,,,,,,,,,,,,,,,,,,,,,,,,,0,0,0,0,1,,,,,,,,,,,,,
,,,,,,,,,,5f97e6601f6d0e016087fc91,25,Mężczyzna,2022-06-04_08h17.09.951,task,2021.1.4,Win32,50.0150045,628b806c463b948bc644b84f,629af6bc3188c76df72114af,,,,,,,,,,,,,,,,,,,,,,,8,,,,,,,,,,Task,39,(5x3) - 7,8,,,,,,,,,,,,,,,,,,,1,,,,,,,,,,,,,,,,,,,,,,,"[""8""]",1,[2.045799999952237],0,0,0,38,1,,,,,,,,,,,,,,,,,,
,,,,,,,,,,5f97e6601f6d0e016087fc91,25,Mężczyzna,2022-06-04_08h17.09.951,task,2021.1.4,Win32,50.0150045,628b806c463b948bc644b84f,629af6bc3188c76df72114af,,,,,,,,,,X V Q F H G B L J M P D K C T S W R N Z,,,,,,,,,,,,,,,,,,,,,,,,,,,,,,,,,,,,,,,,,,,,,,,,,,,,,,,,,,,,,,,,,,,,,,,,,,,,1,0,1,0,1,,,,,,,,,,,,,
,,,,,,,,,,5f97e6601f6d0e016087fc91,25,Mężczyzna,2022-06-04_08h17.09.951,task,2021.1.4,Win32,50.0150045,628b806c463b948bc644b84f,629af6bc3188c76df72114af,,,,,,,,,,,,,,,,,,,,,,,5,,,,,,,,,,Task,22,(3x1) + 2,5,,,,,,,,,,,,,,,,,,,1,,,,,,,,,,,,,,,,,,,,,,,"[""5""]",1,[1.7423999998568434],0,0,0,21,1,,,,,,,,,,,,,,,,,,
,,,,,,,,,,5f97e6601f6d0e016087fc91,25,Mężczyzna,2022-06-04_08h17.09.951,task,2021.1.4,Win32,50.0150045,628b806c463b948bc644b84f,629af6bc3188c76df72114af,,,,,,,,,,X V Q F H G B L J M P D K C T S W R N Z,,,,,,,,,,,,,,,,,,,,,,,,,,,,,,,,,,,,,,,,,,,,,,,,,,,,,,,,,,,,,,,,,,,,,,,,,,,,2,0,2,0,1,,,,,,,,,,,,,
,,,,,,,,,,5f97e6601f6d0e016087fc91,25,Mężczyzna,2022-06-04_08h17.09.951,task,2021.1.4,Win32,50.0150045,628b806c463b948bc644b84f,629af6bc3188c76df72114af,,,,,,,,,,,,,,,,,,,,,,,8,,,,,,,,,,Task,32,(8/2) + 4,8,,,,,,,,,,,,,,,,,,,1,,,,,,,,,,,,,,,,,,,,,,,"[""8""]",1,[1.5911999998093052],0,0,0,31,1,,,,,,,,,,,,,,,,,,
,,,,,,,,,,5f97e6601f6d0e016087fc91,25,Mężczyzna,2022-06-04_08h17.09.951,task,2021.1.4,Win32,50.0150045,628b806c463b948bc644b84f,629af6bc3188c76df72114af,,,,,,,,,,X V Q F H G B L J M P D K C T S W R N Z,,,,,,,,,,,,,,,,,,,,,,,,,,,,,,,,,,,,,,,,,,,,,,,,,,,,,,,,,,,,,,,,,,,,,,,,,,,,3,0,3,0,1,,,,,,,,,,,,,
,,,,,,,,,,5f97e6601f6d0e016087fc91,25,Mężczyzna,2022-06-04_08h17.09.951,task,2021.1.4,Win32,50.0150045,628b806c463b948bc644b84f,629af6bc3188c76df72114af,,,,,,,,,,,,,,,,,,,,,,,,,,,,,,,,,,,,,,,,,,,,,,,,,,,,,,,,,,,,,,,,,,,,,,,,,,,,,,,,,,,,,,,,,,,fxcn,"[""f"",""x"",""c"",""n""]",0,"[1.3422999999522744,1.8255999999046253,2.1907999999523327,2.5009999999999764,3.259999999999991]",1,FXCN,2,0,2,0,1,,
,,,,,,,,,,5f97e6601f6d0e016087fc91,25,Mężczyzna,2022-06-04_08h17.09.951,task,2021.1.4,Win32,50.0150045,628b806c463b948bc644b84f,629af6bc3188c76df72114af,,,,,,,,,,,,,,,,,,,,,,,1,,,,,,,,,,Task,9,(3x7) - 20,1,,,,,,,,,,,,,,,,,,,1,,,,,,,,,,,,,,,,,,,,,,,"[""1""]",1,[2.8526000001430702],0,0,0,8,1,,,,,,,,,,,,,,,,,,
,,,,,,,,,,5f97e6601f6d0e016087fc91,25,Mężczyzna,2022-06-04_08h17.09.951,task,2021.1.4,Win32,50.0150045,628b806c463b948bc644b84f,629af6bc3188c76df72114af,,,,,,,,,,X V Q F H G B L J M P D K C T S W R N Z,,,,,,,,,,,,,,,,,,,,,,,,,,,,,,,,,,,,,,,,,,,,,,,,,,,,,,,,,,,,,,,,,,,,,,,,,,,,0,0,0,0,1,,,,,,,,,,,,,
,,,,,,,,,,5f97e6601f6d0e016087fc91,25,Mężczyzna,2022-06-04_08h17.09.951,task,2021.1.4,Win32,50.0150045,628b806c463b948bc644b84f,629af6bc3188c76df72114af,,,,,,,,,,,,,,,,,,,,,,,7,,,,,,,,,,Task,6,(12/2) + 1,7,,,,,,,,,,,,,,,,,,,1,,,,,,,,,,,,,,,,,,,,,,,"[""7""]",1,[1.7457999999522826],0,0,0,5,1,,,,,,,,,,,,,,,,,,
,,,,,,,,,,5f97e6601f6d0e016087fc91,25,Mężczyzna,2022-06-04_08h17.09.951,task,2021.1.4,Win32,50.0150045,628b806c463b948bc644b84f,629af6bc3188c76df72114af,,,,,,,,,,X V Q F H G B L J M P D K C T S W R N Z,,,,,,,,,,,,,,,,,,,,,,,,,,,,,,,,,,,,,,,,,,,,,,,,,,,,,,,,,,,,,,,,,,,,,,,,,,,,1,0,1,0,1,,,,,,,,,,,,,
,,,,,,,,,,5f97e6601f6d0e016087fc91,25,Mężczyzna,2022-06-04_08h17.09.951,task,2021.1.4,Win32,50.0150045,628b806c463b948bc644b84f,629af6bc3188c76df72114af,,,,,,,,,,,,,,,,,,,,,,,8,,,,,,,,,,Task,39,(5x3) - 7,8,,,,,,,,,,,,,,,,,,,1,,,,,,,,,,,,,,,,,,,,,,,"[""8""]",1,[1.645399999856977],0,0,0,38,1,,,,,,,,,,,,,,,,,,
,,,,,,,,,,5f97e6601f6d0e016087fc91,25,Mężczyzna,2022-06-04_08h17.09.951,task,2021.1.4,Win32,50.0150045,628b806c463b948bc644b84f,629af6bc3188c76df72114af,,,,,,,,,,X V Q F H G B L J M P D K C T S W R N Z,,,,,,,,,,,,,,,,,,,,,,,,,,,,,,,,,,,,,,,,,,,,,,,,,,,,,,,,,,,,,,,,,,,,,,,,,,,,2,0,2,0,1,,,,,,,,,,,,,
,,,,,,,,,,5f97e6601f6d0e016087fc91,25,Mężczyzna,2022-06-04_08h17.09.951,task,2021.1.4,Win32,50.0150045,628b806c463b948bc644b84f,629af6bc3188c76df72114af,,,,,,,,,,,,,,,,,,,,,,,3,,,,,,,,,,Task,27,(3/3) + 2,3,,,,,,,,,,,,,,,,,,,1,,,,,,,,,,,,,,,,,,,,,,,"[""3""]",1,[2.5014999999999645],0,0,0,26,1,,,,,,,,,,,,,,,,,,
,,,,,,,,,,5f97e6601f6d0e016087fc91,25,Mężczyzna,2022-06-04_08h17.09.951,task,2021.1.4,Win32,50.0150045,628b806c463b948bc644b84f,629af6bc3188c76df72114af,,,,,,,,,,X V Q F H G B L J M P D K C T S W R N Z,,,,,,,,,,,,,,,,,,,,,,,,,,,,,,,,,,,,,,,,,,,,,,,,,,,,,,,,,,,,,,,,,,,,,,,,,,,,3,0,3,0,1,,,,,,,,,,,,,
,,,,,,,,,,5f97e6601f6d0e016087fc91,25,Mężczyzna,2022-06-04_08h17.09.951,task,2021.1.4,Win32,50.0150045,628b806c463b948bc644b84f,629af6bc3188c76df72114af,,,,,,,,,,,,,,,,,,,,,,,9,,,,,,,,,,Task,40,(7x2) - 5,9,,,,,,,,,,,,,,,,,,,1,,,,,,,,,,,,,,,,,,,,,,,"[""9""]",1,[2.5799999999999272],0,0,0,39,1,,,,,,,,,,,,,,,,,,
,,,,,,,,,,5f97e6601f6d0e016087fc91,25,Mężczyzna,2022-06-04_08h17.09.951,task,2021.1.4,Win32,50.0150045,628b806c463b948bc644b84f,629af6bc3188c76df72114af,,,,,,,,,,X V Q F H G B L J M P D K C T S W R N Z,,,,,,,,,,,,,,,,,,,,,,,,,,,,,,,,,,,,,,,,,,,,,,,,,,,,,,,,,,,,,,,,,,,,,,,,,,,,4,0,4,0,1,,,,,,,,,,,,,
,,,,,,,,,,5f97e6601f6d0e016087fc91,25,Mężczyzna,2022-06-04_08h17.09.951,task,2021.1.4,Win32,50.0150045,628b806c463b948bc644b84f,629af6bc3188c76df72114af,,,,,,,,,,,,,,,,,,,,,,,,,,,,,,,,,,,,,,,,,,,,,,,,,,,,,,,,,,,,,,,,,,,,,,,,,,,,,,,,,,,,,,,,,,,bnfkh,"[""b"",""n"",""f"",""k"",""h""]",0,"[1.571100000143133,1.8206000001431448,2.747299999952361,2.961999999999989,3.3602999999523036,4.975200000047721]",1,BNFKH,3,0,3,0,1,,
,,,,,,,,,,5f97e6601f6d0e016087fc91,25,Mężczyzna,2022-06-04_08h17.09.951,task,2021.1.4,Win32,50.0150045,628b806c463b948bc644b84f,629af6bc3188c76df72114af,,,,,,,,,,,,,,,,,,,,,,,7,,,,,,,,,,Task,38,(4x6) - 17,7,,,,,,,,,,,,,,,,,,,1,,,,,,,,,,,,,,,,,,,,,,,"[""7""]",1,[1.925900000095453],0,0,0,37,1,,,,,,,,,,,,,,,,,,
,,,,,,,,,,5f97e6601f6d0e016087fc91,25,Mężczyzna,2022-06-04_08h17.09.951,task,2021.1.4,Win32,50.0150045,628b806c463b948bc644b84f,629af6bc3188c76df72114af,,,,,,,,,,X V Q F H G B L J M P D K C T S W R N Z,,,,,,,,,,,,,,,,,,,,,,,,,,,,,,,,,,,,,,,,,,,,,,,,,,,,,,,,,,,,,,,,,,,,,,,,,,,,0,0,0,0,1,,,,,,,,,,,,,
,,,,,,,,,,5f97e6601f6d0e016087fc91,25,Mężczyzna,2022-06-04_08h17.09.951,task,2021.1.4,Win32,50.0150045,628b806c463b948bc644b84f,629af6bc3188c76df72114af,,,,,,,,,,,,,,,,,,,,,,,8,,,,,,,,,,Task,23,(2x3) + 2,8,,,,,,,,,,,,,,,,,,,1,,,,,,,,,,,,,,,,,,,,,,,"[""8""]",1,[1.552000000000021],0,0,0,22,1,,,,,,,,,,,,,,,,,,
,,,,,,,,,,5f97e6601f6d0e016087fc91,25,Mężczyzna,2022-06-04_08h17.09.951,task,2021.1.4,Win32,50.0150045,628b806c463b948bc644b84f,629af6bc3188c76df72114af,,,,,,,,,,X V Q F H G B L J M P D K C T S W R N Z,,,,,,,,,,,,,,,,,,,,,,,,,,,,,,,,,,,,,,,,,,,,,,,,,,,,,,,,,,,,,,,,,,,,,,,,,,,,1,0,1,0,1,,,,,,,,,,,,,
,,,,,,,,,,5f97e6601f6d0e016087fc91,25,Mężczyzna,2022-06-04_08h17.09.951,task,2021.1.4,Win32,50.0150045,628b806c463b948bc644b84f,629af6bc3188c76df72114af,,,,,,,,,,,,,,,,,,,,,,,7,,,,,,,,,,Task,14,(2x2) + 3,7,,,,,,,,,,,,,,,,,,,1,,,,,,,,,,,,,,,,,,,,,,,"[""7""]",1,[1.6184000000954484],0,0,0,13,1,,,,,,,,,,,,,,,,,,
,,,,,,,,,,5f97e6601f6d0e016087fc91,25,Mężczyzna,2022-06-04_08h17.09.951,task,2021.1.4,Win32,50.0150045,628b806c463b948bc644b84f,629af6bc3188c76df72114af,,,,,,,,,,X V Q F H G B L J M P D K C T S W R N Z,,,,,,,,,,,,,,,,,,,,,,,,,,,,,,,,,,,,,,,,,,,,,,,,,,,,,,,,,,,,,,,,,,,,,,,,,,,,2,0,2,0,1,,,,,,,,,,,,,
,,,,,,,,,,5f97e6601f6d0e016087fc91,25,Mężczyzna,2022-06-04_08h17.09.951,task,2021.1.4,Win32,50.0150045,628b806c463b948bc644b84f,629af6bc3188c76df72114af,,,,,,,,,,,,,,,,,,,,,,,6,,,,,,,,,,Task,37,(3/3) + 5,6,,,,,,,,,,,,,,,,,,,1,,,,,,,,,,,,,,,,,,,,,,,"[""6""]",1,[1.979300000190733],0,0,0,36,1,,,,,,,,,,,,,,,,,,
,,,,,,,,,,5f97e6601f6d0e016087fc91,25,Mężczyzna,2022-06-04_08h17.09.951,task,2021.1.4,Win32,50.0150045,628b806c463b948bc644b84f,629af6bc3188c76df72114af,,,,,,,,,,X V Q F H G B L J M P D K C T S W R N Z,,,,,,,,,,,,,,,,,,,,,,,,,,,,,,,,,,,,,,,,,,,,,,,,,,,,,,,,,,,,,,,,,,,,,,,,,,,,3,0,3,0,1,,,,,,,,,,,,,
,,,,,,,,,,5f97e6601f6d0e016087fc91,25,Mężczyzna,2022-06-04_08h17.09.951,task,2021.1.4,Win32,50.0150045,628b806c463b948bc644b84f,629af6bc3188c76df72114af,,,,,,,,,,,,,,,,,,,,,,,6,,,,,,,,,,Task,37,(3/3) + 5,6,,,,,,,,,,,,,,,,,,,1,,,,,,,,,,,,,,,,,,,,,,,"[""6""]",1,[1.864200000047731],0,0,0,36,1,,,,,,,,,,,,,,,,,,
,,,,,,,,,,5f97e6601f6d0e016087fc91,25,Mężczyzna,2022-06-04_08h17.09.951,task,2021.1.4,Win32,50.0150045,628b806c463b948bc644b84f,629af6bc3188c76df72114af,,,,,,,,,,X V Q F H G B L J M P D K C T S W R N Z,,,,,,,,,,,,,,,,,,,,,,,,,,,,,,,,,,,,,,,,,,,,,,,,,,,,,,,,,,,,,,,,,,,,,,,,,,,,4,0,4,0,1,,,,,,,,,,,,,
,,,,,,,,,,5f97e6601f6d0e016087fc91,25,Mężczyzna,2022-06-04_08h17.09.951,task,2021.1.4,Win32,50.0150045,628b806c463b948bc644b84f,629af6bc3188c76df72114af,,,,,,,,,,,,,,,,,,,,,,,7,,,,,,,,,,Task,31,(4/2) + 5,7,,,,,,,,,,,,,,,,,,,1,,,,,,,,,,,,,,,,,,,,,,,"[""7""]",1,[1.619299999952318],0,0,0,30,1,,,,,,,,,,,,,,,,,,
,,,,,,,,,,5f97e6601f6d0e016087fc91,25,Mężczyzna,2022-06-04_08h17.09.951,task,2021.1.4,Win32,50.0150045,628b806c463b948bc644b84f,629af6bc3188c76df72114af,,,,,,,,,,X V Q F H G B L J M P D K C T S W R N Z,,,,,,,,,,,,,,,,,,,,,,,,,,,,,,,,,,,,,,,,,,,,,,,,,,,,,,,,,,,,,,,,,,,,,,,,,,,,5,0,5,0,1,,,,,,,,,,,,,
,,,,,,,,,,5f97e6601f6d0e016087fc91,25,Mężczyzna,2022-06-04_08h17.09.951,task,2021.1.4,Win32,50.0150045,628b806c463b948bc644b84f,629af6bc3188c76df72114af,,,,,,,,,,,,,,,,,,,,,,,,,,,,,,,,,,,,,,,,,,,,,,,,,,,,,,,,,,,,,,,,,,,,,,,,,,,,,,,,,,,,,,,,,,,djsjsh,"[""d"",""j"",""s"",""j"",""s"",""h""]",0,"[1.2709000000953665,1.4295999999045534,1.9520999999045898,2.4404000000953374,3.4634999999999536,3.63120000004767,19.660499999999956]",1,DJSJSH,4,0,4,0,1,,
,,,,,,,,,,5f97e6601f6d0e016087fc91,25,Mężczyzna,2022-06-04_08h17.09.951,task,2021.1.4,Win32,50.0150045,628b806c463b948bc644b84f,629af6bc3188c76df72114af,,,,,,,,,,,,,,,,,,,,,,,5,,,,,,,,,,Task,36,(8/4) + 3,5,,,,,,,,,,,,,,,,,,,1,,,,,,,,,,,,,,,,,,,,,,,"[""5""]",1,[2.199000000000069],0,0,0,35,1,,,,,,,,,,,,,,,,,,
,,,,,,,,,,5f97e6601f6d0e016087fc91,25,Mężczyzna,2022-06-04_08h17.09.951,task,2021.1.4,Win32,50.0150045,628b806c463b948bc644b84f,629af6bc3188c76df72114af,,,,,,,,,,X V Q F H G B L J M P D K C T S W R N Z,,,,,,,,,,,,,,,,,,,,,,,,,,,,,,,,,,,,,,,,,,,,,,,,,,,,,,,,,,,,,,,,,,,,,,,,,,,,0,0,0,0,1,,,,,,,,,,,,,
,,,,,,,,,,5f97e6601f6d0e016087fc91,25,Mężczyzna,2022-06-04_08h17.09.951,task,2021.1.4,Win32,50.0150045,628b806c463b948bc644b84f,629af6bc3188c76df72114af,,,,,,,,,,,,,,,,,,,,,,,4,,,,,,,,,,Task,21,(10/2) - 1,4,,,,,,,,,,,,,,,,,,,1,,,,,,,,,,,,,,,,,,,,,,,"[""4""]",1,[1.9991000001430166],0,0,0,20,1,,,,,,,,,,,,,,,,,,
