key_resp_15.keys,key_resp_15.rt,key_resp_13.keys,key_resp_13.corr,key_resp_13.rt,ranodm_loop.thisRepN,ranodm_loop.thisTrialN,ranodm_loop.thisN,ranodm_loop.thisIndex,ranodm_loop.ran,participant,Wiek*,Płeć,date,expName,psychopyVersion,OS,frameRate,study_id,session,key_resp_16.keys,key_resp_16.rt,key_resp_4.keys,key_resp_4.rt,next_letter.thisRepN,next_letter.thisTrialN,next_letter.thisN,next_letter.thisIndex,next_letter.ran,letter,simple_recall,key_resp_5.keys,key_resp_5.rt,simple_recall_corr,simple_recall_corrkeys,next_level.thisRepN,next_level.thisTrialN,next_level.thisN,next_level.thisIndex,next_level.ran,key_resp_2.keys,key_resp_2.rt,digit_answer,key_resp.keys,key_resp.corr,key_resp.rt,RT_list,next_equation.thisRepN,next_equation.thisTrialN,next_equation.thisN,next_equation.thisIndex,next_equation.ran,Task,Trial,Problem,Operation_answer,processing_score,sumRT,meanRT,sumdiff,sd,RT,key_resp_3.keys,key_resp_3.rt,repeat_practice.thisRepN,repeat_practice.thisTrialN,repeat_practice.thisN,repeat_practice.thisIndex,repeat_practice.ran,key_resp_6.keys,key_resp_6.rt,key_resp_11.keys,key_resp_11.corr,key_resp_11.rt,operation_correct,repeat_if_wrong_prac.thisRepN,repeat_if_wrong_prac.thisTrialN,repeat_if_wrong_prac.thisN,repeat_if_wrong_prac.thisIndex,repeat_if_wrong_prac.ran,span_size_prac.thisRepN,span_size_prac.thisTrialN,span_size_prac.thisN,span_size_prac.thisIndex,span_size_prac.ran,complex_recall_practice,key_resp_9.keys,key_resp_9.corr,key_resp_9.rt,complex_prac_corr,span_recall_prac.thisRepN,span_recall_prac.thisTrialN,span_recall_prac.thisN,span_recall_prac.thisIndex,span_recall_prac.ran,key_resp_10.keys,key_resp_10.rt,key_resp_7.keys,key_resp_7.corr,key_resp_7.rt,repeat_if_wrong.thisRepN,repeat_if_wrong.thisTrialN,repeat_if_wrong.thisN,repeat_if_wrong.thisIndex,repeat_if_wrong.ran,span_size.thisRepN,span_size.thisTrialN,span_size.thisN,span_size.thisIndex,span_size.ran,complex_recall,key_resp_8.keys,key_resp_8.corr,key_resp_8.rt,complex_recall_corr,complex_recall_corrkeys,span_recall.thisRepN,span_recall.thisTrialN,span_recall.thisN,span_recall.thisIndex,span_recall.ran,key_resp_12.keys,key_resp_12.rt
space,3.9196,"[""comma""]",0,[0.7295000000000016],0,0,0,0,1,5f9aba6600cdf11f1c9b915c,24,Mężczyzna,2022-06-04_09h10.13.519,task,2021.1.4,Win32,49.94755507,628b806c463b948bc644b84f,629af770de72fc6a8330486c,,,,,,,,,,,,,,,,,,,,,,,,,,,,,,,,,,,,,,,,,,,,,,,,,,,,,,,,,,,,,,,,,,,,,,,,,,,,,,,,,,,,,,,,,,,,,,,,,,,,,,,
,,"[""period""]",0,[0.5606000001430527],1,0,1,0,1,5f9aba6600cdf11f1c9b915c,24,Mężczyzna,2022-06-04_09h10.13.519,task,2021.1.4,Win32,49.94755507,628b806c463b948bc644b84f,629af770de72fc6a8330486c,,,,,,,,,,,,,,,,,,,,,,,,,,,,,,,,,,,,,,,,,,,,,,,,,,,,,,,,,,,,,,,,,,,,,,,,,,,,,,,,,,,,,,,,,,,,,,,,,,,,,,,
,,"[""comma""]",0,[1.200299999952314],2,0,2,0,1,5f9aba6600cdf11f1c9b915c,24,Mężczyzna,2022-06-04_09h10.13.519,task,2021.1.4,Win32,49.94755507,628b806c463b948bc644b84f,629af770de72fc6a8330486c,,,,,,,,,,,,,,,,,,,,,,,,,,,,,,,,,,,,,,,,,,,,,,,,,,,,,,,,,,,,,,,,,,,,,,,,,,,,,,,,,,,,,,,,,,,,,,,,,,,,,,,
,,"[""period""]",0,[0.8202000000476843],3,0,3,0,1,5f9aba6600cdf11f1c9b915c,24,Mężczyzna,2022-06-04_09h10.13.519,task,2021.1.4,Win32,49.94755507,628b806c463b948bc644b84f,629af770de72fc6a8330486c,,,,,,,,,,,,,,,,,,,,,,,,,,,,,,,,,,,,,,,,,,,,,,,,,,,,,,,,,,,,,,,,,,,,,,,,,,,,,,,,,,,,,,,,,,,,,,,,,,,,,,,
,,"[""period""]",0,[0.3597000000476811],4,0,4,0,1,5f9aba6600cdf11f1c9b915c,24,Mężczyzna,2022-06-04_09h10.13.519,task,2021.1.4,Win32,49.94755507,628b806c463b948bc644b84f,629af770de72fc6a8330486c,,,,,,,,,,,,,,,,,,,,,,,,,,,,,,,,,,,,,,,,,,,,,,,,,,,,,,,,,,,,,,,,,,,,,,,,,,,,,,,,,,,,,,,,,,,,,,,,,,,,,,,
,,"[""comma""]",0,[0.22060000014305103],5,0,5,0,1,5f9aba6600cdf11f1c9b915c,24,Mężczyzna,2022-06-04_09h10.13.519,task,2021.1.4,Win32,49.94755507,628b806c463b948bc644b84f,629af770de72fc6a8330486c,,,,,,,,,,,,,,,,,,,,,,,,,,,,,,,,,,,,,,,,,,,,,,,,,,,,,,,,,,,,,,,,,,,,,,,,,,,,,,,,,,,,,,,,,,,,,,,,,,,,,,,
,,"[""period""]",0,[0.48060000014304904],6,0,6,0,1,5f9aba6600cdf11f1c9b915c,24,Mężczyzna,2022-06-04_09h10.13.519,task,2021.1.4,Win32,49.94755507,628b806c463b948bc644b84f,629af770de72fc6a8330486c,,,,,,,,,,,,,,,,,,,,,,,,,,,,,,,,,,,,,,,,,,,,,,,,,,,,,,,,,,,,,,,,,,,,,,,,,,,,,,,,,,,,,,,,,,,,,,,,,,,,,,,
,,"[""comma""]",0,[0.6852999999523206],7,0,7,0,1,5f9aba6600cdf11f1c9b915c,24,Mężczyzna,2022-06-04_09h10.13.519,task,2021.1.4,Win32,49.94755507,628b806c463b948bc644b84f,629af770de72fc6a8330486c,,,,,,,,,,,,,,,,,,,,,,,,,,,,,,,,,,,,,,,,,,,,,,,,,,,,,,,,,,,,,,,,,,,,,,,,,,,,,,,,,,,,,,,,,,,,,,,,,,,,,,,
,,"[""comma""]",0,[0.5008999998569479],8,0,8,0,1,5f9aba6600cdf11f1c9b915c,24,Mężczyzna,2022-06-04_09h10.13.519,task,2021.1.4,Win32,49.94755507,628b806c463b948bc644b84f,629af770de72fc6a8330486c,,,,,,,,,,,,,,,,,,,,,,,,,,,,,,,,,,,,,,,,,,,,,,,,,,,,,,,,,,,,,,,,,,,,,,,,,,,,,,,,,,,,,,,,,,,,,,,,,,,,,,,
,,"[""period""]",0,[0.7205999999046355],9,0,9,0,1,5f9aba6600cdf11f1c9b915c,24,Mężczyzna,2022-06-04_09h10.13.519,task,2021.1.4,Win32,49.94755507,628b806c463b948bc644b84f,629af770de72fc6a8330486c,,,,,,,,,,,,,,,,,,,,,,,,,,,,,,,,,,,,,,,,,,,,,,,,,,,,,,,,,,,,,,,,,,,,,,,,,,,,,,,,,,,,,,,,,,,,,,,,,,,,,,,
,,"[""comma""]",0,[0.4406000001430499],10,0,10,0,1,5f9aba6600cdf11f1c9b915c,24,Mężczyzna,2022-06-04_09h10.13.519,task,2021.1.4,Win32,49.94755507,628b806c463b948bc644b84f,629af770de72fc6a8330486c,,,,,,,,,,,,,,,,,,,,,,,,,,,,,,,,,,,,,,,,,,,,,,,,,,,,,,,,,,,,,,,,,,,,,,,,,,,,,,,,,,,,,,,,,,,,,,,,,,,,,,,
,,"[""comma""]",0,[0.18299999999999983],11,0,11,0,1,5f9aba6600cdf11f1c9b915c,24,Mężczyzna,2022-06-04_09h10.13.519,task,2021.1.4,Win32,49.94755507,628b806c463b948bc644b84f,629af770de72fc6a8330486c,,,,,,,,,,,,,,,,,,,,,,,,,,,,,,,,,,,,,,,,,,,,,,,,,,,,,,,,,,,,,,,,,,,,,,,,,,,,,,,,,,,,,,,,,,,,,,,,,,,,,,,
,,"[""period""]",0,[0.6406000001430527],12,0,12,0,1,5f9aba6600cdf11f1c9b915c,24,Mężczyzna,2022-06-04_09h10.13.519,task,2021.1.4,Win32,49.94755507,628b806c463b948bc644b84f,629af770de72fc6a8330486c,,,,,,,,,,,,,,,,,,,,,,,,,,,,,,,,,,,,,,,,,,,,,,,,,,,,,,,,,,,,,,,,,,,,,,,,,,,,,,,,,,,,,,,,,,,,,,,,,,,,,,,
,,"[""period""]",0,[0.8539999999999992],13,0,13,0,1,5f9aba6600cdf11f1c9b915c,24,Mężczyzna,2022-06-04_09h10.13.519,task,2021.1.4,Win32,49.94755507,628b806c463b948bc644b84f,629af770de72fc6a8330486c,,,,,,,,,,,,,,,,,,,,,,,,,,,,,,,,,,,,,,,,,,,,,,,,,,,,,,,,,,,,,,,,,,,,,,,,,,,,,,,,,,,,,,,,,,,,,,,,,,,,,,,
,,"[""comma""]",0,[0.48049999999999926],14,0,14,0,1,5f9aba6600cdf11f1c9b915c,24,Mężczyzna,2022-06-04_09h10.13.519,task,2021.1.4,Win32,49.94755507,628b806c463b948bc644b84f,629af770de72fc6a8330486c,,,,,,,,,,,,,,,,,,,,,,,,,,,,,,,,,,,,,,,,,,,,,,,,,,,,,,,,,,,,,,,,,,,,,,,,,,,,,,,,,,,,,,,,,,,,,,,,,,,,,,,
,,"[""comma"",""period""]",0,"[0.12049999999999983,1.6600999999046309]",15,0,15,0,1,5f9aba6600cdf11f1c9b915c,24,Mężczyzna,2022-06-04_09h10.13.519,task,2021.1.4,Win32,49.94755507,628b806c463b948bc644b84f,629af770de72fc6a8330486c,,,,,,,,,,,,,,,,,,,,,,,,,,,,,,,,,,,,,,,,,,,,,,,,,,,,,,,,,,,,,,,,,,,,,,,,,,,,,,,,,,,,,,,,,,,,,,,,,,,,,,,
,,"[""period""]",0,[0.4205000000000041],16,0,16,0,1,5f9aba6600cdf11f1c9b915c,24,Mężczyzna,2022-06-04_09h10.13.519,task,2021.1.4,Win32,49.94755507,628b806c463b948bc644b84f,629af770de72fc6a8330486c,,,,,,,,,,,,,,,,,,,,,,,,,,,,,,,,,,,,,,,,,,,,,,,,,,,,,,,,,,,,,,,,,,,,,,,,,,,,,,,,,,,,,,,,,,,,,,,,,,,,,,,
,,"[""comma""]",0,[0.34149999999999636],17,0,17,0,1,5f9aba6600cdf11f1c9b915c,24,Mężczyzna,2022-06-04_09h10.13.519,task,2021.1.4,Win32,49.94755507,628b806c463b948bc644b84f,629af770de72fc6a8330486c,,,,,,,,,,,,,,,,,,,,,,,,,,,,,,,,,,,,,,,,,,,,,,,,,,,,,,,,,,,,,,,,,,,,,,,,,,,,,,,,,,,,,,,,,,,,,,,,,,,,,,,
,,"[""comma""]",0,[1.460200000047685],18,0,18,0,1,5f9aba6600cdf11f1c9b915c,24,Mężczyzna,2022-06-04_09h10.13.519,task,2021.1.4,Win32,49.94755507,628b806c463b948bc644b84f,629af770de72fc6a8330486c,,,,,,,,,,,,,,,,,,,,,,,,,,,,,,,,,,,,,,,,,,,,,,,,,,,,,,,,,,,,,,,,,,,,,,,,,,,,,,,,,,,,,,,,,,,,,,,,,,,,,,,
,,"[""comma""]",0,[1.720200000047683],19,0,19,0,1,5f9aba6600cdf11f1c9b915c,24,Mężczyzna,2022-06-04_09h10.13.519,task,2021.1.4,Win32,49.94755507,628b806c463b948bc644b84f,629af770de72fc6a8330486c,,,,,,,,,,,,,,,,,,,,,,,,,,,,,,,,,,,,,,,,,,,,,,,,,,,,,,,,,,,,,,,,,,,,,,,,,,,,,,,,,,,,,,,,,,,,,,,,,,,,,,,
,,,0,,20,0,20,0,1,5f9aba6600cdf11f1c9b915c,24,Mężczyzna,2022-06-04_09h10.13.519,task,2021.1.4,Win32,49.94755507,628b806c463b948bc644b84f,629af770de72fc6a8330486c,,,,,,,,,,,,,,,,,,,,,,,,,,,,,,,,,,,,,,,,,,,,,,,,,,,,,,,,,,,,,,,,,,,,,,,,,,,,,,,,,,,,,,,,,,,,,,,,,,,,,,,
,,"[""period""]",0,[0.48049999999999926],21,0,21,0,1,5f9aba6600cdf11f1c9b915c,24,Mężczyzna,2022-06-04_09h10.13.519,task,2021.1.4,Win32,49.94755507,628b806c463b948bc644b84f,629af770de72fc6a8330486c,,,,,,,,,,,,,,,,,,,,,,,,,,,,,,,,,,,,,,,,,,,,,,,,,,,,,,,,,,,,,,,,,,,,,,,,,,,,,,,,,,,,,,,,,,,,,,,,,,,,,,,
,,"[""comma""]",0,[0.18379999995232055],22,0,22,0,1,5f9aba6600cdf11f1c9b915c,24,Mężczyzna,2022-06-04_09h10.13.519,task,2021.1.4,Win32,49.94755507,628b806c463b948bc644b84f,629af770de72fc6a8330486c,,,,,,,,,,,,,,,,,,,,,,,,,,,,,,,,,,,,,,,,,,,,,,,,,,,,,,,,,,,,,,,,,,,,,,,,,,,,,,,,,,,,,,,,,,,,,,,,,,,,,,,
,,"[""period"",""comma""]",0,"[0.15239999985694652,1.8485999999046285]",23,0,23,0,1,5f9aba6600cdf11f1c9b915c,24,Mężczyzna,2022-06-04_09h10.13.519,task,2021.1.4,Win32,49.94755507,628b806c463b948bc644b84f,629af770de72fc6a8330486c,,,,,,,,,,,,,,,,,,,,,,,,,,,,,,,,,,,,,,,,,,,,,,,,,,,,,,,,,,,,,,,,,,,,,,,,,,,,,,,,,,,,,,,,,,,,,,,,,,,,,,,
,,"[""period""]",0,[1.8485000000000014],24,0,24,0,1,5f9aba6600cdf11f1c9b915c,24,Mężczyzna,2022-06-04_09h10.13.519,task,2021.1.4,Win32,49.94755507,628b806c463b948bc644b84f,629af770de72fc6a8330486c,,,,,,,,,,,,,,,,,,,,,,,,,,,,,,,,,,,,,,,,,,,,,,,,,,,,,,,,,,,,,,,,,,,,,,,,,,,,,,,,,,,,,,,,,,,,,,,,,,,,,,,
,,,0,,25,0,25,0,1,5f9aba6600cdf11f1c9b915c,24,Mężczyzna,2022-06-04_09h10.13.519,task,2021.1.4,Win32,49.94755507,628b806c463b948bc644b84f,629af770de72fc6a8330486c,,,,,,,,,,,,,,,,,,,,,,,,,,,,,,,,,,,,,,,,,,,,,,,,,,,,,,,,,,,,,,,,,,,,,,,,,,,,,,,,,,,,,,,,,,,,,,,,,,,,,,,
,,"[""period""]",0,[0.18389999985694772],26,0,26,0,1,5f9aba6600cdf11f1c9b915c,24,Mężczyzna,2022-06-04_09h10.13.519,task,2021.1.4,Win32,49.94755507,628b806c463b948bc644b84f,629af770de72fc6a8330486c,,,,,,,,,,,,,,,,,,,,,,,,,,,,,,,,,,,,,,,,,,,,,,,,,,,,,,,,,,,,,,,,,,,,,,,,,,,,,,,,,,,,,,,,,,,,,,,,,,,,,,,
,,"[""period""]",0,[0.6203999998569429],27,0,27,0,1,5f9aba6600cdf11f1c9b915c,24,Mężczyzna,2022-06-04_09h10.13.519,task,2021.1.4,Win32,49.94755507,628b806c463b948bc644b84f,629af770de72fc6a8330486c,,,,,,,,,,,,,,,,,,,,,,,,,,,,,,,,,,,,,,,,,,,,,,,,,,,,,,,,,,,,,,,,,,,,,,,,,,,,,,,,,,,,,,,,,,,,,,,,,,,,,,,
,,"[""comma""]",0,[1.2395999999046268],28,0,28,0,1,5f9aba6600cdf11f1c9b915c,24,Mężczyzna,2022-06-04_09h10.13.519,task,2021.1.4,Win32,49.94755507,628b806c463b948bc644b84f,629af770de72fc6a8330486c,,,,,,,,,,,,,,,,,,,,,,,,,,,,,,,,,,,,,,,,,,,,,,,,,,,,,,,,,,,,,,,,,,,,,,,,,,,,,,,,,,,,,,,,,,,,,,,,,,,,,,,
,,"[""period""]",0,[0.839500000000001],29,0,29,0,1,5f9aba6600cdf11f1c9b915c,24,Mężczyzna,2022-06-04_09h10.13.519,task,2021.1.4,Win32,49.94755507,628b806c463b948bc644b84f,629af770de72fc6a8330486c,,,,,,,,,,,,,,,,,,,,,,,,,,,,,,,,,,,,,,,,,,,,,,,,,,,,,,,,,,,,,,,,,,,,,,,,,,,,,,,,,,,,,,,,,,,,,,,,,,,,,,,
,,"[""period""]",0,[0.7819000000953764],30,0,30,0,1,5f9aba6600cdf11f1c9b915c,24,Mężczyzna,2022-06-04_09h10.13.519,task,2021.1.4,Win32,49.94755507,628b806c463b948bc644b84f,629af770de72fc6a8330486c,,,,,,,,,,,,,,,,,,,,,,,,,,,,,,,,,,,,,,,,,,,,,,,,,,,,,,,,,,,,,,,,,,,,,,,,,,,,,,,,,,,,,,,,,,,,,,,,,,,,,,,
,,"[""period"",""period""]",0,"[0.1805000000000092,1.539900000095372]",31,0,31,0,1,5f9aba6600cdf11f1c9b915c,24,Mężczyzna,2022-06-04_09h10.13.519,task,2021.1.4,Win32,49.94755507,628b806c463b948bc644b84f,629af770de72fc6a8330486c,,,,,,,,,,,,,,,,,,,,,,,,,,,,,,,,,,,,,,,,,,,,,,,,,,,,,,,,,,,,,,,,,,,,,,,,,,,,,,,,,,,,,,,,,,,,,,,,,,,,,,,
,,"[""period""]",0,[1.4333999998569453],32,0,32,0,1,5f9aba6600cdf11f1c9b915c,24,Mężczyzna,2022-06-04_09h10.13.519,task,2021.1.4,Win32,49.94755507,628b806c463b948bc644b84f,629af770de72fc6a8330486c,,,,,,,,,,,,,,,,,,,,,,,,,,,,,,,,,,,,,,,,,,,,,,,,,,,,,,,,,,,,,,,,,,,,,,,,,,,,,,,,,,,,,,,,,,,,,,,,,,,,,,,
,,"[""comma""]",0,[0.5162000000476752],33,0,33,0,1,5f9aba6600cdf11f1c9b915c,24,Mężczyzna,2022-06-04_09h10.13.519,task,2021.1.4,Win32,49.94755507,628b806c463b948bc644b84f,629af770de72fc6a8330486c,,,,,,,,,,,,,,,,,,,,,,,,,,,,,,,,,,,,,,,,,,,,,,,,,,,,,,,,,,,,,,,,,,,,,,,,,,,,,,,,,,,,,,,,,,,,,,,,,,,,,,,
,,"[""comma"",""period""]",0,"[0.19979999995231879,1.7402999999523132]",34,0,34,0,1,5f9aba6600cdf11f1c9b915c,24,Mężczyzna,2022-06-04_09h10.13.519,task,2021.1.4,Win32,49.94755507,628b806c463b948bc644b84f,629af770de72fc6a8330486c,,,,,,,,,,,,,,,,,,,,,,,,,,,,,,,,,,,,,,,,,,,,,,,,,,,,,,,,,,,,,,,,,,,,,,,,,,,,,,,,,,,,,,,,,,,,,,,,,,,,,,,
,,"[""comma""]",0,[1.6598999998569468],35,0,35,0,1,5f9aba6600cdf11f1c9b915c,24,Mężczyzna,2022-06-04_09h10.13.519,task,2021.1.4,Win32,49.94755507,628b806c463b948bc644b84f,629af770de72fc6a8330486c,,,,,,,,,,,,,,,,,,,,,,,,,,,,,,,,,,,,,,,,,,,,,,,,,,,,,,,,,,,,,,,,,,,,,,,,,,,,,,,,,,,,,,,,,,,,,,,,,,,,,,,
,,"[""period""]",0,[1.3757999999523207],36,0,36,0,1,5f9aba6600cdf11f1c9b915c,24,Mężczyzna,2022-06-04_09h10.13.519,task,2021.1.4,Win32,49.94755507,628b806c463b948bc644b84f,629af770de72fc6a8330486c,,,,,,,,,,,,,,,,,,,,,,,,,,,,,,,,,,,,,,,,,,,,,,,,,,,,,,,,,,,,,,,,,,,,,,,,,,,,,,,,,,,,,,,,,,,,,,,,,,,,,,,
,,"[""period""]",0,[0.9452000000476914],37,0,37,0,1,5f9aba6600cdf11f1c9b915c,24,Mężczyzna,2022-06-04_09h10.13.519,task,2021.1.4,Win32,49.94755507,628b806c463b948bc644b84f,629af770de72fc6a8330486c,,,,,,,,,,,,,,,,,,,,,,,,,,,,,,,,,,,,,,,,,,,,,,,,,,,,,,,,,,,,,,,,,,,,,,,,,,,,,,,,,,,,,,,,,,,,,,,,,,,,,,,
,,"[""comma"",""comma""]",0,"[0.30049999999999955,1.559999999999988]",38,0,38,0,1,5f9aba6600cdf11f1c9b915c,24,Mężczyzna,2022-06-04_09h10.13.519,task,2021.1.4,Win32,49.94755507,628b806c463b948bc644b84f,629af770de72fc6a8330486c,,,,,,,,,,,,,,,,,,,,,,,,,,,,,,,,,,,,,,,,,,,,,,,,,,,,,,,,,,,,,,,,,,,,,,,,,,,,,,,,,,,,,,,,,,,,,,,,,,,,,,,
,,,0,,39,0,39,0,1,5f9aba6600cdf11f1c9b915c,24,Mężczyzna,2022-06-04_09h10.13.519,task,2021.1.4,Win32,49.94755507,628b806c463b948bc644b84f,629af770de72fc6a8330486c,,,,,,,,,,,,,,,,,,,,,,,,,,,,,,,,,,,,,,,,,,,,,,,,,,,,,,,,,,,,,,,,,,,,,,,,,,,,,,,,,,,,,,,,,,,,,,,,,,,,,,,
,,"[""comma"",""period""]",0,"[0.08070000004768474,1.8400000000000034]",40,0,40,0,1,5f9aba6600cdf11f1c9b915c,24,Mężczyzna,2022-06-04_09h10.13.519,task,2021.1.4,Win32,49.94755507,628b806c463b948bc644b84f,629af770de72fc6a8330486c,,,,,,,,,,,,,,,,,,,,,,,,,,,,,,,,,,,,,,,,,,,,,,,,,,,,,,,,,,,,,,,,,,,,,,,,,,,,,,,,,,,,,,,,,,,,,,,,,,,,,,,
,,"[""comma""]",0,[1.8594000000953628],41,0,41,0,1,5f9aba6600cdf11f1c9b915c,24,Mężczyzna,2022-06-04_09h10.13.519,task,2021.1.4,Win32,49.94755507,628b806c463b948bc644b84f,629af770de72fc6a8330486c,,,,,,,,,,,,,,,,,,,,,,,,,,,,,,,,,,,,,,,,,,,,,,,,,,,,,,,,,,,,,,,,,,,,,,,,,,,,,,,,,,,,,,,,,,,,,,,,,,,,,,,
,,"[""period""]",0,[1.8001999998092657],42,0,42,0,1,5f9aba6600cdf11f1c9b915c,24,Mężczyzna,2022-06-04_09h10.13.519,task,2021.1.4,Win32,49.94755507,628b806c463b948bc644b84f,629af770de72fc6a8330486c,,,,,,,,,,,,,,,,,,,,,,,,,,,,,,,,,,,,,,,,,,,,,,,,,,,,,,,,,,,,,,,,,,,,,,,,,,,,,,,,,,,,,,,,,,,,,,,,,,,,,,,
,,,0,,43,0,43,0,1,5f9aba6600cdf11f1c9b915c,24,Mężczyzna,2022-06-04_09h10.13.519,task,2021.1.4,Win32,49.94755507,628b806c463b948bc644b84f,629af770de72fc6a8330486c,,,,,,,,,,,,,,,,,,,,,,,,,,,,,,,,,,,,,,,,,,,,,,,,,,,,,,,,,,,,,,,,,,,,,,,,,,,,,,,,,,,,,,,,,,,,,,,,,,,,,,,
,,"[""period""]",0,[0.3077999999523229],44,0,44,0,1,5f9aba6600cdf11f1c9b915c,24,Mężczyzna,2022-06-04_09h10.13.519,task,2021.1.4,Win32,49.94755507,628b806c463b948bc644b84f,629af770de72fc6a8330486c,,,,,,,,,,,,,,,,,,,,,,,,,,,,,,,,,,,,,,,,,,,,,,,,,,,,,,,,,,,,,,,,,,,,,,,,,,,,,,,,,,,,,,,,,,,,,,,,,,,,,,,
,,"[""period""]",0,[0.42760000014304467],45,0,45,0,1,5f9aba6600cdf11f1c9b915c,24,Mężczyzna,2022-06-04_09h10.13.519,task,2021.1.4,Win32,49.94755507,628b806c463b948bc644b84f,629af770de72fc6a8330486c,,,,,,,,,,,,,,,,,,,,,,,,,,,,,,,,,,,,,,,,,,,,,,,,,,,,,,,,,,,,,,,,,,,,,,,,,,,,,,,,,,,,,,,,,,,,,,,,,,,,,,,
,,"[""comma""]",0,[0.42059999990462416],46,0,46,0,1,5f9aba6600cdf11f1c9b915c,24,Mężczyzna,2022-06-04_09h10.13.519,task,2021.1.4,Win32,49.94755507,628b806c463b948bc644b84f,629af770de72fc6a8330486c,,,,,,,,,,,,,,,,,,,,,,,,,,,,,,,,,,,,,,,,,,,,,,,,,,,,,,,,,,,,,,,,,,,,,,,,,,,,,,,,,,,,,,,,,,,,,,,,,,,,,,,
,,"[""comma""]",0,[0.4406000001430499],47,0,47,0,1,5f9aba6600cdf11f1c9b915c,24,Mężczyzna,2022-06-04_09h10.13.519,task,2021.1.4,Win32,49.94755507,628b806c463b948bc644b84f,629af770de72fc6a8330486c,,,,,,,,,,,,,,,,,,,,,,,,,,,,,,,,,,,,,,,,,,,,,,,,,,,,,,,,,,,,,,,,,,,,,,,,,,,,,,,,,,,,,,,,,,,,,,,,,,,,,,,
,,"[""period""]",0,[0.8400000000000034],48,0,48,0,1,5f9aba6600cdf11f1c9b915c,24,Mężczyzna,2022-06-04_09h10.13.519,task,2021.1.4,Win32,49.94755507,628b806c463b948bc644b84f,629af770de72fc6a8330486c,,,,,,,,,,,,,,,,,,,,,,,,,,,,,,,,,,,,,,,,,,,,,,,,,,,,,,,,,,,,,,,,,,,,,,,,,,,,,,,,,,,,,,,,,,,,,,,,,,,,,,,
,,"[""period""]",0,[0.30040000009536527],49,0,49,0,1,5f9aba6600cdf11f1c9b915c,24,Mężczyzna,2022-06-04_09h10.13.519,task,2021.1.4,Win32,49.94755507,628b806c463b948bc644b84f,629af770de72fc6a8330486c,,,,,,,,,,,,,,,,,,,,,,,,,,,,,,,,,,,,,,,,,,,,,,,,,,,,,,,,,,,,,,,,,,,,,,,,,,,,,,,,,,,,,,,,,,,,,,,,,,,,,,,
,,"[""comma""]",0,[0.22709999990463814],50,0,50,0,1,5f9aba6600cdf11f1c9b915c,24,Mężczyzna,2022-06-04_09h10.13.519,task,2021.1.4,Win32,49.94755507,628b806c463b948bc644b84f,629af770de72fc6a8330486c,,,,,,,,,,,,,,,,,,,,,,,,,,,,,,,,,,,,,,,,,,,,,,,,,,,,,,,,,,,,,,,,,,,,,,,,,,,,,,,,,,,,,,,,,,,,,,,,,,,,,,,
,,"[""period""]",0,[0.24370000004769565],51,0,51,0,1,5f9aba6600cdf11f1c9b915c,24,Mężczyzna,2022-06-04_09h10.13.519,task,2021.1.4,Win32,49.94755507,628b806c463b948bc644b84f,629af770de72fc6a8330486c,,,,,,,,,,,,,,,,,,,,,,,,,,,,,,,,,,,,,,,,,,,,,,,,,,,,,,,,,,,,,,,,,,,,,,,,,,,,,,,,,,,,,,,,,,,,,,,,,,,,,,,
,,"[""comma""]",0,[0.30100000000000193],52,0,52,0,1,5f9aba6600cdf11f1c9b915c,24,Mężczyzna,2022-06-04_09h10.13.519,task,2021.1.4,Win32,49.94755507,628b806c463b948bc644b84f,629af770de72fc6a8330486c,,,,,,,,,,,,,,,,,,,,,,,,,,,,,,,,,,,,,,,,,,,,,,,,,,,,,,,,,,,,,,,,,,,,,,,,,,,,,,,,,,,,,,,,,,,,,,,,,,,,,,,
,,"[""period""]",0,[0.24049999999999727],53,0,53,0,1,5f9aba6600cdf11f1c9b915c,24,Mężczyzna,2022-06-04_09h10.13.519,task,2021.1.4,Win32,49.94755507,628b806c463b948bc644b84f,629af770de72fc6a8330486c,,,,,,,,,,,,,,,,,,,,,,,,,,,,,,,,,,,,,,,,,,,,,,,,,,,,,,,,,,,,,,,,,,,,,,,,,,,,,,,,,,,,,,,,,,,,,,,,,,,,,,,
,,"[""period""]",0,[0.2033000001907368],54,0,54,0,1,5f9aba6600cdf11f1c9b915c,24,Mężczyzna,2022-06-04_09h10.13.519,task,2021.1.4,Win32,49.94755507,628b806c463b948bc644b84f,629af770de72fc6a8330486c,,,,,,,,,,,,,,,,,,,,,,,,,,,,,,,,,,,,,,,,,,,,,,,,,,,,,,,,,,,,,,,,,,,,,,,,,,,,,,,,,,,,,,,,,,,,,,,,,,,,,,,
,,"[""period"",""period""]",0,"[0.26029999995232345,1.811400000095361]",55,0,55,0,1,5f9aba6600cdf11f1c9b915c,24,Mężczyzna,2022-06-04_09h10.13.519,task,2021.1.4,Win32,49.94755507,628b806c463b948bc644b84f,629af770de72fc6a8330486c,,,,,,,,,,,,,,,,,,,,,,,,,,,,,,,,,,,,,,,,,,,,,,,,,,,,,,,,,,,,,,,,,,,,,,,,,,,,,,,,,,,,,,,,,,,,,,,,,,,,,,,
,,,0,,56,0,56,0,1,5f9aba6600cdf11f1c9b915c,24,Mężczyzna,2022-06-04_09h10.13.519,task,2021.1.4,Win32,49.94755507,628b806c463b948bc644b84f,629af770de72fc6a8330486c,,,,,,,,,,,,,,,,,,,,,,,,,,,,,,,,,,,,,,,,,,,,,,,,,,,,,,,,,,,,,,,,,,,,,,,,,,,,,,,,,,,,,,,,,,,,,,,,,,,,,,,
,,"[""period""]",0,[0.20269999980929754],57,0,57,0,1,5f9aba6600cdf11f1c9b915c,24,Mężczyzna,2022-06-04_09h10.13.519,task,2021.1.4,Win32,49.94755507,628b806c463b948bc644b84f,629af770de72fc6a8330486c,,,,,,,,,,,,,,,,,,,,,,,,,,,,,,,,,,,,,,,,,,,,,,,,,,,,,,,,,,,,,,,,,,,,,,,,,,,,,,,,,,,,,,,,,,,,,,,,,,,,,,,
,,"[""comma""]",0,[0.40049999999999386],58,0,58,0,1,5f9aba6600cdf11f1c9b915c,24,Mężczyzna,2022-06-04_09h10.13.519,task,2021.1.4,Win32,49.94755507,628b806c463b948bc644b84f,629af770de72fc6a8330486c,,,,,,,,,,,,,,,,,,,,,,,,,,,,,,,,,,,,,,,,,,,,,,,,,,,,,,,,,,,,,,,,,,,,,,,,,,,,,,,,,,,,,,,,,,,,,,,,,,,,,,,
,,"[""period""]",0,[0.38040000009536357],59,0,59,0,1,5f9aba6600cdf11f1c9b915c,24,Mężczyzna,2022-06-04_09h10.13.519,task,2021.1.4,Win32,49.94755507,628b806c463b948bc644b84f,629af770de72fc6a8330486c,,,,,,,,,,,,,,,,,,,,,,,,,,,,,,,,,,,,,,,,,,,,,,,,,,,,,,,,,,,,,,,,,,,,,,,,,,,,,,,,,,,,,,,,,,,,,,,,,,,,,,,
,,"[""comma""]",0,[0.08280000019072986],60,0,60,0,1,5f9aba6600cdf11f1c9b915c,24,Mężczyzna,2022-06-04_09h10.13.519,task,2021.1.4,Win32,49.94755507,628b806c463b948bc644b84f,629af770de72fc6a8330486c,,,,,,,,,,,,,,,,,,,,,,,,,,,,,,,,,,,,,,,,,,,,,,,,,,,,,,,,,,,,,,,,,,,,,,,,,,,,,,,,,,,,,,,,,,,,,,,,,,,,,,,
,,"[""comma""]",0,[0.40829999995230537],61,0,61,0,1,5f9aba6600cdf11f1c9b915c,24,Mężczyzna,2022-06-04_09h10.13.519,task,2021.1.4,Win32,49.94755507,628b806c463b948bc644b84f,629af770de72fc6a8330486c,,,,,,,,,,,,,,,,,,,,,,,,,,,,,,,,,,,,,,,,,,,,,,,,,,,,,,,,,,,,,,,,,,,,,,,,,,,,,,,,,,,,,,,,,,,,,,,,,,,,,,,
,,"[""period""]",0,[1.4689000000953456],62,0,62,0,1,5f9aba6600cdf11f1c9b915c,24,Mężczyzna,2022-06-04_09h10.13.519,task,2021.1.4,Win32,49.94755507,628b806c463b948bc644b84f,629af770de72fc6a8330486c,,,,,,,,,,,,,,,,,,,,,,,,,,,,,,,,,,,,,,,,,,,,,,,,,,,,,,,,,,,,,,,,,,,,,,,,,,,,,,,,,,,,,,,,,,,,,,,,,,,,,,,
,,"[""period""]",0,[0.9899000000953606],63,0,63,0,1,5f9aba6600cdf11f1c9b915c,24,Mężczyzna,2022-06-04_09h10.13.519,task,2021.1.4,Win32,49.94755507,628b806c463b948bc644b84f,629af770de72fc6a8330486c,,,,,,,,,,,,,,,,,,,,,,,,,,,,,,,,,,,,,,,,,,,,,,,,,,,,,,,,,,,,,,,,,,,,,,,,,,,,,,,,,,,,,,,,,,,,,,,,,,,,,,,
,,"[""comma""]",0,[0.8295999999046444],64,0,64,0,1,5f9aba6600cdf11f1c9b915c,24,Mężczyzna,2022-06-04_09h10.13.519,task,2021.1.4,Win32,49.94755507,628b806c463b948bc644b84f,629af770de72fc6a8330486c,,,,,,,,,,,,,,,,,,,,,,,,,,,,,,,,,,,,,,,,,,,,,,,,,,,,,,,,,,,,,,,,,,,,,,,,,,,,,,,,,,,,,,,,,,,,,,,,,,,,,,,
,,"[""period""]",0,[0.5794999999999959],65,0,65,0,1,5f9aba6600cdf11f1c9b915c,24,Mężczyzna,2022-06-04_09h10.13.519,task,2021.1.4,Win32,49.94755507,628b806c463b948bc644b84f,629af770de72fc6a8330486c,,,,,,,,,,,,,,,,,,,,,,,,,,,,,,,,,,,,,,,,,,,,,,,,,,,,,,,,,,,,,,,,,,,,,,,,,,,,,,,,,,,,,,,,,,,,,,,,,,,,,,,
,,"[""period""]",0,[0.5427999999523365],66,0,66,0,1,5f9aba6600cdf11f1c9b915c,24,Mężczyzna,2022-06-04_09h10.13.519,task,2021.1.4,Win32,49.94755507,628b806c463b948bc644b84f,629af770de72fc6a8330486c,,,,,,,,,,,,,,,,,,,,,,,,,,,,,,,,,,,,,,,,,,,,,,,,,,,,,,,,,,,,,,,,,,,,,,,,,,,,,,,,,,,,,,,,,,,,,,,,,,,,,,,
,,"[""period""]",0,[0.7409000000953938],67,0,67,0,1,5f9aba6600cdf11f1c9b915c,24,Mężczyzna,2022-06-04_09h10.13.519,task,2021.1.4,Win32,49.94755507,628b806c463b948bc644b84f,629af770de72fc6a8330486c,,,,,,,,,,,,,,,,,,,,,,,,,,,,,,,,,,,,,,,,,,,,,,,,,,,,,,,,,,,,,,,,,,,,,,,,,,,,,,,,,,,,,,,,,,,,,,,,,,,,,,,
,,"[""comma""]",0,[0.38039999985696227],68,0,68,0,1,5f9aba6600cdf11f1c9b915c,24,Mężczyzna,2022-06-04_09h10.13.519,task,2021.1.4,Win32,49.94755507,628b806c463b948bc644b84f,629af770de72fc6a8330486c,,,,,,,,,,,,,,,,,,,,,,,,,,,,,,,,,,,,,,,,,,,,,,,,,,,,,,,,,,,,,,,,,,,,,,,,,,,,,,,,,,,,,,,,,,,,,,,,,,,,,,,
,,"[""comma""]",0,[0.3404999999999916],69,0,69,0,1,5f9aba6600cdf11f1c9b915c,24,Mężczyzna,2022-06-04_09h10.13.519,task,2021.1.4,Win32,49.94755507,628b806c463b948bc644b84f,629af770de72fc6a8330486c,,,,,,,,,,,,,,,,,,,,,,,,,,,,,,,,,,,,,,,,,,,,,,,,,,,,,,,,,,,,,,,,,,,,,,,,,,,,,,,,,,,,,,,,,,,,,,,,,,,,,,,
,,"[""period""]",0,[0.34990000009537425],70,0,70,0,1,5f9aba6600cdf11f1c9b915c,24,Mężczyzna,2022-06-04_09h10.13.519,task,2021.1.4,Win32,49.94755507,628b806c463b948bc644b84f,629af770de72fc6a8330486c,,,,,,,,,,,,,,,,,,,,,,,,,,,,,,,,,,,,,,,,,,,,,,,,,,,,,,,,,,,,,,,,,,,,,,,,,,,,,,,,,,,,,,,,,,,,,,,,,,,,,,,
,,"[""period""]",0,[0.8839999999999861],71,0,71,0,1,5f9aba6600cdf11f1c9b915c,24,Mężczyzna,2022-06-04_09h10.13.519,task,2021.1.4,Win32,49.94755507,628b806c463b948bc644b84f,629af770de72fc6a8330486c,,,,,,,,,,,,,,,,,,,,,,,,,,,,,,,,,,,,,,,,,,,,,,,,,,,,,,,,,,,,,,,,,,,,,,,,,,,,,,,,,,,,,,,,,,,,,,,,,,,,,,,
,,"[""comma""]",0,[1.52010000014306],72,0,72,0,1,5f9aba6600cdf11f1c9b915c,24,Mężczyzna,2022-06-04_09h10.13.519,task,2021.1.4,Win32,49.94755507,628b806c463b948bc644b84f,629af770de72fc6a8330486c,,,,,,,,,,,,,,,,,,,,,,,,,,,,,,,,,,,,,,,,,,,,,,,,,,,,,,,,,,,,,,,,,,,,,,,,,,,,,,,,,,,,,,,,,,,,,,,,,,,,,,,
,,,0,,73,0,73,0,1,5f9aba6600cdf11f1c9b915c,24,Mężczyzna,2022-06-04_09h10.13.519,task,2021.1.4,Win32,49.94755507,628b806c463b948bc644b84f,629af770de72fc6a8330486c,,,,,,,,,,,,,,,,,,,,,,,,,,,,,,,,,,,,,,,,,,,,,,,,,,,,,,,,,,,,,,,,,,,,,,,,,,,,,,,,,,,,,,,,,,,,,,,,,,,,,,,
,,"[""period""]",0,[0.655200000047671],74,0,74,0,1,5f9aba6600cdf11f1c9b915c,24,Mężczyzna,2022-06-04_09h10.13.519,task,2021.1.4,Win32,49.94755507,628b806c463b948bc644b84f,629af770de72fc6a8330486c,,,,,,,,,,,,,,,,,,,,,,,,,,,,,,,,,,,,,,,,,,,,,,,,,,,,,,,,,,,,,,,,,,,,,,,,,,,,,,,,,,,,,,,,,,,,,,,,,,,,,,,
,,"[""comma""]",0,[0.6002999999523126],75,0,75,0,1,5f9aba6600cdf11f1c9b915c,24,Mężczyzna,2022-06-04_09h10.13.519,task,2021.1.4,Win32,49.94755507,628b806c463b948bc644b84f,629af770de72fc6a8330486c,,,,,,,,,,,,,,,,,,,,,,,,,,,,,,,,,,,,,,,,,,,,,,,,,,,,,,,,,,,,,,,,,,,,,,,,,,,,,,,,,,,,,,,,,,,,,,,,,,,,,,,
,,"[""period""]",0,[1.1599999999999966],76,0,76,0,1,5f9aba6600cdf11f1c9b915c,24,Mężczyzna,2022-06-04_09h10.13.519,task,2021.1.4,Win32,49.94755507,628b806c463b948bc644b84f,629af770de72fc6a8330486c,,,,,,,,,,,,,,,,,,,,,,,,,,,,,,,,,,,,,,,,,,,,,,,,,,,,,,,,,,,,,,,,,,,,,,,,,,,,,,,,,,,,,,,,,,,,,,,,,,,,,,,
,,"[""period""]",0,[1.1002000000476926],77,0,77,0,1,5f9aba6600cdf11f1c9b915c,24,Mężczyzna,2022-06-04_09h10.13.519,task,2021.1.4,Win32,49.94755507,628b806c463b948bc644b84f,629af770de72fc6a8330486c,,,,,,,,,,,,,,,,,,,,,,,,,,,,,,,,,,,,,,,,,,,,,,,,,,,,,,,,,,,,,,,,,,,,,,,,,,,,,,,,,,,,,,,,,,,,,,,,,,,,,,,
,,,0,,78,0,78,0,1,5f9aba6600cdf11f1c9b915c,24,Mężczyzna,2022-06-04_09h10.13.519,task,2021.1.4,Win32,49.94755507,628b806c463b948bc644b84f,629af770de72fc6a8330486c,,,,,,,,,,,,,,,,,,,,,,,,,,,,,,,,,,,,,,,,,,,,,,,,,,,,,,,,,,,,,,,,,,,,,,,,,,,,,,,,,,,,,,,,,,,,,,,,,,,,,,,
,,"[""comma""]",0,[0.6002999999523126],79,0,79,0,1,5f9aba6600cdf11f1c9b915c,24,Mężczyzna,2022-06-04_09h10.13.519,task,2021.1.4,Win32,49.94755507,628b806c463b948bc644b84f,629af770de72fc6a8330486c,,,,,,,,,,,,,,,,,,,,,,,,,,,,,,,,,,,,,,,,,,,,,,,,,,,,,,,,,,,,,,,,,,,,,,,,,,,,,,,,,,,,,,,,,,,,,,,,,,,,,,,
,,"[""period""]",0,[1.2602999999523377],80,0,80,0,1,5f9aba6600cdf11f1c9b915c,24,Mężczyzna,2022-06-04_09h10.13.519,task,2021.1.4,Win32,49.94755507,628b806c463b948bc644b84f,629af770de72fc6a8330486c,,,,,,,,,,,,,,,,,,,,,,,,,,,,,,,,,,,,,,,,,,,,,,,,,,,,,,,,,,,,,,,,,,,,,,,,,,,,,,,,,,,,,,,,,,,,,,,,,,,,,,,
,,"[""comma""]",0,[1.4059000000953574],81,0,81,0,1,5f9aba6600cdf11f1c9b915c,24,Mężczyzna,2022-06-04_09h10.13.519,task,2021.1.4,Win32,49.94755507,628b806c463b948bc644b84f,629af770de72fc6a8330486c,,,,,,,,,,,,,,,,,,,,,,,,,,,,,,,,,,,,,,,,,,,,,,,,,,,,,,,,,,,,,,,,,,,,,,,,,,,,,,,,,,,,,,,,,,,,,,,,,,,,,,,
,,"[""comma""]",0,[1.2464000000953774],82,0,82,0,1,5f9aba6600cdf11f1c9b915c,24,Mężczyzna,2022-06-04_09h10.13.519,task,2021.1.4,Win32,49.94755507,628b806c463b948bc644b84f,629af770de72fc6a8330486c,,,,,,,,,,,,,,,,,,,,,,,,,,,,,,,,,,,,,,,,,,,,,,,,,,,,,,,,,,,,,,,,,,,,,,,,,,,,,,,,,,,,,,,,,,,,,,,,,,,,,,,
,,"[""period""]",0,[0.5203999998569486],83,0,83,0,1,5f9aba6600cdf11f1c9b915c,24,Mężczyzna,2022-06-04_09h10.13.519,task,2021.1.4,Win32,49.94755507,628b806c463b948bc644b84f,629af770de72fc6a8330486c,,,,,,,,,,,,,,,,,,,,,,,,,,,,,,,,,,,,,,,,,,,,,,,,,,,,,,,,,,,,,,,,,,,,,,,,,,,,,,,,,,,,,,,,,,,,,,,,,,,,,,,
,,"[""period"",""period""]",0,"[0.24049999999999727,1.6601999998092651]",84,0,84,0,1,5f9aba6600cdf11f1c9b915c,24,Mężczyzna,2022-06-04_09h10.13.519,task,2021.1.4,Win32,49.94755507,628b806c463b948bc644b84f,629af770de72fc6a8330486c,,,,,,,,,,,,,,,,,,,,,,,,,,,,,,,,,,,,,,,,,,,,,,,,,,,,,,,,,,,,,,,,,,,,,,,,,,,,,,,,,,,,,,,,,,,,,,,,,,,,,,,
,,"[""comma""]",0,[1.6400999999046348],85,0,85,0,1,5f9aba6600cdf11f1c9b915c,24,Mężczyzna,2022-06-04_09h10.13.519,task,2021.1.4,Win32,49.94755507,628b806c463b948bc644b84f,629af770de72fc6a8330486c,,,,,,,,,,,,,,,,,,,,,,,,,,,,,,,,,,,,,,,,,,,,,,,,,,,,,,,,,,,,,,,,,,,,,,,,,,,,,,,,,,,,,,,,,,,,,,,,,,,,,,,
,,"[""period""]",0,[1.6997999999523188],86,0,86,0,1,5f9aba6600cdf11f1c9b915c,24,Mężczyzna,2022-06-04_09h10.13.519,task,2021.1.4,Win32,49.94755507,628b806c463b948bc644b84f,629af770de72fc6a8330486c,,,,,,,,,,,,,,,,,,,,,,,,,,,,,,,,,,,,,,,,,,,,,,,,,,,,,,,,,,,,,,,,,,,,,,,,,,,,,,,,,,,,,,,,,,,,,,,,,,,,,,,
,,"[""comma""]",0,[1.6802000000476767],87,0,87,0,1,5f9aba6600cdf11f1c9b915c,24,Mężczyzna,2022-06-04_09h10.13.519,task,2021.1.4,Win32,49.94755507,628b806c463b948bc644b84f,629af770de72fc6a8330486c,,,,,,,,,,,,,,,,,,,,,,,,,,,,,,,,,,,,,,,,,,,,,,,,,,,,,,,,,,,,,,,,,,,,,,,,,,,,,,,,,,,,,,,,,,,,,,,,,,,,,,,
,,,0,,88,0,88,0,1,5f9aba6600cdf11f1c9b915c,24,Mężczyzna,2022-06-04_09h10.13.519,task,2021.1.4,Win32,49.94755507,628b806c463b948bc644b84f,629af770de72fc6a8330486c,,,,,,,,,,,,,,,,,,,,,,,,,,,,,,,,,,,,,,,,,,,,,,,,,,,,,,,,,,,,,,,,,,,,,,,,,,,,,,,,,,,,,,,,,,,,,,,,,,,,,,,
,,"[""comma""]",0,[-0.027900000095371524],89,0,89,0,1,5f9aba6600cdf11f1c9b915c,24,Mężczyzna,2022-06-04_09h10.13.519,task,2021.1.4,Win32,49.94755507,628b806c463b948bc644b84f,629af770de72fc6a8330486c,,,,,,,,,,,,,,,,,,,,,,,,,,,,,,,,,,,,,,,,,,,,,,,,,,,,,,,,,,,,,,,,,,,,,,,,,,,,,,,,,,,,,,,,,,,,,,,,,,,,,,,
,,"[""period""]",0,[0.34059999990464007],90,0,90,0,1,5f9aba6600cdf11f1c9b915c,24,Mężczyzna,2022-06-04_09h10.13.519,task,2021.1.4,Win32,49.94755507,628b806c463b948bc644b84f,629af770de72fc6a8330486c,,,,,,,,,,,,,,,,,,,,,,,,,,,,,,,,,,,,,,,,,,,,,,,,,,,,,,,,,,,,,,,,,,,,,,,,,,,,,,,,,,,,,,,,,,,,,,,,,,,,,,,
,,"[""comma""]",0,[0.38039999985696227],91,0,91,0,1,5f9aba6600cdf11f1c9b915c,24,Mężczyzna,2022-06-04_09h10.13.519,task,2021.1.4,Win32,49.94755507,628b806c463b948bc644b84f,629af770de72fc6a8330486c,,,,,,,,,,,,,,,,,,,,,,,,,,,,,,,,,,,,,,,,,,,,,,,,,,,,,,,,,,,,,,,,,,,,,,,,,,,,,,,,,,,,,,,,,,,,,,,,,,,,,,,
,,"[""period""]",0,[0.42719999980926104],92,0,92,0,1,5f9aba6600cdf11f1c9b915c,24,Mężczyzna,2022-06-04_09h10.13.519,task,2021.1.4,Win32,49.94755507,628b806c463b948bc644b84f,629af770de72fc6a8330486c,,,,,,,,,,,,,,,,,,,,,,,,,,,,,,,,,,,,,,,,,,,,,,,,,,,,,,,,,,,,,,,,,,,,,,,,,,,,,,,,,,,,,,,,,,,,,,,,,,,,,,,
,,"[""comma""]",0,[1.760099999904611],93,0,93,0,1,5f9aba6600cdf11f1c9b915c,24,Mężczyzna,2022-06-04_09h10.13.519,task,2021.1.4,Win32,49.94755507,628b806c463b948bc644b84f,629af770de72fc6a8330486c,,,,,,,,,,,,,,,,,,,,,,,,,,,,,,,,,,,,,,,,,,,,,,,,,,,,,,,,,,,,,,,,,,,,,,,,,,,,,,,,,,,,,,,,,,,,,,,,,,,,,,,
,,,0,,94,0,94,0,1,5f9aba6600cdf11f1c9b915c,24,Mężczyzna,2022-06-04_09h10.13.519,task,2021.1.4,Win32,49.94755507,628b806c463b948bc644b84f,629af770de72fc6a8330486c,,,,,,,,,,,,,,,,,,,,,,,,,,,,,,,,,,,,,,,,,,,,,,,,,,,,,,,,,,,,,,,,,,,,,,,,,,,,,,,,,,,,,,,,,,,,,,,,,,,,,,,
,,"[""comma""]",0,[0.940200000047696],95,0,95,0,1,5f9aba6600cdf11f1c9b915c,24,Mężczyzna,2022-06-04_09h10.13.519,task,2021.1.4,Win32,49.94755507,628b806c463b948bc644b84f,629af770de72fc6a8330486c,,,,,,,,,,,,,,,,,,,,,,,,,,,,,,,,,,,,,,,,,,,,,,,,,,,,,,,,,,,,,,,,,,,,,,,,,,,,,,,,,,,,,,,,,,,,,,,,,,,,,,,
,,"[""period""]",0,[1.50009999990462],96,0,96,0,1,5f9aba6600cdf11f1c9b915c,24,Mężczyzna,2022-06-04_09h10.13.519,task,2021.1.4,Win32,49.94755507,628b806c463b948bc644b84f,629af770de72fc6a8330486c,,,,,,,,,,,,,,,,,,,,,,,,,,,,,,,,,,,,,,,,,,,,,,,,,,,,,,,,,,,,,,,,,,,,,,,,,,,,,,,,,,,,,,,,,,,,,,,,,,,,,,,
,,,0,,97,0,97,0,1,5f9aba6600cdf11f1c9b915c,24,Mężczyzna,2022-06-04_09h10.13.519,task,2021.1.4,Win32,49.94755507,628b806c463b948bc644b84f,629af770de72fc6a8330486c,,,,,,,,,,,,,,,,,,,,,,,,,,,,,,,,,,,,,,,,,,,,,,,,,,,,,,,,,,,,,,,,,,,,,,,,,,,,,,,,,,,,,,,,,,,,,,,,,,,,,,,
,,"[""period""]",0,[0.05640000009535129],98,0,98,0,1,5f9aba6600cdf11f1c9b915c,24,Mężczyzna,2022-06-04_09h10.13.519,task,2021.1.4,Win32,49.94755507,628b806c463b948bc644b84f,629af770de72fc6a8330486c,,,,,,,,,,,,,,,,,,,,,,,,,,,,,,,,,,,,,,,,,,,,,,,,,,,,,,,,,,,,,,,,,,,,,,,,,,,,,,,,,,,,,,,,,,,,,,,,,,,,,,,
,,"[""comma""]",0,[1.0685000000000002],99,0,99,0,1,5f9aba6600cdf11f1c9b915c,24,Mężczyzna,2022-06-04_09h10.13.519,task,2021.1.4,Win32,49.94755507,628b806c463b948bc644b84f,629af770de72fc6a8330486c,,,,,,,,,,,,,,,,,,,,,,,,,,,,,,,,,,,,,,,,,,,,,,,,,,,,,,,,,,,,,,,,,,,,,,,,,,,,,,,,,,,,,,,,,,,,,,,,,,,,,,,
,,"[""period""]",0,[1.3081000001430425],100,0,100,0,1,5f9aba6600cdf11f1c9b915c,24,Mężczyzna,2022-06-04_09h10.13.519,task,2021.1.4,Win32,49.94755507,628b806c463b948bc644b84f,629af770de72fc6a8330486c,,,,,,,,,,,,,,,,,,,,,,,,,,,,,,,,,,,,,,,,,,,,,,,,,,,,,,,,,,,,,,,,,,,,,,,,,,,,,,,,,,,,,,,,,,,,,,,,,,,,,,,
,,"[""comma""]",0,[1.3400000000000034],101,0,101,0,1,5f9aba6600cdf11f1c9b915c,24,Mężczyzna,2022-06-04_09h10.13.519,task,2021.1.4,Win32,49.94755507,628b806c463b948bc644b84f,629af770de72fc6a8330486c,,,,,,,,,,,,,,,,,,,,,,,,,,,,,,,,,,,,,,,,,,,,,,,,,,,,,,,,,,,,,,,,,,,,,,,,,,,,,,,,,,,,,,,,,,,,,,,,,,,,,,,
,,,0,,102,0,102,0,1,5f9aba6600cdf11f1c9b915c,24,Mężczyzna,2022-06-04_09h10.13.519,task,2021.1.4,Win32,49.94755507,628b806c463b948bc644b84f,629af770de72fc6a8330486c,,,,,,,,,,,,,,,,,,,,,,,,,,,,,,,,,,,,,,,,,,,,,,,,,,,,,,,,,,,,,,,,,,,,,,,,,,,,,,,,,,,,,,,,,,,,,,,,,,,,,,,
,,"[""period""]",0,[-0.020399999856948625],103,0,103,0,1,5f9aba6600cdf11f1c9b915c,24,Mężczyzna,2022-06-04_09h10.13.519,task,2021.1.4,Win32,49.94755507,628b806c463b948bc644b84f,629af770de72fc6a8330486c,,,,,,,,,,,,,,,,,,,,,,,,,,,,,,,,,,,,,,,,,,,,,,,,,,,,,,,,,,,,,,,,,,,,,,,,,,,,,,,,,,,,,,,,,,,,,,,,,,,,,,,
,,"[""comma""]",0,[0.7207000000476853],104,0,104,0,1,5f9aba6600cdf11f1c9b915c,24,Mężczyzna,2022-06-04_09h10.13.519,task,2021.1.4,Win32,49.94755507,628b806c463b948bc644b84f,629af770de72fc6a8330486c,,,,,,,,,,,,,,,,,,,,,,,,,,,,,,,,,,,,,,,,,,,,,,,,,,,,,,,,,,,,,,,,,,,,,,,,,,,,,,,,,,,,,,,,,,,,,,,,,,,,,,,
,,"[""period""]",0,[1.5094000000953542],105,0,105,0,1,5f9aba6600cdf11f1c9b915c,24,Mężczyzna,2022-06-04_09h10.13.519,task,2021.1.4,Win32,49.94755507,628b806c463b948bc644b84f,629af770de72fc6a8330486c,,,,,,,,,,,,,,,,,,,,,,,,,,,,,,,,,,,,,,,,,,,,,,,,,,,,,,,,,,,,,,,,,,,,,,,,,,,,,,,,,,,,,,,,,,,,,,,,,,,,,,,
,,"[""comma""]",0,[1.4001000001430555],106,0,106,0,1,5f9aba6600cdf11f1c9b915c,24,Mężczyzna,2022-06-04_09h10.13.519,task,2021.1.4,Win32,49.94755507,628b806c463b948bc644b84f,629af770de72fc6a8330486c,,,,,,,,,,,,,,,,,,,,,,,,,,,,,,,,,,,,,,,,,,,,,,,,,,,,,,,,,,,,,,,,,,,,,,,,,,,,,,,,,,,,,,,,,,,,,,,,,,,,,,,
,,"[""comma""]",0,[1.3002000000476812],107,0,107,0,1,5f9aba6600cdf11f1c9b915c,24,Mężczyzna,2022-06-04_09h10.13.519,task,2021.1.4,Win32,49.94755507,628b806c463b948bc644b84f,629af770de72fc6a8330486c,,,,,,,,,,,,,,,,,,,,,,,,,,,,,,,,,,,,,,,,,,,,,,,,,,,,,,,,,,,,,,,,,,,,,,,,,,,,,,,,,,,,,,,,,,,,,,,,,,,,,,,
,,"[""period""]",0,[1.1746000001430446],108,0,108,0,1,5f9aba6600cdf11f1c9b915c,24,Mężczyzna,2022-06-04_09h10.13.519,task,2021.1.4,Win32,49.94755507,628b806c463b948bc644b84f,629af770de72fc6a8330486c,,,,,,,,,,,,,,,,,,,,,,,,,,,,,,,,,,,,,,,,,,,,,,,,,,,,,,,,,,,,,,,,,,,,,,,,,,,,,,,,,,,,,,,,,,,,,,,,,,,,,,,
,,"[""period""]",0,[0.9399000000953777],109,0,109,0,1,5f9aba6600cdf11f1c9b915c,24,Mężczyzna,2022-06-04_09h10.13.519,task,2021.1.4,Win32,49.94755507,628b806c463b948bc644b84f,629af770de72fc6a8330486c,,,,,,,,,,,,,,,,,,,,,,,,,,,,,,,,,,,,,,,,,,,,,,,,,,,,,,,,,,,,,,,,,,,,,,,,,,,,,,,,,,,,,,,,,,,,,,,,,,,,,,,
,,"[""period""]",0,[1.559500000000014],110,0,110,0,1,5f9aba6600cdf11f1c9b915c,24,Mężczyzna,2022-06-04_09h10.13.519,task,2021.1.4,Win32,49.94755507,628b806c463b948bc644b84f,629af770de72fc6a8330486c,,,,,,,,,,,,,,,,,,,,,,,,,,,,,,,,,,,,,,,,,,,,,,,,,,,,,,,,,,,,,,,,,,,,,,,,,,,,,,,,,,,,,,,,,,,,,,,,,,,,,,,
,,"[""comma""]",0,[1.1816999998092683],111,0,111,0,1,5f9aba6600cdf11f1c9b915c,24,Mężczyzna,2022-06-04_09h10.13.519,task,2021.1.4,Win32,49.94755507,628b806c463b948bc644b84f,629af770de72fc6a8330486c,,,,,,,,,,,,,,,,,,,,,,,,,,,,,,,,,,,,,,,,,,,,,,,,,,,,,,,,,,,,,,,,,,,,,,,,,,,,,,,,,,,,,,,,,,,,,,,,,,,,,,,
,,"[""period""]",0,[1.205799999952319],112,0,112,0,1,5f9aba6600cdf11f1c9b915c,24,Mężczyzna,2022-06-04_09h10.13.519,task,2021.1.4,Win32,49.94755507,628b806c463b948bc644b84f,629af770de72fc6a8330486c,,,,,,,,,,,,,,,,,,,,,,,,,,,,,,,,,,,,,,,,,,,,,,,,,,,,,,,,,,,,,,,,,,,,,,,,,,,,,,,,,,,,,,,,,,,,,,,,,,,,,,,
,,"[""period""]",0,[0.84699999999998],113,0,113,0,1,5f9aba6600cdf11f1c9b915c,24,Mężczyzna,2022-06-04_09h10.13.519,task,2021.1.4,Win32,49.94755507,628b806c463b948bc644b84f,629af770de72fc6a8330486c,,,,,,,,,,,,,,,,,,,,,,,,,,,,,,,,,,,,,,,,,,,,,,,,,,,,,,,,,,,,,,,,,,,,,,,,,,,,,,,,,,,,,,,,,,,,,,,,,,,,,,,
,,"[""comma""]",0,[0.860399999856952],114,0,114,0,1,5f9aba6600cdf11f1c9b915c,24,Mężczyzna,2022-06-04_09h10.13.519,task,2021.1.4,Win32,49.94755507,628b806c463b948bc644b84f,629af770de72fc6a8330486c,,,,,,,,,,,,,,,,,,,,,,,,,,,,,,,,,,,,,,,,,,,,,,,,,,,,,,,,,,,,,,,,,,,,,,,,,,,,,,,,,,,,,,,,,,,,,,,,,,,,,,,
,,"[""period""]",0,[0.9400999999046178],115,0,115,0,1,5f9aba6600cdf11f1c9b915c,24,Mężczyzna,2022-06-04_09h10.13.519,task,2021.1.4,Win32,49.94755507,628b806c463b948bc644b84f,629af770de72fc6a8330486c,,,,,,,,,,,,,,,,,,,,,,,,,,,,,,,,,,,,,,,,,,,,,,,,,,,,,,,,,,,,,,,,,,,,,,,,,,,,,,,,,,,,,,,,,,,,,,,,,,,,,,,
,,"[""period""]",0,[1.1826000001430543],116,0,116,0,1,5f9aba6600cdf11f1c9b915c,24,Mężczyzna,2022-06-04_09h10.13.519,task,2021.1.4,Win32,49.94755507,628b806c463b948bc644b84f,629af770de72fc6a8330486c,,,,,,,,,,,,,,,,,,,,,,,,,,,,,,,,,,,,,,,,,,,,,,,,,,,,,,,,,,,,,,,,,,,,,,,,,,,,,,,,,,,,,,,,,,,,,,,,,,,,,,,
,,"[""comma""]",0,[1.1256000001430664],117,0,117,0,1,5f9aba6600cdf11f1c9b915c,24,Mężczyzna,2022-06-04_09h10.13.519,task,2021.1.4,Win32,49.94755507,628b806c463b948bc644b84f,629af770de72fc6a8330486c,,,,,,,,,,,,,,,,,,,,,,,,,,,,,,,,,,,,,,,,,,,,,,,,,,,,,,,,,,,,,,,,,,,,,,,,,,,,,,,,,,,,,,,,,,,,,,,,,,,,,,,
,,"[""period""]",0,[0.4322999999523063],118,0,118,0,1,5f9aba6600cdf11f1c9b915c,24,Mężczyzna,2022-06-04_09h10.13.519,task,2021.1.4,Win32,49.94755507,628b806c463b948bc644b84f,629af770de72fc6a8330486c,,,,,,,,,,,,,,,,,,,,,,,,,,,,,,,,,,,,,,,,,,,,,,,,,,,,,,,,,,,,,,,,,,,,,,,,,,,,,,,,,,,,,,,,,,,,,,,,,,,,,,,
,,"[""comma""]",0,[1.3013999998569261],119,0,119,0,1,5f9aba6600cdf11f1c9b915c,24,Mężczyzna,2022-06-04_09h10.13.519,task,2021.1.4,Win32,49.94755507,628b806c463b948bc644b84f,629af770de72fc6a8330486c,,,,,,,,,,,,,,,,,,,,,,,,,,,,,,,,,,,,,,,,,,,,,,,,,,,,,,,,,,,,,,,,,,,,,,,,,,,,,,,,,,,,,,,,,,,,,,,,,,,,,,,
,,,,,,,,,,5f9aba6600cdf11f1c9b915c,24,Mężczyzna,2022-06-04_09h10.13.519,task,2021.1.4,Win32,49.94755507,628b806c463b948bc644b84f,629af770de72fc6a8330486c,space,53.8115,space,0.0298,0,0,0,0,1,X V Q F H G B L J M P D K C T S W R N Z,,,,,,,,,,,,,,,,,,,,,,,,,,,,,,,,,,,,,,,,,,,,,,,,,,,,,,,,,,,,,,,,,,,,,,,,,,,,,,,,,,,,,,,,,,,,,
,,,,,,,,,,5f9aba6600cdf11f1c9b915c,24,Mężczyzna,2022-06-04_09h10.13.519,task,2021.1.4,Win32,49.94755507,628b806c463b948bc644b84f,629af770de72fc6a8330486c,,,,,1,0,1,0,1,X V Q F H G B L J M P D K C T S W R N Z,,,,,,,,,,,,,,,,,,,,,,,,,,,,,,,,,,,,,,,,,,,,,,,,,,,,,,,,,,,,,,,,,,,,,,,,,,,,,,,,,,,,,,,,,,,,,
,,,,,,,,,,5f9aba6600cdf11f1c9b915c,24,Mężczyzna,2022-06-04_09h10.13.519,task,2021.1.4,Win32,49.94755507,628b806c463b948bc644b84f,629af770de72fc6a8330486c,,,,,,,,,,,zj,"[""z"",""j""]","[0.5794000000953474,0.628300000190734,1.1616000001430393]",1,ZJ,0,0,0,0,1,,,,,,,,,,,,,,,,,,,,,,,,,,,,,,,,,,,,,,,,,,,,,,,,,,,,,,,,,,,,,,,,,,,,,,,,,,,,,,,,,,,
,,,,,,,,,,5f9aba6600cdf11f1c9b915c,24,Mężczyzna,2022-06-04_09h10.13.519,task,2021.1.4,Win32,49.94755507,628b806c463b948bc644b84f,629af770de72fc6a8330486c,,,,,0,0,0,0,1,X V Q F H G B L J M P D K C T S W R N Z,,,,,,,,,,,,,,,,,,,,,,,,,,,,,,,,,,,,,,,,,,,,,,,,,,,,,,,,,,,,,,,,,,,,,,,,,,,,,,,,,,,,,,,,,,,,,
,,,,,,,,,,5f9aba6600cdf11f1c9b915c,24,Mężczyzna,2022-06-04_09h10.13.519,task,2021.1.4,Win32,49.94755507,628b806c463b948bc644b84f,629af770de72fc6a8330486c,,,,,1,0,1,0,1,X V Q F H G B L J M P D K C T S W R N Z,,,,,,,,,,,,,,,,,,,,,,,,,,,,,,,,,,,,,,,,,,,,,,,,,,,,,,,,,,,,,,,,,,,,,,,,,,,,,,,,,,,,,,,,,,,,,
,,,,,,,,,,5f9aba6600cdf11f1c9b915c,24,Mężczyzna,2022-06-04_09h10.13.519,task,2021.1.4,Win32,49.94755507,628b806c463b948bc644b84f,629af770de72fc6a8330486c,,,,,,,,,,,mj,"[""m"",""j""]","[0.46839999985695613,0.6498999998569843,0.8596999998092656]",1,MJ,1,0,1,0,1,,,,,,,,,,,,,,,,,,,,,,,,,,,,,,,,,,,,,,,,,,,,,,,,,,,,,,,,,,,,,,,,,,,,,,,,,,,,,,,,,,,
,,,,,,,,,,5f9aba6600cdf11f1c9b915c,24,Mężczyzna,2022-06-04_09h10.13.519,task,2021.1.4,Win32,49.94755507,628b806c463b948bc644b84f,629af770de72fc6a8330486c,,,,,0,0,0,0,1,X V Q F H G B L J M P D K C T S W R N Z,,,,,,,,,,,,,,,,,,,,,,,,,,,,,,,,,,,,,,,,,,,,,,,,,,,,,,,,,,,,,,,,,,,,,,,,,,,,,,,,,,,,,,,,,,,,,
,,,,,,,,,,5f9aba6600cdf11f1c9b915c,24,Mężczyzna,2022-06-04_09h10.13.519,task,2021.1.4,Win32,49.94755507,628b806c463b948bc644b84f,629af770de72fc6a8330486c,,,,,1,0,1,0,1,X V Q F H G B L J M P D K C T S W R N Z,,,,,,,,,,,,,,,,,,,,,,,,,,,,,,,,,,,,,,,,,,,,,,,,,,,,,,,,,,,,,,,,,,,,,,,,,,,,,,,,,,,,,,,,,,,,,
,,,,,,,,,,5f9aba6600cdf11f1c9b915c,24,Mężczyzna,2022-06-04_09h10.13.519,task,2021.1.4,Win32,49.94755507,628b806c463b948bc644b84f,629af770de72fc6a8330486c,,,,,2,0,2,0,1,X V Q F H G B L J M P D K C T S W R N Z,,,,,,,,,,,,,,,,,,,,,,,,,,,,,,,,,,,,,,,,,,,,,,,,,,,,,,,,,,,,,,,,,,,,,,,,,,,,,,,,,,,,,,,,,,,,,
,,,,,,,,,,5f9aba6600cdf11f1c9b915c,24,Mężczyzna,2022-06-04_09h10.13.519,task,2021.1.4,Win32,49.94755507,628b806c463b948bc644b84f,629af770de72fc6a8330486c,,,,,,,,,,,qjh,"[""q"",""j"",""h""]","[0.4191999998092797,0.560299999952349,0.6991999998093092,0.9268999998569711]",1,QJH,2,0,2,0,1,,,,,,,,,,,,,,,,,,,,,,,,,,,,,,,,,,,,,,,,,,,,,,,,,,,,,,,,,,,,,,,,,,,,,,,,,,,,,,,,,,,
,,,,,,,,,,5f9aba6600cdf11f1c9b915c,24,Mężczyzna,2022-06-04_09h10.13.519,task,2021.1.4,Win32,49.94755507,628b806c463b948bc644b84f,629af770de72fc6a8330486c,,,,,0,0,0,0,1,X V Q F H G B L J M P D K C T S W R N Z,,,,,,,,,,,,,,,,,,,,,,,,,,,,,,,,,,,,,,,,,,,,,,,,,,,,,,,,,,,,,,,,,,,,,,,,,,,,,,,,,,,,,,,,,,,,,
,,,,,,,,,,5f9aba6600cdf11f1c9b915c,24,Mężczyzna,2022-06-04_09h10.13.519,task,2021.1.4,Win32,49.94755507,628b806c463b948bc644b84f,629af770de72fc6a8330486c,,,,,1,0,1,0,1,X V Q F H G B L J M P D K C T S W R N Z,,,,,,,,,,,,,,,,,,,,,,,,,,,,,,,,,,,,,,,,,,,,,,,,,,,,,,,,,,,,,,,,,,,,,,,,,,,,,,,,,,,,,,,,,,,,,
,,,,,,,,,,5f9aba6600cdf11f1c9b915c,24,Mężczyzna,2022-06-04_09h10.13.519,task,2021.1.4,Win32,49.94755507,628b806c463b948bc644b84f,629af770de72fc6a8330486c,,,,,2,0,2,0,1,X V Q F H G B L J M P D K C T S W R N Z,,,,,,,,,,,,,,,,,,,,,,,,,,,,,,,,,,,,,,,,,,,,,,,,,,,,,,,,,,,,,,,,,,,,,,,,,,,,,,,,,,,,,,,,,,,,,
,,,,,,,,,,5f9aba6600cdf11f1c9b915c,24,Mężczyzna,2022-06-04_09h10.13.519,task,2021.1.4,Win32,49.94755507,628b806c463b948bc644b84f,629af770de72fc6a8330486c,,,,,,,,,,,hqw,"[""h"",""q"",""w""]","[0.40609999990459755,0.5082000000476796,0.6087999999522822,0.7527999999522876]",1,HQW,3,0,3,0,1,,,,,,,,,,,,,,,,,,,,,,,,,,,,,,,,,,,,,,,,,,,,,,,,,,,,,,,,,,,,,,,,,,,,,,,,,,,,,,,,,,,
,,,,,,,,,,5f9aba6600cdf11f1c9b915c,24,Mężczyzna,2022-06-04_09h10.13.519,task,2021.1.4,Win32,49.94755507,628b806c463b948bc644b84f,629af770de72fc6a8330486c,,,,,0,0,0,0,1,X V Q F H G B L J M P D K C T S W R N Z,,,,,,,,,,,,,,,,,,,,,,,,,,,,,,,,,,,,,,,,,,,,,,,,,,,,,,,,,,,,,,,,,,,,,,,,,,,,,,,,,,,,,,,,,,,,,
,,,,,,,,,,5f9aba6600cdf11f1c9b915c,24,Mężczyzna,2022-06-04_09h10.13.519,task,2021.1.4,Win32,49.94755507,628b806c463b948bc644b84f,629af770de72fc6a8330486c,,,,,1,0,1,0,1,X V Q F H G B L J M P D K C T S W R N Z,,,,,,,,,,,,,,,,,,,,,,,,,,,,,,,,,,,,,,,,,,,,,,,,,,,,,,,,,,,,,,,,,,,,,,,,,,,,,,,,,,,,,,,,,,,,,
,,,,,,,,,,5f9aba6600cdf11f1c9b915c,24,Mężczyzna,2022-06-04_09h10.13.519,task,2021.1.4,Win32,49.94755507,628b806c463b948bc644b84f,629af770de72fc6a8330486c,,,,,2,0,2,0,1,X V Q F H G B L J M P D K C T S W R N Z,,,,,,,,,,,,,,,,,,,,,,,,,,,,,,,,,,,,,,,,,,,,,,,,,,,,,,,,,,,,,,,,,,,,,,,,,,,,,,,,,,,,,,,,,,,,,
,,,,,,,,,,5f9aba6600cdf11f1c9b915c,24,Mężczyzna,2022-06-04_09h10.13.519,task,2021.1.4,Win32,49.94755507,628b806c463b948bc644b84f,629af770de72fc6a8330486c,,,,,3,0,3,0,1,X V Q F H G B L J M P D K C T S W R N Z,,,,,,,,,,,,,,,,,,,,,,,,,,,,,,,,,,,,,,,,,,,,,,,,,,,,,,,,,,,,,,,,,,,,,,,,,,,,,,,,,,,,,,,,,,,,,
,,,,,,,,,,5f9aba6600cdf11f1c9b915c,24,Mężczyzna,2022-06-04_09h10.13.519,task,2021.1.4,Win32,49.94755507,628b806c463b948bc644b84f,629af770de72fc6a8330486c,,,,,,,,,,,hcpm,"[""h"",""c"",""p"",""m""]","[0.5870999999046376,0.8710999999046294,1.1029000000953602,1.4502999999522785,1.7294999999999732]",1,HCPM,4,0,4,0,1,,,,,,,,,,,,,,,,,,,,,,,,,,,,,,,,,,,,,,,,,,,,,,,,,,,,,,,,,,,,,,,,,,,,,,,,,,,,,,,,,,,
,,,,,,,,,,5f9aba6600cdf11f1c9b915c,24,Mężczyzna,2022-06-04_09h10.13.519,task,2021.1.4,Win32,49.94755507,628b806c463b948bc644b84f,629af770de72fc6a8330486c,,,,,0,0,0,0,1,X V Q F H G B L J M P D K C T S W R N Z,,,,,,,,,,,,,,,,,,,,,,,,,,,,,,,,,,,,,,,,,,,,,,,,,,,,,,,,,,,,,,,,,,,,,,,,,,,,,,,,,,,,,,,,,,,,,
,,,,,,,,,,5f9aba6600cdf11f1c9b915c,24,Mężczyzna,2022-06-04_09h10.13.519,task,2021.1.4,Win32,49.94755507,628b806c463b948bc644b84f,629af770de72fc6a8330486c,,,,,1,0,1,0,1,X V Q F H G B L J M P D K C T S W R N Z,,,,,,,,,,,,,,,,,,,,,,,,,,,,,,,,,,,,,,,,,,,,,,,,,,,,,,,,,,,,,,,,,,,,,,,,,,,,,,,,,,,,,,,,,,,,,
,,,,,,,,,,5f9aba6600cdf11f1c9b915c,24,Mężczyzna,2022-06-04_09h10.13.519,task,2021.1.4,Win32,49.94755507,628b806c463b948bc644b84f,629af770de72fc6a8330486c,,,,,2,0,2,0,1,X V Q F H G B L J M P D K C T S W R N Z,,,,,,,,,,,,,,,,,,,,,,,,,,,,,,,,,,,,,,,,,,,,,,,,,,,,,,,,,,,,,,,,,,,,,,,,,,,,,,,,,,,,,,,,,,,,,
,,,,,,,,,,5f9aba6600cdf11f1c9b915c,24,Mężczyzna,2022-06-04_09h10.13.519,task,2021.1.4,Win32,49.94755507,628b806c463b948bc644b84f,629af770de72fc6a8330486c,,,,,3,0,3,0,1,X V Q F H G B L J M P D K C T S W R N Z,,,,,,,,,,,,,,,,,,,,,,,,,,,,,,,,,,,,,,,,,,,,,,,,,,,,,,,,,,,,,,,,,,,,,,,,,,,,,,,,,,,,,,,,,,,,,
,,,,,,,,,,5f9aba6600cdf11f1c9b915c,24,Mężczyzna,2022-06-04_09h10.13.519,task,2021.1.4,Win32,49.94755507,628b806c463b948bc644b84f,629af770de72fc6a8330486c,,,,,,,,,,,jdgn,"[""j"",""d"",""g"",""n""]","[0.3994000000953406,0.5398000001907235,0.8177000000476369,0.9116000001430393,1.2306000001430561]",1,JDGN,5,0,5,0,1,,,,,,,,,,,,,,,,,,,,,,,,,,,,,,,,,,,,,,,,,,,,,,,,,,,,,,,,,,,,,,,,,,,,,,,,,,,,,,,,,,,
,,,,,,,,,,5f9aba6600cdf11f1c9b915c,24,Mężczyzna,2022-06-04_09h10.13.519,task,2021.1.4,Win32,49.94755507,628b806c463b948bc644b84f,629af770de72fc6a8330486c,,,,,0,0,0,0,1,X V Q F H G B L J M P D K C T S W R N Z,,,,,,,,,,,,,,,,,,,,,,,,,,,,,,,,,,,,,,,,,,,,,,,,,,,,,,,,,,,,,,,,,,,,,,,,,,,,,,,,,,,,,,,,,,,,,
,,,,,,,,,,5f9aba6600cdf11f1c9b915c,24,Mężczyzna,2022-06-04_09h10.13.519,task,2021.1.4,Win32,49.94755507,628b806c463b948bc644b84f,629af770de72fc6a8330486c,,,,,1,0,1,0,1,X V Q F H G B L J M P D K C T S W R N Z,,,,,,,,,,,,,,,,,,,,,,,,,,,,,,,,,,,,,,,,,,,,,,,,,,,,,,,,,,,,,,,,,,,,,,,,,,,,,,,,,,,,,,,,,,,,,
,,,,,,,,,,5f9aba6600cdf11f1c9b915c,24,Mężczyzna,2022-06-04_09h10.13.519,task,2021.1.4,Win32,49.94755507,628b806c463b948bc644b84f,629af770de72fc6a8330486c,,,,,2,0,2,0,1,X V Q F H G B L J M P D K C T S W R N Z,,,,,,,,,,,,,,,,,,,,,,,,,,,,,,,,,,,,,,,,,,,,,,,,,,,,,,,,,,,,,,,,,,,,,,,,,,,,,,,,,,,,,,,,,,,,,
,,,,,,,,,,5f9aba6600cdf11f1c9b915c,24,Mężczyzna,2022-06-04_09h10.13.519,task,2021.1.4,Win32,49.94755507,628b806c463b948bc644b84f,629af770de72fc6a8330486c,,,,,3,0,3,0,1,X V Q F H G B L J M P D K C T S W R N Z,,,,,,,,,,,,,,,,,,,,,,,,,,,,,,,,,,,,,,,,,,,,,,,,,,,,,,,,,,,,,,,,,,,,,,,,,,,,,,,,,,,,,,,,,,,,,
,,,,,,,,,,5f9aba6600cdf11f1c9b915c,24,Mężczyzna,2022-06-04_09h10.13.519,task,2021.1.4,Win32,49.94755507,628b806c463b948bc644b84f,629af770de72fc6a8330486c,,,,,4,0,4,0,1,X V Q F H G B L J M P D K C T S W R N Z,,,,,,,,,,,,,,,,,,,,,,,,,,,,,,,,,,,,,,,,,,,,,,,,,,,,,,,,,,,,,,,,,,,,,,,,,,,,,,,,,,,,,,,,,,,,,
,,,,,,,,,,5f9aba6600cdf11f1c9b915c,24,Mężczyzna,2022-06-04_09h10.13.519,task,2021.1.4,Win32,49.94755507,628b806c463b948bc644b84f,629af770de72fc6a8330486c,,,,,,,,,,,qhdnp,"[""q"",""h"",""d"",""n"",""p""]","[0.4737999999523481,0.6652000000477187,0.949299999952359,1.1595000000000368,1.4100999999046735,1.7835000000000036]",1,QHDNP,6,0,6,0,1,,,,,,,,,,,,,,,,,,,,,,,,,,,,,,,,,,,,,,,,,,,,,,,,,,,,,,,,,,,,,,,,,,,,,,,,,,,,,,,,,,,
,,,,,,,,,,5f9aba6600cdf11f1c9b915c,24,Mężczyzna,2022-06-04_09h10.13.519,task,2021.1.4,Win32,49.94755507,628b806c463b948bc644b84f,629af770de72fc6a8330486c,,,,,0,0,0,0,1,X V Q F H G B L J M P D K C T S W R N Z,,,,,,,,,,,,,,,,,,,,,,,,,,,,,,,,,,,,,,,,,,,,,,,,,,,,,,,,,,,,,,,,,,,,,,,,,,,,,,,,,,,,,,,,,,,,,
,,,,,,,,,,5f9aba6600cdf11f1c9b915c,24,Mężczyzna,2022-06-04_09h10.13.519,task,2021.1.4,Win32,49.94755507,628b806c463b948bc644b84f,629af770de72fc6a8330486c,,,,,1,0,1,0,1,X V Q F H G B L J M P D K C T S W R N Z,,,,,,,,,,,,,,,,,,,,,,,,,,,,,,,,,,,,,,,,,,,,,,,,,,,,,,,,,,,,,,,,,,,,,,,,,,,,,,,,,,,,,,,,,,,,,
,,,,,,,,,,5f9aba6600cdf11f1c9b915c,24,Mężczyzna,2022-06-04_09h10.13.519,task,2021.1.4,Win32,49.94755507,628b806c463b948bc644b84f,629af770de72fc6a8330486c,,,,,2,0,2,0,1,X V Q F H G B L J M P D K C T S W R N Z,,,,,,,,,,,,,,,,,,,,,,,,,,,,,,,,,,,,,,,,,,,,,,,,,,,,,,,,,,,,,,,,,,,,,,,,,,,,,,,,,,,,,,,,,,,,,
,,,,,,,,,,5f9aba6600cdf11f1c9b915c,24,Mężczyzna,2022-06-04_09h10.13.519,task,2021.1.4,Win32,49.94755507,628b806c463b948bc644b84f,629af770de72fc6a8330486c,,,,,3,0,3,0,1,X V Q F H G B L J M P D K C T S W R N Z,,,,,,,,,,,,,,,,,,,,,,,,,,,,,,,,,,,,,,,,,,,,,,,,,,,,,,,,,,,,,,,,,,,,,,,,,,,,,,,,,,,,,,,,,,,,,
,,,,,,,,,,5f9aba6600cdf11f1c9b915c,24,Mężczyzna,2022-06-04_09h10.13.519,task,2021.1.4,Win32,49.94755507,628b806c463b948bc644b84f,629af770de72fc6a8330486c,,,,,4,0,4,0,1,X V Q F H G B L J M P D K C T S W R N Z,,,,,,,,,,,,,,,,,,,,,,,,,,,,,,,,,,,,,,,,,,,,,,,,,,,,,,,,,,,,,,,,,,,,,,,,,,,,,,,,,,,,,,,,,,,,,
,,,,,,,,,,5f9aba6600cdf11f1c9b915c,24,Mężczyzna,2022-06-04_09h10.13.519,task,2021.1.4,Win32,49.94755507,628b806c463b948bc644b84f,629af770de72fc6a8330486c,,,,,,,,,,,xvxlc,"[""x"",""v"",""x"",""l"",""c""]","[0.6576999998092674,0.8380000000000223,1.2579999999999814,1.677500000000009,1.9801999998092583,2.1376999998092856]",1,XVXLC,7,0,7,0,1,,,,,,,,,,,,,,,,,,,,,,,,,,,,,,,,,,,,,,,,,,,,,,,,,,,,,,,,,,,,,,,,,,,,,,,,,,,,,,,,,,,
,,,,,,,,,,5f9aba6600cdf11f1c9b915c,24,Mężczyzna,2022-06-04_09h10.13.519,task,2021.1.4,Win32,49.94755507,628b806c463b948bc644b84f,629af770de72fc6a8330486c,,,,,0,0,0,0,1,X V Q F H G B L J M P D K C T S W R N Z,,,,,,,,,,,,,,,,,,,,,,,,,,,,,,,,,,,,,,,,,,,,,,,,,,,,,,,,,,,,,,,,,,,,,,,,,,,,,,,,,,,,,,,,,,,,,
,,,,,,,,,,5f9aba6600cdf11f1c9b915c,24,Mężczyzna,2022-06-04_09h10.13.519,task,2021.1.4,Win32,49.94755507,628b806c463b948bc644b84f,629af770de72fc6a8330486c,,,,,1,0,1,0,1,X V Q F H G B L J M P D K C T S W R N Z,,,,,,,,,,,,,,,,,,,,,,,,,,,,,,,,,,,,,,,,,,,,,,,,,,,,,,,,,,,,,,,,,,,,,,,,,,,,,,,,,,,,,,,,,,,,,
,,,,,,,,,,5f9aba6600cdf11f1c9b915c,24,Mężczyzna,2022-06-04_09h10.13.519,task,2021.1.4,Win32,49.94755507,628b806c463b948bc644b84f,629af770de72fc6a8330486c,,,,,2,0,2,0,1,X V Q F H G B L J M P D K C T S W R N Z,,,,,,,,,,,,,,,,,,,,,,,,,,,,,,,,,,,,,,,,,,,,,,,,,,,,,,,,,,,,,,,,,,,,,,,,,,,,,,,,,,,,,,,,,,,,,
,,,,,,,,,,5f9aba6600cdf11f1c9b915c,24,Mężczyzna,2022-06-04_09h10.13.519,task,2021.1.4,Win32,49.94755507,628b806c463b948bc644b84f,629af770de72fc6a8330486c,,,,,3,0,3,0,1,X V Q F H G B L J M P D K C T S W R N Z,,,,,,,,,,,,,,,,,,,,,,,,,,,,,,,,,,,,,,,,,,,,,,,,,,,,,,,,,,,,,,,,,,,,,,,,,,,,,,,,,,,,,,,,,,,,,
,,,,,,,,,,5f9aba6600cdf11f1c9b915c,24,Mężczyzna,2022-06-04_09h10.13.519,task,2021.1.4,Win32,49.94755507,628b806c463b948bc644b84f,629af770de72fc6a8330486c,,,,,4,0,4,0,1,X V Q F H G B L J M P D K C T S W R N Z,,,,,,,,,,,,,,,,,,,,,,,,,,,,,,,,,,,,,,,,,,,,,,,,,,,,,,,,,,,,,,,,,,,,,,,,,,,,,,,,,,,,,,,,,,,,,
,,,,,,,,,,5f9aba6600cdf11f1c9b915c,24,Mężczyzna,2022-06-04_09h10.13.519,task,2021.1.4,Win32,49.94755507,628b806c463b948bc644b84f,629af770de72fc6a8330486c,,,,,5,0,5,0,1,X V Q F H G B L J M P D K C T S W R N Z,,,,,,,,,,,,,,,,,,,,,,,,,,,,,,,,,,,,,,,,,,,,,,,,,,,,,,,,,,,,,,,,,,,,,,,,,,,,,,,,,,,,,,,,,,,,,
,,,,,,,,,,5f9aba6600cdf11f1c9b915c,24,Mężczyzna,2022-06-04_09h10.13.519,task,2021.1.4,Win32,49.94755507,628b806c463b948bc644b84f,629af770de72fc6a8330486c,,,,,,,,,,,jwmknk,"[""j"",""w"",""m"",""k"",""n"",""k""]","[0.369100000143078,0.5255000000000223,0.7480000000000473,1.377700000047696,1.597799999952315,1.723100000143063,2.0021000001430593]",0,JWMNKN,8,0,8,0,1,,,,,,,,,,,,,,,,,,,,,,,,,,,,,,,,,,,,,,,,,,,,,,,,,,,,,,,,,,,,,,,,,,,,,,,,,,,,,,,,,,,
,,,,,,,,,,5f9aba6600cdf11f1c9b915c,24,Mężczyzna,2022-06-04_09h10.13.519,task,2021.1.4,Win32,49.94755507,628b806c463b948bc644b84f,629af770de72fc6a8330486c,,,,,0,0,0,0,1,X V Q F H G B L J M P D K C T S W R N Z,,,,,,,,,,,,,,,,,,,,,,,,,,,,,,,,,,,,,,,,,,,,,,,,,,,,,,,,,,,,,,,,,,,,,,,,,,,,,,,,,,,,,,,,,,,,,
,,,,,,,,,,5f9aba6600cdf11f1c9b915c,24,Mężczyzna,2022-06-04_09h10.13.519,task,2021.1.4,Win32,49.94755507,628b806c463b948bc644b84f,629af770de72fc6a8330486c,,,,,1,0,1,0,1,X V Q F H G B L J M P D K C T S W R N Z,,,,,,,,,,,,,,,,,,,,,,,,,,,,,,,,,,,,,,,,,,,,,,,,,,,,,,,,,,,,,,,,,,,,,,,,,,,,,,,,,,,,,,,,,,,,,
,,,,,,,,,,5f9aba6600cdf11f1c9b915c,24,Mężczyzna,2022-06-04_09h10.13.519,task,2021.1.4,Win32,49.94755507,628b806c463b948bc644b84f,629af770de72fc6a8330486c,,,,,2,0,2,0,1,X V Q F H G B L J M P D K C T S W R N Z,,,,,,,,,,,,,,,,,,,,,,,,,,,,,,,,,,,,,,,,,,,,,,,,,,,,,,,,,,,,,,,,,,,,,,,,,,,,,,,,,,,,,,,,,,,,,
,,,,,,,,,,5f9aba6600cdf11f1c9b915c,24,Mężczyzna,2022-06-04_09h10.13.519,task,2021.1.4,Win32,49.94755507,628b806c463b948bc644b84f,629af770de72fc6a8330486c,,,,,3,0,3,0,1,X V Q F H G B L J M P D K C T S W R N Z,,,,,,,,,,,,,,,,,,,,,,,,,,,,,,,,,,,,,,,,,,,,,,,,,,,,,,,,,,,,,,,,,,,,,,,,,,,,,,,,,,,,,,,,,,,,,
,,,,,,,,,,5f9aba6600cdf11f1c9b915c,24,Mężczyzna,2022-06-04_09h10.13.519,task,2021.1.4,Win32,49.94755507,628b806c463b948bc644b84f,629af770de72fc6a8330486c,,,,,4,0,4,0,1,X V Q F H G B L J M P D K C T S W R N Z,,,,,,,,,,,,,,,,,,,,,,,,,,,,,,,,,,,,,,,,,,,,,,,,,,,,,,,,,,,,,,,,,,,,,,,,,,,,,,,,,,,,,,,,,,,,,
,,,,,,,,,,5f9aba6600cdf11f1c9b915c,24,Mężczyzna,2022-06-04_09h10.13.519,task,2021.1.4,Win32,49.94755507,628b806c463b948bc644b84f,629af770de72fc6a8330486c,,,,,5,0,5,0,1,X V Q F H G B L J M P D K C T S W R N Z,,,,,,,,,,,,,,,,,,,,,,,,,,,,,,,,,,,,,,,,,,,,,,,,,,,,,,,,,,,,,,,,,,,,,,,,,,,,,,,,,,,,,,,,,,,,,
,,,,,,,,,,5f9aba6600cdf11f1c9b915c,24,Mężczyzna,2022-06-04_09h10.13.519,task,2021.1.4,Win32,49.94755507,628b806c463b948bc644b84f,629af770de72fc6a8330486c,,,,,,,,,,,qhshxr,"[""q"",""h"",""s"",""h"",""x"",""r""]","[0.4190999999046312,0.6644000000953838,0.8794000000953588,1.0392000000476855,1.5660999999046226,1.999200000047665,18.54209999990462]",1,QHSHXR,9,0,9,0,1,,,,,,,,,,,,,,,,,,,,,,,,,,,,,,,,,,,,,,,,,,,,,,,,,,,,,,,,,,,,,,,,,,,,,,,,,,,,,,,,,,,
,,,,,,,,,,5f9aba6600cdf11f1c9b915c,24,Mężczyzna,2022-06-04_09h10.13.519,task,2021.1.4,Win32,49.94755507,628b806c463b948bc644b84f,629af770de72fc6a8330486c,,,,,0,0,0,0,1,X V Q F H G B L J M P D K C T S W R N Z,,,,,,,,,,,,,,,,,,,,,,,,,,,,,,,,,,,,,,,,,,,,,,,,,,,,,,,,,,,,,,,,,,,,,,,,,,,,,,,,,,,,,,,,,,,,,
,,,,,,,,,,5f9aba6600cdf11f1c9b915c,24,Mężczyzna,2022-06-04_09h10.13.519,task,2021.1.4,Win32,49.94755507,628b806c463b948bc644b84f,629af770de72fc6a8330486c,,,,,1,0,1,0,1,X V Q F H G B L J M P D K C T S W R N Z,,,,,,,,,,,,,,,,,,,,,,,,,,,,,,,,,,,,,,,,,,,,,,,,,,,,,,,,,,,,,,,,,,,,,,,,,,,,,,,,,,,,,,,,,,,,,
,,,,,,,,,,5f9aba6600cdf11f1c9b915c,24,Mężczyzna,2022-06-04_09h10.13.519,task,2021.1.4,Win32,49.94755507,628b806c463b948bc644b84f,629af770de72fc6a8330486c,,,,,2,0,2,0,1,X V Q F H G B L J M P D K C T S W R N Z,,,,,,,,,,,,,,,,,,,,,,,,,,,,,,,,,,,,,,,,,,,,,,,,,,,,,,,,,,,,,,,,,,,,,,,,,,,,,,,,,,,,,,,,,,,,,
,,,,,,,,,,5f9aba6600cdf11f1c9b915c,24,Mężczyzna,2022-06-04_09h10.13.519,task,2021.1.4,Win32,49.94755507,628b806c463b948bc644b84f,629af770de72fc6a8330486c,,,,,3,0,3,0,1,X V Q F H G B L J M P D K C T S W R N Z,,,,,,,,,,,,,,,,,,,,,,,,,,,,,,,,,,,,,,,,,,,,,,,,,,,,,,,,,,,,,,,,,,,,,,,,,,,,,,,,,,,,,,,,,,,,,
,,,,,,,,,,5f9aba6600cdf11f1c9b915c,24,Mężczyzna,2022-06-04_09h10.13.519,task,2021.1.4,Win32,49.94755507,628b806c463b948bc644b84f,629af770de72fc6a8330486c,,,,,4,0,4,0,1,X V Q F H G B L J M P D K C T S W R N Z,,,,,,,,,,,,,,,,,,,,,,,,,,,,,,,,,,,,,,,,,,,,,,,,,,,,,,,,,,,,,,,,,,,,,,,,,,,,,,,,,,,,,,,,,,,,,
,,,,,,,,,,5f9aba6600cdf11f1c9b915c,24,Mężczyzna,2022-06-04_09h10.13.519,task,2021.1.4,Win32,49.94755507,628b806c463b948bc644b84f,629af770de72fc6a8330486c,,,,,5,0,5,0,1,X V Q F H G B L J M P D K C T S W R N Z,,,,,,,,,,,,,,,,,,,,,,,,,,,,,,,,,,,,,,,,,,,,,,,,,,,,,,,,,,,,,,,,,,,,,,,,,,,,,,,,,,,,,,,,,,,,,
,,,,,,,,,,5f9aba6600cdf11f1c9b915c,24,Mężczyzna,2022-06-04_09h10.13.519,task,2021.1.4,Win32,49.94755507,628b806c463b948bc644b84f,629af770de72fc6a8330486c,,,,,,,,,,,ldcrjq,"[""l"",""d"",""c"",""r"",""j"",""q""]","[0.5115999999046608,0.6792999999523204,0.793599999904643,1.2934999999999945,1.4117999999523363,1.8304000000953806,2.3269000000953497]",0,LDCJMQ,10,0,10,0,1,,,,,,,,,,,,,,,,,,,,,,,,,,,,,,,,,,,,,,,,,,,,,,,,,,,,,,,,,,,,,,,,,,,,,,,,,,,,,,,,,,,
,,,,,,,,,,5f9aba6600cdf11f1c9b915c,24,Mężczyzna,2022-06-04_09h10.13.519,task,2021.1.4,Win32,49.94755507,628b806c463b948bc644b84f,629af770de72fc6a8330486c,,,,,0,0,0,0,1,X V Q F H G B L J M P D K C T S W R N Z,,,,,,,,,,,,,,,,,,,,,,,,,,,,,,,,,,,,,,,,,,,,,,,,,,,,,,,,,,,,,,,,,,,,,,,,,,,,,,,,,,,,,,,,,,,,,
,,,,,,,,,,5f9aba6600cdf11f1c9b915c,24,Mężczyzna,2022-06-04_09h10.13.519,task,2021.1.4,Win32,49.94755507,628b806c463b948bc644b84f,629af770de72fc6a8330486c,,,,,1,0,1,0,1,X V Q F H G B L J M P D K C T S W R N Z,,,,,,,,,,,,,,,,,,,,,,,,,,,,,,,,,,,,,,,,,,,,,,,,,,,,,,,,,,,,,,,,,,,,,,,,,,,,,,,,,,,,,,,,,,,,,
,,,,,,,,,,5f9aba6600cdf11f1c9b915c,24,Mężczyzna,2022-06-04_09h10.13.519,task,2021.1.4,Win32,49.94755507,628b806c463b948bc644b84f,629af770de72fc6a8330486c,,,,,2,0,2,0,1,X V Q F H G B L J M P D K C T S W R N Z,,,,,,,,,,,,,,,,,,,,,,,,,,,,,,,,,,,,,,,,,,,,,,,,,,,,,,,,,,,,,,,,,,,,,,,,,,,,,,,,,,,,,,,,,,,,,
,,,,,,,,,,5f9aba6600cdf11f1c9b915c,24,Mężczyzna,2022-06-04_09h10.13.519,task,2021.1.4,Win32,49.94755507,628b806c463b948bc644b84f,629af770de72fc6a8330486c,,,,,3,0,3,0,1,X V Q F H G B L J M P D K C T S W R N Z,,,,,,,,,,,,,,,,,,,,,,,,,,,,,,,,,,,,,,,,,,,,,,,,,,,,,,,,,,,,,,,,,,,,,,,,,,,,,,,,,,,,,,,,,,,,,
,,,,,,,,,,5f9aba6600cdf11f1c9b915c,24,Mężczyzna,2022-06-04_09h10.13.519,task,2021.1.4,Win32,49.94755507,628b806c463b948bc644b84f,629af770de72fc6a8330486c,,,,,4,0,4,0,1,X V Q F H G B L J M P D K C T S W R N Z,,,,,,,,,,,,,,,,,,,,,,,,,,,,,,,,,,,,,,,,,,,,,,,,,,,,,,,,,,,,,,,,,,,,,,,,,,,,,,,,,,,,,,,,,,,,,
,,,,,,,,,,5f9aba6600cdf11f1c9b915c,24,Mężczyzna,2022-06-04_09h10.13.519,task,2021.1.4,Win32,49.94755507,628b806c463b948bc644b84f,629af770de72fc6a8330486c,,,,,5,0,5,0,1,X V Q F H G B L J M P D K C T S W R N Z,,,,,,,,,,,,,,,,,,,,,,,,,,,,,,,,,,,,,,,,,,,,,,,,,,,,,,,,,,,,,,,,,,,,,,,,,,,,,,,,,,,,,,,,,,,,,
,,,,,,,,,,5f9aba6600cdf11f1c9b915c,24,Mężczyzna,2022-06-04_09h10.13.519,task,2021.1.4,Win32,49.94755507,628b806c463b948bc644b84f,629af770de72fc6a8330486c,,,,,,,,,,,xpkxks,"[""x"",""p"",""k"",""x"",""k"",""s""]","[0.43070000004769327,0.5725999999046394,0.7194000000953906,1.1105000000000018,1.231099999904643,3.44340000009538,95.65779999995232]",0,XPXKPS,11,0,11,0,1,,,,,,,,,,,,,,,,,,,,,,,,,,,,,,,,,,,,,,,,,,,,,,,,,,,,,,,,,,,,,,,,,,,,,,,,,,,,,,,,,,,
,,,,,,,,,,5f9aba6600cdf11f1c9b915c,24,Mężczyzna,2022-06-04_09h10.13.519,task,2021.1.4,Win32,49.94755507,628b806c463b948bc644b84f,629af770de72fc6a8330486c,,,,,,,,,,,,,,,,,,,,,space,3.8137,9,"[""9""]",1,[1.4652999999523217],[1.4652999999523217],0,0,0,9,1,Practice,10,(20/2) - 1,9,,,,,,,,,,,,,,,,,,,,,,,,,,,,,,,,,,,,,,,,,,,,,,,,,,,,,,,,,,,,,,,,,,,
,,,,,,,,,,5f9aba6600cdf11f1c9b915c,24,Mężczyzna,2022-06-04_09h10.13.519,task,2021.1.4,Win32,49.94755507,628b806c463b948bc644b84f,629af770de72fc6a8330486c,,,,,,,,,,,,,,,,,,,,,,,6,"[""6""]",1,[1.5585999999046862],"[1.4652999999523217,1.5585999999046862]",0,1,1,6,1,Practice,7,(25/5) + 1,6,,,,,,,,,,,,,,,,,,,,,,,,,,,,,,,,,,,,,,,,,,,,,,,,,,,,,,,,,,,,,,,,,,,
,,,,,,,,,,5f9aba6600cdf11f1c9b915c,24,Mężczyzna,2022-06-04_09h10.13.519,task,2021.1.4,Win32,49.94755507,628b806c463b948bc644b84f,629af770de72fc6a8330486c,,,,,,,,,,,,,,,,,,,,,,,4,"[""4""]",1,[1.6939000000953683],"[1.4652999999523217,1.5585999999046862,1.6939000000953683]",0,2,2,4,1,Practice,5,(2x6) - 8,4,,,,,,,,,,,,,,,,,,,,,,,,,,,,,,,,,,,,,,,,,,,,,,,,,,,,,,,,,,,,,,,,,,,
,,,,,,,,,,5f9aba6600cdf11f1c9b915c,24,Mężczyzna,2022-06-04_09h10.13.519,task,2021.1.4,Win32,49.94755507,628b806c463b948bc644b84f,629af770de72fc6a8330486c,,,,,,,,,,,,,,,,,,,,,,,3,"[""3""]",1,[1.664799999952379],"[1.4652999999523217,1.5585999999046862,1.6939000000953683,1.664799999952379]",0,3,3,3,1,Practice,4,(8/4) + 1,3,,,,,,,,,,,,,,,,,,,,,,,,,,,,,,,,,,,,,,,,,,,,,,,,,,,,,,,,,,,,,,,,,,,
,,,,,,,,,,5f9aba6600cdf11f1c9b915c,24,Mężczyzna,2022-06-04_09h10.13.519,task,2021.1.4,Win32,49.94755507,628b806c463b948bc644b84f,629af770de72fc6a8330486c,,,,,,,,,,,,,,,,,,,,,,,0,"[""0""]",1,[1.7381000001430493],"[1.4652999999523217,1.5585999999046862,1.6939000000953683,1.664799999952379,1.7381000001430493]",0,4,4,0,1,Practice,1,(3x3) -  9,0,,,,,,,,,,,,,,,,,,,,,,,,,,,,,,,,,,,,,,,,,,,,,,,,,,,,,,,,,,,,,,,,,,,
,,,,,,,,,,5f9aba6600cdf11f1c9b915c,24,Mężczyzna,2022-06-04_09h10.13.519,task,2021.1.4,Win32,49.94755507,628b806c463b948bc644b84f,629af770de72fc6a8330486c,,,,,,,,,,,,,,,,,,,,,,,8,"[""8""]",1,[1.3457000000477137],"[1.4652999999523217,1.5585999999046862,1.6939000000953683,1.664799999952379,1.7381000001430493,1.3457000000477137]",0,5,5,8,1,Practice,9,(3x3) - 1,8,,,,,,,,,,,,,,,,,,,,,,,,,,,,,,,,,,,,,,,,,,,,,,,,,,,,,,,,,,,,,,,,,,,
,,,,,,,,,,5f9aba6600cdf11f1c9b915c,24,Mężczyzna,2022-06-04_09h10.13.519,task,2021.1.4,Win32,49.94755507,628b806c463b948bc644b84f,629af770de72fc6a8330486c,,,,,,,,,,,,,,,,,,,,,,,2,"[""2""]",1,[1.6707999999522372],"[1.4652999999523217,1.5585999999046862,1.6939000000953683,1.664799999952379,1.7381000001430493,1.3457000000477137,1.6707999999522372]",0,6,6,2,1,Practice,3,(4x4) - 14,2,,,,,,,,,,,,,,,,,,,,,,,,,,,,,,,,,,,,,,,,,,,,,,,,,,,,,,,,,,,,,,,,,,,
,,,,,,,,,,5f9aba6600cdf11f1c9b915c,24,Mężczyzna,2022-06-04_09h10.13.519,task,2021.1.4,Win32,49.94755507,628b806c463b948bc644b84f,629af770de72fc6a8330486c,,,,,,,,,,,,,,,,,,,,,,,5,"[""5""]",1,[1.9593999998569416],"[1.4652999999523217,1.5585999999046862,1.6939000000953683,1.664799999952379,1.7381000001430493,1.3457000000477137,1.6707999999522372,1.9593999998569416]",0,7,7,5,1,Practice,6,(4/2) + 3,5,,,,,,,,,,,,,,,,,,,,,,,,,,,,,,,,,,,,,,,,,,,,,,,,,,,,,,,,,,,,,,,,,,,
,,,,,,,,,,5f9aba6600cdf11f1c9b915c,24,Mężczyzna,2022-06-04_09h10.13.519,task,2021.1.4,Win32,49.94755507,628b806c463b948bc644b84f,629af770de72fc6a8330486c,,,,,,,,,,,,,,,,,,,,,,,1,"[""1""]",1,[1.1787999999522754],"[1.4652999999523217,1.5585999999046862,1.6939000000953683,1.664799999952379,1.7381000001430493,1.3457000000477137,1.6707999999522372,1.9593999998569416,1.1787999999522754]",0,8,8,1,1,Practice,2,(4x4) - 15,1,,,,,,,,,,,,,,,,,,,,,,,,,,,,,,,,,,,,,,,,,,,,,,,,,,,,,,,,,,,,,,,,,,,
,,,,,,,,,,5f9aba6600cdf11f1c9b915c,24,Mężczyzna,2022-06-04_09h10.13.519,task,2021.1.4,Win32,49.94755507,628b806c463b948bc644b84f,629af770de72fc6a8330486c,,,,,,,,,,,,,,,,,,,,,,,7,"[""7""]",1,[1.5634999999999764],"[1.4652999999523217,1.5585999999046862,1.6939000000953683,1.664799999952379,1.7381000001430493,1.3457000000477137,1.6707999999522372,1.9593999998569416,1.1787999999522754,1.5634999999999764]",0,9,9,7,1,Practice,8,(5x5) - 18,7,,,,,,,,,,,,,,,,,,,,,,,,,,,,,,,,,,,,,,,,,,,,,,,,,,,,,,,,,,,,,,,,,,,
,,,,,,,,,,5f9aba6600cdf11f1c9b915c,24,Mężczyzna,2022-06-04_09h10.13.519,task,2021.1.4,Win32,49.94755507,628b806c463b948bc644b84f,629af770de72fc6a8330486c,,,,,,,,,,,,,,,,,,,,,,,,,,,,,,,,,,,,,1,15.8389,1.055926667,3.214394582,0.462917889,2.250254821,space,4.6649,0,0,0,0,1,,,,,,,,,,,,,,,,,,,,,,,,,,,,,,,,,,,,,,,,,,,,,,,,,,,,,,
,,,,,,,,,,5f9aba6600cdf11f1c9b915c,24,Mężczyzna,2022-06-04_09h10.13.519,task,2021.1.4,Win32,49.94755507,628b806c463b948bc644b84f,629af770de72fc6a8330486c,,,,,,,,,,,,,,,,,,,,,,,6,,,,,,,,,,Practice,7,(25/5) + 1,6,,,,,,,,,,,,,,space,1.2342,"[""6""]",1,[1.4213999998569307],1,0,0,0,6,1,,,,,,,,,,,,,,,,,,,,,,,,,,,,,,,,,,,,,,,,,,,
,,,,,,,,,,5f9aba6600cdf11f1c9b915c,24,Mężczyzna,2022-06-04_09h10.13.519,task,2021.1.4,Win32,49.94755507,628b806c463b948bc644b84f,629af770de72fc6a8330486c,,,,,,,,,,X V Q F H G B L J M P D K C T S W R N Z,,,,,,,,,,,,,,,,,,,,,,,,,,,,,,,,,,,,,,,,,,,,,,,,,,,0,0,0,0,1,,,,,,,,,,,,,,,,,,,,,,,,,,,,,,,,,,,,,,
,,,,,,,,,,5f9aba6600cdf11f1c9b915c,24,Mężczyzna,2022-06-04_09h10.13.519,task,2021.1.4,Win32,49.94755507,628b806c463b948bc644b84f,629af770de72fc6a8330486c,,,,,,,,,,,,,,,,,,,,,,,3,,,,,,,,,,Practice,4,(8/4) + 1,3,,,,,,,,,,,,,,,,"[""3""]",1,[1.6187000000476246],1,0,0,0,3,1,,,,,,,,,,,,,,,,,,,,,,,,,,,,,,,,,,,,,,,,,,,
,,,,,,,,,,5f9aba6600cdf11f1c9b915c,24,Mężczyzna,2022-06-04_09h10.13.519,task,2021.1.4,Win32,49.94755507,628b806c463b948bc644b84f,629af770de72fc6a8330486c,,,,,,,,,,X V Q F H G B L J M P D K C T S W R N Z,,,,,,,,,,,,,,,,,,,,,,,,,,,,,,,,,,,,,,,,,,,,,,,,,,,1,0,1,0,1,,,,,,,,,,,,,,,,,,,,,,,,,,,,,,,,,,,,,,
,,,,,,,,,,5f9aba6600cdf11f1c9b915c,24,Mężczyzna,2022-06-04_09h10.13.519,task,2021.1.4,Win32,49.94755507,628b806c463b948bc644b84f,629af770de72fc6a8330486c,,,,,,,,,,,,,,,,,,,,,,,,,,,,,,,,,,,,,,,,,,,,,,,,,,,,,,,,,,,,,,,,,,zc,"[""z"",""c""]",0,"[1.1600999999045598,1.262899999856927,1.4311999998092233]",1,0,0,0,0,1,,,,,,,,,,,,,,,,,,,,,,,,,,,,
,,,,,,,,,,5f9aba6600cdf11f1c9b915c,24,Mężczyzna,2022-06-04_09h10.13.519,task,2021.1.4,Win32,49.94755507,628b806c463b948bc644b84f,629af770de72fc6a8330486c,,,,,,,,,,,,,,,,,,,,,,,8,,,,,,,,,,Practice,9,(3x3) - 1,8,,,,,,,,,,,,,,,,"[""8""]",1,[1.1631000001430039],1,0,0,0,8,1,,,,,,,,,,,,,,,,,,,,,,,,,,,,,,,,,,,,,,,,,,,
,,,,,,,,,,5f9aba6600cdf11f1c9b915c,24,Mężczyzna,2022-06-04_09h10.13.519,task,2021.1.4,Win32,49.94755507,628b806c463b948bc644b84f,629af770de72fc6a8330486c,,,,,,,,,,X V Q F H G B L J M P D K C T S W R N Z,,,,,,,,,,,,,,,,,,,,,,,,,,,,,,,,,,,,,,,,,,,,,,,,,,,0,0,0,0,1,,,,,,,,,,,,,,,,,,,,,,,,,,,,,,,,,,,,,,
,,,,,,,,,,5f9aba6600cdf11f1c9b915c,24,Mężczyzna,2022-06-04_09h10.13.519,task,2021.1.4,Win32,49.94755507,628b806c463b948bc644b84f,629af770de72fc6a8330486c,,,,,,,,,,,,,,,,,,,,,,,4,,,,,,,,,,Practice,5,(2x6) - 8,4,,,,,,,,,,,,,,,,"[""4""]",1,[2.087199999809286],1,0,0,0,4,1,,,,,,,,,,,,,,,,,,,,,,,,,,,,,,,,,,,,,,,,,,,
,,,,,,,,,,5f9aba6600cdf11f1c9b915c,24,Mężczyzna,2022-06-04_09h10.13.519,task,2021.1.4,Win32,49.94755507,628b806c463b948bc644b84f,629af770de72fc6a8330486c,,,,,,,,,,X V Q F H G B L J M P D K C T S W R N Z,,,,,,,,,,,,,,,,,,,,,,,,,,,,,,,,,,,,,,,,,,,,,,,,,,,1,0,1,0,1,,,,,,,,,,,,,,,,,,,,,,,,,,,,,,,,,,,,,,
,,,,,,,,,,5f9aba6600cdf11f1c9b915c,24,Mężczyzna,2022-06-04_09h10.13.519,task,2021.1.4,Win32,49.94755507,628b806c463b948bc644b84f,629af770de72fc6a8330486c,,,,,,,,,,,,,,,,,,,,,,,,,,,,,,,,,,,,,,,,,,,,,,,,,,,,,,,,,,,,,,,,,,qh,"[""q"",""h""]",0,"[0.9612999999524163,1.0300000000000864,1.421599999904629]",1,1,0,1,0,1,,,,,,,,,,,,,,,,,,,,,,,,,,,,
,,,,,,,,,,5f9aba6600cdf11f1c9b915c,24,Mężczyzna,2022-06-04_09h10.13.519,task,2021.1.4,Win32,49.94755507,628b806c463b948bc644b84f,629af770de72fc6a8330486c,,,,,,,,,,,,,,,,,,,,,,,5,,,,,,,,,,Practice,6,(4/2) + 3,5,,,,,,,,,,,,,,,,"[""5""]",1,[1.7189999999999372],1,0,0,0,5,1,,,,,,,,,,,,,,,,,,,,,,,,,,,,,,,,,,,,,,,,,,,
,,,,,,,,,,5f9aba6600cdf11f1c9b915c,24,Mężczyzna,2022-06-04_09h10.13.519,task,2021.1.4,Win32,49.94755507,628b806c463b948bc644b84f,629af770de72fc6a8330486c,,,,,,,,,,X V Q F H G B L J M P D K C T S W R N Z,,,,,,,,,,,,,,,,,,,,,,,,,,,,,,,,,,,,,,,,,,,,,,,,,,,0,0,0,0,1,,,,,,,,,,,,,,,,,,,,,,,,,,,,,,,,,,,,,,
,,,,,,,,,,5f9aba6600cdf11f1c9b915c,24,Mężczyzna,2022-06-04_09h10.13.519,task,2021.1.4,Win32,49.94755507,628b806c463b948bc644b84f,629af770de72fc6a8330486c,,,,,,,,,,,,,,,,,,,,,,,5,,,,,,,,,,Practice,6,(4/2) + 3,5,,,,,,,,,,,,,,,,"[""5""]",1,[1.3320999999045853],1,0,0,0,5,1,,,,,,,,,,,,,,,,,,,,,,,,,,,,,,,,,,,,,,,,,,,
,,,,,,,,,,5f9aba6600cdf11f1c9b915c,24,Mężczyzna,2022-06-04_09h10.13.519,task,2021.1.4,Win32,49.94755507,628b806c463b948bc644b84f,629af770de72fc6a8330486c,,,,,,,,,,X V Q F H G B L J M P D K C T S W R N Z,,,,,,,,,,,,,,,,,,,,,,,,,,,,,,,,,,,,,,,,,,,,,,,,,,,1,0,1,0,1,,,,,,,,,,,,,,,,,,,,,,,,,,,,,,,,,,,,,,
,,,,,,,,,,5f9aba6600cdf11f1c9b915c,24,Mężczyzna,2022-06-04_09h10.13.519,task,2021.1.4,Win32,49.94755507,628b806c463b948bc644b84f,629af770de72fc6a8330486c,,,,,,,,,,,,,,,,,,,,,,,,,,,,,,,,,,,,,,,,,,,,,,,,,,,,,,,,,,,,,,,,,,vq,"[""v"",""q""]",0,"[0.060400000095341966,1.7142000000477537,1.9202999999523627]",1,2,0,2,0,1,,,,,,,,,,,,,,,,,,,,,,,,,,,,
,,,,,,,,,,5f9aba6600cdf11f1c9b915c,24,Mężczyzna,2022-06-04_09h10.13.519,task,2021.1.4,Win32,49.94755507,628b806c463b948bc644b84f,629af770de72fc6a8330486c,,,,,,,,,,,,,,,,,,,,,,,6,,,,,,,,,,Task,6,(12/2) + 1,7,,,,,,,,,,,,,,,,,,,0,,,,,,,,,,,,,,,,,,,,,space,1.184,"[""6""]",0,[1.8107999999523372],0,0,0,5,1,,,,,,,,,,,,,,,,,,
,,,,,,,,,,5f9aba6600cdf11f1c9b915c,24,Mężczyzna,2022-06-04_09h10.13.519,task,2021.1.4,Win32,49.94755507,628b806c463b948bc644b84f,629af770de72fc6a8330486c,,,,,,,,,,,,,,,,,,,,,,,4,,,,,,,,,,Task,28,(2x5) - 6,4,,,,,,,,,,,,,,,,,,,1,,,,,,,,,,,,,,,,,,,,,,,"[""4""]",1,[2.0676000001429884],0,1,1,27,1,,,,,,,,,,,,,,,,,,
,,,,,,,,,,5f9aba6600cdf11f1c9b915c,24,Mężczyzna,2022-06-04_09h10.13.519,task,2021.1.4,Win32,49.94755507,628b806c463b948bc644b84f,629af770de72fc6a8330486c,,,,,,,,,,X V Q F H G B L J M P D K C T S W R N Z,,,,,,,,,,,,,,,,,,,,,,,,,,,,,,,,,,,,,,,,,,,,,,,,,,,,,,,,,,,,,,,,,,,,,,,,,,,,0,0,0,0,1,,,,,,,,,,,,,
,,,,,,,,,,5f9aba6600cdf11f1c9b915c,24,Mężczyzna,2022-06-04_09h10.13.519,task,2021.1.4,Win32,49.94755507,628b806c463b948bc644b84f,629af770de72fc6a8330486c,,,,,,,,,,,,,,,,,,,,,,,,,,,,,,,,,Task,8,(1x5) - 5,0,,,,,,,,,,,,,,,,,,,0,,,,,,,,,,,,,,,,,,,,,,,,0,,0,0,0,7,1,,,,,,,,,,,,,,,,,,
,,,,,,,,,,5f9aba6600cdf11f1c9b915c,24,Mężczyzna,2022-06-04_09h10.13.519,task,2021.1.4,Win32,49.94755507,628b806c463b948bc644b84f,629af770de72fc6a8330486c,,,,,,,,,,,,,,,,,,,,,,,2,,,,,,,,,,Task,26,(2x9) - 16,2,,,,,,,,,,,,,,,,,,,1,,,,,,,,,,,,,,,,,,,,,,,"[""2""]",1,[1.4188000001906858],0,1,1,25,1,,,,,,,,,,,,,,,,,,
,,,,,,,,,,5f9aba6600cdf11f1c9b915c,24,Mężczyzna,2022-06-04_09h10.13.519,task,2021.1.4,Win32,49.94755507,628b806c463b948bc644b84f,629af770de72fc6a8330486c,,,,,,,,,,X V Q F H G B L J M P D K C T S W R N Z,,,,,,,,,,,,,,,,,,,,,,,,,,,,,,,,,,,,,,,,,,,,,,,,,,,,,,,,,,,,,,,,,,,,,,,,,,,,1,0,1,0,1,,,,,,,,,,,,,
,,,,,,,,,,5f9aba6600cdf11f1c9b915c,24,Mężczyzna,2022-06-04_09h10.13.519,task,2021.1.4,Win32,49.94755507,628b806c463b948bc644b84f,629af770de72fc6a8330486c,,,,,,,,,,,,,,,,,,,,,,,,,,,,,,,,,,,,,,,,,,,,,,,,,,,,,,,,,,,,,,,,,,,,,,,,,,,,,,,,,,,,,,,,,,,k,"[""k""]",0,"[1.1806000001430448,1.6026000001429566]",0,ZK,0,0,0,0,1,,
,,,,,,,,,,5f9aba6600cdf11f1c9b915c,24,Mężczyzna,2022-06-04_09h10.13.519,task,2021.1.4,Win32,49.94755507,628b806c463b948bc644b84f,629af770de72fc6a8330486c,,,,,,,,,,,,,,,,,,,,,,,4,,,,,,,,,,Task,28,(2x5) - 6,4,,,,,,,,,,,,,,,,,,,1,,,,,,,,,,,,,,,,,,,,,,,"[""4""]",1,[1.981699999809166],0,0,0,27,1,,,,,,,,,,,,,,,,,,
,,,,,,,,,,5f9aba6600cdf11f1c9b915c,24,Mężczyzna,2022-06-04_09h10.13.519,task,2021.1.4,Win32,49.94755507,628b806c463b948bc644b84f,629af770de72fc6a8330486c,,,,,,,,,,X V Q F H G B L J M P D K C T S W R N Z,,,,,,,,,,,,,,,,,,,,,,,,,,,,,,,,,,,,,,,,,,,,,,,,,,,,,,,,,,,,,,,,,,,,,,,,,,,,0,0,0,0,1,,,,,,,,,,,,,
,,,,,,,,,,5f9aba6600cdf11f1c9b915c,24,Mężczyzna,2022-06-04_09h10.13.519,task,2021.1.4,Win32,49.94755507,628b806c463b948bc644b84f,629af770de72fc6a8330486c,,,,,,,,,,,,,,,,,,,,,,,7,,,,,,,,,,Task,14,(2x2) + 3,7,,,,,,,,,,,,,,,,,,,1,,,,,,,,,,,,,,,,,,,,,,,"[""7""]",1,[2.0388999998569943],0,0,0,13,1,,,,,,,,,,,,,,,,,,
,,,,,,,,,,5f9aba6600cdf11f1c9b915c,24,Mężczyzna,2022-06-04_09h10.13.519,task,2021.1.4,Win32,49.94755507,628b806c463b948bc644b84f,629af770de72fc6a8330486c,,,,,,,,,,X V Q F H G B L J M P D K C T S W R N Z,,,,,,,,,,,,,,,,,,,,,,,,,,,,,,,,,,,,,,,,,,,,,,,,,,,,,,,,,,,,,,,,,,,,,,,,,,,,1,0,1,0,1,,,,,,,,,,,,,
,,,,,,,,,,5f9aba6600cdf11f1c9b915c,24,Mężczyzna,2022-06-04_09h10.13.519,task,2021.1.4,Win32,49.94755507,628b806c463b948bc644b84f,629af770de72fc6a8330486c,,,,,,,,,,,,,,,,,,,,,,,,,,,,,,,,,,,,,,,,,,,,,,,,,,,,,,,,,,,,,,,,,,,,,,,,,,,,,,,,,,,,,,,,,,,ll,"[""l"",""l""]",0,"[1.4527000000476846,1.7135999999045453,1.967999999999961]",1,LL,1,0,1,0,1,,
,,,,,,,,,,5f9aba6600cdf11f1c9b915c,24,Mężczyzna,2022-06-04_09h10.13.519,task,2021.1.4,Win32,49.94755507,628b806c463b948bc644b84f,629af770de72fc6a8330486c,,,,,,,,,,,,,,,,,,,,,,,7,,,,,,,,,,Task,14,(2x2) + 3,7,,,,,,,,,,,,,,,,,,,1,,,,,,,,,,,,,,,,,,,,,,,"[""7""]",1,[1.2663000001907676],0,0,0,13,1,,,,,,,,,,,,,,,,,,
,,,,,,,,,,5f9aba6600cdf11f1c9b915c,24,Mężczyzna,2022-06-04_09h10.13.519,task,2021.1.4,Win32,49.94755507,628b806c463b948bc644b84f,629af770de72fc6a8330486c,,,,,,,,,,X V Q F H G B L J M P D K C T S W R N Z,,,,,,,,,,,,,,,,,,,,,,,,,,,,,,,,,,,,,,,,,,,,,,,,,,,,,,,,,,,,,,,,,,,,,,,,,,,,0,0,0,0,1,,,,,,,,,,,,,
,,,,,,,,,,5f9aba6600cdf11f1c9b915c,24,Mężczyzna,2022-06-04_09h10.13.519,task,2021.1.4,Win32,49.94755507,628b806c463b948bc644b84f,629af770de72fc6a8330486c,,,,,,,,,,,,,,,,,,,,,,,,,,,,,,,,,Task,1,(12/6) - 1,1,,,,,,,,,,,,,,,,,,,0,,,,,,,,,,,,,,,,,,,,,,,,0,,0,0,0,0,1,,,,,,,,,,,,,,,,,,
,,,,,,,,,,5f9aba6600cdf11f1c9b915c,24,Mężczyzna,2022-06-04_09h10.13.519,task,2021.1.4,Win32,49.94755507,628b806c463b948bc644b84f,629af770de72fc6a8330486c,,,,,,,,,,,,,,,,,,,,,,,7,,,,,,,,,,Task,39,(5x3) - 7,8,,,,,,,,,,,,,,,,,,,0,,,,,,,,,,,,,,,,,,,,,,,"[""7""]",0,[1.7815999999046426],0,1,1,38,1,,,,,,,,,,,,,,,,,,
,,,,,,,,,,5f9aba6600cdf11f1c9b915c,24,Mężczyzna,2022-06-04_09h10.13.519,task,2021.1.4,Win32,49.94755507,628b806c463b948bc644b84f,629af770de72fc6a8330486c,,,,,,,,,,,,,,,,,,,,,,,,,,,,,,,,,Task,25,(10/5) - 2,0,,,,,,,,,,,,,,,,,,,0,,,,,,,,,,,,,,,,,,,,,,,,0,,0,2,2,24,1,,,,,,,,,,,,,,,,,,
,,,,,,,,,,5f9aba6600cdf11f1c9b915c,24,Mężczyzna,2022-06-04_09h10.13.519,task,2021.1.4,Win32,49.94755507,628b806c463b948bc644b84f,629af770de72fc6a8330486c,,,,,,,,,,,,,,,,,,,,,,,0,,,,,,,,,,Task,17,(2x3) - 6,0,,,,,,,,,,,,,,,,,,,1,,,,,,,,,,,,,,,,,,,,,,,"[""0""]",1,[1.1443000001906967],0,3,3,16,1,,,,,,,,,,,,,,,,,,
,,,,,,,,,,5f9aba6600cdf11f1c9b915c,24,Mężczyzna,2022-06-04_09h10.13.519,task,2021.1.4,Win32,49.94755507,628b806c463b948bc644b84f,629af770de72fc6a8330486c,,,,,,,,,,X V Q F H G B L J M P D K C T S W R N Z,,,,,,,,,,,,,,,,,,,,,,,,,,,,,,,,,,,,,,,,,,,,,,,,,,,,,,,,,,,,,,,,,,,,,,,,,,,,1,0,1,0,1,,,,,,,,,,,,,
,,,,,,,,,,5f9aba6600cdf11f1c9b915c,24,Mężczyzna,2022-06-04_09h10.13.519,task,2021.1.4,Win32,49.94755507,628b806c463b948bc644b84f,629af770de72fc6a8330486c,,,,,,,,,,,,,,,,,,,,,,,0,,,,,,,,,,Task,33,(1/1) - 1,0,,,,,,,,,,,,,,,,,,,1,,,,,,,,,,,,,,,,,,,,,,,"[""0""]",1,[0.9422999999522972],0,0,0,32,1,,,,,,,,,,,,,,,,,,
,,,,,,,,,,5f9aba6600cdf11f1c9b915c,24,Mężczyzna,2022-06-04_09h10.13.519,task,2021.1.4,Win32,49.94755507,628b806c463b948bc644b84f,629af770de72fc6a8330486c,,,,,,,,,,X V Q F H G B L J M P D K C T S W R N Z,,,,,,,,,,,,,,,,,,,,,,,,,,,,,,,,,,,,,,,,,,,,,,,,,,,,,,,,,,,,,,,,,,,,,,,,,,,,2,0,2,0,1,,,,,,,,,,,,,
,,,,,,,,,,5f9aba6600cdf11f1c9b915c,24,Mężczyzna,2022-06-04_09h10.13.519,task,2021.1.4,Win32,49.94755507,628b806c463b948bc644b84f,629af770de72fc6a8330486c,,,,,,,,,,,,,,,,,,,,,,,,,,,,,,,,,,,,,,,,,,,,,,,,,,,,,,,,,,,,,,,,,,,,,,,,,,,,,,,,,,,,,,,,,,,tm,"[""t"",""m""]",0,"[1.4532999999522644,1.5489999999999782,1.6892999999522544]",0,NTM,2,0,2,0,1,,
,,,,,,,,,,5f9aba6600cdf11f1c9b915c,24,Mężczyzna,2022-06-04_09h10.13.519,task,2021.1.4,Win32,49.94755507,628b806c463b948bc644b84f,629af770de72fc6a8330486c,,,,,,,,,,,,,,,,,,,,,,,5,,,,,,,,,,Task,12,(4x4) - 11,5,,,,,,,,,,,,,,,,,,,1,,,,,,,,,,,,,,,,,,,,,,,"[""5""]",1,[1.4192999999523863],0,0,0,11,1,,,,,,,,,,,,,,,,,,
,,,,,,,,,,5f9aba6600cdf11f1c9b915c,24,Mężczyzna,2022-06-04_09h10.13.519,task,2021.1.4,Win32,49.94755507,628b806c463b948bc644b84f,629af770de72fc6a8330486c,,,,,,,,,,X V Q F H G B L J M P D K C T S W R N Z,,,,,,,,,,,,,,,,,,,,,,,,,,,,,,,,,,,,,,,,,,,,,,,,,,,,,,,,,,,,,,,,,,,,,,,,,,,,0,0,0,0,1,,,,,,,,,,,,,
,,,,,,,,,,5f9aba6600cdf11f1c9b915c,24,Mężczyzna,2022-06-04_09h10.13.519,task,2021.1.4,Win32,49.94755507,628b806c463b948bc644b84f,629af770de72fc6a8330486c,,,,,,,,,,,,,,,,,,,,,,,1,,,,,,,,,,Task,2,(2x2) - 2,2,,,,,,,,,,,,,,,,,,,0,,,,,,,,,,,,,,,,,,,,,,,"[""1""]",0,[1.32549999999992],0,0,0,1,1,,,,,,,,,,,,,,,,,,
,,,,,,,,,,5f9aba6600cdf11f1c9b915c,24,Mężczyzna,2022-06-04_09h10.13.519,task,2021.1.4,Win32,49.94755507,628b806c463b948bc644b84f,629af770de72fc6a8330486c,,,,,,,,,,,,,,,,,,,,,,,2,,,,,,,,,,Task,26,(2x9) - 16,2,,,,,,,,,,,,,,,,,,,1,,,,,,,,,,,,,,,,,,,,,,,"[""2""]",1,[1.6344000000952974],0,1,1,25,1,,,,,,,,,,,,,,,,,,
,,,,,,,,,,5f9aba6600cdf11f1c9b915c,24,Mężczyzna,2022-06-04_09h10.13.519,task,2021.1.4,Win32,49.94755507,628b806c463b948bc644b84f,629af770de72fc6a8330486c,,,,,,,,,,X V Q F H G B L J M P D K C T S W R N Z,,,,,,,,,,,,,,,,,,,,,,,,,,,,,,,,,,,,,,,,,,,,,,,,,,,,,,,,,,,,,,,,,,,,,,,,,,,,1,0,1,0,1,,,,,,,,,,,,,
,,,,,,,,,,5f9aba6600cdf11f1c9b915c,24,Mężczyzna,2022-06-04_09h10.13.519,task,2021.1.4,Win32,49.94755507,628b806c463b948bc644b84f,629af770de72fc6a8330486c,,,,,,,,,,,,,,,,,,,,,,,6,,,,,,,,,,Task,5,(2x3) + 0,6,,,,,,,,,,,,,,,,,,,1,,,,,,,,,,,,,,,,,,,,,,,"[""6""]",1,[1.1835000000000946],0,0,0,4,1,,,,,,,,,,,,,,,,,,
,,,,,,,,,,5f9aba6600cdf11f1c9b915c,24,Mężczyzna,2022-06-04_09h10.13.519,task,2021.1.4,Win32,49.94755507,628b806c463b948bc644b84f,629af770de72fc6a8330486c,,,,,,,,,,X V Q F H G B L J M P D K C T S W R N Z,,,,,,,,,,,,,,,,,,,,,,,,,,,,,,,,,,,,,,,,,,,,,,,,,,,,,,,,,,,,,,,,,,,,,,,,,,,,2,0,2,0,1,,,,,,,,,,,,,
,,,,,,,,,,5f9aba6600cdf11f1c9b915c,24,Mężczyzna,2022-06-04_09h10.13.519,task,2021.1.4,Win32,49.94755507,628b806c463b948bc644b84f,629af770de72fc6a8330486c,,,,,,,,,,,,,,,,,,,,,,,,,,,,,,,,,,,,,,,,,,,,,,,,,,,,,,,,,,,,,,,,,,,,,,,,,,,,,,,,,,,,,,,,,,,skv,"[""s"",""k"",""v""]",0,"[1.127200000047651,1.294499999999971,1.4827000000476573,1.6108999998568834]",1,SKV,3,0,3,0,1,,
,,,,,,,,,,5f9aba6600cdf11f1c9b915c,24,Mężczyzna,2022-06-04_09h10.13.519,task,2021.1.4,Win32,49.94755507,628b806c463b948bc644b84f,629af770de72fc6a8330486c,,,,,,,,,,,,,,,,,,,,,,,,,,,,,,,,,Task,29,(3x8) - 19 ,5,,,,,,,,,,,,,,,,,,,0,,,,,,,,,,,,,,,,,,,,,,,,0,,0,0,0,28,1,,,,,,,,,,,,,,,,,,
,,,,,,,,,,5f9aba6600cdf11f1c9b915c,24,Mężczyzna,2022-06-04_09h10.13.519,task,2021.1.4,Win32,49.94755507,628b806c463b948bc644b84f,629af770de72fc6a8330486c,,,,,,,,,,,,,,,,,,,,,,,5,,,,,,,,,,Task,22,(3x1) + 2,5,,,,,,,,,,,,,,,,,,,1,,,,,,,,,,,,,,,,,,,,,,,"[""5""]",1,[1.7622999999522335],0,1,1,21,1,,,,,,,,,,,,,,,,,,
,,,,,,,,,,5f9aba6600cdf11f1c9b915c,24,Mężczyzna,2022-06-04_09h10.13.519,task,2021.1.4,Win32,49.94755507,628b806c463b948bc644b84f,629af770de72fc6a8330486c,,,,,,,,,,X V Q F H G B L J M P D K C T S W R N Z,,,,,,,,,,,,,,,,,,,,,,,,,,,,,,,,,,,,,,,,,,,,,,,,,,,,,,,,,,,,,,,,,,,,,,,,,,,,0,0,0,0,1,,,,,,,,,,,,,
,,,,,,,,,,5f9aba6600cdf11f1c9b915c,24,Mężczyzna,2022-06-04_09h10.13.519,task,2021.1.4,Win32,49.94755507,628b806c463b948bc644b84f,629af770de72fc6a8330486c,,,,,,,,,,,,,,,,,,,,,,,6,,,,,,,,,,Task,5,(2x3) + 0,6,,,,,,,,,,,,,,,,,,,1,,,,,,,,,,,,,,,,,,,,,,,"[""6""]",1,[0.8840000000000146],0,0,0,4,1,,,,,,,,,,,,,,,,,,
,,,,,,,,,,5f9aba6600cdf11f1c9b915c,24,Mężczyzna,2022-06-04_09h10.13.519,task,2021.1.4,Win32,49.94755507,628b806c463b948bc644b84f,629af770de72fc6a8330486c,,,,,,,,,,X V Q F H G B L J M P D K C T S W R N Z,,,,,,,,,,,,,,,,,,,,,,,,,,,,,,,,,,,,,,,,,,,,,,,,,,,,,,,,,,,,,,,,,,,,,,,,,,,,1,0,1,0,1,,,,,,,,,,,,,
,,,,,,,,,,5f9aba6600cdf11f1c9b915c,24,Mężczyzna,2022-06-04_09h10.13.519,task,2021.1.4,Win32,49.94755507,628b806c463b948bc644b84f,629af770de72fc6a8330486c,,,,,,,,,,,,,,,,,,,,,,,5,,,,,,,,,,Task,19,(6/2) - 1,2,,,,,,,,,,,,,,,,,,,0,,,,,,,,,,,,,,,,,,,,,,,"[""5""]",0,[1.3474000000953765],0,0,0,18,1,,,,,,,,,,,,,,,,,,
,,,,,,,,,,5f9aba6600cdf11f1c9b915c,24,Mężczyzna,2022-06-04_09h10.13.519,task,2021.1.4,Win32,49.94755507,628b806c463b948bc644b84f,629af770de72fc6a8330486c,,,,,,,,,,,,,,,,,,,,,,,7,,,,,,,,,,Task,14,(2x2) + 3,7,,,,,,,,,,,,,,,,,,,1,,,,,,,,,,,,,,,,,,,,,,,"[""7""]",1,[1.3999999999999773],0,1,1,13,1,,,,,,,,,,,,,,,,,,
,,,,,,,,,,5f9aba6600cdf11f1c9b915c,24,Mężczyzna,2022-06-04_09h10.13.519,task,2021.1.4,Win32,49.94755507,628b806c463b948bc644b84f,629af770de72fc6a8330486c,,,,,,,,,,X V Q F H G B L J M P D K C T S W R N Z,,,,,,,,,,,,,,,,,,,,,,,,,,,,,,,,,,,,,,,,,,,,,,,,,,,,,,,,,,,,,,,,,,,,,,,,,,,,2,0,2,0,1,,,,,,,,,,,,,
,,,,,,,,,,5f9aba6600cdf11f1c9b915c,24,Mężczyzna,2022-06-04_09h10.13.519,task,2021.1.4,Win32,49.94755507,628b806c463b948bc644b84f,629af770de72fc6a8330486c,,,,,,,,,,,,,,,,,,,,,,,4,,,,,,,,,,Task,21,(10/2) - 1,4,,,,,,,,,,,,,,,,,,,1,,,,,,,,,,,,,,,,,,,,,,,"[""4""]",1,[1.7791999998092933],0,0,0,20,1,,,,,,,,,,,,,,,,,,
,,,,,,,,,,5f9aba6600cdf11f1c9b915c,24,Mężczyzna,2022-06-04_09h10.13.519,task,2021.1.4,Win32,49.94755507,628b806c463b948bc644b84f,629af770de72fc6a8330486c,,,,,,,,,,X V Q F H G B L J M P D K C T S W R N Z,,,,,,,,,,,,,,,,,,,,,,,,,,,,,,,,,,,,,,,,,,,,,,,,,,,,,,,,,,,,,,,,,,,,,,,,,,,,3,0,3,0,1,,,,,,,,,,,,,
,,,,,,,,,,5f9aba6600cdf11f1c9b915c,24,Mężczyzna,2022-06-04_09h10.13.519,task,2021.1.4,Win32,49.94755507,628b806c463b948bc644b84f,629af770de72fc6a8330486c,,,,,,,,,,,,,,,,,,,,,,,,,,,,,,,,,,,,,,,,,,,,,,,,,,,,,,,,,,,,,,,,,,,,,,,,,,,,,,,,,,,,,,,,,,,xndh,"[""x"",""n"",""d"",""h""]",0,"[1.1671000001431366,1.3738000001907267,1.761600000143062,1.847800000190773,2.294800000190776]",1,XNDH,4,0,4,0,1,,
,,,,,,,,,,5f9aba6600cdf11f1c9b915c,24,Mężczyzna,2022-06-04_09h10.13.519,task,2021.1.4,Win32,49.94755507,628b806c463b948bc644b84f,629af770de72fc6a8330486c,,,,,,,,,,,,,,,,,,,,,,,6,,,,,,,,,,Task,13,(3x4) - 6,6,,,,,,,,,,,,,,,,,,,1,,,,,,,,,,,,,,,,,,,,,,,"[""6""]",1,[2.1182999999523418],0,0,0,12,1,,,,,,,,,,,,,,,,,,
,,,,,,,,,,5f9aba6600cdf11f1c9b915c,24,Mężczyzna,2022-06-04_09h10.13.519,task,2021.1.4,Win32,49.94755507,628b806c463b948bc644b84f,629af770de72fc6a8330486c,,,,,,,,,,X V Q F H G B L J M P D K C T S W R N Z,,,,,,,,,,,,,,,,,,,,,,,,,,,,,,,,,,,,,,,,,,,,,,,,,,,,,,,,,,,,,,,,,,,,,,,,,,,,0,0,0,0,1,,,,,,,,,,,,,
,,,,,,,,,,5f9aba6600cdf11f1c9b915c,24,Mężczyzna,2022-06-04_09h10.13.519,task,2021.1.4,Win32,49.94755507,628b806c463b948bc644b84f,629af770de72fc6a8330486c,,,,,,,,,,,,,,,,,,,,,,,1,,,,,,,,,,Task,18,(16/4) - 3,1,,,,,,,,,,,,,,,,,,,1,,,,,,,,,,,,,,,,,,,,,,,"[""1""]",1,[1.4527999999522763],0,0,0,17,1,,,,,,,,,,,,,,,,,,
,,,,,,,,,,5f9aba6600cdf11f1c9b915c,24,Mężczyzna,2022-06-04_09h10.13.519,task,2021.1.4,Win32,49.94755507,628b806c463b948bc644b84f,629af770de72fc6a8330486c,,,,,,,,,,X V Q F H G B L J M P D K C T S W R N Z,,,,,,,,,,,,,,,,,,,,,,,,,,,,,,,,,,,,,,,,,,,,,,,,,,,,,,,,,,,,,,,,,,,,,,,,,,,,1,0,1,0,1,,,,,,,,,,,,,
,,,,,,,,,,5f9aba6600cdf11f1c9b915c,24,Mężczyzna,2022-06-04_09h10.13.519,task,2021.1.4,Win32,49.94755507,628b806c463b948bc644b84f,629af770de72fc6a8330486c,,,,,,,,,,,,,,,,,,,,,,,4,,,,,,,,,,Task,21,(10/2) - 1,4,,,,,,,,,,,,,,,,,,,1,,,,,,,,,,,,,,,,,,,,,,,"[""4""]",1,[1.2578999998569316],0,0,0,20,1,,,,,,,,,,,,,,,,,,
,,,,,,,,,,5f9aba6600cdf11f1c9b915c,24,Mężczyzna,2022-06-04_09h10.13.519,task,2021.1.4,Win32,49.94755507,628b806c463b948bc644b84f,629af770de72fc6a8330486c,,,,,,,,,,X V Q F H G B L J M P D K C T S W R N Z,,,,,,,,,,,,,,,,,,,,,,,,,,,,,,,,,,,,,,,,,,,,,,,,,,,,,,,,,,,,,,,,,,,,,,,,,,,,2,0,2,0,1,,,,,,,,,,,,,
,,,,,,,,,,5f9aba6600cdf11f1c9b915c,24,Mężczyzna,2022-06-04_09h10.13.519,task,2021.1.4,Win32,49.94755507,628b806c463b948bc644b84f,629af770de72fc6a8330486c,,,,,,,,,,,,,,,,,,,,,,,6,,,,,,,,,,Task,30,(6/3) + 4 ,6,,,,,,,,,,,,,,,,,,,1,,,,,,,,,,,,,,,,,,,,,,,"[""6""]",1,[1.79229999995232],0,0,0,29,1,,,,,,,,,,,,,,,,,,
,,,,,,,,,,5f9aba6600cdf11f1c9b915c,24,Mężczyzna,2022-06-04_09h10.13.519,task,2021.1.4,Win32,49.94755507,628b806c463b948bc644b84f,629af770de72fc6a8330486c,,,,,,,,,,X V Q F H G B L J M P D K C T S W R N Z,,,,,,,,,,,,,,,,,,,,,,,,,,,,,,,,,,,,,,,,,,,,,,,,,,,,,,,,,,,,,,,,,,,,,,,,,,,,3,0,3,0,1,,,,,,,,,,,,,
,,,,,,,,,,5f9aba6600cdf11f1c9b915c,24,Mężczyzna,2022-06-04_09h10.13.519,task,2021.1.4,Win32,49.94755507,628b806c463b948bc644b84f,629af770de72fc6a8330486c,,,,,,,,,,,,,,,,,,,,,,,6,,,,,,,,,,Task,30,(6/3) + 4 ,6,,,,,,,,,,,,,,,,,,,1,,,,,,,,,,,,,,,,,,,,,,,"[""6""]",1,[1.6944000000953565],0,0,0,29,1,,,,,,,,,,,,,,,,,,
,,,,,,,,,,5f9aba6600cdf11f1c9b915c,24,Mężczyzna,2022-06-04_09h10.13.519,task,2021.1.4,Win32,49.94755507,628b806c463b948bc644b84f,629af770de72fc6a8330486c,,,,,,,,,,X V Q F H G B L J M P D K C T S W R N Z,,,,,,,,,,,,,,,,,,,,,,,,,,,,,,,,,,,,,,,,,,,,,,,,,,,,,,,,,,,,,,,,,,,,,,,,,,,,4,0,4,0,1,,,,,,,,,,,,,
,,,,,,,,,,5f9aba6600cdf11f1c9b915c,24,Mężczyzna,2022-06-04_09h10.13.519,task,2021.1.4,Win32,49.94755507,628b806c463b948bc644b84f,629af770de72fc6a8330486c,,,,,,,,,,,,,,,,,,,,,,,,,,,,,,,,,,,,,,,,,,,,,,,,,,,,,,,,,,,,,,,,,,,,,,,,,,,,,,,,,,,,,,,,,,,rcrbs,"[""r"",""c"",""r"",""b"",""s""]",0,"[1.2332000000477592,1.6054000000954147,1.8357000000477228,2.064599999904658,2.420700000047759,182.5387999999524]",1,RCRBS,5,0,5,0,1,,
,,,,,,,,,,5f9aba6600cdf11f1c9b915c,24,Mężczyzna,2022-06-04_09h10.13.519,task,2021.1.4,Win32,49.94755507,628b806c463b948bc644b84f,629af770de72fc6a8330486c,,,,,,,,,,,,,,,,,,,,,,,4,,,,,,,,,,Task,28,(2x5) - 6,4,,,,,,,,,,,,,,,,,,,1,,,,,,,,,,,,,,,,,,,,,,,"[""4""]",1,[2.1060000000001082],0,0,0,27,1,,,,,,,,,,,,,,,,,,
,,,,,,,,,,5f9aba6600cdf11f1c9b915c,24,Mężczyzna,2022-06-04_09h10.13.519,task,2021.1.4,Win32,49.94755507,628b806c463b948bc644b84f,629af770de72fc6a8330486c,,,,,,,,,,X V Q F H G B L J M P D K C T S W R N Z,,,,,,,,,,,,,,,,,,,,,,,,,,,,,,,,,,,,,,,,,,,,,,,,,,,,,,,,,,,,,,,,,,,,,,,,,,,,0,0,0,0,1,,,,,,,,,,,,,
,,,,,,,,,,5f9aba6600cdf11f1c9b915c,24,Mężczyzna,2022-06-04_09h10.13.519,task,2021.1.4,Win32,49.94755507,628b806c463b948bc644b84f,629af770de72fc6a8330486c,,,,,,,,,,,,,,,,,,,,,,,,,,,,,,,,,Task,29,(3x8) - 19 ,5,,,,,,,,,,,,,,,,,,,0,,,,,,,,,,,,,,,,,,,,,,,,0,,0,0,0,28,1,,,,,,,,,,,,,,,,,,
,,,,,,,,,,5f9aba6600cdf11f1c9b915c,24,Mężczyzna,2022-06-04_09h10.13.519,task,2021.1.4,Win32,49.94755507,628b806c463b948bc644b84f,629af770de72fc6a8330486c,,,,,,,,,,,,,,,,,,,,,,,1,,,,,,,,,,Task,34,(9/3) - 2,1,,,,,,,,,,,,,,,,,,,1,,,,,,,,,,,,,,,,,,,,,,,"[""1""]",1,[2.020099999904687],0,1,1,33,1,,,,,,,,,,,,,,,,,,
,,,,,,,,,,5f9aba6600cdf11f1c9b915c,24,Mężczyzna,2022-06-04_09h10.13.519,task,2021.1.4,Win32,49.94755507,628b806c463b948bc644b84f,629af770de72fc6a8330486c,,,,,,,,,,X V Q F H G B L J M P D K C T S W R N Z,,,,,,,,,,,,,,,,,,,,,,,,,,,,,,,,,,,,,,,,,,,,,,,,,,,,,,,,,,,,,,,,,,,,,,,,,,,,1,0,1,0,1,,,,,,,,,,,,,
,,,,,,,,,,5f9aba6600cdf11f1c9b915c,24,Mężczyzna,2022-06-04_09h10.13.519,task,2021.1.4,Win32,49.94755507,628b806c463b948bc644b84f,629af770de72fc6a8330486c,,,,,,,,,,,,,,,,,,,,,,,,,,,,,,,,,Task,16,(3x8) - 15,9,,,,,,,,,,,,,,,,,,,0,,,,,,,,,,,,,,,,,,,,,,,,0,,0,0,0,15,1,,,,,,,,,,,,,,,,,,
,,,,,,,,,,5f9aba6600cdf11f1c9b915c,24,Mężczyzna,2022-06-04_09h10.13.519,task,2021.1.4,Win32,49.94755507,628b806c463b948bc644b84f,629af770de72fc6a8330486c,,,,,,,,,,,,,,,,,,,,,,,9,,,,,,,,,,Task,27,(3/3) + 2,3,,,,,,,,,,,,,,,,,,,0,,,,,,,,,,,,,,,,,,,,,,,"[""9""]",0,[0.12950000000000728],0,1,1,26,1,,,,,,,,,,,,,,,,,,
,,,,,,,,,,5f9aba6600cdf11f1c9b915c,24,Mężczyzna,2022-06-04_09h10.13.519,task,2021.1.4,Win32,49.94755507,628b806c463b948bc644b84f,629af770de72fc6a8330486c,,,,,,,,,,,,,,,,,,,,,,,2,,,,,,,,,,Task,10,(2x5) - 8,2,,,,,,,,,,,,,,,,,,,1,,,,,,,,,,,,,,,,,,,,,,,"[""2""]",1,[1.5677000000476937],0,2,2,9,1,,,,,,,,,,,,,,,,,,
,,,,,,,,,,5f9aba6600cdf11f1c9b915c,24,Mężczyzna,2022-06-04_09h10.13.519,task,2021.1.4,Win32,49.94755507,628b806c463b948bc644b84f,629af770de72fc6a8330486c,,,,,,,,,,X V Q F H G B L J M P D K C T S W R N Z,,,,,,,,,,,,,,,,,,,,,,,,,,,,,,,,,,,,,,,,,,,,,,,,,,,,,,,,,,,,,,,,,,,,,,,,,,,,2,0,2,0,1,,,,,,,,,,,,,
,,,,,,,,,,5f9aba6600cdf11f1c9b915c,24,Mężczyzna,2022-06-04_09h10.13.519,task,2021.1.4,Win32,49.94755507,628b806c463b948bc644b84f,629af770de72fc6a8330486c,,,,,,,,,,,,,,,,,,,,,,,2,,,,,,,,,,Task,19,(6/2) - 1,2,,,,,,,,,,,,,,,,,,,1,,,,,,,,,,,,,,,,,,,,,,,"[""2""]",1,[1.4495000000000573],0,0,0,18,1,,,,,,,,,,,,,,,,,,
,,,,,,,,,,5f9aba6600cdf11f1c9b915c,24,Mężczyzna,2022-06-04_09h10.13.519,task,2021.1.4,Win32,49.94755507,628b806c463b948bc644b84f,629af770de72fc6a8330486c,,,,,,,,,,X V Q F H G B L J M P D K C T S W R N Z,,,,,,,,,,,,,,,,,,,,,,,,,,,,,,,,,,,,,,,,,,,,,,,,,,,,,,,,,,,,,,,,,,,,,,,,,,,,3,0,3,0,1,,,,,,,,,,,,,
,,,,,,,,,,5f9aba6600cdf11f1c9b915c,24,Mężczyzna,2022-06-04_09h10.13.519,task,2021.1.4,Win32,49.94755507,628b806c463b948bc644b84f,629af770de72fc6a8330486c,,,,,,,,,,,,,,,,,,,,,,,4,,,,,,,,,,Task,4,(1x5) - 1,4,,,,,,,,,,,,,,,,,,,1,,,,,,,,,,,,,,,,,,,,,,,"[""4""]",1,[1.438600000143083],0,0,0,3,1,,,,,,,,,,,,,,,,,,
,,,,,,,,,,5f9aba6600cdf11f1c9b915c,24,Mężczyzna,2022-06-04_09h10.13.519,task,2021.1.4,Win32,49.94755507,628b806c463b948bc644b84f,629af770de72fc6a8330486c,,,,,,,,,,X V Q F H G B L J M P D K C T S W R N Z,,,,,,,,,,,,,,,,,,,,,,,,,,,,,,,,,,,,,,,,,,,,,,,,,,,,,,,,,,,,,,,,,,,,,,,,,,,,4,0,4,0,1,,,,,,,,,,,,,
,,,,,,,,,,5f9aba6600cdf11f1c9b915c,24,Mężczyzna,2022-06-04_09h10.13.519,task,2021.1.4,Win32,49.94755507,628b806c463b948bc644b84f,629af770de72fc6a8330486c,,,,,,,,,,,,,,,,,,,,,,,,,,,,,,,,,Task,32,(8/2) + 4,8,,,,,,,,,,,,,,,,,,,0,,,,,,,,,,,,,,,,,,,,,,,,0,,0,0,0,31,1,,,,,,,,,,,,,,,,,,
,,,,,,,,,,5f9aba6600cdf11f1c9b915c,24,Mężczyzna,2022-06-04_09h10.13.519,task,2021.1.4,Win32,49.94755507,628b806c463b948bc644b84f,629af770de72fc6a8330486c,,,,,,,,,,,,,,,,,,,,,,,9,,,,,,,,,,Task,7,(3x7) - 12,9,,,,,,,,,,,,,,,,,,,1,,,,,,,,,,,,,,,,,,,,,,,"[""9""]",1,[2.0051999998092924],0,1,1,6,1,,,,,,,,,,,,,,,,,,
,,,,,,,,,,5f9aba6600cdf11f1c9b915c,24,Mężczyzna,2022-06-04_09h10.13.519,task,2021.1.4,Win32,49.94755507,628b806c463b948bc644b84f,629af770de72fc6a8330486c,,,,,,,,,,X V Q F H G B L J M P D K C T S W R N Z,,,,,,,,,,,,,,,,,,,,,,,,,,,,,,,,,,,,,,,,,,,,,,,,,,,,,,,,,,,,,,,,,,,,,,,,,,,,5,0,5,0,1,,,,,,,,,,,,,
,,,,,,,,,,5f9aba6600cdf11f1c9b915c,24,Mężczyzna,2022-06-04_09h10.13.519,task,2021.1.4,Win32,49.94755507,628b806c463b948bc644b84f,629af770de72fc6a8330486c,,,,,,,,,,,,,,,,,,,,,,,,,,,,,,,,,,,,,,,,,,,,,,,,,,,,,,,,,,,,,,,,,,,,,,,,,,,,,,,,,,,,,,,,,,,cfbbcn,"[""c"",""f"",""b"",""b"",""c"",""n""]",0,"[2.232799999952249,2.69399999999996,4.6062999999522845,4.743299999952342,5.128200000047627,5.446200000047725,5.902899999856913]",1,CFBBCN,6,0,6,0,1,,
,,,,,,,,,,5f9aba6600cdf11f1c9b915c,24,Mężczyzna,2022-06-04_09h10.13.519,task,2021.1.4,Win32,49.94755507,628b806c463b948bc644b84f,629af770de72fc6a8330486c,,,,,,,,,,,,,,,,,,,,,,,2,,,,,,,,,,Task,26,(2x9) - 16,2,,,,,,,,,,,,,,,,,,,1,,,,,,,,,,,,,,,,,,,,,,,"[""2""]",1,[1.792100000143023],0,0,0,25,1,,,,,,,,,,,,,,,,,,
,,,,,,,,,,5f9aba6600cdf11f1c9b915c,24,Mężczyzna,2022-06-04_09h10.13.519,task,2021.1.4,Win32,49.94755507,628b806c463b948bc644b84f,629af770de72fc6a8330486c,,,,,,,,,,X V Q F H G B L J M P D K C T S W R N Z,,,,,,,,,,,,,,,,,,,,,,,,,,,,,,,,,,,,,,,,,,,,,,,,,,,,,,,,,,,,,,,,,,,,,,,,,,,,0,0,0,0,1,,,,,,,,,,,,,
,,,,,,,,,,5f9aba6600cdf11f1c9b915c,24,Mężczyzna,2022-06-04_09h10.13.519,task,2021.1.4,Win32,49.94755507,628b806c463b948bc644b84f,629af770de72fc6a8330486c,,,,,,,,,,,,,,,,,,,,,,,5,,,,,,,,,,Task,12,(4x4) - 11,5,,,,,,,,,,,,,,,,,,,1,,,,,,,,,,,,,,,,,,,,,,,"[""5""]",1,[1.1841000001430757],0,0,0,11,1,,,,,,,,,,,,,,,,,,
,,,,,,,,,,5f9aba6600cdf11f1c9b915c,24,Mężczyzna,2022-06-04_09h10.13.519,task,2021.1.4,Win32,49.94755507,628b806c463b948bc644b84f,629af770de72fc6a8330486c,,,,,,,,,,X V Q F H G B L J M P D K C T S W R N Z,,,,,,,,,,,,,,,,,,,,,,,,,,,,,,,,,,,,,,,,,,,,,,,,,,,,,,,,,,,,,,,,,,,,,,,,,,,,1,0,1,0,1,,,,,,,,,,,,,
,,,,,,,,,,5f9aba6600cdf11f1c9b915c,24,Mężczyzna,2022-06-04_09h10.13.519,task,2021.1.4,Win32,49.94755507,628b806c463b948bc644b84f,629af770de72fc6a8330486c,,,,,,,,,,,,,,,,,,,,,,,,,,,,,,,,,Task,1,(12/6) - 1,1,,,,,,,,,,,,,,,,,,,0,,,,,,,,,,,,,,,,,,,,,,,,0,,0,0,0,0,1,,,,,,,,,,,,,,,,,,
,,,,,,,,,,5f9aba6600cdf11f1c9b915c,24,Mężczyzna,2022-06-04_09h10.13.519,task,2021.1.4,Win32,49.94755507,628b806c463b948bc644b84f,629af770de72fc6a8330486c,,,,,,,,,,,,,,,,,,,,,,,1,,,,,,,,,,Task,18,(16/4) - 3,1,,,,,,,,,,,,,,,,,,,1,,,,,,,,,,,,,,,,,,,,,,,"[""1""]",1,[1.2603000001906821],0,1,1,17,1,,,,,,,,,,,,,,,,,,
,,,,,,,,,,5f9aba6600cdf11f1c9b915c,24,Mężczyzna,2022-06-04_09h10.13.519,task,2021.1.4,Win32,49.94755507,628b806c463b948bc644b84f,629af770de72fc6a8330486c,,,,,,,,,,X V Q F H G B L J M P D K C T S W R N Z,,,,,,,,,,,,,,,,,,,,,,,,,,,,,,,,,,,,,,,,,,,,,,,,,,,,,,,,,,,,,,,,,,,,,,,,,,,,2,0,2,0,1,,,,,,,,,,,,,
,,,,,,,,,,5f9aba6600cdf11f1c9b915c,24,Mężczyzna,2022-06-04_09h10.13.519,task,2021.1.4,Win32,49.94755507,628b806c463b948bc644b84f,629af770de72fc6a8330486c,,,,,,,,,,,,,,,,,,,,,,,9,,,,,,,,,,Task,40,(7x2) - 5,9,,,,,,,,,,,,,,,,,,,1,,,,,,,,,,,,,,,,,,,,,,,"[""9""]",1,[1.9848000001908304],0,0,0,39,1,,,,,,,,,,,,,,,,,,
,,,,,,,,,,5f9aba6600cdf11f1c9b915c,24,Mężczyzna,2022-06-04_09h10.13.519,task,2021.1.4,Win32,49.94755507,628b806c463b948bc644b84f,629af770de72fc6a8330486c,,,,,,,,,,X V Q F H G B L J M P D K C T S W R N Z,,,,,,,,,,,,,,,,,,,,,,,,,,,,,,,,,,,,,,,,,,,,,,,,,,,,,,,,,,,,,,,,,,,,,,,,,,,,3,0,3,0,1,,,,,,,,,,,,,
,,,,,,,,,,5f9aba6600cdf11f1c9b915c,24,Mężczyzna,2022-06-04_09h10.13.519,task,2021.1.4,Win32,49.94755507,628b806c463b948bc644b84f,629af770de72fc6a8330486c,,,,,,,,,,,,,,,,,,,,,,,,,,,,,,,,,Task,15,(3x7) - 13,8,,,,,,,,,,,,,,,,,,,0,,,,,,,,,,,,,,,,,,,,,,,,0,,0,0,0,14,1,,,,,,,,,,,,,,,,,,
,,,,,,,,,,5f9aba6600cdf11f1c9b915c,24,Mężczyzna,2022-06-04_09h10.13.519,task,2021.1.4,Win32,49.94755507,628b806c463b948bc644b84f,629af770de72fc6a8330486c,,,,,,,,,,,,,,,,,,,,,,,,,,,,,,,,,Task,25,(10/5) - 2,0,,,,,,,,,,,,,,,,,,,0,,,,,,,,,,,,,,,,,,,,,,,,0,,0,1,1,24,1,,,,,,,,,,,,,,,,,,
,,,,,,,,,,5f9aba6600cdf11f1c9b915c,24,Mężczyzna,2022-06-04_09h10.13.519,task,2021.1.4,Win32,49.94755507,628b806c463b948bc644b84f,629af770de72fc6a8330486c,,,,,,,,,,,,,,,,,,,,,,,0,,,,,,,,,,Task,8,(1x5) - 5,0,,,,,,,,,,,,,,,,,,,1,,,,,,,,,,,,,,,,,,,,,,,"[""0""]",1,[1.2694000000952883],0,2,2,7,1,,,,,,,,,,,,,,,,,,
,,,,,,,,,,5f9aba6600cdf11f1c9b915c,24,Mężczyzna,2022-06-04_09h10.13.519,task,2021.1.4,Win32,49.94755507,628b806c463b948bc644b84f,629af770de72fc6a8330486c,,,,,,,,,,X V Q F H G B L J M P D K C T S W R N Z,,,,,,,,,,,,,,,,,,,,,,,,,,,,,,,,,,,,,,,,,,,,,,,,,,,,,,,,,,,,,,,,,,,,,,,,,,,,4,0,4,0,1,,,,,,,,,,,,,
,,,,,,,,,,5f9aba6600cdf11f1c9b915c,24,Mężczyzna,2022-06-04_09h10.13.519,task,2021.1.4,Win32,49.94755507,628b806c463b948bc644b84f,629af770de72fc6a8330486c,,,,,,,,,,,,,,,,,,,,,,,5,,,,,,,,,,Task,12,(4x4) - 11,5,,,,,,,,,,,,,,,,,,,1,,,,,,,,,,,,,,,,,,,,,,,"[""5""]",1,[1.2831999998093124],0,0,0,11,1,,,,,,,,,,,,,,,,,,
,,,,,,,,,,5f9aba6600cdf11f1c9b915c,24,Mężczyzna,2022-06-04_09h10.13.519,task,2021.1.4,Win32,49.94755507,628b806c463b948bc644b84f,629af770de72fc6a8330486c,,,,,,,,,,X V Q F H G B L J M P D K C T S W R N Z,,,,,,,,,,,,,,,,,,,,,,,,,,,,,,,,,,,,,,,,,,,,,,,,,,,,,,,,,,,,,,,,,,,,,,,,,,,,5,0,5,0,1,,,,,,,,,,,,,
,,,,,,,,,,5f9aba6600cdf11f1c9b915c,24,Mężczyzna,2022-06-04_09h10.13.519,task,2021.1.4,Win32,49.94755507,628b806c463b948bc644b84f,629af770de72fc6a8330486c,,,,,,,,,,,,,,,,,,,,,,,,,,,,,,,,,Task,38,(4x6) - 17,7,,,,,,,,,,,,,,,,,,,0,,,,,,,,,,,,,,,,,,,,,,,,0,,0,0,0,37,1,,,,,,,,,,,,,,,,,,
,,,,,,,,,,5f9aba6600cdf11f1c9b915c,24,Mężczyzna,2022-06-04_09h10.13.519,task,2021.1.4,Win32,49.94755507,628b806c463b948bc644b84f,629af770de72fc6a8330486c,,,,,,,,,,,,,,,,,,,,,,,8,,,,,,,,,,Task,39,(5x3) - 7,8,,,,,,,,,,,,,,,,,,,1,,,,,,,,,,,,,,,,,,,,,,,"[""8""]",1,[1.5253999998569725],0,1,1,38,1,,,,,,,,,,,,,,,,,,
,,,,,,,,,,5f9aba6600cdf11f1c9b915c,24,Mężczyzna,2022-06-04_09h10.13.519,task,2021.1.4,Win32,49.94755507,628b806c463b948bc644b84f,629af770de72fc6a8330486c,,,,,,,,,,X V Q F H G B L J M P D K C T S W R N Z,,,,,,,,,,,,,,,,,,,,,,,,,,,,,,,,,,,,,,,,,,,,,,,,,,,,,,,,,,,,,,,,,,,,,,,,,,,,6,0,6,0,1,,,,,,,,,,,,,
,,,,,,,,,,5f9aba6600cdf11f1c9b915c,24,Mężczyzna,2022-06-04_09h10.13.519,task,2021.1.4,Win32,49.94755507,628b806c463b948bc644b84f,629af770de72fc6a8330486c,,,,,,,,,,,,,,,,,,,,,,,,,,,,,,,,,,,,,,,,,,,,,,,,,,,,,,,,,,,,,,,,,,,,,,,,,,,,,,,,,,,,,,,,,,,mgnslmh,"[""m"",""g"",""n"",""s"",""l"",""m"",""h""]",0,"[2.1749999999999545,2.7798000001906757,3.799100000142971,4.4002000000476755,4.966400000095291,5.712999999999965,6.141700000047649,6.612100000143073]",1,MGNSLMH,7,0,7,0,1,,
,,,,,,,,,,5f9aba6600cdf11f1c9b915c,24,Mężczyzna,2022-06-04_09h10.13.519,task,2021.1.4,Win32,49.94755507,628b806c463b948bc644b84f,629af770de72fc6a8330486c,,,,,,,,,,,,,,,,,,,,,,,3,,,,,,,,,,Task,3,(2x3) - 3,3,,,,,,,,,,,,,,,,,,,1,,,,,,,,,,,,,,,,,,,,,,,"[""3""]",1,[2.1515000000000555],0,0,0,2,1,,,,,,,,,,,,,,,,,,
,,,,,,,,,,5f9aba6600cdf11f1c9b915c,24,Mężczyzna,2022-06-04_09h10.13.519,task,2021.1.4,Win32,49.94755507,628b806c463b948bc644b84f,629af770de72fc6a8330486c,,,,,,,,,,X V Q F H G B L J M P D K C T S W R N Z,,,,,,,,,,,,,,,,,,,,,,,,,,,,,,,,,,,,,,,,,,,,,,,,,,,,,,,,,,,,,,,,,,,,,,,,,,,,0,0,0,0,1,,,,,,,,,,,,,
,,,,,,,,,,5f9aba6600cdf11f1c9b915c,24,Mężczyzna,2022-06-04_09h10.13.519,task,2021.1.4,Win32,49.94755507,628b806c463b948bc644b84f,629af770de72fc6a8330486c,,,,,,,,,,,,,,,,,,,,,,,4,,,,,,,,,,Task,4,(1x5) - 1,4,,,,,,,,,,,,,,,,,,,1,,,,,,,,,,,,,,,,,,,,,,,"[""4""]",1,[1.1327999999522262],0,0,0,3,1,,,,,,,,,,,,,,,,,,
,,,,,,,,,,5f9aba6600cdf11f1c9b915c,24,Mężczyzna,2022-06-04_09h10.13.519,task,2021.1.4,Win32,49.94755507,628b806c463b948bc644b84f,629af770de72fc6a8330486c,,,,,,,,,,X V Q F H G B L J M P D K C T S W R N Z,,,,,,,,,,,,,,,,,,,,,,,,,,,,,,,,,,,,,,,,,,,,,,,,,,,,,,,,,,,,,,,,,,,,,,,,,,,,1,0,1,0,1,,,,,,,,,,,,,
,,,,,,,,,,5f9aba6600cdf11f1c9b915c,24,Mężczyzna,2022-06-04_09h10.13.519,task,2021.1.4,Win32,49.94755507,628b806c463b948bc644b84f,629af770de72fc6a8330486c,,,,,,,,,,,,,,,,,,,,,,,8,,,,,,,,,,Task,15,(3x7) - 13,8,,,,,,,,,,,,,,,,,,,1,,,,,,,,,,,,,,,,,,,,,,,"[""8""]",1,[1.7635000000000218],0,0,0,14,1,,,,,,,,,,,,,,,,,,
,,,,,,,,,,5f9aba6600cdf11f1c9b915c,24,Mężczyzna,2022-06-04_09h10.13.519,task,2021.1.4,Win32,49.94755507,628b806c463b948bc644b84f,629af770de72fc6a8330486c,,,,,,,,,,X V Q F H G B L J M P D K C T S W R N Z,,,,,,,,,,,,,,,,,,,,,,,,,,,,,,,,,,,,,,,,,,,,,,,,,,,,,,,,,,,,,,,,,,,,,,,,,,,,2,0,2,0,1,,,,,,,,,,,,,
,,,,,,,,,,5f9aba6600cdf11f1c9b915c,24,Mężczyzna,2022-06-04_09h10.13.519,task,2021.1.4,Win32,49.94755507,628b806c463b948bc644b84f,629af770de72fc6a8330486c,,,,,,,,,,,,,,,,,,,,,,,4,,,,,,,,,,Task,32,(8/2) + 4,8,,,,,,,,,,,,,,,,,,,0,,,,,,,,,,,,,,,,,,,,,,,"[""4""]",0,[1.3745000000000118],0,0,0,31,1,,,,,,,,,,,,,,,,,,
,,,,,,,,,,5f9aba6600cdf11f1c9b915c,24,Mężczyzna,2022-06-04_09h10.13.519,task,2021.1.4,Win32,49.94755507,628b806c463b948bc644b84f,629af770de72fc6a8330486c,,,,,,,,,,,,,,,,,,,,,,,1,,,,,,,,,,Task,34,(9/3) - 2,1,,,,,,,,,,,,,,,,,,,1,,,,,,,,,,,,,,,,,,,,,,,"[""1""]",1,[1.6454000000952647],0,1,1,33,1,,,,,,,,,,,,,,,,,,
,,,,,,,,,,5f9aba6600cdf11f1c9b915c,24,Mężczyzna,2022-06-04_09h10.13.519,task,2021.1.4,Win32,49.94755507,628b806c463b948bc644b84f,629af770de72fc6a8330486c,,,,,,,,,,X V Q F H G B L J M P D K C T S W R N Z,,,,,,,,,,,,,,,,,,,,,,,,,,,,,,,,,,,,,,,,,,,,,,,,,,,,,,,,,,,,,,,,,,,,,,,,,,,,3,0,3,0,1,,,,,,,,,,,,,
,,,,,,,,,,5f9aba6600cdf11f1c9b915c,24,Mężczyzna,2022-06-04_09h10.13.519,task,2021.1.4,Win32,49.94755507,628b806c463b948bc644b84f,629af770de72fc6a8330486c,,,,,,,,,,,,,,,,,,,,,,,8,,,,,,,,,,Task,39,(5x3) - 7,8,,,,,,,,,,,,,,,,,,,1,,,,,,,,,,,,,,,,,,,,,,,"[""8""]",1,[1.6217000000476673],0,0,0,38,1,,,,,,,,,,,,,,,,,,
,,,,,,,,,,5f9aba6600cdf11f1c9b915c,24,Mężczyzna,2022-06-04_09h10.13.519,task,2021.1.4,Win32,49.94755507,628b806c463b948bc644b84f,629af770de72fc6a8330486c,,,,,,,,,,X V Q F H G B L J M P D K C T S W R N Z,,,,,,,,,,,,,,,,,,,,,,,,,,,,,,,,,,,,,,,,,,,,,,,,,,,,,,,,,,,,,,,,,,,,,,,,,,,,4,0,4,0,1,,,,,,,,,,,,,
,,,,,,,,,,5f9aba6600cdf11f1c9b915c,24,Mężczyzna,2022-06-04_09h10.13.519,task,2021.1.4,Win32,49.94755507,628b806c463b948bc644b84f,629af770de72fc6a8330486c,,,,,,,,,,,,,,,,,,,,,,,1,,,,,,,,,,Task,9,(3x7) - 20,1,,,,,,,,,,,,,,,,,,,1,,,,,,,,,,,,,,,,,,,,,,,"[""1""]",1,[1.4010000000000673],0,0,0,8,1,,,,,,,,,,,,,,,,,,
,,,,,,,,,,5f9aba6600cdf11f1c9b915c,24,Mężczyzna,2022-06-04_09h10.13.519,task,2021.1.4,Win32,49.94755507,628b806c463b948bc644b84f,629af770de72fc6a8330486c,,,,,,,,,,X V Q F H G B L J M P D K C T S W R N Z,,,,,,,,,,,,,,,,,,,,,,,,,,,,,,,,,,,,,,,,,,,,,,,,,,,,,,,,,,,,,,,,,,,,,,,,,,,,5,0,5,0,1,,,,,,,,,,,,,
,,,,,,,,,,5f9aba6600cdf11f1c9b915c,24,Mężczyzna,2022-06-04_09h10.13.519,task,2021.1.4,Win32,49.94755507,628b806c463b948bc644b84f,629af770de72fc6a8330486c,,,,,,,,,,,,,,,,,,,,,,,5,,,,,,,,,,Task,29,(3x8) - 19 ,5,,,,,,,,,,,,,,,,,,,1,,,,,,,,,,,,,,,,,,,,,,,"[""5""]",1,[1.9400000000000546],0,0,0,28,1,,,,,,,,,,,,,,,,,,
,,,,,,,,,,5f9aba6600cdf11f1c9b915c,24,Mężczyzna,2022-06-04_09h10.13.519,task,2021.1.4,Win32,49.94755507,628b806c463b948bc644b84f,629af770de72fc6a8330486c,,,,,,,,,,X V Q F H G B L J M P D K C T S W R N Z,,,,,,,,,,,,,,,,,,,,,,,,,,,,,,,,,,,,,,,,,,,,,,,,,,,,,,,,,,,,,,,,,,,,,,,,,,,,6,0,6,0,1,,,,,,,,,,,,,
,,,,,,,,,,5f9aba6600cdf11f1c9b915c,24,Mężczyzna,2022-06-04_09h10.13.519,task,2021.1.4,Win32,49.94755507,628b806c463b948bc644b84f,629af770de72fc6a8330486c,,,,,,,,,,,,,,,,,,,,,,,,,,,,,,,,,Task,10,(2x5) - 8,2,,,,,,,,,,,,,,,,,,,0,,,,,,,,,,,,,,,,,,,,,,,,0,,0,0,0,9,1,,,,,,,,,,,,,,,,,,
