key_resp_15.keys,key_resp_15.rt,key_resp_16.keys,key_resp_16.rt,key_resp_4.keys,key_resp_4.rt,next_letter.thisRepN,next_letter.thisTrialN,next_letter.thisN,next_letter.thisIndex,next_letter.ran,letter,participant,Wiek*,Płeć,date,expName,psychopyVersion,OS,frameRate,study_id,session,simple_recall,key_resp_5.keys,key_resp_5.rt,simple_recall_corr,simple_recall_corrkeys,next_level.thisRepN,next_level.thisTrialN,next_level.thisN,next_level.thisIndex,next_level.ran,key_resp_2.keys,key_resp_2.rt,digit_answer,key_resp.keys,key_resp.corr,key_resp.rt,RT_list,next_equation.thisRepN,next_equation.thisTrialN,next_equation.thisN,next_equation.thisIndex,next_equation.ran,Task,Trial,Problem,Operation_answer,processing_score,sumRT,meanRT,sumdiff,sd,RT,key_resp_3.keys,key_resp_3.rt,repeat_practice.thisRepN,repeat_practice.thisTrialN,repeat_practice.thisN,repeat_practice.thisIndex,repeat_practice.ran,key_resp_6.keys,key_resp_6.rt,key_resp_11.keys,key_resp_11.corr,key_resp_11.rt,operation_correct,repeat_if_wrong_prac.thisRepN,repeat_if_wrong_prac.thisTrialN,repeat_if_wrong_prac.thisN,repeat_if_wrong_prac.thisIndex,repeat_if_wrong_prac.ran,span_size_prac.thisRepN,span_size_prac.thisTrialN,span_size_prac.thisN,span_size_prac.thisIndex,span_size_prac.ran,complex_recall_practice,key_resp_9.keys,key_resp_9.corr,key_resp_9.rt,complex_prac_corr,span_recall_prac.thisRepN,span_recall_prac.thisTrialN,span_recall_prac.thisN,span_recall_prac.thisIndex,span_recall_prac.ran,key_resp_10.keys,key_resp_10.rt,key_resp_7.keys,key_resp_7.corr,key_resp_7.rt,repeat_if_wrong.thisRepN,repeat_if_wrong.thisTrialN,repeat_if_wrong.thisN,repeat_if_wrong.thisIndex,repeat_if_wrong.ran,span_size.thisRepN,span_size.thisTrialN,span_size.thisN,span_size.thisIndex,span_size.ran,complex_recall,key_resp_8.keys,key_resp_8.corr,key_resp_8.rt,complex_recall_corr,complex_recall_corrkeys,span_recall.thisRepN,span_recall.thisTrialN,span_recall.thisN,span_recall.thisIndex,span_recall.ran,key_resp_13.keys,key_resp_13.corr,key_resp_13.rt,random_loop.thisRepN,random_loop.thisTrialN,random_loop.thisN,random_loop.thisIndex,random_loop.ran,key_resp_12.keys,key_resp_12.rt
space,5.7203,space,4.1415,space,8.1844,0,0,0,0,1,X V Q F H G B L J M P D K C T S W R N Z,5fa25dd28b0f6842755417f3,19,Mężczyzna,2022-06-11_09h36.47.586,task,2021.1.4,MacIntel,60.0024001,6299f149e92ead563fba08ef,62a44603ec6699af1dc20160,,,,,,,,,,,,,,,,,,,,,,,,,,,,,,,,,,,,,,,,,,,,,,,,,,,,,,,,,,,,,,,,,,,,,,,,,,,,,,,,,,,,,,,,,,,,,,,,,,,,,
,,,,,,1,0,1,0,1,X V Q F H G B L J M P D K C T S W R N Z,5fa25dd28b0f6842755417f3,19,Mężczyzna,2022-06-11_09h36.47.586,task,2021.1.4,MacIntel,60.0024001,6299f149e92ead563fba08ef,62a44603ec6699af1dc20160,,,,,,,,,,,,,,,,,,,,,,,,,,,,,,,,,,,,,,,,,,,,,,,,,,,,,,,,,,,,,,,,,,,,,,,,,,,,,,,,,,,,,,,,,,,,,,,,,,,,,
,,,,,,,,,,,,5fa25dd28b0f6842755417f3,19,Mężczyzna,2022-06-11_09h36.47.586,task,2021.1.4,MacIntel,60.0024001,6299f149e92ead563fba08ef,62a44603ec6699af1dc20160,zv,"[""z"",""v""]","[1.7561999999880769,2.158199999988078,23.50719999998808]",1,ZV,0,0,0,0,1,,,,,,,,,,,,,,,,,,,,,,,,,,,,,,,,,,,,,,,,,,,,,,,,,,,,,,,,,,,,,,,,,,,,,,,,,,,,,,,,,,,,,,,,,,,
,,,,,,0,0,0,0,1,X V Q F H G B L J M P D K C T S W R N Z,5fa25dd28b0f6842755417f3,19,Mężczyzna,2022-06-11_09h36.47.586,task,2021.1.4,MacIntel,60.0024001,6299f149e92ead563fba08ef,62a44603ec6699af1dc20160,,,,,,,,,,,,,,,,,,,,,,,,,,,,,,,,,,,,,,,,,,,,,,,,,,,,,,,,,,,,,,,,,,,,,,,,,,,,,,,,,,,,,,,,,,,,,,,,,,,,,
,,,,,,1,0,1,0,1,X V Q F H G B L J M P D K C T S W R N Z,5fa25dd28b0f6842755417f3,19,Mężczyzna,2022-06-11_09h36.47.586,task,2021.1.4,MacIntel,60.0024001,6299f149e92ead563fba08ef,62a44603ec6699af1dc20160,,,,,,,,,,,,,,,,,,,,,,,,,,,,,,,,,,,,,,,,,,,,,,,,,,,,,,,,,,,,,,,,,,,,,,,,,,,,,,,,,,,,,,,,,,,,,,,,,,,,,
,,,,,,,,,,,,5fa25dd28b0f6842755417f3,19,Mężczyzna,2022-06-11_09h36.47.586,task,2021.1.4,MacIntel,60.0024001,6299f149e92ead563fba08ef,62a44603ec6699af1dc20160,tk,"[""t"",""k""]","[1.333299999997017,1.4963999999910556,1.8167999999970164]",1,TK,1,0,1,0,1,,,,,,,,,,,,,,,,,,,,,,,,,,,,,,,,,,,,,,,,,,,,,,,,,,,,,,,,,,,,,,,,,,,,,,,,,,,,,,,,,,,,,,,,,,,
,,,,,,0,0,0,0,1,X V Q F H G B L J M P D K C T S W R N Z,5fa25dd28b0f6842755417f3,19,Mężczyzna,2022-06-11_09h36.47.586,task,2021.1.4,MacIntel,60.0024001,6299f149e92ead563fba08ef,62a44603ec6699af1dc20160,,,,,,,,,,,,,,,,,,,,,,,,,,,,,,,,,,,,,,,,,,,,,,,,,,,,,,,,,,,,,,,,,,,,,,,,,,,,,,,,,,,,,,,,,,,,,,,,,,,,,
,,,,,,1,0,1,0,1,X V Q F H G B L J M P D K C T S W R N Z,5fa25dd28b0f6842755417f3,19,Mężczyzna,2022-06-11_09h36.47.586,task,2021.1.4,MacIntel,60.0024001,6299f149e92ead563fba08ef,62a44603ec6699af1dc20160,,,,,,,,,,,,,,,,,,,,,,,,,,,,,,,,,,,,,,,,,,,,,,,,,,,,,,,,,,,,,,,,,,,,,,,,,,,,,,,,,,,,,,,,,,,,,,,,,,,,,
,,,,,,2,0,2,0,1,X V Q F H G B L J M P D K C T S W R N Z,5fa25dd28b0f6842755417f3,19,Mężczyzna,2022-06-11_09h36.47.586,task,2021.1.4,MacIntel,60.0024001,6299f149e92ead563fba08ef,62a44603ec6699af1dc20160,,,,,,,,,,,,,,,,,,,,,,,,,,,,,,,,,,,,,,,,,,,,,,,,,,,,,,,,,,,,,,,,,,,,,,,,,,,,,,,,,,,,,,,,,,,,,,,,,,,,,
,,,,,,,,,,,,5fa25dd28b0f6842755417f3,19,Mężczyzna,2022-06-11_09h36.47.586,task,2021.1.4,MacIntel,60.0024001,6299f149e92ead563fba08ef,62a44603ec6699af1dc20160,mmh,"[""m"",""m"",""h""]","[1.0479000000059528,1.1677000000029807,1.4894999999999925,1.6654999999999944]",1,MMH,2,0,2,0,1,,,,,,,,,,,,,,,,,,,,,,,,,,,,,,,,,,,,,,,,,,,,,,,,,,,,,,,,,,,,,,,,,,,,,,,,,,,,,,,,,,,,,,,,,,,
,,,,,,0,0,0,0,1,X V Q F H G B L J M P D K C T S W R N Z,5fa25dd28b0f6842755417f3,19,Mężczyzna,2022-06-11_09h36.47.586,task,2021.1.4,MacIntel,60.0024001,6299f149e92ead563fba08ef,62a44603ec6699af1dc20160,,,,,,,,,,,,,,,,,,,,,,,,,,,,,,,,,,,,,,,,,,,,,,,,,,,,,,,,,,,,,,,,,,,,,,,,,,,,,,,,,,,,,,,,,,,,,,,,,,,,,
,,,,,,1,0,1,0,1,X V Q F H G B L J M P D K C T S W R N Z,5fa25dd28b0f6842755417f3,19,Mężczyzna,2022-06-11_09h36.47.586,task,2021.1.4,MacIntel,60.0024001,6299f149e92ead563fba08ef,62a44603ec6699af1dc20160,,,,,,,,,,,,,,,,,,,,,,,,,,,,,,,,,,,,,,,,,,,,,,,,,,,,,,,,,,,,,,,,,,,,,,,,,,,,,,,,,,,,,,,,,,,,,,,,,,,,,
,,,,,,2,0,2,0,1,X V Q F H G B L J M P D K C T S W R N Z,5fa25dd28b0f6842755417f3,19,Mężczyzna,2022-06-11_09h36.47.586,task,2021.1.4,MacIntel,60.0024001,6299f149e92ead563fba08ef,62a44603ec6699af1dc20160,,,,,,,,,,,,,,,,,,,,,,,,,,,,,,,,,,,,,,,,,,,,,,,,,,,,,,,,,,,,,,,,,,,,,,,,,,,,,,,,,,,,,,,,,,,,,,,,,,,,,
,,,,,,,,,,,,5fa25dd28b0f6842755417f3,19,Mężczyzna,2022-06-11_09h36.47.586,task,2021.1.4,MacIntel,60.0024001,6299f149e92ead563fba08ef,62a44603ec6699af1dc20160,vfn,"[""v"",""f"",""n""]","[1.3492000000029805,1.5334000000059689,1.7166000000089525,2.0338000000119223]",1,VFN,3,0,3,0,1,,,,,,,,,,,,,,,,,,,,,,,,,,,,,,,,,,,,,,,,,,,,,,,,,,,,,,,,,,,,,,,,,,,,,,,,,,,,,,,,,,,,,,,,,,,
,,,,,,0,0,0,0,1,X V Q F H G B L J M P D K C T S W R N Z,5fa25dd28b0f6842755417f3,19,Mężczyzna,2022-06-11_09h36.47.586,task,2021.1.4,MacIntel,60.0024001,6299f149e92ead563fba08ef,62a44603ec6699af1dc20160,,,,,,,,,,,,,,,,,,,,,,,,,,,,,,,,,,,,,,,,,,,,,,,,,,,,,,,,,,,,,,,,,,,,,,,,,,,,,,,,,,,,,,,,,,,,,,,,,,,,,
,,,,,,1,0,1,0,1,X V Q F H G B L J M P D K C T S W R N Z,5fa25dd28b0f6842755417f3,19,Mężczyzna,2022-06-11_09h36.47.586,task,2021.1.4,MacIntel,60.0024001,6299f149e92ead563fba08ef,62a44603ec6699af1dc20160,,,,,,,,,,,,,,,,,,,,,,,,,,,,,,,,,,,,,,,,,,,,,,,,,,,,,,,,,,,,,,,,,,,,,,,,,,,,,,,,,,,,,,,,,,,,,,,,,,,,,
,,,,,,2,0,2,0,1,X V Q F H G B L J M P D K C T S W R N Z,5fa25dd28b0f6842755417f3,19,Mężczyzna,2022-06-11_09h36.47.586,task,2021.1.4,MacIntel,60.0024001,6299f149e92ead563fba08ef,62a44603ec6699af1dc20160,,,,,,,,,,,,,,,,,,,,,,,,,,,,,,,,,,,,,,,,,,,,,,,,,,,,,,,,,,,,,,,,,,,,,,,,,,,,,,,,,,,,,,,,,,,,,,,,,,,,,
,,,,,,3,0,3,0,1,X V Q F H G B L J M P D K C T S W R N Z,5fa25dd28b0f6842755417f3,19,Mężczyzna,2022-06-11_09h36.47.586,task,2021.1.4,MacIntel,60.0024001,6299f149e92ead563fba08ef,62a44603ec6699af1dc20160,,,,,,,,,,,,,,,,,,,,,,,,,,,,,,,,,,,,,,,,,,,,,,,,,,,,,,,,,,,,,,,,,,,,,,,,,,,,,,,,,,,,,,,,,,,,,,,,,,,,,
,,,,,,,,,,,,5fa25dd28b0f6842755417f3,19,Mężczyzna,2022-06-11_09h36.47.586,task,2021.1.4,MacIntel,60.0024001,6299f149e92ead563fba08ef,62a44603ec6699af1dc20160,gpjf,"[""g"",""p"",""j"",""f""]","[1.6383000000119239,2.0459000000059717,2.2758000000119267,2.6704000000059693,2.884300000011919]",1,GPJF,4,0,4,0,1,,,,,,,,,,,,,,,,,,,,,,,,,,,,,,,,,,,,,,,,,,,,,,,,,,,,,,,,,,,,,,,,,,,,,,,,,,,,,,,,,,,,,,,,,,,
,,,,,,0,0,0,0,1,X V Q F H G B L J M P D K C T S W R N Z,5fa25dd28b0f6842755417f3,19,Mężczyzna,2022-06-11_09h36.47.586,task,2021.1.4,MacIntel,60.0024001,6299f149e92ead563fba08ef,62a44603ec6699af1dc20160,,,,,,,,,,,,,,,,,,,,,,,,,,,,,,,,,,,,,,,,,,,,,,,,,,,,,,,,,,,,,,,,,,,,,,,,,,,,,,,,,,,,,,,,,,,,,,,,,,,,,
,,,,,,1,0,1,0,1,X V Q F H G B L J M P D K C T S W R N Z,5fa25dd28b0f6842755417f3,19,Mężczyzna,2022-06-11_09h36.47.586,task,2021.1.4,MacIntel,60.0024001,6299f149e92ead563fba08ef,62a44603ec6699af1dc20160,,,,,,,,,,,,,,,,,,,,,,,,,,,,,,,,,,,,,,,,,,,,,,,,,,,,,,,,,,,,,,,,,,,,,,,,,,,,,,,,,,,,,,,,,,,,,,,,,,,,,
,,,,,,2,0,2,0,1,X V Q F H G B L J M P D K C T S W R N Z,5fa25dd28b0f6842755417f3,19,Mężczyzna,2022-06-11_09h36.47.586,task,2021.1.4,MacIntel,60.0024001,6299f149e92ead563fba08ef,62a44603ec6699af1dc20160,,,,,,,,,,,,,,,,,,,,,,,,,,,,,,,,,,,,,,,,,,,,,,,,,,,,,,,,,,,,,,,,,,,,,,,,,,,,,,,,,,,,,,,,,,,,,,,,,,,,,
,,,,,,3,0,3,0,1,X V Q F H G B L J M P D K C T S W R N Z,5fa25dd28b0f6842755417f3,19,Mężczyzna,2022-06-11_09h36.47.586,task,2021.1.4,MacIntel,60.0024001,6299f149e92ead563fba08ef,62a44603ec6699af1dc20160,,,,,,,,,,,,,,,,,,,,,,,,,,,,,,,,,,,,,,,,,,,,,,,,,,,,,,,,,,,,,,,,,,,,,,,,,,,,,,,,,,,,,,,,,,,,,,,,,,,,,
,,,,,,,,,,,,5fa25dd28b0f6842755417f3,19,Mężczyzna,2022-06-11_09h36.47.586,task,2021.1.4,MacIntel,60.0024001,6299f149e92ead563fba08ef,62a44603ec6699af1dc20160,nnhj,"[""n"",""n"",""h"",""j""]","[1.2741000000089429,1.4179000000059574,1.5999999999999943,1.7504000000059534,2.051000000000002]",1,NNHJ,5,0,5,0,1,,,,,,,,,,,,,,,,,,,,,,,,,,,,,,,,,,,,,,,,,,,,,,,,,,,,,,,,,,,,,,,,,,,,,,,,,,,,,,,,,,,,,,,,,,,
,,,,,,0,0,0,0,1,X V Q F H G B L J M P D K C T S W R N Z,5fa25dd28b0f6842755417f3,19,Mężczyzna,2022-06-11_09h36.47.586,task,2021.1.4,MacIntel,60.0024001,6299f149e92ead563fba08ef,62a44603ec6699af1dc20160,,,,,,,,,,,,,,,,,,,,,,,,,,,,,,,,,,,,,,,,,,,,,,,,,,,,,,,,,,,,,,,,,,,,,,,,,,,,,,,,,,,,,,,,,,,,,,,,,,,,,
,,,,,,1,0,1,0,1,X V Q F H G B L J M P D K C T S W R N Z,5fa25dd28b0f6842755417f3,19,Mężczyzna,2022-06-11_09h36.47.586,task,2021.1.4,MacIntel,60.0024001,6299f149e92ead563fba08ef,62a44603ec6699af1dc20160,,,,,,,,,,,,,,,,,,,,,,,,,,,,,,,,,,,,,,,,,,,,,,,,,,,,,,,,,,,,,,,,,,,,,,,,,,,,,,,,,,,,,,,,,,,,,,,,,,,,,
,,,,,,2,0,2,0,1,X V Q F H G B L J M P D K C T S W R N Z,5fa25dd28b0f6842755417f3,19,Mężczyzna,2022-06-11_09h36.47.586,task,2021.1.4,MacIntel,60.0024001,6299f149e92ead563fba08ef,62a44603ec6699af1dc20160,,,,,,,,,,,,,,,,,,,,,,,,,,,,,,,,,,,,,,,,,,,,,,,,,,,,,,,,,,,,,,,,,,,,,,,,,,,,,,,,,,,,,,,,,,,,,,,,,,,,,
,,,,,,3,0,3,0,1,X V Q F H G B L J M P D K C T S W R N Z,5fa25dd28b0f6842755417f3,19,Mężczyzna,2022-06-11_09h36.47.586,task,2021.1.4,MacIntel,60.0024001,6299f149e92ead563fba08ef,62a44603ec6699af1dc20160,,,,,,,,,,,,,,,,,,,,,,,,,,,,,,,,,,,,,,,,,,,,,,,,,,,,,,,,,,,,,,,,,,,,,,,,,,,,,,,,,,,,,,,,,,,,,,,,,,,,,
,,,,,,4,0,4,0,1,X V Q F H G B L J M P D K C T S W R N Z,5fa25dd28b0f6842755417f3,19,Mężczyzna,2022-06-11_09h36.47.586,task,2021.1.4,MacIntel,60.0024001,6299f149e92ead563fba08ef,62a44603ec6699af1dc20160,,,,,,,,,,,,,,,,,,,,,,,,,,,,,,,,,,,,,,,,,,,,,,,,,,,,,,,,,,,,,,,,,,,,,,,,,,,,,,,,,,,,,,,,,,,,,,,,,,,,,
,,,,,,,,,,,,5fa25dd28b0f6842755417f3,19,Mężczyzna,2022-06-11_09h36.47.586,task,2021.1.4,MacIntel,60.0024001,6299f149e92ead563fba08ef,62a44603ec6699af1dc20160,rgbqn,"[""r"",""g"",""b"",""q"",""n""]","[1.3502000000029852,1.518600000008945,1.7157000000029825,1.970000000000013,2.2990000000000066,3.2194000000059617]",1,RGBQN,6,0,6,0,1,,,,,,,,,,,,,,,,,,,,,,,,,,,,,,,,,,,,,,,,,,,,,,,,,,,,,,,,,,,,,,,,,,,,,,,,,,,,,,,,,,,,,,,,,,,
,,,,,,0,0,0,0,1,X V Q F H G B L J M P D K C T S W R N Z,5fa25dd28b0f6842755417f3,19,Mężczyzna,2022-06-11_09h36.47.586,task,2021.1.4,MacIntel,60.0024001,6299f149e92ead563fba08ef,62a44603ec6699af1dc20160,,,,,,,,,,,,,,,,,,,,,,,,,,,,,,,,,,,,,,,,,,,,,,,,,,,,,,,,,,,,,,,,,,,,,,,,,,,,,,,,,,,,,,,,,,,,,,,,,,,,,
,,,,,,1,0,1,0,1,X V Q F H G B L J M P D K C T S W R N Z,5fa25dd28b0f6842755417f3,19,Mężczyzna,2022-06-11_09h36.47.586,task,2021.1.4,MacIntel,60.0024001,6299f149e92ead563fba08ef,62a44603ec6699af1dc20160,,,,,,,,,,,,,,,,,,,,,,,,,,,,,,,,,,,,,,,,,,,,,,,,,,,,,,,,,,,,,,,,,,,,,,,,,,,,,,,,,,,,,,,,,,,,,,,,,,,,,
,,,,,,2,0,2,0,1,X V Q F H G B L J M P D K C T S W R N Z,5fa25dd28b0f6842755417f3,19,Mężczyzna,2022-06-11_09h36.47.586,task,2021.1.4,MacIntel,60.0024001,6299f149e92ead563fba08ef,62a44603ec6699af1dc20160,,,,,,,,,,,,,,,,,,,,,,,,,,,,,,,,,,,,,,,,,,,,,,,,,,,,,,,,,,,,,,,,,,,,,,,,,,,,,,,,,,,,,,,,,,,,,,,,,,,,,
,,,,,,3,0,3,0,1,X V Q F H G B L J M P D K C T S W R N Z,5fa25dd28b0f6842755417f3,19,Mężczyzna,2022-06-11_09h36.47.586,task,2021.1.4,MacIntel,60.0024001,6299f149e92ead563fba08ef,62a44603ec6699af1dc20160,,,,,,,,,,,,,,,,,,,,,,,,,,,,,,,,,,,,,,,,,,,,,,,,,,,,,,,,,,,,,,,,,,,,,,,,,,,,,,,,,,,,,,,,,,,,,,,,,,,,,
,,,,,,4,0,4,0,1,X V Q F H G B L J M P D K C T S W R N Z,5fa25dd28b0f6842755417f3,19,Mężczyzna,2022-06-11_09h36.47.586,task,2021.1.4,MacIntel,60.0024001,6299f149e92ead563fba08ef,62a44603ec6699af1dc20160,,,,,,,,,,,,,,,,,,,,,,,,,,,,,,,,,,,,,,,,,,,,,,,,,,,,,,,,,,,,,,,,,,,,,,,,,,,,,,,,,,,,,,,,,,,,,,,,,,,,,
,,,,,,,,,,,,5fa25dd28b0f6842755417f3,19,Mężczyzna,2022-06-11_09h36.47.586,task,2021.1.4,MacIntel,60.0024001,6299f149e92ead563fba08ef,62a44603ec6699af1dc20160,rdtkz,"[""r"",""d"",""t"",""k"",""z""]","[2.2179000000059688,2.800900000005967,3.3042999999970277,3.616599999994037,3.8327999999970217,4.015400000005968]",1,RDTKZ,7,0,7,0,1,,,,,,,,,,,,,,,,,,,,,,,,,,,,,,,,,,,,,,,,,,,,,,,,,,,,,,,,,,,,,,,,,,,,,,,,,,,,,,,,,,,,,,,,,,,
,,,,,,0,0,0,0,1,X V Q F H G B L J M P D K C T S W R N Z,5fa25dd28b0f6842755417f3,19,Mężczyzna,2022-06-11_09h36.47.586,task,2021.1.4,MacIntel,60.0024001,6299f149e92ead563fba08ef,62a44603ec6699af1dc20160,,,,,,,,,,,,,,,,,,,,,,,,,,,,,,,,,,,,,,,,,,,,,,,,,,,,,,,,,,,,,,,,,,,,,,,,,,,,,,,,,,,,,,,,,,,,,,,,,,,,,
,,,,,,1,0,1,0,1,X V Q F H G B L J M P D K C T S W R N Z,5fa25dd28b0f6842755417f3,19,Mężczyzna,2022-06-11_09h36.47.586,task,2021.1.4,MacIntel,60.0024001,6299f149e92ead563fba08ef,62a44603ec6699af1dc20160,,,,,,,,,,,,,,,,,,,,,,,,,,,,,,,,,,,,,,,,,,,,,,,,,,,,,,,,,,,,,,,,,,,,,,,,,,,,,,,,,,,,,,,,,,,,,,,,,,,,,
,,,,,,2,0,2,0,1,X V Q F H G B L J M P D K C T S W R N Z,5fa25dd28b0f6842755417f3,19,Mężczyzna,2022-06-11_09h36.47.586,task,2021.1.4,MacIntel,60.0024001,6299f149e92ead563fba08ef,62a44603ec6699af1dc20160,,,,,,,,,,,,,,,,,,,,,,,,,,,,,,,,,,,,,,,,,,,,,,,,,,,,,,,,,,,,,,,,,,,,,,,,,,,,,,,,,,,,,,,,,,,,,,,,,,,,,
,,,,,,3,0,3,0,1,X V Q F H G B L J M P D K C T S W R N Z,5fa25dd28b0f6842755417f3,19,Mężczyzna,2022-06-11_09h36.47.586,task,2021.1.4,MacIntel,60.0024001,6299f149e92ead563fba08ef,62a44603ec6699af1dc20160,,,,,,,,,,,,,,,,,,,,,,,,,,,,,,,,,,,,,,,,,,,,,,,,,,,,,,,,,,,,,,,,,,,,,,,,,,,,,,,,,,,,,,,,,,,,,,,,,,,,,
,,,,,,4,0,4,0,1,X V Q F H G B L J M P D K C T S W R N Z,5fa25dd28b0f6842755417f3,19,Mężczyzna,2022-06-11_09h36.47.586,task,2021.1.4,MacIntel,60.0024001,6299f149e92ead563fba08ef,62a44603ec6699af1dc20160,,,,,,,,,,,,,,,,,,,,,,,,,,,,,,,,,,,,,,,,,,,,,,,,,,,,,,,,,,,,,,,,,,,,,,,,,,,,,,,,,,,,,,,,,,,,,,,,,,,,,
,,,,,,5,0,5,0,1,X V Q F H G B L J M P D K C T S W R N Z,5fa25dd28b0f6842755417f3,19,Mężczyzna,2022-06-11_09h36.47.586,task,2021.1.4,MacIntel,60.0024001,6299f149e92ead563fba08ef,62a44603ec6699af1dc20160,,,,,,,,,,,,,,,,,,,,,,,,,,,,,,,,,,,,,,,,,,,,,,,,,,,,,,,,,,,,,,,,,,,,,,,,,,,,,,,,,,,,,,,,,,,,,,,,,,,,,
,,,,,,,,,,,,5fa25dd28b0f6842755417f3,19,Mężczyzna,2022-06-11_09h36.47.586,task,2021.1.4,MacIntel,60.0024001,6299f149e92ead563fba08ef,62a44603ec6699af1dc20160,mxnhdb,"[""m"",""x"",""n"",""h"",""d"",""b""]","[2.9872999999970204,3.3007999999970252,3.599700000002983,3.8589999999999947,4.733099999994039,4.819200000002979,6.635999999999996]",1,MXNHDB,8,0,8,0,1,,,,,,,,,,,,,,,,,,,,,,,,,,,,,,,,,,,,,,,,,,,,,,,,,,,,,,,,,,,,,,,,,,,,,,,,,,,,,,,,,,,,,,,,,,,
,,,,,,0,0,0,0,1,X V Q F H G B L J M P D K C T S W R N Z,5fa25dd28b0f6842755417f3,19,Mężczyzna,2022-06-11_09h36.47.586,task,2021.1.4,MacIntel,60.0024001,6299f149e92ead563fba08ef,62a44603ec6699af1dc20160,,,,,,,,,,,,,,,,,,,,,,,,,,,,,,,,,,,,,,,,,,,,,,,,,,,,,,,,,,,,,,,,,,,,,,,,,,,,,,,,,,,,,,,,,,,,,,,,,,,,,
,,,,,,1,0,1,0,1,X V Q F H G B L J M P D K C T S W R N Z,5fa25dd28b0f6842755417f3,19,Mężczyzna,2022-06-11_09h36.47.586,task,2021.1.4,MacIntel,60.0024001,6299f149e92ead563fba08ef,62a44603ec6699af1dc20160,,,,,,,,,,,,,,,,,,,,,,,,,,,,,,,,,,,,,,,,,,,,,,,,,,,,,,,,,,,,,,,,,,,,,,,,,,,,,,,,,,,,,,,,,,,,,,,,,,,,,
,,,,,,2,0,2,0,1,X V Q F H G B L J M P D K C T S W R N Z,5fa25dd28b0f6842755417f3,19,Mężczyzna,2022-06-11_09h36.47.586,task,2021.1.4,MacIntel,60.0024001,6299f149e92ead563fba08ef,62a44603ec6699af1dc20160,,,,,,,,,,,,,,,,,,,,,,,,,,,,,,,,,,,,,,,,,,,,,,,,,,,,,,,,,,,,,,,,,,,,,,,,,,,,,,,,,,,,,,,,,,,,,,,,,,,,,
,,,,,,3,0,3,0,1,X V Q F H G B L J M P D K C T S W R N Z,5fa25dd28b0f6842755417f3,19,Mężczyzna,2022-06-11_09h36.47.586,task,2021.1.4,MacIntel,60.0024001,6299f149e92ead563fba08ef,62a44603ec6699af1dc20160,,,,,,,,,,,,,,,,,,,,,,,,,,,,,,,,,,,,,,,,,,,,,,,,,,,,,,,,,,,,,,,,,,,,,,,,,,,,,,,,,,,,,,,,,,,,,,,,,,,,,
,,,,,,4,0,4,0,1,X V Q F H G B L J M P D K C T S W R N Z,5fa25dd28b0f6842755417f3,19,Mężczyzna,2022-06-11_09h36.47.586,task,2021.1.4,MacIntel,60.0024001,6299f149e92ead563fba08ef,62a44603ec6699af1dc20160,,,,,,,,,,,,,,,,,,,,,,,,,,,,,,,,,,,,,,,,,,,,,,,,,,,,,,,,,,,,,,,,,,,,,,,,,,,,,,,,,,,,,,,,,,,,,,,,,,,,,
,,,,,,5,0,5,0,1,X V Q F H G B L J M P D K C T S W R N Z,5fa25dd28b0f6842755417f3,19,Mężczyzna,2022-06-11_09h36.47.586,task,2021.1.4,MacIntel,60.0024001,6299f149e92ead563fba08ef,62a44603ec6699af1dc20160,,,,,,,,,,,,,,,,,,,,,,,,,,,,,,,,,,,,,,,,,,,,,,,,,,,,,,,,,,,,,,,,,,,,,,,,,,,,,,,,,,,,,,,,,,,,,,,,,,,,,
,,,,,,,,,,,,5fa25dd28b0f6842755417f3,19,Mężczyzna,2022-06-11_09h36.47.586,task,2021.1.4,MacIntel,60.0024001,6299f149e92ead563fba08ef,62a44603ec6699af1dc20160,tzxxcx,"[""t"",""z"",""x"",""x"",""c"",""x""]","[1.5007999999970139,2.849000000000018,3.449099999994047,3.897399999991052,4.355099999994053,4.4833999999910645,4.716499999999996]",1,TZXXCX,9,0,9,0,1,,,,,,,,,,,,,,,,,,,,,,,,,,,,,,,,,,,,,,,,,,,,,,,,,,,,,,,,,,,,,,,,,,,,,,,,,,,,,,,,,,,,,,,,,,,
,,,,,,0,0,0,0,1,X V Q F H G B L J M P D K C T S W R N Z,5fa25dd28b0f6842755417f3,19,Mężczyzna,2022-06-11_09h36.47.586,task,2021.1.4,MacIntel,60.0024001,6299f149e92ead563fba08ef,62a44603ec6699af1dc20160,,,,,,,,,,,,,,,,,,,,,,,,,,,,,,,,,,,,,,,,,,,,,,,,,,,,,,,,,,,,,,,,,,,,,,,,,,,,,,,,,,,,,,,,,,,,,,,,,,,,,
,,,,,,1,0,1,0,1,X V Q F H G B L J M P D K C T S W R N Z,5fa25dd28b0f6842755417f3,19,Mężczyzna,2022-06-11_09h36.47.586,task,2021.1.4,MacIntel,60.0024001,6299f149e92ead563fba08ef,62a44603ec6699af1dc20160,,,,,,,,,,,,,,,,,,,,,,,,,,,,,,,,,,,,,,,,,,,,,,,,,,,,,,,,,,,,,,,,,,,,,,,,,,,,,,,,,,,,,,,,,,,,,,,,,,,,,
,,,,,,2,0,2,0,1,X V Q F H G B L J M P D K C T S W R N Z,5fa25dd28b0f6842755417f3,19,Mężczyzna,2022-06-11_09h36.47.586,task,2021.1.4,MacIntel,60.0024001,6299f149e92ead563fba08ef,62a44603ec6699af1dc20160,,,,,,,,,,,,,,,,,,,,,,,,,,,,,,,,,,,,,,,,,,,,,,,,,,,,,,,,,,,,,,,,,,,,,,,,,,,,,,,,,,,,,,,,,,,,,,,,,,,,,
,,,,,,3,0,3,0,1,X V Q F H G B L J M P D K C T S W R N Z,5fa25dd28b0f6842755417f3,19,Mężczyzna,2022-06-11_09h36.47.586,task,2021.1.4,MacIntel,60.0024001,6299f149e92ead563fba08ef,62a44603ec6699af1dc20160,,,,,,,,,,,,,,,,,,,,,,,,,,,,,,,,,,,,,,,,,,,,,,,,,,,,,,,,,,,,,,,,,,,,,,,,,,,,,,,,,,,,,,,,,,,,,,,,,,,,,
,,,,,,4,0,4,0,1,X V Q F H G B L J M P D K C T S W R N Z,5fa25dd28b0f6842755417f3,19,Mężczyzna,2022-06-11_09h36.47.586,task,2021.1.4,MacIntel,60.0024001,6299f149e92ead563fba08ef,62a44603ec6699af1dc20160,,,,,,,,,,,,,,,,,,,,,,,,,,,,,,,,,,,,,,,,,,,,,,,,,,,,,,,,,,,,,,,,,,,,,,,,,,,,,,,,,,,,,,,,,,,,,,,,,,,,,
,,,,,,5,0,5,0,1,X V Q F H G B L J M P D K C T S W R N Z,5fa25dd28b0f6842755417f3,19,Mężczyzna,2022-06-11_09h36.47.586,task,2021.1.4,MacIntel,60.0024001,6299f149e92ead563fba08ef,62a44603ec6699af1dc20160,,,,,,,,,,,,,,,,,,,,,,,,,,,,,,,,,,,,,,,,,,,,,,,,,,,,,,,,,,,,,,,,,,,,,,,,,,,,,,,,,,,,,,,,,,,,,,,,,,,,,
,,,,,,6,0,6,0,1,X V Q F H G B L J M P D K C T S W R N Z,5fa25dd28b0f6842755417f3,19,Mężczyzna,2022-06-11_09h36.47.586,task,2021.1.4,MacIntel,60.0024001,6299f149e92ead563fba08ef,62a44603ec6699af1dc20160,,,,,,,,,,,,,,,,,,,,,,,,,,,,,,,,,,,,,,,,,,,,,,,,,,,,,,,,,,,,,,,,,,,,,,,,,,,,,,,,,,,,,,,,,,,,,,,,,,,,,
,,,,,,,,,,,,5fa25dd28b0f6842755417f3,19,Mężczyzna,2022-06-11_09h36.47.586,task,2021.1.4,MacIntel,60.0024001,6299f149e92ead563fba08ef,62a44603ec6699af1dc20160,mbfnvbr,"[""m"",""b"",""f"",""n"",""v"",""b"",""r""]","[2.3507000000029734,3.117200000002981,3.9677000000029636,5.166900000005938,5.967500000000001,6.5179000000059375,6.785900000005938,7.134700000002965]",1,MBFNVBR,10,0,10,0,1,,,,,,,,,,,,,,,,,,,,,,,,,,,,,,,,,,,,,,,,,,,,,,,,,,,,,,,,,,,,,,,,,,,,,,,,,,,,,,,,,,,,,,,,,,,
,,,,,,0,0,0,0,1,X V Q F H G B L J M P D K C T S W R N Z,5fa25dd28b0f6842755417f3,19,Mężczyzna,2022-06-11_09h36.47.586,task,2021.1.4,MacIntel,60.0024001,6299f149e92ead563fba08ef,62a44603ec6699af1dc20160,,,,,,,,,,,,,,,,,,,,,,,,,,,,,,,,,,,,,,,,,,,,,,,,,,,,,,,,,,,,,,,,,,,,,,,,,,,,,,,,,,,,,,,,,,,,,,,,,,,,,
,,,,,,1,0,1,0,1,X V Q F H G B L J M P D K C T S W R N Z,5fa25dd28b0f6842755417f3,19,Mężczyzna,2022-06-11_09h36.47.586,task,2021.1.4,MacIntel,60.0024001,6299f149e92ead563fba08ef,62a44603ec6699af1dc20160,,,,,,,,,,,,,,,,,,,,,,,,,,,,,,,,,,,,,,,,,,,,,,,,,,,,,,,,,,,,,,,,,,,,,,,,,,,,,,,,,,,,,,,,,,,,,,,,,,,,,
,,,,,,2,0,2,0,1,X V Q F H G B L J M P D K C T S W R N Z,5fa25dd28b0f6842755417f3,19,Mężczyzna,2022-06-11_09h36.47.586,task,2021.1.4,MacIntel,60.0024001,6299f149e92ead563fba08ef,62a44603ec6699af1dc20160,,,,,,,,,,,,,,,,,,,,,,,,,,,,,,,,,,,,,,,,,,,,,,,,,,,,,,,,,,,,,,,,,,,,,,,,,,,,,,,,,,,,,,,,,,,,,,,,,,,,,
,,,,,,3,0,3,0,1,X V Q F H G B L J M P D K C T S W R N Z,5fa25dd28b0f6842755417f3,19,Mężczyzna,2022-06-11_09h36.47.586,task,2021.1.4,MacIntel,60.0024001,6299f149e92ead563fba08ef,62a44603ec6699af1dc20160,,,,,,,,,,,,,,,,,,,,,,,,,,,,,,,,,,,,,,,,,,,,,,,,,,,,,,,,,,,,,,,,,,,,,,,,,,,,,,,,,,,,,,,,,,,,,,,,,,,,,
,,,,,,4,0,4,0,1,X V Q F H G B L J M P D K C T S W R N Z,5fa25dd28b0f6842755417f3,19,Mężczyzna,2022-06-11_09h36.47.586,task,2021.1.4,MacIntel,60.0024001,6299f149e92ead563fba08ef,62a44603ec6699af1dc20160,,,,,,,,,,,,,,,,,,,,,,,,,,,,,,,,,,,,,,,,,,,,,,,,,,,,,,,,,,,,,,,,,,,,,,,,,,,,,,,,,,,,,,,,,,,,,,,,,,,,,
,,,,,,5,0,5,0,1,X V Q F H G B L J M P D K C T S W R N Z,5fa25dd28b0f6842755417f3,19,Mężczyzna,2022-06-11_09h36.47.586,task,2021.1.4,MacIntel,60.0024001,6299f149e92ead563fba08ef,62a44603ec6699af1dc20160,,,,,,,,,,,,,,,,,,,,,,,,,,,,,,,,,,,,,,,,,,,,,,,,,,,,,,,,,,,,,,,,,,,,,,,,,,,,,,,,,,,,,,,,,,,,,,,,,,,,,
,,,,,,6,0,6,0,1,X V Q F H G B L J M P D K C T S W R N Z,5fa25dd28b0f6842755417f3,19,Mężczyzna,2022-06-11_09h36.47.586,task,2021.1.4,MacIntel,60.0024001,6299f149e92ead563fba08ef,62a44603ec6699af1dc20160,,,,,,,,,,,,,,,,,,,,,,,,,,,,,,,,,,,,,,,,,,,,,,,,,,,,,,,,,,,,,,,,,,,,,,,,,,,,,,,,,,,,,,,,,,,,,,,,,,,,,
,,,,,,,,,,,,5fa25dd28b0f6842755417f3,19,Mężczyzna,2022-06-11_09h36.47.586,task,2021.1.4,MacIntel,60.0024001,6299f149e92ead563fba08ef,62a44603ec6699af1dc20160,sfkrght,"[""s"",""f"",""k"",""r"",""g"",""h"",""t""]","[10.616099999994049,11.171799999997035,11.942900000005977,12.632700000002984,13.331799999997031,13.541799999997039,13.700299999997014,13.834900000005973]",1,SFKRGHT,11,0,11,0,1,,,,,,,,,,,,,,,,,,,,,,,,,,,,,,,,,,,,,,,,,,,,,,,,,,,,,,,,,,,,,,,,,,,,,,,,,,,,,,,,,,,,,,,,,,,
,,,,,,0,0,0,0,1,X V Q F H G B L J M P D K C T S W R N Z,5fa25dd28b0f6842755417f3,19,Mężczyzna,2022-06-11_09h36.47.586,task,2021.1.4,MacIntel,60.0024001,6299f149e92ead563fba08ef,62a44603ec6699af1dc20160,,,,,,,,,,,,,,,,,,,,,,,,,,,,,,,,,,,,,,,,,,,,,,,,,,,,,,,,,,,,,,,,,,,,,,,,,,,,,,,,,,,,,,,,,,,,,,,,,,,,,
,,,,,,1,0,1,0,1,X V Q F H G B L J M P D K C T S W R N Z,5fa25dd28b0f6842755417f3,19,Mężczyzna,2022-06-11_09h36.47.586,task,2021.1.4,MacIntel,60.0024001,6299f149e92ead563fba08ef,62a44603ec6699af1dc20160,,,,,,,,,,,,,,,,,,,,,,,,,,,,,,,,,,,,,,,,,,,,,,,,,,,,,,,,,,,,,,,,,,,,,,,,,,,,,,,,,,,,,,,,,,,,,,,,,,,,,
,,,,,,2,0,2,0,1,X V Q F H G B L J M P D K C T S W R N Z,5fa25dd28b0f6842755417f3,19,Mężczyzna,2022-06-11_09h36.47.586,task,2021.1.4,MacIntel,60.0024001,6299f149e92ead563fba08ef,62a44603ec6699af1dc20160,,,,,,,,,,,,,,,,,,,,,,,,,,,,,,,,,,,,,,,,,,,,,,,,,,,,,,,,,,,,,,,,,,,,,,,,,,,,,,,,,,,,,,,,,,,,,,,,,,,,,
,,,,,,3,0,3,0,1,X V Q F H G B L J M P D K C T S W R N Z,5fa25dd28b0f6842755417f3,19,Mężczyzna,2022-06-11_09h36.47.586,task,2021.1.4,MacIntel,60.0024001,6299f149e92ead563fba08ef,62a44603ec6699af1dc20160,,,,,,,,,,,,,,,,,,,,,,,,,,,,,,,,,,,,,,,,,,,,,,,,,,,,,,,,,,,,,,,,,,,,,,,,,,,,,,,,,,,,,,,,,,,,,,,,,,,,,
,,,,,,4,0,4,0,1,X V Q F H G B L J M P D K C T S W R N Z,5fa25dd28b0f6842755417f3,19,Mężczyzna,2022-06-11_09h36.47.586,task,2021.1.4,MacIntel,60.0024001,6299f149e92ead563fba08ef,62a44603ec6699af1dc20160,,,,,,,,,,,,,,,,,,,,,,,,,,,,,,,,,,,,,,,,,,,,,,,,,,,,,,,,,,,,,,,,,,,,,,,,,,,,,,,,,,,,,,,,,,,,,,,,,,,,,
,,,,,,5,0,5,0,1,X V Q F H G B L J M P D K C T S W R N Z,5fa25dd28b0f6842755417f3,19,Mężczyzna,2022-06-11_09h36.47.586,task,2021.1.4,MacIntel,60.0024001,6299f149e92ead563fba08ef,62a44603ec6699af1dc20160,,,,,,,,,,,,,,,,,,,,,,,,,,,,,,,,,,,,,,,,,,,,,,,,,,,,,,,,,,,,,,,,,,,,,,,,,,,,,,,,,,,,,,,,,,,,,,,,,,,,,
,,,,,,6,0,6,0,1,X V Q F H G B L J M P D K C T S W R N Z,5fa25dd28b0f6842755417f3,19,Mężczyzna,2022-06-11_09h36.47.586,task,2021.1.4,MacIntel,60.0024001,6299f149e92ead563fba08ef,62a44603ec6699af1dc20160,,,,,,,,,,,,,,,,,,,,,,,,,,,,,,,,,,,,,,,,,,,,,,,,,,,,,,,,,,,,,,,,,,,,,,,,,,,,,,,,,,,,,,,,,,,,,,,,,,,,,
,,,,,,7,0,7,0,1,X V Q F H G B L J M P D K C T S W R N Z,5fa25dd28b0f6842755417f3,19,Mężczyzna,2022-06-11_09h36.47.586,task,2021.1.4,MacIntel,60.0024001,6299f149e92ead563fba08ef,62a44603ec6699af1dc20160,,,,,,,,,,,,,,,,,,,,,,,,,,,,,,,,,,,,,,,,,,,,,,,,,,,,,,,,,,,,,,,,,,,,,,,,,,,,,,,,,,,,,,,,,,,,,,,,,,,,,
,,,,,,,,,,,,5fa25dd28b0f6842755417f3,19,Mężczyzna,2022-06-11_09h36.47.586,task,2021.1.4,MacIntel,60.0024001,6299f149e92ead563fba08ef,62a44603ec6699af1dc20160,ssvhrrld,"[""s"",""s"",""v"",""h"",""r"",""r"",""l"",""d""]","[1.6564000000059593,1.9155000000000086,2.1167999999970277,3.434400000005951,3.8174000000059607,4.332999999999998,4.600999999999999,4.890400000005968,5.267400000005949]",1,SSVHRRLD,12,0,12,0,1,,,,,,,,,,,,,,,,,,,,,,,,,,,,,,,,,,,,,,,,,,,,,,,,,,,,,,,,,,,,,,,,,,,,,,,,,,,,,,,,,,,,,,,,,,,
,,,,,,0,0,0,0,1,X V Q F H G B L J M P D K C T S W R N Z,5fa25dd28b0f6842755417f3,19,Mężczyzna,2022-06-11_09h36.47.586,task,2021.1.4,MacIntel,60.0024001,6299f149e92ead563fba08ef,62a44603ec6699af1dc20160,,,,,,,,,,,,,,,,,,,,,,,,,,,,,,,,,,,,,,,,,,,,,,,,,,,,,,,,,,,,,,,,,,,,,,,,,,,,,,,,,,,,,,,,,,,,,,,,,,,,,
,,,,,,1,0,1,0,1,X V Q F H G B L J M P D K C T S W R N Z,5fa25dd28b0f6842755417f3,19,Mężczyzna,2022-06-11_09h36.47.586,task,2021.1.4,MacIntel,60.0024001,6299f149e92ead563fba08ef,62a44603ec6699af1dc20160,,,,,,,,,,,,,,,,,,,,,,,,,,,,,,,,,,,,,,,,,,,,,,,,,,,,,,,,,,,,,,,,,,,,,,,,,,,,,,,,,,,,,,,,,,,,,,,,,,,,,
,,,,,,2,0,2,0,1,X V Q F H G B L J M P D K C T S W R N Z,5fa25dd28b0f6842755417f3,19,Mężczyzna,2022-06-11_09h36.47.586,task,2021.1.4,MacIntel,60.0024001,6299f149e92ead563fba08ef,62a44603ec6699af1dc20160,,,,,,,,,,,,,,,,,,,,,,,,,,,,,,,,,,,,,,,,,,,,,,,,,,,,,,,,,,,,,,,,,,,,,,,,,,,,,,,,,,,,,,,,,,,,,,,,,,,,,
,,,,,,3,0,3,0,1,X V Q F H G B L J M P D K C T S W R N Z,5fa25dd28b0f6842755417f3,19,Mężczyzna,2022-06-11_09h36.47.586,task,2021.1.4,MacIntel,60.0024001,6299f149e92ead563fba08ef,62a44603ec6699af1dc20160,,,,,,,,,,,,,,,,,,,,,,,,,,,,,,,,,,,,,,,,,,,,,,,,,,,,,,,,,,,,,,,,,,,,,,,,,,,,,,,,,,,,,,,,,,,,,,,,,,,,,
,,,,,,4,0,4,0,1,X V Q F H G B L J M P D K C T S W R N Z,5fa25dd28b0f6842755417f3,19,Mężczyzna,2022-06-11_09h36.47.586,task,2021.1.4,MacIntel,60.0024001,6299f149e92ead563fba08ef,62a44603ec6699af1dc20160,,,,,,,,,,,,,,,,,,,,,,,,,,,,,,,,,,,,,,,,,,,,,,,,,,,,,,,,,,,,,,,,,,,,,,,,,,,,,,,,,,,,,,,,,,,,,,,,,,,,,
,,,,,,5,0,5,0,1,X V Q F H G B L J M P D K C T S W R N Z,5fa25dd28b0f6842755417f3,19,Mężczyzna,2022-06-11_09h36.47.586,task,2021.1.4,MacIntel,60.0024001,6299f149e92ead563fba08ef,62a44603ec6699af1dc20160,,,,,,,,,,,,,,,,,,,,,,,,,,,,,,,,,,,,,,,,,,,,,,,,,,,,,,,,,,,,,,,,,,,,,,,,,,,,,,,,,,,,,,,,,,,,,,,,,,,,,
,,,,,,6,0,6,0,1,X V Q F H G B L J M P D K C T S W R N Z,5fa25dd28b0f6842755417f3,19,Mężczyzna,2022-06-11_09h36.47.586,task,2021.1.4,MacIntel,60.0024001,6299f149e92ead563fba08ef,62a44603ec6699af1dc20160,,,,,,,,,,,,,,,,,,,,,,,,,,,,,,,,,,,,,,,,,,,,,,,,,,,,,,,,,,,,,,,,,,,,,,,,,,,,,,,,,,,,,,,,,,,,,,,,,,,,,
,,,,,,7,0,7,0,1,X V Q F H G B L J M P D K C T S W R N Z,5fa25dd28b0f6842755417f3,19,Mężczyzna,2022-06-11_09h36.47.586,task,2021.1.4,MacIntel,60.0024001,6299f149e92ead563fba08ef,62a44603ec6699af1dc20160,,,,,,,,,,,,,,,,,,,,,,,,,,,,,,,,,,,,,,,,,,,,,,,,,,,,,,,,,,,,,,,,,,,,,,,,,,,,,,,,,,,,,,,,,,,,,,,,,,,,,
,,,,,,,,,,,,5fa25dd28b0f6842755417f3,19,Mężczyzna,2022-06-11_09h36.47.586,task,2021.1.4,MacIntel,60.0024001,6299f149e92ead563fba08ef,62a44603ec6699af1dc20160,ljjgwxph,"[""l"",""j"",""j"",""g"",""w"",""x"",""p"",""h""]","[1.622400000005939,1.9654000000059568,2.2326000000089152,2.734400000005934,3.104700000002964,3.8721000000089134,4.770100000008938,5.119200000002962,5.3182000000029745]",1,LJJGWXPH,13,0,13,0,1,,,,,,,,,,,,,,,,,,,,,,,,,,,,,,,,,,,,,,,,,,,,,,,,,,,,,,,,,,,,,,,,,,,,,,,,,,,,,,,,,,,,,,,,,,,
,,,,,,0,0,0,0,1,X V Q F H G B L J M P D K C T S W R N Z,5fa25dd28b0f6842755417f3,19,Mężczyzna,2022-06-11_09h36.47.586,task,2021.1.4,MacIntel,60.0024001,6299f149e92ead563fba08ef,62a44603ec6699af1dc20160,,,,,,,,,,,,,,,,,,,,,,,,,,,,,,,,,,,,,,,,,,,,,,,,,,,,,,,,,,,,,,,,,,,,,,,,,,,,,,,,,,,,,,,,,,,,,,,,,,,,,
,,,,,,1,0,1,0,1,X V Q F H G B L J M P D K C T S W R N Z,5fa25dd28b0f6842755417f3,19,Mężczyzna,2022-06-11_09h36.47.586,task,2021.1.4,MacIntel,60.0024001,6299f149e92ead563fba08ef,62a44603ec6699af1dc20160,,,,,,,,,,,,,,,,,,,,,,,,,,,,,,,,,,,,,,,,,,,,,,,,,,,,,,,,,,,,,,,,,,,,,,,,,,,,,,,,,,,,,,,,,,,,,,,,,,,,,
,,,,,,2,0,2,0,1,X V Q F H G B L J M P D K C T S W R N Z,5fa25dd28b0f6842755417f3,19,Mężczyzna,2022-06-11_09h36.47.586,task,2021.1.4,MacIntel,60.0024001,6299f149e92ead563fba08ef,62a44603ec6699af1dc20160,,,,,,,,,,,,,,,,,,,,,,,,,,,,,,,,,,,,,,,,,,,,,,,,,,,,,,,,,,,,,,,,,,,,,,,,,,,,,,,,,,,,,,,,,,,,,,,,,,,,,
,,,,,,3,0,3,0,1,X V Q F H G B L J M P D K C T S W R N Z,5fa25dd28b0f6842755417f3,19,Mężczyzna,2022-06-11_09h36.47.586,task,2021.1.4,MacIntel,60.0024001,6299f149e92ead563fba08ef,62a44603ec6699af1dc20160,,,,,,,,,,,,,,,,,,,,,,,,,,,,,,,,,,,,,,,,,,,,,,,,,,,,,,,,,,,,,,,,,,,,,,,,,,,,,,,,,,,,,,,,,,,,,,,,,,,,,
,,,,,,4,0,4,0,1,X V Q F H G B L J M P D K C T S W R N Z,5fa25dd28b0f6842755417f3,19,Mężczyzna,2022-06-11_09h36.47.586,task,2021.1.4,MacIntel,60.0024001,6299f149e92ead563fba08ef,62a44603ec6699af1dc20160,,,,,,,,,,,,,,,,,,,,,,,,,,,,,,,,,,,,,,,,,,,,,,,,,,,,,,,,,,,,,,,,,,,,,,,,,,,,,,,,,,,,,,,,,,,,,,,,,,,,,
,,,,,,5,0,5,0,1,X V Q F H G B L J M P D K C T S W R N Z,5fa25dd28b0f6842755417f3,19,Mężczyzna,2022-06-11_09h36.47.586,task,2021.1.4,MacIntel,60.0024001,6299f149e92ead563fba08ef,62a44603ec6699af1dc20160,,,,,,,,,,,,,,,,,,,,,,,,,,,,,,,,,,,,,,,,,,,,,,,,,,,,,,,,,,,,,,,,,,,,,,,,,,,,,,,,,,,,,,,,,,,,,,,,,,,,,
,,,,,,6,0,6,0,1,X V Q F H G B L J M P D K C T S W R N Z,5fa25dd28b0f6842755417f3,19,Mężczyzna,2022-06-11_09h36.47.586,task,2021.1.4,MacIntel,60.0024001,6299f149e92ead563fba08ef,62a44603ec6699af1dc20160,,,,,,,,,,,,,,,,,,,,,,,,,,,,,,,,,,,,,,,,,,,,,,,,,,,,,,,,,,,,,,,,,,,,,,,,,,,,,,,,,,,,,,,,,,,,,,,,,,,,,
,,,,,,7,0,7,0,1,X V Q F H G B L J M P D K C T S W R N Z,5fa25dd28b0f6842755417f3,19,Mężczyzna,2022-06-11_09h36.47.586,task,2021.1.4,MacIntel,60.0024001,6299f149e92ead563fba08ef,62a44603ec6699af1dc20160,,,,,,,,,,,,,,,,,,,,,,,,,,,,,,,,,,,,,,,,,,,,,,,,,,,,,,,,,,,,,,,,,,,,,,,,,,,,,,,,,,,,,,,,,,,,,,,,,,,,,
,,,,,,8,0,8,0,1,X V Q F H G B L J M P D K C T S W R N Z,5fa25dd28b0f6842755417f3,19,Mężczyzna,2022-06-11_09h36.47.586,task,2021.1.4,MacIntel,60.0024001,6299f149e92ead563fba08ef,62a44603ec6699af1dc20160,,,,,,,,,,,,,,,,,,,,,,,,,,,,,,,,,,,,,,,,,,,,,,,,,,,,,,,,,,,,,,,,,,,,,,,,,,,,,,,,,,,,,,,,,,,,,,,,,,,,,
,,,,,,,,,,,,5fa25dd28b0f6842755417f3,19,Mężczyzna,2022-06-11_09h36.47.586,task,2021.1.4,MacIntel,60.0024001,6299f149e92ead563fba08ef,62a44603ec6699af1dc20160,gdxnnmlnm,"[""g"",""d"",""x"",""n"",""n"",""m"",""l"",""n"",""m""]","[1.8255000000000052,1.9680000000000177,2.1990000000000123,2.8360000000000127,3.4308000000119137,3.7559000000059655,4.18710000000894,4.549300000011925,4.718600000008934,5.152000000000015]",1,GDXNNMLNM,14,0,14,0,1,,,,,,,,,,,,,,,,,,,,,,,,,,,,,,,,,,,,,,,,,,,,,,,,,,,,,,,,,,,,,,,,,,,,,,,,,,,,,,,,,,,,,,,,,,,
,,,,,,0,0,0,0,1,X V Q F H G B L J M P D K C T S W R N Z,5fa25dd28b0f6842755417f3,19,Mężczyzna,2022-06-11_09h36.47.586,task,2021.1.4,MacIntel,60.0024001,6299f149e92ead563fba08ef,62a44603ec6699af1dc20160,,,,,,,,,,,,,,,,,,,,,,,,,,,,,,,,,,,,,,,,,,,,,,,,,,,,,,,,,,,,,,,,,,,,,,,,,,,,,,,,,,,,,,,,,,,,,,,,,,,,,
,,,,,,1,0,1,0,1,X V Q F H G B L J M P D K C T S W R N Z,5fa25dd28b0f6842755417f3,19,Mężczyzna,2022-06-11_09h36.47.586,task,2021.1.4,MacIntel,60.0024001,6299f149e92ead563fba08ef,62a44603ec6699af1dc20160,,,,,,,,,,,,,,,,,,,,,,,,,,,,,,,,,,,,,,,,,,,,,,,,,,,,,,,,,,,,,,,,,,,,,,,,,,,,,,,,,,,,,,,,,,,,,,,,,,,,,
,,,,,,2,0,2,0,1,X V Q F H G B L J M P D K C T S W R N Z,5fa25dd28b0f6842755417f3,19,Mężczyzna,2022-06-11_09h36.47.586,task,2021.1.4,MacIntel,60.0024001,6299f149e92ead563fba08ef,62a44603ec6699af1dc20160,,,,,,,,,,,,,,,,,,,,,,,,,,,,,,,,,,,,,,,,,,,,,,,,,,,,,,,,,,,,,,,,,,,,,,,,,,,,,,,,,,,,,,,,,,,,,,,,,,,,,
,,,,,,3,0,3,0,1,X V Q F H G B L J M P D K C T S W R N Z,5fa25dd28b0f6842755417f3,19,Mężczyzna,2022-06-11_09h36.47.586,task,2021.1.4,MacIntel,60.0024001,6299f149e92ead563fba08ef,62a44603ec6699af1dc20160,,,,,,,,,,,,,,,,,,,,,,,,,,,,,,,,,,,,,,,,,,,,,,,,,,,,,,,,,,,,,,,,,,,,,,,,,,,,,,,,,,,,,,,,,,,,,,,,,,,,,
,,,,,,4,0,4,0,1,X V Q F H G B L J M P D K C T S W R N Z,5fa25dd28b0f6842755417f3,19,Mężczyzna,2022-06-11_09h36.47.586,task,2021.1.4,MacIntel,60.0024001,6299f149e92ead563fba08ef,62a44603ec6699af1dc20160,,,,,,,,,,,,,,,,,,,,,,,,,,,,,,,,,,,,,,,,,,,,,,,,,,,,,,,,,,,,,,,,,,,,,,,,,,,,,,,,,,,,,,,,,,,,,,,,,,,,,
,,,,,,5,0,5,0,1,X V Q F H G B L J M P D K C T S W R N Z,5fa25dd28b0f6842755417f3,19,Mężczyzna,2022-06-11_09h36.47.586,task,2021.1.4,MacIntel,60.0024001,6299f149e92ead563fba08ef,62a44603ec6699af1dc20160,,,,,,,,,,,,,,,,,,,,,,,,,,,,,,,,,,,,,,,,,,,,,,,,,,,,,,,,,,,,,,,,,,,,,,,,,,,,,,,,,,,,,,,,,,,,,,,,,,,,,
,,,,,,6,0,6,0,1,X V Q F H G B L J M P D K C T S W R N Z,5fa25dd28b0f6842755417f3,19,Mężczyzna,2022-06-11_09h36.47.586,task,2021.1.4,MacIntel,60.0024001,6299f149e92ead563fba08ef,62a44603ec6699af1dc20160,,,,,,,,,,,,,,,,,,,,,,,,,,,,,,,,,,,,,,,,,,,,,,,,,,,,,,,,,,,,,,,,,,,,,,,,,,,,,,,,,,,,,,,,,,,,,,,,,,,,,
,,,,,,7,0,7,0,1,X V Q F H G B L J M P D K C T S W R N Z,5fa25dd28b0f6842755417f3,19,Mężczyzna,2022-06-11_09h36.47.586,task,2021.1.4,MacIntel,60.0024001,6299f149e92ead563fba08ef,62a44603ec6699af1dc20160,,,,,,,,,,,,,,,,,,,,,,,,,,,,,,,,,,,,,,,,,,,,,,,,,,,,,,,,,,,,,,,,,,,,,,,,,,,,,,,,,,,,,,,,,,,,,,,,,,,,,
,,,,,,8,0,8,0,1,X V Q F H G B L J M P D K C T S W R N Z,5fa25dd28b0f6842755417f3,19,Mężczyzna,2022-06-11_09h36.47.586,task,2021.1.4,MacIntel,60.0024001,6299f149e92ead563fba08ef,62a44603ec6699af1dc20160,,,,,,,,,,,,,,,,,,,,,,,,,,,,,,,,,,,,,,,,,,,,,,,,,,,,,,,,,,,,,,,,,,,,,,,,,,,,,,,,,,,,,,,,,,,,,,,,,,,,,
,,,,,,,,,,,,5fa25dd28b0f6842755417f3,19,Mężczyzna,2022-06-11_09h36.47.586,task,2021.1.4,MacIntel,60.0024001,6299f149e92ead563fba08ef,62a44603ec6699af1dc20160,wlgtltjlc,"[""w"",""l"",""g"",""t"",""l"",""t"",""j"",""l"",""c""]","[1.8988000000119314,2.015000000000015,2.7205000000000155,2.9659000000059734,4.1650000000000205,4.379700000002998,5.297200000002988,5.78070000000298,6.000700000002979,14.103700000002988]",1,WLGTLTJLC,15,0,15,0,1,,,,,,,,,,,,,,,,,,,,,,,,,,,,,,,,,,,,,,,,,,,,,,,,,,,,,,,,,,,,,,,,,,,,,,,,,,,,,,,,,,,,,,,,,,,
,,,,,,0,0,0,0,1,X V Q F H G B L J M P D K C T S W R N Z,5fa25dd28b0f6842755417f3,19,Mężczyzna,2022-06-11_09h36.47.586,task,2021.1.4,MacIntel,60.0024001,6299f149e92ead563fba08ef,62a44603ec6699af1dc20160,,,,,,,,,,,,,,,,,,,,,,,,,,,,,,,,,,,,,,,,,,,,,,,,,,,,,,,,,,,,,,,,,,,,,,,,,,,,,,,,,,,,,,,,,,,,,,,,,,,,,
,,,,,,1,0,1,0,1,X V Q F H G B L J M P D K C T S W R N Z,5fa25dd28b0f6842755417f3,19,Mężczyzna,2022-06-11_09h36.47.586,task,2021.1.4,MacIntel,60.0024001,6299f149e92ead563fba08ef,62a44603ec6699af1dc20160,,,,,,,,,,,,,,,,,,,,,,,,,,,,,,,,,,,,,,,,,,,,,,,,,,,,,,,,,,,,,,,,,,,,,,,,,,,,,,,,,,,,,,,,,,,,,,,,,,,,,
,,,,,,2,0,2,0,1,X V Q F H G B L J M P D K C T S W R N Z,5fa25dd28b0f6842755417f3,19,Mężczyzna,2022-06-11_09h36.47.586,task,2021.1.4,MacIntel,60.0024001,6299f149e92ead563fba08ef,62a44603ec6699af1dc20160,,,,,,,,,,,,,,,,,,,,,,,,,,,,,,,,,,,,,,,,,,,,,,,,,,,,,,,,,,,,,,,,,,,,,,,,,,,,,,,,,,,,,,,,,,,,,,,,,,,,,
,,,,,,3,0,3,0,1,X V Q F H G B L J M P D K C T S W R N Z,5fa25dd28b0f6842755417f3,19,Mężczyzna,2022-06-11_09h36.47.586,task,2021.1.4,MacIntel,60.0024001,6299f149e92ead563fba08ef,62a44603ec6699af1dc20160,,,,,,,,,,,,,,,,,,,,,,,,,,,,,,,,,,,,,,,,,,,,,,,,,,,,,,,,,,,,,,,,,,,,,,,,,,,,,,,,,,,,,,,,,,,,,,,,,,,,,
,,,,,,4,0,4,0,1,X V Q F H G B L J M P D K C T S W R N Z,5fa25dd28b0f6842755417f3,19,Mężczyzna,2022-06-11_09h36.47.586,task,2021.1.4,MacIntel,60.0024001,6299f149e92ead563fba08ef,62a44603ec6699af1dc20160,,,,,,,,,,,,,,,,,,,,,,,,,,,,,,,,,,,,,,,,,,,,,,,,,,,,,,,,,,,,,,,,,,,,,,,,,,,,,,,,,,,,,,,,,,,,,,,,,,,,,
,,,,,,5,0,5,0,1,X V Q F H G B L J M P D K C T S W R N Z,5fa25dd28b0f6842755417f3,19,Mężczyzna,2022-06-11_09h36.47.586,task,2021.1.4,MacIntel,60.0024001,6299f149e92ead563fba08ef,62a44603ec6699af1dc20160,,,,,,,,,,,,,,,,,,,,,,,,,,,,,,,,,,,,,,,,,,,,,,,,,,,,,,,,,,,,,,,,,,,,,,,,,,,,,,,,,,,,,,,,,,,,,,,,,,,,,
,,,,,,6,0,6,0,1,X V Q F H G B L J M P D K C T S W R N Z,5fa25dd28b0f6842755417f3,19,Mężczyzna,2022-06-11_09h36.47.586,task,2021.1.4,MacIntel,60.0024001,6299f149e92ead563fba08ef,62a44603ec6699af1dc20160,,,,,,,,,,,,,,,,,,,,,,,,,,,,,,,,,,,,,,,,,,,,,,,,,,,,,,,,,,,,,,,,,,,,,,,,,,,,,,,,,,,,,,,,,,,,,,,,,,,,,
,,,,,,7,0,7,0,1,X V Q F H G B L J M P D K C T S W R N Z,5fa25dd28b0f6842755417f3,19,Mężczyzna,2022-06-11_09h36.47.586,task,2021.1.4,MacIntel,60.0024001,6299f149e92ead563fba08ef,62a44603ec6699af1dc20160,,,,,,,,,,,,,,,,,,,,,,,,,,,,,,,,,,,,,,,,,,,,,,,,,,,,,,,,,,,,,,,,,,,,,,,,,,,,,,,,,,,,,,,,,,,,,,,,,,,,,
,,,,,,8,0,8,0,1,X V Q F H G B L J M P D K C T S W R N Z,5fa25dd28b0f6842755417f3,19,Mężczyzna,2022-06-11_09h36.47.586,task,2021.1.4,MacIntel,60.0024001,6299f149e92ead563fba08ef,62a44603ec6699af1dc20160,,,,,,,,,,,,,,,,,,,,,,,,,,,,,,,,,,,,,,,,,,,,,,,,,,,,,,,,,,,,,,,,,,,,,,,,,,,,,,,,,,,,,,,,,,,,,,,,,,,,,
,,,,,,9,0,9,0,1,X V Q F H G B L J M P D K C T S W R N Z,5fa25dd28b0f6842755417f3,19,Mężczyzna,2022-06-11_09h36.47.586,task,2021.1.4,MacIntel,60.0024001,6299f149e92ead563fba08ef,62a44603ec6699af1dc20160,,,,,,,,,,,,,,,,,,,,,,,,,,,,,,,,,,,,,,,,,,,,,,,,,,,,,,,,,,,,,,,,,,,,,,,,,,,,,,,,,,,,,,,,,,,,,,,,,,,,,
,,,,,,,,,,,,5fa25dd28b0f6842755417f3,19,Mężczyzna,2022-06-11_09h36.47.586,task,2021.1.4,MacIntel,60.0024001,6299f149e92ead563fba08ef,62a44603ec6699af1dc20160,jctgctmxsw,"[""j"",""c"",""t"",""g"",""c"",""t"",""m"",""x"",""s"",""w""]","[2.7040000000000077,3.258400000005963,3.9334000000059746,4.467499999999973,5.28270000000299,5.885499999999979,6.358800000011911,6.718500000000006,6.9508000000118955,7.149499999999989,7.3349999999999795]",1,JCTGCTMXSW,16,0,16,0,1,,,,,,,,,,,,,,,,,,,,,,,,,,,,,,,,,,,,,,,,,,,,,,,,,,,,,,,,,,,,,,,,,,,,,,,,,,,,,,,,,,,,,,,,,,,
,,,,,,0,0,0,0,1,X V Q F H G B L J M P D K C T S W R N Z,5fa25dd28b0f6842755417f3,19,Mężczyzna,2022-06-11_09h36.47.586,task,2021.1.4,MacIntel,60.0024001,6299f149e92ead563fba08ef,62a44603ec6699af1dc20160,,,,,,,,,,,,,,,,,,,,,,,,,,,,,,,,,,,,,,,,,,,,,,,,,,,,,,,,,,,,,,,,,,,,,,,,,,,,,,,,,,,,,,,,,,,,,,,,,,,,,
,,,,,,1,0,1,0,1,X V Q F H G B L J M P D K C T S W R N Z,5fa25dd28b0f6842755417f3,19,Mężczyzna,2022-06-11_09h36.47.586,task,2021.1.4,MacIntel,60.0024001,6299f149e92ead563fba08ef,62a44603ec6699af1dc20160,,,,,,,,,,,,,,,,,,,,,,,,,,,,,,,,,,,,,,,,,,,,,,,,,,,,,,,,,,,,,,,,,,,,,,,,,,,,,,,,,,,,,,,,,,,,,,,,,,,,,
,,,,,,2,0,2,0,1,X V Q F H G B L J M P D K C T S W R N Z,5fa25dd28b0f6842755417f3,19,Mężczyzna,2022-06-11_09h36.47.586,task,2021.1.4,MacIntel,60.0024001,6299f149e92ead563fba08ef,62a44603ec6699af1dc20160,,,,,,,,,,,,,,,,,,,,,,,,,,,,,,,,,,,,,,,,,,,,,,,,,,,,,,,,,,,,,,,,,,,,,,,,,,,,,,,,,,,,,,,,,,,,,,,,,,,,,
,,,,,,3,0,3,0,1,X V Q F H G B L J M P D K C T S W R N Z,5fa25dd28b0f6842755417f3,19,Mężczyzna,2022-06-11_09h36.47.586,task,2021.1.4,MacIntel,60.0024001,6299f149e92ead563fba08ef,62a44603ec6699af1dc20160,,,,,,,,,,,,,,,,,,,,,,,,,,,,,,,,,,,,,,,,,,,,,,,,,,,,,,,,,,,,,,,,,,,,,,,,,,,,,,,,,,,,,,,,,,,,,,,,,,,,,
,,,,,,4,0,4,0,1,X V Q F H G B L J M P D K C T S W R N Z,5fa25dd28b0f6842755417f3,19,Mężczyzna,2022-06-11_09h36.47.586,task,2021.1.4,MacIntel,60.0024001,6299f149e92ead563fba08ef,62a44603ec6699af1dc20160,,,,,,,,,,,,,,,,,,,,,,,,,,,,,,,,,,,,,,,,,,,,,,,,,,,,,,,,,,,,,,,,,,,,,,,,,,,,,,,,,,,,,,,,,,,,,,,,,,,,,
,,,,,,5,0,5,0,1,X V Q F H G B L J M P D K C T S W R N Z,5fa25dd28b0f6842755417f3,19,Mężczyzna,2022-06-11_09h36.47.586,task,2021.1.4,MacIntel,60.0024001,6299f149e92ead563fba08ef,62a44603ec6699af1dc20160,,,,,,,,,,,,,,,,,,,,,,,,,,,,,,,,,,,,,,,,,,,,,,,,,,,,,,,,,,,,,,,,,,,,,,,,,,,,,,,,,,,,,,,,,,,,,,,,,,,,,
,,,,,,6,0,6,0,1,X V Q F H G B L J M P D K C T S W R N Z,5fa25dd28b0f6842755417f3,19,Mężczyzna,2022-06-11_09h36.47.586,task,2021.1.4,MacIntel,60.0024001,6299f149e92ead563fba08ef,62a44603ec6699af1dc20160,,,,,,,,,,,,,,,,,,,,,,,,,,,,,,,,,,,,,,,,,,,,,,,,,,,,,,,,,,,,,,,,,,,,,,,,,,,,,,,,,,,,,,,,,,,,,,,,,,,,,
,,,,,,7,0,7,0,1,X V Q F H G B L J M P D K C T S W R N Z,5fa25dd28b0f6842755417f3,19,Mężczyzna,2022-06-11_09h36.47.586,task,2021.1.4,MacIntel,60.0024001,6299f149e92ead563fba08ef,62a44603ec6699af1dc20160,,,,,,,,,,,,,,,,,,,,,,,,,,,,,,,,,,,,,,,,,,,,,,,,,,,,,,,,,,,,,,,,,,,,,,,,,,,,,,,,,,,,,,,,,,,,,,,,,,,,,
,,,,,,8,0,8,0,1,X V Q F H G B L J M P D K C T S W R N Z,5fa25dd28b0f6842755417f3,19,Mężczyzna,2022-06-11_09h36.47.586,task,2021.1.4,MacIntel,60.0024001,6299f149e92ead563fba08ef,62a44603ec6699af1dc20160,,,,,,,,,,,,,,,,,,,,,,,,,,,,,,,,,,,,,,,,,,,,,,,,,,,,,,,,,,,,,,,,,,,,,,,,,,,,,,,,,,,,,,,,,,,,,,,,,,,,,
,,,,,,9,0,9,0,1,X V Q F H G B L J M P D K C T S W R N Z,5fa25dd28b0f6842755417f3,19,Mężczyzna,2022-06-11_09h36.47.586,task,2021.1.4,MacIntel,60.0024001,6299f149e92ead563fba08ef,62a44603ec6699af1dc20160,,,,,,,,,,,,,,,,,,,,,,,,,,,,,,,,,,,,,,,,,,,,,,,,,,,,,,,,,,,,,,,,,,,,,,,,,,,,,,,,,,,,,,,,,,,,,,,,,,,,,
,,,,,,,,,,,,5fa25dd28b0f6842755417f3,19,Mężczyzna,2022-06-11_09h36.47.586,task,2021.1.4,MacIntel,60.0024001,6299f149e92ead563fba08ef,62a44603ec6699af1dc20160,nwjljtgnrl,"[""n"",""w"",""j"",""l"",""j"",""t"",""g"",""n"",""r"",""l""]","[1.6208000000119114,1.7543000000119378,1.9017000000029611,3.3856000000089352,3.9341000000089252,5.050700000002962,5.434200000002988,6.00180000001194,6.3525000000000205,6.649400000005983,6.928100000008953]",1,NWJLJTGNRL,17,0,17,0,1,,,,,,,,,,,,,,,,,,,,,,,,,,,,,,,,,,,,,,,,,,,,,,,,,,,,,,,,,,,,,,,,,,,,,,,,,,,,,,,,,,,,,,,,,,,
,,,,,,0,0,0,0,1,X V Q F H G B L J M P D K C T S W R N Z,5fa25dd28b0f6842755417f3,19,Mężczyzna,2022-06-11_09h36.47.586,task,2021.1.4,MacIntel,60.0024001,6299f149e92ead563fba08ef,62a44603ec6699af1dc20160,,,,,,,,,,,,,,,,,,,,,,,,,,,,,,,,,,,,,,,,,,,,,,,,,,,,,,,,,,,,,,,,,,,,,,,,,,,,,,,,,,,,,,,,,,,,,,,,,,,,,
,,,,,,1,0,1,0,1,X V Q F H G B L J M P D K C T S W R N Z,5fa25dd28b0f6842755417f3,19,Mężczyzna,2022-06-11_09h36.47.586,task,2021.1.4,MacIntel,60.0024001,6299f149e92ead563fba08ef,62a44603ec6699af1dc20160,,,,,,,,,,,,,,,,,,,,,,,,,,,,,,,,,,,,,,,,,,,,,,,,,,,,,,,,,,,,,,,,,,,,,,,,,,,,,,,,,,,,,,,,,,,,,,,,,,,,,
,,,,,,2,0,2,0,1,X V Q F H G B L J M P D K C T S W R N Z,5fa25dd28b0f6842755417f3,19,Mężczyzna,2022-06-11_09h36.47.586,task,2021.1.4,MacIntel,60.0024001,6299f149e92ead563fba08ef,62a44603ec6699af1dc20160,,,,,,,,,,,,,,,,,,,,,,,,,,,,,,,,,,,,,,,,,,,,,,,,,,,,,,,,,,,,,,,,,,,,,,,,,,,,,,,,,,,,,,,,,,,,,,,,,,,,,
,,,,,,3,0,3,0,1,X V Q F H G B L J M P D K C T S W R N Z,5fa25dd28b0f6842755417f3,19,Mężczyzna,2022-06-11_09h36.47.586,task,2021.1.4,MacIntel,60.0024001,6299f149e92ead563fba08ef,62a44603ec6699af1dc20160,,,,,,,,,,,,,,,,,,,,,,,,,,,,,,,,,,,,,,,,,,,,,,,,,,,,,,,,,,,,,,,,,,,,,,,,,,,,,,,,,,,,,,,,,,,,,,,,,,,,,
,,,,,,4,0,4,0,1,X V Q F H G B L J M P D K C T S W R N Z,5fa25dd28b0f6842755417f3,19,Mężczyzna,2022-06-11_09h36.47.586,task,2021.1.4,MacIntel,60.0024001,6299f149e92ead563fba08ef,62a44603ec6699af1dc20160,,,,,,,,,,,,,,,,,,,,,,,,,,,,,,,,,,,,,,,,,,,,,,,,,,,,,,,,,,,,,,,,,,,,,,,,,,,,,,,,,,,,,,,,,,,,,,,,,,,,,
,,,,,,5,0,5,0,1,X V Q F H G B L J M P D K C T S W R N Z,5fa25dd28b0f6842755417f3,19,Mężczyzna,2022-06-11_09h36.47.586,task,2021.1.4,MacIntel,60.0024001,6299f149e92ead563fba08ef,62a44603ec6699af1dc20160,,,,,,,,,,,,,,,,,,,,,,,,,,,,,,,,,,,,,,,,,,,,,,,,,,,,,,,,,,,,,,,,,,,,,,,,,,,,,,,,,,,,,,,,,,,,,,,,,,,,,
,,,,,,6,0,6,0,1,X V Q F H G B L J M P D K C T S W R N Z,5fa25dd28b0f6842755417f3,19,Mężczyzna,2022-06-11_09h36.47.586,task,2021.1.4,MacIntel,60.0024001,6299f149e92ead563fba08ef,62a44603ec6699af1dc20160,,,,,,,,,,,,,,,,,,,,,,,,,,,,,,,,,,,,,,,,,,,,,,,,,,,,,,,,,,,,,,,,,,,,,,,,,,,,,,,,,,,,,,,,,,,,,,,,,,,,,
,,,,,,7,0,7,0,1,X V Q F H G B L J M P D K C T S W R N Z,5fa25dd28b0f6842755417f3,19,Mężczyzna,2022-06-11_09h36.47.586,task,2021.1.4,MacIntel,60.0024001,6299f149e92ead563fba08ef,62a44603ec6699af1dc20160,,,,,,,,,,,,,,,,,,,,,,,,,,,,,,,,,,,,,,,,,,,,,,,,,,,,,,,,,,,,,,,,,,,,,,,,,,,,,,,,,,,,,,,,,,,,,,,,,,,,,
,,,,,,8,0,8,0,1,X V Q F H G B L J M P D K C T S W R N Z,5fa25dd28b0f6842755417f3,19,Mężczyzna,2022-06-11_09h36.47.586,task,2021.1.4,MacIntel,60.0024001,6299f149e92ead563fba08ef,62a44603ec6699af1dc20160,,,,,,,,,,,,,,,,,,,,,,,,,,,,,,,,,,,,,,,,,,,,,,,,,,,,,,,,,,,,,,,,,,,,,,,,,,,,,,,,,,,,,,,,,,,,,,,,,,,,,
,,,,,,9,0,9,0,1,X V Q F H G B L J M P D K C T S W R N Z,5fa25dd28b0f6842755417f3,19,Mężczyzna,2022-06-11_09h36.47.586,task,2021.1.4,MacIntel,60.0024001,6299f149e92ead563fba08ef,62a44603ec6699af1dc20160,,,,,,,,,,,,,,,,,,,,,,,,,,,,,,,,,,,,,,,,,,,,,,,,,,,,,,,,,,,,,,,,,,,,,,,,,,,,,,,,,,,,,,,,,,,,,,,,,,,,,
,,,,,,10,0,10,0,1,X V Q F H G B L J M P D K C T S W R N Z,5fa25dd28b0f6842755417f3,19,Mężczyzna,2022-06-11_09h36.47.586,task,2021.1.4,MacIntel,60.0024001,6299f149e92ead563fba08ef,62a44603ec6699af1dc20160,,,,,,,,,,,,,,,,,,,,,,,,,,,,,,,,,,,,,,,,,,,,,,,,,,,,,,,,,,,,,,,,,,,,,,,,,,,,,,,,,,,,,,,,,,,,,,,,,,,,,
,,,,,,,,,,,,5fa25dd28b0f6842755417f3,19,Mężczyzna,2022-06-11_09h36.47.586,task,2021.1.4,MacIntel,60.0024001,6299f149e92ead563fba08ef,62a44603ec6699af1dc20160,dxwpbhpjnc,"[""d"",""x"",""w"",""p"",""b"",""h"",""p"",""j"",""n"",""c""]","[1.9677999999969984,2.134599999994009,3.034999999999968,3.2881999999880804,3.6166999999881,5.483000000000004,5.899999999999977,6.351499999999987,7.042799999996987,7.601499999999987,7.801699999988102]",0,DXWPPBHPJNC,18,0,18,0,1,,,,,,,,,,,,,,,,,,,,,,,,,,,,,,,,,,,,,,,,,,,,,,,,,,,,,,,,,,,,,,,,,,,,,,,,,,,,,,,,,,,,,,,,,,,
,,,,,,0,0,0,0,1,X V Q F H G B L J M P D K C T S W R N Z,5fa25dd28b0f6842755417f3,19,Mężczyzna,2022-06-11_09h36.47.586,task,2021.1.4,MacIntel,60.0024001,6299f149e92ead563fba08ef,62a44603ec6699af1dc20160,,,,,,,,,,,,,,,,,,,,,,,,,,,,,,,,,,,,,,,,,,,,,,,,,,,,,,,,,,,,,,,,,,,,,,,,,,,,,,,,,,,,,,,,,,,,,,,,,,,,,
,,,,,,1,0,1,0,1,X V Q F H G B L J M P D K C T S W R N Z,5fa25dd28b0f6842755417f3,19,Mężczyzna,2022-06-11_09h36.47.586,task,2021.1.4,MacIntel,60.0024001,6299f149e92ead563fba08ef,62a44603ec6699af1dc20160,,,,,,,,,,,,,,,,,,,,,,,,,,,,,,,,,,,,,,,,,,,,,,,,,,,,,,,,,,,,,,,,,,,,,,,,,,,,,,,,,,,,,,,,,,,,,,,,,,,,,
,,,,,,2,0,2,0,1,X V Q F H G B L J M P D K C T S W R N Z,5fa25dd28b0f6842755417f3,19,Mężczyzna,2022-06-11_09h36.47.586,task,2021.1.4,MacIntel,60.0024001,6299f149e92ead563fba08ef,62a44603ec6699af1dc20160,,,,,,,,,,,,,,,,,,,,,,,,,,,,,,,,,,,,,,,,,,,,,,,,,,,,,,,,,,,,,,,,,,,,,,,,,,,,,,,,,,,,,,,,,,,,,,,,,,,,,
,,,,,,3,0,3,0,1,X V Q F H G B L J M P D K C T S W R N Z,5fa25dd28b0f6842755417f3,19,Mężczyzna,2022-06-11_09h36.47.586,task,2021.1.4,MacIntel,60.0024001,6299f149e92ead563fba08ef,62a44603ec6699af1dc20160,,,,,,,,,,,,,,,,,,,,,,,,,,,,,,,,,,,,,,,,,,,,,,,,,,,,,,,,,,,,,,,,,,,,,,,,,,,,,,,,,,,,,,,,,,,,,,,,,,,,,
,,,,,,4,0,4,0,1,X V Q F H G B L J M P D K C T S W R N Z,5fa25dd28b0f6842755417f3,19,Mężczyzna,2022-06-11_09h36.47.586,task,2021.1.4,MacIntel,60.0024001,6299f149e92ead563fba08ef,62a44603ec6699af1dc20160,,,,,,,,,,,,,,,,,,,,,,,,,,,,,,,,,,,,,,,,,,,,,,,,,,,,,,,,,,,,,,,,,,,,,,,,,,,,,,,,,,,,,,,,,,,,,,,,,,,,,
,,,,,,5,0,5,0,1,X V Q F H G B L J M P D K C T S W R N Z,5fa25dd28b0f6842755417f3,19,Mężczyzna,2022-06-11_09h36.47.586,task,2021.1.4,MacIntel,60.0024001,6299f149e92ead563fba08ef,62a44603ec6699af1dc20160,,,,,,,,,,,,,,,,,,,,,,,,,,,,,,,,,,,,,,,,,,,,,,,,,,,,,,,,,,,,,,,,,,,,,,,,,,,,,,,,,,,,,,,,,,,,,,,,,,,,,
,,,,,,6,0,6,0,1,X V Q F H G B L J M P D K C T S W R N Z,5fa25dd28b0f6842755417f3,19,Mężczyzna,2022-06-11_09h36.47.586,task,2021.1.4,MacIntel,60.0024001,6299f149e92ead563fba08ef,62a44603ec6699af1dc20160,,,,,,,,,,,,,,,,,,,,,,,,,,,,,,,,,,,,,,,,,,,,,,,,,,,,,,,,,,,,,,,,,,,,,,,,,,,,,,,,,,,,,,,,,,,,,,,,,,,,,
,,,,,,7,0,7,0,1,X V Q F H G B L J M P D K C T S W R N Z,5fa25dd28b0f6842755417f3,19,Mężczyzna,2022-06-11_09h36.47.586,task,2021.1.4,MacIntel,60.0024001,6299f149e92ead563fba08ef,62a44603ec6699af1dc20160,,,,,,,,,,,,,,,,,,,,,,,,,,,,,,,,,,,,,,,,,,,,,,,,,,,,,,,,,,,,,,,,,,,,,,,,,,,,,,,,,,,,,,,,,,,,,,,,,,,,,
,,,,,,8,0,8,0,1,X V Q F H G B L J M P D K C T S W R N Z,5fa25dd28b0f6842755417f3,19,Mężczyzna,2022-06-11_09h36.47.586,task,2021.1.4,MacIntel,60.0024001,6299f149e92ead563fba08ef,62a44603ec6699af1dc20160,,,,,,,,,,,,,,,,,,,,,,,,,,,,,,,,,,,,,,,,,,,,,,,,,,,,,,,,,,,,,,,,,,,,,,,,,,,,,,,,,,,,,,,,,,,,,,,,,,,,,
,,,,,,9,0,9,0,1,X V Q F H G B L J M P D K C T S W R N Z,5fa25dd28b0f6842755417f3,19,Mężczyzna,2022-06-11_09h36.47.586,task,2021.1.4,MacIntel,60.0024001,6299f149e92ead563fba08ef,62a44603ec6699af1dc20160,,,,,,,,,,,,,,,,,,,,,,,,,,,,,,,,,,,,,,,,,,,,,,,,,,,,,,,,,,,,,,,,,,,,,,,,,,,,,,,,,,,,,,,,,,,,,,,,,,,,,
,,,,,,10,0,10,0,1,X V Q F H G B L J M P D K C T S W R N Z,5fa25dd28b0f6842755417f3,19,Mężczyzna,2022-06-11_09h36.47.586,task,2021.1.4,MacIntel,60.0024001,6299f149e92ead563fba08ef,62a44603ec6699af1dc20160,,,,,,,,,,,,,,,,,,,,,,,,,,,,,,,,,,,,,,,,,,,,,,,,,,,,,,,,,,,,,,,,,,,,,,,,,,,,,,,,,,,,,,,,,,,,,,,,,,,,,
,,,,,,,,,,,,5fa25dd28b0f6842755417f3,19,Mężczyzna,2022-06-11_09h36.47.586,task,2021.1.4,MacIntel,60.0024001,6299f149e92ead563fba08ef,62a44603ec6699af1dc20160,cxrvqjvtxgt,"[""c"",""x"",""r"",""v"",""q"",""j"",""v"",""t"",""x"",""g"",""t""]","[2.584799999997017,3.015200000002949,3.3525000000000205,3.8337000000029775,4.919799999996997,5.316399999991063,6.075899999991066,6.850999999999999,7.349599999994041,8.084000000000003,8.338000000000022,8.865000000000009]",0,CXRVQJVTXGF,19,0,19,0,1,,,,,,,,,,,,,,,,,,,,,,,,,,,,,,,,,,,,,,,,,,,,,,,,,,,,,,,,,,,,,,,,,,,,,,,,,,,,,,,,,,,,,,,,,,,
,,,,,,0,0,0,0,1,X V Q F H G B L J M P D K C T S W R N Z,5fa25dd28b0f6842755417f3,19,Mężczyzna,2022-06-11_09h36.47.586,task,2021.1.4,MacIntel,60.0024001,6299f149e92ead563fba08ef,62a44603ec6699af1dc20160,,,,,,,,,,,,,,,,,,,,,,,,,,,,,,,,,,,,,,,,,,,,,,,,,,,,,,,,,,,,,,,,,,,,,,,,,,,,,,,,,,,,,,,,,,,,,,,,,,,,,
,,,,,,1,0,1,0,1,X V Q F H G B L J M P D K C T S W R N Z,5fa25dd28b0f6842755417f3,19,Mężczyzna,2022-06-11_09h36.47.586,task,2021.1.4,MacIntel,60.0024001,6299f149e92ead563fba08ef,62a44603ec6699af1dc20160,,,,,,,,,,,,,,,,,,,,,,,,,,,,,,,,,,,,,,,,,,,,,,,,,,,,,,,,,,,,,,,,,,,,,,,,,,,,,,,,,,,,,,,,,,,,,,,,,,,,,
,,,,,,2,0,2,0,1,X V Q F H G B L J M P D K C T S W R N Z,5fa25dd28b0f6842755417f3,19,Mężczyzna,2022-06-11_09h36.47.586,task,2021.1.4,MacIntel,60.0024001,6299f149e92ead563fba08ef,62a44603ec6699af1dc20160,,,,,,,,,,,,,,,,,,,,,,,,,,,,,,,,,,,,,,,,,,,,,,,,,,,,,,,,,,,,,,,,,,,,,,,,,,,,,,,,,,,,,,,,,,,,,,,,,,,,,
,,,,,,3,0,3,0,1,X V Q F H G B L J M P D K C T S W R N Z,5fa25dd28b0f6842755417f3,19,Mężczyzna,2022-06-11_09h36.47.586,task,2021.1.4,MacIntel,60.0024001,6299f149e92ead563fba08ef,62a44603ec6699af1dc20160,,,,,,,,,,,,,,,,,,,,,,,,,,,,,,,,,,,,,,,,,,,,,,,,,,,,,,,,,,,,,,,,,,,,,,,,,,,,,,,,,,,,,,,,,,,,,,,,,,,,,
,,,,,,4,0,4,0,1,X V Q F H G B L J M P D K C T S W R N Z,5fa25dd28b0f6842755417f3,19,Mężczyzna,2022-06-11_09h36.47.586,task,2021.1.4,MacIntel,60.0024001,6299f149e92ead563fba08ef,62a44603ec6699af1dc20160,,,,,,,,,,,,,,,,,,,,,,,,,,,,,,,,,,,,,,,,,,,,,,,,,,,,,,,,,,,,,,,,,,,,,,,,,,,,,,,,,,,,,,,,,,,,,,,,,,,,,
,,,,,,5,0,5,0,1,X V Q F H G B L J M P D K C T S W R N Z,5fa25dd28b0f6842755417f3,19,Mężczyzna,2022-06-11_09h36.47.586,task,2021.1.4,MacIntel,60.0024001,6299f149e92ead563fba08ef,62a44603ec6699af1dc20160,,,,,,,,,,,,,,,,,,,,,,,,,,,,,,,,,,,,,,,,,,,,,,,,,,,,,,,,,,,,,,,,,,,,,,,,,,,,,,,,,,,,,,,,,,,,,,,,,,,,,
,,,,,,6,0,6,0,1,X V Q F H G B L J M P D K C T S W R N Z,5fa25dd28b0f6842755417f3,19,Mężczyzna,2022-06-11_09h36.47.586,task,2021.1.4,MacIntel,60.0024001,6299f149e92ead563fba08ef,62a44603ec6699af1dc20160,,,,,,,,,,,,,,,,,,,,,,,,,,,,,,,,,,,,,,,,,,,,,,,,,,,,,,,,,,,,,,,,,,,,,,,,,,,,,,,,,,,,,,,,,,,,,,,,,,,,,
,,,,,,7,0,7,0,1,X V Q F H G B L J M P D K C T S W R N Z,5fa25dd28b0f6842755417f3,19,Mężczyzna,2022-06-11_09h36.47.586,task,2021.1.4,MacIntel,60.0024001,6299f149e92ead563fba08ef,62a44603ec6699af1dc20160,,,,,,,,,,,,,,,,,,,,,,,,,,,,,,,,,,,,,,,,,,,,,,,,,,,,,,,,,,,,,,,,,,,,,,,,,,,,,,,,,,,,,,,,,,,,,,,,,,,,,
,,,,,,8,0,8,0,1,X V Q F H G B L J M P D K C T S W R N Z,5fa25dd28b0f6842755417f3,19,Mężczyzna,2022-06-11_09h36.47.586,task,2021.1.4,MacIntel,60.0024001,6299f149e92ead563fba08ef,62a44603ec6699af1dc20160,,,,,,,,,,,,,,,,,,,,,,,,,,,,,,,,,,,,,,,,,,,,,,,,,,,,,,,,,,,,,,,,,,,,,,,,,,,,,,,,,,,,,,,,,,,,,,,,,,,,,
,,,,,,9,0,9,0,1,X V Q F H G B L J M P D K C T S W R N Z,5fa25dd28b0f6842755417f3,19,Mężczyzna,2022-06-11_09h36.47.586,task,2021.1.4,MacIntel,60.0024001,6299f149e92ead563fba08ef,62a44603ec6699af1dc20160,,,,,,,,,,,,,,,,,,,,,,,,,,,,,,,,,,,,,,,,,,,,,,,,,,,,,,,,,,,,,,,,,,,,,,,,,,,,,,,,,,,,,,,,,,,,,,,,,,,,,
,,,,,,10,0,10,0,1,X V Q F H G B L J M P D K C T S W R N Z,5fa25dd28b0f6842755417f3,19,Mężczyzna,2022-06-11_09h36.47.586,task,2021.1.4,MacIntel,60.0024001,6299f149e92ead563fba08ef,62a44603ec6699af1dc20160,,,,,,,,,,,,,,,,,,,,,,,,,,,,,,,,,,,,,,,,,,,,,,,,,,,,,,,,,,,,,,,,,,,,,,,,,,,,,,,,,,,,,,,,,,,,,,,,,,,,,
,,,,,,,,,,,,5fa25dd28b0f6842755417f3,19,Mężczyzna,2022-06-11_09h36.47.586,task,2021.1.4,MacIntel,60.0024001,6299f149e92ead563fba08ef,62a44603ec6699af1dc20160,fxtbjfqtszg,"[""f"",""x"",""t"",""b"",""j"",""f"",""q"",""t"",""s"",""z"",""g""]","[2.3015000000000327,2.62409999999403,2.980900000005988,3.4662000000029707,4.529700000003004,5.300000000000011,5.899700000003008,6.265400000005968,7.089700000003006,7.383799999997052,7.573900000005949,8.132200000002967]",1,FXTBJFQTSZG,20,0,20,0,1,,,,,,,,,,,,,,,,,,,,,,,,,,,,,,,,,,,,,,,,,,,,,,,,,,,,,,,,,,,,,,,,,,,,,,,,,,,,,,,,,,,,,,,,,,,
,,,,,,0,0,0,0,1,X V Q F H G B L J M P D K C T S W R N Z,5fa25dd28b0f6842755417f3,19,Mężczyzna,2022-06-11_09h36.47.586,task,2021.1.4,MacIntel,60.0024001,6299f149e92ead563fba08ef,62a44603ec6699af1dc20160,,,,,,,,,,,,,,,,,,,,,,,,,,,,,,,,,,,,,,,,,,,,,,,,,,,,,,,,,,,,,,,,,,,,,,,,,,,,,,,,,,,,,,,,,,,,,,,,,,,,,
,,,,,,1,0,1,0,1,X V Q F H G B L J M P D K C T S W R N Z,5fa25dd28b0f6842755417f3,19,Mężczyzna,2022-06-11_09h36.47.586,task,2021.1.4,MacIntel,60.0024001,6299f149e92ead563fba08ef,62a44603ec6699af1dc20160,,,,,,,,,,,,,,,,,,,,,,,,,,,,,,,,,,,,,,,,,,,,,,,,,,,,,,,,,,,,,,,,,,,,,,,,,,,,,,,,,,,,,,,,,,,,,,,,,,,,,
,,,,,,2,0,2,0,1,X V Q F H G B L J M P D K C T S W R N Z,5fa25dd28b0f6842755417f3,19,Mężczyzna,2022-06-11_09h36.47.586,task,2021.1.4,MacIntel,60.0024001,6299f149e92ead563fba08ef,62a44603ec6699af1dc20160,,,,,,,,,,,,,,,,,,,,,,,,,,,,,,,,,,,,,,,,,,,,,,,,,,,,,,,,,,,,,,,,,,,,,,,,,,,,,,,,,,,,,,,,,,,,,,,,,,,,,
,,,,,,3,0,3,0,1,X V Q F H G B L J M P D K C T S W R N Z,5fa25dd28b0f6842755417f3,19,Mężczyzna,2022-06-11_09h36.47.586,task,2021.1.4,MacIntel,60.0024001,6299f149e92ead563fba08ef,62a44603ec6699af1dc20160,,,,,,,,,,,,,,,,,,,,,,,,,,,,,,,,,,,,,,,,,,,,,,,,,,,,,,,,,,,,,,,,,,,,,,,,,,,,,,,,,,,,,,,,,,,,,,,,,,,,,
,,,,,,4,0,4,0,1,X V Q F H G B L J M P D K C T S W R N Z,5fa25dd28b0f6842755417f3,19,Mężczyzna,2022-06-11_09h36.47.586,task,2021.1.4,MacIntel,60.0024001,6299f149e92ead563fba08ef,62a44603ec6699af1dc20160,,,,,,,,,,,,,,,,,,,,,,,,,,,,,,,,,,,,,,,,,,,,,,,,,,,,,,,,,,,,,,,,,,,,,,,,,,,,,,,,,,,,,,,,,,,,,,,,,,,,,
,,,,,,5,0,5,0,1,X V Q F H G B L J M P D K C T S W R N Z,5fa25dd28b0f6842755417f3,19,Mężczyzna,2022-06-11_09h36.47.586,task,2021.1.4,MacIntel,60.0024001,6299f149e92ead563fba08ef,62a44603ec6699af1dc20160,,,,,,,,,,,,,,,,,,,,,,,,,,,,,,,,,,,,,,,,,,,,,,,,,,,,,,,,,,,,,,,,,,,,,,,,,,,,,,,,,,,,,,,,,,,,,,,,,,,,,
,,,,,,6,0,6,0,1,X V Q F H G B L J M P D K C T S W R N Z,5fa25dd28b0f6842755417f3,19,Mężczyzna,2022-06-11_09h36.47.586,task,2021.1.4,MacIntel,60.0024001,6299f149e92ead563fba08ef,62a44603ec6699af1dc20160,,,,,,,,,,,,,,,,,,,,,,,,,,,,,,,,,,,,,,,,,,,,,,,,,,,,,,,,,,,,,,,,,,,,,,,,,,,,,,,,,,,,,,,,,,,,,,,,,,,,,
,,,,,,7,0,7,0,1,X V Q F H G B L J M P D K C T S W R N Z,5fa25dd28b0f6842755417f3,19,Mężczyzna,2022-06-11_09h36.47.586,task,2021.1.4,MacIntel,60.0024001,6299f149e92ead563fba08ef,62a44603ec6699af1dc20160,,,,,,,,,,,,,,,,,,,,,,,,,,,,,,,,,,,,,,,,,,,,,,,,,,,,,,,,,,,,,,,,,,,,,,,,,,,,,,,,,,,,,,,,,,,,,,,,,,,,,
,,,,,,8,0,8,0,1,X V Q F H G B L J M P D K C T S W R N Z,5fa25dd28b0f6842755417f3,19,Mężczyzna,2022-06-11_09h36.47.586,task,2021.1.4,MacIntel,60.0024001,6299f149e92ead563fba08ef,62a44603ec6699af1dc20160,,,,,,,,,,,,,,,,,,,,,,,,,,,,,,,,,,,,,,,,,,,,,,,,,,,,,,,,,,,,,,,,,,,,,,,,,,,,,,,,,,,,,,,,,,,,,,,,,,,,,
,,,,,,9,0,9,0,1,X V Q F H G B L J M P D K C T S W R N Z,5fa25dd28b0f6842755417f3,19,Mężczyzna,2022-06-11_09h36.47.586,task,2021.1.4,MacIntel,60.0024001,6299f149e92ead563fba08ef,62a44603ec6699af1dc20160,,,,,,,,,,,,,,,,,,,,,,,,,,,,,,,,,,,,,,,,,,,,,,,,,,,,,,,,,,,,,,,,,,,,,,,,,,,,,,,,,,,,,,,,,,,,,,,,,,,,,
,,,,,,10,0,10,0,1,X V Q F H G B L J M P D K C T S W R N Z,5fa25dd28b0f6842755417f3,19,Mężczyzna,2022-06-11_09h36.47.586,task,2021.1.4,MacIntel,60.0024001,6299f149e92ead563fba08ef,62a44603ec6699af1dc20160,,,,,,,,,,,,,,,,,,,,,,,,,,,,,,,,,,,,,,,,,,,,,,,,,,,,,,,,,,,,,,,,,,,,,,,,,,,,,,,,,,,,,,,,,,,,,,,,,,,,,
,,,,,,,,,,,,5fa25dd28b0f6842755417f3,19,Mężczyzna,2022-06-11_09h36.47.586,task,2021.1.4,MacIntel,60.0024001,6299f149e92ead563fba08ef,62a44603ec6699af1dc20160,jlxbswwzncp,"[""j"",""l"",""x"",""b"",""s"",""w"",""w"",""z"",""n"",""c"",""p""]","[2.367899999991039,2.776099999994017,3.5805999999940354,3.957899999991014,4.152599999994038,5.517499999999984,5.76689999999104,6.206999999999994,6.507499999999993,6.8528999999910525,7.548599999993996,8.255899999991016]",1,JLXBSWWZNCP,21,0,21,0,1,,,,,,,,,,,,,,,,,,,,,,,,,,,,,,,,,,,,,,,,,,,,,,,,,,,,,,,,,,,,,,,,,,,,,,,,,,,,,,,,,,,,,,,,,,,
,,,,,,0,0,0,0,1,X V Q F H G B L J M P D K C T S W R N Z,5fa25dd28b0f6842755417f3,19,Mężczyzna,2022-06-11_09h36.47.586,task,2021.1.4,MacIntel,60.0024001,6299f149e92ead563fba08ef,62a44603ec6699af1dc20160,,,,,,,,,,,,,,,,,,,,,,,,,,,,,,,,,,,,,,,,,,,,,,,,,,,,,,,,,,,,,,,,,,,,,,,,,,,,,,,,,,,,,,,,,,,,,,,,,,,,,
,,,,,,1,0,1,0,1,X V Q F H G B L J M P D K C T S W R N Z,5fa25dd28b0f6842755417f3,19,Mężczyzna,2022-06-11_09h36.47.586,task,2021.1.4,MacIntel,60.0024001,6299f149e92ead563fba08ef,62a44603ec6699af1dc20160,,,,,,,,,,,,,,,,,,,,,,,,,,,,,,,,,,,,,,,,,,,,,,,,,,,,,,,,,,,,,,,,,,,,,,,,,,,,,,,,,,,,,,,,,,,,,,,,,,,,,
,,,,,,2,0,2,0,1,X V Q F H G B L J M P D K C T S W R N Z,5fa25dd28b0f6842755417f3,19,Mężczyzna,2022-06-11_09h36.47.586,task,2021.1.4,MacIntel,60.0024001,6299f149e92ead563fba08ef,62a44603ec6699af1dc20160,,,,,,,,,,,,,,,,,,,,,,,,,,,,,,,,,,,,,,,,,,,,,,,,,,,,,,,,,,,,,,,,,,,,,,,,,,,,,,,,,,,,,,,,,,,,,,,,,,,,,
,,,,,,3,0,3,0,1,X V Q F H G B L J M P D K C T S W R N Z,5fa25dd28b0f6842755417f3,19,Mężczyzna,2022-06-11_09h36.47.586,task,2021.1.4,MacIntel,60.0024001,6299f149e92ead563fba08ef,62a44603ec6699af1dc20160,,,,,,,,,,,,,,,,,,,,,,,,,,,,,,,,,,,,,,,,,,,,,,,,,,,,,,,,,,,,,,,,,,,,,,,,,,,,,,,,,,,,,,,,,,,,,,,,,,,,,
,,,,,,4,0,4,0,1,X V Q F H G B L J M P D K C T S W R N Z,5fa25dd28b0f6842755417f3,19,Mężczyzna,2022-06-11_09h36.47.586,task,2021.1.4,MacIntel,60.0024001,6299f149e92ead563fba08ef,62a44603ec6699af1dc20160,,,,,,,,,,,,,,,,,,,,,,,,,,,,,,,,,,,,,,,,,,,,,,,,,,,,,,,,,,,,,,,,,,,,,,,,,,,,,,,,,,,,,,,,,,,,,,,,,,,,,
,,,,,,5,0,5,0,1,X V Q F H G B L J M P D K C T S W R N Z,5fa25dd28b0f6842755417f3,19,Mężczyzna,2022-06-11_09h36.47.586,task,2021.1.4,MacIntel,60.0024001,6299f149e92ead563fba08ef,62a44603ec6699af1dc20160,,,,,,,,,,,,,,,,,,,,,,,,,,,,,,,,,,,,,,,,,,,,,,,,,,,,,,,,,,,,,,,,,,,,,,,,,,,,,,,,,,,,,,,,,,,,,,,,,,,,,
,,,,,,6,0,6,0,1,X V Q F H G B L J M P D K C T S W R N Z,5fa25dd28b0f6842755417f3,19,Mężczyzna,2022-06-11_09h36.47.586,task,2021.1.4,MacIntel,60.0024001,6299f149e92ead563fba08ef,62a44603ec6699af1dc20160,,,,,,,,,,,,,,,,,,,,,,,,,,,,,,,,,,,,,,,,,,,,,,,,,,,,,,,,,,,,,,,,,,,,,,,,,,,,,,,,,,,,,,,,,,,,,,,,,,,,,
,,,,,,7,0,7,0,1,X V Q F H G B L J M P D K C T S W R N Z,5fa25dd28b0f6842755417f3,19,Mężczyzna,2022-06-11_09h36.47.586,task,2021.1.4,MacIntel,60.0024001,6299f149e92ead563fba08ef,62a44603ec6699af1dc20160,,,,,,,,,,,,,,,,,,,,,,,,,,,,,,,,,,,,,,,,,,,,,,,,,,,,,,,,,,,,,,,,,,,,,,,,,,,,,,,,,,,,,,,,,,,,,,,,,,,,,
,,,,,,8,0,8,0,1,X V Q F H G B L J M P D K C T S W R N Z,5fa25dd28b0f6842755417f3,19,Mężczyzna,2022-06-11_09h36.47.586,task,2021.1.4,MacIntel,60.0024001,6299f149e92ead563fba08ef,62a44603ec6699af1dc20160,,,,,,,,,,,,,,,,,,,,,,,,,,,,,,,,,,,,,,,,,,,,,,,,,,,,,,,,,,,,,,,,,,,,,,,,,,,,,,,,,,,,,,,,,,,,,,,,,,,,,
,,,,,,9,0,9,0,1,X V Q F H G B L J M P D K C T S W R N Z,5fa25dd28b0f6842755417f3,19,Mężczyzna,2022-06-11_09h36.47.586,task,2021.1.4,MacIntel,60.0024001,6299f149e92ead563fba08ef,62a44603ec6699af1dc20160,,,,,,,,,,,,,,,,,,,,,,,,,,,,,,,,,,,,,,,,,,,,,,,,,,,,,,,,,,,,,,,,,,,,,,,,,,,,,,,,,,,,,,,,,,,,,,,,,,,,,
,,,,,,10,0,10,0,1,X V Q F H G B L J M P D K C T S W R N Z,5fa25dd28b0f6842755417f3,19,Mężczyzna,2022-06-11_09h36.47.586,task,2021.1.4,MacIntel,60.0024001,6299f149e92ead563fba08ef,62a44603ec6699af1dc20160,,,,,,,,,,,,,,,,,,,,,,,,,,,,,,,,,,,,,,,,,,,,,,,,,,,,,,,,,,,,,,,,,,,,,,,,,,,,,,,,,,,,,,,,,,,,,,,,,,,,,
,,,,,,11,0,11,0,1,X V Q F H G B L J M P D K C T S W R N Z,5fa25dd28b0f6842755417f3,19,Mężczyzna,2022-06-11_09h36.47.586,task,2021.1.4,MacIntel,60.0024001,6299f149e92ead563fba08ef,62a44603ec6699af1dc20160,,,,,,,,,,,,,,,,,,,,,,,,,,,,,,,,,,,,,,,,,,,,,,,,,,,,,,,,,,,,,,,,,,,,,,,,,,,,,,,,,,,,,,,,,,,,,,,,,,,,,
,,,,,,,,,,,,5fa25dd28b0f6842755417f3,19,Mężczyzna,2022-06-11_09h36.47.586,task,2021.1.4,MacIntel,60.0024001,6299f149e92ead563fba08ef,62a44603ec6699af1dc20160,bfxmnbxjjnzk,"[""b"",""f"",""x"",""m"",""n"",""b"",""x"",""j"",""j"",""n"",""z"",""k""]","[2.457099999994,3.332899999991014,3.8332999999969957,4.365599999994004,4.718099999994024,5.2343999999910125,5.682200000002979,6.316200000002937,6.492799999996976,6.94020000000296,7.137700000002951,7.467799999996998,8.666099999994003]",1,BFXMNBXJJNZK,22,0,22,0,1,,,,,,,,,,,,,,,,,,,,,,,,,,,,,,,,,,,,,,,,,,,,,,,,,,,,,,,,,,,,,,,,,,,,,,,,,,,,,,,,,,,,,,,,,,,
,,,,,,0,0,0,0,1,X V Q F H G B L J M P D K C T S W R N Z,5fa25dd28b0f6842755417f3,19,Mężczyzna,2022-06-11_09h36.47.586,task,2021.1.4,MacIntel,60.0024001,6299f149e92ead563fba08ef,62a44603ec6699af1dc20160,,,,,,,,,,,,,,,,,,,,,,,,,,,,,,,,,,,,,,,,,,,,,,,,,,,,,,,,,,,,,,,,,,,,,,,,,,,,,,,,,,,,,,,,,,,,,,,,,,,,,
,,,,,,1,0,1,0,1,X V Q F H G B L J M P D K C T S W R N Z,5fa25dd28b0f6842755417f3,19,Mężczyzna,2022-06-11_09h36.47.586,task,2021.1.4,MacIntel,60.0024001,6299f149e92ead563fba08ef,62a44603ec6699af1dc20160,,,,,,,,,,,,,,,,,,,,,,,,,,,,,,,,,,,,,,,,,,,,,,,,,,,,,,,,,,,,,,,,,,,,,,,,,,,,,,,,,,,,,,,,,,,,,,,,,,,,,
,,,,,,2,0,2,0,1,X V Q F H G B L J M P D K C T S W R N Z,5fa25dd28b0f6842755417f3,19,Mężczyzna,2022-06-11_09h36.47.586,task,2021.1.4,MacIntel,60.0024001,6299f149e92ead563fba08ef,62a44603ec6699af1dc20160,,,,,,,,,,,,,,,,,,,,,,,,,,,,,,,,,,,,,,,,,,,,,,,,,,,,,,,,,,,,,,,,,,,,,,,,,,,,,,,,,,,,,,,,,,,,,,,,,,,,,
,,,,,,3,0,3,0,1,X V Q F H G B L J M P D K C T S W R N Z,5fa25dd28b0f6842755417f3,19,Mężczyzna,2022-06-11_09h36.47.586,task,2021.1.4,MacIntel,60.0024001,6299f149e92ead563fba08ef,62a44603ec6699af1dc20160,,,,,,,,,,,,,,,,,,,,,,,,,,,,,,,,,,,,,,,,,,,,,,,,,,,,,,,,,,,,,,,,,,,,,,,,,,,,,,,,,,,,,,,,,,,,,,,,,,,,,
,,,,,,4,0,4,0,1,X V Q F H G B L J M P D K C T S W R N Z,5fa25dd28b0f6842755417f3,19,Mężczyzna,2022-06-11_09h36.47.586,task,2021.1.4,MacIntel,60.0024001,6299f149e92ead563fba08ef,62a44603ec6699af1dc20160,,,,,,,,,,,,,,,,,,,,,,,,,,,,,,,,,,,,,,,,,,,,,,,,,,,,,,,,,,,,,,,,,,,,,,,,,,,,,,,,,,,,,,,,,,,,,,,,,,,,,
,,,,,,5,0,5,0,1,X V Q F H G B L J M P D K C T S W R N Z,5fa25dd28b0f6842755417f3,19,Mężczyzna,2022-06-11_09h36.47.586,task,2021.1.4,MacIntel,60.0024001,6299f149e92ead563fba08ef,62a44603ec6699af1dc20160,,,,,,,,,,,,,,,,,,,,,,,,,,,,,,,,,,,,,,,,,,,,,,,,,,,,,,,,,,,,,,,,,,,,,,,,,,,,,,,,,,,,,,,,,,,,,,,,,,,,,
,,,,,,6,0,6,0,1,X V Q F H G B L J M P D K C T S W R N Z,5fa25dd28b0f6842755417f3,19,Mężczyzna,2022-06-11_09h36.47.586,task,2021.1.4,MacIntel,60.0024001,6299f149e92ead563fba08ef,62a44603ec6699af1dc20160,,,,,,,,,,,,,,,,,,,,,,,,,,,,,,,,,,,,,,,,,,,,,,,,,,,,,,,,,,,,,,,,,,,,,,,,,,,,,,,,,,,,,,,,,,,,,,,,,,,,,
,,,,,,7,0,7,0,1,X V Q F H G B L J M P D K C T S W R N Z,5fa25dd28b0f6842755417f3,19,Mężczyzna,2022-06-11_09h36.47.586,task,2021.1.4,MacIntel,60.0024001,6299f149e92ead563fba08ef,62a44603ec6699af1dc20160,,,,,,,,,,,,,,,,,,,,,,,,,,,,,,,,,,,,,,,,,,,,,,,,,,,,,,,,,,,,,,,,,,,,,,,,,,,,,,,,,,,,,,,,,,,,,,,,,,,,,
,,,,,,8,0,8,0,1,X V Q F H G B L J M P D K C T S W R N Z,5fa25dd28b0f6842755417f3,19,Mężczyzna,2022-06-11_09h36.47.586,task,2021.1.4,MacIntel,60.0024001,6299f149e92ead563fba08ef,62a44603ec6699af1dc20160,,,,,,,,,,,,,,,,,,,,,,,,,,,,,,,,,,,,,,,,,,,,,,,,,,,,,,,,,,,,,,,,,,,,,,,,,,,,,,,,,,,,,,,,,,,,,,,,,,,,,
,,,,,,9,0,9,0,1,X V Q F H G B L J M P D K C T S W R N Z,5fa25dd28b0f6842755417f3,19,Mężczyzna,2022-06-11_09h36.47.586,task,2021.1.4,MacIntel,60.0024001,6299f149e92ead563fba08ef,62a44603ec6699af1dc20160,,,,,,,,,,,,,,,,,,,,,,,,,,,,,,,,,,,,,,,,,,,,,,,,,,,,,,,,,,,,,,,,,,,,,,,,,,,,,,,,,,,,,,,,,,,,,,,,,,,,,
,,,,,,10,0,10,0,1,X V Q F H G B L J M P D K C T S W R N Z,5fa25dd28b0f6842755417f3,19,Mężczyzna,2022-06-11_09h36.47.586,task,2021.1.4,MacIntel,60.0024001,6299f149e92ead563fba08ef,62a44603ec6699af1dc20160,,,,,,,,,,,,,,,,,,,,,,,,,,,,,,,,,,,,,,,,,,,,,,,,,,,,,,,,,,,,,,,,,,,,,,,,,,,,,,,,,,,,,,,,,,,,,,,,,,,,,
,,,,,,11,0,11,0,1,X V Q F H G B L J M P D K C T S W R N Z,5fa25dd28b0f6842755417f3,19,Mężczyzna,2022-06-11_09h36.47.586,task,2021.1.4,MacIntel,60.0024001,6299f149e92ead563fba08ef,62a44603ec6699af1dc20160,,,,,,,,,,,,,,,,,,,,,,,,,,,,,,,,,,,,,,,,,,,,,,,,,,,,,,,,,,,,,,,,,,,,,,,,,,,,,,,,,,,,,,,,,,,,,,,,,,,,,
,,,,,,,,,,,,5fa25dd28b0f6842755417f3,19,Mężczyzna,2022-06-11_09h36.47.586,task,2021.1.4,MacIntel,60.0024001,6299f149e92ead563fba08ef,62a44603ec6699af1dc20160,sbpnkkdprwtg,"[""s"",""b"",""p"",""n"",""k"",""k"",""d"",""p"",""r"",""w"",""t"",""g""]","[2.638500000000022,2.872000000000014,3.4530999999940377,3.800700000003019,5.085700000002987,5.301099999994051,6.267599999994047,6.435299999997028,7.038799999997025,7.350799999997037,7.493399999991084,8.491299999997068,9.23620000000301]",1,SBPNKKDPRWTG,23,0,23,0,1,,,,,,,,,,,,,,,,,,,,,,,,,,,,,,,,,,,,,,,,,,,,,,,,,,,,,,,,,,,,,,,,,,,,,,,,,,,,,,,,,,,,,,,,,,,
,,,,,,0,0,0,0,1,X V Q F H G B L J M P D K C T S W R N Z,5fa25dd28b0f6842755417f3,19,Mężczyzna,2022-06-11_09h36.47.586,task,2021.1.4,MacIntel,60.0024001,6299f149e92ead563fba08ef,62a44603ec6699af1dc20160,,,,,,,,,,,,,,,,,,,,,,,,,,,,,,,,,,,,,,,,,,,,,,,,,,,,,,,,,,,,,,,,,,,,,,,,,,,,,,,,,,,,,,,,,,,,,,,,,,,,,
,,,,,,1,0,1,0,1,X V Q F H G B L J M P D K C T S W R N Z,5fa25dd28b0f6842755417f3,19,Mężczyzna,2022-06-11_09h36.47.586,task,2021.1.4,MacIntel,60.0024001,6299f149e92ead563fba08ef,62a44603ec6699af1dc20160,,,,,,,,,,,,,,,,,,,,,,,,,,,,,,,,,,,,,,,,,,,,,,,,,,,,,,,,,,,,,,,,,,,,,,,,,,,,,,,,,,,,,,,,,,,,,,,,,,,,,
,,,,,,2,0,2,0,1,X V Q F H G B L J M P D K C T S W R N Z,5fa25dd28b0f6842755417f3,19,Mężczyzna,2022-06-11_09h36.47.586,task,2021.1.4,MacIntel,60.0024001,6299f149e92ead563fba08ef,62a44603ec6699af1dc20160,,,,,,,,,,,,,,,,,,,,,,,,,,,,,,,,,,,,,,,,,,,,,,,,,,,,,,,,,,,,,,,,,,,,,,,,,,,,,,,,,,,,,,,,,,,,,,,,,,,,,
,,,,,,3,0,3,0,1,X V Q F H G B L J M P D K C T S W R N Z,5fa25dd28b0f6842755417f3,19,Mężczyzna,2022-06-11_09h36.47.586,task,2021.1.4,MacIntel,60.0024001,6299f149e92ead563fba08ef,62a44603ec6699af1dc20160,,,,,,,,,,,,,,,,,,,,,,,,,,,,,,,,,,,,,,,,,,,,,,,,,,,,,,,,,,,,,,,,,,,,,,,,,,,,,,,,,,,,,,,,,,,,,,,,,,,,,
,,,,,,4,0,4,0,1,X V Q F H G B L J M P D K C T S W R N Z,5fa25dd28b0f6842755417f3,19,Mężczyzna,2022-06-11_09h36.47.586,task,2021.1.4,MacIntel,60.0024001,6299f149e92ead563fba08ef,62a44603ec6699af1dc20160,,,,,,,,,,,,,,,,,,,,,,,,,,,,,,,,,,,,,,,,,,,,,,,,,,,,,,,,,,,,,,,,,,,,,,,,,,,,,,,,,,,,,,,,,,,,,,,,,,,,,
,,,,,,5,0,5,0,1,X V Q F H G B L J M P D K C T S W R N Z,5fa25dd28b0f6842755417f3,19,Mężczyzna,2022-06-11_09h36.47.586,task,2021.1.4,MacIntel,60.0024001,6299f149e92ead563fba08ef,62a44603ec6699af1dc20160,,,,,,,,,,,,,,,,,,,,,,,,,,,,,,,,,,,,,,,,,,,,,,,,,,,,,,,,,,,,,,,,,,,,,,,,,,,,,,,,,,,,,,,,,,,,,,,,,,,,,
,,,,,,6,0,6,0,1,X V Q F H G B L J M P D K C T S W R N Z,5fa25dd28b0f6842755417f3,19,Mężczyzna,2022-06-11_09h36.47.586,task,2021.1.4,MacIntel,60.0024001,6299f149e92ead563fba08ef,62a44603ec6699af1dc20160,,,,,,,,,,,,,,,,,,,,,,,,,,,,,,,,,,,,,,,,,,,,,,,,,,,,,,,,,,,,,,,,,,,,,,,,,,,,,,,,,,,,,,,,,,,,,,,,,,,,,
,,,,,,7,0,7,0,1,X V Q F H G B L J M P D K C T S W R N Z,5fa25dd28b0f6842755417f3,19,Mężczyzna,2022-06-11_09h36.47.586,task,2021.1.4,MacIntel,60.0024001,6299f149e92ead563fba08ef,62a44603ec6699af1dc20160,,,,,,,,,,,,,,,,,,,,,,,,,,,,,,,,,,,,,,,,,,,,,,,,,,,,,,,,,,,,,,,,,,,,,,,,,,,,,,,,,,,,,,,,,,,,,,,,,,,,,
,,,,,,8,0,8,0,1,X V Q F H G B L J M P D K C T S W R N Z,5fa25dd28b0f6842755417f3,19,Mężczyzna,2022-06-11_09h36.47.586,task,2021.1.4,MacIntel,60.0024001,6299f149e92ead563fba08ef,62a44603ec6699af1dc20160,,,,,,,,,,,,,,,,,,,,,,,,,,,,,,,,,,,,,,,,,,,,,,,,,,,,,,,,,,,,,,,,,,,,,,,,,,,,,,,,,,,,,,,,,,,,,,,,,,,,,
,,,,,,9,0,9,0,1,X V Q F H G B L J M P D K C T S W R N Z,5fa25dd28b0f6842755417f3,19,Mężczyzna,2022-06-11_09h36.47.586,task,2021.1.4,MacIntel,60.0024001,6299f149e92ead563fba08ef,62a44603ec6699af1dc20160,,,,,,,,,,,,,,,,,,,,,,,,,,,,,,,,,,,,,,,,,,,,,,,,,,,,,,,,,,,,,,,,,,,,,,,,,,,,,,,,,,,,,,,,,,,,,,,,,,,,,
,,,,,,10,0,10,0,1,X V Q F H G B L J M P D K C T S W R N Z,5fa25dd28b0f6842755417f3,19,Mężczyzna,2022-06-11_09h36.47.586,task,2021.1.4,MacIntel,60.0024001,6299f149e92ead563fba08ef,62a44603ec6699af1dc20160,,,,,,,,,,,,,,,,,,,,,,,,,,,,,,,,,,,,,,,,,,,,,,,,,,,,,,,,,,,,,,,,,,,,,,,,,,,,,,,,,,,,,,,,,,,,,,,,,,,,,
,,,,,,11,0,11,0,1,X V Q F H G B L J M P D K C T S W R N Z,5fa25dd28b0f6842755417f3,19,Mężczyzna,2022-06-11_09h36.47.586,task,2021.1.4,MacIntel,60.0024001,6299f149e92ead563fba08ef,62a44603ec6699af1dc20160,,,,,,,,,,,,,,,,,,,,,,,,,,,,,,,,,,,,,,,,,,,,,,,,,,,,,,,,,,,,,,,,,,,,,,,,,,,,,,,,,,,,,,,,,,,,,,,,,,,,,
,,,,,,12,0,12,0,1,X V Q F H G B L J M P D K C T S W R N Z,5fa25dd28b0f6842755417f3,19,Mężczyzna,2022-06-11_09h36.47.586,task,2021.1.4,MacIntel,60.0024001,6299f149e92ead563fba08ef,62a44603ec6699af1dc20160,,,,,,,,,,,,,,,,,,,,,,,,,,,,,,,,,,,,,,,,,,,,,,,,,,,,,,,,,,,,,,,,,,,,,,,,,,,,,,,,,,,,,,,,,,,,,,,,,,,,,
,,,,,,,,,,,,5fa25dd28b0f6842755417f3,19,Mężczyzna,2022-06-11_09h36.47.586,task,2021.1.4,MacIntel,60.0024001,6299f149e92ead563fba08ef,62a44603ec6699af1dc20160,jlqchzpkvvlck,"[""j"",""l"",""q"",""c"",""h"",""z"",""p"",""k"",""v"",""v"",""l"",""c"",""k""]","[1.6802999999970325,1.9563999999910493,2.5988999999910334,3.034599999994043,3.9665999999940027,5.634399999991047,5.816699999988089,6.022699999988049,7.400199999988047,7.601099999994005,7.819799999997031,9.118399999991027,9.202899999991075,9.525699999988092]",1,JLQCHZPKVVLCK,24,0,24,0,1,,,,,,,,,,,,,,,,,,,,,,,,,,,,,,,,,,,,,,,,,,,,,,,,,,,,,,,,,,,,,,,,,,,,,,,,,,,,,,,,,,,,,,,,,,,
,,,,,,0,0,0,0,1,X V Q F H G B L J M P D K C T S W R N Z,5fa25dd28b0f6842755417f3,19,Mężczyzna,2022-06-11_09h36.47.586,task,2021.1.4,MacIntel,60.0024001,6299f149e92ead563fba08ef,62a44603ec6699af1dc20160,,,,,,,,,,,,,,,,,,,,,,,,,,,,,,,,,,,,,,,,,,,,,,,,,,,,,,,,,,,,,,,,,,,,,,,,,,,,,,,,,,,,,,,,,,,,,,,,,,,,,
,,,,,,1,0,1,0,1,X V Q F H G B L J M P D K C T S W R N Z,5fa25dd28b0f6842755417f3,19,Mężczyzna,2022-06-11_09h36.47.586,task,2021.1.4,MacIntel,60.0024001,6299f149e92ead563fba08ef,62a44603ec6699af1dc20160,,,,,,,,,,,,,,,,,,,,,,,,,,,,,,,,,,,,,,,,,,,,,,,,,,,,,,,,,,,,,,,,,,,,,,,,,,,,,,,,,,,,,,,,,,,,,,,,,,,,,
,,,,,,2,0,2,0,1,X V Q F H G B L J M P D K C T S W R N Z,5fa25dd28b0f6842755417f3,19,Mężczyzna,2022-06-11_09h36.47.586,task,2021.1.4,MacIntel,60.0024001,6299f149e92ead563fba08ef,62a44603ec6699af1dc20160,,,,,,,,,,,,,,,,,,,,,,,,,,,,,,,,,,,,,,,,,,,,,,,,,,,,,,,,,,,,,,,,,,,,,,,,,,,,,,,,,,,,,,,,,,,,,,,,,,,,,
,,,,,,3,0,3,0,1,X V Q F H G B L J M P D K C T S W R N Z,5fa25dd28b0f6842755417f3,19,Mężczyzna,2022-06-11_09h36.47.586,task,2021.1.4,MacIntel,60.0024001,6299f149e92ead563fba08ef,62a44603ec6699af1dc20160,,,,,,,,,,,,,,,,,,,,,,,,,,,,,,,,,,,,,,,,,,,,,,,,,,,,,,,,,,,,,,,,,,,,,,,,,,,,,,,,,,,,,,,,,,,,,,,,,,,,,
,,,,,,4,0,4,0,1,X V Q F H G B L J M P D K C T S W R N Z,5fa25dd28b0f6842755417f3,19,Mężczyzna,2022-06-11_09h36.47.586,task,2021.1.4,MacIntel,60.0024001,6299f149e92ead563fba08ef,62a44603ec6699af1dc20160,,,,,,,,,,,,,,,,,,,,,,,,,,,,,,,,,,,,,,,,,,,,,,,,,,,,,,,,,,,,,,,,,,,,,,,,,,,,,,,,,,,,,,,,,,,,,,,,,,,,,
,,,,,,5,0,5,0,1,X V Q F H G B L J M P D K C T S W R N Z,5fa25dd28b0f6842755417f3,19,Mężczyzna,2022-06-11_09h36.47.586,task,2021.1.4,MacIntel,60.0024001,6299f149e92ead563fba08ef,62a44603ec6699af1dc20160,,,,,,,,,,,,,,,,,,,,,,,,,,,,,,,,,,,,,,,,,,,,,,,,,,,,,,,,,,,,,,,,,,,,,,,,,,,,,,,,,,,,,,,,,,,,,,,,,,,,,
,,,,,,6,0,6,0,1,X V Q F H G B L J M P D K C T S W R N Z,5fa25dd28b0f6842755417f3,19,Mężczyzna,2022-06-11_09h36.47.586,task,2021.1.4,MacIntel,60.0024001,6299f149e92ead563fba08ef,62a44603ec6699af1dc20160,,,,,,,,,,,,,,,,,,,,,,,,,,,,,,,,,,,,,,,,,,,,,,,,,,,,,,,,,,,,,,,,,,,,,,,,,,,,,,,,,,,,,,,,,,,,,,,,,,,,,
,,,,,,7,0,7,0,1,X V Q F H G B L J M P D K C T S W R N Z,5fa25dd28b0f6842755417f3,19,Mężczyzna,2022-06-11_09h36.47.586,task,2021.1.4,MacIntel,60.0024001,6299f149e92ead563fba08ef,62a44603ec6699af1dc20160,,,,,,,,,,,,,,,,,,,,,,,,,,,,,,,,,,,,,,,,,,,,,,,,,,,,,,,,,,,,,,,,,,,,,,,,,,,,,,,,,,,,,,,,,,,,,,,,,,,,,
,,,,,,8,0,8,0,1,X V Q F H G B L J M P D K C T S W R N Z,5fa25dd28b0f6842755417f3,19,Mężczyzna,2022-06-11_09h36.47.586,task,2021.1.4,MacIntel,60.0024001,6299f149e92ead563fba08ef,62a44603ec6699af1dc20160,,,,,,,,,,,,,,,,,,,,,,,,,,,,,,,,,,,,,,,,,,,,,,,,,,,,,,,,,,,,,,,,,,,,,,,,,,,,,,,,,,,,,,,,,,,,,,,,,,,,,
,,,,,,9,0,9,0,1,X V Q F H G B L J M P D K C T S W R N Z,5fa25dd28b0f6842755417f3,19,Mężczyzna,2022-06-11_09h36.47.586,task,2021.1.4,MacIntel,60.0024001,6299f149e92ead563fba08ef,62a44603ec6699af1dc20160,,,,,,,,,,,,,,,,,,,,,,,,,,,,,,,,,,,,,,,,,,,,,,,,,,,,,,,,,,,,,,,,,,,,,,,,,,,,,,,,,,,,,,,,,,,,,,,,,,,,,
,,,,,,10,0,10,0,1,X V Q F H G B L J M P D K C T S W R N Z,5fa25dd28b0f6842755417f3,19,Mężczyzna,2022-06-11_09h36.47.586,task,2021.1.4,MacIntel,60.0024001,6299f149e92ead563fba08ef,62a44603ec6699af1dc20160,,,,,,,,,,,,,,,,,,,,,,,,,,,,,,,,,,,,,,,,,,,,,,,,,,,,,,,,,,,,,,,,,,,,,,,,,,,,,,,,,,,,,,,,,,,,,,,,,,,,,
,,,,,,11,0,11,0,1,X V Q F H G B L J M P D K C T S W R N Z,5fa25dd28b0f6842755417f3,19,Mężczyzna,2022-06-11_09h36.47.586,task,2021.1.4,MacIntel,60.0024001,6299f149e92ead563fba08ef,62a44603ec6699af1dc20160,,,,,,,,,,,,,,,,,,,,,,,,,,,,,,,,,,,,,,,,,,,,,,,,,,,,,,,,,,,,,,,,,,,,,,,,,,,,,,,,,,,,,,,,,,,,,,,,,,,,,
,,,,,,12,0,12,0,1,X V Q F H G B L J M P D K C T S W R N Z,5fa25dd28b0f6842755417f3,19,Mężczyzna,2022-06-11_09h36.47.586,task,2021.1.4,MacIntel,60.0024001,6299f149e92ead563fba08ef,62a44603ec6699af1dc20160,,,,,,,,,,,,,,,,,,,,,,,,,,,,,,,,,,,,,,,,,,,,,,,,,,,,,,,,,,,,,,,,,,,,,,,,,,,,,,,,,,,,,,,,,,,,,,,,,,,,,
,,,,,,,,,,,,5fa25dd28b0f6842755417f3,19,Mężczyzna,2022-06-11_09h36.47.586,task,2021.1.4,MacIntel,60.0024001,6299f149e92ead563fba08ef,62a44603ec6699af1dc20160,zvfbfljgfwghk,"[""z"",""v"",""f"",""b"",""f"",""l"",""j"",""g"",""f"",""w"",""g"",""h"",""k""]","[2.6170000000000186,2.7182999999970434,3.2497000000029743,3.625400000005982,4.95529999999701,5.116700000002993,7.11570000000296,7.491200000003005,8.939599999994073,9.142099999994059,10.115400000005991,10.333299999997053,10.665799999997034,11.400500000000022]",1,ZVFBFLJGFWGHK,25,0,25,0,1,,,,,,,,,,,,,,,,,,,,,,,,,,,,,,,,,,,,,,,,,,,,,,,,,,,,,,,,,,,,,,,,,,,,,,,,,,,,,,,,,,,,,,,,,,,
,,,,,,0,0,0,0,1,X V Q F H G B L J M P D K C T S W R N Z,5fa25dd28b0f6842755417f3,19,Mężczyzna,2022-06-11_09h36.47.586,task,2021.1.4,MacIntel,60.0024001,6299f149e92ead563fba08ef,62a44603ec6699af1dc20160,,,,,,,,,,,,,,,,,,,,,,,,,,,,,,,,,,,,,,,,,,,,,,,,,,,,,,,,,,,,,,,,,,,,,,,,,,,,,,,,,,,,,,,,,,,,,,,,,,,,,
,,,,,,1,0,1,0,1,X V Q F H G B L J M P D K C T S W R N Z,5fa25dd28b0f6842755417f3,19,Mężczyzna,2022-06-11_09h36.47.586,task,2021.1.4,MacIntel,60.0024001,6299f149e92ead563fba08ef,62a44603ec6699af1dc20160,,,,,,,,,,,,,,,,,,,,,,,,,,,,,,,,,,,,,,,,,,,,,,,,,,,,,,,,,,,,,,,,,,,,,,,,,,,,,,,,,,,,,,,,,,,,,,,,,,,,,
,,,,,,2,0,2,0,1,X V Q F H G B L J M P D K C T S W R N Z,5fa25dd28b0f6842755417f3,19,Mężczyzna,2022-06-11_09h36.47.586,task,2021.1.4,MacIntel,60.0024001,6299f149e92ead563fba08ef,62a44603ec6699af1dc20160,,,,,,,,,,,,,,,,,,,,,,,,,,,,,,,,,,,,,,,,,,,,,,,,,,,,,,,,,,,,,,,,,,,,,,,,,,,,,,,,,,,,,,,,,,,,,,,,,,,,,
,,,,,,3,0,3,0,1,X V Q F H G B L J M P D K C T S W R N Z,5fa25dd28b0f6842755417f3,19,Mężczyzna,2022-06-11_09h36.47.586,task,2021.1.4,MacIntel,60.0024001,6299f149e92ead563fba08ef,62a44603ec6699af1dc20160,,,,,,,,,,,,,,,,,,,,,,,,,,,,,,,,,,,,,,,,,,,,,,,,,,,,,,,,,,,,,,,,,,,,,,,,,,,,,,,,,,,,,,,,,,,,,,,,,,,,,
,,,,,,4,0,4,0,1,X V Q F H G B L J M P D K C T S W R N Z,5fa25dd28b0f6842755417f3,19,Mężczyzna,2022-06-11_09h36.47.586,task,2021.1.4,MacIntel,60.0024001,6299f149e92ead563fba08ef,62a44603ec6699af1dc20160,,,,,,,,,,,,,,,,,,,,,,,,,,,,,,,,,,,,,,,,,,,,,,,,,,,,,,,,,,,,,,,,,,,,,,,,,,,,,,,,,,,,,,,,,,,,,,,,,,,,,
,,,,,,5,0,5,0,1,X V Q F H G B L J M P D K C T S W R N Z,5fa25dd28b0f6842755417f3,19,Mężczyzna,2022-06-11_09h36.47.586,task,2021.1.4,MacIntel,60.0024001,6299f149e92ead563fba08ef,62a44603ec6699af1dc20160,,,,,,,,,,,,,,,,,,,,,,,,,,,,,,,,,,,,,,,,,,,,,,,,,,,,,,,,,,,,,,,,,,,,,,,,,,,,,,,,,,,,,,,,,,,,,,,,,,,,,
,,,,,,6,0,6,0,1,X V Q F H G B L J M P D K C T S W R N Z,5fa25dd28b0f6842755417f3,19,Mężczyzna,2022-06-11_09h36.47.586,task,2021.1.4,MacIntel,60.0024001,6299f149e92ead563fba08ef,62a44603ec6699af1dc20160,,,,,,,,,,,,,,,,,,,,,,,,,,,,,,,,,,,,,,,,,,,,,,,,,,,,,,,,,,,,,,,,,,,,,,,,,,,,,,,,,,,,,,,,,,,,,,,,,,,,,
,,,,,,7,0,7,0,1,X V Q F H G B L J M P D K C T S W R N Z,5fa25dd28b0f6842755417f3,19,Mężczyzna,2022-06-11_09h36.47.586,task,2021.1.4,MacIntel,60.0024001,6299f149e92ead563fba08ef,62a44603ec6699af1dc20160,,,,,,,,,,,,,,,,,,,,,,,,,,,,,,,,,,,,,,,,,,,,,,,,,,,,,,,,,,,,,,,,,,,,,,,,,,,,,,,,,,,,,,,,,,,,,,,,,,,,,
,,,,,,8,0,8,0,1,X V Q F H G B L J M P D K C T S W R N Z,5fa25dd28b0f6842755417f3,19,Mężczyzna,2022-06-11_09h36.47.586,task,2021.1.4,MacIntel,60.0024001,6299f149e92ead563fba08ef,62a44603ec6699af1dc20160,,,,,,,,,,,,,,,,,,,,,,,,,,,,,,,,,,,,,,,,,,,,,,,,,,,,,,,,,,,,,,,,,,,,,,,,,,,,,,,,,,,,,,,,,,,,,,,,,,,,,
,,,,,,9,0,9,0,1,X V Q F H G B L J M P D K C T S W R N Z,5fa25dd28b0f6842755417f3,19,Mężczyzna,2022-06-11_09h36.47.586,task,2021.1.4,MacIntel,60.0024001,6299f149e92ead563fba08ef,62a44603ec6699af1dc20160,,,,,,,,,,,,,,,,,,,,,,,,,,,,,,,,,,,,,,,,,,,,,,,,,,,,,,,,,,,,,,,,,,,,,,,,,,,,,,,,,,,,,,,,,,,,,,,,,,,,,
,,,,,,10,0,10,0,1,X V Q F H G B L J M P D K C T S W R N Z,5fa25dd28b0f6842755417f3,19,Mężczyzna,2022-06-11_09h36.47.586,task,2021.1.4,MacIntel,60.0024001,6299f149e92ead563fba08ef,62a44603ec6699af1dc20160,,,,,,,,,,,,,,,,,,,,,,,,,,,,,,,,,,,,,,,,,,,,,,,,,,,,,,,,,,,,,,,,,,,,,,,,,,,,,,,,,,,,,,,,,,,,,,,,,,,,,
,,,,,,11,0,11,0,1,X V Q F H G B L J M P D K C T S W R N Z,5fa25dd28b0f6842755417f3,19,Mężczyzna,2022-06-11_09h36.47.586,task,2021.1.4,MacIntel,60.0024001,6299f149e92ead563fba08ef,62a44603ec6699af1dc20160,,,,,,,,,,,,,,,,,,,,,,,,,,,,,,,,,,,,,,,,,,,,,,,,,,,,,,,,,,,,,,,,,,,,,,,,,,,,,,,,,,,,,,,,,,,,,,,,,,,,,
,,,,,,12,0,12,0,1,X V Q F H G B L J M P D K C T S W R N Z,5fa25dd28b0f6842755417f3,19,Mężczyzna,2022-06-11_09h36.47.586,task,2021.1.4,MacIntel,60.0024001,6299f149e92ead563fba08ef,62a44603ec6699af1dc20160,,,,,,,,,,,,,,,,,,,,,,,,,,,,,,,,,,,,,,,,,,,,,,,,,,,,,,,,,,,,,,,,,,,,,,,,,,,,,,,,,,,,,,,,,,,,,,,,,,,,,
,,,,,,13,0,13,0,1,X V Q F H G B L J M P D K C T S W R N Z,5fa25dd28b0f6842755417f3,19,Mężczyzna,2022-06-11_09h36.47.586,task,2021.1.4,MacIntel,60.0024001,6299f149e92ead563fba08ef,62a44603ec6699af1dc20160,,,,,,,,,,,,,,,,,,,,,,,,,,,,,,,,,,,,,,,,,,,,,,,,,,,,,,,,,,,,,,,,,,,,,,,,,,,,,,,,,,,,,,,,,,,,,,,,,,,,,
,,,,,,,,,,,,5fa25dd28b0f6842755417f3,19,Mężczyzna,2022-06-11_09h36.47.586,task,2021.1.4,MacIntel,60.0024001,6299f149e92ead563fba08ef,62a44603ec6699af1dc20160,tjtksndkxdkmqy,"[""t"",""j"",""t"",""k"",""s"",""n"",""d"",""k"",""x"",""d"",""k"",""m"",""q"",""y""]","[1.9736000000089575,2.9073000000119578,3.485200000002976,3.9569000000059873,4.468999999999994,5.117700000003026,5.7013000000119405,6.001000000000033,6.433100000008949,6.754600000008963,6.950800000011952,7.318300000011959,9.274500000000046,9.366400000005967,9.683600000008937]",0,TJTKSNDKXDKMQT,26,0,26,0,1,,,,,,,,,,,,,,,,,,,,,,,,,,,,,,,,,,,,,,,,,,,,,,,,,,,,,,,,,,,,,,,,,,,,,,,,,,,,,,,,,,,,,,,,,,,
,,,,,,0,0,0,0,1,X V Q F H G B L J M P D K C T S W R N Z,5fa25dd28b0f6842755417f3,19,Mężczyzna,2022-06-11_09h36.47.586,task,2021.1.4,MacIntel,60.0024001,6299f149e92ead563fba08ef,62a44603ec6699af1dc20160,,,,,,,,,,,,,,,,,,,,,,,,,,,,,,,,,,,,,,,,,,,,,,,,,,,,,,,,,,,,,,,,,,,,,,,,,,,,,,,,,,,,,,,,,,,,,,,,,,,,,
,,,,,,1,0,1,0,1,X V Q F H G B L J M P D K C T S W R N Z,5fa25dd28b0f6842755417f3,19,Mężczyzna,2022-06-11_09h36.47.586,task,2021.1.4,MacIntel,60.0024001,6299f149e92ead563fba08ef,62a44603ec6699af1dc20160,,,,,,,,,,,,,,,,,,,,,,,,,,,,,,,,,,,,,,,,,,,,,,,,,,,,,,,,,,,,,,,,,,,,,,,,,,,,,,,,,,,,,,,,,,,,,,,,,,,,,
,,,,,,2,0,2,0,1,X V Q F H G B L J M P D K C T S W R N Z,5fa25dd28b0f6842755417f3,19,Mężczyzna,2022-06-11_09h36.47.586,task,2021.1.4,MacIntel,60.0024001,6299f149e92ead563fba08ef,62a44603ec6699af1dc20160,,,,,,,,,,,,,,,,,,,,,,,,,,,,,,,,,,,,,,,,,,,,,,,,,,,,,,,,,,,,,,,,,,,,,,,,,,,,,,,,,,,,,,,,,,,,,,,,,,,,,
,,,,,,3,0,3,0,1,X V Q F H G B L J M P D K C T S W R N Z,5fa25dd28b0f6842755417f3,19,Mężczyzna,2022-06-11_09h36.47.586,task,2021.1.4,MacIntel,60.0024001,6299f149e92ead563fba08ef,62a44603ec6699af1dc20160,,,,,,,,,,,,,,,,,,,,,,,,,,,,,,,,,,,,,,,,,,,,,,,,,,,,,,,,,,,,,,,,,,,,,,,,,,,,,,,,,,,,,,,,,,,,,,,,,,,,,
,,,,,,4,0,4,0,1,X V Q F H G B L J M P D K C T S W R N Z,5fa25dd28b0f6842755417f3,19,Mężczyzna,2022-06-11_09h36.47.586,task,2021.1.4,MacIntel,60.0024001,6299f149e92ead563fba08ef,62a44603ec6699af1dc20160,,,,,,,,,,,,,,,,,,,,,,,,,,,,,,,,,,,,,,,,,,,,,,,,,,,,,,,,,,,,,,,,,,,,,,,,,,,,,,,,,,,,,,,,,,,,,,,,,,,,,
,,,,,,5,0,5,0,1,X V Q F H G B L J M P D K C T S W R N Z,5fa25dd28b0f6842755417f3,19,Mężczyzna,2022-06-11_09h36.47.586,task,2021.1.4,MacIntel,60.0024001,6299f149e92ead563fba08ef,62a44603ec6699af1dc20160,,,,,,,,,,,,,,,,,,,,,,,,,,,,,,,,,,,,,,,,,,,,,,,,,,,,,,,,,,,,,,,,,,,,,,,,,,,,,,,,,,,,,,,,,,,,,,,,,,,,,
,,,,,,6,0,6,0,1,X V Q F H G B L J M P D K C T S W R N Z,5fa25dd28b0f6842755417f3,19,Mężczyzna,2022-06-11_09h36.47.586,task,2021.1.4,MacIntel,60.0024001,6299f149e92ead563fba08ef,62a44603ec6699af1dc20160,,,,,,,,,,,,,,,,,,,,,,,,,,,,,,,,,,,,,,,,,,,,,,,,,,,,,,,,,,,,,,,,,,,,,,,,,,,,,,,,,,,,,,,,,,,,,,,,,,,,,
,,,,,,7,0,7,0,1,X V Q F H G B L J M P D K C T S W R N Z,5fa25dd28b0f6842755417f3,19,Mężczyzna,2022-06-11_09h36.47.586,task,2021.1.4,MacIntel,60.0024001,6299f149e92ead563fba08ef,62a44603ec6699af1dc20160,,,,,,,,,,,,,,,,,,,,,,,,,,,,,,,,,,,,,,,,,,,,,,,,,,,,,,,,,,,,,,,,,,,,,,,,,,,,,,,,,,,,,,,,,,,,,,,,,,,,,
,,,,,,8,0,8,0,1,X V Q F H G B L J M P D K C T S W R N Z,5fa25dd28b0f6842755417f3,19,Mężczyzna,2022-06-11_09h36.47.586,task,2021.1.4,MacIntel,60.0024001,6299f149e92ead563fba08ef,62a44603ec6699af1dc20160,,,,,,,,,,,,,,,,,,,,,,,,,,,,,,,,,,,,,,,,,,,,,,,,,,,,,,,,,,,,,,,,,,,,,,,,,,,,,,,,,,,,,,,,,,,,,,,,,,,,,
,,,,,,9,0,9,0,1,X V Q F H G B L J M P D K C T S W R N Z,5fa25dd28b0f6842755417f3,19,Mężczyzna,2022-06-11_09h36.47.586,task,2021.1.4,MacIntel,60.0024001,6299f149e92ead563fba08ef,62a44603ec6699af1dc20160,,,,,,,,,,,,,,,,,,,,,,,,,,,,,,,,,,,,,,,,,,,,,,,,,,,,,,,,,,,,,,,,,,,,,,,,,,,,,,,,,,,,,,,,,,,,,,,,,,,,,
,,,,,,10,0,10,0,1,X V Q F H G B L J M P D K C T S W R N Z,5fa25dd28b0f6842755417f3,19,Mężczyzna,2022-06-11_09h36.47.586,task,2021.1.4,MacIntel,60.0024001,6299f149e92ead563fba08ef,62a44603ec6699af1dc20160,,,,,,,,,,,,,,,,,,,,,,,,,,,,,,,,,,,,,,,,,,,,,,,,,,,,,,,,,,,,,,,,,,,,,,,,,,,,,,,,,,,,,,,,,,,,,,,,,,,,,
,,,,,,11,0,11,0,1,X V Q F H G B L J M P D K C T S W R N Z,5fa25dd28b0f6842755417f3,19,Mężczyzna,2022-06-11_09h36.47.586,task,2021.1.4,MacIntel,60.0024001,6299f149e92ead563fba08ef,62a44603ec6699af1dc20160,,,,,,,,,,,,,,,,,,,,,,,,,,,,,,,,,,,,,,,,,,,,,,,,,,,,,,,,,,,,,,,,,,,,,,,,,,,,,,,,,,,,,,,,,,,,,,,,,,,,,
,,,,,,12,0,12,0,1,X V Q F H G B L J M P D K C T S W R N Z,5fa25dd28b0f6842755417f3,19,Mężczyzna,2022-06-11_09h36.47.586,task,2021.1.4,MacIntel,60.0024001,6299f149e92ead563fba08ef,62a44603ec6699af1dc20160,,,,,,,,,,,,,,,,,,,,,,,,,,,,,,,,,,,,,,,,,,,,,,,,,,,,,,,,,,,,,,,,,,,,,,,,,,,,,,,,,,,,,,,,,,,,,,,,,,,,,
,,,,,,13,0,13,0,1,X V Q F H G B L J M P D K C T S W R N Z,5fa25dd28b0f6842755417f3,19,Mężczyzna,2022-06-11_09h36.47.586,task,2021.1.4,MacIntel,60.0024001,6299f149e92ead563fba08ef,62a44603ec6699af1dc20160,,,,,,,,,,,,,,,,,,,,,,,,,,,,,,,,,,,,,,,,,,,,,,,,,,,,,,,,,,,,,,,,,,,,,,,,,,,,,,,,,,,,,,,,,,,,,,,,,,,,,
,,,,,,,,,,,,5fa25dd28b0f6842755417f3,19,Mężczyzna,2022-06-11_09h36.47.586,task,2021.1.4,MacIntel,60.0024001,6299f149e92ead563fba08ef,62a44603ec6699af1dc20160,qmzmwdvczclskq,"[""q"",""m"",""z"",""m"",""w"",""d"",""v"",""c"",""z"",""c"",""l"",""s"",""k"",""q""]","[2.8635000000000446,3.2994999999999663,5.616900000005899,5.873099999993997,6.284200000003011,6.883900000005951,7.784299999996961,8.652400000005969,8.966400000005933,10.517200000002958,10.642500000000041,11.125499999999988,11.232499999999959,11.453499999999963,12.855999999999995]",1,QMZMWDVCZCLSKQ,27,0,27,0,1,,,,,,,,,,,,,,,,,,,,,,,,,,,,,,,,,,,,,,,,,,,,,,,,,,,,,,,,,,,,,,,,,,,,,,,,,,,,,,,,,,,,,,,,,,,
,,,,,,0,0,0,0,1,X V Q F H G B L J M P D K C T S W R N Z,5fa25dd28b0f6842755417f3,19,Mężczyzna,2022-06-11_09h36.47.586,task,2021.1.4,MacIntel,60.0024001,6299f149e92ead563fba08ef,62a44603ec6699af1dc20160,,,,,,,,,,,,,,,,,,,,,,,,,,,,,,,,,,,,,,,,,,,,,,,,,,,,,,,,,,,,,,,,,,,,,,,,,,,,,,,,,,,,,,,,,,,,,,,,,,,,,
,,,,,,1,0,1,0,1,X V Q F H G B L J M P D K C T S W R N Z,5fa25dd28b0f6842755417f3,19,Mężczyzna,2022-06-11_09h36.47.586,task,2021.1.4,MacIntel,60.0024001,6299f149e92ead563fba08ef,62a44603ec6699af1dc20160,,,,,,,,,,,,,,,,,,,,,,,,,,,,,,,,,,,,,,,,,,,,,,,,,,,,,,,,,,,,,,,,,,,,,,,,,,,,,,,,,,,,,,,,,,,,,,,,,,,,,
,,,,,,2,0,2,0,1,X V Q F H G B L J M P D K C T S W R N Z,5fa25dd28b0f6842755417f3,19,Mężczyzna,2022-06-11_09h36.47.586,task,2021.1.4,MacIntel,60.0024001,6299f149e92ead563fba08ef,62a44603ec6699af1dc20160,,,,,,,,,,,,,,,,,,,,,,,,,,,,,,,,,,,,,,,,,,,,,,,,,,,,,,,,,,,,,,,,,,,,,,,,,,,,,,,,,,,,,,,,,,,,,,,,,,,,,
,,,,,,3,0,3,0,1,X V Q F H G B L J M P D K C T S W R N Z,5fa25dd28b0f6842755417f3,19,Mężczyzna,2022-06-11_09h36.47.586,task,2021.1.4,MacIntel,60.0024001,6299f149e92ead563fba08ef,62a44603ec6699af1dc20160,,,,,,,,,,,,,,,,,,,,,,,,,,,,,,,,,,,,,,,,,,,,,,,,,,,,,,,,,,,,,,,,,,,,,,,,,,,,,,,,,,,,,,,,,,,,,,,,,,,,,
,,,,,,4,0,4,0,1,X V Q F H G B L J M P D K C T S W R N Z,5fa25dd28b0f6842755417f3,19,Mężczyzna,2022-06-11_09h36.47.586,task,2021.1.4,MacIntel,60.0024001,6299f149e92ead563fba08ef,62a44603ec6699af1dc20160,,,,,,,,,,,,,,,,,,,,,,,,,,,,,,,,,,,,,,,,,,,,,,,,,,,,,,,,,,,,,,,,,,,,,,,,,,,,,,,,,,,,,,,,,,,,,,,,,,,,,
,,,,,,5,0,5,0,1,X V Q F H G B L J M P D K C T S W R N Z,5fa25dd28b0f6842755417f3,19,Mężczyzna,2022-06-11_09h36.47.586,task,2021.1.4,MacIntel,60.0024001,6299f149e92ead563fba08ef,62a44603ec6699af1dc20160,,,,,,,,,,,,,,,,,,,,,,,,,,,,,,,,,,,,,,,,,,,,,,,,,,,,,,,,,,,,,,,,,,,,,,,,,,,,,,,,,,,,,,,,,,,,,,,,,,,,,
,,,,,,6,0,6,0,1,X V Q F H G B L J M P D K C T S W R N Z,5fa25dd28b0f6842755417f3,19,Mężczyzna,2022-06-11_09h36.47.586,task,2021.1.4,MacIntel,60.0024001,6299f149e92ead563fba08ef,62a44603ec6699af1dc20160,,,,,,,,,,,,,,,,,,,,,,,,,,,,,,,,,,,,,,,,,,,,,,,,,,,,,,,,,,,,,,,,,,,,,,,,,,,,,,,,,,,,,,,,,,,,,,,,,,,,,
,,,,,,7,0,7,0,1,X V Q F H G B L J M P D K C T S W R N Z,5fa25dd28b0f6842755417f3,19,Mężczyzna,2022-06-11_09h36.47.586,task,2021.1.4,MacIntel,60.0024001,6299f149e92ead563fba08ef,62a44603ec6699af1dc20160,,,,,,,,,,,,,,,,,,,,,,,,,,,,,,,,,,,,,,,,,,,,,,,,,,,,,,,,,,,,,,,,,,,,,,,,,,,,,,,,,,,,,,,,,,,,,,,,,,,,,
,,,,,,8,0,8,0,1,X V Q F H G B L J M P D K C T S W R N Z,5fa25dd28b0f6842755417f3,19,Mężczyzna,2022-06-11_09h36.47.586,task,2021.1.4,MacIntel,60.0024001,6299f149e92ead563fba08ef,62a44603ec6699af1dc20160,,,,,,,,,,,,,,,,,,,,,,,,,,,,,,,,,,,,,,,,,,,,,,,,,,,,,,,,,,,,,,,,,,,,,,,,,,,,,,,,,,,,,,,,,,,,,,,,,,,,,
,,,,,,9,0,9,0,1,X V Q F H G B L J M P D K C T S W R N Z,5fa25dd28b0f6842755417f3,19,Mężczyzna,2022-06-11_09h36.47.586,task,2021.1.4,MacIntel,60.0024001,6299f149e92ead563fba08ef,62a44603ec6699af1dc20160,,,,,,,,,,,,,,,,,,,,,,,,,,,,,,,,,,,,,,,,,,,,,,,,,,,,,,,,,,,,,,,,,,,,,,,,,,,,,,,,,,,,,,,,,,,,,,,,,,,,,
,,,,,,10,0,10,0,1,X V Q F H G B L J M P D K C T S W R N Z,5fa25dd28b0f6842755417f3,19,Mężczyzna,2022-06-11_09h36.47.586,task,2021.1.4,MacIntel,60.0024001,6299f149e92ead563fba08ef,62a44603ec6699af1dc20160,,,,,,,,,,,,,,,,,,,,,,,,,,,,,,,,,,,,,,,,,,,,,,,,,,,,,,,,,,,,,,,,,,,,,,,,,,,,,,,,,,,,,,,,,,,,,,,,,,,,,
,,,,,,11,0,11,0,1,X V Q F H G B L J M P D K C T S W R N Z,5fa25dd28b0f6842755417f3,19,Mężczyzna,2022-06-11_09h36.47.586,task,2021.1.4,MacIntel,60.0024001,6299f149e92ead563fba08ef,62a44603ec6699af1dc20160,,,,,,,,,,,,,,,,,,,,,,,,,,,,,,,,,,,,,,,,,,,,,,,,,,,,,,,,,,,,,,,,,,,,,,,,,,,,,,,,,,,,,,,,,,,,,,,,,,,,,
,,,,,,12,0,12,0,1,X V Q F H G B L J M P D K C T S W R N Z,5fa25dd28b0f6842755417f3,19,Mężczyzna,2022-06-11_09h36.47.586,task,2021.1.4,MacIntel,60.0024001,6299f149e92ead563fba08ef,62a44603ec6699af1dc20160,,,,,,,,,,,,,,,,,,,,,,,,,,,,,,,,,,,,,,,,,,,,,,,,,,,,,,,,,,,,,,,,,,,,,,,,,,,,,,,,,,,,,,,,,,,,,,,,,,,,,
,,,,,,13,0,13,0,1,X V Q F H G B L J M P D K C T S W R N Z,5fa25dd28b0f6842755417f3,19,Mężczyzna,2022-06-11_09h36.47.586,task,2021.1.4,MacIntel,60.0024001,6299f149e92ead563fba08ef,62a44603ec6699af1dc20160,,,,,,,,,,,,,,,,,,,,,,,,,,,,,,,,,,,,,,,,,,,,,,,,,,,,,,,,,,,,,,,,,,,,,,,,,,,,,,,,,,,,,,,,,,,,,,,,,,,,,
,,,,,,,,,,,,5fa25dd28b0f6842755417f3,19,Mężczyzna,2022-06-11_09h36.47.586,task,2021.1.4,MacIntel,60.0024001,6299f149e92ead563fba08ef,62a44603ec6699af1dc20160,tmvlqfjzxlxpzg,"[""t"",""m"",""v"",""l"",""q"",""f"",""j"",""z"",""x"",""l"",""x"",""p"",""z"",""g""]","[1.5715000000000146,2.1409999999999627,3.123200000002953,3.6856000000088898,4.435200000002965,7.272200000002954,7.92640000000597,8.575300000011907,9.100600000008853,9.717900000005898,10.083999999999946,10.452700000002892,10.8322000000029,11.392400000005864,12.08570000000293]",1,TMVLQFJZXLXPZG,28,0,28,0,1,,,,,,,,,,,,,,,,,,,,,,,,,,,,,,,,,,,,,,,,,,,,,,,,,,,,,,,,,,,,,,,,,,,,,,,,,,,,,,,,,,,,,,,,,,,
,,,,,,0,0,0,0,1,X V Q F H G B L J M P D K C T S W R N Z,5fa25dd28b0f6842755417f3,19,Mężczyzna,2022-06-11_09h36.47.586,task,2021.1.4,MacIntel,60.0024001,6299f149e92ead563fba08ef,62a44603ec6699af1dc20160,,,,,,,,,,,,,,,,,,,,,,,,,,,,,,,,,,,,,,,,,,,,,,,,,,,,,,,,,,,,,,,,,,,,,,,,,,,,,,,,,,,,,,,,,,,,,,,,,,,,,
,,,,,,1,0,1,0,1,X V Q F H G B L J M P D K C T S W R N Z,5fa25dd28b0f6842755417f3,19,Mężczyzna,2022-06-11_09h36.47.586,task,2021.1.4,MacIntel,60.0024001,6299f149e92ead563fba08ef,62a44603ec6699af1dc20160,,,,,,,,,,,,,,,,,,,,,,,,,,,,,,,,,,,,,,,,,,,,,,,,,,,,,,,,,,,,,,,,,,,,,,,,,,,,,,,,,,,,,,,,,,,,,,,,,,,,,
,,,,,,2,0,2,0,1,X V Q F H G B L J M P D K C T S W R N Z,5fa25dd28b0f6842755417f3,19,Mężczyzna,2022-06-11_09h36.47.586,task,2021.1.4,MacIntel,60.0024001,6299f149e92ead563fba08ef,62a44603ec6699af1dc20160,,,,,,,,,,,,,,,,,,,,,,,,,,,,,,,,,,,,,,,,,,,,,,,,,,,,,,,,,,,,,,,,,,,,,,,,,,,,,,,,,,,,,,,,,,,,,,,,,,,,,
,,,,,,3,0,3,0,1,X V Q F H G B L J M P D K C T S W R N Z,5fa25dd28b0f6842755417f3,19,Mężczyzna,2022-06-11_09h36.47.586,task,2021.1.4,MacIntel,60.0024001,6299f149e92ead563fba08ef,62a44603ec6699af1dc20160,,,,,,,,,,,,,,,,,,,,,,,,,,,,,,,,,,,,,,,,,,,,,,,,,,,,,,,,,,,,,,,,,,,,,,,,,,,,,,,,,,,,,,,,,,,,,,,,,,,,,
,,,,,,4,0,4,0,1,X V Q F H G B L J M P D K C T S W R N Z,5fa25dd28b0f6842755417f3,19,Mężczyzna,2022-06-11_09h36.47.586,task,2021.1.4,MacIntel,60.0024001,6299f149e92ead563fba08ef,62a44603ec6699af1dc20160,,,,,,,,,,,,,,,,,,,,,,,,,,,,,,,,,,,,,,,,,,,,,,,,,,,,,,,,,,,,,,,,,,,,,,,,,,,,,,,,,,,,,,,,,,,,,,,,,,,,,
,,,,,,5,0,5,0,1,X V Q F H G B L J M P D K C T S W R N Z,5fa25dd28b0f6842755417f3,19,Mężczyzna,2022-06-11_09h36.47.586,task,2021.1.4,MacIntel,60.0024001,6299f149e92ead563fba08ef,62a44603ec6699af1dc20160,,,,,,,,,,,,,,,,,,,,,,,,,,,,,,,,,,,,,,,,,,,,,,,,,,,,,,,,,,,,,,,,,,,,,,,,,,,,,,,,,,,,,,,,,,,,,,,,,,,,,
,,,,,,6,0,6,0,1,X V Q F H G B L J M P D K C T S W R N Z,5fa25dd28b0f6842755417f3,19,Mężczyzna,2022-06-11_09h36.47.586,task,2021.1.4,MacIntel,60.0024001,6299f149e92ead563fba08ef,62a44603ec6699af1dc20160,,,,,,,,,,,,,,,,,,,,,,,,,,,,,,,,,,,,,,,,,,,,,,,,,,,,,,,,,,,,,,,,,,,,,,,,,,,,,,,,,,,,,,,,,,,,,,,,,,,,,
,,,,,,7,0,7,0,1,X V Q F H G B L J M P D K C T S W R N Z,5fa25dd28b0f6842755417f3,19,Mężczyzna,2022-06-11_09h36.47.586,task,2021.1.4,MacIntel,60.0024001,6299f149e92ead563fba08ef,62a44603ec6699af1dc20160,,,,,,,,,,,,,,,,,,,,,,,,,,,,,,,,,,,,,,,,,,,,,,,,,,,,,,,,,,,,,,,,,,,,,,,,,,,,,,,,,,,,,,,,,,,,,,,,,,,,,
,,,,,,8,0,8,0,1,X V Q F H G B L J M P D K C T S W R N Z,5fa25dd28b0f6842755417f3,19,Mężczyzna,2022-06-11_09h36.47.586,task,2021.1.4,MacIntel,60.0024001,6299f149e92ead563fba08ef,62a44603ec6699af1dc20160,,,,,,,,,,,,,,,,,,,,,,,,,,,,,,,,,,,,,,,,,,,,,,,,,,,,,,,,,,,,,,,,,,,,,,,,,,,,,,,,,,,,,,,,,,,,,,,,,,,,,
,,,,,,9,0,9,0,1,X V Q F H G B L J M P D K C T S W R N Z,5fa25dd28b0f6842755417f3,19,Mężczyzna,2022-06-11_09h36.47.586,task,2021.1.4,MacIntel,60.0024001,6299f149e92ead563fba08ef,62a44603ec6699af1dc20160,,,,,,,,,,,,,,,,,,,,,,,,,,,,,,,,,,,,,,,,,,,,,,,,,,,,,,,,,,,,,,,,,,,,,,,,,,,,,,,,,,,,,,,,,,,,,,,,,,,,,
,,,,,,10,0,10,0,1,X V Q F H G B L J M P D K C T S W R N Z,5fa25dd28b0f6842755417f3,19,Mężczyzna,2022-06-11_09h36.47.586,task,2021.1.4,MacIntel,60.0024001,6299f149e92ead563fba08ef,62a44603ec6699af1dc20160,,,,,,,,,,,,,,,,,,,,,,,,,,,,,,,,,,,,,,,,,,,,,,,,,,,,,,,,,,,,,,,,,,,,,,,,,,,,,,,,,,,,,,,,,,,,,,,,,,,,,
,,,,,,11,0,11,0,1,X V Q F H G B L J M P D K C T S W R N Z,5fa25dd28b0f6842755417f3,19,Mężczyzna,2022-06-11_09h36.47.586,task,2021.1.4,MacIntel,60.0024001,6299f149e92ead563fba08ef,62a44603ec6699af1dc20160,,,,,,,,,,,,,,,,,,,,,,,,,,,,,,,,,,,,,,,,,,,,,,,,,,,,,,,,,,,,,,,,,,,,,,,,,,,,,,,,,,,,,,,,,,,,,,,,,,,,,
,,,,,,12,0,12,0,1,X V Q F H G B L J M P D K C T S W R N Z,5fa25dd28b0f6842755417f3,19,Mężczyzna,2022-06-11_09h36.47.586,task,2021.1.4,MacIntel,60.0024001,6299f149e92ead563fba08ef,62a44603ec6699af1dc20160,,,,,,,,,,,,,,,,,,,,,,,,,,,,,,,,,,,,,,,,,,,,,,,,,,,,,,,,,,,,,,,,,,,,,,,,,,,,,,,,,,,,,,,,,,,,,,,,,,,,,
,,,,,,13,0,13,0,1,X V Q F H G B L J M P D K C T S W R N Z,5fa25dd28b0f6842755417f3,19,Mężczyzna,2022-06-11_09h36.47.586,task,2021.1.4,MacIntel,60.0024001,6299f149e92ead563fba08ef,62a44603ec6699af1dc20160,,,,,,,,,,,,,,,,,,,,,,,,,,,,,,,,,,,,,,,,,,,,,,,,,,,,,,,,,,,,,,,,,,,,,,,,,,,,,,,,,,,,,,,,,,,,,,,,,,,,,
,,,,,,14,0,14,0,1,X V Q F H G B L J M P D K C T S W R N Z,5fa25dd28b0f6842755417f3,19,Mężczyzna,2022-06-11_09h36.47.586,task,2021.1.4,MacIntel,60.0024001,6299f149e92ead563fba08ef,62a44603ec6699af1dc20160,,,,,,,,,,,,,,,,,,,,,,,,,,,,,,,,,,,,,,,,,,,,,,,,,,,,,,,,,,,,,,,,,,,,,,,,,,,,,,,,,,,,,,,,,,,,,,,,,,,,,
,,,,,,,,,,,,5fa25dd28b0f6842755417f3,19,Mężczyzna,2022-06-11_09h36.47.586,task,2021.1.4,MacIntel,60.0024001,6299f149e92ead563fba08ef,62a44603ec6699af1dc20160,wwrlvrswrdbsdgs,"[""w"",""w"",""r"",""l"",""v"",""r"",""s"",""w"",""r"",""d"",""b"",""s"",""d"",""g"",""s""]","[1.880200000002901,2.08480000001191,2.6278000000119164,3.0815000000000055,3.900700000002985,4.152800000011894,5.197900000005916,5.41780000001188,5.831600000008962,6.06540000000598,7.28360000000896,7.551900000005958,8.550600000008899,8.720400000005952,8.857400000005896,12.1687000000029]",1,WWRLVRSWRDBSDGS,29,0,29,0,1,,,,,,,,,,,,,,,,,,,,,,,,,,,,,,,,,,,,,,,,,,,,,,,,,,,,,,,,,,,,,,,,,,,,,,,,,,,,,,,,,,,,,,,,,,,
,,,,,,,,,,,,5fa25dd28b0f6842755417f3,19,Mężczyzna,2022-06-11_09h36.47.586,task,2021.1.4,MacIntel,60.0024001,6299f149e92ead563fba08ef,62a44603ec6699af1dc20160,,,,,,,,,,,space,15.2212,8,"[""8""]",1,[4.6260999999940395],[4.6260999999940395],0,0,0,8,1,Practice,9,(3x3) - 1,8,,,,,,,,,,,,,,,,,,,,,,,,,,,,,,,,,,,,,,,,,,,,,,,,,,,,,,,,,,,,,,,,,,,,,,,,,,,
,,,,,,,,,,,,5fa25dd28b0f6842755417f3,19,Mężczyzna,2022-06-11_09h36.47.586,task,2021.1.4,MacIntel,60.0024001,6299f149e92ead563fba08ef,62a44603ec6699af1dc20160,,,,,,,,,,,,,7,"[""7""]",1,[2.975500000000011],"[4.6260999999940395,2.975500000000011]",0,1,1,7,1,Practice,8,(5x5) - 18,7,,,,,,,,,,,,,,,,,,,,,,,,,,,,,,,,,,,,,,,,,,,,,,,,,,,,,,,,,,,,,,,,,,,,,,,,,,,
,,,,,,,,,,,,5fa25dd28b0f6842755417f3,19,Mężczyzna,2022-06-11_09h36.47.586,task,2021.1.4,MacIntel,60.0024001,6299f149e92ead563fba08ef,62a44603ec6699af1dc20160,,,,,,,,,,,,,1,"[""1""]",1,[2.53269999998804],"[4.6260999999940395,2.975500000000011,2.53269999998804]",0,2,2,1,1,Practice,2,(4x4) - 15,1,,,,,,,,,,,,,,,,,,,,,,,,,,,,,,,,,,,,,,,,,,,,,,,,,,,,,,,,,,,,,,,,,,,,,,,,,,,
,,,,,,,,,,,,5fa25dd28b0f6842755417f3,19,Mężczyzna,2022-06-11_09h36.47.586,task,2021.1.4,MacIntel,60.0024001,6299f149e92ead563fba08ef,62a44603ec6699af1dc20160,,,,,,,,,,,,,3,"[""3""]",1,[3.539299999996956],"[4.6260999999940395,2.975500000000011,2.53269999998804,3.539299999996956]",0,3,3,3,1,Practice,4,(8/4) + 1,3,,,,,,,,,,,,,,,,,,,,,,,,,,,,,,,,,,,,,,,,,,,,,,,,,,,,,,,,,,,,,,,,,,,,,,,,,,,
,,,,,,,,,,,,5fa25dd28b0f6842755417f3,19,Mężczyzna,2022-06-11_09h36.47.586,task,2021.1.4,MacIntel,60.0024001,6299f149e92ead563fba08ef,62a44603ec6699af1dc20160,,,,,,,,,,,,,5,"[""5""]",1,[1.9847000000029311],"[4.6260999999940395,2.975500000000011,2.53269999998804,3.539299999996956,1.9847000000029311]",0,4,4,5,1,Practice,6,(4/2) + 3,5,,,,,,,,,,,,,,,,,,,,,,,,,,,,,,,,,,,,,,,,,,,,,,,,,,,,,,,,,,,,,,,,,,,,,,,,,,,
,,,,,,,,,,,,5fa25dd28b0f6842755417f3,19,Mężczyzna,2022-06-11_09h36.47.586,task,2021.1.4,MacIntel,60.0024001,6299f149e92ead563fba08ef,62a44603ec6699af1dc20160,,,,,,,,,,,,,4,"[""4""]",1,[2.291900000005967],"[4.6260999999940395,2.975500000000011,2.53269999998804,3.539299999996956,1.9847000000029311,2.291900000005967]",0,5,5,4,1,Practice,5,(2x6) - 8,4,,,,,,,,,,,,,,,,,,,,,,,,,,,,,,,,,,,,,,,,,,,,,,,,,,,,,,,,,,,,,,,,,,,,,,,,,,,
,,,,,,,,,,,,5fa25dd28b0f6842755417f3,19,Mężczyzna,2022-06-11_09h36.47.586,task,2021.1.4,MacIntel,60.0024001,6299f149e92ead563fba08ef,62a44603ec6699af1dc20160,,,,,,,,,,,,,0,"[""0""]",1,[1.684899999991103],"[4.6260999999940395,2.975500000000011,2.53269999998804,3.539299999996956,1.9847000000029311,2.291900000005967,1.684899999991103]",0,6,6,0,1,Practice,1,(3x3) -  9,0,,,,,,,,,,,,,,,,,,,,,,,,,,,,,,,,,,,,,,,,,,,,,,,,,,,,,,,,,,,,,,,,,,,,,,,,,,,
,,,,,,,,,,,,5fa25dd28b0f6842755417f3,19,Mężczyzna,2022-06-11_09h36.47.586,task,2021.1.4,MacIntel,60.0024001,6299f149e92ead563fba08ef,62a44603ec6699af1dc20160,,,,,,,,,,,,,9,"[""9""]",1,[1.9202000000029784],"[4.6260999999940395,2.975500000000011,2.53269999998804,3.539299999996956,1.9847000000029311,2.291900000005967,1.684899999991103,1.9202000000029784]",0,7,7,9,1,Practice,10,(20/2) - 1,9,,,,,,,,,,,,,,,,,,,,,,,,,,,,,,,,,,,,,,,,,,,,,,,,,,,,,,,,,,,,,,,,,,,,,,,,,,,
,,,,,,,,,,,,5fa25dd28b0f6842755417f3,19,Mężczyzna,2022-06-11_09h36.47.586,task,2021.1.4,MacIntel,60.0024001,6299f149e92ead563fba08ef,62a44603ec6699af1dc20160,,,,,,,,,,,,,2,"[""2""]",1,[1.7667000000029702],"[4.6260999999940395,2.975500000000011,2.53269999998804,3.539299999996956,1.9847000000029311,2.291900000005967,1.684899999991103,1.9202000000029784,1.7667000000029702]",0,8,8,2,1,Practice,3,(4x4) - 14,2,,,,,,,,,,,,,,,,,,,,,,,,,,,,,,,,,,,,,,,,,,,,,,,,,,,,,,,,,,,,,,,,,,,,,,,,,,,
