key_resp_15.keys,key_resp_15.rt,key_resp_13.keys,key_resp_13.corr,ranodm_loop.thisRepN,ranodm_loop.thisTrialN,ranodm_loop.thisN,ranodm_loop.thisIndex,ranodm_loop.ran,participant,Wiek*,Płeć,date,expName,psychopyVersion,OS,frameRate,study_id,session,key_resp_13.rt,key_resp_16.keys,key_resp_16.rt,key_resp_4.keys,key_resp_4.rt,next_letter.thisRepN,next_letter.thisTrialN,next_letter.thisN,next_letter.thisIndex,next_letter.ran,letter,simple_recall,key_resp_5.keys,key_resp_5.rt,simple_recall_corr,simple_recall_corrkeys,next_level.thisRepN,next_level.thisTrialN,next_level.thisN,next_level.thisIndex,next_level.ran,key_resp_2.keys,key_resp_2.rt,digit_answer,key_resp.keys,key_resp.corr,key_resp.rt,RT_list,next_equation.thisRepN,next_equation.thisTrialN,next_equation.thisN,next_equation.thisIndex,next_equation.ran,Task,Trial,Problem,Operation_answer,processing_score,sumRT,meanRT,sumdiff,sd,RT,key_resp_3.keys,key_resp_3.rt,repeat_practice.thisRepN,repeat_practice.thisTrialN,repeat_practice.thisN,repeat_practice.thisIndex,repeat_practice.ran,key_resp_6.keys,key_resp_6.rt,key_resp_11.keys,key_resp_11.corr,key_resp_11.rt,operation_correct,repeat_if_wrong_prac.thisRepN,repeat_if_wrong_prac.thisTrialN,repeat_if_wrong_prac.thisN,repeat_if_wrong_prac.thisIndex,repeat_if_wrong_prac.ran,span_size_prac.thisRepN,span_size_prac.thisTrialN,span_size_prac.thisN,span_size_prac.thisIndex,span_size_prac.ran,complex_recall_practice,key_resp_9.keys,key_resp_9.corr,key_resp_9.rt,complex_prac_corr,span_recall_prac.thisRepN,span_recall_prac.thisTrialN,span_recall_prac.thisN,span_recall_prac.thisIndex,span_recall_prac.ran,key_resp_10.keys,key_resp_10.rt,key_resp_7.keys,key_resp_7.corr,key_resp_7.rt,repeat_if_wrong.thisRepN,repeat_if_wrong.thisTrialN,repeat_if_wrong.thisN,repeat_if_wrong.thisIndex,repeat_if_wrong.ran,span_size.thisRepN,span_size.thisTrialN,span_size.thisN,span_size.thisIndex,span_size.ran,complex_recall,key_resp_8.keys,key_resp_8.corr,key_resp_8.rt,complex_recall_corr,complex_recall_corrkeys,span_recall.thisRepN,span_recall.thisTrialN,span_recall.thisN,span_recall.thisIndex,span_recall.ran,key_resp_12.keys,key_resp_12.rt
space,45.3738,,0,0,0,0,0,1,5fa27915a7a32b44f3b2f44a,21,Mężczyzna,2022-05-28_09h22.34.209,task,2021.1.4,Win32,74.92881762,628b806c463b948bc644b84f,6291cd9856b5067424906485,,,,,,,,,,,,,,,,,,,,,,,,,,,,,,,,,,,,,,,,,,,,,,,,,,,,,,,,,,,,,,,,,,,,,,,,,,,,,,,,,,,,,,,,,,,,,,,,,,,,,,,,
,,,0,1,0,1,0,1,5fa27915a7a32b44f3b2f44a,21,Mężczyzna,2022-05-28_09h22.34.209,task,2021.1.4,Win32,74.92881762,628b806c463b948bc644b84f,6291cd9856b5067424906485,,,,,,,,,,,,,,,,,,,,,,,,,,,,,,,,,,,,,,,,,,,,,,,,,,,,,,,,,,,,,,,,,,,,,,,,,,,,,,,,,,,,,,,,,,,,,,,,,,,,,,,,
,,"[""period""]",0,2,0,2,0,1,5fa27915a7a32b44f3b2f44a,21,Mężczyzna,2022-05-28_09h22.34.209,task,2021.1.4,Win32,74.92881762,628b806c463b948bc644b84f,6291cd9856b5067424906485,[1.209200000047673],,,,,,,,,,,,,,,,,,,,,,,,,,,,,,,,,,,,,,,,,,,,,,,,,,,,,,,,,,,,,,,,,,,,,,,,,,,,,,,,,,,,,,,,,,,,,,,,,,,,,,,
,,"[""comma""]",0,3,0,3,0,1,5fa27915a7a32b44f3b2f44a,21,Mężczyzna,2022-05-28_09h22.34.209,task,2021.1.4,Win32,74.92881762,628b806c463b948bc644b84f,6291cd9856b5067424906485,[1.2327000000476716],,,,,,,,,,,,,,,,,,,,,,,,,,,,,,,,,,,,,,,,,,,,,,,,,,,,,,,,,,,,,,,,,,,,,,,,,,,,,,,,,,,,,,,,,,,,,,,,,,,,,,,
,,"[""period""]",0,4,0,4,0,1,5fa27915a7a32b44f3b2f44a,21,Mężczyzna,2022-05-28_09h22.34.209,task,2021.1.4,Win32,74.92881762,628b806c463b948bc644b84f,6291cd9856b5067424906485,[0.5092000000476986],,,,,,,,,,,,,,,,,,,,,,,,,,,,,,,,,,,,,,,,,,,,,,,,,,,,,,,,,,,,,,,,,,,,,,,,,,,,,,,,,,,,,,,,,,,,,,,,,,,,,,,
,,"[""comma""]",0,5,0,5,0,1,5fa27915a7a32b44f3b2f44a,21,Mężczyzna,2022-05-28_09h22.34.209,task,2021.1.4,Win32,74.92881762,628b806c463b948bc644b84f,6291cd9856b5067424906485,[0.29970000004769304],,,,,,,,,,,,,,,,,,,,,,,,,,,,,,,,,,,,,,,,,,,,,,,,,,,,,,,,,,,,,,,,,,,,,,,,,,,,,,,,,,,,,,,,,,,,,,,,,,,,,,,
,,"[""period""]",0,6,0,6,0,1,5fa27915a7a32b44f3b2f44a,21,Mężczyzna,2022-05-28_09h22.34.209,task,2021.1.4,Win32,74.92881762,628b806c463b948bc644b84f,6291cd9856b5067424906485,[0.3505000000000109],,,,,,,,,,,,,,,,,,,,,,,,,,,,,,,,,,,,,,,,,,,,,,,,,,,,,,,,,,,,,,,,,,,,,,,,,,,,,,,,,,,,,,,,,,,,,,,,,,,,,,,
,,"[""comma""]",0,7,0,7,0,1,5fa27915a7a32b44f3b2f44a,21,Mężczyzna,2022-05-28_09h22.34.209,task,2021.1.4,Win32,74.92881762,628b806c463b948bc644b84f,6291cd9856b5067424906485,[0.2464999999999975],,,,,,,,,,,,,,,,,,,,,,,,,,,,,,,,,,,,,,,,,,,,,,,,,,,,,,,,,,,,,,,,,,,,,,,,,,,,,,,,,,,,,,,,,,,,,,,,,,,,,,,
,,"[""period""]",0,8,0,8,0,1,5fa27915a7a32b44f3b2f44a,21,Mężczyzna,2022-05-28_09h22.34.209,task,2021.1.4,Win32,74.92881762,628b806c463b948bc644b84f,6291cd9856b5067424906485,[0.26149999999998386],,,,,,,,,,,,,,,,,,,,,,,,,,,,,,,,,,,,,,,,,,,,,,,,,,,,,,,,,,,,,,,,,,,,,,,,,,,,,,,,,,,,,,,,,,,,,,,,,,,,,,,
,,"[""comma""]",0,9,0,9,0,1,5fa27915a7a32b44f3b2f44a,21,Mężczyzna,2022-05-28_09h22.34.209,task,2021.1.4,Win32,74.92881762,628b806c463b948bc644b84f,6291cd9856b5067424906485,[0.2775000000000034],,,,,,,,,,,,,,,,,,,,,,,,,,,,,,,,,,,,,,,,,,,,,,,,,,,,,,,,,,,,,,,,,,,,,,,,,,,,,,,,,,,,,,,,,,,,,,,,,,,,,,,
,,"[""period""]",0,10,0,10,0,1,5fa27915a7a32b44f3b2f44a,21,Mężczyzna,2022-05-28_09h22.34.209,task,2021.1.4,Win32,74.92881762,628b806c463b948bc644b84f,6291cd9856b5067424906485,[0.29659999990462893],,,,,,,,,,,,,,,,,,,,,,,,,,,,,,,,,,,,,,,,,,,,,,,,,,,,,,,,,,,,,,,,,,,,,,,,,,,,,,,,,,,,,,,,,,,,,,,,,,,,,,,
,,"[""comma""]",0,11,0,11,0,1,5fa27915a7a32b44f3b2f44a,21,Mężczyzna,2022-05-28_09h22.34.209,task,2021.1.4,Win32,74.92881762,628b806c463b948bc644b84f,6291cd9856b5067424906485,[0.3485999999046214],,,,,,,,,,,,,,,,,,,,,,,,,,,,,,,,,,,,,,,,,,,,,,,,,,,,,,,,,,,,,,,,,,,,,,,,,,,,,,,,,,,,,,,,,,,,,,,,,,,,,,,
,,"[""comma""]",0,12,0,12,0,1,5fa27915a7a32b44f3b2f44a,21,Mężczyzna,2022-05-28_09h22.34.209,task,2021.1.4,Win32,74.92881762,628b806c463b948bc644b84f,6291cd9856b5067424906485,[0.36420000004767417],,,,,,,,,,,,,,,,,,,,,,,,,,,,,,,,,,,,,,,,,,,,,,,,,,,,,,,,,,,,,,,,,,,,,,,,,,,,,,,,,,,,,,,,,,,,,,,,,,,,,,,
,,"[""period""]",0,13,0,13,0,1,5fa27915a7a32b44f3b2f44a,21,Mężczyzna,2022-05-28_09h22.34.209,task,2021.1.4,Win32,74.92881762,628b806c463b948bc644b84f,6291cd9856b5067424906485,[0.28120000004767576],,,,,,,,,,,,,,,,,,,,,,,,,,,,,,,,,,,,,,,,,,,,,,,,,,,,,,,,,,,,,,,,,,,,,,,,,,,,,,,,,,,,,,,,,,,,,,,,,,,,,,,
,,"[""period""]",0,14,0,14,0,1,5fa27915a7a32b44f3b2f44a,21,Mężczyzna,2022-05-28_09h22.34.209,task,2021.1.4,Win32,74.92881762,628b806c463b948bc644b84f,6291cd9856b5067424906485,[0.3712000000477076],,,,,,,,,,,,,,,,,,,,,,,,,,,,,,,,,,,,,,,,,,,,,,,,,,,,,,,,,,,,,,,,,,,,,,,,,,,,,,,,,,,,,,,,,,,,,,,,,,,,,,,
,,"[""period""]",0,15,0,15,0,1,5fa27915a7a32b44f3b2f44a,21,Mężczyzna,2022-05-28_09h22.34.209,task,2021.1.4,Win32,74.92881762,628b806c463b948bc644b84f,6291cd9856b5067424906485,[0.7084000000953665],,,,,,,,,,,,,,,,,,,,,,,,,,,,,,,,,,,,,,,,,,,,,,,,,,,,,,,,,,,,,,,,,,,,,,,,,,,,,,,,,,,,,,,,,,,,,,,,,,,,,,,
,,"[""comma""]",0,16,0,16,0,1,5fa27915a7a32b44f3b2f44a,21,Mężczyzna,2022-05-28_09h22.34.209,task,2021.1.4,Win32,74.92881762,628b806c463b948bc644b84f,6291cd9856b5067424906485,[0.7539999999999907],,,,,,,,,,,,,,,,,,,,,,,,,,,,,,,,,,,,,,,,,,,,,,,,,,,,,,,,,,,,,,,,,,,,,,,,,,,,,,,,,,,,,,,,,,,,,,,,,,,,,,,
,,"[""comma""]",0,17,0,17,0,1,5fa27915a7a32b44f3b2f44a,21,Mężczyzna,2022-05-28_09h22.34.209,task,2021.1.4,Win32,74.92881762,628b806c463b948bc644b84f,6291cd9856b5067424906485,[0.7685999999046373],,,,,,,,,,,,,,,,,,,,,,,,,,,,,,,,,,,,,,,,,,,,,,,,,,,,,,,,,,,,,,,,,,,,,,,,,,,,,,,,,,,,,,,,,,,,,,,,,,,,,,,
,,"[""period""]",0,18,0,18,0,1,5fa27915a7a32b44f3b2f44a,21,Mężczyzna,2022-05-28_09h22.34.209,task,2021.1.4,Win32,74.92881762,628b806c463b948bc644b84f,6291cd9856b5067424906485,[0.8574000000953674],,,,,,,,,,,,,,,,,,,,,,,,,,,,,,,,,,,,,,,,,,,,,,,,,,,,,,,,,,,,,,,,,,,,,,,,,,,,,,,,,,,,,,,,,,,,,,,,,,,,,,,
,,"[""comma""]",0,19,0,19,0,1,5fa27915a7a32b44f3b2f44a,21,Mężczyzna,2022-05-28_09h22.34.209,task,2021.1.4,Win32,74.92881762,628b806c463b948bc644b84f,6291cd9856b5067424906485,[0.594700000047709],,,,,,,,,,,,,,,,,,,,,,,,,,,,,,,,,,,,,,,,,,,,,,,,,,,,,,,,,,,,,,,,,,,,,,,,,,,,,,,,,,,,,,,,,,,,,,,,,,,,,,,
,,"[""comma""]",0,20,0,20,0,1,5fa27915a7a32b44f3b2f44a,21,Mężczyzna,2022-05-28_09h22.34.209,task,2021.1.4,Win32,74.92881762,628b806c463b948bc644b84f,6291cd9856b5067424906485,[0.4210000000000207],,,,,,,,,,,,,,,,,,,,,,,,,,,,,,,,,,,,,,,,,,,,,,,,,,,,,,,,,,,,,,,,,,,,,,,,,,,,,,,,,,,,,,,,,,,,,,,,,,,,,,,
,,"[""comma""]",0,21,0,21,0,1,5fa27915a7a32b44f3b2f44a,21,Mężczyzna,2022-05-28_09h22.34.209,task,2021.1.4,Win32,74.92881762,628b806c463b948bc644b84f,6291cd9856b5067424906485,[0.700600000143055],,,,,,,,,,,,,,,,,,,,,,,,,,,,,,,,,,,,,,,,,,,,,,,,,,,,,,,,,,,,,,,,,,,,,,,,,,,,,,,,,,,,,,,,,,,,,,,,,,,,,,,
,,"[""period""]",0,22,0,22,0,1,5fa27915a7a32b44f3b2f44a,21,Mężczyzna,2022-05-28_09h22.34.209,task,2021.1.4,Win32,74.92881762,628b806c463b948bc644b84f,6291cd9856b5067424906485,[0.9087999999522935],,,,,,,,,,,,,,,,,,,,,,,,,,,,,,,,,,,,,,,,,,,,,,,,,,,,,,,,,,,,,,,,,,,,,,,,,,,,,,,,,,,,,,,,,,,,,,,,,,,,,,,
,,"[""comma""]",0,23,0,23,0,1,5fa27915a7a32b44f3b2f44a,21,Mężczyzna,2022-05-28_09h22.34.209,task,2021.1.4,Win32,74.92881762,628b806c463b948bc644b84f,6291cd9856b5067424906485,[0.4098999998569468],,,,,,,,,,,,,,,,,,,,,,,,,,,,,,,,,,,,,,,,,,,,,,,,,,,,,,,,,,,,,,,,,,,,,,,,,,,,,,,,,,,,,,,,,,,,,,,,,,,,,,,
,,"[""period""]",0,24,0,24,0,1,5fa27915a7a32b44f3b2f44a,21,Mężczyzna,2022-05-28_09h22.34.209,task,2021.1.4,Win32,74.92881762,628b806c463b948bc644b84f,6291cd9856b5067424906485,[0.2959000000953722],,,,,,,,,,,,,,,,,,,,,,,,,,,,,,,,,,,,,,,,,,,,,,,,,,,,,,,,,,,,,,,,,,,,,,,,,,,,,,,,,,,,,,,,,,,,,,,,,,,,,,,
,,"[""period""]",0,25,0,25,0,1,5fa27915a7a32b44f3b2f44a,21,Mężczyzna,2022-05-28_09h22.34.209,task,2021.1.4,Win32,74.92881762,628b806c463b948bc644b84f,6291cd9856b5067424906485,[0.3109999999999786],,,,,,,,,,,,,,,,,,,,,,,,,,,,,,,,,,,,,,,,,,,,,,,,,,,,,,,,,,,,,,,,,,,,,,,,,,,,,,,,,,,,,,,,,,,,,,,,,,,,,,,
,,"[""period""]",0,26,0,26,0,1,5fa27915a7a32b44f3b2f44a,21,Mężczyzna,2022-05-28_09h22.34.209,task,2021.1.4,Win32,74.92881762,628b806c463b948bc644b84f,6291cd9856b5067424906485,[0.3377999999522956],,,,,,,,,,,,,,,,,,,,,,,,,,,,,,,,,,,,,,,,,,,,,,,,,,,,,,,,,,,,,,,,,,,,,,,,,,,,,,,,,,,,,,,,,,,,,,,,,,,,,,,
,,"[""comma""]",0,27,0,27,0,1,5fa27915a7a32b44f3b2f44a,21,Mężczyzna,2022-05-28_09h22.34.209,task,2021.1.4,Win32,74.92881762,628b806c463b948bc644b84f,6291cd9856b5067424906485,[0.3178000001907151],,,,,,,,,,,,,,,,,,,,,,,,,,,,,,,,,,,,,,,,,,,,,,,,,,,,,,,,,,,,,,,,,,,,,,,,,,,,,,,,,,,,,,,,,,,,,,,,,,,,,,,
,,"[""comma""]",0,28,0,28,0,1,5fa27915a7a32b44f3b2f44a,21,Mężczyzna,2022-05-28_09h22.34.209,task,2021.1.4,Win32,74.92881762,628b806c463b948bc644b84f,6291cd9856b5067424906485,[0.30479999995230855],,,,,,,,,,,,,,,,,,,,,,,,,,,,,,,,,,,,,,,,,,,,,,,,,,,,,,,,,,,,,,,,,,,,,,,,,,,,,,,,,,,,,,,,,,,,,,,,,,,,,,,
,,"[""comma""]",0,29,0,29,0,1,5fa27915a7a32b44f3b2f44a,21,Mężczyzna,2022-05-28_09h22.34.209,task,2021.1.4,Win32,74.92881762,628b806c463b948bc644b84f,6291cd9856b5067424906485,[0.44830000019072713],,,,,,,,,,,,,,,,,,,,,,,,,,,,,,,,,,,,,,,,,,,,,,,,,,,,,,,,,,,,,,,,,,,,,,,,,,,,,,,,,,,,,,,,,,,,,,,,,,,,,,,
,,"[""period""]",0,30,0,30,0,1,5fa27915a7a32b44f3b2f44a,21,Mężczyzna,2022-05-28_09h22.34.209,task,2021.1.4,Win32,74.92881762,628b806c463b948bc644b84f,6291cd9856b5067424906485,[0.43660000014307343],,,,,,,,,,,,,,,,,,,,,,,,,,,,,,,,,,,,,,,,,,,,,,,,,,,,,,,,,,,,,,,,,,,,,,,,,,,,,,,,,,,,,,,,,,,,,,,,,,,,,,,
,,"[""period""]",0,31,0,31,0,1,5fa27915a7a32b44f3b2f44a,21,Mężczyzna,2022-05-28_09h22.34.209,task,2021.1.4,Win32,74.92881762,628b806c463b948bc644b84f,6291cd9856b5067424906485,[0.7113000001907324],,,,,,,,,,,,,,,,,,,,,,,,,,,,,,,,,,,,,,,,,,,,,,,,,,,,,,,,,,,,,,,,,,,,,,,,,,,,,,,,,,,,,,,,,,,,,,,,,,,,,,,
,,"[""comma""]",0,32,0,32,0,1,5fa27915a7a32b44f3b2f44a,21,Mężczyzna,2022-05-28_09h22.34.209,task,2021.1.4,Win32,74.92881762,628b806c463b948bc644b84f,6291cd9856b5067424906485,[0.566799999952309],,,,,,,,,,,,,,,,,,,,,,,,,,,,,,,,,,,,,,,,,,,,,,,,,,,,,,,,,,,,,,,,,,,,,,,,,,,,,,,,,,,,,,,,,,,,,,,,,,,,,,,
,,"[""comma""]",0,33,0,33,0,1,5fa27915a7a32b44f3b2f44a,21,Mężczyzna,2022-05-28_09h22.34.209,task,2021.1.4,Win32,74.92881762,628b806c463b948bc644b84f,6291cd9856b5067424906485,[0.6467999999523215],,,,,,,,,,,,,,,,,,,,,,,,,,,,,,,,,,,,,,,,,,,,,,,,,,,,,,,,,,,,,,,,,,,,,,,,,,,,,,,,,,,,,,,,,,,,,,,,,,,,,,,
,,"[""comma""]",0,34,0,34,0,1,5fa27915a7a32b44f3b2f44a,21,Mężczyzna,2022-05-28_09h22.34.209,task,2021.1.4,Win32,74.92881762,628b806c463b948bc644b84f,6291cd9856b5067424906485,[0.6387000000476917],,,,,,,,,,,,,,,,,,,,,,,,,,,,,,,,,,,,,,,,,,,,,,,,,,,,,,,,,,,,,,,,,,,,,,,,,,,,,,,,,,,,,,,,,,,,,,,,,,,,,,,
,,"[""period""]",0,35,0,35,0,1,5fa27915a7a32b44f3b2f44a,21,Mężczyzna,2022-05-28_09h22.34.209,task,2021.1.4,Win32,74.92881762,628b806c463b948bc644b84f,6291cd9856b5067424906485,[0.3972000000476896],,,,,,,,,,,,,,,,,,,,,,,,,,,,,,,,,,,,,,,,,,,,,,,,,,,,,,,,,,,,,,,,,,,,,,,,,,,,,,,,,,,,,,,,,,,,,,,,,,,,,,,
,,"[""period""]",0,36,0,36,0,1,5fa27915a7a32b44f3b2f44a,21,Mężczyzna,2022-05-28_09h22.34.209,task,2021.1.4,Win32,74.92881762,628b806c463b948bc644b84f,6291cd9856b5067424906485,[0.31399999999999295],,,,,,,,,,,,,,,,,,,,,,,,,,,,,,,,,,,,,,,,,,,,,,,,,,,,,,,,,,,,,,,,,,,,,,,,,,,,,,,,,,,,,,,,,,,,,,,,,,,,,,,
,,"[""comma""]",0,37,0,37,0,1,5fa27915a7a32b44f3b2f44a,21,Mężczyzna,2022-05-28_09h22.34.209,task,2021.1.4,Win32,74.92881762,628b806c463b948bc644b84f,6291cd9856b5067424906485,[0.4410000000000025],,,,,,,,,,,,,,,,,,,,,,,,,,,,,,,,,,,,,,,,,,,,,,,,,,,,,,,,,,,,,,,,,,,,,,,,,,,,,,,,,,,,,,,,,,,,,,,,,,,,,,,
,,"[""comma""]",0,38,0,38,0,1,5fa27915a7a32b44f3b2f44a,21,Mężczyzna,2022-05-28_09h22.34.209,task,2021.1.4,Win32,74.92881762,628b806c463b948bc644b84f,6291cd9856b5067424906485,[0.4327999999523229],,,,,,,,,,,,,,,,,,,,,,,,,,,,,,,,,,,,,,,,,,,,,,,,,,,,,,,,,,,,,,,,,,,,,,,,,,,,,,,,,,,,,,,,,,,,,,,,,,,,,,,
,,"[""period""]",0,39,0,39,0,1,5fa27915a7a32b44f3b2f44a,21,Mężczyzna,2022-05-28_09h22.34.209,task,2021.1.4,Win32,74.92881762,628b806c463b948bc644b84f,6291cd9856b5067424906485,[0.2890000000000157],,,,,,,,,,,,,,,,,,,,,,,,,,,,,,,,,,,,,,,,,,,,,,,,,,,,,,,,,,,,,,,,,,,,,,,,,,,,,,,,,,,,,,,,,,,,,,,,,,,,,,,
,,"[""period""]",0,40,0,40,0,1,5fa27915a7a32b44f3b2f44a,21,Mężczyzna,2022-05-28_09h22.34.209,task,2021.1.4,Win32,74.92881762,628b806c463b948bc644b84f,6291cd9856b5067424906485,[0.3042999999523204],,,,,,,,,,,,,,,,,,,,,,,,,,,,,,,,,,,,,,,,,,,,,,,,,,,,,,,,,,,,,,,,,,,,,,,,,,,,,,,,,,,,,,,,,,,,,,,,,,,,,,,
,,"[""comma""]",0,41,0,41,0,1,5fa27915a7a32b44f3b2f44a,21,Mężczyzna,2022-05-28_09h22.34.209,task,2021.1.4,Win32,74.92881762,628b806c463b948bc644b84f,6291cd9856b5067424906485,[0.35080000019073054],,,,,,,,,,,,,,,,,,,,,,,,,,,,,,,,,,,,,,,,,,,,,,,,,,,,,,,,,,,,,,,,,,,,,,,,,,,,,,,,,,,,,,,,,,,,,,,,,,,,,,,
,,"[""comma""]",0,42,0,42,0,1,5fa27915a7a32b44f3b2f44a,21,Mężczyzna,2022-05-28_09h22.34.209,task,2021.1.4,Win32,74.92881762,628b806c463b948bc644b84f,6291cd9856b5067424906485,[0.5015999999046414],,,,,,,,,,,,,,,,,,,,,,,,,,,,,,,,,,,,,,,,,,,,,,,,,,,,,,,,,,,,,,,,,,,,,,,,,,,,,,,,,,,,,,,,,,,,,,,,,,,,,,,
,,"[""period""]",0,43,0,43,0,1,5fa27915a7a32b44f3b2f44a,21,Mężczyzna,2022-05-28_09h22.34.209,task,2021.1.4,Win32,74.92881762,628b806c463b948bc644b84f,6291cd9856b5067424906485,[0.29690000009534856],,,,,,,,,,,,,,,,,,,,,,,,,,,,,,,,,,,,,,,,,,,,,,,,,,,,,,,,,,,,,,,,,,,,,,,,,,,,,,,,,,,,,,,,,,,,,,,,,,,,,,,
,,"[""period""]",0,44,0,44,0,1,5fa27915a7a32b44f3b2f44a,21,Mężczyzna,2022-05-28_09h22.34.209,task,2021.1.4,Win32,74.92881762,628b806c463b948bc644b84f,6291cd9856b5067424906485,[0.27729999995233356],,,,,,,,,,,,,,,,,,,,,,,,,,,,,,,,,,,,,,,,,,,,,,,,,,,,,,,,,,,,,,,,,,,,,,,,,,,,,,,,,,,,,,,,,,,,,,,,,,,,,,,
,,"[""comma""]",0,45,0,45,0,1,5fa27915a7a32b44f3b2f44a,21,Mężczyzna,2022-05-28_09h22.34.209,task,2021.1.4,Win32,74.92881762,628b806c463b948bc644b84f,6291cd9856b5067424906485,[0.42200000000002547],,,,,,,,,,,,,,,,,,,,,,,,,,,,,,,,,,,,,,,,,,,,,,,,,,,,,,,,,,,,,,,,,,,,,,,,,,,,,,,,,,,,,,,,,,,,,,,,,,,,,,,
,,"[""period""]",0,46,0,46,0,1,5fa27915a7a32b44f3b2f44a,21,Mężczyzna,2022-05-28_09h22.34.209,task,2021.1.4,Win32,74.92881762,628b806c463b948bc644b84f,6291cd9856b5067424906485,[0.4157000000477069],,,,,,,,,,,,,,,,,,,,,,,,,,,,,,,,,,,,,,,,,,,,,,,,,,,,,,,,,,,,,,,,,,,,,,,,,,,,,,,,,,,,,,,,,,,,,,,,,,,,,,,
,,"[""period""]",0,47,0,47,0,1,5fa27915a7a32b44f3b2f44a,21,Mężczyzna,2022-05-28_09h22.34.209,task,2021.1.4,Win32,74.92881762,628b806c463b948bc644b84f,6291cd9856b5067424906485,[0.46079999995231447],,,,,,,,,,,,,,,,,,,,,,,,,,,,,,,,,,,,,,,,,,,,,,,,,,,,,,,,,,,,,,,,,,,,,,,,,,,,,,,,,,,,,,,,,,,,,,,,,,,,,,,
,,"[""period""]",0,48,0,48,0,1,5fa27915a7a32b44f3b2f44a,21,Mężczyzna,2022-05-28_09h22.34.209,task,2021.1.4,Win32,74.92881762,628b806c463b948bc644b84f,6291cd9856b5067424906485,[0.5086000001430477],,,,,,,,,,,,,,,,,,,,,,,,,,,,,,,,,,,,,,,,,,,,,,,,,,,,,,,,,,,,,,,,,,,,,,,,,,,,,,,,,,,,,,,,,,,,,,,,,,,,,,,
,,"[""period""]",0,49,0,49,0,1,5fa27915a7a32b44f3b2f44a,21,Mężczyzna,2022-05-28_09h22.34.209,task,2021.1.4,Win32,74.92881762,628b806c463b948bc644b84f,6291cd9856b5067424906485,[0.5002000000476698],,,,,,,,,,,,,,,,,,,,,,,,,,,,,,,,,,,,,,,,,,,,,,,,,,,,,,,,,,,,,,,,,,,,,,,,,,,,,,,,,,,,,,,,,,,,,,,,,,,,,,,
,,"[""comma""]",0,50,0,50,0,1,5fa27915a7a32b44f3b2f44a,21,Mężczyzna,2022-05-28_09h22.34.209,task,2021.1.4,Win32,74.92881762,628b806c463b948bc644b84f,6291cd9856b5067424906485,[0.3869000000953804],,,,,,,,,,,,,,,,,,,,,,,,,,,,,,,,,,,,,,,,,,,,,,,,,,,,,,,,,,,,,,,,,,,,,,,,,,,,,,,,,,,,,,,,,,,,,,,,,,,,,,,
,,"[""period""]",0,51,0,51,0,1,5fa27915a7a32b44f3b2f44a,21,Mężczyzna,2022-05-28_09h22.34.209,task,2021.1.4,Win32,74.92881762,628b806c463b948bc644b84f,6291cd9856b5067424906485,[0.6885999999046248],,,,,,,,,,,,,,,,,,,,,,,,,,,,,,,,,,,,,,,,,,,,,,,,,,,,,,,,,,,,,,,,,,,,,,,,,,,,,,,,,,,,,,,,,,,,,,,,,,,,,,,
,,"[""comma""]",0,52,0,52,0,1,5fa27915a7a32b44f3b2f44a,21,Mężczyzna,2022-05-28_09h22.34.209,task,2021.1.4,Win32,74.92881762,628b806c463b948bc644b84f,6291cd9856b5067424906485,[0.41839999985694476],,,,,,,,,,,,,,,,,,,,,,,,,,,,,,,,,,,,,,,,,,,,,,,,,,,,,,,,,,,,,,,,,,,,,,,,,,,,,,,,,,,,,,,,,,,,,,,,,,,,,,,
,,"[""period""]",0,53,0,53,0,1,5fa27915a7a32b44f3b2f44a,21,Mężczyzna,2022-05-28_09h22.34.209,task,2021.1.4,Win32,74.92881762,628b806c463b948bc644b84f,6291cd9856b5067424906485,[0.6339000000953661],,,,,,,,,,,,,,,,,,,,,,,,,,,,,,,,,,,,,,,,,,,,,,,,,,,,,,,,,,,,,,,,,,,,,,,,,,,,,,,,,,,,,,,,,,,,,,,,,,,,,,,
,,"[""comma""]",0,54,0,54,0,1,5fa27915a7a32b44f3b2f44a,21,Mężczyzna,2022-05-28_09h22.34.209,task,2021.1.4,Win32,74.92881762,628b806c463b948bc644b84f,6291cd9856b5067424906485,[0.45790000009537835],,,,,,,,,,,,,,,,,,,,,,,,,,,,,,,,,,,,,,,,,,,,,,,,,,,,,,,,,,,,,,,,,,,,,,,,,,,,,,,,,,,,,,,,,,,,,,,,,,,,,,,
,,"[""comma""]",0,55,0,55,0,1,5fa27915a7a32b44f3b2f44a,21,Mężczyzna,2022-05-28_09h22.34.209,task,2021.1.4,Win32,74.92881762,628b806c463b948bc644b84f,6291cd9856b5067424906485,[0.8702000000476744],,,,,,,,,,,,,,,,,,,,,,,,,,,,,,,,,,,,,,,,,,,,,,,,,,,,,,,,,,,,,,,,,,,,,,,,,,,,,,,,,,,,,,,,,,,,,,,,,,,,,,,
,,"[""period""]",0,56,0,56,0,1,5fa27915a7a32b44f3b2f44a,21,Mężczyzna,2022-05-28_09h22.34.209,task,2021.1.4,Win32,74.92881762,628b806c463b948bc644b84f,6291cd9856b5067424906485,[0.47020000004769713],,,,,,,,,,,,,,,,,,,,,,,,,,,,,,,,,,,,,,,,,,,,,,,,,,,,,,,,,,,,,,,,,,,,,,,,,,,,,,,,,,,,,,,,,,,,,,,,,,,,,,,
,,"[""comma""]",0,57,0,57,0,1,5fa27915a7a32b44f3b2f44a,21,Mężczyzna,2022-05-28_09h22.34.209,task,2021.1.4,Win32,74.92881762,628b806c463b948bc644b84f,6291cd9856b5067424906485,[0.30060000014307775],,,,,,,,,,,,,,,,,,,,,,,,,,,,,,,,,,,,,,,,,,,,,,,,,,,,,,,,,,,,,,,,,,,,,,,,,,,,,,,,,,,,,,,,,,,,,,,,,,,,,,,
,,"[""period""]",0,58,0,58,0,1,5fa27915a7a32b44f3b2f44a,21,Mężczyzna,2022-05-28_09h22.34.209,task,2021.1.4,Win32,74.92881762,628b806c463b948bc644b84f,6291cd9856b5067424906485,[0.3810999999046203],,,,,,,,,,,,,,,,,,,,,,,,,,,,,,,,,,,,,,,,,,,,,,,,,,,,,,,,,,,,,,,,,,,,,,,,,,,,,,,,,,,,,,,,,,,,,,,,,,,,,,,
,,"[""comma""]",0,59,0,59,0,1,5fa27915a7a32b44f3b2f44a,21,Mężczyzna,2022-05-28_09h22.34.209,task,2021.1.4,Win32,74.92881762,628b806c463b948bc644b84f,6291cd9856b5067424906485,[0.364599999904641],,,,,,,,,,,,,,,,,,,,,,,,,,,,,,,,,,,,,,,,,,,,,,,,,,,,,,,,,,,,,,,,,,,,,,,,,,,,,,,,,,,,,,,,,,,,,,,,,,,,,,,
,,"[""period""]",0,60,0,60,0,1,5fa27915a7a32b44f3b2f44a,21,Mężczyzna,2022-05-28_09h22.34.209,task,2021.1.4,Win32,74.92881762,628b806c463b948bc644b84f,6291cd9856b5067424906485,[0.4527000000476846],,,,,,,,,,,,,,,,,,,,,,,,,,,,,,,,,,,,,,,,,,,,,,,,,,,,,,,,,,,,,,,,,,,,,,,,,,,,,,,,,,,,,,,,,,,,,,,,,,,,,,,
,,"[""comma""]",0,61,0,61,0,1,5fa27915a7a32b44f3b2f44a,21,Mężczyzna,2022-05-28_09h22.34.209,task,2021.1.4,Win32,74.92881762,628b806c463b948bc644b84f,6291cd9856b5067424906485,[0.40359999990462825],,,,,,,,,,,,,,,,,,,,,,,,,,,,,,,,,,,,,,,,,,,,,,,,,,,,,,,,,,,,,,,,,,,,,,,,,,,,,,,,,,,,,,,,,,,,,,,,,,,,,,,
,,"[""comma""]",0,62,0,62,0,1,5fa27915a7a32b44f3b2f44a,21,Mężczyzna,2022-05-28_09h22.34.209,task,2021.1.4,Win32,74.92881762,628b806c463b948bc644b84f,6291cd9856b5067424906485,[0.6392999999523283],,,,,,,,,,,,,,,,,,,,,,,,,,,,,,,,,,,,,,,,,,,,,,,,,,,,,,,,,,,,,,,,,,,,,,,,,,,,,,,,,,,,,,,,,,,,,,,,,,,,,,,
,,"[""comma""]",0,63,0,63,0,1,5fa27915a7a32b44f3b2f44a,21,Mężczyzna,2022-05-28_09h22.34.209,task,2021.1.4,Win32,74.92881762,628b806c463b948bc644b84f,6291cd9856b5067424906485,[0.4662999999523265],,,,,,,,,,,,,,,,,,,,,,,,,,,,,,,,,,,,,,,,,,,,,,,,,,,,,,,,,,,,,,,,,,,,,,,,,,,,,,,,,,,,,,,,,,,,,,,,,,,,,,,
,,"[""comma""]",0,64,0,64,0,1,5fa27915a7a32b44f3b2f44a,21,Mężczyzna,2022-05-28_09h22.34.209,task,2021.1.4,Win32,74.92881762,628b806c463b948bc644b84f,6291cd9856b5067424906485,[0.5499000000953629],,,,,,,,,,,,,,,,,,,,,,,,,,,,,,,,,,,,,,,,,,,,,,,,,,,,,,,,,,,,,,,,,,,,,,,,,,,,,,,,,,,,,,,,,,,,,,,,,,,,,,,
,,"[""period""]",0,65,0,65,0,1,5fa27915a7a32b44f3b2f44a,21,Mężczyzna,2022-05-28_09h22.34.209,task,2021.1.4,Win32,74.92881762,628b806c463b948bc644b84f,6291cd9856b5067424906485,[0.6332000000476796],,,,,,,,,,,,,,,,,,,,,,,,,,,,,,,,,,,,,,,,,,,,,,,,,,,,,,,,,,,,,,,,,,,,,,,,,,,,,,,,,,,,,,,,,,,,,,,,,,,,,,,
,,"[""comma""]",0,66,0,66,0,1,5fa27915a7a32b44f3b2f44a,21,Mężczyzna,2022-05-28_09h22.34.209,task,2021.1.4,Win32,74.92881762,628b806c463b948bc644b84f,6291cd9856b5067424906485,[0.8404000000953431],,,,,,,,,,,,,,,,,,,,,,,,,,,,,,,,,,,,,,,,,,,,,,,,,,,,,,,,,,,,,,,,,,,,,,,,,,,,,,,,,,,,,,,,,,,,,,,,,,,,,,,
,,"[""period""]",0,67,0,67,0,1,5fa27915a7a32b44f3b2f44a,21,Mężczyzna,2022-05-28_09h22.34.209,task,2021.1.4,Win32,74.92881762,628b806c463b948bc644b84f,6291cd9856b5067424906485,[0.31229999995233015],,,,,,,,,,,,,,,,,,,,,,,,,,,,,,,,,,,,,,,,,,,,,,,,,,,,,,,,,,,,,,,,,,,,,,,,,,,,,,,,,,,,,,,,,,,,,,,,,,,,,,,
,,"[""period""]",0,68,0,68,0,1,5fa27915a7a32b44f3b2f44a,21,Mężczyzna,2022-05-28_09h22.34.209,task,2021.1.4,Win32,74.92881762,628b806c463b948bc644b84f,6291cd9856b5067424906485,[0.3685000000000116],,,,,,,,,,,,,,,,,,,,,,,,,,,,,,,,,,,,,,,,,,,,,,,,,,,,,,,,,,,,,,,,,,,,,,,,,,,,,,,,,,,,,,,,,,,,,,,,,,,,,,,
,,"[""period""]",0,69,0,69,0,1,5fa27915a7a32b44f3b2f44a,21,Mężczyzna,2022-05-28_09h22.34.209,task,2021.1.4,Win32,74.92881762,628b806c463b948bc644b84f,6291cd9856b5067424906485,[0.5772999999523449],,,,,,,,,,,,,,,,,,,,,,,,,,,,,,,,,,,,,,,,,,,,,,,,,,,,,,,,,,,,,,,,,,,,,,,,,,,,,,,,,,,,,,,,,,,,,,,,,,,,,,,
,,"[""comma""]",0,70,0,70,0,1,5fa27915a7a32b44f3b2f44a,21,Mężczyzna,2022-05-28_09h22.34.209,task,2021.1.4,Win32,74.92881762,628b806c463b948bc644b84f,6291cd9856b5067424906485,[0.40040000009531695],,,,,,,,,,,,,,,,,,,,,,,,,,,,,,,,,,,,,,,,,,,,,,,,,,,,,,,,,,,,,,,,,,,,,,,,,,,,,,,,,,,,,,,,,,,,,,,,,,,,,,,
,,"[""comma""]",0,71,0,71,0,1,5fa27915a7a32b44f3b2f44a,21,Mężczyzna,2022-05-28_09h22.34.209,task,2021.1.4,Win32,74.92881762,628b806c463b948bc644b84f,6291cd9856b5067424906485,[0.35059999990460256],,,,,,,,,,,,,,,,,,,,,,,,,,,,,,,,,,,,,,,,,,,,,,,,,,,,,,,,,,,,,,,,,,,,,,,,,,,,,,,,,,,,,,,,,,,,,,,,,,,,,,,
,,"[""comma""]",0,72,0,72,0,1,5fa27915a7a32b44f3b2f44a,21,Mężczyzna,2022-05-28_09h22.34.209,task,2021.1.4,Win32,74.92881762,628b806c463b948bc644b84f,6291cd9856b5067424906485,[0.43810000014303796],,,,,,,,,,,,,,,,,,,,,,,,,,,,,,,,,,,,,,,,,,,,,,,,,,,,,,,,,,,,,,,,,,,,,,,,,,,,,,,,,,,,,,,,,,,,,,,,,,,,,,,
,,"[""comma""]",0,73,0,73,0,1,5fa27915a7a32b44f3b2f44a,21,Mężczyzna,2022-05-28_09h22.34.209,task,2021.1.4,Win32,74.92881762,628b806c463b948bc644b84f,6291cd9856b5067424906485,[0.5629999999999882],,,,,,,,,,,,,,,,,,,,,,,,,,,,,,,,,,,,,,,,,,,,,,,,,,,,,,,,,,,,,,,,,,,,,,,,,,,,,,,,,,,,,,,,,,,,,,,,,,,,,,,
,,"[""comma""]",0,74,0,74,0,1,5fa27915a7a32b44f3b2f44a,21,Mężczyzna,2022-05-28_09h22.34.209,task,2021.1.4,Win32,74.92881762,628b806c463b948bc644b84f,6291cd9856b5067424906485,[0.38579999995232583],,,,,,,,,,,,,,,,,,,,,,,,,,,,,,,,,,,,,,,,,,,,,,,,,,,,,,,,,,,,,,,,,,,,,,,,,,,,,,,,,,,,,,,,,,,,,,,,,,,,,,,
,,"[""period""]",0,75,0,75,0,1,5fa27915a7a32b44f3b2f44a,21,Mężczyzna,2022-05-28_09h22.34.209,task,2021.1.4,Win32,74.92881762,628b806c463b948bc644b84f,6291cd9856b5067424906485,[0.30600000000004],,,,,,,,,,,,,,,,,,,,,,,,,,,,,,,,,,,,,,,,,,,,,,,,,,,,,,,,,,,,,,,,,,,,,,,,,,,,,,,,,,,,,,,,,,,,,,,,,,,,,,,
,,"[""period""]",0,76,0,76,0,1,5fa27915a7a32b44f3b2f44a,21,Mężczyzna,2022-05-28_09h22.34.209,task,2021.1.4,Win32,74.92881762,628b806c463b948bc644b84f,6291cd9856b5067424906485,[0.32879999995230946],,,,,,,,,,,,,,,,,,,,,,,,,,,,,,,,,,,,,,,,,,,,,,,,,,,,,,,,,,,,,,,,,,,,,,,,,,,,,,,,,,,,,,,,,,,,,,,,,,,,,,,
,,"[""comma""]",0,77,0,77,0,1,5fa27915a7a32b44f3b2f44a,21,Mężczyzna,2022-05-28_09h22.34.209,task,2021.1.4,Win32,74.92881762,628b806c463b948bc644b84f,6291cd9856b5067424906485,[0.40840000009535515],,,,,,,,,,,,,,,,,,,,,,,,,,,,,,,,,,,,,,,,,,,,,,,,,,,,,,,,,,,,,,,,,,,,,,,,,,,,,,,,,,,,,,,,,,,,,,,,,,,,,,,
,,"[""period""]",0,78,0,78,0,1,5fa27915a7a32b44f3b2f44a,21,Mężczyzna,2022-05-28_09h22.34.209,task,2021.1.4,Win32,74.92881762,628b806c463b948bc644b84f,6291cd9856b5067424906485,[0.2638999998569034],,,,,,,,,,,,,,,,,,,,,,,,,,,,,,,,,,,,,,,,,,,,,,,,,,,,,,,,,,,,,,,,,,,,,,,,,,,,,,,,,,,,,,,,,,,,,,,,,,,,,,,
,,"[""comma""]",0,79,0,79,0,1,5fa27915a7a32b44f3b2f44a,21,Mężczyzna,2022-05-28_09h22.34.209,task,2021.1.4,Win32,74.92881762,628b806c463b948bc644b84f,6291cd9856b5067424906485,[0.4415000000000191],,,,,,,,,,,,,,,,,,,,,,,,,,,,,,,,,,,,,,,,,,,,,,,,,,,,,,,,,,,,,,,,,,,,,,,,,,,,,,,,,,,,,,,,,,,,,,,,,,,,,,,
,,"[""period""]",0,80,0,80,0,1,5fa27915a7a32b44f3b2f44a,21,Mężczyzna,2022-05-28_09h22.34.209,task,2021.1.4,Win32,74.92881762,628b806c463b948bc644b84f,6291cd9856b5067424906485,[0.33600000000001273],,,,,,,,,,,,,,,,,,,,,,,,,,,,,,,,,,,,,,,,,,,,,,,,,,,,,,,,,,,,,,,,,,,,,,,,,,,,,,,,,,,,,,,,,,,,,,,,,,,,,,,
,,"[""comma""]",0,81,0,81,0,1,5fa27915a7a32b44f3b2f44a,21,Mężczyzna,2022-05-28_09h22.34.209,task,2021.1.4,Win32,74.92881762,628b806c463b948bc644b84f,6291cd9856b5067424906485,[0.4807999999523531],,,,,,,,,,,,,,,,,,,,,,,,,,,,,,,,,,,,,,,,,,,,,,,,,,,,,,,,,,,,,,,,,,,,,,,,,,,,,,,,,,,,,,,,,,,,,,,,,,,,,,,
,,"[""comma""]",0,82,0,82,0,1,5fa27915a7a32b44f3b2f44a,21,Mężczyzna,2022-05-28_09h22.34.209,task,2021.1.4,Win32,74.92881762,628b806c463b948bc644b84f,6291cd9856b5067424906485,[0.6218999998569643],,,,,,,,,,,,,,,,,,,,,,,,,,,,,,,,,,,,,,,,,,,,,,,,,,,,,,,,,,,,,,,,,,,,,,,,,,,,,,,,,,,,,,,,,,,,,,,,,,,,,,,
,,"[""period""]",0,83,0,83,0,1,5fa27915a7a32b44f3b2f44a,21,Mężczyzna,2022-05-28_09h22.34.209,task,2021.1.4,Win32,74.92881762,628b806c463b948bc644b84f,6291cd9856b5067424906485,[0.6692999999523295],,,,,,,,,,,,,,,,,,,,,,,,,,,,,,,,,,,,,,,,,,,,,,,,,,,,,,,,,,,,,,,,,,,,,,,,,,,,,,,,,,,,,,,,,,,,,,,,,,,,,,,
,,"[""comma""]",0,84,0,84,0,1,5fa27915a7a32b44f3b2f44a,21,Mężczyzna,2022-05-28_09h22.34.209,task,2021.1.4,Win32,74.92881762,628b806c463b948bc644b84f,6291cd9856b5067424906485,[0.34129999995235494],,,,,,,,,,,,,,,,,,,,,,,,,,,,,,,,,,,,,,,,,,,,,,,,,,,,,,,,,,,,,,,,,,,,,,,,,,,,,,,,,,,,,,,,,,,,,,,,,,,,,,,
,,"[""comma""]",0,85,0,85,0,1,5fa27915a7a32b44f3b2f44a,21,Mężczyzna,2022-05-28_09h22.34.209,task,2021.1.4,Win32,74.92881762,628b806c463b948bc644b84f,6291cd9856b5067424906485,[0.4847999999523154],,,,,,,,,,,,,,,,,,,,,,,,,,,,,,,,,,,,,,,,,,,,,,,,,,,,,,,,,,,,,,,,,,,,,,,,,,,,,,,,,,,,,,,,,,,,,,,,,,,,,,,
,,"[""comma""]",0,86,0,86,0,1,5fa27915a7a32b44f3b2f44a,21,Mężczyzna,2022-05-28_09h22.34.209,task,2021.1.4,Win32,74.92881762,628b806c463b948bc644b84f,6291cd9856b5067424906485,[0.533099999904664],,,,,,,,,,,,,,,,,,,,,,,,,,,,,,,,,,,,,,,,,,,,,,,,,,,,,,,,,,,,,,,,,,,,,,,,,,,,,,,,,,,,,,,,,,,,,,,,,,,,,,,
,,"[""period""]",0,87,0,87,0,1,5fa27915a7a32b44f3b2f44a,21,Mężczyzna,2022-05-28_09h22.34.209,task,2021.1.4,Win32,74.92881762,628b806c463b948bc644b84f,6291cd9856b5067424906485,[0.267799999952274],,,,,,,,,,,,,,,,,,,,,,,,,,,,,,,,,,,,,,,,,,,,,,,,,,,,,,,,,,,,,,,,,,,,,,,,,,,,,,,,,,,,,,,,,,,,,,,,,,,,,,,
,,"[""period""]",0,88,0,88,0,1,5fa27915a7a32b44f3b2f44a,21,Mężczyzna,2022-05-28_09h22.34.209,task,2021.1.4,Win32,74.92881762,628b806c463b948bc644b84f,6291cd9856b5067424906485,[0.4118000001907376],,,,,,,,,,,,,,,,,,,,,,,,,,,,,,,,,,,,,,,,,,,,,,,,,,,,,,,,,,,,,,,,,,,,,,,,,,,,,,,,,,,,,,,,,,,,,,,,,,,,,,,
,,"[""period""]",0,89,0,89,0,1,5fa27915a7a32b44f3b2f44a,21,Mężczyzna,2022-05-28_09h22.34.209,task,2021.1.4,Win32,74.92881762,628b806c463b948bc644b84f,6291cd9856b5067424906485,[0.4590999999045948],,,,,,,,,,,,,,,,,,,,,,,,,,,,,,,,,,,,,,,,,,,,,,,,,,,,,,,,,,,,,,,,,,,,,,,,,,,,,,,,,,,,,,,,,,,,,,,,,,,,,,,
,,"[""comma""]",0,90,0,90,0,1,5fa27915a7a32b44f3b2f44a,21,Mężczyzna,2022-05-28_09h22.34.209,task,2021.1.4,Win32,74.92881762,628b806c463b948bc644b84f,6291cd9856b5067424906485,[0.41070000004771146],,,,,,,,,,,,,,,,,,,,,,,,,,,,,,,,,,,,,,,,,,,,,,,,,,,,,,,,,,,,,,,,,,,,,,,,,,,,,,,,,,,,,,,,,,,,,,,,,,,,,,,
,,"[""comma""]",0,91,0,91,0,1,5fa27915a7a32b44f3b2f44a,21,Mężczyzna,2022-05-28_09h22.34.209,task,2021.1.4,Win32,74.92881762,628b806c463b948bc644b84f,6291cd9856b5067424906485,[0.287700000047721],,,,,,,,,,,,,,,,,,,,,,,,,,,,,,,,,,,,,,,,,,,,,,,,,,,,,,,,,,,,,,,,,,,,,,,,,,,,,,,,,,,,,,,,,,,,,,,,,,,,,,,
,,"[""comma""]",0,92,0,92,0,1,5fa27915a7a32b44f3b2f44a,21,Mężczyzna,2022-05-28_09h22.34.209,task,2021.1.4,Win32,74.92881762,628b806c463b948bc644b84f,6291cd9856b5067424906485,[0.3033000001907453],,,,,,,,,,,,,,,,,,,,,,,,,,,,,,,,,,,,,,,,,,,,,,,,,,,,,,,,,,,,,,,,,,,,,,,,,,,,,,,,,,,,,,,,,,,,,,,,,,,,,,,
,,"[""period""]",0,93,0,93,0,1,5fa27915a7a32b44f3b2f44a,21,Mężczyzna,2022-05-28_09h22.34.209,task,2021.1.4,Win32,74.92881762,628b806c463b948bc644b84f,6291cd9856b5067424906485,[0.34990000009537425],,,,,,,,,,,,,,,,,,,,,,,,,,,,,,,,,,,,,,,,,,,,,,,,,,,,,,,,,,,,,,,,,,,,,,,,,,,,,,,,,,,,,,,,,,,,,,,,,,,,,,,
,,"[""period""]",0,94,0,94,0,1,5fa27915a7a32b44f3b2f44a,21,Mężczyzna,2022-05-28_09h22.34.209,task,2021.1.4,Win32,74.92881762,628b806c463b948bc644b84f,6291cd9856b5067424906485,[0.2679000000953806],,,,,,,,,,,,,,,,,,,,,,,,,,,,,,,,,,,,,,,,,,,,,,,,,,,,,,,,,,,,,,,,,,,,,,,,,,,,,,,,,,,,,,,,,,,,,,,,,,,,,,,
,,"[""period""]",0,95,0,95,0,1,5fa27915a7a32b44f3b2f44a,21,Mężczyzna,2022-05-28_09h22.34.209,task,2021.1.4,Win32,74.92881762,628b806c463b948bc644b84f,6291cd9856b5067424906485,[0.19599999999996953],,,,,,,,,,,,,,,,,,,,,,,,,,,,,,,,,,,,,,,,,,,,,,,,,,,,,,,,,,,,,,,,,,,,,,,,,,,,,,,,,,,,,,,,,,,,,,,,,,,,,,,
,,"[""comma""]",0,96,0,96,0,1,5fa27915a7a32b44f3b2f44a,21,Mężczyzna,2022-05-28_09h22.34.209,task,2021.1.4,Win32,74.92881762,628b806c463b948bc644b84f,6291cd9856b5067424906485,[0.27639999985694885],,,,,,,,,,,,,,,,,,,,,,,,,,,,,,,,,,,,,,,,,,,,,,,,,,,,,,,,,,,,,,,,,,,,,,,,,,,,,,,,,,,,,,,,,,,,,,,,,,,,,,,
,,"[""period""]",0,97,0,97,0,1,5fa27915a7a32b44f3b2f44a,21,Mężczyzna,2022-05-28_09h22.34.209,task,2021.1.4,Win32,74.92881762,628b806c463b948bc644b84f,6291cd9856b5067424906485,[0.26060000014302886],,,,,,,,,,,,,,,,,,,,,,,,,,,,,,,,,,,,,,,,,,,,,,,,,,,,,,,,,,,,,,,,,,,,,,,,,,,,,,,,,,,,,,,,,,,,,,,,,,,,,,,
,,"[""comma""]",0,98,0,98,0,1,5fa27915a7a32b44f3b2f44a,21,Mężczyzna,2022-05-28_09h22.34.209,task,2021.1.4,Win32,74.92881762,628b806c463b948bc644b84f,6291cd9856b5067424906485,[0.21279999995232401],,,,,,,,,,,,,,,,,,,,,,,,,,,,,,,,,,,,,,,,,,,,,,,,,,,,,,,,,,,,,,,,,,,,,,,,,,,,,,,,,,,,,,,,,,,,,,,,,,,,,,,
,,"[""period""]",0,99,0,99,0,1,5fa27915a7a32b44f3b2f44a,21,Mężczyzna,2022-05-28_09h22.34.209,task,2021.1.4,Win32,74.92881762,628b806c463b948bc644b84f,6291cd9856b5067424906485,[0.23490000009536516],,,,,,,,,,,,,,,,,,,,,,,,,,,,,,,,,,,,,,,,,,,,,,,,,,,,,,,,,,,,,,,,,,,,,,,,,,,,,,,,,,,,,,,,,,,,,,,,,,,,,,,
,,"[""comma""]",0,100,0,100,0,1,5fa27915a7a32b44f3b2f44a,21,Mężczyzna,2022-05-28_09h22.34.209,task,2021.1.4,Win32,74.92881762,628b806c463b948bc644b84f,6291cd9856b5067424906485,[0.3790999999046676],,,,,,,,,,,,,,,,,,,,,,,,,,,,,,,,,,,,,,,,,,,,,,,,,,,,,,,,,,,,,,,,,,,,,,,,,,,,,,,,,,,,,,,,,,,,,,,,,,,,,,,
,,"[""comma""]",0,101,0,101,0,1,5fa27915a7a32b44f3b2f44a,21,Mężczyzna,2022-05-28_09h22.34.209,task,2021.1.4,Win32,74.92881762,628b806c463b948bc644b84f,6291cd9856b5067424906485,[0.45849999999995816],,,,,,,,,,,,,,,,,,,,,,,,,,,,,,,,,,,,,,,,,,,,,,,,,,,,,,,,,,,,,,,,,,,,,,,,,,,,,,,,,,,,,,,,,,,,,,,,,,,,,,,
,,"[""period""]",0,102,0,102,0,1,5fa27915a7a32b44f3b2f44a,21,Mężczyzna,2022-05-28_09h22.34.209,task,2021.1.4,Win32,74.92881762,628b806c463b948bc644b84f,6291cd9856b5067424906485,[0.3221000001430525],,,,,,,,,,,,,,,,,,,,,,,,,,,,,,,,,,,,,,,,,,,,,,,,,,,,,,,,,,,,,,,,,,,,,,,,,,,,,,,,,,,,,,,,,,,,,,,,,,,,,,,
,,"[""period""]",0,103,0,103,0,1,5fa27915a7a32b44f3b2f44a,21,Mężczyzna,2022-05-28_09h22.34.209,task,2021.1.4,Win32,74.92881762,628b806c463b948bc644b84f,6291cd9856b5067424906485,[0.27289999985691793],,,,,,,,,,,,,,,,,,,,,,,,,,,,,,,,,,,,,,,,,,,,,,,,,,,,,,,,,,,,,,,,,,,,,,,,,,,,,,,,,,,,,,,,,,,,,,,,,,,,,,,
,,"[""comma""]",0,104,0,104,0,1,5fa27915a7a32b44f3b2f44a,21,Mężczyzna,2022-05-28_09h22.34.209,task,2021.1.4,Win32,74.92881762,628b806c463b948bc644b84f,6291cd9856b5067424906485,[0.35300000000000864],,,,,,,,,,,,,,,,,,,,,,,,,,,,,,,,,,,,,,,,,,,,,,,,,,,,,,,,,,,,,,,,,,,,,,,,,,,,,,,,,,,,,,,,,,,,,,,,,,,,,,,
,,"[""comma""]",0,105,0,105,0,1,5fa27915a7a32b44f3b2f44a,21,Mężczyzna,2022-05-28_09h22.34.209,task,2021.1.4,Win32,74.92881762,628b806c463b948bc644b84f,6291cd9856b5067424906485,[0.6006000001430039],,,,,,,,,,,,,,,,,,,,,,,,,,,,,,,,,,,,,,,,,,,,,,,,,,,,,,,,,,,,,,,,,,,,,,,,,,,,,,,,,,,,,,,,,,,,,,,,,,,,,,,
,,"[""period""]",0,106,0,106,0,1,5fa27915a7a32b44f3b2f44a,21,Mężczyzna,2022-05-28_09h22.34.209,task,2021.1.4,Win32,74.92881762,628b806c463b948bc644b84f,6291cd9856b5067424906485,[0.35589999985694476],,,,,,,,,,,,,,,,,,,,,,,,,,,,,,,,,,,,,,,,,,,,,,,,,,,,,,,,,,,,,,,,,,,,,,,,,,,,,,,,,,,,,,,,,,,,,,,,,,,,,,,
,,"[""period""]",0,107,0,107,0,1,5fa27915a7a32b44f3b2f44a,21,Mężczyzna,2022-05-28_09h22.34.209,task,2021.1.4,Win32,74.92881762,628b806c463b948bc644b84f,6291cd9856b5067424906485,[0.27880000019075624],,,,,,,,,,,,,,,,,,,,,,,,,,,,,,,,,,,,,,,,,,,,,,,,,,,,,,,,,,,,,,,,,,,,,,,,,,,,,,,,,,,,,,,,,,,,,,,,,,,,,,,
,,"[""comma""]",0,108,0,108,0,1,5fa27915a7a32b44f3b2f44a,21,Mężczyzna,2022-05-28_09h22.34.209,task,2021.1.4,Win32,74.92881762,628b806c463b948bc644b84f,6291cd9856b5067424906485,[0.29440000009537926],,,,,,,,,,,,,,,,,,,,,,,,,,,,,,,,,,,,,,,,,,,,,,,,,,,,,,,,,,,,,,,,,,,,,,,,,,,,,,,,,,,,,,,,,,,,,,,,,,,,,,,
,,"[""period""]",0,109,0,109,0,1,5fa27915a7a32b44f3b2f44a,21,Mężczyzna,2022-05-28_09h22.34.209,task,2021.1.4,Win32,74.92881762,628b806c463b948bc644b84f,6291cd9856b5067424906485,[0.3942999999523522],,,,,,,,,,,,,,,,,,,,,,,,,,,,,,,,,,,,,,,,,,,,,,,,,,,,,,,,,,,,,,,,,,,,,,,,,,,,,,,,,,,,,,,,,,,,,,,,,,,,,,,
,,"[""comma""]",0,110,0,110,0,1,5fa27915a7a32b44f3b2f44a,21,Mężczyzna,2022-05-28_09h22.34.209,task,2021.1.4,Win32,74.92881762,628b806c463b948bc644b84f,6291cd9856b5067424906485,[0.37899999999996226],,,,,,,,,,,,,,,,,,,,,,,,,,,,,,,,,,,,,,,,,,,,,,,,,,,,,,,,,,,,,,,,,,,,,,,,,,,,,,,,,,,,,,,,,,,,,,,,,,,,,,,
,,"[""period""]",0,111,0,111,0,1,5fa27915a7a32b44f3b2f44a,21,Mężczyzna,2022-05-28_09h22.34.209,task,2021.1.4,Win32,74.92881762,628b806c463b948bc644b84f,6291cd9856b5067424906485,[0.26659999990459937],,,,,,,,,,,,,,,,,,,,,,,,,,,,,,,,,,,,,,,,,,,,,,,,,,,,,,,,,,,,,,,,,,,,,,,,,,,,,,,,,,,,,,,,,,,,,,,,,,,,,,,
,,"[""comma""]",0,112,0,112,0,1,5fa27915a7a32b44f3b2f44a,21,Mężczyzna,2022-05-28_09h22.34.209,task,2021.1.4,Win32,74.92881762,628b806c463b948bc644b84f,6291cd9856b5067424906485,[0.28220000004768053],,,,,,,,,,,,,,,,,,,,,,,,,,,,,,,,,,,,,,,,,,,,,,,,,,,,,,,,,,,,,,,,,,,,,,,,,,,,,,,,,,,,,,,,,,,,,,,,,,,,,,,
,,"[""comma""]",0,113,0,113,0,1,5fa27915a7a32b44f3b2f44a,21,Mężczyzna,2022-05-28_09h22.34.209,task,2021.1.4,Win32,74.92881762,628b806c463b948bc644b84f,6291cd9856b5067424906485,[0.3063999998569784],,,,,,,,,,,,,,,,,,,,,,,,,,,,,,,,,,,,,,,,,,,,,,,,,,,,,,,,,,,,,,,,,,,,,,,,,,,,,,,,,,,,,,,,,,,,,,,,,,,,,,,
,,"[""period""]",0,114,0,114,0,1,5fa27915a7a32b44f3b2f44a,21,Mężczyzna,2022-05-28_09h22.34.209,task,2021.1.4,Win32,74.92881762,628b806c463b948bc644b84f,6291cd9856b5067424906485,[0.22609999990459073],,,,,,,,,,,,,,,,,,,,,,,,,,,,,,,,,,,,,,,,,,,,,,,,,,,,,,,,,,,,,,,,,,,,,,,,,,,,,,,,,,,,,,,,,,,,,,,,,,,,,,,
,,"[""period""]",0,115,0,115,0,1,5fa27915a7a32b44f3b2f44a,21,Mężczyzna,2022-05-28_09h22.34.209,task,2021.1.4,Win32,74.92881762,628b806c463b948bc644b84f,6291cd9856b5067424906485,[0.3047999999523654],,,,,,,,,,,,,,,,,,,,,,,,,,,,,,,,,,,,,,,,,,,,,,,,,,,,,,,,,,,,,,,,,,,,,,,,,,,,,,,,,,,,,,,,,,,,,,,,,,,,,,,
,,"[""comma""]",0,116,0,116,0,1,5fa27915a7a32b44f3b2f44a,21,Mężczyzna,2022-05-28_09h22.34.209,task,2021.1.4,Win32,74.92881762,628b806c463b948bc644b84f,6291cd9856b5067424906485,[0.19249999999999545],,,,,,,,,,,,,,,,,,,,,,,,,,,,,,,,,,,,,,,,,,,,,,,,,,,,,,,,,,,,,,,,,,,,,,,,,,,,,,,,,,,,,,,,,,,,,,,,,,,,,,,
,,"[""period""]",0,117,0,117,0,1,5fa27915a7a32b44f3b2f44a,21,Mężczyzna,2022-05-28_09h22.34.209,task,2021.1.4,Win32,74.92881762,628b806c463b948bc644b84f,6291cd9856b5067424906485,[0.23910000014302568],,,,,,,,,,,,,,,,,,,,,,,,,,,,,,,,,,,,,,,,,,,,,,,,,,,,,,,,,,,,,,,,,,,,,,,,,,,,,,,,,,,,,,,,,,,,,,,,,,,,,,,
,,"[""comma""]",0,118,0,118,0,1,5fa27915a7a32b44f3b2f44a,21,Mężczyzna,2022-05-28_09h22.34.209,task,2021.1.4,Win32,74.92881762,628b806c463b948bc644b84f,6291cd9856b5067424906485,[0.2952000000477142],,,,,,,,,,,,,,,,,,,,,,,,,,,,,,,,,,,,,,,,,,,,,,,,,,,,,,,,,,,,,,,,,,,,,,,,,,,,,,,,,,,,,,,,,,,,,,,,,,,,,,,
,,"[""period""]",0,119,0,119,0,1,5fa27915a7a32b44f3b2f44a,21,Mężczyzna,2022-05-28_09h22.34.209,task,2021.1.4,Win32,74.92881762,628b806c463b948bc644b84f,6291cd9856b5067424906485,[0.31039999985694067],,,,,,,,,,,,,,,,,,,,,,,,,,,,,,,,,,,,,,,,,,,,,,,,,,,,,,,,,,,,,,,,,,,,,,,,,,,,,,,,,,,,,,,,,,,,,,,,,,,,,,,
,,,,,,,,,5fa27915a7a32b44f3b2f44a,21,Mężczyzna,2022-05-28_09h22.34.209,task,2021.1.4,Win32,74.92881762,628b806c463b948bc644b84f,6291cd9856b5067424906485,,space,32.181,space,7.1728,0,0,0,0,1,"X V Q F H G B L J M P D K C T S W R N Z
",,,,,,,,,,,,,,,,,,,,,,,,,,,,,,,,,,,,,,,,,,,,,,,,,,,,,,,,,,,,,,,,,,,,,,,,,,,,,,,,,,,,,,,,,,,,,
,,,,,,,,,5fa27915a7a32b44f3b2f44a,21,Mężczyzna,2022-05-28_09h22.34.209,task,2021.1.4,Win32,74.92881762,628b806c463b948bc644b84f,6291cd9856b5067424906485,,,,,,1,0,1,0,1,"X V Q F H G B L J M P D K C T S W R N Z
",,,,,,,,,,,,,,,,,,,,,,,,,,,,,,,,,,,,,,,,,,,,,,,,,,,,,,,,,,,,,,,,,,,,,,,,,,,,,,,,,,,,,,,,,,,,,
,,,,,,,,,5fa27915a7a32b44f3b2f44a,21,Mężczyzna,2022-05-28_09h22.34.209,task,2021.1.4,Win32,74.92881762,628b806c463b948bc644b84f,6291cd9856b5067424906485,,,,,,,,,,,,zj,"[""z"",""j""]","[2.703599999904668,3.216000000000008,4.913000000000011]",1,ZJ,0,0,0,0,1,,,,,,,,,,,,,,,,,,,,,,,,,,,,,,,,,,,,,,,,,,,,,,,,,,,,,,,,,,,,,,,,,,,,,,,,,,,,,,,,,,,
,,,,,,,,,5fa27915a7a32b44f3b2f44a,21,Mężczyzna,2022-05-28_09h22.34.209,task,2021.1.4,Win32,74.92881762,628b806c463b948bc644b84f,6291cd9856b5067424906485,,,,,,0,0,0,0,1,"X V Q F H G B L J M P D K C T S W R N Z
",,,,,,,,,,,,,,,,,,,,,,,,,,,,,,,,,,,,,,,,,,,,,,,,,,,,,,,,,,,,,,,,,,,,,,,,,,,,,,,,,,,,,,,,,,,,,
,,,,,,,,,5fa27915a7a32b44f3b2f44a,21,Mężczyzna,2022-05-28_09h22.34.209,task,2021.1.4,Win32,74.92881762,628b806c463b948bc644b84f,6291cd9856b5067424906485,,,,,,1,0,1,0,1,"X V Q F H G B L J M P D K C T S W R N Z
",,,,,,,,,,,,,,,,,,,,,,,,,,,,,,,,,,,,,,,,,,,,,,,,,,,,,,,,,,,,,,,,,,,,,,,,,,,,,,,,,,,,,,,,,,,,,
,,,,,,,,,5fa27915a7a32b44f3b2f44a,21,Mężczyzna,2022-05-28_09h22.34.209,task,2021.1.4,Win32,74.92881762,628b806c463b948bc644b84f,6291cd9856b5067424906485,,,,,,,,,,,,gc,"[""g"",""c""]","[1.7284999999999968,2.5287000000476496,3.2671000001430457]",1,GC,1,0,1,0,1,,,,,,,,,,,,,,,,,,,,,,,,,,,,,,,,,,,,,,,,,,,,,,,,,,,,,,,,,,,,,,,,,,,,,,,,,,,,,,,,,,,
,,,,,,,,,5fa27915a7a32b44f3b2f44a,21,Mężczyzna,2022-05-28_09h22.34.209,task,2021.1.4,Win32,74.92881762,628b806c463b948bc644b84f,6291cd9856b5067424906485,,,,,,0,0,0,0,1,"X V Q F H G B L J M P D K C T S W R N Z
",,,,,,,,,,,,,,,,,,,,,,,,,,,,,,,,,,,,,,,,,,,,,,,,,,,,,,,,,,,,,,,,,,,,,,,,,,,,,,,,,,,,,,,,,,,,,
,,,,,,,,,5fa27915a7a32b44f3b2f44a,21,Mężczyzna,2022-05-28_09h22.34.209,task,2021.1.4,Win32,74.92881762,628b806c463b948bc644b84f,6291cd9856b5067424906485,,,,,,1,0,1,0,1,"X V Q F H G B L J M P D K C T S W R N Z
",,,,,,,,,,,,,,,,,,,,,,,,,,,,,,,,,,,,,,,,,,,,,,,,,,,,,,,,,,,,,,,,,,,,,,,,,,,,,,,,,,,,,,,,,,,,,
,,,,,,,,,5fa27915a7a32b44f3b2f44a,21,Mężczyzna,2022-05-28_09h22.34.209,task,2021.1.4,Win32,74.92881762,628b806c463b948bc644b84f,6291cd9856b5067424906485,,,,,,2,0,2,0,1,"X V Q F H G B L J M P D K C T S W R N Z
",,,,,,,,,,,,,,,,,,,,,,,,,,,,,,,,,,,,,,,,,,,,,,,,,,,,,,,,,,,,,,,,,,,,,,,,,,,,,,,,,,,,,,,,,,,,,
,,,,,,,,,5fa27915a7a32b44f3b2f44a,21,Mężczyzna,2022-05-28_09h22.34.209,task,2021.1.4,Win32,74.92881762,628b806c463b948bc644b84f,6291cd9856b5067424906485,,,,,,,,,,,,wvj,"[""w"",""v"",""j""]","[1.4138999998569375,2.253399999856981,2.7334999999999923,3.981599999904631]",1,WVJ,2,0,2,0,1,,,,,,,,,,,,,,,,,,,,,,,,,,,,,,,,,,,,,,,,,,,,,,,,,,,,,,,,,,,,,,,,,,,,,,,,,,,,,,,,,,,
,,,,,,,,,5fa27915a7a32b44f3b2f44a,21,Mężczyzna,2022-05-28_09h22.34.209,task,2021.1.4,Win32,74.92881762,628b806c463b948bc644b84f,6291cd9856b5067424906485,,,,,,0,0,0,0,1,"X V Q F H G B L J M P D K C T S W R N Z
",,,,,,,,,,,,,,,,,,,,,,,,,,,,,,,,,,,,,,,,,,,,,,,,,,,,,,,,,,,,,,,,,,,,,,,,,,,,,,,,,,,,,,,,,,,,,
,,,,,,,,,5fa27915a7a32b44f3b2f44a,21,Mężczyzna,2022-05-28_09h22.34.209,task,2021.1.4,Win32,74.92881762,628b806c463b948bc644b84f,6291cd9856b5067424906485,,,,,,1,0,1,0,1,"X V Q F H G B L J M P D K C T S W R N Z
",,,,,,,,,,,,,,,,,,,,,,,,,,,,,,,,,,,,,,,,,,,,,,,,,,,,,,,,,,,,,,,,,,,,,,,,,,,,,,,,,,,,,,,,,,,,,
,,,,,,,,,5fa27915a7a32b44f3b2f44a,21,Mężczyzna,2022-05-28_09h22.34.209,task,2021.1.4,Win32,74.92881762,628b806c463b948bc644b84f,6291cd9856b5067424906485,,,,,,2,0,2,0,1,"X V Q F H G B L J M P D K C T S W R N Z
",,,,,,,,,,,,,,,,,,,,,,,,,,,,,,,,,,,,,,,,,,,,,,,,,,,,,,,,,,,,,,,,,,,,,,,,,,,,,,,,,,,,,,,,,,,,,
,,,,,,,,,5fa27915a7a32b44f3b2f44a,21,Mężczyzna,2022-05-28_09h22.34.209,task,2021.1.4,Win32,74.92881762,628b806c463b948bc644b84f,6291cd9856b5067424906485,,,,,,,,,,,,sfk,"[""s"",""f"",""k""]","[1.3939000000954138,2.170000000000016,2.77800000000002,3.5463000001907403]",1,SFK,3,0,3,0,1,,,,,,,,,,,,,,,,,,,,,,,,,,,,,,,,,,,,,,,,,,,,,,,,,,,,,,,,,,,,,,,,,,,,,,,,,,,,,,,,,,,
,,,,,,,,,5fa27915a7a32b44f3b2f44a,21,Mężczyzna,2022-05-28_09h22.34.209,task,2021.1.4,Win32,74.92881762,628b806c463b948bc644b84f,6291cd9856b5067424906485,,,,,,0,0,0,0,1,"X V Q F H G B L J M P D K C T S W R N Z
",,,,,,,,,,,,,,,,,,,,,,,,,,,,,,,,,,,,,,,,,,,,,,,,,,,,,,,,,,,,,,,,,,,,,,,,,,,,,,,,,,,,,,,,,,,,,
,,,,,,,,,5fa27915a7a32b44f3b2f44a,21,Mężczyzna,2022-05-28_09h22.34.209,task,2021.1.4,Win32,74.92881762,628b806c463b948bc644b84f,6291cd9856b5067424906485,,,,,,1,0,1,0,1,"X V Q F H G B L J M P D K C T S W R N Z
",,,,,,,,,,,,,,,,,,,,,,,,,,,,,,,,,,,,,,,,,,,,,,,,,,,,,,,,,,,,,,,,,,,,,,,,,,,,,,,,,,,,,,,,,,,,,
,,,,,,,,,5fa27915a7a32b44f3b2f44a,21,Mężczyzna,2022-05-28_09h22.34.209,task,2021.1.4,Win32,74.92881762,628b806c463b948bc644b84f,6291cd9856b5067424906485,,,,,,2,0,2,0,1,"X V Q F H G B L J M P D K C T S W R N Z
",,,,,,,,,,,,,,,,,,,,,,,,,,,,,,,,,,,,,,,,,,,,,,,,,,,,,,,,,,,,,,,,,,,,,,,,,,,,,,,,,,,,,,,,,,,,,
,,,,,,,,,5fa27915a7a32b44f3b2f44a,21,Mężczyzna,2022-05-28_09h22.34.209,task,2021.1.4,Win32,74.92881762,628b806c463b948bc644b84f,6291cd9856b5067424906485,,,,,,3,0,3,0,1,"X V Q F H G B L J M P D K C T S W R N Z
",,,,,,,,,,,,,,,,,,,,,,,,,,,,,,,,,,,,,,,,,,,,,,,,,,,,,,,,,,,,,,,,,,,,,,,,,,,,,,,,,,,,,,,,,,,,,
,,,,,,,,,5fa27915a7a32b44f3b2f44a,21,Mężczyzna,2022-05-28_09h22.34.209,task,2021.1.4,Win32,74.92881762,628b806c463b948bc644b84f,6291cd9856b5067424906485,,,,,,,,,,,,ljbp,"[""l"",""j"",""b"",""p""]","[1.5377999999523695,2.177799999952356,2.7859000000954097,3.585700000047723,5.218400000095414]",1,LJBP,4,0,4,0,1,,,,,,,,,,,,,,,,,,,,,,,,,,,,,,,,,,,,,,,,,,,,,,,,,,,,,,,,,,,,,,,,,,,,,,,,,,,,,,,,,,,
,,,,,,,,,5fa27915a7a32b44f3b2f44a,21,Mężczyzna,2022-05-28_09h22.34.209,task,2021.1.4,Win32,74.92881762,628b806c463b948bc644b84f,6291cd9856b5067424906485,,,,,,0,0,0,0,1,"X V Q F H G B L J M P D K C T S W R N Z
",,,,,,,,,,,,,,,,,,,,,,,,,,,,,,,,,,,,,,,,,,,,,,,,,,,,,,,,,,,,,,,,,,,,,,,,,,,,,,,,,,,,,,,,,,,,,
,,,,,,,,,5fa27915a7a32b44f3b2f44a,21,Mężczyzna,2022-05-28_09h22.34.209,task,2021.1.4,Win32,74.92881762,628b806c463b948bc644b84f,6291cd9856b5067424906485,,,,,,1,0,1,0,1,"X V Q F H G B L J M P D K C T S W R N Z
",,,,,,,,,,,,,,,,,,,,,,,,,,,,,,,,,,,,,,,,,,,,,,,,,,,,,,,,,,,,,,,,,,,,,,,,,,,,,,,,,,,,,,,,,,,,,
,,,,,,,,,5fa27915a7a32b44f3b2f44a,21,Mężczyzna,2022-05-28_09h22.34.209,task,2021.1.4,Win32,74.92881762,628b806c463b948bc644b84f,6291cd9856b5067424906485,,,,,,2,0,2,0,1,"X V Q F H G B L J M P D K C T S W R N Z
",,,,,,,,,,,,,,,,,,,,,,,,,,,,,,,,,,,,,,,,,,,,,,,,,,,,,,,,,,,,,,,,,,,,,,,,,,,,,,,,,,,,,,,,,,,,,
,,,,,,,,,5fa27915a7a32b44f3b2f44a,21,Mężczyzna,2022-05-28_09h22.34.209,task,2021.1.4,Win32,74.92881762,628b806c463b948bc644b84f,6291cd9856b5067424906485,,,,,,3,0,3,0,1,"X V Q F H G B L J M P D K C T S W R N Z
",,,,,,,,,,,,,,,,,,,,,,,,,,,,,,,,,,,,,,,,,,,,,,,,,,,,,,,,,,,,,,,,,,,,,,,,,,,,,,,,,,,,,,,,,,,,,
,,,,,,,,,5fa27915a7a32b44f3b2f44a,21,Mężczyzna,2022-05-28_09h22.34.209,task,2021.1.4,Win32,74.92881762,628b806c463b948bc644b84f,6291cd9856b5067424906485,,,,,,,,,,,,scbm,"[""s"",""c"",""b"",""m""]","[1.4796000001430798,1.8653000001907571,2.2154000000953715,2.6954999999999814,4.2316000001430325]",1,SCBM,5,0,5,0,1,,,,,,,,,,,,,,,,,,,,,,,,,,,,,,,,,,,,,,,,,,,,,,,,,,,,,,,,,,,,,,,,,,,,,,,,,,,,,,,,,,,
,,,,,,,,,5fa27915a7a32b44f3b2f44a,21,Mężczyzna,2022-05-28_09h22.34.209,task,2021.1.4,Win32,74.92881762,628b806c463b948bc644b84f,6291cd9856b5067424906485,,,,,,0,0,0,0,1,"X V Q F H G B L J M P D K C T S W R N Z
",,,,,,,,,,,,,,,,,,,,,,,,,,,,,,,,,,,,,,,,,,,,,,,,,,,,,,,,,,,,,,,,,,,,,,,,,,,,,,,,,,,,,,,,,,,,,
,,,,,,,,,5fa27915a7a32b44f3b2f44a,21,Mężczyzna,2022-05-28_09h22.34.209,task,2021.1.4,Win32,74.92881762,628b806c463b948bc644b84f,6291cd9856b5067424906485,,,,,,1,0,1,0,1,"X V Q F H G B L J M P D K C T S W R N Z
",,,,,,,,,,,,,,,,,,,,,,,,,,,,,,,,,,,,,,,,,,,,,,,,,,,,,,,,,,,,,,,,,,,,,,,,,,,,,,,,,,,,,,,,,,,,,
,,,,,,,,,5fa27915a7a32b44f3b2f44a,21,Mężczyzna,2022-05-28_09h22.34.209,task,2021.1.4,Win32,74.92881762,628b806c463b948bc644b84f,6291cd9856b5067424906485,,,,,,2,0,2,0,1,"X V Q F H G B L J M P D K C T S W R N Z
",,,,,,,,,,,,,,,,,,,,,,,,,,,,,,,,,,,,,,,,,,,,,,,,,,,,,,,,,,,,,,,,,,,,,,,,,,,,,,,,,,,,,,,,,,,,,
,,,,,,,,,5fa27915a7a32b44f3b2f44a,21,Mężczyzna,2022-05-28_09h22.34.209,task,2021.1.4,Win32,74.92881762,628b806c463b948bc644b84f,6291cd9856b5067424906485,,,,,,3,0,3,0,1,"X V Q F H G B L J M P D K C T S W R N Z
",,,,,,,,,,,,,,,,,,,,,,,,,,,,,,,,,,,,,,,,,,,,,,,,,,,,,,,,,,,,,,,,,,,,,,,,,,,,,,,,,,,,,,,,,,,,,
,,,,,,,,,5fa27915a7a32b44f3b2f44a,21,Mężczyzna,2022-05-28_09h22.34.209,task,2021.1.4,Win32,74.92881762,628b806c463b948bc644b84f,6291cd9856b5067424906485,,,,,,4,0,4,0,1,"X V Q F H G B L J M P D K C T S W R N Z
",,,,,,,,,,,,,,,,,,,,,,,,,,,,,,,,,,,,,,,,,,,,,,,,,,,,,,,,,,,,,,,,,,,,,,,,,,,,,,,,,,,,,,,,,,,,,
,,,,,,,,,5fa27915a7a32b44f3b2f44a,21,Mężczyzna,2022-05-28_09h22.34.209,task,2021.1.4,Win32,74.92881762,628b806c463b948bc644b84f,6291cd9856b5067424906485,,,,,,,,,,,,blmkm,"[""b"",""l"",""m"",""k"",""m""]","[1.055200000047705,1.5985999999046498,2.8147999999523563,3.1349000000953993,3.390900000095371,4.479000000000042]",1,BLMKM,6,0,6,0,1,,,,,,,,,,,,,,,,,,,,,,,,,,,,,,,,,,,,,,,,,,,,,,,,,,,,,,,,,,,,,,,,,,,,,,,,,,,,,,,,,,,
,,,,,,,,,5fa27915a7a32b44f3b2f44a,21,Mężczyzna,2022-05-28_09h22.34.209,task,2021.1.4,Win32,74.92881762,628b806c463b948bc644b84f,6291cd9856b5067424906485,,,,,,0,0,0,0,1,"X V Q F H G B L J M P D K C T S W R N Z
",,,,,,,,,,,,,,,,,,,,,,,,,,,,,,,,,,,,,,,,,,,,,,,,,,,,,,,,,,,,,,,,,,,,,,,,,,,,,,,,,,,,,,,,,,,,,
,,,,,,,,,5fa27915a7a32b44f3b2f44a,21,Mężczyzna,2022-05-28_09h22.34.209,task,2021.1.4,Win32,74.92881762,628b806c463b948bc644b84f,6291cd9856b5067424906485,,,,,,1,0,1,0,1,"X V Q F H G B L J M P D K C T S W R N Z
",,,,,,,,,,,,,,,,,,,,,,,,,,,,,,,,,,,,,,,,,,,,,,,,,,,,,,,,,,,,,,,,,,,,,,,,,,,,,,,,,,,,,,,,,,,,,
,,,,,,,,,5fa27915a7a32b44f3b2f44a,21,Mężczyzna,2022-05-28_09h22.34.209,task,2021.1.4,Win32,74.92881762,628b806c463b948bc644b84f,6291cd9856b5067424906485,,,,,,2,0,2,0,1,"X V Q F H G B L J M P D K C T S W R N Z
",,,,,,,,,,,,,,,,,,,,,,,,,,,,,,,,,,,,,,,,,,,,,,,,,,,,,,,,,,,,,,,,,,,,,,,,,,,,,,,,,,,,,,,,,,,,,
,,,,,,,,,5fa27915a7a32b44f3b2f44a,21,Mężczyzna,2022-05-28_09h22.34.209,task,2021.1.4,Win32,74.92881762,628b806c463b948bc644b84f,6291cd9856b5067424906485,,,,,,3,0,3,0,1,"X V Q F H G B L J M P D K C T S W R N Z
",,,,,,,,,,,,,,,,,,,,,,,,,,,,,,,,,,,,,,,,,,,,,,,,,,,,,,,,,,,,,,,,,,,,,,,,,,,,,,,,,,,,,,,,,,,,,
,,,,,,,,,5fa27915a7a32b44f3b2f44a,21,Mężczyzna,2022-05-28_09h22.34.209,task,2021.1.4,Win32,74.92881762,628b806c463b948bc644b84f,6291cd9856b5067424906485,,,,,,4,0,4,0,1,"X V Q F H G B L J M P D K C T S W R N Z
",,,,,,,,,,,,,,,,,,,,,,,,,,,,,,,,,,,,,,,,,,,,,,,,,,,,,,,,,,,,,,,,,,,,,,,,,,,,,,,,,,,,,,,,,,,,,
,,,,,,,,,5fa27915a7a32b44f3b2f44a,21,Mężczyzna,2022-05-28_09h22.34.209,task,2021.1.4,Win32,74.92881762,628b806c463b948bc644b84f,6291cd9856b5067424906485,,,,,,,,,,,,bmlxl,"[""b"",""m"",""l"",""x"",""l""]","[2.3572999999523176,2.8372000000476874,3.4450999999046417,4.349099999904638,5.533099999904607,6.109299999952327]",0,MLXLP,7,0,7,0,1,,,,,,,,,,,,,,,,,,,,,,,,,,,,,,,,,,,,,,,,,,,,,,,,,,,,,,,,,,,,,,,,,,,,,,,,,,,,,,,,,,,
,,,,,,,,,5fa27915a7a32b44f3b2f44a,21,Mężczyzna,2022-05-28_09h22.34.209,task,2021.1.4,Win32,74.92881762,628b806c463b948bc644b84f,6291cd9856b5067424906485,,,,,,0,0,0,0,1,"X V Q F H G B L J M P D K C T S W R N Z
",,,,,,,,,,,,,,,,,,,,,,,,,,,,,,,,,,,,,,,,,,,,,,,,,,,,,,,,,,,,,,,,,,,,,,,,,,,,,,,,,,,,,,,,,,,,,
,,,,,,,,,5fa27915a7a32b44f3b2f44a,21,Mężczyzna,2022-05-28_09h22.34.209,task,2021.1.4,Win32,74.92881762,628b806c463b948bc644b84f,6291cd9856b5067424906485,,,,,,1,0,1,0,1,"X V Q F H G B L J M P D K C T S W R N Z
",,,,,,,,,,,,,,,,,,,,,,,,,,,,,,,,,,,,,,,,,,,,,,,,,,,,,,,,,,,,,,,,,,,,,,,,,,,,,,,,,,,,,,,,,,,,,
,,,,,,,,,5fa27915a7a32b44f3b2f44a,21,Mężczyzna,2022-05-28_09h22.34.209,task,2021.1.4,Win32,74.92881762,628b806c463b948bc644b84f,6291cd9856b5067424906485,,,,,,2,0,2,0,1,"X V Q F H G B L J M P D K C T S W R N Z
",,,,,,,,,,,,,,,,,,,,,,,,,,,,,,,,,,,,,,,,,,,,,,,,,,,,,,,,,,,,,,,,,,,,,,,,,,,,,,,,,,,,,,,,,,,,,
,,,,,,,,,5fa27915a7a32b44f3b2f44a,21,Mężczyzna,2022-05-28_09h22.34.209,task,2021.1.4,Win32,74.92881762,628b806c463b948bc644b84f,6291cd9856b5067424906485,,,,,,3,0,3,0,1,"X V Q F H G B L J M P D K C T S W R N Z
",,,,,,,,,,,,,,,,,,,,,,,,,,,,,,,,,,,,,,,,,,,,,,,,,,,,,,,,,,,,,,,,,,,,,,,,,,,,,,,,,,,,,,,,,,,,,
,,,,,,,,,5fa27915a7a32b44f3b2f44a,21,Mężczyzna,2022-05-28_09h22.34.209,task,2021.1.4,Win32,74.92881762,628b806c463b948bc644b84f,6291cd9856b5067424906485,,,,,,4,0,4,0,1,"X V Q F H G B L J M P D K C T S W R N Z
",,,,,,,,,,,,,,,,,,,,,,,,,,,,,,,,,,,,,,,,,,,,,,,,,,,,,,,,,,,,,,,,,,,,,,,,,,,,,,,,,,,,,,,,,,,,,
,,,,,,,,,5fa27915a7a32b44f3b2f44a,21,Mężczyzna,2022-05-28_09h22.34.209,task,2021.1.4,Win32,74.92881762,628b806c463b948bc644b84f,6291cd9856b5067424906485,,,,,,,,,,,,fpwrf,"[""f"",""p"",""w"",""r"",""f""]","[1.594299999952284,2.234099999904629,3.4824000000953674,5.0267999999522885,13.611700000047676,15.339799999952277]",0,FPBWR,8,0,8,0,1,,,,,,,,,,,,,,,,,,,,,,,,,,,,,,,,,,,,,,,,,,,,,,,,,,,,,,,,,,,,,,,,,,,,,,,,,,,,,,,,,,,
,,,,,,,,,5fa27915a7a32b44f3b2f44a,21,Mężczyzna,2022-05-28_09h22.34.209,task,2021.1.4,Win32,74.92881762,628b806c463b948bc644b84f,6291cd9856b5067424906485,,,,,,0,0,0,0,1,"X V Q F H G B L J M P D K C T S W R N Z
",,,,,,,,,,,,,,,,,,,,,,,,,,,,,,,,,,,,,,,,,,,,,,,,,,,,,,,,,,,,,,,,,,,,,,,,,,,,,,,,,,,,,,,,,,,,,
,,,,,,,,,5fa27915a7a32b44f3b2f44a,21,Mężczyzna,2022-05-28_09h22.34.209,task,2021.1.4,Win32,74.92881762,628b806c463b948bc644b84f,6291cd9856b5067424906485,,,,,,1,0,1,0,1,"X V Q F H G B L J M P D K C T S W R N Z
",,,,,,,,,,,,,,,,,,,,,,,,,,,,,,,,,,,,,,,,,,,,,,,,,,,,,,,,,,,,,,,,,,,,,,,,,,,,,,,,,,,,,,,,,,,,,
,,,,,,,,,5fa27915a7a32b44f3b2f44a,21,Mężczyzna,2022-05-28_09h22.34.209,task,2021.1.4,Win32,74.92881762,628b806c463b948bc644b84f,6291cd9856b5067424906485,,,,,,2,0,2,0,1,"X V Q F H G B L J M P D K C T S W R N Z
",,,,,,,,,,,,,,,,,,,,,,,,,,,,,,,,,,,,,,,,,,,,,,,,,,,,,,,,,,,,,,,,,,,,,,,,,,,,,,,,,,,,,,,,,,,,,
,,,,,,,,,5fa27915a7a32b44f3b2f44a,21,Mężczyzna,2022-05-28_09h22.34.209,task,2021.1.4,Win32,74.92881762,628b806c463b948bc644b84f,6291cd9856b5067424906485,,,,,,3,0,3,0,1,"X V Q F H G B L J M P D K C T S W R N Z
",,,,,,,,,,,,,,,,,,,,,,,,,,,,,,,,,,,,,,,,,,,,,,,,,,,,,,,,,,,,,,,,,,,,,,,,,,,,,,,,,,,,,,,,,,,,,
,,,,,,,,,5fa27915a7a32b44f3b2f44a,21,Mężczyzna,2022-05-28_09h22.34.209,task,2021.1.4,Win32,74.92881762,628b806c463b948bc644b84f,6291cd9856b5067424906485,,,,,,4,0,4,0,1,"X V Q F H G B L J M P D K C T S W R N Z
",,,,,,,,,,,,,,,,,,,,,,,,,,,,,,,,,,,,,,,,,,,,,,,,,,,,,,,,,,,,,,,,,,,,,,,,,,,,,,,,,,,,,,,,,,,,,
,,,,,,,,,5fa27915a7a32b44f3b2f44a,21,Mężczyzna,2022-05-28_09h22.34.209,task,2021.1.4,Win32,74.92881762,628b806c463b948bc644b84f,6291cd9856b5067424906485,,,,,,,,,,,,dtfwl,"[""d"",""t"",""f"",""w"",""l""]","[24.62400000000008,25.135700000047734,28.82410000014312,32.18440000009542,34.17679999995238,34.78520000004772]",0,PTNVW,9,0,9,0,1,,,,,,,,,,,,,,,,,,,,,,,,,,,,,,,,,,,,,,,,,,,,,,,,,,,,,,,,,,,,,,,,,,,,,,,,,,,,,,,,,,,
,,,,,,,,,5fa27915a7a32b44f3b2f44a,21,Mężczyzna,2022-05-28_09h22.34.209,task,2021.1.4,Win32,74.92881762,628b806c463b948bc644b84f,6291cd9856b5067424906485,,,,,,,,,,,,,,,,,,,,,,space,8.2925,0,"[""0""]",1,[11.40709999990463],[11.40709999990463],0,0,0,0,1,Practice,1,(3x3) -  9,0,,,,,,,,,,,,,,,,,,,,,,,,,,,,,,,,,,,,,,,,,,,,,,,,,,,,,,,,,,,,,,,,,,,
,,,,,,,,,5fa27915a7a32b44f3b2f44a,21,Mężczyzna,2022-05-28_09h22.34.209,task,2021.1.4,Win32,74.92881762,628b806c463b948bc644b84f,6291cd9856b5067424906485,,,,,,,,,,,,,,,,,,,,,,,,3,"[""3""]",1,[3.275799999952369],"[11.40709999990463,3.275799999952369]",0,1,1,3,1,Practice,4,(8/4) + 1,3,,,,,,,,,,,,,,,,,,,,,,,,,,,,,,,,,,,,,,,,,,,,,,,,,,,,,,,,,,,,,,,,,,,
,,,,,,,,,5fa27915a7a32b44f3b2f44a,21,Mężczyzna,2022-05-28_09h22.34.209,task,2021.1.4,Win32,74.92881762,628b806c463b948bc644b84f,6291cd9856b5067424906485,,,,,,,,,,,,,,,,,,,,,,,,9,"[""9""]",1,[3.251700000047663],"[11.40709999990463,3.275799999952369,3.251700000047663]",0,2,2,9,1,Practice,10,(20/2) - 1,9,,,,,,,,,,,,,,,,,,,,,,,,,,,,,,,,,,,,,,,,,,,,,,,,,,,,,,,,,,,,,,,,,,,
,,,,,,,,,5fa27915a7a32b44f3b2f44a,21,Mężczyzna,2022-05-28_09h22.34.209,task,2021.1.4,Win32,74.92881762,628b806c463b948bc644b84f,6291cd9856b5067424906485,,,,,,,,,,,,,,,,,,,,,,,,8,"[""8""]",1,[2.509199999809198],"[11.40709999990463,3.275799999952369,3.251700000047663,2.509199999809198]",0,3,3,8,1,Practice,9,(3x3) - 1,8,,,,,,,,,,,,,,,,,,,,,,,,,,,,,,,,,,,,,,,,,,,,,,,,,,,,,,,,,,,,,,,,,,,
,,,,,,,,,5fa27915a7a32b44f3b2f44a,21,Mężczyzna,2022-05-28_09h22.34.209,task,2021.1.4,Win32,74.92881762,628b806c463b948bc644b84f,6291cd9856b5067424906485,,,,,,,,,,,,,,,,,,,,,,,,1,"[""1""]",1,[2.4759000000952938],"[11.40709999990463,3.275799999952369,3.251700000047663,2.509199999809198,2.4759000000952938]",0,4,4,1,1,Practice,2,(4x4) - 15,1,,,,,,,,,,,,,,,,,,,,,,,,,,,,,,,,,,,,,,,,,,,,,,,,,,,,,,,,,,,,,,,,,,,
,,,,,,,,,5fa27915a7a32b44f3b2f44a,21,Mężczyzna,2022-05-28_09h22.34.209,task,2021.1.4,Win32,74.92881762,628b806c463b948bc644b84f,6291cd9856b5067424906485,,,,,,,,,,,,,,,,,,,,,,,,5,"[""5""]",1,[3.147200000047633],"[11.40709999990463,3.275799999952369,3.251700000047663,2.509199999809198,2.4759000000952938,3.147200000047633]",0,5,5,5,1,Practice,6,(4/2) + 3,5,,,,,,,,,,,,,,,,,,,,,,,,,,,,,,,,,,,,,,,,,,,,,,,,,,,,,,,,,,,,,,,,,,,
,,,,,,,,,5fa27915a7a32b44f3b2f44a,21,Mężczyzna,2022-05-28_09h22.34.209,task,2021.1.4,Win32,74.92881762,628b806c463b948bc644b84f,6291cd9856b5067424906485,,,,,,,,,,,,,,,,,,,,,,,,2,"[""2""]",1,[1.6972999999522926],"[11.40709999990463,3.275799999952369,3.251700000047663,2.509199999809198,2.4759000000952938,3.147200000047633,1.6972999999522926]",0,6,6,2,1,Practice,3,(4x4) - 14,2,,,,,,,,,,,,,,,,,,,,,,,,,,,,,,,,,,,,,,,,,,,,,,,,,,,,,,,,,,,,,,,,,,,
,,,,,,,,,5fa27915a7a32b44f3b2f44a,21,Mężczyzna,2022-05-28_09h22.34.209,task,2021.1.4,Win32,74.92881762,628b806c463b948bc644b84f,6291cd9856b5067424906485,,,,,,,,,,,,,,,,,,,,,,,,4,"[""4""]",1,[3.1465999999046517],"[11.40709999990463,3.275799999952369,3.251700000047663,2.509199999809198,2.4759000000952938,3.147200000047633,1.6972999999522926,3.1465999999046517]",0,7,7,4,1,Practice,5,(2x6) - 8,4,,,,,,,,,,,,,,,,,,,,,,,,,,,,,,,,,,,,,,,,,,,,,,,,,,,,,,,,,,,,,,,,,,,
,,,,,,,,,5fa27915a7a32b44f3b2f44a,21,Mężczyzna,2022-05-28_09h22.34.209,task,2021.1.4,Win32,74.92881762,628b806c463b948bc644b84f,6291cd9856b5067424906485,,,,,,,,,,,,,,,,,,,,,,,,7,"[""7""]",1,[5.602499999999964],"[11.40709999990463,3.275799999952369,3.251700000047663,2.509199999809198,2.4759000000952938,3.147200000047633,1.6972999999522926,3.1465999999046517,5.602499999999964]",0,8,8,7,1,Practice,8,(5x5) - 18,7,,,,,,,,,,,,,,,,,,,,,,,,,,,,,,,,,,,,,,,,,,,,,,,,,,,,,,,,,,,,,,,,,,,
,,,,,,,,,5fa27915a7a32b44f3b2f44a,21,Mężczyzna,2022-05-28_09h22.34.209,task,2021.1.4,Win32,74.92881762,628b806c463b948bc644b84f,6291cd9856b5067424906485,,,,,,,,,,,,,,,,,,,,,,,,6,"[""6""]",1,[2.2819000000954475],"[11.40709999990463,3.275799999952369,3.251700000047663,2.509199999809198,2.4759000000952938,3.147200000047633,1.6972999999522926,3.1465999999046517,5.602499999999964,2.2819000000954475]",0,9,9,6,1,Practice,7,(25/5) + 1,6,,,,,,,,,,,,,,,,,,,,,,,,,,,,,,,,,,,,,,,,,,,,,,,,,,,,,,,,,,,,,,,,,,,
,,,,,,,,,5fa27915a7a32b44f3b2f44a,21,Mężczyzna,2022-05-28_09h22.34.209,task,2021.1.4,Win32,74.92881762,628b806c463b948bc644b84f,6291cd9856b5067424906485,,,,,,,,,,,,,,,,,,,,,,,,,,,,,,,,,,,,,,1,38.7952,2.586346667,89.35059334,2.440636438,8.883188677,space,3.9439,0,0,0,0,1,,,,,,,,,,,,,,,,,,,,,,,,,,,,,,,,,,,,,,,,,,,,,,,,,,,,,,
,,,,,,,,,5fa27915a7a32b44f3b2f44a,21,Mężczyzna,2022-05-28_09h22.34.209,task,2021.1.4,Win32,74.92881762,628b806c463b948bc644b84f,6291cd9856b5067424906485,,,,,,,,,,,,,,,,,,,,,,,,1,,,,,,,,,,Practice,2,(4x4) - 15,1,,,,,,,,,,,,,,space,21.0123,"[""1""]",1,[3.3585999999046408],1,0,0,0,1,1,,,,,,,,,,,,,,,,,,,,,,,,,,,,,,,,,,,,,,,,,,,
,,,,,,,,,5fa27915a7a32b44f3b2f44a,21,Mężczyzna,2022-05-28_09h22.34.209,task,2021.1.4,Win32,74.92881762,628b806c463b948bc644b84f,6291cd9856b5067424906485,,,,,,,,,,,"X V Q F H G B L J M P D K C T S W R N Z
",,,,,,,,,,,,,,,,,,,,,,,,,,,,,,,,,,,,,,,,,,,,,,,,,,,0,0,0,0,1,,,,,,,,,,,,,,,,,,,,,,,,,,,,,,,,,,,,,,
,,,,,,,,,5fa27915a7a32b44f3b2f44a,21,Mężczyzna,2022-05-28_09h22.34.209,task,2021.1.4,Win32,74.92881762,628b806c463b948bc644b84f,6291cd9856b5067424906485,,,,,,,,,,,,,,,,,,,,,,,,7,,,,,,,,,,Practice,8,(5x5) - 18,7,,,,,,,,,,,,,,,,"[""7""]",1,[3.705299999952217],1,0,0,0,7,1,,,,,,,,,,,,,,,,,,,,,,,,,,,,,,,,,,,,,,,,,,,
,,,,,,,,,5fa27915a7a32b44f3b2f44a,21,Mężczyzna,2022-05-28_09h22.34.209,task,2021.1.4,Win32,74.92881762,628b806c463b948bc644b84f,6291cd9856b5067424906485,,,,,,,,,,,"X V Q F H G B L J M P D K C T S W R N Z
",,,,,,,,,,,,,,,,,,,,,,,,,,,,,,,,,,,,,,,,,,,,,,,,,,,1,0,1,0,1,,,,,,,,,,,,,,,,,,,,,,,,,,,,,,,,,,,,,,
,,,,,,,,,5fa27915a7a32b44f3b2f44a,21,Mężczyzna,2022-05-28_09h22.34.209,task,2021.1.4,Win32,74.92881762,628b806c463b948bc644b84f,6291cd9856b5067424906485,,,,,,,,,,,,,,,,,,,,,,,,,,,,,,,,,,,,,,,,,,,,,,,,,,,,,,,,,,,,,,,,,,,zs,"[""z"",""s""]",0,"[2.499200000047722,2.723100000143063,3.5552999999523536]",1,0,0,0,0,1,,,,,,,,,,,,,,,,,,,,,,,,,,,,
,,,,,,,,,5fa27915a7a32b44f3b2f44a,21,Mężczyzna,2022-05-28_09h22.34.209,task,2021.1.4,Win32,74.92881762,628b806c463b948bc644b84f,6291cd9856b5067424906485,,,,,,,,,,,,,,,,,,,,,,,,4,,,,,,,,,,Practice,5,(2x6) - 8,4,,,,,,,,,,,,,,,,"[""4""]",1,[6.801600000143026],1,0,0,0,4,1,,,,,,,,,,,,,,,,,,,,,,,,,,,,,,,,,,,,,,,,,,,
,,,,,,,,,5fa27915a7a32b44f3b2f44a,21,Mężczyzna,2022-05-28_09h22.34.209,task,2021.1.4,Win32,74.92881762,628b806c463b948bc644b84f,6291cd9856b5067424906485,,,,,,,,,,,"X V Q F H G B L J M P D K C T S W R N Z
",,,,,,,,,,,,,,,,,,,,,,,,,,,,,,,,,,,,,,,,,,,,,,,,,,,0,0,0,0,1,,,,,,,,,,,,,,,,,,,,,,,,,,,,,,,,,,,,,,
,,,,,,,,,5fa27915a7a32b44f3b2f44a,21,Mężczyzna,2022-05-28_09h22.34.209,task,2021.1.4,Win32,74.92881762,628b806c463b948bc644b84f,6291cd9856b5067424906485,,,,,,,,,,,,,,,,,,,,,,,,7,,,,,,,,,,Practice,8,(5x5) - 18,7,,,,,,,,,,,,,,,,"[""7""]",1,[3.502400000095463],1,0,0,0,7,1,,,,,,,,,,,,,,,,,,,,,,,,,,,,,,,,,,,,,,,,,,,
,,,,,,,,,5fa27915a7a32b44f3b2f44a,21,Mężczyzna,2022-05-28_09h22.34.209,task,2021.1.4,Win32,74.92881762,628b806c463b948bc644b84f,6291cd9856b5067424906485,,,,,,,,,,,"X V Q F H G B L J M P D K C T S W R N Z
",,,,,,,,,,,,,,,,,,,,,,,,,,,,,,,,,,,,,,,,,,,,,,,,,,,1,0,1,0,1,,,,,,,,,,,,,,,,,,,,,,,,,,,,,,,,,,,,,,
,,,,,,,,,5fa27915a7a32b44f3b2f44a,21,Mężczyzna,2022-05-28_09h22.34.209,task,2021.1.4,Win32,74.92881762,628b806c463b948bc644b84f,6291cd9856b5067424906485,,,,,,,,,,,,,,,,,,,,,,,,,,,,,,,,,,,,,,,,,,,,,,,,,,,,,,,,,,,,,,,,,,,bf,"[""b"",""f""]",0,"[2.307899999856886,2.755399999856877,3.555399999856945]",1,1,0,1,0,1,,,,,,,,,,,,,,,,,,,,,,,,,,,,
,,,,,,,,,5fa27915a7a32b44f3b2f44a,21,Mężczyzna,2022-05-28_09h22.34.209,task,2021.1.4,Win32,74.92881762,628b806c463b948bc644b84f,6291cd9856b5067424906485,,,,,,,,,,,,,,,,,,,,,,,,7,,,,,,,,,,Practice,8,(5x5) - 18,7,,,,,,,,,,,,,,,,"[""7""]",1,[1.9678000001907776],1,0,0,0,7,1,,,,,,,,,,,,,,,,,,,,,,,,,,,,,,,,,,,,,,,,,,,
,,,,,,,,,5fa27915a7a32b44f3b2f44a,21,Mężczyzna,2022-05-28_09h22.34.209,task,2021.1.4,Win32,74.92881762,628b806c463b948bc644b84f,6291cd9856b5067424906485,,,,,,,,,,,"X V Q F H G B L J M P D K C T S W R N Z
",,,,,,,,,,,,,,,,,,,,,,,,,,,,,,,,,,,,,,,,,,,,,,,,,,,0,0,0,0,1,,,,,,,,,,,,,,,,,,,,,,,,,,,,,,,,,,,,,,
,,,,,,,,,5fa27915a7a32b44f3b2f44a,21,Mężczyzna,2022-05-28_09h22.34.209,task,2021.1.4,Win32,74.92881762,628b806c463b948bc644b84f,6291cd9856b5067424906485,,,,,,,,,,,,,,,,,,,,,,,,3,,,,,,,,,,Practice,4,(8/4) + 1,3,,,,,,,,,,,,,,,,"[""3""]",1,[4.694399999856955],1,0,0,0,3,1,,,,,,,,,,,,,,,,,,,,,,,,,,,,,,,,,,,,,,,,,,,
,,,,,,,,,5fa27915a7a32b44f3b2f44a,21,Mężczyzna,2022-05-28_09h22.34.209,task,2021.1.4,Win32,74.92881762,628b806c463b948bc644b84f,6291cd9856b5067424906485,,,,,,,,,,,"X V Q F H G B L J M P D K C T S W R N Z
",,,,,,,,,,,,,,,,,,,,,,,,,,,,,,,,,,,,,,,,,,,,,,,,,,,1,0,1,0,1,,,,,,,,,,,,,,,,,,,,,,,,,,,,,,,,,,,,,,
,,,,,,,,,5fa27915a7a32b44f3b2f44a,21,Mężczyzna,2022-05-28_09h22.34.209,task,2021.1.4,Win32,74.92881762,628b806c463b948bc644b84f,6291cd9856b5067424906485,,,,,,,,,,,,,,,,,,,,,,,,,,,,,,,,,,,,,,,,,,,,,,,,,,,,,,,,,,,,,,,,,,,mg,"[""m"",""g""]",0,"[2.2364000000953865,2.7482999999522235,3.3564000000952774]",1,2,0,2,0,1,,,,,,,,,,,,,,,,,,,,,,,,,,,,
,,,,,,,,,5fa27915a7a32b44f3b2f44a,21,Mężczyzna,2022-05-28_09h22.34.209,task,2021.1.4,Win32,74.92881762,628b806c463b948bc644b84f,6291cd9856b5067424906485,,,,,,,,,,,,,,,,,,,,,,,,8,,,,,,,,,,Task,23,(2x3) + 2,8,,,,,,,,,,,,,,,,,,,1,,,,,,,,,,,,,,,,,,,,,space,17.4376,"[""8""]",1,[2.207099999904699],0,0,0,22,1,,,,,,,,,,,,,,,,,,
,,,,,,,,,5fa27915a7a32b44f3b2f44a,21,Mężczyzna,2022-05-28_09h22.34.209,task,2021.1.4,Win32,74.92881762,628b806c463b948bc644b84f,6291cd9856b5067424906485,,,,,,,,,,,"X V Q F H G B L J M P D K C T S W R N Z
",,,,,,,,,,,,,,,,,,,,,,,,,,,,,,,,,,,,,,,,,,,,,,,,,,,,,,,,,,,,,,,,,,,,,,,,,,,,0,0,0,0,1,,,,,,,,,,,,,
,,,,,,,,,5fa27915a7a32b44f3b2f44a,21,Mężczyzna,2022-05-28_09h22.34.209,task,2021.1.4,Win32,74.92881762,628b806c463b948bc644b84f,6291cd9856b5067424906485,,,,,,,,,,,,,,,,,,,,,,,,5,,,,,,,,,,Task,36,(8/4) + 3,5,,,,,,,,,,,,,,,,,,,1,,,,,,,,,,,,,,,,,,,,,,,"[""5""]",1,[2.6295000000000073],0,0,0,35,1,,,,,,,,,,,,,,,,,,
,,,,,,,,,5fa27915a7a32b44f3b2f44a,21,Mężczyzna,2022-05-28_09h22.34.209,task,2021.1.4,Win32,74.92881762,628b806c463b948bc644b84f,6291cd9856b5067424906485,,,,,,,,,,,"X V Q F H G B L J M P D K C T S W R N Z
",,,,,,,,,,,,,,,,,,,,,,,,,,,,,,,,,,,,,,,,,,,,,,,,,,,,,,,,,,,,,,,,,,,,,,,,,,,,1,0,1,0,1,,,,,,,,,,,,,
,,,,,,,,,5fa27915a7a32b44f3b2f44a,21,Mężczyzna,2022-05-28_09h22.34.209,task,2021.1.4,Win32,74.92881762,628b806c463b948bc644b84f,6291cd9856b5067424906485,,,,,,,,,,,,,,,,,,,,,,,,,,,,,,,,,,,,,,,,,,,,,,,,,,,,,,,,,,,,,,,,,,,,,,,,,,,,,,,,,,,,,,,,,,,,zs,"[""z"",""s""]",0,"[1.4488999998568488,1.6405999999045662,2.31279999995229]",1,ZS,0,0,0,0,1,,
,,,,,,,,,5fa27915a7a32b44f3b2f44a,21,Mężczyzna,2022-05-28_09h22.34.209,task,2021.1.4,Win32,74.92881762,628b806c463b948bc644b84f,6291cd9856b5067424906485,,,,,,,,,,,,,,,,,,,,,,,,1,,,,,,,,,,Task,9,(3x7) - 20,1,,,,,,,,,,,,,,,,,,,1,,,,,,,,,,,,,,,,,,,,,,,"[""1""]",1,[2.5822999999523972],0,0,0,8,1,,,,,,,,,,,,,,,,,,
,,,,,,,,,5fa27915a7a32b44f3b2f44a,21,Mężczyzna,2022-05-28_09h22.34.209,task,2021.1.4,Win32,74.92881762,628b806c463b948bc644b84f,6291cd9856b5067424906485,,,,,,,,,,,"X V Q F H G B L J M P D K C T S W R N Z
",,,,,,,,,,,,,,,,,,,,,,,,,,,,,,,,,,,,,,,,,,,,,,,,,,,,,,,,,,,,,,,,,,,,,,,,,,,,0,0,0,0,1,,,,,,,,,,,,,
,,,,,,,,,5fa27915a7a32b44f3b2f44a,21,Mężczyzna,2022-05-28_09h22.34.209,task,2021.1.4,Win32,74.92881762,628b806c463b948bc644b84f,6291cd9856b5067424906485,,,,,,,,,,,,,,,,,,,,,,,,0,,,,,,,,,,Task,8,(1x5) - 5,0,,,,,,,,,,,,,,,,,,,1,,,,,,,,,,,,,,,,,,,,,,,"[""0""]",1,[2.775599999904557],0,0,0,7,1,,,,,,,,,,,,,,,,,,
,,,,,,,,,5fa27915a7a32b44f3b2f44a,21,Mężczyzna,2022-05-28_09h22.34.209,task,2021.1.4,Win32,74.92881762,628b806c463b948bc644b84f,6291cd9856b5067424906485,,,,,,,,,,,"X V Q F H G B L J M P D K C T S W R N Z
",,,,,,,,,,,,,,,,,,,,,,,,,,,,,,,,,,,,,,,,,,,,,,,,,,,,,,,,,,,,,,,,,,,,,,,,,,,,1,0,1,0,1,,,,,,,,,,,,,
,,,,,,,,,5fa27915a7a32b44f3b2f44a,21,Mężczyzna,2022-05-28_09h22.34.209,task,2021.1.4,Win32,74.92881762,628b806c463b948bc644b84f,6291cd9856b5067424906485,,,,,,,,,,,,,,,,,,,,,,,,3,,,,,,,,,,Task,3,(2x3) - 3,3,,,,,,,,,,,,,,,,,,,1,,,,,,,,,,,,,,,,,,,,,,,"[""3""]",1,[2.241999999999962],0,0,0,2,1,,,,,,,,,,,,,,,,,,
,,,,,,,,,5fa27915a7a32b44f3b2f44a,21,Mężczyzna,2022-05-28_09h22.34.209,task,2021.1.4,Win32,74.92881762,628b806c463b948bc644b84f,6291cd9856b5067424906485,,,,,,,,,,,"X V Q F H G B L J M P D K C T S W R N Z
",,,,,,,,,,,,,,,,,,,,,,,,,,,,,,,,,,,,,,,,,,,,,,,,,,,,,,,,,,,,,,,,,,,,,,,,,,,,2,0,2,0,1,,,,,,,,,,,,,
,,,,,,,,,5fa27915a7a32b44f3b2f44a,21,Mężczyzna,2022-05-28_09h22.34.209,task,2021.1.4,Win32,74.92881762,628b806c463b948bc644b84f,6291cd9856b5067424906485,,,,,,,,,,,,,,,,,,,,,,,,,,,,,,,,,,,,,,,,,,,,,,,,,,,,,,,,,,,,,,,,,,,,,,,,,,,,,,,,,,,,,,,,,,,,bhl,"[""b"",""h"",""l""]",0,"[1.3108999998570425,1.8230000000000928,2.303000000000111,2.975099999904728]",1,BHL,1,0,1,0,1,,
,,,,,,,,,5fa27915a7a32b44f3b2f44a,21,Mężczyzna,2022-05-28_09h22.34.209,task,2021.1.4,Win32,74.92881762,628b806c463b948bc644b84f,6291cd9856b5067424906485,,,,,,,,,,,,,,,,,,,,,,,,,,,,,,,,,,Task,18,(16/4) - 3,1,,,,,,,,,,,,,,,,,,,0,,,,,,,,,,,,,,,,,,,,,,,,0,,0,0,0,17,1,,,,,,,,,,,,,,,,,,
,,,,,,,,,5fa27915a7a32b44f3b2f44a,21,Mężczyzna,2022-05-28_09h22.34.209,task,2021.1.4,Win32,74.92881762,628b806c463b948bc644b84f,6291cd9856b5067424906485,,,,,,,,,,,,,,,,,,,,,,,,4,,,,,,,,,,Task,21,(10/2) - 1,4,,,,,,,,,,,,,,,,,,,1,,,,,,,,,,,,,,,,,,,,,,,"[""4""]",1,[1.8695000000000164],0,1,1,20,1,,,,,,,,,,,,,,,,,,
,,,,,,,,,5fa27915a7a32b44f3b2f44a,21,Mężczyzna,2022-05-28_09h22.34.209,task,2021.1.4,Win32,74.92881762,628b806c463b948bc644b84f,6291cd9856b5067424906485,,,,,,,,,,,"X V Q F H G B L J M P D K C T S W R N Z
",,,,,,,,,,,,,,,,,,,,,,,,,,,,,,,,,,,,,,,,,,,,,,,,,,,,,,,,,,,,,,,,,,,,,,,,,,,,0,0,0,0,1,,,,,,,,,,,,,
,,,,,,,,,5fa27915a7a32b44f3b2f44a,21,Mężczyzna,2022-05-28_09h22.34.209,task,2021.1.4,Win32,74.92881762,628b806c463b948bc644b84f,6291cd9856b5067424906485,,,,,,,,,,,,,,,,,,,,,,,,8,,,,,,,,,,Task,23,(2x3) + 2,8,,,,,,,,,,,,,,,,,,,1,,,,,,,,,,,,,,,,,,,,,,,"[""8""]",1,[3.2672999999523427],0,0,0,22,1,,,,,,,,,,,,,,,,,,
,,,,,,,,,5fa27915a7a32b44f3b2f44a,21,Mężczyzna,2022-05-28_09h22.34.209,task,2021.1.4,Win32,74.92881762,628b806c463b948bc644b84f,6291cd9856b5067424906485,,,,,,,,,,,"X V Q F H G B L J M P D K C T S W R N Z
",,,,,,,,,,,,,,,,,,,,,,,,,,,,,,,,,,,,,,,,,,,,,,,,,,,,,,,,,,,,,,,,,,,,,,,,,,,,1,0,1,0,1,,,,,,,,,,,,,
,,,,,,,,,5fa27915a7a32b44f3b2f44a,21,Mężczyzna,2022-05-28_09h22.34.209,task,2021.1.4,Win32,74.92881762,628b806c463b948bc644b84f,6291cd9856b5067424906485,,,,,,,,,,,,,,,,,,,,,,,,1,,,,,,,,,,Task,34,(9/3) - 2,1,,,,,,,,,,,,,,,,,,,1,,,,,,,,,,,,,,,,,,,,,,,"[""1""]",1,[3.216299999952298],0,0,0,33,1,,,,,,,,,,,,,,,,,,
,,,,,,,,,5fa27915a7a32b44f3b2f44a,21,Mężczyzna,2022-05-28_09h22.34.209,task,2021.1.4,Win32,74.92881762,628b806c463b948bc644b84f,6291cd9856b5067424906485,,,,,,,,,,,"X V Q F H G B L J M P D K C T S W R N Z
",,,,,,,,,,,,,,,,,,,,,,,,,,,,,,,,,,,,,,,,,,,,,,,,,,,,,,,,,,,,,,,,,,,,,,,,,,,,2,0,2,0,1,,,,,,,,,,,,,
,,,,,,,,,5fa27915a7a32b44f3b2f44a,21,Mężczyzna,2022-05-28_09h22.34.209,task,2021.1.4,Win32,74.92881762,628b806c463b948bc644b84f,6291cd9856b5067424906485,,,,,,,,,,,,,,,,,,,,,,,,7,,,,,,,,,,Task,6,(12/2) + 1,7,,,,,,,,,,,,,,,,,,,1,,,,,,,,,,,,,,,,,,,,,,,"[""7""]",1,[2.5086000001430193],0,0,0,5,1,,,,,,,,,,,,,,,,,,
,,,,,,,,,5fa27915a7a32b44f3b2f44a,21,Mężczyzna,2022-05-28_09h22.34.209,task,2021.1.4,Win32,74.92881762,628b806c463b948bc644b84f,6291cd9856b5067424906485,,,,,,,,,,,"X V Q F H G B L J M P D K C T S W R N Z
",,,,,,,,,,,,,,,,,,,,,,,,,,,,,,,,,,,,,,,,,,,,,,,,,,,,,,,,,,,,,,,,,,,,,,,,,,,,3,0,3,0,1,,,,,,,,,,,,,
,,,,,,,,,5fa27915a7a32b44f3b2f44a,21,Mężczyzna,2022-05-28_09h22.34.209,task,2021.1.4,Win32,74.92881762,628b806c463b948bc644b84f,6291cd9856b5067424906485,,,,,,,,,,,,,,,,,,,,,,,,,,,,,,,,,,,,,,,,,,,,,,,,,,,,,,,,,,,,,,,,,,,,,,,,,,,,,,,,,,,,,,,,,,,,rxbg,"[""r"",""x"",""b"",""g""]",0,"[1.650099999904569,2.067399999856889,2.5142999999523,3.0902000000476164,4.594299999952227]",1,RXBG,2,0,2,0,1,,
,,,,,,,,,5fa27915a7a32b44f3b2f44a,21,Mężczyzna,2022-05-28_09h22.34.209,task,2021.1.4,Win32,74.92881762,628b806c463b948bc644b84f,6291cd9856b5067424906485,,,,,,,,,,,,,,,,,,,,,,,,3,,,,,,,,,,Task,1,(12/6) - 1,1,,,,,,,,,,,,,,,,,,,0,,,,,,,,,,,,,,,,,,,,,,,"[""3""]",0,[3.5244000000953974],0,0,0,0,1,,,,,,,,,,,,,,,,,,
,,,,,,,,,5fa27915a7a32b44f3b2f44a,21,Mężczyzna,2022-05-28_09h22.34.209,task,2021.1.4,Win32,74.92881762,628b806c463b948bc644b84f,6291cd9856b5067424906485,,,,,,,,,,,,,,,,,,,,,,,,3,,,,,,,,,,Task,3,(2x3) - 3,3,,,,,,,,,,,,,,,,,,,1,,,,,,,,,,,,,,,,,,,,,,,"[""3""]",1,[3.4072000000476237],0,1,1,2,1,,,,,,,,,,,,,,,,,,
,,,,,,,,,5fa27915a7a32b44f3b2f44a,21,Mężczyzna,2022-05-28_09h22.34.209,task,2021.1.4,Win32,74.92881762,628b806c463b948bc644b84f,6291cd9856b5067424906485,,,,,,,,,,,"X V Q F H G B L J M P D K C T S W R N Z
",,,,,,,,,,,,,,,,,,,,,,,,,,,,,,,,,,,,,,,,,,,,,,,,,,,,,,,,,,,,,,,,,,,,,,,,,,,,0,0,0,0,1,,,,,,,,,,,,,
,,,,,,,,,5fa27915a7a32b44f3b2f44a,21,Mężczyzna,2022-05-28_09h22.34.209,task,2021.1.4,Win32,74.92881762,628b806c463b948bc644b84f,6291cd9856b5067424906485,,,,,,,,,,,,,,,,,,,,,,,,1,,,,,,,,,,Task,1,(12/6) - 1,1,,,,,,,,,,,,,,,,,,,1,,,,,,,,,,,,,,,,,,,,,,,"[""1""]",1,[5.455799999952319],0,0,0,0,1,,,,,,,,,,,,,,,,,,
,,,,,,,,,5fa27915a7a32b44f3b2f44a,21,Mężczyzna,2022-05-28_09h22.34.209,task,2021.1.4,Win32,74.92881762,628b806c463b948bc644b84f,6291cd9856b5067424906485,,,,,,,,,,,"X V Q F H G B L J M P D K C T S W R N Z
",,,,,,,,,,,,,,,,,,,,,,,,,,,,,,,,,,,,,,,,,,,,,,,,,,,,,,,,,,,,,,,,,,,,,,,,,,,,1,0,1,0,1,,,,,,,,,,,,,
,,,,,,,,,5fa27915a7a32b44f3b2f44a,21,Mężczyzna,2022-05-28_09h22.34.209,task,2021.1.4,Win32,74.92881762,628b806c463b948bc644b84f,6291cd9856b5067424906485,,,,,,,,,,,,,,,,,,,,,,,,1,,,,,,,,,,Task,16,(3x8) - 15,9,,,,,,,,,,,,,,,,,,,0,,,,,,,,,,,,,,,,,,,,,,,"[""1""]",0,[1.9780999999046571],0,0,0,15,1,,,,,,,,,,,,,,,,,,
,,,,,,,,,5fa27915a7a32b44f3b2f44a,21,Mężczyzna,2022-05-28_09h22.34.209,task,2021.1.4,Win32,74.92881762,628b806c463b948bc644b84f,6291cd9856b5067424906485,,,,,,,,,,,,,,,,,,,,,,,,4,,,,,,,,,,Task,21,(10/2) - 1,4,,,,,,,,,,,,,,,,,,,1,,,,,,,,,,,,,,,,,,,,,,,"[""4""]",1,[2.400900000095362],0,1,1,20,1,,,,,,,,,,,,,,,,,,
,,,,,,,,,5fa27915a7a32b44f3b2f44a,21,Mężczyzna,2022-05-28_09h22.34.209,task,2021.1.4,Win32,74.92881762,628b806c463b948bc644b84f,6291cd9856b5067424906485,,,,,,,,,,,"X V Q F H G B L J M P D K C T S W R N Z
",,,,,,,,,,,,,,,,,,,,,,,,,,,,,,,,,,,,,,,,,,,,,,,,,,,,,,,,,,,,,,,,,,,,,,,,,,,,2,0,2,0,1,,,,,,,,,,,,,
,,,,,,,,,5fa27915a7a32b44f3b2f44a,21,Mężczyzna,2022-05-28_09h22.34.209,task,2021.1.4,Win32,74.92881762,628b806c463b948bc644b84f,6291cd9856b5067424906485,,,,,,,,,,,,,,,,,,,,,,,,5,,,,,,,,,,Task,29,(3x8) - 19 ,5,,,,,,,,,,,,,,,,,,,1,,,,,,,,,,,,,,,,,,,,,,,"[""5""]",1,[5.2000000000000455],0,0,0,28,1,,,,,,,,,,,,,,,,,,
,,,,,,,,,5fa27915a7a32b44f3b2f44a,21,Mężczyzna,2022-05-28_09h22.34.209,task,2021.1.4,Win32,74.92881762,628b806c463b948bc644b84f,6291cd9856b5067424906485,,,,,,,,,,,"X V Q F H G B L J M P D K C T S W R N Z
",,,,,,,,,,,,,,,,,,,,,,,,,,,,,,,,,,,,,,,,,,,,,,,,,,,,,,,,,,,,,,,,,,,,,,,,,,,,3,0,3,0,1,,,,,,,,,,,,,
,,,,,,,,,5fa27915a7a32b44f3b2f44a,21,Mężczyzna,2022-05-28_09h22.34.209,task,2021.1.4,Win32,74.92881762,628b806c463b948bc644b84f,6291cd9856b5067424906485,,,,,,,,,,,,,,,,,,,,,,,,5,,,,,,,,,,Task,36,(8/4) + 3,5,,,,,,,,,,,,,,,,,,,1,,,,,,,,,,,,,,,,,,,,,,,"[""5""]",1,[6.987999999999943],0,0,0,35,1,,,,,,,,,,,,,,,,,,
,,,,,,,,,5fa27915a7a32b44f3b2f44a,21,Mężczyzna,2022-05-28_09h22.34.209,task,2021.1.4,Win32,74.92881762,628b806c463b948bc644b84f,6291cd9856b5067424906485,,,,,,,,,,,"X V Q F H G B L J M P D K C T S W R N Z
",,,,,,,,,,,,,,,,,,,,,,,,,,,,,,,,,,,,,,,,,,,,,,,,,,,,,,,,,,,,,,,,,,,,,,,,,,,,4,0,4,0,1,,,,,,,,,,,,,
,,,,,,,,,5fa27915a7a32b44f3b2f44a,21,Mężczyzna,2022-05-28_09h22.34.209,task,2021.1.4,Win32,74.92881762,628b806c463b948bc644b84f,6291cd9856b5067424906485,,,,,,,,,,,,,,,,,,,,,,,,,,,,,,,,,,,,,,,,,,,,,,,,,,,,,,,,,,,,,,,,,,,,,,,,,,,,,,,,,,,,,,,,,,,,nnjpm,"[""n"",""n"",""j"",""p"",""m""]",0,"[1.8578000001906503,2.0468000001907285,2.590900000095303,3.1109000000952847,3.36690000009537,4.231200000047579]",1,NNJPM,3,0,3,0,1,,
,,,,,,,,,5fa27915a7a32b44f3b2f44a,21,Mężczyzna,2022-05-28_09h22.34.209,task,2021.1.4,Win32,74.92881762,628b806c463b948bc644b84f,6291cd9856b5067424906485,,,,,,,,,,,,,,,,,,,,,,,,0,,,,,,,,,,Task,25,(10/5) - 2,0,,,,,,,,,,,,,,,,,,,1,,,,,,,,,,,,,,,,,,,,,,,"[""0""]",1,[4.711200000047711],0,0,0,24,1,,,,,,,,,,,,,,,,,,
,,,,,,,,,5fa27915a7a32b44f3b2f44a,21,Mężczyzna,2022-05-28_09h22.34.209,task,2021.1.4,Win32,74.92881762,628b806c463b948bc644b84f,6291cd9856b5067424906485,,,,,,,,,,,"X V Q F H G B L J M P D K C T S W R N Z
",,,,,,,,,,,,,,,,,,,,,,,,,,,,,,,,,,,,,,,,,,,,,,,,,,,,,,,,,,,,,,,,,,,,,,,,,,,,0,0,0,0,1,,,,,,,,,,,,,
,,,,,,,,,5fa27915a7a32b44f3b2f44a,21,Mężczyzna,2022-05-28_09h22.34.209,task,2021.1.4,Win32,74.92881762,628b806c463b948bc644b84f,6291cd9856b5067424906485,,,,,,,,,,,,,,,,,,,,,,,,3,,,,,,,,,,Task,27,(3/3) + 2,3,,,,,,,,,,,,,,,,,,,1,,,,,,,,,,,,,,,,,,,,,,,"[""3""]",1,[1.5019999999999527],0,0,0,26,1,,,,,,,,,,,,,,,,,,
,,,,,,,,,5fa27915a7a32b44f3b2f44a,21,Mężczyzna,2022-05-28_09h22.34.209,task,2021.1.4,Win32,74.92881762,628b806c463b948bc644b84f,6291cd9856b5067424906485,,,,,,,,,,,"X V Q F H G B L J M P D K C T S W R N Z
",,,,,,,,,,,,,,,,,,,,,,,,,,,,,,,,,,,,,,,,,,,,,,,,,,,,,,,,,,,,,,,,,,,,,,,,,,,,1,0,1,0,1,,,,,,,,,,,,,
,,,,,,,,,5fa27915a7a32b44f3b2f44a,21,Mężczyzna,2022-05-28_09h22.34.209,task,2021.1.4,Win32,74.92881762,628b806c463b948bc644b84f,6291cd9856b5067424906485,,,,,,,,,,,,,,,,,,,,,,,,4,,,,,,,,,,Task,21,(10/2) - 1,4,,,,,,,,,,,,,,,,,,,1,,,,,,,,,,,,,,,,,,,,,,,"[""4""]",1,[1.879400000095302],0,0,0,20,1,,,,,,,,,,,,,,,,,,
,,,,,,,,,5fa27915a7a32b44f3b2f44a,21,Mężczyzna,2022-05-28_09h22.34.209,task,2021.1.4,Win32,74.92881762,628b806c463b948bc644b84f,6291cd9856b5067424906485,,,,,,,,,,,"X V Q F H G B L J M P D K C T S W R N Z
",,,,,,,,,,,,,,,,,,,,,,,,,,,,,,,,,,,,,,,,,,,,,,,,,,,,,,,,,,,,,,,,,,,,,,,,,,,,2,0,2,0,1,,,,,,,,,,,,,
,,,,,,,,,5fa27915a7a32b44f3b2f44a,21,Mężczyzna,2022-05-28_09h22.34.209,task,2021.1.4,Win32,74.92881762,628b806c463b948bc644b84f,6291cd9856b5067424906485,,,,,,,,,,,,,,,,,,,,,,,,0,,,,,,,,,,Task,33,(1/1) - 1,0,,,,,,,,,,,,,,,,,,,1,,,,,,,,,,,,,,,,,,,,,,,"[""0""]",1,[3.0084999999999127],0,0,0,32,1,,,,,,,,,,,,,,,,,,
,,,,,,,,,5fa27915a7a32b44f3b2f44a,21,Mężczyzna,2022-05-28_09h22.34.209,task,2021.1.4,Win32,74.92881762,628b806c463b948bc644b84f,6291cd9856b5067424906485,,,,,,,,,,,"X V Q F H G B L J M P D K C T S W R N Z
",,,,,,,,,,,,,,,,,,,,,,,,,,,,,,,,,,,,,,,,,,,,,,,,,,,,,,,,,,,,,,,,,,,,,,,,,,,,3,0,3,0,1,,,,,,,,,,,,,
,,,,,,,,,5fa27915a7a32b44f3b2f44a,21,Mężczyzna,2022-05-28_09h22.34.209,task,2021.1.4,Win32,74.92881762,628b806c463b948bc644b84f,6291cd9856b5067424906485,,,,,,,,,,,,,,,,,,,,,,,,2,,,,,,,,,,Task,2,(2x2) - 2,2,,,,,,,,,,,,,,,,,,,1,,,,,,,,,,,,,,,,,,,,,,,"[""2""]",1,[2.717999999999961],0,0,0,1,1,,,,,,,,,,,,,,,,,,
,,,,,,,,,5fa27915a7a32b44f3b2f44a,21,Mężczyzna,2022-05-28_09h22.34.209,task,2021.1.4,Win32,74.92881762,628b806c463b948bc644b84f,6291cd9856b5067424906485,,,,,,,,,,,"X V Q F H G B L J M P D K C T S W R N Z
",,,,,,,,,,,,,,,,,,,,,,,,,,,,,,,,,,,,,,,,,,,,,,,,,,,,,,,,,,,,,,,,,,,,,,,,,,,,4,0,4,0,1,,,,,,,,,,,,,
,,,,,,,,,5fa27915a7a32b44f3b2f44a,21,Mężczyzna,2022-05-28_09h22.34.209,task,2021.1.4,Win32,74.92881762,628b806c463b948bc644b84f,6291cd9856b5067424906485,,,,,,,,,,,,,,,,,,,,,,,,0,,,,,,,,,,Task,25,(10/5) - 2,0,,,,,,,,,,,,,,,,,,,1,,,,,,,,,,,,,,,,,,,,,,,"[""0""]",1,[3.9050000000000864],0,0,0,24,1,,,,,,,,,,,,,,,,,,
,,,,,,,,,5fa27915a7a32b44f3b2f44a,21,Mężczyzna,2022-05-28_09h22.34.209,task,2021.1.4,Win32,74.92881762,628b806c463b948bc644b84f,6291cd9856b5067424906485,,,,,,,,,,,"X V Q F H G B L J M P D K C T S W R N Z
",,,,,,,,,,,,,,,,,,,,,,,,,,,,,,,,,,,,,,,,,,,,,,,,,,,,,,,,,,,,,,,,,,,,,,,,,,,,5,0,5,0,1,,,,,,,,,,,,,
,,,,,,,,,5fa27915a7a32b44f3b2f44a,21,Mężczyzna,2022-05-28_09h22.34.209,task,2021.1.4,Win32,74.92881762,628b806c463b948bc644b84f,6291cd9856b5067424906485,,,,,,,,,,,,,,,,,,,,,,,,,,,,,,,,,,,,,,,,,,,,,,,,,,,,,,,,,,,,,,,,,,,,,,,,,,,,,,,,,,,,,,,,,,,,nkcmmh,"[""n"",""k"",""c"",""m"",""m"",""h""]",0,"[1.6284000000953256,2.4676000001430793,3.005400000095392,3.451800000190701,3.7399000000954175,4.284300000190797,5.1159999999999854]",1,NKCMMH,4,0,4,0,1,,
,,,,,,,,,5fa27915a7a32b44f3b2f44a,21,Mężczyzna,2022-05-28_09h22.34.209,task,2021.1.4,Win32,74.92881762,628b806c463b948bc644b84f,6291cd9856b5067424906485,,,,,,,,,,,,,,,,,,,,,,,,7,,,,,,,,,,Task,14,(2x2) + 3,7,,,,,,,,,,,,,,,,,,,1,,,,,,,,,,,,,,,,,,,,,,,"[""7""]",1,[2.3274000000953947],0,0,0,13,1,,,,,,,,,,,,,,,,,,
,,,,,,,,,5fa27915a7a32b44f3b2f44a,21,Mężczyzna,2022-05-28_09h22.34.209,task,2021.1.4,Win32,74.92881762,628b806c463b948bc644b84f,6291cd9856b5067424906485,,,,,,,,,,,"X V Q F H G B L J M P D K C T S W R N Z
",,,,,,,,,,,,,,,,,,,,,,,,,,,,,,,,,,,,,,,,,,,,,,,,,,,,,,,,,,,,,,,,,,,,,,,,,,,,0,0,0,0,1,,,,,,,,,,,,,
,,,,,,,,,5fa27915a7a32b44f3b2f44a,21,Mężczyzna,2022-05-28_09h22.34.209,task,2021.1.4,Win32,74.92881762,628b806c463b948bc644b84f,6291cd9856b5067424906485,,,,,,,,,,,,,,,,,,,,,,,,1,,,,,,,,,,Task,18,(16/4) - 3,1,,,,,,,,,,,,,,,,,,,1,,,,,,,,,,,,,,,,,,,,,,,"[""1""]",1,[7.1965000000000146],0,0,0,17,1,,,,,,,,,,,,,,,,,,
,,,,,,,,,5fa27915a7a32b44f3b2f44a,21,Mężczyzna,2022-05-28_09h22.34.209,task,2021.1.4,Win32,74.92881762,628b806c463b948bc644b84f,6291cd9856b5067424906485,,,,,,,,,,,"X V Q F H G B L J M P D K C T S W R N Z
",,,,,,,,,,,,,,,,,,,,,,,,,,,,,,,,,,,,,,,,,,,,,,,,,,,,,,,,,,,,,,,,,,,,,,,,,,,,1,0,1,0,1,,,,,,,,,,,,,
,,,,,,,,,5fa27915a7a32b44f3b2f44a,21,Mężczyzna,2022-05-28_09h22.34.209,task,2021.1.4,Win32,74.92881762,628b806c463b948bc644b84f,6291cd9856b5067424906485,,,,,,,,,,,,,,,,,,,,,,,,5,,,,,,,,,,Task,22,(3x1) + 2,5,,,,,,,,,,,,,,,,,,,1,,,,,,,,,,,,,,,,,,,,,,,"[""5""]",1,[2.3208999998569197],0,0,0,21,1,,,,,,,,,,,,,,,,,,
,,,,,,,,,5fa27915a7a32b44f3b2f44a,21,Mężczyzna,2022-05-28_09h22.34.209,task,2021.1.4,Win32,74.92881762,628b806c463b948bc644b84f,6291cd9856b5067424906485,,,,,,,,,,,"X V Q F H G B L J M P D K C T S W R N Z
",,,,,,,,,,,,,,,,,,,,,,,,,,,,,,,,,,,,,,,,,,,,,,,,,,,,,,,,,,,,,,,,,,,,,,,,,,,,2,0,2,0,1,,,,,,,,,,,,,
,,,,,,,,,5fa27915a7a32b44f3b2f44a,21,Mężczyzna,2022-05-28_09h22.34.209,task,2021.1.4,Win32,74.92881762,628b806c463b948bc644b84f,6291cd9856b5067424906485,,,,,,,,,,,,,,,,,,,,,,,,8,,,,,,,,,,Task,39,(5x3) - 7,8,,,,,,,,,,,,,,,,,,,1,,,,,,,,,,,,,,,,,,,,,,,"[""8""]",1,[2.852299999952379],0,0,0,38,1,,,,,,,,,,,,,,,,,,
,,,,,,,,,5fa27915a7a32b44f3b2f44a,21,Mężczyzna,2022-05-28_09h22.34.209,task,2021.1.4,Win32,74.92881762,628b806c463b948bc644b84f,6291cd9856b5067424906485,,,,,,,,,,,"X V Q F H G B L J M P D K C T S W R N Z
",,,,,,,,,,,,,,,,,,,,,,,,,,,,,,,,,,,,,,,,,,,,,,,,,,,,,,,,,,,,,,,,,,,,,,,,,,,,3,0,3,0,1,,,,,,,,,,,,,
,,,,,,,,,5fa27915a7a32b44f3b2f44a,21,Mężczyzna,2022-05-28_09h22.34.209,task,2021.1.4,Win32,74.92881762,628b806c463b948bc644b84f,6291cd9856b5067424906485,,,,,,,,,,,,,,,,,,,,,,,,9,,,,,,,,,,Task,24,(2x2) + 5,9,,,,,,,,,,,,,,,,,,,1,,,,,,,,,,,,,,,,,,,,,,,"[""9""]",1,[2.052299999952311],0,0,0,23,1,,,,,,,,,,,,,,,,,,
,,,,,,,,,5fa27915a7a32b44f3b2f44a,21,Mężczyzna,2022-05-28_09h22.34.209,task,2021.1.4,Win32,74.92881762,628b806c463b948bc644b84f,6291cd9856b5067424906485,,,,,,,,,,,"X V Q F H G B L J M P D K C T S W R N Z
",,,,,,,,,,,,,,,,,,,,,,,,,,,,,,,,,,,,,,,,,,,,,,,,,,,,,,,,,,,,,,,,,,,,,,,,,,,,4,0,4,0,1,,,,,,,,,,,,,
,,,,,,,,,5fa27915a7a32b44f3b2f44a,21,Mężczyzna,2022-05-28_09h22.34.209,task,2021.1.4,Win32,74.92881762,628b806c463b948bc644b84f,6291cd9856b5067424906485,,,,,,,,,,,,,,,,,,,,,,,,5,,,,,,,,,,Task,12,(4x4) - 11,5,,,,,,,,,,,,,,,,,,,1,,,,,,,,,,,,,,,,,,,,,,,"[""5""]",1,[2.472600000143075],0,0,0,11,1,,,,,,,,,,,,,,,,,,
,,,,,,,,,5fa27915a7a32b44f3b2f44a,21,Mężczyzna,2022-05-28_09h22.34.209,task,2021.1.4,Win32,74.92881762,628b806c463b948bc644b84f,6291cd9856b5067424906485,,,,,,,,,,,"X V Q F H G B L J M P D K C T S W R N Z
",,,,,,,,,,,,,,,,,,,,,,,,,,,,,,,,,,,,,,,,,,,,,,,,,,,,,,,,,,,,,,,,,,,,,,,,,,,,5,0,5,0,1,,,,,,,,,,,,,
,,,,,,,,,5fa27915a7a32b44f3b2f44a,21,Mężczyzna,2022-05-28_09h22.34.209,task,2021.1.4,Win32,74.92881762,628b806c463b948bc644b84f,6291cd9856b5067424906485,,,,,,,,,,,,,,,,,,,,,,,,6,,,,,,,,,,Task,13,(3x4) - 6,6,,,,,,,,,,,,,,,,,,,1,,,,,,,,,,,,,,,,,,,,,,,"[""6""]",1,[5.587299999952393],0,0,0,12,1,,,,,,,,,,,,,,,,,,
,,,,,,,,,5fa27915a7a32b44f3b2f44a,21,Mężczyzna,2022-05-28_09h22.34.209,task,2021.1.4,Win32,74.92881762,628b806c463b948bc644b84f,6291cd9856b5067424906485,,,,,,,,,,,"X V Q F H G B L J M P D K C T S W R N Z
",,,,,,,,,,,,,,,,,,,,,,,,,,,,,,,,,,,,,,,,,,,,,,,,,,,,,,,,,,,,,,,,,,,,,,,,,,,,6,0,6,0,1,,,,,,,,,,,,,
,,,,,,,,,5fa27915a7a32b44f3b2f44a,21,Mężczyzna,2022-05-28_09h22.34.209,task,2021.1.4,Win32,74.92881762,628b806c463b948bc644b84f,6291cd9856b5067424906485,,,,,,,,,,,,,,,,,,,,,,,,,,,,,,,,,,,,,,,,,,,,,,,,,,,,,,,,,,,,,,,,,,,,,,,,,,,,,,,,,,,,,,,,,,,,ctkhfxc,"[""c"",""t"",""k"",""h"",""f"",""x"",""c""]",0,"[1.949299999952359,2.4927999999523536,3.228899999857049,4.18879999995238,18.88679999995236,19.239000000000033,20.77500000000009,25.39220000004775]",1,CTKHFXC,5,0,5,0,1,,
,,,,,,,,,5fa27915a7a32b44f3b2f44a,21,Mężczyzna,2022-05-28_09h22.34.209,task,2021.1.4,Win32,74.92881762,628b806c463b948bc644b84f,6291cd9856b5067424906485,,,,,,,,,,,,,,,,,,,,,,,,8,,,,,,,,,,Task,15,(3x7) - 13,8,,,,,,,,,,,,,,,,,,,1,,,,,,,,,,,,,,,,,,,,,,,"[""8""]",1,[6.240900000095394],0,0,0,14,1,,,,,,,,,,,,,,,,,,
,,,,,,,,,5fa27915a7a32b44f3b2f44a,21,Mężczyzna,2022-05-28_09h22.34.209,task,2021.1.4,Win32,74.92881762,628b806c463b948bc644b84f,6291cd9856b5067424906485,,,,,,,,,,,"X V Q F H G B L J M P D K C T S W R N Z
",,,,,,,,,,,,,,,,,,,,,,,,,,,,,,,,,,,,,,,,,,,,,,,,,,,,,,,,,,,,,,,,,,,,,,,,,,,,0,0,0,0,1,,,,,,,,,,,,,
,,,,,,,,,5fa27915a7a32b44f3b2f44a,21,Mężczyzna,2022-05-28_09h22.34.209,task,2021.1.4,Win32,74.92881762,628b806c463b948bc644b84f,6291cd9856b5067424906485,,,,,,,,,,,,,,,,,,,,,,,,2,,,,,,,,,,Task,19,(6/2) - 1,2,,,,,,,,,,,,,,,,,,,1,,,,,,,,,,,,,,,,,,,,,,,"[""2""]",1,[1.665099999904669],0,0,0,18,1,,,,,,,,,,,,,,,,,,
,,,,,,,,,5fa27915a7a32b44f3b2f44a,21,Mężczyzna,2022-05-28_09h22.34.209,task,2021.1.4,Win32,74.92881762,628b806c463b948bc644b84f,6291cd9856b5067424906485,,,,,,,,,,,"X V Q F H G B L J M P D K C T S W R N Z
",,,,,,,,,,,,,,,,,,,,,,,,,,,,,,,,,,,,,,,,,,,,,,,,,,,,,,,,,,,,,,,,,,,,,,,,,,,,1,0,1,0,1,,,,,,,,,,,,,
,,,,,,,,,5fa27915a7a32b44f3b2f44a,21,Mężczyzna,2022-05-28_09h22.34.209,task,2021.1.4,Win32,74.92881762,628b806c463b948bc644b84f,6291cd9856b5067424906485,,,,,,,,,,,,,,,,,,,,,,,,4,,,,,,,,,,Task,28,(2x5) - 6,4,,,,,,,,,,,,,,,,,,,1,,,,,,,,,,,,,,,,,,,,,,,"[""4""]",1,[1.8366000001431075],0,0,0,27,1,,,,,,,,,,,,,,,,,,
,,,,,,,,,5fa27915a7a32b44f3b2f44a,21,Mężczyzna,2022-05-28_09h22.34.209,task,2021.1.4,Win32,74.92881762,628b806c463b948bc644b84f,6291cd9856b5067424906485,,,,,,,,,,,"X V Q F H G B L J M P D K C T S W R N Z
",,,,,,,,,,,,,,,,,,,,,,,,,,,,,,,,,,,,,,,,,,,,,,,,,,,,,,,,,,,,,,,,,,,,,,,,,,,,2,0,2,0,1,,,,,,,,,,,,,
,,,,,,,,,5fa27915a7a32b44f3b2f44a,21,Mężczyzna,2022-05-28_09h22.34.209,task,2021.1.4,Win32,74.92881762,628b806c463b948bc644b84f,6291cd9856b5067424906485,,,,,,,,,,,,,,,,,,,,,,,,6,,,,,,,,,,Task,30,(6/3) + 4 ,6,,,,,,,,,,,,,,,,,,,1,,,,,,,,,,,,,,,,,,,,,,,"[""6""]",1,[3.169200000047681],0,0,0,29,1,,,,,,,,,,,,,,,,,,
,,,,,,,,,5fa27915a7a32b44f3b2f44a,21,Mężczyzna,2022-05-28_09h22.34.209,task,2021.1.4,Win32,74.92881762,628b806c463b948bc644b84f,6291cd9856b5067424906485,,,,,,,,,,,"X V Q F H G B L J M P D K C T S W R N Z
",,,,,,,,,,,,,,,,,,,,,,,,,,,,,,,,,,,,,,,,,,,,,,,,,,,,,,,,,,,,,,,,,,,,,,,,,,,,3,0,3,0,1,,,,,,,,,,,,,
,,,,,,,,,5fa27915a7a32b44f3b2f44a,21,Mężczyzna,2022-05-28_09h22.34.209,task,2021.1.4,Win32,74.92881762,628b806c463b948bc644b84f,6291cd9856b5067424906485,,,,,,,,,,,,,,,,,,,,,,,,1,,,,,,,,,,Task,9,(3x7) - 20,1,,,,,,,,,,,,,,,,,,,1,,,,,,,,,,,,,,,,,,,,,,,"[""1""]",1,[1.7814000000953456],0,0,0,8,1,,,,,,,,,,,,,,,,,,
,,,,,,,,,5fa27915a7a32b44f3b2f44a,21,Mężczyzna,2022-05-28_09h22.34.209,task,2021.1.4,Win32,74.92881762,628b806c463b948bc644b84f,6291cd9856b5067424906485,,,,,,,,,,,"X V Q F H G B L J M P D K C T S W R N Z
",,,,,,,,,,,,,,,,,,,,,,,,,,,,,,,,,,,,,,,,,,,,,,,,,,,,,,,,,,,,,,,,,,,,,,,,,,,,4,0,4,0,1,,,,,,,,,,,,,
,,,,,,,,,5fa27915a7a32b44f3b2f44a,21,Mężczyzna,2022-05-28_09h22.34.209,task,2021.1.4,Win32,74.92881762,628b806c463b948bc644b84f,6291cd9856b5067424906485,,,,,,,,,,,,,,,,,,,,,,,,3,,,,,,,,,,Task,27,(3/3) + 2,3,,,,,,,,,,,,,,,,,,,1,,,,,,,,,,,,,,,,,,,,,,,"[""3""]",1,[6.450600000143027],0,0,0,26,1,,,,,,,,,,,,,,,,,,
,,,,,,,,,5fa27915a7a32b44f3b2f44a,21,Mężczyzna,2022-05-28_09h22.34.209,task,2021.1.4,Win32,74.92881762,628b806c463b948bc644b84f,6291cd9856b5067424906485,,,,,,,,,,,"X V Q F H G B L J M P D K C T S W R N Z
",,,,,,,,,,,,,,,,,,,,,,,,,,,,,,,,,,,,,,,,,,,,,,,,,,,,,,,,,,,,,,,,,,,,,,,,,,,,5,0,5,0,1,,,,,,,,,,,,,
,,,,,,,,,5fa27915a7a32b44f3b2f44a,21,Mężczyzna,2022-05-28_09h22.34.209,task,2021.1.4,Win32,74.92881762,628b806c463b948bc644b84f,6291cd9856b5067424906485,,,,,,,,,,,,,,,,,,,,,,,,5,,,,,,,,,,Task,22,(3x1) + 2,5,,,,,,,,,,,,,,,,,,,1,,,,,,,,,,,,,,,,,,,,,,,"[""5""]",1,[5.71579999995231],0,0,0,21,1,,,,,,,,,,,,,,,,,,
,,,,,,,,,5fa27915a7a32b44f3b2f44a,21,Mężczyzna,2022-05-28_09h22.34.209,task,2021.1.4,Win32,74.92881762,628b806c463b948bc644b84f,6291cd9856b5067424906485,,,,,,,,,,,"X V Q F H G B L J M P D K C T S W R N Z
",,,,,,,,,,,,,,,,,,,,,,,,,,,,,,,,,,,,,,,,,,,,,,,,,,,,,,,,,,,,,,,,,,,,,,,,,,,,6,0,6,0,1,,,,,,,,,,,,,
,,,,,,,,,5fa27915a7a32b44f3b2f44a,21,Mężczyzna,2022-05-28_09h22.34.209,task,2021.1.4,Win32,74.92881762,628b806c463b948bc644b84f,6291cd9856b5067424906485,,,,,,,,,,,,,,,,,,,,,,,,,,,,,,,,,,Task,38,(4x6) - 17,7,,,,,,,,,,,,,,,,,,,0,,,,,,,,,,,,,,,,,,,,,,,,0,,0,0,0,37,1,,,,,,,,,,,,,,,,,,
,,,,,,,,,5fa27915a7a32b44f3b2f44a,21,Mężczyzna,2022-05-28_09h22.34.209,task,2021.1.4,Win32,74.92881762,628b806c463b948bc644b84f,6291cd9856b5067424906485,,,,,,,,,,,,,,,,,,,,,,,,8,,,,,,,,,,Task,15,(3x7) - 13,8,,,,,,,,,,,,,,,,,,,1,,,,,,,,,,,,,,,,,,,,,,,"[""8""]",1,[3.7246000001430275],0,1,1,14,1,,,,,,,,,,,,,,,,,,
,,,,,,,,,5fa27915a7a32b44f3b2f44a,21,Mężczyzna,2022-05-28_09h22.34.209,task,2021.1.4,Win32,74.92881762,628b806c463b948bc644b84f,6291cd9856b5067424906485,,,,,,,,,,,"X V Q F H G B L J M P D K C T S W R N Z
",,,,,,,,,,,,,,,,,,,,,,,,,,,,,,,,,,,,,,,,,,,,,,,,,,,,,,,,,,,,,,,,,,,,,,,,,,,,7,0,7,0,1,,,,,,,,,,,,,
,,,,,,,,,5fa27915a7a32b44f3b2f44a,21,Mężczyzna,2022-05-28_09h22.34.209,task,2021.1.4,Win32,74.92881762,628b806c463b948bc644b84f,6291cd9856b5067424906485,,,,,,,,,,,,,,,,,,,,,,,,,,,,,,,,,,,,,,,,,,,,,,,,,,,,,,,,,,,,,,,,,,,,,,,,,,,,,,,,,,,,,,,,,,,,stjwtvw,"[""s"",""t"",""j"",""w"",""t"",""v"",""w""]",0,"[1.6020999999046808,1.9864000000953865,2.8500999999046144,14.379400000095416,14.699299999952359,15.755400000095392,16.23540000009541,17.419599999904676]",0,STJLTWVW,6,0,6,0,1,,
,,,,,,,,,5fa27915a7a32b44f3b2f44a,21,Mężczyzna,2022-05-28_09h22.34.209,task,2021.1.4,Win32,74.92881762,628b806c463b948bc644b84f,6291cd9856b5067424906485,,,,,,,,,,,,,,,,,,,,,,,,2,,,,,,,,,,Task,10,(2x5) - 8,2,,,,,,,,,,,,,,,,,,,1,,,,,,,,,,,,,,,,,,,,,,,"[""2""]",1,[1.8355000000000246],0,0,0,9,1,,,,,,,,,,,,,,,,,,
,,,,,,,,,5fa27915a7a32b44f3b2f44a,21,Mężczyzna,2022-05-28_09h22.34.209,task,2021.1.4,Win32,74.92881762,628b806c463b948bc644b84f,6291cd9856b5067424906485,,,,,,,,,,,"X V Q F H G B L J M P D K C T S W R N Z
",,,,,,,,,,,,,,,,,,,,,,,,,,,,,,,,,,,,,,,,,,,,,,,,,,,,,,,,,,,,,,,,,,,,,,,,,,,,0,0,0,0,1,,,,,,,,,,,,,
,,,,,,,,,5fa27915a7a32b44f3b2f44a,21,Mężczyzna,2022-05-28_09h22.34.209,task,2021.1.4,Win32,74.92881762,628b806c463b948bc644b84f,6291cd9856b5067424906485,,,,,,,,,,,,,,,,,,,,,,,,2,,,,,,,,,,Task,26,(2x9) - 16,2,,,,,,,,,,,,,,,,,,,1,,,,,,,,,,,,,,,,,,,,,,,"[""2""]",1,[1.672700000047712],0,0,0,25,1,,,,,,,,,,,,,,,,,,
,,,,,,,,,5fa27915a7a32b44f3b2f44a,21,Mężczyzna,2022-05-28_09h22.34.209,task,2021.1.4,Win32,74.92881762,628b806c463b948bc644b84f,6291cd9856b5067424906485,,,,,,,,,,,"X V Q F H G B L J M P D K C T S W R N Z
",,,,,,,,,,,,,,,,,,,,,,,,,,,,,,,,,,,,,,,,,,,,,,,,,,,,,,,,,,,,,,,,,,,,,,,,,,,,1,0,1,0,1,,,,,,,,,,,,,
,,,,,,,,,5fa27915a7a32b44f3b2f44a,21,Mężczyzna,2022-05-28_09h22.34.209,task,2021.1.4,Win32,74.92881762,628b806c463b948bc644b84f,6291cd9856b5067424906485,,,,,,,,,,,,,,,,,,,,,,,,5,,,,,,,,,,Task,22,(3x1) + 2,5,,,,,,,,,,,,,,,,,,,1,,,,,,,,,,,,,,,,,,,,,,,"[""5""]",1,[1.720599999904607],0,0,0,21,1,,,,,,,,,,,,,,,,,,
,,,,,,,,,5fa27915a7a32b44f3b2f44a,21,Mężczyzna,2022-05-28_09h22.34.209,task,2021.1.4,Win32,74.92881762,628b806c463b948bc644b84f,6291cd9856b5067424906485,,,,,,,,,,,"X V Q F H G B L J M P D K C T S W R N Z
",,,,,,,,,,,,,,,,,,,,,,,,,,,,,,,,,,,,,,,,,,,,,,,,,,,,,,,,,,,,,,,,,,,,,,,,,,,,2,0,2,0,1,,,,,,,,,,,,,
,,,,,,,,,5fa27915a7a32b44f3b2f44a,21,Mężczyzna,2022-05-28_09h22.34.209,task,2021.1.4,Win32,74.92881762,628b806c463b948bc644b84f,6291cd9856b5067424906485,,,,,,,,,,,,,,,,,,,,,,,,0,,,,,,,,,,Task,8,(1x5) - 5,0,,,,,,,,,,,,,,,,,,,1,,,,,,,,,,,,,,,,,,,,,,,"[""0""]",1,[2.214699999809227],0,0,0,7,1,,,,,,,,,,,,,,,,,,
,,,,,,,,,5fa27915a7a32b44f3b2f44a,21,Mężczyzna,2022-05-28_09h22.34.209,task,2021.1.4,Win32,74.92881762,628b806c463b948bc644b84f,6291cd9856b5067424906485,,,,,,,,,,,"X V Q F H G B L J M P D K C T S W R N Z
",,,,,,,,,,,,,,,,,,,,,,,,,,,,,,,,,,,,,,,,,,,,,,,,,,,,,,,,,,,,,,,,,,,,,,,,,,,,3,0,3,0,1,,,,,,,,,,,,,
,,,,,,,,,5fa27915a7a32b44f3b2f44a,21,Mężczyzna,2022-05-28_09h22.34.209,task,2021.1.4,Win32,74.92881762,628b806c463b948bc644b84f,6291cd9856b5067424906485,,,,,,,,,,,,,,,,,,,,,,,,9,,,,,,,,,,Task,7,(3x7) - 12,9,,,,,,,,,,,,,,,,,,,1,,,,,,,,,,,,,,,,,,,,,,,"[""9""]",1,[4.4508000001908385],0,0,0,6,1,,,,,,,,,,,,,,,,,,
,,,,,,,,,5fa27915a7a32b44f3b2f44a,21,Mężczyzna,2022-05-28_09h22.34.209,task,2021.1.4,Win32,74.92881762,628b806c463b948bc644b84f,6291cd9856b5067424906485,,,,,,,,,,,"X V Q F H G B L J M P D K C T S W R N Z
",,,,,,,,,,,,,,,,,,,,,,,,,,,,,,,,,,,,,,,,,,,,,,,,,,,,,,,,,,,,,,,,,,,,,,,,,,,,4,0,4,0,1,,,,,,,,,,,,,
,,,,,,,,,5fa27915a7a32b44f3b2f44a,21,Mężczyzna,2022-05-28_09h22.34.209,task,2021.1.4,Win32,74.92881762,628b806c463b948bc644b84f,6291cd9856b5067424906485,,,,,,,,,,,,,,,,,,,,,,,,9,,,,,,,,,,Task,24,(2x2) + 5,9,,,,,,,,,,,,,,,,,,,1,,,,,,,,,,,,,,,,,,,,,,,"[""9""]",1,[2.029799999952502],0,0,0,23,1,,,,,,,,,,,,,,,,,,
,,,,,,,,,5fa27915a7a32b44f3b2f44a,21,Mężczyzna,2022-05-28_09h22.34.209,task,2021.1.4,Win32,74.92881762,628b806c463b948bc644b84f,6291cd9856b5067424906485,,,,,,,,,,,"X V Q F H G B L J M P D K C T S W R N Z
",,,,,,,,,,,,,,,,,,,,,,,,,,,,,,,,,,,,,,,,,,,,,,,,,,,,,,,,,,,,,,,,,,,,,,,,,,,,5,0,5,0,1,,,,,,,,,,,,,
,,,,,,,,,5fa27915a7a32b44f3b2f44a,21,Mężczyzna,2022-05-28_09h22.34.209,task,2021.1.4,Win32,74.92881762,628b806c463b948bc644b84f,6291cd9856b5067424906485,,,,,,,,,,,,,,,,,,,,,,,,0,,,,,,,,,,Task,33,(1/1) - 1,0,,,,,,,,,,,,,,,,,,,1,,,,,,,,,,,,,,,,,,,,,,,"[""0""]",1,[4.186800000190942],0,0,0,32,1,,,,,,,,,,,,,,,,,,
,,,,,,,,,5fa27915a7a32b44f3b2f44a,21,Mężczyzna,2022-05-28_09h22.34.209,task,2021.1.4,Win32,74.92881762,628b806c463b948bc644b84f,6291cd9856b5067424906485,,,,,,,,,,,"X V Q F H G B L J M P D K C T S W R N Z
",,,,,,,,,,,,,,,,,,,,,,,,,,,,,,,,,,,,,,,,,,,,,,,,,,,,,,,,,,,,,,,,,,,,,,,,,,,,6,0,6,0,1,,,,,,,,,,,,,
,,,,,,,,,5fa27915a7a32b44f3b2f44a,21,Mężczyzna,2022-05-28_09h22.34.209,task,2021.1.4,Win32,74.92881762,628b806c463b948bc644b84f,6291cd9856b5067424906485,,,,,,,,,,,,,,,,,,,,,,,,1,,,,,,,,,,Task,18,(16/4) - 3,1,,,,,,,,,,,,,,,,,,,1,,,,,,,,,,,,,,,,,,,,,,,"[""1""]",1,[3.637599999904751],0,0,0,17,1,,,,,,,,,,,,,,,,,,
,,,,,,,,,5fa27915a7a32b44f3b2f44a,21,Mężczyzna,2022-05-28_09h22.34.209,task,2021.1.4,Win32,74.92881762,628b806c463b948bc644b84f,6291cd9856b5067424906485,,,,,,,,,,,"X V Q F H G B L J M P D K C T S W R N Z
",,,,,,,,,,,,,,,,,,,,,,,,,,,,,,,,,,,,,,,,,,,,,,,,,,,,,,,,,,,,,,,,,,,,,,,,,,,,7,0,7,0,1,,,,,,,,,,,,,
,,,,,,,,,5fa27915a7a32b44f3b2f44a,21,Mężczyzna,2022-05-28_09h22.34.209,task,2021.1.4,Win32,74.92881762,628b806c463b948bc644b84f,6291cd9856b5067424906485,,,,,,,,,,,,,,,,,,,,,,,,,,,,,,,,,,,,,,,,,,,,,,,,,,,,,,,,,,,,,,,,,,,,,,,,,,,,,,,,,,,,,,,,,,,,lxqnbqq,"[""l"",""x"",""q"",""n"",""b"",""q"",""q""]",0,"[2.4925000000000637,3.1348000001908076,3.6124000000954766,4.188600000143197,4.670300000190764,5.116500000000087,5.596700000047804,12.646300000190877]",0,LXQNBXQW,7,0,7,0,1,,
,,,,,,,,,5fa27915a7a32b44f3b2f44a,21,Mężczyzna,2022-05-28_09h22.34.209,task,2021.1.4,Win32,74.92881762,628b806c463b948bc644b84f,6291cd9856b5067424906485,,,,,,,,,,,,,,,,,,,,,,,,,,,,,,,,,,,,,,,,,,,,,,,,,,,,,,,,,,,,,,,,,,,,,,,,,,,,,,,,,,,,,,,,,,,,,,,,,,,,,,,space,1.7452
