key_resp_15.keys,key_resp_15.rt,key_resp_13.keys,key_resp_13.corr,key_resp_13.rt,ranodm_loop.thisRepN,ranodm_loop.thisTrialN,ranodm_loop.thisN,ranodm_loop.thisIndex,ranodm_loop.ran,participant,Wiek*,Płeć,date,expName,psychopyVersion,OS,frameRate,study_id,session,key_resp_16.keys,key_resp_16.rt,key_resp_4.keys,key_resp_4.rt,next_letter.thisRepN,next_letter.thisTrialN,next_letter.thisN,next_letter.thisIndex,next_letter.ran,letter,simple_recall,key_resp_5.keys,key_resp_5.rt,simple_recall_corr,simple_recall_corrkeys,next_level.thisRepN,next_level.thisTrialN,next_level.thisN,next_level.thisIndex,next_level.ran,key_resp_2.keys,key_resp_2.rt,digit_answer,key_resp.keys,key_resp.corr,key_resp.rt,RT_list,next_equation.thisRepN,next_equation.thisTrialN,next_equation.thisN,next_equation.thisIndex,next_equation.ran,Task,Trial,Problem,Operation_answer,processing_score,sumRT,meanRT,sumdiff,sd,RT,key_resp_3.keys,key_resp_3.rt,repeat_practice.thisRepN,repeat_practice.thisTrialN,repeat_practice.thisN,repeat_practice.thisIndex,repeat_practice.ran,key_resp_6.keys,key_resp_6.rt,key_resp_11.keys,key_resp_11.corr,key_resp_11.rt,operation_correct,repeat_if_wrong_prac.thisRepN,repeat_if_wrong_prac.thisTrialN,repeat_if_wrong_prac.thisN,repeat_if_wrong_prac.thisIndex,repeat_if_wrong_prac.ran,span_size_prac.thisRepN,span_size_prac.thisTrialN,span_size_prac.thisN,span_size_prac.thisIndex,span_size_prac.ran,complex_recall_practice,key_resp_9.keys,key_resp_9.corr,key_resp_9.rt,complex_prac_corr,span_recall_prac.thisRepN,span_recall_prac.thisTrialN,span_recall_prac.thisN,span_recall_prac.thisIndex,span_recall_prac.ran,key_resp_10.keys,key_resp_10.rt,key_resp_7.keys,key_resp_7.corr,key_resp_7.rt,repeat_if_wrong.thisRepN,repeat_if_wrong.thisTrialN,repeat_if_wrong.thisN,repeat_if_wrong.thisIndex,repeat_if_wrong.ran,span_size.thisRepN,span_size.thisTrialN,span_size.thisN,span_size.thisIndex,span_size.ran,complex_recall,key_resp_8.keys,key_resp_8.corr,key_resp_8.rt,complex_recall_corr,complex_recall_corrkeys,span_recall.thisRepN,span_recall.thisTrialN,span_recall.thisN,span_recall.thisIndex,span_recall.ran,key_resp_12.keys,key_resp_12.rt
space,70.3352,"[""comma""]",0,[0.9378000000044437],0,0,0,0,1,5fa27e1a81b6374542bfc205,20,Mężczyzna,2022-06-10_12h57.24.561,task,2021.1.4,Win32,60.75334143,628b806c463b948bc644b84f,62a3237a29f23531b5555fcb,,,,,,,,,,,,,,,,,,,,,,,,,,,,,,,,,,,,,,,,,,,,,,,,,,,,,,,,,,,,,,,,,,,,,,,,,,,,,,,,,,,,,,,,,,,,,,,,,,,,,,,
,,"[""period""]",0,[0.7328000000044597],1,0,1,0,1,5fa27e1a81b6374542bfc205,20,Mężczyzna,2022-06-10_12h57.24.561,task,2021.1.4,Win32,60.75334143,628b806c463b948bc644b84f,62a3237a29f23531b5555fcb,,,,,,,,,,,,,,,,,,,,,,,,,,,,,,,,,,,,,,,,,,,,,,,,,,,,,,,,,,,,,,,,,,,,,,,,,,,,,,,,,,,,,,,,,,,,,,,,,,,,,,,
,,"[""comma""]",0,[0.3916000000015174],2,0,2,0,1,5fa27e1a81b6374542bfc205,20,Mężczyzna,2022-06-10_12h57.24.561,task,2021.1.4,Win32,60.75334143,628b806c463b948bc644b84f,62a3237a29f23531b5555fcb,,,,,,,,,,,,,,,,,,,,,,,,,,,,,,,,,,,,,,,,,,,,,,,,,,,,,,,,,,,,,,,,,,,,,,,,,,,,,,,,,,,,,,,,,,,,,,,,,,,,,,,
,,"[""comma""]",0,[0.3799000000059607],3,0,3,0,1,5fa27e1a81b6374542bfc205,20,Mężczyzna,2022-06-10_12h57.24.561,task,2021.1.4,Win32,60.75334143,628b806c463b948bc644b84f,62a3237a29f23531b5555fcb,,,,,,,,,,,,,,,,,,,,,,,,,,,,,,,,,,,,,,,,,,,,,,,,,,,,,,,,,,,,,,,,,,,,,,,,,,,,,,,,,,,,,,,,,,,,,,,,,,,,,,,
,,"[""comma""]",0,[0.46649999999999636],4,0,4,0,1,5fa27e1a81b6374542bfc205,20,Mężczyzna,2022-06-10_12h57.24.561,task,2021.1.4,Win32,60.75334143,628b806c463b948bc644b84f,62a3237a29f23531b5555fcb,,,,,,,,,,,,,,,,,,,,,,,,,,,,,,,,,,,,,,,,,,,,,,,,,,,,,,,,,,,,,,,,,,,,,,,,,,,,,,,,,,,,,,,,,,,,,,,,,,,,,,,
,,"[""period""]",0,[0.35200000000000387],5,0,5,0,1,5fa27e1a81b6374542bfc205,20,Mężczyzna,2022-06-10_12h57.24.561,task,2021.1.4,Win32,60.75334143,628b806c463b948bc644b84f,62a3237a29f23531b5555fcb,,,,,,,,,,,,,,,,,,,,,,,,,,,,,,,,,,,,,,,,,,,,,,,,,,,,,,,,,,,,,,,,,,,,,,,,,,,,,,,,,,,,,,,,,,,,,,,,,,,,,,,
,,"[""period""]",0,[0.40940000000594523],6,0,6,0,1,5fa27e1a81b6374542bfc205,20,Mężczyzna,2022-06-10_12h57.24.561,task,2021.1.4,Win32,60.75334143,628b806c463b948bc644b84f,62a3237a29f23531b5555fcb,,,,,,,,,,,,,,,,,,,,,,,,,,,,,,,,,,,,,,,,,,,,,,,,,,,,,,,,,,,,,,,,,,,,,,,,,,,,,,,,,,,,,,,,,,,,,,,,,,,,,,,
,,"[""comma""]",0,[0.3807999999970093],7,0,7,0,1,5fa27e1a81b6374542bfc205,20,Mężczyzna,2022-06-10_12h57.24.561,task,2021.1.4,Win32,60.75334143,628b806c463b948bc644b84f,62a3237a29f23531b5555fcb,,,,,,,,,,,,,,,,,,,,,,,,,,,,,,,,,,,,,,,,,,,,,,,,,,,,,,,,,,,,,,,,,,,,,,,,,,,,,,,,,,,,,,,,,,,,,,,,,,,,,,,
,,"[""period""]",0,[0.40170000000298955],8,0,8,0,1,5fa27e1a81b6374542bfc205,20,Mężczyzna,2022-06-10_12h57.24.561,task,2021.1.4,Win32,60.75334143,628b806c463b948bc644b84f,62a3237a29f23531b5555fcb,,,,,,,,,,,,,,,,,,,,,,,,,,,,,,,,,,,,,,,,,,,,,,,,,,,,,,,,,,,,,,,,,,,,,,,,,,,,,,,,,,,,,,,,,,,,,,,,,,,,,,,
,,"[""period""]",0,[0.6697000000029618],9,0,9,0,1,5fa27e1a81b6374542bfc205,20,Mężczyzna,2022-06-10_12h57.24.561,task,2021.1.4,Win32,60.75334143,628b806c463b948bc644b84f,62a3237a29f23531b5555fcb,,,,,,,,,,,,,,,,,,,,,,,,,,,,,,,,,,,,,,,,,,,,,,,,,,,,,,,,,,,,,,,,,,,,,,,,,,,,,,,,,,,,,,,,,,,,,,,,,,,,,,,
,,"[""comma""]",0,[0.2880000000000109],10,0,10,0,1,5fa27e1a81b6374542bfc205,20,Mężczyzna,2022-06-10_12h57.24.561,task,2021.1.4,Win32,60.75334143,628b806c463b948bc644b84f,62a3237a29f23531b5555fcb,,,,,,,,,,,,,,,,,,,,,,,,,,,,,,,,,,,,,,,,,,,,,,,,,,,,,,,,,,,,,,,,,,,,,,,,,,,,,,,,,,,,,,,,,,,,,,,,,,,,,,,
,,"[""comma""]",0,[0.24239999999849715],11,0,11,0,1,5fa27e1a81b6374542bfc205,20,Mężczyzna,2022-06-10_12h57.24.561,task,2021.1.4,Win32,60.75334143,628b806c463b948bc644b84f,62a3237a29f23531b5555fcb,,,,,,,,,,,,,,,,,,,,,,,,,,,,,,,,,,,,,,,,,,,,,,,,,,,,,,,,,,,,,,,,,,,,,,,,,,,,,,,,,,,,,,,,,,,,,,,,,,,,,,,
,,"[""period""]",0,[0.26149999999998386],12,0,12,0,1,5fa27e1a81b6374542bfc205,20,Mężczyzna,2022-06-10_12h57.24.561,task,2021.1.4,Win32,60.75334143,628b806c463b948bc644b84f,62a3237a29f23531b5555fcb,,,,,,,,,,,,,,,,,,,,,,,,,,,,,,,,,,,,,,,,,,,,,,,,,,,,,,,,,,,,,,,,,,,,,,,,,,,,,,,,,,,,,,,,,,,,,,,,,,,,,,,
,,"[""comma""]",0,[0.2248000000044783],13,0,13,0,1,5fa27e1a81b6374542bfc205,20,Mężczyzna,2022-06-10_12h57.24.561,task,2021.1.4,Win32,60.75334143,628b806c463b948bc644b84f,62a3237a29f23531b5555fcb,,,,,,,,,,,,,,,,,,,,,,,,,,,,,,,,,,,,,,,,,,,,,,,,,,,,,,,,,,,,,,,,,,,,,,,,,,,,,,,,,,,,,,,,,,,,,,,,,,,,,,,
,,"[""period""]",0,[0.28069999999553374],14,0,14,0,1,5fa27e1a81b6374542bfc205,20,Mężczyzna,2022-06-10_12h57.24.561,task,2021.1.4,Win32,60.75334143,628b806c463b948bc644b84f,62a3237a29f23531b5555fcb,,,,,,,,,,,,,,,,,,,,,,,,,,,,,,,,,,,,,,,,,,,,,,,,,,,,,,,,,,,,,,,,,,,,,,,,,,,,,,,,,,,,,,,,,,,,,,,,,,,,,,,
,,"[""period""]",0,[0.7318000000044833],15,0,15,0,1,5fa27e1a81b6374542bfc205,20,Mężczyzna,2022-06-10_12h57.24.561,task,2021.1.4,Win32,60.75334143,628b806c463b948bc644b84f,62a3237a29f23531b5555fcb,,,,,,,,,,,,,,,,,,,,,,,,,,,,,,,,,,,,,,,,,,,,,,,,,,,,,,,,,,,,,,,,,,,,,,,,,,,,,,,,,,,,,,,,,,,,,,,,,,,,,,,
,,"[""comma""]",0,[0.6702999999970416],16,0,16,0,1,5fa27e1a81b6374542bfc205,20,Mężczyzna,2022-06-10_12h57.24.561,task,2021.1.4,Win32,60.75334143,628b806c463b948bc644b84f,62a3237a29f23531b5555fcb,,,,,,,,,,,,,,,,,,,,,,,,,,,,,,,,,,,,,,,,,,,,,,,,,,,,,,,,,,,,,,,,,,,,,,,,,,,,,,,,,,,,,,,,,,,,,,,,,,,,,,,
,,"[""comma""]",0,[0.8068000000044719],17,0,17,0,1,5fa27e1a81b6374542bfc205,20,Mężczyzna,2022-06-10_12h57.24.561,task,2021.1.4,Win32,60.75334143,628b806c463b948bc644b84f,62a3237a29f23531b5555fcb,,,,,,,,,,,,,,,,,,,,,,,,,,,,,,,,,,,,,,,,,,,,,,,,,,,,,,,,,,,,,,,,,,,,,,,,,,,,,,,,,,,,,,,,,,,,,,,,,,,,,,,
,,"[""period""]",0,[0.3108000000044626],18,0,18,0,1,5fa27e1a81b6374542bfc205,20,Mężczyzna,2022-06-10_12h57.24.561,task,2021.1.4,Win32,60.75334143,628b806c463b948bc644b84f,62a3237a29f23531b5555fcb,,,,,,,,,,,,,,,,,,,,,,,,,,,,,,,,,,,,,,,,,,,,,,,,,,,,,,,,,,,,,,,,,,,,,,,,,,,,,,,,,,,,,,,,,,,,,,,,,,,,,,,
,,"[""comma""]",0,[0.2271999999955483],19,0,19,0,1,5fa27e1a81b6374542bfc205,20,Mężczyzna,2022-06-10_12h57.24.561,task,2021.1.4,Win32,60.75334143,628b806c463b948bc644b84f,62a3237a29f23531b5555fcb,,,,,,,,,,,,,,,,,,,,,,,,,,,,,,,,,,,,,,,,,,,,,,,,,,,,,,,,,,,,,,,,,,,,,,,,,,,,,,,,,,,,,,,,,,,,,,,,,,,,,,,
,,"[""period""]",0,[0.26460000000147943],20,0,20,0,1,5fa27e1a81b6374542bfc205,20,Mężczyzna,2022-06-10_12h57.24.561,task,2021.1.4,Win32,60.75334143,628b806c463b948bc644b84f,62a3237a29f23531b5555fcb,,,,,,,,,,,,,,,,,,,,,,,,,,,,,,,,,,,,,,,,,,,,,,,,,,,,,,,,,,,,,,,,,,,,,,,,,,,,,,,,,,,,,,,,,,,,,,,,,,,,,,,
,,"[""comma""]",0,[0.2664999999999793],21,0,21,0,1,5fa27e1a81b6374542bfc205,20,Mężczyzna,2022-06-10_12h57.24.561,task,2021.1.4,Win32,60.75334143,628b806c463b948bc644b84f,62a3237a29f23531b5555fcb,,,,,,,,,,,,,,,,,,,,,,,,,,,,,,,,,,,,,,,,,,,,,,,,,,,,,,,,,,,,,,,,,,,,,,,,,,,,,,,,,,,,,,,,,,,,,,,,,,,,,,,
,,"[""comma""]",0,[0.2822000000029732],22,0,22,0,1,5fa27e1a81b6374542bfc205,20,Mężczyzna,2022-06-10_12h57.24.561,task,2021.1.4,Win32,60.75334143,628b806c463b948bc644b84f,62a3237a29f23531b5555fcb,,,,,,,,,,,,,,,,,,,,,,,,,,,,,,,,,,,,,,,,,,,,,,,,,,,,,,,,,,,,,,,,,,,,,,,,,,,,,,,,,,,,,,,,,,,,,,,,,,,,,,,
,,"[""period""]",0,[0.2853999999985035],23,0,23,0,1,5fa27e1a81b6374542bfc205,20,Mężczyzna,2022-06-10_12h57.24.561,task,2021.1.4,Win32,60.75334143,628b806c463b948bc644b84f,62a3237a29f23531b5555fcb,,,,,,,,,,,,,,,,,,,,,,,,,,,,,,,,,,,,,,,,,,,,,,,,,,,,,,,,,,,,,,,,,,,,,,,,,,,,,,,,,,,,,,,,,,,,,,,,,,,,,,,
,,"[""period""]",0,[0.6261999999955208],24,0,24,0,1,5fa27e1a81b6374542bfc205,20,Mężczyzna,2022-06-10_12h57.24.561,task,2021.1.4,Win32,60.75334143,628b806c463b948bc644b84f,62a3237a29f23531b5555fcb,,,,,,,,,,,,,,,,,,,,,,,,,,,,,,,,,,,,,,,,,,,,,,,,,,,,,,,,,,,,,,,,,,,,,,,,,,,,,,,,,,,,,,,,,,,,,,,,,,,,,,,
,,"[""comma""]",0,[0.7053999999985194],25,0,25,0,1,5fa27e1a81b6374542bfc205,20,Mężczyzna,2022-06-10_12h57.24.561,task,2021.1.4,Win32,60.75334143,628b806c463b948bc644b84f,62a3237a29f23531b5555fcb,,,,,,,,,,,,,,,,,,,,,,,,,,,,,,,,,,,,,,,,,,,,,,,,,,,,,,,,,,,,,,,,,,,,,,,,,,,,,,,,,,,,,,,,,,,,,,,,,,,,,,,
,,"[""period""]",0,[1.0028999999985047],26,0,26,0,1,5fa27e1a81b6374542bfc205,20,Mężczyzna,2022-06-10_12h57.24.561,task,2021.1.4,Win32,60.75334143,628b806c463b948bc644b84f,62a3237a29f23531b5555fcb,,,,,,,,,,,,,,,,,,,,,,,,,,,,,,,,,,,,,,,,,,,,,,,,,,,,,,,,,,,,,,,,,,,,,,,,,,,,,,,,,,,,,,,,,,,,,,,,,,,,,,,
,,"[""comma""]",0,[0.39259999999401884],27,0,27,0,1,5fa27e1a81b6374542bfc205,20,Mężczyzna,2022-06-10_12h57.24.561,task,2021.1.4,Win32,60.75334143,628b806c463b948bc644b84f,62a3237a29f23531b5555fcb,,,,,,,,,,,,,,,,,,,,,,,,,,,,,,,,,,,,,,,,,,,,,,,,,,,,,,,,,,,,,,,,,,,,,,,,,,,,,,,,,,,,,,,,,,,,,,,,,,,,,,,
,,"[""comma""]",0,[0.42520000000297387],28,0,28,0,1,5fa27e1a81b6374542bfc205,20,Mężczyzna,2022-06-10_12h57.24.561,task,2021.1.4,Win32,60.75334143,628b806c463b948bc644b84f,62a3237a29f23531b5555fcb,,,,,,,,,,,,,,,,,,,,,,,,,,,,,,,,,,,,,,,,,,,,,,,,,,,,,,,,,,,,,,,,,,,,,,,,,,,,,,,,,,,,,,,,,,,,,,,,,,,,,,,
,,"[""period""]",0,[0.6131000000014808],29,0,29,0,1,5fa27e1a81b6374542bfc205,20,Mężczyzna,2022-06-10_12h57.24.561,task,2021.1.4,Win32,60.75334143,628b806c463b948bc644b84f,62a3237a29f23531b5555fcb,,,,,,,,,,,,,,,,,,,,,,,,,,,,,,,,,,,,,,,,,,,,,,,,,,,,,,,,,,,,,,,,,,,,,,,,,,,,,,,,,,,,,,,,,,,,,,,,,,,,,,,
,,"[""comma""]",0,[0.3106000000015001],30,0,30,0,1,5fa27e1a81b6374542bfc205,20,Mężczyzna,2022-06-10_12h57.24.561,task,2021.1.4,Win32,60.75334143,628b806c463b948bc644b84f,62a3237a29f23531b5555fcb,,,,,,,,,,,,,,,,,,,,,,,,,,,,,,,,,,,,,,,,,,,,,,,,,,,,,,,,,,,,,,,,,,,,,,,,,,,,,,,,,,,,,,,,,,,,,,,,,,,,,,,
,,"[""period""]",0,[0.2801000000014824],31,0,31,0,1,5fa27e1a81b6374542bfc205,20,Mężczyzna,2022-06-10_12h57.24.561,task,2021.1.4,Win32,60.75334143,628b806c463b948bc644b84f,62a3237a29f23531b5555fcb,,,,,,,,,,,,,,,,,,,,,,,,,,,,,,,,,,,,,,,,,,,,,,,,,,,,,,,,,,,,,,,,,,,,,,,,,,,,,,,,,,,,,,,,,,,,,,,,,,,,,,,
,,"[""comma""]",0,[0.2478999999985092],32,0,32,0,1,5fa27e1a81b6374542bfc205,20,Mężczyzna,2022-06-10_12h57.24.561,task,2021.1.4,Win32,60.75334143,628b806c463b948bc644b84f,62a3237a29f23531b5555fcb,,,,,,,,,,,,,,,,,,,,,,,,,,,,,,,,,,,,,,,,,,,,,,,,,,,,,,,,,,,,,,,,,,,,,,,,,,,,,,,,,,,,,,,,,,,,,,,,,,,,,,,
,,"[""period""]",0,[-0.016700000002970228],33,0,33,0,1,5fa27e1a81b6374542bfc205,20,Mężczyzna,2022-06-10_12h57.24.561,task,2021.1.4,Win32,60.75334143,628b806c463b948bc644b84f,62a3237a29f23531b5555fcb,,,,,,,,,,,,,,,,,,,,,,,,,,,,,,,,,,,,,,,,,,,,,,,,,,,,,,,,,,,,,,,,,,,,,,,,,,,,,,,,,,,,,,,,,,,,,,,,,,,,,,,
,,"[""period""]",0,[0.24610000000149057],34,0,34,0,1,5fa27e1a81b6374542bfc205,20,Mężczyzna,2022-06-10_12h57.24.561,task,2021.1.4,Win32,60.75334143,628b806c463b948bc644b84f,62a3237a29f23531b5555fcb,,,,,,,,,,,,,,,,,,,,,,,,,,,,,,,,,,,,,,,,,,,,,,,,,,,,,,,,,,,,,,,,,,,,,,,,,,,,,,,,,,,,,,,,,,,,,,,,,,,,,,,
,,"[""comma""]",0,[0.2394999999999925],35,0,35,0,1,5fa27e1a81b6374542bfc205,20,Mężczyzna,2022-06-10_12h57.24.561,task,2021.1.4,Win32,60.75334143,628b806c463b948bc644b84f,62a3237a29f23531b5555fcb,,,,,,,,,,,,,,,,,,,,,,,,,,,,,,,,,,,,,,,,,,,,,,,,,,,,,,,,,,,,,,,,,,,,,,,,,,,,,,,,,,,,,,,,,,,,,,,,,,,,,,,
,,"[""comma""]",0,[0.10750000000001592],36,0,36,0,1,5fa27e1a81b6374542bfc205,20,Mężczyzna,2022-06-10_12h57.24.561,task,2021.1.4,Win32,60.75334143,628b806c463b948bc644b84f,62a3237a29f23531b5555fcb,,,,,,,,,,,,,,,,,,,,,,,,,,,,,,,,,,,,,,,,,,,,,,,,,,,,,,,,,,,,,,,,,,,,,,,,,,,,,,,,,,,,,,,,,,,,,,,,,,,,,,,
,,"[""comma""]",0,[0.5678999999985024],37,0,37,0,1,5fa27e1a81b6374542bfc205,20,Mężczyzna,2022-06-10_12h57.24.561,task,2021.1.4,Win32,60.75334143,628b806c463b948bc644b84f,62a3237a29f23531b5555fcb,,,,,,,,,,,,,,,,,,,,,,,,,,,,,,,,,,,,,,,,,,,,,,,,,,,,,,,,,,,,,,,,,,,,,,,,,,,,,,,,,,,,,,,,,,,,,,,,,,,,,,,
,,"[""period""]",0,[0.3038999999985208],38,0,38,0,1,5fa27e1a81b6374542bfc205,20,Mężczyzna,2022-06-10_12h57.24.561,task,2021.1.4,Win32,60.75334143,628b806c463b948bc644b84f,62a3237a29f23531b5555fcb,,,,,,,,,,,,,,,,,,,,,,,,,,,,,,,,,,,,,,,,,,,,,,,,,,,,,,,,,,,,,,,,,,,,,,,,,,,,,,,,,,,,,,,,,,,,,,,,,,,,,,,
,,"[""comma""]",0,[0.26710000000147716],39,0,39,0,1,5fa27e1a81b6374542bfc205,20,Mężczyzna,2022-06-10_12h57.24.561,task,2021.1.4,Win32,60.75334143,628b806c463b948bc644b84f,62a3237a29f23531b5555fcb,,,,,,,,,,,,,,,,,,,,,,,,,,,,,,,,,,,,,,,,,,,,,,,,,,,,,,,,,,,,,,,,,,,,,,,,,,,,,,,,,,,,,,,,,,,,,,,,,,,,,,,
,,"[""period"",""period""]",0,"[0.19480000000447717,1.9364999999999952]",40,0,40,0,1,5fa27e1a81b6374542bfc205,20,Mężczyzna,2022-06-10_12h57.24.561,task,2021.1.4,Win32,60.75334143,628b806c463b948bc644b84f,62a3237a29f23531b5555fcb,,,,,,,,,,,,,,,,,,,,,,,,,,,,,,,,,,,,,,,,,,,,,,,,,,,,,,,,,,,,,,,,,,,,,,,,,,,,,,,,,,,,,,,,,,,,,,,,,,,,,,,
,,,0,,41,0,41,0,1,5fa27e1a81b6374542bfc205,20,Mężczyzna,2022-06-10_12h57.24.561,task,2021.1.4,Win32,60.75334143,628b806c463b948bc644b84f,62a3237a29f23531b5555fcb,,,,,,,,,,,,,,,,,,,,,,,,,,,,,,,,,,,,,,,,,,,,,,,,,,,,,,,,,,,,,,,,,,,,,,,,,,,,,,,,,,,,,,,,,,,,,,,,,,,,,,,
,,"[""comma""]",0,[0.26530000000448695],42,0,42,0,1,5fa27e1a81b6374542bfc205,20,Mężczyzna,2022-06-10_12h57.24.561,task,2021.1.4,Win32,60.75334143,628b806c463b948bc644b84f,62a3237a29f23531b5555fcb,,,,,,,,,,,,,,,,,,,,,,,,,,,,,,,,,,,,,,,,,,,,,,,,,,,,,,,,,,,,,,,,,,,,,,,,,,,,,,,,,,,,,,,,,,,,,,,,,,,,,,,
,,"[""period""]",0,[0.32380000000446785],43,0,43,0,1,5fa27e1a81b6374542bfc205,20,Mężczyzna,2022-06-10_12h57.24.561,task,2021.1.4,Win32,60.75334143,628b806c463b948bc644b84f,62a3237a29f23531b5555fcb,,,,,,,,,,,,,,,,,,,,,,,,,,,,,,,,,,,,,,,,,,,,,,,,,,,,,,,,,,,,,,,,,,,,,,,,,,,,,,,,,,,,,,,,,,,,,,,,,,,,,,,
,,"[""comma""]",0,[0.10310000000148989],44,0,44,0,1,5fa27e1a81b6374542bfc205,20,Mężczyzna,2022-06-10_12h57.24.561,task,2021.1.4,Win32,60.75334143,628b806c463b948bc644b84f,62a3237a29f23531b5555fcb,,,,,,,,,,,,,,,,,,,,,,,,,,,,,,,,,,,,,,,,,,,,,,,,,,,,,,,,,,,,,,,,,,,,,,,,,,,,,,,,,,,,,,,,,,,,,,,,,,,,,,,
,,"[""comma""]",0,[0.2942999999970368],45,0,45,0,1,5fa27e1a81b6374542bfc205,20,Mężczyzna,2022-06-10_12h57.24.561,task,2021.1.4,Win32,60.75334143,628b806c463b948bc644b84f,62a3237a29f23531b5555fcb,,,,,,,,,,,,,,,,,,,,,,,,,,,,,,,,,,,,,,,,,,,,,,,,,,,,,,,,,,,,,,,,,,,,,,,,,,,,,,,,,,,,,,,,,,,,,,,,,,,,,,,
,,"[""period""]",0,[0.35270000000298296],46,0,46,0,1,5fa27e1a81b6374542bfc205,20,Mężczyzna,2022-06-10_12h57.24.561,task,2021.1.4,Win32,60.75334143,628b806c463b948bc644b84f,62a3237a29f23531b5555fcb,,,,,,,,,,,,,,,,,,,,,,,,,,,,,,,,,,,,,,,,,,,,,,,,,,,,,,,,,,,,,,,,,,,,,,,,,,,,,,,,,,,,,,,,,,,,,,,,,,,,,,,
,,"[""period""]",0,[0.31520000000298865],47,0,47,0,1,5fa27e1a81b6374542bfc205,20,Mężczyzna,2022-06-10_12h57.24.561,task,2021.1.4,Win32,60.75334143,628b806c463b948bc644b84f,62a3237a29f23531b5555fcb,,,,,,,,,,,,,,,,,,,,,,,,,,,,,,,,,,,,,,,,,,,,,,,,,,,,,,,,,,,,,,,,,,,,,,,,,,,,,,,,,,,,,,,,,,,,,,,,,,,,,,,
,,"[""comma""]",0,[0.41149999999998954],48,0,48,0,1,5fa27e1a81b6374542bfc205,20,Mężczyzna,2022-06-10_12h57.24.561,task,2021.1.4,Win32,60.75334143,628b806c463b948bc644b84f,62a3237a29f23531b5555fcb,,,,,,,,,,,,,,,,,,,,,,,,,,,,,,,,,,,,,,,,,,,,,,,,,,,,,,,,,,,,,,,,,,,,,,,,,,,,,,,,,,,,,,,,,,,,,,,,,,,,,,,
,,"[""period""]",0,[0.31210000000146465],49,0,49,0,1,5fa27e1a81b6374542bfc205,20,Mężczyzna,2022-06-10_12h57.24.561,task,2021.1.4,Win32,60.75334143,628b806c463b948bc644b84f,62a3237a29f23531b5555fcb,,,,,,,,,,,,,,,,,,,,,,,,,,,,,,,,,,,,,,,,,,,,,,,,,,,,,,,,,,,,,,,,,,,,,,,,,,,,,,,,,,,,,,,,,,,,,,,,,,,,,,,
,,"[""comma""]",0,[0.3419000000059782],50,0,50,0,1,5fa27e1a81b6374542bfc205,20,Mężczyzna,2022-06-10_12h57.24.561,task,2021.1.4,Win32,60.75334143,628b806c463b948bc644b84f,62a3237a29f23531b5555fcb,,,,,,,,,,,,,,,,,,,,,,,,,,,,,,,,,,,,,,,,,,,,,,,,,,,,,,,,,,,,,,,,,,,,,,,,,,,,,,,,,,,,,,,,,,,,,,,,,,,,,,,
,,"[""period""]",0,[0.2623999999985074],51,0,51,0,1,5fa27e1a81b6374542bfc205,20,Mężczyzna,2022-06-10_12h57.24.561,task,2021.1.4,Win32,60.75334143,628b806c463b948bc644b84f,62a3237a29f23531b5555fcb,,,,,,,,,,,,,,,,,,,,,,,,,,,,,,,,,,,,,,,,,,,,,,,,,,,,,,,,,,,,,,,,,,,,,,,,,,,,,,,,,,,,,,,,,,,,,,,,,,,,,,,
,,"[""comma""]",0,[0.26400000000001],52,0,52,0,1,5fa27e1a81b6374542bfc205,20,Mężczyzna,2022-06-10_12h57.24.561,task,2021.1.4,Win32,60.75334143,628b806c463b948bc644b84f,62a3237a29f23531b5555fcb,,,,,,,,,,,,,,,,,,,,,,,,,,,,,,,,,,,,,,,,,,,,,,,,,,,,,,,,,,,,,,,,,,,,,,,,,,,,,,,,,,,,,,,,,,,,,,,,,,,,,,,
,,"[""comma""]",0,[0.24500000000000455],53,0,53,0,1,5fa27e1a81b6374542bfc205,20,Mężczyzna,2022-06-10_12h57.24.561,task,2021.1.4,Win32,60.75334143,628b806c463b948bc644b84f,62a3237a29f23531b5555fcb,,,,,,,,,,,,,,,,,,,,,,,,,,,,,,,,,,,,,,,,,,,,,,,,,,,,,,,,,,,,,,,,,,,,,,,,,,,,,,,,,,,,,,,,,,,,,,,,,,,,,,,
,,"[""period""]",0,[0.06660000000152877],54,0,54,0,1,5fa27e1a81b6374542bfc205,20,Mężczyzna,2022-06-10_12h57.24.561,task,2021.1.4,Win32,60.75334143,628b806c463b948bc644b84f,62a3237a29f23531b5555fcb,,,,,,,,,,,,,,,,,,,,,,,,,,,,,,,,,,,,,,,,,,,,,,,,,,,,,,,,,,,,,,,,,,,,,,,,,,,,,,,,,,,,,,,,,,,,,,,,,,,,,,,
,,"[""period""]",0,[0.2668999999985431],55,0,55,0,1,5fa27e1a81b6374542bfc205,20,Mężczyzna,2022-06-10_12h57.24.561,task,2021.1.4,Win32,60.75334143,628b806c463b948bc644b84f,62a3237a29f23531b5555fcb,,,,,,,,,,,,,,,,,,,,,,,,,,,,,,,,,,,,,,,,,,,,,,,,,,,,,,,,,,,,,,,,,,,,,,,,,,,,,,,,,,,,,,,,,,,,,,,,,,,,,,,
,,"[""period""]",0,[0.29910000000148784],56,0,56,0,1,5fa27e1a81b6374542bfc205,20,Mężczyzna,2022-06-10_12h57.24.561,task,2021.1.4,Win32,60.75334143,628b806c463b948bc644b84f,62a3237a29f23531b5555fcb,,,,,,,,,,,,,,,,,,,,,,,,,,,,,,,,,,,,,,,,,,,,,,,,,,,,,,,,,,,,,,,,,,,,,,,,,,,,,,,,,,,,,,,,,,,,,,,,,,,,,,,
,,"[""comma""]",0,[0.23620000000300934],57,0,57,0,1,5fa27e1a81b6374542bfc205,20,Mężczyzna,2022-06-10_12h57.24.561,task,2021.1.4,Win32,60.75334143,628b806c463b948bc644b84f,62a3237a29f23531b5555fcb,,,,,,,,,,,,,,,,,,,,,,,,,,,,,,,,,,,,,,,,,,,,,,,,,,,,,,,,,,,,,,,,,,,,,,,,,,,,,,,,,,,,,,,,,,,,,,,,,,,,,,,
,,"[""period""]",0,[0.2612000000029866],58,0,58,0,1,5fa27e1a81b6374542bfc205,20,Mężczyzna,2022-06-10_12h57.24.561,task,2021.1.4,Win32,60.75334143,628b806c463b948bc644b84f,62a3237a29f23531b5555fcb,,,,,,,,,,,,,,,,,,,,,,,,,,,,,,,,,,,,,,,,,,,,,,,,,,,,,,,,,,,,,,,,,,,,,,,,,,,,,,,,,,,,,,,,,,,,,,,,,,,,,,,
,,"[""comma""]",0,[0.269899999998529],59,0,59,0,1,5fa27e1a81b6374542bfc205,20,Mężczyzna,2022-06-10_12h57.24.561,task,2021.1.4,Win32,60.75334143,628b806c463b948bc644b84f,62a3237a29f23531b5555fcb,,,,,,,,,,,,,,,,,,,,,,,,,,,,,,,,,,,,,,,,,,,,,,,,,,,,,,,,,,,,,,,,,,,,,,,,,,,,,,,,,,,,,,,,,,,,,,,,,,,,,,,
,,"[""period""]",0,[0.49630000000445307],60,0,60,0,1,5fa27e1a81b6374542bfc205,20,Mężczyzna,2022-06-10_12h57.24.561,task,2021.1.4,Win32,60.75334143,628b806c463b948bc644b84f,62a3237a29f23531b5555fcb,,,,,,,,,,,,,,,,,,,,,,,,,,,,,,,,,,,,,,,,,,,,,,,,,,,,,,,,,,,,,,,,,,,,,,,,,,,,,,,,,,,,,,,,,,,,,,,,,,,,,,,
,,"[""period""]",0,[0.28630000000447353],61,0,61,0,1,5fa27e1a81b6374542bfc205,20,Mężczyzna,2022-06-10_12h57.24.561,task,2021.1.4,Win32,60.75334143,628b806c463b948bc644b84f,62a3237a29f23531b5555fcb,,,,,,,,,,,,,,,,,,,,,,,,,,,,,,,,,,,,,,,,,,,,,,,,,,,,,,,,,,,,,,,,,,,,,,,,,,,,,,,,,,,,,,,,,,,,,,,,,,,,,,,
,,"[""comma""]",0,[0.2672000000029584],62,0,62,0,1,5fa27e1a81b6374542bfc205,20,Mężczyzna,2022-06-10_12h57.24.561,task,2021.1.4,Win32,60.75334143,628b806c463b948bc644b84f,62a3237a29f23531b5555fcb,,,,,,,,,,,,,,,,,,,,,,,,,,,,,,,,,,,,,,,,,,,,,,,,,,,,,,,,,,,,,,,,,,,,,,,,,,,,,,,,,,,,,,,,,,,,,,,,,,,,,,,
,,"[""comma""]",0,[0.14869999999552874],63,0,63,0,1,5fa27e1a81b6374542bfc205,20,Mężczyzna,2022-06-10_12h57.24.561,task,2021.1.4,Win32,60.75334143,628b806c463b948bc644b84f,62a3237a29f23531b5555fcb,,,,,,,,,,,,,,,,,,,,,,,,,,,,,,,,,,,,,,,,,,,,,,,,,,,,,,,,,,,,,,,,,,,,,,,,,,,,,,,,,,,,,,,,,,,,,,,,,,,,,,,
,,"[""period""]",0,[0.25600000000002865],64,0,64,0,1,5fa27e1a81b6374542bfc205,20,Mężczyzna,2022-06-10_12h57.24.561,task,2021.1.4,Win32,60.75334143,628b806c463b948bc644b84f,62a3237a29f23531b5555fcb,,,,,,,,,,,,,,,,,,,,,,,,,,,,,,,,,,,,,,,,,,,,,,,,,,,,,,,,,,,,,,,,,,,,,,,,,,,,,,,,,,,,,,,,,,,,,,,,,,,,,,,
,,"[""comma""]",0,[0.25989999999848123],65,0,65,0,1,5fa27e1a81b6374542bfc205,20,Mężczyzna,2022-06-10_12h57.24.561,task,2021.1.4,Win32,60.75334143,628b806c463b948bc644b84f,62a3237a29f23531b5555fcb,,,,,,,,,,,,,,,,,,,,,,,,,,,,,,,,,,,,,,,,,,,,,,,,,,,,,,,,,,,,,,,,,,,,,,,,,,,,,,,,,,,,,,,,,,,,,,,,,,,,,,,
,,"[""period""]",0,[0.257000000000005],66,0,66,0,1,5fa27e1a81b6374542bfc205,20,Mężczyzna,2022-06-10_12h57.24.561,task,2021.1.4,Win32,60.75334143,628b806c463b948bc644b84f,62a3237a29f23531b5555fcb,,,,,,,,,,,,,,,,,,,,,,,,,,,,,,,,,,,,,,,,,,,,,,,,,,,,,,,,,,,,,,,,,,,,,,,,,,,,,,,,,,,,,,,,,,,,,,,,,,,,,,,
,,"[""period""]",0,[0.28339999999849397],67,0,67,0,1,5fa27e1a81b6374542bfc205,20,Mężczyzna,2022-06-10_12h57.24.561,task,2021.1.4,Win32,60.75334143,628b806c463b948bc644b84f,62a3237a29f23531b5555fcb,,,,,,,,,,,,,,,,,,,,,,,,,,,,,,,,,,,,,,,,,,,,,,,,,,,,,,,,,,,,,,,,,,,,,,,,,,,,,,,,,,,,,,,,,,,,,,,,,,,,,,,
,,"[""period""]",0,[0.487100000001476],68,0,68,0,1,5fa27e1a81b6374542bfc205,20,Mężczyzna,2022-06-10_12h57.24.561,task,2021.1.4,Win32,60.75334143,628b806c463b948bc644b84f,62a3237a29f23531b5555fcb,,,,,,,,,,,,,,,,,,,,,,,,,,,,,,,,,,,,,,,,,,,,,,,,,,,,,,,,,,,,,,,,,,,,,,,,,,,,,,,,,,,,,,,,,,,,,,,,,,,,,,,
,,"[""comma""]",0,[0.31850000000002865],69,0,69,0,1,5fa27e1a81b6374542bfc205,20,Mężczyzna,2022-06-10_12h57.24.561,task,2021.1.4,Win32,60.75334143,628b806c463b948bc644b84f,62a3237a29f23531b5555fcb,,,,,,,,,,,,,,,,,,,,,,,,,,,,,,,,,,,,,,,,,,,,,,,,,,,,,,,,,,,,,,,,,,,,,,,,,,,,,,,,,,,,,,,,,,,,,,,,,,,,,,,
,,"[""period""]",0,[0.24490000000594137],70,0,70,0,1,5fa27e1a81b6374542bfc205,20,Mężczyzna,2022-06-10_12h57.24.561,task,2021.1.4,Win32,60.75334143,628b806c463b948bc644b84f,62a3237a29f23531b5555fcb,,,,,,,,,,,,,,,,,,,,,,,,,,,,,,,,,,,,,,,,,,,,,,,,,,,,,,,,,,,,,,,,,,,,,,,,,,,,,,,,,,,,,,,,,,,,,,,,,,,,,,,
,,"[""comma"",""comma""]",0,"[0.21860000000151558,1.9666999999955692]",71,0,71,0,1,5fa27e1a81b6374542bfc205,20,Mężczyzna,2022-06-10_12h57.24.561,task,2021.1.4,Win32,60.75334143,628b806c463b948bc644b84f,62a3237a29f23531b5555fcb,,,,,,,,,,,,,,,,,,,,,,,,,,,,,,,,,,,,,,,,,,,,,,,,,,,,,,,,,,,,,,,,,,,,,,,,,,,,,,,,,,,,,,,,,,,,,,,,,,,,,,,
,,,0,,72,0,72,0,1,5fa27e1a81b6374542bfc205,20,Mężczyzna,2022-06-10_12h57.24.561,task,2021.1.4,Win32,60.75334143,628b806c463b948bc644b84f,62a3237a29f23531b5555fcb,,,,,,,,,,,,,,,,,,,,,,,,,,,,,,,,,,,,,,,,,,,,,,,,,,,,,,,,,,,,,,,,,,,,,,,,,,,,,,,,,,,,,,,,,,,,,,,,,,,,,,,
,,"[""comma""]",0,[0.2386000000014974],73,0,73,0,1,5fa27e1a81b6374542bfc205,20,Mężczyzna,2022-06-10_12h57.24.561,task,2021.1.4,Win32,60.75334143,628b806c463b948bc644b84f,62a3237a29f23531b5555fcb,,,,,,,,,,,,,,,,,,,,,,,,,,,,,,,,,,,,,,,,,,,,,,,,,,,,,,,,,,,,,,,,,,,,,,,,,,,,,,,,,,,,,,,,,,,,,,,,,,,,,,,
,,"[""period""]",0,[0.26369999999553784],74,0,74,0,1,5fa27e1a81b6374542bfc205,20,Mężczyzna,2022-06-10_12h57.24.561,task,2021.1.4,Win32,60.75334143,628b806c463b948bc644b84f,62a3237a29f23531b5555fcb,,,,,,,,,,,,,,,,,,,,,,,,,,,,,,,,,,,,,,,,,,,,,,,,,,,,,,,,,,,,,,,,,,,,,,,,,,,,,,,,,,,,,,,,,,,,,,,,,,,,,,,
,,"[""comma""]",0,[0.31679999999698794],75,0,75,0,1,5fa27e1a81b6374542bfc205,20,Mężczyzna,2022-06-10_12h57.24.561,task,2021.1.4,Win32,60.75334143,628b806c463b948bc644b84f,62a3237a29f23531b5555fcb,,,,,,,,,,,,,,,,,,,,,,,,,,,,,,,,,,,,,,,,,,,,,,,,,,,,,,,,,,,,,,,,,,,,,,,,,,,,,,,,,,,,,,,,,,,,,,,,,,,,,,,
,,"[""period""]",0,[0.2899999999999636],76,0,76,0,1,5fa27e1a81b6374542bfc205,20,Mężczyzna,2022-06-10_12h57.24.561,task,2021.1.4,Win32,60.75334143,628b806c463b948bc644b84f,62a3237a29f23531b5555fcb,,,,,,,,,,,,,,,,,,,,,,,,,,,,,,,,,,,,,,,,,,,,,,,,,,,,,,,,,,,,,,,,,,,,,,,,,,,,,,,,,,,,,,,,,,,,,,,,,,,,,,,
,,"[""comma""]",0,[0.3332999999970525],77,0,77,0,1,5fa27e1a81b6374542bfc205,20,Mężczyzna,2022-06-10_12h57.24.561,task,2021.1.4,Win32,60.75334143,628b806c463b948bc644b84f,62a3237a29f23531b5555fcb,,,,,,,,,,,,,,,,,,,,,,,,,,,,,,,,,,,,,,,,,,,,,,,,,,,,,,,,,,,,,,,,,,,,,,,,,,,,,,,,,,,,,,,,,,,,,,,,,,,,,,,
,,"[""period""]",0,[0.3229999999999791],78,0,78,0,1,5fa27e1a81b6374542bfc205,20,Mężczyzna,2022-06-10_12h57.24.561,task,2021.1.4,Win32,60.75334143,628b806c463b948bc644b84f,62a3237a29f23531b5555fcb,,,,,,,,,,,,,,,,,,,,,,,,,,,,,,,,,,,,,,,,,,,,,,,,,,,,,,,,,,,,,,,,,,,,,,,,,,,,,,,,,,,,,,,,,,,,,,,,,,,,,,,
,,"[""comma""]",0,[0.4188999999985299],79,0,79,0,1,5fa27e1a81b6374542bfc205,20,Mężczyzna,2022-06-10_12h57.24.561,task,2021.1.4,Win32,60.75334143,628b806c463b948bc644b84f,62a3237a29f23531b5555fcb,,,,,,,,,,,,,,,,,,,,,,,,,,,,,,,,,,,,,,,,,,,,,,,,,,,,,,,,,,,,,,,,,,,,,,,,,,,,,,,,,,,,,,,,,,,,,,,,,,,,,,,
,,"[""period""]",0,[0.26200000000000045],80,0,80,0,1,5fa27e1a81b6374542bfc205,20,Mężczyzna,2022-06-10_12h57.24.561,task,2021.1.4,Win32,60.75334143,628b806c463b948bc644b84f,62a3237a29f23531b5555fcb,,,,,,,,,,,,,,,,,,,,,,,,,,,,,,,,,,,,,,,,,,,,,,,,,,,,,,,,,,,,,,,,,,,,,,,,,,,,,,,,,,,,,,,,,,,,,,,,,,,,,,,
,,"[""comma""]",0,[0.27620000000297296],81,0,81,0,1,5fa27e1a81b6374542bfc205,20,Mężczyzna,2022-06-10_12h57.24.561,task,2021.1.4,Win32,60.75334143,628b806c463b948bc644b84f,62a3237a29f23531b5555fcb,,,,,,,,,,,,,,,,,,,,,,,,,,,,,,,,,,,,,,,,,,,,,,,,,,,,,,,,,,,,,,,,,,,,,,,,,,,,,,,,,,,,,,,,,,,,,,,,,,,,,,,
,,"[""period""]",0,[0.27610000000152013],82,0,82,0,1,5fa27e1a81b6374542bfc205,20,Mężczyzna,2022-06-10_12h57.24.561,task,2021.1.4,Win32,60.75334143,628b806c463b948bc644b84f,62a3237a29f23531b5555fcb,,,,,,,,,,,,,,,,,,,,,,,,,,,,,,,,,,,,,,,,,,,,,,,,,,,,,,,,,,,,,,,,,,,,,,,,,,,,,,,,,,,,,,,,,,,,,,,,,,,,,,,
,,"[""period""]",0,[0.26000000000004775],83,0,83,0,1,5fa27e1a81b6374542bfc205,20,Mężczyzna,2022-06-10_12h57.24.561,task,2021.1.4,Win32,60.75334143,628b806c463b948bc644b84f,62a3237a29f23531b5555fcb,,,,,,,,,,,,,,,,,,,,,,,,,,,,,,,,,,,,,,,,,,,,,,,,,,,,,,,,,,,,,,,,,,,,,,,,,,,,,,,,,,,,,,,,,,,,,,,,,,,,,,,
,,"[""period""]",0,[0.26650000000000773],84,0,84,0,1,5fa27e1a81b6374542bfc205,20,Mężczyzna,2022-06-10_12h57.24.561,task,2021.1.4,Win32,60.75334143,628b806c463b948bc644b84f,62a3237a29f23531b5555fcb,,,,,,,,,,,,,,,,,,,,,,,,,,,,,,,,,,,,,,,,,,,,,,,,,,,,,,,,,,,,,,,,,,,,,,,,,,,,,,,,,,,,,,,,,,,,,,,,,,,,,,,
,,"[""period""]",0,[0.33829999999704796],85,0,85,0,1,5fa27e1a81b6374542bfc205,20,Mężczyzna,2022-06-10_12h57.24.561,task,2021.1.4,Win32,60.75334143,628b806c463b948bc644b84f,62a3237a29f23531b5555fcb,,,,,,,,,,,,,,,,,,,,,,,,,,,,,,,,,,,,,,,,,,,,,,,,,,,,,,,,,,,,,,,,,,,,,,,,,,,,,,,,,,,,,,,,,,,,,,,,,,,,,,,
,,"[""comma""]",0,[0.28070000000298023],86,0,86,0,1,5fa27e1a81b6374542bfc205,20,Mężczyzna,2022-06-10_12h57.24.561,task,2021.1.4,Win32,60.75334143,628b806c463b948bc644b84f,62a3237a29f23531b5555fcb,,,,,,,,,,,,,,,,,,,,,,,,,,,,,,,,,,,,,,,,,,,,,,,,,,,,,,,,,,,,,,,,,,,,,,,,,,,,,,,,,,,,,,,,,,,,,,,,,,,,,,,
,,"[""period"",""comma""]",0,"[0.23630000000446216,1.8613000000044622]",87,0,87,0,1,5fa27e1a81b6374542bfc205,20,Mężczyzna,2022-06-10_12h57.24.561,task,2021.1.4,Win32,60.75334143,628b806c463b948bc644b84f,62a3237a29f23531b5555fcb,,,,,,,,,,,,,,,,,,,,,,,,,,,,,,,,,,,,,,,,,,,,,,,,,,,,,,,,,,,,,,,,,,,,,,,,,,,,,,,,,,,,,,,,,,,,,,,,,,,,,,,
,,"[""comma""]",0,[1.8998999999985244],88,0,88,0,1,5fa27e1a81b6374542bfc205,20,Mężczyzna,2022-06-10_12h57.24.561,task,2021.1.4,Win32,60.75334143,628b806c463b948bc644b84f,62a3237a29f23531b5555fcb,,,,,,,,,,,,,,,,,,,,,,,,,,,,,,,,,,,,,,,,,,,,,,,,,,,,,,,,,,,,,,,,,,,,,,,,,,,,,,,,,,,,,,,,,,,,,,,,,,,,,,,
,,,0,,89,0,89,0,1,5fa27e1a81b6374542bfc205,20,Mężczyzna,2022-06-10_12h57.24.561,task,2021.1.4,Win32,60.75334143,628b806c463b948bc644b84f,62a3237a29f23531b5555fcb,,,,,,,,,,,,,,,,,,,,,,,,,,,,,,,,,,,,,,,,,,,,,,,,,,,,,,,,,,,,,,,,,,,,,,,,,,,,,,,,,,,,,,,,,,,,,,,,,,,,,,,
,,"[""comma""]",0,[0.2337000000030116],90,0,90,0,1,5fa27e1a81b6374542bfc205,20,Mężczyzna,2022-06-10_12h57.24.561,task,2021.1.4,Win32,60.75334143,628b806c463b948bc644b84f,62a3237a29f23531b5555fcb,,,,,,,,,,,,,,,,,,,,,,,,,,,,,,,,,,,,,,,,,,,,,,,,,,,,,,,,,,,,,,,,,,,,,,,,,,,,,,,,,,,,,,,,,,,,,,,,,,,,,,,
,,"[""period""]",0,[0.24450000000001637],91,0,91,0,1,5fa27e1a81b6374542bfc205,20,Mężczyzna,2022-06-10_12h57.24.561,task,2021.1.4,Win32,60.75334143,628b806c463b948bc644b84f,62a3237a29f23531b5555fcb,,,,,,,,,,,,,,,,,,,,,,,,,,,,,,,,,,,,,,,,,,,,,,,,,,,,,,,,,,,,,,,,,,,,,,,,,,,,,,,,,,,,,,,,,,,,,,,,,,,,,,,
,,"[""comma""]",0,[0.1686000000015042],92,0,92,0,1,5fa27e1a81b6374542bfc205,20,Mężczyzna,2022-06-10_12h57.24.561,task,2021.1.4,Win32,60.75334143,628b806c463b948bc644b84f,62a3237a29f23531b5555fcb,,,,,,,,,,,,,,,,,,,,,,,,,,,,,,,,,,,,,,,,,,,,,,,,,,,,,,,,,,,,,,,,,,,,,,,,,,,,,,,,,,,,,,,,,,,,,,,,,,,,,,,
,,"[""comma""]",0,[0.2241000000014992],93,0,93,0,1,5fa27e1a81b6374542bfc205,20,Mężczyzna,2022-06-10_12h57.24.561,task,2021.1.4,Win32,60.75334143,628b806c463b948bc644b84f,62a3237a29f23531b5555fcb,,,,,,,,,,,,,,,,,,,,,,,,,,,,,,,,,,,,,,,,,,,,,,,,,,,,,,,,,,,,,,,,,,,,,,,,,,,,,,,,,,,,,,,,,,,,,,,,,,,,,,,
,,"[""period"",""comma""]",0,"[0.13910000000146283,1.9668999999984749]",94,0,94,0,1,5fa27e1a81b6374542bfc205,20,Mężczyzna,2022-06-10_12h57.24.561,task,2021.1.4,Win32,60.75334143,628b806c463b948bc644b84f,62a3237a29f23531b5555fcb,,,,,,,,,,,,,,,,,,,,,,,,,,,,,,,,,,,,,,,,,,,,,,,,,,,,,,,,,,,,,,,,,,,,,,,,,,,,,,,,,,,,,,,,,,,,,,,,,,,,,,,
,,"[""period""]",0,[1.9011999999955265],95,0,95,0,1,5fa27e1a81b6374542bfc205,20,Mężczyzna,2022-06-10_12h57.24.561,task,2021.1.4,Win32,60.75334143,628b806c463b948bc644b84f,62a3237a29f23531b5555fcb,,,,,,,,,,,,,,,,,,,,,,,,,,,,,,,,,,,,,,,,,,,,,,,,,,,,,,,,,,,,,,,,,,,,,,,,,,,,,,,,,,,,,,,,,,,,,,,,,,,,,,,
,,,0,,96,0,96,0,1,5fa27e1a81b6374542bfc205,20,Mężczyzna,2022-06-10_12h57.24.561,task,2021.1.4,Win32,60.75334143,628b806c463b948bc644b84f,62a3237a29f23531b5555fcb,,,,,,,,,,,,,,,,,,,,,,,,,,,,,,,,,,,,,,,,,,,,,,,,,,,,,,,,,,,,,,,,,,,,,,,,,,,,,,,,,,,,,,,,,,,,,,,,,,,,,,,
,,"[""period""]",0,[0.2573999999984835],97,0,97,0,1,5fa27e1a81b6374542bfc205,20,Mężczyzna,2022-06-10_12h57.24.561,task,2021.1.4,Win32,60.75334143,628b806c463b948bc644b84f,62a3237a29f23531b5555fcb,,,,,,,,,,,,,,,,,,,,,,,,,,,,,,,,,,,,,,,,,,,,,,,,,,,,,,,,,,,,,,,,,,,,,,,,,,,,,,,,,,,,,,,,,,,,,,,,,,,,,,,
,,"[""comma""]",0,[0.21960000000149194],98,0,98,0,1,5fa27e1a81b6374542bfc205,20,Mężczyzna,2022-06-10_12h57.24.561,task,2021.1.4,Win32,60.75334143,628b806c463b948bc644b84f,62a3237a29f23531b5555fcb,,,,,,,,,,,,,,,,,,,,,,,,,,,,,,,,,,,,,,,,,,,,,,,,,,,,,,,,,,,,,,,,,,,,,,,,,,,,,,,,,,,,,,,,,,,,,,,,,,,,,,,
,,"[""comma""]",0,[0.2416000000014833],99,0,99,0,1,5fa27e1a81b6374542bfc205,20,Mężczyzna,2022-06-10_12h57.24.561,task,2021.1.4,Win32,60.75334143,628b806c463b948bc644b84f,62a3237a29f23531b5555fcb,,,,,,,,,,,,,,,,,,,,,,,,,,,,,,,,,,,,,,,,,,,,,,,,,,,,,,,,,,,,,,,,,,,,,,,,,,,,,,,,,,,,,,,,,,,,,,,,,,,,,,,
,,"[""comma""]",0,[0.23669999999555102],100,0,100,0,1,5fa27e1a81b6374542bfc205,20,Mężczyzna,2022-06-10_12h57.24.561,task,2021.1.4,Win32,60.75334143,628b806c463b948bc644b84f,62a3237a29f23531b5555fcb,,,,,,,,,,,,,,,,,,,,,,,,,,,,,,,,,,,,,,,,,,,,,,,,,,,,,,,,,,,,,,,,,,,,,,,,,,,,,,,,,,,,,,,,,,,,,,,,,,,,,,,
,,"[""comma""]",0,[0.21980000000445443],101,0,101,0,1,5fa27e1a81b6374542bfc205,20,Mężczyzna,2022-06-10_12h57.24.561,task,2021.1.4,Win32,60.75334143,628b806c463b948bc644b84f,62a3237a29f23531b5555fcb,,,,,,,,,,,,,,,,,,,,,,,,,,,,,,,,,,,,,,,,,,,,,,,,,,,,,,,,,,,,,,,,,,,,,,,,,,,,,,,,,,,,,,,,,,,,,,,,,,,,,,,
,,"[""period""]",0,[0.027199999995559665],102,0,102,0,1,5fa27e1a81b6374542bfc205,20,Mężczyzna,2022-06-10_12h57.24.561,task,2021.1.4,Win32,60.75334143,628b806c463b948bc644b84f,62a3237a29f23531b5555fcb,,,,,,,,,,,,,,,,,,,,,,,,,,,,,,,,,,,,,,,,,,,,,,,,,,,,,,,,,,,,,,,,,,,,,,,,,,,,,,,,,,,,,,,,,,,,,,,,,,,,,,,
,,"[""period""]",0,[0.27909999999405954],103,0,103,0,1,5fa27e1a81b6374542bfc205,20,Mężczyzna,2022-06-10_12h57.24.561,task,2021.1.4,Win32,60.75334143,628b806c463b948bc644b84f,62a3237a29f23531b5555fcb,,,,,,,,,,,,,,,,,,,,,,,,,,,,,,,,,,,,,,,,,,,,,,,,,,,,,,,,,,,,,,,,,,,,,,,,,,,,,,,,,,,,,,,,,,,,,,,,,,,,,,,
,,"[""comma""]",0,[0.29810000000145465],104,0,104,0,1,5fa27e1a81b6374542bfc205,20,Mężczyzna,2022-06-10_12h57.24.561,task,2021.1.4,Win32,60.75334143,628b806c463b948bc644b84f,62a3237a29f23531b5555fcb,,,,,,,,,,,,,,,,,,,,,,,,,,,,,,,,,,,,,,,,,,,,,,,,,,,,,,,,,,,,,,,,,,,,,,,,,,,,,,,,,,,,,,,,,,,,,,,,,,,,,,,
,,"[""period""]",0,[0.5567999999970539],105,0,105,0,1,5fa27e1a81b6374542bfc205,20,Mężczyzna,2022-06-10_12h57.24.561,task,2021.1.4,Win32,60.75334143,628b806c463b948bc644b84f,62a3237a29f23531b5555fcb,,,,,,,,,,,,,,,,,,,,,,,,,,,,,,,,,,,,,,,,,,,,,,,,,,,,,,,,,,,,,,,,,,,,,,,,,,,,,,,,,,,,,,,,,,,,,,,,,,,,,,,
,,"[""comma""]",0,[0.34639999999848214],106,0,106,0,1,5fa27e1a81b6374542bfc205,20,Mężczyzna,2022-06-10_12h57.24.561,task,2021.1.4,Win32,60.75334143,628b806c463b948bc644b84f,62a3237a29f23531b5555fcb,,,,,,,,,,,,,,,,,,,,,,,,,,,,,,,,,,,,,,,,,,,,,,,,,,,,,,,,,,,,,,,,,,,,,,,,,,,,,,,,,,,,,,,,,,,,,,,,,,,,,,,
,,"[""comma""]",0,[0.2231999999955292],107,0,107,0,1,5fa27e1a81b6374542bfc205,20,Mężczyzna,2022-06-10_12h57.24.561,task,2021.1.4,Win32,60.75334143,628b806c463b948bc644b84f,62a3237a29f23531b5555fcb,,,,,,,,,,,,,,,,,,,,,,,,,,,,,,,,,,,,,,,,,,,,,,,,,,,,,,,,,,,,,,,,,,,,,,,,,,,,,,,,,,,,,,,,,,,,,,,,,,,,,,,
,,"[""period""]",0,[0.027699999995490998],108,0,108,0,1,5fa27e1a81b6374542bfc205,20,Mężczyzna,2022-06-10_12h57.24.561,task,2021.1.4,Win32,60.75334143,628b806c463b948bc644b84f,62a3237a29f23531b5555fcb,,,,,,,,,,,,,,,,,,,,,,,,,,,,,,,,,,,,,,,,,,,,,,,,,,,,,,,,,,,,,,,,,,,,,,,,,,,,,,,,,,,,,,,,,,,,,,,,,,,,,,,
,,"[""period""]",0,[0.0625],109,0,109,0,1,5fa27e1a81b6374542bfc205,20,Mężczyzna,2022-06-10_12h57.24.561,task,2021.1.4,Win32,60.75334143,628b806c463b948bc644b84f,62a3237a29f23531b5555fcb,,,,,,,,,,,,,,,,,,,,,,,,,,,,,,,,,,,,,,,,,,,,,,,,,,,,,,,,,,,,,,,,,,,,,,,,,,,,,,,,,,,,,,,,,,,,,,,,,,,,,,,
,,"[""comma""]",0,[0.48569999999557467],110,0,110,0,1,5fa27e1a81b6374542bfc205,20,Mężczyzna,2022-06-10_12h57.24.561,task,2021.1.4,Win32,60.75334143,628b806c463b948bc644b84f,62a3237a29f23531b5555fcb,,,,,,,,,,,,,,,,,,,,,,,,,,,,,,,,,,,,,,,,,,,,,,,,,,,,,,,,,,,,,,,,,,,,,,,,,,,,,,,,,,,,,,,,,,,,,,,,,,,,,,,
,,"[""comma""]",0,[0.2401999999955251],111,0,111,0,1,5fa27e1a81b6374542bfc205,20,Mężczyzna,2022-06-10_12h57.24.561,task,2021.1.4,Win32,60.75334143,628b806c463b948bc644b84f,62a3237a29f23531b5555fcb,,,,,,,,,,,,,,,,,,,,,,,,,,,,,,,,,,,,,,,,,,,,,,,,,,,,,,,,,,,,,,,,,,,,,,,,,,,,,,,,,,,,,,,,,,,,,,,,,,,,,,,
,,"[""period""]",0,[0.32619999999553784],112,0,112,0,1,5fa27e1a81b6374542bfc205,20,Mężczyzna,2022-06-10_12h57.24.561,task,2021.1.4,Win32,60.75334143,628b806c463b948bc644b84f,62a3237a29f23531b5555fcb,,,,,,,,,,,,,,,,,,,,,,,,,,,,,,,,,,,,,,,,,,,,,,,,,,,,,,,,,,,,,,,,,,,,,,,,,,,,,,,,,,,,,,,,,,,,,,,,,,,,,,,
,,"[""comma""]",0,[0.1452000000029443],113,0,113,0,1,5fa27e1a81b6374542bfc205,20,Mężczyzna,2022-06-10_12h57.24.561,task,2021.1.4,Win32,60.75334143,628b806c463b948bc644b84f,62a3237a29f23531b5555fcb,,,,,,,,,,,,,,,,,,,,,,,,,,,,,,,,,,,,,,,,,,,,,,,,,,,,,,,,,,,,,,,,,,,,,,,,,,,,,,,,,,,,,,,,,,,,,,,,,,,,,,,
,,"[""period""]",0,[0.08449999999999136],114,0,114,0,1,5fa27e1a81b6374542bfc205,20,Mężczyzna,2022-06-10_12h57.24.561,task,2021.1.4,Win32,60.75334143,628b806c463b948bc644b84f,62a3237a29f23531b5555fcb,,,,,,,,,,,,,,,,,,,,,,,,,,,,,,,,,,,,,,,,,,,,,,,,,,,,,,,,,,,,,,,,,,,,,,,,,,,,,,,,,,,,,,,,,,,,,,,,,,,,,,,
,,"[""period""]",0,[0.08639999999849124],115,0,115,0,1,5fa27e1a81b6374542bfc205,20,Mężczyzna,2022-06-10_12h57.24.561,task,2021.1.4,Win32,60.75334143,628b806c463b948bc644b84f,62a3237a29f23531b5555fcb,,,,,,,,,,,,,,,,,,,,,,,,,,,,,,,,,,,,,,,,,,,,,,,,,,,,,,,,,,,,,,,,,,,,,,,,,,,,,,,,,,,,,,,,,,,,,,,,,,,,,,,
,,"[""comma""]",0,[0.045099999994022255],116,0,116,0,1,5fa27e1a81b6374542bfc205,20,Mężczyzna,2022-06-10_12h57.24.561,task,2021.1.4,Win32,60.75334143,628b806c463b948bc644b84f,62a3237a29f23531b5555fcb,,,,,,,,,,,,,,,,,,,,,,,,,,,,,,,,,,,,,,,,,,,,,,,,,,,,,,,,,,,,,,,,,,,,,,,,,,,,,,,,,,,,,,,,,,,,,,,,,,,,,,,
,,"[""comma""]",0,[0.12430000000443897],117,0,117,0,1,5fa27e1a81b6374542bfc205,20,Mężczyzna,2022-06-10_12h57.24.561,task,2021.1.4,Win32,60.75334143,628b806c463b948bc644b84f,62a3237a29f23531b5555fcb,,,,,,,,,,,,,,,,,,,,,,,,,,,,,,,,,,,,,,,,,,,,,,,,,,,,,,,,,,,,,,,,,,,,,,,,,,,,,,,,,,,,,,,,,,,,,,,,,,,,,,,
,,"[""period""]",0,[0.32610000000147465],118,0,118,0,1,5fa27e1a81b6374542bfc205,20,Mężczyzna,2022-06-10_12h57.24.561,task,2021.1.4,Win32,60.75334143,628b806c463b948bc644b84f,62a3237a29f23531b5555fcb,,,,,,,,,,,,,,,,,,,,,,,,,,,,,,,,,,,,,,,,,,,,,,,,,,,,,,,,,,,,,,,,,,,,,,,,,,,,,,,,,,,,,,,,,,,,,,,,,,,,,,,
,,"[""comma""]",0,[0.26300000000003365],119,0,119,0,1,5fa27e1a81b6374542bfc205,20,Mężczyzna,2022-06-10_12h57.24.561,task,2021.1.4,Win32,60.75334143,628b806c463b948bc644b84f,62a3237a29f23531b5555fcb,,,,,,,,,,,,,,,,,,,,,,,,,,,,,,,,,,,,,,,,,,,,,,,,,,,,,,,,,,,,,,,,,,,,,,,,,,,,,,,,,,,,,,,,,,,,,,,,,,,,,,,
,,,,,,,,,,5fa27e1a81b6374542bfc205,20,Mężczyzna,2022-06-10_12h57.24.561,task,2021.1.4,Win32,60.75334143,628b806c463b948bc644b84f,62a3237a29f23531b5555fcb,space,23.886,space,8.8634,0,0,0,0,1,X V Q F H G B L J M P D K C T S W R N Z,,,,,,,,,,,,,,,,,,,,,,,,,,,,,,,,,,,,,,,,,,,,,,,,,,,,,,,,,,,,,,,,,,,,,,,,,,,,,,,,,,,,,,,,,,,,,
,,,,,,,,,,5fa27e1a81b6374542bfc205,20,Mężczyzna,2022-06-10_12h57.24.561,task,2021.1.4,Win32,60.75334143,628b806c463b948bc644b84f,62a3237a29f23531b5555fcb,,,,,1,0,1,0,1,X V Q F H G B L J M P D K C T S W R N Z,,,,,,,,,,,,,,,,,,,,,,,,,,,,,,,,,,,,,,,,,,,,,,,,,,,,,,,,,,,,,,,,,,,,,,,,,,,,,,,,,,,,,,,,,,,,,
,,,,,,,,,,5fa27e1a81b6374542bfc205,20,Mężczyzna,2022-06-10_12h57.24.561,task,2021.1.4,Win32,60.75334143,628b806c463b948bc644b84f,62a3237a29f23531b5555fcb,,,,,,,,,,,zx,"[""z"",""x""]","[1.8547000000029925,2.4598000000044635,3.8939000000059423]",1,ZX,0,0,0,0,1,,,,,,,,,,,,,,,,,,,,,,,,,,,,,,,,,,,,,,,,,,,,,,,,,,,,,,,,,,,,,,,,,,,,,,,,,,,,,,,,,,,
,,,,,,,,,,5fa27e1a81b6374542bfc205,20,Mężczyzna,2022-06-10_12h57.24.561,task,2021.1.4,Win32,60.75334143,628b806c463b948bc644b84f,62a3237a29f23531b5555fcb,,,,,0,0,0,0,1,X V Q F H G B L J M P D K C T S W R N Z,,,,,,,,,,,,,,,,,,,,,,,,,,,,,,,,,,,,,,,,,,,,,,,,,,,,,,,,,,,,,,,,,,,,,,,,,,,,,,,,,,,,,,,,,,,,,
,,,,,,,,,,5fa27e1a81b6374542bfc205,20,Mężczyzna,2022-06-10_12h57.24.561,task,2021.1.4,Win32,60.75334143,628b806c463b948bc644b84f,62a3237a29f23531b5555fcb,,,,,1,0,1,0,1,X V Q F H G B L J M P D K C T S W R N Z,,,,,,,,,,,,,,,,,,,,,,,,,,,,,,,,,,,,,,,,,,,,,,,,,,,,,,,,,,,,,,,,,,,,,,,,,,,,,,,,,,,,,,,,,,,,,
,,,,,,,,,,5fa27e1a81b6374542bfc205,20,Mężczyzna,2022-06-10_12h57.24.561,task,2021.1.4,Win32,60.75334143,628b806c463b948bc644b84f,62a3237a29f23531b5555fcb,,,,,,,,,,,fx,"[""f"",""x""]","[0.6976999999955069,1.2586999999954855,1.6989999999999554]",1,FX,1,0,1,0,1,,,,,,,,,,,,,,,,,,,,,,,,,,,,,,,,,,,,,,,,,,,,,,,,,,,,,,,,,,,,,,,,,,,,,,,,,,,,,,,,,,,
,,,,,,,,,,5fa27e1a81b6374542bfc205,20,Mężczyzna,2022-06-10_12h57.24.561,task,2021.1.4,Win32,60.75334143,628b806c463b948bc644b84f,62a3237a29f23531b5555fcb,,,,,0,0,0,0,1,X V Q F H G B L J M P D K C T S W R N Z,,,,,,,,,,,,,,,,,,,,,,,,,,,,,,,,,,,,,,,,,,,,,,,,,,,,,,,,,,,,,,,,,,,,,,,,,,,,,,,,,,,,,,,,,,,,,
,,,,,,,,,,5fa27e1a81b6374542bfc205,20,Mężczyzna,2022-06-10_12h57.24.561,task,2021.1.4,Win32,60.75334143,628b806c463b948bc644b84f,62a3237a29f23531b5555fcb,,,,,1,0,1,0,1,X V Q F H G B L J M P D K C T S W R N Z,,,,,,,,,,,,,,,,,,,,,,,,,,,,,,,,,,,,,,,,,,,,,,,,,,,,,,,,,,,,,,,,,,,,,,,,,,,,,,,,,,,,,,,,,,,,,
,,,,,,,,,,5fa27e1a81b6374542bfc205,20,Mężczyzna,2022-06-10_12h57.24.561,task,2021.1.4,Win32,60.75334143,628b806c463b948bc644b84f,62a3237a29f23531b5555fcb,,,,,2,0,2,0,1,X V Q F H G B L J M P D K C T S W R N Z,,,,,,,,,,,,,,,,,,,,,,,,,,,,,,,,,,,,,,,,,,,,,,,,,,,,,,,,,,,,,,,,,,,,,,,,,,,,,,,,,,,,,,,,,,,,,
,,,,,,,,,,5fa27e1a81b6374542bfc205,20,Mężczyzna,2022-06-10_12h57.24.561,task,2021.1.4,Win32,60.75334143,628b806c463b948bc644b84f,62a3237a29f23531b5555fcb,,,,,,,,,,,sxt,"[""s"",""x"",""t""]","[0.8174999999999955,1.2035000000000196,1.7027000000030057,2.7420000000000186]",1,SXT,2,0,2,0,1,,,,,,,,,,,,,,,,,,,,,,,,,,,,,,,,,,,,,,,,,,,,,,,,,,,,,,,,,,,,,,,,,,,,,,,,,,,,,,,,,,,
,,,,,,,,,,5fa27e1a81b6374542bfc205,20,Mężczyzna,2022-06-10_12h57.24.561,task,2021.1.4,Win32,60.75334143,628b806c463b948bc644b84f,62a3237a29f23531b5555fcb,,,,,0,0,0,0,1,X V Q F H G B L J M P D K C T S W R N Z,,,,,,,,,,,,,,,,,,,,,,,,,,,,,,,,,,,,,,,,,,,,,,,,,,,,,,,,,,,,,,,,,,,,,,,,,,,,,,,,,,,,,,,,,,,,,
,,,,,,,,,,5fa27e1a81b6374542bfc205,20,Mężczyzna,2022-06-10_12h57.24.561,task,2021.1.4,Win32,60.75334143,628b806c463b948bc644b84f,62a3237a29f23531b5555fcb,,,,,1,0,1,0,1,X V Q F H G B L J M P D K C T S W R N Z,,,,,,,,,,,,,,,,,,,,,,,,,,,,,,,,,,,,,,,,,,,,,,,,,,,,,,,,,,,,,,,,,,,,,,,,,,,,,,,,,,,,,,,,,,,,,
,,,,,,,,,,5fa27e1a81b6374542bfc205,20,Mężczyzna,2022-06-10_12h57.24.561,task,2021.1.4,Win32,60.75334143,628b806c463b948bc644b84f,62a3237a29f23531b5555fcb,,,,,2,0,2,0,1,X V Q F H G B L J M P D K C T S W R N Z,,,,,,,,,,,,,,,,,,,,,,,,,,,,,,,,,,,,,,,,,,,,,,,,,,,,,,,,,,,,,,,,,,,,,,,,,,,,,,,,,,,,,,,,,,,,,
,,,,,,,,,,5fa27e1a81b6374542bfc205,20,Mężczyzna,2022-06-10_12h57.24.561,task,2021.1.4,Win32,60.75334143,628b806c463b948bc644b84f,62a3237a29f23531b5555fcb,,,,,,,,,,,bkt,"[""b"",""k"",""t""]","[0.5117000000029748,0.6847000000029766,0.793700000002957,2.0201000000014915]",1,BKT,3,0,3,0,1,,,,,,,,,,,,,,,,,,,,,,,,,,,,,,,,,,,,,,,,,,,,,,,,,,,,,,,,,,,,,,,,,,,,,,,,,,,,,,,,,,,
,,,,,,,,,,5fa27e1a81b6374542bfc205,20,Mężczyzna,2022-06-10_12h57.24.561,task,2021.1.4,Win32,60.75334143,628b806c463b948bc644b84f,62a3237a29f23531b5555fcb,,,,,0,0,0,0,1,X V Q F H G B L J M P D K C T S W R N Z,,,,,,,,,,,,,,,,,,,,,,,,,,,,,,,,,,,,,,,,,,,,,,,,,,,,,,,,,,,,,,,,,,,,,,,,,,,,,,,,,,,,,,,,,,,,,
,,,,,,,,,,5fa27e1a81b6374542bfc205,20,Mężczyzna,2022-06-10_12h57.24.561,task,2021.1.4,Win32,60.75334143,628b806c463b948bc644b84f,62a3237a29f23531b5555fcb,,,,,1,0,1,0,1,X V Q F H G B L J M P D K C T S W R N Z,,,,,,,,,,,,,,,,,,,,,,,,,,,,,,,,,,,,,,,,,,,,,,,,,,,,,,,,,,,,,,,,,,,,,,,,,,,,,,,,,,,,,,,,,,,,,
,,,,,,,,,,5fa27e1a81b6374542bfc205,20,Mężczyzna,2022-06-10_12h57.24.561,task,2021.1.4,Win32,60.75334143,628b806c463b948bc644b84f,62a3237a29f23531b5555fcb,,,,,2,0,2,0,1,X V Q F H G B L J M P D K C T S W R N Z,,,,,,,,,,,,,,,,,,,,,,,,,,,,,,,,,,,,,,,,,,,,,,,,,,,,,,,,,,,,,,,,,,,,,,,,,,,,,,,,,,,,,,,,,,,,,
,,,,,,,,,,5fa27e1a81b6374542bfc205,20,Mężczyzna,2022-06-10_12h57.24.561,task,2021.1.4,Win32,60.75334143,628b806c463b948bc644b84f,62a3237a29f23531b5555fcb,,,,,3,0,3,0,1,X V Q F H G B L J M P D K C T S W R N Z,,,,,,,,,,,,,,,,,,,,,,,,,,,,,,,,,,,,,,,,,,,,,,,,,,,,,,,,,,,,,,,,,,,,,,,,,,,,,,,,,,,,,,,,,,,,,
,,,,,,,,,,5fa27e1a81b6374542bfc205,20,Mężczyzna,2022-06-10_12h57.24.561,task,2021.1.4,Win32,60.75334143,628b806c463b948bc644b84f,62a3237a29f23531b5555fcb,,,,,,,,,,,hhcw,"[""h"",""h"",""c"",""w""]","[0.8305000000000291,0.9946999999955324,1.1842999999970516,1.3905000000000314,1.8824999999999932]",1,HHCW,4,0,4,0,1,,,,,,,,,,,,,,,,,,,,,,,,,,,,,,,,,,,,,,,,,,,,,,,,,,,,,,,,,,,,,,,,,,,,,,,,,,,,,,,,,,,
,,,,,,,,,,5fa27e1a81b6374542bfc205,20,Mężczyzna,2022-06-10_12h57.24.561,task,2021.1.4,Win32,60.75334143,628b806c463b948bc644b84f,62a3237a29f23531b5555fcb,,,,,0,0,0,0,1,X V Q F H G B L J M P D K C T S W R N Z,,,,,,,,,,,,,,,,,,,,,,,,,,,,,,,,,,,,,,,,,,,,,,,,,,,,,,,,,,,,,,,,,,,,,,,,,,,,,,,,,,,,,,,,,,,,,
,,,,,,,,,,5fa27e1a81b6374542bfc205,20,Mężczyzna,2022-06-10_12h57.24.561,task,2021.1.4,Win32,60.75334143,628b806c463b948bc644b84f,62a3237a29f23531b5555fcb,,,,,1,0,1,0,1,X V Q F H G B L J M P D K C T S W R N Z,,,,,,,,,,,,,,,,,,,,,,,,,,,,,,,,,,,,,,,,,,,,,,,,,,,,,,,,,,,,,,,,,,,,,,,,,,,,,,,,,,,,,,,,,,,,,
,,,,,,,,,,5fa27e1a81b6374542bfc205,20,Mężczyzna,2022-06-10_12h57.24.561,task,2021.1.4,Win32,60.75334143,628b806c463b948bc644b84f,62a3237a29f23531b5555fcb,,,,,2,0,2,0,1,X V Q F H G B L J M P D K C T S W R N Z,,,,,,,,,,,,,,,,,,,,,,,,,,,,,,,,,,,,,,,,,,,,,,,,,,,,,,,,,,,,,,,,,,,,,,,,,,,,,,,,,,,,,,,,,,,,,
,,,,,,,,,,5fa27e1a81b6374542bfc205,20,Mężczyzna,2022-06-10_12h57.24.561,task,2021.1.4,Win32,60.75334143,628b806c463b948bc644b84f,62a3237a29f23531b5555fcb,,,,,3,0,3,0,1,X V Q F H G B L J M P D K C T S W R N Z,,,,,,,,,,,,,,,,,,,,,,,,,,,,,,,,,,,,,,,,,,,,,,,,,,,,,,,,,,,,,,,,,,,,,,,,,,,,,,,,,,,,,,,,,,,,,
,,,,,,,,,,5fa27e1a81b6374542bfc205,20,Mężczyzna,2022-06-10_12h57.24.561,task,2021.1.4,Win32,60.75334143,628b806c463b948bc644b84f,62a3237a29f23531b5555fcb,,,,,,,,,,,fpqs,"[""f"",""p"",""q"",""s""]","[0.5500999999940177,1.3320999999940568,1.661299999997027,2.1393999999984885,2.6346999999955187]",1,FPQS,5,0,5,0,1,,,,,,,,,,,,,,,,,,,,,,,,,,,,,,,,,,,,,,,,,,,,,,,,,,,,,,,,,,,,,,,,,,,,,,,,,,,,,,,,,,,
,,,,,,,,,,5fa27e1a81b6374542bfc205,20,Mężczyzna,2022-06-10_12h57.24.561,task,2021.1.4,Win32,60.75334143,628b806c463b948bc644b84f,62a3237a29f23531b5555fcb,,,,,0,0,0,0,1,X V Q F H G B L J M P D K C T S W R N Z,,,,,,,,,,,,,,,,,,,,,,,,,,,,,,,,,,,,,,,,,,,,,,,,,,,,,,,,,,,,,,,,,,,,,,,,,,,,,,,,,,,,,,,,,,,,,
,,,,,,,,,,5fa27e1a81b6374542bfc205,20,Mężczyzna,2022-06-10_12h57.24.561,task,2021.1.4,Win32,60.75334143,628b806c463b948bc644b84f,62a3237a29f23531b5555fcb,,,,,1,0,1,0,1,X V Q F H G B L J M P D K C T S W R N Z,,,,,,,,,,,,,,,,,,,,,,,,,,,,,,,,,,,,,,,,,,,,,,,,,,,,,,,,,,,,,,,,,,,,,,,,,,,,,,,,,,,,,,,,,,,,,
,,,,,,,,,,5fa27e1a81b6374542bfc205,20,Mężczyzna,2022-06-10_12h57.24.561,task,2021.1.4,Win32,60.75334143,628b806c463b948bc644b84f,62a3237a29f23531b5555fcb,,,,,2,0,2,0,1,X V Q F H G B L J M P D K C T S W R N Z,,,,,,,,,,,,,,,,,,,,,,,,,,,,,,,,,,,,,,,,,,,,,,,,,,,,,,,,,,,,,,,,,,,,,,,,,,,,,,,,,,,,,,,,,,,,,
,,,,,,,,,,5fa27e1a81b6374542bfc205,20,Mężczyzna,2022-06-10_12h57.24.561,task,2021.1.4,Win32,60.75334143,628b806c463b948bc644b84f,62a3237a29f23531b5555fcb,,,,,3,0,3,0,1,X V Q F H G B L J M P D K C T S W R N Z,,,,,,,,,,,,,,,,,,,,,,,,,,,,,,,,,,,,,,,,,,,,,,,,,,,,,,,,,,,,,,,,,,,,,,,,,,,,,,,,,,,,,,,,,,,,,
,,,,,,,,,,5fa27e1a81b6374542bfc205,20,Mężczyzna,2022-06-10_12h57.24.561,task,2021.1.4,Win32,60.75334143,628b806c463b948bc644b84f,62a3237a29f23531b5555fcb,,,,,4,0,4,0,1,X V Q F H G B L J M P D K C T S W R N Z,,,,,,,,,,,,,,,,,,,,,,,,,,,,,,,,,,,,,,,,,,,,,,,,,,,,,,,,,,,,,,,,,,,,,,,,,,,,,,,,,,,,,,,,,,,,,
,,,,,,,,,,5fa27e1a81b6374542bfc205,20,Mężczyzna,2022-06-10_12h57.24.561,task,2021.1.4,Win32,60.75334143,628b806c463b948bc644b84f,62a3237a29f23531b5555fcb,,,,,,,,,,,hgddh,"[""h"",""g"",""d"",""d"",""h""]","[0.9808000000044785,1.430300000004479,1.7359000000059837,1.9514000000060037,2.282100000001492,2.7753000000045063]",1,HGDDH,6,0,6,0,1,,,,,,,,,,,,,,,,,,,,,,,,,,,,,,,,,,,,,,,,,,,,,,,,,,,,,,,,,,,,,,,,,,,,,,,,,,,,,,,,,,,
,,,,,,,,,,5fa27e1a81b6374542bfc205,20,Mężczyzna,2022-06-10_12h57.24.561,task,2021.1.4,Win32,60.75334143,628b806c463b948bc644b84f,62a3237a29f23531b5555fcb,,,,,0,0,0,0,1,X V Q F H G B L J M P D K C T S W R N Z,,,,,,,,,,,,,,,,,,,,,,,,,,,,,,,,,,,,,,,,,,,,,,,,,,,,,,,,,,,,,,,,,,,,,,,,,,,,,,,,,,,,,,,,,,,,,
,,,,,,,,,,5fa27e1a81b6374542bfc205,20,Mężczyzna,2022-06-10_12h57.24.561,task,2021.1.4,Win32,60.75334143,628b806c463b948bc644b84f,62a3237a29f23531b5555fcb,,,,,1,0,1,0,1,X V Q F H G B L J M P D K C T S W R N Z,,,,,,,,,,,,,,,,,,,,,,,,,,,,,,,,,,,,,,,,,,,,,,,,,,,,,,,,,,,,,,,,,,,,,,,,,,,,,,,,,,,,,,,,,,,,,
,,,,,,,,,,5fa27e1a81b6374542bfc205,20,Mężczyzna,2022-06-10_12h57.24.561,task,2021.1.4,Win32,60.75334143,628b806c463b948bc644b84f,62a3237a29f23531b5555fcb,,,,,2,0,2,0,1,X V Q F H G B L J M P D K C T S W R N Z,,,,,,,,,,,,,,,,,,,,,,,,,,,,,,,,,,,,,,,,,,,,,,,,,,,,,,,,,,,,,,,,,,,,,,,,,,,,,,,,,,,,,,,,,,,,,
,,,,,,,,,,5fa27e1a81b6374542bfc205,20,Mężczyzna,2022-06-10_12h57.24.561,task,2021.1.4,Win32,60.75334143,628b806c463b948bc644b84f,62a3237a29f23531b5555fcb,,,,,3,0,3,0,1,X V Q F H G B L J M P D K C T S W R N Z,,,,,,,,,,,,,,,,,,,,,,,,,,,,,,,,,,,,,,,,,,,,,,,,,,,,,,,,,,,,,,,,,,,,,,,,,,,,,,,,,,,,,,,,,,,,,
,,,,,,,,,,5fa27e1a81b6374542bfc205,20,Mężczyzna,2022-06-10_12h57.24.561,task,2021.1.4,Win32,60.75334143,628b806c463b948bc644b84f,62a3237a29f23531b5555fcb,,,,,4,0,4,0,1,X V Q F H G B L J M P D K C T S W R N Z,,,,,,,,,,,,,,,,,,,,,,,,,,,,,,,,,,,,,,,,,,,,,,,,,,,,,,,,,,,,,,,,,,,,,,,,,,,,,,,,,,,,,,,,,,,,,
,,,,,,,,,,5fa27e1a81b6374542bfc205,20,Mężczyzna,2022-06-10_12h57.24.561,task,2021.1.4,Win32,60.75334143,628b806c463b948bc644b84f,62a3237a29f23531b5555fcb,,,,,,,,,,,gxxjm,"[""g"",""x"",""x"",""j"",""m""]","[1.1497000000030084,1.6448000000044658,2.0479000000059386,2.5606000000015,2.833000000000027,3.537200000002997]",1,GXXJM,7,0,7,0,1,,,,,,,,,,,,,,,,,,,,,,,,,,,,,,,,,,,,,,,,,,,,,,,,,,,,,,,,,,,,,,,,,,,,,,,,,,,,,,,,,,,
,,,,,,,,,,5fa27e1a81b6374542bfc205,20,Mężczyzna,2022-06-10_12h57.24.561,task,2021.1.4,Win32,60.75334143,628b806c463b948bc644b84f,62a3237a29f23531b5555fcb,,,,,0,0,0,0,1,X V Q F H G B L J M P D K C T S W R N Z,,,,,,,,,,,,,,,,,,,,,,,,,,,,,,,,,,,,,,,,,,,,,,,,,,,,,,,,,,,,,,,,,,,,,,,,,,,,,,,,,,,,,,,,,,,,,
,,,,,,,,,,5fa27e1a81b6374542bfc205,20,Mężczyzna,2022-06-10_12h57.24.561,task,2021.1.4,Win32,60.75334143,628b806c463b948bc644b84f,62a3237a29f23531b5555fcb,,,,,1,0,1,0,1,X V Q F H G B L J M P D K C T S W R N Z,,,,,,,,,,,,,,,,,,,,,,,,,,,,,,,,,,,,,,,,,,,,,,,,,,,,,,,,,,,,,,,,,,,,,,,,,,,,,,,,,,,,,,,,,,,,,
,,,,,,,,,,5fa27e1a81b6374542bfc205,20,Mężczyzna,2022-06-10_12h57.24.561,task,2021.1.4,Win32,60.75334143,628b806c463b948bc644b84f,62a3237a29f23531b5555fcb,,,,,2,0,2,0,1,X V Q F H G B L J M P D K C T S W R N Z,,,,,,,,,,,,,,,,,,,,,,,,,,,,,,,,,,,,,,,,,,,,,,,,,,,,,,,,,,,,,,,,,,,,,,,,,,,,,,,,,,,,,,,,,,,,,
,,,,,,,,,,5fa27e1a81b6374542bfc205,20,Mężczyzna,2022-06-10_12h57.24.561,task,2021.1.4,Win32,60.75334143,628b806c463b948bc644b84f,62a3237a29f23531b5555fcb,,,,,3,0,3,0,1,X V Q F H G B L J M P D K C T S W R N Z,,,,,,,,,,,,,,,,,,,,,,,,,,,,,,,,,,,,,,,,,,,,,,,,,,,,,,,,,,,,,,,,,,,,,,,,,,,,,,,,,,,,,,,,,,,,,
,,,,,,,,,,5fa27e1a81b6374542bfc205,20,Mężczyzna,2022-06-10_12h57.24.561,task,2021.1.4,Win32,60.75334143,628b806c463b948bc644b84f,62a3237a29f23531b5555fcb,,,,,4,0,4,0,1,X V Q F H G B L J M P D K C T S W R N Z,,,,,,,,,,,,,,,,,,,,,,,,,,,,,,,,,,,,,,,,,,,,,,,,,,,,,,,,,,,,,,,,,,,,,,,,,,,,,,,,,,,,,,,,,,,,,
,,,,,,,,,,5fa27e1a81b6374542bfc205,20,Mężczyzna,2022-06-10_12h57.24.561,task,2021.1.4,Win32,60.75334143,628b806c463b948bc644b84f,62a3237a29f23531b5555fcb,,,,,5,0,5,0,1,X V Q F H G B L J M P D K C T S W R N Z,,,,,,,,,,,,,,,,,,,,,,,,,,,,,,,,,,,,,,,,,,,,,,,,,,,,,,,,,,,,,,,,,,,,,,,,,,,,,,,,,,,,,,,,,,,,,
,,,,,,,,,,5fa27e1a81b6374542bfc205,20,Mężczyzna,2022-06-10_12h57.24.561,task,2021.1.4,Win32,60.75334143,628b806c463b948bc644b84f,62a3237a29f23531b5555fcb,,,,,,,,,,,dqspxf,"[""d"",""q"",""s"",""p"",""x"",""f""]","[0.8090000000000259,1.3967000000030225,2.0503999999985467,2.7433999999985303,6.115100000001519,6.35439999999852,6.6742000000029975]",0,DQSPFL,8,0,8,0,1,,,,,,,,,,,,,,,,,,,,,,,,,,,,,,,,,,,,,,,,,,,,,,,,,,,,,,,,,,,,,,,,,,,,,,,,,,,,,,,,,,,
,,,,,,,,,,5fa27e1a81b6374542bfc205,20,Mężczyzna,2022-06-10_12h57.24.561,task,2021.1.4,Win32,60.75334143,628b806c463b948bc644b84f,62a3237a29f23531b5555fcb,,,,,0,0,0,0,1,X V Q F H G B L J M P D K C T S W R N Z,,,,,,,,,,,,,,,,,,,,,,,,,,,,,,,,,,,,,,,,,,,,,,,,,,,,,,,,,,,,,,,,,,,,,,,,,,,,,,,,,,,,,,,,,,,,,
,,,,,,,,,,5fa27e1a81b6374542bfc205,20,Mężczyzna,2022-06-10_12h57.24.561,task,2021.1.4,Win32,60.75334143,628b806c463b948bc644b84f,62a3237a29f23531b5555fcb,,,,,1,0,1,0,1,X V Q F H G B L J M P D K C T S W R N Z,,,,,,,,,,,,,,,,,,,,,,,,,,,,,,,,,,,,,,,,,,,,,,,,,,,,,,,,,,,,,,,,,,,,,,,,,,,,,,,,,,,,,,,,,,,,,
,,,,,,,,,,5fa27e1a81b6374542bfc205,20,Mężczyzna,2022-06-10_12h57.24.561,task,2021.1.4,Win32,60.75334143,628b806c463b948bc644b84f,62a3237a29f23531b5555fcb,,,,,2,0,2,0,1,X V Q F H G B L J M P D K C T S W R N Z,,,,,,,,,,,,,,,,,,,,,,,,,,,,,,,,,,,,,,,,,,,,,,,,,,,,,,,,,,,,,,,,,,,,,,,,,,,,,,,,,,,,,,,,,,,,,
,,,,,,,,,,5fa27e1a81b6374542bfc205,20,Mężczyzna,2022-06-10_12h57.24.561,task,2021.1.4,Win32,60.75334143,628b806c463b948bc644b84f,62a3237a29f23531b5555fcb,,,,,3,0,3,0,1,X V Q F H G B L J M P D K C T S W R N Z,,,,,,,,,,,,,,,,,,,,,,,,,,,,,,,,,,,,,,,,,,,,,,,,,,,,,,,,,,,,,,,,,,,,,,,,,,,,,,,,,,,,,,,,,,,,,
,,,,,,,,,,5fa27e1a81b6374542bfc205,20,Mężczyzna,2022-06-10_12h57.24.561,task,2021.1.4,Win32,60.75334143,628b806c463b948bc644b84f,62a3237a29f23531b5555fcb,,,,,4,0,4,0,1,X V Q F H G B L J M P D K C T S W R N Z,,,,,,,,,,,,,,,,,,,,,,,,,,,,,,,,,,,,,,,,,,,,,,,,,,,,,,,,,,,,,,,,,,,,,,,,,,,,,,,,,,,,,,,,,,,,,
,,,,,,,,,,5fa27e1a81b6374542bfc205,20,Mężczyzna,2022-06-10_12h57.24.561,task,2021.1.4,Win32,60.75334143,628b806c463b948bc644b84f,62a3237a29f23531b5555fcb,,,,,5,0,5,0,1,X V Q F H G B L J M P D K C T S W R N Z,,,,,,,,,,,,,,,,,,,,,,,,,,,,,,,,,,,,,,,,,,,,,,,,,,,,,,,,,,,,,,,,,,,,,,,,,,,,,,,,,,,,,,,,,,,,,
,,,,,,,,,,5fa27e1a81b6374542bfc205,20,Mężczyzna,2022-06-10_12h57.24.561,task,2021.1.4,Win32,60.75334143,628b806c463b948bc644b84f,62a3237a29f23531b5555fcb,,,,,,,,,,,stsdqfx,"[""s"",""t"",""s"",""d"",""q"",""f"",""x""]","[1.0627000000030193,1.462300000004518,1.9021000000014965,2.3629999999999995,5.035700000002976,5.350999999999999,5.628400000005968,6.767300000004468]",0,STSDMX,9,0,9,0,1,,,,,,,,,,,,,,,,,,,,,,,,,,,,,,,,,,,,,,,,,,,,,,,,,,,,,,,,,,,,,,,,,,,,,,,,,,,,,,,,,,,
,,,,,,,,,,5fa27e1a81b6374542bfc205,20,Mężczyzna,2022-06-10_12h57.24.561,task,2021.1.4,Win32,60.75334143,628b806c463b948bc644b84f,62a3237a29f23531b5555fcb,,,,,0,0,0,0,1,X V Q F H G B L J M P D K C T S W R N Z,,,,,,,,,,,,,,,,,,,,,,,,,,,,,,,,,,,,,,,,,,,,,,,,,,,,,,,,,,,,,,,,,,,,,,,,,,,,,,,,,,,,,,,,,,,,,
,,,,,,,,,,5fa27e1a81b6374542bfc205,20,Mężczyzna,2022-06-10_12h57.24.561,task,2021.1.4,Win32,60.75334143,628b806c463b948bc644b84f,62a3237a29f23531b5555fcb,,,,,1,0,1,0,1,X V Q F H G B L J M P D K C T S W R N Z,,,,,,,,,,,,,,,,,,,,,,,,,,,,,,,,,,,,,,,,,,,,,,,,,,,,,,,,,,,,,,,,,,,,,,,,,,,,,,,,,,,,,,,,,,,,,
,,,,,,,,,,5fa27e1a81b6374542bfc205,20,Mężczyzna,2022-06-10_12h57.24.561,task,2021.1.4,Win32,60.75334143,628b806c463b948bc644b84f,62a3237a29f23531b5555fcb,,,,,2,0,2,0,1,X V Q F H G B L J M P D K C T S W R N Z,,,,,,,,,,,,,,,,,,,,,,,,,,,,,,,,,,,,,,,,,,,,,,,,,,,,,,,,,,,,,,,,,,,,,,,,,,,,,,,,,,,,,,,,,,,,,
,,,,,,,,,,5fa27e1a81b6374542bfc205,20,Mężczyzna,2022-06-10_12h57.24.561,task,2021.1.4,Win32,60.75334143,628b806c463b948bc644b84f,62a3237a29f23531b5555fcb,,,,,3,0,3,0,1,X V Q F H G B L J M P D K C T S W R N Z,,,,,,,,,,,,,,,,,,,,,,,,,,,,,,,,,,,,,,,,,,,,,,,,,,,,,,,,,,,,,,,,,,,,,,,,,,,,,,,,,,,,,,,,,,,,,
,,,,,,,,,,5fa27e1a81b6374542bfc205,20,Mężczyzna,2022-06-10_12h57.24.561,task,2021.1.4,Win32,60.75334143,628b806c463b948bc644b84f,62a3237a29f23531b5555fcb,,,,,4,0,4,0,1,X V Q F H G B L J M P D K C T S W R N Z,,,,,,,,,,,,,,,,,,,,,,,,,,,,,,,,,,,,,,,,,,,,,,,,,,,,,,,,,,,,,,,,,,,,,,,,,,,,,,,,,,,,,,,,,,,,,
,,,,,,,,,,5fa27e1a81b6374542bfc205,20,Mężczyzna,2022-06-10_12h57.24.561,task,2021.1.4,Win32,60.75334143,628b806c463b948bc644b84f,62a3237a29f23531b5555fcb,,,,,5,0,5,0,1,X V Q F H G B L J M P D K C T S W R N Z,,,,,,,,,,,,,,,,,,,,,,,,,,,,,,,,,,,,,,,,,,,,,,,,,,,,,,,,,,,,,,,,,,,,,,,,,,,,,,,,,,,,,,,,,,,,,
,,,,,,,,,,5fa27e1a81b6374542bfc205,20,Mężczyzna,2022-06-10_12h57.24.561,task,2021.1.4,Win32,60.75334143,628b806c463b948bc644b84f,62a3237a29f23531b5555fcb,,,,,,,,,,,jmxdrz,"[""j"",""m"",""x"",""d"",""r"",""z""]","[1.6001000000015893,3.327799999997069,9.084700000003068,9.81329999999707,10.10829999999703,10.406299999997032,11.5427999999971]",0,MJZGRD,10,0,10,0,1,,,,,,,,,,,,,,,,,,,,,,,,,,,,,,,,,,,,,,,,,,,,,,,,,,,,,,,,,,,,,,,,,,,,,,,,,,,,,,,,,,,
,,,,,,,,,,5fa27e1a81b6374542bfc205,20,Mężczyzna,2022-06-10_12h57.24.561,task,2021.1.4,Win32,60.75334143,628b806c463b948bc644b84f,62a3237a29f23531b5555fcb,,,,,,,,,,,,,,,,,,,,,space,9.2136,1,"[""1""]",1,[5.012200000002963],[5.012200000002963],0,0,0,1,1,Practice,2,(4x4) - 15,1,,,,,,,,,,,,,,,,,,,,,,,,,,,,,,,,,,,,,,,,,,,,,,,,,,,,,,,,,,,,,,,,,,,
,,,,,,,,,,5fa27e1a81b6374542bfc205,20,Mężczyzna,2022-06-10_12h57.24.561,task,2021.1.4,Win32,60.75334143,628b806c463b948bc644b84f,62a3237a29f23531b5555fcb,,,,,,,,,,,,,,,,,,,,,,,9,"[""9""]",1,[3.9592000000029657],"[5.012200000002963,3.9592000000029657]",0,1,1,9,1,Practice,10,(20/2) - 1,9,,,,,,,,,,,,,,,,,,,,,,,,,,,,,,,,,,,,,,,,,,,,,,,,,,,,,,,,,,,,,,,,,,,
,,,,,,,,,,5fa27e1a81b6374542bfc205,20,Mężczyzna,2022-06-10_12h57.24.561,task,2021.1.4,Win32,60.75334143,628b806c463b948bc644b84f,62a3237a29f23531b5555fcb,,,,,,,,,,,,,,,,,,,,,,,5,"[""5""]",1,[3.175100000001521],"[5.012200000002963,3.9592000000029657,3.175100000001521]",0,2,2,5,1,Practice,6,(4/2) + 3,5,,,,,,,,,,,,,,,,,,,,,,,,,,,,,,,,,,,,,,,,,,,,,,,,,,,,,,,,,,,,,,,,,,,
,,,,,,,,,,5fa27e1a81b6374542bfc205,20,Mężczyzna,2022-06-10_12h57.24.561,task,2021.1.4,Win32,60.75334143,628b806c463b948bc644b84f,62a3237a29f23531b5555fcb,,,,,,,,,,,,,,,,,,,,,,,6,"[""6""]",1,[3.7582999999971207],"[5.012200000002963,3.9592000000029657,3.175100000001521,3.7582999999971207]",0,3,3,6,1,Practice,7,(25/5) + 1,6,,,,,,,,,,,,,,,,,,,,,,,,,,,,,,,,,,,,,,,,,,,,,,,,,,,,,,,,,,,,,,,,,,,
,,,,,,,,,,5fa27e1a81b6374542bfc205,20,Mężczyzna,2022-06-10_12h57.24.561,task,2021.1.4,Win32,60.75334143,628b806c463b948bc644b84f,62a3237a29f23531b5555fcb,,,,,,,,,,,,,,,,,,,,,,,7,"[""7""]",1,[3.9758999999985463],"[5.012200000002963,3.9592000000029657,3.175100000001521,3.7582999999971207,3.9758999999985463]",0,4,4,7,1,Practice,8,(5x5) - 18,7,,,,,,,,,,,,,,,,,,,,,,,,,,,,,,,,,,,,,,,,,,,,,,,,,,,,,,,,,,,,,,,,,,,
,,,,,,,,,,5fa27e1a81b6374542bfc205,20,Mężczyzna,2022-06-10_12h57.24.561,task,2021.1.4,Win32,60.75334143,628b806c463b948bc644b84f,62a3237a29f23531b5555fcb,,,,,,,,,,,,,,,,,,,,,,,2,"[""2""]",1,[1.7627000000029511],"[5.012200000002963,3.9592000000029657,3.175100000001521,3.7582999999971207,3.9758999999985463,1.7627000000029511]",0,5,5,2,1,Practice,3,(4x4) - 14,2,,,,,,,,,,,,,,,,,,,,,,,,,,,,,,,,,,,,,,,,,,,,,,,,,,,,,,,,,,,,,,,,,,,
,,,,,,,,,,5fa27e1a81b6374542bfc205,20,Mężczyzna,2022-06-10_12h57.24.561,task,2021.1.4,Win32,60.75334143,628b806c463b948bc644b84f,62a3237a29f23531b5555fcb,,,,,,,,,,,,,,,,,,,,,,,0,"[""0""]",1,[1.9724999999999682],"[5.012200000002963,3.9592000000029657,3.175100000001521,3.7582999999971207,3.9758999999985463,1.7627000000029511,1.9724999999999682]",0,6,6,0,1,Practice,1,(3x3) -  9,0,,,,,,,,,,,,,,,,,,,,,,,,,,,,,,,,,,,,,,,,,,,,,,,,,,,,,,,,,,,,,,,,,,,
,,,,,,,,,,5fa27e1a81b6374542bfc205,20,Mężczyzna,2022-06-10_12h57.24.561,task,2021.1.4,Win32,60.75334143,628b806c463b948bc644b84f,62a3237a29f23531b5555fcb,,,,,,,,,,,,,,,,,,,,,,,8,"[""8""]",1,[2.1925999999940586],"[5.012200000002963,3.9592000000029657,3.175100000001521,3.7582999999971207,3.9758999999985463,1.7627000000029511,1.9724999999999682,2.1925999999940586]",0,7,7,8,1,Practice,9,(3x3) - 1,8,,,,,,,,,,,,,,,,,,,,,,,,,,,,,,,,,,,,,,,,,,,,,,,,,,,,,,,,,,,,,,,,,,,
,,,,,,,,,,5fa27e1a81b6374542bfc205,20,Mężczyzna,2022-06-10_12h57.24.561,task,2021.1.4,Win32,60.75334143,628b806c463b948bc644b84f,62a3237a29f23531b5555fcb,,,,,,,,,,,,,,,,,,,,,,,3,"[""3""]",1,[2.6342999999969834],"[5.012200000002963,3.9592000000029657,3.175100000001521,3.7582999999971207,3.9758999999985463,1.7627000000029511,1.9724999999999682,2.1925999999940586,2.6342999999969834]",0,8,8,3,1,Practice,4,(8/4) + 1,3,,,,,,,,,,,,,,,,,,,,,,,,,,,,,,,,,,,,,,,,,,,,,,,,,,,,,,,,,,,,,,,,,,,
,,,,,,,,,,5fa27e1a81b6374542bfc205,20,Mężczyzna,2022-06-10_12h57.24.561,task,2021.1.4,Win32,60.75334143,628b806c463b948bc644b84f,62a3237a29f23531b5555fcb,,,,,,,,,,,,,,,,,,,,,,,4,"[""4""]",1,[4.858799999997018],"[5.012200000002963,3.9592000000029657,3.175100000001521,3.7582999999971207,3.9758999999985463,1.7627000000029511,1.9724999999999682,2.1925999999940586,2.6342999999969834,4.858799999997018]",0,9,9,4,1,Practice,5,(2x6) - 8,4,,,,,,,,,,,,,,,,,,,,,,,,,,,,,,,,,,,,,,,,,,,,,,,,,,,,,,,,,,,,,,,,,,,
,,,,,,,,,,5fa27e1a81b6374542bfc205,20,Mężczyzna,2022-06-10_12h57.24.561,task,2021.1.4,Win32,60.75334143,628b806c463b948bc644b84f,62a3237a29f23531b5555fcb,,,,,,,,,,,,,,,,,,,,,,,,,,,,,,,,,,,,,1,33.3016,2.220106667,24.58663719,1.28027698,5.523221276,space,0.9992,0,0,0,0,1,,,,,,,,,,,,,,,,,,,,,,,,,,,,,,,,,,,,,,,,,,,,,,,,,,,,,,
,,,,,,,,,,5fa27e1a81b6374542bfc205,20,Mężczyzna,2022-06-10_12h57.24.561,task,2021.1.4,Win32,60.75334143,628b806c463b948bc644b84f,62a3237a29f23531b5555fcb,,,,,,,,,,,,,,,,,,,,,,,1,,,,,,,,,,Practice,2,(4x4) - 15,1,,,,,,,,,,,,,,space,12.2391,"[""1""]",1,[1.8553999999985535],1,0,0,0,1,1,,,,,,,,,,,,,,,,,,,,,,,,,,,,,,,,,,,,,,,,,,,
,,,,,,,,,,5fa27e1a81b6374542bfc205,20,Mężczyzna,2022-06-10_12h57.24.561,task,2021.1.4,Win32,60.75334143,628b806c463b948bc644b84f,62a3237a29f23531b5555fcb,,,,,,,,,,X V Q F H G B L J M P D K C T S W R N Z,,,,,,,,,,,,,,,,,,,,,,,,,,,,,,,,,,,,,,,,,,,,,,,,,,,0,0,0,0,1,,,,,,,,,,,,,,,,,,,,,,,,,,,,,,,,,,,,,,
,,,,,,,,,,5fa27e1a81b6374542bfc205,20,Mężczyzna,2022-06-10_12h57.24.561,task,2021.1.4,Win32,60.75334143,628b806c463b948bc644b84f,62a3237a29f23531b5555fcb,,,,,,,,,,,,,,,,,,,,,,,5,,,,,,,,,,Practice,6,(4/2) + 3,5,,,,,,,,,,,,,,,,"[""5""]",1,[2.607600000001412],1,0,0,0,5,1,,,,,,,,,,,,,,,,,,,,,,,,,,,,,,,,,,,,,,,,,,,
,,,,,,,,,,5fa27e1a81b6374542bfc205,20,Mężczyzna,2022-06-10_12h57.24.561,task,2021.1.4,Win32,60.75334143,628b806c463b948bc644b84f,62a3237a29f23531b5555fcb,,,,,,,,,,X V Q F H G B L J M P D K C T S W R N Z,,,,,,,,,,,,,,,,,,,,,,,,,,,,,,,,,,,,,,,,,,,,,,,,,,,1,0,1,0,1,,,,,,,,,,,,,,,,,,,,,,,,,,,,,,,,,,,,,,
,,,,,,,,,,5fa27e1a81b6374542bfc205,20,Mężczyzna,2022-06-10_12h57.24.561,task,2021.1.4,Win32,60.75334143,628b806c463b948bc644b84f,62a3237a29f23531b5555fcb,,,,,,,,,,,,,,,,,,,,,,,,,,,,,,,,,,,,,,,,,,,,,,,,,,,,,,,,,,,,,,,,,,zz,"[""z"",""z""]",0,"[1.6781000000015638,1.8833999999985735,2.4972999999970398]",1,0,0,0,0,1,,,,,,,,,,,,,,,,,,,,,,,,,,,,
,,,,,,,,,,5fa27e1a81b6374542bfc205,20,Mężczyzna,2022-06-10_12h57.24.561,task,2021.1.4,Win32,60.75334143,628b806c463b948bc644b84f,62a3237a29f23531b5555fcb,,,,,,,,,,,,,,,,,,,,,,,6,,,,,,,,,,Practice,7,(25/5) + 1,6,,,,,,,,,,,,,,,,"[""6""]",1,[2.1243999999984453],1,0,0,0,6,1,,,,,,,,,,,,,,,,,,,,,,,,,,,,,,,,,,,,,,,,,,,
,,,,,,,,,,5fa27e1a81b6374542bfc205,20,Mężczyzna,2022-06-10_12h57.24.561,task,2021.1.4,Win32,60.75334143,628b806c463b948bc644b84f,62a3237a29f23531b5555fcb,,,,,,,,,,X V Q F H G B L J M P D K C T S W R N Z,,,,,,,,,,,,,,,,,,,,,,,,,,,,,,,,,,,,,,,,,,,,,,,,,,,0,0,0,0,1,,,,,,,,,,,,,,,,,,,,,,,,,,,,,,,,,,,,,,
,,,,,,,,,,5fa27e1a81b6374542bfc205,20,Mężczyzna,2022-06-10_12h57.24.561,task,2021.1.4,Win32,60.75334143,628b806c463b948bc644b84f,62a3237a29f23531b5555fcb,,,,,,,,,,,,,,,,,,,,,,,2,,,,,,,,,,Practice,3,(4x4) - 14,2,,,,,,,,,,,,,,,,"[""2""]",1,[1.7828000000044995],1,0,0,0,2,1,,,,,,,,,,,,,,,,,,,,,,,,,,,,,,,,,,,,,,,,,,,
,,,,,,,,,,5fa27e1a81b6374542bfc205,20,Mężczyzna,2022-06-10_12h57.24.561,task,2021.1.4,Win32,60.75334143,628b806c463b948bc644b84f,62a3237a29f23531b5555fcb,,,,,,,,,,X V Q F H G B L J M P D K C T S W R N Z,,,,,,,,,,,,,,,,,,,,,,,,,,,,,,,,,,,,,,,,,,,,,,,,,,,1,0,1,0,1,,,,,,,,,,,,,,,,,,,,,,,,,,,,,,,,,,,,,,
,,,,,,,,,,5fa27e1a81b6374542bfc205,20,Mężczyzna,2022-06-10_12h57.24.561,task,2021.1.4,Win32,60.75334143,628b806c463b948bc644b84f,62a3237a29f23531b5555fcb,,,,,,,,,,,,,,,,,,,,,,,,,,,,,,,,,,,,,,,,,,,,,,,,,,,,,,,,,,,,,,,,,,gq,"[""g"",""q""]",0,"[1.052400000005946,1.2466000000015356,1.6181000000015047]",1,1,0,1,0,1,,,,,,,,,,,,,,,,,,,,,,,,,,,,
,,,,,,,,,,5fa27e1a81b6374542bfc205,20,Mężczyzna,2022-06-10_12h57.24.561,task,2021.1.4,Win32,60.75334143,628b806c463b948bc644b84f,62a3237a29f23531b5555fcb,,,,,,,,,,,,,,,,,,,,,,,5,,,,,,,,,,Practice,6,(4/2) + 3,5,,,,,,,,,,,,,,,,"[""5""]",1,[2.208799999996927],1,0,0,0,5,1,,,,,,,,,,,,,,,,,,,,,,,,,,,,,,,,,,,,,,,,,,,
,,,,,,,,,,5fa27e1a81b6374542bfc205,20,Mężczyzna,2022-06-10_12h57.24.561,task,2021.1.4,Win32,60.75334143,628b806c463b948bc644b84f,62a3237a29f23531b5555fcb,,,,,,,,,,X V Q F H G B L J M P D K C T S W R N Z,,,,,,,,,,,,,,,,,,,,,,,,,,,,,,,,,,,,,,,,,,,,,,,,,,,0,0,0,0,1,,,,,,,,,,,,,,,,,,,,,,,,,,,,,,,,,,,,,,
,,,,,,,,,,5fa27e1a81b6374542bfc205,20,Mężczyzna,2022-06-10_12h57.24.561,task,2021.1.4,Win32,60.75334143,628b806c463b948bc644b84f,62a3237a29f23531b5555fcb,,,,,,,,,,,,,,,,,,,,,,,8,,,,,,,,,,Practice,9,(3x3) - 1,8,,,,,,,,,,,,,,,,"[""8""]",1,[2.4108999999986054],1,0,0,0,8,1,,,,,,,,,,,,,,,,,,,,,,,,,,,,,,,,,,,,,,,,,,,
,,,,,,,,,,5fa27e1a81b6374542bfc205,20,Mężczyzna,2022-06-10_12h57.24.561,task,2021.1.4,Win32,60.75334143,628b806c463b948bc644b84f,62a3237a29f23531b5555fcb,,,,,,,,,,X V Q F H G B L J M P D K C T S W R N Z,,,,,,,,,,,,,,,,,,,,,,,,,,,,,,,,,,,,,,,,,,,,,,,,,,,1,0,1,0,1,,,,,,,,,,,,,,,,,,,,,,,,,,,,,,,,,,,,,,
,,,,,,,,,,5fa27e1a81b6374542bfc205,20,Mężczyzna,2022-06-10_12h57.24.561,task,2021.1.4,Win32,60.75334143,628b806c463b948bc644b84f,62a3237a29f23531b5555fcb,,,,,,,,,,,,,,,,,,,,,,,,,,,,,,,,,,,,,,,,,,,,,,,,,,,,,,,,,,,,,,,,,,qh,"[""q"",""h""]",0,"[1.0203999999985172,1.2573999999984835,1.6014999999999873]",1,2,0,2,0,1,,,,,,,,,,,,,,,,,,,,,,,,,,,,
,,,,,,,,,,5fa27e1a81b6374542bfc205,20,Mężczyzna,2022-06-10_12h57.24.561,task,2021.1.4,Win32,60.75334143,628b806c463b948bc644b84f,62a3237a29f23531b5555fcb,,,,,,,,,,,,,,,,,,,,,,,3,,,,,,,,,,Task,3,(2x3) - 3,3,,,,,,,,,,,,,,,,,,,1,,,,,,,,,,,,,,,,,,,,,space,14.4522,"[""3""]",1,[3.4722999999970625],0,0,0,2,1,,,,,,,,,,,,,,,,,,
,,,,,,,,,,5fa27e1a81b6374542bfc205,20,Mężczyzna,2022-06-10_12h57.24.561,task,2021.1.4,Win32,60.75334143,628b806c463b948bc644b84f,62a3237a29f23531b5555fcb,,,,,,,,,,X V Q F H G B L J M P D K C T S W R N Z,,,,,,,,,,,,,,,,,,,,,,,,,,,,,,,,,,,,,,,,,,,,,,,,,,,,,,,,,,,,,,,,,,,,,,,,,,,,0,0,0,0,1,,,,,,,,,,,,,
,,,,,,,,,,5fa27e1a81b6374542bfc205,20,Mężczyzna,2022-06-10_12h57.24.561,task,2021.1.4,Win32,60.75334143,628b806c463b948bc644b84f,62a3237a29f23531b5555fcb,,,,,,,,,,,,,,,,,,,,,,,6,,,,,,,,,,Task,37,(3/3) + 5,6,,,,,,,,,,,,,,,,,,,1,,,,,,,,,,,,,,,,,,,,,,,"[""6""]",1,[3.0606999999955633],0,0,0,36,1,,,,,,,,,,,,,,,,,,
,,,,,,,,,,5fa27e1a81b6374542bfc205,20,Mężczyzna,2022-06-10_12h57.24.561,task,2021.1.4,Win32,60.75334143,628b806c463b948bc644b84f,62a3237a29f23531b5555fcb,,,,,,,,,,X V Q F H G B L J M P D K C T S W R N Z,,,,,,,,,,,,,,,,,,,,,,,,,,,,,,,,,,,,,,,,,,,,,,,,,,,,,,,,,,,,,,,,,,,,,,,,,,,,1,0,1,0,1,,,,,,,,,,,,,
,,,,,,,,,,5fa27e1a81b6374542bfc205,20,Mężczyzna,2022-06-10_12h57.24.561,task,2021.1.4,Win32,60.75334143,628b806c463b948bc644b84f,62a3237a29f23531b5555fcb,,,,,,,,,,,,,,,,,,,,,,,,,,,,,,,,,,,,,,,,,,,,,,,,,,,,,,,,,,,,,,,,,,,,,,,,,,,,,,,,,,,,,,,,,,,zt,"[""z"",""t""]",0,"[0.9035000000000082,1.2221000000014328,1.6996000000015101]",1,ZT,0,0,0,0,1,,
,,,,,,,,,,5fa27e1a81b6374542bfc205,20,Mężczyzna,2022-06-10_12h57.24.561,task,2021.1.4,Win32,60.75334143,628b806c463b948bc644b84f,62a3237a29f23531b5555fcb,,,,,,,,,,,,,,,,,,,,,,,2,,,,,,,,,,Task,10,(2x5) - 8,2,,,,,,,,,,,,,,,,,,,1,,,,,,,,,,,,,,,,,,,,,,,"[""2""]",1,[1.9242000000029975],0,0,0,9,1,,,,,,,,,,,,,,,,,,
,,,,,,,,,,5fa27e1a81b6374542bfc205,20,Mężczyzna,2022-06-10_12h57.24.561,task,2021.1.4,Win32,60.75334143,628b806c463b948bc644b84f,62a3237a29f23531b5555fcb,,,,,,,,,,X V Q F H G B L J M P D K C T S W R N Z,,,,,,,,,,,,,,,,,,,,,,,,,,,,,,,,,,,,,,,,,,,,,,,,,,,,,,,,,,,,,,,,,,,,,,,,,,,,0,0,0,0,1,,,,,,,,,,,,,
,,,,,,,,,,5fa27e1a81b6374542bfc205,20,Mężczyzna,2022-06-10_12h57.24.561,task,2021.1.4,Win32,60.75334143,628b806c463b948bc644b84f,62a3237a29f23531b5555fcb,,,,,,,,,,,,,,,,,,,,,,,7,,,,,,,,,,Task,31,(4/2) + 5,7,,,,,,,,,,,,,,,,,,,1,,,,,,,,,,,,,,,,,,,,,,,"[""7""]",1,[3.5018999999985],0,0,0,30,1,,,,,,,,,,,,,,,,,,
,,,,,,,,,,5fa27e1a81b6374542bfc205,20,Mężczyzna,2022-06-10_12h57.24.561,task,2021.1.4,Win32,60.75334143,628b806c463b948bc644b84f,62a3237a29f23531b5555fcb,,,,,,,,,,X V Q F H G B L J M P D K C T S W R N Z,,,,,,,,,,,,,,,,,,,,,,,,,,,,,,,,,,,,,,,,,,,,,,,,,,,,,,,,,,,,,,,,,,,,,,,,,,,,1,0,1,0,1,,,,,,,,,,,,,
,,,,,,,,,,5fa27e1a81b6374542bfc205,20,Mężczyzna,2022-06-10_12h57.24.561,task,2021.1.4,Win32,60.75334143,628b806c463b948bc644b84f,62a3237a29f23531b5555fcb,,,,,,,,,,,,,,,,,,,,,,,4,,,,,,,,,,Task,21,(10/2) - 1,4,,,,,,,,,,,,,,,,,,,1,,,,,,,,,,,,,,,,,,,,,,,"[""4""]",1,[4.230400000005943],0,0,0,20,1,,,,,,,,,,,,,,,,,,
,,,,,,,,,,5fa27e1a81b6374542bfc205,20,Mężczyzna,2022-06-10_12h57.24.561,task,2021.1.4,Win32,60.75334143,628b806c463b948bc644b84f,62a3237a29f23531b5555fcb,,,,,,,,,,X V Q F H G B L J M P D K C T S W R N Z,,,,,,,,,,,,,,,,,,,,,,,,,,,,,,,,,,,,,,,,,,,,,,,,,,,,,,,,,,,,,,,,,,,,,,,,,,,,2,0,2,0,1,,,,,,,,,,,,,
,,,,,,,,,,5fa27e1a81b6374542bfc205,20,Mężczyzna,2022-06-10_12h57.24.561,task,2021.1.4,Win32,60.75334143,628b806c463b948bc644b84f,62a3237a29f23531b5555fcb,,,,,,,,,,,,,,,,,,,,,,,,,,,,,,,,,,,,,,,,,,,,,,,,,,,,,,,,,,,,,,,,,,,,,,,,,,,,,,,,,,,,,,,,,,,lnr,"[""l"",""n"",""r""]",0,"[1.111600000001431,1.3046000000014146,1.546899999998459,1.7347999999969943]",1,LNR,1,0,1,0,1,,
,,,,,,,,,,5fa27e1a81b6374542bfc205,20,Mężczyzna,2022-06-10_12h57.24.561,task,2021.1.4,Win32,60.75334143,628b806c463b948bc644b84f,62a3237a29f23531b5555fcb,,,,,,,,,,,,,,,,,,,,,,,7,,,,,,,,,,Task,31,(4/2) + 5,7,,,,,,,,,,,,,,,,,,,1,,,,,,,,,,,,,,,,,,,,,,,"[""7""]",1,[1.7283000000045377],0,0,0,30,1,,,,,,,,,,,,,,,,,,
,,,,,,,,,,5fa27e1a81b6374542bfc205,20,Mężczyzna,2022-06-10_12h57.24.561,task,2021.1.4,Win32,60.75334143,628b806c463b948bc644b84f,62a3237a29f23531b5555fcb,,,,,,,,,,X V Q F H G B L J M P D K C T S W R N Z,,,,,,,,,,,,,,,,,,,,,,,,,,,,,,,,,,,,,,,,,,,,,,,,,,,,,,,,,,,,,,,,,,,,,,,,,,,,0,0,0,0,1,,,,,,,,,,,,,
,,,,,,,,,,5fa27e1a81b6374542bfc205,20,Mężczyzna,2022-06-10_12h57.24.561,task,2021.1.4,Win32,60.75334143,628b806c463b948bc644b84f,62a3237a29f23531b5555fcb,,,,,,,,,,,,,,,,,,,,,,,,,,,,,,,,,Task,16,(3x8) - 15,9,,,,,,,,,,,,,,,,,,,0,,,,,,,,,,,,,,,,,,,,,,,,0,,0,0,0,15,1,,,,,,,,,,,,,,,,,,
,,,,,,,,,,5fa27e1a81b6374542bfc205,20,Mężczyzna,2022-06-10_12h57.24.561,task,2021.1.4,Win32,60.75334143,628b806c463b948bc644b84f,62a3237a29f23531b5555fcb,,,,,,,,,,,,,,,,,,,,,,,8,,,,,,,,,,Task,39,(5x3) - 7,8,,,,,,,,,,,,,,,,,,,1,,,,,,,,,,,,,,,,,,,,,,,"[""8""]",1,[3.927099999994084],0,1,1,38,1,,,,,,,,,,,,,,,,,,
,,,,,,,,,,5fa27e1a81b6374542bfc205,20,Mężczyzna,2022-06-10_12h57.24.561,task,2021.1.4,Win32,60.75334143,628b806c463b948bc644b84f,62a3237a29f23531b5555fcb,,,,,,,,,,X V Q F H G B L J M P D K C T S W R N Z,,,,,,,,,,,,,,,,,,,,,,,,,,,,,,,,,,,,,,,,,,,,,,,,,,,,,,,,,,,,,,,,,,,,,,,,,,,,1,0,1,0,1,,,,,,,,,,,,,
,,,,,,,,,,5fa27e1a81b6374542bfc205,20,Mężczyzna,2022-06-10_12h57.24.561,task,2021.1.4,Win32,60.75334143,628b806c463b948bc644b84f,62a3237a29f23531b5555fcb,,,,,,,,,,,,,,,,,,,,,,,3,,,,,,,,,,Task,35,(1x2) + 1,3,,,,,,,,,,,,,,,,,,,1,,,,,,,,,,,,,,,,,,,,,,,"[""3""]",1,[2.431199999995556],0,0,0,34,1,,,,,,,,,,,,,,,,,,
,,,,,,,,,,5fa27e1a81b6374542bfc205,20,Mężczyzna,2022-06-10_12h57.24.561,task,2021.1.4,Win32,60.75334143,628b806c463b948bc644b84f,62a3237a29f23531b5555fcb,,,,,,,,,,X V Q F H G B L J M P D K C T S W R N Z,,,,,,,,,,,,,,,,,,,,,,,,,,,,,,,,,,,,,,,,,,,,,,,,,,,,,,,,,,,,,,,,,,,,,,,,,,,,2,0,2,0,1,,,,,,,,,,,,,
,,,,,,,,,,5fa27e1a81b6374542bfc205,20,Mężczyzna,2022-06-10_12h57.24.561,task,2021.1.4,Win32,60.75334143,628b806c463b948bc644b84f,62a3237a29f23531b5555fcb,,,,,,,,,,,,,,,,,,,,,,,2,,,,,,,,,,Task,2,(2x2) - 2,2,,,,,,,,,,,,,,,,,,,1,,,,,,,,,,,,,,,,,,,,,,,"[""2""]",1,[2.7001000000014983],0,0,0,1,1,,,,,,,,,,,,,,,,,,
,,,,,,,,,,5fa27e1a81b6374542bfc205,20,Mężczyzna,2022-06-10_12h57.24.561,task,2021.1.4,Win32,60.75334143,628b806c463b948bc644b84f,62a3237a29f23531b5555fcb,,,,,,,,,,X V Q F H G B L J M P D K C T S W R N Z,,,,,,,,,,,,,,,,,,,,,,,,,,,,,,,,,,,,,,,,,,,,,,,,,,,,,,,,,,,,,,,,,,,,,,,,,,,,3,0,3,0,1,,,,,,,,,,,,,
,,,,,,,,,,5fa27e1a81b6374542bfc205,20,Mężczyzna,2022-06-10_12h57.24.561,task,2021.1.4,Win32,60.75334143,628b806c463b948bc644b84f,62a3237a29f23531b5555fcb,,,,,,,,,,,,,,,,,,,,,,,,,,,,,,,,,,,,,,,,,,,,,,,,,,,,,,,,,,,,,,,,,,,,,,,,,,,,,,,,,,,,,,,,,,,ljqt,"[""l"",""j"",""q"",""t""]",0,"[1.2992000000029975,1.6807000000030712,2.071299999997109,2.50750000000005,2.957899999998517]",0,GJQT,2,0,2,0,1,,
,,,,,,,,,,5fa27e1a81b6374542bfc205,20,Mężczyzna,2022-06-10_12h57.24.561,task,2021.1.4,Win32,60.75334143,628b806c463b948bc644b84f,62a3237a29f23531b5555fcb,,,,,,,,,,,,,,,,,,,,,,,4,,,,,,,,,,Task,28,(2x5) - 6,4,,,,,,,,,,,,,,,,,,,1,,,,,,,,,,,,,,,,,,,,,,,"[""4""]",1,[1.841700000002902],0,0,0,27,1,,,,,,,,,,,,,,,,,,
,,,,,,,,,,5fa27e1a81b6374542bfc205,20,Mężczyzna,2022-06-10_12h57.24.561,task,2021.1.4,Win32,60.75334143,628b806c463b948bc644b84f,62a3237a29f23531b5555fcb,,,,,,,,,,X V Q F H G B L J M P D K C T S W R N Z,,,,,,,,,,,,,,,,,,,,,,,,,,,,,,,,,,,,,,,,,,,,,,,,,,,,,,,,,,,,,,,,,,,,,,,,,,,,0,0,0,0,1,,,,,,,,,,,,,
,,,,,,,,,,5fa27e1a81b6374542bfc205,20,Mężczyzna,2022-06-10_12h57.24.561,task,2021.1.4,Win32,60.75334143,628b806c463b948bc644b84f,62a3237a29f23531b5555fcb,,,,,,,,,,,,,,,,,,,,,,,0,,,,,,,,,,Task,33,(1/1) - 1,0,,,,,,,,,,,,,,,,,,,1,,,,,,,,,,,,,,,,,,,,,,,"[""0""]",1,[2.534600000001433],0,0,0,32,1,,,,,,,,,,,,,,,,,,
,,,,,,,,,,5fa27e1a81b6374542bfc205,20,Mężczyzna,2022-06-10_12h57.24.561,task,2021.1.4,Win32,60.75334143,628b806c463b948bc644b84f,62a3237a29f23531b5555fcb,,,,,,,,,,X V Q F H G B L J M P D K C T S W R N Z,,,,,,,,,,,,,,,,,,,,,,,,,,,,,,,,,,,,,,,,,,,,,,,,,,,,,,,,,,,,,,,,,,,,,,,,,,,,1,0,1,0,1,,,,,,,,,,,,,
,,,,,,,,,,5fa27e1a81b6374542bfc205,20,Mężczyzna,2022-06-10_12h57.24.561,task,2021.1.4,Win32,60.75334143,628b806c463b948bc644b84f,62a3237a29f23531b5555fcb,,,,,,,,,,,,,,,,,,,,,,,5,,,,,,,,,,Task,22,(3x1) + 2,5,,,,,,,,,,,,,,,,,,,1,,,,,,,,,,,,,,,,,,,,,,,"[""5""]",1,[2.008199999995554],0,0,0,21,1,,,,,,,,,,,,,,,,,,
,,,,,,,,,,5fa27e1a81b6374542bfc205,20,Mężczyzna,2022-06-10_12h57.24.561,task,2021.1.4,Win32,60.75334143,628b806c463b948bc644b84f,62a3237a29f23531b5555fcb,,,,,,,,,,X V Q F H G B L J M P D K C T S W R N Z,,,,,,,,,,,,,,,,,,,,,,,,,,,,,,,,,,,,,,,,,,,,,,,,,,,,,,,,,,,,,,,,,,,,,,,,,,,,2,0,2,0,1,,,,,,,,,,,,,
,,,,,,,,,,5fa27e1a81b6374542bfc205,20,Mężczyzna,2022-06-10_12h57.24.561,task,2021.1.4,Win32,60.75334143,628b806c463b948bc644b84f,62a3237a29f23531b5555fcb,,,,,,,,,,,,,,,,,,,,,,,5,,,,,,,,,,Task,27,(3/3) + 2,3,,,,,,,,,,,,,,,,,,,0,,,,,,,,,,,,,,,,,,,,,,,"[""5""]",0,[1.5021000000015192],0,0,0,26,1,,,,,,,,,,,,,,,,,,
,,,,,,,,,,5fa27e1a81b6374542bfc205,20,Mężczyzna,2022-06-10_12h57.24.561,task,2021.1.4,Win32,60.75334143,628b806c463b948bc644b84f,62a3237a29f23531b5555fcb,,,,,,,,,,,,,,,,,,,,,,,6,,,,,,,,,,Task,13,(3x4) - 6,6,,,,,,,,,,,,,,,,,,,1,,,,,,,,,,,,,,,,,,,,,,,"[""6""]",1,[4.129700000003027],0,1,1,12,1,,,,,,,,,,,,,,,,,,
,,,,,,,,,,5fa27e1a81b6374542bfc205,20,Mężczyzna,2022-06-10_12h57.24.561,task,2021.1.4,Win32,60.75334143,628b806c463b948bc644b84f,62a3237a29f23531b5555fcb,,,,,,,,,,X V Q F H G B L J M P D K C T S W R N Z,,,,,,,,,,,,,,,,,,,,,,,,,,,,,,,,,,,,,,,,,,,,,,,,,,,,,,,,,,,,,,,,,,,,,,,,,,,,3,0,3,0,1,,,,,,,,,,,,,
,,,,,,,,,,5fa27e1a81b6374542bfc205,20,Mężczyzna,2022-06-10_12h57.24.561,task,2021.1.4,Win32,60.75334143,628b806c463b948bc644b84f,62a3237a29f23531b5555fcb,,,,,,,,,,,,,,,,,,,,,,,,,,,,,,,,,,,,,,,,,,,,,,,,,,,,,,,,,,,,,,,,,,,,,,,,,,,,,,,,,,,,,,,,,,,lpfp,"[""l"",""p"",""f"",""p""]",0,"[2.8518000000044594,3.6918000000044913,4.465400000005957,4.720400000005952,5.153100000001473]",0,NPFP,3,0,3,0,1,,
,,,,,,,,,,5fa27e1a81b6374542bfc205,20,Mężczyzna,2022-06-10_12h57.24.561,task,2021.1.4,Win32,60.75334143,628b806c463b948bc644b84f,62a3237a29f23531b5555fcb,,,,,,,,,,,,,,,,,,,,,,,,,,,,,,,,,,,,,,,,,,,,,,,,,,,,,,,,,,,,,,,,,,,,,,,,,,,,,,,,,,,,,,,,,,,,,,,,,,,,,,space,1.515
