key_resp_15.keys,key_resp_15.rt,key_resp_16.keys,key_resp_16.rt,key_resp_4.keys,key_resp_4.rt,next_letter.thisRepN,next_letter.thisTrialN,next_letter.thisN,next_letter.thisIndex,next_letter.ran,letter,participant,Wiek*,Płeć,date,expName,psychopyVersion,OS,frameRate,study_id,session,simple_recall,key_resp_5.keys,key_resp_5.rt,simple_recall_corr,simple_recall_corrkeys,next_level.thisRepN,next_level.thisTrialN,next_level.thisN,next_level.thisIndex,next_level.ran,key_resp_2.keys,key_resp_2.rt,digit_answer,key_resp.keys,key_resp.corr,key_resp.rt,RT_list,next_equation.thisRepN,next_equation.thisTrialN,next_equation.thisN,next_equation.thisIndex,next_equation.ran,Task,Trial,Problem,Operation_answer,processing_score,sumRT,meanRT,sumdiff,sd,RT,key_resp_3.keys,key_resp_3.rt,repeat_practice.thisRepN,repeat_practice.thisTrialN,repeat_practice.thisN,repeat_practice.thisIndex,repeat_practice.ran,key_resp_6.keys,key_resp_6.rt,key_resp_11.keys,key_resp_11.corr,key_resp_11.rt,operation_correct,repeat_if_wrong_prac.thisRepN,repeat_if_wrong_prac.thisTrialN,repeat_if_wrong_prac.thisN,repeat_if_wrong_prac.thisIndex,repeat_if_wrong_prac.ran,span_size_prac.thisRepN,span_size_prac.thisTrialN,span_size_prac.thisN,span_size_prac.thisIndex,span_size_prac.ran,complex_recall_practice,key_resp_9.keys,key_resp_9.corr,key_resp_9.rt,complex_prac_corr,span_recall_prac.thisRepN,span_recall_prac.thisTrialN,span_recall_prac.thisN,span_recall_prac.thisIndex,span_recall_prac.ran,key_resp_10.keys,key_resp_10.rt,key_resp_7.keys,key_resp_7.corr,key_resp_7.rt,repeat_if_wrong.thisRepN,repeat_if_wrong.thisTrialN,repeat_if_wrong.thisN,repeat_if_wrong.thisIndex,repeat_if_wrong.ran,span_size.thisRepN,span_size.thisTrialN,span_size.thisN,span_size.thisIndex,span_size.ran,complex_recall,key_resp_8.keys,key_resp_8.corr,key_resp_8.rt,complex_recall_corr,complex_recall_corrkeys,span_recall.thisRepN,span_recall.thisTrialN,span_recall.thisN,span_recall.thisIndex,span_recall.ran,key_resp_13.keys,key_resp_13.corr,key_resp_13.rt,random_loop.thisRepN,random_loop.thisTrialN,random_loop.thisN,random_loop.thisIndex,random_loop.ran,key_resp_12.keys,key_resp_12.rt
space,51.8856,space,15.0666,space,7.6045,0,0,0,0,1,X V Q F H G B L J M P D K C T S W R N Z,5fa69c24315bfb2d0a37c685,22,Mężczyzna,2022-06-11_10h27.03.391,task,2021.1.4,Win32,143.9470275,6299f149e92ead563fba08ef,62a451c78e39c9f99a08ddd7,,,,,,,,,,,,,,,,,,,,,,,,,,,,,,,,,,,,,,,,,,,,,,,,,,,,,,,,,,,,,,,,,,,,,,,,,,,,,,,,,,,,,,,,,,,,,,,,,,,,,
,,,,,,1,0,1,0,1,X V Q F H G B L J M P D K C T S W R N Z,5fa69c24315bfb2d0a37c685,22,Mężczyzna,2022-06-11_10h27.03.391,task,2021.1.4,Win32,143.9470275,6299f149e92ead563fba08ef,62a451c78e39c9f99a08ddd7,,,,,,,,,,,,,,,,,,,,,,,,,,,,,,,,,,,,,,,,,,,,,,,,,,,,,,,,,,,,,,,,,,,,,,,,,,,,,,,,,,,,,,,,,,,,,,,,,,,,,
,,,,,,,,,,,,5fa69c24315bfb2d0a37c685,22,Mężczyzna,2022-06-11_10h27.03.391,task,2021.1.4,Win32,143.9470275,6299f149e92ead563fba08ef,62a451c78e39c9f99a08ddd7,zt,"[""z"",""t""]","[3.5912999999523265,3.923100000023851,5.731200000047693]",1,ZT,0,0,0,0,1,,,,,,,,,,,,,,,,,,,,,,,,,,,,,,,,,,,,,,,,,,,,,,,,,,,,,,,,,,,,,,,,,,,,,,,,,,,,,,,,,,,,,,,,,,,
,,,,,,0,0,0,0,1,X V Q F H G B L J M P D K C T S W R N Z,5fa69c24315bfb2d0a37c685,22,Mężczyzna,2022-06-11_10h27.03.391,task,2021.1.4,Win32,143.9470275,6299f149e92ead563fba08ef,62a451c78e39c9f99a08ddd7,,,,,,,,,,,,,,,,,,,,,,,,,,,,,,,,,,,,,,,,,,,,,,,,,,,,,,,,,,,,,,,,,,,,,,,,,,,,,,,,,,,,,,,,,,,,,,,,,,,,,
,,,,,,1,0,1,0,1,X V Q F H G B L J M P D K C T S W R N Z,5fa69c24315bfb2d0a37c685,22,Mężczyzna,2022-06-11_10h27.03.391,task,2021.1.4,Win32,143.9470275,6299f149e92ead563fba08ef,62a451c78e39c9f99a08ddd7,,,,,,,,,,,,,,,,,,,,,,,,,,,,,,,,,,,,,,,,,,,,,,,,,,,,,,,,,,,,,,,,,,,,,,,,,,,,,,,,,,,,,,,,,,,,,,,,,,,,,
,,,,,,,,,,,,5fa69c24315bfb2d0a37c685,22,Mężczyzna,2022-06-11_10h27.03.391,task,2021.1.4,Win32,143.9470275,6299f149e92ead563fba08ef,62a451c78e39c9f99a08ddd7,rs,"[""r"",""s""]","[0.5929000000953693,0.6801000000238417,0.9257000000476836]",1,RS,1,0,1,0,1,,,,,,,,,,,,,,,,,,,,,,,,,,,,,,,,,,,,,,,,,,,,,,,,,,,,,,,,,,,,,,,,,,,,,,,,,,,,,,,,,,,,,,,,,,,
,,,,,,0,0,0,0,1,X V Q F H G B L J M P D K C T S W R N Z,5fa69c24315bfb2d0a37c685,22,Mężczyzna,2022-06-11_10h27.03.391,task,2021.1.4,Win32,143.9470275,6299f149e92ead563fba08ef,62a451c78e39c9f99a08ddd7,,,,,,,,,,,,,,,,,,,,,,,,,,,,,,,,,,,,,,,,,,,,,,,,,,,,,,,,,,,,,,,,,,,,,,,,,,,,,,,,,,,,,,,,,,,,,,,,,,,,,
,,,,,,1,0,1,0,1,X V Q F H G B L J M P D K C T S W R N Z,5fa69c24315bfb2d0a37c685,22,Mężczyzna,2022-06-11_10h27.03.391,task,2021.1.4,Win32,143.9470275,6299f149e92ead563fba08ef,62a451c78e39c9f99a08ddd7,,,,,,,,,,,,,,,,,,,,,,,,,,,,,,,,,,,,,,,,,,,,,,,,,,,,,,,,,,,,,,,,,,,,,,,,,,,,,,,,,,,,,,,,,,,,,,,,,,,,,
,,,,,,2,0,2,0,1,X V Q F H G B L J M P D K C T S W R N Z,5fa69c24315bfb2d0a37c685,22,Mężczyzna,2022-06-11_10h27.03.391,task,2021.1.4,Win32,143.9470275,6299f149e92ead563fba08ef,62a451c78e39c9f99a08ddd7,,,,,,,,,,,,,,,,,,,,,,,,,,,,,,,,,,,,,,,,,,,,,,,,,,,,,,,,,,,,,,,,,,,,,,,,,,,,,,,,,,,,,,,,,,,,,,,,,,,,,
,,,,,,,,,,,,5fa69c24315bfb2d0a37c685,22,Mężczyzna,2022-06-11_10h27.03.391,task,2021.1.4,Win32,143.9470275,6299f149e92ead563fba08ef,62a451c78e39c9f99a08ddd7,vwq,"[""v"",""w"",""q""]","[0.7716999999284724,0.8953999999761493,1.0202999999523144,1.9383999999761556]",1,VWQ,2,0,2,0,1,,,,,,,,,,,,,,,,,,,,,,,,,,,,,,,,,,,,,,,,,,,,,,,,,,,,,,,,,,,,,,,,,,,,,,,,,,,,,,,,,,,,,,,,,,,
,,,,,,0,0,0,0,1,X V Q F H G B L J M P D K C T S W R N Z,5fa69c24315bfb2d0a37c685,22,Mężczyzna,2022-06-11_10h27.03.391,task,2021.1.4,Win32,143.9470275,6299f149e92ead563fba08ef,62a451c78e39c9f99a08ddd7,,,,,,,,,,,,,,,,,,,,,,,,,,,,,,,,,,,,,,,,,,,,,,,,,,,,,,,,,,,,,,,,,,,,,,,,,,,,,,,,,,,,,,,,,,,,,,,,,,,,,
,,,,,,1,0,1,0,1,X V Q F H G B L J M P D K C T S W R N Z,5fa69c24315bfb2d0a37c685,22,Mężczyzna,2022-06-11_10h27.03.391,task,2021.1.4,Win32,143.9470275,6299f149e92ead563fba08ef,62a451c78e39c9f99a08ddd7,,,,,,,,,,,,,,,,,,,,,,,,,,,,,,,,,,,,,,,,,,,,,,,,,,,,,,,,,,,,,,,,,,,,,,,,,,,,,,,,,,,,,,,,,,,,,,,,,,,,,
,,,,,,2,0,2,0,1,X V Q F H G B L J M P D K C T S W R N Z,5fa69c24315bfb2d0a37c685,22,Mężczyzna,2022-06-11_10h27.03.391,task,2021.1.4,Win32,143.9470275,6299f149e92ead563fba08ef,62a451c78e39c9f99a08ddd7,,,,,,,,,,,,,,,,,,,,,,,,,,,,,,,,,,,,,,,,,,,,,,,,,,,,,,,,,,,,,,,,,,,,,,,,,,,,,,,,,,,,,,,,,,,,,,,,,,,,,
,,,,,,,,,,,,5fa69c24315bfb2d0a37c685,22,Mężczyzna,2022-06-11_10h27.03.391,task,2021.1.4,Win32,143.9470275,6299f149e92ead563fba08ef,62a451c78e39c9f99a08ddd7,qqj,"[""q"",""q"",""j""]","[0.5082000000476938,0.7011000000238425,0.7852000000476806,1.0721000000238519]",1,QQJ,3,0,3,0,1,,,,,,,,,,,,,,,,,,,,,,,,,,,,,,,,,,,,,,,,,,,,,,,,,,,,,,,,,,,,,,,,,,,,,,,,,,,,,,,,,,,,,,,,,,,
,,,,,,0,0,0,0,1,X V Q F H G B L J M P D K C T S W R N Z,5fa69c24315bfb2d0a37c685,22,Mężczyzna,2022-06-11_10h27.03.391,task,2021.1.4,Win32,143.9470275,6299f149e92ead563fba08ef,62a451c78e39c9f99a08ddd7,,,,,,,,,,,,,,,,,,,,,,,,,,,,,,,,,,,,,,,,,,,,,,,,,,,,,,,,,,,,,,,,,,,,,,,,,,,,,,,,,,,,,,,,,,,,,,,,,,,,,
,,,,,,1,0,1,0,1,X V Q F H G B L J M P D K C T S W R N Z,5fa69c24315bfb2d0a37c685,22,Mężczyzna,2022-06-11_10h27.03.391,task,2021.1.4,Win32,143.9470275,6299f149e92ead563fba08ef,62a451c78e39c9f99a08ddd7,,,,,,,,,,,,,,,,,,,,,,,,,,,,,,,,,,,,,,,,,,,,,,,,,,,,,,,,,,,,,,,,,,,,,,,,,,,,,,,,,,,,,,,,,,,,,,,,,,,,,
,,,,,,2,0,2,0,1,X V Q F H G B L J M P D K C T S W R N Z,5fa69c24315bfb2d0a37c685,22,Mężczyzna,2022-06-11_10h27.03.391,task,2021.1.4,Win32,143.9470275,6299f149e92ead563fba08ef,62a451c78e39c9f99a08ddd7,,,,,,,,,,,,,,,,,,,,,,,,,,,,,,,,,,,,,,,,,,,,,,,,,,,,,,,,,,,,,,,,,,,,,,,,,,,,,,,,,,,,,,,,,,,,,,,,,,,,,
,,,,,,3,0,3,0,1,X V Q F H G B L J M P D K C T S W R N Z,5fa69c24315bfb2d0a37c685,22,Mężczyzna,2022-06-11_10h27.03.391,task,2021.1.4,Win32,143.9470275,6299f149e92ead563fba08ef,62a451c78e39c9f99a08ddd7,,,,,,,,,,,,,,,,,,,,,,,,,,,,,,,,,,,,,,,,,,,,,,,,,,,,,,,,,,,,,,,,,,,,,,,,,,,,,,,,,,,,,,,,,,,,,,,,,,,,,
,,,,,,,,,,,,5fa69c24315bfb2d0a37c685,22,Mężczyzna,2022-06-11_10h27.03.391,task,2021.1.4,Win32,143.9470275,6299f149e92ead563fba08ef,62a451c78e39c9f99a08ddd7,tpks,"[""t"",""p"",""k"",""s""]","[0.3746999999284668,0.528499999999994,0.7636999999284768,0.8608999999761551,1.0086000000238329]",1,TPKS,4,0,4,0,1,,,,,,,,,,,,,,,,,,,,,,,,,,,,,,,,,,,,,,,,,,,,,,,,,,,,,,,,,,,,,,,,,,,,,,,,,,,,,,,,,,,,,,,,,,,
,,,,,,0,0,0,0,1,X V Q F H G B L J M P D K C T S W R N Z,5fa69c24315bfb2d0a37c685,22,Mężczyzna,2022-06-11_10h27.03.391,task,2021.1.4,Win32,143.9470275,6299f149e92ead563fba08ef,62a451c78e39c9f99a08ddd7,,,,,,,,,,,,,,,,,,,,,,,,,,,,,,,,,,,,,,,,,,,,,,,,,,,,,,,,,,,,,,,,,,,,,,,,,,,,,,,,,,,,,,,,,,,,,,,,,,,,,
,,,,,,1,0,1,0,1,X V Q F H G B L J M P D K C T S W R N Z,5fa69c24315bfb2d0a37c685,22,Mężczyzna,2022-06-11_10h27.03.391,task,2021.1.4,Win32,143.9470275,6299f149e92ead563fba08ef,62a451c78e39c9f99a08ddd7,,,,,,,,,,,,,,,,,,,,,,,,,,,,,,,,,,,,,,,,,,,,,,,,,,,,,,,,,,,,,,,,,,,,,,,,,,,,,,,,,,,,,,,,,,,,,,,,,,,,,
,,,,,,2,0,2,0,1,X V Q F H G B L J M P D K C T S W R N Z,5fa69c24315bfb2d0a37c685,22,Mężczyzna,2022-06-11_10h27.03.391,task,2021.1.4,Win32,143.9470275,6299f149e92ead563fba08ef,62a451c78e39c9f99a08ddd7,,,,,,,,,,,,,,,,,,,,,,,,,,,,,,,,,,,,,,,,,,,,,,,,,,,,,,,,,,,,,,,,,,,,,,,,,,,,,,,,,,,,,,,,,,,,,,,,,,,,,
,,,,,,3,0,3,0,1,X V Q F H G B L J M P D K C T S W R N Z,5fa69c24315bfb2d0a37c685,22,Mężczyzna,2022-06-11_10h27.03.391,task,2021.1.4,Win32,143.9470275,6299f149e92ead563fba08ef,62a451c78e39c9f99a08ddd7,,,,,,,,,,,,,,,,,,,,,,,,,,,,,,,,,,,,,,,,,,,,,,,,,,,,,,,,,,,,,,,,,,,,,,,,,,,,,,,,,,,,,,,,,,,,,,,,,,,,,
,,,,,,,,,,,,5fa69c24315bfb2d0a37c685,22,Mężczyzna,2022-06-11_10h27.03.391,task,2021.1.4,Win32,143.9470275,6299f149e92ead563fba08ef,62a451c78e39c9f99a08ddd7,mskt,"[""m"",""s"",""k"",""t""]","[0.6592999999523244,1.5082000000476938,2.4822000000476834,2.632200000047689,2.8261000000238425]",1,MSKT,5,0,5,0,1,,,,,,,,,,,,,,,,,,,,,,,,,,,,,,,,,,,,,,,,,,,,,,,,,,,,,,,,,,,,,,,,,,,,,,,,,,,,,,,,,,,,,,,,,,,
,,,,,,0,0,0,0,1,X V Q F H G B L J M P D K C T S W R N Z,5fa69c24315bfb2d0a37c685,22,Mężczyzna,2022-06-11_10h27.03.391,task,2021.1.4,Win32,143.9470275,6299f149e92ead563fba08ef,62a451c78e39c9f99a08ddd7,,,,,,,,,,,,,,,,,,,,,,,,,,,,,,,,,,,,,,,,,,,,,,,,,,,,,,,,,,,,,,,,,,,,,,,,,,,,,,,,,,,,,,,,,,,,,,,,,,,,,
,,,,,,1,0,1,0,1,X V Q F H G B L J M P D K C T S W R N Z,5fa69c24315bfb2d0a37c685,22,Mężczyzna,2022-06-11_10h27.03.391,task,2021.1.4,Win32,143.9470275,6299f149e92ead563fba08ef,62a451c78e39c9f99a08ddd7,,,,,,,,,,,,,,,,,,,,,,,,,,,,,,,,,,,,,,,,,,,,,,,,,,,,,,,,,,,,,,,,,,,,,,,,,,,,,,,,,,,,,,,,,,,,,,,,,,,,,
,,,,,,2,0,2,0,1,X V Q F H G B L J M P D K C T S W R N Z,5fa69c24315bfb2d0a37c685,22,Mężczyzna,2022-06-11_10h27.03.391,task,2021.1.4,Win32,143.9470275,6299f149e92ead563fba08ef,62a451c78e39c9f99a08ddd7,,,,,,,,,,,,,,,,,,,,,,,,,,,,,,,,,,,,,,,,,,,,,,,,,,,,,,,,,,,,,,,,,,,,,,,,,,,,,,,,,,,,,,,,,,,,,,,,,,,,,
,,,,,,3,0,3,0,1,X V Q F H G B L J M P D K C T S W R N Z,5fa69c24315bfb2d0a37c685,22,Mężczyzna,2022-06-11_10h27.03.391,task,2021.1.4,Win32,143.9470275,6299f149e92ead563fba08ef,62a451c78e39c9f99a08ddd7,,,,,,,,,,,,,,,,,,,,,,,,,,,,,,,,,,,,,,,,,,,,,,,,,,,,,,,,,,,,,,,,,,,,,,,,,,,,,,,,,,,,,,,,,,,,,,,,,,,,,
,,,,,,4,0,4,0,1,X V Q F H G B L J M P D K C T S W R N Z,5fa69c24315bfb2d0a37c685,22,Mężczyzna,2022-06-11_10h27.03.391,task,2021.1.4,Win32,143.9470275,6299f149e92ead563fba08ef,62a451c78e39c9f99a08ddd7,,,,,,,,,,,,,,,,,,,,,,,,,,,,,,,,,,,,,,,,,,,,,,,,,,,,,,,,,,,,,,,,,,,,,,,,,,,,,,,,,,,,,,,,,,,,,,,,,,,,,
,,,,,,,,,,,,5fa69c24315bfb2d0a37c685,22,Mężczyzna,2022-06-11_10h27.03.391,task,2021.1.4,Win32,143.9470275,6299f149e92ead563fba08ef,62a451c78e39c9f99a08ddd7,fcdxm,"[""f"",""c"",""d"",""x"",""m""]","[0.6198999999761554,1.8418000000715153,2.3708999999761318,2.710800000071515,3.6732000000476717,3.971800000071511]",1,FCDXM,6,0,6,0,1,,,,,,,,,,,,,,,,,,,,,,,,,,,,,,,,,,,,,,,,,,,,,,,,,,,,,,,,,,,,,,,,,,,,,,,,,,,,,,,,,,,,,,,,,,,
,,,,,,0,0,0,0,1,X V Q F H G B L J M P D K C T S W R N Z,5fa69c24315bfb2d0a37c685,22,Mężczyzna,2022-06-11_10h27.03.391,task,2021.1.4,Win32,143.9470275,6299f149e92ead563fba08ef,62a451c78e39c9f99a08ddd7,,,,,,,,,,,,,,,,,,,,,,,,,,,,,,,,,,,,,,,,,,,,,,,,,,,,,,,,,,,,,,,,,,,,,,,,,,,,,,,,,,,,,,,,,,,,,,,,,,,,,
,,,,,,1,0,1,0,1,X V Q F H G B L J M P D K C T S W R N Z,5fa69c24315bfb2d0a37c685,22,Mężczyzna,2022-06-11_10h27.03.391,task,2021.1.4,Win32,143.9470275,6299f149e92ead563fba08ef,62a451c78e39c9f99a08ddd7,,,,,,,,,,,,,,,,,,,,,,,,,,,,,,,,,,,,,,,,,,,,,,,,,,,,,,,,,,,,,,,,,,,,,,,,,,,,,,,,,,,,,,,,,,,,,,,,,,,,,
,,,,,,2,0,2,0,1,X V Q F H G B L J M P D K C T S W R N Z,5fa69c24315bfb2d0a37c685,22,Mężczyzna,2022-06-11_10h27.03.391,task,2021.1.4,Win32,143.9470275,6299f149e92ead563fba08ef,62a451c78e39c9f99a08ddd7,,,,,,,,,,,,,,,,,,,,,,,,,,,,,,,,,,,,,,,,,,,,,,,,,,,,,,,,,,,,,,,,,,,,,,,,,,,,,,,,,,,,,,,,,,,,,,,,,,,,,
,,,,,,3,0,3,0,1,X V Q F H G B L J M P D K C T S W R N Z,5fa69c24315bfb2d0a37c685,22,Mężczyzna,2022-06-11_10h27.03.391,task,2021.1.4,Win32,143.9470275,6299f149e92ead563fba08ef,62a451c78e39c9f99a08ddd7,,,,,,,,,,,,,,,,,,,,,,,,,,,,,,,,,,,,,,,,,,,,,,,,,,,,,,,,,,,,,,,,,,,,,,,,,,,,,,,,,,,,,,,,,,,,,,,,,,,,,
,,,,,,4,0,4,0,1,X V Q F H G B L J M P D K C T S W R N Z,5fa69c24315bfb2d0a37c685,22,Mężczyzna,2022-06-11_10h27.03.391,task,2021.1.4,Win32,143.9470275,6299f149e92ead563fba08ef,62a451c78e39c9f99a08ddd7,,,,,,,,,,,,,,,,,,,,,,,,,,,,,,,,,,,,,,,,,,,,,,,,,,,,,,,,,,,,,,,,,,,,,,,,,,,,,,,,,,,,,,,,,,,,,,,,,,,,,
,,,,,,,,,,,,5fa69c24315bfb2d0a37c685,22,Mężczyzna,2022-06-11_10h27.03.391,task,2021.1.4,Win32,143.9470275,6299f149e92ead563fba08ef,62a451c78e39c9f99a08ddd7,tjqjm,"[""t"",""j"",""q"",""j"",""m""]","[0.9536999999284603,1.8468999999761593,2.1346000000238234,2.5506999999284687,2.8189999999999884,3.6826000000238253]",0,TJQJT,7,0,7,0,1,,,,,,,,,,,,,,,,,,,,,,,,,,,,,,,,,,,,,,,,,,,,,,,,,,,,,,,,,,,,,,,,,,,,,,,,,,,,,,,,,,,,,,,,,,,
,,,,,,0,0,0,0,1,X V Q F H G B L J M P D K C T S W R N Z,5fa69c24315bfb2d0a37c685,22,Mężczyzna,2022-06-11_10h27.03.391,task,2021.1.4,Win32,143.9470275,6299f149e92ead563fba08ef,62a451c78e39c9f99a08ddd7,,,,,,,,,,,,,,,,,,,,,,,,,,,,,,,,,,,,,,,,,,,,,,,,,,,,,,,,,,,,,,,,,,,,,,,,,,,,,,,,,,,,,,,,,,,,,,,,,,,,,
,,,,,,1,0,1,0,1,X V Q F H G B L J M P D K C T S W R N Z,5fa69c24315bfb2d0a37c685,22,Mężczyzna,2022-06-11_10h27.03.391,task,2021.1.4,Win32,143.9470275,6299f149e92ead563fba08ef,62a451c78e39c9f99a08ddd7,,,,,,,,,,,,,,,,,,,,,,,,,,,,,,,,,,,,,,,,,,,,,,,,,,,,,,,,,,,,,,,,,,,,,,,,,,,,,,,,,,,,,,,,,,,,,,,,,,,,,
,,,,,,2,0,2,0,1,X V Q F H G B L J M P D K C T S W R N Z,5fa69c24315bfb2d0a37c685,22,Mężczyzna,2022-06-11_10h27.03.391,task,2021.1.4,Win32,143.9470275,6299f149e92ead563fba08ef,62a451c78e39c9f99a08ddd7,,,,,,,,,,,,,,,,,,,,,,,,,,,,,,,,,,,,,,,,,,,,,,,,,,,,,,,,,,,,,,,,,,,,,,,,,,,,,,,,,,,,,,,,,,,,,,,,,,,,,
,,,,,,3,0,3,0,1,X V Q F H G B L J M P D K C T S W R N Z,5fa69c24315bfb2d0a37c685,22,Mężczyzna,2022-06-11_10h27.03.391,task,2021.1.4,Win32,143.9470275,6299f149e92ead563fba08ef,62a451c78e39c9f99a08ddd7,,,,,,,,,,,,,,,,,,,,,,,,,,,,,,,,,,,,,,,,,,,,,,,,,,,,,,,,,,,,,,,,,,,,,,,,,,,,,,,,,,,,,,,,,,,,,,,,,,,,,
,,,,,,4,0,4,0,1,X V Q F H G B L J M P D K C T S W R N Z,5fa69c24315bfb2d0a37c685,22,Mężczyzna,2022-06-11_10h27.03.391,task,2021.1.4,Win32,143.9470275,6299f149e92ead563fba08ef,62a451c78e39c9f99a08ddd7,,,,,,,,,,,,,,,,,,,,,,,,,,,,,,,,,,,,,,,,,,,,,,,,,,,,,,,,,,,,,,,,,,,,,,,,,,,,,,,,,,,,,,,,,,,,,,,,,,,,,
,,,,,,,,,,,,5fa69c24315bfb2d0a37c685,22,Mężczyzna,2022-06-11_10h27.03.391,task,2021.1.4,Win32,143.9470275,6299f149e92ead563fba08ef,62a451c78e39c9f99a08ddd7,zswnj,"[""z"",""s"",""w"",""n"",""j""]","[0.416199999928466,0.6452999999523001,0.9031999999284608,1.26400000000001,1.4881000000238487,1.7438999999761506]",1,ZSWNJ,8,0,8,0,1,,,,,,,,,,,,,,,,,,,,,,,,,,,,,,,,,,,,,,,,,,,,,,,,,,,,,,,,,,,,,,,,,,,,,,,,,,,,,,,,,,,,,,,,,,,
,,,,,,0,0,0,0,1,X V Q F H G B L J M P D K C T S W R N Z,5fa69c24315bfb2d0a37c685,22,Mężczyzna,2022-06-11_10h27.03.391,task,2021.1.4,Win32,143.9470275,6299f149e92ead563fba08ef,62a451c78e39c9f99a08ddd7,,,,,,,,,,,,,,,,,,,,,,,,,,,,,,,,,,,,,,,,,,,,,,,,,,,,,,,,,,,,,,,,,,,,,,,,,,,,,,,,,,,,,,,,,,,,,,,,,,,,,
,,,,,,1,0,1,0,1,X V Q F H G B L J M P D K C T S W R N Z,5fa69c24315bfb2d0a37c685,22,Mężczyzna,2022-06-11_10h27.03.391,task,2021.1.4,Win32,143.9470275,6299f149e92ead563fba08ef,62a451c78e39c9f99a08ddd7,,,,,,,,,,,,,,,,,,,,,,,,,,,,,,,,,,,,,,,,,,,,,,,,,,,,,,,,,,,,,,,,,,,,,,,,,,,,,,,,,,,,,,,,,,,,,,,,,,,,,
,,,,,,2,0,2,0,1,X V Q F H G B L J M P D K C T S W R N Z,5fa69c24315bfb2d0a37c685,22,Mężczyzna,2022-06-11_10h27.03.391,task,2021.1.4,Win32,143.9470275,6299f149e92ead563fba08ef,62a451c78e39c9f99a08ddd7,,,,,,,,,,,,,,,,,,,,,,,,,,,,,,,,,,,,,,,,,,,,,,,,,,,,,,,,,,,,,,,,,,,,,,,,,,,,,,,,,,,,,,,,,,,,,,,,,,,,,
,,,,,,3,0,3,0,1,X V Q F H G B L J M P D K C T S W R N Z,5fa69c24315bfb2d0a37c685,22,Mężczyzna,2022-06-11_10h27.03.391,task,2021.1.4,Win32,143.9470275,6299f149e92ead563fba08ef,62a451c78e39c9f99a08ddd7,,,,,,,,,,,,,,,,,,,,,,,,,,,,,,,,,,,,,,,,,,,,,,,,,,,,,,,,,,,,,,,,,,,,,,,,,,,,,,,,,,,,,,,,,,,,,,,,,,,,,
,,,,,,4,0,4,0,1,X V Q F H G B L J M P D K C T S W R N Z,5fa69c24315bfb2d0a37c685,22,Mężczyzna,2022-06-11_10h27.03.391,task,2021.1.4,Win32,143.9470275,6299f149e92ead563fba08ef,62a451c78e39c9f99a08ddd7,,,,,,,,,,,,,,,,,,,,,,,,,,,,,,,,,,,,,,,,,,,,,,,,,,,,,,,,,,,,,,,,,,,,,,,,,,,,,,,,,,,,,,,,,,,,,,,,,,,,,
,,,,,,5,0,5,0,1,X V Q F H G B L J M P D K C T S W R N Z,5fa69c24315bfb2d0a37c685,22,Mężczyzna,2022-06-11_10h27.03.391,task,2021.1.4,Win32,143.9470275,6299f149e92ead563fba08ef,62a451c78e39c9f99a08ddd7,,,,,,,,,,,,,,,,,,,,,,,,,,,,,,,,,,,,,,,,,,,,,,,,,,,,,,,,,,,,,,,,,,,,,,,,,,,,,,,,,,,,,,,,,,,,,,,,,,,,,
,,,,,,,,,,,,5fa69c24315bfb2d0a37c685,22,Mężczyzna,2022-06-11_10h27.03.391,task,2021.1.4,Win32,143.9470275,6299f149e92ead563fba08ef,62a451c78e39c9f99a08ddd7,pbmxzn,"[""p"",""b"",""m"",""x"",""z"",""n""]","[0.5285999999046282,1.1345000000000027,1.9717999999523101,2.541299999952315,3.256599999904637,3.488399999976167,3.7148999999761543]",0,PBXMZG,9,0,9,0,1,,,,,,,,,,,,,,,,,,,,,,,,,,,,,,,,,,,,,,,,,,,,,,,,,,,,,,,,,,,,,,,,,,,,,,,,,,,,,,,,,,,,,,,,,,,
,,,,,,0,0,0,0,1,X V Q F H G B L J M P D K C T S W R N Z,5fa69c24315bfb2d0a37c685,22,Mężczyzna,2022-06-11_10h27.03.391,task,2021.1.4,Win32,143.9470275,6299f149e92ead563fba08ef,62a451c78e39c9f99a08ddd7,,,,,,,,,,,,,,,,,,,,,,,,,,,,,,,,,,,,,,,,,,,,,,,,,,,,,,,,,,,,,,,,,,,,,,,,,,,,,,,,,,,,,,,,,,,,,,,,,,,,,
,,,,,,1,0,1,0,1,X V Q F H G B L J M P D K C T S W R N Z,5fa69c24315bfb2d0a37c685,22,Mężczyzna,2022-06-11_10h27.03.391,task,2021.1.4,Win32,143.9470275,6299f149e92ead563fba08ef,62a451c78e39c9f99a08ddd7,,,,,,,,,,,,,,,,,,,,,,,,,,,,,,,,,,,,,,,,,,,,,,,,,,,,,,,,,,,,,,,,,,,,,,,,,,,,,,,,,,,,,,,,,,,,,,,,,,,,,
,,,,,,2,0,2,0,1,X V Q F H G B L J M P D K C T S W R N Z,5fa69c24315bfb2d0a37c685,22,Mężczyzna,2022-06-11_10h27.03.391,task,2021.1.4,Win32,143.9470275,6299f149e92ead563fba08ef,62a451c78e39c9f99a08ddd7,,,,,,,,,,,,,,,,,,,,,,,,,,,,,,,,,,,,,,,,,,,,,,,,,,,,,,,,,,,,,,,,,,,,,,,,,,,,,,,,,,,,,,,,,,,,,,,,,,,,,
,,,,,,3,0,3,0,1,X V Q F H G B L J M P D K C T S W R N Z,5fa69c24315bfb2d0a37c685,22,Mężczyzna,2022-06-11_10h27.03.391,task,2021.1.4,Win32,143.9470275,6299f149e92ead563fba08ef,62a451c78e39c9f99a08ddd7,,,,,,,,,,,,,,,,,,,,,,,,,,,,,,,,,,,,,,,,,,,,,,,,,,,,,,,,,,,,,,,,,,,,,,,,,,,,,,,,,,,,,,,,,,,,,,,,,,,,,
,,,,,,4,0,4,0,1,X V Q F H G B L J M P D K C T S W R N Z,5fa69c24315bfb2d0a37c685,22,Mężczyzna,2022-06-11_10h27.03.391,task,2021.1.4,Win32,143.9470275,6299f149e92ead563fba08ef,62a451c78e39c9f99a08ddd7,,,,,,,,,,,,,,,,,,,,,,,,,,,,,,,,,,,,,,,,,,,,,,,,,,,,,,,,,,,,,,,,,,,,,,,,,,,,,,,,,,,,,,,,,,,,,,,,,,,,,
,,,,,,5,0,5,0,1,X V Q F H G B L J M P D K C T S W R N Z,5fa69c24315bfb2d0a37c685,22,Mężczyzna,2022-06-11_10h27.03.391,task,2021.1.4,Win32,143.9470275,6299f149e92ead563fba08ef,62a451c78e39c9f99a08ddd7,,,,,,,,,,,,,,,,,,,,,,,,,,,,,,,,,,,,,,,,,,,,,,,,,,,,,,,,,,,,,,,,,,,,,,,,,,,,,,,,,,,,,,,,,,,,,,,,,,,,,
,,,,,,,,,,,,5fa69c24315bfb2d0a37c685,22,Mężczyzna,2022-06-11_10h27.03.391,task,2021.1.4,Win32,143.9470275,6299f149e92ead563fba08ef,62a451c78e39c9f99a08ddd7,ccdfxf,"[""c"",""c"",""d"",""f"",""x"",""f""]","[0.6670000000000016,0.8897000000476964,1.1837000000477076,1.4032000000476899,1.8146000000238587,2.0490000000000066,2.4101000000238457]",0,CCDFSF,10,0,10,0,1,,,,,,,,,,,,,,,,,,,,,,,,,,,,,,,,,,,,,,,,,,,,,,,,,,,,,,,,,,,,,,,,,,,,,,,,,,,,,,,,,,,,,,,,,,,
,,,,,,0,0,0,0,1,X V Q F H G B L J M P D K C T S W R N Z,5fa69c24315bfb2d0a37c685,22,Mężczyzna,2022-06-11_10h27.03.391,task,2021.1.4,Win32,143.9470275,6299f149e92ead563fba08ef,62a451c78e39c9f99a08ddd7,,,,,,,,,,,,,,,,,,,,,,,,,,,,,,,,,,,,,,,,,,,,,,,,,,,,,,,,,,,,,,,,,,,,,,,,,,,,,,,,,,,,,,,,,,,,,,,,,,,,,
,,,,,,1,0,1,0,1,X V Q F H G B L J M P D K C T S W R N Z,5fa69c24315bfb2d0a37c685,22,Mężczyzna,2022-06-11_10h27.03.391,task,2021.1.4,Win32,143.9470275,6299f149e92ead563fba08ef,62a451c78e39c9f99a08ddd7,,,,,,,,,,,,,,,,,,,,,,,,,,,,,,,,,,,,,,,,,,,,,,,,,,,,,,,,,,,,,,,,,,,,,,,,,,,,,,,,,,,,,,,,,,,,,,,,,,,,,
,,,,,,2,0,2,0,1,X V Q F H G B L J M P D K C T S W R N Z,5fa69c24315bfb2d0a37c685,22,Mężczyzna,2022-06-11_10h27.03.391,task,2021.1.4,Win32,143.9470275,6299f149e92ead563fba08ef,62a451c78e39c9f99a08ddd7,,,,,,,,,,,,,,,,,,,,,,,,,,,,,,,,,,,,,,,,,,,,,,,,,,,,,,,,,,,,,,,,,,,,,,,,,,,,,,,,,,,,,,,,,,,,,,,,,,,,,
,,,,,,3,0,3,0,1,X V Q F H G B L J M P D K C T S W R N Z,5fa69c24315bfb2d0a37c685,22,Mężczyzna,2022-06-11_10h27.03.391,task,2021.1.4,Win32,143.9470275,6299f149e92ead563fba08ef,62a451c78e39c9f99a08ddd7,,,,,,,,,,,,,,,,,,,,,,,,,,,,,,,,,,,,,,,,,,,,,,,,,,,,,,,,,,,,,,,,,,,,,,,,,,,,,,,,,,,,,,,,,,,,,,,,,,,,,
,,,,,,4,0,4,0,1,X V Q F H G B L J M P D K C T S W R N Z,5fa69c24315bfb2d0a37c685,22,Mężczyzna,2022-06-11_10h27.03.391,task,2021.1.4,Win32,143.9470275,6299f149e92ead563fba08ef,62a451c78e39c9f99a08ddd7,,,,,,,,,,,,,,,,,,,,,,,,,,,,,,,,,,,,,,,,,,,,,,,,,,,,,,,,,,,,,,,,,,,,,,,,,,,,,,,,,,,,,,,,,,,,,,,,,,,,,
,,,,,,5,0,5,0,1,X V Q F H G B L J M P D K C T S W R N Z,5fa69c24315bfb2d0a37c685,22,Mężczyzna,2022-06-11_10h27.03.391,task,2021.1.4,Win32,143.9470275,6299f149e92ead563fba08ef,62a451c78e39c9f99a08ddd7,,,,,,,,,,,,,,,,,,,,,,,,,,,,,,,,,,,,,,,,,,,,,,,,,,,,,,,,,,,,,,,,,,,,,,,,,,,,,,,,,,,,,,,,,,,,,,,,,,,,,
,,,,,,,,,,,,5fa69c24315bfb2d0a37c685,22,Mężczyzna,2022-06-11_10h27.03.391,task,2021.1.4,Win32,143.9470275,6299f149e92ead563fba08ef,62a451c78e39c9f99a08ddd7,rqjmrw,"[""r"",""q"",""j"",""m"",""r"",""w""]","[0.8892999999522999,1.1472999999523097,1.3751999999284692,2.1738999999761575,2.375399999976139,2.708699999928456,3.604499999999973]",1,RQJMRW,11,0,11,0,1,,,,,,,,,,,,,,,,,,,,,,,,,,,,,,,,,,,,,,,,,,,,,,,,,,,,,,,,,,,,,,,,,,,,,,,,,,,,,,,,,,,,,,,,,,,
,,,,,,0,0,0,0,1,X V Q F H G B L J M P D K C T S W R N Z,5fa69c24315bfb2d0a37c685,22,Mężczyzna,2022-06-11_10h27.03.391,task,2021.1.4,Win32,143.9470275,6299f149e92ead563fba08ef,62a451c78e39c9f99a08ddd7,,,,,,,,,,,,,,,,,,,,,,,,,,,,,,,,,,,,,,,,,,,,,,,,,,,,,,,,,,,,,,,,,,,,,,,,,,,,,,,,,,,,,,,,,,,,,,,,,,,,,
,,,,,,1,0,1,0,1,X V Q F H G B L J M P D K C T S W R N Z,5fa69c24315bfb2d0a37c685,22,Mężczyzna,2022-06-11_10h27.03.391,task,2021.1.4,Win32,143.9470275,6299f149e92ead563fba08ef,62a451c78e39c9f99a08ddd7,,,,,,,,,,,,,,,,,,,,,,,,,,,,,,,,,,,,,,,,,,,,,,,,,,,,,,,,,,,,,,,,,,,,,,,,,,,,,,,,,,,,,,,,,,,,,,,,,,,,,
,,,,,,2,0,2,0,1,X V Q F H G B L J M P D K C T S W R N Z,5fa69c24315bfb2d0a37c685,22,Mężczyzna,2022-06-11_10h27.03.391,task,2021.1.4,Win32,143.9470275,6299f149e92ead563fba08ef,62a451c78e39c9f99a08ddd7,,,,,,,,,,,,,,,,,,,,,,,,,,,,,,,,,,,,,,,,,,,,,,,,,,,,,,,,,,,,,,,,,,,,,,,,,,,,,,,,,,,,,,,,,,,,,,,,,,,,,
,,,,,,3,0,3,0,1,X V Q F H G B L J M P D K C T S W R N Z,5fa69c24315bfb2d0a37c685,22,Mężczyzna,2022-06-11_10h27.03.391,task,2021.1.4,Win32,143.9470275,6299f149e92ead563fba08ef,62a451c78e39c9f99a08ddd7,,,,,,,,,,,,,,,,,,,,,,,,,,,,,,,,,,,,,,,,,,,,,,,,,,,,,,,,,,,,,,,,,,,,,,,,,,,,,,,,,,,,,,,,,,,,,,,,,,,,,
,,,,,,4,0,4,0,1,X V Q F H G B L J M P D K C T S W R N Z,5fa69c24315bfb2d0a37c685,22,Mężczyzna,2022-06-11_10h27.03.391,task,2021.1.4,Win32,143.9470275,6299f149e92ead563fba08ef,62a451c78e39c9f99a08ddd7,,,,,,,,,,,,,,,,,,,,,,,,,,,,,,,,,,,,,,,,,,,,,,,,,,,,,,,,,,,,,,,,,,,,,,,,,,,,,,,,,,,,,,,,,,,,,,,,,,,,,
,,,,,,5,0,5,0,1,X V Q F H G B L J M P D K C T S W R N Z,5fa69c24315bfb2d0a37c685,22,Mężczyzna,2022-06-11_10h27.03.391,task,2021.1.4,Win32,143.9470275,6299f149e92ead563fba08ef,62a451c78e39c9f99a08ddd7,,,,,,,,,,,,,,,,,,,,,,,,,,,,,,,,,,,,,,,,,,,,,,,,,,,,,,,,,,,,,,,,,,,,,,,,,,,,,,,,,,,,,,,,,,,,,,,,,,,,,
,,,,,,,,,,,,5fa69c24315bfb2d0a37c685,22,Mężczyzna,2022-06-11_10h27.03.391,task,2021.1.4,Win32,143.9470275,6299f149e92ead563fba08ef,62a451c78e39c9f99a08ddd7,jmnjff,"[""j"",""m"",""n"",""j"",""f"",""f""]","[0.597500000000025,0.9117000000476878,1.2156000000238407,1.514300000071529,1.7573999999761725,1.9596000000238405,2.2988999999761575]",1,JMNJFF,12,0,12,0,1,,,,,,,,,,,,,,,,,,,,,,,,,,,,,,,,,,,,,,,,,,,,,,,,,,,,,,,,,,,,,,,,,,,,,,,,,,,,,,,,,,,,,,,,,,,
,,,,,,0,0,0,0,1,X V Q F H G B L J M P D K C T S W R N Z,5fa69c24315bfb2d0a37c685,22,Mężczyzna,2022-06-11_10h27.03.391,task,2021.1.4,Win32,143.9470275,6299f149e92ead563fba08ef,62a451c78e39c9f99a08ddd7,,,,,,,,,,,,,,,,,,,,,,,,,,,,,,,,,,,,,,,,,,,,,,,,,,,,,,,,,,,,,,,,,,,,,,,,,,,,,,,,,,,,,,,,,,,,,,,,,,,,,
,,,,,,1,0,1,0,1,X V Q F H G B L J M P D K C T S W R N Z,5fa69c24315bfb2d0a37c685,22,Mężczyzna,2022-06-11_10h27.03.391,task,2021.1.4,Win32,143.9470275,6299f149e92ead563fba08ef,62a451c78e39c9f99a08ddd7,,,,,,,,,,,,,,,,,,,,,,,,,,,,,,,,,,,,,,,,,,,,,,,,,,,,,,,,,,,,,,,,,,,,,,,,,,,,,,,,,,,,,,,,,,,,,,,,,,,,,
,,,,,,2,0,2,0,1,X V Q F H G B L J M P D K C T S W R N Z,5fa69c24315bfb2d0a37c685,22,Mężczyzna,2022-06-11_10h27.03.391,task,2021.1.4,Win32,143.9470275,6299f149e92ead563fba08ef,62a451c78e39c9f99a08ddd7,,,,,,,,,,,,,,,,,,,,,,,,,,,,,,,,,,,,,,,,,,,,,,,,,,,,,,,,,,,,,,,,,,,,,,,,,,,,,,,,,,,,,,,,,,,,,,,,,,,,,
,,,,,,3,0,3,0,1,X V Q F H G B L J M P D K C T S W R N Z,5fa69c24315bfb2d0a37c685,22,Mężczyzna,2022-06-11_10h27.03.391,task,2021.1.4,Win32,143.9470275,6299f149e92ead563fba08ef,62a451c78e39c9f99a08ddd7,,,,,,,,,,,,,,,,,,,,,,,,,,,,,,,,,,,,,,,,,,,,,,,,,,,,,,,,,,,,,,,,,,,,,,,,,,,,,,,,,,,,,,,,,,,,,,,,,,,,,
,,,,,,4,0,4,0,1,X V Q F H G B L J M P D K C T S W R N Z,5fa69c24315bfb2d0a37c685,22,Mężczyzna,2022-06-11_10h27.03.391,task,2021.1.4,Win32,143.9470275,6299f149e92ead563fba08ef,62a451c78e39c9f99a08ddd7,,,,,,,,,,,,,,,,,,,,,,,,,,,,,,,,,,,,,,,,,,,,,,,,,,,,,,,,,,,,,,,,,,,,,,,,,,,,,,,,,,,,,,,,,,,,,,,,,,,,,
,,,,,,5,0,5,0,1,X V Q F H G B L J M P D K C T S W R N Z,5fa69c24315bfb2d0a37c685,22,Mężczyzna,2022-06-11_10h27.03.391,task,2021.1.4,Win32,143.9470275,6299f149e92ead563fba08ef,62a451c78e39c9f99a08ddd7,,,,,,,,,,,,,,,,,,,,,,,,,,,,,,,,,,,,,,,,,,,,,,,,,,,,,,,,,,,,,,,,,,,,,,,,,,,,,,,,,,,,,,,,,,,,,,,,,,,,,
,,,,,,6,0,6,0,1,X V Q F H G B L J M P D K C T S W R N Z,5fa69c24315bfb2d0a37c685,22,Mężczyzna,2022-06-11_10h27.03.391,task,2021.1.4,Win32,143.9470275,6299f149e92ead563fba08ef,62a451c78e39c9f99a08ddd7,,,,,,,,,,,,,,,,,,,,,,,,,,,,,,,,,,,,,,,,,,,,,,,,,,,,,,,,,,,,,,,,,,,,,,,,,,,,,,,,,,,,,,,,,,,,,,,,,,,,,
,,,,,,,,,,,,5fa69c24315bfb2d0a37c685,22,Mężczyzna,2022-06-11_10h27.03.391,task,2021.1.4,Win32,143.9470275,6299f149e92ead563fba08ef,62a451c78e39c9f99a08ddd7,gnckqtz,"[""g"",""n"",""c"",""k"",""q"",""t"",""z""]","[0.8200999999046132,1.1529999999999916,1.75009999990462,2.2598999999761418,2.5918999999761354,2.8478999999761356,3.113799999952306,3.3697999999523063]",0,GVNCKTZ,13,0,13,0,1,,,,,,,,,,,,,,,,,,,,,,,,,,,,,,,,,,,,,,,,,,,,,,,,,,,,,,,,,,,,,,,,,,,,,,,,,,,,,,,,,,,,,,,,,,,
,,,,,,0,0,0,0,1,X V Q F H G B L J M P D K C T S W R N Z,5fa69c24315bfb2d0a37c685,22,Mężczyzna,2022-06-11_10h27.03.391,task,2021.1.4,Win32,143.9470275,6299f149e92ead563fba08ef,62a451c78e39c9f99a08ddd7,,,,,,,,,,,,,,,,,,,,,,,,,,,,,,,,,,,,,,,,,,,,,,,,,,,,,,,,,,,,,,,,,,,,,,,,,,,,,,,,,,,,,,,,,,,,,,,,,,,,,
,,,,,,1,0,1,0,1,X V Q F H G B L J M P D K C T S W R N Z,5fa69c24315bfb2d0a37c685,22,Mężczyzna,2022-06-11_10h27.03.391,task,2021.1.4,Win32,143.9470275,6299f149e92ead563fba08ef,62a451c78e39c9f99a08ddd7,,,,,,,,,,,,,,,,,,,,,,,,,,,,,,,,,,,,,,,,,,,,,,,,,,,,,,,,,,,,,,,,,,,,,,,,,,,,,,,,,,,,,,,,,,,,,,,,,,,,,
,,,,,,2,0,2,0,1,X V Q F H G B L J M P D K C T S W R N Z,5fa69c24315bfb2d0a37c685,22,Mężczyzna,2022-06-11_10h27.03.391,task,2021.1.4,Win32,143.9470275,6299f149e92ead563fba08ef,62a451c78e39c9f99a08ddd7,,,,,,,,,,,,,,,,,,,,,,,,,,,,,,,,,,,,,,,,,,,,,,,,,,,,,,,,,,,,,,,,,,,,,,,,,,,,,,,,,,,,,,,,,,,,,,,,,,,,,
,,,,,,3,0,3,0,1,X V Q F H G B L J M P D K C T S W R N Z,5fa69c24315bfb2d0a37c685,22,Mężczyzna,2022-06-11_10h27.03.391,task,2021.1.4,Win32,143.9470275,6299f149e92ead563fba08ef,62a451c78e39c9f99a08ddd7,,,,,,,,,,,,,,,,,,,,,,,,,,,,,,,,,,,,,,,,,,,,,,,,,,,,,,,,,,,,,,,,,,,,,,,,,,,,,,,,,,,,,,,,,,,,,,,,,,,,,
,,,,,,4,0,4,0,1,X V Q F H G B L J M P D K C T S W R N Z,5fa69c24315bfb2d0a37c685,22,Mężczyzna,2022-06-11_10h27.03.391,task,2021.1.4,Win32,143.9470275,6299f149e92ead563fba08ef,62a451c78e39c9f99a08ddd7,,,,,,,,,,,,,,,,,,,,,,,,,,,,,,,,,,,,,,,,,,,,,,,,,,,,,,,,,,,,,,,,,,,,,,,,,,,,,,,,,,,,,,,,,,,,,,,,,,,,,
,,,,,,5,0,5,0,1,X V Q F H G B L J M P D K C T S W R N Z,5fa69c24315bfb2d0a37c685,22,Mężczyzna,2022-06-11_10h27.03.391,task,2021.1.4,Win32,143.9470275,6299f149e92ead563fba08ef,62a451c78e39c9f99a08ddd7,,,,,,,,,,,,,,,,,,,,,,,,,,,,,,,,,,,,,,,,,,,,,,,,,,,,,,,,,,,,,,,,,,,,,,,,,,,,,,,,,,,,,,,,,,,,,,,,,,,,,
,,,,,,6,0,6,0,1,X V Q F H G B L J M P D K C T S W R N Z,5fa69c24315bfb2d0a37c685,22,Mężczyzna,2022-06-11_10h27.03.391,task,2021.1.4,Win32,143.9470275,6299f149e92ead563fba08ef,62a451c78e39c9f99a08ddd7,,,,,,,,,,,,,,,,,,,,,,,,,,,,,,,,,,,,,,,,,,,,,,,,,,,,,,,,,,,,,,,,,,,,,,,,,,,,,,,,,,,,,,,,,,,,,,,,,,,,,
,,,,,,,,,,,,5fa69c24315bfb2d0a37c685,22,Mężczyzna,2022-06-11_10h27.03.391,task,2021.1.4,Win32,143.9470275,6299f149e92ead563fba08ef,62a451c78e39c9f99a08ddd7,pnhzgzg,"[""p"",""n"",""h"",""z"",""g"",""z"",""g""]","[0.8839000000953661,1.291900000095353,1.6477000000476778,1.8548000000715206,1.9868000000715256,3.2089000000953547,3.5849000000953595,3.8619000000953463]",0,PNHZLGZ,14,0,14,0,1,,,,,,,,,,,,,,,,,,,,,,,,,,,,,,,,,,,,,,,,,,,,,,,,,,,,,,,,,,,,,,,,,,,,,,,,,,,,,,,,,,,,,,,,,,,
,,,,,,0,0,0,0,1,X V Q F H G B L J M P D K C T S W R N Z,5fa69c24315bfb2d0a37c685,22,Mężczyzna,2022-06-11_10h27.03.391,task,2021.1.4,Win32,143.9470275,6299f149e92ead563fba08ef,62a451c78e39c9f99a08ddd7,,,,,,,,,,,,,,,,,,,,,,,,,,,,,,,,,,,,,,,,,,,,,,,,,,,,,,,,,,,,,,,,,,,,,,,,,,,,,,,,,,,,,,,,,,,,,,,,,,,,,
,,,,,,1,0,1,0,1,X V Q F H G B L J M P D K C T S W R N Z,5fa69c24315bfb2d0a37c685,22,Mężczyzna,2022-06-11_10h27.03.391,task,2021.1.4,Win32,143.9470275,6299f149e92ead563fba08ef,62a451c78e39c9f99a08ddd7,,,,,,,,,,,,,,,,,,,,,,,,,,,,,,,,,,,,,,,,,,,,,,,,,,,,,,,,,,,,,,,,,,,,,,,,,,,,,,,,,,,,,,,,,,,,,,,,,,,,,
,,,,,,2,0,2,0,1,X V Q F H G B L J M P D K C T S W R N Z,5fa69c24315bfb2d0a37c685,22,Mężczyzna,2022-06-11_10h27.03.391,task,2021.1.4,Win32,143.9470275,6299f149e92ead563fba08ef,62a451c78e39c9f99a08ddd7,,,,,,,,,,,,,,,,,,,,,,,,,,,,,,,,,,,,,,,,,,,,,,,,,,,,,,,,,,,,,,,,,,,,,,,,,,,,,,,,,,,,,,,,,,,,,,,,,,,,,
,,,,,,3,0,3,0,1,X V Q F H G B L J M P D K C T S W R N Z,5fa69c24315bfb2d0a37c685,22,Mężczyzna,2022-06-11_10h27.03.391,task,2021.1.4,Win32,143.9470275,6299f149e92ead563fba08ef,62a451c78e39c9f99a08ddd7,,,,,,,,,,,,,,,,,,,,,,,,,,,,,,,,,,,,,,,,,,,,,,,,,,,,,,,,,,,,,,,,,,,,,,,,,,,,,,,,,,,,,,,,,,,,,,,,,,,,,
,,,,,,4,0,4,0,1,X V Q F H G B L J M P D K C T S W R N Z,5fa69c24315bfb2d0a37c685,22,Mężczyzna,2022-06-11_10h27.03.391,task,2021.1.4,Win32,143.9470275,6299f149e92ead563fba08ef,62a451c78e39c9f99a08ddd7,,,,,,,,,,,,,,,,,,,,,,,,,,,,,,,,,,,,,,,,,,,,,,,,,,,,,,,,,,,,,,,,,,,,,,,,,,,,,,,,,,,,,,,,,,,,,,,,,,,,,
,,,,,,5,0,5,0,1,X V Q F H G B L J M P D K C T S W R N Z,5fa69c24315bfb2d0a37c685,22,Mężczyzna,2022-06-11_10h27.03.391,task,2021.1.4,Win32,143.9470275,6299f149e92ead563fba08ef,62a451c78e39c9f99a08ddd7,,,,,,,,,,,,,,,,,,,,,,,,,,,,,,,,,,,,,,,,,,,,,,,,,,,,,,,,,,,,,,,,,,,,,,,,,,,,,,,,,,,,,,,,,,,,,,,,,,,,,
,,,,,,6,0,6,0,1,X V Q F H G B L J M P D K C T S W R N Z,5fa69c24315bfb2d0a37c685,22,Mężczyzna,2022-06-11_10h27.03.391,task,2021.1.4,Win32,143.9470275,6299f149e92ead563fba08ef,62a451c78e39c9f99a08ddd7,,,,,,,,,,,,,,,,,,,,,,,,,,,,,,,,,,,,,,,,,,,,,,,,,,,,,,,,,,,,,,,,,,,,,,,,,,,,,,,,,,,,,,,,,,,,,,,,,,,,,
,,,,,,,,,,,,5fa69c24315bfb2d0a37c685,22,Mężczyzna,2022-06-11_10h27.03.391,task,2021.1.4,Win32,143.9470275,6299f149e92ead563fba08ef,62a451c78e39c9f99a08ddd7,shpvnsh,"[""s"",""h"",""p"",""v"",""n"",""s"",""h""]","[0.5767999999523283,0.8197000000476748,0.9176000000238389,1.3058999999761625,2.2735000000000127,2.9238999999761575,3.021200000047685,3.5490000000000066]",0,SHPVSNH,15,0,15,0,1,,,,,,,,,,,,,,,,,,,,,,,,,,,,,,,,,,,,,,,,,,,,,,,,,,,,,,,,,,,,,,,,,,,,,,,,,,,,,,,,,,,,,,,,,,,
,,,,,,,,,,,,5fa69c24315bfb2d0a37c685,22,Mężczyzna,2022-06-11_10h27.03.391,task,2021.1.4,Win32,143.9470275,6299f149e92ead563fba08ef,62a451c78e39c9f99a08ddd7,,,,,,,,,,,space,13.6308,6,"[""6""]",1,[2.9951000000238537],[2.9951000000238537],0,0,0,6,1,Practice,7,(25/5) + 1,6,,,,,,,,,,,,,,,,,,,,,,,,,,,,,,,,,,,,,,,,,,,,,,,,,,,,,,,,,,,,,,,,,,,,,,,,,,,
,,,,,,,,,,,,5fa69c24315bfb2d0a37c685,22,Mężczyzna,2022-06-11_10h27.03.391,task,2021.1.4,Win32,143.9470275,6299f149e92ead563fba08ef,62a451c78e39c9f99a08ddd7,,,,,,,,,,,,,1,"[""1""]",1,[2.7425999999046553],"[2.9951000000238537,2.7425999999046553]",0,1,1,1,1,Practice,2,(4x4) - 15,1,,,,,,,,,,,,,,,,,,,,,,,,,,,,,,,,,,,,,,,,,,,,,,,,,,,,,,,,,,,,,,,,,,,,,,,,,,,
,,,,,,,,,,,,5fa69c24315bfb2d0a37c685,22,Mężczyzna,2022-06-11_10h27.03.391,task,2021.1.4,Win32,143.9470275,6299f149e92ead563fba08ef,62a451c78e39c9f99a08ddd7,,,,,,,,,,,,,9,"[""9""]",1,[3.5828999999761777],"[2.9951000000238537,2.7425999999046553,3.5828999999761777]",0,2,2,9,1,Practice,10,(20/2) - 1,9,,,,,,,,,,,,,,,,,,,,,,,,,,,,,,,,,,,,,,,,,,,,,,,,,,,,,,,,,,,,,,,,,,,,,,,,,,,
,,,,,,,,,,,,5fa69c24315bfb2d0a37c685,22,Mężczyzna,2022-06-11_10h27.03.391,task,2021.1.4,Win32,143.9470275,6299f149e92ead563fba08ef,62a451c78e39c9f99a08ddd7,,,,,,,,,,,,,7,"[""7""]",1,[2.383400000095378],"[2.9951000000238537,2.7425999999046553,3.5828999999761777,2.383400000095378]",0,3,3,7,1,Practice,8,(5x5) - 18,7,,,,,,,,,,,,,,,,,,,,,,,,,,,,,,,,,,,,,,,,,,,,,,,,,,,,,,,,,,,,,,,,,,,,,,,,,,,
,,,,,,,,,,,,5fa69c24315bfb2d0a37c685,22,Mężczyzna,2022-06-11_10h27.03.391,task,2021.1.4,Win32,143.9470275,6299f149e92ead563fba08ef,62a451c78e39c9f99a08ddd7,,,,,,,,,,,,,8,"[""8""]",1,[2.2366000000238273],"[2.9951000000238537,2.7425999999046553,3.5828999999761777,2.383400000095378,2.2366000000238273]",0,4,4,8,1,Practice,9,(3x3) - 1,8,,,,,,,,,,,,,,,,,,,,,,,,,,,,,,,,,,,,,,,,,,,,,,,,,,,,,,,,,,,,,,,,,,,,,,,,,,,
,,,,,,,,,,,,5fa69c24315bfb2d0a37c685,22,Mężczyzna,2022-06-11_10h27.03.391,task,2021.1.4,Win32,143.9470275,6299f149e92ead563fba08ef,62a451c78e39c9f99a08ddd7,,,,,,,,,,,,,5,"[""5""]",1,[2.722600000023874],"[2.9951000000238537,2.7425999999046553,3.5828999999761777,2.383400000095378,2.2366000000238273,2.722600000023874]",0,5,5,5,1,Practice,6,(4/2) + 3,5,,,,,,,,,,,,,,,,,,,,,,,,,,,,,,,,,,,,,,,,,,,,,,,,,,,,,,,,,,,,,,,,,,,,,,,,,,,
,,,,,,,,,,,,5fa69c24315bfb2d0a37c685,22,Mężczyzna,2022-06-11_10h27.03.391,task,2021.1.4,Win32,143.9470275,6299f149e92ead563fba08ef,62a451c78e39c9f99a08ddd7,,,,,,,,,,,,,3,"[""3""]",1,[1.5135000000000218],"[2.9951000000238537,2.7425999999046553,3.5828999999761777,2.383400000095378,2.2366000000238273,2.722600000023874,1.5135000000000218]",0,6,6,3,1,Practice,4,(8/4) + 1,3,,,,,,,,,,,,,,,,,,,,,,,,,,,,,,,,,,,,,,,,,,,,,,,,,,,,,,,,,,,,,,,,,,,,,,,,,,,
,,,,,,,,,,,,5fa69c24315bfb2d0a37c685,22,Mężczyzna,2022-06-11_10h27.03.391,task,2021.1.4,Win32,143.9470275,6299f149e92ead563fba08ef,62a451c78e39c9f99a08ddd7,,,,,,,,,,,,,0,"[""0""]",1,[1.8398999999761827],"[2.9951000000238537,2.7425999999046553,3.5828999999761777,2.383400000095378,2.2366000000238273,2.722600000023874,1.5135000000000218,1.8398999999761827]",0,7,7,0,1,Practice,1,(3x3) -  9,0,,,,,,,,,,,,,,,,,,,,,,,,,,,,,,,,,,,,,,,,,,,,,,,,,,,,,,,,,,,,,,,,,,,,,,,,,,,
,,,,,,,,,,,,5fa69c24315bfb2d0a37c685,22,Mężczyzna,2022-06-11_10h27.03.391,task,2021.1.4,Win32,143.9470275,6299f149e92ead563fba08ef,62a451c78e39c9f99a08ddd7,,,,,,,,,,,,,4,"[""4""]",1,[1.867600000023856],"[2.9951000000238537,2.7425999999046553,3.5828999999761777,2.383400000095378,2.2366000000238273,2.722600000023874,1.5135000000000218,1.8398999999761827,1.867600000023856]",0,8,8,4,1,Practice,5,(2x6) - 8,4,,,,,,,,,,,,,,,,,,,,,,,,,,,,,,,,,,,,,,,,,,,,,,,,,,,,,,,,,,,,,,,,,,,,,,,,,,,
,,,,,,,,,,,,5fa69c24315bfb2d0a37c685,22,Mężczyzna,2022-06-11_10h27.03.391,task,2021.1.4,Win32,143.9470275,6299f149e92ead563fba08ef,62a451c78e39c9f99a08ddd7,,,,,,,,,,,,,2,"[""2""]",1,[1.5776000000238355],"[2.9951000000238537,2.7425999999046553,3.5828999999761777,2.383400000095378,2.2366000000238273,2.722600000023874,1.5135000000000218,1.8398999999761827,1.867600000023856,1.5776000000238355]",0,9,9,2,1,Practice,3,(4x4) - 14,2,,,,,,,,,,,,,,,,,,,,,,,,,,,,,,,,,,,,,,,,,,,,,,,,,,,,,,,,,,,,,,,,,,,,,,,,,,,
,,,,,,,,,,,,5fa69c24315bfb2d0a37c685,22,Mężczyzna,2022-06-11_10h27.03.391,task,2021.1.4,Win32,143.9470275,6299f149e92ead563fba08ef,62a451c78e39c9f99a08ddd7,,,,,,,,,,,,,,,,,,,,,,,,,,,1,23.4618,1.56412,10.14841535,0.822533296,3.686255904,space,1.5767,0,0,0,0,1,,,,,,,,,,,,,,,,,,,,,,,,,,,,,,,,,,,,,,,,,,,,,,,,,,,,,,,,,,,,,,
,,,,,,,,,,,,5fa69c24315bfb2d0a37c685,22,Mężczyzna,2022-06-11_10h27.03.391,task,2021.1.4,Win32,143.9470275,6299f149e92ead563fba08ef,62a451c78e39c9f99a08ddd7,,,,,,,,,,,,,6,,,,,,,,,,Practice,7,(25/5) + 1,6,,,,,,,,,,,,,,space,18.3621,"[""6""]",1,[2.863200000047698],1,0,0,0,6,1,,,,,,,,,,,,,,,,,,,,,,,,,,,,,,,,,,,,,,,,,,,,,,,,,,,
,,,,,,,,,,,X V Q F H G B L J M P D K C T S W R N Z,5fa69c24315bfb2d0a37c685,22,Mężczyzna,2022-06-11_10h27.03.391,task,2021.1.4,Win32,143.9470275,6299f149e92ead563fba08ef,62a451c78e39c9f99a08ddd7,,,,,,,,,,,,,,,,,,,,,,,,,,,,,,,,,,,,,,,,,,,,,,,,,,,0,0,0,0,1,,,,,,,,,,,,,,,,,,,,,,,,,,,,,,,,,,,,,,,,,,,,,,
,,,,,,,,,,,,5fa69c24315bfb2d0a37c685,22,Mężczyzna,2022-06-11_10h27.03.391,task,2021.1.4,Win32,143.9470275,6299f149e92ead563fba08ef,62a451c78e39c9f99a08ddd7,,,,,,,,,,,,,,,,,,,,,,,Practice,10,(20/2) - 1,9,,,,,,,,,,,,,,,,,0,,0,0,0,0,9,1,,,,,,,,,,,,,,,,,,,,,,,,,,,,,,,,,,,,,,,,,,,,,,,,,,,
,,,,,,,,,,,,5fa69c24315bfb2d0a37c685,22,Mężczyzna,2022-06-11_10h27.03.391,task,2021.1.4,Win32,143.9470275,6299f149e92ead563fba08ef,62a451c78e39c9f99a08ddd7,,,,,,,,,,,,,8,,,,,,,,,,Practice,9,(3x3) - 1,8,,,,,,,,,,,,,,,,"[""8""]",1,[1.4507999999523236],1,0,1,1,8,1,,,,,,,,,,,,,,,,,,,,,,,,,,,,,,,,,,,,,,,,,,,,,,,,,,,
,,,,,,,,,,,X V Q F H G B L J M P D K C T S W R N Z,5fa69c24315bfb2d0a37c685,22,Mężczyzna,2022-06-11_10h27.03.391,task,2021.1.4,Win32,143.9470275,6299f149e92ead563fba08ef,62a451c78e39c9f99a08ddd7,,,,,,,,,,,,,,,,,,,,,,,,,,,,,,,,,,,,,,,,,,,,,,,,,,,1,0,1,0,1,,,,,,,,,,,,,,,,,,,,,,,,,,,,,,,,,,,,,,,,,,,,,,
,,,,,,,,,,,,5fa69c24315bfb2d0a37c685,22,Mężczyzna,2022-06-11_10h27.03.391,task,2021.1.4,Win32,143.9470275,6299f149e92ead563fba08ef,62a451c78e39c9f99a08ddd7,,,,,,,,,,,,,,,,,,,,,,,,,,,,,,,,,,,,,,,,,,,,,,,,,,,,,,,,zg,"[""z"",""g""]",0,"[2.785799999952303,3.0097999999522926,3.708699999928456]",1,0,0,0,0,1,,,,,,,,,,,,,,,,,,,,,,,,,,,,,,,,,,,,
,,,,,,,,,,,,5fa69c24315bfb2d0a37c685,22,Mężczyzna,2022-06-11_10h27.03.391,task,2021.1.4,Win32,143.9470275,6299f149e92ead563fba08ef,62a451c78e39c9f99a08ddd7,,,,,,,,,,,,,5,,,,,,,,,,Practice,6,(4/2) + 3,5,,,,,,,,,,,,,,,,"[""5""]",1,[1.659100000023841],1,0,0,0,5,1,,,,,,,,,,,,,,,,,,,,,,,,,,,,,,,,,,,,,,,,,,,,,,,,,,,
,,,,,,,,,,,X V Q F H G B L J M P D K C T S W R N Z,5fa69c24315bfb2d0a37c685,22,Mężczyzna,2022-06-11_10h27.03.391,task,2021.1.4,Win32,143.9470275,6299f149e92ead563fba08ef,62a451c78e39c9f99a08ddd7,,,,,,,,,,,,,,,,,,,,,,,,,,,,,,,,,,,,,,,,,,,,,,,,,,,0,0,0,0,1,,,,,,,,,,,,,,,,,,,,,,,,,,,,,,,,,,,,,,,,,,,,,,
,,,,,,,,,,,,5fa69c24315bfb2d0a37c685,22,Mężczyzna,2022-06-11_10h27.03.391,task,2021.1.4,Win32,143.9470275,6299f149e92ead563fba08ef,62a451c78e39c9f99a08ddd7,,,,,,,,,,,,,0,,,,,,,,,,Practice,1,(3x3) -  9,0,,,,,,,,,,,,,,,,"[""0""]",1,[1.7378999999761504],1,0,0,0,0,1,,,,,,,,,,,,,,,,,,,,,,,,,,,,,,,,,,,,,,,,,,,,,,,,,,,
,,,,,,,,,,,X V Q F H G B L J M P D K C T S W R N Z,5fa69c24315bfb2d0a37c685,22,Mężczyzna,2022-06-11_10h27.03.391,task,2021.1.4,Win32,143.9470275,6299f149e92ead563fba08ef,62a451c78e39c9f99a08ddd7,,,,,,,,,,,,,,,,,,,,,,,,,,,,,,,,,,,,,,,,,,,,,,,,,,,1,0,1,0,1,,,,,,,,,,,,,,,,,,,,,,,,,,,,,,,,,,,,,,,,,,,,,,
,,,,,,,,,,,,5fa69c24315bfb2d0a37c685,22,Mężczyzna,2022-06-11_10h27.03.391,task,2021.1.4,Win32,143.9470275,6299f149e92ead563fba08ef,62a451c78e39c9f99a08ddd7,,,,,,,,,,,,,,,,,,,,,,,,,,,,,,,,,,,,,,,,,,,,,,,,,,,,,,,,gs,"[""g"",""s""]",0,"[1.6963999999761654,1.9313999999761222,2.146199999928456]",1,1,0,1,0,1,,,,,,,,,,,,,,,,,,,,,,,,,,,,,,,,,,,,
,,,,,,,,,,,,5fa69c24315bfb2d0a37c685,22,Mężczyzna,2022-06-11_10h27.03.391,task,2021.1.4,Win32,143.9470275,6299f149e92ead563fba08ef,62a451c78e39c9f99a08ddd7,,,,,,,,,,,,,4,,,,,,,,,,Practice,5,(2x6) - 8,4,,,,,,,,,,,,,,,,"[""4""]",1,[1.6318000000715642],1,0,0,0,4,1,,,,,,,,,,,,,,,,,,,,,,,,,,,,,,,,,,,,,,,,,,,,,,,,,,,
,,,,,,,,,,,X V Q F H G B L J M P D K C T S W R N Z,5fa69c24315bfb2d0a37c685,22,Mężczyzna,2022-06-11_10h27.03.391,task,2021.1.4,Win32,143.9470275,6299f149e92ead563fba08ef,62a451c78e39c9f99a08ddd7,,,,,,,,,,,,,,,,,,,,,,,,,,,,,,,,,,,,,,,,,,,,,,,,,,,0,0,0,0,1,,,,,,,,,,,,,,,,,,,,,,,,,,,,,,,,,,,,,,,,,,,,,,
,,,,,,,,,,,,5fa69c24315bfb2d0a37c685,22,Mężczyzna,2022-06-11_10h27.03.391,task,2021.1.4,Win32,143.9470275,6299f149e92ead563fba08ef,62a451c78e39c9f99a08ddd7,,,,,,,,,,,,,7,,,,,,,,,,Practice,8,(5x5) - 18,7,,,,,,,,,,,,,,,,"[""7""]",1,[2.0550999999046553],1,0,0,0,7,1,,,,,,,,,,,,,,,,,,,,,,,,,,,,,,,,,,,,,,,,,,,,,,,,,,,
,,,,,,,,,,,X V Q F H G B L J M P D K C T S W R N Z,5fa69c24315bfb2d0a37c685,22,Mężczyzna,2022-06-11_10h27.03.391,task,2021.1.4,Win32,143.9470275,6299f149e92ead563fba08ef,62a451c78e39c9f99a08ddd7,,,,,,,,,,,,,,,,,,,,,,,,,,,,,,,,,,,,,,,,,,,,,,,,,,,1,0,1,0,1,,,,,,,,,,,,,,,,,,,,,,,,,,,,,,,,,,,,,,,,,,,,,,
,,,,,,,,,,,,5fa69c24315bfb2d0a37c685,22,Mężczyzna,2022-06-11_10h27.03.391,task,2021.1.4,Win32,143.9470275,6299f149e92ead563fba08ef,62a451c78e39c9f99a08ddd7,,,,,,,,,,,,,,,,,,,,,,,,,,,,,,,,,,,,,,,,,,,,,,,,,,,,,,,,xx,"[""x"",""x""]",0,"[1.5206000000238191,1.7796000000238337,2.034600000023829]",1,2,0,2,0,1,,,,,,,,,,,,,,,,,,,,,,,,,,,,,,,,,,,,
,,,,,,,,,,,,5fa69c24315bfb2d0a37c685,22,Mężczyzna,2022-06-11_10h27.03.391,task,2021.1.4,Win32,143.9470275,6299f149e92ead563fba08ef,62a451c78e39c9f99a08ddd7,,,,,,,,,,,,,0,,,,,,,,,,Task,17,(2x3) - 6,0,,,,,,,,,,,,,,,,,,,1,,,,,,,,,,,,,,,,,,,,,space,14.8776,"[""0""]",1,[1.7425999999045985],0,0,0,16,1,,,,,,,,,,,,,,,,,,,,,,,,,,
,,,,,,,,,,,X V Q F H G B L J M P D K C T S W R N Z,5fa69c24315bfb2d0a37c685,22,Mężczyzna,2022-06-11_10h27.03.391,task,2021.1.4,Win32,143.9470275,6299f149e92ead563fba08ef,62a451c78e39c9f99a08ddd7,,,,,,,,,,,,,,,,,,,,,,,,,,,,,,,,,,,,,,,,,,,,,,,,,,,,,,,,,,,,,,,,,,,,,,,,,,,,0,0,0,0,1,,,,,,,,,,,,,,,,,,,,,
,,,,,,,,,,,,5fa69c24315bfb2d0a37c685,22,Mężczyzna,2022-06-11_10h27.03.391,task,2021.1.4,Win32,143.9470275,6299f149e92ead563fba08ef,62a451c78e39c9f99a08ddd7,,,,,,,,,,,,,6,,,,,,,,,,Task,5,(2x3) + 0,6,,,,,,,,,,,,,,,,,,,1,,,,,,,,,,,,,,,,,,,,,,,"[""6""]",1,[2.2581000000238305],0,0,0,4,1,,,,,,,,,,,,,,,,,,,,,,,,,,
,,,,,,,,,,,X V Q F H G B L J M P D K C T S W R N Z,5fa69c24315bfb2d0a37c685,22,Mężczyzna,2022-06-11_10h27.03.391,task,2021.1.4,Win32,143.9470275,6299f149e92ead563fba08ef,62a451c78e39c9f99a08ddd7,,,,,,,,,,,,,,,,,,,,,,,,,,,,,,,,,,,,,,,,,,,,,,,,,,,,,,,,,,,,,,,,,,,,,,,,,,,,1,0,1,0,1,,,,,,,,,,,,,,,,,,,,,
,,,,,,,,,,,,5fa69c24315bfb2d0a37c685,22,Mężczyzna,2022-06-11_10h27.03.391,task,2021.1.4,Win32,143.9470275,6299f149e92ead563fba08ef,62a451c78e39c9f99a08ddd7,,,,,,,,,,,,,,,,,,,,,,,,,,,,,,,,,,,,,,,,,,,,,,,,,,,,,,,,,,,,,,,,,,,,,,,,,,,,,,,,,zw,"[""z"",""w""]",0,"[2.00649999999996,2.1398999999761372,2.480800000071497]",1,ZW,0,0,0,0,1,,,,,,,,,,
,,,,,,,,,,,,5fa69c24315bfb2d0a37c685,22,Mężczyzna,2022-06-11_10h27.03.391,task,2021.1.4,Win32,143.9470275,6299f149e92ead563fba08ef,62a451c78e39c9f99a08ddd7,,,,,,,,,,,,,1,,,,,,,,,,Task,18,(16/4) - 3,1,,,,,,,,,,,,,,,,,,,1,,,,,,,,,,,,,,,,,,,,,,,"[""1""]",1,[1.8774999999999977],0,0,0,17,1,,,,,,,,,,,,,,,,,,,,,,,,,,
,,,,,,,,,,,X V Q F H G B L J M P D K C T S W R N Z,5fa69c24315bfb2d0a37c685,22,Mężczyzna,2022-06-11_10h27.03.391,task,2021.1.4,Win32,143.9470275,6299f149e92ead563fba08ef,62a451c78e39c9f99a08ddd7,,,,,,,,,,,,,,,,,,,,,,,,,,,,,,,,,,,,,,,,,,,,,,,,,,,,,,,,,,,,,,,,,,,,,,,,,,,,0,0,0,0,1,,,,,,,,,,,,,,,,,,,,,
,,,,,,,,,,,,5fa69c24315bfb2d0a37c685,22,Mężczyzna,2022-06-11_10h27.03.391,task,2021.1.4,Win32,143.9470275,6299f149e92ead563fba08ef,62a451c78e39c9f99a08ddd7,,,,,,,,,,,,,6,,,,,,,,,,Task,37,(3/3) + 5,6,,,,,,,,,,,,,,,,,,,1,,,,,,,,,,,,,,,,,,,,,,,"[""6""]",1,[1.6678999999761572],0,0,0,36,1,,,,,,,,,,,,,,,,,,,,,,,,,,
,,,,,,,,,,,X V Q F H G B L J M P D K C T S W R N Z,5fa69c24315bfb2d0a37c685,22,Mężczyzna,2022-06-11_10h27.03.391,task,2021.1.4,Win32,143.9470275,6299f149e92ead563fba08ef,62a451c78e39c9f99a08ddd7,,,,,,,,,,,,,,,,,,,,,,,,,,,,,,,,,,,,,,,,,,,,,,,,,,,,,,,,,,,,,,,,,,,,,,,,,,,,1,0,1,0,1,,,,,,,,,,,,,,,,,,,,,
,,,,,,,,,,,,5fa69c24315bfb2d0a37c685,22,Mężczyzna,2022-06-11_10h27.03.391,task,2021.1.4,Win32,143.9470275,6299f149e92ead563fba08ef,62a451c78e39c9f99a08ddd7,,,,,,,,,,,,,1,,,,,,,,,,Task,34,(9/3) - 2,1,,,,,,,,,,,,,,,,,,,1,,,,,,,,,,,,,,,,,,,,,,,"[""1""]",1,[1.811999999999955],0,0,0,33,1,,,,,,,,,,,,,,,,,,,,,,,,,,
,,,,,,,,,,,X V Q F H G B L J M P D K C T S W R N Z,5fa69c24315bfb2d0a37c685,22,Mężczyzna,2022-06-11_10h27.03.391,task,2021.1.4,Win32,143.9470275,6299f149e92ead563fba08ef,62a451c78e39c9f99a08ddd7,,,,,,,,,,,,,,,,,,,,,,,,,,,,,,,,,,,,,,,,,,,,,,,,,,,,,,,,,,,,,,,,,,,,,,,,,,,,2,0,2,0,1,,,,,,,,,,,,,,,,,,,,,
,,,,,,,,,,,,5fa69c24315bfb2d0a37c685,22,Mężczyzna,2022-06-11_10h27.03.391,task,2021.1.4,Win32,143.9470275,6299f149e92ead563fba08ef,62a451c78e39c9f99a08ddd7,,,,,,,,,,,,,,,,,,,,,,,,,,,,,,,,,,,,,,,,,,,,,,,,,,,,,,,,,,,,,,,,,,,,,,,,,,,,,,,,,bjw,"[""b"",""j"",""w""]",0,"[1.4787999999522867,1.7981999999284426,2.069399999976156,2.361499999999978]",1,BJW,1,0,1,0,1,,,,,,,,,,
,,,,,,,,,,,,5fa69c24315bfb2d0a37c685,22,Mężczyzna,2022-06-11_10h27.03.391,task,2021.1.4,Win32,143.9470275,6299f149e92ead563fba08ef,62a451c78e39c9f99a08ddd7,,,,,,,,,,,,,4,,,,,,,,,,Task,28,(2x5) - 6,4,,,,,,,,,,,,,,,,,,,1,,,,,,,,,,,,,,,,,,,,,,,"[""4""]",1,[1.7708999999761659],0,0,0,27,1,,,,,,,,,,,,,,,,,,,,,,,,,,
,,,,,,,,,,,X V Q F H G B L J M P D K C T S W R N Z,5fa69c24315bfb2d0a37c685,22,Mężczyzna,2022-06-11_10h27.03.391,task,2021.1.4,Win32,143.9470275,6299f149e92ead563fba08ef,62a451c78e39c9f99a08ddd7,,,,,,,,,,,,,,,,,,,,,,,,,,,,,,,,,,,,,,,,,,,,,,,,,,,,,,,,,,,,,,,,,,,,,,,,,,,,0,0,0,0,1,,,,,,,,,,,,,,,,,,,,,
,,,,,,,,,,,,5fa69c24315bfb2d0a37c685,22,Mężczyzna,2022-06-11_10h27.03.391,task,2021.1.4,Win32,143.9470275,6299f149e92ead563fba08ef,62a451c78e39c9f99a08ddd7,,,,,,,,,,,,,0,,,,,,,,,,Task,33,(1/1) - 1,0,,,,,,,,,,,,,,,,,,,1,,,,,,,,,,,,,,,,,,,,,,,"[""0""]",1,[1.77049999999997],0,0,0,32,1,,,,,,,,,,,,,,,,,,,,,,,,,,
,,,,,,,,,,,X V Q F H G B L J M P D K C T S W R N Z,5fa69c24315bfb2d0a37c685,22,Mężczyzna,2022-06-11_10h27.03.391,task,2021.1.4,Win32,143.9470275,6299f149e92ead563fba08ef,62a451c78e39c9f99a08ddd7,,,,,,,,,,,,,,,,,,,,,,,,,,,,,,,,,,,,,,,,,,,,,,,,,,,,,,,,,,,,,,,,,,,,,,,,,,,,1,0,1,0,1,,,,,,,,,,,,,,,,,,,,,
,,,,,,,,,,,,5fa69c24315bfb2d0a37c685,22,Mężczyzna,2022-06-11_10h27.03.391,task,2021.1.4,Win32,143.9470275,6299f149e92ead563fba08ef,62a451c78e39c9f99a08ddd7,,,,,,,,,,,,,2,,,,,,,,,,Task,10,(2x5) - 8,2,,,,,,,,,,,,,,,,,,,1,,,,,,,,,,,,,,,,,,,,,,,"[""2""]",1,[1.4741000000238387],0,0,0,9,1,,,,,,,,,,,,,,,,,,,,,,,,,,
,,,,,,,,,,,X V Q F H G B L J M P D K C T S W R N Z,5fa69c24315bfb2d0a37c685,22,Mężczyzna,2022-06-11_10h27.03.391,task,2021.1.4,Win32,143.9470275,6299f149e92ead563fba08ef,62a451c78e39c9f99a08ddd7,,,,,,,,,,,,,,,,,,,,,,,,,,,,,,,,,,,,,,,,,,,,,,,,,,,,,,,,,,,,,,,,,,,,,,,,,,,,2,0,2,0,1,,,,,,,,,,,,,,,,,,,,,
,,,,,,,,,,,,5fa69c24315bfb2d0a37c685,22,Mężczyzna,2022-06-11_10h27.03.391,task,2021.1.4,Win32,143.9470275,6299f149e92ead563fba08ef,62a451c78e39c9f99a08ddd7,,,,,,,,,,,,,6,,,,,,,,,,Task,13,(3x4) - 6,6,,,,,,,,,,,,,,,,,,,1,,,,,,,,,,,,,,,,,,,,,,,"[""6""]",1,[2.1938999999761677],0,0,0,12,1,,,,,,,,,,,,,,,,,,,,,,,,,,
,,,,,,,,,,,X V Q F H G B L J M P D K C T S W R N Z,5fa69c24315bfb2d0a37c685,22,Mężczyzna,2022-06-11_10h27.03.391,task,2021.1.4,Win32,143.9470275,6299f149e92ead563fba08ef,62a451c78e39c9f99a08ddd7,,,,,,,,,,,,,,,,,,,,,,,,,,,,,,,,,,,,,,,,,,,,,,,,,,,,,,,,,,,,,,,,,,,,,,,,,,,,3,0,3,0,1,,,,,,,,,,,,,,,,,,,,,
,,,,,,,,,,,,5fa69c24315bfb2d0a37c685,22,Mężczyzna,2022-06-11_10h27.03.391,task,2021.1.4,Win32,143.9470275,6299f149e92ead563fba08ef,62a451c78e39c9f99a08ddd7,,,,,,,,,,,,,,,,,,,,,,,,,,,,,,,,,,,,,,,,,,,,,,,,,,,,,,,,,,,,,,,,,,,,,,,,,,,,,,,,,pxpd,"[""p"",""x"",""p"",""d""]",0,"[1.8432999999523076,2.201100000023814,2.576100000023814,2.9461000000238187,3.2930000000000064]",1,PXPD,2,0,2,0,1,,,,,,,,,,
,,,,,,,,,,,,5fa69c24315bfb2d0a37c685,22,Mężczyzna,2022-06-11_10h27.03.391,task,2021.1.4,Win32,143.9470275,6299f149e92ead563fba08ef,62a451c78e39c9f99a08ddd7,,,,,,,,,,,,,8,,,,,,,,,,Task,16,(3x8) - 15,9,,,,,,,,,,,,,,,,,,,0,,,,,,,,,,,,,,,,,,,,,,,"[""8""]",0,[2.8475999999046167],0,0,0,15,1,,,,,,,,,,,,,,,,,,,,,,,,,,
,,,,,,,,,,,,5fa69c24315bfb2d0a37c685,22,Mężczyzna,2022-06-11_10h27.03.391,task,2021.1.4,Win32,143.9470275,6299f149e92ead563fba08ef,62a451c78e39c9f99a08ddd7,,,,,,,,,,,,,5,,,,,,,,,,Task,29,(3x8) - 19 ,5,,,,,,,,,,,,,,,,,,,1,,,,,,,,,,,,,,,,,,,,,,,"[""5""]",1,[3.319500000000005],0,1,1,28,1,,,,,,,,,,,,,,,,,,,,,,,,,,
,,,,,,,,,,,X V Q F H G B L J M P D K C T S W R N Z,5fa69c24315bfb2d0a37c685,22,Mężczyzna,2022-06-11_10h27.03.391,task,2021.1.4,Win32,143.9470275,6299f149e92ead563fba08ef,62a451c78e39c9f99a08ddd7,,,,,,,,,,,,,,,,,,,,,,,,,,,,,,,,,,,,,,,,,,,,,,,,,,,,,,,,,,,,,,,,,,,,,,,,,,,,0,0,0,0,1,,,,,,,,,,,,,,,,,,,,,
,,,,,,,,,,,,5fa69c24315bfb2d0a37c685,22,Mężczyzna,2022-06-11_10h27.03.391,task,2021.1.4,Win32,143.9470275,6299f149e92ead563fba08ef,62a451c78e39c9f99a08ddd7,,,,,,,,,,,,,3,,,,,,,,,,Task,35,(1x2) + 1,3,,,,,,,,,,,,,,,,,,,1,,,,,,,,,,,,,,,,,,,,,,,"[""3""]",1,[1.41729999995232],0,0,0,34,1,,,,,,,,,,,,,,,,,,,,,,,,,,
,,,,,,,,,,,X V Q F H G B L J M P D K C T S W R N Z,5fa69c24315bfb2d0a37c685,22,Mężczyzna,2022-06-11_10h27.03.391,task,2021.1.4,Win32,143.9470275,6299f149e92ead563fba08ef,62a451c78e39c9f99a08ddd7,,,,,,,,,,,,,,,,,,,,,,,,,,,,,,,,,,,,,,,,,,,,,,,,,,,,,,,,,,,,,,,,,,,,,,,,,,,,1,0,1,0,1,,,,,,,,,,,,,,,,,,,,,
,,,,,,,,,,,,5fa69c24315bfb2d0a37c685,22,Mężczyzna,2022-06-11_10h27.03.391,task,2021.1.4,Win32,143.9470275,6299f149e92ead563fba08ef,62a451c78e39c9f99a08ddd7,,,,,,,,,,,,,5,,,,,,,,,,Task,22,(3x1) + 2,5,,,,,,,,,,,,,,,,,,,1,,,,,,,,,,,,,,,,,,,,,,,"[""5""]",1,[1.5914999999999964],0,0,0,21,1,,,,,,,,,,,,,,,,,,,,,,,,,,
,,,,,,,,,,,X V Q F H G B L J M P D K C T S W R N Z,5fa69c24315bfb2d0a37c685,22,Mężczyzna,2022-06-11_10h27.03.391,task,2021.1.4,Win32,143.9470275,6299f149e92ead563fba08ef,62a451c78e39c9f99a08ddd7,,,,,,,,,,,,,,,,,,,,,,,,,,,,,,,,,,,,,,,,,,,,,,,,,,,,,,,,,,,,,,,,,,,,,,,,,,,,2,0,2,0,1,,,,,,,,,,,,,,,,,,,,,
,,,,,,,,,,,,5fa69c24315bfb2d0a37c685,22,Mężczyzna,2022-06-11_10h27.03.391,task,2021.1.4,Win32,143.9470275,6299f149e92ead563fba08ef,62a451c78e39c9f99a08ddd7,,,,,,,,,,,,,0,,,,,,,,,,Task,25,(10/5) - 2,0,,,,,,,,,,,,,,,,,,,1,,,,,,,,,,,,,,,,,,,,,,,"[""0""]",1,[1.799299999952325],0,0,0,24,1,,,,,,,,,,,,,,,,,,,,,,,,,,
,,,,,,,,,,,X V Q F H G B L J M P D K C T S W R N Z,5fa69c24315bfb2d0a37c685,22,Mężczyzna,2022-06-11_10h27.03.391,task,2021.1.4,Win32,143.9470275,6299f149e92ead563fba08ef,62a451c78e39c9f99a08ddd7,,,,,,,,,,,,,,,,,,,,,,,,,,,,,,,,,,,,,,,,,,,,,,,,,,,,,,,,,,,,,,,,,,,,,,,,,,,,3,0,3,0,1,,,,,,,,,,,,,,,,,,,,,
,,,,,,,,,,,,5fa69c24315bfb2d0a37c685,22,Mężczyzna,2022-06-11_10h27.03.391,task,2021.1.4,Win32,143.9470275,6299f149e92ead563fba08ef,62a451c78e39c9f99a08ddd7,,,,,,,,,,,,,8,,,,,,,,,,Task,39,(5x3) - 7,8,,,,,,,,,,,,,,,,,,,1,,,,,,,,,,,,,,,,,,,,,,,"[""8""]",1,[3.1749999999999545],0,0,0,38,1,,,,,,,,,,,,,,,,,,,,,,,,,,
,,,,,,,,,,,X V Q F H G B L J M P D K C T S W R N Z,5fa69c24315bfb2d0a37c685,22,Mężczyzna,2022-06-11_10h27.03.391,task,2021.1.4,Win32,143.9470275,6299f149e92ead563fba08ef,62a451c78e39c9f99a08ddd7,,,,,,,,,,,,,,,,,,,,,,,,,,,,,,,,,,,,,,,,,,,,,,,,,,,,,,,,,,,,,,,,,,,,,,,,,,,,4,0,4,0,1,,,,,,,,,,,,,,,,,,,,,
,,,,,,,,,,,,5fa69c24315bfb2d0a37c685,22,Mężczyzna,2022-06-11_10h27.03.391,task,2021.1.4,Win32,143.9470275,6299f149e92ead563fba08ef,62a451c78e39c9f99a08ddd7,,,,,,,,,,,,,,,,,,,,,,,,,,,,,,,,,,,,,,,,,,,,,,,,,,,,,,,,,,,,,,,,,,,,,,,,,,,,,,,,,jknlb,"[""j"",""k"",""n"",""l"",""b""]",0,"[1.6801999999285044,2.0205999999046753,3.097000000000037,3.416500000000042,3.917199999928471,4.145699999928468]",1,JKNLB,3,0,3,0,1,,,,,,,,,,
,,,,,,,,,,,,5fa69c24315bfb2d0a37c685,22,Mężczyzna,2022-06-11_10h27.03.391,task,2021.1.4,Win32,143.9470275,6299f149e92ead563fba08ef,62a451c78e39c9f99a08ddd7,,,,,,,,,,,,,4,,,,,,,,,,Task,4,(1x5) - 1,4,,,,,,,,,,,,,,,,,,,1,,,,,,,,,,,,,,,,,,,,,,,"[""4""]",1,[1.4308999999761909],0,0,0,3,1,,,,,,,,,,,,,,,,,,,,,,,,,,
,,,,,,,,,,,X V Q F H G B L J M P D K C T S W R N Z,5fa69c24315bfb2d0a37c685,22,Mężczyzna,2022-06-11_10h27.03.391,task,2021.1.4,Win32,143.9470275,6299f149e92ead563fba08ef,62a451c78e39c9f99a08ddd7,,,,,,,,,,,,,,,,,,,,,,,,,,,,,,,,,,,,,,,,,,,,,,,,,,,,,,,,,,,,,,,,,,,,,,,,,,,,0,0,0,0,1,,,,,,,,,,,,,,,,,,,,,
,,,,,,,,,,,,5fa69c24315bfb2d0a37c685,22,Mężczyzna,2022-06-11_10h27.03.391,task,2021.1.4,Win32,143.9470275,6299f149e92ead563fba08ef,62a451c78e39c9f99a08ddd7,,,,,,,,,,,,,9,,,,,,,,,,Task,7,(3x7) - 12,9,,,,,,,,,,,,,,,,,,,1,,,,,,,,,,,,,,,,,,,,,,,"[""9""]",1,[2.7356999999284994],0,0,0,6,1,,,,,,,,,,,,,,,,,,,,,,,,,,
,,,,,,,,,,,X V Q F H G B L J M P D K C T S W R N Z,5fa69c24315bfb2d0a37c685,22,Mężczyzna,2022-06-11_10h27.03.391,task,2021.1.4,Win32,143.9470275,6299f149e92ead563fba08ef,62a451c78e39c9f99a08ddd7,,,,,,,,,,,,,,,,,,,,,,,,,,,,,,,,,,,,,,,,,,,,,,,,,,,,,,,,,,,,,,,,,,,,,,,,,,,,1,0,1,0,1,,,,,,,,,,,,,,,,,,,,,
,,,,,,,,,,,,5fa69c24315bfb2d0a37c685,22,Mężczyzna,2022-06-11_10h27.03.391,task,2021.1.4,Win32,143.9470275,6299f149e92ead563fba08ef,62a451c78e39c9f99a08ddd7,,,,,,,,,,,,,8,,,,,,,,,,Task,32,(8/2) + 4,8,,,,,,,,,,,,,,,,,,,1,,,,,,,,,,,,,,,,,,,,,,,"[""8""]",1,[3.04200000000003],0,0,0,31,1,,,,,,,,,,,,,,,,,,,,,,,,,,
,,,,,,,,,,,X V Q F H G B L J M P D K C T S W R N Z,5fa69c24315bfb2d0a37c685,22,Mężczyzna,2022-06-11_10h27.03.391,task,2021.1.4,Win32,143.9470275,6299f149e92ead563fba08ef,62a451c78e39c9f99a08ddd7,,,,,,,,,,,,,,,,,,,,,,,,,,,,,,,,,,,,,,,,,,,,,,,,,,,,,,,,,,,,,,,,,,,,,,,,,,,,2,0,2,0,1,,,,,,,,,,,,,,,,,,,,,
,,,,,,,,,,,,5fa69c24315bfb2d0a37c685,22,Mężczyzna,2022-06-11_10h27.03.391,task,2021.1.4,Win32,143.9470275,6299f149e92ead563fba08ef,62a451c78e39c9f99a08ddd7,,,,,,,,,,,,,4,,,,,,,,,,Task,4,(1x5) - 1,4,,,,,,,,,,,,,,,,,,,1,,,,,,,,,,,,,,,,,,,,,,,"[""4""]",1,[1.8190000000000168],0,0,0,3,1,,,,,,,,,,,,,,,,,,,,,,,,,,
,,,,,,,,,,,X V Q F H G B L J M P D K C T S W R N Z,5fa69c24315bfb2d0a37c685,22,Mężczyzna,2022-06-11_10h27.03.391,task,2021.1.4,Win32,143.9470275,6299f149e92ead563fba08ef,62a451c78e39c9f99a08ddd7,,,,,,,,,,,,,,,,,,,,,,,,,,,,,,,,,,,,,,,,,,,,,,,,,,,,,,,,,,,,,,,,,,,,,,,,,,,,3,0,3,0,1,,,,,,,,,,,,,,,,,,,,,
,,,,,,,,,,,,5fa69c24315bfb2d0a37c685,22,Mężczyzna,2022-06-11_10h27.03.391,task,2021.1.4,Win32,143.9470275,6299f149e92ead563fba08ef,62a451c78e39c9f99a08ddd7,,,,,,,,,,,,,4,,,,,,,,,,Task,4,(1x5) - 1,4,,,,,,,,,,,,,,,,,,,1,,,,,,,,,,,,,,,,,,,,,,,"[""4""]",1,[2.204200000047706],0,0,0,3,1,,,,,,,,,,,,,,,,,,,,,,,,,,
,,,,,,,,,,,X V Q F H G B L J M P D K C T S W R N Z,5fa69c24315bfb2d0a37c685,22,Mężczyzna,2022-06-11_10h27.03.391,task,2021.1.4,Win32,143.9470275,6299f149e92ead563fba08ef,62a451c78e39c9f99a08ddd7,,,,,,,,,,,,,,,,,,,,,,,,,,,,,,,,,,,,,,,,,,,,,,,,,,,,,,,,,,,,,,,,,,,,,,,,,,,,4,0,4,0,1,,,,,,,,,,,,,,,,,,,,,
,,,,,,,,,,,,5fa69c24315bfb2d0a37c685,22,Mężczyzna,2022-06-11_10h27.03.391,task,2021.1.4,Win32,143.9470275,6299f149e92ead563fba08ef,62a451c78e39c9f99a08ddd7,,,,,,,,,,,,,9,,,,,,,,,,Task,24,(2x2) + 5,9,,,,,,,,,,,,,,,,,,,1,,,,,,,,,,,,,,,,,,,,,,,"[""9""]",1,[1.6522999999523336],0,0,0,23,1,,,,,,,,,,,,,,,,,,,,,,,,,,
,,,,,,,,,,,X V Q F H G B L J M P D K C T S W R N Z,5fa69c24315bfb2d0a37c685,22,Mężczyzna,2022-06-11_10h27.03.391,task,2021.1.4,Win32,143.9470275,6299f149e92ead563fba08ef,62a451c78e39c9f99a08ddd7,,,,,,,,,,,,,,,,,,,,,,,,,,,,,,,,,,,,,,,,,,,,,,,,,,,,,,,,,,,,,,,,,,,,,,,,,,,,5,0,5,0,1,,,,,,,,,,,,,,,,,,,,,
,,,,,,,,,,,,5fa69c24315bfb2d0a37c685,22,Mężczyzna,2022-06-11_10h27.03.391,task,2021.1.4,Win32,143.9470275,6299f149e92ead563fba08ef,62a451c78e39c9f99a08ddd7,,,,,,,,,,,,,,,,,,,,,,,,,,,,,,,,,,,,,,,,,,,,,,,,,,,,,,,,,,,,,,,,,,,,,,,,,,,,,,,,,dvfttx,"[""d"",""v"",""f"",""t"",""t"",""x""]",0,"[2.2148999999761827,2.944100000023866,3.397800000071527,3.793800000071542,4.228899999976193,4.937100000023861,5.145700000047668]",1,DVFTTX,4,0,4,0,1,,,,,,,,,,
,,,,,,,,,,,,5fa69c24315bfb2d0a37c685,22,Mężczyzna,2022-06-11_10h27.03.391,task,2021.1.4,Win32,143.9470275,6299f149e92ead563fba08ef,62a451c78e39c9f99a08ddd7,,,,,,,,,,,,,7,,,,,,,,,,Task,6,(12/2) + 1,7,,,,,,,,,,,,,,,,,,,1,,,,,,,,,,,,,,,,,,,,,,,"[""7""]",1,[1.7502000000476983],0,0,0,5,1,,,,,,,,,,,,,,,,,,,,,,,,,,
,,,,,,,,,,,X V Q F H G B L J M P D K C T S W R N Z,5fa69c24315bfb2d0a37c685,22,Mężczyzna,2022-06-11_10h27.03.391,task,2021.1.4,Win32,143.9470275,6299f149e92ead563fba08ef,62a451c78e39c9f99a08ddd7,,,,,,,,,,,,,,,,,,,,,,,,,,,,,,,,,,,,,,,,,,,,,,,,,,,,,,,,,,,,,,,,,,,,,,,,,,,,0,0,0,0,1,,,,,,,,,,,,,,,,,,,,,
,,,,,,,,,,,,5fa69c24315bfb2d0a37c685,22,Mężczyzna,2022-06-11_10h27.03.391,task,2021.1.4,Win32,143.9470275,6299f149e92ead563fba08ef,62a451c78e39c9f99a08ddd7,,,,,,,,,,,,,5,,,,,,,,,,Task,22,(3x1) + 2,5,,,,,,,,,,,,,,,,,,,1,,,,,,,,,,,,,,,,,,,,,,,"[""5""]",1,[1.4023000000715342],0,0,0,21,1,,,,,,,,,,,,,,,,,,,,,,,,,,
,,,,,,,,,,,X V Q F H G B L J M P D K C T S W R N Z,5fa69c24315bfb2d0a37c685,22,Mężczyzna,2022-06-11_10h27.03.391,task,2021.1.4,Win32,143.9470275,6299f149e92ead563fba08ef,62a451c78e39c9f99a08ddd7,,,,,,,,,,,,,,,,,,,,,,,,,,,,,,,,,,,,,,,,,,,,,,,,,,,,,,,,,,,,,,,,,,,,,,,,,,,,1,0,1,0,1,,,,,,,,,,,,,,,,,,,,,
,,,,,,,,,,,,5fa69c24315bfb2d0a37c685,22,Mężczyzna,2022-06-11_10h27.03.391,task,2021.1.4,Win32,143.9470275,6299f149e92ead563fba08ef,62a451c78e39c9f99a08ddd7,,,,,,,,,,,,,4,,,,,,,,,,Task,21,(10/2) - 1,4,,,,,,,,,,,,,,,,,,,1,,,,,,,,,,,,,,,,,,,,,,,"[""4""]",1,[1.1874000000953515],0,0,0,20,1,,,,,,,,,,,,,,,,,,,,,,,,,,
,,,,,,,,,,,X V Q F H G B L J M P D K C T S W R N Z,5fa69c24315bfb2d0a37c685,22,Mężczyzna,2022-06-11_10h27.03.391,task,2021.1.4,Win32,143.9470275,6299f149e92ead563fba08ef,62a451c78e39c9f99a08ddd7,,,,,,,,,,,,,,,,,,,,,,,,,,,,,,,,,,,,,,,,,,,,,,,,,,,,,,,,,,,,,,,,,,,,,,,,,,,,2,0,2,0,1,,,,,,,,,,,,,,,,,,,,,
,,,,,,,,,,,,5fa69c24315bfb2d0a37c685,22,Mężczyzna,2022-06-11_10h27.03.391,task,2021.1.4,Win32,143.9470275,6299f149e92ead563fba08ef,62a451c78e39c9f99a08ddd7,,,,,,,,,,,,,5,,,,,,,,,,Task,29,(3x8) - 19 ,5,,,,,,,,,,,,,,,,,,,1,,,,,,,,,,,,,,,,,,,,,,,"[""5""]",1,[2.2110000000000127],0,0,0,28,1,,,,,,,,,,,,,,,,,,,,,,,,,,
,,,,,,,,,,,X V Q F H G B L J M P D K C T S W R N Z,5fa69c24315bfb2d0a37c685,22,Mężczyzna,2022-06-11_10h27.03.391,task,2021.1.4,Win32,143.9470275,6299f149e92ead563fba08ef,62a451c78e39c9f99a08ddd7,,,,,,,,,,,,,,,,,,,,,,,,,,,,,,,,,,,,,,,,,,,,,,,,,,,,,,,,,,,,,,,,,,,,,,,,,,,,3,0,3,0,1,,,,,,,,,,,,,,,,,,,,,
,,,,,,,,,,,,5fa69c24315bfb2d0a37c685,22,Mężczyzna,2022-06-11_10h27.03.391,task,2021.1.4,Win32,143.9470275,6299f149e92ead563fba08ef,62a451c78e39c9f99a08ddd7,,,,,,,,,,,,,4,,,,,,,,,,Task,11,(18/3) - 2,4,,,,,,,,,,,,,,,,,,,1,,,,,,,,,,,,,,,,,,,,,,,"[""4""]",1,[2.2098999999761872],0,0,0,10,1,,,,,,,,,,,,,,,,,,,,,,,,,,
,,,,,,,,,,,X V Q F H G B L J M P D K C T S W R N Z,5fa69c24315bfb2d0a37c685,22,Mężczyzna,2022-06-11_10h27.03.391,task,2021.1.4,Win32,143.9470275,6299f149e92ead563fba08ef,62a451c78e39c9f99a08ddd7,,,,,,,,,,,,,,,,,,,,,,,,,,,,,,,,,,,,,,,,,,,,,,,,,,,,,,,,,,,,,,,,,,,,,,,,,,,,4,0,4,0,1,,,,,,,,,,,,,,,,,,,,,
,,,,,,,,,,,,5fa69c24315bfb2d0a37c685,22,Mężczyzna,2022-06-11_10h27.03.391,task,2021.1.4,Win32,143.9470275,6299f149e92ead563fba08ef,62a451c78e39c9f99a08ddd7,,,,,,,,,,,,,3,,,,,,,,,,Task,20,(18/9) + 1,3,,,,,,,,,,,,,,,,,,,1,,,,,,,,,,,,,,,,,,,,,,,"[""3""]",1,[1.3406000000237555],0,0,0,19,1,,,,,,,,,,,,,,,,,,,,,,,,,,
,,,,,,,,,,,X V Q F H G B L J M P D K C T S W R N Z,5fa69c24315bfb2d0a37c685,22,Mężczyzna,2022-06-11_10h27.03.391,task,2021.1.4,Win32,143.9470275,6299f149e92ead563fba08ef,62a451c78e39c9f99a08ddd7,,,,,,,,,,,,,,,,,,,,,,,,,,,,,,,,,,,,,,,,,,,,,,,,,,,,,,,,,,,,,,,,,,,,,,,,,,,,5,0,5,0,1,,,,,,,,,,,,,,,,,,,,,
,,,,,,,,,,,,5fa69c24315bfb2d0a37c685,22,Mężczyzna,2022-06-11_10h27.03.391,task,2021.1.4,Win32,143.9470275,6299f149e92ead563fba08ef,62a451c78e39c9f99a08ddd7,,,,,,,,,,,,,,,,,,,,,,,Task,39,(5x3) - 7,8,,,,,,,,,,,,,,,,,,,0,,,,,,,,,,,,,,,,,,,,,,,,0,,0,0,0,38,1,,,,,,,,,,,,,,,,,,,,,,,,,,
,,,,,,,,,,,,5fa69c24315bfb2d0a37c685,22,Mężczyzna,2022-06-11_10h27.03.391,task,2021.1.4,Win32,143.9470275,6299f149e92ead563fba08ef,62a451c78e39c9f99a08ddd7,,,,,,,,,,,,,6,,,,,,,,,,Task,37,(3/3) + 5,6,,,,,,,,,,,,,,,,,,,1,,,,,,,,,,,,,,,,,,,,,,,"[""6""]",1,[1.8201000000237855],0,1,1,36,1,,,,,,,,,,,,,,,,,,,,,,,,,,
,,,,,,,,,,,X V Q F H G B L J M P D K C T S W R N Z,5fa69c24315bfb2d0a37c685,22,Mężczyzna,2022-06-11_10h27.03.391,task,2021.1.4,Win32,143.9470275,6299f149e92ead563fba08ef,62a451c78e39c9f99a08ddd7,,,,,,,,,,,,,,,,,,,,,,,,,,,,,,,,,,,,,,,,,,,,,,,,,,,,,,,,,,,,,,,,,,,,,,,,,,,,6,0,6,0,1,,,,,,,,,,,,,,,,,,,,,
,,,,,,,,,,,,5fa69c24315bfb2d0a37c685,22,Mężczyzna,2022-06-11_10h27.03.391,task,2021.1.4,Win32,143.9470275,6299f149e92ead563fba08ef,62a451c78e39c9f99a08ddd7,,,,,,,,,,,,,,,,,,,,,,,,,,,,,,,,,,,,,,,,,,,,,,,,,,,,,,,,,,,,,,,,,,,,,,,,,,,,,,,,,pzlwrk,"[""p"",""z"",""l"",""w"",""r"",""k""]",0,"[2.1052000000477165,2.5422000000477283,3.2503000000715474,3.64620000004777,4.299100000023827,4.732400000095367,5.1131000000239055]",0,PZLWRXK,5,0,5,0,1,,,,,,,,,,
,,,,,,,,,,,,5fa69c24315bfb2d0a37c685,22,Mężczyzna,2022-06-11_10h27.03.391,task,2021.1.4,Win32,143.9470275,6299f149e92ead563fba08ef,62a451c78e39c9f99a08ddd7,,,,,,,,,,,,,7,,,,,,,,,,Task,14,(2x2) + 3,7,,,,,,,,,,,,,,,,,,,1,,,,,,,,,,,,,,,,,,,,,,,"[""7""]",1,[1.66700000000003],0,0,0,13,1,,,,,,,,,,,,,,,,,,,,,,,,,,
,,,,,,,,,,,X V Q F H G B L J M P D K C T S W R N Z,5fa69c24315bfb2d0a37c685,22,Mężczyzna,2022-06-11_10h27.03.391,task,2021.1.4,Win32,143.9470275,6299f149e92ead563fba08ef,62a451c78e39c9f99a08ddd7,,,,,,,,,,,,,,,,,,,,,,,,,,,,,,,,,,,,,,,,,,,,,,,,,,,,,,,,,,,,,,,,,,,,,,,,,,,,0,0,0,0,1,,,,,,,,,,,,,,,,,,,,,
,,,,,,,,,,,,5fa69c24315bfb2d0a37c685,22,Mężczyzna,2022-06-11_10h27.03.391,task,2021.1.4,Win32,143.9470275,6299f149e92ead563fba08ef,62a451c78e39c9f99a08ddd7,,,,,,,,,,,,,1,,,,,,,,,,Task,18,(16/4) - 3,1,,,,,,,,,,,,,,,,,,,1,,,,,,,,,,,,,,,,,,,,,,,"[""1""]",1,[2.7455999999045844],0,0,0,17,1,,,,,,,,,,,,,,,,,,,,,,,,,,
,,,,,,,,,,,X V Q F H G B L J M P D K C T S W R N Z,5fa69c24315bfb2d0a37c685,22,Mężczyzna,2022-06-11_10h27.03.391,task,2021.1.4,Win32,143.9470275,6299f149e92ead563fba08ef,62a451c78e39c9f99a08ddd7,,,,,,,,,,,,,,,,,,,,,,,,,,,,,,,,,,,,,,,,,,,,,,,,,,,,,,,,,,,,,,,,,,,,,,,,,,,,1,0,1,0,1,,,,,,,,,,,,,,,,,,,,,
,,,,,,,,,,,,5fa69c24315bfb2d0a37c685,22,Mężczyzna,2022-06-11_10h27.03.391,task,2021.1.4,Win32,143.9470275,6299f149e92ead563fba08ef,62a451c78e39c9f99a08ddd7,,,,,,,,,,,,,1,,,,,,,,,,Task,9,(3x7) - 20,1,,,,,,,,,,,,,,,,,,,1,,,,,,,,,,,,,,,,,,,,,,,"[""1""]",1,[1.9161999999284944],0,0,0,8,1,,,,,,,,,,,,,,,,,,,,,,,,,,
,,,,,,,,,,,X V Q F H G B L J M P D K C T S W R N Z,5fa69c24315bfb2d0a37c685,22,Mężczyzna,2022-06-11_10h27.03.391,task,2021.1.4,Win32,143.9470275,6299f149e92ead563fba08ef,62a451c78e39c9f99a08ddd7,,,,,,,,,,,,,,,,,,,,,,,,,,,,,,,,,,,,,,,,,,,,,,,,,,,,,,,,,,,,,,,,,,,,,,,,,,,,2,0,2,0,1,,,,,,,,,,,,,,,,,,,,,
,,,,,,,,,,,,5fa69c24315bfb2d0a37c685,22,Mężczyzna,2022-06-11_10h27.03.391,task,2021.1.4,Win32,143.9470275,6299f149e92ead563fba08ef,62a451c78e39c9f99a08ddd7,,,,,,,,,,,,,4,,,,,,,,,,Task,21,(10/2) - 1,4,,,,,,,,,,,,,,,,,,,1,,,,,,,,,,,,,,,,,,,,,,,"[""4""]",1,[1.187100000023861],0,0,0,20,1,,,,,,,,,,,,,,,,,,,,,,,,,,
,,,,,,,,,,,X V Q F H G B L J M P D K C T S W R N Z,5fa69c24315bfb2d0a37c685,22,Mężczyzna,2022-06-11_10h27.03.391,task,2021.1.4,Win32,143.9470275,6299f149e92ead563fba08ef,62a451c78e39c9f99a08ddd7,,,,,,,,,,,,,,,,,,,,,,,,,,,,,,,,,,,,,,,,,,,,,,,,,,,,,,,,,,,,,,,,,,,,,,,,,,,,3,0,3,0,1,,,,,,,,,,,,,,,,,,,,,
,,,,,,,,,,,,5fa69c24315bfb2d0a37c685,22,Mężczyzna,2022-06-11_10h27.03.391,task,2021.1.4,Win32,143.9470275,6299f149e92ead563fba08ef,62a451c78e39c9f99a08ddd7,,,,,,,,,,,,,9,,,,,,,,,,Task,24,(2x2) + 5,9,,,,,,,,,,,,,,,,,,,1,,,,,,,,,,,,,,,,,,,,,,,"[""9""]",1,[2.0917999999522863],0,0,0,23,1,,,,,,,,,,,,,,,,,,,,,,,,,,
,,,,,,,,,,,X V Q F H G B L J M P D K C T S W R N Z,5fa69c24315bfb2d0a37c685,22,Mężczyzna,2022-06-11_10h27.03.391,task,2021.1.4,Win32,143.9470275,6299f149e92ead563fba08ef,62a451c78e39c9f99a08ddd7,,,,,,,,,,,,,,,,,,,,,,,,,,,,,,,,,,,,,,,,,,,,,,,,,,,,,,,,,,,,,,,,,,,,,,,,,,,,4,0,4,0,1,,,,,,,,,,,,,,,,,,,,,
,,,,,,,,,,,,5fa69c24315bfb2d0a37c685,22,Mężczyzna,2022-06-11_10h27.03.391,task,2021.1.4,Win32,143.9470275,6299f149e92ead563fba08ef,62a451c78e39c9f99a08ddd7,,,,,,,,,,,,,7,,,,,,,,,,Task,6,(12/2) + 1,7,,,,,,,,,,,,,,,,,,,1,,,,,,,,,,,,,,,,,,,,,,,"[""7""]",1,[2.3496000000238837],0,0,0,5,1,,,,,,,,,,,,,,,,,,,,,,,,,,
,,,,,,,,,,,X V Q F H G B L J M P D K C T S W R N Z,5fa69c24315bfb2d0a37c685,22,Mężczyzna,2022-06-11_10h27.03.391,task,2021.1.4,Win32,143.9470275,6299f149e92ead563fba08ef,62a451c78e39c9f99a08ddd7,,,,,,,,,,,,,,,,,,,,,,,,,,,,,,,,,,,,,,,,,,,,,,,,,,,,,,,,,,,,,,,,,,,,,,,,,,,,5,0,5,0,1,,,,,,,,,,,,,,,,,,,,,
,,,,,,,,,,,,5fa69c24315bfb2d0a37c685,22,Mężczyzna,2022-06-11_10h27.03.391,task,2021.1.4,Win32,143.9470275,6299f149e92ead563fba08ef,62a451c78e39c9f99a08ddd7,,,,,,,,,,,,,7,,,,,,,,,,Task,31,(4/2) + 5,7,,,,,,,,,,,,,,,,,,,1,,,,,,,,,,,,,,,,,,,,,,,"[""7""]",1,[1.694399999976099],0,0,0,30,1,,,,,,,,,,,,,,,,,,,,,,,,,,
,,,,,,,,,,,X V Q F H G B L J M P D K C T S W R N Z,5fa69c24315bfb2d0a37c685,22,Mężczyzna,2022-06-11_10h27.03.391,task,2021.1.4,Win32,143.9470275,6299f149e92ead563fba08ef,62a451c78e39c9f99a08ddd7,,,,,,,,,,,,,,,,,,,,,,,,,,,,,,,,,,,,,,,,,,,,,,,,,,,,,,,,,,,,,,,,,,,,,,,,,,,,6,0,6,0,1,,,,,,,,,,,,,,,,,,,,,
,,,,,,,,,,,,5fa69c24315bfb2d0a37c685,22,Mężczyzna,2022-06-11_10h27.03.391,task,2021.1.4,Win32,143.9470275,6299f149e92ead563fba08ef,62a451c78e39c9f99a08ddd7,,,,,,,,,,,,,,,,,,,,,,,,,,,,,,,,,,,,,,,,,,,,,,,,,,,,,,,,,,,,,,,,,,,,,,,,,,,,,,,,,dswffnz,"[""d"",""s"",""w"",""f"",""f"",""n"",""z""]",0,"[2.22950000000003,4.937899999976253,5.39620000004777,6.764300000071557,6.99350000000004,8.528200000047718,8.701800000071557,9.049000000000092]",1,DSWFFNZ,6,0,6,0,1,,,,,,,,,,
,,,,,,,,,,,,5fa69c24315bfb2d0a37c685,22,Mężczyzna,2022-06-11_10h27.03.391,task,2021.1.4,Win32,143.9470275,6299f149e92ead563fba08ef,62a451c78e39c9f99a08ddd7,,,,,,,,,,,,,0,,,,,,,,,,Task,17,(2x3) - 6,0,,,,,,,,,,,,,,,,,,,1,,,,,,,,,,,,,,,,,,,,,,,"[""0""]",1,[2.687000000000012],0,0,0,16,1,,,,,,,,,,,,,,,,,,,,,,,,,,
,,,,,,,,,,,X V Q F H G B L J M P D K C T S W R N Z,5fa69c24315bfb2d0a37c685,22,Mężczyzna,2022-06-11_10h27.03.391,task,2021.1.4,Win32,143.9470275,6299f149e92ead563fba08ef,62a451c78e39c9f99a08ddd7,,,,,,,,,,,,,,,,,,,,,,,,,,,,,,,,,,,,,,,,,,,,,,,,,,,,,,,,,,,,,,,,,,,,,,,,,,,,0,0,0,0,1,,,,,,,,,,,,,,,,,,,,,
,,,,,,,,,,,,5fa69c24315bfb2d0a37c685,22,Mężczyzna,2022-06-11_10h27.03.391,task,2021.1.4,Win32,143.9470275,6299f149e92ead563fba08ef,62a451c78e39c9f99a08ddd7,,,,,,,,,,,,,6,,,,,,,,,,Task,13,(3x4) - 6,6,,,,,,,,,,,,,,,,,,,1,,,,,,,,,,,,,,,,,,,,,,,"[""6""]",1,[1.5211999999285126],0,0,0,12,1,,,,,,,,,,,,,,,,,,,,,,,,,,
,,,,,,,,,,,X V Q F H G B L J M P D K C T S W R N Z,5fa69c24315bfb2d0a37c685,22,Mężczyzna,2022-06-11_10h27.03.391,task,2021.1.4,Win32,143.9470275,6299f149e92ead563fba08ef,62a451c78e39c9f99a08ddd7,,,,,,,,,,,,,,,,,,,,,,,,,,,,,,,,,,,,,,,,,,,,,,,,,,,,,,,,,,,,,,,,,,,,,,,,,,,,1,0,1,0,1,,,,,,,,,,,,,,,,,,,,,
,,,,,,,,,,,,5fa69c24315bfb2d0a37c685,22,Mężczyzna,2022-06-11_10h27.03.391,task,2021.1.4,Win32,143.9470275,6299f149e92ead563fba08ef,62a451c78e39c9f99a08ddd7,,,,,,,,,,,,,1,,,,,,,,,,Task,1,(12/6) - 1,1,,,,,,,,,,,,,,,,,,,1,,,,,,,,,,,,,,,,,,,,,,,"[""1""]",1,[1.2797999999523881],0,0,0,0,1,,,,,,,,,,,,,,,,,,,,,,,,,,
,,,,,,,,,,,X V Q F H G B L J M P D K C T S W R N Z,5fa69c24315bfb2d0a37c685,22,Mężczyzna,2022-06-11_10h27.03.391,task,2021.1.4,Win32,143.9470275,6299f149e92ead563fba08ef,62a451c78e39c9f99a08ddd7,,,,,,,,,,,,,,,,,,,,,,,,,,,,,,,,,,,,,,,,,,,,,,,,,,,,,,,,,,,,,,,,,,,,,,,,,,,,2,0,2,0,1,,,,,,,,,,,,,,,,,,,,,
,,,,,,,,,,,,5fa69c24315bfb2d0a37c685,22,Mężczyzna,2022-06-11_10h27.03.391,task,2021.1.4,Win32,143.9470275,6299f149e92ead563fba08ef,62a451c78e39c9f99a08ddd7,,,,,,,,,,,,,0,,,,,,,,,,Task,25,(10/5) - 2,0,,,,,,,,,,,,,,,,,,,1,,,,,,,,,,,,,,,,,,,,,,,"[""0""]",1,[1.6947000000476464],0,0,0,24,1,,,,,,,,,,,,,,,,,,,,,,,,,,
,,,,,,,,,,,X V Q F H G B L J M P D K C T S W R N Z,5fa69c24315bfb2d0a37c685,22,Mężczyzna,2022-06-11_10h27.03.391,task,2021.1.4,Win32,143.9470275,6299f149e92ead563fba08ef,62a451c78e39c9f99a08ddd7,,,,,,,,,,,,,,,,,,,,,,,,,,,,,,,,,,,,,,,,,,,,,,,,,,,,,,,,,,,,,,,,,,,,,,,,,,,,3,0,3,0,1,,,,,,,,,,,,,,,,,,,,,
,,,,,,,,,,,,5fa69c24315bfb2d0a37c685,22,Mężczyzna,2022-06-11_10h27.03.391,task,2021.1.4,Win32,143.9470275,6299f149e92ead563fba08ef,62a451c78e39c9f99a08ddd7,,,,,,,,,,,,,1,,,,,,,,,,Task,9,(3x7) - 20,1,,,,,,,,,,,,,,,,,,,1,,,,,,,,,,,,,,,,,,,,,,,"[""1""]",1,[1.40979999995227],0,0,0,8,1,,,,,,,,,,,,,,,,,,,,,,,,,,
,,,,,,,,,,,X V Q F H G B L J M P D K C T S W R N Z,5fa69c24315bfb2d0a37c685,22,Mężczyzna,2022-06-11_10h27.03.391,task,2021.1.4,Win32,143.9470275,6299f149e92ead563fba08ef,62a451c78e39c9f99a08ddd7,,,,,,,,,,,,,,,,,,,,,,,,,,,,,,,,,,,,,,,,,,,,,,,,,,,,,,,,,,,,,,,,,,,,,,,,,,,,4,0,4,0,1,,,,,,,,,,,,,,,,,,,,,
,,,,,,,,,,,,5fa69c24315bfb2d0a37c685,22,Mężczyzna,2022-06-11_10h27.03.391,task,2021.1.4,Win32,143.9470275,6299f149e92ead563fba08ef,62a451c78e39c9f99a08ddd7,,,,,,,,,,,,,4,,,,,,,,,,Task,28,(2x5) - 6,4,,,,,,,,,,,,,,,,,,,1,,,,,,,,,,,,,,,,,,,,,,,"[""4""]",1,[1.5762000000476064],0,0,0,27,1,,,,,,,,,,,,,,,,,,,,,,,,,,
,,,,,,,,,,,X V Q F H G B L J M P D K C T S W R N Z,5fa69c24315bfb2d0a37c685,22,Mężczyzna,2022-06-11_10h27.03.391,task,2021.1.4,Win32,143.9470275,6299f149e92ead563fba08ef,62a451c78e39c9f99a08ddd7,,,,,,,,,,,,,,,,,,,,,,,,,,,,,,,,,,,,,,,,,,,,,,,,,,,,,,,,,,,,,,,,,,,,,,,,,,,,5,0,5,0,1,,,,,,,,,,,,,,,,,,,,,
,,,,,,,,,,,,5fa69c24315bfb2d0a37c685,22,Mężczyzna,2022-06-11_10h27.03.391,task,2021.1.4,Win32,143.9470275,6299f149e92ead563fba08ef,62a451c78e39c9f99a08ddd7,,,,,,,,,,,,,1,,,,,,,,,,Task,9,(3x7) - 20,1,,,,,,,,,,,,,,,,,,,1,,,,,,,,,,,,,,,,,,,,,,,"[""1""]",1,[1.31899999999996],0,0,0,8,1,,,,,,,,,,,,,,,,,,,,,,,,,,
,,,,,,,,,,,X V Q F H G B L J M P D K C T S W R N Z,5fa69c24315bfb2d0a37c685,22,Mężczyzna,2022-06-11_10h27.03.391,task,2021.1.4,Win32,143.9470275,6299f149e92ead563fba08ef,62a451c78e39c9f99a08ddd7,,,,,,,,,,,,,,,,,,,,,,,,,,,,,,,,,,,,,,,,,,,,,,,,,,,,,,,,,,,,,,,,,,,,,,,,,,,,6,0,6,0,1,,,,,,,,,,,,,,,,,,,,,
,,,,,,,,,,,,5fa69c24315bfb2d0a37c685,22,Mężczyzna,2022-06-11_10h27.03.391,task,2021.1.4,Win32,143.9470275,6299f149e92ead563fba08ef,62a451c78e39c9f99a08ddd7,,,,,,,,,,,,,,,,,,,,,,,Task,38,(4x6) - 17,7,,,,,,,,,,,,,,,,,,,0,,,,,,,,,,,,,,,,,,,,,,,,0,,0,0,0,37,1,,,,,,,,,,,,,,,,,,,,,,,,,,
,,,,,,,,,,,,5fa69c24315bfb2d0a37c685,22,Mężczyzna,2022-06-11_10h27.03.391,task,2021.1.4,Win32,143.9470275,6299f149e92ead563fba08ef,62a451c78e39c9f99a08ddd7,,,,,,,,,,,,,1,,,,,,,,,,Task,1,(12/6) - 1,1,,,,,,,,,,,,,,,,,,,1,,,,,,,,,,,,,,,,,,,,,,,"[""1""]",1,[1.8350000000000364],0,1,1,0,1,,,,,,,,,,,,,,,,,,,,,,,,,,
,,,,,,,,,,,X V Q F H G B L J M P D K C T S W R N Z,5fa69c24315bfb2d0a37c685,22,Mężczyzna,2022-06-11_10h27.03.391,task,2021.1.4,Win32,143.9470275,6299f149e92ead563fba08ef,62a451c78e39c9f99a08ddd7,,,,,,,,,,,,,,,,,,,,,,,,,,,,,,,,,,,,,,,,,,,,,,,,,,,,,,,,,,,,,,,,,,,,,,,,,,,,7,0,7,0,1,,,,,,,,,,,,,,,,,,,,,
,,,,,,,,,,,,5fa69c24315bfb2d0a37c685,22,Mężczyzna,2022-06-11_10h27.03.391,task,2021.1.4,Win32,143.9470275,6299f149e92ead563fba08ef,62a451c78e39c9f99a08ddd7,,,,,,,,,,,,,,,,,,,,,,,,,,,,,,,,,,,,,,,,,,,,,,,,,,,,,,,,,,,,,,,,,,,,,,,,,,,,,,,,,xvcmtnz,"[""x"",""v"",""c"",""m"",""t"",""n"",""z""]",0,"[3.8607999999522917,5.301399999976184,6.264399999976149,9.569099999904665,12.041399999976193,12.954399999976204,13.85439999997618,14.257599999904642]",0,XVCMHTGR,7,0,7,0,1,,,,,,,,,,
,,,,,,,,,,,,5fa69c24315bfb2d0a37c685,22,Mężczyzna,2022-06-11_10h27.03.391,task,2021.1.4,Win32,143.9470275,6299f149e92ead563fba08ef,62a451c78e39c9f99a08ddd7,,,,,,,,,,,,,8,,,,,,,,,,Task,15,(3x7) - 13,8,,,,,,,,,,,,,,,,,,,1,,,,,,,,,,,,,,,,,,,,,,,"[""8""]",1,[2.433100000023842],0,0,0,14,1,,,,,,,,,,,,,,,,,,,,,,,,,,
,,,,,,,,,,,X V Q F H G B L J M P D K C T S W R N Z,5fa69c24315bfb2d0a37c685,22,Mężczyzna,2022-06-11_10h27.03.391,task,2021.1.4,Win32,143.9470275,6299f149e92ead563fba08ef,62a451c78e39c9f99a08ddd7,,,,,,,,,,,,,,,,,,,,,,,,,,,,,,,,,,,,,,,,,,,,,,,,,,,,,,,,,,,,,,,,,,,,,,,,,,,,0,0,0,0,1,,,,,,,,,,,,,,,,,,,,,
,,,,,,,,,,,,5fa69c24315bfb2d0a37c685,22,Mężczyzna,2022-06-11_10h27.03.391,task,2021.1.4,Win32,143.9470275,6299f149e92ead563fba08ef,62a451c78e39c9f99a08ddd7,,,,,,,,,,,,,3,,,,,,,,,,Task,27,(3/3) + 2,3,,,,,,,,,,,,,,,,,,,1,,,,,,,,,,,,,,,,,,,,,,,"[""3""]",1,[1.5898000000714774],0,0,0,26,1,,,,,,,,,,,,,,,,,,,,,,,,,,
,,,,,,,,,,,X V Q F H G B L J M P D K C T S W R N Z,5fa69c24315bfb2d0a37c685,22,Mężczyzna,2022-06-11_10h27.03.391,task,2021.1.4,Win32,143.9470275,6299f149e92ead563fba08ef,62a451c78e39c9f99a08ddd7,,,,,,,,,,,,,,,,,,,,,,,,,,,,,,,,,,,,,,,,,,,,,,,,,,,,,,,,,,,,,,,,,,,,,,,,,,,,1,0,1,0,1,,,,,,,,,,,,,,,,,,,,,
,,,,,,,,,,,,5fa69c24315bfb2d0a37c685,22,Mężczyzna,2022-06-11_10h27.03.391,task,2021.1.4,Win32,143.9470275,6299f149e92ead563fba08ef,62a451c78e39c9f99a08ddd7,,,,,,,,,,,,,5,,,,,,,,,,Task,36,(8/4) + 3,5,,,,,,,,,,,,,,,,,,,1,,,,,,,,,,,,,,,,,,,,,,,"[""5""]",1,[1.7224999999999682],0,0,0,35,1,,,,,,,,,,,,,,,,,,,,,,,,,,
,,,,,,,,,,,X V Q F H G B L J M P D K C T S W R N Z,5fa69c24315bfb2d0a37c685,22,Mężczyzna,2022-06-11_10h27.03.391,task,2021.1.4,Win32,143.9470275,6299f149e92ead563fba08ef,62a451c78e39c9f99a08ddd7,,,,,,,,,,,,,,,,,,,,,,,,,,,,,,,,,,,,,,,,,,,,,,,,,,,,,,,,,,,,,,,,,,,,,,,,,,,,2,0,2,0,1,,,,,,,,,,,,,,,,,,,,,
,,,,,,,,,,,,5fa69c24315bfb2d0a37c685,22,Mężczyzna,2022-06-11_10h27.03.391,task,2021.1.4,Win32,143.9470275,6299f149e92ead563fba08ef,62a451c78e39c9f99a08ddd7,,,,,,,,,,,,,4,,,,,,,,,,Task,11,(18/3) - 2,4,,,,,,,,,,,,,,,,,,,1,,,,,,,,,,,,,,,,,,,,,,,"[""4""]",1,[1.5133999999761727],0,0,0,10,1,,,,,,,,,,,,,,,,,,,,,,,,,,
,,,,,,,,,,,X V Q F H G B L J M P D K C T S W R N Z,5fa69c24315bfb2d0a37c685,22,Mężczyzna,2022-06-11_10h27.03.391,task,2021.1.4,Win32,143.9470275,6299f149e92ead563fba08ef,62a451c78e39c9f99a08ddd7,,,,,,,,,,,,,,,,,,,,,,,,,,,,,,,,,,,,,,,,,,,,,,,,,,,,,,,,,,,,,,,,,,,,,,,,,,,,3,0,3,0,1,,,,,,,,,,,,,,,,,,,,,
,,,,,,,,,,,,5fa69c24315bfb2d0a37c685,22,Mężczyzna,2022-06-11_10h27.03.391,task,2021.1.4,Win32,143.9470275,6299f149e92ead563fba08ef,62a451c78e39c9f99a08ddd7,,,,,,,,,,,,,4,,,,,,,,,,Task,21,(10/2) - 1,4,,,,,,,,,,,,,,,,,,,1,,,,,,,,,,,,,,,,,,,,,,,"[""4""]",1,[1.3475999999045598],0,0,0,20,1,,,,,,,,,,,,,,,,,,,,,,,,,,
,,,,,,,,,,,X V Q F H G B L J M P D K C T S W R N Z,5fa69c24315bfb2d0a37c685,22,Mężczyzna,2022-06-11_10h27.03.391,task,2021.1.4,Win32,143.9470275,6299f149e92ead563fba08ef,62a451c78e39c9f99a08ddd7,,,,,,,,,,,,,,,,,,,,,,,,,,,,,,,,,,,,,,,,,,,,,,,,,,,,,,,,,,,,,,,,,,,,,,,,,,,,4,0,4,0,1,,,,,,,,,,,,,,,,,,,,,
,,,,,,,,,,,,5fa69c24315bfb2d0a37c685,22,Mężczyzna,2022-06-11_10h27.03.391,task,2021.1.4,Win32,143.9470275,6299f149e92ead563fba08ef,62a451c78e39c9f99a08ddd7,,,,,,,,,,,,,3,,,,,,,,,,Task,27,(3/3) + 2,3,,,,,,,,,,,,,,,,,,,1,,,,,,,,,,,,,,,,,,,,,,,"[""3""]",1,[1.44399999999996],0,0,0,26,1,,,,,,,,,,,,,,,,,,,,,,,,,,
,,,,,,,,,,,X V Q F H G B L J M P D K C T S W R N Z,5fa69c24315bfb2d0a37c685,22,Mężczyzna,2022-06-11_10h27.03.391,task,2021.1.4,Win32,143.9470275,6299f149e92ead563fba08ef,62a451c78e39c9f99a08ddd7,,,,,,,,,,,,,,,,,,,,,,,,,,,,,,,,,,,,,,,,,,,,,,,,,,,,,,,,,,,,,,,,,,,,,,,,,,,,5,0,5,0,1,,,,,,,,,,,,,,,,,,,,,
,,,,,,,,,,,,5fa69c24315bfb2d0a37c685,22,Mężczyzna,2022-06-11_10h27.03.391,task,2021.1.4,Win32,143.9470275,6299f149e92ead563fba08ef,62a451c78e39c9f99a08ddd7,,,,,,,,,,,,,7,,,,,,,,,,Task,14,(2x2) + 3,7,,,,,,,,,,,,,,,,,,,1,,,,,,,,,,,,,,,,,,,,,,,"[""7""]",1,[1.6383999999761727],0,0,0,13,1,,,,,,,,,,,,,,,,,,,,,,,,,,
,,,,,,,,,,,X V Q F H G B L J M P D K C T S W R N Z,5fa69c24315bfb2d0a37c685,22,Mężczyzna,2022-06-11_10h27.03.391,task,2021.1.4,Win32,143.9470275,6299f149e92ead563fba08ef,62a451c78e39c9f99a08ddd7,,,,,,,,,,,,,,,,,,,,,,,,,,,,,,,,,,,,,,,,,,,,,,,,,,,,,,,,,,,,,,,,,,,,,,,,,,,,6,0,6,0,1,,,,,,,,,,,,,,,,,,,,,
,,,,,,,,,,,,5fa69c24315bfb2d0a37c685,22,Mężczyzna,2022-06-11_10h27.03.391,task,2021.1.4,Win32,143.9470275,6299f149e92ead563fba08ef,62a451c78e39c9f99a08ddd7,,,,,,,,,,,,,9,,,,,,,,,,Task,40,(7x2) - 5,9,,,,,,,,,,,,,,,,,,,1,,,,,,,,,,,,,,,,,,,,,,,"[""9""]",1,[1.92999999999995],0,0,0,39,1,,,,,,,,,,,,,,,,,,,,,,,,,,
,,,,,,,,,,,X V Q F H G B L J M P D K C T S W R N Z,5fa69c24315bfb2d0a37c685,22,Mężczyzna,2022-06-11_10h27.03.391,task,2021.1.4,Win32,143.9470275,6299f149e92ead563fba08ef,62a451c78e39c9f99a08ddd7,,,,,,,,,,,,,,,,,,,,,,,,,,,,,,,,,,,,,,,,,,,,,,,,,,,,,,,,,,,,,,,,,,,,,,,,,,,,7,0,7,0,1,,,,,,,,,,,,,,,,,,,,,
,,,,,,,,,,,,5fa69c24315bfb2d0a37c685,22,Mężczyzna,2022-06-11_10h27.03.391,task,2021.1.4,Win32,143.9470275,6299f149e92ead563fba08ef,62a451c78e39c9f99a08ddd7,,,,,,,,,,,,,,,,,,,,,,,,,,,,,,,,,,,,,,,,,,,,,,,,,,,,,,,,,,,,,,,,,,,,,,,,,,,,,,,,,cfhmmnst,"[""c"",""f"",""h"",""m"",""m"",""n"",""s"",""t""]",0,"[1.9648000000714774,2.4232000000477,3.050300000071502,3.3483000000715037,4.153300000071567,4.673300000071549,7.7982000000477,8.535200000047666,9.06899999999996]",1,CFHMMNST,8,0,8,0,1,,,,,,,,,,
,,,,,,,,,,,,5fa69c24315bfb2d0a37c685,22,Mężczyzna,2022-06-11_10h27.03.391,task,2021.1.4,Win32,143.9470275,6299f149e92ead563fba08ef,62a451c78e39c9f99a08ddd7,,,,,,,,,,,,,7,,,,,,,,,,Task,31,(4/2) + 5,7,,,,,,,,,,,,,,,,,,,1,,,,,,,,,,,,,,,,,,,,,,,"[""7""]",1,[1.70799999999997],0,0,0,30,1,,,,,,,,,,,,,,,,,,,,,,,,,,
,,,,,,,,,,,X V Q F H G B L J M P D K C T S W R N Z,5fa69c24315bfb2d0a37c685,22,Mężczyzna,2022-06-11_10h27.03.391,task,2021.1.4,Win32,143.9470275,6299f149e92ead563fba08ef,62a451c78e39c9f99a08ddd7,,,,,,,,,,,,,,,,,,,,,,,,,,,,,,,,,,,,,,,,,,,,,,,,,,,,,,,,,,,,,,,,,,,,,,,,,,,,0,0,0,0,1,,,,,,,,,,,,,,,,,,,,,
,,,,,,,,,,,,5fa69c24315bfb2d0a37c685,22,Mężczyzna,2022-06-11_10h27.03.391,task,2021.1.4,Win32,143.9470275,6299f149e92ead563fba08ef,62a451c78e39c9f99a08ddd7,,,,,,,,,,,,,,,,,,,,,,,Task,29,(3x8) - 19 ,5,,,,,,,,,,,,,,,,,,,0,,,,,,,,,,,,,,,,,,,,,,,,0,,0,0,0,28,1,,,,,,,,,,,,,,,,,,,,,,,,,,
,,,,,,,,,,,,5fa69c24315bfb2d0a37c685,22,Mężczyzna,2022-06-11_10h27.03.391,task,2021.1.4,Win32,143.9470275,6299f149e92ead563fba08ef,62a451c78e39c9f99a08ddd7,,,,,,,,,,,,,3,,,,,,,,,,Task,3,(2x3) - 3,3,,,,,,,,,,,,,,,,,,,1,,,,,,,,,,,,,,,,,,,,,,,"[""3""]",1,[1.6059999999999945],0,1,1,2,1,,,,,,,,,,,,,,,,,,,,,,,,,,
,,,,,,,,,,,X V Q F H G B L J M P D K C T S W R N Z,5fa69c24315bfb2d0a37c685,22,Mężczyzna,2022-06-11_10h27.03.391,task,2021.1.4,Win32,143.9470275,6299f149e92ead563fba08ef,62a451c78e39c9f99a08ddd7,,,,,,,,,,,,,,,,,,,,,,,,,,,,,,,,,,,,,,,,,,,,,,,,,,,,,,,,,,,,,,,,,,,,,,,,,,,,1,0,1,0,1,,,,,,,,,,,,,,,,,,,,,
,,,,,,,,,,,,5fa69c24315bfb2d0a37c685,22,Mężczyzna,2022-06-11_10h27.03.391,task,2021.1.4,Win32,143.9470275,6299f149e92ead563fba08ef,62a451c78e39c9f99a08ddd7,,,,,,,,,,,,,9,,,,,,,,,,Task,40,(7x2) - 5,9,,,,,,,,,,,,,,,,,,,1,,,,,,,,,,,,,,,,,,,,,,,"[""9""]",1,[2.9932999999523418],0,0,0,39,1,,,,,,,,,,,,,,,,,,,,,,,,,,
,,,,,,,,,,,X V Q F H G B L J M P D K C T S W R N Z,5fa69c24315bfb2d0a37c685,22,Mężczyzna,2022-06-11_10h27.03.391,task,2021.1.4,Win32,143.9470275,6299f149e92ead563fba08ef,62a451c78e39c9f99a08ddd7,,,,,,,,,,,,,,,,,,,,,,,,,,,,,,,,,,,,,,,,,,,,,,,,,,,,,,,,,,,,,,,,,,,,,,,,,,,,2,0,2,0,1,,,,,,,,,,,,,,,,,,,,,
,,,,,,,,,,,,5fa69c24315bfb2d0a37c685,22,Mężczyzna,2022-06-11_10h27.03.391,task,2021.1.4,Win32,143.9470275,6299f149e92ead563fba08ef,62a451c78e39c9f99a08ddd7,,,,,,,,,,,,,6,,,,,,,,,,Task,5,(2x3) + 0,6,,,,,,,,,,,,,,,,,,,1,,,,,,,,,,,,,,,,,,,,,,,"[""6""]",1,[1.68100000000004],0,0,0,4,1,,,,,,,,,,,,,,,,,,,,,,,,,,
,,,,,,,,,,,X V Q F H G B L J M P D K C T S W R N Z,5fa69c24315bfb2d0a37c685,22,Mężczyzna,2022-06-11_10h27.03.391,task,2021.1.4,Win32,143.9470275,6299f149e92ead563fba08ef,62a451c78e39c9f99a08ddd7,,,,,,,,,,,,,,,,,,,,,,,,,,,,,,,,,,,,,,,,,,,,,,,,,,,,,,,,,,,,,,,,,,,,,,,,,,,,3,0,3,0,1,,,,,,,,,,,,,,,,,,,,,
,,,,,,,,,,,,5fa69c24315bfb2d0a37c685,22,Mężczyzna,2022-06-11_10h27.03.391,task,2021.1.4,Win32,143.9470275,6299f149e92ead563fba08ef,62a451c78e39c9f99a08ddd7,,,,,,,,,,,,,4,,,,,,,,,,Task,4,(1x5) - 1,4,,,,,,,,,,,,,,,,,,,1,,,,,,,,,,,,,,,,,,,,,,,"[""4""]",1,[1.7502000000476983],0,0,0,3,1,,,,,,,,,,,,,,,,,,,,,,,,,,
,,,,,,,,,,,X V Q F H G B L J M P D K C T S W R N Z,5fa69c24315bfb2d0a37c685,22,Mężczyzna,2022-06-11_10h27.03.391,task,2021.1.4,Win32,143.9470275,6299f149e92ead563fba08ef,62a451c78e39c9f99a08ddd7,,,,,,,,,,,,,,,,,,,,,,,,,,,,,,,,,,,,,,,,,,,,,,,,,,,,,,,,,,,,,,,,,,,,,,,,,,,,4,0,4,0,1,,,,,,,,,,,,,,,,,,,,,
,,,,,,,,,,,,5fa69c24315bfb2d0a37c685,22,Mężczyzna,2022-06-11_10h27.03.391,task,2021.1.4,Win32,143.9470275,6299f149e92ead563fba08ef,62a451c78e39c9f99a08ddd7,,,,,,,,,,,,,9,,,,,,,,,,Task,24,(2x2) + 5,9,,,,,,,,,,,,,,,,,,,1,,,,,,,,,,,,,,,,,,,,,,,"[""9""]",1,[2.4662000000475928],0,0,0,23,1,,,,,,,,,,,,,,,,,,,,,,,,,,
,,,,,,,,,,,X V Q F H G B L J M P D K C T S W R N Z,5fa69c24315bfb2d0a37c685,22,Mężczyzna,2022-06-11_10h27.03.391,task,2021.1.4,Win32,143.9470275,6299f149e92ead563fba08ef,62a451c78e39c9f99a08ddd7,,,,,,,,,,,,,,,,,,,,,,,,,,,,,,,,,,,,,,,,,,,,,,,,,,,,,,,,,,,,,,,,,,,,,,,,,,,,5,0,5,0,1,,,,,,,,,,,,,,,,,,,,,
,,,,,,,,,,,,5fa69c24315bfb2d0a37c685,22,Mężczyzna,2022-06-11_10h27.03.391,task,2021.1.4,Win32,143.9470275,6299f149e92ead563fba08ef,62a451c78e39c9f99a08ddd7,,,,,,,,,,,,,4,,,,,,,,,,Task,21,(10/2) - 1,4,,,,,,,,,,,,,,,,,,,1,,,,,,,,,,,,,,,,,,,,,,,"[""4""]",1,[1.9732000000476546],0,0,0,20,1,,,,,,,,,,,,,,,,,,,,,,,,,,
,,,,,,,,,,,X V Q F H G B L J M P D K C T S W R N Z,5fa69c24315bfb2d0a37c685,22,Mężczyzna,2022-06-11_10h27.03.391,task,2021.1.4,Win32,143.9470275,6299f149e92ead563fba08ef,62a451c78e39c9f99a08ddd7,,,,,,,,,,,,,,,,,,,,,,,,,,,,,,,,,,,,,,,,,,,,,,,,,,,,,,,,,,,,,,,,,,,,,,,,,,,,6,0,6,0,1,,,,,,,,,,,,,,,,,,,,,
,,,,,,,,,,,,5fa69c24315bfb2d0a37c685,22,Mężczyzna,2022-06-11_10h27.03.391,task,2021.1.4,Win32,143.9470275,6299f149e92ead563fba08ef,62a451c78e39c9f99a08ddd7,,,,,,,,,,,,,2,,,,,,,,,,Task,2,(2x2) - 2,2,,,,,,,,,,,,,,,,,,,1,,,,,,,,,,,,,,,,,,,,,,,"[""2""]",1,[1.5990000000000464],0,0,0,1,1,,,,,,,,,,,,,,,,,,,,,,,,,,
,,,,,,,,,,,X V Q F H G B L J M P D K C T S W R N Z,5fa69c24315bfb2d0a37c685,22,Mężczyzna,2022-06-11_10h27.03.391,task,2021.1.4,Win32,143.9470275,6299f149e92ead563fba08ef,62a451c78e39c9f99a08ddd7,,,,,,,,,,,,,,,,,,,,,,,,,,,,,,,,,,,,,,,,,,,,,,,,,,,,,,,,,,,,,,,,,,,,,,,,,,,,7,0,7,0,1,,,,,,,,,,,,,,,,,,,,,
,,,,,,,,,,,,5fa69c24315bfb2d0a37c685,22,Mężczyzna,2022-06-11_10h27.03.391,task,2021.1.4,Win32,143.9470275,6299f149e92ead563fba08ef,62a451c78e39c9f99a08ddd7,,,,,,,,,,,,,0,,,,,,,,,,Task,8,(1x5) - 5,0,,,,,,,,,,,,,,,,,,,1,,,,,,,,,,,,,,,,,,,,,,,"[""0""]",1,[2.1876999999284408],0,0,0,7,1,,,,,,,,,,,,,,,,,,,,,,,,,,
,,,,,,,,,,,X V Q F H G B L J M P D K C T S W R N Z,5fa69c24315bfb2d0a37c685,22,Mężczyzna,2022-06-11_10h27.03.391,task,2021.1.4,Win32,143.9470275,6299f149e92ead563fba08ef,62a451c78e39c9f99a08ddd7,,,,,,,,,,,,,,,,,,,,,,,,,,,,,,,,,,,,,,,,,,,,,,,,,,,,,,,,,,,,,,,,,,,,,,,,,,,,8,0,8,0,1,,,,,,,,,,,,,,,,,,,,,
,,,,,,,,,,,,5fa69c24315bfb2d0a37c685,22,Mężczyzna,2022-06-11_10h27.03.391,task,2021.1.4,Win32,143.9470275,6299f149e92ead563fba08ef,62a451c78e39c9f99a08ddd7,,,,,,,,,,,,,,,,,,,,,,,,,,,,,,,,,,,,,,,,,,,,,,,,,,,,,,,,,,,,,,,,,,,,,,,,,,,,,,,,,jhcnnpw,"[""j"",""h"",""c"",""n"",""n"",""p"",""w""]",0,"[2.298999999999978,2.8139999999999645,5.215700000047605,7.41700000000003,8.0142999999523,12.439299999952254,13.472600000023817,14.000999999999976]",0,JHCGGNNPW,9,0,9,0,1,,,,,,,,,,
,,,,,,,,,,,,5fa69c24315bfb2d0a37c685,22,Mężczyzna,2022-06-11_10h27.03.391,task,2021.1.4,Win32,143.9470275,6299f149e92ead563fba08ef,62a451c78e39c9f99a08ddd7,,,,,,,,,,,,,0,,,,,,,,,,Task,8,(1x5) - 5,0,,,,,,,,,,,,,,,,,,,1,,,,,,,,,,,,,,,,,,,,,,,"[""0""]",1,[1.7446000000238655],0,0,0,7,1,,,,,,,,,,,,,,,,,,,,,,,,,,
,,,,,,,,,,,X V Q F H G B L J M P D K C T S W R N Z,5fa69c24315bfb2d0a37c685,22,Mężczyzna,2022-06-11_10h27.03.391,task,2021.1.4,Win32,143.9470275,6299f149e92ead563fba08ef,62a451c78e39c9f99a08ddd7,,,,,,,,,,,,,,,,,,,,,,,,,,,,,,,,,,,,,,,,,,,,,,,,,,,,,,,,,,,,,,,,,,,,,,,,,,,,0,0,0,0,1,,,,,,,,,,,,,,,,,,,,,
,,,,,,,,,,,,5fa69c24315bfb2d0a37c685,22,Mężczyzna,2022-06-11_10h27.03.391,task,2021.1.4,Win32,143.9470275,6299f149e92ead563fba08ef,62a451c78e39c9f99a08ddd7,,,,,,,,,,,,,5,,,,,,,,,,Task,12,(4x4) - 11,5,,,,,,,,,,,,,,,,,,,1,,,,,,,,,,,,,,,,,,,,,,,"[""5""]",1,[2.5168999999762036],0,0,0,11,1,,,,,,,,,,,,,,,,,,,,,,,,,,
,,,,,,,,,,,X V Q F H G B L J M P D K C T S W R N Z,5fa69c24315bfb2d0a37c685,22,Mężczyzna,2022-06-11_10h27.03.391,task,2021.1.4,Win32,143.9470275,6299f149e92ead563fba08ef,62a451c78e39c9f99a08ddd7,,,,,,,,,,,,,,,,,,,,,,,,,,,,,,,,,,,,,,,,,,,,,,,,,,,,,,,,,,,,,,,,,,,,,,,,,,,,1,0,1,0,1,,,,,,,,,,,,,,,,,,,,,
,,,,,,,,,,,,5fa69c24315bfb2d0a37c685,22,Mężczyzna,2022-06-11_10h27.03.391,task,2021.1.4,Win32,143.9470275,6299f149e92ead563fba08ef,62a451c78e39c9f99a08ddd7,,,,,,,,,,,,,5,,,,,,,,,,Task,12,(4x4) - 11,5,,,,,,,,,,,,,,,,,,,1,,,,,,,,,,,,,,,,,,,,,,,"[""5""]",1,[2.368399999976077],0,0,0,11,1,,,,,,,,,,,,,,,,,,,,,,,,,,
,,,,,,,,,,,X V Q F H G B L J M P D K C T S W R N Z,5fa69c24315bfb2d0a37c685,22,Mężczyzna,2022-06-11_10h27.03.391,task,2021.1.4,Win32,143.9470275,6299f149e92ead563fba08ef,62a451c78e39c9f99a08ddd7,,,,,,,,,,,,,,,,,,,,,,,,,,,,,,,,,,,,,,,,,,,,,,,,,,,,,,,,,,,,,,,,,,,,,,,,,,,,2,0,2,0,1,,,,,,,,,,,,,,,,,,,,,
,,,,,,,,,,,,5fa69c24315bfb2d0a37c685,22,Mężczyzna,2022-06-11_10h27.03.391,task,2021.1.4,Win32,143.9470275,6299f149e92ead563fba08ef,62a451c78e39c9f99a08ddd7,,,,,,,,,,,,,7,,,,,,,,,,Task,6,(12/2) + 1,7,,,,,,,,,,,,,,,,,,,1,,,,,,,,,,,,,,,,,,,,,,,"[""7""]",1,[2.4183999999761454],0,0,0,5,1,,,,,,,,,,,,,,,,,,,,,,,,,,
,,,,,,,,,,,X V Q F H G B L J M P D K C T S W R N Z,5fa69c24315bfb2d0a37c685,22,Mężczyzna,2022-06-11_10h27.03.391,task,2021.1.4,Win32,143.9470275,6299f149e92ead563fba08ef,62a451c78e39c9f99a08ddd7,,,,,,,,,,,,,,,,,,,,,,,,,,,,,,,,,,,,,,,,,,,,,,,,,,,,,,,,,,,,,,,,,,,,,,,,,,,,3,0,3,0,1,,,,,,,,,,,,,,,,,,,,,
,,,,,,,,,,,,5fa69c24315bfb2d0a37c685,22,Mężczyzna,2022-06-11_10h27.03.391,task,2021.1.4,Win32,143.9470275,6299f149e92ead563fba08ef,62a451c78e39c9f99a08ddd7,,,,,,,,,,,,,0,,,,,,,,,,Task,33,(1/1) - 1,0,,,,,,,,,,,,,,,,,,,1,,,,,,,,,,,,,,,,,,,,,,,"[""0""]",1,[1.1800000000000637],0,0,0,32,1,,,,,,,,,,,,,,,,,,,,,,,,,,
,,,,,,,,,,,X V Q F H G B L J M P D K C T S W R N Z,5fa69c24315bfb2d0a37c685,22,Mężczyzna,2022-06-11_10h27.03.391,task,2021.1.4,Win32,143.9470275,6299f149e92ead563fba08ef,62a451c78e39c9f99a08ddd7,,,,,,,,,,,,,,,,,,,,,,,,,,,,,,,,,,,,,,,,,,,,,,,,,,,,,,,,,,,,,,,,,,,,,,,,,,,,4,0,4,0,1,,,,,,,,,,,,,,,,,,,,,
,,,,,,,,,,,,5fa69c24315bfb2d0a37c685,22,Mężczyzna,2022-06-11_10h27.03.391,task,2021.1.4,Win32,143.9470275,6299f149e92ead563fba08ef,62a451c78e39c9f99a08ddd7,,,,,,,,,,,,,3,,,,,,,,,,Task,20,(18/9) + 1,3,,,,,,,,,,,,,,,,,,,1,,,,,,,,,,,,,,,,,,,,,,,"[""3""]",1,[1.416100000023789],0,0,0,19,1,,,,,,,,,,,,,,,,,,,,,,,,,,
,,,,,,,,,,,X V Q F H G B L J M P D K C T S W R N Z,5fa69c24315bfb2d0a37c685,22,Mężczyzna,2022-06-11_10h27.03.391,task,2021.1.4,Win32,143.9470275,6299f149e92ead563fba08ef,62a451c78e39c9f99a08ddd7,,,,,,,,,,,,,,,,,,,,,,,,,,,,,,,,,,,,,,,,,,,,,,,,,,,,,,,,,,,,,,,,,,,,,,,,,,,,5,0,5,0,1,,,,,,,,,,,,,,,,,,,,,
,,,,,,,,,,,,5fa69c24315bfb2d0a37c685,22,Mężczyzna,2022-06-11_10h27.03.391,task,2021.1.4,Win32,143.9470275,6299f149e92ead563fba08ef,62a451c78e39c9f99a08ddd7,,,,,,,,,,,,,0,,,,,,,,,,Task,8,(1x5) - 5,0,,,,,,,,,,,,,,,,,,,1,,,,,,,,,,,,,,,,,,,,,,,"[""0""]",1,[1.5418999999761809],0,0,0,7,1,,,,,,,,,,,,,,,,,,,,,,,,,,
,,,,,,,,,,,X V Q F H G B L J M P D K C T S W R N Z,5fa69c24315bfb2d0a37c685,22,Mężczyzna,2022-06-11_10h27.03.391,task,2021.1.4,Win32,143.9470275,6299f149e92ead563fba08ef,62a451c78e39c9f99a08ddd7,,,,,,,,,,,,,,,,,,,,,,,,,,,,,,,,,,,,,,,,,,,,,,,,,,,,,,,,,,,,,,,,,,,,,,,,,,,,6,0,6,0,1,,,,,,,,,,,,,,,,,,,,,
,,,,,,,,,,,,5fa69c24315bfb2d0a37c685,22,Mężczyzna,2022-06-11_10h27.03.391,task,2021.1.4,Win32,143.9470275,6299f149e92ead563fba08ef,62a451c78e39c9f99a08ddd7,,,,,,,,,,,,,4,,,,,,,,,,Task,4,(1x5) - 1,4,,,,,,,,,,,,,,,,,,,1,,,,,,,,,,,,,,,,,,,,,,,"[""4""]",1,[2.0698000000714956],0,0,0,3,1,,,,,,,,,,,,,,,,,,,,,,,,,,
,,,,,,,,,,,X V Q F H G B L J M P D K C T S W R N Z,5fa69c24315bfb2d0a37c685,22,Mężczyzna,2022-06-11_10h27.03.391,task,2021.1.4,Win32,143.9470275,6299f149e92ead563fba08ef,62a451c78e39c9f99a08ddd7,,,,,,,,,,,,,,,,,,,,,,,,,,,,,,,,,,,,,,,,,,,,,,,,,,,,,,,,,,,,,,,,,,,,,,,,,,,,7,0,7,0,1,,,,,,,,,,,,,,,,,,,,,
,,,,,,,,,,,,5fa69c24315bfb2d0a37c685,22,Mężczyzna,2022-06-11_10h27.03.391,task,2021.1.4,Win32,143.9470275,6299f149e92ead563fba08ef,62a451c78e39c9f99a08ddd7,,,,,,,,,,,,,5,,,,,,,,,,Task,29,(3x8) - 19 ,5,,,,,,,,,,,,,,,,,,,1,,,,,,,,,,,,,,,,,,,,,,,"[""5""]",1,[1.7384999999999309],0,0,0,28,1,,,,,,,,,,,,,,,,,,,,,,,,,,
,,,,,,,,,,,X V Q F H G B L J M P D K C T S W R N Z,5fa69c24315bfb2d0a37c685,22,Mężczyzna,2022-06-11_10h27.03.391,task,2021.1.4,Win32,143.9470275,6299f149e92ead563fba08ef,62a451c78e39c9f99a08ddd7,,,,,,,,,,,,,,,,,,,,,,,,,,,,,,,,,,,,,,,,,,,,,,,,,,,,,,,,,,,,,,,,,,,,,,,,,,,,8,0,8,0,1,,,,,,,,,,,,,,,,,,,,,
,,,,,,,,,,,,5fa69c24315bfb2d0a37c685,22,Mężczyzna,2022-06-11_10h27.03.391,task,2021.1.4,Win32,143.9470275,6299f149e92ead563fba08ef,62a451c78e39c9f99a08ddd7,,,,,,,,,,,,,,,,,,,,,,,,,,,,,,,,,,,,,,,,,,,,,,,,,,,,,,,,,,,,,,,,,,,,,,,,,,,,,,,,,hrvjbqz,"[""h"",""r"",""v"",""j"",""b"",""q"",""z""]",0,"[3.549899999976219,4.660899999976209,5.86850000000004,6.793899999976247,8.710000000000036,11.166399999976193,11.485799999952405,11.784399999976245]",0,HRVJBMQPZ,10,0,10,0,1,,,,,,,,,,
,,,,,,,,,,,,5fa69c24315bfb2d0a37c685,22,Mężczyzna,2022-06-11_10h27.03.391,task,2021.1.4,Win32,143.9470275,6299f149e92ead563fba08ef,62a451c78e39c9f99a08ddd7,,,,,,,,,,,,,,,,,,,,,,,,,,,,,,,,,,,,,,,,,,,,,,,,,,,,,,,,,,,,,,,,,,,,,,,,,,,,,,,,,,,,,,,,,,,,"[""comma""]",0,[1.2764000000953502],0,0,0,0,1,,
,,,,,,,,,,,,5fa69c24315bfb2d0a37c685,22,Mężczyzna,2022-06-11_10h27.03.391,task,2021.1.4,Win32,143.9470275,6299f149e92ead563fba08ef,62a451c78e39c9f99a08ddd7,,,,,,,,,,,,,,,,,,,,,,,,,,,,,,,,,,,,,,,,,,,,,,,,,,,,,,,,,,,,,,,,,,,,,,,,,,,,,,,,,,,,,,,,,,,,"[""comma""]",0,[1.2156999999284608],1,0,1,0,1,,
,,,,,,,,,,,,5fa69c24315bfb2d0a37c685,22,Mężczyzna,2022-06-11_10h27.03.391,task,2021.1.4,Win32,143.9470275,6299f149e92ead563fba08ef,62a451c78e39c9f99a08ddd7,,,,,,,,,,,,,,,,,,,,,,,,,,,,,,,,,,,,,,,,,,,,,,,,,,,,,,,,,,,,,,,,,,,,,,,,,,,,,,,,,,,,,,,,,,,,"[""comma""]",0,[0.8127999999522899],2,0,2,0,1,,
,,,,,,,,,,,,5fa69c24315bfb2d0a37c685,22,Mężczyzna,2022-06-11_10h27.03.391,task,2021.1.4,Win32,143.9470275,6299f149e92ead563fba08ef,62a451c78e39c9f99a08ddd7,,,,,,,,,,,,,,,,,,,,,,,,,,,,,,,,,,,,,,,,,,,,,,,,,,,,,,,,,,,,,,,,,,,,,,,,,,,,,,,,,,,,,,,,,,,,"[""period""]",0,[0.5419999999999163],3,0,3,0,1,,
,,,,,,,,,,,,5fa69c24315bfb2d0a37c685,22,Mężczyzna,2022-06-11_10h27.03.391,task,2021.1.4,Win32,143.9470275,6299f149e92ead563fba08ef,62a451c78e39c9f99a08ddd7,,,,,,,,,,,,,,,,,,,,,,,,,,,,,,,,,,,,,,,,,,,,,,,,,,,,,,,,,,,,,,,,,,,,,,,,,,,,,,,,,,,,,,,,,,,,"[""comma""]",0,[0.625399999976139],4,0,4,0,1,,
,,,,,,,,,,,,5fa69c24315bfb2d0a37c685,22,Mężczyzna,2022-06-11_10h27.03.391,task,2021.1.4,Win32,143.9470275,6299f149e92ead563fba08ef,62a451c78e39c9f99a08ddd7,,,,,,,,,,,,,,,,,,,,,,,,,,,,,,,,,,,,,,,,,,,,,,,,,,,,,,,,,,,,,,,,,,,,,,,,,,,,,,,,,,,,,,,,,,,,"[""period""]",0,[0.3919000000953474],5,0,5,0,1,,
,,,,,,,,,,,,5fa69c24315bfb2d0a37c685,22,Mężczyzna,2022-06-11_10h27.03.391,task,2021.1.4,Win32,143.9470275,6299f149e92ead563fba08ef,62a451c78e39c9f99a08ddd7,,,,,,,,,,,,,,,,,,,,,,,,,,,,,,,,,,,,,,,,,,,,,,,,,,,,,,,,,,,,,,,,,,,,,,,,,,,,,,,,,,,,,,,,,,,,"[""period""]",0,[0.23639999997612904],6,0,6,0,1,,
,,,,,,,,,,,,5fa69c24315bfb2d0a37c685,22,Mężczyzna,2022-06-11_10h27.03.391,task,2021.1.4,Win32,143.9470275,6299f149e92ead563fba08ef,62a451c78e39c9f99a08ddd7,,,,,,,,,,,,,,,,,,,,,,,,,,,,,,,,,,,,,,,,,,,,,,,,,,,,,,,,,,,,,,,,,,,,,,,,,,,,,,,,,,,,,,,,,,,,"[""period""]",0,[0.3336000000238073],7,0,7,0,1,,
,,,,,,,,,,,,5fa69c24315bfb2d0a37c685,22,Mężczyzna,2022-06-11_10h27.03.391,task,2021.1.4,Win32,143.9470275,6299f149e92ead563fba08ef,62a451c78e39c9f99a08ddd7,,,,,,,,,,,,,,,,,,,,,,,,,,,,,,,,,,,,,,,,,,,,,,,,,,,,,,,,,,,,,,,,,,,,,,,,,,,,,,,,,,,,,,,,,,,,"[""period""]",0,[0.42390000009538653],8,0,8,0,1,,
,,,,,,,,,,,,5fa69c24315bfb2d0a37c685,22,Mężczyzna,2022-06-11_10h27.03.391,task,2021.1.4,Win32,143.9470275,6299f149e92ead563fba08ef,62a451c78e39c9f99a08ddd7,,,,,,,,,,,,,,,,,,,,,,,,,,,,,,,,,,,,,,,,,,,,,,,,,,,,,,,,,,,,,,,,,,,,,,,,,,,,,,,,,,,,,,,,,,,,"[""comma""]",0,[0.34769999992852263],9,0,9,0,1,,
,,,,,,,,,,,,5fa69c24315bfb2d0a37c685,22,Mężczyzna,2022-06-11_10h27.03.391,task,2021.1.4,Win32,143.9470275,6299f149e92ead563fba08ef,62a451c78e39c9f99a08ddd7,,,,,,,,,,,,,,,,,,,,,,,,,,,,,,,,,,,,,,,,,,,,,,,,,,,,,,,,,,,,,,,,,,,,,,,,,,,,,,,,,,,,,,,,,,,,"[""comma""]",0,[0.6119999999999663],10,0,10,0,1,,
,,,,,,,,,,,,5fa69c24315bfb2d0a37c685,22,Mężczyzna,2022-06-11_10h27.03.391,task,2021.1.4,Win32,143.9470275,6299f149e92ead563fba08ef,62a451c78e39c9f99a08ddd7,,,,,,,,,,,,,,,,,,,,,,,,,,,,,,,,,,,,,,,,,,,,,,,,,,,,,,,,,,,,,,,,,,,,,,,,,,,,,,,,,,,,,,,,,,,,"[""period""]",0,[0.30070000004764097],11,0,11,0,1,,
,,,,,,,,,,,,5fa69c24315bfb2d0a37c685,22,Mężczyzna,2022-06-11_10h27.03.391,task,2021.1.4,Win32,143.9470275,6299f149e92ead563fba08ef,62a451c78e39c9f99a08ddd7,,,,,,,,,,,,,,,,,,,,,,,,,,,,,,,,,,,,,,,,,,,,,,,,,,,,,,,,,,,,,,,,,,,,,,,,,,,,,,,,,,,,,,,,,,,,"[""period""]",0,[0.3427999999523763],12,0,12,0,1,,
,,,,,,,,,,,,5fa69c24315bfb2d0a37c685,22,Mężczyzna,2022-06-11_10h27.03.391,task,2021.1.4,Win32,143.9470275,6299f149e92ead563fba08ef,62a451c78e39c9f99a08ddd7,,,,,,,,,,,,,,,,,,,,,,,,,,,,,,,,,,,,,,,,,,,,,,,,,,,,,,,,,,,,,,,,,,,,,,,,,,,,,,,,,,,,,,,,,,,,"[""comma""]",0,[0.24440000009531104],13,0,13,0,1,,
,,,,,,,,,,,,5fa69c24315bfb2d0a37c685,22,Mężczyzna,2022-06-11_10h27.03.391,task,2021.1.4,Win32,143.9470275,6299f149e92ead563fba08ef,62a451c78e39c9f99a08ddd7,,,,,,,,,,,,,,,,,,,,,,,,,,,,,,,,,,,,,,,,,,,,,,,,,,,,,,,,,,,,,,,,,,,,,,,,,,,,,,,,,,,,,,,,,,,,"[""period""]",0,[0.2517000000476628],14,0,14,0,1,,
,,,,,,,,,,,,5fa69c24315bfb2d0a37c685,22,Mężczyzna,2022-06-11_10h27.03.391,task,2021.1.4,Win32,143.9470275,6299f149e92ead563fba08ef,62a451c78e39c9f99a08ddd7,,,,,,,,,,,,,,,,,,,,,,,,,,,,,,,,,,,,,,,,,,,,,,,,,,,,,,,,,,,,,,,,,,,,,,,,,,,,,,,,,,,,,,,,,,,,"[""period""]",0,[0.2727999999523263],15,0,15,0,1,,
,,,,,,,,,,,,5fa69c24315bfb2d0a37c685,22,Mężczyzna,2022-06-11_10h27.03.391,task,2021.1.4,Win32,143.9470275,6299f149e92ead563fba08ef,62a451c78e39c9f99a08ddd7,,,,,,,,,,,,,,,,,,,,,,,,,,,,,,,,,,,,,,,,,,,,,,,,,,,,,,,,,,,,,,,,,,,,,,,,,,,,,,,,,,,,,,,,,,,,"[""period""]",0,[0.27810000002375546],16,0,16,0,1,,
,,,,,,,,,,,,5fa69c24315bfb2d0a37c685,22,Mężczyzna,2022-06-11_10h27.03.391,task,2021.1.4,Win32,143.9470275,6299f149e92ead563fba08ef,62a451c78e39c9f99a08ddd7,,,,,,,,,,,,,,,,,,,,,,,,,,,,,,,,,,,,,,,,,,,,,,,,,,,,,,,,,,,,,,,,,,,,,,,,,,,,,,,,,,,,,,,,,,,,"[""period""]",0,[0.06989999997620089],17,0,17,0,1,,
,,,,,,,,,,,,5fa69c24315bfb2d0a37c685,22,Mężczyzna,2022-06-11_10h27.03.391,task,2021.1.4,Win32,143.9470275,6299f149e92ead563fba08ef,62a451c78e39c9f99a08ddd7,,,,,,,,,,,,,,,,,,,,,,,,,,,,,,,,,,,,,,,,,,,,,,,,,,,,,,,,,,,,,,,,,,,,,,,,,,,,,,,,,,,,,,,,,,,,"[""comma""]",0,[0.2936000000238437],18,0,18,0,1,,
,,,,,,,,,,,,5fa69c24315bfb2d0a37c685,22,Mężczyzna,2022-06-11_10h27.03.391,task,2021.1.4,Win32,143.9470275,6299f149e92ead563fba08ef,62a451c78e39c9f99a08ddd7,,,,,,,,,,,,,,,,,,,,,,,,,,,,,,,,,,,,,,,,,,,,,,,,,,,,,,,,,,,,,,,,,,,,,,,,,,,,,,,,,,,,,,,,,,,,"[""comma""]",0,[0.23070000004770463],19,0,19,0,1,,
,,,,,,,,,,,,5fa69c24315bfb2d0a37c685,22,Mężczyzna,2022-06-11_10h27.03.391,task,2021.1.4,Win32,143.9470275,6299f149e92ead563fba08ef,62a451c78e39c9f99a08ddd7,,,,,,,,,,,,,,,,,,,,,,,,,,,,,,,,,,,,,,,,,,,,,,,,,,,,,,,,,,,,,,,,,,,,,,,,,,,,,,,,,,,,,,,,,,,,"[""period""]",0,[0.28519999992840894],20,0,20,0,1,,
,,,,,,,,,,,,5fa69c24315bfb2d0a37c685,22,Mężczyzna,2022-06-11_10h27.03.391,task,2021.1.4,Win32,143.9470275,6299f149e92ead563fba08ef,62a451c78e39c9f99a08ddd7,,,,,,,,,,,,,,,,,,,,,,,,,,,,,,,,,,,,,,,,,,,,,,,,,,,,,,,,,,,,,,,,,,,,,,,,,,,,,,,,,,,,,,,,,,,,"[""comma""]",0,[0.2782999999523099],21,0,21,0,1,,
,,,,,,,,,,,,5fa69c24315bfb2d0a37c685,22,Mężczyzna,2022-06-11_10h27.03.391,task,2021.1.4,Win32,143.9470275,6299f149e92ead563fba08ef,62a451c78e39c9f99a08ddd7,,,,,,,,,,,,,,,,,,,,,,,,,,,,,,,,,,,,,,,,,,,,,,,,,,,,,,,,,,,,,,,,,,,,,,,,,,,,,,,,,,,,,,,,,,,,"[""comma""]",0,[0.30090000009533924],22,0,22,0,1,,
,,,,,,,,,,,,5fa69c24315bfb2d0a37c685,22,Mężczyzna,2022-06-11_10h27.03.391,task,2021.1.4,Win32,143.9470275,6299f149e92ead563fba08ef,62a451c78e39c9f99a08ddd7,,,,,,,,,,,,,,,,,,,,,,,,,,,,,,,,,,,,,,,,,,,,,,,,,,,,,,,,,,,,,,,,,,,,,,,,,,,,,,,,,,,,,,,,,,,,"[""comma""]",0,[0.27269999992847715],23,0,23,0,1,,
,,,,,,,,,,,,5fa69c24315bfb2d0a37c685,22,Mężczyzna,2022-06-11_10h27.03.391,task,2021.1.4,Win32,143.9470275,6299f149e92ead563fba08ef,62a451c78e39c9f99a08ddd7,,,,,,,,,,,,,,,,,,,,,,,,,,,,,,,,,,,,,,,,,,,,,,,,,,,,,,,,,,,,,,,,,,,,,,,,,,,,,,,,,,,,,,,,,,,,"[""comma""]",0,[0.21780000007152012],24,0,24,0,1,,
,,,,,,,,,,,,5fa69c24315bfb2d0a37c685,22,Mężczyzna,2022-06-11_10h27.03.391,task,2021.1.4,Win32,143.9470275,6299f149e92ead563fba08ef,62a451c78e39c9f99a08ddd7,,,,,,,,,,,,,,,,,,,,,,,,,,,,,,,,,,,,,,,,,,,,,,,,,,,,,,,,,,,,,,,,,,,,,,,,,,,,,,,,,,,,,,,,,,,,"[""comma""]",0,[0.24330000007148556],25,0,25,0,1,,
,,,,,,,,,,,,5fa69c24315bfb2d0a37c685,22,Mężczyzna,2022-06-11_10h27.03.391,task,2021.1.4,Win32,143.9470275,6299f149e92ead563fba08ef,62a451c78e39c9f99a08ddd7,,,,,,,,,,,,,,,,,,,,,,,,,,,,,,,,,,,,,,,,,,,,,,,,,,,,,,,,,,,,,,,,,,,,,,,,,,,,,,,,,,,,,,,,,,,,"[""period""]",0,[0.22420000004763097],26,0,26,0,1,,
,,,,,,,,,,,,5fa69c24315bfb2d0a37c685,22,Mężczyzna,2022-06-11_10h27.03.391,task,2021.1.4,Win32,143.9470275,6299f149e92ead563fba08ef,62a451c78e39c9f99a08ddd7,,,,,,,,,,,,,,,,,,,,,,,,,,,,,,,,,,,,,,,,,,,,,,,,,,,,,,,,,,,,,,,,,,,,,,,,,,,,,,,,,,,,,,,,,,,,"[""period""]",0,[0.4163000000714874],27,0,27,0,1,,
,,,,,,,,,,,,5fa69c24315bfb2d0a37c685,22,Mężczyzna,2022-06-11_10h27.03.391,task,2021.1.4,Win32,143.9470275,6299f149e92ead563fba08ef,62a451c78e39c9f99a08ddd7,,,,,,,,,,,,,,,,,,,,,,,,,,,,,,,,,,,,,,,,,,,,,,,,,,,,,,,,,,,,,,,,,,,,,,,,,,,,,,,,,,,,,,,,,,,,"[""comma""]",0,[0.2566000000238091],28,0,28,0,1,,
,,,,,,,,,,,,5fa69c24315bfb2d0a37c685,22,Mężczyzna,2022-06-11_10h27.03.391,task,2021.1.4,Win32,143.9470275,6299f149e92ead563fba08ef,62a451c78e39c9f99a08ddd7,,,,,,,,,,,,,,,,,,,,,,,,,,,,,,,,,,,,,,,,,,,,,,,,,,,,,,,,,,,,,,,,,,,,,,,,,,,,,,,,,,,,,,,,,,,,"[""period""]",0,[0.30520000004764825],29,0,29,0,1,,
,,,,,,,,,,,,5fa69c24315bfb2d0a37c685,22,Mężczyzna,2022-06-11_10h27.03.391,task,2021.1.4,Win32,143.9470275,6299f149e92ead563fba08ef,62a451c78e39c9f99a08ddd7,,,,,,,,,,,,,,,,,,,,,,,,,,,,,,,,,,,,,,,,,,,,,,,,,,,,,,,,,,,,,,,,,,,,,,,,,,,,,,,,,,,,,,,,,,,,"[""period""]",0,[0.2289000000953365],30,0,30,0,1,,
,,,,,,,,,,,,5fa69c24315bfb2d0a37c685,22,Mężczyzna,2022-06-11_10h27.03.391,task,2021.1.4,Win32,143.9470275,6299f149e92ead563fba08ef,62a451c78e39c9f99a08ddd7,,,,,,,,,,,,,,,,,,,,,,,,,,,,,,,,,,,,,,,,,,,,,,,,,,,,,,,,,,,,,,,,,,,,,,,,,,,,,,,,,,,,,,,,,,,,"[""period""]",0,[0.24280000007149738],31,0,31,0,1,,
,,,,,,,,,,,,5fa69c24315bfb2d0a37c685,22,Mężczyzna,2022-06-11_10h27.03.391,task,2021.1.4,Win32,143.9470275,6299f149e92ead563fba08ef,62a451c78e39c9f99a08ddd7,,,,,,,,,,,,,,,,,,,,,,,,,,,,,,,,,,,,,,,,,,,,,,,,,,,,,,,,,,,,,,,,,,,,,,,,,,,,,,,,,,,,,,,,,,,,"[""comma""]",0,[0.2038000000715101],32,0,32,0,1,,
,,,,,,,,,,,,5fa69c24315bfb2d0a37c685,22,Mężczyzna,2022-06-11_10h27.03.391,task,2021.1.4,Win32,143.9470275,6299f149e92ead563fba08ef,62a451c78e39c9f99a08ddd7,,,,,,,,,,,,,,,,,,,,,,,,,,,,,,,,,,,,,,,,,,,,,,,,,,,,,,,,,,,,,,,,,,,,,,,,,,,,,,,,,,,,,,,,,,,,"[""period""]",0,[0.23599999999999],33,0,33,0,1,,
,,,,,,,,,,,,5fa69c24315bfb2d0a37c685,22,Mężczyzna,2022-06-11_10h27.03.391,task,2021.1.4,Win32,143.9470275,6299f149e92ead563fba08ef,62a451c78e39c9f99a08ddd7,,,,,,,,,,,,,,,,,,,,,,,,,,,,,,,,,,,,,,,,,,,,,,,,,,,,,,,,,,,,,,,,,,,,,,,,,,,,,,,,,,,,,,,,,,,,"[""comma""]",0,[0.23580000007143553],34,0,34,0,1,,
