key_resp_15.keys,key_resp_15.rt,key_resp_16.keys,key_resp_16.rt,key_resp_4.keys,key_resp_4.rt,next_letter.thisRepN,next_letter.thisTrialN,next_letter.thisN,next_letter.thisIndex,next_letter.ran,letter,participant,Wiek*,Płeć,date,expName,psychopyVersion,OS,frameRate,study_id,session,simple_recall,key_resp_5.keys,key_resp_5.rt,simple_recall_corr,simple_recall_corrkeys,next_level.thisRepN,next_level.thisTrialN,next_level.thisN,next_level.thisIndex,next_level.ran,key_resp_2.keys,key_resp_2.rt,digit_answer,key_resp.keys,key_resp.corr,key_resp.rt,RT_list,next_equation.thisRepN,next_equation.thisTrialN,next_equation.thisN,next_equation.thisIndex,next_equation.ran,Task,Trial,Problem,Operation_answer,processing_score,sumRT,meanRT,sumdiff,sd,RT,key_resp_3.keys,key_resp_3.rt,repeat_practice.thisRepN,repeat_practice.thisTrialN,repeat_practice.thisN,repeat_practice.thisIndex,repeat_practice.ran,key_resp_6.keys,key_resp_6.rt,key_resp_11.keys,key_resp_11.corr,key_resp_11.rt,operation_correct,repeat_if_wrong_prac.thisRepN,repeat_if_wrong_prac.thisTrialN,repeat_if_wrong_prac.thisN,repeat_if_wrong_prac.thisIndex,repeat_if_wrong_prac.ran,span_size_prac.thisRepN,span_size_prac.thisTrialN,span_size_prac.thisN,span_size_prac.thisIndex,span_size_prac.ran,complex_recall_practice,key_resp_9.keys,key_resp_9.corr,key_resp_9.rt,complex_prac_corr,span_recall_prac.thisRepN,span_recall_prac.thisTrialN,span_recall_prac.thisN,span_recall_prac.thisIndex,span_recall_prac.ran,key_resp_10.keys,key_resp_10.rt,key_resp_7.keys,key_resp_7.corr,key_resp_7.rt,repeat_if_wrong.thisRepN,repeat_if_wrong.thisTrialN,repeat_if_wrong.thisN,repeat_if_wrong.thisIndex,repeat_if_wrong.ran,span_size.thisRepN,span_size.thisTrialN,span_size.thisN,span_size.thisIndex,span_size.ran,complex_recall,key_resp_8.keys,key_resp_8.corr,key_resp_8.rt,complex_recall_corr,complex_recall_corrkeys,span_recall.thisRepN,span_recall.thisTrialN,span_recall.thisN,span_recall.thisIndex,span_recall.ran,key_resp_13.keys,key_resp_13.corr,key_resp_13.rt,random_loop.thisRepN,random_loop.thisTrialN,random_loop.thisN,random_loop.thisIndex,random_loop.ran,key_resp_12.keys,key_resp_12.rt
space,18.9131,space,18.2655,space,8.465,0,0,0,0,1,X V Q F H G B L J M P D K C T S W R N Z,5fa925f7a78e1e0008f13a21,24,Mężczyzna,2022-06-11_09h33.05.391,task,2021.1.4,Win32,59.61607249,6299f149e92ead563fba08ef,62a445238243bc97e1b46759,,,,,,,,,,,,,,,,,,,,,,,,,,,,,,,,,,,,,,,,,,,,,,,,,,,,,,,,,,,,,,,,,,,,,,,,,,,,,,,,,,,,,,,,,,,,,,,,,,,,,
,,,,,,1,0,1,0,1,X V Q F H G B L J M P D K C T S W R N Z,5fa925f7a78e1e0008f13a21,24,Mężczyzna,2022-06-11_09h33.05.391,task,2021.1.4,Win32,59.61607249,6299f149e92ead563fba08ef,62a445238243bc97e1b46759,,,,,,,,,,,,,,,,,,,,,,,,,,,,,,,,,,,,,,,,,,,,,,,,,,,,,,,,,,,,,,,,,,,,,,,,,,,,,,,,,,,,,,,,,,,,,,,,,,,,,
,,,,,,,,,,,,5fa925f7a78e1e0008f13a21,24,Mężczyzna,2022-06-11_09h33.05.391,task,2021.1.4,Win32,59.61607249,6299f149e92ead563fba08ef,62a445238243bc97e1b46759,zd,"[""z"",""d""]","[1.5457999999523153,1.922100000023839,3.354899999976162]",1,ZD,0,0,0,0,1,,,,,,,,,,,,,,,,,,,,,,,,,,,,,,,,,,,,,,,,,,,,,,,,,,,,,,,,,,,,,,,,,,,,,,,,,,,,,,,,,,,,,,,,,,,
,,,,,,0,0,0,0,1,X V Q F H G B L J M P D K C T S W R N Z,5fa925f7a78e1e0008f13a21,24,Mężczyzna,2022-06-11_09h33.05.391,task,2021.1.4,Win32,59.61607249,6299f149e92ead563fba08ef,62a445238243bc97e1b46759,,,,,,,,,,,,,,,,,,,,,,,,,,,,,,,,,,,,,,,,,,,,,,,,,,,,,,,,,,,,,,,,,,,,,,,,,,,,,,,,,,,,,,,,,,,,,,,,,,,,,
,,,,,,1,0,1,0,1,X V Q F H G B L J M P D K C T S W R N Z,5fa925f7a78e1e0008f13a21,24,Mężczyzna,2022-06-11_09h33.05.391,task,2021.1.4,Win32,59.61607249,6299f149e92ead563fba08ef,62a445238243bc97e1b46759,,,,,,,,,,,,,,,,,,,,,,,,,,,,,,,,,,,,,,,,,,,,,,,,,,,,,,,,,,,,,,,,,,,,,,,,,,,,,,,,,,,,,,,,,,,,,,,,,,,,,
,,,,,,,,,,,,5fa925f7a78e1e0008f13a21,24,Mężczyzna,2022-06-11_09h33.05.391,task,2021.1.4,Win32,59.61607249,6299f149e92ead563fba08ef,62a445238243bc97e1b46759,mj,"[""m"",""j""]","[0.7405000000000044,1.1015000000000086,1.781100000023848]",1,MJ,1,0,1,0,1,,,,,,,,,,,,,,,,,,,,,,,,,,,,,,,,,,,,,,,,,,,,,,,,,,,,,,,,,,,,,,,,,,,,,,,,,,,,,,,,,,,,,,,,,,,
,,,,,,0,0,0,0,1,X V Q F H G B L J M P D K C T S W R N Z,5fa925f7a78e1e0008f13a21,24,Mężczyzna,2022-06-11_09h33.05.391,task,2021.1.4,Win32,59.61607249,6299f149e92ead563fba08ef,62a445238243bc97e1b46759,,,,,,,,,,,,,,,,,,,,,,,,,,,,,,,,,,,,,,,,,,,,,,,,,,,,,,,,,,,,,,,,,,,,,,,,,,,,,,,,,,,,,,,,,,,,,,,,,,,,,
,,,,,,1,0,1,0,1,X V Q F H G B L J M P D K C T S W R N Z,5fa925f7a78e1e0008f13a21,24,Mężczyzna,2022-06-11_09h33.05.391,task,2021.1.4,Win32,59.61607249,6299f149e92ead563fba08ef,62a445238243bc97e1b46759,,,,,,,,,,,,,,,,,,,,,,,,,,,,,,,,,,,,,,,,,,,,,,,,,,,,,,,,,,,,,,,,,,,,,,,,,,,,,,,,,,,,,,,,,,,,,,,,,,,,,
,,,,,,2,0,2,0,1,X V Q F H G B L J M P D K C T S W R N Z,5fa925f7a78e1e0008f13a21,24,Mężczyzna,2022-06-11_09h33.05.391,task,2021.1.4,Win32,59.61607249,6299f149e92ead563fba08ef,62a445238243bc97e1b46759,,,,,,,,,,,,,,,,,,,,,,,,,,,,,,,,,,,,,,,,,,,,,,,,,,,,,,,,,,,,,,,,,,,,,,,,,,,,,,,,,,,,,,,,,,,,,,,,,,,,,
,,,,,,,,,,,,5fa925f7a78e1e0008f13a21,24,Mężczyzna,2022-06-11_09h33.05.391,task,2021.1.4,Win32,59.61607249,6299f149e92ead563fba08ef,62a445238243bc97e1b46759,ksf,"[""k"",""s"",""f""]","[0.6146000000238416,1.115100000023844,1.7405000000000115,2.4241000000238415]",1,KSF,2,0,2,0,1,,,,,,,,,,,,,,,,,,,,,,,,,,,,,,,,,,,,,,,,,,,,,,,,,,,,,,,,,,,,,,,,,,,,,,,,,,,,,,,,,,,,,,,,,,,
,,,,,,0,0,0,0,1,X V Q F H G B L J M P D K C T S W R N Z,5fa925f7a78e1e0008f13a21,24,Mężczyzna,2022-06-11_09h33.05.391,task,2021.1.4,Win32,59.61607249,6299f149e92ead563fba08ef,62a445238243bc97e1b46759,,,,,,,,,,,,,,,,,,,,,,,,,,,,,,,,,,,,,,,,,,,,,,,,,,,,,,,,,,,,,,,,,,,,,,,,,,,,,,,,,,,,,,,,,,,,,,,,,,,,,
,,,,,,1,0,1,0,1,X V Q F H G B L J M P D K C T S W R N Z,5fa925f7a78e1e0008f13a21,24,Mężczyzna,2022-06-11_09h33.05.391,task,2021.1.4,Win32,59.61607249,6299f149e92ead563fba08ef,62a445238243bc97e1b46759,,,,,,,,,,,,,,,,,,,,,,,,,,,,,,,,,,,,,,,,,,,,,,,,,,,,,,,,,,,,,,,,,,,,,,,,,,,,,,,,,,,,,,,,,,,,,,,,,,,,,
,,,,,,2,0,2,0,1,X V Q F H G B L J M P D K C T S W R N Z,5fa925f7a78e1e0008f13a21,24,Mężczyzna,2022-06-11_09h33.05.391,task,2021.1.4,Win32,59.61607249,6299f149e92ead563fba08ef,62a445238243bc97e1b46759,,,,,,,,,,,,,,,,,,,,,,,,,,,,,,,,,,,,,,,,,,,,,,,,,,,,,,,,,,,,,,,,,,,,,,,,,,,,,,,,,,,,,,,,,,,,,,,,,,,,,
,,,,,,,,,,,,5fa925f7a78e1e0008f13a21,24,Mężczyzna,2022-06-11_09h33.05.391,task,2021.1.4,Win32,59.61607249,6299f149e92ead563fba08ef,62a445238243bc97e1b46759,ktb,"[""k"",""t"",""b""]","[1.1337999999523163,1.5493999999761598,1.803699999928483,2.464399999976166]",1,KTB,3,0,3,0,1,,,,,,,,,,,,,,,,,,,,,,,,,,,,,,,,,,,,,,,,,,,,,,,,,,,,,,,,,,,,,,,,,,,,,,,,,,,,,,,,,,,,,,,,,,,
,,,,,,0,0,0,0,1,X V Q F H G B L J M P D K C T S W R N Z,5fa925f7a78e1e0008f13a21,24,Mężczyzna,2022-06-11_09h33.05.391,task,2021.1.4,Win32,59.61607249,6299f149e92ead563fba08ef,62a445238243bc97e1b46759,,,,,,,,,,,,,,,,,,,,,,,,,,,,,,,,,,,,,,,,,,,,,,,,,,,,,,,,,,,,,,,,,,,,,,,,,,,,,,,,,,,,,,,,,,,,,,,,,,,,,
,,,,,,1,0,1,0,1,X V Q F H G B L J M P D K C T S W R N Z,5fa925f7a78e1e0008f13a21,24,Mężczyzna,2022-06-11_09h33.05.391,task,2021.1.4,Win32,59.61607249,6299f149e92ead563fba08ef,62a445238243bc97e1b46759,,,,,,,,,,,,,,,,,,,,,,,,,,,,,,,,,,,,,,,,,,,,,,,,,,,,,,,,,,,,,,,,,,,,,,,,,,,,,,,,,,,,,,,,,,,,,,,,,,,,,
,,,,,,2,0,2,0,1,X V Q F H G B L J M P D K C T S W R N Z,5fa925f7a78e1e0008f13a21,24,Mężczyzna,2022-06-11_09h33.05.391,task,2021.1.4,Win32,59.61607249,6299f149e92ead563fba08ef,62a445238243bc97e1b46759,,,,,,,,,,,,,,,,,,,,,,,,,,,,,,,,,,,,,,,,,,,,,,,,,,,,,,,,,,,,,,,,,,,,,,,,,,,,,,,,,,,,,,,,,,,,,,,,,,,,,
,,,,,,3,0,3,0,1,X V Q F H G B L J M P D K C T S W R N Z,5fa925f7a78e1e0008f13a21,24,Mężczyzna,2022-06-11_09h33.05.391,task,2021.1.4,Win32,59.61607249,6299f149e92ead563fba08ef,62a445238243bc97e1b46759,,,,,,,,,,,,,,,,,,,,,,,,,,,,,,,,,,,,,,,,,,,,,,,,,,,,,,,,,,,,,,,,,,,,,,,,,,,,,,,,,,,,,,,,,,,,,,,,,,,,,
,,,,,,,,,,,,5fa925f7a78e1e0008f13a21,24,Mężczyzna,2022-06-11_09h33.05.391,task,2021.1.4,Win32,59.61607249,6299f149e92ead563fba08ef,62a445238243bc97e1b46759,lbvc,"[""l"",""b"",""v"",""c""]","[0.7863999999761546,1.23279999995232,1.5428999999761572,1.7885999999046334,2.5146999999284816]",1,LBVC,4,0,4,0,1,,,,,,,,,,,,,,,,,,,,,,,,,,,,,,,,,,,,,,,,,,,,,,,,,,,,,,,,,,,,,,,,,,,,,,,,,,,,,,,,,,,,,,,,,,,
,,,,,,0,0,0,0,1,X V Q F H G B L J M P D K C T S W R N Z,5fa925f7a78e1e0008f13a21,24,Mężczyzna,2022-06-11_09h33.05.391,task,2021.1.4,Win32,59.61607249,6299f149e92ead563fba08ef,62a445238243bc97e1b46759,,,,,,,,,,,,,,,,,,,,,,,,,,,,,,,,,,,,,,,,,,,,,,,,,,,,,,,,,,,,,,,,,,,,,,,,,,,,,,,,,,,,,,,,,,,,,,,,,,,,,
,,,,,,1,0,1,0,1,X V Q F H G B L J M P D K C T S W R N Z,5fa925f7a78e1e0008f13a21,24,Mężczyzna,2022-06-11_09h33.05.391,task,2021.1.4,Win32,59.61607249,6299f149e92ead563fba08ef,62a445238243bc97e1b46759,,,,,,,,,,,,,,,,,,,,,,,,,,,,,,,,,,,,,,,,,,,,,,,,,,,,,,,,,,,,,,,,,,,,,,,,,,,,,,,,,,,,,,,,,,,,,,,,,,,,,
,,,,,,2,0,2,0,1,X V Q F H G B L J M P D K C T S W R N Z,5fa925f7a78e1e0008f13a21,24,Mężczyzna,2022-06-11_09h33.05.391,task,2021.1.4,Win32,59.61607249,6299f149e92ead563fba08ef,62a445238243bc97e1b46759,,,,,,,,,,,,,,,,,,,,,,,,,,,,,,,,,,,,,,,,,,,,,,,,,,,,,,,,,,,,,,,,,,,,,,,,,,,,,,,,,,,,,,,,,,,,,,,,,,,,,
,,,,,,3,0,3,0,1,X V Q F H G B L J M P D K C T S W R N Z,5fa925f7a78e1e0008f13a21,24,Mężczyzna,2022-06-11_09h33.05.391,task,2021.1.4,Win32,59.61607249,6299f149e92ead563fba08ef,62a445238243bc97e1b46759,,,,,,,,,,,,,,,,,,,,,,,,,,,,,,,,,,,,,,,,,,,,,,,,,,,,,,,,,,,,,,,,,,,,,,,,,,,,,,,,,,,,,,,,,,,,,,,,,,,,,
,,,,,,,,,,,,5fa925f7a78e1e0008f13a21,24,Mężczyzna,2022-06-11_09h33.05.391,task,2021.1.4,Win32,59.61607249,6299f149e92ead563fba08ef,62a445238243bc97e1b46759,sxmx,"[""s"",""x"",""m"",""x""]","[1.1366000000238472,1.3582000000476881,1.5573000000715354,1.7876000000238434,2.0147000000476964]",1,SXMX,5,0,5,0,1,,,,,,,,,,,,,,,,,,,,,,,,,,,,,,,,,,,,,,,,,,,,,,,,,,,,,,,,,,,,,,,,,,,,,,,,,,,,,,,,,,,,,,,,,,,
,,,,,,0,0,0,0,1,X V Q F H G B L J M P D K C T S W R N Z,5fa925f7a78e1e0008f13a21,24,Mężczyzna,2022-06-11_09h33.05.391,task,2021.1.4,Win32,59.61607249,6299f149e92ead563fba08ef,62a445238243bc97e1b46759,,,,,,,,,,,,,,,,,,,,,,,,,,,,,,,,,,,,,,,,,,,,,,,,,,,,,,,,,,,,,,,,,,,,,,,,,,,,,,,,,,,,,,,,,,,,,,,,,,,,,
,,,,,,1,0,1,0,1,X V Q F H G B L J M P D K C T S W R N Z,5fa925f7a78e1e0008f13a21,24,Mężczyzna,2022-06-11_09h33.05.391,task,2021.1.4,Win32,59.61607249,6299f149e92ead563fba08ef,62a445238243bc97e1b46759,,,,,,,,,,,,,,,,,,,,,,,,,,,,,,,,,,,,,,,,,,,,,,,,,,,,,,,,,,,,,,,,,,,,,,,,,,,,,,,,,,,,,,,,,,,,,,,,,,,,,
,,,,,,2,0,2,0,1,X V Q F H G B L J M P D K C T S W R N Z,5fa925f7a78e1e0008f13a21,24,Mężczyzna,2022-06-11_09h33.05.391,task,2021.1.4,Win32,59.61607249,6299f149e92ead563fba08ef,62a445238243bc97e1b46759,,,,,,,,,,,,,,,,,,,,,,,,,,,,,,,,,,,,,,,,,,,,,,,,,,,,,,,,,,,,,,,,,,,,,,,,,,,,,,,,,,,,,,,,,,,,,,,,,,,,,
,,,,,,3,0,3,0,1,X V Q F H G B L J M P D K C T S W R N Z,5fa925f7a78e1e0008f13a21,24,Mężczyzna,2022-06-11_09h33.05.391,task,2021.1.4,Win32,59.61607249,6299f149e92ead563fba08ef,62a445238243bc97e1b46759,,,,,,,,,,,,,,,,,,,,,,,,,,,,,,,,,,,,,,,,,,,,,,,,,,,,,,,,,,,,,,,,,,,,,,,,,,,,,,,,,,,,,,,,,,,,,,,,,,,,,
,,,,,,4,0,4,0,1,X V Q F H G B L J M P D K C T S W R N Z,5fa925f7a78e1e0008f13a21,24,Mężczyzna,2022-06-11_09h33.05.391,task,2021.1.4,Win32,59.61607249,6299f149e92ead563fba08ef,62a445238243bc97e1b46759,,,,,,,,,,,,,,,,,,,,,,,,,,,,,,,,,,,,,,,,,,,,,,,,,,,,,,,,,,,,,,,,,,,,,,,,,,,,,,,,,,,,,,,,,,,,,,,,,,,,,
,,,,,,,,,,,,5fa925f7a78e1e0008f13a21,24,Mężczyzna,2022-06-11_09h33.05.391,task,2021.1.4,Win32,59.61607249,6299f149e92ead563fba08ef,62a445238243bc97e1b46759,qqdxr,"[""q"",""q"",""d"",""x"",""r""]","[0.6923999999761605,0.8881000000238402,1.6767000000476742,2.0148999999761514,2.458500000000001,2.736300000071523]",1,QQDXR,6,0,6,0,1,,,,,,,,,,,,,,,,,,,,,,,,,,,,,,,,,,,,,,,,,,,,,,,,,,,,,,,,,,,,,,,,,,,,,,,,,,,,,,,,,,,,,,,,,,,
,,,,,,0,0,0,0,1,X V Q F H G B L J M P D K C T S W R N Z,5fa925f7a78e1e0008f13a21,24,Mężczyzna,2022-06-11_09h33.05.391,task,2021.1.4,Win32,59.61607249,6299f149e92ead563fba08ef,62a445238243bc97e1b46759,,,,,,,,,,,,,,,,,,,,,,,,,,,,,,,,,,,,,,,,,,,,,,,,,,,,,,,,,,,,,,,,,,,,,,,,,,,,,,,,,,,,,,,,,,,,,,,,,,,,,
,,,,,,1,0,1,0,1,X V Q F H G B L J M P D K C T S W R N Z,5fa925f7a78e1e0008f13a21,24,Mężczyzna,2022-06-11_09h33.05.391,task,2021.1.4,Win32,59.61607249,6299f149e92ead563fba08ef,62a445238243bc97e1b46759,,,,,,,,,,,,,,,,,,,,,,,,,,,,,,,,,,,,,,,,,,,,,,,,,,,,,,,,,,,,,,,,,,,,,,,,,,,,,,,,,,,,,,,,,,,,,,,,,,,,,
,,,,,,2,0,2,0,1,X V Q F H G B L J M P D K C T S W R N Z,5fa925f7a78e1e0008f13a21,24,Mężczyzna,2022-06-11_09h33.05.391,task,2021.1.4,Win32,59.61607249,6299f149e92ead563fba08ef,62a445238243bc97e1b46759,,,,,,,,,,,,,,,,,,,,,,,,,,,,,,,,,,,,,,,,,,,,,,,,,,,,,,,,,,,,,,,,,,,,,,,,,,,,,,,,,,,,,,,,,,,,,,,,,,,,,
,,,,,,3,0,3,0,1,X V Q F H G B L J M P D K C T S W R N Z,5fa925f7a78e1e0008f13a21,24,Mężczyzna,2022-06-11_09h33.05.391,task,2021.1.4,Win32,59.61607249,6299f149e92ead563fba08ef,62a445238243bc97e1b46759,,,,,,,,,,,,,,,,,,,,,,,,,,,,,,,,,,,,,,,,,,,,,,,,,,,,,,,,,,,,,,,,,,,,,,,,,,,,,,,,,,,,,,,,,,,,,,,,,,,,,
,,,,,,4,0,4,0,1,X V Q F H G B L J M P D K C T S W R N Z,5fa925f7a78e1e0008f13a21,24,Mężczyzna,2022-06-11_09h33.05.391,task,2021.1.4,Win32,59.61607249,6299f149e92ead563fba08ef,62a445238243bc97e1b46759,,,,,,,,,,,,,,,,,,,,,,,,,,,,,,,,,,,,,,,,,,,,,,,,,,,,,,,,,,,,,,,,,,,,,,,,,,,,,,,,,,,,,,,,,,,,,,,,,,,,,
,,,,,,,,,,,,5fa925f7a78e1e0008f13a21,24,Mężczyzna,2022-06-11_09h33.05.391,task,2021.1.4,Win32,59.61607249,6299f149e92ead563fba08ef,62a445238243bc97e1b46759,htbgs,"[""h"",""t"",""b"",""g"",""s""]","[3.136300000071529,3.4980000000000047,3.7477000000476863,4.014499999999998,4.615600000023846,5.048000000000002]",1,HTBGS,7,0,7,0,1,,,,,,,,,,,,,,,,,,,,,,,,,,,,,,,,,,,,,,,,,,,,,,,,,,,,,,,,,,,,,,,,,,,,,,,,,,,,,,,,,,,,,,,,,,,
,,,,,,0,0,0,0,1,X V Q F H G B L J M P D K C T S W R N Z,5fa925f7a78e1e0008f13a21,24,Mężczyzna,2022-06-11_09h33.05.391,task,2021.1.4,Win32,59.61607249,6299f149e92ead563fba08ef,62a445238243bc97e1b46759,,,,,,,,,,,,,,,,,,,,,,,,,,,,,,,,,,,,,,,,,,,,,,,,,,,,,,,,,,,,,,,,,,,,,,,,,,,,,,,,,,,,,,,,,,,,,,,,,,,,,
,,,,,,1,0,1,0,1,X V Q F H G B L J M P D K C T S W R N Z,5fa925f7a78e1e0008f13a21,24,Mężczyzna,2022-06-11_09h33.05.391,task,2021.1.4,Win32,59.61607249,6299f149e92ead563fba08ef,62a445238243bc97e1b46759,,,,,,,,,,,,,,,,,,,,,,,,,,,,,,,,,,,,,,,,,,,,,,,,,,,,,,,,,,,,,,,,,,,,,,,,,,,,,,,,,,,,,,,,,,,,,,,,,,,,,
,,,,,,2,0,2,0,1,X V Q F H G B L J M P D K C T S W R N Z,5fa925f7a78e1e0008f13a21,24,Mężczyzna,2022-06-11_09h33.05.391,task,2021.1.4,Win32,59.61607249,6299f149e92ead563fba08ef,62a445238243bc97e1b46759,,,,,,,,,,,,,,,,,,,,,,,,,,,,,,,,,,,,,,,,,,,,,,,,,,,,,,,,,,,,,,,,,,,,,,,,,,,,,,,,,,,,,,,,,,,,,,,,,,,,,
,,,,,,3,0,3,0,1,X V Q F H G B L J M P D K C T S W R N Z,5fa925f7a78e1e0008f13a21,24,Mężczyzna,2022-06-11_09h33.05.391,task,2021.1.4,Win32,59.61607249,6299f149e92ead563fba08ef,62a445238243bc97e1b46759,,,,,,,,,,,,,,,,,,,,,,,,,,,,,,,,,,,,,,,,,,,,,,,,,,,,,,,,,,,,,,,,,,,,,,,,,,,,,,,,,,,,,,,,,,,,,,,,,,,,,
,,,,,,4,0,4,0,1,X V Q F H G B L J M P D K C T S W R N Z,5fa925f7a78e1e0008f13a21,24,Mężczyzna,2022-06-11_09h33.05.391,task,2021.1.4,Win32,59.61607249,6299f149e92ead563fba08ef,62a445238243bc97e1b46759,,,,,,,,,,,,,,,,,,,,,,,,,,,,,,,,,,,,,,,,,,,,,,,,,,,,,,,,,,,,,,,,,,,,,,,,,,,,,,,,,,,,,,,,,,,,,,,,,,,,,
,,,,,,5,0,5,0,1,X V Q F H G B L J M P D K C T S W R N Z,5fa925f7a78e1e0008f13a21,24,Mężczyzna,2022-06-11_09h33.05.391,task,2021.1.4,Win32,59.61607249,6299f149e92ead563fba08ef,62a445238243bc97e1b46759,,,,,,,,,,,,,,,,,,,,,,,,,,,,,,,,,,,,,,,,,,,,,,,,,,,,,,,,,,,,,,,,,,,,,,,,,,,,,,,,,,,,,,,,,,,,,,,,,,,,,
,,,,,,,,,,,,5fa925f7a78e1e0008f13a21,24,Mężczyzna,2022-06-11_09h33.05.391,task,2021.1.4,Win32,59.61607249,6299f149e92ead563fba08ef,62a445238243bc97e1b46759,fhgczj,"[""f"",""h"",""g"",""c"",""z"",""j""]","[1.054100000023837,1.5058999999761653,2.051399999976155,2.4994999999999976,3.0217999999523215,3.8397999999523194,4.257600000023842]",1,FHGCZJ,8,0,8,0,1,,,,,,,,,,,,,,,,,,,,,,,,,,,,,,,,,,,,,,,,,,,,,,,,,,,,,,,,,,,,,,,,,,,,,,,,,,,,,,,,,,,,,,,,,,,
,,,,,,0,0,0,0,1,X V Q F H G B L J M P D K C T S W R N Z,5fa925f7a78e1e0008f13a21,24,Mężczyzna,2022-06-11_09h33.05.391,task,2021.1.4,Win32,59.61607249,6299f149e92ead563fba08ef,62a445238243bc97e1b46759,,,,,,,,,,,,,,,,,,,,,,,,,,,,,,,,,,,,,,,,,,,,,,,,,,,,,,,,,,,,,,,,,,,,,,,,,,,,,,,,,,,,,,,,,,,,,,,,,,,,,
,,,,,,1,0,1,0,1,X V Q F H G B L J M P D K C T S W R N Z,5fa925f7a78e1e0008f13a21,24,Mężczyzna,2022-06-11_09h33.05.391,task,2021.1.4,Win32,59.61607249,6299f149e92ead563fba08ef,62a445238243bc97e1b46759,,,,,,,,,,,,,,,,,,,,,,,,,,,,,,,,,,,,,,,,,,,,,,,,,,,,,,,,,,,,,,,,,,,,,,,,,,,,,,,,,,,,,,,,,,,,,,,,,,,,,
,,,,,,2,0,2,0,1,X V Q F H G B L J M P D K C T S W R N Z,5fa925f7a78e1e0008f13a21,24,Mężczyzna,2022-06-11_09h33.05.391,task,2021.1.4,Win32,59.61607249,6299f149e92ead563fba08ef,62a445238243bc97e1b46759,,,,,,,,,,,,,,,,,,,,,,,,,,,,,,,,,,,,,,,,,,,,,,,,,,,,,,,,,,,,,,,,,,,,,,,,,,,,,,,,,,,,,,,,,,,,,,,,,,,,,
,,,,,,3,0,3,0,1,X V Q F H G B L J M P D K C T S W R N Z,5fa925f7a78e1e0008f13a21,24,Mężczyzna,2022-06-11_09h33.05.391,task,2021.1.4,Win32,59.61607249,6299f149e92ead563fba08ef,62a445238243bc97e1b46759,,,,,,,,,,,,,,,,,,,,,,,,,,,,,,,,,,,,,,,,,,,,,,,,,,,,,,,,,,,,,,,,,,,,,,,,,,,,,,,,,,,,,,,,,,,,,,,,,,,,,
,,,,,,4,0,4,0,1,X V Q F H G B L J M P D K C T S W R N Z,5fa925f7a78e1e0008f13a21,24,Mężczyzna,2022-06-11_09h33.05.391,task,2021.1.4,Win32,59.61607249,6299f149e92ead563fba08ef,62a445238243bc97e1b46759,,,,,,,,,,,,,,,,,,,,,,,,,,,,,,,,,,,,,,,,,,,,,,,,,,,,,,,,,,,,,,,,,,,,,,,,,,,,,,,,,,,,,,,,,,,,,,,,,,,,,
,,,,,,5,0,5,0,1,X V Q F H G B L J M P D K C T S W R N Z,5fa925f7a78e1e0008f13a21,24,Mężczyzna,2022-06-11_09h33.05.391,task,2021.1.4,Win32,59.61607249,6299f149e92ead563fba08ef,62a445238243bc97e1b46759,,,,,,,,,,,,,,,,,,,,,,,,,,,,,,,,,,,,,,,,,,,,,,,,,,,,,,,,,,,,,,,,,,,,,,,,,,,,,,,,,,,,,,,,,,,,,,,,,,,,,
,,,,,,,,,,,,5fa925f7a78e1e0008f13a21,24,Mężczyzna,2022-06-11_09h33.05.391,task,2021.1.4,Win32,59.61607249,6299f149e92ead563fba08ef,62a445238243bc97e1b46759,svtkbg,"[""s"",""v"",""t"",""k"",""b"",""g""]","[1.4003000000715247,1.9671000000238337,5.905899999976157,6.437700000047698,7.137399999976168,8.62689999997616,9.009100000023835]",0,SVTKFB,9,0,9,0,1,,,,,,,,,,,,,,,,,,,,,,,,,,,,,,,,,,,,,,,,,,,,,,,,,,,,,,,,,,,,,,,,,,,,,,,,,,,,,,,,,,,,,,,,,,,
,,,,,,0,0,0,0,1,X V Q F H G B L J M P D K C T S W R N Z,5fa925f7a78e1e0008f13a21,24,Mężczyzna,2022-06-11_09h33.05.391,task,2021.1.4,Win32,59.61607249,6299f149e92ead563fba08ef,62a445238243bc97e1b46759,,,,,,,,,,,,,,,,,,,,,,,,,,,,,,,,,,,,,,,,,,,,,,,,,,,,,,,,,,,,,,,,,,,,,,,,,,,,,,,,,,,,,,,,,,,,,,,,,,,,,
,,,,,,1,0,1,0,1,X V Q F H G B L J M P D K C T S W R N Z,5fa925f7a78e1e0008f13a21,24,Mężczyzna,2022-06-11_09h33.05.391,task,2021.1.4,Win32,59.61607249,6299f149e92ead563fba08ef,62a445238243bc97e1b46759,,,,,,,,,,,,,,,,,,,,,,,,,,,,,,,,,,,,,,,,,,,,,,,,,,,,,,,,,,,,,,,,,,,,,,,,,,,,,,,,,,,,,,,,,,,,,,,,,,,,,
,,,,,,2,0,2,0,1,X V Q F H G B L J M P D K C T S W R N Z,5fa925f7a78e1e0008f13a21,24,Mężczyzna,2022-06-11_09h33.05.391,task,2021.1.4,Win32,59.61607249,6299f149e92ead563fba08ef,62a445238243bc97e1b46759,,,,,,,,,,,,,,,,,,,,,,,,,,,,,,,,,,,,,,,,,,,,,,,,,,,,,,,,,,,,,,,,,,,,,,,,,,,,,,,,,,,,,,,,,,,,,,,,,,,,,
,,,,,,3,0,3,0,1,X V Q F H G B L J M P D K C T S W R N Z,5fa925f7a78e1e0008f13a21,24,Mężczyzna,2022-06-11_09h33.05.391,task,2021.1.4,Win32,59.61607249,6299f149e92ead563fba08ef,62a445238243bc97e1b46759,,,,,,,,,,,,,,,,,,,,,,,,,,,,,,,,,,,,,,,,,,,,,,,,,,,,,,,,,,,,,,,,,,,,,,,,,,,,,,,,,,,,,,,,,,,,,,,,,,,,,
,,,,,,4,0,4,0,1,X V Q F H G B L J M P D K C T S W R N Z,5fa925f7a78e1e0008f13a21,24,Mężczyzna,2022-06-11_09h33.05.391,task,2021.1.4,Win32,59.61607249,6299f149e92ead563fba08ef,62a445238243bc97e1b46759,,,,,,,,,,,,,,,,,,,,,,,,,,,,,,,,,,,,,,,,,,,,,,,,,,,,,,,,,,,,,,,,,,,,,,,,,,,,,,,,,,,,,,,,,,,,,,,,,,,,,
,,,,,,5,0,5,0,1,X V Q F H G B L J M P D K C T S W R N Z,5fa925f7a78e1e0008f13a21,24,Mężczyzna,2022-06-11_09h33.05.391,task,2021.1.4,Win32,59.61607249,6299f149e92ead563fba08ef,62a445238243bc97e1b46759,,,,,,,,,,,,,,,,,,,,,,,,,,,,,,,,,,,,,,,,,,,,,,,,,,,,,,,,,,,,,,,,,,,,,,,,,,,,,,,,,,,,,,,,,,,,,,,,,,,,,
,,,,,,,,,,,,5fa925f7a78e1e0008f13a21,24,Mężczyzna,2022-06-11_09h33.05.391,task,2021.1.4,Win32,59.61607249,6299f149e92ead563fba08ef,62a445238243bc97e1b46759,xgvvcr,"[""x"",""g"",""v"",""v"",""c"",""r""]","[1.440299999952316,1.9663999999761472,2.441799999952309,2.7161999999284774,3.0158999999761704,3.5660000000000025,6.565500000000014]",1,XGVVCR,10,0,10,0,1,,,,,,,,,,,,,,,,,,,,,,,,,,,,,,,,,,,,,,,,,,,,,,,,,,,,,,,,,,,,,,,,,,,,,,,,,,,,,,,,,,,,,,,,,,,
,,,,,,0,0,0,0,1,X V Q F H G B L J M P D K C T S W R N Z,5fa925f7a78e1e0008f13a21,24,Mężczyzna,2022-06-11_09h33.05.391,task,2021.1.4,Win32,59.61607249,6299f149e92ead563fba08ef,62a445238243bc97e1b46759,,,,,,,,,,,,,,,,,,,,,,,,,,,,,,,,,,,,,,,,,,,,,,,,,,,,,,,,,,,,,,,,,,,,,,,,,,,,,,,,,,,,,,,,,,,,,,,,,,,,,
,,,,,,1,0,1,0,1,X V Q F H G B L J M P D K C T S W R N Z,5fa925f7a78e1e0008f13a21,24,Mężczyzna,2022-06-11_09h33.05.391,task,2021.1.4,Win32,59.61607249,6299f149e92ead563fba08ef,62a445238243bc97e1b46759,,,,,,,,,,,,,,,,,,,,,,,,,,,,,,,,,,,,,,,,,,,,,,,,,,,,,,,,,,,,,,,,,,,,,,,,,,,,,,,,,,,,,,,,,,,,,,,,,,,,,
,,,,,,2,0,2,0,1,X V Q F H G B L J M P D K C T S W R N Z,5fa925f7a78e1e0008f13a21,24,Mężczyzna,2022-06-11_09h33.05.391,task,2021.1.4,Win32,59.61607249,6299f149e92ead563fba08ef,62a445238243bc97e1b46759,,,,,,,,,,,,,,,,,,,,,,,,,,,,,,,,,,,,,,,,,,,,,,,,,,,,,,,,,,,,,,,,,,,,,,,,,,,,,,,,,,,,,,,,,,,,,,,,,,,,,
,,,,,,3,0,3,0,1,X V Q F H G B L J M P D K C T S W R N Z,5fa925f7a78e1e0008f13a21,24,Mężczyzna,2022-06-11_09h33.05.391,task,2021.1.4,Win32,59.61607249,6299f149e92ead563fba08ef,62a445238243bc97e1b46759,,,,,,,,,,,,,,,,,,,,,,,,,,,,,,,,,,,,,,,,,,,,,,,,,,,,,,,,,,,,,,,,,,,,,,,,,,,,,,,,,,,,,,,,,,,,,,,,,,,,,
,,,,,,4,0,4,0,1,X V Q F H G B L J M P D K C T S W R N Z,5fa925f7a78e1e0008f13a21,24,Mężczyzna,2022-06-11_09h33.05.391,task,2021.1.4,Win32,59.61607249,6299f149e92ead563fba08ef,62a445238243bc97e1b46759,,,,,,,,,,,,,,,,,,,,,,,,,,,,,,,,,,,,,,,,,,,,,,,,,,,,,,,,,,,,,,,,,,,,,,,,,,,,,,,,,,,,,,,,,,,,,,,,,,,,,
,,,,,,5,0,5,0,1,X V Q F H G B L J M P D K C T S W R N Z,5fa925f7a78e1e0008f13a21,24,Mężczyzna,2022-06-11_09h33.05.391,task,2021.1.4,Win32,59.61607249,6299f149e92ead563fba08ef,62a445238243bc97e1b46759,,,,,,,,,,,,,,,,,,,,,,,,,,,,,,,,,,,,,,,,,,,,,,,,,,,,,,,,,,,,,,,,,,,,,,,,,,,,,,,,,,,,,,,,,,,,,,,,,,,,,
,,,,,,6,0,6,0,1,X V Q F H G B L J M P D K C T S W R N Z,5fa925f7a78e1e0008f13a21,24,Mężczyzna,2022-06-11_09h33.05.391,task,2021.1.4,Win32,59.61607249,6299f149e92ead563fba08ef,62a445238243bc97e1b46759,,,,,,,,,,,,,,,,,,,,,,,,,,,,,,,,,,,,,,,,,,,,,,,,,,,,,,,,,,,,,,,,,,,,,,,,,,,,,,,,,,,,,,,,,,,,,,,,,,,,,
,,,,,,,,,,,,5fa925f7a78e1e0008f13a21,24,Mężczyzna,2022-06-11_09h33.05.391,task,2021.1.4,Win32,59.61607249,6299f149e92ead563fba08ef,62a445238243bc97e1b46759,wvptq,"[""w"",""v"",""p"",""t"",""q""]","[1.3504000000953624,4.349200000047688,4.757000000000005,5.116100000023835,6.715499999999992,10.531400000095374]",0,WVPTQWJ,11,0,11,0,1,,,,,,,,,,,,,,,,,,,,,,,,,,,,,,,,,,,,,,,,,,,,,,,,,,,,,,,,,,,,,,,,,,,,,,,,,,,,,,,,,,,,,,,,,,,
,,,,,,0,0,0,0,1,X V Q F H G B L J M P D K C T S W R N Z,5fa925f7a78e1e0008f13a21,24,Mężczyzna,2022-06-11_09h33.05.391,task,2021.1.4,Win32,59.61607249,6299f149e92ead563fba08ef,62a445238243bc97e1b46759,,,,,,,,,,,,,,,,,,,,,,,,,,,,,,,,,,,,,,,,,,,,,,,,,,,,,,,,,,,,,,,,,,,,,,,,,,,,,,,,,,,,,,,,,,,,,,,,,,,,,
,,,,,,1,0,1,0,1,X V Q F H G B L J M P D K C T S W R N Z,5fa925f7a78e1e0008f13a21,24,Mężczyzna,2022-06-11_09h33.05.391,task,2021.1.4,Win32,59.61607249,6299f149e92ead563fba08ef,62a445238243bc97e1b46759,,,,,,,,,,,,,,,,,,,,,,,,,,,,,,,,,,,,,,,,,,,,,,,,,,,,,,,,,,,,,,,,,,,,,,,,,,,,,,,,,,,,,,,,,,,,,,,,,,,,,
,,,,,,2,0,2,0,1,X V Q F H G B L J M P D K C T S W R N Z,5fa925f7a78e1e0008f13a21,24,Mężczyzna,2022-06-11_09h33.05.391,task,2021.1.4,Win32,59.61607249,6299f149e92ead563fba08ef,62a445238243bc97e1b46759,,,,,,,,,,,,,,,,,,,,,,,,,,,,,,,,,,,,,,,,,,,,,,,,,,,,,,,,,,,,,,,,,,,,,,,,,,,,,,,,,,,,,,,,,,,,,,,,,,,,,
,,,,,,3,0,3,0,1,X V Q F H G B L J M P D K C T S W R N Z,5fa925f7a78e1e0008f13a21,24,Mężczyzna,2022-06-11_09h33.05.391,task,2021.1.4,Win32,59.61607249,6299f149e92ead563fba08ef,62a445238243bc97e1b46759,,,,,,,,,,,,,,,,,,,,,,,,,,,,,,,,,,,,,,,,,,,,,,,,,,,,,,,,,,,,,,,,,,,,,,,,,,,,,,,,,,,,,,,,,,,,,,,,,,,,,
,,,,,,4,0,4,0,1,X V Q F H G B L J M P D K C T S W R N Z,5fa925f7a78e1e0008f13a21,24,Mężczyzna,2022-06-11_09h33.05.391,task,2021.1.4,Win32,59.61607249,6299f149e92ead563fba08ef,62a445238243bc97e1b46759,,,,,,,,,,,,,,,,,,,,,,,,,,,,,,,,,,,,,,,,,,,,,,,,,,,,,,,,,,,,,,,,,,,,,,,,,,,,,,,,,,,,,,,,,,,,,,,,,,,,,
,,,,,,5,0,5,0,1,X V Q F H G B L J M P D K C T S W R N Z,5fa925f7a78e1e0008f13a21,24,Mężczyzna,2022-06-11_09h33.05.391,task,2021.1.4,Win32,59.61607249,6299f149e92ead563fba08ef,62a445238243bc97e1b46759,,,,,,,,,,,,,,,,,,,,,,,,,,,,,,,,,,,,,,,,,,,,,,,,,,,,,,,,,,,,,,,,,,,,,,,,,,,,,,,,,,,,,,,,,,,,,,,,,,,,,
,,,,,,6,0,6,0,1,X V Q F H G B L J M P D K C T S W R N Z,5fa925f7a78e1e0008f13a21,24,Mężczyzna,2022-06-11_09h33.05.391,task,2021.1.4,Win32,59.61607249,6299f149e92ead563fba08ef,62a445238243bc97e1b46759,,,,,,,,,,,,,,,,,,,,,,,,,,,,,,,,,,,,,,,,,,,,,,,,,,,,,,,,,,,,,,,,,,,,,,,,,,,,,,,,,,,,,,,,,,,,,,,,,,,,,
,,,,,,,,,,,,5fa925f7a78e1e0008f13a21,24,Mężczyzna,2022-06-11_09h33.05.391,task,2021.1.4,Win32,59.61607249,6299f149e92ead563fba08ef,62a445238243bc97e1b46759,wchglxm,"[""w"",""c"",""h"",""g"",""l"",""x"",""m""]","[1.026700000047697,1.3833999999761772,2.066700000047689,2.333899999976154,2.7660000000000196,3.6253999999761675,4.140600000023852,5.4254999999999995]",1,WCHGLXM,12,0,12,0,1,,,,,,,,,,,,,,,,,,,,,,,,,,,,,,,,,,,,,,,,,,,,,,,,,,,,,,,,,,,,,,,,,,,,,,,,,,,,,,,,,,,,,,,,,,,
,,,,,,0,0,0,0,1,X V Q F H G B L J M P D K C T S W R N Z,5fa925f7a78e1e0008f13a21,24,Mężczyzna,2022-06-11_09h33.05.391,task,2021.1.4,Win32,59.61607249,6299f149e92ead563fba08ef,62a445238243bc97e1b46759,,,,,,,,,,,,,,,,,,,,,,,,,,,,,,,,,,,,,,,,,,,,,,,,,,,,,,,,,,,,,,,,,,,,,,,,,,,,,,,,,,,,,,,,,,,,,,,,,,,,,
,,,,,,1,0,1,0,1,X V Q F H G B L J M P D K C T S W R N Z,5fa925f7a78e1e0008f13a21,24,Mężczyzna,2022-06-11_09h33.05.391,task,2021.1.4,Win32,59.61607249,6299f149e92ead563fba08ef,62a445238243bc97e1b46759,,,,,,,,,,,,,,,,,,,,,,,,,,,,,,,,,,,,,,,,,,,,,,,,,,,,,,,,,,,,,,,,,,,,,,,,,,,,,,,,,,,,,,,,,,,,,,,,,,,,,
,,,,,,2,0,2,0,1,X V Q F H G B L J M P D K C T S W R N Z,5fa925f7a78e1e0008f13a21,24,Mężczyzna,2022-06-11_09h33.05.391,task,2021.1.4,Win32,59.61607249,6299f149e92ead563fba08ef,62a445238243bc97e1b46759,,,,,,,,,,,,,,,,,,,,,,,,,,,,,,,,,,,,,,,,,,,,,,,,,,,,,,,,,,,,,,,,,,,,,,,,,,,,,,,,,,,,,,,,,,,,,,,,,,,,,
,,,,,,3,0,3,0,1,X V Q F H G B L J M P D K C T S W R N Z,5fa925f7a78e1e0008f13a21,24,Mężczyzna,2022-06-11_09h33.05.391,task,2021.1.4,Win32,59.61607249,6299f149e92ead563fba08ef,62a445238243bc97e1b46759,,,,,,,,,,,,,,,,,,,,,,,,,,,,,,,,,,,,,,,,,,,,,,,,,,,,,,,,,,,,,,,,,,,,,,,,,,,,,,,,,,,,,,,,,,,,,,,,,,,,,
,,,,,,4,0,4,0,1,X V Q F H G B L J M P D K C T S W R N Z,5fa925f7a78e1e0008f13a21,24,Mężczyzna,2022-06-11_09h33.05.391,task,2021.1.4,Win32,59.61607249,6299f149e92ead563fba08ef,62a445238243bc97e1b46759,,,,,,,,,,,,,,,,,,,,,,,,,,,,,,,,,,,,,,,,,,,,,,,,,,,,,,,,,,,,,,,,,,,,,,,,,,,,,,,,,,,,,,,,,,,,,,,,,,,,,
,,,,,,5,0,5,0,1,X V Q F H G B L J M P D K C T S W R N Z,5fa925f7a78e1e0008f13a21,24,Mężczyzna,2022-06-11_09h33.05.391,task,2021.1.4,Win32,59.61607249,6299f149e92ead563fba08ef,62a445238243bc97e1b46759,,,,,,,,,,,,,,,,,,,,,,,,,,,,,,,,,,,,,,,,,,,,,,,,,,,,,,,,,,,,,,,,,,,,,,,,,,,,,,,,,,,,,,,,,,,,,,,,,,,,,
,,,,,,6,0,6,0,1,X V Q F H G B L J M P D K C T S W R N Z,5fa925f7a78e1e0008f13a21,24,Mężczyzna,2022-06-11_09h33.05.391,task,2021.1.4,Win32,59.61607249,6299f149e92ead563fba08ef,62a445238243bc97e1b46759,,,,,,,,,,,,,,,,,,,,,,,,,,,,,,,,,,,,,,,,,,,,,,,,,,,,,,,,,,,,,,,,,,,,,,,,,,,,,,,,,,,,,,,,,,,,,,,,,,,,,
,,,,,,,,,,,,5fa925f7a78e1e0008f13a21,24,Mężczyzna,2022-06-11_09h33.05.391,task,2021.1.4,Win32,59.61607249,6299f149e92ead563fba08ef,62a445238243bc97e1b46759,w,"[""w""]","[1.8776000000238469,2.3846999999285003]",0,SXZNBZD,13,0,13,0,1,,,,,,,,,,,,,,,,,,,,,,,,,,,,,,,,,,,,,,,,,,,,,,,,,,,,,,,,,,,,,,,,,,,,,,,,,,,,,,,,,,,,,,,,,,,
,,,,,,0,0,0,0,1,X V Q F H G B L J M P D K C T S W R N Z,5fa925f7a78e1e0008f13a21,24,Mężczyzna,2022-06-11_09h33.05.391,task,2021.1.4,Win32,59.61607249,6299f149e92ead563fba08ef,62a445238243bc97e1b46759,,,,,,,,,,,,,,,,,,,,,,,,,,,,,,,,,,,,,,,,,,,,,,,,,,,,,,,,,,,,,,,,,,,,,,,,,,,,,,,,,,,,,,,,,,,,,,,,,,,,,
,,,,,,1,0,1,0,1,X V Q F H G B L J M P D K C T S W R N Z,5fa925f7a78e1e0008f13a21,24,Mężczyzna,2022-06-11_09h33.05.391,task,2021.1.4,Win32,59.61607249,6299f149e92ead563fba08ef,62a445238243bc97e1b46759,,,,,,,,,,,,,,,,,,,,,,,,,,,,,,,,,,,,,,,,,,,,,,,,,,,,,,,,,,,,,,,,,,,,,,,,,,,,,,,,,,,,,,,,,,,,,,,,,,,,,
,,,,,,2,0,2,0,1,X V Q F H G B L J M P D K C T S W R N Z,5fa925f7a78e1e0008f13a21,24,Mężczyzna,2022-06-11_09h33.05.391,task,2021.1.4,Win32,59.61607249,6299f149e92ead563fba08ef,62a445238243bc97e1b46759,,,,,,,,,,,,,,,,,,,,,,,,,,,,,,,,,,,,,,,,,,,,,,,,,,,,,,,,,,,,,,,,,,,,,,,,,,,,,,,,,,,,,,,,,,,,,,,,,,,,,
,,,,,,3,0,3,0,1,X V Q F H G B L J M P D K C T S W R N Z,5fa925f7a78e1e0008f13a21,24,Mężczyzna,2022-06-11_09h33.05.391,task,2021.1.4,Win32,59.61607249,6299f149e92ead563fba08ef,62a445238243bc97e1b46759,,,,,,,,,,,,,,,,,,,,,,,,,,,,,,,,,,,,,,,,,,,,,,,,,,,,,,,,,,,,,,,,,,,,,,,,,,,,,,,,,,,,,,,,,,,,,,,,,,,,,
,,,,,,4,0,4,0,1,X V Q F H G B L J M P D K C T S W R N Z,5fa925f7a78e1e0008f13a21,24,Mężczyzna,2022-06-11_09h33.05.391,task,2021.1.4,Win32,59.61607249,6299f149e92ead563fba08ef,62a445238243bc97e1b46759,,,,,,,,,,,,,,,,,,,,,,,,,,,,,,,,,,,,,,,,,,,,,,,,,,,,,,,,,,,,,,,,,,,,,,,,,,,,,,,,,,,,,,,,,,,,,,,,,,,,,
,,,,,,5,0,5,0,1,X V Q F H G B L J M P D K C T S W R N Z,5fa925f7a78e1e0008f13a21,24,Mężczyzna,2022-06-11_09h33.05.391,task,2021.1.4,Win32,59.61607249,6299f149e92ead563fba08ef,62a445238243bc97e1b46759,,,,,,,,,,,,,,,,,,,,,,,,,,,,,,,,,,,,,,,,,,,,,,,,,,,,,,,,,,,,,,,,,,,,,,,,,,,,,,,,,,,,,,,,,,,,,,,,,,,,,
,,,,,,6,0,6,0,1,X V Q F H G B L J M P D K C T S W R N Z,5fa925f7a78e1e0008f13a21,24,Mężczyzna,2022-06-11_09h33.05.391,task,2021.1.4,Win32,59.61607249,6299f149e92ead563fba08ef,62a445238243bc97e1b46759,,,,,,,,,,,,,,,,,,,,,,,,,,,,,,,,,,,,,,,,,,,,,,,,,,,,,,,,,,,,,,,,,,,,,,,,,,,,,,,,,,,,,,,,,,,,,,,,,,,,,
,,,,,,,,,,,,5fa925f7a78e1e0008f13a21,24,Mężczyzna,2022-06-11_09h33.05.391,task,2021.1.4,Win32,59.61607249,6299f149e92ead563fba08ef,62a445238243bc97e1b46759,wwznt,"[""w"",""w"",""z"",""n"",""t""]","[2.023399999976135,2.4188999999761336,2.916699999928454,3.386199999928465,3.9892999999522942,4.766399999976159]",0,WWNZTNF,14,0,14,0,1,,,,,,,,,,,,,,,,,,,,,,,,,,,,,,,,,,,,,,,,,,,,,,,,,,,,,,,,,,,,,,,,,,,,,,,,,,,,,,,,,,,,,,,,,,,
,,,,,,,,,,,,5fa925f7a78e1e0008f13a21,24,Mężczyzna,2022-06-11_09h33.05.391,task,2021.1.4,Win32,59.61607249,6299f149e92ead563fba08ef,62a445238243bc97e1b46759,,,,,,,,,,,space,130.3817,2,"[""2""]",1,[3.9444000000954134],[3.9444000000954134],0,0,0,2,1,Practice,3,(4x4) - 14,2,,,,,,,,,,,,,,,,,,,,,,,,,,,,,,,,,,,,,,,,,,,,,,,,,,,,,,,,,,,,,,,,,,,,,,,,,,,
,,,,,,,,,,,,5fa925f7a78e1e0008f13a21,24,Mężczyzna,2022-06-11_09h33.05.391,task,2021.1.4,Win32,59.61607249,6299f149e92ead563fba08ef,62a445238243bc97e1b46759,,,,,,,,,,,,,9,"[""9""]",1,[3.016600000023857],"[3.9444000000954134,3.016600000023857]",0,1,1,9,1,Practice,10,(20/2) - 1,9,,,,,,,,,,,,,,,,,,,,,,,,,,,,,,,,,,,,,,,,,,,,,,,,,,,,,,,,,,,,,,,,,,,,,,,,,,,
,,,,,,,,,,,,5fa925f7a78e1e0008f13a21,24,Mężczyzna,2022-06-11_09h33.05.391,task,2021.1.4,Win32,59.61607249,6299f149e92ead563fba08ef,62a445238243bc97e1b46759,,,,,,,,,,,,,1,"[""1""]",1,[1.7434999999999832],"[3.9444000000954134,3.016600000023857,1.7434999999999832]",0,2,2,1,1,Practice,2,(4x4) - 15,1,,,,,,,,,,,,,,,,,,,,,,,,,,,,,,,,,,,,,,,,,,,,,,,,,,,,,,,,,,,,,,,,,,,,,,,,,,,
,,,,,,,,,,,,5fa925f7a78e1e0008f13a21,24,Mężczyzna,2022-06-11_09h33.05.391,task,2021.1.4,Win32,59.61607249,6299f149e92ead563fba08ef,62a445238243bc97e1b46759,,,,,,,,,,,,,3,"[""3""]",1,[3.0251000000238832],"[3.9444000000954134,3.016600000023857,1.7434999999999832,3.0251000000238832]",0,3,3,3,1,Practice,4,(8/4) + 1,3,,,,,,,,,,,,,,,,,,,,,,,,,,,,,,,,,,,,,,,,,,,,,,,,,,,,,,,,,,,,,,,,,,,,,,,,,,,
,,,,,,,,,,,,5fa925f7a78e1e0008f13a21,24,Mężczyzna,2022-06-11_09h33.05.391,task,2021.1.4,Win32,59.61607249,6299f149e92ead563fba08ef,62a445238243bc97e1b46759,,,,,,,,,,,,,7,"[""7""]",1,[4.132999999999981],"[3.9444000000954134,3.016600000023857,1.7434999999999832,3.0251000000238832,4.132999999999981]",0,4,4,7,1,Practice,8,(5x5) - 18,7,,,,,,,,,,,,,,,,,,,,,,,,,,,,,,,,,,,,,,,,,,,,,,,,,,,,,,,,,,,,,,,,,,,,,,,,,,,
,,,,,,,,,,,,5fa925f7a78e1e0008f13a21,24,Mężczyzna,2022-06-11_09h33.05.391,task,2021.1.4,Win32,59.61607249,6299f149e92ead563fba08ef,62a445238243bc97e1b46759,,,,,,,,,,,,,6,"[""6""]",1,[17.00390000009537],"[3.9444000000954134,3.016600000023857,1.7434999999999832,3.0251000000238832,4.132999999999981,17.00390000009537]",0,5,5,6,1,Practice,7,(25/5) + 1,6,,,,,,,,,,,,,,,,,,,,,,,,,,,,,,,,,,,,,,,,,,,,,,,,,,,,,,,,,,,,,,,,,,,,,,,,,,,
,,,,,,,,,,,,5fa925f7a78e1e0008f13a21,24,Mężczyzna,2022-06-11_09h33.05.391,task,2021.1.4,Win32,59.61607249,6299f149e92ead563fba08ef,62a445238243bc97e1b46759,,,,,,,,,,,,,5,"[""5""]",1,[14.155899999976157],"[3.9444000000954134,3.016600000023857,1.7434999999999832,3.0251000000238832,4.132999999999981,17.00390000009537,14.155899999976157]",0,6,6,5,1,Practice,6,(4/2) + 3,5,,,,,,,,,,,,,,,,,,,,,,,,,,,,,,,,,,,,,,,,,,,,,,,,,,,,,,,,,,,,,,,,,,,,,,,,,,,
,,,,,,,,,,,,5fa925f7a78e1e0008f13a21,24,Mężczyzna,2022-06-11_09h33.05.391,task,2021.1.4,Win32,59.61607249,6299f149e92ead563fba08ef,62a445238243bc97e1b46759,,,,,,,,,,,,,8,"[""8""]",1,[2.13539999997613],"[3.9444000000954134,3.016600000023857,1.7434999999999832,3.0251000000238832,4.132999999999981,17.00390000009537,14.155899999976157,2.13539999997613]",0,7,7,8,1,Practice,9,(3x3) - 1,8,,,,,,,,,,,,,,,,,,,,,,,,,,,,,,,,,,,,,,,,,,,,,,,,,,,,,,,,,,,,,,,,,,,,,,,,,,,
,,,,,,,,,,,,5fa925f7a78e1e0008f13a21,24,Mężczyzna,2022-06-11_09h33.05.391,task,2021.1.4,Win32,59.61607249,6299f149e92ead563fba08ef,62a445238243bc97e1b46759,,,,,,,,,,,,,0,"[""0""]",1,[2.1757999999523463],"[3.9444000000954134,3.016600000023857,1.7434999999999832,3.0251000000238832,4.132999999999981,17.00390000009537,14.155899999976157,2.13539999997613,2.1757999999523463]",0,8,8,0,1,Practice,1,(3x3) -  9,0,,,,,,,,,,,,,,,,,,,,,,,,,,,,,,,,,,,,,,,,,,,,,,,,,,,,,,,,,,,,,,,,,,,,,,,,,,,
,,,,,,,,,,,,5fa925f7a78e1e0008f13a21,24,Mężczyzna,2022-06-11_09h33.05.391,task,2021.1.4,Win32,59.61607249,6299f149e92ead563fba08ef,62a445238243bc97e1b46759,,,,,,,,,,,,,4,"[""4""]",1,[11.849799999952324],"[3.9444000000954134,3.016600000023857,1.7434999999999832,3.0251000000238832,4.132999999999981,17.00390000009537,14.155899999976157,2.13539999997613,2.1757999999523463,11.849799999952324]",0,9,9,4,1,Practice,5,(2x6) - 8,4,,,,,,,,,,,,,,,,,,,,,,,,,,,,,,,,,,,,,,,,,,,,,,,,,,,,,,,,,,,,,,,,,,,,,,,,,,,
,,,,,,,,,,,,5fa925f7a78e1e0008f13a21,24,Mężczyzna,2022-06-11_09h33.05.391,task,2021.1.4,Win32,59.61607249,6299f149e92ead563fba08ef,62a445238243bc97e1b46759,,,,,,,,,,,,,,,,,,,,,,,,,,,1,63.1834,4.212226667,338.3077272,4.749089226,16.46487687,space,82.7455,0,0,0,0,1,,,,,,,,,,,,,,,,,,,,,,,,,,,,,,,,,,,,,,,,,,,,,,,,,,,,,,,,,,,,,,
,,,,,,,,,,,,5fa925f7a78e1e0008f13a21,24,Mężczyzna,2022-06-11_09h33.05.391,task,2021.1.4,Win32,59.61607249,6299f149e92ead563fba08ef,62a445238243bc97e1b46759,,,,,,,,,,,,,1,,,,,,,,,,Practice,2,(4x4) - 15,1,,,,,,,,,,,,,,space,21.0638,"[""1""]",1,[3.39939999997614],1,0,0,0,1,1,,,,,,,,,,,,,,,,,,,,,,,,,,,,,,,,,,,,,,,,,,,,,,,,,,,
,,,,,,,,,,,X V Q F H G B L J M P D K C T S W R N Z,5fa925f7a78e1e0008f13a21,24,Mężczyzna,2022-06-11_09h33.05.391,task,2021.1.4,Win32,59.61607249,6299f149e92ead563fba08ef,62a445238243bc97e1b46759,,,,,,,,,,,,,,,,,,,,,,,,,,,,,,,,,,,,,,,,,,,,,,,,,,,0,0,0,0,1,,,,,,,,,,,,,,,,,,,,,,,,,,,,,,,,,,,,,,,,,,,,,,
,,,,,,,,,,,,5fa925f7a78e1e0008f13a21,24,Mężczyzna,2022-06-11_09h33.05.391,task,2021.1.4,Win32,59.61607249,6299f149e92ead563fba08ef,62a445238243bc97e1b46759,,,,,,,,,,,,,4,,,,,,,,,,Practice,5,(2x6) - 8,4,,,,,,,,,,,,,,,,"[""4""]",1,[5.850699999928452],1,0,0,0,4,1,,,,,,,,,,,,,,,,,,,,,,,,,,,,,,,,,,,,,,,,,,,,,,,,,,,
,,,,,,,,,,,X V Q F H G B L J M P D K C T S W R N Z,5fa925f7a78e1e0008f13a21,24,Mężczyzna,2022-06-11_09h33.05.391,task,2021.1.4,Win32,59.61607249,6299f149e92ead563fba08ef,62a445238243bc97e1b46759,,,,,,,,,,,,,,,,,,,,,,,,,,,,,,,,,,,,,,,,,,,,,,,,,,,1,0,1,0,1,,,,,,,,,,,,,,,,,,,,,,,,,,,,,,,,,,,,,,,,,,,,,,
,,,,,,,,,,,,5fa925f7a78e1e0008f13a21,24,Mężczyzna,2022-06-11_09h33.05.391,task,2021.1.4,Win32,59.61607249,6299f149e92ead563fba08ef,62a445238243bc97e1b46759,,,,,,,,,,,,,,,,,,,,,,,,,,,,,,,,,,,,,,,,,,,,,,,,,,,,,,,,zp,"[""z"",""p""]",0,"[1.8837999999523163,2.2173999999761236,2.8746999999284526]",1,0,0,0,0,1,,,,,,,,,,,,,,,,,,,,,,,,,,,,,,,,,,,,
,,,,,,,,,,,,5fa925f7a78e1e0008f13a21,24,Mężczyzna,2022-06-11_09h33.05.391,task,2021.1.4,Win32,59.61607249,6299f149e92ead563fba08ef,62a445238243bc97e1b46759,,,,,,,,,,,,,7,,,,,,,,,,Practice,8,(5x5) - 18,7,,,,,,,,,,,,,,,,"[""7""]",1,[9.890399999976125],1,0,0,0,7,1,,,,,,,,,,,,,,,,,,,,,,,,,,,,,,,,,,,,,,,,,,,,,,,,,,,
,,,,,,,,,,,X V Q F H G B L J M P D K C T S W R N Z,5fa925f7a78e1e0008f13a21,24,Mężczyzna,2022-06-11_09h33.05.391,task,2021.1.4,Win32,59.61607249,6299f149e92ead563fba08ef,62a445238243bc97e1b46759,,,,,,,,,,,,,,,,,,,,,,,,,,,,,,,,,,,,,,,,,,,,,,,,,,,0,0,0,0,1,,,,,,,,,,,,,,,,,,,,,,,,,,,,,,,,,,,,,,,,,,,,,,
,,,,,,,,,,,,5fa925f7a78e1e0008f13a21,24,Mężczyzna,2022-06-11_09h33.05.391,task,2021.1.4,Win32,59.61607249,6299f149e92ead563fba08ef,62a445238243bc97e1b46759,,,,,,,,,,,,,5,,,,,,,,,,Practice,4,(8/4) + 1,3,,,,,,,,,,,,,,,,"[""5""]",0,[3.169499999999971],0,0,0,0,3,1,,,,,,,,,,,,,,,,,,,,,,,,,,,,,,,,,,,,,,,,,,,,,,,,,,,
,,,,,,,,,,,,5fa925f7a78e1e0008f13a21,24,Mężczyzna,2022-06-11_09h33.05.391,task,2021.1.4,Win32,59.61607249,6299f149e92ead563fba08ef,62a445238243bc97e1b46759,,,,,,,,,,,,,7,,,,,,,,,,Practice,8,(5x5) - 18,7,,,,,,,,,,,,,,,,"[""7""]",1,[9.765600000023824],1,0,1,1,7,1,,,,,,,,,,,,,,,,,,,,,,,,,,,,,,,,,,,,,,,,,,,,,,,,,,,
,,,,,,,,,,,X V Q F H G B L J M P D K C T S W R N Z,5fa925f7a78e1e0008f13a21,24,Mężczyzna,2022-06-11_09h33.05.391,task,2021.1.4,Win32,59.61607249,6299f149e92ead563fba08ef,62a445238243bc97e1b46759,,,,,,,,,,,,,,,,,,,,,,,,,,,,,,,,,,,,,,,,,,,,,,,,,,,1,0,1,0,1,,,,,,,,,,,,,,,,,,,,,,,,,,,,,,,,,,,,,,,,,,,,,,
,,,,,,,,,,,,5fa925f7a78e1e0008f13a21,24,Mężczyzna,2022-06-11_09h33.05.391,task,2021.1.4,Win32,59.61607249,6299f149e92ead563fba08ef,62a445238243bc97e1b46759,,,,,,,,,,,,,,,,,,,,,,,,,,,,,,,,,,,,,,,,,,,,,,,,,,,,,,,,jr,"[""j"",""r""]",0,"[2.593899999976088,3.001199999928417,3.6189999999999145]",1,1,0,1,0,1,,,,,,,,,,,,,,,,,,,,,,,,,,,,,,,,,,,,
,,,,,,,,,,,,5fa925f7a78e1e0008f13a21,24,Mężczyzna,2022-06-11_09h33.05.391,task,2021.1.4,Win32,59.61607249,6299f149e92ead563fba08ef,62a445238243bc97e1b46759,,,,,,,,,,,,,5,,,,,,,,,,Practice,6,(4/2) + 3,5,,,,,,,,,,,,,,,,"[""5""]",1,[2.95309999990468],1,0,0,0,5,1,,,,,,,,,,,,,,,,,,,,,,,,,,,,,,,,,,,,,,,,,,,,,,,,,,,
,,,,,,,,,,,X V Q F H G B L J M P D K C T S W R N Z,5fa925f7a78e1e0008f13a21,24,Mężczyzna,2022-06-11_09h33.05.391,task,2021.1.4,Win32,59.61607249,6299f149e92ead563fba08ef,62a445238243bc97e1b46759,,,,,,,,,,,,,,,,,,,,,,,,,,,,,,,,,,,,,,,,,,,,,,,,,,,0,0,0,0,1,,,,,,,,,,,,,,,,,,,,,,,,,,,,,,,,,,,,,,,,,,,,,,
,,,,,,,,,,,,5fa925f7a78e1e0008f13a21,24,Mężczyzna,2022-06-11_09h33.05.391,task,2021.1.4,Win32,59.61607249,6299f149e92ead563fba08ef,62a445238243bc97e1b46759,,,,,,,,,,,,,1,,,,,,,,,,Practice,2,(4x4) - 15,1,,,,,,,,,,,,,,,,"[""1""]",1,[1.8518999999761263],1,0,0,0,1,1,,,,,,,,,,,,,,,,,,,,,,,,,,,,,,,,,,,,,,,,,,,,,,,,,,,
,,,,,,,,,,,X V Q F H G B L J M P D K C T S W R N Z,5fa925f7a78e1e0008f13a21,24,Mężczyzna,2022-06-11_09h33.05.391,task,2021.1.4,Win32,59.61607249,6299f149e92ead563fba08ef,62a445238243bc97e1b46759,,,,,,,,,,,,,,,,,,,,,,,,,,,,,,,,,,,,,,,,,,,,,,,,,,,1,0,1,0,1,,,,,,,,,,,,,,,,,,,,,,,,,,,,,,,,,,,,,,,,,,,,,,
,,,,,,,,,,,,5fa925f7a78e1e0008f13a21,24,Mężczyzna,2022-06-11_09h33.05.391,task,2021.1.4,Win32,59.61607249,6299f149e92ead563fba08ef,62a445238243bc97e1b46759,,,,,,,,,,,,,,,,,,,,,,,,,,,,,,,,,,,,,,,,,,,,,,,,,,,,,,,,nk,"[""n"",""k""]",0,"[1.36720000004766,1.615299999952299,2.1435000000000173]",1,2,0,2,0,1,,,,,,,,,,,,,,,,,,,,,,,,,,,,,,,,,,,,
,,,,,,,,,,,,5fa925f7a78e1e0008f13a21,24,Mężczyzna,2022-06-11_09h33.05.391,task,2021.1.4,Win32,59.61607249,6299f149e92ead563fba08ef,62a445238243bc97e1b46759,,,,,,,,,,,,,8,,,,,,,,,,Task,32,(8/2) + 4,8,,,,,,,,,,,,,,,,,,,1,,,,,,,,,,,,,,,,,,,,,space,28.7856,"[""8""]",1,[3.5791000000238],0,0,0,31,1,,,,,,,,,,,,,,,,,,,,,,,,,,
,,,,,,,,,,,X V Q F H G B L J M P D K C T S W R N Z,5fa925f7a78e1e0008f13a21,24,Mężczyzna,2022-06-11_09h33.05.391,task,2021.1.4,Win32,59.61607249,6299f149e92ead563fba08ef,62a445238243bc97e1b46759,,,,,,,,,,,,,,,,,,,,,,,,,,,,,,,,,,,,,,,,,,,,,,,,,,,,,,,,,,,,,,,,,,,,,,,,,,,,0,0,0,0,1,,,,,,,,,,,,,,,,,,,,,
,,,,,,,,,,,,5fa925f7a78e1e0008f13a21,24,Mężczyzna,2022-06-11_09h33.05.391,task,2021.1.4,Win32,59.61607249,6299f149e92ead563fba08ef,62a445238243bc97e1b46759,,,,,,,,,,,,,2,,,,,,,,,,Task,10,(2x5) - 8,2,,,,,,,,,,,,,,,,,,,1,,,,,,,,,,,,,,,,,,,,,,,"[""2""]",1,[1.8830000000000382],0,0,0,9,1,,,,,,,,,,,,,,,,,,,,,,,,,,
,,,,,,,,,,,X V Q F H G B L J M P D K C T S W R N Z,5fa925f7a78e1e0008f13a21,24,Mężczyzna,2022-06-11_09h33.05.391,task,2021.1.4,Win32,59.61607249,6299f149e92ead563fba08ef,62a445238243bc97e1b46759,,,,,,,,,,,,,,,,,,,,,,,,,,,,,,,,,,,,,,,,,,,,,,,,,,,,,,,,,,,,,,,,,,,,,,,,,,,,1,0,1,0,1,,,,,,,,,,,,,,,,,,,,,
,,,,,,,,,,,,5fa925f7a78e1e0008f13a21,24,Mężczyzna,2022-06-11_09h33.05.391,task,2021.1.4,Win32,59.61607249,6299f149e92ead563fba08ef,62a445238243bc97e1b46759,,,,,,,,,,,,,,,,,,,,,,,,,,,,,,,,,,,,,,,,,,,,,,,,,,,,,,,,,,,,,,,,,,,,,,,,,,,,,,,,,zv,"[""z"",""v""]",0,"[1.3092000000476673,1.9769999999999754,2.300700000047641]",1,ZV,0,0,0,0,1,,,,,,,,,,
,,,,,,,,,,,,5fa925f7a78e1e0008f13a21,24,Mężczyzna,2022-06-11_09h33.05.391,task,2021.1.4,Win32,59.61607249,6299f149e92ead563fba08ef,62a445238243bc97e1b46759,,,,,,,,,,,,,4,,,,,,,,,,Task,4,(1x5) - 1,4,,,,,,,,,,,,,,,,,,,1,,,,,,,,,,,,,,,,,,,,,,,"[""4""]",1,[2.7597999999522926],0,0,0,3,1,,,,,,,,,,,,,,,,,,,,,,,,,,
,,,,,,,,,,,X V Q F H G B L J M P D K C T S W R N Z,5fa925f7a78e1e0008f13a21,24,Mężczyzna,2022-06-11_09h33.05.391,task,2021.1.4,Win32,59.61607249,6299f149e92ead563fba08ef,62a445238243bc97e1b46759,,,,,,,,,,,,,,,,,,,,,,,,,,,,,,,,,,,,,,,,,,,,,,,,,,,,,,,,,,,,,,,,,,,,,,,,,,,,0,0,0,0,1,,,,,,,,,,,,,,,,,,,,,
,,,,,,,,,,,,5fa925f7a78e1e0008f13a21,24,Mężczyzna,2022-06-11_09h33.05.391,task,2021.1.4,Win32,59.61607249,6299f149e92ead563fba08ef,62a445238243bc97e1b46759,,,,,,,,,,,,,9,,,,,,,,,,Task,40,(7x2) - 5,9,,,,,,,,,,,,,,,,,,,1,,,,,,,,,,,,,,,,,,,,,,,"[""9""]",1,[2.7868999999761854],0,0,0,39,1,,,,,,,,,,,,,,,,,,,,,,,,,,
,,,,,,,,,,,X V Q F H G B L J M P D K C T S W R N Z,5fa925f7a78e1e0008f13a21,24,Mężczyzna,2022-06-11_09h33.05.391,task,2021.1.4,Win32,59.61607249,6299f149e92ead563fba08ef,62a445238243bc97e1b46759,,,,,,,,,,,,,,,,,,,,,,,,,,,,,,,,,,,,,,,,,,,,,,,,,,,,,,,,,,,,,,,,,,,,,,,,,,,,1,0,1,0,1,,,,,,,,,,,,,,,,,,,,,
,,,,,,,,,,,,5fa925f7a78e1e0008f13a21,24,Mężczyzna,2022-06-11_09h33.05.391,task,2021.1.4,Win32,59.61607249,6299f149e92ead563fba08ef,62a445238243bc97e1b46759,,,,,,,,,,,,,4,,,,,,,,,,Task,4,(1x5) - 1,4,,,,,,,,,,,,,,,,,,,1,,,,,,,,,,,,,,,,,,,,,,,"[""4""]",1,[7.280699999928515],0,0,0,3,1,,,,,,,,,,,,,,,,,,,,,,,,,,
,,,,,,,,,,,X V Q F H G B L J M P D K C T S W R N Z,5fa925f7a78e1e0008f13a21,24,Mężczyzna,2022-06-11_09h33.05.391,task,2021.1.4,Win32,59.61607249,6299f149e92ead563fba08ef,62a445238243bc97e1b46759,,,,,,,,,,,,,,,,,,,,,,,,,,,,,,,,,,,,,,,,,,,,,,,,,,,,,,,,,,,,,,,,,,,,,,,,,,,,2,0,2,0,1,,,,,,,,,,,,,,,,,,,,,
,,,,,,,,,,,,5fa925f7a78e1e0008f13a21,24,Mężczyzna,2022-06-11_09h33.05.391,task,2021.1.4,Win32,59.61607249,6299f149e92ead563fba08ef,62a445238243bc97e1b46759,,,,,,,,,,,,,,,,,,,,,,,,,,,,,,,,,,,,,,,,,,,,,,,,,,,,,,,,,,,,,,,,,,,,,,,,,,,,,,,,,zvk,"[""z"",""v"",""k""]",0,"[1.576100000023871,2.0272999999523336,2.3496999999284753,2.6905000000000427]",1,ZVK,1,0,1,0,1,,,,,,,,,,
,,,,,,,,,,,,5fa925f7a78e1e0008f13a21,24,Mężczyzna,2022-06-11_09h33.05.391,task,2021.1.4,Win32,59.61607249,6299f149e92ead563fba08ef,62a445238243bc97e1b46759,,,,,,,,,,,,,6,,,,,,,,,,Task,5,(2x3) + 0,6,,,,,,,,,,,,,,,,,,,1,,,,,,,,,,,,,,,,,,,,,,,"[""6""]",1,[2.9355000000000473],0,0,0,4,1,,,,,,,,,,,,,,,,,,,,,,,,,,
,,,,,,,,,,,X V Q F H G B L J M P D K C T S W R N Z,5fa925f7a78e1e0008f13a21,24,Mężczyzna,2022-06-11_09h33.05.391,task,2021.1.4,Win32,59.61607249,6299f149e92ead563fba08ef,62a445238243bc97e1b46759,,,,,,,,,,,,,,,,,,,,,,,,,,,,,,,,,,,,,,,,,,,,,,,,,,,,,,,,,,,,,,,,,,,,,,,,,,,,0,0,0,0,1,,,,,,,,,,,,,,,,,,,,,
,,,,,,,,,,,,5fa925f7a78e1e0008f13a21,24,Mężczyzna,2022-06-11_09h33.05.391,task,2021.1.4,Win32,59.61607249,6299f149e92ead563fba08ef,62a445238243bc97e1b46759,,,,,,,,,,,,,4,,,,,,,,,,Task,28,(2x5) - 6,4,,,,,,,,,,,,,,,,,,,1,,,,,,,,,,,,,,,,,,,,,,,"[""4""]",1,[1.966299999952298],0,0,0,27,1,,,,,,,,,,,,,,,,,,,,,,,,,,
,,,,,,,,,,,X V Q F H G B L J M P D K C T S W R N Z,5fa925f7a78e1e0008f13a21,24,Mężczyzna,2022-06-11_09h33.05.391,task,2021.1.4,Win32,59.61607249,6299f149e92ead563fba08ef,62a445238243bc97e1b46759,,,,,,,,,,,,,,,,,,,,,,,,,,,,,,,,,,,,,,,,,,,,,,,,,,,,,,,,,,,,,,,,,,,,,,,,,,,,1,0,1,0,1,,,,,,,,,,,,,,,,,,,,,
,,,,,,,,,,,,5fa925f7a78e1e0008f13a21,24,Mężczyzna,2022-06-11_09h33.05.391,task,2021.1.4,Win32,59.61607249,6299f149e92ead563fba08ef,62a445238243bc97e1b46759,,,,,,,,,,,,,4,,,,,,,,,,Task,28,(2x5) - 6,4,,,,,,,,,,,,,,,,,,,1,,,,,,,,,,,,,,,,,,,,,,,"[""4""]",1,[1.4954999999999927],0,0,0,27,1,,,,,,,,,,,,,,,,,,,,,,,,,,
,,,,,,,,,,,X V Q F H G B L J M P D K C T S W R N Z,5fa925f7a78e1e0008f13a21,24,Mężczyzna,2022-06-11_09h33.05.391,task,2021.1.4,Win32,59.61607249,6299f149e92ead563fba08ef,62a445238243bc97e1b46759,,,,,,,,,,,,,,,,,,,,,,,,,,,,,,,,,,,,,,,,,,,,,,,,,,,,,,,,,,,,,,,,,,,,,,,,,,,,2,0,2,0,1,,,,,,,,,,,,,,,,,,,,,
,,,,,,,,,,,,5fa925f7a78e1e0008f13a21,24,Mężczyzna,2022-06-11_09h33.05.391,task,2021.1.4,Win32,59.61607249,6299f149e92ead563fba08ef,62a445238243bc97e1b46759,,,,,,,,,,,,,7,,,,,,,,,,Task,31,(4/2) + 5,7,,,,,,,,,,,,,,,,,,,1,,,,,,,,,,,,,,,,,,,,,,,"[""7""]",1,[2.158800000071551],0,0,0,30,1,,,,,,,,,,,,,,,,,,,,,,,,,,
,,,,,,,,,,,X V Q F H G B L J M P D K C T S W R N Z,5fa925f7a78e1e0008f13a21,24,Mężczyzna,2022-06-11_09h33.05.391,task,2021.1.4,Win32,59.61607249,6299f149e92ead563fba08ef,62a445238243bc97e1b46759,,,,,,,,,,,,,,,,,,,,,,,,,,,,,,,,,,,,,,,,,,,,,,,,,,,,,,,,,,,,,,,,,,,,,,,,,,,,3,0,3,0,1,,,,,,,,,,,,,,,,,,,,,
,,,,,,,,,,,,5fa925f7a78e1e0008f13a21,24,Mężczyzna,2022-06-11_09h33.05.391,task,2021.1.4,Win32,59.61607249,6299f149e92ead563fba08ef,62a445238243bc97e1b46759,,,,,,,,,,,,,,,,,,,,,,,,,,,,,,,,,,,,,,,,,,,,,,,,,,,,,,,,,,,,,,,,,,,,,,,,,,,,,,,,,chcn,"[""c"",""h"",""c"",""n""]",0,"[1.7579000000953329,1.95120000004772,2.144400000095402,2.4840000000000373,3.0008000000715356]",1,CHCN,2,0,2,0,1,,,,,,,,,,
,,,,,,,,,,,,5fa925f7a78e1e0008f13a21,24,Mężczyzna,2022-06-11_09h33.05.391,task,2021.1.4,Win32,59.61607249,6299f149e92ead563fba08ef,62a445238243bc97e1b46759,,,,,,,,,,,,,8,,,,,,,,,,Task,23,(2x3) + 2,8,,,,,,,,,,,,,,,,,,,1,,,,,,,,,,,,,,,,,,,,,,,"[""8""]",1,[2.3311000000238664],0,0,0,22,1,,,,,,,,,,,,,,,,,,,,,,,,,,
,,,,,,,,,,,X V Q F H G B L J M P D K C T S W R N Z,5fa925f7a78e1e0008f13a21,24,Mężczyzna,2022-06-11_09h33.05.391,task,2021.1.4,Win32,59.61607249,6299f149e92ead563fba08ef,62a445238243bc97e1b46759,,,,,,,,,,,,,,,,,,,,,,,,,,,,,,,,,,,,,,,,,,,,,,,,,,,,,,,,,,,,,,,,,,,,,,,,,,,,0,0,0,0,1,,,,,,,,,,,,,,,,,,,,,
,,,,,,,,,,,,5fa925f7a78e1e0008f13a21,24,Mężczyzna,2022-06-11_09h33.05.391,task,2021.1.4,Win32,59.61607249,6299f149e92ead563fba08ef,62a445238243bc97e1b46759,,,,,,,,,,,,,7,,,,,,,,,,Task,14,(2x2) + 3,7,,,,,,,,,,,,,,,,,,,1,,,,,,,,,,,,,,,,,,,,,,,"[""7""]",1,[2.64319999992847],0,0,0,13,1,,,,,,,,,,,,,,,,,,,,,,,,,,
,,,,,,,,,,,X V Q F H G B L J M P D K C T S W R N Z,5fa925f7a78e1e0008f13a21,24,Mężczyzna,2022-06-11_09h33.05.391,task,2021.1.4,Win32,59.61607249,6299f149e92ead563fba08ef,62a445238243bc97e1b46759,,,,,,,,,,,,,,,,,,,,,,,,,,,,,,,,,,,,,,,,,,,,,,,,,,,,,,,,,,,,,,,,,,,,,,,,,,,,1,0,1,0,1,,,,,,,,,,,,,,,,,,,,,
,,,,,,,,,,,,5fa925f7a78e1e0008f13a21,24,Mężczyzna,2022-06-11_09h33.05.391,task,2021.1.4,Win32,59.61607249,6299f149e92ead563fba08ef,62a445238243bc97e1b46759,,,,,,,,,,,,,8,,,,,,,,,,Task,23,(2x3) + 2,8,,,,,,,,,,,,,,,,,,,1,,,,,,,,,,,,,,,,,,,,,,,"[""8""]",1,[3.1392999999523],0,0,0,22,1,,,,,,,,,,,,,,,,,,,,,,,,,,
,,,,,,,,,,,X V Q F H G B L J M P D K C T S W R N Z,5fa925f7a78e1e0008f13a21,24,Mężczyzna,2022-06-11_09h33.05.391,task,2021.1.4,Win32,59.61607249,6299f149e92ead563fba08ef,62a445238243bc97e1b46759,,,,,,,,,,,,,,,,,,,,,,,,,,,,,,,,,,,,,,,,,,,,,,,,,,,,,,,,,,,,,,,,,,,,,,,,,,,,2,0,2,0,1,,,,,,,,,,,,,,,,,,,,,
,,,,,,,,,,,,5fa925f7a78e1e0008f13a21,24,Mężczyzna,2022-06-11_09h33.05.391,task,2021.1.4,Win32,59.61607249,6299f149e92ead563fba08ef,62a445238243bc97e1b46759,,,,,,,,,,,,,7,,,,,,,,,,Task,14,(2x2) + 3,7,,,,,,,,,,,,,,,,,,,1,,,,,,,,,,,,,,,,,,,,,,,"[""7""]",1,[2.181699999928469],0,0,0,13,1,,,,,,,,,,,,,,,,,,,,,,,,,,
,,,,,,,,,,,X V Q F H G B L J M P D K C T S W R N Z,5fa925f7a78e1e0008f13a21,24,Mężczyzna,2022-06-11_09h33.05.391,task,2021.1.4,Win32,59.61607249,6299f149e92ead563fba08ef,62a445238243bc97e1b46759,,,,,,,,,,,,,,,,,,,,,,,,,,,,,,,,,,,,,,,,,,,,,,,,,,,,,,,,,,,,,,,,,,,,,,,,,,,,3,0,3,0,1,,,,,,,,,,,,,,,,,,,,,
,,,,,,,,,,,,5fa925f7a78e1e0008f13a21,24,Mężczyzna,2022-06-11_09h33.05.391,task,2021.1.4,Win32,59.61607249,6299f149e92ead563fba08ef,62a445238243bc97e1b46759,,,,,,,,,,,,,3,,,,,,,,,,Task,20,(18/9) + 1,3,,,,,,,,,,,,,,,,,,,1,,,,,,,,,,,,,,,,,,,,,,,"[""3""]",1,[2.4992999999523136],0,0,0,19,1,,,,,,,,,,,,,,,,,,,,,,,,,,
,,,,,,,,,,,X V Q F H G B L J M P D K C T S W R N Z,5fa925f7a78e1e0008f13a21,24,Mężczyzna,2022-06-11_09h33.05.391,task,2021.1.4,Win32,59.61607249,6299f149e92ead563fba08ef,62a445238243bc97e1b46759,,,,,,,,,,,,,,,,,,,,,,,,,,,,,,,,,,,,,,,,,,,,,,,,,,,,,,,,,,,,,,,,,,,,,,,,,,,,4,0,4,0,1,,,,,,,,,,,,,,,,,,,,,
,,,,,,,,,,,,5fa925f7a78e1e0008f13a21,24,Mężczyzna,2022-06-11_09h33.05.391,task,2021.1.4,Win32,59.61607249,6299f149e92ead563fba08ef,62a445238243bc97e1b46759,,,,,,,,,,,,,,,,,,,,,,,,,,,,,,,,,,,,,,,,,,,,,,,,,,,,,,,,,,,,,,,,,,,,,,,,,,,,,,,,,kdlgk,"[""k"",""d"",""l"",""g"",""k""]",0,"[1.27439999997614,2.0090000000000146,2.360600000023851,3.325100000023781,3.677500000000009,5.035100000023817]",1,KDLGK,3,0,3,0,1,,,,,,,,,,
,,,,,,,,,,,,5fa925f7a78e1e0008f13a21,24,Mężczyzna,2022-06-11_09h33.05.391,task,2021.1.4,Win32,59.61607249,6299f149e92ead563fba08ef,62a445238243bc97e1b46759,,,,,,,,,,,,,9,,,,,,,,,,Task,16,(3x8) - 15,9,,,,,,,,,,,,,,,,,,,1,,,,,,,,,,,,,,,,,,,,,,,"[""9""]",1,[6.49739999997621],0,0,0,15,1,,,,,,,,,,,,,,,,,,,,,,,,,,
,,,,,,,,,,,X V Q F H G B L J M P D K C T S W R N Z,5fa925f7a78e1e0008f13a21,24,Mężczyzna,2022-06-11_09h33.05.391,task,2021.1.4,Win32,59.61607249,6299f149e92ead563fba08ef,62a445238243bc97e1b46759,,,,,,,,,,,,,,,,,,,,,,,,,,,,,,,,,,,,,,,,,,,,,,,,,,,,,,,,,,,,,,,,,,,,,,,,,,,,0,0,0,0,1,,,,,,,,,,,,,,,,,,,,,
,,,,,,,,,,,,5fa925f7a78e1e0008f13a21,24,Mężczyzna,2022-06-11_09h33.05.391,task,2021.1.4,Win32,59.61607249,6299f149e92ead563fba08ef,62a445238243bc97e1b46759,,,,,,,,,,,,,1,,,,,,,,,,Task,9,(3x7) - 20,1,,,,,,,,,,,,,,,,,,,1,,,,,,,,,,,,,,,,,,,,,,,"[""1""]",1,[3.8667999999522635],0,0,0,8,1,,,,,,,,,,,,,,,,,,,,,,,,,,
,,,,,,,,,,,X V Q F H G B L J M P D K C T S W R N Z,5fa925f7a78e1e0008f13a21,24,Mężczyzna,2022-06-11_09h33.05.391,task,2021.1.4,Win32,59.61607249,6299f149e92ead563fba08ef,62a445238243bc97e1b46759,,,,,,,,,,,,,,,,,,,,,,,,,,,,,,,,,,,,,,,,,,,,,,,,,,,,,,,,,,,,,,,,,,,,,,,,,,,,1,0,1,0,1,,,,,,,,,,,,,,,,,,,,,
,,,,,,,,,,,,5fa925f7a78e1e0008f13a21,24,Mężczyzna,2022-06-11_09h33.05.391,task,2021.1.4,Win32,59.61607249,6299f149e92ead563fba08ef,62a445238243bc97e1b46759,,,,,,,,,,,,,6,,,,,,,,,,Task,30,(6/3) + 4 ,6,,,,,,,,,,,,,,,,,,,1,,,,,,,,,,,,,,,,,,,,,,,"[""6""]",1,[2.3531000000239146],0,0,0,29,1,,,,,,,,,,,,,,,,,,,,,,,,,,
,,,,,,,,,,,X V Q F H G B L J M P D K C T S W R N Z,5fa925f7a78e1e0008f13a21,24,Mężczyzna,2022-06-11_09h33.05.391,task,2021.1.4,Win32,59.61607249,6299f149e92ead563fba08ef,62a445238243bc97e1b46759,,,,,,,,,,,,,,,,,,,,,,,,,,,,,,,,,,,,,,,,,,,,,,,,,,,,,,,,,,,,,,,,,,,,,,,,,,,,2,0,2,0,1,,,,,,,,,,,,,,,,,,,,,
,,,,,,,,,,,,5fa925f7a78e1e0008f13a21,24,Mężczyzna,2022-06-11_09h33.05.391,task,2021.1.4,Win32,59.61607249,6299f149e92ead563fba08ef,62a445238243bc97e1b46759,,,,,,,,,,,,,0,,,,,,,,,,Task,17,(2x3) - 6,0,,,,,,,,,,,,,,,,,,,1,,,,,,,,,,,,,,,,,,,,,,,"[""0""]",1,[8.247399999976096],0,0,0,16,1,,,,,,,,,,,,,,,,,,,,,,,,,,
,,,,,,,,,,,X V Q F H G B L J M P D K C T S W R N Z,5fa925f7a78e1e0008f13a21,24,Mężczyzna,2022-06-11_09h33.05.391,task,2021.1.4,Win32,59.61607249,6299f149e92ead563fba08ef,62a445238243bc97e1b46759,,,,,,,,,,,,,,,,,,,,,,,,,,,,,,,,,,,,,,,,,,,,,,,,,,,,,,,,,,,,,,,,,,,,,,,,,,,,3,0,3,0,1,,,,,,,,,,,,,,,,,,,,,
,,,,,,,,,,,,5fa925f7a78e1e0008f13a21,24,Mężczyzna,2022-06-11_09h33.05.391,task,2021.1.4,Win32,59.61607249,6299f149e92ead563fba08ef,62a445238243bc97e1b46759,,,,,,,,,,,,,1,,,,,,,,,,Task,34,(9/3) - 2,1,,,,,,,,,,,,,,,,,,,1,,,,,,,,,,,,,,,,,,,,,,,"[""1""]",1,[7.280399999976112],0,0,0,33,1,,,,,,,,,,,,,,,,,,,,,,,,,,
,,,,,,,,,,,X V Q F H G B L J M P D K C T S W R N Z,5fa925f7a78e1e0008f13a21,24,Mężczyzna,2022-06-11_09h33.05.391,task,2021.1.4,Win32,59.61607249,6299f149e92ead563fba08ef,62a445238243bc97e1b46759,,,,,,,,,,,,,,,,,,,,,,,,,,,,,,,,,,,,,,,,,,,,,,,,,,,,,,,,,,,,,,,,,,,,,,,,,,,,4,0,4,0,1,,,,,,,,,,,,,,,,,,,,,
,,,,,,,,,,,,5fa925f7a78e1e0008f13a21,24,Mężczyzna,2022-06-11_09h33.05.391,task,2021.1.4,Win32,59.61607249,6299f149e92ead563fba08ef,62a445238243bc97e1b46759,,,,,,,,,,,,,1,,,,,,,,,,Task,9,(3x7) - 20,1,,,,,,,,,,,,,,,,,,,1,,,,,,,,,,,,,,,,,,,,,,,"[""1""]",1,[1.9337000000476792],0,0,0,8,1,,,,,,,,,,,,,,,,,,,,,,,,,,
,,,,,,,,,,,X V Q F H G B L J M P D K C T S W R N Z,5fa925f7a78e1e0008f13a21,24,Mężczyzna,2022-06-11_09h33.05.391,task,2021.1.4,Win32,59.61607249,6299f149e92ead563fba08ef,62a445238243bc97e1b46759,,,,,,,,,,,,,,,,,,,,,,,,,,,,,,,,,,,,,,,,,,,,,,,,,,,,,,,,,,,,,,,,,,,,,,,,,,,,5,0,5,0,1,,,,,,,,,,,,,,,,,,,,,
,,,,,,,,,,,,5fa925f7a78e1e0008f13a21,24,Mężczyzna,2022-06-11_09h33.05.391,task,2021.1.4,Win32,59.61607249,6299f149e92ead563fba08ef,62a445238243bc97e1b46759,,,,,,,,,,,,,,,,,,,,,,,,,,,,,,,,,,,,,,,,,,,,,,,,,,,,,,,,,,,,,,,,,,,,,,,,,,,,,,,,,srcgmb,"[""s"",""r"",""c"",""g"",""m"",""b""]",0,"[1.6848999999760963,2.41989999997611,3.35869999992849,3.774799999952279,4.1544999999999845,4.6580000000000155,5.517299999952343]",0,SRCGBM,4,0,4,0,1,,,,,,,,,,
,,,,,,,,,,,,5fa925f7a78e1e0008f13a21,24,Mężczyzna,2022-06-11_09h33.05.391,task,2021.1.4,Win32,59.61607249,6299f149e92ead563fba08ef,62a445238243bc97e1b46759,,,,,,,,,,,,,6,,,,,,,,,,Task,37,(3/3) + 5,6,,,,,,,,,,,,,,,,,,,1,,,,,,,,,,,,,,,,,,,,,,,"[""6""]",1,[4.84050000000002],0,0,0,36,1,,,,,,,,,,,,,,,,,,,,,,,,,,
,,,,,,,,,,,X V Q F H G B L J M P D K C T S W R N Z,5fa925f7a78e1e0008f13a21,24,Mężczyzna,2022-06-11_09h33.05.391,task,2021.1.4,Win32,59.61607249,6299f149e92ead563fba08ef,62a445238243bc97e1b46759,,,,,,,,,,,,,,,,,,,,,,,,,,,,,,,,,,,,,,,,,,,,,,,,,,,,,,,,,,,,,,,,,,,,,,,,,,,,0,0,0,0,1,,,,,,,,,,,,,,,,,,,,,
,,,,,,,,,,,,5fa925f7a78e1e0008f13a21,24,Mężczyzna,2022-06-11_09h33.05.391,task,2021.1.4,Win32,59.61607249,6299f149e92ead563fba08ef,62a445238243bc97e1b46759,,,,,,,,,,,,,7,,,,,,,,,,Task,6,(12/2) + 1,7,,,,,,,,,,,,,,,,,,,1,,,,,,,,,,,,,,,,,,,,,,,"[""7""]",1,[3.11519999992845],0,0,0,5,1,,,,,,,,,,,,,,,,,,,,,,,,,,
,,,,,,,,,,,X V Q F H G B L J M P D K C T S W R N Z,5fa925f7a78e1e0008f13a21,24,Mężczyzna,2022-06-11_09h33.05.391,task,2021.1.4,Win32,59.61607249,6299f149e92ead563fba08ef,62a445238243bc97e1b46759,,,,,,,,,,,,,,,,,,,,,,,,,,,,,,,,,,,,,,,,,,,,,,,,,,,,,,,,,,,,,,,,,,,,,,,,,,,,1,0,1,0,1,,,,,,,,,,,,,,,,,,,,,
,,,,,,,,,,,,5fa925f7a78e1e0008f13a21,24,Mężczyzna,2022-06-11_09h33.05.391,task,2021.1.4,Win32,59.61607249,6299f149e92ead563fba08ef,62a445238243bc97e1b46759,,,,,,,,,,,,,2,,,,,,,,,,Task,10,(2x5) - 8,2,,,,,,,,,,,,,,,,,,,1,,,,,,,,,,,,,,,,,,,,,,,"[""2""]",1,[6.592400000095381],0,0,0,9,1,,,,,,,,,,,,,,,,,,,,,,,,,,
,,,,,,,,,,,X V Q F H G B L J M P D K C T S W R N Z,5fa925f7a78e1e0008f13a21,24,Mężczyzna,2022-06-11_09h33.05.391,task,2021.1.4,Win32,59.61607249,6299f149e92ead563fba08ef,62a445238243bc97e1b46759,,,,,,,,,,,,,,,,,,,,,,,,,,,,,,,,,,,,,,,,,,,,,,,,,,,,,,,,,,,,,,,,,,,,,,,,,,,,2,0,2,0,1,,,,,,,,,,,,,,,,,,,,,
,,,,,,,,,,,,5fa925f7a78e1e0008f13a21,24,Mężczyzna,2022-06-11_09h33.05.391,task,2021.1.4,Win32,59.61607249,6299f149e92ead563fba08ef,62a445238243bc97e1b46759,,,,,,,,,,,,,8,,,,,,,,,,Task,32,(8/2) + 4,8,,,,,,,,,,,,,,,,,,,1,,,,,,,,,,,,,,,,,,,,,,,"[""8""]",1,[8.523399999976164],0,0,0,31,1,,,,,,,,,,,,,,,,,,,,,,,,,,
,,,,,,,,,,,X V Q F H G B L J M P D K C T S W R N Z,5fa925f7a78e1e0008f13a21,24,Mężczyzna,2022-06-11_09h33.05.391,task,2021.1.4,Win32,59.61607249,6299f149e92ead563fba08ef,62a445238243bc97e1b46759,,,,,,,,,,,,,,,,,,,,,,,,,,,,,,,,,,,,,,,,,,,,,,,,,,,,,,,,,,,,,,,,,,,,,,,,,,,,3,0,3,0,1,,,,,,,,,,,,,,,,,,,,,
,,,,,,,,,,,,5fa925f7a78e1e0008f13a21,24,Mężczyzna,2022-06-11_09h33.05.391,task,2021.1.4,Win32,59.61607249,6299f149e92ead563fba08ef,62a445238243bc97e1b46759,,,,,,,,,,,,,5,,,,,,,,,,Task,12,(4x4) - 11,5,,,,,,,,,,,,,,,,,,,1,,,,,,,,,,,,,,,,,,,,,,,"[""5""]",1,[4.580600000023878],0,0,0,11,1,,,,,,,,,,,,,,,,,,,,,,,,,,
,,,,,,,,,,,X V Q F H G B L J M P D K C T S W R N Z,5fa925f7a78e1e0008f13a21,24,Mężczyzna,2022-06-11_09h33.05.391,task,2021.1.4,Win32,59.61607249,6299f149e92ead563fba08ef,62a445238243bc97e1b46759,,,,,,,,,,,,,,,,,,,,,,,,,,,,,,,,,,,,,,,,,,,,,,,,,,,,,,,,,,,,,,,,,,,,,,,,,,,,4,0,4,0,1,,,,,,,,,,,,,,,,,,,,,
,,,,,,,,,,,,5fa925f7a78e1e0008f13a21,24,Mężczyzna,2022-06-11_09h33.05.391,task,2021.1.4,Win32,59.61607249,6299f149e92ead563fba08ef,62a445238243bc97e1b46759,,,,,,,,,,,,,5,,,,,,,,,,Task,22,(3x1) + 2,5,,,,,,,,,,,,,,,,,,,1,,,,,,,,,,,,,,,,,,,,,,,"[""5""]",1,[11.085600000023874],0,0,0,21,1,,,,,,,,,,,,,,,,,,,,,,,,,,
,,,,,,,,,,,X V Q F H G B L J M P D K C T S W R N Z,5fa925f7a78e1e0008f13a21,24,Mężczyzna,2022-06-11_09h33.05.391,task,2021.1.4,Win32,59.61607249,6299f149e92ead563fba08ef,62a445238243bc97e1b46759,,,,,,,,,,,,,,,,,,,,,,,,,,,,,,,,,,,,,,,,,,,,,,,,,,,,,,,,,,,,,,,,,,,,,,,,,,,,5,0,5,0,1,,,,,,,,,,,,,,,,,,,,,
,,,,,,,,,,,,5fa925f7a78e1e0008f13a21,24,Mężczyzna,2022-06-11_09h33.05.391,task,2021.1.4,Win32,59.61607249,6299f149e92ead563fba08ef,62a445238243bc97e1b46759,,,,,,,,,,,,,,,,,,,,,,,,,,,,,,,,,,,,,,,,,,,,,,,,,,,,,,,,,,,,,,,,,,,,,,,,,,,,,,,,,sjhchh,"[""s"",""j"",""h"",""c"",""h"",""h""]",0,"[2.200999999999908,2.7603000000715383,5.684899999976096,6.092200000047683,6.898200000047609,7.234600000023761,9.89799999999991]",0,SHCJHH,5,0,5,0,1,,,,,,,,,,
,,,,,,,,,,,,5fa925f7a78e1e0008f13a21,24,Mężczyzna,2022-06-11_09h33.05.391,task,2021.1.4,Win32,59.61607249,6299f149e92ead563fba08ef,62a445238243bc97e1b46759,,,,,,,,,,,,,,,,,,,,,,,,,,,,,,,,,,,,,,,,,,,,,,,,,,,,,,,,,,,,,,,,,,,,,,,,,,,,,,,,,,,,,,,,,,,,"[""comma""]",0,[0.7348000000715729],0,0,0,0,1,,
,,,,,,,,,,,,5fa925f7a78e1e0008f13a21,24,Mężczyzna,2022-06-11_09h33.05.391,task,2021.1.4,Win32,59.61607249,6299f149e92ead563fba08ef,62a445238243bc97e1b46759,,,,,,,,,,,,,,,,,,,,,,,,,,,,,,,,,,,,,,,,,,,,,,,,,,,,,,,,,,,,,,,,,,,,,,,,,,,,,,,,,,,,,,,,,,,,"[""period""]",0,[0.6996999999284981],1,0,1,0,1,,
,,,,,,,,,,,,5fa925f7a78e1e0008f13a21,24,Mężczyzna,2022-06-11_09h33.05.391,task,2021.1.4,Win32,59.61607249,6299f149e92ead563fba08ef,62a445238243bc97e1b46759,,,,,,,,,,,,,,,,,,,,,,,,,,,,,,,,,,,,,,,,,,,,,,,,,,,,,,,,,,,,,,,,,,,,,,,,,,,,,,,,,,,,,,,,,,,,"[""period""]",0,[0.42220000004761005],2,0,2,0,1,,
,,,,,,,,,,,,5fa925f7a78e1e0008f13a21,24,Mężczyzna,2022-06-11_09h33.05.391,task,2021.1.4,Win32,59.61607249,6299f149e92ead563fba08ef,62a445238243bc97e1b46759,,,,,,,,,,,,,,,,,,,,,,,,,,,,,,,,,,,,,,,,,,,,,,,,,,,,,,,,,,,,,,,,,,,,,,,,,,,,,,,,,,,,,,,,,,,,"[""comma""]",0,[0.48220000004766916],3,0,3,0,1,,
,,,,,,,,,,,,5fa925f7a78e1e0008f13a21,24,Mężczyzna,2022-06-11_09h33.05.391,task,2021.1.4,Win32,59.61607249,6299f149e92ead563fba08ef,62a445238243bc97e1b46759,,,,,,,,,,,,,,,,,,,,,,,,,,,,,,,,,,,,,,,,,,,,,,,,,,,,,,,,,,,,,,,,,,,,,,,,,,,,,,,,,,,,,,,,,,,,"[""comma""]",0,[0.28700000000003456],4,0,4,0,1,,
,,,,,,,,,,,,5fa925f7a78e1e0008f13a21,24,Mężczyzna,2022-06-11_09h33.05.391,task,2021.1.4,Win32,59.61607249,6299f149e92ead563fba08ef,62a445238243bc97e1b46759,,,,,,,,,,,,,,,,,,,,,,,,,,,,,,,,,,,,,,,,,,,,,,,,,,,,,,,,,,,,,,,,,,,,,,,,,,,,,,,,,,,,,,,,,,,,"[""comma""]",0,[0.2827999999523172],5,0,5,0,1,,
,,,,,,,,,,,,5fa925f7a78e1e0008f13a21,24,Mężczyzna,2022-06-11_09h33.05.391,task,2021.1.4,Win32,59.61607249,6299f149e92ead563fba08ef,62a445238243bc97e1b46759,,,,,,,,,,,,,,,,,,,,,,,,,,,,,,,,,,,,,,,,,,,,,,,,,,,,,,,,,,,,,,,,,,,,,,,,,,,,,,,,,,,,,,,,,,,,"[""period""]",0,[0.29150000000004184],6,0,6,0,1,,
,,,,,,,,,,,,5fa925f7a78e1e0008f13a21,24,Mężczyzna,2022-06-11_09h33.05.391,task,2021.1.4,Win32,59.61607249,6299f149e92ead563fba08ef,62a445238243bc97e1b46759,,,,,,,,,,,,,,,,,,,,,,,,,,,,,,,,,,,,,,,,,,,,,,,,,,,,,,,,,,,,,,,,,,,,,,,,,,,,,,,,,,,,,,,,,,,,"[""period""]",0,[0.2825000000000273],7,0,7,0,1,,
,,,,,,,,,,,,5fa925f7a78e1e0008f13a21,24,Mężczyzna,2022-06-11_09h33.05.391,task,2021.1.4,Win32,59.61607249,6299f149e92ead563fba08ef,62a445238243bc97e1b46759,,,,,,,,,,,,,,,,,,,,,,,,,,,,,,,,,,,,,,,,,,,,,,,,,,,,,,,,,,,,,,,,,,,,,,,,,,,,,,,,,,,,,,,,,,,,"[""comma"",""comma""]",0,"[0.2573999999762009,1.8992999999522908]",8,0,8,0,1,,
,,,,,,,,,,,,5fa925f7a78e1e0008f13a21,24,Mężczyzna,2022-06-11_09h33.05.391,task,2021.1.4,Win32,59.61607249,6299f149e92ead563fba08ef,62a445238243bc97e1b46759,,,,,,,,,,,,,,,,,,,,,,,,,,,,,,,,,,,,,,,,,,,,,,,,,,,,,,,,,,,,,,,,,,,,,,,,,,,,,,,,,,,,,,,,,,,,"[""period""]",0,[1.6201000000238537],9,0,9,0,1,,
,,,,,,,,,,,,5fa925f7a78e1e0008f13a21,24,Mężczyzna,2022-06-11_09h33.05.391,task,2021.1.4,Win32,59.61607249,6299f149e92ead563fba08ef,62a445238243bc97e1b46759,,,,,,,,,,,,,,,,,,,,,,,,,,,,,,,,,,,,,,,,,,,,,,,,,,,,,,,,,,,,,,,,,,,,,,,,,,,,,,,,,,,,,,,,,,,,,0,,10,0,10,0,1,,
,,,,,,,,,,,,5fa925f7a78e1e0008f13a21,24,Mężczyzna,2022-06-11_09h33.05.391,task,2021.1.4,Win32,59.61607249,6299f149e92ead563fba08ef,62a445238243bc97e1b46759,,,,,,,,,,,,,,,,,,,,,,,,,,,,,,,,,,,,,,,,,,,,,,,,,,,,,,,,,,,,,,,,,,,,,,,,,,,,,,,,,,,,,,,,,,,,"[""comma""]",0,[0.2671999999284935],11,0,11,0,1,,
,,,,,,,,,,,,5fa925f7a78e1e0008f13a21,24,Mężczyzna,2022-06-11_09h33.05.391,task,2021.1.4,Win32,59.61607249,6299f149e92ead563fba08ef,62a445238243bc97e1b46759,,,,,,,,,,,,,,,,,,,,,,,,,,,,,,,,,,,,,,,,,,,,,,,,,,,,,,,,,,,,,,,,,,,,,,,,,,,,,,,,,,,,,,,,,,,,"[""period""]",0,[0.21790000009536925],12,0,12,0,1,,
,,,,,,,,,,,,5fa925f7a78e1e0008f13a21,24,Mężczyzna,2022-06-11_09h33.05.391,task,2021.1.4,Win32,59.61607249,6299f149e92ead563fba08ef,62a445238243bc97e1b46759,,,,,,,,,,,,,,,,,,,,,,,,,,,,,,,,,,,,,,,,,,,,,,,,,,,,,,,,,,,,,,,,,,,,,,,,,,,,,,,,,,,,,,,,,,,,"[""comma""]",0,[0.27840000009541654],13,0,13,0,1,,
,,,,,,,,,,,,5fa925f7a78e1e0008f13a21,24,Mężczyzna,2022-06-11_09h33.05.391,task,2021.1.4,Win32,59.61607249,6299f149e92ead563fba08ef,62a445238243bc97e1b46759,,,,,,,,,,,,,,,,,,,,,,,,,,,,,,,,,,,,,,,,,,,,,,,,,,,,,,,,,,,,,,,,,,,,,,,,,,,,,,,,,,,,,,,,,,,,"[""comma""]",0,[0.4674999999999727],14,0,14,0,1,,
,,,,,,,,,,,,5fa925f7a78e1e0008f13a21,24,Mężczyzna,2022-06-11_09h33.05.391,task,2021.1.4,Win32,59.61607249,6299f149e92ead563fba08ef,62a445238243bc97e1b46759,,,,,,,,,,,,,,,,,,,,,,,,,,,,,,,,,,,,,,,,,,,,,,,,,,,,,,,,,,,,,,,,,,,,,,,,,,,,,,,,,,,,,,,,,,,,"[""comma""]",0,[0.2988000000715374],15,0,15,0,1,,
,,,,,,,,,,,,5fa925f7a78e1e0008f13a21,24,Mężczyzna,2022-06-11_09h33.05.391,task,2021.1.4,Win32,59.61607249,6299f149e92ead563fba08ef,62a445238243bc97e1b46759,,,,,,,,,,,,,,,,,,,,,,,,,,,,,,,,,,,,,,,,,,,,,,,,,,,,,,,,,,,,,,,,,,,,,,,,,,,,,,,,,,,,,,,,,,,,"[""comma""]",0,[0.27210000002378365],16,0,16,0,1,,
,,,,,,,,,,,,5fa925f7a78e1e0008f13a21,24,Mężczyzna,2022-06-11_09h33.05.391,task,2021.1.4,Win32,59.61607249,6299f149e92ead563fba08ef,62a445238243bc97e1b46759,,,,,,,,,,,,,,,,,,,,,,,,,,,,,,,,,,,,,,,,,,,,,,,,,,,,,,,,,,,,,,,,,,,,,,,,,,,,,,,,,,,,,,,,,,,,"[""period""]",0,[0.26149999999995543],17,0,17,0,1,,
,,,,,,,,,,,,5fa925f7a78e1e0008f13a21,24,Mężczyzna,2022-06-11_09h33.05.391,task,2021.1.4,Win32,59.61607249,6299f149e92ead563fba08ef,62a445238243bc97e1b46759,,,,,,,,,,,,,,,,,,,,,,,,,,,,,,,,,,,,,,,,,,,,,,,,,,,,,,,,,,,,,,,,,,,,,,,,,,,,,,,,,,,,,,,,,,,,"[""comma""]",0,[0.2667999999522408],18,0,18,0,1,,
,,,,,,,,,,,,5fa925f7a78e1e0008f13a21,24,Mężczyzna,2022-06-11_09h33.05.391,task,2021.1.4,Win32,59.61607249,6299f149e92ead563fba08ef,62a445238243bc97e1b46759,,,,,,,,,,,,,,,,,,,,,,,,,,,,,,,,,,,,,,,,,,,,,,,,,,,,,,,,,,,,,,,,,,,,,,,,,,,,,,,,,,,,,,,,,,,,"[""period""]",0,[0.2165999999047017],19,0,19,0,1,,
,,,,,,,,,,,,5fa925f7a78e1e0008f13a21,24,Mężczyzna,2022-06-11_09h33.05.391,task,2021.1.4,Win32,59.61607249,6299f149e92ead563fba08ef,62a445238243bc97e1b46759,,,,,,,,,,,,,,,,,,,,,,,,,,,,,,,,,,,,,,,,,,,,,,,,,,,,,,,,,,,,,,,,,,,,,,,,,,,,,,,,,,,,,,,,,,,,"[""period""]",0,[0.21600000000000819],20,0,20,0,1,,
,,,,,,,,,,,,5fa925f7a78e1e0008f13a21,24,Mężczyzna,2022-06-11_09h33.05.391,task,2021.1.4,Win32,59.61607249,6299f149e92ead563fba08ef,62a445238243bc97e1b46759,,,,,,,,,,,,,,,,,,,,,,,,,,,,,,,,,,,,,,,,,,,,,,,,,,,,,,,,,,,,,,,,,,,,,,,,,,,,,,,,,,,,,,,,,,,,"[""period""]",0,[0.24450000000001637],21,0,21,0,1,,
,,,,,,,,,,,,5fa925f7a78e1e0008f13a21,24,Mężczyzna,2022-06-11_09h33.05.391,task,2021.1.4,Win32,59.61607249,6299f149e92ead563fba08ef,62a445238243bc97e1b46759,,,,,,,,,,,,,,,,,,,,,,,,,,,,,,,,,,,,,,,,,,,,,,,,,,,,,,,,,,,,,,,,,,,,,,,,,,,,,,,,,,,,,,,,,,,,"[""period""]",0,[0.2677000000477392],22,0,22,0,1,,
,,,,,,,,,,,,5fa925f7a78e1e0008f13a21,24,Mężczyzna,2022-06-11_09h33.05.391,task,2021.1.4,Win32,59.61607249,6299f149e92ead563fba08ef,62a445238243bc97e1b46759,,,,,,,,,,,,,,,,,,,,,,,,,,,,,,,,,,,,,,,,,,,,,,,,,,,,,,,,,,,,,,,,,,,,,,,,,,,,,,,,,,,,,,,,,,,,"[""period""]",0,[0.24419999992846897],23,0,23,0,1,,
,,,,,,,,,,,,5fa925f7a78e1e0008f13a21,24,Mężczyzna,2022-06-11_09h33.05.391,task,2021.1.4,Win32,59.61607249,6299f149e92ead563fba08ef,62a445238243bc97e1b46759,,,,,,,,,,,,,,,,,,,,,,,,,,,,,,,,,,,,,,,,,,,,,,,,,,,,,,,,,,,,,,,,,,,,,,,,,,,,,,,,,,,,,,,,,,,,"[""period""]",0,[0.3113999999761745],24,0,24,0,1,,
,,,,,,,,,,,,5fa925f7a78e1e0008f13a21,24,Mężczyzna,2022-06-11_09h33.05.391,task,2021.1.4,Win32,59.61607249,6299f149e92ead563fba08ef,62a445238243bc97e1b46759,,,,,,,,,,,,,,,,,,,,,,,,,,,,,,,,,,,,,,,,,,,,,,,,,,,,,,,,,,,,,,,,,,,,,,,,,,,,,,,,,,,,,,,,,,,,"[""comma""]",0,[0.23950000000002092],25,0,25,0,1,,
,,,,,,,,,,,,5fa925f7a78e1e0008f13a21,24,Mężczyzna,2022-06-11_09h33.05.391,task,2021.1.4,Win32,59.61607249,6299f149e92ead563fba08ef,62a445238243bc97e1b46759,,,,,,,,,,,,,,,,,,,,,,,,,,,,,,,,,,,,,,,,,,,,,,,,,,,,,,,,,,,,,,,,,,,,,,,,,,,,,,,,,,,,,,,,,,,,"[""period""]",0,[0.24910000002387278],26,0,26,0,1,,
,,,,,,,,,,,,5fa925f7a78e1e0008f13a21,24,Mężczyzna,2022-06-11_09h33.05.391,task,2021.1.4,Win32,59.61607249,6299f149e92ead563fba08ef,62a445238243bc97e1b46759,,,,,,,,,,,,,,,,,,,,,,,,,,,,,,,,,,,,,,,,,,,,,,,,,,,,,,,,,,,,,,,,,,,,,,,,,,,,,,,,,,,,,,,,,,,,"[""period""]",0,[0.03230000007158651],27,0,27,0,1,,
,,,,,,,,,,,,5fa925f7a78e1e0008f13a21,24,Mężczyzna,2022-06-11_09h33.05.391,task,2021.1.4,Win32,59.61607249,6299f149e92ead563fba08ef,62a445238243bc97e1b46759,,,,,,,,,,,,,,,,,,,,,,,,,,,,,,,,,,,,,,,,,,,,,,,,,,,,,,,,,,,,,,,,,,,,,,,,,,,,,,,,,,,,,,,,,,,,"[""comma""]",0,[0.205799999952319],28,0,28,0,1,,
,,,,,,,,,,,,5fa925f7a78e1e0008f13a21,24,Mężczyzna,2022-06-11_09h33.05.391,task,2021.1.4,Win32,59.61607249,6299f149e92ead563fba08ef,62a445238243bc97e1b46759,,,,,,,,,,,,,,,,,,,,,,,,,,,,,,,,,,,,,,,,,,,,,,,,,,,,,,,,,,,,,,,,,,,,,,,,,,,,,,,,,,,,,,,,,,,,"[""comma""]",0,[0.22580000007155832],29,0,29,0,1,,
,,,,,,,,,,,,5fa925f7a78e1e0008f13a21,24,Mężczyzna,2022-06-11_09h33.05.391,task,2021.1.4,Win32,59.61607249,6299f149e92ead563fba08ef,62a445238243bc97e1b46759,,,,,,,,,,,,,,,,,,,,,,,,,,,,,,,,,,,,,,,,,,,,,,,,,,,,,,,,,,,,,,,,,,,,,,,,,,,,,,,,,,,,,,,,,,,,"[""period""]",0,[0.20669999992844623],30,0,30,0,1,,
,,,,,,,,,,,,5fa925f7a78e1e0008f13a21,24,Mężczyzna,2022-06-11_09h33.05.391,task,2021.1.4,Win32,59.61607249,6299f149e92ead563fba08ef,62a445238243bc97e1b46759,,,,,,,,,,,,,,,,,,,,,,,,,,,,,,,,,,,,,,,,,,,,,,,,,,,,,,,,,,,,,,,,,,,,,,,,,,,,,,,,,,,,,,,,,,,,"[""comma""]",0,[0.22080000007156286],31,0,31,0,1,,
,,,,,,,,,,,,5fa925f7a78e1e0008f13a21,24,Mężczyzna,2022-06-11_09h33.05.391,task,2021.1.4,Win32,59.61607249,6299f149e92ead563fba08ef,62a445238243bc97e1b46759,,,,,,,,,,,,,,,,,,,,,,,,,,,,,,,,,,,,,,,,,,,,,,,,,,,,,,,,,,,,,,,,,,,,,,,,,,,,,,,,,,,,,,,,,,,,"[""period""]",0,[0.234300000071471],32,0,32,0,1,,
,,,,,,,,,,,,5fa925f7a78e1e0008f13a21,24,Mężczyzna,2022-06-11_09h33.05.391,task,2021.1.4,Win32,59.61607249,6299f149e92ead563fba08ef,62a445238243bc97e1b46759,,,,,,,,,,,,,,,,,,,,,,,,,,,,,,,,,,,,,,,,,,,,,,,,,,,,,,,,,,,,,,,,,,,,,,,,,,,,,,,,,,,,,,,,,,,,"[""comma""]",0,[0.24319999992837893],33,0,33,0,1,,
,,,,,,,,,,,,5fa925f7a78e1e0008f13a21,24,Mężczyzna,2022-06-11_09h33.05.391,task,2021.1.4,Win32,59.61607249,6299f149e92ead563fba08ef,62a445238243bc97e1b46759,,,,,,,,,,,,,,,,,,,,,,,,,,,,,,,,,,,,,,,,,,,,,,,,,,,,,,,,,,,,,,,,,,,,,,,,,,,,,,,,,,,,,,,,,,,,"[""comma""]",0,[0.17439999997611721],34,0,34,0,1,,
,,,,,,,,,,,,5fa925f7a78e1e0008f13a21,24,Mężczyzna,2022-06-11_09h33.05.391,task,2021.1.4,Win32,59.61607249,6299f149e92ead563fba08ef,62a445238243bc97e1b46759,,,,,,,,,,,,,,,,,,,,,,,,,,,,,,,,,,,,,,,,,,,,,,,,,,,,,,,,,,,,,,,,,,,,,,,,,,,,,,,,,,,,,,,,,,,,"[""period""]",0,[0.21600000000000819],35,0,35,0,1,,
,,,,,,,,,,,,5fa925f7a78e1e0008f13a21,24,Mężczyzna,2022-06-11_09h33.05.391,task,2021.1.4,Win32,59.61607249,6299f149e92ead563fba08ef,62a445238243bc97e1b46759,,,,,,,,,,,,,,,,,,,,,,,,,,,,,,,,,,,,,,,,,,,,,,,,,,,,,,,,,,,,,,,,,,,,,,,,,,,,,,,,,,,,,,,,,,,,"[""comma""]",0,[0.23710000002392917],36,0,36,0,1,,
,,,,,,,,,,,,5fa925f7a78e1e0008f13a21,24,Mężczyzna,2022-06-11_09h33.05.391,task,2021.1.4,Win32,59.61607249,6299f149e92ead563fba08ef,62a445238243bc97e1b46759,,,,,,,,,,,,,,,,,,,,,,,,,,,,,,,,,,,,,,,,,,,,,,,,,,,,,,,,,,,,,,,,,,,,,,,,,,,,,,,,,,,,,,,,,,,,"[""period""]",0,[0.21760000002393554],37,0,37,0,1,,
,,,,,,,,,,,,5fa925f7a78e1e0008f13a21,24,Mężczyzna,2022-06-11_09h33.05.391,task,2021.1.4,Win32,59.61607249,6299f149e92ead563fba08ef,62a445238243bc97e1b46759,,,,,,,,,,,,,,,,,,,,,,,,,,,,,,,,,,,,,,,,,,,,,,,,,,,,,,,,,,,,,,,,,,,,,,,,,,,,,,,,,,,,,,,,,,,,"[""comma""]",0,[0.1743999999762309],38,0,38,0,1,,
,,,,,,,,,,,,5fa925f7a78e1e0008f13a21,24,Mężczyzna,2022-06-11_09h33.05.391,task,2021.1.4,Win32,59.61607249,6299f149e92ead563fba08ef,62a445238243bc97e1b46759,,,,,,,,,,,,,,,,,,,,,,,,,,,,,,,,,,,,,,,,,,,,,,,,,,,,,,,,,,,,,,,,,,,,,,,,,,,,,,,,,,,,,,,,,,,,"[""comma""]",0,[0.4318000000714619],39,0,39,0,1,,
,,,,,,,,,,,,5fa925f7a78e1e0008f13a21,24,Mężczyzna,2022-06-11_09h33.05.391,task,2021.1.4,Win32,59.61607249,6299f149e92ead563fba08ef,62a445238243bc97e1b46759,,,,,,,,,,,,,,,,,,,,,,,,,,,,,,,,,,,,,,,,,,,,,,,,,,,,,,,,,,,,,,,,,,,,,,,,,,,,,,,,,,,,,,,,,,,,"[""comma""]",0,[0.25610000002382094],40,0,40,0,1,,
,,,,,,,,,,,,5fa925f7a78e1e0008f13a21,24,Mężczyzna,2022-06-11_09h33.05.391,task,2021.1.4,Win32,59.61607249,6299f149e92ead563fba08ef,62a445238243bc97e1b46759,,,,,,,,,,,,,,,,,,,,,,,,,,,,,,,,,,,,,,,,,,,,,,,,,,,,,,,,,,,,,,,,,,,,,,,,,,,,,,,,,,,,,,,,,,,,"[""period""]",0,[0.19910000002391826],41,0,41,0,1,,
,,,,,,,,,,,,5fa925f7a78e1e0008f13a21,24,Mężczyzna,2022-06-11_09h33.05.391,task,2021.1.4,Win32,59.61607249,6299f149e92ead563fba08ef,62a445238243bc97e1b46759,,,,,,,,,,,,,,,,,,,,,,,,,,,,,,,,,,,,,,,,,,,,,,,,,,,,,,,,,,,,,,,,,,,,,,,,,,,,,,,,,,,,,,,,,,,,"[""comma""]",0,[0.24900000000002365],42,0,42,0,1,,
,,,,,,,,,,,,5fa925f7a78e1e0008f13a21,24,Mężczyzna,2022-06-11_09h33.05.391,task,2021.1.4,Win32,59.61607249,6299f149e92ead563fba08ef,62a445238243bc97e1b46759,,,,,,,,,,,,,,,,,,,,,,,,,,,,,,,,,,,,,,,,,,,,,,,,,,,,,,,,,,,,,,,,,,,,,,,,,,,,,,,,,,,,,,,,,,,,"[""period""]",0,[0.22400000000004638],43,0,43,0,1,,
,,,,,,,,,,,,5fa925f7a78e1e0008f13a21,24,Mężczyzna,2022-06-11_09h33.05.391,task,2021.1.4,Win32,59.61607249,6299f149e92ead563fba08ef,62a445238243bc97e1b46759,,,,,,,,,,,,,,,,,,,,,,,,,,,,,,,,,,,,,,,,,,,,,,,,,,,,,,,,,,,,,,,,,,,,,,,,,,,,,,,,,,,,,,,,,,,,"[""period""]",0,[0.20050000000003365],44,0,44,0,1,,
,,,,,,,,,,,,5fa925f7a78e1e0008f13a21,24,Mężczyzna,2022-06-11_09h33.05.391,task,2021.1.4,Win32,59.61607249,6299f149e92ead563fba08ef,62a445238243bc97e1b46759,,,,,,,,,,,,,,,,,,,,,,,,,,,,,,,,,,,,,,,,,,,,,,,,,,,,,,,,,,,,,,,,,,,,,,,,,,,,,,,,,,,,,,,,,,,,"[""comma""]",0,[0.23289999997609812],45,0,45,0,1,,
,,,,,,,,,,,,5fa925f7a78e1e0008f13a21,24,Mężczyzna,2022-06-11_09h33.05.391,task,2021.1.4,Win32,59.61607249,6299f149e92ead563fba08ef,62a445238243bc97e1b46759,,,,,,,,,,,,,,,,,,,,,,,,,,,,,,,,,,,,,,,,,,,,,,,,,,,,,,,,,,,,,,,,,,,,,,,,,,,,,,,,,,,,,,,,,,,,"[""period""]",0,[0.16619999992849444],46,0,46,0,1,,
,,,,,,,,,,,,5fa925f7a78e1e0008f13a21,24,Mężczyzna,2022-06-11_09h33.05.391,task,2021.1.4,Win32,59.61607249,6299f149e92ead563fba08ef,62a445238243bc97e1b46759,,,,,,,,,,,,,,,,,,,,,,,,,,,,,,,,,,,,,,,,,,,,,,,,,,,,,,,,,,,,,,,,,,,,,,,,,,,,,,,,,,,,,,,,,,,,"[""comma""]",0,[0.2448999999761554],47,0,47,0,1,,
,,,,,,,,,,,,5fa925f7a78e1e0008f13a21,24,Mężczyzna,2022-06-11_09h33.05.391,task,2021.1.4,Win32,59.61607249,6299f149e92ead563fba08ef,62a445238243bc97e1b46759,,,,,,,,,,,,,,,,,,,,,,,,,,,,,,,,,,,,,,,,,,,,,,,,,,,,,,,,,,,,,,,,,,,,,,,,,,,,,,,,,,,,,,,,,,,,"[""comma""]",0,[0.2348999999761645],48,0,48,0,1,,
,,,,,,,,,,,,5fa925f7a78e1e0008f13a21,24,Mężczyzna,2022-06-11_09h33.05.391,task,2021.1.4,Win32,59.61607249,6299f149e92ead563fba08ef,62a445238243bc97e1b46759,,,,,,,,,,,,,,,,,,,,,,,,,,,,,,,,,,,,,,,,,,,,,,,,,,,,,,,,,,,,,,,,,,,,,,,,,,,,,,,,,,,,,,,,,,,,"[""comma""]",0,[0.20029999995233538],49,0,49,0,1,,
,,,,,,,,,,,,5fa925f7a78e1e0008f13a21,24,Mężczyzna,2022-06-11_09h33.05.391,task,2021.1.4,Win32,59.61607249,6299f149e92ead563fba08ef,62a445238243bc97e1b46759,,,,,,,,,,,,,,,,,,,,,,,,,,,,,,,,,,,,,,,,,,,,,,,,,,,,,,,,,,,,,,,,,,,,,,,,,,,,,,,,,,,,,,,,,,,,"[""period"",""period""]",0,"[0.12689999997610357,1.9153999999761027]",50,0,50,0,1,,
,,,,,,,,,,,,5fa925f7a78e1e0008f13a21,24,Mężczyzna,2022-06-11_09h33.05.391,task,2021.1.4,Win32,59.61607249,6299f149e92ead563fba08ef,62a445238243bc97e1b46759,,,,,,,,,,,,,,,,,,,,,,,,,,,,,,,,,,,,,,,,,,,,,,,,,,,,,,,,,,,,,,,,,,,,,,,,,,,,,,,,,,,,,,,,,,,,,0,,51,0,51,0,1,,
,,,,,,,,,,,,5fa925f7a78e1e0008f13a21,24,Mężczyzna,2022-06-11_09h33.05.391,task,2021.1.4,Win32,59.61607249,6299f149e92ead563fba08ef,62a445238243bc97e1b46759,,,,,,,,,,,,,,,,,,,,,,,,,,,,,,,,,,,,,,,,,,,,,,,,,,,,,,,,,,,,,,,,,,,,,,,,,,,,,,,,,,,,,,,,,,,,"[""period""]",0,[0.06889999997611085],52,0,52,0,1,,
,,,,,,,,,,,,5fa925f7a78e1e0008f13a21,24,Mężczyzna,2022-06-11_09h33.05.391,task,2021.1.4,Win32,59.61607249,6299f149e92ead563fba08ef,62a445238243bc97e1b46759,,,,,,,,,,,,,,,,,,,,,,,,,,,,,,,,,,,,,,,,,,,,,,,,,,,,,,,,,,,,,,,,,,,,,,,,,,,,,,,,,,,,,,,,,,,,"[""comma""]",0,[0.31980000007149556],53,0,53,0,1,,
,,,,,,,,,,,,5fa925f7a78e1e0008f13a21,24,Mężczyzna,2022-06-11_09h33.05.391,task,2021.1.4,Win32,59.61607249,6299f149e92ead563fba08ef,62a445238243bc97e1b46759,,,,,,,,,,,,,,,,,,,,,,,,,,,,,,,,,,,,,,,,,,,,,,,,,,,,,,,,,,,,,,,,,,,,,,,,,,,,,,,,,,,,,,,,,,,,"[""period""]",0,[0.28470000004767826],54,0,54,0,1,,
,,,,,,,,,,,,5fa925f7a78e1e0008f13a21,24,Mężczyzna,2022-06-11_09h33.05.391,task,2021.1.4,Win32,59.61607249,6299f149e92ead563fba08ef,62a445238243bc97e1b46759,,,,,,,,,,,,,,,,,,,,,,,,,,,,,,,,,,,,,,,,,,,,,,,,,,,,,,,,,,,,,,,,,,,,,,,,,,,,,,,,,,,,,,,,,,,,"[""comma""]",0,[0.16759999990460983],55,0,55,0,1,,
,,,,,,,,,,,,5fa925f7a78e1e0008f13a21,24,Mężczyzna,2022-06-11_09h33.05.391,task,2021.1.4,Win32,59.61607249,6299f149e92ead563fba08ef,62a445238243bc97e1b46759,,,,,,,,,,,,,,,,,,,,,,,,,,,,,,,,,,,,,,,,,,,,,,,,,,,,,,,,,,,,,,,,,,,,,,,,,,,,,,,,,,,,,,,,,,,,"[""comma""]",0,[0.23420000004773556],56,0,56,0,1,,
,,,,,,,,,,,,5fa925f7a78e1e0008f13a21,24,Mężczyzna,2022-06-11_09h33.05.391,task,2021.1.4,Win32,59.61607249,6299f149e92ead563fba08ef,62a445238243bc97e1b46759,,,,,,,,,,,,,,,,,,,,,,,,,,,,,,,,,,,,,,,,,,,,,,,,,,,,,,,,,,,,,,,,,,,,,,,,,,,,,,,,,,,,,,,,,,,,"[""comma""]",0,[0.18540000009545565],57,0,57,0,1,,
,,,,,,,,,,,,5fa925f7a78e1e0008f13a21,24,Mężczyzna,2022-06-11_09h33.05.391,task,2021.1.4,Win32,59.61607249,6299f149e92ead563fba08ef,62a445238243bc97e1b46759,,,,,,,,,,,,,,,,,,,,,,,,,,,,,,,,,,,,,,,,,,,,,,,,,,,,,,,,,,,,,,,,,,,,,,,,,,,,,,,,,,,,,,,,,,,,"[""comma""]",0,[0.2573999999762009],58,0,58,0,1,,
,,,,,,,,,,,,5fa925f7a78e1e0008f13a21,24,Mężczyzna,2022-06-11_09h33.05.391,task,2021.1.4,Win32,59.61607249,6299f149e92ead563fba08ef,62a445238243bc97e1b46759,,,,,,,,,,,,,,,,,,,,,,,,,,,,,,,,,,,,,,,,,,,,,,,,,,,,,,,,,,,,,,,,,,,,,,,,,,,,,,,,,,,,,,,,,,,,"[""comma""]",0,[0.06909999990466531],59,0,59,0,1,,
,,,,,,,,,,,,5fa925f7a78e1e0008f13a21,24,Mężczyzna,2022-06-11_09h33.05.391,task,2021.1.4,Win32,59.61607249,6299f149e92ead563fba08ef,62a445238243bc97e1b46759,,,,,,,,,,,,,,,,,,,,,,,,,,,,,,,,,,,,,,,,,,,,,,,,,,,,,,,,,,,,,,,,,,,,,,,,,,,,,,,,,,,,,,,,,,,,"[""comma""]",0,[0.20900000000006003],60,0,60,0,1,,
,,,,,,,,,,,,5fa925f7a78e1e0008f13a21,24,Mężczyzna,2022-06-11_09h33.05.391,task,2021.1.4,Win32,59.61607249,6299f149e92ead563fba08ef,62a445238243bc97e1b46759,,,,,,,,,,,,,,,,,,,,,,,,,,,,,,,,,,,,,,,,,,,,,,,,,,,,,,,,,,,,,,,,,,,,,,,,,,,,,,,,,,,,,,,,,,,,"[""period""]",0,[0.06670000004771737],61,0,61,0,1,,
,,,,,,,,,,,,5fa925f7a78e1e0008f13a21,24,Mężczyzna,2022-06-11_09h33.05.391,task,2021.1.4,Win32,59.61607249,6299f149e92ead563fba08ef,62a445238243bc97e1b46759,,,,,,,,,,,,,,,,,,,,,,,,,,,,,,,,,,,,,,,,,,,,,,,,,,,,,,,,,,,,,,,,,,,,,,,,,,,,,,,,,,,,,,,,,,,,"[""period""]",0,[0.18700000000001182],62,0,62,0,1,,
,,,,,,,,,,,,5fa925f7a78e1e0008f13a21,24,Mężczyzna,2022-06-11_09h33.05.391,task,2021.1.4,Win32,59.61607249,6299f149e92ead563fba08ef,62a445238243bc97e1b46759,,,,,,,,,,,,,,,,,,,,,,,,,,,,,,,,,,,,,,,,,,,,,,,,,,,,,,,,,,,,,,,,,,,,,,,,,,,,,,,,,,,,,,,,,,,,"[""period""]",0,[0.2206000000238646],63,0,63,0,1,,
,,,,,,,,,,,,5fa925f7a78e1e0008f13a21,24,Mężczyzna,2022-06-11_09h33.05.391,task,2021.1.4,Win32,59.61607249,6299f149e92ead563fba08ef,62a445238243bc97e1b46759,,,,,,,,,,,,,,,,,,,,,,,,,,,,,,,,,,,,,,,,,,,,,,,,,,,,,,,,,,,,,,,,,,,,,,,,,,,,,,,,,,,,,,,,,,,,"[""comma""]",0,[0.21589999997615905],64,0,64,0,1,,
,,,,,,,,,,,,5fa925f7a78e1e0008f13a21,24,Mężczyzna,2022-06-11_09h33.05.391,task,2021.1.4,Win32,59.61607249,6299f149e92ead563fba08ef,62a445238243bc97e1b46759,,,,,,,,,,,,,,,,,,,,,,,,,,,,,,,,,,,,,,,,,,,,,,,,,,,,,,,,,,,,,,,,,,,,,,,,,,,,,,,,,,,,,,,,,,,,"[""period""]",0,[0.11120000004768826],65,0,65,0,1,,
,,,,,,,,,,,,5fa925f7a78e1e0008f13a21,24,Mężczyzna,2022-06-11_09h33.05.391,task,2021.1.4,Win32,59.61607249,6299f149e92ead563fba08ef,62a445238243bc97e1b46759,,,,,,,,,,,,,,,,,,,,,,,,,,,,,,,,,,,,,,,,,,,,,,,,,,,,,,,,,,,,,,,,,,,,,,,,,,,,,,,,,,,,,,,,,,,,"[""comma""]",0,[0.24249999999994998],66,0,66,0,1,,
,,,,,,,,,,,,5fa925f7a78e1e0008f13a21,24,Mężczyzna,2022-06-11_09h33.05.391,task,2021.1.4,Win32,59.61607249,6299f149e92ead563fba08ef,62a445238243bc97e1b46759,,,,,,,,,,,,,,,,,,,,,,,,,,,,,,,,,,,,,,,,,,,,,,,,,,,,,,,,,,,,,,,,,,,,,,,,,,,,,,,,,,,,,,,,,,,,"[""period""]",0,[0.016999999999939064],67,0,67,0,1,,
,,,,,,,,,,,,5fa925f7a78e1e0008f13a21,24,Mężczyzna,2022-06-11_09h33.05.391,task,2021.1.4,Win32,59.61607249,6299f149e92ead563fba08ef,62a445238243bc97e1b46759,,,,,,,,,,,,,,,,,,,,,,,,,,,,,,,,,,,,,,,,,,,,,,,,,,,,,,,,,,,,,,,,,,,,,,,,,,,,,,,,,,,,,,,,,,,,"[""comma""]",0,[0.23730000007151375],68,0,68,0,1,,
,,,,,,,,,,,,5fa925f7a78e1e0008f13a21,24,Mężczyzna,2022-06-11_09h33.05.391,task,2021.1.4,Win32,59.61607249,6299f149e92ead563fba08ef,62a445238243bc97e1b46759,,,,,,,,,,,,,,,,,,,,,,,,,,,,,,,,,,,,,,,,,,,,,,,,,,,,,,,,,,,,,,,,,,,,,,,,,,,,,,,,,,,,,,,,,,,,"[""comma""]",0,[0.23960000002375637],69,0,69,0,1,,
,,,,,,,,,,,,5fa925f7a78e1e0008f13a21,24,Mężczyzna,2022-06-11_09h33.05.391,task,2021.1.4,Win32,59.61607249,6299f149e92ead563fba08ef,62a445238243bc97e1b46759,,,,,,,,,,,,,,,,,,,,,,,,,,,,,,,,,,,,,,,,,,,,,,,,,,,,,,,,,,,,,,,,,,,,,,,,,,,,,,,,,,,,,,,,,,,,"[""period""]",0,[0.26689999997597624],70,0,70,0,1,,
,,,,,,,,,,,,5fa925f7a78e1e0008f13a21,24,Mężczyzna,2022-06-11_09h33.05.391,task,2021.1.4,Win32,59.61607249,6299f149e92ead563fba08ef,62a445238243bc97e1b46759,,,,,,,,,,,,,,,,,,,,,,,,,,,,,,,,,,,,,,,,,,,,,,,,,,,,,,,,,,,,,,,,,,,,,,,,,,,,,,,,,,,,,,,,,,,,"[""comma""]",0,[0.26099999999996726],71,0,71,0,1,,
,,,,,,,,,,,,5fa925f7a78e1e0008f13a21,24,Mężczyzna,2022-06-11_09h33.05.391,task,2021.1.4,Win32,59.61607249,6299f149e92ead563fba08ef,62a445238243bc97e1b46759,,,,,,,,,,,,,,,,,,,,,,,,,,,,,,,,,,,,,,,,,,,,,,,,,,,,,,,,,,,,,,,,,,,,,,,,,,,,,,,,,,,,,,,,,,,,"[""period""]",0,[0.17300000000000182],72,0,72,0,1,,
,,,,,,,,,,,,5fa925f7a78e1e0008f13a21,24,Mężczyzna,2022-06-11_09h33.05.391,task,2021.1.4,Win32,59.61607249,6299f149e92ead563fba08ef,62a445238243bc97e1b46759,,,,,,,,,,,,,,,,,,,,,,,,,,,,,,,,,,,,,,,,,,,,,,,,,,,,,,,,,,,,,,,,,,,,,,,,,,,,,,,,,,,,,,,,,,,,"[""period""]",0,[0.19879999995214348],73,0,73,0,1,,
,,,,,,,,,,,,5fa925f7a78e1e0008f13a21,24,Mężczyzna,2022-06-11_09h33.05.391,task,2021.1.4,Win32,59.61607249,6299f149e92ead563fba08ef,62a445238243bc97e1b46759,,,,,,,,,,,,,,,,,,,,,,,,,,,,,,,,,,,,,,,,,,,,,,,,,,,,,,,,,,,,,,,,,,,,,,,,,,,,,,,,,,,,,,,,,,,,"[""period""]",0,[0.26499999999987267],74,0,74,0,1,,
,,,,,,,,,,,,5fa925f7a78e1e0008f13a21,24,Mężczyzna,2022-06-11_09h33.05.391,task,2021.1.4,Win32,59.61607249,6299f149e92ead563fba08ef,62a445238243bc97e1b46759,,,,,,,,,,,,,,,,,,,,,,,,,,,,,,,,,,,,,,,,,,,,,,,,,,,,,,,,,,,,,,,,,,,,,,,,,,,,,,,,,,,,,,,,,,,,"[""comma""]",0,[0.26700000000005275],75,0,75,0,1,,
,,,,,,,,,,,,5fa925f7a78e1e0008f13a21,24,Mężczyzna,2022-06-11_09h33.05.391,task,2021.1.4,Win32,59.61607249,6299f149e92ead563fba08ef,62a445238243bc97e1b46759,,,,,,,,,,,,,,,,,,,,,,,,,,,,,,,,,,,,,,,,,,,,,,,,,,,,,,,,,,,,,,,,,,,,,,,,,,,,,,,,,,,,,,,,,,,,"[""comma""]",0,[0.23530000007144736],76,0,76,0,1,,
,,,,,,,,,,,,5fa925f7a78e1e0008f13a21,24,Mężczyzna,2022-06-11_09h33.05.391,task,2021.1.4,Win32,59.61607249,6299f149e92ead563fba08ef,62a445238243bc97e1b46759,,,,,,,,,,,,,,,,,,,,,,,,,,,,,,,,,,,,,,,,,,,,,,,,,,,,,,,,,,,,,,,,,,,,,,,,,,,,,,,,,,,,,,,,,,,,"[""comma""]",0,[0.25590000009538016],77,0,77,0,1,,
,,,,,,,,,,,,5fa925f7a78e1e0008f13a21,24,Mężczyzna,2022-06-11_09h33.05.391,task,2021.1.4,Win32,59.61607249,6299f149e92ead563fba08ef,62a445238243bc97e1b46759,,,,,,,,,,,,,,,,,,,,,,,,,,,,,,,,,,,,,,,,,,,,,,,,,,,,,,,,,,,,,,,,,,,,,,,,,,,,,,,,,,,,,,,,,,,,"[""comma""]",0,[0.2580000000000382],78,0,78,0,1,,
,,,,,,,,,,,,5fa925f7a78e1e0008f13a21,24,Mężczyzna,2022-06-11_09h33.05.391,task,2021.1.4,Win32,59.61607249,6299f149e92ead563fba08ef,62a445238243bc97e1b46759,,,,,,,,,,,,,,,,,,,,,,,,,,,,,,,,,,,,,,,,,,,,,,,,,,,,,,,,,,,,,,,,,,,,,,,,,,,,,,,,,,,,,,,,,,,,"[""comma""]",0,[0.29920000004767644],79,0,79,0,1,,
,,,,,,,,,,,,5fa925f7a78e1e0008f13a21,24,Mężczyzna,2022-06-11_09h33.05.391,task,2021.1.4,Win32,59.61607249,6299f149e92ead563fba08ef,62a445238243bc97e1b46759,,,,,,,,,,,,,,,,,,,,,,,,,,,,,,,,,,,,,,,,,,,,,,,,,,,,,,,,,,,,,,,,,,,,,,,,,,,,,,,,,,,,,,,,,,,,"[""comma""]",0,[0.2938999999762473],80,0,80,0,1,,
,,,,,,,,,,,,5fa925f7a78e1e0008f13a21,24,Mężczyzna,2022-06-11_09h33.05.391,task,2021.1.4,Win32,59.61607249,6299f149e92ead563fba08ef,62a445238243bc97e1b46759,,,,,,,,,,,,,,,,,,,,,,,,,,,,,,,,,,,,,,,,,,,,,,,,,,,,,,,,,,,,,,,,,,,,,,,,,,,,,,,,,,,,,,,,,,,,"[""period""]",0,[0.21849999999994907],81,0,81,0,1,,
,,,,,,,,,,,,5fa925f7a78e1e0008f13a21,24,Mężczyzna,2022-06-11_09h33.05.391,task,2021.1.4,Win32,59.61607249,6299f149e92ead563fba08ef,62a445238243bc97e1b46759,,,,,,,,,,,,,,,,,,,,,,,,,,,,,,,,,,,,,,,,,,,,,,,,,,,,,,,,,,,,,,,,,,,,,,,,,,,,,,,,,,,,,,,,,,,,"[""period""]",0,[0.24130000007153285],82,0,82,0,1,,
,,,,,,,,,,,,5fa925f7a78e1e0008f13a21,24,Mężczyzna,2022-06-11_09h33.05.391,task,2021.1.4,Win32,59.61607249,6299f149e92ead563fba08ef,62a445238243bc97e1b46759,,,,,,,,,,,,,,,,,,,,,,,,,,,,,,,,,,,,,,,,,,,,,,,,,,,,,,,,,,,,,,,,,,,,,,,,,,,,,,,,,,,,,,,,,,,,"[""comma""]",0,[0.24230000007173658],83,0,83,0,1,,
,,,,,,,,,,,,5fa925f7a78e1e0008f13a21,24,Mężczyzna,2022-06-11_09h33.05.391,task,2021.1.4,Win32,59.61607249,6299f149e92ead563fba08ef,62a445238243bc97e1b46759,,,,,,,,,,,,,,,,,,,,,,,,,,,,,,,,,,,,,,,,,,,,,,,,,,,,,,,,,,,,,,,,,,,,,,,,,,,,,,,,,,,,,,,,,,,,"[""comma""]",0,[0.19189999997615814],84,0,84,0,1,,
,,,,,,,,,,,,5fa925f7a78e1e0008f13a21,24,Mężczyzna,2022-06-11_09h33.05.391,task,2021.1.4,Win32,59.61607249,6299f149e92ead563fba08ef,62a445238243bc97e1b46759,,,,,,,,,,,,,,,,,,,,,,,,,,,,,,,,,,,,,,,,,,,,,,,,,,,,,,,,,,,,,,,,,,,,,,,,,,,,,,,,,,,,,,,,,,,,"[""period""]",0,[0.21820000004754547],85,0,85,0,1,,
,,,,,,,,,,,,5fa925f7a78e1e0008f13a21,24,Mężczyzna,2022-06-11_09h33.05.391,task,2021.1.4,Win32,59.61607249,6299f149e92ead563fba08ef,62a445238243bc97e1b46759,,,,,,,,,,,,,,,,,,,,,,,,,,,,,,,,,,,,,,,,,,,,,,,,,,,,,,,,,,,,,,,,,,,,,,,,,,,,,,,,,,,,,,,,,,,,"[""period""]",0,[0.21079999995231447],86,0,86,0,1,,
,,,,,,,,,,,,5fa925f7a78e1e0008f13a21,24,Mężczyzna,2022-06-11_09h33.05.391,task,2021.1.4,Win32,59.61607249,6299f149e92ead563fba08ef,62a445238243bc97e1b46759,,,,,,,,,,,,,,,,,,,,,,,,,,,,,,,,,,,,,,,,,,,,,,,,,,,,,,,,,,,,,,,,,,,,,,,,,,,,,,,,,,,,,,,,,,,,"[""period""]",0,[0.26789999997617997],87,0,87,0,1,,
,,,,,,,,,,,,5fa925f7a78e1e0008f13a21,24,Mężczyzna,2022-06-11_09h33.05.391,task,2021.1.4,Win32,59.61607249,6299f149e92ead563fba08ef,62a445238243bc97e1b46759,,,,,,,,,,,,,,,,,,,,,,,,,,,,,,,,,,,,,,,,,,,,,,,,,,,,,,,,,,,,,,,,,,,,,,,,,,,,,,,,,,,,,,,,,,,,"[""comma""]",0,[0.24099999999998545],88,0,88,0,1,,
,,,,,,,,,,,,5fa925f7a78e1e0008f13a21,24,Mężczyzna,2022-06-11_09h33.05.391,task,2021.1.4,Win32,59.61607249,6299f149e92ead563fba08ef,62a445238243bc97e1b46759,,,,,,,,,,,,,,,,,,,,,,,,,,,,,,,,,,,,,,,,,,,,,,,,,,,,,,,,,,,,,,,,,,,,,,,,,,,,,,,,,,,,,,,,,,,,"[""comma""]",0,[0.3677999999522399],89,0,89,0,1,,
,,,,,,,,,,,,5fa925f7a78e1e0008f13a21,24,Mężczyzna,2022-06-11_09h33.05.391,task,2021.1.4,Win32,59.61607249,6299f149e92ead563fba08ef,62a445238243bc97e1b46759,,,,,,,,,,,,,,,,,,,,,,,,,,,,,,,,,,,,,,,,,,,,,,,,,,,,,,,,,,,,,,,,,,,,,,,,,,,,,,,,,,,,,,,,,,,,"[""period""]",0,[0.27689999997596715],90,0,90,0,1,,
,,,,,,,,,,,,5fa925f7a78e1e0008f13a21,24,Mężczyzna,2022-06-11_09h33.05.391,task,2021.1.4,Win32,59.61607249,6299f149e92ead563fba08ef,62a445238243bc97e1b46759,,,,,,,,,,,,,,,,,,,,,,,,,,,,,,,,,,,,,,,,,,,,,,,,,,,,,,,,,,,,,,,,,,,,,,,,,,,,,,,,,,,,,,,,,,,,"[""comma"",""period""]",0,"[0.23489999997605082,1.936100000023771]",91,0,91,0,1,,
,,,,,,,,,,,,5fa925f7a78e1e0008f13a21,24,Mężczyzna,2022-06-11_09h33.05.391,task,2021.1.4,Win32,59.61607249,6299f149e92ead563fba08ef,62a445238243bc97e1b46759,,,,,,,,,,,,,,,,,,,,,,,,,,,,,,,,,,,,,,,,,,,,,,,,,,,,,,,,,,,,,,,,,,,,,,,,,,,,,,,,,,,,,,,,,,,,,0,,92,0,92,0,1,,
,,,,,,,,,,,,5fa925f7a78e1e0008f13a21,24,Mężczyzna,2022-06-11_09h33.05.391,task,2021.1.4,Win32,59.61607249,6299f149e92ead563fba08ef,62a445238243bc97e1b46759,,,,,,,,,,,,,,,,,,,,,,,,,,,,,,,,,,,,,,,,,,,,,,,,,,,,,,,,,,,,,,,,,,,,,,,,,,,,,,,,,,,,,,,,,,,,"[""comma""]",0,[0.21730000007164563],93,0,93,0,1,,
,,,,,,,,,,,,5fa925f7a78e1e0008f13a21,24,Mężczyzna,2022-06-11_09h33.05.391,task,2021.1.4,Win32,59.61607249,6299f149e92ead563fba08ef,62a445238243bc97e1b46759,,,,,,,,,,,,,,,,,,,,,,,,,,,,,,,,,,,,,,,,,,,,,,,,,,,,,,,,,,,,,,,,,,,,,,,,,,,,,,,,,,,,,,,,,,,,"[""period""]",0,[0.2015000000001237],94,0,94,0,1,,
,,,,,,,,,,,,5fa925f7a78e1e0008f13a21,24,Mężczyzna,2022-06-11_09h33.05.391,task,2021.1.4,Win32,59.61607249,6299f149e92ead563fba08ef,62a445238243bc97e1b46759,,,,,,,,,,,,,,,,,,,,,,,,,,,,,,,,,,,,,,,,,,,,,,,,,,,,,,,,,,,,,,,,,,,,,,,,,,,,,,,,,,,,,,,,,,,,"[""comma""]",0,[0.27299999999991087],95,0,95,0,1,,
,,,,,,,,,,,,5fa925f7a78e1e0008f13a21,24,Mężczyzna,2022-06-11_09h33.05.391,task,2021.1.4,Win32,59.61607249,6299f149e92ead563fba08ef,62a445238243bc97e1b46759,,,,,,,,,,,,,,,,,,,,,,,,,,,,,,,,,,,,,,,,,,,,,,,,,,,,,,,,,,,,,,,,,,,,,,,,,,,,,,,,,,,,,,,,,,,,"[""comma""]",0,[0.300199999928509],96,0,96,0,1,,
,,,,,,,,,,,,5fa925f7a78e1e0008f13a21,24,Mężczyzna,2022-06-11_09h33.05.391,task,2021.1.4,Win32,59.61607249,6299f149e92ead563fba08ef,62a445238243bc97e1b46759,,,,,,,,,,,,,,,,,,,,,,,,,,,,,,,,,,,,,,,,,,,,,,,,,,,,,,,,,,,,,,,,,,,,,,,,,,,,,,,,,,,,,,,,,,,,"[""comma""]",0,[0.23470000004772373],97,0,97,0,1,,
,,,,,,,,,,,,5fa925f7a78e1e0008f13a21,24,Mężczyzna,2022-06-11_09h33.05.391,task,2021.1.4,Win32,59.61607249,6299f149e92ead563fba08ef,62a445238243bc97e1b46759,,,,,,,,,,,,,,,,,,,,,,,,,,,,,,,,,,,,,,,,,,,,,,,,,,,,,,,,,,,,,,,,,,,,,,,,,,,,,,,,,,,,,,,,,,,,"[""period""]",0,[0.24250000000006366],98,0,98,0,1,,
,,,,,,,,,,,,5fa925f7a78e1e0008f13a21,24,Mężczyzna,2022-06-11_09h33.05.391,task,2021.1.4,Win32,59.61607249,6299f149e92ead563fba08ef,62a445238243bc97e1b46759,,,,,,,,,,,,,,,,,,,,,,,,,,,,,,,,,,,,,,,,,,,,,,,,,,,,,,,,,,,,,,,,,,,,,,,,,,,,,,,,,,,,,,,,,,,,"[""comma""]",0,[0.2928000000715656],99,0,99,0,1,,
,,,,,,,,,,,,5fa925f7a78e1e0008f13a21,24,Mężczyzna,2022-06-11_09h33.05.391,task,2021.1.4,Win32,59.61607249,6299f149e92ead563fba08ef,62a445238243bc97e1b46759,,,,,,,,,,,,,,,,,,,,,,,,,,,,,,,,,,,,,,,,,,,,,,,,,,,,,,,,,,,,,,,,,,,,,,,,,,,,,,,,,,,,,,,,,,,,"[""comma""]",0,[0.24960000002397464],100,0,100,0,1,,
,,,,,,,,,,,,5fa925f7a78e1e0008f13a21,24,Mężczyzna,2022-06-11_09h33.05.391,task,2021.1.4,Win32,59.61607249,6299f149e92ead563fba08ef,62a445238243bc97e1b46759,,,,,,,,,,,,,,,,,,,,,,,,,,,,,,,,,,,,,,,,,,,,,,,,,,,,,,,,,,,,,,,,,,,,,,,,,,,,,,,,,,,,,,,,,,,,"[""period""]",0,[0.027899999976170875],101,0,101,0,1,,
,,,,,,,,,,,,5fa925f7a78e1e0008f13a21,24,Mężczyzna,2022-06-11_09h33.05.391,task,2021.1.4,Win32,59.61607249,6299f149e92ead563fba08ef,62a445238243bc97e1b46759,,,,,,,,,,,,,,,,,,,,,,,,,,,,,,,,,,,,,,,,,,,,,,,,,,,,,,,,,,,,,,,,,,,,,,,,,,,,,,,,,,,,,,,,,,,,"[""period""]",0,[0.2552000000478074],102,0,102,0,1,,
,,,,,,,,,,,,5fa925f7a78e1e0008f13a21,24,Mężczyzna,2022-06-11_09h33.05.391,task,2021.1.4,Win32,59.61607249,6299f149e92ead563fba08ef,62a445238243bc97e1b46759,,,,,,,,,,,,,,,,,,,,,,,,,,,,,,,,,,,,,,,,,,,,,,,,,,,,,,,,,,,,,,,,,,,,,,,,,,,,,,,,,,,,,,,,,,,,"[""comma""]",0,[0.29869999992843077],103,0,103,0,1,,
,,,,,,,,,,,,5fa925f7a78e1e0008f13a21,24,Mężczyzna,2022-06-11_09h33.05.391,task,2021.1.4,Win32,59.61607249,6299f149e92ead563fba08ef,62a445238243bc97e1b46759,,,,,,,,,,,,,,,,,,,,,,,,,,,,,,,,,,,,,,,,,,,,,,,,,,,,,,,,,,,,,,,,,,,,,,,,,,,,,,,,,,,,,,,,,,,,"[""comma""]",0,[0.28440000009550204],104,0,104,0,1,,
,,,,,,,,,,,,5fa925f7a78e1e0008f13a21,24,Mężczyzna,2022-06-11_09h33.05.391,task,2021.1.4,Win32,59.61607249,6299f149e92ead563fba08ef,62a445238243bc97e1b46759,,,,,,,,,,,,,,,,,,,,,,,,,,,,,,,,,,,,,,,,,,,,,,,,,,,,,,,,,,,,,,,,,,,,,,,,,,,,,,,,,,,,,,,,,,,,"[""period""]",0,[0.07369999992852172],105,0,105,0,1,,
,,,,,,,,,,,,5fa925f7a78e1e0008f13a21,24,Mężczyzna,2022-06-11_09h33.05.391,task,2021.1.4,Win32,59.61607249,6299f149e92ead563fba08ef,62a445238243bc97e1b46759,,,,,,,,,,,,,,,,,,,,,,,,,,,,,,,,,,,,,,,,,,,,,,,,,,,,,,,,,,,,,,,,,,,,,,,,,,,,,,,,,,,,,,,,,,,,"[""comma""]",0,[0.25870000004783833],106,0,106,0,1,,
,,,,,,,,,,,,5fa925f7a78e1e0008f13a21,24,Mężczyzna,2022-06-11_09h33.05.391,task,2021.1.4,Win32,59.61607249,6299f149e92ead563fba08ef,62a445238243bc97e1b46759,,,,,,,,,,,,,,,,,,,,,,,,,,,,,,,,,,,,,,,,,,,,,,,,,,,,,,,,,,,,,,,,,,,,,,,,,,,,,,,,,,,,,,,,,,,,"[""period""]",0,[0.26559999990467986],107,0,107,0,1,,
,,,,,,,,,,,,5fa925f7a78e1e0008f13a21,24,Mężczyzna,2022-06-11_09h33.05.391,task,2021.1.4,Win32,59.61607249,6299f149e92ead563fba08ef,62a445238243bc97e1b46759,,,,,,,,,,,,,,,,,,,,,,,,,,,,,,,,,,,,,,,,,,,,,,,,,,,,,,,,,,,,,,,,,,,,,,,,,,,,,,,,,,,,,,,,,,,,"[""comma"",""period""]",0,"[0.3007999999522326,1.7110000000000127]",108,0,108,0,1,,
,,,,,,,,,,,,5fa925f7a78e1e0008f13a21,24,Mężczyzna,2022-06-11_09h33.05.391,task,2021.1.4,Win32,59.61607249,6299f149e92ead563fba08ef,62a445238243bc97e1b46759,,,,,,,,,,,,,,,,,,,,,,,,,,,,,,,,,,,,,,,,,,,,,,,,,,,,,,,,,,,,,,,,,,,,,,,,,,,,,,,,,,,,,,,,,,,,,0,,109,0,109,0,1,,
,,,,,,,,,,,,5fa925f7a78e1e0008f13a21,24,Mężczyzna,2022-06-11_09h33.05.391,task,2021.1.4,Win32,59.61607249,6299f149e92ead563fba08ef,62a445238243bc97e1b46759,,,,,,,,,,,,,,,,,,,,,,,,,,,,,,,,,,,,,,,,,,,,,,,,,,,,,,,,,,,,,,,,,,,,,,,,,,,,,,,,,,,,,,,,,,,,"[""comma""]",0,[0.2377000000476528],110,0,110,0,1,,
,,,,,,,,,,,,5fa925f7a78e1e0008f13a21,24,Mężczyzna,2022-06-11_09h33.05.391,task,2021.1.4,Win32,59.61607249,6299f149e92ead563fba08ef,62a445238243bc97e1b46759,,,,,,,,,,,,,,,,,,,,,,,,,,,,,,,,,,,,,,,,,,,,,,,,,,,,,,,,,,,,,,,,,,,,,,,,,,,,,,,,,,,,,,,,,,,,"[""period""]",0,[0.24960000002374727],111,0,111,0,1,,
,,,,,,,,,,,,5fa925f7a78e1e0008f13a21,24,Mężczyzna,2022-06-11_09h33.05.391,task,2021.1.4,Win32,59.61607249,6299f149e92ead563fba08ef,62a445238243bc97e1b46759,,,,,,,,,,,,,,,,,,,,,,,,,,,,,,,,,,,,,,,,,,,,,,,,,,,,,,,,,,,,,,,,,,,,,,,,,,,,,,,,,,,,,,,,,,,,"[""comma""]",0,[0.28270000004772555],112,0,112,0,1,,
,,,,,,,,,,,,5fa925f7a78e1e0008f13a21,24,Mężczyzna,2022-06-11_09h33.05.391,task,2021.1.4,Win32,59.61607249,6299f149e92ead563fba08ef,62a445238243bc97e1b46759,,,,,,,,,,,,,,,,,,,,,,,,,,,,,,,,,,,,,,,,,,,,,,,,,,,,,,,,,,,,,,,,,,,,,,,,,,,,,,,,,,,,,,,,,,,,"[""comma""]",0,[0.22189999997635823],113,0,113,0,1,,
,,,,,,,,,,,,5fa925f7a78e1e0008f13a21,24,Mężczyzna,2022-06-11_09h33.05.391,task,2021.1.4,Win32,59.61607249,6299f149e92ead563fba08ef,62a445238243bc97e1b46759,,,,,,,,,,,,,,,,,,,,,,,,,,,,,,,,,,,,,,,,,,,,,,,,,,,,,,,,,,,,,,,,,,,,,,,,,,,,,,,,,,,,,,,,,,,,"[""comma""]",0,[0.27320000004760914],114,0,114,0,1,,
,,,,,,,,,,,,5fa925f7a78e1e0008f13a21,24,Mężczyzna,2022-06-11_09h33.05.391,task,2021.1.4,Win32,59.61607249,6299f149e92ead563fba08ef,62a445238243bc97e1b46759,,,,,,,,,,,,,,,,,,,,,,,,,,,,,,,,,,,,,,,,,,,,,,,,,,,,,,,,,,,,,,,,,,,,,,,,,,,,,,,,,,,,,,,,,,,,"[""period""]",0,[0.3372999999523927],115,0,115,0,1,,
,,,,,,,,,,,,5fa925f7a78e1e0008f13a21,24,Mężczyzna,2022-06-11_09h33.05.391,task,2021.1.4,Win32,59.61607249,6299f149e92ead563fba08ef,62a445238243bc97e1b46759,,,,,,,,,,,,,,,,,,,,,,,,,,,,,,,,,,,,,,,,,,,,,,,,,,,,,,,,,,,,,,,,,,,,,,,,,,,,,,,,,,,,,,,,,,,,"[""comma""]",0,[0.2675000000001546],116,0,116,0,1,,
,,,,,,,,,,,,5fa925f7a78e1e0008f13a21,24,Mężczyzna,2022-06-11_09h33.05.391,task,2021.1.4,Win32,59.61607249,6299f149e92ead563fba08ef,62a445238243bc97e1b46759,,,,,,,,,,,,,,,,,,,,,,,,,,,,,,,,,,,,,,,,,,,,,,,,,,,,,,,,,,,,,,,,,,,,,,,,,,,,,,,,,,,,,,,,,,,,"[""period""]",0,[0.21589999997627274],117,0,117,0,1,,
,,,,,,,,,,,,5fa925f7a78e1e0008f13a21,24,Mężczyzna,2022-06-11_09h33.05.391,task,2021.1.4,Win32,59.61607249,6299f149e92ead563fba08ef,62a445238243bc97e1b46759,,,,,,,,,,,,,,,,,,,,,,,,,,,,,,,,,,,,,,,,,,,,,,,,,,,,,,,,,,,,,,,,,,,,,,,,,,,,,,,,,,,,,,,,,,,,"[""period""]",0,[0.2676000000237764],118,0,118,0,1,,
,,,,,,,,,,,,5fa925f7a78e1e0008f13a21,24,Mężczyzna,2022-06-11_09h33.05.391,task,2021.1.4,Win32,59.61607249,6299f149e92ead563fba08ef,62a445238243bc97e1b46759,,,,,,,,,,,,,,,,,,,,,,,,,,,,,,,,,,,,,,,,,,,,,,,,,,,,,,,,,,,,,,,,,,,,,,,,,,,,,,,,,,,,,,,,,,,,"[""period""]",0,[0.3849999999999909],119,0,119,0,1,,
,,,,,,,,,,,,5fa925f7a78e1e0008f13a21,24,Mężczyzna,2022-06-11_09h33.05.391,task,2021.1.4,Win32,59.61607249,6299f149e92ead563fba08ef,62a445238243bc97e1b46759,,,,,,,,,,,,,,,,,,,,,,,,,,,,,,,,,,,,,,,,,,,,,,,,,,,,,,,,,,,,,,,,,,,,,,,,,,,,,,,,,,,,,,,,,,,,,,,,,,,,space,1.4641
