key_resp_15.keys,key_resp_15.rt,key_resp_16.keys,key_resp_16.rt,key_resp_4.keys,key_resp_4.rt,next_letter.thisRepN,next_letter.thisTrialN,next_letter.thisN,next_letter.thisIndex,next_letter.ran,letter,participant,Wiek*,Płeć,date,expName,psychopyVersion,OS,frameRate,study_id,session,simple_recall,key_resp_5.keys,key_resp_5.rt,simple_recall_corr,simple_recall_corrkeys,next_level.thisRepN,next_level.thisTrialN,next_level.thisN,next_level.thisIndex,next_level.ran,key_resp_2.keys,key_resp_2.rt,digit_answer,key_resp.keys,key_resp.corr,key_resp.rt,RT_list,next_equation.thisRepN,next_equation.thisTrialN,next_equation.thisN,next_equation.thisIndex,next_equation.ran,Task,Trial,Problem,Operation_answer,processing_score,sumRT,meanRT,sumdiff,sd,RT,key_resp_3.keys,key_resp_3.rt,repeat_practice.thisRepN,repeat_practice.thisTrialN,repeat_practice.thisN,repeat_practice.thisIndex,repeat_practice.ran,key_resp_6.keys,key_resp_6.rt,key_resp_11.keys,key_resp_11.corr,key_resp_11.rt,operation_correct,repeat_if_wrong_prac.thisRepN,repeat_if_wrong_prac.thisTrialN,repeat_if_wrong_prac.thisN,repeat_if_wrong_prac.thisIndex,repeat_if_wrong_prac.ran,span_size_prac.thisRepN,span_size_prac.thisTrialN,span_size_prac.thisN,span_size_prac.thisIndex,span_size_prac.ran,complex_recall_practice,key_resp_9.keys,key_resp_9.corr,key_resp_9.rt,complex_prac_corr,span_recall_prac.thisRepN,span_recall_prac.thisTrialN,span_recall_prac.thisN,span_recall_prac.thisIndex,span_recall_prac.ran,key_resp_10.keys,key_resp_10.rt,key_resp_7.keys,key_resp_7.corr,key_resp_7.rt,repeat_if_wrong.thisRepN,repeat_if_wrong.thisTrialN,repeat_if_wrong.thisN,repeat_if_wrong.thisIndex,repeat_if_wrong.ran,span_size.thisRepN,span_size.thisTrialN,span_size.thisN,span_size.thisIndex,span_size.ran,complex_recall,key_resp_8.keys,key_resp_8.corr,key_resp_8.rt,complex_recall_corr,complex_recall_corrkeys,span_recall.thisRepN,span_recall.thisTrialN,span_recall.thisN,span_recall.thisIndex,span_recall.ran,key_resp_13.keys,key_resp_13.corr,key_resp_13.rt,random_loop.thisRepN,random_loop.thisTrialN,random_loop.thisN,random_loop.thisIndex,random_loop.ran,key_resp_12.keys,key_resp_12.rt
space,28.1174,space,26.9838,space,11.6177,0,0,0,0,1,X V Q F H G B L J M P D K C T S W R N Z,5fb24d262a3a69633d54fd7a,21,Kobieta,2022-06-11_09h42.37.823,task,2021.1.4,Win32,60.17209218,6299f149e92ead563fba08ef,62a4475d1eaae6b8a67b619f,,,,,,,,,,,,,,,,,,,,,,,,,,,,,,,,,,,,,,,,,,,,,,,,,,,,,,,,,,,,,,,,,,,,,,,,,,,,,,,,,,,,,,,,,,,,,,,,,,,,,
,,,,,,1,0,1,0,1,X V Q F H G B L J M P D K C T S W R N Z,5fb24d262a3a69633d54fd7a,21,Kobieta,2022-06-11_09h42.37.823,task,2021.1.4,Win32,60.17209218,6299f149e92ead563fba08ef,62a4475d1eaae6b8a67b619f,,,,,,,,,,,,,,,,,,,,,,,,,,,,,,,,,,,,,,,,,,,,,,,,,,,,,,,,,,,,,,,,,,,,,,,,,,,,,,,,,,,,,,,,,,,,,,,,,,,,,
,,,,,,,,,,,,5fb24d262a3a69633d54fd7a,21,Kobieta,2022-06-11_09h42.37.823,task,2021.1.4,Win32,60.17209218,6299f149e92ead563fba08ef,62a4475d1eaae6b8a67b619f,zs,"[""z"",""s""]","[1.6875,2.16540000009536,5.335199999809262]",1,ZS,0,0,0,0,1,,,,,,,,,,,,,,,,,,,,,,,,,,,,,,,,,,,,,,,,,,,,,,,,,,,,,,,,,,,,,,,,,,,,,,,,,,,,,,,,,,,,,,,,,,,
,,,,,,0,0,0,0,1,X V Q F H G B L J M P D K C T S W R N Z,5fb24d262a3a69633d54fd7a,21,Kobieta,2022-06-11_09h42.37.823,task,2021.1.4,Win32,60.17209218,6299f149e92ead563fba08ef,62a4475d1eaae6b8a67b619f,,,,,,,,,,,,,,,,,,,,,,,,,,,,,,,,,,,,,,,,,,,,,,,,,,,,,,,,,,,,,,,,,,,,,,,,,,,,,,,,,,,,,,,,,,,,,,,,,,,,,
,,,,,,1,0,1,0,1,X V Q F H G B L J M P D K C T S W R N Z,5fb24d262a3a69633d54fd7a,21,Kobieta,2022-06-11_09h42.37.823,task,2021.1.4,Win32,60.17209218,6299f149e92ead563fba08ef,62a4475d1eaae6b8a67b619f,,,,,,,,,,,,,,,,,,,,,,,,,,,,,,,,,,,,,,,,,,,,,,,,,,,,,,,,,,,,,,,,,,,,,,,,,,,,,,,,,,,,,,,,,,,,,,,,,,,,,
,,,,,,,,,,,,5fb24d262a3a69633d54fd7a,21,Kobieta,2022-06-11_09h42.37.823,task,2021.1.4,Win32,60.17209218,6299f149e92ead563fba08ef,62a4475d1eaae6b8a67b619f,lt,"[""l"",""t""]","[1.5559999999999974,2.2638000001907415,2.8359000000953642]",1,LT,1,0,1,0,1,,,,,,,,,,,,,,,,,,,,,,,,,,,,,,,,,,,,,,,,,,,,,,,,,,,,,,,,,,,,,,,,,,,,,,,,,,,,,,,,,,,,,,,,,,,
,,,,,,0,0,0,0,1,X V Q F H G B L J M P D K C T S W R N Z,5fb24d262a3a69633d54fd7a,21,Kobieta,2022-06-11_09h42.37.823,task,2021.1.4,Win32,60.17209218,6299f149e92ead563fba08ef,62a4475d1eaae6b8a67b619f,,,,,,,,,,,,,,,,,,,,,,,,,,,,,,,,,,,,,,,,,,,,,,,,,,,,,,,,,,,,,,,,,,,,,,,,,,,,,,,,,,,,,,,,,,,,,,,,,,,,,
,,,,,,1,0,1,0,1,X V Q F H G B L J M P D K C T S W R N Z,5fb24d262a3a69633d54fd7a,21,Kobieta,2022-06-11_09h42.37.823,task,2021.1.4,Win32,60.17209218,6299f149e92ead563fba08ef,62a4475d1eaae6b8a67b619f,,,,,,,,,,,,,,,,,,,,,,,,,,,,,,,,,,,,,,,,,,,,,,,,,,,,,,,,,,,,,,,,,,,,,,,,,,,,,,,,,,,,,,,,,,,,,,,,,,,,,
,,,,,,2,0,2,0,1,X V Q F H G B L J M P D K C T S W R N Z,5fb24d262a3a69633d54fd7a,21,Kobieta,2022-06-11_09h42.37.823,task,2021.1.4,Win32,60.17209218,6299f149e92ead563fba08ef,62a4475d1eaae6b8a67b619f,,,,,,,,,,,,,,,,,,,,,,,,,,,,,,,,,,,,,,,,,,,,,,,,,,,,,,,,,,,,,,,,,,,,,,,,,,,,,,,,,,,,,,,,,,,,,,,,,,,,,
,,,,,,,,,,,,5fb24d262a3a69633d54fd7a,21,Kobieta,2022-06-11_09h42.37.823,task,2021.1.4,Win32,60.17209218,6299f149e92ead563fba08ef,62a4475d1eaae6b8a67b619f,xbj,"[""x"",""b"",""j""]","[1.1701999998092703,1.6665000000000134,2.132400000095373,2.9542999997139106]",1,XBJ,2,0,2,0,1,,,,,,,,,,,,,,,,,,,,,,,,,,,,,,,,,,,,,,,,,,,,,,,,,,,,,,,,,,,,,,,,,,,,,,,,,,,,,,,,,,,,,,,,,,,
,,,,,,0,0,0,0,1,X V Q F H G B L J M P D K C T S W R N Z,5fb24d262a3a69633d54fd7a,21,Kobieta,2022-06-11_09h42.37.823,task,2021.1.4,Win32,60.17209218,6299f149e92ead563fba08ef,62a4475d1eaae6b8a67b619f,,,,,,,,,,,,,,,,,,,,,,,,,,,,,,,,,,,,,,,,,,,,,,,,,,,,,,,,,,,,,,,,,,,,,,,,,,,,,,,,,,,,,,,,,,,,,,,,,,,,,
,,,,,,1,0,1,0,1,X V Q F H G B L J M P D K C T S W R N Z,5fb24d262a3a69633d54fd7a,21,Kobieta,2022-06-11_09h42.37.823,task,2021.1.4,Win32,60.17209218,6299f149e92ead563fba08ef,62a4475d1eaae6b8a67b619f,,,,,,,,,,,,,,,,,,,,,,,,,,,,,,,,,,,,,,,,,,,,,,,,,,,,,,,,,,,,,,,,,,,,,,,,,,,,,,,,,,,,,,,,,,,,,,,,,,,,,
,,,,,,2,0,2,0,1,X V Q F H G B L J M P D K C T S W R N Z,5fb24d262a3a69633d54fd7a,21,Kobieta,2022-06-11_09h42.37.823,task,2021.1.4,Win32,60.17209218,6299f149e92ead563fba08ef,62a4475d1eaae6b8a67b619f,,,,,,,,,,,,,,,,,,,,,,,,,,,,,,,,,,,,,,,,,,,,,,,,,,,,,,,,,,,,,,,,,,,,,,,,,,,,,,,,,,,,,,,,,,,,,,,,,,,,,
,,,,,,,,,,,,5fb24d262a3a69633d54fd7a,21,Kobieta,2022-06-11_09h42.37.823,task,2021.1.4,Win32,60.17209218,6299f149e92ead563fba08ef,62a4475d1eaae6b8a67b619f,lpf,"[""l"",""p"",""f""]","[1.381300000190734,1.9719000000953741,2.8164000000953706,3.3359000000953642]",1,LPF,3,0,3,0,1,,,,,,,,,,,,,,,,,,,,,,,,,,,,,,,,,,,,,,,,,,,,,,,,,,,,,,,,,,,,,,,,,,,,,,,,,,,,,,,,,,,,,,,,,,,
,,,,,,0,0,0,0,1,X V Q F H G B L J M P D K C T S W R N Z,5fb24d262a3a69633d54fd7a,21,Kobieta,2022-06-11_09h42.37.823,task,2021.1.4,Win32,60.17209218,6299f149e92ead563fba08ef,62a4475d1eaae6b8a67b619f,,,,,,,,,,,,,,,,,,,,,,,,,,,,,,,,,,,,,,,,,,,,,,,,,,,,,,,,,,,,,,,,,,,,,,,,,,,,,,,,,,,,,,,,,,,,,,,,,,,,,
,,,,,,1,0,1,0,1,X V Q F H G B L J M P D K C T S W R N Z,5fb24d262a3a69633d54fd7a,21,Kobieta,2022-06-11_09h42.37.823,task,2021.1.4,Win32,60.17209218,6299f149e92ead563fba08ef,62a4475d1eaae6b8a67b619f,,,,,,,,,,,,,,,,,,,,,,,,,,,,,,,,,,,,,,,,,,,,,,,,,,,,,,,,,,,,,,,,,,,,,,,,,,,,,,,,,,,,,,,,,,,,,,,,,,,,,
,,,,,,2,0,2,0,1,X V Q F H G B L J M P D K C T S W R N Z,5fb24d262a3a69633d54fd7a,21,Kobieta,2022-06-11_09h42.37.823,task,2021.1.4,Win32,60.17209218,6299f149e92ead563fba08ef,62a4475d1eaae6b8a67b619f,,,,,,,,,,,,,,,,,,,,,,,,,,,,,,,,,,,,,,,,,,,,,,,,,,,,,,,,,,,,,,,,,,,,,,,,,,,,,,,,,,,,,,,,,,,,,,,,,,,,,
,,,,,,3,0,3,0,1,X V Q F H G B L J M P D K C T S W R N Z,5fb24d262a3a69633d54fd7a,21,Kobieta,2022-06-11_09h42.37.823,task,2021.1.4,Win32,60.17209218,6299f149e92ead563fba08ef,62a4475d1eaae6b8a67b619f,,,,,,,,,,,,,,,,,,,,,,,,,,,,,,,,,,,,,,,,,,,,,,,,,,,,,,,,,,,,,,,,,,,,,,,,,,,,,,,,,,,,,,,,,,,,,,,,,,,,,
,,,,,,,,,,,,5fb24d262a3a69633d54fd7a,21,Kobieta,2022-06-11_09h42.37.823,task,2021.1.4,Win32,60.17209218,6299f149e92ead563fba08ef,62a4475d1eaae6b8a67b619f,kxhv,"[""k"",""x"",""h"",""v""]","[1.2989000000953723,2.5301999998092697,3.70159999990463,4.666099999904631,5.265500000000003]",1,KXHV,4,0,4,0,1,,,,,,,,,,,,,,,,,,,,,,,,,,,,,,,,,,,,,,,,,,,,,,,,,,,,,,,,,,,,,,,,,,,,,,,,,,,,,,,,,,,,,,,,,,,
,,,,,,0,0,0,0,1,X V Q F H G B L J M P D K C T S W R N Z,5fb24d262a3a69633d54fd7a,21,Kobieta,2022-06-11_09h42.37.823,task,2021.1.4,Win32,60.17209218,6299f149e92ead563fba08ef,62a4475d1eaae6b8a67b619f,,,,,,,,,,,,,,,,,,,,,,,,,,,,,,,,,,,,,,,,,,,,,,,,,,,,,,,,,,,,,,,,,,,,,,,,,,,,,,,,,,,,,,,,,,,,,,,,,,,,,
,,,,,,1,0,1,0,1,X V Q F H G B L J M P D K C T S W R N Z,5fb24d262a3a69633d54fd7a,21,Kobieta,2022-06-11_09h42.37.823,task,2021.1.4,Win32,60.17209218,6299f149e92ead563fba08ef,62a4475d1eaae6b8a67b619f,,,,,,,,,,,,,,,,,,,,,,,,,,,,,,,,,,,,,,,,,,,,,,,,,,,,,,,,,,,,,,,,,,,,,,,,,,,,,,,,,,,,,,,,,,,,,,,,,,,,,
,,,,,,2,0,2,0,1,X V Q F H G B L J M P D K C T S W R N Z,5fb24d262a3a69633d54fd7a,21,Kobieta,2022-06-11_09h42.37.823,task,2021.1.4,Win32,60.17209218,6299f149e92ead563fba08ef,62a4475d1eaae6b8a67b619f,,,,,,,,,,,,,,,,,,,,,,,,,,,,,,,,,,,,,,,,,,,,,,,,,,,,,,,,,,,,,,,,,,,,,,,,,,,,,,,,,,,,,,,,,,,,,,,,,,,,,
,,,,,,3,0,3,0,1,X V Q F H G B L J M P D K C T S W R N Z,5fb24d262a3a69633d54fd7a,21,Kobieta,2022-06-11_09h42.37.823,task,2021.1.4,Win32,60.17209218,6299f149e92ead563fba08ef,62a4475d1eaae6b8a67b619f,,,,,,,,,,,,,,,,,,,,,,,,,,,,,,,,,,,,,,,,,,,,,,,,,,,,,,,,,,,,,,,,,,,,,,,,,,,,,,,,,,,,,,,,,,,,,,,,,,,,,
,,,,,,,,,,,,5fb24d262a3a69633d54fd7a,21,Kobieta,2022-06-11_09h42.37.823,task,2021.1.4,Win32,60.17209218,6299f149e92ead563fba08ef,62a4475d1eaae6b8a67b619f,qrgj,"[""q"",""r"",""g"",""j""]","[1.4318000001907336,2.3811999998092688,3.464900000095369,4.022800000190742,6.138599999904642]",1,QRGJ,5,0,5,0,1,,,,,,,,,,,,,,,,,,,,,,,,,,,,,,,,,,,,,,,,,,,,,,,,,,,,,,,,,,,,,,,,,,,,,,,,,,,,,,,,,,,,,,,,,,,
,,,,,,0,0,0,0,1,X V Q F H G B L J M P D K C T S W R N Z,5fb24d262a3a69633d54fd7a,21,Kobieta,2022-06-11_09h42.37.823,task,2021.1.4,Win32,60.17209218,6299f149e92ead563fba08ef,62a4475d1eaae6b8a67b619f,,,,,,,,,,,,,,,,,,,,,,,,,,,,,,,,,,,,,,,,,,,,,,,,,,,,,,,,,,,,,,,,,,,,,,,,,,,,,,,,,,,,,,,,,,,,,,,,,,,,,
,,,,,,1,0,1,0,1,X V Q F H G B L J M P D K C T S W R N Z,5fb24d262a3a69633d54fd7a,21,Kobieta,2022-06-11_09h42.37.823,task,2021.1.4,Win32,60.17209218,6299f149e92ead563fba08ef,62a4475d1eaae6b8a67b619f,,,,,,,,,,,,,,,,,,,,,,,,,,,,,,,,,,,,,,,,,,,,,,,,,,,,,,,,,,,,,,,,,,,,,,,,,,,,,,,,,,,,,,,,,,,,,,,,,,,,,
,,,,,,2,0,2,0,1,X V Q F H G B L J M P D K C T S W R N Z,5fb24d262a3a69633d54fd7a,21,Kobieta,2022-06-11_09h42.37.823,task,2021.1.4,Win32,60.17209218,6299f149e92ead563fba08ef,62a4475d1eaae6b8a67b619f,,,,,,,,,,,,,,,,,,,,,,,,,,,,,,,,,,,,,,,,,,,,,,,,,,,,,,,,,,,,,,,,,,,,,,,,,,,,,,,,,,,,,,,,,,,,,,,,,,,,,
,,,,,,3,0,3,0,1,X V Q F H G B L J M P D K C T S W R N Z,5fb24d262a3a69633d54fd7a,21,Kobieta,2022-06-11_09h42.37.823,task,2021.1.4,Win32,60.17209218,6299f149e92ead563fba08ef,62a4475d1eaae6b8a67b619f,,,,,,,,,,,,,,,,,,,,,,,,,,,,,,,,,,,,,,,,,,,,,,,,,,,,,,,,,,,,,,,,,,,,,,,,,,,,,,,,,,,,,,,,,,,,,,,,,,,,,
,,,,,,4,0,4,0,1,X V Q F H G B L J M P D K C T S W R N Z,5fb24d262a3a69633d54fd7a,21,Kobieta,2022-06-11_09h42.37.823,task,2021.1.4,Win32,60.17209218,6299f149e92ead563fba08ef,62a4475d1eaae6b8a67b619f,,,,,,,,,,,,,,,,,,,,,,,,,,,,,,,,,,,,,,,,,,,,,,,,,,,,,,,,,,,,,,,,,,,,,,,,,,,,,,,,,,,,,,,,,,,,,,,,,,,,,
,,,,,,,,,,,,5fb24d262a3a69633d54fd7a,21,Kobieta,2022-06-11_09h42.37.823,task,2021.1.4,Win32,60.17209218,6299f149e92ead563fba08ef,62a4475d1eaae6b8a67b619f,dtzcp,"[""d"",""t"",""z"",""c"",""p""]","[1.1207000002861207,1.616099999904634,2.2409000000953654,7.281400000095374,7.785200000286125,8.198099999904628]",1,DTZCP,6,0,6,0,1,,,,,,,,,,,,,,,,,,,,,,,,,,,,,,,,,,,,,,,,,,,,,,,,,,,,,,,,,,,,,,,,,,,,,,,,,,,,,,,,,,,,,,,,,,,
,,,,,,0,0,0,0,1,X V Q F H G B L J M P D K C T S W R N Z,5fb24d262a3a69633d54fd7a,21,Kobieta,2022-06-11_09h42.37.823,task,2021.1.4,Win32,60.17209218,6299f149e92ead563fba08ef,62a4475d1eaae6b8a67b619f,,,,,,,,,,,,,,,,,,,,,,,,,,,,,,,,,,,,,,,,,,,,,,,,,,,,,,,,,,,,,,,,,,,,,,,,,,,,,,,,,,,,,,,,,,,,,,,,,,,,,
,,,,,,1,0,1,0,1,X V Q F H G B L J M P D K C T S W R N Z,5fb24d262a3a69633d54fd7a,21,Kobieta,2022-06-11_09h42.37.823,task,2021.1.4,Win32,60.17209218,6299f149e92ead563fba08ef,62a4475d1eaae6b8a67b619f,,,,,,,,,,,,,,,,,,,,,,,,,,,,,,,,,,,,,,,,,,,,,,,,,,,,,,,,,,,,,,,,,,,,,,,,,,,,,,,,,,,,,,,,,,,,,,,,,,,,,
,,,,,,2,0,2,0,1,X V Q F H G B L J M P D K C T S W R N Z,5fb24d262a3a69633d54fd7a,21,Kobieta,2022-06-11_09h42.37.823,task,2021.1.4,Win32,60.17209218,6299f149e92ead563fba08ef,62a4475d1eaae6b8a67b619f,,,,,,,,,,,,,,,,,,,,,,,,,,,,,,,,,,,,,,,,,,,,,,,,,,,,,,,,,,,,,,,,,,,,,,,,,,,,,,,,,,,,,,,,,,,,,,,,,,,,,
,,,,,,3,0,3,0,1,X V Q F H G B L J M P D K C T S W R N Z,5fb24d262a3a69633d54fd7a,21,Kobieta,2022-06-11_09h42.37.823,task,2021.1.4,Win32,60.17209218,6299f149e92ead563fba08ef,62a4475d1eaae6b8a67b619f,,,,,,,,,,,,,,,,,,,,,,,,,,,,,,,,,,,,,,,,,,,,,,,,,,,,,,,,,,,,,,,,,,,,,,,,,,,,,,,,,,,,,,,,,,,,,,,,,,,,,
,,,,,,4,0,4,0,1,X V Q F H G B L J M P D K C T S W R N Z,5fb24d262a3a69633d54fd7a,21,Kobieta,2022-06-11_09h42.37.823,task,2021.1.4,Win32,60.17209218,6299f149e92ead563fba08ef,62a4475d1eaae6b8a67b619f,,,,,,,,,,,,,,,,,,,,,,,,,,,,,,,,,,,,,,,,,,,,,,,,,,,,,,,,,,,,,,,,,,,,,,,,,,,,,,,,,,,,,,,,,,,,,,,,,,,,,
,,,,,,,,,,,,5fb24d262a3a69633d54fd7a,21,Kobieta,2022-06-11_09h42.37.823,task,2021.1.4,Win32,60.17209218,6299f149e92ead563fba08ef,62a4475d1eaae6b8a67b619f,rtcnv,"[""r"",""t"",""c"",""n"",""v""]","[1.4912999997139025,1.8972999997139084,2.423099999904622,2.9162999997138854,3.4653999996185405,4.264299999713899]",1,RTCNV,7,0,7,0,1,,,,,,,,,,,,,,,,,,,,,,,,,,,,,,,,,,,,,,,,,,,,,,,,,,,,,,,,,,,,,,,,,,,,,,,,,,,,,,,,,,,,,,,,,,,
,,,,,,0,0,0,0,1,X V Q F H G B L J M P D K C T S W R N Z,5fb24d262a3a69633d54fd7a,21,Kobieta,2022-06-11_09h42.37.823,task,2021.1.4,Win32,60.17209218,6299f149e92ead563fba08ef,62a4475d1eaae6b8a67b619f,,,,,,,,,,,,,,,,,,,,,,,,,,,,,,,,,,,,,,,,,,,,,,,,,,,,,,,,,,,,,,,,,,,,,,,,,,,,,,,,,,,,,,,,,,,,,,,,,,,,,
,,,,,,1,0,1,0,1,X V Q F H G B L J M P D K C T S W R N Z,5fb24d262a3a69633d54fd7a,21,Kobieta,2022-06-11_09h42.37.823,task,2021.1.4,Win32,60.17209218,6299f149e92ead563fba08ef,62a4475d1eaae6b8a67b619f,,,,,,,,,,,,,,,,,,,,,,,,,,,,,,,,,,,,,,,,,,,,,,,,,,,,,,,,,,,,,,,,,,,,,,,,,,,,,,,,,,,,,,,,,,,,,,,,,,,,,
,,,,,,2,0,2,0,1,X V Q F H G B L J M P D K C T S W R N Z,5fb24d262a3a69633d54fd7a,21,Kobieta,2022-06-11_09h42.37.823,task,2021.1.4,Win32,60.17209218,6299f149e92ead563fba08ef,62a4475d1eaae6b8a67b619f,,,,,,,,,,,,,,,,,,,,,,,,,,,,,,,,,,,,,,,,,,,,,,,,,,,,,,,,,,,,,,,,,,,,,,,,,,,,,,,,,,,,,,,,,,,,,,,,,,,,,
,,,,,,3,0,3,0,1,X V Q F H G B L J M P D K C T S W R N Z,5fb24d262a3a69633d54fd7a,21,Kobieta,2022-06-11_09h42.37.823,task,2021.1.4,Win32,60.17209218,6299f149e92ead563fba08ef,62a4475d1eaae6b8a67b619f,,,,,,,,,,,,,,,,,,,,,,,,,,,,,,,,,,,,,,,,,,,,,,,,,,,,,,,,,,,,,,,,,,,,,,,,,,,,,,,,,,,,,,,,,,,,,,,,,,,,,
,,,,,,4,0,4,0,1,X V Q F H G B L J M P D K C T S W R N Z,5fb24d262a3a69633d54fd7a,21,Kobieta,2022-06-11_09h42.37.823,task,2021.1.4,Win32,60.17209218,6299f149e92ead563fba08ef,62a4475d1eaae6b8a67b619f,,,,,,,,,,,,,,,,,,,,,,,,,,,,,,,,,,,,,,,,,,,,,,,,,,,,,,,,,,,,,,,,,,,,,,,,,,,,,,,,,,,,,,,,,,,,,,,,,,,,,
,,,,,,5,0,5,0,1,X V Q F H G B L J M P D K C T S W R N Z,5fb24d262a3a69633d54fd7a,21,Kobieta,2022-06-11_09h42.37.823,task,2021.1.4,Win32,60.17209218,6299f149e92ead563fba08ef,62a4475d1eaae6b8a67b619f,,,,,,,,,,,,,,,,,,,,,,,,,,,,,,,,,,,,,,,,,,,,,,,,,,,,,,,,,,,,,,,,,,,,,,,,,,,,,,,,,,,,,,,,,,,,,,,,,,,,,
,,,,,,,,,,,,5fb24d262a3a69633d54fd7a,21,Kobieta,2022-06-11_09h42.37.823,task,2021.1.4,Win32,60.17209218,6299f149e92ead563fba08ef,62a4475d1eaae6b8a67b619f,mbttgbt,"[""m"",""b"",""t"",""t"",""g"",""b"",""t""]","[1.2349999999999852,2.284299999713909,3.2682999997138893,4.705299999713901,5.14119999980926,6.469299999713883,7.218900000095374,8.63519999980926]",0,MBBGTG,8,0,8,0,1,,,,,,,,,,,,,,,,,,,,,,,,,,,,,,,,,,,,,,,,,,,,,,,,,,,,,,,,,,,,,,,,,,,,,,,,,,,,,,,,,,,,,,,,,,,
,,,,,,0,0,0,0,1,X V Q F H G B L J M P D K C T S W R N Z,5fb24d262a3a69633d54fd7a,21,Kobieta,2022-06-11_09h42.37.823,task,2021.1.4,Win32,60.17209218,6299f149e92ead563fba08ef,62a4475d1eaae6b8a67b619f,,,,,,,,,,,,,,,,,,,,,,,,,,,,,,,,,,,,,,,,,,,,,,,,,,,,,,,,,,,,,,,,,,,,,,,,,,,,,,,,,,,,,,,,,,,,,,,,,,,,,
,,,,,,1,0,1,0,1,X V Q F H G B L J M P D K C T S W R N Z,5fb24d262a3a69633d54fd7a,21,Kobieta,2022-06-11_09h42.37.823,task,2021.1.4,Win32,60.17209218,6299f149e92ead563fba08ef,62a4475d1eaae6b8a67b619f,,,,,,,,,,,,,,,,,,,,,,,,,,,,,,,,,,,,,,,,,,,,,,,,,,,,,,,,,,,,,,,,,,,,,,,,,,,,,,,,,,,,,,,,,,,,,,,,,,,,,
,,,,,,2,0,2,0,1,X V Q F H G B L J M P D K C T S W R N Z,5fb24d262a3a69633d54fd7a,21,Kobieta,2022-06-11_09h42.37.823,task,2021.1.4,Win32,60.17209218,6299f149e92ead563fba08ef,62a4475d1eaae6b8a67b619f,,,,,,,,,,,,,,,,,,,,,,,,,,,,,,,,,,,,,,,,,,,,,,,,,,,,,,,,,,,,,,,,,,,,,,,,,,,,,,,,,,,,,,,,,,,,,,,,,,,,,
,,,,,,3,0,3,0,1,X V Q F H G B L J M P D K C T S W R N Z,5fb24d262a3a69633d54fd7a,21,Kobieta,2022-06-11_09h42.37.823,task,2021.1.4,Win32,60.17209218,6299f149e92ead563fba08ef,62a4475d1eaae6b8a67b619f,,,,,,,,,,,,,,,,,,,,,,,,,,,,,,,,,,,,,,,,,,,,,,,,,,,,,,,,,,,,,,,,,,,,,,,,,,,,,,,,,,,,,,,,,,,,,,,,,,,,,
,,,,,,4,0,4,0,1,X V Q F H G B L J M P D K C T S W R N Z,5fb24d262a3a69633d54fd7a,21,Kobieta,2022-06-11_09h42.37.823,task,2021.1.4,Win32,60.17209218,6299f149e92ead563fba08ef,62a4475d1eaae6b8a67b619f,,,,,,,,,,,,,,,,,,,,,,,,,,,,,,,,,,,,,,,,,,,,,,,,,,,,,,,,,,,,,,,,,,,,,,,,,,,,,,,,,,,,,,,,,,,,,,,,,,,,,
,,,,,,5,0,5,0,1,X V Q F H G B L J M P D K C T S W R N Z,5fb24d262a3a69633d54fd7a,21,Kobieta,2022-06-11_09h42.37.823,task,2021.1.4,Win32,60.17209218,6299f149e92ead563fba08ef,62a4475d1eaae6b8a67b619f,,,,,,,,,,,,,,,,,,,,,,,,,,,,,,,,,,,,,,,,,,,,,,,,,,,,,,,,,,,,,,,,,,,,,,,,,,,,,,,,,,,,,,,,,,,,,,,,,,,,,
,,,,,,,,,,,,5fb24d262a3a69633d54fd7a,21,Kobieta,2022-06-11_09h42.37.823,task,2021.1.4,Win32,60.17209218,6299f149e92ead563fba08ef,62a4475d1eaae6b8a67b619f,cvlrvl,"[""c"",""v"",""l"",""r"",""v"",""l""]","[1.0582000002861207,1.4579000000953783,1.9262000002861157,2.7175999999046496,3.5895999999046353,4.789700000286103,5.20170000028611]",0,CVLBVR,9,0,9,0,1,,,,,,,,,,,,,,,,,,,,,,,,,,,,,,,,,,,,,,,,,,,,,,,,,,,,,,,,,,,,,,,,,,,,,,,,,,,,,,,,,,,,,,,,,,,
,,,,,,0,0,0,0,1,X V Q F H G B L J M P D K C T S W R N Z,5fb24d262a3a69633d54fd7a,21,Kobieta,2022-06-11_09h42.37.823,task,2021.1.4,Win32,60.17209218,6299f149e92ead563fba08ef,62a4475d1eaae6b8a67b619f,,,,,,,,,,,,,,,,,,,,,,,,,,,,,,,,,,,,,,,,,,,,,,,,,,,,,,,,,,,,,,,,,,,,,,,,,,,,,,,,,,,,,,,,,,,,,,,,,,,,,
,,,,,,1,0,1,0,1,X V Q F H G B L J M P D K C T S W R N Z,5fb24d262a3a69633d54fd7a,21,Kobieta,2022-06-11_09h42.37.823,task,2021.1.4,Win32,60.17209218,6299f149e92ead563fba08ef,62a4475d1eaae6b8a67b619f,,,,,,,,,,,,,,,,,,,,,,,,,,,,,,,,,,,,,,,,,,,,,,,,,,,,,,,,,,,,,,,,,,,,,,,,,,,,,,,,,,,,,,,,,,,,,,,,,,,,,
,,,,,,2,0,2,0,1,X V Q F H G B L J M P D K C T S W R N Z,5fb24d262a3a69633d54fd7a,21,Kobieta,2022-06-11_09h42.37.823,task,2021.1.4,Win32,60.17209218,6299f149e92ead563fba08ef,62a4475d1eaae6b8a67b619f,,,,,,,,,,,,,,,,,,,,,,,,,,,,,,,,,,,,,,,,,,,,,,,,,,,,,,,,,,,,,,,,,,,,,,,,,,,,,,,,,,,,,,,,,,,,,,,,,,,,,
,,,,,,3,0,3,0,1,X V Q F H G B L J M P D K C T S W R N Z,5fb24d262a3a69633d54fd7a,21,Kobieta,2022-06-11_09h42.37.823,task,2021.1.4,Win32,60.17209218,6299f149e92ead563fba08ef,62a4475d1eaae6b8a67b619f,,,,,,,,,,,,,,,,,,,,,,,,,,,,,,,,,,,,,,,,,,,,,,,,,,,,,,,,,,,,,,,,,,,,,,,,,,,,,,,,,,,,,,,,,,,,,,,,,,,,,
,,,,,,4,0,4,0,1,X V Q F H G B L J M P D K C T S W R N Z,5fb24d262a3a69633d54fd7a,21,Kobieta,2022-06-11_09h42.37.823,task,2021.1.4,Win32,60.17209218,6299f149e92ead563fba08ef,62a4475d1eaae6b8a67b619f,,,,,,,,,,,,,,,,,,,,,,,,,,,,,,,,,,,,,,,,,,,,,,,,,,,,,,,,,,,,,,,,,,,,,,,,,,,,,,,,,,,,,,,,,,,,,,,,,,,,,
,,,,,,5,0,5,0,1,X V Q F H G B L J M P D K C T S W R N Z,5fb24d262a3a69633d54fd7a,21,Kobieta,2022-06-11_09h42.37.823,task,2021.1.4,Win32,60.17209218,6299f149e92ead563fba08ef,62a4475d1eaae6b8a67b619f,,,,,,,,,,,,,,,,,,,,,,,,,,,,,,,,,,,,,,,,,,,,,,,,,,,,,,,,,,,,,,,,,,,,,,,,,,,,,,,,,,,,,,,,,,,,,,,,,,,,,
,,,,,,,,,,,,5fb24d262a3a69633d54fd7a,21,Kobieta,2022-06-11_09h42.37.823,task,2021.1.4,Win32,60.17209218,6299f149e92ead563fba08ef,62a4475d1eaae6b8a67b619f,kdhrsf,"[""k"",""d"",""h"",""r"",""s"",""f""]","[1.8570999999046194,2.6570000000000107,3.2051999998092526,3.921199999809261,4.485400000095353,5.051400000095356,6.025299999713894]",1,KDHRSF,10,0,10,0,1,,,,,,,,,,,,,,,,,,,,,,,,,,,,,,,,,,,,,,,,,,,,,,,,,,,,,,,,,,,,,,,,,,,,,,,,,,,,,,,,,,,,,,,,,,,
,,,,,,0,0,0,0,1,X V Q F H G B L J M P D K C T S W R N Z,5fb24d262a3a69633d54fd7a,21,Kobieta,2022-06-11_09h42.37.823,task,2021.1.4,Win32,60.17209218,6299f149e92ead563fba08ef,62a4475d1eaae6b8a67b619f,,,,,,,,,,,,,,,,,,,,,,,,,,,,,,,,,,,,,,,,,,,,,,,,,,,,,,,,,,,,,,,,,,,,,,,,,,,,,,,,,,,,,,,,,,,,,,,,,,,,,
,,,,,,1,0,1,0,1,X V Q F H G B L J M P D K C T S W R N Z,5fb24d262a3a69633d54fd7a,21,Kobieta,2022-06-11_09h42.37.823,task,2021.1.4,Win32,60.17209218,6299f149e92ead563fba08ef,62a4475d1eaae6b8a67b619f,,,,,,,,,,,,,,,,,,,,,,,,,,,,,,,,,,,,,,,,,,,,,,,,,,,,,,,,,,,,,,,,,,,,,,,,,,,,,,,,,,,,,,,,,,,,,,,,,,,,,
,,,,,,2,0,2,0,1,X V Q F H G B L J M P D K C T S W R N Z,5fb24d262a3a69633d54fd7a,21,Kobieta,2022-06-11_09h42.37.823,task,2021.1.4,Win32,60.17209218,6299f149e92ead563fba08ef,62a4475d1eaae6b8a67b619f,,,,,,,,,,,,,,,,,,,,,,,,,,,,,,,,,,,,,,,,,,,,,,,,,,,,,,,,,,,,,,,,,,,,,,,,,,,,,,,,,,,,,,,,,,,,,,,,,,,,,
,,,,,,3,0,3,0,1,X V Q F H G B L J M P D K C T S W R N Z,5fb24d262a3a69633d54fd7a,21,Kobieta,2022-06-11_09h42.37.823,task,2021.1.4,Win32,60.17209218,6299f149e92ead563fba08ef,62a4475d1eaae6b8a67b619f,,,,,,,,,,,,,,,,,,,,,,,,,,,,,,,,,,,,,,,,,,,,,,,,,,,,,,,,,,,,,,,,,,,,,,,,,,,,,,,,,,,,,,,,,,,,,,,,,,,,,
,,,,,,4,0,4,0,1,X V Q F H G B L J M P D K C T S W R N Z,5fb24d262a3a69633d54fd7a,21,Kobieta,2022-06-11_09h42.37.823,task,2021.1.4,Win32,60.17209218,6299f149e92ead563fba08ef,62a4475d1eaae6b8a67b619f,,,,,,,,,,,,,,,,,,,,,,,,,,,,,,,,,,,,,,,,,,,,,,,,,,,,,,,,,,,,,,,,,,,,,,,,,,,,,,,,,,,,,,,,,,,,,,,,,,,,,
,,,,,,5,0,5,0,1,X V Q F H G B L J M P D K C T S W R N Z,5fb24d262a3a69633d54fd7a,21,Kobieta,2022-06-11_09h42.37.823,task,2021.1.4,Win32,60.17209218,6299f149e92ead563fba08ef,62a4475d1eaae6b8a67b619f,,,,,,,,,,,,,,,,,,,,,,,,,,,,,,,,,,,,,,,,,,,,,,,,,,,,,,,,,,,,,,,,,,,,,,,,,,,,,,,,,,,,,,,,,,,,,,,,,,,,,
,,,,,,,,,,,,5fb24d262a3a69633d54fd7a,21,Kobieta,2022-06-11_09h42.37.823,task,2021.1.4,Win32,60.17209218,6299f149e92ead563fba08ef,62a4475d1eaae6b8a67b619f,tnrkqc,"[""t"",""n"",""r"",""k"",""q"",""c""]","[1.7841000003814713,2.250300000190748,2.9545000000000243,3.4549000000953924,4.202400000095366,4.890500000000003,5.768000000000001]",1,TNRKQC,11,0,11,0,1,,,,,,,,,,,,,,,,,,,,,,,,,,,,,,,,,,,,,,,,,,,,,,,,,,,,,,,,,,,,,,,,,,,,,,,,,,,,,,,,,,,,,,,,,,,
,,,,,,0,0,0,0,1,X V Q F H G B L J M P D K C T S W R N Z,5fb24d262a3a69633d54fd7a,21,Kobieta,2022-06-11_09h42.37.823,task,2021.1.4,Win32,60.17209218,6299f149e92ead563fba08ef,62a4475d1eaae6b8a67b619f,,,,,,,,,,,,,,,,,,,,,,,,,,,,,,,,,,,,,,,,,,,,,,,,,,,,,,,,,,,,,,,,,,,,,,,,,,,,,,,,,,,,,,,,,,,,,,,,,,,,,
,,,,,,1,0,1,0,1,X V Q F H G B L J M P D K C T S W R N Z,5fb24d262a3a69633d54fd7a,21,Kobieta,2022-06-11_09h42.37.823,task,2021.1.4,Win32,60.17209218,6299f149e92ead563fba08ef,62a4475d1eaae6b8a67b619f,,,,,,,,,,,,,,,,,,,,,,,,,,,,,,,,,,,,,,,,,,,,,,,,,,,,,,,,,,,,,,,,,,,,,,,,,,,,,,,,,,,,,,,,,,,,,,,,,,,,,
,,,,,,2,0,2,0,1,X V Q F H G B L J M P D K C T S W R N Z,5fb24d262a3a69633d54fd7a,21,Kobieta,2022-06-11_09h42.37.823,task,2021.1.4,Win32,60.17209218,6299f149e92ead563fba08ef,62a4475d1eaae6b8a67b619f,,,,,,,,,,,,,,,,,,,,,,,,,,,,,,,,,,,,,,,,,,,,,,,,,,,,,,,,,,,,,,,,,,,,,,,,,,,,,,,,,,,,,,,,,,,,,,,,,,,,,
,,,,,,3,0,3,0,1,X V Q F H G B L J M P D K C T S W R N Z,5fb24d262a3a69633d54fd7a,21,Kobieta,2022-06-11_09h42.37.823,task,2021.1.4,Win32,60.17209218,6299f149e92ead563fba08ef,62a4475d1eaae6b8a67b619f,,,,,,,,,,,,,,,,,,,,,,,,,,,,,,,,,,,,,,,,,,,,,,,,,,,,,,,,,,,,,,,,,,,,,,,,,,,,,,,,,,,,,,,,,,,,,,,,,,,,,
,,,,,,4,0,4,0,1,X V Q F H G B L J M P D K C T S W R N Z,5fb24d262a3a69633d54fd7a,21,Kobieta,2022-06-11_09h42.37.823,task,2021.1.4,Win32,60.17209218,6299f149e92ead563fba08ef,62a4475d1eaae6b8a67b619f,,,,,,,,,,,,,,,,,,,,,,,,,,,,,,,,,,,,,,,,,,,,,,,,,,,,,,,,,,,,,,,,,,,,,,,,,,,,,,,,,,,,,,,,,,,,,,,,,,,,,
,,,,,,5,0,5,0,1,X V Q F H G B L J M P D K C T S W R N Z,5fb24d262a3a69633d54fd7a,21,Kobieta,2022-06-11_09h42.37.823,task,2021.1.4,Win32,60.17209218,6299f149e92ead563fba08ef,62a4475d1eaae6b8a67b619f,,,,,,,,,,,,,,,,,,,,,,,,,,,,,,,,,,,,,,,,,,,,,,,,,,,,,,,,,,,,,,,,,,,,,,,,,,,,,,,,,,,,,,,,,,,,,,,,,,,,,
,,,,,,6,0,6,0,1,X V Q F H G B L J M P D K C T S W R N Z,5fb24d262a3a69633d54fd7a,21,Kobieta,2022-06-11_09h42.37.823,task,2021.1.4,Win32,60.17209218,6299f149e92ead563fba08ef,62a4475d1eaae6b8a67b619f,,,,,,,,,,,,,,,,,,,,,,,,,,,,,,,,,,,,,,,,,,,,,,,,,,,,,,,,,,,,,,,,,,,,,,,,,,,,,,,,,,,,,,,,,,,,,,,,,,,,,
,,,,,,,,,,,,5fb24d262a3a69633d54fd7a,21,Kobieta,2022-06-11_09h42.37.823,task,2021.1.4,Win32,60.17209218,6299f149e92ead563fba08ef,62a4475d1eaae6b8a67b619f,rrsfkjs,"[""r"",""r"",""s"",""f"",""k"",""j"",""s""]","[1.4004999999999939,1.5742000002861118,1.9842000002861084,2.602300000190752,3.5026000003814772,3.954400000095376,4.734200000286108,5.300600000381479]",0,RRSFKJQ,12,0,12,0,1,,,,,,,,,,,,,,,,,,,,,,,,,,,,,,,,,,,,,,,,,,,,,,,,,,,,,,,,,,,,,,,,,,,,,,,,,,,,,,,,,,,,,,,,,,,
,,,,,,0,0,0,0,1,X V Q F H G B L J M P D K C T S W R N Z,5fb24d262a3a69633d54fd7a,21,Kobieta,2022-06-11_09h42.37.823,task,2021.1.4,Win32,60.17209218,6299f149e92ead563fba08ef,62a4475d1eaae6b8a67b619f,,,,,,,,,,,,,,,,,,,,,,,,,,,,,,,,,,,,,,,,,,,,,,,,,,,,,,,,,,,,,,,,,,,,,,,,,,,,,,,,,,,,,,,,,,,,,,,,,,,,,
,,,,,,1,0,1,0,1,X V Q F H G B L J M P D K C T S W R N Z,5fb24d262a3a69633d54fd7a,21,Kobieta,2022-06-11_09h42.37.823,task,2021.1.4,Win32,60.17209218,6299f149e92ead563fba08ef,62a4475d1eaae6b8a67b619f,,,,,,,,,,,,,,,,,,,,,,,,,,,,,,,,,,,,,,,,,,,,,,,,,,,,,,,,,,,,,,,,,,,,,,,,,,,,,,,,,,,,,,,,,,,,,,,,,,,,,
,,,,,,2,0,2,0,1,X V Q F H G B L J M P D K C T S W R N Z,5fb24d262a3a69633d54fd7a,21,Kobieta,2022-06-11_09h42.37.823,task,2021.1.4,Win32,60.17209218,6299f149e92ead563fba08ef,62a4475d1eaae6b8a67b619f,,,,,,,,,,,,,,,,,,,,,,,,,,,,,,,,,,,,,,,,,,,,,,,,,,,,,,,,,,,,,,,,,,,,,,,,,,,,,,,,,,,,,,,,,,,,,,,,,,,,,
,,,,,,3,0,3,0,1,X V Q F H G B L J M P D K C T S W R N Z,5fb24d262a3a69633d54fd7a,21,Kobieta,2022-06-11_09h42.37.823,task,2021.1.4,Win32,60.17209218,6299f149e92ead563fba08ef,62a4475d1eaae6b8a67b619f,,,,,,,,,,,,,,,,,,,,,,,,,,,,,,,,,,,,,,,,,,,,,,,,,,,,,,,,,,,,,,,,,,,,,,,,,,,,,,,,,,,,,,,,,,,,,,,,,,,,,
,,,,,,4,0,4,0,1,X V Q F H G B L J M P D K C T S W R N Z,5fb24d262a3a69633d54fd7a,21,Kobieta,2022-06-11_09h42.37.823,task,2021.1.4,Win32,60.17209218,6299f149e92ead563fba08ef,62a4475d1eaae6b8a67b619f,,,,,,,,,,,,,,,,,,,,,,,,,,,,,,,,,,,,,,,,,,,,,,,,,,,,,,,,,,,,,,,,,,,,,,,,,,,,,,,,,,,,,,,,,,,,,,,,,,,,,
,,,,,,5,0,5,0,1,X V Q F H G B L J M P D K C T S W R N Z,5fb24d262a3a69633d54fd7a,21,Kobieta,2022-06-11_09h42.37.823,task,2021.1.4,Win32,60.17209218,6299f149e92ead563fba08ef,62a4475d1eaae6b8a67b619f,,,,,,,,,,,,,,,,,,,,,,,,,,,,,,,,,,,,,,,,,,,,,,,,,,,,,,,,,,,,,,,,,,,,,,,,,,,,,,,,,,,,,,,,,,,,,,,,,,,,,
,,,,,,6,0,6,0,1,X V Q F H G B L J M P D K C T S W R N Z,5fb24d262a3a69633d54fd7a,21,Kobieta,2022-06-11_09h42.37.823,task,2021.1.4,Win32,60.17209218,6299f149e92ead563fba08ef,62a4475d1eaae6b8a67b619f,,,,,,,,,,,,,,,,,,,,,,,,,,,,,,,,,,,,,,,,,,,,,,,,,,,,,,,,,,,,,,,,,,,,,,,,,,,,,,,,,,,,,,,,,,,,,,,,,,,,,
,,,,,,,,,,,,5fb24d262a3a69633d54fd7a,21,Kobieta,2022-06-11_09h42.37.823,task,2021.1.4,Win32,60.17209218,6299f149e92ead563fba08ef,62a4475d1eaae6b8a67b619f,kgjfsk,"[""k"",""g"",""j"",""f"",""s"",""k""]","[1.467099999904633,2.2006999998092738,2.9221999998092656,4.05819999980929,4.822099999904651,6.2552999997139125,7.4220000000000255]",0,KGNSLXK,13,0,13,0,1,,,,,,,,,,,,,,,,,,,,,,,,,,,,,,,,,,,,,,,,,,,,,,,,,,,,,,,,,,,,,,,,,,,,,,,,,,,,,,,,,,,,,,,,,,,
,,,,,,0,0,0,0,1,X V Q F H G B L J M P D K C T S W R N Z,5fb24d262a3a69633d54fd7a,21,Kobieta,2022-06-11_09h42.37.823,task,2021.1.4,Win32,60.17209218,6299f149e92ead563fba08ef,62a4475d1eaae6b8a67b619f,,,,,,,,,,,,,,,,,,,,,,,,,,,,,,,,,,,,,,,,,,,,,,,,,,,,,,,,,,,,,,,,,,,,,,,,,,,,,,,,,,,,,,,,,,,,,,,,,,,,,
,,,,,,1,0,1,0,1,X V Q F H G B L J M P D K C T S W R N Z,5fb24d262a3a69633d54fd7a,21,Kobieta,2022-06-11_09h42.37.823,task,2021.1.4,Win32,60.17209218,6299f149e92ead563fba08ef,62a4475d1eaae6b8a67b619f,,,,,,,,,,,,,,,,,,,,,,,,,,,,,,,,,,,,,,,,,,,,,,,,,,,,,,,,,,,,,,,,,,,,,,,,,,,,,,,,,,,,,,,,,,,,,,,,,,,,,
,,,,,,2,0,2,0,1,X V Q F H G B L J M P D K C T S W R N Z,5fb24d262a3a69633d54fd7a,21,Kobieta,2022-06-11_09h42.37.823,task,2021.1.4,Win32,60.17209218,6299f149e92ead563fba08ef,62a4475d1eaae6b8a67b619f,,,,,,,,,,,,,,,,,,,,,,,,,,,,,,,,,,,,,,,,,,,,,,,,,,,,,,,,,,,,,,,,,,,,,,,,,,,,,,,,,,,,,,,,,,,,,,,,,,,,,
,,,,,,3,0,3,0,1,X V Q F H G B L J M P D K C T S W R N Z,5fb24d262a3a69633d54fd7a,21,Kobieta,2022-06-11_09h42.37.823,task,2021.1.4,Win32,60.17209218,6299f149e92ead563fba08ef,62a4475d1eaae6b8a67b619f,,,,,,,,,,,,,,,,,,,,,,,,,,,,,,,,,,,,,,,,,,,,,,,,,,,,,,,,,,,,,,,,,,,,,,,,,,,,,,,,,,,,,,,,,,,,,,,,,,,,,
,,,,,,4,0,4,0,1,X V Q F H G B L J M P D K C T S W R N Z,5fb24d262a3a69633d54fd7a,21,Kobieta,2022-06-11_09h42.37.823,task,2021.1.4,Win32,60.17209218,6299f149e92ead563fba08ef,62a4475d1eaae6b8a67b619f,,,,,,,,,,,,,,,,,,,,,,,,,,,,,,,,,,,,,,,,,,,,,,,,,,,,,,,,,,,,,,,,,,,,,,,,,,,,,,,,,,,,,,,,,,,,,,,,,,,,,
,,,,,,5,0,5,0,1,X V Q F H G B L J M P D K C T S W R N Z,5fb24d262a3a69633d54fd7a,21,Kobieta,2022-06-11_09h42.37.823,task,2021.1.4,Win32,60.17209218,6299f149e92ead563fba08ef,62a4475d1eaae6b8a67b619f,,,,,,,,,,,,,,,,,,,,,,,,,,,,,,,,,,,,,,,,,,,,,,,,,,,,,,,,,,,,,,,,,,,,,,,,,,,,,,,,,,,,,,,,,,,,,,,,,,,,,
,,,,,,6,0,6,0,1,X V Q F H G B L J M P D K C T S W R N Z,5fb24d262a3a69633d54fd7a,21,Kobieta,2022-06-11_09h42.37.823,task,2021.1.4,Win32,60.17209218,6299f149e92ead563fba08ef,62a4475d1eaae6b8a67b619f,,,,,,,,,,,,,,,,,,,,,,,,,,,,,,,,,,,,,,,,,,,,,,,,,,,,,,,,,,,,,,,,,,,,,,,,,,,,,,,,,,,,,,,,,,,,,,,,,,,,,
,,,,,,,,,,,,5fb24d262a3a69633d54fd7a,21,Kobieta,2022-06-11_09h42.37.823,task,2021.1.4,Win32,60.17209218,6299f149e92ead563fba08ef,62a4475d1eaae6b8a67b619f,mdsgjhm,"[""m"",""d"",""s"",""g"",""j"",""h"",""m""]","[1.1203000001907526,1.7202000002860984,2.156300000190754,4.633999999999958,5.03430000019074,5.51870000028606,5.850800000190702,6.640400000095326]",1,MDSGJHM,14,0,14,0,1,,,,,,,,,,,,,,,,,,,,,,,,,,,,,,,,,,,,,,,,,,,,,,,,,,,,,,,,,,,,,,,,,,,,,,,,,,,,,,,,,,,,,,,,,,,
,,,,,,0,0,0,0,1,X V Q F H G B L J M P D K C T S W R N Z,5fb24d262a3a69633d54fd7a,21,Kobieta,2022-06-11_09h42.37.823,task,2021.1.4,Win32,60.17209218,6299f149e92ead563fba08ef,62a4475d1eaae6b8a67b619f,,,,,,,,,,,,,,,,,,,,,,,,,,,,,,,,,,,,,,,,,,,,,,,,,,,,,,,,,,,,,,,,,,,,,,,,,,,,,,,,,,,,,,,,,,,,,,,,,,,,,
,,,,,,1,0,1,0,1,X V Q F H G B L J M P D K C T S W R N Z,5fb24d262a3a69633d54fd7a,21,Kobieta,2022-06-11_09h42.37.823,task,2021.1.4,Win32,60.17209218,6299f149e92ead563fba08ef,62a4475d1eaae6b8a67b619f,,,,,,,,,,,,,,,,,,,,,,,,,,,,,,,,,,,,,,,,,,,,,,,,,,,,,,,,,,,,,,,,,,,,,,,,,,,,,,,,,,,,,,,,,,,,,,,,,,,,,
,,,,,,2,0,2,0,1,X V Q F H G B L J M P D K C T S W R N Z,5fb24d262a3a69633d54fd7a,21,Kobieta,2022-06-11_09h42.37.823,task,2021.1.4,Win32,60.17209218,6299f149e92ead563fba08ef,62a4475d1eaae6b8a67b619f,,,,,,,,,,,,,,,,,,,,,,,,,,,,,,,,,,,,,,,,,,,,,,,,,,,,,,,,,,,,,,,,,,,,,,,,,,,,,,,,,,,,,,,,,,,,,,,,,,,,,
,,,,,,3,0,3,0,1,X V Q F H G B L J M P D K C T S W R N Z,5fb24d262a3a69633d54fd7a,21,Kobieta,2022-06-11_09h42.37.823,task,2021.1.4,Win32,60.17209218,6299f149e92ead563fba08ef,62a4475d1eaae6b8a67b619f,,,,,,,,,,,,,,,,,,,,,,,,,,,,,,,,,,,,,,,,,,,,,,,,,,,,,,,,,,,,,,,,,,,,,,,,,,,,,,,,,,,,,,,,,,,,,,,,,,,,,
,,,,,,4,0,4,0,1,X V Q F H G B L J M P D K C T S W R N Z,5fb24d262a3a69633d54fd7a,21,Kobieta,2022-06-11_09h42.37.823,task,2021.1.4,Win32,60.17209218,6299f149e92ead563fba08ef,62a4475d1eaae6b8a67b619f,,,,,,,,,,,,,,,,,,,,,,,,,,,,,,,,,,,,,,,,,,,,,,,,,,,,,,,,,,,,,,,,,,,,,,,,,,,,,,,,,,,,,,,,,,,,,,,,,,,,,
,,,,,,5,0,5,0,1,X V Q F H G B L J M P D K C T S W R N Z,5fb24d262a3a69633d54fd7a,21,Kobieta,2022-06-11_09h42.37.823,task,2021.1.4,Win32,60.17209218,6299f149e92ead563fba08ef,62a4475d1eaae6b8a67b619f,,,,,,,,,,,,,,,,,,,,,,,,,,,,,,,,,,,,,,,,,,,,,,,,,,,,,,,,,,,,,,,,,,,,,,,,,,,,,,,,,,,,,,,,,,,,,,,,,,,,,
,,,,,,6,0,6,0,1,X V Q F H G B L J M P D K C T S W R N Z,5fb24d262a3a69633d54fd7a,21,Kobieta,2022-06-11_09h42.37.823,task,2021.1.4,Win32,60.17209218,6299f149e92ead563fba08ef,62a4475d1eaae6b8a67b619f,,,,,,,,,,,,,,,,,,,,,,,,,,,,,,,,,,,,,,,,,,,,,,,,,,,,,,,,,,,,,,,,,,,,,,,,,,,,,,,,,,,,,,,,,,,,,,,,,,,,,
,,,,,,,,,,,,5fb24d262a3a69633d54fd7a,21,Kobieta,2022-06-11_09h42.37.823,task,2021.1.4,Win32,60.17209218,6299f149e92ead563fba08ef,62a4475d1eaae6b8a67b619f,nlkmkfj,"[""n"",""l"",""k"",""m"",""k"",""f"",""j""]","[1.6176999998093038,2.9095999999046285,4.667300000190778,6.785000000000025,7.185400000095399,8.441500000000019,9.085900000095364,9.889499999999998]",0,NLHXKFS,15,0,15,0,1,,,,,,,,,,,,,,,,,,,,,,,,,,,,,,,,,,,,,,,,,,,,,,,,,,,,,,,,,,,,,,,,,,,,,,,,,,,,,,,,,,,,,,,,,,,
,,,,,,,,,,,,5fb24d262a3a69633d54fd7a,21,Kobieta,2022-06-11_09h42.37.823,task,2021.1.4,Win32,60.17209218,6299f149e92ead563fba08ef,62a4475d1eaae6b8a67b619f,,,,,,,,,,,space,16.9685,0,"[""0""]",1,[6.475400000095362],[6.475400000095362],0,0,0,0,1,Practice,1,(3x3) -  9,0,,,,,,,,,,,,,,,,,,,,,,,,,,,,,,,,,,,,,,,,,,,,,,,,,,,,,,,,,,,,,,,,,,,,,,,,,,,
,,,,,,,,,,,,5fb24d262a3a69633d54fd7a,21,Kobieta,2022-06-11_09h42.37.823,task,2021.1.4,Win32,60.17209218,6299f149e92ead563fba08ef,62a4475d1eaae6b8a67b619f,,,,,,,,,,,,,4,"[""4""]",1,[6.4739999999999895],"[6.475400000095362,6.4739999999999895]",0,1,1,4,1,Practice,5,(2x6) - 8,4,,,,,,,,,,,,,,,,,,,,,,,,,,,,,,,,,,,,,,,,,,,,,,,,,,,,,,,,,,,,,,,,,,,,,,,,,,,
,,,,,,,,,,,,5fb24d262a3a69633d54fd7a,21,Kobieta,2022-06-11_09h42.37.823,task,2021.1.4,Win32,60.17209218,6299f149e92ead563fba08ef,62a4475d1eaae6b8a67b619f,,,,,,,,,,,,,9,"[""9""]",1,[3.531199999809303],"[6.475400000095362,6.4739999999999895,3.531199999809303]",0,2,2,9,1,Practice,10,(20/2) - 1,9,,,,,,,,,,,,,,,,,,,,,,,,,,,,,,,,,,,,,,,,,,,,,,,,,,,,,,,,,,,,,,,,,,,,,,,,,,,
,,,,,,,,,,,,5fb24d262a3a69633d54fd7a,21,Kobieta,2022-06-11_09h42.37.823,task,2021.1.4,Win32,60.17209218,6299f149e92ead563fba08ef,62a4475d1eaae6b8a67b619f,,,,,,,,,,,,,7,"[""7""]",1,[11.014499999999998],"[6.475400000095362,6.4739999999999895,3.531199999809303,11.014499999999998]",0,3,3,7,1,Practice,8,(5x5) - 18,7,,,,,,,,,,,,,,,,,,,,,,,,,,,,,,,,,,,,,,,,,,,,,,,,,,,,,,,,,,,,,,,,,,,,,,,,,,,
,,,,,,,,,,,,5fb24d262a3a69633d54fd7a,21,Kobieta,2022-06-11_09h42.37.823,task,2021.1.4,Win32,60.17209218,6299f149e92ead563fba08ef,62a4475d1eaae6b8a67b619f,,,,,,,,,,,,,5,"[""5""]",1,[3.0513000001907358],"[6.475400000095362,6.4739999999999895,3.531199999809303,11.014499999999998,3.0513000001907358]",0,4,4,5,1,Practice,6,(4/2) + 3,5,,,,,,,,,,,,,,,,,,,,,,,,,,,,,,,,,,,,,,,,,,,,,,,,,,,,,,,,,,,,,,,,,,,,,,,,,,,
,,,,,,,,,,,,5fb24d262a3a69633d54fd7a,21,Kobieta,2022-06-11_09h42.37.823,task,2021.1.4,Win32,60.17209218,6299f149e92ead563fba08ef,62a4475d1eaae6b8a67b619f,,,,,,,,,,,,,8,"[""8""]",1,[2.7742999997138895],"[6.475400000095362,6.4739999999999895,3.531199999809303,11.014499999999998,3.0513000001907358,2.7742999997138895]",0,5,5,8,1,Practice,9,(3x3) - 1,8,,,,,,,,,,,,,,,,,,,,,,,,,,,,,,,,,,,,,,,,,,,,,,,,,,,,,,,,,,,,,,,,,,,,,,,,,,,
,,,,,,,,,,,,5fb24d262a3a69633d54fd7a,21,Kobieta,2022-06-11_09h42.37.823,task,2021.1.4,Win32,60.17209218,6299f149e92ead563fba08ef,62a4475d1eaae6b8a67b619f,,,,,,,,,,,,,6,"[""6""]",1,[5.184700000286114],"[6.475400000095362,6.4739999999999895,3.531199999809303,11.014499999999998,3.0513000001907358,2.7742999997138895,5.184700000286114]",0,6,6,6,1,Practice,7,(25/5) + 1,6,,,,,,,,,,,,,,,,,,,,,,,,,,,,,,,,,,,,,,,,,,,,,,,,,,,,,,,,,,,,,,,,,,,,,,,,,,,
,,,,,,,,,,,,5fb24d262a3a69633d54fd7a,21,Kobieta,2022-06-11_09h42.37.823,task,2021.1.4,Win32,60.17209218,6299f149e92ead563fba08ef,62a4475d1eaae6b8a67b619f,,,,,,,,,,,,,3,"[""3""]",1,[7.086400000095409],"[6.475400000095362,6.4739999999999895,3.531199999809303,11.014499999999998,3.0513000001907358,2.7742999997138895,5.184700000286114,7.086400000095409]",0,7,7,3,1,Practice,4,(8/4) + 1,3,,,,,,,,,,,,,,,,,,,,,,,,,,,,,,,,,,,,,,,,,,,,,,,,,,,,,,,,,,,,,,,,,,,,,,,,,,,
,,,,,,,,,,,,5fb24d262a3a69633d54fd7a,21,Kobieta,2022-06-11_09h42.37.823,task,2021.1.4,Win32,60.17209218,6299f149e92ead563fba08ef,62a4475d1eaae6b8a67b619f,,,,,,,,,,,,,1,"[""1""]",1,[3.466199999809305],"[6.475400000095362,6.4739999999999895,3.531199999809303,11.014499999999998,3.0513000001907358,2.7742999997138895,5.184700000286114,7.086400000095409,3.466199999809305]",0,8,8,1,1,Practice,2,(4x4) - 15,1,,,,,,,,,,,,,,,,,,,,,,,,,,,,,,,,,,,,,,,,,,,,,,,,,,,,,,,,,,,,,,,,,,,,,,,,,,,
,,,,,,,,,,,,5fb24d262a3a69633d54fd7a,21,Kobieta,2022-06-11_09h42.37.823,task,2021.1.4,Win32,60.17209218,6299f149e92ead563fba08ef,62a4475d1eaae6b8a67b619f,,,,,,,,,,,,,2,"[""2""]",1,[4.838900000095407],"[6.475400000095362,6.4739999999999895,3.531199999809303,11.014499999999998,3.0513000001907358,2.7742999997138895,5.184700000286114,7.086400000095409,3.466199999809305,4.838900000095407]",0,9,9,2,1,Practice,3,(4x4) - 14,2,,,,,,,,,,,,,,,,,,,,,,,,,,,,,,,,,,,,,,,,,,,,,,,,,,,,,,,,,,,,,,,,,,,,,,,,,,,
,,,,,,,,,,,,5fb24d262a3a69633d54fd7a,21,Kobieta,2022-06-11_09h42.37.823,task,2021.1.4,Win32,60.17209218,6299f149e92ead563fba08ef,62a4475d1eaae6b8a67b619f,,,,,,,,,,,,,,,,,,,,,,,,,,,1,53.8969,3.593126667,88.95572688,2.435237523,9.876039475,space,4.9526,0,0,0,0,1,,,,,,,,,,,,,,,,,,,,,,,,,,,,,,,,,,,,,,,,,,,,,,,,,,,,,,,,,,,,,,
,,,,,,,,,,,,5fb24d262a3a69633d54fd7a,21,Kobieta,2022-06-11_09h42.37.823,task,2021.1.4,Win32,60.17209218,6299f149e92ead563fba08ef,62a4475d1eaae6b8a67b619f,,,,,,,,,,,,,5,,,,,,,,,,Practice,6,(4/2) + 3,5,,,,,,,,,,,,,,space,26.057,"[""5""]",1,[6.143699999809257],1,0,0,0,5,1,,,,,,,,,,,,,,,,,,,,,,,,,,,,,,,,,,,,,,,,,,,,,,,,,,,
,,,,,,,,,,,X V Q F H G B L J M P D K C T S W R N Z,5fb24d262a3a69633d54fd7a,21,Kobieta,2022-06-11_09h42.37.823,task,2021.1.4,Win32,60.17209218,6299f149e92ead563fba08ef,62a4475d1eaae6b8a67b619f,,,,,,,,,,,,,,,,,,,,,,,,,,,,,,,,,,,,,,,,,,,,,,,,,,,0,0,0,0,1,,,,,,,,,,,,,,,,,,,,,,,,,,,,,,,,,,,,,,,,,,,,,,
,,,,,,,,,,,,5fb24d262a3a69633d54fd7a,21,Kobieta,2022-06-11_09h42.37.823,task,2021.1.4,Win32,60.17209218,6299f149e92ead563fba08ef,62a4475d1eaae6b8a67b619f,,,,,,,,,,,,,,,,,,,,,,,Practice,10,(20/2) - 1,9,,,,,,,,,,,,,,,,,0,,0,0,0,0,9,1,,,,,,,,,,,,,,,,,,,,,,,,,,,,,,,,,,,,,,,,,,,,,,,,,,,
,,,,,,,,,,,,5fb24d262a3a69633d54fd7a,21,Kobieta,2022-06-11_09h42.37.823,task,2021.1.4,Win32,60.17209218,6299f149e92ead563fba08ef,62a4475d1eaae6b8a67b619f,,,,,,,,,,,,,2,,,,,,,,,,Practice,3,(4x4) - 14,2,,,,,,,,,,,,,,,,"[""2""]",1,[2.4544000000953474],1,0,1,1,2,1,,,,,,,,,,,,,,,,,,,,,,,,,,,,,,,,,,,,,,,,,,,,,,,,,,,
,,,,,,,,,,,X V Q F H G B L J M P D K C T S W R N Z,5fb24d262a3a69633d54fd7a,21,Kobieta,2022-06-11_09h42.37.823,task,2021.1.4,Win32,60.17209218,6299f149e92ead563fba08ef,62a4475d1eaae6b8a67b619f,,,,,,,,,,,,,,,,,,,,,,,,,,,,,,,,,,,,,,,,,,,,,,,,,,,1,0,1,0,1,,,,,,,,,,,,,,,,,,,,,,,,,,,,,,,,,,,,,,,,,,,,,,
,,,,,,,,,,,,5fb24d262a3a69633d54fd7a,21,Kobieta,2022-06-11_09h42.37.823,task,2021.1.4,Win32,60.17209218,6299f149e92ead563fba08ef,62a4475d1eaae6b8a67b619f,,,,,,,,,,,,,,,,,,,,,,,,,,,,,,,,,,,,,,,,,,,,,,,,,,,,,,,,zx,"[""z"",""x""]",0,"[2.1658999996185457,2.573500000000024,3.1895000000000095]",1,0,0,0,0,1,,,,,,,,,,,,,,,,,,,,,,,,,,,,,,,,,,,,
,,,,,,,,,,,,5fb24d262a3a69633d54fd7a,21,Kobieta,2022-06-11_09h42.37.823,task,2021.1.4,Win32,60.17209218,6299f149e92ead563fba08ef,62a4475d1eaae6b8a67b619f,,,,,,,,,,,,,8,,,,,,,,,,Practice,9,(3x3) - 1,8,,,,,,,,,,,,,,,,"[""8""]",1,[2.1716000003814884],1,0,0,0,8,1,,,,,,,,,,,,,,,,,,,,,,,,,,,,,,,,,,,,,,,,,,,,,,,,,,,
,,,,,,,,,,,X V Q F H G B L J M P D K C T S W R N Z,5fb24d262a3a69633d54fd7a,21,Kobieta,2022-06-11_09h42.37.823,task,2021.1.4,Win32,60.17209218,6299f149e92ead563fba08ef,62a4475d1eaae6b8a67b619f,,,,,,,,,,,,,,,,,,,,,,,,,,,,,,,,,,,,,,,,,,,,,,,,,,,0,0,0,0,1,,,,,,,,,,,,,,,,,,,,,,,,,,,,,,,,,,,,,,,,,,,,,,
,,,,,,,,,,,,5fb24d262a3a69633d54fd7a,21,Kobieta,2022-06-11_09h42.37.823,task,2021.1.4,Win32,60.17209218,6299f149e92ead563fba08ef,62a4475d1eaae6b8a67b619f,,,,,,,,,,,,,6,,,,,,,,,,Practice,7,(25/5) + 1,6,,,,,,,,,,,,,,,,"[""6""]",1,[3.8245000000000005],1,0,0,0,6,1,,,,,,,,,,,,,,,,,,,,,,,,,,,,,,,,,,,,,,,,,,,,,,,,,,,
,,,,,,,,,,,X V Q F H G B L J M P D K C T S W R N Z,5fb24d262a3a69633d54fd7a,21,Kobieta,2022-06-11_09h42.37.823,task,2021.1.4,Win32,60.17209218,6299f149e92ead563fba08ef,62a4475d1eaae6b8a67b619f,,,,,,,,,,,,,,,,,,,,,,,,,,,,,,,,,,,,,,,,,,,,,,,,,,,1,0,1,0,1,,,,,,,,,,,,,,,,,,,,,,,,,,,,,,,,,,,,,,,,,,,,,,
,,,,,,,,,,,,5fb24d262a3a69633d54fd7a,21,Kobieta,2022-06-11_09h42.37.823,task,2021.1.4,Win32,60.17209218,6299f149e92ead563fba08ef,62a4475d1eaae6b8a67b619f,,,,,,,,,,,,,,,,,,,,,,,,,,,,,,,,,,,,,,,,,,,,,,,,,,,,,,,,xz,"[""x"",""z""]",0,"[2.040099999904669,2.2855999999046617,3.0041999998092592]",1,1,0,1,0,1,,,,,,,,,,,,,,,,,,,,,,,,,,,,,,,,,,,,
,,,,,,,,,,,,5fb24d262a3a69633d54fd7a,21,Kobieta,2022-06-11_09h42.37.823,task,2021.1.4,Win32,60.17209218,6299f149e92ead563fba08ef,62a4475d1eaae6b8a67b619f,,,,,,,,,,,,,5,,,,,,,,,,Practice,6,(4/2) + 3,5,,,,,,,,,,,,,,,,"[""5""]",1,[2.234099999904629],1,0,0,0,5,1,,,,,,,,,,,,,,,,,,,,,,,,,,,,,,,,,,,,,,,,,,,,,,,,,,,
,,,,,,,,,,,X V Q F H G B L J M P D K C T S W R N Z,5fb24d262a3a69633d54fd7a,21,Kobieta,2022-06-11_09h42.37.823,task,2021.1.4,Win32,60.17209218,6299f149e92ead563fba08ef,62a4475d1eaae6b8a67b619f,,,,,,,,,,,,,,,,,,,,,,,,,,,,,,,,,,,,,,,,,,,,,,,,,,,0,0,0,0,1,,,,,,,,,,,,,,,,,,,,,,,,,,,,,,,,,,,,,,,,,,,,,,
,,,,,,,,,,,,5fb24d262a3a69633d54fd7a,21,Kobieta,2022-06-11_09h42.37.823,task,2021.1.4,Win32,60.17209218,6299f149e92ead563fba08ef,62a4475d1eaae6b8a67b619f,,,,,,,,,,,,,1,,,,,,,,,,Practice,2,(4x4) - 15,1,,,,,,,,,,,,,,,,"[""1""]",1,[2.6655000000000086],1,0,0,0,1,1,,,,,,,,,,,,,,,,,,,,,,,,,,,,,,,,,,,,,,,,,,,,,,,,,,,
,,,,,,,,,,,X V Q F H G B L J M P D K C T S W R N Z,5fb24d262a3a69633d54fd7a,21,Kobieta,2022-06-11_09h42.37.823,task,2021.1.4,Win32,60.17209218,6299f149e92ead563fba08ef,62a4475d1eaae6b8a67b619f,,,,,,,,,,,,,,,,,,,,,,,,,,,,,,,,,,,,,,,,,,,,,,,,,,,1,0,1,0,1,,,,,,,,,,,,,,,,,,,,,,,,,,,,,,,,,,,,,,,,,,,,,,
,,,,,,,,,,,,5fb24d262a3a69633d54fd7a,21,Kobieta,2022-06-11_09h42.37.823,task,2021.1.4,Win32,60.17209218,6299f149e92ead563fba08ef,62a4475d1eaae6b8a67b619f,,,,,,,,,,,,,,,,,,,,,,,,,,,,,,,,,,,,,,,,,,,,,,,,,,,,,,,,kn,"[""k"",""n""]",0,"[1.4664999999999964,1.9160999999046453,2.319199999809257]",1,2,0,2,0,1,,,,,,,,,,,,,,,,,,,,,,,,,,,,,,,,,,,,
,,,,,,,,,,,,5fb24d262a3a69633d54fd7a,21,Kobieta,2022-06-11_09h42.37.823,task,2021.1.4,Win32,60.17209218,6299f149e92ead563fba08ef,62a4475d1eaae6b8a67b619f,,,,,,,,,,,,,4,,,,,,,,,,Task,21,(10/2) - 1,4,,,,,,,,,,,,,,,,,,,1,,,,,,,,,,,,,,,,,,,,,space,23.1726,"[""4""]",1,[3.842400000095381],0,0,0,20,1,,,,,,,,,,,,,,,,,,,,,,,,,,
,,,,,,,,,,,X V Q F H G B L J M P D K C T S W R N Z,5fb24d262a3a69633d54fd7a,21,Kobieta,2022-06-11_09h42.37.823,task,2021.1.4,Win32,60.17209218,6299f149e92ead563fba08ef,62a4475d1eaae6b8a67b619f,,,,,,,,,,,,,,,,,,,,,,,,,,,,,,,,,,,,,,,,,,,,,,,,,,,,,,,,,,,,,,,,,,,,,,,,,,,,0,0,0,0,1,,,,,,,,,,,,,,,,,,,,,
,,,,,,,,,,,,5fb24d262a3a69633d54fd7a,21,Kobieta,2022-06-11_09h42.37.823,task,2021.1.4,Win32,60.17209218,6299f149e92ead563fba08ef,62a4475d1eaae6b8a67b619f,,,,,,,,,,,,,9,,,,,,,,,,Task,40,(7x2) - 5,9,,,,,,,,,,,,,,,,,,,1,,,,,,,,,,,,,,,,,,,,,,,"[""9""]",1,[4.09720000028608],0,0,0,39,1,,,,,,,,,,,,,,,,,,,,,,,,,,
,,,,,,,,,,,X V Q F H G B L J M P D K C T S W R N Z,5fb24d262a3a69633d54fd7a,21,Kobieta,2022-06-11_09h42.37.823,task,2021.1.4,Win32,60.17209218,6299f149e92ead563fba08ef,62a4475d1eaae6b8a67b619f,,,,,,,,,,,,,,,,,,,,,,,,,,,,,,,,,,,,,,,,,,,,,,,,,,,,,,,,,,,,,,,,,,,,,,,,,,,,1,0,1,0,1,,,,,,,,,,,,,,,,,,,,,
,,,,,,,,,,,,5fb24d262a3a69633d54fd7a,21,Kobieta,2022-06-11_09h42.37.823,task,2021.1.4,Win32,60.17209218,6299f149e92ead563fba08ef,62a4475d1eaae6b8a67b619f,,,,,,,,,,,,,,,,,,,,,,,,,,,,,,,,,,,,,,,,,,,,,,,,,,,,,,,,,,,,,,,,,,,,,,,,,,,,,,,,,zq,"[""z"",""q""]",0,"[2.0844999999999914,2.968399999618555,3.8563999996185316]",1,ZQ,0,0,0,0,1,,,,,,,,,,
,,,,,,,,,,,,5fb24d262a3a69633d54fd7a,21,Kobieta,2022-06-11_09h42.37.823,task,2021.1.4,Win32,60.17209218,6299f149e92ead563fba08ef,62a4475d1eaae6b8a67b619f,,,,,,,,,,,,,6,,,,,,,,,,Task,5,(2x3) + 0,6,,,,,,,,,,,,,,,,,,,1,,,,,,,,,,,,,,,,,,,,,,,"[""6""]",1,[3.415899999618489],0,0,0,4,1,,,,,,,,,,,,,,,,,,,,,,,,,,
,,,,,,,,,,,X V Q F H G B L J M P D K C T S W R N Z,5fb24d262a3a69633d54fd7a,21,Kobieta,2022-06-11_09h42.37.823,task,2021.1.4,Win32,60.17209218,6299f149e92ead563fba08ef,62a4475d1eaae6b8a67b619f,,,,,,,,,,,,,,,,,,,,,,,,,,,,,,,,,,,,,,,,,,,,,,,,,,,,,,,,,,,,,,,,,,,,,,,,,,,,0,0,0,0,1,,,,,,,,,,,,,,,,,,,,,
,,,,,,,,,,,,5fb24d262a3a69633d54fd7a,21,Kobieta,2022-06-11_09h42.37.823,task,2021.1.4,Win32,60.17209218,6299f149e92ead563fba08ef,62a4475d1eaae6b8a67b619f,,,,,,,,,,,,,,,,,,,,,,,Task,29,(3x8) - 19 ,5,,,,,,,,,,,,,,,,,,,0,,,,,,,,,,,,,,,,,,,,,,,,0,,0,0,0,28,1,,,,,,,,,,,,,,,,,,,,,,,,,,
,,,,,,,,,,,,5fb24d262a3a69633d54fd7a,21,Kobieta,2022-06-11_09h42.37.823,task,2021.1.4,Win32,60.17209218,6299f149e92ead563fba08ef,62a4475d1eaae6b8a67b619f,,,,,,,,,,,,,5,,,,,,,,,,Task,22,(3x1) + 2,5,,,,,,,,,,,,,,,,,,,1,,,,,,,,,,,,,,,,,,,,,,,"[""5""]",1,[4.073199999809162],0,1,1,21,1,,,,,,,,,,,,,,,,,,,,,,,,,,
,,,,,,,,,,,X V Q F H G B L J M P D K C T S W R N Z,5fb24d262a3a69633d54fd7a,21,Kobieta,2022-06-11_09h42.37.823,task,2021.1.4,Win32,60.17209218,6299f149e92ead563fba08ef,62a4475d1eaae6b8a67b619f,,,,,,,,,,,,,,,,,,,,,,,,,,,,,,,,,,,,,,,,,,,,,,,,,,,,,,,,,,,,,,,,,,,,,,,,,,,,1,0,1,0,1,,,,,,,,,,,,,,,,,,,,,
,,,,,,,,,,,,5fb24d262a3a69633d54fd7a,21,Kobieta,2022-06-11_09h42.37.823,task,2021.1.4,Win32,60.17209218,6299f149e92ead563fba08ef,62a4475d1eaae6b8a67b619f,,,,,,,,,,,,,8,,,,,,,,,,Task,39,(5x3) - 7,8,,,,,,,,,,,,,,,,,,,1,,,,,,,,,,,,,,,,,,,,,,,"[""8""]",1,[5.639800000190689],0,0,0,38,1,,,,,,,,,,,,,,,,,,,,,,,,,,
,,,,,,,,,,,X V Q F H G B L J M P D K C T S W R N Z,5fb24d262a3a69633d54fd7a,21,Kobieta,2022-06-11_09h42.37.823,task,2021.1.4,Win32,60.17209218,6299f149e92ead563fba08ef,62a4475d1eaae6b8a67b619f,,,,,,,,,,,,,,,,,,,,,,,,,,,,,,,,,,,,,,,,,,,,,,,,,,,,,,,,,,,,,,,,,,,,,,,,,,,,2,0,2,0,1,,,,,,,,,,,,,,,,,,,,,
,,,,,,,,,,,,5fb24d262a3a69633d54fd7a,21,Kobieta,2022-06-11_09h42.37.823,task,2021.1.4,Win32,60.17209218,6299f149e92ead563fba08ef,62a4475d1eaae6b8a67b619f,,,,,,,,,,,,,,,,,,,,,,,,,,,,,,,,,,,,,,,,,,,,,,,,,,,,,,,,,,,,,,,,,,,,,,,,,,,,,,,,,tlh,"[""t"",""l"",""h""]",0,"[2.61040000009541,3.3224000000953993,4.074100000381463,4.78470000028608]",1,TLH,1,0,1,0,1,,,,,,,,,,
,,,,,,,,,,,,5fb24d262a3a69633d54fd7a,21,Kobieta,2022-06-11_09h42.37.823,task,2021.1.4,Win32,60.17209218,6299f149e92ead563fba08ef,62a4475d1eaae6b8a67b619f,,,,,,,,,,,,,0,,,,,,,,,,Task,8,(1x5) - 5,0,,,,,,,,,,,,,,,,,,,1,,,,,,,,,,,,,,,,,,,,,,,"[""0""]",1,[4.286999999999921],0,0,0,7,1,,,,,,,,,,,,,,,,,,,,,,,,,,
,,,,,,,,,,,X V Q F H G B L J M P D K C T S W R N Z,5fb24d262a3a69633d54fd7a,21,Kobieta,2022-06-11_09h42.37.823,task,2021.1.4,Win32,60.17209218,6299f149e92ead563fba08ef,62a4475d1eaae6b8a67b619f,,,,,,,,,,,,,,,,,,,,,,,,,,,,,,,,,,,,,,,,,,,,,,,,,,,,,,,,,,,,,,,,,,,,,,,,,,,,0,0,0,0,1,,,,,,,,,,,,,,,,,,,,,
,,,,,,,,,,,,5fb24d262a3a69633d54fd7a,21,Kobieta,2022-06-11_09h42.37.823,task,2021.1.4,Win32,60.17209218,6299f149e92ead563fba08ef,62a4475d1eaae6b8a67b619f,,,,,,,,,,,,,8,,,,,,,,,,Task,32,(8/2) + 4,8,,,,,,,,,,,,,,,,,,,1,,,,,,,,,,,,,,,,,,,,,,,"[""8""]",1,[3.3547000002861296],0,0,0,31,1,,,,,,,,,,,,,,,,,,,,,,,,,,
,,,,,,,,,,,X V Q F H G B L J M P D K C T S W R N Z,5fb24d262a3a69633d54fd7a,21,Kobieta,2022-06-11_09h42.37.823,task,2021.1.4,Win32,60.17209218,6299f149e92ead563fba08ef,62a4475d1eaae6b8a67b619f,,,,,,,,,,,,,,,,,,,,,,,,,,,,,,,,,,,,,,,,,,,,,,,,,,,,,,,,,,,,,,,,,,,,,,,,,,,,1,0,1,0,1,,,,,,,,,,,,,,,,,,,,,
,,,,,,,,,,,,5fb24d262a3a69633d54fd7a,21,Kobieta,2022-06-11_09h42.37.823,task,2021.1.4,Win32,60.17209218,6299f149e92ead563fba08ef,62a4475d1eaae6b8a67b619f,,,,,,,,,,,,,4,,,,,,,,,,Task,4,(1x5) - 1,4,,,,,,,,,,,,,,,,,,,1,,,,,,,,,,,,,,,,,,,,,,,"[""4""]",1,[4.123099999904639],0,0,0,3,1,,,,,,,,,,,,,,,,,,,,,,,,,,
,,,,,,,,,,,X V Q F H G B L J M P D K C T S W R N Z,5fb24d262a3a69633d54fd7a,21,Kobieta,2022-06-11_09h42.37.823,task,2021.1.4,Win32,60.17209218,6299f149e92ead563fba08ef,62a4475d1eaae6b8a67b619f,,,,,,,,,,,,,,,,,,,,,,,,,,,,,,,,,,,,,,,,,,,,,,,,,,,,,,,,,,,,,,,,,,,,,,,,,,,,2,0,2,0,1,,,,,,,,,,,,,,,,,,,,,
,,,,,,,,,,,,5fb24d262a3a69633d54fd7a,21,Kobieta,2022-06-11_09h42.37.823,task,2021.1.4,Win32,60.17209218,6299f149e92ead563fba08ef,62a4475d1eaae6b8a67b619f,,,,,,,,,,,,,8,,,,,,,,,,Task,32,(8/2) + 4,8,,,,,,,,,,,,,,,,,,,1,,,,,,,,,,,,,,,,,,,,,,,"[""8""]",1,[3.8315000000000055],0,0,0,31,1,,,,,,,,,,,,,,,,,,,,,,,,,,
,,,,,,,,,,,X V Q F H G B L J M P D K C T S W R N Z,5fb24d262a3a69633d54fd7a,21,Kobieta,2022-06-11_09h42.37.823,task,2021.1.4,Win32,60.17209218,6299f149e92ead563fba08ef,62a4475d1eaae6b8a67b619f,,,,,,,,,,,,,,,,,,,,,,,,,,,,,,,,,,,,,,,,,,,,,,,,,,,,,,,,,,,,,,,,,,,,,,,,,,,,3,0,3,0,1,,,,,,,,,,,,,,,,,,,,,
,,,,,,,,,,,,5fb24d262a3a69633d54fd7a,21,Kobieta,2022-06-11_09h42.37.823,task,2021.1.4,Win32,60.17209218,6299f149e92ead563fba08ef,62a4475d1eaae6b8a67b619f,,,,,,,,,,,,,,,,,,,,,,,,,,,,,,,,,,,,,,,,,,,,,,,,,,,,,,,,,,,,,,,,,,,,,,,,,,,,,,,,,wlbp,"[""w"",""l"",""b"",""p""]",0,"[2.0074999999999363,2.33299999999997,2.7329999999999472,3.192900000095392,3.6720000000000255]",1,WLBP,2,0,2,0,1,,,,,,,,,,
,,,,,,,,,,,,5fb24d262a3a69633d54fd7a,21,Kobieta,2022-06-11_09h42.37.823,task,2021.1.4,Win32,60.17209218,6299f149e92ead563fba08ef,62a4475d1eaae6b8a67b619f,,,,,,,,,,,,,0,,,,,,,,,,Task,33,(1/1) - 1,0,,,,,,,,,,,,,,,,,,,1,,,,,,,,,,,,,,,,,,,,,,,"[""0""]",1,[3.5179000000953238],0,0,0,32,1,,,,,,,,,,,,,,,,,,,,,,,,,,
,,,,,,,,,,,X V Q F H G B L J M P D K C T S W R N Z,5fb24d262a3a69633d54fd7a,21,Kobieta,2022-06-11_09h42.37.823,task,2021.1.4,Win32,60.17209218,6299f149e92ead563fba08ef,62a4475d1eaae6b8a67b619f,,,,,,,,,,,,,,,,,,,,,,,,,,,,,,,,,,,,,,,,,,,,,,,,,,,,,,,,,,,,,,,,,,,,,,,,,,,,0,0,0,0,1,,,,,,,,,,,,,,,,,,,,,
,,,,,,,,,,,,5fb24d262a3a69633d54fd7a,21,Kobieta,2022-06-11_09h42.37.823,task,2021.1.4,Win32,60.17209218,6299f149e92ead563fba08ef,62a4475d1eaae6b8a67b619f,,,,,,,,,,,,,5,,,,,,,,,,Task,37,(3/3) + 5,6,,,,,,,,,,,,,,,,,,,0,,,,,,,,,,,,,,,,,,,,,,,"[""5""]",0,[4.387900000095328],0,0,0,36,1,,,,,,,,,,,,,,,,,,,,,,,,,,
,,,,,,,,,,,,5fb24d262a3a69633d54fd7a,21,Kobieta,2022-06-11_09h42.37.823,task,2021.1.4,Win32,60.17209218,6299f149e92ead563fba08ef,62a4475d1eaae6b8a67b619f,,,,,,,,,,,,,1,,,,,,,,,,Task,18,(16/4) - 3,1,,,,,,,,,,,,,,,,,,,1,,,,,,,,,,,,,,,,,,,,,,,"[""1""]",1,[9.435599999904639],0,1,1,17,1,,,,,,,,,,,,,,,,,,,,,,,,,,
,,,,,,,,,,,X V Q F H G B L J M P D K C T S W R N Z,5fb24d262a3a69633d54fd7a,21,Kobieta,2022-06-11_09h42.37.823,task,2021.1.4,Win32,60.17209218,6299f149e92ead563fba08ef,62a4475d1eaae6b8a67b619f,,,,,,,,,,,,,,,,,,,,,,,,,,,,,,,,,,,,,,,,,,,,,,,,,,,,,,,,,,,,,,,,,,,,,,,,,,,,1,0,1,0,1,,,,,,,,,,,,,,,,,,,,,
,,,,,,,,,,,,5fb24d262a3a69633d54fd7a,21,Kobieta,2022-06-11_09h42.37.823,task,2021.1.4,Win32,60.17209218,6299f149e92ead563fba08ef,62a4475d1eaae6b8a67b619f,,,,,,,,,,,,,7,,,,,,,,,,Task,14,(2x2) + 3,7,,,,,,,,,,,,,,,,,,,1,,,,,,,,,,,,,,,,,,,,,,,"[""7""]",1,[5.079099999904656],0,0,0,13,1,,,,,,,,,,,,,,,,,,,,,,,,,,
,,,,,,,,,,,X V Q F H G B L J M P D K C T S W R N Z,5fb24d262a3a69633d54fd7a,21,Kobieta,2022-06-11_09h42.37.823,task,2021.1.4,Win32,60.17209218,6299f149e92ead563fba08ef,62a4475d1eaae6b8a67b619f,,,,,,,,,,,,,,,,,,,,,,,,,,,,,,,,,,,,,,,,,,,,,,,,,,,,,,,,,,,,,,,,,,,,,,,,,,,,2,0,2,0,1,,,,,,,,,,,,,,,,,,,,,
,,,,,,,,,,,,5fb24d262a3a69633d54fd7a,21,Kobieta,2022-06-11_09h42.37.823,task,2021.1.4,Win32,60.17209218,6299f149e92ead563fba08ef,62a4475d1eaae6b8a67b619f,,,,,,,,,,,,,3,,,,,,,,,,Task,35,(1x2) + 1,3,,,,,,,,,,,,,,,,,,,1,,,,,,,,,,,,,,,,,,,,,,,"[""3""]",1,[4.4011000003814615],0,0,0,34,1,,,,,,,,,,,,,,,,,,,,,,,,,,
,,,,,,,,,,,X V Q F H G B L J M P D K C T S W R N Z,5fb24d262a3a69633d54fd7a,21,Kobieta,2022-06-11_09h42.37.823,task,2021.1.4,Win32,60.17209218,6299f149e92ead563fba08ef,62a4475d1eaae6b8a67b619f,,,,,,,,,,,,,,,,,,,,,,,,,,,,,,,,,,,,,,,,,,,,,,,,,,,,,,,,,,,,,,,,,,,,,,,,,,,,3,0,3,0,1,,,,,,,,,,,,,,,,,,,,,
,,,,,,,,,,,,5fb24d262a3a69633d54fd7a,21,Kobieta,2022-06-11_09h42.37.823,task,2021.1.4,Win32,60.17209218,6299f149e92ead563fba08ef,62a4475d1eaae6b8a67b619f,,,,,,,,,,,,,8,,,,,,,,,,Task,38,(4x6) - 17,7,,,,,,,,,,,,,,,,,,,0,,,,,,,,,,,,,,,,,,,,,,,"[""8""]",0,[7.3950999999045735],0,0,0,37,1,,,,,,,,,,,,,,,,,,,,,,,,,,
,,,,,,,,,,,,5fb24d262a3a69633d54fd7a,21,Kobieta,2022-06-11_09h42.37.823,task,2021.1.4,Win32,60.17209218,6299f149e92ead563fba08ef,62a4475d1eaae6b8a67b619f,,,,,,,,,,,,,2,,,,,,,,,,Task,26,(2x9) - 16,2,,,,,,,,,,,,,,,,,,,1,,,,,,,,,,,,,,,,,,,,,,,"[""2""]",1,[2.813599999904568],0,1,1,25,1,,,,,,,,,,,,,,,,,,,,,,,,,,
,,,,,,,,,,,X V Q F H G B L J M P D K C T S W R N Z,5fb24d262a3a69633d54fd7a,21,Kobieta,2022-06-11_09h42.37.823,task,2021.1.4,Win32,60.17209218,6299f149e92ead563fba08ef,62a4475d1eaae6b8a67b619f,,,,,,,,,,,,,,,,,,,,,,,,,,,,,,,,,,,,,,,,,,,,,,,,,,,,,,,,,,,,,,,,,,,,,,,,,,,,4,0,4,0,1,,,,,,,,,,,,,,,,,,,,,
,,,,,,,,,,,,5fb24d262a3a69633d54fd7a,21,Kobieta,2022-06-11_09h42.37.823,task,2021.1.4,Win32,60.17209218,6299f149e92ead563fba08ef,62a4475d1eaae6b8a67b619f,,,,,,,,,,,,,,,,,,,,,,,,,,,,,,,,,,,,,,,,,,,,,,,,,,,,,,,,,,,,,,,,,,,,,,,,,,,,,,,,,tmdlc,"[""t"",""m"",""d"",""l"",""c""]",0,"[1.7857999997139586,2.0990000000000464,2.4340000000000828,2.685199999809356,3.1025000000000773,3.550599999904648]",0,BMDLC,3,0,3,0,1,,,,,,,,,,
,,,,,,,,,,,,5fb24d262a3a69633d54fd7a,21,Kobieta,2022-06-11_09h42.37.823,task,2021.1.4,Win32,60.17209218,6299f149e92ead563fba08ef,62a4475d1eaae6b8a67b619f,,,,,,,,,,,,,6,,,,,,,,,,Task,13,(3x4) - 6,6,,,,,,,,,,,,,,,,,,,1,,,,,,,,,,,,,,,,,,,,,,,"[""6""]",1,[4.550700000286042],0,0,0,12,1,,,,,,,,,,,,,,,,,,,,,,,,,,
,,,,,,,,,,,X V Q F H G B L J M P D K C T S W R N Z,5fb24d262a3a69633d54fd7a,21,Kobieta,2022-06-11_09h42.37.823,task,2021.1.4,Win32,60.17209218,6299f149e92ead563fba08ef,62a4475d1eaae6b8a67b619f,,,,,,,,,,,,,,,,,,,,,,,,,,,,,,,,,,,,,,,,,,,,,,,,,,,,,,,,,,,,,,,,,,,,,,,,,,,,0,0,0,0,1,,,,,,,,,,,,,,,,,,,,,
,,,,,,,,,,,,5fb24d262a3a69633d54fd7a,21,Kobieta,2022-06-11_09h42.37.823,task,2021.1.4,Win32,60.17209218,6299f149e92ead563fba08ef,62a4475d1eaae6b8a67b619f,,,,,,,,,,,,,1,,,,,,,,,,Task,9,(3x7) - 20,1,,,,,,,,,,,,,,,,,,,1,,,,,,,,,,,,,,,,,,,,,,,"[""1""]",1,[3.09050000000002],0,0,0,8,1,,,,,,,,,,,,,,,,,,,,,,,,,,
,,,,,,,,,,,X V Q F H G B L J M P D K C T S W R N Z,5fb24d262a3a69633d54fd7a,21,Kobieta,2022-06-11_09h42.37.823,task,2021.1.4,Win32,60.17209218,6299f149e92ead563fba08ef,62a4475d1eaae6b8a67b619f,,,,,,,,,,,,,,,,,,,,,,,,,,,,,,,,,,,,,,,,,,,,,,,,,,,,,,,,,,,,,,,,,,,,,,,,,,,,1,0,1,0,1,,,,,,,,,,,,,,,,,,,,,
,,,,,,,,,,,,5fb24d262a3a69633d54fd7a,21,Kobieta,2022-06-11_09h42.37.823,task,2021.1.4,Win32,60.17209218,6299f149e92ead563fba08ef,62a4475d1eaae6b8a67b619f,,,,,,,,,,,,,4,,,,,,,,,,Task,4,(1x5) - 1,4,,,,,,,,,,,,,,,,,,,1,,,,,,,,,,,,,,,,,,,,,,,"[""4""]",1,[3.4125999999046144],0,0,0,3,1,,,,,,,,,,,,,,,,,,,,,,,,,,
,,,,,,,,,,,X V Q F H G B L J M P D K C T S W R N Z,5fb24d262a3a69633d54fd7a,21,Kobieta,2022-06-11_09h42.37.823,task,2021.1.4,Win32,60.17209218,6299f149e92ead563fba08ef,62a4475d1eaae6b8a67b619f,,,,,,,,,,,,,,,,,,,,,,,,,,,,,,,,,,,,,,,,,,,,,,,,,,,,,,,,,,,,,,,,,,,,,,,,,,,,2,0,2,0,1,,,,,,,,,,,,,,,,,,,,,
,,,,,,,,,,,,5fb24d262a3a69633d54fd7a,21,Kobieta,2022-06-11_09h42.37.823,task,2021.1.4,Win32,60.17209218,6299f149e92ead563fba08ef,62a4475d1eaae6b8a67b619f,,,,,,,,,,,,,9,,,,,,,,,,Task,40,(7x2) - 5,9,,,,,,,,,,,,,,,,,,,1,,,,,,,,,,,,,,,,,,,,,,,"[""9""]",1,[3.281199999809246],0,0,0,39,1,,,,,,,,,,,,,,,,,,,,,,,,,,
,,,,,,,,,,,X V Q F H G B L J M P D K C T S W R N Z,5fb24d262a3a69633d54fd7a,21,Kobieta,2022-06-11_09h42.37.823,task,2021.1.4,Win32,60.17209218,6299f149e92ead563fba08ef,62a4475d1eaae6b8a67b619f,,,,,,,,,,,,,,,,,,,,,,,,,,,,,,,,,,,,,,,,,,,,,,,,,,,,,,,,,,,,,,,,,,,,,,,,,,,,3,0,3,0,1,,,,,,,,,,,,,,,,,,,,,
,,,,,,,,,,,,5fb24d262a3a69633d54fd7a,21,Kobieta,2022-06-11_09h42.37.823,task,2021.1.4,Win32,60.17209218,6299f149e92ead563fba08ef,62a4475d1eaae6b8a67b619f,,,,,,,,,,,,,8,,,,,,,,,,Task,23,(2x3) + 2,8,,,,,,,,,,,,,,,,,,,1,,,,,,,,,,,,,,,,,,,,,,,"[""8""]",1,[5.261600000381463],0,0,0,22,1,,,,,,,,,,,,,,,,,,,,,,,,,,
,,,,,,,,,,,X V Q F H G B L J M P D K C T S W R N Z,5fb24d262a3a69633d54fd7a,21,Kobieta,2022-06-11_09h42.37.823,task,2021.1.4,Win32,60.17209218,6299f149e92ead563fba08ef,62a4475d1eaae6b8a67b619f,,,,,,,,,,,,,,,,,,,,,,,,,,,,,,,,,,,,,,,,,,,,,,,,,,,,,,,,,,,,,,,,,,,,,,,,,,,,4,0,4,0,1,,,,,,,,,,,,,,,,,,,,,
,,,,,,,,,,,,5fb24d262a3a69633d54fd7a,21,Kobieta,2022-06-11_09h42.37.823,task,2021.1.4,Win32,60.17209218,6299f149e92ead563fba08ef,62a4475d1eaae6b8a67b619f,,,,,,,,,,,,,,,,,,,,,,,,,,,,,,,,,,,,,,,,,,,,,,,,,,,,,,,,,,,,,,,,,,,,,,,,,,,,,,,,,vnkmb,"[""v"",""n"",""k"",""m"",""b""]",0,"[2.4085999999045953,2.952599999904578,3.4523999996184784,3.850999999999999,4.298799999713879,4.699299999713844]",1,VNKMB,4,0,4,0,1,,,,,,,,,,
,,,,,,,,,,,,5fb24d262a3a69633d54fd7a,21,Kobieta,2022-06-11_09h42.37.823,task,2021.1.4,Win32,60.17209218,6299f149e92ead563fba08ef,62a4475d1eaae6b8a67b619f,,,,,,,,,,,,,5,,,,,,,,,,Task,36,(8/4) + 3,5,,,,,,,,,,,,,,,,,,,1,,,,,,,,,,,,,,,,,,,,,,,"[""5""]",1,[4.626300000190781],0,0,0,35,1,,,,,,,,,,,,,,,,,,,,,,,,,,
,,,,,,,,,,,X V Q F H G B L J M P D K C T S W R N Z,5fb24d262a3a69633d54fd7a,21,Kobieta,2022-06-11_09h42.37.823,task,2021.1.4,Win32,60.17209218,6299f149e92ead563fba08ef,62a4475d1eaae6b8a67b619f,,,,,,,,,,,,,,,,,,,,,,,,,,,,,,,,,,,,,,,,,,,,,,,,,,,,,,,,,,,,,,,,,,,,,,,,,,,,0,0,0,0,1,,,,,,,,,,,,,,,,,,,,,
,,,,,,,,,,,,5fb24d262a3a69633d54fd7a,21,Kobieta,2022-06-11_09h42.37.823,task,2021.1.4,Win32,60.17209218,6299f149e92ead563fba08ef,62a4475d1eaae6b8a67b619f,,,,,,,,,,,,,0,,,,,,,,,,Task,33,(1/1) - 1,0,,,,,,,,,,,,,,,,,,,1,,,,,,,,,,,,,,,,,,,,,,,"[""0""]",1,[2.313199999809285],0,0,0,32,1,,,,,,,,,,,,,,,,,,,,,,,,,,
,,,,,,,,,,,X V Q F H G B L J M P D K C T S W R N Z,5fb24d262a3a69633d54fd7a,21,Kobieta,2022-06-11_09h42.37.823,task,2021.1.4,Win32,60.17209218,6299f149e92ead563fba08ef,62a4475d1eaae6b8a67b619f,,,,,,,,,,,,,,,,,,,,,,,,,,,,,,,,,,,,,,,,,,,,,,,,,,,,,,,,,,,,,,,,,,,,,,,,,,,,1,0,1,0,1,,,,,,,,,,,,,,,,,,,,,
,,,,,,,,,,,,5fb24d262a3a69633d54fd7a,21,Kobieta,2022-06-11_09h42.37.823,task,2021.1.4,Win32,60.17209218,6299f149e92ead563fba08ef,62a4475d1eaae6b8a67b619f,,,,,,,,,,,,,4,,,,,,,,,,Task,21,(10/2) - 1,4,,,,,,,,,,,,,,,,,,,1,,,,,,,,,,,,,,,,,,,,,,,"[""4""]",1,[2.5722000002861023],0,0,0,20,1,,,,,,,,,,,,,,,,,,,,,,,,,,
,,,,,,,,,,,X V Q F H G B L J M P D K C T S W R N Z,5fb24d262a3a69633d54fd7a,21,Kobieta,2022-06-11_09h42.37.823,task,2021.1.4,Win32,60.17209218,6299f149e92ead563fba08ef,62a4475d1eaae6b8a67b619f,,,,,,,,,,,,,,,,,,,,,,,,,,,,,,,,,,,,,,,,,,,,,,,,,,,,,,,,,,,,,,,,,,,,,,,,,,,,2,0,2,0,1,,,,,,,,,,,,,,,,,,,,,
,,,,,,,,,,,,5fb24d262a3a69633d54fd7a,21,Kobieta,2022-06-11_09h42.37.823,task,2021.1.4,Win32,60.17209218,6299f149e92ead563fba08ef,62a4475d1eaae6b8a67b619f,,,,,,,,,,,,,8,,,,,,,,,,Task,32,(8/2) + 4,8,,,,,,,,,,,,,,,,,,,1,,,,,,,,,,,,,,,,,,,,,,,"[""8""]",1,[3.404400000095393],0,0,0,31,1,,,,,,,,,,,,,,,,,,,,,,,,,,
,,,,,,,,,,,X V Q F H G B L J M P D K C T S W R N Z,5fb24d262a3a69633d54fd7a,21,Kobieta,2022-06-11_09h42.37.823,task,2021.1.4,Win32,60.17209218,6299f149e92ead563fba08ef,62a4475d1eaae6b8a67b619f,,,,,,,,,,,,,,,,,,,,,,,,,,,,,,,,,,,,,,,,,,,,,,,,,,,,,,,,,,,,,,,,,,,,,,,,,,,,3,0,3,0,1,,,,,,,,,,,,,,,,,,,,,
,,,,,,,,,,,,5fb24d262a3a69633d54fd7a,21,Kobieta,2022-06-11_09h42.37.823,task,2021.1.4,Win32,60.17209218,6299f149e92ead563fba08ef,62a4475d1eaae6b8a67b619f,,,,,,,,,,,,,0,,,,,,,,,,Task,33,(1/1) - 1,0,,,,,,,,,,,,,,,,,,,1,,,,,,,,,,,,,,,,,,,,,,,"[""0""]",1,[1.7694000000952883],0,0,0,32,1,,,,,,,,,,,,,,,,,,,,,,,,,,
,,,,,,,,,,,X V Q F H G B L J M P D K C T S W R N Z,5fb24d262a3a69633d54fd7a,21,Kobieta,2022-06-11_09h42.37.823,task,2021.1.4,Win32,60.17209218,6299f149e92ead563fba08ef,62a4475d1eaae6b8a67b619f,,,,,,,,,,,,,,,,,,,,,,,,,,,,,,,,,,,,,,,,,,,,,,,,,,,,,,,,,,,,,,,,,,,,,,,,,,,,4,0,4,0,1,,,,,,,,,,,,,,,,,,,,,
,,,,,,,,,,,,5fb24d262a3a69633d54fd7a,21,Kobieta,2022-06-11_09h42.37.823,task,2021.1.4,Win32,60.17209218,6299f149e92ead563fba08ef,62a4475d1eaae6b8a67b619f,,,,,,,,,,,,,7,,,,,,,,,,Task,14,(2x2) + 3,7,,,,,,,,,,,,,,,,,,,1,,,,,,,,,,,,,,,,,,,,,,,"[""7""]",1,[5.530999999999949],0,0,0,13,1,,,,,,,,,,,,,,,,,,,,,,,,,,
,,,,,,,,,,,X V Q F H G B L J M P D K C T S W R N Z,5fb24d262a3a69633d54fd7a,21,Kobieta,2022-06-11_09h42.37.823,task,2021.1.4,Win32,60.17209218,6299f149e92ead563fba08ef,62a4475d1eaae6b8a67b619f,,,,,,,,,,,,,,,,,,,,,,,,,,,,,,,,,,,,,,,,,,,,,,,,,,,,,,,,,,,,,,,,,,,,,,,,,,,,5,0,5,0,1,,,,,,,,,,,,,,,,,,,,,
,,,,,,,,,,,,5fb24d262a3a69633d54fd7a,21,Kobieta,2022-06-11_09h42.37.823,task,2021.1.4,Win32,60.17209218,6299f149e92ead563fba08ef,62a4475d1eaae6b8a67b619f,,,,,,,,,,,,,,,,,,,,,,,,,,,,,,,,,,,,,,,,,,,,,,,,,,,,,,,,,,,,,,,,,,,,,,,,,,,,,,,,,bjjrhh,"[""b"",""j"",""j"",""r"",""h"",""h""]",0,"[1.8688000001907312,2.267500000000041,2.4242000002860777,3.2165999999047017,3.90140000009535,4.29200000000003,4.932400000095413]",1,BJJRHH,5,0,5,0,1,,,,,,,,,,
,,,,,,,,,,,,5fb24d262a3a69633d54fd7a,21,Kobieta,2022-06-11_09h42.37.823,task,2021.1.4,Win32,60.17209218,6299f149e92ead563fba08ef,62a4475d1eaae6b8a67b619f,,,,,,,,,,,,,0,,,,,,,,,,Task,13,(3x4) - 6,6,,,,,,,,,,,,,,,,,,,0,,,,,,,,,,,,,,,,,,,,,,,"[""0""]",0,[3.014400000095293],0,0,0,12,1,,,,,,,,,,,,,,,,,,,,,,,,,,
,,,,,,,,,,,,5fb24d262a3a69633d54fd7a,21,Kobieta,2022-06-11_09h42.37.823,task,2021.1.4,Win32,60.17209218,6299f149e92ead563fba08ef,62a4475d1eaae6b8a67b619f,,,,,,,,,,,,,8,,,,,,,,,,Task,23,(2x3) + 2,8,,,,,,,,,,,,,,,,,,,1,,,,,,,,,,,,,,,,,,,,,,,"[""8""]",1,[6.922700000286113],0,1,1,22,1,,,,,,,,,,,,,,,,,,,,,,,,,,
,,,,,,,,,,,X V Q F H G B L J M P D K C T S W R N Z,5fb24d262a3a69633d54fd7a,21,Kobieta,2022-06-11_09h42.37.823,task,2021.1.4,Win32,60.17209218,6299f149e92ead563fba08ef,62a4475d1eaae6b8a67b619f,,,,,,,,,,,,,,,,,,,,,,,,,,,,,,,,,,,,,,,,,,,,,,,,,,,,,,,,,,,,,,,,,,,,,,,,,,,,0,0,0,0,1,,,,,,,,,,,,,,,,,,,,,
,,,,,,,,,,,,5fb24d262a3a69633d54fd7a,21,Kobieta,2022-06-11_09h42.37.823,task,2021.1.4,Win32,60.17209218,6299f149e92ead563fba08ef,62a4475d1eaae6b8a67b619f,,,,,,,,,,,,,1,,,,,,,,,,Task,18,(16/4) - 3,1,,,,,,,,,,,,,,,,,,,1,,,,,,,,,,,,,,,,,,,,,,,"[""1""]",1,[5.3624999999999545],0,0,0,17,1,,,,,,,,,,,,,,,,,,,,,,,,,,
,,,,,,,,,,,X V Q F H G B L J M P D K C T S W R N Z,5fb24d262a3a69633d54fd7a,21,Kobieta,2022-06-11_09h42.37.823,task,2021.1.4,Win32,60.17209218,6299f149e92ead563fba08ef,62a4475d1eaae6b8a67b619f,,,,,,,,,,,,,,,,,,,,,,,,,,,,,,,,,,,,,,,,,,,,,,,,,,,,,,,,,,,,,,,,,,,,,,,,,,,,1,0,1,0,1,,,,,,,,,,,,,,,,,,,,,
,,,,,,,,,,,,5fb24d262a3a69633d54fd7a,21,Kobieta,2022-06-11_09h42.37.823,task,2021.1.4,Win32,60.17209218,6299f149e92ead563fba08ef,62a4475d1eaae6b8a67b619f,,,,,,,,,,,,,9,,,,,,,,,,Task,7,(3x7) - 12,9,,,,,,,,,,,,,,,,,,,1,,,,,,,,,,,,,,,,,,,,,,,"[""9""]",1,[6.113599999904636],0,0,0,6,1,,,,,,,,,,,,,,,,,,,,,,,,,,
,,,,,,,,,,,X V Q F H G B L J M P D K C T S W R N Z,5fb24d262a3a69633d54fd7a,21,Kobieta,2022-06-11_09h42.37.823,task,2021.1.4,Win32,60.17209218,6299f149e92ead563fba08ef,62a4475d1eaae6b8a67b619f,,,,,,,,,,,,,,,,,,,,,,,,,,,,,,,,,,,,,,,,,,,,,,,,,,,,,,,,,,,,,,,,,,,,,,,,,,,,2,0,2,0,1,,,,,,,,,,,,,,,,,,,,,
,,,,,,,,,,,,5fb24d262a3a69633d54fd7a,21,Kobieta,2022-06-11_09h42.37.823,task,2021.1.4,Win32,60.17209218,6299f149e92ead563fba08ef,62a4475d1eaae6b8a67b619f,,,,,,,,,,,,,5,,,,,,,,,,Task,29,(3x8) - 19 ,5,,,,,,,,,,,,,,,,,,,1,,,,,,,,,,,,,,,,,,,,,,,"[""5""]",1,[4.832100000381502],0,0,0,28,1,,,,,,,,,,,,,,,,,,,,,,,,,,
,,,,,,,,,,,X V Q F H G B L J M P D K C T S W R N Z,5fb24d262a3a69633d54fd7a,21,Kobieta,2022-06-11_09h42.37.823,task,2021.1.4,Win32,60.17209218,6299f149e92ead563fba08ef,62a4475d1eaae6b8a67b619f,,,,,,,,,,,,,,,,,,,,,,,,,,,,,,,,,,,,,,,,,,,,,,,,,,,,,,,,,,,,,,,,,,,,,,,,,,,,3,0,3,0,1,,,,,,,,,,,,,,,,,,,,,
,,,,,,,,,,,,5fb24d262a3a69633d54fd7a,21,Kobieta,2022-06-11_09h42.37.823,task,2021.1.4,Win32,60.17209218,6299f149e92ead563fba08ef,62a4475d1eaae6b8a67b619f,,,,,,,,,,,,,0,,,,,,,,,,Task,33,(1/1) - 1,0,,,,,,,,,,,,,,,,,,,1,,,,,,,,,,,,,,,,,,,,,,,"[""0""]",1,[3.420399999618553],0,0,0,32,1,,,,,,,,,,,,,,,,,,,,,,,,,,
,,,,,,,,,,,X V Q F H G B L J M P D K C T S W R N Z,5fb24d262a3a69633d54fd7a,21,Kobieta,2022-06-11_09h42.37.823,task,2021.1.4,Win32,60.17209218,6299f149e92ead563fba08ef,62a4475d1eaae6b8a67b619f,,,,,,,,,,,,,,,,,,,,,,,,,,,,,,,,,,,,,,,,,,,,,,,,,,,,,,,,,,,,,,,,,,,,,,,,,,,,4,0,4,0,1,,,,,,,,,,,,,,,,,,,,,
,,,,,,,,,,,,5fb24d262a3a69633d54fd7a,21,Kobieta,2022-06-11_09h42.37.823,task,2021.1.4,Win32,60.17209218,6299f149e92ead563fba08ef,62a4475d1eaae6b8a67b619f,,,,,,,,,,,,,1,,,,,,,,,,Task,9,(3x7) - 20,1,,,,,,,,,,,,,,,,,,,1,,,,,,,,,,,,,,,,,,,,,,,"[""1""]",1,[4.3260999999046135],0,0,0,8,1,,,,,,,,,,,,,,,,,,,,,,,,,,
,,,,,,,,,,,X V Q F H G B L J M P D K C T S W R N Z,5fb24d262a3a69633d54fd7a,21,Kobieta,2022-06-11_09h42.37.823,task,2021.1.4,Win32,60.17209218,6299f149e92ead563fba08ef,62a4475d1eaae6b8a67b619f,,,,,,,,,,,,,,,,,,,,,,,,,,,,,,,,,,,,,,,,,,,,,,,,,,,,,,,,,,,,,,,,,,,,,,,,,,,,5,0,5,0,1,,,,,,,,,,,,,,,,,,,,,
,,,,,,,,,,,,5fb24d262a3a69633d54fd7a,21,Kobieta,2022-06-11_09h42.37.823,task,2021.1.4,Win32,60.17209218,6299f149e92ead563fba08ef,62a4475d1eaae6b8a67b619f,,,,,,,,,,,,,9,,,,,,,,,,Task,24,(2x2) + 5,9,,,,,,,,,,,,,,,,,,,1,,,,,,,,,,,,,,,,,,,,,,,"[""9""]",1,[3.868000000000052],0,0,0,23,1,,,,,,,,,,,,,,,,,,,,,,,,,,
,,,,,,,,,,,X V Q F H G B L J M P D K C T S W R N Z,5fb24d262a3a69633d54fd7a,21,Kobieta,2022-06-11_09h42.37.823,task,2021.1.4,Win32,60.17209218,6299f149e92ead563fba08ef,62a4475d1eaae6b8a67b619f,,,,,,,,,,,,,,,,,,,,,,,,,,,,,,,,,,,,,,,,,,,,,,,,,,,,,,,,,,,,,,,,,,,,,,,,,,,,6,0,6,0,1,,,,,,,,,,,,,,,,,,,,,
,,,,,,,,,,,,5fb24d262a3a69633d54fd7a,21,Kobieta,2022-06-11_09h42.37.823,task,2021.1.4,Win32,60.17209218,6299f149e92ead563fba08ef,62a4475d1eaae6b8a67b619f,,,,,,,,,,,,,,,,,,,,,,,,,,,,,,,,,,,,,,,,,,,,,,,,,,,,,,,,,,,,,,,,,,,,,,,,,,,,,,,,,qvqbwsz,"[""q"",""v"",""q"",""b"",""w"",""s"",""z""]",0,"[3.920199999809256,4.566000000000031,5.316000000000031,6.05659999990462,6.688199999809285,7.2403000001907,7.771800000190751,8.164999999999964]",1,QVQBWSZ,6,0,6,0,1,,,,,,,,,,
,,,,,,,,,,,,5fb24d262a3a69633d54fd7a,21,Kobieta,2022-06-11_09h42.37.823,task,2021.1.4,Win32,60.17209218,6299f149e92ead563fba08ef,62a4475d1eaae6b8a67b619f,,,,,,,,,,,,,0,,,,,,,,,,Task,17,(2x3) - 6,0,,,,,,,,,,,,,,,,,,,1,,,,,,,,,,,,,,,,,,,,,,,"[""0""]",1,[5.18159999990462],0,0,0,16,1,,,,,,,,,,,,,,,,,,,,,,,,,,
,,,,,,,,,,,X V Q F H G B L J M P D K C T S W R N Z,5fb24d262a3a69633d54fd7a,21,Kobieta,2022-06-11_09h42.37.823,task,2021.1.4,Win32,60.17209218,6299f149e92ead563fba08ef,62a4475d1eaae6b8a67b619f,,,,,,,,,,,,,,,,,,,,,,,,,,,,,,,,,,,,,,,,,,,,,,,,,,,,,,,,,,,,,,,,,,,,,,,,,,,,0,0,0,0,1,,,,,,,,,,,,,,,,,,,,,
,,,,,,,,,,,,5fb24d262a3a69633d54fd7a,21,Kobieta,2022-06-11_09h42.37.823,task,2021.1.4,Win32,60.17209218,6299f149e92ead563fba08ef,62a4475d1eaae6b8a67b619f,,,,,,,,,,,,,3,,,,,,,,,,Task,19,(6/2) - 1,2,,,,,,,,,,,,,,,,,,,0,,,,,,,,,,,,,,,,,,,,,,,"[""3""]",0,[2.1357000002860786],0,0,0,18,1,,,,,,,,,,,,,,,,,,,,,,,,,,
,,,,,,,,,,,,5fb24d262a3a69633d54fd7a,21,Kobieta,2022-06-11_09h42.37.823,task,2021.1.4,Win32,60.17209218,6299f149e92ead563fba08ef,62a4475d1eaae6b8a67b619f,,,,,,,,,,,,,4,,,,,,,,,,Task,11,(18/3) - 2,4,,,,,,,,,,,,,,,,,,,1,,,,,,,,,,,,,,,,,,,,,,,"[""4""]",1,[7.063700000286076],0,1,1,10,1,,,,,,,,,,,,,,,,,,,,,,,,,,
,,,,,,,,,,,X V Q F H G B L J M P D K C T S W R N Z,5fb24d262a3a69633d54fd7a,21,Kobieta,2022-06-11_09h42.37.823,task,2021.1.4,Win32,60.17209218,6299f149e92ead563fba08ef,62a4475d1eaae6b8a67b619f,,,,,,,,,,,,,,,,,,,,,,,,,,,,,,,,,,,,,,,,,,,,,,,,,,,,,,,,,,,,,,,,,,,,,,,,,,,,1,0,1,0,1,,,,,,,,,,,,,,,,,,,,,
,,,,,,,,,,,,5fb24d262a3a69633d54fd7a,21,Kobieta,2022-06-11_09h42.37.823,task,2021.1.4,Win32,60.17209218,6299f149e92ead563fba08ef,62a4475d1eaae6b8a67b619f,,,,,,,,,,,,,1,,,,,,,,,,Task,18,(16/4) - 3,1,,,,,,,,,,,,,,,,,,,1,,,,,,,,,,,,,,,,,,,,,,,"[""1""]",1,[5.937800000190805],0,0,0,17,1,,,,,,,,,,,,,,,,,,,,,,,,,,
,,,,,,,,,,,X V Q F H G B L J M P D K C T S W R N Z,5fb24d262a3a69633d54fd7a,21,Kobieta,2022-06-11_09h42.37.823,task,2021.1.4,Win32,60.17209218,6299f149e92ead563fba08ef,62a4475d1eaae6b8a67b619f,,,,,,,,,,,,,,,,,,,,,,,,,,,,,,,,,,,,,,,,,,,,,,,,,,,,,,,,,,,,,,,,,,,,,,,,,,,,2,0,2,0,1,,,,,,,,,,,,,,,,,,,,,
,,,,,,,,,,,,5fb24d262a3a69633d54fd7a,21,Kobieta,2022-06-11_09h42.37.823,task,2021.1.4,Win32,60.17209218,6299f149e92ead563fba08ef,62a4475d1eaae6b8a67b619f,,,,,,,,,,,,,5,,,,,,,,,,Task,22,(3x1) + 2,5,,,,,,,,,,,,,,,,,,,1,,,,,,,,,,,,,,,,,,,,,,,"[""5""]",1,[5.783300000190707],0,0,0,21,1,,,,,,,,,,,,,,,,,,,,,,,,,,
,,,,,,,,,,,X V Q F H G B L J M P D K C T S W R N Z,5fb24d262a3a69633d54fd7a,21,Kobieta,2022-06-11_09h42.37.823,task,2021.1.4,Win32,60.17209218,6299f149e92ead563fba08ef,62a4475d1eaae6b8a67b619f,,,,,,,,,,,,,,,,,,,,,,,,,,,,,,,,,,,,,,,,,,,,,,,,,,,,,,,,,,,,,,,,,,,,,,,,,,,,3,0,3,0,1,,,,,,,,,,,,,,,,,,,,,
,,,,,,,,,,,,5fb24d262a3a69633d54fd7a,21,Kobieta,2022-06-11_09h42.37.823,task,2021.1.4,Win32,60.17209218,6299f149e92ead563fba08ef,62a4475d1eaae6b8a67b619f,,,,,,,,,,,,,8,,,,,,,,,,Task,32,(8/2) + 4,8,,,,,,,,,,,,,,,,,,,1,,,,,,,,,,,,,,,,,,,,,,,"[""8""]",1,[3.808799999713983],0,0,0,31,1,,,,,,,,,,,,,,,,,,,,,,,,,,
,,,,,,,,,,,X V Q F H G B L J M P D K C T S W R N Z,5fb24d262a3a69633d54fd7a,21,Kobieta,2022-06-11_09h42.37.823,task,2021.1.4,Win32,60.17209218,6299f149e92ead563fba08ef,62a4475d1eaae6b8a67b619f,,,,,,,,,,,,,,,,,,,,,,,,,,,,,,,,,,,,,,,,,,,,,,,,,,,,,,,,,,,,,,,,,,,,,,,,,,,,4,0,4,0,1,,,,,,,,,,,,,,,,,,,,,
,,,,,,,,,,,,5fb24d262a3a69633d54fd7a,21,Kobieta,2022-06-11_09h42.37.823,task,2021.1.4,Win32,60.17209218,6299f149e92ead563fba08ef,62a4475d1eaae6b8a67b619f,,,,,,,,,,,,,4,,,,,,,,,,Task,4,(1x5) - 1,4,,,,,,,,,,,,,,,,,,,1,,,,,,,,,,,,,,,,,,,,,,,"[""4""]",1,[4.113700000286144],0,0,0,3,1,,,,,,,,,,,,,,,,,,,,,,,,,,
,,,,,,,,,,,X V Q F H G B L J M P D K C T S W R N Z,5fb24d262a3a69633d54fd7a,21,Kobieta,2022-06-11_09h42.37.823,task,2021.1.4,Win32,60.17209218,6299f149e92ead563fba08ef,62a4475d1eaae6b8a67b619f,,,,,,,,,,,,,,,,,,,,,,,,,,,,,,,,,,,,,,,,,,,,,,,,,,,,,,,,,,,,,,,,,,,,,,,,,,,,5,0,5,0,1,,,,,,,,,,,,,,,,,,,,,
,,,,,,,,,,,,5fb24d262a3a69633d54fd7a,21,Kobieta,2022-06-11_09h42.37.823,task,2021.1.4,Win32,60.17209218,6299f149e92ead563fba08ef,62a4475d1eaae6b8a67b619f,,,,,,,,,,,,,9,,,,,,,,,,Task,16,(3x8) - 15,9,,,,,,,,,,,,,,,,,,,1,,,,,,,,,,,,,,,,,,,,,,,"[""9""]",1,[5.398399999618505],0,0,0,15,1,,,,,,,,,,,,,,,,,,,,,,,,,,
,,,,,,,,,,,X V Q F H G B L J M P D K C T S W R N Z,5fb24d262a3a69633d54fd7a,21,Kobieta,2022-06-11_09h42.37.823,task,2021.1.4,Win32,60.17209218,6299f149e92ead563fba08ef,62a4475d1eaae6b8a67b619f,,,,,,,,,,,,,,,,,,,,,,,,,,,,,,,,,,,,,,,,,,,,,,,,,,,,,,,,,,,,,,,,,,,,,,,,,,,,6,0,6,0,1,,,,,,,,,,,,,,,,,,,,,
,,,,,,,,,,,,5fb24d262a3a69633d54fd7a,21,Kobieta,2022-06-11_09h42.37.823,task,2021.1.4,Win32,60.17209218,6299f149e92ead563fba08ef,62a4475d1eaae6b8a67b619f,,,,,,,,,,,,,1,,,,,,,,,,Task,1,(12/6) - 1,1,,,,,,,,,,,,,,,,,,,1,,,,,,,,,,,,,,,,,,,,,,,"[""1""]",1,[6.366200000286085],0,0,0,0,1,,,,,,,,,,,,,,,,,,,,,,,,,,
,,,,,,,,,,,X V Q F H G B L J M P D K C T S W R N Z,5fb24d262a3a69633d54fd7a,21,Kobieta,2022-06-11_09h42.37.823,task,2021.1.4,Win32,60.17209218,6299f149e92ead563fba08ef,62a4475d1eaae6b8a67b619f,,,,,,,,,,,,,,,,,,,,,,,,,,,,,,,,,,,,,,,,,,,,,,,,,,,,,,,,,,,,,,,,,,,,,,,,,,,,7,0,7,0,1,,,,,,,,,,,,,,,,,,,,,
,,,,,,,,,,,,5fb24d262a3a69633d54fd7a,21,Kobieta,2022-06-11_09h42.37.823,task,2021.1.4,Win32,60.17209218,6299f149e92ead563fba08ef,62a4475d1eaae6b8a67b619f,,,,,,,,,,,,,,,,,,,,,,,,,,,,,,,,,,,,,,,,,,,,,,,,,,,,,,,,,,,,,,,,,,,,,,,,,,,,,,,,,ftgcbdtk,"[""f"",""t"",""g"",""c"",""b"",""d"",""t"",""k""]",0,"[1.5685999999046771,1.9575999999046871,2.389499999999998,2.9668000001908013,3.3825999999046417,3.88959999990459,4.368800000190731,4.766300000190768,5.221599999904697]",0,FFGCBDTK,7,0,7,0,1,,,,,,,,,,
,,,,,,,,,,,,5fb24d262a3a69633d54fd7a,21,Kobieta,2022-06-11_09h42.37.823,task,2021.1.4,Win32,60.17209218,6299f149e92ead563fba08ef,62a4475d1eaae6b8a67b619f,,,,,,,,,,,,,8,,,,,,,,,,Task,23,(2x3) + 2,8,,,,,,,,,,,,,,,,,,,1,,,,,,,,,,,,,,,,,,,,,,,"[""8""]",1,[2.93159999990462],0,0,0,22,1,,,,,,,,,,,,,,,,,,,,,,,,,,
,,,,,,,,,,,X V Q F H G B L J M P D K C T S W R N Z,5fb24d262a3a69633d54fd7a,21,Kobieta,2022-06-11_09h42.37.823,task,2021.1.4,Win32,60.17209218,6299f149e92ead563fba08ef,62a4475d1eaae6b8a67b619f,,,,,,,,,,,,,,,,,,,,,,,,,,,,,,,,,,,,,,,,,,,,,,,,,,,,,,,,,,,,,,,,,,,,,,,,,,,,0,0,0,0,1,,,,,,,,,,,,,,,,,,,,,
,,,,,,,,,,,,5fb24d262a3a69633d54fd7a,21,Kobieta,2022-06-11_09h42.37.823,task,2021.1.4,Win32,60.17209218,6299f149e92ead563fba08ef,62a4475d1eaae6b8a67b619f,,,,,,,,,,,,,1,,,,,,,,,,Task,18,(16/4) - 3,1,,,,,,,,,,,,,,,,,,,1,,,,,,,,,,,,,,,,,,,,,,,"[""1""]",1,[3.592099999904576],0,0,0,17,1,,,,,,,,,,,,,,,,,,,,,,,,,,
,,,,,,,,,,,X V Q F H G B L J M P D K C T S W R N Z,5fb24d262a3a69633d54fd7a,21,Kobieta,2022-06-11_09h42.37.823,task,2021.1.4,Win32,60.17209218,6299f149e92ead563fba08ef,62a4475d1eaae6b8a67b619f,,,,,,,,,,,,,,,,,,,,,,,,,,,,,,,,,,,,,,,,,,,,,,,,,,,,,,,,,,,,,,,,,,,,,,,,,,,,1,0,1,0,1,,,,,,,,,,,,,,,,,,,,,
,,,,,,,,,,,,5fb24d262a3a69633d54fd7a,21,Kobieta,2022-06-11_09h42.37.823,task,2021.1.4,Win32,60.17209218,6299f149e92ead563fba08ef,62a4475d1eaae6b8a67b619f,,,,,,,,,,,,,3,,,,,,,,,,Task,27,(3/3) + 2,3,,,,,,,,,,,,,,,,,,,1,,,,,,,,,,,,,,,,,,,,,,,"[""3""]",1,[4.9375],0,0,0,26,1,,,,,,,,,,,,,,,,,,,,,,,,,,
,,,,,,,,,,,X V Q F H G B L J M P D K C T S W R N Z,5fb24d262a3a69633d54fd7a,21,Kobieta,2022-06-11_09h42.37.823,task,2021.1.4,Win32,60.17209218,6299f149e92ead563fba08ef,62a4475d1eaae6b8a67b619f,,,,,,,,,,,,,,,,,,,,,,,,,,,,,,,,,,,,,,,,,,,,,,,,,,,,,,,,,,,,,,,,,,,,,,,,,,,,2,0,2,0,1,,,,,,,,,,,,,,,,,,,,,
,,,,,,,,,,,,5fb24d262a3a69633d54fd7a,21,Kobieta,2022-06-11_09h42.37.823,task,2021.1.4,Win32,60.17209218,6299f149e92ead563fba08ef,62a4475d1eaae6b8a67b619f,,,,,,,,,,,,,4,,,,,,,,,,Task,4,(1x5) - 1,4,,,,,,,,,,,,,,,,,,,1,,,,,,,,,,,,,,,,,,,,,,,"[""4""]",1,[2.715699999809317],0,0,0,3,1,,,,,,,,,,,,,,,,,,,,,,,,,,
,,,,,,,,,,,X V Q F H G B L J M P D K C T S W R N Z,5fb24d262a3a69633d54fd7a,21,Kobieta,2022-06-11_09h42.37.823,task,2021.1.4,Win32,60.17209218,6299f149e92ead563fba08ef,62a4475d1eaae6b8a67b619f,,,,,,,,,,,,,,,,,,,,,,,,,,,,,,,,,,,,,,,,,,,,,,,,,,,,,,,,,,,,,,,,,,,,,,,,,,,,3,0,3,0,1,,,,,,,,,,,,,,,,,,,,,
,,,,,,,,,,,,5fb24d262a3a69633d54fd7a,21,Kobieta,2022-06-11_09h42.37.823,task,2021.1.4,Win32,60.17209218,6299f149e92ead563fba08ef,62a4475d1eaae6b8a67b619f,,,,,,,,,,,,,7,,,,,,,,,,Task,36,(8/4) + 3,5,,,,,,,,,,,,,,,,,,,0,,,,,,,,,,,,,,,,,,,,,,,"[""7""]",0,[3.052399999618501],0,0,0,35,1,,,,,,,,,,,,,,,,,,,,,,,,,,
,,,,,,,,,,,,5fb24d262a3a69633d54fd7a,21,Kobieta,2022-06-11_09h42.37.823,task,2021.1.4,Win32,60.17209218,6299f149e92ead563fba08ef,62a4475d1eaae6b8a67b619f,,,,,,,,,,,,,,,,,,,,,,,Task,25,(10/5) - 2,0,,,,,,,,,,,,,,,,,,,0,,,,,,,,,,,,,,,,,,,,,,,,0,,0,1,1,24,1,,,,,,,,,,,,,,,,,,,,,,,,,,
,,,,,,,,,,,,5fb24d262a3a69633d54fd7a,21,Kobieta,2022-06-11_09h42.37.823,task,2021.1.4,Win32,60.17209218,6299f149e92ead563fba08ef,62a4475d1eaae6b8a67b619f,,,,,,,,,,,,,4,,,,,,,,,,Task,4,(1x5) - 1,4,,,,,,,,,,,,,,,,,,,1,,,,,,,,,,,,,,,,,,,,,,,"[""4""]",1,[2.656900000095334],0,2,2,3,1,,,,,,,,,,,,,,,,,,,,,,,,,,
,,,,,,,,,,,X V Q F H G B L J M P D K C T S W R N Z,5fb24d262a3a69633d54fd7a,21,Kobieta,2022-06-11_09h42.37.823,task,2021.1.4,Win32,60.17209218,6299f149e92ead563fba08ef,62a4475d1eaae6b8a67b619f,,,,,,,,,,,,,,,,,,,,,,,,,,,,,,,,,,,,,,,,,,,,,,,,,,,,,,,,,,,,,,,,,,,,,,,,,,,,4,0,4,0,1,,,,,,,,,,,,,,,,,,,,,
,,,,,,,,,,,,5fb24d262a3a69633d54fd7a,21,Kobieta,2022-06-11_09h42.37.823,task,2021.1.4,Win32,60.17209218,6299f149e92ead563fba08ef,62a4475d1eaae6b8a67b619f,,,,,,,,,,,,,4,,,,,,,,,,Task,11,(18/3) - 2,4,,,,,,,,,,,,,,,,,,,1,,,,,,,,,,,,,,,,,,,,,,,"[""4""]",1,[3.388300000190725],0,0,0,10,1,,,,,,,,,,,,,,,,,,,,,,,,,,
,,,,,,,,,,,X V Q F H G B L J M P D K C T S W R N Z,5fb24d262a3a69633d54fd7a,21,Kobieta,2022-06-11_09h42.37.823,task,2021.1.4,Win32,60.17209218,6299f149e92ead563fba08ef,62a4475d1eaae6b8a67b619f,,,,,,,,,,,,,,,,,,,,,,,,,,,,,,,,,,,,,,,,,,,,,,,,,,,,,,,,,,,,,,,,,,,,,,,,,,,,5,0,5,0,1,,,,,,,,,,,,,,,,,,,,,
,,,,,,,,,,,,5fb24d262a3a69633d54fd7a,21,Kobieta,2022-06-11_09h42.37.823,task,2021.1.4,Win32,60.17209218,6299f149e92ead563fba08ef,62a4475d1eaae6b8a67b619f,,,,,,,,,,,,,6,,,,,,,,,,Task,37,(3/3) + 5,6,,,,,,,,,,,,,,,,,,,1,,,,,,,,,,,,,,,,,,,,,,,"[""6""]",1,[5.030900000095357],0,0,0,36,1,,,,,,,,,,,,,,,,,,,,,,,,,,
,,,,,,,,,,,X V Q F H G B L J M P D K C T S W R N Z,5fb24d262a3a69633d54fd7a,21,Kobieta,2022-06-11_09h42.37.823,task,2021.1.4,Win32,60.17209218,6299f149e92ead563fba08ef,62a4475d1eaae6b8a67b619f,,,,,,,,,,,,,,,,,,,,,,,,,,,,,,,,,,,,,,,,,,,,,,,,,,,,,,,,,,,,,,,,,,,,,,,,,,,,6,0,6,0,1,,,,,,,,,,,,,,,,,,,,,
,,,,,,,,,,,,5fb24d262a3a69633d54fd7a,21,Kobieta,2022-06-11_09h42.37.823,task,2021.1.4,Win32,60.17209218,6299f149e92ead563fba08ef,62a4475d1eaae6b8a67b619f,,,,,,,,,,,,,0,,,,,,,,,,Task,25,(10/5) - 2,0,,,,,,,,,,,,,,,,,,,1,,,,,,,,,,,,,,,,,,,,,,,"[""0""]",1,[5.889100000381518],0,0,0,24,1,,,,,,,,,,,,,,,,,,,,,,,,,,
,,,,,,,,,,,X V Q F H G B L J M P D K C T S W R N Z,5fb24d262a3a69633d54fd7a,21,Kobieta,2022-06-11_09h42.37.823,task,2021.1.4,Win32,60.17209218,6299f149e92ead563fba08ef,62a4475d1eaae6b8a67b619f,,,,,,,,,,,,,,,,,,,,,,,,,,,,,,,,,,,,,,,,,,,,,,,,,,,,,,,,,,,,,,,,,,,,,,,,,,,,7,0,7,0,1,,,,,,,,,,,,,,,,,,,,,
,,,,,,,,,,,,5fb24d262a3a69633d54fd7a,21,Kobieta,2022-06-11_09h42.37.823,task,2021.1.4,Win32,60.17209218,6299f149e92ead563fba08ef,62a4475d1eaae6b8a67b619f,,,,,,,,,,,,,,,,,,,,,,,,,,,,,,,,,,,,,,,,,,,,,,,,,,,,,,,,,,,,,,,,,,,,,,,,,,,,,,,,,vzrrhxc,"[""v"",""z"",""r"",""r"",""h"",""x"",""c""]",0,"[1.7916999998092251,2.1240999999046153,2.6359999999999673,2.7847999997138686,3.31959999990454,3.9825999999045507,4.416099999904645,6.375799999713877]",0,VZRRHXCR,8,0,8,0,1,,,,,,,,,,
,,,,,,,,,,,,5fb24d262a3a69633d54fd7a,21,Kobieta,2022-06-11_09h42.37.823,task,2021.1.4,Win32,60.17209218,6299f149e92ead563fba08ef,62a4475d1eaae6b8a67b619f,,,,,,,,,,,,,,,,,,,,,,,,,,,,,,,,,,,,,,,,,,,,,,,,,,,,,,,,,,,,,,,,,,,,,,,,,,,,,,,,,,,,,,,,,,,,"[""period""]",0,[1.837300000190794],0,0,0,0,1,,
,,,,,,,,,,,,5fb24d262a3a69633d54fd7a,21,Kobieta,2022-06-11_09h42.37.823,task,2021.1.4,Win32,60.17209218,6299f149e92ead563fba08ef,62a4475d1eaae6b8a67b619f,,,,,,,,,,,,,,,,,,,,,,,,,,,,,,,,,,,,,,,,,,,,,,,,,,,,,,,,,,,,,,,,,,,,,,,,,,,,,,,,,,,,,,,,,,,,,0,,1,0,1,0,1,,
,,,,,,,,,,,,5fb24d262a3a69633d54fd7a,21,Kobieta,2022-06-11_09h42.37.823,task,2021.1.4,Win32,60.17209218,6299f149e92ead563fba08ef,62a4475d1eaae6b8a67b619f,,,,,,,,,,,,,,,,,,,,,,,,,,,,,,,,,,,,,,,,,,,,,,,,,,,,,,,,,,,,,,,,,,,,,,,,,,,,,,,,,,,,,,,,,,,,"[""period""]",0,[1.1170999999046671],2,0,2,0,1,,
,,,,,,,,,,,,5fb24d262a3a69633d54fd7a,21,Kobieta,2022-06-11_09h42.37.823,task,2021.1.4,Win32,60.17209218,6299f149e92ead563fba08ef,62a4475d1eaae6b8a67b619f,,,,,,,,,,,,,,,,,,,,,,,,,,,,,,,,,,,,,,,,,,,,,,,,,,,,,,,,,,,,,,,,,,,,,,,,,,,,,,,,,,,,,,,,,,,,"[""comma""]",0,[0.5861000003815207],3,0,3,0,1,,
,,,,,,,,,,,,5fb24d262a3a69633d54fd7a,21,Kobieta,2022-06-11_09h42.37.823,task,2021.1.4,Win32,60.17209218,6299f149e92ead563fba08ef,62a4475d1eaae6b8a67b619f,,,,,,,,,,,,,,,,,,,,,,,,,,,,,,,,,,,,,,,,,,,,,,,,,,,,,,,,,,,,,,,,,,,,,,,,,,,,,,,,,,,,,,,,,,,,"[""period""]",0,[0.4489000000953638],4,0,4,0,1,,
,,,,,,,,,,,,5fb24d262a3a69633d54fd7a,21,Kobieta,2022-06-11_09h42.37.823,task,2021.1.4,Win32,60.17209218,6299f149e92ead563fba08ef,62a4475d1eaae6b8a67b619f,,,,,,,,,,,,,,,,,,,,,,,,,,,,,,,,,,,,,,,,,,,,,,,,,,,,,,,,,,,,,,,,,,,,,,,,,,,,,,,,,,,,,,,,,,,,"[""comma""]",0,[0.36679999971386223],5,0,5,0,1,,
,,,,,,,,,,,,5fb24d262a3a69633d54fd7a,21,Kobieta,2022-06-11_09h42.37.823,task,2021.1.4,Win32,60.17209218,6299f149e92ead563fba08ef,62a4475d1eaae6b8a67b619f,,,,,,,,,,,,,,,,,,,,,,,,,,,,,,,,,,,,,,,,,,,,,,,,,,,,,,,,,,,,,,,,,,,,,,,,,,,,,,,,,,,,,,,,,,,,"[""comma""]",0,[0.2653999996184666],6,0,6,0,1,,
,,,,,,,,,,,,5fb24d262a3a69633d54fd7a,21,Kobieta,2022-06-11_09h42.37.823,task,2021.1.4,Win32,60.17209218,6299f149e92ead563fba08ef,62a4475d1eaae6b8a67b619f,,,,,,,,,,,,,,,,,,,,,,,,,,,,,,,,,,,,,,,,,,,,,,,,,,,,,,,,,,,,,,,,,,,,,,,,,,,,,,,,,,,,,,,,,,,,"[""comma""]",0,[0.32630000019071304],7,0,7,0,1,,
,,,,,,,,,,,,5fb24d262a3a69633d54fd7a,21,Kobieta,2022-06-11_09h42.37.823,task,2021.1.4,Win32,60.17209218,6299f149e92ead563fba08ef,62a4475d1eaae6b8a67b619f,,,,,,,,,,,,,,,,,,,,,,,,,,,,,,,,,,,,,,,,,,,,,,,,,,,,,,,,,,,,,,,,,,,,,,,,,,,,,,,,,,,,,,,,,,,,"[""period""]",0,[0.325599999904739],8,0,8,0,1,,
,,,,,,,,,,,,5fb24d262a3a69633d54fd7a,21,Kobieta,2022-06-11_09h42.37.823,task,2021.1.4,Win32,60.17209218,6299f149e92ead563fba08ef,62a4475d1eaae6b8a67b619f,,,,,,,,,,,,,,,,,,,,,,,,,,,,,,,,,,,,,,,,,,,,,,,,,,,,,,,,,,,,,,,,,,,,,,,,,,,,,,,,,,,,,,,,,,,,"[""comma""]",0,[0.3144999999999527],9,0,9,0,1,,
,,,,,,,,,,,,5fb24d262a3a69633d54fd7a,21,Kobieta,2022-06-11_09h42.37.823,task,2021.1.4,Win32,60.17209218,6299f149e92ead563fba08ef,62a4475d1eaae6b8a67b619f,,,,,,,,,,,,,,,,,,,,,,,,,,,,,,,,,,,,,,,,,,,,,,,,,,,,,,,,,,,,,,,,,,,,,,,,,,,,,,,,,,,,,,,,,,,,"[""period""]",0,[0.3148000001907576],10,0,10,0,1,,
,,,,,,,,,,,,5fb24d262a3a69633d54fd7a,21,Kobieta,2022-06-11_09h42.37.823,task,2021.1.4,Win32,60.17209218,6299f149e92ead563fba08ef,62a4475d1eaae6b8a67b619f,,,,,,,,,,,,,,,,,,,,,,,,,,,,,,,,,,,,,,,,,,,,,,,,,,,,,,,,,,,,,,,,,,,,,,,,,,,,,,,,,,,,,,,,,,,,"[""period""]",0,[0.3182000002860832],11,0,11,0,1,,
,,,,,,,,,,,,5fb24d262a3a69633d54fd7a,21,Kobieta,2022-06-11_09h42.37.823,task,2021.1.4,Win32,60.17209218,6299f149e92ead563fba08ef,62a4475d1eaae6b8a67b619f,,,,,,,,,,,,,,,,,,,,,,,,,,,,,,,,,,,,,,,,,,,,,,,,,,,,,,,,,,,,,,,,,,,,,,,,,,,,,,,,,,,,,,,,,,,,"[""period""]",0,[0.2900000000000773],12,0,12,0,1,,
,,,,,,,,,,,,5fb24d262a3a69633d54fd7a,21,Kobieta,2022-06-11_09h42.37.823,task,2021.1.4,Win32,60.17209218,6299f149e92ead563fba08ef,62a4475d1eaae6b8a67b619f,,,,,,,,,,,,,,,,,,,,,,,,,,,,,,,,,,,,,,,,,,,,,,,,,,,,,,,,,,,,,,,,,,,,,,,,,,,,,,,,,,,,,,,,,,,,"[""period""]",0,[0.27409999990459255],13,0,13,0,1,,
,,,,,,,,,,,,5fb24d262a3a69633d54fd7a,21,Kobieta,2022-06-11_09h42.37.823,task,2021.1.4,Win32,60.17209218,6299f149e92ead563fba08ef,62a4475d1eaae6b8a67b619f,,,,,,,,,,,,,,,,,,,,,,,,,,,,,,,,,,,,,,,,,,,,,,,,,,,,,,,,,,,,,,,,,,,,,,,,,,,,,,,,,,,,,,,,,,,,"[""comma""]",0,[0.2828000001908322],14,0,14,0,1,,
,,,,,,,,,,,,5fb24d262a3a69633d54fd7a,21,Kobieta,2022-06-11_09h42.37.823,task,2021.1.4,Win32,60.17209218,6299f149e92ead563fba08ef,62a4475d1eaae6b8a67b619f,,,,,,,,,,,,,,,,,,,,,,,,,,,,,,,,,,,,,,,,,,,,,,,,,,,,,,,,,,,,,,,,,,,,,,,,,,,,,,,,,,,,,,,,,,,,"[""period""]",0,[0.28180000019074214],15,0,15,0,1,,
,,,,,,,,,,,,5fb24d262a3a69633d54fd7a,21,Kobieta,2022-06-11_09h42.37.823,task,2021.1.4,Win32,60.17209218,6299f149e92ead563fba08ef,62a4475d1eaae6b8a67b619f,,,,,,,,,,,,,,,,,,,,,,,,,,,,,,,,,,,,,,,,,,,,,,,,,,,,,,,,,,,,,,,,,,,,,,,,,,,,,,,,,,,,,,,,,,,,"[""comma""]",0,[0.28290000009531013],16,0,16,0,1,,
,,,,,,,,,,,,5fb24d262a3a69633d54fd7a,21,Kobieta,2022-06-11_09h42.37.823,task,2021.1.4,Win32,60.17209218,6299f149e92ead563fba08ef,62a4475d1eaae6b8a67b619f,,,,,,,,,,,,,,,,,,,,,,,,,,,,,,,,,,,,,,,,,,,,,,,,,,,,,,,,,,,,,,,,,,,,,,,,,,,,,,,,,,,,,,,,,,,,"[""comma""]",0,[0.32240000009539926],17,0,17,0,1,,
,,,,,,,,,,,,5fb24d262a3a69633d54fd7a,21,Kobieta,2022-06-11_09h42.37.823,task,2021.1.4,Win32,60.17209218,6299f149e92ead563fba08ef,62a4475d1eaae6b8a67b619f,,,,,,,,,,,,,,,,,,,,,,,,,,,,,,,,,,,,,,,,,,,,,,,,,,,,,,,,,,,,,,,,,,,,,,,,,,,,,,,,,,,,,,,,,,,,"[""period""]",0,[0.4819999999999709],18,0,18,0,1,,
,,,,,,,,,,,,5fb24d262a3a69633d54fd7a,21,Kobieta,2022-06-11_09h42.37.823,task,2021.1.4,Win32,60.17209218,6299f149e92ead563fba08ef,62a4475d1eaae6b8a67b619f,,,,,,,,,,,,,,,,,,,,,,,,,,,,,,,,,,,,,,,,,,,,,,,,,,,,,,,,,,,,,,,,,,,,,,,,,,,,,,,,,,,,,,,,,,,,"[""comma""]",0,[0.2825999999047326],19,0,19,0,1,,
,,,,,,,,,,,,5fb24d262a3a69633d54fd7a,21,Kobieta,2022-06-11_09h42.37.823,task,2021.1.4,Win32,60.17209218,6299f149e92ead563fba08ef,62a4475d1eaae6b8a67b619f,,,,,,,,,,,,,,,,,,,,,,,,,,,,,,,,,,,,,,,,,,,,,,,,,,,,,,,,,,,,,,,,,,,,,,,,,,,,,,,,,,,,,,,,,,,,"[""comma""]",0,[0.2535999999045089],20,0,20,0,1,,
,,,,,,,,,,,,5fb24d262a3a69633d54fd7a,21,Kobieta,2022-06-11_09h42.37.823,task,2021.1.4,Win32,60.17209218,6299f149e92ead563fba08ef,62a4475d1eaae6b8a67b619f,,,,,,,,,,,,,,,,,,,,,,,,,,,,,,,,,,,,,,,,,,,,,,,,,,,,,,,,,,,,,,,,,,,,,,,,,,,,,,,,,,,,,,,,,,,,"[""comma""]",0,[0.2857000002859422],21,0,21,0,1,,
,,,,,,,,,,,,5fb24d262a3a69633d54fd7a,21,Kobieta,2022-06-11_09h42.37.823,task,2021.1.4,Win32,60.17209218,6299f149e92ead563fba08ef,62a4475d1eaae6b8a67b619f,,,,,,,,,,,,,,,,,,,,,,,,,,,,,,,,,,,,,,,,,,,,,,,,,,,,,,,,,,,,,,,,,,,,,,,,,,,,,,,,,,,,,,,,,,,,"[""comma""]",0,[0.12599999999997635],22,0,22,0,1,,
,,,,,,,,,,,,5fb24d262a3a69633d54fd7a,21,Kobieta,2022-06-11_09h42.37.823,task,2021.1.4,Win32,60.17209218,6299f149e92ead563fba08ef,62a4475d1eaae6b8a67b619f,,,,,,,,,,,,,,,,,,,,,,,,,,,,,,,,,,,,,,,,,,,,,,,,,,,,,,,,,,,,,,,,,,,,,,,,,,,,,,,,,,,,,,,,,,,,"[""period""]",0,[0.15499999999997272],23,0,23,0,1,,
,,,,,,,,,,,,5fb24d262a3a69633d54fd7a,21,Kobieta,2022-06-11_09h42.37.823,task,2021.1.4,Win32,60.17209218,6299f149e92ead563fba08ef,62a4475d1eaae6b8a67b619f,,,,,,,,,,,,,,,,,,,,,,,,,,,,,,,,,,,,,,,,,,,,,,,,,,,,,,,,,,,,,,,,,,,,,,,,,,,,,,,,,,,,,,,,,,,,"[""period""]",0,[0.2856999998091396],24,0,24,0,1,,
,,,,,,,,,,,,5fb24d262a3a69633d54fd7a,21,Kobieta,2022-06-11_09h42.37.823,task,2021.1.4,Win32,60.17209218,6299f149e92ead563fba08ef,62a4475d1eaae6b8a67b619f,,,,,,,,,,,,,,,,,,,,,,,,,,,,,,,,,,,,,,,,,,,,,,,,,,,,,,,,,,,,,,,,,,,,,,,,,,,,,,,,,,,,,,,,,,,,"[""comma""]",0,[0.3538999996185339],25,0,25,0,1,,
,,,,,,,,,,,,5fb24d262a3a69633d54fd7a,21,Kobieta,2022-06-11_09h42.37.823,task,2021.1.4,Win32,60.17209218,6299f149e92ead563fba08ef,62a4475d1eaae6b8a67b619f,,,,,,,,,,,,,,,,,,,,,,,,,,,,,,,,,,,,,,,,,,,,,,,,,,,,,,,,,,,,,,,,,,,,,,,,,,,,,,,,,,,,,,,,,,,,"[""period""]",0,[0.3160000000000309],26,0,26,0,1,,
,,,,,,,,,,,,5fb24d262a3a69633d54fd7a,21,Kobieta,2022-06-11_09h42.37.823,task,2021.1.4,Win32,60.17209218,6299f149e92ead563fba08ef,62a4475d1eaae6b8a67b619f,,,,,,,,,,,,,,,,,,,,,,,,,,,,,,,,,,,,,,,,,,,,,,,,,,,,,,,,,,,,,,,,,,,,,,,,,,,,,,,,,,,,,,,,,,,,"[""comma""]",0,[0.30179999971392135],27,0,27,0,1,,
,,,,,,,,,,,,5fb24d262a3a69633d54fd7a,21,Kobieta,2022-06-11_09h42.37.823,task,2021.1.4,Win32,60.17209218,6299f149e92ead563fba08ef,62a4475d1eaae6b8a67b619f,,,,,,,,,,,,,,,,,,,,,,,,,,,,,,,,,,,,,,,,,,,,,,,,,,,,,,,,,,,,,,,,,,,,,,,,,,,,,,,,,,,,,,,,,,,,"[""comma""]",0,[0.2819999999999254],28,0,28,0,1,,
,,,,,,,,,,,,5fb24d262a3a69633d54fd7a,21,Kobieta,2022-06-11_09h42.37.823,task,2021.1.4,Win32,60.17209218,6299f149e92ead563fba08ef,62a4475d1eaae6b8a67b619f,,,,,,,,,,,,,,,,,,,,,,,,,,,,,,,,,,,,,,,,,,,,,,,,,,,,,,,,,,,,,,,,,,,,,,,,,,,,,,,,,,,,,,,,,,,,"[""period""]",0,[0.23869999980911416],29,0,29,0,1,,
,,,,,,,,,,,,5fb24d262a3a69633d54fd7a,21,Kobieta,2022-06-11_09h42.37.823,task,2021.1.4,Win32,60.17209218,6299f149e92ead563fba08ef,62a4475d1eaae6b8a67b619f,,,,,,,,,,,,,,,,,,,,,,,,,,,,,,,,,,,,,,,,,,,,,,,,,,,,,,,,,,,,,,,,,,,,,,,,,,,,,,,,,,,,,,,,,,,,"[""period""]",0,[0.07279999971387952],30,0,30,0,1,,
,,,,,,,,,,,,5fb24d262a3a69633d54fd7a,21,Kobieta,2022-06-11_09h42.37.823,task,2021.1.4,Win32,60.17209218,6299f149e92ead563fba08ef,62a4475d1eaae6b8a67b619f,,,,,,,,,,,,,,,,,,,,,,,,,,,,,,,,,,,,,,,,,,,,,,,,,,,,,,,,,,,,,,,,,,,,,,,,,,,,,,,,,,,,,,,,,,,,"[""period""]",0,[0.35709999990444885],31,0,31,0,1,,
,,,,,,,,,,,,5fb24d262a3a69633d54fd7a,21,Kobieta,2022-06-11_09h42.37.823,task,2021.1.4,Win32,60.17209218,6299f149e92ead563fba08ef,62a4475d1eaae6b8a67b619f,,,,,,,,,,,,,,,,,,,,,,,,,,,,,,,,,,,,,,,,,,,,,,,,,,,,,,,,,,,,,,,,,,,,,,,,,,,,,,,,,,,,,,,,,,,,"[""comma""]",0,[0.29779999971378857],32,0,32,0,1,,
,,,,,,,,,,,,5fb24d262a3a69633d54fd7a,21,Kobieta,2022-06-11_09h42.37.823,task,2021.1.4,Win32,60.17209218,6299f149e92ead563fba08ef,62a4475d1eaae6b8a67b619f,,,,,,,,,,,,,,,,,,,,,,,,,,,,,,,,,,,,,,,,,,,,,,,,,,,,,,,,,,,,,,,,,,,,,,,,,,,,,,,,,,,,,,,,,,,,"[""period""]",0,[0.2816999998092342],33,0,33,0,1,,
,,,,,,,,,,,,5fb24d262a3a69633d54fd7a,21,Kobieta,2022-06-11_09h42.37.823,task,2021.1.4,Win32,60.17209218,6299f149e92ead563fba08ef,62a4475d1eaae6b8a67b619f,,,,,,,,,,,,,,,,,,,,,,,,,,,,,,,,,,,,,,,,,,,,,,,,,,,,,,,,,,,,,,,,,,,,,,,,,,,,,,,,,,,,,,,,,,,,"[""comma""]",0,[0.2862000002860441],34,0,34,0,1,,
,,,,,,,,,,,,5fb24d262a3a69633d54fd7a,21,Kobieta,2022-06-11_09h42.37.823,task,2021.1.4,Win32,60.17209218,6299f149e92ead563fba08ef,62a4475d1eaae6b8a67b619f,,,,,,,,,,,,,,,,,,,,,,,,,,,,,,,,,,,,,,,,,,,,,,,,,,,,,,,,,,,,,,,,,,,,,,,,,,,,,,,,,,,,,,,,,,,,"[""comma""]",0,[0.3048000001908804],35,0,35,0,1,,
,,,,,,,,,,,,5fb24d262a3a69633d54fd7a,21,Kobieta,2022-06-11_09h42.37.823,task,2021.1.4,Win32,60.17209218,6299f149e92ead563fba08ef,62a4475d1eaae6b8a67b619f,,,,,,,,,,,,,,,,,,,,,,,,,,,,,,,,,,,,,,,,,,,,,,,,,,,,,,,,,,,,,,,,,,,,,,,,,,,,,,,,,,,,,,,,,,,,"[""period""]",0,[0.26580000019066574],36,0,36,0,1,,
,,,,,,,,,,,,5fb24d262a3a69633d54fd7a,21,Kobieta,2022-06-11_09h42.37.823,task,2021.1.4,Win32,60.17209218,6299f149e92ead563fba08ef,62a4475d1eaae6b8a67b619f,,,,,,,,,,,,,,,,,,,,,,,,,,,,,,,,,,,,,,,,,,,,,,,,,,,,,,,,,,,,,,,,,,,,,,,,,,,,,,,,,,,,,,,,,,,,"[""comma""]",0,[0.26959999990481265],37,0,37,0,1,,
,,,,,,,,,,,,5fb24d262a3a69633d54fd7a,21,Kobieta,2022-06-11_09h42.37.823,task,2021.1.4,Win32,60.17209218,6299f149e92ead563fba08ef,62a4475d1eaae6b8a67b619f,,,,,,,,,,,,,,,,,,,,,,,,,,,,,,,,,,,,,,,,,,,,,,,,,,,,,,,,,,,,,,,,,,,,,,,,,,,,,,,,,,,,,,,,,,,,"[""comma""]",0,[0.31519999980923785],38,0,38,0,1,,
,,,,,,,,,,,,5fb24d262a3a69633d54fd7a,21,Kobieta,2022-06-11_09h42.37.823,task,2021.1.4,Win32,60.17209218,6299f149e92ead563fba08ef,62a4475d1eaae6b8a67b619f,,,,,,,,,,,,,,,,,,,,,,,,,,,,,,,,,,,,,,,,,,,,,,,,,,,,,,,,,,,,,,,,,,,,,,,,,,,,,,,,,,,,,,,,,,,,"[""comma""]",0,[0.31570000028591494],39,0,39,0,1,,
,,,,,,,,,,,,5fb24d262a3a69633d54fd7a,21,Kobieta,2022-06-11_09h42.37.823,task,2021.1.4,Win32,60.17209218,6299f149e92ead563fba08ef,62a4475d1eaae6b8a67b619f,,,,,,,,,,,,,,,,,,,,,,,,,,,,,,,,,,,,,,,,,,,,,,,,,,,,,,,,,,,,,,,,,,,,,,,,,,,,,,,,,,,,,,,,,,,,"[""period""]",0,[0.28239999961851936],40,0,40,0,1,,
,,,,,,,,,,,,5fb24d262a3a69633d54fd7a,21,Kobieta,2022-06-11_09h42.37.823,task,2021.1.4,Win32,60.17209218,6299f149e92ead563fba08ef,62a4475d1eaae6b8a67b619f,,,,,,,,,,,,,,,,,,,,,,,,,,,,,,,,,,,,,,,,,,,,,,,,,,,,,,,,,,,,,,,,,,,,,,,,,,,,,,,,,,,,,,,,,,,,"[""period""]",0,[0.3159000000953256],41,0,41,0,1,,
,,,,,,,,,,,,5fb24d262a3a69633d54fd7a,21,Kobieta,2022-06-11_09h42.37.823,task,2021.1.4,Win32,60.17209218,6299f149e92ead563fba08ef,62a4475d1eaae6b8a67b619f,,,,,,,,,,,,,,,,,,,,,,,,,,,,,,,,,,,,,,,,,,,,,,,,,,,,,,,,,,,,,,,,,,,,,,,,,,,,,,,,,,,,,,,,,,,,"[""comma""]",0,[0.2899999999999636],42,0,42,0,1,,
,,,,,,,,,,,,5fb24d262a3a69633d54fd7a,21,Kobieta,2022-06-11_09h42.37.823,task,2021.1.4,Win32,60.17209218,6299f149e92ead563fba08ef,62a4475d1eaae6b8a67b619f,,,,,,,,,,,,,,,,,,,,,,,,,,,,,,,,,,,,,,,,,,,,,,,,,,,,,,,,,,,,,,,,,,,,,,,,,,,,,,,,,,,,,,,,,,,,"[""period""]",0,[0.3155999999046344],43,0,43,0,1,,
,,,,,,,,,,,,5fb24d262a3a69633d54fd7a,21,Kobieta,2022-06-11_09h42.37.823,task,2021.1.4,Win32,60.17209218,6299f149e92ead563fba08ef,62a4475d1eaae6b8a67b619f,,,,,,,,,,,,,,,,,,,,,,,,,,,,,,,,,,,,,,,,,,,,,,,,,,,,,,,,,,,,,,,,,,,,,,,,,,,,,,,,,,,,,,,,,,,,"[""comma""]",0,[0.28269999980943794],44,0,44,0,1,,
,,,,,,,,,,,,5fb24d262a3a69633d54fd7a,21,Kobieta,2022-06-11_09h42.37.823,task,2021.1.4,Win32,60.17209218,6299f149e92ead563fba08ef,62a4475d1eaae6b8a67b619f,,,,,,,,,,,,,,,,,,,,,,,,,,,,,,,,,,,,,,,,,,,,,,,,,,,,,,,,,,,,,,,,,,,,,,,,,,,,,,,,,,,,,,,,,,,,"[""comma""]",0,[0.3532999997137267],45,0,45,0,1,,
,,,,,,,,,,,,5fb24d262a3a69633d54fd7a,21,Kobieta,2022-06-11_09h42.37.823,task,2021.1.4,Win32,60.17209218,6299f149e92ead563fba08ef,62a4475d1eaae6b8a67b619f,,,,,,,,,,,,,,,,,,,,,,,,,,,,,,,,,,,,,,,,,,,,,,,,,,,,,,,,,,,,,,,,,,,,,,,,,,,,,,,,,,,,,,,,,,,,"[""period""]",0,[0.31549999999992906],46,0,46,0,1,,
,,,,,,,,,,,,5fb24d262a3a69633d54fd7a,21,Kobieta,2022-06-11_09h42.37.823,task,2021.1.4,Win32,60.17209218,6299f149e92ead563fba08ef,62a4475d1eaae6b8a67b619f,,,,,,,,,,,,,,,,,,,,,,,,,,,,,,,,,,,,,,,,,,,,,,,,,,,,,,,,,,,,,,,,,,,,,,,,,,,,,,,,,,,,,,,,,,,,"[""comma""]",0,[0.2990999999046835],47,0,47,0,1,,
,,,,,,,,,,,,5fb24d262a3a69633d54fd7a,21,Kobieta,2022-06-11_09h42.37.823,task,2021.1.4,Win32,60.17209218,6299f149e92ead563fba08ef,62a4475d1eaae6b8a67b619f,,,,,,,,,,,,,,,,,,,,,,,,,,,,,,,,,,,,,,,,,,,,,,,,,,,,,,,,,,,,,,,,,,,,,,,,,,,,,,,,,,,,,,,,,,,,"[""period""]",0,[0.2257000002859968],48,0,48,0,1,,
,,,,,,,,,,,,5fb24d262a3a69633d54fd7a,21,Kobieta,2022-06-11_09h42.37.823,task,2021.1.4,Win32,60.17209218,6299f149e92ead563fba08ef,62a4475d1eaae6b8a67b619f,,,,,,,,,,,,,,,,,,,,,,,,,,,,,,,,,,,,,,,,,,,,,,,,,,,,,,,,,,,,,,,,,,,,,,,,,,,,,,,,,,,,,,,,,,,,"[""period""]",0,[0.31500000000005457],49,0,49,0,1,,
,,,,,,,,,,,,5fb24d262a3a69633d54fd7a,21,Kobieta,2022-06-11_09h42.37.823,task,2021.1.4,Win32,60.17209218,6299f149e92ead563fba08ef,62a4475d1eaae6b8a67b619f,,,,,,,,,,,,,,,,,,,,,,,,,,,,,,,,,,,,,,,,,,,,,,,,,,,,,,,,,,,,,,,,,,,,,,,,,,,,,,,,,,,,,,,,,,,,"[""period""]",0,[0.33799999999996544],50,0,50,0,1,,
,,,,,,,,,,,,5fb24d262a3a69633d54fd7a,21,Kobieta,2022-06-11_09h42.37.823,task,2021.1.4,Win32,60.17209218,6299f149e92ead563fba08ef,62a4475d1eaae6b8a67b619f,,,,,,,,,,,,,,,,,,,,,,,,,,,,,,,,,,,,,,,,,,,,,,,,,,,,,,,,,,,,,,,,,,,,,,,,,,,,,,,,,,,,,,,,,,,,"[""period""]",0,[0.29839999961859576],51,0,51,0,1,,
,,,,,,,,,,,,5fb24d262a3a69633d54fd7a,21,Kobieta,2022-06-11_09h42.37.823,task,2021.1.4,Win32,60.17209218,6299f149e92ead563fba08ef,62a4475d1eaae6b8a67b619f,,,,,,,,,,,,,,,,,,,,,,,,,,,,,,,,,,,,,,,,,,,,,,,,,,,,,,,,,,,,,,,,,,,,,,,,,,,,,,,,,,,,,,,,,,,,"[""period""]",0,[0.32609999990472716],52,0,52,0,1,,
,,,,,,,,,,,,5fb24d262a3a69633d54fd7a,21,Kobieta,2022-06-11_09h42.37.823,task,2021.1.4,Win32,60.17209218,6299f149e92ead563fba08ef,62a4475d1eaae6b8a67b619f,,,,,,,,,,,,,,,,,,,,,,,,,,,,,,,,,,,,,,,,,,,,,,,,,,,,,,,,,,,,,,,,,,,,,,,,,,,,,,,,,,,,,,,,,,,,"[""comma""]",0,[0.2855000000001837],53,0,53,0,1,,
,,,,,,,,,,,,5fb24d262a3a69633d54fd7a,21,Kobieta,2022-06-11_09h42.37.823,task,2021.1.4,Win32,60.17209218,6299f149e92ead563fba08ef,62a4475d1eaae6b8a67b619f,,,,,,,,,,,,,,,,,,,,,,,,,,,,,,,,,,,,,,,,,,,,,,,,,,,,,,,,,,,,,,,,,,,,,,,,,,,,,,,,,,,,,,,,,,,,"[""period""]",0,[0.33180000019069666],54,0,54,0,1,,
,,,,,,,,,,,,5fb24d262a3a69633d54fd7a,21,Kobieta,2022-06-11_09h42.37.823,task,2021.1.4,Win32,60.17209218,6299f149e92ead563fba08ef,62a4475d1eaae6b8a67b619f,,,,,,,,,,,,,,,,,,,,,,,,,,,,,,,,,,,,,,,,,,,,,,,,,,,,,,,,,,,,,,,,,,,,,,,,,,,,,,,,,,,,,,,,,,,,"[""period""]",0,[0.3320999999045853],55,0,55,0,1,,
,,,,,,,,,,,,5fb24d262a3a69633d54fd7a,21,Kobieta,2022-06-11_09h42.37.823,task,2021.1.4,Win32,60.17209218,6299f149e92ead563fba08ef,62a4475d1eaae6b8a67b619f,,,,,,,,,,,,,,,,,,,,,,,,,,,,,,,,,,,,,,,,,,,,,,,,,,,,,,,,,,,,,,,,,,,,,,,,,,,,,,,,,,,,,,,,,,,,"[""comma""]",0,[0.30180000019072395],56,0,56,0,1,,
,,,,,,,,,,,,5fb24d262a3a69633d54fd7a,21,Kobieta,2022-06-11_09h42.37.823,task,2021.1.4,Win32,60.17209218,6299f149e92ead563fba08ef,62a4475d1eaae6b8a67b619f,,,,,,,,,,,,,,,,,,,,,,,,,,,,,,,,,,,,,,,,,,,,,,,,,,,,,,,,,,,,,,,,,,,,,,,,,,,,,,,,,,,,,,,,,,,,"[""period""]",0,[0.29899999999997817],57,0,57,0,1,,
,,,,,,,,,,,,5fb24d262a3a69633d54fd7a,21,Kobieta,2022-06-11_09h42.37.823,task,2021.1.4,Win32,60.17209218,6299f149e92ead563fba08ef,62a4475d1eaae6b8a67b619f,,,,,,,,,,,,,,,,,,,,,,,,,,,,,,,,,,,,,,,,,,,,,,,,,,,,,,,,,,,,,,,,,,,,,,,,,,,,,,,,,,,,,,,,,,,,"[""comma""]",0,[0.313699999809387],58,0,58,0,1,,
,,,,,,,,,,,,5fb24d262a3a69633d54fd7a,21,Kobieta,2022-06-11_09h42.37.823,task,2021.1.4,Win32,60.17209218,6299f149e92ead563fba08ef,62a4475d1eaae6b8a67b619f,,,,,,,,,,,,,,,,,,,,,,,,,,,,,,,,,,,,,,,,,,,,,,,,,,,,,,,,,,,,,,,,,,,,,,,,,,,,,,,,,,,,,,,,,,,,"[""period""]",0,[0.3320000000001073],59,0,59,0,1,,
,,,,,,,,,,,,5fb24d262a3a69633d54fd7a,21,Kobieta,2022-06-11_09h42.37.823,task,2021.1.4,Win32,60.17209218,6299f149e92ead563fba08ef,62a4475d1eaae6b8a67b619f,,,,,,,,,,,,,,,,,,,,,,,,,,,,,,,,,,,,,,,,,,,,,,,,,,,,,,,,,,,,,,,,,,,,,,,,,,,,,,,,,,,,,,,,,,,,"[""period""]",0,[0.31660000038141334],60,0,60,0,1,,
,,,,,,,,,,,,5fb24d262a3a69633d54fd7a,21,Kobieta,2022-06-11_09h42.37.823,task,2021.1.4,Win32,60.17209218,6299f149e92ead563fba08ef,62a4475d1eaae6b8a67b619f,,,,,,,,,,,,,,,,,,,,,,,,,,,,,,,,,,,,,,,,,,,,,,,,,,,,,,,,,,,,,,,,,,,,,,,,,,,,,,,,,,,,,,,,,,,,"[""comma""]",0,[0.3337999997138468],61,0,61,0,1,,
,,,,,,,,,,,,5fb24d262a3a69633d54fd7a,21,Kobieta,2022-06-11_09h42.37.823,task,2021.1.4,Win32,60.17209218,6299f149e92ead563fba08ef,62a4475d1eaae6b8a67b619f,,,,,,,,,,,,,,,,,,,,,,,,,,,,,,,,,,,,,,,,,,,,,,,,,,,,,,,,,,,,,,,,,,,,,,,,,,,,,,,,,,,,,,,,,,,,"[""period""]",0,[0.2696999998092906],62,0,62,0,1,,
,,,,,,,,,,,,5fb24d262a3a69633d54fd7a,21,Kobieta,2022-06-11_09h42.37.823,task,2021.1.4,Win32,60.17209218,6299f149e92ead563fba08ef,62a4475d1eaae6b8a67b619f,,,,,,,,,,,,,,,,,,,,,,,,,,,,,,,,,,,,,,,,,,,,,,,,,,,,,,,,,,,,,,,,,,,,,,,,,,,,,,,,,,,,,,,,,,,,"[""comma""]",0,[0.29040000009536016],63,0,63,0,1,,
,,,,,,,,,,,,5fb24d262a3a69633d54fd7a,21,Kobieta,2022-06-11_09h42.37.823,task,2021.1.4,Win32,60.17209218,6299f149e92ead563fba08ef,62a4475d1eaae6b8a67b619f,,,,,,,,,,,,,,,,,,,,,,,,,,,,,,,,,,,,,,,,,,,,,,,,,,,,,,,,,,,,,,,,,,,,,,,,,,,,,,,,,,,,,,,,,,,,"[""period""]",0,[0.3160999999045089],64,0,64,0,1,,
,,,,,,,,,,,,5fb24d262a3a69633d54fd7a,21,Kobieta,2022-06-11_09h42.37.823,task,2021.1.4,Win32,60.17209218,6299f149e92ead563fba08ef,62a4475d1eaae6b8a67b619f,,,,,,,,,,,,,,,,,,,,,,,,,,,,,,,,,,,,,,,,,,,,,,,,,,,,,,,,,,,,,,,,,,,,,,,,,,,,,,,,,,,,,,,,,,,,"[""period""]",0,[0.32179999971390316],65,0,65,0,1,,
,,,,,,,,,,,,5fb24d262a3a69633d54fd7a,21,Kobieta,2022-06-11_09h42.37.823,task,2021.1.4,Win32,60.17209218,6299f149e92ead563fba08ef,62a4475d1eaae6b8a67b619f,,,,,,,,,,,,,,,,,,,,,,,,,,,,,,,,,,,,,,,,,,,,,,,,,,,,,,,,,,,,,,,,,,,,,,,,,,,,,,,,,,,,,,,,,,,,"[""period""]",0,[0.30009999990465985],66,0,66,0,1,,
,,,,,,,,,,,,5fb24d262a3a69633d54fd7a,21,Kobieta,2022-06-11_09h42.37.823,task,2021.1.4,Win32,60.17209218,6299f149e92ead563fba08ef,62a4475d1eaae6b8a67b619f,,,,,,,,,,,,,,,,,,,,,,,,,,,,,,,,,,,,,,,,,,,,,,,,,,,,,,,,,,,,,,,,,,,,,,,,,,,,,,,,,,,,,,,,,,,,"[""comma""]",0,[0.36950000000001637],67,0,67,0,1,,
,,,,,,,,,,,,5fb24d262a3a69633d54fd7a,21,Kobieta,2022-06-11_09h42.37.823,task,2021.1.4,Win32,60.17209218,6299f149e92ead563fba08ef,62a4475d1eaae6b8a67b619f,,,,,,,,,,,,,,,,,,,,,,,,,,,,,,,,,,,,,,,,,,,,,,,,,,,,,,,,,,,,,,,,,,,,,,,,,,,,,,,,,,,,,,,,,,,,"[""period""]",0,[0.2825000000000273],68,0,68,0,1,,
,,,,,,,,,,,,5fb24d262a3a69633d54fd7a,21,Kobieta,2022-06-11_09h42.37.823,task,2021.1.4,Win32,60.17209218,6299f149e92ead563fba08ef,62a4475d1eaae6b8a67b619f,,,,,,,,,,,,,,,,,,,,,,,,,,,,,,,,,,,,,,,,,,,,,,,,,,,,,,,,,,,,,,,,,,,,,,,,,,,,,,,,,,,,,,,,,,,,"[""comma""]",0,[0.31830000019067484],69,0,69,0,1,,
,,,,,,,,,,,,5fb24d262a3a69633d54fd7a,21,Kobieta,2022-06-11_09h42.37.823,task,2021.1.4,Win32,60.17209218,6299f149e92ead563fba08ef,62a4475d1eaae6b8a67b619f,,,,,,,,,,,,,,,,,,,,,,,,,,,,,,,,,,,,,,,,,,,,,,,,,,,,,,,,,,,,,,,,,,,,,,,,,,,,,,,,,,,,,,,,,,,,"[""comma""]",0,[0.27299999999991087],70,0,70,0,1,,
,,,,,,,,,,,,5fb24d262a3a69633d54fd7a,21,Kobieta,2022-06-11_09h42.37.823,task,2021.1.4,Win32,60.17209218,6299f149e92ead563fba08ef,62a4475d1eaae6b8a67b619f,,,,,,,,,,,,,,,,,,,,,,,,,,,,,,,,,,,,,,,,,,,,,,,,,,,,,,,,,,,,,,,,,,,,,,,,,,,,,,,,,,,,,,,,,,,,"[""comma""]",0,[0.2667999997138395],71,0,71,0,1,,
,,,,,,,,,,,,5fb24d262a3a69633d54fd7a,21,Kobieta,2022-06-11_09h42.37.823,task,2021.1.4,Win32,60.17209218,6299f149e92ead563fba08ef,62a4475d1eaae6b8a67b619f,,,,,,,,,,,,,,,,,,,,,,,,,,,,,,,,,,,,,,,,,,,,,,,,,,,,,,,,,,,,,,,,,,,,,,,,,,,,,,,,,,,,,,,,,,,,"[""comma""]",0,[0.28559999990466167],72,0,72,0,1,,
,,,,,,,,,,,,5fb24d262a3a69633d54fd7a,21,Kobieta,2022-06-11_09h42.37.823,task,2021.1.4,Win32,60.17209218,6299f149e92ead563fba08ef,62a4475d1eaae6b8a67b619f,,,,,,,,,,,,,,,,,,,,,,,,,,,,,,,,,,,,,,,,,,,,,,,,,,,,,,,,,,,,,,,,,,,,,,,,,,,,,,,,,,,,,,,,,,,,"[""comma""]",0,[0.3054000000954602],73,0,73,0,1,,
,,,,,,,,,,,,5fb24d262a3a69633d54fd7a,21,Kobieta,2022-06-11_09h42.37.823,task,2021.1.4,Win32,60.17209218,6299f149e92ead563fba08ef,62a4475d1eaae6b8a67b619f,,,,,,,,,,,,,,,,,,,,,,,,,,,,,,,,,,,,,,,,,,,,,,,,,,,,,,,,,,,,,,,,,,,,,,,,,,,,,,,,,,,,,,,,,,,,"[""period""]",0,[0.238299999713945],74,0,74,0,1,,
,,,,,,,,,,,,5fb24d262a3a69633d54fd7a,21,Kobieta,2022-06-11_09h42.37.823,task,2021.1.4,Win32,60.17209218,6299f149e92ead563fba08ef,62a4475d1eaae6b8a67b619f,,,,,,,,,,,,,,,,,,,,,,,,,,,,,,,,,,,,,,,,,,,,,,,,,,,,,,,,,,,,,,,,,,,,,,,,,,,,,,,,,,,,,,,,,,,,"[""period""]",0,[0.2896999998092724],75,0,75,0,1,,
