key_resp_15.keys,key_resp_15.rt,key_resp_13.keys,key_resp_13.corr,key_resp_13.rt,ranodm_loop.thisRepN,ranodm_loop.thisTrialN,ranodm_loop.thisN,ranodm_loop.thisIndex,ranodm_loop.ran,participant,Wiek*,Płeć,date,expName,psychopyVersion,OS,frameRate,study_id,session,key_resp_16.keys,key_resp_16.rt,key_resp_4.keys,key_resp_4.rt,next_letter.thisRepN,next_letter.thisTrialN,next_letter.thisN,next_letter.thisIndex,next_letter.ran,letter,simple_recall,key_resp_5.keys,key_resp_5.rt,simple_recall_corr,simple_recall_corrkeys,next_level.thisRepN,next_level.thisTrialN,next_level.thisN,next_level.thisIndex,next_level.ran,key_resp_2.keys,key_resp_2.rt,digit_answer,key_resp.keys,key_resp.corr,key_resp.rt,RT_list,next_equation.thisRepN,next_equation.thisTrialN,next_equation.thisN,next_equation.thisIndex,next_equation.ran,Task,Trial,Problem,Operation_answer,processing_score,sumRT,meanRT,sumdiff,sd,RT,key_resp_3.keys,key_resp_3.rt,repeat_practice.thisRepN,repeat_practice.thisTrialN,repeat_practice.thisN,repeat_practice.thisIndex,repeat_practice.ran,key_resp_6.keys,key_resp_6.rt,key_resp_11.keys,key_resp_11.corr,key_resp_11.rt,operation_correct,repeat_if_wrong_prac.thisRepN,repeat_if_wrong_prac.thisTrialN,repeat_if_wrong_prac.thisN,repeat_if_wrong_prac.thisIndex,repeat_if_wrong_prac.ran,span_size_prac.thisRepN,span_size_prac.thisTrialN,span_size_prac.thisN,span_size_prac.thisIndex,span_size_prac.ran,complex_recall_practice,key_resp_9.keys,key_resp_9.corr,key_resp_9.rt,complex_prac_corr,span_recall_prac.thisRepN,span_recall_prac.thisTrialN,span_recall_prac.thisN,span_recall_prac.thisIndex,span_recall_prac.ran,key_resp_10.keys,key_resp_10.rt,key_resp_7.keys,key_resp_7.corr,key_resp_7.rt,repeat_if_wrong.thisRepN,repeat_if_wrong.thisTrialN,repeat_if_wrong.thisN,repeat_if_wrong.thisIndex,repeat_if_wrong.ran,span_size.thisRepN,span_size.thisTrialN,span_size.thisN,span_size.thisIndex,span_size.ran,complex_recall,key_resp_8.keys,key_resp_8.corr,key_resp_8.rt,complex_recall_corr,complex_recall_corrkeys,span_recall.thisRepN,span_recall.thisTrialN,span_recall.thisN,span_recall.thisIndex,span_recall.ran,key_resp_12.keys,key_resp_12.rt
space,37.997,"[""comma""]",0,[1.100999999999999],0,0,0,0,1,5fb3fcb82df261033a5f6e0e,19,Mężczyzna,2022-06-04_09h56.48.075,task,2021.1.4,Win32,240.3846154,628b806c463b948bc644b84f,629b1024a514ffa4e38e4f49,,,,,,,,,,,,,,,,,,,,,,,,,,,,,,,,,,,,,,,,,,,,,,,,,,,,,,,,,,,,,,,,,,,,,,,,,,,,,,,,,,,,,,,,,,,,,,,,,,,,,,,
,,"[""comma""]",0,[0.7700000000000102],1,0,1,0,1,5fb3fcb82df261033a5f6e0e,19,Mężczyzna,2022-06-04_09h56.48.075,task,2021.1.4,Win32,240.3846154,628b806c463b948bc644b84f,629b1024a514ffa4e38e4f49,,,,,,,,,,,,,,,,,,,,,,,,,,,,,,,,,,,,,,,,,,,,,,,,,,,,,,,,,,,,,,,,,,,,,,,,,,,,,,,,,,,,,,,,,,,,,,,,,,,,,,,
,,"[""comma""]",0,[0.8520000000000039],2,0,2,0,1,5fb3fcb82df261033a5f6e0e,19,Mężczyzna,2022-06-04_09h56.48.075,task,2021.1.4,Win32,240.3846154,628b806c463b948bc644b84f,629b1024a514ffa4e38e4f49,,,,,,,,,,,,,,,,,,,,,,,,,,,,,,,,,,,,,,,,,,,,,,,,,,,,,,,,,,,,,,,,,,,,,,,,,,,,,,,,,,,,,,,,,,,,,,,,,,,,,,,
,,"[""comma""]",0,[0.6770000000000209],3,0,3,0,1,5fb3fcb82df261033a5f6e0e,19,Mężczyzna,2022-06-04_09h56.48.075,task,2021.1.4,Win32,240.3846154,628b806c463b948bc644b84f,629b1024a514ffa4e38e4f49,,,,,,,,,,,,,,,,,,,,,,,,,,,,,,,,,,,,,,,,,,,,,,,,,,,,,,,,,,,,,,,,,,,,,,,,,,,,,,,,,,,,,,,,,,,,,,,,,,,,,,,
,,"[""period""]",0,[0.7740000000000009],4,0,4,0,1,5fb3fcb82df261033a5f6e0e,19,Mężczyzna,2022-06-04_09h56.48.075,task,2021.1.4,Win32,240.3846154,628b806c463b948bc644b84f,629b1024a514ffa4e38e4f49,,,,,,,,,,,,,,,,,,,,,,,,,,,,,,,,,,,,,,,,,,,,,,,,,,,,,,,,,,,,,,,,,,,,,,,,,,,,,,,,,,,,,,,,,,,,,,,,,,,,,,,
,,"[""period""]",0,[0.5980000000000132],5,0,5,0,1,5fb3fcb82df261033a5f6e0e,19,Mężczyzna,2022-06-04_09h56.48.075,task,2021.1.4,Win32,240.3846154,628b806c463b948bc644b84f,629b1024a514ffa4e38e4f49,,,,,,,,,,,,,,,,,,,,,,,,,,,,,,,,,,,,,,,,,,,,,,,,,,,,,,,,,,,,,,,,,,,,,,,,,,,,,,,,,,,,,,,,,,,,,,,,,,,,,,,
,,"[""period""]",0,[0.6149999999999807],6,0,6,0,1,5fb3fcb82df261033a5f6e0e,19,Mężczyzna,2022-06-04_09h56.48.075,task,2021.1.4,Win32,240.3846154,628b806c463b948bc644b84f,629b1024a514ffa4e38e4f49,,,,,,,,,,,,,,,,,,,,,,,,,,,,,,,,,,,,,,,,,,,,,,,,,,,,,,,,,,,,,,,,,,,,,,,,,,,,,,,,,,,,,,,,,,,,,,,,,,,,,,,
,,"[""comma""]",0,[0.5089999999999861],7,0,7,0,1,5fb3fcb82df261033a5f6e0e,19,Mężczyzna,2022-06-04_09h56.48.075,task,2021.1.4,Win32,240.3846154,628b806c463b948bc644b84f,629b1024a514ffa4e38e4f49,,,,,,,,,,,,,,,,,,,,,,,,,,,,,,,,,,,,,,,,,,,,,,,,,,,,,,,,,,,,,,,,,,,,,,,,,,,,,,,,,,,,,,,,,,,,,,,,,,,,,,,
,,"[""period""]",0,[0.585000000000008],8,0,8,0,1,5fb3fcb82df261033a5f6e0e,19,Mężczyzna,2022-06-04_09h56.48.075,task,2021.1.4,Win32,240.3846154,628b806c463b948bc644b84f,629b1024a514ffa4e38e4f49,,,,,,,,,,,,,,,,,,,,,,,,,,,,,,,,,,,,,,,,,,,,,,,,,,,,,,,,,,,,,,,,,,,,,,,,,,,,,,,,,,,,,,,,,,,,,,,,,,,,,,,
,,"[""comma""]",0,[0.5200000000000102],9,0,9,0,1,5fb3fcb82df261033a5f6e0e,19,Mężczyzna,2022-06-04_09h56.48.075,task,2021.1.4,Win32,240.3846154,628b806c463b948bc644b84f,629b1024a514ffa4e38e4f49,,,,,,,,,,,,,,,,,,,,,,,,,,,,,,,,,,,,,,,,,,,,,,,,,,,,,,,,,,,,,,,,,,,,,,,,,,,,,,,,,,,,,,,,,,,,,,,,,,,,,,,
,,"[""comma""]",0,[0.8810000000000002],10,0,10,0,1,5fb3fcb82df261033a5f6e0e,19,Mężczyzna,2022-06-04_09h56.48.075,task,2021.1.4,Win32,240.3846154,628b806c463b948bc644b84f,629b1024a514ffa4e38e4f49,,,,,,,,,,,,,,,,,,,,,,,,,,,,,,,,,,,,,,,,,,,,,,,,,,,,,,,,,,,,,,,,,,,,,,,,,,,,,,,,,,,,,,,,,,,,,,,,,,,,,,,
,,"[""period""]",0,[0.6570000000000107],11,0,11,0,1,5fb3fcb82df261033a5f6e0e,19,Mężczyzna,2022-06-04_09h56.48.075,task,2021.1.4,Win32,240.3846154,628b806c463b948bc644b84f,629b1024a514ffa4e38e4f49,,,,,,,,,,,,,,,,,,,,,,,,,,,,,,,,,,,,,,,,,,,,,,,,,,,,,,,,,,,,,,,,,,,,,,,,,,,,,,,,,,,,,,,,,,,,,,,,,,,,,,,
,,"[""period""]",0,[0.585000000000008],12,0,12,0,1,5fb3fcb82df261033a5f6e0e,19,Mężczyzna,2022-06-04_09h56.48.075,task,2021.1.4,Win32,240.3846154,628b806c463b948bc644b84f,629b1024a514ffa4e38e4f49,,,,,,,,,,,,,,,,,,,,,,,,,,,,,,,,,,,,,,,,,,,,,,,,,,,,,,,,,,,,,,,,,,,,,,,,,,,,,,,,,,,,,,,,,,,,,,,,,,,,,,,
,,"[""comma""]",0,[0.6740000000000066],13,0,13,0,1,5fb3fcb82df261033a5f6e0e,19,Mężczyzna,2022-06-04_09h56.48.075,task,2021.1.4,Win32,240.3846154,628b806c463b948bc644b84f,629b1024a514ffa4e38e4f49,,,,,,,,,,,,,,,,,,,,,,,,,,,,,,,,,,,,,,,,,,,,,,,,,,,,,,,,,,,,,,,,,,,,,,,,,,,,,,,,,,,,,,,,,,,,,,,,,,,,,,,
,,"[""period""]",0,[0.7650000000000148],14,0,14,0,1,5fb3fcb82df261033a5f6e0e,19,Mężczyzna,2022-06-04_09h56.48.075,task,2021.1.4,Win32,240.3846154,628b806c463b948bc644b84f,629b1024a514ffa4e38e4f49,,,,,,,,,,,,,,,,,,,,,,,,,,,,,,,,,,,,,,,,,,,,,,,,,,,,,,,,,,,,,,,,,,,,,,,,,,,,,,,,,,,,,,,,,,,,,,,,,,,,,,,
,,"[""comma""]",0,[0.5960000000000036],15,0,15,0,1,5fb3fcb82df261033a5f6e0e,19,Mężczyzna,2022-06-04_09h56.48.075,task,2021.1.4,Win32,240.3846154,628b806c463b948bc644b84f,629b1024a514ffa4e38e4f49,,,,,,,,,,,,,,,,,,,,,,,,,,,,,,,,,,,,,,,,,,,,,,,,,,,,,,,,,,,,,,,,,,,,,,,,,,,,,,,,,,,,,,,,,,,,,,,,,,,,,,,
,,"[""period""]",0,[0.667999999999978],16,0,16,0,1,5fb3fcb82df261033a5f6e0e,19,Mężczyzna,2022-06-04_09h56.48.075,task,2021.1.4,Win32,240.3846154,628b806c463b948bc644b84f,629b1024a514ffa4e38e4f49,,,,,,,,,,,,,,,,,,,,,,,,,,,,,,,,,,,,,,,,,,,,,,,,,,,,,,,,,,,,,,,,,,,,,,,,,,,,,,,,,,,,,,,,,,,,,,,,,,,,,,,
,,"[""period""]",0,[0.6279999999999859],17,0,17,0,1,5fb3fcb82df261033a5f6e0e,19,Mężczyzna,2022-06-04_09h56.48.075,task,2021.1.4,Win32,240.3846154,628b806c463b948bc644b84f,629b1024a514ffa4e38e4f49,,,,,,,,,,,,,,,,,,,,,,,,,,,,,,,,,,,,,,,,,,,,,,,,,,,,,,,,,,,,,,,,,,,,,,,,,,,,,,,,,,,,,,,,,,,,,,,,,,,,,,,
,,"[""comma""]",0,[0.5010000000000048],18,0,18,0,1,5fb3fcb82df261033a5f6e0e,19,Mężczyzna,2022-06-04_09h56.48.075,task,2021.1.4,Win32,240.3846154,628b806c463b948bc644b84f,629b1024a514ffa4e38e4f49,,,,,,,,,,,,,,,,,,,,,,,,,,,,,,,,,,,,,,,,,,,,,,,,,,,,,,,,,,,,,,,,,,,,,,,,,,,,,,,,,,,,,,,,,,,,,,,,,,,,,,,
,,"[""comma""]",0,[0.710000000000008],19,0,19,0,1,5fb3fcb82df261033a5f6e0e,19,Mężczyzna,2022-06-04_09h56.48.075,task,2021.1.4,Win32,240.3846154,628b806c463b948bc644b84f,629b1024a514ffa4e38e4f49,,,,,,,,,,,,,,,,,,,,,,,,,,,,,,,,,,,,,,,,,,,,,,,,,,,,,,,,,,,,,,,,,,,,,,,,,,,,,,,,,,,,,,,,,,,,,,,,,,,,,,,
,,"[""comma""]",0,[0.7189999999999941],20,0,20,0,1,5fb3fcb82df261033a5f6e0e,19,Mężczyzna,2022-06-04_09h56.48.075,task,2021.1.4,Win32,240.3846154,628b806c463b948bc644b84f,629b1024a514ffa4e38e4f49,,,,,,,,,,,,,,,,,,,,,,,,,,,,,,,,,,,,,,,,,,,,,,,,,,,,,,,,,,,,,,,,,,,,,,,,,,,,,,,,,,,,,,,,,,,,,,,,,,,,,,,
,,"[""period""]",0,[0.4730000000000132],21,0,21,0,1,5fb3fcb82df261033a5f6e0e,19,Mężczyzna,2022-06-04_09h56.48.075,task,2021.1.4,Win32,240.3846154,628b806c463b948bc644b84f,629b1024a514ffa4e38e4f49,,,,,,,,,,,,,,,,,,,,,,,,,,,,,,,,,,,,,,,,,,,,,,,,,,,,,,,,,,,,,,,,,,,,,,,,,,,,,,,,,,,,,,,,,,,,,,,,,,,,,,,
,,"[""comma""]",0,[0.4650000000000034],22,0,22,0,1,5fb3fcb82df261033a5f6e0e,19,Mężczyzna,2022-06-04_09h56.48.075,task,2021.1.4,Win32,240.3846154,628b806c463b948bc644b84f,629b1024a514ffa4e38e4f49,,,,,,,,,,,,,,,,,,,,,,,,,,,,,,,,,,,,,,,,,,,,,,,,,,,,,,,,,,,,,,,,,,,,,,,,,,,,,,,,,,,,,,,,,,,,,,,,,,,,,,,
,,"[""comma""]",0,[0.5290000000000248],23,0,23,0,1,5fb3fcb82df261033a5f6e0e,19,Mężczyzna,2022-06-04_09h56.48.075,task,2021.1.4,Win32,240.3846154,628b806c463b948bc644b84f,629b1024a514ffa4e38e4f49,,,,,,,,,,,,,,,,,,,,,,,,,,,,,,,,,,,,,,,,,,,,,,,,,,,,,,,,,,,,,,,,,,,,,,,,,,,,,,,,,,,,,,,,,,,,,,,,,,,,,,,
,,"[""period""]",0,[0.48100000000002296],24,0,24,0,1,5fb3fcb82df261033a5f6e0e,19,Mężczyzna,2022-06-04_09h56.48.075,task,2021.1.4,Win32,240.3846154,628b806c463b948bc644b84f,629b1024a514ffa4e38e4f49,,,,,,,,,,,,,,,,,,,,,,,,,,,,,,,,,,,,,,,,,,,,,,,,,,,,,,,,,,,,,,,,,,,,,,,,,,,,,,,,,,,,,,,,,,,,,,,,,,,,,,,
,,"[""comma""]",0,[0.561000000000007],25,0,25,0,1,5fb3fcb82df261033a5f6e0e,19,Mężczyzna,2022-06-04_09h56.48.075,task,2021.1.4,Win32,240.3846154,628b806c463b948bc644b84f,629b1024a514ffa4e38e4f49,,,,,,,,,,,,,,,,,,,,,,,,,,,,,,,,,,,,,,,,,,,,,,,,,,,,,,,,,,,,,,,,,,,,,,,,,,,,,,,,,,,,,,,,,,,,,,,,,,,,,,,
,,"[""period""]",0,[0.4899999999999807],26,0,26,0,1,5fb3fcb82df261033a5f6e0e,19,Mężczyzna,2022-06-04_09h56.48.075,task,2021.1.4,Win32,240.3846154,628b806c463b948bc644b84f,629b1024a514ffa4e38e4f49,,,,,,,,,,,,,,,,,,,,,,,,,,,,,,,,,,,,,,,,,,,,,,,,,,,,,,,,,,,,,,,,,,,,,,,,,,,,,,,,,,,,,,,,,,,,,,,,,,,,,,,
,,"[""comma""]",0,[0.4689999999999941],27,0,27,0,1,5fb3fcb82df261033a5f6e0e,19,Mężczyzna,2022-06-04_09h56.48.075,task,2021.1.4,Win32,240.3846154,628b806c463b948bc644b84f,629b1024a514ffa4e38e4f49,,,,,,,,,,,,,,,,,,,,,,,,,,,,,,,,,,,,,,,,,,,,,,,,,,,,,,,,,,,,,,,,,,,,,,,,,,,,,,,,,,,,,,,,,,,,,,,,,,,,,,,
,,"[""comma""]",0,[0.48399999999998045],28,0,28,0,1,5fb3fcb82df261033a5f6e0e,19,Mężczyzna,2022-06-04_09h56.48.075,task,2021.1.4,Win32,240.3846154,628b806c463b948bc644b84f,629b1024a514ffa4e38e4f49,,,,,,,,,,,,,,,,,,,,,,,,,,,,,,,,,,,,,,,,,,,,,,,,,,,,,,,,,,,,,,,,,,,,,,,,,,,,,,,,,,,,,,,,,,,,,,,,,,,,,,,
,,"[""period""]",0,[0.5310000000000059],29,0,29,0,1,5fb3fcb82df261033a5f6e0e,19,Mężczyzna,2022-06-04_09h56.48.075,task,2021.1.4,Win32,240.3846154,628b806c463b948bc644b84f,629b1024a514ffa4e38e4f49,,,,,,,,,,,,,,,,,,,,,,,,,,,,,,,,,,,,,,,,,,,,,,,,,,,,,,,,,,,,,,,,,,,,,,,,,,,,,,,,,,,,,,,,,,,,,,,,,,,,,,,
,,"[""period""]",0,[0.3720000000000141],30,0,30,0,1,5fb3fcb82df261033a5f6e0e,19,Mężczyzna,2022-06-04_09h56.48.075,task,2021.1.4,Win32,240.3846154,628b806c463b948bc644b84f,629b1024a514ffa4e38e4f49,,,,,,,,,,,,,,,,,,,,,,,,,,,,,,,,,,,,,,,,,,,,,,,,,,,,,,,,,,,,,,,,,,,,,,,,,,,,,,,,,,,,,,,,,,,,,,,,,,,,,,,
,,"[""period""]",0,[0.3499999999999943],31,0,31,0,1,5fb3fcb82df261033a5f6e0e,19,Mężczyzna,2022-06-04_09h56.48.075,task,2021.1.4,Win32,240.3846154,628b806c463b948bc644b84f,629b1024a514ffa4e38e4f49,,,,,,,,,,,,,,,,,,,,,,,,,,,,,,,,,,,,,,,,,,,,,,,,,,,,,,,,,,,,,,,,,,,,,,,,,,,,,,,,,,,,,,,,,,,,,,,,,,,,,,,
,,"[""comma""]",0,[0.28600000000000136],32,0,32,0,1,5fb3fcb82df261033a5f6e0e,19,Mężczyzna,2022-06-04_09h56.48.075,task,2021.1.4,Win32,240.3846154,628b806c463b948bc644b84f,629b1024a514ffa4e38e4f49,,,,,,,,,,,,,,,,,,,,,,,,,,,,,,,,,,,,,,,,,,,,,,,,,,,,,,,,,,,,,,,,,,,,,,,,,,,,,,,,,,,,,,,,,,,,,,,,,,,,,,,
,,"[""comma""]",0,[0.35900000000000887],33,0,33,0,1,5fb3fcb82df261033a5f6e0e,19,Mężczyzna,2022-06-04_09h56.48.075,task,2021.1.4,Win32,240.3846154,628b806c463b948bc644b84f,629b1024a514ffa4e38e4f49,,,,,,,,,,,,,,,,,,,,,,,,,,,,,,,,,,,,,,,,,,,,,,,,,,,,,,,,,,,,,,,,,,,,,,,,,,,,,,,,,,,,,,,,,,,,,,,,,,,,,,,
,,"[""comma""]",0,[0.3680000000000234],34,0,34,0,1,5fb3fcb82df261033a5f6e0e,19,Mężczyzna,2022-06-04_09h56.48.075,task,2021.1.4,Win32,240.3846154,628b806c463b948bc644b84f,629b1024a514ffa4e38e4f49,,,,,,,,,,,,,,,,,,,,,,,,,,,,,,,,,,,,,,,,,,,,,,,,,,,,,,,,,,,,,,,,,,,,,,,,,,,,,,,,,,,,,,,,,,,,,,,,,,,,,,,
,,"[""comma""]",0,[0.3930000000000007],35,0,35,0,1,5fb3fcb82df261033a5f6e0e,19,Mężczyzna,2022-06-04_09h56.48.075,task,2021.1.4,Win32,240.3846154,628b806c463b948bc644b84f,629b1024a514ffa4e38e4f49,,,,,,,,,,,,,,,,,,,,,,,,,,,,,,,,,,,,,,,,,,,,,,,,,,,,,,,,,,,,,,,,,,,,,,,,,,,,,,,,,,,,,,,,,,,,,,,,,,,,,,,
,,"[""period""]",0,[0.24799999999999045],36,0,36,0,1,5fb3fcb82df261033a5f6e0e,19,Mężczyzna,2022-06-04_09h56.48.075,task,2021.1.4,Win32,240.3846154,628b806c463b948bc644b84f,629b1024a514ffa4e38e4f49,,,,,,,,,,,,,,,,,,,,,,,,,,,,,,,,,,,,,,,,,,,,,,,,,,,,,,,,,,,,,,,,,,,,,,,,,,,,,,,,,,,,,,,,,,,,,,,,,,,,,,,
,,"[""period""]",0,[0.39400000000000546],37,0,37,0,1,5fb3fcb82df261033a5f6e0e,19,Mężczyzna,2022-06-04_09h56.48.075,task,2021.1.4,Win32,240.3846154,628b806c463b948bc644b84f,629b1024a514ffa4e38e4f49,,,,,,,,,,,,,,,,,,,,,,,,,,,,,,,,,,,,,,,,,,,,,,,,,,,,,,,,,,,,,,,,,,,,,,,,,,,,,,,,,,,,,,,,,,,,,,,,,,,,,,,
,,"[""comma""]",0,[0.27299999999999613],38,0,38,0,1,5fb3fcb82df261033a5f6e0e,19,Mężczyzna,2022-06-04_09h56.48.075,task,2021.1.4,Win32,240.3846154,628b806c463b948bc644b84f,629b1024a514ffa4e38e4f49,,,,,,,,,,,,,,,,,,,,,,,,,,,,,,,,,,,,,,,,,,,,,,,,,,,,,,,,,,,,,,,,,,,,,,,,,,,,,,,,,,,,,,,,,,,,,,,,,,,,,,,
,,"[""period""]",0,[0.23500000000001364],39,0,39,0,1,5fb3fcb82df261033a5f6e0e,19,Mężczyzna,2022-06-04_09h56.48.075,task,2021.1.4,Win32,240.3846154,628b806c463b948bc644b84f,629b1024a514ffa4e38e4f49,,,,,,,,,,,,,,,,,,,,,,,,,,,,,,,,,,,,,,,,,,,,,,,,,,,,,,,,,,,,,,,,,,,,,,,,,,,,,,,,,,,,,,,,,,,,,,,,,,,,,,,
,,"[""comma""]",0,[0.2510000000000048],40,0,40,0,1,5fb3fcb82df261033a5f6e0e,19,Mężczyzna,2022-06-04_09h56.48.075,task,2021.1.4,Win32,240.3846154,628b806c463b948bc644b84f,629b1024a514ffa4e38e4f49,,,,,,,,,,,,,,,,,,,,,,,,,,,,,,,,,,,,,,,,,,,,,,,,,,,,,,,,,,,,,,,,,,,,,,,,,,,,,,,,,,,,,,,,,,,,,,,,,,,,,,,
,,"[""comma""]",0,[0.24399999999999977],41,0,41,0,1,5fb3fcb82df261033a5f6e0e,19,Mężczyzna,2022-06-04_09h56.48.075,task,2021.1.4,Win32,240.3846154,628b806c463b948bc644b84f,629b1024a514ffa4e38e4f49,,,,,,,,,,,,,,,,,,,,,,,,,,,,,,,,,,,,,,,,,,,,,,,,,,,,,,,,,,,,,,,,,,,,,,,,,,,,,,,,,,,,,,,,,,,,,,,,,,,,,,,
,,"[""comma""]",0,[0.5810000000000173],42,0,42,0,1,5fb3fcb82df261033a5f6e0e,19,Mężczyzna,2022-06-04_09h56.48.075,task,2021.1.4,Win32,240.3846154,628b806c463b948bc644b84f,629b1024a514ffa4e38e4f49,,,,,,,,,,,,,,,,,,,,,,,,,,,,,,,,,,,,,,,,,,,,,,,,,,,,,,,,,,,,,,,,,,,,,,,,,,,,,,,,,,,,,,,,,,,,,,,,,,,,,,,
,,"[""period""]",0,[0.4390000000000214],43,0,43,0,1,5fb3fcb82df261033a5f6e0e,19,Mężczyzna,2022-06-04_09h56.48.075,task,2021.1.4,Win32,240.3846154,628b806c463b948bc644b84f,629b1024a514ffa4e38e4f49,,,,,,,,,,,,,,,,,,,,,,,,,,,,,,,,,,,,,,,,,,,,,,,,,,,,,,,,,,,,,,,,,,,,,,,,,,,,,,,,,,,,,,,,,,,,,,,,,,,,,,,
,,"[""period""]",0,[0.26499999999998636],44,0,44,0,1,5fb3fcb82df261033a5f6e0e,19,Mężczyzna,2022-06-04_09h56.48.075,task,2021.1.4,Win32,240.3846154,628b806c463b948bc644b84f,629b1024a514ffa4e38e4f49,,,,,,,,,,,,,,,,,,,,,,,,,,,,,,,,,,,,,,,,,,,,,,,,,,,,,,,,,,,,,,,,,,,,,,,,,,,,,,,,,,,,,,,,,,,,,,,,,,,,,,,
,,"[""comma"",""period""]",0,"[0.2150000000000034,1.8460000000000036]",45,0,45,0,1,5fb3fcb82df261033a5f6e0e,19,Mężczyzna,2022-06-04_09h56.48.075,task,2021.1.4,Win32,240.3846154,628b806c463b948bc644b84f,629b1024a514ffa4e38e4f49,,,,,,,,,,,,,,,,,,,,,,,,,,,,,,,,,,,,,,,,,,,,,,,,,,,,,,,,,,,,,,,,,,,,,,,,,,,,,,,,,,,,,,,,,,,,,,,,,,,,,,,
,,"[""period""]",0,[0.46399999999999864],46,0,46,0,1,5fb3fcb82df261033a5f6e0e,19,Mężczyzna,2022-06-04_09h56.48.075,task,2021.1.4,Win32,240.3846154,628b806c463b948bc644b84f,629b1024a514ffa4e38e4f49,,,,,,,,,,,,,,,,,,,,,,,,,,,,,,,,,,,,,,,,,,,,,,,,,,,,,,,,,,,,,,,,,,,,,,,,,,,,,,,,,,,,,,,,,,,,,,,,,,,,,,,
,,"[""comma""]",0,[0.6560000000000059],47,0,47,0,1,5fb3fcb82df261033a5f6e0e,19,Mężczyzna,2022-06-04_09h56.48.075,task,2021.1.4,Win32,240.3846154,628b806c463b948bc644b84f,629b1024a514ffa4e38e4f49,,,,,,,,,,,,,,,,,,,,,,,,,,,,,,,,,,,,,,,,,,,,,,,,,,,,,,,,,,,,,,,,,,,,,,,,,,,,,,,,,,,,,,,,,,,,,,,,,,,,,,,
,,"[""comma""]",0,[0.7360000000000184],48,0,48,0,1,5fb3fcb82df261033a5f6e0e,19,Mężczyzna,2022-06-04_09h56.48.075,task,2021.1.4,Win32,240.3846154,628b806c463b948bc644b84f,629b1024a514ffa4e38e4f49,,,,,,,,,,,,,,,,,,,,,,,,,,,,,,,,,,,,,,,,,,,,,,,,,,,,,,,,,,,,,,,,,,,,,,,,,,,,,,,,,,,,,,,,,,,,,,,,,,,,,,,
,,"[""period""]",0,[0.34499999999999886],49,0,49,0,1,5fb3fcb82df261033a5f6e0e,19,Mężczyzna,2022-06-04_09h56.48.075,task,2021.1.4,Win32,240.3846154,628b806c463b948bc644b84f,629b1024a514ffa4e38e4f49,,,,,,,,,,,,,,,,,,,,,,,,,,,,,,,,,,,,,,,,,,,,,,,,,,,,,,,,,,,,,,,,,,,,,,,,,,,,,,,,,,,,,,,,,,,,,,,,,,,,,,,
,,"[""comma""]",0,[0.22700000000000387],50,0,50,0,1,5fb3fcb82df261033a5f6e0e,19,Mężczyzna,2022-06-04_09h56.48.075,task,2021.1.4,Win32,240.3846154,628b806c463b948bc644b84f,629b1024a514ffa4e38e4f49,,,,,,,,,,,,,,,,,,,,,,,,,,,,,,,,,,,,,,,,,,,,,,,,,,,,,,,,,,,,,,,,,,,,,,,,,,,,,,,,,,,,,,,,,,,,,,,,,,,,,,,
,,"[""period""]",0,[0.3050000000000068],51,0,51,0,1,5fb3fcb82df261033a5f6e0e,19,Mężczyzna,2022-06-04_09h56.48.075,task,2021.1.4,Win32,240.3846154,628b806c463b948bc644b84f,629b1024a514ffa4e38e4f49,,,,,,,,,,,,,,,,,,,,,,,,,,,,,,,,,,,,,,,,,,,,,,,,,,,,,,,,,,,,,,,,,,,,,,,,,,,,,,,,,,,,,,,,,,,,,,,,,,,,,,,
,,"[""period"",""period""]",0,"[0.21800000000001774,1.9780000000000086]",52,0,52,0,1,5fb3fcb82df261033a5f6e0e,19,Mężczyzna,2022-06-04_09h56.48.075,task,2021.1.4,Win32,240.3846154,628b806c463b948bc644b84f,629b1024a514ffa4e38e4f49,,,,,,,,,,,,,,,,,,,,,,,,,,,,,,,,,,,,,,,,,,,,,,,,,,,,,,,,,,,,,,,,,,,,,,,,,,,,,,,,,,,,,,,,,,,,,,,,,,,,,,,
,,"[""comma""]",0,[1.9470000000000027],53,0,53,0,1,5fb3fcb82df261033a5f6e0e,19,Mężczyzna,2022-06-04_09h56.48.075,task,2021.1.4,Win32,240.3846154,628b806c463b948bc644b84f,629b1024a514ffa4e38e4f49,,,,,,,,,,,,,,,,,,,,,,,,,,,,,,,,,,,,,,,,,,,,,,,,,,,,,,,,,,,,,,,,,,,,,,,,,,,,,,,,,,,,,,,,,,,,,,,,,,,,,,,
,,"[""comma""]",0,[1.820999999999998],54,0,54,0,1,5fb3fcb82df261033a5f6e0e,19,Mężczyzna,2022-06-04_09h56.48.075,task,2021.1.4,Win32,240.3846154,628b806c463b948bc644b84f,629b1024a514ffa4e38e4f49,,,,,,,,,,,,,,,,,,,,,,,,,,,,,,,,,,,,,,,,,,,,,,,,,,,,,,,,,,,,,,,,,,,,,,,,,,,,,,,,,,,,,,,,,,,,,,,,,,,,,,,
,,"[""period""]",0,[1.3400000000000034],55,0,55,0,1,5fb3fcb82df261033a5f6e0e,19,Mężczyzna,2022-06-04_09h56.48.075,task,2021.1.4,Win32,240.3846154,628b806c463b948bc644b84f,629b1024a514ffa4e38e4f49,,,,,,,,,,,,,,,,,,,,,,,,,,,,,,,,,,,,,,,,,,,,,,,,,,,,,,,,,,,,,,,,,,,,,,,,,,,,,,,,,,,,,,,,,,,,,,,,,,,,,,,
,,"[""comma""]",0,[1.6529999999999916],56,0,56,0,1,5fb3fcb82df261033a5f6e0e,19,Mężczyzna,2022-06-04_09h56.48.075,task,2021.1.4,Win32,240.3846154,628b806c463b948bc644b84f,629b1024a514ffa4e38e4f49,,,,,,,,,,,,,,,,,,,,,,,,,,,,,,,,,,,,,,,,,,,,,,,,,,,,,,,,,,,,,,,,,,,,,,,,,,,,,,,,,,,,,,,,,,,,,,,,,,,,,,,
,,"[""period""]",0,[1.6129999999999995],57,0,57,0,1,5fb3fcb82df261033a5f6e0e,19,Mężczyzna,2022-06-04_09h56.48.075,task,2021.1.4,Win32,240.3846154,628b806c463b948bc644b84f,629b1024a514ffa4e38e4f49,,,,,,,,,,,,,,,,,,,,,,,,,,,,,,,,,,,,,,,,,,,,,,,,,,,,,,,,,,,,,,,,,,,,,,,,,,,,,,,,,,,,,,,,,,,,,,,,,,,,,,,
,,"[""comma""]",0,[1.4699999999999989],58,0,58,0,1,5fb3fcb82df261033a5f6e0e,19,Mężczyzna,2022-06-04_09h56.48.075,task,2021.1.4,Win32,240.3846154,628b806c463b948bc644b84f,629b1024a514ffa4e38e4f49,,,,,,,,,,,,,,,,,,,,,,,,,,,,,,,,,,,,,,,,,,,,,,,,,,,,,,,,,,,,,,,,,,,,,,,,,,,,,,,,,,,,,,,,,,,,,,,,,,,,,,,
,,"[""period""]",0,[1.2580000000000098],59,0,59,0,1,5fb3fcb82df261033a5f6e0e,19,Mężczyzna,2022-06-04_09h56.48.075,task,2021.1.4,Win32,240.3846154,628b806c463b948bc644b84f,629b1024a514ffa4e38e4f49,,,,,,,,,,,,,,,,,,,,,,,,,,,,,,,,,,,,,,,,,,,,,,,,,,,,,,,,,,,,,,,,,,,,,,,,,,,,,,,,,,,,,,,,,,,,,,,,,,,,,,,
,,"[""period""]",0,[1.2870000000000061],60,0,60,0,1,5fb3fcb82df261033a5f6e0e,19,Mężczyzna,2022-06-04_09h56.48.075,task,2021.1.4,Win32,240.3846154,628b806c463b948bc644b84f,629b1024a514ffa4e38e4f49,,,,,,,,,,,,,,,,,,,,,,,,,,,,,,,,,,,,,,,,,,,,,,,,,,,,,,,,,,,,,,,,,,,,,,,,,,,,,,,,,,,,,,,,,,,,,,,,,,,,,,,
,,"[""comma""]",0,[1.2319999999999993],61,0,61,0,1,5fb3fcb82df261033a5f6e0e,19,Mężczyzna,2022-06-04_09h56.48.075,task,2021.1.4,Win32,240.3846154,628b806c463b948bc644b84f,629b1024a514ffa4e38e4f49,,,,,,,,,,,,,,,,,,,,,,,,,,,,,,,,,,,,,,,,,,,,,,,,,,,,,,,,,,,,,,,,,,,,,,,,,,,,,,,,,,,,,,,,,,,,,,,,,,,,,,,
,,"[""period""]",0,[0.9529999999999745],62,0,62,0,1,5fb3fcb82df261033a5f6e0e,19,Mężczyzna,2022-06-04_09h56.48.075,task,2021.1.4,Win32,240.3846154,628b806c463b948bc644b84f,629b1024a514ffa4e38e4f49,,,,,,,,,,,,,,,,,,,,,,,,,,,,,,,,,,,,,,,,,,,,,,,,,,,,,,,,,,,,,,,,,,,,,,,,,,,,,,,,,,,,,,,,,,,,,,,,,,,,,,,
,,"[""period""]",0,[0.8649999999999807],63,0,63,0,1,5fb3fcb82df261033a5f6e0e,19,Mężczyzna,2022-06-04_09h56.48.075,task,2021.1.4,Win32,240.3846154,628b806c463b948bc644b84f,629b1024a514ffa4e38e4f49,,,,,,,,,,,,,,,,,,,,,,,,,,,,,,,,,,,,,,,,,,,,,,,,,,,,,,,,,,,,,,,,,,,,,,,,,,,,,,,,,,,,,,,,,,,,,,,,,,,,,,,
,,"[""comma""]",0,[0.9070000000000391],64,0,64,0,1,5fb3fcb82df261033a5f6e0e,19,Mężczyzna,2022-06-04_09h56.48.075,task,2021.1.4,Win32,240.3846154,628b806c463b948bc644b84f,629b1024a514ffa4e38e4f49,,,,,,,,,,,,,,,,,,,,,,,,,,,,,,,,,,,,,,,,,,,,,,,,,,,,,,,,,,,,,,,,,,,,,,,,,,,,,,,,,,,,,,,,,,,,,,,,,,,,,,,
,,"[""comma""]",0,[0.8360000000000127],65,0,65,0,1,5fb3fcb82df261033a5f6e0e,19,Mężczyzna,2022-06-04_09h56.48.075,task,2021.1.4,Win32,240.3846154,628b806c463b948bc644b84f,629b1024a514ffa4e38e4f49,,,,,,,,,,,,,,,,,,,,,,,,,,,,,,,,,,,,,,,,,,,,,,,,,,,,,,,,,,,,,,,,,,,,,,,,,,,,,,,,,,,,,,,,,,,,,,,,,,,,,,,
,,"[""period""]",0,[0.5539999999999736],66,0,66,0,1,5fb3fcb82df261033a5f6e0e,19,Mężczyzna,2022-06-04_09h56.48.075,task,2021.1.4,Win32,240.3846154,628b806c463b948bc644b84f,629b1024a514ffa4e38e4f49,,,,,,,,,,,,,,,,,,,,,,,,,,,,,,,,,,,,,,,,,,,,,,,,,,,,,,,,,,,,,,,,,,,,,,,,,,,,,,,,,,,,,,,,,,,,,,,,,,,,,,,
,,"[""comma""]",0,[0.5559999999999832],67,0,67,0,1,5fb3fcb82df261033a5f6e0e,19,Mężczyzna,2022-06-04_09h56.48.075,task,2021.1.4,Win32,240.3846154,628b806c463b948bc644b84f,629b1024a514ffa4e38e4f49,,,,,,,,,,,,,,,,,,,,,,,,,,,,,,,,,,,,,,,,,,,,,,,,,,,,,,,,,,,,,,,,,,,,,,,,,,,,,,,,,,,,,,,,,,,,,,,,,,,,,,,
,,"[""period""]",0,[0.38100000000002865],68,0,68,0,1,5fb3fcb82df261033a5f6e0e,19,Mężczyzna,2022-06-04_09h56.48.075,task,2021.1.4,Win32,240.3846154,628b806c463b948bc644b84f,629b1024a514ffa4e38e4f49,,,,,,,,,,,,,,,,,,,,,,,,,,,,,,,,,,,,,,,,,,,,,,,,,,,,,,,,,,,,,,,,,,,,,,,,,,,,,,,,,,,,,,,,,,,,,,,,,,,,,,,
,,"[""comma""]",0,[0.5430000000000064],69,0,69,0,1,5fb3fcb82df261033a5f6e0e,19,Mężczyzna,2022-06-04_09h56.48.075,task,2021.1.4,Win32,240.3846154,628b806c463b948bc644b84f,629b1024a514ffa4e38e4f49,,,,,,,,,,,,,,,,,,,,,,,,,,,,,,,,,,,,,,,,,,,,,,,,,,,,,,,,,,,,,,,,,,,,,,,,,,,,,,,,,,,,,,,,,,,,,,,,,,,,,,,
,,"[""period""]",0,[0.5979999999999563],70,0,70,0,1,5fb3fcb82df261033a5f6e0e,19,Mężczyzna,2022-06-04_09h56.48.075,task,2021.1.4,Win32,240.3846154,628b806c463b948bc644b84f,629b1024a514ffa4e38e4f49,,,,,,,,,,,,,,,,,,,,,,,,,,,,,,,,,,,,,,,,,,,,,,,,,,,,,,,,,,,,,,,,,,,,,,,,,,,,,,,,,,,,,,,,,,,,,,,,,,,,,,,
,,"[""comma""]",0,[0.7820000000000391],71,0,71,0,1,5fb3fcb82df261033a5f6e0e,19,Mężczyzna,2022-06-04_09h56.48.075,task,2021.1.4,Win32,240.3846154,628b806c463b948bc644b84f,629b1024a514ffa4e38e4f49,,,,,,,,,,,,,,,,,,,,,,,,,,,,,,,,,,,,,,,,,,,,,,,,,,,,,,,,,,,,,,,,,,,,,,,,,,,,,,,,,,,,,,,,,,,,,,,,,,,,,,,
,,"[""period""]",0,[0.8310000000000173],72,0,72,0,1,5fb3fcb82df261033a5f6e0e,19,Mężczyzna,2022-06-04_09h56.48.075,task,2021.1.4,Win32,240.3846154,628b806c463b948bc644b84f,629b1024a514ffa4e38e4f49,,,,,,,,,,,,,,,,,,,,,,,,,,,,,,,,,,,,,,,,,,,,,,,,,,,,,,,,,,,,,,,,,,,,,,,,,,,,,,,,,,,,,,,,,,,,,,,,,,,,,,,
,,"[""period""]",0,[0.9529999999999745],73,0,73,0,1,5fb3fcb82df261033a5f6e0e,19,Mężczyzna,2022-06-04_09h56.48.075,task,2021.1.4,Win32,240.3846154,628b806c463b948bc644b84f,629b1024a514ffa4e38e4f49,,,,,,,,,,,,,,,,,,,,,,,,,,,,,,,,,,,,,,,,,,,,,,,,,,,,,,,,,,,,,,,,,,,,,,,,,,,,,,,,,,,,,,,,,,,,,,,,,,,,,,,
,,"[""comma""]",0,[0.7520000000000095],74,0,74,0,1,5fb3fcb82df261033a5f6e0e,19,Mężczyzna,2022-06-04_09h56.48.075,task,2021.1.4,Win32,240.3846154,628b806c463b948bc644b84f,629b1024a514ffa4e38e4f49,,,,,,,,,,,,,,,,,,,,,,,,,,,,,,,,,,,,,,,,,,,,,,,,,,,,,,,,,,,,,,,,,,,,,,,,,,,,,,,,,,,,,,,,,,,,,,,,,,,,,,,
,,"[""comma""]",0,[0.7860000000000014],75,0,75,0,1,5fb3fcb82df261033a5f6e0e,19,Mężczyzna,2022-06-04_09h56.48.075,task,2021.1.4,Win32,240.3846154,628b806c463b948bc644b84f,629b1024a514ffa4e38e4f49,,,,,,,,,,,,,,,,,,,,,,,,,,,,,,,,,,,,,,,,,,,,,,,,,,,,,,,,,,,,,,,,,,,,,,,,,,,,,,,,,,,,,,,,,,,,,,,,,,,,,,,
,,"[""comma""]",0,[0.7160000000000082],76,0,76,0,1,5fb3fcb82df261033a5f6e0e,19,Mężczyzna,2022-06-04_09h56.48.075,task,2021.1.4,Win32,240.3846154,628b806c463b948bc644b84f,629b1024a514ffa4e38e4f49,,,,,,,,,,,,,,,,,,,,,,,,,,,,,,,,,,,,,,,,,,,,,,,,,,,,,,,,,,,,,,,,,,,,,,,,,,,,,,,,,,,,,,,,,,,,,,,,,,,,,,,
,,"[""period""]",0,[0.46800000000001774],77,0,77,0,1,5fb3fcb82df261033a5f6e0e,19,Mężczyzna,2022-06-04_09h56.48.075,task,2021.1.4,Win32,240.3846154,628b806c463b948bc644b84f,629b1024a514ffa4e38e4f49,,,,,,,,,,,,,,,,,,,,,,,,,,,,,,,,,,,,,,,,,,,,,,,,,,,,,,,,,,,,,,,,,,,,,,,,,,,,,,,,,,,,,,,,,,,,,,,,,,,,,,,
,,"[""period""]",0,[0.37199999999995725],78,0,78,0,1,5fb3fcb82df261033a5f6e0e,19,Mężczyzna,2022-06-04_09h56.48.075,task,2021.1.4,Win32,240.3846154,628b806c463b948bc644b84f,629b1024a514ffa4e38e4f49,,,,,,,,,,,,,,,,,,,,,,,,,,,,,,,,,,,,,,,,,,,,,,,,,,,,,,,,,,,,,,,,,,,,,,,,,,,,,,,,,,,,,,,,,,,,,,,,,,,,,,,
,,"[""period""]",0,[0.35499999999996135],79,0,79,0,1,5fb3fcb82df261033a5f6e0e,19,Mężczyzna,2022-06-04_09h56.48.075,task,2021.1.4,Win32,240.3846154,628b806c463b948bc644b84f,629b1024a514ffa4e38e4f49,,,,,,,,,,,,,,,,,,,,,,,,,,,,,,,,,,,,,,,,,,,,,,,,,,,,,,,,,,,,,,,,,,,,,,,,,,,,,,,,,,,,,,,,,,,,,,,,,,,,,,,
,,"[""comma""]",0,[0.46800000000001774],80,0,80,0,1,5fb3fcb82df261033a5f6e0e,19,Mężczyzna,2022-06-04_09h56.48.075,task,2021.1.4,Win32,240.3846154,628b806c463b948bc644b84f,629b1024a514ffa4e38e4f49,,,,,,,,,,,,,,,,,,,,,,,,,,,,,,,,,,,,,,,,,,,,,,,,,,,,,,,,,,,,,,,,,,,,,,,,,,,,,,,,,,,,,,,,,,,,,,,,,,,,,,,
,,"[""period""]",0,[0.26900000000000546],81,0,81,0,1,5fb3fcb82df261033a5f6e0e,19,Mężczyzna,2022-06-04_09h56.48.075,task,2021.1.4,Win32,240.3846154,628b806c463b948bc644b84f,629b1024a514ffa4e38e4f49,,,,,,,,,,,,,,,,,,,,,,,,,,,,,,,,,,,,,,,,,,,,,,,,,,,,,,,,,,,,,,,,,,,,,,,,,,,,,,,,,,,,,,,,,,,,,,,,,,,,,,,
,,"[""comma""]",0,[0.26900000000000546],82,0,82,0,1,5fb3fcb82df261033a5f6e0e,19,Mężczyzna,2022-06-04_09h56.48.075,task,2021.1.4,Win32,240.3846154,628b806c463b948bc644b84f,629b1024a514ffa4e38e4f49,,,,,,,,,,,,,,,,,,,,,,,,,,,,,,,,,,,,,,,,,,,,,,,,,,,,,,,,,,,,,,,,,,,,,,,,,,,,,,,,,,,,,,,,,,,,,,,,,,,,,,,
,,"[""period""]",0,[0.38999999999998636],83,0,83,0,1,5fb3fcb82df261033a5f6e0e,19,Mężczyzna,2022-06-04_09h56.48.075,task,2021.1.4,Win32,240.3846154,628b806c463b948bc644b84f,629b1024a514ffa4e38e4f49,,,,,,,,,,,,,,,,,,,,,,,,,,,,,,,,,,,,,,,,,,,,,,,,,,,,,,,,,,,,,,,,,,,,,,,,,,,,,,,,,,,,,,,,,,,,,,,,,,,,,,,
,,"[""period""]",0,[0.5029999999999859],84,0,84,0,1,5fb3fcb82df261033a5f6e0e,19,Mężczyzna,2022-06-04_09h56.48.075,task,2021.1.4,Win32,240.3846154,628b806c463b948bc644b84f,629b1024a514ffa4e38e4f49,,,,,,,,,,,,,,,,,,,,,,,,,,,,,,,,,,,,,,,,,,,,,,,,,,,,,,,,,,,,,,,,,,,,,,,,,,,,,,,,,,,,,,,,,,,,,,,,,,,,,,,
,,"[""comma""]",0,[0.5520000000000209],85,0,85,0,1,5fb3fcb82df261033a5f6e0e,19,Mężczyzna,2022-06-04_09h56.48.075,task,2021.1.4,Win32,240.3846154,628b806c463b948bc644b84f,629b1024a514ffa4e38e4f49,,,,,,,,,,,,,,,,,,,,,,,,,,,,,,,,,,,,,,,,,,,,,,,,,,,,,,,,,,,,,,,,,,,,,,,,,,,,,,,,,,,,,,,,,,,,,,,,,,,,,,,
,,"[""comma""]",0,[0.3059999999999832],86,0,86,0,1,5fb3fcb82df261033a5f6e0e,19,Mężczyzna,2022-06-04_09h56.48.075,task,2021.1.4,Win32,240.3846154,628b806c463b948bc644b84f,629b1024a514ffa4e38e4f49,,,,,,,,,,,,,,,,,,,,,,,,,,,,,,,,,,,,,,,,,,,,,,,,,,,,,,,,,,,,,,,,,,,,,,,,,,,,,,,,,,,,,,,,,,,,,,,,,,,,,,,
,,"[""comma""]",0,[0.7059999999999604],87,0,87,0,1,5fb3fcb82df261033a5f6e0e,19,Mężczyzna,2022-06-04_09h56.48.075,task,2021.1.4,Win32,240.3846154,628b806c463b948bc644b84f,629b1024a514ffa4e38e4f49,,,,,,,,,,,,,,,,,,,,,,,,,,,,,,,,,,,,,,,,,,,,,,,,,,,,,,,,,,,,,,,,,,,,,,,,,,,,,,,,,,,,,,,,,,,,,,,,,,,,,,,
,,"[""comma""]",0,[0.7320000000000277],88,0,88,0,1,5fb3fcb82df261033a5f6e0e,19,Mężczyzna,2022-06-04_09h56.48.075,task,2021.1.4,Win32,240.3846154,628b806c463b948bc644b84f,629b1024a514ffa4e38e4f49,,,,,,,,,,,,,,,,,,,,,,,,,,,,,,,,,,,,,,,,,,,,,,,,,,,,,,,,,,,,,,,,,,,,,,,,,,,,,,,,,,,,,,,,,,,,,,,,,,,,,,,
,,"[""comma""]",0,[0.7139999999999986],89,0,89,0,1,5fb3fcb82df261033a5f6e0e,19,Mężczyzna,2022-06-04_09h56.48.075,task,2021.1.4,Win32,240.3846154,628b806c463b948bc644b84f,629b1024a514ffa4e38e4f49,,,,,,,,,,,,,,,,,,,,,,,,,,,,,,,,,,,,,,,,,,,,,,,,,,,,,,,,,,,,,,,,,,,,,,,,,,,,,,,,,,,,,,,,,,,,,,,,,,,,,,,
,,"[""period""]",0,[0.37199999999995725],90,0,90,0,1,5fb3fcb82df261033a5f6e0e,19,Mężczyzna,2022-06-04_09h56.48.075,task,2021.1.4,Win32,240.3846154,628b806c463b948bc644b84f,629b1024a514ffa4e38e4f49,,,,,,,,,,,,,,,,,,,,,,,,,,,,,,,,,,,,,,,,,,,,,,,,,,,,,,,,,,,,,,,,,,,,,,,,,,,,,,,,,,,,,,,,,,,,,,,,,,,,,,,
,,"[""comma""]",0,[0.4350000000000023],91,0,91,0,1,5fb3fcb82df261033a5f6e0e,19,Mężczyzna,2022-06-04_09h56.48.075,task,2021.1.4,Win32,240.3846154,628b806c463b948bc644b84f,629b1024a514ffa4e38e4f49,,,,,,,,,,,,,,,,,,,,,,,,,,,,,,,,,,,,,,,,,,,,,,,,,,,,,,,,,,,,,,,,,,,,,,,,,,,,,,,,,,,,,,,,,,,,,,,,,,,,,,,
,,"[""period""]",0,[0.3639999999999759],92,0,92,0,1,5fb3fcb82df261033a5f6e0e,19,Mężczyzna,2022-06-04_09h56.48.075,task,2021.1.4,Win32,240.3846154,628b806c463b948bc644b84f,629b1024a514ffa4e38e4f49,,,,,,,,,,,,,,,,,,,,,,,,,,,,,,,,,,,,,,,,,,,,,,,,,,,,,,,,,,,,,,,,,,,,,,,,,,,,,,,,,,,,,,,,,,,,,,,,,,,,,,,
,,"[""period""]",0,[0.23599999999999],93,0,93,0,1,5fb3fcb82df261033a5f6e0e,19,Mężczyzna,2022-06-04_09h56.48.075,task,2021.1.4,Win32,240.3846154,628b806c463b948bc644b84f,629b1024a514ffa4e38e4f49,,,,,,,,,,,,,,,,,,,,,,,,,,,,,,,,,,,,,,,,,,,,,,,,,,,,,,,,,,,,,,,,,,,,,,,,,,,,,,,,,,,,,,,,,,,,,,,,,,,,,,,
,,"[""period"",""period""]",0,"[0.3490000000000464,0.8149999999999977]",94,0,94,0,1,5fb3fcb82df261033a5f6e0e,19,Mężczyzna,2022-06-04_09h56.48.075,task,2021.1.4,Win32,240.3846154,628b806c463b948bc644b84f,629b1024a514ffa4e38e4f49,,,,,,,,,,,,,,,,,,,,,,,,,,,,,,,,,,,,,,,,,,,,,,,,,,,,,,,,,,,,,,,,,,,,,,,,,,,,,,,,,,,,,,,,,,,,,,,,,,,,,,,
,,"[""comma""]",0,[0.8149999999999977],95,0,95,0,1,5fb3fcb82df261033a5f6e0e,19,Mężczyzna,2022-06-04_09h56.48.075,task,2021.1.4,Win32,240.3846154,628b806c463b948bc644b84f,629b1024a514ffa4e38e4f49,,,,,,,,,,,,,,,,,,,,,,,,,,,,,,,,,,,,,,,,,,,,,,,,,,,,,,,,,,,,,,,,,,,,,,,,,,,,,,,,,,,,,,,,,,,,,,,,,,,,,,,
,,"[""period""]",0,[0.6059999999999945],96,0,96,0,1,5fb3fcb82df261033a5f6e0e,19,Mężczyzna,2022-06-04_09h56.48.075,task,2021.1.4,Win32,240.3846154,628b806c463b948bc644b84f,629b1024a514ffa4e38e4f49,,,,,,,,,,,,,,,,,,,,,,,,,,,,,,,,,,,,,,,,,,,,,,,,,,,,,,,,,,,,,,,,,,,,,,,,,,,,,,,,,,,,,,,,,,,,,,,,,,,,,,,
,,"[""comma""]",0,[0.39299999999997226],97,0,97,0,1,5fb3fcb82df261033a5f6e0e,19,Mężczyzna,2022-06-04_09h56.48.075,task,2021.1.4,Win32,240.3846154,628b806c463b948bc644b84f,629b1024a514ffa4e38e4f49,,,,,,,,,,,,,,,,,,,,,,,,,,,,,,,,,,,,,,,,,,,,,,,,,,,,,,,,,,,,,,,,,,,,,,,,,,,,,,,,,,,,,,,,,,,,,,,,,,,,,,,
,,"[""comma""]",0,[0.27199999999999136],98,0,98,0,1,5fb3fcb82df261033a5f6e0e,19,Mężczyzna,2022-06-04_09h56.48.075,task,2021.1.4,Win32,240.3846154,628b806c463b948bc644b84f,629b1024a514ffa4e38e4f49,,,,,,,,,,,,,,,,,,,,,,,,,,,,,,,,,,,,,,,,,,,,,,,,,,,,,,,,,,,,,,,,,,,,,,,,,,,,,,,,,,,,,,,,,,,,,,,,,,,,,,,
,,"[""period""]",0,[0.4730000000000132],99,0,99,0,1,5fb3fcb82df261033a5f6e0e,19,Mężczyzna,2022-06-04_09h56.48.075,task,2021.1.4,Win32,240.3846154,628b806c463b948bc644b84f,629b1024a514ffa4e38e4f49,,,,,,,,,,,,,,,,,,,,,,,,,,,,,,,,,,,,,,,,,,,,,,,,,,,,,,,,,,,,,,,,,,,,,,,,,,,,,,,,,,,,,,,,,,,,,,,,,,,,,,,
,,"[""comma""]",0,[0.2810000000000059],100,0,100,0,1,5fb3fcb82df261033a5f6e0e,19,Mężczyzna,2022-06-04_09h56.48.075,task,2021.1.4,Win32,240.3846154,628b806c463b948bc644b84f,629b1024a514ffa4e38e4f49,,,,,,,,,,,,,,,,,,,,,,,,,,,,,,,,,,,,,,,,,,,,,,,,,,,,,,,,,,,,,,,,,,,,,,,,,,,,,,,,,,,,,,,,,,,,,,,,,,,,,,,
,,"[""period""]",0,[0.49799999999999045],101,0,101,0,1,5fb3fcb82df261033a5f6e0e,19,Mężczyzna,2022-06-04_09h56.48.075,task,2021.1.4,Win32,240.3846154,628b806c463b948bc644b84f,629b1024a514ffa4e38e4f49,,,,,,,,,,,,,,,,,,,,,,,,,,,,,,,,,,,,,,,,,,,,,,,,,,,,,,,,,,,,,,,,,,,,,,,,,,,,,,,,,,,,,,,,,,,,,,,,,,,,,,,
,,"[""comma""]",0,[0.45999999999997954],102,0,102,0,1,5fb3fcb82df261033a5f6e0e,19,Mężczyzna,2022-06-04_09h56.48.075,task,2021.1.4,Win32,240.3846154,628b806c463b948bc644b84f,629b1024a514ffa4e38e4f49,,,,,,,,,,,,,,,,,,,,,,,,,,,,,,,,,,,,,,,,,,,,,,,,,,,,,,,,,,,,,,,,,,,,,,,,,,,,,,,,,,,,,,,,,,,,,,,,,,,,,,,
,,"[""comma""]",0,[0.4269999999999641],103,0,103,0,1,5fb3fcb82df261033a5f6e0e,19,Mężczyzna,2022-06-04_09h56.48.075,task,2021.1.4,Win32,240.3846154,628b806c463b948bc644b84f,629b1024a514ffa4e38e4f49,,,,,,,,,,,,,,,,,,,,,,,,,,,,,,,,,,,,,,,,,,,,,,,,,,,,,,,,,,,,,,,,,,,,,,,,,,,,,,,,,,,,,,,,,,,,,,,,,,,,,,,
,,"[""period""]",0,[0.5730000000000359],104,0,104,0,1,5fb3fcb82df261033a5f6e0e,19,Mężczyzna,2022-06-04_09h56.48.075,task,2021.1.4,Win32,240.3846154,628b806c463b948bc644b84f,629b1024a514ffa4e38e4f49,,,,,,,,,,,,,,,,,,,,,,,,,,,,,,,,,,,,,,,,,,,,,,,,,,,,,,,,,,,,,,,,,,,,,,,,,,,,,,,,,,,,,,,,,,,,,,,,,,,,,,,
,,"[""comma""]",0,[0.6689999999999827],105,0,105,0,1,5fb3fcb82df261033a5f6e0e,19,Mężczyzna,2022-06-04_09h56.48.075,task,2021.1.4,Win32,240.3846154,628b806c463b948bc644b84f,629b1024a514ffa4e38e4f49,,,,,,,,,,,,,,,,,,,,,,,,,,,,,,,,,,,,,,,,,,,,,,,,,,,,,,,,,,,,,,,,,,,,,,,,,,,,,,,,,,,,,,,,,,,,,,,,,,,,,,,
,,"[""comma""]",0,[0.6850000000000023],106,0,106,0,1,5fb3fcb82df261033a5f6e0e,19,Mężczyzna,2022-06-04_09h56.48.075,task,2021.1.4,Win32,240.3846154,628b806c463b948bc644b84f,629b1024a514ffa4e38e4f49,,,,,,,,,,,,,,,,,,,,,,,,,,,,,,,,,,,,,,,,,,,,,,,,,,,,,,,,,,,,,,,,,,,,,,,,,,,,,,,,,,,,,,,,,,,,,,,,,,,,,,,
,,"[""comma""]",0,[0.6230000000000473],107,0,107,0,1,5fb3fcb82df261033a5f6e0e,19,Mężczyzna,2022-06-04_09h56.48.075,task,2021.1.4,Win32,240.3846154,628b806c463b948bc644b84f,629b1024a514ffa4e38e4f49,,,,,,,,,,,,,,,,,,,,,,,,,,,,,,,,,,,,,,,,,,,,,,,,,,,,,,,,,,,,,,,,,,,,,,,,,,,,,,,,,,,,,,,,,,,,,,,,,,,,,,,
,,"[""period""]",0,[0.6059999999999945],108,0,108,0,1,5fb3fcb82df261033a5f6e0e,19,Mężczyzna,2022-06-04_09h56.48.075,task,2021.1.4,Win32,240.3846154,628b806c463b948bc644b84f,629b1024a514ffa4e38e4f49,,,,,,,,,,,,,,,,,,,,,,,,,,,,,,,,,,,,,,,,,,,,,,,,,,,,,,,,,,,,,,,,,,,,,,,,,,,,,,,,,,,,,,,,,,,,,,,,,,,,,,,
,,"[""period""]",0,[0.6150000000000091],109,0,109,0,1,5fb3fcb82df261033a5f6e0e,19,Mężczyzna,2022-06-04_09h56.48.075,task,2021.1.4,Win32,240.3846154,628b806c463b948bc644b84f,629b1024a514ffa4e38e4f49,,,,,,,,,,,,,,,,,,,,,,,,,,,,,,,,,,,,,,,,,,,,,,,,,,,,,,,,,,,,,,,,,,,,,,,,,,,,,,,,,,,,,,,,,,,,,,,,,,,,,,,
,,"[""comma""]",0,[0.6599999999999682],110,0,110,0,1,5fb3fcb82df261033a5f6e0e,19,Mężczyzna,2022-06-04_09h56.48.075,task,2021.1.4,Win32,240.3846154,628b806c463b948bc644b84f,629b1024a514ffa4e38e4f49,,,,,,,,,,,,,,,,,,,,,,,,,,,,,,,,,,,,,,,,,,,,,,,,,,,,,,,,,,,,,,,,,,,,,,,,,,,,,,,,,,,,,,,,,,,,,,,,,,,,,,,
,,"[""period""]",0,[0.8649999999999523],111,0,111,0,1,5fb3fcb82df261033a5f6e0e,19,Mężczyzna,2022-06-04_09h56.48.075,task,2021.1.4,Win32,240.3846154,628b806c463b948bc644b84f,629b1024a514ffa4e38e4f49,,,,,,,,,,,,,,,,,,,,,,,,,,,,,,,,,,,,,,,,,,,,,,,,,,,,,,,,,,,,,,,,,,,,,,,,,,,,,,,,,,,,,,,,,,,,,,,,,,,,,,,
,,"[""comma""]",0,[0.7689999999999486],112,0,112,0,1,5fb3fcb82df261033a5f6e0e,19,Mężczyzna,2022-06-04_09h56.48.075,task,2021.1.4,Win32,240.3846154,628b806c463b948bc644b84f,629b1024a514ffa4e38e4f49,,,,,,,,,,,,,,,,,,,,,,,,,,,,,,,,,,,,,,,,,,,,,,,,,,,,,,,,,,,,,,,,,,,,,,,,,,,,,,,,,,,,,,,,,,,,,,,,,,,,,,,
,,"[""comma""]",0,[0.6970000000000027],113,0,113,0,1,5fb3fcb82df261033a5f6e0e,19,Mężczyzna,2022-06-04_09h56.48.075,task,2021.1.4,Win32,240.3846154,628b806c463b948bc644b84f,629b1024a514ffa4e38e4f49,,,,,,,,,,,,,,,,,,,,,,,,,,,,,,,,,,,,,,,,,,,,,,,,,,,,,,,,,,,,,,,,,,,,,,,,,,,,,,,,,,,,,,,,,,,,,,,,,,,,,,,
,,"[""period""]",0,[0.7539999999999623],114,0,114,0,1,5fb3fcb82df261033a5f6e0e,19,Mężczyzna,2022-06-04_09h56.48.075,task,2021.1.4,Win32,240.3846154,628b806c463b948bc644b84f,629b1024a514ffa4e38e4f49,,,,,,,,,,,,,,,,,,,,,,,,,,,,,,,,,,,,,,,,,,,,,,,,,,,,,,,,,,,,,,,,,,,,,,,,,,,,,,,,,,,,,,,,,,,,,,,,,,,,,,,
,,"[""period""]",0,[0.5939999999999941],115,0,115,0,1,5fb3fcb82df261033a5f6e0e,19,Mężczyzna,2022-06-04_09h56.48.075,task,2021.1.4,Win32,240.3846154,628b806c463b948bc644b84f,629b1024a514ffa4e38e4f49,,,,,,,,,,,,,,,,,,,,,,,,,,,,,,,,,,,,,,,,,,,,,,,,,,,,,,,,,,,,,,,,,,,,,,,,,,,,,,,,,,,,,,,,,,,,,,,,,,,,,,,
,,"[""comma""]",0,[0.6770000000000209],116,0,116,0,1,5fb3fcb82df261033a5f6e0e,19,Mężczyzna,2022-06-04_09h56.48.075,task,2021.1.4,Win32,240.3846154,628b806c463b948bc644b84f,629b1024a514ffa4e38e4f49,,,,,,,,,,,,,,,,,,,,,,,,,,,,,,,,,,,,,,,,,,,,,,,,,,,,,,,,,,,,,,,,,,,,,,,,,,,,,,,,,,,,,,,,,,,,,,,,,,,,,,,
,,"[""comma""]",0,[0.589999999999975],117,0,117,0,1,5fb3fcb82df261033a5f6e0e,19,Mężczyzna,2022-06-04_09h56.48.075,task,2021.1.4,Win32,240.3846154,628b806c463b948bc644b84f,629b1024a514ffa4e38e4f49,,,,,,,,,,,,,,,,,,,,,,,,,,,,,,,,,,,,,,,,,,,,,,,,,,,,,,,,,,,,,,,,,,,,,,,,,,,,,,,,,,,,,,,,,,,,,,,,,,,,,,,
,,"[""comma""]",0,[1.021000000000015],118,0,118,0,1,5fb3fcb82df261033a5f6e0e,19,Mężczyzna,2022-06-04_09h56.48.075,task,2021.1.4,Win32,240.3846154,628b806c463b948bc644b84f,629b1024a514ffa4e38e4f49,,,,,,,,,,,,,,,,,,,,,,,,,,,,,,,,,,,,,,,,,,,,,,,,,,,,,,,,,,,,,,,,,,,,,,,,,,,,,,,,,,,,,,,,,,,,,,,,,,,,,,,
,,"[""comma""]",0,[0.8779999999999859],119,0,119,0,1,5fb3fcb82df261033a5f6e0e,19,Mężczyzna,2022-06-04_09h56.48.075,task,2021.1.4,Win32,240.3846154,628b806c463b948bc644b84f,629b1024a514ffa4e38e4f49,,,,,,,,,,,,,,,,,,,,,,,,,,,,,,,,,,,,,,,,,,,,,,,,,,,,,,,,,,,,,,,,,,,,,,,,,,,,,,,,,,,,,,,,,,,,,,,,,,,,,,,
,,,,,,,,,,5fb3fcb82df261033a5f6e0e,19,Mężczyzna,2022-06-04_09h56.48.075,task,2021.1.4,Win32,240.3846154,628b806c463b948bc644b84f,629b1024a514ffa4e38e4f49,space,27.177,space,14.798,0,0,0,0,1,X V Q F H G B L J M P D K C T S W R N Z,,,,,,,,,,,,,,,,,,,,,,,,,,,,,,,,,,,,,,,,,,,,,,,,,,,,,,,,,,,,,,,,,,,,,,,,,,,,,,,,,,,,,,,,,,,,,
,,,,,,,,,,5fb3fcb82df261033a5f6e0e,19,Mężczyzna,2022-06-04_09h56.48.075,task,2021.1.4,Win32,240.3846154,628b806c463b948bc644b84f,629b1024a514ffa4e38e4f49,,,,,1,0,1,0,1,X V Q F H G B L J M P D K C T S W R N Z,,,,,,,,,,,,,,,,,,,,,,,,,,,,,,,,,,,,,,,,,,,,,,,,,,,,,,,,,,,,,,,,,,,,,,,,,,,,,,,,,,,,,,,,,,,,,
,,,,,,,,,,5fb3fcb82df261033a5f6e0e,19,Mężczyzna,2022-06-04_09h56.48.075,task,2021.1.4,Win32,240.3846154,628b806c463b948bc644b84f,629b1024a514ffa4e38e4f49,,,,,,,,,,,zh,"[""z"",""h""]","[3.1480000000000246,3.798000000000002,5.0049999999999955]",1,ZH,0,0,0,0,1,,,,,,,,,,,,,,,,,,,,,,,,,,,,,,,,,,,,,,,,,,,,,,,,,,,,,,,,,,,,,,,,,,,,,,,,,,,,,,,,,,,
,,,,,,,,,,5fb3fcb82df261033a5f6e0e,19,Mężczyzna,2022-06-04_09h56.48.075,task,2021.1.4,Win32,240.3846154,628b806c463b948bc644b84f,629b1024a514ffa4e38e4f49,,,,,0,0,0,0,1,X V Q F H G B L J M P D K C T S W R N Z,,,,,,,,,,,,,,,,,,,,,,,,,,,,,,,,,,,,,,,,,,,,,,,,,,,,,,,,,,,,,,,,,,,,,,,,,,,,,,,,,,,,,,,,,,,,,
,,,,,,,,,,5fb3fcb82df261033a5f6e0e,19,Mężczyzna,2022-06-04_09h56.48.075,task,2021.1.4,Win32,240.3846154,628b806c463b948bc644b84f,629b1024a514ffa4e38e4f49,,,,,1,0,1,0,1,X V Q F H G B L J M P D K C T S W R N Z,,,,,,,,,,,,,,,,,,,,,,,,,,,,,,,,,,,,,,,,,,,,,,,,,,,,,,,,,,,,,,,,,,,,,,,,,,,,,,,,,,,,,,,,,,,,,
,,,,,,,,,,5fb3fcb82df261033a5f6e0e,19,Mężczyzna,2022-06-04_09h56.48.075,task,2021.1.4,Win32,240.3846154,628b806c463b948bc644b84f,629b1024a514ffa4e38e4f49,,,,,,,,,,,kf,"[""k"",""f""]","[1.1549999999999727,1.4599999999999795,2.315999999999974]",1,KF,1,0,1,0,1,,,,,,,,,,,,,,,,,,,,,,,,,,,,,,,,,,,,,,,,,,,,,,,,,,,,,,,,,,,,,,,,,,,,,,,,,,,,,,,,,,,
,,,,,,,,,,5fb3fcb82df261033a5f6e0e,19,Mężczyzna,2022-06-04_09h56.48.075,task,2021.1.4,Win32,240.3846154,628b806c463b948bc644b84f,629b1024a514ffa4e38e4f49,,,,,0,0,0,0,1,X V Q F H G B L J M P D K C T S W R N Z,,,,,,,,,,,,,,,,,,,,,,,,,,,,,,,,,,,,,,,,,,,,,,,,,,,,,,,,,,,,,,,,,,,,,,,,,,,,,,,,,,,,,,,,,,,,,
,,,,,,,,,,5fb3fcb82df261033a5f6e0e,19,Mężczyzna,2022-06-04_09h56.48.075,task,2021.1.4,Win32,240.3846154,628b806c463b948bc644b84f,629b1024a514ffa4e38e4f49,,,,,1,0,1,0,1,X V Q F H G B L J M P D K C T S W R N Z,,,,,,,,,,,,,,,,,,,,,,,,,,,,,,,,,,,,,,,,,,,,,,,,,,,,,,,,,,,,,,,,,,,,,,,,,,,,,,,,,,,,,,,,,,,,,
,,,,,,,,,,5fb3fcb82df261033a5f6e0e,19,Mężczyzna,2022-06-04_09h56.48.075,task,2021.1.4,Win32,240.3846154,628b806c463b948bc644b84f,629b1024a514ffa4e38e4f49,,,,,2,0,2,0,1,X V Q F H G B L J M P D K C T S W R N Z,,,,,,,,,,,,,,,,,,,,,,,,,,,,,,,,,,,,,,,,,,,,,,,,,,,,,,,,,,,,,,,,,,,,,,,,,,,,,,,,,,,,,,,,,,,,,
,,,,,,,,,,5fb3fcb82df261033a5f6e0e,19,Mężczyzna,2022-06-04_09h56.48.075,task,2021.1.4,Win32,240.3846154,628b806c463b948bc644b84f,629b1024a514ffa4e38e4f49,,,,,,,,,,,vkv,"[""v"",""k"",""v""]","[0.8940000000000055,1.1239999999999668,1.2280000000000086,1.4279999999999973]",1,VKV,2,0,2,0,1,,,,,,,,,,,,,,,,,,,,,,,,,,,,,,,,,,,,,,,,,,,,,,,,,,,,,,,,,,,,,,,,,,,,,,,,,,,,,,,,,,,
,,,,,,,,,,5fb3fcb82df261033a5f6e0e,19,Mężczyzna,2022-06-04_09h56.48.075,task,2021.1.4,Win32,240.3846154,628b806c463b948bc644b84f,629b1024a514ffa4e38e4f49,,,,,0,0,0,0,1,X V Q F H G B L J M P D K C T S W R N Z,,,,,,,,,,,,,,,,,,,,,,,,,,,,,,,,,,,,,,,,,,,,,,,,,,,,,,,,,,,,,,,,,,,,,,,,,,,,,,,,,,,,,,,,,,,,,
,,,,,,,,,,5fb3fcb82df261033a5f6e0e,19,Mężczyzna,2022-06-04_09h56.48.075,task,2021.1.4,Win32,240.3846154,628b806c463b948bc644b84f,629b1024a514ffa4e38e4f49,,,,,1,0,1,0,1,X V Q F H G B L J M P D K C T S W R N Z,,,,,,,,,,,,,,,,,,,,,,,,,,,,,,,,,,,,,,,,,,,,,,,,,,,,,,,,,,,,,,,,,,,,,,,,,,,,,,,,,,,,,,,,,,,,,
,,,,,,,,,,5fb3fcb82df261033a5f6e0e,19,Mężczyzna,2022-06-04_09h56.48.075,task,2021.1.4,Win32,240.3846154,628b806c463b948bc644b84f,629b1024a514ffa4e38e4f49,,,,,2,0,2,0,1,X V Q F H G B L J M P D K C T S W R N Z,,,,,,,,,,,,,,,,,,,,,,,,,,,,,,,,,,,,,,,,,,,,,,,,,,,,,,,,,,,,,,,,,,,,,,,,,,,,,,,,,,,,,,,,,,,,,
,,,,,,,,,,5fb3fcb82df261033a5f6e0e,19,Mężczyzna,2022-06-04_09h56.48.075,task,2021.1.4,Win32,240.3846154,628b806c463b948bc644b84f,629b1024a514ffa4e38e4f49,,,,,,,,,,,hjj,"[""h"",""j"",""j""]","[1.0809999999999604,1.2729999999999677,1.4019999999999868,2.08299999999997]",1,HJJ,3,0,3,0,1,,,,,,,,,,,,,,,,,,,,,,,,,,,,,,,,,,,,,,,,,,,,,,,,,,,,,,,,,,,,,,,,,,,,,,,,,,,,,,,,,,,
,,,,,,,,,,5fb3fcb82df261033a5f6e0e,19,Mężczyzna,2022-06-04_09h56.48.075,task,2021.1.4,Win32,240.3846154,628b806c463b948bc644b84f,629b1024a514ffa4e38e4f49,,,,,0,0,0,0,1,X V Q F H G B L J M P D K C T S W R N Z,,,,,,,,,,,,,,,,,,,,,,,,,,,,,,,,,,,,,,,,,,,,,,,,,,,,,,,,,,,,,,,,,,,,,,,,,,,,,,,,,,,,,,,,,,,,,
,,,,,,,,,,5fb3fcb82df261033a5f6e0e,19,Mężczyzna,2022-06-04_09h56.48.075,task,2021.1.4,Win32,240.3846154,628b806c463b948bc644b84f,629b1024a514ffa4e38e4f49,,,,,1,0,1,0,1,X V Q F H G B L J M P D K C T S W R N Z,,,,,,,,,,,,,,,,,,,,,,,,,,,,,,,,,,,,,,,,,,,,,,,,,,,,,,,,,,,,,,,,,,,,,,,,,,,,,,,,,,,,,,,,,,,,,
,,,,,,,,,,5fb3fcb82df261033a5f6e0e,19,Mężczyzna,2022-06-04_09h56.48.075,task,2021.1.4,Win32,240.3846154,628b806c463b948bc644b84f,629b1024a514ffa4e38e4f49,,,,,2,0,2,0,1,X V Q F H G B L J M P D K C T S W R N Z,,,,,,,,,,,,,,,,,,,,,,,,,,,,,,,,,,,,,,,,,,,,,,,,,,,,,,,,,,,,,,,,,,,,,,,,,,,,,,,,,,,,,,,,,,,,,
,,,,,,,,,,5fb3fcb82df261033a5f6e0e,19,Mężczyzna,2022-06-04_09h56.48.075,task,2021.1.4,Win32,240.3846154,628b806c463b948bc644b84f,629b1024a514ffa4e38e4f49,,,,,3,0,3,0,1,X V Q F H G B L J M P D K C T S W R N Z,,,,,,,,,,,,,,,,,,,,,,,,,,,,,,,,,,,,,,,,,,,,,,,,,,,,,,,,,,,,,,,,,,,,,,,,,,,,,,,,,,,,,,,,,,,,,
,,,,,,,,,,5fb3fcb82df261033a5f6e0e,19,Mężczyzna,2022-06-04_09h56.48.075,task,2021.1.4,Win32,240.3846154,628b806c463b948bc644b84f,629b1024a514ffa4e38e4f49,,,,,,,,,,,rktx,"[""r"",""k"",""t"",""x""]","[1.36099999999999,1.47199999999998,1.752999999999986,1.8899999999999864,2.0570000000000164]",1,RKTX,4,0,4,0,1,,,,,,,,,,,,,,,,,,,,,,,,,,,,,,,,,,,,,,,,,,,,,,,,,,,,,,,,,,,,,,,,,,,,,,,,,,,,,,,,,,,
,,,,,,,,,,5fb3fcb82df261033a5f6e0e,19,Mężczyzna,2022-06-04_09h56.48.075,task,2021.1.4,Win32,240.3846154,628b806c463b948bc644b84f,629b1024a514ffa4e38e4f49,,,,,0,0,0,0,1,X V Q F H G B L J M P D K C T S W R N Z,,,,,,,,,,,,,,,,,,,,,,,,,,,,,,,,,,,,,,,,,,,,,,,,,,,,,,,,,,,,,,,,,,,,,,,,,,,,,,,,,,,,,,,,,,,,,
,,,,,,,,,,5fb3fcb82df261033a5f6e0e,19,Mężczyzna,2022-06-04_09h56.48.075,task,2021.1.4,Win32,240.3846154,628b806c463b948bc644b84f,629b1024a514ffa4e38e4f49,,,,,1,0,1,0,1,X V Q F H G B L J M P D K C T S W R N Z,,,,,,,,,,,,,,,,,,,,,,,,,,,,,,,,,,,,,,,,,,,,,,,,,,,,,,,,,,,,,,,,,,,,,,,,,,,,,,,,,,,,,,,,,,,,,
,,,,,,,,,,5fb3fcb82df261033a5f6e0e,19,Mężczyzna,2022-06-04_09h56.48.075,task,2021.1.4,Win32,240.3846154,628b806c463b948bc644b84f,629b1024a514ffa4e38e4f49,,,,,2,0,2,0,1,X V Q F H G B L J M P D K C T S W R N Z,,,,,,,,,,,,,,,,,,,,,,,,,,,,,,,,,,,,,,,,,,,,,,,,,,,,,,,,,,,,,,,,,,,,,,,,,,,,,,,,,,,,,,,,,,,,,
,,,,,,,,,,5fb3fcb82df261033a5f6e0e,19,Mężczyzna,2022-06-04_09h56.48.075,task,2021.1.4,Win32,240.3846154,628b806c463b948bc644b84f,629b1024a514ffa4e38e4f49,,,,,3,0,3,0,1,X V Q F H G B L J M P D K C T S W R N Z,,,,,,,,,,,,,,,,,,,,,,,,,,,,,,,,,,,,,,,,,,,,,,,,,,,,,,,,,,,,,,,,,,,,,,,,,,,,,,,,,,,,,,,,,,,,,
,,,,,,,,,,5fb3fcb82df261033a5f6e0e,19,Mężczyzna,2022-06-04_09h56.48.075,task,2021.1.4,Win32,240.3846154,628b806c463b948bc644b84f,629b1024a514ffa4e38e4f49,,,,,,,,,,,fbvg,"[""f"",""b"",""v"",""g""]","[1.3340000000000032,1.4639999999999986,1.572999999999979,2.33299999999997,2.541999999999973]",1,FBVG,5,0,5,0,1,,,,,,,,,,,,,,,,,,,,,,,,,,,,,,,,,,,,,,,,,,,,,,,,,,,,,,,,,,,,,,,,,,,,,,,,,,,,,,,,,,,
,,,,,,,,,,5fb3fcb82df261033a5f6e0e,19,Mężczyzna,2022-06-04_09h56.48.075,task,2021.1.4,Win32,240.3846154,628b806c463b948bc644b84f,629b1024a514ffa4e38e4f49,,,,,0,0,0,0,1,X V Q F H G B L J M P D K C T S W R N Z,,,,,,,,,,,,,,,,,,,,,,,,,,,,,,,,,,,,,,,,,,,,,,,,,,,,,,,,,,,,,,,,,,,,,,,,,,,,,,,,,,,,,,,,,,,,,
,,,,,,,,,,5fb3fcb82df261033a5f6e0e,19,Mężczyzna,2022-06-04_09h56.48.075,task,2021.1.4,Win32,240.3846154,628b806c463b948bc644b84f,629b1024a514ffa4e38e4f49,,,,,1,0,1,0,1,X V Q F H G B L J M P D K C T S W R N Z,,,,,,,,,,,,,,,,,,,,,,,,,,,,,,,,,,,,,,,,,,,,,,,,,,,,,,,,,,,,,,,,,,,,,,,,,,,,,,,,,,,,,,,,,,,,,
,,,,,,,,,,5fb3fcb82df261033a5f6e0e,19,Mężczyzna,2022-06-04_09h56.48.075,task,2021.1.4,Win32,240.3846154,628b806c463b948bc644b84f,629b1024a514ffa4e38e4f49,,,,,2,0,2,0,1,X V Q F H G B L J M P D K C T S W R N Z,,,,,,,,,,,,,,,,,,,,,,,,,,,,,,,,,,,,,,,,,,,,,,,,,,,,,,,,,,,,,,,,,,,,,,,,,,,,,,,,,,,,,,,,,,,,,
,,,,,,,,,,5fb3fcb82df261033a5f6e0e,19,Mężczyzna,2022-06-04_09h56.48.075,task,2021.1.4,Win32,240.3846154,628b806c463b948bc644b84f,629b1024a514ffa4e38e4f49,,,,,3,0,3,0,1,X V Q F H G B L J M P D K C T S W R N Z,,,,,,,,,,,,,,,,,,,,,,,,,,,,,,,,,,,,,,,,,,,,,,,,,,,,,,,,,,,,,,,,,,,,,,,,,,,,,,,,,,,,,,,,,,,,,
,,,,,,,,,,5fb3fcb82df261033a5f6e0e,19,Mężczyzna,2022-06-04_09h56.48.075,task,2021.1.4,Win32,240.3846154,628b806c463b948bc644b84f,629b1024a514ffa4e38e4f49,,,,,4,0,4,0,1,X V Q F H G B L J M P D K C T S W R N Z,,,,,,,,,,,,,,,,,,,,,,,,,,,,,,,,,,,,,,,,,,,,,,,,,,,,,,,,,,,,,,,,,,,,,,,,,,,,,,,,,,,,,,,,,,,,,
,,,,,,,,,,5fb3fcb82df261033a5f6e0e,19,Mężczyzna,2022-06-04_09h56.48.075,task,2021.1.4,Win32,240.3846154,628b806c463b948bc644b84f,629b1024a514ffa4e38e4f49,,,,,,,,,,,lxkbr,"[""l"",""x"",""k"",""b"",""r""]","[1.6410000000000196,2.0160000000000196,2.6550000000000296,2.959000000000003,3.222000000000037,3.694000000000017]",1,LXKBR,6,0,6,0,1,,,,,,,,,,,,,,,,,,,,,,,,,,,,,,,,,,,,,,,,,,,,,,,,,,,,,,,,,,,,,,,,,,,,,,,,,,,,,,,,,,,
,,,,,,,,,,5fb3fcb82df261033a5f6e0e,19,Mężczyzna,2022-06-04_09h56.48.075,task,2021.1.4,Win32,240.3846154,628b806c463b948bc644b84f,629b1024a514ffa4e38e4f49,,,,,0,0,0,0,1,X V Q F H G B L J M P D K C T S W R N Z,,,,,,,,,,,,,,,,,,,,,,,,,,,,,,,,,,,,,,,,,,,,,,,,,,,,,,,,,,,,,,,,,,,,,,,,,,,,,,,,,,,,,,,,,,,,,
,,,,,,,,,,5fb3fcb82df261033a5f6e0e,19,Mężczyzna,2022-06-04_09h56.48.075,task,2021.1.4,Win32,240.3846154,628b806c463b948bc644b84f,629b1024a514ffa4e38e4f49,,,,,1,0,1,0,1,X V Q F H G B L J M P D K C T S W R N Z,,,,,,,,,,,,,,,,,,,,,,,,,,,,,,,,,,,,,,,,,,,,,,,,,,,,,,,,,,,,,,,,,,,,,,,,,,,,,,,,,,,,,,,,,,,,,
,,,,,,,,,,5fb3fcb82df261033a5f6e0e,19,Mężczyzna,2022-06-04_09h56.48.075,task,2021.1.4,Win32,240.3846154,628b806c463b948bc644b84f,629b1024a514ffa4e38e4f49,,,,,2,0,2,0,1,X V Q F H G B L J M P D K C T S W R N Z,,,,,,,,,,,,,,,,,,,,,,,,,,,,,,,,,,,,,,,,,,,,,,,,,,,,,,,,,,,,,,,,,,,,,,,,,,,,,,,,,,,,,,,,,,,,,
,,,,,,,,,,5fb3fcb82df261033a5f6e0e,19,Mężczyzna,2022-06-04_09h56.48.075,task,2021.1.4,Win32,240.3846154,628b806c463b948bc644b84f,629b1024a514ffa4e38e4f49,,,,,3,0,3,0,1,X V Q F H G B L J M P D K C T S W R N Z,,,,,,,,,,,,,,,,,,,,,,,,,,,,,,,,,,,,,,,,,,,,,,,,,,,,,,,,,,,,,,,,,,,,,,,,,,,,,,,,,,,,,,,,,,,,,
,,,,,,,,,,5fb3fcb82df261033a5f6e0e,19,Mężczyzna,2022-06-04_09h56.48.075,task,2021.1.4,Win32,240.3846154,628b806c463b948bc644b84f,629b1024a514ffa4e38e4f49,,,,,4,0,4,0,1,X V Q F H G B L J M P D K C T S W R N Z,,,,,,,,,,,,,,,,,,,,,,,,,,,,,,,,,,,,,,,,,,,,,,,,,,,,,,,,,,,,,,,,,,,,,,,,,,,,,,,,,,,,,,,,,,,,,
,,,,,,,,,,5fb3fcb82df261033a5f6e0e,19,Mężczyzna,2022-06-04_09h56.48.075,task,2021.1.4,Win32,240.3846154,628b806c463b948bc644b84f,629b1024a514ffa4e38e4f49,,,,,,,,,,,clbdg,"[""c"",""l"",""b"",""d"",""g""]","[1.9039999999999964,2.1020000000000323,2.309000000000026,3.165999999999997,3.486000000000047,3.9039999999999964]",1,CLBDG,7,0,7,0,1,,,,,,,,,,,,,,,,,,,,,,,,,,,,,,,,,,,,,,,,,,,,,,,,,,,,,,,,,,,,,,,,,,,,,,,,,,,,,,,,,,,
,,,,,,,,,,5fb3fcb82df261033a5f6e0e,19,Mężczyzna,2022-06-04_09h56.48.075,task,2021.1.4,Win32,240.3846154,628b806c463b948bc644b84f,629b1024a514ffa4e38e4f49,,,,,0,0,0,0,1,X V Q F H G B L J M P D K C T S W R N Z,,,,,,,,,,,,,,,,,,,,,,,,,,,,,,,,,,,,,,,,,,,,,,,,,,,,,,,,,,,,,,,,,,,,,,,,,,,,,,,,,,,,,,,,,,,,,
,,,,,,,,,,5fb3fcb82df261033a5f6e0e,19,Mężczyzna,2022-06-04_09h56.48.075,task,2021.1.4,Win32,240.3846154,628b806c463b948bc644b84f,629b1024a514ffa4e38e4f49,,,,,1,0,1,0,1,X V Q F H G B L J M P D K C T S W R N Z,,,,,,,,,,,,,,,,,,,,,,,,,,,,,,,,,,,,,,,,,,,,,,,,,,,,,,,,,,,,,,,,,,,,,,,,,,,,,,,,,,,,,,,,,,,,,
,,,,,,,,,,5fb3fcb82df261033a5f6e0e,19,Mężczyzna,2022-06-04_09h56.48.075,task,2021.1.4,Win32,240.3846154,628b806c463b948bc644b84f,629b1024a514ffa4e38e4f49,,,,,2,0,2,0,1,X V Q F H G B L J M P D K C T S W R N Z,,,,,,,,,,,,,,,,,,,,,,,,,,,,,,,,,,,,,,,,,,,,,,,,,,,,,,,,,,,,,,,,,,,,,,,,,,,,,,,,,,,,,,,,,,,,,
,,,,,,,,,,5fb3fcb82df261033a5f6e0e,19,Mężczyzna,2022-06-04_09h56.48.075,task,2021.1.4,Win32,240.3846154,628b806c463b948bc644b84f,629b1024a514ffa4e38e4f49,,,,,3,0,3,0,1,X V Q F H G B L J M P D K C T S W R N Z,,,,,,,,,,,,,,,,,,,,,,,,,,,,,,,,,,,,,,,,,,,,,,,,,,,,,,,,,,,,,,,,,,,,,,,,,,,,,,,,,,,,,,,,,,,,,
,,,,,,,,,,5fb3fcb82df261033a5f6e0e,19,Mężczyzna,2022-06-04_09h56.48.075,task,2021.1.4,Win32,240.3846154,628b806c463b948bc644b84f,629b1024a514ffa4e38e4f49,,,,,4,0,4,0,1,X V Q F H G B L J M P D K C T S W R N Z,,,,,,,,,,,,,,,,,,,,,,,,,,,,,,,,,,,,,,,,,,,,,,,,,,,,,,,,,,,,,,,,,,,,,,,,,,,,,,,,,,,,,,,,,,,,,
,,,,,,,,,,5fb3fcb82df261033a5f6e0e,19,Mężczyzna,2022-06-04_09h56.48.075,task,2021.1.4,Win32,240.3846154,628b806c463b948bc644b84f,629b1024a514ffa4e38e4f49,,,,,5,0,5,0,1,X V Q F H G B L J M P D K C T S W R N Z,,,,,,,,,,,,,,,,,,,,,,,,,,,,,,,,,,,,,,,,,,,,,,,,,,,,,,,,,,,,,,,,,,,,,,,,,,,,,,,,,,,,,,,,,,,,,
,,,,,,,,,,5fb3fcb82df261033a5f6e0e,19,Mężczyzna,2022-06-04_09h56.48.075,task,2021.1.4,Win32,240.3846154,628b806c463b948bc644b84f,629b1024a514ffa4e38e4f49,,,,,,,,,,,fbbrt,"[""f"",""b"",""b"",""r"",""t""]","[1.1730000000000018,1.8210000000000264,2.1410000000000196,10.564999999999998,12.263000000000034,12.884999999999991]",0,FBBRTS,8,0,8,0,1,,,,,,,,,,,,,,,,,,,,,,,,,,,,,,,,,,,,,,,,,,,,,,,,,,,,,,,,,,,,,,,,,,,,,,,,,,,,,,,,,,,
,,,,,,,,,,5fb3fcb82df261033a5f6e0e,19,Mężczyzna,2022-06-04_09h56.48.075,task,2021.1.4,Win32,240.3846154,628b806c463b948bc644b84f,629b1024a514ffa4e38e4f49,,,,,0,0,0,0,1,X V Q F H G B L J M P D K C T S W R N Z,,,,,,,,,,,,,,,,,,,,,,,,,,,,,,,,,,,,,,,,,,,,,,,,,,,,,,,,,,,,,,,,,,,,,,,,,,,,,,,,,,,,,,,,,,,,,
,,,,,,,,,,5fb3fcb82df261033a5f6e0e,19,Mężczyzna,2022-06-04_09h56.48.075,task,2021.1.4,Win32,240.3846154,628b806c463b948bc644b84f,629b1024a514ffa4e38e4f49,,,,,1,0,1,0,1,X V Q F H G B L J M P D K C T S W R N Z,,,,,,,,,,,,,,,,,,,,,,,,,,,,,,,,,,,,,,,,,,,,,,,,,,,,,,,,,,,,,,,,,,,,,,,,,,,,,,,,,,,,,,,,,,,,,
,,,,,,,,,,5fb3fcb82df261033a5f6e0e,19,Mężczyzna,2022-06-04_09h56.48.075,task,2021.1.4,Win32,240.3846154,628b806c463b948bc644b84f,629b1024a514ffa4e38e4f49,,,,,2,0,2,0,1,X V Q F H G B L J M P D K C T S W R N Z,,,,,,,,,,,,,,,,,,,,,,,,,,,,,,,,,,,,,,,,,,,,,,,,,,,,,,,,,,,,,,,,,,,,,,,,,,,,,,,,,,,,,,,,,,,,,
,,,,,,,,,,5fb3fcb82df261033a5f6e0e,19,Mężczyzna,2022-06-04_09h56.48.075,task,2021.1.4,Win32,240.3846154,628b806c463b948bc644b84f,629b1024a514ffa4e38e4f49,,,,,3,0,3,0,1,X V Q F H G B L J M P D K C T S W R N Z,,,,,,,,,,,,,,,,,,,,,,,,,,,,,,,,,,,,,,,,,,,,,,,,,,,,,,,,,,,,,,,,,,,,,,,,,,,,,,,,,,,,,,,,,,,,,
,,,,,,,,,,5fb3fcb82df261033a5f6e0e,19,Mężczyzna,2022-06-04_09h56.48.075,task,2021.1.4,Win32,240.3846154,628b806c463b948bc644b84f,629b1024a514ffa4e38e4f49,,,,,4,0,4,0,1,X V Q F H G B L J M P D K C T S W R N Z,,,,,,,,,,,,,,,,,,,,,,,,,,,,,,,,,,,,,,,,,,,,,,,,,,,,,,,,,,,,,,,,,,,,,,,,,,,,,,,,,,,,,,,,,,,,,
,,,,,,,,,,5fb3fcb82df261033a5f6e0e,19,Mężczyzna,2022-06-04_09h56.48.075,task,2021.1.4,Win32,240.3846154,628b806c463b948bc644b84f,629b1024a514ffa4e38e4f49,,,,,5,0,5,0,1,X V Q F H G B L J M P D K C T S W R N Z,,,,,,,,,,,,,,,,,,,,,,,,,,,,,,,,,,,,,,,,,,,,,,,,,,,,,,,,,,,,,,,,,,,,,,,,,,,,,,,,,,,,,,,,,,,,,
,,,,,,,,,,5fb3fcb82df261033a5f6e0e,19,Mężczyzna,2022-06-04_09h56.48.075,task,2021.1.4,Win32,240.3846154,628b806c463b948bc644b84f,629b1024a514ffa4e38e4f49,,,,,,,,,,,vmpfrv,"[""v"",""m"",""p"",""f"",""r"",""v""]","[1.6619999999999777,2.0120000000000005,2.4429999999999836,3.0989999999999895,3.940999999999974,4.420999999999992,4.803999999999974]",0,VMPFRR,9,0,9,0,1,,,,,,,,,,,,,,,,,,,,,,,,,,,,,,,,,,,,,,,,,,,,,,,,,,,,,,,,,,,,,,,,,,,,,,,,,,,,,,,,,,,
,,,,,,,,,,5fb3fcb82df261033a5f6e0e,19,Mężczyzna,2022-06-04_09h56.48.075,task,2021.1.4,Win32,240.3846154,628b806c463b948bc644b84f,629b1024a514ffa4e38e4f49,,,,,0,0,0,0,1,X V Q F H G B L J M P D K C T S W R N Z,,,,,,,,,,,,,,,,,,,,,,,,,,,,,,,,,,,,,,,,,,,,,,,,,,,,,,,,,,,,,,,,,,,,,,,,,,,,,,,,,,,,,,,,,,,,,
,,,,,,,,,,5fb3fcb82df261033a5f6e0e,19,Mężczyzna,2022-06-04_09h56.48.075,task,2021.1.4,Win32,240.3846154,628b806c463b948bc644b84f,629b1024a514ffa4e38e4f49,,,,,1,0,1,0,1,X V Q F H G B L J M P D K C T S W R N Z,,,,,,,,,,,,,,,,,,,,,,,,,,,,,,,,,,,,,,,,,,,,,,,,,,,,,,,,,,,,,,,,,,,,,,,,,,,,,,,,,,,,,,,,,,,,,
,,,,,,,,,,5fb3fcb82df261033a5f6e0e,19,Mężczyzna,2022-06-04_09h56.48.075,task,2021.1.4,Win32,240.3846154,628b806c463b948bc644b84f,629b1024a514ffa4e38e4f49,,,,,2,0,2,0,1,X V Q F H G B L J M P D K C T S W R N Z,,,,,,,,,,,,,,,,,,,,,,,,,,,,,,,,,,,,,,,,,,,,,,,,,,,,,,,,,,,,,,,,,,,,,,,,,,,,,,,,,,,,,,,,,,,,,
,,,,,,,,,,5fb3fcb82df261033a5f6e0e,19,Mężczyzna,2022-06-04_09h56.48.075,task,2021.1.4,Win32,240.3846154,628b806c463b948bc644b84f,629b1024a514ffa4e38e4f49,,,,,3,0,3,0,1,X V Q F H G B L J M P D K C T S W R N Z,,,,,,,,,,,,,,,,,,,,,,,,,,,,,,,,,,,,,,,,,,,,,,,,,,,,,,,,,,,,,,,,,,,,,,,,,,,,,,,,,,,,,,,,,,,,,
,,,,,,,,,,5fb3fcb82df261033a5f6e0e,19,Mężczyzna,2022-06-04_09h56.48.075,task,2021.1.4,Win32,240.3846154,628b806c463b948bc644b84f,629b1024a514ffa4e38e4f49,,,,,4,0,4,0,1,X V Q F H G B L J M P D K C T S W R N Z,,,,,,,,,,,,,,,,,,,,,,,,,,,,,,,,,,,,,,,,,,,,,,,,,,,,,,,,,,,,,,,,,,,,,,,,,,,,,,,,,,,,,,,,,,,,,
,,,,,,,,,,5fb3fcb82df261033a5f6e0e,19,Mężczyzna,2022-06-04_09h56.48.075,task,2021.1.4,Win32,240.3846154,628b806c463b948bc644b84f,629b1024a514ffa4e38e4f49,,,,,5,0,5,0,1,X V Q F H G B L J M P D K C T S W R N Z,,,,,,,,,,,,,,,,,,,,,,,,,,,,,,,,,,,,,,,,,,,,,,,,,,,,,,,,,,,,,,,,,,,,,,,,,,,,,,,,,,,,,,,,,,,,,
,,,,,,,,,,5fb3fcb82df261033a5f6e0e,19,Mężczyzna,2022-06-04_09h56.48.075,task,2021.1.4,Win32,240.3846154,628b806c463b948bc644b84f,629b1024a514ffa4e38e4f49,,,,,,,,,,,jzqqwt,"[""j"",""z"",""q"",""q"",""w"",""t""]","[1.2939999999999827,1.54099999999994,2.0529999999999973,2.227999999999952,2.663000000000011,3.134999999999991,3.3899999999999864]",1,JZQQWT,10,0,10,0,1,,,,,,,,,,,,,,,,,,,,,,,,,,,,,,,,,,,,,,,,,,,,,,,,,,,,,,,,,,,,,,,,,,,,,,,,,,,,,,,,,,,
,,,,,,,,,,5fb3fcb82df261033a5f6e0e,19,Mężczyzna,2022-06-04_09h56.48.075,task,2021.1.4,Win32,240.3846154,628b806c463b948bc644b84f,629b1024a514ffa4e38e4f49,,,,,0,0,0,0,1,X V Q F H G B L J M P D K C T S W R N Z,,,,,,,,,,,,,,,,,,,,,,,,,,,,,,,,,,,,,,,,,,,,,,,,,,,,,,,,,,,,,,,,,,,,,,,,,,,,,,,,,,,,,,,,,,,,,
,,,,,,,,,,5fb3fcb82df261033a5f6e0e,19,Mężczyzna,2022-06-04_09h56.48.075,task,2021.1.4,Win32,240.3846154,628b806c463b948bc644b84f,629b1024a514ffa4e38e4f49,,,,,1,0,1,0,1,X V Q F H G B L J M P D K C T S W R N Z,,,,,,,,,,,,,,,,,,,,,,,,,,,,,,,,,,,,,,,,,,,,,,,,,,,,,,,,,,,,,,,,,,,,,,,,,,,,,,,,,,,,,,,,,,,,,
,,,,,,,,,,5fb3fcb82df261033a5f6e0e,19,Mężczyzna,2022-06-04_09h56.48.075,task,2021.1.4,Win32,240.3846154,628b806c463b948bc644b84f,629b1024a514ffa4e38e4f49,,,,,2,0,2,0,1,X V Q F H G B L J M P D K C T S W R N Z,,,,,,,,,,,,,,,,,,,,,,,,,,,,,,,,,,,,,,,,,,,,,,,,,,,,,,,,,,,,,,,,,,,,,,,,,,,,,,,,,,,,,,,,,,,,,
,,,,,,,,,,5fb3fcb82df261033a5f6e0e,19,Mężczyzna,2022-06-04_09h56.48.075,task,2021.1.4,Win32,240.3846154,628b806c463b948bc644b84f,629b1024a514ffa4e38e4f49,,,,,3,0,3,0,1,X V Q F H G B L J M P D K C T S W R N Z,,,,,,,,,,,,,,,,,,,,,,,,,,,,,,,,,,,,,,,,,,,,,,,,,,,,,,,,,,,,,,,,,,,,,,,,,,,,,,,,,,,,,,,,,,,,,
,,,,,,,,,,5fb3fcb82df261033a5f6e0e,19,Mężczyzna,2022-06-04_09h56.48.075,task,2021.1.4,Win32,240.3846154,628b806c463b948bc644b84f,629b1024a514ffa4e38e4f49,,,,,4,0,4,0,1,X V Q F H G B L J M P D K C T S W R N Z,,,,,,,,,,,,,,,,,,,,,,,,,,,,,,,,,,,,,,,,,,,,,,,,,,,,,,,,,,,,,,,,,,,,,,,,,,,,,,,,,,,,,,,,,,,,,
,,,,,,,,,,5fb3fcb82df261033a5f6e0e,19,Mężczyzna,2022-06-04_09h56.48.075,task,2021.1.4,Win32,240.3846154,628b806c463b948bc644b84f,629b1024a514ffa4e38e4f49,,,,,5,0,5,0,1,X V Q F H G B L J M P D K C T S W R N Z,,,,,,,,,,,,,,,,,,,,,,,,,,,,,,,,,,,,,,,,,,,,,,,,,,,,,,,,,,,,,,,,,,,,,,,,,,,,,,,,,,,,,,,,,,,,,
,,,,,,,,,,5fb3fcb82df261033a5f6e0e,19,Mężczyzna,2022-06-04_09h56.48.075,task,2021.1.4,Win32,240.3846154,628b806c463b948bc644b84f,629b1024a514ffa4e38e4f49,,,,,,,,,,,tzhsjm,"[""t"",""z"",""h"",""s"",""j"",""m""]","[1.9789999999999281,7.083999999999946,7.9809999999999945,8.322999999999979,8.674999999999955,9.386999999999944,10.075999999999908]",0,TSHZJM,11,0,11,0,1,,,,,,,,,,,,,,,,,,,,,,,,,,,,,,,,,,,,,,,,,,,,,,,,,,,,,,,,,,,,,,,,,,,,,,,,,,,,,,,,,,,
,,,,,,,,,,5fb3fcb82df261033a5f6e0e,19,Mężczyzna,2022-06-04_09h56.48.075,task,2021.1.4,Win32,240.3846154,628b806c463b948bc644b84f,629b1024a514ffa4e38e4f49,,,,,,,,,,,,,,,,,,,,,space,13.249,3,"[""3""]",1,[6.93100000000004],[6.93100000000004],0,0,0,3,1,Practice,4,(8/4) + 1,3,,,,,,,,,,,,,,,,,,,,,,,,,,,,,,,,,,,,,,,,,,,,,,,,,,,,,,,,,,,,,,,,,,,
,,,,,,,,,,5fb3fcb82df261033a5f6e0e,19,Mężczyzna,2022-06-04_09h56.48.075,task,2021.1.4,Win32,240.3846154,628b806c463b948bc644b84f,629b1024a514ffa4e38e4f49,,,,,,,,,,,,,,,,,,,,,,,8,"[""8""]",1,[3.907000000000039],"[6.93100000000004,3.907000000000039]",0,1,1,8,1,Practice,9,(3x3) - 1,8,,,,,,,,,,,,,,,,,,,,,,,,,,,,,,,,,,,,,,,,,,,,,,,,,,,,,,,,,,,,,,,,,,,
,,,,,,,,,,5fb3fcb82df261033a5f6e0e,19,Mężczyzna,2022-06-04_09h56.48.075,task,2021.1.4,Win32,240.3846154,628b806c463b948bc644b84f,629b1024a514ffa4e38e4f49,,,,,,,,,,,,,,,,,,,,,,,1,"[""1""]",1,[2.7970000000000255],"[6.93100000000004,3.907000000000039,2.7970000000000255]",0,2,2,1,1,Practice,2,(4x4) - 15,1,,,,,,,,,,,,,,,,,,,,,,,,,,,,,,,,,,,,,,,,,,,,,,,,,,,,,,,,,,,,,,,,,,,
,,,,,,,,,,5fb3fcb82df261033a5f6e0e,19,Mężczyzna,2022-06-04_09h56.48.075,task,2021.1.4,Win32,240.3846154,628b806c463b948bc644b84f,629b1024a514ffa4e38e4f49,,,,,,,,,,,,,,,,,,,,,,,9,"[""9""]",1,[2.7170000000000982],"[6.93100000000004,3.907000000000039,2.7970000000000255,2.7170000000000982]",0,3,3,9,1,Practice,10,(20/2) - 1,9,,,,,,,,,,,,,,,,,,,,,,,,,,,,,,,,,,,,,,,,,,,,,,,,,,,,,,,,,,,,,,,,,,,
,,,,,,,,,,5fb3fcb82df261033a5f6e0e,19,Mężczyzna,2022-06-04_09h56.48.075,task,2021.1.4,Win32,240.3846154,628b806c463b948bc644b84f,629b1024a514ffa4e38e4f49,,,,,,,,,,,,,,,,,,,,,,,2,"[""2""]",1,[4.388000000000034],"[6.93100000000004,3.907000000000039,2.7970000000000255,2.7170000000000982,4.388000000000034]",0,4,4,2,1,Practice,3,(4x4) - 14,2,,,,,,,,,,,,,,,,,,,,,,,,,,,,,,,,,,,,,,,,,,,,,,,,,,,,,,,,,,,,,,,,,,,
,,,,,,,,,,5fb3fcb82df261033a5f6e0e,19,Mężczyzna,2022-06-04_09h56.48.075,task,2021.1.4,Win32,240.3846154,628b806c463b948bc644b84f,629b1024a514ffa4e38e4f49,,,,,,,,,,,,,,,,,,,,,,,4,"[""4""]",1,[5.1590000000001055],"[6.93100000000004,3.907000000000039,2.7970000000000255,2.7170000000000982,4.388000000000034,5.1590000000001055]",0,5,5,4,1,Practice,5,(2x6) - 8,4,,,,,,,,,,,,,,,,,,,,,,,,,,,,,,,,,,,,,,,,,,,,,,,,,,,,,,,,,,,,,,,,,,,
,,,,,,,,,,5fb3fcb82df261033a5f6e0e,19,Mężczyzna,2022-06-04_09h56.48.075,task,2021.1.4,Win32,240.3846154,628b806c463b948bc644b84f,629b1024a514ffa4e38e4f49,,,,,,,,,,,,,,,,,,,,,,,5,"[""5""]",1,[2.546000000000049],"[6.93100000000004,3.907000000000039,2.7970000000000255,2.7170000000000982,4.388000000000034,5.1590000000001055,2.546000000000049]",0,6,6,5,1,Practice,6,(4/2) + 3,5,,,,,,,,,,,,,,,,,,,,,,,,,,,,,,,,,,,,,,,,,,,,,,,,,,,,,,,,,,,,,,,,,,,
,,,,,,,,,,5fb3fcb82df261033a5f6e0e,19,Mężczyzna,2022-06-04_09h56.48.075,task,2021.1.4,Win32,240.3846154,628b806c463b948bc644b84f,629b1024a514ffa4e38e4f49,,,,,,,,,,,,,,,,,,,,,,,7,"[""7""]",1,[3.882000000000062],"[6.93100000000004,3.907000000000039,2.7970000000000255,2.7170000000000982,4.388000000000034,5.1590000000001055,2.546000000000049,3.882000000000062]",0,7,7,7,1,Practice,8,(5x5) - 18,7,,,,,,,,,,,,,,,,,,,,,,,,,,,,,,,,,,,,,,,,,,,,,,,,,,,,,,,,,,,,,,,,,,,
,,,,,,,,,,5fb3fcb82df261033a5f6e0e,19,Mężczyzna,2022-06-04_09h56.48.075,task,2021.1.4,Win32,240.3846154,628b806c463b948bc644b84f,629b1024a514ffa4e38e4f49,,,,,,,,,,,,,,,,,,,,,,,0,"[""0""]",1,[1.5939999999999372],"[6.93100000000004,3.907000000000039,2.7970000000000255,2.7170000000000982,4.388000000000034,5.1590000000001055,2.546000000000049,3.882000000000062,1.5939999999999372]",0,8,8,0,1,Practice,1,(3x3) -  9,0,,,,,,,,,,,,,,,,,,,,,,,,,,,,,,,,,,,,,,,,,,,,,,,,,,,,,,,,,,,,,,,,,,,
,,,,,,,,,,5fb3fcb82df261033a5f6e0e,19,Mężczyzna,2022-06-04_09h56.48.075,task,2021.1.4,Win32,240.3846154,628b806c463b948bc644b84f,629b1024a514ffa4e38e4f49,,,,,,,,,,,,,,,,,,,,,,,6,"[""6""]",1,[4.316000000000031],"[6.93100000000004,3.907000000000039,2.7970000000000255,2.7170000000000982,4.388000000000034,5.1590000000001055,2.546000000000049,3.882000000000062,1.5939999999999372,4.316000000000031]",0,9,9,6,1,Practice,7,(25/5) + 1,6,,,,,,,,,,,,,,,,,,,,,,,,,,,,,,,,,,,,,,,,,,,,,,,,,,,,,,,,,,,,,,,,,,,
,,,,,,,,,,5fb3fcb82df261033a5f6e0e,19,Mężczyzna,2022-06-04_09h56.48.075,task,2021.1.4,Win32,240.3846154,628b806c463b948bc644b84f,629b1024a514ffa4e38e4f49,,,,,,,,,,,,,,,,,,,,,,,,,,,,,,,,,,,,,1,38.237,2.549133333,37.13764998,1.573481278,6.60871503,space,2.398,0,0,0,0,1,,,,,,,,,,,,,,,,,,,,,,,,,,,,,,,,,,,,,,,,,,,,,,,,,,,,,,
,,,,,,,,,,5fb3fcb82df261033a5f6e0e,19,Mężczyzna,2022-06-04_09h56.48.075,task,2021.1.4,Win32,240.3846154,628b806c463b948bc644b84f,629b1024a514ffa4e38e4f49,,,,,,,,,,,,,,,,,,,,,,,6,,,,,,,,,,Practice,7,(25/5) + 1,6,,,,,,,,,,,,,,space,24.87,"[""6""]",1,[5.699000000000069],1,0,0,0,6,1,,,,,,,,,,,,,,,,,,,,,,,,,,,,,,,,,,,,,,,,,,,
,,,,,,,,,,5fb3fcb82df261033a5f6e0e,19,Mężczyzna,2022-06-04_09h56.48.075,task,2021.1.4,Win32,240.3846154,628b806c463b948bc644b84f,629b1024a514ffa4e38e4f49,,,,,,,,,,X V Q F H G B L J M P D K C T S W R N Z,,,,,,,,,,,,,,,,,,,,,,,,,,,,,,,,,,,,,,,,,,,,,,,,,,,0,0,0,0,1,,,,,,,,,,,,,,,,,,,,,,,,,,,,,,,,,,,,,,
,,,,,,,,,,5fb3fcb82df261033a5f6e0e,19,Mężczyzna,2022-06-04_09h56.48.075,task,2021.1.4,Win32,240.3846154,628b806c463b948bc644b84f,629b1024a514ffa4e38e4f49,,,,,,,,,,,,,,,,,,,,,,,8,,,,,,,,,,Practice,9,(3x3) - 1,8,,,,,,,,,,,,,,,,"[""8""]",1,[2.129000000000019],1,0,0,0,8,1,,,,,,,,,,,,,,,,,,,,,,,,,,,,,,,,,,,,,,,,,,,
,,,,,,,,,,5fb3fcb82df261033a5f6e0e,19,Mężczyzna,2022-06-04_09h56.48.075,task,2021.1.4,Win32,240.3846154,628b806c463b948bc644b84f,629b1024a514ffa4e38e4f49,,,,,,,,,,X V Q F H G B L J M P D K C T S W R N Z,,,,,,,,,,,,,,,,,,,,,,,,,,,,,,,,,,,,,,,,,,,,,,,,,,,1,0,1,0,1,,,,,,,,,,,,,,,,,,,,,,,,,,,,,,,,,,,,,,
,,,,,,,,,,5fb3fcb82df261033a5f6e0e,19,Mężczyzna,2022-06-04_09h56.48.075,task,2021.1.4,Win32,240.3846154,628b806c463b948bc644b84f,629b1024a514ffa4e38e4f49,,,,,,,,,,,,,,,,,,,,,,,,,,,,,,,,,,,,,,,,,,,,,,,,,,,,,,,,,,,,,,,,,,zg,"[""z"",""g""]",0,"[4.053999999999974,4.212999999999965,5.461000000000013]",1,0,0,0,0,1,,,,,,,,,,,,,,,,,,,,,,,,,,,,
,,,,,,,,,,5fb3fcb82df261033a5f6e0e,19,Mężczyzna,2022-06-04_09h56.48.075,task,2021.1.4,Win32,240.3846154,628b806c463b948bc644b84f,629b1024a514ffa4e38e4f49,,,,,,,,,,,,,,,,,,,,,,,1,,,,,,,,,,Practice,2,(4x4) - 15,1,,,,,,,,,,,,,,,,"[""1""]",1,[2.4289999999999736],1,0,0,0,1,1,,,,,,,,,,,,,,,,,,,,,,,,,,,,,,,,,,,,,,,,,,,
,,,,,,,,,,5fb3fcb82df261033a5f6e0e,19,Mężczyzna,2022-06-04_09h56.48.075,task,2021.1.4,Win32,240.3846154,628b806c463b948bc644b84f,629b1024a514ffa4e38e4f49,,,,,,,,,,X V Q F H G B L J M P D K C T S W R N Z,,,,,,,,,,,,,,,,,,,,,,,,,,,,,,,,,,,,,,,,,,,,,,,,,,,0,0,0,0,1,,,,,,,,,,,,,,,,,,,,,,,,,,,,,,,,,,,,,,
,,,,,,,,,,5fb3fcb82df261033a5f6e0e,19,Mężczyzna,2022-06-04_09h56.48.075,task,2021.1.4,Win32,240.3846154,628b806c463b948bc644b84f,629b1024a514ffa4e38e4f49,,,,,,,,,,,,,,,,,,,,,,,9,,,,,,,,,,Practice,10,(20/2) - 1,9,,,,,,,,,,,,,,,,"[""9""]",1,[3.1510000000000673],1,0,0,0,9,1,,,,,,,,,,,,,,,,,,,,,,,,,,,,,,,,,,,,,,,,,,,
,,,,,,,,,,5fb3fcb82df261033a5f6e0e,19,Mężczyzna,2022-06-04_09h56.48.075,task,2021.1.4,Win32,240.3846154,628b806c463b948bc644b84f,629b1024a514ffa4e38e4f49,,,,,,,,,,X V Q F H G B L J M P D K C T S W R N Z,,,,,,,,,,,,,,,,,,,,,,,,,,,,,,,,,,,,,,,,,,,,,,,,,,,1,0,1,0,1,,,,,,,,,,,,,,,,,,,,,,,,,,,,,,,,,,,,,,
,,,,,,,,,,5fb3fcb82df261033a5f6e0e,19,Mężczyzna,2022-06-04_09h56.48.075,task,2021.1.4,Win32,240.3846154,628b806c463b948bc644b84f,629b1024a514ffa4e38e4f49,,,,,,,,,,,,,,,,,,,,,,,,,,,,,,,,,,,,,,,,,,,,,,,,,,,,,,,,,,,,,,,,,,tl,"[""t"",""l""]",0,"[1.9710000000000036,2.4180000000000064,3.002999999999929]",1,1,0,1,0,1,,,,,,,,,,,,,,,,,,,,,,,,,,,,
,,,,,,,,,,5fb3fcb82df261033a5f6e0e,19,Mężczyzna,2022-06-04_09h56.48.075,task,2021.1.4,Win32,240.3846154,628b806c463b948bc644b84f,629b1024a514ffa4e38e4f49,,,,,,,,,,,,,,,,,,,,,,,6,,,,,,,,,,Practice,7,(25/5) + 1,6,,,,,,,,,,,,,,,,"[""6""]",1,[3.3840000000000146],1,0,0,0,6,1,,,,,,,,,,,,,,,,,,,,,,,,,,,,,,,,,,,,,,,,,,,
,,,,,,,,,,5fb3fcb82df261033a5f6e0e,19,Mężczyzna,2022-06-04_09h56.48.075,task,2021.1.4,Win32,240.3846154,628b806c463b948bc644b84f,629b1024a514ffa4e38e4f49,,,,,,,,,,X V Q F H G B L J M P D K C T S W R N Z,,,,,,,,,,,,,,,,,,,,,,,,,,,,,,,,,,,,,,,,,,,,,,,,,,,0,0,0,0,1,,,,,,,,,,,,,,,,,,,,,,,,,,,,,,,,,,,,,,
,,,,,,,,,,5fb3fcb82df261033a5f6e0e,19,Mężczyzna,2022-06-04_09h56.48.075,task,2021.1.4,Win32,240.3846154,628b806c463b948bc644b84f,629b1024a514ffa4e38e4f49,,,,,,,,,,,,,,,,,,,,,,,9,,,,,,,,,,Practice,10,(20/2) - 1,9,,,,,,,,,,,,,,,,"[""9""]",1,[2.59699999999998],1,0,0,0,9,1,,,,,,,,,,,,,,,,,,,,,,,,,,,,,,,,,,,,,,,,,,,
,,,,,,,,,,5fb3fcb82df261033a5f6e0e,19,Mężczyzna,2022-06-04_09h56.48.075,task,2021.1.4,Win32,240.3846154,628b806c463b948bc644b84f,629b1024a514ffa4e38e4f49,,,,,,,,,,X V Q F H G B L J M P D K C T S W R N Z,,,,,,,,,,,,,,,,,,,,,,,,,,,,,,,,,,,,,,,,,,,,,,,,,,,1,0,1,0,1,,,,,,,,,,,,,,,,,,,,,,,,,,,,,,,,,,,,,,
,,,,,,,,,,5fb3fcb82df261033a5f6e0e,19,Mężczyzna,2022-06-04_09h56.48.075,task,2021.1.4,Win32,240.3846154,628b806c463b948bc644b84f,629b1024a514ffa4e38e4f49,,,,,,,,,,,,,,,,,,,,,,,,,,,,,,,,,,,,,,,,,,,,,,,,,,,,,,,,,,,,,,,,,,cc,"[""c"",""c""]",0,"[1.2830000000000155,1.4370000000000118,1.7160000000000082]",1,2,0,2,0,1,,,,,,,,,,,,,,,,,,,,,,,,,,,,
,,,,,,,,,,5fb3fcb82df261033a5f6e0e,19,Mężczyzna,2022-06-04_09h56.48.075,task,2021.1.4,Win32,240.3846154,628b806c463b948bc644b84f,629b1024a514ffa4e38e4f49,,,,,,,,,,,,,,,,,,,,,,,2,,,,,,,,,,Task,26,(2x9) - 16,2,,,,,,,,,,,,,,,,,,,1,,,,,,,,,,,,,,,,,,,,,space,22.701,"[""2""]",1,[4.79200000000003],0,0,0,25,1,,,,,,,,,,,,,,,,,,
,,,,,,,,,,5fb3fcb82df261033a5f6e0e,19,Mężczyzna,2022-06-04_09h56.48.075,task,2021.1.4,Win32,240.3846154,628b806c463b948bc644b84f,629b1024a514ffa4e38e4f49,,,,,,,,,,X V Q F H G B L J M P D K C T S W R N Z,,,,,,,,,,,,,,,,,,,,,,,,,,,,,,,,,,,,,,,,,,,,,,,,,,,,,,,,,,,,,,,,,,,,,,,,,,,,0,0,0,0,1,,,,,,,,,,,,,
,,,,,,,,,,5fb3fcb82df261033a5f6e0e,19,Mężczyzna,2022-06-04_09h56.48.075,task,2021.1.4,Win32,240.3846154,628b806c463b948bc644b84f,629b1024a514ffa4e38e4f49,,,,,,,,,,,,,,,,,,,,,,,9,,,,,,,,,,Task,21,(10/2) - 1,4,,,,,,,,,,,,,,,,,,,0,,,,,,,,,,,,,,,,,,,,,,,"[""9""]",0,[2.4329999999999927],0,0,0,20,1,,,,,,,,,,,,,,,,,,
,,,,,,,,,,5fb3fcb82df261033a5f6e0e,19,Mężczyzna,2022-06-04_09h56.48.075,task,2021.1.4,Win32,240.3846154,628b806c463b948bc644b84f,629b1024a514ffa4e38e4f49,,,,,,,,,,,,,,,,,,,,,,,7,,,,,,,,,,Task,31,(4/2) + 5,7,,,,,,,,,,,,,,,,,,,1,,,,,,,,,,,,,,,,,,,,,,,"[""7""]",1,[5.015999999999963],0,1,1,30,1,,,,,,,,,,,,,,,,,,
,,,,,,,,,,5fb3fcb82df261033a5f6e0e,19,Mężczyzna,2022-06-04_09h56.48.075,task,2021.1.4,Win32,240.3846154,628b806c463b948bc644b84f,629b1024a514ffa4e38e4f49,,,,,,,,,,X V Q F H G B L J M P D K C T S W R N Z,,,,,,,,,,,,,,,,,,,,,,,,,,,,,,,,,,,,,,,,,,,,,,,,,,,,,,,,,,,,,,,,,,,,,,,,,,,,1,0,1,0,1,,,,,,,,,,,,,
,,,,,,,,,,5fb3fcb82df261033a5f6e0e,19,Mężczyzna,2022-06-04_09h56.48.075,task,2021.1.4,Win32,240.3846154,628b806c463b948bc644b84f,629b1024a514ffa4e38e4f49,,,,,,,,,,,,,,,,,,,,,,,,,,,,,,,,,,,,,,,,,,,,,,,,,,,,,,,,,,,,,,,,,,,,,,,,,,,,,,,,,,,,,,,,,,,zj,"[""z"",""j""]",0,"[1.629000000000019,1.7340000000000373,2.1639999999999873]",1,ZJ,0,0,0,0,1,,
,,,,,,,,,,5fb3fcb82df261033a5f6e0e,19,Mężczyzna,2022-06-04_09h56.48.075,task,2021.1.4,Win32,240.3846154,628b806c463b948bc644b84f,629b1024a514ffa4e38e4f49,,,,,,,,,,,,,,,,,,,,,,,3,,,,,,,,,,Task,27,(3/3) + 2,3,,,,,,,,,,,,,,,,,,,1,,,,,,,,,,,,,,,,,,,,,,,"[""3""]",1,[6.227000000000089],0,0,0,26,1,,,,,,,,,,,,,,,,,,
,,,,,,,,,,5fb3fcb82df261033a5f6e0e,19,Mężczyzna,2022-06-04_09h56.48.075,task,2021.1.4,Win32,240.3846154,628b806c463b948bc644b84f,629b1024a514ffa4e38e4f49,,,,,,,,,,X V Q F H G B L J M P D K C T S W R N Z,,,,,,,,,,,,,,,,,,,,,,,,,,,,,,,,,,,,,,,,,,,,,,,,,,,,,,,,,,,,,,,,,,,,,,,,,,,,0,0,0,0,1,,,,,,,,,,,,,
,,,,,,,,,,5fb3fcb82df261033a5f6e0e,19,Mężczyzna,2022-06-04_09h56.48.075,task,2021.1.4,Win32,240.3846154,628b806c463b948bc644b84f,629b1024a514ffa4e38e4f49,,,,,,,,,,,,,,,,,,,,,,,,,,,,,,,,,Task,7,(3x7) - 12,9,,,,,,,,,,,,,,,,,,,0,,,,,,,,,,,,,,,,,,,,,,,,0,,0,0,0,6,1,,,,,,,,,,,,,,,,,,
,,,,,,,,,,5fb3fcb82df261033a5f6e0e,19,Mężczyzna,2022-06-04_09h56.48.075,task,2021.1.4,Win32,240.3846154,628b806c463b948bc644b84f,629b1024a514ffa4e38e4f49,,,,,,,,,,,,,,,,,,,,,,,8,,,,,,,,,,Task,32,(8/2) + 4,8,,,,,,,,,,,,,,,,,,,1,,,,,,,,,,,,,,,,,,,,,,,"[""8""]",1,[2.58299999999997],0,1,1,31,1,,,,,,,,,,,,,,,,,,
,,,,,,,,,,5fb3fcb82df261033a5f6e0e,19,Mężczyzna,2022-06-04_09h56.48.075,task,2021.1.4,Win32,240.3846154,628b806c463b948bc644b84f,629b1024a514ffa4e38e4f49,,,,,,,,,,X V Q F H G B L J M P D K C T S W R N Z,,,,,,,,,,,,,,,,,,,,,,,,,,,,,,,,,,,,,,,,,,,,,,,,,,,,,,,,,,,,,,,,,,,,,,,,,,,,1,0,1,0,1,,,,,,,,,,,,,
,,,,,,,,,,5fb3fcb82df261033a5f6e0e,19,Mężczyzna,2022-06-04_09h56.48.075,task,2021.1.4,Win32,240.3846154,628b806c463b948bc644b84f,629b1024a514ffa4e38e4f49,,,,,,,,,,,,,,,,,,,,,,,1,,,,,,,,,,Task,18,(16/4) - 3,1,,,,,,,,,,,,,,,,,,,1,,,,,,,,,,,,,,,,,,,,,,,"[""1""]",1,[3.072999999999979],0,0,0,17,1,,,,,,,,,,,,,,,,,,
,,,,,,,,,,5fb3fcb82df261033a5f6e0e,19,Mężczyzna,2022-06-04_09h56.48.075,task,2021.1.4,Win32,240.3846154,628b806c463b948bc644b84f,629b1024a514ffa4e38e4f49,,,,,,,,,,X V Q F H G B L J M P D K C T S W R N Z,,,,,,,,,,,,,,,,,,,,,,,,,,,,,,,,,,,,,,,,,,,,,,,,,,,,,,,,,,,,,,,,,,,,,,,,,,,,2,0,2,0,1,,,,,,,,,,,,,
,,,,,,,,,,5fb3fcb82df261033a5f6e0e,19,Mężczyzna,2022-06-04_09h56.48.075,task,2021.1.4,Win32,240.3846154,628b806c463b948bc644b84f,629b1024a514ffa4e38e4f49,,,,,,,,,,,,,,,,,,,,,,,,,,,,,,,,,,,,,,,,,,,,,,,,,,,,,,,,,,,,,,,,,,,,,,,,,,,,,,,,,,,,,,,,,,,zrw,"[""z"",""r"",""w""]",0,"[1.1359999999999673,1.3410000000000082,1.5130000000000337,2.7899999999999636]",0,FRW,1,0,1,0,1,,
,,,,,,,,,,5fb3fcb82df261033a5f6e0e,19,Mężczyzna,2022-06-04_09h56.48.075,task,2021.1.4,Win32,240.3846154,628b806c463b948bc644b84f,629b1024a514ffa4e38e4f49,,,,,,,,,,,,,,,,,,,,,,,5,,,,,,,,,,Task,36,(8/4) + 3,5,,,,,,,,,,,,,,,,,,,1,,,,,,,,,,,,,,,,,,,,,,,"[""5""]",1,[2.7509999999999764],0,0,0,35,1,,,,,,,,,,,,,,,,,,
,,,,,,,,,,5fb3fcb82df261033a5f6e0e,19,Mężczyzna,2022-06-04_09h56.48.075,task,2021.1.4,Win32,240.3846154,628b806c463b948bc644b84f,629b1024a514ffa4e38e4f49,,,,,,,,,,X V Q F H G B L J M P D K C T S W R N Z,,,,,,,,,,,,,,,,,,,,,,,,,,,,,,,,,,,,,,,,,,,,,,,,,,,,,,,,,,,,,,,,,,,,,,,,,,,,0,0,0,0,1,,,,,,,,,,,,,
,,,,,,,,,,5fb3fcb82df261033a5f6e0e,19,Mężczyzna,2022-06-04_09h56.48.075,task,2021.1.4,Win32,240.3846154,628b806c463b948bc644b84f,629b1024a514ffa4e38e4f49,,,,,,,,,,,,,,,,,,,,,,,5,,,,,,,,,,Task,12,(4x4) - 11,5,,,,,,,,,,,,,,,,,,,1,,,,,,,,,,,,,,,,,,,,,,,"[""5""]",1,[3.6639999999999873],0,0,0,11,1,,,,,,,,,,,,,,,,,,
,,,,,,,,,,5fb3fcb82df261033a5f6e0e,19,Mężczyzna,2022-06-04_09h56.48.075,task,2021.1.4,Win32,240.3846154,628b806c463b948bc644b84f,629b1024a514ffa4e38e4f49,,,,,,,,,,X V Q F H G B L J M P D K C T S W R N Z,,,,,,,,,,,,,,,,,,,,,,,,,,,,,,,,,,,,,,,,,,,,,,,,,,,,,,,,,,,,,,,,,,,,,,,,,,,,1,0,1,0,1,,,,,,,,,,,,,
,,,,,,,,,,5fb3fcb82df261033a5f6e0e,19,Mężczyzna,2022-06-04_09h56.48.075,task,2021.1.4,Win32,240.3846154,628b806c463b948bc644b84f,629b1024a514ffa4e38e4f49,,,,,,,,,,,,,,,,,,,,,,,9,,,,,,,,,,Task,24,(2x2) + 5,9,,,,,,,,,,,,,,,,,,,1,,,,,,,,,,,,,,,,,,,,,,,"[""9""]",1,[3.3729999999999336],0,0,0,23,1,,,,,,,,,,,,,,,,,,
,,,,,,,,,,5fb3fcb82df261033a5f6e0e,19,Mężczyzna,2022-06-04_09h56.48.075,task,2021.1.4,Win32,240.3846154,628b806c463b948bc644b84f,629b1024a514ffa4e38e4f49,,,,,,,,,,X V Q F H G B L J M P D K C T S W R N Z,,,,,,,,,,,,,,,,,,,,,,,,,,,,,,,,,,,,,,,,,,,,,,,,,,,,,,,,,,,,,,,,,,,,,,,,,,,,2,0,2,0,1,,,,,,,,,,,,,
,,,,,,,,,,5fb3fcb82df261033a5f6e0e,19,Mężczyzna,2022-06-04_09h56.48.075,task,2021.1.4,Win32,240.3846154,628b806c463b948bc644b84f,629b1024a514ffa4e38e4f49,,,,,,,,,,,,,,,,,,,,,,,,,,,,,,,,,,,,,,,,,,,,,,,,,,,,,,,,,,,,,,,,,,,,,,,,,,,,,,,,,,,,,,,,,,,ncq,"[""n"",""c"",""q""]",0,"[1.33400000000006,1.6450000000000955,2.5400000000000773,3.0440000000000964]",1,NCQ,2,0,2,0,1,,
,,,,,,,,,,5fb3fcb82df261033a5f6e0e,19,Mężczyzna,2022-06-04_09h56.48.075,task,2021.1.4,Win32,240.3846154,628b806c463b948bc644b84f,629b1024a514ffa4e38e4f49,,,,,,,,,,,,,,,,,,,,,,,0,,,,,,,,,,Task,8,(1x5) - 5,0,,,,,,,,,,,,,,,,,,,1,,,,,,,,,,,,,,,,,,,,,,,"[""0""]",1,[3.2129999999999654],0,0,0,7,1,,,,,,,,,,,,,,,,,,
,,,,,,,,,,5fb3fcb82df261033a5f6e0e,19,Mężczyzna,2022-06-04_09h56.48.075,task,2021.1.4,Win32,240.3846154,628b806c463b948bc644b84f,629b1024a514ffa4e38e4f49,,,,,,,,,,X V Q F H G B L J M P D K C T S W R N Z,,,,,,,,,,,,,,,,,,,,,,,,,,,,,,,,,,,,,,,,,,,,,,,,,,,,,,,,,,,,,,,,,,,,,,,,,,,,0,0,0,0,1,,,,,,,,,,,,,
,,,,,,,,,,5fb3fcb82df261033a5f6e0e,19,Mężczyzna,2022-06-04_09h56.48.075,task,2021.1.4,Win32,240.3846154,628b806c463b948bc644b84f,629b1024a514ffa4e38e4f49,,,,,,,,,,,,,,,,,,,,,,,8,,,,,,,,,,Task,32,(8/2) + 4,8,,,,,,,,,,,,,,,,,,,1,,,,,,,,,,,,,,,,,,,,,,,"[""8""]",1,[2.5599999999999454],0,0,0,31,1,,,,,,,,,,,,,,,,,,
,,,,,,,,,,5fb3fcb82df261033a5f6e0e,19,Mężczyzna,2022-06-04_09h56.48.075,task,2021.1.4,Win32,240.3846154,628b806c463b948bc644b84f,629b1024a514ffa4e38e4f49,,,,,,,,,,X V Q F H G B L J M P D K C T S W R N Z,,,,,,,,,,,,,,,,,,,,,,,,,,,,,,,,,,,,,,,,,,,,,,,,,,,,,,,,,,,,,,,,,,,,,,,,,,,,1,0,1,0,1,,,,,,,,,,,,,
,,,,,,,,,,5fb3fcb82df261033a5f6e0e,19,Mężczyzna,2022-06-04_09h56.48.075,task,2021.1.4,Win32,240.3846154,628b806c463b948bc644b84f,629b1024a514ffa4e38e4f49,,,,,,,,,,,,,,,,,,,,,,,9,,,,,,,,,,Task,16,(3x8) - 15,9,,,,,,,,,,,,,,,,,,,1,,,,,,,,,,,,,,,,,,,,,,,"[""9""]",1,[5.489000000000033],0,0,0,15,1,,,,,,,,,,,,,,,,,,
,,,,,,,,,,5fb3fcb82df261033a5f6e0e,19,Mężczyzna,2022-06-04_09h56.48.075,task,2021.1.4,Win32,240.3846154,628b806c463b948bc644b84f,629b1024a514ffa4e38e4f49,,,,,,,,,,X V Q F H G B L J M P D K C T S W R N Z,,,,,,,,,,,,,,,,,,,,,,,,,,,,,,,,,,,,,,,,,,,,,,,,,,,,,,,,,,,,,,,,,,,,,,,,,,,,2,0,2,0,1,,,,,,,,,,,,,
,,,,,,,,,,5fb3fcb82df261033a5f6e0e,19,Mężczyzna,2022-06-04_09h56.48.075,task,2021.1.4,Win32,240.3846154,628b806c463b948bc644b84f,629b1024a514ffa4e38e4f49,,,,,,,,,,,,,,,,,,,,,,,6,,,,,,,,,,Task,37,(3/3) + 5,6,,,,,,,,,,,,,,,,,,,1,,,,,,,,,,,,,,,,,,,,,,,"[""6""]",1,[3.4149999999999636],0,0,0,36,1,,,,,,,,,,,,,,,,,,
,,,,,,,,,,5fb3fcb82df261033a5f6e0e,19,Mężczyzna,2022-06-04_09h56.48.075,task,2021.1.4,Win32,240.3846154,628b806c463b948bc644b84f,629b1024a514ffa4e38e4f49,,,,,,,,,,X V Q F H G B L J M P D K C T S W R N Z,,,,,,,,,,,,,,,,,,,,,,,,,,,,,,,,,,,,,,,,,,,,,,,,,,,,,,,,,,,,,,,,,,,,,,,,,,,,3,0,3,0,1,,,,,,,,,,,,,
,,,,,,,,,,5fb3fcb82df261033a5f6e0e,19,Mężczyzna,2022-06-04_09h56.48.075,task,2021.1.4,Win32,240.3846154,628b806c463b948bc644b84f,629b1024a514ffa4e38e4f49,,,,,,,,,,,,,,,,,,,,,,,,,,,,,,,,,,,,,,,,,,,,,,,,,,,,,,,,,,,,,,,,,,,,,,,,,,,,,,,,,,,,,,,,,,,gxnb,"[""g"",""x"",""n"",""b""]",0,"[2.076999999999998,2.365000000000009,3.005999999999972,3.731999999999971,4.38900000000001]",1,GXNB,3,0,3,0,1,,
,,,,,,,,,,5fb3fcb82df261033a5f6e0e,19,Mężczyzna,2022-06-04_09h56.48.075,task,2021.1.4,Win32,240.3846154,628b806c463b948bc644b84f,629b1024a514ffa4e38e4f49,,,,,,,,,,,,,,,,,,,,,,,5,,,,,,,,,,Task,22,(3x1) + 2,5,,,,,,,,,,,,,,,,,,,1,,,,,,,,,,,,,,,,,,,,,,,"[""5""]",1,[3.9950000000000045],0,0,0,21,1,,,,,,,,,,,,,,,,,,
,,,,,,,,,,5fb3fcb82df261033a5f6e0e,19,Mężczyzna,2022-06-04_09h56.48.075,task,2021.1.4,Win32,240.3846154,628b806c463b948bc644b84f,629b1024a514ffa4e38e4f49,,,,,,,,,,X V Q F H G B L J M P D K C T S W R N Z,,,,,,,,,,,,,,,,,,,,,,,,,,,,,,,,,,,,,,,,,,,,,,,,,,,,,,,,,,,,,,,,,,,,,,,,,,,,0,0,0,0,1,,,,,,,,,,,,,
,,,,,,,,,,5fb3fcb82df261033a5f6e0e,19,Mężczyzna,2022-06-04_09h56.48.075,task,2021.1.4,Win32,240.3846154,628b806c463b948bc644b84f,629b1024a514ffa4e38e4f49,,,,,,,,,,,,,,,,,,,,,,,6,,,,,,,,,,Task,13,(3x4) - 6,6,,,,,,,,,,,,,,,,,,,1,,,,,,,,,,,,,,,,,,,,,,,"[""6""]",1,[4.600000000000023],0,0,0,12,1,,,,,,,,,,,,,,,,,,
,,,,,,,,,,5fb3fcb82df261033a5f6e0e,19,Mężczyzna,2022-06-04_09h56.48.075,task,2021.1.4,Win32,240.3846154,628b806c463b948bc644b84f,629b1024a514ffa4e38e4f49,,,,,,,,,,X V Q F H G B L J M P D K C T S W R N Z,,,,,,,,,,,,,,,,,,,,,,,,,,,,,,,,,,,,,,,,,,,,,,,,,,,,,,,,,,,,,,,,,,,,,,,,,,,,1,0,1,0,1,,,,,,,,,,,,,
,,,,,,,,,,5fb3fcb82df261033a5f6e0e,19,Mężczyzna,2022-06-04_09h56.48.075,task,2021.1.4,Win32,240.3846154,628b806c463b948bc644b84f,629b1024a514ffa4e38e4f49,,,,,,,,,,,,,,,,,,,,,,,9,,,,,,,,,,Task,24,(2x2) + 5,9,,,,,,,,,,,,,,,,,,,1,,,,,,,,,,,,,,,,,,,,,,,"[""9""]",1,[2.3139999999999645],0,0,0,23,1,,,,,,,,,,,,,,,,,,
,,,,,,,,,,5fb3fcb82df261033a5f6e0e,19,Mężczyzna,2022-06-04_09h56.48.075,task,2021.1.4,Win32,240.3846154,628b806c463b948bc644b84f,629b1024a514ffa4e38e4f49,,,,,,,,,,X V Q F H G B L J M P D K C T S W R N Z,,,,,,,,,,,,,,,,,,,,,,,,,,,,,,,,,,,,,,,,,,,,,,,,,,,,,,,,,,,,,,,,,,,,,,,,,,,,2,0,2,0,1,,,,,,,,,,,,,
,,,,,,,,,,5fb3fcb82df261033a5f6e0e,19,Mężczyzna,2022-06-04_09h56.48.075,task,2021.1.4,Win32,240.3846154,628b806c463b948bc644b84f,629b1024a514ffa4e38e4f49,,,,,,,,,,,,,,,,,,,,,,,4,,,,,,,,,,Task,11,(18/3) - 2,4,,,,,,,,,,,,,,,,,,,1,,,,,,,,,,,,,,,,,,,,,,,"[""4""]",1,[6.331999999999994],0,0,0,10,1,,,,,,,,,,,,,,,,,,
,,,,,,,,,,5fb3fcb82df261033a5f6e0e,19,Mężczyzna,2022-06-04_09h56.48.075,task,2021.1.4,Win32,240.3846154,628b806c463b948bc644b84f,629b1024a514ffa4e38e4f49,,,,,,,,,,X V Q F H G B L J M P D K C T S W R N Z,,,,,,,,,,,,,,,,,,,,,,,,,,,,,,,,,,,,,,,,,,,,,,,,,,,,,,,,,,,,,,,,,,,,,,,,,,,,3,0,3,0,1,,,,,,,,,,,,,
,,,,,,,,,,5fb3fcb82df261033a5f6e0e,19,Mężczyzna,2022-06-04_09h56.48.075,task,2021.1.4,Win32,240.3846154,628b806c463b948bc644b84f,629b1024a514ffa4e38e4f49,,,,,,,,,,,,,,,,,,,,,,,8,,,,,,,,,,Task,23,(2x3) + 2,8,,,,,,,,,,,,,,,,,,,1,,,,,,,,,,,,,,,,,,,,,,,"[""8""]",1,[5.619000000000028],0,0,0,22,1,,,,,,,,,,,,,,,,,,
,,,,,,,,,,5fb3fcb82df261033a5f6e0e,19,Mężczyzna,2022-06-04_09h56.48.075,task,2021.1.4,Win32,240.3846154,628b806c463b948bc644b84f,629b1024a514ffa4e38e4f49,,,,,,,,,,X V Q F H G B L J M P D K C T S W R N Z,,,,,,,,,,,,,,,,,,,,,,,,,,,,,,,,,,,,,,,,,,,,,,,,,,,,,,,,,,,,,,,,,,,,,,,,,,,,4,0,4,0,1,,,,,,,,,,,,,
,,,,,,,,,,5fb3fcb82df261033a5f6e0e,19,Mężczyzna,2022-06-04_09h56.48.075,task,2021.1.4,Win32,240.3846154,628b806c463b948bc644b84f,629b1024a514ffa4e38e4f49,,,,,,,,,,,,,,,,,,,,,,,,,,,,,,,,,,,,,,,,,,,,,,,,,,,,,,,,,,,,,,,,,,,,,,,,,,,,,,,,,,,,,,,,,,,znqcq,"[""z"",""n"",""q"",""c"",""q""]",0,"[1.4540000000000646,1.75,2.1259999999999764,2.4470000000000027,2.6860000000000355,3.100999999999999]",1,ZNQCQ,4,0,4,0,1,,
,,,,,,,,,,5fb3fcb82df261033a5f6e0e,19,Mężczyzna,2022-06-04_09h56.48.075,task,2021.1.4,Win32,240.3846154,628b806c463b948bc644b84f,629b1024a514ffa4e38e4f49,,,,,,,,,,,,,,,,,,,,,,,1,,,,,,,,,,Task,34,(9/3) - 2,1,,,,,,,,,,,,,,,,,,,1,,,,,,,,,,,,,,,,,,,,,,,"[""1""]",1,[2.5539999999999736],0,0,0,33,1,,,,,,,,,,,,,,,,,,
,,,,,,,,,,5fb3fcb82df261033a5f6e0e,19,Mężczyzna,2022-06-04_09h56.48.075,task,2021.1.4,Win32,240.3846154,628b806c463b948bc644b84f,629b1024a514ffa4e38e4f49,,,,,,,,,,X V Q F H G B L J M P D K C T S W R N Z,,,,,,,,,,,,,,,,,,,,,,,,,,,,,,,,,,,,,,,,,,,,,,,,,,,,,,,,,,,,,,,,,,,,,,,,,,,,0,0,0,0,1,,,,,,,,,,,,,
,,,,,,,,,,5fb3fcb82df261033a5f6e0e,19,Mężczyzna,2022-06-04_09h56.48.075,task,2021.1.4,Win32,240.3846154,628b806c463b948bc644b84f,629b1024a514ffa4e38e4f49,,,,,,,,,,,,,,,,,,,,,,,4,,,,,,,,,,Task,11,(18/3) - 2,4,,,,,,,,,,,,,,,,,,,1,,,,,,,,,,,,,,,,,,,,,,,"[""4""]",1,[5.013000000000034],0,0,0,10,1,,,,,,,,,,,,,,,,,,
,,,,,,,,,,5fb3fcb82df261033a5f6e0e,19,Mężczyzna,2022-06-04_09h56.48.075,task,2021.1.4,Win32,240.3846154,628b806c463b948bc644b84f,629b1024a514ffa4e38e4f49,,,,,,,,,,X V Q F H G B L J M P D K C T S W R N Z,,,,,,,,,,,,,,,,,,,,,,,,,,,,,,,,,,,,,,,,,,,,,,,,,,,,,,,,,,,,,,,,,,,,,,,,,,,,1,0,1,0,1,,,,,,,,,,,,,
,,,,,,,,,,5fb3fcb82df261033a5f6e0e,19,Mężczyzna,2022-06-04_09h56.48.075,task,2021.1.4,Win32,240.3846154,628b806c463b948bc644b84f,629b1024a514ffa4e38e4f49,,,,,,,,,,,,,,,,,,,,,,,5,,,,,,,,,,Task,29,(3x8) - 19 ,5,,,,,,,,,,,,,,,,,,,1,,,,,,,,,,,,,,,,,,,,,,,"[""5""]",1,[4.551000000000045],0,0,0,28,1,,,,,,,,,,,,,,,,,,
,,,,,,,,,,5fb3fcb82df261033a5f6e0e,19,Mężczyzna,2022-06-04_09h56.48.075,task,2021.1.4,Win32,240.3846154,628b806c463b948bc644b84f,629b1024a514ffa4e38e4f49,,,,,,,,,,X V Q F H G B L J M P D K C T S W R N Z,,,,,,,,,,,,,,,,,,,,,,,,,,,,,,,,,,,,,,,,,,,,,,,,,,,,,,,,,,,,,,,,,,,,,,,,,,,,2,0,2,0,1,,,,,,,,,,,,,
,,,,,,,,,,5fb3fcb82df261033a5f6e0e,19,Mężczyzna,2022-06-04_09h56.48.075,task,2021.1.4,Win32,240.3846154,628b806c463b948bc644b84f,629b1024a514ffa4e38e4f49,,,,,,,,,,,,,,,,,,,,,,,3,,,,,,,,,,Task,35,(1x2) + 1,3,,,,,,,,,,,,,,,,,,,1,,,,,,,,,,,,,,,,,,,,,,,"[""3""]",1,[3.100999999999999],0,0,0,34,1,,,,,,,,,,,,,,,,,,
,,,,,,,,,,5fb3fcb82df261033a5f6e0e,19,Mężczyzna,2022-06-04_09h56.48.075,task,2021.1.4,Win32,240.3846154,628b806c463b948bc644b84f,629b1024a514ffa4e38e4f49,,,,,,,,,,X V Q F H G B L J M P D K C T S W R N Z,,,,,,,,,,,,,,,,,,,,,,,,,,,,,,,,,,,,,,,,,,,,,,,,,,,,,,,,,,,,,,,,,,,,,,,,,,,,3,0,3,0,1,,,,,,,,,,,,,
,,,,,,,,,,5fb3fcb82df261033a5f6e0e,19,Mężczyzna,2022-06-04_09h56.48.075,task,2021.1.4,Win32,240.3846154,628b806c463b948bc644b84f,629b1024a514ffa4e38e4f49,,,,,,,,,,,,,,,,,,,,,,,0,,,,,,,,,,Task,17,(2x3) - 6,0,,,,,,,,,,,,,,,,,,,1,,,,,,,,,,,,,,,,,,,,,,,"[""0""]",1,[4.904999999999973],0,0,0,16,1,,,,,,,,,,,,,,,,,,
,,,,,,,,,,5fb3fcb82df261033a5f6e0e,19,Mężczyzna,2022-06-04_09h56.48.075,task,2021.1.4,Win32,240.3846154,628b806c463b948bc644b84f,629b1024a514ffa4e38e4f49,,,,,,,,,,X V Q F H G B L J M P D K C T S W R N Z,,,,,,,,,,,,,,,,,,,,,,,,,,,,,,,,,,,,,,,,,,,,,,,,,,,,,,,,,,,,,,,,,,,,,,,,,,,,4,0,4,0,1,,,,,,,,,,,,,
,,,,,,,,,,5fb3fcb82df261033a5f6e0e,19,Mężczyzna,2022-06-04_09h56.48.075,task,2021.1.4,Win32,240.3846154,628b806c463b948bc644b84f,629b1024a514ffa4e38e4f49,,,,,,,,,,,,,,,,,,,,,,,6,,,,,,,,,,Task,30,(6/3) + 4 ,6,,,,,,,,,,,,,,,,,,,1,,,,,,,,,,,,,,,,,,,,,,,"[""6""]",1,[3.98599999999999],0,0,0,29,1,,,,,,,,,,,,,,,,,,
,,,,,,,,,,5fb3fcb82df261033a5f6e0e,19,Mężczyzna,2022-06-04_09h56.48.075,task,2021.1.4,Win32,240.3846154,628b806c463b948bc644b84f,629b1024a514ffa4e38e4f49,,,,,,,,,,X V Q F H G B L J M P D K C T S W R N Z,,,,,,,,,,,,,,,,,,,,,,,,,,,,,,,,,,,,,,,,,,,,,,,,,,,,,,,,,,,,,,,,,,,,,,,,,,,,5,0,5,0,1,,,,,,,,,,,,,
,,,,,,,,,,5fb3fcb82df261033a5f6e0e,19,Mężczyzna,2022-06-04_09h56.48.075,task,2021.1.4,Win32,240.3846154,628b806c463b948bc644b84f,629b1024a514ffa4e38e4f49,,,,,,,,,,,,,,,,,,,,,,,,,,,,,,,,,,,,,,,,,,,,,,,,,,,,,,,,,,,,,,,,,,,,,,,,,,,,,,,,,,,,,,,,,,,zqvrs,"[""z"",""q"",""v"",""r"",""s""]",0,"[1.3659999999999854,2.2379999999999427,3.228999999999928,3.6949999999999363,4.212999999999965,7.467999999999961]",0,CQVRSG,5,0,5,0,1,,
,,,,,,,,,,5fb3fcb82df261033a5f6e0e,19,Mężczyzna,2022-06-04_09h56.48.075,task,2021.1.4,Win32,240.3846154,628b806c463b948bc644b84f,629b1024a514ffa4e38e4f49,,,,,,,,,,,,,,,,,,,,,,,6,,,,,,,,,,Task,3,(2x3) - 3,3,,,,,,,,,,,,,,,,,,,0,,,,,,,,,,,,,,,,,,,,,,,"[""6""]",0,[4.708999999999946],0,0,0,2,1,,,,,,,,,,,,,,,,,,
,,,,,,,,,,5fb3fcb82df261033a5f6e0e,19,Mężczyzna,2022-06-04_09h56.48.075,task,2021.1.4,Win32,240.3846154,628b806c463b948bc644b84f,629b1024a514ffa4e38e4f49,,,,,,,,,,,,,,,,,,,,,,,5,,,,,,,,,,Task,1,(12/6) - 1,1,,,,,,,,,,,,,,,,,,,0,,,,,,,,,,,,,,,,,,,,,,,"[""5""]",0,[5.272000000000048],0,1,1,0,1,,,,,,,,,,,,,,,,,,
,,,,,,,,,,5fb3fcb82df261033a5f6e0e,19,Mężczyzna,2022-06-04_09h56.48.075,task,2021.1.4,Win32,240.3846154,628b806c463b948bc644b84f,629b1024a514ffa4e38e4f49,,,,,,,,,,,,,,,,,,,,,,,5,,,,,,,,,,Task,12,(4x4) - 11,5,,,,,,,,,,,,,,,,,,,1,,,,,,,,,,,,,,,,,,,,,,,"[""5""]",1,[2.826999999999998],0,2,2,11,1,,,,,,,,,,,,,,,,,,
,,,,,,,,,,5fb3fcb82df261033a5f6e0e,19,Mężczyzna,2022-06-04_09h56.48.075,task,2021.1.4,Win32,240.3846154,628b806c463b948bc644b84f,629b1024a514ffa4e38e4f49,,,,,,,,,,X V Q F H G B L J M P D K C T S W R N Z,,,,,,,,,,,,,,,,,,,,,,,,,,,,,,,,,,,,,,,,,,,,,,,,,,,,,,,,,,,,,,,,,,,,,,,,,,,,0,0,0,0,1,,,,,,,,,,,,,
,,,,,,,,,,5fb3fcb82df261033a5f6e0e,19,Mężczyzna,2022-06-04_09h56.48.075,task,2021.1.4,Win32,240.3846154,628b806c463b948bc644b84f,629b1024a514ffa4e38e4f49,,,,,,,,,,,,,,,,,,,,,,,7,,,,,,,,,,Task,31,(4/2) + 5,7,,,,,,,,,,,,,,,,,,,1,,,,,,,,,,,,,,,,,,,,,,,"[""7""]",1,[3.1269999999999527],0,0,0,30,1,,,,,,,,,,,,,,,,,,
,,,,,,,,,,5fb3fcb82df261033a5f6e0e,19,Mężczyzna,2022-06-04_09h56.48.075,task,2021.1.4,Win32,240.3846154,628b806c463b948bc644b84f,629b1024a514ffa4e38e4f49,,,,,,,,,,X V Q F H G B L J M P D K C T S W R N Z,,,,,,,,,,,,,,,,,,,,,,,,,,,,,,,,,,,,,,,,,,,,,,,,,,,,,,,,,,,,,,,,,,,,,,,,,,,,1,0,1,0,1,,,,,,,,,,,,,
,,,,,,,,,,5fb3fcb82df261033a5f6e0e,19,Mężczyzna,2022-06-04_09h56.48.075,task,2021.1.4,Win32,240.3846154,628b806c463b948bc644b84f,629b1024a514ffa4e38e4f49,,,,,,,,,,,,,,,,,,,,,,,5,,,,,,,,,,Task,22,(3x1) + 2,5,,,,,,,,,,,,,,,,,,,1,,,,,,,,,,,,,,,,,,,,,,,"[""5""]",1,[2.923000000000002],0,0,0,21,1,,,,,,,,,,,,,,,,,,
,,,,,,,,,,5fb3fcb82df261033a5f6e0e,19,Mężczyzna,2022-06-04_09h56.48.075,task,2021.1.4,Win32,240.3846154,628b806c463b948bc644b84f,629b1024a514ffa4e38e4f49,,,,,,,,,,X V Q F H G B L J M P D K C T S W R N Z,,,,,,,,,,,,,,,,,,,,,,,,,,,,,,,,,,,,,,,,,,,,,,,,,,,,,,,,,,,,,,,,,,,,,,,,,,,,2,0,2,0,1,,,,,,,,,,,,,
,,,,,,,,,,5fb3fcb82df261033a5f6e0e,19,Mężczyzna,2022-06-04_09h56.48.075,task,2021.1.4,Win32,240.3846154,628b806c463b948bc644b84f,629b1024a514ffa4e38e4f49,,,,,,,,,,,,,,,,,,,,,,,3,,,,,,,,,,Task,3,(2x3) - 3,3,,,,,,,,,,,,,,,,,,,1,,,,,,,,,,,,,,,,,,,,,,,"[""3""]",1,[3.102000000000089],0,0,0,2,1,,,,,,,,,,,,,,,,,,
,,,,,,,,,,5fb3fcb82df261033a5f6e0e,19,Mężczyzna,2022-06-04_09h56.48.075,task,2021.1.4,Win32,240.3846154,628b806c463b948bc644b84f,629b1024a514ffa4e38e4f49,,,,,,,,,,X V Q F H G B L J M P D K C T S W R N Z,,,,,,,,,,,,,,,,,,,,,,,,,,,,,,,,,,,,,,,,,,,,,,,,,,,,,,,,,,,,,,,,,,,,,,,,,,,,3,0,3,0,1,,,,,,,,,,,,,
,,,,,,,,,,5fb3fcb82df261033a5f6e0e,19,Mężczyzna,2022-06-04_09h56.48.075,task,2021.1.4,Win32,240.3846154,628b806c463b948bc644b84f,629b1024a514ffa4e38e4f49,,,,,,,,,,,,,,,,,,,,,,,,,,,,,,,,,Task,34,(9/3) - 2,1,,,,,,,,,,,,,,,,,,,0,,,,,,,,,,,,,,,,,,,,,,,,0,,0,0,0,33,1,,,,,,,,,,,,,,,,,,
,,,,,,,,,,5fb3fcb82df261033a5f6e0e,19,Mężczyzna,2022-06-04_09h56.48.075,task,2021.1.4,Win32,240.3846154,628b806c463b948bc644b84f,629b1024a514ffa4e38e4f49,,,,,,,,,,,,,,,,,,,,,,,2,,,,,,,,,,Task,10,(2x5) - 8,2,,,,,,,,,,,,,,,,,,,1,,,,,,,,,,,,,,,,,,,,,,,"[""2""]",1,[3.0839999999999463],0,1,1,9,1,,,,,,,,,,,,,,,,,,
,,,,,,,,,,5fb3fcb82df261033a5f6e0e,19,Mężczyzna,2022-06-04_09h56.48.075,task,2021.1.4,Win32,240.3846154,628b806c463b948bc644b84f,629b1024a514ffa4e38e4f49,,,,,,,,,,X V Q F H G B L J M P D K C T S W R N Z,,,,,,,,,,,,,,,,,,,,,,,,,,,,,,,,,,,,,,,,,,,,,,,,,,,,,,,,,,,,,,,,,,,,,,,,,,,,4,0,4,0,1,,,,,,,,,,,,,
,,,,,,,,,,5fb3fcb82df261033a5f6e0e,19,Mężczyzna,2022-06-04_09h56.48.075,task,2021.1.4,Win32,240.3846154,628b806c463b948bc644b84f,629b1024a514ffa4e38e4f49,,,,,,,,,,,,,,,,,,,,,,,7,,,,,,,,,,Task,14,(2x2) + 3,7,,,,,,,,,,,,,,,,,,,1,,,,,,,,,,,,,,,,,,,,,,,"[""7""]",1,[3.0599999999999454],0,0,0,13,1,,,,,,,,,,,,,,,,,,
,,,,,,,,,,5fb3fcb82df261033a5f6e0e,19,Mężczyzna,2022-06-04_09h56.48.075,task,2021.1.4,Win32,240.3846154,628b806c463b948bc644b84f,629b1024a514ffa4e38e4f49,,,,,,,,,,X V Q F H G B L J M P D K C T S W R N Z,,,,,,,,,,,,,,,,,,,,,,,,,,,,,,,,,,,,,,,,,,,,,,,,,,,,,,,,,,,,,,,,,,,,,,,,,,,,5,0,5,0,1,,,,,,,,,,,,,
,,,,,,,,,,5fb3fcb82df261033a5f6e0e,19,Mężczyzna,2022-06-04_09h56.48.075,task,2021.1.4,Win32,240.3846154,628b806c463b948bc644b84f,629b1024a514ffa4e38e4f49,,,,,,,,,,,,,,,,,,,,,,,,,,,,,,,,,,,,,,,,,,,,,,,,,,,,,,,,,,,,,,,,,,,,,,,,,,,,,,,,,,,,,,,,,,,zsftc,"[""z"",""s"",""f"",""t"",""c""]",0,"[3.0230000000000246,3.22199999999998,5.022000000000048,8.014999999999986,8.365000000000009,8.573999999999955]",0,ZGDVWZ,6,0,6,0,1,,
,,,,,,,,,,5fb3fcb82df261033a5f6e0e,19,Mężczyzna,2022-06-04_09h56.48.075,task,2021.1.4,Win32,240.3846154,628b806c463b948bc644b84f,629b1024a514ffa4e38e4f49,,,,,,,,,,,,,,,,,,,,,,,,,,,,,,,,,,,,,,,,,,,,,,,,,,,,,,,,,,,,,,,,,,,,,,,,,,,,,,,,,,,,,,,,,,,,,,,,,,,,,,space,2.128
