key_resp_15.keys,key_resp_15.rt,key_resp_13.keys,key_resp_13.corr,key_resp_13.rt,ranodm_loop.thisRepN,ranodm_loop.thisTrialN,ranodm_loop.thisN,ranodm_loop.thisIndex,ranodm_loop.ran,participant,Wiek*,Płeć,date,expName,psychopyVersion,OS,frameRate,study_id,session,key_resp_16.keys,key_resp_16.rt,key_resp_4.keys,key_resp_4.rt,next_letter.thisRepN,next_letter.thisTrialN,next_letter.thisN,next_letter.thisIndex,next_letter.ran,letter,simple_recall,key_resp_5.keys,key_resp_5.rt,simple_recall_corr,simple_recall_corrkeys,next_level.thisRepN,next_level.thisTrialN,next_level.thisN,next_level.thisIndex,next_level.ran,key_resp_2.keys,key_resp_2.rt,digit_answer,key_resp.keys,key_resp.corr,key_resp.rt,RT_list,next_equation.thisRepN,next_equation.thisTrialN,next_equation.thisN,next_equation.thisIndex,next_equation.ran,Task,Trial,Problem,Operation_answer,processing_score,sumRT,meanRT,sumdiff,sd,RT,key_resp_3.keys,key_resp_3.rt,repeat_practice.thisRepN,repeat_practice.thisTrialN,repeat_practice.thisN,repeat_practice.thisIndex,repeat_practice.ran,key_resp_6.keys,key_resp_6.rt,key_resp_11.keys,key_resp_11.corr,key_resp_11.rt,operation_correct,repeat_if_wrong_prac.thisRepN,repeat_if_wrong_prac.thisTrialN,repeat_if_wrong_prac.thisN,repeat_if_wrong_prac.thisIndex,repeat_if_wrong_prac.ran,span_size_prac.thisRepN,span_size_prac.thisTrialN,span_size_prac.thisN,span_size_prac.thisIndex,span_size_prac.ran,complex_recall_practice,key_resp_9.keys,key_resp_9.corr,key_resp_9.rt,complex_prac_corr,span_recall_prac.thisRepN,span_recall_prac.thisTrialN,span_recall_prac.thisN,span_recall_prac.thisIndex,span_recall_prac.ran,key_resp_10.keys,key_resp_10.rt,key_resp_7.keys,key_resp_7.corr,key_resp_7.rt,repeat_if_wrong.thisRepN,repeat_if_wrong.thisTrialN,repeat_if_wrong.thisN,repeat_if_wrong.thisIndex,repeat_if_wrong.ran,span_size.thisRepN,span_size.thisTrialN,span_size.thisN,span_size.thisIndex,span_size.ran,complex_recall,key_resp_8.keys,key_resp_8.corr,key_resp_8.rt,complex_recall_corr,complex_recall_corrkeys,span_recall.thisRepN,span_recall.thisTrialN,span_recall.thisN,span_recall.thisIndex,span_recall.ran,key_resp_12.keys,key_resp_12.rt
space,15.1928,"[""comma""]",0,[1.0476999999880832],0,0,0,0,1,5fb7cfde7808523cea8ee891,22,Mężczyzna,2022-06-04_08h09.29.243,task,2021.1.4,Win32,74.92320372,628b806c463b948bc644b84f,629af730872a5a5560271f91,,,,,,,,,,,,,,,,,,,,,,,,,,,,,,,,,,,,,,,,,,,,,,,,,,,,,,,,,,,,,,,,,,,,,,,,,,,,,,,,,,,,,,,,,,,,,,,,,,,,,,,
,,"[""period""]",0,[0.5348000000119271],1,0,1,0,1,5fb7cfde7808523cea8ee891,22,Mężczyzna,2022-06-04_08h09.29.243,task,2021.1.4,Win32,74.92320372,628b806c463b948bc644b84f,629af730872a5a5560271f91,,,,,,,,,,,,,,,,,,,,,,,,,,,,,,,,,,,,,,,,,,,,,,,,,,,,,,,,,,,,,,,,,,,,,,,,,,,,,,,,,,,,,,,,,,,,,,,,,,,,,,,
,,"[""comma""]",0,[0.6929000000357632],2,0,2,0,1,5fb7cfde7808523cea8ee891,22,Mężczyzna,2022-06-04_08h09.29.243,task,2021.1.4,Win32,74.92320372,628b806c463b948bc644b84f,629af730872a5a5560271f91,,,,,,,,,,,,,,,,,,,,,,,,,,,,,,,,,,,,,,,,,,,,,,,,,,,,,,,,,,,,,,,,,,,,,,,,,,,,,,,,,,,,,,,,,,,,,,,,,,,,,,,
,,"[""comma""]",0,[0.7486999999880766],3,0,3,0,1,5fb7cfde7808523cea8ee891,22,Mężczyzna,2022-06-04_08h09.29.243,task,2021.1.4,Win32,74.92320372,628b806c463b948bc644b84f,629af730872a5a5560271f91,,,,,,,,,,,,,,,,,,,,,,,,,,,,,,,,,,,,,,,,,,,,,,,,,,,,,,,,,,,,,,,,,,,,,,,,,,,,,,,,,,,,,,,,,,,,,,,,,,,,,,,
,,"[""period""]",0,[0.7215999999642406],4,0,4,0,1,5fb7cfde7808523cea8ee891,22,Mężczyzna,2022-06-04_08h09.29.243,task,2021.1.4,Win32,74.92320372,628b806c463b948bc644b84f,629af730872a5a5560271f91,,,,,,,,,,,,,,,,,,,,,,,,,,,,,,,,,,,,,,,,,,,,,,,,,,,,,,,,,,,,,,,,,,,,,,,,,,,,,,,,,,,,,,,,,,,,,,,,,,,,,,,
,,"[""comma""]",0,[0.8684999999999974],5,0,5,0,1,5fb7cfde7808523cea8ee891,22,Mężczyzna,2022-06-04_08h09.29.243,task,2021.1.4,Win32,74.92320372,628b806c463b948bc644b84f,629af730872a5a5560271f91,,,,,,,,,,,,,,,,,,,,,,,,,,,,,,,,,,,,,,,,,,,,,,,,,,,,,,,,,,,,,,,,,,,,,,,,,,,,,,,,,,,,,,,,,,,,,,,,,,,,,,,
,,"[""period""]",0,[0.5620999999642464],6,0,6,0,1,5fb7cfde7808523cea8ee891,22,Mężczyzna,2022-06-04_08h09.29.243,task,2021.1.4,Win32,74.92320372,628b806c463b948bc644b84f,629af730872a5a5560271f91,,,,,,,,,,,,,,,,,,,,,,,,,,,,,,,,,,,,,,,,,,,,,,,,,,,,,,,,,,,,,,,,,,,,,,,,,,,,,,,,,,,,,,,,,,,,,,,,,,,,,,,
,,"[""comma""]",0,[0.41540000003575983],7,0,7,0,1,5fb7cfde7808523cea8ee891,22,Mężczyzna,2022-06-04_08h09.29.243,task,2021.1.4,Win32,74.92320372,628b806c463b948bc644b84f,629af730872a5a5560271f91,,,,,,,,,,,,,,,,,,,,,,,,,,,,,,,,,,,,,,,,,,,,,,,,,,,,,,,,,,,,,,,,,,,,,,,,,,,,,,,,,,,,,,,,,,,,,,,,,,,,,,,
,,"[""period""]",0,[0.5216999999880869],8,0,8,0,1,5fb7cfde7808523cea8ee891,22,Mężczyzna,2022-06-04_08h09.29.243,task,2021.1.4,Win32,74.92320372,628b806c463b948bc644b84f,629af730872a5a5560271f91,,,,,,,,,,,,,,,,,,,,,,,,,,,,,,,,,,,,,,,,,,,,,,,,,,,,,,,,,,,,,,,,,,,,,,,,,,,,,,,,,,,,,,,,,,,,,,,,,,,,,,,
,,"[""period""]",0,[0.5088999999761512],9,0,9,0,1,5fb7cfde7808523cea8ee891,22,Mężczyzna,2022-06-04_08h09.29.243,task,2021.1.4,Win32,74.92320372,628b806c463b948bc644b84f,629af730872a5a5560271f91,,,,,,,,,,,,,,,,,,,,,,,,,,,,,,,,,,,,,,,,,,,,,,,,,,,,,,,,,,,,,,,,,,,,,,,,,,,,,,,,,,,,,,,,,,,,,,,,,,,,,,,
,,"[""period""]",0,[0.4683999999761568],10,0,10,0,1,5fb7cfde7808523cea8ee891,22,Mężczyzna,2022-06-04_08h09.29.243,task,2021.1.4,Win32,74.92320372,628b806c463b948bc644b84f,629af730872a5a5560271f91,,,,,,,,,,,,,,,,,,,,,,,,,,,,,,,,,,,,,,,,,,,,,,,,,,,,,,,,,,,,,,,,,,,,,,,,,,,,,,,,,,,,,,,,,,,,,,,,,,,,,,,
,,"[""comma""]",0,[0.5006999999880861],11,0,11,0,1,5fb7cfde7808523cea8ee891,22,Mężczyzna,2022-06-04_08h09.29.243,task,2021.1.4,Win32,74.92320372,628b806c463b948bc644b84f,629af730872a5a5560271f91,,,,,,,,,,,,,,,,,,,,,,,,,,,,,,,,,,,,,,,,,,,,,,,,,,,,,,,,,,,,,,,,,,,,,,,,,,,,,,,,,,,,,,,,,,,,,,,,,,,,,,,
,,"[""period""]",0,[0.3486999999880709],12,0,12,0,1,5fb7cfde7808523cea8ee891,22,Mężczyzna,2022-06-04_08h09.29.243,task,2021.1.4,Win32,74.92320372,628b806c463b948bc644b84f,629af730872a5a5560271f91,,,,,,,,,,,,,,,,,,,,,,,,,,,,,,,,,,,,,,,,,,,,,,,,,,,,,,,,,,,,,,,,,,,,,,,,,,,,,,,,,,,,,,,,,,,,,,,,,,,,,,,
,,"[""comma""]",0,[0.351699999988071],13,0,13,0,1,5fb7cfde7808523cea8ee891,22,Mężczyzna,2022-06-04_08h09.29.243,task,2021.1.4,Win32,74.92320372,628b806c463b948bc644b84f,629af730872a5a5560271f91,,,,,,,,,,,,,,,,,,,,,,,,,,,,,,,,,,,,,,,,,,,,,,,,,,,,,,,,,,,,,,,,,,,,,,,,,,,,,,,,,,,,,,,,,,,,,,,,,,,,,,,
,,"[""period""]",0,[0.47340000003576677],14,0,14,0,1,5fb7cfde7808523cea8ee891,22,Mężczyzna,2022-06-04_08h09.29.243,task,2021.1.4,Win32,74.92320372,628b806c463b948bc644b84f,629af730872a5a5560271f91,,,,,,,,,,,,,,,,,,,,,,,,,,,,,,,,,,,,,,,,,,,,,,,,,,,,,,,,,,,,,,,,,,,,,,,,,,,,,,,,,,,,,,,,,,,,,,,,,,,,,,,
,,"[""period""]",0,[0.3348999999761588],15,0,15,0,1,5fb7cfde7808523cea8ee891,22,Mężczyzna,2022-06-04_08h09.29.243,task,2021.1.4,Win32,74.92320372,628b806c463b948bc644b84f,629af730872a5a5560271f91,,,,,,,,,,,,,,,,,,,,,,,,,,,,,,,,,,,,,,,,,,,,,,,,,,,,,,,,,,,,,,,,,,,,,,,,,,,,,,,,,,,,,,,,,,,,,,,,,,,,,,,
,,"[""comma""]",0,[0.33960000002383595],16,0,16,0,1,5fb7cfde7808523cea8ee891,22,Mężczyzna,2022-06-04_08h09.29.243,task,2021.1.4,Win32,74.92320372,628b806c463b948bc644b84f,629af730872a5a5560271f91,,,,,,,,,,,,,,,,,,,,,,,,,,,,,,,,,,,,,,,,,,,,,,,,,,,,,,,,,,,,,,,,,,,,,,,,,,,,,,,,,,,,,,,,,,,,,,,,,,,,,,,
,,"[""period""]",0,[0.3113000000119257],17,0,17,0,1,5fb7cfde7808523cea8ee891,22,Mężczyzna,2022-06-04_08h09.29.243,task,2021.1.4,Win32,74.92320372,628b806c463b948bc644b84f,629af730872a5a5560271f91,,,,,,,,,,,,,,,,,,,,,,,,,,,,,,,,,,,,,,,,,,,,,,,,,,,,,,,,,,,,,,,,,,,,,,,,,,,,,,,,,,,,,,,,,,,,,,,,,,,,,,,
,,"[""comma""]",0,[0.32080000001192843],18,0,18,0,1,5fb7cfde7808523cea8ee891,22,Mężczyzna,2022-06-04_08h09.29.243,task,2021.1.4,Win32,74.92320372,628b806c463b948bc644b84f,629af730872a5a5560271f91,,,,,,,,,,,,,,,,,,,,,,,,,,,,,,,,,,,,,,,,,,,,,,,,,,,,,,,,,,,,,,,,,,,,,,,,,,,,,,,,,,,,,,,,,,,,,,,,,,,,,,,
,,"[""comma""]",0,[0.26089999997616076],19,0,19,0,1,5fb7cfde7808523cea8ee891,22,Mężczyzna,2022-06-04_08h09.29.243,task,2021.1.4,Win32,74.92320372,628b806c463b948bc644b84f,629af730872a5a5560271f91,,,,,,,,,,,,,,,,,,,,,,,,,,,,,,,,,,,,,,,,,,,,,,,,,,,,,,,,,,,,,,,,,,,,,,,,,,,,,,,,,,,,,,,,,,,,,,,,,,,,,,,
,,"[""period""]",0,[0.2536000000238374],20,0,20,0,1,5fb7cfde7808523cea8ee891,22,Mężczyzna,2022-06-04_08h09.29.243,task,2021.1.4,Win32,74.92320372,628b806c463b948bc644b84f,629af730872a5a5560271f91,,,,,,,,,,,,,,,,,,,,,,,,,,,,,,,,,,,,,,,,,,,,,,,,,,,,,,,,,,,,,,,,,,,,,,,,,,,,,,,,,,,,,,,,,,,,,,,,,,,,,,,
,,"[""comma""]",0,[0.28489999997616167],21,0,21,0,1,5fb7cfde7808523cea8ee891,22,Mężczyzna,2022-06-04_08h09.29.243,task,2021.1.4,Win32,74.92320372,628b806c463b948bc644b84f,629af730872a5a5560271f91,,,,,,,,,,,,,,,,,,,,,,,,,,,,,,,,,,,,,,,,,,,,,,,,,,,,,,,,,,,,,,,,,,,,,,,,,,,,,,,,,,,,,,,,,,,,,,,,,,,,,,,
,,"[""period""]",0,[0.21539999997615666],22,0,22,0,1,5fb7cfde7808523cea8ee891,22,Mężczyzna,2022-06-04_08h09.29.243,task,2021.1.4,Win32,74.92320372,628b806c463b948bc644b84f,629af730872a5a5560271f91,,,,,,,,,,,,,,,,,,,,,,,,,,,,,,,,,,,,,,,,,,,,,,,,,,,,,,,,,,,,,,,,,,,,,,,,,,,,,,,,,,,,,,,,,,,,,,,,,,,,,,,
,,"[""period""]",0,[0.202099999964247],23,0,23,0,1,5fb7cfde7808523cea8ee891,22,Mężczyzna,2022-06-04_08h09.29.243,task,2021.1.4,Win32,74.92320372,628b806c463b948bc644b84f,629af730872a5a5560271f91,,,,,,,,,,,,,,,,,,,,,,,,,,,,,,,,,,,,,,,,,,,,,,,,,,,,,,,,,,,,,,,,,,,,,,,,,,,,,,,,,,,,,,,,,,,,,,,,,,,,,,,
,,"[""period""]",0,[0.24130000001193253],24,0,24,0,1,5fb7cfde7808523cea8ee891,22,Mężczyzna,2022-06-04_08h09.29.243,task,2021.1.4,Win32,74.92320372,628b806c463b948bc644b84f,629af730872a5a5560271f91,,,,,,,,,,,,,,,,,,,,,,,,,,,,,,,,,,,,,,,,,,,,,,,,,,,,,,,,,,,,,,,,,,,,,,,,,,,,,,,,,,,,,,,,,,,,,,,,,,,,,,,
,,"[""period""]",0,[0.20239999997616565],25,0,25,0,1,5fb7cfde7808523cea8ee891,22,Mężczyzna,2022-06-04_08h09.29.243,task,2021.1.4,Win32,74.92320372,628b806c463b948bc644b84f,629af730872a5a5560271f91,,,,,,,,,,,,,,,,,,,,,,,,,,,,,,,,,,,,,,,,,,,,,,,,,,,,,,,,,,,,,,,,,,,,,,,,,,,,,,,,,,,,,,,,,,,,,,,,,,,,,,,
,,"[""comma""]",0,[0.3206000000238589],26,0,26,0,1,5fb7cfde7808523cea8ee891,22,Mężczyzna,2022-06-04_08h09.29.243,task,2021.1.4,Win32,74.92320372,628b806c463b948bc644b84f,629af730872a5a5560271f91,,,,,,,,,,,,,,,,,,,,,,,,,,,,,,,,,,,,,,,,,,,,,,,,,,,,,,,,,,,,,,,,,,,,,,,,,,,,,,,,,,,,,,,,,,,,,,,,,,,,,,,
,,"[""comma""]",0,[0.24389999997615064],27,0,27,0,1,5fb7cfde7808523cea8ee891,22,Mężczyzna,2022-06-04_08h09.29.243,task,2021.1.4,Win32,74.92320372,628b806c463b948bc644b84f,629af730872a5a5560271f91,,,,,,,,,,,,,,,,,,,,,,,,,,,,,,,,,,,,,,,,,,,,,,,,,,,,,,,,,,,,,,,,,,,,,,,,,,,,,,,,,,,,,,,,,,,,,,,,,,,,,,,
,,"[""period""]",0,[0.2441000000238489],28,0,28,0,1,5fb7cfde7808523cea8ee891,22,Mężczyzna,2022-06-04_08h09.29.243,task,2021.1.4,Win32,74.92320372,628b806c463b948bc644b84f,629af730872a5a5560271f91,,,,,,,,,,,,,,,,,,,,,,,,,,,,,,,,,,,,,,,,,,,,,,,,,,,,,,,,,,,,,,,,,,,,,,,,,,,,,,,,,,,,,,,,,,,,,,,,,,,,,,,
,,"[""comma""]",0,[0.23080000001192502],29,0,29,0,1,5fb7cfde7808523cea8ee891,22,Mężczyzna,2022-06-04_08h09.29.243,task,2021.1.4,Win32,74.92320372,628b806c463b948bc644b84f,629af730872a5a5560271f91,,,,,,,,,,,,,,,,,,,,,,,,,,,,,,,,,,,,,,,,,,,,,,,,,,,,,,,,,,,,,,,,,,,,,,,,,,,,,,,,,,,,,,,,,,,,,,,,,,,,,,,
,,"[""period""]",0,[0.2681000000238498],30,0,30,0,1,5fb7cfde7808523cea8ee891,22,Mężczyzna,2022-06-04_08h09.29.243,task,2021.1.4,Win32,74.92320372,628b806c463b948bc644b84f,629af730872a5a5560271f91,,,,,,,,,,,,,,,,,,,,,,,,,,,,,,,,,,,,,,,,,,,,,,,,,,,,,,,,,,,,,,,,,,,,,,,,,,,,,,,,,,,,,,,,,,,,,,,,,,,,,,,
,,"[""comma""]",0,[0.16169999998808748],31,0,31,0,1,5fb7cfde7808523cea8ee891,22,Mężczyzna,2022-06-04_08h09.29.243,task,2021.1.4,Win32,74.92320372,628b806c463b948bc644b84f,629af730872a5a5560271f91,,,,,,,,,,,,,,,,,,,,,,,,,,,,,,,,,,,,,,,,,,,,,,,,,,,,,,,,,,,,,,,,,,,,,,,,,,,,,,,,,,,,,,,,,,,,,,,,,,,,,,,
,,"[""comma""]",0,[0.16209999996422653],32,0,32,0,1,5fb7cfde7808523cea8ee891,22,Mężczyzna,2022-06-04_08h09.29.243,task,2021.1.4,Win32,74.92320372,628b806c463b948bc644b84f,629af730872a5a5560271f91,,,,,,,,,,,,,,,,,,,,,,,,,,,,,,,,,,,,,,,,,,,,,,,,,,,,,,,,,,,,,,,,,,,,,,,,,,,,,,,,,,,,,,,,,,,,,,,,,,,,,,,
,,"[""comma""]",0,[0.37280000001192093],33,0,33,0,1,5fb7cfde7808523cea8ee891,22,Mężczyzna,2022-06-04_08h09.29.243,task,2021.1.4,Win32,74.92320372,628b806c463b948bc644b84f,629af730872a5a5560271f91,,,,,,,,,,,,,,,,,,,,,,,,,,,,,,,,,,,,,,,,,,,,,,,,,,,,,,,,,,,,,,,,,,,,,,,,,,,,,,,,,,,,,,,,,,,,,,,,,,,,,,,
,,"[""period""]",0,[0.26560000002382367],34,0,34,0,1,5fb7cfde7808523cea8ee891,22,Mężczyzna,2022-06-04_08h09.29.243,task,2021.1.4,Win32,74.92320372,628b806c463b948bc644b84f,629af730872a5a5560271f91,,,,,,,,,,,,,,,,,,,,,,,,,,,,,,,,,,,,,,,,,,,,,,,,,,,,,,,,,,,,,,,,,,,,,,,,,,,,,,,,,,,,,,,,,,,,,,,,,,,,,,,
,,"[""comma""]",0,[0.09609999996425245],35,0,35,0,1,5fb7cfde7808523cea8ee891,22,Mężczyzna,2022-06-04_08h09.29.243,task,2021.1.4,Win32,74.92320372,628b806c463b948bc644b84f,629af730872a5a5560271f91,,,,,,,,,,,,,,,,,,,,,,,,,,,,,,,,,,,,,,,,,,,,,,,,,,,,,,,,,,,,,,,,,,,,,,,,,,,,,,,,,,,,,,,,,,,,,,,,,,,,,,,
,,"[""period""]",0,[0.05320000004766712],36,0,36,0,1,5fb7cfde7808523cea8ee891,22,Mężczyzna,2022-06-04_08h09.29.243,task,2021.1.4,Win32,74.92320372,628b806c463b948bc644b84f,629af730872a5a5560271f91,,,,,,,,,,,,,,,,,,,,,,,,,,,,,,,,,,,,,,,,,,,,,,,,,,,,,,,,,,,,,,,,,,,,,,,,,,,,,,,,,,,,,,,,,,,,,,,,,,,,,,,
,,"[""period""]",0,[0.4019999999999868],37,0,37,0,1,5fb7cfde7808523cea8ee891,22,Mężczyzna,2022-06-04_08h09.29.243,task,2021.1.4,Win32,74.92320372,628b806c463b948bc644b84f,629af730872a5a5560271f91,,,,,,,,,,,,,,,,,,,,,,,,,,,,,,,,,,,,,,,,,,,,,,,,,,,,,,,,,,,,,,,,,,,,,,,,,,,,,,,,,,,,,,,,,,,,,,,,,,,,,,,
,,"[""comma""]",0,[0.30639999997615064],38,0,38,0,1,5fb7cfde7808523cea8ee891,22,Mężczyzna,2022-06-04_08h09.29.243,task,2021.1.4,Win32,74.92320372,628b806c463b948bc644b84f,629af730872a5a5560271f91,,,,,,,,,,,,,,,,,,,,,,,,,,,,,,,,,,,,,,,,,,,,,,,,,,,,,,,,,,,,,,,,,,,,,,,,,,,,,,,,,,,,,,,,,,,,,,,,,,,,,,,
,,"[""comma""]",0,[0.3722999999523324],39,0,39,0,1,5fb7cfde7808523cea8ee891,22,Mężczyzna,2022-06-04_08h09.29.243,task,2021.1.4,Win32,74.92320372,628b806c463b948bc644b84f,629af730872a5a5560271f91,,,,,,,,,,,,,,,,,,,,,,,,,,,,,,,,,,,,,,,,,,,,,,,,,,,,,,,,,,,,,,,,,,,,,,,,,,,,,,,,,,,,,,,,,,,,,,,,,,,,,,,
,,"[""period""]",0,[0.4123000000119248],40,0,40,0,1,5fb7cfde7808523cea8ee891,22,Mężczyzna,2022-06-04_08h09.29.243,task,2021.1.4,Win32,74.92320372,628b806c463b948bc644b84f,629af730872a5a5560271f91,,,,,,,,,,,,,,,,,,,,,,,,,,,,,,,,,,,,,,,,,,,,,,,,,,,,,,,,,,,,,,,,,,,,,,,,,,,,,,,,,,,,,,,,,,,,,,,,,,,,,,,
,,"[""comma""]",0,[0.5315000000000225],41,0,41,0,1,5fb7cfde7808523cea8ee891,22,Mężczyzna,2022-06-04_08h09.29.243,task,2021.1.4,Win32,74.92320372,628b806c463b948bc644b84f,629af730872a5a5560271f91,,,,,,,,,,,,,,,,,,,,,,,,,,,,,,,,,,,,,,,,,,,,,,,,,,,,,,,,,,,,,,,,,,,,,,,,,,,,,,,,,,,,,,,,,,,,,,,,,,,,,,,
,,"[""comma""]",0,[0.3906999999881009],42,0,42,0,1,5fb7cfde7808523cea8ee891,22,Mężczyzna,2022-06-04_08h09.29.243,task,2021.1.4,Win32,74.92320372,628b806c463b948bc644b84f,629af730872a5a5560271f91,,,,,,,,,,,,,,,,,,,,,,,,,,,,,,,,,,,,,,,,,,,,,,,,,,,,,,,,,,,,,,,,,,,,,,,,,,,,,,,,,,,,,,,,,,,,,,,,,,,,,,,
,,"[""period""]",0,[0.24339999997616246],43,0,43,0,1,5fb7cfde7808523cea8ee891,22,Mężczyzna,2022-06-04_08h09.29.243,task,2021.1.4,Win32,74.92320372,628b806c463b948bc644b84f,629af730872a5a5560271f91,,,,,,,,,,,,,,,,,,,,,,,,,,,,,,,,,,,,,,,,,,,,,,,,,,,,,,,,,,,,,,,,,,,,,,,,,,,,,,,,,,,,,,,,,,,,,,,,,,,,,,,
,,"[""period""]",0,[0.4695000000000107],44,0,44,0,1,5fb7cfde7808523cea8ee891,22,Mężczyzna,2022-06-04_08h09.29.243,task,2021.1.4,Win32,74.92320372,628b806c463b948bc644b84f,629af730872a5a5560271f91,,,,,,,,,,,,,,,,,,,,,,,,,,,,,,,,,,,,,,,,,,,,,,,,,,,,,,,,,,,,,,,,,,,,,,,,,,,,,,,,,,,,,,,,,,,,,,,,,,,,,,,
,,"[""comma""]",0,[0.2821000000238598],45,0,45,0,1,5fb7cfde7808523cea8ee891,22,Mężczyzna,2022-06-04_08h09.29.243,task,2021.1.4,Win32,74.92320372,628b806c463b948bc644b84f,629af730872a5a5560271f91,,,,,,,,,,,,,,,,,,,,,,,,,,,,,,,,,,,,,,,,,,,,,,,,,,,,,,,,,,,,,,,,,,,,,,,,,,,,,,,,,,,,,,,,,,,,,,,,,,,,,,,
,,"[""period""]",0,[0.29650000000000887],46,0,46,0,1,5fb7cfde7808523cea8ee891,22,Mężczyzna,2022-06-04_08h09.29.243,task,2021.1.4,Win32,74.92320372,628b806c463b948bc644b84f,629af730872a5a5560271f91,,,,,,,,,,,,,,,,,,,,,,,,,,,,,,,,,,,,,,,,,,,,,,,,,,,,,,,,,,,,,,,,,,,,,,,,,,,,,,,,,,,,,,,,,,,,,,,,,,,,,,,
,,"[""comma""]",0,[0.2604000000357587],47,0,47,0,1,5fb7cfde7808523cea8ee891,22,Mężczyzna,2022-06-04_08h09.29.243,task,2021.1.4,Win32,74.92320372,628b806c463b948bc644b84f,629af730872a5a5560271f91,,,,,,,,,,,,,,,,,,,,,,,,,,,,,,,,,,,,,,,,,,,,,,,,,,,,,,,,,,,,,,,,,,,,,,,,,,,,,,,,,,,,,,,,,,,,,,,,,,,,,,,
,,"[""comma""]",0,[0.3881999999881032],48,0,48,0,1,5fb7cfde7808523cea8ee891,22,Mężczyzna,2022-06-04_08h09.29.243,task,2021.1.4,Win32,74.92320372,628b806c463b948bc644b84f,629af730872a5a5560271f91,,,,,,,,,,,,,,,,,,,,,,,,,,,,,,,,,,,,,,,,,,,,,,,,,,,,,,,,,,,,,,,,,,,,,,,,,,,,,,,,,,,,,,,,,,,,,,,,,,,,,,,
,,"[""period""]",0,[0.24280000001192548],49,0,49,0,1,5fb7cfde7808523cea8ee891,22,Mężczyzna,2022-06-04_08h09.29.243,task,2021.1.4,Win32,74.92320372,628b806c463b948bc644b84f,629af730872a5a5560271f91,,,,,,,,,,,,,,,,,,,,,,,,,,,,,,,,,,,,,,,,,,,,,,,,,,,,,,,,,,,,,,,,,,,,,,,,,,,,,,,,,,,,,,,,,,,,,,,,,,,,,,,
,,"[""period""]",0,[0.41919999998808066],50,0,50,0,1,5fb7cfde7808523cea8ee891,22,Mężczyzna,2022-06-04_08h09.29.243,task,2021.1.4,Win32,74.92320372,628b806c463b948bc644b84f,629af730872a5a5560271f91,,,,,,,,,,,,,,,,,,,,,,,,,,,,,,,,,,,,,,,,,,,,,,,,,,,,,,,,,,,,,,,,,,,,,,,,,,,,,,,,,,,,,,,,,,,,,,,,,,,,,,,
,,"[""comma""]",0,[0.2664000000357589],51,0,51,0,1,5fb7cfde7808523cea8ee891,22,Mężczyzna,2022-06-04_08h09.29.243,task,2021.1.4,Win32,74.92320372,628b806c463b948bc644b84f,629af730872a5a5560271f91,,,,,,,,,,,,,,,,,,,,,,,,,,,,,,,,,,,,,,,,,,,,,,,,,,,,,,,,,,,,,,,,,,,,,,,,,,,,,,,,,,,,,,,,,,,,,,,,,,,,,,,
,,"[""period""]",0,[0.23269999998808544],52,0,52,0,1,5fb7cfde7808523cea8ee891,22,Mężczyzna,2022-06-04_08h09.29.243,task,2021.1.4,Win32,74.92320372,628b806c463b948bc644b84f,629af730872a5a5560271f91,,,,,,,,,,,,,,,,,,,,,,,,,,,,,,,,,,,,,,,,,,,,,,,,,,,,,,,,,,,,,,,,,,,,,,,,,,,,,,,,,,,,,,,,,,,,,,,,,,,,,,,
,,"[""comma""]",0,[0.3254999999999768],53,0,53,0,1,5fb7cfde7808523cea8ee891,22,Mężczyzna,2022-06-04_08h09.29.243,task,2021.1.4,Win32,74.92320372,628b806c463b948bc644b84f,629af730872a5a5560271f91,,,,,,,,,,,,,,,,,,,,,,,,,,,,,,,,,,,,,,,,,,,,,,,,,,,,,,,,,,,,,,,,,,,,,,,,,,,,,,,,,,,,,,,,,,,,,,,,,,,,,,,
,,"[""period""]",0,[0.4393999999761604],54,0,54,0,1,5fb7cfde7808523cea8ee891,22,Mężczyzna,2022-06-04_08h09.29.243,task,2021.1.4,Win32,74.92320372,628b806c463b948bc644b84f,629af730872a5a5560271f91,,,,,,,,,,,,,,,,,,,,,,,,,,,,,,,,,,,,,,,,,,,,,,,,,,,,,,,,,,,,,,,,,,,,,,,,,,,,,,,,,,,,,,,,,,,,,,,,,,,,,,,
,,"[""period""]",0,[0.3015000000000043],55,0,55,0,1,5fb7cfde7808523cea8ee891,22,Mężczyzna,2022-06-04_08h09.29.243,task,2021.1.4,Win32,74.92320372,628b806c463b948bc644b84f,629af730872a5a5560271f91,,,,,,,,,,,,,,,,,,,,,,,,,,,,,,,,,,,,,,,,,,,,,,,,,,,,,,,,,,,,,,,,,,,,,,,,,,,,,,,,,,,,,,,,,,,,,,,,,,,,,,,
,,"[""period""]",0,[0.27060000002384754],56,0,56,0,1,5fb7cfde7808523cea8ee891,22,Mężczyzna,2022-06-04_08h09.29.243,task,2021.1.4,Win32,74.92320372,628b806c463b948bc644b84f,629af730872a5a5560271f91,,,,,,,,,,,,,,,,,,,,,,,,,,,,,,,,,,,,,,,,,,,,,,,,,,,,,,,,,,,,,,,,,,,,,,,,,,,,,,,,,,,,,,,,,,,,,,,,,,,,,,,
,,"[""comma""]",0,[0.32149999999998613],57,0,57,0,1,5fb7cfde7808523cea8ee891,22,Mężczyzna,2022-06-04_08h09.29.243,task,2021.1.4,Win32,74.92320372,628b806c463b948bc644b84f,629af730872a5a5560271f91,,,,,,,,,,,,,,,,,,,,,,,,,,,,,,,,,,,,,,,,,,,,,,,,,,,,,,,,,,,,,,,,,,,,,,,,,,,,,,,,,,,,,,,,,,,,,,,,,,,,,,,
,,"[""period""]",0,[0.38829999995229514],58,0,58,0,1,5fb7cfde7808523cea8ee891,22,Mężczyzna,2022-06-04_08h09.29.243,task,2021.1.4,Win32,74.92320372,628b806c463b948bc644b84f,629af730872a5a5560271f91,,,,,,,,,,,,,,,,,,,,,,,,,,,,,,,,,,,,,,,,,,,,,,,,,,,,,,,,,,,,,,,,,,,,,,,,,,,,,,,,,,,,,,,,,,,,,,,,,,,,,,,
,,"[""comma""]",0,[0.23930000001192298],59,0,59,0,1,5fb7cfde7808523cea8ee891,22,Mężczyzna,2022-06-04_08h09.29.243,task,2021.1.4,Win32,74.92320372,628b806c463b948bc644b84f,629af730872a5a5560271f91,,,,,,,,,,,,,,,,,,,,,,,,,,,,,,,,,,,,,,,,,,,,,,,,,,,,,,,,,,,,,,,,,,,,,,,,,,,,,,,,,,,,,,,,,,,,,,,,,,,,,,,
,,"[""comma""]",0,[0.1261000000238539],60,0,60,0,1,5fb7cfde7808523cea8ee891,22,Mężczyzna,2022-06-04_08h09.29.243,task,2021.1.4,Win32,74.92320372,628b806c463b948bc644b84f,629af730872a5a5560271f91,,,,,,,,,,,,,,,,,,,,,,,,,,,,,,,,,,,,,,,,,,,,,,,,,,,,,,,,,,,,,,,,,,,,,,,,,,,,,,,,,,,,,,,,,,,,,,,,,,,,,,,
,,"[""comma""]",0,[0.24060000002381798],61,0,61,0,1,5fb7cfde7808523cea8ee891,22,Mężczyzna,2022-06-04_08h09.29.243,task,2021.1.4,Win32,74.92320372,628b806c463b948bc644b84f,629af730872a5a5560271f91,,,,,,,,,,,,,,,,,,,,,,,,,,,,,,,,,,,,,,,,,,,,,,,,,,,,,,,,,,,,,,,,,,,,,,,,,,,,,,,,,,,,,,,,,,,,,,,,,,,,,,,
,,"[""comma""]",0,[0.240299999952299],62,0,62,0,1,5fb7cfde7808523cea8ee891,22,Mężczyzna,2022-06-04_08h09.29.243,task,2021.1.4,Win32,74.92320372,628b806c463b948bc644b84f,629af730872a5a5560271f91,,,,,,,,,,,,,,,,,,,,,,,,,,,,,,,,,,,,,,,,,,,,,,,,,,,,,,,,,,,,,,,,,,,,,,,,,,,,,,,,,,,,,,,,,,,,,,,,,,,,,,,
,,"[""period""]",0,[0.3211999999880675],63,0,63,0,1,5fb7cfde7808523cea8ee891,22,Mężczyzna,2022-06-04_08h09.29.243,task,2021.1.4,Win32,74.92320372,628b806c463b948bc644b84f,629af730872a5a5560271f91,,,,,,,,,,,,,,,,,,,,,,,,,,,,,,,,,,,,,,,,,,,,,,,,,,,,,,,,,,,,,,,,,,,,,,,,,,,,,,,,,,,,,,,,,,,,,,,,,,,,,,,
,,"[""period""]",0,[0.4831999999880736],64,0,64,0,1,5fb7cfde7808523cea8ee891,22,Mężczyzna,2022-06-04_08h09.29.243,task,2021.1.4,Win32,74.92320372,628b806c463b948bc644b84f,629af730872a5a5560271f91,,,,,,,,,,,,,,,,,,,,,,,,,,,,,,,,,,,,,,,,,,,,,,,,,,,,,,,,,,,,,,,,,,,,,,,,,,,,,,,,,,,,,,,,,,,,,,,,,,,,,,,
,,"[""comma""]",0,[0.41450000000000387],65,0,65,0,1,5fb7cfde7808523cea8ee891,22,Mężczyzna,2022-06-04_08h09.29.243,task,2021.1.4,Win32,74.92320372,628b806c463b948bc644b84f,629af730872a5a5560271f91,,,,,,,,,,,,,,,,,,,,,,,,,,,,,,,,,,,,,,,,,,,,,,,,,,,,,,,,,,,,,,,,,,,,,,,,,,,,,,,,,,,,,,,,,,,,,,,,,,,,,,,
,,"[""comma""]",0,[0.4410000000000025],66,0,66,0,1,5fb7cfde7808523cea8ee891,22,Mężczyzna,2022-06-04_08h09.29.243,task,2021.1.4,Win32,74.92320372,628b806c463b948bc644b84f,629af730872a5a5560271f91,,,,,,,,,,,,,,,,,,,,,,,,,,,,,,,,,,,,,,,,,,,,,,,,,,,,,,,,,,,,,,,,,,,,,,,,,,,,,,,,,,,,,,,,,,,,,,,,,,,,,,,
,,"[""period""]",0,[0.4012999999523288],67,0,67,0,1,5fb7cfde7808523cea8ee891,22,Mężczyzna,2022-06-04_08h09.29.243,task,2021.1.4,Win32,74.92320372,628b806c463b948bc644b84f,629af730872a5a5560271f91,,,,,,,,,,,,,,,,,,,,,,,,,,,,,,,,,,,,,,,,,,,,,,,,,,,,,,,,,,,,,,,,,,,,,,,,,,,,,,,,,,,,,,,,,,,,,,,,,,,,,,,
,,"[""comma""]",0,[0.36110000002383913],68,0,68,0,1,5fb7cfde7808523cea8ee891,22,Mężczyzna,2022-06-04_08h09.29.243,task,2021.1.4,Win32,74.92320372,628b806c463b948bc644b84f,629af730872a5a5560271f91,,,,,,,,,,,,,,,,,,,,,,,,,,,,,,,,,,,,,,,,,,,,,,,,,,,,,,,,,,,,,,,,,,,,,,,,,,,,,,,,,,,,,,,,,,,,,,,,,,,,,,,
,,"[""comma""]",0,[0.4546000000238166],69,0,69,0,1,5fb7cfde7808523cea8ee891,22,Mężczyzna,2022-06-04_08h09.29.243,task,2021.1.4,Win32,74.92320372,628b806c463b948bc644b84f,629af730872a5a5560271f91,,,,,,,,,,,,,,,,,,,,,,,,,,,,,,,,,,,,,,,,,,,,,,,,,,,,,,,,,,,,,,,,,,,,,,,,,,,,,,,,,,,,,,,,,,,,,,,,,,,,,,,
,,"[""period""]",0,[0.26650000000000773],70,0,70,0,1,5fb7cfde7808523cea8ee891,22,Mężczyzna,2022-06-04_08h09.29.243,task,2021.1.4,Win32,74.92320372,628b806c463b948bc644b84f,629af730872a5a5560271f91,,,,,,,,,,,,,,,,,,,,,,,,,,,,,,,,,,,,,,,,,,,,,,,,,,,,,,,,,,,,,,,,,,,,,,,,,,,,,,,,,,,,,,,,,,,,,,,,,,,,,,,
,,"[""period""]",0,[0.3345000000000198],71,0,71,0,1,5fb7cfde7808523cea8ee891,22,Mężczyzna,2022-06-04_08h09.29.243,task,2021.1.4,Win32,74.92320372,628b806c463b948bc644b84f,629af730872a5a5560271f91,,,,,,,,,,,,,,,,,,,,,,,,,,,,,,,,,,,,,,,,,,,,,,,,,,,,,,,,,,,,,,,,,,,,,,,,,,,,,,,,,,,,,,,,,,,,,,,,,,,,,,,
,,"[""period""]",0,[0.2560000000000002],72,0,72,0,1,5fb7cfde7808523cea8ee891,22,Mężczyzna,2022-06-04_08h09.29.243,task,2021.1.4,Win32,74.92320372,628b806c463b948bc644b84f,629af730872a5a5560271f91,,,,,,,,,,,,,,,,,,,,,,,,,,,,,,,,,,,,,,,,,,,,,,,,,,,,,,,,,,,,,,,,,,,,,,,,,,,,,,,,,,,,,,,,,,,,,,,,,,,,,,,
,,"[""comma""]",0,[0.24159999996422243],73,0,73,0,1,5fb7cfde7808523cea8ee891,22,Mężczyzna,2022-06-04_08h09.29.243,task,2021.1.4,Win32,74.92320372,628b806c463b948bc644b84f,629af730872a5a5560271f91,,,,,,,,,,,,,,,,,,,,,,,,,,,,,,,,,,,,,,,,,,,,,,,,,,,,,,,,,,,,,,,,,,,,,,,,,,,,,,,,,,,,,,,,,,,,,,,,,,,,,,,
,,"[""comma""]",0,[0.2692000000476753],74,0,74,0,1,5fb7cfde7808523cea8ee891,22,Mężczyzna,2022-06-04_08h09.29.243,task,2021.1.4,Win32,74.92320372,628b806c463b948bc644b84f,629af730872a5a5560271f91,,,,,,,,,,,,,,,,,,,,,,,,,,,,,,,,,,,,,,,,,,,,,,,,,,,,,,,,,,,,,,,,,,,,,,,,,,,,,,,,,,,,,,,,,,,,,,,,,,,,,,,
,,"[""period""]",0,[0.2308999999761454],75,0,75,0,1,5fb7cfde7808523cea8ee891,22,Mężczyzna,2022-06-04_08h09.29.243,task,2021.1.4,Win32,74.92320372,628b806c463b948bc644b84f,629af730872a5a5560271f91,,,,,,,,,,,,,,,,,,,,,,,,,,,,,,,,,,,,,,,,,,,,,,,,,,,,,,,,,,,,,,,,,,,,,,,,,,,,,,,,,,,,,,,,,,,,,,,,,,,,,,,
,,"[""period""]",0,[0.22819999998807816],76,0,76,0,1,5fb7cfde7808523cea8ee891,22,Mężczyzna,2022-06-04_08h09.29.243,task,2021.1.4,Win32,74.92320372,628b806c463b948bc644b84f,629af730872a5a5560271f91,,,,,,,,,,,,,,,,,,,,,,,,,,,,,,,,,,,,,,,,,,,,,,,,,,,,,,,,,,,,,,,,,,,,,,,,,,,,,,,,,,,,,,,,,,,,,,,,,,,,,,,
,,"[""period""]",0,[0.29519999998808544],77,0,77,0,1,5fb7cfde7808523cea8ee891,22,Mężczyzna,2022-06-04_08h09.29.243,task,2021.1.4,Win32,74.92320372,628b806c463b948bc644b84f,629af730872a5a5560271f91,,,,,,,,,,,,,,,,,,,,,,,,,,,,,,,,,,,,,,,,,,,,,,,,,,,,,,,,,,,,,,,,,,,,,,,,,,,,,,,,,,,,,,,,,,,,,,,,,,,,,,,
,,"[""comma""]",0,[0.2688999999761563],78,0,78,0,1,5fb7cfde7808523cea8ee891,22,Mężczyzna,2022-06-04_08h09.29.243,task,2021.1.4,Win32,74.92320372,628b806c463b948bc644b84f,629af730872a5a5560271f91,,,,,,,,,,,,,,,,,,,,,,,,,,,,,,,,,,,,,,,,,,,,,,,,,,,,,,,,,,,,,,,,,,,,,,,,,,,,,,,,,,,,,,,,,,,,,,,,,,,,,,,
,,"[""comma""]",0,[0.2938000000119132],79,0,79,0,1,5fb7cfde7808523cea8ee891,22,Mężczyzna,2022-06-04_08h09.29.243,task,2021.1.4,Win32,74.92320372,628b806c463b948bc644b84f,629af730872a5a5560271f91,,,,,,,,,,,,,,,,,,,,,,,,,,,,,,,,,,,,,,,,,,,,,,,,,,,,,,,,,,,,,,,,,,,,,,,,,,,,,,,,,,,,,,,,,,,,,,,,,,,,,,,
,,"[""comma""]",0,[0.24469999998805747],80,0,80,0,1,5fb7cfde7808523cea8ee891,22,Mężczyzna,2022-06-04_08h09.29.243,task,2021.1.4,Win32,74.92320372,628b806c463b948bc644b84f,629af730872a5a5560271f91,,,,,,,,,,,,,,,,,,,,,,,,,,,,,,,,,,,,,,,,,,,,,,,,,,,,,,,,,,,,,,,,,,,,,,,,,,,,,,,,,,,,,,,,,,,,,,,,,,,,,,,
,,"[""comma""]",0,[0.2448999999761554],81,0,81,0,1,5fb7cfde7808523cea8ee891,22,Mężczyzna,2022-06-04_08h09.29.243,task,2021.1.4,Win32,74.92320372,628b806c463b948bc644b84f,629af730872a5a5560271f91,,,,,,,,,,,,,,,,,,,,,,,,,,,,,,,,,,,,,,,,,,,,,,,,,,,,,,,,,,,,,,,,,,,,,,,,,,,,,,,,,,,,,,,,,,,,,,,,,,,,,,,
,,"[""comma""]",0,[0.1881000000238373],82,0,82,0,1,5fb7cfde7808523cea8ee891,22,Mężczyzna,2022-06-04_08h09.29.243,task,2021.1.4,Win32,74.92320372,628b806c463b948bc644b84f,629af730872a5a5560271f91,,,,,,,,,,,,,,,,,,,,,,,,,,,,,,,,,,,,,,,,,,,,,,,,,,,,,,,,,,,,,,,,,,,,,,,,,,,,,,,,,,,,,,,,,,,,,,,,,,,,,,,
,,"[""period""]",0,[0.23250000000001592],83,0,83,0,1,5fb7cfde7808523cea8ee891,22,Mężczyzna,2022-06-04_08h09.29.243,task,2021.1.4,Win32,74.92320372,628b806c463b948bc644b84f,629af730872a5a5560271f91,,,,,,,,,,,,,,,,,,,,,,,,,,,,,,,,,,,,,,,,,,,,,,,,,,,,,,,,,,,,,,,,,,,,,,,,,,,,,,,,,,,,,,,,,,,,,,,,,,,,,,,
,,"[""comma""]",0,[0.2406000000238464],84,0,84,0,1,5fb7cfde7808523cea8ee891,22,Mężczyzna,2022-06-04_08h09.29.243,task,2021.1.4,Win32,74.92320372,628b806c463b948bc644b84f,629af730872a5a5560271f91,,,,,,,,,,,,,,,,,,,,,,,,,,,,,,,,,,,,,,,,,,,,,,,,,,,,,,,,,,,,,,,,,,,,,,,,,,,,,,,,,,,,,,,,,,,,,,,,,,,,,,,
,,"[""period""]",0,[0.22860000002384595],85,0,85,0,1,5fb7cfde7808523cea8ee891,22,Mężczyzna,2022-06-04_08h09.29.243,task,2021.1.4,Win32,74.92320372,628b806c463b948bc644b84f,629af730872a5a5560271f91,,,,,,,,,,,,,,,,,,,,,,,,,,,,,,,,,,,,,,,,,,,,,,,,,,,,,,,,,,,,,,,,,,,,,,,,,,,,,,,,,,,,,,,,,,,,,,,,,,,,,,,
,,"[""comma""]",0,[0.015500000000002956],86,0,86,0,1,5fb7cfde7808523cea8ee891,22,Mężczyzna,2022-06-04_08h09.29.243,task,2021.1.4,Win32,74.92320372,628b806c463b948bc644b84f,629af730872a5a5560271f91,,,,,,,,,,,,,,,,,,,,,,,,,,,,,,,,,,,,,,,,,,,,,,,,,,,,,,,,,,,,,,,,,,,,,,,,,,,,,,,,,,,,,,,,,,,,,,,,,,,,,,,
,,"[""comma""]",0,[0.24190000003576984],87,0,87,0,1,5fb7cfde7808523cea8ee891,22,Mężczyzna,2022-06-04_08h09.29.243,task,2021.1.4,Win32,74.92320372,628b806c463b948bc644b84f,629af730872a5a5560271f91,,,,,,,,,,,,,,,,,,,,,,,,,,,,,,,,,,,,,,,,,,,,,,,,,,,,,,,,,,,,,,,,,,,,,,,,,,,,,,,,,,,,,,,,,,,,,,,,,,,,,,,
,,"[""comma""]",0,[0.32150000000001455],88,0,88,0,1,5fb7cfde7808523cea8ee891,22,Mężczyzna,2022-06-04_08h09.29.243,task,2021.1.4,Win32,74.92320372,628b806c463b948bc644b84f,629af730872a5a5560271f91,,,,,,,,,,,,,,,,,,,,,,,,,,,,,,,,,,,,,,,,,,,,,,,,,,,,,,,,,,,,,,,,,,,,,,,,,,,,,,,,,,,,,,,,,,,,,,,,,,,,,,,
,,"[""period""]",0,[0.47230000001189865],89,0,89,0,1,5fb7cfde7808523cea8ee891,22,Mężczyzna,2022-06-04_08h09.29.243,task,2021.1.4,Win32,74.92320372,628b806c463b948bc644b84f,629af730872a5a5560271f91,,,,,,,,,,,,,,,,,,,,,,,,,,,,,,,,,,,,,,,,,,,,,,,,,,,,,,,,,,,,,,,,,,,,,,,,,,,,,,,,,,,,,,,,,,,,,,,,,,,,,,,
,,"[""comma""]",0,[0.5619000000357346],90,0,90,0,1,5fb7cfde7808523cea8ee891,22,Mężczyzna,2022-06-04_08h09.29.243,task,2021.1.4,Win32,74.92320372,628b806c463b948bc644b84f,629af730872a5a5560271f91,,,,,,,,,,,,,,,,,,,,,,,,,,,,,,,,,,,,,,,,,,,,,,,,,,,,,,,,,,,,,,,,,,,,,,,,,,,,,,,,,,,,,,,,,,,,,,,,,,,,,,,
,,"[""period""]",0,[0.5468999999761195],91,0,91,0,1,5fb7cfde7808523cea8ee891,22,Mężczyzna,2022-06-04_08h09.29.243,task,2021.1.4,Win32,74.92320372,628b806c463b948bc644b84f,629af730872a5a5560271f91,,,,,,,,,,,,,,,,,,,,,,,,,,,,,,,,,,,,,,,,,,,,,,,,,,,,,,,,,,,,,,,,,,,,,,,,,,,,,,,,,,,,,,,,,,,,,,,,,,,,,,,
,,"[""comma""]",0,[0.4451999999880627],92,0,92,0,1,5fb7cfde7808523cea8ee891,22,Mężczyzna,2022-06-04_08h09.29.243,task,2021.1.4,Win32,74.92320372,628b806c463b948bc644b84f,629af730872a5a5560271f91,,,,,,,,,,,,,,,,,,,,,,,,,,,,,,,,,,,,,,,,,,,,,,,,,,,,,,,,,,,,,,,,,,,,,,,,,,,,,,,,,,,,,,,,,,,,,,,,,,,,,,,
,,"[""period""]",0,[0.4596000000238405],93,0,93,0,1,5fb7cfde7808523cea8ee891,22,Mężczyzna,2022-06-04_08h09.29.243,task,2021.1.4,Win32,74.92320372,628b806c463b948bc644b84f,629af730872a5a5560271f91,,,,,,,,,,,,,,,,,,,,,,,,,,,,,,,,,,,,,,,,,,,,,,,,,,,,,,,,,,,,,,,,,,,,,,,,,,,,,,,,,,,,,,,,,,,,,,,,,,,,,,,
,,"[""comma""]",0,[0.5389000000357669],94,0,94,0,1,5fb7cfde7808523cea8ee891,22,Mężczyzna,2022-06-04_08h09.29.243,task,2021.1.4,Win32,74.92320372,628b806c463b948bc644b84f,629af730872a5a5560271f91,,,,,,,,,,,,,,,,,,,,,,,,,,,,,,,,,,,,,,,,,,,,,,,,,,,,,,,,,,,,,,,,,,,,,,,,,,,,,,,,,,,,,,,,,,,,,,,,,,,,,,,
,,"[""period""]",0,[0.97589999997615],95,0,95,0,1,5fb7cfde7808523cea8ee891,22,Mężczyzna,2022-06-04_08h09.29.243,task,2021.1.4,Win32,74.92320372,628b806c463b948bc644b84f,629af730872a5a5560271f91,,,,,,,,,,,,,,,,,,,,,,,,,,,,,,,,,,,,,,,,,,,,,,,,,,,,,,,,,,,,,,,,,,,,,,,,,,,,,,,,,,,,,,,,,,,,,,,,,,,,,,,
,,"[""comma""]",0,[0.6440999999642258],96,0,96,0,1,5fb7cfde7808523cea8ee891,22,Mężczyzna,2022-06-04_08h09.29.243,task,2021.1.4,Win32,74.92320372,628b806c463b948bc644b84f,629af730872a5a5560271f91,,,,,,,,,,,,,,,,,,,,,,,,,,,,,,,,,,,,,,,,,,,,,,,,,,,,,,,,,,,,,,,,,,,,,,,,,,,,,,,,,,,,,,,,,,,,,,,,,,,,,,,
,,"[""period""]",0,[0.5888999999761495],97,0,97,0,1,5fb7cfde7808523cea8ee891,22,Mężczyzna,2022-06-04_08h09.29.243,task,2021.1.4,Win32,74.92320372,628b806c463b948bc644b84f,629af730872a5a5560271f91,,,,,,,,,,,,,,,,,,,,,,,,,,,,,,,,,,,,,,,,,,,,,,,,,,,,,,,,,,,,,,,,,,,,,,,,,,,,,,,,,,,,,,,,,,,,,,,,,,,,,,,
,,"[""comma""]",0,[0.46930000001191274],98,0,98,0,1,5fb7cfde7808523cea8ee891,22,Mężczyzna,2022-06-04_08h09.29.243,task,2021.1.4,Win32,74.92320372,628b806c463b948bc644b84f,629af730872a5a5560271f91,,,,,,,,,,,,,,,,,,,,,,,,,,,,,,,,,,,,,,,,,,,,,,,,,,,,,,,,,,,,,,,,,,,,,,,,,,,,,,,,,,,,,,,,,,,,,,,,,,,,,,,
,,"[""comma""]",0,[0.48200000000002774],99,0,99,0,1,5fb7cfde7808523cea8ee891,22,Mężczyzna,2022-06-04_08h09.29.243,task,2021.1.4,Win32,74.92320372,628b806c463b948bc644b84f,629af730872a5a5560271f91,,,,,,,,,,,,,,,,,,,,,,,,,,,,,,,,,,,,,,,,,,,,,,,,,,,,,,,,,,,,,,,,,,,,,,,,,,,,,,,,,,,,,,,,,,,,,,,,,,,,,,,
,,"[""comma""]",0,[0.4853000000119323],100,0,100,0,1,5fb7cfde7808523cea8ee891,22,Mężczyzna,2022-06-04_08h09.29.243,task,2021.1.4,Win32,74.92320372,628b806c463b948bc644b84f,629af730872a5a5560271f91,,,,,,,,,,,,,,,,,,,,,,,,,,,,,,,,,,,,,,,,,,,,,,,,,,,,,,,,,,,,,,,,,,,,,,,,,,,,,,,,,,,,,,,,,,,,,,,,,,,,,,,
,,"[""period""]",0,[0.3599999999999568],101,0,101,0,1,5fb7cfde7808523cea8ee891,22,Mężczyzna,2022-06-04_08h09.29.243,task,2021.1.4,Win32,74.92320372,628b806c463b948bc644b84f,629af730872a5a5560271f91,,,,,,,,,,,,,,,,,,,,,,,,,,,,,,,,,,,,,,,,,,,,,,,,,,,,,,,,,,,,,,,,,,,,,,,,,,,,,,,,,,,,,,,,,,,,,,,,,,,,,,,
,,"[""period""]",0,[0.23990000003573186],102,0,102,0,1,5fb7cfde7808523cea8ee891,22,Mężczyzna,2022-06-04_08h09.29.243,task,2021.1.4,Win32,74.92320372,628b806c463b948bc644b84f,629af730872a5a5560271f91,,,,,,,,,,,,,,,,,,,,,,,,,,,,,,,,,,,,,,,,,,,,,,,,,,,,,,,,,,,,,,,,,,,,,,,,,,,,,,,,,,,,,,,,,,,,,,,,,,,,,,,
,,"[""period""]",0,[0.26780000001190274],103,0,103,0,1,5fb7cfde7808523cea8ee891,22,Mężczyzna,2022-06-04_08h09.29.243,task,2021.1.4,Win32,74.92320372,628b806c463b948bc644b84f,629af730872a5a5560271f91,,,,,,,,,,,,,,,,,,,,,,,,,,,,,,,,,,,,,,,,,,,,,,,,,,,,,,,,,,,,,,,,,,,,,,,,,,,,,,,,,,,,,,,,,,,,,,,,,,,,,,,
,,"[""comma""]",0,[0.4391999999880909],104,0,104,0,1,5fb7cfde7808523cea8ee891,22,Mężczyzna,2022-06-04_08h09.29.243,task,2021.1.4,Win32,74.92320372,628b806c463b948bc644b84f,629af730872a5a5560271f91,,,,,,,,,,,,,,,,,,,,,,,,,,,,,,,,,,,,,,,,,,,,,,,,,,,,,,,,,,,,,,,,,,,,,,,,,,,,,,,,,,,,,,,,,,,,,,,,,,,,,,,
,,"[""period""]",0,[0.5070999999642254],105,0,105,0,1,5fb7cfde7808523cea8ee891,22,Mężczyzna,2022-06-04_08h09.29.243,task,2021.1.4,Win32,74.92320372,628b806c463b948bc644b84f,629af730872a5a5560271f91,,,,,,,,,,,,,,,,,,,,,,,,,,,,,,,,,,,,,,,,,,,,,,,,,,,,,,,,,,,,,,,,,,,,,,,,,,,,,,,,,,,,,,,,,,,,,,,,,,,,,,,
,,"[""comma""]",0,[0.5241999999881273],106,0,106,0,1,5fb7cfde7808523cea8ee891,22,Mężczyzna,2022-06-04_08h09.29.243,task,2021.1.4,Win32,74.92320372,628b806c463b948bc644b84f,629af730872a5a5560271f91,,,,,,,,,,,,,,,,,,,,,,,,,,,,,,,,,,,,,,,,,,,,,,,,,,,,,,,,,,,,,,,,,,,,,,,,,,,,,,,,,,,,,,,,,,,,,,,,,,,,,,,
,,"[""period""]",0,[0.2978000000119323],107,0,107,0,1,5fb7cfde7808523cea8ee891,22,Mężczyzna,2022-06-04_08h09.29.243,task,2021.1.4,Win32,74.92320372,628b806c463b948bc644b84f,629af730872a5a5560271f91,,,,,,,,,,,,,,,,,,,,,,,,,,,,,,,,,,,,,,,,,,,,,,,,,,,,,,,,,,,,,,,,,,,,,,,,,,,,,,,,,,,,,,,,,,,,,,,,,,,,,,,
,,"[""period""]",0,[0.40280000001189364],108,0,108,0,1,5fb7cfde7808523cea8ee891,22,Mężczyzna,2022-06-04_08h09.29.243,task,2021.1.4,Win32,74.92320372,628b806c463b948bc644b84f,629af730872a5a5560271f91,,,,,,,,,,,,,,,,,,,,,,,,,,,,,,,,,,,,,,,,,,,,,,,,,,,,,,,,,,,,,,,,,,,,,,,,,,,,,,,,,,,,,,,,,,,,,,,,,,,,,,,
,,"[""comma""]",0,[0.4420000000000073],109,0,109,0,1,5fb7cfde7808523cea8ee891,22,Mężczyzna,2022-06-04_08h09.29.243,task,2021.1.4,Win32,74.92320372,628b806c463b948bc644b84f,629af730872a5a5560271f91,,,,,,,,,,,,,,,,,,,,,,,,,,,,,,,,,,,,,,,,,,,,,,,,,,,,,,,,,,,,,,,,,,,,,,,,,,,,,,,,,,,,,,,,,,,,,,,,,,,,,,,
,,"[""period""]",0,[0.575199999988115],110,0,110,0,1,5fb7cfde7808523cea8ee891,22,Mężczyzna,2022-06-04_08h09.29.243,task,2021.1.4,Win32,74.92320372,628b806c463b948bc644b84f,629af730872a5a5560271f91,,,,,,,,,,,,,,,,,,,,,,,,,,,,,,,,,,,,,,,,,,,,,,,,,,,,,,,,,,,,,,,,,,,,,,,,,,,,,,,,,,,,,,,,,,,,,,,,,,,,,,,
,,"[""period""]",0,[0.5216999999880727],111,0,111,0,1,5fb7cfde7808523cea8ee891,22,Mężczyzna,2022-06-04_08h09.29.243,task,2021.1.4,Win32,74.92320372,628b806c463b948bc644b84f,629af730872a5a5560271f91,,,,,,,,,,,,,,,,,,,,,,,,,,,,,,,,,,,,,,,,,,,,,,,,,,,,,,,,,,,,,,,,,,,,,,,,,,,,,,,,,,,,,,,,,,,,,,,,,,,,,,,
,,"[""comma""]",0,[0.2983000000119205],112,0,112,0,1,5fb7cfde7808523cea8ee891,22,Mężczyzna,2022-06-04_08h09.29.243,task,2021.1.4,Win32,74.92320372,628b806c463b948bc644b84f,629af730872a5a5560271f91,,,,,,,,,,,,,,,,,,,,,,,,,,,,,,,,,,,,,,,,,,,,,,,,,,,,,,,,,,,,,,,,,,,,,,,,,,,,,,,,,,,,,,,,,,,,,,,,,,,,,,,
,,"[""comma""]",0,[0.24219999998808817],113,0,113,0,1,5fb7cfde7808523cea8ee891,22,Mężczyzna,2022-06-04_08h09.29.243,task,2021.1.4,Win32,74.92320372,628b806c463b948bc644b84f,629af730872a5a5560271f91,,,,,,,,,,,,,,,,,,,,,,,,,,,,,,,,,,,,,,,,,,,,,,,,,,,,,,,,,,,,,,,,,,,,,,,,,,,,,,,,,,,,,,,,,,,,,,,,,,,,,,,
,,"[""period""]",0,[0.24209999996423903],114,0,114,0,1,5fb7cfde7808523cea8ee891,22,Mężczyzna,2022-06-04_08h09.29.243,task,2021.1.4,Win32,74.92320372,628b806c463b948bc644b84f,629af730872a5a5560271f91,,,,,,,,,,,,,,,,,,,,,,,,,,,,,,,,,,,,,,,,,,,,,,,,,,,,,,,,,,,,,,,,,,,,,,,,,,,,,,,,,,,,,,,,,,,,,,,,,,,,,,,
,,"[""comma""]",0,[0.25380000001189273],115,0,115,0,1,5fb7cfde7808523cea8ee891,22,Mężczyzna,2022-06-04_08h09.29.243,task,2021.1.4,Win32,74.92320372,628b806c463b948bc644b84f,629af730872a5a5560271f91,,,,,,,,,,,,,,,,,,,,,,,,,,,,,,,,,,,,,,,,,,,,,,,,,,,,,,,,,,,,,,,,,,,,,,,,,,,,,,,,,,,,,,,,,,,,,,,,,,,,,,,
,,"[""comma""]",0,[0.25880000001194503],116,0,116,0,1,5fb7cfde7808523cea8ee891,22,Mężczyzna,2022-06-04_08h09.29.243,task,2021.1.4,Win32,74.92320372,628b806c463b948bc644b84f,629af730872a5a5560271f91,,,,,,,,,,,,,,,,,,,,,,,,,,,,,,,,,,,,,,,,,,,,,,,,,,,,,,,,,,,,,,,,,,,,,,,,,,,,,,,,,,,,,,,,,,,,,,,,,,,,,,,
,,"[""comma""]",0,[0.24180000001194912],117,0,117,0,1,5fb7cfde7808523cea8ee891,22,Mężczyzna,2022-06-04_08h09.29.243,task,2021.1.4,Win32,74.92320372,628b806c463b948bc644b84f,629af730872a5a5560271f91,,,,,,,,,,,,,,,,,,,,,,,,,,,,,,,,,,,,,,,,,,,,,,,,,,,,,,,,,,,,,,,,,,,,,,,,,,,,,,,,,,,,,,,,,,,,,,,,,,,,,,,
,,"[""period""]",0,[0.24149999999997362],118,0,118,0,1,5fb7cfde7808523cea8ee891,22,Mężczyzna,2022-06-04_08h09.29.243,task,2021.1.4,Win32,74.92320372,628b806c463b948bc644b84f,629af730872a5a5560271f91,,,,,,,,,,,,,,,,,,,,,,,,,,,,,,,,,,,,,,,,,,,,,,,,,,,,,,,,,,,,,,,,,,,,,,,,,,,,,,,,,,,,,,,,,,,,,,,,,,,,,,,
,,"[""period""]",0,[0.22659999996420765],119,0,119,0,1,5fb7cfde7808523cea8ee891,22,Mężczyzna,2022-06-04_08h09.29.243,task,2021.1.4,Win32,74.92320372,628b806c463b948bc644b84f,629af730872a5a5560271f91,,,,,,,,,,,,,,,,,,,,,,,,,,,,,,,,,,,,,,,,,,,,,,,,,,,,,,,,,,,,,,,,,,,,,,,,,,,,,,,,,,,,,,,,,,,,,,,,,,,,,,,
,,,,,,,,,,5fb7cfde7808523cea8ee891,22,Mężczyzna,2022-06-04_08h09.29.243,task,2021.1.4,Win32,74.92320372,628b806c463b948bc644b84f,629af730872a5a5560271f91,space,290.6268,space,7.6172,0,0,0,0,1,X V Q F H G B L J M P D K C T S W R N Z,,,,,,,,,,,,,,,,,,,,,,,,,,,,,,,,,,,,,,,,,,,,,,,,,,,,,,,,,,,,,,,,,,,,,,,,,,,,,,,,,,,,,,,,,,,,,
,,,,,,,,,,5fb7cfde7808523cea8ee891,22,Mężczyzna,2022-06-04_08h09.29.243,task,2021.1.4,Win32,74.92320372,628b806c463b948bc644b84f,629af730872a5a5560271f91,,,,,1,0,1,0,1,X V Q F H G B L J M P D K C T S W R N Z,,,,,,,,,,,,,,,,,,,,,,,,,,,,,,,,,,,,,,,,,,,,,,,,,,,,,,,,,,,,,,,,,,,,,,,,,,,,,,,,,,,,,,,,,,,,,
,,,,,,,,,,5fb7cfde7808523cea8ee891,22,Mężczyzna,2022-06-04_08h09.29.243,task,2021.1.4,Win32,74.92320372,628b806c463b948bc644b84f,629af730872a5a5560271f91,,,,,,,,,,,zw,"[""z"",""w""]","[2.031900000035762,2.6711000000237846,3.521800000011922]",1,ZW,0,0,0,0,1,,,,,,,,,,,,,,,,,,,,,,,,,,,,,,,,,,,,,,,,,,,,,,,,,,,,,,,,,,,,,,,,,,,,,,,,,,,,,,,,,,,
,,,,,,,,,,5fb7cfde7808523cea8ee891,22,Mężczyzna,2022-06-04_08h09.29.243,task,2021.1.4,Win32,74.92320372,628b806c463b948bc644b84f,629af730872a5a5560271f91,,,,,0,0,0,0,1,X V Q F H G B L J M P D K C T S W R N Z,,,,,,,,,,,,,,,,,,,,,,,,,,,,,,,,,,,,,,,,,,,,,,,,,,,,,,,,,,,,,,,,,,,,,,,,,,,,,,,,,,,,,,,,,,,,,
,,,,,,,,,,5fb7cfde7808523cea8ee891,22,Mężczyzna,2022-06-04_08h09.29.243,task,2021.1.4,Win32,74.92320372,628b806c463b948bc644b84f,629af730872a5a5560271f91,,,,,1,0,1,0,1,X V Q F H G B L J M P D K C T S W R N Z,,,,,,,,,,,,,,,,,,,,,,,,,,,,,,,,,,,,,,,,,,,,,,,,,,,,,,,,,,,,,,,,,,,,,,,,,,,,,,,,,,,,,,,,,,,,,
,,,,,,,,,,5fb7cfde7808523cea8ee891,22,Mężczyzna,2022-06-04_08h09.29.243,task,2021.1.4,Win32,74.92320372,628b806c463b948bc644b84f,629af730872a5a5560271f91,,,,,,,,,,,xv,"[""x"",""v""]","[3.8414999999999964,3.9346999999880836,4.587399999976242]",1,XV,1,0,1,0,1,,,,,,,,,,,,,,,,,,,,,,,,,,,,,,,,,,,,,,,,,,,,,,,,,,,,,,,,,,,,,,,,,,,,,,,,,,,,,,,,,,,
,,,,,,,,,,5fb7cfde7808523cea8ee891,22,Mężczyzna,2022-06-04_08h09.29.243,task,2021.1.4,Win32,74.92320372,628b806c463b948bc644b84f,629af730872a5a5560271f91,,,,,0,0,0,0,1,X V Q F H G B L J M P D K C T S W R N Z,,,,,,,,,,,,,,,,,,,,,,,,,,,,,,,,,,,,,,,,,,,,,,,,,,,,,,,,,,,,,,,,,,,,,,,,,,,,,,,,,,,,,,,,,,,,,
,,,,,,,,,,5fb7cfde7808523cea8ee891,22,Mężczyzna,2022-06-04_08h09.29.243,task,2021.1.4,Win32,74.92320372,628b806c463b948bc644b84f,629af730872a5a5560271f91,,,,,1,0,1,0,1,X V Q F H G B L J M P D K C T S W R N Z,,,,,,,,,,,,,,,,,,,,,,,,,,,,,,,,,,,,,,,,,,,,,,,,,,,,,,,,,,,,,,,,,,,,,,,,,,,,,,,,,,,,,,,,,,,,,
,,,,,,,,,,5fb7cfde7808523cea8ee891,22,Mężczyzna,2022-06-04_08h09.29.243,task,2021.1.4,Win32,74.92320372,628b806c463b948bc644b84f,629af730872a5a5560271f91,,,,,2,0,2,0,1,X V Q F H G B L J M P D K C T S W R N Z,,,,,,,,,,,,,,,,,,,,,,,,,,,,,,,,,,,,,,,,,,,,,,,,,,,,,,,,,,,,,,,,,,,,,,,,,,,,,,,,,,,,,,,,,,,,,
,,,,,,,,,,5fb7cfde7808523cea8ee891,22,Mężczyzna,2022-06-04_08h09.29.243,task,2021.1.4,Win32,74.92320372,628b806c463b948bc644b84f,629af730872a5a5560271f91,,,,,,,,,,,nmn,"[""n"",""m"",""n""]","[1.1886000000238255,1.30680000001189,1.4253999999762073,2.068300000011959]",1,NMN,2,0,2,0,1,,,,,,,,,,,,,,,,,,,,,,,,,,,,,,,,,,,,,,,,,,,,,,,,,,,,,,,,,,,,,,,,,,,,,,,,,,,,,,,,,,,
,,,,,,,,,,5fb7cfde7808523cea8ee891,22,Mężczyzna,2022-06-04_08h09.29.243,task,2021.1.4,Win32,74.92320372,628b806c463b948bc644b84f,629af730872a5a5560271f91,,,,,0,0,0,0,1,X V Q F H G B L J M P D K C T S W R N Z,,,,,,,,,,,,,,,,,,,,,,,,,,,,,,,,,,,,,,,,,,,,,,,,,,,,,,,,,,,,,,,,,,,,,,,,,,,,,,,,,,,,,,,,,,,,,
,,,,,,,,,,5fb7cfde7808523cea8ee891,22,Mężczyzna,2022-06-04_08h09.29.243,task,2021.1.4,Win32,74.92320372,628b806c463b948bc644b84f,629af730872a5a5560271f91,,,,,1,0,1,0,1,X V Q F H G B L J M P D K C T S W R N Z,,,,,,,,,,,,,,,,,,,,,,,,,,,,,,,,,,,,,,,,,,,,,,,,,,,,,,,,,,,,,,,,,,,,,,,,,,,,,,,,,,,,,,,,,,,,,
,,,,,,,,,,5fb7cfde7808523cea8ee891,22,Mężczyzna,2022-06-04_08h09.29.243,task,2021.1.4,Win32,74.92320372,628b806c463b948bc644b84f,629af730872a5a5560271f91,,,,,2,0,2,0,1,X V Q F H G B L J M P D K C T S W R N Z,,,,,,,,,,,,,,,,,,,,,,,,,,,,,,,,,,,,,,,,,,,,,,,,,,,,,,,,,,,,,,,,,,,,,,,,,,,,,,,,,,,,,,,,,,,,,
,,,,,,,,,,5fb7cfde7808523cea8ee891,22,Mężczyzna,2022-06-04_08h09.29.243,task,2021.1.4,Win32,74.92320372,628b806c463b948bc644b84f,629af730872a5a5560271f91,,,,,,,,,,,sfd,"[""s"",""f"",""d""]","[1.51219999998807,1.6204000000357155,1.8291999999880773,2.389499999999998]",1,SFD,3,0,3,0,1,,,,,,,,,,,,,,,,,,,,,,,,,,,,,,,,,,,,,,,,,,,,,,,,,,,,,,,,,,,,,,,,,,,,,,,,,,,,,,,,,,,
,,,,,,,,,,5fb7cfde7808523cea8ee891,22,Mężczyzna,2022-06-04_08h09.29.243,task,2021.1.4,Win32,74.92320372,628b806c463b948bc644b84f,629af730872a5a5560271f91,,,,,0,0,0,0,1,X V Q F H G B L J M P D K C T S W R N Z,,,,,,,,,,,,,,,,,,,,,,,,,,,,,,,,,,,,,,,,,,,,,,,,,,,,,,,,,,,,,,,,,,,,,,,,,,,,,,,,,,,,,,,,,,,,,
,,,,,,,,,,5fb7cfde7808523cea8ee891,22,Mężczyzna,2022-06-04_08h09.29.243,task,2021.1.4,Win32,74.92320372,628b806c463b948bc644b84f,629af730872a5a5560271f91,,,,,1,0,1,0,1,X V Q F H G B L J M P D K C T S W R N Z,,,,,,,,,,,,,,,,,,,,,,,,,,,,,,,,,,,,,,,,,,,,,,,,,,,,,,,,,,,,,,,,,,,,,,,,,,,,,,,,,,,,,,,,,,,,,
,,,,,,,,,,5fb7cfde7808523cea8ee891,22,Mężczyzna,2022-06-04_08h09.29.243,task,2021.1.4,Win32,74.92320372,628b806c463b948bc644b84f,629af730872a5a5560271f91,,,,,2,0,2,0,1,X V Q F H G B L J M P D K C T S W R N Z,,,,,,,,,,,,,,,,,,,,,,,,,,,,,,,,,,,,,,,,,,,,,,,,,,,,,,,,,,,,,,,,,,,,,,,,,,,,,,,,,,,,,,,,,,,,,
,,,,,,,,,,5fb7cfde7808523cea8ee891,22,Mężczyzna,2022-06-04_08h09.29.243,task,2021.1.4,Win32,74.92320372,628b806c463b948bc644b84f,629af730872a5a5560271f91,,,,,3,0,3,0,1,X V Q F H G B L J M P D K C T S W R N Z,,,,,,,,,,,,,,,,,,,,,,,,,,,,,,,,,,,,,,,,,,,,,,,,,,,,,,,,,,,,,,,,,,,,,,,,,,,,,,,,,,,,,,,,,,,,,
,,,,,,,,,,5fb7cfde7808523cea8ee891,22,Mężczyzna,2022-06-04_08h09.29.243,task,2021.1.4,Win32,74.92320372,628b806c463b948bc644b84f,629af730872a5a5560271f91,,,,,,,,,,,mgqs,"[""m"",""g"",""q"",""s""]","[1.0694999999999482,1.495999999999981,2.098699999988071,2.630099999964159,2.9620999999641526]",1,MGQS,4,0,4,0,1,,,,,,,,,,,,,,,,,,,,,,,,,,,,,,,,,,,,,,,,,,,,,,,,,,,,,,,,,,,,,,,,,,,,,,,,,,,,,,,,,,,
,,,,,,,,,,5fb7cfde7808523cea8ee891,22,Mężczyzna,2022-06-04_08h09.29.243,task,2021.1.4,Win32,74.92320372,628b806c463b948bc644b84f,629af730872a5a5560271f91,,,,,0,0,0,0,1,X V Q F H G B L J M P D K C T S W R N Z,,,,,,,,,,,,,,,,,,,,,,,,,,,,,,,,,,,,,,,,,,,,,,,,,,,,,,,,,,,,,,,,,,,,,,,,,,,,,,,,,,,,,,,,,,,,,
,,,,,,,,,,5fb7cfde7808523cea8ee891,22,Mężczyzna,2022-06-04_08h09.29.243,task,2021.1.4,Win32,74.92320372,628b806c463b948bc644b84f,629af730872a5a5560271f91,,,,,1,0,1,0,1,X V Q F H G B L J M P D K C T S W R N Z,,,,,,,,,,,,,,,,,,,,,,,,,,,,,,,,,,,,,,,,,,,,,,,,,,,,,,,,,,,,,,,,,,,,,,,,,,,,,,,,,,,,,,,,,,,,,
,,,,,,,,,,5fb7cfde7808523cea8ee891,22,Mężczyzna,2022-06-04_08h09.29.243,task,2021.1.4,Win32,74.92320372,628b806c463b948bc644b84f,629af730872a5a5560271f91,,,,,2,0,2,0,1,X V Q F H G B L J M P D K C T S W R N Z,,,,,,,,,,,,,,,,,,,,,,,,,,,,,,,,,,,,,,,,,,,,,,,,,,,,,,,,,,,,,,,,,,,,,,,,,,,,,,,,,,,,,,,,,,,,,
,,,,,,,,,,5fb7cfde7808523cea8ee891,22,Mężczyzna,2022-06-04_08h09.29.243,task,2021.1.4,Win32,74.92320372,628b806c463b948bc644b84f,629af730872a5a5560271f91,,,,,3,0,3,0,1,X V Q F H G B L J M P D K C T S W R N Z,,,,,,,,,,,,,,,,,,,,,,,,,,,,,,,,,,,,,,,,,,,,,,,,,,,,,,,,,,,,,,,,,,,,,,,,,,,,,,,,,,,,,,,,,,,,,
,,,,,,,,,,5fb7cfde7808523cea8ee891,22,Mężczyzna,2022-06-04_08h09.29.243,task,2021.1.4,Win32,74.92320372,628b806c463b948bc644b84f,629af730872a5a5560271f91,,,,,,,,,,,vxpb,"[""v"",""x"",""p"",""b""]","[1.4421000000238564,1.6958000000119,1.9086999999880163,3.149600000023838,9.247600000023795]",1,VXPB,5,0,5,0,1,,,,,,,,,,,,,,,,,,,,,,,,,,,,,,,,,,,,,,,,,,,,,,,,,,,,,,,,,,,,,,,,,,,,,,,,,,,,,,,,,,,
,,,,,,,,,,5fb7cfde7808523cea8ee891,22,Mężczyzna,2022-06-04_08h09.29.243,task,2021.1.4,Win32,74.92320372,628b806c463b948bc644b84f,629af730872a5a5560271f91,,,,,0,0,0,0,1,X V Q F H G B L J M P D K C T S W R N Z,,,,,,,,,,,,,,,,,,,,,,,,,,,,,,,,,,,,,,,,,,,,,,,,,,,,,,,,,,,,,,,,,,,,,,,,,,,,,,,,,,,,,,,,,,,,,
,,,,,,,,,,5fb7cfde7808523cea8ee891,22,Mężczyzna,2022-06-04_08h09.29.243,task,2021.1.4,Win32,74.92320372,628b806c463b948bc644b84f,629af730872a5a5560271f91,,,,,1,0,1,0,1,X V Q F H G B L J M P D K C T S W R N Z,,,,,,,,,,,,,,,,,,,,,,,,,,,,,,,,,,,,,,,,,,,,,,,,,,,,,,,,,,,,,,,,,,,,,,,,,,,,,,,,,,,,,,,,,,,,,
,,,,,,,,,,5fb7cfde7808523cea8ee891,22,Mężczyzna,2022-06-04_08h09.29.243,task,2021.1.4,Win32,74.92320372,628b806c463b948bc644b84f,629af730872a5a5560271f91,,,,,2,0,2,0,1,X V Q F H G B L J M P D K C T S W R N Z,,,,,,,,,,,,,,,,,,,,,,,,,,,,,,,,,,,,,,,,,,,,,,,,,,,,,,,,,,,,,,,,,,,,,,,,,,,,,,,,,,,,,,,,,,,,,
,,,,,,,,,,5fb7cfde7808523cea8ee891,22,Mężczyzna,2022-06-04_08h09.29.243,task,2021.1.4,Win32,74.92320372,628b806c463b948bc644b84f,629af730872a5a5560271f91,,,,,3,0,3,0,1,X V Q F H G B L J M P D K C T S W R N Z,,,,,,,,,,,,,,,,,,,,,,,,,,,,,,,,,,,,,,,,,,,,,,,,,,,,,,,,,,,,,,,,,,,,,,,,,,,,,,,,,,,,,,,,,,,,,
,,,,,,,,,,5fb7cfde7808523cea8ee891,22,Mężczyzna,2022-06-04_08h09.29.243,task,2021.1.4,Win32,74.92320372,628b806c463b948bc644b84f,629af730872a5a5560271f91,,,,,4,0,4,0,1,X V Q F H G B L J M P D K C T S W R N Z,,,,,,,,,,,,,,,,,,,,,,,,,,,,,,,,,,,,,,,,,,,,,,,,,,,,,,,,,,,,,,,,,,,,,,,,,,,,,,,,,,,,,,,,,,,,,
,,,,,,,,,,5fb7cfde7808523cea8ee891,22,Mężczyzna,2022-06-04_08h09.29.243,task,2021.1.4,Win32,74.92320372,628b806c463b948bc644b84f,629af730872a5a5560271f91,,,,,,,,,,,jcrmw,"[""j"",""c"",""r"",""m"",""w""]","[2.4420000000000073,3.24249999999995,4.336099999964176,5.509999999999991,5.737199999988093,6.229300000011904]",1,JCRMW,6,0,6,0,1,,,,,,,,,,,,,,,,,,,,,,,,,,,,,,,,,,,,,,,,,,,,,,,,,,,,,,,,,,,,,,,,,,,,,,,,,,,,,,,,,,,
,,,,,,,,,,5fb7cfde7808523cea8ee891,22,Mężczyzna,2022-06-04_08h09.29.243,task,2021.1.4,Win32,74.92320372,628b806c463b948bc644b84f,629af730872a5a5560271f91,,,,,0,0,0,0,1,X V Q F H G B L J M P D K C T S W R N Z,,,,,,,,,,,,,,,,,,,,,,,,,,,,,,,,,,,,,,,,,,,,,,,,,,,,,,,,,,,,,,,,,,,,,,,,,,,,,,,,,,,,,,,,,,,,,
,,,,,,,,,,5fb7cfde7808523cea8ee891,22,Mężczyzna,2022-06-04_08h09.29.243,task,2021.1.4,Win32,74.92320372,628b806c463b948bc644b84f,629af730872a5a5560271f91,,,,,1,0,1,0,1,X V Q F H G B L J M P D K C T S W R N Z,,,,,,,,,,,,,,,,,,,,,,,,,,,,,,,,,,,,,,,,,,,,,,,,,,,,,,,,,,,,,,,,,,,,,,,,,,,,,,,,,,,,,,,,,,,,,
,,,,,,,,,,5fb7cfde7808523cea8ee891,22,Mężczyzna,2022-06-04_08h09.29.243,task,2021.1.4,Win32,74.92320372,628b806c463b948bc644b84f,629af730872a5a5560271f91,,,,,2,0,2,0,1,X V Q F H G B L J M P D K C T S W R N Z,,,,,,,,,,,,,,,,,,,,,,,,,,,,,,,,,,,,,,,,,,,,,,,,,,,,,,,,,,,,,,,,,,,,,,,,,,,,,,,,,,,,,,,,,,,,,
,,,,,,,,,,5fb7cfde7808523cea8ee891,22,Mężczyzna,2022-06-04_08h09.29.243,task,2021.1.4,Win32,74.92320372,628b806c463b948bc644b84f,629af730872a5a5560271f91,,,,,3,0,3,0,1,X V Q F H G B L J M P D K C T S W R N Z,,,,,,,,,,,,,,,,,,,,,,,,,,,,,,,,,,,,,,,,,,,,,,,,,,,,,,,,,,,,,,,,,,,,,,,,,,,,,,,,,,,,,,,,,,,,,
,,,,,,,,,,5fb7cfde7808523cea8ee891,22,Mężczyzna,2022-06-04_08h09.29.243,task,2021.1.4,Win32,74.92320372,628b806c463b948bc644b84f,629af730872a5a5560271f91,,,,,4,0,4,0,1,X V Q F H G B L J M P D K C T S W R N Z,,,,,,,,,,,,,,,,,,,,,,,,,,,,,,,,,,,,,,,,,,,,,,,,,,,,,,,,,,,,,,,,,,,,,,,,,,,,,,,,,,,,,,,,,,,,,
,,,,,,,,,,5fb7cfde7808523cea8ee891,22,Mężczyzna,2022-06-04_08h09.29.243,task,2021.1.4,Win32,74.92320372,628b806c463b948bc644b84f,629af730872a5a5560271f91,,,,,,,,,,,pctdn,"[""p"",""c"",""t"",""d"",""n""]","[1.9489999999999554,2.454499999999939,3.110099999964177,3.3620999999642436,3.5625999999641635,5.456699999988018]",0,PCDTN,7,0,7,0,1,,,,,,,,,,,,,,,,,,,,,,,,,,,,,,,,,,,,,,,,,,,,,,,,,,,,,,,,,,,,,,,,,,,,,,,,,,,,,,,,,,,
,,,,,,,,,,5fb7cfde7808523cea8ee891,22,Mężczyzna,2022-06-04_08h09.29.243,task,2021.1.4,Win32,74.92320372,628b806c463b948bc644b84f,629af730872a5a5560271f91,,,,,0,0,0,0,1,X V Q F H G B L J M P D K C T S W R N Z,,,,,,,,,,,,,,,,,,,,,,,,,,,,,,,,,,,,,,,,,,,,,,,,,,,,,,,,,,,,,,,,,,,,,,,,,,,,,,,,,,,,,,,,,,,,,
,,,,,,,,,,5fb7cfde7808523cea8ee891,22,Mężczyzna,2022-06-04_08h09.29.243,task,2021.1.4,Win32,74.92320372,628b806c463b948bc644b84f,629af730872a5a5560271f91,,,,,1,0,1,0,1,X V Q F H G B L J M P D K C T S W R N Z,,,,,,,,,,,,,,,,,,,,,,,,,,,,,,,,,,,,,,,,,,,,,,,,,,,,,,,,,,,,,,,,,,,,,,,,,,,,,,,,,,,,,,,,,,,,,
,,,,,,,,,,5fb7cfde7808523cea8ee891,22,Mężczyzna,2022-06-04_08h09.29.243,task,2021.1.4,Win32,74.92320372,628b806c463b948bc644b84f,629af730872a5a5560271f91,,,,,2,0,2,0,1,X V Q F H G B L J M P D K C T S W R N Z,,,,,,,,,,,,,,,,,,,,,,,,,,,,,,,,,,,,,,,,,,,,,,,,,,,,,,,,,,,,,,,,,,,,,,,,,,,,,,,,,,,,,,,,,,,,,
,,,,,,,,,,5fb7cfde7808523cea8ee891,22,Mężczyzna,2022-06-04_08h09.29.243,task,2021.1.4,Win32,74.92320372,628b806c463b948bc644b84f,629af730872a5a5560271f91,,,,,3,0,3,0,1,X V Q F H G B L J M P D K C T S W R N Z,,,,,,,,,,,,,,,,,,,,,,,,,,,,,,,,,,,,,,,,,,,,,,,,,,,,,,,,,,,,,,,,,,,,,,,,,,,,,,,,,,,,,,,,,,,,,
,,,,,,,,,,5fb7cfde7808523cea8ee891,22,Mężczyzna,2022-06-04_08h09.29.243,task,2021.1.4,Win32,74.92320372,628b806c463b948bc644b84f,629af730872a5a5560271f91,,,,,4,0,4,0,1,X V Q F H G B L J M P D K C T S W R N Z,,,,,,,,,,,,,,,,,,,,,,,,,,,,,,,,,,,,,,,,,,,,,,,,,,,,,,,,,,,,,,,,,,,,,,,,,,,,,,,,,,,,,,,,,,,,,
,,,,,,,,,,5fb7cfde7808523cea8ee891,22,Mężczyzna,2022-06-04_08h09.29.243,task,2021.1.4,Win32,74.92320372,628b806c463b948bc644b84f,629af730872a5a5560271f91,,,,,,,,,,,hzzpn,"[""h"",""z"",""z"",""p"",""n""]","[1.6283999999761818,1.8419999999999845,2.0193000000118673,2.2023999999761372,2.52439999997614,3.868800000011902]",1,HZZPN,8,0,8,0,1,,,,,,,,,,,,,,,,,,,,,,,,,,,,,,,,,,,,,,,,,,,,,,,,,,,,,,,,,,,,,,,,,,,,,,,,,,,,,,,,,,,
,,,,,,,,,,5fb7cfde7808523cea8ee891,22,Mężczyzna,2022-06-04_08h09.29.243,task,2021.1.4,Win32,74.92320372,628b806c463b948bc644b84f,629af730872a5a5560271f91,,,,,0,0,0,0,1,X V Q F H G B L J M P D K C T S W R N Z,,,,,,,,,,,,,,,,,,,,,,,,,,,,,,,,,,,,,,,,,,,,,,,,,,,,,,,,,,,,,,,,,,,,,,,,,,,,,,,,,,,,,,,,,,,,,
,,,,,,,,,,5fb7cfde7808523cea8ee891,22,Mężczyzna,2022-06-04_08h09.29.243,task,2021.1.4,Win32,74.92320372,628b806c463b948bc644b84f,629af730872a5a5560271f91,,,,,1,0,1,0,1,X V Q F H G B L J M P D K C T S W R N Z,,,,,,,,,,,,,,,,,,,,,,,,,,,,,,,,,,,,,,,,,,,,,,,,,,,,,,,,,,,,,,,,,,,,,,,,,,,,,,,,,,,,,,,,,,,,,
,,,,,,,,,,5fb7cfde7808523cea8ee891,22,Mężczyzna,2022-06-04_08h09.29.243,task,2021.1.4,Win32,74.92320372,628b806c463b948bc644b84f,629af730872a5a5560271f91,,,,,2,0,2,0,1,X V Q F H G B L J M P D K C T S W R N Z,,,,,,,,,,,,,,,,,,,,,,,,,,,,,,,,,,,,,,,,,,,,,,,,,,,,,,,,,,,,,,,,,,,,,,,,,,,,,,,,,,,,,,,,,,,,,
,,,,,,,,,,5fb7cfde7808523cea8ee891,22,Mężczyzna,2022-06-04_08h09.29.243,task,2021.1.4,Win32,74.92320372,628b806c463b948bc644b84f,629af730872a5a5560271f91,,,,,3,0,3,0,1,X V Q F H G B L J M P D K C T S W R N Z,,,,,,,,,,,,,,,,,,,,,,,,,,,,,,,,,,,,,,,,,,,,,,,,,,,,,,,,,,,,,,,,,,,,,,,,,,,,,,,,,,,,,,,,,,,,,
,,,,,,,,,,5fb7cfde7808523cea8ee891,22,Mężczyzna,2022-06-04_08h09.29.243,task,2021.1.4,Win32,74.92320372,628b806c463b948bc644b84f,629af730872a5a5560271f91,,,,,4,0,4,0,1,X V Q F H G B L J M P D K C T S W R N Z,,,,,,,,,,,,,,,,,,,,,,,,,,,,,,,,,,,,,,,,,,,,,,,,,,,,,,,,,,,,,,,,,,,,,,,,,,,,,,,,,,,,,,,,,,,,,
,,,,,,,,,,5fb7cfde7808523cea8ee891,22,Mężczyzna,2022-06-04_08h09.29.243,task,2021.1.4,Win32,74.92320372,628b806c463b948bc644b84f,629af730872a5a5560271f91,,,,,5,0,5,0,1,X V Q F H G B L J M P D K C T S W R N Z,,,,,,,,,,,,,,,,,,,,,,,,,,,,,,,,,,,,,,,,,,,,,,,,,,,,,,,,,,,,,,,,,,,,,,,,,,,,,,,,,,,,,,,,,,,,,
,,,,,,,,,,5fb7cfde7808523cea8ee891,22,Mężczyzna,2022-06-04_08h09.29.243,task,2021.1.4,Win32,74.92320372,628b806c463b948bc644b84f,629af730872a5a5560271f91,,,,,,,,,,,mtwtnf,"[""m"",""t"",""w"",""t"",""n"",""f""]","[2.1350999999641544,2.5223999999760736,3.004800000011869,3.989399999976172,4.175899999976082,4.4446999999880745,6.4166999999880545]",1,MTWTNF,9,0,9,0,1,,,,,,,,,,,,,,,,,,,,,,,,,,,,,,,,,,,,,,,,,,,,,,,,,,,,,,,,,,,,,,,,,,,,,,,,,,,,,,,,,,,
,,,,,,,,,,5fb7cfde7808523cea8ee891,22,Mężczyzna,2022-06-04_08h09.29.243,task,2021.1.4,Win32,74.92320372,628b806c463b948bc644b84f,629af730872a5a5560271f91,,,,,0,0,0,0,1,X V Q F H G B L J M P D K C T S W R N Z,,,,,,,,,,,,,,,,,,,,,,,,,,,,,,,,,,,,,,,,,,,,,,,,,,,,,,,,,,,,,,,,,,,,,,,,,,,,,,,,,,,,,,,,,,,,,
,,,,,,,,,,5fb7cfde7808523cea8ee891,22,Mężczyzna,2022-06-04_08h09.29.243,task,2021.1.4,Win32,74.92320372,628b806c463b948bc644b84f,629af730872a5a5560271f91,,,,,1,0,1,0,1,X V Q F H G B L J M P D K C T S W R N Z,,,,,,,,,,,,,,,,,,,,,,,,,,,,,,,,,,,,,,,,,,,,,,,,,,,,,,,,,,,,,,,,,,,,,,,,,,,,,,,,,,,,,,,,,,,,,
,,,,,,,,,,5fb7cfde7808523cea8ee891,22,Mężczyzna,2022-06-04_08h09.29.243,task,2021.1.4,Win32,74.92320372,628b806c463b948bc644b84f,629af730872a5a5560271f91,,,,,2,0,2,0,1,X V Q F H G B L J M P D K C T S W R N Z,,,,,,,,,,,,,,,,,,,,,,,,,,,,,,,,,,,,,,,,,,,,,,,,,,,,,,,,,,,,,,,,,,,,,,,,,,,,,,,,,,,,,,,,,,,,,
,,,,,,,,,,5fb7cfde7808523cea8ee891,22,Mężczyzna,2022-06-04_08h09.29.243,task,2021.1.4,Win32,74.92320372,628b806c463b948bc644b84f,629af730872a5a5560271f91,,,,,3,0,3,0,1,X V Q F H G B L J M P D K C T S W R N Z,,,,,,,,,,,,,,,,,,,,,,,,,,,,,,,,,,,,,,,,,,,,,,,,,,,,,,,,,,,,,,,,,,,,,,,,,,,,,,,,,,,,,,,,,,,,,
,,,,,,,,,,5fb7cfde7808523cea8ee891,22,Mężczyzna,2022-06-04_08h09.29.243,task,2021.1.4,Win32,74.92320372,628b806c463b948bc644b84f,629af730872a5a5560271f91,,,,,4,0,4,0,1,X V Q F H G B L J M P D K C T S W R N Z,,,,,,,,,,,,,,,,,,,,,,,,,,,,,,,,,,,,,,,,,,,,,,,,,,,,,,,,,,,,,,,,,,,,,,,,,,,,,,,,,,,,,,,,,,,,,
,,,,,,,,,,5fb7cfde7808523cea8ee891,22,Mężczyzna,2022-06-04_08h09.29.243,task,2021.1.4,Win32,74.92320372,628b806c463b948bc644b84f,629af730872a5a5560271f91,,,,,5,0,5,0,1,X V Q F H G B L J M P D K C T S W R N Z,,,,,,,,,,,,,,,,,,,,,,,,,,,,,,,,,,,,,,,,,,,,,,,,,,,,,,,,,,,,,,,,,,,,,,,,,,,,,,,,,,,,,,,,,,,,,
,,,,,,,,,,5fb7cfde7808523cea8ee891,22,Mężczyzna,2022-06-04_08h09.29.243,task,2021.1.4,Win32,74.92320372,628b806c463b948bc644b84f,629af730872a5a5560271f91,,,,,,,,,,,cgvswn,"[""c"",""g"",""v"",""s"",""w"",""n""]","[0.9265000000000327,1.845400000035852,2.1236000000238846,2.430100000023913,2.779400000035821,3.4836000000238982,4.0434999999999945]",0,CGVSBW,10,0,10,0,1,,,,,,,,,,,,,,,,,,,,,,,,,,,,,,,,,,,,,,,,,,,,,,,,,,,,,,,,,,,,,,,,,,,,,,,,,,,,,,,,,,,
,,,,,,,,,,5fb7cfde7808523cea8ee891,22,Mężczyzna,2022-06-04_08h09.29.243,task,2021.1.4,Win32,74.92320372,628b806c463b948bc644b84f,629af730872a5a5560271f91,,,,,0,0,0,0,1,X V Q F H G B L J M P D K C T S W R N Z,,,,,,,,,,,,,,,,,,,,,,,,,,,,,,,,,,,,,,,,,,,,,,,,,,,,,,,,,,,,,,,,,,,,,,,,,,,,,,,,,,,,,,,,,,,,,
,,,,,,,,,,5fb7cfde7808523cea8ee891,22,Mężczyzna,2022-06-04_08h09.29.243,task,2021.1.4,Win32,74.92320372,628b806c463b948bc644b84f,629af730872a5a5560271f91,,,,,1,0,1,0,1,X V Q F H G B L J M P D K C T S W R N Z,,,,,,,,,,,,,,,,,,,,,,,,,,,,,,,,,,,,,,,,,,,,,,,,,,,,,,,,,,,,,,,,,,,,,,,,,,,,,,,,,,,,,,,,,,,,,
,,,,,,,,,,5fb7cfde7808523cea8ee891,22,Mężczyzna,2022-06-04_08h09.29.243,task,2021.1.4,Win32,74.92320372,628b806c463b948bc644b84f,629af730872a5a5560271f91,,,,,2,0,2,0,1,X V Q F H G B L J M P D K C T S W R N Z,,,,,,,,,,,,,,,,,,,,,,,,,,,,,,,,,,,,,,,,,,,,,,,,,,,,,,,,,,,,,,,,,,,,,,,,,,,,,,,,,,,,,,,,,,,,,
,,,,,,,,,,5fb7cfde7808523cea8ee891,22,Mężczyzna,2022-06-04_08h09.29.243,task,2021.1.4,Win32,74.92320372,628b806c463b948bc644b84f,629af730872a5a5560271f91,,,,,3,0,3,0,1,X V Q F H G B L J M P D K C T S W R N Z,,,,,,,,,,,,,,,,,,,,,,,,,,,,,,,,,,,,,,,,,,,,,,,,,,,,,,,,,,,,,,,,,,,,,,,,,,,,,,,,,,,,,,,,,,,,,
,,,,,,,,,,5fb7cfde7808523cea8ee891,22,Mężczyzna,2022-06-04_08h09.29.243,task,2021.1.4,Win32,74.92320372,628b806c463b948bc644b84f,629af730872a5a5560271f91,,,,,4,0,4,0,1,X V Q F H G B L J M P D K C T S W R N Z,,,,,,,,,,,,,,,,,,,,,,,,,,,,,,,,,,,,,,,,,,,,,,,,,,,,,,,,,,,,,,,,,,,,,,,,,,,,,,,,,,,,,,,,,,,,,
,,,,,,,,,,5fb7cfde7808523cea8ee891,22,Mężczyzna,2022-06-04_08h09.29.243,task,2021.1.4,Win32,74.92320372,628b806c463b948bc644b84f,629af730872a5a5560271f91,,,,,5,0,5,0,1,X V Q F H G B L J M P D K C T S W R N Z,,,,,,,,,,,,,,,,,,,,,,,,,,,,,,,,,,,,,,,,,,,,,,,,,,,,,,,,,,,,,,,,,,,,,,,,,,,,,,,,,,,,,,,,,,,,,
,,,,,,,,,,5fb7cfde7808523cea8ee891,22,Mężczyzna,2022-06-04_08h09.29.243,task,2021.1.4,Win32,74.92320372,628b806c463b948bc644b84f,629af730872a5a5560271f91,,,,,,,,,,,prpdbs,"[""p"",""r"",""p"",""d"",""b"",""s""]","[9.086399999976152,9.302199999988034,9.474300000011908,10.393099999964193,10.751599999964242,10.846000000000004,11.713300000011941]",1,PRPDBS,11,0,11,0,1,,,,,,,,,,,,,,,,,,,,,,,,,,,,,,,,,,,,,,,,,,,,,,,,,,,,,,,,,,,,,,,,,,,,,,,,,,,,,,,,,,,
,,,,,,,,,,5fb7cfde7808523cea8ee891,22,Mężczyzna,2022-06-04_08h09.29.243,task,2021.1.4,Win32,74.92320372,628b806c463b948bc644b84f,629af730872a5a5560271f91,,,,,0,0,0,0,1,X V Q F H G B L J M P D K C T S W R N Z,,,,,,,,,,,,,,,,,,,,,,,,,,,,,,,,,,,,,,,,,,,,,,,,,,,,,,,,,,,,,,,,,,,,,,,,,,,,,,,,,,,,,,,,,,,,,
,,,,,,,,,,5fb7cfde7808523cea8ee891,22,Mężczyzna,2022-06-04_08h09.29.243,task,2021.1.4,Win32,74.92320372,628b806c463b948bc644b84f,629af730872a5a5560271f91,,,,,1,0,1,0,1,X V Q F H G B L J M P D K C T S W R N Z,,,,,,,,,,,,,,,,,,,,,,,,,,,,,,,,,,,,,,,,,,,,,,,,,,,,,,,,,,,,,,,,,,,,,,,,,,,,,,,,,,,,,,,,,,,,,
,,,,,,,,,,5fb7cfde7808523cea8ee891,22,Mężczyzna,2022-06-04_08h09.29.243,task,2021.1.4,Win32,74.92320372,628b806c463b948bc644b84f,629af730872a5a5560271f91,,,,,2,0,2,0,1,X V Q F H G B L J M P D K C T S W R N Z,,,,,,,,,,,,,,,,,,,,,,,,,,,,,,,,,,,,,,,,,,,,,,,,,,,,,,,,,,,,,,,,,,,,,,,,,,,,,,,,,,,,,,,,,,,,,
,,,,,,,,,,5fb7cfde7808523cea8ee891,22,Mężczyzna,2022-06-04_08h09.29.243,task,2021.1.4,Win32,74.92320372,628b806c463b948bc644b84f,629af730872a5a5560271f91,,,,,3,0,3,0,1,X V Q F H G B L J M P D K C T S W R N Z,,,,,,,,,,,,,,,,,,,,,,,,,,,,,,,,,,,,,,,,,,,,,,,,,,,,,,,,,,,,,,,,,,,,,,,,,,,,,,,,,,,,,,,,,,,,,
,,,,,,,,,,5fb7cfde7808523cea8ee891,22,Mężczyzna,2022-06-04_08h09.29.243,task,2021.1.4,Win32,74.92320372,628b806c463b948bc644b84f,629af730872a5a5560271f91,,,,,4,0,4,0,1,X V Q F H G B L J M P D K C T S W R N Z,,,,,,,,,,,,,,,,,,,,,,,,,,,,,,,,,,,,,,,,,,,,,,,,,,,,,,,,,,,,,,,,,,,,,,,,,,,,,,,,,,,,,,,,,,,,,
,,,,,,,,,,5fb7cfde7808523cea8ee891,22,Mężczyzna,2022-06-04_08h09.29.243,task,2021.1.4,Win32,74.92320372,628b806c463b948bc644b84f,629af730872a5a5560271f91,,,,,5,0,5,0,1,X V Q F H G B L J M P D K C T S W R N Z,,,,,,,,,,,,,,,,,,,,,,,,,,,,,,,,,,,,,,,,,,,,,,,,,,,,,,,,,,,,,,,,,,,,,,,,,,,,,,,,,,,,,,,,,,,,,
,,,,,,,,,,5fb7cfde7808523cea8ee891,22,Mężczyzna,2022-06-04_08h09.29.243,task,2021.1.4,Win32,74.92320372,628b806c463b948bc644b84f,629af730872a5a5560271f91,,,,,6,0,6,0,1,X V Q F H G B L J M P D K C T S W R N Z,,,,,,,,,,,,,,,,,,,,,,,,,,,,,,,,,,,,,,,,,,,,,,,,,,,,,,,,,,,,,,,,,,,,,,,,,,,,,,,,,,,,,,,,,,,,,
,,,,,,,,,,5fb7cfde7808523cea8ee891,22,Mężczyzna,2022-06-04_08h09.29.243,task,2021.1.4,Win32,74.92320372,628b806c463b948bc644b84f,629af730872a5a5560271f91,,,,,,,,,,,splwvmv,"[""s"",""p"",""l"",""w"",""v"",""m"",""v""]","[1.8313999999761563,2.017100000023902,2.2816999999881773,2.643000000000029,4.016699999988077,4.164300000011963,4.328100000023937,4.736600000023941]",1,SPLWVMV,12,0,12,0,1,,,,,,,,,,,,,,,,,,,,,,,,,,,,,,,,,,,,,,,,,,,,,,,,,,,,,,,,,,,,,,,,,,,,,,,,,,,,,,,,,,,
,,,,,,,,,,5fb7cfde7808523cea8ee891,22,Mężczyzna,2022-06-04_08h09.29.243,task,2021.1.4,Win32,74.92320372,628b806c463b948bc644b84f,629af730872a5a5560271f91,,,,,0,0,0,0,1,X V Q F H G B L J M P D K C T S W R N Z,,,,,,,,,,,,,,,,,,,,,,,,,,,,,,,,,,,,,,,,,,,,,,,,,,,,,,,,,,,,,,,,,,,,,,,,,,,,,,,,,,,,,,,,,,,,,
,,,,,,,,,,5fb7cfde7808523cea8ee891,22,Mężczyzna,2022-06-04_08h09.29.243,task,2021.1.4,Win32,74.92320372,628b806c463b948bc644b84f,629af730872a5a5560271f91,,,,,1,0,1,0,1,X V Q F H G B L J M P D K C T S W R N Z,,,,,,,,,,,,,,,,,,,,,,,,,,,,,,,,,,,,,,,,,,,,,,,,,,,,,,,,,,,,,,,,,,,,,,,,,,,,,,,,,,,,,,,,,,,,,
,,,,,,,,,,5fb7cfde7808523cea8ee891,22,Mężczyzna,2022-06-04_08h09.29.243,task,2021.1.4,Win32,74.92320372,628b806c463b948bc644b84f,629af730872a5a5560271f91,,,,,2,0,2,0,1,X V Q F H G B L J M P D K C T S W R N Z,,,,,,,,,,,,,,,,,,,,,,,,,,,,,,,,,,,,,,,,,,,,,,,,,,,,,,,,,,,,,,,,,,,,,,,,,,,,,,,,,,,,,,,,,,,,,
,,,,,,,,,,5fb7cfde7808523cea8ee891,22,Mężczyzna,2022-06-04_08h09.29.243,task,2021.1.4,Win32,74.92320372,628b806c463b948bc644b84f,629af730872a5a5560271f91,,,,,3,0,3,0,1,X V Q F H G B L J M P D K C T S W R N Z,,,,,,,,,,,,,,,,,,,,,,,,,,,,,,,,,,,,,,,,,,,,,,,,,,,,,,,,,,,,,,,,,,,,,,,,,,,,,,,,,,,,,,,,,,,,,
,,,,,,,,,,5fb7cfde7808523cea8ee891,22,Mężczyzna,2022-06-04_08h09.29.243,task,2021.1.4,Win32,74.92320372,628b806c463b948bc644b84f,629af730872a5a5560271f91,,,,,4,0,4,0,1,X V Q F H G B L J M P D K C T S W R N Z,,,,,,,,,,,,,,,,,,,,,,,,,,,,,,,,,,,,,,,,,,,,,,,,,,,,,,,,,,,,,,,,,,,,,,,,,,,,,,,,,,,,,,,,,,,,,
,,,,,,,,,,5fb7cfde7808523cea8ee891,22,Mężczyzna,2022-06-04_08h09.29.243,task,2021.1.4,Win32,74.92320372,628b806c463b948bc644b84f,629af730872a5a5560271f91,,,,,5,0,5,0,1,X V Q F H G B L J M P D K C T S W R N Z,,,,,,,,,,,,,,,,,,,,,,,,,,,,,,,,,,,,,,,,,,,,,,,,,,,,,,,,,,,,,,,,,,,,,,,,,,,,,,,,,,,,,,,,,,,,,
,,,,,,,,,,5fb7cfde7808523cea8ee891,22,Mężczyzna,2022-06-04_08h09.29.243,task,2021.1.4,Win32,74.92320372,628b806c463b948bc644b84f,629af730872a5a5560271f91,,,,,6,0,6,0,1,X V Q F H G B L J M P D K C T S W R N Z,,,,,,,,,,,,,,,,,,,,,,,,,,,,,,,,,,,,,,,,,,,,,,,,,,,,,,,,,,,,,,,,,,,,,,,,,,,,,,,,,,,,,,,,,,,,,
,,,,,,,,,,5fb7cfde7808523cea8ee891,22,Mężczyzna,2022-06-04_08h09.29.243,task,2021.1.4,Win32,74.92320372,628b806c463b948bc644b84f,629af730872a5a5560271f91,,,,,,,,,,,fwdhrv,"[""f"",""w"",""d"",""h"",""r"",""v""]","[3.86930000001189,4.0575000000000045,4.4424999999999955,4.683699999988107,5.136599999964233,5.563399999976127,6.469800000011901]",0,FVDHJRV,13,0,13,0,1,,,,,,,,,,,,,,,,,,,,,,,,,,,,,,,,,,,,,,,,,,,,,,,,,,,,,,,,,,,,,,,,,,,,,,,,,,,,,,,,,,,
,,,,,,,,,,5fb7cfde7808523cea8ee891,22,Mężczyzna,2022-06-04_08h09.29.243,task,2021.1.4,Win32,74.92320372,628b806c463b948bc644b84f,629af730872a5a5560271f91,,,,,0,0,0,0,1,X V Q F H G B L J M P D K C T S W R N Z,,,,,,,,,,,,,,,,,,,,,,,,,,,,,,,,,,,,,,,,,,,,,,,,,,,,,,,,,,,,,,,,,,,,,,,,,,,,,,,,,,,,,,,,,,,,,
,,,,,,,,,,5fb7cfde7808523cea8ee891,22,Mężczyzna,2022-06-04_08h09.29.243,task,2021.1.4,Win32,74.92320372,628b806c463b948bc644b84f,629af730872a5a5560271f91,,,,,1,0,1,0,1,X V Q F H G B L J M P D K C T S W R N Z,,,,,,,,,,,,,,,,,,,,,,,,,,,,,,,,,,,,,,,,,,,,,,,,,,,,,,,,,,,,,,,,,,,,,,,,,,,,,,,,,,,,,,,,,,,,,
,,,,,,,,,,5fb7cfde7808523cea8ee891,22,Mężczyzna,2022-06-04_08h09.29.243,task,2021.1.4,Win32,74.92320372,628b806c463b948bc644b84f,629af730872a5a5560271f91,,,,,2,0,2,0,1,X V Q F H G B L J M P D K C T S W R N Z,,,,,,,,,,,,,,,,,,,,,,,,,,,,,,,,,,,,,,,,,,,,,,,,,,,,,,,,,,,,,,,,,,,,,,,,,,,,,,,,,,,,,,,,,,,,,
,,,,,,,,,,5fb7cfde7808523cea8ee891,22,Mężczyzna,2022-06-04_08h09.29.243,task,2021.1.4,Win32,74.92320372,628b806c463b948bc644b84f,629af730872a5a5560271f91,,,,,3,0,3,0,1,X V Q F H G B L J M P D K C T S W R N Z,,,,,,,,,,,,,,,,,,,,,,,,,,,,,,,,,,,,,,,,,,,,,,,,,,,,,,,,,,,,,,,,,,,,,,,,,,,,,,,,,,,,,,,,,,,,,
,,,,,,,,,,5fb7cfde7808523cea8ee891,22,Mężczyzna,2022-06-04_08h09.29.243,task,2021.1.4,Win32,74.92320372,628b806c463b948bc644b84f,629af730872a5a5560271f91,,,,,4,0,4,0,1,X V Q F H G B L J M P D K C T S W R N Z,,,,,,,,,,,,,,,,,,,,,,,,,,,,,,,,,,,,,,,,,,,,,,,,,,,,,,,,,,,,,,,,,,,,,,,,,,,,,,,,,,,,,,,,,,,,,
,,,,,,,,,,5fb7cfde7808523cea8ee891,22,Mężczyzna,2022-06-04_08h09.29.243,task,2021.1.4,Win32,74.92320372,628b806c463b948bc644b84f,629af730872a5a5560271f91,,,,,5,0,5,0,1,X V Q F H G B L J M P D K C T S W R N Z,,,,,,,,,,,,,,,,,,,,,,,,,,,,,,,,,,,,,,,,,,,,,,,,,,,,,,,,,,,,,,,,,,,,,,,,,,,,,,,,,,,,,,,,,,,,,
,,,,,,,,,,5fb7cfde7808523cea8ee891,22,Mężczyzna,2022-06-04_08h09.29.243,task,2021.1.4,Win32,74.92320372,628b806c463b948bc644b84f,629af730872a5a5560271f91,,,,,6,0,6,0,1,X V Q F H G B L J M P D K C T S W R N Z,,,,,,,,,,,,,,,,,,,,,,,,,,,,,,,,,,,,,,,,,,,,,,,,,,,,,,,,,,,,,,,,,,,,,,,,,,,,,,,,,,,,,,,,,,,,,
,,,,,,,,,,5fb7cfde7808523cea8ee891,22,Mężczyzna,2022-06-04_08h09.29.243,task,2021.1.4,Win32,74.92320372,628b806c463b948bc644b84f,629af730872a5a5560271f91,,,,,,,,,,,flpnqww,"[""f"",""l"",""p"",""n"",""q"",""w"",""w""]","[3.4180000000000064,3.5501000000238037,3.7276000000238128,4.617900000035775,4.803199999988124,5.242900000035775,5.443699999988098,6.070600000023887]",1,FLPNQWW,14,0,14,0,1,,,,,,,,,,,,,,,,,,,,,,,,,,,,,,,,,,,,,,,,,,,,,,,,,,,,,,,,,,,,,,,,,,,,,,,,,,,,,,,,,,,
,,,,,,,,,,5fb7cfde7808523cea8ee891,22,Mężczyzna,2022-06-04_08h09.29.243,task,2021.1.4,Win32,74.92320372,628b806c463b948bc644b84f,629af730872a5a5560271f91,,,,,0,0,0,0,1,X V Q F H G B L J M P D K C T S W R N Z,,,,,,,,,,,,,,,,,,,,,,,,,,,,,,,,,,,,,,,,,,,,,,,,,,,,,,,,,,,,,,,,,,,,,,,,,,,,,,,,,,,,,,,,,,,,,
,,,,,,,,,,5fb7cfde7808523cea8ee891,22,Mężczyzna,2022-06-04_08h09.29.243,task,2021.1.4,Win32,74.92320372,628b806c463b948bc644b84f,629af730872a5a5560271f91,,,,,1,0,1,0,1,X V Q F H G B L J M P D K C T S W R N Z,,,,,,,,,,,,,,,,,,,,,,,,,,,,,,,,,,,,,,,,,,,,,,,,,,,,,,,,,,,,,,,,,,,,,,,,,,,,,,,,,,,,,,,,,,,,,
,,,,,,,,,,5fb7cfde7808523cea8ee891,22,Mężczyzna,2022-06-04_08h09.29.243,task,2021.1.4,Win32,74.92320372,628b806c463b948bc644b84f,629af730872a5a5560271f91,,,,,2,0,2,0,1,X V Q F H G B L J M P D K C T S W R N Z,,,,,,,,,,,,,,,,,,,,,,,,,,,,,,,,,,,,,,,,,,,,,,,,,,,,,,,,,,,,,,,,,,,,,,,,,,,,,,,,,,,,,,,,,,,,,
,,,,,,,,,,5fb7cfde7808523cea8ee891,22,Mężczyzna,2022-06-04_08h09.29.243,task,2021.1.4,Win32,74.92320372,628b806c463b948bc644b84f,629af730872a5a5560271f91,,,,,3,0,3,0,1,X V Q F H G B L J M P D K C T S W R N Z,,,,,,,,,,,,,,,,,,,,,,,,,,,,,,,,,,,,,,,,,,,,,,,,,,,,,,,,,,,,,,,,,,,,,,,,,,,,,,,,,,,,,,,,,,,,,
,,,,,,,,,,5fb7cfde7808523cea8ee891,22,Mężczyzna,2022-06-04_08h09.29.243,task,2021.1.4,Win32,74.92320372,628b806c463b948bc644b84f,629af730872a5a5560271f91,,,,,4,0,4,0,1,X V Q F H G B L J M P D K C T S W R N Z,,,,,,,,,,,,,,,,,,,,,,,,,,,,,,,,,,,,,,,,,,,,,,,,,,,,,,,,,,,,,,,,,,,,,,,,,,,,,,,,,,,,,,,,,,,,,
,,,,,,,,,,5fb7cfde7808523cea8ee891,22,Mężczyzna,2022-06-04_08h09.29.243,task,2021.1.4,Win32,74.92320372,628b806c463b948bc644b84f,629af730872a5a5560271f91,,,,,5,0,5,0,1,X V Q F H G B L J M P D K C T S W R N Z,,,,,,,,,,,,,,,,,,,,,,,,,,,,,,,,,,,,,,,,,,,,,,,,,,,,,,,,,,,,,,,,,,,,,,,,,,,,,,,,,,,,,,,,,,,,,
,,,,,,,,,,5fb7cfde7808523cea8ee891,22,Mężczyzna,2022-06-04_08h09.29.243,task,2021.1.4,Win32,74.92320372,628b806c463b948bc644b84f,629af730872a5a5560271f91,,,,,6,0,6,0,1,X V Q F H G B L J M P D K C T S W R N Z,,,,,,,,,,,,,,,,,,,,,,,,,,,,,,,,,,,,,,,,,,,,,,,,,,,,,,,,,,,,,,,,,,,,,,,,,,,,,,,,,,,,,,,,,,,,,
,,,,,,,,,,5fb7cfde7808523cea8ee891,22,Mężczyzna,2022-06-04_08h09.29.243,task,2021.1.4,Win32,74.92320372,628b806c463b948bc644b84f,629af730872a5a5560271f91,,,,,7,0,7,0,1,X V Q F H G B L J M P D K C T S W R N Z,,,,,,,,,,,,,,,,,,,,,,,,,,,,,,,,,,,,,,,,,,,,,,,,,,,,,,,,,,,,,,,,,,,,,,,,,,,,,,,,,,,,,,,,,,,,,
,,,,,,,,,,5fb7cfde7808523cea8ee891,22,Mężczyzna,2022-06-04_08h09.29.243,task,2021.1.4,Win32,74.92320372,628b806c463b948bc644b84f,629af730872a5a5560271f91,,,,,,,,,,,mbpctwkp,"[""m"",""b"",""p"",""c"",""t"",""w"",""k"",""p""]","[3.0961999999880163,3.9394000000356755,4.096400000035715,4.445699999988051,4.725800000011873,4.873900000035746,5.070400000035761,5.364500000000021,11.859300000011899]",1,MBPCTWKP,15,0,15,0,1,,,,,,,,,,,,,,,,,,,,,,,,,,,,,,,,,,,,,,,,,,,,,,,,,,,,,,,,,,,,,,,,,,,,,,,,,,,,,,,,,,,
,,,,,,,,,,5fb7cfde7808523cea8ee891,22,Mężczyzna,2022-06-04_08h09.29.243,task,2021.1.4,Win32,74.92320372,628b806c463b948bc644b84f,629af730872a5a5560271f91,,,,,0,0,0,0,1,X V Q F H G B L J M P D K C T S W R N Z,,,,,,,,,,,,,,,,,,,,,,,,,,,,,,,,,,,,,,,,,,,,,,,,,,,,,,,,,,,,,,,,,,,,,,,,,,,,,,,,,,,,,,,,,,,,,
,,,,,,,,,,5fb7cfde7808523cea8ee891,22,Mężczyzna,2022-06-04_08h09.29.243,task,2021.1.4,Win32,74.92320372,628b806c463b948bc644b84f,629af730872a5a5560271f91,,,,,1,0,1,0,1,X V Q F H G B L J M P D K C T S W R N Z,,,,,,,,,,,,,,,,,,,,,,,,,,,,,,,,,,,,,,,,,,,,,,,,,,,,,,,,,,,,,,,,,,,,,,,,,,,,,,,,,,,,,,,,,,,,,
,,,,,,,,,,5fb7cfde7808523cea8ee891,22,Mężczyzna,2022-06-04_08h09.29.243,task,2021.1.4,Win32,74.92320372,628b806c463b948bc644b84f,629af730872a5a5560271f91,,,,,2,0,2,0,1,X V Q F H G B L J M P D K C T S W R N Z,,,,,,,,,,,,,,,,,,,,,,,,,,,,,,,,,,,,,,,,,,,,,,,,,,,,,,,,,,,,,,,,,,,,,,,,,,,,,,,,,,,,,,,,,,,,,
,,,,,,,,,,5fb7cfde7808523cea8ee891,22,Mężczyzna,2022-06-04_08h09.29.243,task,2021.1.4,Win32,74.92320372,628b806c463b948bc644b84f,629af730872a5a5560271f91,,,,,3,0,3,0,1,X V Q F H G B L J M P D K C T S W R N Z,,,,,,,,,,,,,,,,,,,,,,,,,,,,,,,,,,,,,,,,,,,,,,,,,,,,,,,,,,,,,,,,,,,,,,,,,,,,,,,,,,,,,,,,,,,,,
,,,,,,,,,,5fb7cfde7808523cea8ee891,22,Mężczyzna,2022-06-04_08h09.29.243,task,2021.1.4,Win32,74.92320372,628b806c463b948bc644b84f,629af730872a5a5560271f91,,,,,4,0,4,0,1,X V Q F H G B L J M P D K C T S W R N Z,,,,,,,,,,,,,,,,,,,,,,,,,,,,,,,,,,,,,,,,,,,,,,,,,,,,,,,,,,,,,,,,,,,,,,,,,,,,,,,,,,,,,,,,,,,,,
,,,,,,,,,,5fb7cfde7808523cea8ee891,22,Mężczyzna,2022-06-04_08h09.29.243,task,2021.1.4,Win32,74.92320372,628b806c463b948bc644b84f,629af730872a5a5560271f91,,,,,5,0,5,0,1,X V Q F H G B L J M P D K C T S W R N Z,,,,,,,,,,,,,,,,,,,,,,,,,,,,,,,,,,,,,,,,,,,,,,,,,,,,,,,,,,,,,,,,,,,,,,,,,,,,,,,,,,,,,,,,,,,,,
,,,,,,,,,,5fb7cfde7808523cea8ee891,22,Mężczyzna,2022-06-04_08h09.29.243,task,2021.1.4,Win32,74.92320372,628b806c463b948bc644b84f,629af730872a5a5560271f91,,,,,6,0,6,0,1,X V Q F H G B L J M P D K C T S W R N Z,,,,,,,,,,,,,,,,,,,,,,,,,,,,,,,,,,,,,,,,,,,,,,,,,,,,,,,,,,,,,,,,,,,,,,,,,,,,,,,,,,,,,,,,,,,,,
,,,,,,,,,,5fb7cfde7808523cea8ee891,22,Mężczyzna,2022-06-04_08h09.29.243,task,2021.1.4,Win32,74.92320372,628b806c463b948bc644b84f,629af730872a5a5560271f91,,,,,7,0,7,0,1,X V Q F H G B L J M P D K C T S W R N Z,,,,,,,,,,,,,,,,,,,,,,,,,,,,,,,,,,,,,,,,,,,,,,,,,,,,,,,,,,,,,,,,,,,,,,,,,,,,,,,,,,,,,,,,,,,,,
,,,,,,,,,,5fb7cfde7808523cea8ee891,22,Mężczyzna,2022-06-04_08h09.29.243,task,2021.1.4,Win32,74.92320372,628b806c463b948bc644b84f,629af730872a5a5560271f91,,,,,,,,,,,cfvvcbln,"[""c"",""f"",""v"",""v"",""c"",""b"",""l"",""n""]","[2.5758000000118955,2.952699999987999,3.62399999999991,3.792300000011892,4.04280000001188,4.29930000001184,4.536399999976084,4.669800000011833,4.820399999976075]",1,CFVVCBLN,16,0,16,0,1,,,,,,,,,,,,,,,,,,,,,,,,,,,,,,,,,,,,,,,,,,,,,,,,,,,,,,,,,,,,,,,,,,,,,,,,,,,,,,,,,,,
,,,,,,,,,,5fb7cfde7808523cea8ee891,22,Mężczyzna,2022-06-04_08h09.29.243,task,2021.1.4,Win32,74.92320372,628b806c463b948bc644b84f,629af730872a5a5560271f91,,,,,0,0,0,0,1,X V Q F H G B L J M P D K C T S W R N Z,,,,,,,,,,,,,,,,,,,,,,,,,,,,,,,,,,,,,,,,,,,,,,,,,,,,,,,,,,,,,,,,,,,,,,,,,,,,,,,,,,,,,,,,,,,,,
,,,,,,,,,,5fb7cfde7808523cea8ee891,22,Mężczyzna,2022-06-04_08h09.29.243,task,2021.1.4,Win32,74.92320372,628b806c463b948bc644b84f,629af730872a5a5560271f91,,,,,1,0,1,0,1,X V Q F H G B L J M P D K C T S W R N Z,,,,,,,,,,,,,,,,,,,,,,,,,,,,,,,,,,,,,,,,,,,,,,,,,,,,,,,,,,,,,,,,,,,,,,,,,,,,,,,,,,,,,,,,,,,,,
,,,,,,,,,,5fb7cfde7808523cea8ee891,22,Mężczyzna,2022-06-04_08h09.29.243,task,2021.1.4,Win32,74.92320372,628b806c463b948bc644b84f,629af730872a5a5560271f91,,,,,2,0,2,0,1,X V Q F H G B L J M P D K C T S W R N Z,,,,,,,,,,,,,,,,,,,,,,,,,,,,,,,,,,,,,,,,,,,,,,,,,,,,,,,,,,,,,,,,,,,,,,,,,,,,,,,,,,,,,,,,,,,,,
,,,,,,,,,,5fb7cfde7808523cea8ee891,22,Mężczyzna,2022-06-04_08h09.29.243,task,2021.1.4,Win32,74.92320372,628b806c463b948bc644b84f,629af730872a5a5560271f91,,,,,3,0,3,0,1,X V Q F H G B L J M P D K C T S W R N Z,,,,,,,,,,,,,,,,,,,,,,,,,,,,,,,,,,,,,,,,,,,,,,,,,,,,,,,,,,,,,,,,,,,,,,,,,,,,,,,,,,,,,,,,,,,,,
,,,,,,,,,,5fb7cfde7808523cea8ee891,22,Mężczyzna,2022-06-04_08h09.29.243,task,2021.1.4,Win32,74.92320372,628b806c463b948bc644b84f,629af730872a5a5560271f91,,,,,4,0,4,0,1,X V Q F H G B L J M P D K C T S W R N Z,,,,,,,,,,,,,,,,,,,,,,,,,,,,,,,,,,,,,,,,,,,,,,,,,,,,,,,,,,,,,,,,,,,,,,,,,,,,,,,,,,,,,,,,,,,,,
,,,,,,,,,,5fb7cfde7808523cea8ee891,22,Mężczyzna,2022-06-04_08h09.29.243,task,2021.1.4,Win32,74.92320372,628b806c463b948bc644b84f,629af730872a5a5560271f91,,,,,5,0,5,0,1,X V Q F H G B L J M P D K C T S W R N Z,,,,,,,,,,,,,,,,,,,,,,,,,,,,,,,,,,,,,,,,,,,,,,,,,,,,,,,,,,,,,,,,,,,,,,,,,,,,,,,,,,,,,,,,,,,,,
,,,,,,,,,,5fb7cfde7808523cea8ee891,22,Mężczyzna,2022-06-04_08h09.29.243,task,2021.1.4,Win32,74.92320372,628b806c463b948bc644b84f,629af730872a5a5560271f91,,,,,6,0,6,0,1,X V Q F H G B L J M P D K C T S W R N Z,,,,,,,,,,,,,,,,,,,,,,,,,,,,,,,,,,,,,,,,,,,,,,,,,,,,,,,,,,,,,,,,,,,,,,,,,,,,,,,,,,,,,,,,,,,,,
,,,,,,,,,,5fb7cfde7808523cea8ee891,22,Mężczyzna,2022-06-04_08h09.29.243,task,2021.1.4,Win32,74.92320372,628b806c463b948bc644b84f,629af730872a5a5560271f91,,,,,7,0,7,0,1,X V Q F H G B L J M P D K C T S W R N Z,,,,,,,,,,,,,,,,,,,,,,,,,,,,,,,,,,,,,,,,,,,,,,,,,,,,,,,,,,,,,,,,,,,,,,,,,,,,,,,,,,,,,,,,,,,,,
,,,,,,,,,,5fb7cfde7808523cea8ee891,22,Mężczyzna,2022-06-04_08h09.29.243,task,2021.1.4,Win32,74.92320372,628b806c463b948bc644b84f,629af730872a5a5560271f91,,,,,8,0,8,0,1,X V Q F H G B L J M P D K C T S W R N Z,,,,,,,,,,,,,,,,,,,,,,,,,,,,,,,,,,,,,,,,,,,,,,,,,,,,,,,,,,,,,,,,,,,,,,,,,,,,,,,,,,,,,,,,,,,,,
,,,,,,,,,,5fb7cfde7808523cea8ee891,22,Mężczyzna,2022-06-04_08h09.29.243,task,2021.1.4,Win32,74.92320372,628b806c463b948bc644b84f,629af730872a5a5560271f91,,,,,,,,,,,pqznnkqcr,"[""p"",""q"",""z"",""n"",""n"",""k"",""q"",""c"",""r""]","[3.0546000000239246,5.750999999999976,6.24710000002392,7.256500000000074,7.443200000047682,7.656900000035762,9.76190000003578,10.06970000004776,15.006700000047658,15.337700000047676]",1,PQZNNKQCR,17,0,17,0,1,,,,,,,,,,,,,,,,,,,,,,,,,,,,,,,,,,,,,,,,,,,,,,,,,,,,,,,,,,,,,,,,,,,,,,,,,,,,,,,,,,,
,,,,,,,,,,5fb7cfde7808523cea8ee891,22,Mężczyzna,2022-06-04_08h09.29.243,task,2021.1.4,Win32,74.92320372,628b806c463b948bc644b84f,629af730872a5a5560271f91,,,,,0,0,0,0,1,X V Q F H G B L J M P D K C T S W R N Z,,,,,,,,,,,,,,,,,,,,,,,,,,,,,,,,,,,,,,,,,,,,,,,,,,,,,,,,,,,,,,,,,,,,,,,,,,,,,,,,,,,,,,,,,,,,,
,,,,,,,,,,5fb7cfde7808523cea8ee891,22,Mężczyzna,2022-06-04_08h09.29.243,task,2021.1.4,Win32,74.92320372,628b806c463b948bc644b84f,629af730872a5a5560271f91,,,,,1,0,1,0,1,X V Q F H G B L J M P D K C T S W R N Z,,,,,,,,,,,,,,,,,,,,,,,,,,,,,,,,,,,,,,,,,,,,,,,,,,,,,,,,,,,,,,,,,,,,,,,,,,,,,,,,,,,,,,,,,,,,,
,,,,,,,,,,5fb7cfde7808523cea8ee891,22,Mężczyzna,2022-06-04_08h09.29.243,task,2021.1.4,Win32,74.92320372,628b806c463b948bc644b84f,629af730872a5a5560271f91,,,,,2,0,2,0,1,X V Q F H G B L J M P D K C T S W R N Z,,,,,,,,,,,,,,,,,,,,,,,,,,,,,,,,,,,,,,,,,,,,,,,,,,,,,,,,,,,,,,,,,,,,,,,,,,,,,,,,,,,,,,,,,,,,,
,,,,,,,,,,5fb7cfde7808523cea8ee891,22,Mężczyzna,2022-06-04_08h09.29.243,task,2021.1.4,Win32,74.92320372,628b806c463b948bc644b84f,629af730872a5a5560271f91,,,,,3,0,3,0,1,X V Q F H G B L J M P D K C T S W R N Z,,,,,,,,,,,,,,,,,,,,,,,,,,,,,,,,,,,,,,,,,,,,,,,,,,,,,,,,,,,,,,,,,,,,,,,,,,,,,,,,,,,,,,,,,,,,,
,,,,,,,,,,5fb7cfde7808523cea8ee891,22,Mężczyzna,2022-06-04_08h09.29.243,task,2021.1.4,Win32,74.92320372,628b806c463b948bc644b84f,629af730872a5a5560271f91,,,,,4,0,4,0,1,X V Q F H G B L J M P D K C T S W R N Z,,,,,,,,,,,,,,,,,,,,,,,,,,,,,,,,,,,,,,,,,,,,,,,,,,,,,,,,,,,,,,,,,,,,,,,,,,,,,,,,,,,,,,,,,,,,,
,,,,,,,,,,5fb7cfde7808523cea8ee891,22,Mężczyzna,2022-06-04_08h09.29.243,task,2021.1.4,Win32,74.92320372,628b806c463b948bc644b84f,629af730872a5a5560271f91,,,,,5,0,5,0,1,X V Q F H G B L J M P D K C T S W R N Z,,,,,,,,,,,,,,,,,,,,,,,,,,,,,,,,,,,,,,,,,,,,,,,,,,,,,,,,,,,,,,,,,,,,,,,,,,,,,,,,,,,,,,,,,,,,,
,,,,,,,,,,5fb7cfde7808523cea8ee891,22,Mężczyzna,2022-06-04_08h09.29.243,task,2021.1.4,Win32,74.92320372,628b806c463b948bc644b84f,629af730872a5a5560271f91,,,,,6,0,6,0,1,X V Q F H G B L J M P D K C T S W R N Z,,,,,,,,,,,,,,,,,,,,,,,,,,,,,,,,,,,,,,,,,,,,,,,,,,,,,,,,,,,,,,,,,,,,,,,,,,,,,,,,,,,,,,,,,,,,,
,,,,,,,,,,5fb7cfde7808523cea8ee891,22,Mężczyzna,2022-06-04_08h09.29.243,task,2021.1.4,Win32,74.92320372,628b806c463b948bc644b84f,629af730872a5a5560271f91,,,,,7,0,7,0,1,X V Q F H G B L J M P D K C T S W R N Z,,,,,,,,,,,,,,,,,,,,,,,,,,,,,,,,,,,,,,,,,,,,,,,,,,,,,,,,,,,,,,,,,,,,,,,,,,,,,,,,,,,,,,,,,,,,,
,,,,,,,,,,5fb7cfde7808523cea8ee891,22,Mężczyzna,2022-06-04_08h09.29.243,task,2021.1.4,Win32,74.92320372,628b806c463b948bc644b84f,629af730872a5a5560271f91,,,,,8,0,8,0,1,X V Q F H G B L J M P D K C T S W R N Z,,,,,,,,,,,,,,,,,,,,,,,,,,,,,,,,,,,,,,,,,,,,,,,,,,,,,,,,,,,,,,,,,,,,,,,,,,,,,,,,,,,,,,,,,,,,,
,,,,,,,,,,5fb7cfde7808523cea8ee891,22,Mężczyzna,2022-06-04_08h09.29.243,task,2021.1.4,Win32,74.92320372,628b806c463b948bc644b84f,629af730872a5a5560271f91,,,,,,,,,,,pqqzgrhgg,"[""p"",""q"",""q"",""z"",""g"",""r"",""h"",""g"",""g""]","[1.559500000000071,2.7065999999642827,2.93309999996427,4.019999999999982,5.961199999988139,6.284599999964257,6.788199999988137,8.37489999997615,8.511899999976208,9.055799999952342]",0,PQQZBGMGG,18,0,18,0,1,,,,,,,,,,,,,,,,,,,,,,,,,,,,,,,,,,,,,,,,,,,,,,,,,,,,,,,,,,,,,,,,,,,,,,,,,,,,,,,,,,,
,,,,,,,,,,5fb7cfde7808523cea8ee891,22,Mężczyzna,2022-06-04_08h09.29.243,task,2021.1.4,Win32,74.92320372,628b806c463b948bc644b84f,629af730872a5a5560271f91,,,,,0,0,0,0,1,X V Q F H G B L J M P D K C T S W R N Z,,,,,,,,,,,,,,,,,,,,,,,,,,,,,,,,,,,,,,,,,,,,,,,,,,,,,,,,,,,,,,,,,,,,,,,,,,,,,,,,,,,,,,,,,,,,,
,,,,,,,,,,5fb7cfde7808523cea8ee891,22,Mężczyzna,2022-06-04_08h09.29.243,task,2021.1.4,Win32,74.92320372,628b806c463b948bc644b84f,629af730872a5a5560271f91,,,,,1,0,1,0,1,X V Q F H G B L J M P D K C T S W R N Z,,,,,,,,,,,,,,,,,,,,,,,,,,,,,,,,,,,,,,,,,,,,,,,,,,,,,,,,,,,,,,,,,,,,,,,,,,,,,,,,,,,,,,,,,,,,,
,,,,,,,,,,5fb7cfde7808523cea8ee891,22,Mężczyzna,2022-06-04_08h09.29.243,task,2021.1.4,Win32,74.92320372,628b806c463b948bc644b84f,629af730872a5a5560271f91,,,,,2,0,2,0,1,X V Q F H G B L J M P D K C T S W R N Z,,,,,,,,,,,,,,,,,,,,,,,,,,,,,,,,,,,,,,,,,,,,,,,,,,,,,,,,,,,,,,,,,,,,,,,,,,,,,,,,,,,,,,,,,,,,,
,,,,,,,,,,5fb7cfde7808523cea8ee891,22,Mężczyzna,2022-06-04_08h09.29.243,task,2021.1.4,Win32,74.92320372,628b806c463b948bc644b84f,629af730872a5a5560271f91,,,,,3,0,3,0,1,X V Q F H G B L J M P D K C T S W R N Z,,,,,,,,,,,,,,,,,,,,,,,,,,,,,,,,,,,,,,,,,,,,,,,,,,,,,,,,,,,,,,,,,,,,,,,,,,,,,,,,,,,,,,,,,,,,,
,,,,,,,,,,5fb7cfde7808523cea8ee891,22,Mężczyzna,2022-06-04_08h09.29.243,task,2021.1.4,Win32,74.92320372,628b806c463b948bc644b84f,629af730872a5a5560271f91,,,,,4,0,4,0,1,X V Q F H G B L J M P D K C T S W R N Z,,,,,,,,,,,,,,,,,,,,,,,,,,,,,,,,,,,,,,,,,,,,,,,,,,,,,,,,,,,,,,,,,,,,,,,,,,,,,,,,,,,,,,,,,,,,,
,,,,,,,,,,5fb7cfde7808523cea8ee891,22,Mężczyzna,2022-06-04_08h09.29.243,task,2021.1.4,Win32,74.92320372,628b806c463b948bc644b84f,629af730872a5a5560271f91,,,,,5,0,5,0,1,X V Q F H G B L J M P D K C T S W R N Z,,,,,,,,,,,,,,,,,,,,,,,,,,,,,,,,,,,,,,,,,,,,,,,,,,,,,,,,,,,,,,,,,,,,,,,,,,,,,,,,,,,,,,,,,,,,,
,,,,,,,,,,5fb7cfde7808523cea8ee891,22,Mężczyzna,2022-06-04_08h09.29.243,task,2021.1.4,Win32,74.92320372,628b806c463b948bc644b84f,629af730872a5a5560271f91,,,,,6,0,6,0,1,X V Q F H G B L J M P D K C T S W R N Z,,,,,,,,,,,,,,,,,,,,,,,,,,,,,,,,,,,,,,,,,,,,,,,,,,,,,,,,,,,,,,,,,,,,,,,,,,,,,,,,,,,,,,,,,,,,,
,,,,,,,,,,5fb7cfde7808523cea8ee891,22,Mężczyzna,2022-06-04_08h09.29.243,task,2021.1.4,Win32,74.92320372,628b806c463b948bc644b84f,629af730872a5a5560271f91,,,,,7,0,7,0,1,X V Q F H G B L J M P D K C T S W R N Z,,,,,,,,,,,,,,,,,,,,,,,,,,,,,,,,,,,,,,,,,,,,,,,,,,,,,,,,,,,,,,,,,,,,,,,,,,,,,,,,,,,,,,,,,,,,,
,,,,,,,,,,5fb7cfde7808523cea8ee891,22,Mężczyzna,2022-06-04_08h09.29.243,task,2021.1.4,Win32,74.92320372,628b806c463b948bc644b84f,629af730872a5a5560271f91,,,,,8,0,8,0,1,X V Q F H G B L J M P D K C T S W R N Z,,,,,,,,,,,,,,,,,,,,,,,,,,,,,,,,,,,,,,,,,,,,,,,,,,,,,,,,,,,,,,,,,,,,,,,,,,,,,,,,,,,,,,,,,,,,,
,,,,,,,,,,5fb7cfde7808523cea8ee891,22,Mężczyzna,2022-06-04_08h09.29.243,task,2021.1.4,Win32,74.92320372,628b806c463b948bc644b84f,629af730872a5a5560271f91,,,,,,,,,,,ljzvdkknd,"[""l"",""j"",""z"",""v"",""d"",""k"",""k"",""n"",""d""]","[3.2309999999999945,3.6923999999761463,3.88149999999996,4.351999999999975,6.7261999999881255,10.831299999952307,11.015799999952264,11.202599999964264,11.312000000000012,11.629599999964285]",0,LJZVDDKND,19,0,19,0,1,,,,,,,,,,,,,,,,,,,,,,,,,,,,,,,,,,,,,,,,,,,,,,,,,,,,,,,,,,,,,,,,,,,,,,,,,,,,,,,,,,,
,,,,,,,,,,5fb7cfde7808523cea8ee891,22,Mężczyzna,2022-06-04_08h09.29.243,task,2021.1.4,Win32,74.92320372,628b806c463b948bc644b84f,629af730872a5a5560271f91,,,,,0,0,0,0,1,X V Q F H G B L J M P D K C T S W R N Z,,,,,,,,,,,,,,,,,,,,,,,,,,,,,,,,,,,,,,,,,,,,,,,,,,,,,,,,,,,,,,,,,,,,,,,,,,,,,,,,,,,,,,,,,,,,,
,,,,,,,,,,5fb7cfde7808523cea8ee891,22,Mężczyzna,2022-06-04_08h09.29.243,task,2021.1.4,Win32,74.92320372,628b806c463b948bc644b84f,629af730872a5a5560271f91,,,,,1,0,1,0,1,X V Q F H G B L J M P D K C T S W R N Z,,,,,,,,,,,,,,,,,,,,,,,,,,,,,,,,,,,,,,,,,,,,,,,,,,,,,,,,,,,,,,,,,,,,,,,,,,,,,,,,,,,,,,,,,,,,,
,,,,,,,,,,5fb7cfde7808523cea8ee891,22,Mężczyzna,2022-06-04_08h09.29.243,task,2021.1.4,Win32,74.92320372,628b806c463b948bc644b84f,629af730872a5a5560271f91,,,,,2,0,2,0,1,X V Q F H G B L J M P D K C T S W R N Z,,,,,,,,,,,,,,,,,,,,,,,,,,,,,,,,,,,,,,,,,,,,,,,,,,,,,,,,,,,,,,,,,,,,,,,,,,,,,,,,,,,,,,,,,,,,,
,,,,,,,,,,5fb7cfde7808523cea8ee891,22,Mężczyzna,2022-06-04_08h09.29.243,task,2021.1.4,Win32,74.92320372,628b806c463b948bc644b84f,629af730872a5a5560271f91,,,,,3,0,3,0,1,X V Q F H G B L J M P D K C T S W R N Z,,,,,,,,,,,,,,,,,,,,,,,,,,,,,,,,,,,,,,,,,,,,,,,,,,,,,,,,,,,,,,,,,,,,,,,,,,,,,,,,,,,,,,,,,,,,,
,,,,,,,,,,5fb7cfde7808523cea8ee891,22,Mężczyzna,2022-06-04_08h09.29.243,task,2021.1.4,Win32,74.92320372,628b806c463b948bc644b84f,629af730872a5a5560271f91,,,,,4,0,4,0,1,X V Q F H G B L J M P D K C T S W R N Z,,,,,,,,,,,,,,,,,,,,,,,,,,,,,,,,,,,,,,,,,,,,,,,,,,,,,,,,,,,,,,,,,,,,,,,,,,,,,,,,,,,,,,,,,,,,,
,,,,,,,,,,5fb7cfde7808523cea8ee891,22,Mężczyzna,2022-06-04_08h09.29.243,task,2021.1.4,Win32,74.92320372,628b806c463b948bc644b84f,629af730872a5a5560271f91,,,,,5,0,5,0,1,X V Q F H G B L J M P D K C T S W R N Z,,,,,,,,,,,,,,,,,,,,,,,,,,,,,,,,,,,,,,,,,,,,,,,,,,,,,,,,,,,,,,,,,,,,,,,,,,,,,,,,,,,,,,,,,,,,,
,,,,,,,,,,5fb7cfde7808523cea8ee891,22,Mężczyzna,2022-06-04_08h09.29.243,task,2021.1.4,Win32,74.92320372,628b806c463b948bc644b84f,629af730872a5a5560271f91,,,,,6,0,6,0,1,X V Q F H G B L J M P D K C T S W R N Z,,,,,,,,,,,,,,,,,,,,,,,,,,,,,,,,,,,,,,,,,,,,,,,,,,,,,,,,,,,,,,,,,,,,,,,,,,,,,,,,,,,,,,,,,,,,,
,,,,,,,,,,5fb7cfde7808523cea8ee891,22,Mężczyzna,2022-06-04_08h09.29.243,task,2021.1.4,Win32,74.92320372,628b806c463b948bc644b84f,629af730872a5a5560271f91,,,,,7,0,7,0,1,X V Q F H G B L J M P D K C T S W R N Z,,,,,,,,,,,,,,,,,,,,,,,,,,,,,,,,,,,,,,,,,,,,,,,,,,,,,,,,,,,,,,,,,,,,,,,,,,,,,,,,,,,,,,,,,,,,,
,,,,,,,,,,5fb7cfde7808523cea8ee891,22,Mężczyzna,2022-06-04_08h09.29.243,task,2021.1.4,Win32,74.92320372,628b806c463b948bc644b84f,629af730872a5a5560271f91,,,,,8,0,8,0,1,X V Q F H G B L J M P D K C T S W R N Z,,,,,,,,,,,,,,,,,,,,,,,,,,,,,,,,,,,,,,,,,,,,,,,,,,,,,,,,,,,,,,,,,,,,,,,,,,,,,,,,,,,,,,,,,,,,,
,,,,,,,,,,5fb7cfde7808523cea8ee891,22,Mężczyzna,2022-06-04_08h09.29.243,task,2021.1.4,Win32,74.92320372,628b806c463b948bc644b84f,629af730872a5a5560271f91,,,,,,,,,,,cgdbsbjik,"[""c"",""g"",""d"",""b"",""s"",""b"",""j"",""i"",""k""]","[3.30780000001198,7.12470000004771,7.3347000000477465,8.417700000047716,8.658700000047702,9.042800000011994,9.349300000011908,11.735400000035838,11.941800000011995,12.685100000023908]",0,CGHPSBJJX,20,0,20,0,1,,,,,,,,,,,,,,,,,,,,,,,,,,,,,,,,,,,,,,,,,,,,,,,,,,,,,,,,,,,,,,,,,,,,,,,,,,,,,,,,,,,
,,,,,,,,,,5fb7cfde7808523cea8ee891,22,Mężczyzna,2022-06-04_08h09.29.243,task,2021.1.4,Win32,74.92320372,628b806c463b948bc644b84f,629af730872a5a5560271f91,,,,,,,,,,,,,,,,,,,,,space,8.1936,1,"[""1""]",1,[6.492500000000064],[6.492500000000064],0,0,0,1,1,Practice,2,(4x4) - 15,1,,,,,,,,,,,,,,,,,,,,,,,,,,,,,,,,,,,,,,,,,,,,,,,,,,,,,,,,,,,,,,,,,,,
,,,,,,,,,,5fb7cfde7808523cea8ee891,22,Mężczyzna,2022-06-04_08h09.29.243,task,2021.1.4,Win32,74.92320372,628b806c463b948bc644b84f,629af730872a5a5560271f91,,,,,,,,,,,,,,,,,,,,,,,8,"[""8""]",1,[3.0418000000119036],"[6.492500000000064,3.0418000000119036]",0,1,1,8,1,Practice,9,(3x3) - 1,8,,,,,,,,,,,,,,,,,,,,,,,,,,,,,,,,,,,,,,,,,,,,,,,,,,,,,,,,,,,,,,,,,,,
,,,,,,,,,,5fb7cfde7808523cea8ee891,22,Mężczyzna,2022-06-04_08h09.29.243,task,2021.1.4,Win32,74.92320372,628b806c463b948bc644b84f,629af730872a5a5560271f91,,,,,,,,,,,,,,,,,,,,,,,0,"[""0""]",1,[1.8259000000357446],"[6.492500000000064,3.0418000000119036,1.8259000000357446]",0,2,2,0,1,Practice,1,(3x3) -  9,0,,,,,,,,,,,,,,,,,,,,,,,,,,,,,,,,,,,,,,,,,,,,,,,,,,,,,,,,,,,,,,,,,,,
,,,,,,,,,,5fb7cfde7808523cea8ee891,22,Mężczyzna,2022-06-04_08h09.29.243,task,2021.1.4,Win32,74.92320372,628b806c463b948bc644b84f,629af730872a5a5560271f91,,,,,,,,,,,,,,,,,,,,,,,3,"[""3""]",1,[2.107499999999959],"[6.492500000000064,3.0418000000119036,1.8259000000357446,2.107499999999959]",0,3,3,3,1,Practice,4,(8/4) + 1,3,,,,,,,,,,,,,,,,,,,,,,,,,,,,,,,,,,,,,,,,,,,,,,,,,,,,,,,,,,,,,,,,,,,
,,,,,,,,,,5fb7cfde7808523cea8ee891,22,Mężczyzna,2022-06-04_08h09.29.243,task,2021.1.4,Win32,74.92320372,628b806c463b948bc644b84f,629af730872a5a5560271f91,,,,,,,,,,,,,,,,,,,,,,,9,"[""9""]",1,[1.9584999999999582],"[6.492500000000064,3.0418000000119036,1.8259000000357446,2.107499999999959,1.9584999999999582]",0,4,4,9,1,Practice,10,(20/2) - 1,9,,,,,,,,,,,,,,,,,,,,,,,,,,,,,,,,,,,,,,,,,,,,,,,,,,,,,,,,,,,,,,,,,,,
,,,,,,,,,,5fb7cfde7808523cea8ee891,22,Mężczyzna,2022-06-04_08h09.29.243,task,2021.1.4,Win32,74.92320372,628b806c463b948bc644b84f,629af730872a5a5560271f91,,,,,,,,,,,,,,,,,,,,,,,7,"[""7""]",1,[6.374600000023861],"[6.492500000000064,3.0418000000119036,1.8259000000357446,2.107499999999959,1.9584999999999582,6.374600000023861]",0,5,5,7,1,Practice,8,(5x5) - 18,7,,,,,,,,,,,,,,,,,,,,,,,,,,,,,,,,,,,,,,,,,,,,,,,,,,,,,,,,,,,,,,,,,,,
,,,,,,,,,,5fb7cfde7808523cea8ee891,22,Mężczyzna,2022-06-04_08h09.29.243,task,2021.1.4,Win32,74.92320372,628b806c463b948bc644b84f,629af730872a5a5560271f91,,,,,,,,,,,,,,,,,,,,,,,4,"[""4""]",1,[2.479800000011892],"[6.492500000000064,3.0418000000119036,1.8259000000357446,2.107499999999959,1.9584999999999582,6.374600000023861,2.479800000011892]",0,6,6,4,1,Practice,5,(2x6) - 8,4,,,,,,,,,,,,,,,,,,,,,,,,,,,,,,,,,,,,,,,,,,,,,,,,,,,,,,,,,,,,,,,,,,,
,,,,,,,,,,5fb7cfde7808523cea8ee891,22,Mężczyzna,2022-06-04_08h09.29.243,task,2021.1.4,Win32,74.92320372,628b806c463b948bc644b84f,629af730872a5a5560271f91,,,,,,,,,,,,,,,,,,,,,,,2,"[""2""]",1,[2.131999999999948],"[6.492500000000064,3.0418000000119036,1.8259000000357446,2.107499999999959,1.9584999999999582,6.374600000023861,2.479800000011892,2.131999999999948]",0,7,7,2,1,Practice,3,(4x4) - 14,2,,,,,,,,,,,,,,,,,,,,,,,,,,,,,,,,,,,,,,,,,,,,,,,,,,,,,,,,,,,,,,,,,,,
,,,,,,,,,,5fb7cfde7808523cea8ee891,22,Mężczyzna,2022-06-04_08h09.29.243,task,2021.1.4,Win32,74.92320372,628b806c463b948bc644b84f,629af730872a5a5560271f91,,,,,,,,,,,,,,,,,,,,,,,6,"[""6""]",1,[3.7901000000239264],"[6.492500000000064,3.0418000000119036,1.8259000000357446,2.107499999999959,1.9584999999999582,6.374600000023861,2.479800000011892,2.131999999999948,3.7901000000239264]",0,8,8,6,1,Practice,7,(25/5) + 1,6,,,,,,,,,,,,,,,,,,,,,,,,,,,,,,,,,,,,,,,,,,,,,,,,,,,,,,,,,,,,,,,,,,,
,,,,,,,,,,5fb7cfde7808523cea8ee891,22,Mężczyzna,2022-06-04_08h09.29.243,task,2021.1.4,Win32,74.92320372,628b806c463b948bc644b84f,629af730872a5a5560271f91,,,,,,,,,,,,,,,,,,,,,,,5,"[""5""]",1,[1.5597000000476555],"[6.492500000000064,3.0418000000119036,1.8259000000357446,2.107499999999959,1.9584999999999582,6.374600000023861,2.479800000011892,2.131999999999948,3.7901000000239264,1.5597000000476555]",0,9,9,5,1,Practice,6,(4/2) + 3,5,,,,,,,,,,,,,,,,,,,,,,,,,,,,,,,,,,,,,,,,,,,,,,,,,,,,,,,,,,,,,,,,,,,
,,,,,,,,,,5fb7cfde7808523cea8ee891,22,Mężczyzna,2022-06-04_08h09.29.243,task,2021.1.4,Win32,74.92320372,628b806c463b948bc644b84f,629af730872a5a5560271f91,,,,,,,,,,,,,,,,,,,,,,,,,,,,,,,,,,,,,1,31.7624,2.117493333,41.46861177,1.66270085,6.407261527,space,4.8977,0,0,0,0,1,,,,,,,,,,,,,,,,,,,,,,,,,,,,,,,,,,,,,,,,,,,,,,,,,,,,,,
,,,,,,,,,,5fb7cfde7808523cea8ee891,22,Mężczyzna,2022-06-04_08h09.29.243,task,2021.1.4,Win32,74.92320372,628b806c463b948bc644b84f,629af730872a5a5560271f91,,,,,,,,,,,,,,,,,,,,,,,5,,,,,,,,,,Practice,6,(4/2) + 3,5,,,,,,,,,,,,,,space,17.5045,"[""5""]",1,[3.4506999999880463],1,0,0,0,5,1,,,,,,,,,,,,,,,,,,,,,,,,,,,,,,,,,,,,,,,,,,,
,,,,,,,,,,5fb7cfde7808523cea8ee891,22,Mężczyzna,2022-06-04_08h09.29.243,task,2021.1.4,Win32,74.92320372,628b806c463b948bc644b84f,629af730872a5a5560271f91,,,,,,,,,,X V Q F H G B L J M P D K C T S W R N Z,,,,,,,,,,,,,,,,,,,,,,,,,,,,,,,,,,,,,,,,,,,,,,,,,,,0,0,0,0,1,,,,,,,,,,,,,,,,,,,,,,,,,,,,,,,,,,,,,,
,,,,,,,,,,5fb7cfde7808523cea8ee891,22,Mężczyzna,2022-06-04_08h09.29.243,task,2021.1.4,Win32,74.92320372,628b806c463b948bc644b84f,629af730872a5a5560271f91,,,,,,,,,,,,,,,,,,,,,,,6,,,,,,,,,,Practice,7,(25/5) + 1,6,,,,,,,,,,,,,,,,"[""6""]",1,[6.26190000003578],1,0,0,0,6,1,,,,,,,,,,,,,,,,,,,,,,,,,,,,,,,,,,,,,,,,,,,
,,,,,,,,,,5fb7cfde7808523cea8ee891,22,Mężczyzna,2022-06-04_08h09.29.243,task,2021.1.4,Win32,74.92320372,628b806c463b948bc644b84f,629af730872a5a5560271f91,,,,,,,,,,X V Q F H G B L J M P D K C T S W R N Z,,,,,,,,,,,,,,,,,,,,,,,,,,,,,,,,,,,,,,,,,,,,,,,,,,,1,0,1,0,1,,,,,,,,,,,,,,,,,,,,,,,,,,,,,,,,,,,,,,
,,,,,,,,,,5fb7cfde7808523cea8ee891,22,Mężczyzna,2022-06-04_08h09.29.243,task,2021.1.4,Win32,74.92320372,628b806c463b948bc644b84f,629af730872a5a5560271f91,,,,,,,,,,,,,,,,,,,,,,,,,,,,,,,,,,,,,,,,,,,,,,,,,,,,,,,,,,,,,,,,,,zj,"[""z"",""j""]",0,"[4.857600000023581,5.043100000023628,5.417199999987929]",1,0,0,0,0,1,,,,,,,,,,,,,,,,,,,,,,,,,,,,
,,,,,,,,,,5fb7cfde7808523cea8ee891,22,Mężczyzna,2022-06-04_08h09.29.243,task,2021.1.4,Win32,74.92320372,628b806c463b948bc644b84f,629af730872a5a5560271f91,,,,,,,,,,,,,,,,,,,,,,,0,,,,,,,,,,Practice,1,(3x3) -  9,0,,,,,,,,,,,,,,,,"[""0""]",1,[1.69270000004758],1,0,0,0,0,1,,,,,,,,,,,,,,,,,,,,,,,,,,,,,,,,,,,,,,,,,,,
,,,,,,,,,,5fb7cfde7808523cea8ee891,22,Mężczyzna,2022-06-04_08h09.29.243,task,2021.1.4,Win32,74.92320372,628b806c463b948bc644b84f,629af730872a5a5560271f91,,,,,,,,,,X V Q F H G B L J M P D K C T S W R N Z,,,,,,,,,,,,,,,,,,,,,,,,,,,,,,,,,,,,,,,,,,,,,,,,,,,0,0,0,0,1,,,,,,,,,,,,,,,,,,,,,,,,,,,,,,,,,,,,,,
,,,,,,,,,,5fb7cfde7808523cea8ee891,22,Mężczyzna,2022-06-04_08h09.29.243,task,2021.1.4,Win32,74.92320372,628b806c463b948bc644b84f,629af730872a5a5560271f91,,,,,,,,,,,,,,,,,,,,,,,9,,,,,,,,,,Practice,10,(20/2) - 1,9,,,,,,,,,,,,,,,,"[""9""]",1,[5.241999999999962],1,0,0,0,9,1,,,,,,,,,,,,,,,,,,,,,,,,,,,,,,,,,,,,,,,,,,,
,,,,,,,,,,5fb7cfde7808523cea8ee891,22,Mężczyzna,2022-06-04_08h09.29.243,task,2021.1.4,Win32,74.92320372,628b806c463b948bc644b84f,629af730872a5a5560271f91,,,,,,,,,,X V Q F H G B L J M P D K C T S W R N Z,,,,,,,,,,,,,,,,,,,,,,,,,,,,,,,,,,,,,,,,,,,,,,,,,,,1,0,1,0,1,,,,,,,,,,,,,,,,,,,,,,,,,,,,,,,,,,,,,,
,,,,,,,,,,5fb7cfde7808523cea8ee891,22,Mężczyzna,2022-06-04_08h09.29.243,task,2021.1.4,Win32,74.92320372,628b806c463b948bc644b84f,629af730872a5a5560271f91,,,,,,,,,,,,,,,,,,,,,,,,,,,,,,,,,,,,,,,,,,,,,,,,,,,,,,,,,,,,,,,,,,pr,"[""p"",""r""]",0,"[1.85630000001197,2.0413000000119155,2.3213999999761654]",1,1,0,1,0,1,,,,,,,,,,,,,,,,,,,,,,,,,,,,
,,,,,,,,,,5fb7cfde7808523cea8ee891,22,Mężczyzna,2022-06-04_08h09.29.243,task,2021.1.4,Win32,74.92320372,628b806c463b948bc644b84f,629af730872a5a5560271f91,,,,,,,,,,,,,,,,,,,,,,,4,,,,,,,,,,Practice,5,(2x6) - 8,4,,,,,,,,,,,,,,,,"[""4""]",1,[2.6814000000358647],1,0,0,0,4,1,,,,,,,,,,,,,,,,,,,,,,,,,,,,,,,,,,,,,,,,,,,
,,,,,,,,,,5fb7cfde7808523cea8ee891,22,Mężczyzna,2022-06-04_08h09.29.243,task,2021.1.4,Win32,74.92320372,628b806c463b948bc644b84f,629af730872a5a5560271f91,,,,,,,,,,X V Q F H G B L J M P D K C T S W R N Z,,,,,,,,,,,,,,,,,,,,,,,,,,,,,,,,,,,,,,,,,,,,,,,,,,,0,0,0,0,1,,,,,,,,,,,,,,,,,,,,,,,,,,,,,,,,,,,,,,
,,,,,,,,,,5fb7cfde7808523cea8ee891,22,Mężczyzna,2022-06-04_08h09.29.243,task,2021.1.4,Win32,74.92320372,628b806c463b948bc644b84f,629af730872a5a5560271f91,,,,,,,,,,,,,,,,,,,,,,,4,,,,,,,,,,Practice,5,(2x6) - 8,4,,,,,,,,,,,,,,,,"[""4""]",1,[2.5642000000477765],1,0,0,0,4,1,,,,,,,,,,,,,,,,,,,,,,,,,,,,,,,,,,,,,,,,,,,
,,,,,,,,,,5fb7cfde7808523cea8ee891,22,Mężczyzna,2022-06-04_08h09.29.243,task,2021.1.4,Win32,74.92320372,628b806c463b948bc644b84f,629af730872a5a5560271f91,,,,,,,,,,X V Q F H G B L J M P D K C T S W R N Z,,,,,,,,,,,,,,,,,,,,,,,,,,,,,,,,,,,,,,,,,,,,,,,,,,,1,0,1,0,1,,,,,,,,,,,,,,,,,,,,,,,,,,,,,,,,,,,,,,
,,,,,,,,,,5fb7cfde7808523cea8ee891,22,Mężczyzna,2022-06-04_08h09.29.243,task,2021.1.4,Win32,74.92320372,628b806c463b948bc644b84f,629af730872a5a5560271f91,,,,,,,,,,,,,,,,,,,,,,,,,,,,,,,,,,,,,,,,,,,,,,,,,,,,,,,,,,,,,,,,,,lz,"[""l"",""z""]",0,"[1.76290000003587,1.90869999998813,2.1356999999879918]",1,2,0,2,0,1,,,,,,,,,,,,,,,,,,,,,,,,,,,,
,,,,,,,,,,5fb7cfde7808523cea8ee891,22,Mężczyzna,2022-06-04_08h09.29.243,task,2021.1.4,Win32,74.92320372,628b806c463b948bc644b84f,629af730872a5a5560271f91,,,,,,,,,,,,,,,,,,,,,,,4,,,,,,,,,,Task,21,(10/2) - 1,4,,,,,,,,,,,,,,,,,,,1,,,,,,,,,,,,,,,,,,,,,space,11.2726,"[""4""]",1,[4.294199999988223],0,0,0,20,1,,,,,,,,,,,,,,,,,,
,,,,,,,,,,5fb7cfde7808523cea8ee891,22,Mężczyzna,2022-06-04_08h09.29.243,task,2021.1.4,Win32,74.92320372,628b806c463b948bc644b84f,629af730872a5a5560271f91,,,,,,,,,,X V Q F H G B L J M P D K C T S W R N Z,,,,,,,,,,,,,,,,,,,,,,,,,,,,,,,,,,,,,,,,,,,,,,,,,,,,,,,,,,,,,,,,,,,,,,,,,,,,0,0,0,0,1,,,,,,,,,,,,,
,,,,,,,,,,5fb7cfde7808523cea8ee891,22,Mężczyzna,2022-06-04_08h09.29.243,task,2021.1.4,Win32,74.92320372,628b806c463b948bc644b84f,629af730872a5a5560271f91,,,,,,,,,,,,,,,,,,,,,,,,,,,,,,,,,Task,16,(3x8) - 15,9,,,,,,,,,,,,,,,,,,,0,,,,,,,,,,,,,,,,,,,,,,,,0,,0,0,0,15,1,,,,,,,,,,,,,,,,,,
,,,,,,,,,,5fb7cfde7808523cea8ee891,22,Mężczyzna,2022-06-04_08h09.29.243,task,2021.1.4,Win32,74.92320372,628b806c463b948bc644b84f,629af730872a5a5560271f91,,,,,,,,,,,,,,,,,,,,,,,1,,,,,,,,,,Task,9,(3x7) - 20,1,,,,,,,,,,,,,,,,,,,1,,,,,,,,,,,,,,,,,,,,,,,"[""1""]",1,[2.78659999996421],0,1,1,8,1,,,,,,,,,,,,,,,,,,
,,,,,,,,,,5fb7cfde7808523cea8ee891,22,Mężczyzna,2022-06-04_08h09.29.243,task,2021.1.4,Win32,74.92320372,628b806c463b948bc644b84f,629af730872a5a5560271f91,,,,,,,,,,X V Q F H G B L J M P D K C T S W R N Z,,,,,,,,,,,,,,,,,,,,,,,,,,,,,,,,,,,,,,,,,,,,,,,,,,,,,,,,,,,,,,,,,,,,,,,,,,,,1,0,1,0,1,,,,,,,,,,,,,
,,,,,,,,,,5fb7cfde7808523cea8ee891,22,Mężczyzna,2022-06-04_08h09.29.243,task,2021.1.4,Win32,74.92320372,628b806c463b948bc644b84f,629af730872a5a5560271f91,,,,,,,,,,,,,,,,,,,,,,,,,,,,,,,,,,,,,,,,,,,,,,,,,,,,,,,,,,,,,,,,,,,,,,,,,,,,,,,,,,,,,,,,,,,zb,"[""z"",""b""]",0,"[2.150299999952267,2.3136999999878753,2.6174999999998363]",1,ZB,0,0,0,0,1,,
,,,,,,,,,,5fb7cfde7808523cea8ee891,22,Mężczyzna,2022-06-04_08h09.29.243,task,2021.1.4,Win32,74.92320372,628b806c463b948bc644b84f,629af730872a5a5560271f91,,,,,,,,,,,,,,,,,,,,,,,9,,,,,,,,,,Task,7,(3x7) - 12,9,,,,,,,,,,,,,,,,,,,1,,,,,,,,,,,,,,,,,,,,,,,"[""9""]",1,[5.725800000011759],0,0,0,6,1,,,,,,,,,,,,,,,,,,
,,,,,,,,,,5fb7cfde7808523cea8ee891,22,Mężczyzna,2022-06-04_08h09.29.243,task,2021.1.4,Win32,74.92320372,628b806c463b948bc644b84f,629af730872a5a5560271f91,,,,,,,,,,X V Q F H G B L J M P D K C T S W R N Z,,,,,,,,,,,,,,,,,,,,,,,,,,,,,,,,,,,,,,,,,,,,,,,,,,,,,,,,,,,,,,,,,,,,,,,,,,,,0,0,0,0,1,,,,,,,,,,,,,
,,,,,,,,,,5fb7cfde7808523cea8ee891,22,Mężczyzna,2022-06-04_08h09.29.243,task,2021.1.4,Win32,74.92320372,628b806c463b948bc644b84f,629af730872a5a5560271f91,,,,,,,,,,,,,,,,,,,,,,,0,,,,,,,,,,Task,25,(10/5) - 2,0,,,,,,,,,,,,,,,,,,,1,,,,,,,,,,,,,,,,,,,,,,,"[""0""]",1,[3.8676999999879627],0,0,0,24,1,,,,,,,,,,,,,,,,,,
,,,,,,,,,,5fb7cfde7808523cea8ee891,22,Mężczyzna,2022-06-04_08h09.29.243,task,2021.1.4,Win32,74.92320372,628b806c463b948bc644b84f,629af730872a5a5560271f91,,,,,,,,,,X V Q F H G B L J M P D K C T S W R N Z,,,,,,,,,,,,,,,,,,,,,,,,,,,,,,,,,,,,,,,,,,,,,,,,,,,,,,,,,,,,,,,,,,,,,,,,,,,,1,0,1,0,1,,,,,,,,,,,,,
,,,,,,,,,,5fb7cfde7808523cea8ee891,22,Mężczyzna,2022-06-04_08h09.29.243,task,2021.1.4,Win32,74.92320372,628b806c463b948bc644b84f,629af730872a5a5560271f91,,,,,,,,,,,,,,,,,,,,,,,5,,,,,,,,,,Task,36,(8/4) + 3,5,,,,,,,,,,,,,,,,,,,1,,,,,,,,,,,,,,,,,,,,,,,"[""5""]",1,[2.723699999987957],0,0,0,35,1,,,,,,,,,,,,,,,,,,
,,,,,,,,,,5fb7cfde7808523cea8ee891,22,Mężczyzna,2022-06-04_08h09.29.243,task,2021.1.4,Win32,74.92320372,628b806c463b948bc644b84f,629af730872a5a5560271f91,,,,,,,,,,X V Q F H G B L J M P D K C T S W R N Z,,,,,,,,,,,,,,,,,,,,,,,,,,,,,,,,,,,,,,,,,,,,,,,,,,,,,,,,,,,,,,,,,,,,,,,,,,,,2,0,2,0,1,,,,,,,,,,,,,
,,,,,,,,,,5fb7cfde7808523cea8ee891,22,Mężczyzna,2022-06-04_08h09.29.243,task,2021.1.4,Win32,74.92320372,628b806c463b948bc644b84f,629af730872a5a5560271f91,,,,,,,,,,,,,,,,,,,,,,,,,,,,,,,,,,,,,,,,,,,,,,,,,,,,,,,,,,,,,,,,,,,,,,,,,,,,,,,,,,,,,,,,,,,zlc,"[""z"",""l"",""c""]",0,"[2.3478000000120574,2.6539999999999964,3.374300000011999,3.484899999976278]",1,ZLC,1,0,1,0,1,,
,,,,,,,,,,5fb7cfde7808523cea8ee891,22,Mężczyzna,2022-06-04_08h09.29.243,task,2021.1.4,Win32,74.92320372,628b806c463b948bc644b84f,629af730872a5a5560271f91,,,,,,,,,,,,,,,,,,,,,,,3,,,,,,,,,,Task,27,(3/3) + 2,3,,,,,,,,,,,,,,,,,,,1,,,,,,,,,,,,,,,,,,,,,,,"[""3""]",1,[2.6639999999999873],0,0,0,26,1,,,,,,,,,,,,,,,,,,
,,,,,,,,,,5fb7cfde7808523cea8ee891,22,Mężczyzna,2022-06-04_08h09.29.243,task,2021.1.4,Win32,74.92320372,628b806c463b948bc644b84f,629af730872a5a5560271f91,,,,,,,,,,X V Q F H G B L J M P D K C T S W R N Z,,,,,,,,,,,,,,,,,,,,,,,,,,,,,,,,,,,,,,,,,,,,,,,,,,,,,,,,,,,,,,,,,,,,,,,,,,,,0,0,0,0,1,,,,,,,,,,,,,
,,,,,,,,,,5fb7cfde7808523cea8ee891,22,Mężczyzna,2022-06-04_08h09.29.243,task,2021.1.4,Win32,74.92320372,628b806c463b948bc644b84f,629af730872a5a5560271f91,,,,,,,,,,,,,,,,,,,,,,,4,,,,,,,,,,Task,11,(18/3) - 2,4,,,,,,,,,,,,,,,,,,,1,,,,,,,,,,,,,,,,,,,,,,,"[""4""]",1,[3.508600000023989],0,0,0,10,1,,,,,,,,,,,,,,,,,,
,,,,,,,,,,5fb7cfde7808523cea8ee891,22,Mężczyzna,2022-06-04_08h09.29.243,task,2021.1.4,Win32,74.92320372,628b806c463b948bc644b84f,629af730872a5a5560271f91,,,,,,,,,,X V Q F H G B L J M P D K C T S W R N Z,,,,,,,,,,,,,,,,,,,,,,,,,,,,,,,,,,,,,,,,,,,,,,,,,,,,,,,,,,,,,,,,,,,,,,,,,,,,1,0,1,0,1,,,,,,,,,,,,,
,,,,,,,,,,5fb7cfde7808523cea8ee891,22,Mężczyzna,2022-06-04_08h09.29.243,task,2021.1.4,Win32,74.92320372,628b806c463b948bc644b84f,629af730872a5a5560271f91,,,,,,,,,,,,,,,,,,,,,,,5,,,,,,,,,,Task,12,(4x4) - 11,5,,,,,,,,,,,,,,,,,,,1,,,,,,,,,,,,,,,,,,,,,,,"[""5""]",1,[3.322499999999991],0,0,0,11,1,,,,,,,,,,,,,,,,,,
,,,,,,,,,,5fb7cfde7808523cea8ee891,22,Mężczyzna,2022-06-04_08h09.29.243,task,2021.1.4,Win32,74.92320372,628b806c463b948bc644b84f,629af730872a5a5560271f91,,,,,,,,,,X V Q F H G B L J M P D K C T S W R N Z,,,,,,,,,,,,,,,,,,,,,,,,,,,,,,,,,,,,,,,,,,,,,,,,,,,,,,,,,,,,,,,,,,,,,,,,,,,,2,0,2,0,1,,,,,,,,,,,,,
