key_resp_15.keys,key_resp_15.rt,key_resp_13.keys,key_resp_13.corr,ranodm_loop.thisRepN,ranodm_loop.thisTrialN,ranodm_loop.thisN,ranodm_loop.thisIndex,ranodm_loop.ran,participant,Wiek*,Płeć,date,expName,psychopyVersion,OS,frameRate,study_id,session,key_resp_13.rt,key_resp_16.keys,key_resp_16.rt,key_resp_4.keys,key_resp_4.rt,next_letter.thisRepN,next_letter.thisTrialN,next_letter.thisN,next_letter.thisIndex,next_letter.ran,letter,simple_recall,key_resp_5.keys,key_resp_5.rt,simple_recall_corr,simple_recall_corrkeys,next_level.thisRepN,next_level.thisTrialN,next_level.thisN,next_level.thisIndex,next_level.ran,key_resp_2.keys,key_resp_2.rt,digit_answer,key_resp.keys,key_resp.corr,key_resp.rt,RT_list,next_equation.thisRepN,next_equation.thisTrialN,next_equation.thisN,next_equation.thisIndex,next_equation.ran,Task,Trial,Problem,Operation_answer,processing_score,sumRT,meanRT,sumdiff,sd,RT,key_resp_3.keys,key_resp_3.rt,repeat_practice.thisRepN,repeat_practice.thisTrialN,repeat_practice.thisN,repeat_practice.thisIndex,repeat_practice.ran,key_resp_6.keys,key_resp_6.rt,key_resp_11.keys,key_resp_11.corr,key_resp_11.rt,operation_correct,repeat_if_wrong_prac.thisRepN,repeat_if_wrong_prac.thisTrialN,repeat_if_wrong_prac.thisN,repeat_if_wrong_prac.thisIndex,repeat_if_wrong_prac.ran,span_size_prac.thisRepN,span_size_prac.thisTrialN,span_size_prac.thisN,span_size_prac.thisIndex,span_size_prac.ran,complex_recall_practice,key_resp_9.keys,key_resp_9.corr,key_resp_9.rt,complex_prac_corr,span_recall_prac.thisRepN,span_recall_prac.thisTrialN,span_recall_prac.thisN,span_recall_prac.thisIndex,span_recall_prac.ran,key_resp_10.keys,key_resp_10.rt,key_resp_7.keys,key_resp_7.corr,key_resp_7.rt,repeat_if_wrong.thisRepN,repeat_if_wrong.thisTrialN,repeat_if_wrong.thisN,repeat_if_wrong.thisIndex,repeat_if_wrong.ran,span_size.thisRepN,span_size.thisTrialN,span_size.thisN,span_size.thisIndex,span_size.ran,complex_recall,key_resp_8.keys,key_resp_8.corr,key_resp_8.rt,complex_recall_corr,complex_recall_corrkeys,span_recall.thisRepN,span_recall.thisTrialN,span_recall.thisN,span_recall.thisIndex,span_recall.ran,key_resp_12.keys,key_resp_12.rt
space,23.5428,,0,0,0,0,0,1,5fbbc75f884010d82bf37532,26,Mężczyzna,2022-05-28_09h16.13.093,task,2021.1.4,Win32,59.99160118,628b806c463b948bc644b84f,6291cbf0609764fa4ccca5fd,,,,,,,,,,,,,,,,,,,,,,,,,,,,,,,,,,,,,,,,,,,,,,,,,,,,,,,,,,,,,,,,,,,,,,,,,,,,,,,,,,,,,,,,,,,,,,,,,,,,,,,,
,,"[""comma""]",0,1,0,1,0,1,5fbbc75f884010d82bf37532,26,Mężczyzna,2022-05-28_09h16.13.093,task,2021.1.4,Win32,59.99160118,628b806c463b948bc644b84f,6291cbf0609764fa4ccca5fd,[0.6425999999046326],,,,,,,,,,,,,,,,,,,,,,,,,,,,,,,,,,,,,,,,,,,,,,,,,,,,,,,,,,,,,,,,,,,,,,,,,,,,,,,,,,,,,,,,,,,,,,,,,,,,,,,
,,"[""period""]",0,2,0,2,0,1,5fbbc75f884010d82bf37532,26,Mężczyzna,2022-05-28_09h16.13.093,task,2021.1.4,Win32,59.99160118,628b806c463b948bc644b84f,6291cbf0609764fa4ccca5fd,[0.7259000000953648],,,,,,,,,,,,,,,,,,,,,,,,,,,,,,,,,,,,,,,,,,,,,,,,,,,,,,,,,,,,,,,,,,,,,,,,,,,,,,,,,,,,,,,,,,,,,,,,,,,,,,,
,,"[""comma""]",0,3,0,3,0,1,5fbbc75f884010d82bf37532,26,Mężczyzna,2022-05-28_09h16.13.093,task,2021.1.4,Win32,59.99160118,628b806c463b948bc644b84f,6291cbf0609764fa4ccca5fd,[0.7324000000953674],,,,,,,,,,,,,,,,,,,,,,,,,,,,,,,,,,,,,,,,,,,,,,,,,,,,,,,,,,,,,,,,,,,,,,,,,,,,,,,,,,,,,,,,,,,,,,,,,,,,,,,
,,"[""period""]",0,4,0,4,0,1,5fbbc75f884010d82bf37532,26,Mężczyzna,2022-05-28_09h16.13.093,task,2021.1.4,Win32,59.99160118,628b806c463b948bc644b84f,6291cbf0609764fa4ccca5fd,[0.6412999999523237],,,,,,,,,,,,,,,,,,,,,,,,,,,,,,,,,,,,,,,,,,,,,,,,,,,,,,,,,,,,,,,,,,,,,,,,,,,,,,,,,,,,,,,,,,,,,,,,,,,,,,,
,,"[""period""]",0,5,0,5,0,1,5fbbc75f884010d82bf37532,26,Mężczyzna,2022-05-28_09h16.13.093,task,2021.1.4,Win32,59.99160118,628b806c463b948bc644b84f,6291cbf0609764fa4ccca5fd,[0.5717000000476844],,,,,,,,,,,,,,,,,,,,,,,,,,,,,,,,,,,,,,,,,,,,,,,,,,,,,,,,,,,,,,,,,,,,,,,,,,,,,,,,,,,,,,,,,,,,,,,,,,,,,,,
,,"[""comma""]",0,6,0,6,0,1,5fbbc75f884010d82bf37532,26,Mężczyzna,2022-05-28_09h16.13.093,task,2021.1.4,Win32,59.99160118,628b806c463b948bc644b84f,6291cbf0609764fa4ccca5fd,[0.6031000001430442],,,,,,,,,,,,,,,,,,,,,,,,,,,,,,,,,,,,,,,,,,,,,,,,,,,,,,,,,,,,,,,,,,,,,,,,,,,,,,,,,,,,,,,,,,,,,,,,,,,,,,,
,,"[""period""]",0,7,0,7,0,1,5fbbc75f884010d82bf37532,26,Mężczyzna,2022-05-28_09h16.13.093,task,2021.1.4,Win32,59.99160118,628b806c463b948bc644b84f,6291cbf0609764fa4ccca5fd,[0.600799999952315],,,,,,,,,,,,,,,,,,,,,,,,,,,,,,,,,,,,,,,,,,,,,,,,,,,,,,,,,,,,,,,,,,,,,,,,,,,,,,,,,,,,,,,,,,,,,,,,,,,,,,,
,,"[""comma""]",0,8,0,8,0,1,5fbbc75f884010d82bf37532,26,Mężczyzna,2022-05-28_09h16.13.093,task,2021.1.4,Win32,59.99160118,628b806c463b948bc644b84f,6291cbf0609764fa4ccca5fd,[0.5657999999523184],,,,,,,,,,,,,,,,,,,,,,,,,,,,,,,,,,,,,,,,,,,,,,,,,,,,,,,,,,,,,,,,,,,,,,,,,,,,,,,,,,,,,,,,,,,,,,,,,,,,,,,
,,"[""period""]",0,9,0,9,0,1,5fbbc75f884010d82bf37532,26,Mężczyzna,2022-05-28_09h16.13.093,task,2021.1.4,Win32,59.99160118,628b806c463b948bc644b84f,6291cbf0609764fa4ccca5fd,[0.5660000000000025],,,,,,,,,,,,,,,,,,,,,,,,,,,,,,,,,,,,,,,,,,,,,,,,,,,,,,,,,,,,,,,,,,,,,,,,,,,,,,,,,,,,,,,,,,,,,,,,,,,,,,,
,,"[""period""]",0,10,0,10,0,1,5fbbc75f884010d82bf37532,26,Mężczyzna,2022-05-28_09h16.13.093,task,2021.1.4,Win32,59.99160118,628b806c463b948bc644b84f,6291cbf0609764fa4ccca5fd,[0.47129999995230776],,,,,,,,,,,,,,,,,,,,,,,,,,,,,,,,,,,,,,,,,,,,,,,,,,,,,,,,,,,,,,,,,,,,,,,,,,,,,,,,,,,,,,,,,,,,,,,,,,,,,,,
,,"[""comma""]",0,11,0,11,0,1,5fbbc75f884010d82bf37532,26,Mężczyzna,2022-05-28_09h16.13.093,task,2021.1.4,Win32,59.99160118,628b806c463b948bc644b84f,6291cbf0609764fa4ccca5fd,[0.43239999985694055],,,,,,,,,,,,,,,,,,,,,,,,,,,,,,,,,,,,,,,,,,,,,,,,,,,,,,,,,,,,,,,,,,,,,,,,,,,,,,,,,,,,,,,,,,,,,,,,,,,,,,,
,,"[""comma""]",0,12,0,12,0,1,5fbbc75f884010d82bf37532,26,Mężczyzna,2022-05-28_09h16.13.093,task,2021.1.4,Win32,59.99160118,628b806c463b948bc644b84f,6291cbf0609764fa4ccca5fd,[0.363700000047686],,,,,,,,,,,,,,,,,,,,,,,,,,,,,,,,,,,,,,,,,,,,,,,,,,,,,,,,,,,,,,,,,,,,,,,,,,,,,,,,,,,,,,,,,,,,,,,,,,,,,,,
,,"[""period""]",0,13,0,13,0,1,5fbbc75f884010d82bf37532,26,Mężczyzna,2022-05-28_09h16.13.093,task,2021.1.4,Win32,59.99160118,628b806c463b948bc644b84f,6291cbf0609764fa4ccca5fd,[0.3648999998569451],,,,,,,,,,,,,,,,,,,,,,,,,,,,,,,,,,,,,,,,,,,,,,,,,,,,,,,,,,,,,,,,,,,,,,,,,,,,,,,,,,,,,,,,,,,,,,,,,,,,,,,
,,"[""comma""]",0,14,0,14,0,1,5fbbc75f884010d82bf37532,26,Mężczyzna,2022-05-28_09h16.13.093,task,2021.1.4,Win32,59.99160118,628b806c463b948bc644b84f,6291cbf0609764fa4ccca5fd,[0.32240000009537084],,,,,,,,,,,,,,,,,,,,,,,,,,,,,,,,,,,,,,,,,,,,,,,,,,,,,,,,,,,,,,,,,,,,,,,,,,,,,,,,,,,,,,,,,,,,,,,,,,,,,,,
,,"[""comma""]",0,15,0,15,0,1,5fbbc75f884010d82bf37532,26,Mężczyzna,2022-05-28_09h16.13.093,task,2021.1.4,Win32,59.99160118,628b806c463b948bc644b84f,6291cbf0609764fa4ccca5fd,[0.29010000014305604],,,,,,,,,,,,,,,,,,,,,,,,,,,,,,,,,,,,,,,,,,,,,,,,,,,,,,,,,,,,,,,,,,,,,,,,,,,,,,,,,,,,,,,,,,,,,,,,,,,,,,,
,,"[""comma""]",0,16,0,16,0,1,5fbbc75f884010d82bf37532,26,Mężczyzna,2022-05-28_09h16.13.093,task,2021.1.4,Win32,59.99160118,628b806c463b948bc644b84f,6291cbf0609764fa4ccca5fd,[0.23670000004769065],,,,,,,,,,,,,,,,,,,,,,,,,,,,,,,,,,,,,,,,,,,,,,,,,,,,,,,,,,,,,,,,,,,,,,,,,,,,,,,,,,,,,,,,,,,,,,,,,,,,,,,
,,"[""period""]",0,17,0,17,0,1,5fbbc75f884010d82bf37532,26,Mężczyzna,2022-05-28_09h16.13.093,task,2021.1.4,Win32,59.99160118,628b806c463b948bc644b84f,6291cbf0609764fa4ccca5fd,[0.069500000000005],,,,,,,,,,,,,,,,,,,,,,,,,,,,,,,,,,,,,,,,,,,,,,,,,,,,,,,,,,,,,,,,,,,,,,,,,,,,,,,,,,,,,,,,,,,,,,,,,,,,,,,
,,"[""comma""]",0,18,0,18,0,1,5fbbc75f884010d82bf37532,26,Mężczyzna,2022-05-28_09h16.13.093,task,2021.1.4,Win32,59.99160118,628b806c463b948bc644b84f,6291cbf0609764fa4ccca5fd,[0.2603999998569435],,,,,,,,,,,,,,,,,,,,,,,,,,,,,,,,,,,,,,,,,,,,,,,,,,,,,,,,,,,,,,,,,,,,,,,,,,,,,,,,,,,,,,,,,,,,,,,,,,,,,,,
,,"[""period""]",0,19,0,19,0,1,5fbbc75f884010d82bf37532,26,Mężczyzna,2022-05-28_09h16.13.093,task,2021.1.4,Win32,59.99160118,628b806c463b948bc644b84f,6291cbf0609764fa4ccca5fd,[0.08320000004768247],,,,,,,,,,,,,,,,,,,,,,,,,,,,,,,,,,,,,,,,,,,,,,,,,,,,,,,,,,,,,,,,,,,,,,,,,,,,,,,,,,,,,,,,,,,,,,,,,,,,,,,
,,"[""comma""]",0,20,0,20,0,1,5fbbc75f884010d82bf37532,26,Mężczyzna,2022-05-28_09h16.13.093,task,2021.1.4,Win32,59.99160118,628b806c463b948bc644b84f,6291cbf0609764fa4ccca5fd,[0.24159999990463632],,,,,,,,,,,,,,,,,,,,,,,,,,,,,,,,,,,,,,,,,,,,,,,,,,,,,,,,,,,,,,,,,,,,,,,,,,,,,,,,,,,,,,,,,,,,,,,,,,,,,,,
,,"[""period""]",0,21,0,21,0,1,5fbbc75f884010d82bf37532,26,Mężczyzna,2022-05-28_09h16.13.093,task,2021.1.4,Win32,59.99160118,628b806c463b948bc644b84f,6291cbf0609764fa4ccca5fd,[0.4187000000476928],,,,,,,,,,,,,,,,,,,,,,,,,,,,,,,,,,,,,,,,,,,,,,,,,,,,,,,,,,,,,,,,,,,,,,,,,,,,,,,,,,,,,,,,,,,,,,,,,,,,,,,
,,"[""period""]",0,22,0,22,0,1,5fbbc75f884010d82bf37532,26,Mężczyzna,2022-05-28_09h16.13.093,task,2021.1.4,Win32,59.99160118,628b806c463b948bc644b84f,6291cbf0609764fa4ccca5fd,[0.3522999999523222],,,,,,,,,,,,,,,,,,,,,,,,,,,,,,,,,,,,,,,,,,,,,,,,,,,,,,,,,,,,,,,,,,,,,,,,,,,,,,,,,,,,,,,,,,,,,,,,,,,,,,,
,,"[""period""]",0,23,0,23,0,1,5fbbc75f884010d82bf37532,26,Mężczyzna,2022-05-28_09h16.13.093,task,2021.1.4,Win32,59.99160118,628b806c463b948bc644b84f,6291cbf0609764fa4ccca5fd,[0.29309999990465485],,,,,,,,,,,,,,,,,,,,,,,,,,,,,,,,,,,,,,,,,,,,,,,,,,,,,,,,,,,,,,,,,,,,,,,,,,,,,,,,,,,,,,,,,,,,,,,,,,,,,,,
,,"[""comma""]",0,24,0,24,0,1,5fbbc75f884010d82bf37532,26,Mężczyzna,2022-05-28_09h16.13.093,task,2021.1.4,Win32,59.99160118,628b806c463b948bc644b84f,6291cbf0609764fa4ccca5fd,[0.28700000000000614],,,,,,,,,,,,,,,,,,,,,,,,,,,,,,,,,,,,,,,,,,,,,,,,,,,,,,,,,,,,,,,,,,,,,,,,,,,,,,,,,,,,,,,,,,,,,,,,,,,,,,,
,,"[""period""]",0,25,0,25,0,1,5fbbc75f884010d82bf37532,26,Mężczyzna,2022-05-28_09h16.13.093,task,2021.1.4,Win32,59.99160118,628b806c463b948bc644b84f,6291cbf0609764fa4ccca5fd,[0.33280000019072986],,,,,,,,,,,,,,,,,,,,,,,,,,,,,,,,,,,,,,,,,,,,,,,,,,,,,,,,,,,,,,,,,,,,,,,,,,,,,,,,,,,,,,,,,,,,,,,,,,,,,,,
,,"[""comma""]",0,26,0,26,0,1,5fbbc75f884010d82bf37532,26,Mężczyzna,2022-05-28_09h16.13.093,task,2021.1.4,Win32,59.99160118,628b806c463b948bc644b84f,6291cbf0609764fa4ccca5fd,[0.2385999999046362],,,,,,,,,,,,,,,,,,,,,,,,,,,,,,,,,,,,,,,,,,,,,,,,,,,,,,,,,,,,,,,,,,,,,,,,,,,,,,,,,,,,,,,,,,,,,,,,,,,,,,,
,,"[""comma""]",0,27,0,27,0,1,5fbbc75f884010d82bf37532,26,Mężczyzna,2022-05-28_09h16.13.093,task,2021.1.4,Win32,59.99160118,628b806c463b948bc644b84f,6291cbf0609764fa4ccca5fd,[0.03579999995233152],,,,,,,,,,,,,,,,,,,,,,,,,,,,,,,,,,,,,,,,,,,,,,,,,,,,,,,,,,,,,,,,,,,,,,,,,,,,,,,,,,,,,,,,,,,,,,,,,,,,,,,
,,"[""period""]",0,28,0,28,0,1,5fbbc75f884010d82bf37532,26,Mężczyzna,2022-05-28_09h16.13.093,task,2021.1.4,Win32,59.99160118,628b806c463b948bc644b84f,6291cbf0609764fa4ccca5fd,[0.0572999999523347],,,,,,,,,,,,,,,,,,,,,,,,,,,,,,,,,,,,,,,,,,,,,,,,,,,,,,,,,,,,,,,,,,,,,,,,,,,,,,,,,,,,,,,,,,,,,,,,,,,,,,,
,,"[""comma""]",0,29,0,29,0,1,5fbbc75f884010d82bf37532,26,Mężczyzna,2022-05-28_09h16.13.093,task,2021.1.4,Win32,59.99160118,628b806c463b948bc644b84f,6291cbf0609764fa4ccca5fd,[0.3414000000953763],,,,,,,,,,,,,,,,,,,,,,,,,,,,,,,,,,,,,,,,,,,,,,,,,,,,,,,,,,,,,,,,,,,,,,,,,,,,,,,,,,,,,,,,,,,,,,,,,,,,,,,
,,"[""period""]",0,30,0,30,0,1,5fbbc75f884010d82bf37532,26,Mężczyzna,2022-05-28_09h16.13.093,task,2021.1.4,Win32,59.99160118,628b806c463b948bc644b84f,6291cbf0609764fa4ccca5fd,[0.31679999995233743],,,,,,,,,,,,,,,,,,,,,,,,,,,,,,,,,,,,,,,,,,,,,,,,,,,,,,,,,,,,,,,,,,,,,,,,,,,,,,,,,,,,,,,,,,,,,,,,,,,,,,,
,,"[""comma""]",0,31,0,31,0,1,5fbbc75f884010d82bf37532,26,Mężczyzna,2022-05-28_09h16.13.093,task,2021.1.4,Win32,59.99160118,628b806c463b948bc644b84f,6291cbf0609764fa4ccca5fd,[0.36599999999998545],,,,,,,,,,,,,,,,,,,,,,,,,,,,,,,,,,,,,,,,,,,,,,,,,,,,,,,,,,,,,,,,,,,,,,,,,,,,,,,,,,,,,,,,,,,,,,,,,,,,,,,
,,"[""period""]",0,32,0,32,0,1,5fbbc75f884010d82bf37532,26,Mężczyzna,2022-05-28_09h16.13.093,task,2021.1.4,Win32,59.99160118,628b806c463b948bc644b84f,6291cbf0609764fa4ccca5fd,[0.3570999999046194],,,,,,,,,,,,,,,,,,,,,,,,,,,,,,,,,,,,,,,,,,,,,,,,,,,,,,,,,,,,,,,,,,,,,,,,,,,,,,,,,,,,,,,,,,,,,,,,,,,,,,,
,,"[""comma""]",0,33,0,33,0,1,5fbbc75f884010d82bf37532,26,Mężczyzna,2022-05-28_09h16.13.093,task,2021.1.4,Win32,59.99160118,628b806c463b948bc644b84f,6291cbf0609764fa4ccca5fd,[0.38559999990462757],,,,,,,,,,,,,,,,,,,,,,,,,,,,,,,,,,,,,,,,,,,,,,,,,,,,,,,,,,,,,,,,,,,,,,,,,,,,,,,,,,,,,,,,,,,,,,,,,,,,,,,
,,"[""period""]",0,34,0,34,0,1,5fbbc75f884010d82bf37532,26,Mężczyzna,2022-05-28_09h16.13.093,task,2021.1.4,Win32,59.99160118,628b806c463b948bc644b84f,6291cbf0609764fa4ccca5fd,[0.4497000000476987],,,,,,,,,,,,,,,,,,,,,,,,,,,,,,,,,,,,,,,,,,,,,,,,,,,,,,,,,,,,,,,,,,,,,,,,,,,,,,,,,,,,,,,,,,,,,,,,,,,,,,,
,,"[""period""]",0,35,0,35,0,1,5fbbc75f884010d82bf37532,26,Mężczyzna,2022-05-28_09h16.13.093,task,2021.1.4,Win32,59.99160118,628b806c463b948bc644b84f,6291cbf0609764fa4ccca5fd,[0.26979999995231196],,,,,,,,,,,,,,,,,,,,,,,,,,,,,,,,,,,,,,,,,,,,,,,,,,,,,,,,,,,,,,,,,,,,,,,,,,,,,,,,,,,,,,,,,,,,,,,,,,,,,,,
,,"[""period""]",0,36,0,36,0,1,5fbbc75f884010d82bf37532,26,Mężczyzna,2022-05-28_09h16.13.093,task,2021.1.4,Win32,59.99160118,628b806c463b948bc644b84f,6291cbf0609764fa4ccca5fd,[0.15000000000000568],,,,,,,,,,,,,,,,,,,,,,,,,,,,,,,,,,,,,,,,,,,,,,,,,,,,,,,,,,,,,,,,,,,,,,,,,,,,,,,,,,,,,,,,,,,,,,,,,,,,,,,
,,"[""comma""]",0,37,0,37,0,1,5fbbc75f884010d82bf37532,26,Mężczyzna,2022-05-28_09h16.13.093,task,2021.1.4,Win32,59.99160118,628b806c463b948bc644b84f,6291cbf0609764fa4ccca5fd,[0.367999999999995],,,,,,,,,,,,,,,,,,,,,,,,,,,,,,,,,,,,,,,,,,,,,,,,,,,,,,,,,,,,,,,,,,,,,,,,,,,,,,,,,,,,,,,,,,,,,,,,,,,,,,,
,,"[""comma""]",0,38,0,38,0,1,5fbbc75f884010d82bf37532,26,Mężczyzna,2022-05-28_09h16.13.093,task,2021.1.4,Win32,59.99160118,628b806c463b948bc644b84f,6291cbf0609764fa4ccca5fd,[0.4329999999999927],,,,,,,,,,,,,,,,,,,,,,,,,,,,,,,,,,,,,,,,,,,,,,,,,,,,,,,,,,,,,,,,,,,,,,,,,,,,,,,,,,,,,,,,,,,,,,,,,,,,,,,
,,"[""comma""]",0,39,0,39,0,1,5fbbc75f884010d82bf37532,26,Mężczyzna,2022-05-28_09h16.13.093,task,2021.1.4,Win32,59.99160118,628b806c463b948bc644b84f,6291cbf0609764fa4ccca5fd,[0.4262999999523345],,,,,,,,,,,,,,,,,,,,,,,,,,,,,,,,,,,,,,,,,,,,,,,,,,,,,,,,,,,,,,,,,,,,,,,,,,,,,,,,,,,,,,,,,,,,,,,,,,,,,,,
,,"[""comma""]",0,40,0,40,0,1,5fbbc75f884010d82bf37532,26,Mężczyzna,2022-05-28_09h16.13.093,task,2021.1.4,Win32,59.99160118,628b806c463b948bc644b84f,6291cbf0609764fa4ccca5fd,[0.39259999990463257],,,,,,,,,,,,,,,,,,,,,,,,,,,,,,,,,,,,,,,,,,,,,,,,,,,,,,,,,,,,,,,,,,,,,,,,,,,,,,,,,,,,,,,,,,,,,,,,,,,,,,,
,,"[""period""]",0,41,0,41,0,1,5fbbc75f884010d82bf37532,26,Mężczyzna,2022-05-28_09h16.13.093,task,2021.1.4,Win32,59.99160118,628b806c463b948bc644b84f,6291cbf0609764fa4ccca5fd,[0.31789999985696227],,,,,,,,,,,,,,,,,,,,,,,,,,,,,,,,,,,,,,,,,,,,,,,,,,,,,,,,,,,,,,,,,,,,,,,,,,,,,,,,,,,,,,,,,,,,,,,,,,,,,,,
,,"[""period""]",0,42,0,42,0,1,5fbbc75f884010d82bf37532,26,Mężczyzna,2022-05-28_09h16.13.093,task,2021.1.4,Win32,59.99160118,628b806c463b948bc644b84f,6291cbf0609764fa4ccca5fd,[0.31710000014302864],,,,,,,,,,,,,,,,,,,,,,,,,,,,,,,,,,,,,,,,,,,,,,,,,,,,,,,,,,,,,,,,,,,,,,,,,,,,,,,,,,,,,,,,,,,,,,,,,,,,,,,
,,"[""comma""]",0,43,0,43,0,1,5fbbc75f884010d82bf37532,26,Mężczyzna,2022-05-28_09h16.13.093,task,2021.1.4,Win32,59.99160118,628b806c463b948bc644b84f,6291cbf0609764fa4ccca5fd,[0.3164000000953706],,,,,,,,,,,,,,,,,,,,,,,,,,,,,,,,,,,,,,,,,,,,,,,,,,,,,,,,,,,,,,,,,,,,,,,,,,,,,,,,,,,,,,,,,,,,,,,,,,,,,,,
,,"[""period""]",0,44,0,44,0,1,5fbbc75f884010d82bf37532,26,Mężczyzna,2022-05-28_09h16.13.093,task,2021.1.4,Win32,59.99160118,628b806c463b948bc644b84f,6291cbf0609764fa4ccca5fd,[0.28299999999998704],,,,,,,,,,,,,,,,,,,,,,,,,,,,,,,,,,,,,,,,,,,,,,,,,,,,,,,,,,,,,,,,,,,,,,,,,,,,,,,,,,,,,,,,,,,,,,,,,,,,,,,
,,"[""comma""]",0,45,0,45,0,1,5fbbc75f884010d82bf37532,26,Mężczyzna,2022-05-28_09h16.13.093,task,2021.1.4,Win32,59.99160118,628b806c463b948bc644b84f,6291cbf0609764fa4ccca5fd,[0.3182000000476819],,,,,,,,,,,,,,,,,,,,,,,,,,,,,,,,,,,,,,,,,,,,,,,,,,,,,,,,,,,,,,,,,,,,,,,,,,,,,,,,,,,,,,,,,,,,,,,,,,,,,,,
,,"[""period""]",0,46,0,46,0,1,5fbbc75f884010d82bf37532,26,Mężczyzna,2022-05-28_09h16.13.093,task,2021.1.4,Win32,59.99160118,628b806c463b948bc644b84f,6291cbf0609764fa4ccca5fd,[0.27069999980926696],,,,,,,,,,,,,,,,,,,,,,,,,,,,,,,,,,,,,,,,,,,,,,,,,,,,,,,,,,,,,,,,,,,,,,,,,,,,,,,,,,,,,,,,,,,,,,,,,,,,,,,
,,"[""period""]",0,47,0,47,0,1,5fbbc75f884010d82bf37532,26,Mężczyzna,2022-05-28_09h16.13.093,task,2021.1.4,Win32,59.99160118,628b806c463b948bc644b84f,6291cbf0609764fa4ccca5fd,[0.29949999999999477],,,,,,,,,,,,,,,,,,,,,,,,,,,,,,,,,,,,,,,,,,,,,,,,,,,,,,,,,,,,,,,,,,,,,,,,,,,,,,,,,,,,,,,,,,,,,,,,,,,,,,,
,,"[""comma""]",0,48,0,48,0,1,5fbbc75f884010d82bf37532,26,Mężczyzna,2022-05-28_09h16.13.093,task,2021.1.4,Win32,59.99160118,628b806c463b948bc644b84f,6291cbf0609764fa4ccca5fd,[0.26949999999999363],,,,,,,,,,,,,,,,,,,,,,,,,,,,,,,,,,,,,,,,,,,,,,,,,,,,,,,,,,,,,,,,,,,,,,,,,,,,,,,,,,,,,,,,,,,,,,,,,,,,,,,
,,"[""period""]",0,49,0,49,0,1,5fbbc75f884010d82bf37532,26,Mężczyzna,2022-05-28_09h16.13.093,task,2021.1.4,Win32,59.99160118,628b806c463b948bc644b84f,6291cbf0609764fa4ccca5fd,[0.28919999980928424],,,,,,,,,,,,,,,,,,,,,,,,,,,,,,,,,,,,,,,,,,,,,,,,,,,,,,,,,,,,,,,,,,,,,,,,,,,,,,,,,,,,,,,,,,,,,,,,,,,,,,,
,,"[""comma""]",0,50,0,50,0,1,5fbbc75f884010d82bf37532,26,Mężczyzna,2022-05-28_09h16.13.093,task,2021.1.4,Win32,59.99160118,628b806c463b948bc644b84f,6291cbf0609764fa4ccca5fd,[0.37660000014307116],,,,,,,,,,,,,,,,,,,,,,,,,,,,,,,,,,,,,,,,,,,,,,,,,,,,,,,,,,,,,,,,,,,,,,,,,,,,,,,,,,,,,,,,,,,,,,,,,,,,,,,
,,"[""period""]",0,51,0,51,0,1,5fbbc75f884010d82bf37532,26,Mężczyzna,2022-05-28_09h16.13.093,task,2021.1.4,Win32,59.99160118,628b806c463b948bc644b84f,6291cbf0609764fa4ccca5fd,[0.39540000009537835],,,,,,,,,,,,,,,,,,,,,,,,,,,,,,,,,,,,,,,,,,,,,,,,,,,,,,,,,,,,,,,,,,,,,,,,,,,,,,,,,,,,,,,,,,,,,,,,,,,,,,,
,,"[""comma""]",0,52,0,52,0,1,5fbbc75f884010d82bf37532,26,Mężczyzna,2022-05-28_09h16.13.093,task,2021.1.4,Win32,59.99160118,628b806c463b948bc644b84f,6291cbf0609764fa4ccca5fd,[0.3329999999999984],,,,,,,,,,,,,,,,,,,,,,,,,,,,,,,,,,,,,,,,,,,,,,,,,,,,,,,,,,,,,,,,,,,,,,,,,,,,,,,,,,,,,,,,,,,,,,,,,,,,,,,
,,"[""period""]",0,53,0,53,0,1,5fbbc75f884010d82bf37532,26,Mężczyzna,2022-05-28_09h16.13.093,task,2021.1.4,Win32,59.99160118,628b806c463b948bc644b84f,6291cbf0609764fa4ccca5fd,[0.2717999999523215],,,,,,,,,,,,,,,,,,,,,,,,,,,,,,,,,,,,,,,,,,,,,,,,,,,,,,,,,,,,,,,,,,,,,,,,,,,,,,,,,,,,,,,,,,,,,,,,,,,,,,,
,,"[""comma""]",0,54,0,54,0,1,5fbbc75f884010d82bf37532,26,Mężczyzna,2022-05-28_09h16.13.093,task,2021.1.4,Win32,59.99160118,628b806c463b948bc644b84f,6291cbf0609764fa4ccca5fd,[0.30579999995231333],,,,,,,,,,,,,,,,,,,,,,,,,,,,,,,,,,,,,,,,,,,,,,,,,,,,,,,,,,,,,,,,,,,,,,,,,,,,,,,,,,,,,,,,,,,,,,,,,,,,,,,
,,"[""period""]",0,55,0,55,0,1,5fbbc75f884010d82bf37532,26,Mężczyzna,2022-05-28_09h16.13.093,task,2021.1.4,Win32,59.99160118,628b806c463b948bc644b84f,6291cbf0609764fa4ccca5fd,[0.34510000014304865],,,,,,,,,,,,,,,,,,,,,,,,,,,,,,,,,,,,,,,,,,,,,,,,,,,,,,,,,,,,,,,,,,,,,,,,,,,,,,,,,,,,,,,,,,,,,,,,,,,,,,,
,,"[""comma""]",0,56,0,56,0,1,5fbbc75f884010d82bf37532,26,Mężczyzna,2022-05-28_09h16.13.093,task,2021.1.4,Win32,59.99160118,628b806c463b948bc644b84f,6291cbf0609764fa4ccca5fd,[0.2937000000476928],,,,,,,,,,,,,,,,,,,,,,,,,,,,,,,,,,,,,,,,,,,,,,,,,,,,,,,,,,,,,,,,,,,,,,,,,,,,,,,,,,,,,,,,,,,,,,,,,,,,,,,
,,"[""period""]",0,57,0,57,0,1,5fbbc75f884010d82bf37532,26,Mężczyzna,2022-05-28_09h16.13.093,task,2021.1.4,Win32,59.99160118,628b806c463b948bc644b84f,6291cbf0609764fa4ccca5fd,[0.30000000000001137],,,,,,,,,,,,,,,,,,,,,,,,,,,,,,,,,,,,,,,,,,,,,,,,,,,,,,,,,,,,,,,,,,,,,,,,,,,,,,,,,,,,,,,,,,,,,,,,,,,,,,,
,,"[""comma""]",0,58,0,58,0,1,5fbbc75f884010d82bf37532,26,Mężczyzna,2022-05-28_09h16.13.093,task,2021.1.4,Win32,59.99160118,628b806c463b948bc644b84f,6291cbf0609764fa4ccca5fd,[0.28910000014306547],,,,,,,,,,,,,,,,,,,,,,,,,,,,,,,,,,,,,,,,,,,,,,,,,,,,,,,,,,,,,,,,,,,,,,,,,,,,,,,,,,,,,,,,,,,,,,,,,,,,,,,
,,"[""period""]",0,59,0,59,0,1,5fbbc75f884010d82bf37532,26,Mężczyzna,2022-05-28_09h16.13.093,task,2021.1.4,Win32,59.99160118,628b806c463b948bc644b84f,6291cbf0609764fa4ccca5fd,[0.3247000000476703],,,,,,,,,,,,,,,,,,,,,,,,,,,,,,,,,,,,,,,,,,,,,,,,,,,,,,,,,,,,,,,,,,,,,,,,,,,,,,,,,,,,,,,,,,,,,,,,,,,,,,,
,,"[""comma""]",0,60,0,60,0,1,5fbbc75f884010d82bf37532,26,Mężczyzna,2022-05-28_09h16.13.093,task,2021.1.4,Win32,59.99160118,628b806c463b948bc644b84f,6291cbf0609764fa4ccca5fd,[0.3089999999999975],,,,,,,,,,,,,,,,,,,,,,,,,,,,,,,,,,,,,,,,,,,,,,,,,,,,,,,,,,,,,,,,,,,,,,,,,,,,,,,,,,,,,,,,,,,,,,,,,,,,,,,
,,"[""period""]",0,61,0,61,0,1,5fbbc75f884010d82bf37532,26,Mężczyzna,2022-05-28_09h16.13.093,task,2021.1.4,Win32,59.99160118,628b806c463b948bc644b84f,6291cbf0609764fa4ccca5fd,[0.35170000004768553],,,,,,,,,,,,,,,,,,,,,,,,,,,,,,,,,,,,,,,,,,,,,,,,,,,,,,,,,,,,,,,,,,,,,,,,,,,,,,,,,,,,,,,,,,,,,,,,,,,,,,,
,,"[""period""]",0,62,0,62,0,1,5fbbc75f884010d82bf37532,26,Mężczyzna,2022-05-28_09h16.13.093,task,2021.1.4,Win32,59.99160118,628b806c463b948bc644b84f,6291cbf0609764fa4ccca5fd,[0.2773999998569536],,,,,,,,,,,,,,,,,,,,,,,,,,,,,,,,,,,,,,,,,,,,,,,,,,,,,,,,,,,,,,,,,,,,,,,,,,,,,,,,,,,,,,,,,,,,,,,,,,,,,,,
,,"[""comma""]",0,63,0,63,0,1,5fbbc75f884010d82bf37532,26,Mężczyzna,2022-05-28_09h16.13.093,task,2021.1.4,Win32,59.99160118,628b806c463b948bc644b84f,6291cbf0609764fa4ccca5fd,[0.26130000019074373],,,,,,,,,,,,,,,,,,,,,,,,,,,,,,,,,,,,,,,,,,,,,,,,,,,,,,,,,,,,,,,,,,,,,,,,,,,,,,,,,,,,,,,,,,,,,,,,,,,,,,,
,,"[""period""]",0,64,0,64,0,1,5fbbc75f884010d82bf37532,26,Mężczyzna,2022-05-28_09h16.13.093,task,2021.1.4,Win32,59.99160118,628b806c463b948bc644b84f,6291cbf0609764fa4ccca5fd,[0.2827999999523172],,,,,,,,,,,,,,,,,,,,,,,,,,,,,,,,,,,,,,,,,,,,,,,,,,,,,,,,,,,,,,,,,,,,,,,,,,,,,,,,,,,,,,,,,,,,,,,,,,,,,,,
,,"[""period""]",0,65,0,65,0,1,5fbbc75f884010d82bf37532,26,Mężczyzna,2022-05-28_09h16.13.093,task,2021.1.4,Win32,59.99160118,628b806c463b948bc644b84f,6291cbf0609764fa4ccca5fd,[0.3060000000000116],,,,,,,,,,,,,,,,,,,,,,,,,,,,,,,,,,,,,,,,,,,,,,,,,,,,,,,,,,,,,,,,,,,,,,,,,,,,,,,,,,,,,,,,,,,,,,,,,,,,,,,
,,"[""period""]",0,66,0,66,0,1,5fbbc75f884010d82bf37532,26,Mężczyzna,2022-05-28_09h16.13.093,task,2021.1.4,Win32,59.99160118,628b806c463b948bc644b84f,6291cbf0609764fa4ccca5fd,[0.17199999999999704],,,,,,,,,,,,,,,,,,,,,,,,,,,,,,,,,,,,,,,,,,,,,,,,,,,,,,,,,,,,,,,,,,,,,,,,,,,,,,,,,,,,,,,,,,,,,,,,,,,,,,,
,,"[""comma""]",0,67,0,67,0,1,5fbbc75f884010d82bf37532,26,Mężczyzna,2022-05-28_09h16.13.093,task,2021.1.4,Win32,59.99160118,628b806c463b948bc644b84f,6291cbf0609764fa4ccca5fd,[0.2902000000476903],,,,,,,,,,,,,,,,,,,,,,,,,,,,,,,,,,,,,,,,,,,,,,,,,,,,,,,,,,,,,,,,,,,,,,,,,,,,,,,,,,,,,,,,,,,,,,,,,,,,,,,
,,"[""comma""]",0,68,0,68,0,1,5fbbc75f884010d82bf37532,26,Mężczyzna,2022-05-28_09h16.13.093,task,2021.1.4,Win32,59.99160118,628b806c463b948bc644b84f,6291cbf0609764fa4ccca5fd,[0.32410000014306206],,,,,,,,,,,,,,,,,,,,,,,,,,,,,,,,,,,,,,,,,,,,,,,,,,,,,,,,,,,,,,,,,,,,,,,,,,,,,,,,,,,,,,,,,,,,,,,,,,,,,,,
,,"[""period""]",0,69,0,69,0,1,5fbbc75f884010d82bf37532,26,Mężczyzna,2022-05-28_09h16.13.093,task,2021.1.4,Win32,59.99160118,628b806c463b948bc644b84f,6291cbf0609764fa4ccca5fd,[0.2690999999046255],,,,,,,,,,,,,,,,,,,,,,,,,,,,,,,,,,,,,,,,,,,,,,,,,,,,,,,,,,,,,,,,,,,,,,,,,,,,,,,,,,,,,,,,,,,,,,,,,,,,,,,
,,"[""period""]",0,70,0,70,0,1,5fbbc75f884010d82bf37532,26,Mężczyzna,2022-05-28_09h16.13.093,task,2021.1.4,Win32,59.99160118,628b806c463b948bc644b84f,6291cbf0609764fa4ccca5fd,[0.31630000019075055],,,,,,,,,,,,,,,,,,,,,,,,,,,,,,,,,,,,,,,,,,,,,,,,,,,,,,,,,,,,,,,,,,,,,,,,,,,,,,,,,,,,,,,,,,,,,,,,,,,,,,,
,,"[""comma""]",0,71,0,71,0,1,5fbbc75f884010d82bf37532,26,Mężczyzna,2022-05-28_09h16.13.093,task,2021.1.4,Win32,59.99160118,628b806c463b948bc644b84f,6291cbf0609764fa4ccca5fd,[0.3102000000476721],,,,,,,,,,,,,,,,,,,,,,,,,,,,,,,,,,,,,,,,,,,,,,,,,,,,,,,,,,,,,,,,,,,,,,,,,,,,,,,,,,,,,,,,,,,,,,,,,,,,,,,
,,"[""period""]",0,72,0,72,0,1,5fbbc75f884010d82bf37532,26,Mężczyzna,2022-05-28_09h16.13.093,task,2021.1.4,Win32,59.99160118,628b806c463b948bc644b84f,6291cbf0609764fa4ccca5fd,[0.34149999999999636],,,,,,,,,,,,,,,,,,,,,,,,,,,,,,,,,,,,,,,,,,,,,,,,,,,,,,,,,,,,,,,,,,,,,,,,,,,,,,,,,,,,,,,,,,,,,,,,,,,,,,,
,,"[""period""]",0,73,0,73,0,1,5fbbc75f884010d82bf37532,26,Mężczyzna,2022-05-28_09h16.13.093,task,2021.1.4,Win32,59.99160118,628b806c463b948bc644b84f,6291cbf0609764fa4ccca5fd,[0.2886000001430489],,,,,,,,,,,,,,,,,,,,,,,,,,,,,,,,,,,,,,,,,,,,,,,,,,,,,,,,,,,,,,,,,,,,,,,,,,,,,,,,,,,,,,,,,,,,,,,,,,,,,,,
,,"[""comma""]",0,74,0,74,0,1,5fbbc75f884010d82bf37532,26,Mężczyzna,2022-05-28_09h16.13.093,task,2021.1.4,Win32,59.99160118,628b806c463b948bc644b84f,6291cbf0609764fa4ccca5fd,[0.2258999998569493],,,,,,,,,,,,,,,,,,,,,,,,,,,,,,,,,,,,,,,,,,,,,,,,,,,,,,,,,,,,,,,,,,,,,,,,,,,,,,,,,,,,,,,,,,,,,,,,,,,,,,,
,,"[""comma""]",0,75,0,75,0,1,5fbbc75f884010d82bf37532,26,Mężczyzna,2022-05-28_09h16.13.093,task,2021.1.4,Win32,59.99160118,628b806c463b948bc644b84f,6291cbf0609764fa4ccca5fd,[0.28609999990464985],,,,,,,,,,,,,,,,,,,,,,,,,,,,,,,,,,,,,,,,,,,,,,,,,,,,,,,,,,,,,,,,,,,,,,,,,,,,,,,,,,,,,,,,,,,,,,,,,,,,,,,
,,"[""period""]",0,76,0,76,0,1,5fbbc75f884010d82bf37532,26,Mężczyzna,2022-05-28_09h16.13.093,task,2021.1.4,Win32,59.99160118,628b806c463b948bc644b84f,6291cbf0609764fa4ccca5fd,[0.4147999999522938],,,,,,,,,,,,,,,,,,,,,,,,,,,,,,,,,,,,,,,,,,,,,,,,,,,,,,,,,,,,,,,,,,,,,,,,,,,,,,,,,,,,,,,,,,,,,,,,,,,,,,,
,,"[""comma""]",0,77,0,77,0,1,5fbbc75f884010d82bf37532,26,Mężczyzna,2022-05-28_09h16.13.093,task,2021.1.4,Win32,59.99160118,628b806c463b948bc644b84f,6291cbf0609764fa4ccca5fd,[0.3023999998569593],,,,,,,,,,,,,,,,,,,,,,,,,,,,,,,,,,,,,,,,,,,,,,,,,,,,,,,,,,,,,,,,,,,,,,,,,,,,,,,,,,,,,,,,,,,,,,,,,,,,,,,
,,"[""period""]",0,78,0,78,0,1,5fbbc75f884010d82bf37532,26,Mężczyzna,2022-05-28_09h16.13.093,task,2021.1.4,Win32,59.99160118,628b806c463b948bc644b84f,6291cbf0609764fa4ccca5fd,[0.5190000000000055],,,,,,,,,,,,,,,,,,,,,,,,,,,,,,,,,,,,,,,,,,,,,,,,,,,,,,,,,,,,,,,,,,,,,,,,,,,,,,,,,,,,,,,,,,,,,,,,,,,,,,,
,,"[""comma""]",0,79,0,79,0,1,5fbbc75f884010d82bf37532,26,Mężczyzna,2022-05-28_09h16.13.093,task,2021.1.4,Win32,59.99160118,628b806c463b948bc644b84f,6291cbf0609764fa4ccca5fd,[0.34029999995232174],,,,,,,,,,,,,,,,,,,,,,,,,,,,,,,,,,,,,,,,,,,,,,,,,,,,,,,,,,,,,,,,,,,,,,,,,,,,,,,,,,,,,,,,,,,,,,,,,,,,,,,
,,"[""period""]",0,80,0,80,0,1,5fbbc75f884010d82bf37532,26,Mężczyzna,2022-05-28_09h16.13.093,task,2021.1.4,Win32,59.99160118,628b806c463b948bc644b84f,6291cbf0609764fa4ccca5fd,[0.4497999999523188],,,,,,,,,,,,,,,,,,,,,,,,,,,,,,,,,,,,,,,,,,,,,,,,,,,,,,,,,,,,,,,,,,,,,,,,,,,,,,,,,,,,,,,,,,,,,,,,,,,,,,,
,,"[""comma""]",0,81,0,81,0,1,5fbbc75f884010d82bf37532,26,Mężczyzna,2022-05-28_09h16.13.093,task,2021.1.4,Win32,59.99160118,628b806c463b948bc644b84f,6291cbf0609764fa4ccca5fd,[0.4056000001430675],,,,,,,,,,,,,,,,,,,,,,,,,,,,,,,,,,,,,,,,,,,,,,,,,,,,,,,,,,,,,,,,,,,,,,,,,,,,,,,,,,,,,,,,,,,,,,,,,,,,,,,
,,"[""period""]",0,82,0,82,0,1,5fbbc75f884010d82bf37532,26,Mężczyzna,2022-05-28_09h16.13.093,task,2021.1.4,Win32,59.99160118,628b806c463b948bc644b84f,6291cbf0609764fa4ccca5fd,[0.29069999980924877],,,,,,,,,,,,,,,,,,,,,,,,,,,,,,,,,,,,,,,,,,,,,,,,,,,,,,,,,,,,,,,,,,,,,,,,,,,,,,,,,,,,,,,,,,,,,,,,,,,,,,,
,,"[""comma""]",0,83,0,83,0,1,5fbbc75f884010d82bf37532,26,Mężczyzna,2022-05-28_09h16.13.093,task,2021.1.4,Win32,59.99160118,628b806c463b948bc644b84f,6291cbf0609764fa4ccca5fd,[0.31880000019071986],,,,,,,,,,,,,,,,,,,,,,,,,,,,,,,,,,,,,,,,,,,,,,,,,,,,,,,,,,,,,,,,,,,,,,,,,,,,,,,,,,,,,,,,,,,,,,,,,,,,,,,
,,"[""period""]",0,84,0,84,0,1,5fbbc75f884010d82bf37532,26,Mężczyzna,2022-05-28_09h16.13.093,task,2021.1.4,Win32,59.99160118,628b806c463b948bc644b84f,6291cbf0609764fa4ccca5fd,[0.3894999999999982],,,,,,,,,,,,,,,,,,,,,,,,,,,,,,,,,,,,,,,,,,,,,,,,,,,,,,,,,,,,,,,,,,,,,,,,,,,,,,,,,,,,,,,,,,,,,,,,,,,,,,,
,,"[""comma""]",0,85,0,85,0,1,5fbbc75f884010d82bf37532,26,Mężczyzna,2022-05-28_09h16.13.093,task,2021.1.4,Win32,59.99160118,628b806c463b948bc644b84f,6291cbf0609764fa4ccca5fd,[0.39260000014303387],,,,,,,,,,,,,,,,,,,,,,,,,,,,,,,,,,,,,,,,,,,,,,,,,,,,,,,,,,,,,,,,,,,,,,,,,,,,,,,,,,,,,,,,,,,,,,,,,,,,,,,
,,"[""period""]",0,86,0,86,0,1,5fbbc75f884010d82bf37532,26,Mężczyzna,2022-05-28_09h16.13.093,task,2021.1.4,Win32,59.99160118,628b806c463b948bc644b84f,6291cbf0609764fa4ccca5fd,[0.4172999999523199],,,,,,,,,,,,,,,,,,,,,,,,,,,,,,,,,,,,,,,,,,,,,,,,,,,,,,,,,,,,,,,,,,,,,,,,,,,,,,,,,,,,,,,,,,,,,,,,,,,,,,,
,,"[""comma""]",0,87,0,87,0,1,5fbbc75f884010d82bf37532,26,Mężczyzna,2022-05-28_09h16.13.093,task,2021.1.4,Win32,59.99160118,628b806c463b948bc644b84f,6291cbf0609764fa4ccca5fd,[0.31749999999999545],,,,,,,,,,,,,,,,,,,,,,,,,,,,,,,,,,,,,,,,,,,,,,,,,,,,,,,,,,,,,,,,,,,,,,,,,,,,,,,,,,,,,,,,,,,,,,,,,,,,,,,
,,"[""period""]",0,88,0,88,0,1,5fbbc75f884010d82bf37532,26,Mężczyzna,2022-05-28_09h16.13.093,task,2021.1.4,Win32,59.99160118,628b806c463b948bc644b84f,6291cbf0609764fa4ccca5fd,[0.2924000000953697],,,,,,,,,,,,,,,,,,,,,,,,,,,,,,,,,,,,,,,,,,,,,,,,,,,,,,,,,,,,,,,,,,,,,,,,,,,,,,,,,,,,,,,,,,,,,,,,,,,,,,,
,,"[""period""]",0,89,0,89,0,1,5fbbc75f884010d82bf37532,26,Mężczyzna,2022-05-28_09h16.13.093,task,2021.1.4,Win32,59.99160118,628b806c463b948bc644b84f,6291cbf0609764fa4ccca5fd,[0.43429999995231583],,,,,,,,,,,,,,,,,,,,,,,,,,,,,,,,,,,,,,,,,,,,,,,,,,,,,,,,,,,,,,,,,,,,,,,,,,,,,,,,,,,,,,,,,,,,,,,,,,,,,,,
,,"[""comma""]",0,90,0,90,0,1,5fbbc75f884010d82bf37532,26,Mężczyzna,2022-05-28_09h16.13.093,task,2021.1.4,Win32,59.99160118,628b806c463b948bc644b84f,6291cbf0609764fa4ccca5fd,[0.4335999999046294],,,,,,,,,,,,,,,,,,,,,,,,,,,,,,,,,,,,,,,,,,,,,,,,,,,,,,,,,,,,,,,,,,,,,,,,,,,,,,,,,,,,,,,,,,,,,,,,,,,,,,,
,,"[""period""]",0,91,0,91,0,1,5fbbc75f884010d82bf37532,26,Mężczyzna,2022-05-28_09h16.13.093,task,2021.1.4,Win32,59.99160118,628b806c463b948bc644b84f,6291cbf0609764fa4ccca5fd,[0.39960000014303887],,,,,,,,,,,,,,,,,,,,,,,,,,,,,,,,,,,,,,,,,,,,,,,,,,,,,,,,,,,,,,,,,,,,,,,,,,,,,,,,,,,,,,,,,,,,,,,,,,,,,,,
,,"[""period""]",0,92,0,92,0,1,5fbbc75f884010d82bf37532,26,Mężczyzna,2022-05-28_09h16.13.093,task,2021.1.4,Win32,59.99160118,628b806c463b948bc644b84f,6291cbf0609764fa4ccca5fd,[0.4326999998093015],,,,,,,,,,,,,,,,,,,,,,,,,,,,,,,,,,,,,,,,,,,,,,,,,,,,,,,,,,,,,,,,,,,,,,,,,,,,,,,,,,,,,,,,,,,,,,,,,,,,,,,
,,"[""comma""]",0,93,0,93,0,1,5fbbc75f884010d82bf37532,26,Mężczyzna,2022-05-28_09h16.13.093,task,2021.1.4,Win32,59.99160118,628b806c463b948bc644b84f,6291cbf0609764fa4ccca5fd,[0.42579999995228945],,,,,,,,,,,,,,,,,,,,,,,,,,,,,,,,,,,,,,,,,,,,,,,,,,,,,,,,,,,,,,,,,,,,,,,,,,,,,,,,,,,,,,,,,,,,,,,,,,,,,,,
,,"[""period""]",0,94,0,94,0,1,5fbbc75f884010d82bf37532,26,Mężczyzna,2022-05-28_09h16.13.093,task,2021.1.4,Win32,59.99160118,628b806c463b948bc644b84f,6291cbf0609764fa4ccca5fd,[0.34950000000003456],,,,,,,,,,,,,,,,,,,,,,,,,,,,,,,,,,,,,,,,,,,,,,,,,,,,,,,,,,,,,,,,,,,,,,,,,,,,,,,,,,,,,,,,,,,,,,,,,,,,,,,
,,"[""comma""]",0,95,0,95,0,1,5fbbc75f884010d82bf37532,26,Mężczyzna,2022-05-28_09h16.13.093,task,2021.1.4,Win32,59.99160118,628b806c463b948bc644b84f,6291cbf0609764fa4ccca5fd,[0.31759999990464394],,,,,,,,,,,,,,,,,,,,,,,,,,,,,,,,,,,,,,,,,,,,,,,,,,,,,,,,,,,,,,,,,,,,,,,,,,,,,,,,,,,,,,,,,,,,,,,,,,,,,,,
,,"[""comma""]",0,96,0,96,0,1,5fbbc75f884010d82bf37532,26,Mężczyzna,2022-05-28_09h16.13.093,task,2021.1.4,Win32,59.99160118,628b806c463b948bc644b84f,6291cbf0609764fa4ccca5fd,[0.4269999999999641],,,,,,,,,,,,,,,,,,,,,,,,,,,,,,,,,,,,,,,,,,,,,,,,,,,,,,,,,,,,,,,,,,,,,,,,,,,,,,,,,,,,,,,,,,,,,,,,,,,,,,,
,,"[""comma""]",0,97,0,97,0,1,5fbbc75f884010d82bf37532,26,Mężczyzna,2022-05-28_09h16.13.093,task,2021.1.4,Win32,59.99160118,628b806c463b948bc644b84f,6291cbf0609764fa4ccca5fd,[0.4568000001907535],,,,,,,,,,,,,,,,,,,,,,,,,,,,,,,,,,,,,,,,,,,,,,,,,,,,,,,,,,,,,,,,,,,,,,,,,,,,,,,,,,,,,,,,,,,,,,,,,,,,,,,
,,"[""comma""]",0,98,0,98,0,1,5fbbc75f884010d82bf37532,26,Mężczyzna,2022-05-28_09h16.13.093,task,2021.1.4,Win32,59.99160118,628b806c463b948bc644b84f,6291cbf0609764fa4ccca5fd,[0.4839000000953888],,,,,,,,,,,,,,,,,,,,,,,,,,,,,,,,,,,,,,,,,,,,,,,,,,,,,,,,,,,,,,,,,,,,,,,,,,,,,,,,,,,,,,,,,,,,,,,,,,,,,,,
,,"[""period""]",0,99,0,99,0,1,5fbbc75f884010d82bf37532,26,Mężczyzna,2022-05-28_09h16.13.093,task,2021.1.4,Win32,59.99160118,628b806c463b948bc644b84f,6291cbf0609764fa4ccca5fd,[0.5660000000000309],,,,,,,,,,,,,,,,,,,,,,,,,,,,,,,,,,,,,,,,,,,,,,,,,,,,,,,,,,,,,,,,,,,,,,,,,,,,,,,,,,,,,,,,,,,,,,,,,,,,,,,
,,"[""period""]",0,100,0,100,0,1,5fbbc75f884010d82bf37532,26,Mężczyzna,2022-05-28_09h16.13.093,task,2021.1.4,Win32,59.99160118,628b806c463b948bc644b84f,6291cbf0609764fa4ccca5fd,[0.476799999952334],,,,,,,,,,,,,,,,,,,,,,,,,,,,,,,,,,,,,,,,,,,,,,,,,,,,,,,,,,,,,,,,,,,,,,,,,,,,,,,,,,,,,,,,,,,,,,,,,,,,,,,
,,"[""period""]",0,101,0,101,0,1,5fbbc75f884010d82bf37532,26,Mężczyzna,2022-05-28_09h16.13.093,task,2021.1.4,Win32,59.99160118,628b806c463b948bc644b84f,6291cbf0609764fa4ccca5fd,[0.2840999999046403],,,,,,,,,,,,,,,,,,,,,,,,,,,,,,,,,,,,,,,,,,,,,,,,,,,,,,,,,,,,,,,,,,,,,,,,,,,,,,,,,,,,,,,,,,,,,,,,,,,,,,,
,,"[""comma""]",0,102,0,102,0,1,5fbbc75f884010d82bf37532,26,Mężczyzna,2022-05-28_09h16.13.093,task,2021.1.4,Win32,59.99160118,628b806c463b948bc644b84f,6291cbf0609764fa4ccca5fd,[0.4032999999523099],,,,,,,,,,,,,,,,,,,,,,,,,,,,,,,,,,,,,,,,,,,,,,,,,,,,,,,,,,,,,,,,,,,,,,,,,,,,,,,,,,,,,,,,,,,,,,,,,,,,,,,
,,"[""period""]",0,103,0,103,0,1,5fbbc75f884010d82bf37532,26,Mężczyzna,2022-05-28_09h16.13.093,task,2021.1.4,Win32,59.99160118,628b806c463b948bc644b84f,6291cbf0609764fa4ccca5fd,[0.32320000004767735],,,,,,,,,,,,,,,,,,,,,,,,,,,,,,,,,,,,,,,,,,,,,,,,,,,,,,,,,,,,,,,,,,,,,,,,,,,,,,,,,,,,,,,,,,,,,,,,,,,,,,,
,,"[""comma""]",0,104,0,104,0,1,5fbbc75f884010d82bf37532,26,Mężczyzna,2022-05-28_09h16.13.093,task,2021.1.4,Win32,59.99160118,628b806c463b948bc644b84f,6291cbf0609764fa4ccca5fd,[0.0027000000476391506],,,,,,,,,,,,,,,,,,,,,,,,,,,,,,,,,,,,,,,,,,,,,,,,,,,,,,,,,,,,,,,,,,,,,,,,,,,,,,,,,,,,,,,,,,,,,,,,,,,,,,,
,,"[""period""]",0,105,0,105,0,1,5fbbc75f884010d82bf37532,26,Mężczyzna,2022-05-28_09h16.13.093,task,2021.1.4,Win32,59.99160118,628b806c463b948bc644b84f,6291cbf0609764fa4ccca5fd,[0.27839999985690156],,,,,,,,,,,,,,,,,,,,,,,,,,,,,,,,,,,,,,,,,,,,,,,,,,,,,,,,,,,,,,,,,,,,,,,,,,,,,,,,,,,,,,,,,,,,,,,,,,,,,,,
,,"[""comma""]",0,106,0,106,0,1,5fbbc75f884010d82bf37532,26,Mężczyzna,2022-05-28_09h16.13.093,task,2021.1.4,Win32,59.99160118,628b806c463b948bc644b84f,6291cbf0609764fa4ccca5fd,[0.33280000019072986],,,,,,,,,,,,,,,,,,,,,,,,,,,,,,,,,,,,,,,,,,,,,,,,,,,,,,,,,,,,,,,,,,,,,,,,,,,,,,,,,,,,,,,,,,,,,,,,,,,,,,,
,,"[""period""]",0,107,0,107,0,1,5fbbc75f884010d82bf37532,26,Mężczyzna,2022-05-28_09h16.13.093,task,2021.1.4,Win32,59.99160118,628b806c463b948bc644b84f,6291cbf0609764fa4ccca5fd,[0.3921000001430457],,,,,,,,,,,,,,,,,,,,,,,,,,,,,,,,,,,,,,,,,,,,,,,,,,,,,,,,,,,,,,,,,,,,,,,,,,,,,,,,,,,,,,,,,,,,,,,,,,,,,,,
,,"[""comma""]",0,108,0,108,0,1,5fbbc75f884010d82bf37532,26,Mężczyzna,2022-05-28_09h16.13.093,task,2021.1.4,Win32,59.99160118,628b806c463b948bc644b84f,6291cbf0609764fa4ccca5fd,[0.2714000000953547],,,,,,,,,,,,,,,,,,,,,,,,,,,,,,,,,,,,,,,,,,,,,,,,,,,,,,,,,,,,,,,,,,,,,,,,,,,,,,,,,,,,,,,,,,,,,,,,,,,,,,,
,,"[""period""]",0,109,0,109,0,1,5fbbc75f884010d82bf37532,26,Mężczyzna,2022-05-28_09h16.13.093,task,2021.1.4,Win32,59.99160118,628b806c463b948bc644b84f,6291cbf0609764fa4ccca5fd,[0.4404999999999859],,,,,,,,,,,,,,,,,,,,,,,,,,,,,,,,,,,,,,,,,,,,,,,,,,,,,,,,,,,,,,,,,,,,,,,,,,,,,,,,,,,,,,,,,,,,,,,,,,,,,,,
,,"[""comma""]",0,110,0,110,0,1,5fbbc75f884010d82bf37532,26,Mężczyzna,2022-05-28_09h16.13.093,task,2021.1.4,Win32,59.99160118,628b806c463b948bc644b84f,6291cbf0609764fa4ccca5fd,[0.4279000000953488],,,,,,,,,,,,,,,,,,,,,,,,,,,,,,,,,,,,,,,,,,,,,,,,,,,,,,,,,,,,,,,,,,,,,,,,,,,,,,,,,,,,,,,,,,,,,,,,,,,,,,,
,,"[""period""]",0,111,0,111,0,1,5fbbc75f884010d82bf37532,26,Mężczyzna,2022-05-28_09h16.13.093,task,2021.1.4,Win32,59.99160118,628b806c463b948bc644b84f,6291cbf0609764fa4ccca5fd,[0.3494999999999777],,,,,,,,,,,,,,,,,,,,,,,,,,,,,,,,,,,,,,,,,,,,,,,,,,,,,,,,,,,,,,,,,,,,,,,,,,,,,,,,,,,,,,,,,,,,,,,,,,,,,,,
,,"[""comma""]",0,112,0,112,0,1,5fbbc75f884010d82bf37532,26,Mężczyzna,2022-05-28_09h16.13.093,task,2021.1.4,Win32,59.99160118,628b806c463b948bc644b84f,6291cbf0609764fa4ccca5fd,[0.4161000001430466],,,,,,,,,,,,,,,,,,,,,,,,,,,,,,,,,,,,,,,,,,,,,,,,,,,,,,,,,,,,,,,,,,,,,,,,,,,,,,,,,,,,,,,,,,,,,,,,,,,,,,,
,,"[""period""]",0,113,0,113,0,1,5fbbc75f884010d82bf37532,26,Mężczyzna,2022-05-28_09h16.13.093,task,2021.1.4,Win32,59.99160118,628b806c463b948bc644b84f,6291cbf0609764fa4ccca5fd,[0.37609999990462484],,,,,,,,,,,,,,,,,,,,,,,,,,,,,,,,,,,,,,,,,,,,,,,,,,,,,,,,,,,,,,,,,,,,,,,,,,,,,,,,,,,,,,,,,,,,,,,,,,,,,,,
,,"[""comma""]",0,114,0,114,0,1,5fbbc75f884010d82bf37532,26,Mężczyzna,2022-05-28_09h16.13.093,task,2021.1.4,Win32,59.99160118,628b806c463b948bc644b84f,6291cbf0609764fa4ccca5fd,[0.38620000004772237],,,,,,,,,,,,,,,,,,,,,,,,,,,,,,,,,,,,,,,,,,,,,,,,,,,,,,,,,,,,,,,,,,,,,,,,,,,,,,,,,,,,,,,,,,,,,,,,,,,,,,,
,,"[""period""]",0,115,0,115,0,1,5fbbc75f884010d82bf37532,26,Mężczyzna,2022-05-28_09h16.13.093,task,2021.1.4,Win32,59.99160118,628b806c463b948bc644b84f,6291cbf0609764fa4ccca5fd,[0.4187999999523413],,,,,,,,,,,,,,,,,,,,,,,,,,,,,,,,,,,,,,,,,,,,,,,,,,,,,,,,,,,,,,,,,,,,,,,,,,,,,,,,,,,,,,,,,,,,,,,,,,,,,,,
,,"[""period""]",0,116,0,116,0,1,5fbbc75f884010d82bf37532,26,Mężczyzna,2022-05-28_09h16.13.093,task,2021.1.4,Win32,59.99160118,628b806c463b948bc644b84f,6291cbf0609764fa4ccca5fd,[0.37000000000000455],,,,,,,,,,,,,,,,,,,,,,,,,,,,,,,,,,,,,,,,,,,,,,,,,,,,,,,,,,,,,,,,,,,,,,,,,,,,,,,,,,,,,,,,,,,,,,,,,,,,,,,
,,"[""period""]",0,117,0,117,0,1,5fbbc75f884010d82bf37532,26,Mężczyzna,2022-05-28_09h16.13.093,task,2021.1.4,Win32,59.99160118,628b806c463b948bc644b84f,6291cbf0609764fa4ccca5fd,[0.4159999999999968],,,,,,,,,,,,,,,,,,,,,,,,,,,,,,,,,,,,,,,,,,,,,,,,,,,,,,,,,,,,,,,,,,,,,,,,,,,,,,,,,,,,,,,,,,,,,,,,,,,,,,,
,,"[""period""]",0,118,0,118,0,1,5fbbc75f884010d82bf37532,26,Mężczyzna,2022-05-28_09h16.13.093,task,2021.1.4,Win32,59.99160118,628b806c463b948bc644b84f,6291cbf0609764fa4ccca5fd,[0.46619999980930515],,,,,,,,,,,,,,,,,,,,,,,,,,,,,,,,,,,,,,,,,,,,,,,,,,,,,,,,,,,,,,,,,,,,,,,,,,,,,,,,,,,,,,,,,,,,,,,,,,,,,,,
,,"[""comma""]",0,119,0,119,0,1,5fbbc75f884010d82bf37532,26,Mężczyzna,2022-05-28_09h16.13.093,task,2021.1.4,Win32,59.99160118,628b806c463b948bc644b84f,6291cbf0609764fa4ccca5fd,[0.3832999999523281],,,,,,,,,,,,,,,,,,,,,,,,,,,,,,,,,,,,,,,,,,,,,,,,,,,,,,,,,,,,,,,,,,,,,,,,,,,,,,,,,,,,,,,,,,,,,,,,,,,,,,,
,,,,,,,,,5fbbc75f884010d82bf37532,26,Mężczyzna,2022-05-28_09h16.13.093,task,2021.1.4,Win32,59.99160118,628b806c463b948bc644b84f,6291cbf0609764fa4ccca5fd,,space,36.3906,space,6.6119,0,0,0,0,1,"X V Q F H G B L J M P D K C T S W R N Z
",,,,,,,,,,,,,,,,,,,,,,,,,,,,,,,,,,,,,,,,,,,,,,,,,,,,,,,,,,,,,,,,,,,,,,,,,,,,,,,,,,,,,,,,,,,,,
,,,,,,,,,5fbbc75f884010d82bf37532,26,Mężczyzna,2022-05-28_09h16.13.093,task,2021.1.4,Win32,59.99160118,628b806c463b948bc644b84f,6291cbf0609764fa4ccca5fd,,,,,,1,0,1,0,1,"X V Q F H G B L J M P D K C T S W R N Z
",,,,,,,,,,,,,,,,,,,,,,,,,,,,,,,,,,,,,,,,,,,,,,,,,,,,,,,,,,,,,,,,,,,,,,,,,,,,,,,,,,,,,,,,,,,,,
,,,,,,,,,5fbbc75f884010d82bf37532,26,Mężczyzna,2022-05-28_09h16.13.093,task,2021.1.4,Win32,59.99160118,628b806c463b948bc644b84f,6291cbf0609764fa4ccca5fd,,,,,,,,,,,,zw,"[""z"",""w""]","[2.497600000143052,2.989799999952311,5.271700000047645]",1,ZW,0,0,0,0,1,,,,,,,,,,,,,,,,,,,,,,,,,,,,,,,,,,,,,,,,,,,,,,,,,,,,,,,,,,,,,,,,,,,,,,,,,,,,,,,,,,,
,,,,,,,,,5fbbc75f884010d82bf37532,26,Mężczyzna,2022-05-28_09h16.13.093,task,2021.1.4,Win32,59.99160118,628b806c463b948bc644b84f,6291cbf0609764fa4ccca5fd,,,,,,0,0,0,0,1,"X V Q F H G B L J M P D K C T S W R N Z
",,,,,,,,,,,,,,,,,,,,,,,,,,,,,,,,,,,,,,,,,,,,,,,,,,,,,,,,,,,,,,,,,,,,,,,,,,,,,,,,,,,,,,,,,,,,,
,,,,,,,,,5fbbc75f884010d82bf37532,26,Mężczyzna,2022-05-28_09h16.13.093,task,2021.1.4,Win32,59.99160118,628b806c463b948bc644b84f,6291cbf0609764fa4ccca5fd,,,,,,1,0,1,0,1,"X V Q F H G B L J M P D K C T S W R N Z
",,,,,,,,,,,,,,,,,,,,,,,,,,,,,,,,,,,,,,,,,,,,,,,,,,,,,,,,,,,,,,,,,,,,,,,,,,,,,,,,,,,,,,,,,,,,,
,,,,,,,,,5fbbc75f884010d82bf37532,26,Mężczyzna,2022-05-28_09h16.13.093,task,2021.1.4,Win32,59.99160118,628b806c463b948bc644b84f,6291cbf0609764fa4ccca5fd,,,,,,,,,,,,df,"[""d"",""f""]","[1.0985999999046498,1.3380000000000223,2.4845000000000255]",1,DF,1,0,1,0,1,,,,,,,,,,,,,,,,,,,,,,,,,,,,,,,,,,,,,,,,,,,,,,,,,,,,,,,,,,,,,,,,,,,,,,,,,,,,,,,,,,,
,,,,,,,,,5fbbc75f884010d82bf37532,26,Mężczyzna,2022-05-28_09h16.13.093,task,2021.1.4,Win32,59.99160118,628b806c463b948bc644b84f,6291cbf0609764fa4ccca5fd,,,,,,0,0,0,0,1,"X V Q F H G B L J M P D K C T S W R N Z
",,,,,,,,,,,,,,,,,,,,,,,,,,,,,,,,,,,,,,,,,,,,,,,,,,,,,,,,,,,,,,,,,,,,,,,,,,,,,,,,,,,,,,,,,,,,,
,,,,,,,,,5fbbc75f884010d82bf37532,26,Mężczyzna,2022-05-28_09h16.13.093,task,2021.1.4,Win32,59.99160118,628b806c463b948bc644b84f,6291cbf0609764fa4ccca5fd,,,,,,1,0,1,0,1,"X V Q F H G B L J M P D K C T S W R N Z
",,,,,,,,,,,,,,,,,,,,,,,,,,,,,,,,,,,,,,,,,,,,,,,,,,,,,,,,,,,,,,,,,,,,,,,,,,,,,,,,,,,,,,,,,,,,,
,,,,,,,,,5fbbc75f884010d82bf37532,26,Mężczyzna,2022-05-28_09h16.13.093,task,2021.1.4,Win32,59.99160118,628b806c463b948bc644b84f,6291cbf0609764fa4ccca5fd,,,,,,2,0,2,0,1,"X V Q F H G B L J M P D K C T S W R N Z
",,,,,,,,,,,,,,,,,,,,,,,,,,,,,,,,,,,,,,,,,,,,,,,,,,,,,,,,,,,,,,,,,,,,,,,,,,,,,,,,,,,,,,,,,,,,,
,,,,,,,,,5fbbc75f884010d82bf37532,26,Mężczyzna,2022-05-28_09h16.13.093,task,2021.1.4,Win32,59.99160118,628b806c463b948bc644b84f,6291cbf0609764fa4ccca5fd,,,,,,,,,,,,cxk,"[""c"",""x"",""k""]","[1.108799999952339,1.535600000143063,1.9152000000477187,2.831900000095402]",1,CXK,2,0,2,0,1,,,,,,,,,,,,,,,,,,,,,,,,,,,,,,,,,,,,,,,,,,,,,,,,,,,,,,,,,,,,,,,,,,,,,,,,,,,,,,,,,,,
,,,,,,,,,5fbbc75f884010d82bf37532,26,Mężczyzna,2022-05-28_09h16.13.093,task,2021.1.4,Win32,59.99160118,628b806c463b948bc644b84f,6291cbf0609764fa4ccca5fd,,,,,,0,0,0,0,1,"X V Q F H G B L J M P D K C T S W R N Z
",,,,,,,,,,,,,,,,,,,,,,,,,,,,,,,,,,,,,,,,,,,,,,,,,,,,,,,,,,,,,,,,,,,,,,,,,,,,,,,,,,,,,,,,,,,,,
,,,,,,,,,5fbbc75f884010d82bf37532,26,Mężczyzna,2022-05-28_09h16.13.093,task,2021.1.4,Win32,59.99160118,628b806c463b948bc644b84f,6291cbf0609764fa4ccca5fd,,,,,,1,0,1,0,1,"X V Q F H G B L J M P D K C T S W R N Z
",,,,,,,,,,,,,,,,,,,,,,,,,,,,,,,,,,,,,,,,,,,,,,,,,,,,,,,,,,,,,,,,,,,,,,,,,,,,,,,,,,,,,,,,,,,,,
,,,,,,,,,5fbbc75f884010d82bf37532,26,Mężczyzna,2022-05-28_09h16.13.093,task,2021.1.4,Win32,59.99160118,628b806c463b948bc644b84f,6291cbf0609764fa4ccca5fd,,,,,,2,0,2,0,1,"X V Q F H G B L J M P D K C T S W R N Z
",,,,,,,,,,,,,,,,,,,,,,,,,,,,,,,,,,,,,,,,,,,,,,,,,,,,,,,,,,,,,,,,,,,,,,,,,,,,,,,,,,,,,,,,,,,,,
,,,,,,,,,5fbbc75f884010d82bf37532,26,Mężczyzna,2022-05-28_09h16.13.093,task,2021.1.4,Win32,59.99160118,628b806c463b948bc644b84f,6291cbf0609764fa4ccca5fd,,,,,,,,,,,,gnf,"[""g"",""n"",""f""]","[1.1985999999046157,1.5382999999523008,1.9685999999046544,3.4172000000476714]",1,GNF,3,0,3,0,1,,,,,,,,,,,,,,,,,,,,,,,,,,,,,,,,,,,,,,,,,,,,,,,,,,,,,,,,,,,,,,,,,,,,,,,,,,,,,,,,,,,
,,,,,,,,,5fbbc75f884010d82bf37532,26,Mężczyzna,2022-05-28_09h16.13.093,task,2021.1.4,Win32,59.99160118,628b806c463b948bc644b84f,6291cbf0609764fa4ccca5fd,,,,,,0,0,0,0,1,"X V Q F H G B L J M P D K C T S W R N Z
",,,,,,,,,,,,,,,,,,,,,,,,,,,,,,,,,,,,,,,,,,,,,,,,,,,,,,,,,,,,,,,,,,,,,,,,,,,,,,,,,,,,,,,,,,,,,
,,,,,,,,,5fbbc75f884010d82bf37532,26,Mężczyzna,2022-05-28_09h16.13.093,task,2021.1.4,Win32,59.99160118,628b806c463b948bc644b84f,6291cbf0609764fa4ccca5fd,,,,,,1,0,1,0,1,"X V Q F H G B L J M P D K C T S W R N Z
",,,,,,,,,,,,,,,,,,,,,,,,,,,,,,,,,,,,,,,,,,,,,,,,,,,,,,,,,,,,,,,,,,,,,,,,,,,,,,,,,,,,,,,,,,,,,
,,,,,,,,,5fbbc75f884010d82bf37532,26,Mężczyzna,2022-05-28_09h16.13.093,task,2021.1.4,Win32,59.99160118,628b806c463b948bc644b84f,6291cbf0609764fa4ccca5fd,,,,,,2,0,2,0,1,"X V Q F H G B L J M P D K C T S W R N Z
",,,,,,,,,,,,,,,,,,,,,,,,,,,,,,,,,,,,,,,,,,,,,,,,,,,,,,,,,,,,,,,,,,,,,,,,,,,,,,,,,,,,,,,,,,,,,
,,,,,,,,,5fbbc75f884010d82bf37532,26,Mężczyzna,2022-05-28_09h16.13.093,task,2021.1.4,Win32,59.99160118,628b806c463b948bc644b84f,6291cbf0609764fa4ccca5fd,,,,,,3,0,3,0,1,"X V Q F H G B L J M P D K C T S W R N Z
",,,,,,,,,,,,,,,,,,,,,,,,,,,,,,,,,,,,,,,,,,,,,,,,,,,,,,,,,,,,,,,,,,,,,,,,,,,,,,,,,,,,,,,,,,,,,
,,,,,,,,,5fbbc75f884010d82bf37532,26,Mężczyzna,2022-05-28_09h16.13.093,task,2021.1.4,Win32,59.99160118,628b806c463b948bc644b84f,6291cbf0609764fa4ccca5fd,,,,,,,,,,,,xrlq,"[""x"",""r"",""l"",""q""]","[1.099700000047676,1.4814999999999827,2.002099999904601,2.4462999999523163,3.694000000000017]",1,XRLQ,4,0,4,0,1,,,,,,,,,,,,,,,,,,,,,,,,,,,,,,,,,,,,,,,,,,,,,,,,,,,,,,,,,,,,,,,,,,,,,,,,,,,,,,,,,,,
,,,,,,,,,5fbbc75f884010d82bf37532,26,Mężczyzna,2022-05-28_09h16.13.093,task,2021.1.4,Win32,59.99160118,628b806c463b948bc644b84f,6291cbf0609764fa4ccca5fd,,,,,,0,0,0,0,1,"X V Q F H G B L J M P D K C T S W R N Z
",,,,,,,,,,,,,,,,,,,,,,,,,,,,,,,,,,,,,,,,,,,,,,,,,,,,,,,,,,,,,,,,,,,,,,,,,,,,,,,,,,,,,,,,,,,,,
,,,,,,,,,5fbbc75f884010d82bf37532,26,Mężczyzna,2022-05-28_09h16.13.093,task,2021.1.4,Win32,59.99160118,628b806c463b948bc644b84f,6291cbf0609764fa4ccca5fd,,,,,,1,0,1,0,1,"X V Q F H G B L J M P D K C T S W R N Z
",,,,,,,,,,,,,,,,,,,,,,,,,,,,,,,,,,,,,,,,,,,,,,,,,,,,,,,,,,,,,,,,,,,,,,,,,,,,,,,,,,,,,,,,,,,,,
,,,,,,,,,5fbbc75f884010d82bf37532,26,Mężczyzna,2022-05-28_09h16.13.093,task,2021.1.4,Win32,59.99160118,628b806c463b948bc644b84f,6291cbf0609764fa4ccca5fd,,,,,,2,0,2,0,1,"X V Q F H G B L J M P D K C T S W R N Z
",,,,,,,,,,,,,,,,,,,,,,,,,,,,,,,,,,,,,,,,,,,,,,,,,,,,,,,,,,,,,,,,,,,,,,,,,,,,,,,,,,,,,,,,,,,,,
,,,,,,,,,5fbbc75f884010d82bf37532,26,Mężczyzna,2022-05-28_09h16.13.093,task,2021.1.4,Win32,59.99160118,628b806c463b948bc644b84f,6291cbf0609764fa4ccca5fd,,,,,,3,0,3,0,1,"X V Q F H G B L J M P D K C T S W R N Z
",,,,,,,,,,,,,,,,,,,,,,,,,,,,,,,,,,,,,,,,,,,,,,,,,,,,,,,,,,,,,,,,,,,,,,,,,,,,,,,,,,,,,,,,,,,,,
,,,,,,,,,5fbbc75f884010d82bf37532,26,Mężczyzna,2022-05-28_09h16.13.093,task,2021.1.4,Win32,59.99160118,628b806c463b948bc644b84f,6291cbf0609764fa4ccca5fd,,,,,,,,,,,,jzlh,"[""j"",""z"",""l"",""h""]","[0.7535999999046226,1.1400999999046348,1.7202999999523172,2.0874000000953856,3.161599999904638]",0,"JZ
LH",5,0,5,0,1,,,,,,,,,,,,,,,,,,,,,,,,,,,,,,,,,,,,,,,,,,,,,,,,,,,,,,,,,,,,,,,,,,,,,,,,,,,,,,,,,,,
,,,,,,,,,5fbbc75f884010d82bf37532,26,Mężczyzna,2022-05-28_09h16.13.093,task,2021.1.4,Win32,59.99160118,628b806c463b948bc644b84f,6291cbf0609764fa4ccca5fd,,,,,,0,0,0,0,1,"X V Q F H G B L J M P D K C T S W R N Z
",,,,,,,,,,,,,,,,,,,,,,,,,,,,,,,,,,,,,,,,,,,,,,,,,,,,,,,,,,,,,,,,,,,,,,,,,,,,,,,,,,,,,,,,,,,,,
,,,,,,,,,5fbbc75f884010d82bf37532,26,Mężczyzna,2022-05-28_09h16.13.093,task,2021.1.4,Win32,59.99160118,628b806c463b948bc644b84f,6291cbf0609764fa4ccca5fd,,,,,,1,0,1,0,1,"X V Q F H G B L J M P D K C T S W R N Z
",,,,,,,,,,,,,,,,,,,,,,,,,,,,,,,,,,,,,,,,,,,,,,,,,,,,,,,,,,,,,,,,,,,,,,,,,,,,,,,,,,,,,,,,,,,,,
,,,,,,,,,5fbbc75f884010d82bf37532,26,Mężczyzna,2022-05-28_09h16.13.093,task,2021.1.4,Win32,59.99160118,628b806c463b948bc644b84f,6291cbf0609764fa4ccca5fd,,,,,,2,0,2,0,1,"X V Q F H G B L J M P D K C T S W R N Z
",,,,,,,,,,,,,,,,,,,,,,,,,,,,,,,,,,,,,,,,,,,,,,,,,,,,,,,,,,,,,,,,,,,,,,,,,,,,,,,,,,,,,,,,,,,,,
,,,,,,,,,5fbbc75f884010d82bf37532,26,Mężczyzna,2022-05-28_09h16.13.093,task,2021.1.4,Win32,59.99160118,628b806c463b948bc644b84f,6291cbf0609764fa4ccca5fd,,,,,,3,0,3,0,1,"X V Q F H G B L J M P D K C T S W R N Z
",,,,,,,,,,,,,,,,,,,,,,,,,,,,,,,,,,,,,,,,,,,,,,,,,,,,,,,,,,,,,,,,,,,,,,,,,,,,,,,,,,,,,,,,,,,,,
,,,,,,,,,5fbbc75f884010d82bf37532,26,Mężczyzna,2022-05-28_09h16.13.093,task,2021.1.4,Win32,59.99160118,628b806c463b948bc644b84f,6291cbf0609764fa4ccca5fd,,,,,,,,,,,,zbfh,"[""z"",""b"",""f"",""h""]","[0.6210000000000377,1.0225000000000364,1.6647000000476737,2.251900000095361,3.0794000000954043]",0,"Z
BFH",6,0,6,0,1,,,,,,,,,,,,,,,,,,,,,,,,,,,,,,,,,,,,,,,,,,,,,,,,,,,,,,,,,,,,,,,,,,,,,,,,,,,,,,,,,,,
,,,,,,,,,5fbbc75f884010d82bf37532,26,Mężczyzna,2022-05-28_09h16.13.093,task,2021.1.4,Win32,59.99160118,628b806c463b948bc644b84f,6291cbf0609764fa4ccca5fd,,,,,,0,0,0,0,1,"X V Q F H G B L J M P D K C T S W R N Z
",,,,,,,,,,,,,,,,,,,,,,,,,,,,,,,,,,,,,,,,,,,,,,,,,,,,,,,,,,,,,,,,,,,,,,,,,,,,,,,,,,,,,,,,,,,,,
,,,,,,,,,5fbbc75f884010d82bf37532,26,Mężczyzna,2022-05-28_09h16.13.093,task,2021.1.4,Win32,59.99160118,628b806c463b948bc644b84f,6291cbf0609764fa4ccca5fd,,,,,,1,0,1,0,1,"X V Q F H G B L J M P D K C T S W R N Z
",,,,,,,,,,,,,,,,,,,,,,,,,,,,,,,,,,,,,,,,,,,,,,,,,,,,,,,,,,,,,,,,,,,,,,,,,,,,,,,,,,,,,,,,,,,,,
,,,,,,,,,5fbbc75f884010d82bf37532,26,Mężczyzna,2022-05-28_09h16.13.093,task,2021.1.4,Win32,59.99160118,628b806c463b948bc644b84f,6291cbf0609764fa4ccca5fd,,,,,,2,0,2,0,1,"X V Q F H G B L J M P D K C T S W R N Z
",,,,,,,,,,,,,,,,,,,,,,,,,,,,,,,,,,,,,,,,,,,,,,,,,,,,,,,,,,,,,,,,,,,,,,,,,,,,,,,,,,,,,,,,,,,,,
,,,,,,,,,5fbbc75f884010d82bf37532,26,Mężczyzna,2022-05-28_09h16.13.093,task,2021.1.4,Win32,59.99160118,628b806c463b948bc644b84f,6291cbf0609764fa4ccca5fd,,,,,,3,0,3,0,1,"X V Q F H G B L J M P D K C T S W R N Z
",,,,,,,,,,,,,,,,,,,,,,,,,,,,,,,,,,,,,,,,,,,,,,,,,,,,,,,,,,,,,,,,,,,,,,,,,,,,,,,,,,,,,,,,,,,,,
,,,,,,,,,5fbbc75f884010d82bf37532,26,Mężczyzna,2022-05-28_09h16.13.093,task,2021.1.4,Win32,59.99160118,628b806c463b948bc644b84f,6291cbf0609764fa4ccca5fd,,,,,,,,,,,,xwns,"[""x"",""w"",""n"",""s""]","[0.8236999998092642,1.2196999998092792,2.0398999998569707,2.4908999998569925,3.144899999856989]",1,XWNS,7,0,7,0,1,,,,,,,,,,,,,,,,,,,,,,,,,,,,,,,,,,,,,,,,,,,,,,,,,,,,,,,,,,,,,,,,,,,,,,,,,,,,,,,,,,,
,,,,,,,,,5fbbc75f884010d82bf37532,26,Mężczyzna,2022-05-28_09h16.13.093,task,2021.1.4,Win32,59.99160118,628b806c463b948bc644b84f,6291cbf0609764fa4ccca5fd,,,,,,0,0,0,0,1,"X V Q F H G B L J M P D K C T S W R N Z
",,,,,,,,,,,,,,,,,,,,,,,,,,,,,,,,,,,,,,,,,,,,,,,,,,,,,,,,,,,,,,,,,,,,,,,,,,,,,,,,,,,,,,,,,,,,,
,,,,,,,,,5fbbc75f884010d82bf37532,26,Mężczyzna,2022-05-28_09h16.13.093,task,2021.1.4,Win32,59.99160118,628b806c463b948bc644b84f,6291cbf0609764fa4ccca5fd,,,,,,1,0,1,0,1,"X V Q F H G B L J M P D K C T S W R N Z
",,,,,,,,,,,,,,,,,,,,,,,,,,,,,,,,,,,,,,,,,,,,,,,,,,,,,,,,,,,,,,,,,,,,,,,,,,,,,,,,,,,,,,,,,,,,,
,,,,,,,,,5fbbc75f884010d82bf37532,26,Mężczyzna,2022-05-28_09h16.13.093,task,2021.1.4,Win32,59.99160118,628b806c463b948bc644b84f,6291cbf0609764fa4ccca5fd,,,,,,2,0,2,0,1,"X V Q F H G B L J M P D K C T S W R N Z
",,,,,,,,,,,,,,,,,,,,,,,,,,,,,,,,,,,,,,,,,,,,,,,,,,,,,,,,,,,,,,,,,,,,,,,,,,,,,,,,,,,,,,,,,,,,,
,,,,,,,,,5fbbc75f884010d82bf37532,26,Mężczyzna,2022-05-28_09h16.13.093,task,2021.1.4,Win32,59.99160118,628b806c463b948bc644b84f,6291cbf0609764fa4ccca5fd,,,,,,3,0,3,0,1,"X V Q F H G B L J M P D K C T S W R N Z
",,,,,,,,,,,,,,,,,,,,,,,,,,,,,,,,,,,,,,,,,,,,,,,,,,,,,,,,,,,,,,,,,,,,,,,,,,,,,,,,,,,,,,,,,,,,,
,,,,,,,,,5fbbc75f884010d82bf37532,26,Mężczyzna,2022-05-28_09h16.13.093,task,2021.1.4,Win32,59.99160118,628b806c463b948bc644b84f,6291cbf0609764fa4ccca5fd,,,,,,4,0,4,0,1,"X V Q F H G B L J M P D K C T S W R N Z
",,,,,,,,,,,,,,,,,,,,,,,,,,,,,,,,,,,,,,,,,,,,,,,,,,,,,,,,,,,,,,,,,,,,,,,,,,,,,,,,,,,,,,,,,,,,,
,,,,,,,,,5fbbc75f884010d82bf37532,26,Mężczyzna,2022-05-28_09h16.13.093,task,2021.1.4,Win32,59.99160118,628b806c463b948bc644b84f,6291cbf0609764fa4ccca5fd,,,,,,,,,,,,dgdsd,"[""d"",""g"",""d"",""s"",""d""]","[1.115000000000009,1.4155000000000086,2.0702000000476914,2.406800000190742,3.0818000001907535,5.450300000190737]",1,DGDSD,8,0,8,0,1,,,,,,,,,,,,,,,,,,,,,,,,,,,,,,,,,,,,,,,,,,,,,,,,,,,,,,,,,,,,,,,,,,,,,,,,,,,,,,,,,,,
,,,,,,,,,5fbbc75f884010d82bf37532,26,Mężczyzna,2022-05-28_09h16.13.093,task,2021.1.4,Win32,59.99160118,628b806c463b948bc644b84f,6291cbf0609764fa4ccca5fd,,,,,,0,0,0,0,1,"X V Q F H G B L J M P D K C T S W R N Z
",,,,,,,,,,,,,,,,,,,,,,,,,,,,,,,,,,,,,,,,,,,,,,,,,,,,,,,,,,,,,,,,,,,,,,,,,,,,,,,,,,,,,,,,,,,,,
,,,,,,,,,5fbbc75f884010d82bf37532,26,Mężczyzna,2022-05-28_09h16.13.093,task,2021.1.4,Win32,59.99160118,628b806c463b948bc644b84f,6291cbf0609764fa4ccca5fd,,,,,,1,0,1,0,1,"X V Q F H G B L J M P D K C T S W R N Z
",,,,,,,,,,,,,,,,,,,,,,,,,,,,,,,,,,,,,,,,,,,,,,,,,,,,,,,,,,,,,,,,,,,,,,,,,,,,,,,,,,,,,,,,,,,,,
,,,,,,,,,5fbbc75f884010d82bf37532,26,Mężczyzna,2022-05-28_09h16.13.093,task,2021.1.4,Win32,59.99160118,628b806c463b948bc644b84f,6291cbf0609764fa4ccca5fd,,,,,,2,0,2,0,1,"X V Q F H G B L J M P D K C T S W R N Z
",,,,,,,,,,,,,,,,,,,,,,,,,,,,,,,,,,,,,,,,,,,,,,,,,,,,,,,,,,,,,,,,,,,,,,,,,,,,,,,,,,,,,,,,,,,,,
,,,,,,,,,5fbbc75f884010d82bf37532,26,Mężczyzna,2022-05-28_09h16.13.093,task,2021.1.4,Win32,59.99160118,628b806c463b948bc644b84f,6291cbf0609764fa4ccca5fd,,,,,,3,0,3,0,1,"X V Q F H G B L J M P D K C T S W R N Z
",,,,,,,,,,,,,,,,,,,,,,,,,,,,,,,,,,,,,,,,,,,,,,,,,,,,,,,,,,,,,,,,,,,,,,,,,,,,,,,,,,,,,,,,,,,,,
,,,,,,,,,5fbbc75f884010d82bf37532,26,Mężczyzna,2022-05-28_09h16.13.093,task,2021.1.4,Win32,59.99160118,628b806c463b948bc644b84f,6291cbf0609764fa4ccca5fd,,,,,,4,0,4,0,1,"X V Q F H G B L J M P D K C T S W R N Z
",,,,,,,,,,,,,,,,,,,,,,,,,,,,,,,,,,,,,,,,,,,,,,,,,,,,,,,,,,,,,,,,,,,,,,,,,,,,,,,,,,,,,,,,,,,,,
,,,,,,,,,5fbbc75f884010d82bf37532,26,Mężczyzna,2022-05-28_09h16.13.093,task,2021.1.4,Win32,59.99160118,628b806c463b948bc644b84f,6291cbf0609764fa4ccca5fd,,,,,,,,,,,,rfrzk,"[""r"",""f"",""r"",""z"",""k""]","[0.7757999999523122,2.6137999999523345,3.014499999999998,3.6326999998092333,4.4782999999522985,5.514599999904647]",0,"RFRZ
K",9,0,9,0,1,,,,,,,,,,,,,,,,,,,,,,,,,,,,,,,,,,,,,,,,,,,,,,,,,,,,,,,,,,,,,,,,,,,,,,,,,,,,,,,,,,,
,,,,,,,,,5fbbc75f884010d82bf37532,26,Mężczyzna,2022-05-28_09h16.13.093,task,2021.1.4,Win32,59.99160118,628b806c463b948bc644b84f,6291cbf0609764fa4ccca5fd,,,,,,0,0,0,0,1,"X V Q F H G B L J M P D K C T S W R N Z
",,,,,,,,,,,,,,,,,,,,,,,,,,,,,,,,,,,,,,,,,,,,,,,,,,,,,,,,,,,,,,,,,,,,,,,,,,,,,,,,,,,,,,,,,,,,,
,,,,,,,,,5fbbc75f884010d82bf37532,26,Mężczyzna,2022-05-28_09h16.13.093,task,2021.1.4,Win32,59.99160118,628b806c463b948bc644b84f,6291cbf0609764fa4ccca5fd,,,,,,1,0,1,0,1,"X V Q F H G B L J M P D K C T S W R N Z
",,,,,,,,,,,,,,,,,,,,,,,,,,,,,,,,,,,,,,,,,,,,,,,,,,,,,,,,,,,,,,,,,,,,,,,,,,,,,,,,,,,,,,,,,,,,,
,,,,,,,,,5fbbc75f884010d82bf37532,26,Mężczyzna,2022-05-28_09h16.13.093,task,2021.1.4,Win32,59.99160118,628b806c463b948bc644b84f,6291cbf0609764fa4ccca5fd,,,,,,2,0,2,0,1,"X V Q F H G B L J M P D K C T S W R N Z
",,,,,,,,,,,,,,,,,,,,,,,,,,,,,,,,,,,,,,,,,,,,,,,,,,,,,,,,,,,,,,,,,,,,,,,,,,,,,,,,,,,,,,,,,,,,,
,,,,,,,,,5fbbc75f884010d82bf37532,26,Mężczyzna,2022-05-28_09h16.13.093,task,2021.1.4,Win32,59.99160118,628b806c463b948bc644b84f,6291cbf0609764fa4ccca5fd,,,,,,3,0,3,0,1,"X V Q F H G B L J M P D K C T S W R N Z
",,,,,,,,,,,,,,,,,,,,,,,,,,,,,,,,,,,,,,,,,,,,,,,,,,,,,,,,,,,,,,,,,,,,,,,,,,,,,,,,,,,,,,,,,,,,,
,,,,,,,,,5fbbc75f884010d82bf37532,26,Mężczyzna,2022-05-28_09h16.13.093,task,2021.1.4,Win32,59.99160118,628b806c463b948bc644b84f,6291cbf0609764fa4ccca5fd,,,,,,4,0,4,0,1,"X V Q F H G B L J M P D K C T S W R N Z
",,,,,,,,,,,,,,,,,,,,,,,,,,,,,,,,,,,,,,,,,,,,,,,,,,,,,,,,,,,,,,,,,,,,,,,,,,,,,,,,,,,,,,,,,,,,,
,,,,,,,,,5fbbc75f884010d82bf37532,26,Mężczyzna,2022-05-28_09h16.13.093,task,2021.1.4,Win32,59.99160118,628b806c463b948bc644b84f,6291cbf0609764fa4ccca5fd,,,,,,,,,,,,kbqtp,"[""k"",""b"",""q"",""t"",""p""]","[1.0042000000477174,1.5810000000000173,2.4883000001907476,3.422400000095365,5.125900000095385,7.293800000190743]",1,KBQTP,10,0,10,0,1,,,,,,,,,,,,,,,,,,,,,,,,,,,,,,,,,,,,,,,,,,,,,,,,,,,,,,,,,,,,,,,,,,,,,,,,,,,,,,,,,,,
,,,,,,,,,5fbbc75f884010d82bf37532,26,Mężczyzna,2022-05-28_09h16.13.093,task,2021.1.4,Win32,59.99160118,628b806c463b948bc644b84f,6291cbf0609764fa4ccca5fd,,,,,,0,0,0,0,1,"X V Q F H G B L J M P D K C T S W R N Z
",,,,,,,,,,,,,,,,,,,,,,,,,,,,,,,,,,,,,,,,,,,,,,,,,,,,,,,,,,,,,,,,,,,,,,,,,,,,,,,,,,,,,,,,,,,,,
,,,,,,,,,5fbbc75f884010d82bf37532,26,Mężczyzna,2022-05-28_09h16.13.093,task,2021.1.4,Win32,59.99160118,628b806c463b948bc644b84f,6291cbf0609764fa4ccca5fd,,,,,,1,0,1,0,1,"X V Q F H G B L J M P D K C T S W R N Z
",,,,,,,,,,,,,,,,,,,,,,,,,,,,,,,,,,,,,,,,,,,,,,,,,,,,,,,,,,,,,,,,,,,,,,,,,,,,,,,,,,,,,,,,,,,,,
,,,,,,,,,5fbbc75f884010d82bf37532,26,Mężczyzna,2022-05-28_09h16.13.093,task,2021.1.4,Win32,59.99160118,628b806c463b948bc644b84f,6291cbf0609764fa4ccca5fd,,,,,,2,0,2,0,1,"X V Q F H G B L J M P D K C T S W R N Z
",,,,,,,,,,,,,,,,,,,,,,,,,,,,,,,,,,,,,,,,,,,,,,,,,,,,,,,,,,,,,,,,,,,,,,,,,,,,,,,,,,,,,,,,,,,,,
,,,,,,,,,5fbbc75f884010d82bf37532,26,Mężczyzna,2022-05-28_09h16.13.093,task,2021.1.4,Win32,59.99160118,628b806c463b948bc644b84f,6291cbf0609764fa4ccca5fd,,,,,,3,0,3,0,1,"X V Q F H G B L J M P D K C T S W R N Z
",,,,,,,,,,,,,,,,,,,,,,,,,,,,,,,,,,,,,,,,,,,,,,,,,,,,,,,,,,,,,,,,,,,,,,,,,,,,,,,,,,,,,,,,,,,,,
,,,,,,,,,5fbbc75f884010d82bf37532,26,Mężczyzna,2022-05-28_09h16.13.093,task,2021.1.4,Win32,59.99160118,628b806c463b948bc644b84f,6291cbf0609764fa4ccca5fd,,,,,,4,0,4,0,1,"X V Q F H G B L J M P D K C T S W R N Z
",,,,,,,,,,,,,,,,,,,,,,,,,,,,,,,,,,,,,,,,,,,,,,,,,,,,,,,,,,,,,,,,,,,,,,,,,,,,,,,,,,,,,,,,,,,,,
,,,,,,,,,5fbbc75f884010d82bf37532,26,Mężczyzna,2022-05-28_09h16.13.093,task,2021.1.4,Win32,59.99160118,628b806c463b948bc644b84f,6291cbf0609764fa4ccca5fd,,,,,,5,0,5,0,1,"X V Q F H G B L J M P D K C T S W R N Z
",,,,,,,,,,,,,,,,,,,,,,,,,,,,,,,,,,,,,,,,,,,,,,,,,,,,,,,,,,,,,,,,,,,,,,,,,,,,,,,,,,,,,,,,,,,,,
,,,,,,,,,5fbbc75f884010d82bf37532,26,Mężczyzna,2022-05-28_09h16.13.093,task,2021.1.4,Win32,59.99160118,628b806c463b948bc644b84f,6291cbf0609764fa4ccca5fd,,,,,,,,,,,,npgjwb,"[""n"",""p"",""g"",""j"",""w"",""b""]","[0.6057999999523531,1.1651000001430702,2.6627999999523126,3.307400000095356,4.000299999952347,5.4697000000476805,7.244900000095356]",0,NPGJBW,11,0,11,0,1,,,,,,,,,,,,,,,,,,,,,,,,,,,,,,,,,,,,,,,,,,,,,,,,,,,,,,,,,,,,,,,,,,,,,,,,,,,,,,,,,,,
,,,,,,,,,5fbbc75f884010d82bf37532,26,Mężczyzna,2022-05-28_09h16.13.093,task,2021.1.4,Win32,59.99160118,628b806c463b948bc644b84f,6291cbf0609764fa4ccca5fd,,,,,,0,0,0,0,1,"X V Q F H G B L J M P D K C T S W R N Z
",,,,,,,,,,,,,,,,,,,,,,,,,,,,,,,,,,,,,,,,,,,,,,,,,,,,,,,,,,,,,,,,,,,,,,,,,,,,,,,,,,,,,,,,,,,,,
,,,,,,,,,5fbbc75f884010d82bf37532,26,Mężczyzna,2022-05-28_09h16.13.093,task,2021.1.4,Win32,59.99160118,628b806c463b948bc644b84f,6291cbf0609764fa4ccca5fd,,,,,,1,0,1,0,1,"X V Q F H G B L J M P D K C T S W R N Z
",,,,,,,,,,,,,,,,,,,,,,,,,,,,,,,,,,,,,,,,,,,,,,,,,,,,,,,,,,,,,,,,,,,,,,,,,,,,,,,,,,,,,,,,,,,,,
,,,,,,,,,5fbbc75f884010d82bf37532,26,Mężczyzna,2022-05-28_09h16.13.093,task,2021.1.4,Win32,59.99160118,628b806c463b948bc644b84f,6291cbf0609764fa4ccca5fd,,,,,,2,0,2,0,1,"X V Q F H G B L J M P D K C T S W R N Z
",,,,,,,,,,,,,,,,,,,,,,,,,,,,,,,,,,,,,,,,,,,,,,,,,,,,,,,,,,,,,,,,,,,,,,,,,,,,,,,,,,,,,,,,,,,,,
,,,,,,,,,5fbbc75f884010d82bf37532,26,Mężczyzna,2022-05-28_09h16.13.093,task,2021.1.4,Win32,59.99160118,628b806c463b948bc644b84f,6291cbf0609764fa4ccca5fd,,,,,,3,0,3,0,1,"X V Q F H G B L J M P D K C T S W R N Z
",,,,,,,,,,,,,,,,,,,,,,,,,,,,,,,,,,,,,,,,,,,,,,,,,,,,,,,,,,,,,,,,,,,,,,,,,,,,,,,,,,,,,,,,,,,,,
,,,,,,,,,5fbbc75f884010d82bf37532,26,Mężczyzna,2022-05-28_09h16.13.093,task,2021.1.4,Win32,59.99160118,628b806c463b948bc644b84f,6291cbf0609764fa4ccca5fd,,,,,,4,0,4,0,1,"X V Q F H G B L J M P D K C T S W R N Z
",,,,,,,,,,,,,,,,,,,,,,,,,,,,,,,,,,,,,,,,,,,,,,,,,,,,,,,,,,,,,,,,,,,,,,,,,,,,,,,,,,,,,,,,,,,,,
,,,,,,,,,5fbbc75f884010d82bf37532,26,Mężczyzna,2022-05-28_09h16.13.093,task,2021.1.4,Win32,59.99160118,628b806c463b948bc644b84f,6291cbf0609764fa4ccca5fd,,,,,,5,0,5,0,1,"X V Q F H G B L J M P D K C T S W R N Z
",,,,,,,,,,,,,,,,,,,,,,,,,,,,,,,,,,,,,,,,,,,,,,,,,,,,,,,,,,,,,,,,,,,,,,,,,,,,,,,,,,,,,,,,,,,,,
,,,,,,,,,5fbbc75f884010d82bf37532,26,Mężczyzna,2022-05-28_09h16.13.093,task,2021.1.4,Win32,59.99160118,628b806c463b948bc644b84f,6291cbf0609764fa4ccca5fd,,,,,,,,,,,,rdhvmb,"[""r"",""d"",""h"",""v"",""m"",""b""]","[1.0235000000000127,1.5658999998569243,2.0051999998092356,3.2775999999046235,3.628499999999974,4.135099999904639,5.66919999980928]",1,RDHVMB,12,0,12,0,1,,,,,,,,,,,,,,,,,,,,,,,,,,,,,,,,,,,,,,,,,,,,,,,,,,,,,,,,,,,,,,,,,,,,,,,,,,,,,,,,,,,
,,,,,,,,,5fbbc75f884010d82bf37532,26,Mężczyzna,2022-05-28_09h16.13.093,task,2021.1.4,Win32,59.99160118,628b806c463b948bc644b84f,6291cbf0609764fa4ccca5fd,,,,,,0,0,0,0,1,"X V Q F H G B L J M P D K C T S W R N Z
",,,,,,,,,,,,,,,,,,,,,,,,,,,,,,,,,,,,,,,,,,,,,,,,,,,,,,,,,,,,,,,,,,,,,,,,,,,,,,,,,,,,,,,,,,,,,
,,,,,,,,,5fbbc75f884010d82bf37532,26,Mężczyzna,2022-05-28_09h16.13.093,task,2021.1.4,Win32,59.99160118,628b806c463b948bc644b84f,6291cbf0609764fa4ccca5fd,,,,,,1,0,1,0,1,"X V Q F H G B L J M P D K C T S W R N Z
",,,,,,,,,,,,,,,,,,,,,,,,,,,,,,,,,,,,,,,,,,,,,,,,,,,,,,,,,,,,,,,,,,,,,,,,,,,,,,,,,,,,,,,,,,,,,
,,,,,,,,,5fbbc75f884010d82bf37532,26,Mężczyzna,2022-05-28_09h16.13.093,task,2021.1.4,Win32,59.99160118,628b806c463b948bc644b84f,6291cbf0609764fa4ccca5fd,,,,,,2,0,2,0,1,"X V Q F H G B L J M P D K C T S W R N Z
",,,,,,,,,,,,,,,,,,,,,,,,,,,,,,,,,,,,,,,,,,,,,,,,,,,,,,,,,,,,,,,,,,,,,,,,,,,,,,,,,,,,,,,,,,,,,
,,,,,,,,,5fbbc75f884010d82bf37532,26,Mężczyzna,2022-05-28_09h16.13.093,task,2021.1.4,Win32,59.99160118,628b806c463b948bc644b84f,6291cbf0609764fa4ccca5fd,,,,,,3,0,3,0,1,"X V Q F H G B L J M P D K C T S W R N Z
",,,,,,,,,,,,,,,,,,,,,,,,,,,,,,,,,,,,,,,,,,,,,,,,,,,,,,,,,,,,,,,,,,,,,,,,,,,,,,,,,,,,,,,,,,,,,
,,,,,,,,,5fbbc75f884010d82bf37532,26,Mężczyzna,2022-05-28_09h16.13.093,task,2021.1.4,Win32,59.99160118,628b806c463b948bc644b84f,6291cbf0609764fa4ccca5fd,,,,,,4,0,4,0,1,"X V Q F H G B L J M P D K C T S W R N Z
",,,,,,,,,,,,,,,,,,,,,,,,,,,,,,,,,,,,,,,,,,,,,,,,,,,,,,,,,,,,,,,,,,,,,,,,,,,,,,,,,,,,,,,,,,,,,
,,,,,,,,,5fbbc75f884010d82bf37532,26,Mężczyzna,2022-05-28_09h16.13.093,task,2021.1.4,Win32,59.99160118,628b806c463b948bc644b84f,6291cbf0609764fa4ccca5fd,,,,,,5,0,5,0,1,"X V Q F H G B L J M P D K C T S W R N Z
",,,,,,,,,,,,,,,,,,,,,,,,,,,,,,,,,,,,,,,,,,,,,,,,,,,,,,,,,,,,,,,,,,,,,,,,,,,,,,,,,,,,,,,,,,,,,
,,,,,,,,,5fbbc75f884010d82bf37532,26,Mężczyzna,2022-05-28_09h16.13.093,task,2021.1.4,Win32,59.99160118,628b806c463b948bc644b84f,6291cbf0609764fa4ccca5fd,,,,,,,,,,,,dzzpdt,"[""d"",""z"",""z"",""p"",""d"",""t""]","[1.2234000000954097,1.8207000000477365,2.6721000001430752,3.2280000000000086,7.259800000190751,7.822500000000048,9.467300000190733]",0,"DZ
Z
DPD",13,0,13,0,1,,,,,,,,,,,,,,,,,,,,,,,,,,,,,,,,,,,,,,,,,,,,,,,,,,,,,,,,,,,,,,,,,,,,,,,,,,,,,,,,,,,
,,,,,,,,,5fbbc75f884010d82bf37532,26,Mężczyzna,2022-05-28_09h16.13.093,task,2021.1.4,Win32,59.99160118,628b806c463b948bc644b84f,6291cbf0609764fa4ccca5fd,,,,,,0,0,0,0,1,"X V Q F H G B L J M P D K C T S W R N Z
",,,,,,,,,,,,,,,,,,,,,,,,,,,,,,,,,,,,,,,,,,,,,,,,,,,,,,,,,,,,,,,,,,,,,,,,,,,,,,,,,,,,,,,,,,,,,
,,,,,,,,,5fbbc75f884010d82bf37532,26,Mężczyzna,2022-05-28_09h16.13.093,task,2021.1.4,Win32,59.99160118,628b806c463b948bc644b84f,6291cbf0609764fa4ccca5fd,,,,,,1,0,1,0,1,"X V Q F H G B L J M P D K C T S W R N Z
",,,,,,,,,,,,,,,,,,,,,,,,,,,,,,,,,,,,,,,,,,,,,,,,,,,,,,,,,,,,,,,,,,,,,,,,,,,,,,,,,,,,,,,,,,,,,
,,,,,,,,,5fbbc75f884010d82bf37532,26,Mężczyzna,2022-05-28_09h16.13.093,task,2021.1.4,Win32,59.99160118,628b806c463b948bc644b84f,6291cbf0609764fa4ccca5fd,,,,,,2,0,2,0,1,"X V Q F H G B L J M P D K C T S W R N Z
",,,,,,,,,,,,,,,,,,,,,,,,,,,,,,,,,,,,,,,,,,,,,,,,,,,,,,,,,,,,,,,,,,,,,,,,,,,,,,,,,,,,,,,,,,,,,
,,,,,,,,,5fbbc75f884010d82bf37532,26,Mężczyzna,2022-05-28_09h16.13.093,task,2021.1.4,Win32,59.99160118,628b806c463b948bc644b84f,6291cbf0609764fa4ccca5fd,,,,,,3,0,3,0,1,"X V Q F H G B L J M P D K C T S W R N Z
",,,,,,,,,,,,,,,,,,,,,,,,,,,,,,,,,,,,,,,,,,,,,,,,,,,,,,,,,,,,,,,,,,,,,,,,,,,,,,,,,,,,,,,,,,,,,
,,,,,,,,,5fbbc75f884010d82bf37532,26,Mężczyzna,2022-05-28_09h16.13.093,task,2021.1.4,Win32,59.99160118,628b806c463b948bc644b84f,6291cbf0609764fa4ccca5fd,,,,,,4,0,4,0,1,"X V Q F H G B L J M P D K C T S W R N Z
",,,,,,,,,,,,,,,,,,,,,,,,,,,,,,,,,,,,,,,,,,,,,,,,,,,,,,,,,,,,,,,,,,,,,,,,,,,,,,,,,,,,,,,,,,,,,
,,,,,,,,,5fbbc75f884010d82bf37532,26,Mężczyzna,2022-05-28_09h16.13.093,task,2021.1.4,Win32,59.99160118,628b806c463b948bc644b84f,6291cbf0609764fa4ccca5fd,,,,,,5,0,5,0,1,"X V Q F H G B L J M P D K C T S W R N Z
",,,,,,,,,,,,,,,,,,,,,,,,,,,,,,,,,,,,,,,,,,,,,,,,,,,,,,,,,,,,,,,,,,,,,,,,,,,,,,,,,,,,,,,,,,,,,
,,,,,,,,,5fbbc75f884010d82bf37532,26,Mężczyzna,2022-05-28_09h16.13.093,task,2021.1.4,Win32,59.99160118,628b806c463b948bc644b84f,6291cbf0609764fa4ccca5fd,,,,,,,,,,,,jjnbcr,"[""j"",""j"",""n"",""b"",""c"",""r""]","[1.3237000000476655,1.5009999999999764,2.5090000000000146,2.812999999999988,3.2640999999046016,3.73599999999999,4.626099999904682]",1,JJNBCR,14,0,14,0,1,,,,,,,,,,,,,,,,,,,,,,,,,,,,,,,,,,,,,,,,,,,,,,,,,,,,,,,,,,,,,,,,,,,,,,,,,,,,,,,,,,,
,,,,,,,,,5fbbc75f884010d82bf37532,26,Mężczyzna,2022-05-28_09h16.13.093,task,2021.1.4,Win32,59.99160118,628b806c463b948bc644b84f,6291cbf0609764fa4ccca5fd,,,,,,0,0,0,0,1,"X V Q F H G B L J M P D K C T S W R N Z
",,,,,,,,,,,,,,,,,,,,,,,,,,,,,,,,,,,,,,,,,,,,,,,,,,,,,,,,,,,,,,,,,,,,,,,,,,,,,,,,,,,,,,,,,,,,,
,,,,,,,,,5fbbc75f884010d82bf37532,26,Mężczyzna,2022-05-28_09h16.13.093,task,2021.1.4,Win32,59.99160118,628b806c463b948bc644b84f,6291cbf0609764fa4ccca5fd,,,,,,1,0,1,0,1,"X V Q F H G B L J M P D K C T S W R N Z
",,,,,,,,,,,,,,,,,,,,,,,,,,,,,,,,,,,,,,,,,,,,,,,,,,,,,,,,,,,,,,,,,,,,,,,,,,,,,,,,,,,,,,,,,,,,,
,,,,,,,,,5fbbc75f884010d82bf37532,26,Mężczyzna,2022-05-28_09h16.13.093,task,2021.1.4,Win32,59.99160118,628b806c463b948bc644b84f,6291cbf0609764fa4ccca5fd,,,,,,2,0,2,0,1,"X V Q F H G B L J M P D K C T S W R N Z
",,,,,,,,,,,,,,,,,,,,,,,,,,,,,,,,,,,,,,,,,,,,,,,,,,,,,,,,,,,,,,,,,,,,,,,,,,,,,,,,,,,,,,,,,,,,,
,,,,,,,,,5fbbc75f884010d82bf37532,26,Mężczyzna,2022-05-28_09h16.13.093,task,2021.1.4,Win32,59.99160118,628b806c463b948bc644b84f,6291cbf0609764fa4ccca5fd,,,,,,3,0,3,0,1,"X V Q F H G B L J M P D K C T S W R N Z
",,,,,,,,,,,,,,,,,,,,,,,,,,,,,,,,,,,,,,,,,,,,,,,,,,,,,,,,,,,,,,,,,,,,,,,,,,,,,,,,,,,,,,,,,,,,,
,,,,,,,,,5fbbc75f884010d82bf37532,26,Mężczyzna,2022-05-28_09h16.13.093,task,2021.1.4,Win32,59.99160118,628b806c463b948bc644b84f,6291cbf0609764fa4ccca5fd,,,,,,4,0,4,0,1,"X V Q F H G B L J M P D K C T S W R N Z
",,,,,,,,,,,,,,,,,,,,,,,,,,,,,,,,,,,,,,,,,,,,,,,,,,,,,,,,,,,,,,,,,,,,,,,,,,,,,,,,,,,,,,,,,,,,,
,,,,,,,,,5fbbc75f884010d82bf37532,26,Mężczyzna,2022-05-28_09h16.13.093,task,2021.1.4,Win32,59.99160118,628b806c463b948bc644b84f,6291cbf0609764fa4ccca5fd,,,,,,5,0,5,0,1,"X V Q F H G B L J M P D K C T S W R N Z
",,,,,,,,,,,,,,,,,,,,,,,,,,,,,,,,,,,,,,,,,,,,,,,,,,,,,,,,,,,,,,,,,,,,,,,,,,,,,,,,,,,,,,,,,,,,,
,,,,,,,,,5fbbc75f884010d82bf37532,26,Mężczyzna,2022-05-28_09h16.13.093,task,2021.1.4,Win32,59.99160118,628b806c463b948bc644b84f,6291cbf0609764fa4ccca5fd,,,,,,6,0,6,0,1,"X V Q F H G B L J M P D K C T S W R N Z
",,,,,,,,,,,,,,,,,,,,,,,,,,,,,,,,,,,,,,,,,,,,,,,,,,,,,,,,,,,,,,,,,,,,,,,,,,,,,,,,,,,,,,,,,,,,,
,,,,,,,,,5fbbc75f884010d82bf37532,26,Mężczyzna,2022-05-28_09h16.13.093,task,2021.1.4,Win32,59.99160118,628b806c463b948bc644b84f,6291cbf0609764fa4ccca5fd,,,,,,,,,,,,bnqtkfg,"[""b"",""n"",""q"",""t"",""k"",""f"",""g""]","[1.7406999998091806,2.1829999999999927,2.481399999856876,3.6940999999045516,4.431999999999903,5.100299999952313,6.373199999809231,8.537199999809218]",1,BNQTKFG,15,0,15,0,1,,,,,,,,,,,,,,,,,,,,,,,,,,,,,,,,,,,,,,,,,,,,,,,,,,,,,,,,,,,,,,,,,,,,,,,,,,,,,,,,,,,
,,,,,,,,,5fbbc75f884010d82bf37532,26,Mężczyzna,2022-05-28_09h16.13.093,task,2021.1.4,Win32,59.99160118,628b806c463b948bc644b84f,6291cbf0609764fa4ccca5fd,,,,,,0,0,0,0,1,"X V Q F H G B L J M P D K C T S W R N Z
",,,,,,,,,,,,,,,,,,,,,,,,,,,,,,,,,,,,,,,,,,,,,,,,,,,,,,,,,,,,,,,,,,,,,,,,,,,,,,,,,,,,,,,,,,,,,
,,,,,,,,,5fbbc75f884010d82bf37532,26,Mężczyzna,2022-05-28_09h16.13.093,task,2021.1.4,Win32,59.99160118,628b806c463b948bc644b84f,6291cbf0609764fa4ccca5fd,,,,,,1,0,1,0,1,"X V Q F H G B L J M P D K C T S W R N Z
",,,,,,,,,,,,,,,,,,,,,,,,,,,,,,,,,,,,,,,,,,,,,,,,,,,,,,,,,,,,,,,,,,,,,,,,,,,,,,,,,,,,,,,,,,,,,
,,,,,,,,,5fbbc75f884010d82bf37532,26,Mężczyzna,2022-05-28_09h16.13.093,task,2021.1.4,Win32,59.99160118,628b806c463b948bc644b84f,6291cbf0609764fa4ccca5fd,,,,,,2,0,2,0,1,"X V Q F H G B L J M P D K C T S W R N Z
",,,,,,,,,,,,,,,,,,,,,,,,,,,,,,,,,,,,,,,,,,,,,,,,,,,,,,,,,,,,,,,,,,,,,,,,,,,,,,,,,,,,,,,,,,,,,
,,,,,,,,,5fbbc75f884010d82bf37532,26,Mężczyzna,2022-05-28_09h16.13.093,task,2021.1.4,Win32,59.99160118,628b806c463b948bc644b84f,6291cbf0609764fa4ccca5fd,,,,,,3,0,3,0,1,"X V Q F H G B L J M P D K C T S W R N Z
",,,,,,,,,,,,,,,,,,,,,,,,,,,,,,,,,,,,,,,,,,,,,,,,,,,,,,,,,,,,,,,,,,,,,,,,,,,,,,,,,,,,,,,,,,,,,
,,,,,,,,,5fbbc75f884010d82bf37532,26,Mężczyzna,2022-05-28_09h16.13.093,task,2021.1.4,Win32,59.99160118,628b806c463b948bc644b84f,6291cbf0609764fa4ccca5fd,,,,,,4,0,4,0,1,"X V Q F H G B L J M P D K C T S W R N Z
",,,,,,,,,,,,,,,,,,,,,,,,,,,,,,,,,,,,,,,,,,,,,,,,,,,,,,,,,,,,,,,,,,,,,,,,,,,,,,,,,,,,,,,,,,,,,
,,,,,,,,,5fbbc75f884010d82bf37532,26,Mężczyzna,2022-05-28_09h16.13.093,task,2021.1.4,Win32,59.99160118,628b806c463b948bc644b84f,6291cbf0609764fa4ccca5fd,,,,,,5,0,5,0,1,"X V Q F H G B L J M P D K C T S W R N Z
",,,,,,,,,,,,,,,,,,,,,,,,,,,,,,,,,,,,,,,,,,,,,,,,,,,,,,,,,,,,,,,,,,,,,,,,,,,,,,,,,,,,,,,,,,,,,
,,,,,,,,,5fbbc75f884010d82bf37532,26,Mężczyzna,2022-05-28_09h16.13.093,task,2021.1.4,Win32,59.99160118,628b806c463b948bc644b84f,6291cbf0609764fa4ccca5fd,,,,,,6,0,6,0,1,"X V Q F H G B L J M P D K C T S W R N Z
",,,,,,,,,,,,,,,,,,,,,,,,,,,,,,,,,,,,,,,,,,,,,,,,,,,,,,,,,,,,,,,,,,,,,,,,,,,,,,,,,,,,,,,,,,,,,
,,,,,,,,,5fbbc75f884010d82bf37532,26,Mężczyzna,2022-05-28_09h16.13.093,task,2021.1.4,Win32,59.99160118,628b806c463b948bc644b84f,6291cbf0609764fa4ccca5fd,,,,,,,,,,,,cfzjfrc,"[""c"",""f"",""z"",""j"",""f"",""r"",""c""]","[0.98599999999999,1.3390000000000555,2.231200000047693,4.696399999857022,6.355700000047705,6.700200000047744,12.36820000004775,13.417799999952308]",0,"CFZ
JLFR",16,0,16,0,1,,,,,,,,,,,,,,,,,,,,,,,,,,,,,,,,,,,,,,,,,,,,,,,,,,,,,,,,,,,,,,,,,,,,,,,,,,,,,,,,,,,
,,,,,,,,,5fbbc75f884010d82bf37532,26,Mężczyzna,2022-05-28_09h16.13.093,task,2021.1.4,Win32,59.99160118,628b806c463b948bc644b84f,6291cbf0609764fa4ccca5fd,,,,,,0,0,0,0,1,"X V Q F H G B L J M P D K C T S W R N Z
",,,,,,,,,,,,,,,,,,,,,,,,,,,,,,,,,,,,,,,,,,,,,,,,,,,,,,,,,,,,,,,,,,,,,,,,,,,,,,,,,,,,,,,,,,,,,
,,,,,,,,,5fbbc75f884010d82bf37532,26,Mężczyzna,2022-05-28_09h16.13.093,task,2021.1.4,Win32,59.99160118,628b806c463b948bc644b84f,6291cbf0609764fa4ccca5fd,,,,,,1,0,1,0,1,"X V Q F H G B L J M P D K C T S W R N Z
",,,,,,,,,,,,,,,,,,,,,,,,,,,,,,,,,,,,,,,,,,,,,,,,,,,,,,,,,,,,,,,,,,,,,,,,,,,,,,,,,,,,,,,,,,,,,
,,,,,,,,,5fbbc75f884010d82bf37532,26,Mężczyzna,2022-05-28_09h16.13.093,task,2021.1.4,Win32,59.99160118,628b806c463b948bc644b84f,6291cbf0609764fa4ccca5fd,,,,,,2,0,2,0,1,"X V Q F H G B L J M P D K C T S W R N Z
",,,,,,,,,,,,,,,,,,,,,,,,,,,,,,,,,,,,,,,,,,,,,,,,,,,,,,,,,,,,,,,,,,,,,,,,,,,,,,,,,,,,,,,,,,,,,
,,,,,,,,,5fbbc75f884010d82bf37532,26,Mężczyzna,2022-05-28_09h16.13.093,task,2021.1.4,Win32,59.99160118,628b806c463b948bc644b84f,6291cbf0609764fa4ccca5fd,,,,,,3,0,3,0,1,"X V Q F H G B L J M P D K C T S W R N Z
",,,,,,,,,,,,,,,,,,,,,,,,,,,,,,,,,,,,,,,,,,,,,,,,,,,,,,,,,,,,,,,,,,,,,,,,,,,,,,,,,,,,,,,,,,,,,
,,,,,,,,,5fbbc75f884010d82bf37532,26,Mężczyzna,2022-05-28_09h16.13.093,task,2021.1.4,Win32,59.99160118,628b806c463b948bc644b84f,6291cbf0609764fa4ccca5fd,,,,,,4,0,4,0,1,"X V Q F H G B L J M P D K C T S W R N Z
",,,,,,,,,,,,,,,,,,,,,,,,,,,,,,,,,,,,,,,,,,,,,,,,,,,,,,,,,,,,,,,,,,,,,,,,,,,,,,,,,,,,,,,,,,,,,
,,,,,,,,,5fbbc75f884010d82bf37532,26,Mężczyzna,2022-05-28_09h16.13.093,task,2021.1.4,Win32,59.99160118,628b806c463b948bc644b84f,6291cbf0609764fa4ccca5fd,,,,,,5,0,5,0,1,"X V Q F H G B L J M P D K C T S W R N Z
",,,,,,,,,,,,,,,,,,,,,,,,,,,,,,,,,,,,,,,,,,,,,,,,,,,,,,,,,,,,,,,,,,,,,,,,,,,,,,,,,,,,,,,,,,,,,
,,,,,,,,,5fbbc75f884010d82bf37532,26,Mężczyzna,2022-05-28_09h16.13.093,task,2021.1.4,Win32,59.99160118,628b806c463b948bc644b84f,6291cbf0609764fa4ccca5fd,,,,,,6,0,6,0,1,"X V Q F H G B L J M P D K C T S W R N Z
",,,,,,,,,,,,,,,,,,,,,,,,,,,,,,,,,,,,,,,,,,,,,,,,,,,,,,,,,,,,,,,,,,,,,,,,,,,,,,,,,,,,,,,,,,,,,
,,,,,,,,,5fbbc75f884010d82bf37532,26,Mężczyzna,2022-05-28_09h16.13.093,task,2021.1.4,Win32,59.99160118,628b806c463b948bc644b84f,6291cbf0609764fa4ccca5fd,,,,,,,,,,,,jcjchmk,"[""j"",""c"",""j"",""c"",""h"",""m"",""k""]","[8.955699999809212,9.43409999990456,10.315799999952333,11.990299999952299,15.5142999999523,16.09459999990463,17.976799999952277,18.884599999904594]",0,JQJMKHW,17,0,17,0,1,,,,,,,,,,,,,,,,,,,,,,,,,,,,,,,,,,,,,,,,,,,,,,,,,,,,,,,,,,,,,,,,,,,,,,,,,,,,,,,,,,,
,,,,,,,,,5fbbc75f884010d82bf37532,26,Mężczyzna,2022-05-28_09h16.13.093,task,2021.1.4,Win32,59.99160118,628b806c463b948bc644b84f,6291cbf0609764fa4ccca5fd,,,,,,0,0,0,0,1,"X V Q F H G B L J M P D K C T S W R N Z
",,,,,,,,,,,,,,,,,,,,,,,,,,,,,,,,,,,,,,,,,,,,,,,,,,,,,,,,,,,,,,,,,,,,,,,,,,,,,,,,,,,,,,,,,,,,,
,,,,,,,,,5fbbc75f884010d82bf37532,26,Mężczyzna,2022-05-28_09h16.13.093,task,2021.1.4,Win32,59.99160118,628b806c463b948bc644b84f,6291cbf0609764fa4ccca5fd,,,,,,1,0,1,0,1,"X V Q F H G B L J M P D K C T S W R N Z
",,,,,,,,,,,,,,,,,,,,,,,,,,,,,,,,,,,,,,,,,,,,,,,,,,,,,,,,,,,,,,,,,,,,,,,,,,,,,,,,,,,,,,,,,,,,,
,,,,,,,,,5fbbc75f884010d82bf37532,26,Mężczyzna,2022-05-28_09h16.13.093,task,2021.1.4,Win32,59.99160118,628b806c463b948bc644b84f,6291cbf0609764fa4ccca5fd,,,,,,2,0,2,0,1,"X V Q F H G B L J M P D K C T S W R N Z
",,,,,,,,,,,,,,,,,,,,,,,,,,,,,,,,,,,,,,,,,,,,,,,,,,,,,,,,,,,,,,,,,,,,,,,,,,,,,,,,,,,,,,,,,,,,,
,,,,,,,,,5fbbc75f884010d82bf37532,26,Mężczyzna,2022-05-28_09h16.13.093,task,2021.1.4,Win32,59.99160118,628b806c463b948bc644b84f,6291cbf0609764fa4ccca5fd,,,,,,3,0,3,0,1,"X V Q F H G B L J M P D K C T S W R N Z
",,,,,,,,,,,,,,,,,,,,,,,,,,,,,,,,,,,,,,,,,,,,,,,,,,,,,,,,,,,,,,,,,,,,,,,,,,,,,,,,,,,,,,,,,,,,,
,,,,,,,,,5fbbc75f884010d82bf37532,26,Mężczyzna,2022-05-28_09h16.13.093,task,2021.1.4,Win32,59.99160118,628b806c463b948bc644b84f,6291cbf0609764fa4ccca5fd,,,,,,4,0,4,0,1,"X V Q F H G B L J M P D K C T S W R N Z
",,,,,,,,,,,,,,,,,,,,,,,,,,,,,,,,,,,,,,,,,,,,,,,,,,,,,,,,,,,,,,,,,,,,,,,,,,,,,,,,,,,,,,,,,,,,,
,,,,,,,,,5fbbc75f884010d82bf37532,26,Mężczyzna,2022-05-28_09h16.13.093,task,2021.1.4,Win32,59.99160118,628b806c463b948bc644b84f,6291cbf0609764fa4ccca5fd,,,,,,5,0,5,0,1,"X V Q F H G B L J M P D K C T S W R N Z
",,,,,,,,,,,,,,,,,,,,,,,,,,,,,,,,,,,,,,,,,,,,,,,,,,,,,,,,,,,,,,,,,,,,,,,,,,,,,,,,,,,,,,,,,,,,,
,,,,,,,,,5fbbc75f884010d82bf37532,26,Mężczyzna,2022-05-28_09h16.13.093,task,2021.1.4,Win32,59.99160118,628b806c463b948bc644b84f,6291cbf0609764fa4ccca5fd,,,,,,6,0,6,0,1,"X V Q F H G B L J M P D K C T S W R N Z
",,,,,,,,,,,,,,,,,,,,,,,,,,,,,,,,,,,,,,,,,,,,,,,,,,,,,,,,,,,,,,,,,,,,,,,,,,,,,,,,,,,,,,,,,,,,,
,,,,,,,,,5fbbc75f884010d82bf37532,26,Mężczyzna,2022-05-28_09h16.13.093,task,2021.1.4,Win32,59.99160118,628b806c463b948bc644b84f,6291cbf0609764fa4ccca5fd,,,,,,,,,,,,sdgqcjvg,"[""s"",""d"",""g"",""q"",""c"",""j"",""v"",""g""]","[0.7345000000000255,1.3087999999523845,2.812000000000012,3.6515000000000555,5.43070000004775,6.1407000000477865,6.529900000095381,7.46460000014315,8.05410000014308]",0,SDGQVCN,18,0,18,0,1,,,,,,,,,,,,,,,,,,,,,,,,,,,,,,,,,,,,,,,,,,,,,,,,,,,,,,,,,,,,,,,,,,,,,,,,,,,,,,,,,,,
,,,,,,,,,5fbbc75f884010d82bf37532,26,Mężczyzna,2022-05-28_09h16.13.093,task,2021.1.4,Win32,59.99160118,628b806c463b948bc644b84f,6291cbf0609764fa4ccca5fd,,,,,,,,,,,,,,,,,,,,,,space,7.454,5,"[""5""]",1,[4.34889999985694],[4.34889999985694],0,0,0,5,1,Practice,6,(4/2) + 3,5,,,,,,,,,,,,,,,,,,,,,,,,,,,,,,,,,,,,,,,,,,,,,,,,,,,,,,,,,,,,,,,,,,,
,,,,,,,,,5fbbc75f884010d82bf37532,26,Mężczyzna,2022-05-28_09h16.13.093,task,2021.1.4,Win32,59.99160118,628b806c463b948bc644b84f,6291cbf0609764fa4ccca5fd,,,,,,,,,,,,,,,,,,,,,,,,3,"[""3""]",1,[2.0387000000476974],"[4.34889999985694,2.0387000000476974]",0,1,1,3,1,Practice,4,(8/4) + 1,3,,,,,,,,,,,,,,,,,,,,,,,,,,,,,,,,,,,,,,,,,,,,,,,,,,,,,,,,,,,,,,,,,,,
,,,,,,,,,5fbbc75f884010d82bf37532,26,Mężczyzna,2022-05-28_09h16.13.093,task,2021.1.4,Win32,59.99160118,628b806c463b948bc644b84f,6291cbf0609764fa4ccca5fd,,,,,,,,,,,,,,,,,,,,,,,,4,"[""4""]",1,[2.449099999904547],"[4.34889999985694,2.0387000000476974,2.449099999904547]",0,2,2,4,1,Practice,5,(2x6) - 8,4,,,,,,,,,,,,,,,,,,,,,,,,,,,,,,,,,,,,,,,,,,,,,,,,,,,,,,,,,,,,,,,,,,,
,,,,,,,,,5fbbc75f884010d82bf37532,26,Mężczyzna,2022-05-28_09h16.13.093,task,2021.1.4,Win32,59.99160118,628b806c463b948bc644b84f,6291cbf0609764fa4ccca5fd,,,,,,,,,,,,,,,,,,,,,,,,1,"[""1""]",1,[1.8309000000954256],"[4.34889999985694,2.0387000000476974,2.449099999904547,1.8309000000954256]",0,3,3,1,1,Practice,2,(4x4) - 15,1,,,,,,,,,,,,,,,,,,,,,,,,,,,,,,,,,,,,,,,,,,,,,,,,,,,,,,,,,,,,,,,,,,,
,,,,,,,,,5fbbc75f884010d82bf37532,26,Mężczyzna,2022-05-28_09h16.13.093,task,2021.1.4,Win32,59.99160118,628b806c463b948bc644b84f,6291cbf0609764fa4ccca5fd,,,,,,,,,,,,,,,,,,,,,,,,9,"[""9""]",1,[2.2053999998569225],"[4.34889999985694,2.0387000000476974,2.449099999904547,1.8309000000954256,2.2053999998569225]",0,4,4,9,1,Practice,10,(20/2) - 1,9,,,,,,,,,,,,,,,,,,,,,,,,,,,,,,,,,,,,,,,,,,,,,,,,,,,,,,,,,,,,,,,,,,,
,,,,,,,,,5fbbc75f884010d82bf37532,26,Mężczyzna,2022-05-28_09h16.13.093,task,2021.1.4,Win32,59.99160118,628b806c463b948bc644b84f,6291cbf0609764fa4ccca5fd,,,,,,,,,,,,,,,,,,,,,,,,6,"[""6""]",1,[1.920699999809358],"[4.34889999985694,2.0387000000476974,2.449099999904547,1.8309000000954256,2.2053999998569225,1.920699999809358]",0,5,5,6,1,Practice,7,(25/5) + 1,6,,,,,,,,,,,,,,,,,,,,,,,,,,,,,,,,,,,,,,,,,,,,,,,,,,,,,,,,,,,,,,,,,,,
,,,,,,,,,5fbbc75f884010d82bf37532,26,Mężczyzna,2022-05-28_09h16.13.093,task,2021.1.4,Win32,59.99160118,628b806c463b948bc644b84f,6291cbf0609764fa4ccca5fd,,,,,,,,,,,,,,,,,,,,,,,,7,"[""7""]",1,[2.102599999904669],"[4.34889999985694,2.0387000000476974,2.449099999904547,1.8309000000954256,2.2053999998569225,1.920699999809358,2.102599999904669]",0,6,6,7,1,Practice,8,(5x5) - 18,7,,,,,,,,,,,,,,,,,,,,,,,,,,,,,,,,,,,,,,,,,,,,,,,,,,,,,,,,,,,,,,,,,,,
,,,,,,,,,5fbbc75f884010d82bf37532,26,Mężczyzna,2022-05-28_09h16.13.093,task,2021.1.4,Win32,59.99160118,628b806c463b948bc644b84f,6291cbf0609764fa4ccca5fd,,,,,,,,,,,,,,,,,,,,,,,,0,"[""0""]",1,[1.6728000001908185],"[4.34889999985694,2.0387000000476974,2.449099999904547,1.8309000000954256,2.2053999998569225,1.920699999809358,2.102599999904669,1.6728000001908185]",0,7,7,0,1,Practice,1,(3x3) -  9,0,,,,,,,,,,,,,,,,,,,,,,,,,,,,,,,,,,,,,,,,,,,,,,,,,,,,,,,,,,,,,,,,,,,
,,,,,,,,,5fbbc75f884010d82bf37532,26,Mężczyzna,2022-05-28_09h16.13.093,task,2021.1.4,Win32,59.99160118,628b806c463b948bc644b84f,6291cbf0609764fa4ccca5fd,,,,,,,,,,,,,,,,,,,,,,,,8,"[""8""]",1,[2.2298999998570253],"[4.34889999985694,2.0387000000476974,2.449099999904547,1.8309000000954256,2.2053999998569225,1.920699999809358,2.102599999904669,1.6728000001908185,2.2298999998570253]",0,8,8,8,1,Practice,9,(3x3) - 1,8,,,,,,,,,,,,,,,,,,,,,,,,,,,,,,,,,,,,,,,,,,,,,,,,,,,,,,,,,,,,,,,,,,,
,,,,,,,,,5fbbc75f884010d82bf37532,26,Mężczyzna,2022-05-28_09h16.13.093,task,2021.1.4,Win32,59.99160118,628b806c463b948bc644b84f,6291cbf0609764fa4ccca5fd,,,,,,,,,,,,,,,,,,,,,,,,2,"[""2""]",1,[1.5995000000000346],"[4.34889999985694,2.0387000000476974,2.449099999904547,1.8309000000954256,2.2053999998569225,1.920699999809358,2.102599999904669,1.6728000001908185,2.2298999998570253,1.5995000000000346]",0,9,9,2,1,Practice,3,(4x4) - 14,2,,,,,,,,,,,,,,,,,,,,,,,,,,,,,,,,,,,,,,,,,,,,,,,,,,,,,,,,,,,,,,,,,,,
,,,,,,,,,5fbbc75f884010d82bf37532,26,Mężczyzna,2022-05-28_09h16.13.093,task,2021.1.4,Win32,59.99160118,628b806c463b948bc644b84f,6291cbf0609764fa4ccca5fd,,,,,,,,,,,,,,,,,,,,,,,,,,,,,,,,,,,,,,1,22.3985,1.493233333,11.12751727,0.861298139,3.715382533,space,2.0185,0,0,0,0,1,,,,,,,,,,,,,,,,,,,,,,,,,,,,,,,,,,,,,,,,,,,,,,,,,,,,,,
,,,,,,,,,5fbbc75f884010d82bf37532,26,Mężczyzna,2022-05-28_09h16.13.093,task,2021.1.4,Win32,59.99160118,628b806c463b948bc644b84f,6291cbf0609764fa4ccca5fd,,,,,,,,,,,,,,,,,,,,,,,,5,,,,,,,,,,Practice,6,(4/2) + 3,5,,,,,,,,,,,,,,space,33.1091,"[""5""]",1,[3.3842999999523045],1,0,0,0,5,1,,,,,,,,,,,,,,,,,,,,,,,,,,,,,,,,,,,,,,,,,,,
,,,,,,,,,5fbbc75f884010d82bf37532,26,Mężczyzna,2022-05-28_09h16.13.093,task,2021.1.4,Win32,59.99160118,628b806c463b948bc644b84f,6291cbf0609764fa4ccca5fd,,,,,,,,,,,"X V Q F H G B L J M P D K C T S W R N Z
",,,,,,,,,,,,,,,,,,,,,,,,,,,,,,,,,,,,,,,,,,,,,,,,,,,0,0,0,0,1,,,,,,,,,,,,,,,,,,,,,,,,,,,,,,,,,,,,,,
,,,,,,,,,5fbbc75f884010d82bf37532,26,Mężczyzna,2022-05-28_09h16.13.093,task,2021.1.4,Win32,59.99160118,628b806c463b948bc644b84f,6291cbf0609764fa4ccca5fd,,,,,,,,,,,,,,,,,,,,,,,,,,,,,,,,,,Practice,8,(5x5) - 18,7,,,,,,,,,,,,,,,,,0,,0,0,0,0,7,1,,,,,,,,,,,,,,,,,,,,,,,,,,,,,,,,,,,,,,,,,,,
,,,,,,,,,5fbbc75f884010d82bf37532,26,Mężczyzna,2022-05-28_09h16.13.093,task,2021.1.4,Win32,59.99160118,628b806c463b948bc644b84f,6291cbf0609764fa4ccca5fd,,,,,,,,,,,,,,,,,,,,,,,,8,,,,,,,,,,Practice,9,(3x3) - 1,8,,,,,,,,,,,,,,,,"[""8""]",1,[2.4848000001907167],1,0,1,1,8,1,,,,,,,,,,,,,,,,,,,,,,,,,,,,,,,,,,,,,,,,,,,
,,,,,,,,,5fbbc75f884010d82bf37532,26,Mężczyzna,2022-05-28_09h16.13.093,task,2021.1.4,Win32,59.99160118,628b806c463b948bc644b84f,6291cbf0609764fa4ccca5fd,,,,,,,,,,,"X V Q F H G B L J M P D K C T S W R N Z
",,,,,,,,,,,,,,,,,,,,,,,,,,,,,,,,,,,,,,,,,,,,,,,,,,,1,0,1,0,1,,,,,,,,,,,,,,,,,,,,,,,,,,,,,,,,,,,,,,
,,,,,,,,,5fbbc75f884010d82bf37532,26,Mężczyzna,2022-05-28_09h16.13.093,task,2021.1.4,Win32,59.99160118,628b806c463b948bc644b84f,6291cbf0609764fa4ccca5fd,,,,,,,,,,,,,,,,,,,,,,,,,,,,,,,,,,,,,,,,,,,,,,,,,,,,,,,,,,,,,,,,,,,zk,"[""z"",""k""]",0,"[2.8787000000476155,3.2724999999999227,4.63710000014305]",1,0,0,0,0,1,,,,,,,,,,,,,,,,,,,,,,,,,,,,
,,,,,,,,,5fbbc75f884010d82bf37532,26,Mężczyzna,2022-05-28_09h16.13.093,task,2021.1.4,Win32,59.99160118,628b806c463b948bc644b84f,6291cbf0609764fa4ccca5fd,,,,,,,,,,,,,,,,,,,,,,,,1,,,,,,,,,,Practice,2,(4x4) - 15,1,,,,,,,,,,,,,,,,"[""1""]",1,[1.4901000001431157],1,0,0,0,1,1,,,,,,,,,,,,,,,,,,,,,,,,,,,,,,,,,,,,,,,,,,,
,,,,,,,,,5fbbc75f884010d82bf37532,26,Mężczyzna,2022-05-28_09h16.13.093,task,2021.1.4,Win32,59.99160118,628b806c463b948bc644b84f,6291cbf0609764fa4ccca5fd,,,,,,,,,,,"X V Q F H G B L J M P D K C T S W R N Z
",,,,,,,,,,,,,,,,,,,,,,,,,,,,,,,,,,,,,,,,,,,,,,,,,,,0,0,0,0,1,,,,,,,,,,,,,,,,,,,,,,,,,,,,,,,,,,,,,,
,,,,,,,,,5fbbc75f884010d82bf37532,26,Mężczyzna,2022-05-28_09h16.13.093,task,2021.1.4,Win32,59.99160118,628b806c463b948bc644b84f,6291cbf0609764fa4ccca5fd,,,,,,,,,,,,,,,,,,,,,,,,6,,,,,,,,,,Practice,7,(25/5) + 1,6,,,,,,,,,,,,,,,,"[""6""]",1,[1.8572000000476692],1,0,0,0,6,1,,,,,,,,,,,,,,,,,,,,,,,,,,,,,,,,,,,,,,,,,,,
,,,,,,,,,5fbbc75f884010d82bf37532,26,Mężczyzna,2022-05-28_09h16.13.093,task,2021.1.4,Win32,59.99160118,628b806c463b948bc644b84f,6291cbf0609764fa4ccca5fd,,,,,,,,,,,"X V Q F H G B L J M P D K C T S W R N Z
",,,,,,,,,,,,,,,,,,,,,,,,,,,,,,,,,,,,,,,,,,,,,,,,,,,1,0,1,0,1,,,,,,,,,,,,,,,,,,,,,,,,,,,,,,,,,,,,,,
,,,,,,,,,5fbbc75f884010d82bf37532,26,Mężczyzna,2022-05-28_09h16.13.093,task,2021.1.4,Win32,59.99160118,628b806c463b948bc644b84f,6291cbf0609764fa4ccca5fd,,,,,,,,,,,,,,,,,,,,,,,,,,,,,,,,,,,,,,,,,,,,,,,,,,,,,,,,,,,,,,,,,,,zn,"[""z"",""n""]",0,"[1.2216000001430984,1.513800000190713,2.385300000190796]",0,1,0,1,0,1,,,,,,,,,,,,,,,,,,,,,,,,,,,,
,,,,,,,,,5fbbc75f884010d82bf37532,26,Mężczyzna,2022-05-28_09h16.13.093,task,2021.1.4,Win32,59.99160118,628b806c463b948bc644b84f,6291cbf0609764fa4ccca5fd,,,,,,,,,,,,,,,,,,,,,,,,8,,,,,,,,,,Practice,9,(3x3) - 1,8,,,,,,,,,,,,,,,,"[""8""]",1,[2.4130999999046026],1,0,0,0,8,1,,,,,,,,,,,,,,,,,,,,,,,,,,,,,,,,,,,,,,,,,,,
,,,,,,,,,5fbbc75f884010d82bf37532,26,Mężczyzna,2022-05-28_09h16.13.093,task,2021.1.4,Win32,59.99160118,628b806c463b948bc644b84f,6291cbf0609764fa4ccca5fd,,,,,,,,,,,"X V Q F H G B L J M P D K C T S W R N Z
",,,,,,,,,,,,,,,,,,,,,,,,,,,,,,,,,,,,,,,,,,,,,,,,,,,0,0,0,0,1,,,,,,,,,,,,,,,,,,,,,,,,,,,,,,,,,,,,,,
,,,,,,,,,5fbbc75f884010d82bf37532,26,Mężczyzna,2022-05-28_09h16.13.093,task,2021.1.4,Win32,59.99160118,628b806c463b948bc644b84f,6291cbf0609764fa4ccca5fd,,,,,,,,,,,,,,,,,,,,,,,,3,,,,,,,,,,Practice,4,(8/4) + 1,3,,,,,,,,,,,,,,,,"[""3""]",1,[1.8032999999522872],1,0,0,0,3,1,,,,,,,,,,,,,,,,,,,,,,,,,,,,,,,,,,,,,,,,,,,
,,,,,,,,,5fbbc75f884010d82bf37532,26,Mężczyzna,2022-05-28_09h16.13.093,task,2021.1.4,Win32,59.99160118,628b806c463b948bc644b84f,6291cbf0609764fa4ccca5fd,,,,,,,,,,,"X V Q F H G B L J M P D K C T S W R N Z
",,,,,,,,,,,,,,,,,,,,,,,,,,,,,,,,,,,,,,,,,,,,,,,,,,,1,0,1,0,1,,,,,,,,,,,,,,,,,,,,,,,,,,,,,,,,,,,,,,
,,,,,,,,,5fbbc75f884010d82bf37532,26,Mężczyzna,2022-05-28_09h16.13.093,task,2021.1.4,Win32,59.99160118,628b806c463b948bc644b84f,6291cbf0609764fa4ccca5fd,,,,,,,,,,,,,,,,,,,,,,,,,,,,,,,,,,,,,,,,,,,,,,,,,,,,,,,,,,,,,,,,,,,jf,"[""j"",""f""]",0,"[1.825700000047732,2.607499999999959,3.2307000000477046]",1,2,0,2,0,1,,,,,,,,,,,,,,,,,,,,,,,,,,,,
,,,,,,,,,5fbbc75f884010d82bf37532,26,Mężczyzna,2022-05-28_09h16.13.093,task,2021.1.4,Win32,59.99160118,628b806c463b948bc644b84f,6291cbf0609764fa4ccca5fd,,,,,,,,,,,,,,,,,,,,,,,,9,,,,,,,,,,Practice,10,(20/2) - 1,9,,,,,,,,,,,,,,,,"[""9""]",1,[1.6052000000476028],1,0,0,0,9,1,,,,,,,,,,,,,,,,,,,,,,,,,,,,,,,,,,,,,,,,,,,
,,,,,,,,,5fbbc75f884010d82bf37532,26,Mężczyzna,2022-05-28_09h16.13.093,task,2021.1.4,Win32,59.99160118,628b806c463b948bc644b84f,6291cbf0609764fa4ccca5fd,,,,,,,,,,,"X V Q F H G B L J M P D K C T S W R N Z
",,,,,,,,,,,,,,,,,,,,,,,,,,,,,,,,,,,,,,,,,,,,,,,,,,,0,0,0,0,1,,,,,,,,,,,,,,,,,,,,,,,,,,,,,,,,,,,,,,
,,,,,,,,,5fbbc75f884010d82bf37532,26,Mężczyzna,2022-05-28_09h16.13.093,task,2021.1.4,Win32,59.99160118,628b806c463b948bc644b84f,6291cbf0609764fa4ccca5fd,,,,,,,,,,,,,,,,,,,,,,,,2,,,,,,,,,,Practice,3,(4x4) - 14,2,,,,,,,,,,,,,,,,"[""2""]",1,[1.532299999952329],1,0,0,0,2,1,,,,,,,,,,,,,,,,,,,,,,,,,,,,,,,,,,,,,,,,,,,
,,,,,,,,,5fbbc75f884010d82bf37532,26,Mężczyzna,2022-05-28_09h16.13.093,task,2021.1.4,Win32,59.99160118,628b806c463b948bc644b84f,6291cbf0609764fa4ccca5fd,,,,,,,,,,,"X V Q F H G B L J M P D K C T S W R N Z
",,,,,,,,,,,,,,,,,,,,,,,,,,,,,,,,,,,,,,,,,,,,,,,,,,,1,0,1,0,1,,,,,,,,,,,,,,,,,,,,,,,,,,,,,,,,,,,,,,
,,,,,,,,,5fbbc75f884010d82bf37532,26,Mężczyzna,2022-05-28_09h16.13.093,task,2021.1.4,Win32,59.99160118,628b806c463b948bc644b84f,6291cbf0609764fa4ccca5fd,,,,,,,,,,,,,,,,,,,,,,,,,,,,,,,,,,,,,,,,,,,,,,,,,,,,,,,,,,,,,,,,,,,bj,"[""b"",""j""]",0,"[1.481899999856978,1.9002000000476755,2.6550000000000864]",1,3,0,3,0,1,,,,,,,,,,,,,,,,,,,,,,,,,,,,
,,,,,,,,,5fbbc75f884010d82bf37532,26,Mężczyzna,2022-05-28_09h16.13.093,task,2021.1.4,Win32,59.99160118,628b806c463b948bc644b84f,6291cbf0609764fa4ccca5fd,,,,,,,,,,,,,,,,,,,,,,,,7,,,,,,,,,,Practice,8,(5x5) - 18,7,,,,,,,,,,,,,,,,"[""7""]",1,[1.5512000000477428],1,0,0,0,7,1,,,,,,,,,,,,,,,,,,,,,,,,,,,,,,,,,,,,,,,,,,,
,,,,,,,,,5fbbc75f884010d82bf37532,26,Mężczyzna,2022-05-28_09h16.13.093,task,2021.1.4,Win32,59.99160118,628b806c463b948bc644b84f,6291cbf0609764fa4ccca5fd,,,,,,,,,,,"X V Q F H G B L J M P D K C T S W R N Z
",,,,,,,,,,,,,,,,,,,,,,,,,,,,,,,,,,,,,,,,,,,,,,,,,,,0,0,0,0,1,,,,,,,,,,,,,,,,,,,,,,,,,,,,,,,,,,,,,,
,,,,,,,,,5fbbc75f884010d82bf37532,26,Mężczyzna,2022-05-28_09h16.13.093,task,2021.1.4,Win32,59.99160118,628b806c463b948bc644b84f,6291cbf0609764fa4ccca5fd,,,,,,,,,,,,,,,,,,,,,,,,4,,,,,,,,,,Practice,5,(2x6) - 8,4,,,,,,,,,,,,,,,,"[""4""]",1,[2.255400000095392],1,0,0,0,4,1,,,,,,,,,,,,,,,,,,,,,,,,,,,,,,,,,,,,,,,,,,,
,,,,,,,,,5fbbc75f884010d82bf37532,26,Mężczyzna,2022-05-28_09h16.13.093,task,2021.1.4,Win32,59.99160118,628b806c463b948bc644b84f,6291cbf0609764fa4ccca5fd,,,,,,,,,,,"X V Q F H G B L J M P D K C T S W R N Z
",,,,,,,,,,,,,,,,,,,,,,,,,,,,,,,,,,,,,,,,,,,,,,,,,,,1,0,1,0,1,,,,,,,,,,,,,,,,,,,,,,,,,,,,,,,,,,,,,,
,,,,,,,,,5fbbc75f884010d82bf37532,26,Mężczyzna,2022-05-28_09h16.13.093,task,2021.1.4,Win32,59.99160118,628b806c463b948bc644b84f,6291cbf0609764fa4ccca5fd,,,,,,,,,,,,,,,,,,,,,,,,,,,,,,,,,,,,,,,,,,,,,,,,,,,,,,,,,,,,,,,,,,,mw,"[""m"",""w""]",0,"[2.1877000000476983,2.411000000000058,3.1489000000954093]",1,4,0,4,0,1,,,,,,,,,,,,,,,,,,,,,,,,,,,,
,,,,,,,,,5fbbc75f884010d82bf37532,26,Mężczyzna,2022-05-28_09h16.13.093,task,2021.1.4,Win32,59.99160118,628b806c463b948bc644b84f,6291cbf0609764fa4ccca5fd,,,,,,,,,,,,,,,,,,,,,,,,3,,,,,,,,,,Task,3,(2x3) - 3,3,,,,,,,,,,,,,,,,,,,1,,,,,,,,,,,,,,,,,,,,,space,13.0069,"[""3""]",1,[2.4448999998569434],0,0,0,2,1,,,,,,,,,,,,,,,,,,
,,,,,,,,,5fbbc75f884010d82bf37532,26,Mężczyzna,2022-05-28_09h16.13.093,task,2021.1.4,Win32,59.99160118,628b806c463b948bc644b84f,6291cbf0609764fa4ccca5fd,,,,,,,,,,,"X V Q F H G B L J M P D K C T S W R N Z
",,,,,,,,,,,,,,,,,,,,,,,,,,,,,,,,,,,,,,,,,,,,,,,,,,,,,,,,,,,,,,,,,,,,,,,,,,,,0,0,0,0,1,,,,,,,,,,,,,
,,,,,,,,,5fbbc75f884010d82bf37532,26,Mężczyzna,2022-05-28_09h16.13.093,task,2021.1.4,Win32,59.99160118,628b806c463b948bc644b84f,6291cbf0609764fa4ccca5fd,,,,,,,,,,,,,,,,,,,,,,,,8,,,,,,,,,,Task,39,(5x3) - 7,8,,,,,,,,,,,,,,,,,,,1,,,,,,,,,,,,,,,,,,,,,,,"[""8""]",1,[2.421000000000049],0,0,0,38,1,,,,,,,,,,,,,,,,,,
,,,,,,,,,5fbbc75f884010d82bf37532,26,Mężczyzna,2022-05-28_09h16.13.093,task,2021.1.4,Win32,59.99160118,628b806c463b948bc644b84f,6291cbf0609764fa4ccca5fd,,,,,,,,,,,"X V Q F H G B L J M P D K C T S W R N Z
",,,,,,,,,,,,,,,,,,,,,,,,,,,,,,,,,,,,,,,,,,,,,,,,,,,,,,,,,,,,,,,,,,,,,,,,,,,,1,0,1,0,1,,,,,,,,,,,,,
,,,,,,,,,5fbbc75f884010d82bf37532,26,Mężczyzna,2022-05-28_09h16.13.093,task,2021.1.4,Win32,59.99160118,628b806c463b948bc644b84f,6291cbf0609764fa4ccca5fd,,,,,,,,,,,,,,,,,,,,,,,,,,,,,,,,,,,,,,,,,,,,,,,,,,,,,,,,,,,,,,,,,,,,,,,,,,,,,,,,,,,,,,,,,,,,zp,"[""z"",""p""]",0,"[1.2420999999045534,1.6009000000952938,2.615299999952299]",1,ZP,0,0,0,0,1,,
,,,,,,,,,5fbbc75f884010d82bf37532,26,Mężczyzna,2022-05-28_09h16.13.093,task,2021.1.4,Win32,59.99160118,628b806c463b948bc644b84f,6291cbf0609764fa4ccca5fd,,,,,,,,,,,,,,,,,,,,,,,,,,,,,,,,,,Task,31,(4/2) + 5,7,,,,,,,,,,,,,,,,,,,0,,,,,,,,,,,,,,,,,,,,,,,,0,,0,0,0,30,1,,,,,,,,,,,,,,,,,,
,,,,,,,,,5fbbc75f884010d82bf37532,26,Mężczyzna,2022-05-28_09h16.13.093,task,2021.1.4,Win32,59.99160118,628b806c463b948bc644b84f,6291cbf0609764fa4ccca5fd,,,,,,,,,,,,,,,,,,,,,,,,3,,,,,,,,,,Task,20,(18/9) + 1,3,,,,,,,,,,,,,,,,,,,1,,,,,,,,,,,,,,,,,,,,,,,"[""3""]",1,[1.8719999999999573],0,1,1,19,1,,,,,,,,,,,,,,,,,,
,,,,,,,,,5fbbc75f884010d82bf37532,26,Mężczyzna,2022-05-28_09h16.13.093,task,2021.1.4,Win32,59.99160118,628b806c463b948bc644b84f,6291cbf0609764fa4ccca5fd,,,,,,,,,,,"X V Q F H G B L J M P D K C T S W R N Z
",,,,,,,,,,,,,,,,,,,,,,,,,,,,,,,,,,,,,,,,,,,,,,,,,,,,,,,,,,,,,,,,,,,,,,,,,,,,0,0,0,0,1,,,,,,,,,,,,,
,,,,,,,,,5fbbc75f884010d82bf37532,26,Mężczyzna,2022-05-28_09h16.13.093,task,2021.1.4,Win32,59.99160118,628b806c463b948bc644b84f,6291cbf0609764fa4ccca5fd,,,,,,,,,,,,,,,,,,,,,,,,3,,,,,,,,,,Task,27,(3/3) + 2,3,,,,,,,,,,,,,,,,,,,1,,,,,,,,,,,,,,,,,,,,,,,"[""3""]",1,[1.9004000000953738],0,0,0,26,1,,,,,,,,,,,,,,,,,,
,,,,,,,,,5fbbc75f884010d82bf37532,26,Mężczyzna,2022-05-28_09h16.13.093,task,2021.1.4,Win32,59.99160118,628b806c463b948bc644b84f,6291cbf0609764fa4ccca5fd,,,,,,,,,,,"X V Q F H G B L J M P D K C T S W R N Z
",,,,,,,,,,,,,,,,,,,,,,,,,,,,,,,,,,,,,,,,,,,,,,,,,,,,,,,,,,,,,,,,,,,,,,,,,,,,1,0,1,0,1,,,,,,,,,,,,,
,,,,,,,,,5fbbc75f884010d82bf37532,26,Mężczyzna,2022-05-28_09h16.13.093,task,2021.1.4,Win32,59.99160118,628b806c463b948bc644b84f,6291cbf0609764fa4ccca5fd,,,,,,,,,,,,,,,,,,,,,,,,0,,,,,,,,,,Task,25,(10/5) - 2,0,,,,,,,,,,,,,,,,,,,1,,,,,,,,,,,,,,,,,,,,,,,"[""0""]",1,[2.2747000000476874],0,0,0,24,1,,,,,,,,,,,,,,,,,,
,,,,,,,,,5fbbc75f884010d82bf37532,26,Mężczyzna,2022-05-28_09h16.13.093,task,2021.1.4,Win32,59.99160118,628b806c463b948bc644b84f,6291cbf0609764fa4ccca5fd,,,,,,,,,,,"X V Q F H G B L J M P D K C T S W R N Z
",,,,,,,,,,,,,,,,,,,,,,,,,,,,,,,,,,,,,,,,,,,,,,,,,,,,,,,,,,,,,,,,,,,,,,,,,,,,2,0,2,0,1,,,,,,,,,,,,,
,,,,,,,,,5fbbc75f884010d82bf37532,26,Mężczyzna,2022-05-28_09h16.13.093,task,2021.1.4,Win32,59.99160118,628b806c463b948bc644b84f,6291cbf0609764fa4ccca5fd,,,,,,,,,,,,,,,,,,,,,,,,,,,,,,,,,,,,,,,,,,,,,,,,,,,,,,,,,,,,,,,,,,,,,,,,,,,,,,,,,,,,,,,,,,,,jts,"[""j"",""t"",""s""]",0,"[1.4138999998569943,1.7623999998569388,2.228399999856947,2.9167999999523317]",1,JTS,1,0,1,0,1,,
,,,,,,,,,5fbbc75f884010d82bf37532,26,Mężczyzna,2022-05-28_09h16.13.093,task,2021.1.4,Win32,59.99160118,628b806c463b948bc644b84f,6291cbf0609764fa4ccca5fd,,,,,,,,,,,,,,,,,,,,,,,,7,,,,,,,,,,Task,31,(4/2) + 5,7,,,,,,,,,,,,,,,,,,,1,,,,,,,,,,,,,,,,,,,,,,,"[""7""]",1,[1.8010000000000446],0,0,0,30,1,,,,,,,,,,,,,,,,,,
,,,,,,,,,5fbbc75f884010d82bf37532,26,Mężczyzna,2022-05-28_09h16.13.093,task,2021.1.4,Win32,59.99160118,628b806c463b948bc644b84f,6291cbf0609764fa4ccca5fd,,,,,,,,,,,"X V Q F H G B L J M P D K C T S W R N Z
",,,,,,,,,,,,,,,,,,,,,,,,,,,,,,,,,,,,,,,,,,,,,,,,,,,,,,,,,,,,,,,,,,,,,,,,,,,,0,0,0,0,1,,,,,,,,,,,,,
,,,,,,,,,5fbbc75f884010d82bf37532,26,Mężczyzna,2022-05-28_09h16.13.093,task,2021.1.4,Win32,59.99160118,628b806c463b948bc644b84f,6291cbf0609764fa4ccca5fd,,,,,,,,,,,,,,,,,,,,,,,,,,,,,,,,,,Task,16,(3x8) - 15,9,,,,,,,,,,,,,,,,,,,0,,,,,,,,,,,,,,,,,,,,,,,,0,,0,0,0,15,1,,,,,,,,,,,,,,,,,,
,,,,,,,,,5fbbc75f884010d82bf37532,26,Mężczyzna,2022-05-28_09h16.13.093,task,2021.1.4,Win32,59.99160118,628b806c463b948bc644b84f,6291cbf0609764fa4ccca5fd,,,,,,,,,,,,,,,,,,,,,,,,6,,,,,,,,,,Task,30,(6/3) + 4 ,6,,,,,,,,,,,,,,,,,,,1,,,,,,,,,,,,,,,,,,,,,,,"[""6""]",1,[1.9045000000000982],0,1,1,29,1,,,,,,,,,,,,,,,,,,
,,,,,,,,,5fbbc75f884010d82bf37532,26,Mężczyzna,2022-05-28_09h16.13.093,task,2021.1.4,Win32,59.99160118,628b806c463b948bc644b84f,6291cbf0609764fa4ccca5fd,,,,,,,,,,,"X V Q F H G B L J M P D K C T S W R N Z
",,,,,,,,,,,,,,,,,,,,,,,,,,,,,,,,,,,,,,,,,,,,,,,,,,,,,,,,,,,,,,,,,,,,,,,,,,,,1,0,1,0,1,,,,,,,,,,,,,
,,,,,,,,,5fbbc75f884010d82bf37532,26,Mężczyzna,2022-05-28_09h16.13.093,task,2021.1.4,Win32,59.99160118,628b806c463b948bc644b84f,6291cbf0609764fa4ccca5fd,,,,,,,,,,,,,,,,,,,,,,,,,,,,,,,,,,Task,29,(3x8) - 19 ,5,,,,,,,,,,,,,,,,,,,0,,,,,,,,,,,,,,,,,,,,,,,,0,,0,0,0,28,1,,,,,,,,,,,,,,,,,,
,,,,,,,,,5fbbc75f884010d82bf37532,26,Mężczyzna,2022-05-28_09h16.13.093,task,2021.1.4,Win32,59.99160118,628b806c463b948bc644b84f,6291cbf0609764fa4ccca5fd,,,,,,,,,,,,,,,,,,,,,,,,0,,,,,,,,,,Task,17,(2x3) - 6,0,,,,,,,,,,,,,,,,,,,1,,,,,,,,,,,,,,,,,,,,,,,"[""0""]",1,[2.2165999999047017],0,1,1,16,1,,,,,,,,,,,,,,,,,,
,,,,,,,,,5fbbc75f884010d82bf37532,26,Mężczyzna,2022-05-28_09h16.13.093,task,2021.1.4,Win32,59.99160118,628b806c463b948bc644b84f,6291cbf0609764fa4ccca5fd,,,,,,,,,,,"X V Q F H G B L J M P D K C T S W R N Z
",,,,,,,,,,,,,,,,,,,,,,,,,,,,,,,,,,,,,,,,,,,,,,,,,,,,,,,,,,,,,,,,,,,,,,,,,,,,2,0,2,0,1,,,,,,,,,,,,,
,,,,,,,,,5fbbc75f884010d82bf37532,26,Mężczyzna,2022-05-28_09h16.13.093,task,2021.1.4,Win32,59.99160118,628b806c463b948bc644b84f,6291cbf0609764fa4ccca5fd,,,,,,,,,,,,,,,,,,,,,,,,9,,,,,,,,,,Task,15,(3x7) - 13,8,,,,,,,,,,,,,,,,,,,0,,,,,,,,,,,,,,,,,,,,,,,"[""9""]",0,[2.211999999999989],0,0,0,14,1,,,,,,,,,,,,,,,,,,
,,,,,,,,,5fbbc75f884010d82bf37532,26,Mężczyzna,2022-05-28_09h16.13.093,task,2021.1.4,Win32,59.99160118,628b806c463b948bc644b84f,6291cbf0609764fa4ccca5fd,,,,,,,,,,,,,,,,,,,,,,,,6,,,,,,,,,,Task,21,(10/2) - 1,4,,,,,,,,,,,,,,,,,,,0,,,,,,,,,,,,,,,,,,,,,,,"[""6""]",0,[2.3769999999999527],0,1,1,20,1,,,,,,,,,,,,,,,,,,
,,,,,,,,,5fbbc75f884010d82bf37532,26,Mężczyzna,2022-05-28_09h16.13.093,task,2021.1.4,Win32,59.99160118,628b806c463b948bc644b84f,6291cbf0609764fa4ccca5fd,,,,,,,,,,,,,,,,,,,,,,,,1,,,,,,,,,,Task,34,(9/3) - 2,1,,,,,,,,,,,,,,,,,,,1,,,,,,,,,,,,,,,,,,,,,,,"[""1""]",1,[1.588400000095362],0,2,2,33,1,,,,,,,,,,,,,,,,,,
,,,,,,,,,5fbbc75f884010d82bf37532,26,Mężczyzna,2022-05-28_09h16.13.093,task,2021.1.4,Win32,59.99160118,628b806c463b948bc644b84f,6291cbf0609764fa4ccca5fd,,,,,,,,,,,"X V Q F H G B L J M P D K C T S W R N Z
",,,,,,,,,,,,,,,,,,,,,,,,,,,,,,,,,,,,,,,,,,,,,,,,,,,,,,,,,,,,,,,,,,,,,,,,,,,,3,0,3,0,1,,,,,,,,,,,,,
,,,,,,,,,5fbbc75f884010d82bf37532,26,Mężczyzna,2022-05-28_09h16.13.093,task,2021.1.4,Win32,59.99160118,628b806c463b948bc644b84f,6291cbf0609764fa4ccca5fd,,,,,,,,,,,,,,,,,,,,,,,,,,,,,,,,,,,,,,,,,,,,,,,,,,,,,,,,,,,,,,,,,,,,,,,,,,,,,,,,,,,,,,,,,,,,jth,"[""j"",""t"",""h""]",0,"[1.4487000000476655,1.7784000000954165,2.1637000000476974,2.959900000095331]",0,MJNH,2,0,2,0,1,,
,,,,,,,,,5fbbc75f884010d82bf37532,26,Mężczyzna,2022-05-28_09h16.13.093,task,2021.1.4,Win32,59.99160118,628b806c463b948bc644b84f,6291cbf0609764fa4ccca5fd,,,,,,,,,,,,,,,,,,,,,,,,3,,,,,,,,,,Task,26,(2x9) - 16,2,,,,,,,,,,,,,,,,,,,0,,,,,,,,,,,,,,,,,,,,,,,"[""3""]",0,[2.8165999999046107],0,0,0,25,1,,,,,,,,,,,,,,,,,,
,,,,,,,,,5fbbc75f884010d82bf37532,26,Mężczyzna,2022-05-28_09h16.13.093,task,2021.1.4,Win32,59.99160118,628b806c463b948bc644b84f,6291cbf0609764fa4ccca5fd,,,,,,,,,,,,,,,,,,,,,,,,6,,,,,,,,,,Task,5,(2x3) + 0,6,,,,,,,,,,,,,,,,,,,1,,,,,,,,,,,,,,,,,,,,,,,"[""6""]",1,[2.6772000000476055],0,1,1,4,1,,,,,,,,,,,,,,,,,,
,,,,,,,,,5fbbc75f884010d82bf37532,26,Mężczyzna,2022-05-28_09h16.13.093,task,2021.1.4,Win32,59.99160118,628b806c463b948bc644b84f,6291cbf0609764fa4ccca5fd,,,,,,,,,,,"X V Q F H G B L J M P D K C T S W R N Z
",,,,,,,,,,,,,,,,,,,,,,,,,,,,,,,,,,,,,,,,,,,,,,,,,,,,,,,,,,,,,,,,,,,,,,,,,,,,0,0,0,0,1,,,,,,,,,,,,,
,,,,,,,,,5fbbc75f884010d82bf37532,26,Mężczyzna,2022-05-28_09h16.13.093,task,2021.1.4,Win32,59.99160118,628b806c463b948bc644b84f,6291cbf0609764fa4ccca5fd,,,,,,,,,,,,,,,,,,,,,,,,8,,,,,,,,,,Task,32,(8/2) + 4,8,,,,,,,,,,,,,,,,,,,1,,,,,,,,,,,,,,,,,,,,,,,"[""8""]",1,[2.339700000047742],0,0,0,31,1,,,,,,,,,,,,,,,,,,
,,,,,,,,,5fbbc75f884010d82bf37532,26,Mężczyzna,2022-05-28_09h16.13.093,task,2021.1.4,Win32,59.99160118,628b806c463b948bc644b84f,6291cbf0609764fa4ccca5fd,,,,,,,,,,,"X V Q F H G B L J M P D K C T S W R N Z
",,,,,,,,,,,,,,,,,,,,,,,,,,,,,,,,,,,,,,,,,,,,,,,,,,,,,,,,,,,,,,,,,,,,,,,,,,,,1,0,1,0,1,,,,,,,,,,,,,
,,,,,,,,,5fbbc75f884010d82bf37532,26,Mężczyzna,2022-05-28_09h16.13.093,task,2021.1.4,Win32,59.99160118,628b806c463b948bc644b84f,6291cbf0609764fa4ccca5fd,,,,,,,,,,,,,,,,,,,,,,,,5,,,,,,,,,,Task,29,(3x8) - 19 ,5,,,,,,,,,,,,,,,,,,,1,,,,,,,,,,,,,,,,,,,,,,,"[""5""]",1,[2.63250000000005],0,0,0,28,1,,,,,,,,,,,,,,,,,,
,,,,,,,,,5fbbc75f884010d82bf37532,26,Mężczyzna,2022-05-28_09h16.13.093,task,2021.1.4,Win32,59.99160118,628b806c463b948bc644b84f,6291cbf0609764fa4ccca5fd,,,,,,,,,,,"X V Q F H G B L J M P D K C T S W R N Z
",,,,,,,,,,,,,,,,,,,,,,,,,,,,,,,,,,,,,,,,,,,,,,,,,,,,,,,,,,,,,,,,,,,,,,,,,,,,2,0,2,0,1,,,,,,,,,,,,,
,,,,,,,,,5fbbc75f884010d82bf37532,26,Mężczyzna,2022-05-28_09h16.13.093,task,2021.1.4,Win32,59.99160118,628b806c463b948bc644b84f,6291cbf0609764fa4ccca5fd,,,,,,,,,,,,,,,,,,,,,,,,3,,,,,,,,,,Task,26,(2x9) - 16,2,,,,,,,,,,,,,,,,,,,0,,,,,,,,,,,,,,,,,,,,,,,"[""3""]",0,[2.014400000095293],0,0,0,25,1,,,,,,,,,,,,,,,,,,
,,,,,,,,,5fbbc75f884010d82bf37532,26,Mężczyzna,2022-05-28_09h16.13.093,task,2021.1.4,Win32,59.99160118,628b806c463b948bc644b84f,6291cbf0609764fa4ccca5fd,,,,,,,,,,,,,,,,,,,,,,,,6,,,,,,,,,,Task,13,(3x4) - 6,6,,,,,,,,,,,,,,,,,,,1,,,,,,,,,,,,,,,,,,,,,,,"[""6""]",1,[1.9819000000952656],0,1,1,12,1,,,,,,,,,,,,,,,,,,
,,,,,,,,,5fbbc75f884010d82bf37532,26,Mężczyzna,2022-05-28_09h16.13.093,task,2021.1.4,Win32,59.99160118,628b806c463b948bc644b84f,6291cbf0609764fa4ccca5fd,,,,,,,,,,,"X V Q F H G B L J M P D K C T S W R N Z
",,,,,,,,,,,,,,,,,,,,,,,,,,,,,,,,,,,,,,,,,,,,,,,,,,,,,,,,,,,,,,,,,,,,,,,,,,,,3,0,3,0,1,,,,,,,,,,,,,
,,,,,,,,,5fbbc75f884010d82bf37532,26,Mężczyzna,2022-05-28_09h16.13.093,task,2021.1.4,Win32,59.99160118,628b806c463b948bc644b84f,6291cbf0609764fa4ccca5fd,,,,,,,,,,,,,,,,,,,,,,,,,,,,,,,,,,,,,,,,,,,,,,,,,,,,,,,,,,,,,,,,,,,,,,,,,,,,,,,,,,,,,,,,,,,,jmmc,"[""j"",""m"",""m"",""c""]",0,"[2.885799999952269,3.2714000000953547,3.4789000000953365,4.099999999999909,4.767299999952229]",0,MNMC,3,0,3,0,1,,
,,,,,,,,,5fbbc75f884010d82bf37532,26,Mężczyzna,2022-05-28_09h16.13.093,task,2021.1.4,Win32,59.99160118,628b806c463b948bc644b84f,6291cbf0609764fa4ccca5fd,,,,,,,,,,,,,,,,,,,,,,,,,,,,,,,,,,,,,,,,,,,,,,,,,,,,,,,,,,,,,,,,,,,,,,,,,,,,,,,,,,,,,,,,,,,,,,,,,,,,,,,space,2.208
