key_resp_15.keys,key_resp_15.rt,key_resp_13.keys,key_resp_13.corr,key_resp_13.rt,ranodm_loop.thisRepN,ranodm_loop.thisTrialN,ranodm_loop.thisN,ranodm_loop.thisIndex,ranodm_loop.ran,participant,Wiek*,Płeć,date,expName,psychopyVersion,OS,frameRate,study_id,session,key_resp_16.keys,key_resp_16.rt,key_resp_4.keys,key_resp_4.rt,next_letter.thisRepN,next_letter.thisTrialN,next_letter.thisN,next_letter.thisIndex,next_letter.ran,letter,simple_recall,key_resp_5.keys,key_resp_5.rt,simple_recall_corr,simple_recall_corrkeys,next_level.thisRepN,next_level.thisTrialN,next_level.thisN,next_level.thisIndex,next_level.ran,key_resp_2.keys,key_resp_2.rt,digit_answer,key_resp.keys,key_resp.corr,key_resp.rt,RT_list,next_equation.thisRepN,next_equation.thisTrialN,next_equation.thisN,next_equation.thisIndex,next_equation.ran,Task,Trial,Problem,Operation_answer,processing_score,sumRT,meanRT,sumdiff,sd,RT,key_resp_3.keys,key_resp_3.rt,repeat_practice.thisRepN,repeat_practice.thisTrialN,repeat_practice.thisN,repeat_practice.thisIndex,repeat_practice.ran,key_resp_6.keys,key_resp_6.rt,key_resp_11.keys,key_resp_11.corr,key_resp_11.rt,operation_correct,repeat_if_wrong_prac.thisRepN,repeat_if_wrong_prac.thisTrialN,repeat_if_wrong_prac.thisN,repeat_if_wrong_prac.thisIndex,repeat_if_wrong_prac.ran,span_size_prac.thisRepN,span_size_prac.thisTrialN,span_size_prac.thisN,span_size_prac.thisIndex,span_size_prac.ran,complex_recall_practice,key_resp_9.keys,key_resp_9.corr,key_resp_9.rt,complex_prac_corr,span_recall_prac.thisRepN,span_recall_prac.thisTrialN,span_recall_prac.thisN,span_recall_prac.thisIndex,span_recall_prac.ran,key_resp_10.keys,key_resp_10.rt,key_resp_7.keys,key_resp_7.corr,key_resp_7.rt,repeat_if_wrong.thisRepN,repeat_if_wrong.thisTrialN,repeat_if_wrong.thisN,repeat_if_wrong.thisIndex,repeat_if_wrong.ran,span_size.thisRepN,span_size.thisTrialN,span_size.thisN,span_size.thisIndex,span_size.ran,complex_recall,key_resp_8.keys,key_resp_8.corr,key_resp_8.rt,complex_recall_corr,complex_recall_corrkeys,span_recall.thisRepN,span_recall.thisTrialN,span_recall.thisN,span_recall.thisIndex,span_recall.ran,key_resp_12.keys,key_resp_12.rt
space,0.8433,"[""comma""]",0,[1.5045999999940385],0,0,0,0,1,5fc9009e38ffaa3301b69c16,22,Kobieta,2022-05-28_09h37.49.414,task,2021.1.4,Win32,59.96282305,628b806c463b948bc644b84f,6291cfd36a2eb044c52c03e7,,,,,,,,,,,,,,,,,,,,,,,,,,,,,,,,,,,,,,,,,,,,,,,,,,,,,,,,,,,,,,,,,,,,,,,,,,,,,,,,,,,,,,,,,,,,,,,,,,,,,,,
,,"[""period""]",0,[0.9053000000119198],1,0,1,0,1,5fc9009e38ffaa3301b69c16,22,Kobieta,2022-05-28_09h37.49.414,task,2021.1.4,Win32,59.96282305,628b806c463b948bc644b84f,6291cfd36a2eb044c52c03e7,,,,,,,,,,,,,,,,,,,,,,,,,,,,,,,,,,,,,,,,,,,,,,,,,,,,,,,,,,,,,,,,,,,,,,,,,,,,,,,,,,,,,,,,,,,,,,,,,,,,,,,
,,"[""period""]",0,[0.423700000017881],2,0,2,0,1,5fc9009e38ffaa3301b69c16,22,Kobieta,2022-05-28_09h37.49.414,task,2021.1.4,Win32,59.96282305,628b806c463b948bc644b84f,6291cfd36a2eb044c52c03e7,,,,,,,,,,,,,,,,,,,,,,,,,,,,,,,,,,,,,,,,,,,,,,,,,,,,,,,,,,,,,,,,,,,,,,,,,,,,,,,,,,,,,,,,,,,,,,,,,,,,,,,
,,"[""comma""]",0,[0.3194000000059596],3,0,3,0,1,5fc9009e38ffaa3301b69c16,22,Kobieta,2022-05-28_09h37.49.414,task,2021.1.4,Win32,59.96282305,628b806c463b948bc644b84f,6291cfd36a2eb044c52c03e7,,,,,,,,,,,,,,,,,,,,,,,,,,,,,,,,,,,,,,,,,,,,,,,,,,,,,,,,,,,,,,,,,,,,,,,,,,,,,,,,,,,,,,,,,,,,,,,,,,,,,,,
,,"[""period"",""comma""]",0,"[0.2680000000000007,1.9547000000178834]",4,0,4,0,1,5fc9009e38ffaa3301b69c16,22,Kobieta,2022-05-28_09h37.49.414,task,2021.1.4,Win32,59.96282305,628b806c463b948bc644b84f,6291cfd36a2eb044c52c03e7,,,,,,,,,,,,,,,,,,,,,,,,,,,,,,,,,,,,,,,,,,,,,,,,,,,,,,,,,,,,,,,,,,,,,,,,,,,,,,,,,,,,,,,,,,,,,,,,,,,,,,,
,,,0,,5,0,5,0,1,5fc9009e38ffaa3301b69c16,22,Kobieta,2022-05-28_09h37.49.414,task,2021.1.4,Win32,59.96282305,628b806c463b948bc644b84f,6291cfd36a2eb044c52c03e7,,,,,,,,,,,,,,,,,,,,,,,,,,,,,,,,,,,,,,,,,,,,,,,,,,,,,,,,,,,,,,,,,,,,,,,,,,,,,,,,,,,,,,,,,,,,,,,,,,,,,,,
,,"[""period""]",0,[0.2889999999999979],6,0,6,0,1,5fc9009e38ffaa3301b69c16,22,Kobieta,2022-05-28_09h37.49.414,task,2021.1.4,Win32,59.96282305,628b806c463b948bc644b84f,6291cfd36a2eb044c52c03e7,,,,,,,,,,,,,,,,,,,,,,,,,,,,,,,,,,,,,,,,,,,,,,,,,,,,,,,,,,,,,,,,,,,,,,,,,,,,,,,,,,,,,,,,,,,,,,,,,,,,,,,
,,"[""comma""]",0,[0.3071999999880788],7,0,7,0,1,5fc9009e38ffaa3301b69c16,22,Kobieta,2022-05-28_09h37.49.414,task,2021.1.4,Win32,59.96282305,628b806c463b948bc644b84f,6291cfd36a2eb044c52c03e7,,,,,,,,,,,,,,,,,,,,,,,,,,,,,,,,,,,,,,,,,,,,,,,,,,,,,,,,,,,,,,,,,,,,,,,,,,,,,,,,,,,,,,,,,,,,,,,,,,,,,,,
,,"[""period""]",0,[0.2712999999821193],8,0,8,0,1,5fc9009e38ffaa3301b69c16,22,Kobieta,2022-05-28_09h37.49.414,task,2021.1.4,Win32,59.96282305,628b806c463b948bc644b84f,6291cfd36a2eb044c52c03e7,,,,,,,,,,,,,,,,,,,,,,,,,,,,,,,,,,,,,,,,,,,,,,,,,,,,,,,,,,,,,,,,,,,,,,,,,,,,,,,,,,,,,,,,,,,,,,,,,,,,,,,
,,"[""comma""]",0,[0.2870999999940409],9,0,9,0,1,5fc9009e38ffaa3301b69c16,22,Kobieta,2022-05-28_09h37.49.414,task,2021.1.4,Win32,59.96282305,628b806c463b948bc644b84f,6291cfd36a2eb044c52c03e7,,,,,,,,,,,,,,,,,,,,,,,,,,,,,,,,,,,,,,,,,,,,,,,,,,,,,,,,,,,,,,,,,,,,,,,,,,,,,,,,,,,,,,,,,,,,,,,,,,,,,,,
,,"[""period""]",0,[0.3674000000059543],10,0,10,0,1,5fc9009e38ffaa3301b69c16,22,Kobieta,2022-05-28_09h37.49.414,task,2021.1.4,Win32,59.96282305,628b806c463b948bc644b84f,6291cfd36a2eb044c52c03e7,,,,,,,,,,,,,,,,,,,,,,,,,,,,,,,,,,,,,,,,,,,,,,,,,,,,,,,,,,,,,,,,,,,,,,,,,,,,,,,,,,,,,,,,,,,,,,,,,,,,,,,
,,"[""comma""]",0,[0.28670000001788054],11,0,11,0,1,5fc9009e38ffaa3301b69c16,22,Kobieta,2022-05-28_09h37.49.414,task,2021.1.4,Win32,59.96282305,628b806c463b948bc644b84f,6291cfd36a2eb044c52c03e7,,,,,,,,,,,,,,,,,,,,,,,,,,,,,,,,,,,,,,,,,,,,,,,,,,,,,,,,,,,,,,,,,,,,,,,,,,,,,,,,,,,,,,,,,,,,,,,,,,,,,,,
,,"[""period""]",0,[0.40280000001192207],12,0,12,0,1,5fc9009e38ffaa3301b69c16,22,Kobieta,2022-05-28_09h37.49.414,task,2021.1.4,Win32,59.96282305,628b806c463b948bc644b84f,6291cfd36a2eb044c52c03e7,,,,,,,,,,,,,,,,,,,,,,,,,,,,,,,,,,,,,,,,,,,,,,,,,,,,,,,,,,,,,,,,,,,,,,,,,,,,,,,,,,,,,,,,,,,,,,,,,,,,,,,
,,"[""comma""]",0,[0.2710000000000008],13,0,13,0,1,5fc9009e38ffaa3301b69c16,22,Kobieta,2022-05-28_09h37.49.414,task,2021.1.4,Win32,59.96282305,628b806c463b948bc644b84f,6291cfd36a2eb044c52c03e7,,,,,,,,,,,,,,,,,,,,,,,,,,,,,,,,,,,,,,,,,,,,,,,,,,,,,,,,,,,,,,,,,,,,,,,,,,,,,,,,,,,,,,,,,,,,,,,,,,,,,,,
,,"[""period""]",0,[0.4198999999761597],14,0,14,0,1,5fc9009e38ffaa3301b69c16,22,Kobieta,2022-05-28_09h37.49.414,task,2021.1.4,Win32,59.96282305,628b806c463b948bc644b84f,6291cfd36a2eb044c52c03e7,,,,,,,,,,,,,,,,,,,,,,,,,,,,,,,,,,,,,,,,,,,,,,,,,,,,,,,,,,,,,,,,,,,,,,,,,,,,,,,,,,,,,,,,,,,,,,,,,,,,,,,
,,"[""comma""]",0,[0.3404999999999987],15,0,15,0,1,5fc9009e38ffaa3301b69c16,22,Kobieta,2022-05-28_09h37.49.414,task,2021.1.4,Win32,59.96282305,628b806c463b948bc644b84f,6291cfd36a2eb044c52c03e7,,,,,,,,,,,,,,,,,,,,,,,,,,,,,,,,,,,,,,,,,,,,,,,,,,,,,,,,,,,,,,,,,,,,,,,,,,,,,,,,,,,,,,,,,,,,,,,,,,,,,,,
,,"[""period""]",0,[0.28419999998807555],16,0,16,0,1,5fc9009e38ffaa3301b69c16,22,Kobieta,2022-05-28_09h37.49.414,task,2021.1.4,Win32,59.96282305,628b806c463b948bc644b84f,6291cfd36a2eb044c52c03e7,,,,,,,,,,,,,,,,,,,,,,,,,,,,,,,,,,,,,,,,,,,,,,,,,,,,,,,,,,,,,,,,,,,,,,,,,,,,,,,,,,,,,,,,,,,,,,,,,,,,,,,
,,"[""period""]",0,[0.3237999999821213],17,0,17,0,1,5fc9009e38ffaa3301b69c16,22,Kobieta,2022-05-28_09h37.49.414,task,2021.1.4,Win32,59.96282305,628b806c463b948bc644b84f,6291cfd36a2eb044c52c03e7,,,,,,,,,,,,,,,,,,,,,,,,,,,,,,,,,,,,,,,,,,,,,,,,,,,,,,,,,,,,,,,,,,,,,,,,,,,,,,,,,,,,,,,,,,,,,,,,,,,,,,,
,,"[""comma""]",0,[0.3474999999999966],18,0,18,0,1,5fc9009e38ffaa3301b69c16,22,Kobieta,2022-05-28_09h37.49.414,task,2021.1.4,Win32,59.96282305,628b806c463b948bc644b84f,6291cfd36a2eb044c52c03e7,,,,,,,,,,,,,,,,,,,,,,,,,,,,,,,,,,,,,,,,,,,,,,,,,,,,,,,,,,,,,,,,,,,,,,,,,,,,,,,,,,,,,,,,,,,,,,,,,,,,,,,
,,"[""comma""]",0,[0.31799999999999784],19,0,19,0,1,5fc9009e38ffaa3301b69c16,22,Kobieta,2022-05-28_09h37.49.414,task,2021.1.4,Win32,59.96282305,628b806c463b948bc644b84f,6291cfd36a2eb044c52c03e7,,,,,,,,,,,,,,,,,,,,,,,,,,,,,,,,,,,,,,,,,,,,,,,,,,,,,,,,,,,,,,,,,,,,,,,,,,,,,,,,,,,,,,,,,,,,,,,,,,,,,,,
,,"[""period""]",0,[0.30119999998807856],20,0,20,0,1,5fc9009e38ffaa3301b69c16,22,Kobieta,2022-05-28_09h37.49.414,task,2021.1.4,Win32,59.96282305,628b806c463b948bc644b84f,6291cfd36a2eb044c52c03e7,,,,,,,,,,,,,,,,,,,,,,,,,,,,,,,,,,,,,,,,,,,,,,,,,,,,,,,,,,,,,,,,,,,,,,,,,,,,,,,,,,,,,,,,,,,,,,,,,,,,,,,
,,"[""period""]",0,[0.36769999998808345],21,0,21,0,1,5fc9009e38ffaa3301b69c16,22,Kobieta,2022-05-28_09h37.49.414,task,2021.1.4,Win32,59.96282305,628b806c463b948bc644b84f,6291cfd36a2eb044c52c03e7,,,,,,,,,,,,,,,,,,,,,,,,,,,,,,,,,,,,,,,,,,,,,,,,,,,,,,,,,,,,,,,,,,,,,,,,,,,,,,,,,,,,,,,,,,,,,,,,,,,,,,,
,,"[""period""]",0,[0.3038000000119254],22,0,22,0,1,5fc9009e38ffaa3301b69c16,22,Kobieta,2022-05-28_09h37.49.414,task,2021.1.4,Win32,59.96282305,628b806c463b948bc644b84f,6291cfd36a2eb044c52c03e7,,,,,,,,,,,,,,,,,,,,,,,,,,,,,,,,,,,,,,,,,,,,,,,,,,,,,,,,,,,,,,,,,,,,,,,,,,,,,,,,,,,,,,,,,,,,,,,,,,,,,,,
,,"[""period"",""period""]",0,"[0.2889999999999944,1.4533000000119145]",23,0,23,0,1,5fc9009e38ffaa3301b69c16,22,Kobieta,2022-05-28_09h37.49.414,task,2021.1.4,Win32,59.96282305,628b806c463b948bc644b84f,6291cfd36a2eb044c52c03e7,,,,,,,,,,,,,,,,,,,,,,,,,,,,,,,,,,,,,,,,,,,,,,,,,,,,,,,,,,,,,,,,,,,,,,,,,,,,,,,,,,,,,,,,,,,,,,,,,,,,,,,
,,,0,,24,0,24,0,1,5fc9009e38ffaa3301b69c16,22,Kobieta,2022-05-28_09h37.49.414,task,2021.1.4,Win32,59.96282305,628b806c463b948bc644b84f,6291cfd36a2eb044c52c03e7,,,,,,,,,,,,,,,,,,,,,,,,,,,,,,,,,,,,,,,,,,,,,,,,,,,,,,,,,,,,,,,,,,,,,,,,,,,,,,,,,,,,,,,,,,,,,,,,,,,,,,,
,,"[""comma""]",0,[0.3530999999940434],25,0,25,0,1,5fc9009e38ffaa3301b69c16,22,Kobieta,2022-05-28_09h37.49.414,task,2021.1.4,Win32,59.96282305,628b806c463b948bc644b84f,6291cfd36a2eb044c52c03e7,,,,,,,,,,,,,,,,,,,,,,,,,,,,,,,,,,,,,,,,,,,,,,,,,,,,,,,,,,,,,,,,,,,,,,,,,,,,,,,,,,,,,,,,,,,,,,,,,,,,,,,
,,"[""comma""]",0,[0.28889999997615234],26,0,26,0,1,5fc9009e38ffaa3301b69c16,22,Kobieta,2022-05-28_09h37.49.414,task,2021.1.4,Win32,59.96282305,628b806c463b948bc644b84f,6291cfd36a2eb044c52c03e7,,,,,,,,,,,,,,,,,,,,,,,,,,,,,,,,,,,,,,,,,,,,,,,,,,,,,,,,,,,,,,,,,,,,,,,,,,,,,,,,,,,,,,,,,,,,,,,,,,,,,,,
,,"[""period""]",0,[0.5231000000238453],27,0,27,0,1,5fc9009e38ffaa3301b69c16,22,Kobieta,2022-05-28_09h37.49.414,task,2021.1.4,Win32,59.96282305,628b806c463b948bc644b84f,6291cfd36a2eb044c52c03e7,,,,,,,,,,,,,,,,,,,,,,,,,,,,,,,,,,,,,,,,,,,,,,,,,,,,,,,,,,,,,,,,,,,,,,,,,,,,,,,,,,,,,,,,,,,,,,,,,,,,,,,
,,"[""period""]",0,[0.45019999998807236],28,0,28,0,1,5fc9009e38ffaa3301b69c16,22,Kobieta,2022-05-28_09h37.49.414,task,2021.1.4,Win32,59.96282305,628b806c463b948bc644b84f,6291cfd36a2eb044c52c03e7,,,,,,,,,,,,,,,,,,,,,,,,,,,,,,,,,,,,,,,,,,,,,,,,,,,,,,,,,,,,,,,,,,,,,,,,,,,,,,,,,,,,,,,,,,,,,,,,,,,,,,,
,,"[""comma""]",0,[1.6578000000119175],29,0,29,0,1,5fc9009e38ffaa3301b69c16,22,Kobieta,2022-05-28_09h37.49.414,task,2021.1.4,Win32,59.96282305,628b806c463b948bc644b84f,6291cfd36a2eb044c52c03e7,,,,,,,,,,,,,,,,,,,,,,,,,,,,,,,,,,,,,,,,,,,,,,,,,,,,,,,,,,,,,,,,,,,,,,,,,,,,,,,,,,,,,,,,,,,,,,,,,,,,,,,
,,,0,,30,0,30,0,1,5fc9009e38ffaa3301b69c16,22,Kobieta,2022-05-28_09h37.49.414,task,2021.1.4,Win32,59.96282305,628b806c463b948bc644b84f,6291cfd36a2eb044c52c03e7,,,,,,,,,,,,,,,,,,,,,,,,,,,,,,,,,,,,,,,,,,,,,,,,,,,,,,,,,,,,,,,,,,,,,,,,,,,,,,,,,,,,,,,,,,,,,,,,,,,,,,,
,,"[""comma""]",0,[1.2330999999940389],31,0,31,0,1,5fc9009e38ffaa3301b69c16,22,Kobieta,2022-05-28_09h37.49.414,task,2021.1.4,Win32,59.96282305,628b806c463b948bc644b84f,6291cfd36a2eb044c52c03e7,,,,,,,,,,,,,,,,,,,,,,,,,,,,,,,,,,,,,,,,,,,,,,,,,,,,,,,,,,,,,,,,,,,,,,,,,,,,,,,,,,,,,,,,,,,,,,,,,,,,,,,
,,"[""period""]",0,[0.4437999999821187],32,0,32,0,1,5fc9009e38ffaa3301b69c16,22,Kobieta,2022-05-28_09h37.49.414,task,2021.1.4,Win32,59.96282305,628b806c463b948bc644b84f,6291cfd36a2eb044c52c03e7,,,,,,,,,,,,,,,,,,,,,,,,,,,,,,,,,,,,,,,,,,,,,,,,,,,,,,,,,,,,,,,,,,,,,,,,,,,,,,,,,,,,,,,,,,,,,,,,,,,,,,,
,,"[""comma""]",0,[0.4074000000059499],33,0,33,0,1,5fc9009e38ffaa3301b69c16,22,Kobieta,2022-05-28_09h37.49.414,task,2021.1.4,Win32,59.96282305,628b806c463b948bc644b84f,6291cfd36a2eb044c52c03e7,,,,,,,,,,,,,,,,,,,,,,,,,,,,,,,,,,,,,,,,,,,,,,,,,,,,,,,,,,,,,,,,,,,,,,,,,,,,,,,,,,,,,,,,,,,,,,,,,,,,,,,
,,"[""period""]",0,[0.30169999998807384],34,0,34,0,1,5fc9009e38ffaa3301b69c16,22,Kobieta,2022-05-28_09h37.49.414,task,2021.1.4,Win32,59.96282305,628b806c463b948bc644b84f,6291cfd36a2eb044c52c03e7,,,,,,,,,,,,,,,,,,,,,,,,,,,,,,,,,,,,,,,,,,,,,,,,,,,,,,,,,,,,,,,,,,,,,,,,,,,,,,,,,,,,,,,,,,,,,,,,,,,,,,,
,,"[""comma""]",0,[0.31729999998211156],35,0,35,0,1,5fc9009e38ffaa3301b69c16,22,Kobieta,2022-05-28_09h37.49.414,task,2021.1.4,Win32,59.96282305,628b806c463b948bc644b84f,6291cfd36a2eb044c52c03e7,,,,,,,,,,,,,,,,,,,,,,,,,,,,,,,,,,,,,,,,,,,,,,,,,,,,,,,,,,,,,,,,,,,,,,,,,,,,,,,,,,,,,,,,,,,,,,,,,,,,,,,
,,"[""comma"",""period""]",0,"[0.4146999999880876,1.8160999999940515]",36,0,36,0,1,5fc9009e38ffaa3301b69c16,22,Kobieta,2022-05-28_09h37.49.414,task,2021.1.4,Win32,59.96282305,628b806c463b948bc644b84f,6291cfd36a2eb044c52c03e7,,,,,,,,,,,,,,,,,,,,,,,,,,,,,,,,,,,,,,,,,,,,,,,,,,,,,,,,,,,,,,,,,,,,,,,,,,,,,,,,,,,,,,,,,,,,,,,,,,,,,,,
,,"[""period""]",0,[0.787699999988078],37,0,37,0,1,5fc9009e38ffaa3301b69c16,22,Kobieta,2022-05-28_09h37.49.414,task,2021.1.4,Win32,59.96282305,628b806c463b948bc644b84f,6291cfd36a2eb044c52c03e7,,,,,,,,,,,,,,,,,,,,,,,,,,,,,,,,,,,,,,,,,,,,,,,,,,,,,,,,,,,,,,,,,,,,,,,,,,,,,,,,,,,,,,,,,,,,,,,,,,,,,,,
,,"[""comma""]",0,[0.5015000000000072],38,0,38,0,1,5fc9009e38ffaa3301b69c16,22,Kobieta,2022-05-28_09h37.49.414,task,2021.1.4,Win32,59.96282305,628b806c463b948bc644b84f,6291cfd36a2eb044c52c03e7,,,,,,,,,,,,,,,,,,,,,,,,,,,,,,,,,,,,,,,,,,,,,,,,,,,,,,,,,,,,,,,,,,,,,,,,,,,,,,,,,,,,,,,,,,,,,,,,,,,,,,,
,,"[""period""]",0,[1.0202000000178941],39,0,39,0,1,5fc9009e38ffaa3301b69c16,22,Kobieta,2022-05-28_09h37.49.414,task,2021.1.4,Win32,59.96282305,628b806c463b948bc644b84f,6291cfd36a2eb044c52c03e7,,,,,,,,,,,,,,,,,,,,,,,,,,,,,,,,,,,,,,,,,,,,,,,,,,,,,,,,,,,,,,,,,,,,,,,,,,,,,,,,,,,,,,,,,,,,,,,,,,,,,,,
,,"[""comma""]",0,[0.569500000000005],40,0,40,0,1,5fc9009e38ffaa3301b69c16,22,Kobieta,2022-05-28_09h37.49.414,task,2021.1.4,Win32,59.96282305,628b806c463b948bc644b84f,6291cfd36a2eb044c52c03e7,,,,,,,,,,,,,,,,,,,,,,,,,,,,,,,,,,,,,,,,,,,,,,,,,,,,,,,,,,,,,,,,,,,,,,,,,,,,,,,,,,,,,,,,,,,,,,,,,,,,,,,
,,"[""period"",""comma""]",0,"[0.2681999999880844,1.3540999999940482]",41,0,41,0,1,5fc9009e38ffaa3301b69c16,22,Kobieta,2022-05-28_09h37.49.414,task,2021.1.4,Win32,59.96282305,628b806c463b948bc644b84f,6291cfd36a2eb044c52c03e7,,,,,,,,,,,,,,,,,,,,,,,,,,,,,,,,,,,,,,,,,,,,,,,,,,,,,,,,,,,,,,,,,,,,,,,,,,,,,,,,,,,,,,,,,,,,,,,,,,,,,,,
,,"[""period""]",0,[0.870299999982123],42,0,42,0,1,5fc9009e38ffaa3301b69c16,22,Kobieta,2022-05-28_09h37.49.414,task,2021.1.4,Win32,59.96282305,628b806c463b948bc644b84f,6291cfd36a2eb044c52c03e7,,,,,,,,,,,,,,,,,,,,,,,,,,,,,,,,,,,,,,,,,,,,,,,,,,,,,,,,,,,,,,,,,,,,,,,,,,,,,,,,,,,,,,,,,,,,,,,,,,,,,,,
,,"[""comma""]",0,[0.33459999999404033],43,0,43,0,1,5fc9009e38ffaa3301b69c16,22,Kobieta,2022-05-28_09h37.49.414,task,2021.1.4,Win32,59.96282305,628b806c463b948bc644b84f,6291cfd36a2eb044c52c03e7,,,,,,,,,,,,,,,,,,,,,,,,,,,,,,,,,,,,,,,,,,,,,,,,,,,,,,,,,,,,,,,,,,,,,,,,,,,,,,,,,,,,,,,,,,,,,,,,,,,,,,,
,,"[""period""]",0,[0.47280000001191524],44,0,44,0,1,5fc9009e38ffaa3301b69c16,22,Kobieta,2022-05-28_09h37.49.414,task,2021.1.4,Win32,59.96282305,628b806c463b948bc644b84f,6291cfd36a2eb044c52c03e7,,,,,,,,,,,,,,,,,,,,,,,,,,,,,,,,,,,,,,,,,,,,,,,,,,,,,,,,,,,,,,,,,,,,,,,,,,,,,,,,,,,,,,,,,,,,,,,,,,,,,,,
,,"[""comma""]",0,[0.2682000000178846],45,0,45,0,1,5fc9009e38ffaa3301b69c16,22,Kobieta,2022-05-28_09h37.49.414,task,2021.1.4,Win32,59.96282305,628b806c463b948bc644b84f,6291cfd36a2eb044c52c03e7,,,,,,,,,,,,,,,,,,,,,,,,,,,,,,,,,,,,,,,,,,,,,,,,,,,,,,,,,,,,,,,,,,,,,,,,,,,,,,,,,,,,,,,,,,,,,,,,,,,,,,,
,,"[""period""]",0,[0.30030000001193],46,0,46,0,1,5fc9009e38ffaa3301b69c16,22,Kobieta,2022-05-28_09h37.49.414,task,2021.1.4,Win32,59.96282305,628b806c463b948bc644b84f,6291cfd36a2eb044c52c03e7,,,,,,,,,,,,,,,,,,,,,,,,,,,,,,,,,,,,,,,,,,,,,,,,,,,,,,,,,,,,,,,,,,,,,,,,,,,,,,,,,,,,,,,,,,,,,,,,,,,,,,,
,,"[""comma""]",0,[0.266899999976161],47,0,47,0,1,5fc9009e38ffaa3301b69c16,22,Kobieta,2022-05-28_09h37.49.414,task,2021.1.4,Win32,59.96282305,628b806c463b948bc644b84f,6291cfd36a2eb044c52c03e7,,,,,,,,,,,,,,,,,,,,,,,,,,,,,,,,,,,,,,,,,,,,,,,,,,,,,,,,,,,,,,,,,,,,,,,,,,,,,,,,,,,,,,,,,,,,,,,,,,,,,,,
,,"[""period""]",0,[0.19780000001192377],48,0,48,0,1,5fc9009e38ffaa3301b69c16,22,Kobieta,2022-05-28_09h37.49.414,task,2021.1.4,Win32,59.96282305,628b806c463b948bc644b84f,6291cfd36a2eb044c52c03e7,,,,,,,,,,,,,,,,,,,,,,,,,,,,,,,,,,,,,,,,,,,,,,,,,,,,,,,,,,,,,,,,,,,,,,,,,,,,,,,,,,,,,,,,,,,,,,,,,,,,,,,
,,"[""comma""]",0,[0.23420000001787855],49,0,49,0,1,5fc9009e38ffaa3301b69c16,22,Kobieta,2022-05-28_09h37.49.414,task,2021.1.4,Win32,59.96282305,628b806c463b948bc644b84f,6291cfd36a2eb044c52c03e7,,,,,,,,,,,,,,,,,,,,,,,,,,,,,,,,,,,,,,,,,,,,,,,,,,,,,,,,,,,,,,,,,,,,,,,,,,,,,,,,,,,,,,,,,,,,,,,,,,,,,,,
,,"[""period""]",0,[0.2646999999880819],50,0,50,0,1,5fc9009e38ffaa3301b69c16,22,Kobieta,2022-05-28_09h37.49.414,task,2021.1.4,Win32,59.96282305,628b806c463b948bc644b84f,6291cfd36a2eb044c52c03e7,,,,,,,,,,,,,,,,,,,,,,,,,,,,,,,,,,,,,,,,,,,,,,,,,,,,,,,,,,,,,,,,,,,,,,,,,,,,,,,,,,,,,,,,,,,,,,,,,,,,,,,
,,"[""comma""]",0,[0.3015999999940391],51,0,51,0,1,5fc9009e38ffaa3301b69c16,22,Kobieta,2022-05-28_09h37.49.414,task,2021.1.4,Win32,59.96282305,628b806c463b948bc644b84f,6291cfd36a2eb044c52c03e7,,,,,,,,,,,,,,,,,,,,,,,,,,,,,,,,,,,,,,,,,,,,,,,,,,,,,,,,,,,,,,,,,,,,,,,,,,,,,,,,,,,,,,,,,,,,,,,,,,,,,,,
,,"[""period""]",0,[0.3010999999940367],52,0,52,0,1,5fc9009e38ffaa3301b69c16,22,Kobieta,2022-05-28_09h37.49.414,task,2021.1.4,Win32,59.96282305,628b806c463b948bc644b84f,6291cfd36a2eb044c52c03e7,,,,,,,,,,,,,,,,,,,,,,,,,,,,,,,,,,,,,,,,,,,,,,,,,,,,,,,,,,,,,,,,,,,,,,,,,,,,,,,,,,,,,,,,,,,,,,,,,,,,,,,
,,"[""comma""]",0,[0.4058000000119222],53,0,53,0,1,5fc9009e38ffaa3301b69c16,22,Kobieta,2022-05-28_09h37.49.414,task,2021.1.4,Win32,59.96282305,628b806c463b948bc644b84f,6291cfd36a2eb044c52c03e7,,,,,,,,,,,,,,,,,,,,,,,,,,,,,,,,,,,,,,,,,,,,,,,,,,,,,,,,,,,,,,,,,,,,,,,,,,,,,,,,,,,,,,,,,,,,,,,,,,,,,,,
,,"[""period""]",0,[0.3402999999821219],54,0,54,0,1,5fc9009e38ffaa3301b69c16,22,Kobieta,2022-05-28_09h37.49.414,task,2021.1.4,Win32,59.96282305,628b806c463b948bc644b84f,6291cfd36a2eb044c52c03e7,,,,,,,,,,,,,,,,,,,,,,,,,,,,,,,,,,,,,,,,,,,,,,,,,,,,,,,,,,,,,,,,,,,,,,,,,,,,,,,,,,,,,,,,,,,,,,,,,,,,,,,
,,"[""comma""]",0,[0.3318000000119099],55,0,55,0,1,5fc9009e38ffaa3301b69c16,22,Kobieta,2022-05-28_09h37.49.414,task,2021.1.4,Win32,59.96282305,628b806c463b948bc644b84f,6291cfd36a2eb044c52c03e7,,,,,,,,,,,,,,,,,,,,,,,,,,,,,,,,,,,,,,,,,,,,,,,,,,,,,,,,,,,,,,,,,,,,,,,,,,,,,,,,,,,,,,,,,,,,,,,,,,,,,,,
,,"[""comma""]",0,[0.3183000000119165],56,0,56,0,1,5fc9009e38ffaa3301b69c16,22,Kobieta,2022-05-28_09h37.49.414,task,2021.1.4,Win32,59.96282305,628b806c463b948bc644b84f,6291cfd36a2eb044c52c03e7,,,,,,,,,,,,,,,,,,,,,,,,,,,,,,,,,,,,,,,,,,,,,,,,,,,,,,,,,,,,,,,,,,,,,,,,,,,,,,,,,,,,,,,,,,,,,,,,,,,,,,,
,,"[""period""]",0,[1.5335999999940384],57,0,57,0,1,5fc9009e38ffaa3301b69c16,22,Kobieta,2022-05-28_09h37.49.414,task,2021.1.4,Win32,59.96282305,628b806c463b948bc644b84f,6291cfd36a2eb044c52c03e7,,,,,,,,,,,,,,,,,,,,,,,,,,,,,,,,,,,,,,,,,,,,,,,,,,,,,,,,,,,,,,,,,,,,,,,,,,,,,,,,,,,,,,,,,,,,,,,,,,,,,,,
,,"[""comma""]",0,[0.3481999999880827],58,0,58,0,1,5fc9009e38ffaa3301b69c16,22,Kobieta,2022-05-28_09h37.49.414,task,2021.1.4,Win32,59.96282305,628b806c463b948bc644b84f,6291cfd36a2eb044c52c03e7,,,,,,,,,,,,,,,,,,,,,,,,,,,,,,,,,,,,,,,,,,,,,,,,,,,,,,,,,,,,,,,,,,,,,,,,,,,,,,,,,,,,,,,,,,,,,,,,,,,,,,,
,,"[""period""]",0,[0.5252000000178612],59,0,59,0,1,5fc9009e38ffaa3301b69c16,22,Kobieta,2022-05-28_09h37.49.414,task,2021.1.4,Win32,59.96282305,628b806c463b948bc644b84f,6291cfd36a2eb044c52c03e7,,,,,,,,,,,,,,,,,,,,,,,,,,,,,,,,,,,,,,,,,,,,,,,,,,,,,,,,,,,,,,,,,,,,,,,,,,,,,,,,,,,,,,,,,,,,,,,,,,,,,,,
,,"[""comma""]",0,[0.6169999999999902],60,0,60,0,1,5fc9009e38ffaa3301b69c16,22,Kobieta,2022-05-28_09h37.49.414,task,2021.1.4,Win32,59.96282305,628b806c463b948bc644b84f,6291cfd36a2eb044c52c03e7,,,,,,,,,,,,,,,,,,,,,,,,,,,,,,,,,,,,,,,,,,,,,,,,,,,,,,,,,,,,,,,,,,,,,,,,,,,,,,,,,,,,,,,,,,,,,,,,,,,,,,,
,,"[""period""]",0,[0.5593000000119162],61,0,61,0,1,5fc9009e38ffaa3301b69c16,22,Kobieta,2022-05-28_09h37.49.414,task,2021.1.4,Win32,59.96282305,628b806c463b948bc644b84f,6291cfd36a2eb044c52c03e7,,,,,,,,,,,,,,,,,,,,,,,,,,,,,,,,,,,,,,,,,,,,,,,,,,,,,,,,,,,,,,,,,,,,,,,,,,,,,,,,,,,,,,,,,,,,,,,,,,,,,,,
,,"[""comma""]",0,[0.8350999999940427],62,0,62,0,1,5fc9009e38ffaa3301b69c16,22,Kobieta,2022-05-28_09h37.49.414,task,2021.1.4,Win32,59.96282305,628b806c463b948bc644b84f,6291cfd36a2eb044c52c03e7,,,,,,,,,,,,,,,,,,,,,,,,,,,,,,,,,,,,,,,,,,,,,,,,,,,,,,,,,,,,,,,,,,,,,,,,,,,,,,,,,,,,,,,,,,,,,,,,,,,,,,,
,,"[""period""]",0,[0.35130000001194617],63,0,63,0,1,5fc9009e38ffaa3301b69c16,22,Kobieta,2022-05-28_09h37.49.414,task,2021.1.4,Win32,59.96282305,628b806c463b948bc644b84f,6291cfd36a2eb044c52c03e7,,,,,,,,,,,,,,,,,,,,,,,,,,,,,,,,,,,,,,,,,,,,,,,,,,,,,,,,,,,,,,,,,,,,,,,,,,,,,,,,,,,,,,,,,,,,,,,,,,,,,,,
,,"[""comma""]",0,[0.48510000002383435],64,0,64,0,1,5fc9009e38ffaa3301b69c16,22,Kobieta,2022-05-28_09h37.49.414,task,2021.1.4,Win32,59.96282305,628b806c463b948bc644b84f,6291cfd36a2eb044c52c03e7,,,,,,,,,,,,,,,,,,,,,,,,,,,,,,,,,,,,,,,,,,,,,,,,,,,,,,,,,,,,,,,,,,,,,,,,,,,,,,,,,,,,,,,,,,,,,,,,,,,,,,,
,,"[""period""]",0,[1.4379000000059534],65,0,65,0,1,5fc9009e38ffaa3301b69c16,22,Kobieta,2022-05-28_09h37.49.414,task,2021.1.4,Win32,59.96282305,628b806c463b948bc644b84f,6291cfd36a2eb044c52c03e7,,,,,,,,,,,,,,,,,,,,,,,,,,,,,,,,,,,,,,,,,,,,,,,,,,,,,,,,,,,,,,,,,,,,,,,,,,,,,,,,,,,,,,,,,,,,,,,,,,,,,,,
,,"[""comma""]",0,[1.5065000000000168],66,0,66,0,1,5fc9009e38ffaa3301b69c16,22,Kobieta,2022-05-28_09h37.49.414,task,2021.1.4,Win32,59.96282305,628b806c463b948bc644b84f,6291cfd36a2eb044c52c03e7,,,,,,,,,,,,,,,,,,,,,,,,,,,,,,,,,,,,,,,,,,,,,,,,,,,,,,,,,,,,,,,,,,,,,,,,,,,,,,,,,,,,,,,,,,,,,,,,,,,,,,,
,,,0,,67,0,67,0,1,5fc9009e38ffaa3301b69c16,22,Kobieta,2022-05-28_09h37.49.414,task,2021.1.4,Win32,59.96282305,628b806c463b948bc644b84f,6291cfd36a2eb044c52c03e7,,,,,,,,,,,,,,,,,,,,,,,,,,,,,,,,,,,,,,,,,,,,,,,,,,,,,,,,,,,,,,,,,,,,,,,,,,,,,,,,,,,,,,,,,,,,,,,,,,,,,,,
,,"[""period""]",0,[0.1529999999999916],68,0,68,0,1,5fc9009e38ffaa3301b69c16,22,Kobieta,2022-05-28_09h37.49.414,task,2021.1.4,Win32,59.96282305,628b806c463b948bc644b84f,6291cfd36a2eb044c52c03e7,,,,,,,,,,,,,,,,,,,,,,,,,,,,,,,,,,,,,,,,,,,,,,,,,,,,,,,,,,,,,,,,,,,,,,,,,,,,,,,,,,,,,,,,,,,,,,,,,,,,,,,
,,"[""comma""]",0,[0.8267999999821143],69,0,69,0,1,5fc9009e38ffaa3301b69c16,22,Kobieta,2022-05-28_09h37.49.414,task,2021.1.4,Win32,59.96282305,628b806c463b948bc644b84f,6291cfd36a2eb044c52c03e7,,,,,,,,,,,,,,,,,,,,,,,,,,,,,,,,,,,,,,,,,,,,,,,,,,,,,,,,,,,,,,,,,,,,,,,,,,,,,,,,,,,,,,,,,,,,,,,,,,,,,,,
,,"[""period""]",0,[0.33529999998211224],70,0,70,0,1,5fc9009e38ffaa3301b69c16,22,Kobieta,2022-05-28_09h37.49.414,task,2021.1.4,Win32,59.96282305,628b806c463b948bc644b84f,6291cfd36a2eb044c52c03e7,,,,,,,,,,,,,,,,,,,,,,,,,,,,,,,,,,,,,,,,,,,,,,,,,,,,,,,,,,,,,,,,,,,,,,,,,,,,,,,,,,,,,,,,,,,,,,,,,,,,,,,
,,"[""period""]",0,[0.45230000001191684],71,0,71,0,1,5fc9009e38ffaa3301b69c16,22,Kobieta,2022-05-28_09h37.49.414,task,2021.1.4,Win32,59.96282305,628b806c463b948bc644b84f,6291cfd36a2eb044c52c03e7,,,,,,,,,,,,,,,,,,,,,,,,,,,,,,,,,,,,,,,,,,,,,,,,,,,,,,,,,,,,,,,,,,,,,,,,,,,,,,,,,,,,,,,,,,,,,,,,,,,,,,,
,,"[""comma""]",0,[0.300899999976167],72,0,72,0,1,5fc9009e38ffaa3301b69c16,22,Kobieta,2022-05-28_09h37.49.414,task,2021.1.4,Win32,59.96282305,628b806c463b948bc644b84f,6291cfd36a2eb044c52c03e7,,,,,,,,,,,,,,,,,,,,,,,,,,,,,,,,,,,,,,,,,,,,,,,,,,,,,,,,,,,,,,,,,,,,,,,,,,,,,,,,,,,,,,,,,,,,,,,,,,,,,,,
,,"[""period""]",0,[0.6026999999880616],73,0,73,0,1,5fc9009e38ffaa3301b69c16,22,Kobieta,2022-05-28_09h37.49.414,task,2021.1.4,Win32,59.96282305,628b806c463b948bc644b84f,6291cfd36a2eb044c52c03e7,,,,,,,,,,,,,,,,,,,,,,,,,,,,,,,,,,,,,,,,,,,,,,,,,,,,,,,,,,,,,,,,,,,,,,,,,,,,,,,,,,,,,,,,,,,,,,,,,,,,,,,
,,,0,,74,0,74,0,1,5fc9009e38ffaa3301b69c16,22,Kobieta,2022-05-28_09h37.49.414,task,2021.1.4,Win32,59.96282305,628b806c463b948bc644b84f,6291cfd36a2eb044c52c03e7,,,,,,,,,,,,,,,,,,,,,,,,,,,,,,,,,,,,,,,,,,,,,,,,,,,,,,,,,,,,,,,,,,,,,,,,,,,,,,,,,,,,,,,,,,,,,,,,,,,,,,,
,,"[""comma""]",0,[0.25610000002384936],75,0,75,0,1,5fc9009e38ffaa3301b69c16,22,Kobieta,2022-05-28_09h37.49.414,task,2021.1.4,Win32,59.96282305,628b806c463b948bc644b84f,6291cfd36a2eb044c52c03e7,,,,,,,,,,,,,,,,,,,,,,,,,,,,,,,,,,,,,,,,,,,,,,,,,,,,,,,,,,,,,,,,,,,,,,,,,,,,,,,,,,,,,,,,,,,,,,,,,,,,,,,
,,"[""period""]",0,[0.4526999999880843],76,0,76,0,1,5fc9009e38ffaa3301b69c16,22,Kobieta,2022-05-28_09h37.49.414,task,2021.1.4,Win32,59.96282305,628b806c463b948bc644b84f,6291cfd36a2eb044c52c03e7,,,,,,,,,,,,,,,,,,,,,,,,,,,,,,,,,,,,,,,,,,,,,,,,,,,,,,,,,,,,,,,,,,,,,,,,,,,,,,,,,,,,,,,,,,,,,,,,,,,,,,,
,,,0,,77,0,77,0,1,5fc9009e38ffaa3301b69c16,22,Kobieta,2022-05-28_09h37.49.414,task,2021.1.4,Win32,59.96282305,628b806c463b948bc644b84f,6291cfd36a2eb044c52c03e7,,,,,,,,,,,,,,,,,,,,,,,,,,,,,,,,,,,,,,,,,,,,,,,,,,,,,,,,,,,,,,,,,,,,,,,,,,,,,,,,,,,,,,,,,,,,,,,,,,,,,,,
,,"[""comma""]",0,[0.36559999999403203],78,0,78,0,1,5fc9009e38ffaa3301b69c16,22,Kobieta,2022-05-28_09h37.49.414,task,2021.1.4,Win32,59.96282305,628b806c463b948bc644b84f,6291cfd36a2eb044c52c03e7,,,,,,,,,,,,,,,,,,,,,,,,,,,,,,,,,,,,,,,,,,,,,,,,,,,,,,,,,,,,,,,,,,,,,,,,,,,,,,,,,,,,,,,,,,,,,,,,,,,,,,,
,,"[""period""]",0,[0.7363000000119087],79,0,79,0,1,5fc9009e38ffaa3301b69c16,22,Kobieta,2022-05-28_09h37.49.414,task,2021.1.4,Win32,59.96282305,628b806c463b948bc644b84f,6291cfd36a2eb044c52c03e7,,,,,,,,,,,,,,,,,,,,,,,,,,,,,,,,,,,,,,,,,,,,,,,,,,,,,,,,,,,,,,,,,,,,,,,,,,,,,,,,,,,,,,,,,,,,,,,,,,,,,,,
,,"[""comma""]",0,[0.6704000000059693],80,0,80,0,1,5fc9009e38ffaa3301b69c16,22,Kobieta,2022-05-28_09h37.49.414,task,2021.1.4,Win32,59.96282305,628b806c463b948bc644b84f,6291cfd36a2eb044c52c03e7,,,,,,,,,,,,,,,,,,,,,,,,,,,,,,,,,,,,,,,,,,,,,,,,,,,,,,,,,,,,,,,,,,,,,,,,,,,,,,,,,,,,,,,,,,,,,,,,,,,,,,,
,,"[""period""]",0,[1.8595999999940602],81,0,81,0,1,5fc9009e38ffaa3301b69c16,22,Kobieta,2022-05-28_09h37.49.414,task,2021.1.4,Win32,59.96282305,628b806c463b948bc644b84f,6291cfd36a2eb044c52c03e7,,,,,,,,,,,,,,,,,,,,,,,,,,,,,,,,,,,,,,,,,,,,,,,,,,,,,,,,,,,,,,,,,,,,,,,,,,,,,,,,,,,,,,,,,,,,,,,,,,,,,,,
,,"[""period""]",0,[0.37069999998806225],82,0,82,0,1,5fc9009e38ffaa3301b69c16,22,Kobieta,2022-05-28_09h37.49.414,task,2021.1.4,Win32,59.96282305,628b806c463b948bc644b84f,6291cfd36a2eb044c52c03e7,,,,,,,,,,,,,,,,,,,,,,,,,,,,,,,,,,,,,,,,,,,,,,,,,,,,,,,,,,,,,,,,,,,,,,,,,,,,,,,,,,,,,,,,,,,,,,,,,,,,,,,
,,"[""comma""]",0,[0.3153000000119164],83,0,83,0,1,5fc9009e38ffaa3301b69c16,22,Kobieta,2022-05-28_09h37.49.414,task,2021.1.4,Win32,59.96282305,628b806c463b948bc644b84f,6291cfd36a2eb044c52c03e7,,,,,,,,,,,,,,,,,,,,,,,,,,,,,,,,,,,,,,,,,,,,,,,,,,,,,,,,,,,,,,,,,,,,,,,,,,,,,,,,,,,,,,,,,,,,,,,,,,,,,,,
,,"[""period""]",0,[0.33529999998211224],84,0,84,0,1,5fc9009e38ffaa3301b69c16,22,Kobieta,2022-05-28_09h37.49.414,task,2021.1.4,Win32,59.96282305,628b806c463b948bc644b84f,6291cfd36a2eb044c52c03e7,,,,,,,,,,,,,,,,,,,,,,,,,,,,,,,,,,,,,,,,,,,,,,,,,,,,,,,,,,,,,,,,,,,,,,,,,,,,,,,,,,,,,,,,,,,,,,,,,,,,,,,
,,"[""comma""]",0,[0.38840000000595865],85,0,85,0,1,5fc9009e38ffaa3301b69c16,22,Kobieta,2022-05-28_09h37.49.414,task,2021.1.4,Win32,59.96282305,628b806c463b948bc644b84f,6291cfd36a2eb044c52c03e7,,,,,,,,,,,,,,,,,,,,,,,,,,,,,,,,,,,,,,,,,,,,,,,,,,,,,,,,,,,,,,,,,,,,,,,,,,,,,,,,,,,,,,,,,,,,,,,,,,,,,,,
,,"[""period""]",0,[0.6065999999940459],86,0,86,0,1,5fc9009e38ffaa3301b69c16,22,Kobieta,2022-05-28_09h37.49.414,task,2021.1.4,Win32,59.96282305,628b806c463b948bc644b84f,6291cfd36a2eb044c52c03e7,,,,,,,,,,,,,,,,,,,,,,,,,,,,,,,,,,,,,,,,,,,,,,,,,,,,,,,,,,,,,,,,,,,,,,,,,,,,,,,,,,,,,,,,,,,,,,,,,,,,,,,
,,"[""comma""]",0,[0.43219999998805747],87,0,87,0,1,5fc9009e38ffaa3301b69c16,22,Kobieta,2022-05-28_09h37.49.414,task,2021.1.4,Win32,59.96282305,628b806c463b948bc644b84f,6291cfd36a2eb044c52c03e7,,,,,,,,,,,,,,,,,,,,,,,,,,,,,,,,,,,,,,,,,,,,,,,,,,,,,,,,,,,,,,,,,,,,,,,,,,,,,,,,,,,,,,,,,,,,,,,,,,,,,,,
,,"[""period""]",0,[0.3209000000059632],88,0,88,0,1,5fc9009e38ffaa3301b69c16,22,Kobieta,2022-05-28_09h37.49.414,task,2021.1.4,Win32,59.96282305,628b806c463b948bc644b84f,6291cfd36a2eb044c52c03e7,,,,,,,,,,,,,,,,,,,,,,,,,,,,,,,,,,,,,,,,,,,,,,,,,,,,,,,,,,,,,,,,,,,,,,,,,,,,,,,,,,,,,,,,,,,,,,,,,,,,,,,
,,"[""comma""]",0,[0.44019999998809567],89,0,89,0,1,5fc9009e38ffaa3301b69c16,22,Kobieta,2022-05-28_09h37.49.414,task,2021.1.4,Win32,59.96282305,628b806c463b948bc644b84f,6291cfd36a2eb044c52c03e7,,,,,,,,,,,,,,,,,,,,,,,,,,,,,,,,,,,,,,,,,,,,,,,,,,,,,,,,,,,,,,,,,,,,,,,,,,,,,,,,,,,,,,,,,,,,,,,,,,,,,,,
,,"[""period""]",0,[0.6048000000119202],90,0,90,0,1,5fc9009e38ffaa3301b69c16,22,Kobieta,2022-05-28_09h37.49.414,task,2021.1.4,Win32,59.96282305,628b806c463b948bc644b84f,6291cfd36a2eb044c52c03e7,,,,,,,,,,,,,,,,,,,,,,,,,,,,,,,,,,,,,,,,,,,,,,,,,,,,,,,,,,,,,,,,,,,,,,,,,,,,,,,,,,,,,,,,,,,,,,,,,,,,,,,
,,"[""comma""]",0,[0.4377999999821043],91,0,91,0,1,5fc9009e38ffaa3301b69c16,22,Kobieta,2022-05-28_09h37.49.414,task,2021.1.4,Win32,59.96282305,628b806c463b948bc644b84f,6291cfd36a2eb044c52c03e7,,,,,,,,,,,,,,,,,,,,,,,,,,,,,,,,,,,,,,,,,,,,,,,,,,,,,,,,,,,,,,,,,,,,,,,,,,,,,,,,,,,,,,,,,,,,,,,,,,,,,,,
,,"[""comma""]",0,[0.7083000000119171],92,0,92,0,1,5fc9009e38ffaa3301b69c16,22,Kobieta,2022-05-28_09h37.49.414,task,2021.1.4,Win32,59.96282305,628b806c463b948bc644b84f,6291cfd36a2eb044c52c03e7,,,,,,,,,,,,,,,,,,,,,,,,,,,,,,,,,,,,,,,,,,,,,,,,,,,,,,,,,,,,,,,,,,,,,,,,,,,,,,,,,,,,,,,,,,,,,,,,,,,,,,,
,,"[""period""]",0,[1.1345000000000027],93,0,93,0,1,5fc9009e38ffaa3301b69c16,22,Kobieta,2022-05-28_09h37.49.414,task,2021.1.4,Win32,59.96282305,628b806c463b948bc644b84f,6291cfd36a2eb044c52c03e7,,,,,,,,,,,,,,,,,,,,,,,,,,,,,,,,,,,,,,,,,,,,,,,,,,,,,,,,,,,,,,,,,,,,,,,,,,,,,,,,,,,,,,,,,,,,,,,,,,,,,,,
,,"[""comma""]",0,[0.4820999999940341],94,0,94,0,1,5fc9009e38ffaa3301b69c16,22,Kobieta,2022-05-28_09h37.49.414,task,2021.1.4,Win32,59.96282305,628b806c463b948bc644b84f,6291cfd36a2eb044c52c03e7,,,,,,,,,,,,,,,,,,,,,,,,,,,,,,,,,,,,,,,,,,,,,,,,,,,,,,,,,,,,,,,,,,,,,,,,,,,,,,,,,,,,,,,,,,,,,,,,,,,,,,,
,,"[""comma"",""period""]",0,"[0.5902000000178873,0.6005999999940457]",95,0,95,0,1,5fc9009e38ffaa3301b69c16,22,Kobieta,2022-05-28_09h37.49.414,task,2021.1.4,Win32,59.96282305,628b806c463b948bc644b84f,6291cfd36a2eb044c52c03e7,,,,,,,,,,,,,,,,,,,,,,,,,,,,,,,,,,,,,,,,,,,,,,,,,,,,,,,,,,,,,,,,,,,,,,,,,,,,,,,,,,,,,,,,,,,,,,,,,,,,,,,
,,"[""period""]",0,[0.2871999999881041],96,0,96,0,1,5fc9009e38ffaa3301b69c16,22,Kobieta,2022-05-28_09h37.49.414,task,2021.1.4,Win32,59.96282305,628b806c463b948bc644b84f,6291cfd36a2eb044c52c03e7,,,,,,,,,,,,,,,,,,,,,,,,,,,,,,,,,,,,,,,,,,,,,,,,,,,,,,,,,,,,,,,,,,,,,,,,,,,,,,,,,,,,,,,,,,,,,,,,,,,,,,,
,,"[""comma""]",0,[0.2651999999880559],97,0,97,0,1,5fc9009e38ffaa3301b69c16,22,Kobieta,2022-05-28_09h37.49.414,task,2021.1.4,Win32,59.96282305,628b806c463b948bc644b84f,6291cfd36a2eb044c52c03e7,,,,,,,,,,,,,,,,,,,,,,,,,,,,,,,,,,,,,,,,,,,,,,,,,,,,,,,,,,,,,,,,,,,,,,,,,,,,,,,,,,,,,,,,,,,,,,,,,,,,,,,
,,"[""comma""]",0,[0.48890000000596956],98,0,98,0,1,5fc9009e38ffaa3301b69c16,22,Kobieta,2022-05-28_09h37.49.414,task,2021.1.4,Win32,59.96282305,628b806c463b948bc644b84f,6291cfd36a2eb044c52c03e7,,,,,,,,,,,,,,,,,,,,,,,,,,,,,,,,,,,,,,,,,,,,,,,,,,,,,,,,,,,,,,,,,,,,,,,,,,,,,,,,,,,,,,,,,,,,,,,,,,,,,,,
,,"[""period""]",0,[0.5381999999880804],99,0,99,0,1,5fc9009e38ffaa3301b69c16,22,Kobieta,2022-05-28_09h37.49.414,task,2021.1.4,Win32,59.96282305,628b806c463b948bc644b84f,6291cfd36a2eb044c52c03e7,,,,,,,,,,,,,,,,,,,,,,,,,,,,,,,,,,,,,,,,,,,,,,,,,,,,,,,,,,,,,,,,,,,,,,,,,,,,,,,,,,,,,,,,,,,,,,,,,,,,,,,
,,"[""comma""]",0,[0.3836000000238471],100,0,100,0,1,5fc9009e38ffaa3301b69c16,22,Kobieta,2022-05-28_09h37.49.414,task,2021.1.4,Win32,59.96282305,628b806c463b948bc644b84f,6291cfd36a2eb044c52c03e7,,,,,,,,,,,,,,,,,,,,,,,,,,,,,,,,,,,,,,,,,,,,,,,,,,,,,,,,,,,,,,,,,,,,,,,,,,,,,,,,,,,,,,,,,,,,,,,,,,,,,,,
,,"[""period""]",0,[0.30190000000598616],101,0,101,0,1,5fc9009e38ffaa3301b69c16,22,Kobieta,2022-05-28_09h37.49.414,task,2021.1.4,Win32,59.96282305,628b806c463b948bc644b84f,6291cfd36a2eb044c52c03e7,,,,,,,,,,,,,,,,,,,,,,,,,,,,,,,,,,,,,,,,,,,,,,,,,,,,,,,,,,,,,,,,,,,,,,,,,,,,,,,,,,,,,,,,,,,,,,,,,,,,,,,
,,"[""comma""]",0,[0.30160000002382503],102,0,102,0,1,5fc9009e38ffaa3301b69c16,22,Kobieta,2022-05-28_09h37.49.414,task,2021.1.4,Win32,59.96282305,628b806c463b948bc644b84f,6291cfd36a2eb044c52c03e7,,,,,,,,,,,,,,,,,,,,,,,,,,,,,,,,,,,,,,,,,,,,,,,,,,,,,,,,,,,,,,,,,,,,,,,,,,,,,,,,,,,,,,,,,,,,,,,,,,,,,,,
,,"[""comma""]",0,[0.49219999998805974],103,0,103,0,1,5fc9009e38ffaa3301b69c16,22,Kobieta,2022-05-28_09h37.49.414,task,2021.1.4,Win32,59.96282305,628b806c463b948bc644b84f,6291cfd36a2eb044c52c03e7,,,,,,,,,,,,,,,,,,,,,,,,,,,,,,,,,,,,,,,,,,,,,,,,,,,,,,,,,,,,,,,,,,,,,,,,,,,,,,,,,,,,,,,,,,,,,,,,,,,,,,,
,,"[""comma""]",0,[0.5179999999999723],104,0,104,0,1,5fc9009e38ffaa3301b69c16,22,Kobieta,2022-05-28_09h37.49.414,task,2021.1.4,Win32,59.96282305,628b806c463b948bc644b84f,6291cfd36a2eb044c52c03e7,,,,,,,,,,,,,,,,,,,,,,,,,,,,,,,,,,,,,,,,,,,,,,,,,,,,,,,,,,,,,,,,,,,,,,,,,,,,,,,,,,,,,,,,,,,,,,,,,,,,,,,
,,"[""comma""]",0,[0.9347000000178696],105,0,105,0,1,5fc9009e38ffaa3301b69c16,22,Kobieta,2022-05-28_09h37.49.414,task,2021.1.4,Win32,59.96282305,628b806c463b948bc644b84f,6291cfd36a2eb044c52c03e7,,,,,,,,,,,,,,,,,,,,,,,,,,,,,,,,,,,,,,,,,,,,,,,,,,,,,,,,,,,,,,,,,,,,,,,,,,,,,,,,,,,,,,,,,,,,,,,,,,,,,,,
,,"[""period""]",0,[0.21920000001787798],106,0,106,0,1,5fc9009e38ffaa3301b69c16,22,Kobieta,2022-05-28_09h37.49.414,task,2021.1.4,Win32,59.96282305,628b806c463b948bc644b84f,6291cfd36a2eb044c52c03e7,,,,,,,,,,,,,,,,,,,,,,,,,,,,,,,,,,,,,,,,,,,,,,,,,,,,,,,,,,,,,,,,,,,,,,,,,,,,,,,,,,,,,,,,,,,,,,,,,,,,,,,
,,"[""period""]",0,[0.33340000000598025],107,0,107,0,1,5fc9009e38ffaa3301b69c16,22,Kobieta,2022-05-28_09h37.49.414,task,2021.1.4,Win32,59.96282305,628b806c463b948bc644b84f,6291cfd36a2eb044c52c03e7,,,,,,,,,,,,,,,,,,,,,,,,,,,,,,,,,,,,,,,,,,,,,,,,,,,,,,,,,,,,,,,,,,,,,,,,,,,,,,,,,,,,,,,,,,,,,,,,,,,,,,,
,,"[""period""]",0,[0.3726999999880718],108,0,108,0,1,5fc9009e38ffaa3301b69c16,22,Kobieta,2022-05-28_09h37.49.414,task,2021.1.4,Win32,59.96282305,628b806c463b948bc644b84f,6291cfd36a2eb044c52c03e7,,,,,,,,,,,,,,,,,,,,,,,,,,,,,,,,,,,,,,,,,,,,,,,,,,,,,,,,,,,,,,,,,,,,,,,,,,,,,,,,,,,,,,,,,,,,,,,,,,,,,,,
,,"[""comma""]",0,[0.5896999999880563],109,0,109,0,1,5fc9009e38ffaa3301b69c16,22,Kobieta,2022-05-28_09h37.49.414,task,2021.1.4,Win32,59.96282305,628b806c463b948bc644b84f,6291cfd36a2eb044c52c03e7,,,,,,,,,,,,,,,,,,,,,,,,,,,,,,,,,,,,,,,,,,,,,,,,,,,,,,,,,,,,,,,,,,,,,,,,,,,,,,,,,,,,,,,,,,,,,,,,,,,,,,,
,,,0,,110,0,110,0,1,5fc9009e38ffaa3301b69c16,22,Kobieta,2022-05-28_09h37.49.414,task,2021.1.4,Win32,59.96282305,628b806c463b948bc644b84f,6291cfd36a2eb044c52c03e7,,,,,,,,,,,,,,,,,,,,,,,,,,,,,,,,,,,,,,,,,,,,,,,,,,,,,,,,,,,,,,,,,,,,,,,,,,,,,,,,,,,,,,,,,,,,,,,,,,,,,,,
,,"[""period""]",0,[0.6591999999880898],111,0,111,0,1,5fc9009e38ffaa3301b69c16,22,Kobieta,2022-05-28_09h37.49.414,task,2021.1.4,Win32,59.96282305,628b806c463b948bc644b84f,6291cfd36a2eb044c52c03e7,,,,,,,,,,,,,,,,,,,,,,,,,,,,,,,,,,,,,,,,,,,,,,,,,,,,,,,,,,,,,,,,,,,,,,,,,,,,,,,,,,,,,,,,,,,,,,,,,,,,,,,
,,,0,,112,0,112,0,1,5fc9009e38ffaa3301b69c16,22,Kobieta,2022-05-28_09h37.49.414,task,2021.1.4,Win32,59.96282305,628b806c463b948bc644b84f,6291cfd36a2eb044c52c03e7,,,,,,,,,,,,,,,,,,,,,,,,,,,,,,,,,,,,,,,,,,,,,,,,,,,,,,,,,,,,,,,,,,,,,,,,,,,,,,,,,,,,,,,,,,,,,,,,,,,,,,,
,,"[""period""]",0,[1.1209000000059461],113,0,113,0,1,5fc9009e38ffaa3301b69c16,22,Kobieta,2022-05-28_09h37.49.414,task,2021.1.4,Win32,59.96282305,628b806c463b948bc644b84f,6291cfd36a2eb044c52c03e7,,,,,,,,,,,,,,,,,,,,,,,,,,,,,,,,,,,,,,,,,,,,,,,,,,,,,,,,,,,,,,,,,,,,,,,,,,,,,,,,,,,,,,,,,,,,,,,,,,,,,,,
,,"[""comma""]",0,[1.2026000000238355],114,0,114,0,1,5fc9009e38ffaa3301b69c16,22,Kobieta,2022-05-28_09h37.49.414,task,2021.1.4,Win32,59.96282305,628b806c463b948bc644b84f,6291cfd36a2eb044c52c03e7,,,,,,,,,,,,,,,,,,,,,,,,,,,,,,,,,,,,,,,,,,,,,,,,,,,,,,,,,,,,,,,,,,,,,,,,,,,,,,,,,,,,,,,,,,,,,,,,,,,,,,,
,,"[""period""]",0,[0.9716999999880898],115,0,115,0,1,5fc9009e38ffaa3301b69c16,22,Kobieta,2022-05-28_09h37.49.414,task,2021.1.4,Win32,59.96282305,628b806c463b948bc644b84f,6291cfd36a2eb044c52c03e7,,,,,,,,,,,,,,,,,,,,,,,,,,,,,,,,,,,,,,,,,,,,,,,,,,,,,,,,,,,,,,,,,,,,,,,,,,,,,,,,,,,,,,,,,,,,,,,,,,,,,,,
,,"[""comma""]",0,[1.138800000011912],116,0,116,0,1,5fc9009e38ffaa3301b69c16,22,Kobieta,2022-05-28_09h37.49.414,task,2021.1.4,Win32,59.96282305,628b806c463b948bc644b84f,6291cfd36a2eb044c52c03e7,,,,,,,,,,,,,,,,,,,,,,,,,,,,,,,,,,,,,,,,,,,,,,,,,,,,,,,,,,,,,,,,,,,,,,,,,,,,,,,,,,,,,,,,,,,,,,,,,,,,,,,
,,"[""period""]",0,[0.6021999999880734],117,0,117,0,1,5fc9009e38ffaa3301b69c16,22,Kobieta,2022-05-28_09h37.49.414,task,2021.1.4,Win32,59.96282305,628b806c463b948bc644b84f,6291cfd36a2eb044c52c03e7,,,,,,,,,,,,,,,,,,,,,,,,,,,,,,,,,,,,,,,,,,,,,,,,,,,,,,,,,,,,,,,,,,,,,,,,,,,,,,,,,,,,,,,,,,,,,,,,,,,,,,,
,,"[""comma""]",0,[1.1359999999999957],118,0,118,0,1,5fc9009e38ffaa3301b69c16,22,Kobieta,2022-05-28_09h37.49.414,task,2021.1.4,Win32,59.96282305,628b806c463b948bc644b84f,6291cfd36a2eb044c52c03e7,,,,,,,,,,,,,,,,,,,,,,,,,,,,,,,,,,,,,,,,,,,,,,,,,,,,,,,,,,,,,,,,,,,,,,,,,,,,,,,,,,,,,,,,,,,,,,,,,,,,,,,
,,"[""period""]",0,[1.0035000000000025],119,0,119,0,1,5fc9009e38ffaa3301b69c16,22,Kobieta,2022-05-28_09h37.49.414,task,2021.1.4,Win32,59.96282305,628b806c463b948bc644b84f,6291cfd36a2eb044c52c03e7,,,,,,,,,,,,,,,,,,,,,,,,,,,,,,,,,,,,,,,,,,,,,,,,,,,,,,,,,,,,,,,,,,,,,,,,,,,,,,,,,,,,,,,,,,,,,,,,,,,,,,,
,,,,,,,,,,5fc9009e38ffaa3301b69c16,22,Kobieta,2022-05-28_09h37.49.414,task,2021.1.4,Win32,59.96282305,628b806c463b948bc644b84f,6291cfd36a2eb044c52c03e7,space,13.182,space,7.4267,0,0,0,0,1,"X V Q F H G B L J M P D K C T S W R N Z
",,,,,,,,,,,,,,,,,,,,,,,,,,,,,,,,,,,,,,,,,,,,,,,,,,,,,,,,,,,,,,,,,,,,,,,,,,,,,,,,,,,,,,,,,,,,,
,,,,,,,,,,5fc9009e38ffaa3301b69c16,22,Kobieta,2022-05-28_09h37.49.414,task,2021.1.4,Win32,59.96282305,628b806c463b948bc644b84f,6291cfd36a2eb044c52c03e7,,,,,1,0,1,0,1,"X V Q F H G B L J M P D K C T S W R N Z
",,,,,,,,,,,,,,,,,,,,,,,,,,,,,,,,,,,,,,,,,,,,,,,,,,,,,,,,,,,,,,,,,,,,,,,,,,,,,,,,,,,,,,,,,,,,,
,,,,,,,,,,5fc9009e38ffaa3301b69c16,22,Kobieta,2022-05-28_09h37.49.414,task,2021.1.4,Win32,59.96282305,628b806c463b948bc644b84f,6291cfd36a2eb044c52c03e7,,,,,,,,,,,zq,"[""z"",""q""]","[1.50740000000593,1.7410999999940486,2.891300000011938]",1,ZQ,0,0,0,0,1,,,,,,,,,,,,,,,,,,,,,,,,,,,,,,,,,,,,,,,,,,,,,,,,,,,,,,,,,,,,,,,,,,,,,,,,,,,,,,,,,,,
,,,,,,,,,,5fc9009e38ffaa3301b69c16,22,Kobieta,2022-05-28_09h37.49.414,task,2021.1.4,Win32,59.96282305,628b806c463b948bc644b84f,6291cfd36a2eb044c52c03e7,,,,,0,0,0,0,1,"X V Q F H G B L J M P D K C T S W R N Z
",,,,,,,,,,,,,,,,,,,,,,,,,,,,,,,,,,,,,,,,,,,,,,,,,,,,,,,,,,,,,,,,,,,,,,,,,,,,,,,,,,,,,,,,,,,,,
,,,,,,,,,,5fc9009e38ffaa3301b69c16,22,Kobieta,2022-05-28_09h37.49.414,task,2021.1.4,Win32,59.96282305,628b806c463b948bc644b84f,6291cfd36a2eb044c52c03e7,,,,,1,0,1,0,1,"X V Q F H G B L J M P D K C T S W R N Z
",,,,,,,,,,,,,,,,,,,,,,,,,,,,,,,,,,,,,,,,,,,,,,,,,,,,,,,,,,,,,,,,,,,,,,,,,,,,,,,,,,,,,,,,,,,,,
,,,,,,,,,,5fc9009e38ffaa3301b69c16,22,Kobieta,2022-05-28_09h37.49.414,task,2021.1.4,Win32,59.96282305,628b806c463b948bc644b84f,6291cfd36a2eb044c52c03e7,,,,,,,,,,,mr,"[""m"",""r""]","[1.4182000000179187,1.6017000000178996,1.7192000000179064]",1,MR,1,0,1,0,1,,,,,,,,,,,,,,,,,,,,,,,,,,,,,,,,,,,,,,,,,,,,,,,,,,,,,,,,,,,,,,,,,,,,,,,,,,,,,,,,,,,
,,,,,,,,,,5fc9009e38ffaa3301b69c16,22,Kobieta,2022-05-28_09h37.49.414,task,2021.1.4,Win32,59.96282305,628b806c463b948bc644b84f,6291cfd36a2eb044c52c03e7,,,,,0,0,0,0,1,"X V Q F H G B L J M P D K C T S W R N Z
",,,,,,,,,,,,,,,,,,,,,,,,,,,,,,,,,,,,,,,,,,,,,,,,,,,,,,,,,,,,,,,,,,,,,,,,,,,,,,,,,,,,,,,,,,,,,
,,,,,,,,,,5fc9009e38ffaa3301b69c16,22,Kobieta,2022-05-28_09h37.49.414,task,2021.1.4,Win32,59.96282305,628b806c463b948bc644b84f,6291cfd36a2eb044c52c03e7,,,,,1,0,1,0,1,"X V Q F H G B L J M P D K C T S W R N Z
",,,,,,,,,,,,,,,,,,,,,,,,,,,,,,,,,,,,,,,,,,,,,,,,,,,,,,,,,,,,,,,,,,,,,,,,,,,,,,,,,,,,,,,,,,,,,
,,,,,,,,,,5fc9009e38ffaa3301b69c16,22,Kobieta,2022-05-28_09h37.49.414,task,2021.1.4,Win32,59.96282305,628b806c463b948bc644b84f,6291cfd36a2eb044c52c03e7,,,,,2,0,2,0,1,"X V Q F H G B L J M P D K C T S W R N Z
",,,,,,,,,,,,,,,,,,,,,,,,,,,,,,,,,,,,,,,,,,,,,,,,,,,,,,,,,,,,,,,,,,,,,,,,,,,,,,,,,,,,,,,,,,,,,
,,,,,,,,,,5fc9009e38ffaa3301b69c16,22,Kobieta,2022-05-28_09h37.49.414,task,2021.1.4,Win32,59.96282305,628b806c463b948bc644b84f,6291cfd36a2eb044c52c03e7,,,,,,,,,,,kfc,"[""k"",""f"",""c""]","[1.8864999999999554,1.9711999999880732,2.187400000005937,2.3538000000119155]",1,KFC,2,0,2,0,1,,,,,,,,,,,,,,,,,,,,,,,,,,,,,,,,,,,,,,,,,,,,,,,,,,,,,,,,,,,,,,,,,,,,,,,,,,,,,,,,,,,
,,,,,,,,,,5fc9009e38ffaa3301b69c16,22,Kobieta,2022-05-28_09h37.49.414,task,2021.1.4,Win32,59.96282305,628b806c463b948bc644b84f,6291cfd36a2eb044c52c03e7,,,,,0,0,0,0,1,"X V Q F H G B L J M P D K C T S W R N Z
",,,,,,,,,,,,,,,,,,,,,,,,,,,,,,,,,,,,,,,,,,,,,,,,,,,,,,,,,,,,,,,,,,,,,,,,,,,,,,,,,,,,,,,,,,,,,
,,,,,,,,,,5fc9009e38ffaa3301b69c16,22,Kobieta,2022-05-28_09h37.49.414,task,2021.1.4,Win32,59.96282305,628b806c463b948bc644b84f,6291cfd36a2eb044c52c03e7,,,,,1,0,1,0,1,"X V Q F H G B L J M P D K C T S W R N Z
",,,,,,,,,,,,,,,,,,,,,,,,,,,,,,,,,,,,,,,,,,,,,,,,,,,,,,,,,,,,,,,,,,,,,,,,,,,,,,,,,,,,,,,,,,,,,
,,,,,,,,,,5fc9009e38ffaa3301b69c16,22,Kobieta,2022-05-28_09h37.49.414,task,2021.1.4,Win32,59.96282305,628b806c463b948bc644b84f,6291cfd36a2eb044c52c03e7,,,,,2,0,2,0,1,"X V Q F H G B L J M P D K C T S W R N Z
",,,,,,,,,,,,,,,,,,,,,,,,,,,,,,,,,,,,,,,,,,,,,,,,,,,,,,,,,,,,,,,,,,,,,,,,,,,,,,,,,,,,,,,,,,,,,
,,,,,,,,,,5fc9009e38ffaa3301b69c16,22,Kobieta,2022-05-28_09h37.49.414,task,2021.1.4,Win32,59.96282305,628b806c463b948bc644b84f,6291cfd36a2eb044c52c03e7,,,,,,,,,,,nfl,"[""n"",""f"",""l""]","[1.7870000000000346,2.338799999982143,2.54200000000003,2.7532999999821186]",1,NFL,3,0,3,0,1,,,,,,,,,,,,,,,,,,,,,,,,,,,,,,,,,,,,,,,,,,,,,,,,,,,,,,,,,,,,,,,,,,,,,,,,,,,,,,,,,,,
,,,,,,,,,,5fc9009e38ffaa3301b69c16,22,Kobieta,2022-05-28_09h37.49.414,task,2021.1.4,Win32,59.96282305,628b806c463b948bc644b84f,6291cfd36a2eb044c52c03e7,,,,,0,0,0,0,1,"X V Q F H G B L J M P D K C T S W R N Z
",,,,,,,,,,,,,,,,,,,,,,,,,,,,,,,,,,,,,,,,,,,,,,,,,,,,,,,,,,,,,,,,,,,,,,,,,,,,,,,,,,,,,,,,,,,,,
,,,,,,,,,,5fc9009e38ffaa3301b69c16,22,Kobieta,2022-05-28_09h37.49.414,task,2021.1.4,Win32,59.96282305,628b806c463b948bc644b84f,6291cfd36a2eb044c52c03e7,,,,,1,0,1,0,1,"X V Q F H G B L J M P D K C T S W R N Z
",,,,,,,,,,,,,,,,,,,,,,,,,,,,,,,,,,,,,,,,,,,,,,,,,,,,,,,,,,,,,,,,,,,,,,,,,,,,,,,,,,,,,,,,,,,,,
,,,,,,,,,,5fc9009e38ffaa3301b69c16,22,Kobieta,2022-05-28_09h37.49.414,task,2021.1.4,Win32,59.96282305,628b806c463b948bc644b84f,6291cfd36a2eb044c52c03e7,,,,,2,0,2,0,1,"X V Q F H G B L J M P D K C T S W R N Z
",,,,,,,,,,,,,,,,,,,,,,,,,,,,,,,,,,,,,,,,,,,,,,,,,,,,,,,,,,,,,,,,,,,,,,,,,,,,,,,,,,,,,,,,,,,,,
,,,,,,,,,,5fc9009e38ffaa3301b69c16,22,Kobieta,2022-05-28_09h37.49.414,task,2021.1.4,Win32,59.96282305,628b806c463b948bc644b84f,6291cfd36a2eb044c52c03e7,,,,,3,0,3,0,1,"X V Q F H G B L J M P D K C T S W R N Z
",,,,,,,,,,,,,,,,,,,,,,,,,,,,,,,,,,,,,,,,,,,,,,,,,,,,,,,,,,,,,,,,,,,,,,,,,,,,,,,,,,,,,,,,,,,,,
,,,,,,,,,,5fc9009e38ffaa3301b69c16,22,Kobieta,2022-05-28_09h37.49.414,task,2021.1.4,Win32,59.96282305,628b806c463b948bc644b84f,6291cfd36a2eb044c52c03e7,,,,,,,,,,,kpbl,"[""k"",""p"",""b"",""l""]","[1.9536999999880322,3.0369000000059145,3.608000000000004,3.7973000000118873,3.975900000005936]",1,KPBL,4,0,4,0,1,,,,,,,,,,,,,,,,,,,,,,,,,,,,,,,,,,,,,,,,,,,,,,,,,,,,,,,,,,,,,,,,,,,,,,,,,,,,,,,,,,,
,,,,,,,,,,5fc9009e38ffaa3301b69c16,22,Kobieta,2022-05-28_09h37.49.414,task,2021.1.4,Win32,59.96282305,628b806c463b948bc644b84f,6291cfd36a2eb044c52c03e7,,,,,0,0,0,0,1,"X V Q F H G B L J M P D K C T S W R N Z
",,,,,,,,,,,,,,,,,,,,,,,,,,,,,,,,,,,,,,,,,,,,,,,,,,,,,,,,,,,,,,,,,,,,,,,,,,,,,,,,,,,,,,,,,,,,,
,,,,,,,,,,5fc9009e38ffaa3301b69c16,22,Kobieta,2022-05-28_09h37.49.414,task,2021.1.4,Win32,59.96282305,628b806c463b948bc644b84f,6291cfd36a2eb044c52c03e7,,,,,1,0,1,0,1,"X V Q F H G B L J M P D K C T S W R N Z
",,,,,,,,,,,,,,,,,,,,,,,,,,,,,,,,,,,,,,,,,,,,,,,,,,,,,,,,,,,,,,,,,,,,,,,,,,,,,,,,,,,,,,,,,,,,,
,,,,,,,,,,5fc9009e38ffaa3301b69c16,22,Kobieta,2022-05-28_09h37.49.414,task,2021.1.4,Win32,59.96282305,628b806c463b948bc644b84f,6291cfd36a2eb044c52c03e7,,,,,2,0,2,0,1,"X V Q F H G B L J M P D K C T S W R N Z
",,,,,,,,,,,,,,,,,,,,,,,,,,,,,,,,,,,,,,,,,,,,,,,,,,,,,,,,,,,,,,,,,,,,,,,,,,,,,,,,,,,,,,,,,,,,,
,,,,,,,,,,5fc9009e38ffaa3301b69c16,22,Kobieta,2022-05-28_09h37.49.414,task,2021.1.4,Win32,59.96282305,628b806c463b948bc644b84f,6291cfd36a2eb044c52c03e7,,,,,3,0,3,0,1,"X V Q F H G B L J M P D K C T S W R N Z
",,,,,,,,,,,,,,,,,,,,,,,,,,,,,,,,,,,,,,,,,,,,,,,,,,,,,,,,,,,,,,,,,,,,,,,,,,,,,,,,,,,,,,,,,,,,,
,,,,,,,,,,5fc9009e38ffaa3301b69c16,22,Kobieta,2022-05-28_09h37.49.414,task,2021.1.4,Win32,59.96282305,628b806c463b948bc644b84f,6291cfd36a2eb044c52c03e7,,,,,,,,,,,jfwv,"[""j"",""f"",""w"",""v""]","[2.325999999999965,2.9031999999880895,3.8781999999880554,3.9404000000059227,4.56159999999403]",1,JFWV,5,0,5,0,1,,,,,,,,,,,,,,,,,,,,,,,,,,,,,,,,,,,,,,,,,,,,,,,,,,,,,,,,,,,,,,,,,,,,,,,,,,,,,,,,,,,
,,,,,,,,,,5fc9009e38ffaa3301b69c16,22,Kobieta,2022-05-28_09h37.49.414,task,2021.1.4,Win32,59.96282305,628b806c463b948bc644b84f,6291cfd36a2eb044c52c03e7,,,,,0,0,0,0,1,"X V Q F H G B L J M P D K C T S W R N Z
",,,,,,,,,,,,,,,,,,,,,,,,,,,,,,,,,,,,,,,,,,,,,,,,,,,,,,,,,,,,,,,,,,,,,,,,,,,,,,,,,,,,,,,,,,,,,
,,,,,,,,,,5fc9009e38ffaa3301b69c16,22,Kobieta,2022-05-28_09h37.49.414,task,2021.1.4,Win32,59.96282305,628b806c463b948bc644b84f,6291cfd36a2eb044c52c03e7,,,,,1,0,1,0,1,"X V Q F H G B L J M P D K C T S W R N Z
",,,,,,,,,,,,,,,,,,,,,,,,,,,,,,,,,,,,,,,,,,,,,,,,,,,,,,,,,,,,,,,,,,,,,,,,,,,,,,,,,,,,,,,,,,,,,
,,,,,,,,,,5fc9009e38ffaa3301b69c16,22,Kobieta,2022-05-28_09h37.49.414,task,2021.1.4,Win32,59.96282305,628b806c463b948bc644b84f,6291cfd36a2eb044c52c03e7,,,,,2,0,2,0,1,"X V Q F H G B L J M P D K C T S W R N Z
",,,,,,,,,,,,,,,,,,,,,,,,,,,,,,,,,,,,,,,,,,,,,,,,,,,,,,,,,,,,,,,,,,,,,,,,,,,,,,,,,,,,,,,,,,,,,
,,,,,,,,,,5fc9009e38ffaa3301b69c16,22,Kobieta,2022-05-28_09h37.49.414,task,2021.1.4,Win32,59.96282305,628b806c463b948bc644b84f,6291cfd36a2eb044c52c03e7,,,,,3,0,3,0,1,"X V Q F H G B L J M P D K C T S W R N Z
",,,,,,,,,,,,,,,,,,,,,,,,,,,,,,,,,,,,,,,,,,,,,,,,,,,,,,,,,,,,,,,,,,,,,,,,,,,,,,,,,,,,,,,,,,,,,
,,,,,,,,,,5fc9009e38ffaa3301b69c16,22,Kobieta,2022-05-28_09h37.49.414,task,2021.1.4,Win32,59.96282305,628b806c463b948bc644b84f,6291cfd36a2eb044c52c03e7,,,,,4,0,4,0,1,"X V Q F H G B L J M P D K C T S W R N Z
",,,,,,,,,,,,,,,,,,,,,,,,,,,,,,,,,,,,,,,,,,,,,,,,,,,,,,,,,,,,,,,,,,,,,,,,,,,,,,,,,,,,,,,,,,,,,
,,,,,,,,,,5fc9009e38ffaa3301b69c16,22,Kobieta,2022-05-28_09h37.49.414,task,2021.1.4,Win32,59.96282305,628b806c463b948bc644b84f,6291cfd36a2eb044c52c03e7,,,,,,,,,,,tvlrr,"[""t"",""v"",""l"",""r"",""r""]","[1.676999999999964,2.127200000017865,3.026700000017854,3.3384000000059473,3.438400000005913,3.60620000001785]",1,TVLRR,6,0,6,0,1,,,,,,,,,,,,,,,,,,,,,,,,,,,,,,,,,,,,,,,,,,,,,,,,,,,,,,,,,,,,,,,,,,,,,,,,,,,,,,,,,,,
,,,,,,,,,,5fc9009e38ffaa3301b69c16,22,Kobieta,2022-05-28_09h37.49.414,task,2021.1.4,Win32,59.96282305,628b806c463b948bc644b84f,6291cfd36a2eb044c52c03e7,,,,,0,0,0,0,1,"X V Q F H G B L J M P D K C T S W R N Z
",,,,,,,,,,,,,,,,,,,,,,,,,,,,,,,,,,,,,,,,,,,,,,,,,,,,,,,,,,,,,,,,,,,,,,,,,,,,,,,,,,,,,,,,,,,,,
,,,,,,,,,,5fc9009e38ffaa3301b69c16,22,Kobieta,2022-05-28_09h37.49.414,task,2021.1.4,Win32,59.96282305,628b806c463b948bc644b84f,6291cfd36a2eb044c52c03e7,,,,,1,0,1,0,1,"X V Q F H G B L J M P D K C T S W R N Z
",,,,,,,,,,,,,,,,,,,,,,,,,,,,,,,,,,,,,,,,,,,,,,,,,,,,,,,,,,,,,,,,,,,,,,,,,,,,,,,,,,,,,,,,,,,,,
,,,,,,,,,,5fc9009e38ffaa3301b69c16,22,Kobieta,2022-05-28_09h37.49.414,task,2021.1.4,Win32,59.96282305,628b806c463b948bc644b84f,6291cfd36a2eb044c52c03e7,,,,,2,0,2,0,1,"X V Q F H G B L J M P D K C T S W R N Z
",,,,,,,,,,,,,,,,,,,,,,,,,,,,,,,,,,,,,,,,,,,,,,,,,,,,,,,,,,,,,,,,,,,,,,,,,,,,,,,,,,,,,,,,,,,,,
,,,,,,,,,,5fc9009e38ffaa3301b69c16,22,Kobieta,2022-05-28_09h37.49.414,task,2021.1.4,Win32,59.96282305,628b806c463b948bc644b84f,6291cfd36a2eb044c52c03e7,,,,,3,0,3,0,1,"X V Q F H G B L J M P D K C T S W R N Z
",,,,,,,,,,,,,,,,,,,,,,,,,,,,,,,,,,,,,,,,,,,,,,,,,,,,,,,,,,,,,,,,,,,,,,,,,,,,,,,,,,,,,,,,,,,,,
,,,,,,,,,,5fc9009e38ffaa3301b69c16,22,Kobieta,2022-05-28_09h37.49.414,task,2021.1.4,Win32,59.96282305,628b806c463b948bc644b84f,6291cfd36a2eb044c52c03e7,,,,,4,0,4,0,1,"X V Q F H G B L J M P D K C T S W R N Z
",,,,,,,,,,,,,,,,,,,,,,,,,,,,,,,,,,,,,,,,,,,,,,,,,,,,,,,,,,,,,,,,,,,,,,,,,,,,,,,,,,,,,,,,,,,,,
,,,,,,,,,,5fc9009e38ffaa3301b69c16,22,Kobieta,2022-05-28_09h37.49.414,task,2021.1.4,Win32,59.96282305,628b806c463b948bc644b84f,6291cfd36a2eb044c52c03e7,,,,,,,,,,,wvdlq,"[""w"",""v"",""d"",""l"",""q""]","[1.3210999999940327,2.721899999976131,3.4909999999999854,3.891599999994014,4.292299999982106,4.6749999999999545]",0,VWDLQ,7,0,7,0,1,,,,,,,,,,,,,,,,,,,,,,,,,,,,,,,,,,,,,,,,,,,,,,,,,,,,,,,,,,,,,,,,,,,,,,,,,,,,,,,,,,,
,,,,,,,,,,5fc9009e38ffaa3301b69c16,22,Kobieta,2022-05-28_09h37.49.414,task,2021.1.4,Win32,59.96282305,628b806c463b948bc644b84f,6291cfd36a2eb044c52c03e7,,,,,0,0,0,0,1,"X V Q F H G B L J M P D K C T S W R N Z
",,,,,,,,,,,,,,,,,,,,,,,,,,,,,,,,,,,,,,,,,,,,,,,,,,,,,,,,,,,,,,,,,,,,,,,,,,,,,,,,,,,,,,,,,,,,,
,,,,,,,,,,5fc9009e38ffaa3301b69c16,22,Kobieta,2022-05-28_09h37.49.414,task,2021.1.4,Win32,59.96282305,628b806c463b948bc644b84f,6291cfd36a2eb044c52c03e7,,,,,1,0,1,0,1,"X V Q F H G B L J M P D K C T S W R N Z
",,,,,,,,,,,,,,,,,,,,,,,,,,,,,,,,,,,,,,,,,,,,,,,,,,,,,,,,,,,,,,,,,,,,,,,,,,,,,,,,,,,,,,,,,,,,,
,,,,,,,,,,5fc9009e38ffaa3301b69c16,22,Kobieta,2022-05-28_09h37.49.414,task,2021.1.4,Win32,59.96282305,628b806c463b948bc644b84f,6291cfd36a2eb044c52c03e7,,,,,2,0,2,0,1,"X V Q F H G B L J M P D K C T S W R N Z
",,,,,,,,,,,,,,,,,,,,,,,,,,,,,,,,,,,,,,,,,,,,,,,,,,,,,,,,,,,,,,,,,,,,,,,,,,,,,,,,,,,,,,,,,,,,,
,,,,,,,,,,5fc9009e38ffaa3301b69c16,22,Kobieta,2022-05-28_09h37.49.414,task,2021.1.4,Win32,59.96282305,628b806c463b948bc644b84f,6291cfd36a2eb044c52c03e7,,,,,3,0,3,0,1,"X V Q F H G B L J M P D K C T S W R N Z
",,,,,,,,,,,,,,,,,,,,,,,,,,,,,,,,,,,,,,,,,,,,,,,,,,,,,,,,,,,,,,,,,,,,,,,,,,,,,,,,,,,,,,,,,,,,,
,,,,,,,,,,5fc9009e38ffaa3301b69c16,22,Kobieta,2022-05-28_09h37.49.414,task,2021.1.4,Win32,59.96282305,628b806c463b948bc644b84f,6291cfd36a2eb044c52c03e7,,,,,4,0,4,0,1,"X V Q F H G B L J M P D K C T S W R N Z
",,,,,,,,,,,,,,,,,,,,,,,,,,,,,,,,,,,,,,,,,,,,,,,,,,,,,,,,,,,,,,,,,,,,,,,,,,,,,,,,,,,,,,,,,,,,,
,,,,,,,,,,5fc9009e38ffaa3301b69c16,22,Kobieta,2022-05-28_09h37.49.414,task,2021.1.4,Win32,59.96282305,628b806c463b948bc644b84f,6291cfd36a2eb044c52c03e7,,,,,,,,,,,rrfhd,"[""r"",""r"",""f"",""h"",""d""]","[1.3514999999999873,1.485599999994065,2.912700000017878,3.0880000000000223,3.326999999999998,3.4465000000000146]",1,RRFHD,8,0,8,0,1,,,,,,,,,,,,,,,,,,,,,,,,,,,,,,,,,,,,,,,,,,,,,,,,,,,,,,,,,,,,,,,,,,,,,,,,,,,,,,,,,,,
,,,,,,,,,,5fc9009e38ffaa3301b69c16,22,Kobieta,2022-05-28_09h37.49.414,task,2021.1.4,Win32,59.96282305,628b806c463b948bc644b84f,6291cfd36a2eb044c52c03e7,,,,,0,0,0,0,1,"X V Q F H G B L J M P D K C T S W R N Z
",,,,,,,,,,,,,,,,,,,,,,,,,,,,,,,,,,,,,,,,,,,,,,,,,,,,,,,,,,,,,,,,,,,,,,,,,,,,,,,,,,,,,,,,,,,,,
,,,,,,,,,,5fc9009e38ffaa3301b69c16,22,Kobieta,2022-05-28_09h37.49.414,task,2021.1.4,Win32,59.96282305,628b806c463b948bc644b84f,6291cfd36a2eb044c52c03e7,,,,,1,0,1,0,1,"X V Q F H G B L J M P D K C T S W R N Z
",,,,,,,,,,,,,,,,,,,,,,,,,,,,,,,,,,,,,,,,,,,,,,,,,,,,,,,,,,,,,,,,,,,,,,,,,,,,,,,,,,,,,,,,,,,,,
,,,,,,,,,,5fc9009e38ffaa3301b69c16,22,Kobieta,2022-05-28_09h37.49.414,task,2021.1.4,Win32,59.96282305,628b806c463b948bc644b84f,6291cfd36a2eb044c52c03e7,,,,,2,0,2,0,1,"X V Q F H G B L J M P D K C T S W R N Z
",,,,,,,,,,,,,,,,,,,,,,,,,,,,,,,,,,,,,,,,,,,,,,,,,,,,,,,,,,,,,,,,,,,,,,,,,,,,,,,,,,,,,,,,,,,,,
,,,,,,,,,,5fc9009e38ffaa3301b69c16,22,Kobieta,2022-05-28_09h37.49.414,task,2021.1.4,Win32,59.96282305,628b806c463b948bc644b84f,6291cfd36a2eb044c52c03e7,,,,,3,0,3,0,1,"X V Q F H G B L J M P D K C T S W R N Z
",,,,,,,,,,,,,,,,,,,,,,,,,,,,,,,,,,,,,,,,,,,,,,,,,,,,,,,,,,,,,,,,,,,,,,,,,,,,,,,,,,,,,,,,,,,,,
,,,,,,,,,,5fc9009e38ffaa3301b69c16,22,Kobieta,2022-05-28_09h37.49.414,task,2021.1.4,Win32,59.96282305,628b806c463b948bc644b84f,6291cfd36a2eb044c52c03e7,,,,,4,0,4,0,1,"X V Q F H G B L J M P D K C T S W R N Z
",,,,,,,,,,,,,,,,,,,,,,,,,,,,,,,,,,,,,,,,,,,,,,,,,,,,,,,,,,,,,,,,,,,,,,,,,,,,,,,,,,,,,,,,,,,,,
,,,,,,,,,,5fc9009e38ffaa3301b69c16,22,Kobieta,2022-05-28_09h37.49.414,task,2021.1.4,Win32,59.96282305,628b806c463b948bc644b84f,6291cfd36a2eb044c52c03e7,,,,,5,0,5,0,1,"X V Q F H G B L J M P D K C T S W R N Z
",,,,,,,,,,,,,,,,,,,,,,,,,,,,,,,,,,,,,,,,,,,,,,,,,,,,,,,,,,,,,,,,,,,,,,,,,,,,,,,,,,,,,,,,,,,,,
,,,,,,,,,,5fc9009e38ffaa3301b69c16,22,Kobieta,2022-05-28_09h37.49.414,task,2021.1.4,Win32,59.96282305,628b806c463b948bc644b84f,6291cfd36a2eb044c52c03e7,,,,,,,,,,,vcmvcm,"[""v"",""c"",""m"",""v"",""c"",""m""]","[1.002599999994061,1.6692999999821154,1.973299999982146,2.371399999976177,2.8905999999940377,3.0241999999880704,3.51309999999404]",0,VCNWCM,9,0,9,0,1,,,,,,,,,,,,,,,,,,,,,,,,,,,,,,,,,,,,,,,,,,,,,,,,,,,,,,,,,,,,,,,,,,,,,,,,,,,,,,,,,,,
,,,,,,,,,,5fc9009e38ffaa3301b69c16,22,Kobieta,2022-05-28_09h37.49.414,task,2021.1.4,Win32,59.96282305,628b806c463b948bc644b84f,6291cfd36a2eb044c52c03e7,,,,,0,0,0,0,1,"X V Q F H G B L J M P D K C T S W R N Z
",,,,,,,,,,,,,,,,,,,,,,,,,,,,,,,,,,,,,,,,,,,,,,,,,,,,,,,,,,,,,,,,,,,,,,,,,,,,,,,,,,,,,,,,,,,,,
,,,,,,,,,,5fc9009e38ffaa3301b69c16,22,Kobieta,2022-05-28_09h37.49.414,task,2021.1.4,Win32,59.96282305,628b806c463b948bc644b84f,6291cfd36a2eb044c52c03e7,,,,,1,0,1,0,1,"X V Q F H G B L J M P D K C T S W R N Z
",,,,,,,,,,,,,,,,,,,,,,,,,,,,,,,,,,,,,,,,,,,,,,,,,,,,,,,,,,,,,,,,,,,,,,,,,,,,,,,,,,,,,,,,,,,,,
,,,,,,,,,,5fc9009e38ffaa3301b69c16,22,Kobieta,2022-05-28_09h37.49.414,task,2021.1.4,Win32,59.96282305,628b806c463b948bc644b84f,6291cfd36a2eb044c52c03e7,,,,,2,0,2,0,1,"X V Q F H G B L J M P D K C T S W R N Z
",,,,,,,,,,,,,,,,,,,,,,,,,,,,,,,,,,,,,,,,,,,,,,,,,,,,,,,,,,,,,,,,,,,,,,,,,,,,,,,,,,,,,,,,,,,,,
,,,,,,,,,,5fc9009e38ffaa3301b69c16,22,Kobieta,2022-05-28_09h37.49.414,task,2021.1.4,Win32,59.96282305,628b806c463b948bc644b84f,6291cfd36a2eb044c52c03e7,,,,,3,0,3,0,1,"X V Q F H G B L J M P D K C T S W R N Z
",,,,,,,,,,,,,,,,,,,,,,,,,,,,,,,,,,,,,,,,,,,,,,,,,,,,,,,,,,,,,,,,,,,,,,,,,,,,,,,,,,,,,,,,,,,,,
,,,,,,,,,,5fc9009e38ffaa3301b69c16,22,Kobieta,2022-05-28_09h37.49.414,task,2021.1.4,Win32,59.96282305,628b806c463b948bc644b84f,6291cfd36a2eb044c52c03e7,,,,,4,0,4,0,1,"X V Q F H G B L J M P D K C T S W R N Z
",,,,,,,,,,,,,,,,,,,,,,,,,,,,,,,,,,,,,,,,,,,,,,,,,,,,,,,,,,,,,,,,,,,,,,,,,,,,,,,,,,,,,,,,,,,,,
,,,,,,,,,,5fc9009e38ffaa3301b69c16,22,Kobieta,2022-05-28_09h37.49.414,task,2021.1.4,Win32,59.96282305,628b806c463b948bc644b84f,6291cfd36a2eb044c52c03e7,,,,,5,0,5,0,1,"X V Q F H G B L J M P D K C T S W R N Z
",,,,,,,,,,,,,,,,,,,,,,,,,,,,,,,,,,,,,,,,,,,,,,,,,,,,,,,,,,,,,,,,,,,,,,,,,,,,,,,,,,,,,,,,,,,,,
,,,,,,,,,,5fc9009e38ffaa3301b69c16,22,Kobieta,2022-05-28_09h37.49.414,task,2021.1.4,Win32,59.96282305,628b806c463b948bc644b84f,6291cfd36a2eb044c52c03e7,,,,,,,,,,,mblbgl,"[""m"",""b"",""l"",""b"",""g"",""l""]","[1.5361999999880709,2.1374999999999886,3.7391999999880454,6.046199999988062,6.316199999988044,6.4000999999940404,6.555999999999983]",0,MGLBGL,10,0,10,0,1,,,,,,,,,,,,,,,,,,,,,,,,,,,,,,,,,,,,,,,,,,,,,,,,,,,,,,,,,,,,,,,,,,,,,,,,,,,,,,,,,,,
,,,,,,,,,,5fc9009e38ffaa3301b69c16,22,Kobieta,2022-05-28_09h37.49.414,task,2021.1.4,Win32,59.96282305,628b806c463b948bc644b84f,6291cfd36a2eb044c52c03e7,,,,,0,0,0,0,1,"X V Q F H G B L J M P D K C T S W R N Z
",,,,,,,,,,,,,,,,,,,,,,,,,,,,,,,,,,,,,,,,,,,,,,,,,,,,,,,,,,,,,,,,,,,,,,,,,,,,,,,,,,,,,,,,,,,,,
,,,,,,,,,,5fc9009e38ffaa3301b69c16,22,Kobieta,2022-05-28_09h37.49.414,task,2021.1.4,Win32,59.96282305,628b806c463b948bc644b84f,6291cfd36a2eb044c52c03e7,,,,,1,0,1,0,1,"X V Q F H G B L J M P D K C T S W R N Z
",,,,,,,,,,,,,,,,,,,,,,,,,,,,,,,,,,,,,,,,,,,,,,,,,,,,,,,,,,,,,,,,,,,,,,,,,,,,,,,,,,,,,,,,,,,,,
,,,,,,,,,,5fc9009e38ffaa3301b69c16,22,Kobieta,2022-05-28_09h37.49.414,task,2021.1.4,Win32,59.96282305,628b806c463b948bc644b84f,6291cfd36a2eb044c52c03e7,,,,,2,0,2,0,1,"X V Q F H G B L J M P D K C T S W R N Z
",,,,,,,,,,,,,,,,,,,,,,,,,,,,,,,,,,,,,,,,,,,,,,,,,,,,,,,,,,,,,,,,,,,,,,,,,,,,,,,,,,,,,,,,,,,,,
,,,,,,,,,,5fc9009e38ffaa3301b69c16,22,Kobieta,2022-05-28_09h37.49.414,task,2021.1.4,Win32,59.96282305,628b806c463b948bc644b84f,6291cfd36a2eb044c52c03e7,,,,,3,0,3,0,1,"X V Q F H G B L J M P D K C T S W R N Z
",,,,,,,,,,,,,,,,,,,,,,,,,,,,,,,,,,,,,,,,,,,,,,,,,,,,,,,,,,,,,,,,,,,,,,,,,,,,,,,,,,,,,,,,,,,,,
,,,,,,,,,,5fc9009e38ffaa3301b69c16,22,Kobieta,2022-05-28_09h37.49.414,task,2021.1.4,Win32,59.96282305,628b806c463b948bc644b84f,6291cfd36a2eb044c52c03e7,,,,,4,0,4,0,1,"X V Q F H G B L J M P D K C T S W R N Z
",,,,,,,,,,,,,,,,,,,,,,,,,,,,,,,,,,,,,,,,,,,,,,,,,,,,,,,,,,,,,,,,,,,,,,,,,,,,,,,,,,,,,,,,,,,,,
,,,,,,,,,,5fc9009e38ffaa3301b69c16,22,Kobieta,2022-05-28_09h37.49.414,task,2021.1.4,Win32,59.96282305,628b806c463b948bc644b84f,6291cfd36a2eb044c52c03e7,,,,,5,0,5,0,1,"X V Q F H G B L J M P D K C T S W R N Z
",,,,,,,,,,,,,,,,,,,,,,,,,,,,,,,,,,,,,,,,,,,,,,,,,,,,,,,,,,,,,,,,,,,,,,,,,,,,,,,,,,,,,,,,,,,,,
,,,,,,,,,,5fc9009e38ffaa3301b69c16,22,Kobieta,2022-05-28_09h37.49.414,task,2021.1.4,Win32,59.96282305,628b806c463b948bc644b84f,6291cfd36a2eb044c52c03e7,,,,,,,,,,,rjvrcd,"[""r"",""j"",""v"",""r"",""c"",""d""]","[1.248300000011909,1.5659000000059677,1.8548000000119487,2.188800000011952,2.954100000023857,3.117999999999995,3.369000000000028]",0,NJVRCD,11,0,11,0,1,,,,,,,,,,,,,,,,,,,,,,,,,,,,,,,,,,,,,,,,,,,,,,,,,,,,,,,,,,,,,,,,,,,,,,,,,,,,,,,,,,,
,,,,,,,,,,5fc9009e38ffaa3301b69c16,22,Kobieta,2022-05-28_09h37.49.414,task,2021.1.4,Win32,59.96282305,628b806c463b948bc644b84f,6291cfd36a2eb044c52c03e7,,,,,,,,,,,,,,,,,,,,,space,21.5628,3,"[""3""]",1,[4.624699999988081],[4.624699999988081],0,0,0,3,1,Practice,4,(8/4) + 1,3,,,,,,,,,,,,,,,,,,,,,,,,,,,,,,,,,,,,,,,,,,,,,,,,,,,,,,,,,,,,,,,,,,,
,,,,,,,,,,5fc9009e38ffaa3301b69c16,22,Kobieta,2022-05-28_09h37.49.414,task,2021.1.4,Win32,59.96282305,628b806c463b948bc644b84f,6291cfd36a2eb044c52c03e7,,,,,,,,,,,,,,,,,,,,,,,8,"[""8""]",1,[2.2982999999821345],"[4.624699999988081,2.2982999999821345]",0,1,1,8,1,Practice,9,(3x3) - 1,8,,,,,,,,,,,,,,,,,,,,,,,,,,,,,,,,,,,,,,,,,,,,,,,,,,,,,,,,,,,,,,,,,,,
,,,,,,,,,,5fc9009e38ffaa3301b69c16,22,Kobieta,2022-05-28_09h37.49.414,task,2021.1.4,Win32,59.96282305,628b806c463b948bc644b84f,6291cfd36a2eb044c52c03e7,,,,,,,,,,,,,,,,,,,,,,,2,"[""2""]",1,[2.173599999994053],"[4.624699999988081,2.2982999999821345,2.173599999994053]",0,2,2,2,1,Practice,3,(4x4) - 14,2,,,,,,,,,,,,,,,,,,,,,,,,,,,,,,,,,,,,,,,,,,,,,,,,,,,,,,,,,,,,,,,,,,,
,,,,,,,,,,5fc9009e38ffaa3301b69c16,22,Kobieta,2022-05-28_09h37.49.414,task,2021.1.4,Win32,59.96282305,628b806c463b948bc644b84f,6291cfd36a2eb044c52c03e7,,,,,,,,,,,,,,,,,,,,,,,4,"[""4""]",1,[2.49610000002383],"[4.624699999988081,2.2982999999821345,2.173599999994053,2.49610000002383]",0,3,3,4,1,Practice,5,(2x6) - 8,4,,,,,,,,,,,,,,,,,,,,,,,,,,,,,,,,,,,,,,,,,,,,,,,,,,,,,,,,,,,,,,,,,,,
,,,,,,,,,,5fc9009e38ffaa3301b69c16,22,Kobieta,2022-05-28_09h37.49.414,task,2021.1.4,Win32,59.96282305,628b806c463b948bc644b84f,6291cfd36a2eb044c52c03e7,,,,,,,,,,,,,,,,,,,,,,,1,"[""1""]",1,[1.745699999988119],"[4.624699999988081,2.2982999999821345,2.173599999994053,2.49610000002383,1.745699999988119]",0,4,4,1,1,Practice,2,(4x4) - 15,1,,,,,,,,,,,,,,,,,,,,,,,,,,,,,,,,,,,,,,,,,,,,,,,,,,,,,,,,,,,,,,,,,,,
,,,,,,,,,,5fc9009e38ffaa3301b69c16,22,Kobieta,2022-05-28_09h37.49.414,task,2021.1.4,Win32,59.96282305,628b806c463b948bc644b84f,6291cfd36a2eb044c52c03e7,,,,,,,,,,,,,,,,,,,,,,,5,"[""5""]",1,[3.22380000001192],"[4.624699999988081,2.2982999999821345,2.173599999994053,2.49610000002383,1.745699999988119,3.22380000001192]",0,5,5,5,1,Practice,6,(4/2) + 3,5,,,,,,,,,,,,,,,,,,,,,,,,,,,,,,,,,,,,,,,,,,,,,,,,,,,,,,,,,,,,,,,,,,,
,,,,,,,,,,5fc9009e38ffaa3301b69c16,22,Kobieta,2022-05-28_09h37.49.414,task,2021.1.4,Win32,59.96282305,628b806c463b948bc644b84f,6291cfd36a2eb044c52c03e7,,,,,,,,,,,,,,,,,,,,,,,0,"[""0""]",1,[1.8718000000119446],"[4.624699999988081,2.2982999999821345,2.173599999994053,2.49610000002383,1.745699999988119,3.22380000001192,1.8718000000119446]",0,6,6,0,1,Practice,1,(3x3) -  9,0,,,,,,,,,,,,,,,,,,,,,,,,,,,,,,,,,,,,,,,,,,,,,,,,,,,,,,,,,,,,,,,,,,,
,,,,,,,,,,5fc9009e38ffaa3301b69c16,22,Kobieta,2022-05-28_09h37.49.414,task,2021.1.4,Win32,59.96282305,628b806c463b948bc644b84f,6291cfd36a2eb044c52c03e7,,,,,,,,,,,,,,,,,,,,,,,7,"[""7""]",1,[2.893400000005954],"[4.624699999988081,2.2982999999821345,2.173599999994053,2.49610000002383,1.745699999988119,3.22380000001192,1.8718000000119446,2.893400000005954]",0,7,7,7,1,Practice,8,(5x5) - 18,7,,,,,,,,,,,,,,,,,,,,,,,,,,,,,,,,,,,,,,,,,,,,,,,,,,,,,,,,,,,,,,,,,,,
,,,,,,,,,,5fc9009e38ffaa3301b69c16,22,Kobieta,2022-05-28_09h37.49.414,task,2021.1.4,Win32,59.96282305,628b806c463b948bc644b84f,6291cfd36a2eb044c52c03e7,,,,,,,,,,,,,,,,,,,,,,,6,"[""6""]",1,[1.7029999999999745],"[4.624699999988081,2.2982999999821345,2.173599999994053,2.49610000002383,1.745699999988119,3.22380000001192,1.8718000000119446,2.893400000005954,1.7029999999999745]",0,8,8,6,1,Practice,7,(25/5) + 1,6,,,,,,,,,,,,,,,,,,,,,,,,,,,,,,,,,,,,,,,,,,,,,,,,,,,,,,,,,,,,,,,,,,,
,,,,,,,,,,5fc9009e38ffaa3301b69c16,22,Kobieta,2022-05-28_09h37.49.414,task,2021.1.4,Win32,59.96282305,628b806c463b948bc644b84f,6291cfd36a2eb044c52c03e7,,,,,,,,,,,,,,,,,,,,,,,9,"[""9""]",1,[2.3761999999881027],"[4.624699999988081,2.2982999999821345,2.173599999994053,2.49610000002383,1.745699999988119,3.22380000001192,1.8718000000119446,2.893400000005954,1.7029999999999745,2.3761999999881027]",0,9,9,9,1,Practice,10,(20/2) - 1,9,,,,,,,,,,,,,,,,,,,,,,,,,,,,,,,,,,,,,,,,,,,,,,,,,,,,,,,,,,,,,,,,,,,
,,,,,,,,,,5fc9009e38ffaa3301b69c16,22,Kobieta,2022-05-28_09h37.49.414,task,2021.1.4,Win32,59.96282305,628b806c463b948bc644b84f,6291cfd36a2eb044c52c03e7,,,,,,,,,,,,,,,,,,,,,,,,,,,,,,,,,,,,,1,25.4066,1.693773333,14.11001223,0.969880138,4.196064089,space,2.1249,0,0,0,0,1,,,,,,,,,,,,,,,,,,,,,,,,,,,,,,,,,,,,,,,,,,,,,,,,,,,,,,
,,,,,,,,,,5fc9009e38ffaa3301b69c16,22,Kobieta,2022-05-28_09h37.49.414,task,2021.1.4,Win32,59.96282305,628b806c463b948bc644b84f,6291cfd36a2eb044c52c03e7,,,,,,,,,,,,,,,,,,,,,,,4,,,,,,,,,,Practice,5,(2x6) - 8,4,,,,,,,,,,,,,,space,13.7282,"[""4""]",1,[2.0870999999940523],1,0,0,0,4,1,,,,,,,,,,,,,,,,,,,,,,,,,,,,,,,,,,,,,,,,,,,
,,,,,,,,,,5fc9009e38ffaa3301b69c16,22,Kobieta,2022-05-28_09h37.49.414,task,2021.1.4,Win32,59.96282305,628b806c463b948bc644b84f,6291cfd36a2eb044c52c03e7,,,,,,,,,,"X V Q F H G B L J M P D K C T S W R N Z
",,,,,,,,,,,,,,,,,,,,,,,,,,,,,,,,,,,,,,,,,,,,,,,,,,,0,0,0,0,1,,,,,,,,,,,,,,,,,,,,,,,,,,,,,,,,,,,,,,
,,,,,,,,,,5fc9009e38ffaa3301b69c16,22,Kobieta,2022-05-28_09h37.49.414,task,2021.1.4,Win32,59.96282305,628b806c463b948bc644b84f,6291cfd36a2eb044c52c03e7,,,,,,,,,,,,,,,,,,,,,,,6,,,,,,,,,,Practice,7,(25/5) + 1,6,,,,,,,,,,,,,,,,"[""6""]",1,[2.2441000000238773],1,0,0,0,6,1,,,,,,,,,,,,,,,,,,,,,,,,,,,,,,,,,,,,,,,,,,,
,,,,,,,,,,5fc9009e38ffaa3301b69c16,22,Kobieta,2022-05-28_09h37.49.414,task,2021.1.4,Win32,59.96282305,628b806c463b948bc644b84f,6291cfd36a2eb044c52c03e7,,,,,,,,,,"X V Q F H G B L J M P D K C T S W R N Z
",,,,,,,,,,,,,,,,,,,,,,,,,,,,,,,,,,,,,,,,,,,,,,,,,,,1,0,1,0,1,,,,,,,,,,,,,,,,,,,,,,,,,,,,,,,,,,,,,,
,,,,,,,,,,5fc9009e38ffaa3301b69c16,22,Kobieta,2022-05-28_09h37.49.414,task,2021.1.4,Win32,59.96282305,628b806c463b948bc644b84f,6291cfd36a2eb044c52c03e7,,,,,,,,,,,,,,,,,,,,,,,,,,,,,,,,,,,,,,,,,,,,,,,,,,,,,,,,,,,,,,,,,,zn,"[""z"",""n""]",0,"[2.4770999999940955,2.6070000000000277,3.543699999988121]",1,0,0,0,0,1,,,,,,,,,,,,,,,,,,,,,,,,,,,,
,,,,,,,,,,5fc9009e38ffaa3301b69c16,22,Kobieta,2022-05-28_09h37.49.414,task,2021.1.4,Win32,59.96282305,628b806c463b948bc644b84f,6291cfd36a2eb044c52c03e7,,,,,,,,,,,,,,,,,,,,,,,2,,,,,,,,,,Practice,3,(4x4) - 14,2,,,,,,,,,,,,,,,,"[""2""]",1,[1.5211999999880845],1,0,0,0,2,1,,,,,,,,,,,,,,,,,,,,,,,,,,,,,,,,,,,,,,,,,,,
,,,,,,,,,,5fc9009e38ffaa3301b69c16,22,Kobieta,2022-05-28_09h37.49.414,task,2021.1.4,Win32,59.96282305,628b806c463b948bc644b84f,6291cfd36a2eb044c52c03e7,,,,,,,,,,"X V Q F H G B L J M P D K C T S W R N Z
",,,,,,,,,,,,,,,,,,,,,,,,,,,,,,,,,,,,,,,,,,,,,,,,,,,0,0,0,0,1,,,,,,,,,,,,,,,,,,,,,,,,,,,,,,,,,,,,,,
,,,,,,,,,,5fc9009e38ffaa3301b69c16,22,Kobieta,2022-05-28_09h37.49.414,task,2021.1.4,Win32,59.96282305,628b806c463b948bc644b84f,6291cfd36a2eb044c52c03e7,,,,,,,,,,,,,,,,,,,,,,,0,,,,,,,,,,Practice,1,(3x3) -  9,0,,,,,,,,,,,,,,,,"[""0""]",1,[1.392900000005966],1,0,0,0,0,1,,,,,,,,,,,,,,,,,,,,,,,,,,,,,,,,,,,,,,,,,,,
,,,,,,,,,,5fc9009e38ffaa3301b69c16,22,Kobieta,2022-05-28_09h37.49.414,task,2021.1.4,Win32,59.96282305,628b806c463b948bc644b84f,6291cfd36a2eb044c52c03e7,,,,,,,,,,"X V Q F H G B L J M P D K C T S W R N Z
",,,,,,,,,,,,,,,,,,,,,,,,,,,,,,,,,,,,,,,,,,,,,,,,,,,1,0,1,0,1,,,,,,,,,,,,,,,,,,,,,,,,,,,,,,,,,,,,,,
,,,,,,,,,,5fc9009e38ffaa3301b69c16,22,Kobieta,2022-05-28_09h37.49.414,task,2021.1.4,Win32,59.96282305,628b806c463b948bc644b84f,6291cfd36a2eb044c52c03e7,,,,,,,,,,,,,,,,,,,,,,,,,,,,,,,,,,,,,,,,,,,,,,,,,,,,,,,,,,,,,,,,,,ds,"[""d"",""s""]",0,"[1.7222000000178923,1.9778000000118823,3.6942000000178723]",1,1,0,1,0,1,,,,,,,,,,,,,,,,,,,,,,,,,,,,
,,,,,,,,,,5fc9009e38ffaa3301b69c16,22,Kobieta,2022-05-28_09h37.49.414,task,2021.1.4,Win32,59.96282305,628b806c463b948bc644b84f,6291cfd36a2eb044c52c03e7,,,,,,,,,,,,,,,,,,,,,,,9,,,,,,,,,,Practice,10,(20/2) - 1,9,,,,,,,,,,,,,,,,"[""9""]",1,[1.588700000017866],1,0,0,0,9,1,,,,,,,,,,,,,,,,,,,,,,,,,,,,,,,,,,,,,,,,,,,
,,,,,,,,,,5fc9009e38ffaa3301b69c16,22,Kobieta,2022-05-28_09h37.49.414,task,2021.1.4,Win32,59.96282305,628b806c463b948bc644b84f,6291cfd36a2eb044c52c03e7,,,,,,,,,,"X V Q F H G B L J M P D K C T S W R N Z
",,,,,,,,,,,,,,,,,,,,,,,,,,,,,,,,,,,,,,,,,,,,,,,,,,,0,0,0,0,1,,,,,,,,,,,,,,,,,,,,,,,,,,,,,,,,,,,,,,
,,,,,,,,,,5fc9009e38ffaa3301b69c16,22,Kobieta,2022-05-28_09h37.49.414,task,2021.1.4,Win32,59.96282305,628b806c463b948bc644b84f,6291cfd36a2eb044c52c03e7,,,,,,,,,,,,,,,,,,,,,,,8,,,,,,,,,,Practice,9,(3x3) - 1,8,,,,,,,,,,,,,,,,"[""8""]",1,[1.7460999999939872],1,0,0,0,8,1,,,,,,,,,,,,,,,,,,,,,,,,,,,,,,,,,,,,,,,,,,,
,,,,,,,,,,5fc9009e38ffaa3301b69c16,22,Kobieta,2022-05-28_09h37.49.414,task,2021.1.4,Win32,59.96282305,628b806c463b948bc644b84f,6291cfd36a2eb044c52c03e7,,,,,,,,,,"X V Q F H G B L J M P D K C T S W R N Z
",,,,,,,,,,,,,,,,,,,,,,,,,,,,,,,,,,,,,,,,,,,,,,,,,,,1,0,1,0,1,,,,,,,,,,,,,,,,,,,,,,,,,,,,,,,,,,,,,,
,,,,,,,,,,5fc9009e38ffaa3301b69c16,22,Kobieta,2022-05-28_09h37.49.414,task,2021.1.4,Win32,59.96282305,628b806c463b948bc644b84f,6291cfd36a2eb044c52c03e7,,,,,,,,,,,,,,,,,,,,,,,,,,,,,,,,,,,,,,,,,,,,,,,,,,,,,,,,,,,,,,,,,,jj,"[""j"",""j""]",0,"[2.0589000000059627,2.2402000000178646,2.421400000005974]",1,2,0,2,0,1,,,,,,,,,,,,,,,,,,,,,,,,,,,,
,,,,,,,,,,5fc9009e38ffaa3301b69c16,22,Kobieta,2022-05-28_09h37.49.414,task,2021.1.4,Win32,59.96282305,628b806c463b948bc644b84f,6291cfd36a2eb044c52c03e7,,,,,,,,,,,,,,,,,,,,,,,6,,,,,,,,,,Task,13,(3x4) - 6,6,,,,,,,,,,,,,,,,,,,1,,,,,,,,,,,,,,,,,,,,,space,17.9053,"[""6""]",1,[2.7087000000178705],0,0,0,12,1,,,,,,,,,,,,,,,,,,
,,,,,,,,,,5fc9009e38ffaa3301b69c16,22,Kobieta,2022-05-28_09h37.49.414,task,2021.1.4,Win32,59.96282305,628b806c463b948bc644b84f,6291cfd36a2eb044c52c03e7,,,,,,,,,,"X V Q F H G B L J M P D K C T S W R N Z
",,,,,,,,,,,,,,,,,,,,,,,,,,,,,,,,,,,,,,,,,,,,,,,,,,,,,,,,,,,,,,,,,,,,,,,,,,,,0,0,0,0,1,,,,,,,,,,,,,
,,,,,,,,,,5fc9009e38ffaa3301b69c16,22,Kobieta,2022-05-28_09h37.49.414,task,2021.1.4,Win32,59.96282305,628b806c463b948bc644b84f,6291cfd36a2eb044c52c03e7,,,,,,,,,,,,,,,,,,,,,,,1,,,,,,,,,,Task,9,(3x7) - 20,1,,,,,,,,,,,,,,,,,,,1,,,,,,,,,,,,,,,,,,,,,,,"[""1""]",1,[2.4569000000059305],0,0,0,8,1,,,,,,,,,,,,,,,,,,
,,,,,,,,,,5fc9009e38ffaa3301b69c16,22,Kobieta,2022-05-28_09h37.49.414,task,2021.1.4,Win32,59.96282305,628b806c463b948bc644b84f,6291cfd36a2eb044c52c03e7,,,,,,,,,,"X V Q F H G B L J M P D K C T S W R N Z
",,,,,,,,,,,,,,,,,,,,,,,,,,,,,,,,,,,,,,,,,,,,,,,,,,,,,,,,,,,,,,,,,,,,,,,,,,,,1,0,1,0,1,,,,,,,,,,,,,
,,,,,,,,,,5fc9009e38ffaa3301b69c16,22,Kobieta,2022-05-28_09h37.49.414,task,2021.1.4,Win32,59.96282305,628b806c463b948bc644b84f,6291cfd36a2eb044c52c03e7,,,,,,,,,,,,,,,,,,,,,,,,,,,,,,,,,,,,,,,,,,,,,,,,,,,,,,,,,,,,,,,,,,,,,,,,,,,,,,,,,,,,,,,,,,,zl,"[""z"",""l""]",0,"[1.8740999999939731,2.030099999994036,3.2609999999999673]",1,ZL,0,0,0,0,1,,
,,,,,,,,,,5fc9009e38ffaa3301b69c16,22,Kobieta,2022-05-28_09h37.49.414,task,2021.1.4,Win32,59.96282305,628b806c463b948bc644b84f,6291cfd36a2eb044c52c03e7,,,,,,,,,,,,,,,,,,,,,,,4,,,,,,,,,,Task,28,(2x5) - 6,4,,,,,,,,,,,,,,,,,,,1,,,,,,,,,,,,,,,,,,,,,,,"[""4""]",1,[1.8627000000178668],0,0,0,27,1,,,,,,,,,,,,,,,,,,
,,,,,,,,,,5fc9009e38ffaa3301b69c16,22,Kobieta,2022-05-28_09h37.49.414,task,2021.1.4,Win32,59.96282305,628b806c463b948bc644b84f,6291cfd36a2eb044c52c03e7,,,,,,,,,,"X V Q F H G B L J M P D K C T S W R N Z
",,,,,,,,,,,,,,,,,,,,,,,,,,,,,,,,,,,,,,,,,,,,,,,,,,,,,,,,,,,,,,,,,,,,,,,,,,,,0,0,0,0,1,,,,,,,,,,,,,
,,,,,,,,,,5fc9009e38ffaa3301b69c16,22,Kobieta,2022-05-28_09h37.49.414,task,2021.1.4,Win32,59.96282305,628b806c463b948bc644b84f,6291cfd36a2eb044c52c03e7,,,,,,,,,,,,,,,,,,,,,,,7,,,,,,,,,,Task,31,(4/2) + 5,7,,,,,,,,,,,,,,,,,,,1,,,,,,,,,,,,,,,,,,,,,,,"[""7""]",1,[3.5439999999999827],0,0,0,30,1,,,,,,,,,,,,,,,,,,
,,,,,,,,,,5fc9009e38ffaa3301b69c16,22,Kobieta,2022-05-28_09h37.49.414,task,2021.1.4,Win32,59.96282305,628b806c463b948bc644b84f,6291cfd36a2eb044c52c03e7,,,,,,,,,,"X V Q F H G B L J M P D K C T S W R N Z
",,,,,,,,,,,,,,,,,,,,,,,,,,,,,,,,,,,,,,,,,,,,,,,,,,,,,,,,,,,,,,,,,,,,,,,,,,,,1,0,1,0,1,,,,,,,,,,,,,
,,,,,,,,,,5fc9009e38ffaa3301b69c16,22,Kobieta,2022-05-28_09h37.49.414,task,2021.1.4,Win32,59.96282305,628b806c463b948bc644b84f,6291cfd36a2eb044c52c03e7,,,,,,,,,,,,,,,,,,,,,,,,,,,,,,,,,Task,29,(3x8) - 19 ,5,,,,,,,,,,,,,,,,,,,0,,,,,,,,,,,,,,,,,,,,,,,,0,,0,0,0,28,1,,,,,,,,,,,,,,,,,,
,,,,,,,,,,5fc9009e38ffaa3301b69c16,22,Kobieta,2022-05-28_09h37.49.414,task,2021.1.4,Win32,59.96282305,628b806c463b948bc644b84f,6291cfd36a2eb044c52c03e7,,,,,,,,,,,,,,,,,,,,,,,3,,,,,,,,,,Task,27,(3/3) + 2,3,,,,,,,,,,,,,,,,,,,1,,,,,,,,,,,,,,,,,,,,,,,"[""3""]",1,[2.249900000005937],0,1,1,26,1,,,,,,,,,,,,,,,,,,
,,,,,,,,,,5fc9009e38ffaa3301b69c16,22,Kobieta,2022-05-28_09h37.49.414,task,2021.1.4,Win32,59.96282305,628b806c463b948bc644b84f,6291cfd36a2eb044c52c03e7,,,,,,,,,,"X V Q F H G B L J M P D K C T S W R N Z
",,,,,,,,,,,,,,,,,,,,,,,,,,,,,,,,,,,,,,,,,,,,,,,,,,,,,,,,,,,,,,,,,,,,,,,,,,,,2,0,2,0,1,,,,,,,,,,,,,
,,,,,,,,,,5fc9009e38ffaa3301b69c16,22,Kobieta,2022-05-28_09h37.49.414,task,2021.1.4,Win32,59.96282305,628b806c463b948bc644b84f,6291cfd36a2eb044c52c03e7,,,,,,,,,,,,,,,,,,,,,,,,,,,,,,,,,,,,,,,,,,,,,,,,,,,,,,,,,,,,,,,,,,,,,,,,,,,,,,,,,,,,,,,,,,,nlc,"[""n"",""l"",""c""]",0,"[1.5105000000000928,1.6390999999940732,1.8400000000000318,2.007599999994113]",1,NLC,1,0,1,0,1,,
,,,,,,,,,,5fc9009e38ffaa3301b69c16,22,Kobieta,2022-05-28_09h37.49.414,task,2021.1.4,Win32,59.96282305,628b806c463b948bc644b84f,6291cfd36a2eb044c52c03e7,,,,,,,,,,,,,,,,,,,,,,,6,,,,,,,,,,Task,5,(2x3) + 0,6,,,,,,,,,,,,,,,,,,,1,,,,,,,,,,,,,,,,,,,,,,,"[""6""]",1,[2.108500000000049],0,0,0,4,1,,,,,,,,,,,,,,,,,,
,,,,,,,,,,5fc9009e38ffaa3301b69c16,22,Kobieta,2022-05-28_09h37.49.414,task,2021.1.4,Win32,59.96282305,628b806c463b948bc644b84f,6291cfd36a2eb044c52c03e7,,,,,,,,,,"X V Q F H G B L J M P D K C T S W R N Z
",,,,,,,,,,,,,,,,,,,,,,,,,,,,,,,,,,,,,,,,,,,,,,,,,,,,,,,,,,,,,,,,,,,,,,,,,,,,0,0,0,0,1,,,,,,,,,,,,,
,,,,,,,,,,5fc9009e38ffaa3301b69c16,22,Kobieta,2022-05-28_09h37.49.414,task,2021.1.4,Win32,59.96282305,628b806c463b948bc644b84f,6291cfd36a2eb044c52c03e7,,,,,,,,,,,,,,,,,,,,,,,1,,,,,,,,,,Task,18,(16/4) - 3,1,,,,,,,,,,,,,,,,,,,1,,,,,,,,,,,,,,,,,,,,,,,"[""1""]",1,[1.9054000000060114],0,0,0,17,1,,,,,,,,,,,,,,,,,,
,,,,,,,,,,5fc9009e38ffaa3301b69c16,22,Kobieta,2022-05-28_09h37.49.414,task,2021.1.4,Win32,59.96282305,628b806c463b948bc644b84f,6291cfd36a2eb044c52c03e7,,,,,,,,,,"X V Q F H G B L J M P D K C T S W R N Z
",,,,,,,,,,,,,,,,,,,,,,,,,,,,,,,,,,,,,,,,,,,,,,,,,,,,,,,,,,,,,,,,,,,,,,,,,,,,1,0,1,0,1,,,,,,,,,,,,,
,,,,,,,,,,5fc9009e38ffaa3301b69c16,22,Kobieta,2022-05-28_09h37.49.414,task,2021.1.4,Win32,59.96282305,628b806c463b948bc644b84f,6291cfd36a2eb044c52c03e7,,,,,,,,,,,,,,,,,,,,,,,6,,,,,,,,,,Task,37,(3/3) + 5,6,,,,,,,,,,,,,,,,,,,1,,,,,,,,,,,,,,,,,,,,,,,"[""6""]",1,[2.1408999999762273],0,0,0,36,1,,,,,,,,,,,,,,,,,,
,,,,,,,,,,5fc9009e38ffaa3301b69c16,22,Kobieta,2022-05-28_09h37.49.414,task,2021.1.4,Win32,59.96282305,628b806c463b948bc644b84f,6291cfd36a2eb044c52c03e7,,,,,,,,,,"X V Q F H G B L J M P D K C T S W R N Z
",,,,,,,,,,,,,,,,,,,,,,,,,,,,,,,,,,,,,,,,,,,,,,,,,,,,,,,,,,,,,,,,,,,,,,,,,,,,2,0,2,0,1,,,,,,,,,,,,,
,,,,,,,,,,5fc9009e38ffaa3301b69c16,22,Kobieta,2022-05-28_09h37.49.414,task,2021.1.4,Win32,59.96282305,628b806c463b948bc644b84f,6291cfd36a2eb044c52c03e7,,,,,,,,,,,,,,,,,,,,,,,9,,,,,,,,,,Task,24,(2x2) + 5,9,,,,,,,,,,,,,,,,,,,1,,,,,,,,,,,,,,,,,,,,,,,"[""9""]",1,[2.579099999994014],0,0,0,23,1,,,,,,,,,,,,,,,,,,
,,,,,,,,,,5fc9009e38ffaa3301b69c16,22,Kobieta,2022-05-28_09h37.49.414,task,2021.1.4,Win32,59.96282305,628b806c463b948bc644b84f,6291cfd36a2eb044c52c03e7,,,,,,,,,,"X V Q F H G B L J M P D K C T S W R N Z
",,,,,,,,,,,,,,,,,,,,,,,,,,,,,,,,,,,,,,,,,,,,,,,,,,,,,,,,,,,,,,,,,,,,,,,,,,,,3,0,3,0,1,,,,,,,,,,,,,
,,,,,,,,,,5fc9009e38ffaa3301b69c16,22,Kobieta,2022-05-28_09h37.49.414,task,2021.1.4,Win32,59.96282305,628b806c463b948bc644b84f,6291cfd36a2eb044c52c03e7,,,,,,,,,,,,,,,,,,,,,,,,,,,,,,,,,,,,,,,,,,,,,,,,,,,,,,,,,,,,,,,,,,,,,,,,,,,,,,,,,,,,,,,,,,,mfpf,"[""m"",""f"",""p"",""f""]",0,"[1.6220999999940204,1.9775999999940268,2.7969000000059623,3.209699999988061,3.643199999988042]",0,KMPF,2,0,2,0,1,,
,,,,,,,,,,5fc9009e38ffaa3301b69c16,22,Kobieta,2022-05-28_09h37.49.414,task,2021.1.4,Win32,59.96282305,628b806c463b948bc644b84f,6291cfd36a2eb044c52c03e7,,,,,,,,,,,,,,,,,,,,,,,9,,,,,,,,,,Task,24,(2x2) + 5,9,,,,,,,,,,,,,,,,,,,1,,,,,,,,,,,,,,,,,,,,,,,"[""9""]",1,[1.7366999999879909],0,0,0,23,1,,,,,,,,,,,,,,,,,,
,,,,,,,,,,5fc9009e38ffaa3301b69c16,22,Kobieta,2022-05-28_09h37.49.414,task,2021.1.4,Win32,59.96282305,628b806c463b948bc644b84f,6291cfd36a2eb044c52c03e7,,,,,,,,,,"X V Q F H G B L J M P D K C T S W R N Z
",,,,,,,,,,,,,,,,,,,,,,,,,,,,,,,,,,,,,,,,,,,,,,,,,,,,,,,,,,,,,,,,,,,,,,,,,,,,0,0,0,0,1,,,,,,,,,,,,,
,,,,,,,,,,5fc9009e38ffaa3301b69c16,22,Kobieta,2022-05-28_09h37.49.414,task,2021.1.4,Win32,59.96282305,628b806c463b948bc644b84f,6291cfd36a2eb044c52c03e7,,,,,,,,,,,,,,,,,,,,,,,8,,,,,,,,,,Task,23,(2x3) + 2,8,,,,,,,,,,,,,,,,,,,1,,,,,,,,,,,,,,,,,,,,,,,"[""8""]",1,[3.2572000000178605],0,0,0,22,1,,,,,,,,,,,,,,,,,,
,,,,,,,,,,5fc9009e38ffaa3301b69c16,22,Kobieta,2022-05-28_09h37.49.414,task,2021.1.4,Win32,59.96282305,628b806c463b948bc644b84f,6291cfd36a2eb044c52c03e7,,,,,,,,,,"X V Q F H G B L J M P D K C T S W R N Z
",,,,,,,,,,,,,,,,,,,,,,,,,,,,,,,,,,,,,,,,,,,,,,,,,,,,,,,,,,,,,,,,,,,,,,,,,,,,1,0,1,0,1,,,,,,,,,,,,,
,,,,,,,,,,5fc9009e38ffaa3301b69c16,22,Kobieta,2022-05-28_09h37.49.414,task,2021.1.4,Win32,59.96282305,628b806c463b948bc644b84f,6291cfd36a2eb044c52c03e7,,,,,,,,,,,,,,,,,,,,,,,5,,,,,,,,,,Task,29,(3x8) - 19 ,5,,,,,,,,,,,,,,,,,,,1,,,,,,,,,,,,,,,,,,,,,,,"[""5""]",1,[3.1278000000119164],0,0,0,28,1,,,,,,,,,,,,,,,,,,
,,,,,,,,,,5fc9009e38ffaa3301b69c16,22,Kobieta,2022-05-28_09h37.49.414,task,2021.1.4,Win32,59.96282305,628b806c463b948bc644b84f,6291cfd36a2eb044c52c03e7,,,,,,,,,,"X V Q F H G B L J M P D K C T S W R N Z
",,,,,,,,,,,,,,,,,,,,,,,,,,,,,,,,,,,,,,,,,,,,,,,,,,,,,,,,,,,,,,,,,,,,,,,,,,,,2,0,2,0,1,,,,,,,,,,,,,
,,,,,,,,,,5fc9009e38ffaa3301b69c16,22,Kobieta,2022-05-28_09h37.49.414,task,2021.1.4,Win32,59.96282305,628b806c463b948bc644b84f,6291cfd36a2eb044c52c03e7,,,,,,,,,,,,,,,,,,,,,,,5,,,,,,,,,,Task,22,(3x1) + 2,5,,,,,,,,,,,,,,,,,,,1,,,,,,,,,,,,,,,,,,,,,,,"[""5""]",1,[2.04019999998809],0,0,0,21,1,,,,,,,,,,,,,,,,,,
,,,,,,,,,,5fc9009e38ffaa3301b69c16,22,Kobieta,2022-05-28_09h37.49.414,task,2021.1.4,Win32,59.96282305,628b806c463b948bc644b84f,6291cfd36a2eb044c52c03e7,,,,,,,,,,"X V Q F H G B L J M P D K C T S W R N Z
",,,,,,,,,,,,,,,,,,,,,,,,,,,,,,,,,,,,,,,,,,,,,,,,,,,,,,,,,,,,,,,,,,,,,,,,,,,,3,0,3,0,1,,,,,,,,,,,,,
,,,,,,,,,,5fc9009e38ffaa3301b69c16,22,Kobieta,2022-05-28_09h37.49.414,task,2021.1.4,Win32,59.96282305,628b806c463b948bc644b84f,6291cfd36a2eb044c52c03e7,,,,,,,,,,,,,,,,,,,,,,,,,,,,,,,,,,,,,,,,,,,,,,,,,,,,,,,,,,,,,,,,,,,,,,,,,,,,,,,,,,,,,,,,,,,lscn,"[""l"",""s"",""c"",""n""]",0,"[1.846200000017916,2.056300000011902,2.3237000000178796,2.591400000005933,3.9307000000178505]",1,LSCN,3,0,3,0,1,,
,,,,,,,,,,5fc9009e38ffaa3301b69c16,22,Kobieta,2022-05-28_09h37.49.414,task,2021.1.4,Win32,59.96282305,628b806c463b948bc644b84f,6291cfd36a2eb044c52c03e7,,,,,,,,,,,,,,,,,,,,,,,9,,,,,,,,,,Task,7,(3x7) - 12,9,,,,,,,,,,,,,,,,,,,1,,,,,,,,,,,,,,,,,,,,,,,"[""9""]",1,[3.3786999999880436],0,0,0,6,1,,,,,,,,,,,,,,,,,,
,,,,,,,,,,5fc9009e38ffaa3301b69c16,22,Kobieta,2022-05-28_09h37.49.414,task,2021.1.4,Win32,59.96282305,628b806c463b948bc644b84f,6291cfd36a2eb044c52c03e7,,,,,,,,,,"X V Q F H G B L J M P D K C T S W R N Z
",,,,,,,,,,,,,,,,,,,,,,,,,,,,,,,,,,,,,,,,,,,,,,,,,,,,,,,,,,,,,,,,,,,,,,,,,,,,0,0,0,0,1,,,,,,,,,,,,,
,,,,,,,,,,5fc9009e38ffaa3301b69c16,22,Kobieta,2022-05-28_09h37.49.414,task,2021.1.4,Win32,59.96282305,628b806c463b948bc644b84f,6291cfd36a2eb044c52c03e7,,,,,,,,,,,,,,,,,,,,,,,6,,,,,,,,,,Task,13,(3x4) - 6,6,,,,,,,,,,,,,,,,,,,1,,,,,,,,,,,,,,,,,,,,,,,"[""6""]",1,[1.9398000000119282],0,0,0,12,1,,,,,,,,,,,,,,,,,,
,,,,,,,,,,5fc9009e38ffaa3301b69c16,22,Kobieta,2022-05-28_09h37.49.414,task,2021.1.4,Win32,59.96282305,628b806c463b948bc644b84f,6291cfd36a2eb044c52c03e7,,,,,,,,,,"X V Q F H G B L J M P D K C T S W R N Z
",,,,,,,,,,,,,,,,,,,,,,,,,,,,,,,,,,,,,,,,,,,,,,,,,,,,,,,,,,,,,,,,,,,,,,,,,,,,1,0,1,0,1,,,,,,,,,,,,,
,,,,,,,,,,5fc9009e38ffaa3301b69c16,22,Kobieta,2022-05-28_09h37.49.414,task,2021.1.4,Win32,59.96282305,628b806c463b948bc644b84f,6291cfd36a2eb044c52c03e7,,,,,,,,,,,,,,,,,,,,,,,1,,,,,,,,,,Task,40,(7x2) - 5,9,,,,,,,,,,,,,,,,,,,0,,,,,,,,,,,,,,,,,,,,,,,"[""1""]",0,[2.7927999999822077],0,0,0,39,1,,,,,,,,,,,,,,,,,,
,,,,,,,,,,5fc9009e38ffaa3301b69c16,22,Kobieta,2022-05-28_09h37.49.414,task,2021.1.4,Win32,59.96282305,628b806c463b948bc644b84f,6291cfd36a2eb044c52c03e7,,,,,,,,,,,,,,,,,,,,,,,7,,,,,,,,,,Task,6,(12/2) + 1,7,,,,,,,,,,,,,,,,,,,1,,,,,,,,,,,,,,,,,,,,,,,"[""7""]",1,[2.8874000000058686],0,1,1,5,1,,,,,,,,,,,,,,,,,,
,,,,,,,,,,5fc9009e38ffaa3301b69c16,22,Kobieta,2022-05-28_09h37.49.414,task,2021.1.4,Win32,59.96282305,628b806c463b948bc644b84f,6291cfd36a2eb044c52c03e7,,,,,,,,,,"X V Q F H G B L J M P D K C T S W R N Z
",,,,,,,,,,,,,,,,,,,,,,,,,,,,,,,,,,,,,,,,,,,,,,,,,,,,,,,,,,,,,,,,,,,,,,,,,,,,2,0,2,0,1,,,,,,,,,,,,,
,,,,,,,,,,5fc9009e38ffaa3301b69c16,22,Kobieta,2022-05-28_09h37.49.414,task,2021.1.4,Win32,59.96282305,628b806c463b948bc644b84f,6291cfd36a2eb044c52c03e7,,,,,,,,,,,,,,,,,,,,,,,9,,,,,,,,,,Task,24,(2x2) + 5,9,,,,,,,,,,,,,,,,,,,1,,,,,,,,,,,,,,,,,,,,,,,"[""9""]",1,[1.671700000017836],0,0,0,23,1,,,,,,,,,,,,,,,,,,
,,,,,,,,,,5fc9009e38ffaa3301b69c16,22,Kobieta,2022-05-28_09h37.49.414,task,2021.1.4,Win32,59.96282305,628b806c463b948bc644b84f,6291cfd36a2eb044c52c03e7,,,,,,,,,,"X V Q F H G B L J M P D K C T S W R N Z
",,,,,,,,,,,,,,,,,,,,,,,,,,,,,,,,,,,,,,,,,,,,,,,,,,,,,,,,,,,,,,,,,,,,,,,,,,,,3,0,3,0,1,,,,,,,,,,,,,
,,,,,,,,,,5fc9009e38ffaa3301b69c16,22,Kobieta,2022-05-28_09h37.49.414,task,2021.1.4,Win32,59.96282305,628b806c463b948bc644b84f,6291cfd36a2eb044c52c03e7,,,,,,,,,,,,,,,,,,,,,,,5,,,,,,,,,,Task,12,(4x4) - 11,5,,,,,,,,,,,,,,,,,,,1,,,,,,,,,,,,,,,,,,,,,,,"[""5""]",1,[2.5822999999820695],0,0,0,11,1,,,,,,,,,,,,,,,,,,
,,,,,,,,,,5fc9009e38ffaa3301b69c16,22,Kobieta,2022-05-28_09h37.49.414,task,2021.1.4,Win32,59.96282305,628b806c463b948bc644b84f,6291cfd36a2eb044c52c03e7,,,,,,,,,,"X V Q F H G B L J M P D K C T S W R N Z
",,,,,,,,,,,,,,,,,,,,,,,,,,,,,,,,,,,,,,,,,,,,,,,,,,,,,,,,,,,,,,,,,,,,,,,,,,,,4,0,4,0,1,,,,,,,,,,,,,
,,,,,,,,,,5fc9009e38ffaa3301b69c16,22,Kobieta,2022-05-28_09h37.49.414,task,2021.1.4,Win32,59.96282305,628b806c463b948bc644b84f,6291cfd36a2eb044c52c03e7,,,,,,,,,,,,,,,,,,,,,,,,,,,,,,,,,,,,,,,,,,,,,,,,,,,,,,,,,,,,,,,,,,,,,,,,,,,,,,,,,,,,,,,,,,,mxpsv,"[""m"",""x"",""p"",""s"",""v""]",0,"[1.6409000000058995,1.956200000017816,2.4104999999999563,2.842599999994036,3.259999999999991,3.877700000017853]",1,MXPSV,4,0,4,0,1,,
,,,,,,,,,,5fc9009e38ffaa3301b69c16,22,Kobieta,2022-05-28_09h37.49.414,task,2021.1.4,Win32,59.96282305,628b806c463b948bc644b84f,6291cfd36a2eb044c52c03e7,,,,,,,,,,,,,,,,,,,,,,,7,,,,,,,,,,Task,6,(12/2) + 1,7,,,,,,,,,,,,,,,,,,,1,,,,,,,,,,,,,,,,,,,,,,,"[""7""]",1,[1.7049999999999272],0,0,0,5,1,,,,,,,,,,,,,,,,,,
,,,,,,,,,,5fc9009e38ffaa3301b69c16,22,Kobieta,2022-05-28_09h37.49.414,task,2021.1.4,Win32,59.96282305,628b806c463b948bc644b84f,6291cfd36a2eb044c52c03e7,,,,,,,,,,"X V Q F H G B L J M P D K C T S W R N Z
",,,,,,,,,,,,,,,,,,,,,,,,,,,,,,,,,,,,,,,,,,,,,,,,,,,,,,,,,,,,,,,,,,,,,,,,,,,,0,0,0,0,1,,,,,,,,,,,,,
,,,,,,,,,,5fc9009e38ffaa3301b69c16,22,Kobieta,2022-05-28_09h37.49.414,task,2021.1.4,Win32,59.96282305,628b806c463b948bc644b84f,6291cfd36a2eb044c52c03e7,,,,,,,,,,,,,,,,,,,,,,,5,,,,,,,,,,Task,1,(12/6) - 1,1,,,,,,,,,,,,,,,,,,,0,,,,,,,,,,,,,,,,,,,,,,,"[""5""]",0,[1.9194000000059077],0,0,0,0,1,,,,,,,,,,,,,,,,,,
,,,,,,,,,,5fc9009e38ffaa3301b69c16,22,Kobieta,2022-05-28_09h37.49.414,task,2021.1.4,Win32,59.96282305,628b806c463b948bc644b84f,6291cfd36a2eb044c52c03e7,,,,,,,,,,,,,,,,,,,,,,,0,,,,,,,,,,Task,8,(1x5) - 5,0,,,,,,,,,,,,,,,,,,,1,,,,,,,,,,,,,,,,,,,,,,,"[""0""]",1,[2.0137000000178205],0,1,1,7,1,,,,,,,,,,,,,,,,,,
,,,,,,,,,,5fc9009e38ffaa3301b69c16,22,Kobieta,2022-05-28_09h37.49.414,task,2021.1.4,Win32,59.96282305,628b806c463b948bc644b84f,6291cfd36a2eb044c52c03e7,,,,,,,,,,"X V Q F H G B L J M P D K C T S W R N Z
",,,,,,,,,,,,,,,,,,,,,,,,,,,,,,,,,,,,,,,,,,,,,,,,,,,,,,,,,,,,,,,,,,,,,,,,,,,,1,0,1,0,1,,,,,,,,,,,,,
,,,,,,,,,,5fc9009e38ffaa3301b69c16,22,Kobieta,2022-05-28_09h37.49.414,task,2021.1.4,Win32,59.96282305,628b806c463b948bc644b84f,6291cfd36a2eb044c52c03e7,,,,,,,,,,,,,,,,,,,,,,,8,,,,,,,,,,Task,15,(3x7) - 13,8,,,,,,,,,,,,,,,,,,,1,,,,,,,,,,,,,,,,,,,,,,,"[""8""]",1,[2.7436000000237755],0,0,0,14,1,,,,,,,,,,,,,,,,,,
,,,,,,,,,,5fc9009e38ffaa3301b69c16,22,Kobieta,2022-05-28_09h37.49.414,task,2021.1.4,Win32,59.96282305,628b806c463b948bc644b84f,6291cfd36a2eb044c52c03e7,,,,,,,,,,"X V Q F H G B L J M P D K C T S W R N Z
",,,,,,,,,,,,,,,,,,,,,,,,,,,,,,,,,,,,,,,,,,,,,,,,,,,,,,,,,,,,,,,,,,,,,,,,,,,,2,0,2,0,1,,,,,,,,,,,,,
,,,,,,,,,,5fc9009e38ffaa3301b69c16,22,Kobieta,2022-05-28_09h37.49.414,task,2021.1.4,Win32,59.96282305,628b806c463b948bc644b84f,6291cfd36a2eb044c52c03e7,,,,,,,,,,,,,,,,,,,,,,,4,,,,,,,,,,Task,4,(1x5) - 1,4,,,,,,,,,,,,,,,,,,,1,,,,,,,,,,,,,,,,,,,,,,,"[""4""]",1,[2.357499999999959],0,0,0,3,1,,,,,,,,,,,,,,,,,,
,,,,,,,,,,5fc9009e38ffaa3301b69c16,22,Kobieta,2022-05-28_09h37.49.414,task,2021.1.4,Win32,59.96282305,628b806c463b948bc644b84f,6291cfd36a2eb044c52c03e7,,,,,,,,,,"X V Q F H G B L J M P D K C T S W R N Z
",,,,,,,,,,,,,,,,,,,,,,,,,,,,,,,,,,,,,,,,,,,,,,,,,,,,,,,,,,,,,,,,,,,,,,,,,,,,3,0,3,0,1,,,,,,,,,,,,,
,,,,,,,,,,5fc9009e38ffaa3301b69c16,22,Kobieta,2022-05-28_09h37.49.414,task,2021.1.4,Win32,59.96282305,628b806c463b948bc644b84f,6291cfd36a2eb044c52c03e7,,,,,,,,,,,,,,,,,,,,,,,3,,,,,,,,,,Task,3,(2x3) - 3,3,,,,,,,,,,,,,,,,,,,1,,,,,,,,,,,,,,,,,,,,,,,"[""3""]",1,[2.053299999982187],0,0,0,2,1,,,,,,,,,,,,,,,,,,
,,,,,,,,,,5fc9009e38ffaa3301b69c16,22,Kobieta,2022-05-28_09h37.49.414,task,2021.1.4,Win32,59.96282305,628b806c463b948bc644b84f,6291cfd36a2eb044c52c03e7,,,,,,,,,,"X V Q F H G B L J M P D K C T S W R N Z
",,,,,,,,,,,,,,,,,,,,,,,,,,,,,,,,,,,,,,,,,,,,,,,,,,,,,,,,,,,,,,,,,,,,,,,,,,,,4,0,4,0,1,,,,,,,,,,,,,
,,,,,,,,,,5fc9009e38ffaa3301b69c16,22,Kobieta,2022-05-28_09h37.49.414,task,2021.1.4,Win32,59.96282305,628b806c463b948bc644b84f,6291cfd36a2eb044c52c03e7,,,,,,,,,,,,,,,,,,,,,,,4,,,,,,,,,,Task,4,(1x5) - 1,4,,,,,,,,,,,,,,,,,,,1,,,,,,,,,,,,,,,,,,,,,,,"[""4""]",1,[1.523099999993974],0,0,0,3,1,,,,,,,,,,,,,,,,,,
,,,,,,,,,,5fc9009e38ffaa3301b69c16,22,Kobieta,2022-05-28_09h37.49.414,task,2021.1.4,Win32,59.96282305,628b806c463b948bc644b84f,6291cfd36a2eb044c52c03e7,,,,,,,,,,"X V Q F H G B L J M P D K C T S W R N Z
",,,,,,,,,,,,,,,,,,,,,,,,,,,,,,,,,,,,,,,,,,,,,,,,,,,,,,,,,,,,,,,,,,,,,,,,,,,,5,0,5,0,1,,,,,,,,,,,,,
,,,,,,,,,,5fc9009e38ffaa3301b69c16,22,Kobieta,2022-05-28_09h37.49.414,task,2021.1.4,Win32,59.96282305,628b806c463b948bc644b84f,6291cfd36a2eb044c52c03e7,,,,,,,,,,,,,,,,,,,,,,,,,,,,,,,,,,,,,,,,,,,,,,,,,,,,,,,,,,,,,,,,,,,,,,,,,,,,,,,,,,,,,,,,,,,cqrgvz,"[""c"",""q"",""r"",""g"",""v"",""z""]",0,"[1.5728000000119664,2.011500000000069,2.3575999999940223,2.7074000000060323,3.726900000006026,4.096099999994067,4.660800000011932]",0,"CQRGVZ
",5,0,5,0,1,,
,,,,,,,,,,5fc9009e38ffaa3301b69c16,22,Kobieta,2022-05-28_09h37.49.414,task,2021.1.4,Win32,59.96282305,628b806c463b948bc644b84f,6291cfd36a2eb044c52c03e7,,,,,,,,,,,,,,,,,,,,,,,6,,,,,,,,,,Task,37,(3/3) + 5,6,,,,,,,,,,,,,,,,,,,1,,,,,,,,,,,,,,,,,,,,,,,"[""6""]",1,[1.853099999994015],0,0,0,36,1,,,,,,,,,,,,,,,,,,
,,,,,,,,,,5fc9009e38ffaa3301b69c16,22,Kobieta,2022-05-28_09h37.49.414,task,2021.1.4,Win32,59.96282305,628b806c463b948bc644b84f,6291cfd36a2eb044c52c03e7,,,,,,,,,,"X V Q F H G B L J M P D K C T S W R N Z
",,,,,,,,,,,,,,,,,,,,,,,,,,,,,,,,,,,,,,,,,,,,,,,,,,,,,,,,,,,,,,,,,,,,,,,,,,,,0,0,0,0,1,,,,,,,,,,,,,
,,,,,,,,,,5fc9009e38ffaa3301b69c16,22,Kobieta,2022-05-28_09h37.49.414,task,2021.1.4,Win32,59.96282305,628b806c463b948bc644b84f,6291cfd36a2eb044c52c03e7,,,,,,,,,,,,,,,,,,,,,,,7,,,,,,,,,,Task,6,(12/2) + 1,7,,,,,,,,,,,,,,,,,,,1,,,,,,,,,,,,,,,,,,,,,,,"[""7""]",1,[1.5120000000000573],0,0,0,5,1,,,,,,,,,,,,,,,,,,
,,,,,,,,,,5fc9009e38ffaa3301b69c16,22,Kobieta,2022-05-28_09h37.49.414,task,2021.1.4,Win32,59.96282305,628b806c463b948bc644b84f,6291cfd36a2eb044c52c03e7,,,,,,,,,,"X V Q F H G B L J M P D K C T S W R N Z
",,,,,,,,,,,,,,,,,,,,,,,,,,,,,,,,,,,,,,,,,,,,,,,,,,,,,,,,,,,,,,,,,,,,,,,,,,,,1,0,1,0,1,,,,,,,,,,,,,
,,,,,,,,,,5fc9009e38ffaa3301b69c16,22,Kobieta,2022-05-28_09h37.49.414,task,2021.1.4,Win32,59.96282305,628b806c463b948bc644b84f,6291cfd36a2eb044c52c03e7,,,,,,,,,,,,,,,,,,,,,,,5,,,,,,,,,,Task,29,(3x8) - 19 ,5,,,,,,,,,,,,,,,,,,,1,,,,,,,,,,,,,,,,,,,,,,,"[""5""]",1,[2.5058999999761227],0,0,0,28,1,,,,,,,,,,,,,,,,,,
,,,,,,,,,,5fc9009e38ffaa3301b69c16,22,Kobieta,2022-05-28_09h37.49.414,task,2021.1.4,Win32,59.96282305,628b806c463b948bc644b84f,6291cfd36a2eb044c52c03e7,,,,,,,,,,"X V Q F H G B L J M P D K C T S W R N Z
",,,,,,,,,,,,,,,,,,,,,,,,,,,,,,,,,,,,,,,,,,,,,,,,,,,,,,,,,,,,,,,,,,,,,,,,,,,,2,0,2,0,1,,,,,,,,,,,,,
,,,,,,,,,,5fc9009e38ffaa3301b69c16,22,Kobieta,2022-05-28_09h37.49.414,task,2021.1.4,Win32,59.96282305,628b806c463b948bc644b84f,6291cfd36a2eb044c52c03e7,,,,,,,,,,,,,,,,,,,,,,,2,,,,,,,,,,Task,26,(2x9) - 16,2,,,,,,,,,,,,,,,,,,,1,,,,,,,,,,,,,,,,,,,,,,,"[""2""]",1,[3.7950000000000728],0,0,0,25,1,,,,,,,,,,,,,,,,,,
,,,,,,,,,,5fc9009e38ffaa3301b69c16,22,Kobieta,2022-05-28_09h37.49.414,task,2021.1.4,Win32,59.96282305,628b806c463b948bc644b84f,6291cfd36a2eb044c52c03e7,,,,,,,,,,"X V Q F H G B L J M P D K C T S W R N Z
",,,,,,,,,,,,,,,,,,,,,,,,,,,,,,,,,,,,,,,,,,,,,,,,,,,,,,,,,,,,,,,,,,,,,,,,,,,,3,0,3,0,1,,,,,,,,,,,,,
,,,,,,,,,,5fc9009e38ffaa3301b69c16,22,Kobieta,2022-05-28_09h37.49.414,task,2021.1.4,Win32,59.96282305,628b806c463b948bc644b84f,6291cfd36a2eb044c52c03e7,,,,,,,,,,,,,,,,,,,,,,,1,,,,,,,,,,Task,40,(7x2) - 5,9,,,,,,,,,,,,,,,,,,,0,,,,,,,,,,,,,,,,,,,,,,,"[""1""]",0,[1.8239999999999554],0,0,0,39,1,,,,,,,,,,,,,,,,,,
,,,,,,,,,,5fc9009e38ffaa3301b69c16,22,Kobieta,2022-05-28_09h37.49.414,task,2021.1.4,Win32,59.96282305,628b806c463b948bc644b84f,6291cfd36a2eb044c52c03e7,,,,,,,,,,,,,,,,,,,,,,,6,,,,,,,,,,Task,37,(3/3) + 5,6,,,,,,,,,,,,,,,,,,,1,,,,,,,,,,,,,,,,,,,,,,,"[""6""]",1,[2.6944000000059987],0,1,1,36,1,,,,,,,,,,,,,,,,,,
,,,,,,,,,,5fc9009e38ffaa3301b69c16,22,Kobieta,2022-05-28_09h37.49.414,task,2021.1.4,Win32,59.96282305,628b806c463b948bc644b84f,6291cfd36a2eb044c52c03e7,,,,,,,,,,"X V Q F H G B L J M P D K C T S W R N Z
",,,,,,,,,,,,,,,,,,,,,,,,,,,,,,,,,,,,,,,,,,,,,,,,,,,,,,,,,,,,,,,,,,,,,,,,,,,,4,0,4,0,1,,,,,,,,,,,,,
,,,,,,,,,,5fc9009e38ffaa3301b69c16,22,Kobieta,2022-05-28_09h37.49.414,task,2021.1.4,Win32,59.96282305,628b806c463b948bc644b84f,6291cfd36a2eb044c52c03e7,,,,,,,,,,,,,,,,,,,,,,,9,,,,,,,,,,Task,7,(3x7) - 12,9,,,,,,,,,,,,,,,,,,,1,,,,,,,,,,,,,,,,,,,,,,,"[""9""]",1,[2.5235999999939622],0,0,0,6,1,,,,,,,,,,,,,,,,,,
,,,,,,,,,,5fc9009e38ffaa3301b69c16,22,Kobieta,2022-05-28_09h37.49.414,task,2021.1.4,Win32,59.96282305,628b806c463b948bc644b84f,6291cfd36a2eb044c52c03e7,,,,,,,,,,"X V Q F H G B L J M P D K C T S W R N Z
",,,,,,,,,,,,,,,,,,,,,,,,,,,,,,,,,,,,,,,,,,,,,,,,,,,,,,,,,,,,,,,,,,,,,,,,,,,,5,0,5,0,1,,,,,,,,,,,,,
,,,,,,,,,,5fc9009e38ffaa3301b69c16,22,Kobieta,2022-05-28_09h37.49.414,task,2021.1.4,Win32,59.96282305,628b806c463b948bc644b84f,6291cfd36a2eb044c52c03e7,,,,,,,,,,,,,,,,,,,,,,,,,,,,,,,,,,,,,,,,,,,,,,,,,,,,,,,,,,,,,,,,,,,,,,,,,,,,,,,,,,,,,,,,,,,bjjqks,"[""b"",""j"",""j"",""q"",""k"",""s""]",0,"[2.0418000000119036,2.3230999999940423,2.491599999994037,3.6299999999999955,3.761300000011829,3.91030000001183,4.262800000011907]",1,BJJQKS,6,0,6,0,1,,
,,,,,,,,,,5fc9009e38ffaa3301b69c16,22,Kobieta,2022-05-28_09h37.49.414,task,2021.1.4,Win32,59.96282305,628b806c463b948bc644b84f,6291cfd36a2eb044c52c03e7,,,,,,,,,,,,,,,,,,,,,,,0,,,,,,,,,,Task,25,(10/5) - 2,0,,,,,,,,,,,,,,,,,,,1,,,,,,,,,,,,,,,,,,,,,,,"[""0""]",1,[2.091000000000008],0,0,0,24,1,,,,,,,,,,,,,,,,,,
,,,,,,,,,,5fc9009e38ffaa3301b69c16,22,Kobieta,2022-05-28_09h37.49.414,task,2021.1.4,Win32,59.96282305,628b806c463b948bc644b84f,6291cfd36a2eb044c52c03e7,,,,,,,,,,"X V Q F H G B L J M P D K C T S W R N Z
",,,,,,,,,,,,,,,,,,,,,,,,,,,,,,,,,,,,,,,,,,,,,,,,,,,,,,,,,,,,,,,,,,,,,,,,,,,,0,0,0,0,1,,,,,,,,,,,,,
,,,,,,,,,,5fc9009e38ffaa3301b69c16,22,Kobieta,2022-05-28_09h37.49.414,task,2021.1.4,Win32,59.96282305,628b806c463b948bc644b84f,6291cfd36a2eb044c52c03e7,,,,,,,,,,,,,,,,,,,,,,,2,,,,,,,,,,Task,19,(6/2) - 1,2,,,,,,,,,,,,,,,,,,,1,,,,,,,,,,,,,,,,,,,,,,,"[""2""]",1,[2.0269000000059805],0,0,0,18,1,,,,,,,,,,,,,,,,,,
,,,,,,,,,,5fc9009e38ffaa3301b69c16,22,Kobieta,2022-05-28_09h37.49.414,task,2021.1.4,Win32,59.96282305,628b806c463b948bc644b84f,6291cfd36a2eb044c52c03e7,,,,,,,,,,"X V Q F H G B L J M P D K C T S W R N Z
",,,,,,,,,,,,,,,,,,,,,,,,,,,,,,,,,,,,,,,,,,,,,,,,,,,,,,,,,,,,,,,,,,,,,,,,,,,,1,0,1,0,1,,,,,,,,,,,,,
,,,,,,,,,,5fc9009e38ffaa3301b69c16,22,Kobieta,2022-05-28_09h37.49.414,task,2021.1.4,Win32,59.96282305,628b806c463b948bc644b84f,6291cfd36a2eb044c52c03e7,,,,,,,,,,,,,,,,,,,,,,,7,,,,,,,,,,Task,14,(2x2) + 3,7,,,,,,,,,,,,,,,,,,,1,,,,,,,,,,,,,,,,,,,,,,,"[""7""]",1,[2.1985999999940304],0,0,0,13,1,,,,,,,,,,,,,,,,,,
,,,,,,,,,,5fc9009e38ffaa3301b69c16,22,Kobieta,2022-05-28_09h37.49.414,task,2021.1.4,Win32,59.96282305,628b806c463b948bc644b84f,6291cfd36a2eb044c52c03e7,,,,,,,,,,"X V Q F H G B L J M P D K C T S W R N Z
",,,,,,,,,,,,,,,,,,,,,,,,,,,,,,,,,,,,,,,,,,,,,,,,,,,,,,,,,,,,,,,,,,,,,,,,,,,,2,0,2,0,1,,,,,,,,,,,,,
,,,,,,,,,,5fc9009e38ffaa3301b69c16,22,Kobieta,2022-05-28_09h37.49.414,task,2021.1.4,Win32,59.96282305,628b806c463b948bc644b84f,6291cfd36a2eb044c52c03e7,,,,,,,,,,,,,,,,,,,,,,,8,,,,,,,,,,Task,32,(8/2) + 4,8,,,,,,,,,,,,,,,,,,,1,,,,,,,,,,,,,,,,,,,,,,,"[""8""]",1,[2.091400000006047],0,0,0,31,1,,,,,,,,,,,,,,,,,,
,,,,,,,,,,5fc9009e38ffaa3301b69c16,22,Kobieta,2022-05-28_09h37.49.414,task,2021.1.4,Win32,59.96282305,628b806c463b948bc644b84f,6291cfd36a2eb044c52c03e7,,,,,,,,,,"X V Q F H G B L J M P D K C T S W R N Z
",,,,,,,,,,,,,,,,,,,,,,,,,,,,,,,,,,,,,,,,,,,,,,,,,,,,,,,,,,,,,,,,,,,,,,,,,,,,3,0,3,0,1,,,,,,,,,,,,,
,,,,,,,,,,5fc9009e38ffaa3301b69c16,22,Kobieta,2022-05-28_09h37.49.414,task,2021.1.4,Win32,59.96282305,628b806c463b948bc644b84f,6291cfd36a2eb044c52c03e7,,,,,,,,,,,,,,,,,,,,,,,4,,,,,,,,,,Task,11,(18/3) - 2,4,,,,,,,,,,,,,,,,,,,1,,,,,,,,,,,,,,,,,,,,,,,"[""4""]",1,[4.1515000000000555],0,0,0,10,1,,,,,,,,,,,,,,,,,,
,,,,,,,,,,5fc9009e38ffaa3301b69c16,22,Kobieta,2022-05-28_09h37.49.414,task,2021.1.4,Win32,59.96282305,628b806c463b948bc644b84f,6291cfd36a2eb044c52c03e7,,,,,,,,,,"X V Q F H G B L J M P D K C T S W R N Z
",,,,,,,,,,,,,,,,,,,,,,,,,,,,,,,,,,,,,,,,,,,,,,,,,,,,,,,,,,,,,,,,,,,,,,,,,,,,4,0,4,0,1,,,,,,,,,,,,,
,,,,,,,,,,5fc9009e38ffaa3301b69c16,22,Kobieta,2022-05-28_09h37.49.414,task,2021.1.4,Win32,59.96282305,628b806c463b948bc644b84f,6291cfd36a2eb044c52c03e7,,,,,,,,,,,,,,,,,,,,,,,7,,,,,,,,,,Task,31,(4/2) + 5,7,,,,,,,,,,,,,,,,,,,1,,,,,,,,,,,,,,,,,,,,,,,"[""7""]",1,[2.5398000000118373],0,0,0,30,1,,,,,,,,,,,,,,,,,,
,,,,,,,,,,5fc9009e38ffaa3301b69c16,22,Kobieta,2022-05-28_09h37.49.414,task,2021.1.4,Win32,59.96282305,628b806c463b948bc644b84f,6291cfd36a2eb044c52c03e7,,,,,,,,,,"X V Q F H G B L J M P D K C T S W R N Z
",,,,,,,,,,,,,,,,,,,,,,,,,,,,,,,,,,,,,,,,,,,,,,,,,,,,,,,,,,,,,,,,,,,,,,,,,,,,5,0,5,0,1,,,,,,,,,,,,,
,,,,,,,,,,5fc9009e38ffaa3301b69c16,22,Kobieta,2022-05-28_09h37.49.414,task,2021.1.4,Win32,59.96282305,628b806c463b948bc644b84f,6291cfd36a2eb044c52c03e7,,,,,,,,,,,,,,,,,,,,,,,6,,,,,,,,,,Task,37,(3/3) + 5,6,,,,,,,,,,,,,,,,,,,1,,,,,,,,,,,,,,,,,,,,,,,"[""6""]",1,[2.472900000006007],0,0,0,36,1,,,,,,,,,,,,,,,,,,
,,,,,,,,,,5fc9009e38ffaa3301b69c16,22,Kobieta,2022-05-28_09h37.49.414,task,2021.1.4,Win32,59.96282305,628b806c463b948bc644b84f,6291cfd36a2eb044c52c03e7,,,,,,,,,,"X V Q F H G B L J M P D K C T S W R N Z
",,,,,,,,,,,,,,,,,,,,,,,,,,,,,,,,,,,,,,,,,,,,,,,,,,,,,,,,,,,,,,,,,,,,,,,,,,,,6,0,6,0,1,,,,,,,,,,,,,
,,,,,,,,,,5fc9009e38ffaa3301b69c16,22,Kobieta,2022-05-28_09h37.49.414,task,2021.1.4,Win32,59.96282305,628b806c463b948bc644b84f,6291cfd36a2eb044c52c03e7,,,,,,,,,,,,,,,,,,,,,,,,,,,,,,,,,,,,,,,,,,,,,,,,,,,,,,,,,,,,,,,,,,,,,,,,,,,,,,,,,,,,,,,,,,,vqpvvvs,"[""v"",""q"",""p"",""v"",""v"",""v"",""s""]",0,"[1.5185999999939668,2.059400000005894,2.595200000017826,3.5135999999939713,3.694499999999948,3.895400000005907,5.198099999994042,5.949599999994007]",1,VQPVVVS,7,0,7,0,1,,
,,,,,,,,,,5fc9009e38ffaa3301b69c16,22,Kobieta,2022-05-28_09h37.49.414,task,2021.1.4,Win32,59.96282305,628b806c463b948bc644b84f,6291cfd36a2eb044c52c03e7,,,,,,,,,,,,,,,,,,,,,,,7,,,,,,,,,,Task,6,(12/2) + 1,7,,,,,,,,,,,,,,,,,,,1,,,,,,,,,,,,,,,,,,,,,,,"[""7""]",1,[2.1381999999880463],0,0,0,5,1,,,,,,,,,,,,,,,,,,
,,,,,,,,,,5fc9009e38ffaa3301b69c16,22,Kobieta,2022-05-28_09h37.49.414,task,2021.1.4,Win32,59.96282305,628b806c463b948bc644b84f,6291cfd36a2eb044c52c03e7,,,,,,,,,,"X V Q F H G B L J M P D K C T S W R N Z
",,,,,,,,,,,,,,,,,,,,,,,,,,,,,,,,,,,,,,,,,,,,,,,,,,,,,,,,,,,,,,,,,,,,,,,,,,,,0,0,0,0,1,,,,,,,,,,,,,
,,,,,,,,,,5fc9009e38ffaa3301b69c16,22,Kobieta,2022-05-28_09h37.49.414,task,2021.1.4,Win32,59.96282305,628b806c463b948bc644b84f,6291cfd36a2eb044c52c03e7,,,,,,,,,,,,,,,,,,,,,,,0,,,,,,,,,,Task,17,(2x3) - 6,0,,,,,,,,,,,,,,,,,,,1,,,,,,,,,,,,,,,,,,,,,,,"[""0""]",1,[1.6360999999940304],0,0,0,16,1,,,,,,,,,,,,,,,,,,
,,,,,,,,,,5fc9009e38ffaa3301b69c16,22,Kobieta,2022-05-28_09h37.49.414,task,2021.1.4,Win32,59.96282305,628b806c463b948bc644b84f,6291cfd36a2eb044c52c03e7,,,,,,,,,,"X V Q F H G B L J M P D K C T S W R N Z
",,,,,,,,,,,,,,,,,,,,,,,,,,,,,,,,,,,,,,,,,,,,,,,,,,,,,,,,,,,,,,,,,,,,,,,,,,,,1,0,1,0,1,,,,,,,,,,,,,
,,,,,,,,,,5fc9009e38ffaa3301b69c16,22,Kobieta,2022-05-28_09h37.49.414,task,2021.1.4,Win32,59.96282305,628b806c463b948bc644b84f,6291cfd36a2eb044c52c03e7,,,,,,,,,,,,,,,,,,,,,,,7,,,,,,,,,,Task,6,(12/2) + 1,7,,,,,,,,,,,,,,,,,,,1,,,,,,,,,,,,,,,,,,,,,,,"[""7""]",1,[1.468499999999949],0,0,0,5,1,,,,,,,,,,,,,,,,,,
,,,,,,,,,,5fc9009e38ffaa3301b69c16,22,Kobieta,2022-05-28_09h37.49.414,task,2021.1.4,Win32,59.96282305,628b806c463b948bc644b84f,6291cfd36a2eb044c52c03e7,,,,,,,,,,"X V Q F H G B L J M P D K C T S W R N Z
",,,,,,,,,,,,,,,,,,,,,,,,,,,,,,,,,,,,,,,,,,,,,,,,,,,,,,,,,,,,,,,,,,,,,,,,,,,,2,0,2,0,1,,,,,,,,,,,,,
,,,,,,,,,,5fc9009e38ffaa3301b69c16,22,Kobieta,2022-05-28_09h37.49.414,task,2021.1.4,Win32,59.96282305,628b806c463b948bc644b84f,6291cfd36a2eb044c52c03e7,,,,,,,,,,,,,,,,,,,,,,,2,,,,,,,,,,Task,26,(2x9) - 16,2,,,,,,,,,,,,,,,,,,,1,,,,,,,,,,,,,,,,,,,,,,,"[""2""]",1,[1.622400000005996],0,0,0,25,1,,,,,,,,,,,,,,,,,,
,,,,,,,,,,5fc9009e38ffaa3301b69c16,22,Kobieta,2022-05-28_09h37.49.414,task,2021.1.4,Win32,59.96282305,628b806c463b948bc644b84f,6291cfd36a2eb044c52c03e7,,,,,,,,,,"X V Q F H G B L J M P D K C T S W R N Z
",,,,,,,,,,,,,,,,,,,,,,,,,,,,,,,,,,,,,,,,,,,,,,,,,,,,,,,,,,,,,,,,,,,,,,,,,,,,3,0,3,0,1,,,,,,,,,,,,,
,,,,,,,,,,5fc9009e38ffaa3301b69c16,22,Kobieta,2022-05-28_09h37.49.414,task,2021.1.4,Win32,59.96282305,628b806c463b948bc644b84f,6291cfd36a2eb044c52c03e7,,,,,,,,,,,,,,,,,,,,,,,5,,,,,,,,,,Task,29,(3x8) - 19 ,5,,,,,,,,,,,,,,,,,,,1,,,,,,,,,,,,,,,,,,,,,,,"[""5""]",1,[3.193499999999972],0,0,0,28,1,,,,,,,,,,,,,,,,,,
,,,,,,,,,,5fc9009e38ffaa3301b69c16,22,Kobieta,2022-05-28_09h37.49.414,task,2021.1.4,Win32,59.96282305,628b806c463b948bc644b84f,6291cfd36a2eb044c52c03e7,,,,,,,,,,"X V Q F H G B L J M P D K C T S W R N Z
",,,,,,,,,,,,,,,,,,,,,,,,,,,,,,,,,,,,,,,,,,,,,,,,,,,,,,,,,,,,,,,,,,,,,,,,,,,,4,0,4,0,1,,,,,,,,,,,,,
,,,,,,,,,,5fc9009e38ffaa3301b69c16,22,Kobieta,2022-05-28_09h37.49.414,task,2021.1.4,Win32,59.96282305,628b806c463b948bc644b84f,6291cfd36a2eb044c52c03e7,,,,,,,,,,,,,,,,,,,,,,,8,,,,,,,,,,Task,23,(2x3) + 2,8,,,,,,,,,,,,,,,,,,,1,,,,,,,,,,,,,,,,,,,,,,,"[""8""]",1,[2.3395000000000437],0,0,0,22,1,,,,,,,,,,,,,,,,,,
,,,,,,,,,,5fc9009e38ffaa3301b69c16,22,Kobieta,2022-05-28_09h37.49.414,task,2021.1.4,Win32,59.96282305,628b806c463b948bc644b84f,6291cfd36a2eb044c52c03e7,,,,,,,,,,"X V Q F H G B L J M P D K C T S W R N Z
",,,,,,,,,,,,,,,,,,,,,,,,,,,,,,,,,,,,,,,,,,,,,,,,,,,,,,,,,,,,,,,,,,,,,,,,,,,,5,0,5,0,1,,,,,,,,,,,,,
,,,,,,,,,,5fc9009e38ffaa3301b69c16,22,Kobieta,2022-05-28_09h37.49.414,task,2021.1.4,Win32,59.96282305,628b806c463b948bc644b84f,6291cfd36a2eb044c52c03e7,,,,,,,,,,,,,,,,,,,,,,,3,,,,,,,,,,Task,27,(3/3) + 2,3,,,,,,,,,,,,,,,,,,,1,,,,,,,,,,,,,,,,,,,,,,,"[""3""]",1,[2.2445999999940796],0,0,0,26,1,,,,,,,,,,,,,,,,,,
,,,,,,,,,,5fc9009e38ffaa3301b69c16,22,Kobieta,2022-05-28_09h37.49.414,task,2021.1.4,Win32,59.96282305,628b806c463b948bc644b84f,6291cfd36a2eb044c52c03e7,,,,,,,,,,"X V Q F H G B L J M P D K C T S W R N Z
",,,,,,,,,,,,,,,,,,,,,,,,,,,,,,,,,,,,,,,,,,,,,,,,,,,,,,,,,,,,,,,,,,,,,,,,,,,,6,0,6,0,1,,,,,,,,,,,,,
,,,,,,,,,,5fc9009e38ffaa3301b69c16,22,Kobieta,2022-05-28_09h37.49.414,task,2021.1.4,Win32,59.96282305,628b806c463b948bc644b84f,6291cfd36a2eb044c52c03e7,,,,,,,,,,,,,,,,,,,,,,,6,,,,,,,,,,Task,30,(6/3) + 4 ,6,,,,,,,,,,,,,,,,,,,1,,,,,,,,,,,,,,,,,,,,,,,"[""6""]",1,[1.9751999999880354],0,0,0,29,1,,,,,,,,,,,,,,,,,,
,,,,,,,,,,5fc9009e38ffaa3301b69c16,22,Kobieta,2022-05-28_09h37.49.414,task,2021.1.4,Win32,59.96282305,628b806c463b948bc644b84f,6291cfd36a2eb044c52c03e7,,,,,,,,,,"X V Q F H G B L J M P D K C T S W R N Z
",,,,,,,,,,,,,,,,,,,,,,,,,,,,,,,,,,,,,,,,,,,,,,,,,,,,,,,,,,,,,,,,,,,,,,,,,,,,7,0,7,0,1,,,,,,,,,,,,,
,,,,,,,,,,5fc9009e38ffaa3301b69c16,22,Kobieta,2022-05-28_09h37.49.414,task,2021.1.4,Win32,59.96282305,628b806c463b948bc644b84f,6291cfd36a2eb044c52c03e7,,,,,,,,,,,,,,,,,,,,,,,,,,,,,,,,,,,,,,,,,,,,,,,,,,,,,,,,,,,,,,,,,,,,,,,,,,,,,,,,,,,,,,,,,,,grmsvmds,"[""g"",""r"",""m"",""s"",""v"",""m"",""d"",""s""]",0,"[1.8888000000118836,2.340599999994083,2.8564000000059195,3.280999999999949,3.6504999999999654,4.07830000001195,4.529599999994048,4.815900000005968,5.181900000005953]",0,GRMSVMDF,8,0,8,0,1,,
,,,,,,,,,,5fc9009e38ffaa3301b69c16,22,Kobieta,2022-05-28_09h37.49.414,task,2021.1.4,Win32,59.96282305,628b806c463b948bc644b84f,6291cfd36a2eb044c52c03e7,,,,,,,,,,,,,,,,,,,,,,,7,,,,,,,,,,Task,31,(4/2) + 5,7,,,,,,,,,,,,,,,,,,,1,,,,,,,,,,,,,,,,,,,,,,,"[""7""]",1,[1.788400000005936],0,0,0,30,1,,,,,,,,,,,,,,,,,,
,,,,,,,,,,5fc9009e38ffaa3301b69c16,22,Kobieta,2022-05-28_09h37.49.414,task,2021.1.4,Win32,59.96282305,628b806c463b948bc644b84f,6291cfd36a2eb044c52c03e7,,,,,,,,,,"X V Q F H G B L J M P D K C T S W R N Z
