key_resp_15.keys,key_resp_15.rt,key_resp_13.keys,key_resp_13.corr,key_resp_13.rt,ranodm_loop.thisRepN,ranodm_loop.thisTrialN,ranodm_loop.thisN,ranodm_loop.thisIndex,ranodm_loop.ran,participant,Wiek*,Płeć,date,expName,psychopyVersion,OS,frameRate,study_id,session,key_resp_16.keys,key_resp_16.rt,key_resp_4.keys,key_resp_4.rt,next_letter.thisRepN,next_letter.thisTrialN,next_letter.thisN,next_letter.thisIndex,next_letter.ran,letter,simple_recall,key_resp_5.keys,key_resp_5.rt,simple_recall_corr,simple_recall_corrkeys,next_level.thisRepN,next_level.thisTrialN,next_level.thisN,next_level.thisIndex,next_level.ran,key_resp_2.keys,key_resp_2.rt,digit_answer,key_resp.keys,key_resp.corr,key_resp.rt,RT_list,next_equation.thisRepN,next_equation.thisTrialN,next_equation.thisN,next_equation.thisIndex,next_equation.ran,Task,Trial,Problem,Operation_answer,processing_score,sumRT,meanRT,sumdiff,sd,RT,key_resp_3.keys,key_resp_3.rt,repeat_practice.thisRepN,repeat_practice.thisTrialN,repeat_practice.thisN,repeat_practice.thisIndex,repeat_practice.ran,key_resp_6.keys,key_resp_6.rt,key_resp_11.keys,key_resp_11.corr,key_resp_11.rt,operation_correct,repeat_if_wrong_prac.thisRepN,repeat_if_wrong_prac.thisTrialN,repeat_if_wrong_prac.thisN,repeat_if_wrong_prac.thisIndex,repeat_if_wrong_prac.ran,span_size_prac.thisRepN,span_size_prac.thisTrialN,span_size_prac.thisN,span_size_prac.thisIndex,span_size_prac.ran,complex_recall_practice,key_resp_9.keys,key_resp_9.corr,key_resp_9.rt,complex_prac_corr,span_recall_prac.thisRepN,span_recall_prac.thisTrialN,span_recall_prac.thisN,span_recall_prac.thisIndex,span_recall_prac.ran,key_resp_10.keys,key_resp_10.rt,key_resp_7.keys,key_resp_7.corr,key_resp_7.rt,repeat_if_wrong.thisRepN,repeat_if_wrong.thisTrialN,repeat_if_wrong.thisN,repeat_if_wrong.thisIndex,repeat_if_wrong.ran,span_size.thisRepN,span_size.thisTrialN,span_size.thisN,span_size.thisIndex,span_size.ran,complex_recall,key_resp_8.keys,key_resp_8.corr,key_resp_8.rt,complex_recall_corr,complex_recall_corrkeys,span_recall.thisRepN,span_recall.thisTrialN,span_recall.thisN,span_recall.thisIndex,span_recall.ran,key_resp_12.keys,key_resp_12.rt
space,16.2378,"[""comma""]",0,[1.1678000000715372],0,0,0,0,1,5fcc03ab80ec79268c02600d,25,Mężczyzna,2022-05-28_09h12.09.486,task,2021.1.4,Win32,59.52380952,628b806c463b948bc644b84f,6291cafe9e5bca219870781c,,,,,,,,,,,,,,,,,,,,,,,,,,,,,,,,,,,,,,,,,,,,,,,,,,,,,,,,,,,,,,,,,,,,,,,,,,,,,,,,,,,,,,,,,,,,,,,,,,,,,,,
,,"[""period""]",0,[0.8915000000000077],1,0,1,0,1,5fcc03ab80ec79268c02600d,25,Mężczyzna,2022-05-28_09h12.09.486,task,2021.1.4,Win32,59.52380952,628b806c463b948bc644b84f,6291cafe9e5bca219870781c,,,,,,,,,,,,,,,,,,,,,,,,,,,,,,,,,,,,,,,,,,,,,,,,,,,,,,,,,,,,,,,,,,,,,,,,,,,,,,,,,,,,,,,,,,,,,,,,,,,,,,,
,,"[""period""]",0,[0.7447999999523347],2,0,2,0,1,5fcc03ab80ec79268c02600d,25,Mężczyzna,2022-05-28_09h12.09.486,task,2021.1.4,Win32,59.52380952,628b806c463b948bc644b84f,6291cafe9e5bca219870781c,,,,,,,,,,,,,,,,,,,,,,,,,,,,,,,,,,,,,,,,,,,,,,,,,,,,,,,,,,,,,,,,,,,,,,,,,,,,,,,,,,,,,,,,,,,,,,,,,,,,,,,
,,"[""period""]",0,[0.533799999952322],3,0,3,0,1,5fcc03ab80ec79268c02600d,25,Mężczyzna,2022-05-28_09h12.09.486,task,2021.1.4,Win32,59.52380952,628b806c463b948bc644b84f,6291cafe9e5bca219870781c,,,,,,,,,,,,,,,,,,,,,,,,,,,,,,,,,,,,,,,,,,,,,,,,,,,,,,,,,,,,,,,,,,,,,,,,,,,,,,,,,,,,,,,,,,,,,,,,,,,,,,,
,,"[""comma""]",0,[0.4160999999046453],4,0,4,0,1,5fcc03ab80ec79268c02600d,25,Mężczyzna,2022-05-28_09h12.09.486,task,2021.1.4,Win32,59.52380952,628b806c463b948bc644b84f,6291cafe9e5bca219870781c,,,,,,,,,,,,,,,,,,,,,,,,,,,,,,,,,,,,,,,,,,,,,,,,,,,,,,,,,,,,,,,,,,,,,,,,,,,,,,,,,,,,,,,,,,,,,,,,,,,,,,,
,,"[""comma""]",0,[0.5685999999046203],5,0,5,0,1,5fcc03ab80ec79268c02600d,25,Mężczyzna,2022-05-28_09h12.09.486,task,2021.1.4,Win32,59.52380952,628b806c463b948bc644b84f,6291cafe9e5bca219870781c,,,,,,,,,,,,,,,,,,,,,,,,,,,,,,,,,,,,,,,,,,,,,,,,,,,,,,,,,,,,,,,,,,,,,,,,,,,,,,,,,,,,,,,,,,,,,,,,,,,,,,,
,,"[""period""]",0,[0.3293999999761752],6,0,6,0,1,5fcc03ab80ec79268c02600d,25,Mężczyzna,2022-05-28_09h12.09.486,task,2021.1.4,Win32,59.52380952,628b806c463b948bc644b84f,6291cafe9e5bca219870781c,,,,,,,,,,,,,,,,,,,,,,,,,,,,,,,,,,,,,,,,,,,,,,,,,,,,,,,,,,,,,,,,,,,,,,,,,,,,,,,,,,,,,,,,,,,,,,,,,,,,,,,
,,"[""comma""]",0,[0.3173999999761463],7,0,7,0,1,5fcc03ab80ec79268c02600d,25,Mężczyzna,2022-05-28_09h12.09.486,task,2021.1.4,Win32,59.52380952,628b806c463b948bc644b84f,6291cafe9e5bca219870781c,,,,,,,,,,,,,,,,,,,,,,,,,,,,,,,,,,,,,,,,,,,,,,,,,,,,,,,,,,,,,,,,,,,,,,,,,,,,,,,,,,,,,,,,,,,,,,,,,,,,,,,
,,"[""period""]",0,[0.5233999999761352],8,0,8,0,1,5fcc03ab80ec79268c02600d,25,Mężczyzna,2022-05-28_09h12.09.486,task,2021.1.4,Win32,59.52380952,628b806c463b948bc644b84f,6291cafe9e5bca219870781c,,,,,,,,,,,,,,,,,,,,,,,,,,,,,,,,,,,,,,,,,,,,,,,,,,,,,,,,,,,,,,,,,,,,,,,,,,,,,,,,,,,,,,,,,,,,,,,,,,,,,,,
,,"[""period""]",0,[0.3675000000000068],9,0,9,0,1,5fcc03ab80ec79268c02600d,25,Mężczyzna,2022-05-28_09h12.09.486,task,2021.1.4,Win32,59.52380952,628b806c463b948bc644b84f,6291cafe9e5bca219870781c,,,,,,,,,,,,,,,,,,,,,,,,,,,,,,,,,,,,,,,,,,,,,,,,,,,,,,,,,,,,,,,,,,,,,,,,,,,,,,,,,,,,,,,,,,,,,,,,,,,,,,,
,,"[""comma"",""comma""]",0,"[0.30870000004767917,0.3798999999761463]",10,0,10,0,1,5fcc03ab80ec79268c02600d,25,Mężczyzna,2022-05-28_09h12.09.486,task,2021.1.4,Win32,59.52380952,628b806c463b948bc644b84f,6291cafe9e5bca219870781c,,,,,,,,,,,,,,,,,,,,,,,,,,,,,,,,,,,,,,,,,,,,,,,,,,,,,,,,,,,,,,,,,,,,,,,,,,,,,,,,,,,,,,,,,,,,,,,,,,,,,,,
,,"[""period""]",0,[0.40799999999998704],11,0,11,0,1,5fcc03ab80ec79268c02600d,25,Mężczyzna,2022-05-28_09h12.09.486,task,2021.1.4,Win32,59.52380952,628b806c463b948bc644b84f,6291cafe9e5bca219870781c,,,,,,,,,,,,,,,,,,,,,,,,,,,,,,,,,,,,,,,,,,,,,,,,,,,,,,,,,,,,,,,,,,,,,,,,,,,,,,,,,,,,,,,,,,,,,,,,,,,,,,,
,,"[""comma""]",0,[0.4126999999284635],12,0,12,0,1,5fcc03ab80ec79268c02600d,25,Mężczyzna,2022-05-28_09h12.09.486,task,2021.1.4,Win32,59.52380952,628b806c463b948bc644b84f,6291cafe9e5bca219870781c,,,,,,,,,,,,,,,,,,,,,,,,,,,,,,,,,,,,,,,,,,,,,,,,,,,,,,,,,,,,,,,,,,,,,,,,,,,,,,,,,,,,,,,,,,,,,,,,,,,,,,,
,,"[""period""]",0,[0.5286000000238289],13,0,13,0,1,5fcc03ab80ec79268c02600d,25,Mężczyzna,2022-05-28_09h12.09.486,task,2021.1.4,Win32,59.52380952,628b806c463b948bc644b84f,6291cafe9e5bca219870781c,,,,,,,,,,,,,,,,,,,,,,,,,,,,,,,,,,,,,,,,,,,,,,,,,,,,,,,,,,,,,,,,,,,,,,,,,,,,,,,,,,,,,,,,,,,,,,,,,,,,,,,
,,"[""period""]",0,[0.2861000000238505],14,0,14,0,1,5fcc03ab80ec79268c02600d,25,Mężczyzna,2022-05-28_09h12.09.486,task,2021.1.4,Win32,59.52380952,628b806c463b948bc644b84f,6291cafe9e5bca219870781c,,,,,,,,,,,,,,,,,,,,,,,,,,,,,,,,,,,,,,,,,,,,,,,,,,,,,,,,,,,,,,,,,,,,,,,,,,,,,,,,,,,,,,,,,,,,,,,,,,,,,,,
,,"[""period""]",0,[0.26839999997616815],15,0,15,0,1,5fcc03ab80ec79268c02600d,25,Mężczyzna,2022-05-28_09h12.09.486,task,2021.1.4,Win32,59.52380952,628b806c463b948bc644b84f,6291cafe9e5bca219870781c,,,,,,,,,,,,,,,,,,,,,,,,,,,,,,,,,,,,,,,,,,,,,,,,,,,,,,,,,,,,,,,,,,,,,,,,,,,,,,,,,,,,,,,,,,,,,,,,,,,,,,,
,,"[""period""]",0,[0.038400000095350606],16,0,16,0,1,5fcc03ab80ec79268c02600d,25,Mężczyzna,2022-05-28_09h12.09.486,task,2021.1.4,Win32,59.52380952,628b806c463b948bc644b84f,6291cafe9e5bca219870781c,,,,,,,,,,,,,,,,,,,,,,,,,,,,,,,,,,,,,,,,,,,,,,,,,,,,,,,,,,,,,,,,,,,,,,,,,,,,,,,,,,,,,,,,,,,,,,,,,,,,,,,
,,"[""comma""]",0,[0.25200000000000955],17,0,17,0,1,5fcc03ab80ec79268c02600d,25,Mężczyzna,2022-05-28_09h12.09.486,task,2021.1.4,Win32,59.52380952,628b806c463b948bc644b84f,6291cafe9e5bca219870781c,,,,,,,,,,,,,,,,,,,,,,,,,,,,,,,,,,,,,,,,,,,,,,,,,,,,,,,,,,,,,,,,,,,,,,,,,,,,,,,,,,,,,,,,,,,,,,,,,,,,,,,
,,"[""comma""]",0,[0.21780000007152012],18,0,18,0,1,5fcc03ab80ec79268c02600d,25,Mężczyzna,2022-05-28_09h12.09.486,task,2021.1.4,Win32,59.52380952,628b806c463b948bc644b84f,6291cafe9e5bca219870781c,,,,,,,,,,,,,,,,,,,,,,,,,,,,,,,,,,,,,,,,,,,,,,,,,,,,,,,,,,,,,,,,,,,,,,,,,,,,,,,,,,,,,,,,,,,,,,,,,,,,,,,
,,"[""comma""]",0,[1.4444999999999766],19,0,19,0,1,5fcc03ab80ec79268c02600d,25,Mężczyzna,2022-05-28_09h12.09.486,task,2021.1.4,Win32,59.52380952,628b806c463b948bc644b84f,6291cafe9e5bca219870781c,,,,,,,,,,,,,,,,,,,,,,,,,,,,,,,,,,,,,,,,,,,,,,,,,,,,,,,,,,,,,,,,,,,,,,,,,,,,,,,,,,,,,,,,,,,,,,,,,,,,,,,
,,,0,,20,0,20,0,1,5fcc03ab80ec79268c02600d,25,Mężczyzna,2022-05-28_09h12.09.486,task,2021.1.4,Win32,59.52380952,628b806c463b948bc644b84f,6291cafe9e5bca219870781c,,,,,,,,,,,,,,,,,,,,,,,,,,,,,,,,,,,,,,,,,,,,,,,,,,,,,,,,,,,,,,,,,,,,,,,,,,,,,,,,,,,,,,,,,,,,,,,,,,,,,,,
,,"[""period""]",0,[0.2838999999761427],21,0,21,0,1,5fcc03ab80ec79268c02600d,25,Mężczyzna,2022-05-28_09h12.09.486,task,2021.1.4,Win32,59.52380952,628b806c463b948bc644b84f,6291cafe9e5bca219870781c,,,,,,,,,,,,,,,,,,,,,,,,,,,,,,,,,,,,,,,,,,,,,,,,,,,,,,,,,,,,,,,,,,,,,,,,,,,,,,,,,,,,,,,,,,,,,,,,,,,,,,,
,,"[""period""]",0,[0.3610999999046385],22,0,22,0,1,5fcc03ab80ec79268c02600d,25,Mężczyzna,2022-05-28_09h12.09.486,task,2021.1.4,Win32,59.52380952,628b806c463b948bc644b84f,6291cafe9e5bca219870781c,,,,,,,,,,,,,,,,,,,,,,,,,,,,,,,,,,,,,,,,,,,,,,,,,,,,,,,,,,,,,,,,,,,,,,,,,,,,,,,,,,,,,,,,,,,,,,,,,,,,,,,
,,"[""comma""]",0,[0.41420000004768553],23,0,23,0,1,5fcc03ab80ec79268c02600d,25,Mężczyzna,2022-05-28_09h12.09.486,task,2021.1.4,Win32,59.52380952,628b806c463b948bc644b84f,6291cafe9e5bca219870781c,,,,,,,,,,,,,,,,,,,,,,,,,,,,,,,,,,,,,,,,,,,,,,,,,,,,,,,,,,,,,,,,,,,,,,,,,,,,,,,,,,,,,,,,,,,,,,,,,,,,,,,
,,"[""period""]",0,[0.33820000004769213],24,0,24,0,1,5fcc03ab80ec79268c02600d,25,Mężczyzna,2022-05-28_09h12.09.486,task,2021.1.4,Win32,59.52380952,628b806c463b948bc644b84f,6291cafe9e5bca219870781c,,,,,,,,,,,,,,,,,,,,,,,,,,,,,,,,,,,,,,,,,,,,,,,,,,,,,,,,,,,,,,,,,,,,,,,,,,,,,,,,,,,,,,,,,,,,,,,,,,,,,,,
,,"[""comma""]",0,[0.2948000000715467],25,0,25,0,1,5fcc03ab80ec79268c02600d,25,Mężczyzna,2022-05-28_09h12.09.486,task,2021.1.4,Win32,59.52380952,628b806c463b948bc644b84f,6291cafe9e5bca219870781c,,,,,,,,,,,,,,,,,,,,,,,,,,,,,,,,,,,,,,,,,,,,,,,,,,,,,,,,,,,,,,,,,,,,,,,,,,,,,,,,,,,,,,,,,,,,,,,,,,,,,,,
,,"[""comma""]",0,[0.3018000000715233],26,0,26,0,1,5fcc03ab80ec79268c02600d,25,Mężczyzna,2022-05-28_09h12.09.486,task,2021.1.4,Win32,59.52380952,628b806c463b948bc644b84f,6291cafe9e5bca219870781c,,,,,,,,,,,,,,,,,,,,,,,,,,,,,,,,,,,,,,,,,,,,,,,,,,,,,,,,,,,,,,,,,,,,,,,,,,,,,,,,,,,,,,,,,,,,,,,,,,,,,,,
,,"[""comma""]",0,[0.28700000000000614],27,0,27,0,1,5fcc03ab80ec79268c02600d,25,Mężczyzna,2022-05-28_09h12.09.486,task,2021.1.4,Win32,59.52380952,628b806c463b948bc644b84f,6291cafe9e5bca219870781c,,,,,,,,,,,,,,,,,,,,,,,,,,,,,,,,,,,,,,,,,,,,,,,,,,,,,,,,,,,,,,,,,,,,,,,,,,,,,,,,,,,,,,,,,,,,,,,,,,,,,,,
,,"[""comma""]",0,[0.268600000023838],28,0,28,0,1,5fcc03ab80ec79268c02600d,25,Mężczyzna,2022-05-28_09h12.09.486,task,2021.1.4,Win32,59.52380952,628b806c463b948bc644b84f,6291cafe9e5bca219870781c,,,,,,,,,,,,,,,,,,,,,,,,,,,,,,,,,,,,,,,,,,,,,,,,,,,,,,,,,,,,,,,,,,,,,,,,,,,,,,,,,,,,,,,,,,,,,,,,,,,,,,,
,,"[""comma""]",0,[0.2799000000953811],29,0,29,0,1,5fcc03ab80ec79268c02600d,25,Mężczyzna,2022-05-28_09h12.09.486,task,2021.1.4,Win32,59.52380952,628b806c463b948bc644b84f,6291cafe9e5bca219870781c,,,,,,,,,,,,,,,,,,,,,,,,,,,,,,,,,,,,,,,,,,,,,,,,,,,,,,,,,,,,,,,,,,,,,,,,,,,,,,,,,,,,,,,,,,,,,,,,,,,,,,,
,,"[""period""]",0,[0.30920000004769577],30,0,30,0,1,5fcc03ab80ec79268c02600d,25,Mężczyzna,2022-05-28_09h12.09.486,task,2021.1.4,Win32,59.52380952,628b806c463b948bc644b84f,6291cafe9e5bca219870781c,,,,,,,,,,,,,,,,,,,,,,,,,,,,,,,,,,,,,,,,,,,,,,,,,,,,,,,,,,,,,,,,,,,,,,,,,,,,,,,,,,,,,,,,,,,,,,,,,,,,,,,
,,"[""comma""]",0,[0.30579999995231333],31,0,31,0,1,5fcc03ab80ec79268c02600d,25,Mężczyzna,2022-05-28_09h12.09.486,task,2021.1.4,Win32,59.52380952,628b806c463b948bc644b84f,6291cafe9e5bca219870781c,,,,,,,,,,,,,,,,,,,,,,,,,,,,,,,,,,,,,,,,,,,,,,,,,,,,,,,,,,,,,,,,,,,,,,,,,,,,,,,,,,,,,,,,,,,,,,,,,,,,,,,
,,"[""period""]",0,[0.23059999990462643],32,0,32,0,1,5fcc03ab80ec79268c02600d,25,Mężczyzna,2022-05-28_09h12.09.486,task,2021.1.4,Win32,59.52380952,628b806c463b948bc644b84f,6291cafe9e5bca219870781c,,,,,,,,,,,,,,,,,,,,,,,,,,,,,,,,,,,,,,,,,,,,,,,,,,,,,,,,,,,,,,,,,,,,,,,,,,,,,,,,,,,,,,,,,,,,,,,,,,,,,,,
,,"[""period""]",0,[0.24940000009539176],33,0,33,0,1,5fcc03ab80ec79268c02600d,25,Mężczyzna,2022-05-28_09h12.09.486,task,2021.1.4,Win32,59.52380952,628b806c463b948bc644b84f,6291cafe9e5bca219870781c,,,,,,,,,,,,,,,,,,,,,,,,,,,,,,,,,,,,,,,,,,,,,,,,,,,,,,,,,,,,,,,,,,,,,,,,,,,,,,,,,,,,,,,,,,,,,,,,,,,,,,,
,,"[""comma""]",0,[0.21750000000000114],34,0,34,0,1,5fcc03ab80ec79268c02600d,25,Mężczyzna,2022-05-28_09h12.09.486,task,2021.1.4,Win32,59.52380952,628b806c463b948bc644b84f,6291cafe9e5bca219870781c,,,,,,,,,,,,,,,,,,,,,,,,,,,,,,,,,,,,,,,,,,,,,,,,,,,,,,,,,,,,,,,,,,,,,,,,,,,,,,,,,,,,,,,,,,,,,,,,,,,,,,,
,,"[""period""]",0,[0.2754000000953738],35,0,35,0,1,5fcc03ab80ec79268c02600d,25,Mężczyzna,2022-05-28_09h12.09.486,task,2021.1.4,Win32,59.52380952,628b806c463b948bc644b84f,6291cafe9e5bca219870781c,,,,,,,,,,,,,,,,,,,,,,,,,,,,,,,,,,,,,,,,,,,,,,,,,,,,,,,,,,,,,,,,,,,,,,,,,,,,,,,,,,,,,,,,,,,,,,,,,,,,,,,
,,"[""period""]",0,[0.2955000000000041],36,0,36,0,1,5fcc03ab80ec79268c02600d,25,Mężczyzna,2022-05-28_09h12.09.486,task,2021.1.4,Win32,59.52380952,628b806c463b948bc644b84f,6291cafe9e5bca219870781c,,,,,,,,,,,,,,,,,,,,,,,,,,,,,,,,,,,,,,,,,,,,,,,,,,,,,,,,,,,,,,,,,,,,,,,,,,,,,,,,,,,,,,,,,,,,,,,,,,,,,,,
,,"[""comma""]",0,[0.2767000000476685],37,0,37,0,1,5fcc03ab80ec79268c02600d,25,Mężczyzna,2022-05-28_09h12.09.486,task,2021.1.4,Win32,59.52380952,628b806c463b948bc644b84f,6291cafe9e5bca219870781c,,,,,,,,,,,,,,,,,,,,,,,,,,,,,,,,,,,,,,,,,,,,,,,,,,,,,,,,,,,,,,,,,,,,,,,,,,,,,,,,,,,,,,,,,,,,,,,,,,,,,,,
,,"[""comma""]",0,[0.2512000000476746],38,0,38,0,1,5fcc03ab80ec79268c02600d,25,Mężczyzna,2022-05-28_09h12.09.486,task,2021.1.4,Win32,59.52380952,628b806c463b948bc644b84f,6291cafe9e5bca219870781c,,,,,,,,,,,,,,,,,,,,,,,,,,,,,,,,,,,,,,,,,,,,,,,,,,,,,,,,,,,,,,,,,,,,,,,,,,,,,,,,,,,,,,,,,,,,,,,,,,,,,,,
,,"[""comma""]",0,[0.25260000002384686],39,0,39,0,1,5fcc03ab80ec79268c02600d,25,Mężczyzna,2022-05-28_09h12.09.486,task,2021.1.4,Win32,59.52380952,628b806c463b948bc644b84f,6291cafe9e5bca219870781c,,,,,,,,,,,,,,,,,,,,,,,,,,,,,,,,,,,,,,,,,,,,,,,,,,,,,,,,,,,,,,,,,,,,,,,,,,,,,,,,,,,,,,,,,,,,,,,,,,,,,,,
,,"[""period""]",0,[0.268299999952319],40,0,40,0,1,5fcc03ab80ec79268c02600d,25,Mężczyzna,2022-05-28_09h12.09.486,task,2021.1.4,Win32,59.52380952,628b806c463b948bc644b84f,6291cafe9e5bca219870781c,,,,,,,,,,,,,,,,,,,,,,,,,,,,,,,,,,,,,,,,,,,,,,,,,,,,,,,,,,,,,,,,,,,,,,,,,,,,,,,,,,,,,,,,,,,,,,,,,,,,,,,
,,"[""period""]",0,[0.0696999999284742],41,0,41,0,1,5fcc03ab80ec79268c02600d,25,Mężczyzna,2022-05-28_09h12.09.486,task,2021.1.4,Win32,59.52380952,628b806c463b948bc644b84f,6291cafe9e5bca219870781c,,,,,,,,,,,,,,,,,,,,,,,,,,,,,,,,,,,,,,,,,,,,,,,,,,,,,,,,,,,,,,,,,,,,,,,,,,,,,,,,,,,,,,,,,,,,,,,,,,,,,,,
,,"[""period""]",0,[0.30769999992847374],42,0,42,0,1,5fcc03ab80ec79268c02600d,25,Mężczyzna,2022-05-28_09h12.09.486,task,2021.1.4,Win32,59.52380952,628b806c463b948bc644b84f,6291cafe9e5bca219870781c,,,,,,,,,,,,,,,,,,,,,,,,,,,,,,,,,,,,,,,,,,,,,,,,,,,,,,,,,,,,,,,,,,,,,,,,,,,,,,,,,,,,,,,,,,,,,,,,,,,,,,,
,,"[""comma""]",0,[0.2958000000715231],43,0,43,0,1,5fcc03ab80ec79268c02600d,25,Mężczyzna,2022-05-28_09h12.09.486,task,2021.1.4,Win32,59.52380952,628b806c463b948bc644b84f,6291cafe9e5bca219870781c,,,,,,,,,,,,,,,,,,,,,,,,,,,,,,,,,,,,,,,,,,,,,,,,,,,,,,,,,,,,,,,,,,,,,,,,,,,,,,,,,,,,,,,,,,,,,,,,,,,,,,,
,,"[""comma""]",0,[0.31810000002383276],44,0,44,0,1,5fcc03ab80ec79268c02600d,25,Mężczyzna,2022-05-28_09h12.09.486,task,2021.1.4,Win32,59.52380952,628b806c463b948bc644b84f,6291cafe9e5bca219870781c,,,,,,,,,,,,,,,,,,,,,,,,,,,,,,,,,,,,,,,,,,,,,,,,,,,,,,,,,,,,,,,,,,,,,,,,,,,,,,,,,,,,,,,,,,,,,,,,,,,,,,,
,,"[""period""]",0,[0.23850000000001614],45,0,45,0,1,5fcc03ab80ec79268c02600d,25,Mężczyzna,2022-05-28_09h12.09.486,task,2021.1.4,Win32,59.52380952,628b806c463b948bc644b84f,6291cafe9e5bca219870781c,,,,,,,,,,,,,,,,,,,,,,,,,,,,,,,,,,,,,,,,,,,,,,,,,,,,,,,,,,,,,,,,,,,,,,,,,,,,,,,,,,,,,,,,,,,,,,,,,,,,,,,
,,"[""period""]",0,[0.28299999999998704],46,0,46,0,1,5fcc03ab80ec79268c02600d,25,Mężczyzna,2022-05-28_09h12.09.486,task,2021.1.4,Win32,59.52380952,628b806c463b948bc644b84f,6291cafe9e5bca219870781c,,,,,,,,,,,,,,,,,,,,,,,,,,,,,,,,,,,,,,,,,,,,,,,,,,,,,,,,,,,,,,,,,,,,,,,,,,,,,,,,,,,,,,,,,,,,,,,,,,,,,,,
,,"[""period""]",0,[0.28239999997614973],47,0,47,0,1,5fcc03ab80ec79268c02600d,25,Mężczyzna,2022-05-28_09h12.09.486,task,2021.1.4,Win32,59.52380952,628b806c463b948bc644b84f,6291cafe9e5bca219870781c,,,,,,,,,,,,,,,,,,,,,,,,,,,,,,,,,,,,,,,,,,,,,,,,,,,,,,,,,,,,,,,,,,,,,,,,,,,,,,,,,,,,,,,,,,,,,,,,,,,,,,,
,,"[""comma""]",0,[0.28520000004766644],48,0,48,0,1,5fcc03ab80ec79268c02600d,25,Mężczyzna,2022-05-28_09h12.09.486,task,2021.1.4,Win32,59.52380952,628b806c463b948bc644b84f,6291cafe9e5bca219870781c,,,,,,,,,,,,,,,,,,,,,,,,,,,,,,,,,,,,,,,,,,,,,,,,,,,,,,,,,,,,,,,,,,,,,,,,,,,,,,,,,,,,,,,,,,,,,,,,,,,,,,,
,,"[""period""]",0,[0.2680000000000291],49,0,49,0,1,5fcc03ab80ec79268c02600d,25,Mężczyzna,2022-05-28_09h12.09.486,task,2021.1.4,Win32,59.52380952,628b806c463b948bc644b84f,6291cafe9e5bca219870781c,,,,,,,,,,,,,,,,,,,,,,,,,,,,,,,,,,,,,,,,,,,,,,,,,,,,,,,,,,,,,,,,,,,,,,,,,,,,,,,,,,,,,,,,,,,,,,,,,,,,,,,
,,"[""period""]",0,[0.2862999999522913],50,0,50,0,1,5fcc03ab80ec79268c02600d,25,Mężczyzna,2022-05-28_09h12.09.486,task,2021.1.4,Win32,59.52380952,628b806c463b948bc644b84f,6291cafe9e5bca219870781c,,,,,,,,,,,,,,,,,,,,,,,,,,,,,,,,,,,,,,,,,,,,,,,,,,,,,,,,,,,,,,,,,,,,,,,,,,,,,,,,,,,,,,,,,,,,,,,,,,,,,,,
,,"[""period""]",0,[0.3066000000238205],51,0,51,0,1,5fcc03ab80ec79268c02600d,25,Mężczyzna,2022-05-28_09h12.09.486,task,2021.1.4,Win32,59.52380952,628b806c463b948bc644b84f,6291cafe9e5bca219870781c,,,,,,,,,,,,,,,,,,,,,,,,,,,,,,,,,,,,,,,,,,,,,,,,,,,,,,,,,,,,,,,,,,,,,,,,,,,,,,,,,,,,,,,,,,,,,,,,,,,,,,,
,,"[""comma""]",0,[0.28700000000003456],52,0,52,0,1,5fcc03ab80ec79268c02600d,25,Mężczyzna,2022-05-28_09h12.09.486,task,2021.1.4,Win32,59.52380952,628b806c463b948bc644b84f,6291cafe9e5bca219870781c,,,,,,,,,,,,,,,,,,,,,,,,,,,,,,,,,,,,,,,,,,,,,,,,,,,,,,,,,,,,,,,,,,,,,,,,,,,,,,,,,,,,,,,,,,,,,,,,,,,,,,,
,,"[""comma""]",0,[0.2586000000238755],53,0,53,0,1,5fcc03ab80ec79268c02600d,25,Mężczyzna,2022-05-28_09h12.09.486,task,2021.1.4,Win32,59.52380952,628b806c463b948bc644b84f,6291cafe9e5bca219870781c,,,,,,,,,,,,,,,,,,,,,,,,,,,,,,,,,,,,,,,,,,,,,,,,,,,,,,,,,,,,,,,,,,,,,,,,,,,,,,,,,,,,,,,,,,,,,,,,,,,,,,,
,,"[""comma""]",0,[0.2236000000238505],54,0,54,0,1,5fcc03ab80ec79268c02600d,25,Mężczyzna,2022-05-28_09h12.09.486,task,2021.1.4,Win32,59.52380952,628b806c463b948bc644b84f,6291cafe9e5bca219870781c,,,,,,,,,,,,,,,,,,,,,,,,,,,,,,,,,,,,,,,,,,,,,,,,,,,,,,,,,,,,,,,,,,,,,,,,,,,,,,,,,,,,,,,,,,,,,,,,,,,,,,,
,,"[""comma""]",0,[0.2761000000238596],55,0,55,0,1,5fcc03ab80ec79268c02600d,25,Mężczyzna,2022-05-28_09h12.09.486,task,2021.1.4,Win32,59.52380952,628b806c463b948bc644b84f,6291cafe9e5bca219870781c,,,,,,,,,,,,,,,,,,,,,,,,,,,,,,,,,,,,,,,,,,,,,,,,,,,,,,,,,,,,,,,,,,,,,,,,,,,,,,,,,,,,,,,,,,,,,,,,,,,,,,,
,,"[""period""]",0,[0.2731000000238737],56,0,56,0,1,5fcc03ab80ec79268c02600d,25,Mężczyzna,2022-05-28_09h12.09.486,task,2021.1.4,Win32,59.52380952,628b806c463b948bc644b84f,6291cafe9e5bca219870781c,,,,,,,,,,,,,,,,,,,,,,,,,,,,,,,,,,,,,,,,,,,,,,,,,,,,,,,,,,,,,,,,,,,,,,,,,,,,,,,,,,,,,,,,,,,,,,,,,,,,,,,
,,"[""period""]",0,[0.4383999999761272],57,0,57,0,1,5fcc03ab80ec79268c02600d,25,Mężczyzna,2022-05-28_09h12.09.486,task,2021.1.4,Win32,59.52380952,628b806c463b948bc644b84f,6291cafe9e5bca219870781c,,,,,,,,,,,,,,,,,,,,,,,,,,,,,,,,,,,,,,,,,,,,,,,,,,,,,,,,,,,,,,,,,,,,,,,,,,,,,,,,,,,,,,,,,,,,,,,,,,,,,,,
,,"[""comma""]",0,[0.30049999999999955],58,0,58,0,1,5fcc03ab80ec79268c02600d,25,Mężczyzna,2022-05-28_09h12.09.486,task,2021.1.4,Win32,59.52380952,628b806c463b948bc644b84f,6291cafe9e5bca219870781c,,,,,,,,,,,,,,,,,,,,,,,,,,,,,,,,,,,,,,,,,,,,,,,,,,,,,,,,,,,,,,,,,,,,,,,,,,,,,,,,,,,,,,,,,,,,,,,,,,,,,,,
,,"[""period""]",0,[0.26070000004767735],59,0,59,0,1,5fcc03ab80ec79268c02600d,25,Mężczyzna,2022-05-28_09h12.09.486,task,2021.1.4,Win32,59.52380952,628b806c463b948bc644b84f,6291cafe9e5bca219870781c,,,,,,,,,,,,,,,,,,,,,,,,,,,,,,,,,,,,,,,,,,,,,,,,,,,,,,,,,,,,,,,,,,,,,,,,,,,,,,,,,,,,,,,,,,,,,,,,,,,,,,,
,,"[""comma""]",0,[0.2846999999284776],60,0,60,0,1,5fcc03ab80ec79268c02600d,25,Mężczyzna,2022-05-28_09h12.09.486,task,2021.1.4,Win32,59.52380952,628b806c463b948bc644b84f,6291cafe9e5bca219870781c,,,,,,,,,,,,,,,,,,,,,,,,,,,,,,,,,,,,,,,,,,,,,,,,,,,,,,,,,,,,,,,,,,,,,,,,,,,,,,,,,,,,,,,,,,,,,,,,,,,,,,,
,,"[""comma""]",0,[0.18200000000001637],61,0,61,0,1,5fcc03ab80ec79268c02600d,25,Mężczyzna,2022-05-28_09h12.09.486,task,2021.1.4,Win32,59.52380952,628b806c463b948bc644b84f,6291cafe9e5bca219870781c,,,,,,,,,,,,,,,,,,,,,,,,,,,,,,,,,,,,,,,,,,,,,,,,,,,,,,,,,,,,,,,,,,,,,,,,,,,,,,,,,,,,,,,,,,,,,,,,,,,,,,,
,,"[""period""]",0,[0.21050000000002456],62,0,62,0,1,5fcc03ab80ec79268c02600d,25,Mężczyzna,2022-05-28_09h12.09.486,task,2021.1.4,Win32,59.52380952,628b806c463b948bc644b84f,6291cafe9e5bca219870781c,,,,,,,,,,,,,,,,,,,,,,,,,,,,,,,,,,,,,,,,,,,,,,,,,,,,,,,,,,,,,,,,,,,,,,,,,,,,,,,,,,,,,,,,,,,,,,,,,,,,,,,
,,"[""comma""]",0,[0.2882000000477092],63,0,63,0,1,5fcc03ab80ec79268c02600d,25,Mężczyzna,2022-05-28_09h12.09.486,task,2021.1.4,Win32,59.52380952,628b806c463b948bc644b84f,6291cafe9e5bca219870781c,,,,,,,,,,,,,,,,,,,,,,,,,,,,,,,,,,,,,,,,,,,,,,,,,,,,,,,,,,,,,,,,,,,,,,,,,,,,,,,,,,,,,,,,,,,,,,,,,,,,,,,
,,"[""period""]",0,[0.27530000007152466],64,0,64,0,1,5fcc03ab80ec79268c02600d,25,Mężczyzna,2022-05-28_09h12.09.486,task,2021.1.4,Win32,59.52380952,628b806c463b948bc644b84f,6291cafe9e5bca219870781c,,,,,,,,,,,,,,,,,,,,,,,,,,,,,,,,,,,,,,,,,,,,,,,,,,,,,,,,,,,,,,,,,,,,,,,,,,,,,,,,,,,,,,,,,,,,,,,,,,,,,,,
,,"[""period"",""comma""]",0,"[0.24089999997613631,1.9127000000476642]",65,0,65,0,1,5fcc03ab80ec79268c02600d,25,Mężczyzna,2022-05-28_09h12.09.486,task,2021.1.4,Win32,59.52380952,628b806c463b948bc644b84f,6291cafe9e5bca219870781c,,,,,,,,,,,,,,,,,,,,,,,,,,,,,,,,,,,,,,,,,,,,,,,,,,,,,,,,,,,,,,,,,,,,,,,,,,,,,,,,,,,,,,,,,,,,,,,,,,,,,,,
,,,0,,66,0,66,0,1,5fcc03ab80ec79268c02600d,25,Mężczyzna,2022-05-28_09h12.09.486,task,2021.1.4,Win32,59.52380952,628b806c463b948bc644b84f,6291cafe9e5bca219870781c,,,,,,,,,,,,,,,,,,,,,,,,,,,,,,,,,,,,,,,,,,,,,,,,,,,,,,,,,,,,,,,,,,,,,,,,,,,,,,,,,,,,,,,,,,,,,,,,,,,,,,,
,,"[""period""]",0,[0.3137999999523231],67,0,67,0,1,5fcc03ab80ec79268c02600d,25,Mężczyzna,2022-05-28_09h12.09.486,task,2021.1.4,Win32,59.52380952,628b806c463b948bc644b84f,6291cafe9e5bca219870781c,,,,,,,,,,,,,,,,,,,,,,,,,,,,,,,,,,,,,,,,,,,,,,,,,,,,,,,,,,,,,,,,,,,,,,,,,,,,,,,,,,,,,,,,,,,,,,,,,,,,,,,
,,"[""comma""]",0,[0.30239999997615996],68,0,68,0,1,5fcc03ab80ec79268c02600d,25,Mężczyzna,2022-05-28_09h12.09.486,task,2021.1.4,Win32,59.52380952,628b806c463b948bc644b84f,6291cafe9e5bca219870781c,,,,,,,,,,,,,,,,,,,,,,,,,,,,,,,,,,,,,,,,,,,,,,,,,,,,,,,,,,,,,,,,,,,,,,,,,,,,,,,,,,,,,,,,,,,,,,,,,,,,,,,
,,"[""period""]",0,[0.301200000047686],69,0,69,0,1,5fcc03ab80ec79268c02600d,25,Mężczyzna,2022-05-28_09h12.09.486,task,2021.1.4,Win32,59.52380952,628b806c463b948bc644b84f,6291cafe9e5bca219870781c,,,,,,,,,,,,,,,,,,,,,,,,,,,,,,,,,,,,,,,,,,,,,,,,,,,,,,,,,,,,,,,,,,,,,,,,,,,,,,,,,,,,,,,,,,,,,,,,,,,,,,,
,,"[""period""]",0,[0.2865000000000464],70,0,70,0,1,5fcc03ab80ec79268c02600d,25,Mężczyzna,2022-05-28_09h12.09.486,task,2021.1.4,Win32,59.52380952,628b806c463b948bc644b84f,6291cafe9e5bca219870781c,,,,,,,,,,,,,,,,,,,,,,,,,,,,,,,,,,,,,,,,,,,,,,,,,,,,,,,,,,,,,,,,,,,,,,,,,,,,,,,,,,,,,,,,,,,,,,,,,,,,,,,
,,"[""comma""]",0,[0.2829999999999586],71,0,71,0,1,5fcc03ab80ec79268c02600d,25,Mężczyzna,2022-05-28_09h12.09.486,task,2021.1.4,Win32,59.52380952,628b806c463b948bc644b84f,6291cafe9e5bca219870781c,,,,,,,,,,,,,,,,,,,,,,,,,,,,,,,,,,,,,,,,,,,,,,,,,,,,,,,,,,,,,,,,,,,,,,,,,,,,,,,,,,,,,,,,,,,,,,,,,,,,,,,
,,"[""comma""]",0,[0.2501000000237923],72,0,72,0,1,5fcc03ab80ec79268c02600d,25,Mężczyzna,2022-05-28_09h12.09.486,task,2021.1.4,Win32,59.52380952,628b806c463b948bc644b84f,6291cafe9e5bca219870781c,,,,,,,,,,,,,,,,,,,,,,,,,,,,,,,,,,,,,,,,,,,,,,,,,,,,,,,,,,,,,,,,,,,,,,,,,,,,,,,,,,,,,,,,,,,,,,,,,,,,,,,
,,"[""comma""]",0,[0.32609999990461347],73,0,73,0,1,5fcc03ab80ec79268c02600d,25,Mężczyzna,2022-05-28_09h12.09.486,task,2021.1.4,Win32,59.52380952,628b806c463b948bc644b84f,6291cafe9e5bca219870781c,,,,,,,,,,,,,,,,,,,,,,,,,,,,,,,,,,,,,,,,,,,,,,,,,,,,,,,,,,,,,,,,,,,,,,,,,,,,,,,,,,,,,,,,,,,,,,,,,,,,,,,
,,"[""period""]",0,[0.28220000004768053],74,0,74,0,1,5fcc03ab80ec79268c02600d,25,Mężczyzna,2022-05-28_09h12.09.486,task,2021.1.4,Win32,59.52380952,628b806c463b948bc644b84f,6291cafe9e5bca219870781c,,,,,,,,,,,,,,,,,,,,,,,,,,,,,,,,,,,,,,,,,,,,,,,,,,,,,,,,,,,,,,,,,,,,,,,,,,,,,,,,,,,,,,,,,,,,,,,,,,,,,,,
,,"[""period""]",0,[0.037199999928475336],75,0,75,0,1,5fcc03ab80ec79268c02600d,25,Mężczyzna,2022-05-28_09h12.09.486,task,2021.1.4,Win32,59.52380952,628b806c463b948bc644b84f,6291cafe9e5bca219870781c,,,,,,,,,,,,,,,,,,,,,,,,,,,,,,,,,,,,,,,,,,,,,,,,,,,,,,,,,,,,,,,,,,,,,,,,,,,,,,,,,,,,,,,,,,,,,,,,,,,,,,,
,,"[""period""]",0,[0.2902999999523104],76,0,76,0,1,5fcc03ab80ec79268c02600d,25,Mężczyzna,2022-05-28_09h12.09.486,task,2021.1.4,Win32,59.52380952,628b806c463b948bc644b84f,6291cafe9e5bca219870781c,,,,,,,,,,,,,,,,,,,,,,,,,,,,,,,,,,,,,,,,,,,,,,,,,,,,,,,,,,,,,,,,,,,,,,,,,,,,,,,,,,,,,,,,,,,,,,,,,,,,,,,
,,"[""comma""]",0,[0.2703999999761777],77,0,77,0,1,5fcc03ab80ec79268c02600d,25,Mężczyzna,2022-05-28_09h12.09.486,task,2021.1.4,Win32,59.52380952,628b806c463b948bc644b84f,6291cafe9e5bca219870781c,,,,,,,,,,,,,,,,,,,,,,,,,,,,,,,,,,,,,,,,,,,,,,,,,,,,,,,,,,,,,,,,,,,,,,,,,,,,,,,,,,,,,,,,,,,,,,,,,,,,,,,
,,"[""period""]",0,[0.3065000000000282],78,0,78,0,1,5fcc03ab80ec79268c02600d,25,Mężczyzna,2022-05-28_09h12.09.486,task,2021.1.4,Win32,59.52380952,628b806c463b948bc644b84f,6291cafe9e5bca219870781c,,,,,,,,,,,,,,,,,,,,,,,,,,,,,,,,,,,,,,,,,,,,,,,,,,,,,,,,,,,,,,,,,,,,,,,,,,,,,,,,,,,,,,,,,,,,,,,,,,,,,,,
,,"[""period""]",0,[0.3756000000238373],79,0,79,0,1,5fcc03ab80ec79268c02600d,25,Mężczyzna,2022-05-28_09h12.09.486,task,2021.1.4,Win32,59.52380952,628b806c463b948bc644b84f,6291cafe9e5bca219870781c,,,,,,,,,,,,,,,,,,,,,,,,,,,,,,,,,,,,,,,,,,,,,,,,,,,,,,,,,,,,,,,,,,,,,,,,,,,,,,,,,,,,,,,,,,,,,,,,,,,,,,,
,,"[""comma""]",0,[0.37170000004766734],80,0,80,0,1,5fcc03ab80ec79268c02600d,25,Mężczyzna,2022-05-28_09h12.09.486,task,2021.1.4,Win32,59.52380952,628b806c463b948bc644b84f,6291cafe9e5bca219870781c,,,,,,,,,,,,,,,,,,,,,,,,,,,,,,,,,,,,,,,,,,,,,,,,,,,,,,,,,,,,,,,,,,,,,,,,,,,,,,,,,,,,,,,,,,,,,,,,,,,,,,,
,,"[""period""]",0,[0.2956000000238532],81,0,81,0,1,5fcc03ab80ec79268c02600d,25,Mężczyzna,2022-05-28_09h12.09.486,task,2021.1.4,Win32,59.52380952,628b806c463b948bc644b84f,6291cafe9e5bca219870781c,,,,,,,,,,,,,,,,,,,,,,,,,,,,,,,,,,,,,,,,,,,,,,,,,,,,,,,,,,,,,,,,,,,,,,,,,,,,,,,,,,,,,,,,,,,,,,,,,,,,,,,
,,"[""comma""]",0,[0.2448999999761554],82,0,82,0,1,5fcc03ab80ec79268c02600d,25,Mężczyzna,2022-05-28_09h12.09.486,task,2021.1.4,Win32,59.52380952,628b806c463b948bc644b84f,6291cafe9e5bca219870781c,,,,,,,,,,,,,,,,,,,,,,,,,,,,,,,,,,,,,,,,,,,,,,,,,,,,,,,,,,,,,,,,,,,,,,,,,,,,,,,,,,,,,,,,,,,,,,,,,,,,,,,
,,"[""comma""]",0,[0.2562000000476701],83,0,83,0,1,5fcc03ab80ec79268c02600d,25,Mężczyzna,2022-05-28_09h12.09.486,task,2021.1.4,Win32,59.52380952,628b806c463b948bc644b84f,6291cafe9e5bca219870781c,,,,,,,,,,,,,,,,,,,,,,,,,,,,,,,,,,,,,,,,,,,,,,,,,,,,,,,,,,,,,,,,,,,,,,,,,,,,,,,,,,,,,,,,,,,,,,,,,,,,,,,
,,"[""comma""]",0,[0.26869999992845806],84,0,84,0,1,5fcc03ab80ec79268c02600d,25,Mężczyzna,2022-05-28_09h12.09.486,task,2021.1.4,Win32,59.52380952,628b806c463b948bc644b84f,6291cafe9e5bca219870781c,,,,,,,,,,,,,,,,,,,,,,,,,,,,,,,,,,,,,,,,,,,,,,,,,,,,,,,,,,,,,,,,,,,,,,,,,,,,,,,,,,,,,,,,,,,,,,,,,,,,,,,
,,"[""period""]",0,[0.25770000004769145],85,0,85,0,1,5fcc03ab80ec79268c02600d,25,Mężczyzna,2022-05-28_09h12.09.486,task,2021.1.4,Win32,59.52380952,628b806c463b948bc644b84f,6291cafe9e5bca219870781c,,,,,,,,,,,,,,,,,,,,,,,,,,,,,,,,,,,,,,,,,,,,,,,,,,,,,,,,,,,,,,,,,,,,,,,,,,,,,,,,,,,,,,,,,,,,,,,,,,,,,,,
,,"[""comma""]",0,[0.28589999997615223],86,0,86,0,1,5fcc03ab80ec79268c02600d,25,Mężczyzna,2022-05-28_09h12.09.486,task,2021.1.4,Win32,59.52380952,628b806c463b948bc644b84f,6291cafe9e5bca219870781c,,,,,,,,,,,,,,,,,,,,,,,,,,,,,,,,,,,,,,,,,,,,,,,,,,,,,,,,,,,,,,,,,,,,,,,,,,,,,,,,,,,,,,,,,,,,,,,,,,,,,,,
,,"[""period""]",0,[0.24419999992846897],87,0,87,0,1,5fcc03ab80ec79268c02600d,25,Mężczyzna,2022-05-28_09h12.09.486,task,2021.1.4,Win32,59.52380952,628b806c463b948bc644b84f,6291cafe9e5bca219870781c,,,,,,,,,,,,,,,,,,,,,,,,,,,,,,,,,,,,,,,,,,,,,,,,,,,,,,,,,,,,,,,,,,,,,,,,,,,,,,,,,,,,,,,,,,,,,,,,,,,,,,,
,,"[""period""]",0,[0.27249999999997954],88,0,88,0,1,5fcc03ab80ec79268c02600d,25,Mężczyzna,2022-05-28_09h12.09.486,task,2021.1.4,Win32,59.52380952,628b806c463b948bc644b84f,6291cafe9e5bca219870781c,,,,,,,,,,,,,,,,,,,,,,,,,,,,,,,,,,,,,,,,,,,,,,,,,,,,,,,,,,,,,,,,,,,,,,,,,,,,,,,,,,,,,,,,,,,,,,,,,,,,,,,
,,"[""comma""]",0,[0.23629999995233675],89,0,89,0,1,5fcc03ab80ec79268c02600d,25,Mężczyzna,2022-05-28_09h12.09.486,task,2021.1.4,Win32,59.52380952,628b806c463b948bc644b84f,6291cafe9e5bca219870781c,,,,,,,,,,,,,,,,,,,,,,,,,,,,,,,,,,,,,,,,,,,,,,,,,,,,,,,,,,,,,,,,,,,,,,,,,,,,,,,,,,,,,,,,,,,,,,,,,,,,,,,
,,"[""period""]",0,[0.2242000000476878],90,0,90,0,1,5fcc03ab80ec79268c02600d,25,Mężczyzna,2022-05-28_09h12.09.486,task,2021.1.4,Win32,59.52380952,628b806c463b948bc644b84f,6291cafe9e5bca219870781c,,,,,,,,,,,,,,,,,,,,,,,,,,,,,,,,,,,,,,,,,,,,,,,,,,,,,,,,,,,,,,,,,,,,,,,,,,,,,,,,,,,,,,,,,,,,,,,,,,,,,,,
,,"[""period"",""comma""]",0,"[0.2531000000238919,1.869900000095413]",91,0,91,0,1,5fcc03ab80ec79268c02600d,25,Mężczyzna,2022-05-28_09h12.09.486,task,2021.1.4,Win32,59.52380952,628b806c463b948bc644b84f,6291cafe9e5bca219870781c,,,,,,,,,,,,,,,,,,,,,,,,,,,,,,,,,,,,,,,,,,,,,,,,,,,,,,,,,,,,,,,,,,,,,,,,,,,,,,,,,,,,,,,,,,,,,,,,,,,,,,,
,,,0,,92,0,92,0,1,5fcc03ab80ec79268c02600d,25,Mężczyzna,2022-05-28_09h12.09.486,task,2021.1.4,Win32,59.52380952,628b806c463b948bc644b84f,6291cafe9e5bca219870781c,,,,,,,,,,,,,,,,,,,,,,,,,,,,,,,,,,,,,,,,,,,,,,,,,,,,,,,,,,,,,,,,,,,,,,,,,,,,,,,,,,,,,,,,,,,,,,,,,,,,,,,
,,"[""comma""]",0,[0.29349999999999454],93,0,93,0,1,5fcc03ab80ec79268c02600d,25,Mężczyzna,2022-05-28_09h12.09.486,task,2021.1.4,Win32,59.52380952,628b806c463b948bc644b84f,6291cafe9e5bca219870781c,,,,,,,,,,,,,,,,,,,,,,,,,,,,,,,,,,,,,,,,,,,,,,,,,,,,,,,,,,,,,,,,,,,,,,,,,,,,,,,,,,,,,,,,,,,,,,,,,,,,,,,
,,"[""comma""]",0,[0.29680000007152785],94,0,94,0,1,5fcc03ab80ec79268c02600d,25,Mężczyzna,2022-05-28_09h12.09.486,task,2021.1.4,Win32,59.52380952,628b806c463b948bc644b84f,6291cafe9e5bca219870781c,,,,,,,,,,,,,,,,,,,,,,,,,,,,,,,,,,,,,,,,,,,,,,,,,,,,,,,,,,,,,,,,,,,,,,,,,,,,,,,,,,,,,,,,,,,,,,,,,,,,,,,
,,"[""period""]",0,[0.29410000002383185],95,0,95,0,1,5fcc03ab80ec79268c02600d,25,Mężczyzna,2022-05-28_09h12.09.486,task,2021.1.4,Win32,59.52380952,628b806c463b948bc644b84f,6291cafe9e5bca219870781c,,,,,,,,,,,,,,,,,,,,,,,,,,,,,,,,,,,,,,,,,,,,,,,,,,,,,,,,,,,,,,,,,,,,,,,,,,,,,,,,,,,,,,,,,,,,,,,,,,,,,,,
,,"[""comma""]",0,[0.30070000004764097],96,0,96,0,1,5fcc03ab80ec79268c02600d,25,Mężczyzna,2022-05-28_09h12.09.486,task,2021.1.4,Win32,59.52380952,628b806c463b948bc644b84f,6291cafe9e5bca219870781c,,,,,,,,,,,,,,,,,,,,,,,,,,,,,,,,,,,,,,,,,,,,,,,,,,,,,,,,,,,,,,,,,,,,,,,,,,,,,,,,,,,,,,,,,,,,,,,,,,,,,,,
,,"[""period""]",0,[0.2958000000715515],97,0,97,0,1,5fcc03ab80ec79268c02600d,25,Mężczyzna,2022-05-28_09h12.09.486,task,2021.1.4,Win32,59.52380952,628b806c463b948bc644b84f,6291cafe9e5bca219870781c,,,,,,,,,,,,,,,,,,,,,,,,,,,,,,,,,,,,,,,,,,,,,,,,,,,,,,,,,,,,,,,,,,,,,,,,,,,,,,,,,,,,,,,,,,,,,,,,,,,,,,,
,,"[""period""]",0,[0.2756000000238714],98,0,98,0,1,5fcc03ab80ec79268c02600d,25,Mężczyzna,2022-05-28_09h12.09.486,task,2021.1.4,Win32,59.52380952,628b806c463b948bc644b84f,6291cafe9e5bca219870781c,,,,,,,,,,,,,,,,,,,,,,,,,,,,,,,,,,,,,,,,,,,,,,,,,,,,,,,,,,,,,,,,,,,,,,,,,,,,,,,,,,,,,,,,,,,,,,,,,,,,,,,
,,"[""comma""]",0,[0.2628999999761277],99,0,99,0,1,5fcc03ab80ec79268c02600d,25,Mężczyzna,2022-05-28_09h12.09.486,task,2021.1.4,Win32,59.52380952,628b806c463b948bc644b84f,6291cafe9e5bca219870781c,,,,,,,,,,,,,,,,,,,,,,,,,,,,,,,,,,,,,,,,,,,,,,,,,,,,,,,,,,,,,,,,,,,,,,,,,,,,,,,,,,,,,,,,,,,,,,,,,,,,,,,
,,"[""period""]",0,[0.3577999999523058],100,0,100,0,1,5fcc03ab80ec79268c02600d,25,Mężczyzna,2022-05-28_09h12.09.486,task,2021.1.4,Win32,59.52380952,628b806c463b948bc644b84f,6291cafe9e5bca219870781c,,,,,,,,,,,,,,,,,,,,,,,,,,,,,,,,,,,,,,,,,,,,,,,,,,,,,,,,,,,,,,,,,,,,,,,,,,,,,,,,,,,,,,,,,,,,,,,,,,,,,,,
,,"[""comma""]",0,[0.4008999999761613],101,0,101,0,1,5fcc03ab80ec79268c02600d,25,Mężczyzna,2022-05-28_09h12.09.486,task,2021.1.4,Win32,59.52380952,628b806c463b948bc644b84f,6291cafe9e5bca219870781c,,,,,,,,,,,,,,,,,,,,,,,,,,,,,,,,,,,,,,,,,,,,,,,,,,,,,,,,,,,,,,,,,,,,,,,,,,,,,,,,,,,,,,,,,,,,,,,,,,,,,,,
,,"[""comma""]",0,[0.35120000004769736],102,0,102,0,1,5fcc03ab80ec79268c02600d,25,Mężczyzna,2022-05-28_09h12.09.486,task,2021.1.4,Win32,59.52380952,628b806c463b948bc644b84f,6291cafe9e5bca219870781c,,,,,,,,,,,,,,,,,,,,,,,,,,,,,,,,,,,,,,,,,,,,,,,,,,,,,,,,,,,,,,,,,,,,,,,,,,,,,,,,,,,,,,,,,,,,,,,,,,,,,,,
,,"[""period""]",0,[0.32239999997614177],103,0,103,0,1,5fcc03ab80ec79268c02600d,25,Mężczyzna,2022-05-28_09h12.09.486,task,2021.1.4,Win32,59.52380952,628b806c463b948bc644b84f,6291cafe9e5bca219870781c,,,,,,,,,,,,,,,,,,,,,,,,,,,,,,,,,,,,,,,,,,,,,,,,,,,,,,,,,,,,,,,,,,,,,,,,,,,,,,,,,,,,,,,,,,,,,,,,,,,,,,,
,,"[""period""]",0,[0.26279999995227854],104,0,104,0,1,5fcc03ab80ec79268c02600d,25,Mężczyzna,2022-05-28_09h12.09.486,task,2021.1.4,Win32,59.52380952,628b806c463b948bc644b84f,6291cafe9e5bca219870781c,,,,,,,,,,,,,,,,,,,,,,,,,,,,,,,,,,,,,,,,,,,,,,,,,,,,,,,,,,,,,,,,,,,,,,,,,,,,,,,,,,,,,,,,,,,,,,,,,,,,,,,
,,"[""period""]",0,[0.356700000047681],105,0,105,0,1,5fcc03ab80ec79268c02600d,25,Mężczyzna,2022-05-28_09h12.09.486,task,2021.1.4,Win32,59.52380952,628b806c463b948bc644b84f,6291cafe9e5bca219870781c,,,,,,,,,,,,,,,,,,,,,,,,,,,,,,,,,,,,,,,,,,,,,,,,,,,,,,,,,,,,,,,,,,,,,,,,,,,,,,,,,,,,,,,,,,,,,,,,,,,,,,,
,,"[""comma""]",0,[0.2858000000715606],106,0,106,0,1,5fcc03ab80ec79268c02600d,25,Mężczyzna,2022-05-28_09h12.09.486,task,2021.1.4,Win32,59.52380952,628b806c463b948bc644b84f,6291cafe9e5bca219870781c,,,,,,,,,,,,,,,,,,,,,,,,,,,,,,,,,,,,,,,,,,,,,,,,,,,,,,,,,,,,,,,,,,,,,,,,,,,,,,,,,,,,,,,,,,,,,,,,,,,,,,,
,,"[""period""]",0,[0.27580000007151284],107,0,107,0,1,5fcc03ab80ec79268c02600d,25,Mężczyzna,2022-05-28_09h12.09.486,task,2021.1.4,Win32,59.52380952,628b806c463b948bc644b84f,6291cafe9e5bca219870781c,,,,,,,,,,,,,,,,,,,,,,,,,,,,,,,,,,,,,,,,,,,,,,,,,,,,,,,,,,,,,,,,,,,,,,,,,,,,,,,,,,,,,,,,,,,,,,,,,,,,,,,
,,"[""comma""]",0,[0.2871000000238837],108,0,108,0,1,5fcc03ab80ec79268c02600d,25,Mężczyzna,2022-05-28_09h12.09.486,task,2021.1.4,Win32,59.52380952,628b806c463b948bc644b84f,6291cafe9e5bca219870781c,,,,,,,,,,,,,,,,,,,,,,,,,,,,,,,,,,,,,,,,,,,,,,,,,,,,,,,,,,,,,,,,,,,,,,,,,,,,,,,,,,,,,,,,,,,,,,,,,,,,,,,
,,"[""period""]",0,[0.3977999999523263],109,0,109,0,1,5fcc03ab80ec79268c02600d,25,Mężczyzna,2022-05-28_09h12.09.486,task,2021.1.4,Win32,59.52380952,628b806c463b948bc644b84f,6291cafe9e5bca219870781c,,,,,,,,,,,,,,,,,,,,,,,,,,,,,,,,,,,,,,,,,,,,,,,,,,,,,,,,,,,,,,,,,,,,,,,,,,,,,,,,,,,,,,,,,,,,,,,,,,,,,,,
,,"[""period""]",0,[0.3293999999761468],110,0,110,0,1,5fcc03ab80ec79268c02600d,25,Mężczyzna,2022-05-28_09h12.09.486,task,2021.1.4,Win32,59.52380952,628b806c463b948bc644b84f,6291cafe9e5bca219870781c,,,,,,,,,,,,,,,,,,,,,,,,,,,,,,,,,,,,,,,,,,,,,,,,,,,,,,,,,,,,,,,,,,,,,,,,,,,,,,,,,,,,,,,,,,,,,,,,,,,,,,,
,,"[""comma""]",0,[0.34189999997619225],111,0,111,0,1,5fcc03ab80ec79268c02600d,25,Mężczyzna,2022-05-28_09h12.09.486,task,2021.1.4,Win32,59.52380952,628b806c463b948bc644b84f,6291cafe9e5bca219870781c,,,,,,,,,,,,,,,,,,,,,,,,,,,,,,,,,,,,,,,,,,,,,,,,,,,,,,,,,,,,,,,,,,,,,,,,,,,,,,,,,,,,,,,,,,,,,,,,,,,,,,,
,,"[""comma""]",0,[0.25809999990462984],112,0,112,0,1,5fcc03ab80ec79268c02600d,25,Mężczyzna,2022-05-28_09h12.09.486,task,2021.1.4,Win32,59.52380952,628b806c463b948bc644b84f,6291cafe9e5bca219870781c,,,,,,,,,,,,,,,,,,,,,,,,,,,,,,,,,,,,,,,,,,,,,,,,,,,,,,,,,,,,,,,,,,,,,,,,,,,,,,,,,,,,,,,,,,,,,,,,,,,,,,,
,,"[""period""]",0,[0.2791000000238455],113,0,113,0,1,5fcc03ab80ec79268c02600d,25,Mężczyzna,2022-05-28_09h12.09.486,task,2021.1.4,Win32,59.52380952,628b806c463b948bc644b84f,6291cafe9e5bca219870781c,,,,,,,,,,,,,,,,,,,,,,,,,,,,,,,,,,,,,,,,,,,,,,,,,,,,,,,,,,,,,,,,,,,,,,,,,,,,,,,,,,,,,,,,,,,,,,,,,,,,,,,
,,"[""comma""]",0,[0.3073999999761554],114,0,114,0,1,5fcc03ab80ec79268c02600d,25,Mężczyzna,2022-05-28_09h12.09.486,task,2021.1.4,Win32,59.52380952,628b806c463b948bc644b84f,6291cafe9e5bca219870781c,,,,,,,,,,,,,,,,,,,,,,,,,,,,,,,,,,,,,,,,,,,,,,,,,,,,,,,,,,,,,,,,,,,,,,,,,,,,,,,,,,,,,,,,,,,,,,,,,,,,,,,
,,"[""comma""]",0,[0.31979999995235175],115,0,115,0,1,5fcc03ab80ec79268c02600d,25,Mężczyzna,2022-05-28_09h12.09.486,task,2021.1.4,Win32,59.52380952,628b806c463b948bc644b84f,6291cafe9e5bca219870781c,,,,,,,,,,,,,,,,,,,,,,,,,,,,,,,,,,,,,,,,,,,,,,,,,,,,,,,,,,,,,,,,,,,,,,,,,,,,,,,,,,,,,,,,,,,,,,,,,,,,,,,
,,"[""period""]",0,[0.28350000000000364],116,0,116,0,1,5fcc03ab80ec79268c02600d,25,Mężczyzna,2022-05-28_09h12.09.486,task,2021.1.4,Win32,59.52380952,628b806c463b948bc644b84f,6291cafe9e5bca219870781c,,,,,,,,,,,,,,,,,,,,,,,,,,,,,,,,,,,,,,,,,,,,,,,,,,,,,,,,,,,,,,,,,,,,,,,,,,,,,,,,,,,,,,,,,,,,,,,,,,,,,,,
,,"[""period""]",0,[0.2956000000237964],117,0,117,0,1,5fcc03ab80ec79268c02600d,25,Mężczyzna,2022-05-28_09h12.09.486,task,2021.1.4,Win32,59.52380952,628b806c463b948bc644b84f,6291cafe9e5bca219870781c,,,,,,,,,,,,,,,,,,,,,,,,,,,,,,,,,,,,,,,,,,,,,,,,,,,,,,,,,,,,,,,,,,,,,,,,,,,,,,,,,,,,,,,,,,,,,,,,,,,,,,,
,,"[""comma""]",0,[0.2685000000000173],118,0,118,0,1,5fcc03ab80ec79268c02600d,25,Mężczyzna,2022-05-28_09h12.09.486,task,2021.1.4,Win32,59.52380952,628b806c463b948bc644b84f,6291cafe9e5bca219870781c,,,,,,,,,,,,,,,,,,,,,,,,,,,,,,,,,,,,,,,,,,,,,,,,,,,,,,,,,,,,,,,,,,,,,,,,,,,,,,,,,,,,,,,,,,,,,,,,,,,,,,,
,,"[""period""]",0,[0.28989999997617133],119,0,119,0,1,5fcc03ab80ec79268c02600d,25,Mężczyzna,2022-05-28_09h12.09.486,task,2021.1.4,Win32,59.52380952,628b806c463b948bc644b84f,6291cafe9e5bca219870781c,,,,,,,,,,,,,,,,,,,,,,,,,,,,,,,,,,,,,,,,,,,,,,,,,,,,,,,,,,,,,,,,,,,,,,,,,,,,,,,,,,,,,,,,,,,,,,,,,,,,,,,
,,,,,,,,,,5fcc03ab80ec79268c02600d,25,Mężczyzna,2022-05-28_09h12.09.486,task,2021.1.4,Win32,59.52380952,628b806c463b948bc644b84f,6291cafe9e5bca219870781c,space,15.1643,space,5.0625,0,0,0,0,1,"X V Q F H G B L J M P D K C T S W R N Z
",,,,,,,,,,,,,,,,,,,,,,,,,,,,,,,,,,,,,,,,,,,,,,,,,,,,,,,,,,,,,,,,,,,,,,,,,,,,,,,,,,,,,,,,,,,,,
,,,,,,,,,,5fcc03ab80ec79268c02600d,25,Mężczyzna,2022-05-28_09h12.09.486,task,2021.1.4,Win32,59.52380952,628b806c463b948bc644b84f,6291cafe9e5bca219870781c,,,,,1,0,1,0,1,"X V Q F H G B L J M P D K C T S W R N Z
",,,,,,,,,,,,,,,,,,,,,,,,,,,,,,,,,,,,,,,,,,,,,,,,,,,,,,,,,,,,,,,,,,,,,,,,,,,,,,,,,,,,,,,,,,,,,
,,,,,,,,,,5fcc03ab80ec79268c02600d,25,Mężczyzna,2022-05-28_09h12.09.486,task,2021.1.4,Win32,59.52380952,628b806c463b948bc644b84f,6291cafe9e5bca219870781c,,,,,,,,,,,zz,"[""z"",""z""]","[1.9027999999523217,2.0787999999523095,2.701999999999998]",0,"ZZ
",0,0,0,0,1,,,,,,,,,,,,,,,,,,,,,,,,,,,,,,,,,,,,,,,,,,,,,,,,,,,,,,,,,,,,,,,,,,,,,,,,,,,,,,,,,,,
,,,,,,,,,,5fcc03ab80ec79268c02600d,25,Mężczyzna,2022-05-28_09h12.09.486,task,2021.1.4,Win32,59.52380952,628b806c463b948bc644b84f,6291cafe9e5bca219870781c,,,,,0,0,0,0,1,"X V Q F H G B L J M P D K C T S W R N Z
",,,,,,,,,,,,,,,,,,,,,,,,,,,,,,,,,,,,,,,,,,,,,,,,,,,,,,,,,,,,,,,,,,,,,,,,,,,,,,,,,,,,,,,,,,,,,
,,,,,,,,,,5fcc03ab80ec79268c02600d,25,Mężczyzna,2022-05-28_09h12.09.486,task,2021.1.4,Win32,59.52380952,628b806c463b948bc644b84f,6291cafe9e5bca219870781c,,,,,1,0,1,0,1,"X V Q F H G B L J M P D K C T S W R N Z
",,,,,,,,,,,,,,,,,,,,,,,,,,,,,,,,,,,,,,,,,,,,,,,,,,,,,,,,,,,,,,,,,,,,,,,,,,,,,,,,,,,,,,,,,,,,,
,,,,,,,,,,5fcc03ab80ec79268c02600d,25,Mężczyzna,2022-05-28_09h12.09.486,task,2021.1.4,Win32,59.52380952,628b806c463b948bc644b84f,6291cafe9e5bca219870781c,,,,,,,,,,,gp,"[""g"",""p""]","[1.6841000000238182,1.8748999999761509,2.6981999999284767]",1,GP,1,0,1,0,1,,,,,,,,,,,,,,,,,,,,,,,,,,,,,,,,,,,,,,,,,,,,,,,,,,,,,,,,,,,,,,,,,,,,,,,,,,,,,,,,,,,
,,,,,,,,,,5fcc03ab80ec79268c02600d,25,Mężczyzna,2022-05-28_09h12.09.486,task,2021.1.4,Win32,59.52380952,628b806c463b948bc644b84f,6291cafe9e5bca219870781c,,,,,0,0,0,0,1,"X V Q F H G B L J M P D K C T S W R N Z
",,,,,,,,,,,,,,,,,,,,,,,,,,,,,,,,,,,,,,,,,,,,,,,,,,,,,,,,,,,,,,,,,,,,,,,,,,,,,,,,,,,,,,,,,,,,,
,,,,,,,,,,5fcc03ab80ec79268c02600d,25,Mężczyzna,2022-05-28_09h12.09.486,task,2021.1.4,Win32,59.52380952,628b806c463b948bc644b84f,6291cafe9e5bca219870781c,,,,,1,0,1,0,1,"X V Q F H G B L J M P D K C T S W R N Z
",,,,,,,,,,,,,,,,,,,,,,,,,,,,,,,,,,,,,,,,,,,,,,,,,,,,,,,,,,,,,,,,,,,,,,,,,,,,,,,,,,,,,,,,,,,,,
,,,,,,,,,,5fcc03ab80ec79268c02600d,25,Mężczyzna,2022-05-28_09h12.09.486,task,2021.1.4,Win32,59.52380952,628b806c463b948bc644b84f,6291cafe9e5bca219870781c,,,,,,,,,,,td,"[""t"",""d""]","[1.2792000000476946,1.6153000000715565,2.438399999976184]",1,TD,2,0,2,0,1,,,,,,,,,,,,,,,,,,,,,,,,,,,,,,,,,,,,,,,,,,,,,,,,,,,,,,,,,,,,,,,,,,,,,,,,,,,,,,,,,,,
,,,,,,,,,,5fcc03ab80ec79268c02600d,25,Mężczyzna,2022-05-28_09h12.09.486,task,2021.1.4,Win32,59.52380952,628b806c463b948bc644b84f,6291cafe9e5bca219870781c,,,,,0,0,0,0,1,"X V Q F H G B L J M P D K C T S W R N Z
",,,,,,,,,,,,,,,,,,,,,,,,,,,,,,,,,,,,,,,,,,,,,,,,,,,,,,,,,,,,,,,,,,,,,,,,,,,,,,,,,,,,,,,,,,,,,
,,,,,,,,,,5fcc03ab80ec79268c02600d,25,Mężczyzna,2022-05-28_09h12.09.486,task,2021.1.4,Win32,59.52380952,628b806c463b948bc644b84f,6291cafe9e5bca219870781c,,,,,1,0,1,0,1,"X V Q F H G B L J M P D K C T S W R N Z
",,,,,,,,,,,,,,,,,,,,,,,,,,,,,,,,,,,,,,,,,,,,,,,,,,,,,,,,,,,,,,,,,,,,,,,,,,,,,,,,,,,,,,,,,,,,,
,,,,,,,,,,5fcc03ab80ec79268c02600d,25,Mężczyzna,2022-05-28_09h12.09.486,task,2021.1.4,Win32,59.52380952,628b806c463b948bc644b84f,6291cafe9e5bca219870781c,,,,,2,0,2,0,1,"X V Q F H G B L J M P D K C T S W R N Z
",,,,,,,,,,,,,,,,,,,,,,,,,,,,,,,,,,,,,,,,,,,,,,,,,,,,,,,,,,,,,,,,,,,,,,,,,,,,,,,,,,,,,,,,,,,,,
,,,,,,,,,,5fcc03ab80ec79268c02600d,25,Mężczyzna,2022-05-28_09h12.09.486,task,2021.1.4,Win32,59.52380952,628b806c463b948bc644b84f,6291cafe9e5bca219870781c,,,,,,,,,,,hkn,"[""h"",""k"",""n""]","[1.2070999999046421,1.36489999997616,1.5368999999761854,3.237799999952358]",1,HKN,3,0,3,0,1,,,,,,,,,,,,,,,,,,,,,,,,,,,,,,,,,,,,,,,,,,,,,,,,,,,,,,,,,,,,,,,,,,,,,,,,,,,,,,,,,,,
,,,,,,,,,,5fcc03ab80ec79268c02600d,25,Mężczyzna,2022-05-28_09h12.09.486,task,2021.1.4,Win32,59.52380952,628b806c463b948bc644b84f,6291cafe9e5bca219870781c,,,,,0,0,0,0,1,"X V Q F H G B L J M P D K C T S W R N Z
",,,,,,,,,,,,,,,,,,,,,,,,,,,,,,,,,,,,,,,,,,,,,,,,,,,,,,,,,,,,,,,,,,,,,,,,,,,,,,,,,,,,,,,,,,,,,
,,,,,,,,,,5fcc03ab80ec79268c02600d,25,Mężczyzna,2022-05-28_09h12.09.486,task,2021.1.4,Win32,59.52380952,628b806c463b948bc644b84f,6291cafe9e5bca219870781c,,,,,1,0,1,0,1,"X V Q F H G B L J M P D K C T S W R N Z
",,,,,,,,,,,,,,,,,,,,,,,,,,,,,,,,,,,,,,,,,,,,,,,,,,,,,,,,,,,,,,,,,,,,,,,,,,,,,,,,,,,,,,,,,,,,,
,,,,,,,,,,5fcc03ab80ec79268c02600d,25,Mężczyzna,2022-05-28_09h12.09.486,task,2021.1.4,Win32,59.52380952,628b806c463b948bc644b84f,6291cafe9e5bca219870781c,,,,,2,0,2,0,1,"X V Q F H G B L J M P D K C T S W R N Z
",,,,,,,,,,,,,,,,,,,,,,,,,,,,,,,,,,,,,,,,,,,,,,,,,,,,,,,,,,,,,,,,,,,,,,,,,,,,,,,,,,,,,,,,,,,,,
,,,,,,,,,,5fcc03ab80ec79268c02600d,25,Mężczyzna,2022-05-28_09h12.09.486,task,2021.1.4,Win32,59.52380952,628b806c463b948bc644b84f,6291cafe9e5bca219870781c,,,,,,,,,,,lgp,"[""l"",""g"",""p""]","[1.4092999999522817,1.6246999999284526,1.8187999999523186,2.2486999999284762]",1,LGP,4,0,4,0,1,,,,,,,,,,,,,,,,,,,,,,,,,,,,,,,,,,,,,,,,,,,,,,,,,,,,,,,,,,,,,,,,,,,,,,,,,,,,,,,,,,,
,,,,,,,,,,5fcc03ab80ec79268c02600d,25,Mężczyzna,2022-05-28_09h12.09.486,task,2021.1.4,Win32,59.52380952,628b806c463b948bc644b84f,6291cafe9e5bca219870781c,,,,,0,0,0,0,1,"X V Q F H G B L J M P D K C T S W R N Z
",,,,,,,,,,,,,,,,,,,,,,,,,,,,,,,,,,,,,,,,,,,,,,,,,,,,,,,,,,,,,,,,,,,,,,,,,,,,,,,,,,,,,,,,,,,,,
,,,,,,,,,,5fcc03ab80ec79268c02600d,25,Mężczyzna,2022-05-28_09h12.09.486,task,2021.1.4,Win32,59.52380952,628b806c463b948bc644b84f,6291cafe9e5bca219870781c,,,,,1,0,1,0,1,"X V Q F H G B L J M P D K C T S W R N Z
",,,,,,,,,,,,,,,,,,,,,,,,,,,,,,,,,,,,,,,,,,,,,,,,,,,,,,,,,,,,,,,,,,,,,,,,,,,,,,,,,,,,,,,,,,,,,
,,,,,,,,,,5fcc03ab80ec79268c02600d,25,Mężczyzna,2022-05-28_09h12.09.486,task,2021.1.4,Win32,59.52380952,628b806c463b948bc644b84f,6291cafe9e5bca219870781c,,,,,2,0,2,0,1,"X V Q F H G B L J M P D K C T S W R N Z
",,,,,,,,,,,,,,,,,,,,,,,,,,,,,,,,,,,,,,,,,,,,,,,,,,,,,,,,,,,,,,,,,,,,,,,,,,,,,,,,,,,,,,,,,,,,,
,,,,,,,,,,5fcc03ab80ec79268c02600d,25,Mężczyzna,2022-05-28_09h12.09.486,task,2021.1.4,Win32,59.52380952,628b806c463b948bc644b84f,6291cafe9e5bca219870781c,,,,,3,0,3,0,1,"X V Q F H G B L J M P D K C T S W R N Z
",,,,,,,,,,,,,,,,,,,,,,,,,,,,,,,,,,,,,,,,,,,,,,,,,,,,,,,,,,,,,,,,,,,,,,,,,,,,,,,,,,,,,,,,,,,,,
,,,,,,,,,,5fcc03ab80ec79268c02600d,25,Mężczyzna,2022-05-28_09h12.09.486,task,2021.1.4,Win32,59.52380952,628b806c463b948bc644b84f,6291cafe9e5bca219870781c,,,,,,,,,,,hnhg,"[""h"",""n"",""h"",""g""]","[1.5858999999761636,1.7860000000000014,1.9940999999046767,2.3865000000000123,3.481099999904643]",1,HNHG,5,0,5,0,1,,,,,,,,,,,,,,,,,,,,,,,,,,,,,,,,,,,,,,,,,,,,,,,,,,,,,,,,,,,,,,,,,,,,,,,,,,,,,,,,,,,
,,,,,,,,,,5fcc03ab80ec79268c02600d,25,Mężczyzna,2022-05-28_09h12.09.486,task,2021.1.4,Win32,59.52380952,628b806c463b948bc644b84f,6291cafe9e5bca219870781c,,,,,0,0,0,0,1,"X V Q F H G B L J M P D K C T S W R N Z
",,,,,,,,,,,,,,,,,,,,,,,,,,,,,,,,,,,,,,,,,,,,,,,,,,,,,,,,,,,,,,,,,,,,,,,,,,,,,,,,,,,,,,,,,,,,,
,,,,,,,,,,5fcc03ab80ec79268c02600d,25,Mężczyzna,2022-05-28_09h12.09.486,task,2021.1.4,Win32,59.52380952,628b806c463b948bc644b84f,6291cafe9e5bca219870781c,,,,,1,0,1,0,1,"X V Q F H G B L J M P D K C T S W R N Z
",,,,,,,,,,,,,,,,,,,,,,,,,,,,,,,,,,,,,,,,,,,,,,,,,,,,,,,,,,,,,,,,,,,,,,,,,,,,,,,,,,,,,,,,,,,,,
,,,,,,,,,,5fcc03ab80ec79268c02600d,25,Mężczyzna,2022-05-28_09h12.09.486,task,2021.1.4,Win32,59.52380952,628b806c463b948bc644b84f,6291cafe9e5bca219870781c,,,,,2,0,2,0,1,"X V Q F H G B L J M P D K C T S W R N Z
",,,,,,,,,,,,,,,,,,,,,,,,,,,,,,,,,,,,,,,,,,,,,,,,,,,,,,,,,,,,,,,,,,,,,,,,,,,,,,,,,,,,,,,,,,,,,
,,,,,,,,,,5fcc03ab80ec79268c02600d,25,Mężczyzna,2022-05-28_09h12.09.486,task,2021.1.4,Win32,59.52380952,628b806c463b948bc644b84f,6291cafe9e5bca219870781c,,,,,3,0,3,0,1,"X V Q F H G B L J M P D K C T S W R N Z
",,,,,,,,,,,,,,,,,,,,,,,,,,,,,,,,,,,,,,,,,,,,,,,,,,,,,,,,,,,,,,,,,,,,,,,,,,,,,,,,,,,,,,,,,,,,,
,,,,,,,,,,5fcc03ab80ec79268c02600d,25,Mężczyzna,2022-05-28_09h12.09.486,task,2021.1.4,Win32,59.52380952,628b806c463b948bc644b84f,6291cafe9e5bca219870781c,,,,,,,,,,,nmwm,"[""n"",""m"",""w"",""m""]","[1.2373000000715706,1.4617000000476992,1.6610000000000014,1.9584000000953665,3.2445000000000164]",1,NMWM,6,0,6,0,1,,,,,,,,,,,,,,,,,,,,,,,,,,,,,,,,,,,,,,,,,,,,,,,,,,,,,,,,,,,,,,,,,,,,,,,,,,,,,,,,,,,
,,,,,,,,,,5fcc03ab80ec79268c02600d,25,Mężczyzna,2022-05-28_09h12.09.486,task,2021.1.4,Win32,59.52380952,628b806c463b948bc644b84f,6291cafe9e5bca219870781c,,,,,0,0,0,0,1,"X V Q F H G B L J M P D K C T S W R N Z
",,,,,,,,,,,,,,,,,,,,,,,,,,,,,,,,,,,,,,,,,,,,,,,,,,,,,,,,,,,,,,,,,,,,,,,,,,,,,,,,,,,,,,,,,,,,,
,,,,,,,,,,5fcc03ab80ec79268c02600d,25,Mężczyzna,2022-05-28_09h12.09.486,task,2021.1.4,Win32,59.52380952,628b806c463b948bc644b84f,6291cafe9e5bca219870781c,,,,,1,0,1,0,1,"X V Q F H G B L J M P D K C T S W R N Z
",,,,,,,,,,,,,,,,,,,,,,,,,,,,,,,,,,,,,,,,,,,,,,,,,,,,,,,,,,,,,,,,,,,,,,,,,,,,,,,,,,,,,,,,,,,,,
,,,,,,,,,,5fcc03ab80ec79268c02600d,25,Mężczyzna,2022-05-28_09h12.09.486,task,2021.1.4,Win32,59.52380952,628b806c463b948bc644b84f,6291cafe9e5bca219870781c,,,,,2,0,2,0,1,"X V Q F H G B L J M P D K C T S W R N Z
",,,,,,,,,,,,,,,,,,,,,,,,,,,,,,,,,,,,,,,,,,,,,,,,,,,,,,,,,,,,,,,,,,,,,,,,,,,,,,,,,,,,,,,,,,,,,
,,,,,,,,,,5fcc03ab80ec79268c02600d,25,Mężczyzna,2022-05-28_09h12.09.486,task,2021.1.4,Win32,59.52380952,628b806c463b948bc644b84f,6291cafe9e5bca219870781c,,,,,3,0,3,0,1,"X V Q F H G B L J M P D K C T S W R N Z
",,,,,,,,,,,,,,,,,,,,,,,,,,,,,,,,,,,,,,,,,,,,,,,,,,,,,,,,,,,,,,,,,,,,,,,,,,,,,,,,,,,,,,,,,,,,,
,,,,,,,,,,5fcc03ab80ec79268c02600d,25,Mężczyzna,2022-05-28_09h12.09.486,task,2021.1.4,Win32,59.52380952,628b806c463b948bc644b84f,6291cafe9e5bca219870781c,,,,,4,0,4,0,1,"X V Q F H G B L J M P D K C T S W R N Z
",,,,,,,,,,,,,,,,,,,,,,,,,,,,,,,,,,,,,,,,,,,,,,,,,,,,,,,,,,,,,,,,,,,,,,,,,,,,,,,,,,,,,,,,,,,,,
,,,,,,,,,,5fcc03ab80ec79268c02600d,25,Mężczyzna,2022-05-28_09h12.09.486,task,2021.1.4,Win32,59.52380952,628b806c463b948bc644b84f,6291cafe9e5bca219870781c,,,,,,,,,,,kptwh,"[""k"",""p"",""t"",""w"",""h""]","[0.9727999999523149,1.214200000047697,1.4526000000238355,1.652200000047685,1.9272000000476623,2.851399999976138]",1,KPTWH,7,0,7,0,1,,,,,,,,,,,,,,,,,,,,,,,,,,,,,,,,,,,,,,,,,,,,,,,,,,,,,,,,,,,,,,,,,,,,,,,,,,,,,,,,,,,
,,,,,,,,,,5fcc03ab80ec79268c02600d,25,Mężczyzna,2022-05-28_09h12.09.486,task,2021.1.4,Win32,59.52380952,628b806c463b948bc644b84f,6291cafe9e5bca219870781c,,,,,0,0,0,0,1,"X V Q F H G B L J M P D K C T S W R N Z
",,,,,,,,,,,,,,,,,,,,,,,,,,,,,,,,,,,,,,,,,,,,,,,,,,,,,,,,,,,,,,,,,,,,,,,,,,,,,,,,,,,,,,,,,,,,,
,,,,,,,,,,5fcc03ab80ec79268c02600d,25,Mężczyzna,2022-05-28_09h12.09.486,task,2021.1.4,Win32,59.52380952,628b806c463b948bc644b84f,6291cafe9e5bca219870781c,,,,,1,0,1,0,1,"X V Q F H G B L J M P D K C T S W R N Z
",,,,,,,,,,,,,,,,,,,,,,,,,,,,,,,,,,,,,,,,,,,,,,,,,,,,,,,,,,,,,,,,,,,,,,,,,,,,,,,,,,,,,,,,,,,,,
,,,,,,,,,,5fcc03ab80ec79268c02600d,25,Mężczyzna,2022-05-28_09h12.09.486,task,2021.1.4,Win32,59.52380952,628b806c463b948bc644b84f,6291cafe9e5bca219870781c,,,,,2,0,2,0,1,"X V Q F H G B L J M P D K C T S W R N Z
",,,,,,,,,,,,,,,,,,,,,,,,,,,,,,,,,,,,,,,,,,,,,,,,,,,,,,,,,,,,,,,,,,,,,,,,,,,,,,,,,,,,,,,,,,,,,
,,,,,,,,,,5fcc03ab80ec79268c02600d,25,Mężczyzna,2022-05-28_09h12.09.486,task,2021.1.4,Win32,59.52380952,628b806c463b948bc644b84f,6291cafe9e5bca219870781c,,,,,3,0,3,0,1,"X V Q F H G B L J M P D K C T S W R N Z
",,,,,,,,,,,,,,,,,,,,,,,,,,,,,,,,,,,,,,,,,,,,,,,,,,,,,,,,,,,,,,,,,,,,,,,,,,,,,,,,,,,,,,,,,,,,,
,,,,,,,,,,5fcc03ab80ec79268c02600d,25,Mężczyzna,2022-05-28_09h12.09.486,task,2021.1.4,Win32,59.52380952,628b806c463b948bc644b84f,6291cafe9e5bca219870781c,,,,,4,0,4,0,1,"X V Q F H G B L J M P D K C T S W R N Z
",,,,,,,,,,,,,,,,,,,,,,,,,,,,,,,,,,,,,,,,,,,,,,,,,,,,,,,,,,,,,,,,,,,,,,,,,,,,,,,,,,,,,,,,,,,,,
,,,,,,,,,,5fcc03ab80ec79268c02600d,25,Mężczyzna,2022-05-28_09h12.09.486,task,2021.1.4,Win32,59.52380952,628b806c463b948bc644b84f,6291cafe9e5bca219870781c,,,,,,,,,,,kxrmr,"[""k"",""x"",""r"",""m"",""r""]","[0.9436000000238209,1.3021000000238132,1.6204000000953442,1.8694999999999595,2.0774999999999864,3.3019000000953724]",1,KXRMR,8,0,8,0,1,,,,,,,,,,,,,,,,,,,,,,,,,,,,,,,,,,,,,,,,,,,,,,,,,,,,,,,,,,,,,,,,,,,,,,,,,,,,,,,,,,,
,,,,,,,,,,5fcc03ab80ec79268c02600d,25,Mężczyzna,2022-05-28_09h12.09.486,task,2021.1.4,Win32,59.52380952,628b806c463b948bc644b84f,6291cafe9e5bca219870781c,,,,,0,0,0,0,1,"X V Q F H G B L J M P D K C T S W R N Z
",,,,,,,,,,,,,,,,,,,,,,,,,,,,,,,,,,,,,,,,,,,,,,,,,,,,,,,,,,,,,,,,,,,,,,,,,,,,,,,,,,,,,,,,,,,,,
,,,,,,,,,,5fcc03ab80ec79268c02600d,25,Mężczyzna,2022-05-28_09h12.09.486,task,2021.1.4,Win32,59.52380952,628b806c463b948bc644b84f,6291cafe9e5bca219870781c,,,,,1,0,1,0,1,"X V Q F H G B L J M P D K C T S W R N Z
",,,,,,,,,,,,,,,,,,,,,,,,,,,,,,,,,,,,,,,,,,,,,,,,,,,,,,,,,,,,,,,,,,,,,,,,,,,,,,,,,,,,,,,,,,,,,
,,,,,,,,,,5fcc03ab80ec79268c02600d,25,Mężczyzna,2022-05-28_09h12.09.486,task,2021.1.4,Win32,59.52380952,628b806c463b948bc644b84f,6291cafe9e5bca219870781c,,,,,2,0,2,0,1,"X V Q F H G B L J M P D K C T S W R N Z
",,,,,,,,,,,,,,,,,,,,,,,,,,,,,,,,,,,,,,,,,,,,,,,,,,,,,,,,,,,,,,,,,,,,,,,,,,,,,,,,,,,,,,,,,,,,,
,,,,,,,,,,5fcc03ab80ec79268c02600d,25,Mężczyzna,2022-05-28_09h12.09.486,task,2021.1.4,Win32,59.52380952,628b806c463b948bc644b84f,6291cafe9e5bca219870781c,,,,,3,0,3,0,1,"X V Q F H G B L J M P D K C T S W R N Z
",,,,,,,,,,,,,,,,,,,,,,,,,,,,,,,,,,,,,,,,,,,,,,,,,,,,,,,,,,,,,,,,,,,,,,,,,,,,,,,,,,,,,,,,,,,,,
,,,,,,,,,,5fcc03ab80ec79268c02600d,25,Mężczyzna,2022-05-28_09h12.09.486,task,2021.1.4,Win32,59.52380952,628b806c463b948bc644b84f,6291cafe9e5bca219870781c,,,,,4,0,4,0,1,"X V Q F H G B L J M P D K C T S W R N Z
",,,,,,,,,,,,,,,,,,,,,,,,,,,,,,,,,,,,,,,,,,,,,,,,,,,,,,,,,,,,,,,,,,,,,,,,,,,,,,,,,,,,,,,,,,,,,
,,,,,,,,,,5fcc03ab80ec79268c02600d,25,Mężczyzna,2022-05-28_09h12.09.486,task,2021.1.4,Win32,59.52380952,628b806c463b948bc644b84f,6291cafe9e5bca219870781c,,,,,5,0,5,0,1,"X V Q F H G B L J M P D K C T S W R N Z
",,,,,,,,,,,,,,,,,,,,,,,,,,,,,,,,,,,,,,,,,,,,,,,,,,,,,,,,,,,,,,,,,,,,,,,,,,,,,,,,,,,,,,,,,,,,,
,,,,,,,,,,5fcc03ab80ec79268c02600d,25,Mężczyzna,2022-05-28_09h12.09.486,task,2021.1.4,Win32,59.52380952,628b806c463b948bc644b84f,6291cafe9e5bca219870781c,,,,,,,,,,,qxlvck,"[""q"",""x"",""l"",""v"",""c"",""k""]","[1.0123999999761395,1.3968999999761422,2.182599999904653,2.3887999999523117,2.9000999999046257,3.053799999952332,3.7076999999284794]",1,QXLVCK,9,0,9,0,1,,,,,,,,,,,,,,,,,,,,,,,,,,,,,,,,,,,,,,,,,,,,,,,,,,,,,,,,,,,,,,,,,,,,,,,,,,,,,,,,,,,
,,,,,,,,,,5fcc03ab80ec79268c02600d,25,Mężczyzna,2022-05-28_09h12.09.486,task,2021.1.4,Win32,59.52380952,628b806c463b948bc644b84f,6291cafe9e5bca219870781c,,,,,0,0,0,0,1,"X V Q F H G B L J M P D K C T S W R N Z
",,,,,,,,,,,,,,,,,,,,,,,,,,,,,,,,,,,,,,,,,,,,,,,,,,,,,,,,,,,,,,,,,,,,,,,,,,,,,,,,,,,,,,,,,,,,,
,,,,,,,,,,5fcc03ab80ec79268c02600d,25,Mężczyzna,2022-05-28_09h12.09.486,task,2021.1.4,Win32,59.52380952,628b806c463b948bc644b84f,6291cafe9e5bca219870781c,,,,,1,0,1,0,1,"X V Q F H G B L J M P D K C T S W R N Z
",,,,,,,,,,,,,,,,,,,,,,,,,,,,,,,,,,,,,,,,,,,,,,,,,,,,,,,,,,,,,,,,,,,,,,,,,,,,,,,,,,,,,,,,,,,,,
,,,,,,,,,,5fcc03ab80ec79268c02600d,25,Mężczyzna,2022-05-28_09h12.09.486,task,2021.1.4,Win32,59.52380952,628b806c463b948bc644b84f,6291cafe9e5bca219870781c,,,,,2,0,2,0,1,"X V Q F H G B L J M P D K C T S W R N Z
",,,,,,,,,,,,,,,,,,,,,,,,,,,,,,,,,,,,,,,,,,,,,,,,,,,,,,,,,,,,,,,,,,,,,,,,,,,,,,,,,,,,,,,,,,,,,
,,,,,,,,,,5fcc03ab80ec79268c02600d,25,Mężczyzna,2022-05-28_09h12.09.486,task,2021.1.4,Win32,59.52380952,628b806c463b948bc644b84f,6291cafe9e5bca219870781c,,,,,3,0,3,0,1,"X V Q F H G B L J M P D K C T S W R N Z
",,,,,,,,,,,,,,,,,,,,,,,,,,,,,,,,,,,,,,,,,,,,,,,,,,,,,,,,,,,,,,,,,,,,,,,,,,,,,,,,,,,,,,,,,,,,,
,,,,,,,,,,5fcc03ab80ec79268c02600d,25,Mężczyzna,2022-05-28_09h12.09.486,task,2021.1.4,Win32,59.52380952,628b806c463b948bc644b84f,6291cafe9e5bca219870781c,,,,,4,0,4,0,1,"X V Q F H G B L J M P D K C T S W R N Z
",,,,,,,,,,,,,,,,,,,,,,,,,,,,,,,,,,,,,,,,,,,,,,,,,,,,,,,,,,,,,,,,,,,,,,,,,,,,,,,,,,,,,,,,,,,,,
,,,,,,,,,,5fcc03ab80ec79268c02600d,25,Mężczyzna,2022-05-28_09h12.09.486,task,2021.1.4,Win32,59.52380952,628b806c463b948bc644b84f,6291cafe9e5bca219870781c,,,,,5,0,5,0,1,"X V Q F H G B L J M P D K C T S W R N Z
",,,,,,,,,,,,,,,,,,,,,,,,,,,,,,,,,,,,,,,,,,,,,,,,,,,,,,,,,,,,,,,,,,,,,,,,,,,,,,,,,,,,,,,,,,,,,
,,,,,,,,,,5fcc03ab80ec79268c02600d,25,Mężczyzna,2022-05-28_09h12.09.486,task,2021.1.4,Win32,59.52380952,628b806c463b948bc644b84f,6291cafe9e5bca219870781c,,,,,,,,,,,btkcpj,"[""b"",""t"",""k"",""c"",""p"",""j""]","[1.1302999999522854,1.4433999999761227,1.6902999999522876,1.96189999997614,2.1940999999046085,2.6197999999523063,3.2579999999999814]",1,BTKCPJ,10,0,10,0,1,,,,,,,,,,,,,,,,,,,,,,,,,,,,,,,,,,,,,,,,,,,,,,,,,,,,,,,,,,,,,,,,,,,,,,,,,,,,,,,,,,,
,,,,,,,,,,5fcc03ab80ec79268c02600d,25,Mężczyzna,2022-05-28_09h12.09.486,task,2021.1.4,Win32,59.52380952,628b806c463b948bc644b84f,6291cafe9e5bca219870781c,,,,,0,0,0,0,1,"X V Q F H G B L J M P D K C T S W R N Z
",,,,,,,,,,,,,,,,,,,,,,,,,,,,,,,,,,,,,,,,,,,,,,,,,,,,,,,,,,,,,,,,,,,,,,,,,,,,,,,,,,,,,,,,,,,,,
,,,,,,,,,,5fcc03ab80ec79268c02600d,25,Mężczyzna,2022-05-28_09h12.09.486,task,2021.1.4,Win32,59.52380952,628b806c463b948bc644b84f,6291cafe9e5bca219870781c,,,,,1,0,1,0,1,"X V Q F H G B L J M P D K C T S W R N Z
",,,,,,,,,,,,,,,,,,,,,,,,,,,,,,,,,,,,,,,,,,,,,,,,,,,,,,,,,,,,,,,,,,,,,,,,,,,,,,,,,,,,,,,,,,,,,
,,,,,,,,,,5fcc03ab80ec79268c02600d,25,Mężczyzna,2022-05-28_09h12.09.486,task,2021.1.4,Win32,59.52380952,628b806c463b948bc644b84f,6291cafe9e5bca219870781c,,,,,2,0,2,0,1,"X V Q F H G B L J M P D K C T S W R N Z
",,,,,,,,,,,,,,,,,,,,,,,,,,,,,,,,,,,,,,,,,,,,,,,,,,,,,,,,,,,,,,,,,,,,,,,,,,,,,,,,,,,,,,,,,,,,,
,,,,,,,,,,5fcc03ab80ec79268c02600d,25,Mężczyzna,2022-05-28_09h12.09.486,task,2021.1.4,Win32,59.52380952,628b806c463b948bc644b84f,6291cafe9e5bca219870781c,,,,,3,0,3,0,1,"X V Q F H G B L J M P D K C T S W R N Z
",,,,,,,,,,,,,,,,,,,,,,,,,,,,,,,,,,,,,,,,,,,,,,,,,,,,,,,,,,,,,,,,,,,,,,,,,,,,,,,,,,,,,,,,,,,,,
,,,,,,,,,,5fcc03ab80ec79268c02600d,25,Mężczyzna,2022-05-28_09h12.09.486,task,2021.1.4,Win32,59.52380952,628b806c463b948bc644b84f,6291cafe9e5bca219870781c,,,,,4,0,4,0,1,"X V Q F H G B L J M P D K C T S W R N Z
",,,,,,,,,,,,,,,,,,,,,,,,,,,,,,,,,,,,,,,,,,,,,,,,,,,,,,,,,,,,,,,,,,,,,,,,,,,,,,,,,,,,,,,,,,,,,
,,,,,,,,,,5fcc03ab80ec79268c02600d,25,Mężczyzna,2022-05-28_09h12.09.486,task,2021.1.4,Win32,59.52380952,628b806c463b948bc644b84f,6291cafe9e5bca219870781c,,,,,5,0,5,0,1,"X V Q F H G B L J M P D K C T S W R N Z
",,,,,,,,,,,,,,,,,,,,,,,,,,,,,,,,,,,,,,,,,,,,,,,,,,,,,,,,,,,,,,,,,,,,,,,,,,,,,,,,,,,,,,,,,,,,,
,,,,,,,,,,5fcc03ab80ec79268c02600d,25,Mężczyzna,2022-05-28_09h12.09.486,task,2021.1.4,Win32,59.52380952,628b806c463b948bc644b84f,6291cafe9e5bca219870781c,,,,,6,0,6,0,1,"X V Q F H G B L J M P D K C T S W R N Z
",,,,,,,,,,,,,,,,,,,,,,,,,,,,,,,,,,,,,,,,,,,,,,,,,,,,,,,,,,,,,,,,,,,,,,,,,,,,,,,,,,,,,,,,,,,,,
,,,,,,,,,,5fcc03ab80ec79268c02600d,25,Mężczyzna,2022-05-28_09h12.09.486,task,2021.1.4,Win32,59.52380952,628b806c463b948bc644b84f,6291cafe9e5bca219870781c,,,,,,,,,,,lpkbfldz,"[""l"",""p"",""k"",""b"",""f"",""l"",""d"",""z""]","[2.6236999999284762,2.939999999999941,3.3391999999284963,3.8736999999284762,5.827399999976137,6.207099999904585,6.720000000000027,6.935099999904651,7.3969999999999345]",0,"LPZ
BFLD",11,0,11,0,1,,,,,,,,,,,,,,,,,,,,,,,,,,,,,,,,,,,,,,,,,,,,,,,,,,,,,,,,,,,,,,,,,,,,,,,,,,,,,,,,,,,
,,,,,,,,,,5fcc03ab80ec79268c02600d,25,Mężczyzna,2022-05-28_09h12.09.486,task,2021.1.4,Win32,59.52380952,628b806c463b948bc644b84f,6291cafe9e5bca219870781c,,,,,0,0,0,0,1,"X V Q F H G B L J M P D K C T S W R N Z
",,,,,,,,,,,,,,,,,,,,,,,,,,,,,,,,,,,,,,,,,,,,,,,,,,,,,,,,,,,,,,,,,,,,,,,,,,,,,,,,,,,,,,,,,,,,,
,,,,,,,,,,5fcc03ab80ec79268c02600d,25,Mężczyzna,2022-05-28_09h12.09.486,task,2021.1.4,Win32,59.52380952,628b806c463b948bc644b84f,6291cafe9e5bca219870781c,,,,,1,0,1,0,1,"X V Q F H G B L J M P D K C T S W R N Z
",,,,,,,,,,,,,,,,,,,,,,,,,,,,,,,,,,,,,,,,,,,,,,,,,,,,,,,,,,,,,,,,,,,,,,,,,,,,,,,,,,,,,,,,,,,,,
,,,,,,,,,,5fcc03ab80ec79268c02600d,25,Mężczyzna,2022-05-28_09h12.09.486,task,2021.1.4,Win32,59.52380952,628b806c463b948bc644b84f,6291cafe9e5bca219870781c,,,,,2,0,2,0,1,"X V Q F H G B L J M P D K C T S W R N Z
",,,,,,,,,,,,,,,,,,,,,,,,,,,,,,,,,,,,,,,,,,,,,,,,,,,,,,,,,,,,,,,,,,,,,,,,,,,,,,,,,,,,,,,,,,,,,
,,,,,,,,,,5fcc03ab80ec79268c02600d,25,Mężczyzna,2022-05-28_09h12.09.486,task,2021.1.4,Win32,59.52380952,628b806c463b948bc644b84f,6291cafe9e5bca219870781c,,,,,3,0,3,0,1,"X V Q F H G B L J M P D K C T S W R N Z
",,,,,,,,,,,,,,,,,,,,,,,,,,,,,,,,,,,,,,,,,,,,,,,,,,,,,,,,,,,,,,,,,,,,,,,,,,,,,,,,,,,,,,,,,,,,,
,,,,,,,,,,5fcc03ab80ec79268c02600d,25,Mężczyzna,2022-05-28_09h12.09.486,task,2021.1.4,Win32,59.52380952,628b806c463b948bc644b84f,6291cafe9e5bca219870781c,,,,,4,0,4,0,1,"X V Q F H G B L J M P D K C T S W R N Z
",,,,,,,,,,,,,,,,,,,,,,,,,,,,,,,,,,,,,,,,,,,,,,,,,,,,,,,,,,,,,,,,,,,,,,,,,,,,,,,,,,,,,,,,,,,,,
,,,,,,,,,,5fcc03ab80ec79268c02600d,25,Mężczyzna,2022-05-28_09h12.09.486,task,2021.1.4,Win32,59.52380952,628b806c463b948bc644b84f,6291cafe9e5bca219870781c,,,,,5,0,5,0,1,"X V Q F H G B L J M P D K C T S W R N Z
",,,,,,,,,,,,,,,,,,,,,,,,,,,,,,,,,,,,,,,,,,,,,,,,,,,,,,,,,,,,,,,,,,,,,,,,,,,,,,,,,,,,,,,,,,,,,
,,,,,,,,,,5fcc03ab80ec79268c02600d,25,Mężczyzna,2022-05-28_09h12.09.486,task,2021.1.4,Win32,59.52380952,628b806c463b948bc644b84f,6291cafe9e5bca219870781c,,,,,6,0,6,0,1,"X V Q F H G B L J M P D K C T S W R N Z
",,,,,,,,,,,,,,,,,,,,,,,,,,,,,,,,,,,,,,,,,,,,,,,,,,,,,,,,,,,,,,,,,,,,,,,,,,,,,,,,,,,,,,,,,,,,,
,,,,,,,,,,5fcc03ab80ec79268c02600d,25,Mężczyzna,2022-05-28_09h12.09.486,task,2021.1.4,Win32,59.52380952,628b806c463b948bc644b84f,6291cafe9e5bca219870781c,,,,,,,,,,,ttwljzt,"[""t"",""t"",""w"",""l"",""j"",""z"",""t""]","[1.3316999999284462,1.5472999999523154,2.3220000000000027,2.674299999952268,8.13789999997607,9.164599999904567,9.409899999976119,9.914299999952277]",0,TTWLJTS,12,0,12,0,1,,,,,,,,,,,,,,,,,,,,,,,,,,,,,,,,,,,,,,,,,,,,,,,,,,,,,,,,,,,,,,,,,,,,,,,,,,,,,,,,,,,
,,,,,,,,,,5fcc03ab80ec79268c02600d,25,Mężczyzna,2022-05-28_09h12.09.486,task,2021.1.4,Win32,59.52380952,628b806c463b948bc644b84f,6291cafe9e5bca219870781c,,,,,0,0,0,0,1,"X V Q F H G B L J M P D K C T S W R N Z
",,,,,,,,,,,,,,,,,,,,,,,,,,,,,,,,,,,,,,,,,,,,,,,,,,,,,,,,,,,,,,,,,,,,,,,,,,,,,,,,,,,,,,,,,,,,,
,,,,,,,,,,5fcc03ab80ec79268c02600d,25,Mężczyzna,2022-05-28_09h12.09.486,task,2021.1.4,Win32,59.52380952,628b806c463b948bc644b84f,6291cafe9e5bca219870781c,,,,,1,0,1,0,1,"X V Q F H G B L J M P D K C T S W R N Z
",,,,,,,,,,,,,,,,,,,,,,,,,,,,,,,,,,,,,,,,,,,,,,,,,,,,,,,,,,,,,,,,,,,,,,,,,,,,,,,,,,,,,,,,,,,,,
,,,,,,,,,,5fcc03ab80ec79268c02600d,25,Mężczyzna,2022-05-28_09h12.09.486,task,2021.1.4,Win32,59.52380952,628b806c463b948bc644b84f,6291cafe9e5bca219870781c,,,,,2,0,2,0,1,"X V Q F H G B L J M P D K C T S W R N Z
",,,,,,,,,,,,,,,,,,,,,,,,,,,,,,,,,,,,,,,,,,,,,,,,,,,,,,,,,,,,,,,,,,,,,,,,,,,,,,,,,,,,,,,,,,,,,
,,,,,,,,,,5fcc03ab80ec79268c02600d,25,Mężczyzna,2022-05-28_09h12.09.486,task,2021.1.4,Win32,59.52380952,628b806c463b948bc644b84f,6291cafe9e5bca219870781c,,,,,3,0,3,0,1,"X V Q F H G B L J M P D K C T S W R N Z
",,,,,,,,,,,,,,,,,,,,,,,,,,,,,,,,,,,,,,,,,,,,,,,,,,,,,,,,,,,,,,,,,,,,,,,,,,,,,,,,,,,,,,,,,,,,,
,,,,,,,,,,5fcc03ab80ec79268c02600d,25,Mężczyzna,2022-05-28_09h12.09.486,task,2021.1.4,Win32,59.52380952,628b806c463b948bc644b84f,6291cafe9e5bca219870781c,,,,,4,0,4,0,1,"X V Q F H G B L J M P D K C T S W R N Z
",,,,,,,,,,,,,,,,,,,,,,,,,,,,,,,,,,,,,,,,,,,,,,,,,,,,,,,,,,,,,,,,,,,,,,,,,,,,,,,,,,,,,,,,,,,,,
,,,,,,,,,,5fcc03ab80ec79268c02600d,25,Mężczyzna,2022-05-28_09h12.09.486,task,2021.1.4,Win32,59.52380952,628b806c463b948bc644b84f,6291cafe9e5bca219870781c,,,,,5,0,5,0,1,"X V Q F H G B L J M P D K C T S W R N Z
",,,,,,,,,,,,,,,,,,,,,,,,,,,,,,,,,,,,,,,,,,,,,,,,,,,,,,,,,,,,,,,,,,,,,,,,,,,,,,,,,,,,,,,,,,,,,
,,,,,,,,,,5fcc03ab80ec79268c02600d,25,Mężczyzna,2022-05-28_09h12.09.486,task,2021.1.4,Win32,59.52380952,628b806c463b948bc644b84f,6291cafe9e5bca219870781c,,,,,6,0,6,0,1,"X V Q F H G B L J M P D K C T S W R N Z
",,,,,,,,,,,,,,,,,,,,,,,,,,,,,,,,,,,,,,,,,,,,,,,,,,,,,,,,,,,,,,,,,,,,,,,,,,,,,,,,,,,,,,,,,,,,,
,,,,,,,,,,5fcc03ab80ec79268c02600d,25,Mężczyzna,2022-05-28_09h12.09.486,task,2021.1.4,Win32,59.52380952,628b806c463b948bc644b84f,6291cafe9e5bca219870781c,,,,,,,,,,,nrgkkwz,"[""n"",""r"",""g"",""k"",""k"",""w"",""z""]","[1.0398999999761145,1.3191000000238091,1.5921999999284253,2.670399999976212,2.8317999999522954,4.173899999976129,4.365699999928438,4.925399999976207]",0,"NRRGKZ
W",13,0,13,0,1,,,,,,,,,,,,,,,,,,,,,,,,,,,,,,,,,,,,,,,,,,,,,,,,,,,,,,,,,,,,,,,,,,,,,,,,,,,,,,,,,,,
,,,,,,,,,,5fcc03ab80ec79268c02600d,25,Mężczyzna,2022-05-28_09h12.09.486,task,2021.1.4,Win32,59.52380952,628b806c463b948bc644b84f,6291cafe9e5bca219870781c,,,,,,,,,,,,,,,,,,,,,space,14.5644,4,"[""4""]",1,[8.547700000047712],[8.547700000047712],0,0,0,4,1,Practice,5,(2x6) - 8,4,,,,,,,,,,,,,,,,,,,,,,,,,,,,,,,,,,,,,,,,,,,,,,,,,,,,,,,,,,,,,,,,,,,
,,,,,,,,,,5fcc03ab80ec79268c02600d,25,Mężczyzna,2022-05-28_09h12.09.486,task,2021.1.4,Win32,59.52380952,628b806c463b948bc644b84f,6291cafe9e5bca219870781c,,,,,,,,,,,,,,,,,,,,,,,1,"[""1""]",1,[5.183700000047679],"[8.547700000047712,5.183700000047679]",0,1,1,1,1,Practice,2,(4x4) - 15,1,,,,,,,,,,,,,,,,,,,,,,,,,,,,,,,,,,,,,,,,,,,,,,,,,,,,,,,,,,,,,,,,,,,
,,,,,,,,,,5fcc03ab80ec79268c02600d,25,Mężczyzna,2022-05-28_09h12.09.486,task,2021.1.4,Win32,59.52380952,628b806c463b948bc644b84f,6291cafe9e5bca219870781c,,,,,,,,,,,,,,,,,,,,,,,7,"[""7""]",1,[11.948199999928534],"[8.547700000047712,5.183700000047679,11.948199999928534]",0,2,2,7,1,Practice,8,(5x5) - 18,7,,,,,,,,,,,,,,,,,,,,,,,,,,,,,,,,,,,,,,,,,,,,,,,,,,,,,,,,,,,,,,,,,,,
,,,,,,,,,,5fcc03ab80ec79268c02600d,25,Mężczyzna,2022-05-28_09h12.09.486,task,2021.1.4,Win32,59.52380952,628b806c463b948bc644b84f,6291cafe9e5bca219870781c,,,,,,,,,,,,,,,,,,,,,,,8,"[""8""]",1,[5.227999999999952],"[8.547700000047712,5.183700000047679,11.948199999928534,5.227999999999952]",0,3,3,8,1,Practice,9,(3x3) - 1,8,,,,,,,,,,,,,,,,,,,,,,,,,,,,,,,,,,,,,,,,,,,,,,,,,,,,,,,,,,,,,,,,,,,
,,,,,,,,,,5fcc03ab80ec79268c02600d,25,Mężczyzna,2022-05-28_09h12.09.486,task,2021.1.4,Win32,59.52380952,628b806c463b948bc644b84f,6291cafe9e5bca219870781c,,,,,,,,,,,,,,,,,,,,,,,2,"[""2""]",1,[2.5249999999999773],"[8.547700000047712,5.183700000047679,11.948199999928534,5.227999999999952,2.5249999999999773]",0,4,4,2,1,Practice,3,(4x4) - 14,2,,,,,,,,,,,,,,,,,,,,,,,,,,,,,,,,,,,,,,,,,,,,,,,,,,,,,,,,,,,,,,,,,,,
,,,,,,,,,,5fcc03ab80ec79268c02600d,25,Mężczyzna,2022-05-28_09h12.09.486,task,2021.1.4,Win32,59.52380952,628b806c463b948bc644b84f,6291cafe9e5bca219870781c,,,,,,,,,,,,,,,,,,,,,,,3,"[""3""]",1,[3.2731999999284653],"[8.547700000047712,5.183700000047679,11.948199999928534,5.227999999999952,2.5249999999999773,3.2731999999284653]",0,5,5,3,1,Practice,4,(8/4) + 1,3,,,,,,,,,,,,,,,,,,,,,,,,,,,,,,,,,,,,,,,,,,,,,,,,,,,,,,,,,,,,,,,,,,,
,,,,,,,,,,5fcc03ab80ec79268c02600d,25,Mężczyzna,2022-05-28_09h12.09.486,task,2021.1.4,Win32,59.52380952,628b806c463b948bc644b84f,6291cafe9e5bca219870781c,,,,,,,,,,,,,,,,,,,,,,,6,"[""6""]",1,[5.263799999952312],"[8.547700000047712,5.183700000047679,11.948199999928534,5.227999999999952,2.5249999999999773,3.2731999999284653,5.263799999952312]",0,6,6,6,1,Practice,7,(25/5) + 1,6,,,,,,,,,,,,,,,,,,,,,,,,,,,,,,,,,,,,,,,,,,,,,,,,,,,,,,,,,,,,,,,,,,,
,,,,,,,,,,5fcc03ab80ec79268c02600d,25,Mężczyzna,2022-05-28_09h12.09.486,task,2021.1.4,Win32,59.52380952,628b806c463b948bc644b84f,6291cafe9e5bca219870781c,,,,,,,,,,,,,,,,,,,,,,,9,"[""9""]",1,[4.02310000002376],"[8.547700000047712,5.183700000047679,11.948199999928534,5.227999999999952,2.5249999999999773,3.2731999999284653,5.263799999952312,4.02310000002376]",0,7,7,9,1,Practice,10,(20/2) - 1,9,,,,,,,,,,,,,,,,,,,,,,,,,,,,,,,,,,,,,,,,,,,,,,,,,,,,,,,,,,,,,,,,,,,
,,,,,,,,,,5fcc03ab80ec79268c02600d,25,Mężczyzna,2022-05-28_09h12.09.486,task,2021.1.4,Win32,59.52380952,628b806c463b948bc644b84f,6291cafe9e5bca219870781c,,,,,,,,,,,,,,,,,,,,,,,5,"[""5""]",1,[4.931300000071474],"[8.547700000047712,5.183700000047679,11.948199999928534,5.227999999999952,2.5249999999999773,3.2731999999284653,5.263799999952312,4.02310000002376,4.931300000071474]",0,8,8,5,1,Practice,6,(4/2) + 3,5,,,,,,,,,,,,,,,,,,,,,,,,,,,,,,,,,,,,,,,,,,,,,,,,,,,,,,,,,,,,,,,,,,,
,,,,,,,,,,5fcc03ab80ec79268c02600d,25,Mężczyzna,2022-05-28_09h12.09.486,task,2021.1.4,Win32,59.52380952,628b806c463b948bc644b84f,6291cafe9e5bca219870781c,,,,,,,,,,,,,,,,,,,,,,,0,"[""0""]",1,[2.4538999999762154],"[8.547700000047712,5.183700000047679,11.948199999928534,5.227999999999952,2.5249999999999773,3.2731999999284653,5.263799999952312,4.02310000002376,4.931300000071474,2.4538999999762154]",0,9,9,0,1,Practice,1,(3x3) -  9,0,,,,,,,,,,,,,,,,,,,,,,,,,,,,,,,,,,,,,,,,,,,,,,,,,,,,,,,,,,,,,,,,,,,
,,,,,,,,,,5fcc03ab80ec79268c02600d,25,Mężczyzna,2022-05-28_09h12.09.486,task,2021.1.4,Win32,59.52380952,628b806c463b948bc644b84f,6291cafe9e5bca219870781c,,,,,,,,,,,,,,,,,,,,,,,,,,,,,,,,,,,,,1,53.3779,3.558526667,108.0848797,2.684335792,10.48411301,space,1.6305,0,0,0,0,1,,,,,,,,,,,,,,,,,,,,,,,,,,,,,,,,,,,,,,,,,,,,,,,,,,,,,,
,,,,,,,,,,5fcc03ab80ec79268c02600d,25,Mężczyzna,2022-05-28_09h12.09.486,task,2021.1.4,Win32,59.52380952,628b806c463b948bc644b84f,6291cafe9e5bca219870781c,,,,,,,,,,,,,,,,,,,,,,,2,,,,,,,,,,Practice,3,(4x4) - 14,2,,,,,,,,,,,,,,space,15.8139,"[""2""]",1,[4.350700000047709],1,0,0,0,2,1,,,,,,,,,,,,,,,,,,,,,,,,,,,,,,,,,,,,,,,,,,,
,,,,,,,,,,5fcc03ab80ec79268c02600d,25,Mężczyzna,2022-05-28_09h12.09.486,task,2021.1.4,Win32,59.52380952,628b806c463b948bc644b84f,6291cafe9e5bca219870781c,,,,,,,,,,"X V Q F H G B L J M P D K C T S W R N Z
",,,,,,,,,,,,,,,,,,,,,,,,,,,,,,,,,,,,,,,,,,,,,,,,,,,0,0,0,0,1,,,,,,,,,,,,,,,,,,,,,,,,,,,,,,,,,,,,,,
,,,,,,,,,,5fcc03ab80ec79268c02600d,25,Mężczyzna,2022-05-28_09h12.09.486,task,2021.1.4,Win32,59.52380952,628b806c463b948bc644b84f,6291cafe9e5bca219870781c,,,,,,,,,,,,,,,,,,,,,,,1,,,,,,,,,,Practice,2,(4x4) - 15,1,,,,,,,,,,,,,,,,"[""1""]",1,[4.565799999952333],1,0,0,0,1,1,,,,,,,,,,,,,,,,,,,,,,,,,,,,,,,,,,,,,,,,,,,
,,,,,,,,,,5fcc03ab80ec79268c02600d,25,Mężczyzna,2022-05-28_09h12.09.486,task,2021.1.4,Win32,59.52380952,628b806c463b948bc644b84f,6291cafe9e5bca219870781c,,,,,,,,,,"X V Q F H G B L J M P D K C T S W R N Z
",,,,,,,,,,,,,,,,,,,,,,,,,,,,,,,,,,,,,,,,,,,,,,,,,,,1,0,1,0,1,,,,,,,,,,,,,,,,,,,,,,,,,,,,,,,,,,,,,,
,,,,,,,,,,5fcc03ab80ec79268c02600d,25,Mężczyzna,2022-05-28_09h12.09.486,task,2021.1.4,Win32,59.52380952,628b806c463b948bc644b84f,6291cafe9e5bca219870781c,,,,,,,,,,,,,,,,,,,,,,,,,,,,,,,,,,,,,,,,,,,,,,,,,,,,,,,,,,,,,,,,,,zw,"[""z"",""w""]",0,"[1.8565000000000964,2.1515000000000555,3.5195000000001073]",1,0,0,0,0,1,,,,,,,,,,,,,,,,,,,,,,,,,,,,
,,,,,,,,,,5fcc03ab80ec79268c02600d,25,Mężczyzna,2022-05-28_09h12.09.486,task,2021.1.4,Win32,59.52380952,628b806c463b948bc644b84f,6291cafe9e5bca219870781c,,,,,,,,,,,,,,,,,,,,,,,7,,,,,,,,,,Practice,8,(5x5) - 18,7,,,,,,,,,,,,,,,,"[""7""]",1,[8.100100000023758],1,0,0,0,7,1,,,,,,,,,,,,,,,,,,,,,,,,,,,,,,,,,,,,,,,,,,,
,,,,,,,,,,5fcc03ab80ec79268c02600d,25,Mężczyzna,2022-05-28_09h12.09.486,task,2021.1.4,Win32,59.52380952,628b806c463b948bc644b84f,6291cafe9e5bca219870781c,,,,,,,,,,"X V Q F H G B L J M P D K C T S W R N Z
",,,,,,,,,,,,,,,,,,,,,,,,,,,,,,,,,,,,,,,,,,,,,,,,,,,0,0,0,0,1,,,,,,,,,,,,,,,,,,,,,,,,,,,,,,,,,,,,,,
,,,,,,,,,,5fcc03ab80ec79268c02600d,25,Mężczyzna,2022-05-28_09h12.09.486,task,2021.1.4,Win32,59.52380952,628b806c463b948bc644b84f,6291cafe9e5bca219870781c,,,,,,,,,,,,,,,,,,,,,,,1,,,,,,,,,,Practice,2,(4x4) - 15,1,,,,,,,,,,,,,,,,"[""1""]",1,[2.2045999999046444],1,0,0,0,1,1,,,,,,,,,,,,,,,,,,,,,,,,,,,,,,,,,,,,,,,,,,,
,,,,,,,,,,5fcc03ab80ec79268c02600d,25,Mężczyzna,2022-05-28_09h12.09.486,task,2021.1.4,Win32,59.52380952,628b806c463b948bc644b84f,6291cafe9e5bca219870781c,,,,,,,,,,"X V Q F H G B L J M P D K C T S W R N Z
",,,,,,,,,,,,,,,,,,,,,,,,,,,,,,,,,,,,,,,,,,,,,,,,,,,1,0,1,0,1,,,,,,,,,,,,,,,,,,,,,,,,,,,,,,,,,,,,,,
,,,,,,,,,,5fcc03ab80ec79268c02600d,25,Mężczyzna,2022-05-28_09h12.09.486,task,2021.1.4,Win32,59.52380952,628b806c463b948bc644b84f,6291cafe9e5bca219870781c,,,,,,,,,,,,,,,,,,,,,,,,,,,,,,,,,,,,,,,,,,,,,,,,,,,,,,,,,,,,,,,,,,bg,"[""b"",""g""]",0,"[1.9376000000238491,2.1441000000238546,2.8547000000477283]",1,1,0,1,0,1,,,,,,,,,,,,,,,,,,,,,,,,,,,,
,,,,,,,,,,5fcc03ab80ec79268c02600d,25,Mężczyzna,2022-05-28_09h12.09.486,task,2021.1.4,Win32,59.52380952,628b806c463b948bc644b84f,6291cafe9e5bca219870781c,,,,,,,,,,,,,,,,,,,,,,,0,,,,,,,,,,Practice,1,(3x3) -  9,0,,,,,,,,,,,,,,,,"[""0""]",1,[2.853600000023789],1,0,0,0,0,1,,,,,,,,,,,,,,,,,,,,,,,,,,,,,,,,,,,,,,,,,,,
,,,,,,,,,,5fcc03ab80ec79268c02600d,25,Mężczyzna,2022-05-28_09h12.09.486,task,2021.1.4,Win32,59.52380952,628b806c463b948bc644b84f,6291cafe9e5bca219870781c,,,,,,,,,,"X V Q F H G B L J M P D K C T S W R N Z
",,,,,,,,,,,,,,,,,,,,,,,,,,,,,,,,,,,,,,,,,,,,,,,,,,,0,0,0,0,1,,,,,,,,,,,,,,,,,,,,,,,,,,,,,,,,,,,,,,
,,,,,,,,,,5fcc03ab80ec79268c02600d,25,Mężczyzna,2022-05-28_09h12.09.486,task,2021.1.4,Win32,59.52380952,628b806c463b948bc644b84f,6291cafe9e5bca219870781c,,,,,,,,,,,,,,,,,,,,,,,3,,,,,,,,,,Practice,4,(8/4) + 1,3,,,,,,,,,,,,,,,,"[""3""]",1,[3.957200000047692],1,0,0,0,3,1,,,,,,,,,,,,,,,,,,,,,,,,,,,,,,,,,,,,,,,,,,,
,,,,,,,,,,5fcc03ab80ec79268c02600d,25,Mężczyzna,2022-05-28_09h12.09.486,task,2021.1.4,Win32,59.52380952,628b806c463b948bc644b84f,6291cafe9e5bca219870781c,,,,,,,,,,"X V Q F H G B L J M P D K C T S W R N Z
",,,,,,,,,,,,,,,,,,,,,,,,,,,,,,,,,,,,,,,,,,,,,,,,,,,1,0,1,0,1,,,,,,,,,,,,,,,,,,,,,,,,,,,,,,,,,,,,,,
,,,,,,,,,,5fcc03ab80ec79268c02600d,25,Mężczyzna,2022-05-28_09h12.09.486,task,2021.1.4,Win32,59.52380952,628b806c463b948bc644b84f,6291cafe9e5bca219870781c,,,,,,,,,,,,,,,,,,,,,,,,,,,,,,,,,,,,,,,,,,,,,,,,,,,,,,,,,,,,,,,,,,bx,"[""b"",""x""]",0,"[1.5325000000000273,1.9242000000476764,2.2914000000953365]",0,2,0,2,0,1,,,,,,,,,,,,,,,,,,,,,,,,,,,,
,,,,,,,,,,5fcc03ab80ec79268c02600d,25,Mężczyzna,2022-05-28_09h12.09.486,task,2021.1.4,Win32,59.52380952,628b806c463b948bc644b84f,6291cafe9e5bca219870781c,,,,,,,,,,,,,,,,,,,,,,,3,,,,,,,,,,Practice,4,(8/4) + 1,3,,,,,,,,,,,,,,,,"[""3""]",1,[8.697100000023852],1,0,0,0,3,1,,,,,,,,,,,,,,,,,,,,,,,,,,,,,,,,,,,,,,,,,,,
,,,,,,,,,,5fcc03ab80ec79268c02600d,25,Mężczyzna,2022-05-28_09h12.09.486,task,2021.1.4,Win32,59.52380952,628b806c463b948bc644b84f,6291cafe9e5bca219870781c,,,,,,,,,,"X V Q F H G B L J M P D K C T S W R N Z
",,,,,,,,,,,,,,,,,,,,,,,,,,,,,,,,,,,,,,,,,,,,,,,,,,,0,0,0,0,1,,,,,,,,,,,,,,,,,,,,,,,,,,,,,,,,,,,,,,
,,,,,,,,,,5fcc03ab80ec79268c02600d,25,Mężczyzna,2022-05-28_09h12.09.486,task,2021.1.4,Win32,59.52380952,628b806c463b948bc644b84f,6291cafe9e5bca219870781c,,,,,,,,,,,,,,,,,,,,,,,1,,,,,,,,,,Practice,2,(4x4) - 15,1,,,,,,,,,,,,,,,,"[""1""]",1,[1.9826999999283998],1,0,0,0,1,1,,,,,,,,,,,,,,,,,,,,,,,,,,,,,,,,,,,,,,,,,,,
,,,,,,,,,,5fcc03ab80ec79268c02600d,25,Mężczyzna,2022-05-28_09h12.09.486,task,2021.1.4,Win32,59.52380952,628b806c463b948bc644b84f,6291cafe9e5bca219870781c,,,,,,,,,,"X V Q F H G B L J M P D K C T S W R N Z
",,,,,,,,,,,,,,,,,,,,,,,,,,,,,,,,,,,,,,,,,,,,,,,,,,,1,0,1,0,1,,,,,,,,,,,,,,,,,,,,,,,,,,,,,,,,,,,,,,
,,,,,,,,,,5fcc03ab80ec79268c02600d,25,Mężczyzna,2022-05-28_09h12.09.486,task,2021.1.4,Win32,59.52380952,628b806c463b948bc644b84f,6291cafe9e5bca219870781c,,,,,,,,,,,,,,,,,,,,,,,,,,,,,,,,,,,,,,,,,,,,,,,,,,,,,,,,,,,,,,,,,,cx,"[""c"",""x""]",0,"[1.1902000000477528,1.3410000000000082,1.6852000000477574]",1,3,0,3,0,1,,,,,,,,,,,,,,,,,,,,,,,,,,,,
,,,,,,,,,,5fcc03ab80ec79268c02600d,25,Mężczyzna,2022-05-28_09h12.09.486,task,2021.1.4,Win32,59.52380952,628b806c463b948bc644b84f,6291cafe9e5bca219870781c,,,,,,,,,,,,,,,,,,,,,,,4,,,,,,,,,,Practice,6,(4/2) + 3,5,,,,,,,,,,,,,,,,"[""4""]",0,[3.6576000000237627],0,0,0,0,5,1,,,,,,,,,,,,,,,,,,,,,,,,,,,,,,,,,,,,,,,,,,,
,,,,,,,,,,5fcc03ab80ec79268c02600d,25,Mężczyzna,2022-05-28_09h12.09.486,task,2021.1.4,Win32,59.52380952,628b806c463b948bc644b84f,6291cafe9e5bca219870781c,,,,,,,,,,,,,,,,,,,,,,,7,,,,,,,,,,Practice,8,(5x5) - 18,7,,,,,,,,,,,,,,,,"[""7""]",1,[5.952100000023847],1,0,1,1,7,1,,,,,,,,,,,,,,,,,,,,,,,,,,,,,,,,,,,,,,,,,,,
,,,,,,,,,,5fcc03ab80ec79268c02600d,25,Mężczyzna,2022-05-28_09h12.09.486,task,2021.1.4,Win32,59.52380952,628b806c463b948bc644b84f,6291cafe9e5bca219870781c,,,,,,,,,,"X V Q F H G B L J M P D K C T S W R N Z
",,,,,,,,,,,,,,,,,,,,,,,,,,,,,,,,,,,,,,,,,,,,,,,,,,,0,0,0,0,1,,,,,,,,,,,,,,,,,,,,,,,,,,,,,,,,,,,,,,
,,,,,,,,,,5fcc03ab80ec79268c02600d,25,Mężczyzna,2022-05-28_09h12.09.486,task,2021.1.4,Win32,59.52380952,628b806c463b948bc644b84f,6291cafe9e5bca219870781c,,,,,,,,,,,,,,,,,,,,,,,6,,,,,,,,,,Practice,7,(25/5) + 1,6,,,,,,,,,,,,,,,,"[""6""]",1,[3.2174999999999727],1,0,0,0,6,1,,,,,,,,,,,,,,,,,,,,,,,,,,,,,,,,,,,,,,,,,,,
,,,,,,,,,,5fcc03ab80ec79268c02600d,25,Mężczyzna,2022-05-28_09h12.09.486,task,2021.1.4,Win32,59.52380952,628b806c463b948bc644b84f,6291cafe9e5bca219870781c,,,,,,,,,,"X V Q F H G B L J M P D K C T S W R N Z
",,,,,,,,,,,,,,,,,,,,,,,,,,,,,,,,,,,,,,,,,,,,,,,,,,,1,0,1,0,1,,,,,,,,,,,,,,,,,,,,,,,,,,,,,,,,,,,,,,
,,,,,,,,,,5fcc03ab80ec79268c02600d,25,Mężczyzna,2022-05-28_09h12.09.486,task,2021.1.4,Win32,59.52380952,628b806c463b948bc644b84f,6291cafe9e5bca219870781c,,,,,,,,,,,,,,,,,,,,,,,,,,,,,,,,,,,,,,,,,,,,,,,,,,,,,,,,,,,,,,,,,,zj,"[""z"",""j""]",0,"[1.2066999999284462,1.55889999997612,2.0531000000238464]",0,4,0,4,0,1,,,,,,,,,,,,,,,,,,,,,,,,,,,,
,,,,,,,,,,5fcc03ab80ec79268c02600d,25,Mężczyzna,2022-05-28_09h12.09.486,task,2021.1.4,Win32,59.52380952,628b806c463b948bc644b84f,6291cafe9e5bca219870781c,,,,,,,,,,,,,,,,,,,,,,,3,,,,,,,,,,Practice,4,(8/4) + 1,3,,,,,,,,,,,,,,,,"[""3""]",1,[7.63179999995225],1,0,0,0,3,1,,,,,,,,,,,,,,,,,,,,,,,,,,,,,,,,,,,,,,,,,,,
,,,,,,,,,,5fcc03ab80ec79268c02600d,25,Mężczyzna,2022-05-28_09h12.09.486,task,2021.1.4,Win32,59.52380952,628b806c463b948bc644b84f,6291cafe9e5bca219870781c,,,,,,,,,,"X V Q F H G B L J M P D K C T S W R N Z
",,,,,,,,,,,,,,,,,,,,,,,,,,,,,,,,,,,,,,,,,,,,,,,,,,,0,0,0,0,1,,,,,,,,,,,,,,,,,,,,,,,,,,,,,,,,,,,,,,
,,,,,,,,,,5fcc03ab80ec79268c02600d,25,Mężczyzna,2022-05-28_09h12.09.486,task,2021.1.4,Win32,59.52380952,628b806c463b948bc644b84f,6291cafe9e5bca219870781c,,,,,,,,,,,,,,,,,,,,,,,0,,,,,,,,,,Practice,1,(3x3) -  9,0,,,,,,,,,,,,,,,,"[""0""]",1,[2.0511999999284853],1,0,0,0,0,1,,,,,,,,,,,,,,,,,,,,,,,,,,,,,,,,,,,,,,,,,,,
,,,,,,,,,,5fcc03ab80ec79268c02600d,25,Mężczyzna,2022-05-28_09h12.09.486,task,2021.1.4,Win32,59.52380952,628b806c463b948bc644b84f,6291cafe9e5bca219870781c,,,,,,,,,,"X V Q F H G B L J M P D K C T S W R N Z
",,,,,,,,,,,,,,,,,,,,,,,,,,,,,,,,,,,,,,,,,,,,,,,,,,,1,0,1,0,1,,,,,,,,,,,,,,,,,,,,,,,,,,,,,,,,,,,,,,
,,,,,,,,,,5fcc03ab80ec79268c02600d,25,Mężczyzna,2022-05-28_09h12.09.486,task,2021.1.4,Win32,59.52380952,628b806c463b948bc644b84f,6291cafe9e5bca219870781c,,,,,,,,,,,,,,,,,,,,,,,,,,,,,,,,,,,,,,,,,,,,,,,,,,,,,,,,,,,,,,,,,,sz,"[""s"",""z""]",0,"[1.9160000000000537,2.1337999999523163,2.8390000000000555]",0,5,0,5,0,1,,,,,,,,,,,,,,,,,,,,,,,,,,,,
,,,,,,,,,,5fcc03ab80ec79268c02600d,25,Mężczyzna,2022-05-28_09h12.09.486,task,2021.1.4,Win32,59.52380952,628b806c463b948bc644b84f,6291cafe9e5bca219870781c,,,,,,,,,,,,,,,,,,,,,,,1,,,,,,,,,,Practice,2,(4x4) - 15,1,,,,,,,,,,,,,,,,"[""1""]",1,[8.478600000023789],1,0,0,0,1,1,,,,,,,,,,,,,,,,,,,,,,,,,,,,,,,,,,,,,,,,,,,
,,,,,,,,,,5fcc03ab80ec79268c02600d,25,Mężczyzna,2022-05-28_09h12.09.486,task,2021.1.4,Win32,59.52380952,628b806c463b948bc644b84f,6291cafe9e5bca219870781c,,,,,,,,,,"X V Q F H G B L J M P D K C T S W R N Z
",,,,,,,,,,,,,,,,,,,,,,,,,,,,,,,,,,,,,,,,,,,,,,,,,,,0,0,0,0,1,,,,,,,,,,,,,,,,,,,,,,,,,,,,,,,,,,,,,,
,,,,,,,,,,5fcc03ab80ec79268c02600d,25,Mężczyzna,2022-05-28_09h12.09.486,task,2021.1.4,Win32,59.52380952,628b806c463b948bc644b84f,6291cafe9e5bca219870781c,,,,,,,,,,,,,,,,,,,,,,,1,,,,,,,,,,Practice,2,(4x4) - 15,1,,,,,,,,,,,,,,,,"[""1""]",1,[3.9518000000714437],1,0,0,0,1,1,,,,,,,,,,,,,,,,,,,,,,,,,,,,,,,,,,,,,,,,,,,
,,,,,,,,,,5fcc03ab80ec79268c02600d,25,Mężczyzna,2022-05-28_09h12.09.486,task,2021.1.4,Win32,59.52380952,628b806c463b948bc644b84f,6291cafe9e5bca219870781c,,,,,,,,,,"X V Q F H G B L J M P D K C T S W R N Z
",,,,,,,,,,,,,,,,,,,,,,,,,,,,,,,,,,,,,,,,,,,,,,,,,,,1,0,1,0,1,,,,,,,,,,,,,,,,,,,,,,,,,,,,,,,,,,,,,,
,,,,,,,,,,5fcc03ab80ec79268c02600d,25,Mężczyzna,2022-05-28_09h12.09.486,task,2021.1.4,Win32,59.52380952,628b806c463b948bc644b84f,6291cafe9e5bca219870781c,,,,,,,,,,,,,,,,,,,,,,,,,,,,,,,,,,,,,,,,,,,,,,,,,,,,,,,,,,,,,,,,,,tz,"[""t"",""z""]",0,"[2.3922999999523427,2.7213999999761427,3.1107999999522917]",0,6,0,6,0,1,,,,,,,,,,,,,,,,,,,,,,,,,,,,
,,,,,,,,,,5fcc03ab80ec79268c02600d,25,Mężczyzna,2022-05-28_09h12.09.486,task,2021.1.4,Win32,59.52380952,628b806c463b948bc644b84f,6291cafe9e5bca219870781c,,,,,,,,,,,,,,,,,,,,,,,8,,,,,,,,,,Practice,9,(3x3) - 1,8,,,,,,,,,,,,,,,,"[""8""]",1,[5.7084000000953665],1,0,0,0,8,1,,,,,,,,,,,,,,,,,,,,,,,,,,,,,,,,,,,,,,,,,,,
,,,,,,,,,,5fcc03ab80ec79268c02600d,25,Mężczyzna,2022-05-28_09h12.09.486,task,2021.1.4,Win32,59.52380952,628b806c463b948bc644b84f,6291cafe9e5bca219870781c,,,,,,,,,,"X V Q F H G B L J M P D K C T S W R N Z
",,,,,,,,,,,,,,,,,,,,,,,,,,,,,,,,,,,,,,,,,,,,,,,,,,,0,0,0,0,1,,,,,,,,,,,,,,,,,,,,,,,,,,,,,,,,,,,,,,
,,,,,,,,,,5fcc03ab80ec79268c02600d,25,Mężczyzna,2022-05-28_09h12.09.486,task,2021.1.4,Win32,59.52380952,628b806c463b948bc644b84f,6291cafe9e5bca219870781c,,,,,,,,,,,,,,,,,,,,,,,3,,,,,,,,,,Practice,4,(8/4) + 1,3,,,,,,,,,,,,,,,,"[""3""]",1,[7.731399999976134],1,0,0,0,3,1,,,,,,,,,,,,,,,,,,,,,,,,,,,,,,,,,,,,,,,,,,,
,,,,,,,,,,5fcc03ab80ec79268c02600d,25,Mężczyzna,2022-05-28_09h12.09.486,task,2021.1.4,Win32,59.52380952,628b806c463b948bc644b84f,6291cafe9e5bca219870781c,,,,,,,,,,"X V Q F H G B L J M P D K C T S W R N Z
",,,,,,,,,,,,,,,,,,,,,,,,,,,,,,,,,,,,,,,,,,,,,,,,,,,1,0,1,0,1,,,,,,,,,,,,,,,,,,,,,,,,,,,,,,,,,,,,,,
,,,,,,,,,,5fcc03ab80ec79268c02600d,25,Mężczyzna,2022-05-28_09h12.09.486,task,2021.1.4,Win32,59.52380952,628b806c463b948bc644b84f,6291cafe9e5bca219870781c,,,,,,,,,,,,,,,,,,,,,,,,,,,,,,,,,,,,,,,,,,,,,,,,,,,,,,,,,,,,,,,,,,bc,"[""b"",""c""]",0,"[1.9149999999999636,2.138500000000022,2.498499999999922]",1,7,0,7,0,1,,,,,,,,,,,,,,,,,,,,,,,,,,,,
,,,,,,,,,,5fcc03ab80ec79268c02600d,25,Mężczyzna,2022-05-28_09h12.09.486,task,2021.1.4,Win32,59.52380952,628b806c463b948bc644b84f,6291cafe9e5bca219870781c,,,,,,,,,,,,,,,,,,,,,,,2,,,,,,,,,,Practice,3,(4x4) - 14,2,,,,,,,,,,,,,,,,"[""2""]",1,[2.2416999999284144],1,0,0,0,2,1,,,,,,,,,,,,,,,,,,,,,,,,,,,,,,,,,,,,,,,,,,,
,,,,,,,,,,5fcc03ab80ec79268c02600d,25,Mężczyzna,2022-05-28_09h12.09.486,task,2021.1.4,Win32,59.52380952,628b806c463b948bc644b84f,6291cafe9e5bca219870781c,,,,,,,,,,"X V Q F H G B L J M P D K C T S W R N Z
",,,,,,,,,,,,,,,,,,,,,,,,,,,,,,,,,,,,,,,,,,,,,,,,,,,0,0,0,0,1,,,,,,,,,,,,,,,,,,,,,,,,,,,,,,,,,,,,,,
,,,,,,,,,,5fcc03ab80ec79268c02600d,25,Mężczyzna,2022-05-28_09h12.09.486,task,2021.1.4,Win32,59.52380952,628b806c463b948bc644b84f,6291cafe9e5bca219870781c,,,,,,,,,,,,,,,,,,,,,,,6,,,,,,,,,,Practice,7,(25/5) + 1,6,,,,,,,,,,,,,,,,"[""6""]",1,[3.5751000000238946],1,0,0,0,6,1,,,,,,,,,,,,,,,,,,,,,,,,,,,,,,,,,,,,,,,,,,,
,,,,,,,,,,5fcc03ab80ec79268c02600d,25,Mężczyzna,2022-05-28_09h12.09.486,task,2021.1.4,Win32,59.52380952,628b806c463b948bc644b84f,6291cafe9e5bca219870781c,,,,,,,,,,"X V Q F H G B L J M P D K C T S W R N Z
",,,,,,,,,,,,,,,,,,,,,,,,,,,,,,,,,,,,,,,,,,,,,,,,,,,1,0,1,0,1,,,,,,,,,,,,,,,,,,,,,,,,,,,,,,,,,,,,,,
,,,,,,,,,,5fcc03ab80ec79268c02600d,25,Mężczyzna,2022-05-28_09h12.09.486,task,2021.1.4,Win32,59.52380952,628b806c463b948bc644b84f,6291cafe9e5bca219870781c,,,,,,,,,,,,,,,,,,,,,,,,,,,,,,,,,,,,,,,,,,,,,,,,,,,,,,,,,,,,,,,,,,vl,"[""v"",""l""]",0,"[1.83689999997614,2.172600000023749,2.776499999999942]",1,8,0,8,0,1,,,,,,,,,,,,,,,,,,,,,,,,,,,,
,,,,,,,,,,5fcc03ab80ec79268c02600d,25,Mężczyzna,2022-05-28_09h12.09.486,task,2021.1.4,Win32,59.52380952,628b806c463b948bc644b84f,6291cafe9e5bca219870781c,,,,,,,,,,,,,,,,,,,,,,,5,,,,,,,,,,Practice,6,(4/2) + 3,5,,,,,,,,,,,,,,,,"[""5""]",1,[9.014899999976137],1,0,0,0,5,1,,,,,,,,,,,,,,,,,,,,,,,,,,,,,,,,,,,,,,,,,,,
,,,,,,,,,,5fcc03ab80ec79268c02600d,25,Mężczyzna,2022-05-28_09h12.09.486,task,2021.1.4,Win32,59.52380952,628b806c463b948bc644b84f,6291cafe9e5bca219870781c,,,,,,,,,,"X V Q F H G B L J M P D K C T S W R N Z
",,,,,,,,,,,,,,,,,,,,,,,,,,,,,,,,,,,,,,,,,,,,,,,,,,,0,0,0,0,1,,,,,,,,,,,,,,,,,,,,,,,,,,,,,,,,,,,,,,
,,,,,,,,,,5fcc03ab80ec79268c02600d,25,Mężczyzna,2022-05-28_09h12.09.486,task,2021.1.4,Win32,59.52380952,628b806c463b948bc644b84f,6291cafe9e5bca219870781c,,,,,,,,,,,,,,,,,,,,,,,9,,,,,,,,,,Practice,10,(20/2) - 1,9,,,,,,,,,,,,,,,,"[""9""]",1,[5.177499999999895],1,0,0,0,9,1,,,,,,,,,,,,,,,,,,,,,,,,,,,,,,,,,,,,,,,,,,,
,,,,,,,,,,5fcc03ab80ec79268c02600d,25,Mężczyzna,2022-05-28_09h12.09.486,task,2021.1.4,Win32,59.52380952,628b806c463b948bc644b84f,6291cafe9e5bca219870781c,,,,,,,,,,"X V Q F H G B L J M P D K C T S W R N Z
",,,,,,,,,,,,,,,,,,,,,,,,,,,,,,,,,,,,,,,,,,,,,,,,,,,1,0,1,0,1,,,,,,,,,,,,,,,,,,,,,,,,,,,,,,,,,,,,,,
,,,,,,,,,,5fcc03ab80ec79268c02600d,25,Mężczyzna,2022-05-28_09h12.09.486,task,2021.1.4,Win32,59.52380952,628b806c463b948bc644b84f,6291cafe9e5bca219870781c,,,,,,,,,,,,,,,,,,,,,,,,,,,,,,,,,,,,,,,,,,,,,,,,,,,,,,,,,,,,,,,,,,jl,"[""j"",""l""]",0,"[1.6297000000477055,1.8936000000238664,2.2687000000477155]",1,9,0,9,0,1,,,,,,,,,,,,,,,,,,,,,,,,,,,,
,,,,,,,,,,5fcc03ab80ec79268c02600d,25,Mężczyzna,2022-05-28_09h12.09.486,task,2021.1.4,Win32,59.52380952,628b806c463b948bc644b84f,6291cafe9e5bca219870781c,,,,,,,,,,,,,,,,,,,,,,,4,,,,,,,,,,Task,11,(18/3) - 2,4,,,,,,,,,,,,,,,,,,,1,,,,,,,,,,,,,,,,,,,,,space,13.1302,"[""4""]",1,[6.474400000095329],0,0,0,10,1,,,,,,,,,,,,,,,,,,
,,,,,,,,,,5fcc03ab80ec79268c02600d,25,Mężczyzna,2022-05-28_09h12.09.486,task,2021.1.4,Win32,59.52380952,628b806c463b948bc644b84f,6291cafe9e5bca219870781c,,,,,,,,,,"X V Q F H G B L J M P D K C T S W R N Z
",,,,,,,,,,,,,,,,,,,,,,,,,,,,,,,,,,,,,,,,,,,,,,,,,,,,,,,,,,,,,,,,,,,,,,,,,,,,0,0,0,0,1,,,,,,,,,,,,,
,,,,,,,,,,5fcc03ab80ec79268c02600d,25,Mężczyzna,2022-05-28_09h12.09.486,task,2021.1.4,Win32,59.52380952,628b806c463b948bc644b84f,6291cafe9e5bca219870781c,,,,,,,,,,,,,,,,,,,,,,,5,,,,,,,,,,Task,36,(8/4) + 3,5,,,,,,,,,,,,,,,,,,,1,,,,,,,,,,,,,,,,,,,,,,,"[""5""]",1,[3.0007999999523918],0,0,0,35,1,,,,,,,,,,,,,,,,,,
,,,,,,,,,,5fcc03ab80ec79268c02600d,25,Mężczyzna,2022-05-28_09h12.09.486,task,2021.1.4,Win32,59.52380952,628b806c463b948bc644b84f,6291cafe9e5bca219870781c,,,,,,,,,,"X V Q F H G B L J M P D K C T S W R N Z
",,,,,,,,,,,,,,,,,,,,,,,,,,,,,,,,,,,,,,,,,,,,,,,,,,,,,,,,,,,,,,,,,,,,,,,,,,,,1,0,1,0,1,,,,,,,,,,,,,
,,,,,,,,,,5fcc03ab80ec79268c02600d,25,Mężczyzna,2022-05-28_09h12.09.486,task,2021.1.4,Win32,59.52380952,628b806c463b948bc644b84f,6291cafe9e5bca219870781c,,,,,,,,,,,,,,,,,,,,,,,,,,,,,,,,,,,,,,,,,,,,,,,,,,,,,,,,,,,,,,,,,,,,,,,,,,,,,,,,,,,,,,,,,,,zt,"[""z"",""t""]",0,"[1.8136999999285308,2.110500000000002,2.7571999999285026]",1,ZT,0,0,0,0,1,,
,,,,,,,,,,5fcc03ab80ec79268c02600d,25,Mężczyzna,2022-05-28_09h12.09.486,task,2021.1.4,Win32,59.52380952,628b806c463b948bc644b84f,6291cafe9e5bca219870781c,,,,,,,,,,,,,,,,,,,,,,,0,,,,,,,,,,Task,8,(1x5) - 5,0,,,,,,,,,,,,,,,,,,,1,,,,,,,,,,,,,,,,,,,,,,,"[""0""]",1,[3.0412000000476382],0,0,0,7,1,,,,,,,,,,,,,,,,,,
,,,,,,,,,,5fcc03ab80ec79268c02600d,25,Mężczyzna,2022-05-28_09h12.09.486,task,2021.1.4,Win32,59.52380952,628b806c463b948bc644b84f,6291cafe9e5bca219870781c,,,,,,,,,,"X V Q F H G B L J M P D K C T S W R N Z
",,,,,,,,,,,,,,,,,,,,,,,,,,,,,,,,,,,,,,,,,,,,,,,,,,,,,,,,,,,,,,,,,,,,,,,,,,,,0,0,0,0,1,,,,,,,,,,,,,
,,,,,,,,,,5fcc03ab80ec79268c02600d,25,Mężczyzna,2022-05-28_09h12.09.486,task,2021.1.4,Win32,59.52380952,628b806c463b948bc644b84f,6291cafe9e5bca219870781c,,,,,,,,,,,,,,,,,,,,,,,2,,,,,,,,,,Task,2,(2x2) - 2,2,,,,,,,,,,,,,,,,,,,1,,,,,,,,,,,,,,,,,,,,,,,"[""2""]",1,[3.50330000007159],0,0,0,1,1,,,,,,,,,,,,,,,,,,
,,,,,,,,,,5fcc03ab80ec79268c02600d,25,Mężczyzna,2022-05-28_09h12.09.486,task,2021.1.4,Win32,59.52380952,628b806c463b948bc644b84f,6291cafe9e5bca219870781c,,,,,,,,,,"X V Q F H G B L J M P D K C T S W R N Z
",,,,,,,,,,,,,,,,,,,,,,,,,,,,,,,,,,,,,,,,,,,,,,,,,,,,,,,,,,,,,,,,,,,,,,,,,,,,1,0,1,0,1,,,,,,,,,,,,,
,,,,,,,,,,5fcc03ab80ec79268c02600d,25,Mężczyzna,2022-05-28_09h12.09.486,task,2021.1.4,Win32,59.52380952,628b806c463b948bc644b84f,6291cafe9e5bca219870781c,,,,,,,,,,,,,,,,,,,,,,,2,,,,,,,,,,Task,2,(2x2) - 2,2,,,,,,,,,,,,,,,,,,,1,,,,,,,,,,,,,,,,,,,,,,,"[""2""]",1,[3.4533999999762273],0,0,0,1,1,,,,,,,,,,,,,,,,,,
,,,,,,,,,,5fcc03ab80ec79268c02600d,25,Mężczyzna,2022-05-28_09h12.09.486,task,2021.1.4,Win32,59.52380952,628b806c463b948bc644b84f,6291cafe9e5bca219870781c,,,,,,,,,,"X V Q F H G B L J M P D K C T S W R N Z
",,,,,,,,,,,,,,,,,,,,,,,,,,,,,,,,,,,,,,,,,,,,,,,,,,,,,,,,,,,,,,,,,,,,,,,,,,,,2,0,2,0,1,,,,,,,,,,,,,
,,,,,,,,,,5fcc03ab80ec79268c02600d,25,Mężczyzna,2022-05-28_09h12.09.486,task,2021.1.4,Win32,59.52380952,628b806c463b948bc644b84f,6291cafe9e5bca219870781c,,,,,,,,,,,,,,,,,,,,,,,,,,,,,,,,,,,,,,,,,,,,,,,,,,,,,,,,,,,,,,,,,,,,,,,,,,,,,,,,,,,,,,,,,,,rcq,"[""r"",""c"",""q""]",0,"[1.6779999999999973,1.9563999999761563,2.399000000000001,3.286299999952348]",1,RCQ,1,0,1,0,1,,
,,,,,,,,,,5fcc03ab80ec79268c02600d,25,Mężczyzna,2022-05-28_09h12.09.486,task,2021.1.4,Win32,59.52380952,628b806c463b948bc644b84f,6291cafe9e5bca219870781c,,,,,,,,,,,,,,,,,,,,,,,0,,,,,,,,,,Task,8,(1x5) - 5,0,,,,,,,,,,,,,,,,,,,1,,,,,,,,,,,,,,,,,,,,,,,"[""0""]",1,[2.106600000023832],0,0,0,7,1,,,,,,,,,,,,,,,,,,
,,,,,,,,,,5fcc03ab80ec79268c02600d,25,Mężczyzna,2022-05-28_09h12.09.486,task,2021.1.4,Win32,59.52380952,628b806c463b948bc644b84f,6291cafe9e5bca219870781c,,,,,,,,,,"X V Q F H G B L J M P D K C T S W R N Z
",,,,,,,,,,,,,,,,,,,,,,,,,,,,,,,,,,,,,,,,,,,,,,,,,,,,,,,,,,,,,,,,,,,,,,,,,,,,0,0,0,0,1,,,,,,,,,,,,,
,,,,,,,,,,5fcc03ab80ec79268c02600d,25,Mężczyzna,2022-05-28_09h12.09.486,task,2021.1.4,Win32,59.52380952,628b806c463b948bc644b84f,6291cafe9e5bca219870781c,,,,,,,,,,,,,,,,,,,,,,,9,,,,,,,,,,Task,7,(3x7) - 12,9,,,,,,,,,,,,,,,,,,,1,,,,,,,,,,,,,,,,,,,,,,,"[""9""]",1,[7.3582000000476455],0,0,0,6,1,,,,,,,,,,,,,,,,,,
,,,,,,,,,,5fcc03ab80ec79268c02600d,25,Mężczyzna,2022-05-28_09h12.09.486,task,2021.1.4,Win32,59.52380952,628b806c463b948bc644b84f,6291cafe9e5bca219870781c,,,,,,,,,,"X V Q F H G B L J M P D K C T S W R N Z
",,,,,,,,,,,,,,,,,,,,,,,,,,,,,,,,,,,,,,,,,,,,,,,,,,,,,,,,,,,,,,,,,,,,,,,,,,,,1,0,1,0,1,,,,,,,,,,,,,
,,,,,,,,,,5fcc03ab80ec79268c02600d,25,Mężczyzna,2022-05-28_09h12.09.486,task,2021.1.4,Win32,59.52380952,628b806c463b948bc644b84f,6291cafe9e5bca219870781c,,,,,,,,,,,,,,,,,,,,,,,7,,,,,,,,,,Task,31,(4/2) + 5,7,,,,,,,,,,,,,,,,,,,1,,,,,,,,,,,,,,,,,,,,,,,"[""7""]",1,[8.233899999976188],0,0,0,30,1,,,,,,,,,,,,,,,,,,
,,,,,,,,,,5fcc03ab80ec79268c02600d,25,Mężczyzna,2022-05-28_09h12.09.486,task,2021.1.4,Win32,59.52380952,628b806c463b948bc644b84f,6291cafe9e5bca219870781c,,,,,,,,,,"X V Q F H G B L J M P D K C T S W R N Z
",,,,,,,,,,,,,,,,,,,,,,,,,,,,,,,,,,,,,,,,,,,,,,,,,,,,,,,,,,,,,,,,,,,,,,,,,,,,2,0,2,0,1,,,,,,,,,,,,,
,,,,,,,,,,5fcc03ab80ec79268c02600d,25,Mężczyzna,2022-05-28_09h12.09.486,task,2021.1.4,Win32,59.52380952,628b806c463b948bc644b84f,6291cafe9e5bca219870781c,,,,,,,,,,,,,,,,,,,,,,,8,,,,,,,,,,Task,15,(3x7) - 13,8,,,,,,,,,,,,,,,,,,,1,,,,,,,,,,,,,,,,,,,,,,,"[""8""]",1,[6.987600000023804],0,0,0,14,1,,,,,,,,,,,,,,,,,,
,,,,,,,,,,5fcc03ab80ec79268c02600d,25,Mężczyzna,2022-05-28_09h12.09.486,task,2021.1.4,Win32,59.52380952,628b806c463b948bc644b84f,6291cafe9e5bca219870781c,,,,,,,,,,"X V Q F H G B L J M P D K C T S W R N Z
",,,,,,,,,,,,,,,,,,,,,,,,,,,,,,,,,,,,,,,,,,,,,,,,,,,,,,,,,,,,,,,,,,,,,,,,,,,,3,0,3,0,1,,,,,,,,,,,,,
,,,,,,,,,,5fcc03ab80ec79268c02600d,25,Mężczyzna,2022-05-28_09h12.09.486,task,2021.1.4,Win32,59.52380952,628b806c463b948bc644b84f,6291cafe9e5bca219870781c,,,,,,,,,,,,,,,,,,,,,,,,,,,,,,,,,,,,,,,,,,,,,,,,,,,,,,,,,,,,,,,,,,,,,,,,,,,,,,,,,,,,,,,,,,,svjw,"[""s"",""v"",""j"",""w""]",0,"[1.837299999952279,2.1548999999761236,2.4760999999045907,3.022199999928489,4.379000000000019]",1,SVJW,2,0,2,0,1,,
,,,,,,,,,,5fcc03ab80ec79268c02600d,25,Mężczyzna,2022-05-28_09h12.09.486,task,2021.1.4,Win32,59.52380952,628b806c463b948bc644b84f,6291cafe9e5bca219870781c,,,,,,,,,,,,,,,,,,,,,,,5,,,,,,,,,,Task,36,(8/4) + 3,5,,,,,,,,,,,,,,,,,,,1,,,,,,,,,,,,,,,,,,,,,,,"[""5""]",1,[3.5636000000238255],0,0,0,35,1,,,,,,,,,,,,,,,,,,
,,,,,,,,,,5fcc03ab80ec79268c02600d,25,Mężczyzna,2022-05-28_09h12.09.486,task,2021.1.4,Win32,59.52380952,628b806c463b948bc644b84f,6291cafe9e5bca219870781c,,,,,,,,,,"X V Q F H G B L J M P D K C T S W R N Z
",,,,,,,,,,,,,,,,,,,,,,,,,,,,,,,,,,,,,,,,,,,,,,,,,,,,,,,,,,,,,,,,,,,,,,,,,,,,0,0,0,0,1,,,,,,,,,,,,,
,,,,,,,,,,5fcc03ab80ec79268c02600d,25,Mężczyzna,2022-05-28_09h12.09.486,task,2021.1.4,Win32,59.52380952,628b806c463b948bc644b84f,6291cafe9e5bca219870781c,,,,,,,,,,,,,,,,,,,,,,,2,,,,,,,,,,Task,26,(2x9) - 16,2,,,,,,,,,,,,,,,,,,,1,,,,,,,,,,,,,,,,,,,,,,,"[""2""]",1,[4.309800000071505],0,0,0,25,1,,,,,,,,,,,,,,,,,,
,,,,,,,,,,5fcc03ab80ec79268c02600d,25,Mężczyzna,2022-05-28_09h12.09.486,task,2021.1.4,Win32,59.52380952,628b806c463b948bc644b84f,6291cafe9e5bca219870781c,,,,,,,,,,"X V Q F H G B L J M P D K C T S W R N Z
",,,,,,,,,,,,,,,,,,,,,,,,,,,,,,,,,,,,,,,,,,,,,,,,,,,,,,,,,,,,,,,,,,,,,,,,,,,,1,0,1,0,1,,,,,,,,,,,,,
,,,,,,,,,,5fcc03ab80ec79268c02600d,25,Mężczyzna,2022-05-28_09h12.09.486,task,2021.1.4,Win32,59.52380952,628b806c463b948bc644b84f,6291cafe9e5bca219870781c,,,,,,,,,,,,,,,,,,,,,,,3,,,,,,,,,,Task,27,(3/3) + 2,3,,,,,,,,,,,,,,,,,,,1,,,,,,,,,,,,,,,,,,,,,,,"[""3""]",1,[9.222399999976119],0,0,0,26,1,,,,,,,,,,,,,,,,,,
,,,,,,,,,,5fcc03ab80ec79268c02600d,25,Mężczyzna,2022-05-28_09h12.09.486,task,2021.1.4,Win32,59.52380952,628b806c463b948bc644b84f,6291cafe9e5bca219870781c,,,,,,,,,,"X V Q F H G B L J M P D K C T S W R N Z
",,,,,,,,,,,,,,,,,,,,,,,,,,,,,,,,,,,,,,,,,,,,,,,,,,,,,,,,,,,,,,,,,,,,,,,,,,,,2,0,2,0,1,,,,,,,,,,,,,
,,,,,,,,,,5fcc03ab80ec79268c02600d,25,Mężczyzna,2022-05-28_09h12.09.486,task,2021.1.4,Win32,59.52380952,628b806c463b948bc644b84f,6291cafe9e5bca219870781c,,,,,,,,,,,,,,,,,,,,,,,2,,,,,,,,,,Task,10,(2x5) - 8,2,,,,,,,,,,,,,,,,,,,1,,,,,,,,,,,,,,,,,,,,,,,"[""2""]",1,[1.9838999999761882],0,0,0,9,1,,,,,,,,,,,,,,,,,,
,,,,,,,,,,5fcc03ab80ec79268c02600d,25,Mężczyzna,2022-05-28_09h12.09.486,task,2021.1.4,Win32,59.52380952,628b806c463b948bc644b84f,6291cafe9e5bca219870781c,,,,,,,,,,"X V Q F H G B L J M P D K C T S W R N Z
",,,,,,,,,,,,,,,,,,,,,,,,,,,,,,,,,,,,,,,,,,,,,,,,,,,,,,,,,,,,,,,,,,,,,,,,,,,,3,0,3,0,1,,,,,,,,,,,,,
,,,,,,,,,,5fcc03ab80ec79268c02600d,25,Mężczyzna,2022-05-28_09h12.09.486,task,2021.1.4,Win32,59.52380952,628b806c463b948bc644b84f,6291cafe9e5bca219870781c,,,,,,,,,,,,,,,,,,,,,,,7,,,,,,,,,,Task,6,(12/2) + 1,7,,,,,,,,,,,,,,,,,,,1,,,,,,,,,,,,,,,,,,,,,,,"[""7""]",1,[5.406999999999925],0,0,0,5,1,,,,,,,,,,,,,,,,,,
,,,,,,,,,,5fcc03ab80ec79268c02600d,25,Mężczyzna,2022-05-28_09h12.09.486,task,2021.1.4,Win32,59.52380952,628b806c463b948bc644b84f,6291cafe9e5bca219870781c,,,,,,,,,,"X V Q F H G B L J M P D K C T S W R N Z
",,,,,,,,,,,,,,,,,,,,,,,,,,,,,,,,,,,,,,,,,,,,,,,,,,,,,,,,,,,,,,,,,,,,,,,,,,,,4,0,4,0,1,,,,,,,,,,,,,
,,,,,,,,,,5fcc03ab80ec79268c02600d,25,Mężczyzna,2022-05-28_09h12.09.486,task,2021.1.4,Win32,59.52380952,628b806c463b948bc644b84f,6291cafe9e5bca219870781c,,,,,,,,,,,,,,,,,,,,,,,,,,,,,,,,,,,,,,,,,,,,,,,,,,,,,,,,,,,,,,,,,,,,,,,,,,,,,,,,,,,,,,,,,,,mwgsl,"[""m"",""w"",""g"",""s"",""l""]",0,"[1.4384999999999764,1.6202000000477028,1.9042000000476946,2.1603000000715156,2.472100000023829,3.751800000071512]",1,MWGSL,3,0,3,0,1,,
,,,,,,,,,,5fcc03ab80ec79268c02600d,25,Mężczyzna,2022-05-28_09h12.09.486,task,2021.1.4,Win32,59.52380952,628b806c463b948bc644b84f,6291cafe9e5bca219870781c,,,,,,,,,,,,,,,,,,,,,,,0,,,,,,,,,,Task,33,(1/1) - 1,0,,,,,,,,,,,,,,,,,,,1,,,,,,,,,,,,,,,,,,,,,,,"[""0""]",1,[3.46969999992848],0,0,0,32,1,,,,,,,,,,,,,,,,,,
,,,,,,,,,,5fcc03ab80ec79268c02600d,25,Mężczyzna,2022-05-28_09h12.09.486,task,2021.1.4,Win32,59.52380952,628b806c463b948bc644b84f,6291cafe9e5bca219870781c,,,,,,,,,,"X V Q F H G B L J M P D K C T S W R N Z
",,,,,,,,,,,,,,,,,,,,,,,,,,,,,,,,,,,,,,,,,,,,,,,,,,,,,,,,,,,,,,,,,,,,,,,,,,,,0,0,0,0,1,,,,,,,,,,,,,
,,,,,,,,,,5fcc03ab80ec79268c02600d,25,Mężczyzna,2022-05-28_09h12.09.486,task,2021.1.4,Win32,59.52380952,628b806c463b948bc644b84f,6291cafe9e5bca219870781c,,,,,,,,,,,,,,,,,,,,,,,6,,,,,,,,,,Task,13,(3x4) - 6,6,,,,,,,,,,,,,,,,,,,1,,,,,,,,,,,,,,,,,,,,,,,"[""6""]",1,[3.0682999999522735],0,0,0,12,1,,,,,,,,,,,,,,,,,,
,,,,,,,,,,5fcc03ab80ec79268c02600d,25,Mężczyzna,2022-05-28_09h12.09.486,task,2021.1.4,Win32,59.52380952,628b806c463b948bc644b84f,6291cafe9e5bca219870781c,,,,,,,,,,"X V Q F H G B L J M P D K C T S W R N Z
",,,,,,,,,,,,,,,,,,,,,,,,,,,,,,,,,,,,,,,,,,,,,,,,,,,,,,,,,,,,,,,,,,,,,,,,,,,,1,0,1,0,1,,,,,,,,,,,,,
,,,,,,,,,,5fcc03ab80ec79268c02600d,25,Mężczyzna,2022-05-28_09h12.09.486,task,2021.1.4,Win32,59.52380952,628b806c463b948bc644b84f,6291cafe9e5bca219870781c,,,,,,,,,,,,,,,,,,,,,,,4,,,,,,,,,,Task,21,(10/2) - 1,4,,,,,,,,,,,,,,,,,,,1,,,,,,,,,,,,,,,,,,,,,,,"[""4""]",1,[4.7606000000237145],0,0,0,20,1,,,,,,,,,,,,,,,,,,
,,,,,,,,,,5fcc03ab80ec79268c02600d,25,Mężczyzna,2022-05-28_09h12.09.486,task,2021.1.4,Win32,59.52380952,628b806c463b948bc644b84f,6291cafe9e5bca219870781c,,,,,,,,,,"X V Q F H G B L J M P D K C T S W R N Z
",,,,,,,,,,,,,,,,,,,,,,,,,,,,,,,,,,,,,,,,,,,,,,,,,,,,,,,,,,,,,,,,,,,,,,,,,,,,2,0,2,0,1,,,,,,,,,,,,,
,,,,,,,,,,5fcc03ab80ec79268c02600d,25,Mężczyzna,2022-05-28_09h12.09.486,task,2021.1.4,Win32,59.52380952,628b806c463b948bc644b84f,6291cafe9e5bca219870781c,,,,,,,,,,,,,,,,,,,,,,,4,,,,,,,,,,Task,28,(2x5) - 6,4,,,,,,,,,,,,,,,,,,,1,,,,,,,,,,,,,,,,,,,,,,,"[""4""]",1,[2.878500000000031],0,0,0,27,1,,,,,,,,,,,,,,,,,,
,,,,,,,,,,5fcc03ab80ec79268c02600d,25,Mężczyzna,2022-05-28_09h12.09.486,task,2021.1.4,Win32,59.52380952,628b806c463b948bc644b84f,6291cafe9e5bca219870781c,,,,,,,,,,"X V Q F H G B L J M P D K C T S W R N Z
",,,,,,,,,,,,,,,,,,,,,,,,,,,,,,,,,,,,,,,,,,,,,,,,,,,,,,,,,,,,,,,,,,,,,,,,,,,,3,0,3,0,1,,,,,,,,,,,,,
,,,,,,,,,,5fcc03ab80ec79268c02600d,25,Mężczyzna,2022-05-28_09h12.09.486,task,2021.1.4,Win32,59.52380952,628b806c463b948bc644b84f,6291cafe9e5bca219870781c,,,,,,,,,,,,,,,,,,,,,,,4,,,,,,,,,,Task,28,(2x5) - 6,4,,,,,,,,,,,,,,,,,,,1,,,,,,,,,,,,,,,,,,,,,,,"[""4""]",1,[3.8565000000000964],0,0,0,27,1,,,,,,,,,,,,,,,,,,
,,,,,,,,,,5fcc03ab80ec79268c02600d,25,Mężczyzna,2022-05-28_09h12.09.486,task,2021.1.4,Win32,59.52380952,628b806c463b948bc644b84f,6291cafe9e5bca219870781c,,,,,,,,,,"X V Q F H G B L J M P D K C T S W R N Z
",,,,,,,,,,,,,,,,,,,,,,,,,,,,,,,,,,,,,,,,,,,,,,,,,,,,,,,,,,,,,,,,,,,,,,,,,,,,4,0,4,0,1,,,,,,,,,,,,,
,,,,,,,,,,5fcc03ab80ec79268c02600d,25,Mężczyzna,2022-05-28_09h12.09.486,task,2021.1.4,Win32,59.52380952,628b806c463b948bc644b84f,6291cafe9e5bca219870781c,,,,,,,,,,,,,,,,,,,,,,,,,,,,,,,,,Task,14,(2x2) + 3,7,,,,,,,,,,,,,,,,,,,0,,,,,,,,,,,,,,,,,,,,,,,,0,,0,0,0,13,1,,,,,,,,,,,,,,,,,,
,,,,,,,,,,5fcc03ab80ec79268c02600d,25,Mężczyzna,2022-05-28_09h12.09.486,task,2021.1.4,Win32,59.52380952,628b806c463b948bc644b84f,6291cafe9e5bca219870781c,,,,,,,,,,,,,,,,,,,,,,,8,,,,,,,,,,Task,32,(8/2) + 4,8,,,,,,,,,,,,,,,,,,,1,,,,,,,,,,,,,,,,,,,,,,,"[""8""]",1,[5.687100000023975],0,1,1,31,1,,,,,,,,,,,,,,,,,,
,,,,,,,,,,5fcc03ab80ec79268c02600d,25,Mężczyzna,2022-05-28_09h12.09.486,task,2021.1.4,Win32,59.52380952,628b806c463b948bc644b84f,6291cafe9e5bca219870781c,,,,,,,,,,"X V Q F H G B L J M P D K C T S W R N Z
",,,,,,,,,,,,,,,,,,,,,,,,,,,,,,,,,,,,,,,,,,,,,,,,,,,,,,,,,,,,,,,,,,,,,,,,,,,,5,0,5,0,1,,,,,,,,,,,,,
,,,,,,,,,,5fcc03ab80ec79268c02600d,25,Mężczyzna,2022-05-28_09h12.09.486,task,2021.1.4,Win32,59.52380952,628b806c463b948bc644b84f,6291cafe9e5bca219870781c,,,,,,,,,,,,,,,,,,,,,,,,,,,,,,,,,,,,,,,,,,,,,,,,,,,,,,,,,,,,,,,,,,,,,,,,,,,,,,,,,,,,,,,,,,,knjhrm,"[""k"",""n"",""j"",""h"",""r"",""m""]",0,"[1.560299999952349,1.8336999999285126,2.0962999999524072,2.440299999952458,3.2086999999285126,3.440299999952458,4.039299999952391]",0,KNJRHM,4,0,4,0,1,,
,,,,,,,,,,5fcc03ab80ec79268c02600d,25,Mężczyzna,2022-05-28_09h12.09.486,task,2021.1.4,Win32,59.52380952,628b806c463b948bc644b84f,6291cafe9e5bca219870781c,,,,,,,,,,,,,,,,,,,,,,,6,,,,,,,,,,Task,37,(3/3) + 5,6,,,,,,,,,,,,,,,,,,,1,,,,,,,,,,,,,,,,,,,,,,,"[""6""]",1,[2.336100000023862],0,0,0,36,1,,,,,,,,,,,,,,,,,,
,,,,,,,,,,5fcc03ab80ec79268c02600d,25,Mężczyzna,2022-05-28_09h12.09.486,task,2021.1.4,Win32,59.52380952,628b806c463b948bc644b84f,6291cafe9e5bca219870781c,,,,,,,,,,"X V Q F H G B L J M P D K C T S W R N Z
",,,,,,,,,,,,,,,,,,,,,,,,,,,,,,,,,,,,,,,,,,,,,,,,,,,,,,,,,,,,,,,,,,,,,,,,,,,,0,0,0,0,1,,,,,,,,,,,,,
,,,,,,,,,,5fcc03ab80ec79268c02600d,25,Mężczyzna,2022-05-28_09h12.09.486,task,2021.1.4,Win32,59.52380952,628b806c463b948bc644b84f,6291cafe9e5bca219870781c,,,,,,,,,,,,,,,,,,,,,,,8,,,,,,,,,,Task,23,(2x3) + 2,8,,,,,,,,,,,,,,,,,,,1,,,,,,,,,,,,,,,,,,,,,,,"[""8""]",1,[5.314999999999827],0,0,0,22,1,,,,,,,,,,,,,,,,,,
,,,,,,,,,,5fcc03ab80ec79268c02600d,25,Mężczyzna,2022-05-28_09h12.09.486,task,2021.1.4,Win32,59.52380952,628b806c463b948bc644b84f,6291cafe9e5bca219870781c,,,,,,,,,,"X V Q F H G B L J M P D K C T S W R N Z
",,,,,,,,,,,,,,,,,,,,,,,,,,,,,,,,,,,,,,,,,,,,,,,,,,,,,,,,,,,,,,,,,,,,,,,,,,,,1,0,1,0,1,,,,,,,,,,,,,
,,,,,,,,,,5fcc03ab80ec79268c02600d,25,Mężczyzna,2022-05-28_09h12.09.486,task,2021.1.4,Win32,59.52380952,628b806c463b948bc644b84f,6291cafe9e5bca219870781c,,,,,,,,,,,,,,,,,,,,,,,4,,,,,,,,,,Task,21,(10/2) - 1,4,,,,,,,,,,,,,,,,,,,1,,,,,,,,,,,,,,,,,,,,,,,"[""4""]",1,[4.679799999952138],0,0,0,20,1,,,,,,,,,,,,,,,,,,
,,,,,,,,,,5fcc03ab80ec79268c02600d,25,Mężczyzna,2022-05-28_09h12.09.486,task,2021.1.4,Win32,59.52380952,628b806c463b948bc644b84f,6291cafe9e5bca219870781c,,,,,,,,,,"X V Q F H G B L J M P D K C T S W R N Z
",,,,,,,,,,,,,,,,,,,,,,,,,,,,,,,,,,,,,,,,,,,,,,,,,,,,,,,,,,,,,,,,,,,,,,,,,,,,2,0,2,0,1,,,,,,,,,,,,,
