key_resp_15.keys,key_resp_15.rt,key_resp_16.keys,key_resp_16.rt,key_resp_4.keys,key_resp_4.rt,next_letter.thisRepN,next_letter.thisTrialN,next_letter.thisN,next_letter.thisIndex,next_letter.ran,letter,participant,Wiek*,Płeć,date,expName,psychopyVersion,OS,frameRate,study_id,session,simple_recall,key_resp_5.keys,key_resp_5.rt,simple_recall_corr,simple_recall_corrkeys,next_level.thisRepN,next_level.thisTrialN,next_level.thisN,next_level.thisIndex,next_level.ran,key_resp_2.keys,key_resp_2.rt,digit_answer,key_resp.keys,key_resp.corr,key_resp.rt,RT_list,next_equation.thisRepN,next_equation.thisTrialN,next_equation.thisN,next_equation.thisIndex,next_equation.ran,Task,Trial,Problem,Operation_answer,processing_score,sumRT,meanRT,sumdiff,sd,RT,key_resp_3.keys,key_resp_3.rt,repeat_practice.thisRepN,repeat_practice.thisTrialN,repeat_practice.thisN,repeat_practice.thisIndex,repeat_practice.ran,key_resp_6.keys,key_resp_6.rt,key_resp_11.keys,key_resp_11.corr,key_resp_11.rt,operation_correct,repeat_if_wrong_prac.thisRepN,repeat_if_wrong_prac.thisTrialN,repeat_if_wrong_prac.thisN,repeat_if_wrong_prac.thisIndex,repeat_if_wrong_prac.ran,span_size_prac.thisRepN,span_size_prac.thisTrialN,span_size_prac.thisN,span_size_prac.thisIndex,span_size_prac.ran,complex_recall_practice,key_resp_9.keys,key_resp_9.corr,key_resp_9.rt,complex_prac_corr,span_recall_prac.thisRepN,span_recall_prac.thisTrialN,span_recall_prac.thisN,span_recall_prac.thisIndex,span_recall_prac.ran,key_resp_10.keys,key_resp_10.rt,key_resp_7.keys,key_resp_7.corr,key_resp_7.rt,repeat_if_wrong.thisRepN,repeat_if_wrong.thisTrialN,repeat_if_wrong.thisN,repeat_if_wrong.thisIndex,repeat_if_wrong.ran,span_size.thisRepN,span_size.thisTrialN,span_size.thisN,span_size.thisIndex,span_size.ran,complex_recall,key_resp_8.keys,key_resp_8.corr,key_resp_8.rt,complex_recall_corr,complex_recall_corrkeys,span_recall.thisRepN,span_recall.thisTrialN,span_recall.thisN,span_recall.thisIndex,span_recall.ran,key_resp_13.keys,key_resp_13.corr,key_resp_13.rt,random_loop.thisRepN,random_loop.thisTrialN,random_loop.thisN,random_loop.thisIndex,random_loop.ran,key_resp_12.keys,key_resp_12.rt
space,2.9694,space,4.0557,space,7.5224,0,0,0,0,1,X V Q F H G B L J M P D K C T S W R N Z,5fd2416e5061f30735e202e9,21,Mężczyzna,2022-06-11_09h42.44.026,task,2021.1.4,Win32,75.06380423,6299f149e92ead563fba08ef,62a4472ef1a68408b3a2c77f,,,,,,,,,,,,,,,,,,,,,,,,,,,,,,,,,,,,,,,,,,,,,,,,,,,,,,,,,,,,,,,,,,,,,,,,,,,,,,,,,,,,,,,,,,,,,,,,,,,,,
,,,,,,1,0,1,0,1,X V Q F H G B L J M P D K C T S W R N Z,5fd2416e5061f30735e202e9,21,Mężczyzna,2022-06-11_09h42.44.026,task,2021.1.4,Win32,75.06380423,6299f149e92ead563fba08ef,62a4472ef1a68408b3a2c77f,,,,,,,,,,,,,,,,,,,,,,,,,,,,,,,,,,,,,,,,,,,,,,,,,,,,,,,,,,,,,,,,,,,,,,,,,,,,,,,,,,,,,,,,,,,,,,,,,,,,,
,,,,,,,,,,,,5fd2416e5061f30735e202e9,21,Mężczyzna,2022-06-11_09h42.44.026,task,2021.1.4,Win32,75.06380423,6299f149e92ead563fba08ef,62a4472ef1a68408b3a2c77f,zv,"[""z"",""v""]","[3.098199999988079,3.526099999964238,4.319099999964237]",1,ZV,0,0,0,0,1,,,,,,,,,,,,,,,,,,,,,,,,,,,,,,,,,,,,,,,,,,,,,,,,,,,,,,,,,,,,,,,,,,,,,,,,,,,,,,,,,,,,,,,,,,,
,,,,,,0,0,0,0,1,X V Q F H G B L J M P D K C T S W R N Z,5fd2416e5061f30735e202e9,21,Mężczyzna,2022-06-11_09h42.44.026,task,2021.1.4,Win32,75.06380423,6299f149e92ead563fba08ef,62a4472ef1a68408b3a2c77f,,,,,,,,,,,,,,,,,,,,,,,,,,,,,,,,,,,,,,,,,,,,,,,,,,,,,,,,,,,,,,,,,,,,,,,,,,,,,,,,,,,,,,,,,,,,,,,,,,,,,
,,,,,,1,0,1,0,1,X V Q F H G B L J M P D K C T S W R N Z,5fd2416e5061f30735e202e9,21,Mężczyzna,2022-06-11_09h42.44.026,task,2021.1.4,Win32,75.06380423,6299f149e92ead563fba08ef,62a4472ef1a68408b3a2c77f,,,,,,,,,,,,,,,,,,,,,,,,,,,,,,,,,,,,,,,,,,,,,,,,,,,,,,,,,,,,,,,,,,,,,,,,,,,,,,,,,,,,,,,,,,,,,,,,,,,,,
,,,,,,,,,,,,5fd2416e5061f30735e202e9,21,Mężczyzna,2022-06-11_09h42.44.026,task,2021.1.4,Win32,75.06380423,6299f149e92ead563fba08ef,62a4472ef1a68408b3a2c77f,wt,"[""w"",""t""]","[1.3329999999999984,1.5072999999523162,2.1999999999999957]",1,WT,1,0,1,0,1,,,,,,,,,,,,,,,,,,,,,,,,,,,,,,,,,,,,,,,,,,,,,,,,,,,,,,,,,,,,,,,,,,,,,,,,,,,,,,,,,,,,,,,,,,,
,,,,,,0,0,0,0,1,X V Q F H G B L J M P D K C T S W R N Z,5fd2416e5061f30735e202e9,21,Mężczyzna,2022-06-11_09h42.44.026,task,2021.1.4,Win32,75.06380423,6299f149e92ead563fba08ef,62a4472ef1a68408b3a2c77f,,,,,,,,,,,,,,,,,,,,,,,,,,,,,,,,,,,,,,,,,,,,,,,,,,,,,,,,,,,,,,,,,,,,,,,,,,,,,,,,,,,,,,,,,,,,,,,,,,,,,
,,,,,,1,0,1,0,1,X V Q F H G B L J M P D K C T S W R N Z,5fd2416e5061f30735e202e9,21,Mężczyzna,2022-06-11_09h42.44.026,task,2021.1.4,Win32,75.06380423,6299f149e92ead563fba08ef,62a4472ef1a68408b3a2c77f,,,,,,,,,,,,,,,,,,,,,,,,,,,,,,,,,,,,,,,,,,,,,,,,,,,,,,,,,,,,,,,,,,,,,,,,,,,,,,,,,,,,,,,,,,,,,,,,,,,,,
,,,,,,2,0,2,0,1,X V Q F H G B L J M P D K C T S W R N Z,5fd2416e5061f30735e202e9,21,Mężczyzna,2022-06-11_09h42.44.026,task,2021.1.4,Win32,75.06380423,6299f149e92ead563fba08ef,62a4472ef1a68408b3a2c77f,,,,,,,,,,,,,,,,,,,,,,,,,,,,,,,,,,,,,,,,,,,,,,,,,,,,,,,,,,,,,,,,,,,,,,,,,,,,,,,,,,,,,,,,,,,,,,,,,,,,,
,,,,,,,,,,,,5fd2416e5061f30735e202e9,21,Mężczyzna,2022-06-11_09h42.44.026,task,2021.1.4,Win32,75.06380423,6299f149e92ead563fba08ef,62a4472ef1a68408b3a2c77f,lwh,"[""l"",""w"",""h""]","[1.2099000000357591,1.3669000000357627,1.5599000000357606,2.296199999988076]",1,LWH,2,0,2,0,1,,,,,,,,,,,,,,,,,,,,,,,,,,,,,,,,,,,,,,,,,,,,,,,,,,,,,,,,,,,,,,,,,,,,,,,,,,,,,,,,,,,,,,,,,,,
,,,,,,0,0,0,0,1,X V Q F H G B L J M P D K C T S W R N Z,5fd2416e5061f30735e202e9,21,Mężczyzna,2022-06-11_09h42.44.026,task,2021.1.4,Win32,75.06380423,6299f149e92ead563fba08ef,62a4472ef1a68408b3a2c77f,,,,,,,,,,,,,,,,,,,,,,,,,,,,,,,,,,,,,,,,,,,,,,,,,,,,,,,,,,,,,,,,,,,,,,,,,,,,,,,,,,,,,,,,,,,,,,,,,,,,,
,,,,,,1,0,1,0,1,X V Q F H G B L J M P D K C T S W R N Z,5fd2416e5061f30735e202e9,21,Mężczyzna,2022-06-11_09h42.44.026,task,2021.1.4,Win32,75.06380423,6299f149e92ead563fba08ef,62a4472ef1a68408b3a2c77f,,,,,,,,,,,,,,,,,,,,,,,,,,,,,,,,,,,,,,,,,,,,,,,,,,,,,,,,,,,,,,,,,,,,,,,,,,,,,,,,,,,,,,,,,,,,,,,,,,,,,
,,,,,,2,0,2,0,1,X V Q F H G B L J M P D K C T S W R N Z,5fd2416e5061f30735e202e9,21,Mężczyzna,2022-06-11_09h42.44.026,task,2021.1.4,Win32,75.06380423,6299f149e92ead563fba08ef,62a4472ef1a68408b3a2c77f,,,,,,,,,,,,,,,,,,,,,,,,,,,,,,,,,,,,,,,,,,,,,,,,,,,,,,,,,,,,,,,,,,,,,,,,,,,,,,,,,,,,,,,,,,,,,,,,,,,,,
,,,,,,,,,,,,5fd2416e5061f30735e202e9,21,Mężczyzna,2022-06-11_09h42.44.026,task,2021.1.4,Win32,75.06380423,6299f149e92ead563fba08ef,62a4472ef1a68408b3a2c77f,zkn,"[""z"",""k"",""n""]","[1.2093000000119147,1.4443000000119213,1.6935000000000002,2.5753000000119215]",1,ZKN,3,0,3,0,1,,,,,,,,,,,,,,,,,,,,,,,,,,,,,,,,,,,,,,,,,,,,,,,,,,,,,,,,,,,,,,,,,,,,,,,,,,,,,,,,,,,,,,,,,,,
,,,,,,0,0,0,0,1,X V Q F H G B L J M P D K C T S W R N Z,5fd2416e5061f30735e202e9,21,Mężczyzna,2022-06-11_09h42.44.026,task,2021.1.4,Win32,75.06380423,6299f149e92ead563fba08ef,62a4472ef1a68408b3a2c77f,,,,,,,,,,,,,,,,,,,,,,,,,,,,,,,,,,,,,,,,,,,,,,,,,,,,,,,,,,,,,,,,,,,,,,,,,,,,,,,,,,,,,,,,,,,,,,,,,,,,,
,,,,,,1,0,1,0,1,X V Q F H G B L J M P D K C T S W R N Z,5fd2416e5061f30735e202e9,21,Mężczyzna,2022-06-11_09h42.44.026,task,2021.1.4,Win32,75.06380423,6299f149e92ead563fba08ef,62a4472ef1a68408b3a2c77f,,,,,,,,,,,,,,,,,,,,,,,,,,,,,,,,,,,,,,,,,,,,,,,,,,,,,,,,,,,,,,,,,,,,,,,,,,,,,,,,,,,,,,,,,,,,,,,,,,,,,
,,,,,,2,0,2,0,1,X V Q F H G B L J M P D K C T S W R N Z,5fd2416e5061f30735e202e9,21,Mężczyzna,2022-06-11_09h42.44.026,task,2021.1.4,Win32,75.06380423,6299f149e92ead563fba08ef,62a4472ef1a68408b3a2c77f,,,,,,,,,,,,,,,,,,,,,,,,,,,,,,,,,,,,,,,,,,,,,,,,,,,,,,,,,,,,,,,,,,,,,,,,,,,,,,,,,,,,,,,,,,,,,,,,,,,,,
,,,,,,3,0,3,0,1,X V Q F H G B L J M P D K C T S W R N Z,5fd2416e5061f30735e202e9,21,Mężczyzna,2022-06-11_09h42.44.026,task,2021.1.4,Win32,75.06380423,6299f149e92ead563fba08ef,62a4472ef1a68408b3a2c77f,,,,,,,,,,,,,,,,,,,,,,,,,,,,,,,,,,,,,,,,,,,,,,,,,,,,,,,,,,,,,,,,,,,,,,,,,,,,,,,,,,,,,,,,,,,,,,,,,,,,,
,,,,,,,,,,,,5fd2416e5061f30735e202e9,21,Mężczyzna,2022-06-11_09h42.44.026,task,2021.1.4,Win32,75.06380423,6299f149e92ead563fba08ef,62a4472ef1a68408b3a2c77f,hdmj,"[""h"",""d"",""m"",""j""]","[1.1140000000000043,1.4960000000000022,1.7888000000119249,2.206100000023845,2.893700000047687]",1,HDMJ,4,0,4,0,1,,,,,,,,,,,,,,,,,,,,,,,,,,,,,,,,,,,,,,,,,,,,,,,,,,,,,,,,,,,,,,,,,,,,,,,,,,,,,,,,,,,,,,,,,,,
,,,,,,0,0,0,0,1,X V Q F H G B L J M P D K C T S W R N Z,5fd2416e5061f30735e202e9,21,Mężczyzna,2022-06-11_09h42.44.026,task,2021.1.4,Win32,75.06380423,6299f149e92ead563fba08ef,62a4472ef1a68408b3a2c77f,,,,,,,,,,,,,,,,,,,,,,,,,,,,,,,,,,,,,,,,,,,,,,,,,,,,,,,,,,,,,,,,,,,,,,,,,,,,,,,,,,,,,,,,,,,,,,,,,,,,,
,,,,,,1,0,1,0,1,X V Q F H G B L J M P D K C T S W R N Z,5fd2416e5061f30735e202e9,21,Mężczyzna,2022-06-11_09h42.44.026,task,2021.1.4,Win32,75.06380423,6299f149e92ead563fba08ef,62a4472ef1a68408b3a2c77f,,,,,,,,,,,,,,,,,,,,,,,,,,,,,,,,,,,,,,,,,,,,,,,,,,,,,,,,,,,,,,,,,,,,,,,,,,,,,,,,,,,,,,,,,,,,,,,,,,,,,
,,,,,,2,0,2,0,1,X V Q F H G B L J M P D K C T S W R N Z,5fd2416e5061f30735e202e9,21,Mężczyzna,2022-06-11_09h42.44.026,task,2021.1.4,Win32,75.06380423,6299f149e92ead563fba08ef,62a4472ef1a68408b3a2c77f,,,,,,,,,,,,,,,,,,,,,,,,,,,,,,,,,,,,,,,,,,,,,,,,,,,,,,,,,,,,,,,,,,,,,,,,,,,,,,,,,,,,,,,,,,,,,,,,,,,,,
,,,,,,3,0,3,0,1,X V Q F H G B L J M P D K C T S W R N Z,5fd2416e5061f30735e202e9,21,Mężczyzna,2022-06-11_09h42.44.026,task,2021.1.4,Win32,75.06380423,6299f149e92ead563fba08ef,62a4472ef1a68408b3a2c77f,,,,,,,,,,,,,,,,,,,,,,,,,,,,,,,,,,,,,,,,,,,,,,,,,,,,,,,,,,,,,,,,,,,,,,,,,,,,,,,,,,,,,,,,,,,,,,,,,,,,,
,,,,,,,,,,,,5fd2416e5061f30735e202e9,21,Mężczyzna,2022-06-11_09h42.44.026,task,2021.1.4,Win32,75.06380423,6299f149e92ead563fba08ef,62a4472ef1a68408b3a2c77f,mtjq,"[""m"",""t"",""j"",""q""]","[1.25359999996423,1.6620999999642336,2.0950999999642264,2.3821999999880674,2.866499999999995]",1,MTJQ,5,0,5,0,1,,,,,,,,,,,,,,,,,,,,,,,,,,,,,,,,,,,,,,,,,,,,,,,,,,,,,,,,,,,,,,,,,,,,,,,,,,,,,,,,,,,,,,,,,,,
,,,,,,0,0,0,0,1,X V Q F H G B L J M P D K C T S W R N Z,5fd2416e5061f30735e202e9,21,Mężczyzna,2022-06-11_09h42.44.026,task,2021.1.4,Win32,75.06380423,6299f149e92ead563fba08ef,62a4472ef1a68408b3a2c77f,,,,,,,,,,,,,,,,,,,,,,,,,,,,,,,,,,,,,,,,,,,,,,,,,,,,,,,,,,,,,,,,,,,,,,,,,,,,,,,,,,,,,,,,,,,,,,,,,,,,,
,,,,,,1,0,1,0,1,X V Q F H G B L J M P D K C T S W R N Z,5fd2416e5061f30735e202e9,21,Mężczyzna,2022-06-11_09h42.44.026,task,2021.1.4,Win32,75.06380423,6299f149e92ead563fba08ef,62a4472ef1a68408b3a2c77f,,,,,,,,,,,,,,,,,,,,,,,,,,,,,,,,,,,,,,,,,,,,,,,,,,,,,,,,,,,,,,,,,,,,,,,,,,,,,,,,,,,,,,,,,,,,,,,,,,,,,
,,,,,,2,0,2,0,1,X V Q F H G B L J M P D K C T S W R N Z,5fd2416e5061f30735e202e9,21,Mężczyzna,2022-06-11_09h42.44.026,task,2021.1.4,Win32,75.06380423,6299f149e92ead563fba08ef,62a4472ef1a68408b3a2c77f,,,,,,,,,,,,,,,,,,,,,,,,,,,,,,,,,,,,,,,,,,,,,,,,,,,,,,,,,,,,,,,,,,,,,,,,,,,,,,,,,,,,,,,,,,,,,,,,,,,,,
,,,,,,3,0,3,0,1,X V Q F H G B L J M P D K C T S W R N Z,5fd2416e5061f30735e202e9,21,Mężczyzna,2022-06-11_09h42.44.026,task,2021.1.4,Win32,75.06380423,6299f149e92ead563fba08ef,62a4472ef1a68408b3a2c77f,,,,,,,,,,,,,,,,,,,,,,,,,,,,,,,,,,,,,,,,,,,,,,,,,,,,,,,,,,,,,,,,,,,,,,,,,,,,,,,,,,,,,,,,,,,,,,,,,,,,,
,,,,,,4,0,4,0,1,X V Q F H G B L J M P D K C T S W R N Z,5fd2416e5061f30735e202e9,21,Mężczyzna,2022-06-11_09h42.44.026,task,2021.1.4,Win32,75.06380423,6299f149e92ead563fba08ef,62a4472ef1a68408b3a2c77f,,,,,,,,,,,,,,,,,,,,,,,,,,,,,,,,,,,,,,,,,,,,,,,,,,,,,,,,,,,,,,,,,,,,,,,,,,,,,,,,,,,,,,,,,,,,,,,,,,,,,
,,,,,,,,,,,,5fd2416e5061f30735e202e9,21,Mężczyzna,2022-06-11_09h42.44.026,task,2021.1.4,Win32,75.06380423,6299f149e92ead563fba08ef,62a4472ef1a68408b3a2c77f,gstwh,"[""g"",""s"",""t"",""w"",""h""]","[1.5503000000119158,2.0130000000000052,2.5306999999880873,3.267599999964233,3.712699999988075,5.04639999997616]",1,GSTWH,6,0,6,0,1,,,,,,,,,,,,,,,,,,,,,,,,,,,,,,,,,,,,,,,,,,,,,,,,,,,,,,,,,,,,,,,,,,,,,,,,,,,,,,,,,,,,,,,,,,,
,,,,,,0,0,0,0,1,X V Q F H G B L J M P D K C T S W R N Z,5fd2416e5061f30735e202e9,21,Mężczyzna,2022-06-11_09h42.44.026,task,2021.1.4,Win32,75.06380423,6299f149e92ead563fba08ef,62a4472ef1a68408b3a2c77f,,,,,,,,,,,,,,,,,,,,,,,,,,,,,,,,,,,,,,,,,,,,,,,,,,,,,,,,,,,,,,,,,,,,,,,,,,,,,,,,,,,,,,,,,,,,,,,,,,,,,
,,,,,,1,0,1,0,1,X V Q F H G B L J M P D K C T S W R N Z,5fd2416e5061f30735e202e9,21,Mężczyzna,2022-06-11_09h42.44.026,task,2021.1.4,Win32,75.06380423,6299f149e92ead563fba08ef,62a4472ef1a68408b3a2c77f,,,,,,,,,,,,,,,,,,,,,,,,,,,,,,,,,,,,,,,,,,,,,,,,,,,,,,,,,,,,,,,,,,,,,,,,,,,,,,,,,,,,,,,,,,,,,,,,,,,,,
,,,,,,2,0,2,0,1,X V Q F H G B L J M P D K C T S W R N Z,5fd2416e5061f30735e202e9,21,Mężczyzna,2022-06-11_09h42.44.026,task,2021.1.4,Win32,75.06380423,6299f149e92ead563fba08ef,62a4472ef1a68408b3a2c77f,,,,,,,,,,,,,,,,,,,,,,,,,,,,,,,,,,,,,,,,,,,,,,,,,,,,,,,,,,,,,,,,,,,,,,,,,,,,,,,,,,,,,,,,,,,,,,,,,,,,,
,,,,,,3,0,3,0,1,X V Q F H G B L J M P D K C T S W R N Z,5fd2416e5061f30735e202e9,21,Mężczyzna,2022-06-11_09h42.44.026,task,2021.1.4,Win32,75.06380423,6299f149e92ead563fba08ef,62a4472ef1a68408b3a2c77f,,,,,,,,,,,,,,,,,,,,,,,,,,,,,,,,,,,,,,,,,,,,,,,,,,,,,,,,,,,,,,,,,,,,,,,,,,,,,,,,,,,,,,,,,,,,,,,,,,,,,
,,,,,,4,0,4,0,1,X V Q F H G B L J M P D K C T S W R N Z,5fd2416e5061f30735e202e9,21,Mężczyzna,2022-06-11_09h42.44.026,task,2021.1.4,Win32,75.06380423,6299f149e92ead563fba08ef,62a4472ef1a68408b3a2c77f,,,,,,,,,,,,,,,,,,,,,,,,,,,,,,,,,,,,,,,,,,,,,,,,,,,,,,,,,,,,,,,,,,,,,,,,,,,,,,,,,,,,,,,,,,,,,,,,,,,,,
,,,,,,,,,,,,5fd2416e5061f30735e202e9,21,Mężczyzna,2022-06-11_09h42.44.026,task,2021.1.4,Win32,75.06380423,6299f149e92ead563fba08ef,62a4472ef1a68408b3a2c77f,qtstx,"[""q"",""t"",""s"",""t"",""x""]","[2.3130000000000024,2.745999999999995,3.150499999999994,3.5335000000000036,3.9226000000238344,4.4674000000357665]",1,QTSTX,7,0,7,0,1,,,,,,,,,,,,,,,,,,,,,,,,,,,,,,,,,,,,,,,,,,,,,,,,,,,,,,,,,,,,,,,,,,,,,,,,,,,,,,,,,,,,,,,,,,,
,,,,,,0,0,0,0,1,X V Q F H G B L J M P D K C T S W R N Z,5fd2416e5061f30735e202e9,21,Mężczyzna,2022-06-11_09h42.44.026,task,2021.1.4,Win32,75.06380423,6299f149e92ead563fba08ef,62a4472ef1a68408b3a2c77f,,,,,,,,,,,,,,,,,,,,,,,,,,,,,,,,,,,,,,,,,,,,,,,,,,,,,,,,,,,,,,,,,,,,,,,,,,,,,,,,,,,,,,,,,,,,,,,,,,,,,
,,,,,,1,0,1,0,1,X V Q F H G B L J M P D K C T S W R N Z,5fd2416e5061f30735e202e9,21,Mężczyzna,2022-06-11_09h42.44.026,task,2021.1.4,Win32,75.06380423,6299f149e92ead563fba08ef,62a4472ef1a68408b3a2c77f,,,,,,,,,,,,,,,,,,,,,,,,,,,,,,,,,,,,,,,,,,,,,,,,,,,,,,,,,,,,,,,,,,,,,,,,,,,,,,,,,,,,,,,,,,,,,,,,,,,,,
,,,,,,2,0,2,0,1,X V Q F H G B L J M P D K C T S W R N Z,5fd2416e5061f30735e202e9,21,Mężczyzna,2022-06-11_09h42.44.026,task,2021.1.4,Win32,75.06380423,6299f149e92ead563fba08ef,62a4472ef1a68408b3a2c77f,,,,,,,,,,,,,,,,,,,,,,,,,,,,,,,,,,,,,,,,,,,,,,,,,,,,,,,,,,,,,,,,,,,,,,,,,,,,,,,,,,,,,,,,,,,,,,,,,,,,,
,,,,,,3,0,3,0,1,X V Q F H G B L J M P D K C T S W R N Z,5fd2416e5061f30735e202e9,21,Mężczyzna,2022-06-11_09h42.44.026,task,2021.1.4,Win32,75.06380423,6299f149e92ead563fba08ef,62a4472ef1a68408b3a2c77f,,,,,,,,,,,,,,,,,,,,,,,,,,,,,,,,,,,,,,,,,,,,,,,,,,,,,,,,,,,,,,,,,,,,,,,,,,,,,,,,,,,,,,,,,,,,,,,,,,,,,
,,,,,,4,0,4,0,1,X V Q F H G B L J M P D K C T S W R N Z,5fd2416e5061f30735e202e9,21,Mężczyzna,2022-06-11_09h42.44.026,task,2021.1.4,Win32,75.06380423,6299f149e92ead563fba08ef,62a4472ef1a68408b3a2c77f,,,,,,,,,,,,,,,,,,,,,,,,,,,,,,,,,,,,,,,,,,,,,,,,,,,,,,,,,,,,,,,,,,,,,,,,,,,,,,,,,,,,,,,,,,,,,,,,,,,,,
,,,,,,5,0,5,0,1,X V Q F H G B L J M P D K C T S W R N Z,5fd2416e5061f30735e202e9,21,Mężczyzna,2022-06-11_09h42.44.026,task,2021.1.4,Win32,75.06380423,6299f149e92ead563fba08ef,62a4472ef1a68408b3a2c77f,,,,,,,,,,,,,,,,,,,,,,,,,,,,,,,,,,,,,,,,,,,,,,,,,,,,,,,,,,,,,,,,,,,,,,,,,,,,,,,,,,,,,,,,,,,,,,,,,,,,,
,,,,,,,,,,,,5fd2416e5061f30735e202e9,21,Mężczyzna,2022-06-11_09h42.44.026,task,2021.1.4,Win32,75.06380423,6299f149e92ead563fba08ef,62a4472ef1a68408b3a2c77f,gzsfbd,"[""g"",""z"",""s"",""f"",""b"",""d""]","[1.6736000000238391,2.422200000047681,3.133600000023847,3.666800000011918,4.15620000004769,4.764400000035764,5.631400000035768]",1,GZSFBD,8,0,8,0,1,,,,,,,,,,,,,,,,,,,,,,,,,,,,,,,,,,,,,,,,,,,,,,,,,,,,,,,,,,,,,,,,,,,,,,,,,,,,,,,,,,,,,,,,,,,
,,,,,,0,0,0,0,1,X V Q F H G B L J M P D K C T S W R N Z,5fd2416e5061f30735e202e9,21,Mężczyzna,2022-06-11_09h42.44.026,task,2021.1.4,Win32,75.06380423,6299f149e92ead563fba08ef,62a4472ef1a68408b3a2c77f,,,,,,,,,,,,,,,,,,,,,,,,,,,,,,,,,,,,,,,,,,,,,,,,,,,,,,,,,,,,,,,,,,,,,,,,,,,,,,,,,,,,,,,,,,,,,,,,,,,,,
,,,,,,1,0,1,0,1,X V Q F H G B L J M P D K C T S W R N Z,5fd2416e5061f30735e202e9,21,Mężczyzna,2022-06-11_09h42.44.026,task,2021.1.4,Win32,75.06380423,6299f149e92ead563fba08ef,62a4472ef1a68408b3a2c77f,,,,,,,,,,,,,,,,,,,,,,,,,,,,,,,,,,,,,,,,,,,,,,,,,,,,,,,,,,,,,,,,,,,,,,,,,,,,,,,,,,,,,,,,,,,,,,,,,,,,,
,,,,,,2,0,2,0,1,X V Q F H G B L J M P D K C T S W R N Z,5fd2416e5061f30735e202e9,21,Mężczyzna,2022-06-11_09h42.44.026,task,2021.1.4,Win32,75.06380423,6299f149e92ead563fba08ef,62a4472ef1a68408b3a2c77f,,,,,,,,,,,,,,,,,,,,,,,,,,,,,,,,,,,,,,,,,,,,,,,,,,,,,,,,,,,,,,,,,,,,,,,,,,,,,,,,,,,,,,,,,,,,,,,,,,,,,
,,,,,,3,0,3,0,1,X V Q F H G B L J M P D K C T S W R N Z,5fd2416e5061f30735e202e9,21,Mężczyzna,2022-06-11_09h42.44.026,task,2021.1.4,Win32,75.06380423,6299f149e92ead563fba08ef,62a4472ef1a68408b3a2c77f,,,,,,,,,,,,,,,,,,,,,,,,,,,,,,,,,,,,,,,,,,,,,,,,,,,,,,,,,,,,,,,,,,,,,,,,,,,,,,,,,,,,,,,,,,,,,,,,,,,,,
,,,,,,4,0,4,0,1,X V Q F H G B L J M P D K C T S W R N Z,5fd2416e5061f30735e202e9,21,Mężczyzna,2022-06-11_09h42.44.026,task,2021.1.4,Win32,75.06380423,6299f149e92ead563fba08ef,62a4472ef1a68408b3a2c77f,,,,,,,,,,,,,,,,,,,,,,,,,,,,,,,,,,,,,,,,,,,,,,,,,,,,,,,,,,,,,,,,,,,,,,,,,,,,,,,,,,,,,,,,,,,,,,,,,,,,,
,,,,,,5,0,5,0,1,X V Q F H G B L J M P D K C T S W R N Z,5fd2416e5061f30735e202e9,21,Mężczyzna,2022-06-11_09h42.44.026,task,2021.1.4,Win32,75.06380423,6299f149e92ead563fba08ef,62a4472ef1a68408b3a2c77f,,,,,,,,,,,,,,,,,,,,,,,,,,,,,,,,,,,,,,,,,,,,,,,,,,,,,,,,,,,,,,,,,,,,,,,,,,,,,,,,,,,,,,,,,,,,,,,,,,,,,
,,,,,,,,,,,,5fd2416e5061f30735e202e9,21,Mężczyzna,2022-06-11_09h42.44.026,task,2021.1.4,Win32,75.06380423,6299f149e92ead563fba08ef,62a4472ef1a68408b3a2c77f,dnsdvx,"[""d"",""n"",""s"",""d"",""v"",""x""]","[1.2870000000000061,1.8499999999999943,2.3338000000119195,3.613600000023837,4.005700000047682,4.247800000011921,4.787900000035762]",1,DNSDVX,9,0,9,0,1,,,,,,,,,,,,,,,,,,,,,,,,,,,,,,,,,,,,,,,,,,,,,,,,,,,,,,,,,,,,,,,,,,,,,,,,,,,,,,,,,,,,,,,,,,,
,,,,,,0,0,0,0,1,X V Q F H G B L J M P D K C T S W R N Z,5fd2416e5061f30735e202e9,21,Mężczyzna,2022-06-11_09h42.44.026,task,2021.1.4,Win32,75.06380423,6299f149e92ead563fba08ef,62a4472ef1a68408b3a2c77f,,,,,,,,,,,,,,,,,,,,,,,,,,,,,,,,,,,,,,,,,,,,,,,,,,,,,,,,,,,,,,,,,,,,,,,,,,,,,,,,,,,,,,,,,,,,,,,,,,,,,
,,,,,,1,0,1,0,1,X V Q F H G B L J M P D K C T S W R N Z,5fd2416e5061f30735e202e9,21,Mężczyzna,2022-06-11_09h42.44.026,task,2021.1.4,Win32,75.06380423,6299f149e92ead563fba08ef,62a4472ef1a68408b3a2c77f,,,,,,,,,,,,,,,,,,,,,,,,,,,,,,,,,,,,,,,,,,,,,,,,,,,,,,,,,,,,,,,,,,,,,,,,,,,,,,,,,,,,,,,,,,,,,,,,,,,,,
,,,,,,2,0,2,0,1,X V Q F H G B L J M P D K C T S W R N Z,5fd2416e5061f30735e202e9,21,Mężczyzna,2022-06-11_09h42.44.026,task,2021.1.4,Win32,75.06380423,6299f149e92ead563fba08ef,62a4472ef1a68408b3a2c77f,,,,,,,,,,,,,,,,,,,,,,,,,,,,,,,,,,,,,,,,,,,,,,,,,,,,,,,,,,,,,,,,,,,,,,,,,,,,,,,,,,,,,,,,,,,,,,,,,,,,,
,,,,,,3,0,3,0,1,X V Q F H G B L J M P D K C T S W R N Z,5fd2416e5061f30735e202e9,21,Mężczyzna,2022-06-11_09h42.44.026,task,2021.1.4,Win32,75.06380423,6299f149e92ead563fba08ef,62a4472ef1a68408b3a2c77f,,,,,,,,,,,,,,,,,,,,,,,,,,,,,,,,,,,,,,,,,,,,,,,,,,,,,,,,,,,,,,,,,,,,,,,,,,,,,,,,,,,,,,,,,,,,,,,,,,,,,
,,,,,,4,0,4,0,1,X V Q F H G B L J M P D K C T S W R N Z,5fd2416e5061f30735e202e9,21,Mężczyzna,2022-06-11_09h42.44.026,task,2021.1.4,Win32,75.06380423,6299f149e92ead563fba08ef,62a4472ef1a68408b3a2c77f,,,,,,,,,,,,,,,,,,,,,,,,,,,,,,,,,,,,,,,,,,,,,,,,,,,,,,,,,,,,,,,,,,,,,,,,,,,,,,,,,,,,,,,,,,,,,,,,,,,,,
,,,,,,5,0,5,0,1,X V Q F H G B L J M P D K C T S W R N Z,5fd2416e5061f30735e202e9,21,Mężczyzna,2022-06-11_09h42.44.026,task,2021.1.4,Win32,75.06380423,6299f149e92ead563fba08ef,62a4472ef1a68408b3a2c77f,,,,,,,,,,,,,,,,,,,,,,,,,,,,,,,,,,,,,,,,,,,,,,,,,,,,,,,,,,,,,,,,,,,,,,,,,,,,,,,,,,,,,,,,,,,,,,,,,,,,,
,,,,,,6,0,6,0,1,X V Q F H G B L J M P D K C T S W R N Z,5fd2416e5061f30735e202e9,21,Mężczyzna,2022-06-11_09h42.44.026,task,2021.1.4,Win32,75.06380423,6299f149e92ead563fba08ef,62a4472ef1a68408b3a2c77f,,,,,,,,,,,,,,,,,,,,,,,,,,,,,,,,,,,,,,,,,,,,,,,,,,,,,,,,,,,,,,,,,,,,,,,,,,,,,,,,,,,,,,,,,,,,,,,,,,,,,
,,,,,,,,,,,,5fd2416e5061f30735e202e9,21,Mężczyzna,2022-06-11_09h42.44.026,task,2021.1.4,Win32,75.06380423,6299f149e92ead563fba08ef,62a4472ef1a68408b3a2c77f,sqcwrp,"[""s"",""q"",""c"",""w"",""r"",""p""]","[18.04889999997617,18.622899999976184,19.135000000000005,20.319599999964268,21.004000000000005,21.556000000000026,22.89580000001193]",0,PSCQWRP,10,0,10,0,1,,,,,,,,,,,,,,,,,,,,,,,,,,,,,,,,,,,,,,,,,,,,,,,,,,,,,,,,,,,,,,,,,,,,,,,,,,,,,,,,,,,,,,,,,,,
,,,,,,0,0,0,0,1,X V Q F H G B L J M P D K C T S W R N Z,5fd2416e5061f30735e202e9,21,Mężczyzna,2022-06-11_09h42.44.026,task,2021.1.4,Win32,75.06380423,6299f149e92ead563fba08ef,62a4472ef1a68408b3a2c77f,,,,,,,,,,,,,,,,,,,,,,,,,,,,,,,,,,,,,,,,,,,,,,,,,,,,,,,,,,,,,,,,,,,,,,,,,,,,,,,,,,,,,,,,,,,,,,,,,,,,,
,,,,,,1,0,1,0,1,X V Q F H G B L J M P D K C T S W R N Z,5fd2416e5061f30735e202e9,21,Mężczyzna,2022-06-11_09h42.44.026,task,2021.1.4,Win32,75.06380423,6299f149e92ead563fba08ef,62a4472ef1a68408b3a2c77f,,,,,,,,,,,,,,,,,,,,,,,,,,,,,,,,,,,,,,,,,,,,,,,,,,,,,,,,,,,,,,,,,,,,,,,,,,,,,,,,,,,,,,,,,,,,,,,,,,,,,
,,,,,,2,0,2,0,1,X V Q F H G B L J M P D K C T S W R N Z,5fd2416e5061f30735e202e9,21,Mężczyzna,2022-06-11_09h42.44.026,task,2021.1.4,Win32,75.06380423,6299f149e92ead563fba08ef,62a4472ef1a68408b3a2c77f,,,,,,,,,,,,,,,,,,,,,,,,,,,,,,,,,,,,,,,,,,,,,,,,,,,,,,,,,,,,,,,,,,,,,,,,,,,,,,,,,,,,,,,,,,,,,,,,,,,,,
,,,,,,3,0,3,0,1,X V Q F H G B L J M P D K C T S W R N Z,5fd2416e5061f30735e202e9,21,Mężczyzna,2022-06-11_09h42.44.026,task,2021.1.4,Win32,75.06380423,6299f149e92ead563fba08ef,62a4472ef1a68408b3a2c77f,,,,,,,,,,,,,,,,,,,,,,,,,,,,,,,,,,,,,,,,,,,,,,,,,,,,,,,,,,,,,,,,,,,,,,,,,,,,,,,,,,,,,,,,,,,,,,,,,,,,,
,,,,,,4,0,4,0,1,X V Q F H G B L J M P D K C T S W R N Z,5fd2416e5061f30735e202e9,21,Mężczyzna,2022-06-11_09h42.44.026,task,2021.1.4,Win32,75.06380423,6299f149e92ead563fba08ef,62a4472ef1a68408b3a2c77f,,,,,,,,,,,,,,,,,,,,,,,,,,,,,,,,,,,,,,,,,,,,,,,,,,,,,,,,,,,,,,,,,,,,,,,,,,,,,,,,,,,,,,,,,,,,,,,,,,,,,
,,,,,,5,0,5,0,1,X V Q F H G B L J M P D K C T S W R N Z,5fd2416e5061f30735e202e9,21,Mężczyzna,2022-06-11_09h42.44.026,task,2021.1.4,Win32,75.06380423,6299f149e92ead563fba08ef,62a4472ef1a68408b3a2c77f,,,,,,,,,,,,,,,,,,,,,,,,,,,,,,,,,,,,,,,,,,,,,,,,,,,,,,,,,,,,,,,,,,,,,,,,,,,,,,,,,,,,,,,,,,,,,,,,,,,,,
,,,,,,6,0,6,0,1,X V Q F H G B L J M P D K C T S W R N Z,5fd2416e5061f30735e202e9,21,Mężczyzna,2022-06-11_09h42.44.026,task,2021.1.4,Win32,75.06380423,6299f149e92ead563fba08ef,62a4472ef1a68408b3a2c77f,,,,,,,,,,,,,,,,,,,,,,,,,,,,,,,,,,,,,,,,,,,,,,,,,,,,,,,,,,,,,,,,,,,,,,,,,,,,,,,,,,,,,,,,,,,,,,,,,,,,,
,,,,,,,,,,,,5fd2416e5061f30735e202e9,21,Mężczyzna,2022-06-11_09h42.44.026,task,2021.1.4,Win32,75.06380423,6299f149e92ead563fba08ef,62a4472ef1a68408b3a2c77f,fntsgqv,"[""f"",""n"",""t"",""s"",""g"",""q"",""v""]","[1.7270999999642243,2.048000000000002,2.4478999999761584,2.78630000001192,3.6576999999880684,3.9730999999642336,4.49589999997616,5.486800000011925]",1,FNTSGQV,11,0,11,0,1,,,,,,,,,,,,,,,,,,,,,,,,,,,,,,,,,,,,,,,,,,,,,,,,,,,,,,,,,,,,,,,,,,,,,,,,,,,,,,,,,,,,,,,,,,,
,,,,,,0,0,0,0,1,X V Q F H G B L J M P D K C T S W R N Z,5fd2416e5061f30735e202e9,21,Mężczyzna,2022-06-11_09h42.44.026,task,2021.1.4,Win32,75.06380423,6299f149e92ead563fba08ef,62a4472ef1a68408b3a2c77f,,,,,,,,,,,,,,,,,,,,,,,,,,,,,,,,,,,,,,,,,,,,,,,,,,,,,,,,,,,,,,,,,,,,,,,,,,,,,,,,,,,,,,,,,,,,,,,,,,,,,
,,,,,,1,0,1,0,1,X V Q F H G B L J M P D K C T S W R N Z,5fd2416e5061f30735e202e9,21,Mężczyzna,2022-06-11_09h42.44.026,task,2021.1.4,Win32,75.06380423,6299f149e92ead563fba08ef,62a4472ef1a68408b3a2c77f,,,,,,,,,,,,,,,,,,,,,,,,,,,,,,,,,,,,,,,,,,,,,,,,,,,,,,,,,,,,,,,,,,,,,,,,,,,,,,,,,,,,,,,,,,,,,,,,,,,,,
,,,,,,2,0,2,0,1,X V Q F H G B L J M P D K C T S W R N Z,5fd2416e5061f30735e202e9,21,Mężczyzna,2022-06-11_09h42.44.026,task,2021.1.4,Win32,75.06380423,6299f149e92ead563fba08ef,62a4472ef1a68408b3a2c77f,,,,,,,,,,,,,,,,,,,,,,,,,,,,,,,,,,,,,,,,,,,,,,,,,,,,,,,,,,,,,,,,,,,,,,,,,,,,,,,,,,,,,,,,,,,,,,,,,,,,,
,,,,,,3,0,3,0,1,X V Q F H G B L J M P D K C T S W R N Z,5fd2416e5061f30735e202e9,21,Mężczyzna,2022-06-11_09h42.44.026,task,2021.1.4,Win32,75.06380423,6299f149e92ead563fba08ef,62a4472ef1a68408b3a2c77f,,,,,,,,,,,,,,,,,,,,,,,,,,,,,,,,,,,,,,,,,,,,,,,,,,,,,,,,,,,,,,,,,,,,,,,,,,,,,,,,,,,,,,,,,,,,,,,,,,,,,
,,,,,,4,0,4,0,1,X V Q F H G B L J M P D K C T S W R N Z,5fd2416e5061f30735e202e9,21,Mężczyzna,2022-06-11_09h42.44.026,task,2021.1.4,Win32,75.06380423,6299f149e92ead563fba08ef,62a4472ef1a68408b3a2c77f,,,,,,,,,,,,,,,,,,,,,,,,,,,,,,,,,,,,,,,,,,,,,,,,,,,,,,,,,,,,,,,,,,,,,,,,,,,,,,,,,,,,,,,,,,,,,,,,,,,,,
,,,,,,5,0,5,0,1,X V Q F H G B L J M P D K C T S W R N Z,5fd2416e5061f30735e202e9,21,Mężczyzna,2022-06-11_09h42.44.026,task,2021.1.4,Win32,75.06380423,6299f149e92ead563fba08ef,62a4472ef1a68408b3a2c77f,,,,,,,,,,,,,,,,,,,,,,,,,,,,,,,,,,,,,,,,,,,,,,,,,,,,,,,,,,,,,,,,,,,,,,,,,,,,,,,,,,,,,,,,,,,,,,,,,,,,,
,,,,,,6,0,6,0,1,X V Q F H G B L J M P D K C T S W R N Z,5fd2416e5061f30735e202e9,21,Mężczyzna,2022-06-11_09h42.44.026,task,2021.1.4,Win32,75.06380423,6299f149e92ead563fba08ef,62a4472ef1a68408b3a2c77f,,,,,,,,,,,,,,,,,,,,,,,,,,,,,,,,,,,,,,,,,,,,,,,,,,,,,,,,,,,,,,,,,,,,,,,,,,,,,,,,,,,,,,,,,,,,,,,,,,,,,
,,,,,,,,,,,,5fd2416e5061f30735e202e9,21,Mężczyzna,2022-06-11_09h42.44.026,task,2021.1.4,Win32,75.06380423,6299f149e92ead563fba08ef,62a4472ef1a68408b3a2c77f,tltlbqxm,"[""t"",""l"",""t"",""l"",""b"",""q"",""x"",""m""]","[1.9969000000357653,2.6671000000238507,3.010900000035747,3.394100000023826,3.8269000000357494,11.019900000035761,11.093100000023838,11.17340000003577,12.079900000035764]",0,TLTLBXM,12,0,12,0,1,,,,,,,,,,,,,,,,,,,,,,,,,,,,,,,,,,,,,,,,,,,,,,,,,,,,,,,,,,,,,,,,,,,,,,,,,,,,,,,,,,,,,,,,,,,
,,,,,,0,0,0,0,1,X V Q F H G B L J M P D K C T S W R N Z,5fd2416e5061f30735e202e9,21,Mężczyzna,2022-06-11_09h42.44.026,task,2021.1.4,Win32,75.06380423,6299f149e92ead563fba08ef,62a4472ef1a68408b3a2c77f,,,,,,,,,,,,,,,,,,,,,,,,,,,,,,,,,,,,,,,,,,,,,,,,,,,,,,,,,,,,,,,,,,,,,,,,,,,,,,,,,,,,,,,,,,,,,,,,,,,,,
,,,,,,1,0,1,0,1,X V Q F H G B L J M P D K C T S W R N Z,5fd2416e5061f30735e202e9,21,Mężczyzna,2022-06-11_09h42.44.026,task,2021.1.4,Win32,75.06380423,6299f149e92ead563fba08ef,62a4472ef1a68408b3a2c77f,,,,,,,,,,,,,,,,,,,,,,,,,,,,,,,,,,,,,,,,,,,,,,,,,,,,,,,,,,,,,,,,,,,,,,,,,,,,,,,,,,,,,,,,,,,,,,,,,,,,,
,,,,,,2,0,2,0,1,X V Q F H G B L J M P D K C T S W R N Z,5fd2416e5061f30735e202e9,21,Mężczyzna,2022-06-11_09h42.44.026,task,2021.1.4,Win32,75.06380423,6299f149e92ead563fba08ef,62a4472ef1a68408b3a2c77f,,,,,,,,,,,,,,,,,,,,,,,,,,,,,,,,,,,,,,,,,,,,,,,,,,,,,,,,,,,,,,,,,,,,,,,,,,,,,,,,,,,,,,,,,,,,,,,,,,,,,
,,,,,,3,0,3,0,1,X V Q F H G B L J M P D K C T S W R N Z,5fd2416e5061f30735e202e9,21,Mężczyzna,2022-06-11_09h42.44.026,task,2021.1.4,Win32,75.06380423,6299f149e92ead563fba08ef,62a4472ef1a68408b3a2c77f,,,,,,,,,,,,,,,,,,,,,,,,,,,,,,,,,,,,,,,,,,,,,,,,,,,,,,,,,,,,,,,,,,,,,,,,,,,,,,,,,,,,,,,,,,,,,,,,,,,,,
,,,,,,4,0,4,0,1,X V Q F H G B L J M P D K C T S W R N Z,5fd2416e5061f30735e202e9,21,Mężczyzna,2022-06-11_09h42.44.026,task,2021.1.4,Win32,75.06380423,6299f149e92ead563fba08ef,62a4472ef1a68408b3a2c77f,,,,,,,,,,,,,,,,,,,,,,,,,,,,,,,,,,,,,,,,,,,,,,,,,,,,,,,,,,,,,,,,,,,,,,,,,,,,,,,,,,,,,,,,,,,,,,,,,,,,,
,,,,,,5,0,5,0,1,X V Q F H G B L J M P D K C T S W R N Z,5fd2416e5061f30735e202e9,21,Mężczyzna,2022-06-11_09h42.44.026,task,2021.1.4,Win32,75.06380423,6299f149e92ead563fba08ef,62a4472ef1a68408b3a2c77f,,,,,,,,,,,,,,,,,,,,,,,,,,,,,,,,,,,,,,,,,,,,,,,,,,,,,,,,,,,,,,,,,,,,,,,,,,,,,,,,,,,,,,,,,,,,,,,,,,,,,
,,,,,,6,0,6,0,1,X V Q F H G B L J M P D K C T S W R N Z,5fd2416e5061f30735e202e9,21,Mężczyzna,2022-06-11_09h42.44.026,task,2021.1.4,Win32,75.06380423,6299f149e92ead563fba08ef,62a4472ef1a68408b3a2c77f,,,,,,,,,,,,,,,,,,,,,,,,,,,,,,,,,,,,,,,,,,,,,,,,,,,,,,,,,,,,,,,,,,,,,,,,,,,,,,,,,,,,,,,,,,,,,,,,,,,,,
,,,,,,,,,,,,5fd2416e5061f30735e202e9,21,Mężczyzna,2022-06-11_09h42.44.026,task,2021.1.4,Win32,75.06380423,6299f149e92ead563fba08ef,62a4472ef1a68408b3a2c77f,mgnbzhp,"[""m"",""g"",""n"",""b"",""z"",""h"",""p""]","[1.8532999999522985,2.3196999999880745,2.826399999976161,3.348699999988071,3.787699999988064,4.18759999996422,4.986899999976146,5.893499999999989]",0,MGMBZHP,13,0,13,0,1,,,,,,,,,,,,,,,,,,,,,,,,,,,,,,,,,,,,,,,,,,,,,,,,,,,,,,,,,,,,,,,,,,,,,,,,,,,,,,,,,,,,,,,,,,,
,,,,,,,,,,,,5fd2416e5061f30735e202e9,21,Mężczyzna,2022-06-11_09h42.44.026,task,2021.1.4,Win32,75.06380423,6299f149e92ead563fba08ef,62a4472ef1a68408b3a2c77f,,,,,,,,,,,space,8.2601,4,"[""4""]",1,[7.394900000035761],[7.394900000035761],0,0,0,4,1,Practice,5,(2x6) - 8,4,,,,,,,,,,,,,,,,,,,,,,,,,,,,,,,,,,,,,,,,,,,,,,,,,,,,,,,,,,,,,,,,,,,,,,,,,,,
,,,,,,,,,,,,5fd2416e5061f30735e202e9,21,Mężczyzna,2022-06-11_09h42.44.026,task,2021.1.4,Win32,75.06380423,6299f149e92ead563fba08ef,62a4472ef1a68408b3a2c77f,,,,,,,,,,,,,2,"[""2""]",1,[2.1256999999880577],"[7.394900000035761,2.1256999999880577]",0,1,1,2,1,Practice,3,(4x4) - 14,2,,,,,,,,,,,,,,,,,,,,,,,,,,,,,,,,,,,,,,,,,,,,,,,,,,,,,,,,,,,,,,,,,,,,,,,,,,,
,,,,,,,,,,,,5fd2416e5061f30735e202e9,21,Mężczyzna,2022-06-11_09h42.44.026,task,2021.1.4,Win32,75.06380423,6299f149e92ead563fba08ef,62a4472ef1a68408b3a2c77f,,,,,,,,,,,,,1,"[""1""]",1,[1.8306999999880702],"[7.394900000035761,2.1256999999880577,1.8306999999880702]",0,2,2,1,1,Practice,2,(4x4) - 15,1,,,,,,,,,,,,,,,,,,,,,,,,,,,,,,,,,,,,,,,,,,,,,,,,,,,,,,,,,,,,,,,,,,,,,,,,,,,
,,,,,,,,,,,,5fd2416e5061f30735e202e9,21,Mężczyzna,2022-06-11_09h42.44.026,task,2021.1.4,Win32,75.06380423,6299f149e92ead563fba08ef,62a4472ef1a68408b3a2c77f,,,,,,,,,,,,,6,"[""6""]",1,[2.2338000000119393],"[7.394900000035761,2.1256999999880577,1.8306999999880702,2.2338000000119393]",0,3,3,6,1,Practice,7,(25/5) + 1,6,,,,,,,,,,,,,,,,,,,,,,,,,,,,,,,,,,,,,,,,,,,,,,,,,,,,,,,,,,,,,,,,,,,,,,,,,,,
,,,,,,,,,,,,5fd2416e5061f30735e202e9,21,Mężczyzna,2022-06-11_09h42.44.026,task,2021.1.4,Win32,75.06380423,6299f149e92ead563fba08ef,62a4472ef1a68408b3a2c77f,,,,,,,,,,,,,8,"[""8""]",1,[2.346199999988073],"[7.394900000035761,2.1256999999880577,1.8306999999880702,2.2338000000119393,2.346199999988073]",0,4,4,8,1,Practice,9,(3x3) - 1,8,,,,,,,,,,,,,,,,,,,,,,,,,,,,,,,,,,,,,,,,,,,,,,,,,,,,,,,,,,,,,,,,,,,,,,,,,,,
,,,,,,,,,,,,5fd2416e5061f30735e202e9,21,Mężczyzna,2022-06-11_09h42.44.026,task,2021.1.4,Win32,75.06380423,6299f149e92ead563fba08ef,62a4472ef1a68408b3a2c77f,,,,,,,,,,,,,5,"[""5""]",1,[2.533599999964224],"[7.394900000035761,2.1256999999880577,1.8306999999880702,2.2338000000119393,2.346199999988073,2.533599999964224]",0,5,5,5,1,Practice,6,(4/2) + 3,5,,,,,,,,,,,,,,,,,,,,,,,,,,,,,,,,,,,,,,,,,,,,,,,,,,,,,,,,,,,,,,,,,,,,,,,,,,,
,,,,,,,,,,,,5fd2416e5061f30735e202e9,21,Mężczyzna,2022-06-11_09h42.44.026,task,2021.1.4,Win32,75.06380423,6299f149e92ead563fba08ef,62a4472ef1a68408b3a2c77f,,,,,,,,,,,,,0,"[""0""]",1,[1.5861000000238334],"[7.394900000035761,2.1256999999880577,1.8306999999880702,2.2338000000119393,2.346199999988073,2.533599999964224,1.5861000000238334]",0,6,6,0,1,Practice,1,(3x3) -  9,0,,,,,,,,,,,,,,,,,,,,,,,,,,,,,,,,,,,,,,,,,,,,,,,,,,,,,,,,,,,,,,,,,,,,,,,,,,,
,,,,,,,,,,,,5fd2416e5061f30735e202e9,21,Mężczyzna,2022-06-11_09h42.44.026,task,2021.1.4,Win32,75.06380423,6299f149e92ead563fba08ef,62a4472ef1a68408b3a2c77f,,,,,,,,,,,,,9,"[""9""]",1,[2.1168000000119207],"[7.394900000035761,2.1256999999880577,1.8306999999880702,2.2338000000119393,2.346199999988073,2.533599999964224,1.5861000000238334,2.1168000000119207]",0,7,7,9,1,Practice,10,(20/2) - 1,9,,,,,,,,,,,,,,,,,,,,,,,,,,,,,,,,,,,,,,,,,,,,,,,,,,,,,,,,,,,,,,,,,,,,,,,,,,,
,,,,,,,,,,,,5fd2416e5061f30735e202e9,21,Mężczyzna,2022-06-11_09h42.44.026,task,2021.1.4,Win32,75.06380423,6299f149e92ead563fba08ef,62a4472ef1a68408b3a2c77f,,,,,,,,,,,,,3,"[""3""]",1,[2.6680999999642268],"[7.394900000035761,2.1256999999880577,1.8306999999880702,2.2338000000119393,2.346199999988073,2.533599999964224,1.5861000000238334,2.1168000000119207,2.6680999999642268]",0,8,8,3,1,Practice,4,(8/4) + 1,3,,,,,,,,,,,,,,,,,,,,,,,,,,,,,,,,,,,,,,,,,,,,,,,,,,,,,,,,,,,,,,,,,,,,,,,,,,,
,,,,,,,,,,,,5fd2416e5061f30735e202e9,21,Mężczyzna,2022-06-11_09h42.44.026,task,2021.1.4,Win32,75.06380423,6299f149e92ead563fba08ef,62a4472ef1a68408b3a2c77f,,,,,,,,,,,,,7,"[""7""]",1,[3.7464999999999975],"[7.394900000035761,2.1256999999880577,1.8306999999880702,2.2338000000119393,2.346199999988073,2.533599999964224,1.5861000000238334,2.1168000000119207,2.6680999999642268,3.7464999999999975]",0,9,9,7,1,Practice,8,(5x5) - 18,7,,,,,,,,,,,,,,,,,,,,,,,,,,,,,,,,,,,,,,,,,,,,,,,,,,,,,,,,,,,,,,,,,,,,,,,,,,,
,,,,,,,,,,,,5fd2416e5061f30735e202e9,21,Mężczyzna,2022-06-11_09h42.44.026,task,2021.1.4,Win32,75.06380423,6299f149e92ead563fba08ef,62a4472ef1a68408b3a2c77f,,,,,,,,,,,,,,,,,,,,,,,,,,,1,28.5824,1.905493333,35.00173327,1.527563054,5.846606013,space,2.2141,0,0,0,0,1,,,,,,,,,,,,,,,,,,,,,,,,,,,,,,,,,,,,,,,,,,,,,,,,,,,,,,,,,,,,,,
,,,,,,,,,,,,5fd2416e5061f30735e202e9,21,Mężczyzna,2022-06-11_09h42.44.026,task,2021.1.4,Win32,75.06380423,6299f149e92ead563fba08ef,62a4472ef1a68408b3a2c77f,,,,,,,,,,,,,1,,,,,,,,,,Practice,2,(4x4) - 15,1,,,,,,,,,,,,,,space,96.4906,"[""1""]",1,[4.20980000001191],1,0,0,0,1,1,,,,,,,,,,,,,,,,,,,,,,,,,,,,,,,,,,,,,,,,,,,,,,,,,,,
,,,,,,,,,,,X V Q F H G B L J M P D K C T S W R N Z,5fd2416e5061f30735e202e9,21,Mężczyzna,2022-06-11_09h42.44.026,task,2021.1.4,Win32,75.06380423,6299f149e92ead563fba08ef,62a4472ef1a68408b3a2c77f,,,,,,,,,,,,,,,,,,,,,,,,,,,,,,,,,,,,,,,,,,,,,,,,,,,0,0,0,0,1,,,,,,,,,,,,,,,,,,,,,,,,,,,,,,,,,,,,,,,,,,,,,,
,,,,,,,,,,,,5fd2416e5061f30735e202e9,21,Mężczyzna,2022-06-11_09h42.44.026,task,2021.1.4,Win32,75.06380423,6299f149e92ead563fba08ef,62a4472ef1a68408b3a2c77f,,,,,,,,,,,,,6,,,,,,,,,,Practice,7,(25/5) + 1,6,,,,,,,,,,,,,,,,"[""6""]",1,[4.8805000000000405],1,0,0,0,6,1,,,,,,,,,,,,,,,,,,,,,,,,,,,,,,,,,,,,,,,,,,,,,,,,,,,
,,,,,,,,,,,X V Q F H G B L J M P D K C T S W R N Z,5fd2416e5061f30735e202e9,21,Mężczyzna,2022-06-11_09h42.44.026,task,2021.1.4,Win32,75.06380423,6299f149e92ead563fba08ef,62a4472ef1a68408b3a2c77f,,,,,,,,,,,,,,,,,,,,,,,,,,,,,,,,,,,,,,,,,,,,,,,,,,,1,0,1,0,1,,,,,,,,,,,,,,,,,,,,,,,,,,,,,,,,,,,,,,,,,,,,,,
,,,,,,,,,,,,5fd2416e5061f30735e202e9,21,Mężczyzna,2022-06-11_09h42.44.026,task,2021.1.4,Win32,75.06380423,6299f149e92ead563fba08ef,62a4472ef1a68408b3a2c77f,,,,,,,,,,,,,,,,,,,,,,,,,,,,,,,,,,,,,,,,,,,,,,,,,,,,,,,,zt,"[""z"",""t""]",0,"[2.302899999976205,2.5898999999761827,3.315899999976182]",1,0,0,0,0,1,,,,,,,,,,,,,,,,,,,,,,,,,,,,,,,,,,,,
,,,,,,,,,,,,5fd2416e5061f30735e202e9,21,Mężczyzna,2022-06-11_09h42.44.026,task,2021.1.4,Win32,75.06380423,6299f149e92ead563fba08ef,62a4472ef1a68408b3a2c77f,,,,,,,,,,,,,6,,,,,,,,,,Practice,7,(25/5) + 1,6,,,,,,,,,,,,,,,,"[""6""]",1,[2.3998000000119077],1,0,0,0,6,1,,,,,,,,,,,,,,,,,,,,,,,,,,,,,,,,,,,,,,,,,,,,,,,,,,,
,,,,,,,,,,,X V Q F H G B L J M P D K C T S W R N Z,5fd2416e5061f30735e202e9,21,Mężczyzna,2022-06-11_09h42.44.026,task,2021.1.4,Win32,75.06380423,6299f149e92ead563fba08ef,62a4472ef1a68408b3a2c77f,,,,,,,,,,,,,,,,,,,,,,,,,,,,,,,,,,,,,,,,,,,,,,,,,,,0,0,0,0,1,,,,,,,,,,,,,,,,,,,,,,,,,,,,,,,,,,,,,,,,,,,,,,
,,,,,,,,,,,,5fd2416e5061f30735e202e9,21,Mężczyzna,2022-06-11_09h42.44.026,task,2021.1.4,Win32,75.06380423,6299f149e92ead563fba08ef,62a4472ef1a68408b3a2c77f,,,,,,,,,,,,,7,,,,,,,,,,Practice,8,(5x5) - 18,7,,,,,,,,,,,,,,,,"[""7""]",1,[2.4120000000000346],1,0,0,0,7,1,,,,,,,,,,,,,,,,,,,,,,,,,,,,,,,,,,,,,,,,,,,,,,,,,,,
,,,,,,,,,,,X V Q F H G B L J M P D K C T S W R N Z,5fd2416e5061f30735e202e9,21,Mężczyzna,2022-06-11_09h42.44.026,task,2021.1.4,Win32,75.06380423,6299f149e92ead563fba08ef,62a4472ef1a68408b3a2c77f,,,,,,,,,,,,,,,,,,,,,,,,,,,,,,,,,,,,,,,,,,,,,,,,,,,1,0,1,0,1,,,,,,,,,,,,,,,,,,,,,,,,,,,,,,,,,,,,,,,,,,,,,,
,,,,,,,,,,,,5fd2416e5061f30735e202e9,21,Mężczyzna,2022-06-11_09h42.44.026,task,2021.1.4,Win32,75.06380423,6299f149e92ead563fba08ef,62a4472ef1a68408b3a2c77f,,,,,,,,,,,,,,,,,,,,,,,,,,,,,,,,,,,,,,,,,,,,,,,,,,,,,,,,zv,"[""z"",""v""]",0,"[2.1383999999761727,2.296300000011911,3.072499999999991]",1,1,0,1,0,1,,,,,,,,,,,,,,,,,,,,,,,,,,,,,,,,,,,,
,,,,,,,,,,,,5fd2416e5061f30735e202e9,21,Mężczyzna,2022-06-11_09h42.44.026,task,2021.1.4,Win32,75.06380423,6299f149e92ead563fba08ef,62a4472ef1a68408b3a2c77f,,,,,,,,,,,,,8,,,,,,,,,,Practice,9,(3x3) - 1,8,,,,,,,,,,,,,,,,"[""8""]",1,[2.8029999999999973],1,0,0,0,8,1,,,,,,,,,,,,,,,,,,,,,,,,,,,,,,,,,,,,,,,,,,,,,,,,,,,
,,,,,,,,,,,X V Q F H G B L J M P D K C T S W R N Z,5fd2416e5061f30735e202e9,21,Mężczyzna,2022-06-11_09h42.44.026,task,2021.1.4,Win32,75.06380423,6299f149e92ead563fba08ef,62a4472ef1a68408b3a2c77f,,,,,,,,,,,,,,,,,,,,,,,,,,,,,,,,,,,,,,,,,,,,,,,,,,,0,0,0,0,1,,,,,,,,,,,,,,,,,,,,,,,,,,,,,,,,,,,,,,,,,,,,,,
,,,,,,,,,,,,5fd2416e5061f30735e202e9,21,Mężczyzna,2022-06-11_09h42.44.026,task,2021.1.4,Win32,75.06380423,6299f149e92ead563fba08ef,62a4472ef1a68408b3a2c77f,,,,,,,,,,,,,5,,,,,,,,,,Practice,6,(4/2) + 3,5,,,,,,,,,,,,,,,,"[""5""]",1,[3.3556000000238555],1,0,0,0,5,1,,,,,,,,,,,,,,,,,,,,,,,,,,,,,,,,,,,,,,,,,,,,,,,,,,,
,,,,,,,,,,,X V Q F H G B L J M P D K C T S W R N Z,5fd2416e5061f30735e202e9,21,Mężczyzna,2022-06-11_09h42.44.026,task,2021.1.4,Win32,75.06380423,6299f149e92ead563fba08ef,62a4472ef1a68408b3a2c77f,,,,,,,,,,,,,,,,,,,,,,,,,,,,,,,,,,,,,,,,,,,,,,,,,,,1,0,1,0,1,,,,,,,,,,,,,,,,,,,,,,,,,,,,,,,,,,,,,,,,,,,,,,
,,,,,,,,,,,,5fd2416e5061f30735e202e9,21,Mężczyzna,2022-06-11_09h42.44.026,task,2021.1.4,Win32,75.06380423,6299f149e92ead563fba08ef,62a4472ef1a68408b3a2c77f,,,,,,,,,,,,,,,,,,,,,,,,,,,,,,,,,,,,,,,,,,,,,,,,,,,,,,,,zl,"[""z"",""l""]",0,"[2.4409000000357537,2.6498000000119077,3.1619000000357573]",1,2,0,2,0,1,,,,,,,,,,,,,,,,,,,,,,,,,,,,,,,,,,,,
,,,,,,,,,,,,5fd2416e5061f30735e202e9,21,Mężczyzna,2022-06-11_09h42.44.026,task,2021.1.4,Win32,75.06380423,6299f149e92ead563fba08ef,62a4472ef1a68408b3a2c77f,,,,,,,,,,,,,6,,,,,,,,,,Task,5,(2x3) + 0,6,,,,,,,,,,,,,,,,,,,1,,,,,,,,,,,,,,,,,,,,,space,24.376,"[""6""]",1,[3.3329000000357496],0,0,0,4,1,,,,,,,,,,,,,,,,,,,,,,,,,,
,,,,,,,,,,,X V Q F H G B L J M P D K C T S W R N Z,5fd2416e5061f30735e202e9,21,Mężczyzna,2022-06-11_09h42.44.026,task,2021.1.4,Win32,75.06380423,6299f149e92ead563fba08ef,62a4472ef1a68408b3a2c77f,,,,,,,,,,,,,,,,,,,,,,,,,,,,,,,,,,,,,,,,,,,,,,,,,,,,,,,,,,,,,,,,,,,,,,,,,,,,0,0,0,0,1,,,,,,,,,,,,,,,,,,,,,
,,,,,,,,,,,,5fd2416e5061f30735e202e9,21,Mężczyzna,2022-06-11_09h42.44.026,task,2021.1.4,Win32,75.06380423,6299f149e92ead563fba08ef,62a4472ef1a68408b3a2c77f,,,,,,,,,,,,,7,,,,,,,,,,Task,38,(4x6) - 17,7,,,,,,,,,,,,,,,,,,,1,,,,,,,,,,,,,,,,,,,,,,,"[""7""]",1,[5.5766999999880795],0,0,0,37,1,,,,,,,,,,,,,,,,,,,,,,,,,,
,,,,,,,,,,,X V Q F H G B L J M P D K C T S W R N Z,5fd2416e5061f30735e202e9,21,Mężczyzna,2022-06-11_09h42.44.026,task,2021.1.4,Win32,75.06380423,6299f149e92ead563fba08ef,62a4472ef1a68408b3a2c77f,,,,,,,,,,,,,,,,,,,,,,,,,,,,,,,,,,,,,,,,,,,,,,,,,,,,,,,,,,,,,,,,,,,,,,,,,,,,1,0,1,0,1,,,,,,,,,,,,,,,,,,,,,
,,,,,,,,,,,,5fd2416e5061f30735e202e9,21,Mężczyzna,2022-06-11_09h42.44.026,task,2021.1.4,Win32,75.06380423,6299f149e92ead563fba08ef,62a4472ef1a68408b3a2c77f,,,,,,,,,,,,,,,,,,,,,,,,,,,,,,,,,,,,,,,,,,,,,,,,,,,,,,,,,,,,,,,,,,,,,,,,,,,,,,,,,zg,"[""z"",""g""]",0,"[2.245199999988074,2.4471999999880722,3.122300000011876]",1,ZG,0,0,0,0,1,,,,,,,,,,
,,,,,,,,,,,,5fd2416e5061f30735e202e9,21,Mężczyzna,2022-06-11_09h42.44.026,task,2021.1.4,Win32,75.06380423,6299f149e92ead563fba08ef,62a4472ef1a68408b3a2c77f,,,,,,,,,,,,,5,,,,,,,,,,Task,29,(3x8) - 19 ,5,,,,,,,,,,,,,,,,,,,1,,,,,,,,,,,,,,,,,,,,,,,"[""5""]",1,[5.615300000011928],0,0,0,28,1,,,,,,,,,,,,,,,,,,,,,,,,,,
,,,,,,,,,,,X V Q F H G B L J M P D K C T S W R N Z,5fd2416e5061f30735e202e9,21,Mężczyzna,2022-06-11_09h42.44.026,task,2021.1.4,Win32,75.06380423,6299f149e92ead563fba08ef,62a4472ef1a68408b3a2c77f,,,,,,,,,,,,,,,,,,,,,,,,,,,,,,,,,,,,,,,,,,,,,,,,,,,,,,,,,,,,,,,,,,,,,,,,,,,,0,0,0,0,1,,,,,,,,,,,,,,,,,,,,,
,,,,,,,,,,,,5fd2416e5061f30735e202e9,21,Mężczyzna,2022-06-11_09h42.44.026,task,2021.1.4,Win32,75.06380423,6299f149e92ead563fba08ef,62a4472ef1a68408b3a2c77f,,,,,,,,,,,,,2,,,,,,,,,,Task,10,(2x5) - 8,2,,,,,,,,,,,,,,,,,,,1,,,,,,,,,,,,,,,,,,,,,,,"[""2""]",1,[3.1990999999642327],0,0,0,9,1,,,,,,,,,,,,,,,,,,,,,,,,,,
,,,,,,,,,,,X V Q F H G B L J M P D K C T S W R N Z,5fd2416e5061f30735e202e9,21,Mężczyzna,2022-06-11_09h42.44.026,task,2021.1.4,Win32,75.06380423,6299f149e92ead563fba08ef,62a4472ef1a68408b3a2c77f,,,,,,,,,,,,,,,,,,,,,,,,,,,,,,,,,,,,,,,,,,,,,,,,,,,,,,,,,,,,,,,,,,,,,,,,,,,,1,0,1,0,1,,,,,,,,,,,,,,,,,,,,,
,,,,,,,,,,,,5fd2416e5061f30735e202e9,21,Mężczyzna,2022-06-11_09h42.44.026,task,2021.1.4,Win32,75.06380423,6299f149e92ead563fba08ef,62a4472ef1a68408b3a2c77f,,,,,,,,,,,,,4,,,,,,,,,,Task,11,(18/3) - 2,4,,,,,,,,,,,,,,,,,,,1,,,,,,,,,,,,,,,,,,,,,,,"[""4""]",1,[3.279700000047683],0,0,0,10,1,,,,,,,,,,,,,,,,,,,,,,,,,,
,,,,,,,,,,,X V Q F H G B L J M P D K C T S W R N Z,5fd2416e5061f30735e202e9,21,Mężczyzna,2022-06-11_09h42.44.026,task,2021.1.4,Win32,75.06380423,6299f149e92ead563fba08ef,62a4472ef1a68408b3a2c77f,,,,,,,,,,,,,,,,,,,,,,,,,,,,,,,,,,,,,,,,,,,,,,,,,,,,,,,,,,,,,,,,,,,,,,,,,,,,2,0,2,0,1,,,,,,,,,,,,,,,,,,,,,
,,,,,,,,,,,,5fd2416e5061f30735e202e9,21,Mężczyzna,2022-06-11_09h42.44.026,task,2021.1.4,Win32,75.06380423,6299f149e92ead563fba08ef,62a4472ef1a68408b3a2c77f,,,,,,,,,,,,,,,,,,,,,,,,,,,,,,,,,,,,,,,,,,,,,,,,,,,,,,,,,,,,,,,,,,,,,,,,,,,,,,,,,hzf,"[""h"",""z"",""f""]",0,"[1.972900000035736,2.3389999999999986,2.6878000000119187,3.452900000035754]",1,HZF,1,0,1,0,1,,,,,,,,,,
,,,,,,,,,,,,5fd2416e5061f30735e202e9,21,Mężczyzna,2022-06-11_09h42.44.026,task,2021.1.4,Win32,75.06380423,6299f149e92ead563fba08ef,62a4472ef1a68408b3a2c77f,,,,,,,,,,,,,0,,,,,,,,,,Task,33,(1/1) - 1,0,,,,,,,,,,,,,,,,,,,1,,,,,,,,,,,,,,,,,,,,,,,"[""0""]",1,[2.6306000000238328],0,0,0,32,1,,,,,,,,,,,,,,,,,,,,,,,,,,
,,,,,,,,,,,X V Q F H G B L J M P D K C T S W R N Z,5fd2416e5061f30735e202e9,21,Mężczyzna,2022-06-11_09h42.44.026,task,2021.1.4,Win32,75.06380423,6299f149e92ead563fba08ef,62a4472ef1a68408b3a2c77f,,,,,,,,,,,,,,,,,,,,,,,,,,,,,,,,,,,,,,,,,,,,,,,,,,,,,,,,,,,,,,,,,,,,,,,,,,,,0,0,0,0,1,,,,,,,,,,,,,,,,,,,,,
,,,,,,,,,,,,5fd2416e5061f30735e202e9,21,Mężczyzna,2022-06-11_09h42.44.026,task,2021.1.4,Win32,75.06380423,6299f149e92ead563fba08ef,62a4472ef1a68408b3a2c77f,,,,,,,,,,,,,5,,,,,,,,,,Task,29,(3x8) - 19 ,5,,,,,,,,,,,,,,,,,,,1,,,,,,,,,,,,,,,,,,,,,,,"[""5""]",1,[2.686599999964244],0,0,0,28,1,,,,,,,,,,,,,,,,,,,,,,,,,,
,,,,,,,,,,,X V Q F H G B L J M P D K C T S W R N Z,5fd2416e5061f30735e202e9,21,Mężczyzna,2022-06-11_09h42.44.026,task,2021.1.4,Win32,75.06380423,6299f149e92ead563fba08ef,62a4472ef1a68408b3a2c77f,,,,,,,,,,,,,,,,,,,,,,,,,,,,,,,,,,,,,,,,,,,,,,,,,,,,,,,,,,,,,,,,,,,,,,,,,,,,1,0,1,0,1,,,,,,,,,,,,,,,,,,,,,
,,,,,,,,,,,,5fd2416e5061f30735e202e9,21,Mężczyzna,2022-06-11_09h42.44.026,task,2021.1.4,Win32,75.06380423,6299f149e92ead563fba08ef,62a4472ef1a68408b3a2c77f,,,,,,,,,,,,,4,,,,,,,,,,Task,28,(2x5) - 6,4,,,,,,,,,,,,,,,,,,,1,,,,,,,,,,,,,,,,,,,,,,,"[""4""]",1,[2.1891000000238705],0,0,0,27,1,,,,,,,,,,,,,,,,,,,,,,,,,,
,,,,,,,,,,,X V Q F H G B L J M P D K C T S W R N Z,5fd2416e5061f30735e202e9,21,Mężczyzna,2022-06-11_09h42.44.026,task,2021.1.4,Win32,75.06380423,6299f149e92ead563fba08ef,62a4472ef1a68408b3a2c77f,,,,,,,,,,,,,,,,,,,,,,,,,,,,,,,,,,,,,,,,,,,,,,,,,,,,,,,,,,,,,,,,,,,,,,,,,,,,2,0,2,0,1,,,,,,,,,,,,,,,,,,,,,
,,,,,,,,,,,,5fd2416e5061f30735e202e9,21,Mężczyzna,2022-06-11_09h42.44.026,task,2021.1.4,Win32,75.06380423,6299f149e92ead563fba08ef,62a4472ef1a68408b3a2c77f,,,,,,,,,,,,,4,,,,,,,,,,Task,28,(2x5) - 6,4,,,,,,,,,,,,,,,,,,,1,,,,,,,,,,,,,,,,,,,,,,,"[""4""]",1,[2.3348999999761304],0,0,0,27,1,,,,,,,,,,,,,,,,,,,,,,,,,,
,,,,,,,,,,,X V Q F H G B L J M P D K C T S W R N Z,5fd2416e5061f30735e202e9,21,Mężczyzna,2022-06-11_09h42.44.026,task,2021.1.4,Win32,75.06380423,6299f149e92ead563fba08ef,62a4472ef1a68408b3a2c77f,,,,,,,,,,,,,,,,,,,,,,,,,,,,,,,,,,,,,,,,,,,,,,,,,,,,,,,,,,,,,,,,,,,,,,,,,,,,3,0,3,0,1,,,,,,,,,,,,,,,,,,,,,
,,,,,,,,,,,,5fd2416e5061f30735e202e9,21,Mężczyzna,2022-06-11_09h42.44.026,task,2021.1.4,Win32,75.06380423,6299f149e92ead563fba08ef,62a4472ef1a68408b3a2c77f,,,,,,,,,,,,,,,,,,,,,,,,,,,,,,,,,,,,,,,,,,,,,,,,,,,,,,,,,,,,,,,,,,,,,,,,,,,,,,,,,kdvx,"[""k"",""d"",""v"",""x""]",0,"[2.0889999999999986,2.4038999999761472,2.6910999999642513,2.973000000000013,4.013799999952312]",1,KDVX,2,0,2,0,1,,,,,,,,,,
,,,,,,,,,,,,5fd2416e5061f30735e202e9,21,Mężczyzna,2022-06-11_09h42.44.026,task,2021.1.4,Win32,75.06380423,6299f149e92ead563fba08ef,62a4472ef1a68408b3a2c77f,,,,,,,,,,,,,,,,,,,,,,,Task,16,(3x8) - 15,9,,,,,,,,,,,,,,,,,,,0,,,,,,,,,,,,,,,,,,,,,,,,0,,0,0,0,15,1,,,,,,,,,,,,,,,,,,,,,,,,,,
,,,,,,,,,,,,5fd2416e5061f30735e202e9,21,Mężczyzna,2022-06-11_09h42.44.026,task,2021.1.4,Win32,75.06380423,6299f149e92ead563fba08ef,62a4472ef1a68408b3a2c77f,,,,,,,,,,,,,5,,,,,,,,,,Task,29,(3x8) - 19 ,5,,,,,,,,,,,,,,,,,,,1,,,,,,,,,,,,,,,,,,,,,,,"[""5""]",1,[2.7545000000000073],0,1,1,28,1,,,,,,,,,,,,,,,,,,,,,,,,,,
,,,,,,,,,,,X V Q F H G B L J M P D K C T S W R N Z,5fd2416e5061f30735e202e9,21,Mężczyzna,2022-06-11_09h42.44.026,task,2021.1.4,Win32,75.06380423,6299f149e92ead563fba08ef,62a4472ef1a68408b3a2c77f,,,,,,,,,,,,,,,,,,,,,,,,,,,,,,,,,,,,,,,,,,,,,,,,,,,,,,,,,,,,,,,,,,,,,,,,,,,,0,0,0,0,1,,,,,,,,,,,,,,,,,,,,,
,,,,,,,,,,,,5fd2416e5061f30735e202e9,21,Mężczyzna,2022-06-11_09h42.44.026,task,2021.1.4,Win32,75.06380423,6299f149e92ead563fba08ef,62a4472ef1a68408b3a2c77f,,,,,,,,,,,,,7,,,,,,,,,,Task,6,(12/2) + 1,7,,,,,,,,,,,,,,,,,,,1,,,,,,,,,,,,,,,,,,,,,,,"[""7""]",1,[2.3211999999881527],0,0,0,5,1,,,,,,,,,,,,,,,,,,,,,,,,,,
,,,,,,,,,,,X V Q F H G B L J M P D K C T S W R N Z,5fd2416e5061f30735e202e9,21,Mężczyzna,2022-06-11_09h42.44.026,task,2021.1.4,Win32,75.06380423,6299f149e92ead563fba08ef,62a4472ef1a68408b3a2c77f,,,,,,,,,,,,,,,,,,,,,,,,,,,,,,,,,,,,,,,,,,,,,,,,,,,,,,,,,,,,,,,,,,,,,,,,,,,,1,0,1,0,1,,,,,,,,,,,,,,,,,,,,,
,,,,,,,,,,,,5fd2416e5061f30735e202e9,21,Mężczyzna,2022-06-11_09h42.44.026,task,2021.1.4,Win32,75.06380423,6299f149e92ead563fba08ef,62a4472ef1a68408b3a2c77f,,,,,,,,,,,,,4,,,,,,,,,,Task,21,(10/2) - 1,4,,,,,,,,,,,,,,,,,,,1,,,,,,,,,,,,,,,,,,,,,,,"[""4""]",1,[3.0685000000000855],0,0,0,20,1,,,,,,,,,,,,,,,,,,,,,,,,,,
,,,,,,,,,,,X V Q F H G B L J M P D K C T S W R N Z,5fd2416e5061f30735e202e9,21,Mężczyzna,2022-06-11_09h42.44.026,task,2021.1.4,Win32,75.06380423,6299f149e92ead563fba08ef,62a4472ef1a68408b3a2c77f,,,,,,,,,,,,,,,,,,,,,,,,,,,,,,,,,,,,,,,,,,,,,,,,,,,,,,,,,,,,,,,,,,,,,,,,,,,,2,0,2,0,1,,,,,,,,,,,,,,,,,,,,,
,,,,,,,,,,,,5fd2416e5061f30735e202e9,21,Mężczyzna,2022-06-11_09h42.44.026,task,2021.1.4,Win32,75.06380423,6299f149e92ead563fba08ef,62a4472ef1a68408b3a2c77f,,,,,,,,,,,,,7,,,,,,,,,,Task,31,(4/2) + 5,7,,,,,,,,,,,,,,,,,,,1,,,,,,,,,,,,,,,,,,,,,,,"[""7""]",1,[3.2567000000476582],0,0,0,30,1,,,,,,,,,,,,,,,,,,,,,,,,,,
,,,,,,,,,,,X V Q F H G B L J M P D K C T S W R N Z,5fd2416e5061f30735e202e9,21,Mężczyzna,2022-06-11_09h42.44.026,task,2021.1.4,Win32,75.06380423,6299f149e92ead563fba08ef,62a4472ef1a68408b3a2c77f,,,,,,,,,,,,,,,,,,,,,,,,,,,,,,,,,,,,,,,,,,,,,,,,,,,,,,,,,,,,,,,,,,,,,,,,,,,,3,0,3,0,1,,,,,,,,,,,,,,,,,,,,,
,,,,,,,,,,,,5fd2416e5061f30735e202e9,21,Mężczyzna,2022-06-11_09h42.44.026,task,2021.1.4,Win32,75.06380423,6299f149e92ead563fba08ef,62a4472ef1a68408b3a2c77f,,,,,,,,,,,,,7,,,,,,,,,,Task,31,(4/2) + 5,7,,,,,,,,,,,,,,,,,,,1,,,,,,,,,,,,,,,,,,,,,,,"[""7""]",1,[2.2143999999761945],0,0,0,30,1,,,,,,,,,,,,,,,,,,,,,,,,,,
,,,,,,,,,,,X V Q F H G B L J M P D K C T S W R N Z,5fd2416e5061f30735e202e9,21,Mężczyzna,2022-06-11_09h42.44.026,task,2021.1.4,Win32,75.06380423,6299f149e92ead563fba08ef,62a4472ef1a68408b3a2c77f,,,,,,,,,,,,,,,,,,,,,,,,,,,,,,,,,,,,,,,,,,,,,,,,,,,,,,,,,,,,,,,,,,,,,,,,,,,,4,0,4,0,1,,,,,,,,,,,,,,,,,,,,,
,,,,,,,,,,,,5fd2416e5061f30735e202e9,21,Mężczyzna,2022-06-11_09h42.44.026,task,2021.1.4,Win32,75.06380423,6299f149e92ead563fba08ef,62a4472ef1a68408b3a2c77f,,,,,,,,,,,,,,,,,,,,,,,,,,,,,,,,,,,,,,,,,,,,,,,,,,,,,,,,,,,,,,,,,,,,,,,,,,,,,,,,,jfplm,"[""j"",""f"",""p"",""l"",""m""]",0,"[2.7194999999999254,3.0465000000000373,3.9125000000000227,4.28449999999998,4.565499999999929,5.1392999999523]",1,JFPLM,3,0,3,0,1,,,,,,,,,,
,,,,,,,,,,,,5fd2416e5061f30735e202e9,21,Mężczyzna,2022-06-11_09h42.44.026,task,2021.1.4,Win32,75.06380423,6299f149e92ead563fba08ef,62a4472ef1a68408b3a2c77f,,,,,,,,,,,,,,,,,,,,,,,Task,19,(6/2) - 1,2,,,,,,,,,,,,,,,,,,,0,,,,,,,,,,,,,,,,,,,,,,,,0,,0,0,0,18,1,,,,,,,,,,,,,,,,,,,,,,,,,,
,,,,,,,,,,,,5fd2416e5061f30735e202e9,21,Mężczyzna,2022-06-11_09h42.44.026,task,2021.1.4,Win32,75.06380423,6299f149e92ead563fba08ef,62a4472ef1a68408b3a2c77f,,,,,,,,,,,,,1,,,,,,,,,,Task,34,(9/3) - 2,1,,,,,,,,,,,,,,,,,,,1,,,,,,,,,,,,,,,,,,,,,,,"[""1""]",1,[3.0991000000238955],0,1,1,33,1,,,,,,,,,,,,,,,,,,,,,,,,,,
,,,,,,,,,,,X V Q F H G B L J M P D K C T S W R N Z,5fd2416e5061f30735e202e9,21,Mężczyzna,2022-06-11_09h42.44.026,task,2021.1.4,Win32,75.06380423,6299f149e92ead563fba08ef,62a4472ef1a68408b3a2c77f,,,,,,,,,,,,,,,,,,,,,,,,,,,,,,,,,,,,,,,,,,,,,,,,,,,,,,,,,,,,,,,,,,,,,,,,,,,,0,0,0,0,1,,,,,,,,,,,,,,,,,,,,,
,,,,,,,,,,,,5fd2416e5061f30735e202e9,21,Mężczyzna,2022-06-11_09h42.44.026,task,2021.1.4,Win32,75.06380423,6299f149e92ead563fba08ef,62a4472ef1a68408b3a2c77f,,,,,,,,,,,,,8,,,,,,,,,,Task,7,(3x7) - 12,9,,,,,,,,,,,,,,,,,,,0,,,,,,,,,,,,,,,,,,,,,,,"[""8""]",0,[3.871600000023818],0,0,0,6,1,,,,,,,,,,,,,,,,,,,,,,,,,,
,,,,,,,,,,,,5fd2416e5061f30735e202e9,21,Mężczyzna,2022-06-11_09h42.44.026,task,2021.1.4,Win32,75.06380423,6299f149e92ead563fba08ef,62a4472ef1a68408b3a2c77f,,,,,,,,,,,,,6,,,,,,,,,,Task,5,(2x3) + 0,6,,,,,,,,,,,,,,,,,,,1,,,,,,,,,,,,,,,,,,,,,,,"[""6""]",1,[2.0255999999642427],0,1,1,4,1,,,,,,,,,,,,,,,,,,,,,,,,,,
,,,,,,,,,,,X V Q F H G B L J M P D K C T S W R N Z,5fd2416e5061f30735e202e9,21,Mężczyzna,2022-06-11_09h42.44.026,task,2021.1.4,Win32,75.06380423,6299f149e92ead563fba08ef,62a4472ef1a68408b3a2c77f,,,,,,,,,,,,,,,,,,,,,,,,,,,,,,,,,,,,,,,,,,,,,,,,,,,,,,,,,,,,,,,,,,,,,,,,,,,,1,0,1,0,1,,,,,,,,,,,,,,,,,,,,,
,,,,,,,,,,,,5fd2416e5061f30735e202e9,21,Mężczyzna,2022-06-11_09h42.44.026,task,2021.1.4,Win32,75.06380423,6299f149e92ead563fba08ef,62a4472ef1a68408b3a2c77f,,,,,,,,,,,,,4,,,,,,,,,,Task,28,(2x5) - 6,4,,,,,,,,,,,,,,,,,,,1,,,,,,,,,,,,,,,,,,,,,,,"[""4""]",1,[2.195400000035761],0,0,0,27,1,,,,,,,,,,,,,,,,,,,,,,,,,,
,,,,,,,,,,,X V Q F H G B L J M P D K C T S W R N Z,5fd2416e5061f30735e202e9,21,Mężczyzna,2022-06-11_09h42.44.026,task,2021.1.4,Win32,75.06380423,6299f149e92ead563fba08ef,62a4472ef1a68408b3a2c77f,,,,,,,,,,,,,,,,,,,,,,,,,,,,,,,,,,,,,,,,,,,,,,,,,,,,,,,,,,,,,,,,,,,,,,,,,,,,2,0,2,0,1,,,,,,,,,,,,,,,,,,,,,
,,,,,,,,,,,,5fd2416e5061f30735e202e9,21,Mężczyzna,2022-06-11_09h42.44.026,task,2021.1.4,Win32,75.06380423,6299f149e92ead563fba08ef,62a4472ef1a68408b3a2c77f,,,,,,,,,,,,,7,,,,,,,,,,Task,31,(4/2) + 5,7,,,,,,,,,,,,,,,,,,,1,,,,,,,,,,,,,,,,,,,,,,,"[""7""]",1,[2.51110000002393],0,0,0,30,1,,,,,,,,,,,,,,,,,,,,,,,,,,
,,,,,,,,,,,X V Q F H G B L J M P D K C T S W R N Z,5fd2416e5061f30735e202e9,21,Mężczyzna,2022-06-11_09h42.44.026,task,2021.1.4,Win32,75.06380423,6299f149e92ead563fba08ef,62a4472ef1a68408b3a2c77f,,,,,,,,,,,,,,,,,,,,,,,,,,,,,,,,,,,,,,,,,,,,,,,,,,,,,,,,,,,,,,,,,,,,,,,,,,,,3,0,3,0,1,,,,,,,,,,,,,,,,,,,,,
,,,,,,,,,,,,5fd2416e5061f30735e202e9,21,Mężczyzna,2022-06-11_09h42.44.026,task,2021.1.4,Win32,75.06380423,6299f149e92ead563fba08ef,62a4472ef1a68408b3a2c77f,,,,,,,,,,,,,6,,,,,,,,,,Task,30,(6/3) + 4 ,6,,,,,,,,,,,,,,,,,,,1,,,,,,,,,,,,,,,,,,,,,,,"[""6""]",1,[2.587900000035688],0,0,0,29,1,,,,,,,,,,,,,,,,,,,,,,,,,,
,,,,,,,,,,,X V Q F H G B L J M P D K C T S W R N Z,5fd2416e5061f30735e202e9,21,Mężczyzna,2022-06-11_09h42.44.026,task,2021.1.4,Win32,75.06380423,6299f149e92ead563fba08ef,62a4472ef1a68408b3a2c77f,,,,,,,,,,,,,,,,,,,,,,,,,,,,,,,,,,,,,,,,,,,,,,,,,,,,,,,,,,,,,,,,,,,,,,,,,,,,4,0,4,0,1,,,,,,,,,,,,,,,,,,,,,
,,,,,,,,,,,,5fd2416e5061f30735e202e9,21,Mężczyzna,2022-06-11_09h42.44.026,task,2021.1.4,Win32,75.06380423,6299f149e92ead563fba08ef,62a4472ef1a68408b3a2c77f,,,,,,,,,,,,,5,,,,,,,,,,Task,22,(3x1) + 2,5,,,,,,,,,,,,,,,,,,,1,,,,,,,,,,,,,,,,,,,,,,,"[""5""]",1,[2.2140000000000555],0,0,0,21,1,,,,,,,,,,,,,,,,,,,,,,,,,,
,,,,,,,,,,,X V Q F H G B L J M P D K C T S W R N Z,5fd2416e5061f30735e202e9,21,Mężczyzna,2022-06-11_09h42.44.026,task,2021.1.4,Win32,75.06380423,6299f149e92ead563fba08ef,62a4472ef1a68408b3a2c77f,,,,,,,,,,,,,,,,,,,,,,,,,,,,,,,,,,,,,,,,,,,,,,,,,,,,,,,,,,,,,,,,,,,,,,,,,,,,5,0,5,0,1,,,,,,,,,,,,,,,,,,,,,
,,,,,,,,,,,,5fd2416e5061f30735e202e9,21,Mężczyzna,2022-06-11_09h42.44.026,task,2021.1.4,Win32,75.06380423,6299f149e92ead563fba08ef,62a4472ef1a68408b3a2c77f,,,,,,,,,,,,,,,,,,,,,,,,,,,,,,,,,,,,,,,,,,,,,,,,,,,,,,,,,,,,,,,,,,,,,,,,,,,,,,,,,ltptzn,"[""l"",""t"",""p"",""t"",""z"",""n""]",0,"[2.3174999999999955,2.7065000000000055,4.208399999976223,4.884500000000003,5.71160000002385,6.049800000011942,7.012800000012021]",1,LTPTZN,4,0,4,0,1,,,,,,,,,,
,,,,,,,,,,,,5fd2416e5061f30735e202e9,21,Mężczyzna,2022-06-11_09h42.44.026,task,2021.1.4,Win32,75.06380423,6299f149e92ead563fba08ef,62a4472ef1a68408b3a2c77f,,,,,,,,,,,,,9,,,,,,,,,,Task,24,(2x2) + 5,9,,,,,,,,,,,,,,,,,,,1,,,,,,,,,,,,,,,,,,,,,,,"[""9""]",1,[2.4406999999880554],0,0,0,23,1,,,,,,,,,,,,,,,,,,,,,,,,,,
,,,,,,,,,,,X V Q F H G B L J M P D K C T S W R N Z,5fd2416e5061f30735e202e9,21,Mężczyzna,2022-06-11_09h42.44.026,task,2021.1.4,Win32,75.06380423,6299f149e92ead563fba08ef,62a4472ef1a68408b3a2c77f,,,,,,,,,,,,,,,,,,,,,,,,,,,,,,,,,,,,,,,,,,,,,,,,,,,,,,,,,,,,,,,,,,,,,,,,,,,,0,0,0,0,1,,,,,,,,,,,,,,,,,,,,,
,,,,,,,,,,,,5fd2416e5061f30735e202e9,21,Mężczyzna,2022-06-11_09h42.44.026,task,2021.1.4,Win32,75.06380423,6299f149e92ead563fba08ef,62a4472ef1a68408b3a2c77f,,,,,,,,,,,,,8,,,,,,,,,,Task,15,(3x7) - 13,8,,,,,,,,,,,,,,,,,,,1,,,,,,,,,,,,,,,,,,,,,,,"[""8""]",1,[3.1499000000357],0,0,0,14,1,,,,,,,,,,,,,,,,,,,,,,,,,,
,,,,,,,,,,,X V Q F H G B L J M P D K C T S W R N Z,5fd2416e5061f30735e202e9,21,Mężczyzna,2022-06-11_09h42.44.026,task,2021.1.4,Win32,75.06380423,6299f149e92ead563fba08ef,62a4472ef1a68408b3a2c77f,,,,,,,,,,,,,,,,,,,,,,,,,,,,,,,,,,,,,,,,,,,,,,,,,,,,,,,,,,,,,,,,,,,,,,,,,,,,1,0,1,0,1,,,,,,,,,,,,,,,,,,,,,
,,,,,,,,,,,,5fd2416e5061f30735e202e9,21,Mężczyzna,2022-06-11_09h42.44.026,task,2021.1.4,Win32,75.06380423,6299f149e92ead563fba08ef,62a4472ef1a68408b3a2c77f,,,,,,,,,,,,,6,,,,,,,,,,Task,37,(3/3) + 5,6,,,,,,,,,,,,,,,,,,,1,,,,,,,,,,,,,,,,,,,,,,,"[""6""]",1,[3.4136999999881255],0,0,0,36,1,,,,,,,,,,,,,,,,,,,,,,,,,,
,,,,,,,,,,,X V Q F H G B L J M P D K C T S W R N Z,5fd2416e5061f30735e202e9,21,Mężczyzna,2022-06-11_09h42.44.026,task,2021.1.4,Win32,75.06380423,6299f149e92ead563fba08ef,62a4472ef1a68408b3a2c77f,,,,,,,,,,,,,,,,,,,,,,,,,,,,,,,,,,,,,,,,,,,,,,,,,,,,,,,,,,,,,,,,,,,,,,,,,,,,2,0,2,0,1,,,,,,,,,,,,,,,,,,,,,
,,,,,,,,,,,,5fd2416e5061f30735e202e9,21,Mężczyzna,2022-06-11_09h42.44.026,task,2021.1.4,Win32,75.06380423,6299f149e92ead563fba08ef,62a4472ef1a68408b3a2c77f,,,,,,,,,,,,,6,,,,,,,,,,Task,5,(2x3) + 0,6,,,,,,,,,,,,,,,,,,,1,,,,,,,,,,,,,,,,,,,,,,,"[""6""]",1,[2.389300000011872],0,0,0,4,1,,,,,,,,,,,,,,,,,,,,,,,,,,
,,,,,,,,,,,X V Q F H G B L J M P D K C T S W R N Z,5fd2416e5061f30735e202e9,21,Mężczyzna,2022-06-11_09h42.44.026,task,2021.1.4,Win32,75.06380423,6299f149e92ead563fba08ef,62a4472ef1a68408b3a2c77f,,,,,,,,,,,,,,,,,,,,,,,,,,,,,,,,,,,,,,,,,,,,,,,,,,,,,,,,,,,,,,,,,,,,,,,,,,,,3,0,3,0,1,,,,,,,,,,,,,,,,,,,,,
,,,,,,,,,,,,5fd2416e5061f30735e202e9,21,Mężczyzna,2022-06-11_09h42.44.026,task,2021.1.4,Win32,75.06380423,6299f149e92ead563fba08ef,62a4472ef1a68408b3a2c77f,,,,,,,,,,,,,4,,,,,,,,,,Task,11,(18/3) - 2,4,,,,,,,,,,,,,,,,,,,1,,,,,,,,,,,,,,,,,,,,,,,"[""4""]",1,[2.8380999999642427],0,0,0,10,1,,,,,,,,,,,,,,,,,,,,,,,,,,
,,,,,,,,,,,X V Q F H G B L J M P D K C T S W R N Z,5fd2416e5061f30735e202e9,21,Mężczyzna,2022-06-11_09h42.44.026,task,2021.1.4,Win32,75.06380423,6299f149e92ead563fba08ef,62a4472ef1a68408b3a2c77f,,,,,,,,,,,,,,,,,,,,,,,,,,,,,,,,,,,,,,,,,,,,,,,,,,,,,,,,,,,,,,,,,,,,,,,,,,,,4,0,4,0,1,,,,,,,,,,,,,,,,,,,,,
,,,,,,,,,,,,5fd2416e5061f30735e202e9,21,Mężczyzna,2022-06-11_09h42.44.026,task,2021.1.4,Win32,75.06380423,6299f149e92ead563fba08ef,62a4472ef1a68408b3a2c77f,,,,,,,,,,,,,2,,,,,,,,,,Task,26,(2x9) - 16,2,,,,,,,,,,,,,,,,,,,1,,,,,,,,,,,,,,,,,,,,,,,"[""2""]",1,[2.4827000000476573],0,0,0,25,1,,,,,,,,,,,,,,,,,,,,,,,,,,
,,,,,,,,,,,X V Q F H G B L J M P D K C T S W R N Z,5fd2416e5061f30735e202e9,21,Mężczyzna,2022-06-11_09h42.44.026,task,2021.1.4,Win32,75.06380423,6299f149e92ead563fba08ef,62a4472ef1a68408b3a2c77f,,,,,,,,,,,,,,,,,,,,,,,,,,,,,,,,,,,,,,,,,,,,,,,,,,,,,,,,,,,,,,,,,,,,,,,,,,,,5,0,5,0,1,,,,,,,,,,,,,,,,,,,,,
,,,,,,,,,,,,5fd2416e5061f30735e202e9,21,Mężczyzna,2022-06-11_09h42.44.026,task,2021.1.4,Win32,75.06380423,6299f149e92ead563fba08ef,62a4472ef1a68408b3a2c77f,,,,,,,,,,,,,0,,,,,,,,,,Task,8,(1x5) - 5,0,,,,,,,,,,,,,,,,,,,1,,,,,,,,,,,,,,,,,,,,,,,"[""0""]",1,[1.844800000011901],0,0,0,7,1,,,,,,,,,,,,,,,,,,,,,,,,,,
,,,,,,,,,,,X V Q F H G B L J M P D K C T S W R N Z,5fd2416e5061f30735e202e9,21,Mężczyzna,2022-06-11_09h42.44.026,task,2021.1.4,Win32,75.06380423,6299f149e92ead563fba08ef,62a4472ef1a68408b3a2c77f,,,,,,,,,,,,,,,,,,,,,,,,,,,,,,,,,,,,,,,,,,,,,,,,,,,,,,,,,,,,,,,,,,,,,,,,,,,,6,0,6,0,1,,,,,,,,,,,,,,,,,,,,,
,,,,,,,,,,,,5fd2416e5061f30735e202e9,21,Mężczyzna,2022-06-11_09h42.44.026,task,2021.1.4,Win32,75.06380423,6299f149e92ead563fba08ef,62a4472ef1a68408b3a2c77f,,,,,,,,,,,,,,,,,,,,,,,,,,,,,,,,,,,,,,,,,,,,,,,,,,,,,,,,,,,,,,,,,,,,,,,,,,,,,,,,,nhkprns,"[""n"",""h"",""k"",""p"",""r"",""n"",""s""]",0,"[2.7061999999881436,3.0706999999881646,4.573699999988094,5.147500000000036,5.738500000000045,6.031599999964328,6.160699999988083,7.145899999976223]",1,NHKPRNS,5,0,5,0,1,,,,,,,,,,
,,,,,,,,,,,,5fd2416e5061f30735e202e9,21,Mężczyzna,2022-06-11_09h42.44.026,task,2021.1.4,Win32,75.06380423,6299f149e92ead563fba08ef,62a4472ef1a68408b3a2c77f,,,,,,,,,,,,,3,,,,,,,,,,Task,20,(18/9) + 1,3,,,,,,,,,,,,,,,,,,,1,,,,,,,,,,,,,,,,,,,,,,,"[""3""]",1,[2.3334000000357946],0,0,0,19,1,,,,,,,,,,,,,,,,,,,,,,,,,,
,,,,,,,,,,,X V Q F H G B L J M P D K C T S W R N Z,5fd2416e5061f30735e202e9,21,Mężczyzna,2022-06-11_09h42.44.026,task,2021.1.4,Win32,75.06380423,6299f149e92ead563fba08ef,62a4472ef1a68408b3a2c77f,,,,,,,,,,,,,,,,,,,,,,,,,,,,,,,,,,,,,,,,,,,,,,,,,,,,,,,,,,,,,,,,,,,,,,,,,,,,0,0,0,0,1,,,,,,,,,,,,,,,,,,,,,
,,,,,,,,,,,,5fd2416e5061f30735e202e9,21,Mężczyzna,2022-06-11_09h42.44.026,task,2021.1.4,Win32,75.06380423,6299f149e92ead563fba08ef,62a4472ef1a68408b3a2c77f,,,,,,,,,,,,,6,,,,,,,,,,Task,5,(2x3) + 0,6,,,,,,,,,,,,,,,,,,,1,,,,,,,,,,,,,,,,,,,,,,,"[""6""]",1,[1.8897000000476964],0,0,0,4,1,,,,,,,,,,,,,,,,,,,,,,,,,,
,,,,,,,,,,,X V Q F H G B L J M P D K C T S W R N Z,5fd2416e5061f30735e202e9,21,Mężczyzna,2022-06-11_09h42.44.026,task,2021.1.4,Win32,75.06380423,6299f149e92ead563fba08ef,62a4472ef1a68408b3a2c77f,,,,,,,,,,,,,,,,,,,,,,,,,,,,,,,,,,,,,,,,,,,,,,,,,,,,,,,,,,,,,,,,,,,,,,,,,,,,1,0,1,0,1,,,,,,,,,,,,,,,,,,,,,
,,,,,,,,,,,,5fd2416e5061f30735e202e9,21,Mężczyzna,2022-06-11_09h42.44.026,task,2021.1.4,Win32,75.06380423,6299f149e92ead563fba08ef,62a4472ef1a68408b3a2c77f,,,,,,,,,,,,,8,,,,,,,,,,Task,15,(3x7) - 13,8,,,,,,,,,,,,,,,,,,,1,,,,,,,,,,,,,,,,,,,,,,,"[""8""]",1,[2.0291000000238455],0,0,0,14,1,,,,,,,,,,,,,,,,,,,,,,,,,,
,,,,,,,,,,,X V Q F H G B L J M P D K C T S W R N Z,5fd2416e5061f30735e202e9,21,Mężczyzna,2022-06-11_09h42.44.026,task,2021.1.4,Win32,75.06380423,6299f149e92ead563fba08ef,62a4472ef1a68408b3a2c77f,,,,,,,,,,,,,,,,,,,,,,,,,,,,,,,,,,,,,,,,,,,,,,,,,,,,,,,,,,,,,,,,,,,,,,,,,,,,2,0,2,0,1,,,,,,,,,,,,,,,,,,,,,
,,,,,,,,,,,,5fd2416e5061f30735e202e9,21,Mężczyzna,2022-06-11_09h42.44.026,task,2021.1.4,Win32,75.06380423,6299f149e92ead563fba08ef,62a4472ef1a68408b3a2c77f,,,,,,,,,,,,,4,,,,,,,,,,Task,11,(18/3) - 2,4,,,,,,,,,,,,,,,,,,,1,,,,,,,,,,,,,,,,,,,,,,,"[""4""]",1,[2.8830999999642017],0,0,0,10,1,,,,,,,,,,,,,,,,,,,,,,,,,,
,,,,,,,,,,,X V Q F H G B L J M P D K C T S W R N Z,5fd2416e5061f30735e202e9,21,Mężczyzna,2022-06-11_09h42.44.026,task,2021.1.4,Win32,75.06380423,6299f149e92ead563fba08ef,62a4472ef1a68408b3a2c77f,,,,,,,,,,,,,,,,,,,,,,,,,,,,,,,,,,,,,,,,,,,,,,,,,,,,,,,,,,,,,,,,,,,,,,,,,,,,3,0,3,0,1,,,,,,,,,,,,,,,,,,,,,
,,,,,,,,,,,,5fd2416e5061f30735e202e9,21,Mężczyzna,2022-06-11_09h42.44.026,task,2021.1.4,Win32,75.06380423,6299f149e92ead563fba08ef,62a4472ef1a68408b3a2c77f,,,,,,,,,,,,,0,,,,,,,,,,Task,8,(1x5) - 5,0,,,,,,,,,,,,,,,,,,,1,,,,,,,,,,,,,,,,,,,,,,,"[""0""]",1,[1.7659000000356855],0,0,0,7,1,,,,,,,,,,,,,,,,,,,,,,,,,,
,,,,,,,,,,,X V Q F H G B L J M P D K C T S W R N Z,5fd2416e5061f30735e202e9,21,Mężczyzna,2022-06-11_09h42.44.026,task,2021.1.4,Win32,75.06380423,6299f149e92ead563fba08ef,62a4472ef1a68408b3a2c77f,,,,,,,,,,,,,,,,,,,,,,,,,,,,,,,,,,,,,,,,,,,,,,,,,,,,,,,,,,,,,,,,,,,,,,,,,,,,4,0,4,0,1,,,,,,,,,,,,,,,,,,,,,
,,,,,,,,,,,,5fd2416e5061f30735e202e9,21,Mężczyzna,2022-06-11_09h42.44.026,task,2021.1.4,Win32,75.06380423,6299f149e92ead563fba08ef,62a4472ef1a68408b3a2c77f,,,,,,,,,,,,,6,,,,,,,,,,Task,13,(3x4) - 6,6,,,,,,,,,,,,,,,,,,,1,,,,,,,,,,,,,,,,,,,,,,,"[""6""]",1,[2.0583999999761318],0,0,0,12,1,,,,,,,,,,,,,,,,,,,,,,,,,,
,,,,,,,,,,,X V Q F H G B L J M P D K C T S W R N Z,5fd2416e5061f30735e202e9,21,Mężczyzna,2022-06-11_09h42.44.026,task,2021.1.4,Win32,75.06380423,6299f149e92ead563fba08ef,62a4472ef1a68408b3a2c77f,,,,,,,,,,,,,,,,,,,,,,,,,,,,,,,,,,,,,,,,,,,,,,,,,,,,,,,,,,,,,,,,,,,,,,,,,,,,5,0,5,0,1,,,,,,,,,,,,,,,,,,,,,
,,,,,,,,,,,,5fd2416e5061f30735e202e9,21,Mężczyzna,2022-06-11_09h42.44.026,task,2021.1.4,Win32,75.06380423,6299f149e92ead563fba08ef,62a4472ef1a68408b3a2c77f,,,,,,,,,,,,,7,,,,,,,,,,Task,6,(12/2) + 1,7,,,,,,,,,,,,,,,,,,,1,,,,,,,,,,,,,,,,,,,,,,,"[""7""]",1,[1.5343000000118536],0,0,0,5,1,,,,,,,,,,,,,,,,,,,,,,,,,,
,,,,,,,,,,,X V Q F H G B L J M P D K C T S W R N Z,5fd2416e5061f30735e202e9,21,Mężczyzna,2022-06-11_09h42.44.026,task,2021.1.4,Win32,75.06380423,6299f149e92ead563fba08ef,62a4472ef1a68408b3a2c77f,,,,,,,,,,,,,,,,,,,,,,,,,,,,,,,,,,,,,,,,,,,,,,,,,,,,,,,,,,,,,,,,,,,,,,,,,,,,6,0,6,0,1,,,,,,,,,,,,,,,,,,,,,
,,,,,,,,,,,,5fd2416e5061f30735e202e9,21,Mężczyzna,2022-06-11_09h42.44.026,task,2021.1.4,Win32,75.06380423,6299f149e92ead563fba08ef,62a4472ef1a68408b3a2c77f,,,,,,,,,,,,,7,,,,,,,,,,Task,31,(4/2) + 5,7,,,,,,,,,,,,,,,,,,,1,,,,,,,,,,,,,,,,,,,,,,,"[""7""]",1,[2.3125999999641635],0,0,0,30,1,,,,,,,,,,,,,,,,,,,,,,,,,,
,,,,,,,,,,,X V Q F H G B L J M P D K C T S W R N Z,5fd2416e5061f30735e202e9,21,Mężczyzna,2022-06-11_09h42.44.026,task,2021.1.4,Win32,75.06380423,6299f149e92ead563fba08ef,62a4472ef1a68408b3a2c77f,,,,,,,,,,,,,,,,,,,,,,,,,,,,,,,,,,,,,,,,,,,,,,,,,,,,,,,,,,,,,,,,,,,,,,,,,,,,7,0,7,0,1,,,,,,,,,,,,,,,,,,,,,
,,,,,,,,,,,,5fd2416e5061f30735e202e9,21,Mężczyzna,2022-06-11_09h42.44.026,task,2021.1.4,Win32,75.06380423,6299f149e92ead563fba08ef,62a4472ef1a68408b3a2c77f,,,,,,,,,,,,,,,,,,,,,,,,,,,,,,,,,,,,,,,,,,,,,,,,,,,,,,,,,,,,,,,,,,,,,,,,,,,,,,,,,prkfgnpg,"[""p"",""r"",""k"",""f"",""g"",""n"",""p"",""g""]",0,"[2.615399999976148,2.795399999976212,4.236299999952394,5.187099999964289,5.869299999952318,6.386199999988094,6.916299999952344,7.169299999952386,7.631199999988098]",1,PRKFGNPG,6,0,6,0,1,,,,,,,,,,
,,,,,,,,,,,,5fd2416e5061f30735e202e9,21,Mężczyzna,2022-06-11_09h42.44.026,task,2021.1.4,Win32,75.06380423,6299f149e92ead563fba08ef,62a4472ef1a68408b3a2c77f,,,,,,,,,,,,,8,,,,,,,,,,Task,23,(2x3) + 2,8,,,,,,,,,,,,,,,,,,,1,,,,,,,,,,,,,,,,,,,,,,,"[""8""]",1,[2.431300000011902],0,0,0,22,1,,,,,,,,,,,,,,,,,,,,,,,,,,
,,,,,,,,,,,X V Q F H G B L J M P D K C T S W R N Z,5fd2416e5061f30735e202e9,21,Mężczyzna,2022-06-11_09h42.44.026,task,2021.1.4,Win32,75.06380423,6299f149e92ead563fba08ef,62a4472ef1a68408b3a2c77f,,,,,,,,,,,,,,,,,,,,,,,,,,,,,,,,,,,,,,,,,,,,,,,,,,,,,,,,,,,,,,,,,,,,,,,,,,,,0,0,0,0,1,,,,,,,,,,,,,,,,,,,,,
,,,,,,,,,,,,5fd2416e5061f30735e202e9,21,Mężczyzna,2022-06-11_09h42.44.026,task,2021.1.4,Win32,75.06380423,6299f149e92ead563fba08ef,62a4472ef1a68408b3a2c77f,,,,,,,,,,,,,0,,,,,,,,,,Task,8,(1x5) - 5,0,,,,,,,,,,,,,,,,,,,1,,,,,,,,,,,,,,,,,,,,,,,"[""0""]",1,[1.5554000000357746],0,0,0,7,1,,,,,,,,,,,,,,,,,,,,,,,,,,
,,,,,,,,,,,X V Q F H G B L J M P D K C T S W R N Z,5fd2416e5061f30735e202e9,21,Mężczyzna,2022-06-11_09h42.44.026,task,2021.1.4,Win32,75.06380423,6299f149e92ead563fba08ef,62a4472ef1a68408b3a2c77f,,,,,,,,,,,,,,,,,,,,,,,,,,,,,,,,,,,,,,,,,,,,,,,,,,,,,,,,,,,,,,,,,,,,,,,,,,,,1,0,1,0,1,,,,,,,,,,,,,,,,,,,,,
,,,,,,,,,,,,5fd2416e5061f30735e202e9,21,Mężczyzna,2022-06-11_09h42.44.026,task,2021.1.4,Win32,75.06380423,6299f149e92ead563fba08ef,62a4472ef1a68408b3a2c77f,,,,,,,,,,,,,3,,,,,,,,,,Task,16,(3x8) - 15,9,,,,,,,,,,,,,,,,,,,0,,,,,,,,,,,,,,,,,,,,,,,"[""3""]",0,[2.32469999998807],0,0,0,15,1,,,,,,,,,,,,,,,,,,,,,,,,,,
,,,,,,,,,,,,5fd2416e5061f30735e202e9,21,Mężczyzna,2022-06-11_09h42.44.026,task,2021.1.4,Win32,75.06380423,6299f149e92ead563fba08ef,62a4472ef1a68408b3a2c77f,,,,,,,,,,,,,5,,,,,,,,,,Task,36,(8/4) + 3,5,,,,,,,,,,,,,,,,,,,1,,,,,,,,,,,,,,,,,,,,,,,"[""5""]",1,[4.134999999999991],0,1,1,35,1,,,,,,,,,,,,,,,,,,,,,,,,,,
,,,,,,,,,,,X V Q F H G B L J M P D K C T S W R N Z,5fd2416e5061f30735e202e9,21,Mężczyzna,2022-06-11_09h42.44.026,task,2021.1.4,Win32,75.06380423,6299f149e92ead563fba08ef,62a4472ef1a68408b3a2c77f,,,,,,,,,,,,,,,,,,,,,,,,,,,,,,,,,,,,,,,,,,,,,,,,,,,,,,,,,,,,,,,,,,,,,,,,,,,,2,0,2,0,1,,,,,,,,,,,,,,,,,,,,,
,,,,,,,,,,,,5fd2416e5061f30735e202e9,21,Mężczyzna,2022-06-11_09h42.44.026,task,2021.1.4,Win32,75.06380423,6299f149e92ead563fba08ef,62a4472ef1a68408b3a2c77f,,,,,,,,,,,,,0,,,,,,,,,,Task,17,(2x3) - 6,0,,,,,,,,,,,,,,,,,,,1,,,,,,,,,,,,,,,,,,,,,,,"[""0""]",1,[3.2251999999880354],0,0,0,16,1,,,,,,,,,,,,,,,,,,,,,,,,,,
,,,,,,,,,,,X V Q F H G B L J M P D K C T S W R N Z,5fd2416e5061f30735e202e9,21,Mężczyzna,2022-06-11_09h42.44.026,task,2021.1.4,Win32,75.06380423,6299f149e92ead563fba08ef,62a4472ef1a68408b3a2c77f,,,,,,,,,,,,,,,,,,,,,,,,,,,,,,,,,,,,,,,,,,,,,,,,,,,,,,,,,,,,,,,,,,,,,,,,,,,,3,0,3,0,1,,,,,,,,,,,,,,,,,,,,,
,,,,,,,,,,,,5fd2416e5061f30735e202e9,21,Mężczyzna,2022-06-11_09h42.44.026,task,2021.1.4,Win32,75.06380423,6299f149e92ead563fba08ef,62a4472ef1a68408b3a2c77f,,,,,,,,,,,,,8,,,,,,,,,,Task,32,(8/2) + 4,8,,,,,,,,,,,,,,,,,,,1,,,,,,,,,,,,,,,,,,,,,,,"[""8""]",1,[2.742999999999938],0,0,0,31,1,,,,,,,,,,,,,,,,,,,,,,,,,,
,,,,,,,,,,,X V Q F H G B L J M P D K C T S W R N Z,5fd2416e5061f30735e202e9,21,Mężczyzna,2022-06-11_09h42.44.026,task,2021.1.4,Win32,75.06380423,6299f149e92ead563fba08ef,62a4472ef1a68408b3a2c77f,,,,,,,,,,,,,,,,,,,,,,,,,,,,,,,,,,,,,,,,,,,,,,,,,,,,,,,,,,,,,,,,,,,,,,,,,,,,4,0,4,0,1,,,,,,,,,,,,,,,,,,,,,
,,,,,,,,,,,,5fd2416e5061f30735e202e9,21,Mężczyzna,2022-06-11_09h42.44.026,task,2021.1.4,Win32,75.06380423,6299f149e92ead563fba08ef,62a4472ef1a68408b3a2c77f,,,,,,,,,,,,,8,,,,,,,,,,Task,15,(3x7) - 13,8,,,,,,,,,,,,,,,,,,,1,,,,,,,,,,,,,,,,,,,,,,,"[""8""]",1,[1.796299999952339],0,0,0,14,1,,,,,,,,,,,,,,,,,,,,,,,,,,
,,,,,,,,,,,X V Q F H G B L J M P D K C T S W R N Z,5fd2416e5061f30735e202e9,21,Mężczyzna,2022-06-11_09h42.44.026,task,2021.1.4,Win32,75.06380423,6299f149e92ead563fba08ef,62a4472ef1a68408b3a2c77f,,,,,,,,,,,,,,,,,,,,,,,,,,,,,,,,,,,,,,,,,,,,,,,,,,,,,,,,,,,,,,,,,,,,,,,,,,,,5,0,5,0,1,,,,,,,,,,,,,,,,,,,,,
,,,,,,,,,,,,5fd2416e5061f30735e202e9,21,Mężczyzna,2022-06-11_09h42.44.026,task,2021.1.4,Win32,75.06380423,6299f149e92ead563fba08ef,62a4472ef1a68408b3a2c77f,,,,,,,,,,,,,9,,,,,,,,,,Task,16,(3x8) - 15,9,,,,,,,,,,,,,,,,,,,1,,,,,,,,,,,,,,,,,,,,,,,"[""9""]",1,[3.502100000023802],0,0,0,15,1,,,,,,,,,,,,,,,,,,,,,,,,,,
,,,,,,,,,,,X V Q F H G B L J M P D K C T S W R N Z,5fd2416e5061f30735e202e9,21,Mężczyzna,2022-06-11_09h42.44.026,task,2021.1.4,Win32,75.06380423,6299f149e92ead563fba08ef,62a4472ef1a68408b3a2c77f,,,,,,,,,,,,,,,,,,,,,,,,,,,,,,,,,,,,,,,,,,,,,,,,,,,,,,,,,,,,,,,,,,,,,,,,,,,,6,0,6,0,1,,,,,,,,,,,,,,,,,,,,,
,,,,,,,,,,,,5fd2416e5061f30735e202e9,21,Mężczyzna,2022-06-11_09h42.44.026,task,2021.1.4,Win32,75.06380423,6299f149e92ead563fba08ef,62a4472ef1a68408b3a2c77f,,,,,,,,,,,,,9,,,,,,,,,,Task,24,(2x2) + 5,9,,,,,,,,,,,,,,,,,,,1,,,,,,,,,,,,,,,,,,,,,,,"[""9""]",1,[2.7596999999880154],0,0,0,23,1,,,,,,,,,,,,,,,,,,,,,,,,,,
,,,,,,,,,,,X V Q F H G B L J M P D K C T S W R N Z,5fd2416e5061f30735e202e9,21,Mężczyzna,2022-06-11_09h42.44.026,task,2021.1.4,Win32,75.06380423,6299f149e92ead563fba08ef,62a4472ef1a68408b3a2c77f,,,,,,,,,,,,,,,,,,,,,,,,,,,,,,,,,,,,,,,,,,,,,,,,,,,,,,,,,,,,,,,,,,,,,,,,,,,,7,0,7,0,1,,,,,,,,,,,,,,,,,,,,,
,,,,,,,,,,,,5fd2416e5061f30735e202e9,21,Mężczyzna,2022-06-11_09h42.44.026,task,2021.1.4,Win32,75.06380423,6299f149e92ead563fba08ef,62a4472ef1a68408b3a2c77f,,,,,,,,,,,,,6,,,,,,,,,,Task,30,(6/3) + 4 ,6,,,,,,,,,,,,,,,,,,,1,,,,,,,,,,,,,,,,,,,,,,,"[""6""]",1,[2.984699999988038],0,0,0,29,1,,,,,,,,,,,,,,,,,,,,,,,,,,
,,,,,,,,,,,X V Q F H G B L J M P D K C T S W R N Z,5fd2416e5061f30735e202e9,21,Mężczyzna,2022-06-11_09h42.44.026,task,2021.1.4,Win32,75.06380423,6299f149e92ead563fba08ef,62a4472ef1a68408b3a2c77f,,,,,,,,,,,,,,,,,,,,,,,,,,,,,,,,,,,,,,,,,,,,,,,,,,,,,,,,,,,,,,,,,,,,,,,,,,,,8,0,8,0,1,,,,,,,,,,,,,,,,,,,,,
,,,,,,,,,,,,5fd2416e5061f30735e202e9,21,Mężczyzna,2022-06-11_09h42.44.026,task,2021.1.4,Win32,75.06380423,6299f149e92ead563fba08ef,62a4472ef1a68408b3a2c77f,,,,,,,,,,,,,,,,,,,,,,,,,,,,,,,,,,,,,,,,,,,,,,,,,,,,,,,,,,,,,,,,,,,,,,,,,,,,,,,,,jkmblcgvt,"[""j"",""k"",""m"",""b"",""l"",""c"",""g"",""v"",""t""]",0,"[2.4405000000000427,3.3898000000119737,3.8678000000119255,4.301899999976172,4.6059999999999945,6.267699999988054,7.667800000011994,7.927300000011996,8.112899999976207,9.176899999976172]",1,JKMBLCGVT,7,0,7,0,1,,,,,,,,,,
,,,,,,,,,,,,5fd2416e5061f30735e202e9,21,Mężczyzna,2022-06-11_09h42.44.026,task,2021.1.4,Win32,75.06380423,6299f149e92ead563fba08ef,62a4472ef1a68408b3a2c77f,,,,,,,,,,,,,5,,,,,,,,,,Task,36,(8/4) + 3,5,,,,,,,,,,,,,,,,,,,1,,,,,,,,,,,,,,,,,,,,,,,"[""5""]",1,[2.7248000000118964],0,0,0,35,1,,,,,,,,,,,,,,,,,,,,,,,,,,
,,,,,,,,,,,X V Q F H G B L J M P D K C T S W R N Z,5fd2416e5061f30735e202e9,21,Mężczyzna,2022-06-11_09h42.44.026,task,2021.1.4,Win32,75.06380423,6299f149e92ead563fba08ef,62a4472ef1a68408b3a2c77f,,,,,,,,,,,,,,,,,,,,,,,,,,,,,,,,,,,,,,,,,,,,,,,,,,,,,,,,,,,,,,,,,,,,,,,,,,,,0,0,0,0,1,,,,,,,,,,,,,,,,,,,,,
,,,,,,,,,,,,5fd2416e5061f30735e202e9,21,Mężczyzna,2022-06-11_09h42.44.026,task,2021.1.4,Win32,75.06380423,6299f149e92ead563fba08ef,62a4472ef1a68408b3a2c77f,,,,,,,,,,,,,2,,,,,,,,,,Task,26,(2x9) - 16,2,,,,,,,,,,,,,,,,,,,1,,,,,,,,,,,,,,,,,,,,,,,"[""2""]",1,[2.8808000000118454],0,0,0,25,1,,,,,,,,,,,,,,,,,,,,,,,,,,
,,,,,,,,,,,X V Q F H G B L J M P D K C T S W R N Z,5fd2416e5061f30735e202e9,21,Mężczyzna,2022-06-11_09h42.44.026,task,2021.1.4,Win32,75.06380423,6299f149e92ead563fba08ef,62a4472ef1a68408b3a2c77f,,,,,,,,,,,,,,,,,,,,,,,,,,,,,,,,,,,,,,,,,,,,,,,,,,,,,,,,,,,,,,,,,,,,,,,,,,,,1,0,1,0,1,,,,,,,,,,,,,,,,,,,,,
,,,,,,,,,,,,5fd2416e5061f30735e202e9,21,Mężczyzna,2022-06-11_09h42.44.026,task,2021.1.4,Win32,75.06380423,6299f149e92ead563fba08ef,62a4472ef1a68408b3a2c77f,,,,,,,,,,,,,2,,,,,,,,,,Task,10,(2x5) - 8,2,,,,,,,,,,,,,,,,,,,1,,,,,,,,,,,,,,,,,,,,,,,"[""2""]",1,[1.4731999999880827],0,0,0,9,1,,,,,,,,,,,,,,,,,,,,,,,,,,
,,,,,,,,,,,X V Q F H G B L J M P D K C T S W R N Z,5fd2416e5061f30735e202e9,21,Mężczyzna,2022-06-11_09h42.44.026,task,2021.1.4,Win32,75.06380423,6299f149e92ead563fba08ef,62a4472ef1a68408b3a2c77f,,,,,,,,,,,,,,,,,,,,,,,,,,,,,,,,,,,,,,,,,,,,,,,,,,,,,,,,,,,,,,,,,,,,,,,,,,,,2,0,2,0,1,,,,,,,,,,,,,,,,,,,,,
,,,,,,,,,,,,5fd2416e5061f30735e202e9,21,Mężczyzna,2022-06-11_09h42.44.026,task,2021.1.4,Win32,75.06380423,6299f149e92ead563fba08ef,62a4472ef1a68408b3a2c77f,,,,,,,,,,,,,6,,,,,,,,,,Task,37,(3/3) + 5,6,,,,,,,,,,,,,,,,,,,1,,,,,,,,,,,,,,,,,,,,,,,"[""6""]",1,[3.310000000000059],0,0,0,36,1,,,,,,,,,,,,,,,,,,,,,,,,,,
,,,,,,,,,,,X V Q F H G B L J M P D K C T S W R N Z,5fd2416e5061f30735e202e9,21,Mężczyzna,2022-06-11_09h42.44.026,task,2021.1.4,Win32,75.06380423,6299f149e92ead563fba08ef,62a4472ef1a68408b3a2c77f,,,,,,,,,,,,,,,,,,,,,,,,,,,,,,,,,,,,,,,,,,,,,,,,,,,,,,,,,,,,,,,,,,,,,,,,,,,,3,0,3,0,1,,,,,,,,,,,,,,,,,,,,,
,,,,,,,,,,,,5fd2416e5061f30735e202e9,21,Mężczyzna,2022-06-11_09h42.44.026,task,2021.1.4,Win32,75.06380423,6299f149e92ead563fba08ef,62a4472ef1a68408b3a2c77f,,,,,,,,,,,,,6,,,,,,,,,,Task,13,(3x4) - 6,6,,,,,,,,,,,,,,,,,,,1,,,,,,,,,,,,,,,,,,,,,,,"[""6""]",1,[1.6888000000119519],0,0,0,12,1,,,,,,,,,,,,,,,,,,,,,,,,,,
,,,,,,,,,,,X V Q F H G B L J M P D K C T S W R N Z,5fd2416e5061f30735e202e9,21,Mężczyzna,2022-06-11_09h42.44.026,task,2021.1.4,Win32,75.06380423,6299f149e92ead563fba08ef,62a4472ef1a68408b3a2c77f,,,,,,,,,,,,,,,,,,,,,,,,,,,,,,,,,,,,,,,,,,,,,,,,,,,,,,,,,,,,,,,,,,,,,,,,,,,,4,0,4,0,1,,,,,,,,,,,,,,,,,,,,,
,,,,,,,,,,,,5fd2416e5061f30735e202e9,21,Mężczyzna,2022-06-11_09h42.44.026,task,2021.1.4,Win32,75.06380423,6299f149e92ead563fba08ef,62a4472ef1a68408b3a2c77f,,,,,,,,,,,,,1,,,,,,,,,,Task,34,(9/3) - 2,1,,,,,,,,,,,,,,,,,,,1,,,,,,,,,,,,,,,,,,,,,,,"[""1""]",1,[2.7546999999881336],0,0,0,33,1,,,,,,,,,,,,,,,,,,,,,,,,,,
,,,,,,,,,,,X V Q F H G B L J M P D K C T S W R N Z,5fd2416e5061f30735e202e9,21,Mężczyzna,2022-06-11_09h42.44.026,task,2021.1.4,Win32,75.06380423,6299f149e92ead563fba08ef,62a4472ef1a68408b3a2c77f,,,,,,,,,,,,,,,,,,,,,,,,,,,,,,,,,,,,,,,,,,,,,,,,,,,,,,,,,,,,,,,,,,,,,,,,,,,,5,0,5,0,1,,,,,,,,,,,,,,,,,,,,,
,,,,,,,,,,,,5fd2416e5061f30735e202e9,21,Mężczyzna,2022-06-11_09h42.44.026,task,2021.1.4,Win32,75.06380423,6299f149e92ead563fba08ef,62a4472ef1a68408b3a2c77f,,,,,,,,,,,,,4,,,,,,,,,,Task,28,(2x5) - 6,4,,,,,,,,,,,,,,,,,,,1,,,,,,,,,,,,,,,,,,,,,,,"[""4""]",1,[1.8296000000239019],0,0,0,27,1,,,,,,,,,,,,,,,,,,,,,,,,,,
,,,,,,,,,,,X V Q F H G B L J M P D K C T S W R N Z,5fd2416e5061f30735e202e9,21,Mężczyzna,2022-06-11_09h42.44.026,task,2021.1.4,Win32,75.06380423,6299f149e92ead563fba08ef,62a4472ef1a68408b3a2c77f,,,,,,,,,,,,,,,,,,,,,,,,,,,,,,,,,,,,,,,,,,,,,,,,,,,,,,,,,,,,,,,,,,,,,,,,,,,,6,0,6,0,1,,,,,,,,,,,,,,,,,,,,,
,,,,,,,,,,,,5fd2416e5061f30735e202e9,21,Mężczyzna,2022-06-11_09h42.44.026,task,2021.1.4,Win32,75.06380423,6299f149e92ead563fba08ef,62a4472ef1a68408b3a2c77f,,,,,,,,,,,,,3,,,,,,,,,,Task,3,(2x3) - 3,3,,,,,,,,,,,,,,,,,,,1,,,,,,,,,,,,,,,,,,,,,,,"[""3""]",1,[3.195300000011912],0,0,0,2,1,,,,,,,,,,,,,,,,,,,,,,,,,,
,,,,,,,,,,,X V Q F H G B L J M P D K C T S W R N Z,5fd2416e5061f30735e202e9,21,Mężczyzna,2022-06-11_09h42.44.026,task,2021.1.4,Win32,75.06380423,6299f149e92ead563fba08ef,62a4472ef1a68408b3a2c77f,,,,,,,,,,,,,,,,,,,,,,,,,,,,,,,,,,,,,,,,,,,,,,,,,,,,,,,,,,,,,,,,,,,,,,,,,,,,7,0,7,0,1,,,,,,,,,,,,,,,,,,,,,
,,,,,,,,,,,,5fd2416e5061f30735e202e9,21,Mężczyzna,2022-06-11_09h42.44.026,task,2021.1.4,Win32,75.06380423,6299f149e92ead563fba08ef,62a4472ef1a68408b3a2c77f,,,,,,,,,,,,,8,,,,,,,,,,Task,39,(5x3) - 7,8,,,,,,,,,,,,,,,,,,,1,,,,,,,,,,,,,,,,,,,,,,,"[""8""]",1,[2.7808000000118227],0,0,0,38,1,,,,,,,,,,,,,,,,,,,,,,,,,,
,,,,,,,,,,,X V Q F H G B L J M P D K C T S W R N Z,5fd2416e5061f30735e202e9,21,Mężczyzna,2022-06-11_09h42.44.026,task,2021.1.4,Win32,75.06380423,6299f149e92ead563fba08ef,62a4472ef1a68408b3a2c77f,,,,,,,,,,,,,,,,,,,,,,,,,,,,,,,,,,,,,,,,,,,,,,,,,,,,,,,,,,,,,,,,,,,,,,,,,,,,8,0,8,0,1,,,,,,,,,,,,,,,,,,,,,
,,,,,,,,,,,,5fd2416e5061f30735e202e9,21,Mężczyzna,2022-06-11_09h42.44.026,task,2021.1.4,Win32,75.06380423,6299f149e92ead563fba08ef,62a4472ef1a68408b3a2c77f,,,,,,,,,,,,,0,,,,,,,,,,Task,2,(2x2) - 2,2,,,,,,,,,,,,,,,,,,,0,,,,,,,,,,,,,,,,,,,,,,,"[""0""]",0,[1.6420000000000528],0,0,0,1,1,,,,,,,,,,,,,,,,,,,,,,,,,,
,,,,,,,,,,,,5fd2416e5061f30735e202e9,21,Mężczyzna,2022-06-11_09h42.44.026,task,2021.1.4,Win32,75.06380423,6299f149e92ead563fba08ef,62a4472ef1a68408b3a2c77f,,,,,,,,,,,,,4,,,,,,,,,,Task,11,(18/3) - 2,4,,,,,,,,,,,,,,,,,,,1,,,,,,,,,,,,,,,,,,,,,,,"[""4""]",1,[2.879300000011881],0,1,1,10,1,,,,,,,,,,,,,,,,,,,,,,,,,,
,,,,,,,,,,,X V Q F H G B L J M P D K C T S W R N Z,5fd2416e5061f30735e202e9,21,Mężczyzna,2022-06-11_09h42.44.026,task,2021.1.4,Win32,75.06380423,6299f149e92ead563fba08ef,62a4472ef1a68408b3a2c77f,,,,,,,,,,,,,,,,,,,,,,,,,,,,,,,,,,,,,,,,,,,,,,,,,,,,,,,,,,,,,,,,,,,,,,,,,,,,9,0,9,0,1,,,,,,,,,,,,,,,,,,,,,
,,,,,,,,,,,,5fd2416e5061f30735e202e9,21,Mężczyzna,2022-06-11_09h42.44.026,task,2021.1.4,Win32,75.06380423,6299f149e92ead563fba08ef,62a4472ef1a68408b3a2c77f,,,,,,,,,,,,,,,,,,,,,,,,,,,,,,,,,,,,,,,,,,,,,,,,,,,,,,,,,,,,,,,,,,,,,,,,,,,,,,,,,ztknpndprv,"[""z"",""t"",""k"",""n"",""p"",""n"",""d"",""p"",""r"",""v""]",0,"[2.188900000035801,2.4809000000357173,3.7809000000357855,4.180800000011914,4.851100000023848,5.46990000003575,6.860000000000014,7.6817000000477265,8.211200000047711,8.802000000000021,9.528800000011984]",1,ZTKNPNDPRV,8,0,8,0,1,,,,,,,,,,
,,,,,,,,,,,,5fd2416e5061f30735e202e9,21,Mężczyzna,2022-06-11_09h42.44.026,task,2021.1.4,Win32,75.06380423,6299f149e92ead563fba08ef,62a4472ef1a68408b3a2c77f,,,,,,,,,,,,,3,,,,,,,,,,Task,20,(18/9) + 1,3,,,,,,,,,,,,,,,,,,,1,,,,,,,,,,,,,,,,,,,,,,,"[""3""]",1,[2.5381999999880236],0,0,0,19,1,,,,,,,,,,,,,,,,,,,,,,,,,,
,,,,,,,,,,,X V Q F H G B L J M P D K C T S W R N Z,5fd2416e5061f30735e202e9,21,Mężczyzna,2022-06-11_09h42.44.026,task,2021.1.4,Win32,75.06380423,6299f149e92ead563fba08ef,62a4472ef1a68408b3a2c77f,,,,,,,,,,,,,,,,,,,,,,,,,,,,,,,,,,,,,,,,,,,,,,,,,,,,,,,,,,,,,,,,,,,,,,,,,,,,0,0,0,0,1,,,,,,,,,,,,,,,,,,,,,
,,,,,,,,,,,,5fd2416e5061f30735e202e9,21,Mężczyzna,2022-06-11_09h42.44.026,task,2021.1.4,Win32,75.06380423,6299f149e92ead563fba08ef,62a4472ef1a68408b3a2c77f,,,,,,,,,,,,,1,,,,,,,,,,Task,18,(16/4) - 3,1,,,,,,,,,,,,,,,,,,,1,,,,,,,,,,,,,,,,,,,,,,,"[""1""]",1,[2.5187000000477155],0,0,0,17,1,,,,,,,,,,,,,,,,,,,,,,,,,,
,,,,,,,,,,,X V Q F H G B L J M P D K C T S W R N Z,5fd2416e5061f30735e202e9,21,Mężczyzna,2022-06-11_09h42.44.026,task,2021.1.4,Win32,75.06380423,6299f149e92ead563fba08ef,62a4472ef1a68408b3a2c77f,,,,,,,,,,,,,,,,,,,,,,,,,,,,,,,,,,,,,,,,,,,,,,,,,,,,,,,,,,,,,,,,,,,,,,,,,,,,1,0,1,0,1,,,,,,,,,,,,,,,,,,,,,
,,,,,,,,,,,,5fd2416e5061f30735e202e9,21,Mężczyzna,2022-06-11_09h42.44.026,task,2021.1.4,Win32,75.06380423,6299f149e92ead563fba08ef,62a4472ef1a68408b3a2c77f,,,,,,,,,,,,,1,,,,,,,,,,Task,9,(3x7) - 20,1,,,,,,,,,,,,,,,,,,,1,,,,,,,,,,,,,,,,,,,,,,,"[""1""]",1,[2.1186999999880527],0,0,0,8,1,,,,,,,,,,,,,,,,,,,,,,,,,,
,,,,,,,,,,,X V Q F H G B L J M P D K C T S W R N Z,5fd2416e5061f30735e202e9,21,Mężczyzna,2022-06-11_09h42.44.026,task,2021.1.4,Win32,75.06380423,6299f149e92ead563fba08ef,62a4472ef1a68408b3a2c77f,,,,,,,,,,,,,,,,,,,,,,,,,,,,,,,,,,,,,,,,,,,,,,,,,,,,,,,,,,,,,,,,,,,,,,,,,,,,2,0,2,0,1,,,,,,,,,,,,,,,,,,,,,
,,,,,,,,,,,,5fd2416e5061f30735e202e9,21,Mężczyzna,2022-06-11_09h42.44.026,task,2021.1.4,Win32,75.06380423,6299f149e92ead563fba08ef,62a4472ef1a68408b3a2c77f,,,,,,,,,,,,,4,,,,,,,,,,Task,28,(2x5) - 6,4,,,,,,,,,,,,,,,,,,,1,,,,,,,,,,,,,,,,,,,,,,,"[""4""]",1,[3.794700000047669],0,0,0,27,1,,,,,,,,,,,,,,,,,,,,,,,,,,
,,,,,,,,,,,X V Q F H G B L J M P D K C T S W R N Z,5fd2416e5061f30735e202e9,21,Mężczyzna,2022-06-11_09h42.44.026,task,2021.1.4,Win32,75.06380423,6299f149e92ead563fba08ef,62a4472ef1a68408b3a2c77f,,,,,,,,,,,,,,,,,,,,,,,,,,,,,,,,,,,,,,,,,,,,,,,,,,,,,,,,,,,,,,,,,,,,,,,,,,,,3,0,3,0,1,,,,,,,,,,,,,,,,,,,,,
,,,,,,,,,,,,5fd2416e5061f30735e202e9,21,Mężczyzna,2022-06-11_09h42.44.026,task,2021.1.4,Win32,75.06380423,6299f149e92ead563fba08ef,62a4472ef1a68408b3a2c77f,,,,,,,,,,,,,8,,,,,,,,,,Task,15,(3x7) - 13,8,,,,,,,,,,,,,,,,,,,1,,,,,,,,,,,,,,,,,,,,,,,"[""8""]",1,[1.5718999999761536],0,0,0,14,1,,,,,,,,,,,,,,,,,,,,,,,,,,
,,,,,,,,,,,X V Q F H G B L J M P D K C T S W R N Z,5fd2416e5061f30735e202e9,21,Mężczyzna,2022-06-11_09h42.44.026,task,2021.1.4,Win32,75.06380423,6299f149e92ead563fba08ef,62a4472ef1a68408b3a2c77f,,,,,,,,,,,,,,,,,,,,,,,,,,,,,,,,,,,,,,,,,,,,,,,,,,,,,,,,,,,,,,,,,,,,,,,,,,,,4,0,4,0,1,,,,,,,,,,,,,,,,,,,,,
,,,,,,,,,,,,5fd2416e5061f30735e202e9,21,Mężczyzna,2022-06-11_09h42.44.026,task,2021.1.4,Win32,75.06380423,6299f149e92ead563fba08ef,62a4472ef1a68408b3a2c77f,,,,,,,,,,,,,5,,,,,,,,,,Task,12,(4x4) - 11,5,,,,,,,,,,,,,,,,,,,1,,,,,,,,,,,,,,,,,,,,,,,"[""5""]",1,[1.83949999999993],0,0,0,11,1,,,,,,,,,,,,,,,,,,,,,,,,,,
,,,,,,,,,,,X V Q F H G B L J M P D K C T S W R N Z,5fd2416e5061f30735e202e9,21,Mężczyzna,2022-06-11_09h42.44.026,task,2021.1.4,Win32,75.06380423,6299f149e92ead563fba08ef,62a4472ef1a68408b3a2c77f,,,,,,,,,,,,,,,,,,,,,,,,,,,,,,,,,,,,,,,,,,,,,,,,,,,,,,,,,,,,,,,,,,,,,,,,,,,,5,0,5,0,1,,,,,,,,,,,,,,,,,,,,,
,,,,,,,,,,,,5fd2416e5061f30735e202e9,21,Mężczyzna,2022-06-11_09h42.44.026,task,2021.1.4,Win32,75.06380423,6299f149e92ead563fba08ef,62a4472ef1a68408b3a2c77f,,,,,,,,,,,,,2,,,,,,,,,,Task,10,(2x5) - 8,2,,,,,,,,,,,,,,,,,,,1,,,,,,,,,,,,,,,,,,,,,,,"[""2""]",1,[1.5294999999999845],0,0,0,9,1,,,,,,,,,,,,,,,,,,,,,,,,,,
,,,,,,,,,,,X V Q F H G B L J M P D K C T S W R N Z,5fd2416e5061f30735e202e9,21,Mężczyzna,2022-06-11_09h42.44.026,task,2021.1.4,Win32,75.06380423,6299f149e92ead563fba08ef,62a4472ef1a68408b3a2c77f,,,,,,,,,,,,,,,,,,,,,,,,,,,,,,,,,,,,,,,,,,,,,,,,,,,,,,,,,,,,,,,,,,,,,,,,,,,,6,0,6,0,1,,,,,,,,,,,,,,,,,,,,,
,,,,,,,,,,,,5fd2416e5061f30735e202e9,21,Mężczyzna,2022-06-11_09h42.44.026,task,2021.1.4,Win32,75.06380423,6299f149e92ead563fba08ef,62a4472ef1a68408b3a2c77f,,,,,,,,,,,,,5,,,,,,,,,,Task,36,(8/4) + 3,5,,,,,,,,,,,,,,,,,,,1,,,,,,,,,,,,,,,,,,,,,,,"[""5""]",1,[2.404699999987997],0,0,0,35,1,,,,,,,,,,,,,,,,,,,,,,,,,,
,,,,,,,,,,,X V Q F H G B L J M P D K C T S W R N Z,5fd2416e5061f30735e202e9,21,Mężczyzna,2022-06-11_09h42.44.026,task,2021.1.4,Win32,75.06380423,6299f149e92ead563fba08ef,62a4472ef1a68408b3a2c77f,,,,,,,,,,,,,,,,,,,,,,,,,,,,,,,,,,,,,,,,,,,,,,,,,,,,,,,,,,,,,,,,,,,,,,,,,,,,7,0,7,0,1,,,,,,,,,,,,,,,,,,,,,
,,,,,,,,,,,,5fd2416e5061f30735e202e9,21,Mężczyzna,2022-06-11_09h42.44.026,task,2021.1.4,Win32,75.06380423,6299f149e92ead563fba08ef,62a4472ef1a68408b3a2c77f,,,,,,,,,,,,,2,,,,,,,,,,Task,19,(6/2) - 1,2,,,,,,,,,,,,,,,,,,,1,,,,,,,,,,,,,,,,,,,,,,,"[""2""]",1,[3.0558000000119137],0,0,0,18,1,,,,,,,,,,,,,,,,,,,,,,,,,,
,,,,,,,,,,,X V Q F H G B L J M P D K C T S W R N Z,5fd2416e5061f30735e202e9,21,Mężczyzna,2022-06-11_09h42.44.026,task,2021.1.4,Win32,75.06380423,6299f149e92ead563fba08ef,62a4472ef1a68408b3a2c77f,,,,,,,,,,,,,,,,,,,,,,,,,,,,,,,,,,,,,,,,,,,,,,,,,,,,,,,,,,,,,,,,,,,,,,,,,,,,8,0,8,0,1,,,,,,,,,,,,,,,,,,,,,
,,,,,,,,,,,,5fd2416e5061f30735e202e9,21,Mężczyzna,2022-06-11_09h42.44.026,task,2021.1.4,Win32,75.06380423,6299f149e92ead563fba08ef,62a4472ef1a68408b3a2c77f,,,,,,,,,,,,,8,,,,,,,,,,Task,32,(8/2) + 4,8,,,,,,,,,,,,,,,,,,,1,,,,,,,,,,,,,,,,,,,,,,,"[""8""]",1,[2.461700000047699],0,0,0,31,1,,,,,,,,,,,,,,,,,,,,,,,,,,
,,,,,,,,,,,X V Q F H G B L J M P D K C T S W R N Z,5fd2416e5061f30735e202e9,21,Mężczyzna,2022-06-11_09h42.44.026,task,2021.1.4,Win32,75.06380423,6299f149e92ead563fba08ef,62a4472ef1a68408b3a2c77f,,,,,,,,,,,,,,,,,,,,,,,,,,,,,,,,,,,,,,,,,,,,,,,,,,,,,,,,,,,,,,,,,,,,,,,,,,,,9,0,9,0,1,,,,,,,,,,,,,,,,,,,,,
,,,,,,,,,,,,5fd2416e5061f30735e202e9,21,Mężczyzna,2022-06-11_09h42.44.026,task,2021.1.4,Win32,75.06380423,6299f149e92ead563fba08ef,62a4472ef1a68408b3a2c77f,,,,,,,,,,,,,8,,,,,,,,,,Task,39,(5x3) - 7,8,,,,,,,,,,,,,,,,,,,1,,,,,,,,,,,,,,,,,,,,,,,"[""8""]",1,[2.4669999999999845],0,0,0,38,1,,,,,,,,,,,,,,,,,,,,,,,,,,
,,,,,,,,,,,X V Q F H G B L J M P D K C T S W R N Z,5fd2416e5061f30735e202e9,21,Mężczyzna,2022-06-11_09h42.44.026,task,2021.1.4,Win32,75.06380423,6299f149e92ead563fba08ef,62a4472ef1a68408b3a2c77f,,,,,,,,,,,,,,,,,,,,,,,,,,,,,,,,,,,,,,,,,,,,,,,,,,,,,,,,,,,,,,,,,,,,,,,,,,,,10,0,10,0,1,,,,,,,,,,,,,,,,,,,,,
,,,,,,,,,,,,5fd2416e5061f30735e202e9,21,Mężczyzna,2022-06-11_09h42.44.026,task,2021.1.4,Win32,75.06380423,6299f149e92ead563fba08ef,62a4472ef1a68408b3a2c77f,,,,,,,,,,,,,,,,,,,,,,,,,,,,,,,,,,,,,,,,,,,,,,,,,,,,,,,,,,,,,,,,,,,,,,,,,,,,,,,,,mszttljntdk,"[""m"",""s"",""z"",""t"",""t"",""l"",""j"",""n"",""t"",""d"",""k""]",0,"[2.738199999988069,3.0031999999880554,3.3070000000000164,4.906499999999937,5.328399999976114,6.302199999988034,7.062000000000012,7.613499999999931,8.426799999952323,9.080099999964204,9.690499999999929,10.524199999988014]",1,MSZTTLJNTDK,9,0,9,0,1,,,,,,,,,,
,,,,,,,,,,,,5fd2416e5061f30735e202e9,21,Mężczyzna,2022-06-11_09h42.44.026,task,2021.1.4,Win32,75.06380423,6299f149e92ead563fba08ef,62a4472ef1a68408b3a2c77f,,,,,,,,,,,,,2,,,,,,,,,,Task,19,(6/2) - 1,2,,,,,,,,,,,,,,,,,,,1,,,,,,,,,,,,,,,,,,,,,,,"[""2""]",1,[3.0583000000119682],0,0,0,18,1,,,,,,,,,,,,,,,,,,,,,,,,,,
,,,,,,,,,,,X V Q F H G B L J M P D K C T S W R N Z,5fd2416e5061f30735e202e9,21,Mężczyzna,2022-06-11_09h42.44.026,task,2021.1.4,Win32,75.06380423,6299f149e92ead563fba08ef,62a4472ef1a68408b3a2c77f,,,,,,,,,,,,,,,,,,,,,,,,,,,,,,,,,,,,,,,,,,,,,,,,,,,,,,,,,,,,,,,,,,,,,,,,,,,,0,0,0,0,1,,,,,,,,,,,,,,,,,,,,,
,,,,,,,,,,,,5fd2416e5061f30735e202e9,21,Mężczyzna,2022-06-11_09h42.44.026,task,2021.1.4,Win32,75.06380423,6299f149e92ead563fba08ef,62a4472ef1a68408b3a2c77f,,,,,,,,,,,,,0,,,,,,,,,,Task,8,(1x5) - 5,0,,,,,,,,,,,,,,,,,,,1,,,,,,,,,,,,,,,,,,,,,,,"[""0""]",1,[1.7788999999761472],0,0,0,7,1,,,,,,,,,,,,,,,,,,,,,,,,,,
,,,,,,,,,,,X V Q F H G B L J M P D K C T S W R N Z,5fd2416e5061f30735e202e9,21,Mężczyzna,2022-06-11_09h42.44.026,task,2021.1.4,Win32,75.06380423,6299f149e92ead563fba08ef,62a4472ef1a68408b3a2c77f,,,,,,,,,,,,,,,,,,,,,,,,,,,,,,,,,,,,,,,,,,,,,,,,,,,,,,,,,,,,,,,,,,,,,,,,,,,,1,0,1,0,1,,,,,,,,,,,,,,,,,,,,,
,,,,,,,,,,,,5fd2416e5061f30735e202e9,21,Mężczyzna,2022-06-11_09h42.44.026,task,2021.1.4,Win32,75.06380423,6299f149e92ead563fba08ef,62a4472ef1a68408b3a2c77f,,,,,,,,,,,,,2,,,,,,,,,,Task,2,(2x2) - 2,2,,,,,,,,,,,,,,,,,,,1,,,,,,,,,,,,,,,,,,,,,,,"[""2""]",1,[2.058100000023842],0,0,0,1,1,,,,,,,,,,,,,,,,,,,,,,,,,,
,,,,,,,,,,,X V Q F H G B L J M P D K C T S W R N Z,5fd2416e5061f30735e202e9,21,Mężczyzna,2022-06-11_09h42.44.026,task,2021.1.4,Win32,75.06380423,6299f149e92ead563fba08ef,62a4472ef1a68408b3a2c77f,,,,,,,,,,,,,,,,,,,,,,,,,,,,,,,,,,,,,,,,,,,,,,,,,,,,,,,,,,,,,,,,,,,,,,,,,,,,2,0,2,0,1,,,,,,,,,,,,,,,,,,,,,
,,,,,,,,,,,,5fd2416e5061f30735e202e9,21,Mężczyzna,2022-06-11_09h42.44.026,task,2021.1.4,Win32,75.06380423,6299f149e92ead563fba08ef,62a4472ef1a68408b3a2c77f,,,,,,,,,,,,,1,,,,,,,,,,Task,18,(16/4) - 3,1,,,,,,,,,,,,,,,,,,,1,,,,,,,,,,,,,,,,,,,,,,,"[""1""]",1,[2.428699999988112],0,0,0,17,1,,,,,,,,,,,,,,,,,,,,,,,,,,
,,,,,,,,,,,X V Q F H G B L J M P D K C T S W R N Z,5fd2416e5061f30735e202e9,21,Mężczyzna,2022-06-11_09h42.44.026,task,2021.1.4,Win32,75.06380423,6299f149e92ead563fba08ef,62a4472ef1a68408b3a2c77f,,,,,,,,,,,,,,,,,,,,,,,,,,,,,,,,,,,,,,,,,,,,,,,,,,,,,,,,,,,,,,,,,,,,,,,,,,,,3,0,3,0,1,,,,,,,,,,,,,,,,,,,,,
,,,,,,,,,,,,5fd2416e5061f30735e202e9,21,Mężczyzna,2022-06-11_09h42.44.026,task,2021.1.4,Win32,75.06380423,6299f149e92ead563fba08ef,62a4472ef1a68408b3a2c77f,,,,,,,,,,,,,4,,,,,,,,,,Task,11,(18/3) - 2,4,,,,,,,,,,,,,,,,,,,1,,,,,,,,,,,,,,,,,,,,,,,"[""4""]",1,[2.758900000035851],0,0,0,10,1,,,,,,,,,,,,,,,,,,,,,,,,,,
,,,,,,,,,,,X V Q F H G B L J M P D K C T S W R N Z,5fd2416e5061f30735e202e9,21,Mężczyzna,2022-06-11_09h42.44.026,task,2021.1.4,Win32,75.06380423,6299f149e92ead563fba08ef,62a4472ef1a68408b3a2c77f,,,,,,,,,,,,,,,,,,,,,,,,,,,,,,,,,,,,,,,,,,,,,,,,,,,,,,,,,,,,,,,,,,,,,,,,,,,,4,0,4,0,1,,,,,,,,,,,,,,,,,,,,,
,,,,,,,,,,,,5fd2416e5061f30735e202e9,21,Mężczyzna,2022-06-11_09h42.44.026,task,2021.1.4,Win32,75.06380423,6299f149e92ead563fba08ef,62a4472ef1a68408b3a2c77f,,,,,,,,,,,,,0,,,,,,,,,,Task,33,(1/1) - 1,0,,,,,,,,,,,,,,,,,,,1,,,,,,,,,,,,,,,,,,,,,,,"[""0""]",1,[1.3356999999880372],0,0,0,32,1,,,,,,,,,,,,,,,,,,,,,,,,,,
,,,,,,,,,,,X V Q F H G B L J M P D K C T S W R N Z,5fd2416e5061f30735e202e9,21,Mężczyzna,2022-06-11_09h42.44.026,task,2021.1.4,Win32,75.06380423,6299f149e92ead563fba08ef,62a4472ef1a68408b3a2c77f,,,,,,,,,,,,,,,,,,,,,,,,,,,,,,,,,,,,,,,,,,,,,,,,,,,,,,,,,,,,,,,,,,,,,,,,,,,,5,0,5,0,1,,,,,,,,,,,,,,,,,,,,,
,,,,,,,,,,,,5fd2416e5061f30735e202e9,21,Mężczyzna,2022-06-11_09h42.44.026,task,2021.1.4,Win32,75.06380423,6299f149e92ead563fba08ef,62a4472ef1a68408b3a2c77f,,,,,,,,,,,,,7,,,,,,,,,,Task,38,(4x6) - 17,7,,,,,,,,,,,,,,,,,,,1,,,,,,,,,,,,,,,,,,,,,,,"[""7""]",1,[3.6180999999642154],0,0,0,37,1,,,,,,,,,,,,,,,,,,,,,,,,,,
,,,,,,,,,,,X V Q F H G B L J M P D K C T S W R N Z,5fd2416e5061f30735e202e9,21,Mężczyzna,2022-06-11_09h42.44.026,task,2021.1.4,Win32,75.06380423,6299f149e92ead563fba08ef,62a4472ef1a68408b3a2c77f,,,,,,,,,,,,,,,,,,,,,,,,,,,,,,,,,,,,,,,,,,,,,,,,,,,,,,,,,,,,,,,,,,,,,,,,,,,,6,0,6,0,1,,,,,,,,,,,,,,,,,,,,,
,,,,,,,,,,,,5fd2416e5061f30735e202e9,21,Mężczyzna,2022-06-11_09h42.44.026,task,2021.1.4,Win32,75.06380423,6299f149e92ead563fba08ef,62a4472ef1a68408b3a2c77f,,,,,,,,,,,,,6,,,,,,,,,,Task,30,(6/3) + 4 ,6,,,,,,,,,,,,,,,,,,,1,,,,,,,,,,,,,,,,,,,,,,,"[""6""]",1,[2.844000000000051],0,0,0,29,1,,,,,,,,,,,,,,,,,,,,,,,,,,
,,,,,,,,,,,X V Q F H G B L J M P D K C T S W R N Z,5fd2416e5061f30735e202e9,21,Mężczyzna,2022-06-11_09h42.44.026,task,2021.1.4,Win32,75.06380423,6299f149e92ead563fba08ef,62a4472ef1a68408b3a2c77f,,,,,,,,,,,,,,,,,,,,,,,,,,,,,,,,,,,,,,,,,,,,,,,,,,,,,,,,,,,,,,,,,,,,,,,,,,,,7,0,7,0,1,,,,,,,,,,,,,,,,,,,,,
,,,,,,,,,,,,5fd2416e5061f30735e202e9,21,Mężczyzna,2022-06-11_09h42.44.026,task,2021.1.4,Win32,75.06380423,6299f149e92ead563fba08ef,62a4472ef1a68408b3a2c77f,,,,,,,,,,,,,0,,,,,,,,,,Task,8,(1x5) - 5,0,,,,,,,,,,,,,,,,,,,1,,,,,,,,,,,,,,,,,,,,,,,"[""0""]",1,[1.5903000000118936],0,0,0,7,1,,,,,,,,,,,,,,,,,,,,,,,,,,
,,,,,,,,,,,X V Q F H G B L J M P D K C T S W R N Z,5fd2416e5061f30735e202e9,21,Mężczyzna,2022-06-11_09h42.44.026,task,2021.1.4,Win32,75.06380423,6299f149e92ead563fba08ef,62a4472ef1a68408b3a2c77f,,,,,,,,,,,,,,,,,,,,,,,,,,,,,,,,,,,,,,,,,,,,,,,,,,,,,,,,,,,,,,,,,,,,,,,,,,,,8,0,8,0,1,,,,,,,,,,,,,,,,,,,,,
,,,,,,,,,,,,5fd2416e5061f30735e202e9,21,Mężczyzna,2022-06-11_09h42.44.026,task,2021.1.4,Win32,75.06380423,6299f149e92ead563fba08ef,62a4472ef1a68408b3a2c77f,,,,,,,,,,,,,7,,,,,,,,,,Task,6,(12/2) + 1,7,,,,,,,,,,,,,,,,,,,1,,,,,,,,,,,,,,,,,,,,,,,"[""7""]",1,[1.6165999999641372],0,0,0,5,1,,,,,,,,,,,,,,,,,,,,,,,,,,
,,,,,,,,,,,X V Q F H G B L J M P D K C T S W R N Z,5fd2416e5061f30735e202e9,21,Mężczyzna,2022-06-11_09h42.44.026,task,2021.1.4,Win32,75.06380423,6299f149e92ead563fba08ef,62a4472ef1a68408b3a2c77f,,,,,,,,,,,,,,,,,,,,,,,,,,,,,,,,,,,,,,,,,,,,,,,,,,,,,,,,,,,,,,,,,,,,,,,,,,,,9,0,9,0,1,,,,,,,,,,,,,,,,,,,,,
,,,,,,,,,,,,5fd2416e5061f30735e202e9,21,Mężczyzna,2022-06-11_09h42.44.026,task,2021.1.4,Win32,75.06380423,6299f149e92ead563fba08ef,62a4472ef1a68408b3a2c77f,,,,,,,,,,,,,7,,,,,,,,,,Task,31,(4/2) + 5,7,,,,,,,,,,,,,,,,,,,1,,,,,,,,,,,,,,,,,,,,,,,"[""7""]",1,[2.2350000000000136],0,0,0,30,1,,,,,,,,,,,,,,,,,,,,,,,,,,
,,,,,,,,,,,X V Q F H G B L J M P D K C T S W R N Z,5fd2416e5061f30735e202e9,21,Mężczyzna,2022-06-11_09h42.44.026,task,2021.1.4,Win32,75.06380423,6299f149e92ead563fba08ef,62a4472ef1a68408b3a2c77f,,,,,,,,,,,,,,,,,,,,,,,,,,,,,,,,,,,,,,,,,,,,,,,,,,,,,,,,,,,,,,,,,,,,,,,,,,,,10,0,10,0,1,,,,,,,,,,,,,,,,,,,,,
,,,,,,,,,,,,5fd2416e5061f30735e202e9,21,Mężczyzna,2022-06-11_09h42.44.026,task,2021.1.4,Win32,75.06380423,6299f149e92ead563fba08ef,62a4472ef1a68408b3a2c77f,,,,,,,,,,,,,5,,,,,,,,,,Task,36,(8/4) + 3,5,,,,,,,,,,,,,,,,,,,1,,,,,,,,,,,,,,,,,,,,,,,"[""5""]",1,[3.731999999999971],0,0,0,35,1,,,,,,,,,,,,,,,,,,,,,,,,,,
,,,,,,,,,,,X V Q F H G B L J M P D K C T S W R N Z,5fd2416e5061f30735e202e9,21,Mężczyzna,2022-06-11_09h42.44.026,task,2021.1.4,Win32,75.06380423,6299f149e92ead563fba08ef,62a4472ef1a68408b3a2c77f,,,,,,,,,,,,,,,,,,,,,,,,,,,,,,,,,,,,,,,,,,,,,,,,,,,,,,,,,,,,,,,,,,,,,,,,,,,,11,0,11,0,1,,,,,,,,,,,,,,,,,,,,,
,,,,,,,,,,,,5fd2416e5061f30735e202e9,21,Mężczyzna,2022-06-11_09h42.44.026,task,2021.1.4,Win32,75.06380423,6299f149e92ead563fba08ef,62a4472ef1a68408b3a2c77f,,,,,,,,,,,,,,,,,,,,,,,,,,,,,,,,,,,,,,,,,,,,,,,,,,,,,,,,,,,,,,,,,,,,,,,,,,,,,,,,,mmgtsrdgbbsx,"[""m"",""m"",""g"",""t"",""s"",""r"",""d"",""g"",""b"",""b"",""s"",""x""]",0,"[2.4226000000238628,2.7734000000357355,3.249500000000012,3.8856999999881054,4.341499999999996,4.960400000035747,5.563499999999976,6.2493000000118855,7.5276999999880445,8.034699999988106,8.63040000003582,8.934100000023818,9.773400000035736]",1,MMGTSRDGBBSX,10,0,10,0,1,,,,,,,,,,
,,,,,,,,,,,,5fd2416e5061f30735e202e9,21,Mężczyzna,2022-06-11_09h42.44.026,task,2021.1.4,Win32,75.06380423,6299f149e92ead563fba08ef,62a4472ef1a68408b3a2c77f,,,,,,,,,,,,,1,,,,,,,,,,Task,18,(16/4) - 3,1,,,,,,,,,,,,,,,,,,,1,,,,,,,,,,,,,,,,,,,,,,,"[""1""]",1,[2.366300000011961],0,0,0,17,1,,,,,,,,,,,,,,,,,,,,,,,,,,
,,,,,,,,,,,X V Q F H G B L J M P D K C T S W R N Z,5fd2416e5061f30735e202e9,21,Mężczyzna,2022-06-11_09h42.44.026,task,2021.1.4,Win32,75.06380423,6299f149e92ead563fba08ef,62a4472ef1a68408b3a2c77f,,,,,,,,,,,,,,,,,,,,,,,,,,,,,,,,,,,,,,,,,,,,,,,,,,,,,,,,,,,,,,,,,,,,,,,,,,,,0,0,0,0,1,,,,,,,,,,,,,,,,,,,,,
,,,,,,,,,,,,5fd2416e5061f30735e202e9,21,Mężczyzna,2022-06-11_09h42.44.026,task,2021.1.4,Win32,75.06380423,6299f149e92ead563fba08ef,62a4472ef1a68408b3a2c77f,,,,,,,,,,,,,7,,,,,,,,,,Task,38,(4x6) - 17,7,,,,,,,,,,,,,,,,,,,1,,,,,,,,,,,,,,,,,,,,,,,"[""7""]",1,[3.762300000011919],0,0,0,37,1,,,,,,,,,,,,,,,,,,,,,,,,,,
,,,,,,,,,,,X V Q F H G B L J M P D K C T S W R N Z,5fd2416e5061f30735e202e9,21,Mężczyzna,2022-06-11_09h42.44.026,task,2021.1.4,Win32,75.06380423,6299f149e92ead563fba08ef,62a4472ef1a68408b3a2c77f,,,,,,,,,,,,,,,,,,,,,,,,,,,,,,,,,,,,,,,,,,,,,,,,,,,,,,,,,,,,,,,,,,,,,,,,,,,,1,0,1,0,1,,,,,,,,,,,,,,,,,,,,,
,,,,,,,,,,,,5fd2416e5061f30735e202e9,21,Mężczyzna,2022-06-11_09h42.44.026,task,2021.1.4,Win32,75.06380423,6299f149e92ead563fba08ef,62a4472ef1a68408b3a2c77f,,,,,,,,,,,,,3,,,,,,,,,,Task,20,(18/9) + 1,3,,,,,,,,,,,,,,,,,,,1,,,,,,,,,,,,,,,,,,,,,,,"[""3""]",1,[2.4756999999880236],0,0,0,19,1,,,,,,,,,,,,,,,,,,,,,,,,,,
,,,,,,,,,,,X V Q F H G B L J M P D K C T S W R N Z,5fd2416e5061f30735e202e9,21,Mężczyzna,2022-06-11_09h42.44.026,task,2021.1.4,Win32,75.06380423,6299f149e92ead563fba08ef,62a4472ef1a68408b3a2c77f,,,,,,,,,,,,,,,,,,,,,,,,,,,,,,,,,,,,,,,,,,,,,,,,,,,,,,,,,,,,,,,,,,,,,,,,,,,,2,0,2,0,1,,,,,,,,,,,,,,,,,,,,,
,,,,,,,,,,,,5fd2416e5061f30735e202e9,21,Mężczyzna,2022-06-11_09h42.44.026,task,2021.1.4,Win32,75.06380423,6299f149e92ead563fba08ef,62a4472ef1a68408b3a2c77f,,,,,,,,,,,,,7,,,,,,,,,,Task,38,(4x6) - 17,7,,,,,,,,,,,,,,,,,,,1,,,,,,,,,,,,,,,,,,,,,,,"[""7""]",1,[2.04460000002382],0,0,0,37,1,,,,,,,,,,,,,,,,,,,,,,,,,,
,,,,,,,,,,,X V Q F H G B L J M P D K C T S W R N Z,5fd2416e5061f30735e202e9,21,Mężczyzna,2022-06-11_09h42.44.026,task,2021.1.4,Win32,75.06380423,6299f149e92ead563fba08ef,62a4472ef1a68408b3a2c77f,,,,,,,,,,,,,,,,,,,,,,,,,,,,,,,,,,,,,,,,,,,,,,,,,,,,,,,,,,,,,,,,,,,,,,,,,,,,3,0,3,0,1,,,,,,,,,,,,,,,,,,,,,
,,,,,,,,,,,,5fd2416e5061f30735e202e9,21,Mężczyzna,2022-06-11_09h42.44.026,task,2021.1.4,Win32,75.06380423,6299f149e92ead563fba08ef,62a4472ef1a68408b3a2c77f,,,,,,,,,,,,,4,,,,,,,,,,Task,4,(1x5) - 1,4,,,,,,,,,,,,,,,,,,,1,,,,,,,,,,,,,,,,,,,,,,,"[""4""]",1,[3.0038000000120064],0,0,0,3,1,,,,,,,,,,,,,,,,,,,,,,,,,,
,,,,,,,,,,,X V Q F H G B L J M P D K C T S W R N Z,5fd2416e5061f30735e202e9,21,Mężczyzna,2022-06-11_09h42.44.026,task,2021.1.4,Win32,75.06380423,6299f149e92ead563fba08ef,62a4472ef1a68408b3a2c77f,,,,,,,,,,,,,,,,,,,,,,,,,,,,,,,,,,,,,,,,,,,,,,,,,,,,,,,,,,,,,,,,,,,,,,,,,,,,4,0,4,0,1,,,,,,,,,,,,,,,,,,,,,
,,,,,,,,,,,,5fd2416e5061f30735e202e9,21,Mężczyzna,2022-06-11_09h42.44.026,task,2021.1.4,Win32,75.06380423,6299f149e92ead563fba08ef,62a4472ef1a68408b3a2c77f,,,,,,,,,,,,,0,,,,,,,,,,Task,33,(1/1) - 1,0,,,,,,,,,,,,,,,,,,,1,,,,,,,,,,,,,,,,,,,,,,,"[""0""]",1,[1.6325999999642136],0,0,0,32,1,,,,,,,,,,,,,,,,,,,,,,,,,,
,,,,,,,,,,,X V Q F H G B L J M P D K C T S W R N Z,5fd2416e5061f30735e202e9,21,Mężczyzna,2022-06-11_09h42.44.026,task,2021.1.4,Win32,75.06380423,6299f149e92ead563fba08ef,62a4472ef1a68408b3a2c77f,,,,,,,,,,,,,,,,,,,,,,,,,,,,,,,,,,,,,,,,,,,,,,,,,,,,,,,,,,,,,,,,,,,,,,,,,,,,5,0,5,0,1,,,,,,,,,,,,,,,,,,,,,
,,,,,,,,,,,,5fd2416e5061f30735e202e9,21,Mężczyzna,2022-06-11_09h42.44.026,task,2021.1.4,Win32,75.06380423,6299f149e92ead563fba08ef,62a4472ef1a68408b3a2c77f,,,,,,,,,,,,,3,,,,,,,,,,Task,35,(1x2) + 1,3,,,,,,,,,,,,,,,,,,,1,,,,,,,,,,,,,,,,,,,,,,,"[""3""]",1,[2.3399000000357546],0,0,0,34,1,,,,,,,,,,,,,,,,,,,,,,,,,,
,,,,,,,,,,,X V Q F H G B L J M P D K C T S W R N Z,5fd2416e5061f30735e202e9,21,Mężczyzna,2022-06-11_09h42.44.026,task,2021.1.4,Win32,75.06380423,6299f149e92ead563fba08ef,62a4472ef1a68408b3a2c77f,,,,,,,,,,,,,,,,,,,,,,,,,,,,,,,,,,,,,,,,,,,,,,,,,,,,,,,,,,,,,,,,,,,,,,,,,,,,6,0,6,0,1,,,,,,,,,,,,,,,,,,,,,
,,,,,,,,,,,,5fd2416e5061f30735e202e9,21,Mężczyzna,2022-06-11_09h42.44.026,task,2021.1.4,Win32,75.06380423,6299f149e92ead563fba08ef,62a4472ef1a68408b3a2c77f,,,,,,,,,,,,,2,,,,,,,,,,Task,26,(2x9) - 16,2,,,,,,,,,,,,,,,,,,,1,,,,,,,,,,,,,,,,,,,,,,,"[""2""]",1,[1.7320999999642481],0,0,0,25,1,,,,,,,,,,,,,,,,,,,,,,,,,,
,,,,,,,,,,,X V Q F H G B L J M P D K C T S W R N Z,5fd2416e5061f30735e202e9,21,Mężczyzna,2022-06-11_09h42.44.026,task,2021.1.4,Win32,75.06380423,6299f149e92ead563fba08ef,62a4472ef1a68408b3a2c77f,,,,,,,,,,,,,,,,,,,,,,,,,,,,,,,,,,,,,,,,,,,,,,,,,,,,,,,,,,,,,,,,,,,,,,,,,,,,7,0,7,0,1,,,,,,,,,,,,,,,,,,,,,
,,,,,,,,,,,,5fd2416e5061f30735e202e9,21,Mężczyzna,2022-06-11_09h42.44.026,task,2021.1.4,Win32,75.06380423,6299f149e92ead563fba08ef,62a4472ef1a68408b3a2c77f,,,,,,,,,,,,,9,,,,,,,,,,Task,16,(3x8) - 15,9,,,,,,,,,,,,,,,,,,,1,,,,,,,,,,,,,,,,,,,,,,,"[""9""]",1,[3.447499999999991],0,0,0,15,1,,,,,,,,,,,,,,,,,,,,,,,,,,
,,,,,,,,,,,X V Q F H G B L J M P D K C T S W R N Z,5fd2416e5061f30735e202e9,21,Mężczyzna,2022-06-11_09h42.44.026,task,2021.1.4,Win32,75.06380423,6299f149e92ead563fba08ef,62a4472ef1a68408b3a2c77f,,,,,,,,,,,,,,,,,,,,,,,,,,,,,,,,,,,,,,,,,,,,,,,,,,,,,,,,,,,,,,,,,,,,,,,,,,,,8,0,8,0,1,,,,,,,,,,,,,,,,,,,,,
,,,,,,,,,,,,5fd2416e5061f30735e202e9,21,Mężczyzna,2022-06-11_09h42.44.026,task,2021.1.4,Win32,75.06380423,6299f149e92ead563fba08ef,62a4472ef1a68408b3a2c77f,,,,,,,,,,,,,6,,,,,,,,,,Task,30,(6/3) + 4 ,6,,,,,,,,,,,,,,,,,,,1,,,,,,,,,,,,,,,,,,,,,,,"[""6""]",1,[3.2460999999641444],0,0,0,29,1,,,,,,,,,,,,,,,,,,,,,,,,,,
,,,,,,,,,,,X V Q F H G B L J M P D K C T S W R N Z,5fd2416e5061f30735e202e9,21,Mężczyzna,2022-06-11_09h42.44.026,task,2021.1.4,Win32,75.06380423,6299f149e92ead563fba08ef,62a4472ef1a68408b3a2c77f,,,,,,,,,,,,,,,,,,,,,,,,,,,,,,,,,,,,,,,,,,,,,,,,,,,,,,,,,,,,,,,,,,,,,,,,,,,,9,0,9,0,1,,,,,,,,,,,,,,,,,,,,,
,,,,,,,,,,,,5fd2416e5061f30735e202e9,21,Mężczyzna,2022-06-11_09h42.44.026,task,2021.1.4,Win32,75.06380423,6299f149e92ead563fba08ef,62a4472ef1a68408b3a2c77f,,,,,,,,,,,,,7,,,,,,,,,,Task,6,(12/2) + 1,7,,,,,,,,,,,,,,,,,,,1,,,,,,,,,,,,,,,,,,,,,,,"[""7""]",1,[2.615800000011859],0,0,0,5,1,,,,,,,,,,,,,,,,,,,,,,,,,,
,,,,,,,,,,,X V Q F H G B L J M P D K C T S W R N Z,5fd2416e5061f30735e202e9,21,Mężczyzna,2022-06-11_09h42.44.026,task,2021.1.4,Win32,75.06380423,6299f149e92ead563fba08ef,62a4472ef1a68408b3a2c77f,,,,,,,,,,,,,,,,,,,,,,,,,,,,,,,,,,,,,,,,,,,,,,,,,,,,,,,,,,,,,,,,,,,,,,,,,,,,10,0,10,0,1,,,,,,,,,,,,,,,,,,,,,
,,,,,,,,,,,,5fd2416e5061f30735e202e9,21,Mężczyzna,2022-06-11_09h42.44.026,task,2021.1.4,Win32,75.06380423,6299f149e92ead563fba08ef,62a4472ef1a68408b3a2c77f,,,,,,,,,,,,,8,,,,,,,,,,Task,32,(8/2) + 4,8,,,,,,,,,,,,,,,,,,,1,,,,,,,,,,,,,,,,,,,,,,,"[""8""]",1,[2.12680000001194],0,0,0,31,1,,,,,,,,,,,,,,,,,,,,,,,,,,
,,,,,,,,,,,X V Q F H G B L J M P D K C T S W R N Z,5fd2416e5061f30735e202e9,21,Mężczyzna,2022-06-11_09h42.44.026,task,2021.1.4,Win32,75.06380423,6299f149e92ead563fba08ef,62a4472ef1a68408b3a2c77f,,,,,,,,,,,,,,,,,,,,,,,,,,,,,,,,,,,,,,,,,,,,,,,,,,,,,,,,,,,,,,,,,,,,,,,,,,,,11,0,11,0,1,,,,,,,,,,,,,,,,,,,,,
,,,,,,,,,,,,5fd2416e5061f30735e202e9,21,Mężczyzna,2022-06-11_09h42.44.026,task,2021.1.4,Win32,75.06380423,6299f149e92ead563fba08ef,62a4472ef1a68408b3a2c77f,,,,,,,,,,,,,0,,,,,,,,,,Task,33,(1/1) - 1,0,,,,,,,,,,,,,,,,,,,1,,,,,,,,,,,,,,,,,,,,,,,"[""0""]",1,[1.2441999999882682],0,0,0,32,1,,,,,,,,,,,,,,,,,,,,,,,,,,
,,,,,,,,,,,X V Q F H G B L J M P D K C T S W R N Z,5fd2416e5061f30735e202e9,21,Mężczyzna,2022-06-11_09h42.44.026,task,2021.1.4,Win32,75.06380423,6299f149e92ead563fba08ef,62a4472ef1a68408b3a2c77f,,,,,,,,,,,,,,,,,,,,,,,,,,,,,,,,,,,,,,,,,,,,,,,,,,,,,,,,,,,,,,,,,,,,,,,,,,,,12,0,12,0,1,,,,,,,,,,,,,,,,,,,,,
