key_resp_15.keys,key_resp_15.rt,key_resp_13.keys,key_resp_13.corr,key_resp_13.rt,ranodm_loop.thisRepN,ranodm_loop.thisTrialN,ranodm_loop.thisN,ranodm_loop.thisIndex,ranodm_loop.ran,participant,Wiek*,Płeć,date,expName,psychopyVersion,OS,frameRate,study_id,session,key_resp_16.keys,key_resp_16.rt,key_resp_4.keys,key_resp_4.rt,next_letter.thisRepN,next_letter.thisTrialN,next_letter.thisN,next_letter.thisIndex,next_letter.ran,letter,simple_recall,key_resp_5.keys,key_resp_5.rt,simple_recall_corr,simple_recall_corrkeys,next_level.thisRepN,next_level.thisTrialN,next_level.thisN,next_level.thisIndex,next_level.ran,key_resp_2.keys,key_resp_2.rt,digit_answer,key_resp.keys,key_resp.corr,key_resp.rt,RT_list,next_equation.thisRepN,next_equation.thisTrialN,next_equation.thisN,next_equation.thisIndex,next_equation.ran,Task,Trial,Problem,Operation_answer,processing_score,sumRT,meanRT,sumdiff,sd,RT,key_resp_3.keys,key_resp_3.rt,repeat_practice.thisRepN,repeat_practice.thisTrialN,repeat_practice.thisN,repeat_practice.thisIndex,repeat_practice.ran,key_resp_6.keys,key_resp_6.rt,key_resp_11.keys,key_resp_11.corr,key_resp_11.rt,operation_correct,repeat_if_wrong_prac.thisRepN,repeat_if_wrong_prac.thisTrialN,repeat_if_wrong_prac.thisN,repeat_if_wrong_prac.thisIndex,repeat_if_wrong_prac.ran,span_size_prac.thisRepN,span_size_prac.thisTrialN,span_size_prac.thisN,span_size_prac.thisIndex,span_size_prac.ran,complex_recall_practice,key_resp_9.keys,key_resp_9.corr,key_resp_9.rt,complex_prac_corr,span_recall_prac.thisRepN,span_recall_prac.thisTrialN,span_recall_prac.thisN,span_recall_prac.thisIndex,span_recall_prac.ran,key_resp_10.keys,key_resp_10.rt,key_resp_7.keys,key_resp_7.corr,key_resp_7.rt,repeat_if_wrong.thisRepN,repeat_if_wrong.thisTrialN,repeat_if_wrong.thisN,repeat_if_wrong.thisIndex,repeat_if_wrong.ran,span_size.thisRepN,span_size.thisTrialN,span_size.thisN,span_size.thisIndex,span_size.ran,complex_recall,key_resp_8.keys,key_resp_8.corr,key_resp_8.rt,complex_recall_corr,complex_recall_corrkeys,span_recall.thisRepN,span_recall.thisTrialN,span_recall.thisN,span_recall.thisIndex,span_recall.ran,key_resp_12.keys,key_resp_12.rt
space,20.8632,"[""comma""]",0,[1.2602999999523092],0,0,0,0,1,5fd5038ab78cf82f89c86bdc,20,Mężczyzna,2022-06-04_08h09.34.438,task,2021.1.4,Win32,60.0528465,628b806c463b948bc644b84f,629af6e7c430cf36bc415878,,,,,,,,,,,,,,,,,,,,,,,,,,,,,,,,,,,,,,,,,,,,,,,,,,,,,,,,,,,,,,,,,,,,,,,,,,,,,,,,,,,,,,,,,,,,,,,,,,,,,,,
,,"[""period""]",0,[1.252799999952316],1,0,1,0,1,5fd5038ab78cf82f89c86bdc,20,Mężczyzna,2022-06-04_08h09.34.438,task,2021.1.4,Win32,60.0528465,628b806c463b948bc644b84f,629af6e7c430cf36bc415878,,,,,,,,,,,,,,,,,,,,,,,,,,,,,,,,,,,,,,,,,,,,,,,,,,,,,,,,,,,,,,,,,,,,,,,,,,,,,,,,,,,,,,,,,,,,,,,,,,,,,,,
,,"[""period""]",0,[1.4013999998569489],2,0,2,0,1,5fd5038ab78cf82f89c86bdc,20,Mężczyzna,2022-06-04_08h09.34.438,task,2021.1.4,Win32,60.0528465,628b806c463b948bc644b84f,629af6e7c430cf36bc415878,,,,,,,,,,,,,,,,,,,,,,,,,,,,,,,,,,,,,,,,,,,,,,,,,,,,,,,,,,,,,,,,,,,,,,,,,,,,,,,,,,,,,,,,,,,,,,,,,,,,,,,
,,"[""comma""]",0,[1.2282999999523128],3,0,3,0,1,5fd5038ab78cf82f89c86bdc,20,Mężczyzna,2022-06-04_08h09.34.438,task,2021.1.4,Win32,60.0528465,628b806c463b948bc644b84f,629af6e7c430cf36bc415878,,,,,,,,,,,,,,,,,,,,,,,,,,,,,,,,,,,,,,,,,,,,,,,,,,,,,,,,,,,,,,,,,,,,,,,,,,,,,,,,,,,,,,,,,,,,,,,,,,,,,,,
,,"[""period""]",0,[1.3509000000953648],4,0,4,0,1,5fd5038ab78cf82f89c86bdc,20,Mężczyzna,2022-06-04_08h09.34.438,task,2021.1.4,Win32,60.0528465,628b806c463b948bc644b84f,629af6e7c430cf36bc415878,,,,,,,,,,,,,,,,,,,,,,,,,,,,,,,,,,,,,,,,,,,,,,,,,,,,,,,,,,,,,,,,,,,,,,,,,,,,,,,,,,,,,,,,,,,,,,,,,,,,,,,
,,"[""period""]",0,[1.333399999856951],5,0,5,0,1,5fd5038ab78cf82f89c86bdc,20,Mężczyzna,2022-06-04_08h09.34.438,task,2021.1.4,Win32,60.0528465,628b806c463b948bc644b84f,629af6e7c430cf36bc415878,,,,,,,,,,,,,,,,,,,,,,,,,,,,,,,,,,,,,,,,,,,,,,,,,,,,,,,,,,,,,,,,,,,,,,,,,,,,,,,,,,,,,,,,,,,,,,,,,,,,,,,
,,"[""period""]",0,[1.1171999998092588],6,0,6,0,1,5fd5038ab78cf82f89c86bdc,20,Mężczyzna,2022-06-04_08h09.34.438,task,2021.1.4,Win32,60.0528465,628b806c463b948bc644b84f,629af6e7c430cf36bc415878,,,,,,,,,,,,,,,,,,,,,,,,,,,,,,,,,,,,,,,,,,,,,,,,,,,,,,,,,,,,,,,,,,,,,,,,,,,,,,,,,,,,,,,,,,,,,,,,,,,,,,,
,,"[""comma""]",0,[1.0843999998569558],7,0,7,0,1,5fd5038ab78cf82f89c86bdc,20,Mężczyzna,2022-06-04_08h09.34.438,task,2021.1.4,Win32,60.0528465,628b806c463b948bc644b84f,629af6e7c430cf36bc415878,,,,,,,,,,,,,,,,,,,,,,,,,,,,,,,,,,,,,,,,,,,,,,,,,,,,,,,,,,,,,,,,,,,,,,,,,,,,,,,,,,,,,,,,,,,,,,,,,,,,,,,
,,"[""comma""]",0,[0.7730999999046446],8,0,8,0,1,5fd5038ab78cf82f89c86bdc,20,Mężczyzna,2022-06-04_08h09.34.438,task,2021.1.4,Win32,60.0528465,628b806c463b948bc644b84f,629af6e7c430cf36bc415878,,,,,,,,,,,,,,,,,,,,,,,,,,,,,,,,,,,,,,,,,,,,,,,,,,,,,,,,,,,,,,,,,,,,,,,,,,,,,,,,,,,,,,,,,,,,,,,,,,,,,,,
,,"[""period""]",0,[0.8088999998569477],9,0,9,0,1,5fd5038ab78cf82f89c86bdc,20,Mężczyzna,2022-06-04_08h09.34.438,task,2021.1.4,Win32,60.0528465,628b806c463b948bc644b84f,629af6e7c430cf36bc415878,,,,,,,,,,,,,,,,,,,,,,,,,,,,,,,,,,,,,,,,,,,,,,,,,,,,,,,,,,,,,,,,,,,,,,,,,,,,,,,,,,,,,,,,,,,,,,,,,,,,,,,
,,"[""comma""]",0,[1.0523999998569593],10,0,10,0,1,5fd5038ab78cf82f89c86bdc,20,Mężczyzna,2022-06-04_08h09.34.438,task,2021.1.4,Win32,60.0528465,628b806c463b948bc644b84f,629af6e7c430cf36bc415878,,,,,,,,,,,,,,,,,,,,,,,,,,,,,,,,,,,,,,,,,,,,,,,,,,,,,,,,,,,,,,,,,,,,,,,,,,,,,,,,,,,,,,,,,,,,,,,,,,,,,,,
,,"[""period""]",0,[1.1661999998092654],11,0,11,0,1,5fd5038ab78cf82f89c86bdc,20,Mężczyzna,2022-06-04_08h09.34.438,task,2021.1.4,Win32,60.0528465,628b806c463b948bc644b84f,629af6e7c430cf36bc415878,,,,,,,,,,,,,,,,,,,,,,,,,,,,,,,,,,,,,,,,,,,,,,,,,,,,,,,,,,,,,,,,,,,,,,,,,,,,,,,,,,,,,,,,,,,,,,,,,,,,,,,
,,"[""comma""]",0,[1.0444999999999993],12,0,12,0,1,5fd5038ab78cf82f89c86bdc,20,Mężczyzna,2022-06-04_08h09.34.438,task,2021.1.4,Win32,60.0528465,628b806c463b948bc644b84f,629af6e7c430cf36bc415878,,,,,,,,,,,,,,,,,,,,,,,,,,,,,,,,,,,,,,,,,,,,,,,,,,,,,,,,,,,,,,,,,,,,,,,,,,,,,,,,,,,,,,,,,,,,,,,,,,,,,,,
,,"[""comma""]",0,[1.0847999999523097],13,0,13,0,1,5fd5038ab78cf82f89c86bdc,20,Mężczyzna,2022-06-04_08h09.34.438,task,2021.1.4,Win32,60.0528465,628b806c463b948bc644b84f,629af6e7c430cf36bc415878,,,,,,,,,,,,,,,,,,,,,,,,,,,,,,,,,,,,,,,,,,,,,,,,,,,,,,,,,,,,,,,,,,,,,,,,,,,,,,,,,,,,,,,,,,,,,,,,,,,,,,,
,,"[""comma"",""comma""]",0,"[0.10409999990460506,1.4920999999046103]",14,0,14,0,1,5fd5038ab78cf82f89c86bdc,20,Mężczyzna,2022-06-04_08h09.34.438,task,2021.1.4,Win32,60.0528465,628b806c463b948bc644b84f,629af6e7c430cf36bc415878,,,,,,,,,,,,,,,,,,,,,,,,,,,,,,,,,,,,,,,,,,,,,,,,,,,,,,,,,,,,,,,,,,,,,,,,,,,,,,,,,,,,,,,,,,,,,,,,,,,,,,,
,,"[""period""]",0,[1.0922000000476828],15,0,15,0,1,5fd5038ab78cf82f89c86bdc,20,Mężczyzna,2022-06-04_08h09.34.438,task,2021.1.4,Win32,60.0528465,628b806c463b948bc644b84f,629af6e7c430cf36bc415878,,,,,,,,,,,,,,,,,,,,,,,,,,,,,,,,,,,,,,,,,,,,,,,,,,,,,,,,,,,,,,,,,,,,,,,,,,,,,,,,,,,,,,,,,,,,,,,,,,,,,,,
,,"[""comma""]",0,[1.2527000000476676],16,0,16,0,1,5fd5038ab78cf82f89c86bdc,20,Mężczyzna,2022-06-04_08h09.34.438,task,2021.1.4,Win32,60.0528465,628b806c463b948bc644b84f,629af6e7c430cf36bc415878,,,,,,,,,,,,,,,,,,,,,,,,,,,,,,,,,,,,,,,,,,,,,,,,,,,,,,,,,,,,,,,,,,,,,,,,,,,,,,,,,,,,,,,,,,,,,,,,,,,,,,,
,,"[""comma""]",0,[0.9840000000000089],17,0,17,0,1,5fd5038ab78cf82f89c86bdc,20,Mężczyzna,2022-06-04_08h09.34.438,task,2021.1.4,Win32,60.0528465,628b806c463b948bc644b84f,629af6e7c430cf36bc415878,,,,,,,,,,,,,,,,,,,,,,,,,,,,,,,,,,,,,,,,,,,,,,,,,,,,,,,,,,,,,,,,,,,,,,,,,,,,,,,,,,,,,,,,,,,,,,,,,,,,,,,
,,"[""period""]",0,[1.0516999998092729],18,0,18,0,1,5fd5038ab78cf82f89c86bdc,20,Mężczyzna,2022-06-04_08h09.34.438,task,2021.1.4,Win32,60.0528465,628b806c463b948bc644b84f,629af6e7c430cf36bc415878,,,,,,,,,,,,,,,,,,,,,,,,,,,,,,,,,,,,,,,,,,,,,,,,,,,,,,,,,,,,,,,,,,,,,,,,,,,,,,,,,,,,,,,,,,,,,,,,,,,,,,,
,,"[""period""]",0,[0.9440000000000168],19,0,19,0,1,5fd5038ab78cf82f89c86bdc,20,Mężczyzna,2022-06-04_08h09.34.438,task,2021.1.4,Win32,60.0528465,628b806c463b948bc644b84f,629af6e7c430cf36bc415878,,,,,,,,,,,,,,,,,,,,,,,,,,,,,,,,,,,,,,,,,,,,,,,,,,,,,,,,,,,,,,,,,,,,,,,,,,,,,,,,,,,,,,,,,,,,,,,,,,,,,,,
,,"[""comma""]",0,[0.9840999999046289],20,0,20,0,1,5fd5038ab78cf82f89c86bdc,20,Mężczyzna,2022-06-04_08h09.34.438,task,2021.1.4,Win32,60.0528465,628b806c463b948bc644b84f,629af6e7c430cf36bc415878,,,,,,,,,,,,,,,,,,,,,,,,,,,,,,,,,,,,,,,,,,,,,,,,,,,,,,,,,,,,,,,,,,,,,,,,,,,,,,,,,,,,,,,,,,,,,,,,,,,,,,,
,,"[""comma""]",0,[1.3010999999046362],21,0,21,0,1,5fd5038ab78cf82f89c86bdc,20,Mężczyzna,2022-06-04_08h09.34.438,task,2021.1.4,Win32,60.0528465,628b806c463b948bc644b84f,629af6e7c430cf36bc415878,,,,,,,,,,,,,,,,,,,,,,,,,,,,,,,,,,,,,,,,,,,,,,,,,,,,,,,,,,,,,,,,,,,,,,,,,,,,,,,,,,,,,,,,,,,,,,,,,,,,,,,
,,"[""period""]",0,[1.084100000143053],22,0,22,0,1,5fd5038ab78cf82f89c86bdc,20,Mężczyzna,2022-06-04_08h09.34.438,task,2021.1.4,Win32,60.0528465,628b806c463b948bc644b84f,629af6e7c430cf36bc415878,,,,,,,,,,,,,,,,,,,,,,,,,,,,,,,,,,,,,,,,,,,,,,,,,,,,,,,,,,,,,,,,,,,,,,,,,,,,,,,,,,,,,,,,,,,,,,,,,,,,,,,
,,"[""comma""]",0,[1.0913999998569466],23,0,23,0,1,5fd5038ab78cf82f89c86bdc,20,Mężczyzna,2022-06-04_08h09.34.438,task,2021.1.4,Win32,60.0528465,628b806c463b948bc644b84f,629af6e7c430cf36bc415878,,,,,,,,,,,,,,,,,,,,,,,,,,,,,,,,,,,,,,,,,,,,,,,,,,,,,,,,,,,,,,,,,,,,,,,,,,,,,,,,,,,,,,,,,,,,,,,,,,,,,,,
,,"[""period""]",0,[1.0177000000476824],24,0,24,0,1,5fd5038ab78cf82f89c86bdc,20,Mężczyzna,2022-06-04_08h09.34.438,task,2021.1.4,Win32,60.0528465,628b806c463b948bc644b84f,629af6e7c430cf36bc415878,,,,,,,,,,,,,,,,,,,,,,,,,,,,,,,,,,,,,,,,,,,,,,,,,,,,,,,,,,,,,,,,,,,,,,,,,,,,,,,,,,,,,,,,,,,,,,,,,,,,,,,
,,"[""period""]",0,[1.1007999999523008],25,0,25,0,1,5fd5038ab78cf82f89c86bdc,20,Mężczyzna,2022-06-04_08h09.34.438,task,2021.1.4,Win32,60.0528465,628b806c463b948bc644b84f,629af6e7c430cf36bc415878,,,,,,,,,,,,,,,,,,,,,,,,,,,,,,,,,,,,,,,,,,,,,,,,,,,,,,,,,,,,,,,,,,,,,,,,,,,,,,,,,,,,,,,,,,,,,,,,,,,,,,,
,,"[""period""]",0,[1.1108000001907214],26,0,26,0,1,5fd5038ab78cf82f89c86bdc,20,Mężczyzna,2022-06-04_08h09.34.438,task,2021.1.4,Win32,60.0528465,628b806c463b948bc644b84f,629af6e7c430cf36bc415878,,,,,,,,,,,,,,,,,,,,,,,,,,,,,,,,,,,,,,,,,,,,,,,,,,,,,,,,,,,,,,,,,,,,,,,,,,,,,,,,,,,,,,,,,,,,,,,,,,,,,,,
,,"[""comma""]",0,[1.0670000000000073],27,0,27,0,1,5fd5038ab78cf82f89c86bdc,20,Mężczyzna,2022-06-04_08h09.34.438,task,2021.1.4,Win32,60.0528465,628b806c463b948bc644b84f,629af6e7c430cf36bc415878,,,,,,,,,,,,,,,,,,,,,,,,,,,,,,,,,,,,,,,,,,,,,,,,,,,,,,,,,,,,,,,,,,,,,,,,,,,,,,,,,,,,,,,,,,,,,,,,,,,,,,,
,,"[""comma""]",0,[0.9586999998092836],28,0,28,0,1,5fd5038ab78cf82f89c86bdc,20,Mężczyzna,2022-06-04_08h09.34.438,task,2021.1.4,Win32,60.0528465,628b806c463b948bc644b84f,629af6e7c430cf36bc415878,,,,,,,,,,,,,,,,,,,,,,,,,,,,,,,,,,,,,,,,,,,,,,,,,,,,,,,,,,,,,,,,,,,,,,,,,,,,,,,,,,,,,,,,,,,,,,,,,,,,,,,
,,"[""comma""]",0,[0.8429000000953693],29,0,29,0,1,5fd5038ab78cf82f89c86bdc,20,Mężczyzna,2022-06-04_08h09.34.438,task,2021.1.4,Win32,60.0528465,628b806c463b948bc644b84f,629af6e7c430cf36bc415878,,,,,,,,,,,,,,,,,,,,,,,,,,,,,,,,,,,,,,,,,,,,,,,,,,,,,,,,,,,,,,,,,,,,,,,,,,,,,,,,,,,,,,,,,,,,,,,,,,,,,,,
,,"[""period""]",0,[0.7950000000000159],30,0,30,0,1,5fd5038ab78cf82f89c86bdc,20,Mężczyzna,2022-06-04_08h09.34.438,task,2021.1.4,Win32,60.0528465,628b806c463b948bc644b84f,629af6e7c430cf36bc415878,,,,,,,,,,,,,,,,,,,,,,,,,,,,,,,,,,,,,,,,,,,,,,,,,,,,,,,,,,,,,,,,,,,,,,,,,,,,,,,,,,,,,,,,,,,,,,,,,,,,,,,
,,"[""comma""]",0,[1.0504999999999995],31,0,31,0,1,5fd5038ab78cf82f89c86bdc,20,Mężczyzna,2022-06-04_08h09.34.438,task,2021.1.4,Win32,60.0528465,628b806c463b948bc644b84f,629af6e7c430cf36bc415878,,,,,,,,,,,,,,,,,,,,,,,,,,,,,,,,,,,,,,,,,,,,,,,,,,,,,,,,,,,,,,,,,,,,,,,,,,,,,,,,,,,,,,,,,,,,,,,,,,,,,,,
,,"[""period""]",0,[1.0065999999046369],32,0,32,0,1,5fd5038ab78cf82f89c86bdc,20,Mężczyzna,2022-06-04_08h09.34.438,task,2021.1.4,Win32,60.0528465,628b806c463b948bc644b84f,629af6e7c430cf36bc415878,,,,,,,,,,,,,,,,,,,,,,,,,,,,,,,,,,,,,,,,,,,,,,,,,,,,,,,,,,,,,,,,,,,,,,,,,,,,,,,,,,,,,,,,,,,,,,,,,,,,,,,
,,"[""comma""]",0,[0.8509999999999991],33,0,33,0,1,5fd5038ab78cf82f89c86bdc,20,Mężczyzna,2022-06-04_08h09.34.438,task,2021.1.4,Win32,60.0528465,628b806c463b948bc644b84f,629af6e7c430cf36bc415878,,,,,,,,,,,,,,,,,,,,,,,,,,,,,,,,,,,,,,,,,,,,,,,,,,,,,,,,,,,,,,,,,,,,,,,,,,,,,,,,,,,,,,,,,,,,,,,,,,,,,,,
,,"[""period""]",0,[0.8382000000476637],34,0,34,0,1,5fd5038ab78cf82f89c86bdc,20,Mężczyzna,2022-06-04_08h09.34.438,task,2021.1.4,Win32,60.0528465,628b806c463b948bc644b84f,629af6e7c430cf36bc415878,,,,,,,,,,,,,,,,,,,,,,,,,,,,,,,,,,,,,,,,,,,,,,,,,,,,,,,,,,,,,,,,,,,,,,,,,,,,,,,,,,,,,,,,,,,,,,,,,,,,,,,
,,"[""comma""]",0,[0.7666999998092479],35,0,35,0,1,5fd5038ab78cf82f89c86bdc,20,Mężczyzna,2022-06-04_08h09.34.438,task,2021.1.4,Win32,60.0528465,628b806c463b948bc644b84f,629af6e7c430cf36bc415878,,,,,,,,,,,,,,,,,,,,,,,,,,,,,,,,,,,,,,,,,,,,,,,,,,,,,,,,,,,,,,,,,,,,,,,,,,,,,,,,,,,,,,,,,,,,,,,,,,,,,,,
,,"[""comma""]",0,[1.100599999904631],36,0,36,0,1,5fd5038ab78cf82f89c86bdc,20,Mężczyzna,2022-06-04_08h09.34.438,task,2021.1.4,Win32,60.0528465,628b806c463b948bc644b84f,629af6e7c430cf36bc415878,,,,,,,,,,,,,,,,,,,,,,,,,,,,,,,,,,,,,,,,,,,,,,,,,,,,,,,,,,,,,,,,,,,,,,,,,,,,,,,,,,,,,,,,,,,,,,,,,,,,,,,
,,"[""period""]",0,[1.0540999999046505],37,0,37,0,1,5fd5038ab78cf82f89c86bdc,20,Mężczyzna,2022-06-04_08h09.34.438,task,2021.1.4,Win32,60.0528465,628b806c463b948bc644b84f,629af6e7c430cf36bc415878,,,,,,,,,,,,,,,,,,,,,,,,,,,,,,,,,,,,,,,,,,,,,,,,,,,,,,,,,,,,,,,,,,,,,,,,,,,,,,,,,,,,,,,,,,,,,,,,,,,,,,,
,,"[""period""]",0,[0.9504000000953567],38,0,38,0,1,5fd5038ab78cf82f89c86bdc,20,Mężczyzna,2022-06-04_08h09.34.438,task,2021.1.4,Win32,60.0528465,628b806c463b948bc644b84f,629af6e7c430cf36bc415878,,,,,,,,,,,,,,,,,,,,,,,,,,,,,,,,,,,,,,,,,,,,,,,,,,,,,,,,,,,,,,,,,,,,,,,,,,,,,,,,,,,,,,,,,,,,,,,,,,,,,,,
,,"[""comma""]",0,[0.5096999998092713],39,0,39,0,1,5fd5038ab78cf82f89c86bdc,20,Mężczyzna,2022-06-04_08h09.34.438,task,2021.1.4,Win32,60.0528465,628b806c463b948bc644b84f,629af6e7c430cf36bc415878,,,,,,,,,,,,,,,,,,,,,,,,,,,,,,,,,,,,,,,,,,,,,,,,,,,,,,,,,,,,,,,,,,,,,,,,,,,,,,,,,,,,,,,,,,,,,,,,,,,,,,,
,,"[""period""]",0,[0.43420000004769577],40,0,40,0,1,5fd5038ab78cf82f89c86bdc,20,Mężczyzna,2022-06-04_08h09.34.438,task,2021.1.4,Win32,60.0528465,628b806c463b948bc644b84f,629af6e7c430cf36bc415878,,,,,,,,,,,,,,,,,,,,,,,,,,,,,,,,,,,,,,,,,,,,,,,,,,,,,,,,,,,,,,,,,,,,,,,,,,,,,,,,,,,,,,,,,,,,,,,,,,,,,,,
,,"[""comma""]",0,[0.32579999995232356],41,0,41,0,1,5fd5038ab78cf82f89c86bdc,20,Mężczyzna,2022-06-04_08h09.34.438,task,2021.1.4,Win32,60.0528465,628b806c463b948bc644b84f,629af6e7c430cf36bc415878,,,,,,,,,,,,,,,,,,,,,,,,,,,,,,,,,,,,,,,,,,,,,,,,,,,,,,,,,,,,,,,,,,,,,,,,,,,,,,,,,,,,,,,,,,,,,,,,,,,,,,,
,,"[""comma""]",0,[0.3669999999999902],42,0,42,0,1,5fd5038ab78cf82f89c86bdc,20,Mężczyzna,2022-06-04_08h09.34.438,task,2021.1.4,Win32,60.0528465,628b806c463b948bc644b84f,629af6e7c430cf36bc415878,,,,,,,,,,,,,,,,,,,,,,,,,,,,,,,,,,,,,,,,,,,,,,,,,,,,,,,,,,,,,,,,,,,,,,,,,,,,,,,,,,,,,,,,,,,,,,,,,,,,,,,
,,"[""period""]",0,[0.8373999998569559],43,0,43,0,1,5fd5038ab78cf82f89c86bdc,20,Mężczyzna,2022-06-04_08h09.34.438,task,2021.1.4,Win32,60.0528465,628b806c463b948bc644b84f,629af6e7c430cf36bc415878,,,,,,,,,,,,,,,,,,,,,,,,,,,,,,,,,,,,,,,,,,,,,,,,,,,,,,,,,,,,,,,,,,,,,,,,,,,,,,,,,,,,,,,,,,,,,,,,,,,,,,,
,,"[""comma""]",0,[0.9208999998569425],44,0,44,0,1,5fd5038ab78cf82f89c86bdc,20,Mężczyzna,2022-06-04_08h09.34.438,task,2021.1.4,Win32,60.0528465,628b806c463b948bc644b84f,629af6e7c430cf36bc415878,,,,,,,,,,,,,,,,,,,,,,,,,,,,,,,,,,,,,,,,,,,,,,,,,,,,,,,,,,,,,,,,,,,,,,,,,,,,,,,,,,,,,,,,,,,,,,,,,,,,,,,
,,"[""period""]",0,[0.5016999998092615],45,0,45,0,1,5fd5038ab78cf82f89c86bdc,20,Mężczyzna,2022-06-04_08h09.34.438,task,2021.1.4,Win32,60.0528465,628b806c463b948bc644b84f,629af6e7c430cf36bc415878,,,,,,,,,,,,,,,,,,,,,,,,,,,,,,,,,,,,,,,,,,,,,,,,,,,,,,,,,,,,,,,,,,,,,,,,,,,,,,,,,,,,,,,,,,,,,,,,,,,,,,,
,,"[""comma""]",0,[0.28509999990461665],46,0,46,0,1,5fd5038ab78cf82f89c86bdc,20,Mężczyzna,2022-06-04_08h09.34.438,task,2021.1.4,Win32,60.0528465,628b806c463b948bc644b84f,629af6e7c430cf36bc415878,,,,,,,,,,,,,,,,,,,,,,,,,,,,,,,,,,,,,,,,,,,,,,,,,,,,,,,,,,,,,,,,,,,,,,,,,,,,,,,,,,,,,,,,,,,,,,,,,,,,,,,
,,"[""period""]",0,[0.29989999985693316],47,0,47,0,1,5fd5038ab78cf82f89c86bdc,20,Mężczyzna,2022-06-04_08h09.34.438,task,2021.1.4,Win32,60.0528465,628b806c463b948bc644b84f,629af6e7c430cf36bc415878,,,,,,,,,,,,,,,,,,,,,,,,,,,,,,,,,,,,,,,,,,,,,,,,,,,,,,,,,,,,,,,,,,,,,,,,,,,,,,,,,,,,,,,,,,,,,,,,,,,,,,,
,,"[""comma""]",0,[0.2762000000476803],48,0,48,0,1,5fd5038ab78cf82f89c86bdc,20,Mężczyzna,2022-06-04_08h09.34.438,task,2021.1.4,Win32,60.0528465,628b806c463b948bc644b84f,629af6e7c430cf36bc415878,,,,,,,,,,,,,,,,,,,,,,,,,,,,,,,,,,,,,,,,,,,,,,,,,,,,,,,,,,,,,,,,,,,,,,,,,,,,,,,,,,,,,,,,,,,,,,,,,,,,,,,
,,"[""period""]",0,[0.4562999999523072],49,0,49,0,1,5fd5038ab78cf82f89c86bdc,20,Mężczyzna,2022-06-04_08h09.34.438,task,2021.1.4,Win32,60.0528465,628b806c463b948bc644b84f,629af6e7c430cf36bc415878,,,,,,,,,,,,,,,,,,,,,,,,,,,,,,,,,,,,,,,,,,,,,,,,,,,,,,,,,,,,,,,,,,,,,,,,,,,,,,,,,,,,,,,,,,,,,,,,,,,,,,,
,,"[""period""]",0,[0.32489999985693885],50,0,50,0,1,5fd5038ab78cf82f89c86bdc,20,Mężczyzna,2022-06-04_08h09.34.438,task,2021.1.4,Win32,60.0528465,628b806c463b948bc644b84f,629af6e7c430cf36bc415878,,,,,,,,,,,,,,,,,,,,,,,,,,,,,,,,,,,,,,,,,,,,,,,,,,,,,,,,,,,,,,,,,,,,,,,,,,,,,,,,,,,,,,,,,,,,,,,,,,,,,,,
,,"[""comma""]",0,[0.0005999999046366611],51,0,51,0,1,5fd5038ab78cf82f89c86bdc,20,Mężczyzna,2022-06-04_08h09.34.438,task,2021.1.4,Win32,60.0528465,628b806c463b948bc644b84f,629af6e7c430cf36bc415878,,,,,,,,,,,,,,,,,,,,,,,,,,,,,,,,,,,,,,,,,,,,,,,,,,,,,,,,,,,,,,,,,,,,,,,,,,,,,,,,,,,,,,,,,,,,,,,,,,,,,,,
,,"[""comma""]",0,[0.3082999999523395],52,0,52,0,1,5fd5038ab78cf82f89c86bdc,20,Mężczyzna,2022-06-04_08h09.34.438,task,2021.1.4,Win32,60.0528465,628b806c463b948bc644b84f,629af6e7c430cf36bc415878,,,,,,,,,,,,,,,,,,,,,,,,,,,,,,,,,,,,,,,,,,,,,,,,,,,,,,,,,,,,,,,,,,,,,,,,,,,,,,,,,,,,,,,,,,,,,,,,,,,,,,,
,,"[""comma""]",0,[0.6330999999046298],53,0,53,0,1,5fd5038ab78cf82f89c86bdc,20,Mężczyzna,2022-06-04_08h09.34.438,task,2021.1.4,Win32,60.0528465,628b806c463b948bc644b84f,629af6e7c430cf36bc415878,,,,,,,,,,,,,,,,,,,,,,,,,,,,,,,,,,,,,,,,,,,,,,,,,,,,,,,,,,,,,,,,,,,,,,,,,,,,,,,,,,,,,,,,,,,,,,,,,,,,,,,
,,"[""period""]",0,[0.4562999999523072],54,0,54,0,1,5fd5038ab78cf82f89c86bdc,20,Mężczyzna,2022-06-04_08h09.34.438,task,2021.1.4,Win32,60.0528465,628b806c463b948bc644b84f,629af6e7c430cf36bc415878,,,,,,,,,,,,,,,,,,,,,,,,,,,,,,,,,,,,,,,,,,,,,,,,,,,,,,,,,,,,,,,,,,,,,,,,,,,,,,,,,,,,,,,,,,,,,,,,,,,,,,,
,,"[""comma""]",0,[0.33370000004768485],55,0,55,0,1,5fd5038ab78cf82f89c86bdc,20,Mężczyzna,2022-06-04_08h09.34.438,task,2021.1.4,Win32,60.0528465,628b806c463b948bc644b84f,629af6e7c430cf36bc415878,,,,,,,,,,,,,,,,,,,,,,,,,,,,,,,,,,,,,,,,,,,,,,,,,,,,,,,,,,,,,,,,,,,,,,,,,,,,,,,,,,,,,,,,,,,,,,,,,,,,,,,
,,"[""comma""]",0,[0.5005000000000166],56,0,56,0,1,5fd5038ab78cf82f89c86bdc,20,Mężczyzna,2022-06-04_08h09.34.438,task,2021.1.4,Win32,60.0528465,628b806c463b948bc644b84f,629af6e7c430cf36bc415878,,,,,,,,,,,,,,,,,,,,,,,,,,,,,,,,,,,,,,,,,,,,,,,,,,,,,,,,,,,,,,,,,,,,,,,,,,,,,,,,,,,,,,,,,,,,,,,,,,,,,,,
,,"[""period""]",0,[0.32879999995230946],57,0,57,0,1,5fd5038ab78cf82f89c86bdc,20,Mężczyzna,2022-06-04_08h09.34.438,task,2021.1.4,Win32,60.0528465,628b806c463b948bc644b84f,629af6e7c430cf36bc415878,,,,,,,,,,,,,,,,,,,,,,,,,,,,,,,,,,,,,,,,,,,,,,,,,,,,,,,,,,,,,,,,,,,,,,,,,,,,,,,,,,,,,,,,,,,,,,,,,,,,,,,
,,"[""comma""]",0,[0.31979999995232333],58,0,58,0,1,5fd5038ab78cf82f89c86bdc,20,Mężczyzna,2022-06-04_08h09.34.438,task,2021.1.4,Win32,60.0528465,628b806c463b948bc644b84f,629af6e7c430cf36bc415878,,,,,,,,,,,,,,,,,,,,,,,,,,,,,,,,,,,,,,,,,,,,,,,,,,,,,,,,,,,,,,,,,,,,,,,,,,,,,,,,,,,,,,,,,,,,,,,,,,,,,,,
,,"[""period""]",0,[0.3340000000000032],59,0,59,0,1,5fd5038ab78cf82f89c86bdc,20,Mężczyzna,2022-06-04_08h09.34.438,task,2021.1.4,Win32,60.0528465,628b806c463b948bc644b84f,629af6e7c430cf36bc415878,,,,,,,,,,,,,,,,,,,,,,,,,,,,,,,,,,,,,,,,,,,,,,,,,,,,,,,,,,,,,,,,,,,,,,,,,,,,,,,,,,,,,,,,,,,,,,,,,,,,,,,
,,"[""comma""]",0,[0.4366999998092638],60,0,60,0,1,5fd5038ab78cf82f89c86bdc,20,Mężczyzna,2022-06-04_08h09.34.438,task,2021.1.4,Win32,60.0528465,628b806c463b948bc644b84f,629af6e7c430cf36bc415878,,,,,,,,,,,,,,,,,,,,,,,,,,,,,,,,,,,,,,,,,,,,,,,,,,,,,,,,,,,,,,,,,,,,,,,,,,,,,,,,,,,,,,,,,,,,,,,,,,,,,,,
,,"[""comma""]",0,[0.31709999990465576],61,0,61,0,1,5fd5038ab78cf82f89c86bdc,20,Mężczyzna,2022-06-04_08h09.34.438,task,2021.1.4,Win32,60.0528465,628b806c463b948bc644b84f,629af6e7c430cf36bc415878,,,,,,,,,,,,,,,,,,,,,,,,,,,,,,,,,,,,,,,,,,,,,,,,,,,,,,,,,,,,,,,,,,,,,,,,,,,,,,,,,,,,,,,,,,,,,,,,,,,,,,,
,,"[""comma""]",0,[0.392400000095364],62,0,62,0,1,5fd5038ab78cf82f89c86bdc,20,Mężczyzna,2022-06-04_08h09.34.438,task,2021.1.4,Win32,60.0528465,628b806c463b948bc644b84f,629af6e7c430cf36bc415878,,,,,,,,,,,,,,,,,,,,,,,,,,,,,,,,,,,,,,,,,,,,,,,,,,,,,,,,,,,,,,,,,,,,,,,,,,,,,,,,,,,,,,,,,,,,,,,,,,,,,,,
,,"[""comma""]",0,[0.7173000001907326],63,0,63,0,1,5fd5038ab78cf82f89c86bdc,20,Mężczyzna,2022-06-04_08h09.34.438,task,2021.1.4,Win32,60.0528465,628b806c463b948bc644b84f,629af6e7c430cf36bc415878,,,,,,,,,,,,,,,,,,,,,,,,,,,,,,,,,,,,,,,,,,,,,,,,,,,,,,,,,,,,,,,,,,,,,,,,,,,,,,,,,,,,,,,,,,,,,,,,,,,,,,,
,,"[""period""]",0,[0.4170000000000016],64,0,64,0,1,5fd5038ab78cf82f89c86bdc,20,Mężczyzna,2022-06-04_08h09.34.438,task,2021.1.4,Win32,60.0528465,628b806c463b948bc644b84f,629af6e7c430cf36bc415878,,,,,,,,,,,,,,,,,,,,,,,,,,,,,,,,,,,,,,,,,,,,,,,,,,,,,,,,,,,,,,,,,,,,,,,,,,,,,,,,,,,,,,,,,,,,,,,,,,,,,,,
,,"[""period""]",0,[0.350599999904631],65,0,65,0,1,5fd5038ab78cf82f89c86bdc,20,Mężczyzna,2022-06-04_08h09.34.438,task,2021.1.4,Win32,60.0528465,628b806c463b948bc644b84f,629af6e7c430cf36bc415878,,,,,,,,,,,,,,,,,,,,,,,,,,,,,,,,,,,,,,,,,,,,,,,,,,,,,,,,,,,,,,,,,,,,,,,,,,,,,,,,,,,,,,,,,,,,,,,,,,,,,,,
,,"[""comma""]",0,[0.7504000000953681],66,0,66,0,1,5fd5038ab78cf82f89c86bdc,20,Mężczyzna,2022-06-04_08h09.34.438,task,2021.1.4,Win32,60.0528465,628b806c463b948bc644b84f,629af6e7c430cf36bc415878,,,,,,,,,,,,,,,,,,,,,,,,,,,,,,,,,,,,,,,,,,,,,,,,,,,,,,,,,,,,,,,,,,,,,,,,,,,,,,,,,,,,,,,,,,,,,,,,,,,,,,,
,,"[""period""]",0,[0.48459999990464553],67,0,67,0,1,5fd5038ab78cf82f89c86bdc,20,Mężczyzna,2022-06-04_08h09.34.438,task,2021.1.4,Win32,60.0528465,628b806c463b948bc644b84f,629af6e7c430cf36bc415878,,,,,,,,,,,,,,,,,,,,,,,,,,,,,,,,,,,,,,,,,,,,,,,,,,,,,,,,,,,,,,,,,,,,,,,,,,,,,,,,,,,,,,,,,,,,,,,,,,,,,,,
,,"[""comma""]",0,[1.0363999998569682],68,0,68,0,1,5fd5038ab78cf82f89c86bdc,20,Mężczyzna,2022-06-04_08h09.34.438,task,2021.1.4,Win32,60.0528465,628b806c463b948bc644b84f,629af6e7c430cf36bc415878,,,,,,,,,,,,,,,,,,,,,,,,,,,,,,,,,,,,,,,,,,,,,,,,,,,,,,,,,,,,,,,,,,,,,,,,,,,,,,,,,,,,,,,,,,,,,,,,,,,,,,,
,,"[""period""]",0,[0.40060000014307207],69,0,69,0,1,5fd5038ab78cf82f89c86bdc,20,Mężczyzna,2022-06-04_08h09.34.438,task,2021.1.4,Win32,60.0528465,628b806c463b948bc644b84f,629af6e7c430cf36bc415878,,,,,,,,,,,,,,,,,,,,,,,,,,,,,,,,,,,,,,,,,,,,,,,,,,,,,,,,,,,,,,,,,,,,,,,,,,,,,,,,,,,,,,,,,,,,,,,,,,,,,,,
,,"[""comma""]",0,[0.30049999999999955],70,0,70,0,1,5fd5038ab78cf82f89c86bdc,20,Mężczyzna,2022-06-04_08h09.34.438,task,2021.1.4,Win32,60.0528465,628b806c463b948bc644b84f,629af6e7c430cf36bc415878,,,,,,,,,,,,,,,,,,,,,,,,,,,,,,,,,,,,,,,,,,,,,,,,,,,,,,,,,,,,,,,,,,,,,,,,,,,,,,,,,,,,,,,,,,,,,,,,,,,,,,,
,,"[""period""]",0,[0.24389999985695],71,0,71,0,1,5fd5038ab78cf82f89c86bdc,20,Mężczyzna,2022-06-04_08h09.34.438,task,2021.1.4,Win32,60.0528465,628b806c463b948bc644b84f,629af6e7c430cf36bc415878,,,,,,,,,,,,,,,,,,,,,,,,,,,,,,,,,,,,,,,,,,,,,,,,,,,,,,,,,,,,,,,,,,,,,,,,,,,,,,,,,,,,,,,,,,,,,,,,,,,,,,,
,,"[""period""]",0,[0.2674999999999841],72,0,72,0,1,5fd5038ab78cf82f89c86bdc,20,Mężczyzna,2022-06-04_08h09.34.438,task,2021.1.4,Win32,60.0528465,628b806c463b948bc644b84f,629af6e7c430cf36bc415878,,,,,,,,,,,,,,,,,,,,,,,,,,,,,,,,,,,,,,,,,,,,,,,,,,,,,,,,,,,,,,,,,,,,,,,,,,,,,,,,,,,,,,,,,,,,,,,,,,,,,,,
,,"[""comma""]",0,[0.15959999990462848],73,0,73,0,1,5fd5038ab78cf82f89c86bdc,20,Mężczyzna,2022-06-04_08h09.34.438,task,2021.1.4,Win32,60.0528465,628b806c463b948bc644b84f,629af6e7c430cf36bc415878,,,,,,,,,,,,,,,,,,,,,,,,,,,,,,,,,,,,,,,,,,,,,,,,,,,,,,,,,,,,,,,,,,,,,,,,,,,,,,,,,,,,,,,,,,,,,,,,,,,,,,,
,,"[""period""]",0,[0.2437999999523015],74,0,74,0,1,5fd5038ab78cf82f89c86bdc,20,Mężczyzna,2022-06-04_08h09.34.438,task,2021.1.4,Win32,60.0528465,628b806c463b948bc644b84f,629af6e7c430cf36bc415878,,,,,,,,,,,,,,,,,,,,,,,,,,,,,,,,,,,,,,,,,,,,,,,,,,,,,,,,,,,,,,,,,,,,,,,,,,,,,,,,,,,,,,,,,,,,,,,,,,,,,,,
,,"[""comma""]",0,[0.35029999995231265],75,0,75,0,1,5fd5038ab78cf82f89c86bdc,20,Mężczyzna,2022-06-04_08h09.34.438,task,2021.1.4,Win32,60.0528465,628b806c463b948bc644b84f,629af6e7c430cf36bc415878,,,,,,,,,,,,,,,,,,,,,,,,,,,,,,,,,,,,,,,,,,,,,,,,,,,,,,,,,,,,,,,,,,,,,,,,,,,,,,,,,,,,,,,,,,,,,,,,,,,,,,,
,,"[""period""]",0,[0.3275000000000432],76,0,76,0,1,5fd5038ab78cf82f89c86bdc,20,Mężczyzna,2022-06-04_08h09.34.438,task,2021.1.4,Win32,60.0528465,628b806c463b948bc644b84f,629af6e7c430cf36bc415878,,,,,,,,,,,,,,,,,,,,,,,,,,,,,,,,,,,,,,,,,,,,,,,,,,,,,,,,,,,,,,,,,,,,,,,,,,,,,,,,,,,,,,,,,,,,,,,,,,,,,,,
,,"[""period""]",0,[0.4035000000000082],77,0,77,0,1,5fd5038ab78cf82f89c86bdc,20,Mężczyzna,2022-06-04_08h09.34.438,task,2021.1.4,Win32,60.0528465,628b806c463b948bc644b84f,629af6e7c430cf36bc415878,,,,,,,,,,,,,,,,,,,,,,,,,,,,,,,,,,,,,,,,,,,,,,,,,,,,,,,,,,,,,,,,,,,,,,,,,,,,,,,,,,,,,,,,,,,,,,,,,,,,,,,
,,"[""comma""]",0,[0.35079999995235767],78,0,78,0,1,5fd5038ab78cf82f89c86bdc,20,Mężczyzna,2022-06-04_08h09.34.438,task,2021.1.4,Win32,60.0528465,628b806c463b948bc644b84f,629af6e7c430cf36bc415878,,,,,,,,,,,,,,,,,,,,,,,,,,,,,,,,,,,,,,,,,,,,,,,,,,,,,,,,,,,,,,,,,,,,,,,,,,,,,,,,,,,,,,,,,,,,,,,,,,,,,,,
,,"[""comma"",""comma""]",0,"[0.25890000009536607,0.3668000001907785]",79,0,79,0,1,5fd5038ab78cf82f89c86bdc,20,Mężczyzna,2022-06-04_08h09.34.438,task,2021.1.4,Win32,60.0528465,628b806c463b948bc644b84f,629af6e7c430cf36bc415878,,,,,,,,,,,,,,,,,,,,,,,,,,,,,,,,,,,,,,,,,,,,,,,,,,,,,,,,,,,,,,,,,,,,,,,,,,,,,,,,,,,,,,,,,,,,,,,,,,,,,,,
,,"[""comma""]",0,[0.30299999999999727],80,0,80,0,1,5fd5038ab78cf82f89c86bdc,20,Mężczyzna,2022-06-04_08h09.34.438,task,2021.1.4,Win32,60.0528465,628b806c463b948bc644b84f,629af6e7c430cf36bc415878,,,,,,,,,,,,,,,,,,,,,,,,,,,,,,,,,,,,,,,,,,,,,,,,,,,,,,,,,,,,,,,,,,,,,,,,,,,,,,,,,,,,,,,,,,,,,,,,,,,,,,,
,,"[""period""]",0,[0.08349999999995816],81,0,81,0,1,5fd5038ab78cf82f89c86bdc,20,Mężczyzna,2022-06-04_08h09.34.438,task,2021.1.4,Win32,60.0528465,628b806c463b948bc644b84f,629af6e7c430cf36bc415878,,,,,,,,,,,,,,,,,,,,,,,,,,,,,,,,,,,,,,,,,,,,,,,,,,,,,,,,,,,,,,,,,,,,,,,,,,,,,,,,,,,,,,,,,,,,,,,,,,,,,,,
,,"[""comma""]",0,[0.27520000004767553],82,0,82,0,1,5fd5038ab78cf82f89c86bdc,20,Mężczyzna,2022-06-04_08h09.34.438,task,2021.1.4,Win32,60.0528465,628b806c463b948bc644b84f,629af6e7c430cf36bc415878,,,,,,,,,,,,,,,,,,,,,,,,,,,,,,,,,,,,,,,,,,,,,,,,,,,,,,,,,,,,,,,,,,,,,,,,,,,,,,,,,,,,,,,,,,,,,,,,,,,,,,,
,,"[""period""]",0,[0.2712000000477133],83,0,83,0,1,5fd5038ab78cf82f89c86bdc,20,Mężczyzna,2022-06-04_08h09.34.438,task,2021.1.4,Win32,60.0528465,628b806c463b948bc644b84f,629af6e7c430cf36bc415878,,,,,,,,,,,,,,,,,,,,,,,,,,,,,,,,,,,,,,,,,,,,,,,,,,,,,,,,,,,,,,,,,,,,,,,,,,,,,,,,,,,,,,,,,,,,,,,,,,,,,,,
,,"[""period""]",0,[0.2837000000477019],84,0,84,0,1,5fd5038ab78cf82f89c86bdc,20,Mężczyzna,2022-06-04_08h09.34.438,task,2021.1.4,Win32,60.0528465,628b806c463b948bc644b84f,629af6e7c430cf36bc415878,,,,,,,,,,,,,,,,,,,,,,,,,,,,,,,,,,,,,,,,,,,,,,,,,,,,,,,,,,,,,,,,,,,,,,,,,,,,,,,,,,,,,,,,,,,,,,,,,,,,,,,
,,"[""comma"",""comma""]",0,"[0.31720000004770554,0.4218999998569757]",85,0,85,0,1,5fd5038ab78cf82f89c86bdc,20,Mężczyzna,2022-06-04_08h09.34.438,task,2021.1.4,Win32,60.0528465,628b806c463b948bc644b84f,629af6e7c430cf36bc415878,,,,,,,,,,,,,,,,,,,,,,,,,,,,,,,,,,,,,,,,,,,,,,,,,,,,,,,,,,,,,,,,,,,,,,,,,,,,,,,,,,,,,,,,,,,,,,,,,,,,,,,
,,"[""period""]",0,[0.48629999995233675],86,0,86,0,1,5fd5038ab78cf82f89c86bdc,20,Mężczyzna,2022-06-04_08h09.34.438,task,2021.1.4,Win32,60.0528465,628b806c463b948bc644b84f,629af6e7c430cf36bc415878,,,,,,,,,,,,,,,,,,,,,,,,,,,,,,,,,,,,,,,,,,,,,,,,,,,,,,,,,,,,,,,,,,,,,,,,,,,,,,,,,,,,,,,,,,,,,,,,,,,,,,,
,,"[""comma""]",0,[0.29040000009536016],87,0,87,0,1,5fd5038ab78cf82f89c86bdc,20,Mężczyzna,2022-06-04_08h09.34.438,task,2021.1.4,Win32,60.0528465,628b806c463b948bc644b84f,629af6e7c430cf36bc415878,,,,,,,,,,,,,,,,,,,,,,,,,,,,,,,,,,,,,,,,,,,,,,,,,,,,,,,,,,,,,,,,,,,,,,,,,,,,,,,,,,,,,,,,,,,,,,,,,,,,,,,
,,"[""period""]",0,[0.27430000019074896],88,0,88,0,1,5fd5038ab78cf82f89c86bdc,20,Mężczyzna,2022-06-04_08h09.34.438,task,2021.1.4,Win32,60.0528465,628b806c463b948bc644b84f,629af6e7c430cf36bc415878,,,,,,,,,,,,,,,,,,,,,,,,,,,,,,,,,,,,,,,,,,,,,,,,,,,,,,,,,,,,,,,,,,,,,,,,,,,,,,,,,,,,,,,,,,,,,,,,,,,,,,,
,,"[""comma""]",0,[0.2668999998569461],89,0,89,0,1,5fd5038ab78cf82f89c86bdc,20,Mężczyzna,2022-06-04_08h09.34.438,task,2021.1.4,Win32,60.0528465,628b806c463b948bc644b84f,629af6e7c430cf36bc415878,,,,,,,,,,,,,,,,,,,,,,,,,,,,,,,,,,,,,,,,,,,,,,,,,,,,,,,,,,,,,,,,,,,,,,,,,,,,,,,,,,,,,,,,,,,,,,,,,,,,,,,
,,"[""period""]",0,[0.2676000001430907],90,0,90,0,1,5fd5038ab78cf82f89c86bdc,20,Mężczyzna,2022-06-04_08h09.34.438,task,2021.1.4,Win32,60.0528465,628b806c463b948bc644b84f,629af6e7c430cf36bc415878,,,,,,,,,,,,,,,,,,,,,,,,,,,,,,,,,,,,,,,,,,,,,,,,,,,,,,,,,,,,,,,,,,,,,,,,,,,,,,,,,,,,,,,,,,,,,,,,,,,,,,,
,,"[""period""]",0,[0.16990000009536743],91,0,91,0,1,5fd5038ab78cf82f89c86bdc,20,Mężczyzna,2022-06-04_08h09.34.438,task,2021.1.4,Win32,60.0528465,628b806c463b948bc644b84f,629af6e7c430cf36bc415878,,,,,,,,,,,,,,,,,,,,,,,,,,,,,,,,,,,,,,,,,,,,,,,,,,,,,,,,,,,,,,,,,,,,,,,,,,,,,,,,,,,,,,,,,,,,,,,,,,,,,,,
,,"[""comma""]",0,[0.2681000001430789],92,0,92,0,1,5fd5038ab78cf82f89c86bdc,20,Mężczyzna,2022-06-04_08h09.34.438,task,2021.1.4,Win32,60.0528465,628b806c463b948bc644b84f,629af6e7c430cf36bc415878,,,,,,,,,,,,,,,,,,,,,,,,,,,,,,,,,,,,,,,,,,,,,,,,,,,,,,,,,,,,,,,,,,,,,,,,,,,,,,,,,,,,,,,,,,,,,,,,,,,,,,,
,,"[""period""]",0,[0.27059999990461847],93,0,93,0,1,5fd5038ab78cf82f89c86bdc,20,Mężczyzna,2022-06-04_08h09.34.438,task,2021.1.4,Win32,60.0528465,628b806c463b948bc644b84f,629af6e7c430cf36bc415878,,,,,,,,,,,,,,,,,,,,,,,,,,,,,,,,,,,,,,,,,,,,,,,,,,,,,,,,,,,,,,,,,,,,,,,,,,,,,,,,,,,,,,,,,,,,,,,,,,,,,,,
,,"[""comma""]",0,[0.2839999999999918],94,0,94,0,1,5fd5038ab78cf82f89c86bdc,20,Mężczyzna,2022-06-04_08h09.34.438,task,2021.1.4,Win32,60.0528465,628b806c463b948bc644b84f,629af6e7c430cf36bc415878,,,,,,,,,,,,,,,,,,,,,,,,,,,,,,,,,,,,,,,,,,,,,,,,,,,,,,,,,,,,,,,,,,,,,,,,,,,,,,,,,,,,,,,,,,,,,,,,,,,,,,,
,,"[""comma""]",0,[0.26740000009539244],95,0,95,0,1,5fd5038ab78cf82f89c86bdc,20,Mężczyzna,2022-06-04_08h09.34.438,task,2021.1.4,Win32,60.0528465,628b806c463b948bc644b84f,629af6e7c430cf36bc415878,,,,,,,,,,,,,,,,,,,,,,,,,,,,,,,,,,,,,,,,,,,,,,,,,,,,,,,,,,,,,,,,,,,,,,,,,,,,,,,,,,,,,,,,,,,,,,,,,,,,,,,
,,"[""period""]",0,[0.13440000009535424],96,0,96,0,1,5fd5038ab78cf82f89c86bdc,20,Mężczyzna,2022-06-04_08h09.34.438,task,2021.1.4,Win32,60.0528465,628b806c463b948bc644b84f,629af6e7c430cf36bc415878,,,,,,,,,,,,,,,,,,,,,,,,,,,,,,,,,,,,,,,,,,,,,,,,,,,,,,,,,,,,,,,,,,,,,,,,,,,,,,,,,,,,,,,,,,,,,,,,,,,,,,,
,,"[""comma""]",0,[0.26249999999998863],97,0,97,0,1,5fd5038ab78cf82f89c86bdc,20,Mężczyzna,2022-06-04_08h09.34.438,task,2021.1.4,Win32,60.0528465,628b806c463b948bc644b84f,629af6e7c430cf36bc415878,,,,,,,,,,,,,,,,,,,,,,,,,,,,,,,,,,,,,,,,,,,,,,,,,,,,,,,,,,,,,,,,,,,,,,,,,,,,,,,,,,,,,,,,,,,,,,,,,,,,,,,
,,"[""comma""]",0,[0.26670000004764916],98,0,98,0,1,5fd5038ab78cf82f89c86bdc,20,Mężczyzna,2022-06-04_08h09.34.438,task,2021.1.4,Win32,60.0528465,628b806c463b948bc644b84f,629af6e7c430cf36bc415878,,,,,,,,,,,,,,,,,,,,,,,,,,,,,,,,,,,,,,,,,,,,,,,,,,,,,,,,,,,,,,,,,,,,,,,,,,,,,,,,,,,,,,,,,,,,,,,,,,,,,,,
,,"[""period""]",0,[0.12190000009536561],99,0,99,0,1,5fd5038ab78cf82f89c86bdc,20,Mężczyzna,2022-06-04_08h09.34.438,task,2021.1.4,Win32,60.0528465,628b806c463b948bc644b84f,629af6e7c430cf36bc415878,,,,,,,,,,,,,,,,,,,,,,,,,,,,,,,,,,,,,,,,,,,,,,,,,,,,,,,,,,,,,,,,,,,,,,,,,,,,,,,,,,,,,,,,,,,,,,,,,,,,,,,
,,"[""period""]",0,[0.2836999998093006],100,0,100,0,1,5fd5038ab78cf82f89c86bdc,20,Mężczyzna,2022-06-04_08h09.34.438,task,2021.1.4,Win32,60.0528465,628b806c463b948bc644b84f,629af6e7c430cf36bc415878,,,,,,,,,,,,,,,,,,,,,,,,,,,,,,,,,,,,,,,,,,,,,,,,,,,,,,,,,,,,,,,,,,,,,,,,,,,,,,,,,,,,,,,,,,,,,,,,,,,,,,,
,,"[""period""]",0,[0.2938000001907426],101,0,101,0,1,5fd5038ab78cf82f89c86bdc,20,Mężczyzna,2022-06-04_08h09.34.438,task,2021.1.4,Win32,60.0528465,628b806c463b948bc644b84f,629af6e7c430cf36bc415878,,,,,,,,,,,,,,,,,,,,,,,,,,,,,,,,,,,,,,,,,,,,,,,,,,,,,,,,,,,,,,,,,,,,,,,,,,,,,,,,,,,,,,,,,,,,,,,,,,,,,,,
,,"[""comma""]",0,[0.2741000001430507],102,0,102,0,1,5fd5038ab78cf82f89c86bdc,20,Mężczyzna,2022-06-04_08h09.34.438,task,2021.1.4,Win32,60.0528465,628b806c463b948bc644b84f,629af6e7c430cf36bc415878,,,,,,,,,,,,,,,,,,,,,,,,,,,,,,,,,,,,,,,,,,,,,,,,,,,,,,,,,,,,,,,,,,,,,,,,,,,,,,,,,,,,,,,,,,,,,,,,,,,,,,,
,,"[""comma""]",0,[0.3007000000476978],103,0,103,0,1,5fd5038ab78cf82f89c86bdc,20,Mężczyzna,2022-06-04_08h09.34.438,task,2021.1.4,Win32,60.0528465,628b806c463b948bc644b84f,629af6e7c430cf36bc415878,,,,,,,,,,,,,,,,,,,,,,,,,,,,,,,,,,,,,,,,,,,,,,,,,,,,,,,,,,,,,,,,,,,,,,,,,,,,,,,,,,,,,,,,,,,,,,,,,,,,,,,
,,"[""period""]",0,[0.28549999999995634],104,0,104,0,1,5fd5038ab78cf82f89c86bdc,20,Mężczyzna,2022-06-04_08h09.34.438,task,2021.1.4,Win32,60.0528465,628b806c463b948bc644b84f,629af6e7c430cf36bc415878,,,,,,,,,,,,,,,,,,,,,,,,,,,,,,,,,,,,,,,,,,,,,,,,,,,,,,,,,,,,,,,,,,,,,,,,,,,,,,,,,,,,,,,,,,,,,,,,,,,,,,,
,,"[""comma""]",0,[0.017199999809236033],105,0,105,0,1,5fd5038ab78cf82f89c86bdc,20,Mężczyzna,2022-06-04_08h09.34.438,task,2021.1.4,Win32,60.0528465,628b806c463b948bc644b84f,629af6e7c430cf36bc415878,,,,,,,,,,,,,,,,,,,,,,,,,,,,,,,,,,,,,,,,,,,,,,,,,,,,,,,,,,,,,,,,,,,,,,,,,,,,,,,,,,,,,,,,,,,,,,,,,,,,,,,
,,"[""period""]",0,[0.0005999999046366611],106,0,106,0,1,5fd5038ab78cf82f89c86bdc,20,Mężczyzna,2022-06-04_08h09.34.438,task,2021.1.4,Win32,60.0528465,628b806c463b948bc644b84f,629af6e7c430cf36bc415878,,,,,,,,,,,,,,,,,,,,,,,,,,,,,,,,,,,,,,,,,,,,,,,,,,,,,,,,,,,,,,,,,,,,,,,,,,,,,,,,,,,,,,,,,,,,,,,,,,,,,,,
,,"[""period""]",0,[0.15350000000000819],107,0,107,0,1,5fd5038ab78cf82f89c86bdc,20,Mężczyzna,2022-06-04_08h09.34.438,task,2021.1.4,Win32,60.0528465,628b806c463b948bc644b84f,629af6e7c430cf36bc415878,,,,,,,,,,,,,,,,,,,,,,,,,,,,,,,,,,,,,,,,,,,,,,,,,,,,,,,,,,,,,,,,,,,,,,,,,,,,,,,,,,,,,,,,,,,,,,,,,,,,,,,
,,"[""comma""]",0,[0.2933000001907544],108,0,108,0,1,5fd5038ab78cf82f89c86bdc,20,Mężczyzna,2022-06-04_08h09.34.438,task,2021.1.4,Win32,60.0528465,628b806c463b948bc644b84f,629af6e7c430cf36bc415878,,,,,,,,,,,,,,,,,,,,,,,,,,,,,,,,,,,,,,,,,,,,,,,,,,,,,,,,,,,,,,,,,,,,,,,,,,,,,,,,,,,,,,,,,,,,,,,,,,,,,,,
,,"[""period""]",0,[0.33399999999994634],109,0,109,0,1,5fd5038ab78cf82f89c86bdc,20,Mężczyzna,2022-06-04_08h09.34.438,task,2021.1.4,Win32,60.0528465,628b806c463b948bc644b84f,629af6e7c430cf36bc415878,,,,,,,,,,,,,,,,,,,,,,,,,,,,,,,,,,,,,,,,,,,,,,,,,,,,,,,,,,,,,,,,,,,,,,,,,,,,,,,,,,,,,,,,,,,,,,,,,,,,,,,
,,"[""comma""]",0,[0.3410999999045998],110,0,110,0,1,5fd5038ab78cf82f89c86bdc,20,Mężczyzna,2022-06-04_08h09.34.438,task,2021.1.4,Win32,60.0528465,628b806c463b948bc644b84f,629af6e7c430cf36bc415878,,,,,,,,,,,,,,,,,,,,,,,,,,,,,,,,,,,,,,,,,,,,,,,,,,,,,,,,,,,,,,,,,,,,,,,,,,,,,,,,,,,,,,,,,,,,,,,,,,,,,,,
,,"[""period""]",0,[0.3304000000953806],111,0,111,0,1,5fd5038ab78cf82f89c86bdc,20,Mężczyzna,2022-06-04_08h09.34.438,task,2021.1.4,Win32,60.0528465,628b806c463b948bc644b84f,629af6e7c430cf36bc415878,,,,,,,,,,,,,,,,,,,,,,,,,,,,,,,,,,,,,,,,,,,,,,,,,,,,,,,,,,,,,,,,,,,,,,,,,,,,,,,,,,,,,,,,,,,,,,,,,,,,,,,
,,"[""comma""]",0,[0.2932000000476478],112,0,112,0,1,5fd5038ab78cf82f89c86bdc,20,Mężczyzna,2022-06-04_08h09.34.438,task,2021.1.4,Win32,60.0528465,628b806c463b948bc644b84f,629af6e7c430cf36bc415878,,,,,,,,,,,,,,,,,,,,,,,,,,,,,,,,,,,,,,,,,,,,,,,,,,,,,,,,,,,,,,,,,,,,,,,,,,,,,,,,,,,,,,,,,,,,,,,,,,,,,,,
,,"[""period""]",0,[0.3207000000476796],113,0,113,0,1,5fd5038ab78cf82f89c86bdc,20,Mężczyzna,2022-06-04_08h09.34.438,task,2021.1.4,Win32,60.0528465,628b806c463b948bc644b84f,629af6e7c430cf36bc415878,,,,,,,,,,,,,,,,,,,,,,,,,,,,,,,,,,,,,,,,,,,,,,,,,,,,,,,,,,,,,,,,,,,,,,,,,,,,,,,,,,,,,,,,,,,,,,,,,,,,,,,
,,"[""comma""]",0,[0.30059999990464803],114,0,114,0,1,5fd5038ab78cf82f89c86bdc,20,Mężczyzna,2022-06-04_08h09.34.438,task,2021.1.4,Win32,60.0528465,628b806c463b948bc644b84f,629af6e7c430cf36bc415878,,,,,,,,,,,,,,,,,,,,,,,,,,,,,,,,,,,,,,,,,,,,,,,,,,,,,,,,,,,,,,,,,,,,,,,,,,,,,,,,,,,,,,,,,,,,,,,,,,,,,,,
,,"[""comma""]",0,[0.28350000000000364],115,0,115,0,1,5fd5038ab78cf82f89c86bdc,20,Mężczyzna,2022-06-04_08h09.34.438,task,2021.1.4,Win32,60.0528465,628b806c463b948bc644b84f,629af6e7c430cf36bc415878,,,,,,,,,,,,,,,,,,,,,,,,,,,,,,,,,,,,,,,,,,,,,,,,,,,,,,,,,,,,,,,,,,,,,,,,,,,,,,,,,,,,,,,,,,,,,,,,,,,,,,,
,,"[""comma""]",0,[0.3001999998092515],116,0,116,0,1,5fd5038ab78cf82f89c86bdc,20,Mężczyzna,2022-06-04_08h09.34.438,task,2021.1.4,Win32,60.0528465,628b806c463b948bc644b84f,629af6e7c430cf36bc415878,,,,,,,,,,,,,,,,,,,,,,,,,,,,,,,,,,,,,,,,,,,,,,,,,,,,,,,,,,,,,,,,,,,,,,,,,,,,,,,,,,,,,,,,,,,,,,,,,,,,,,,
,,"[""period""]",0,[0.17659999990468123],117,0,117,0,1,5fd5038ab78cf82f89c86bdc,20,Mężczyzna,2022-06-04_08h09.34.438,task,2021.1.4,Win32,60.0528465,628b806c463b948bc644b84f,629af6e7c430cf36bc415878,,,,,,,,,,,,,,,,,,,,,,,,,,,,,,,,,,,,,,,,,,,,,,,,,,,,,,,,,,,,,,,,,,,,,,,,,,,,,,,,,,,,,,,,,,,,,,,,,,,,,,,
,,"[""comma""]",0,[0.36829999995234175],118,0,118,0,1,5fd5038ab78cf82f89c86bdc,20,Mężczyzna,2022-06-04_08h09.34.438,task,2021.1.4,Win32,60.0528465,628b806c463b948bc644b84f,629af6e7c430cf36bc415878,,,,,,,,,,,,,,,,,,,,,,,,,,,,,,,,,,,,,,,,,,,,,,,,,,,,,,,,,,,,,,,,,,,,,,,,,,,,,,,,,,,,,,,,,,,,,,,,,,,,,,,
,,"[""comma""]",0,[0.25339999985698114],119,0,119,0,1,5fd5038ab78cf82f89c86bdc,20,Mężczyzna,2022-06-04_08h09.34.438,task,2021.1.4,Win32,60.0528465,628b806c463b948bc644b84f,629af6e7c430cf36bc415878,,,,,,,,,,,,,,,,,,,,,,,,,,,,,,,,,,,,,,,,,,,,,,,,,,,,,,,,,,,,,,,,,,,,,,,,,,,,,,,,,,,,,,,,,,,,,,,,,,,,,,,
,,,,,,,,,,5fd5038ab78cf82f89c86bdc,20,Mężczyzna,2022-06-04_08h09.34.438,task,2021.1.4,Win32,60.0528465,628b806c463b948bc644b84f,629af6e7c430cf36bc415878,space,11.9555,space,5.6841,0,0,0,0,1,X V Q F H G B L J M P D K C T S W R N Z,,,,,,,,,,,,,,,,,,,,,,,,,,,,,,,,,,,,,,,,,,,,,,,,,,,,,,,,,,,,,,,,,,,,,,,,,,,,,,,,,,,,,,,,,,,,,
,,,,,,,,,,5fd5038ab78cf82f89c86bdc,20,Mężczyzna,2022-06-04_08h09.34.438,task,2021.1.4,Win32,60.0528465,628b806c463b948bc644b84f,629af6e7c430cf36bc415878,,,,,1,0,1,0,1,X V Q F H G B L J M P D K C T S W R N Z,,,,,,,,,,,,,,,,,,,,,,,,,,,,,,,,,,,,,,,,,,,,,,,,,,,,,,,,,,,,,,,,,,,,,,,,,,,,,,,,,,,,,,,,,,,,,
,,,,,,,,,,5fd5038ab78cf82f89c86bdc,20,Mężczyzna,2022-06-04_08h09.34.438,task,2021.1.4,Win32,60.0528465,628b806c463b948bc644b84f,629af6e7c430cf36bc415878,,,,,,,,,,,zl,"[""z"",""l""]","[1.7433999998569334,2.1223999998569525,3.5632000000476864]",1,ZL,0,0,0,0,1,,,,,,,,,,,,,,,,,,,,,,,,,,,,,,,,,,,,,,,,,,,,,,,,,,,,,,,,,,,,,,,,,,,,,,,,,,,,,,,,,,,
,,,,,,,,,,5fd5038ab78cf82f89c86bdc,20,Mężczyzna,2022-06-04_08h09.34.438,task,2021.1.4,Win32,60.0528465,628b806c463b948bc644b84f,629af6e7c430cf36bc415878,,,,,0,0,0,0,1,X V Q F H G B L J M P D K C T S W R N Z,,,,,,,,,,,,,,,,,,,,,,,,,,,,,,,,,,,,,,,,,,,,,,,,,,,,,,,,,,,,,,,,,,,,,,,,,,,,,,,,,,,,,,,,,,,,,
,,,,,,,,,,5fd5038ab78cf82f89c86bdc,20,Mężczyzna,2022-06-04_08h09.34.438,task,2021.1.4,Win32,60.0528465,628b806c463b948bc644b84f,629af6e7c430cf36bc415878,,,,,1,0,1,0,1,X V Q F H G B L J M P D K C T S W R N Z,,,,,,,,,,,,,,,,,,,,,,,,,,,,,,,,,,,,,,,,,,,,,,,,,,,,,,,,,,,,,,,,,,,,,,,,,,,,,,,,,,,,,,,,,,,,,
,,,,,,,,,,5fd5038ab78cf82f89c86bdc,20,Mężczyzna,2022-06-04_08h09.34.438,task,2021.1.4,Win32,60.0528465,628b806c463b948bc644b84f,629af6e7c430cf36bc415878,,,,,,,,,,,qq,"[""q"",""q""]","[0.6170999999046103,0.9217999999522704,1.7705999999046185]",1,QQ,1,0,1,0,1,,,,,,,,,,,,,,,,,,,,,,,,,,,,,,,,,,,,,,,,,,,,,,,,,,,,,,,,,,,,,,,,,,,,,,,,,,,,,,,,,,,
,,,,,,,,,,5fd5038ab78cf82f89c86bdc,20,Mężczyzna,2022-06-04_08h09.34.438,task,2021.1.4,Win32,60.0528465,628b806c463b948bc644b84f,629af6e7c430cf36bc415878,,,,,0,0,0,0,1,X V Q F H G B L J M P D K C T S W R N Z,,,,,,,,,,,,,,,,,,,,,,,,,,,,,,,,,,,,,,,,,,,,,,,,,,,,,,,,,,,,,,,,,,,,,,,,,,,,,,,,,,,,,,,,,,,,,
,,,,,,,,,,5fd5038ab78cf82f89c86bdc,20,Mężczyzna,2022-06-04_08h09.34.438,task,2021.1.4,Win32,60.0528465,628b806c463b948bc644b84f,629af6e7c430cf36bc415878,,,,,1,0,1,0,1,X V Q F H G B L J M P D K C T S W R N Z,,,,,,,,,,,,,,,,,,,,,,,,,,,,,,,,,,,,,,,,,,,,,,,,,,,,,,,,,,,,,,,,,,,,,,,,,,,,,,,,,,,,,,,,,,,,,
,,,,,,,,,,5fd5038ab78cf82f89c86bdc,20,Mężczyzna,2022-06-04_08h09.34.438,task,2021.1.4,Win32,60.0528465,628b806c463b948bc644b84f,629af6e7c430cf36bc415878,,,,,2,0,2,0,1,X V Q F H G B L J M P D K C T S W R N Z,,,,,,,,,,,,,,,,,,,,,,,,,,,,,,,,,,,,,,,,,,,,,,,,,,,,,,,,,,,,,,,,,,,,,,,,,,,,,,,,,,,,,,,,,,,,,
,,,,,,,,,,5fd5038ab78cf82f89c86bdc,20,Mężczyzna,2022-06-04_08h09.34.438,task,2021.1.4,Win32,60.0528465,628b806c463b948bc644b84f,629af6e7c430cf36bc415878,,,,,,,,,,,wjc,"[""w"",""j"",""c""]","[0.5503999998569498,1.0172000000476942,1.5842000000477015,2.3003999998569498]",1,WJC,2,0,2,0,1,,,,,,,,,,,,,,,,,,,,,,,,,,,,,,,,,,,,,,,,,,,,,,,,,,,,,,,,,,,,,,,,,,,,,,,,,,,,,,,,,,,
,,,,,,,,,,5fd5038ab78cf82f89c86bdc,20,Mężczyzna,2022-06-04_08h09.34.438,task,2021.1.4,Win32,60.0528465,628b806c463b948bc644b84f,629af6e7c430cf36bc415878,,,,,0,0,0,0,1,X V Q F H G B L J M P D K C T S W R N Z,,,,,,,,,,,,,,,,,,,,,,,,,,,,,,,,,,,,,,,,,,,,,,,,,,,,,,,,,,,,,,,,,,,,,,,,,,,,,,,,,,,,,,,,,,,,,
,,,,,,,,,,5fd5038ab78cf82f89c86bdc,20,Mężczyzna,2022-06-04_08h09.34.438,task,2021.1.4,Win32,60.0528465,628b806c463b948bc644b84f,629af6e7c430cf36bc415878,,,,,1,0,1,0,1,X V Q F H G B L J M P D K C T S W R N Z,,,,,,,,,,,,,,,,,,,,,,,,,,,,,,,,,,,,,,,,,,,,,,,,,,,,,,,,,,,,,,,,,,,,,,,,,,,,,,,,,,,,,,,,,,,,,
,,,,,,,,,,5fd5038ab78cf82f89c86bdc,20,Mężczyzna,2022-06-04_08h09.34.438,task,2021.1.4,Win32,60.0528465,628b806c463b948bc644b84f,629af6e7c430cf36bc415878,,,,,2,0,2,0,1,X V Q F H G B L J M P D K C T S W R N Z,,,,,,,,,,,,,,,,,,,,,,,,,,,,,,,,,,,,,,,,,,,,,,,,,,,,,,,,,,,,,,,,,,,,,,,,,,,,,,,,,,,,,,,,,,,,,
,,,,,,,,,,5fd5038ab78cf82f89c86bdc,20,Mężczyzna,2022-06-04_08h09.34.438,task,2021.1.4,Win32,60.0528465,628b806c463b948bc644b84f,629af6e7c430cf36bc415878,,,,,,,,,,,slj,"[""s"",""l"",""j""]","[0.4502000000476869,0.7838000001906948,1.1184000000953347,1.6263000001907244]",1,SLJ,3,0,3,0,1,,,,,,,,,,,,,,,,,,,,,,,,,,,,,,,,,,,,,,,,,,,,,,,,,,,,,,,,,,,,,,,,,,,,,,,,,,,,,,,,,,,
,,,,,,,,,,5fd5038ab78cf82f89c86bdc,20,Mężczyzna,2022-06-04_08h09.34.438,task,2021.1.4,Win32,60.0528465,628b806c463b948bc644b84f,629af6e7c430cf36bc415878,,,,,0,0,0,0,1,X V Q F H G B L J M P D K C T S W R N Z,,,,,,,,,,,,,,,,,,,,,,,,,,,,,,,,,,,,,,,,,,,,,,,,,,,,,,,,,,,,,,,,,,,,,,,,,,,,,,,,,,,,,,,,,,,,,
,,,,,,,,,,5fd5038ab78cf82f89c86bdc,20,Mężczyzna,2022-06-04_08h09.34.438,task,2021.1.4,Win32,60.0528465,628b806c463b948bc644b84f,629af6e7c430cf36bc415878,,,,,1,0,1,0,1,X V Q F H G B L J M P D K C T S W R N Z,,,,,,,,,,,,,,,,,,,,,,,,,,,,,,,,,,,,,,,,,,,,,,,,,,,,,,,,,,,,,,,,,,,,,,,,,,,,,,,,,,,,,,,,,,,,,
,,,,,,,,,,5fd5038ab78cf82f89c86bdc,20,Mężczyzna,2022-06-04_08h09.34.438,task,2021.1.4,Win32,60.0528465,628b806c463b948bc644b84f,629af6e7c430cf36bc415878,,,,,2,0,2,0,1,X V Q F H G B L J M P D K C T S W R N Z,,,,,,,,,,,,,,,,,,,,,,,,,,,,,,,,,,,,,,,,,,,,,,,,,,,,,,,,,,,,,,,,,,,,,,,,,,,,,,,,,,,,,,,,,,,,,
,,,,,,,,,,5fd5038ab78cf82f89c86bdc,20,Mężczyzna,2022-06-04_08h09.34.438,task,2021.1.4,Win32,60.0528465,628b806c463b948bc644b84f,629af6e7c430cf36bc415878,,,,,3,0,3,0,1,X V Q F H G B L J M P D K C T S W R N Z,,,,,,,,,,,,,,,,,,,,,,,,,,,,,,,,,,,,,,,,,,,,,,,,,,,,,,,,,,,,,,,,,,,,,,,,,,,,,,,,,,,,,,,,,,,,,
,,,,,,,,,,5fd5038ab78cf82f89c86bdc,20,Mężczyzna,2022-06-04_08h09.34.438,task,2021.1.4,Win32,60.0528465,628b806c463b948bc644b84f,629af6e7c430cf36bc415878,,,,,,,,,,,xzzl,"[""x"",""z"",""z"",""l""]","[0.4714000000954002,0.8752999999523468,1.123400000095387,1.7000000000000455,2.151400000095407]",1,XZZL,4,0,4,0,1,,,,,,,,,,,,,,,,,,,,,,,,,,,,,,,,,,,,,,,,,,,,,,,,,,,,,,,,,,,,,,,,,,,,,,,,,,,,,,,,,,,
,,,,,,,,,,5fd5038ab78cf82f89c86bdc,20,Mężczyzna,2022-06-04_08h09.34.438,task,2021.1.4,Win32,60.0528465,628b806c463b948bc644b84f,629af6e7c430cf36bc415878,,,,,0,0,0,0,1,X V Q F H G B L J M P D K C T S W R N Z,,,,,,,,,,,,,,,,,,,,,,,,,,,,,,,,,,,,,,,,,,,,,,,,,,,,,,,,,,,,,,,,,,,,,,,,,,,,,,,,,,,,,,,,,,,,,
,,,,,,,,,,5fd5038ab78cf82f89c86bdc,20,Mężczyzna,2022-06-04_08h09.34.438,task,2021.1.4,Win32,60.0528465,628b806c463b948bc644b84f,629af6e7c430cf36bc415878,,,,,1,0,1,0,1,X V Q F H G B L J M P D K C T S W R N Z,,,,,,,,,,,,,,,,,,,,,,,,,,,,,,,,,,,,,,,,,,,,,,,,,,,,,,,,,,,,,,,,,,,,,,,,,,,,,,,,,,,,,,,,,,,,,
,,,,,,,,,,5fd5038ab78cf82f89c86bdc,20,Mężczyzna,2022-06-04_08h09.34.438,task,2021.1.4,Win32,60.0528465,628b806c463b948bc644b84f,629af6e7c430cf36bc415878,,,,,2,0,2,0,1,X V Q F H G B L J M P D K C T S W R N Z,,,,,,,,,,,,,,,,,,,,,,,,,,,,,,,,,,,,,,,,,,,,,,,,,,,,,,,,,,,,,,,,,,,,,,,,,,,,,,,,,,,,,,,,,,,,,
,,,,,,,,,,5fd5038ab78cf82f89c86bdc,20,Mężczyzna,2022-06-04_08h09.34.438,task,2021.1.4,Win32,60.0528465,628b806c463b948bc644b84f,629af6e7c430cf36bc415878,,,,,3,0,3,0,1,X V Q F H G B L J M P D K C T S W R N Z,,,,,,,,,,,,,,,,,,,,,,,,,,,,,,,,,,,,,,,,,,,,,,,,,,,,,,,,,,,,,,,,,,,,,,,,,,,,,,,,,,,,,,,,,,,,,
,,,,,,,,,,5fd5038ab78cf82f89c86bdc,20,Mężczyzna,2022-06-04_08h09.34.438,task,2021.1.4,Win32,60.0528465,628b806c463b948bc644b84f,629af6e7c430cf36bc415878,,,,,,,,,,,zknm,"[""z"",""k"",""n"",""m""]","[0.5401000001430702,0.7679000000953806,1.2200000000000273,2.4362000000477337,3.0600000000000023]",1,ZKNM,5,0,5,0,1,,,,,,,,,,,,,,,,,,,,,,,,,,,,,,,,,,,,,,,,,,,,,,,,,,,,,,,,,,,,,,,,,,,,,,,,,,,,,,,,,,,
,,,,,,,,,,5fd5038ab78cf82f89c86bdc,20,Mężczyzna,2022-06-04_08h09.34.438,task,2021.1.4,Win32,60.0528465,628b806c463b948bc644b84f,629af6e7c430cf36bc415878,,,,,0,0,0,0,1,X V Q F H G B L J M P D K C T S W R N Z,,,,,,,,,,,,,,,,,,,,,,,,,,,,,,,,,,,,,,,,,,,,,,,,,,,,,,,,,,,,,,,,,,,,,,,,,,,,,,,,,,,,,,,,,,,,,
,,,,,,,,,,5fd5038ab78cf82f89c86bdc,20,Mężczyzna,2022-06-04_08h09.34.438,task,2021.1.4,Win32,60.0528465,628b806c463b948bc644b84f,629af6e7c430cf36bc415878,,,,,1,0,1,0,1,X V Q F H G B L J M P D K C T S W R N Z,,,,,,,,,,,,,,,,,,,,,,,,,,,,,,,,,,,,,,,,,,,,,,,,,,,,,,,,,,,,,,,,,,,,,,,,,,,,,,,,,,,,,,,,,,,,,
,,,,,,,,,,5fd5038ab78cf82f89c86bdc,20,Mężczyzna,2022-06-04_08h09.34.438,task,2021.1.4,Win32,60.0528465,628b806c463b948bc644b84f,629af6e7c430cf36bc415878,,,,,2,0,2,0,1,X V Q F H G B L J M P D K C T S W R N Z,,,,,,,,,,,,,,,,,,,,,,,,,,,,,,,,,,,,,,,,,,,,,,,,,,,,,,,,,,,,,,,,,,,,,,,,,,,,,,,,,,,,,,,,,,,,,
,,,,,,,,,,5fd5038ab78cf82f89c86bdc,20,Mężczyzna,2022-06-04_08h09.34.438,task,2021.1.4,Win32,60.0528465,628b806c463b948bc644b84f,629af6e7c430cf36bc415878,,,,,3,0,3,0,1,X V Q F H G B L J M P D K C T S W R N Z,,,,,,,,,,,,,,,,,,,,,,,,,,,,,,,,,,,,,,,,,,,,,,,,,,,,,,,,,,,,,,,,,,,,,,,,,,,,,,,,,,,,,,,,,,,,,
,,,,,,,,,,5fd5038ab78cf82f89c86bdc,20,Mężczyzna,2022-06-04_08h09.34.438,task,2021.1.4,Win32,60.0528465,628b806c463b948bc644b84f,629af6e7c430cf36bc415878,,,,,4,0,4,0,1,X V Q F H G B L J M P D K C T S W R N Z,,,,,,,,,,,,,,,,,,,,,,,,,,,,,,,,,,,,,,,,,,,,,,,,,,,,,,,,,,,,,,,,,,,,,,,,,,,,,,,,,,,,,,,,,,,,,
,,,,,,,,,,5fd5038ab78cf82f89c86bdc,20,Mężczyzna,2022-06-04_08h09.34.438,task,2021.1.4,Win32,60.0528465,628b806c463b948bc644b84f,629af6e7c430cf36bc415878,,,,,,,,,,,mdbgt,"[""m"",""d"",""b"",""g"",""t""]","[0.8423999998569229,2.2622999999522904,3.4020999999046353,4.100399999856961,4.684299999952316,5.53449999999998]",1,MDBGT,6,0,6,0,1,,,,,,,,,,,,,,,,,,,,,,,,,,,,,,,,,,,,,,,,,,,,,,,,,,,,,,,,,,,,,,,,,,,,,,,,,,,,,,,,,,,
,,,,,,,,,,5fd5038ab78cf82f89c86bdc,20,Mężczyzna,2022-06-04_08h09.34.438,task,2021.1.4,Win32,60.0528465,628b806c463b948bc644b84f,629af6e7c430cf36bc415878,,,,,0,0,0,0,1,X V Q F H G B L J M P D K C T S W R N Z,,,,,,,,,,,,,,,,,,,,,,,,,,,,,,,,,,,,,,,,,,,,,,,,,,,,,,,,,,,,,,,,,,,,,,,,,,,,,,,,,,,,,,,,,,,,,
,,,,,,,,,,5fd5038ab78cf82f89c86bdc,20,Mężczyzna,2022-06-04_08h09.34.438,task,2021.1.4,Win32,60.0528465,628b806c463b948bc644b84f,629af6e7c430cf36bc415878,,,,,1,0,1,0,1,X V Q F H G B L J M P D K C T S W R N Z,,,,,,,,,,,,,,,,,,,,,,,,,,,,,,,,,,,,,,,,,,,,,,,,,,,,,,,,,,,,,,,,,,,,,,,,,,,,,,,,,,,,,,,,,,,,,
,,,,,,,,,,5fd5038ab78cf82f89c86bdc,20,Mężczyzna,2022-06-04_08h09.34.438,task,2021.1.4,Win32,60.0528465,628b806c463b948bc644b84f,629af6e7c430cf36bc415878,,,,,2,0,2,0,1,X V Q F H G B L J M P D K C T S W R N Z,,,,,,,,,,,,,,,,,,,,,,,,,,,,,,,,,,,,,,,,,,,,,,,,,,,,,,,,,,,,,,,,,,,,,,,,,,,,,,,,,,,,,,,,,,,,,
,,,,,,,,,,5fd5038ab78cf82f89c86bdc,20,Mężczyzna,2022-06-04_08h09.34.438,task,2021.1.4,Win32,60.0528465,628b806c463b948bc644b84f,629af6e7c430cf36bc415878,,,,,3,0,3,0,1,X V Q F H G B L J M P D K C T S W R N Z,,,,,,,,,,,,,,,,,,,,,,,,,,,,,,,,,,,,,,,,,,,,,,,,,,,,,,,,,,,,,,,,,,,,,,,,,,,,,,,,,,,,,,,,,,,,,
,,,,,,,,,,5fd5038ab78cf82f89c86bdc,20,Mężczyzna,2022-06-04_08h09.34.438,task,2021.1.4,Win32,60.0528465,628b806c463b948bc644b84f,629af6e7c430cf36bc415878,,,,,4,0,4,0,1,X V Q F H G B L J M P D K C T S W R N Z,,,,,,,,,,,,,,,,,,,,,,,,,,,,,,,,,,,,,,,,,,,,,,,,,,,,,,,,,,,,,,,,,,,,,,,,,,,,,,,,,,,,,,,,,,,,,
,,,,,,,,,,5fd5038ab78cf82f89c86bdc,20,Mężczyzna,2022-06-04_08h09.34.438,task,2021.1.4,Win32,60.0528465,628b806c463b948bc644b84f,629af6e7c430cf36bc415878,,,,,,,,,,,gtbqt,"[""g"",""t"",""b"",""q"",""t""]","[1.0120000000000005,1.516999999999996,3.200700000047675,3.9959000000953324,7.095700000047657,8.887700000047687]",0,GTBQD,7,0,7,0,1,,,,,,,,,,,,,,,,,,,,,,,,,,,,,,,,,,,,,,,,,,,,,,,,,,,,,,,,,,,,,,,,,,,,,,,,,,,,,,,,,,,
,,,,,,,,,,5fd5038ab78cf82f89c86bdc,20,Mężczyzna,2022-06-04_08h09.34.438,task,2021.1.4,Win32,60.0528465,628b806c463b948bc644b84f,629af6e7c430cf36bc415878,,,,,0,0,0,0,1,X V Q F H G B L J M P D K C T S W R N Z,,,,,,,,,,,,,,,,,,,,,,,,,,,,,,,,,,,,,,,,,,,,,,,,,,,,,,,,,,,,,,,,,,,,,,,,,,,,,,,,,,,,,,,,,,,,,
,,,,,,,,,,5fd5038ab78cf82f89c86bdc,20,Mężczyzna,2022-06-04_08h09.34.438,task,2021.1.4,Win32,60.0528465,628b806c463b948bc644b84f,629af6e7c430cf36bc415878,,,,,1,0,1,0,1,X V Q F H G B L J M P D K C T S W R N Z,,,,,,,,,,,,,,,,,,,,,,,,,,,,,,,,,,,,,,,,,,,,,,,,,,,,,,,,,,,,,,,,,,,,,,,,,,,,,,,,,,,,,,,,,,,,,
,,,,,,,,,,5fd5038ab78cf82f89c86bdc,20,Mężczyzna,2022-06-04_08h09.34.438,task,2021.1.4,Win32,60.0528465,628b806c463b948bc644b84f,629af6e7c430cf36bc415878,,,,,2,0,2,0,1,X V Q F H G B L J M P D K C T S W R N Z,,,,,,,,,,,,,,,,,,,,,,,,,,,,,,,,,,,,,,,,,,,,,,,,,,,,,,,,,,,,,,,,,,,,,,,,,,,,,,,,,,,,,,,,,,,,,
,,,,,,,,,,5fd5038ab78cf82f89c86bdc,20,Mężczyzna,2022-06-04_08h09.34.438,task,2021.1.4,Win32,60.0528465,628b806c463b948bc644b84f,629af6e7c430cf36bc415878,,,,,3,0,3,0,1,X V Q F H G B L J M P D K C T S W R N Z,,,,,,,,,,,,,,,,,,,,,,,,,,,,,,,,,,,,,,,,,,,,,,,,,,,,,,,,,,,,,,,,,,,,,,,,,,,,,,,,,,,,,,,,,,,,,
,,,,,,,,,,5fd5038ab78cf82f89c86bdc,20,Mężczyzna,2022-06-04_08h09.34.438,task,2021.1.4,Win32,60.0528465,628b806c463b948bc644b84f,629af6e7c430cf36bc415878,,,,,4,0,4,0,1,X V Q F H G B L J M P D K C T S W R N Z,,,,,,,,,,,,,,,,,,,,,,,,,,,,,,,,,,,,,,,,,,,,,,,,,,,,,,,,,,,,,,,,,,,,,,,,,,,,,,,,,,,,,,,,,,,,,
,,,,,,,,,,5fd5038ab78cf82f89c86bdc,20,Mężczyzna,2022-06-04_08h09.34.438,task,2021.1.4,Win32,60.0528465,628b806c463b948bc644b84f,629af6e7c430cf36bc415878,,,,,,,,,,,ddnlr,"[""d"",""d"",""n"",""l"",""r""]","[0.7999999999999545,0.9497000000476419,1.5259999999999536,2.362299999952313,2.8185999999046203,3.4260999999045794]",1,DDNLR,8,0,8,0,1,,,,,,,,,,,,,,,,,,,,,,,,,,,,,,,,,,,,,,,,,,,,,,,,,,,,,,,,,,,,,,,,,,,,,,,,,,,,,,,,,,,
,,,,,,,,,,5fd5038ab78cf82f89c86bdc,20,Mężczyzna,2022-06-04_08h09.34.438,task,2021.1.4,Win32,60.0528465,628b806c463b948bc644b84f,629af6e7c430cf36bc415878,,,,,0,0,0,0,1,X V Q F H G B L J M P D K C T S W R N Z,,,,,,,,,,,,,,,,,,,,,,,,,,,,,,,,,,,,,,,,,,,,,,,,,,,,,,,,,,,,,,,,,,,,,,,,,,,,,,,,,,,,,,,,,,,,,
,,,,,,,,,,5fd5038ab78cf82f89c86bdc,20,Mężczyzna,2022-06-04_08h09.34.438,task,2021.1.4,Win32,60.0528465,628b806c463b948bc644b84f,629af6e7c430cf36bc415878,,,,,1,0,1,0,1,X V Q F H G B L J M P D K C T S W R N Z,,,,,,,,,,,,,,,,,,,,,,,,,,,,,,,,,,,,,,,,,,,,,,,,,,,,,,,,,,,,,,,,,,,,,,,,,,,,,,,,,,,,,,,,,,,,,
,,,,,,,,,,5fd5038ab78cf82f89c86bdc,20,Mężczyzna,2022-06-04_08h09.34.438,task,2021.1.4,Win32,60.0528465,628b806c463b948bc644b84f,629af6e7c430cf36bc415878,,,,,2,0,2,0,1,X V Q F H G B L J M P D K C T S W R N Z,,,,,,,,,,,,,,,,,,,,,,,,,,,,,,,,,,,,,,,,,,,,,,,,,,,,,,,,,,,,,,,,,,,,,,,,,,,,,,,,,,,,,,,,,,,,,
,,,,,,,,,,5fd5038ab78cf82f89c86bdc,20,Mężczyzna,2022-06-04_08h09.34.438,task,2021.1.4,Win32,60.0528465,628b806c463b948bc644b84f,629af6e7c430cf36bc415878,,,,,3,0,3,0,1,X V Q F H G B L J M P D K C T S W R N Z,,,,,,,,,,,,,,,,,,,,,,,,,,,,,,,,,,,,,,,,,,,,,,,,,,,,,,,,,,,,,,,,,,,,,,,,,,,,,,,,,,,,,,,,,,,,,
,,,,,,,,,,5fd5038ab78cf82f89c86bdc,20,Mężczyzna,2022-06-04_08h09.34.438,task,2021.1.4,Win32,60.0528465,628b806c463b948bc644b84f,629af6e7c430cf36bc415878,,,,,4,0,4,0,1,X V Q F H G B L J M P D K C T S W R N Z,,,,,,,,,,,,,,,,,,,,,,,,,,,,,,,,,,,,,,,,,,,,,,,,,,,,,,,,,,,,,,,,,,,,,,,,,,,,,,,,,,,,,,,,,,,,,
,,,,,,,,,,5fd5038ab78cf82f89c86bdc,20,Mężczyzna,2022-06-04_08h09.34.438,task,2021.1.4,Win32,60.0528465,628b806c463b948bc644b84f,629af6e7c430cf36bc415878,,,,,5,0,5,0,1,X V Q F H G B L J M P D K C T S W R N Z,,,,,,,,,,,,,,,,,,,,,,,,,,,,,,,,,,,,,,,,,,,,,,,,,,,,,,,,,,,,,,,,,,,,,,,,,,,,,,,,,,,,,,,,,,,,,
,,,,,,,,,,5fd5038ab78cf82f89c86bdc,20,Mężczyzna,2022-06-04_08h09.34.438,task,2021.1.4,Win32,60.0528465,628b806c463b948bc644b84f,629af6e7c430cf36bc415878,,,,,,,,,,,rqspg,"[""r"",""q"",""s"",""p"",""g""]","[0.9782999999522985,1.9990000000000236,3.4548999998569343,3.8029999999999973,5.3491999998092865,6.449399999856951]",0,RQSGPR,9,0,9,0,1,,,,,,,,,,,,,,,,,,,,,,,,,,,,,,,,,,,,,,,,,,,,,,,,,,,,,,,,,,,,,,,,,,,,,,,,,,,,,,,,,,,
,,,,,,,,,,5fd5038ab78cf82f89c86bdc,20,Mężczyzna,2022-06-04_08h09.34.438,task,2021.1.4,Win32,60.0528465,628b806c463b948bc644b84f,629af6e7c430cf36bc415878,,,,,0,0,0,0,1,X V Q F H G B L J M P D K C T S W R N Z,,,,,,,,,,,,,,,,,,,,,,,,,,,,,,,,,,,,,,,,,,,,,,,,,,,,,,,,,,,,,,,,,,,,,,,,,,,,,,,,,,,,,,,,,,,,,
,,,,,,,,,,5fd5038ab78cf82f89c86bdc,20,Mężczyzna,2022-06-04_08h09.34.438,task,2021.1.4,Win32,60.0528465,628b806c463b948bc644b84f,629af6e7c430cf36bc415878,,,,,1,0,1,0,1,X V Q F H G B L J M P D K C T S W R N Z,,,,,,,,,,,,,,,,,,,,,,,,,,,,,,,,,,,,,,,,,,,,,,,,,,,,,,,,,,,,,,,,,,,,,,,,,,,,,,,,,,,,,,,,,,,,,
,,,,,,,,,,5fd5038ab78cf82f89c86bdc,20,Mężczyzna,2022-06-04_08h09.34.438,task,2021.1.4,Win32,60.0528465,628b806c463b948bc644b84f,629af6e7c430cf36bc415878,,,,,2,0,2,0,1,X V Q F H G B L J M P D K C T S W R N Z,,,,,,,,,,,,,,,,,,,,,,,,,,,,,,,,,,,,,,,,,,,,,,,,,,,,,,,,,,,,,,,,,,,,,,,,,,,,,,,,,,,,,,,,,,,,,
,,,,,,,,,,5fd5038ab78cf82f89c86bdc,20,Mężczyzna,2022-06-04_08h09.34.438,task,2021.1.4,Win32,60.0528465,628b806c463b948bc644b84f,629af6e7c430cf36bc415878,,,,,3,0,3,0,1,X V Q F H G B L J M P D K C T S W R N Z,,,,,,,,,,,,,,,,,,,,,,,,,,,,,,,,,,,,,,,,,,,,,,,,,,,,,,,,,,,,,,,,,,,,,,,,,,,,,,,,,,,,,,,,,,,,,
,,,,,,,,,,5fd5038ab78cf82f89c86bdc,20,Mężczyzna,2022-06-04_08h09.34.438,task,2021.1.4,Win32,60.0528465,628b806c463b948bc644b84f,629af6e7c430cf36bc415878,,,,,4,0,4,0,1,X V Q F H G B L J M P D K C T S W R N Z,,,,,,,,,,,,,,,,,,,,,,,,,,,,,,,,,,,,,,,,,,,,,,,,,,,,,,,,,,,,,,,,,,,,,,,,,,,,,,,,,,,,,,,,,,,,,
,,,,,,,,,,5fd5038ab78cf82f89c86bdc,20,Mężczyzna,2022-06-04_08h09.34.438,task,2021.1.4,Win32,60.0528465,628b806c463b948bc644b84f,629af6e7c430cf36bc415878,,,,,5,0,5,0,1,X V Q F H G B L J M P D K C T S W R N Z,,,,,,,,,,,,,,,,,,,,,,,,,,,,,,,,,,,,,,,,,,,,,,,,,,,,,,,,,,,,,,,,,,,,,,,,,,,,,,,,,,,,,,,,,,,,,
,,,,,,,,,,5fd5038ab78cf82f89c86bdc,20,Mężczyzna,2022-06-04_08h09.34.438,task,2021.1.4,Win32,60.0528465,628b806c463b948bc644b84f,629af6e7c430cf36bc415878,,,,,,,,,,,qdhfmu,"[""q"",""d"",""h"",""f"",""m"",""u""]","[0.8839999999999577,1.756199999809212,2.5669999999999504,3.2168999998569348,4.483799999952282,7.9672999999522744,9.217299999952274]",0,QDHFMW,10,0,10,0,1,,,,,,,,,,,,,,,,,,,,,,,,,,,,,,,,,,,,,,,,,,,,,,,,,,,,,,,,,,,,,,,,,,,,,,,,,,,,,,,,,,,
,,,,,,,,,,5fd5038ab78cf82f89c86bdc,20,Mężczyzna,2022-06-04_08h09.34.438,task,2021.1.4,Win32,60.0528465,628b806c463b948bc644b84f,629af6e7c430cf36bc415878,,,,,0,0,0,0,1,X V Q F H G B L J M P D K C T S W R N Z,,,,,,,,,,,,,,,,,,,,,,,,,,,,,,,,,,,,,,,,,,,,,,,,,,,,,,,,,,,,,,,,,,,,,,,,,,,,,,,,,,,,,,,,,,,,,
,,,,,,,,,,5fd5038ab78cf82f89c86bdc,20,Mężczyzna,2022-06-04_08h09.34.438,task,2021.1.4,Win32,60.0528465,628b806c463b948bc644b84f,629af6e7c430cf36bc415878,,,,,1,0,1,0,1,X V Q F H G B L J M P D K C T S W R N Z,,,,,,,,,,,,,,,,,,,,,,,,,,,,,,,,,,,,,,,,,,,,,,,,,,,,,,,,,,,,,,,,,,,,,,,,,,,,,,,,,,,,,,,,,,,,,
,,,,,,,,,,5fd5038ab78cf82f89c86bdc,20,Mężczyzna,2022-06-04_08h09.34.438,task,2021.1.4,Win32,60.0528465,628b806c463b948bc644b84f,629af6e7c430cf36bc415878,,,,,2,0,2,0,1,X V Q F H G B L J M P D K C T S W R N Z,,,,,,,,,,,,,,,,,,,,,,,,,,,,,,,,,,,,,,,,,,,,,,,,,,,,,,,,,,,,,,,,,,,,,,,,,,,,,,,,,,,,,,,,,,,,,
,,,,,,,,,,5fd5038ab78cf82f89c86bdc,20,Mężczyzna,2022-06-04_08h09.34.438,task,2021.1.4,Win32,60.0528465,628b806c463b948bc644b84f,629af6e7c430cf36bc415878,,,,,3,0,3,0,1,X V Q F H G B L J M P D K C T S W R N Z,,,,,,,,,,,,,,,,,,,,,,,,,,,,,,,,,,,,,,,,,,,,,,,,,,,,,,,,,,,,,,,,,,,,,,,,,,,,,,,,,,,,,,,,,,,,,
,,,,,,,,,,5fd5038ab78cf82f89c86bdc,20,Mężczyzna,2022-06-04_08h09.34.438,task,2021.1.4,Win32,60.0528465,628b806c463b948bc644b84f,629af6e7c430cf36bc415878,,,,,4,0,4,0,1,X V Q F H G B L J M P D K C T S W R N Z,,,,,,,,,,,,,,,,,,,,,,,,,,,,,,,,,,,,,,,,,,,,,,,,,,,,,,,,,,,,,,,,,,,,,,,,,,,,,,,,,,,,,,,,,,,,,
,,,,,,,,,,5fd5038ab78cf82f89c86bdc,20,Mężczyzna,2022-06-04_08h09.34.438,task,2021.1.4,Win32,60.0528465,628b806c463b948bc644b84f,629af6e7c430cf36bc415878,,,,,5,0,5,0,1,X V Q F H G B L J M P D K C T S W R N Z,,,,,,,,,,,,,,,,,,,,,,,,,,,,,,,,,,,,,,,,,,,,,,,,,,,,,,,,,,,,,,,,,,,,,,,,,,,,,,,,,,,,,,,,,,,,,
,,,,,,,,,,5fd5038ab78cf82f89c86bdc,20,Mężczyzna,2022-06-04_08h09.34.438,task,2021.1.4,Win32,60.0528465,628b806c463b948bc644b84f,629af6e7c430cf36bc415878,,,,,,,,,,,tzjsm,"[""t"",""z"",""j"",""s"",""m""]","[0.7945000000000277,1.9840000000000373,2.633900000095366,3.050599999904648,3.4700999999046758,4.0504999999999995]",0,TZJSDM,11,0,11,0,1,,,,,,,,,,,,,,,,,,,,,,,,,,,,,,,,,,,,,,,,,,,,,,,,,,,,,,,,,,,,,,,,,,,,,,,,,,,,,,,,,,,
,,,,,,,,,,5fd5038ab78cf82f89c86bdc,20,Mężczyzna,2022-06-04_08h09.34.438,task,2021.1.4,Win32,60.0528465,628b806c463b948bc644b84f,629af6e7c430cf36bc415878,,,,,,,,,,,,,,,,,,,,,space,7.625,2,"[""2""]",1,[7.946799999952361],[7.946799999952361],0,0,0,2,1,Practice,3,(4x4) - 14,2,,,,,,,,,,,,,,,,,,,,,,,,,,,,,,,,,,,,,,,,,,,,,,,,,,,,,,,,,,,,,,,,,,,
,,,,,,,,,,5fd5038ab78cf82f89c86bdc,20,Mężczyzna,2022-06-04_08h09.34.438,task,2021.1.4,Win32,60.0528465,628b806c463b948bc644b84f,629af6e7c430cf36bc415878,,,,,,,,,,,,,,,,,,,,,,,6,"[""6""]",1,[4.27009999990463],"[7.946799999952361,4.27009999990463]",0,1,1,6,1,Practice,7,(25/5) + 1,6,,,,,,,,,,,,,,,,,,,,,,,,,,,,,,,,,,,,,,,,,,,,,,,,,,,,,,,,,,,,,,,,,,,
,,,,,,,,,,5fd5038ab78cf82f89c86bdc,20,Mężczyzna,2022-06-04_08h09.34.438,task,2021.1.4,Win32,60.0528465,628b806c463b948bc644b84f,629af6e7c430cf36bc415878,,,,,,,,,,,,,,,,,,,,,,,4,"[""4""]",1,[8.26600000000002],"[7.946799999952361,4.27009999990463,8.26600000000002]",0,2,2,4,1,Practice,5,(2x6) - 8,4,,,,,,,,,,,,,,,,,,,,,,,,,,,,,,,,,,,,,,,,,,,,,,,,,,,,,,,,,,,,,,,,,,,
,,,,,,,,,,5fd5038ab78cf82f89c86bdc,20,Mężczyzna,2022-06-04_08h09.34.438,task,2021.1.4,Win32,60.0528465,628b806c463b948bc644b84f,629af6e7c430cf36bc415878,,,,,,,,,,,,,,,,,,,,,,,8,"[""8""]",1,[2.333699999809369],"[7.946799999952361,4.27009999990463,8.26600000000002,2.333699999809369]",0,3,3,8,1,Practice,9,(3x3) - 1,8,,,,,,,,,,,,,,,,,,,,,,,,,,,,,,,,,,,,,,,,,,,,,,,,,,,,,,,,,,,,,,,,,,,
,,,,,,,,,,5fd5038ab78cf82f89c86bdc,20,Mężczyzna,2022-06-04_08h09.34.438,task,2021.1.4,Win32,60.0528465,628b806c463b948bc644b84f,629af6e7c430cf36bc415878,,,,,,,,,,,,,,,,,,,,,,,0,"[""0""]",1,[3.3226000001430975],"[7.946799999952361,4.27009999990463,8.26600000000002,2.333699999809369,3.3226000001430975]",0,4,4,0,1,Practice,1,(3x3) -  9,0,,,,,,,,,,,,,,,,,,,,,,,,,,,,,,,,,,,,,,,,,,,,,,,,,,,,,,,,,,,,,,,,,,,
,,,,,,,,,,5fd5038ab78cf82f89c86bdc,20,Mężczyzna,2022-06-04_08h09.34.438,task,2021.1.4,Win32,60.0528465,628b806c463b948bc644b84f,629af6e7c430cf36bc415878,,,,,,,,,,,,,,,,,,,,,,,7,"[""7""]",1,[3.5157999999522644],"[7.946799999952361,4.27009999990463,8.26600000000002,2.333699999809369,3.3226000001430975,3.5157999999522644]",0,5,5,7,1,Practice,8,(5x5) - 18,7,,,,,,,,,,,,,,,,,,,,,,,,,,,,,,,,,,,,,,,,,,,,,,,,,,,,,,,,,,,,,,,,,,,
,,,,,,,,,,5fd5038ab78cf82f89c86bdc,20,Mężczyzna,2022-06-04_08h09.34.438,task,2021.1.4,Win32,60.0528465,628b806c463b948bc644b84f,629af6e7c430cf36bc415878,,,,,,,,,,,,,,,,,,,,,,,5,"[""5""]",1,[2.443599999904677],"[7.946799999952361,4.27009999990463,8.26600000000002,2.333699999809369,3.3226000001430975,3.5157999999522644,2.443599999904677]",0,6,6,5,1,Practice,6,(4/2) + 3,5,,,,,,,,,,,,,,,,,,,,,,,,,,,,,,,,,,,,,,,,,,,,,,,,,,,,,,,,,,,,,,,,,,,
,,,,,,,,,,5fd5038ab78cf82f89c86bdc,20,Mężczyzna,2022-06-04_08h09.34.438,task,2021.1.4,Win32,60.0528465,628b806c463b948bc644b84f,629af6e7c430cf36bc415878,,,,,,,,,,,,,,,,,,,,,,,1,"[""1""]",1,[2.11779999995224],"[7.946799999952361,4.27009999990463,8.26600000000002,2.333699999809369,3.3226000001430975,3.5157999999522644,2.443599999904677,2.11779999995224]",0,7,7,1,1,Practice,2,(4x4) - 15,1,,,,,,,,,,,,,,,,,,,,,,,,,,,,,,,,,,,,,,,,,,,,,,,,,,,,,,,,,,,,,,,,,,,
,,,,,,,,,,5fd5038ab78cf82f89c86bdc,20,Mężczyzna,2022-06-04_08h09.34.438,task,2021.1.4,Win32,60.0528465,628b806c463b948bc644b84f,629af6e7c430cf36bc415878,,,,,,,,,,,,,,,,,,,,,,,9,"[""9""]",1,[2.0340000000001055],"[7.946799999952361,4.27009999990463,8.26600000000002,2.333699999809369,3.3226000001430975,3.5157999999522644,2.443599999904677,2.11779999995224,2.0340000000001055]",0,8,8,9,1,Practice,10,(20/2) - 1,9,,,,,,,,,,,,,,,,,,,,,,,,,,,,,,,,,,,,,,,,,,,,,,,,,,,,,,,,,,,,,,,,,,,
,,,,,,,,,,5fd5038ab78cf82f89c86bdc,20,Mężczyzna,2022-06-04_08h09.34.438,task,2021.1.4,Win32,60.0528465,628b806c463b948bc644b84f,629af6e7c430cf36bc415878,,,,,,,,,,,,,,,,,,,,,,,3,"[""3""]",1,[2.2675999999046326],"[7.946799999952361,4.27009999990463,8.26600000000002,2.333699999809369,3.3226000001430975,3.5157999999522644,2.443599999904677,2.11779999995224,2.0340000000001055,2.2675999999046326]",0,9,9,3,1,Practice,4,(8/4) + 1,3,,,,,,,,,,,,,,,,,,,,,,,,,,,,,,,,,,,,,,,,,,,,,,,,,,,,,,,,,,,,,,,,,,,
,,,,,,,,,,5fd5038ab78cf82f89c86bdc,20,Mężczyzna,2022-06-04_08h09.34.438,task,2021.1.4,Win32,60.0528465,628b806c463b948bc644b84f,629af6e7c430cf36bc415878,,,,,,,,,,,,,,,,,,,,,,,,,,,,,,,,,,,,,1,38.518,2.567866667,66.41545554,2.104209361,7.996726819,space,1.1406,0,0,0,0,1,,,,,,,,,,,,,,,,,,,,,,,,,,,,,,,,,,,,,,,,,,,,,,,,,,,,,,
,,,,,,,,,,5fd5038ab78cf82f89c86bdc,20,Mężczyzna,2022-06-04_08h09.34.438,task,2021.1.4,Win32,60.0528465,628b806c463b948bc644b84f,629af6e7c430cf36bc415878,,,,,,,,,,,,,,,,,,,,,,,4,,,,,,,,,,Practice,5,(2x6) - 8,4,,,,,,,,,,,,,,space,13.5512,"[""4""]",1,[3.366799999952377],1,0,0,0,4,1,,,,,,,,,,,,,,,,,,,,,,,,,,,,,,,,,,,,,,,,,,,
,,,,,,,,,,5fd5038ab78cf82f89c86bdc,20,Mężczyzna,2022-06-04_08h09.34.438,task,2021.1.4,Win32,60.0528465,628b806c463b948bc644b84f,629af6e7c430cf36bc415878,,,,,,,,,,X V Q F H G B L J M P D K C T S W R N Z,,,,,,,,,,,,,,,,,,,,,,,,,,,,,,,,,,,,,,,,,,,,,,,,,,,0,0,0,0,1,,,,,,,,,,,,,,,,,,,,,,,,,,,,,,,,,,,,,,
,,,,,,,,,,5fd5038ab78cf82f89c86bdc,20,Mężczyzna,2022-06-04_08h09.34.438,task,2021.1.4,Win32,60.0528465,628b806c463b948bc644b84f,629af6e7c430cf36bc415878,,,,,,,,,,,,,,,,,,,,,,,5,,,,,,,,,,Practice,6,(4/2) + 3,5,,,,,,,,,,,,,,,,"[""5""]",1,[3.1323999998569434],1,0,0,0,5,1,,,,,,,,,,,,,,,,,,,,,,,,,,,,,,,,,,,,,,,,,,,
,,,,,,,,,,5fd5038ab78cf82f89c86bdc,20,Mężczyzna,2022-06-04_08h09.34.438,task,2021.1.4,Win32,60.0528465,628b806c463b948bc644b84f,629af6e7c430cf36bc415878,,,,,,,,,,X V Q F H G B L J M P D K C T S W R N Z,,,,,,,,,,,,,,,,,,,,,,,,,,,,,,,,,,,,,,,,,,,,,,,,,,,1,0,1,0,1,,,,,,,,,,,,,,,,,,,,,,,,,,,,,,,,,,,,,,
,,,,,,,,,,5fd5038ab78cf82f89c86bdc,20,Mężczyzna,2022-06-04_08h09.34.438,task,2021.1.4,Win32,60.0528465,628b806c463b948bc644b84f,629af6e7c430cf36bc415878,,,,,,,,,,,,,,,,,,,,,,,,,,,,,,,,,,,,,,,,,,,,,,,,,,,,,,,,,,,,,,,,,,zx,"[""z"",""x""]",0,"[1.7512000000476746,2.2432000000476364,2.9232000000477]",1,0,0,0,0,1,,,,,,,,,,,,,,,,,,,,,,,,,,,,
,,,,,,,,,,5fd5038ab78cf82f89c86bdc,20,Mężczyzna,2022-06-04_08h09.34.438,task,2021.1.4,Win32,60.0528465,628b806c463b948bc644b84f,629af6e7c430cf36bc415878,,,,,,,,,,,,,,,,,,,,,,,7,,,,,,,,,,Practice,8,(5x5) - 18,7,,,,,,,,,,,,,,,,"[""7""]",1,[2.355299999952308],1,0,0,0,7,1,,,,,,,,,,,,,,,,,,,,,,,,,,,,,,,,,,,,,,,,,,,
,,,,,,,,,,5fd5038ab78cf82f89c86bdc,20,Mężczyzna,2022-06-04_08h09.34.438,task,2021.1.4,Win32,60.0528465,628b806c463b948bc644b84f,629af6e7c430cf36bc415878,,,,,,,,,,X V Q F H G B L J M P D K C T S W R N Z,,,,,,,,,,,,,,,,,,,,,,,,,,,,,,,,,,,,,,,,,,,,,,,,,,,0,0,0,0,1,,,,,,,,,,,,,,,,,,,,,,,,,,,,,,,,,,,,,,
,,,,,,,,,,5fd5038ab78cf82f89c86bdc,20,Mężczyzna,2022-06-04_08h09.34.438,task,2021.1.4,Win32,60.0528465,628b806c463b948bc644b84f,629af6e7c430cf36bc415878,,,,,,,,,,,,,,,,,,,,,,,2,,,,,,,,,,Practice,3,(4x4) - 14,2,,,,,,,,,,,,,,,,"[""2""]",1,[4.991400000095382],1,0,0,0,2,1,,,,,,,,,,,,,,,,,,,,,,,,,,,,,,,,,,,,,,,,,,,
,,,,,,,,,,5fd5038ab78cf82f89c86bdc,20,Mężczyzna,2022-06-04_08h09.34.438,task,2021.1.4,Win32,60.0528465,628b806c463b948bc644b84f,629af6e7c430cf36bc415878,,,,,,,,,,X V Q F H G B L J M P D K C T S W R N Z,,,,,,,,,,,,,,,,,,,,,,,,,,,,,,,,,,,,,,,,,,,,,,,,,,,1,0,1,0,1,,,,,,,,,,,,,,,,,,,,,,,,,,,,,,,,,,,,,,
,,,,,,,,,,5fd5038ab78cf82f89c86bdc,20,Mężczyzna,2022-06-04_08h09.34.438,task,2021.1.4,Win32,60.0528465,628b806c463b948bc644b84f,629af6e7c430cf36bc415878,,,,,,,,,,,,,,,,,,,,,,,,,,,,,,,,,,,,,,,,,,,,,,,,,,,,,,,,,,,,,,,,,,zf,"[""z"",""f""]",0,"[1.4347000000477692,1.8340999999046517,2.288000000000011]",1,1,0,1,0,1,,,,,,,,,,,,,,,,,,,,,,,,,,,,
,,,,,,,,,,5fd5038ab78cf82f89c86bdc,20,Mężczyzna,2022-06-04_08h09.34.438,task,2021.1.4,Win32,60.0528465,628b806c463b948bc644b84f,629af6e7c430cf36bc415878,,,,,,,,,,,,,,,,,,,,,,,3,,,,,,,,,,Practice,4,(8/4) + 1,3,,,,,,,,,,,,,,,,"[""3""]",1,[3.3007999999523463],1,0,0,0,3,1,,,,,,,,,,,,,,,,,,,,,,,,,,,,,,,,,,,,,,,,,,,
,,,,,,,,,,5fd5038ab78cf82f89c86bdc,20,Mężczyzna,2022-06-04_08h09.34.438,task,2021.1.4,Win32,60.0528465,628b806c463b948bc644b84f,629af6e7c430cf36bc415878,,,,,,,,,,X V Q F H G B L J M P D K C T S W R N Z,,,,,,,,,,,,,,,,,,,,,,,,,,,,,,,,,,,,,,,,,,,,,,,,,,,0,0,0,0,1,,,,,,,,,,,,,,,,,,,,,,,,,,,,,,,,,,,,,,
,,,,,,,,,,5fd5038ab78cf82f89c86bdc,20,Mężczyzna,2022-06-04_08h09.34.438,task,2021.1.4,Win32,60.0528465,628b806c463b948bc644b84f,629af6e7c430cf36bc415878,,,,,,,,,,,,,,,,,,,,,,,9,,,,,,,,,,Practice,10,(20/2) - 1,9,,,,,,,,,,,,,,,,"[""9""]",1,[2.5067999999523636],1,0,0,0,9,1,,,,,,,,,,,,,,,,,,,,,,,,,,,,,,,,,,,,,,,,,,,
,,,,,,,,,,5fd5038ab78cf82f89c86bdc,20,Mężczyzna,2022-06-04_08h09.34.438,task,2021.1.4,Win32,60.0528465,628b806c463b948bc644b84f,629af6e7c430cf36bc415878,,,,,,,,,,X V Q F H G B L J M P D K C T S W R N Z,,,,,,,,,,,,,,,,,,,,,,,,,,,,,,,,,,,,,,,,,,,,,,,,,,,1,0,1,0,1,,,,,,,,,,,,,,,,,,,,,,,,,,,,,,,,,,,,,,
,,,,,,,,,,5fd5038ab78cf82f89c86bdc,20,Mężczyzna,2022-06-04_08h09.34.438,task,2021.1.4,Win32,60.0528465,628b806c463b948bc644b84f,629af6e7c430cf36bc415878,,,,,,,,,,,,,,,,,,,,,,,,,,,,,,,,,,,,,,,,,,,,,,,,,,,,,,,,,,,,,,,,,,xr,"[""x"",""r""]",0,"[1.8345000000000482,2.377900000095451,2.78520000004778]",1,2,0,2,0,1,,,,,,,,,,,,,,,,,,,,,,,,,,,,
,,,,,,,,,,5fd5038ab78cf82f89c86bdc,20,Mężczyzna,2022-06-04_08h09.34.438,task,2021.1.4,Win32,60.0528465,628b806c463b948bc644b84f,629af6e7c430cf36bc415878,,,,,,,,,,,,,,,,,,,,,,,8,,,,,,,,,,Task,23,(2x3) + 2,8,,,,,,,,,,,,,,,,,,,1,,,,,,,,,,,,,,,,,,,,,space,13.9767,"[""8""]",1,[3.597799999952258],0,0,0,22,1,,,,,,,,,,,,,,,,,,
,,,,,,,,,,5fd5038ab78cf82f89c86bdc,20,Mężczyzna,2022-06-04_08h09.34.438,task,2021.1.4,Win32,60.0528465,628b806c463b948bc644b84f,629af6e7c430cf36bc415878,,,,,,,,,,X V Q F H G B L J M P D K C T S W R N Z,,,,,,,,,,,,,,,,,,,,,,,,,,,,,,,,,,,,,,,,,,,,,,,,,,,,,,,,,,,,,,,,,,,,,,,,,,,,0,0,0,0,1,,,,,,,,,,,,,
,,,,,,,,,,5fd5038ab78cf82f89c86bdc,20,Mężczyzna,2022-06-04_08h09.34.438,task,2021.1.4,Win32,60.0528465,628b806c463b948bc644b84f,629af6e7c430cf36bc415878,,,,,,,,,,,,,,,,,,,,,,,2,,,,,,,,,,Task,26,(2x9) - 16,2,,,,,,,,,,,,,,,,,,,1,,,,,,,,,,,,,,,,,,,,,,,"[""2""]",1,[2.866399999856867],0,0,0,25,1,,,,,,,,,,,,,,,,,,
,,,,,,,,,,5fd5038ab78cf82f89c86bdc,20,Mężczyzna,2022-06-04_08h09.34.438,task,2021.1.4,Win32,60.0528465,628b806c463b948bc644b84f,629af6e7c430cf36bc415878,,,,,,,,,,X V Q F H G B L J M P D K C T S W R N Z,,,,,,,,,,,,,,,,,,,,,,,,,,,,,,,,,,,,,,,,,,,,,,,,,,,,,,,,,,,,,,,,,,,,,,,,,,,,1,0,1,0,1,,,,,,,,,,,,,
,,,,,,,,,,5fd5038ab78cf82f89c86bdc,20,Mężczyzna,2022-06-04_08h09.34.438,task,2021.1.4,Win32,60.0528465,628b806c463b948bc644b84f,629af6e7c430cf36bc415878,,,,,,,,,,,,,,,,,,,,,,,,,,,,,,,,,,,,,,,,,,,,,,,,,,,,,,,,,,,,,,,,,,,,,,,,,,,,,,,,,,,,,,,,,,,zn,"[""z"",""n""]",0,"[1.5733999998568606,1.7695999999045853,2.4347000000476555]",1,ZN,0,0,0,0,1,,
,,,,,,,,,,5fd5038ab78cf82f89c86bdc,20,Mężczyzna,2022-06-04_08h09.34.438,task,2021.1.4,Win32,60.0528465,628b806c463b948bc644b84f,629af6e7c430cf36bc415878,,,,,,,,,,,,,,,,,,,,,,,0,,,,,,,,,,Task,33,(1/1) - 1,0,,,,,,,,,,,,,,,,,,,1,,,,,,,,,,,,,,,,,,,,,,,"[""0""]",1,[3.4244000000953747],0,0,0,32,1,,,,,,,,,,,,,,,,,,
,,,,,,,,,,5fd5038ab78cf82f89c86bdc,20,Mężczyzna,2022-06-04_08h09.34.438,task,2021.1.4,Win32,60.0528465,628b806c463b948bc644b84f,629af6e7c430cf36bc415878,,,,,,,,,,X V Q F H G B L J M P D K C T S W R N Z,,,,,,,,,,,,,,,,,,,,,,,,,,,,,,,,,,,,,,,,,,,,,,,,,,,,,,,,,,,,,,,,,,,,,,,,,,,,0,0,0,0,1,,,,,,,,,,,,,
,,,,,,,,,,5fd5038ab78cf82f89c86bdc,20,Mężczyzna,2022-06-04_08h09.34.438,task,2021.1.4,Win32,60.0528465,628b806c463b948bc644b84f,629af6e7c430cf36bc415878,,,,,,,,,,,,,,,,,,,,,,,7,,,,,,,,,,Task,6,(12/2) + 1,7,,,,,,,,,,,,,,,,,,,1,,,,,,,,,,,,,,,,,,,,,,,"[""7""]",1,[3.671799999952327],0,0,0,5,1,,,,,,,,,,,,,,,,,,
,,,,,,,,,,5fd5038ab78cf82f89c86bdc,20,Mężczyzna,2022-06-04_08h09.34.438,task,2021.1.4,Win32,60.0528465,628b806c463b948bc644b84f,629af6e7c430cf36bc415878,,,,,,,,,,X V Q F H G B L J M P D K C T S W R N Z,,,,,,,,,,,,,,,,,,,,,,,,,,,,,,,,,,,,,,,,,,,,,,,,,,,,,,,,,,,,,,,,,,,,,,,,,,,,1,0,1,0,1,,,,,,,,,,,,,
,,,,,,,,,,5fd5038ab78cf82f89c86bdc,20,Mężczyzna,2022-06-04_08h09.34.438,task,2021.1.4,Win32,60.0528465,628b806c463b948bc644b84f,629af6e7c430cf36bc415878,,,,,,,,,,,,,,,,,,,,,,,4,,,,,,,,,,Task,28,(2x5) - 6,4,,,,,,,,,,,,,,,,,,,1,,,,,,,,,,,,,,,,,,,,,,,"[""4""]",1,[3.9056000001430675],0,0,0,27,1,,,,,,,,,,,,,,,,,,
,,,,,,,,,,5fd5038ab78cf82f89c86bdc,20,Mężczyzna,2022-06-04_08h09.34.438,task,2021.1.4,Win32,60.0528465,628b806c463b948bc644b84f,629af6e7c430cf36bc415878,,,,,,,,,,X V Q F H G B L J M P D K C T S W R N Z,,,,,,,,,,,,,,,,,,,,,,,,,,,,,,,,,,,,,,,,,,,,,,,,,,,,,,,,,,,,,,,,,,,,,,,,,,,,2,0,2,0,1,,,,,,,,,,,,,
,,,,,,,,,,5fd5038ab78cf82f89c86bdc,20,Mężczyzna,2022-06-04_08h09.34.438,task,2021.1.4,Win32,60.0528465,628b806c463b948bc644b84f,629af6e7c430cf36bc415878,,,,,,,,,,,,,,,,,,,,,,,,,,,,,,,,,,,,,,,,,,,,,,,,,,,,,,,,,,,,,,,,,,,,,,,,,,,,,,,,,,,,,,,,,,,xhn,"[""x"",""h"",""n""]",0,"[1.3899999999999864,1.817600000143102,2.183700000047679,2.6259000000953847]",1,XHN,1,0,1,0,1,,
,,,,,,,,,,5fd5038ab78cf82f89c86bdc,20,Mężczyzna,2022-06-04_08h09.34.438,task,2021.1.4,Win32,60.0528465,628b806c463b948bc644b84f,629af6e7c430cf36bc415878,,,,,,,,,,,,,,,,,,,,,,,1,,,,,,,,,,Task,34,(9/3) - 2,1,,,,,,,,,,,,,,,,,,,1,,,,,,,,,,,,,,,,,,,,,,,"[""1""]",1,[4.577600000142979],0,0,0,33,1,,,,,,,,,,,,,,,,,,
,,,,,,,,,,5fd5038ab78cf82f89c86bdc,20,Mężczyzna,2022-06-04_08h09.34.438,task,2021.1.4,Win32,60.0528465,628b806c463b948bc644b84f,629af6e7c430cf36bc415878,,,,,,,,,,X V Q F H G B L J M P D K C T S W R N Z,,,,,,,,,,,,,,,,,,,,,,,,,,,,,,,,,,,,,,,,,,,,,,,,,,,,,,,,,,,,,,,,,,,,,,,,,,,,0,0,0,0,1,,,,,,,,,,,,,
,,,,,,,,,,5fd5038ab78cf82f89c86bdc,20,Mężczyzna,2022-06-04_08h09.34.438,task,2021.1.4,Win32,60.0528465,628b806c463b948bc644b84f,629af6e7c430cf36bc415878,,,,,,,,,,,,,,,,,,,,,,,4,,,,,,,,,,Task,11,(18/3) - 2,4,,,,,,,,,,,,,,,,,,,1,,,,,,,,,,,,,,,,,,,,,,,"[""4""]",1,[5.4044999999999845],0,0,0,10,1,,,,,,,,,,,,,,,,,,
,,,,,,,,,,5fd5038ab78cf82f89c86bdc,20,Mężczyzna,2022-06-04_08h09.34.438,task,2021.1.4,Win32,60.0528465,628b806c463b948bc644b84f,629af6e7c430cf36bc415878,,,,,,,,,,X V Q F H G B L J M P D K C T S W R N Z,,,,,,,,,,,,,,,,,,,,,,,,,,,,,,,,,,,,,,,,,,,,,,,,,,,,,,,,,,,,,,,,,,,,,,,,,,,,1,0,1,0,1,,,,,,,,,,,,,
,,,,,,,,,,5fd5038ab78cf82f89c86bdc,20,Mężczyzna,2022-06-04_08h09.34.438,task,2021.1.4,Win32,60.0528465,628b806c463b948bc644b84f,629af6e7c430cf36bc415878,,,,,,,,,,,,,,,,,,,,,,,3,,,,,,,,,,Task,27,(3/3) + 2,3,,,,,,,,,,,,,,,,,,,1,,,,,,,,,,,,,,,,,,,,,,,"[""3""]",1,[2.702299999952288],0,0,0,26,1,,,,,,,,,,,,,,,,,,
,,,,,,,,,,5fd5038ab78cf82f89c86bdc,20,Mężczyzna,2022-06-04_08h09.34.438,task,2021.1.4,Win32,60.0528465,628b806c463b948bc644b84f,629af6e7c430cf36bc415878,,,,,,,,,,X V Q F H G B L J M P D K C T S W R N Z,,,,,,,,,,,,,,,,,,,,,,,,,,,,,,,,,,,,,,,,,,,,,,,,,,,,,,,,,,,,,,,,,,,,,,,,,,,,2,0,2,0,1,,,,,,,,,,,,,
,,,,,,,,,,5fd5038ab78cf82f89c86bdc,20,Mężczyzna,2022-06-04_08h09.34.438,task,2021.1.4,Win32,60.0528465,628b806c463b948bc644b84f,629af6e7c430cf36bc415878,,,,,,,,,,,,,,,,,,,,,,,2,,,,,,,,,,Task,10,(2x5) - 8,2,,,,,,,,,,,,,,,,,,,1,,,,,,,,,,,,,,,,,,,,,,,"[""2""]",1,[3.4842000000477356],0,0,0,9,1,,,,,,,,,,,,,,,,,,
,,,,,,,,,,5fd5038ab78cf82f89c86bdc,20,Mężczyzna,2022-06-04_08h09.34.438,task,2021.1.4,Win32,60.0528465,628b806c463b948bc644b84f,629af6e7c430cf36bc415878,,,,,,,,,,X V Q F H G B L J M P D K C T S W R N Z,,,,,,,,,,,,,,,,,,,,,,,,,,,,,,,,,,,,,,,,,,,,,,,,,,,,,,,,,,,,,,,,,,,,,,,,,,,,3,0,3,0,1,,,,,,,,,,,,,
,,,,,,,,,,5fd5038ab78cf82f89c86bdc,20,Mężczyzna,2022-06-04_08h09.34.438,task,2021.1.4,Win32,60.0528465,628b806c463b948bc644b84f,629af6e7c430cf36bc415878,,,,,,,,,,,,,,,,,,,,,,,,,,,,,,,,,,,,,,,,,,,,,,,,,,,,,,,,,,,,,,,,,,,,,,,,,,,,,,,,,,,,,,,,,,,czjl,"[""c"",""z"",""j"",""l""]",0,"[1.0884999999999536,1.4725999999045598,4.47259999990456,4.850299999952313,5.440599999904634]",1,CZJL,2,0,2,0,1,,
,,,,,,,,,,5fd5038ab78cf82f89c86bdc,20,Mężczyzna,2022-06-04_08h09.34.438,task,2021.1.4,Win32,60.0528465,628b806c463b948bc644b84f,629af6e7c430cf36bc415878,,,,,,,,,,,,,,,,,,,,,,,1,,,,,,,,,,Task,1,(12/6) - 1,1,,,,,,,,,,,,,,,,,,,1,,,,,,,,,,,,,,,,,,,,,,,"[""1""]",1,[5.875799999952278],0,0,0,0,1,,,,,,,,,,,,,,,,,,
,,,,,,,,,,5fd5038ab78cf82f89c86bdc,20,Mężczyzna,2022-06-04_08h09.34.438,task,2021.1.4,Win32,60.0528465,628b806c463b948bc644b84f,629af6e7c430cf36bc415878,,,,,,,,,,X V Q F H G B L J M P D K C T S W R N Z,,,,,,,,,,,,,,,,,,,,,,,,,,,,,,,,,,,,,,,,,,,,,,,,,,,,,,,,,,,,,,,,,,,,,,,,,,,,0,0,0,0,1,,,,,,,,,,,,,
,,,,,,,,,,5fd5038ab78cf82f89c86bdc,20,Mężczyzna,2022-06-04_08h09.34.438,task,2021.1.4,Win32,60.0528465,628b806c463b948bc644b84f,629af6e7c430cf36bc415878,,,,,,,,,,,,,,,,,,,,,,,3,,,,,,,,,,Task,3,(2x3) - 3,3,,,,,,,,,,,,,,,,,,,1,,,,,,,,,,,,,,,,,,,,,,,"[""3""]",1,[2.801099999904636],0,0,0,2,1,,,,,,,,,,,,,,,,,,
,,,,,,,,,,5fd5038ab78cf82f89c86bdc,20,Mężczyzna,2022-06-04_08h09.34.438,task,2021.1.4,Win32,60.0528465,628b806c463b948bc644b84f,629af6e7c430cf36bc415878,,,,,,,,,,X V Q F H G B L J M P D K C T S W R N Z,,,,,,,,,,,,,,,,,,,,,,,,,,,,,,,,,,,,,,,,,,,,,,,,,,,,,,,,,,,,,,,,,,,,,,,,,,,,1,0,1,0,1,,,,,,,,,,,,,
,,,,,,,,,,5fd5038ab78cf82f89c86bdc,20,Mężczyzna,2022-06-04_08h09.34.438,task,2021.1.4,Win32,60.0528465,628b806c463b948bc644b84f,629af6e7c430cf36bc415878,,,,,,,,,,,,,,,,,,,,,,,8,,,,,,,,,,Task,23,(2x3) + 2,8,,,,,,,,,,,,,,,,,,,1,,,,,,,,,,,,,,,,,,,,,,,"[""8""]",1,[5.307400000095413],0,0,0,22,1,,,,,,,,,,,,,,,,,,
,,,,,,,,,,5fd5038ab78cf82f89c86bdc,20,Mężczyzna,2022-06-04_08h09.34.438,task,2021.1.4,Win32,60.0528465,628b806c463b948bc644b84f,629af6e7c430cf36bc415878,,,,,,,,,,X V Q F H G B L J M P D K C T S W R N Z,,,,,,,,,,,,,,,,,,,,,,,,,,,,,,,,,,,,,,,,,,,,,,,,,,,,,,,,,,,,,,,,,,,,,,,,,,,,2,0,2,0,1,,,,,,,,,,,,,
,,,,,,,,,,5fd5038ab78cf82f89c86bdc,20,Mężczyzna,2022-06-04_08h09.34.438,task,2021.1.4,Win32,60.0528465,628b806c463b948bc644b84f,629af6e7c430cf36bc415878,,,,,,,,,,,,,,,,,,,,,,,9,,,,,,,,,,Task,16,(3x8) - 15,9,,,,,,,,,,,,,,,,,,,1,,,,,,,,,,,,,,,,,,,,,,,"[""9""]",1,[7.649299999952291],0,0,0,15,1,,,,,,,,,,,,,,,,,,
,,,,,,,,,,5fd5038ab78cf82f89c86bdc,20,Mężczyzna,2022-06-04_08h09.34.438,task,2021.1.4,Win32,60.0528465,628b806c463b948bc644b84f,629af6e7c430cf36bc415878,,,,,,,,,,X V Q F H G B L J M P D K C T S W R N Z,,,,,,,,,,,,,,,,,,,,,,,,,,,,,,,,,,,,,,,,,,,,,,,,,,,,,,,,,,,,,,,,,,,,,,,,,,,,3,0,3,0,1,,,,,,,,,,,,,
,,,,,,,,,,5fd5038ab78cf82f89c86bdc,20,Mężczyzna,2022-06-04_08h09.34.438,task,2021.1.4,Win32,60.0528465,628b806c463b948bc644b84f,629af6e7c430cf36bc415878,,,,,,,,,,,,,,,,,,,,,,,0,,,,,,,,,,Task,33,(1/1) - 1,0,,,,,,,,,,,,,,,,,,,1,,,,,,,,,,,,,,,,,,,,,,,"[""0""]",1,[3.0090000000000146],0,0,0,32,1,,,,,,,,,,,,,,,,,,
,,,,,,,,,,5fd5038ab78cf82f89c86bdc,20,Mężczyzna,2022-06-04_08h09.34.438,task,2021.1.4,Win32,60.0528465,628b806c463b948bc644b84f,629af6e7c430cf36bc415878,,,,,,,,,,X V Q F H G B L J M P D K C T S W R N Z,,,,,,,,,,,,,,,,,,,,,,,,,,,,,,,,,,,,,,,,,,,,,,,,,,,,,,,,,,,,,,,,,,,,,,,,,,,,4,0,4,0,1,,,,,,,,,,,,,
,,,,,,,,,,5fd5038ab78cf82f89c86bdc,20,Mężczyzna,2022-06-04_08h09.34.438,task,2021.1.4,Win32,60.0528465,628b806c463b948bc644b84f,629af6e7c430cf36bc415878,,,,,,,,,,,,,,,,,,,,,,,,,,,,,,,,,,,,,,,,,,,,,,,,,,,,,,,,,,,,,,,,,,,,,,,,,,,,,,,,,,,,,,,,,,,mgnqx,"[""m"",""g"",""n"",""q"",""x""]",0,"[0.983799999952339,1.5510999999046362,1.9511999998093188,2.2672999999523427,2.8531999998092488,3.5506999998093534]",1,MGNQX,3,0,3,0,1,,
,,,,,,,,,,5fd5038ab78cf82f89c86bdc,20,Mężczyzna,2022-06-04_08h09.34.438,task,2021.1.4,Win32,60.0528465,628b806c463b948bc644b84f,629af6e7c430cf36bc415878,,,,,,,,,,,,,,,,,,,,,,,8,,,,,,,,,,Task,39,(5x3) - 7,8,,,,,,,,,,,,,,,,,,,1,,,,,,,,,,,,,,,,,,,,,,,"[""8""]",1,[3.8152999999523445],0,0,0,38,1,,,,,,,,,,,,,,,,,,
,,,,,,,,,,5fd5038ab78cf82f89c86bdc,20,Mężczyzna,2022-06-04_08h09.34.438,task,2021.1.4,Win32,60.0528465,628b806c463b948bc644b84f,629af6e7c430cf36bc415878,,,,,,,,,,X V Q F H G B L J M P D K C T S W R N Z,,,,,,,,,,,,,,,,,,,,,,,,,,,,,,,,,,,,,,,,,,,,,,,,,,,,,,,,,,,,,,,,,,,,,,,,,,,,0,0,0,0,1,,,,,,,,,,,,,
,,,,,,,,,,5fd5038ab78cf82f89c86bdc,20,Mężczyzna,2022-06-04_08h09.34.438,task,2021.1.4,Win32,60.0528465,628b806c463b948bc644b84f,629af6e7c430cf36bc415878,,,,,,,,,,,,,,,,,,,,,,,1,,,,,,,,,,Task,18,(16/4) - 3,1,,,,,,,,,,,,,,,,,,,1,,,,,,,,,,,,,,,,,,,,,,,"[""1""]",1,[5.8722000000476555],0,0,0,17,1,,,,,,,,,,,,,,,,,,
,,,,,,,,,,5fd5038ab78cf82f89c86bdc,20,Mężczyzna,2022-06-04_08h09.34.438,task,2021.1.4,Win32,60.0528465,628b806c463b948bc644b84f,629af6e7c430cf36bc415878,,,,,,,,,,X V Q F H G B L J M P D K C T S W R N Z,,,,,,,,,,,,,,,,,,,,,,,,,,,,,,,,,,,,,,,,,,,,,,,,,,,,,,,,,,,,,,,,,,,,,,,,,,,,1,0,1,0,1,,,,,,,,,,,,,
,,,,,,,,,,5fd5038ab78cf82f89c86bdc,20,Mężczyzna,2022-06-04_08h09.34.438,task,2021.1.4,Win32,60.0528465,628b806c463b948bc644b84f,629af6e7c430cf36bc415878,,,,,,,,,,,,,,,,,,,,,,,0,,,,,,,,,,Task,8,(1x5) - 5,0,,,,,,,,,,,,,,,,,,,1,,,,,,,,,,,,,,,,,,,,,,,"[""0""]",1,[1.9987000000477337],0,0,0,7,1,,,,,,,,,,,,,,,,,,
,,,,,,,,,,5fd5038ab78cf82f89c86bdc,20,Mężczyzna,2022-06-04_08h09.34.438,task,2021.1.4,Win32,60.0528465,628b806c463b948bc644b84f,629af6e7c430cf36bc415878,,,,,,,,,,X V Q F H G B L J M P D K C T S W R N Z,,,,,,,,,,,,,,,,,,,,,,,,,,,,,,,,,,,,,,,,,,,,,,,,,,,,,,,,,,,,,,,,,,,,,,,,,,,,2,0,2,0,1,,,,,,,,,,,,,
,,,,,,,,,,5fd5038ab78cf82f89c86bdc,20,Mężczyzna,2022-06-04_08h09.34.438,task,2021.1.4,Win32,60.0528465,628b806c463b948bc644b84f,629af6e7c430cf36bc415878,,,,,,,,,,,,,,,,,,,,,,,8,,,,,,,,,,Task,39,(5x3) - 7,8,,,,,,,,,,,,,,,,,,,1,,,,,,,,,,,,,,,,,,,,,,,"[""8""]",1,[3.6504999999999654],0,0,0,38,1,,,,,,,,,,,,,,,,,,
,,,,,,,,,,5fd5038ab78cf82f89c86bdc,20,Mężczyzna,2022-06-04_08h09.34.438,task,2021.1.4,Win32,60.0528465,628b806c463b948bc644b84f,629af6e7c430cf36bc415878,,,,,,,,,,X V Q F H G B L J M P D K C T S W R N Z,,,,,,,,,,,,,,,,,,,,,,,,,,,,,,,,,,,,,,,,,,,,,,,,,,,,,,,,,,,,,,,,,,,,,,,,,,,,3,0,3,0,1,,,,,,,,,,,,,
,,,,,,,,,,5fd5038ab78cf82f89c86bdc,20,Mężczyzna,2022-06-04_08h09.34.438,task,2021.1.4,Win32,60.0528465,628b806c463b948bc644b84f,629af6e7c430cf36bc415878,,,,,,,,,,,,,,,,,,,,,,,3,,,,,,,,,,Task,35,(1x2) + 1,3,,,,,,,,,,,,,,,,,,,1,,,,,,,,,,,,,,,,,,,,,,,"[""3""]",1,[4.621599999904674],0,0,0,34,1,,,,,,,,,,,,,,,,,,
,,,,,,,,,,5fd5038ab78cf82f89c86bdc,20,Mężczyzna,2022-06-04_08h09.34.438,task,2021.1.4,Win32,60.0528465,628b806c463b948bc644b84f,629af6e7c430cf36bc415878,,,,,,,,,,X V Q F H G B L J M P D K C T S W R N Z,,,,,,,,,,,,,,,,,,,,,,,,,,,,,,,,,,,,,,,,,,,,,,,,,,,,,,,,,,,,,,,,,,,,,,,,,,,,4,0,4,0,1,,,,,,,,,,,,,
,,,,,,,,,,5fd5038ab78cf82f89c86bdc,20,Mężczyzna,2022-06-04_08h09.34.438,task,2021.1.4,Win32,60.0528465,628b806c463b948bc644b84f,629af6e7c430cf36bc415878,,,,,,,,,,,,,,,,,,,,,,,1,,,,,,,,,,Task,1,(12/6) - 1,1,,,,,,,,,,,,,,,,,,,1,,,,,,,,,,,,,,,,,,,,,,,"[""1""]",1,[5.6821999998092],0,0,0,0,1,,,,,,,,,,,,,,,,,,
,,,,,,,,,,5fd5038ab78cf82f89c86bdc,20,Mężczyzna,2022-06-04_08h09.34.438,task,2021.1.4,Win32,60.0528465,628b806c463b948bc644b84f,629af6e7c430cf36bc415878,,,,,,,,,,X V Q F H G B L J M P D K C T S W R N Z,,,,,,,,,,,,,,,,,,,,,,,,,,,,,,,,,,,,,,,,,,,,,,,,,,,,,,,,,,,,,,,,,,,,,,,,,,,,5,0,5,0,1,,,,,,,,,,,,,
,,,,,,,,,,5fd5038ab78cf82f89c86bdc,20,Mężczyzna,2022-06-04_08h09.34.438,task,2021.1.4,Win32,60.0528465,628b806c463b948bc644b84f,629af6e7c430cf36bc415878,,,,,,,,,,,,,,,,,,,,,,,,,,,,,,,,,,,,,,,,,,,,,,,,,,,,,,,,,,,,,,,,,,,,,,,,,,,,,,,,,,,,,,,,,,,ckgfsl,"[""c"",""k"",""g"",""f"",""s"",""l""]",0,"[1.550900000095453,2.0688000001907767,2.584500000000048,2.917600000143125,3.585100000143143,3.876900000095361,5.036900000095443]",1,CKGFSL,4,0,4,0,1,,
,,,,,,,,,,5fd5038ab78cf82f89c86bdc,20,Mężczyzna,2022-06-04_08h09.34.438,task,2021.1.4,Win32,60.0528465,628b806c463b948bc644b84f,629af6e7c430cf36bc415878,,,,,,,,,,,,,,,,,,,,,,,,,,,,,,,,,Task,18,(16/4) - 3,1,,,,,,,,,,,,,,,,,,,0,,,,,,,,,,,,,,,,,,,,,,,,0,,0,0,0,17,1,,,,,,,,,,,,,,,,,,
,,,,,,,,,,5fd5038ab78cf82f89c86bdc,20,Mężczyzna,2022-06-04_08h09.34.438,task,2021.1.4,Win32,60.0528465,628b806c463b948bc644b84f,629af6e7c430cf36bc415878,,,,,,,,,,,,,,,,,,,,,,,2,,,,,,,,,,Task,2,(2x2) - 2,2,,,,,,,,,,,,,,,,,,,1,,,,,,,,,,,,,,,,,,,,,,,"[""2""]",1,[2.9749000000953174],0,1,1,1,1,,,,,,,,,,,,,,,,,,
,,,,,,,,,,5fd5038ab78cf82f89c86bdc,20,Mężczyzna,2022-06-04_08h09.34.438,task,2021.1.4,Win32,60.0528465,628b806c463b948bc644b84f,629af6e7c430cf36bc415878,,,,,,,,,,X V Q F H G B L J M P D K C T S W R N Z,,,,,,,,,,,,,,,,,,,,,,,,,,,,,,,,,,,,,,,,,,,,,,,,,,,,,,,,,,,,,,,,,,,,,,,,,,,,0,0,0,0,1,,,,,,,,,,,,,
,,,,,,,,,,5fd5038ab78cf82f89c86bdc,20,Mężczyzna,2022-06-04_08h09.34.438,task,2021.1.4,Win32,60.0528465,628b806c463b948bc644b84f,629af6e7c430cf36bc415878,,,,,,,,,,,,,,,,,,,,,,,1,,,,,,,,,,Task,18,(16/4) - 3,1,,,,,,,,,,,,,,,,,,,1,,,,,,,,,,,,,,,,,,,,,,,"[""1""]",1,[3.4824000000953674],0,0,0,17,1,,,,,,,,,,,,,,,,,,
,,,,,,,,,,5fd5038ab78cf82f89c86bdc,20,Mężczyzna,2022-06-04_08h09.34.438,task,2021.1.4,Win32,60.0528465,628b806c463b948bc644b84f,629af6e7c430cf36bc415878,,,,,,,,,,X V Q F H G B L J M P D K C T S W R N Z,,,,,,,,,,,,,,,,,,,,,,,,,,,,,,,,,,,,,,,,,,,,,,,,,,,,,,,,,,,,,,,,,,,,,,,,,,,,1,0,1,0,1,,,,,,,,,,,,,
,,,,,,,,,,5fd5038ab78cf82f89c86bdc,20,Mężczyzna,2022-06-04_08h09.34.438,task,2021.1.4,Win32,60.0528465,628b806c463b948bc644b84f,629af6e7c430cf36bc415878,,,,,,,,,,,,,,,,,,,,,,,4,,,,,,,,,,Task,21,(10/2) - 1,4,,,,,,,,,,,,,,,,,,,1,,,,,,,,,,,,,,,,,,,,,,,"[""4""]",1,[2.3501000001430157],0,0,0,20,1,,,,,,,,,,,,,,,,,,
,,,,,,,,,,5fd5038ab78cf82f89c86bdc,20,Mężczyzna,2022-06-04_08h09.34.438,task,2021.1.4,Win32,60.0528465,628b806c463b948bc644b84f,629af6e7c430cf36bc415878,,,,,,,,,,X V Q F H G B L J M P D K C T S W R N Z,,,,,,,,,,,,,,,,,,,,,,,,,,,,,,,,,,,,,,,,,,,,,,,,,,,,,,,,,,,,,,,,,,,,,,,,,,,,2,0,2,0,1,,,,,,,,,,,,,
,,,,,,,,,,5fd5038ab78cf82f89c86bdc,20,Mężczyzna,2022-06-04_08h09.34.438,task,2021.1.4,Win32,60.0528465,628b806c463b948bc644b84f,629af6e7c430cf36bc415878,,,,,,,,,,,,,,,,,,,,,,,6,,,,,,,,,,Task,37,(3/3) + 5,6,,,,,,,,,,,,,,,,,,,1,,,,,,,,,,,,,,,,,,,,,,,"[""6""]",1,[2.9382999999523918],0,0,0,36,1,,,,,,,,,,,,,,,,,,
,,,,,,,,,,5fd5038ab78cf82f89c86bdc,20,Mężczyzna,2022-06-04_08h09.34.438,task,2021.1.4,Win32,60.0528465,628b806c463b948bc644b84f,629af6e7c430cf36bc415878,,,,,,,,,,X V Q F H G B L J M P D K C T S W R N Z,,,,,,,,,,,,,,,,,,,,,,,,,,,,,,,,,,,,,,,,,,,,,,,,,,,,,,,,,,,,,,,,,,,,,,,,,,,,3,0,3,0,1,,,,,,,,,,,,,
,,,,,,,,,,5fd5038ab78cf82f89c86bdc,20,Mężczyzna,2022-06-04_08h09.34.438,task,2021.1.4,Win32,60.0528465,628b806c463b948bc644b84f,629af6e7c430cf36bc415878,,,,,,,,,,,,,,,,,,,,,,,3,,,,,,,,,,Task,3,(2x3) - 3,3,,,,,,,,,,,,,,,,,,,1,,,,,,,,,,,,,,,,,,,,,,,"[""3""]",1,[1.9843000001907285],0,0,0,2,1,,,,,,,,,,,,,,,,,,
,,,,,,,,,,5fd5038ab78cf82f89c86bdc,20,Mężczyzna,2022-06-04_08h09.34.438,task,2021.1.4,Win32,60.0528465,628b806c463b948bc644b84f,629af6e7c430cf36bc415878,,,,,,,,,,X V Q F H G B L J M P D K C T S W R N Z,,,,,,,,,,,,,,,,,,,,,,,,,,,,,,,,,,,,,,,,,,,,,,,,,,,,,,,,,,,,,,,,,,,,,,,,,,,,4,0,4,0,1,,,,,,,,,,,,,
,,,,,,,,,,5fd5038ab78cf82f89c86bdc,20,Mężczyzna,2022-06-04_08h09.34.438,task,2021.1.4,Win32,60.0528465,628b806c463b948bc644b84f,629af6e7c430cf36bc415878,,,,,,,,,,,,,,,,,,,,,,,6,,,,,,,,,,Task,37,(3/3) + 5,6,,,,,,,,,,,,,,,,,,,1,,,,,,,,,,,,,,,,,,,,,,,"[""6""]",1,[6.116099999904577],0,0,0,36,1,,,,,,,,,,,,,,,,,,
,,,,,,,,,,5fd5038ab78cf82f89c86bdc,20,Mężczyzna,2022-06-04_08h09.34.438,task,2021.1.4,Win32,60.0528465,628b806c463b948bc644b84f,629af6e7c430cf36bc415878,,,,,,,,,,X V Q F H G B L J M P D K C T S W R N Z,,,,,,,,,,,,,,,,,,,,,,,,,,,,,,,,,,,,,,,,,,,,,,,,,,,,,,,,,,,,,,,,,,,,,,,,,,,,5,0,5,0,1,,,,,,,,,,,,,
,,,,,,,,,,5fd5038ab78cf82f89c86bdc,20,Mężczyzna,2022-06-04_08h09.34.438,task,2021.1.4,Win32,60.0528465,628b806c463b948bc644b84f,629af6e7c430cf36bc415878,,,,,,,,,,,,,,,,,,,,,,,1,,,,,,,,,,Task,18,(16/4) - 3,1,,,,,,,,,,,,,,,,,,,1,,,,,,,,,,,,,,,,,,,,,,,"[""1""]",1,[4.733299999952237],0,0,0,17,1,,,,,,,,,,,,,,,,,,
,,,,,,,,,,5fd5038ab78cf82f89c86bdc,20,Mężczyzna,2022-06-04_08h09.34.438,task,2021.1.4,Win32,60.0528465,628b806c463b948bc644b84f,629af6e7c430cf36bc415878,,,,,,,,,,X V Q F H G B L J M P D K C T S W R N Z,,,,,,,,,,,,,,,,,,,,,,,,,,,,,,,,,,,,,,,,,,,,,,,,,,,,,,,,,,,,,,,,,,,,,,,,,,,,6,0,6,0,1,,,,,,,,,,,,,
,,,,,,,,,,5fd5038ab78cf82f89c86bdc,20,Mężczyzna,2022-06-04_08h09.34.438,task,2021.1.4,Win32,60.0528465,628b806c463b948bc644b84f,629af6e7c430cf36bc415878,,,,,,,,,,,,,,,,,,,,,,,,,,,,,,,,,,,,,,,,,,,,,,,,,,,,,,,,,,,,,,,,,,,,,,,,,,,,,,,,,,,,,,,,,,,ngdglwq,"[""n"",""g"",""d"",""g"",""l"",""w"",""q""]",0,"[1.1533999998569016,1.6241999998093206,2.0121999998092406,2.5505000000000564,3.4006999998092624,3.8501999998093197,4.236499999999978,5.533999999999992]",0,NGDGLWJ,5,0,5,0,1,,
,,,,,,,,,,5fd5038ab78cf82f89c86bdc,20,Mężczyzna,2022-06-04_08h09.34.438,task,2021.1.4,Win32,60.0528465,628b806c463b948bc644b84f,629af6e7c430cf36bc415878,,,,,,,,,,,,,,,,,,,,,,,5,,,,,,,,,,Task,36,(8/4) + 3,5,,,,,,,,,,,,,,,,,,,1,,,,,,,,,,,,,,,,,,,,,,,"[""5""]",1,[4.099500000000035],0,0,0,35,1,,,,,,,,,,,,,,,,,,
,,,,,,,,,,5fd5038ab78cf82f89c86bdc,20,Mężczyzna,2022-06-04_08h09.34.438,task,2021.1.4,Win32,60.0528465,628b806c463b948bc644b84f,629af6e7c430cf36bc415878,,,,,,,,,,X V Q F H G B L J M P D K C T S W R N Z,,,,,,,,,,,,,,,,,,,,,,,,,,,,,,,,,,,,,,,,,,,,,,,,,,,,,,,,,,,,,,,,,,,,,,,,,,,,0,0,0,0,1,,,,,,,,,,,,,
,,,,,,,,,,5fd5038ab78cf82f89c86bdc,20,Mężczyzna,2022-06-04_08h09.34.438,task,2021.1.4,Win32,60.0528465,628b806c463b948bc644b84f,629af6e7c430cf36bc415878,,,,,,,,,,,,,,,,,,,,,,,0,,,,,,,,,,Task,17,(2x3) - 6,0,,,,,,,,,,,,,,,,,,,1,,,,,,,,,,,,,,,,,,,,,,,"[""0""]",1,[2.0535999999046908],0,0,0,16,1,,,,,,,,,,,,,,,,,,
,,,,,,,,,,5fd5038ab78cf82f89c86bdc,20,Mężczyzna,2022-06-04_08h09.34.438,task,2021.1.4,Win32,60.0528465,628b806c463b948bc644b84f,629af6e7c430cf36bc415878,,,,,,,,,,X V Q F H G B L J M P D K C T S W R N Z,,,,,,,,,,,,,,,,,,,,,,,,,,,,,,,,,,,,,,,,,,,,,,,,,,,,,,,,,,,,,,,,,,,,,,,,,,,,1,0,1,0,1,,,,,,,,,,,,,
,,,,,,,,,,5fd5038ab78cf82f89c86bdc,20,Mężczyzna,2022-06-04_08h09.34.438,task,2021.1.4,Win32,60.0528465,628b806c463b948bc644b84f,629af6e7c430cf36bc415878,,,,,,,,,,,,,,,,,,,,,,,5,,,,,,,,,,Task,12,(4x4) - 11,5,,,,,,,,,,,,,,,,,,,1,,,,,,,,,,,,,,,,,,,,,,,"[""5""]",1,[2.454399999856946],0,0,0,11,1,,,,,,,,,,,,,,,,,,
,,,,,,,,,,5fd5038ab78cf82f89c86bdc,20,Mężczyzna,2022-06-04_08h09.34.438,task,2021.1.4,Win32,60.0528465,628b806c463b948bc644b84f,629af6e7c430cf36bc415878,,,,,,,,,,X V Q F H G B L J M P D K C T S W R N Z,,,,,,,,,,,,,,,,,,,,,,,,,,,,,,,,,,,,,,,,,,,,,,,,,,,,,,,,,,,,,,,,,,,,,,,,,,,,2,0,2,0,1,,,,,,,,,,,,,
,,,,,,,,,,5fd5038ab78cf82f89c86bdc,20,Mężczyzna,2022-06-04_08h09.34.438,task,2021.1.4,Win32,60.0528465,628b806c463b948bc644b84f,629af6e7c430cf36bc415878,,,,,,,,,,,,,,,,,,,,,,,2,,,,,,,,,,Task,19,(6/2) - 1,2,,,,,,,,,,,,,,,,,,,1,,,,,,,,,,,,,,,,,,,,,,,"[""2""]",1,[2.4063999998569443],0,0,0,18,1,,,,,,,,,,,,,,,,,,
,,,,,,,,,,5fd5038ab78cf82f89c86bdc,20,Mężczyzna,2022-06-04_08h09.34.438,task,2021.1.4,Win32,60.0528465,628b806c463b948bc644b84f,629af6e7c430cf36bc415878,,,,,,,,,,X V Q F H G B L J M P D K C T S W R N Z,,,,,,,,,,,,,,,,,,,,,,,,,,,,,,,,,,,,,,,,,,,,,,,,,,,,,,,,,,,,,,,,,,,,,,,,,,,,3,0,3,0,1,,,,,,,,,,,,,
,,,,,,,,,,5fd5038ab78cf82f89c86bdc,20,Mężczyzna,2022-06-04_08h09.34.438,task,2021.1.4,Win32,60.0528465,628b806c463b948bc644b84f,629af6e7c430cf36bc415878,,,,,,,,,,,,,,,,,,,,,,,6,,,,,,,,,,Task,13,(3x4) - 6,6,,,,,,,,,,,,,,,,,,,1,,,,,,,,,,,,,,,,,,,,,,,"[""6""]",1,[5.183400000095389],0,0,0,12,1,,,,,,,,,,,,,,,,,,
,,,,,,,,,,5fd5038ab78cf82f89c86bdc,20,Mężczyzna,2022-06-04_08h09.34.438,task,2021.1.4,Win32,60.0528465,628b806c463b948bc644b84f,629af6e7c430cf36bc415878,,,,,,,,,,X V Q F H G B L J M P D K C T S W R N Z,,,,,,,,,,,,,,,,,,,,,,,,,,,,,,,,,,,,,,,,,,,,,,,,,,,,,,,,,,,,,,,,,,,,,,,,,,,,4,0,4,0,1,,,,,,,,,,,,,
,,,,,,,,,,5fd5038ab78cf82f89c86bdc,20,Mężczyzna,2022-06-04_08h09.34.438,task,2021.1.4,Win32,60.0528465,628b806c463b948bc644b84f,629af6e7c430cf36bc415878,,,,,,,,,,,,,,,,,,,,,,,9,,,,,,,,,,Task,15,(3x7) - 13,8,,,,,,,,,,,,,,,,,,,0,,,,,,,,,,,,,,,,,,,,,,,"[""9""]",0,[7.770999999999958],0,0,0,14,1,,,,,,,,,,,,,,,,,,
,,,,,,,,,,5fd5038ab78cf82f89c86bdc,20,Mężczyzna,2022-06-04_08h09.34.438,task,2021.1.4,Win32,60.0528465,628b806c463b948bc644b84f,629af6e7c430cf36bc415878,,,,,,,,,,,,,,,,,,,,,,,9,,,,,,,,,,Task,39,(5x3) - 7,8,,,,,,,,,,,,,,,,,,,0,,,,,,,,,,,,,,,,,,,,,,,"[""9""]",0,[3.1314000000953683],0,1,1,38,1,,,,,,,,,,,,,,,,,,
,,,,,,,,,,5fd5038ab78cf82f89c86bdc,20,Mężczyzna,2022-06-04_08h09.34.438,task,2021.1.4,Win32,60.0528465,628b806c463b948bc644b84f,629af6e7c430cf36bc415878,,,,,,,,,,,,,,,,,,,,,,,6,,,,,,,,,,Task,37,(3/3) + 5,6,,,,,,,,,,,,,,,,,,,1,,,,,,,,,,,,,,,,,,,,,,,"[""6""]",1,[3.1895000000000664],0,2,2,36,1,,,,,,,,,,,,,,,,,,
,,,,,,,,,,5fd5038ab78cf82f89c86bdc,20,Mężczyzna,2022-06-04_08h09.34.438,task,2021.1.4,Win32,60.0528465,628b806c463b948bc644b84f,629af6e7c430cf36bc415878,,,,,,,,,,X V Q F H G B L J M P D K C T S W R N Z,,,,,,,,,,,,,,,,,,,,,,,,,,,,,,,,,,,,,,,,,,,,,,,,,,,,,,,,,,,,,,,,,,,,,,,,,,,,5,0,5,0,1,,,,,,,,,,,,,
,,,,,,,,,,5fd5038ab78cf82f89c86bdc,20,Mężczyzna,2022-06-04_08h09.34.438,task,2021.1.4,Win32,60.0528465,628b806c463b948bc644b84f,629af6e7c430cf36bc415878,,,,,,,,,,,,,,,,,,,,,,,2,,,,,,,,,,Task,2,(2x2) - 2,2,,,,,,,,,,,,,,,,,,,1,,,,,,,,,,,,,,,,,,,,,,,"[""2""]",1,[3.2835000000000036],0,0,0,1,1,,,,,,,,,,,,,,,,,,
,,,,,,,,,,5fd5038ab78cf82f89c86bdc,20,Mężczyzna,2022-06-04_08h09.34.438,task,2021.1.4,Win32,60.0528465,628b806c463b948bc644b84f,629af6e7c430cf36bc415878,,,,,,,,,,X V Q F H G B L J M P D K C T S W R N Z,,,,,,,,,,,,,,,,,,,,,,,,,,,,,,,,,,,,,,,,,,,,,,,,,,,,,,,,,,,,,,,,,,,,,,,,,,,,6,0,6,0,1,,,,,,,,,,,,,
,,,,,,,,,,5fd5038ab78cf82f89c86bdc,20,Mężczyzna,2022-06-04_08h09.34.438,task,2021.1.4,Win32,60.0528465,628b806c463b948bc644b84f,629af6e7c430cf36bc415878,,,,,,,,,,,,,,,,,,,,,,,,,,,,,,,,,,,,,,,,,,,,,,,,,,,,,,,,,,,,,,,,,,,,,,,,,,,,,,,,,,,,,,,,,,,zscskl,"[""z"",""s"",""c"",""s"",""k"",""l""]",0,"[2.433700000047679,3.451000000000022,3.8172000000477055,4.440500000000043,7.6404999999999745,9.501299999952266,10.74460000014301]",0,ZSCSBKL,6,0,6,0,1,,
,,,,,,,,,,5fd5038ab78cf82f89c86bdc,20,Mężczyzna,2022-06-04_08h09.34.438,task,2021.1.4,Win32,60.0528465,628b806c463b948bc644b84f,629af6e7c430cf36bc415878,,,,,,,,,,,,,,,,,,,,,,,,,,,,,,,,,,,,,,,,,,,,,,,,,,,,,,,,,,,,,,,,,,,,,,,,,,,,,,,,,,,,,,,,,,,,,,,,,,,,,,space,1.6673
