key_resp_15.keys,key_resp_15.rt,key_resp_16.keys,key_resp_16.rt,key_resp_4.keys,key_resp_4.rt,next_letter.thisRepN,next_letter.thisTrialN,next_letter.thisN,next_letter.thisIndex,next_letter.ran,letter,participant,Wiek*,Płeć,date,expName,psychopyVersion,OS,frameRate,study_id,session,simple_recall,key_resp_5.keys,key_resp_5.rt,simple_recall_corr,simple_recall_corrkeys,next_level.thisRepN,next_level.thisTrialN,next_level.thisN,next_level.thisIndex,next_level.ran,key_resp_2.keys,key_resp_2.rt,digit_answer,key_resp.keys,key_resp.corr,key_resp.rt,RT_list,next_equation.thisRepN,next_equation.thisTrialN,next_equation.thisN,next_equation.thisIndex,next_equation.ran,Task,Trial,Problem,Operation_answer,processing_score,sumRT,meanRT,sumdiff,sd,RT,key_resp_3.keys,key_resp_3.rt,repeat_practice.thisRepN,repeat_practice.thisTrialN,repeat_practice.thisN,repeat_practice.thisIndex,repeat_practice.ran,key_resp_6.keys,key_resp_6.rt,key_resp_11.keys,key_resp_11.corr,key_resp_11.rt,operation_correct,repeat_if_wrong_prac.thisRepN,repeat_if_wrong_prac.thisTrialN,repeat_if_wrong_prac.thisN,repeat_if_wrong_prac.thisIndex,repeat_if_wrong_prac.ran,span_size_prac.thisRepN,span_size_prac.thisTrialN,span_size_prac.thisN,span_size_prac.thisIndex,span_size_prac.ran,complex_recall_practice,key_resp_9.keys,key_resp_9.corr,key_resp_9.rt,complex_prac_corr,span_recall_prac.thisRepN,span_recall_prac.thisTrialN,span_recall_prac.thisN,span_recall_prac.thisIndex,span_recall_prac.ran,key_resp_10.keys,key_resp_10.rt,key_resp_7.keys,key_resp_7.corr,key_resp_7.rt,repeat_if_wrong.thisRepN,repeat_if_wrong.thisTrialN,repeat_if_wrong.thisN,repeat_if_wrong.thisIndex,repeat_if_wrong.ran,span_size.thisRepN,span_size.thisTrialN,span_size.thisN,span_size.thisIndex,span_size.ran,complex_recall,key_resp_8.keys,key_resp_8.corr,key_resp_8.rt,complex_recall_corr,complex_recall_corrkeys,span_recall.thisRepN,span_recall.thisTrialN,span_recall.thisN,span_recall.thisIndex,span_recall.ran,key_resp_13.keys,key_resp_13.corr,random_loop.thisRepN,random_loop.thisTrialN,random_loop.thisN,random_loop.thisIndex,random_loop.ran,key_resp_13.rt,key_resp_12.keys,key_resp_12.rt
space,7.5297,space,14.2511,space,6.9375,0,0,0,0,1,X V Q F H G B L J M P D K C T S W R N Z,5fda7563b679f24c4d4e3ef6,23,Mężczyzna,2022-06-11_09h25.25.227,task,2021.1.4,Win32,59.84082341,6299f149e92ead563fba08ef,62a4435a673a6953c9f8e356,,,,,,,,,,,,,,,,,,,,,,,,,,,,,,,,,,,,,,,,,,,,,,,,,,,,,,,,,,,,,,,,,,,,,,,,,,,,,,,,,,,,,,,,,,,,,,,,,,,,,
,,,,,,1,0,1,0,1,X V Q F H G B L J M P D K C T S W R N Z,5fda7563b679f24c4d4e3ef6,23,Mężczyzna,2022-06-11_09h25.25.227,task,2021.1.4,Win32,59.84082341,6299f149e92ead563fba08ef,62a4435a673a6953c9f8e356,,,,,,,,,,,,,,,,,,,,,,,,,,,,,,,,,,,,,,,,,,,,,,,,,,,,,,,,,,,,,,,,,,,,,,,,,,,,,,,,,,,,,,,,,,,,,,,,,,,,,
,,,,,,,,,,,,5fda7563b679f24c4d4e3ef6,23,Mężczyzna,2022-06-11_09h25.25.227,task,2021.1.4,Win32,59.84082341,6299f149e92ead563fba08ef,62a4435a673a6953c9f8e356,zr,"[""z"",""r""]","[3.2929999999999993,3.5578999999999965,5.34170000000001]",1,ZR,0,0,0,0,1,,,,,,,,,,,,,,,,,,,,,,,,,,,,,,,,,,,,,,,,,,,,,,,,,,,,,,,,,,,,,,,,,,,,,,,,,,,,,,,,,,,,,,,,,,,
,,,,,,0,0,0,0,1,X V Q F H G B L J M P D K C T S W R N Z,5fda7563b679f24c4d4e3ef6,23,Mężczyzna,2022-06-11_09h25.25.227,task,2021.1.4,Win32,59.84082341,6299f149e92ead563fba08ef,62a4435a673a6953c9f8e356,,,,,,,,,,,,,,,,,,,,,,,,,,,,,,,,,,,,,,,,,,,,,,,,,,,,,,,,,,,,,,,,,,,,,,,,,,,,,,,,,,,,,,,,,,,,,,,,,,,,,
,,,,,,1,0,1,0,1,X V Q F H G B L J M P D K C T S W R N Z,5fda7563b679f24c4d4e3ef6,23,Mężczyzna,2022-06-11_09h25.25.227,task,2021.1.4,Win32,59.84082341,6299f149e92ead563fba08ef,62a4435a673a6953c9f8e356,,,,,,,,,,,,,,,,,,,,,,,,,,,,,,,,,,,,,,,,,,,,,,,,,,,,,,,,,,,,,,,,,,,,,,,,,,,,,,,,,,,,,,,,,,,,,,,,,,,,,
,,,,,,,,,,,,5fda7563b679f24c4d4e3ef6,23,Mężczyzna,2022-06-11_09h25.25.227,task,2021.1.4,Win32,59.84082341,6299f149e92ead563fba08ef,62a4435a673a6953c9f8e356,fk,"[""f"",""k""]","[0.8682000000000087,0.9834000000000245,1.399000000000001]",1,FK,1,0,1,0,1,,,,,,,,,,,,,,,,,,,,,,,,,,,,,,,,,,,,,,,,,,,,,,,,,,,,,,,,,,,,,,,,,,,,,,,,,,,,,,,,,,,,,,,,,,,
,,,,,,0,0,0,0,1,X V Q F H G B L J M P D K C T S W R N Z,5fda7563b679f24c4d4e3ef6,23,Mężczyzna,2022-06-11_09h25.25.227,task,2021.1.4,Win32,59.84082341,6299f149e92ead563fba08ef,62a4435a673a6953c9f8e356,,,,,,,,,,,,,,,,,,,,,,,,,,,,,,,,,,,,,,,,,,,,,,,,,,,,,,,,,,,,,,,,,,,,,,,,,,,,,,,,,,,,,,,,,,,,,,,,,,,,,
,,,,,,1,0,1,0,1,X V Q F H G B L J M P D K C T S W R N Z,5fda7563b679f24c4d4e3ef6,23,Mężczyzna,2022-06-11_09h25.25.227,task,2021.1.4,Win32,59.84082341,6299f149e92ead563fba08ef,62a4435a673a6953c9f8e356,,,,,,,,,,,,,,,,,,,,,,,,,,,,,,,,,,,,,,,,,,,,,,,,,,,,,,,,,,,,,,,,,,,,,,,,,,,,,,,,,,,,,,,,,,,,,,,,,,,,,
,,,,,,2,0,2,0,1,X V Q F H G B L J M P D K C T S W R N Z,5fda7563b679f24c4d4e3ef6,23,Mężczyzna,2022-06-11_09h25.25.227,task,2021.1.4,Win32,59.84082341,6299f149e92ead563fba08ef,62a4435a673a6953c9f8e356,,,,,,,,,,,,,,,,,,,,,,,,,,,,,,,,,,,,,,,,,,,,,,,,,,,,,,,,,,,,,,,,,,,,,,,,,,,,,,,,,,,,,,,,,,,,,,,,,,,,,
,,,,,,,,,,,,5fda7563b679f24c4d4e3ef6,23,Mężczyzna,2022-06-11_09h25.25.227,task,2021.1.4,Win32,59.84082341,6299f149e92ead563fba08ef,62a4435a673a6953c9f8e356,bnt,"[""b"",""n"",""t""]","[1.0872999999999848,1.2402999999999835,1.4852000000000132,1.9264999999999972]",1,BNT,2,0,2,0,1,,,,,,,,,,,,,,,,,,,,,,,,,,,,,,,,,,,,,,,,,,,,,,,,,,,,,,,,,,,,,,,,,,,,,,,,,,,,,,,,,,,,,,,,,,,
,,,,,,0,0,0,0,1,X V Q F H G B L J M P D K C T S W R N Z,5fda7563b679f24c4d4e3ef6,23,Mężczyzna,2022-06-11_09h25.25.227,task,2021.1.4,Win32,59.84082341,6299f149e92ead563fba08ef,62a4435a673a6953c9f8e356,,,,,,,,,,,,,,,,,,,,,,,,,,,,,,,,,,,,,,,,,,,,,,,,,,,,,,,,,,,,,,,,,,,,,,,,,,,,,,,,,,,,,,,,,,,,,,,,,,,,,
,,,,,,1,0,1,0,1,X V Q F H G B L J M P D K C T S W R N Z,5fda7563b679f24c4d4e3ef6,23,Mężczyzna,2022-06-11_09h25.25.227,task,2021.1.4,Win32,59.84082341,6299f149e92ead563fba08ef,62a4435a673a6953c9f8e356,,,,,,,,,,,,,,,,,,,,,,,,,,,,,,,,,,,,,,,,,,,,,,,,,,,,,,,,,,,,,,,,,,,,,,,,,,,,,,,,,,,,,,,,,,,,,,,,,,,,,
,,,,,,2,0,2,0,1,X V Q F H G B L J M P D K C T S W R N Z,5fda7563b679f24c4d4e3ef6,23,Mężczyzna,2022-06-11_09h25.25.227,task,2021.1.4,Win32,59.84082341,6299f149e92ead563fba08ef,62a4435a673a6953c9f8e356,,,,,,,,,,,,,,,,,,,,,,,,,,,,,,,,,,,,,,,,,,,,,,,,,,,,,,,,,,,,,,,,,,,,,,,,,,,,,,,,,,,,,,,,,,,,,,,,,,,,,
,,,,,,,,,,,,5fda7563b679f24c4d4e3ef6,23,Mężczyzna,2022-06-11_09h25.25.227,task,2021.1.4,Win32,59.84082341,6299f149e92ead563fba08ef,62a4435a673a6953c9f8e356,jhz,"[""j"",""h"",""z""]","[1.407500000000013,1.586500000000001,1.8107000000000113,2.066500000000005]",1,JHZ,3,0,3,0,1,,,,,,,,,,,,,,,,,,,,,,,,,,,,,,,,,,,,,,,,,,,,,,,,,,,,,,,,,,,,,,,,,,,,,,,,,,,,,,,,,,,,,,,,,,,
,,,,,,0,0,0,0,1,X V Q F H G B L J M P D K C T S W R N Z,5fda7563b679f24c4d4e3ef6,23,Mężczyzna,2022-06-11_09h25.25.227,task,2021.1.4,Win32,59.84082341,6299f149e92ead563fba08ef,62a4435a673a6953c9f8e356,,,,,,,,,,,,,,,,,,,,,,,,,,,,,,,,,,,,,,,,,,,,,,,,,,,,,,,,,,,,,,,,,,,,,,,,,,,,,,,,,,,,,,,,,,,,,,,,,,,,,
,,,,,,1,0,1,0,1,X V Q F H G B L J M P D K C T S W R N Z,5fda7563b679f24c4d4e3ef6,23,Mężczyzna,2022-06-11_09h25.25.227,task,2021.1.4,Win32,59.84082341,6299f149e92ead563fba08ef,62a4435a673a6953c9f8e356,,,,,,,,,,,,,,,,,,,,,,,,,,,,,,,,,,,,,,,,,,,,,,,,,,,,,,,,,,,,,,,,,,,,,,,,,,,,,,,,,,,,,,,,,,,,,,,,,,,,,
,,,,,,2,0,2,0,1,X V Q F H G B L J M P D K C T S W R N Z,5fda7563b679f24c4d4e3ef6,23,Mężczyzna,2022-06-11_09h25.25.227,task,2021.1.4,Win32,59.84082341,6299f149e92ead563fba08ef,62a4435a673a6953c9f8e356,,,,,,,,,,,,,,,,,,,,,,,,,,,,,,,,,,,,,,,,,,,,,,,,,,,,,,,,,,,,,,,,,,,,,,,,,,,,,,,,,,,,,,,,,,,,,,,,,,,,,
,,,,,,3,0,3,0,1,X V Q F H G B L J M P D K C T S W R N Z,5fda7563b679f24c4d4e3ef6,23,Mężczyzna,2022-06-11_09h25.25.227,task,2021.1.4,Win32,59.84082341,6299f149e92ead563fba08ef,62a4435a673a6953c9f8e356,,,,,,,,,,,,,,,,,,,,,,,,,,,,,,,,,,,,,,,,,,,,,,,,,,,,,,,,,,,,,,,,,,,,,,,,,,,,,,,,,,,,,,,,,,,,,,,,,,,,,
,,,,,,,,,,,,5fda7563b679f24c4d4e3ef6,23,Mężczyzna,2022-06-11_09h25.25.227,task,2021.1.4,Win32,59.84082341,6299f149e92ead563fba08ef,62a4435a673a6953c9f8e356,dvdx,"[""d"",""v"",""d"",""x""]","[0.5158000000000129,0.7529000000000252,0.9767000000000081,1.5549999999999926,1.7334000000000174]",1,DVDX,4,0,4,0,1,,,,,,,,,,,,,,,,,,,,,,,,,,,,,,,,,,,,,,,,,,,,,,,,,,,,,,,,,,,,,,,,,,,,,,,,,,,,,,,,,,,,,,,,,,,
,,,,,,0,0,0,0,1,X V Q F H G B L J M P D K C T S W R N Z,5fda7563b679f24c4d4e3ef6,23,Mężczyzna,2022-06-11_09h25.25.227,task,2021.1.4,Win32,59.84082341,6299f149e92ead563fba08ef,62a4435a673a6953c9f8e356,,,,,,,,,,,,,,,,,,,,,,,,,,,,,,,,,,,,,,,,,,,,,,,,,,,,,,,,,,,,,,,,,,,,,,,,,,,,,,,,,,,,,,,,,,,,,,,,,,,,,
,,,,,,1,0,1,0,1,X V Q F H G B L J M P D K C T S W R N Z,5fda7563b679f24c4d4e3ef6,23,Mężczyzna,2022-06-11_09h25.25.227,task,2021.1.4,Win32,59.84082341,6299f149e92ead563fba08ef,62a4435a673a6953c9f8e356,,,,,,,,,,,,,,,,,,,,,,,,,,,,,,,,,,,,,,,,,,,,,,,,,,,,,,,,,,,,,,,,,,,,,,,,,,,,,,,,,,,,,,,,,,,,,,,,,,,,,
,,,,,,2,0,2,0,1,X V Q F H G B L J M P D K C T S W R N Z,5fda7563b679f24c4d4e3ef6,23,Mężczyzna,2022-06-11_09h25.25.227,task,2021.1.4,Win32,59.84082341,6299f149e92ead563fba08ef,62a4435a673a6953c9f8e356,,,,,,,,,,,,,,,,,,,,,,,,,,,,,,,,,,,,,,,,,,,,,,,,,,,,,,,,,,,,,,,,,,,,,,,,,,,,,,,,,,,,,,,,,,,,,,,,,,,,,
,,,,,,3,0,3,0,1,X V Q F H G B L J M P D K C T S W R N Z,5fda7563b679f24c4d4e3ef6,23,Mężczyzna,2022-06-11_09h25.25.227,task,2021.1.4,Win32,59.84082341,6299f149e92ead563fba08ef,62a4435a673a6953c9f8e356,,,,,,,,,,,,,,,,,,,,,,,,,,,,,,,,,,,,,,,,,,,,,,,,,,,,,,,,,,,,,,,,,,,,,,,,,,,,,,,,,,,,,,,,,,,,,,,,,,,,,
,,,,,,,,,,,,5fda7563b679f24c4d4e3ef6,23,Mężczyzna,2022-06-11_09h25.25.227,task,2021.1.4,Win32,59.84082341,6299f149e92ead563fba08ef,62a4435a673a6953c9f8e356,cknh,"[""c"",""k"",""n"",""h""]","[1.2102999999999895,1.5050000000000097,1.6995000000000005,1.82350000000001,2.4484000000000066]",1,CKNH,5,0,5,0,1,,,,,,,,,,,,,,,,,,,,,,,,,,,,,,,,,,,,,,,,,,,,,,,,,,,,,,,,,,,,,,,,,,,,,,,,,,,,,,,,,,,,,,,,,,,
,,,,,,0,0,0,0,1,X V Q F H G B L J M P D K C T S W R N Z,5fda7563b679f24c4d4e3ef6,23,Mężczyzna,2022-06-11_09h25.25.227,task,2021.1.4,Win32,59.84082341,6299f149e92ead563fba08ef,62a4435a673a6953c9f8e356,,,,,,,,,,,,,,,,,,,,,,,,,,,,,,,,,,,,,,,,,,,,,,,,,,,,,,,,,,,,,,,,,,,,,,,,,,,,,,,,,,,,,,,,,,,,,,,,,,,,,
,,,,,,1,0,1,0,1,X V Q F H G B L J M P D K C T S W R N Z,5fda7563b679f24c4d4e3ef6,23,Mężczyzna,2022-06-11_09h25.25.227,task,2021.1.4,Win32,59.84082341,6299f149e92ead563fba08ef,62a4435a673a6953c9f8e356,,,,,,,,,,,,,,,,,,,,,,,,,,,,,,,,,,,,,,,,,,,,,,,,,,,,,,,,,,,,,,,,,,,,,,,,,,,,,,,,,,,,,,,,,,,,,,,,,,,,,
,,,,,,2,0,2,0,1,X V Q F H G B L J M P D K C T S W R N Z,5fda7563b679f24c4d4e3ef6,23,Mężczyzna,2022-06-11_09h25.25.227,task,2021.1.4,Win32,59.84082341,6299f149e92ead563fba08ef,62a4435a673a6953c9f8e356,,,,,,,,,,,,,,,,,,,,,,,,,,,,,,,,,,,,,,,,,,,,,,,,,,,,,,,,,,,,,,,,,,,,,,,,,,,,,,,,,,,,,,,,,,,,,,,,,,,,,
,,,,,,3,0,3,0,1,X V Q F H G B L J M P D K C T S W R N Z,5fda7563b679f24c4d4e3ef6,23,Mężczyzna,2022-06-11_09h25.25.227,task,2021.1.4,Win32,59.84082341,6299f149e92ead563fba08ef,62a4435a673a6953c9f8e356,,,,,,,,,,,,,,,,,,,,,,,,,,,,,,,,,,,,,,,,,,,,,,,,,,,,,,,,,,,,,,,,,,,,,,,,,,,,,,,,,,,,,,,,,,,,,,,,,,,,,
,,,,,,4,0,4,0,1,X V Q F H G B L J M P D K C T S W R N Z,5fda7563b679f24c4d4e3ef6,23,Mężczyzna,2022-06-11_09h25.25.227,task,2021.1.4,Win32,59.84082341,6299f149e92ead563fba08ef,62a4435a673a6953c9f8e356,,,,,,,,,,,,,,,,,,,,,,,,,,,,,,,,,,,,,,,,,,,,,,,,,,,,,,,,,,,,,,,,,,,,,,,,,,,,,,,,,,,,,,,,,,,,,,,,,,,,,
,,,,,,,,,,,,5fda7563b679f24c4d4e3ef6,23,Mężczyzna,2022-06-11_09h25.25.227,task,2021.1.4,Win32,59.84082341,6299f149e92ead563fba08ef,62a4435a673a6953c9f8e356,tkrmc,"[""t"",""k"",""r"",""m"",""c""]","[0.5998000000000161,0.8602000000000061,1.3428000000000253,1.6286000000000058,2.018900000000002,2.299800000000019]",1,TKRMC,6,0,6,0,1,,,,,,,,,,,,,,,,,,,,,,,,,,,,,,,,,,,,,,,,,,,,,,,,,,,,,,,,,,,,,,,,,,,,,,,,,,,,,,,,,,,,,,,,,,,
,,,,,,0,0,0,0,1,X V Q F H G B L J M P D K C T S W R N Z,5fda7563b679f24c4d4e3ef6,23,Mężczyzna,2022-06-11_09h25.25.227,task,2021.1.4,Win32,59.84082341,6299f149e92ead563fba08ef,62a4435a673a6953c9f8e356,,,,,,,,,,,,,,,,,,,,,,,,,,,,,,,,,,,,,,,,,,,,,,,,,,,,,,,,,,,,,,,,,,,,,,,,,,,,,,,,,,,,,,,,,,,,,,,,,,,,,
,,,,,,1,0,1,0,1,X V Q F H G B L J M P D K C T S W R N Z,5fda7563b679f24c4d4e3ef6,23,Mężczyzna,2022-06-11_09h25.25.227,task,2021.1.4,Win32,59.84082341,6299f149e92ead563fba08ef,62a4435a673a6953c9f8e356,,,,,,,,,,,,,,,,,,,,,,,,,,,,,,,,,,,,,,,,,,,,,,,,,,,,,,,,,,,,,,,,,,,,,,,,,,,,,,,,,,,,,,,,,,,,,,,,,,,,,
,,,,,,2,0,2,0,1,X V Q F H G B L J M P D K C T S W R N Z,5fda7563b679f24c4d4e3ef6,23,Mężczyzna,2022-06-11_09h25.25.227,task,2021.1.4,Win32,59.84082341,6299f149e92ead563fba08ef,62a4435a673a6953c9f8e356,,,,,,,,,,,,,,,,,,,,,,,,,,,,,,,,,,,,,,,,,,,,,,,,,,,,,,,,,,,,,,,,,,,,,,,,,,,,,,,,,,,,,,,,,,,,,,,,,,,,,
,,,,,,3,0,3,0,1,X V Q F H G B L J M P D K C T S W R N Z,5fda7563b679f24c4d4e3ef6,23,Mężczyzna,2022-06-11_09h25.25.227,task,2021.1.4,Win32,59.84082341,6299f149e92ead563fba08ef,62a4435a673a6953c9f8e356,,,,,,,,,,,,,,,,,,,,,,,,,,,,,,,,,,,,,,,,,,,,,,,,,,,,,,,,,,,,,,,,,,,,,,,,,,,,,,,,,,,,,,,,,,,,,,,,,,,,,
,,,,,,4,0,4,0,1,X V Q F H G B L J M P D K C T S W R N Z,5fda7563b679f24c4d4e3ef6,23,Mężczyzna,2022-06-11_09h25.25.227,task,2021.1.4,Win32,59.84082341,6299f149e92ead563fba08ef,62a4435a673a6953c9f8e356,,,,,,,,,,,,,,,,,,,,,,,,,,,,,,,,,,,,,,,,,,,,,,,,,,,,,,,,,,,,,,,,,,,,,,,,,,,,,,,,,,,,,,,,,,,,,,,,,,,,,
,,,,,,,,,,,,5fda7563b679f24c4d4e3ef6,23,Mężczyzna,2022-06-11_09h25.25.227,task,2021.1.4,Win32,59.84082341,6299f149e92ead563fba08ef,62a4435a673a6953c9f8e356,vtnmm,"[""v"",""t"",""n"",""m"",""m""]","[3.385799999999989,3.5831000000000017,3.775299999999987,4.127399999999994,4.507999999999996,5.015999999999991]",0,VNTMM,7,0,7,0,1,,,,,,,,,,,,,,,,,,,,,,,,,,,,,,,,,,,,,,,,,,,,,,,,,,,,,,,,,,,,,,,,,,,,,,,,,,,,,,,,,,,,,,,,,,,
,,,,,,0,0,0,0,1,X V Q F H G B L J M P D K C T S W R N Z,5fda7563b679f24c4d4e3ef6,23,Mężczyzna,2022-06-11_09h25.25.227,task,2021.1.4,Win32,59.84082341,6299f149e92ead563fba08ef,62a4435a673a6953c9f8e356,,,,,,,,,,,,,,,,,,,,,,,,,,,,,,,,,,,,,,,,,,,,,,,,,,,,,,,,,,,,,,,,,,,,,,,,,,,,,,,,,,,,,,,,,,,,,,,,,,,,,
,,,,,,1,0,1,0,1,X V Q F H G B L J M P D K C T S W R N Z,5fda7563b679f24c4d4e3ef6,23,Mężczyzna,2022-06-11_09h25.25.227,task,2021.1.4,Win32,59.84082341,6299f149e92ead563fba08ef,62a4435a673a6953c9f8e356,,,,,,,,,,,,,,,,,,,,,,,,,,,,,,,,,,,,,,,,,,,,,,,,,,,,,,,,,,,,,,,,,,,,,,,,,,,,,,,,,,,,,,,,,,,,,,,,,,,,,
,,,,,,2,0,2,0,1,X V Q F H G B L J M P D K C T S W R N Z,5fda7563b679f24c4d4e3ef6,23,Mężczyzna,2022-06-11_09h25.25.227,task,2021.1.4,Win32,59.84082341,6299f149e92ead563fba08ef,62a4435a673a6953c9f8e356,,,,,,,,,,,,,,,,,,,,,,,,,,,,,,,,,,,,,,,,,,,,,,,,,,,,,,,,,,,,,,,,,,,,,,,,,,,,,,,,,,,,,,,,,,,,,,,,,,,,,
,,,,,,3,0,3,0,1,X V Q F H G B L J M P D K C T S W R N Z,5fda7563b679f24c4d4e3ef6,23,Mężczyzna,2022-06-11_09h25.25.227,task,2021.1.4,Win32,59.84082341,6299f149e92ead563fba08ef,62a4435a673a6953c9f8e356,,,,,,,,,,,,,,,,,,,,,,,,,,,,,,,,,,,,,,,,,,,,,,,,,,,,,,,,,,,,,,,,,,,,,,,,,,,,,,,,,,,,,,,,,,,,,,,,,,,,,
,,,,,,4,0,4,0,1,X V Q F H G B L J M P D K C T S W R N Z,5fda7563b679f24c4d4e3ef6,23,Mężczyzna,2022-06-11_09h25.25.227,task,2021.1.4,Win32,59.84082341,6299f149e92ead563fba08ef,62a4435a673a6953c9f8e356,,,,,,,,,,,,,,,,,,,,,,,,,,,,,,,,,,,,,,,,,,,,,,,,,,,,,,,,,,,,,,,,,,,,,,,,,,,,,,,,,,,,,,,,,,,,,,,,,,,,,
,,,,,,,,,,,,5fda7563b679f24c4d4e3ef6,23,Mężczyzna,2022-06-11_09h25.25.227,task,2021.1.4,Win32,59.84082341,6299f149e92ead563fba08ef,62a4435a673a6953c9f8e356,fxxfn,"[""f"",""x"",""x"",""f"",""n""]","[0.7517000000000138,1.1732999999999834,1.3662999999999812,1.5492000000000132,1.840999999999994,2.232600000000005]",1,FXXFN,8,0,8,0,1,,,,,,,,,,,,,,,,,,,,,,,,,,,,,,,,,,,,,,,,,,,,,,,,,,,,,,,,,,,,,,,,,,,,,,,,,,,,,,,,,,,,,,,,,,,
,,,,,,0,0,0,0,1,X V Q F H G B L J M P D K C T S W R N Z,5fda7563b679f24c4d4e3ef6,23,Mężczyzna,2022-06-11_09h25.25.227,task,2021.1.4,Win32,59.84082341,6299f149e92ead563fba08ef,62a4435a673a6953c9f8e356,,,,,,,,,,,,,,,,,,,,,,,,,,,,,,,,,,,,,,,,,,,,,,,,,,,,,,,,,,,,,,,,,,,,,,,,,,,,,,,,,,,,,,,,,,,,,,,,,,,,,
,,,,,,1,0,1,0,1,X V Q F H G B L J M P D K C T S W R N Z,5fda7563b679f24c4d4e3ef6,23,Mężczyzna,2022-06-11_09h25.25.227,task,2021.1.4,Win32,59.84082341,6299f149e92ead563fba08ef,62a4435a673a6953c9f8e356,,,,,,,,,,,,,,,,,,,,,,,,,,,,,,,,,,,,,,,,,,,,,,,,,,,,,,,,,,,,,,,,,,,,,,,,,,,,,,,,,,,,,,,,,,,,,,,,,,,,,
,,,,,,2,0,2,0,1,X V Q F H G B L J M P D K C T S W R N Z,5fda7563b679f24c4d4e3ef6,23,Mężczyzna,2022-06-11_09h25.25.227,task,2021.1.4,Win32,59.84082341,6299f149e92ead563fba08ef,62a4435a673a6953c9f8e356,,,,,,,,,,,,,,,,,,,,,,,,,,,,,,,,,,,,,,,,,,,,,,,,,,,,,,,,,,,,,,,,,,,,,,,,,,,,,,,,,,,,,,,,,,,,,,,,,,,,,
,,,,,,3,0,3,0,1,X V Q F H G B L J M P D K C T S W R N Z,5fda7563b679f24c4d4e3ef6,23,Mężczyzna,2022-06-11_09h25.25.227,task,2021.1.4,Win32,59.84082341,6299f149e92ead563fba08ef,62a4435a673a6953c9f8e356,,,,,,,,,,,,,,,,,,,,,,,,,,,,,,,,,,,,,,,,,,,,,,,,,,,,,,,,,,,,,,,,,,,,,,,,,,,,,,,,,,,,,,,,,,,,,,,,,,,,,
,,,,,,4,0,4,0,1,X V Q F H G B L J M P D K C T S W R N Z,5fda7563b679f24c4d4e3ef6,23,Mężczyzna,2022-06-11_09h25.25.227,task,2021.1.4,Win32,59.84082341,6299f149e92ead563fba08ef,62a4435a673a6953c9f8e356,,,,,,,,,,,,,,,,,,,,,,,,,,,,,,,,,,,,,,,,,,,,,,,,,,,,,,,,,,,,,,,,,,,,,,,,,,,,,,,,,,,,,,,,,,,,,,,,,,,,,
,,,,,,5,0,5,0,1,X V Q F H G B L J M P D K C T S W R N Z,5fda7563b679f24c4d4e3ef6,23,Mężczyzna,2022-06-11_09h25.25.227,task,2021.1.4,Win32,59.84082341,6299f149e92ead563fba08ef,62a4435a673a6953c9f8e356,,,,,,,,,,,,,,,,,,,,,,,,,,,,,,,,,,,,,,,,,,,,,,,,,,,,,,,,,,,,,,,,,,,,,,,,,,,,,,,,,,,,,,,,,,,,,,,,,,,,,
,,,,,,,,,,,,5fda7563b679f24c4d4e3ef6,23,Mężczyzna,2022-06-11_09h25.25.227,task,2021.1.4,Win32,59.84082341,6299f149e92ead563fba08ef,62a4435a673a6953c9f8e356,glnppq,"[""g"",""l"",""n"",""p"",""p"",""q""]","[1.1284000000000134,1.3529000000000195,1.6668000000000092,2.069400000000016,5.866400000000013,6.082999999999998,6.366600000000005]",0,GLNPZQ,9,0,9,0,1,,,,,,,,,,,,,,,,,,,,,,,,,,,,,,,,,,,,,,,,,,,,,,,,,,,,,,,,,,,,,,,,,,,,,,,,,,,,,,,,,,,,,,,,,,,
,,,,,,0,0,0,0,1,X V Q F H G B L J M P D K C T S W R N Z,5fda7563b679f24c4d4e3ef6,23,Mężczyzna,2022-06-11_09h25.25.227,task,2021.1.4,Win32,59.84082341,6299f149e92ead563fba08ef,62a4435a673a6953c9f8e356,,,,,,,,,,,,,,,,,,,,,,,,,,,,,,,,,,,,,,,,,,,,,,,,,,,,,,,,,,,,,,,,,,,,,,,,,,,,,,,,,,,,,,,,,,,,,,,,,,,,,
,,,,,,1,0,1,0,1,X V Q F H G B L J M P D K C T S W R N Z,5fda7563b679f24c4d4e3ef6,23,Mężczyzna,2022-06-11_09h25.25.227,task,2021.1.4,Win32,59.84082341,6299f149e92ead563fba08ef,62a4435a673a6953c9f8e356,,,,,,,,,,,,,,,,,,,,,,,,,,,,,,,,,,,,,,,,,,,,,,,,,,,,,,,,,,,,,,,,,,,,,,,,,,,,,,,,,,,,,,,,,,,,,,,,,,,,,
,,,,,,2,0,2,0,1,X V Q F H G B L J M P D K C T S W R N Z,5fda7563b679f24c4d4e3ef6,23,Mężczyzna,2022-06-11_09h25.25.227,task,2021.1.4,Win32,59.84082341,6299f149e92ead563fba08ef,62a4435a673a6953c9f8e356,,,,,,,,,,,,,,,,,,,,,,,,,,,,,,,,,,,,,,,,,,,,,,,,,,,,,,,,,,,,,,,,,,,,,,,,,,,,,,,,,,,,,,,,,,,,,,,,,,,,,
,,,,,,3,0,3,0,1,X V Q F H G B L J M P D K C T S W R N Z,5fda7563b679f24c4d4e3ef6,23,Mężczyzna,2022-06-11_09h25.25.227,task,2021.1.4,Win32,59.84082341,6299f149e92ead563fba08ef,62a4435a673a6953c9f8e356,,,,,,,,,,,,,,,,,,,,,,,,,,,,,,,,,,,,,,,,,,,,,,,,,,,,,,,,,,,,,,,,,,,,,,,,,,,,,,,,,,,,,,,,,,,,,,,,,,,,,
,,,,,,4,0,4,0,1,X V Q F H G B L J M P D K C T S W R N Z,5fda7563b679f24c4d4e3ef6,23,Mężczyzna,2022-06-11_09h25.25.227,task,2021.1.4,Win32,59.84082341,6299f149e92ead563fba08ef,62a4435a673a6953c9f8e356,,,,,,,,,,,,,,,,,,,,,,,,,,,,,,,,,,,,,,,,,,,,,,,,,,,,,,,,,,,,,,,,,,,,,,,,,,,,,,,,,,,,,,,,,,,,,,,,,,,,,
,,,,,,5,0,5,0,1,X V Q F H G B L J M P D K C T S W R N Z,5fda7563b679f24c4d4e3ef6,23,Mężczyzna,2022-06-11_09h25.25.227,task,2021.1.4,Win32,59.84082341,6299f149e92ead563fba08ef,62a4435a673a6953c9f8e356,,,,,,,,,,,,,,,,,,,,,,,,,,,,,,,,,,,,,,,,,,,,,,,,,,,,,,,,,,,,,,,,,,,,,,,,,,,,,,,,,,,,,,,,,,,,,,,,,,,,,
,,,,,,,,,,,,5fda7563b679f24c4d4e3ef6,23,Mężczyzna,2022-06-11_09h25.25.227,task,2021.1.4,Win32,59.84082341,6299f149e92ead563fba08ef,62a4435a673a6953c9f8e356,wjnfqj,"[""w"",""j"",""n"",""f"",""q"",""j""]","[1.4726999999999748,1.7738999999999976,2.5682999999999936,2.933499999999981,3.1888999999999896,3.4543999999999926,3.933199999999971]",0,WJQNFJ,10,0,10,0,1,,,,,,,,,,,,,,,,,,,,,,,,,,,,,,,,,,,,,,,,,,,,,,,,,,,,,,,,,,,,,,,,,,,,,,,,,,,,,,,,,,,,,,,,,,,
,,,,,,0,0,0,0,1,X V Q F H G B L J M P D K C T S W R N Z,5fda7563b679f24c4d4e3ef6,23,Mężczyzna,2022-06-11_09h25.25.227,task,2021.1.4,Win32,59.84082341,6299f149e92ead563fba08ef,62a4435a673a6953c9f8e356,,,,,,,,,,,,,,,,,,,,,,,,,,,,,,,,,,,,,,,,,,,,,,,,,,,,,,,,,,,,,,,,,,,,,,,,,,,,,,,,,,,,,,,,,,,,,,,,,,,,,
,,,,,,1,0,1,0,1,X V Q F H G B L J M P D K C T S W R N Z,5fda7563b679f24c4d4e3ef6,23,Mężczyzna,2022-06-11_09h25.25.227,task,2021.1.4,Win32,59.84082341,6299f149e92ead563fba08ef,62a4435a673a6953c9f8e356,,,,,,,,,,,,,,,,,,,,,,,,,,,,,,,,,,,,,,,,,,,,,,,,,,,,,,,,,,,,,,,,,,,,,,,,,,,,,,,,,,,,,,,,,,,,,,,,,,,,,
,,,,,,2,0,2,0,1,X V Q F H G B L J M P D K C T S W R N Z,5fda7563b679f24c4d4e3ef6,23,Mężczyzna,2022-06-11_09h25.25.227,task,2021.1.4,Win32,59.84082341,6299f149e92ead563fba08ef,62a4435a673a6953c9f8e356,,,,,,,,,,,,,,,,,,,,,,,,,,,,,,,,,,,,,,,,,,,,,,,,,,,,,,,,,,,,,,,,,,,,,,,,,,,,,,,,,,,,,,,,,,,,,,,,,,,,,
,,,,,,3,0,3,0,1,X V Q F H G B L J M P D K C T S W R N Z,5fda7563b679f24c4d4e3ef6,23,Mężczyzna,2022-06-11_09h25.25.227,task,2021.1.4,Win32,59.84082341,6299f149e92ead563fba08ef,62a4435a673a6953c9f8e356,,,,,,,,,,,,,,,,,,,,,,,,,,,,,,,,,,,,,,,,,,,,,,,,,,,,,,,,,,,,,,,,,,,,,,,,,,,,,,,,,,,,,,,,,,,,,,,,,,,,,
,,,,,,4,0,4,0,1,X V Q F H G B L J M P D K C T S W R N Z,5fda7563b679f24c4d4e3ef6,23,Mężczyzna,2022-06-11_09h25.25.227,task,2021.1.4,Win32,59.84082341,6299f149e92ead563fba08ef,62a4435a673a6953c9f8e356,,,,,,,,,,,,,,,,,,,,,,,,,,,,,,,,,,,,,,,,,,,,,,,,,,,,,,,,,,,,,,,,,,,,,,,,,,,,,,,,,,,,,,,,,,,,,,,,,,,,,
,,,,,,5,0,5,0,1,X V Q F H G B L J M P D K C T S W R N Z,5fda7563b679f24c4d4e3ef6,23,Mężczyzna,2022-06-11_09h25.25.227,task,2021.1.4,Win32,59.84082341,6299f149e92ead563fba08ef,62a4435a673a6953c9f8e356,,,,,,,,,,,,,,,,,,,,,,,,,,,,,,,,,,,,,,,,,,,,,,,,,,,,,,,,,,,,,,,,,,,,,,,,,,,,,,,,,,,,,,,,,,,,,,,,,,,,,
,,,,,,,,,,,,5fda7563b679f24c4d4e3ef6,23,Mężczyzna,2022-06-11_09h25.25.227,task,2021.1.4,Win32,59.84082341,6299f149e92ead563fba08ef,62a4435a673a6953c9f8e356,qxxsbs,"[""q"",""x"",""x"",""s"",""b"",""s""]","[1.3685999999999865,1.8144999999999811,2.207099999999997,2.5563000000000216,3.880800000000022,5.122299999999996,5.675999999999988]",0,QQXSBS,11,0,11,0,1,,,,,,,,,,,,,,,,,,,,,,,,,,,,,,,,,,,,,,,,,,,,,,,,,,,,,,,,,,,,,,,,,,,,,,,,,,,,,,,,,,,,,,,,,,,
,,,,,,,,,,,,5fda7563b679f24c4d4e3ef6,23,Mężczyzna,2022-06-11_09h25.25.227,task,2021.1.4,Win32,59.84082341,6299f149e92ead563fba08ef,62a4435a673a6953c9f8e356,,,,,,,,,,,space,1.3411,2,"[""2""]",1,[4.944500000000005],[4.944500000000005],0,0,0,2,1,Practice,3,(4x4) - 14,2,,,,,,,,,,,,,,,,,,,,,,,,,,,,,,,,,,,,,,,,,,,,,,,,,,,,,,,,,,,,,,,,,,,,,,,,,,,
,,,,,,,,,,,,5fda7563b679f24c4d4e3ef6,23,Mężczyzna,2022-06-11_09h25.25.227,task,2021.1.4,Win32,59.84082341,6299f149e92ead563fba08ef,62a4435a673a6953c9f8e356,,,,,,,,,,,,,8,"[""8""]",1,[1.6173000000000286],"[4.944500000000005,1.6173000000000286]",0,1,1,8,1,Practice,9,(3x3) - 1,8,,,,,,,,,,,,,,,,,,,,,,,,,,,,,,,,,,,,,,,,,,,,,,,,,,,,,,,,,,,,,,,,,,,,,,,,,,,
,,,,,,,,,,,,5fda7563b679f24c4d4e3ef6,23,Mężczyzna,2022-06-11_09h25.25.227,task,2021.1.4,Win32,59.84082341,6299f149e92ead563fba08ef,62a4435a673a6953c9f8e356,,,,,,,,,,,,,0,"[""0""]",1,[1.7235000000000014],"[4.944500000000005,1.6173000000000286,1.7235000000000014]",0,2,2,0,1,Practice,1,(3x3) -  9,0,,,,,,,,,,,,,,,,,,,,,,,,,,,,,,,,,,,,,,,,,,,,,,,,,,,,,,,,,,,,,,,,,,,,,,,,,,,
,,,,,,,,,,,,5fda7563b679f24c4d4e3ef6,23,Mężczyzna,2022-06-11_09h25.25.227,task,2021.1.4,Win32,59.84082341,6299f149e92ead563fba08ef,62a4435a673a6953c9f8e356,,,,,,,,,,,,,5,"[""5""]",1,[2.304000000000002],"[4.944500000000005,1.6173000000000286,1.7235000000000014,2.304000000000002]",0,3,3,5,1,Practice,6,(4/2) + 3,5,,,,,,,,,,,,,,,,,,,,,,,,,,,,,,,,,,,,,,,,,,,,,,,,,,,,,,,,,,,,,,,,,,,,,,,,,,,
,,,,,,,,,,,,5fda7563b679f24c4d4e3ef6,23,Mężczyzna,2022-06-11_09h25.25.227,task,2021.1.4,Win32,59.84082341,6299f149e92ead563fba08ef,62a4435a673a6953c9f8e356,,,,,,,,,,,,,4,"[""4""]",1,[2.0745999999999754],"[4.944500000000005,1.6173000000000286,1.7235000000000014,2.304000000000002,2.0745999999999754]",0,4,4,4,1,Practice,5,(2x6) - 8,4,,,,,,,,,,,,,,,,,,,,,,,,,,,,,,,,,,,,,,,,,,,,,,,,,,,,,,,,,,,,,,,,,,,,,,,,,,,
,,,,,,,,,,,,5fda7563b679f24c4d4e3ef6,23,Mężczyzna,2022-06-11_09h25.25.227,task,2021.1.4,Win32,59.84082341,6299f149e92ead563fba08ef,62a4435a673a6953c9f8e356,,,,,,,,,,,,,7,"[""7""]",1,[2.0379000000000076],"[4.944500000000005,1.6173000000000286,1.7235000000000014,2.304000000000002,2.0745999999999754,2.0379000000000076]",0,5,5,7,1,Practice,8,(5x5) - 18,7,,,,,,,,,,,,,,,,,,,,,,,,,,,,,,,,,,,,,,,,,,,,,,,,,,,,,,,,,,,,,,,,,,,,,,,,,,,
,,,,,,,,,,,,5fda7563b679f24c4d4e3ef6,23,Mężczyzna,2022-06-11_09h25.25.227,task,2021.1.4,Win32,59.84082341,6299f149e92ead563fba08ef,62a4435a673a6953c9f8e356,,,,,,,,,,,,,1,"[""1""]",1,[1.133499999999998],"[4.944500000000005,1.6173000000000286,1.7235000000000014,2.304000000000002,2.0745999999999754,2.0379000000000076,1.133499999999998]",0,6,6,1,1,Practice,2,(4x4) - 15,1,,,,,,,,,,,,,,,,,,,,,,,,,,,,,,,,,,,,,,,,,,,,,,,,,,,,,,,,,,,,,,,,,,,,,,,,,,,
,,,,,,,,,,,,5fda7563b679f24c4d4e3ef6,23,Mężczyzna,2022-06-11_09h25.25.227,task,2021.1.4,Win32,59.84082341,6299f149e92ead563fba08ef,62a4435a673a6953c9f8e356,,,,,,,,,,,,,9,"[""9""]",1,[2.250099999999975],"[4.944500000000005,1.6173000000000286,1.7235000000000014,2.304000000000002,2.0745999999999754,2.0379000000000076,1.133499999999998,2.250099999999975]",0,7,7,9,1,Practice,10,(20/2) - 1,9,,,,,,,,,,,,,,,,,,,,,,,,,,,,,,,,,,,,,,,,,,,,,,,,,,,,,,,,,,,,,,,,,,,,,,,,,,,
,,,,,,,,,,,,5fda7563b679f24c4d4e3ef6,23,Mężczyzna,2022-06-11_09h25.25.227,task,2021.1.4,Win32,59.84082341,6299f149e92ead563fba08ef,62a4435a673a6953c9f8e356,,,,,,,,,,,,,6,"[""6""]",1,[1.6335999999999729],"[4.944500000000005,1.6173000000000286,1.7235000000000014,2.304000000000002,2.0745999999999754,2.0379000000000076,1.133499999999998,2.250099999999975,1.6335999999999729]",0,8,8,6,1,Practice,7,(25/5) + 1,6,,,,,,,,,,,,,,,,,,,,,,,,,,,,,,,,,,,,,,,,,,,,,,,,,,,,,,,,,,,,,,,,,,,,,,,,,,,
,,,,,,,,,,,,5fda7563b679f24c4d4e3ef6,23,Mężczyzna,2022-06-11_09h25.25.227,task,2021.1.4,Win32,59.84082341,6299f149e92ead563fba08ef,62a4435a673a6953c9f8e356,,,,,,,,,,,,,3,"[""3""]",1,[1.508400000000023],"[4.944500000000005,1.6173000000000286,1.7235000000000014,2.304000000000002,2.0745999999999754,2.0379000000000076,1.133499999999998,2.250099999999975,1.6335999999999729,1.508400000000023]",0,9,9,3,1,Practice,4,(8/4) + 1,3,,,,,,,,,,,,,,,,,,,,,,,,,,,,,,,,,,,,,,,,,,,,,,,,,,,,,,,,,,,,,,,,,,,,,,,,,,,
,,,,,,,,,,,,5fda7563b679f24c4d4e3ef6,23,Mężczyzna,2022-06-11_09h25.25.227,task,2021.1.4,Win32,59.84082341,6299f149e92ead563fba08ef,62a4435a673a6953c9f8e356,,,,,,,,,,,,,,,,,,,,,,,,,,,1,21.2274,1.41516,15.03774463,1.001257364,3.998403999,space,1.9666,0,0,0,0,1,,,,,,,,,,,,,,,,,,,,,,,,,,,,,,,,,,,,,,,,,,,,,,,,,,,,,,,,,,,,,,
,,,,,,,,,,,,5fda7563b679f24c4d4e3ef6,23,Mężczyzna,2022-06-11_09h25.25.227,task,2021.1.4,Win32,59.84082341,6299f149e92ead563fba08ef,62a4435a673a6953c9f8e356,,,,,,,,,,,,,8,,,,,,,,,,Practice,9,(3x3) - 1,8,,,,,,,,,,,,,,space,11.0944,"[""8""]",1,[1.3152999999999793],1,0,0,0,8,1,,,,,,,,,,,,,,,,,,,,,,,,,,,,,,,,,,,,,,,,,,,,,,,,,,,
,,,,,,,,,,,X V Q F H G B L J M P D K C T S W R N Z,5fda7563b679f24c4d4e3ef6,23,Mężczyzna,2022-06-11_09h25.25.227,task,2021.1.4,Win32,59.84082341,6299f149e92ead563fba08ef,62a4435a673a6953c9f8e356,,,,,,,,,,,,,,,,,,,,,,,,,,,,,,,,,,,,,,,,,,,,,,,,,,,0,0,0,0,1,,,,,,,,,,,,,,,,,,,,,,,,,,,,,,,,,,,,,,,,,,,,,,
,,,,,,,,,,,,5fda7563b679f24c4d4e3ef6,23,Mężczyzna,2022-06-11_09h25.25.227,task,2021.1.4,Win32,59.84082341,6299f149e92ead563fba08ef,62a4435a673a6953c9f8e356,,,,,,,,,,,,,7,,,,,,,,,,Practice,8,(5x5) - 18,7,,,,,,,,,,,,,,,,"[""7""]",1,[2.899799999999999],1,0,0,0,7,1,,,,,,,,,,,,,,,,,,,,,,,,,,,,,,,,,,,,,,,,,,,,,,,,,,,
,,,,,,,,,,,X V Q F H G B L J M P D K C T S W R N Z,5fda7563b679f24c4d4e3ef6,23,Mężczyzna,2022-06-11_09h25.25.227,task,2021.1.4,Win32,59.84082341,6299f149e92ead563fba08ef,62a4435a673a6953c9f8e356,,,,,,,,,,,,,,,,,,,,,,,,,,,,,,,,,,,,,,,,,,,,,,,,,,,1,0,1,0,1,,,,,,,,,,,,,,,,,,,,,,,,,,,,,,,,,,,,,,,,,,,,,,
,,,,,,,,,,,,5fda7563b679f24c4d4e3ef6,23,Mężczyzna,2022-06-11_09h25.25.227,task,2021.1.4,Win32,59.84082341,6299f149e92ead563fba08ef,62a4435a673a6953c9f8e356,,,,,,,,,,,,,,,,,,,,,,,,,,,,,,,,,,,,,,,,,,,,,,,,,,,,,,,,zz,"[""z"",""z""]",0,"[1.494799999999998,1.6839999999999975,1.8707000000000278]",1,0,0,0,0,1,,,,,,,,,,,,,,,,,,,,,,,,,,,,,,,,,,,,
,,,,,,,,,,,,5fda7563b679f24c4d4e3ef6,23,Mężczyzna,2022-06-11_09h25.25.227,task,2021.1.4,Win32,59.84082341,6299f149e92ead563fba08ef,62a4435a673a6953c9f8e356,,,,,,,,,,,,,0,,,,,,,,,,Practice,1,(3x3) -  9,0,,,,,,,,,,,,,,,,"[""0""]",1,[1.1858000000000004],1,0,0,0,0,1,,,,,,,,,,,,,,,,,,,,,,,,,,,,,,,,,,,,,,,,,,,,,,,,,,,
,,,,,,,,,,,X V Q F H G B L J M P D K C T S W R N Z,5fda7563b679f24c4d4e3ef6,23,Mężczyzna,2022-06-11_09h25.25.227,task,2021.1.4,Win32,59.84082341,6299f149e92ead563fba08ef,62a4435a673a6953c9f8e356,,,,,,,,,,,,,,,,,,,,,,,,,,,,,,,,,,,,,,,,,,,,,,,,,,,0,0,0,0,1,,,,,,,,,,,,,,,,,,,,,,,,,,,,,,,,,,,,,,,,,,,,,,
,,,,,,,,,,,,5fda7563b679f24c4d4e3ef6,23,Mężczyzna,2022-06-11_09h25.25.227,task,2021.1.4,Win32,59.84082341,6299f149e92ead563fba08ef,62a4435a673a6953c9f8e356,,,,,,,,,,,,,4,,,,,,,,,,Practice,5,(2x6) - 8,4,,,,,,,,,,,,,,,,"[""4""]",1,[1.4950999999999794],1,0,0,0,4,1,,,,,,,,,,,,,,,,,,,,,,,,,,,,,,,,,,,,,,,,,,,,,,,,,,,
,,,,,,,,,,,X V Q F H G B L J M P D K C T S W R N Z,5fda7563b679f24c4d4e3ef6,23,Mężczyzna,2022-06-11_09h25.25.227,task,2021.1.4,Win32,59.84082341,6299f149e92ead563fba08ef,62a4435a673a6953c9f8e356,,,,,,,,,,,,,,,,,,,,,,,,,,,,,,,,,,,,,,,,,,,,,,,,,,,1,0,1,0,1,,,,,,,,,,,,,,,,,,,,,,,,,,,,,,,,,,,,,,,,,,,,,,
,,,,,,,,,,,,5fda7563b679f24c4d4e3ef6,23,Mężczyzna,2022-06-11_09h25.25.227,task,2021.1.4,Win32,59.84082341,6299f149e92ead563fba08ef,62a4435a673a6953c9f8e356,,,,,,,,,,,,,,,,,,,,,,,,,,,,,,,,,,,,,,,,,,,,,,,,,,,,,,,,fc,"[""f"",""c""]",0,"[1.3394000000000403,1.4595000000000198,1.6155000000000257]",1,1,0,1,0,1,,,,,,,,,,,,,,,,,,,,,,,,,,,,,,,,,,,,
,,,,,,,,,,,,5fda7563b679f24c4d4e3ef6,23,Mężczyzna,2022-06-11_09h25.25.227,task,2021.1.4,Win32,59.84082341,6299f149e92ead563fba08ef,62a4435a673a6953c9f8e356,,,,,,,,,,,,,1,,,,,,,,,,Practice,2,(4x4) - 15,1,,,,,,,,,,,,,,,,"[""1""]",1,[1.6105000000000018],1,0,0,0,1,1,,,,,,,,,,,,,,,,,,,,,,,,,,,,,,,,,,,,,,,,,,,,,,,,,,,
,,,,,,,,,,,X V Q F H G B L J M P D K C T S W R N Z,5fda7563b679f24c4d4e3ef6,23,Mężczyzna,2022-06-11_09h25.25.227,task,2021.1.4,Win32,59.84082341,6299f149e92ead563fba08ef,62a4435a673a6953c9f8e356,,,,,,,,,,,,,,,,,,,,,,,,,,,,,,,,,,,,,,,,,,,,,,,,,,,0,0,0,0,1,,,,,,,,,,,,,,,,,,,,,,,,,,,,,,,,,,,,,,,,,,,,,,
,,,,,,,,,,,,5fda7563b679f24c4d4e3ef6,23,Mężczyzna,2022-06-11_09h25.25.227,task,2021.1.4,Win32,59.84082341,6299f149e92ead563fba08ef,62a4435a673a6953c9f8e356,,,,,,,,,,,,,0,,,,,,,,,,Practice,1,(3x3) -  9,0,,,,,,,,,,,,,,,,"[""0""]",1,[1.2588999999999544],1,0,0,0,0,1,,,,,,,,,,,,,,,,,,,,,,,,,,,,,,,,,,,,,,,,,,,,,,,,,,,
,,,,,,,,,,,X V Q F H G B L J M P D K C T S W R N Z,5fda7563b679f24c4d4e3ef6,23,Mężczyzna,2022-06-11_09h25.25.227,task,2021.1.4,Win32,59.84082341,6299f149e92ead563fba08ef,62a4435a673a6953c9f8e356,,,,,,,,,,,,,,,,,,,,,,,,,,,,,,,,,,,,,,,,,,,,,,,,,,,1,0,1,0,1,,,,,,,,,,,,,,,,,,,,,,,,,,,,,,,,,,,,,,,,,,,,,,
,,,,,,,,,,,,5fda7563b679f24c4d4e3ef6,23,Mężczyzna,2022-06-11_09h25.25.227,task,2021.1.4,Win32,59.84082341,6299f149e92ead563fba08ef,62a4435a673a6953c9f8e356,,,,,,,,,,,,,,,,,,,,,,,,,,,,,,,,,,,,,,,,,,,,,,,,,,,,,,,,vb,"[""v"",""b""]",0,"[1.265500000000003,1.3782999999999674,1.4627999999999872]",1,2,0,2,0,1,,,,,,,,,,,,,,,,,,,,,,,,,,,,,,,,,,,,
,,,,,,,,,,,,5fda7563b679f24c4d4e3ef6,23,Mężczyzna,2022-06-11_09h25.25.227,task,2021.1.4,Win32,59.84082341,6299f149e92ead563fba08ef,62a4435a673a6953c9f8e356,,,,,,,,,,,,,0,,,,,,,,,,Task,33,(1/1) - 1,0,,,,,,,,,,,,,,,,,,,1,,,,,,,,,,,,,,,,,,,,,space,11.2842,"[""0""]",1,[2.468699999999984],0,0,0,32,1,,,,,,,,,,,,,,,,,,,,,,,,,,
,,,,,,,,,,,X V Q F H G B L J M P D K C T S W R N Z,5fda7563b679f24c4d4e3ef6,23,Mężczyzna,2022-06-11_09h25.25.227,task,2021.1.4,Win32,59.84082341,6299f149e92ead563fba08ef,62a4435a673a6953c9f8e356,,,,,,,,,,,,,,,,,,,,,,,,,,,,,,,,,,,,,,,,,,,,,,,,,,,,,,,,,,,,,,,,,,,,,,,,,,,,0,0,0,0,1,,,,,,,,,,,,,,,,,,,,,
,,,,,,,,,,,,5fda7563b679f24c4d4e3ef6,23,Mężczyzna,2022-06-11_09h25.25.227,task,2021.1.4,Win32,59.84082341,6299f149e92ead563fba08ef,62a4435a673a6953c9f8e356,,,,,,,,,,,,,7,,,,,,,,,,Task,6,(12/2) + 1,7,,,,,,,,,,,,,,,,,,,1,,,,,,,,,,,,,,,,,,,,,,,"[""7""]",1,[1.6282999999999674],0,0,0,5,1,,,,,,,,,,,,,,,,,,,,,,,,,,
,,,,,,,,,,,X V Q F H G B L J M P D K C T S W R N Z,5fda7563b679f24c4d4e3ef6,23,Mężczyzna,2022-06-11_09h25.25.227,task,2021.1.4,Win32,59.84082341,6299f149e92ead563fba08ef,62a4435a673a6953c9f8e356,,,,,,,,,,,,,,,,,,,,,,,,,,,,,,,,,,,,,,,,,,,,,,,,,,,,,,,,,,,,,,,,,,,,,,,,,,,,1,0,1,0,1,,,,,,,,,,,,,,,,,,,,,
,,,,,,,,,,,,5fda7563b679f24c4d4e3ef6,23,Mężczyzna,2022-06-11_09h25.25.227,task,2021.1.4,Win32,59.84082341,6299f149e92ead563fba08ef,62a4435a673a6953c9f8e356,,,,,,,,,,,,,,,,,,,,,,,,,,,,,,,,,,,,,,,,,,,,,,,,,,,,,,,,,,,,,,,,,,,,,,,,,,,,,,,,,zn,"[""z"",""n""]",0,"[1.0067000000000803,1.108099999999979,1.2508000000000266]",1,ZN,0,0,0,0,1,,,,,,,,,,
,,,,,,,,,,,,5fda7563b679f24c4d4e3ef6,23,Mężczyzna,2022-06-11_09h25.25.227,task,2021.1.4,Win32,59.84082341,6299f149e92ead563fba08ef,62a4435a673a6953c9f8e356,,,,,,,,,,,,,6,,,,,,,,,,Task,13,(3x4) - 6,6,,,,,,,,,,,,,,,,,,,1,,,,,,,,,,,,,,,,,,,,,,,"[""6""]",1,[1.9309999999999832],0,0,0,12,1,,,,,,,,,,,,,,,,,,,,,,,,,,
,,,,,,,,,,,X V Q F H G B L J M P D K C T S W R N Z,5fda7563b679f24c4d4e3ef6,23,Mężczyzna,2022-06-11_09h25.25.227,task,2021.1.4,Win32,59.84082341,6299f149e92ead563fba08ef,62a4435a673a6953c9f8e356,,,,,,,,,,,,,,,,,,,,,,,,,,,,,,,,,,,,,,,,,,,,,,,,,,,,,,,,,,,,,,,,,,,,,,,,,,,,0,0,0,0,1,,,,,,,,,,,,,,,,,,,,,
,,,,,,,,,,,,5fda7563b679f24c4d4e3ef6,23,Mężczyzna,2022-06-11_09h25.25.227,task,2021.1.4,Win32,59.84082341,6299f149e92ead563fba08ef,62a4435a673a6953c9f8e356,,,,,,,,,,,,,4,,,,,,,,,,Task,19,(6/2) - 1,2,,,,,,,,,,,,,,,,,,,0,,,,,,,,,,,,,,,,,,,,,,,"[""4""]",0,[1.573099999999954],0,0,0,18,1,,,,,,,,,,,,,,,,,,,,,,,,,,
,,,,,,,,,,,,5fda7563b679f24c4d4e3ef6,23,Mężczyzna,2022-06-11_09h25.25.227,task,2021.1.4,Win32,59.84082341,6299f149e92ead563fba08ef,62a4435a673a6953c9f8e356,,,,,,,,,,,,,,,,,,,,,,,Task,12,(4x4) - 11,5,,,,,,,,,,,,,,,,,,,0,,,,,,,,,,,,,,,,,,,,,,,,0,,0,1,1,11,1,,,,,,,,,,,,,,,,,,,,,,,,,,
,,,,,,,,,,,,5fda7563b679f24c4d4e3ef6,23,Mężczyzna,2022-06-11_09h25.25.227,task,2021.1.4,Win32,59.84082341,6299f149e92ead563fba08ef,62a4435a673a6953c9f8e356,,,,,,,,,,,,,3,,,,,,,,,,Task,2,(2x2) - 2,2,,,,,,,,,,,,,,,,,,,0,,,,,,,,,,,,,,,,,,,,,,,"[""3""]",0,[1.507699999999943],0,2,2,1,1,,,,,,,,,,,,,,,,,,,,,,,,,,
,,,,,,,,,,,,5fda7563b679f24c4d4e3ef6,23,Mężczyzna,2022-06-11_09h25.25.227,task,2021.1.4,Win32,59.84082341,6299f149e92ead563fba08ef,62a4435a673a6953c9f8e356,,,,,,,,,,,,,0,,,,,,,,,,Task,17,(2x3) - 6,0,,,,,,,,,,,,,,,,,,,1,,,,,,,,,,,,,,,,,,,,,,,"[""0""]",1,[1.698699999999974],0,3,3,16,1,,,,,,,,,,,,,,,,,,,,,,,,,,
,,,,,,,,,,,X V Q F H G B L J M P D K C T S W R N Z,5fda7563b679f24c4d4e3ef6,23,Mężczyzna,2022-06-11_09h25.25.227,task,2021.1.4,Win32,59.84082341,6299f149e92ead563fba08ef,62a4435a673a6953c9f8e356,,,,,,,,,,,,,,,,,,,,,,,,,,,,,,,,,,,,,,,,,,,,,,,,,,,,,,,,,,,,,,,,,,,,,,,,,,,,1,0,1,0,1,,,,,,,,,,,,,,,,,,,,,
,,,,,,,,,,,,5fda7563b679f24c4d4e3ef6,23,Mężczyzna,2022-06-11_09h25.25.227,task,2021.1.4,Win32,59.84082341,6299f149e92ead563fba08ef,62a4435a673a6953c9f8e356,,,,,,,,,,,,,5,,,,,,,,,,Task,22,(3x1) + 2,5,,,,,,,,,,,,,,,,,,,1,,,,,,,,,,,,,,,,,,,,,,,"[""5""]",1,[1.9203000000000543],0,0,0,21,1,,,,,,,,,,,,,,,,,,,,,,,,,,
,,,,,,,,,,,X V Q F H G B L J M P D K C T S W R N Z,5fda7563b679f24c4d4e3ef6,23,Mężczyzna,2022-06-11_09h25.25.227,task,2021.1.4,Win32,59.84082341,6299f149e92ead563fba08ef,62a4435a673a6953c9f8e356,,,,,,,,,,,,,,,,,,,,,,,,,,,,,,,,,,,,,,,,,,,,,,,,,,,,,,,,,,,,,,,,,,,,,,,,,,,,2,0,2,0,1,,,,,,,,,,,,,,,,,,,,,
,,,,,,,,,,,,5fda7563b679f24c4d4e3ef6,23,Mężczyzna,2022-06-11_09h25.25.227,task,2021.1.4,Win32,59.84082341,6299f149e92ead563fba08ef,62a4435a673a6953c9f8e356,,,,,,,,,,,,,,,,,,,,,,,,,,,,,,,,,,,,,,,,,,,,,,,,,,,,,,,,,,,,,,,,,,,,,,,,,,,,,,,,,vb,"[""v"",""b""]",0,"[0.8727000000000658,1.0593000000000643,1.204400000000021]",0,VJB,1,0,1,0,1,,,,,,,,,,
,,,,,,,,,,,,5fda7563b679f24c4d4e3ef6,23,Mężczyzna,2022-06-11_09h25.25.227,task,2021.1.4,Win32,59.84082341,6299f149e92ead563fba08ef,62a4435a673a6953c9f8e356,,,,,,,,,,,,,6,,,,,,,,,,Task,37,(3/3) + 5,6,,,,,,,,,,,,,,,,,,,1,,,,,,,,,,,,,,,,,,,,,,,"[""6""]",1,[1.8517000000000507],0,0,0,36,1,,,,,,,,,,,,,,,,,,,,,,,,,,
,,,,,,,,,,,X V Q F H G B L J M P D K C T S W R N Z,5fda7563b679f24c4d4e3ef6,23,Mężczyzna,2022-06-11_09h25.25.227,task,2021.1.4,Win32,59.84082341,6299f149e92ead563fba08ef,62a4435a673a6953c9f8e356,,,,,,,,,,,,,,,,,,,,,,,,,,,,,,,,,,,,,,,,,,,,,,,,,,,,,,,,,,,,,,,,,,,,,,,,,,,,0,0,0,0,1,,,,,,,,,,,,,,,,,,,,,
,,,,,,,,,,,,5fda7563b679f24c4d4e3ef6,23,Mężczyzna,2022-06-11_09h25.25.227,task,2021.1.4,Win32,59.84082341,6299f149e92ead563fba08ef,62a4435a673a6953c9f8e356,,,,,,,,,,,,,8,,,,,,,,,,Task,39,(5x3) - 7,8,,,,,,,,,,,,,,,,,,,1,,,,,,,,,,,,,,,,,,,,,,,"[""8""]",1,[1.9602999999999042],0,0,0,38,1,,,,,,,,,,,,,,,,,,,,,,,,,,
,,,,,,,,,,,X V Q F H G B L J M P D K C T S W R N Z,5fda7563b679f24c4d4e3ef6,23,Mężczyzna,2022-06-11_09h25.25.227,task,2021.1.4,Win32,59.84082341,6299f149e92ead563fba08ef,62a4435a673a6953c9f8e356,,,,,,,,,,,,,,,,,,,,,,,,,,,,,,,,,,,,,,,,,,,,,,,,,,,,,,,,,,,,,,,,,,,,,,,,,,,,1,0,1,0,1,,,,,,,,,,,,,,,,,,,,,
,,,,,,,,,,,,5fda7563b679f24c4d4e3ef6,23,Mężczyzna,2022-06-11_09h25.25.227,task,2021.1.4,Win32,59.84082341,6299f149e92ead563fba08ef,62a4435a673a6953c9f8e356,,,,,,,,,,,,,8,,,,,,,,,,Task,39,(5x3) - 7,8,,,,,,,,,,,,,,,,,,,1,,,,,,,,,,,,,,,,,,,,,,,"[""8""]",1,[2.4026999999999816],0,0,0,38,1,,,,,,,,,,,,,,,,,,,,,,,,,,
,,,,,,,,,,,X V Q F H G B L J M P D K C T S W R N Z,5fda7563b679f24c4d4e3ef6,23,Mężczyzna,2022-06-11_09h25.25.227,task,2021.1.4,Win32,59.84082341,6299f149e92ead563fba08ef,62a4435a673a6953c9f8e356,,,,,,,,,,,,,,,,,,,,,,,,,,,,,,,,,,,,,,,,,,,,,,,,,,,,,,,,,,,,,,,,,,,,,,,,,,,,2,0,2,0,1,,,,,,,,,,,,,,,,,,,,,
,,,,,,,,,,,,5fda7563b679f24c4d4e3ef6,23,Mężczyzna,2022-06-11_09h25.25.227,task,2021.1.4,Win32,59.84082341,6299f149e92ead563fba08ef,62a4435a673a6953c9f8e356,,,,,,,,,,,,,,,,,,,,,,,,,,,,,,,,,,,,,,,,,,,,,,,,,,,,,,,,,,,,,,,,,,,,,,,,,,,,,,,,,vbn,"[""v"",""b"",""n""]",0,"[1.1700999999999908,1.2421999999999684,1.3220999999999776,1.5347999999999615]",0,VQN,2,0,2,0,1,,,,,,,,,,
,,,,,,,,,,,,5fda7563b679f24c4d4e3ef6,23,Mężczyzna,2022-06-11_09h25.25.227,task,2021.1.4,Win32,59.84082341,6299f149e92ead563fba08ef,62a4435a673a6953c9f8e356,,,,,,,,,,,,,,,,,,,,,,,,,,,,,,,,,,,,,,,,,,,,,,,,,,,,,,,,,,,,,,,,,,,,,,,,,,,,,,,,,,,,,,,,,,,,,0,0,0,0,0,1,,,
,,,,,,,,,,,,5fda7563b679f24c4d4e3ef6,23,Mężczyzna,2022-06-11_09h25.25.227,task,2021.1.4,Win32,59.84082341,6299f149e92ead563fba08ef,62a4435a673a6953c9f8e356,,,,,,,,,,,,,,,,,,,,,,,,,,,,,,,,,,,,,,,,,,,,,,,,,,,,,,,,,,,,,,,,,,,,,,,,,,,,,,,,,,,,,,,,,,,,,0,1,0,1,0,1,,,
,,,,,,,,,,,,5fda7563b679f24c4d4e3ef6,23,Mężczyzna,2022-06-11_09h25.25.227,task,2021.1.4,Win32,59.84082341,6299f149e92ead563fba08ef,62a4435a673a6953c9f8e356,,,,,,,,,,,,,,,,,,,,,,,,,,,,,,,,,,,,,,,,,,,,,,,,,,,,,,,,,,,,,,,,,,,,,,,,,,,,,,,,,,,,,,,,,,,,"[""comma""]",0,2,0,2,0,1,[0.689399999999921],,
,,,,,,,,,,,,5fda7563b679f24c4d4e3ef6,23,Mężczyzna,2022-06-11_09h25.25.227,task,2021.1.4,Win32,59.84082341,6299f149e92ead563fba08ef,62a4435a673a6953c9f8e356,,,,,,,,,,,,,,,,,,,,,,,,,,,,,,,,,,,,,,,,,,,,,,,,,,,,,,,,,,,,,,,,,,,,,,,,,,,,,,,,,,,,,,,,,,,,"[""period""]",0,3,0,3,0,1,[1.8618000000000734],,
,,,,,,,,,,,,5fda7563b679f24c4d4e3ef6,23,Mężczyzna,2022-06-11_09h25.25.227,task,2021.1.4,Win32,59.84082341,6299f149e92ead563fba08ef,62a4435a673a6953c9f8e356,,,,,,,,,,,,,,,,,,,,,,,,,,,,,,,,,,,,,,,,,,,,,,,,,,,,,,,,,,,,,,,,,,,,,,,,,,,,,,,,,,,,,,,,,,,,,0,4,0,4,0,1,,,
,,,,,,,,,,,,5fda7563b679f24c4d4e3ef6,23,Mężczyzna,2022-06-11_09h25.25.227,task,2021.1.4,Win32,59.84082341,6299f149e92ead563fba08ef,62a4435a673a6953c9f8e356,,,,,,,,,,,,,,,,,,,,,,,,,,,,,,,,,,,,,,,,,,,,,,,,,,,,,,,,,,,,,,,,,,,,,,,,,,,,,,,,,,,,,,,,,,,,,0,5,0,5,0,1,,,
,,,,,,,,,,,,5fda7563b679f24c4d4e3ef6,23,Mężczyzna,2022-06-11_09h25.25.227,task,2021.1.4,Win32,59.84082341,6299f149e92ead563fba08ef,62a4435a673a6953c9f8e356,,,,,,,,,,,,,,,,,,,,,,,,,,,,,,,,,,,,,,,,,,,,,,,,,,,,,,,,,,,,,,,,,,,,,,,,,,,,,,,,,,,,,,,,,,,,"[""comma""]",0,6,0,6,0,1,[0.22160000000002356],,
,,,,,,,,,,,,5fda7563b679f24c4d4e3ef6,23,Mężczyzna,2022-06-11_09h25.25.227,task,2021.1.4,Win32,59.84082341,6299f149e92ead563fba08ef,62a4435a673a6953c9f8e356,,,,,,,,,,,,,,,,,,,,,,,,,,,,,,,,,,,,,,,,,,,,,,,,,,,,,,,,,,,,,,,,,,,,,,,,,,,,,,,,,,,,,,,,,,,,"[""comma""]",0,7,0,7,0,1,[0.8971000000000231],,
,,,,,,,,,,,,5fda7563b679f24c4d4e3ef6,23,Mężczyzna,2022-06-11_09h25.25.227,task,2021.1.4,Win32,59.84082341,6299f149e92ead563fba08ef,62a4435a673a6953c9f8e356,,,,,,,,,,,,,,,,,,,,,,,,,,,,,,,,,,,,,,,,,,,,,,,,,,,,,,,,,,,,,,,,,,,,,,,,,,,,,,,,,,,,,,,,,,,,"[""comma""]",0,8,0,8,0,1,[0.5670999999999822],,
,,,,,,,,,,,,5fda7563b679f24c4d4e3ef6,23,Mężczyzna,2022-06-11_09h25.25.227,task,2021.1.4,Win32,59.84082341,6299f149e92ead563fba08ef,62a4435a673a6953c9f8e356,,,,,,,,,,,,,,,,,,,,,,,,,,,,,,,,,,,,,,,,,,,,,,,,,,,,,,,,,,,,,,,,,,,,,,,,,,,,,,,,,,,,,,,,,,,,"[""period""]",0,9,0,9,0,1,[0.7106999999999744],,
,,,,,,,,,,,,5fda7563b679f24c4d4e3ef6,23,Mężczyzna,2022-06-11_09h25.25.227,task,2021.1.4,Win32,59.84082341,6299f149e92ead563fba08ef,62a4435a673a6953c9f8e356,,,,,,,,,,,,,,,,,,,,,,,,,,,,,,,,,,,,,,,,,,,,,,,,,,,,,,,,,,,,,,,,,,,,,,,,,,,,,,,,,,,,,,,,,,,,"[""period""]",0,10,0,10,0,1,[0.7398999999999205],,
,,,,,,,,,,,,5fda7563b679f24c4d4e3ef6,23,Mężczyzna,2022-06-11_09h25.25.227,task,2021.1.4,Win32,59.84082341,6299f149e92ead563fba08ef,62a4435a673a6953c9f8e356,,,,,,,,,,,,,,,,,,,,,,,,,,,,,,,,,,,,,,,,,,,,,,,,,,,,,,,,,,,,,,,,,,,,,,,,,,,,,,,,,,,,,,,,,,,,"[""period""]",0,11,0,11,0,1,[0.9609000000000378],,
,,,,,,,,,,,,5fda7563b679f24c4d4e3ef6,23,Mężczyzna,2022-06-11_09h25.25.227,task,2021.1.4,Win32,59.84082341,6299f149e92ead563fba08ef,62a4435a673a6953c9f8e356,,,,,,,,,,,,,,,,,,,,,,,,,,,,,,,,,,,,,,,,,,,,,,,,,,,,,,,,,,,,,,,,,,,,,,,,,,,,,,,,,,,,,,,,,,,,"[""period""]",0,12,0,12,0,1,[0.7094000000000165],,
,,,,,,,,,,,,5fda7563b679f24c4d4e3ef6,23,Mężczyzna,2022-06-11_09h25.25.227,task,2021.1.4,Win32,59.84082341,6299f149e92ead563fba08ef,62a4435a673a6953c9f8e356,,,,,,,,,,,,,,,,,,,,,,,,,,,,,,,,,,,,,,,,,,,,,,,,,,,,,,,,,,,,,,,,,,,,,,,,,,,,,,,,,,,,,,,,,,,,"[""period""]",0,13,0,13,0,1,[0.8863000000000056],,
,,,,,,,,,,,,5fda7563b679f24c4d4e3ef6,23,Mężczyzna,2022-06-11_09h25.25.227,task,2021.1.4,Win32,59.84082341,6299f149e92ead563fba08ef,62a4435a673a6953c9f8e356,,,,,,,,,,,,,,,,,,,,,,,,,,,,,,,,,,,,,,,,,,,,,,,,,,,,,,,,,,,,,,,,,,,,,,,,,,,,,,,,,,,,,,,,,,,,"[""period""]",0,14,0,14,0,1,[0.6398999999998978],,
,,,,,,,,,,,,5fda7563b679f24c4d4e3ef6,23,Mężczyzna,2022-06-11_09h25.25.227,task,2021.1.4,Win32,59.84082341,6299f149e92ead563fba08ef,62a4435a673a6953c9f8e356,,,,,,,,,,,,,,,,,,,,,,,,,,,,,,,,,,,,,,,,,,,,,,,,,,,,,,,,,,,,,,,,,,,,,,,,,,,,,,,,,,,,,,,,,,,,"[""comma""]",0,15,0,15,0,1,[0.4051999999999225],,
,,,,,,,,,,,,5fda7563b679f24c4d4e3ef6,23,Mężczyzna,2022-06-11_09h25.25.227,task,2021.1.4,Win32,59.84082341,6299f149e92ead563fba08ef,62a4435a673a6953c9f8e356,,,,,,,,,,,,,,,,,,,,,,,,,,,,,,,,,,,,,,,,,,,,,,,,,,,,,,,,,,,,,,,,,,,,,,,,,,,,,,,,,,,,,,,,,,,,"[""comma""]",0,16,0,16,0,1,[0.2258999999999105],,
,,,,,,,,,,,,5fda7563b679f24c4d4e3ef6,23,Mężczyzna,2022-06-11_09h25.25.227,task,2021.1.4,Win32,59.84082341,6299f149e92ead563fba08ef,62a4435a673a6953c9f8e356,,,,,,,,,,,,,,,,,,,,,,,,,,,,,,,,,,,,,,,,,,,,,,,,,,,,,,,,,,,,,,,,,,,,,,,,,,,,,,,,,,,,,,,,,,,,"[""comma""]",0,17,0,17,0,1,[0.058500000000037744],,
,,,,,,,,,,,,5fda7563b679f24c4d4e3ef6,23,Mężczyzna,2022-06-11_09h25.25.227,task,2021.1.4,Win32,59.84082341,6299f149e92ead563fba08ef,62a4435a673a6953c9f8e356,,,,,,,,,,,,,,,,,,,,,,,,,,,,,,,,,,,,,,,,,,,,,,,,,,,,,,,,,,,,,,,,,,,,,,,,,,,,,,,,,,,,,,,,,,,,"[""period""]",0,18,0,18,0,1,[0.0767999999999347],,
,,,,,,,,,,,,5fda7563b679f24c4d4e3ef6,23,Mężczyzna,2022-06-11_09h25.25.227,task,2021.1.4,Win32,59.84082341,6299f149e92ead563fba08ef,62a4435a673a6953c9f8e356,,,,,,,,,,,,,,,,,,,,,,,,,,,,,,,,,,,,,,,,,,,,,,,,,,,,,,,,,,,,,,,,,,,,,,,,,,,,,,,,,,,,,,,,,,,,"[""comma""]",0,19,0,19,0,1,[0.19249999999999545],,
,,,,,,,,,,,,5fda7563b679f24c4d4e3ef6,23,Mężczyzna,2022-06-11_09h25.25.227,task,2021.1.4,Win32,59.84082341,6299f149e92ead563fba08ef,62a4435a673a6953c9f8e356,,,,,,,,,,,,,,,,,,,,,,,,,,,,,,,,,,,,,,,,,,,,,,,,,,,,,,,,,,,,,,,,,,,,,,,,,,,,,,,,,,,,,,,,,,,,"[""comma""]",0,20,0,20,0,1,[0.31170000000008713],,
,,,,,,,,,,,,5fda7563b679f24c4d4e3ef6,23,Mężczyzna,2022-06-11_09h25.25.227,task,2021.1.4,Win32,59.84082341,6299f149e92ead563fba08ef,62a4435a673a6953c9f8e356,,,,,,,,,,,,,,,,,,,,,,,,,,,,,,,,,,,,,,,,,,,,,,,,,,,,,,,,,,,,,,,,,,,,,,,,,,,,,,,,,,,,,,,,,,,,"[""period""]",0,21,0,21,0,1,[0.5720999999999776],,
,,,,,,,,,,,,5fda7563b679f24c4d4e3ef6,23,Mężczyzna,2022-06-11_09h25.25.227,task,2021.1.4,Win32,59.84082341,6299f149e92ead563fba08ef,62a4435a673a6953c9f8e356,,,,,,,,,,,,,,,,,,,,,,,,,,,,,,,,,,,,,,,,,,,,,,,,,,,,,,,,,,,,,,,,,,,,,,,,,,,,,,,,,,,,,,,,,,,,"[""period""]",0,22,0,22,0,1,[0.21519999999998163],,
,,,,,,,,,,,,5fda7563b679f24c4d4e3ef6,23,Mężczyzna,2022-06-11_09h25.25.227,task,2021.1.4,Win32,59.84082341,6299f149e92ead563fba08ef,62a4435a673a6953c9f8e356,,,,,,,,,,,,,,,,,,,,,,,,,,,,,,,,,,,,,,,,,,,,,,,,,,,,,,,,,,,,,,,,,,,,,,,,,,,,,,,,,,,,,,,,,,,,"[""period""]",0,23,0,23,0,1,[1.1602000000000885],,
,,,,,,,,,,,,5fda7563b679f24c4d4e3ef6,23,Mężczyzna,2022-06-11_09h25.25.227,task,2021.1.4,Win32,59.84082341,6299f149e92ead563fba08ef,62a4435a673a6953c9f8e356,,,,,,,,,,,,,,,,,,,,,,,,,,,,,,,,,,,,,,,,,,,,,,,,,,,,,,,,,,,,,,,,,,,,,,,,,,,,,,,,,,,,,,,,,,,,"[""comma""]",0,24,0,24,0,1,[0.5932999999999424],,
,,,,,,,,,,,,5fda7563b679f24c4d4e3ef6,23,Mężczyzna,2022-06-11_09h25.25.227,task,2021.1.4,Win32,59.84082341,6299f149e92ead563fba08ef,62a4435a673a6953c9f8e356,,,,,,,,,,,,,,,,,,,,,,,,,,,,,,,,,,,,,,,,,,,,,,,,,,,,,,,,,,,,,,,,,,,,,,,,,,,,,,,,,,,,,,,,,,,,"[""comma""]",0,25,0,25,0,1,[0.3945000000000505],,
,,,,,,,,,,,,5fda7563b679f24c4d4e3ef6,23,Mężczyzna,2022-06-11_09h25.25.227,task,2021.1.4,Win32,59.84082341,6299f149e92ead563fba08ef,62a4435a673a6953c9f8e356,,,,,,,,,,,,,,,,,,,,,,,,,,,,,,,,,,,,,,,,,,,,,,,,,,,,,,,,,,,,,,,,,,,,,,,,,,,,,,,,,,,,,,,,,,,,"[""period"",""comma""]",0,26,0,26,0,1,"[0.058800000000076125,1.7824000000000524]",,
,,,,,,,,,,,,5fda7563b679f24c4d4e3ef6,23,Mężczyzna,2022-06-11_09h25.25.227,task,2021.1.4,Win32,59.84082341,6299f149e92ead563fba08ef,62a4435a673a6953c9f8e356,,,,,,,,,,,,,,,,,,,,,,,,,,,,,,,,,,,,,,,,,,,,,,,,,,,,,,,,,,,,,,,,,,,,,,,,,,,,,,,,,,,,,,,,,,,,"[""comma""]",0,27,0,27,0,1,[1.8544999999999732],,
,,,,,,,,,,,,5fda7563b679f24c4d4e3ef6,23,Mężczyzna,2022-06-11_09h25.25.227,task,2021.1.4,Win32,59.84082341,6299f149e92ead563fba08ef,62a4435a673a6953c9f8e356,,,,,,,,,,,,,,,,,,,,,,,,,,,,,,,,,,,,,,,,,,,,,,,,,,,,,,,,,,,,,,,,,,,,,,,,,,,,,,,,,,,,,,,,,,,,"[""comma""]",0,28,0,28,0,1,[1.7151000000001204],,
,,,,,,,,,,,,5fda7563b679f24c4d4e3ef6,23,Mężczyzna,2022-06-11_09h25.25.227,task,2021.1.4,Win32,59.84082341,6299f149e92ead563fba08ef,62a4435a673a6953c9f8e356,,,,,,,,,,,,,,,,,,,,,,,,,,,,,,,,,,,,,,,,,,,,,,,,,,,,,,,,,,,,,,,,,,,,,,,,,,,,,,,,,,,,,,,,,,,,"[""comma""]",0,29,0,29,0,1,[1.7387000000000512],,
,,,,,,,,,,,,5fda7563b679f24c4d4e3ef6,23,Mężczyzna,2022-06-11_09h25.25.227,task,2021.1.4,Win32,59.84082341,6299f149e92ead563fba08ef,62a4435a673a6953c9f8e356,,,,,,,,,,,,,,,,,,,,,,,,,,,,,,,,,,,,,,,,,,,,,,,,,,,,,,,,,,,,,,,,,,,,,,,,,,,,,,,,,,,,,,,,,,,,"[""period""]",0,30,0,30,0,1,[1.8455000000000155],,
,,,,,,,,,,,,5fda7563b679f24c4d4e3ef6,23,Mężczyzna,2022-06-11_09h25.25.227,task,2021.1.4,Win32,59.84082341,6299f149e92ead563fba08ef,62a4435a673a6953c9f8e356,,,,,,,,,,,,,,,,,,,,,,,,,,,,,,,,,,,,,,,,,,,,,,,,,,,,,,,,,,,,,,,,,,,,,,,,,,,,,,,,,,,,,,,,,,,,,0,31,0,31,0,1,,,
,,,,,,,,,,,,5fda7563b679f24c4d4e3ef6,23,Mężczyzna,2022-06-11_09h25.25.227,task,2021.1.4,Win32,59.84082341,6299f149e92ead563fba08ef,62a4435a673a6953c9f8e356,,,,,,,,,,,,,,,,,,,,,,,,,,,,,,,,,,,,,,,,,,,,,,,,,,,,,,,,,,,,,,,,,,,,,,,,,,,,,,,,,,,,,,,,,,,,"[""period"",""comma""]",0,32,0,32,0,1,"[0.055499999999995,1.915200000000084]",,
,,,,,,,,,,,,5fda7563b679f24c4d4e3ef6,23,Mężczyzna,2022-06-11_09h25.25.227,task,2021.1.4,Win32,59.84082341,6299f149e92ead563fba08ef,62a4435a673a6953c9f8e356,,,,,,,,,,,,,,,,,,,,,,,,,,,,,,,,,,,,,,,,,,,,,,,,,,,,,,,,,,,,,,,,,,,,,,,,,,,,,,,,,,,,,,,,,,,,"[""period""]",0,33,0,33,0,1,[1.6585999999999785],,
,,,,,,,,,,,,5fda7563b679f24c4d4e3ef6,23,Mężczyzna,2022-06-11_09h25.25.227,task,2021.1.4,Win32,59.84082341,6299f149e92ead563fba08ef,62a4435a673a6953c9f8e356,,,,,,,,,,,,,,,,,,,,,,,,,,,,,,,,,,,,,,,,,,,,,,,,,,,,,,,,,,,,,,,,,,,,,,,,,,,,,,,,,,,,,,,,,,,,"[""comma""]",0,34,0,34,0,1,[1.6989000000000374],,
,,,,,,,,,,,,5fda7563b679f24c4d4e3ef6,23,Mężczyzna,2022-06-11_09h25.25.227,task,2021.1.4,Win32,59.84082341,6299f149e92ead563fba08ef,62a4435a673a6953c9f8e356,,,,,,,,,,,,,,,,,,,,,,,,,,,,,,,,,,,,,,,,,,,,,,,,,,,,,,,,,,,,,,,,,,,,,,,,,,,,,,,,,,,,,,,,,,,,"[""comma""]",0,35,0,35,0,1,[1.7600999999999658],,
,,,,,,,,,,,,5fda7563b679f24c4d4e3ef6,23,Mężczyzna,2022-06-11_09h25.25.227,task,2021.1.4,Win32,59.84082341,6299f149e92ead563fba08ef,62a4435a673a6953c9f8e356,,,,,,,,,,,,,,,,,,,,,,,,,,,,,,,,,,,,,,,,,,,,,,,,,,,,,,,,,,,,,,,,,,,,,,,,,,,,,,,,,,,,,,,,,,,,"[""period""]",0,36,0,36,0,1,[1.5714000000000397],,
,,,,,,,,,,,,5fda7563b679f24c4d4e3ef6,23,Mężczyzna,2022-06-11_09h25.25.227,task,2021.1.4,Win32,59.84082341,6299f149e92ead563fba08ef,62a4435a673a6953c9f8e356,,,,,,,,,,,,,,,,,,,,,,,,,,,,,,,,,,,,,,,,,,,,,,,,,,,,,,,,,,,,,,,,,,,,,,,,,,,,,,,,,,,,,,,,,,,,"[""comma""]",0,37,0,37,0,1,[1.6984000000000492],,
,,,,,,,,,,,,5fda7563b679f24c4d4e3ef6,23,Mężczyzna,2022-06-11_09h25.25.227,task,2021.1.4,Win32,59.84082341,6299f149e92ead563fba08ef,62a4435a673a6953c9f8e356,,,,,,,,,,,,,,,,,,,,,,,,,,,,,,,,,,,,,,,,,,,,,,,,,,,,,,,,,,,,,,,,,,,,,,,,,,,,,,,,,,,,,,,,,,,,,0,38,0,38,0,1,,,
,,,,,,,,,,,,5fda7563b679f24c4d4e3ef6,23,Mężczyzna,2022-06-11_09h25.25.227,task,2021.1.4,Win32,59.84082341,6299f149e92ead563fba08ef,62a4435a673a6953c9f8e356,,,,,,,,,,,,,,,,,,,,,,,,,,,,,,,,,,,,,,,,,,,,,,,,,,,,,,,,,,,,,,,,,,,,,,,,,,,,,,,,,,,,,,,,,,,,"[""comma""]",0,39,0,39,0,1,[0.6820999999999913],,
,,,,,,,,,,,,5fda7563b679f24c4d4e3ef6,23,Mężczyzna,2022-06-11_09h25.25.227,task,2021.1.4,Win32,59.84082341,6299f149e92ead563fba08ef,62a4435a673a6953c9f8e356,,,,,,,,,,,,,,,,,,,,,,,,,,,,,,,,,,,,,,,,,,,,,,,,,,,,,,,,,,,,,,,,,,,,,,,,,,,,,,,,,,,,,,,,,,,,"[""period""]",0,40,0,40,0,1,[1.1718999999999369],,
,,,,,,,,,,,,5fda7563b679f24c4d4e3ef6,23,Mężczyzna,2022-06-11_09h25.25.227,task,2021.1.4,Win32,59.84082341,6299f149e92ead563fba08ef,62a4435a673a6953c9f8e356,,,,,,,,,,,,,,,,,,,,,,,,,,,,,,,,,,,,,,,,,,,,,,,,,,,,,,,,,,,,,,,,,,,,,,,,,,,,,,,,,,,,,,,,,,,,"[""comma""]",0,41,0,41,0,1,[1.0559000000000651],,
,,,,,,,,,,,,5fda7563b679f24c4d4e3ef6,23,Mężczyzna,2022-06-11_09h25.25.227,task,2021.1.4,Win32,59.84082341,6299f149e92ead563fba08ef,62a4435a673a6953c9f8e356,,,,,,,,,,,,,,,,,,,,,,,,,,,,,,,,,,,,,,,,,,,,,,,,,,,,,,,,,,,,,,,,,,,,,,,,,,,,,,,,,,,,,,,,,,,,,0,42,0,42,0,1,,,
,,,,,,,,,,,,5fda7563b679f24c4d4e3ef6,23,Mężczyzna,2022-06-11_09h25.25.227,task,2021.1.4,Win32,59.84082341,6299f149e92ead563fba08ef,62a4435a673a6953c9f8e356,,,,,,,,,,,,,,,,,,,,,,,,,,,,,,,,,,,,,,,,,,,,,,,,,,,,,,,,,,,,,,,,,,,,,,,,,,,,,,,,,,,,,,,,,,,,"[""comma""]",0,43,0,43,0,1,[1.067700000000059],,
,,,,,,,,,,,,5fda7563b679f24c4d4e3ef6,23,Mężczyzna,2022-06-11_09h25.25.227,task,2021.1.4,Win32,59.84082341,6299f149e92ead563fba08ef,62a4435a673a6953c9f8e356,,,,,,,,,,,,,,,,,,,,,,,,,,,,,,,,,,,,,,,,,,,,,,,,,,,,,,,,,,,,,,,,,,,,,,,,,,,,,,,,,,,,,,,,,,,,,0,44,0,44,0,1,,,
,,,,,,,,,,,,5fda7563b679f24c4d4e3ef6,23,Mężczyzna,2022-06-11_09h25.25.227,task,2021.1.4,Win32,59.84082341,6299f149e92ead563fba08ef,62a4435a673a6953c9f8e356,,,,,,,,,,,,,,,,,,,,,,,,,,,,,,,,,,,,,,,,,,,,,,,,,,,,,,,,,,,,,,,,,,,,,,,,,,,,,,,,,,,,,,,,,,,,,0,45,0,45,0,1,,,
,,,,,,,,,,,,5fda7563b679f24c4d4e3ef6,23,Mężczyzna,2022-06-11_09h25.25.227,task,2021.1.4,Win32,59.84082341,6299f149e92ead563fba08ef,62a4435a673a6953c9f8e356,,,,,,,,,,,,,,,,,,,,,,,,,,,,,,,,,,,,,,,,,,,,,,,,,,,,,,,,,,,,,,,,,,,,,,,,,,,,,,,,,,,,,,,,,,,,"[""comma""]",0,46,0,46,0,1,[0.4913999999999419],,
,,,,,,,,,,,,5fda7563b679f24c4d4e3ef6,23,Mężczyzna,2022-06-11_09h25.25.227,task,2021.1.4,Win32,59.84082341,6299f149e92ead563fba08ef,62a4435a673a6953c9f8e356,,,,,,,,,,,,,,,,,,,,,,,,,,,,,,,,,,,,,,,,,,,,,,,,,,,,,,,,,,,,,,,,,,,,,,,,,,,,,,,,,,,,,,,,,,,,"[""comma""]",0,47,0,47,0,1,[0.531599999999969],,
,,,,,,,,,,,,5fda7563b679f24c4d4e3ef6,23,Mężczyzna,2022-06-11_09h25.25.227,task,2021.1.4,Win32,59.84082341,6299f149e92ead563fba08ef,62a4435a673a6953c9f8e356,,,,,,,,,,,,,,,,,,,,,,,,,,,,,,,,,,,,,,,,,,,,,,,,,,,,,,,,,,,,,,,,,,,,,,,,,,,,,,,,,,,,,,,,,,,,"[""period"",""comma""]",0,48,0,48,0,1,"[0.25929999999993925,1.886799999999937]",,
,,,,,,,,,,,,5fda7563b679f24c4d4e3ef6,23,Mężczyzna,2022-06-11_09h25.25.227,task,2021.1.4,Win32,59.84082341,6299f149e92ead563fba08ef,62a4435a673a6953c9f8e356,,,,,,,,,,,,,,,,,,,,,,,,,,,,,,,,,,,,,,,,,,,,,,,,,,,,,,,,,,,,,,,,,,,,,,,,,,,,,,,,,,,,,,,,,,,,,0,49,0,49,0,1,,,
,,,,,,,,,,,,5fda7563b679f24c4d4e3ef6,23,Mężczyzna,2022-06-11_09h25.25.227,task,2021.1.4,Win32,59.84082341,6299f149e92ead563fba08ef,62a4435a673a6953c9f8e356,,,,,,,,,,,,,,,,,,,,,,,,,,,,,,,,,,,,,,,,,,,,,,,,,,,,,,,,,,,,,,,,,,,,,,,,,,,,,,,,,,,,,,,,,,,,"[""period""]",0,50,0,50,0,1,[1.3316999999999553],,
,,,,,,,,,,,,5fda7563b679f24c4d4e3ef6,23,Mężczyzna,2022-06-11_09h25.25.227,task,2021.1.4,Win32,59.84082341,6299f149e92ead563fba08ef,62a4435a673a6953c9f8e356,,,,,,,,,,,,,,,,,,,,,,,,,,,,,,,,,,,,,,,,,,,,,,,,,,,,,,,,,,,,,,,,,,,,,,,,,,,,,,,,,,,,,,,,,,,,"[""period""]",0,51,0,51,0,1,[0.6832999999999743],,
,,,,,,,,,,,,5fda7563b679f24c4d4e3ef6,23,Mężczyzna,2022-06-11_09h25.25.227,task,2021.1.4,Win32,59.84082341,6299f149e92ead563fba08ef,62a4435a673a6953c9f8e356,,,,,,,,,,,,,,,,,,,,,,,,,,,,,,,,,,,,,,,,,,,,,,,,,,,,,,,,,,,,,,,,,,,,,,,,,,,,,,,,,,,,,,,,,,,,"[""comma""]",0,52,0,52,0,1,[0.49369999999993297],,
,,,,,,,,,,,,5fda7563b679f24c4d4e3ef6,23,Mężczyzna,2022-06-11_09h25.25.227,task,2021.1.4,Win32,59.84082341,6299f149e92ead563fba08ef,62a4435a673a6953c9f8e356,,,,,,,,,,,,,,,,,,,,,,,,,,,,,,,,,,,,,,,,,,,,,,,,,,,,,,,,,,,,,,,,,,,,,,,,,,,,,,,,,,,,,,,,,,,,"[""comma""]",0,53,0,53,0,1,[0.30049999999999955],,
,,,,,,,,,,,,5fda7563b679f24c4d4e3ef6,23,Mężczyzna,2022-06-11_09h25.25.227,task,2021.1.4,Win32,59.84082341,6299f149e92ead563fba08ef,62a4435a673a6953c9f8e356,,,,,,,,,,,,,,,,,,,,,,,,,,,,,,,,,,,,,,,,,,,,,,,,,,,,,,,,,,,,,,,,,,,,,,,,,,,,,,,,,,,,,,,,,,,,"[""comma""]",0,54,0,54,0,1,[0.3836000000000581],,
,,,,,,,,,,,,5fda7563b679f24c4d4e3ef6,23,Mężczyzna,2022-06-11_09h25.25.227,task,2021.1.4,Win32,59.84082341,6299f149e92ead563fba08ef,62a4435a673a6953c9f8e356,,,,,,,,,,,,,,,,,,,,,,,,,,,,,,,,,,,,,,,,,,,,,,,,,,,,,,,,,,,,,,,,,,,,,,,,,,,,,,,,,,,,,,,,,,,,"[""period""]",0,55,0,55,0,1,[0.6348000000000411],,
,,,,,,,,,,,,5fda7563b679f24c4d4e3ef6,23,Mężczyzna,2022-06-11_09h25.25.227,task,2021.1.4,Win32,59.84082341,6299f149e92ead563fba08ef,62a4435a673a6953c9f8e356,,,,,,,,,,,,,,,,,,,,,,,,,,,,,,,,,,,,,,,,,,,,,,,,,,,,,,,,,,,,,,,,,,,,,,,,,,,,,,,,,,,,,,,,,,,,"[""comma"",""period""]",0,56,0,56,0,1,"[0.09159999999997126,1.779700000000048]",,
,,,,,,,,,,,,5fda7563b679f24c4d4e3ef6,23,Mężczyzna,2022-06-11_09h25.25.227,task,2021.1.4,Win32,59.84082341,6299f149e92ead563fba08ef,62a4435a673a6953c9f8e356,,,,,,,,,,,,,,,,,,,,,,,,,,,,,,,,,,,,,,,,,,,,,,,,,,,,,,,,,,,,,,,,,,,,,,,,,,,,,,,,,,,,,,,,,,,,"[""comma""]",0,57,0,57,0,1,[1.4834999999999923],,
,,,,,,,,,,,,5fda7563b679f24c4d4e3ef6,23,Mężczyzna,2022-06-11_09h25.25.227,task,2021.1.4,Win32,59.84082341,6299f149e92ead563fba08ef,62a4435a673a6953c9f8e356,,,,,,,,,,,,,,,,,,,,,,,,,,,,,,,,,,,,,,,,,,,,,,,,,,,,,,,,,,,,,,,,,,,,,,,,,,,,,,,,,,,,,,,,,,,,"[""comma""]",0,58,0,58,0,1,[0.5819000000000187],,
,,,,,,,,,,,,5fda7563b679f24c4d4e3ef6,23,Mężczyzna,2022-06-11_09h25.25.227,task,2021.1.4,Win32,59.84082341,6299f149e92ead563fba08ef,62a4435a673a6953c9f8e356,,,,,,,,,,,,,,,,,,,,,,,,,,,,,,,,,,,,,,,,,,,,,,,,,,,,,,,,,,,,,,,,,,,,,,,,,,,,,,,,,,,,,,,,,,,,"[""comma""]",0,59,0,59,0,1,[0.18870000000009668],,
,,,,,,,,,,,,5fda7563b679f24c4d4e3ef6,23,Mężczyzna,2022-06-11_09h25.25.227,task,2021.1.4,Win32,59.84082341,6299f149e92ead563fba08ef,62a4435a673a6953c9f8e356,,,,,,,,,,,,,,,,,,,,,,,,,,,,,,,,,,,,,,,,,,,,,,,,,,,,,,,,,,,,,,,,,,,,,,,,,,,,,,,,,,,,,,,,,,,,"[""comma""]",0,60,0,60,0,1,[0.5817999999999302],,
,,,,,,,,,,,,5fda7563b679f24c4d4e3ef6,23,Mężczyzna,2022-06-11_09h25.25.227,task,2021.1.4,Win32,59.84082341,6299f149e92ead563fba08ef,62a4435a673a6953c9f8e356,,,,,,,,,,,,,,,,,,,,,,,,,,,,,,,,,,,,,,,,,,,,,,,,,,,,,,,,,,,,,,,,,,,,,,,,,,,,,,,,,,,,,,,,,,,,"[""comma""]",0,61,0,61,0,1,[0.472500000000025],,
,,,,,,,,,,,,5fda7563b679f24c4d4e3ef6,23,Mężczyzna,2022-06-11_09h25.25.227,task,2021.1.4,Win32,59.84082341,6299f149e92ead563fba08ef,62a4435a673a6953c9f8e356,,,,,,,,,,,,,,,,,,,,,,,,,,,,,,,,,,,,,,,,,,,,,,,,,,,,,,,,,,,,,,,,,,,,,,,,,,,,,,,,,,,,,,,,,,,,"[""period"",""comma""]",0,62,0,62,0,1,"[0.016999999999995907,1.817700000000059]",,
,,,,,,,,,,,,5fda7563b679f24c4d4e3ef6,23,Mężczyzna,2022-06-11_09h25.25.227,task,2021.1.4,Win32,59.84082341,6299f149e92ead563fba08ef,62a4435a673a6953c9f8e356,,,,,,,,,,,,,,,,,,,,,,,,,,,,,,,,,,,,,,,,,,,,,,,,,,,,,,,,,,,,,,,,,,,,,,,,,,,,,,,,,,,,,,,,,,,,"[""comma""]",0,63,0,63,0,1,[1.6982999999999038],,
,,,,,,,,,,,,5fda7563b679f24c4d4e3ef6,23,Mężczyzna,2022-06-11_09h25.25.227,task,2021.1.4,Win32,59.84082341,6299f149e92ead563fba08ef,62a4435a673a6953c9f8e356,,,,,,,,,,,,,,,,,,,,,,,,,,,,,,,,,,,,,,,,,,,,,,,,,,,,,,,,,,,,,,,,,,,,,,,,,,,,,,,,,,,,,,,,,,,,"[""period""]",0,64,0,64,0,1,[1.8444999999999823],,
,,,,,,,,,,,,5fda7563b679f24c4d4e3ef6,23,Mężczyzna,2022-06-11_09h25.25.227,task,2021.1.4,Win32,59.84082341,6299f149e92ead563fba08ef,62a4435a673a6953c9f8e356,,,,,,,,,,,,,,,,,,,,,,,,,,,,,,,,,,,,,,,,,,,,,,,,,,,,,,,,,,,,,,,,,,,,,,,,,,,,,,,,,,,,,,,,,,,,,0,65,0,65,0,1,,,
,,,,,,,,,,,,5fda7563b679f24c4d4e3ef6,23,Mężczyzna,2022-06-11_09h25.25.227,task,2021.1.4,Win32,59.84082341,6299f149e92ead563fba08ef,62a4435a673a6953c9f8e356,,,,,,,,,,,,,,,,,,,,,,,,,,,,,,,,,,,,,,,,,,,,,,,,,,,,,,,,,,,,,,,,,,,,,,,,,,,,,,,,,,,,,,,,,,,,"[""period""]",0,66,0,66,0,1,[0.04860000000007858],,
,,,,,,,,,,,,5fda7563b679f24c4d4e3ef6,23,Mężczyzna,2022-06-11_09h25.25.227,task,2021.1.4,Win32,59.84082341,6299f149e92ead563fba08ef,62a4435a673a6953c9f8e356,,,,,,,,,,,,,,,,,,,,,,,,,,,,,,,,,,,,,,,,,,,,,,,,,,,,,,,,,,,,,,,,,,,,,,,,,,,,,,,,,,,,,,,,,,,,"[""comma"",""period""]",0,67,0,67,0,1,"[0.29929999999990287,1.8219000000000278]",,
,,,,,,,,,,,,5fda7563b679f24c4d4e3ef6,23,Mężczyzna,2022-06-11_09h25.25.227,task,2021.1.4,Win32,59.84082341,6299f149e92ead563fba08ef,62a4435a673a6953c9f8e356,,,,,,,,,,,,,,,,,,,,,,,,,,,,,,,,,,,,,,,,,,,,,,,,,,,,,,,,,,,,,,,,,,,,,,,,,,,,,,,,,,,,,,,,,,,,"[""period""]",0,68,0,68,0,1,[1.4673999999999978],,
,,,,,,,,,,,,5fda7563b679f24c4d4e3ef6,23,Mężczyzna,2022-06-11_09h25.25.227,task,2021.1.4,Win32,59.84082341,6299f149e92ead563fba08ef,62a4435a673a6953c9f8e356,,,,,,,,,,,,,,,,,,,,,,,,,,,,,,,,,,,,,,,,,,,,,,,,,,,,,,,,,,,,,,,,,,,,,,,,,,,,,,,,,,,,,,,,,,,,"[""period"",""comma""]",0,69,0,69,0,1,"[0.5769999999999982,1.9218000000000188]",,
,,,,,,,,,,,,5fda7563b679f24c4d4e3ef6,23,Mężczyzna,2022-06-11_09h25.25.227,task,2021.1.4,Win32,59.84082341,6299f149e92ead563fba08ef,62a4435a673a6953c9f8e356,,,,,,,,,,,,,,,,,,,,,,,,,,,,,,,,,,,,,,,,,,,,,,,,,,,,,,,,,,,,,,,,,,,,,,,,,,,,,,,,,,,,,,,,,,,,"[""period""]",0,70,0,70,0,1,[1.7519000000000347],,
,,,,,,,,,,,,5fda7563b679f24c4d4e3ef6,23,Mężczyzna,2022-06-11_09h25.25.227,task,2021.1.4,Win32,59.84082341,6299f149e92ead563fba08ef,62a4435a673a6953c9f8e356,,,,,,,,,,,,,,,,,,,,,,,,,,,,,,,,,,,,,,,,,,,,,,,,,,,,,,,,,,,,,,,,,,,,,,,,,,,,,,,,,,,,,,,,,,,,"[""comma""]",0,71,0,71,0,1,[1.753400000000056],,
,,,,,,,,,,,,5fda7563b679f24c4d4e3ef6,23,Mężczyzna,2022-06-11_09h25.25.227,task,2021.1.4,Win32,59.84082341,6299f149e92ead563fba08ef,62a4435a673a6953c9f8e356,,,,,,,,,,,,,,,,,,,,,,,,,,,,,,,,,,,,,,,,,,,,,,,,,,,,,,,,,,,,,,,,,,,,,,,,,,,,,,,,,,,,,,,,,,,,"[""period""]",0,72,0,72,0,1,[1.5885999999999285],,
,,,,,,,,,,,,5fda7563b679f24c4d4e3ef6,23,Mężczyzna,2022-06-11_09h25.25.227,task,2021.1.4,Win32,59.84082341,6299f149e92ead563fba08ef,62a4435a673a6953c9f8e356,,,,,,,,,,,,,,,,,,,,,,,,,,,,,,,,,,,,,,,,,,,,,,,,,,,,,,,,,,,,,,,,,,,,,,,,,,,,,,,,,,,,,,,,,,,,"[""comma""]",0,73,0,73,0,1,[1.189700000000073],,
,,,,,,,,,,,,5fda7563b679f24c4d4e3ef6,23,Mężczyzna,2022-06-11_09h25.25.227,task,2021.1.4,Win32,59.84082341,6299f149e92ead563fba08ef,62a4435a673a6953c9f8e356,,,,,,,,,,,,,,,,,,,,,,,,,,,,,,,,,,,,,,,,,,,,,,,,,,,,,,,,,,,,,,,,,,,,,,,,,,,,,,,,,,,,,,,,,,,,"[""period""]",0,74,0,74,0,1,[1.4313999999999396],,
,,,,,,,,,,,,5fda7563b679f24c4d4e3ef6,23,Mężczyzna,2022-06-11_09h25.25.227,task,2021.1.4,Win32,59.84082341,6299f149e92ead563fba08ef,62a4435a673a6953c9f8e356,,,,,,,,,,,,,,,,,,,,,,,,,,,,,,,,,,,,,,,,,,,,,,,,,,,,,,,,,,,,,,,,,,,,,,,,,,,,,,,,,,,,,,,,,,,,"[""period""]",0,75,0,75,0,1,[1.1485000000000127],,
,,,,,,,,,,,,5fda7563b679f24c4d4e3ef6,23,Mężczyzna,2022-06-11_09h25.25.227,task,2021.1.4,Win32,59.84082341,6299f149e92ead563fba08ef,62a4435a673a6953c9f8e356,,,,,,,,,,,,,,,,,,,,,,,,,,,,,,,,,,,,,,,,,,,,,,,,,,,,,,,,,,,,,,,,,,,,,,,,,,,,,,,,,,,,,,,,,,,,"[""period""]",0,76,0,76,0,1,[1.4403999999999542],,
,,,,,,,,,,,,5fda7563b679f24c4d4e3ef6,23,Mężczyzna,2022-06-11_09h25.25.227,task,2021.1.4,Win32,59.84082341,6299f149e92ead563fba08ef,62a4435a673a6953c9f8e356,,,,,,,,,,,,,,,,,,,,,,,,,,,,,,,,,,,,,,,,,,,,,,,,,,,,,,,,,,,,,,,,,,,,,,,,,,,,,,,,,,,,,,,,,,,,"[""comma""]",0,77,0,77,0,1,[0.9679999999999609],,
,,,,,,,,,,,,5fda7563b679f24c4d4e3ef6,23,Mężczyzna,2022-06-11_09h25.25.227,task,2021.1.4,Win32,59.84082341,6299f149e92ead563fba08ef,62a4435a673a6953c9f8e356,,,,,,,,,,,,,,,,,,,,,,,,,,,,,,,,,,,,,,,,,,,,,,,,,,,,,,,,,,,,,,,,,,,,,,,,,,,,,,,,,,,,,,,,,,,,"[""period""]",0,78,0,78,0,1,[0.5820999999999685],,
,,,,,,,,,,,,5fda7563b679f24c4d4e3ef6,23,Mężczyzna,2022-06-11_09h25.25.227,task,2021.1.4,Win32,59.84082341,6299f149e92ead563fba08ef,62a4435a673a6953c9f8e356,,,,,,,,,,,,,,,,,,,,,,,,,,,,,,,,,,,,,,,,,,,,,,,,,,,,,,,,,,,,,,,,,,,,,,,,,,,,,,,,,,,,,,,,,,,,"[""comma""]",0,79,0,79,0,1,[0.5671999999999571],,
,,,,,,,,,,,,5fda7563b679f24c4d4e3ef6,23,Mężczyzna,2022-06-11_09h25.25.227,task,2021.1.4,Win32,59.84082341,6299f149e92ead563fba08ef,62a4435a673a6953c9f8e356,,,,,,,,,,,,,,,,,,,,,,,,,,,,,,,,,,,,,,,,,,,,,,,,,,,,,,,,,,,,,,,,,,,,,,,,,,,,,,,,,,,,,,,,,,,,"[""period""]",0,80,0,80,0,1,[0.33209999999996853],,
,,,,,,,,,,,,5fda7563b679f24c4d4e3ef6,23,Mężczyzna,2022-06-11_09h25.25.227,task,2021.1.4,Win32,59.84082341,6299f149e92ead563fba08ef,62a4435a673a6953c9f8e356,,,,,,,,,,,,,,,,,,,,,,,,,,,,,,,,,,,,,,,,,,,,,,,,,,,,,,,,,,,,,,,,,,,,,,,,,,,,,,,,,,,,,,,,,,,,"[""comma""]",0,81,0,81,0,1,[0.9653000000000702],,
,,,,,,,,,,,,5fda7563b679f24c4d4e3ef6,23,Mężczyzna,2022-06-11_09h25.25.227,task,2021.1.4,Win32,59.84082341,6299f149e92ead563fba08ef,62a4435a673a6953c9f8e356,,,,,,,,,,,,,,,,,,,,,,,,,,,,,,,,,,,,,,,,,,,,,,,,,,,,,,,,,,,,,,,,,,,,,,,,,,,,,,,,,,,,,,,,,,,,"[""period""]",0,82,0,82,0,1,[0.6991999999999052],,
,,,,,,,,,,,,5fda7563b679f24c4d4e3ef6,23,Mężczyzna,2022-06-11_09h25.25.227,task,2021.1.4,Win32,59.84082341,6299f149e92ead563fba08ef,62a4435a673a6953c9f8e356,,,,,,,,,,,,,,,,,,,,,,,,,,,,,,,,,,,,,,,,,,,,,,,,,,,,,,,,,,,,,,,,,,,,,,,,,,,,,,,,,,,,,,,,,,,,"[""comma""]",0,83,0,83,0,1,[0.44839999999999236],,
,,,,,,,,,,,,5fda7563b679f24c4d4e3ef6,23,Mężczyzna,2022-06-11_09h25.25.227,task,2021.1.4,Win32,59.84082341,6299f149e92ead563fba08ef,62a4435a673a6953c9f8e356,,,,,,,,,,,,,,,,,,,,,,,,,,,,,,,,,,,,,,,,,,,,,,,,,,,,,,,,,,,,,,,,,,,,,,,,,,,,,,,,,,,,,,,,,,,,"[""period"",""comma""]",0,84,0,84,0,1,"[0.28499999999996817,1.736699999999928]",,
,,,,,,,,,,,,5fda7563b679f24c4d4e3ef6,23,Mężczyzna,2022-06-11_09h25.25.227,task,2021.1.4,Win32,59.84082341,6299f149e92ead563fba08ef,62a4435a673a6953c9f8e356,,,,,,,,,,,,,,,,,,,,,,,,,,,,,,,,,,,,,,,,,,,,,,,,,,,,,,,,,,,,,,,,,,,,,,,,,,,,,,,,,,,,,,,,,,,,"[""period""]",0,85,0,85,0,1,[1.6206000000000813],,
,,,,,,,,,,,,5fda7563b679f24c4d4e3ef6,23,Mężczyzna,2022-06-11_09h25.25.227,task,2021.1.4,Win32,59.84082341,6299f149e92ead563fba08ef,62a4435a673a6953c9f8e356,,,,,,,,,,,,,,,,,,,,,,,,,,,,,,,,,,,,,,,,,,,,,,,,,,,,,,,,,,,,,,,,,,,,,,,,,,,,,,,,,,,,,,,,,,,,"[""comma""]",0,86,0,86,0,1,[1.375099999999975],,
,,,,,,,,,,,,5fda7563b679f24c4d4e3ef6,23,Mężczyzna,2022-06-11_09h25.25.227,task,2021.1.4,Win32,59.84082341,6299f149e92ead563fba08ef,62a4435a673a6953c9f8e356,,,,,,,,,,,,,,,,,,,,,,,,,,,,,,,,,,,,,,,,,,,,,,,,,,,,,,,,,,,,,,,,,,,,,,,,,,,,,,,,,,,,,,,,,,,,"[""period""]",0,87,0,87,0,1,[0.5236999999999625],,
,,,,,,,,,,,,5fda7563b679f24c4d4e3ef6,23,Mężczyzna,2022-06-11_09h25.25.227,task,2021.1.4,Win32,59.84082341,6299f149e92ead563fba08ef,62a4435a673a6953c9f8e356,,,,,,,,,,,,,,,,,,,,,,,,,,,,,,,,,,,,,,,,,,,,,,,,,,,,,,,,,,,,,,,,,,,,,,,,,,,,,,,,,,,,,,,,,,,,"[""comma"",""period""]",0,88,0,88,0,1,"[0.31100000000003547,1.566500000000019]",,
,,,,,,,,,,,,5fda7563b679f24c4d4e3ef6,23,Mężczyzna,2022-06-11_09h25.25.227,task,2021.1.4,Win32,59.84082341,6299f149e92ead563fba08ef,62a4435a673a6953c9f8e356,,,,,,,,,,,,,,,,,,,,,,,,,,,,,,,,,,,,,,,,,,,,,,,,,,,,,,,,,,,,,,,,,,,,,,,,,,,,,,,,,,,,,,,,,,,,"[""comma""]",0,89,0,89,0,1,[0.872899999999845],,
,,,,,,,,,,,,5fda7563b679f24c4d4e3ef6,23,Mężczyzna,2022-06-11_09h25.25.227,task,2021.1.4,Win32,59.84082341,6299f149e92ead563fba08ef,62a4435a673a6953c9f8e356,,,,,,,,,,,,,,,,,,,,,,,,,,,,,,,,,,,,,,,,,,,,,,,,,,,,,,,,,,,,,,,,,,,,,,,,,,,,,,,,,,,,,,,,,,,,"[""period"",""comma""]",0,90,0,90,0,1,"[0.5765999999999849,1.5334000000000287]",,
,,,,,,,,,,,,5fda7563b679f24c4d4e3ef6,23,Mężczyzna,2022-06-11_09h25.25.227,task,2021.1.4,Win32,59.84082341,6299f149e92ead563fba08ef,62a4435a673a6953c9f8e356,,,,,,,,,,,,,,,,,,,,,,,,,,,,,,,,,,,,,,,,,,,,,,,,,,,,,,,,,,,,,,,,,,,,,,,,,,,,,,,,,,,,,,,,,,,,"[""period""]",0,91,0,91,0,1,[0.9171000000000049],,
,,,,,,,,,,,,5fda7563b679f24c4d4e3ef6,23,Mężczyzna,2022-06-11_09h25.25.227,task,2021.1.4,Win32,59.84082341,6299f149e92ead563fba08ef,62a4435a673a6953c9f8e356,,,,,,,,,,,,,,,,,,,,,,,,,,,,,,,,,,,,,,,,,,,,,,,,,,,,,,,,,,,,,,,,,,,,,,,,,,,,,,,,,,,,,,,,,,,,"[""comma""]",0,92,0,92,0,1,[0.5854999999999109],,
,,,,,,,,,,,,5fda7563b679f24c4d4e3ef6,23,Mężczyzna,2022-06-11_09h25.25.227,task,2021.1.4,Win32,59.84082341,6299f149e92ead563fba08ef,62a4435a673a6953c9f8e356,,,,,,,,,,,,,,,,,,,,,,,,,,,,,,,,,,,,,,,,,,,,,,,,,,,,,,,,,,,,,,,,,,,,,,,,,,,,,,,,,,,,,,,,,,,,"[""comma""]",0,93,0,93,0,1,[0.19300000000009732],,
,,,,,,,,,,,,5fda7563b679f24c4d4e3ef6,23,Mężczyzna,2022-06-11_09h25.25.227,task,2021.1.4,Win32,59.84082341,6299f149e92ead563fba08ef,62a4435a673a6953c9f8e356,,,,,,,,,,,,,,,,,,,,,,,,,,,,,,,,,,,,,,,,,,,,,,,,,,,,,,,,,,,,,,,,,,,,,,,,,,,,,,,,,,,,,,,,,,,,"[""period"",""comma""]",0,94,0,94,0,1,"[0.26890000000003056,1.7293000000000802]",,
,,,,,,,,,,,,5fda7563b679f24c4d4e3ef6,23,Mężczyzna,2022-06-11_09h25.25.227,task,2021.1.4,Win32,59.84082341,6299f149e92ead563fba08ef,62a4435a673a6953c9f8e356,,,,,,,,,,,,,,,,,,,,,,,,,,,,,,,,,,,,,,,,,,,,,,,,,,,,,,,,,,,,,,,,,,,,,,,,,,,,,,,,,,,,,,,,,,,,"[""period""]",0,95,0,95,0,1,[1.1587999999999283],,
,,,,,,,,,,,,5fda7563b679f24c4d4e3ef6,23,Mężczyzna,2022-06-11_09h25.25.227,task,2021.1.4,Win32,59.84082341,6299f149e92ead563fba08ef,62a4435a673a6953c9f8e356,,,,,,,,,,,,,,,,,,,,,,,,,,,,,,,,,,,,,,,,,,,,,,,,,,,,,,,,,,,,,,,,,,,,,,,,,,,,,,,,,,,,,,,,,,,,"[""comma""]",0,96,0,96,0,1,[0.9216999999999871],,
,,,,,,,,,,,,5fda7563b679f24c4d4e3ef6,23,Mężczyzna,2022-06-11_09h25.25.227,task,2021.1.4,Win32,59.84082341,6299f149e92ead563fba08ef,62a4435a673a6953c9f8e356,,,,,,,,,,,,,,,,,,,,,,,,,,,,,,,,,,,,,,,,,,,,,,,,,,,,,,,,,,,,,,,,,,,,,,,,,,,,,,,,,,,,,,,,,,,,"[""period""]",0,97,0,97,0,1,[0.7944999999999709],,
,,,,,,,,,,,,5fda7563b679f24c4d4e3ef6,23,Mężczyzna,2022-06-11_09h25.25.227,task,2021.1.4,Win32,59.84082341,6299f149e92ead563fba08ef,62a4435a673a6953c9f8e356,,,,,,,,,,,,,,,,,,,,,,,,,,,,,,,,,,,,,,,,,,,,,,,,,,,,,,,,,,,,,,,,,,,,,,,,,,,,,,,,,,,,,,,,,,,,"[""period""]",0,98,0,98,0,1,[0.9429000000000087],,
,,,,,,,,,,,,5fda7563b679f24c4d4e3ef6,23,Mężczyzna,2022-06-11_09h25.25.227,task,2021.1.4,Win32,59.84082341,6299f149e92ead563fba08ef,62a4435a673a6953c9f8e356,,,,,,,,,,,,,,,,,,,,,,,,,,,,,,,,,,,,,,,,,,,,,,,,,,,,,,,,,,,,,,,,,,,,,,,,,,,,,,,,,,,,,,,,,,,,"[""comma"",""comma""]",0,99,0,99,0,1,"[0.2984000000000151,1.8500999999999976]",,
,,,,,,,,,,,,5fda7563b679f24c4d4e3ef6,23,Mężczyzna,2022-06-11_09h25.25.227,task,2021.1.4,Win32,59.84082341,6299f149e92ead563fba08ef,62a4435a673a6953c9f8e356,,,,,,,,,,,,,,,,,,,,,,,,,,,,,,,,,,,,,,,,,,,,,,,,,,,,,,,,,,,,,,,,,,,,,,,,,,,,,,,,,,,,,,,,,,,,"[""period""]",0,100,0,100,0,1,[1.3735999999998967],,
,,,,,,,,,,,,5fda7563b679f24c4d4e3ef6,23,Mężczyzna,2022-06-11_09h25.25.227,task,2021.1.4,Win32,59.84082341,6299f149e92ead563fba08ef,62a4435a673a6953c9f8e356,,,,,,,,,,,,,,,,,,,,,,,,,,,,,,,,,,,,,,,,,,,,,,,,,,,,,,,,,,,,,,,,,,,,,,,,,,,,,,,,,,,,,,,,,,,,"[""comma"",""period""]",0,101,0,101,0,1,"[0.6417999999999893,1.9350999999999203]",,
,,,,,,,,,,,,5fda7563b679f24c4d4e3ef6,23,Mężczyzna,2022-06-11_09h25.25.227,task,2021.1.4,Win32,59.84082341,6299f149e92ead563fba08ef,62a4435a673a6953c9f8e356,,,,,,,,,,,,,,,,,,,,,,,,,,,,,,,,,,,,,,,,,,,,,,,,,,,,,,,,,,,,,,,,,,,,,,,,,,,,,,,,,,,,,,,,,,,,"[""comma""]",0,102,0,102,0,1,[1.8557000000000698],,
,,,,,,,,,,,,5fda7563b679f24c4d4e3ef6,23,Mężczyzna,2022-06-11_09h25.25.227,task,2021.1.4,Win32,59.84082341,6299f149e92ead563fba08ef,62a4435a673a6953c9f8e356,,,,,,,,,,,,,,,,,,,,,,,,,,,,,,,,,,,,,,,,,,,,,,,,,,,,,,,,,,,,,,,,,,,,,,,,,,,,,,,,,,,,,,,,,,,,"[""period""]",0,103,0,103,0,1,[1.8150999999999158],,
,,,,,,,,,,,,5fda7563b679f24c4d4e3ef6,23,Mężczyzna,2022-06-11_09h25.25.227,task,2021.1.4,Win32,59.84082341,6299f149e92ead563fba08ef,62a4435a673a6953c9f8e356,,,,,,,,,,,,,,,,,,,,,,,,,,,,,,,,,,,,,,,,,,,,,,,,,,,,,,,,,,,,,,,,,,,,,,,,,,,,,,,,,,,,,,,,,,,,"[""comma""]",0,104,0,104,0,1,[1.666599999999903],,
,,,,,,,,,,,,5fda7563b679f24c4d4e3ef6,23,Mężczyzna,2022-06-11_09h25.25.227,task,2021.1.4,Win32,59.84082341,6299f149e92ead563fba08ef,62a4435a673a6953c9f8e356,,,,,,,,,,,,,,,,,,,,,,,,,,,,,,,,,,,,,,,,,,,,,,,,,,,,,,,,,,,,,,,,,,,,,,,,,,,,,,,,,,,,,,,,,,,,"[""comma""]",0,105,0,105,0,1,[1.5636999999999261],,
,,,,,,,,,,,,5fda7563b679f24c4d4e3ef6,23,Mężczyzna,2022-06-11_09h25.25.227,task,2021.1.4,Win32,59.84082341,6299f149e92ead563fba08ef,62a4435a673a6953c9f8e356,,,,,,,,,,,,,,,,,,,,,,,,,,,,,,,,,,,,,,,,,,,,,,,,,,,,,,,,,,,,,,,,,,,,,,,,,,,,,,,,,,,,,,,,,,,,"[""period""]",0,106,0,106,0,1,[1.748299999999972],,
,,,,,,,,,,,,5fda7563b679f24c4d4e3ef6,23,Mężczyzna,2022-06-11_09h25.25.227,task,2021.1.4,Win32,59.84082341,6299f149e92ead563fba08ef,62a4435a673a6953c9f8e356,,,,,,,,,,,,,,,,,,,,,,,,,,,,,,,,,,,,,,,,,,,,,,,,,,,,,,,,,,,,,,,,,,,,,,,,,,,,,,,,,,,,,,,,,,,,"[""period""]",0,107,0,107,0,1,[1.5615999999999985],,
,,,,,,,,,,,,5fda7563b679f24c4d4e3ef6,23,Mężczyzna,2022-06-11_09h25.25.227,task,2021.1.4,Win32,59.84082341,6299f149e92ead563fba08ef,62a4435a673a6953c9f8e356,,,,,,,,,,,,,,,,,,,,,,,,,,,,,,,,,,,,,,,,,,,,,,,,,,,,,,,,,,,,,,,,,,,,,,,,,,,,,,,,,,,,,,,,,,,,"[""comma""]",0,108,0,108,0,1,[1.5480999999999767],,
,,,,,,,,,,,,5fda7563b679f24c4d4e3ef6,23,Mężczyzna,2022-06-11_09h25.25.227,task,2021.1.4,Win32,59.84082341,6299f149e92ead563fba08ef,62a4435a673a6953c9f8e356,,,,,,,,,,,,,,,,,,,,,,,,,,,,,,,,,,,,,,,,,,,,,,,,,,,,,,,,,,,,,,,,,,,,,,,,,,,,,,,,,,,,,,,,,,,,"[""comma""]",0,109,0,109,0,1,[1.610700000000179],,
,,,,,,,,,,,,5fda7563b679f24c4d4e3ef6,23,Mężczyzna,2022-06-11_09h25.25.227,task,2021.1.4,Win32,59.84082341,6299f149e92ead563fba08ef,62a4435a673a6953c9f8e356,,,,,,,,,,,,,,,,,,,,,,,,,,,,,,,,,,,,,,,,,,,,,,,,,,,,,,,,,,,,,,,,,,,,,,,,,,,,,,,,,,,,,,,,,,,,"[""period""]",0,110,0,110,0,1,[1.8070999999998776],,
,,,,,,,,,,,,5fda7563b679f24c4d4e3ef6,23,Mężczyzna,2022-06-11_09h25.25.227,task,2021.1.4,Win32,59.84082341,6299f149e92ead563fba08ef,62a4435a673a6953c9f8e356,,,,,,,,,,,,,,,,,,,,,,,,,,,,,,,,,,,,,,,,,,,,,,,,,,,,,,,,,,,,,,,,,,,,,,,,,,,,,,,,,,,,,,,,,,,,"[""comma""]",0,111,0,111,0,1,[1.4649999999999181],,
,,,,,,,,,,,,5fda7563b679f24c4d4e3ef6,23,Mężczyzna,2022-06-11_09h25.25.227,task,2021.1.4,Win32,59.84082341,6299f149e92ead563fba08ef,62a4435a673a6953c9f8e356,,,,,,,,,,,,,,,,,,,,,,,,,,,,,,,,,,,,,,,,,,,,,,,,,,,,,,,,,,,,,,,,,,,,,,,,,,,,,,,,,,,,,,,,,,,,"[""comma""]",0,112,0,112,0,1,[1.5920999999999594],,
,,,,,,,,,,,,5fda7563b679f24c4d4e3ef6,23,Mężczyzna,2022-06-11_09h25.25.227,task,2021.1.4,Win32,59.84082341,6299f149e92ead563fba08ef,62a4435a673a6953c9f8e356,,,,,,,,,,,,,,,,,,,,,,,,,,,,,,,,,,,,,,,,,,,,,,,,,,,,,,,,,,,,,,,,,,,,,,,,,,,,,,,,,,,,,,,,,,,,,0,113,0,113,0,1,,,
,,,,,,,,,,,,5fda7563b679f24c4d4e3ef6,23,Mężczyzna,2022-06-11_09h25.25.227,task,2021.1.4,Win32,59.84082341,6299f149e92ead563fba08ef,62a4435a673a6953c9f8e356,,,,,,,,,,,,,,,,,,,,,,,,,,,,,,,,,,,,,,,,,,,,,,,,,,,,,,,,,,,,,,,,,,,,,,,,,,,,,,,,,,,,,,,,,,,,"[""period""]",0,114,0,114,0,1,[0.09820000000001983],,
,,,,,,,,,,,,5fda7563b679f24c4d4e3ef6,23,Mężczyzna,2022-06-11_09h25.25.227,task,2021.1.4,Win32,59.84082341,6299f149e92ead563fba08ef,62a4435a673a6953c9f8e356,,,,,,,,,,,,,,,,,,,,,,,,,,,,,,,,,,,,,,,,,,,,,,,,,,,,,,,,,,,,,,,,,,,,,,,,,,,,,,,,,,,,,,,,,,,,"[""period""]",0,115,0,115,0,1,[0.37429999999994834],,
,,,,,,,,,,,,5fda7563b679f24c4d4e3ef6,23,Mężczyzna,2022-06-11_09h25.25.227,task,2021.1.4,Win32,59.84082341,6299f149e92ead563fba08ef,62a4435a673a6953c9f8e356,,,,,,,,,,,,,,,,,,,,,,,,,,,,,,,,,,,,,,,,,,,,,,,,,,,,,,,,,,,,,,,,,,,,,,,,,,,,,,,,,,,,,,,,,,,,"[""comma""]",0,116,0,116,0,1,[0.4717000000000553],,
,,,,,,,,,,,,5fda7563b679f24c4d4e3ef6,23,Mężczyzna,2022-06-11_09h25.25.227,task,2021.1.4,Win32,59.84082341,6299f149e92ead563fba08ef,62a4435a673a6953c9f8e356,,,,,,,,,,,,,,,,,,,,,,,,,,,,,,,,,,,,,,,,,,,,,,,,,,,,,,,,,,,,,,,,,,,,,,,,,,,,,,,,,,,,,,,,,,,,"[""period""]",0,117,0,117,0,1,[0.6890000000000782],,
,,,,,,,,,,,,5fda7563b679f24c4d4e3ef6,23,Mężczyzna,2022-06-11_09h25.25.227,task,2021.1.4,Win32,59.84082341,6299f149e92ead563fba08ef,62a4435a673a6953c9f8e356,,,,,,,,,,,,,,,,,,,,,,,,,,,,,,,,,,,,,,,,,,,,,,,,,,,,,,,,,,,,,,,,,,,,,,,,,,,,,,,,,,,,,,,,,,,,"[""period""]",0,118,0,118,0,1,[0.6575000000000273],,
,,,,,,,,,,,,5fda7563b679f24c4d4e3ef6,23,Mężczyzna,2022-06-11_09h25.25.227,task,2021.1.4,Win32,59.84082341,6299f149e92ead563fba08ef,62a4435a673a6953c9f8e356,,,,,,,,,,,,,,,,,,,,,,,,,,,,,,,,,,,,,,,,,,,,,,,,,,,,,,,,,,,,,,,,,,,,,,,,,,,,,,,,,,,,,,,,,,,,"[""comma""]",0,119,0,119,0,1,[1.5849999999999227],,
,,,,,,,,,,,,5fda7563b679f24c4d4e3ef6,23,Mężczyzna,2022-06-11_09h25.25.227,task,2021.1.4,Win32,59.84082341,6299f149e92ead563fba08ef,62a4435a673a6953c9f8e356,,,,,,,,,,,,,,,,,,,,,,,,,,,,,,,,,,,,,,,,,,,,,,,,,,,,,,,,,,,,,,,,,,,,,,,,,,,,,,,,,,,,,,,,,,,,,,,,,,,,space,1.207
