key_resp_15.keys,key_resp_15.rt,key_resp_13.keys,key_resp_13.corr,key_resp_13.rt,ranodm_loop.thisRepN,ranodm_loop.thisTrialN,ranodm_loop.thisN,ranodm_loop.thisIndex,ranodm_loop.ran,participant,Wiek*,Płeć,date,expName,psychopyVersion,OS,frameRate,study_id,session,key_resp_16.keys,key_resp_16.rt,key_resp_4.keys,key_resp_4.rt,next_letter.thisRepN,next_letter.thisTrialN,next_letter.thisN,next_letter.thisIndex,next_letter.ran,letter,simple_recall,key_resp_5.keys,key_resp_5.rt,simple_recall_corr,simple_recall_corrkeys,next_level.thisRepN,next_level.thisTrialN,next_level.thisN,next_level.thisIndex,next_level.ran,key_resp_2.keys,key_resp_2.rt,digit_answer,key_resp.keys,key_resp.corr,key_resp.rt,RT_list,next_equation.thisRepN,next_equation.thisTrialN,next_equation.thisN,next_equation.thisIndex,next_equation.ran,Task,Trial,Problem,Operation_answer,processing_score,sumRT,meanRT,sumdiff,sd,RT,key_resp_3.keys,key_resp_3.rt,repeat_practice.thisRepN,repeat_practice.thisTrialN,repeat_practice.thisN,repeat_practice.thisIndex,repeat_practice.ran,key_resp_6.keys,key_resp_6.rt,key_resp_11.keys,key_resp_11.corr,key_resp_11.rt,operation_correct,repeat_if_wrong_prac.thisRepN,repeat_if_wrong_prac.thisTrialN,repeat_if_wrong_prac.thisN,repeat_if_wrong_prac.thisIndex,repeat_if_wrong_prac.ran,span_size_prac.thisRepN,span_size_prac.thisTrialN,span_size_prac.thisN,span_size_prac.thisIndex,span_size_prac.ran,complex_recall_practice,key_resp_9.keys,key_resp_9.corr,key_resp_9.rt,complex_prac_corr,span_recall_prac.thisRepN,span_recall_prac.thisTrialN,span_recall_prac.thisN,span_recall_prac.thisIndex,span_recall_prac.ran,key_resp_10.keys,key_resp_10.rt,key_resp_7.keys,key_resp_7.corr,key_resp_7.rt,repeat_if_wrong.thisRepN,repeat_if_wrong.thisTrialN,repeat_if_wrong.thisN,repeat_if_wrong.thisIndex,repeat_if_wrong.ran,span_size.thisRepN,span_size.thisTrialN,span_size.thisN,span_size.thisIndex,span_size.ran,complex_recall,key_resp_8.keys,key_resp_8.corr,key_resp_8.rt,complex_recall_corr,complex_recall_corrkeys,span_recall.thisRepN,span_recall.thisTrialN,span_recall.thisN,span_recall.thisIndex,span_recall.ran,key_resp_12.keys,key_resp_12.rt
space,18.869,"[""comma""]",0,[0.4230000000000018],0,0,0,0,1,5fe23b8f29598a58fee0b230,19,Mężczyzna,2022-06-04_08h26.10.762,task,2021.1.4,Win32,60.0240096,628b806c463b948bc644b84f,629afad1cea7a350daf37a47,,,,,,,,,,,,,,,,,,,,,,,,,,,,,,,,,,,,,,,,,,,,,,,,,,,,,,,,,,,,,,,,,,,,,,,,,,,,,,,,,,,,,,,,,,,,,,,,,,,,,,,
,,"[""period""]",0,[0.5135000000000076],1,0,1,0,1,5fe23b8f29598a58fee0b230,19,Mężczyzna,2022-06-04_08h26.10.762,task,2021.1.4,Win32,60.0240096,628b806c463b948bc644b84f,629afad1cea7a350daf37a47,,,,,,,,,,,,,,,,,,,,,,,,,,,,,,,,,,,,,,,,,,,,,,,,,,,,,,,,,,,,,,,,,,,,,,,,,,,,,,,,,,,,,,,,,,,,,,,,,,,,,,,
,,"[""period""]",0,[0.43310000002384186],2,0,2,0,1,5fe23b8f29598a58fee0b230,19,Mężczyzna,2022-06-04_08h26.10.762,task,2021.1.4,Win32,60.0240096,628b806c463b948bc644b84f,629afad1cea7a350daf37a47,,,,,,,,,,,,,,,,,,,,,,,,,,,,,,,,,,,,,,,,,,,,,,,,,,,,,,,,,,,,,,,,,,,,,,,,,,,,,,,,,,,,,,,,,,,,,,,,,,,,,,,
,,"[""comma""]",0,[0.25149999999999295],3,0,3,0,1,5fe23b8f29598a58fee0b230,19,Mężczyzna,2022-06-04_08h26.10.762,task,2021.1.4,Win32,60.0240096,628b806c463b948bc644b84f,629afad1cea7a350daf37a47,,,,,,,,,,,,,,,,,,,,,,,,,,,,,,,,,,,,,,,,,,,,,,,,,,,,,,,,,,,,,,,,,,,,,,,,,,,,,,,,,,,,,,,,,,,,,,,,,,,,,,,
,,"[""period""]",0,[0.22449999999999193],4,0,4,0,1,5fe23b8f29598a58fee0b230,19,Mężczyzna,2022-06-04_08h26.10.762,task,2021.1.4,Win32,60.0240096,628b806c463b948bc644b84f,629afad1cea7a350daf37a47,,,,,,,,,,,,,,,,,,,,,,,,,,,,,,,,,,,,,,,,,,,,,,,,,,,,,,,,,,,,,,,,,,,,,,,,,,,,,,,,,,,,,,,,,,,,,,,,,,,,,,,
,,"[""comma"",""period""]",0,"[0.08899999999999864,1.9339000000953632]",5,0,5,0,1,5fe23b8f29598a58fee0b230,19,Mężczyzna,2022-06-04_08h26.10.762,task,2021.1.4,Win32,60.0240096,628b806c463b948bc644b84f,629afad1cea7a350daf37a47,,,,,,,,,,,,,,,,,,,,,,,,,,,,,,,,,,,,,,,,,,,,,,,,,,,,,,,,,,,,,,,,,,,,,,,,,,,,,,,,,,,,,,,,,,,,,,,,,,,,,,,
,,,0,,6,0,6,0,1,5fe23b8f29598a58fee0b230,19,Mężczyzna,2022-06-04_08h26.10.762,task,2021.1.4,Win32,60.0240096,628b806c463b948bc644b84f,629afad1cea7a350daf37a47,,,,,,,,,,,,,,,,,,,,,,,,,,,,,,,,,,,,,,,,,,,,,,,,,,,,,,,,,,,,,,,,,,,,,,,,,,,,,,,,,,,,,,,,,,,,,,,,,,,,,,,
,,"[""comma""]",0,[0.01789999997616576],7,0,7,0,1,5fe23b8f29598a58fee0b230,19,Mężczyzna,2022-06-04_08h26.10.762,task,2021.1.4,Win32,60.0240096,628b806c463b948bc644b84f,629afad1cea7a350daf37a47,,,,,,,,,,,,,,,,,,,,,,,,,,,,,,,,,,,,,,,,,,,,,,,,,,,,,,,,,,,,,,,,,,,,,,,,,,,,,,,,,,,,,,,,,,,,,,,,,,,,,,,
,,"[""period""]",0,[0.3190000000000026],8,0,8,0,1,5fe23b8f29598a58fee0b230,19,Mężczyzna,2022-06-04_08h26.10.762,task,2021.1.4,Win32,60.0240096,628b806c463b948bc644b84f,629afad1cea7a350daf37a47,,,,,,,,,,,,,,,,,,,,,,,,,,,,,,,,,,,,,,,,,,,,,,,,,,,,,,,,,,,,,,,,,,,,,,,,,,,,,,,,,,,,,,,,,,,,,,,,,,,,,,,
,,"[""comma""]",0,[0.2745000000000033],9,0,9,0,1,5fe23b8f29598a58fee0b230,19,Mężczyzna,2022-06-04_08h26.10.762,task,2021.1.4,Win32,60.0240096,628b806c463b948bc644b84f,629afad1cea7a350daf37a47,,,,,,,,,,,,,,,,,,,,,,,,,,,,,,,,,,,,,,,,,,,,,,,,,,,,,,,,,,,,,,,,,,,,,,,,,,,,,,,,,,,,,,,,,,,,,,,,,,,,,,,
,,"[""comma"",""period""]",0,"[0.028999999999996362,1.9622000000476731]",10,0,10,0,1,5fe23b8f29598a58fee0b230,19,Mężczyzna,2022-06-04_08h26.10.762,task,2021.1.4,Win32,60.0240096,628b806c463b948bc644b84f,629afad1cea7a350daf37a47,,,,,,,,,,,,,,,,,,,,,,,,,,,,,,,,,,,,,,,,,,,,,,,,,,,,,,,,,,,,,,,,,,,,,,,,,,,,,,,,,,,,,,,,,,,,,,,,,,,,,,,
,,,0,,11,0,11,0,1,5fe23b8f29598a58fee0b230,19,Mężczyzna,2022-06-04_08h26.10.762,task,2021.1.4,Win32,60.0240096,628b806c463b948bc644b84f,629afad1cea7a350daf37a47,,,,,,,,,,,,,,,,,,,,,,,,,,,,,,,,,,,,,,,,,,,,,,,,,,,,,,,,,,,,,,,,,,,,,,,,,,,,,,,,,,,,,,,,,,,,,,,,,,,,,,,
,,"[""period""]",0,[0.10000000000000853],12,0,12,0,1,5fe23b8f29598a58fee0b230,19,Mężczyzna,2022-06-04_08h26.10.762,task,2021.1.4,Win32,60.0240096,628b806c463b948bc644b84f,629afad1cea7a350daf37a47,,,,,,,,,,,,,,,,,,,,,,,,,,,,,,,,,,,,,,,,,,,,,,,,,,,,,,,,,,,,,,,,,,,,,,,,,,,,,,,,,,,,,,,,,,,,,,,,,,,,,,,
,,"[""comma""]",0,[0.23739999997616223],13,0,13,0,1,5fe23b8f29598a58fee0b230,19,Mężczyzna,2022-06-04_08h26.10.762,task,2021.1.4,Win32,60.0240096,628b806c463b948bc644b84f,629afad1cea7a350daf37a47,,,,,,,,,,,,,,,,,,,,,,,,,,,,,,,,,,,,,,,,,,,,,,,,,,,,,,,,,,,,,,,,,,,,,,,,,,,,,,,,,,,,,,,,,,,,,,,,,,,,,,,
,,"[""comma""]",0,[0.363700000047686],14,0,14,0,1,5fe23b8f29598a58fee0b230,19,Mężczyzna,2022-06-04_08h26.10.762,task,2021.1.4,Win32,60.0240096,628b806c463b948bc644b84f,629afad1cea7a350daf37a47,,,,,,,,,,,,,,,,,,,,,,,,,,,,,,,,,,,,,,,,,,,,,,,,,,,,,,,,,,,,,,,,,,,,,,,,,,,,,,,,,,,,,,,,,,,,,,,,,,,,,,,
,,"[""period""]",0,[0.25119999992847397],15,0,15,0,1,5fe23b8f29598a58fee0b230,19,Mężczyzna,2022-06-04_08h26.10.762,task,2021.1.4,Win32,60.0240096,628b806c463b948bc644b84f,629afad1cea7a350daf37a47,,,,,,,,,,,,,,,,,,,,,,,,,,,,,,,,,,,,,,,,,,,,,,,,,,,,,,,,,,,,,,,,,,,,,,,,,,,,,,,,,,,,,,,,,,,,,,,,,,,,,,,
,,"[""comma""]",0,[0.2517999999523113],16,0,16,0,1,5fe23b8f29598a58fee0b230,19,Mężczyzna,2022-06-04_08h26.10.762,task,2021.1.4,Win32,60.0240096,628b806c463b948bc644b84f,629afad1cea7a350daf37a47,,,,,,,,,,,,,,,,,,,,,,,,,,,,,,,,,,,,,,,,,,,,,,,,,,,,,,,,,,,,,,,,,,,,,,,,,,,,,,,,,,,,,,,,,,,,,,,,,,,,,,,
,,"[""comma""]",0,[0.2651000000238355],17,0,17,0,1,5fe23b8f29598a58fee0b230,19,Mężczyzna,2022-06-04_08h26.10.762,task,2021.1.4,Win32,60.0240096,628b806c463b948bc644b84f,629afad1cea7a350daf37a47,,,,,,,,,,,,,,,,,,,,,,,,,,,,,,,,,,,,,,,,,,,,,,,,,,,,,,,,,,,,,,,,,,,,,,,,,,,,,,,,,,,,,,,,,,,,,,,,,,,,,,,
,,"[""comma""]",0,[0.27269999992846294],18,0,18,0,1,5fe23b8f29598a58fee0b230,19,Mężczyzna,2022-06-04_08h26.10.762,task,2021.1.4,Win32,60.0240096,628b806c463b948bc644b84f,629afad1cea7a350daf37a47,,,,,,,,,,,,,,,,,,,,,,,,,,,,,,,,,,,,,,,,,,,,,,,,,,,,,,,,,,,,,,,,,,,,,,,,,,,,,,,,,,,,,,,,,,,,,,,,,,,,,,,
,,"[""period""]",0,[0.23049999999999216],19,0,19,0,1,5fe23b8f29598a58fee0b230,19,Mężczyzna,2022-06-04_08h26.10.762,task,2021.1.4,Win32,60.0240096,628b806c463b948bc644b84f,629afad1cea7a350daf37a47,,,,,,,,,,,,,,,,,,,,,,,,,,,,,,,,,,,,,,,,,,,,,,,,,,,,,,,,,,,,,,,,,,,,,,,,,,,,,,,,,,,,,,,,,,,,,,,,,,,,,,,
,,"[""comma""]",0,[0.24279999995232515],20,0,20,0,1,5fe23b8f29598a58fee0b230,19,Mężczyzna,2022-06-04_08h26.10.762,task,2021.1.4,Win32,60.0240096,628b806c463b948bc644b84f,629afad1cea7a350daf37a47,,,,,,,,,,,,,,,,,,,,,,,,,,,,,,,,,,,,,,,,,,,,,,,,,,,,,,,,,,,,,,,,,,,,,,,,,,,,,,,,,,,,,,,,,,,,,,,,,,,,,,,
,,"[""period"",""period""]",0,"[0.030000000000001137,1.9335999999046294]",21,0,21,0,1,5fe23b8f29598a58fee0b230,19,Mężczyzna,2022-06-04_08h26.10.762,task,2021.1.4,Win32,60.0240096,628b806c463b948bc644b84f,629afad1cea7a350daf37a47,,,,,,,,,,,,,,,,,,,,,,,,,,,,,,,,,,,,,,,,,,,,,,,,,,,,,,,,,,,,,,,,,,,,,,,,,,,,,,,,,,,,,,,,,,,,,,,,,,,,,,,
,,"[""period""]",0,[1.945999999999998],22,0,22,0,1,5fe23b8f29598a58fee0b230,19,Mężczyzna,2022-06-04_08h26.10.762,task,2021.1.4,Win32,60.0240096,628b806c463b948bc644b84f,629afad1cea7a350daf37a47,,,,,,,,,,,,,,,,,,,,,,,,,,,,,,,,,,,,,,,,,,,,,,,,,,,,,,,,,,,,,,,,,,,,,,,,,,,,,,,,,,,,,,,,,,,,,,,,,,,,,,,
,,"[""period""]",0,[1.8911000000238403],23,0,23,0,1,5fe23b8f29598a58fee0b230,19,Mężczyzna,2022-06-04_08h26.10.762,task,2021.1.4,Win32,60.0240096,628b806c463b948bc644b84f,629afad1cea7a350daf37a47,,,,,,,,,,,,,,,,,,,,,,,,,,,,,,,,,,,,,,,,,,,,,,,,,,,,,,,,,,,,,,,,,,,,,,,,,,,,,,,,,,,,,,,,,,,,,,,,,,,,,,,
,,"[""comma""]",0,[1.8966000000238523],24,0,24,0,1,5fe23b8f29598a58fee0b230,19,Mężczyzna,2022-06-04_08h26.10.762,task,2021.1.4,Win32,60.0240096,628b806c463b948bc644b84f,629afad1cea7a350daf37a47,,,,,,,,,,,,,,,,,,,,,,,,,,,,,,,,,,,,,,,,,,,,,,,,,,,,,,,,,,,,,,,,,,,,,,,,,,,,,,,,,,,,,,,,,,,,,,,,,,,,,,,
,,"[""period""]",0,[1.8794999999999789],25,0,25,0,1,5fe23b8f29598a58fee0b230,19,Mężczyzna,2022-06-04_08h26.10.762,task,2021.1.4,Win32,60.0240096,628b806c463b948bc644b84f,629afad1cea7a350daf37a47,,,,,,,,,,,,,,,,,,,,,,,,,,,,,,,,,,,,,,,,,,,,,,,,,,,,,,,,,,,,,,,,,,,,,,,,,,,,,,,,,,,,,,,,,,,,,,,,,,,,,,,
,,,0,,26,0,26,0,1,5fe23b8f29598a58fee0b230,19,Mężczyzna,2022-06-04_08h26.10.762,task,2021.1.4,Win32,60.0240096,628b806c463b948bc644b84f,629afad1cea7a350daf37a47,,,,,,,,,,,,,,,,,,,,,,,,,,,,,,,,,,,,,,,,,,,,,,,,,,,,,,,,,,,,,,,,,,,,,,,,,,,,,,,,,,,,,,,,,,,,,,,,,,,,,,,
,,"[""comma""]",0,[0.14670000004767303],27,0,27,0,1,5fe23b8f29598a58fee0b230,19,Mężczyzna,2022-06-04_08h26.10.762,task,2021.1.4,Win32,60.0240096,628b806c463b948bc644b84f,629afad1cea7a350daf37a47,,,,,,,,,,,,,,,,,,,,,,,,,,,,,,,,,,,,,,,,,,,,,,,,,,,,,,,,,,,,,,,,,,,,,,,,,,,,,,,,,,,,,,,,,,,,,,,,,,,,,,,
,,"[""comma""]",0,[0.12429999995234198],28,0,28,0,1,5fe23b8f29598a58fee0b230,19,Mężczyzna,2022-06-04_08h26.10.762,task,2021.1.4,Win32,60.0240096,628b806c463b948bc644b84f,629afad1cea7a350daf37a47,,,,,,,,,,,,,,,,,,,,,,,,,,,,,,,,,,,,,,,,,,,,,,,,,,,,,,,,,,,,,,,,,,,,,,,,,,,,,,,,,,,,,,,,,,,,,,,,,,,,,,,
,,"[""period""]",0,[0.20710000002384277],29,0,29,0,1,5fe23b8f29598a58fee0b230,19,Mężczyzna,2022-06-04_08h26.10.762,task,2021.1.4,Win32,60.0240096,628b806c463b948bc644b84f,629afad1cea7a350daf37a47,,,,,,,,,,,,,,,,,,,,,,,,,,,,,,,,,,,,,,,,,,,,,,,,,,,,,,,,,,,,,,,,,,,,,,,,,,,,,,,,,,,,,,,,,,,,,,,,,,,,,,,
,,"[""period""]",0,[0.1272000000476794],30,0,30,0,1,5fe23b8f29598a58fee0b230,19,Mężczyzna,2022-06-04_08h26.10.762,task,2021.1.4,Win32,60.0240096,628b806c463b948bc644b84f,629afad1cea7a350daf37a47,,,,,,,,,,,,,,,,,,,,,,,,,,,,,,,,,,,,,,,,,,,,,,,,,,,,,,,,,,,,,,,,,,,,,,,,,,,,,,,,,,,,,,,,,,,,,,,,,,,,,,,
,,"[""comma""]",0,[0.06399999999999295],31,0,31,0,1,5fe23b8f29598a58fee0b230,19,Mężczyzna,2022-06-04_08h26.10.762,task,2021.1.4,Win32,60.0240096,628b806c463b948bc644b84f,629afad1cea7a350daf37a47,,,,,,,,,,,,,,,,,,,,,,,,,,,,,,,,,,,,,,,,,,,,,,,,,,,,,,,,,,,,,,,,,,,,,,,,,,,,,,,,,,,,,,,,,,,,,,,,,,,,,,,
,,"[""period""]",0,[0.05819999992849034],32,0,32,0,1,5fe23b8f29598a58fee0b230,19,Mężczyzna,2022-06-04_08h26.10.762,task,2021.1.4,Win32,60.0240096,628b806c463b948bc644b84f,629afad1cea7a350daf37a47,,,,,,,,,,,,,,,,,,,,,,,,,,,,,,,,,,,,,,,,,,,,,,,,,,,,,,,,,,,,,,,,,,,,,,,,,,,,,,,,,,,,,,,,,,,,,,,,,,,,,,,
,,"[""comma""]",0,[0.10429999995233175],33,0,33,0,1,5fe23b8f29598a58fee0b230,19,Mężczyzna,2022-06-04_08h26.10.762,task,2021.1.4,Win32,60.0240096,628b806c463b948bc644b84f,629afad1cea7a350daf37a47,,,,,,,,,,,,,,,,,,,,,,,,,,,,,,,,,,,,,,,,,,,,,,,,,,,,,,,,,,,,,,,,,,,,,,,,,,,,,,,,,,,,,,,,,,,,,,,,,,,,,,,
,,"[""period""]",0,[0.01710000002384504],34,0,34,0,1,5fe23b8f29598a58fee0b230,19,Mężczyzna,2022-06-04_08h26.10.762,task,2021.1.4,Win32,60.0240096,628b806c463b948bc644b84f,629afad1cea7a350daf37a47,,,,,,,,,,,,,,,,,,,,,,,,,,,,,,,,,,,,,,,,,,,,,,,,,,,,,,,,,,,,,,,,,,,,,,,,,,,,,,,,,,,,,,,,,,,,,,,,,,,,,,,
,,"[""comma""]",0,[0.14680000007152216],35,0,35,0,1,5fe23b8f29598a58fee0b230,19,Mężczyzna,2022-06-04_08h26.10.762,task,2021.1.4,Win32,60.0240096,628b806c463b948bc644b84f,629afad1cea7a350daf37a47,,,,,,,,,,,,,,,,,,,,,,,,,,,,,,,,,,,,,,,,,,,,,,,,,,,,,,,,,,,,,,,,,,,,,,,,,,,,,,,,,,,,,,,,,,,,,,,,,,,,,,,
,,"[""comma""]",0,[0.022900000095376072],36,0,36,0,1,5fe23b8f29598a58fee0b230,19,Mężczyzna,2022-06-04_08h26.10.762,task,2021.1.4,Win32,60.0240096,628b806c463b948bc644b84f,629afad1cea7a350daf37a47,,,,,,,,,,,,,,,,,,,,,,,,,,,,,,,,,,,,,,,,,,,,,,,,,,,,,,,,,,,,,,,,,,,,,,,,,,,,,,,,,,,,,,,,,,,,,,,,,,,,,,,
,,"[""comma""]",0,[0.10070000004770918],37,0,37,0,1,5fe23b8f29598a58fee0b230,19,Mężczyzna,2022-06-04_08h26.10.762,task,2021.1.4,Win32,60.0240096,628b806c463b948bc644b84f,629afad1cea7a350daf37a47,,,,,,,,,,,,,,,,,,,,,,,,,,,,,,,,,,,,,,,,,,,,,,,,,,,,,,,,,,,,,,,,,,,,,,,,,,,,,,,,,,,,,,,,,,,,,,,,,,,,,,,
,,"[""period""]",0,[0.08050000000000068],38,0,38,0,1,5fe23b8f29598a58fee0b230,19,Mężczyzna,2022-06-04_08h26.10.762,task,2021.1.4,Win32,60.0240096,628b806c463b948bc644b84f,629afad1cea7a350daf37a47,,,,,,,,,,,,,,,,,,,,,,,,,,,,,,,,,,,,,,,,,,,,,,,,,,,,,,,,,,,,,,,,,,,,,,,,,,,,,,,,,,,,,,,,,,,,,,,,,,,,,,,
,,"[""period""]",0,[0.03520000004769486],39,0,39,0,1,5fe23b8f29598a58fee0b230,19,Mężczyzna,2022-06-04_08h26.10.762,task,2021.1.4,Win32,60.0240096,628b806c463b948bc644b84f,629afad1cea7a350daf37a47,,,,,,,,,,,,,,,,,,,,,,,,,,,,,,,,,,,,,,,,,,,,,,,,,,,,,,,,,,,,,,,,,,,,,,,,,,,,,,,,,,,,,,,,,,,,,,,,,,,,,,,
,,"[""period""]",0,[0.020999999999986585],40,0,40,0,1,5fe23b8f29598a58fee0b230,19,Mężczyzna,2022-06-04_08h26.10.762,task,2021.1.4,Win32,60.0240096,628b806c463b948bc644b84f,629afad1cea7a350daf37a47,,,,,,,,,,,,,,,,,,,,,,,,,,,,,,,,,,,,,,,,,,,,,,,,,,,,,,,,,,,,,,,,,,,,,,,,,,,,,,,,,,,,,,,,,,,,,,,,,,,,,,,
,,"[""period""]",0,[0.0003999999761674644],41,0,41,0,1,5fe23b8f29598a58fee0b230,19,Mężczyzna,2022-06-04_08h26.10.762,task,2021.1.4,Win32,60.0240096,628b806c463b948bc644b84f,629afad1cea7a350daf37a47,,,,,,,,,,,,,,,,,,,,,,,,,,,,,,,,,,,,,,,,,,,,,,,,,,,,,,,,,,,,,,,,,,,,,,,,,,,,,,,,,,,,,,,,,,,,,,,,,,,,,,,
,,"[""comma"",""period""]",0,"[-0.013099999904625292,1.8907000000476728]",42,0,42,0,1,5fe23b8f29598a58fee0b230,19,Mężczyzna,2022-06-04_08h26.10.762,task,2021.1.4,Win32,60.0240096,628b806c463b948bc644b84f,629afad1cea7a350daf37a47,,,,,,,,,,,,,,,,,,,,,,,,,,,,,,,,,,,,,,,,,,,,,,,,,,,,,,,,,,,,,,,,,,,,,,,,,,,,,,,,,,,,,,,,,,,,,,,,,,,,,,,
,,,0,,43,0,43,0,1,5fe23b8f29598a58fee0b230,19,Mężczyzna,2022-06-04_08h26.10.762,task,2021.1.4,Win32,60.0240096,628b806c463b948bc644b84f,629afad1cea7a350daf37a47,,,,,,,,,,,,,,,,,,,,,,,,,,,,,,,,,,,,,,,,,,,,,,,,,,,,,,,,,,,,,,,,,,,,,,,,,,,,,,,,,,,,,,,,,,,,,,,,,,,,,,,
,,"[""comma""]",0,[0.006200000047670073],44,0,44,0,1,5fe23b8f29598a58fee0b230,19,Mężczyzna,2022-06-04_08h26.10.762,task,2021.1.4,Win32,60.0240096,628b806c463b948bc644b84f,629afad1cea7a350daf37a47,,,,,,,,,,,,,,,,,,,,,,,,,,,,,,,,,,,,,,,,,,,,,,,,,,,,,,,,,,,,,,,,,,,,,,,,,,,,,,,,,,,,,,,,,,,,,,,,,,,,,,,
,,"[""comma""]",0,[0.15780000007151784],45,0,45,0,1,5fe23b8f29598a58fee0b230,19,Mężczyzna,2022-06-04_08h26.10.762,task,2021.1.4,Win32,60.0240096,628b806c463b948bc644b84f,629afad1cea7a350daf37a47,,,,,,,,,,,,,,,,,,,,,,,,,,,,,,,,,,,,,,,,,,,,,,,,,,,,,,,,,,,,,,,,,,,,,,,,,,,,,,,,,,,,,,,,,,,,,,,,,,,,,,,
,,"[""period""]",0,[0.2002000000476869],46,0,46,0,1,5fe23b8f29598a58fee0b230,19,Mężczyzna,2022-06-04_08h26.10.762,task,2021.1.4,Win32,60.0240096,628b806c463b948bc644b84f,629afad1cea7a350daf37a47,,,,,,,,,,,,,,,,,,,,,,,,,,,,,,,,,,,,,,,,,,,,,,,,,,,,,,,,,,,,,,,,,,,,,,,,,,,,,,,,,,,,,,,,,,,,,,,,,,,,,,,
,,"[""comma""]",0,[0.18580000007150943],47,0,47,0,1,5fe23b8f29598a58fee0b230,19,Mężczyzna,2022-06-04_08h26.10.762,task,2021.1.4,Win32,60.0240096,628b806c463b948bc644b84f,629afad1cea7a350daf37a47,,,,,,,,,,,,,,,,,,,,,,,,,,,,,,,,,,,,,,,,,,,,,,,,,,,,,,,,,,,,,,,,,,,,,,,,,,,,,,,,,,,,,,,,,,,,,,,,,,,,,,,
,,"[""period""]",0,[0.06970000004770327],48,0,48,0,1,5fe23b8f29598a58fee0b230,19,Mężczyzna,2022-06-04_08h26.10.762,task,2021.1.4,Win32,60.0240096,628b806c463b948bc644b84f,629afad1cea7a350daf37a47,,,,,,,,,,,,,,,,,,,,,,,,,,,,,,,,,,,,,,,,,,,,,,,,,,,,,,,,,,,,,,,,,,,,,,,,,,,,,,,,,,,,,,,,,,,,,,,,,,,,,,,
,,"[""comma""]",0,[0.20760000002383094],49,0,49,0,1,5fe23b8f29598a58fee0b230,19,Mężczyzna,2022-06-04_08h26.10.762,task,2021.1.4,Win32,60.0240096,628b806c463b948bc644b84f,629afad1cea7a350daf37a47,,,,,,,,,,,,,,,,,,,,,,,,,,,,,,,,,,,,,,,,,,,,,,,,,,,,,,,,,,,,,,,,,,,,,,,,,,,,,,,,,,,,,,,,,,,,,,,,,,,,,,,
,,"[""period""]",0,[0.10649999999998272],50,0,50,0,1,5fe23b8f29598a58fee0b230,19,Mężczyzna,2022-06-04_08h26.10.762,task,2021.1.4,Win32,60.0240096,628b806c463b948bc644b84f,629afad1cea7a350daf37a47,,,,,,,,,,,,,,,,,,,,,,,,,,,,,,,,,,,,,,,,,,,,,,,,,,,,,,,,,,,,,,,,,,,,,,,,,,,,,,,,,,,,,,,,,,,,,,,,,,,,,,,
,,"[""period""]",0,[0.05260000002385823],51,0,51,0,1,5fe23b8f29598a58fee0b230,19,Mężczyzna,2022-06-04_08h26.10.762,task,2021.1.4,Win32,60.0240096,628b806c463b948bc644b84f,629afad1cea7a350daf37a47,,,,,,,,,,,,,,,,,,,,,,,,,,,,,,,,,,,,,,,,,,,,,,,,,,,,,,,,,,,,,,,,,,,,,,,,,,,,,,,,,,,,,,,,,,,,,,,,,,,,,,,
,,"[""comma""]",0,[0.10980000007151602],52,0,52,0,1,5fe23b8f29598a58fee0b230,19,Mężczyzna,2022-06-04_08h26.10.762,task,2021.1.4,Win32,60.0240096,628b806c463b948bc644b84f,629afad1cea7a350daf37a47,,,,,,,,,,,,,,,,,,,,,,,,,,,,,,,,,,,,,,,,,,,,,,,,,,,,,,,,,,,,,,,,,,,,,,,,,,,,,,,,,,,,,,,,,,,,,,,,,,,,,,,
,,"[""comma""]",0,[0.2091000000238239],53,0,53,0,1,5fe23b8f29598a58fee0b230,19,Mężczyzna,2022-06-04_08h26.10.762,task,2021.1.4,Win32,60.0240096,628b806c463b948bc644b84f,629afad1cea7a350daf37a47,,,,,,,,,,,,,,,,,,,,,,,,,,,,,,,,,,,,,,,,,,,,,,,,,,,,,,,,,,,,,,,,,,,,,,,,,,,,,,,,,,,,,,,,,,,,,,,,,,,,,,,
,,"[""comma""]",0,[0.24739999997615314],54,0,54,0,1,5fe23b8f29598a58fee0b230,19,Mężczyzna,2022-06-04_08h26.10.762,task,2021.1.4,Win32,60.0240096,628b806c463b948bc644b84f,629afad1cea7a350daf37a47,,,,,,,,,,,,,,,,,,,,,,,,,,,,,,,,,,,,,,,,,,,,,,,,,,,,,,,,,,,,,,,,,,,,,,,,,,,,,,,,,,,,,,,,,,,,,,,,,,,,,,,
,,"[""period""]",0,[0.1981999999284767],55,0,55,0,1,5fe23b8f29598a58fee0b230,19,Mężczyzna,2022-06-04_08h26.10.762,task,2021.1.4,Win32,60.0240096,628b806c463b948bc644b84f,629afad1cea7a350daf37a47,,,,,,,,,,,,,,,,,,,,,,,,,,,,,,,,,,,,,,,,,,,,,,,,,,,,,,,,,,,,,,,,,,,,,,,,,,,,,,,,,,,,,,,,,,,,,,,,,,,,,,,
,,"[""period""]",0,[0.2471999999284833],56,0,56,0,1,5fe23b8f29598a58fee0b230,19,Mężczyzna,2022-06-04_08h26.10.762,task,2021.1.4,Win32,60.0240096,628b806c463b948bc644b84f,629afad1cea7a350daf37a47,,,,,,,,,,,,,,,,,,,,,,,,,,,,,,,,,,,,,,,,,,,,,,,,,,,,,,,,,,,,,,,,,,,,,,,,,,,,,,,,,,,,,,,,,,,,,,,,,,,,,,,
,,"[""period""]",0,[0.26919999992847465],57,0,57,0,1,5fe23b8f29598a58fee0b230,19,Mężczyzna,2022-06-04_08h26.10.762,task,2021.1.4,Win32,60.0240096,628b806c463b948bc644b84f,629afad1cea7a350daf37a47,,,,,,,,,,,,,,,,,,,,,,,,,,,,,,,,,,,,,,,,,,,,,,,,,,,,,,,,,,,,,,,,,,,,,,,,,,,,,,,,,,,,,,,,,,,,,,,,,,,,,,,
,,"[""comma""]",0,[0.25439999997615814],58,0,58,0,1,5fe23b8f29598a58fee0b230,19,Mężczyzna,2022-06-04_08h26.10.762,task,2021.1.4,Win32,60.0240096,628b806c463b948bc644b84f,629afad1cea7a350daf37a47,,,,,,,,,,,,,,,,,,,,,,,,,,,,,,,,,,,,,,,,,,,,,,,,,,,,,,,,,,,,,,,,,,,,,,,,,,,,,,,,,,,,,,,,,,,,,,,,,,,,,,,
,,"[""comma""]",0,[0.24950000000001182],59,0,59,0,1,5fe23b8f29598a58fee0b230,19,Mężczyzna,2022-06-04_08h26.10.762,task,2021.1.4,Win32,60.0240096,628b806c463b948bc644b84f,629afad1cea7a350daf37a47,,,,,,,,,,,,,,,,,,,,,,,,,,,,,,,,,,,,,,,,,,,,,,,,,,,,,,,,,,,,,,,,,,,,,,,,,,,,,,,,,,,,,,,,,,,,,,,,,,,,,,,
,,"[""comma""]",0,[0.21179999995231924],60,0,60,0,1,5fe23b8f29598a58fee0b230,19,Mężczyzna,2022-06-04_08h26.10.762,task,2021.1.4,Win32,60.0240096,628b806c463b948bc644b84f,629afad1cea7a350daf37a47,,,,,,,,,,,,,,,,,,,,,,,,,,,,,,,,,,,,,,,,,,,,,,,,,,,,,,,,,,,,,,,,,,,,,,,,,,,,,,,,,,,,,,,,,,,,,,,,,,,,,,,
,,"[""period"",""comma""]",0,"[0.05689999997616724,1.903799999952298]",61,0,61,0,1,5fe23b8f29598a58fee0b230,19,Mężczyzna,2022-06-04_08h26.10.762,task,2021.1.4,Win32,60.0240096,628b806c463b948bc644b84f,629afad1cea7a350daf37a47,,,,,,,,,,,,,,,,,,,,,,,,,,,,,,,,,,,,,,,,,,,,,,,,,,,,,,,,,,,,,,,,,,,,,,,,,,,,,,,,,,,,,,,,,,,,,,,,,,,,,,,
,,"[""period""]",0,[1.9490000000000123],62,0,62,0,1,5fe23b8f29598a58fee0b230,19,Mężczyzna,2022-06-04_08h26.10.762,task,2021.1.4,Win32,60.0240096,628b806c463b948bc644b84f,629afad1cea7a350daf37a47,,,,,,,,,,,,,,,,,,,,,,,,,,,,,,,,,,,,,,,,,,,,,,,,,,,,,,,,,,,,,,,,,,,,,,,,,,,,,,,,,,,,,,,,,,,,,,,,,,,,,,,
,,,0,,63,0,63,0,1,5fe23b8f29598a58fee0b230,19,Mężczyzna,2022-06-04_08h26.10.762,task,2021.1.4,Win32,60.0240096,628b806c463b948bc644b84f,629afad1cea7a350daf37a47,,,,,,,,,,,,,,,,,,,,,,,,,,,,,,,,,,,,,,,,,,,,,,,,,,,,,,,,,,,,,,,,,,,,,,,,,,,,,,,,,,,,,,,,,,,,,,,,,,,,,,,
,,"[""comma""]",0,[0.10869999992846147],64,0,64,0,1,5fe23b8f29598a58fee0b230,19,Mężczyzna,2022-06-04_08h26.10.762,task,2021.1.4,Win32,60.0240096,628b806c463b948bc644b84f,629afad1cea7a350daf37a47,,,,,,,,,,,,,,,,,,,,,,,,,,,,,,,,,,,,,,,,,,,,,,,,,,,,,,,,,,,,,,,,,,,,,,,,,,,,,,,,,,,,,,,,,,,,,,,,,,,,,,,
,,"[""period""]",0,[0.23109999990464303],65,0,65,0,1,5fe23b8f29598a58fee0b230,19,Mężczyzna,2022-06-04_08h26.10.762,task,2021.1.4,Win32,60.0240096,628b806c463b948bc644b84f,629afad1cea7a350daf37a47,,,,,,,,,,,,,,,,,,,,,,,,,,,,,,,,,,,,,,,,,,,,,,,,,,,,,,,,,,,,,,,,,,,,,,,,,,,,,,,,,,,,,,,,,,,,,,,,,,,,,,,
,,"[""comma""]",0,[0.23929999995232265],66,0,66,0,1,5fe23b8f29598a58fee0b230,19,Mężczyzna,2022-06-04_08h26.10.762,task,2021.1.4,Win32,60.0240096,628b806c463b948bc644b84f,629afad1cea7a350daf37a47,,,,,,,,,,,,,,,,,,,,,,,,,,,,,,,,,,,,,,,,,,,,,,,,,,,,,,,,,,,,,,,,,,,,,,,,,,,,,,,,,,,,,,,,,,,,,,,,,,,,,,,
,,"[""comma"",""period""]",0,"[0.13049999999998363,1.3831000000238305]",67,0,67,0,1,5fe23b8f29598a58fee0b230,19,Mężczyzna,2022-06-04_08h26.10.762,task,2021.1.4,Win32,60.0240096,628b806c463b948bc644b84f,629afad1cea7a350daf37a47,,,,,,,,,,,,,,,,,,,,,,,,,,,,,,,,,,,,,,,,,,,,,,,,,,,,,,,,,,,,,,,,,,,,,,,,,,,,,,,,,,,,,,,,,,,,,,,,,,,,,,,
,,,0,,68,0,68,0,1,5fe23b8f29598a58fee0b230,19,Mężczyzna,2022-06-04_08h26.10.762,task,2021.1.4,Win32,60.0240096,628b806c463b948bc644b84f,629afad1cea7a350daf37a47,,,,,,,,,,,,,,,,,,,,,,,,,,,,,,,,,,,,,,,,,,,,,,,,,,,,,,,,,,,,,,,,,,,,,,,,,,,,,,,,,,,,,,,,,,,,,,,,,,,,,,,
,,"[""period""]",0,[0.26409999990463007],69,0,69,0,1,5fe23b8f29598a58fee0b230,19,Mężczyzna,2022-06-04_08h26.10.762,task,2021.1.4,Win32,60.0240096,628b806c463b948bc644b84f,629afad1cea7a350daf37a47,,,,,,,,,,,,,,,,,,,,,,,,,,,,,,,,,,,,,,,,,,,,,,,,,,,,,,,,,,,,,,,,,,,,,,,,,,,,,,,,,,,,,,,,,,,,,,,,,,,,,,,
,,"[""period""]",0,[0.4133000000715299],70,0,70,0,1,5fe23b8f29598a58fee0b230,19,Mężczyzna,2022-06-04_08h26.10.762,task,2021.1.4,Win32,60.0240096,628b806c463b948bc644b84f,629afad1cea7a350daf37a47,,,,,,,,,,,,,,,,,,,,,,,,,,,,,,,,,,,,,,,,,,,,,,,,,,,,,,,,,,,,,,,,,,,,,,,,,,,,,,,,,,,,,,,,,,,,,,,,,,,,,,,
,,"[""comma""]",0,[0.30920000004766734],71,0,71,0,1,5fe23b8f29598a58fee0b230,19,Mężczyzna,2022-06-04_08h26.10.762,task,2021.1.4,Win32,60.0240096,628b806c463b948bc644b84f,629afad1cea7a350daf37a47,,,,,,,,,,,,,,,,,,,,,,,,,,,,,,,,,,,,,,,,,,,,,,,,,,,,,,,,,,,,,,,,,,,,,,,,,,,,,,,,,,,,,,,,,,,,,,,,,,,,,,,
,,"[""period""]",0,[0.2932999999522963],72,0,72,0,1,5fe23b8f29598a58fee0b230,19,Mężczyzna,2022-06-04_08h26.10.762,task,2021.1.4,Win32,60.0240096,628b806c463b948bc644b84f,629afad1cea7a350daf37a47,,,,,,,,,,,,,,,,,,,,,,,,,,,,,,,,,,,,,,,,,,,,,,,,,,,,,,,,,,,,,,,,,,,,,,,,,,,,,,,,,,,,,,,,,,,,,,,,,,,,,,,
,,"[""comma""]",0,[0.2986999999284876],73,0,73,0,1,5fe23b8f29598a58fee0b230,19,Mężczyzna,2022-06-04_08h26.10.762,task,2021.1.4,Win32,60.0240096,628b806c463b948bc644b84f,629afad1cea7a350daf37a47,,,,,,,,,,,,,,,,,,,,,,,,,,,,,,,,,,,,,,,,,,,,,,,,,,,,,,,,,,,,,,,,,,,,,,,,,,,,,,,,,,,,,,,,,,,,,,,,,,,,,,,
,,"[""period""]",0,[0.32260000002384004],74,0,74,0,1,5fe23b8f29598a58fee0b230,19,Mężczyzna,2022-06-04_08h26.10.762,task,2021.1.4,Win32,60.0240096,628b806c463b948bc644b84f,629afad1cea7a350daf37a47,,,,,,,,,,,,,,,,,,,,,,,,,,,,,,,,,,,,,,,,,,,,,,,,,,,,,,,,,,,,,,,,,,,,,,,,,,,,,,,,,,,,,,,,,,,,,,,,,,,,,,,
,,"[""comma""]",0,[0.5468999999761479],75,0,75,0,1,5fe23b8f29598a58fee0b230,19,Mężczyzna,2022-06-04_08h26.10.762,task,2021.1.4,Win32,60.0240096,628b806c463b948bc644b84f,629afad1cea7a350daf37a47,,,,,,,,,,,,,,,,,,,,,,,,,,,,,,,,,,,,,,,,,,,,,,,,,,,,,,,,,,,,,,,,,,,,,,,,,,,,,,,,,,,,,,,,,,,,,,,,,,,,,,,
,,"[""comma""]",0,[0.46920000004766393],76,0,76,0,1,5fe23b8f29598a58fee0b230,19,Mężczyzna,2022-06-04_08h26.10.762,task,2021.1.4,Win32,60.0240096,628b806c463b948bc644b84f,629afad1cea7a350daf37a47,,,,,,,,,,,,,,,,,,,,,,,,,,,,,,,,,,,,,,,,,,,,,,,,,,,,,,,,,,,,,,,,,,,,,,,,,,,,,,,,,,,,,,,,,,,,,,,,,,,,,,,
,,"[""period""]",0,[0.3072999999523063],77,0,77,0,1,5fe23b8f29598a58fee0b230,19,Mężczyzna,2022-06-04_08h26.10.762,task,2021.1.4,Win32,60.0240096,628b806c463b948bc644b84f,629afad1cea7a350daf37a47,,,,,,,,,,,,,,,,,,,,,,,,,,,,,,,,,,,,,,,,,,,,,,,,,,,,,,,,,,,,,,,,,,,,,,,,,,,,,,,,,,,,,,,,,,,,,,,,,,,,,,,
,,"[""comma""]",0,[0.34080000007151057],78,0,78,0,1,5fe23b8f29598a58fee0b230,19,Mężczyzna,2022-06-04_08h26.10.762,task,2021.1.4,Win32,60.0240096,628b806c463b948bc644b84f,629afad1cea7a350daf37a47,,,,,,,,,,,,,,,,,,,,,,,,,,,,,,,,,,,,,,,,,,,,,,,,,,,,,,,,,,,,,,,,,,,,,,,,,,,,,,,,,,,,,,,,,,,,,,,,,,,,,,,
,,"[""period""]",0,[0.37529999995231833],79,0,79,0,1,5fe23b8f29598a58fee0b230,19,Mężczyzna,2022-06-04_08h26.10.762,task,2021.1.4,Win32,60.0240096,628b806c463b948bc644b84f,629afad1cea7a350daf37a47,,,,,,,,,,,,,,,,,,,,,,,,,,,,,,,,,,,,,,,,,,,,,,,,,,,,,,,,,,,,,,,,,,,,,,,,,,,,,,,,,,,,,,,,,,,,,,,,,,,,,,,
,,"[""comma""]",0,[0.33499999999997954],80,0,80,0,1,5fe23b8f29598a58fee0b230,19,Mężczyzna,2022-06-04_08h26.10.762,task,2021.1.4,Win32,60.0240096,628b806c463b948bc644b84f,629afad1cea7a350daf37a47,,,,,,,,,,,,,,,,,,,,,,,,,,,,,,,,,,,,,,,,,,,,,,,,,,,,,,,,,,,,,,,,,,,,,,,,,,,,,,,,,,,,,,,,,,,,,,,,,,,,,,,
,,"[""period""]",0,[0.33430000007152216],81,0,81,0,1,5fe23b8f29598a58fee0b230,19,Mężczyzna,2022-06-04_08h26.10.762,task,2021.1.4,Win32,60.0240096,628b806c463b948bc644b84f,629afad1cea7a350daf37a47,,,,,,,,,,,,,,,,,,,,,,,,,,,,,,,,,,,,,,,,,,,,,,,,,,,,,,,,,,,,,,,,,,,,,,,,,,,,,,,,,,,,,,,,,,,,,,,,,,,,,,,
,,"[""comma""]",0,[0.42230000007154445],82,0,82,0,1,5fe23b8f29598a58fee0b230,19,Mężczyzna,2022-06-04_08h26.10.762,task,2021.1.4,Win32,60.0240096,628b806c463b948bc644b84f,629afad1cea7a350daf37a47,,,,,,,,,,,,,,,,,,,,,,,,,,,,,,,,,,,,,,,,,,,,,,,,,,,,,,,,,,,,,,,,,,,,,,,,,,,,,,,,,,,,,,,,,,,,,,,,,,,,,,,
,,"[""period""]",0,[0.3473000000715274],83,0,83,0,1,5fe23b8f29598a58fee0b230,19,Mężczyzna,2022-06-04_08h26.10.762,task,2021.1.4,Win32,60.0240096,628b806c463b948bc644b84f,629afad1cea7a350daf37a47,,,,,,,,,,,,,,,,,,,,,,,,,,,,,,,,,,,,,,,,,,,,,,,,,,,,,,,,,,,,,,,,,,,,,,,,,,,,,,,,,,,,,,,,,,,,,,,,,,,,,,,
,,"[""period""]",0,[0.27649999999999864],84,0,84,0,1,5fe23b8f29598a58fee0b230,19,Mężczyzna,2022-06-04_08h26.10.762,task,2021.1.4,Win32,60.0240096,628b806c463b948bc644b84f,629afad1cea7a350daf37a47,,,,,,,,,,,,,,,,,,,,,,,,,,,,,,,,,,,,,,,,,,,,,,,,,,,,,,,,,,,,,,,,,,,,,,,,,,,,,,,,,,,,,,,,,,,,,,,,,,,,,,,
,,"[""period""]",0,[0.39339999997616815],85,0,85,0,1,5fe23b8f29598a58fee0b230,19,Mężczyzna,2022-06-04_08h26.10.762,task,2021.1.4,Win32,60.0240096,628b806c463b948bc644b84f,629afad1cea7a350daf37a47,,,,,,,,,,,,,,,,,,,,,,,,,,,,,,,,,,,,,,,,,,,,,,,,,,,,,,,,,,,,,,,,,,,,,,,,,,,,,,,,,,,,,,,,,,,,,,,,,,,,,,,
,,"[""comma"",""period""]",0,"[0.3731000000238396,0.3932999999522906]",86,0,86,0,1,5fe23b8f29598a58fee0b230,19,Mężczyzna,2022-06-04_08h26.10.762,task,2021.1.4,Win32,60.0240096,628b806c463b948bc644b84f,629afad1cea7a350daf37a47,,,,,,,,,,,,,,,,,,,,,,,,,,,,,,,,,,,,,,,,,,,,,,,,,,,,,,,,,,,,,,,,,,,,,,,,,,,,,,,,,,,,,,,,,,,,,,,,,,,,,,,
,,"[""period""]",0,[0.546999999999997],87,0,87,0,1,5fe23b8f29598a58fee0b230,19,Mężczyzna,2022-06-04_08h26.10.762,task,2021.1.4,Win32,60.0240096,628b806c463b948bc644b84f,629afad1cea7a350daf37a47,,,,,,,,,,,,,,,,,,,,,,,,,,,,,,,,,,,,,,,,,,,,,,,,,,,,,,,,,,,,,,,,,,,,,,,,,,,,,,,,,,,,,,,,,,,,,,,,,,,,,,,
,,"[""comma""]",0,[0.39049999999997453],88,0,88,0,1,5fe23b8f29598a58fee0b230,19,Mężczyzna,2022-06-04_08h26.10.762,task,2021.1.4,Win32,60.0240096,628b806c463b948bc644b84f,629afad1cea7a350daf37a47,,,,,,,,,,,,,,,,,,,,,,,,,,,,,,,,,,,,,,,,,,,,,,,,,,,,,,,,,,,,,,,,,,,,,,,,,,,,,,,,,,,,,,,,,,,,,,,,,,,,,,,
,,"[""comma""]",0,[0.3503000000715133],89,0,89,0,1,5fe23b8f29598a58fee0b230,19,Mężczyzna,2022-06-04_08h26.10.762,task,2021.1.4,Win32,60.0240096,628b806c463b948bc644b84f,629afad1cea7a350daf37a47,,,,,,,,,,,,,,,,,,,,,,,,,,,,,,,,,,,,,,,,,,,,,,,,,,,,,,,,,,,,,,,,,,,,,,,,,,,,,,,,,,,,,,,,,,,,,,,,,,,,,,,
,,"[""comma""]",0,[0.3299999999999841],90,0,90,0,1,5fe23b8f29598a58fee0b230,19,Mężczyzna,2022-06-04_08h26.10.762,task,2021.1.4,Win32,60.0240096,628b806c463b948bc644b84f,629afad1cea7a350daf37a47,,,,,,,,,,,,,,,,,,,,,,,,,,,,,,,,,,,,,,,,,,,,,,,,,,,,,,,,,,,,,,,,,,,,,,,,,,,,,,,,,,,,,,,,,,,,,,,,,,,,,,,
,,"[""period""]",0,[0.3066000000238205],91,0,91,0,1,5fe23b8f29598a58fee0b230,19,Mężczyzna,2022-06-04_08h26.10.762,task,2021.1.4,Win32,60.0240096,628b806c463b948bc644b84f,629afad1cea7a350daf37a47,,,,,,,,,,,,,,,,,,,,,,,,,,,,,,,,,,,,,,,,,,,,,,,,,,,,,,,,,,,,,,,,,,,,,,,,,,,,,,,,,,,,,,,,,,,,,,,,,,,,,,,
,,"[""period""]",0,[0.36720000004766007],92,0,92,0,1,5fe23b8f29598a58fee0b230,19,Mężczyzna,2022-06-04_08h26.10.762,task,2021.1.4,Win32,60.0240096,628b806c463b948bc644b84f,629afad1cea7a350daf37a47,,,,,,,,,,,,,,,,,,,,,,,,,,,,,,,,,,,,,,,,,,,,,,,,,,,,,,,,,,,,,,,,,,,,,,,,,,,,,,,,,,,,,,,,,,,,,,,,,,,,,,,
,,"[""period""]",0,[0.285000000000025],93,0,93,0,1,5fe23b8f29598a58fee0b230,19,Mężczyzna,2022-06-04_08h26.10.762,task,2021.1.4,Win32,60.0240096,628b806c463b948bc644b84f,629afad1cea7a350daf37a47,,,,,,,,,,,,,,,,,,,,,,,,,,,,,,,,,,,,,,,,,,,,,,,,,,,,,,,,,,,,,,,,,,,,,,,,,,,,,,,,,,,,,,,,,,,,,,,,,,,,,,,
,,"[""period""]",0,[0.33530000007152694],94,0,94,0,1,5fe23b8f29598a58fee0b230,19,Mężczyzna,2022-06-04_08h26.10.762,task,2021.1.4,Win32,60.0240096,628b806c463b948bc644b84f,629afad1cea7a350daf37a47,,,,,,,,,,,,,,,,,,,,,,,,,,,,,,,,,,,,,,,,,,,,,,,,,,,,,,,,,,,,,,,,,,,,,,,,,,,,,,,,,,,,,,,,,,,,,,,,,,,,,,,
,,"[""comma""]",0,[0.27930000007154376],95,0,95,0,1,5fe23b8f29598a58fee0b230,19,Mężczyzna,2022-06-04_08h26.10.762,task,2021.1.4,Win32,60.0240096,628b806c463b948bc644b84f,629afad1cea7a350daf37a47,,,,,,,,,,,,,,,,,,,,,,,,,,,,,,,,,,,,,,,,,,,,,,,,,,,,,,,,,,,,,,,,,,,,,,,,,,,,,,,,,,,,,,,,,,,,,,,,,,,,,,,
,,"[""period""]",0,[0.283300000071506],96,0,96,0,1,5fe23b8f29598a58fee0b230,19,Mężczyzna,2022-06-04_08h26.10.762,task,2021.1.4,Win32,60.0240096,628b806c463b948bc644b84f,629afad1cea7a350daf37a47,,,,,,,,,,,,,,,,,,,,,,,,,,,,,,,,,,,,,,,,,,,,,,,,,,,,,,,,,,,,,,,,,,,,,,,,,,,,,,,,,,,,,,,,,,,,,,,,,,,,,,,
,,"[""comma""]",0,[0.28989999997617133],97,0,97,0,1,5fe23b8f29598a58fee0b230,19,Mężczyzna,2022-06-04_08h26.10.762,task,2021.1.4,Win32,60.0240096,628b806c463b948bc644b84f,629afad1cea7a350daf37a47,,,,,,,,,,,,,,,,,,,,,,,,,,,,,,,,,,,,,,,,,,,,,,,,,,,,,,,,,,,,,,,,,,,,,,,,,,,,,,,,,,,,,,,,,,,,,,,,,,,,,,,
,,"[""period""]",0,[0.40550000000001774],98,0,98,0,1,5fe23b8f29598a58fee0b230,19,Mężczyzna,2022-06-04_08h26.10.762,task,2021.1.4,Win32,60.0240096,628b806c463b948bc644b84f,629afad1cea7a350daf37a47,,,,,,,,,,,,,,,,,,,,,,,,,,,,,,,,,,,,,,,,,,,,,,,,,,,,,,,,,,,,,,,,,,,,,,,,,,,,,,,,,,,,,,,,,,,,,,,,,,,,,,,
,,"[""comma""]",0,[0.3191999999284576],99,0,99,0,1,5fe23b8f29598a58fee0b230,19,Mężczyzna,2022-06-04_08h26.10.762,task,2021.1.4,Win32,60.0240096,628b806c463b948bc644b84f,629afad1cea7a350daf37a47,,,,,,,,,,,,,,,,,,,,,,,,,,,,,,,,,,,,,,,,,,,,,,,,,,,,,,,,,,,,,,,,,,,,,,,,,,,,,,,,,,,,,,,,,,,,,,,,,,,,,,,
,,"[""comma""]",0,[0.16889999997619043],100,0,100,0,1,5fe23b8f29598a58fee0b230,19,Mężczyzna,2022-06-04_08h26.10.762,task,2021.1.4,Win32,60.0240096,628b806c463b948bc644b84f,629afad1cea7a350daf37a47,,,,,,,,,,,,,,,,,,,,,,,,,,,,,,,,,,,,,,,,,,,,,,,,,,,,,,,,,,,,,,,,,,,,,,,,,,,,,,,,,,,,,,,,,,,,,,,,,,,,,,,
,,"[""period""]",0,[0.0003999999761958861],101,0,101,0,1,5fe23b8f29598a58fee0b230,19,Mężczyzna,2022-06-04_08h26.10.762,task,2021.1.4,Win32,60.0240096,628b806c463b948bc644b84f,629afad1cea7a350daf37a47,,,,,,,,,,,,,,,,,,,,,,,,,,,,,,,,,,,,,,,,,,,,,,,,,,,,,,,,,,,,,,,,,,,,,,,,,,,,,,,,,,,,,,,,,,,,,,,,,,,,,,,
,,"[""comma""]",0,[0.11659999990467895],102,0,102,0,1,5fe23b8f29598a58fee0b230,19,Mężczyzna,2022-06-04_08h26.10.762,task,2021.1.4,Win32,60.0240096,628b806c463b948bc644b84f,629afad1cea7a350daf37a47,,,,,,,,,,,,,,,,,,,,,,,,,,,,,,,,,,,,,,,,,,,,,,,,,,,,,,,,,,,,,,,,,,,,,,,,,,,,,,,,,,,,,,,,,,,,,,,,,,,,,,,
,,"[""period""]",0,[0.2644999999999982],103,0,103,0,1,5fe23b8f29598a58fee0b230,19,Mężczyzna,2022-06-04_08h26.10.762,task,2021.1.4,Win32,60.0240096,628b806c463b948bc644b84f,629afad1cea7a350daf37a47,,,,,,,,,,,,,,,,,,,,,,,,,,,,,,,,,,,,,,,,,,,,,,,,,,,,,,,,,,,,,,,,,,,,,,,,,,,,,,,,,,,,,,,,,,,,,,,,,,,,,,,
,,"[""period""]",0,[0.21750000000002956],104,0,104,0,1,5fe23b8f29598a58fee0b230,19,Mężczyzna,2022-06-04_08h26.10.762,task,2021.1.4,Win32,60.0240096,628b806c463b948bc644b84f,629afad1cea7a350daf37a47,,,,,,,,,,,,,,,,,,,,,,,,,,,,,,,,,,,,,,,,,,,,,,,,,,,,,,,,,,,,,,,,,,,,,,,,,,,,,,,,,,,,,,,,,,,,,,,,,,,,,,,
,,"[""comma""]",0,[0.27600000000001046],105,0,105,0,1,5fe23b8f29598a58fee0b230,19,Mężczyzna,2022-06-04_08h26.10.762,task,2021.1.4,Win32,60.0240096,628b806c463b948bc644b84f,629afad1cea7a350daf37a47,,,,,,,,,,,,,,,,,,,,,,,,,,,,,,,,,,,,,,,,,,,,,,,,,,,,,,,,,,,,,,,,,,,,,,,,,,,,,,,,,,,,,,,,,,,,,,,,,,,,,,,
,,"[""comma""]",0,[0.31740000009534697],106,0,106,0,1,5fe23b8f29598a58fee0b230,19,Mężczyzna,2022-06-04_08h26.10.762,task,2021.1.4,Win32,60.0240096,628b806c463b948bc644b84f,629afad1cea7a350daf37a47,,,,,,,,,,,,,,,,,,,,,,,,,,,,,,,,,,,,,,,,,,,,,,,,,,,,,,,,,,,,,,,,,,,,,,,,,,,,,,,,,,,,,,,,,,,,,,,,,,,,,,,
,,"[""comma""]",0,[0.2895000000000323],107,0,107,0,1,5fe23b8f29598a58fee0b230,19,Mężczyzna,2022-06-04_08h26.10.762,task,2021.1.4,Win32,60.0240096,628b806c463b948bc644b84f,629afad1cea7a350daf37a47,,,,,,,,,,,,,,,,,,,,,,,,,,,,,,,,,,,,,,,,,,,,,,,,,,,,,,,,,,,,,,,,,,,,,,,,,,,,,,,,,,,,,,,,,,,,,,,,,,,,,,,
,,"[""period""]",0,[0.029999999999972715],108,0,108,0,1,5fe23b8f29598a58fee0b230,19,Mężczyzna,2022-06-04_08h26.10.762,task,2021.1.4,Win32,60.0240096,628b806c463b948bc644b84f,629afad1cea7a350daf37a47,,,,,,,,,,,,,,,,,,,,,,,,,,,,,,,,,,,,,,,,,,,,,,,,,,,,,,,,,,,,,,,,,,,,,,,,,,,,,,,,,,,,,,,,,,,,,,,,,,,,,,,
,,"[""period""]",0,[0.4026000000238241],109,0,109,0,1,5fe23b8f29598a58fee0b230,19,Mężczyzna,2022-06-04_08h26.10.762,task,2021.1.4,Win32,60.0240096,628b806c463b948bc644b84f,629afad1cea7a350daf37a47,,,,,,,,,,,,,,,,,,,,,,,,,,,,,,,,,,,,,,,,,,,,,,,,,,,,,,,,,,,,,,,,,,,,,,,,,,,,,,,,,,,,,,,,,,,,,,,,,,,,,,,
,,"[""comma""]",0,[0.25720000004770327],110,0,110,0,1,5fe23b8f29598a58fee0b230,19,Mężczyzna,2022-06-04_08h26.10.762,task,2021.1.4,Win32,60.0240096,628b806c463b948bc644b84f,629afad1cea7a350daf37a47,,,,,,,,,,,,,,,,,,,,,,,,,,,,,,,,,,,,,,,,,,,,,,,,,,,,,,,,,,,,,,,,,,,,,,,,,,,,,,,,,,,,,,,,,,,,,,,,,,,,,,,
,,"[""period""]",0,[0.2644999999999982],111,0,111,0,1,5fe23b8f29598a58fee0b230,19,Mężczyzna,2022-06-04_08h26.10.762,task,2021.1.4,Win32,60.0240096,628b806c463b948bc644b84f,629afad1cea7a350daf37a47,,,,,,,,,,,,,,,,,,,,,,,,,,,,,,,,,,,,,,,,,,,,,,,,,,,,,,,,,,,,,,,,,,,,,,,,,,,,,,,,,,,,,,,,,,,,,,,,,,,,,,,
,,"[""period""]",0,[0.25269999992849534],112,0,112,0,1,5fe23b8f29598a58fee0b230,19,Mężczyzna,2022-06-04_08h26.10.762,task,2021.1.4,Win32,60.0240096,628b806c463b948bc644b84f,629afad1cea7a350daf37a47,,,,,,,,,,,,,,,,,,,,,,,,,,,,,,,,,,,,,,,,,,,,,,,,,,,,,,,,,,,,,,,,,,,,,,,,,,,,,,,,,,,,,,,,,,,,,,,,,,,,,,,
,,"[""comma""]",0,[0.27209999990463984],113,0,113,0,1,5fe23b8f29598a58fee0b230,19,Mężczyzna,2022-06-04_08h26.10.762,task,2021.1.4,Win32,60.0240096,628b806c463b948bc644b84f,629afad1cea7a350daf37a47,,,,,,,,,,,,,,,,,,,,,,,,,,,,,,,,,,,,,,,,,,,,,,,,,,,,,,,,,,,,,,,,,,,,,,,,,,,,,,,,,,,,,,,,,,,,,,,,,,,,,,,
,,"[""period""]",0,[0.24979999995230173],114,0,114,0,1,5fe23b8f29598a58fee0b230,19,Mężczyzna,2022-06-04_08h26.10.762,task,2021.1.4,Win32,60.0240096,628b806c463b948bc644b84f,629afad1cea7a350daf37a47,,,,,,,,,,,,,,,,,,,,,,,,,,,,,,,,,,,,,,,,,,,,,,,,,,,,,,,,,,,,,,,,,,,,,,,,,,,,,,,,,,,,,,,,,,,,,,,,,,,,,,,
,,"[""period""]",0,[0.3009999999999877],115,0,115,0,1,5fe23b8f29598a58fee0b230,19,Mężczyzna,2022-06-04_08h26.10.762,task,2021.1.4,Win32,60.0240096,628b806c463b948bc644b84f,629afad1cea7a350daf37a47,,,,,,,,,,,,,,,,,,,,,,,,,,,,,,,,,,,,,,,,,,,,,,,,,,,,,,,,,,,,,,,,,,,,,,,,,,,,,,,,,,,,,,,,,,,,,,,,,,,,,,,
,,"[""period""]",0,[0.30049999999999955],116,0,116,0,1,5fe23b8f29598a58fee0b230,19,Mężczyzna,2022-06-04_08h26.10.762,task,2021.1.4,Win32,60.0240096,628b806c463b948bc644b84f,629afad1cea7a350daf37a47,,,,,,,,,,,,,,,,,,,,,,,,,,,,,,,,,,,,,,,,,,,,,,,,,,,,,,,,,,,,,,,,,,,,,,,,,,,,,,,,,,,,,,,,,,,,,,,,,,,,,,,
,,"[""period""]",0,[0.3031999999284949],117,0,117,0,1,5fe23b8f29598a58fee0b230,19,Mężczyzna,2022-06-04_08h26.10.762,task,2021.1.4,Win32,60.0240096,628b806c463b948bc644b84f,629afad1cea7a350daf37a47,,,,,,,,,,,,,,,,,,,,,,,,,,,,,,,,,,,,,,,,,,,,,,,,,,,,,,,,,,,,,,,,,,,,,,,,,,,,,,,,,,,,,,,,,,,,,,,,,,,,,,,
,,"[""period""]",0,[0.24819999992848807],118,0,118,0,1,5fe23b8f29598a58fee0b230,19,Mężczyzna,2022-06-04_08h26.10.762,task,2021.1.4,Win32,60.0240096,628b806c463b948bc644b84f,629afad1cea7a350daf37a47,,,,,,,,,,,,,,,,,,,,,,,,,,,,,,,,,,,,,,,,,,,,,,,,,,,,,,,,,,,,,,,,,,,,,,,,,,,,,,,,,,,,,,,,,,,,,,,,,,,,,,,
,,"[""period""]",0,[0.43549999999999045],119,0,119,0,1,5fe23b8f29598a58fee0b230,19,Mężczyzna,2022-06-04_08h26.10.762,task,2021.1.4,Win32,60.0240096,628b806c463b948bc644b84f,629afad1cea7a350daf37a47,,,,,,,,,,,,,,,,,,,,,,,,,,,,,,,,,,,,,,,,,,,,,,,,,,,,,,,,,,,,,,,,,,,,,,,,,,,,,,,,,,,,,,,,,,,,,,,,,,,,,,,
,,,,,,,,,,5fe23b8f29598a58fee0b230,19,Mężczyzna,2022-06-04_08h26.10.762,task,2021.1.4,Win32,60.0240096,628b806c463b948bc644b84f,629afad1cea7a350daf37a47,space,13.5893,space,6.9755,0,0,0,0,1,X V Q F H G B L J M P D K C T S W R N Z,,,,,,,,,,,,,,,,,,,,,,,,,,,,,,,,,,,,,,,,,,,,,,,,,,,,,,,,,,,,,,,,,,,,,,,,,,,,,,,,,,,,,,,,,,,,,
,,,,,,,,,,5fe23b8f29598a58fee0b230,19,Mężczyzna,2022-06-04_08h26.10.762,task,2021.1.4,Win32,60.0240096,628b806c463b948bc644b84f,629afad1cea7a350daf37a47,,,,,1,0,1,0,1,X V Q F H G B L J M P D K C T S W R N Z,,,,,,,,,,,,,,,,,,,,,,,,,,,,,,,,,,,,,,,,,,,,,,,,,,,,,,,,,,,,,,,,,,,,,,,,,,,,,,,,,,,,,,,,,,,,,
,,,,,,,,,,5fe23b8f29598a58fee0b230,19,Mężczyzna,2022-06-04_08h26.10.762,task,2021.1.4,Win32,60.0240096,628b806c463b948bc644b84f,629afad1cea7a350daf37a47,,,,,,,,,,,zc,"[""z"",""c""]","[1.7913000000714874,1.9248000000715138,3.7082000000476683]",1,ZC,0,0,0,0,1,,,,,,,,,,,,,,,,,,,,,,,,,,,,,,,,,,,,,,,,,,,,,,,,,,,,,,,,,,,,,,,,,,,,,,,,,,,,,,,,,,,
,,,,,,,,,,5fe23b8f29598a58fee0b230,19,Mężczyzna,2022-06-04_08h26.10.762,task,2021.1.4,Win32,60.0240096,628b806c463b948bc644b84f,629afad1cea7a350daf37a47,,,,,0,0,0,0,1,X V Q F H G B L J M P D K C T S W R N Z,,,,,,,,,,,,,,,,,,,,,,,,,,,,,,,,,,,,,,,,,,,,,,,,,,,,,,,,,,,,,,,,,,,,,,,,,,,,,,,,,,,,,,,,,,,,,
,,,,,,,,,,5fe23b8f29598a58fee0b230,19,Mężczyzna,2022-06-04_08h26.10.762,task,2021.1.4,Win32,60.0240096,628b806c463b948bc644b84f,629afad1cea7a350daf37a47,,,,,1,0,1,0,1,X V Q F H G B L J M P D K C T S W R N Z,,,,,,,,,,,,,,,,,,,,,,,,,,,,,,,,,,,,,,,,,,,,,,,,,,,,,,,,,,,,,,,,,,,,,,,,,,,,,,,,,,,,,,,,,,,,,
,,,,,,,,,,5fe23b8f29598a58fee0b230,19,Mężczyzna,2022-06-04_08h26.10.762,task,2021.1.4,Win32,60.0240096,628b806c463b948bc644b84f,629afad1cea7a350daf37a47,,,,,,,,,,,zw,"[""z"",""w""]","[0.7669999999999959,1.0171999999284935,1.2667999999522976]",1,ZW,1,0,1,0,1,,,,,,,,,,,,,,,,,,,,,,,,,,,,,,,,,,,,,,,,,,,,,,,,,,,,,,,,,,,,,,,,,,,,,,,,,,,,,,,,,,,
,,,,,,,,,,5fe23b8f29598a58fee0b230,19,Mężczyzna,2022-06-04_08h26.10.762,task,2021.1.4,Win32,60.0240096,628b806c463b948bc644b84f,629afad1cea7a350daf37a47,,,,,0,0,0,0,1,X V Q F H G B L J M P D K C T S W R N Z,,,,,,,,,,,,,,,,,,,,,,,,,,,,,,,,,,,,,,,,,,,,,,,,,,,,,,,,,,,,,,,,,,,,,,,,,,,,,,,,,,,,,,,,,,,,,
,,,,,,,,,,5fe23b8f29598a58fee0b230,19,Mężczyzna,2022-06-04_08h26.10.762,task,2021.1.4,Win32,60.0240096,628b806c463b948bc644b84f,629afad1cea7a350daf37a47,,,,,1,0,1,0,1,X V Q F H G B L J M P D K C T S W R N Z,,,,,,,,,,,,,,,,,,,,,,,,,,,,,,,,,,,,,,,,,,,,,,,,,,,,,,,,,,,,,,,,,,,,,,,,,,,,,,,,,,,,,,,,,,,,,
,,,,,,,,,,5fe23b8f29598a58fee0b230,19,Mężczyzna,2022-06-04_08h26.10.762,task,2021.1.4,Win32,60.0240096,628b806c463b948bc644b84f,629afad1cea7a350daf37a47,,,,,2,0,2,0,1,X V Q F H G B L J M P D K C T S W R N Z,,,,,,,,,,,,,,,,,,,,,,,,,,,,,,,,,,,,,,,,,,,,,,,,,,,,,,,,,,,,,,,,,,,,,,,,,,,,,,,,,,,,,,,,,,,,,
,,,,,,,,,,5fe23b8f29598a58fee0b230,19,Mężczyzna,2022-06-04_08h26.10.762,task,2021.1.4,Win32,60.0240096,628b806c463b948bc644b84f,629afad1cea7a350daf37a47,,,,,,,,,,,ssd,"[""s"",""s"",""d""]","[0.5769999999999982,0.7507000000476864,0.9172000000476714,1.9508000000715242]",1,SSD,2,0,2,0,1,,,,,,,,,,,,,,,,,,,,,,,,,,,,,,,,,,,,,,,,,,,,,,,,,,,,,,,,,,,,,,,,,,,,,,,,,,,,,,,,,,,
,,,,,,,,,,5fe23b8f29598a58fee0b230,19,Mężczyzna,2022-06-04_08h26.10.762,task,2021.1.4,Win32,60.0240096,628b806c463b948bc644b84f,629afad1cea7a350daf37a47,,,,,0,0,0,0,1,X V Q F H G B L J M P D K C T S W R N Z,,,,,,,,,,,,,,,,,,,,,,,,,,,,,,,,,,,,,,,,,,,,,,,,,,,,,,,,,,,,,,,,,,,,,,,,,,,,,,,,,,,,,,,,,,,,,
,,,,,,,,,,5fe23b8f29598a58fee0b230,19,Mężczyzna,2022-06-04_08h26.10.762,task,2021.1.4,Win32,60.0240096,628b806c463b948bc644b84f,629afad1cea7a350daf37a47,,,,,1,0,1,0,1,X V Q F H G B L J M P D K C T S W R N Z,,,,,,,,,,,,,,,,,,,,,,,,,,,,,,,,,,,,,,,,,,,,,,,,,,,,,,,,,,,,,,,,,,,,,,,,,,,,,,,,,,,,,,,,,,,,,
,,,,,,,,,,5fe23b8f29598a58fee0b230,19,Mężczyzna,2022-06-04_08h26.10.762,task,2021.1.4,Win32,60.0240096,628b806c463b948bc644b84f,629afad1cea7a350daf37a47,,,,,2,0,2,0,1,X V Q F H G B L J M P D K C T S W R N Z,,,,,,,,,,,,,,,,,,,,,,,,,,,,,,,,,,,,,,,,,,,,,,,,,,,,,,,,,,,,,,,,,,,,,,,,,,,,,,,,,,,,,,,,,,,,,
,,,,,,,,,,5fe23b8f29598a58fee0b230,19,Mężczyzna,2022-06-04_08h26.10.762,task,2021.1.4,Win32,60.0240096,628b806c463b948bc644b84f,629afad1cea7a350daf37a47,,,,,,,,,,,ddg,"[""d"",""d"",""g""]","[0.5339999999999918,0.6507000000476637,0.8841000000238637,1.5338000000714942]",1,DDG,3,0,3,0,1,,,,,,,,,,,,,,,,,,,,,,,,,,,,,,,,,,,,,,,,,,,,,,,,,,,,,,,,,,,,,,,,,,,,,,,,,,,,,,,,,,,
,,,,,,,,,,5fe23b8f29598a58fee0b230,19,Mężczyzna,2022-06-04_08h26.10.762,task,2021.1.4,Win32,60.0240096,628b806c463b948bc644b84f,629afad1cea7a350daf37a47,,,,,0,0,0,0,1,X V Q F H G B L J M P D K C T S W R N Z,,,,,,,,,,,,,,,,,,,,,,,,,,,,,,,,,,,,,,,,,,,,,,,,,,,,,,,,,,,,,,,,,,,,,,,,,,,,,,,,,,,,,,,,,,,,,
,,,,,,,,,,5fe23b8f29598a58fee0b230,19,Mężczyzna,2022-06-04_08h26.10.762,task,2021.1.4,Win32,60.0240096,628b806c463b948bc644b84f,629afad1cea7a350daf37a47,,,,,1,0,1,0,1,X V Q F H G B L J M P D K C T S W R N Z,,,,,,,,,,,,,,,,,,,,,,,,,,,,,,,,,,,,,,,,,,,,,,,,,,,,,,,,,,,,,,,,,,,,,,,,,,,,,,,,,,,,,,,,,,,,,
,,,,,,,,,,5fe23b8f29598a58fee0b230,19,Mężczyzna,2022-06-04_08h26.10.762,task,2021.1.4,Win32,60.0240096,628b806c463b948bc644b84f,629afad1cea7a350daf37a47,,,,,2,0,2,0,1,X V Q F H G B L J M P D K C T S W R N Z,,,,,,,,,,,,,,,,,,,,,,,,,,,,,,,,,,,,,,,,,,,,,,,,,,,,,,,,,,,,,,,,,,,,,,,,,,,,,,,,,,,,,,,,,,,,,
,,,,,,,,,,5fe23b8f29598a58fee0b230,19,Mężczyzna,2022-06-04_08h26.10.762,task,2021.1.4,Win32,60.0240096,628b806c463b948bc644b84f,629afad1cea7a350daf37a47,,,,,3,0,3,0,1,X V Q F H G B L J M P D K C T S W R N Z,,,,,,,,,,,,,,,,,,,,,,,,,,,,,,,,,,,,,,,,,,,,,,,,,,,,,,,,,,,,,,,,,,,,,,,,,,,,,,,,,,,,,,,,,,,,,
,,,,,,,,,,5fe23b8f29598a58fee0b230,19,Mężczyzna,2022-06-04_08h26.10.762,task,2021.1.4,Win32,60.0240096,628b806c463b948bc644b84f,629afad1cea7a350daf37a47,,,,,,,,,,,fplx,"[""f"",""p"",""l"",""x""]","[1.6163999999761813,1.767399999976135,1.9395000000000095,2.1742000000476764,2.5842000000477015]",1,FPLX,4,0,4,0,1,,,,,,,,,,,,,,,,,,,,,,,,,,,,,,,,,,,,,,,,,,,,,,,,,,,,,,,,,,,,,,,,,,,,,,,,,,,,,,,,,,,
,,,,,,,,,,5fe23b8f29598a58fee0b230,19,Mężczyzna,2022-06-04_08h26.10.762,task,2021.1.4,Win32,60.0240096,628b806c463b948bc644b84f,629afad1cea7a350daf37a47,,,,,0,0,0,0,1,X V Q F H G B L J M P D K C T S W R N Z,,,,,,,,,,,,,,,,,,,,,,,,,,,,,,,,,,,,,,,,,,,,,,,,,,,,,,,,,,,,,,,,,,,,,,,,,,,,,,,,,,,,,,,,,,,,,
,,,,,,,,,,5fe23b8f29598a58fee0b230,19,Mężczyzna,2022-06-04_08h26.10.762,task,2021.1.4,Win32,60.0240096,628b806c463b948bc644b84f,629afad1cea7a350daf37a47,,,,,1,0,1,0,1,X V Q F H G B L J M P D K C T S W R N Z,,,,,,,,,,,,,,,,,,,,,,,,,,,,,,,,,,,,,,,,,,,,,,,,,,,,,,,,,,,,,,,,,,,,,,,,,,,,,,,,,,,,,,,,,,,,,
,,,,,,,,,,5fe23b8f29598a58fee0b230,19,Mężczyzna,2022-06-04_08h26.10.762,task,2021.1.4,Win32,60.0240096,628b806c463b948bc644b84f,629afad1cea7a350daf37a47,,,,,2,0,2,0,1,X V Q F H G B L J M P D K C T S W R N Z,,,,,,,,,,,,,,,,,,,,,,,,,,,,,,,,,,,,,,,,,,,,,,,,,,,,,,,,,,,,,,,,,,,,,,,,,,,,,,,,,,,,,,,,,,,,,
,,,,,,,,,,5fe23b8f29598a58fee0b230,19,Mężczyzna,2022-06-04_08h26.10.762,task,2021.1.4,Win32,60.0240096,628b806c463b948bc644b84f,629afad1cea7a350daf37a47,,,,,3,0,3,0,1,X V Q F H G B L J M P D K C T S W R N Z,,,,,,,,,,,,,,,,,,,,,,,,,,,,,,,,,,,,,,,,,,,,,,,,,,,,,,,,,,,,,,,,,,,,,,,,,,,,,,,,,,,,,,,,,,,,,
,,,,,,,,,,5fe23b8f29598a58fee0b230,19,Mężczyzna,2022-06-04_08h26.10.762,task,2021.1.4,Win32,60.0240096,628b806c463b948bc644b84f,629afad1cea7a350daf37a47,,,,,,,,,,,nxwl,"[""n"",""x"",""w"",""l""]","[1.6412999999523095,1.760499999999979,1.9900999999046576,2.1346999999285003,2.5897999999523336]",1,NXWL,5,0,5,0,1,,,,,,,,,,,,,,,,,,,,,,,,,,,,,,,,,,,,,,,,,,,,,,,,,,,,,,,,,,,,,,,,,,,,,,,,,,,,,,,,,,,
,,,,,,,,,,5fe23b8f29598a58fee0b230,19,Mężczyzna,2022-06-04_08h26.10.762,task,2021.1.4,Win32,60.0240096,628b806c463b948bc644b84f,629afad1cea7a350daf37a47,,,,,0,0,0,0,1,X V Q F H G B L J M P D K C T S W R N Z,,,,,,,,,,,,,,,,,,,,,,,,,,,,,,,,,,,,,,,,,,,,,,,,,,,,,,,,,,,,,,,,,,,,,,,,,,,,,,,,,,,,,,,,,,,,,
,,,,,,,,,,5fe23b8f29598a58fee0b230,19,Mężczyzna,2022-06-04_08h26.10.762,task,2021.1.4,Win32,60.0240096,628b806c463b948bc644b84f,629afad1cea7a350daf37a47,,,,,1,0,1,0,1,X V Q F H G B L J M P D K C T S W R N Z,,,,,,,,,,,,,,,,,,,,,,,,,,,,,,,,,,,,,,,,,,,,,,,,,,,,,,,,,,,,,,,,,,,,,,,,,,,,,,,,,,,,,,,,,,,,,
,,,,,,,,,,5fe23b8f29598a58fee0b230,19,Mężczyzna,2022-06-04_08h26.10.762,task,2021.1.4,Win32,60.0240096,628b806c463b948bc644b84f,629afad1cea7a350daf37a47,,,,,2,0,2,0,1,X V Q F H G B L J M P D K C T S W R N Z,,,,,,,,,,,,,,,,,,,,,,,,,,,,,,,,,,,,,,,,,,,,,,,,,,,,,,,,,,,,,,,,,,,,,,,,,,,,,,,,,,,,,,,,,,,,,
,,,,,,,,,,5fe23b8f29598a58fee0b230,19,Mężczyzna,2022-06-04_08h26.10.762,task,2021.1.4,Win32,60.0240096,628b806c463b948bc644b84f,629afad1cea7a350daf37a47,,,,,3,0,3,0,1,X V Q F H G B L J M P D K C T S W R N Z,,,,,,,,,,,,,,,,,,,,,,,,,,,,,,,,,,,,,,,,,,,,,,,,,,,,,,,,,,,,,,,,,,,,,,,,,,,,,,,,,,,,,,,,,,,,,
,,,,,,,,,,5fe23b8f29598a58fee0b230,19,Mężczyzna,2022-06-04_08h26.10.762,task,2021.1.4,Win32,60.0240096,628b806c463b948bc644b84f,629afad1cea7a350daf37a47,,,,,4,0,4,0,1,X V Q F H G B L J M P D K C T S W R N Z,,,,,,,,,,,,,,,,,,,,,,,,,,,,,,,,,,,,,,,,,,,,,,,,,,,,,,,,,,,,,,,,,,,,,,,,,,,,,,,,,,,,,,,,,,,,,
,,,,,,,,,,5fe23b8f29598a58fee0b230,19,Mężczyzna,2022-06-04_08h26.10.762,task,2021.1.4,Win32,60.0240096,628b806c463b948bc644b84f,629afad1cea7a350daf37a47,,,,,,,,,,,mlgnh,"[""m"",""l"",""g"",""n"",""h""]","[1.2005000000000337,1.4187000000476928,1.6003000000715133,1.950200000047687,2.0503000000715588,2.901800000071546]",1,MLGNH,6,0,6,0,1,,,,,,,,,,,,,,,,,,,,,,,,,,,,,,,,,,,,,,,,,,,,,,,,,,,,,,,,,,,,,,,,,,,,,,,,,,,,,,,,,,,
,,,,,,,,,,5fe23b8f29598a58fee0b230,19,Mężczyzna,2022-06-04_08h26.10.762,task,2021.1.4,Win32,60.0240096,628b806c463b948bc644b84f,629afad1cea7a350daf37a47,,,,,0,0,0,0,1,X V Q F H G B L J M P D K C T S W R N Z,,,,,,,,,,,,,,,,,,,,,,,,,,,,,,,,,,,,,,,,,,,,,,,,,,,,,,,,,,,,,,,,,,,,,,,,,,,,,,,,,,,,,,,,,,,,,
,,,,,,,,,,5fe23b8f29598a58fee0b230,19,Mężczyzna,2022-06-04_08h26.10.762,task,2021.1.4,Win32,60.0240096,628b806c463b948bc644b84f,629afad1cea7a350daf37a47,,,,,1,0,1,0,1,X V Q F H G B L J M P D K C T S W R N Z,,,,,,,,,,,,,,,,,,,,,,,,,,,,,,,,,,,,,,,,,,,,,,,,,,,,,,,,,,,,,,,,,,,,,,,,,,,,,,,,,,,,,,,,,,,,,
,,,,,,,,,,5fe23b8f29598a58fee0b230,19,Mężczyzna,2022-06-04_08h26.10.762,task,2021.1.4,Win32,60.0240096,628b806c463b948bc644b84f,629afad1cea7a350daf37a47,,,,,2,0,2,0,1,X V Q F H G B L J M P D K C T S W R N Z,,,,,,,,,,,,,,,,,,,,,,,,,,,,,,,,,,,,,,,,,,,,,,,,,,,,,,,,,,,,,,,,,,,,,,,,,,,,,,,,,,,,,,,,,,,,,
,,,,,,,,,,5fe23b8f29598a58fee0b230,19,Mężczyzna,2022-06-04_08h26.10.762,task,2021.1.4,Win32,60.0240096,628b806c463b948bc644b84f,629afad1cea7a350daf37a47,,,,,3,0,3,0,1,X V Q F H G B L J M P D K C T S W R N Z,,,,,,,,,,,,,,,,,,,,,,,,,,,,,,,,,,,,,,,,,,,,,,,,,,,,,,,,,,,,,,,,,,,,,,,,,,,,,,,,,,,,,,,,,,,,,
,,,,,,,,,,5fe23b8f29598a58fee0b230,19,Mężczyzna,2022-06-04_08h26.10.762,task,2021.1.4,Win32,60.0240096,628b806c463b948bc644b84f,629afad1cea7a350daf37a47,,,,,4,0,4,0,1,X V Q F H G B L J M P D K C T S W R N Z,,,,,,,,,,,,,,,,,,,,,,,,,,,,,,,,,,,,,,,,,,,,,,,,,,,,,,,,,,,,,,,,,,,,,,,,,,,,,,,,,,,,,,,,,,,,,
,,,,,,,,,,5fe23b8f29598a58fee0b230,19,Mężczyzna,2022-06-04_08h26.10.762,task,2021.1.4,Win32,60.0240096,628b806c463b948bc644b84f,629afad1cea7a350daf37a47,,,,,,,,,,,wnnxw,"[""w"",""n"",""n"",""x"",""w""]","[1.3841999999284553,1.5249999999999773,1.674199999928419,2.066799999952309,2.2387999999522776,2.7252999999523126]",1,WNNXW,7,0,7,0,1,,,,,,,,,,,,,,,,,,,,,,,,,,,,,,,,,,,,,,,,,,,,,,,,,,,,,,,,,,,,,,,,,,,,,,,,,,,,,,,,,,,
,,,,,,,,,,5fe23b8f29598a58fee0b230,19,Mężczyzna,2022-06-04_08h26.10.762,task,2021.1.4,Win32,60.0240096,628b806c463b948bc644b84f,629afad1cea7a350daf37a47,,,,,0,0,0,0,1,X V Q F H G B L J M P D K C T S W R N Z,,,,,,,,,,,,,,,,,,,,,,,,,,,,,,,,,,,,,,,,,,,,,,,,,,,,,,,,,,,,,,,,,,,,,,,,,,,,,,,,,,,,,,,,,,,,,
,,,,,,,,,,5fe23b8f29598a58fee0b230,19,Mężczyzna,2022-06-04_08h26.10.762,task,2021.1.4,Win32,60.0240096,628b806c463b948bc644b84f,629afad1cea7a350daf37a47,,,,,1,0,1,0,1,X V Q F H G B L J M P D K C T S W R N Z,,,,,,,,,,,,,,,,,,,,,,,,,,,,,,,,,,,,,,,,,,,,,,,,,,,,,,,,,,,,,,,,,,,,,,,,,,,,,,,,,,,,,,,,,,,,,
,,,,,,,,,,5fe23b8f29598a58fee0b230,19,Mężczyzna,2022-06-04_08h26.10.762,task,2021.1.4,Win32,60.0240096,628b806c463b948bc644b84f,629afad1cea7a350daf37a47,,,,,2,0,2,0,1,X V Q F H G B L J M P D K C T S W R N Z,,,,,,,,,,,,,,,,,,,,,,,,,,,,,,,,,,,,,,,,,,,,,,,,,,,,,,,,,,,,,,,,,,,,,,,,,,,,,,,,,,,,,,,,,,,,,
,,,,,,,,,,5fe23b8f29598a58fee0b230,19,Mężczyzna,2022-06-04_08h26.10.762,task,2021.1.4,Win32,60.0240096,628b806c463b948bc644b84f,629afad1cea7a350daf37a47,,,,,3,0,3,0,1,X V Q F H G B L J M P D K C T S W R N Z,,,,,,,,,,,,,,,,,,,,,,,,,,,,,,,,,,,,,,,,,,,,,,,,,,,,,,,,,,,,,,,,,,,,,,,,,,,,,,,,,,,,,,,,,,,,,
,,,,,,,,,,5fe23b8f29598a58fee0b230,19,Mężczyzna,2022-06-04_08h26.10.762,task,2021.1.4,Win32,60.0240096,628b806c463b948bc644b84f,629afad1cea7a350daf37a47,,,,,4,0,4,0,1,X V Q F H G B L J M P D K C T S W R N Z,,,,,,,,,,,,,,,,,,,,,,,,,,,,,,,,,,,,,,,,,,,,,,,,,,,,,,,,,,,,,,,,,,,,,,,,,,,,,,,,,,,,,,,,,,,,,
,,,,,,,,,,5fe23b8f29598a58fee0b230,19,Mężczyzna,2022-06-04_08h26.10.762,task,2021.1.4,Win32,60.0240096,628b806c463b948bc644b84f,629afad1cea7a350daf37a47,,,,,5,0,5,0,1,X V Q F H G B L J M P D K C T S W R N Z,,,,,,,,,,,,,,,,,,,,,,,,,,,,,,,,,,,,,,,,,,,,,,,,,,,,,,,,,,,,,,,,,,,,,,,,,,,,,,,,,,,,,,,,,,,,,
,,,,,,,,,,5fe23b8f29598a58fee0b230,19,Mężczyzna,2022-06-04_08h26.10.762,task,2021.1.4,Win32,60.0240096,628b806c463b948bc644b84f,629afad1cea7a350daf37a47,,,,,,,,,,,bkdhcw,"[""b"",""k"",""d"",""h"",""c"",""w""]","[1.3267999999523,1.5841000000238523,1.8333999999761659,2.1343999999761536,2.359999999999957,2.9228999999761527,3.349999999999966]",0,BKHDCW,8,0,8,0,1,,,,,,,,,,,,,,,,,,,,,,,,,,,,,,,,,,,,,,,,,,,,,,,,,,,,,,,,,,,,,,,,,,,,,,,,,,,,,,,,,,,
,,,,,,,,,,5fe23b8f29598a58fee0b230,19,Mężczyzna,2022-06-04_08h26.10.762,task,2021.1.4,Win32,60.0240096,628b806c463b948bc644b84f,629afad1cea7a350daf37a47,,,,,0,0,0,0,1,X V Q F H G B L J M P D K C T S W R N Z,,,,,,,,,,,,,,,,,,,,,,,,,,,,,,,,,,,,,,,,,,,,,,,,,,,,,,,,,,,,,,,,,,,,,,,,,,,,,,,,,,,,,,,,,,,,,
,,,,,,,,,,5fe23b8f29598a58fee0b230,19,Mężczyzna,2022-06-04_08h26.10.762,task,2021.1.4,Win32,60.0240096,628b806c463b948bc644b84f,629afad1cea7a350daf37a47,,,,,1,0,1,0,1,X V Q F H G B L J M P D K C T S W R N Z,,,,,,,,,,,,,,,,,,,,,,,,,,,,,,,,,,,,,,,,,,,,,,,,,,,,,,,,,,,,,,,,,,,,,,,,,,,,,,,,,,,,,,,,,,,,,
,,,,,,,,,,5fe23b8f29598a58fee0b230,19,Mężczyzna,2022-06-04_08h26.10.762,task,2021.1.4,Win32,60.0240096,628b806c463b948bc644b84f,629afad1cea7a350daf37a47,,,,,2,0,2,0,1,X V Q F H G B L J M P D K C T S W R N Z,,,,,,,,,,,,,,,,,,,,,,,,,,,,,,,,,,,,,,,,,,,,,,,,,,,,,,,,,,,,,,,,,,,,,,,,,,,,,,,,,,,,,,,,,,,,,
,,,,,,,,,,5fe23b8f29598a58fee0b230,19,Mężczyzna,2022-06-04_08h26.10.762,task,2021.1.4,Win32,60.0240096,628b806c463b948bc644b84f,629afad1cea7a350daf37a47,,,,,3,0,3,0,1,X V Q F H G B L J M P D K C T S W R N Z,,,,,,,,,,,,,,,,,,,,,,,,,,,,,,,,,,,,,,,,,,,,,,,,,,,,,,,,,,,,,,,,,,,,,,,,,,,,,,,,,,,,,,,,,,,,,
,,,,,,,,,,5fe23b8f29598a58fee0b230,19,Mężczyzna,2022-06-04_08h26.10.762,task,2021.1.4,Win32,60.0240096,628b806c463b948bc644b84f,629afad1cea7a350daf37a47,,,,,4,0,4,0,1,X V Q F H G B L J M P D K C T S W R N Z,,,,,,,,,,,,,,,,,,,,,,,,,,,,,,,,,,,,,,,,,,,,,,,,,,,,,,,,,,,,,,,,,,,,,,,,,,,,,,,,,,,,,,,,,,,,,
,,,,,,,,,,5fe23b8f29598a58fee0b230,19,Mężczyzna,2022-06-04_08h26.10.762,task,2021.1.4,Win32,60.0240096,628b806c463b948bc644b84f,629afad1cea7a350daf37a47,,,,,5,0,5,0,1,X V Q F H G B L J M P D K C T S W R N Z,,,,,,,,,,,,,,,,,,,,,,,,,,,,,,,,,,,,,,,,,,,,,,,,,,,,,,,,,,,,,,,,,,,,,,,,,,,,,,,,,,,,,,,,,,,,,
,,,,,,,,,,5fe23b8f29598a58fee0b230,19,Mężczyzna,2022-06-04_08h26.10.762,task,2021.1.4,Win32,60.0240096,628b806c463b948bc644b84f,629afad1cea7a350daf37a47,,,,,,,,,,,xnwtdb,"[""x"",""n"",""w"",""t"",""d"",""b""]","[1.7832000000477137,2.123300000071538,2.437100000023861,2.7860000000000014,3.620300000071552,4.016200000047718,4.355700000047705]",1,XNWTDB,9,0,9,0,1,,,,,,,,,,,,,,,,,,,,,,,,,,,,,,,,,,,,,,,,,,,,,,,,,,,,,,,,,,,,,,,,,,,,,,,,,,,,,,,,,,,
,,,,,,,,,,5fe23b8f29598a58fee0b230,19,Mężczyzna,2022-06-04_08h26.10.762,task,2021.1.4,Win32,60.0240096,628b806c463b948bc644b84f,629afad1cea7a350daf37a47,,,,,0,0,0,0,1,X V Q F H G B L J M P D K C T S W R N Z,,,,,,,,,,,,,,,,,,,,,,,,,,,,,,,,,,,,,,,,,,,,,,,,,,,,,,,,,,,,,,,,,,,,,,,,,,,,,,,,,,,,,,,,,,,,,
,,,,,,,,,,5fe23b8f29598a58fee0b230,19,Mężczyzna,2022-06-04_08h26.10.762,task,2021.1.4,Win32,60.0240096,628b806c463b948bc644b84f,629afad1cea7a350daf37a47,,,,,1,0,1,0,1,X V Q F H G B L J M P D K C T S W R N Z,,,,,,,,,,,,,,,,,,,,,,,,,,,,,,,,,,,,,,,,,,,,,,,,,,,,,,,,,,,,,,,,,,,,,,,,,,,,,,,,,,,,,,,,,,,,,
,,,,,,,,,,5fe23b8f29598a58fee0b230,19,Mężczyzna,2022-06-04_08h26.10.762,task,2021.1.4,Win32,60.0240096,628b806c463b948bc644b84f,629afad1cea7a350daf37a47,,,,,2,0,2,0,1,X V Q F H G B L J M P D K C T S W R N Z,,,,,,,,,,,,,,,,,,,,,,,,,,,,,,,,,,,,,,,,,,,,,,,,,,,,,,,,,,,,,,,,,,,,,,,,,,,,,,,,,,,,,,,,,,,,,
,,,,,,,,,,5fe23b8f29598a58fee0b230,19,Mężczyzna,2022-06-04_08h26.10.762,task,2021.1.4,Win32,60.0240096,628b806c463b948bc644b84f,629afad1cea7a350daf37a47,,,,,3,0,3,0,1,X V Q F H G B L J M P D K C T S W R N Z,,,,,,,,,,,,,,,,,,,,,,,,,,,,,,,,,,,,,,,,,,,,,,,,,,,,,,,,,,,,,,,,,,,,,,,,,,,,,,,,,,,,,,,,,,,,,
,,,,,,,,,,5fe23b8f29598a58fee0b230,19,Mężczyzna,2022-06-04_08h26.10.762,task,2021.1.4,Win32,60.0240096,628b806c463b948bc644b84f,629afad1cea7a350daf37a47,,,,,4,0,4,0,1,X V Q F H G B L J M P D K C T S W R N Z,,,,,,,,,,,,,,,,,,,,,,,,,,,,,,,,,,,,,,,,,,,,,,,,,,,,,,,,,,,,,,,,,,,,,,,,,,,,,,,,,,,,,,,,,,,,,
,,,,,,,,,,5fe23b8f29598a58fee0b230,19,Mężczyzna,2022-06-04_08h26.10.762,task,2021.1.4,Win32,60.0240096,628b806c463b948bc644b84f,629afad1cea7a350daf37a47,,,,,5,0,5,0,1,X V Q F H G B L J M P D K C T S W R N Z,,,,,,,,,,,,,,,,,,,,,,,,,,,,,,,,,,,,,,,,,,,,,,,,,,,,,,,,,,,,,,,,,,,,,,,,,,,,,,,,,,,,,,,,,,,,,
,,,,,,,,,,5fe23b8f29598a58fee0b230,19,Mężczyzna,2022-06-04_08h26.10.762,task,2021.1.4,Win32,60.0240096,628b806c463b948bc644b84f,629afad1cea7a350daf37a47,,,,,,,,,,,lbfjzc,"[""l"",""b"",""f"",""j"",""z"",""c""]","[1.700200000047687,2.1835000000000377,2.68360000002383,3.216900000095393,3.7058000000715197,4.049900000095363,4.298700000047688]",1,LBFJZC,10,0,10,0,1,,,,,,,,,,,,,,,,,,,,,,,,,,,,,,,,,,,,,,,,,,,,,,,,,,,,,,,,,,,,,,,,,,,,,,,,,,,,,,,,,,,
,,,,,,,,,,5fe23b8f29598a58fee0b230,19,Mężczyzna,2022-06-04_08h26.10.762,task,2021.1.4,Win32,60.0240096,628b806c463b948bc644b84f,629afad1cea7a350daf37a47,,,,,0,0,0,0,1,X V Q F H G B L J M P D K C T S W R N Z,,,,,,,,,,,,,,,,,,,,,,,,,,,,,,,,,,,,,,,,,,,,,,,,,,,,,,,,,,,,,,,,,,,,,,,,,,,,,,,,,,,,,,,,,,,,,
,,,,,,,,,,5fe23b8f29598a58fee0b230,19,Mężczyzna,2022-06-04_08h26.10.762,task,2021.1.4,Win32,60.0240096,628b806c463b948bc644b84f,629afad1cea7a350daf37a47,,,,,1,0,1,0,1,X V Q F H G B L J M P D K C T S W R N Z,,,,,,,,,,,,,,,,,,,,,,,,,,,,,,,,,,,,,,,,,,,,,,,,,,,,,,,,,,,,,,,,,,,,,,,,,,,,,,,,,,,,,,,,,,,,,
,,,,,,,,,,5fe23b8f29598a58fee0b230,19,Mężczyzna,2022-06-04_08h26.10.762,task,2021.1.4,Win32,60.0240096,628b806c463b948bc644b84f,629afad1cea7a350daf37a47,,,,,2,0,2,0,1,X V Q F H G B L J M P D K C T S W R N Z,,,,,,,,,,,,,,,,,,,,,,,,,,,,,,,,,,,,,,,,,,,,,,,,,,,,,,,,,,,,,,,,,,,,,,,,,,,,,,,,,,,,,,,,,,,,,
,,,,,,,,,,5fe23b8f29598a58fee0b230,19,Mężczyzna,2022-06-04_08h26.10.762,task,2021.1.4,Win32,60.0240096,628b806c463b948bc644b84f,629afad1cea7a350daf37a47,,,,,3,0,3,0,1,X V Q F H G B L J M P D K C T S W R N Z,,,,,,,,,,,,,,,,,,,,,,,,,,,,,,,,,,,,,,,,,,,,,,,,,,,,,,,,,,,,,,,,,,,,,,,,,,,,,,,,,,,,,,,,,,,,,
,,,,,,,,,,5fe23b8f29598a58fee0b230,19,Mężczyzna,2022-06-04_08h26.10.762,task,2021.1.4,Win32,60.0240096,628b806c463b948bc644b84f,629afad1cea7a350daf37a47,,,,,4,0,4,0,1,X V Q F H G B L J M P D K C T S W R N Z,,,,,,,,,,,,,,,,,,,,,,,,,,,,,,,,,,,,,,,,,,,,,,,,,,,,,,,,,,,,,,,,,,,,,,,,,,,,,,,,,,,,,,,,,,,,,
,,,,,,,,,,5fe23b8f29598a58fee0b230,19,Mężczyzna,2022-06-04_08h26.10.762,task,2021.1.4,Win32,60.0240096,628b806c463b948bc644b84f,629afad1cea7a350daf37a47,,,,,5,0,5,0,1,X V Q F H G B L J M P D K C T S W R N Z,,,,,,,,,,,,,,,,,,,,,,,,,,,,,,,,,,,,,,,,,,,,,,,,,,,,,,,,,,,,,,,,,,,,,,,,,,,,,,,,,,,,,,,,,,,,,
,,,,,,,,,,5fe23b8f29598a58fee0b230,19,Mężczyzna,2022-06-04_08h26.10.762,task,2021.1.4,Win32,60.0240096,628b806c463b948bc644b84f,629afad1cea7a350daf37a47,,,,,6,0,6,0,1,X V Q F H G B L J M P D K C T S W R N Z,,,,,,,,,,,,,,,,,,,,,,,,,,,,,,,,,,,,,,,,,,,,,,,,,,,,,,,,,,,,,,,,,,,,,,,,,,,,,,,,,,,,,,,,,,,,,
,,,,,,,,,,5fe23b8f29598a58fee0b230,19,Mężczyzna,2022-06-04_08h26.10.762,task,2021.1.4,Win32,60.0240096,628b806c463b948bc644b84f,629afad1cea7a350daf37a47,,,,,,,,,,,fvmsgjz,"[""f"",""v"",""m"",""s"",""g"",""j"",""z""]","[1.7668999999762036,2.0788999999761586,2.357899999976155,2.60060000002386,3.250500000000045,3.4502999999523354,3.883299999952328,4.216699999928494]",0,LVMSGJZ,11,0,11,0,1,,,,,,,,,,,,,,,,,,,,,,,,,,,,,,,,,,,,,,,,,,,,,,,,,,,,,,,,,,,,,,,,,,,,,,,,,,,,,,,,,,,
,,,,,,,,,,5fe23b8f29598a58fee0b230,19,Mężczyzna,2022-06-04_08h26.10.762,task,2021.1.4,Win32,60.0240096,628b806c463b948bc644b84f,629afad1cea7a350daf37a47,,,,,0,0,0,0,1,X V Q F H G B L J M P D K C T S W R N Z,,,,,,,,,,,,,,,,,,,,,,,,,,,,,,,,,,,,,,,,,,,,,,,,,,,,,,,,,,,,,,,,,,,,,,,,,,,,,,,,,,,,,,,,,,,,,
,,,,,,,,,,5fe23b8f29598a58fee0b230,19,Mężczyzna,2022-06-04_08h26.10.762,task,2021.1.4,Win32,60.0240096,628b806c463b948bc644b84f,629afad1cea7a350daf37a47,,,,,1,0,1,0,1,X V Q F H G B L J M P D K C T S W R N Z,,,,,,,,,,,,,,,,,,,,,,,,,,,,,,,,,,,,,,,,,,,,,,,,,,,,,,,,,,,,,,,,,,,,,,,,,,,,,,,,,,,,,,,,,,,,,
,,,,,,,,,,5fe23b8f29598a58fee0b230,19,Mężczyzna,2022-06-04_08h26.10.762,task,2021.1.4,Win32,60.0240096,628b806c463b948bc644b84f,629afad1cea7a350daf37a47,,,,,2,0,2,0,1,X V Q F H G B L J M P D K C T S W R N Z,,,,,,,,,,,,,,,,,,,,,,,,,,,,,,,,,,,,,,,,,,,,,,,,,,,,,,,,,,,,,,,,,,,,,,,,,,,,,,,,,,,,,,,,,,,,,
,,,,,,,,,,5fe23b8f29598a58fee0b230,19,Mężczyzna,2022-06-04_08h26.10.762,task,2021.1.4,Win32,60.0240096,628b806c463b948bc644b84f,629afad1cea7a350daf37a47,,,,,3,0,3,0,1,X V Q F H G B L J M P D K C T S W R N Z,,,,,,,,,,,,,,,,,,,,,,,,,,,,,,,,,,,,,,,,,,,,,,,,,,,,,,,,,,,,,,,,,,,,,,,,,,,,,,,,,,,,,,,,,,,,,
,,,,,,,,,,5fe23b8f29598a58fee0b230,19,Mężczyzna,2022-06-04_08h26.10.762,task,2021.1.4,Win32,60.0240096,628b806c463b948bc644b84f,629afad1cea7a350daf37a47,,,,,4,0,4,0,1,X V Q F H G B L J M P D K C T S W R N Z,,,,,,,,,,,,,,,,,,,,,,,,,,,,,,,,,,,,,,,,,,,,,,,,,,,,,,,,,,,,,,,,,,,,,,,,,,,,,,,,,,,,,,,,,,,,,
,,,,,,,,,,5fe23b8f29598a58fee0b230,19,Mężczyzna,2022-06-04_08h26.10.762,task,2021.1.4,Win32,60.0240096,628b806c463b948bc644b84f,629afad1cea7a350daf37a47,,,,,5,0,5,0,1,X V Q F H G B L J M P D K C T S W R N Z,,,,,,,,,,,,,,,,,,,,,,,,,,,,,,,,,,,,,,,,,,,,,,,,,,,,,,,,,,,,,,,,,,,,,,,,,,,,,,,,,,,,,,,,,,,,,
,,,,,,,,,,5fe23b8f29598a58fee0b230,19,Mężczyzna,2022-06-04_08h26.10.762,task,2021.1.4,Win32,60.0240096,628b806c463b948bc644b84f,629afad1cea7a350daf37a47,,,,,6,0,6,0,1,X V Q F H G B L J M P D K C T S W R N Z,,,,,,,,,,,,,,,,,,,,,,,,,,,,,,,,,,,,,,,,,,,,,,,,,,,,,,,,,,,,,,,,,,,,,,,,,,,,,,,,,,,,,,,,,,,,,
,,,,,,,,,,5fe23b8f29598a58fee0b230,19,Mężczyzna,2022-06-04_08h26.10.762,task,2021.1.4,Win32,60.0240096,628b806c463b948bc644b84f,629afad1cea7a350daf37a47,,,,,,,,,,,hmfthzt,"[""h"",""m"",""f"",""t"",""h"",""z"",""t""]","[0.7546000000238564,0.9833999999761431,1.515299999952333,1.8031000000238464,2.0192999999522954,2.183700000047679,2.5197999999522835,2.8832000000476796]",0,HFTMHZT,12,0,12,0,1,,,,,,,,,,,,,,,,,,,,,,,,,,,,,,,,,,,,,,,,,,,,,,,,,,,,,,,,,,,,,,,,,,,,,,,,,,,,,,,,,,,
,,,,,,,,,,5fe23b8f29598a58fee0b230,19,Mężczyzna,2022-06-04_08h26.10.762,task,2021.1.4,Win32,60.0240096,628b806c463b948bc644b84f,629afad1cea7a350daf37a47,,,,,0,0,0,0,1,X V Q F H G B L J M P D K C T S W R N Z,,,,,,,,,,,,,,,,,,,,,,,,,,,,,,,,,,,,,,,,,,,,,,,,,,,,,,,,,,,,,,,,,,,,,,,,,,,,,,,,,,,,,,,,,,,,,
,,,,,,,,,,5fe23b8f29598a58fee0b230,19,Mężczyzna,2022-06-04_08h26.10.762,task,2021.1.4,Win32,60.0240096,628b806c463b948bc644b84f,629afad1cea7a350daf37a47,,,,,1,0,1,0,1,X V Q F H G B L J M P D K C T S W R N Z,,,,,,,,,,,,,,,,,,,,,,,,,,,,,,,,,,,,,,,,,,,,,,,,,,,,,,,,,,,,,,,,,,,,,,,,,,,,,,,,,,,,,,,,,,,,,
,,,,,,,,,,5fe23b8f29598a58fee0b230,19,Mężczyzna,2022-06-04_08h26.10.762,task,2021.1.4,Win32,60.0240096,628b806c463b948bc644b84f,629afad1cea7a350daf37a47,,,,,2,0,2,0,1,X V Q F H G B L J M P D K C T S W R N Z,,,,,,,,,,,,,,,,,,,,,,,,,,,,,,,,,,,,,,,,,,,,,,,,,,,,,,,,,,,,,,,,,,,,,,,,,,,,,,,,,,,,,,,,,,,,,
,,,,,,,,,,5fe23b8f29598a58fee0b230,19,Mężczyzna,2022-06-04_08h26.10.762,task,2021.1.4,Win32,60.0240096,628b806c463b948bc644b84f,629afad1cea7a350daf37a47,,,,,3,0,3,0,1,X V Q F H G B L J M P D K C T S W R N Z,,,,,,,,,,,,,,,,,,,,,,,,,,,,,,,,,,,,,,,,,,,,,,,,,,,,,,,,,,,,,,,,,,,,,,,,,,,,,,,,,,,,,,,,,,,,,
,,,,,,,,,,5fe23b8f29598a58fee0b230,19,Mężczyzna,2022-06-04_08h26.10.762,task,2021.1.4,Win32,60.0240096,628b806c463b948bc644b84f,629afad1cea7a350daf37a47,,,,,4,0,4,0,1,X V Q F H G B L J M P D K C T S W R N Z,,,,,,,,,,,,,,,,,,,,,,,,,,,,,,,,,,,,,,,,,,,,,,,,,,,,,,,,,,,,,,,,,,,,,,,,,,,,,,,,,,,,,,,,,,,,,
,,,,,,,,,,5fe23b8f29598a58fee0b230,19,Mężczyzna,2022-06-04_08h26.10.762,task,2021.1.4,Win32,60.0240096,628b806c463b948bc644b84f,629afad1cea7a350daf37a47,,,,,5,0,5,0,1,X V Q F H G B L J M P D K C T S W R N Z,,,,,,,,,,,,,,,,,,,,,,,,,,,,,,,,,,,,,,,,,,,,,,,,,,,,,,,,,,,,,,,,,,,,,,,,,,,,,,,,,,,,,,,,,,,,,
,,,,,,,,,,5fe23b8f29598a58fee0b230,19,Mężczyzna,2022-06-04_08h26.10.762,task,2021.1.4,Win32,60.0240096,628b806c463b948bc644b84f,629afad1cea7a350daf37a47,,,,,6,0,6,0,1,X V Q F H G B L J M P D K C T S W R N Z,,,,,,,,,,,,,,,,,,,,,,,,,,,,,,,,,,,,,,,,,,,,,,,,,,,,,,,,,,,,,,,,,,,,,,,,,,,,,,,,,,,,,,,,,,,,,
,,,,,,,,,,5fe23b8f29598a58fee0b230,19,Mężczyzna,2022-06-04_08h26.10.762,task,2021.1.4,Win32,60.0240096,628b806c463b948bc644b84f,629afad1cea7a350daf37a47,,,,,,,,,,,ctwhtzc,"[""c"",""t"",""w"",""h"",""t"",""z"",""c""]","[3.0437999999522845,3.323500000000024,3.591199999928449,5.402499999999975,5.656699999928492,5.983100000023853,7.172600000023863,7.4332999999523395]",0,CDWTLSB,13,0,13,0,1,,,,,,,,,,,,,,,,,,,,,,,,,,,,,,,,,,,,,,,,,,,,,,,,,,,,,,,,,,,,,,,,,,,,,,,,,,,,,,,,,,,
,,,,,,,,,,5fe23b8f29598a58fee0b230,19,Mężczyzna,2022-06-04_08h26.10.762,task,2021.1.4,Win32,60.0240096,628b806c463b948bc644b84f,629afad1cea7a350daf37a47,,,,,,,,,,,,,,,,,,,,,space,9.0328,0,"[""0""]",1,[2.7168999999761354],[2.7168999999761354],0,0,0,0,1,Practice,1,(3x3) -  9,0,,,,,,,,,,,,,,,,,,,,,,,,,,,,,,,,,,,,,,,,,,,,,,,,,,,,,,,,,,,,,,,,,,,
,,,,,,,,,,5fe23b8f29598a58fee0b230,19,Mężczyzna,2022-06-04_08h26.10.762,task,2021.1.4,Win32,60.0240096,628b806c463b948bc644b84f,629afad1cea7a350daf37a47,,,,,,,,,,,,,,,,,,,,,,,5,"[""5""]",1,[3.475200000047721],"[2.7168999999761354,3.475200000047721]",0,1,1,5,1,Practice,6,(4/2) + 3,5,,,,,,,,,,,,,,,,,,,,,,,,,,,,,,,,,,,,,,,,,,,,,,,,,,,,,,,,,,,,,,,,,,,
,,,,,,,,,,5fe23b8f29598a58fee0b230,19,Mężczyzna,2022-06-04_08h26.10.762,task,2021.1.4,Win32,60.0240096,628b806c463b948bc644b84f,629afad1cea7a350daf37a47,,,,,,,,,,,,,,,,,,,,,,,1,"[""1""]",1,[7.548600000023839],"[2.7168999999761354,3.475200000047721,7.548600000023839]",0,2,2,1,1,Practice,2,(4x4) - 15,1,,,,,,,,,,,,,,,,,,,,,,,,,,,,,,,,,,,,,,,,,,,,,,,,,,,,,,,,,,,,,,,,,,,
,,,,,,,,,,5fe23b8f29598a58fee0b230,19,Mężczyzna,2022-06-04_08h26.10.762,task,2021.1.4,Win32,60.0240096,628b806c463b948bc644b84f,629afad1cea7a350daf37a47,,,,,,,,,,,,,,,,,,,,,,,6,"[""6""]",0,[4.334399999976142],"[2.7168999999761354,3.475200000047721,7.548600000023839,4.334399999976142]",0,3,3,2,1,Practice,3,(4x4) - 14,2,,,,,,,,,,,,,,,,,,,,,,,,,,,,,,,,,,,,,,,,,,,,,,,,,,,,,,,,,,,,,,,,,,,
,,,,,,,,,,5fe23b8f29598a58fee0b230,19,Mężczyzna,2022-06-04_08h26.10.762,task,2021.1.4,Win32,60.0240096,628b806c463b948bc644b84f,629afad1cea7a350daf37a47,,,,,,,,,,,,,,,,,,,,,,,9,"[""9""]",1,[2.7093999999761422],"[2.7168999999761354,3.475200000047721,7.548600000023839,4.334399999976142,2.7093999999761422]",0,4,4,9,1,Practice,10,(20/2) - 1,9,,,,,,,,,,,,,,,,,,,,,,,,,,,,,,,,,,,,,,,,,,,,,,,,,,,,,,,,,,,,,,,,,,,
,,,,,,,,,,5fe23b8f29598a58fee0b230,19,Mężczyzna,2022-06-04_08h26.10.762,task,2021.1.4,Win32,60.0240096,628b806c463b948bc644b84f,629afad1cea7a350daf37a47,,,,,,,,,,,,,,,,,,,,,,,7,"[""7""]",1,[4.2003999999761845],"[2.7168999999761354,3.475200000047721,7.548600000023839,4.334399999976142,2.7093999999761422,4.2003999999761845]",0,5,5,7,1,Practice,8,(5x5) - 18,7,,,,,,,,,,,,,,,,,,,,,,,,,,,,,,,,,,,,,,,,,,,,,,,,,,,,,,,,,,,,,,,,,,,
,,,,,,,,,,5fe23b8f29598a58fee0b230,19,Mężczyzna,2022-06-04_08h26.10.762,task,2021.1.4,Win32,60.0240096,628b806c463b948bc644b84f,629afad1cea7a350daf37a47,,,,,,,,,,,,,,,,,,,,,,,6,"[""6""]",1,[2.6168000000716347],"[2.7168999999761354,3.475200000047721,7.548600000023839,4.334399999976142,2.7093999999761422,4.2003999999761845,2.6168000000716347]",0,6,6,6,1,Practice,7,(25/5) + 1,6,,,,,,,,,,,,,,,,,,,,,,,,,,,,,,,,,,,,,,,,,,,,,,,,,,,,,,,,,,,,,,,,,,,
,,,,,,,,,,5fe23b8f29598a58fee0b230,19,Mężczyzna,2022-06-04_08h26.10.762,task,2021.1.4,Win32,60.0240096,628b806c463b948bc644b84f,629afad1cea7a350daf37a47,,,,,,,,,,,,,,,,,,,,,,,8,"[""8""]",1,[2.3686000000237755],"[2.7168999999761354,3.475200000047721,7.548600000023839,4.334399999976142,2.7093999999761422,4.2003999999761845,2.6168000000716347,2.3686000000237755]",0,7,7,8,1,Practice,9,(3x3) - 1,8,,,,,,,,,,,,,,,,,,,,,,,,,,,,,,,,,,,,,,,,,,,,,,,,,,,,,,,,,,,,,,,,,,,
,,,,,,,,,,5fe23b8f29598a58fee0b230,19,Mężczyzna,2022-06-04_08h26.10.762,task,2021.1.4,Win32,60.0240096,628b806c463b948bc644b84f,629afad1cea7a350daf37a47,,,,,,,,,,,,,,,,,,,,,,,4,"[""4""]",1,[3.4351999999285],"[2.7168999999761354,3.475200000047721,7.548600000023839,4.334399999976142,2.7093999999761422,4.2003999999761845,2.6168000000716347,2.3686000000237755,3.4351999999285]",0,8,8,4,1,Practice,5,(2x6) - 8,4,,,,,,,,,,,,,,,,,,,,,,,,,,,,,,,,,,,,,,,,,,,,,,,,,,,,,,,,,,,,,,,,,,,
,,,,,,,,,,5fe23b8f29598a58fee0b230,19,Mężczyzna,2022-06-04_08h26.10.762,task,2021.1.4,Win32,60.0240096,628b806c463b948bc644b84f,629afad1cea7a350daf37a47,,,,,,,,,,,,,,,,,,,,,,,3,"[""3""]",1,[2.8079999999999927],"[2.7168999999761354,3.475200000047721,7.548600000023839,4.334399999976142,2.7093999999761422,4.2003999999761845,2.6168000000716347,2.3686000000237755,3.4351999999285,2.8079999999999927]",0,9,9,3,1,Practice,4,(8/4) + 1,3,,,,,,,,,,,,,,,,,,,,,,,,,,,,,,,,,,,,,,,,,,,,,,,,,,,,,,,,,,,,,,,,,,,
,,,,,,,,,,5fe23b8f29598a58fee0b230,19,Mężczyzna,2022-06-04_08h26.10.762,task,2021.1.4,Win32,60.0240096,628b806c463b948bc644b84f,629afad1cea7a350daf37a47,,,,,,,,,,,,,,,,,,,,,,,,,,,,,,,,,,,,,0.9,36.2135,2.414233333,35.78407397,1.544540363,6.399147469,space,0.9894,0,0,0,0,1,,,,,,,,,,,,,,,,,,,,,,,,,,,,,,,,,,,,,,,,,,,,,,,,,,,,,,
,,,,,,,,,,5fe23b8f29598a58fee0b230,19,Mężczyzna,2022-06-04_08h26.10.762,task,2021.1.4,Win32,60.0240096,628b806c463b948bc644b84f,629afad1cea7a350daf37a47,,,,,,,,,,,,,,,,,,,,,,,1,,,,,,,,,,Practice,2,(4x4) - 15,1,,,,,,,,,,,,,,space,11.042,"[""1""]",1,[3.2526999999284953],1,0,0,0,1,1,,,,,,,,,,,,,,,,,,,,,,,,,,,,,,,,,,,,,,,,,,,
,,,,,,,,,,5fe23b8f29598a58fee0b230,19,Mężczyzna,2022-06-04_08h26.10.762,task,2021.1.4,Win32,60.0240096,628b806c463b948bc644b84f,629afad1cea7a350daf37a47,,,,,,,,,,X V Q F H G B L J M P D K C T S W R N Z,,,,,,,,,,,,,,,,,,,,,,,,,,,,,,,,,,,,,,,,,,,,,,,,,,,0,0,0,0,1,,,,,,,,,,,,,,,,,,,,,,,,,,,,,,,,,,,,,,
,,,,,,,,,,5fe23b8f29598a58fee0b230,19,Mężczyzna,2022-06-04_08h26.10.762,task,2021.1.4,Win32,60.0240096,628b806c463b948bc644b84f,629afad1cea7a350daf37a47,,,,,,,,,,,,,,,,,,,,,,,2,,,,,,,,,,Practice,3,(4x4) - 14,2,,,,,,,,,,,,,,,,"[""2""]",1,[6.342499999999973],1,0,0,0,2,1,,,,,,,,,,,,,,,,,,,,,,,,,,,,,,,,,,,,,,,,,,,
,,,,,,,,,,5fe23b8f29598a58fee0b230,19,Mężczyzna,2022-06-04_08h26.10.762,task,2021.1.4,Win32,60.0240096,628b806c463b948bc644b84f,629afad1cea7a350daf37a47,,,,,,,,,,X V Q F H G B L J M P D K C T S W R N Z,,,,,,,,,,,,,,,,,,,,,,,,,,,,,,,,,,,,,,,,,,,,,,,,,,,1,0,1,0,1,,,,,,,,,,,,,,,,,,,,,,,,,,,,,,,,,,,,,,
,,,,,,,,,,5fe23b8f29598a58fee0b230,19,Mężczyzna,2022-06-04_08h26.10.762,task,2021.1.4,Win32,60.0240096,628b806c463b948bc644b84f,629afad1cea7a350daf37a47,,,,,,,,,,,,,,,,,,,,,,,,,,,,,,,,,,,,,,,,,,,,,,,,,,,,,,,,,,,,,,,,,,zh,"[""z"",""h""]",0,"[2.2598000000714364,2.405100000023822,4.165200000047662]",1,0,0,0,0,1,,,,,,,,,,,,,,,,,,,,,,,,,,,,
,,,,,,,,,,5fe23b8f29598a58fee0b230,19,Mężczyzna,2022-06-04_08h26.10.762,task,2021.1.4,Win32,60.0240096,628b806c463b948bc644b84f,629afad1cea7a350daf37a47,,,,,,,,,,,,,,,,,,,,,,,2,,,,,,,,,,Practice,8,(5x5) - 18,7,,,,,,,,,,,,,,,,"[""2""]",0,[2.007899999976189],0,0,0,0,7,1,,,,,,,,,,,,,,,,,,,,,,,,,,,,,,,,,,,,,,,,,,,
,,,,,,,,,,5fe23b8f29598a58fee0b230,19,Mężczyzna,2022-06-04_08h26.10.762,task,2021.1.4,Win32,60.0240096,628b806c463b948bc644b84f,629afad1cea7a350daf37a47,,,,,,,,,,,,,,,,,,,,,,,2,,,,,,,,,,Practice,3,(4x4) - 14,2,,,,,,,,,,,,,,,,"[""2""]",1,[3.2999999999999545],1,0,1,1,2,1,,,,,,,,,,,,,,,,,,,,,,,,,,,,,,,,,,,,,,,,,,,
,,,,,,,,,,5fe23b8f29598a58fee0b230,19,Mężczyzna,2022-06-04_08h26.10.762,task,2021.1.4,Win32,60.0240096,628b806c463b948bc644b84f,629afad1cea7a350daf37a47,,,,,,,,,,X V Q F H G B L J M P D K C T S W R N Z,,,,,,,,,,,,,,,,,,,,,,,,,,,,,,,,,,,,,,,,,,,,,,,,,,,0,0,0,0,1,,,,,,,,,,,,,,,,,,,,,,,,,,,,,,,,,,,,,,
,,,,,,,,,,5fe23b8f29598a58fee0b230,19,Mężczyzna,2022-06-04_08h26.10.762,task,2021.1.4,Win32,60.0240096,628b806c463b948bc644b84f,629afad1cea7a350daf37a47,,,,,,,,,,,,,,,,,,,,,,,6,,,,,,,,,,Practice,7,(25/5) + 1,6,,,,,,,,,,,,,,,,"[""6""]",1,[3.9171000000237655],1,0,0,0,6,1,,,,,,,,,,,,,,,,,,,,,,,,,,,,,,,,,,,,,,,,,,,
,,,,,,,,,,5fe23b8f29598a58fee0b230,19,Mężczyzna,2022-06-04_08h26.10.762,task,2021.1.4,Win32,60.0240096,628b806c463b948bc644b84f,629afad1cea7a350daf37a47,,,,,,,,,,X V Q F H G B L J M P D K C T S W R N Z,,,,,,,,,,,,,,,,,,,,,,,,,,,,,,,,,,,,,,,,,,,,,,,,,,,1,0,1,0,1,,,,,,,,,,,,,,,,,,,,,,,,,,,,,,,,,,,,,,
,,,,,,,,,,5fe23b8f29598a58fee0b230,19,Mężczyzna,2022-06-04_08h26.10.762,task,2021.1.4,Win32,60.0240096,628b806c463b948bc644b84f,629afad1cea7a350daf37a47,,,,,,,,,,,,,,,,,,,,,,,,,,,,,,,,,,,,,,,,,,,,,,,,,,,,,,,,,,,,,,,,,,vl,"[""v"",""l""]",0,"[1.9343999999761081,2.4843999999761763,2.891200000047661]",1,1,0,1,0,1,,,,,,,,,,,,,,,,,,,,,,,,,,,,
,,,,,,,,,,5fe23b8f29598a58fee0b230,19,Mężczyzna,2022-06-04_08h26.10.762,task,2021.1.4,Win32,60.0240096,628b806c463b948bc644b84f,629afad1cea7a350daf37a47,,,,,,,,,,,,,,,,,,,,,,,2,,,,,,,,,,Practice,3,(4x4) - 14,2,,,,,,,,,,,,,,,,"[""2""]",1,[3.074799999952347],1,0,0,0,2,1,,,,,,,,,,,,,,,,,,,,,,,,,,,,,,,,,,,,,,,,,,,
,,,,,,,,,,5fe23b8f29598a58fee0b230,19,Mężczyzna,2022-06-04_08h26.10.762,task,2021.1.4,Win32,60.0240096,628b806c463b948bc644b84f,629afad1cea7a350daf37a47,,,,,,,,,,X V Q F H G B L J M P D K C T S W R N Z,,,,,,,,,,,,,,,,,,,,,,,,,,,,,,,,,,,,,,,,,,,,,,,,,,,0,0,0,0,1,,,,,,,,,,,,,,,,,,,,,,,,,,,,,,,,,,,,,,
,,,,,,,,,,5fe23b8f29598a58fee0b230,19,Mężczyzna,2022-06-04_08h26.10.762,task,2021.1.4,Win32,60.0240096,628b806c463b948bc644b84f,629afad1cea7a350daf37a47,,,,,,,,,,,,,,,,,,,,,,,0,,,,,,,,,,Practice,1,(3x3) -  9,0,,,,,,,,,,,,,,,,"[""0""]",1,[2.373599999904627],1,0,0,0,0,1,,,,,,,,,,,,,,,,,,,,,,,,,,,,,,,,,,,,,,,,,,,
,,,,,,,,,,5fe23b8f29598a58fee0b230,19,Mężczyzna,2022-06-04_08h26.10.762,task,2021.1.4,Win32,60.0240096,628b806c463b948bc644b84f,629afad1cea7a350daf37a47,,,,,,,,,,X V Q F H G B L J M P D K C T S W R N Z,,,,,,,,,,,,,,,,,,,,,,,,,,,,,,,,,,,,,,,,,,,,,,,,,,,1,0,1,0,1,,,,,,,,,,,,,,,,,,,,,,,,,,,,,,,,,,,,,,
,,,,,,,,,,5fe23b8f29598a58fee0b230,19,Mężczyzna,2022-06-04_08h26.10.762,task,2021.1.4,Win32,60.0240096,628b806c463b948bc644b84f,629afad1cea7a350daf37a47,,,,,,,,,,,,,,,,,,,,,,,,,,,,,,,,,,,,,,,,,,,,,,,,,,,,,,,,,,,,,,,,,,cf,"[""c"",""f""]",0,"[1.6098999999761645,1.8387000000476519,2.364500000000021]",1,2,0,2,0,1,,,,,,,,,,,,,,,,,,,,,,,,,,,,
,,,,,,,,,,5fe23b8f29598a58fee0b230,19,Mężczyzna,2022-06-04_08h26.10.762,task,2021.1.4,Win32,60.0240096,628b806c463b948bc644b84f,629afad1cea7a350daf37a47,,,,,,,,,,,,,,,,,,,,,,,7,,,,,,,,,,Task,14,(2x2) + 3,7,,,,,,,,,,,,,,,,,,,1,,,,,,,,,,,,,,,,,,,,,space,9.4603,"[""7""]",1,[3.1643999999761263],0,0,0,13,1,,,,,,,,,,,,,,,,,,
,,,,,,,,,,5fe23b8f29598a58fee0b230,19,Mężczyzna,2022-06-04_08h26.10.762,task,2021.1.4,Win32,60.0240096,628b806c463b948bc644b84f,629afad1cea7a350daf37a47,,,,,,,,,,X V Q F H G B L J M P D K C T S W R N Z,,,,,,,,,,,,,,,,,,,,,,,,,,,,,,,,,,,,,,,,,,,,,,,,,,,,,,,,,,,,,,,,,,,,,,,,,,,,0,0,0,0,1,,,,,,,,,,,,,
,,,,,,,,,,5fe23b8f29598a58fee0b230,19,Mężczyzna,2022-06-04_08h26.10.762,task,2021.1.4,Win32,60.0240096,628b806c463b948bc644b84f,629afad1cea7a350daf37a47,,,,,,,,,,,,,,,,,,,,,,,4,,,,,,,,,,Task,4,(1x5) - 1,4,,,,,,,,,,,,,,,,,,,1,,,,,,,,,,,,,,,,,,,,,,,"[""4""]",1,[2.5590000000000828],0,0,0,3,1,,,,,,,,,,,,,,,,,,
,,,,,,,,,,5fe23b8f29598a58fee0b230,19,Mężczyzna,2022-06-04_08h26.10.762,task,2021.1.4,Win32,60.0240096,628b806c463b948bc644b84f,629afad1cea7a350daf37a47,,,,,,,,,,X V Q F H G B L J M P D K C T S W R N Z,,,,,,,,,,,,,,,,,,,,,,,,,,,,,,,,,,,,,,,,,,,,,,,,,,,,,,,,,,,,,,,,,,,,,,,,,,,,1,0,1,0,1,,,,,,,,,,,,,
,,,,,,,,,,5fe23b8f29598a58fee0b230,19,Mężczyzna,2022-06-04_08h26.10.762,task,2021.1.4,Win32,60.0240096,628b806c463b948bc644b84f,629afad1cea7a350daf37a47,,,,,,,,,,,,,,,,,,,,,,,,,,,,,,,,,,,,,,,,,,,,,,,,,,,,,,,,,,,,,,,,,,,,,,,,,,,,,,,,,,,,,,,,,,,zq,"[""z"",""q""]",0,"[1.434100000023932,1.731400000095391,2.3275000000001]",1,ZQ,0,0,0,0,1,,
,,,,,,,,,,5fe23b8f29598a58fee0b230,19,Mężczyzna,2022-06-04_08h26.10.762,task,2021.1.4,Win32,60.0240096,628b806c463b948bc644b84f,629afad1cea7a350daf37a47,,,,,,,,,,,,,,,,,,,,,,,1,,,,,,,,,,Task,40,(7x2) - 5,9,,,,,,,,,,,,,,,,,,,0,,,,,,,,,,,,,,,,,,,,,,,"[""1""]",0,[3.1726000000238628],0,0,0,39,1,,,,,,,,,,,,,,,,,,
,,,,,,,,,,5fe23b8f29598a58fee0b230,19,Mężczyzna,2022-06-04_08h26.10.762,task,2021.1.4,Win32,60.0240096,628b806c463b948bc644b84f,629afad1cea7a350daf37a47,,,,,,,,,,,,,,,,,,,,,,,4,,,,,,,,,,Task,28,(2x5) - 6,4,,,,,,,,,,,,,,,,,,,1,,,,,,,,,,,,,,,,,,,,,,,"[""4""]",1,[5.232600000023808],0,1,1,27,1,,,,,,,,,,,,,,,,,,
,,,,,,,,,,5fe23b8f29598a58fee0b230,19,Mężczyzna,2022-06-04_08h26.10.762,task,2021.1.4,Win32,60.0240096,628b806c463b948bc644b84f,629afad1cea7a350daf37a47,,,,,,,,,,X V Q F H G B L J M P D K C T S W R N Z,,,,,,,,,,,,,,,,,,,,,,,,,,,,,,,,,,,,,,,,,,,,,,,,,,,,,,,,,,,,,,,,,,,,,,,,,,,,0,0,0,0,1,,,,,,,,,,,,,
,,,,,,,,,,5fe23b8f29598a58fee0b230,19,Mężczyzna,2022-06-04_08h26.10.762,task,2021.1.4,Win32,60.0240096,628b806c463b948bc644b84f,629afad1cea7a350daf37a47,,,,,,,,,,,,,,,,,,,,,,,,,,,,,,,,,Task,38,(4x6) - 17,7,,,,,,,,,,,,,,,,,,,0,,,,,,,,,,,,,,,,,,,,,,,,0,,0,0,0,37,1,,,,,,,,,,,,,,,,,,
,,,,,,,,,,5fe23b8f29598a58fee0b230,19,Mężczyzna,2022-06-04_08h26.10.762,task,2021.1.4,Win32,60.0240096,628b806c463b948bc644b84f,629afad1cea7a350daf37a47,,,,,,,,,,,,,,,,,,,,,,,5,,,,,,,,,,Task,36,(8/4) + 3,5,,,,,,,,,,,,,,,,,,,1,,,,,,,,,,,,,,,,,,,,,,,"[""5""]",1,[4.905500000000075],0,1,1,35,1,,,,,,,,,,,,,,,,,,
,,,,,,,,,,5fe23b8f29598a58fee0b230,19,Mężczyzna,2022-06-04_08h26.10.762,task,2021.1.4,Win32,60.0240096,628b806c463b948bc644b84f,629afad1cea7a350daf37a47,,,,,,,,,,X V Q F H G B L J M P D K C T S W R N Z,,,,,,,,,,,,,,,,,,,,,,,,,,,,,,,,,,,,,,,,,,,,,,,,,,,,,,,,,,,,,,,,,,,,,,,,,,,,1,0,1,0,1,,,,,,,,,,,,,
,,,,,,,,,,5fe23b8f29598a58fee0b230,19,Mężczyzna,2022-06-04_08h26.10.762,task,2021.1.4,Win32,60.0240096,628b806c463b948bc644b84f,629afad1cea7a350daf37a47,,,,,,,,,,,,,,,,,,,,,,,1,,,,,,,,,,Task,9,(3x7) - 20,1,,,,,,,,,,,,,,,,,,,1,,,,,,,,,,,,,,,,,,,,,,,"[""1""]",1,[4.298000000000002],0,0,0,8,1,,,,,,,,,,,,,,,,,,
,,,,,,,,,,5fe23b8f29598a58fee0b230,19,Mężczyzna,2022-06-04_08h26.10.762,task,2021.1.4,Win32,60.0240096,628b806c463b948bc644b84f,629afad1cea7a350daf37a47,,,,,,,,,,X V Q F H G B L J M P D K C T S W R N Z,,,,,,,,,,,,,,,,,,,,,,,,,,,,,,,,,,,,,,,,,,,,,,,,,,,,,,,,,,,,,,,,,,,,,,,,,,,,2,0,2,0,1,,,,,,,,,,,,,
,,,,,,,,,,5fe23b8f29598a58fee0b230,19,Mężczyzna,2022-06-04_08h26.10.762,task,2021.1.4,Win32,60.0240096,628b806c463b948bc644b84f,629afad1cea7a350daf37a47,,,,,,,,,,,,,,,,,,,,,,,,,,,,,,,,,,,,,,,,,,,,,,,,,,,,,,,,,,,,,,,,,,,,,,,,,,,,,,,,,,,,,,,,,,,sgk,"[""s"",""g"",""k""]",0,"[1.5734999999999673,2.013899999976161,2.4533999999761136,2.9918999999761127]",1,SGK,1,0,1,0,1,,
,,,,,,,,,,5fe23b8f29598a58fee0b230,19,Mężczyzna,2022-06-04_08h26.10.762,task,2021.1.4,Win32,60.0240096,628b806c463b948bc644b84f,629afad1cea7a350daf37a47,,,,,,,,,,,,,,,,,,,,,,,9,,,,,,,,,,Task,7,(3x7) - 12,9,,,,,,,,,,,,,,,,,,,1,,,,,,,,,,,,,,,,,,,,,,,"[""9""]",1,[3.8132999999523918],0,0,0,6,1,,,,,,,,,,,,,,,,,,
,,,,,,,,,,5fe23b8f29598a58fee0b230,19,Mężczyzna,2022-06-04_08h26.10.762,task,2021.1.4,Win32,60.0240096,628b806c463b948bc644b84f,629afad1cea7a350daf37a47,,,,,,,,,,X V Q F H G B L J M P D K C T S W R N Z,,,,,,,,,,,,,,,,,,,,,,,,,,,,,,,,,,,,,,,,,,,,,,,,,,,,,,,,,,,,,,,,,,,,,,,,,,,,0,0,0,0,1,,,,,,,,,,,,,
,,,,,,,,,,5fe23b8f29598a58fee0b230,19,Mężczyzna,2022-06-04_08h26.10.762,task,2021.1.4,Win32,60.0240096,628b806c463b948bc644b84f,629afad1cea7a350daf37a47,,,,,,,,,,,,,,,,,,,,,,,0,,,,,,,,,,Task,25,(10/5) - 2,0,,,,,,,,,,,,,,,,,,,1,,,,,,,,,,,,,,,,,,,,,,,"[""0""]",1,[3.779700000047683],0,0,0,24,1,,,,,,,,,,,,,,,,,,
,,,,,,,,,,5fe23b8f29598a58fee0b230,19,Mężczyzna,2022-06-04_08h26.10.762,task,2021.1.4,Win32,60.0240096,628b806c463b948bc644b84f,629afad1cea7a350daf37a47,,,,,,,,,,X V Q F H G B L J M P D K C T S W R N Z,,,,,,,,,,,,,,,,,,,,,,,,,,,,,,,,,,,,,,,,,,,,,,,,,,,,,,,,,,,,,,,,,,,,,,,,,,,,1,0,1,0,1,,,,,,,,,,,,,
,,,,,,,,,,5fe23b8f29598a58fee0b230,19,Mężczyzna,2022-06-04_08h26.10.762,task,2021.1.4,Win32,60.0240096,628b806c463b948bc644b84f,629afad1cea7a350daf37a47,,,,,,,,,,,,,,,,,,,,,,,5,,,,,,,,,,Task,36,(8/4) + 3,5,,,,,,,,,,,,,,,,,,,1,,,,,,,,,,,,,,,,,,,,,,,"[""5""]",1,[3.1830999999045844],0,0,0,35,1,,,,,,,,,,,,,,,,,,
,,,,,,,,,,5fe23b8f29598a58fee0b230,19,Mężczyzna,2022-06-04_08h26.10.762,task,2021.1.4,Win32,60.0240096,628b806c463b948bc644b84f,629afad1cea7a350daf37a47,,,,,,,,,,X V Q F H G B L J M P D K C T S W R N Z,,,,,,,,,,,,,,,,,,,,,,,,,,,,,,,,,,,,,,,,,,,,,,,,,,,,,,,,,,,,,,,,,,,,,,,,,,,,2,0,2,0,1,,,,,,,,,,,,,
,,,,,,,,,,5fe23b8f29598a58fee0b230,19,Mężczyzna,2022-06-04_08h26.10.762,task,2021.1.4,Win32,60.0240096,628b806c463b948bc644b84f,629afad1cea7a350daf37a47,,,,,,,,,,,,,,,,,,,,,,,0,,,,,,,,,,Task,17,(2x3) - 6,0,,,,,,,,,,,,,,,,,,,1,,,,,,,,,,,,,,,,,,,,,,,"[""0""]",1,[3.4524999999999864],0,0,0,16,1,,,,,,,,,,,,,,,,,,
,,,,,,,,,,5fe23b8f29598a58fee0b230,19,Mężczyzna,2022-06-04_08h26.10.762,task,2021.1.4,Win32,60.0240096,628b806c463b948bc644b84f,629afad1cea7a350daf37a47,,,,,,,,,,X V Q F H G B L J M P D K C T S W R N Z,,,,,,,,,,,,,,,,,,,,,,,,,,,,,,,,,,,,,,,,,,,,,,,,,,,,,,,,,,,,,,,,,,,,,,,,,,,,3,0,3,0,1,,,,,,,,,,,,,
,,,,,,,,,,5fe23b8f29598a58fee0b230,19,Mężczyzna,2022-06-04_08h26.10.762,task,2021.1.4,Win32,60.0240096,628b806c463b948bc644b84f,629afad1cea7a350daf37a47,,,,,,,,,,,,,,,,,,,,,,,,,,,,,,,,,,,,,,,,,,,,,,,,,,,,,,,,,,,,,,,,,,,,,,,,,,,,,,,,,,,,,,,,,,,mqwb,"[""m"",""q"",""w"",""b""]",0,"[1.443600000023821,1.9592999999522362,2.3931000000237646,2.8183999999761227,3.4393999999761036]",1,MQWB,2,0,2,0,1,,
,,,,,,,,,,5fe23b8f29598a58fee0b230,19,Mężczyzna,2022-06-04_08h26.10.762,task,2021.1.4,Win32,60.0240096,628b806c463b948bc644b84f,629afad1cea7a350daf37a47,,,,,,,,,,,,,,,,,,,,,,,8,,,,,,,,,,Task,15,(3x7) - 13,8,,,,,,,,,,,,,,,,,,,1,,,,,,,,,,,,,,,,,,,,,,,"[""8""]",1,[4.18129999995233],0,0,0,14,1,,,,,,,,,,,,,,,,,,
,,,,,,,,,,5fe23b8f29598a58fee0b230,19,Mężczyzna,2022-06-04_08h26.10.762,task,2021.1.4,Win32,60.0240096,628b806c463b948bc644b84f,629afad1cea7a350daf37a47,,,,,,,,,,X V Q F H G B L J M P D K C T S W R N Z,,,,,,,,,,,,,,,,,,,,,,,,,,,,,,,,,,,,,,,,,,,,,,,,,,,,,,,,,,,,,,,,,,,,,,,,,,,,0,0,0,0,1,,,,,,,,,,,,,
,,,,,,,,,,5fe23b8f29598a58fee0b230,19,Mężczyzna,2022-06-04_08h26.10.762,task,2021.1.4,Win32,60.0240096,628b806c463b948bc644b84f,629afad1cea7a350daf37a47,,,,,,,,,,,,,,,,,,,,,,,2,,,,,,,,,,Task,26,(2x9) - 16,2,,,,,,,,,,,,,,,,,,,1,,,,,,,,,,,,,,,,,,,,,,,"[""2""]",1,[2.3176000000238446],0,0,0,25,1,,,,,,,,,,,,,,,,,,
,,,,,,,,,,5fe23b8f29598a58fee0b230,19,Mężczyzna,2022-06-04_08h26.10.762,task,2021.1.4,Win32,60.0240096,628b806c463b948bc644b84f,629afad1cea7a350daf37a47,,,,,,,,,,X V Q F H G B L J M P D K C T S W R N Z,,,,,,,,,,,,,,,,,,,,,,,,,,,,,,,,,,,,,,,,,,,,,,,,,,,,,,,,,,,,,,,,,,,,,,,,,,,,1,0,1,0,1,,,,,,,,,,,,,
,,,,,,,,,,5fe23b8f29598a58fee0b230,19,Mężczyzna,2022-06-04_08h26.10.762,task,2021.1.4,Win32,60.0240096,628b806c463b948bc644b84f,629afad1cea7a350daf37a47,,,,,,,,,,,,,,,,,,,,,,,,,,,,,,,,,Task,13,(3x4) - 6,6,,,,,,,,,,,,,,,,,,,0,,,,,,,,,,,,,,,,,,,,,,,,0,,0,0,0,12,1,,,,,,,,,,,,,,,,,,
,,,,,,,,,,5fe23b8f29598a58fee0b230,19,Mężczyzna,2022-06-04_08h26.10.762,task,2021.1.4,Win32,60.0240096,628b806c463b948bc644b84f,629afad1cea7a350daf37a47,,,,,,,,,,,,,,,,,,,,,,,3,,,,,,,,,,Task,27,(3/3) + 2,3,,,,,,,,,,,,,,,,,,,1,,,,,,,,,,,,,,,,,,,,,,,"[""3""]",1,[3.501100000023939],0,1,1,26,1,,,,,,,,,,,,,,,,,,
,,,,,,,,,,5fe23b8f29598a58fee0b230,19,Mężczyzna,2022-06-04_08h26.10.762,task,2021.1.4,Win32,60.0240096,628b806c463b948bc644b84f,629afad1cea7a350daf37a47,,,,,,,,,,X V Q F H G B L J M P D K C T S W R N Z,,,,,,,,,,,,,,,,,,,,,,,,,,,,,,,,,,,,,,,,,,,,,,,,,,,,,,,,,,,,,,,,,,,,,,,,,,,,2,0,2,0,1,,,,,,,,,,,,,
,,,,,,,,,,5fe23b8f29598a58fee0b230,19,Mężczyzna,2022-06-04_08h26.10.762,task,2021.1.4,Win32,60.0240096,628b806c463b948bc644b84f,629afad1cea7a350daf37a47,,,,,,,,,,,,,,,,,,,,,,,8,,,,,,,,,,Task,32,(8/2) + 4,8,,,,,,,,,,,,,,,,,,,1,,,,,,,,,,,,,,,,,,,,,,,"[""8""]",1,[3.682399999976269],0,0,0,31,1,,,,,,,,,,,,,,,,,,
,,,,,,,,,,5fe23b8f29598a58fee0b230,19,Mężczyzna,2022-06-04_08h26.10.762,task,2021.1.4,Win32,60.0240096,628b806c463b948bc644b84f,629afad1cea7a350daf37a47,,,,,,,,,,X V Q F H G B L J M P D K C T S W R N Z,,,,,,,,,,,,,,,,,,,,,,,,,,,,,,,,,,,,,,,,,,,,,,,,,,,,,,,,,,,,,,,,,,,,,,,,,,,,3,0,3,0,1,,,,,,,,,,,,,
,,,,,,,,,,5fe23b8f29598a58fee0b230,19,Mężczyzna,2022-06-04_08h26.10.762,task,2021.1.4,Win32,60.0240096,628b806c463b948bc644b84f,629afad1cea7a350daf37a47,,,,,,,,,,,,,,,,,,,,,,,9,,,,,,,,,,Task,24,(2x2) + 5,9,,,,,,,,,,,,,,,,,,,1,,,,,,,,,,,,,,,,,,,,,,,"[""9""]",1,[2.646699999928501],0,0,0,23,1,,,,,,,,,,,,,,,,,,
,,,,,,,,,,5fe23b8f29598a58fee0b230,19,Mężczyzna,2022-06-04_08h26.10.762,task,2021.1.4,Win32,60.0240096,628b806c463b948bc644b84f,629afad1cea7a350daf37a47,,,,,,,,,,X V Q F H G B L J M P D K C T S W R N Z,,,,,,,,,,,,,,,,,,,,,,,,,,,,,,,,,,,,,,,,,,,,,,,,,,,,,,,,,,,,,,,,,,,,,,,,,,,,4,0,4,0,1,,,,,,,,,,,,,
,,,,,,,,,,5fe23b8f29598a58fee0b230,19,Mężczyzna,2022-06-04_08h26.10.762,task,2021.1.4,Win32,60.0240096,628b806c463b948bc644b84f,629afad1cea7a350daf37a47,,,,,,,,,,,,,,,,,,,,,,,,,,,,,,,,,,,,,,,,,,,,,,,,,,,,,,,,,,,,,,,,,,,,,,,,,,,,,,,,,,,,,,,,,,,xxzmp,"[""x"",""x"",""z"",""m"",""p""]",0,"[1.5004999999999882,1.6841000000238182,1.913799999952289,2.685799999952337,2.9078999999761663,3.2273999999761145]",1,XXZMP,3,0,3,0,1,,
,,,,,,,,,,5fe23b8f29598a58fee0b230,19,Mężczyzna,2022-06-04_08h26.10.762,task,2021.1.4,Win32,60.0240096,628b806c463b948bc644b84f,629afad1cea7a350daf37a47,,,,,,,,,,,,,,,,,,,,,,,2,,,,,,,,,,Task,26,(2x9) - 16,2,,,,,,,,,,,,,,,,,,,1,,,,,,,,,,,,,,,,,,,,,,,"[""2""]",1,[2.3988999999761518],0,0,0,25,1,,,,,,,,,,,,,,,,,,
,,,,,,,,,,5fe23b8f29598a58fee0b230,19,Mężczyzna,2022-06-04_08h26.10.762,task,2021.1.4,Win32,60.0240096,628b806c463b948bc644b84f,629afad1cea7a350daf37a47,,,,,,,,,,X V Q F H G B L J M P D K C T S W R N Z,,,,,,,,,,,,,,,,,,,,,,,,,,,,,,,,,,,,,,,,,,,,,,,,,,,,,,,,,,,,,,,,,,,,,,,,,,,,0,0,0,0,1,,,,,,,,,,,,,
,,,,,,,,,,5fe23b8f29598a58fee0b230,19,Mężczyzna,2022-06-04_08h26.10.762,task,2021.1.4,Win32,60.0240096,628b806c463b948bc644b84f,629afad1cea7a350daf37a47,,,,,,,,,,,,,,,,,,,,,,,1,,,,,,,,,,Task,34,(9/3) - 2,1,,,,,,,,,,,,,,,,,,,1,,,,,,,,,,,,,,,,,,,,,,,"[""1""]",1,[2.906399999976088],0,0,0,33,1,,,,,,,,,,,,,,,,,,
,,,,,,,,,,5fe23b8f29598a58fee0b230,19,Mężczyzna,2022-06-04_08h26.10.762,task,2021.1.4,Win32,60.0240096,628b806c463b948bc644b84f,629afad1cea7a350daf37a47,,,,,,,,,,X V Q F H G B L J M P D K C T S W R N Z,,,,,,,,,,,,,,,,,,,,,,,,,,,,,,,,,,,,,,,,,,,,,,,,,,,,,,,,,,,,,,,,,,,,,,,,,,,,1,0,1,0,1,,,,,,,,,,,,,
,,,,,,,,,,5fe23b8f29598a58fee0b230,19,Mężczyzna,2022-06-04_08h26.10.762,task,2021.1.4,Win32,60.0240096,628b806c463b948bc644b84f,629afad1cea7a350daf37a47,,,,,,,,,,,,,,,,,,,,,,,8,,,,,,,,,,Task,23,(2x3) + 2,8,,,,,,,,,,,,,,,,,,,1,,,,,,,,,,,,,,,,,,,,,,,"[""8""]",1,[2.988700000047743],0,0,0,22,1,,,,,,,,,,,,,,,,,,
,,,,,,,,,,5fe23b8f29598a58fee0b230,19,Mężczyzna,2022-06-04_08h26.10.762,task,2021.1.4,Win32,60.0240096,628b806c463b948bc644b84f,629afad1cea7a350daf37a47,,,,,,,,,,X V Q F H G B L J M P D K C T S W R N Z,,,,,,,,,,,,,,,,,,,,,,,,,,,,,,,,,,,,,,,,,,,,,,,,,,,,,,,,,,,,,,,,,,,,,,,,,,,,2,0,2,0,1,,,,,,,,,,,,,
,,,,,,,,,,5fe23b8f29598a58fee0b230,19,Mężczyzna,2022-06-04_08h26.10.762,task,2021.1.4,Win32,60.0240096,628b806c463b948bc644b84f,629afad1cea7a350daf37a47,,,,,,,,,,,,,,,,,,,,,,,2,,,,,,,,,,Task,26,(2x9) - 16,2,,,,,,,,,,,,,,,,,,,1,,,,,,,,,,,,,,,,,,,,,,,"[""2""]",1,[2.183700000047679],0,0,0,25,1,,,,,,,,,,,,,,,,,,
,,,,,,,,,,5fe23b8f29598a58fee0b230,19,Mężczyzna,2022-06-04_08h26.10.762,task,2021.1.4,Win32,60.0240096,628b806c463b948bc644b84f,629afad1cea7a350daf37a47,,,,,,,,,,X V Q F H G B L J M P D K C T S W R N Z,,,,,,,,,,,,,,,,,,,,,,,,,,,,,,,,,,,,,,,,,,,,,,,,,,,,,,,,,,,,,,,,,,,,,,,,,,,,3,0,3,0,1,,,,,,,,,,,,,
,,,,,,,,,,5fe23b8f29598a58fee0b230,19,Mężczyzna,2022-06-04_08h26.10.762,task,2021.1.4,Win32,60.0240096,628b806c463b948bc644b84f,629afad1cea7a350daf37a47,,,,,,,,,,,,,,,,,,,,,,,2,,,,,,,,,,Task,10,(2x5) - 8,2,,,,,,,,,,,,,,,,,,,1,,,,,,,,,,,,,,,,,,,,,,,"[""2""]",1,[2.0052000000476937],0,0,0,9,1,,,,,,,,,,,,,,,,,,
,,,,,,,,,,5fe23b8f29598a58fee0b230,19,Mężczyzna,2022-06-04_08h26.10.762,task,2021.1.4,Win32,60.0240096,628b806c463b948bc644b84f,629afad1cea7a350daf37a47,,,,,,,,,,X V Q F H G B L J M P D K C T S W R N Z,,,,,,,,,,,,,,,,,,,,,,,,,,,,,,,,,,,,,,,,,,,,,,,,,,,,,,,,,,,,,,,,,,,,,,,,,,,,4,0,4,0,1,,,,,,,,,,,,,
,,,,,,,,,,5fe23b8f29598a58fee0b230,19,Mężczyzna,2022-06-04_08h26.10.762,task,2021.1.4,Win32,60.0240096,628b806c463b948bc644b84f,629afad1cea7a350daf37a47,,,,,,,,,,,,,,,,,,,,,,,1,,,,,,,,,,Task,34,(9/3) - 2,1,,,,,,,,,,,,,,,,,,,1,,,,,,,,,,,,,,,,,,,,,,,"[""1""]",1,[3.2694999999999936],0,0,0,33,1,,,,,,,,,,,,,,,,,,
,,,,,,,,,,5fe23b8f29598a58fee0b230,19,Mężczyzna,2022-06-04_08h26.10.762,task,2021.1.4,Win32,60.0240096,628b806c463b948bc644b84f,629afad1cea7a350daf37a47,,,,,,,,,,X V Q F H G B L J M P D K C T S W R N Z,,,,,,,,,,,,,,,,,,,,,,,,,,,,,,,,,,,,,,,,,,,,,,,,,,,,,,,,,,,,,,,,,,,,,,,,,,,,5,0,5,0,1,,,,,,,,,,,,,
,,,,,,,,,,5fe23b8f29598a58fee0b230,19,Mężczyzna,2022-06-04_08h26.10.762,task,2021.1.4,Win32,60.0240096,628b806c463b948bc644b84f,629afad1cea7a350daf37a47,,,,,,,,,,,,,,,,,,,,,,,,,,,,,,,,,,,,,,,,,,,,,,,,,,,,,,,,,,,,,,,,,,,,,,,,,,,,,,,,,,,,,,,,,,,chjmlz,"[""c"",""h"",""j"",""m"",""l"",""z""]",0,"[1.4389999999999645,1.6848000000715047,2.119900000095413,2.4338000000715283,2.7005000000000337,2.9774999999999636,3.3072000000477146]",1,CHJMLZ,4,0,4,0,1,,
,,,,,,,,,,5fe23b8f29598a58fee0b230,19,Mężczyzna,2022-06-04_08h26.10.762,task,2021.1.4,Win32,60.0240096,628b806c463b948bc644b84f,629afad1cea7a350daf37a47,,,,,,,,,,,,,,,,,,,,,,,1,,,,,,,,,,Task,13,(3x4) - 6,6,,,,,,,,,,,,,,,,,,,0,,,,,,,,,,,,,,,,,,,,,,,"[""1""]",0,[4.990799999952287],0,0,0,12,1,,,,,,,,,,,,,,,,,,
,,,,,,,,,,5fe23b8f29598a58fee0b230,19,Mężczyzna,2022-06-04_08h26.10.762,task,2021.1.4,Win32,60.0240096,628b806c463b948bc644b84f,629afad1cea7a350daf37a47,,,,,,,,,,,,,,,,,,,,,,,8,,,,,,,,,,Task,32,(8/2) + 4,8,,,,,,,,,,,,,,,,,,,1,,,,,,,,,,,,,,,,,,,,,,,"[""8""]",1,[4.698100000023828],0,1,1,31,1,,,,,,,,,,,,,,,,,,
,,,,,,,,,,5fe23b8f29598a58fee0b230,19,Mężczyzna,2022-06-04_08h26.10.762,task,2021.1.4,Win32,60.0240096,628b806c463b948bc644b84f,629afad1cea7a350daf37a47,,,,,,,,,,X V Q F H G B L J M P D K C T S W R N Z,,,,,,,,,,,,,,,,,,,,,,,,,,,,,,,,,,,,,,,,,,,,,,,,,,,,,,,,,,,,,,,,,,,,,,,,,,,,0,0,0,0,1,,,,,,,,,,,,,
,,,,,,,,,,5fe23b8f29598a58fee0b230,19,Mężczyzna,2022-06-04_08h26.10.762,task,2021.1.4,Win32,60.0240096,628b806c463b948bc644b84f,629afad1cea7a350daf37a47,,,,,,,,,,,,,,,,,,,,,,,9,,,,,,,,,,Task,24,(2x2) + 5,9,,,,,,,,,,,,,,,,,,,1,,,,,,,,,,,,,,,,,,,,,,,"[""9""]",1,[2.1877000000475846],0,0,0,23,1,,,,,,,,,,,,,,,,,,
,,,,,,,,,,5fe23b8f29598a58fee0b230,19,Mężczyzna,2022-06-04_08h26.10.762,task,2021.1.4,Win32,60.0240096,628b806c463b948bc644b84f,629afad1cea7a350daf37a47,,,,,,,,,,X V Q F H G B L J M P D K C T S W R N Z,,,,,,,,,,,,,,,,,,,,,,,,,,,,,,,,,,,,,,,,,,,,,,,,,,,,,,,,,,,,,,,,,,,,,,,,,,,,1,0,1,0,1,,,,,,,,,,,,,
,,,,,,,,,,5fe23b8f29598a58fee0b230,19,Mężczyzna,2022-06-04_08h26.10.762,task,2021.1.4,Win32,60.0240096,628b806c463b948bc644b84f,629afad1cea7a350daf37a47,,,,,,,,,,,,,,,,,,,,,,,9,,,,,,,,,,Task,7,(3x7) - 12,9,,,,,,,,,,,,,,,,,,,1,,,,,,,,,,,,,,,,,,,,,,,"[""9""]",1,[3.9691000000239],0,0,0,6,1,,,,,,,,,,,,,,,,,,
,,,,,,,,,,5fe23b8f29598a58fee0b230,19,Mężczyzna,2022-06-04_08h26.10.762,task,2021.1.4,Win32,60.0240096,628b806c463b948bc644b84f,629afad1cea7a350daf37a47,,,,,,,,,,X V Q F H G B L J M P D K C T S W R N Z,,,,,,,,,,,,,,,,,,,,,,,,,,,,,,,,,,,,,,,,,,,,,,,,,,,,,,,,,,,,,,,,,,,,,,,,,,,,2,0,2,0,1,,,,,,,,,,,,,
,,,,,,,,,,5fe23b8f29598a58fee0b230,19,Mężczyzna,2022-06-04_08h26.10.762,task,2021.1.4,Win32,60.0240096,628b806c463b948bc644b84f,629afad1cea7a350daf37a47,,,,,,,,,,,,,,,,,,,,,,,7,,,,,,,,,,Task,14,(2x2) + 3,7,,,,,,,,,,,,,,,,,,,1,,,,,,,,,,,,,,,,,,,,,,,"[""7""]",1,[2.747299999952361],0,0,0,13,1,,,,,,,,,,,,,,,,,,
,,,,,,,,,,5fe23b8f29598a58fee0b230,19,Mężczyzna,2022-06-04_08h26.10.762,task,2021.1.4,Win32,60.0240096,628b806c463b948bc644b84f,629afad1cea7a350daf37a47,,,,,,,,,,X V Q F H G B L J M P D K C T S W R N Z,,,,,,,,,,,,,,,,,,,,,,,,,,,,,,,,,,,,,,,,,,,,,,,,,,,,,,,,,,,,,,,,,,,,,,,,,,,,3,0,3,0,1,,,,,,,,,,,,,
,,,,,,,,,,5fe23b8f29598a58fee0b230,19,Mężczyzna,2022-06-04_08h26.10.762,task,2021.1.4,Win32,60.0240096,628b806c463b948bc644b84f,629afad1cea7a350daf37a47,,,,,,,,,,,,,,,,,,,,,,,2,,,,,,,,,,Task,19,(6/2) - 1,2,,,,,,,,,,,,,,,,,,,1,,,,,,,,,,,,,,,,,,,,,,,"[""2""]",1,[5.067899999976248],0,0,0,18,1,,,,,,,,,,,,,,,,,,
,,,,,,,,,,5fe23b8f29598a58fee0b230,19,Mężczyzna,2022-06-04_08h26.10.762,task,2021.1.4,Win32,60.0240096,628b806c463b948bc644b84f,629afad1cea7a350daf37a47,,,,,,,,,,X V Q F H G B L J M P D K C T S W R N Z,,,,,,,,,,,,,,,,,,,,,,,,,,,,,,,,,,,,,,,,,,,,,,,,,,,,,,,,,,,,,,,,,,,,,,,,,,,,4,0,4,0,1,,,,,,,,,,,,,
,,,,,,,,,,5fe23b8f29598a58fee0b230,19,Mężczyzna,2022-06-04_08h26.10.762,task,2021.1.4,Win32,60.0240096,628b806c463b948bc644b84f,629afad1cea7a350daf37a47,,,,,,,,,,,,,,,,,,,,,,,9,,,,,,,,,,Task,40,(7x2) - 5,9,,,,,,,,,,,,,,,,,,,1,,,,,,,,,,,,,,,,,,,,,,,"[""9""]",1,[3.8662000000476837],0,0,0,39,1,,,,,,,,,,,,,,,,,,
,,,,,,,,,,5fe23b8f29598a58fee0b230,19,Mężczyzna,2022-06-04_08h26.10.762,task,2021.1.4,Win32,60.0240096,628b806c463b948bc644b84f,629afad1cea7a350daf37a47,,,,,,,,,,X V Q F H G B L J M P D K C T S W R N Z,,,,,,,,,,,,,,,,,,,,,,,,,,,,,,,,,,,,,,,,,,,,,,,,,,,,,,,,,,,,,,,,,,,,,,,,,,,,5,0,5,0,1,,,,,,,,,,,,,
,,,,,,,,,,5fe23b8f29598a58fee0b230,19,Mężczyzna,2022-06-04_08h26.10.762,task,2021.1.4,Win32,60.0240096,628b806c463b948bc644b84f,629afad1cea7a350daf37a47,,,,,,,,,,,,,,,,,,,,,,,8,,,,,,,,,,Task,32,(8/2) + 4,8,,,,,,,,,,,,,,,,,,,1,,,,,,,,,,,,,,,,,,,,,,,"[""8""]",1,[5.219100000023786],0,0,0,31,1,,,,,,,,,,,,,,,,,,
,,,,,,,,,,5fe23b8f29598a58fee0b230,19,Mężczyzna,2022-06-04_08h26.10.762,task,2021.1.4,Win32,60.0240096,628b806c463b948bc644b84f,629afad1cea7a350daf37a47,,,,,,,,,,X V Q F H G B L J M P D K C T S W R N Z,,,,,,,,,,,,,,,,,,,,,,,,,,,,,,,,,,,,,,,,,,,,,,,,,,,,,,,,,,,,,,,,,,,,,,,,,,,,6,0,6,0,1,,,,,,,,,,,,,
,,,,,,,,,,5fe23b8f29598a58fee0b230,19,Mężczyzna,2022-06-04_08h26.10.762,task,2021.1.4,Win32,60.0240096,628b806c463b948bc644b84f,629afad1cea7a350daf37a47,,,,,,,,,,,,,,,,,,,,,,,,,,,,,,,,,,,,,,,,,,,,,,,,,,,,,,,,,,,,,,,,,,,,,,,,,,,,,,,,,,,,,,,,,,,lkzwfpf,"[""l"",""k"",""z"",""w"",""f"",""p"",""f""]",0,"[1.4188999999761336,1.7391999999284735,2.0881000000239283,2.437999999999988,3.1035000000000537,3.558199999928547,3.642399999976192,3.998199999928488]",1,LKZWFPF,5,0,5,0,1,,
,,,,,,,,,,5fe23b8f29598a58fee0b230,19,Mężczyzna,2022-06-04_08h26.10.762,task,2021.1.4,Win32,60.0240096,628b806c463b948bc644b84f,629afad1cea7a350daf37a47,,,,,,,,,,,,,,,,,,,,,,,8,,,,,,,,,,Task,32,(8/2) + 4,8,,,,,,,,,,,,,,,,,,,1,,,,,,,,,,,,,,,,,,,,,,,"[""8""]",1,[3.534600000023829],0,0,0,31,1,,,,,,,,,,,,,,,,,,
,,,,,,,,,,5fe23b8f29598a58fee0b230,19,Mężczyzna,2022-06-04_08h26.10.762,task,2021.1.4,Win32,60.0240096,628b806c463b948bc644b84f,629afad1cea7a350daf37a47,,,,,,,,,,X V Q F H G B L J M P D K C T S W R N Z,,,,,,,,,,,,,,,,,,,,,,,,,,,,,,,,,,,,,,,,,,,,,,,,,,,,,,,,,,,,,,,,,,,,,,,,,,,,0,0,0,0,1,,,,,,,,,,,,,
,,,,,,,,,,5fe23b8f29598a58fee0b230,19,Mężczyzna,2022-06-04_08h26.10.762,task,2021.1.4,Win32,60.0240096,628b806c463b948bc644b84f,629afad1cea7a350daf37a47,,,,,,,,,,,,,,,,,,,,,,,1,,,,,,,,,,Task,9,(3x7) - 20,1,,,,,,,,,,,,,,,,,,,1,,,,,,,,,,,,,,,,,,,,,,,"[""1""]",1,[2.183999999999969],0,0,0,8,1,,,,,,,,,,,,,,,,,,
,,,,,,,,,,5fe23b8f29598a58fee0b230,19,Mężczyzna,2022-06-04_08h26.10.762,task,2021.1.4,Win32,60.0240096,628b806c463b948bc644b84f,629afad1cea7a350daf37a47,,,,,,,,,,X V Q F H G B L J M P D K C T S W R N Z,,,,,,,,,,,,,,,,,,,,,,,,,,,,,,,,,,,,,,,,,,,,,,,,,,,,,,,,,,,,,,,,,,,,,,,,,,,,1,0,1,0,1,,,,,,,,,,,,,
,,,,,,,,,,5fe23b8f29598a58fee0b230,19,Mężczyzna,2022-06-04_08h26.10.762,task,2021.1.4,Win32,60.0240096,628b806c463b948bc644b84f,629afad1cea7a350daf37a47,,,,,,,,,,,,,,,,,,,,,,,0,,,,,,,,,,Task,25,(10/5) - 2,0,,,,,,,,,,,,,,,,,,,1,,,,,,,,,,,,,,,,,,,,,,,"[""0""]",1,[2.286000000000058],0,0,0,24,1,,,,,,,,,,,,,,,,,,
,,,,,,,,,,5fe23b8f29598a58fee0b230,19,Mężczyzna,2022-06-04_08h26.10.762,task,2021.1.4,Win32,60.0240096,628b806c463b948bc644b84f,629afad1cea7a350daf37a47,,,,,,,,,,X V Q F H G B L J M P D K C T S W R N Z,,,,,,,,,,,,,,,,,,,,,,,,,,,,,,,,,,,,,,,,,,,,,,,,,,,,,,,,,,,,,,,,,,,,,,,,,,,,2,0,2,0,1,,,,,,,,,,,,,
,,,,,,,,,,5fe23b8f29598a58fee0b230,19,Mężczyzna,2022-06-04_08h26.10.762,task,2021.1.4,Win32,60.0240096,628b806c463b948bc644b84f,629afad1cea7a350daf37a47,,,,,,,,,,,,,,,,,,,,,,,9,,,,,,,,,,Task,31,(4/2) + 5,7,,,,,,,,,,,,,,,,,,,0,,,,,,,,,,,,,,,,,,,,,,,"[""9""]",0,[2.21869999992839],0,0,0,30,1,,,,,,,,,,,,,,,,,,
,,,,,,,,,,5fe23b8f29598a58fee0b230,19,Mężczyzna,2022-06-04_08h26.10.762,task,2021.1.4,Win32,60.0240096,628b806c463b948bc644b84f,629afad1cea7a350daf37a47,,,,,,,,,,,,,,,,,,,,,,,0,,,,,,,,,,Task,17,(2x3) - 6,0,,,,,,,,,,,,,,,,,,,1,,,,,,,,,,,,,,,,,,,,,,,"[""0""]",1,[2.774200000047699],0,1,1,16,1,,,,,,,,,,,,,,,,,,
,,,,,,,,,,5fe23b8f29598a58fee0b230,19,Mężczyzna,2022-06-04_08h26.10.762,task,2021.1.4,Win32,60.0240096,628b806c463b948bc644b84f,629afad1cea7a350daf37a47,,,,,,,,,,X V Q F H G B L J M P D K C T S W R N Z,,,,,,,,,,,,,,,,,,,,,,,,,,,,,,,,,,,,,,,,,,,,,,,,,,,,,,,,,,,,,,,,,,,,,,,,,,,,3,0,3,0,1,,,,,,,,,,,,,
,,,,,,,,,,5fe23b8f29598a58fee0b230,19,Mężczyzna,2022-06-04_08h26.10.762,task,2021.1.4,Win32,60.0240096,628b806c463b948bc644b84f,629afad1cea7a350daf37a47,,,,,,,,,,,,,,,,,,,,,,,5,,,,,,,,,,Task,22,(3x1) + 2,5,,,,,,,,,,,,,,,,,,,1,,,,,,,,,,,,,,,,,,,,,,,"[""5""]",1,[2.993000000000052],0,0,0,21,1,,,,,,,,,,,,,,,,,,
,,,,,,,,,,5fe23b8f29598a58fee0b230,19,Mężczyzna,2022-06-04_08h26.10.762,task,2021.1.4,Win32,60.0240096,628b806c463b948bc644b84f,629afad1cea7a350daf37a47,,,,,,,,,,X V Q F H G B L J M P D K C T S W R N Z,,,,,,,,,,,,,,,,,,,,,,,,,,,,,,,,,,,,,,,,,,,,,,,,,,,,,,,,,,,,,,,,,,,,,,,,,,,,4,0,4,0,1,,,,,,,,,,,,,
,,,,,,,,,,5fe23b8f29598a58fee0b230,19,Mężczyzna,2022-06-04_08h26.10.762,task,2021.1.4,Win32,60.0240096,628b806c463b948bc644b84f,629afad1cea7a350daf37a47,,,,,,,,,,,,,,,,,,,,,,,6,,,,,,,,,,Task,5,(2x3) + 0,6,,,,,,,,,,,,,,,,,,,1,,,,,,,,,,,,,,,,,,,,,,,"[""6""]",1,[1.947200000047701],0,0,0,4,1,,,,,,,,,,,,,,,,,,
,,,,,,,,,,5fe23b8f29598a58fee0b230,19,Mężczyzna,2022-06-04_08h26.10.762,task,2021.1.4,Win32,60.0240096,628b806c463b948bc644b84f,629afad1cea7a350daf37a47,,,,,,,,,,X V Q F H G B L J M P D K C T S W R N Z,,,,,,,,,,,,,,,,,,,,,,,,,,,,,,,,,,,,,,,,,,,,,,,,,,,,,,,,,,,,,,,,,,,,,,,,,,,,5,0,5,0,1,,,,,,,,,,,,,
,,,,,,,,,,5fe23b8f29598a58fee0b230,19,Mężczyzna,2022-06-04_08h26.10.762,task,2021.1.4,Win32,60.0240096,628b806c463b948bc644b84f,629afad1cea7a350daf37a47,,,,,,,,,,,,,,,,,,,,,,,0,,,,,,,,,,Task,25,(10/5) - 2,0,,,,,,,,,,,,,,,,,,,1,,,,,,,,,,,,,,,,,,,,,,,"[""0""]",1,[2.7503000000715474],0,0,0,24,1,,,,,,,,,,,,,,,,,,
,,,,,,,,,,5fe23b8f29598a58fee0b230,19,Mężczyzna,2022-06-04_08h26.10.762,task,2021.1.4,Win32,60.0240096,628b806c463b948bc644b84f,629afad1cea7a350daf37a47,,,,,,,,,,X V Q F H G B L J M P D K C T S W R N Z,,,,,,,,,,,,,,,,,,,,,,,,,,,,,,,,,,,,,,,,,,,,,,,,,,,,,,,,,,,,,,,,,,,,,,,,,,,,6,0,6,0,1,,,,,,,,,,,,,
,,,,,,,,,,5fe23b8f29598a58fee0b230,19,Mężczyzna,2022-06-04_08h26.10.762,task,2021.1.4,Win32,60.0240096,628b806c463b948bc644b84f,629afad1cea7a350daf37a47,,,,,,,,,,,,,,,,,,,,,,,1,,,,,,,,,,Task,9,(3x7) - 20,1,,,,,,,,,,,,,,,,,,,1,,,,,,,,,,,,,,,,,,,,,,,"[""1""]",1,[2.0744999999999436],0,0,0,8,1,,,,,,,,,,,,,,,,,,
,,,,,,,,,,5fe23b8f29598a58fee0b230,19,Mężczyzna,2022-06-04_08h26.10.762,task,2021.1.4,Win32,60.0240096,628b806c463b948bc644b84f,629afad1cea7a350daf37a47,,,,,,,,,,X V Q F H G B L J M P D K C T S W R N Z,,,,,,,,,,,,,,,,,,,,,,,,,,,,,,,,,,,,,,,,,,,,,,,,,,,,,,,,,,,,,,,,,,,,,,,,,,,,7,0,7,0,1,,,,,,,,,,,,,
,,,,,,,,,,5fe23b8f29598a58fee0b230,19,Mężczyzna,2022-06-04_08h26.10.762,task,2021.1.4,Win32,60.0240096,628b806c463b948bc644b84f,629afad1cea7a350daf37a47,,,,,,,,,,,,,,,,,,,,,,,,,,,,,,,,,,,,,,,,,,,,,,,,,,,,,,,,,,,,,,,,,,,,,,,,,,,,,,,,,,,,,,,,,,,bhhljqd,"[""b"",""h"",""h"",""l"",""j"",""q"",""d""]",0,"[2.9721999999285345,3.2346000000238746,3.3673999999762145,4.019899999976133,4.47300000000007,4.831799999952295,5.871899999976222,6.180799999952342]",0,BHHLJQFD,6,0,6,0,1,,
,,,,,,,,,,5fe23b8f29598a58fee0b230,19,Mężczyzna,2022-06-04_08h26.10.762,task,2021.1.4,Win32,60.0240096,628b806c463b948bc644b84f,629afad1cea7a350daf37a47,,,,,,,,,,,,,,,,,,,,,,,5,,,,,,,,,,Task,29,(3x8) - 19 ,5,,,,,,,,,,,,,,,,,,,1,,,,,,,,,,,,,,,,,,,,,,,"[""5""]",1,[3.934399999976108],0,0,0,28,1,,,,,,,,,,,,,,,,,,
,,,,,,,,,,5fe23b8f29598a58fee0b230,19,Mężczyzna,2022-06-04_08h26.10.762,task,2021.1.4,Win32,60.0240096,628b806c463b948bc644b84f,629afad1cea7a350daf37a47,,,,,,,,,,X V Q F H G B L J M P D K C T S W R N Z,,,,,,,,,,,,,,,,,,,,,,,,,,,,,,,,,,,,,,,,,,,,,,,,,,,,,,,,,,,,,,,,,,,,,,,,,,,,0,0,0,0,1,,,,,,,,,,,,,
