key_resp_15.keys,key_resp_15.rt,key_resp_16.keys,key_resp_16.rt,key_resp_4.keys,key_resp_4.rt,next_letter.thisRepN,next_letter.thisTrialN,next_letter.thisN,next_letter.thisIndex,next_letter.ran,letter,participant,Wiek*,Płeć,date,expName,psychopyVersion,OS,frameRate,study_id,session,simple_recall,key_resp_5.keys,key_resp_5.rt,simple_recall_corr,simple_recall_corrkeys,next_level.thisRepN,next_level.thisTrialN,next_level.thisN,next_level.thisIndex,next_level.ran,key_resp_2.keys,key_resp_2.rt,digit_answer,key_resp.keys,key_resp.corr,key_resp.rt,RT_list,next_equation.thisRepN,next_equation.thisTrialN,next_equation.thisN,next_equation.thisIndex,next_equation.ran,Task,Trial,Problem,Operation_answer,processing_score,sumRT,meanRT,sumdiff,sd,RT,key_resp_3.keys,key_resp_3.rt,repeat_practice.thisRepN,repeat_practice.thisTrialN,repeat_practice.thisN,repeat_practice.thisIndex,repeat_practice.ran,key_resp_6.keys,key_resp_6.rt,key_resp_11.keys,key_resp_11.corr,key_resp_11.rt,operation_correct,repeat_if_wrong_prac.thisRepN,repeat_if_wrong_prac.thisTrialN,repeat_if_wrong_prac.thisN,repeat_if_wrong_prac.thisIndex,repeat_if_wrong_prac.ran,span_size_prac.thisRepN,span_size_prac.thisTrialN,span_size_prac.thisN,span_size_prac.thisIndex,span_size_prac.ran,complex_recall_practice,key_resp_9.keys,key_resp_9.corr,key_resp_9.rt,complex_prac_corr,span_recall_prac.thisRepN,span_recall_prac.thisTrialN,span_recall_prac.thisN,span_recall_prac.thisIndex,span_recall_prac.ran,key_resp_10.keys,key_resp_10.rt,key_resp_7.keys,key_resp_7.corr,key_resp_7.rt,repeat_if_wrong.thisRepN,repeat_if_wrong.thisTrialN,repeat_if_wrong.thisN,repeat_if_wrong.thisIndex,repeat_if_wrong.ran,span_size.thisRepN,span_size.thisTrialN,span_size.thisN,span_size.thisIndex,span_size.ran,complex_recall,key_resp_8.keys,key_resp_8.corr,key_resp_8.rt,complex_recall_corr,complex_recall_corrkeys,span_recall.thisRepN,span_recall.thisTrialN,span_recall.thisN,span_recall.thisIndex,span_recall.ran,key_resp_13.keys,key_resp_13.corr,random_loop.thisRepN,random_loop.thisTrialN,random_loop.thisN,random_loop.thisIndex,random_loop.ran,key_resp_13.rt,key_resp_12.keys,key_resp_12.rt
space,71.449,space,14.098,space,24.609,0,0,0,0,1,X V Q F H G B L J M P D K C T S W R N Z,5ff743fd88a5713bd0d00583,28,Mężczyzna,2022-06-11_09h22.27.876,task,2021.1.4,Win32,60.0240096,6299f149e92ead563fba08ef,62a442965cf365a46289af1a,,,,,,,,,,,,,,,,,,,,,,,,,,,,,,,,,,,,,,,,,,,,,,,,,,,,,,,,,,,,,,,,,,,,,,,,,,,,,,,,,,,,,,,,,,,,,,,,,,,,,
,,,,,,1,0,1,0,1,X V Q F H G B L J M P D K C T S W R N Z,5ff743fd88a5713bd0d00583,28,Mężczyzna,2022-06-11_09h22.27.876,task,2021.1.4,Win32,60.0240096,6299f149e92ead563fba08ef,62a442965cf365a46289af1a,,,,,,,,,,,,,,,,,,,,,,,,,,,,,,,,,,,,,,,,,,,,,,,,,,,,,,,,,,,,,,,,,,,,,,,,,,,,,,,,,,,,,,,,,,,,,,,,,,,,,
,,,,,,,,,,,,5ff743fd88a5713bd0d00583,28,Mężczyzna,2022-06-11_09h22.27.876,task,2021.1.4,Win32,60.0240096,6299f149e92ead563fba08ef,62a442965cf365a46289af1a,zv,"[""z"",""v""]","[2.098000000000013,2.4919999999999902,4.079000000000008]",1,ZV,0,0,0,0,1,,,,,,,,,,,,,,,,,,,,,,,,,,,,,,,,,,,,,,,,,,,,,,,,,,,,,,,,,,,,,,,,,,,,,,,,,,,,,,,,,,,,,,,,,,,
,,,,,,0,0,0,0,1,X V Q F H G B L J M P D K C T S W R N Z,5ff743fd88a5713bd0d00583,28,Mężczyzna,2022-06-11_09h22.27.876,task,2021.1.4,Win32,60.0240096,6299f149e92ead563fba08ef,62a442965cf365a46289af1a,,,,,,,,,,,,,,,,,,,,,,,,,,,,,,,,,,,,,,,,,,,,,,,,,,,,,,,,,,,,,,,,,,,,,,,,,,,,,,,,,,,,,,,,,,,,,,,,,,,,,
,,,,,,1,0,1,0,1,X V Q F H G B L J M P D K C T S W R N Z,5ff743fd88a5713bd0d00583,28,Mężczyzna,2022-06-11_09h22.27.876,task,2021.1.4,Win32,60.0240096,6299f149e92ead563fba08ef,62a442965cf365a46289af1a,,,,,,,,,,,,,,,,,,,,,,,,,,,,,,,,,,,,,,,,,,,,,,,,,,,,,,,,,,,,,,,,,,,,,,,,,,,,,,,,,,,,,,,,,,,,,,,,,,,,,
,,,,,,,,,,,,5ff743fd88a5713bd0d00583,28,Mężczyzna,2022-06-11_09h22.27.876,task,2021.1.4,Win32,60.0240096,6299f149e92ead563fba08ef,62a442965cf365a46289af1a,cd,"[""c"",""d""]","[1.531000000000006,1.9159999999999968,2.716000000000008]",1,CD,1,0,1,0,1,,,,,,,,,,,,,,,,,,,,,,,,,,,,,,,,,,,,,,,,,,,,,,,,,,,,,,,,,,,,,,,,,,,,,,,,,,,,,,,,,,,,,,,,,,,
,,,,,,0,0,0,0,1,X V Q F H G B L J M P D K C T S W R N Z,5ff743fd88a5713bd0d00583,28,Mężczyzna,2022-06-11_09h22.27.876,task,2021.1.4,Win32,60.0240096,6299f149e92ead563fba08ef,62a442965cf365a46289af1a,,,,,,,,,,,,,,,,,,,,,,,,,,,,,,,,,,,,,,,,,,,,,,,,,,,,,,,,,,,,,,,,,,,,,,,,,,,,,,,,,,,,,,,,,,,,,,,,,,,,,
,,,,,,1,0,1,0,1,X V Q F H G B L J M P D K C T S W R N Z,5ff743fd88a5713bd0d00583,28,Mężczyzna,2022-06-11_09h22.27.876,task,2021.1.4,Win32,60.0240096,6299f149e92ead563fba08ef,62a442965cf365a46289af1a,,,,,,,,,,,,,,,,,,,,,,,,,,,,,,,,,,,,,,,,,,,,,,,,,,,,,,,,,,,,,,,,,,,,,,,,,,,,,,,,,,,,,,,,,,,,,,,,,,,,,
,,,,,,2,0,2,0,1,X V Q F H G B L J M P D K C T S W R N Z,5ff743fd88a5713bd0d00583,28,Mężczyzna,2022-06-11_09h22.27.876,task,2021.1.4,Win32,60.0240096,6299f149e92ead563fba08ef,62a442965cf365a46289af1a,,,,,,,,,,,,,,,,,,,,,,,,,,,,,,,,,,,,,,,,,,,,,,,,,,,,,,,,,,,,,,,,,,,,,,,,,,,,,,,,,,,,,,,,,,,,,,,,,,,,,
,,,,,,,,,,,,5ff743fd88a5713bd0d00583,28,Mężczyzna,2022-06-11_09h22.27.876,task,2021.1.4,Win32,60.0240096,6299f149e92ead563fba08ef,62a442965cf365a46289af1a,ztw,"[""z"",""t"",""w""]","[0.782999999999987,1.3489999999999895,2.282999999999987,3.1980000000000075]",1,ZTW,2,0,2,0,1,,,,,,,,,,,,,,,,,,,,,,,,,,,,,,,,,,,,,,,,,,,,,,,,,,,,,,,,,,,,,,,,,,,,,,,,,,,,,,,,,,,,,,,,,,,
,,,,,,0,0,0,0,1,X V Q F H G B L J M P D K C T S W R N Z,5ff743fd88a5713bd0d00583,28,Mężczyzna,2022-06-11_09h22.27.876,task,2021.1.4,Win32,60.0240096,6299f149e92ead563fba08ef,62a442965cf365a46289af1a,,,,,,,,,,,,,,,,,,,,,,,,,,,,,,,,,,,,,,,,,,,,,,,,,,,,,,,,,,,,,,,,,,,,,,,,,,,,,,,,,,,,,,,,,,,,,,,,,,,,,
,,,,,,1,0,1,0,1,X V Q F H G B L J M P D K C T S W R N Z,5ff743fd88a5713bd0d00583,28,Mężczyzna,2022-06-11_09h22.27.876,task,2021.1.4,Win32,60.0240096,6299f149e92ead563fba08ef,62a442965cf365a46289af1a,,,,,,,,,,,,,,,,,,,,,,,,,,,,,,,,,,,,,,,,,,,,,,,,,,,,,,,,,,,,,,,,,,,,,,,,,,,,,,,,,,,,,,,,,,,,,,,,,,,,,
,,,,,,2,0,2,0,1,X V Q F H G B L J M P D K C T S W R N Z,5ff743fd88a5713bd0d00583,28,Mężczyzna,2022-06-11_09h22.27.876,task,2021.1.4,Win32,60.0240096,6299f149e92ead563fba08ef,62a442965cf365a46289af1a,,,,,,,,,,,,,,,,,,,,,,,,,,,,,,,,,,,,,,,,,,,,,,,,,,,,,,,,,,,,,,,,,,,,,,,,,,,,,,,,,,,,,,,,,,,,,,,,,,,,,
,,,,,,,,,,,,5ff743fd88a5713bd0d00583,28,Mężczyzna,2022-06-11_09h22.27.876,task,2021.1.4,Win32,60.0240096,6299f149e92ead563fba08ef,62a442965cf365a46289af1a,fgv,"[""f"",""g"",""v""]","[0.617999999999995,0.8649999999999807,1.0989999999999895,1.73599999999999]",1,FGV,3,0,3,0,1,,,,,,,,,,,,,,,,,,,,,,,,,,,,,,,,,,,,,,,,,,,,,,,,,,,,,,,,,,,,,,,,,,,,,,,,,,,,,,,,,,,,,,,,,,,
,,,,,,0,0,0,0,1,X V Q F H G B L J M P D K C T S W R N Z,5ff743fd88a5713bd0d00583,28,Mężczyzna,2022-06-11_09h22.27.876,task,2021.1.4,Win32,60.0240096,6299f149e92ead563fba08ef,62a442965cf365a46289af1a,,,,,,,,,,,,,,,,,,,,,,,,,,,,,,,,,,,,,,,,,,,,,,,,,,,,,,,,,,,,,,,,,,,,,,,,,,,,,,,,,,,,,,,,,,,,,,,,,,,,,
,,,,,,1,0,1,0,1,X V Q F H G B L J M P D K C T S W R N Z,5ff743fd88a5713bd0d00583,28,Mężczyzna,2022-06-11_09h22.27.876,task,2021.1.4,Win32,60.0240096,6299f149e92ead563fba08ef,62a442965cf365a46289af1a,,,,,,,,,,,,,,,,,,,,,,,,,,,,,,,,,,,,,,,,,,,,,,,,,,,,,,,,,,,,,,,,,,,,,,,,,,,,,,,,,,,,,,,,,,,,,,,,,,,,,
,,,,,,2,0,2,0,1,X V Q F H G B L J M P D K C T S W R N Z,5ff743fd88a5713bd0d00583,28,Mężczyzna,2022-06-11_09h22.27.876,task,2021.1.4,Win32,60.0240096,6299f149e92ead563fba08ef,62a442965cf365a46289af1a,,,,,,,,,,,,,,,,,,,,,,,,,,,,,,,,,,,,,,,,,,,,,,,,,,,,,,,,,,,,,,,,,,,,,,,,,,,,,,,,,,,,,,,,,,,,,,,,,,,,,
,,,,,,3,0,3,0,1,X V Q F H G B L J M P D K C T S W R N Z,5ff743fd88a5713bd0d00583,28,Mężczyzna,2022-06-11_09h22.27.876,task,2021.1.4,Win32,60.0240096,6299f149e92ead563fba08ef,62a442965cf365a46289af1a,,,,,,,,,,,,,,,,,,,,,,,,,,,,,,,,,,,,,,,,,,,,,,,,,,,,,,,,,,,,,,,,,,,,,,,,,,,,,,,,,,,,,,,,,,,,,,,,,,,,,
,,,,,,,,,,,,5ff743fd88a5713bd0d00583,28,Mężczyzna,2022-06-11_09h22.27.876,task,2021.1.4,Win32,60.0240096,6299f149e92ead563fba08ef,62a442965cf365a46289af1a,znkg,"[""z"",""n"",""k"",""g""]","[0.5160000000000196,1.1380000000000052,1.5150000000000148,2.1510000000000105,2.8640000000000043]",1,ZNKG,4,0,4,0,1,,,,,,,,,,,,,,,,,,,,,,,,,,,,,,,,,,,,,,,,,,,,,,,,,,,,,,,,,,,,,,,,,,,,,,,,,,,,,,,,,,,,,,,,,,,
,,,,,,0,0,0,0,1,X V Q F H G B L J M P D K C T S W R N Z,5ff743fd88a5713bd0d00583,28,Mężczyzna,2022-06-11_09h22.27.876,task,2021.1.4,Win32,60.0240096,6299f149e92ead563fba08ef,62a442965cf365a46289af1a,,,,,,,,,,,,,,,,,,,,,,,,,,,,,,,,,,,,,,,,,,,,,,,,,,,,,,,,,,,,,,,,,,,,,,,,,,,,,,,,,,,,,,,,,,,,,,,,,,,,,
,,,,,,1,0,1,0,1,X V Q F H G B L J M P D K C T S W R N Z,5ff743fd88a5713bd0d00583,28,Mężczyzna,2022-06-11_09h22.27.876,task,2021.1.4,Win32,60.0240096,6299f149e92ead563fba08ef,62a442965cf365a46289af1a,,,,,,,,,,,,,,,,,,,,,,,,,,,,,,,,,,,,,,,,,,,,,,,,,,,,,,,,,,,,,,,,,,,,,,,,,,,,,,,,,,,,,,,,,,,,,,,,,,,,,
,,,,,,2,0,2,0,1,X V Q F H G B L J M P D K C T S W R N Z,5ff743fd88a5713bd0d00583,28,Mężczyzna,2022-06-11_09h22.27.876,task,2021.1.4,Win32,60.0240096,6299f149e92ead563fba08ef,62a442965cf365a46289af1a,,,,,,,,,,,,,,,,,,,,,,,,,,,,,,,,,,,,,,,,,,,,,,,,,,,,,,,,,,,,,,,,,,,,,,,,,,,,,,,,,,,,,,,,,,,,,,,,,,,,,
,,,,,,3,0,3,0,1,X V Q F H G B L J M P D K C T S W R N Z,5ff743fd88a5713bd0d00583,28,Mężczyzna,2022-06-11_09h22.27.876,task,2021.1.4,Win32,60.0240096,6299f149e92ead563fba08ef,62a442965cf365a46289af1a,,,,,,,,,,,,,,,,,,,,,,,,,,,,,,,,,,,,,,,,,,,,,,,,,,,,,,,,,,,,,,,,,,,,,,,,,,,,,,,,,,,,,,,,,,,,,,,,,,,,,
,,,,,,,,,,,,5ff743fd88a5713bd0d00583,28,Mężczyzna,2022-06-11_09h22.27.876,task,2021.1.4,Win32,60.0240096,6299f149e92ead563fba08ef,62a442965cf365a46289af1a,lvpd,"[""l"",""v"",""p"",""d""]","[1.3149999999999977,2.0649999999999977,2.681999999999988,3.548000000000002,4.600999999999999]",1,LVPD,5,0,5,0,1,,,,,,,,,,,,,,,,,,,,,,,,,,,,,,,,,,,,,,,,,,,,,,,,,,,,,,,,,,,,,,,,,,,,,,,,,,,,,,,,,,,,,,,,,,,
,,,,,,0,0,0,0,1,X V Q F H G B L J M P D K C T S W R N Z,5ff743fd88a5713bd0d00583,28,Mężczyzna,2022-06-11_09h22.27.876,task,2021.1.4,Win32,60.0240096,6299f149e92ead563fba08ef,62a442965cf365a46289af1a,,,,,,,,,,,,,,,,,,,,,,,,,,,,,,,,,,,,,,,,,,,,,,,,,,,,,,,,,,,,,,,,,,,,,,,,,,,,,,,,,,,,,,,,,,,,,,,,,,,,,
,,,,,,1,0,1,0,1,X V Q F H G B L J M P D K C T S W R N Z,5ff743fd88a5713bd0d00583,28,Mężczyzna,2022-06-11_09h22.27.876,task,2021.1.4,Win32,60.0240096,6299f149e92ead563fba08ef,62a442965cf365a46289af1a,,,,,,,,,,,,,,,,,,,,,,,,,,,,,,,,,,,,,,,,,,,,,,,,,,,,,,,,,,,,,,,,,,,,,,,,,,,,,,,,,,,,,,,,,,,,,,,,,,,,,
,,,,,,2,0,2,0,1,X V Q F H G B L J M P D K C T S W R N Z,5ff743fd88a5713bd0d00583,28,Mężczyzna,2022-06-11_09h22.27.876,task,2021.1.4,Win32,60.0240096,6299f149e92ead563fba08ef,62a442965cf365a46289af1a,,,,,,,,,,,,,,,,,,,,,,,,,,,,,,,,,,,,,,,,,,,,,,,,,,,,,,,,,,,,,,,,,,,,,,,,,,,,,,,,,,,,,,,,,,,,,,,,,,,,,
,,,,,,3,0,3,0,1,X V Q F H G B L J M P D K C T S W R N Z,5ff743fd88a5713bd0d00583,28,Mężczyzna,2022-06-11_09h22.27.876,task,2021.1.4,Win32,60.0240096,6299f149e92ead563fba08ef,62a442965cf365a46289af1a,,,,,,,,,,,,,,,,,,,,,,,,,,,,,,,,,,,,,,,,,,,,,,,,,,,,,,,,,,,,,,,,,,,,,,,,,,,,,,,,,,,,,,,,,,,,,,,,,,,,,
,,,,,,4,0,4,0,1,X V Q F H G B L J M P D K C T S W R N Z,5ff743fd88a5713bd0d00583,28,Mężczyzna,2022-06-11_09h22.27.876,task,2021.1.4,Win32,60.0240096,6299f149e92ead563fba08ef,62a442965cf365a46289af1a,,,,,,,,,,,,,,,,,,,,,,,,,,,,,,,,,,,,,,,,,,,,,,,,,,,,,,,,,,,,,,,,,,,,,,,,,,,,,,,,,,,,,,,,,,,,,,,,,,,,,
,,,,,,,,,,,,5ff743fd88a5713bd0d00583,28,Mężczyzna,2022-06-11_09h22.27.876,task,2021.1.4,Win32,60.0240096,6299f149e92ead563fba08ef,62a442965cf365a46289af1a,hkjxq,"[""h"",""k"",""j"",""x"",""q""]","[1.1779999999999973,1.681999999999988,3.680000000000007,8.39500000000001,8.978000000000009,10.044999999999987]",0,HXJFQ,6,0,6,0,1,,,,,,,,,,,,,,,,,,,,,,,,,,,,,,,,,,,,,,,,,,,,,,,,,,,,,,,,,,,,,,,,,,,,,,,,,,,,,,,,,,,,,,,,,,,
,,,,,,0,0,0,0,1,X V Q F H G B L J M P D K C T S W R N Z,5ff743fd88a5713bd0d00583,28,Mężczyzna,2022-06-11_09h22.27.876,task,2021.1.4,Win32,60.0240096,6299f149e92ead563fba08ef,62a442965cf365a46289af1a,,,,,,,,,,,,,,,,,,,,,,,,,,,,,,,,,,,,,,,,,,,,,,,,,,,,,,,,,,,,,,,,,,,,,,,,,,,,,,,,,,,,,,,,,,,,,,,,,,,,,
,,,,,,1,0,1,0,1,X V Q F H G B L J M P D K C T S W R N Z,5ff743fd88a5713bd0d00583,28,Mężczyzna,2022-06-11_09h22.27.876,task,2021.1.4,Win32,60.0240096,6299f149e92ead563fba08ef,62a442965cf365a46289af1a,,,,,,,,,,,,,,,,,,,,,,,,,,,,,,,,,,,,,,,,,,,,,,,,,,,,,,,,,,,,,,,,,,,,,,,,,,,,,,,,,,,,,,,,,,,,,,,,,,,,,
,,,,,,2,0,2,0,1,X V Q F H G B L J M P D K C T S W R N Z,5ff743fd88a5713bd0d00583,28,Mężczyzna,2022-06-11_09h22.27.876,task,2021.1.4,Win32,60.0240096,6299f149e92ead563fba08ef,62a442965cf365a46289af1a,,,,,,,,,,,,,,,,,,,,,,,,,,,,,,,,,,,,,,,,,,,,,,,,,,,,,,,,,,,,,,,,,,,,,,,,,,,,,,,,,,,,,,,,,,,,,,,,,,,,,
,,,,,,3,0,3,0,1,X V Q F H G B L J M P D K C T S W R N Z,5ff743fd88a5713bd0d00583,28,Mężczyzna,2022-06-11_09h22.27.876,task,2021.1.4,Win32,60.0240096,6299f149e92ead563fba08ef,62a442965cf365a46289af1a,,,,,,,,,,,,,,,,,,,,,,,,,,,,,,,,,,,,,,,,,,,,,,,,,,,,,,,,,,,,,,,,,,,,,,,,,,,,,,,,,,,,,,,,,,,,,,,,,,,,,
,,,,,,4,0,4,0,1,X V Q F H G B L J M P D K C T S W R N Z,5ff743fd88a5713bd0d00583,28,Mężczyzna,2022-06-11_09h22.27.876,task,2021.1.4,Win32,60.0240096,6299f149e92ead563fba08ef,62a442965cf365a46289af1a,,,,,,,,,,,,,,,,,,,,,,,,,,,,,,,,,,,,,,,,,,,,,,,,,,,,,,,,,,,,,,,,,,,,,,,,,,,,,,,,,,,,,,,,,,,,,,,,,,,,,
,,,,,,,,,,,,5ff743fd88a5713bd0d00583,28,Mężczyzna,2022-06-11_09h22.27.876,task,2021.1.4,Win32,60.0240096,6299f149e92ead563fba08ef,62a442965cf365a46289af1a,jzwtr,"[""j"",""z"",""w"",""t"",""r""]","[1.431999999999988,2.2479999999999905,2.796999999999997,3.181999999999988,3.4170000000000016,4.131]",1,JZWTR,7,0,7,0,1,,,,,,,,,,,,,,,,,,,,,,,,,,,,,,,,,,,,,,,,,,,,,,,,,,,,,,,,,,,,,,,,,,,,,,,,,,,,,,,,,,,,,,,,,,,
,,,,,,0,0,0,0,1,X V Q F H G B L J M P D K C T S W R N Z,5ff743fd88a5713bd0d00583,28,Mężczyzna,2022-06-11_09h22.27.876,task,2021.1.4,Win32,60.0240096,6299f149e92ead563fba08ef,62a442965cf365a46289af1a,,,,,,,,,,,,,,,,,,,,,,,,,,,,,,,,,,,,,,,,,,,,,,,,,,,,,,,,,,,,,,,,,,,,,,,,,,,,,,,,,,,,,,,,,,,,,,,,,,,,,
,,,,,,1,0,1,0,1,X V Q F H G B L J M P D K C T S W R N Z,5ff743fd88a5713bd0d00583,28,Mężczyzna,2022-06-11_09h22.27.876,task,2021.1.4,Win32,60.0240096,6299f149e92ead563fba08ef,62a442965cf365a46289af1a,,,,,,,,,,,,,,,,,,,,,,,,,,,,,,,,,,,,,,,,,,,,,,,,,,,,,,,,,,,,,,,,,,,,,,,,,,,,,,,,,,,,,,,,,,,,,,,,,,,,,
,,,,,,2,0,2,0,1,X V Q F H G B L J M P D K C T S W R N Z,5ff743fd88a5713bd0d00583,28,Mężczyzna,2022-06-11_09h22.27.876,task,2021.1.4,Win32,60.0240096,6299f149e92ead563fba08ef,62a442965cf365a46289af1a,,,,,,,,,,,,,,,,,,,,,,,,,,,,,,,,,,,,,,,,,,,,,,,,,,,,,,,,,,,,,,,,,,,,,,,,,,,,,,,,,,,,,,,,,,,,,,,,,,,,,
,,,,,,3,0,3,0,1,X V Q F H G B L J M P D K C T S W R N Z,5ff743fd88a5713bd0d00583,28,Mężczyzna,2022-06-11_09h22.27.876,task,2021.1.4,Win32,60.0240096,6299f149e92ead563fba08ef,62a442965cf365a46289af1a,,,,,,,,,,,,,,,,,,,,,,,,,,,,,,,,,,,,,,,,,,,,,,,,,,,,,,,,,,,,,,,,,,,,,,,,,,,,,,,,,,,,,,,,,,,,,,,,,,,,,
,,,,,,4,0,4,0,1,X V Q F H G B L J M P D K C T S W R N Z,5ff743fd88a5713bd0d00583,28,Mężczyzna,2022-06-11_09h22.27.876,task,2021.1.4,Win32,60.0240096,6299f149e92ead563fba08ef,62a442965cf365a46289af1a,,,,,,,,,,,,,,,,,,,,,,,,,,,,,,,,,,,,,,,,,,,,,,,,,,,,,,,,,,,,,,,,,,,,,,,,,,,,,,,,,,,,,,,,,,,,,,,,,,,,,
,,,,,,,,,,,,5ff743fd88a5713bd0d00583,28,Mężczyzna,2022-06-11_09h22.27.876,task,2021.1.4,Win32,60.0240096,6299f149e92ead563fba08ef,62a442965cf365a46289af1a,ghgds,"[""g"",""h"",""g"",""d"",""s""]","[1.163000000000011,1.4180000000000064,1.7299999999999898,2.4799999999999898,2.686000000000007,3.4850000000000136]",1,GHGDS,8,0,8,0,1,,,,,,,,,,,,,,,,,,,,,,,,,,,,,,,,,,,,,,,,,,,,,,,,,,,,,,,,,,,,,,,,,,,,,,,,,,,,,,,,,,,,,,,,,,,
,,,,,,0,0,0,0,1,X V Q F H G B L J M P D K C T S W R N Z,5ff743fd88a5713bd0d00583,28,Mężczyzna,2022-06-11_09h22.27.876,task,2021.1.4,Win32,60.0240096,6299f149e92ead563fba08ef,62a442965cf365a46289af1a,,,,,,,,,,,,,,,,,,,,,,,,,,,,,,,,,,,,,,,,,,,,,,,,,,,,,,,,,,,,,,,,,,,,,,,,,,,,,,,,,,,,,,,,,,,,,,,,,,,,,
,,,,,,1,0,1,0,1,X V Q F H G B L J M P D K C T S W R N Z,5ff743fd88a5713bd0d00583,28,Mężczyzna,2022-06-11_09h22.27.876,task,2021.1.4,Win32,60.0240096,6299f149e92ead563fba08ef,62a442965cf365a46289af1a,,,,,,,,,,,,,,,,,,,,,,,,,,,,,,,,,,,,,,,,,,,,,,,,,,,,,,,,,,,,,,,,,,,,,,,,,,,,,,,,,,,,,,,,,,,,,,,,,,,,,
,,,,,,2,0,2,0,1,X V Q F H G B L J M P D K C T S W R N Z,5ff743fd88a5713bd0d00583,28,Mężczyzna,2022-06-11_09h22.27.876,task,2021.1.4,Win32,60.0240096,6299f149e92ead563fba08ef,62a442965cf365a46289af1a,,,,,,,,,,,,,,,,,,,,,,,,,,,,,,,,,,,,,,,,,,,,,,,,,,,,,,,,,,,,,,,,,,,,,,,,,,,,,,,,,,,,,,,,,,,,,,,,,,,,,
,,,,,,3,0,3,0,1,X V Q F H G B L J M P D K C T S W R N Z,5ff743fd88a5713bd0d00583,28,Mężczyzna,2022-06-11_09h22.27.876,task,2021.1.4,Win32,60.0240096,6299f149e92ead563fba08ef,62a442965cf365a46289af1a,,,,,,,,,,,,,,,,,,,,,,,,,,,,,,,,,,,,,,,,,,,,,,,,,,,,,,,,,,,,,,,,,,,,,,,,,,,,,,,,,,,,,,,,,,,,,,,,,,,,,
,,,,,,4,0,4,0,1,X V Q F H G B L J M P D K C T S W R N Z,5ff743fd88a5713bd0d00583,28,Mężczyzna,2022-06-11_09h22.27.876,task,2021.1.4,Win32,60.0240096,6299f149e92ead563fba08ef,62a442965cf365a46289af1a,,,,,,,,,,,,,,,,,,,,,,,,,,,,,,,,,,,,,,,,,,,,,,,,,,,,,,,,,,,,,,,,,,,,,,,,,,,,,,,,,,,,,,,,,,,,,,,,,,,,,
,,,,,,5,0,5,0,1,X V Q F H G B L J M P D K C T S W R N Z,5ff743fd88a5713bd0d00583,28,Mężczyzna,2022-06-11_09h22.27.876,task,2021.1.4,Win32,60.0240096,6299f149e92ead563fba08ef,62a442965cf365a46289af1a,,,,,,,,,,,,,,,,,,,,,,,,,,,,,,,,,,,,,,,,,,,,,,,,,,,,,,,,,,,,,,,,,,,,,,,,,,,,,,,,,,,,,,,,,,,,,,,,,,,,,
,,,,,,,,,,,,5ff743fd88a5713bd0d00583,28,Mężczyzna,2022-06-11_09h22.27.876,task,2021.1.4,Win32,60.0240096,6299f149e92ead563fba08ef,62a442965cf365a46289af1a,mtwnqd,"[""m"",""t"",""w"",""n"",""q"",""d""]","[1.3700000000000045,1.983000000000004,2.9819999999999993,3.498000000000019,4.164000000000016,4.614000000000004,5.585000000000008]",1,MTWNQD,9,0,9,0,1,,,,,,,,,,,,,,,,,,,,,,,,,,,,,,,,,,,,,,,,,,,,,,,,,,,,,,,,,,,,,,,,,,,,,,,,,,,,,,,,,,,,,,,,,,,
,,,,,,0,0,0,0,1,X V Q F H G B L J M P D K C T S W R N Z,5ff743fd88a5713bd0d00583,28,Mężczyzna,2022-06-11_09h22.27.876,task,2021.1.4,Win32,60.0240096,6299f149e92ead563fba08ef,62a442965cf365a46289af1a,,,,,,,,,,,,,,,,,,,,,,,,,,,,,,,,,,,,,,,,,,,,,,,,,,,,,,,,,,,,,,,,,,,,,,,,,,,,,,,,,,,,,,,,,,,,,,,,,,,,,
,,,,,,1,0,1,0,1,X V Q F H G B L J M P D K C T S W R N Z,5ff743fd88a5713bd0d00583,28,Mężczyzna,2022-06-11_09h22.27.876,task,2021.1.4,Win32,60.0240096,6299f149e92ead563fba08ef,62a442965cf365a46289af1a,,,,,,,,,,,,,,,,,,,,,,,,,,,,,,,,,,,,,,,,,,,,,,,,,,,,,,,,,,,,,,,,,,,,,,,,,,,,,,,,,,,,,,,,,,,,,,,,,,,,,
,,,,,,2,0,2,0,1,X V Q F H G B L J M P D K C T S W R N Z,5ff743fd88a5713bd0d00583,28,Mężczyzna,2022-06-11_09h22.27.876,task,2021.1.4,Win32,60.0240096,6299f149e92ead563fba08ef,62a442965cf365a46289af1a,,,,,,,,,,,,,,,,,,,,,,,,,,,,,,,,,,,,,,,,,,,,,,,,,,,,,,,,,,,,,,,,,,,,,,,,,,,,,,,,,,,,,,,,,,,,,,,,,,,,,
,,,,,,3,0,3,0,1,X V Q F H G B L J M P D K C T S W R N Z,5ff743fd88a5713bd0d00583,28,Mężczyzna,2022-06-11_09h22.27.876,task,2021.1.4,Win32,60.0240096,6299f149e92ead563fba08ef,62a442965cf365a46289af1a,,,,,,,,,,,,,,,,,,,,,,,,,,,,,,,,,,,,,,,,,,,,,,,,,,,,,,,,,,,,,,,,,,,,,,,,,,,,,,,,,,,,,,,,,,,,,,,,,,,,,
,,,,,,4,0,4,0,1,X V Q F H G B L J M P D K C T S W R N Z,5ff743fd88a5713bd0d00583,28,Mężczyzna,2022-06-11_09h22.27.876,task,2021.1.4,Win32,60.0240096,6299f149e92ead563fba08ef,62a442965cf365a46289af1a,,,,,,,,,,,,,,,,,,,,,,,,,,,,,,,,,,,,,,,,,,,,,,,,,,,,,,,,,,,,,,,,,,,,,,,,,,,,,,,,,,,,,,,,,,,,,,,,,,,,,
,,,,,,5,0,5,0,1,X V Q F H G B L J M P D K C T S W R N Z,5ff743fd88a5713bd0d00583,28,Mężczyzna,2022-06-11_09h22.27.876,task,2021.1.4,Win32,60.0240096,6299f149e92ead563fba08ef,62a442965cf365a46289af1a,,,,,,,,,,,,,,,,,,,,,,,,,,,,,,,,,,,,,,,,,,,,,,,,,,,,,,,,,,,,,,,,,,,,,,,,,,,,,,,,,,,,,,,,,,,,,,,,,,,,,
,,,,,,,,,,,,5ff743fd88a5713bd0d00583,28,Mężczyzna,2022-06-11_09h22.27.876,task,2021.1.4,Win32,60.0240096,6299f149e92ead563fba08ef,62a442965cf365a46289af1a,ntwqtd,"[""n"",""t"",""w"",""q"",""t"",""d""]","[4.152999999999992,4.799000000000007,7.018000000000001,8.51400000000001,12.113,13.680000000000007,14.466000000000008]",0,QMTJQG,10,0,10,0,1,,,,,,,,,,,,,,,,,,,,,,,,,,,,,,,,,,,,,,,,,,,,,,,,,,,,,,,,,,,,,,,,,,,,,,,,,,,,,,,,,,,,,,,,,,,
,,,,,,0,0,0,0,1,X V Q F H G B L J M P D K C T S W R N Z,5ff743fd88a5713bd0d00583,28,Mężczyzna,2022-06-11_09h22.27.876,task,2021.1.4,Win32,60.0240096,6299f149e92ead563fba08ef,62a442965cf365a46289af1a,,,,,,,,,,,,,,,,,,,,,,,,,,,,,,,,,,,,,,,,,,,,,,,,,,,,,,,,,,,,,,,,,,,,,,,,,,,,,,,,,,,,,,,,,,,,,,,,,,,,,
,,,,,,1,0,1,0,1,X V Q F H G B L J M P D K C T S W R N Z,5ff743fd88a5713bd0d00583,28,Mężczyzna,2022-06-11_09h22.27.876,task,2021.1.4,Win32,60.0240096,6299f149e92ead563fba08ef,62a442965cf365a46289af1a,,,,,,,,,,,,,,,,,,,,,,,,,,,,,,,,,,,,,,,,,,,,,,,,,,,,,,,,,,,,,,,,,,,,,,,,,,,,,,,,,,,,,,,,,,,,,,,,,,,,,
,,,,,,2,0,2,0,1,X V Q F H G B L J M P D K C T S W R N Z,5ff743fd88a5713bd0d00583,28,Mężczyzna,2022-06-11_09h22.27.876,task,2021.1.4,Win32,60.0240096,6299f149e92ead563fba08ef,62a442965cf365a46289af1a,,,,,,,,,,,,,,,,,,,,,,,,,,,,,,,,,,,,,,,,,,,,,,,,,,,,,,,,,,,,,,,,,,,,,,,,,,,,,,,,,,,,,,,,,,,,,,,,,,,,,
,,,,,,3,0,3,0,1,X V Q F H G B L J M P D K C T S W R N Z,5ff743fd88a5713bd0d00583,28,Mężczyzna,2022-06-11_09h22.27.876,task,2021.1.4,Win32,60.0240096,6299f149e92ead563fba08ef,62a442965cf365a46289af1a,,,,,,,,,,,,,,,,,,,,,,,,,,,,,,,,,,,,,,,,,,,,,,,,,,,,,,,,,,,,,,,,,,,,,,,,,,,,,,,,,,,,,,,,,,,,,,,,,,,,,
,,,,,,4,0,4,0,1,X V Q F H G B L J M P D K C T S W R N Z,5ff743fd88a5713bd0d00583,28,Mężczyzna,2022-06-11_09h22.27.876,task,2021.1.4,Win32,60.0240096,6299f149e92ead563fba08ef,62a442965cf365a46289af1a,,,,,,,,,,,,,,,,,,,,,,,,,,,,,,,,,,,,,,,,,,,,,,,,,,,,,,,,,,,,,,,,,,,,,,,,,,,,,,,,,,,,,,,,,,,,,,,,,,,,,
,,,,,,5,0,5,0,1,X V Q F H G B L J M P D K C T S W R N Z,5ff743fd88a5713bd0d00583,28,Mężczyzna,2022-06-11_09h22.27.876,task,2021.1.4,Win32,60.0240096,6299f149e92ead563fba08ef,62a442965cf365a46289af1a,,,,,,,,,,,,,,,,,,,,,,,,,,,,,,,,,,,,,,,,,,,,,,,,,,,,,,,,,,,,,,,,,,,,,,,,,,,,,,,,,,,,,,,,,,,,,,,,,,,,,
,,,,,,,,,,,,5ff743fd88a5713bd0d00583,28,Mężczyzna,2022-06-11_09h22.27.876,task,2021.1.4,Win32,60.0240096,6299f149e92ead563fba08ef,62a442965cf365a46289af1a,txklbk,"[""t"",""x"",""k"",""l"",""b"",""k""]","[1.0829999999999984,1.6980000000000075,2.282999999999987,2.5719999999999743,4.169000000000011,4.582000000000022,4.96599999999998]",1,TXKLBK,11,0,11,0,1,,,,,,,,,,,,,,,,,,,,,,,,,,,,,,,,,,,,,,,,,,,,,,,,,,,,,,,,,,,,,,,,,,,,,,,,,,,,,,,,,,,,,,,,,,,
,,,,,,0,0,0,0,1,X V Q F H G B L J M P D K C T S W R N Z,5ff743fd88a5713bd0d00583,28,Mężczyzna,2022-06-11_09h22.27.876,task,2021.1.4,Win32,60.0240096,6299f149e92ead563fba08ef,62a442965cf365a46289af1a,,,,,,,,,,,,,,,,,,,,,,,,,,,,,,,,,,,,,,,,,,,,,,,,,,,,,,,,,,,,,,,,,,,,,,,,,,,,,,,,,,,,,,,,,,,,,,,,,,,,,
,,,,,,1,0,1,0,1,X V Q F H G B L J M P D K C T S W R N Z,5ff743fd88a5713bd0d00583,28,Mężczyzna,2022-06-11_09h22.27.876,task,2021.1.4,Win32,60.0240096,6299f149e92ead563fba08ef,62a442965cf365a46289af1a,,,,,,,,,,,,,,,,,,,,,,,,,,,,,,,,,,,,,,,,,,,,,,,,,,,,,,,,,,,,,,,,,,,,,,,,,,,,,,,,,,,,,,,,,,,,,,,,,,,,,
,,,,,,2,0,2,0,1,X V Q F H G B L J M P D K C T S W R N Z,5ff743fd88a5713bd0d00583,28,Mężczyzna,2022-06-11_09h22.27.876,task,2021.1.4,Win32,60.0240096,6299f149e92ead563fba08ef,62a442965cf365a46289af1a,,,,,,,,,,,,,,,,,,,,,,,,,,,,,,,,,,,,,,,,,,,,,,,,,,,,,,,,,,,,,,,,,,,,,,,,,,,,,,,,,,,,,,,,,,,,,,,,,,,,,
,,,,,,3,0,3,0,1,X V Q F H G B L J M P D K C T S W R N Z,5ff743fd88a5713bd0d00583,28,Mężczyzna,2022-06-11_09h22.27.876,task,2021.1.4,Win32,60.0240096,6299f149e92ead563fba08ef,62a442965cf365a46289af1a,,,,,,,,,,,,,,,,,,,,,,,,,,,,,,,,,,,,,,,,,,,,,,,,,,,,,,,,,,,,,,,,,,,,,,,,,,,,,,,,,,,,,,,,,,,,,,,,,,,,,
,,,,,,4,0,4,0,1,X V Q F H G B L J M P D K C T S W R N Z,5ff743fd88a5713bd0d00583,28,Mężczyzna,2022-06-11_09h22.27.876,task,2021.1.4,Win32,60.0240096,6299f149e92ead563fba08ef,62a442965cf365a46289af1a,,,,,,,,,,,,,,,,,,,,,,,,,,,,,,,,,,,,,,,,,,,,,,,,,,,,,,,,,,,,,,,,,,,,,,,,,,,,,,,,,,,,,,,,,,,,,,,,,,,,,
,,,,,,5,0,5,0,1,X V Q F H G B L J M P D K C T S W R N Z,5ff743fd88a5713bd0d00583,28,Mężczyzna,2022-06-11_09h22.27.876,task,2021.1.4,Win32,60.0240096,6299f149e92ead563fba08ef,62a442965cf365a46289af1a,,,,,,,,,,,,,,,,,,,,,,,,,,,,,,,,,,,,,,,,,,,,,,,,,,,,,,,,,,,,,,,,,,,,,,,,,,,,,,,,,,,,,,,,,,,,,,,,,,,,,
,,,,,,6,0,6,0,1,X V Q F H G B L J M P D K C T S W R N Z,5ff743fd88a5713bd0d00583,28,Mężczyzna,2022-06-11_09h22.27.876,task,2021.1.4,Win32,60.0240096,6299f149e92ead563fba08ef,62a442965cf365a46289af1a,,,,,,,,,,,,,,,,,,,,,,,,,,,,,,,,,,,,,,,,,,,,,,,,,,,,,,,,,,,,,,,,,,,,,,,,,,,,,,,,,,,,,,,,,,,,,,,,,,,,,
,,,,,,,,,,,,5ff743fd88a5713bd0d00583,28,Mężczyzna,2022-06-11_09h22.27.876,task,2021.1.4,Win32,60.0240096,6299f149e92ead563fba08ef,62a442965cf365a46289af1a,zrrzslp,"[""z"",""r"",""r"",""z"",""s"",""l"",""p""]","[2.230000000000018,2.5600000000000023,2.742999999999995,2.9950000000000045,4.131000000000029,4.7450000000000045,5.027000000000044,5.713999999999999]",1,ZRRZSLP,12,0,12,0,1,,,,,,,,,,,,,,,,,,,,,,,,,,,,,,,,,,,,,,,,,,,,,,,,,,,,,,,,,,,,,,,,,,,,,,,,,,,,,,,,,,,,,,,,,,,
,,,,,,0,0,0,0,1,X V Q F H G B L J M P D K C T S W R N Z,5ff743fd88a5713bd0d00583,28,Mężczyzna,2022-06-11_09h22.27.876,task,2021.1.4,Win32,60.0240096,6299f149e92ead563fba08ef,62a442965cf365a46289af1a,,,,,,,,,,,,,,,,,,,,,,,,,,,,,,,,,,,,,,,,,,,,,,,,,,,,,,,,,,,,,,,,,,,,,,,,,,,,,,,,,,,,,,,,,,,,,,,,,,,,,
,,,,,,1,0,1,0,1,X V Q F H G B L J M P D K C T S W R N Z,5ff743fd88a5713bd0d00583,28,Mężczyzna,2022-06-11_09h22.27.876,task,2021.1.4,Win32,60.0240096,6299f149e92ead563fba08ef,62a442965cf365a46289af1a,,,,,,,,,,,,,,,,,,,,,,,,,,,,,,,,,,,,,,,,,,,,,,,,,,,,,,,,,,,,,,,,,,,,,,,,,,,,,,,,,,,,,,,,,,,,,,,,,,,,,
,,,,,,2,0,2,0,1,X V Q F H G B L J M P D K C T S W R N Z,5ff743fd88a5713bd0d00583,28,Mężczyzna,2022-06-11_09h22.27.876,task,2021.1.4,Win32,60.0240096,6299f149e92ead563fba08ef,62a442965cf365a46289af1a,,,,,,,,,,,,,,,,,,,,,,,,,,,,,,,,,,,,,,,,,,,,,,,,,,,,,,,,,,,,,,,,,,,,,,,,,,,,,,,,,,,,,,,,,,,,,,,,,,,,,
,,,,,,3,0,3,0,1,X V Q F H G B L J M P D K C T S W R N Z,5ff743fd88a5713bd0d00583,28,Mężczyzna,2022-06-11_09h22.27.876,task,2021.1.4,Win32,60.0240096,6299f149e92ead563fba08ef,62a442965cf365a46289af1a,,,,,,,,,,,,,,,,,,,,,,,,,,,,,,,,,,,,,,,,,,,,,,,,,,,,,,,,,,,,,,,,,,,,,,,,,,,,,,,,,,,,,,,,,,,,,,,,,,,,,
,,,,,,4,0,4,0,1,X V Q F H G B L J M P D K C T S W R N Z,5ff743fd88a5713bd0d00583,28,Mężczyzna,2022-06-11_09h22.27.876,task,2021.1.4,Win32,60.0240096,6299f149e92ead563fba08ef,62a442965cf365a46289af1a,,,,,,,,,,,,,,,,,,,,,,,,,,,,,,,,,,,,,,,,,,,,,,,,,,,,,,,,,,,,,,,,,,,,,,,,,,,,,,,,,,,,,,,,,,,,,,,,,,,,,
,,,,,,5,0,5,0,1,X V Q F H G B L J M P D K C T S W R N Z,5ff743fd88a5713bd0d00583,28,Mężczyzna,2022-06-11_09h22.27.876,task,2021.1.4,Win32,60.0240096,6299f149e92ead563fba08ef,62a442965cf365a46289af1a,,,,,,,,,,,,,,,,,,,,,,,,,,,,,,,,,,,,,,,,,,,,,,,,,,,,,,,,,,,,,,,,,,,,,,,,,,,,,,,,,,,,,,,,,,,,,,,,,,,,,
,,,,,,6,0,6,0,1,X V Q F H G B L J M P D K C T S W R N Z,5ff743fd88a5713bd0d00583,28,Mężczyzna,2022-06-11_09h22.27.876,task,2021.1.4,Win32,60.0240096,6299f149e92ead563fba08ef,62a442965cf365a46289af1a,,,,,,,,,,,,,,,,,,,,,,,,,,,,,,,,,,,,,,,,,,,,,,,,,,,,,,,,,,,,,,,,,,,,,,,,,,,,,,,,,,,,,,,,,,,,,,,,,,,,,
,,,,,,,,,,,,5ff743fd88a5713bd0d00583,28,Mężczyzna,2022-06-11_09h22.27.876,task,2021.1.4,Win32,60.0240096,6299f149e92ead563fba08ef,62a442965cf365a46289af1a,csbblsm,"[""c"",""s"",""b"",""b"",""l"",""s"",""m""]","[1.6499999999999773,1.964999999999975,3.01400000000001,3.1989999999999554,3.5989999999999895,4.365000000000009,5.09699999999998,5.529999999999973]",1,CSBBLSM,13,0,13,0,1,,,,,,,,,,,,,,,,,,,,,,,,,,,,,,,,,,,,,,,,,,,,,,,,,,,,,,,,,,,,,,,,,,,,,,,,,,,,,,,,,,,,,,,,,,,
,,,,,,0,0,0,0,1,X V Q F H G B L J M P D K C T S W R N Z,5ff743fd88a5713bd0d00583,28,Mężczyzna,2022-06-11_09h22.27.876,task,2021.1.4,Win32,60.0240096,6299f149e92ead563fba08ef,62a442965cf365a46289af1a,,,,,,,,,,,,,,,,,,,,,,,,,,,,,,,,,,,,,,,,,,,,,,,,,,,,,,,,,,,,,,,,,,,,,,,,,,,,,,,,,,,,,,,,,,,,,,,,,,,,,
,,,,,,1,0,1,0,1,X V Q F H G B L J M P D K C T S W R N Z,5ff743fd88a5713bd0d00583,28,Mężczyzna,2022-06-11_09h22.27.876,task,2021.1.4,Win32,60.0240096,6299f149e92ead563fba08ef,62a442965cf365a46289af1a,,,,,,,,,,,,,,,,,,,,,,,,,,,,,,,,,,,,,,,,,,,,,,,,,,,,,,,,,,,,,,,,,,,,,,,,,,,,,,,,,,,,,,,,,,,,,,,,,,,,,
,,,,,,2,0,2,0,1,X V Q F H G B L J M P D K C T S W R N Z,5ff743fd88a5713bd0d00583,28,Mężczyzna,2022-06-11_09h22.27.876,task,2021.1.4,Win32,60.0240096,6299f149e92ead563fba08ef,62a442965cf365a46289af1a,,,,,,,,,,,,,,,,,,,,,,,,,,,,,,,,,,,,,,,,,,,,,,,,,,,,,,,,,,,,,,,,,,,,,,,,,,,,,,,,,,,,,,,,,,,,,,,,,,,,,
,,,,,,3,0,3,0,1,X V Q F H G B L J M P D K C T S W R N Z,5ff743fd88a5713bd0d00583,28,Mężczyzna,2022-06-11_09h22.27.876,task,2021.1.4,Win32,60.0240096,6299f149e92ead563fba08ef,62a442965cf365a46289af1a,,,,,,,,,,,,,,,,,,,,,,,,,,,,,,,,,,,,,,,,,,,,,,,,,,,,,,,,,,,,,,,,,,,,,,,,,,,,,,,,,,,,,,,,,,,,,,,,,,,,,
,,,,,,4,0,4,0,1,X V Q F H G B L J M P D K C T S W R N Z,5ff743fd88a5713bd0d00583,28,Mężczyzna,2022-06-11_09h22.27.876,task,2021.1.4,Win32,60.0240096,6299f149e92ead563fba08ef,62a442965cf365a46289af1a,,,,,,,,,,,,,,,,,,,,,,,,,,,,,,,,,,,,,,,,,,,,,,,,,,,,,,,,,,,,,,,,,,,,,,,,,,,,,,,,,,,,,,,,,,,,,,,,,,,,,
,,,,,,5,0,5,0,1,X V Q F H G B L J M P D K C T S W R N Z,5ff743fd88a5713bd0d00583,28,Mężczyzna,2022-06-11_09h22.27.876,task,2021.1.4,Win32,60.0240096,6299f149e92ead563fba08ef,62a442965cf365a46289af1a,,,,,,,,,,,,,,,,,,,,,,,,,,,,,,,,,,,,,,,,,,,,,,,,,,,,,,,,,,,,,,,,,,,,,,,,,,,,,,,,,,,,,,,,,,,,,,,,,,,,,
,,,,,,6,0,6,0,1,X V Q F H G B L J M P D K C T S W R N Z,5ff743fd88a5713bd0d00583,28,Mężczyzna,2022-06-11_09h22.27.876,task,2021.1.4,Win32,60.0240096,6299f149e92ead563fba08ef,62a442965cf365a46289af1a,,,,,,,,,,,,,,,,,,,,,,,,,,,,,,,,,,,,,,,,,,,,,,,,,,,,,,,,,,,,,,,,,,,,,,,,,,,,,,,,,,,,,,,,,,,,,,,,,,,,,
,,,,,,7,0,7,0,1,X V Q F H G B L J M P D K C T S W R N Z,5ff743fd88a5713bd0d00583,28,Mężczyzna,2022-06-11_09h22.27.876,task,2021.1.4,Win32,60.0240096,6299f149e92ead563fba08ef,62a442965cf365a46289af1a,,,,,,,,,,,,,,,,,,,,,,,,,,,,,,,,,,,,,,,,,,,,,,,,,,,,,,,,,,,,,,,,,,,,,,,,,,,,,,,,,,,,,,,,,,,,,,,,,,,,,
,,,,,,,,,,,,5ff743fd88a5713bd0d00583,28,Mężczyzna,2022-06-11_09h22.27.876,task,2021.1.4,Win32,60.0240096,6299f149e92ead563fba08ef,62a442965cf365a46289af1a,ljzmszdm,"[""l"",""j"",""z"",""m"",""s"",""z"",""d"",""m""]","[2.2339999999999804,2.6850000000000023,3.4669999999999845,4,4.815999999999974,4.915999999999997,8.76600000000002,11.766999999999996,12.129999999999995]",0,LJZMSZDH,14,0,14,0,1,,,,,,,,,,,,,,,,,,,,,,,,,,,,,,,,,,,,,,,,,,,,,,,,,,,,,,,,,,,,,,,,,,,,,,,,,,,,,,,,,,,,,,,,,,,
,,,,,,0,0,0,0,1,X V Q F H G B L J M P D K C T S W R N Z,5ff743fd88a5713bd0d00583,28,Mężczyzna,2022-06-11_09h22.27.876,task,2021.1.4,Win32,60.0240096,6299f149e92ead563fba08ef,62a442965cf365a46289af1a,,,,,,,,,,,,,,,,,,,,,,,,,,,,,,,,,,,,,,,,,,,,,,,,,,,,,,,,,,,,,,,,,,,,,,,,,,,,,,,,,,,,,,,,,,,,,,,,,,,,,
,,,,,,1,0,1,0,1,X V Q F H G B L J M P D K C T S W R N Z,5ff743fd88a5713bd0d00583,28,Mężczyzna,2022-06-11_09h22.27.876,task,2021.1.4,Win32,60.0240096,6299f149e92ead563fba08ef,62a442965cf365a46289af1a,,,,,,,,,,,,,,,,,,,,,,,,,,,,,,,,,,,,,,,,,,,,,,,,,,,,,,,,,,,,,,,,,,,,,,,,,,,,,,,,,,,,,,,,,,,,,,,,,,,,,
,,,,,,2,0,2,0,1,X V Q F H G B L J M P D K C T S W R N Z,5ff743fd88a5713bd0d00583,28,Mężczyzna,2022-06-11_09h22.27.876,task,2021.1.4,Win32,60.0240096,6299f149e92ead563fba08ef,62a442965cf365a46289af1a,,,,,,,,,,,,,,,,,,,,,,,,,,,,,,,,,,,,,,,,,,,,,,,,,,,,,,,,,,,,,,,,,,,,,,,,,,,,,,,,,,,,,,,,,,,,,,,,,,,,,
,,,,,,3,0,3,0,1,X V Q F H G B L J M P D K C T S W R N Z,5ff743fd88a5713bd0d00583,28,Mężczyzna,2022-06-11_09h22.27.876,task,2021.1.4,Win32,60.0240096,6299f149e92ead563fba08ef,62a442965cf365a46289af1a,,,,,,,,,,,,,,,,,,,,,,,,,,,,,,,,,,,,,,,,,,,,,,,,,,,,,,,,,,,,,,,,,,,,,,,,,,,,,,,,,,,,,,,,,,,,,,,,,,,,,
,,,,,,4,0,4,0,1,X V Q F H G B L J M P D K C T S W R N Z,5ff743fd88a5713bd0d00583,28,Mężczyzna,2022-06-11_09h22.27.876,task,2021.1.4,Win32,60.0240096,6299f149e92ead563fba08ef,62a442965cf365a46289af1a,,,,,,,,,,,,,,,,,,,,,,,,,,,,,,,,,,,,,,,,,,,,,,,,,,,,,,,,,,,,,,,,,,,,,,,,,,,,,,,,,,,,,,,,,,,,,,,,,,,,,
,,,,,,5,0,5,0,1,X V Q F H G B L J M P D K C T S W R N Z,5ff743fd88a5713bd0d00583,28,Mężczyzna,2022-06-11_09h22.27.876,task,2021.1.4,Win32,60.0240096,6299f149e92ead563fba08ef,62a442965cf365a46289af1a,,,,,,,,,,,,,,,,,,,,,,,,,,,,,,,,,,,,,,,,,,,,,,,,,,,,,,,,,,,,,,,,,,,,,,,,,,,,,,,,,,,,,,,,,,,,,,,,,,,,,
,,,,,,6,0,6,0,1,X V Q F H G B L J M P D K C T S W R N Z,5ff743fd88a5713bd0d00583,28,Mężczyzna,2022-06-11_09h22.27.876,task,2021.1.4,Win32,60.0240096,6299f149e92ead563fba08ef,62a442965cf365a46289af1a,,,,,,,,,,,,,,,,,,,,,,,,,,,,,,,,,,,,,,,,,,,,,,,,,,,,,,,,,,,,,,,,,,,,,,,,,,,,,,,,,,,,,,,,,,,,,,,,,,,,,
,,,,,,7,0,7,0,1,X V Q F H G B L J M P D K C T S W R N Z,5ff743fd88a5713bd0d00583,28,Mężczyzna,2022-06-11_09h22.27.876,task,2021.1.4,Win32,60.0240096,6299f149e92ead563fba08ef,62a442965cf365a46289af1a,,,,,,,,,,,,,,,,,,,,,,,,,,,,,,,,,,,,,,,,,,,,,,,,,,,,,,,,,,,,,,,,,,,,,,,,,,,,,,,,,,,,,,,,,,,,,,,,,,,,,
,,,,,,,,,,,,5ff743fd88a5713bd0d00583,28,Mężczyzna,2022-06-11_09h22.27.876,task,2021.1.4,Win32,60.0240096,6299f149e92ead563fba08ef,62a442965cf365a46289af1a,mzqvbcvx,"[""m"",""z"",""q"",""v"",""b"",""c"",""v"",""x""]","[2.0500000000000114,2.7409999999999854,3.5810000000000173,4.066000000000031,4.4669999999999845,5.5989999999999895,6.249000000000024,6.918000000000006,7.617999999999995]",0,MZQWBCVX,15,0,15,0,1,,,,,,,,,,,,,,,,,,,,,,,,,,,,,,,,,,,,,,,,,,,,,,,,,,,,,,,,,,,,,,,,,,,,,,,,,,,,,,,,,,,,,,,,,,,
,,,,,,0,0,0,0,1,X V Q F H G B L J M P D K C T S W R N Z,5ff743fd88a5713bd0d00583,28,Mężczyzna,2022-06-11_09h22.27.876,task,2021.1.4,Win32,60.0240096,6299f149e92ead563fba08ef,62a442965cf365a46289af1a,,,,,,,,,,,,,,,,,,,,,,,,,,,,,,,,,,,,,,,,,,,,,,,,,,,,,,,,,,,,,,,,,,,,,,,,,,,,,,,,,,,,,,,,,,,,,,,,,,,,,
,,,,,,1,0,1,0,1,X V Q F H G B L J M P D K C T S W R N Z,5ff743fd88a5713bd0d00583,28,Mężczyzna,2022-06-11_09h22.27.876,task,2021.1.4,Win32,60.0240096,6299f149e92ead563fba08ef,62a442965cf365a46289af1a,,,,,,,,,,,,,,,,,,,,,,,,,,,,,,,,,,,,,,,,,,,,,,,,,,,,,,,,,,,,,,,,,,,,,,,,,,,,,,,,,,,,,,,,,,,,,,,,,,,,,
,,,,,,2,0,2,0,1,X V Q F H G B L J M P D K C T S W R N Z,5ff743fd88a5713bd0d00583,28,Mężczyzna,2022-06-11_09h22.27.876,task,2021.1.4,Win32,60.0240096,6299f149e92ead563fba08ef,62a442965cf365a46289af1a,,,,,,,,,,,,,,,,,,,,,,,,,,,,,,,,,,,,,,,,,,,,,,,,,,,,,,,,,,,,,,,,,,,,,,,,,,,,,,,,,,,,,,,,,,,,,,,,,,,,,
,,,,,,3,0,3,0,1,X V Q F H G B L J M P D K C T S W R N Z,5ff743fd88a5713bd0d00583,28,Mężczyzna,2022-06-11_09h22.27.876,task,2021.1.4,Win32,60.0240096,6299f149e92ead563fba08ef,62a442965cf365a46289af1a,,,,,,,,,,,,,,,,,,,,,,,,,,,,,,,,,,,,,,,,,,,,,,,,,,,,,,,,,,,,,,,,,,,,,,,,,,,,,,,,,,,,,,,,,,,,,,,,,,,,,
,,,,,,4,0,4,0,1,X V Q F H G B L J M P D K C T S W R N Z,5ff743fd88a5713bd0d00583,28,Mężczyzna,2022-06-11_09h22.27.876,task,2021.1.4,Win32,60.0240096,6299f149e92ead563fba08ef,62a442965cf365a46289af1a,,,,,,,,,,,,,,,,,,,,,,,,,,,,,,,,,,,,,,,,,,,,,,,,,,,,,,,,,,,,,,,,,,,,,,,,,,,,,,,,,,,,,,,,,,,,,,,,,,,,,
,,,,,,5,0,5,0,1,X V Q F H G B L J M P D K C T S W R N Z,5ff743fd88a5713bd0d00583,28,Mężczyzna,2022-06-11_09h22.27.876,task,2021.1.4,Win32,60.0240096,6299f149e92ead563fba08ef,62a442965cf365a46289af1a,,,,,,,,,,,,,,,,,,,,,,,,,,,,,,,,,,,,,,,,,,,,,,,,,,,,,,,,,,,,,,,,,,,,,,,,,,,,,,,,,,,,,,,,,,,,,,,,,,,,,
,,,,,,6,0,6,0,1,X V Q F H G B L J M P D K C T S W R N Z,5ff743fd88a5713bd0d00583,28,Mężczyzna,2022-06-11_09h22.27.876,task,2021.1.4,Win32,60.0240096,6299f149e92ead563fba08ef,62a442965cf365a46289af1a,,,,,,,,,,,,,,,,,,,,,,,,,,,,,,,,,,,,,,,,,,,,,,,,,,,,,,,,,,,,,,,,,,,,,,,,,,,,,,,,,,,,,,,,,,,,,,,,,,,,,
,,,,,,7,0,7,0,1,X V Q F H G B L J M P D K C T S W R N Z,5ff743fd88a5713bd0d00583,28,Mężczyzna,2022-06-11_09h22.27.876,task,2021.1.4,Win32,60.0240096,6299f149e92ead563fba08ef,62a442965cf365a46289af1a,,,,,,,,,,,,,,,,,,,,,,,,,,,,,,,,,,,,,,,,,,,,,,,,,,,,,,,,,,,,,,,,,,,,,,,,,,,,,,,,,,,,,,,,,,,,,,,,,,,,,
,,,,,,,,,,,,5ff743fd88a5713bd0d00583,28,Mężczyzna,2022-06-11_09h22.27.876,task,2021.1.4,Win32,60.0240096,6299f149e92ead563fba08ef,62a442965cf365a46289af1a,mjwtjllr,"[""m"",""j"",""w"",""t"",""j"",""l"",""l"",""r""]","[1.5970000000000368,1.7320000000000277,2.413000000000011,2.941000000000031,3.6469999999999914,4.346000000000004,4.533999999999992,5.396999999999991,6.080000000000041]",1,MJWTJLLR,16,0,16,0,1,,,,,,,,,,,,,,,,,,,,,,,,,,,,,,,,,,,,,,,,,,,,,,,,,,,,,,,,,,,,,,,,,,,,,,,,,,,,,,,,,,,,,,,,,,,
,,,,,,0,0,0,0,1,X V Q F H G B L J M P D K C T S W R N Z,5ff743fd88a5713bd0d00583,28,Mężczyzna,2022-06-11_09h22.27.876,task,2021.1.4,Win32,60.0240096,6299f149e92ead563fba08ef,62a442965cf365a46289af1a,,,,,,,,,,,,,,,,,,,,,,,,,,,,,,,,,,,,,,,,,,,,,,,,,,,,,,,,,,,,,,,,,,,,,,,,,,,,,,,,,,,,,,,,,,,,,,,,,,,,,
,,,,,,1,0,1,0,1,X V Q F H G B L J M P D K C T S W R N Z,5ff743fd88a5713bd0d00583,28,Mężczyzna,2022-06-11_09h22.27.876,task,2021.1.4,Win32,60.0240096,6299f149e92ead563fba08ef,62a442965cf365a46289af1a,,,,,,,,,,,,,,,,,,,,,,,,,,,,,,,,,,,,,,,,,,,,,,,,,,,,,,,,,,,,,,,,,,,,,,,,,,,,,,,,,,,,,,,,,,,,,,,,,,,,,
,,,,,,2,0,2,0,1,X V Q F H G B L J M P D K C T S W R N Z,5ff743fd88a5713bd0d00583,28,Mężczyzna,2022-06-11_09h22.27.876,task,2021.1.4,Win32,60.0240096,6299f149e92ead563fba08ef,62a442965cf365a46289af1a,,,,,,,,,,,,,,,,,,,,,,,,,,,,,,,,,,,,,,,,,,,,,,,,,,,,,,,,,,,,,,,,,,,,,,,,,,,,,,,,,,,,,,,,,,,,,,,,,,,,,
,,,,,,3,0,3,0,1,X V Q F H G B L J M P D K C T S W R N Z,5ff743fd88a5713bd0d00583,28,Mężczyzna,2022-06-11_09h22.27.876,task,2021.1.4,Win32,60.0240096,6299f149e92ead563fba08ef,62a442965cf365a46289af1a,,,,,,,,,,,,,,,,,,,,,,,,,,,,,,,,,,,,,,,,,,,,,,,,,,,,,,,,,,,,,,,,,,,,,,,,,,,,,,,,,,,,,,,,,,,,,,,,,,,,,
,,,,,,4,0,4,0,1,X V Q F H G B L J M P D K C T S W R N Z,5ff743fd88a5713bd0d00583,28,Mężczyzna,2022-06-11_09h22.27.876,task,2021.1.4,Win32,60.0240096,6299f149e92ead563fba08ef,62a442965cf365a46289af1a,,,,,,,,,,,,,,,,,,,,,,,,,,,,,,,,,,,,,,,,,,,,,,,,,,,,,,,,,,,,,,,,,,,,,,,,,,,,,,,,,,,,,,,,,,,,,,,,,,,,,
,,,,,,5,0,5,0,1,X V Q F H G B L J M P D K C T S W R N Z,5ff743fd88a5713bd0d00583,28,Mężczyzna,2022-06-11_09h22.27.876,task,2021.1.4,Win32,60.0240096,6299f149e92ead563fba08ef,62a442965cf365a46289af1a,,,,,,,,,,,,,,,,,,,,,,,,,,,,,,,,,,,,,,,,,,,,,,,,,,,,,,,,,,,,,,,,,,,,,,,,,,,,,,,,,,,,,,,,,,,,,,,,,,,,,
,,,,,,6,0,6,0,1,X V Q F H G B L J M P D K C T S W R N Z,5ff743fd88a5713bd0d00583,28,Mężczyzna,2022-06-11_09h22.27.876,task,2021.1.4,Win32,60.0240096,6299f149e92ead563fba08ef,62a442965cf365a46289af1a,,,,,,,,,,,,,,,,,,,,,,,,,,,,,,,,,,,,,,,,,,,,,,,,,,,,,,,,,,,,,,,,,,,,,,,,,,,,,,,,,,,,,,,,,,,,,,,,,,,,,
,,,,,,7,0,7,0,1,X V Q F H G B L J M P D K C T S W R N Z,5ff743fd88a5713bd0d00583,28,Mężczyzna,2022-06-11_09h22.27.876,task,2021.1.4,Win32,60.0240096,6299f149e92ead563fba08ef,62a442965cf365a46289af1a,,,,,,,,,,,,,,,,,,,,,,,,,,,,,,,,,,,,,,,,,,,,,,,,,,,,,,,,,,,,,,,,,,,,,,,,,,,,,,,,,,,,,,,,,,,,,,,,,,,,,
,,,,,,,,,,,,5ff743fd88a5713bd0d00583,28,Mężczyzna,2022-06-11_09h22.27.876,task,2021.1.4,Win32,60.0240096,6299f149e92ead563fba08ef,62a442965cf365a46289af1a,dxnngdpsg,"[""d"",""x"",""n"",""n"",""g"",""d"",""p"",""s"",""g""]","[2.25,2.7339999999999804,4.913999999999987,5.099999999999966,6.350999999999999,7.31699999999995,8.08299999999997,8.664999999999964,10.651999999999987,11.151999999999987]",0,BXGNDPSB,17,0,17,0,1,,,,,,,,,,,,,,,,,,,,,,,,,,,,,,,,,,,,,,,,,,,,,,,,,,,,,,,,,,,,,,,,,,,,,,,,,,,,,,,,,,,,,,,,,,,
,,,,,,,,,,,,5ff743fd88a5713bd0d00583,28,Mężczyzna,2022-06-11_09h22.27.876,task,2021.1.4,Win32,60.0240096,6299f149e92ead563fba08ef,62a442965cf365a46289af1a,,,,,,,,,,,space,13.048,6,"[""6""]",1,[4.236999999999966],[4.236999999999966],0,0,0,6,1,Practice,7,(25/5) + 1,6,,,,,,,,,,,,,,,,,,,,,,,,,,,,,,,,,,,,,,,,,,,,,,,,,,,,,,,,,,,,,,,,,,,,,,,,,,,
,,,,,,,,,,,,5ff743fd88a5713bd0d00583,28,Mężczyzna,2022-06-11_09h22.27.876,task,2021.1.4,Win32,60.0240096,6299f149e92ead563fba08ef,62a442965cf365a46289af1a,,,,,,,,,,,,,9,"[""9""]",1,[2.3179999999999836],"[4.236999999999966,2.3179999999999836]",0,1,1,9,1,Practice,10,(20/2) - 1,9,,,,,,,,,,,,,,,,,,,,,,,,,,,,,,,,,,,,,,,,,,,,,,,,,,,,,,,,,,,,,,,,,,,,,,,,,,,
,,,,,,,,,,,,5ff743fd88a5713bd0d00583,28,Mężczyzna,2022-06-11_09h22.27.876,task,2021.1.4,Win32,60.0240096,6299f149e92ead563fba08ef,62a442965cf365a46289af1a,,,,,,,,,,,,,2,"[""2""]",1,[1.8500000000000227],"[4.236999999999966,2.3179999999999836,1.8500000000000227]",0,2,2,2,1,Practice,3,(4x4) - 14,2,,,,,,,,,,,,,,,,,,,,,,,,,,,,,,,,,,,,,,,,,,,,,,,,,,,,,,,,,,,,,,,,,,,,,,,,,,,
,,,,,,,,,,,,5ff743fd88a5713bd0d00583,28,Mężczyzna,2022-06-11_09h22.27.876,task,2021.1.4,Win32,60.0240096,6299f149e92ead563fba08ef,62a442965cf365a46289af1a,,,,,,,,,,,,,0,"[""0""]",1,[1.816000000000031],"[4.236999999999966,2.3179999999999836,1.8500000000000227,1.816000000000031]",0,3,3,0,1,Practice,1,(3x3) -  9,0,,,,,,,,,,,,,,,,,,,,,,,,,,,,,,,,,,,,,,,,,,,,,,,,,,,,,,,,,,,,,,,,,,,,,,,,,,,
,,,,,,,,,,,,5ff743fd88a5713bd0d00583,28,Mężczyzna,2022-06-11_09h22.27.876,task,2021.1.4,Win32,60.0240096,6299f149e92ead563fba08ef,62a442965cf365a46289af1a,,,,,,,,,,,,,4,"[""4""]",1,[2.701999999999998],"[4.236999999999966,2.3179999999999836,1.8500000000000227,1.816000000000031,2.701999999999998]",0,4,4,4,1,Practice,5,(2x6) - 8,4,,,,,,,,,,,,,,,,,,,,,,,,,,,,,,,,,,,,,,,,,,,,,,,,,,,,,,,,,,,,,,,,,,,,,,,,,,,
,,,,,,,,,,,,5ff743fd88a5713bd0d00583,28,Mężczyzna,2022-06-11_09h22.27.876,task,2021.1.4,Win32,60.0240096,6299f149e92ead563fba08ef,62a442965cf365a46289af1a,,,,,,,,,,,,,8,"[""8""]",1,[1.636000000000024],"[4.236999999999966,2.3179999999999836,1.8500000000000227,1.816000000000031,2.701999999999998,1.636000000000024]",0,5,5,8,1,Practice,9,(3x3) - 1,8,,,,,,,,,,,,,,,,,,,,,,,,,,,,,,,,,,,,,,,,,,,,,,,,,,,,,,,,,,,,,,,,,,,,,,,,,,,
,,,,,,,,,,,,5ff743fd88a5713bd0d00583,28,Mężczyzna,2022-06-11_09h22.27.876,task,2021.1.4,Win32,60.0240096,6299f149e92ead563fba08ef,62a442965cf365a46289af1a,,,,,,,,,,,,,3,"[""3""]",1,[1.7169999999999845],"[4.236999999999966,2.3179999999999836,1.8500000000000227,1.816000000000031,2.701999999999998,1.636000000000024,1.7169999999999845]",0,6,6,3,1,Practice,4,(8/4) + 1,3,,,,,,,,,,,,,,,,,,,,,,,,,,,,,,,,,,,,,,,,,,,,,,,,,,,,,,,,,,,,,,,,,,,,,,,,,,,
,,,,,,,,,,,,5ff743fd88a5713bd0d00583,28,Mężczyzna,2022-06-11_09h22.27.876,task,2021.1.4,Win32,60.0240096,6299f149e92ead563fba08ef,62a442965cf365a46289af1a,,,,,,,,,,,,,5,"[""5""]",0,[5.067999999999984],"[4.236999999999966,2.3179999999999836,1.8500000000000227,1.816000000000031,2.701999999999998,1.636000000000024,1.7169999999999845,5.067999999999984]",0,7,7,7,1,Practice,8,(5x5) - 18,7,,,,,,,,,,,,,,,,,,,,,,,,,,,,,,,,,,,,,,,,,,,,,,,,,,,,,,,,,,,,,,,,,,,,,,,,,,,
,,,,,,,,,,,,5ff743fd88a5713bd0d00583,28,Mężczyzna,2022-06-11_09h22.27.876,task,2021.1.4,Win32,60.0240096,6299f149e92ead563fba08ef,62a442965cf365a46289af1a,,,,,,,,,,,,,5,"[""5""]",1,[3.8009999999999877],"[4.236999999999966,2.3179999999999836,1.8500000000000227,1.816000000000031,2.701999999999998,1.636000000000024,1.7169999999999845,5.067999999999984,3.8009999999999877]",0,8,8,5,1,Practice,6,(4/2) + 3,5,,,,,,,,,,,,,,,,,,,,,,,,,,,,,,,,,,,,,,,,,,,,,,,,,,,,,,,,,,,,,,,,,,,,,,,,,,,
,,,,,,,,,,,,5ff743fd88a5713bd0d00583,28,Mężczyzna,2022-06-11_09h22.27.876,task,2021.1.4,Win32,60.0240096,6299f149e92ead563fba08ef,62a442965cf365a46289af1a,,,,,,,,,,,,,1,"[""1""]",1,[1.8319999999999936],"[4.236999999999966,2.3179999999999836,1.8500000000000227,1.816000000000031,2.701999999999998,1.636000000000024,1.7169999999999845,5.067999999999984,3.8009999999999877,1.8319999999999936]",0,9,9,1,1,Practice,2,(4x4) - 15,1,,,,,,,,,,,,,,,,,,,,,,,,,,,,,,,,,,,,,,,,,,,,,,,,,,,,,,,,,,,,,,,,,,,,,,,,,,,
,,,,,,,,,,,,5ff743fd88a5713bd0d00583,28,Mężczyzna,2022-06-11_09h22.27.876,task,2021.1.4,Win32,60.0240096,6299f149e92ead563fba08ef,62a442965cf365a46289af1a,,,,,,,,,,,,,,,,,,,,,,,,,,,0.9,26.977,1.798466667,21.76983998,1.20470854,4.906614699,space,1.784,0,0,0,0,1,,,,,,,,,,,,,,,,,,,,,,,,,,,,,,,,,,,,,,,,,,,,,,,,,,,,,,,,,,,,,,
,,,,,,,,,,,,5ff743fd88a5713bd0d00583,28,Mężczyzna,2022-06-11_09h22.27.876,task,2021.1.4,Win32,60.0240096,6299f149e92ead563fba08ef,62a442965cf365a46289af1a,,,,,,,,,,,,,3,,,,,,,,,,Practice,4,(8/4) + 1,3,,,,,,,,,,,,,,space,124.576,"[""3""]",1,[3.9689999999999372],1,0,0,0,3,1,,,,,,,,,,,,,,,,,,,,,,,,,,,,,,,,,,,,,,,,,,,,,,,,,,,
,,,,,,,,,,,X V Q F H G B L J M P D K C T S W R N Z,5ff743fd88a5713bd0d00583,28,Mężczyzna,2022-06-11_09h22.27.876,task,2021.1.4,Win32,60.0240096,6299f149e92ead563fba08ef,62a442965cf365a46289af1a,,,,,,,,,,,,,,,,,,,,,,,,,,,,,,,,,,,,,,,,,,,,,,,,,,,0,0,0,0,1,,,,,,,,,,,,,,,,,,,,,,,,,,,,,,,,,,,,,,,,,,,,,,
,,,,,,,,,,,,5ff743fd88a5713bd0d00583,28,Mężczyzna,2022-06-11_09h22.27.876,task,2021.1.4,Win32,60.0240096,6299f149e92ead563fba08ef,62a442965cf365a46289af1a,,,,,,,,,,,,,0,,,,,,,,,,Practice,1,(3x3) -  9,0,,,,,,,,,,,,,,,,"[""0""]",1,[1.8980000000000246],1,0,0,0,0,1,,,,,,,,,,,,,,,,,,,,,,,,,,,,,,,,,,,,,,,,,,,,,,,,,,,
,,,,,,,,,,,X V Q F H G B L J M P D K C T S W R N Z,5ff743fd88a5713bd0d00583,28,Mężczyzna,2022-06-11_09h22.27.876,task,2021.1.4,Win32,60.0240096,6299f149e92ead563fba08ef,62a442965cf365a46289af1a,,,,,,,,,,,,,,,,,,,,,,,,,,,,,,,,,,,,,,,,,,,,,,,,,,,1,0,1,0,1,,,,,,,,,,,,,,,,,,,,,,,,,,,,,,,,,,,,,,,,,,,,,,
,,,,,,,,,,,,5ff743fd88a5713bd0d00583,28,Mężczyzna,2022-06-11_09h22.27.876,task,2021.1.4,Win32,60.0240096,6299f149e92ead563fba08ef,62a442965cf365a46289af1a,,,,,,,,,,,,,,,,,,,,,,,,,,,,,,,,,,,,,,,,,,,,,,,,,,,,,,,,zg,"[""z"",""g""]",0,"[2.1700000000000728,2.548000000000002,4.09800000000007]",1,0,0,0,0,1,,,,,,,,,,,,,,,,,,,,,,,,,,,,,,,,,,,,
,,,,,,,,,,,,5ff743fd88a5713bd0d00583,28,Mężczyzna,2022-06-11_09h22.27.876,task,2021.1.4,Win32,60.0240096,6299f149e92ead563fba08ef,62a442965cf365a46289af1a,,,,,,,,,,,,,6,,,,,,,,,,Practice,7,(25/5) + 1,6,,,,,,,,,,,,,,,,"[""6""]",1,[1.7670000000000528],1,0,0,0,6,1,,,,,,,,,,,,,,,,,,,,,,,,,,,,,,,,,,,,,,,,,,,,,,,,,,,
,,,,,,,,,,,X V Q F H G B L J M P D K C T S W R N Z,5ff743fd88a5713bd0d00583,28,Mężczyzna,2022-06-11_09h22.27.876,task,2021.1.4,Win32,60.0240096,6299f149e92ead563fba08ef,62a442965cf365a46289af1a,,,,,,,,,,,,,,,,,,,,,,,,,,,,,,,,,,,,,,,,,,,,,,,,,,,0,0,0,0,1,,,,,,,,,,,,,,,,,,,,,,,,,,,,,,,,,,,,,,,,,,,,,,
,,,,,,,,,,,,5ff743fd88a5713bd0d00583,28,Mężczyzna,2022-06-11_09h22.27.876,task,2021.1.4,Win32,60.0240096,6299f149e92ead563fba08ef,62a442965cf365a46289af1a,,,,,,,,,,,,,6,,,,,,,,,,Practice,7,(25/5) + 1,6,,,,,,,,,,,,,,,,"[""6""]",1,[2.483000000000061],1,0,0,0,6,1,,,,,,,,,,,,,,,,,,,,,,,,,,,,,,,,,,,,,,,,,,,,,,,,,,,
,,,,,,,,,,,X V Q F H G B L J M P D K C T S W R N Z,5ff743fd88a5713bd0d00583,28,Mężczyzna,2022-06-11_09h22.27.876,task,2021.1.4,Win32,60.0240096,6299f149e92ead563fba08ef,62a442965cf365a46289af1a,,,,,,,,,,,,,,,,,,,,,,,,,,,,,,,,,,,,,,,,,,,,,,,,,,,1,0,1,0,1,,,,,,,,,,,,,,,,,,,,,,,,,,,,,,,,,,,,,,,,,,,,,,
,,,,,,,,,,,,5ff743fd88a5713bd0d00583,28,Mężczyzna,2022-06-11_09h22.27.876,task,2021.1.4,Win32,60.0240096,6299f149e92ead563fba08ef,62a442965cf365a46289af1a,,,,,,,,,,,,,,,,,,,,,,,,,,,,,,,,,,,,,,,,,,,,,,,,,,,,,,,,nw,"[""n"",""w""]",0,"[1.8859999999999673,2.81899999999996,3.5170000000000528]",1,1,0,1,0,1,,,,,,,,,,,,,,,,,,,,,,,,,,,,,,,,,,,,
,,,,,,,,,,,,5ff743fd88a5713bd0d00583,28,Mężczyzna,2022-06-11_09h22.27.876,task,2021.1.4,Win32,60.0240096,6299f149e92ead563fba08ef,62a442965cf365a46289af1a,,,,,,,,,,,,,1,,,,,,,,,,Practice,2,(4x4) - 15,1,,,,,,,,,,,,,,,,"[""1""]",1,[2.6019999999999754],1,0,0,0,1,1,,,,,,,,,,,,,,,,,,,,,,,,,,,,,,,,,,,,,,,,,,,,,,,,,,,
,,,,,,,,,,,X V Q F H G B L J M P D K C T S W R N Z,5ff743fd88a5713bd0d00583,28,Mężczyzna,2022-06-11_09h22.27.876,task,2021.1.4,Win32,60.0240096,6299f149e92ead563fba08ef,62a442965cf365a46289af1a,,,,,,,,,,,,,,,,,,,,,,,,,,,,,,,,,,,,,,,,,,,,,,,,,,,0,0,0,0,1,,,,,,,,,,,,,,,,,,,,,,,,,,,,,,,,,,,,,,,,,,,,,,
,,,,,,,,,,,,5ff743fd88a5713bd0d00583,28,Mężczyzna,2022-06-11_09h22.27.876,task,2021.1.4,Win32,60.0240096,6299f149e92ead563fba08ef,62a442965cf365a46289af1a,,,,,,,,,,,,,9,,,,,,,,,,Practice,10,(20/2) - 1,9,,,,,,,,,,,,,,,,"[""9""]",1,[2.782000000000039],1,0,0,0,9,1,,,,,,,,,,,,,,,,,,,,,,,,,,,,,,,,,,,,,,,,,,,,,,,,,,,
,,,,,,,,,,,X V Q F H G B L J M P D K C T S W R N Z,5ff743fd88a5713bd0d00583,28,Mężczyzna,2022-06-11_09h22.27.876,task,2021.1.4,Win32,60.0240096,6299f149e92ead563fba08ef,62a442965cf365a46289af1a,,,,,,,,,,,,,,,,,,,,,,,,,,,,,,,,,,,,,,,,,,,,,,,,,,,1,0,1,0,1,,,,,,,,,,,,,,,,,,,,,,,,,,,,,,,,,,,,,,,,,,,,,,
,,,,,,,,,,,,5ff743fd88a5713bd0d00583,28,Mężczyzna,2022-06-11_09h22.27.876,task,2021.1.4,Win32,60.0240096,6299f149e92ead563fba08ef,62a442965cf365a46289af1a,,,,,,,,,,,,,,,,,,,,,,,,,,,,,,,,,,,,,,,,,,,,,,,,,,,,,,,,cb,"[""c"",""b""]",0,"[0.8160000000000309,0.9360000000000355,1.6709999999999354]",1,2,0,2,0,1,,,,,,,,,,,,,,,,,,,,,,,,,,,,,,,,,,,,
,,,,,,,,,,,,5ff743fd88a5713bd0d00583,28,Mężczyzna,2022-06-11_09h22.27.876,task,2021.1.4,Win32,60.0240096,6299f149e92ead563fba08ef,62a442965cf365a46289af1a,,,,,,,,,,,,,5,,,,,,,,,,Task,36,(8/4) + 3,5,,,,,,,,,,,,,,,,,,,1,,,,,,,,,,,,,,,,,,,,,space,20.579,"[""5""]",1,[4.118000000000052],0,0,0,35,1,,,,,,,,,,,,,,,,,,,,,,,,,,
,,,,,,,,,,,X V Q F H G B L J M P D K C T S W R N Z,5ff743fd88a5713bd0d00583,28,Mężczyzna,2022-06-11_09h22.27.876,task,2021.1.4,Win32,60.0240096,6299f149e92ead563fba08ef,62a442965cf365a46289af1a,,,,,,,,,,,,,,,,,,,,,,,,,,,,,,,,,,,,,,,,,,,,,,,,,,,,,,,,,,,,,,,,,,,,,,,,,,,,0,0,0,0,1,,,,,,,,,,,,,,,,,,,,,
,,,,,,,,,,,,5ff743fd88a5713bd0d00583,28,Mężczyzna,2022-06-11_09h22.27.876,task,2021.1.4,Win32,60.0240096,6299f149e92ead563fba08ef,62a442965cf365a46289af1a,,,,,,,,,,,,,6,,,,,,,,,,Task,30,(6/3) + 4 ,6,,,,,,,,,,,,,,,,,,,1,,,,,,,,,,,,,,,,,,,,,,,"[""6""]",1,[2.9640000000000555],0,0,0,29,1,,,,,,,,,,,,,,,,,,,,,,,,,,
,,,,,,,,,,,X V Q F H G B L J M P D K C T S W R N Z,5ff743fd88a5713bd0d00583,28,Mężczyzna,2022-06-11_09h22.27.876,task,2021.1.4,Win32,60.0240096,6299f149e92ead563fba08ef,62a442965cf365a46289af1a,,,,,,,,,,,,,,,,,,,,,,,,,,,,,,,,,,,,,,,,,,,,,,,,,,,,,,,,,,,,,,,,,,,,,,,,,,,,1,0,1,0,1,,,,,,,,,,,,,,,,,,,,,
,,,,,,,,,,,,5ff743fd88a5713bd0d00583,28,Mężczyzna,2022-06-11_09h22.27.876,task,2021.1.4,Win32,60.0240096,6299f149e92ead563fba08ef,62a442965cf365a46289af1a,,,,,,,,,,,,,,,,,,,,,,,,,,,,,,,,,,,,,,,,,,,,,,,,,,,,,,,,,,,,,,,,,,,,,,,,,,,,,,,,,zj,"[""z"",""j""]",0,"[1.2839999999999918,1.8159999999999172,2.3029999999999973]",1,ZJ,0,0,0,0,1,,,,,,,,,,
,,,,,,,,,,,,5ff743fd88a5713bd0d00583,28,Mężczyzna,2022-06-11_09h22.27.876,task,2021.1.4,Win32,60.0240096,6299f149e92ead563fba08ef,62a442965cf365a46289af1a,,,,,,,,,,,,,3,,,,,,,,,,Task,35,(1x2) + 1,3,,,,,,,,,,,,,,,,,,,1,,,,,,,,,,,,,,,,,,,,,,,"[""3""]",1,[1.7980000000000018],0,0,0,34,1,,,,,,,,,,,,,,,,,,,,,,,,,,
,,,,,,,,,,,X V Q F H G B L J M P D K C T S W R N Z,5ff743fd88a5713bd0d00583,28,Mężczyzna,2022-06-11_09h22.27.876,task,2021.1.4,Win32,60.0240096,6299f149e92ead563fba08ef,62a442965cf365a46289af1a,,,,,,,,,,,,,,,,,,,,,,,,,,,,,,,,,,,,,,,,,,,,,,,,,,,,,,,,,,,,,,,,,,,,,,,,,,,,0,0,0,0,1,,,,,,,,,,,,,,,,,,,,,
,,,,,,,,,,,,5ff743fd88a5713bd0d00583,28,Mężczyzna,2022-06-11_09h22.27.876,task,2021.1.4,Win32,60.0240096,6299f149e92ead563fba08ef,62a442965cf365a46289af1a,,,,,,,,,,,,,8,,,,,,,,,,Task,15,(3x7) - 13,8,,,,,,,,,,,,,,,,,,,1,,,,,,,,,,,,,,,,,,,,,,,"[""8""]",1,[3.6440000000000055],0,0,0,14,1,,,,,,,,,,,,,,,,,,,,,,,,,,
,,,,,,,,,,,X V Q F H G B L J M P D K C T S W R N Z,5ff743fd88a5713bd0d00583,28,Mężczyzna,2022-06-11_09h22.27.876,task,2021.1.4,Win32,60.0240096,6299f149e92ead563fba08ef,62a442965cf365a46289af1a,,,,,,,,,,,,,,,,,,,,,,,,,,,,,,,,,,,,,,,,,,,,,,,,,,,,,,,,,,,,,,,,,,,,,,,,,,,,1,0,1,0,1,,,,,,,,,,,,,,,,,,,,,
,,,,,,,,,,,,5ff743fd88a5713bd0d00583,28,Mężczyzna,2022-06-11_09h22.27.876,task,2021.1.4,Win32,60.0240096,6299f149e92ead563fba08ef,62a442965cf365a46289af1a,,,,,,,,,,,,,5,,,,,,,,,,Task,22,(3x1) + 2,5,,,,,,,,,,,,,,,,,,,1,,,,,,,,,,,,,,,,,,,,,,,"[""5""]",1,[3.4629999999999654],0,0,0,21,1,,,,,,,,,,,,,,,,,,,,,,,,,,
,,,,,,,,,,,X V Q F H G B L J M P D K C T S W R N Z,5ff743fd88a5713bd0d00583,28,Mężczyzna,2022-06-11_09h22.27.876,task,2021.1.4,Win32,60.0240096,6299f149e92ead563fba08ef,62a442965cf365a46289af1a,,,,,,,,,,,,,,,,,,,,,,,,,,,,,,,,,,,,,,,,,,,,,,,,,,,,,,,,,,,,,,,,,,,,,,,,,,,,2,0,2,0,1,,,,,,,,,,,,,,,,,,,,,
,,,,,,,,,,,,5ff743fd88a5713bd0d00583,28,Mężczyzna,2022-06-11_09h22.27.876,task,2021.1.4,Win32,60.0240096,6299f149e92ead563fba08ef,62a442965cf365a46289af1a,,,,,,,,,,,,,,,,,,,,,,,,,,,,,,,,,,,,,,,,,,,,,,,,,,,,,,,,,,,,,,,,,,,,,,,,,,,,,,,,,zdh,"[""z"",""d"",""h""]",0,"[1.600999999999999,1.8700000000000045,2.27800000000002,2.90300000000002]",0,HDH,1,0,1,0,1,,,,,,,,,,
,,,,,,,,,,,,5ff743fd88a5713bd0d00583,28,Mężczyzna,2022-06-11_09h22.27.876,task,2021.1.4,Win32,60.0240096,6299f149e92ead563fba08ef,62a442965cf365a46289af1a,,,,,,,,,,,,,1,,,,,,,,,,Task,9,(3x7) - 20,1,,,,,,,,,,,,,,,,,,,1,,,,,,,,,,,,,,,,,,,,,,,"[""1""]",1,[2.0149999999999864],0,0,0,8,1,,,,,,,,,,,,,,,,,,,,,,,,,,
,,,,,,,,,,,X V Q F H G B L J M P D K C T S W R N Z,5ff743fd88a5713bd0d00583,28,Mężczyzna,2022-06-11_09h22.27.876,task,2021.1.4,Win32,60.0240096,6299f149e92ead563fba08ef,62a442965cf365a46289af1a,,,,,,,,,,,,,,,,,,,,,,,,,,,,,,,,,,,,,,,,,,,,,,,,,,,,,,,,,,,,,,,,,,,,,,,,,,,,0,0,0,0,1,,,,,,,,,,,,,,,,,,,,,
,,,,,,,,,,,,5ff743fd88a5713bd0d00583,28,Mężczyzna,2022-06-11_09h22.27.876,task,2021.1.4,Win32,60.0240096,6299f149e92ead563fba08ef,62a442965cf365a46289af1a,,,,,,,,,,,,,4,,,,,,,,,,Task,11,(18/3) - 2,4,,,,,,,,,,,,,,,,,,,1,,,,,,,,,,,,,,,,,,,,,,,"[""4""]",1,[3.745999999999981],0,0,0,10,1,,,,,,,,,,,,,,,,,,,,,,,,,,
,,,,,,,,,,,X V Q F H G B L J M P D K C T S W R N Z,5ff743fd88a5713bd0d00583,28,Mężczyzna,2022-06-11_09h22.27.876,task,2021.1.4,Win32,60.0240096,6299f149e92ead563fba08ef,62a442965cf365a46289af1a,,,,,,,,,,,,,,,,,,,,,,,,,,,,,,,,,,,,,,,,,,,,,,,,,,,,,,,,,,,,,,,,,,,,,,,,,,,,1,0,1,0,1,,,,,,,,,,,,,,,,,,,,,
,,,,,,,,,,,,5ff743fd88a5713bd0d00583,28,Mężczyzna,2022-06-11_09h22.27.876,task,2021.1.4,Win32,60.0240096,6299f149e92ead563fba08ef,62a442965cf365a46289af1a,,,,,,,,,,,,,1,,,,,,,,,,Task,9,(3x7) - 20,1,,,,,,,,,,,,,,,,,,,1,,,,,,,,,,,,,,,,,,,,,,,"[""1""]",1,[1.6179999999999382],0,0,0,8,1,,,,,,,,,,,,,,,,,,,,,,,,,,
,,,,,,,,,,,X V Q F H G B L J M P D K C T S W R N Z,5ff743fd88a5713bd0d00583,28,Mężczyzna,2022-06-11_09h22.27.876,task,2021.1.4,Win32,60.0240096,6299f149e92ead563fba08ef,62a442965cf365a46289af1a,,,,,,,,,,,,,,,,,,,,,,,,,,,,,,,,,,,,,,,,,,,,,,,,,,,,,,,,,,,,,,,,,,,,,,,,,,,,2,0,2,0,1,,,,,,,,,,,,,,,,,,,,,
,,,,,,,,,,,,5ff743fd88a5713bd0d00583,28,Mężczyzna,2022-06-11_09h22.27.876,task,2021.1.4,Win32,60.0240096,6299f149e92ead563fba08ef,62a442965cf365a46289af1a,,,,,,,,,,,,,,,,,,,,,,,,,,,,,,,,,,,,,,,,,,,,,,,,,,,,,,,,,,,,,,,,,,,,,,,,,,,,,,,,,hvm,"[""h"",""v"",""m""]",0,"[1.802000000000021,2.1840000000000828,2.6350000000001046,3.150000000000091]",1,HVM,2,0,2,0,1,,,,,,,,,,
,,,,,,,,,,,,5ff743fd88a5713bd0d00583,28,Mężczyzna,2022-06-11_09h22.27.876,task,2021.1.4,Win32,60.0240096,6299f149e92ead563fba08ef,62a442965cf365a46289af1a,,,,,,,,,,,,,2,,,,,,,,,,Task,10,(2x5) - 8,2,,,,,,,,,,,,,,,,,,,1,,,,,,,,,,,,,,,,,,,,,,,"[""2""]",1,[2.199000000000069],0,0,0,9,1,,,,,,,,,,,,,,,,,,,,,,,,,,
,,,,,,,,,,,X V Q F H G B L J M P D K C T S W R N Z,5ff743fd88a5713bd0d00583,28,Mężczyzna,2022-06-11_09h22.27.876,task,2021.1.4,Win32,60.0240096,6299f149e92ead563fba08ef,62a442965cf365a46289af1a,,,,,,,,,,,,,,,,,,,,,,,,,,,,,,,,,,,,,,,,,,,,,,,,,,,,,,,,,,,,,,,,,,,,,,,,,,,,0,0,0,0,1,,,,,,,,,,,,,,,,,,,,,
,,,,,,,,,,,,5ff743fd88a5713bd0d00583,28,Mężczyzna,2022-06-11_09h22.27.876,task,2021.1.4,Win32,60.0240096,6299f149e92ead563fba08ef,62a442965cf365a46289af1a,,,,,,,,,,,,,7,,,,,,,,,,Task,14,(2x2) + 3,7,,,,,,,,,,,,,,,,,,,1,,,,,,,,,,,,,,,,,,,,,,,"[""7""]",1,[2.6299999999999955],0,0,0,13,1,,,,,,,,,,,,,,,,,,,,,,,,,,
,,,,,,,,,,,X V Q F H G B L J M P D K C T S W R N Z,5ff743fd88a5713bd0d00583,28,Mężczyzna,2022-06-11_09h22.27.876,task,2021.1.4,Win32,60.0240096,6299f149e92ead563fba08ef,62a442965cf365a46289af1a,,,,,,,,,,,,,,,,,,,,,,,,,,,,,,,,,,,,,,,,,,,,,,,,,,,,,,,,,,,,,,,,,,,,,,,,,,,,1,0,1,0,1,,,,,,,,,,,,,,,,,,,,,
,,,,,,,,,,,,5ff743fd88a5713bd0d00583,28,Mężczyzna,2022-06-11_09h22.27.876,task,2021.1.4,Win32,60.0240096,6299f149e92ead563fba08ef,62a442965cf365a46289af1a,,,,,,,,,,,,,5,,,,,,,,,,Task,36,(8/4) + 3,5,,,,,,,,,,,,,,,,,,,1,,,,,,,,,,,,,,,,,,,,,,,"[""5""]",1,[2.9850000000000136],0,0,0,35,1,,,,,,,,,,,,,,,,,,,,,,,,,,
,,,,,,,,,,,X V Q F H G B L J M P D K C T S W R N Z,5ff743fd88a5713bd0d00583,28,Mężczyzna,2022-06-11_09h22.27.876,task,2021.1.4,Win32,60.0240096,6299f149e92ead563fba08ef,62a442965cf365a46289af1a,,,,,,,,,,,,,,,,,,,,,,,,,,,,,,,,,,,,,,,,,,,,,,,,,,,,,,,,,,,,,,,,,,,,,,,,,,,,2,0,2,0,1,,,,,,,,,,,,,,,,,,,,,
,,,,,,,,,,,,5ff743fd88a5713bd0d00583,28,Mężczyzna,2022-06-11_09h22.27.876,task,2021.1.4,Win32,60.0240096,6299f149e92ead563fba08ef,62a442965cf365a46289af1a,,,,,,,,,,,,,8,,,,,,,,,,Task,23,(2x3) + 2,8,,,,,,,,,,,,,,,,,,,1,,,,,,,,,,,,,,,,,,,,,,,"[""8""]",1,[2.784999999999968],0,0,0,22,1,,,,,,,,,,,,,,,,,,,,,,,,,,
,,,,,,,,,,,X V Q F H G B L J M P D K C T S W R N Z,5ff743fd88a5713bd0d00583,28,Mężczyzna,2022-06-11_09h22.27.876,task,2021.1.4,Win32,60.0240096,6299f149e92ead563fba08ef,62a442965cf365a46289af1a,,,,,,,,,,,,,,,,,,,,,,,,,,,,,,,,,,,,,,,,,,,,,,,,,,,,,,,,,,,,,,,,,,,,,,,,,,,,3,0,3,0,1,,,,,,,,,,,,,,,,,,,,,
,,,,,,,,,,,,5ff743fd88a5713bd0d00583,28,Mężczyzna,2022-06-11_09h22.27.876,task,2021.1.4,Win32,60.0240096,6299f149e92ead563fba08ef,62a442965cf365a46289af1a,,,,,,,,,,,,,,,,,,,,,,,,,,,,,,,,,,,,,,,,,,,,,,,,,,,,,,,,,,,,,,,,,,,,,,,,,,,,,,,,,srrd,"[""s"",""r"",""r"",""d""]",0,"[1.6819999999999027,1.9509999999999081,2.1019999999999754,2.3379999999999654,3.085999999999899]",1,SRRD,3,0,3,0,1,,,,,,,,,,
,,,,,,,,,,,,5ff743fd88a5713bd0d00583,28,Mężczyzna,2022-06-11_09h22.27.876,task,2021.1.4,Win32,60.0240096,6299f149e92ead563fba08ef,62a442965cf365a46289af1a,,,,,,,,,,,,,1,,,,,,,,,,Task,9,(3x7) - 20,1,,,,,,,,,,,,,,,,,,,1,,,,,,,,,,,,,,,,,,,,,,,"[""1""]",1,[1.58299999999997],0,0,0,8,1,,,,,,,,,,,,,,,,,,,,,,,,,,
,,,,,,,,,,,X V Q F H G B L J M P D K C T S W R N Z,5ff743fd88a5713bd0d00583,28,Mężczyzna,2022-06-11_09h22.27.876,task,2021.1.4,Win32,60.0240096,6299f149e92ead563fba08ef,62a442965cf365a46289af1a,,,,,,,,,,,,,,,,,,,,,,,,,,,,,,,,,,,,,,,,,,,,,,,,,,,,,,,,,,,,,,,,,,,,,,,,,,,,0,0,0,0,1,,,,,,,,,,,,,,,,,,,,,
,,,,,,,,,,,,5ff743fd88a5713bd0d00583,28,Mężczyzna,2022-06-11_09h22.27.876,task,2021.1.4,Win32,60.0240096,6299f149e92ead563fba08ef,62a442965cf365a46289af1a,,,,,,,,,,,,,9,,,,,,,,,,Task,24,(2x2) + 5,9,,,,,,,,,,,,,,,,,,,1,,,,,,,,,,,,,,,,,,,,,,,"[""9""]",1,[1.9610000000000127],0,0,0,23,1,,,,,,,,,,,,,,,,,,,,,,,,,,
,,,,,,,,,,,X V Q F H G B L J M P D K C T S W R N Z,5ff743fd88a5713bd0d00583,28,Mężczyzna,2022-06-11_09h22.27.876,task,2021.1.4,Win32,60.0240096,6299f149e92ead563fba08ef,62a442965cf365a46289af1a,,,,,,,,,,,,,,,,,,,,,,,,,,,,,,,,,,,,,,,,,,,,,,,,,,,,,,,,,,,,,,,,,,,,,,,,,,,,1,0,1,0,1,,,,,,,,,,,,,,,,,,,,,
,,,,,,,,,,,,5ff743fd88a5713bd0d00583,28,Mężczyzna,2022-06-11_09h22.27.876,task,2021.1.4,Win32,60.0240096,6299f149e92ead563fba08ef,62a442965cf365a46289af1a,,,,,,,,,,,,,3,,,,,,,,,,Task,20,(18/9) + 1,3,,,,,,,,,,,,,,,,,,,1,,,,,,,,,,,,,,,,,,,,,,,"[""3""]",1,[1.7480000000000473],0,0,0,19,1,,,,,,,,,,,,,,,,,,,,,,,,,,
,,,,,,,,,,,X V Q F H G B L J M P D K C T S W R N Z,5ff743fd88a5713bd0d00583,28,Mężczyzna,2022-06-11_09h22.27.876,task,2021.1.4,Win32,60.0240096,6299f149e92ead563fba08ef,62a442965cf365a46289af1a,,,,,,,,,,,,,,,,,,,,,,,,,,,,,,,,,,,,,,,,,,,,,,,,,,,,,,,,,,,,,,,,,,,,,,,,,,,,2,0,2,0,1,,,,,,,,,,,,,,,,,,,,,
,,,,,,,,,,,,5ff743fd88a5713bd0d00583,28,Mężczyzna,2022-06-11_09h22.27.876,task,2021.1.4,Win32,60.0240096,6299f149e92ead563fba08ef,62a442965cf365a46289af1a,,,,,,,,,,,,,,,,,,,,,,,Task,12,(4x4) - 11,5,,,,,,,,,,,,,,,,,,,0,,,,,,,,,,,,,,,,,,,,,,,,0,,0,0,0,11,1,,,,,,,,,,,,,,,,,,,,,,,,,,
,,,,,,,,,,,,5ff743fd88a5713bd0d00583,28,Mężczyzna,2022-06-11_09h22.27.876,task,2021.1.4,Win32,60.0240096,6299f149e92ead563fba08ef,62a442965cf365a46289af1a,,,,,,,,,,,,,1,,,,,,,,,,Task,40,(7x2) - 5,9,,,,,,,,,,,,,,,,,,,0,,,,,,,,,,,,,,,,,,,,,,,"[""1""]",0,[2.891999999999939],0,1,1,39,1,,,,,,,,,,,,,,,,,,,,,,,,,,
,,,,,,,,,,,,5ff743fd88a5713bd0d00583,28,Mężczyzna,2022-06-11_09h22.27.876,task,2021.1.4,Win32,60.0240096,6299f149e92ead563fba08ef,62a442965cf365a46289af1a,,,,,,,,,,,,,2,,,,,,,,,,Task,10,(2x5) - 8,2,,,,,,,,,,,,,,,,,,,1,,,,,,,,,,,,,,,,,,,,,,,"[""2""]",1,[1.4160000000000537],0,2,2,9,1,,,,,,,,,,,,,,,,,,,,,,,,,,
,,,,,,,,,,,X V Q F H G B L J M P D K C T S W R N Z,5ff743fd88a5713bd0d00583,28,Mężczyzna,2022-06-11_09h22.27.876,task,2021.1.4,Win32,60.0240096,6299f149e92ead563fba08ef,62a442965cf365a46289af1a,,,,,,,,,,,,,,,,,,,,,,,,,,,,,,,,,,,,,,,,,,,,,,,,,,,,,,,,,,,,,,,,,,,,,,,,,,,,3,0,3,0,1,,,,,,,,,,,,,,,,,,,,,
,,,,,,,,,,,,5ff743fd88a5713bd0d00583,28,Mężczyzna,2022-06-11_09h22.27.876,task,2021.1.4,Win32,60.0240096,6299f149e92ead563fba08ef,62a442965cf365a46289af1a,,,,,,,,,,,,,6,,,,,,,,,,Task,30,(6/3) + 4 ,6,,,,,,,,,,,,,,,,,,,1,,,,,,,,,,,,,,,,,,,,,,,"[""6""]",1,[3.328999999999951],0,0,0,29,1,,,,,,,,,,,,,,,,,,,,,,,,,,
,,,,,,,,,,,X V Q F H G B L J M P D K C T S W R N Z,5ff743fd88a5713bd0d00583,28,Mężczyzna,2022-06-11_09h22.27.876,task,2021.1.4,Win32,60.0240096,6299f149e92ead563fba08ef,62a442965cf365a46289af1a,,,,,,,,,,,,,,,,,,,,,,,,,,,,,,,,,,,,,,,,,,,,,,,,,,,,,,,,,,,,,,,,,,,,,,,,,,,,4,0,4,0,1,,,,,,,,,,,,,,,,,,,,,
,,,,,,,,,,,,5ff743fd88a5713bd0d00583,28,Mężczyzna,2022-06-11_09h22.27.876,task,2021.1.4,Win32,60.0240096,6299f149e92ead563fba08ef,62a442965cf365a46289af1a,,,,,,,,,,,,,,,,,,,,,,,,,,,,,,,,,,,,,,,,,,,,,,,,,,,,,,,,,,,,,,,,,,,,,,,,,,,,,,,,,kthns,"[""k"",""t"",""h"",""n"",""s""]",0,"[1.7339999999999236,2.4389999999999645,2.8179999999999836,3.1440000000000055,3.867999999999938,4.581999999999994]",1,KTHNS,4,0,4,0,1,,,,,,,,,,
,,,,,,,,,,,,5ff743fd88a5713bd0d00583,28,Mężczyzna,2022-06-11_09h22.27.876,task,2021.1.4,Win32,60.0240096,6299f149e92ead563fba08ef,62a442965cf365a46289af1a,,,,,,,,,,,,,8,,,,,,,,,,Task,39,(5x3) - 7,8,,,,,,,,,,,,,,,,,,,1,,,,,,,,,,,,,,,,,,,,,,,"[""8""]",1,[4.34699999999998],0,0,0,38,1,,,,,,,,,,,,,,,,,,,,,,,,,,
,,,,,,,,,,,X V Q F H G B L J M P D K C T S W R N Z,5ff743fd88a5713bd0d00583,28,Mężczyzna,2022-06-11_09h22.27.876,task,2021.1.4,Win32,60.0240096,6299f149e92ead563fba08ef,62a442965cf365a46289af1a,,,,,,,,,,,,,,,,,,,,,,,,,,,,,,,,,,,,,,,,,,,,,,,,,,,,,,,,,,,,,,,,,,,,,,,,,,,,0,0,0,0,1,,,,,,,,,,,,,,,,,,,,,
,,,,,,,,,,,,5ff743fd88a5713bd0d00583,28,Mężczyzna,2022-06-11_09h22.27.876,task,2021.1.4,Win32,60.0240096,6299f149e92ead563fba08ef,62a442965cf365a46289af1a,,,,,,,,,,,,,2,,,,,,,,,,Task,10,(2x5) - 8,2,,,,,,,,,,,,,,,,,,,1,,,,,,,,,,,,,,,,,,,,,,,"[""2""]",1,[1.9809999999999945],0,0,0,9,1,,,,,,,,,,,,,,,,,,,,,,,,,,
,,,,,,,,,,,X V Q F H G B L J M P D K C T S W R N Z,5ff743fd88a5713bd0d00583,28,Mężczyzna,2022-06-11_09h22.27.876,task,2021.1.4,Win32,60.0240096,6299f149e92ead563fba08ef,62a442965cf365a46289af1a,,,,,,,,,,,,,,,,,,,,,,,,,,,,,,,,,,,,,,,,,,,,,,,,,,,,,,,,,,,,,,,,,,,,,,,,,,,,1,0,1,0,1,,,,,,,,,,,,,,,,,,,,,
,,,,,,,,,,,,5ff743fd88a5713bd0d00583,28,Mężczyzna,2022-06-11_09h22.27.876,task,2021.1.4,Win32,60.0240096,6299f149e92ead563fba08ef,62a442965cf365a46289af1a,,,,,,,,,,,,,9,,,,,,,,,,Task,24,(2x2) + 5,9,,,,,,,,,,,,,,,,,,,1,,,,,,,,,,,,,,,,,,,,,,,"[""9""]",1,[1.8490000000000464],0,0,0,23,1,,,,,,,,,,,,,,,,,,,,,,,,,,
,,,,,,,,,,,X V Q F H G B L J M P D K C T S W R N Z,5ff743fd88a5713bd0d00583,28,Mężczyzna,2022-06-11_09h22.27.876,task,2021.1.4,Win32,60.0240096,6299f149e92ead563fba08ef,62a442965cf365a46289af1a,,,,,,,,,,,,,,,,,,,,,,,,,,,,,,,,,,,,,,,,,,,,,,,,,,,,,,,,,,,,,,,,,,,,,,,,,,,,2,0,2,0,1,,,,,,,,,,,,,,,,,,,,,
,,,,,,,,,,,,5ff743fd88a5713bd0d00583,28,Mężczyzna,2022-06-11_09h22.27.876,task,2021.1.4,Win32,60.0240096,6299f149e92ead563fba08ef,62a442965cf365a46289af1a,,,,,,,,,,,,,,,,,,,,,,,Task,31,(4/2) + 5,7,,,,,,,,,,,,,,,,,,,0,,,,,,,,,,,,,,,,,,,,,,,,0,,0,0,0,30,1,,,,,,,,,,,,,,,,,,,,,,,,,,
,,,,,,,,,,,,5ff743fd88a5713bd0d00583,28,Mężczyzna,2022-06-11_09h22.27.876,task,2021.1.4,Win32,60.0240096,6299f149e92ead563fba08ef,62a442965cf365a46289af1a,,,,,,,,,,,,,6,,,,,,,,,,Task,37,(3/3) + 5,6,,,,,,,,,,,,,,,,,,,1,,,,,,,,,,,,,,,,,,,,,,,"[""6""]",1,[4.607999999999947],0,1,1,36,1,,,,,,,,,,,,,,,,,,,,,,,,,,
,,,,,,,,,,,X V Q F H G B L J M P D K C T S W R N Z,5ff743fd88a5713bd0d00583,28,Mężczyzna,2022-06-11_09h22.27.876,task,2021.1.4,Win32,60.0240096,6299f149e92ead563fba08ef,62a442965cf365a46289af1a,,,,,,,,,,,,,,,,,,,,,,,,,,,,,,,,,,,,,,,,,,,,,,,,,,,,,,,,,,,,,,,,,,,,,,,,,,,,3,0,3,0,1,,,,,,,,,,,,,,,,,,,,,
,,,,,,,,,,,,5ff743fd88a5713bd0d00583,28,Mężczyzna,2022-06-11_09h22.27.876,task,2021.1.4,Win32,60.0240096,6299f149e92ead563fba08ef,62a442965cf365a46289af1a,,,,,,,,,,,,,7,,,,,,,,,,Task,6,(12/2) + 1,7,,,,,,,,,,,,,,,,,,,1,,,,,,,,,,,,,,,,,,,,,,,"[""7""]",1,[2.580000000000041],0,0,0,5,1,,,,,,,,,,,,,,,,,,,,,,,,,,
,,,,,,,,,,,X V Q F H G B L J M P D K C T S W R N Z,5ff743fd88a5713bd0d00583,28,Mężczyzna,2022-06-11_09h22.27.876,task,2021.1.4,Win32,60.0240096,6299f149e92ead563fba08ef,62a442965cf365a46289af1a,,,,,,,,,,,,,,,,,,,,,,,,,,,,,,,,,,,,,,,,,,,,,,,,,,,,,,,,,,,,,,,,,,,,,,,,,,,,4,0,4,0,1,,,,,,,,,,,,,,,,,,,,,
,,,,,,,,,,,,5ff743fd88a5713bd0d00583,28,Mężczyzna,2022-06-11_09h22.27.876,task,2021.1.4,Win32,60.0240096,6299f149e92ead563fba08ef,62a442965cf365a46289af1a,,,,,,,,,,,,,7,,,,,,,,,,Task,31,(4/2) + 5,7,,,,,,,,,,,,,,,,,,,1,,,,,,,,,,,,,,,,,,,,,,,"[""7""]",1,[3.300000000000068],0,0,0,30,1,,,,,,,,,,,,,,,,,,,,,,,,,,
,,,,,,,,,,,X V Q F H G B L J M P D K C T S W R N Z,5ff743fd88a5713bd0d00583,28,Mężczyzna,2022-06-11_09h22.27.876,task,2021.1.4,Win32,60.0240096,6299f149e92ead563fba08ef,62a442965cf365a46289af1a,,,,,,,,,,,,,,,,,,,,,,,,,,,,,,,,,,,,,,,,,,,,,,,,,,,,,,,,,,,,,,,,,,,,,,,,,,,,5,0,5,0,1,,,,,,,,,,,,,,,,,,,,,
,,,,,,,,,,,,5ff743fd88a5713bd0d00583,28,Mężczyzna,2022-06-11_09h22.27.876,task,2021.1.4,Win32,60.0240096,6299f149e92ead563fba08ef,62a442965cf365a46289af1a,,,,,,,,,,,,,,,,,,,,,,,,,,,,,,,,,,,,,,,,,,,,,,,,,,,,,,,,,,,,,,,,,,,,,,,,,,,,,,,,,pfckfs,"[""p"",""f"",""c"",""k"",""f"",""s""]",0,"[1.6370000000000573,2.3799999999999955,3.06899999999996,3.7519999999999527,5.854000000000042,6.524999999999977,7.268000000000029]",1,PFCKFS,5,0,5,0,1,,,,,,,,,,
,,,,,,,,,,,,5ff743fd88a5713bd0d00583,28,Mężczyzna,2022-06-11_09h22.27.876,task,2021.1.4,Win32,60.0240096,6299f149e92ead563fba08ef,62a442965cf365a46289af1a,,,,,,,,,,,,,7,,,,,,,,,,Task,14,(2x2) + 3,7,,,,,,,,,,,,,,,,,,,1,,,,,,,,,,,,,,,,,,,,,,,"[""7""]",1,[2.2649999999999864],0,0,0,13,1,,,,,,,,,,,,,,,,,,,,,,,,,,
,,,,,,,,,,,X V Q F H G B L J M P D K C T S W R N Z,5ff743fd88a5713bd0d00583,28,Mężczyzna,2022-06-11_09h22.27.876,task,2021.1.4,Win32,60.0240096,6299f149e92ead563fba08ef,62a442965cf365a46289af1a,,,,,,,,,,,,,,,,,,,,,,,,,,,,,,,,,,,,,,,,,,,,,,,,,,,,,,,,,,,,,,,,,,,,,,,,,,,,0,0,0,0,1,,,,,,,,,,,,,,,,,,,,,
,,,,,,,,,,,,5ff743fd88a5713bd0d00583,28,Mężczyzna,2022-06-11_09h22.27.876,task,2021.1.4,Win32,60.0240096,6299f149e92ead563fba08ef,62a442965cf365a46289af1a,,,,,,,,,,,,,2,,,,,,,,,,Task,2,(2x2) - 2,2,,,,,,,,,,,,,,,,,,,1,,,,,,,,,,,,,,,,,,,,,,,"[""2""]",1,[2.1800000000000637],0,0,0,1,1,,,,,,,,,,,,,,,,,,,,,,,,,,
,,,,,,,,,,,X V Q F H G B L J M P D K C T S W R N Z,5ff743fd88a5713bd0d00583,28,Mężczyzna,2022-06-11_09h22.27.876,task,2021.1.4,Win32,60.0240096,6299f149e92ead563fba08ef,62a442965cf365a46289af1a,,,,,,,,,,,,,,,,,,,,,,,,,,,,,,,,,,,,,,,,,,,,,,,,,,,,,,,,,,,,,,,,,,,,,,,,,,,,1,0,1,0,1,,,,,,,,,,,,,,,,,,,,,
,,,,,,,,,,,,5ff743fd88a5713bd0d00583,28,Mężczyzna,2022-06-11_09h22.27.876,task,2021.1.4,Win32,60.0240096,6299f149e92ead563fba08ef,62a442965cf365a46289af1a,,,,,,,,,,,,,4,,,,,,,,,,Task,11,(18/3) - 2,4,,,,,,,,,,,,,,,,,,,1,,,,,,,,,,,,,,,,,,,,,,,"[""4""]",1,[4.175999999999931],0,0,0,10,1,,,,,,,,,,,,,,,,,,,,,,,,,,
,,,,,,,,,,,X V Q F H G B L J M P D K C T S W R N Z,5ff743fd88a5713bd0d00583,28,Mężczyzna,2022-06-11_09h22.27.876,task,2021.1.4,Win32,60.0240096,6299f149e92ead563fba08ef,62a442965cf365a46289af1a,,,,,,,,,,,,,,,,,,,,,,,,,,,,,,,,,,,,,,,,,,,,,,,,,,,,,,,,,,,,,,,,,,,,,,,,,,,,2,0,2,0,1,,,,,,,,,,,,,,,,,,,,,
,,,,,,,,,,,,5ff743fd88a5713bd0d00583,28,Mężczyzna,2022-06-11_09h22.27.876,task,2021.1.4,Win32,60.0240096,6299f149e92ead563fba08ef,62a442965cf365a46289af1a,,,,,,,,,,,,,0,,,,,,,,,,Task,25,(10/5) - 2,0,,,,,,,,,,,,,,,,,,,1,,,,,,,,,,,,,,,,,,,,,,,"[""0""]",1,[2.43100000000004],0,0,0,24,1,,,,,,,,,,,,,,,,,,,,,,,,,,
,,,,,,,,,,,X V Q F H G B L J M P D K C T S W R N Z,5ff743fd88a5713bd0d00583,28,Mężczyzna,2022-06-11_09h22.27.876,task,2021.1.4,Win32,60.0240096,6299f149e92ead563fba08ef,62a442965cf365a46289af1a,,,,,,,,,,,,,,,,,,,,,,,,,,,,,,,,,,,,,,,,,,,,,,,,,,,,,,,,,,,,,,,,,,,,,,,,,,,,3,0,3,0,1,,,,,,,,,,,,,,,,,,,,,
,,,,,,,,,,,,5ff743fd88a5713bd0d00583,28,Mężczyzna,2022-06-11_09h22.27.876,task,2021.1.4,Win32,60.0240096,6299f149e92ead563fba08ef,62a442965cf365a46289af1a,,,,,,,,,,,,,0,,,,,,,,,,Task,25,(10/5) - 2,0,,,,,,,,,,,,,,,,,,,1,,,,,,,,,,,,,,,,,,,,,,,"[""0""]",1,[1.8010000000000446],0,0,0,24,1,,,,,,,,,,,,,,,,,,,,,,,,,,
,,,,,,,,,,,X V Q F H G B L J M P D K C T S W R N Z,5ff743fd88a5713bd0d00583,28,Mężczyzna,2022-06-11_09h22.27.876,task,2021.1.4,Win32,60.0240096,6299f149e92ead563fba08ef,62a442965cf365a46289af1a,,,,,,,,,,,,,,,,,,,,,,,,,,,,,,,,,,,,,,,,,,,,,,,,,,,,,,,,,,,,,,,,,,,,,,,,,,,,4,0,4,0,1,,,,,,,,,,,,,,,,,,,,,
,,,,,,,,,,,,5ff743fd88a5713bd0d00583,28,Mężczyzna,2022-06-11_09h22.27.876,task,2021.1.4,Win32,60.0240096,6299f149e92ead563fba08ef,62a442965cf365a46289af1a,,,,,,,,,,,,,2,,,,,,,,,,Task,19,(6/2) - 1,2,,,,,,,,,,,,,,,,,,,1,,,,,,,,,,,,,,,,,,,,,,,"[""2""]",1,[2.0670000000000073],0,0,0,18,1,,,,,,,,,,,,,,,,,,,,,,,,,,
,,,,,,,,,,,X V Q F H G B L J M P D K C T S W R N Z,5ff743fd88a5713bd0d00583,28,Mężczyzna,2022-06-11_09h22.27.876,task,2021.1.4,Win32,60.0240096,6299f149e92ead563fba08ef,62a442965cf365a46289af1a,,,,,,,,,,,,,,,,,,,,,,,,,,,,,,,,,,,,,,,,,,,,,,,,,,,,,,,,,,,,,,,,,,,,,,,,,,,,5,0,5,0,1,,,,,,,,,,,,,,,,,,,,,
,,,,,,,,,,,,5ff743fd88a5713bd0d00583,28,Mężczyzna,2022-06-11_09h22.27.876,task,2021.1.4,Win32,60.0240096,6299f149e92ead563fba08ef,62a442965cf365a46289af1a,,,,,,,,,,,,,,,,,,,,,,,Task,40,(7x2) - 5,9,,,,,,,,,,,,,,,,,,,0,,,,,,,,,,,,,,,,,,,,,,,,0,,0,0,0,39,1,,,,,,,,,,,,,,,,,,,,,,,,,,
,,,,,,,,,,,,5ff743fd88a5713bd0d00583,28,Mężczyzna,2022-06-11_09h22.27.876,task,2021.1.4,Win32,60.0240096,6299f149e92ead563fba08ef,62a442965cf365a46289af1a,,,,,,,,,,,,,4,,,,,,,,,,Task,11,(18/3) - 2,4,,,,,,,,,,,,,,,,,,,1,,,,,,,,,,,,,,,,,,,,,,,"[""4""]",1,[2.6620000000000346],0,1,1,10,1,,,,,,,,,,,,,,,,,,,,,,,,,,
,,,,,,,,,,,X V Q F H G B L J M P D K C T S W R N Z,5ff743fd88a5713bd0d00583,28,Mężczyzna,2022-06-11_09h22.27.876,task,2021.1.4,Win32,60.0240096,6299f149e92ead563fba08ef,62a442965cf365a46289af1a,,,,,,,,,,,,,,,,,,,,,,,,,,,,,,,,,,,,,,,,,,,,,,,,,,,,,,,,,,,,,,,,,,,,,,,,,,,,6,0,6,0,1,,,,,,,,,,,,,,,,,,,,,
,,,,,,,,,,,,5ff743fd88a5713bd0d00583,28,Mężczyzna,2022-06-11_09h22.27.876,task,2021.1.4,Win32,60.0240096,6299f149e92ead563fba08ef,62a442965cf365a46289af1a,,,,,,,,,,,,,,,,,,,,,,,,,,,,,,,,,,,,,,,,,,,,,,,,,,,,,,,,,,,,,,,,,,,,,,,,,,,,,,,,,bvhdkkq,"[""b"",""v"",""h"",""d"",""k"",""k"",""q""]",0,"[1.7830000000000155,2.064999999999941,2.421000000000049,3.064999999999941,3.58299999999997,3.7480000000000473,4.499000000000024,5.515999999999963]",1,BVHDKKQ,6,0,6,0,1,,,,,,,,,,
,,,,,,,,,,,,5ff743fd88a5713bd0d00583,28,Mężczyzna,2022-06-11_09h22.27.876,task,2021.1.4,Win32,60.0240096,6299f149e92ead563fba08ef,62a442965cf365a46289af1a,,,,,,,,,,,,,9,,,,,,,,,,Task,7,(3x7) - 12,9,,,,,,,,,,,,,,,,,,,1,,,,,,,,,,,,,,,,,,,,,,,"[""9""]",1,[3.5470000000000255],0,0,0,6,1,,,,,,,,,,,,,,,,,,,,,,,,,,
,,,,,,,,,,,X V Q F H G B L J M P D K C T S W R N Z,5ff743fd88a5713bd0d00583,28,Mężczyzna,2022-06-11_09h22.27.876,task,2021.1.4,Win32,60.0240096,6299f149e92ead563fba08ef,62a442965cf365a46289af1a,,,,,,,,,,,,,,,,,,,,,,,,,,,,,,,,,,,,,,,,,,,,,,,,,,,,,,,,,,,,,,,,,,,,,,,,,,,,0,0,0,0,1,,,,,,,,,,,,,,,,,,,,,
,,,,,,,,,,,,5ff743fd88a5713bd0d00583,28,Mężczyzna,2022-06-11_09h22.27.876,task,2021.1.4,Win32,60.0240096,6299f149e92ead563fba08ef,62a442965cf365a46289af1a,,,,,,,,,,,,,9,,,,,,,,,,Task,24,(2x2) + 5,9,,,,,,,,,,,,,,,,,,,1,,,,,,,,,,,,,,,,,,,,,,,"[""9""]",1,[2.3220000000000027],0,0,0,23,1,,,,,,,,,,,,,,,,,,,,,,,,,,
,,,,,,,,,,,X V Q F H G B L J M P D K C T S W R N Z,5ff743fd88a5713bd0d00583,28,Mężczyzna,2022-06-11_09h22.27.876,task,2021.1.4,Win32,60.0240096,6299f149e92ead563fba08ef,62a442965cf365a46289af1a,,,,,,,,,,,,,,,,,,,,,,,,,,,,,,,,,,,,,,,,,,,,,,,,,,,,,,,,,,,,,,,,,,,,,,,,,,,,1,0,1,0,1,,,,,,,,,,,,,,,,,,,,,
,,,,,,,,,,,,5ff743fd88a5713bd0d00583,28,Mężczyzna,2022-06-11_09h22.27.876,task,2021.1.4,Win32,60.0240096,6299f149e92ead563fba08ef,62a442965cf365a46289af1a,,,,,,,,,,,,,7,,,,,,,,,,Task,31,(4/2) + 5,7,,,,,,,,,,,,,,,,,,,1,,,,,,,,,,,,,,,,,,,,,,,"[""7""]",1,[2.4320000000000164],0,0,0,30,1,,,,,,,,,,,,,,,,,,,,,,,,,,
,,,,,,,,,,,X V Q F H G B L J M P D K C T S W R N Z,5ff743fd88a5713bd0d00583,28,Mężczyzna,2022-06-11_09h22.27.876,task,2021.1.4,Win32,60.0240096,6299f149e92ead563fba08ef,62a442965cf365a46289af1a,,,,,,,,,,,,,,,,,,,,,,,,,,,,,,,,,,,,,,,,,,,,,,,,,,,,,,,,,,,,,,,,,,,,,,,,,,,,2,0,2,0,1,,,,,,,,,,,,,,,,,,,,,
,,,,,,,,,,,,5ff743fd88a5713bd0d00583,28,Mężczyzna,2022-06-11_09h22.27.876,task,2021.1.4,Win32,60.0240096,6299f149e92ead563fba08ef,62a442965cf365a46289af1a,,,,,,,,,,,,,5,,,,,,,,,,Task,36,(8/4) + 3,5,,,,,,,,,,,,,,,,,,,1,,,,,,,,,,,,,,,,,,,,,,,"[""5""]",1,[2.830000000000041],0,0,0,35,1,,,,,,,,,,,,,,,,,,,,,,,,,,
,,,,,,,,,,,X V Q F H G B L J M P D K C T S W R N Z,5ff743fd88a5713bd0d00583,28,Mężczyzna,2022-06-11_09h22.27.876,task,2021.1.4,Win32,60.0240096,6299f149e92ead563fba08ef,62a442965cf365a46289af1a,,,,,,,,,,,,,,,,,,,,,,,,,,,,,,,,,,,,,,,,,,,,,,,,,,,,,,,,,,,,,,,,,,,,,,,,,,,,3,0,3,0,1,,,,,,,,,,,,,,,,,,,,,
,,,,,,,,,,,,5ff743fd88a5713bd0d00583,28,Mężczyzna,2022-06-11_09h22.27.876,task,2021.1.4,Win32,60.0240096,6299f149e92ead563fba08ef,62a442965cf365a46289af1a,,,,,,,,,,,,,1,,,,,,,,,,Task,9,(3x7) - 20,1,,,,,,,,,,,,,,,,,,,1,,,,,,,,,,,,,,,,,,,,,,,"[""1""]",1,[2.812999999999988],0,0,0,8,1,,,,,,,,,,,,,,,,,,,,,,,,,,
,,,,,,,,,,,X V Q F H G B L J M P D K C T S W R N Z,5ff743fd88a5713bd0d00583,28,Mężczyzna,2022-06-11_09h22.27.876,task,2021.1.4,Win32,60.0240096,6299f149e92ead563fba08ef,62a442965cf365a46289af1a,,,,,,,,,,,,,,,,,,,,,,,,,,,,,,,,,,,,,,,,,,,,,,,,,,,,,,,,,,,,,,,,,,,,,,,,,,,,4,0,4,0,1,,,,,,,,,,,,,,,,,,,,,
,,,,,,,,,,,,5ff743fd88a5713bd0d00583,28,Mężczyzna,2022-06-11_09h22.27.876,task,2021.1.4,Win32,60.0240096,6299f149e92ead563fba08ef,62a442965cf365a46289af1a,,,,,,,,,,,,,5,,,,,,,,,,Task,12,(4x4) - 11,5,,,,,,,,,,,,,,,,,,,1,,,,,,,,,,,,,,,,,,,,,,,"[""5""]",1,[2.0139999999998963],0,0,0,11,1,,,,,,,,,,,,,,,,,,,,,,,,,,
,,,,,,,,,,,X V Q F H G B L J M P D K C T S W R N Z,5ff743fd88a5713bd0d00583,28,Mężczyzna,2022-06-11_09h22.27.876,task,2021.1.4,Win32,60.0240096,6299f149e92ead563fba08ef,62a442965cf365a46289af1a,,,,,,,,,,,,,,,,,,,,,,,,,,,,,,,,,,,,,,,,,,,,,,,,,,,,,,,,,,,,,,,,,,,,,,,,,,,,5,0,5,0,1,,,,,,,,,,,,,,,,,,,,,
,,,,,,,,,,,,5ff743fd88a5713bd0d00583,28,Mężczyzna,2022-06-11_09h22.27.876,task,2021.1.4,Win32,60.0240096,6299f149e92ead563fba08ef,62a442965cf365a46289af1a,,,,,,,,,,,,,3,,,,,,,,,,Task,3,(2x3) - 3,3,,,,,,,,,,,,,,,,,,,1,,,,,,,,,,,,,,,,,,,,,,,"[""3""]",1,[3.7350000000000136],0,0,0,2,1,,,,,,,,,,,,,,,,,,,,,,,,,,
,,,,,,,,,,,X V Q F H G B L J M P D K C T S W R N Z,5ff743fd88a5713bd0d00583,28,Mężczyzna,2022-06-11_09h22.27.876,task,2021.1.4,Win32,60.0240096,6299f149e92ead563fba08ef,62a442965cf365a46289af1a,,,,,,,,,,,,,,,,,,,,,,,,,,,,,,,,,,,,,,,,,,,,,,,,,,,,,,,,,,,,,,,,,,,,,,,,,,,,6,0,6,0,1,,,,,,,,,,,,,,,,,,,,,
,,,,,,,,,,,,5ff743fd88a5713bd0d00583,28,Mężczyzna,2022-06-11_09h22.27.876,task,2021.1.4,Win32,60.0240096,6299f149e92ead563fba08ef,62a442965cf365a46289af1a,,,,,,,,,,,,,3,,,,,,,,,,Task,27,(3/3) + 2,3,,,,,,,,,,,,,,,,,,,1,,,,,,,,,,,,,,,,,,,,,,,"[""3""]",1,[3.714999999999918],0,0,0,26,1,,,,,,,,,,,,,,,,,,,,,,,,,,
,,,,,,,,,,,X V Q F H G B L J M P D K C T S W R N Z,5ff743fd88a5713bd0d00583,28,Mężczyzna,2022-06-11_09h22.27.876,task,2021.1.4,Win32,60.0240096,6299f149e92ead563fba08ef,62a442965cf365a46289af1a,,,,,,,,,,,,,,,,,,,,,,,,,,,,,,,,,,,,,,,,,,,,,,,,,,,,,,,,,,,,,,,,,,,,,,,,,,,,7,0,7,0,1,,,,,,,,,,,,,,,,,,,,,
,,,,,,,,,,,,5ff743fd88a5713bd0d00583,28,Mężczyzna,2022-06-11_09h22.27.876,task,2021.1.4,Win32,60.0240096,6299f149e92ead563fba08ef,62a442965cf365a46289af1a,,,,,,,,,,,,,,,,,,,,,,,,,,,,,,,,,,,,,,,,,,,,,,,,,,,,,,,,,,,,,,,,,,,,,,,,,,,,,,,,,ljxltdtkl,"[""l"",""j"",""x"",""l"",""t"",""d"",""t"",""k"",""l""]",0,"[1.7850000000000819,2.033999999999992,2.8029999999999973,4.115000000000009,4.984000000000037,5.58400000000006,6.831000000000017,7.268000000000029,8.065000000000055,8.900000000000091]",0,LJXLDTKM,7,0,7,0,1,,,,,,,,,,
,,,,,,,,,,,,5ff743fd88a5713bd0d00583,28,Mężczyzna,2022-06-11_09h22.27.876,task,2021.1.4,Win32,60.0240096,6299f149e92ead563fba08ef,62a442965cf365a46289af1a,,,,,,,,,,,,,2,,,,,,,,,,Task,2,(2x2) - 2,2,,,,,,,,,,,,,,,,,,,1,,,,,,,,,,,,,,,,,,,,,,,"[""2""]",1,[2.336999999999989],0,0,0,1,1,,,,,,,,,,,,,,,,,,,,,,,,,,
,,,,,,,,,,,X V Q F H G B L J M P D K C T S W R N Z,5ff743fd88a5713bd0d00583,28,Mężczyzna,2022-06-11_09h22.27.876,task,2021.1.4,Win32,60.0240096,6299f149e92ead563fba08ef,62a442965cf365a46289af1a,,,,,,,,,,,,,,,,,,,,,,,,,,,,,,,,,,,,,,,,,,,,,,,,,,,,,,,,,,,,,,,,,,,,,,,,,,,,0,0,0,0,1,,,,,,,,,,,,,,,,,,,,,
,,,,,,,,,,,,5ff743fd88a5713bd0d00583,28,Mężczyzna,2022-06-11_09h22.27.876,task,2021.1.4,Win32,60.0240096,6299f149e92ead563fba08ef,62a442965cf365a46289af1a,,,,,,,,,,,,,4,,,,,,,,,,Task,4,(1x5) - 1,4,,,,,,,,,,,,,,,,,,,1,,,,,,,,,,,,,,,,,,,,,,,"[""4""]",1,[2.379000000000019],0,0,0,3,1,,,,,,,,,,,,,,,,,,,,,,,,,,
,,,,,,,,,,,X V Q F H G B L J M P D K C T S W R N Z,5ff743fd88a5713bd0d00583,28,Mężczyzna,2022-06-11_09h22.27.876,task,2021.1.4,Win32,60.0240096,6299f149e92ead563fba08ef,62a442965cf365a46289af1a,,,,,,,,,,,,,,,,,,,,,,,,,,,,,,,,,,,,,,,,,,,,,,,,,,,,,,,,,,,,,,,,,,,,,,,,,,,,1,0,1,0,1,,,,,,,,,,,,,,,,,,,,,
,,,,,,,,,,,,5ff743fd88a5713bd0d00583,28,Mężczyzna,2022-06-11_09h22.27.876,task,2021.1.4,Win32,60.0240096,6299f149e92ead563fba08ef,62a442965cf365a46289af1a,,,,,,,,,,,,,1,,,,,,,,,,Task,1,(12/6) - 1,1,,,,,,,,,,,,,,,,,,,1,,,,,,,,,,,,,,,,,,,,,,,"[""1""]",1,[1.7799999999999727],0,0,0,0,1,,,,,,,,,,,,,,,,,,,,,,,,,,
,,,,,,,,,,,X V Q F H G B L J M P D K C T S W R N Z,5ff743fd88a5713bd0d00583,28,Mężczyzna,2022-06-11_09h22.27.876,task,2021.1.4,Win32,60.0240096,6299f149e92ead563fba08ef,62a442965cf365a46289af1a,,,,,,,,,,,,,,,,,,,,,,,,,,,,,,,,,,,,,,,,,,,,,,,,,,,,,,,,,,,,,,,,,,,,,,,,,,,,2,0,2,0,1,,,,,,,,,,,,,,,,,,,,,
,,,,,,,,,,,,5ff743fd88a5713bd0d00583,28,Mężczyzna,2022-06-11_09h22.27.876,task,2021.1.4,Win32,60.0240096,6299f149e92ead563fba08ef,62a442965cf365a46289af1a,,,,,,,,,,,,,7,,,,,,,,,,Task,14,(2x2) + 3,7,,,,,,,,,,,,,,,,,,,1,,,,,,,,,,,,,,,,,,,,,,,"[""7""]",1,[2.211999999999989],0,0,0,13,1,,,,,,,,,,,,,,,,,,,,,,,,,,
,,,,,,,,,,,X V Q F H G B L J M P D K C T S W R N Z,5ff743fd88a5713bd0d00583,28,Mężczyzna,2022-06-11_09h22.27.876,task,2021.1.4,Win32,60.0240096,6299f149e92ead563fba08ef,62a442965cf365a46289af1a,,,,,,,,,,,,,,,,,,,,,,,,,,,,,,,,,,,,,,,,,,,,,,,,,,,,,,,,,,,,,,,,,,,,,,,,,,,,3,0,3,0,1,,,,,,,,,,,,,,,,,,,,,
,,,,,,,,,,,,5ff743fd88a5713bd0d00583,28,Mężczyzna,2022-06-11_09h22.27.876,task,2021.1.4,Win32,60.0240096,6299f149e92ead563fba08ef,62a442965cf365a46289af1a,,,,,,,,,,,,,4,,,,,,,,,,Task,4,(1x5) - 1,4,,,,,,,,,,,,,,,,,,,1,,,,,,,,,,,,,,,,,,,,,,,"[""4""]",1,[2.147000000000048],0,0,0,3,1,,,,,,,,,,,,,,,,,,,,,,,,,,
,,,,,,,,,,,X V Q F H G B L J M P D K C T S W R N Z,5ff743fd88a5713bd0d00583,28,Mężczyzna,2022-06-11_09h22.27.876,task,2021.1.4,Win32,60.0240096,6299f149e92ead563fba08ef,62a442965cf365a46289af1a,,,,,,,,,,,,,,,,,,,,,,,,,,,,,,,,,,,,,,,,,,,,,,,,,,,,,,,,,,,,,,,,,,,,,,,,,,,,4,0,4,0,1,,,,,,,,,,,,,,,,,,,,,
,,,,,,,,,,,,5ff743fd88a5713bd0d00583,28,Mężczyzna,2022-06-11_09h22.27.876,task,2021.1.4,Win32,60.0240096,6299f149e92ead563fba08ef,62a442965cf365a46289af1a,,,,,,,,,,,,,6,,,,,,,,,,Task,13,(3x4) - 6,6,,,,,,,,,,,,,,,,,,,1,,,,,,,,,,,,,,,,,,,,,,,"[""6""]",1,[2.7070000000001073],0,0,0,12,1,,,,,,,,,,,,,,,,,,,,,,,,,,
,,,,,,,,,,,X V Q F H G B L J M P D K C T S W R N Z,5ff743fd88a5713bd0d00583,28,Mężczyzna,2022-06-11_09h22.27.876,task,2021.1.4,Win32,60.0240096,6299f149e92ead563fba08ef,62a442965cf365a46289af1a,,,,,,,,,,,,,,,,,,,,,,,,,,,,,,,,,,,,,,,,,,,,,,,,,,,,,,,,,,,,,,,,,,,,,,,,,,,,5,0,5,0,1,,,,,,,,,,,,,,,,,,,,,
,,,,,,,,,,,,5ff743fd88a5713bd0d00583,28,Mężczyzna,2022-06-11_09h22.27.876,task,2021.1.4,Win32,60.0240096,6299f149e92ead563fba08ef,62a442965cf365a46289af1a,,,,,,,,,,,,,6,,,,,,,,,,Task,37,(3/3) + 5,6,,,,,,,,,,,,,,,,,,,1,,,,,,,,,,,,,,,,,,,,,,,"[""6""]",1,[4.515999999999963],0,0,0,36,1,,,,,,,,,,,,,,,,,,,,,,,,,,
,,,,,,,,,,,X V Q F H G B L J M P D K C T S W R N Z,5ff743fd88a5713bd0d00583,28,Mężczyzna,2022-06-11_09h22.27.876,task,2021.1.4,Win32,60.0240096,6299f149e92ead563fba08ef,62a442965cf365a46289af1a,,,,,,,,,,,,,,,,,,,,,,,,,,,,,,,,,,,,,,,,,,,,,,,,,,,,,,,,,,,,,,,,,,,,,,,,,,,,6,0,6,0,1,,,,,,,,,,,,,,,,,,,,,
,,,,,,,,,,,,5ff743fd88a5713bd0d00583,28,Mężczyzna,2022-06-11_09h22.27.876,task,2021.1.4,Win32,60.0240096,6299f149e92ead563fba08ef,62a442965cf365a46289af1a,,,,,,,,,,,,,,,,,,,,,,,Task,29,(3x8) - 19 ,5,,,,,,,,,,,,,,,,,,,0,,,,,,,,,,,,,,,,,,,,,,,,0,,0,0,0,28,1,,,,,,,,,,,,,,,,,,,,,,,,,,
,,,,,,,,,,,,5ff743fd88a5713bd0d00583,28,Mężczyzna,2022-06-11_09h22.27.876,task,2021.1.4,Win32,60.0240096,6299f149e92ead563fba08ef,62a442965cf365a46289af1a,,,,,,,,,,,,,1,,,,,,,,,,Task,9,(3x7) - 20,1,,,,,,,,,,,,,,,,,,,1,,,,,,,,,,,,,,,,,,,,,,,"[""1""]",1,[1.1800000000000637],0,1,1,8,1,,,,,,,,,,,,,,,,,,,,,,,,,,
,,,,,,,,,,,X V Q F H G B L J M P D K C T S W R N Z,5ff743fd88a5713bd0d00583,28,Mężczyzna,2022-06-11_09h22.27.876,task,2021.1.4,Win32,60.0240096,6299f149e92ead563fba08ef,62a442965cf365a46289af1a,,,,,,,,,,,,,,,,,,,,,,,,,,,,,,,,,,,,,,,,,,,,,,,,,,,,,,,,,,,,,,,,,,,,,,,,,,,,7,0,7,0,1,,,,,,,,,,,,,,,,,,,,,
,,,,,,,,,,,,5ff743fd88a5713bd0d00583,28,Mężczyzna,2022-06-11_09h22.27.876,task,2021.1.4,Win32,60.0240096,6299f149e92ead563fba08ef,62a442965cf365a46289af1a,,,,,,,,,,,,,,,,,,,,,,,,,,,,,,,,,,,,,,,,,,,,,,,,,,,,,,,,,,,,,,,,,,,,,,,,,,,,,,,,,rxfnzjsq,"[""r"",""x"",""f"",""n"",""z"",""j"",""s"",""q""]",0,"[1.7340000000000373,2.3500000000000227,2.687000000000012,3.1509999999999536,3.8629999999999427,4.448999999999955,5.100000000000023,5.301000000000045,6.081000000000017]",1,RXFNZJSQ,8,0,8,0,1,,,,,,,,,,
,,,,,,,,,,,,5ff743fd88a5713bd0d00583,28,Mężczyzna,2022-06-11_09h22.27.876,task,2021.1.4,Win32,60.0240096,6299f149e92ead563fba08ef,62a442965cf365a46289af1a,,,,,,,,,,,,,4,,,,,,,,,,Task,11,(18/3) - 2,4,,,,,,,,,,,,,,,,,,,1,,,,,,,,,,,,,,,,,,,,,,,"[""4""]",1,[3.0970000000000937],0,0,0,10,1,,,,,,,,,,,,,,,,,,,,,,,,,,
,,,,,,,,,,,X V Q F H G B L J M P D K C T S W R N Z,5ff743fd88a5713bd0d00583,28,Mężczyzna,2022-06-11_09h22.27.876,task,2021.1.4,Win32,60.0240096,6299f149e92ead563fba08ef,62a442965cf365a46289af1a,,,,,,,,,,,,,,,,,,,,,,,,,,,,,,,,,,,,,,,,,,,,,,,,,,,,,,,,,,,,,,,,,,,,,,,,,,,,0,0,0,0,1,,,,,,,,,,,,,,,,,,,,,
,,,,,,,,,,,,5ff743fd88a5713bd0d00583,28,Mężczyzna,2022-06-11_09h22.27.876,task,2021.1.4,Win32,60.0240096,6299f149e92ead563fba08ef,62a442965cf365a46289af1a,,,,,,,,,,,,,9,,,,,,,,,,Task,15,(3x7) - 13,8,,,,,,,,,,,,,,,,,,,0,,,,,,,,,,,,,,,,,,,,,,,"[""9""]",0,[4.014999999999986],0,0,0,14,1,,,,,,,,,,,,,,,,,,,,,,,,,,
,,,,,,,,,,,,5ff743fd88a5713bd0d00583,28,Mężczyzna,2022-06-11_09h22.27.876,task,2021.1.4,Win32,60.0240096,6299f149e92ead563fba08ef,62a442965cf365a46289af1a,,,,,,,,,,,,,0,,,,,,,,,,Task,25,(10/5) - 2,0,,,,,,,,,,,,,,,,,,,1,,,,,,,,,,,,,,,,,,,,,,,"[""0""]",1,[3.01400000000001],0,1,1,24,1,,,,,,,,,,,,,,,,,,,,,,,,,,
,,,,,,,,,,,X V Q F H G B L J M P D K C T S W R N Z,5ff743fd88a5713bd0d00583,28,Mężczyzna,2022-06-11_09h22.27.876,task,2021.1.4,Win32,60.0240096,6299f149e92ead563fba08ef,62a442965cf365a46289af1a,,,,,,,,,,,,,,,,,,,,,,,,,,,,,,,,,,,,,,,,,,,,,,,,,,,,,,,,,,,,,,,,,,,,,,,,,,,,1,0,1,0,1,,,,,,,,,,,,,,,,,,,,,
,,,,,,,,,,,,5ff743fd88a5713bd0d00583,28,Mężczyzna,2022-06-11_09h22.27.876,task,2021.1.4,Win32,60.0240096,6299f149e92ead563fba08ef,62a442965cf365a46289af1a,,,,,,,,,,,,,1,,,,,,,,,,Task,18,(16/4) - 3,1,,,,,,,,,,,,,,,,,,,1,,,,,,,,,,,,,,,,,,,,,,,"[""1""]",1,[2.663000000000011],0,0,0,17,1,,,,,,,,,,,,,,,,,,,,,,,,,,
,,,,,,,,,,,X V Q F H G B L J M P D K C T S W R N Z,5ff743fd88a5713bd0d00583,28,Mężczyzna,2022-06-11_09h22.27.876,task,2021.1.4,Win32,60.0240096,6299f149e92ead563fba08ef,62a442965cf365a46289af1a,,,,,,,,,,,,,,,,,,,,,,,,,,,,,,,,,,,,,,,,,,,,,,,,,,,,,,,,,,,,,,,,,,,,,,,,,,,,2,0,2,0,1,,,,,,,,,,,,,,,,,,,,,
,,,,,,,,,,,,5ff743fd88a5713bd0d00583,28,Mężczyzna,2022-06-11_09h22.27.876,task,2021.1.4,Win32,60.0240096,6299f149e92ead563fba08ef,62a442965cf365a46289af1a,,,,,,,,,,,,,8,,,,,,,,,,Task,32,(8/2) + 4,8,,,,,,,,,,,,,,,,,,,1,,,,,,,,,,,,,,,,,,,,,,,"[""8""]",1,[2.1960000000000264],0,0,0,31,1,,,,,,,,,,,,,,,,,,,,,,,,,,
,,,,,,,,,,,X V Q F H G B L J M P D K C T S W R N Z,5ff743fd88a5713bd0d00583,28,Mężczyzna,2022-06-11_09h22.27.876,task,2021.1.4,Win32,60.0240096,6299f149e92ead563fba08ef,62a442965cf365a46289af1a,,,,,,,,,,,,,,,,,,,,,,,,,,,,,,,,,,,,,,,,,,,,,,,,,,,,,,,,,,,,,,,,,,,,,,,,,,,,3,0,3,0,1,,,,,,,,,,,,,,,,,,,,,
,,,,,,,,,,,,5ff743fd88a5713bd0d00583,28,Mężczyzna,2022-06-11_09h22.27.876,task,2021.1.4,Win32,60.0240096,6299f149e92ead563fba08ef,62a442965cf365a46289af1a,,,,,,,,,,,,,8,,,,,,,,,,Task,39,(5x3) - 7,8,,,,,,,,,,,,,,,,,,,1,,,,,,,,,,,,,,,,,,,,,,,"[""8""]",1,[4.197000000000003],0,0,0,38,1,,,,,,,,,,,,,,,,,,,,,,,,,,
,,,,,,,,,,,X V Q F H G B L J M P D K C T S W R N Z,5ff743fd88a5713bd0d00583,28,Mężczyzna,2022-06-11_09h22.27.876,task,2021.1.4,Win32,60.0240096,6299f149e92ead563fba08ef,62a442965cf365a46289af1a,,,,,,,,,,,,,,,,,,,,,,,,,,,,,,,,,,,,,,,,,,,,,,,,,,,,,,,,,,,,,,,,,,,,,,,,,,,,4,0,4,0,1,,,,,,,,,,,,,,,,,,,,,
,,,,,,,,,,,,5ff743fd88a5713bd0d00583,28,Mężczyzna,2022-06-11_09h22.27.876,task,2021.1.4,Win32,60.0240096,6299f149e92ead563fba08ef,62a442965cf365a46289af1a,,,,,,,,,,,,,1,,,,,,,,,,Task,34,(9/3) - 2,1,,,,,,,,,,,,,,,,,,,1,,,,,,,,,,,,,,,,,,,,,,,"[""1""]",1,[2.480000000000018],0,0,0,33,1,,,,,,,,,,,,,,,,,,,,,,,,,,
,,,,,,,,,,,X V Q F H G B L J M P D K C T S W R N Z,5ff743fd88a5713bd0d00583,28,Mężczyzna,2022-06-11_09h22.27.876,task,2021.1.4,Win32,60.0240096,6299f149e92ead563fba08ef,62a442965cf365a46289af1a,,,,,,,,,,,,,,,,,,,,,,,,,,,,,,,,,,,,,,,,,,,,,,,,,,,,,,,,,,,,,,,,,,,,,,,,,,,,5,0,5,0,1,,,,,,,,,,,,,,,,,,,,,
,,,,,,,,,,,,5ff743fd88a5713bd0d00583,28,Mężczyzna,2022-06-11_09h22.27.876,task,2021.1.4,Win32,60.0240096,6299f149e92ead563fba08ef,62a442965cf365a46289af1a,,,,,,,,,,,,,8,,,,,,,,,,Task,23,(2x3) + 2,8,,,,,,,,,,,,,,,,,,,1,,,,,,,,,,,,,,,,,,,,,,,"[""8""]",1,[2.9470000000000027],0,0,0,22,1,,,,,,,,,,,,,,,,,,,,,,,,,,
,,,,,,,,,,,X V Q F H G B L J M P D K C T S W R N Z,5ff743fd88a5713bd0d00583,28,Mężczyzna,2022-06-11_09h22.27.876,task,2021.1.4,Win32,60.0240096,6299f149e92ead563fba08ef,62a442965cf365a46289af1a,,,,,,,,,,,,,,,,,,,,,,,,,,,,,,,,,,,,,,,,,,,,,,,,,,,,,,,,,,,,,,,,,,,,,,,,,,,,6,0,6,0,1,,,,,,,,,,,,,,,,,,,,,
,,,,,,,,,,,,5ff743fd88a5713bd0d00583,28,Mężczyzna,2022-06-11_09h22.27.876,task,2021.1.4,Win32,60.0240096,6299f149e92ead563fba08ef,62a442965cf365a46289af1a,,,,,,,,,,,,,0,,,,,,,,,,Task,17,(2x3) - 6,0,,,,,,,,,,,,,,,,,,,1,,,,,,,,,,,,,,,,,,,,,,,"[""0""]",1,[2.9629999999999654],0,0,0,16,1,,,,,,,,,,,,,,,,,,,,,,,,,,
,,,,,,,,,,,X V Q F H G B L J M P D K C T S W R N Z,5ff743fd88a5713bd0d00583,28,Mężczyzna,2022-06-11_09h22.27.876,task,2021.1.4,Win32,60.0240096,6299f149e92ead563fba08ef,62a442965cf365a46289af1a,,,,,,,,,,,,,,,,,,,,,,,,,,,,,,,,,,,,,,,,,,,,,,,,,,,,,,,,,,,,,,,,,,,,,,,,,,,,7,0,7,0,1,,,,,,,,,,,,,,,,,,,,,
,,,,,,,,,,,,5ff743fd88a5713bd0d00583,28,Mężczyzna,2022-06-11_09h22.27.876,task,2021.1.4,Win32,60.0240096,6299f149e92ead563fba08ef,62a442965cf365a46289af1a,,,,,,,,,,,,,2,,,,,,,,,,Task,10,(2x5) - 8,2,,,,,,,,,,,,,,,,,,,1,,,,,,,,,,,,,,,,,,,,,,,"[""2""]",1,[2.4950000000000045],0,0,0,9,1,,,,,,,,,,,,,,,,,,,,,,,,,,
,,,,,,,,,,,X V Q F H G B L J M P D K C T S W R N Z,5ff743fd88a5713bd0d00583,28,Mężczyzna,2022-06-11_09h22.27.876,task,2021.1.4,Win32,60.0240096,6299f149e92ead563fba08ef,62a442965cf365a46289af1a,,,,,,,,,,,,,,,,,,,,,,,,,,,,,,,,,,,,,,,,,,,,,,,,,,,,,,,,,,,,,,,,,,,,,,,,,,,,8,0,8,0,1,,,,,,,,,,,,,,,,,,,,,
,,,,,,,,,,,,5ff743fd88a5713bd0d00583,28,Mężczyzna,2022-06-11_09h22.27.876,task,2021.1.4,Win32,60.0240096,6299f149e92ead563fba08ef,62a442965cf365a46289af1a,,,,,,,,,,,,,,,,,,,,,,,,,,,,,,,,,,,,,,,,,,,,,,,,,,,,,,,,,,,,,,,,,,,,,,,,,,,,,,,,,zxcrmscctj,"[""z"",""x"",""c"",""r"",""m"",""s"",""c"",""c"",""t"",""j""]",0,"[2.120999999999981,2.604000000000042,2.866999999999962,5.082000000000107,5.517000000000053,6.217000000000098,6.663999999999987,6.817999999999984,7.214999999999918,7.432000000000016,8.432999999999993]",0,TCDCMRSTJ,9,0,9,0,1,,,,,,,,,,
,,,,,,,,,,,,5ff743fd88a5713bd0d00583,28,Mężczyzna,2022-06-11_09h22.27.876,task,2021.1.4,Win32,60.0240096,6299f149e92ead563fba08ef,62a442965cf365a46289af1a,,,,,,,,,,,,,3,,,,,,,,,,Task,35,(1x2) + 1,3,,,,,,,,,,,,,,,,,,,1,,,,,,,,,,,,,,,,,,,,,,,"[""3""]",1,[2.461999999999989],0,0,0,34,1,,,,,,,,,,,,,,,,,,,,,,,,,,
,,,,,,,,,,,X V Q F H G B L J M P D K C T S W R N Z,5ff743fd88a5713bd0d00583,28,Mężczyzna,2022-06-11_09h22.27.876,task,2021.1.4,Win32,60.0240096,6299f149e92ead563fba08ef,62a442965cf365a46289af1a,,,,,,,,,,,,,,,,,,,,,,,,,,,,,,,,,,,,,,,,,,,,,,,,,,,,,,,,,,,,,,,,,,,,,,,,,,,,0,0,0,0,1,,,,,,,,,,,,,,,,,,,,,
,,,,,,,,,,,,5ff743fd88a5713bd0d00583,28,Mężczyzna,2022-06-11_09h22.27.876,task,2021.1.4,Win32,60.0240096,6299f149e92ead563fba08ef,62a442965cf365a46289af1a,,,,,,,,,,,,,1,,,,,,,,,,Task,16,(3x8) - 15,9,,,,,,,,,,,,,,,,,,,0,,,,,,,,,,,,,,,,,,,,,,,"[""1""]",0,[2.064000000000078],0,0,0,15,1,,,,,,,,,,,,,,,,,,,,,,,,,,
,,,,,,,,,,,,5ff743fd88a5713bd0d00583,28,Mężczyzna,2022-06-11_09h22.27.876,task,2021.1.4,Win32,60.0240096,6299f149e92ead563fba08ef,62a442965cf365a46289af1a,,,,,,,,,,,,,6,,,,,,,,,,Task,37,(3/3) + 5,6,,,,,,,,,,,,,,,,,,,1,,,,,,,,,,,,,,,,,,,,,,,"[""6""]",1,[4.314000000000078],0,1,1,36,1,,,,,,,,,,,,,,,,,,,,,,,,,,
,,,,,,,,,,,X V Q F H G B L J M P D K C T S W R N Z,5ff743fd88a5713bd0d00583,28,Mężczyzna,2022-06-11_09h22.27.876,task,2021.1.4,Win32,60.0240096,6299f149e92ead563fba08ef,62a442965cf365a46289af1a,,,,,,,,,,,,,,,,,,,,,,,,,,,,,,,,,,,,,,,,,,,,,,,,,,,,,,,,,,,,,,,,,,,,,,,,,,,,1,0,1,0,1,,,,,,,,,,,,,,,,,,,,,
,,,,,,,,,,,,5ff743fd88a5713bd0d00583,28,Mężczyzna,2022-06-11_09h22.27.876,task,2021.1.4,Win32,60.0240096,6299f149e92ead563fba08ef,62a442965cf365a46289af1a,,,,,,,,,,,,,,,,,,,,,,,Task,15,(3x7) - 13,8,,,,,,,,,,,,,,,,,,,0,,,,,,,,,,,,,,,,,,,,,,,,0,,0,0,0,14,1,,,,,,,,,,,,,,,,,,,,,,,,,,
,,,,,,,,,,,,5ff743fd88a5713bd0d00583,28,Mężczyzna,2022-06-11_09h22.27.876,task,2021.1.4,Win32,60.0240096,6299f149e92ead563fba08ef,62a442965cf365a46289af1a,,,,,,,,,,,,,6,,,,,,,,,,Task,30,(6/3) + 4 ,6,,,,,,,,,,,,,,,,,,,1,,,,,,,,,,,,,,,,,,,,,,,"[""6""]",1,[3.4329999999999927],0,1,1,29,1,,,,,,,,,,,,,,,,,,,,,,,,,,
,,,,,,,,,,,X V Q F H G B L J M P D K C T S W R N Z,5ff743fd88a5713bd0d00583,28,Mężczyzna,2022-06-11_09h22.27.876,task,2021.1.4,Win32,60.0240096,6299f149e92ead563fba08ef,62a442965cf365a46289af1a,,,,,,,,,,,,,,,,,,,,,,,,,,,,,,,,,,,,,,,,,,,,,,,,,,,,,,,,,,,,,,,,,,,,,,,,,,,,2,0,2,0,1,,,,,,,,,,,,,,,,,,,,,
,,,,,,,,,,,,5ff743fd88a5713bd0d00583,28,Mężczyzna,2022-06-11_09h22.27.876,task,2021.1.4,Win32,60.0240096,6299f149e92ead563fba08ef,62a442965cf365a46289af1a,,,,,,,,,,,,,1,,,,,,,,,,Task,1,(12/6) - 1,1,,,,,,,,,,,,,,,,,,,1,,,,,,,,,,,,,,,,,,,,,,,"[""1""]",1,[2.0130000000001473],0,0,0,0,1,,,,,,,,,,,,,,,,,,,,,,,,,,
,,,,,,,,,,,X V Q F H G B L J M P D K C T S W R N Z,5ff743fd88a5713bd0d00583,28,Mężczyzna,2022-06-11_09h22.27.876,task,2021.1.4,Win32,60.0240096,6299f149e92ead563fba08ef,62a442965cf365a46289af1a,,,,,,,,,,,,,,,,,,,,,,,,,,,,,,,,,,,,,,,,,,,,,,,,,,,,,,,,,,,,,,,,,,,,,,,,,,,,3,0,3,0,1,,,,,,,,,,,,,,,,,,,,,
,,,,,,,,,,,,5ff743fd88a5713bd0d00583,28,Mężczyzna,2022-06-11_09h22.27.876,task,2021.1.4,Win32,60.0240096,6299f149e92ead563fba08ef,62a442965cf365a46289af1a,,,,,,,,,,,,,2,,,,,,,,,,Task,2,(2x2) - 2,2,,,,,,,,,,,,,,,,,,,1,,,,,,,,,,,,,,,,,,,,,,,"[""2""]",1,[2.2200000000000273],0,0,0,1,1,,,,,,,,,,,,,,,,,,,,,,,,,,
,,,,,,,,,,,X V Q F H G B L J M P D K C T S W R N Z,5ff743fd88a5713bd0d00583,28,Mężczyzna,2022-06-11_09h22.27.876,task,2021.1.4,Win32,60.0240096,6299f149e92ead563fba08ef,62a442965cf365a46289af1a,,,,,,,,,,,,,,,,,,,,,,,,,,,,,,,,,,,,,,,,,,,,,,,,,,,,,,,,,,,,,,,,,,,,,,,,,,,,4,0,4,0,1,,,,,,,,,,,,,,,,,,,,,
,,,,,,,,,,,,5ff743fd88a5713bd0d00583,28,Mężczyzna,2022-06-11_09h22.27.876,task,2021.1.4,Win32,60.0240096,6299f149e92ead563fba08ef,62a442965cf365a46289af1a,,,,,,,,,,,,,,,,,,,,,,,Task,29,(3x8) - 19 ,5,,,,,,,,,,,,,,,,,,,0,,,,,,,,,,,,,,,,,,,,,,,,0,,0,0,0,28,1,,,,,,,,,,,,,,,,,,,,,,,,,,
,,,,,,,,,,,,5ff743fd88a5713bd0d00583,28,Mężczyzna,2022-06-11_09h22.27.876,task,2021.1.4,Win32,60.0240096,6299f149e92ead563fba08ef,62a442965cf365a46289af1a,,,,,,,,,,,,,4,,,,,,,,,,Task,28,(2x5) - 6,4,,,,,,,,,,,,,,,,,,,1,,,,,,,,,,,,,,,,,,,,,,,"[""4""]",1,[3.0420000000001437],0,1,1,27,1,,,,,,,,,,,,,,,,,,,,,,,,,,
,,,,,,,,,,,X V Q F H G B L J M P D K C T S W R N Z,5ff743fd88a5713bd0d00583,28,Mężczyzna,2022-06-11_09h22.27.876,task,2021.1.4,Win32,60.0240096,6299f149e92ead563fba08ef,62a442965cf365a46289af1a,,,,,,,,,,,,,,,,,,,,,,,,,,,,,,,,,,,,,,,,,,,,,,,,,,,,,,,,,,,,,,,,,,,,,,,,,,,,5,0,5,0,1,,,,,,,,,,,,,,,,,,,,,
,,,,,,,,,,,,5ff743fd88a5713bd0d00583,28,Mężczyzna,2022-06-11_09h22.27.876,task,2021.1.4,Win32,60.0240096,6299f149e92ead563fba08ef,62a442965cf365a46289af1a,,,,,,,,,,,,,3,,,,,,,,,,Task,27,(3/3) + 2,3,,,,,,,,,,,,,,,,,,,1,,,,,,,,,,,,,,,,,,,,,,,"[""3""]",1,[2.130999999999858],0,0,0,26,1,,,,,,,,,,,,,,,,,,,,,,,,,,
,,,,,,,,,,,X V Q F H G B L J M P D K C T S W R N Z,5ff743fd88a5713bd0d00583,28,Mężczyzna,2022-06-11_09h22.27.876,task,2021.1.4,Win32,60.0240096,6299f149e92ead563fba08ef,62a442965cf365a46289af1a,,,,,,,,,,,,,,,,,,,,,,,,,,,,,,,,,,,,,,,,,,,,,,,,,,,,,,,,,,,,,,,,,,,,,,,,,,,,6,0,6,0,1,,,,,,,,,,,,,,,,,,,,,
,,,,,,,,,,,,5ff743fd88a5713bd0d00583,28,Mężczyzna,2022-06-11_09h22.27.876,task,2021.1.4,Win32,60.0240096,6299f149e92ead563fba08ef,62a442965cf365a46289af1a,,,,,,,,,,,,,2,,,,,,,,,,Task,10,(2x5) - 8,2,,,,,,,,,,,,,,,,,,,1,,,,,,,,,,,,,,,,,,,,,,,"[""2""]",1,[2.382000000000062],0,0,0,9,1,,,,,,,,,,,,,,,,,,,,,,,,,,
,,,,,,,,,,,X V Q F H G B L J M P D K C T S W R N Z,5ff743fd88a5713bd0d00583,28,Mężczyzna,2022-06-11_09h22.27.876,task,2021.1.4,Win32,60.0240096,6299f149e92ead563fba08ef,62a442965cf365a46289af1a,,,,,,,,,,,,,,,,,,,,,,,,,,,,,,,,,,,,,,,,,,,,,,,,,,,,,,,,,,,,,,,,,,,,,,,,,,,,7,0,7,0,1,,,,,,,,,,,,,,,,,,,,,
,,,,,,,,,,,,5ff743fd88a5713bd0d00583,28,Mężczyzna,2022-06-11_09h22.27.876,task,2021.1.4,Win32,60.0240096,6299f149e92ead563fba08ef,62a442965cf365a46289af1a,,,,,,,,,,,,,6,,,,,,,,,,Task,6,(12/2) + 1,7,,,,,,,,,,,,,,,,,,,0,,,,,,,,,,,,,,,,,,,,,,,"[""6""]",0,[2.255000000000109],0,0,0,5,1,,,,,,,,,,,,,,,,,,,,,,,,,,
,,,,,,,,,,,,5ff743fd88a5713bd0d00583,28,Mężczyzna,2022-06-11_09h22.27.876,task,2021.1.4,Win32,60.0240096,6299f149e92ead563fba08ef,62a442965cf365a46289af1a,,,,,,,,,,,,,6,,,,,,,,,,Task,32,(8/2) + 4,8,,,,,,,,,,,,,,,,,,,0,,,,,,,,,,,,,,,,,,,,,,,"[""6""]",0,[2.7799999999999727],0,1,1,31,1,,,,,,,,,,,,,,,,,,,,,,,,,,
,,,,,,,,,,,,5ff743fd88a5713bd0d00583,28,Mężczyzna,2022-06-11_09h22.27.876,task,2021.1.4,Win32,60.0240096,6299f149e92ead563fba08ef,62a442965cf365a46289af1a,,,,,,,,,,,,,0,,,,,,,,,,Task,17,(2x3) - 6,0,,,,,,,,,,,,,,,,,,,1,,,,,,,,,,,,,,,,,,,,,,,"[""0""]",1,[2.745999999999867],0,2,2,16,1,,,,,,,,,,,,,,,,,,,,,,,,,,
,,,,,,,,,,,X V Q F H G B L J M P D K C T S W R N Z,5ff743fd88a5713bd0d00583,28,Mężczyzna,2022-06-11_09h22.27.876,task,2021.1.4,Win32,60.0240096,6299f149e92ead563fba08ef,62a442965cf365a46289af1a,,,,,,,,,,,,,,,,,,,,,,,,,,,,,,,,,,,,,,,,,,,,,,,,,,,,,,,,,,,,,,,,,,,,,,,,,,,,8,0,8,0,1,,,,,,,,,,,,,,,,,,,,,
,,,,,,,,,,,,5ff743fd88a5713bd0d00583,28,Mężczyzna,2022-06-11_09h22.27.876,task,2021.1.4,Win32,60.0240096,6299f149e92ead563fba08ef,62a442965cf365a46289af1a,,,,,,,,,,,,,,,,,,,,,,,,,,,,,,,,,,,,,,,,,,,,,,,,,,,,,,,,,,,,,,,,,,,,,,,,,,,,,,,,,zxwcgcv,"[""z"",""x"",""w"",""c"",""g"",""c"",""v""]",0,"[1.7690000000000055,2.201000000000022,3.19399999999996,3.5039999999999054,4.0470000000000255,5.4659999999998945,5.698000000000093,6.3840000000000146]",0,HXWCQGVBS,10,0,10,0,1,,,,,,,,,,
,,,,,,,,,,,,5ff743fd88a5713bd0d00583,28,Mężczyzna,2022-06-11_09h22.27.876,task,2021.1.4,Win32,60.0240096,6299f149e92ead563fba08ef,62a442965cf365a46289af1a,,,,,,,,,,,,,,,,,,,,,,,,,,,,,,,,,,,,,,,,,,,,,,,,,,,,,,,,,,,,,,,,,,,,,,,,,,,,,,,,,,,,,,,,,,,,,0,0,0,0,0,1,,,
,,,,,,,,,,,,5ff743fd88a5713bd0d00583,28,Mężczyzna,2022-06-11_09h22.27.876,task,2021.1.4,Win32,60.0240096,6299f149e92ead563fba08ef,62a442965cf365a46289af1a,,,,,,,,,,,,,,,,,,,,,,,,,,,,,,,,,,,,,,,,,,,,,,,,,,,,,,,,,,,,,,,,,,,,,,,,,,,,,,,,,,,,,,,,,,,,"[""period"",""period""]",0,1,0,1,0,1,"[0.2860000000000582,0.5050000000001091]",,
,,,,,,,,,,,,5ff743fd88a5713bd0d00583,28,Mężczyzna,2022-06-11_09h22.27.876,task,2021.1.4,Win32,60.0240096,6299f149e92ead563fba08ef,62a442965cf365a46289af1a,,,,,,,,,,,,,,,,,,,,,,,,,,,,,,,,,,,,,,,,,,,,,,,,,,,,,,,,,,,,,,,,,,,,,,,,,,,,,,,,,,,,,,,,,,,,"[""comma""]",0,2,0,2,0,1,[0.3040000000000873],,
,,,,,,,,,,,,5ff743fd88a5713bd0d00583,28,Mężczyzna,2022-06-11_09h22.27.876,task,2021.1.4,Win32,60.0240096,6299f149e92ead563fba08ef,62a442965cf365a46289af1a,,,,,,,,,,,,,,,,,,,,,,,,,,,,,,,,,,,,,,,,,,,,,,,,,,,,,,,,,,,,,,,,,,,,,,,,,,,,,,,,,,,,,,,,,,,,"[""period""]",0,3,0,3,0,1,[0.31500000000005457],,
,,,,,,,,,,,,5ff743fd88a5713bd0d00583,28,Mężczyzna,2022-06-11_09h22.27.876,task,2021.1.4,Win32,60.0240096,6299f149e92ead563fba08ef,62a442965cf365a46289af1a,,,,,,,,,,,,,,,,,,,,,,,,,,,,,,,,,,,,,,,,,,,,,,,,,,,,,,,,,,,,,,,,,,,,,,,,,,,,,,,,,,,,,,,,,,,,"[""comma""]",0,4,0,4,0,1,[0.3450000000000273],,
,,,,,,,,,,,,5ff743fd88a5713bd0d00583,28,Mężczyzna,2022-06-11_09h22.27.876,task,2021.1.4,Win32,60.0240096,6299f149e92ead563fba08ef,62a442965cf365a46289af1a,,,,,,,,,,,,,,,,,,,,,,,,,,,,,,,,,,,,,,,,,,,,,,,,,,,,,,,,,,,,,,,,,,,,,,,,,,,,,,,,,,,,,,,,,,,,"[""period""]",0,5,0,5,0,1,[0.30399999999985994],,
,,,,,,,,,,,,5ff743fd88a5713bd0d00583,28,Mężczyzna,2022-06-11_09h22.27.876,task,2021.1.4,Win32,60.0240096,6299f149e92ead563fba08ef,62a442965cf365a46289af1a,,,,,,,,,,,,,,,,,,,,,,,,,,,,,,,,,,,,,,,,,,,,,,,,,,,,,,,,,,,,,,,,,,,,,,,,,,,,,,,,,,,,,,,,,,,,"[""comma""]",0,6,0,6,0,1,[0.23699999999985266],,
,,,,,,,,,,,,5ff743fd88a5713bd0d00583,28,Mężczyzna,2022-06-11_09h22.27.876,task,2021.1.4,Win32,60.0240096,6299f149e92ead563fba08ef,62a442965cf365a46289af1a,,,,,,,,,,,,,,,,,,,,,,,,,,,,,,,,,,,,,,,,,,,,,,,,,,,,,,,,,,,,,,,,,,,,,,,,,,,,,,,,,,,,,,,,,,,,"[""period""]",0,7,0,7,0,1,[0.265999999999849],,
,,,,,,,,,,,,5ff743fd88a5713bd0d00583,28,Mężczyzna,2022-06-11_09h22.27.876,task,2021.1.4,Win32,60.0240096,6299f149e92ead563fba08ef,62a442965cf365a46289af1a,,,,,,,,,,,,,,,,,,,,,,,,,,,,,,,,,,,,,,,,,,,,,,,,,,,,,,,,,,,,,,,,,,,,,,,,,,,,,,,,,,,,,,,,,,,,"[""comma""]",0,8,0,8,0,1,[0.25499999999988177],,
,,,,,,,,,,,,5ff743fd88a5713bd0d00583,28,Mężczyzna,2022-06-11_09h22.27.876,task,2021.1.4,Win32,60.0240096,6299f149e92ead563fba08ef,62a442965cf365a46289af1a,,,,,,,,,,,,,,,,,,,,,,,,,,,,,,,,,,,,,,,,,,,,,,,,,,,,,,,,,,,,,,,,,,,,,,,,,,,,,,,,,,,,,,,,,,,,"[""period""]",0,9,0,9,0,1,[0.29900000000020555],,
,,,,,,,,,,,,5ff743fd88a5713bd0d00583,28,Mężczyzna,2022-06-11_09h22.27.876,task,2021.1.4,Win32,60.0240096,6299f149e92ead563fba08ef,62a442965cf365a46289af1a,,,,,,,,,,,,,,,,,,,,,,,,,,,,,,,,,,,,,,,,,,,,,,,,,,,,,,,,,,,,,,,,,,,,,,,,,,,,,,,,,,,,,,,,,,,,"[""comma""]",0,10,0,10,0,1,[0.2960000000000491],,
,,,,,,,,,,,,5ff743fd88a5713bd0d00583,28,Mężczyzna,2022-06-11_09h22.27.876,task,2021.1.4,Win32,60.0240096,6299f149e92ead563fba08ef,62a442965cf365a46289af1a,,,,,,,,,,,,,,,,,,,,,,,,,,,,,,,,,,,,,,,,,,,,,,,,,,,,,,,,,,,,,,,,,,,,,,,,,,,,,,,,,,,,,,,,,,,,"[""period""]",0,11,0,11,0,1,[0.3829999999998108],,
,,,,,,,,,,,,5ff743fd88a5713bd0d00583,28,Mężczyzna,2022-06-11_09h22.27.876,task,2021.1.4,Win32,60.0240096,6299f149e92ead563fba08ef,62a442965cf365a46289af1a,,,,,,,,,,,,,,,,,,,,,,,,,,,,,,,,,,,,,,,,,,,,,,,,,,,,,,,,,,,,,,,,,,,,,,,,,,,,,,,,,,,,,,,,,,,,"[""comma""]",0,12,0,12,0,1,[0.28100000000017644],,
,,,,,,,,,,,,5ff743fd88a5713bd0d00583,28,Mężczyzna,2022-06-11_09h22.27.876,task,2021.1.4,Win32,60.0240096,6299f149e92ead563fba08ef,62a442965cf365a46289af1a,,,,,,,,,,,,,,,,,,,,,,,,,,,,,,,,,,,,,,,,,,,,,,,,,,,,,,,,,,,,,,,,,,,,,,,,,,,,,,,,,,,,,,,,,,,,"[""period""]",0,13,0,13,0,1,[0.32600000000002183],,
,,,,,,,,,,,,5ff743fd88a5713bd0d00583,28,Mężczyzna,2022-06-11_09h22.27.876,task,2021.1.4,Win32,60.0240096,6299f149e92ead563fba08ef,62a442965cf365a46289af1a,,,,,,,,,,,,,,,,,,,,,,,,,,,,,,,,,,,,,,,,,,,,,,,,,,,,,,,,,,,,,,,,,,,,,,,,,,,,,,,,,,,,,,,,,,,,"[""comma""]",0,14,0,14,0,1,[0.30600000000004],,
,,,,,,,,,,,,5ff743fd88a5713bd0d00583,28,Mężczyzna,2022-06-11_09h22.27.876,task,2021.1.4,Win32,60.0240096,6299f149e92ead563fba08ef,62a442965cf365a46289af1a,,,,,,,,,,,,,,,,,,,,,,,,,,,,,,,,,,,,,,,,,,,,,,,,,,,,,,,,,,,,,,,,,,,,,,,,,,,,,,,,,,,,,,,,,,,,"[""period""]",0,15,0,15,0,1,[0.3170000000000073],,
