key_resp_15.keys,key_resp_15.rt,key_resp_16.keys,key_resp_16.rt,key_resp_4.keys,key_resp_4.rt,next_letter.thisRepN,next_letter.thisTrialN,next_letter.thisN,next_letter.thisIndex,next_letter.ran,letter,participant,Wiek*,Płeć,date,expName,psychopyVersion,OS,frameRate,study_id,session,simple_recall,key_resp_5.keys,key_resp_5.rt,simple_recall_corr,simple_recall_corrkeys,next_level.thisRepN,next_level.thisTrialN,next_level.thisN,next_level.thisIndex,next_level.ran,key_resp_2.keys,key_resp_2.rt,digit_answer,key_resp.keys,key_resp.corr,key_resp.rt,RT_list,next_equation.thisRepN,next_equation.thisTrialN,next_equation.thisN,next_equation.thisIndex,next_equation.ran,Task,Trial,Problem,Operation_answer,processing_score,sumRT,meanRT,sumdiff,sd,RT,key_resp_3.keys,key_resp_3.rt,repeat_practice.thisRepN,repeat_practice.thisTrialN,repeat_practice.thisN,repeat_practice.thisIndex,repeat_practice.ran,key_resp_6.keys,key_resp_6.rt,key_resp_11.keys,key_resp_11.corr,operation_correct,repeat_if_wrong_prac.thisRepN,repeat_if_wrong_prac.thisTrialN,repeat_if_wrong_prac.thisN,repeat_if_wrong_prac.thisIndex,repeat_if_wrong_prac.ran,key_resp_11.rt,span_size_prac.thisRepN,span_size_prac.thisTrialN,span_size_prac.thisN,span_size_prac.thisIndex,span_size_prac.ran,complex_recall_practice,key_resp_9.keys,key_resp_9.corr,key_resp_9.rt,complex_prac_corr,span_recall_prac.thisRepN,span_recall_prac.thisTrialN,span_recall_prac.thisN,span_recall_prac.thisIndex,span_recall_prac.ran,key_resp_10.keys,key_resp_10.rt,key_resp_7.keys,key_resp_7.corr,key_resp_7.rt,repeat_if_wrong.thisRepN,repeat_if_wrong.thisTrialN,repeat_if_wrong.thisN,repeat_if_wrong.thisIndex,repeat_if_wrong.ran,span_size.thisRepN,span_size.thisTrialN,span_size.thisN,span_size.thisIndex,span_size.ran,complex_recall,key_resp_8.keys,key_resp_8.corr,key_resp_8.rt,complex_recall_corr,complex_recall_corrkeys,span_recall.thisRepN,span_recall.thisTrialN,span_recall.thisN,span_recall.thisIndex,span_recall.ran,key_resp_13.keys,key_resp_13.corr,key_resp_13.rt,random_loop.thisRepN,random_loop.thisTrialN,random_loop.thisN,random_loop.thisIndex,random_loop.ran,key_resp_12.keys,key_resp_12.rt
space,3.4052,space,13.2153,space,6.5919,0,0,0,0,1,X V Q F H G B L J M P D K C T S W R N Z,5ffdd8d1b2325f3c1f6edc6b,53,Mężczyzna,2022-06-25_15h40.11.138,task,2021.1.4,Win32,60.01680471,6299f149e92ead563fba08ef,62b70e43662c8674ae400b49,,,,,,,,,,,,,,,,,,,,,,,,,,,,,,,,,,,,,,,,,,,,,,,,,,,,,,,,,,,,,,,,,,,,,,,,,,,,,,,,,,,,,,,,,,,,,,,,,,,,,
,,,,,,1,0,1,0,1,X V Q F H G B L J M P D K C T S W R N Z,5ffdd8d1b2325f3c1f6edc6b,53,Mężczyzna,2022-06-25_15h40.11.138,task,2021.1.4,Win32,60.01680471,6299f149e92ead563fba08ef,62b70e43662c8674ae400b49,,,,,,,,,,,,,,,,,,,,,,,,,,,,,,,,,,,,,,,,,,,,,,,,,,,,,,,,,,,,,,,,,,,,,,,,,,,,,,,,,,,,,,,,,,,,,,,,,,,,,
,,,,,,,,,,,,5ffdd8d1b2325f3c1f6edc6b,53,Mężczyzna,2022-06-25_15h40.11.138,task,2021.1.4,Win32,60.01680471,6299f149e92ead563fba08ef,62b70e43662c8674ae400b49,zt,"[""z"",""t""]","[2.494800000011921,3.05239999997616,5.170899999976157]",1,ZT,0,0,0,0,1,,,,,,,,,,,,,,,,,,,,,,,,,,,,,,,,,,,,,,,,,,,,,,,,,,,,,,,,,,,,,,,,,,,,,,,,,,,,,,,,,,,,,,,,,,,
,,,,,,0,0,0,0,1,X V Q F H G B L J M P D K C T S W R N Z,5ffdd8d1b2325f3c1f6edc6b,53,Mężczyzna,2022-06-25_15h40.11.138,task,2021.1.4,Win32,60.01680471,6299f149e92ead563fba08ef,62b70e43662c8674ae400b49,,,,,,,,,,,,,,,,,,,,,,,,,,,,,,,,,,,,,,,,,,,,,,,,,,,,,,,,,,,,,,,,,,,,,,,,,,,,,,,,,,,,,,,,,,,,,,,,,,,,,
,,,,,,1,0,1,0,1,X V Q F H G B L J M P D K C T S W R N Z,5ffdd8d1b2325f3c1f6edc6b,53,Mężczyzna,2022-06-25_15h40.11.138,task,2021.1.4,Win32,60.01680471,6299f149e92ead563fba08ef,62b70e43662c8674ae400b49,,,,,,,,,,,,,,,,,,,,,,,,,,,,,,,,,,,,,,,,,,,,,,,,,,,,,,,,,,,,,,,,,,,,,,,,,,,,,,,,,,,,,,,,,,,,,,,,,,,,,
,,,,,,,,,,,,5ffdd8d1b2325f3c1f6edc6b,53,Mężczyzna,2022-06-25_15h40.11.138,task,2021.1.4,Win32,60.01680471,6299f149e92ead563fba08ef,62b70e43662c8674ae400b49,sb,"[""s"",""b""]","[2.0544999999999973,2.4006999999880776,4.751999999999995]",1,SB,1,0,1,0,1,,,,,,,,,,,,,,,,,,,,,,,,,,,,,,,,,,,,,,,,,,,,,,,,,,,,,,,,,,,,,,,,,,,,,,,,,,,,,,,,,,,,,,,,,,,
,,,,,,0,0,0,0,1,X V Q F H G B L J M P D K C T S W R N Z,5ffdd8d1b2325f3c1f6edc6b,53,Mężczyzna,2022-06-25_15h40.11.138,task,2021.1.4,Win32,60.01680471,6299f149e92ead563fba08ef,62b70e43662c8674ae400b49,,,,,,,,,,,,,,,,,,,,,,,,,,,,,,,,,,,,,,,,,,,,,,,,,,,,,,,,,,,,,,,,,,,,,,,,,,,,,,,,,,,,,,,,,,,,,,,,,,,,,
,,,,,,1,0,1,0,1,X V Q F H G B L J M P D K C T S W R N Z,5ffdd8d1b2325f3c1f6edc6b,53,Mężczyzna,2022-06-25_15h40.11.138,task,2021.1.4,Win32,60.01680471,6299f149e92ead563fba08ef,62b70e43662c8674ae400b49,,,,,,,,,,,,,,,,,,,,,,,,,,,,,,,,,,,,,,,,,,,,,,,,,,,,,,,,,,,,,,,,,,,,,,,,,,,,,,,,,,,,,,,,,,,,,,,,,,,,,
,,,,,,2,0,2,0,1,X V Q F H G B L J M P D K C T S W R N Z,5ffdd8d1b2325f3c1f6edc6b,53,Mężczyzna,2022-06-25_15h40.11.138,task,2021.1.4,Win32,60.01680471,6299f149e92ead563fba08ef,62b70e43662c8674ae400b49,,,,,,,,,,,,,,,,,,,,,,,,,,,,,,,,,,,,,,,,,,,,,,,,,,,,,,,,,,,,,,,,,,,,,,,,,,,,,,,,,,,,,,,,,,,,,,,,,,,,,
,,,,,,,,,,,,5ffdd8d1b2325f3c1f6edc6b,53,Mężczyzna,2022-06-25_15h40.11.138,task,2021.1.4,Win32,60.01680471,6299f149e92ead563fba08ef,62b70e43662c8674ae400b49,qwt,"[""q"",""w"",""t""]","[2.6345999999642373,3.1011999999880757,3.5016999999880767,4.134899999976156]",1,QWT,2,0,2,0,1,,,,,,,,,,,,,,,,,,,,,,,,,,,,,,,,,,,,,,,,,,,,,,,,,,,,,,,,,,,,,,,,,,,,,,,,,,,,,,,,,,,,,,,,,,,
,,,,,,0,0,0,0,1,X V Q F H G B L J M P D K C T S W R N Z,5ffdd8d1b2325f3c1f6edc6b,53,Mężczyzna,2022-06-25_15h40.11.138,task,2021.1.4,Win32,60.01680471,6299f149e92ead563fba08ef,62b70e43662c8674ae400b49,,,,,,,,,,,,,,,,,,,,,,,,,,,,,,,,,,,,,,,,,,,,,,,,,,,,,,,,,,,,,,,,,,,,,,,,,,,,,,,,,,,,,,,,,,,,,,,,,,,,,
,,,,,,1,0,1,0,1,X V Q F H G B L J M P D K C T S W R N Z,5ffdd8d1b2325f3c1f6edc6b,53,Mężczyzna,2022-06-25_15h40.11.138,task,2021.1.4,Win32,60.01680471,6299f149e92ead563fba08ef,62b70e43662c8674ae400b49,,,,,,,,,,,,,,,,,,,,,,,,,,,,,,,,,,,,,,,,,,,,,,,,,,,,,,,,,,,,,,,,,,,,,,,,,,,,,,,,,,,,,,,,,,,,,,,,,,,,,
,,,,,,2,0,2,0,1,X V Q F H G B L J M P D K C T S W R N Z,5ffdd8d1b2325f3c1f6edc6b,53,Mężczyzna,2022-06-25_15h40.11.138,task,2021.1.4,Win32,60.01680471,6299f149e92ead563fba08ef,62b70e43662c8674ae400b49,,,,,,,,,,,,,,,,,,,,,,,,,,,,,,,,,,,,,,,,,,,,,,,,,,,,,,,,,,,,,,,,,,,,,,,,,,,,,,,,,,,,,,,,,,,,,,,,,,,,,
,,,,,,,,,,,,5ffdd8d1b2325f3c1f6edc6b,53,Mężczyzna,2022-06-25_15h40.11.138,task,2021.1.4,Win32,60.01680471,6299f149e92ead563fba08ef,62b70e43662c8674ae400b49,wtn,"[""w"",""t"",""n""]","[1.0333999999761545,1.3818000000119213,1.9661999999880706,2.550100000023825]",1,WTN,3,0,3,0,1,,,,,,,,,,,,,,,,,,,,,,,,,,,,,,,,,,,,,,,,,,,,,,,,,,,,,,,,,,,,,,,,,,,,,,,,,,,,,,,,,,,,,,,,,,,
,,,,,,0,0,0,0,1,X V Q F H G B L J M P D K C T S W R N Z,5ffdd8d1b2325f3c1f6edc6b,53,Mężczyzna,2022-06-25_15h40.11.138,task,2021.1.4,Win32,60.01680471,6299f149e92ead563fba08ef,62b70e43662c8674ae400b49,,,,,,,,,,,,,,,,,,,,,,,,,,,,,,,,,,,,,,,,,,,,,,,,,,,,,,,,,,,,,,,,,,,,,,,,,,,,,,,,,,,,,,,,,,,,,,,,,,,,,
,,,,,,1,0,1,0,1,X V Q F H G B L J M P D K C T S W R N Z,5ffdd8d1b2325f3c1f6edc6b,53,Mężczyzna,2022-06-25_15h40.11.138,task,2021.1.4,Win32,60.01680471,6299f149e92ead563fba08ef,62b70e43662c8674ae400b49,,,,,,,,,,,,,,,,,,,,,,,,,,,,,,,,,,,,,,,,,,,,,,,,,,,,,,,,,,,,,,,,,,,,,,,,,,,,,,,,,,,,,,,,,,,,,,,,,,,,,
,,,,,,2,0,2,0,1,X V Q F H G B L J M P D K C T S W R N Z,5ffdd8d1b2325f3c1f6edc6b,53,Mężczyzna,2022-06-25_15h40.11.138,task,2021.1.4,Win32,60.01680471,6299f149e92ead563fba08ef,62b70e43662c8674ae400b49,,,,,,,,,,,,,,,,,,,,,,,,,,,,,,,,,,,,,,,,,,,,,,,,,,,,,,,,,,,,,,,,,,,,,,,,,,,,,,,,,,,,,,,,,,,,,,,,,,,,,
,,,,,,3,0,3,0,1,X V Q F H G B L J M P D K C T S W R N Z,5ffdd8d1b2325f3c1f6edc6b,53,Mężczyzna,2022-06-25_15h40.11.138,task,2021.1.4,Win32,60.01680471,6299f149e92ead563fba08ef,62b70e43662c8674ae400b49,,,,,,,,,,,,,,,,,,,,,,,,,,,,,,,,,,,,,,,,,,,,,,,,,,,,,,,,,,,,,,,,,,,,,,,,,,,,,,,,,,,,,,,,,,,,,,,,,,,,,
,,,,,,,,,,,,5ffdd8d1b2325f3c1f6edc6b,53,Mężczyzna,2022-06-25_15h40.11.138,task,2021.1.4,Win32,60.01680471,6299f149e92ead563fba08ef,62b70e43662c8674ae400b49,prlf,"[""p"",""r"",""l"",""f""]","[1.551800000011923,2.240100000023844,3.0136999999880913,4.0481999999880856,4.667399999976169]",1,PRLF,4,0,4,0,1,,,,,,,,,,,,,,,,,,,,,,,,,,,,,,,,,,,,,,,,,,,,,,,,,,,,,,,,,,,,,,,,,,,,,,,,,,,,,,,,,,,,,,,,,,,
,,,,,,0,0,0,0,1,X V Q F H G B L J M P D K C T S W R N Z,5ffdd8d1b2325f3c1f6edc6b,53,Mężczyzna,2022-06-25_15h40.11.138,task,2021.1.4,Win32,60.01680471,6299f149e92ead563fba08ef,62b70e43662c8674ae400b49,,,,,,,,,,,,,,,,,,,,,,,,,,,,,,,,,,,,,,,,,,,,,,,,,,,,,,,,,,,,,,,,,,,,,,,,,,,,,,,,,,,,,,,,,,,,,,,,,,,,,
,,,,,,1,0,1,0,1,X V Q F H G B L J M P D K C T S W R N Z,5ffdd8d1b2325f3c1f6edc6b,53,Mężczyzna,2022-06-25_15h40.11.138,task,2021.1.4,Win32,60.01680471,6299f149e92ead563fba08ef,62b70e43662c8674ae400b49,,,,,,,,,,,,,,,,,,,,,,,,,,,,,,,,,,,,,,,,,,,,,,,,,,,,,,,,,,,,,,,,,,,,,,,,,,,,,,,,,,,,,,,,,,,,,,,,,,,,,
,,,,,,2,0,2,0,1,X V Q F H G B L J M P D K C T S W R N Z,5ffdd8d1b2325f3c1f6edc6b,53,Mężczyzna,2022-06-25_15h40.11.138,task,2021.1.4,Win32,60.01680471,6299f149e92ead563fba08ef,62b70e43662c8674ae400b49,,,,,,,,,,,,,,,,,,,,,,,,,,,,,,,,,,,,,,,,,,,,,,,,,,,,,,,,,,,,,,,,,,,,,,,,,,,,,,,,,,,,,,,,,,,,,,,,,,,,,
,,,,,,3,0,3,0,1,X V Q F H G B L J M P D K C T S W R N Z,5ffdd8d1b2325f3c1f6edc6b,53,Mężczyzna,2022-06-25_15h40.11.138,task,2021.1.4,Win32,60.01680471,6299f149e92ead563fba08ef,62b70e43662c8674ae400b49,,,,,,,,,,,,,,,,,,,,,,,,,,,,,,,,,,,,,,,,,,,,,,,,,,,,,,,,,,,,,,,,,,,,,,,,,,,,,,,,,,,,,,,,,,,,,,,,,,,,,
,,,,,,,,,,,,5ffdd8d1b2325f3c1f6edc6b,53,Mężczyzna,2022-06-25_15h40.11.138,task,2021.1.4,Win32,60.01680471,6299f149e92ead563fba08ef,62b70e43662c8674ae400b49,jfkh,"[""j"",""f"",""k"",""h""]","[2.176599999964239,2.826899999976149,3.6939999999999884,4.051599999964239,4.636199999988079]",1,JFKH,5,0,5,0,1,,,,,,,,,,,,,,,,,,,,,,,,,,,,,,,,,,,,,,,,,,,,,,,,,,,,,,,,,,,,,,,,,,,,,,,,,,,,,,,,,,,,,,,,,,,
,,,,,,0,0,0,0,1,X V Q F H G B L J M P D K C T S W R N Z,5ffdd8d1b2325f3c1f6edc6b,53,Mężczyzna,2022-06-25_15h40.11.138,task,2021.1.4,Win32,60.01680471,6299f149e92ead563fba08ef,62b70e43662c8674ae400b49,,,,,,,,,,,,,,,,,,,,,,,,,,,,,,,,,,,,,,,,,,,,,,,,,,,,,,,,,,,,,,,,,,,,,,,,,,,,,,,,,,,,,,,,,,,,,,,,,,,,,
,,,,,,1,0,1,0,1,X V Q F H G B L J M P D K C T S W R N Z,5ffdd8d1b2325f3c1f6edc6b,53,Mężczyzna,2022-06-25_15h40.11.138,task,2021.1.4,Win32,60.01680471,6299f149e92ead563fba08ef,62b70e43662c8674ae400b49,,,,,,,,,,,,,,,,,,,,,,,,,,,,,,,,,,,,,,,,,,,,,,,,,,,,,,,,,,,,,,,,,,,,,,,,,,,,,,,,,,,,,,,,,,,,,,,,,,,,,
,,,,,,2,0,2,0,1,X V Q F H G B L J M P D K C T S W R N Z,5ffdd8d1b2325f3c1f6edc6b,53,Mężczyzna,2022-06-25_15h40.11.138,task,2021.1.4,Win32,60.01680471,6299f149e92ead563fba08ef,62b70e43662c8674ae400b49,,,,,,,,,,,,,,,,,,,,,,,,,,,,,,,,,,,,,,,,,,,,,,,,,,,,,,,,,,,,,,,,,,,,,,,,,,,,,,,,,,,,,,,,,,,,,,,,,,,,,
,,,,,,3,0,3,0,1,X V Q F H G B L J M P D K C T S W R N Z,5ffdd8d1b2325f3c1f6edc6b,53,Mężczyzna,2022-06-25_15h40.11.138,task,2021.1.4,Win32,60.01680471,6299f149e92ead563fba08ef,62b70e43662c8674ae400b49,,,,,,,,,,,,,,,,,,,,,,,,,,,,,,,,,,,,,,,,,,,,,,,,,,,,,,,,,,,,,,,,,,,,,,,,,,,,,,,,,,,,,,,,,,,,,,,,,,,,,
,,,,,,4,0,4,0,1,X V Q F H G B L J M P D K C T S W R N Z,5ffdd8d1b2325f3c1f6edc6b,53,Mężczyzna,2022-06-25_15h40.11.138,task,2021.1.4,Win32,60.01680471,6299f149e92ead563fba08ef,62b70e43662c8674ae400b49,,,,,,,,,,,,,,,,,,,,,,,,,,,,,,,,,,,,,,,,,,,,,,,,,,,,,,,,,,,,,,,,,,,,,,,,,,,,,,,,,,,,,,,,,,,,,,,,,,,,,
,,,,,,,,,,,,5ffdd8d1b2325f3c1f6edc6b,53,Mężczyzna,2022-06-25_15h40.11.138,task,2021.1.4,Win32,60.01680471,6299f149e92ead563fba08ef,62b70e43662c8674ae400b49,vnpqh,"[""v"",""n"",""p"",""q"",""h""]","[3.2181999999880873,3.484399999976162,4.191899999976158,6.321399999976165,7.605799999952325,8.26389999997616]",1,VNPQH,6,0,6,0,1,,,,,,,,,,,,,,,,,,,,,,,,,,,,,,,,,,,,,,,,,,,,,,,,,,,,,,,,,,,,,,,,,,,,,,,,,,,,,,,,,,,,,,,,,,,
,,,,,,0,0,0,0,1,X V Q F H G B L J M P D K C T S W R N Z,5ffdd8d1b2325f3c1f6edc6b,53,Mężczyzna,2022-06-25_15h40.11.138,task,2021.1.4,Win32,60.01680471,6299f149e92ead563fba08ef,62b70e43662c8674ae400b49,,,,,,,,,,,,,,,,,,,,,,,,,,,,,,,,,,,,,,,,,,,,,,,,,,,,,,,,,,,,,,,,,,,,,,,,,,,,,,,,,,,,,,,,,,,,,,,,,,,,,
,,,,,,1,0,1,0,1,X V Q F H G B L J M P D K C T S W R N Z,5ffdd8d1b2325f3c1f6edc6b,53,Mężczyzna,2022-06-25_15h40.11.138,task,2021.1.4,Win32,60.01680471,6299f149e92ead563fba08ef,62b70e43662c8674ae400b49,,,,,,,,,,,,,,,,,,,,,,,,,,,,,,,,,,,,,,,,,,,,,,,,,,,,,,,,,,,,,,,,,,,,,,,,,,,,,,,,,,,,,,,,,,,,,,,,,,,,,
,,,,,,2,0,2,0,1,X V Q F H G B L J M P D K C T S W R N Z,5ffdd8d1b2325f3c1f6edc6b,53,Mężczyzna,2022-06-25_15h40.11.138,task,2021.1.4,Win32,60.01680471,6299f149e92ead563fba08ef,62b70e43662c8674ae400b49,,,,,,,,,,,,,,,,,,,,,,,,,,,,,,,,,,,,,,,,,,,,,,,,,,,,,,,,,,,,,,,,,,,,,,,,,,,,,,,,,,,,,,,,,,,,,,,,,,,,,
,,,,,,3,0,3,0,1,X V Q F H G B L J M P D K C T S W R N Z,5ffdd8d1b2325f3c1f6edc6b,53,Mężczyzna,2022-06-25_15h40.11.138,task,2021.1.4,Win32,60.01680471,6299f149e92ead563fba08ef,62b70e43662c8674ae400b49,,,,,,,,,,,,,,,,,,,,,,,,,,,,,,,,,,,,,,,,,,,,,,,,,,,,,,,,,,,,,,,,,,,,,,,,,,,,,,,,,,,,,,,,,,,,,,,,,,,,,
,,,,,,4,0,4,0,1,X V Q F H G B L J M P D K C T S W R N Z,5ffdd8d1b2325f3c1f6edc6b,53,Mężczyzna,2022-06-25_15h40.11.138,task,2021.1.4,Win32,60.01680471,6299f149e92ead563fba08ef,62b70e43662c8674ae400b49,,,,,,,,,,,,,,,,,,,,,,,,,,,,,,,,,,,,,,,,,,,,,,,,,,,,,,,,,,,,,,,,,,,,,,,,,,,,,,,,,,,,,,,,,,,,,,,,,,,,,
,,,,,,,,,,,,5ffdd8d1b2325f3c1f6edc6b,53,Mężczyzna,2022-06-25_15h40.11.138,task,2021.1.4,Win32,60.01680471,6299f149e92ead563fba08ef,62b70e43662c8674ae400b49,cqnnm,"[""c"",""q"",""n"",""n"",""m""]","[1.9833000000119085,2.543199999988076,3.1678999999761572,3.284100000023841,3.5534999999999997,4.156499999999994]",1,CQNNM,7,0,7,0,1,,,,,,,,,,,,,,,,,,,,,,,,,,,,,,,,,,,,,,,,,,,,,,,,,,,,,,,,,,,,,,,,,,,,,,,,,,,,,,,,,,,,,,,,,,,
,,,,,,0,0,0,0,1,X V Q F H G B L J M P D K C T S W R N Z,5ffdd8d1b2325f3c1f6edc6b,53,Mężczyzna,2022-06-25_15h40.11.138,task,2021.1.4,Win32,60.01680471,6299f149e92ead563fba08ef,62b70e43662c8674ae400b49,,,,,,,,,,,,,,,,,,,,,,,,,,,,,,,,,,,,,,,,,,,,,,,,,,,,,,,,,,,,,,,,,,,,,,,,,,,,,,,,,,,,,,,,,,,,,,,,,,,,,
,,,,,,1,0,1,0,1,X V Q F H G B L J M P D K C T S W R N Z,5ffdd8d1b2325f3c1f6edc6b,53,Mężczyzna,2022-06-25_15h40.11.138,task,2021.1.4,Win32,60.01680471,6299f149e92ead563fba08ef,62b70e43662c8674ae400b49,,,,,,,,,,,,,,,,,,,,,,,,,,,,,,,,,,,,,,,,,,,,,,,,,,,,,,,,,,,,,,,,,,,,,,,,,,,,,,,,,,,,,,,,,,,,,,,,,,,,,
,,,,,,2,0,2,0,1,X V Q F H G B L J M P D K C T S W R N Z,5ffdd8d1b2325f3c1f6edc6b,53,Mężczyzna,2022-06-25_15h40.11.138,task,2021.1.4,Win32,60.01680471,6299f149e92ead563fba08ef,62b70e43662c8674ae400b49,,,,,,,,,,,,,,,,,,,,,,,,,,,,,,,,,,,,,,,,,,,,,,,,,,,,,,,,,,,,,,,,,,,,,,,,,,,,,,,,,,,,,,,,,,,,,,,,,,,,,
,,,,,,3,0,3,0,1,X V Q F H G B L J M P D K C T S W R N Z,5ffdd8d1b2325f3c1f6edc6b,53,Mężczyzna,2022-06-25_15h40.11.138,task,2021.1.4,Win32,60.01680471,6299f149e92ead563fba08ef,62b70e43662c8674ae400b49,,,,,,,,,,,,,,,,,,,,,,,,,,,,,,,,,,,,,,,,,,,,,,,,,,,,,,,,,,,,,,,,,,,,,,,,,,,,,,,,,,,,,,,,,,,,,,,,,,,,,
,,,,,,4,0,4,0,1,X V Q F H G B L J M P D K C T S W R N Z,5ffdd8d1b2325f3c1f6edc6b,53,Mężczyzna,2022-06-25_15h40.11.138,task,2021.1.4,Win32,60.01680471,6299f149e92ead563fba08ef,62b70e43662c8674ae400b49,,,,,,,,,,,,,,,,,,,,,,,,,,,,,,,,,,,,,,,,,,,,,,,,,,,,,,,,,,,,,,,,,,,,,,,,,,,,,,,,,,,,,,,,,,,,,,,,,,,,,
,,,,,,5,0,5,0,1,X V Q F H G B L J M P D K C T S W R N Z,5ffdd8d1b2325f3c1f6edc6b,53,Mężczyzna,2022-06-25_15h40.11.138,task,2021.1.4,Win32,60.01680471,6299f149e92ead563fba08ef,62b70e43662c8674ae400b49,,,,,,,,,,,,,,,,,,,,,,,,,,,,,,,,,,,,,,,,,,,,,,,,,,,,,,,,,,,,,,,,,,,,,,,,,,,,,,,,,,,,,,,,,,,,,,,,,,,,,
,,,,,,,,,,,,5ffdd8d1b2325f3c1f6edc6b,53,Mężczyzna,2022-06-25_15h40.11.138,task,2021.1.4,Win32,60.01680471,6299f149e92ead563fba08ef,62b70e43662c8674ae400b49,hkkqhl,"[""h"",""k"",""k"",""q"",""h"",""l""]","[4.53630000001192,5.60390000003575,5.722999999999999,6.487200000047679,16.214,16.48790000003578,16.69980000001192]",1,HKKQHL,8,0,8,0,1,,,,,,,,,,,,,,,,,,,,,,,,,,,,,,,,,,,,,,,,,,,,,,,,,,,,,,,,,,,,,,,,,,,,,,,,,,,,,,,,,,,,,,,,,,,
,,,,,,0,0,0,0,1,X V Q F H G B L J M P D K C T S W R N Z,5ffdd8d1b2325f3c1f6edc6b,53,Mężczyzna,2022-06-25_15h40.11.138,task,2021.1.4,Win32,60.01680471,6299f149e92ead563fba08ef,62b70e43662c8674ae400b49,,,,,,,,,,,,,,,,,,,,,,,,,,,,,,,,,,,,,,,,,,,,,,,,,,,,,,,,,,,,,,,,,,,,,,,,,,,,,,,,,,,,,,,,,,,,,,,,,,,,,
,,,,,,1,0,1,0,1,X V Q F H G B L J M P D K C T S W R N Z,5ffdd8d1b2325f3c1f6edc6b,53,Mężczyzna,2022-06-25_15h40.11.138,task,2021.1.4,Win32,60.01680471,6299f149e92ead563fba08ef,62b70e43662c8674ae400b49,,,,,,,,,,,,,,,,,,,,,,,,,,,,,,,,,,,,,,,,,,,,,,,,,,,,,,,,,,,,,,,,,,,,,,,,,,,,,,,,,,,,,,,,,,,,,,,,,,,,,
,,,,,,2,0,2,0,1,X V Q F H G B L J M P D K C T S W R N Z,5ffdd8d1b2325f3c1f6edc6b,53,Mężczyzna,2022-06-25_15h40.11.138,task,2021.1.4,Win32,60.01680471,6299f149e92ead563fba08ef,62b70e43662c8674ae400b49,,,,,,,,,,,,,,,,,,,,,,,,,,,,,,,,,,,,,,,,,,,,,,,,,,,,,,,,,,,,,,,,,,,,,,,,,,,,,,,,,,,,,,,,,,,,,,,,,,,,,
,,,,,,3,0,3,0,1,X V Q F H G B L J M P D K C T S W R N Z,5ffdd8d1b2325f3c1f6edc6b,53,Mężczyzna,2022-06-25_15h40.11.138,task,2021.1.4,Win32,60.01680471,6299f149e92ead563fba08ef,62b70e43662c8674ae400b49,,,,,,,,,,,,,,,,,,,,,,,,,,,,,,,,,,,,,,,,,,,,,,,,,,,,,,,,,,,,,,,,,,,,,,,,,,,,,,,,,,,,,,,,,,,,,,,,,,,,,
,,,,,,4,0,4,0,1,X V Q F H G B L J M P D K C T S W R N Z,5ffdd8d1b2325f3c1f6edc6b,53,Mężczyzna,2022-06-25_15h40.11.138,task,2021.1.4,Win32,60.01680471,6299f149e92ead563fba08ef,62b70e43662c8674ae400b49,,,,,,,,,,,,,,,,,,,,,,,,,,,,,,,,,,,,,,,,,,,,,,,,,,,,,,,,,,,,,,,,,,,,,,,,,,,,,,,,,,,,,,,,,,,,,,,,,,,,,
,,,,,,5,0,5,0,1,X V Q F H G B L J M P D K C T S W R N Z,5ffdd8d1b2325f3c1f6edc6b,53,Mężczyzna,2022-06-25_15h40.11.138,task,2021.1.4,Win32,60.01680471,6299f149e92ead563fba08ef,62b70e43662c8674ae400b49,,,,,,,,,,,,,,,,,,,,,,,,,,,,,,,,,,,,,,,,,,,,,,,,,,,,,,,,,,,,,,,,,,,,,,,,,,,,,,,,,,,,,,,,,,,,,,,,,,,,,
,,,,,,,,,,,,5ffdd8d1b2325f3c1f6edc6b,53,Mężczyzna,2022-06-25_15h40.11.138,task,2021.1.4,Win32,60.01680471,6299f149e92ead563fba08ef,62b70e43662c8674ae400b49,wwzlfc,"[""w"",""w"",""z"",""l"",""f"",""c""]","[2.9010000000000105,3.041300000011944,3.895099999964259,5.571099999964247,6.511500000000012,7.48989999997616,7.873000000000019]",1,WWZLFC,9,0,9,0,1,,,,,,,,,,,,,,,,,,,,,,,,,,,,,,,,,,,,,,,,,,,,,,,,,,,,,,,,,,,,,,,,,,,,,,,,,,,,,,,,,,,,,,,,,,,
,,,,,,0,0,0,0,1,X V Q F H G B L J M P D K C T S W R N Z,5ffdd8d1b2325f3c1f6edc6b,53,Mężczyzna,2022-06-25_15h40.11.138,task,2021.1.4,Win32,60.01680471,6299f149e92ead563fba08ef,62b70e43662c8674ae400b49,,,,,,,,,,,,,,,,,,,,,,,,,,,,,,,,,,,,,,,,,,,,,,,,,,,,,,,,,,,,,,,,,,,,,,,,,,,,,,,,,,,,,,,,,,,,,,,,,,,,,
,,,,,,1,0,1,0,1,X V Q F H G B L J M P D K C T S W R N Z,5ffdd8d1b2325f3c1f6edc6b,53,Mężczyzna,2022-06-25_15h40.11.138,task,2021.1.4,Win32,60.01680471,6299f149e92ead563fba08ef,62b70e43662c8674ae400b49,,,,,,,,,,,,,,,,,,,,,,,,,,,,,,,,,,,,,,,,,,,,,,,,,,,,,,,,,,,,,,,,,,,,,,,,,,,,,,,,,,,,,,,,,,,,,,,,,,,,,
,,,,,,2,0,2,0,1,X V Q F H G B L J M P D K C T S W R N Z,5ffdd8d1b2325f3c1f6edc6b,53,Mężczyzna,2022-06-25_15h40.11.138,task,2021.1.4,Win32,60.01680471,6299f149e92ead563fba08ef,62b70e43662c8674ae400b49,,,,,,,,,,,,,,,,,,,,,,,,,,,,,,,,,,,,,,,,,,,,,,,,,,,,,,,,,,,,,,,,,,,,,,,,,,,,,,,,,,,,,,,,,,,,,,,,,,,,,
,,,,,,3,0,3,0,1,X V Q F H G B L J M P D K C T S W R N Z,5ffdd8d1b2325f3c1f6edc6b,53,Mężczyzna,2022-06-25_15h40.11.138,task,2021.1.4,Win32,60.01680471,6299f149e92ead563fba08ef,62b70e43662c8674ae400b49,,,,,,,,,,,,,,,,,,,,,,,,,,,,,,,,,,,,,,,,,,,,,,,,,,,,,,,,,,,,,,,,,,,,,,,,,,,,,,,,,,,,,,,,,,,,,,,,,,,,,
,,,,,,4,0,4,0,1,X V Q F H G B L J M P D K C T S W R N Z,5ffdd8d1b2325f3c1f6edc6b,53,Mężczyzna,2022-06-25_15h40.11.138,task,2021.1.4,Win32,60.01680471,6299f149e92ead563fba08ef,62b70e43662c8674ae400b49,,,,,,,,,,,,,,,,,,,,,,,,,,,,,,,,,,,,,,,,,,,,,,,,,,,,,,,,,,,,,,,,,,,,,,,,,,,,,,,,,,,,,,,,,,,,,,,,,,,,,
,,,,,,5,0,5,0,1,X V Q F H G B L J M P D K C T S W R N Z,5ffdd8d1b2325f3c1f6edc6b,53,Mężczyzna,2022-06-25_15h40.11.138,task,2021.1.4,Win32,60.01680471,6299f149e92ead563fba08ef,62b70e43662c8674ae400b49,,,,,,,,,,,,,,,,,,,,,,,,,,,,,,,,,,,,,,,,,,,,,,,,,,,,,,,,,,,,,,,,,,,,,,,,,,,,,,,,,,,,,,,,,,,,,,,,,,,,,
,,,,,,6,0,6,0,1,X V Q F H G B L J M P D K C T S W R N Z,5ffdd8d1b2325f3c1f6edc6b,53,Mężczyzna,2022-06-25_15h40.11.138,task,2021.1.4,Win32,60.01680471,6299f149e92ead563fba08ef,62b70e43662c8674ae400b49,,,,,,,,,,,,,,,,,,,,,,,,,,,,,,,,,,,,,,,,,,,,,,,,,,,,,,,,,,,,,,,,,,,,,,,,,,,,,,,,,,,,,,,,,,,,,,,,,,,,,
,,,,,,,,,,,,5ffdd8d1b2325f3c1f6edc6b,53,Mężczyzna,2022-06-25_15h40.11.138,task,2021.1.4,Win32,60.01680471,6299f149e92ead563fba08ef,62b70e43662c8674ae400b49,dblcnhz,"[""d"",""b"",""l"",""c"",""n"",""h"",""z""]","[4.0510999999642365,4.418199999988076,4.836399999976152,5.670399999976155,7.122199999988084,8.490199999988079,9.40919999998809,10.091800000011915]",1,DBLCNHZ,10,0,10,0,1,,,,,,,,,,,,,,,,,,,,,,,,,,,,,,,,,,,,,,,,,,,,,,,,,,,,,,,,,,,,,,,,,,,,,,,,,,,,,,,,,,,,,,,,,,,
,,,,,,0,0,0,0,1,X V Q F H G B L J M P D K C T S W R N Z,5ffdd8d1b2325f3c1f6edc6b,53,Mężczyzna,2022-06-25_15h40.11.138,task,2021.1.4,Win32,60.01680471,6299f149e92ead563fba08ef,62b70e43662c8674ae400b49,,,,,,,,,,,,,,,,,,,,,,,,,,,,,,,,,,,,,,,,,,,,,,,,,,,,,,,,,,,,,,,,,,,,,,,,,,,,,,,,,,,,,,,,,,,,,,,,,,,,,
,,,,,,1,0,1,0,1,X V Q F H G B L J M P D K C T S W R N Z,5ffdd8d1b2325f3c1f6edc6b,53,Mężczyzna,2022-06-25_15h40.11.138,task,2021.1.4,Win32,60.01680471,6299f149e92ead563fba08ef,62b70e43662c8674ae400b49,,,,,,,,,,,,,,,,,,,,,,,,,,,,,,,,,,,,,,,,,,,,,,,,,,,,,,,,,,,,,,,,,,,,,,,,,,,,,,,,,,,,,,,,,,,,,,,,,,,,,
,,,,,,2,0,2,0,1,X V Q F H G B L J M P D K C T S W R N Z,5ffdd8d1b2325f3c1f6edc6b,53,Mężczyzna,2022-06-25_15h40.11.138,task,2021.1.4,Win32,60.01680471,6299f149e92ead563fba08ef,62b70e43662c8674ae400b49,,,,,,,,,,,,,,,,,,,,,,,,,,,,,,,,,,,,,,,,,,,,,,,,,,,,,,,,,,,,,,,,,,,,,,,,,,,,,,,,,,,,,,,,,,,,,,,,,,,,,
,,,,,,3,0,3,0,1,X V Q F H G B L J M P D K C T S W R N Z,5ffdd8d1b2325f3c1f6edc6b,53,Mężczyzna,2022-06-25_15h40.11.138,task,2021.1.4,Win32,60.01680471,6299f149e92ead563fba08ef,62b70e43662c8674ae400b49,,,,,,,,,,,,,,,,,,,,,,,,,,,,,,,,,,,,,,,,,,,,,,,,,,,,,,,,,,,,,,,,,,,,,,,,,,,,,,,,,,,,,,,,,,,,,,,,,,,,,
,,,,,,4,0,4,0,1,X V Q F H G B L J M P D K C T S W R N Z,5ffdd8d1b2325f3c1f6edc6b,53,Mężczyzna,2022-06-25_15h40.11.138,task,2021.1.4,Win32,60.01680471,6299f149e92ead563fba08ef,62b70e43662c8674ae400b49,,,,,,,,,,,,,,,,,,,,,,,,,,,,,,,,,,,,,,,,,,,,,,,,,,,,,,,,,,,,,,,,,,,,,,,,,,,,,,,,,,,,,,,,,,,,,,,,,,,,,
,,,,,,5,0,5,0,1,X V Q F H G B L J M P D K C T S W R N Z,5ffdd8d1b2325f3c1f6edc6b,53,Mężczyzna,2022-06-25_15h40.11.138,task,2021.1.4,Win32,60.01680471,6299f149e92ead563fba08ef,62b70e43662c8674ae400b49,,,,,,,,,,,,,,,,,,,,,,,,,,,,,,,,,,,,,,,,,,,,,,,,,,,,,,,,,,,,,,,,,,,,,,,,,,,,,,,,,,,,,,,,,,,,,,,,,,,,,
,,,,,,6,0,6,0,1,X V Q F H G B L J M P D K C T S W R N Z,5ffdd8d1b2325f3c1f6edc6b,53,Mężczyzna,2022-06-25_15h40.11.138,task,2021.1.4,Win32,60.01680471,6299f149e92ead563fba08ef,62b70e43662c8674ae400b49,,,,,,,,,,,,,,,,,,,,,,,,,,,,,,,,,,,,,,,,,,,,,,,,,,,,,,,,,,,,,,,,,,,,,,,,,,,,,,,,,,,,,,,,,,,,,,,,,,,,,
,,,,,,,,,,,,5ffdd8d1b2325f3c1f6edc6b,53,Mężczyzna,2022-06-25_15h40.11.138,task,2021.1.4,Win32,60.01680471,6299f149e92ead563fba08ef,62b70e43662c8674ae400b49,crthgxw,"[""c"",""r"",""t"",""h"",""g"",""x"",""w""]","[1.446199999988096,1.7390000000000043,1.8824000000357728,2.7143000000119457,3.413900000035767,3.947800000011938,4.669800000011946,5.437199999988081]",1,CRTHGXW,11,0,11,0,1,,,,,,,,,,,,,,,,,,,,,,,,,,,,,,,,,,,,,,,,,,,,,,,,,,,,,,,,,,,,,,,,,,,,,,,,,,,,,,,,,,,,,,,,,,,
,,,,,,0,0,0,0,1,X V Q F H G B L J M P D K C T S W R N Z,5ffdd8d1b2325f3c1f6edc6b,53,Mężczyzna,2022-06-25_15h40.11.138,task,2021.1.4,Win32,60.01680471,6299f149e92ead563fba08ef,62b70e43662c8674ae400b49,,,,,,,,,,,,,,,,,,,,,,,,,,,,,,,,,,,,,,,,,,,,,,,,,,,,,,,,,,,,,,,,,,,,,,,,,,,,,,,,,,,,,,,,,,,,,,,,,,,,,
,,,,,,1,0,1,0,1,X V Q F H G B L J M P D K C T S W R N Z,5ffdd8d1b2325f3c1f6edc6b,53,Mężczyzna,2022-06-25_15h40.11.138,task,2021.1.4,Win32,60.01680471,6299f149e92ead563fba08ef,62b70e43662c8674ae400b49,,,,,,,,,,,,,,,,,,,,,,,,,,,,,,,,,,,,,,,,,,,,,,,,,,,,,,,,,,,,,,,,,,,,,,,,,,,,,,,,,,,,,,,,,,,,,,,,,,,,,
,,,,,,2,0,2,0,1,X V Q F H G B L J M P D K C T S W R N Z,5ffdd8d1b2325f3c1f6edc6b,53,Mężczyzna,2022-06-25_15h40.11.138,task,2021.1.4,Win32,60.01680471,6299f149e92ead563fba08ef,62b70e43662c8674ae400b49,,,,,,,,,,,,,,,,,,,,,,,,,,,,,,,,,,,,,,,,,,,,,,,,,,,,,,,,,,,,,,,,,,,,,,,,,,,,,,,,,,,,,,,,,,,,,,,,,,,,,
,,,,,,3,0,3,0,1,X V Q F H G B L J M P D K C T S W R N Z,5ffdd8d1b2325f3c1f6edc6b,53,Mężczyzna,2022-06-25_15h40.11.138,task,2021.1.4,Win32,60.01680471,6299f149e92ead563fba08ef,62b70e43662c8674ae400b49,,,,,,,,,,,,,,,,,,,,,,,,,,,,,,,,,,,,,,,,,,,,,,,,,,,,,,,,,,,,,,,,,,,,,,,,,,,,,,,,,,,,,,,,,,,,,,,,,,,,,
,,,,,,4,0,4,0,1,X V Q F H G B L J M P D K C T S W R N Z,5ffdd8d1b2325f3c1f6edc6b,53,Mężczyzna,2022-06-25_15h40.11.138,task,2021.1.4,Win32,60.01680471,6299f149e92ead563fba08ef,62b70e43662c8674ae400b49,,,,,,,,,,,,,,,,,,,,,,,,,,,,,,,,,,,,,,,,,,,,,,,,,,,,,,,,,,,,,,,,,,,,,,,,,,,,,,,,,,,,,,,,,,,,,,,,,,,,,
,,,,,,5,0,5,0,1,X V Q F H G B L J M P D K C T S W R N Z,5ffdd8d1b2325f3c1f6edc6b,53,Mężczyzna,2022-06-25_15h40.11.138,task,2021.1.4,Win32,60.01680471,6299f149e92ead563fba08ef,62b70e43662c8674ae400b49,,,,,,,,,,,,,,,,,,,,,,,,,,,,,,,,,,,,,,,,,,,,,,,,,,,,,,,,,,,,,,,,,,,,,,,,,,,,,,,,,,,,,,,,,,,,,,,,,,,,,
,,,,,,6,0,6,0,1,X V Q F H G B L J M P D K C T S W R N Z,5ffdd8d1b2325f3c1f6edc6b,53,Mężczyzna,2022-06-25_15h40.11.138,task,2021.1.4,Win32,60.01680471,6299f149e92ead563fba08ef,62b70e43662c8674ae400b49,,,,,,,,,,,,,,,,,,,,,,,,,,,,,,,,,,,,,,,,,,,,,,,,,,,,,,,,,,,,,,,,,,,,,,,,,,,,,,,,,,,,,,,,,,,,,,,,,,,,,
,,,,,,7,0,7,0,1,X V Q F H G B L J M P D K C T S W R N Z,5ffdd8d1b2325f3c1f6edc6b,53,Mężczyzna,2022-06-25_15h40.11.138,task,2021.1.4,Win32,60.01680471,6299f149e92ead563fba08ef,62b70e43662c8674ae400b49,,,,,,,,,,,,,,,,,,,,,,,,,,,,,,,,,,,,,,,,,,,,,,,,,,,,,,,,,,,,,,,,,,,,,,,,,,,,,,,,,,,,,,,,,,,,,,,,,,,,,
,,,,,,,,,,,,5ffdd8d1b2325f3c1f6edc6b,53,Mężczyzna,2022-06-25_15h40.11.138,task,2021.1.4,Win32,60.01680471,6299f149e92ead563fba08ef,62b70e43662c8674ae400b49,pnlmwx,"[""p"",""n"",""l"",""m"",""w"",""x""]","[1.5649000000357773,2.5526999999880786,3.787300000011925,4.255600000023833,6.204199999988077,6.870300000011923,7.571699999988084]",0,PNLMNWRX,12,0,12,0,1,,,,,,,,,,,,,,,,,,,,,,,,,,,,,,,,,,,,,,,,,,,,,,,,,,,,,,,,,,,,,,,,,,,,,,,,,,,,,,,,,,,,,,,,,,,
,,,,,,0,0,0,0,1,X V Q F H G B L J M P D K C T S W R N Z,5ffdd8d1b2325f3c1f6edc6b,53,Mężczyzna,2022-06-25_15h40.11.138,task,2021.1.4,Win32,60.01680471,6299f149e92ead563fba08ef,62b70e43662c8674ae400b49,,,,,,,,,,,,,,,,,,,,,,,,,,,,,,,,,,,,,,,,,,,,,,,,,,,,,,,,,,,,,,,,,,,,,,,,,,,,,,,,,,,,,,,,,,,,,,,,,,,,,
,,,,,,1,0,1,0,1,X V Q F H G B L J M P D K C T S W R N Z,5ffdd8d1b2325f3c1f6edc6b,53,Mężczyzna,2022-06-25_15h40.11.138,task,2021.1.4,Win32,60.01680471,6299f149e92ead563fba08ef,62b70e43662c8674ae400b49,,,,,,,,,,,,,,,,,,,,,,,,,,,,,,,,,,,,,,,,,,,,,,,,,,,,,,,,,,,,,,,,,,,,,,,,,,,,,,,,,,,,,,,,,,,,,,,,,,,,,
,,,,,,2,0,2,0,1,X V Q F H G B L J M P D K C T S W R N Z,5ffdd8d1b2325f3c1f6edc6b,53,Mężczyzna,2022-06-25_15h40.11.138,task,2021.1.4,Win32,60.01680471,6299f149e92ead563fba08ef,62b70e43662c8674ae400b49,,,,,,,,,,,,,,,,,,,,,,,,,,,,,,,,,,,,,,,,,,,,,,,,,,,,,,,,,,,,,,,,,,,,,,,,,,,,,,,,,,,,,,,,,,,,,,,,,,,,,
,,,,,,3,0,3,0,1,X V Q F H G B L J M P D K C T S W R N Z,5ffdd8d1b2325f3c1f6edc6b,53,Mężczyzna,2022-06-25_15h40.11.138,task,2021.1.4,Win32,60.01680471,6299f149e92ead563fba08ef,62b70e43662c8674ae400b49,,,,,,,,,,,,,,,,,,,,,,,,,,,,,,,,,,,,,,,,,,,,,,,,,,,,,,,,,,,,,,,,,,,,,,,,,,,,,,,,,,,,,,,,,,,,,,,,,,,,,
,,,,,,4,0,4,0,1,X V Q F H G B L J M P D K C T S W R N Z,5ffdd8d1b2325f3c1f6edc6b,53,Mężczyzna,2022-06-25_15h40.11.138,task,2021.1.4,Win32,60.01680471,6299f149e92ead563fba08ef,62b70e43662c8674ae400b49,,,,,,,,,,,,,,,,,,,,,,,,,,,,,,,,,,,,,,,,,,,,,,,,,,,,,,,,,,,,,,,,,,,,,,,,,,,,,,,,,,,,,,,,,,,,,,,,,,,,,
,,,,,,5,0,5,0,1,X V Q F H G B L J M P D K C T S W R N Z,5ffdd8d1b2325f3c1f6edc6b,53,Mężczyzna,2022-06-25_15h40.11.138,task,2021.1.4,Win32,60.01680471,6299f149e92ead563fba08ef,62b70e43662c8674ae400b49,,,,,,,,,,,,,,,,,,,,,,,,,,,,,,,,,,,,,,,,,,,,,,,,,,,,,,,,,,,,,,,,,,,,,,,,,,,,,,,,,,,,,,,,,,,,,,,,,,,,,
,,,,,,6,0,6,0,1,X V Q F H G B L J M P D K C T S W R N Z,5ffdd8d1b2325f3c1f6edc6b,53,Mężczyzna,2022-06-25_15h40.11.138,task,2021.1.4,Win32,60.01680471,6299f149e92ead563fba08ef,62b70e43662c8674ae400b49,,,,,,,,,,,,,,,,,,,,,,,,,,,,,,,,,,,,,,,,,,,,,,,,,,,,,,,,,,,,,,,,,,,,,,,,,,,,,,,,,,,,,,,,,,,,,,,,,,,,,
,,,,,,7,0,7,0,1,X V Q F H G B L J M P D K C T S W R N Z,5ffdd8d1b2325f3c1f6edc6b,53,Mężczyzna,2022-06-25_15h40.11.138,task,2021.1.4,Win32,60.01680471,6299f149e92ead563fba08ef,62b70e43662c8674ae400b49,,,,,,,,,,,,,,,,,,,,,,,,,,,,,,,,,,,,,,,,,,,,,,,,,,,,,,,,,,,,,,,,,,,,,,,,,,,,,,,,,,,,,,,,,,,,,,,,,,,,,
,,,,,,,,,,,,5ffdd8d1b2325f3c1f6edc6b,53,Mężczyzna,2022-06-25_15h40.11.138,task,2021.1.4,Win32,60.01680471,6299f149e92ead563fba08ef,62b70e43662c8674ae400b49,lgbzfrhh,"[""l"",""g"",""b"",""z"",""f"",""r"",""h"",""h""]","[5.970699999988085,7.287499999999994,7.621999999999986,8.389999999999986,8.972900000035764,9.207300000011912,13.127999999999986,13.234400000035748,13.645499999999998]",0,LGBZFRRZ,13,0,13,0,1,,,,,,,,,,,,,,,,,,,,,,,,,,,,,,,,,,,,,,,,,,,,,,,,,,,,,,,,,,,,,,,,,,,,,,,,,,,,,,,,,,,,,,,,,,,
,,,,,,0,0,0,0,1,X V Q F H G B L J M P D K C T S W R N Z,5ffdd8d1b2325f3c1f6edc6b,53,Mężczyzna,2022-06-25_15h40.11.138,task,2021.1.4,Win32,60.01680471,6299f149e92ead563fba08ef,62b70e43662c8674ae400b49,,,,,,,,,,,,,,,,,,,,,,,,,,,,,,,,,,,,,,,,,,,,,,,,,,,,,,,,,,,,,,,,,,,,,,,,,,,,,,,,,,,,,,,,,,,,,,,,,,,,,
,,,,,,1,0,1,0,1,X V Q F H G B L J M P D K C T S W R N Z,5ffdd8d1b2325f3c1f6edc6b,53,Mężczyzna,2022-06-25_15h40.11.138,task,2021.1.4,Win32,60.01680471,6299f149e92ead563fba08ef,62b70e43662c8674ae400b49,,,,,,,,,,,,,,,,,,,,,,,,,,,,,,,,,,,,,,,,,,,,,,,,,,,,,,,,,,,,,,,,,,,,,,,,,,,,,,,,,,,,,,,,,,,,,,,,,,,,,
,,,,,,2,0,2,0,1,X V Q F H G B L J M P D K C T S W R N Z,5ffdd8d1b2325f3c1f6edc6b,53,Mężczyzna,2022-06-25_15h40.11.138,task,2021.1.4,Win32,60.01680471,6299f149e92ead563fba08ef,62b70e43662c8674ae400b49,,,,,,,,,,,,,,,,,,,,,,,,,,,,,,,,,,,,,,,,,,,,,,,,,,,,,,,,,,,,,,,,,,,,,,,,,,,,,,,,,,,,,,,,,,,,,,,,,,,,,
,,,,,,3,0,3,0,1,X V Q F H G B L J M P D K C T S W R N Z,5ffdd8d1b2325f3c1f6edc6b,53,Mężczyzna,2022-06-25_15h40.11.138,task,2021.1.4,Win32,60.01680471,6299f149e92ead563fba08ef,62b70e43662c8674ae400b49,,,,,,,,,,,,,,,,,,,,,,,,,,,,,,,,,,,,,,,,,,,,,,,,,,,,,,,,,,,,,,,,,,,,,,,,,,,,,,,,,,,,,,,,,,,,,,,,,,,,,
,,,,,,4,0,4,0,1,X V Q F H G B L J M P D K C T S W R N Z,5ffdd8d1b2325f3c1f6edc6b,53,Mężczyzna,2022-06-25_15h40.11.138,task,2021.1.4,Win32,60.01680471,6299f149e92ead563fba08ef,62b70e43662c8674ae400b49,,,,,,,,,,,,,,,,,,,,,,,,,,,,,,,,,,,,,,,,,,,,,,,,,,,,,,,,,,,,,,,,,,,,,,,,,,,,,,,,,,,,,,,,,,,,,,,,,,,,,
,,,,,,5,0,5,0,1,X V Q F H G B L J M P D K C T S W R N Z,5ffdd8d1b2325f3c1f6edc6b,53,Mężczyzna,2022-06-25_15h40.11.138,task,2021.1.4,Win32,60.01680471,6299f149e92ead563fba08ef,62b70e43662c8674ae400b49,,,,,,,,,,,,,,,,,,,,,,,,,,,,,,,,,,,,,,,,,,,,,,,,,,,,,,,,,,,,,,,,,,,,,,,,,,,,,,,,,,,,,,,,,,,,,,,,,,,,,
,,,,,,6,0,6,0,1,X V Q F H G B L J M P D K C T S W R N Z,5ffdd8d1b2325f3c1f6edc6b,53,Mężczyzna,2022-06-25_15h40.11.138,task,2021.1.4,Win32,60.01680471,6299f149e92ead563fba08ef,62b70e43662c8674ae400b49,,,,,,,,,,,,,,,,,,,,,,,,,,,,,,,,,,,,,,,,,,,,,,,,,,,,,,,,,,,,,,,,,,,,,,,,,,,,,,,,,,,,,,,,,,,,,,,,,,,,,
,,,,,,7,0,7,0,1,X V Q F H G B L J M P D K C T S W R N Z,5ffdd8d1b2325f3c1f6edc6b,53,Mężczyzna,2022-06-25_15h40.11.138,task,2021.1.4,Win32,60.01680471,6299f149e92ead563fba08ef,62b70e43662c8674ae400b49,,,,,,,,,,,,,,,,,,,,,,,,,,,,,,,,,,,,,,,,,,,,,,,,,,,,,,,,,,,,,,,,,,,,,,,,,,,,,,,,,,,,,,,,,,,,,,,,,,,,,
,,,,,,,,,,,,5ffdd8d1b2325f3c1f6edc6b,53,Mężczyzna,2022-06-25_15h40.11.138,task,2021.1.4,Win32,60.01680471,6299f149e92ead563fba08ef,62b70e43662c8674ae400b49,fdnhkklq,"[""f"",""d"",""n"",""h"",""k"",""k"",""l"",""q""]","[1.7710999999642354,2.5836999999880845,3.4013999999761495,3.62709999996423,7.661000000000001,7.822199999988072,8.008599999964247,9.740800000011916,10.725300000011913]",0,TDKNHWPQ,14,0,14,0,1,,,,,,,,,,,,,,,,,,,,,,,,,,,,,,,,,,,,,,,,,,,,,,,,,,,,,,,,,,,,,,,,,,,,,,,,,,,,,,,,,,,,,,,,,,,
,,,,,,,,,,,,5ffdd8d1b2325f3c1f6edc6b,53,Mężczyzna,2022-06-25_15h40.11.138,task,2021.1.4,Win32,60.01680471,6299f149e92ead563fba08ef,62b70e43662c8674ae400b49,,,,,,,,,,,space,9.5995,4,"[""4""]",1,[4.475999999999999],[4.475999999999999],0,0,0,4,1,Practice,5,(2x6) - 8,4,,,,,,,,,,,,,,,,,,,,,,,,,,,,,,,,,,,,,,,,,,,,,,,,,,,,,,,,,,,,,,,,,,,,,,,,,,,
,,,,,,,,,,,,5ffdd8d1b2325f3c1f6edc6b,53,Mężczyzna,2022-06-25_15h40.11.138,task,2021.1.4,Win32,60.01680471,6299f149e92ead563fba08ef,62b70e43662c8674ae400b49,,,,,,,,,,,,,9,"[""9""]",1,[2.602199999988045],"[4.475999999999999,2.602199999988045]",0,1,1,9,1,Practice,10,(20/2) - 1,9,,,,,,,,,,,,,,,,,,,,,,,,,,,,,,,,,,,,,,,,,,,,,,,,,,,,,,,,,,,,,,,,,,,,,,,,,,,
,,,,,,,,,,,,5ffdd8d1b2325f3c1f6edc6b,53,Mężczyzna,2022-06-25_15h40.11.138,task,2021.1.4,Win32,60.01680471,6299f149e92ead563fba08ef,62b70e43662c8674ae400b49,,,,,,,,,,,,,2,"[""2""]",1,[1.9529999999999745],"[4.475999999999999,2.602199999988045,1.9529999999999745]",0,2,2,2,1,Practice,3,(4x4) - 14,2,,,,,,,,,,,,,,,,,,,,,,,,,,,,,,,,,,,,,,,,,,,,,,,,,,,,,,,,,,,,,,,,,,,,,,,,,,,
,,,,,,,,,,,,5ffdd8d1b2325f3c1f6edc6b,53,Mężczyzna,2022-06-25_15h40.11.138,task,2021.1.4,Win32,60.01680471,6299f149e92ead563fba08ef,62b70e43662c8674ae400b49,,,,,,,,,,,,,5,"[""5""]",1,[2.134600000023852],"[4.475999999999999,2.602199999988045,1.9529999999999745,2.134600000023852]",0,3,3,5,1,Practice,6,(4/2) + 3,5,,,,,,,,,,,,,,,,,,,,,,,,,,,,,,,,,,,,,,,,,,,,,,,,,,,,,,,,,,,,,,,,,,,,,,,,,,,
,,,,,,,,,,,,5ffdd8d1b2325f3c1f6edc6b,53,Mężczyzna,2022-06-25_15h40.11.138,task,2021.1.4,Win32,60.01680471,6299f149e92ead563fba08ef,62b70e43662c8674ae400b49,,,,,,,,,,,,,8,"[""8""]",1,[2.61749999999995],"[4.475999999999999,2.602199999988045,1.9529999999999745,2.134600000023852,2.61749999999995]",0,4,4,8,1,Practice,9,(3x3) - 1,8,,,,,,,,,,,,,,,,,,,,,,,,,,,,,,,,,,,,,,,,,,,,,,,,,,,,,,,,,,,,,,,,,,,,,,,,,,,
,,,,,,,,,,,,5ffdd8d1b2325f3c1f6edc6b,53,Mężczyzna,2022-06-25_15h40.11.138,task,2021.1.4,Win32,60.01680471,6299f149e92ead563fba08ef,62b70e43662c8674ae400b49,,,,,,,,,,,,,1,"[""1""]",1,[1.551099999964265],"[4.475999999999999,2.602199999988045,1.9529999999999745,2.134600000023852,2.61749999999995,1.551099999964265]",0,5,5,1,1,Practice,2,(4x4) - 15,1,,,,,,,,,,,,,,,,,,,,,,,,,,,,,,,,,,,,,,,,,,,,,,,,,,,,,,,,,,,,,,,,,,,,,,,,,,,
,,,,,,,,,,,,5ffdd8d1b2325f3c1f6edc6b,53,Mężczyzna,2022-06-25_15h40.11.138,task,2021.1.4,Win32,60.01680471,6299f149e92ead563fba08ef,62b70e43662c8674ae400b49,,,,,,,,,,,,,0,"[""0""]",1,[1.6348000000119214],"[4.475999999999999,2.602199999988045,1.9529999999999745,2.134600000023852,2.61749999999995,1.551099999964265,1.6348000000119214]",0,6,6,0,1,Practice,1,(3x3) -  9,0,,,,,,,,,,,,,,,,,,,,,,,,,,,,,,,,,,,,,,,,,,,,,,,,,,,,,,,,,,,,,,,,,,,,,,,,,,,
,,,,,,,,,,,,5ffdd8d1b2325f3c1f6edc6b,53,Mężczyzna,2022-06-25_15h40.11.138,task,2021.1.4,Win32,60.01680471,6299f149e92ead563fba08ef,62b70e43662c8674ae400b49,,,,,,,,,,,,,3,"[""3""]",1,[2.916500000000042],"[4.475999999999999,2.602199999988045,1.9529999999999745,2.134600000023852,2.61749999999995,1.551099999964265,1.6348000000119214,2.916500000000042]",0,7,7,3,1,Practice,4,(8/4) + 1,3,,,,,,,,,,,,,,,,,,,,,,,,,,,,,,,,,,,,,,,,,,,,,,,,,,,,,,,,,,,,,,,,,,,,,,,,,,,
,,,,,,,,,,,,5ffdd8d1b2325f3c1f6edc6b,53,Mężczyzna,2022-06-25_15h40.11.138,task,2021.1.4,Win32,60.01680471,6299f149e92ead563fba08ef,62b70e43662c8674ae400b49,,,,,,,,,,,,,6,"[""6""]",1,[3.207200000047692],"[4.475999999999999,2.602199999988045,1.9529999999999745,2.134600000023852,2.61749999999995,1.551099999964265,1.6348000000119214,2.916500000000042,3.207200000047692]",0,8,8,6,1,Practice,7,(25/5) + 1,6,,,,,,,,,,,,,,,,,,,,,,,,,,,,,,,,,,,,,,,,,,,,,,,,,,,,,,,,,,,,,,,,,,,,,,,,,,,
,,,,,,,,,,,,5ffdd8d1b2325f3c1f6edc6b,53,Mężczyzna,2022-06-25_15h40.11.138,task,2021.1.4,Win32,60.01680471,6299f149e92ead563fba08ef,62b70e43662c8674ae400b49,,,,,,,,,,,,,7,"[""7""]",1,[3.222500000000025],"[4.475999999999999,2.602199999988045,1.9529999999999745,2.134600000023852,2.61749999999995,1.551099999964265,1.6348000000119214,2.916500000000042,3.207200000047692,3.222500000000025]",0,9,9,7,1,Practice,8,(5x5) - 18,7,,,,,,,,,,,,,,,,,,,,,,,,,,,,,,,,,,,,,,,,,,,,,,,,,,,,,,,,,,,,,,,,,,,,,,,,,,,
,,,,,,,,,,,,5ffdd8d1b2325f3c1f6edc6b,53,Mężczyzna,2022-06-25_15h40.11.138,task,2021.1.4,Win32,60.01680471,6299f149e92ead563fba08ef,62b70e43662c8674ae400b49,,,,,,,,,,,,,,,,,,,,,,,,,,,1,26.3154,1.75436,14.72756565,0.990877243,4.310823286,space,1.7736,0,0,0,0,1,,,,,,,,,,,,,,,,,,,,,,,,,,,,,,,,,,,,,,,,,,,,,,,,,,,,,,,,,,,,,,
,,,,,,,,,,,,5ffdd8d1b2325f3c1f6edc6b,53,Mężczyzna,2022-06-25_15h40.11.138,task,2021.1.4,Win32,60.01680471,6299f149e92ead563fba08ef,62b70e43662c8674ae400b49,,,,,,,,,,,,,,,,,,,,,,,Practice,4,(8/4) + 1,3,,,,,,,,,,,,,,space,26.2267,,0,0,0,0,0,3,1,,,,,,,,,,,,,,,,,,,,,,,,,,,,,,,,,,,,,,,,,,,,,,,,,,,,
,,,,,,,,,,,,5ffdd8d1b2325f3c1f6edc6b,53,Mężczyzna,2022-06-25_15h40.11.138,task,2021.1.4,Win32,60.01680471,6299f149e92ead563fba08ef,62b70e43662c8674ae400b49,,,,,,,,,,,,,1,,,,,,,,,,Practice,2,(4x4) - 15,1,,,,,,,,,,,,,,,,"[""1""]",1,1,0,1,1,1,1,[1.2886999999880686],,,,,,,,,,,,,,,,,,,,,,,,,,,,,,,,,,,,,,,,,,,,,,,,,,,
,,,,,,,,,,,X V Q F H G B L J M P D K C T S W R N Z,5ffdd8d1b2325f3c1f6edc6b,53,Mężczyzna,2022-06-25_15h40.11.138,task,2021.1.4,Win32,60.01680471,6299f149e92ead563fba08ef,62b70e43662c8674ae400b49,,,,,,,,,,,,,,,,,,,,,,,,,,,,,,,,,,,,,,,,,,,,,,,,,,,0,0,0,0,1,,,,,,,,,,,,,,,,,,,,,,,,,,,,,,,,,,,,,,,,,,,,,,
,,,,,,,,,,,,5ffdd8d1b2325f3c1f6edc6b,53,Mężczyzna,2022-06-25_15h40.11.138,task,2021.1.4,Win32,60.01680471,6299f149e92ead563fba08ef,62b70e43662c8674ae400b49,,,,,,,,,,,,,8,,,,,,,,,,Practice,9,(3x3) - 1,8,,,,,,,,,,,,,,,,"[""8""]",1,1,0,0,0,8,1,[1.3820999999642254],,,,,,,,,,,,,,,,,,,,,,,,,,,,,,,,,,,,,,,,,,,,,,,,,,,
,,,,,,,,,,,X V Q F H G B L J M P D K C T S W R N Z,5ffdd8d1b2325f3c1f6edc6b,53,Mężczyzna,2022-06-25_15h40.11.138,task,2021.1.4,Win32,60.01680471,6299f149e92ead563fba08ef,62b70e43662c8674ae400b49,,,,,,,,,,,,,,,,,,,,,,,,,,,,,,,,,,,,,,,,,,,,,,,,,,,1,0,1,0,1,,,,,,,,,,,,,,,,,,,,,,,,,,,,,,,,,,,,,,,,,,,,,,
,,,,,,,,,,,,5ffdd8d1b2325f3c1f6edc6b,53,Mężczyzna,2022-06-25_15h40.11.138,task,2021.1.4,Win32,60.01680471,6299f149e92ead563fba08ef,62b70e43662c8674ae400b49,,,,,,,,,,,,,,,,,,,,,,,,,,,,,,,,,,,,,,,,,,,,,,,,,,,,,,,,zv,"[""z"",""v""]",0,"[2.188000000000045,2.5702000000476914,3.155700000047716]",1,0,0,0,0,1,,,,,,,,,,,,,,,,,,,,,,,,,,,,,,,,,,,,
,,,,,,,,,,,,5ffdd8d1b2325f3c1f6edc6b,53,Mężczyzna,2022-06-25_15h40.11.138,task,2021.1.4,Win32,60.01680471,6299f149e92ead563fba08ef,62b70e43662c8674ae400b49,,,,,,,,,,,,,7,,,,,,,,,,Practice,8,(5x5) - 18,7,,,,,,,,,,,,,,,,"[""7""]",1,1,0,0,0,7,1,[1.9021999999881132],,,,,,,,,,,,,,,,,,,,,,,,,,,,,,,,,,,,,,,,,,,,,,,,,,,
,,,,,,,,,,,X V Q F H G B L J M P D K C T S W R N Z,5ffdd8d1b2325f3c1f6edc6b,53,Mężczyzna,2022-06-25_15h40.11.138,task,2021.1.4,Win32,60.01680471,6299f149e92ead563fba08ef,62b70e43662c8674ae400b49,,,,,,,,,,,,,,,,,,,,,,,,,,,,,,,,,,,,,,,,,,,,,,,,,,,0,0,0,0,1,,,,,,,,,,,,,,,,,,,,,,,,,,,,,,,,,,,,,,,,,,,,,,
,,,,,,,,,,,,5ffdd8d1b2325f3c1f6edc6b,53,Mężczyzna,2022-06-25_15h40.11.138,task,2021.1.4,Win32,60.01680471,6299f149e92ead563fba08ef,62b70e43662c8674ae400b49,,,,,,,,,,,,,2,,,,,,,,,,Practice,3,(4x4) - 14,2,,,,,,,,,,,,,,,,"[""2""]",1,1,0,0,0,2,1,[1.4203000000119346],,,,,,,,,,,,,,,,,,,,,,,,,,,,,,,,,,,,,,,,,,,,,,,,,,,
,,,,,,,,,,,X V Q F H G B L J M P D K C T S W R N Z,5ffdd8d1b2325f3c1f6edc6b,53,Mężczyzna,2022-06-25_15h40.11.138,task,2021.1.4,Win32,60.01680471,6299f149e92ead563fba08ef,62b70e43662c8674ae400b49,,,,,,,,,,,,,,,,,,,,,,,,,,,,,,,,,,,,,,,,,,,,,,,,,,,1,0,1,0,1,,,,,,,,,,,,,,,,,,,,,,,,,,,,,,,,,,,,,,,,,,,,,,
,,,,,,,,,,,,5ffdd8d1b2325f3c1f6edc6b,53,Mężczyzna,2022-06-25_15h40.11.138,task,2021.1.4,Win32,60.01680471,6299f149e92ead563fba08ef,62b70e43662c8674ae400b49,,,,,,,,,,,,,,,,,,,,,,,,,,,,,,,,,,,,,,,,,,,,,,,,,,,,,,,,lc,"[""l"",""c""]",0,"[1.918699999988064,2.7702999999523286,3.197099999964223]",1,1,0,1,0,1,,,,,,,,,,,,,,,,,,,,,,,,,,,,,,,,,,,,
,,,,,,,,,,,,5ffdd8d1b2325f3c1f6edc6b,53,Mężczyzna,2022-06-25_15h40.11.138,task,2021.1.4,Win32,60.01680471,6299f149e92ead563fba08ef,62b70e43662c8674ae400b49,,,,,,,,,,,,,4,,,,,,,,,,Practice,4,(8/4) + 1,3,,,,,,,,,,,,,,,,"[""4""]",0,0,0,0,0,3,1,[1.6676999999880309],,,,,,,,,,,,,,,,,,,,,,,,,,,,,,,,,,,,,,,,,,,,,,,,,,,
,,,,,,,,,,,,5ffdd8d1b2325f3c1f6edc6b,53,Mężczyzna,2022-06-25_15h40.11.138,task,2021.1.4,Win32,60.01680471,6299f149e92ead563fba08ef,62b70e43662c8674ae400b49,,,,,,,,,,,,,7,,,,,,,,,,Practice,8,(5x5) - 18,7,,,,,,,,,,,,,,,,"[""7""]",1,1,0,1,1,7,1,[1.7509999999999764],,,,,,,,,,,,,,,,,,,,,,,,,,,,,,,,,,,,,,,,,,,,,,,,,,,
,,,,,,,,,,,X V Q F H G B L J M P D K C T S W R N Z,5ffdd8d1b2325f3c1f6edc6b,53,Mężczyzna,2022-06-25_15h40.11.138,task,2021.1.4,Win32,60.01680471,6299f149e92ead563fba08ef,62b70e43662c8674ae400b49,,,,,,,,,,,,,,,,,,,,,,,,,,,,,,,,,,,,,,,,,,,,,,,,,,,0,0,0,0,1,,,,,,,,,,,,,,,,,,,,,,,,,,,,,,,,,,,,,,,,,,,,,,
,,,,,,,,,,,,5ffdd8d1b2325f3c1f6edc6b,53,Mężczyzna,2022-06-25_15h40.11.138,task,2021.1.4,Win32,60.01680471,6299f149e92ead563fba08ef,62b70e43662c8674ae400b49,,,,,,,,,,,,,7,,,,,,,,,,Practice,8,(5x5) - 18,7,,,,,,,,,,,,,,,,"[""7""]",1,1,0,0,0,7,1,[1.4399999999999977],,,,,,,,,,,,,,,,,,,,,,,,,,,,,,,,,,,,,,,,,,,,,,,,,,,
,,,,,,,,,,,X V Q F H G B L J M P D K C T S W R N Z,5ffdd8d1b2325f3c1f6edc6b,53,Mężczyzna,2022-06-25_15h40.11.138,task,2021.1.4,Win32,60.01680471,6299f149e92ead563fba08ef,62b70e43662c8674ae400b49,,,,,,,,,,,,,,,,,,,,,,,,,,,,,,,,,,,,,,,,,,,,,,,,,,,1,0,1,0,1,,,,,,,,,,,,,,,,,,,,,,,,,,,,,,,,,,,,,,,,,,,,,,
,,,,,,,,,,,,5ffdd8d1b2325f3c1f6edc6b,53,Mężczyzna,2022-06-25_15h40.11.138,task,2021.1.4,Win32,60.01680471,6299f149e92ead563fba08ef,62b70e43662c8674ae400b49,,,,,,,,,,,,,,,,,,,,,,,,,,,,,,,,,,,,,,,,,,,,,,,,,,,,,,,,nl,"[""n"",""l""]",0,"[1.5885000000000105,1.8853999999761868,2.1195000000000164]",1,2,0,2,0,1,,,,,,,,,,,,,,,,,,,,,,,,,,,,,,,,,,,,
,,,,,,,,,,,,5ffdd8d1b2325f3c1f6edc6b,53,Mężczyzna,2022-06-25_15h40.11.138,task,2021.1.4,Win32,60.01680471,6299f149e92ead563fba08ef,62b70e43662c8674ae400b49,,,,,,,,,,,,,5,,,,,,,,,,Task,36,(8/4) + 3,5,,,,,,,,,,,,,,,,,,1,,,,,,,,,,,,,,,,,,,,,,space,12.7298,"[""5""]",1,[2.434000000000026],0,0,0,35,1,,,,,,,,,,,,,,,,,,,,,,,,,,
,,,,,,,,,,,X V Q F H G B L J M P D K C T S W R N Z,5ffdd8d1b2325f3c1f6edc6b,53,Mężczyzna,2022-06-25_15h40.11.138,task,2021.1.4,Win32,60.01680471,6299f149e92ead563fba08ef,62b70e43662c8674ae400b49,,,,,,,,,,,,,,,,,,,,,,,,,,,,,,,,,,,,,,,,,,,,,,,,,,,,,,,,,,,,,,,,,,,,,,,,,,,,0,0,0,0,1,,,,,,,,,,,,,,,,,,,,,
,,,,,,,,,,,,5ffdd8d1b2325f3c1f6edc6b,53,Mężczyzna,2022-06-25_15h40.11.138,task,2021.1.4,Win32,60.01680471,6299f149e92ead563fba08ef,62b70e43662c8674ae400b49,,,,,,,,,,,,,1,,,,,,,,,,Task,1,(12/6) - 1,1,,,,,,,,,,,,,,,,,,1,,,,,,,,,,,,,,,,,,,,,,,,"[""1""]",1,[2.057800000011923],0,0,0,0,1,,,,,,,,,,,,,,,,,,,,,,,,,,
,,,,,,,,,,,X V Q F H G B L J M P D K C T S W R N Z,5ffdd8d1b2325f3c1f6edc6b,53,Mężczyzna,2022-06-25_15h40.11.138,task,2021.1.4,Win32,60.01680471,6299f149e92ead563fba08ef,62b70e43662c8674ae400b49,,,,,,,,,,,,,,,,,,,,,,,,,,,,,,,,,,,,,,,,,,,,,,,,,,,,,,,,,,,,,,,,,,,,,,,,,,,,1,0,1,0,1,,,,,,,,,,,,,,,,,,,,,
,,,,,,,,,,,,5ffdd8d1b2325f3c1f6edc6b,53,Mężczyzna,2022-06-25_15h40.11.138,task,2021.1.4,Win32,60.01680471,6299f149e92ead563fba08ef,62b70e43662c8674ae400b49,,,,,,,,,,,,,,,,,,,,,,,,,,,,,,,,,,,,,,,,,,,,,,,,,,,,,,,,,,,,,,,,,,,,,,,,,,,,,,,,,zs,"[""z"",""s""]",0,"[1.4583000000119455,1.641199999988089,2.29019999998809]",1,ZS,0,0,0,0,1,,,,,,,,,,
,,,,,,,,,,,,5ffdd8d1b2325f3c1f6edc6b,53,Mężczyzna,2022-06-25_15h40.11.138,task,2021.1.4,Win32,60.01680471,6299f149e92ead563fba08ef,62b70e43662c8674ae400b49,,,,,,,,,,,,,0,,,,,,,,,,Task,25,(10/5) - 2,0,,,,,,,,,,,,,,,,,,1,,,,,,,,,,,,,,,,,,,,,,,,"[""0""]",1,[1.8025999999642295],0,0,0,24,1,,,,,,,,,,,,,,,,,,,,,,,,,,
,,,,,,,,,,,X V Q F H G B L J M P D K C T S W R N Z,5ffdd8d1b2325f3c1f6edc6b,53,Mężczyzna,2022-06-25_15h40.11.138,task,2021.1.4,Win32,60.01680471,6299f149e92ead563fba08ef,62b70e43662c8674ae400b49,,,,,,,,,,,,,,,,,,,,,,,,,,,,,,,,,,,,,,,,,,,,,,,,,,,,,,,,,,,,,,,,,,,,,,,,,,,,0,0,0,0,1,,,,,,,,,,,,,,,,,,,,,
,,,,,,,,,,,,5ffdd8d1b2325f3c1f6edc6b,53,Mężczyzna,2022-06-25_15h40.11.138,task,2021.1.4,Win32,60.01680471,6299f149e92ead563fba08ef,62b70e43662c8674ae400b49,,,,,,,,,,,,,1,,,,,,,,,,Task,1,(12/6) - 1,1,,,,,,,,,,,,,,,,,,1,,,,,,,,,,,,,,,,,,,,,,,,"[""1""]",1,[1.7657000000477296],0,0,0,0,1,,,,,,,,,,,,,,,,,,,,,,,,,,
,,,,,,,,,,,X V Q F H G B L J M P D K C T S W R N Z,5ffdd8d1b2325f3c1f6edc6b,53,Mężczyzna,2022-06-25_15h40.11.138,task,2021.1.4,Win32,60.01680471,6299f149e92ead563fba08ef,62b70e43662c8674ae400b49,,,,,,,,,,,,,,,,,,,,,,,,,,,,,,,,,,,,,,,,,,,,,,,,,,,,,,,,,,,,,,,,,,,,,,,,,,,,1,0,1,0,1,,,,,,,,,,,,,,,,,,,,,
,,,,,,,,,,,,5ffdd8d1b2325f3c1f6edc6b,53,Mężczyzna,2022-06-25_15h40.11.138,task,2021.1.4,Win32,60.01680471,6299f149e92ead563fba08ef,62b70e43662c8674ae400b49,,,,,,,,,,,,,1,,,,,,,,,,Task,1,(12/6) - 1,1,,,,,,,,,,,,,,,,,,1,,,,,,,,,,,,,,,,,,,,,,,,"[""1""]",1,[2.1348000000119214],0,0,0,0,1,,,,,,,,,,,,,,,,,,,,,,,,,,
,,,,,,,,,,,X V Q F H G B L J M P D K C T S W R N Z,5ffdd8d1b2325f3c1f6edc6b,53,Mężczyzna,2022-06-25_15h40.11.138,task,2021.1.4,Win32,60.01680471,6299f149e92ead563fba08ef,62b70e43662c8674ae400b49,,,,,,,,,,,,,,,,,,,,,,,,,,,,,,,,,,,,,,,,,,,,,,,,,,,,,,,,,,,,,,,,,,,,,,,,,,,,2,0,2,0,1,,,,,,,,,,,,,,,,,,,,,
,,,,,,,,,,,,5ffdd8d1b2325f3c1f6edc6b,53,Mężczyzna,2022-06-25_15h40.11.138,task,2021.1.4,Win32,60.01680471,6299f149e92ead563fba08ef,62b70e43662c8674ae400b49,,,,,,,,,,,,,,,,,,,,,,,,,,,,,,,,,,,,,,,,,,,,,,,,,,,,,,,,,,,,,,,,,,,,,,,,,,,,,,,,,qqt,"[""q"",""q"",""t""]",0,"[2.469699999988052,2.58660000002385,3.4969999999999573,5.346000000000004]",1,QQT,1,0,1,0,1,,,,,,,,,,
,,,,,,,,,,,,5ffdd8d1b2325f3c1f6edc6b,53,Mężczyzna,2022-06-25_15h40.11.138,task,2021.1.4,Win32,60.01680471,6299f149e92ead563fba08ef,62b70e43662c8674ae400b49,,,,,,,,,,,,,6,,,,,,,,,,Task,30,(6/3) + 4 ,6,,,,,,,,,,,,,,,,,,1,,,,,,,,,,,,,,,,,,,,,,,,"[""6""]",1,[2.47409999996421],0,0,0,29,1,,,,,,,,,,,,,,,,,,,,,,,,,,
,,,,,,,,,,,X V Q F H G B L J M P D K C T S W R N Z,5ffdd8d1b2325f3c1f6edc6b,53,Mężczyzna,2022-06-25_15h40.11.138,task,2021.1.4,Win32,60.01680471,6299f149e92ead563fba08ef,62b70e43662c8674ae400b49,,,,,,,,,,,,,,,,,,,,,,,,,,,,,,,,,,,,,,,,,,,,,,,,,,,,,,,,,,,,,,,,,,,,,,,,,,,,0,0,0,0,1,,,,,,,,,,,,,,,,,,,,,
,,,,,,,,,,,,5ffdd8d1b2325f3c1f6edc6b,53,Mężczyzna,2022-06-25_15h40.11.138,task,2021.1.4,Win32,60.01680471,6299f149e92ead563fba08ef,62b70e43662c8674ae400b49,,,,,,,,,,,,,6,,,,,,,,,,Task,37,(3/3) + 5,6,,,,,,,,,,,,,,,,,,1,,,,,,,,,,,,,,,,,,,,,,,,"[""6""]",1,[1.9891999999881023],0,0,0,36,1,,,,,,,,,,,,,,,,,,,,,,,,,,
,,,,,,,,,,,X V Q F H G B L J M P D K C T S W R N Z,5ffdd8d1b2325f3c1f6edc6b,53,Mężczyzna,2022-06-25_15h40.11.138,task,2021.1.4,Win32,60.01680471,6299f149e92ead563fba08ef,62b70e43662c8674ae400b49,,,,,,,,,,,,,,,,,,,,,,,,,,,,,,,,,,,,,,,,,,,,,,,,,,,,,,,,,,,,,,,,,,,,,,,,,,,,1,0,1,0,1,,,,,,,,,,,,,,,,,,,,,
,,,,,,,,,,,,5ffdd8d1b2325f3c1f6edc6b,53,Mężczyzna,2022-06-25_15h40.11.138,task,2021.1.4,Win32,60.01680471,6299f149e92ead563fba08ef,62b70e43662c8674ae400b49,,,,,,,,,,,,,2,,,,,,,,,,Task,2,(2x2) - 2,2,,,,,,,,,,,,,,,,,,1,,,,,,,,,,,,,,,,,,,,,,,,"[""2""]",1,[1.8214999999999577],0,0,0,1,1,,,,,,,,,,,,,,,,,,,,,,,,,,
,,,,,,,,,,,X V Q F H G B L J M P D K C T S W R N Z,5ffdd8d1b2325f3c1f6edc6b,53,Mężczyzna,2022-06-25_15h40.11.138,task,2021.1.4,Win32,60.01680471,6299f149e92ead563fba08ef,62b70e43662c8674ae400b49,,,,,,,,,,,,,,,,,,,,,,,,,,,,,,,,,,,,,,,,,,,,,,,,,,,,,,,,,,,,,,,,,,,,,,,,,,,,2,0,2,0,1,,,,,,,,,,,,,,,,,,,,,
,,,,,,,,,,,,5ffdd8d1b2325f3c1f6edc6b,53,Mężczyzna,2022-06-25_15h40.11.138,task,2021.1.4,Win32,60.01680471,6299f149e92ead563fba08ef,62b70e43662c8674ae400b49,,,,,,,,,,,,,1,,,,,,,,,,Task,1,(12/6) - 1,1,,,,,,,,,,,,,,,,,,1,,,,,,,,,,,,,,,,,,,,,,,,"[""1""]",1,[2.6362000000476655],0,0,0,0,1,,,,,,,,,,,,,,,,,,,,,,,,,,
,,,,,,,,,,,X V Q F H G B L J M P D K C T S W R N Z,5ffdd8d1b2325f3c1f6edc6b,53,Mężczyzna,2022-06-25_15h40.11.138,task,2021.1.4,Win32,60.01680471,6299f149e92ead563fba08ef,62b70e43662c8674ae400b49,,,,,,,,,,,,,,,,,,,,,,,,,,,,,,,,,,,,,,,,,,,,,,,,,,,,,,,,,,,,,,,,,,,,,,,,,,,,3,0,3,0,1,,,,,,,,,,,,,,,,,,,,,
,,,,,,,,,,,,5ffdd8d1b2325f3c1f6edc6b,53,Mężczyzna,2022-06-25_15h40.11.138,task,2021.1.4,Win32,60.01680471,6299f149e92ead563fba08ef,62b70e43662c8674ae400b49,,,,,,,,,,,,,,,,,,,,,,,,,,,,,,,,,,,,,,,,,,,,,,,,,,,,,,,,,,,,,,,,,,,,,,,,,,,,,,,,,stpr,"[""s"",""t"",""p"",""r""]",0,"[1.869800000011935,2.903800000011927,3.3206000000238305,4.037800000011941,4.654800000011903]",1,STPR,2,0,2,0,1,,,,,,,,,,
,,,,,,,,,,,,5ffdd8d1b2325f3c1f6edc6b,53,Mężczyzna,2022-06-25_15h40.11.138,task,2021.1.4,Win32,60.01680471,6299f149e92ead563fba08ef,62b70e43662c8674ae400b49,,,,,,,,,,,,,1,,,,,,,,,,Task,18,(16/4) - 3,1,,,,,,,,,,,,,,,,,,1,,,,,,,,,,,,,,,,,,,,,,,,"[""1""]",1,[1.6891000000238137],0,0,0,17,1,,,,,,,,,,,,,,,,,,,,,,,,,,
,,,,,,,,,,,X V Q F H G B L J M P D K C T S W R N Z,5ffdd8d1b2325f3c1f6edc6b,53,Mężczyzna,2022-06-25_15h40.11.138,task,2021.1.4,Win32,60.01680471,6299f149e92ead563fba08ef,62b70e43662c8674ae400b49,,,,,,,,,,,,,,,,,,,,,,,,,,,,,,,,,,,,,,,,,,,,,,,,,,,,,,,,,,,,,,,,,,,,,,,,,,,,0,0,0,0,1,,,,,,,,,,,,,,,,,,,,,
,,,,,,,,,,,,5ffdd8d1b2325f3c1f6edc6b,53,Mężczyzna,2022-06-25_15h40.11.138,task,2021.1.4,Win32,60.01680471,6299f149e92ead563fba08ef,62b70e43662c8674ae400b49,,,,,,,,,,,,,4,,,,,,,,,,Task,4,(1x5) - 1,4,,,,,,,,,,,,,,,,,,1,,,,,,,,,,,,,,,,,,,,,,,,"[""4""]",1,[1.8513000000119177],0,0,0,3,1,,,,,,,,,,,,,,,,,,,,,,,,,,
,,,,,,,,,,,X V Q F H G B L J M P D K C T S W R N Z,5ffdd8d1b2325f3c1f6edc6b,53,Mężczyzna,2022-06-25_15h40.11.138,task,2021.1.4,Win32,60.01680471,6299f149e92ead563fba08ef,62b70e43662c8674ae400b49,,,,,,,,,,,,,,,,,,,,,,,,,,,,,,,,,,,,,,,,,,,,,,,,,,,,,,,,,,,,,,,,,,,,,,,,,,,,1,0,1,0,1,,,,,,,,,,,,,,,,,,,,,
,,,,,,,,,,,,5ffdd8d1b2325f3c1f6edc6b,53,Mężczyzna,2022-06-25_15h40.11.138,task,2021.1.4,Win32,60.01680471,6299f149e92ead563fba08ef,62b70e43662c8674ae400b49,,,,,,,,,,,,,9,,,,,,,,,,Task,24,(2x2) + 5,9,,,,,,,,,,,,,,,,,,1,,,,,,,,,,,,,,,,,,,,,,,,"[""9""]",1,[2.6065000000000396],0,0,0,23,1,,,,,,,,,,,,,,,,,,,,,,,,,,
,,,,,,,,,,,X V Q F H G B L J M P D K C T S W R N Z,5ffdd8d1b2325f3c1f6edc6b,53,Mężczyzna,2022-06-25_15h40.11.138,task,2021.1.4,Win32,60.01680471,6299f149e92ead563fba08ef,62b70e43662c8674ae400b49,,,,,,,,,,,,,,,,,,,,,,,,,,,,,,,,,,,,,,,,,,,,,,,,,,,,,,,,,,,,,,,,,,,,,,,,,,,,2,0,2,0,1,,,,,,,,,,,,,,,,,,,,,
,,,,,,,,,,,,5ffdd8d1b2325f3c1f6edc6b,53,Mężczyzna,2022-06-25_15h40.11.138,task,2021.1.4,Win32,60.01680471,6299f149e92ead563fba08ef,62b70e43662c8674ae400b49,,,,,,,,,,,,,1,,,,,,,,,,Task,18,(16/4) - 3,1,,,,,,,,,,,,,,,,,,1,,,,,,,,,,,,,,,,,,,,,,,,"[""1""]",1,[2.4872000000476646],0,0,0,17,1,,,,,,,,,,,,,,,,,,,,,,,,,,
,,,,,,,,,,,X V Q F H G B L J M P D K C T S W R N Z,5ffdd8d1b2325f3c1f6edc6b,53,Mężczyzna,2022-06-25_15h40.11.138,task,2021.1.4,Win32,60.01680471,6299f149e92ead563fba08ef,62b70e43662c8674ae400b49,,,,,,,,,,,,,,,,,,,,,,,,,,,,,,,,,,,,,,,,,,,,,,,,,,,,,,,,,,,,,,,,,,,,,,,,,,,,3,0,3,0,1,,,,,,,,,,,,,,,,,,,,,
,,,,,,,,,,,,5ffdd8d1b2325f3c1f6edc6b,53,Mężczyzna,2022-06-25_15h40.11.138,task,2021.1.4,Win32,60.01680471,6299f149e92ead563fba08ef,62b70e43662c8674ae400b49,,,,,,,,,,,,,5,,,,,,,,,,Task,29,(3x8) - 19 ,5,,,,,,,,,,,,,,,,,,1,,,,,,,,,,,,,,,,,,,,,,,,"[""5""]",1,[3.3840000000000146],0,0,0,28,1,,,,,,,,,,,,,,,,,,,,,,,,,,
,,,,,,,,,,,X V Q F H G B L J M P D K C T S W R N Z,5ffdd8d1b2325f3c1f6edc6b,53,Mężczyzna,2022-06-25_15h40.11.138,task,2021.1.4,Win32,60.01680471,6299f149e92ead563fba08ef,62b70e43662c8674ae400b49,,,,,,,,,,,,,,,,,,,,,,,,,,,,,,,,,,,,,,,,,,,,,,,,,,,,,,,,,,,,,,,,,,,,,,,,,,,,4,0,4,0,1,,,,,,,,,,,,,,,,,,,,,
,,,,,,,,,,,,5ffdd8d1b2325f3c1f6edc6b,53,Mężczyzna,2022-06-25_15h40.11.138,task,2021.1.4,Win32,60.01680471,6299f149e92ead563fba08ef,62b70e43662c8674ae400b49,,,,,,,,,,,,,,,,,,,,,,,,,,,,,,,,,,,,,,,,,,,,,,,,,,,,,,,,,,,,,,,,,,,,,,,,,,,,,,,,,dnbwd,"[""d"",""n"",""b"",""w"",""d""]",0,"[3.1047000000477283,3.694900000035773,3.8719000000357937,5.096600000023841,5.339700000047685,6.02410000002385]",0,DNBVD,3,0,3,0,1,,,,,,,,,,
,,,,,,,,,,,,5ffdd8d1b2325f3c1f6edc6b,53,Mężczyzna,2022-06-25_15h40.11.138,task,2021.1.4,Win32,60.01680471,6299f149e92ead563fba08ef,62b70e43662c8674ae400b49,,,,,,,,,,,,,0,,,,,,,,,,Task,8,(1x5) - 5,0,,,,,,,,,,,,,,,,,,1,,,,,,,,,,,,,,,,,,,,,,,,"[""0""]",1,[2.099700000047676],0,0,0,7,1,,,,,,,,,,,,,,,,,,,,,,,,,,
,,,,,,,,,,,X V Q F H G B L J M P D K C T S W R N Z,5ffdd8d1b2325f3c1f6edc6b,53,Mężczyzna,2022-06-25_15h40.11.138,task,2021.1.4,Win32,60.01680471,6299f149e92ead563fba08ef,62b70e43662c8674ae400b49,,,,,,,,,,,,,,,,,,,,,,,,,,,,,,,,,,,,,,,,,,,,,,,,,,,,,,,,,,,,,,,,,,,,,,,,,,,,0,0,0,0,1,,,,,,,,,,,,,,,,,,,,,
,,,,,,,,,,,,5ffdd8d1b2325f3c1f6edc6b,53,Mężczyzna,2022-06-25_15h40.11.138,task,2021.1.4,Win32,60.01680471,6299f149e92ead563fba08ef,62b70e43662c8674ae400b49,,,,,,,,,,,,,3,,,,,,,,,,Task,20,(18/9) + 1,3,,,,,,,,,,,,,,,,,,1,,,,,,,,,,,,,,,,,,,,,,,,"[""3""]",1,[2.3656999999881236],0,0,0,19,1,,,,,,,,,,,,,,,,,,,,,,,,,,
,,,,,,,,,,,X V Q F H G B L J M P D K C T S W R N Z,5ffdd8d1b2325f3c1f6edc6b,53,Mężczyzna,2022-06-25_15h40.11.138,task,2021.1.4,Win32,60.01680471,6299f149e92ead563fba08ef,62b70e43662c8674ae400b49,,,,,,,,,,,,,,,,,,,,,,,,,,,,,,,,,,,,,,,,,,,,,,,,,,,,,,,,,,,,,,,,,,,,,,,,,,,,1,0,1,0,1,,,,,,,,,,,,,,,,,,,,,
,,,,,,,,,,,,5ffdd8d1b2325f3c1f6edc6b,53,Mężczyzna,2022-06-25_15h40.11.138,task,2021.1.4,Win32,60.01680471,6299f149e92ead563fba08ef,62b70e43662c8674ae400b49,,,,,,,,,,,,,3,,,,,,,,,,Task,20,(18/9) + 1,3,,,,,,,,,,,,,,,,,,1,,,,,,,,,,,,,,,,,,,,,,,,"[""3""]",1,[2.086099999964233],0,0,0,19,1,,,,,,,,,,,,,,,,,,,,,,,,,,
,,,,,,,,,,,X V Q F H G B L J M P D K C T S W R N Z,5ffdd8d1b2325f3c1f6edc6b,53,Mężczyzna,2022-06-25_15h40.11.138,task,2021.1.4,Win32,60.01680471,6299f149e92ead563fba08ef,62b70e43662c8674ae400b49,,,,,,,,,,,,,,,,,,,,,,,,,,,,,,,,,,,,,,,,,,,,,,,,,,,,,,,,,,,,,,,,,,,,,,,,,,,,2,0,2,0,1,,,,,,,,,,,,,,,,,,,,,
,,,,,,,,,,,,5ffdd8d1b2325f3c1f6edc6b,53,Mężczyzna,2022-06-25_15h40.11.138,task,2021.1.4,Win32,60.01680471,6299f149e92ead563fba08ef,62b70e43662c8674ae400b49,,,,,,,,,,,,,4,,,,,,,,,,Task,4,(1x5) - 1,4,,,,,,,,,,,,,,,,,,1,,,,,,,,,,,,,,,,,,,,,,,,"[""4""]",1,[2.019300000011924],0,0,0,3,1,,,,,,,,,,,,,,,,,,,,,,,,,,
,,,,,,,,,,,X V Q F H G B L J M P D K C T S W R N Z,5ffdd8d1b2325f3c1f6edc6b,53,Mężczyzna,2022-06-25_15h40.11.138,task,2021.1.4,Win32,60.01680471,6299f149e92ead563fba08ef,62b70e43662c8674ae400b49,,,,,,,,,,,,,,,,,,,,,,,,,,,,,,,,,,,,,,,,,,,,,,,,,,,,,,,,,,,,,,,,,,,,,,,,,,,,3,0,3,0,1,,,,,,,,,,,,,,,,,,,,,
,,,,,,,,,,,,5ffdd8d1b2325f3c1f6edc6b,53,Mężczyzna,2022-06-25_15h40.11.138,task,2021.1.4,Win32,60.01680471,6299f149e92ead563fba08ef,62b70e43662c8674ae400b49,,,,,,,,,,,,,4,,,,,,,,,,Task,21,(10/2) - 1,4,,,,,,,,,,,,,,,,,,1,,,,,,,,,,,,,,,,,,,,,,,,"[""4""]",1,[1.9935999999642036],0,0,0,20,1,,,,,,,,,,,,,,,,,,,,,,,,,,
,,,,,,,,,,,X V Q F H G B L J M P D K C T S W R N Z,5ffdd8d1b2325f3c1f6edc6b,53,Mężczyzna,2022-06-25_15h40.11.138,task,2021.1.4,Win32,60.01680471,6299f149e92ead563fba08ef,62b70e43662c8674ae400b49,,,,,,,,,,,,,,,,,,,,,,,,,,,,,,,,,,,,,,,,,,,,,,,,,,,,,,,,,,,,,,,,,,,,,,,,,,,,4,0,4,0,1,,,,,,,,,,,,,,,,,,,,,
,,,,,,,,,,,,5ffdd8d1b2325f3c1f6edc6b,53,Mężczyzna,2022-06-25_15h40.11.138,task,2021.1.4,Win32,60.01680471,6299f149e92ead563fba08ef,62b70e43662c8674ae400b49,,,,,,,,,,,,,,,,,,,,,,,,,,,,,,,,,,,,,,,,,,,,,,,,,,,,,,,,,,,,,,,,,,,,,,,,,,,,,,,,,kqfzc,"[""k"",""q"",""f"",""z"",""c""]",0,"[2.5693000000119355,3.1241999999880363,4.297699999988026,5.422500000000014,6.1404999999999745,6.817599999964159]",1,KQFZC,4,0,4,0,1,,,,,,,,,,
,,,,,,,,,,,,5ffdd8d1b2325f3c1f6edc6b,53,Mężczyzna,2022-06-25_15h40.11.138,task,2021.1.4,Win32,60.01680471,6299f149e92ead563fba08ef,62b70e43662c8674ae400b49,,,,,,,,,,,,,1,,,,,,,,,,Task,9,(3x7) - 20,1,,,,,,,,,,,,,,,,,,1,,,,,,,,,,,,,,,,,,,,,,,,"[""1""]",1,[3.4862999999523936],0,0,0,8,1,,,,,,,,,,,,,,,,,,,,,,,,,,
,,,,,,,,,,,X V Q F H G B L J M P D K C T S W R N Z,5ffdd8d1b2325f3c1f6edc6b,53,Mężczyzna,2022-06-25_15h40.11.138,task,2021.1.4,Win32,60.01680471,6299f149e92ead563fba08ef,62b70e43662c8674ae400b49,,,,,,,,,,,,,,,,,,,,,,,,,,,,,,,,,,,,,,,,,,,,,,,,,,,,,,,,,,,,,,,,,,,,,,,,,,,,0,0,0,0,1,,,,,,,,,,,,,,,,,,,,,
,,,,,,,,,,,,5ffdd8d1b2325f3c1f6edc6b,53,Mężczyzna,2022-06-25_15h40.11.138,task,2021.1.4,Win32,60.01680471,6299f149e92ead563fba08ef,62b70e43662c8674ae400b49,,,,,,,,,,,,,4,,,,,,,,,,Task,4,(1x5) - 1,4,,,,,,,,,,,,,,,,,,1,,,,,,,,,,,,,,,,,,,,,,,,"[""4""]",1,[1.5006999999881145],0,0,0,3,1,,,,,,,,,,,,,,,,,,,,,,,,,,
,,,,,,,,,,,X V Q F H G B L J M P D K C T S W R N Z,5ffdd8d1b2325f3c1f6edc6b,53,Mężczyzna,2022-06-25_15h40.11.138,task,2021.1.4,Win32,60.01680471,6299f149e92ead563fba08ef,62b70e43662c8674ae400b49,,,,,,,,,,,,,,,,,,,,,,,,,,,,,,,,,,,,,,,,,,,,,,,,,,,,,,,,,,,,,,,,,,,,,,,,,,,,1,0,1,0,1,,,,,,,,,,,,,,,,,,,,,
,,,,,,,,,,,,5ffdd8d1b2325f3c1f6edc6b,53,Mężczyzna,2022-06-25_15h40.11.138,task,2021.1.4,Win32,60.01680471,6299f149e92ead563fba08ef,62b70e43662c8674ae400b49,,,,,,,,,,,,,2,,,,,,,,,,Task,10,(2x5) - 8,2,,,,,,,,,,,,,,,,,,1,,,,,,,,,,,,,,,,,,,,,,,,"[""2""]",1,[1.7680999999641926],0,0,0,9,1,,,,,,,,,,,,,,,,,,,,,,,,,,
,,,,,,,,,,,X V Q F H G B L J M P D K C T S W R N Z,5ffdd8d1b2325f3c1f6edc6b,53,Mężczyzna,2022-06-25_15h40.11.138,task,2021.1.4,Win32,60.01680471,6299f149e92ead563fba08ef,62b70e43662c8674ae400b49,,,,,,,,,,,,,,,,,,,,,,,,,,,,,,,,,,,,,,,,,,,,,,,,,,,,,,,,,,,,,,,,,,,,,,,,,,,,2,0,2,0,1,,,,,,,,,,,,,,,,,,,,,
,,,,,,,,,,,,5ffdd8d1b2325f3c1f6edc6b,53,Mężczyzna,2022-06-25_15h40.11.138,task,2021.1.4,Win32,60.01680471,6299f149e92ead563fba08ef,62b70e43662c8674ae400b49,,,,,,,,,,,,,5,,,,,,,,,,Task,36,(8/4) + 3,5,,,,,,,,,,,,,,,,,,1,,,,,,,,,,,,,,,,,,,,,,,,"[""5""]",1,[2.5854000000357473],0,0,0,35,1,,,,,,,,,,,,,,,,,,,,,,,,,,
,,,,,,,,,,,X V Q F H G B L J M P D K C T S W R N Z,5ffdd8d1b2325f3c1f6edc6b,53,Mężczyzna,2022-06-25_15h40.11.138,task,2021.1.4,Win32,60.01680471,6299f149e92ead563fba08ef,62b70e43662c8674ae400b49,,,,,,,,,,,,,,,,,,,,,,,,,,,,,,,,,,,,,,,,,,,,,,,,,,,,,,,,,,,,,,,,,,,,,,,,,,,,3,0,3,0,1,,,,,,,,,,,,,,,,,,,,,
,,,,,,,,,,,,5ffdd8d1b2325f3c1f6edc6b,53,Mężczyzna,2022-06-25_15h40.11.138,task,2021.1.4,Win32,60.01680471,6299f149e92ead563fba08ef,62b70e43662c8674ae400b49,,,,,,,,,,,,,,,,,,,,,,,Task,15,(3x7) - 13,8,,,,,,,,,,,,,,,,,,0,,,,,,,,,,,,,,,,,,,,,,,,,0,,0,0,0,14,1,,,,,,,,,,,,,,,,,,,,,,,,,,
,,,,,,,,,,,,5ffdd8d1b2325f3c1f6edc6b,53,Mężczyzna,2022-06-25_15h40.11.138,task,2021.1.4,Win32,60.01680471,6299f149e92ead563fba08ef,62b70e43662c8674ae400b49,,,,,,,,,,,,,0,,,,,,,,,,Task,2,(2x2) - 2,2,,,,,,,,,,,,,,,,,,0,,,,,,,,,,,,,,,,,,,,,,,,"[""0""]",0,[1.5515000000000327],0,1,1,1,1,,,,,,,,,,,,,,,,,,,,,,,,,,
,,,,,,,,,,,,5ffdd8d1b2325f3c1f6edc6b,53,Mężczyzna,2022-06-25_15h40.11.138,task,2021.1.4,Win32,60.01680471,6299f149e92ead563fba08ef,62b70e43662c8674ae400b49,,,,,,,,,,,,,4,,,,,,,,,,Task,4,(1x5) - 1,4,,,,,,,,,,,,,,,,,,1,,,,,,,,,,,,,,,,,,,,,,,,"[""4""]",1,[1.7336999999880618],0,2,2,3,1,,,,,,,,,,,,,,,,,,,,,,,,,,
,,,,,,,,,,,X V Q F H G B L J M P D K C T S W R N Z,5ffdd8d1b2325f3c1f6edc6b,53,Mężczyzna,2022-06-25_15h40.11.138,task,2021.1.4,Win32,60.01680471,6299f149e92ead563fba08ef,62b70e43662c8674ae400b49,,,,,,,,,,,,,,,,,,,,,,,,,,,,,,,,,,,,,,,,,,,,,,,,,,,,,,,,,,,,,,,,,,,,,,,,,,,,4,0,4,0,1,,,,,,,,,,,,,,,,,,,,,
,,,,,,,,,,,,5ffdd8d1b2325f3c1f6edc6b,53,Mężczyzna,2022-06-25_15h40.11.138,task,2021.1.4,Win32,60.01680471,6299f149e92ead563fba08ef,62b70e43662c8674ae400b49,,,,,,,,,,,,,5,,,,,,,,,,Task,22,(3x1) + 2,5,,,,,,,,,,,,,,,,,,1,,,,,,,,,,,,,,,,,,,,,,,,"[""5""]",1,[2.03369999998813],0,0,0,21,1,,,,,,,,,,,,,,,,,,,,,,,,,,
,,,,,,,,,,,X V Q F H G B L J M P D K C T S W R N Z,5ffdd8d1b2325f3c1f6edc6b,53,Mężczyzna,2022-06-25_15h40.11.138,task,2021.1.4,Win32,60.01680471,6299f149e92ead563fba08ef,62b70e43662c8674ae400b49,,,,,,,,,,,,,,,,,,,,,,,,,,,,,,,,,,,,,,,,,,,,,,,,,,,,,,,,,,,,,,,,,,,,,,,,,,,,5,0,5,0,1,,,,,,,,,,,,,,,,,,,,,
,,,,,,,,,,,,5ffdd8d1b2325f3c1f6edc6b,53,Mężczyzna,2022-06-25_15h40.11.138,task,2021.1.4,Win32,60.01680471,6299f149e92ead563fba08ef,62b70e43662c8674ae400b49,,,,,,,,,,,,,,,,,,,,,,,,,,,,,,,,,,,,,,,,,,,,,,,,,,,,,,,,,,,,,,,,,,,,,,,,,,,,,,,,,zrhhmq,"[""z"",""r"",""h"",""h"",""m"",""q""]",0,"[1.7599000000358274,2.88690000003578,3.287700000047721,3.4377000000476983,3.7549999999999955,4.338600000023803,5.006700000047658]",1,ZRHHMQ,5,0,5,0,1,,,,,,,,,,
,,,,,,,,,,,,5ffdd8d1b2325f3c1f6edc6b,53,Mężczyzna,2022-06-25_15h40.11.138,task,2021.1.4,Win32,60.01680471,6299f149e92ead563fba08ef,62b70e43662c8674ae400b49,,,,,,,,,,,,,3,,,,,,,,,,Task,20,(18/9) + 1,3,,,,,,,,,,,,,,,,,,1,,,,,,,,,,,,,,,,,,,,,,,,"[""3""]",1,[1.534100000023841],0,0,0,19,1,,,,,,,,,,,,,,,,,,,,,,,,,,
,,,,,,,,,,,X V Q F H G B L J M P D K C T S W R N Z,5ffdd8d1b2325f3c1f6edc6b,53,Mężczyzna,2022-06-25_15h40.11.138,task,2021.1.4,Win32,60.01680471,6299f149e92ead563fba08ef,62b70e43662c8674ae400b49,,,,,,,,,,,,,,,,,,,,,,,,,,,,,,,,,,,,,,,,,,,,,,,,,,,,,,,,,,,,,,,,,,,,,,,,,,,,0,0,0,0,1,,,,,,,,,,,,,,,,,,,,,
,,,,,,,,,,,,5ffdd8d1b2325f3c1f6edc6b,53,Mężczyzna,2022-06-25_15h40.11.138,task,2021.1.4,Win32,60.01680471,6299f149e92ead563fba08ef,62b70e43662c8674ae400b49,,,,,,,,,,,,,4,,,,,,,,,,Task,28,(2x5) - 6,4,,,,,,,,,,,,,,,,,,1,,,,,,,,,,,,,,,,,,,,,,,,"[""4""]",1,[2.504000000000019],0,0,0,27,1,,,,,,,,,,,,,,,,,,,,,,,,,,
,,,,,,,,,,,X V Q F H G B L J M P D K C T S W R N Z,5ffdd8d1b2325f3c1f6edc6b,53,Mężczyzna,2022-06-25_15h40.11.138,task,2021.1.4,Win32,60.01680471,6299f149e92ead563fba08ef,62b70e43662c8674ae400b49,,,,,,,,,,,,,,,,,,,,,,,,,,,,,,,,,,,,,,,,,,,,,,,,,,,,,,,,,,,,,,,,,,,,,,,,,,,,1,0,1,0,1,,,,,,,,,,,,,,,,,,,,,
,,,,,,,,,,,,5ffdd8d1b2325f3c1f6edc6b,53,Mężczyzna,2022-06-25_15h40.11.138,task,2021.1.4,Win32,60.01680471,6299f149e92ead563fba08ef,62b70e43662c8674ae400b49,,,,,,,,,,,,,9,,,,,,,,,,Task,16,(3x8) - 15,9,,,,,,,,,,,,,,,,,,1,,,,,,,,,,,,,,,,,,,,,,,,"[""9""]",1,[2.6875],0,0,0,15,1,,,,,,,,,,,,,,,,,,,,,,,,,,
,,,,,,,,,,,X V Q F H G B L J M P D K C T S W R N Z,5ffdd8d1b2325f3c1f6edc6b,53,Mężczyzna,2022-06-25_15h40.11.138,task,2021.1.4,Win32,60.01680471,6299f149e92ead563fba08ef,62b70e43662c8674ae400b49,,,,,,,,,,,,,,,,,,,,,,,,,,,,,,,,,,,,,,,,,,,,,,,,,,,,,,,,,,,,,,,,,,,,,,,,,,,,2,0,2,0,1,,,,,,,,,,,,,,,,,,,,,
,,,,,,,,,,,,5ffdd8d1b2325f3c1f6edc6b,53,Mężczyzna,2022-06-25_15h40.11.138,task,2021.1.4,Win32,60.01680471,6299f149e92ead563fba08ef,62b70e43662c8674ae400b49,,,,,,,,,,,,,6,,,,,,,,,,Task,5,(2x3) + 0,6,,,,,,,,,,,,,,,,,,1,,,,,,,,,,,,,,,,,,,,,,,,"[""6""]",1,[3.8396999999880563],0,0,0,4,1,,,,,,,,,,,,,,,,,,,,,,,,,,
,,,,,,,,,,,X V Q F H G B L J M P D K C T S W R N Z,5ffdd8d1b2325f3c1f6edc6b,53,Mężczyzna,2022-06-25_15h40.11.138,task,2021.1.4,Win32,60.01680471,6299f149e92ead563fba08ef,62b70e43662c8674ae400b49,,,,,,,,,,,,,,,,,,,,,,,,,,,,,,,,,,,,,,,,,,,,,,,,,,,,,,,,,,,,,,,,,,,,,,,,,,,,3,0,3,0,1,,,,,,,,,,,,,,,,,,,,,
,,,,,,,,,,,,5ffdd8d1b2325f3c1f6edc6b,53,Mężczyzna,2022-06-25_15h40.11.138,task,2021.1.4,Win32,60.01680471,6299f149e92ead563fba08ef,62b70e43662c8674ae400b49,,,,,,,,,,,,,8,,,,,,,,,,Task,39,(5x3) - 7,8,,,,,,,,,,,,,,,,,,1,,,,,,,,,,,,,,,,,,,,,,,,"[""8""]",1,[3.5186999999881436],0,0,0,38,1,,,,,,,,,,,,,,,,,,,,,,,,,,
,,,,,,,,,,,X V Q F H G B L J M P D K C T S W R N Z,5ffdd8d1b2325f3c1f6edc6b,53,Mężczyzna,2022-06-25_15h40.11.138,task,2021.1.4,Win32,60.01680471,6299f149e92ead563fba08ef,62b70e43662c8674ae400b49,,,,,,,,,,,,,,,,,,,,,,,,,,,,,,,,,,,,,,,,,,,,,,,,,,,,,,,,,,,,,,,,,,,,,,,,,,,,4,0,4,0,1,,,,,,,,,,,,,,,,,,,,,
,,,,,,,,,,,,5ffdd8d1b2325f3c1f6edc6b,53,Mężczyzna,2022-06-25_15h40.11.138,task,2021.1.4,Win32,60.01680471,6299f149e92ead563fba08ef,62b70e43662c8674ae400b49,,,,,,,,,,,,,0,,,,,,,,,,Task,33,(1/1) - 1,0,,,,,,,,,,,,,,,,,,1,,,,,,,,,,,,,,,,,,,,,,,,"[""0""]",1,[2.118000000000052],0,0,0,32,1,,,,,,,,,,,,,,,,,,,,,,,,,,
,,,,,,,,,,,X V Q F H G B L J M P D K C T S W R N Z,5ffdd8d1b2325f3c1f6edc6b,53,Mężczyzna,2022-06-25_15h40.11.138,task,2021.1.4,Win32,60.01680471,6299f149e92ead563fba08ef,62b70e43662c8674ae400b49,,,,,,,,,,,,,,,,,,,,,,,,,,,,,,,,,,,,,,,,,,,,,,,,,,,,,,,,,,,,,,,,,,,,,,,,,,,,5,0,5,0,1,,,,,,,,,,,,,,,,,,,,,
,,,,,,,,,,,,5ffdd8d1b2325f3c1f6edc6b,53,Mężczyzna,2022-06-25_15h40.11.138,task,2021.1.4,Win32,60.01680471,6299f149e92ead563fba08ef,62b70e43662c8674ae400b49,,,,,,,,,,,,,5,,,,,,,,,,Task,12,(4x4) - 11,5,,,,,,,,,,,,,,,,,,1,,,,,,,,,,,,,,,,,,,,,,,,"[""5""]",1,[2.519800000011969],0,0,0,11,1,,,,,,,,,,,,,,,,,,,,,,,,,,
,,,,,,,,,,,X V Q F H G B L J M P D K C T S W R N Z,5ffdd8d1b2325f3c1f6edc6b,53,Mężczyzna,2022-06-25_15h40.11.138,task,2021.1.4,Win32,60.01680471,6299f149e92ead563fba08ef,62b70e43662c8674ae400b49,,,,,,,,,,,,,,,,,,,,,,,,,,,,,,,,,,,,,,,,,,,,,,,,,,,,,,,,,,,,,,,,,,,,,,,,,,,,6,0,6,0,1,,,,,,,,,,,,,,,,,,,,,
,,,,,,,,,,,,5ffdd8d1b2325f3c1f6edc6b,53,Mężczyzna,2022-06-25_15h40.11.138,task,2021.1.4,Win32,60.01680471,6299f149e92ead563fba08ef,62b70e43662c8674ae400b49,,,,,,,,,,,,,,,,,,,,,,,,,,,,,,,,,,,,,,,,,,,,,,,,,,,,,,,,,,,,,,,,,,,,,,,,,,,,,,,,,mpgxrlp,"[""m"",""p"",""g"",""x"",""r"",""l"",""p""]",0,"[1.65270000004773,1.9881000000239055,2.739200000047731,3.457600000023831,3.8583000000119227,4.822100000023852,5.7241000000238955,6.466900000035821]",1,MPGXRLP,6,0,6,0,1,,,,,,,,,,
,,,,,,,,,,,,5ffdd8d1b2325f3c1f6edc6b,53,Mężczyzna,2022-06-25_15h40.11.138,task,2021.1.4,Win32,60.01680471,6299f149e92ead563fba08ef,62b70e43662c8674ae400b49,,,,,,,,,,,,,6,,,,,,,,,,Task,30,(6/3) + 4 ,6,,,,,,,,,,,,,,,,,,1,,,,,,,,,,,,,,,,,,,,,,,,"[""6""]",1,[2.5181000000237646],0,0,0,29,1,,,,,,,,,,,,,,,,,,,,,,,,,,
,,,,,,,,,,,X V Q F H G B L J M P D K C T S W R N Z,5ffdd8d1b2325f3c1f6edc6b,53,Mężczyzna,2022-06-25_15h40.11.138,task,2021.1.4,Win32,60.01680471,6299f149e92ead563fba08ef,62b70e43662c8674ae400b49,,,,,,,,,,,,,,,,,,,,,,,,,,,,,,,,,,,,,,,,,,,,,,,,,,,,,,,,,,,,,,,,,,,,,,,,,,,,0,0,0,0,1,,,,,,,,,,,,,,,,,,,,,
,,,,,,,,,,,,5ffdd8d1b2325f3c1f6edc6b,53,Mężczyzna,2022-06-25_15h40.11.138,task,2021.1.4,Win32,60.01680471,6299f149e92ead563fba08ef,62b70e43662c8674ae400b49,,,,,,,,,,,,,2,,,,,,,,,,Task,10,(2x5) - 8,2,,,,,,,,,,,,,,,,,,1,,,,,,,,,,,,,,,,,,,,,,,,"[""2""]",1,[1.8008000000119182],0,0,0,9,1,,,,,,,,,,,,,,,,,,,,,,,,,,
,,,,,,,,,,,X V Q F H G B L J M P D K C T S W R N Z,5ffdd8d1b2325f3c1f6edc6b,53,Mężczyzna,2022-06-25_15h40.11.138,task,2021.1.4,Win32,60.01680471,6299f149e92ead563fba08ef,62b70e43662c8674ae400b49,,,,,,,,,,,,,,,,,,,,,,,,,,,,,,,,,,,,,,,,,,,,,,,,,,,,,,,,,,,,,,,,,,,,,,,,,,,,1,0,1,0,1,,,,,,,,,,,,,,,,,,,,,
,,,,,,,,,,,,5ffdd8d1b2325f3c1f6edc6b,53,Mężczyzna,2022-06-25_15h40.11.138,task,2021.1.4,Win32,60.01680471,6299f149e92ead563fba08ef,62b70e43662c8674ae400b49,,,,,,,,,,,,,8,,,,,,,,,,Task,15,(3x7) - 13,8,,,,,,,,,,,,,,,,,,1,,,,,,,,,,,,,,,,,,,,,,,,"[""8""]",1,[2.5710000000000264],0,0,0,14,1,,,,,,,,,,,,,,,,,,,,,,,,,,
,,,,,,,,,,,X V Q F H G B L J M P D K C T S W R N Z,5ffdd8d1b2325f3c1f6edc6b,53,Mężczyzna,2022-06-25_15h40.11.138,task,2021.1.4,Win32,60.01680471,6299f149e92ead563fba08ef,62b70e43662c8674ae400b49,,,,,,,,,,,,,,,,,,,,,,,,,,,,,,,,,,,,,,,,,,,,,,,,,,,,,,,,,,,,,,,,,,,,,,,,,,,,2,0,2,0,1,,,,,,,,,,,,,,,,,,,,,
,,,,,,,,,,,,5ffdd8d1b2325f3c1f6edc6b,53,Mężczyzna,2022-06-25_15h40.11.138,task,2021.1.4,Win32,60.01680471,6299f149e92ead563fba08ef,62b70e43662c8674ae400b49,,,,,,,,,,,,,5,,,,,,,,,,Task,12,(4x4) - 11,5,,,,,,,,,,,,,,,,,,1,,,,,,,,,,,,,,,,,,,,,,,,"[""5""]",1,[2.721099999964281],0,0,0,11,1,,,,,,,,,,,,,,,,,,,,,,,,,,
,,,,,,,,,,,X V Q F H G B L J M P D K C T S W R N Z,5ffdd8d1b2325f3c1f6edc6b,53,Mężczyzna,2022-06-25_15h40.11.138,task,2021.1.4,Win32,60.01680471,6299f149e92ead563fba08ef,62b70e43662c8674ae400b49,,,,,,,,,,,,,,,,,,,,,,,,,,,,,,,,,,,,,,,,,,,,,,,,,,,,,,,,,,,,,,,,,,,,,,,,,,,,3,0,3,0,1,,,,,,,,,,,,,,,,,,,,,
,,,,,,,,,,,,5ffdd8d1b2325f3c1f6edc6b,53,Mężczyzna,2022-06-25_15h40.11.138,task,2021.1.4,Win32,60.01680471,6299f149e92ead563fba08ef,62b70e43662c8674ae400b49,,,,,,,,,,,,,6,,,,,,,,,,Task,13,(3x4) - 6,6,,,,,,,,,,,,,,,,,,1,,,,,,,,,,,,,,,,,,,,,,,,"[""6""]",1,[2.2690000000000055],0,0,0,12,1,,,,,,,,,,,,,,,,,,,,,,,,,,
,,,,,,,,,,,X V Q F H G B L J M P D K C T S W R N Z,5ffdd8d1b2325f3c1f6edc6b,53,Mężczyzna,2022-06-25_15h40.11.138,task,2021.1.4,Win32,60.01680471,6299f149e92ead563fba08ef,62b70e43662c8674ae400b49,,,,,,,,,,,,,,,,,,,,,,,,,,,,,,,,,,,,,,,,,,,,,,,,,,,,,,,,,,,,,,,,,,,,,,,,,,,,4,0,4,0,1,,,,,,,,,,,,,,,,,,,,,
,,,,,,,,,,,,5ffdd8d1b2325f3c1f6edc6b,53,Mężczyzna,2022-06-25_15h40.11.138,task,2021.1.4,Win32,60.01680471,6299f149e92ead563fba08ef,62b70e43662c8674ae400b49,,,,,,,,,,,,,4,,,,,,,,,,Task,4,(1x5) - 1,4,,,,,,,,,,,,,,,,,,1,,,,,,,,,,,,,,,,,,,,,,,,"[""4""]",1,[2.1379000000357564],0,0,0,3,1,,,,,,,,,,,,,,,,,,,,,,,,,,
,,,,,,,,,,,X V Q F H G B L J M P D K C T S W R N Z,5ffdd8d1b2325f3c1f6edc6b,53,Mężczyzna,2022-06-25_15h40.11.138,task,2021.1.4,Win32,60.01680471,6299f149e92ead563fba08ef,62b70e43662c8674ae400b49,,,,,,,,,,,,,,,,,,,,,,,,,,,,,,,,,,,,,,,,,,,,,,,,,,,,,,,,,,,,,,,,,,,,,,,,,,,,5,0,5,0,1,,,,,,,,,,,,,,,,,,,,,
,,,,,,,,,,,,5ffdd8d1b2325f3c1f6edc6b,53,Mężczyzna,2022-06-25_15h40.11.138,task,2021.1.4,Win32,60.01680471,6299f149e92ead563fba08ef,62b70e43662c8674ae400b49,,,,,,,,,,,,,5,,,,,,,,,,Task,29,(3x8) - 19 ,5,,,,,,,,,,,,,,,,,,1,,,,,,,,,,,,,,,,,,,,,,,,"[""5""]",1,[4.10530000001188],0,0,0,28,1,,,,,,,,,,,,,,,,,,,,,,,,,,
,,,,,,,,,,,X V Q F H G B L J M P D K C T S W R N Z,5ffdd8d1b2325f3c1f6edc6b,53,Mężczyzna,2022-06-25_15h40.11.138,task,2021.1.4,Win32,60.01680471,6299f149e92ead563fba08ef,62b70e43662c8674ae400b49,,,,,,,,,,,,,,,,,,,,,,,,,,,,,,,,,,,,,,,,,,,,,,,,,,,,,,,,,,,,,,,,,,,,,,,,,,,,6,0,6,0,1,,,,,,,,,,,,,,,,,,,,,
,,,,,,,,,,,,5ffdd8d1b2325f3c1f6edc6b,53,Mężczyzna,2022-06-25_15h40.11.138,task,2021.1.4,Win32,60.01680471,6299f149e92ead563fba08ef,62b70e43662c8674ae400b49,,,,,,,,,,,,,9,,,,,,,,,,Task,7,(3x7) - 12,9,,,,,,,,,,,,,,,,,,1,,,,,,,,,,,,,,,,,,,,,,,,"[""9""]",1,[3.2899999999999636],0,0,0,6,1,,,,,,,,,,,,,,,,,,,,,,,,,,
,,,,,,,,,,,X V Q F H G B L J M P D K C T S W R N Z,5ffdd8d1b2325f3c1f6edc6b,53,Mężczyzna,2022-06-25_15h40.11.138,task,2021.1.4,Win32,60.01680471,6299f149e92ead563fba08ef,62b70e43662c8674ae400b49,,,,,,,,,,,,,,,,,,,,,,,,,,,,,,,,,,,,,,,,,,,,,,,,,,,,,,,,,,,,,,,,,,,,,,,,,,,,7,0,7,0,1,,,,,,,,,,,,,,,,,,,,,
,,,,,,,,,,,,5ffdd8d1b2325f3c1f6edc6b,53,Mężczyzna,2022-06-25_15h40.11.138,task,2021.1.4,Win32,60.01680471,6299f149e92ead563fba08ef,62b70e43662c8674ae400b49,,,,,,,,,,,,,,,,,,,,,,,,,,,,,,,,,,,,,,,,,,,,,,,,,,,,,,,,,,,,,,,,,,,,,,,,,,,,,,,,,hnfcgk,"[""h"",""n"",""f"",""c"",""g"",""k""]",0,"[1.8373000000119646,2.0238000000118745,2.870699999988119,3.2211999999880163,4.788999999999987,5.23989999997616,9.111699999988105]",0,HNFCGKPD,7,0,7,0,1,,,,,,,,,,
,,,,,,,,,,,,5ffdd8d1b2325f3c1f6edc6b,53,Mężczyzna,2022-06-25_15h40.11.138,task,2021.1.4,Win32,60.01680471,6299f149e92ead563fba08ef,62b70e43662c8674ae400b49,,,,,,,,,,,,,5,,,,,,,,,,Task,36,(8/4) + 3,5,,,,,,,,,,,,,,,,,,1,,,,,,,,,,,,,,,,,,,,,,,,"[""5""]",1,[3.8276999999881127],0,0,0,35,1,,,,,,,,,,,,,,,,,,,,,,,,,,
,,,,,,,,,,,X V Q F H G B L J M P D K C T S W R N Z,5ffdd8d1b2325f3c1f6edc6b,53,Mężczyzna,2022-06-25_15h40.11.138,task,2021.1.4,Win32,60.01680471,6299f149e92ead563fba08ef,62b70e43662c8674ae400b49,,,,,,,,,,,,,,,,,,,,,,,,,,,,,,,,,,,,,,,,,,,,,,,,,,,,,,,,,,,,,,,,,,,,,,,,,,,,0,0,0,0,1,,,,,,,,,,,,,,,,,,,,,
,,,,,,,,,,,,5ffdd8d1b2325f3c1f6edc6b,53,Mężczyzna,2022-06-25_15h40.11.138,task,2021.1.4,Win32,60.01680471,6299f149e92ead563fba08ef,62b70e43662c8674ae400b49,,,,,,,,,,,,,5,,,,,,,,,,Task,29,(3x8) - 19 ,5,,,,,,,,,,,,,,,,,,1,,,,,,,,,,,,,,,,,,,,,,,,"[""5""]",1,[3.929300000011949],0,0,0,28,1,,,,,,,,,,,,,,,,,,,,,,,,,,
,,,,,,,,,,,X V Q F H G B L J M P D K C T S W R N Z,5ffdd8d1b2325f3c1f6edc6b,53,Mężczyzna,2022-06-25_15h40.11.138,task,2021.1.4,Win32,60.01680471,6299f149e92ead563fba08ef,62b70e43662c8674ae400b49,,,,,,,,,,,,,,,,,,,,,,,,,,,,,,,,,,,,,,,,,,,,,,,,,,,,,,,,,,,,,,,,,,,,,,,,,,,,1,0,1,0,1,,,,,,,,,,,,,,,,,,,,,
,,,,,,,,,,,,5ffdd8d1b2325f3c1f6edc6b,53,Mężczyzna,2022-06-25_15h40.11.138,task,2021.1.4,Win32,60.01680471,6299f149e92ead563fba08ef,62b70e43662c8674ae400b49,,,,,,,,,,,,,0,,,,,,,,,,Task,8,(1x5) - 5,0,,,,,,,,,,,,,,,,,,1,,,,,,,,,,,,,,,,,,,,,,,,"[""0""]",1,[2.0674999999999955],0,0,0,7,1,,,,,,,,,,,,,,,,,,,,,,,,,,
,,,,,,,,,,,X V Q F H G B L J M P D K C T S W R N Z,5ffdd8d1b2325f3c1f6edc6b,53,Mężczyzna,2022-06-25_15h40.11.138,task,2021.1.4,Win32,60.01680471,6299f149e92ead563fba08ef,62b70e43662c8674ae400b49,,,,,,,,,,,,,,,,,,,,,,,,,,,,,,,,,,,,,,,,,,,,,,,,,,,,,,,,,,,,,,,,,,,,,,,,,,,,2,0,2,0,1,,,,,,,,,,,,,,,,,,,,,
,,,,,,,,,,,,5ffdd8d1b2325f3c1f6edc6b,53,Mężczyzna,2022-06-25_15h40.11.138,task,2021.1.4,Win32,60.01680471,6299f149e92ead563fba08ef,62b70e43662c8674ae400b49,,,,,,,,,,,,,1,,,,,,,,,,Task,13,(3x4) - 6,6,,,,,,,,,,,,,,,,,,0,,,,,,,,,,,,,,,,,,,,,,,,"[""1""]",0,[3.9688000000119246],0,0,0,12,1,,,,,,,,,,,,,,,,,,,,,,,,,,
,,,,,,,,,,,,5ffdd8d1b2325f3c1f6edc6b,53,Mężczyzna,2022-06-25_15h40.11.138,task,2021.1.4,Win32,60.01680471,6299f149e92ead563fba08ef,62b70e43662c8674ae400b49,,,,,,,,,,,,,1,,,,,,,,,,Task,1,(12/6) - 1,1,,,,,,,,,,,,,,,,,,1,,,,,,,,,,,,,,,,,,,,,,,,"[""1""]",1,[2.098500000000058],0,1,1,0,1,,,,,,,,,,,,,,,,,,,,,,,,,,
,,,,,,,,,,,X V Q F H G B L J M P D K C T S W R N Z,5ffdd8d1b2325f3c1f6edc6b,53,Mężczyzna,2022-06-25_15h40.11.138,task,2021.1.4,Win32,60.01680471,6299f149e92ead563fba08ef,62b70e43662c8674ae400b49,,,,,,,,,,,,,,,,,,,,,,,,,,,,,,,,,,,,,,,,,,,,,,,,,,,,,,,,,,,,,,,,,,,,,,,,,,,,3,0,3,0,1,,,,,,,,,,,,,,,,,,,,,
,,,,,,,,,,,,5ffdd8d1b2325f3c1f6edc6b,53,Mężczyzna,2022-06-25_15h40.11.138,task,2021.1.4,Win32,60.01680471,6299f149e92ead563fba08ef,62b70e43662c8674ae400b49,,,,,,,,,,,,,,,,,,,,,,,Task,34,(9/3) - 2,1,,,,,,,,,,,,,,,,,,0,,,,,,,,,,,,,,,,,,,,,,,,,0,,0,0,0,33,1,,,,,,,,,,,,,,,,,,,,,,,,,,
,,,,,,,,,,,,5ffdd8d1b2325f3c1f6edc6b,53,Mężczyzna,2022-06-25_15h40.11.138,task,2021.1.4,Win32,60.01680471,6299f149e92ead563fba08ef,62b70e43662c8674ae400b49,,,,,,,,,,,,,0,,,,,,,,,,Task,8,(1x5) - 5,0,,,,,,,,,,,,,,,,,,1,,,,,,,,,,,,,,,,,,,,,,,,"[""0""]",1,[1.7707000000476683],0,1,1,7,1,,,,,,,,,,,,,,,,,,,,,,,,,,
,,,,,,,,,,,X V Q F H G B L J M P D K C T S W R N Z,5ffdd8d1b2325f3c1f6edc6b,53,Mężczyzna,2022-06-25_15h40.11.138,task,2021.1.4,Win32,60.01680471,6299f149e92ead563fba08ef,62b70e43662c8674ae400b49,,,,,,,,,,,,,,,,,,,,,,,,,,,,,,,,,,,,,,,,,,,,,,,,,,,,,,,,,,,,,,,,,,,,,,,,,,,,4,0,4,0,1,,,,,,,,,,,,,,,,,,,,,
,,,,,,,,,,,,5ffdd8d1b2325f3c1f6edc6b,53,Mężczyzna,2022-06-25_15h40.11.138,task,2021.1.4,Win32,60.01680471,6299f149e92ead563fba08ef,62b70e43662c8674ae400b49,,,,,,,,,,,,,5,,,,,,,,,,Task,29,(3x8) - 19 ,5,,,,,,,,,,,,,,,,,,1,,,,,,,,,,,,,,,,,,,,,,,,"[""5""]",1,[3.63510000002384],0,0,0,28,1,,,,,,,,,,,,,,,,,,,,,,,,,,
,,,,,,,,,,,X V Q F H G B L J M P D K C T S W R N Z,5ffdd8d1b2325f3c1f6edc6b,53,Mężczyzna,2022-06-25_15h40.11.138,task,2021.1.4,Win32,60.01680471,6299f149e92ead563fba08ef,62b70e43662c8674ae400b49,,,,,,,,,,,,,,,,,,,,,,,,,,,,,,,,,,,,,,,,,,,,,,,,,,,,,,,,,,,,,,,,,,,,,,,,,,,,5,0,5,0,1,,,,,,,,,,,,,,,,,,,,,
,,,,,,,,,,,,5ffdd8d1b2325f3c1f6edc6b,53,Mężczyzna,2022-06-25_15h40.11.138,task,2021.1.4,Win32,60.01680471,6299f149e92ead563fba08ef,62b70e43662c8674ae400b49,,,,,,,,,,,,,8,,,,,,,,,,Task,23,(2x3) + 2,8,,,,,,,,,,,,,,,,,,1,,,,,,,,,,,,,,,,,,,,,,,,"[""8""]",1,[2.1531999999880327],0,0,0,22,1,,,,,,,,,,,,,,,,,,,,,,,,,,
,,,,,,,,,,,X V Q F H G B L J M P D K C T S W R N Z,5ffdd8d1b2325f3c1f6edc6b,53,Mężczyzna,2022-06-25_15h40.11.138,task,2021.1.4,Win32,60.01680471,6299f149e92ead563fba08ef,62b70e43662c8674ae400b49,,,,,,,,,,,,,,,,,,,,,,,,,,,,,,,,,,,,,,,,,,,,,,,,,,,,,,,,,,,,,,,,,,,,,,,,,,,,6,0,6,0,1,,,,,,,,,,,,,,,,,,,,,
,,,,,,,,,,,,5ffdd8d1b2325f3c1f6edc6b,53,Mężczyzna,2022-06-25_15h40.11.138,task,2021.1.4,Win32,60.01680471,6299f149e92ead563fba08ef,62b70e43662c8674ae400b49,,,,,,,,,,,,,7,,,,,,,,,,Task,31,(4/2) + 5,7,,,,,,,,,,,,,,,,,,1,,,,,,,,,,,,,,,,,,,,,,,,"[""7""]",1,[4.217199999988111],0,0,0,30,1,,,,,,,,,,,,,,,,,,,,,,,,,,
,,,,,,,,,,,X V Q F H G B L J M P D K C T S W R N Z,5ffdd8d1b2325f3c1f6edc6b,53,Mężczyzna,2022-06-25_15h40.11.138,task,2021.1.4,Win32,60.01680471,6299f149e92ead563fba08ef,62b70e43662c8674ae400b49,,,,,,,,,,,,,,,,,,,,,,,,,,,,,,,,,,,,,,,,,,,,,,,,,,,,,,,,,,,,,,,,,,,,,,,,,,,,7,0,7,0,1,,,,,,,,,,,,,,,,,,,,,
,,,,,,,,,,,,5ffdd8d1b2325f3c1f6edc6b,53,Mężczyzna,2022-06-25_15h40.11.138,task,2021.1.4,Win32,60.01680471,6299f149e92ead563fba08ef,62b70e43662c8674ae400b49,,,,,,,,,,,,,,,,,,,,,,,,,,,,,,,,,,,,,,,,,,,,,,,,,,,,,,,,,,,,,,,,,,,,,,,,,,,,,,,,,vpcklnbs,"[""v"",""p"",""c"",""k"",""l"",""n"",""b"",""s""]",0,"[3.875100000023849,4.558800000011956,5.392800000011903,5.815000000000055,6.0737000000476655,6.7687000000477155,7.7590000000000146,8.583400000035795,11.98960000002387]",0,PVCKLNBS,8,0,8,0,1,,,,,,,,,,
,,,,,,,,,,,,5ffdd8d1b2325f3c1f6edc6b,53,Mężczyzna,2022-06-25_15h40.11.138,task,2021.1.4,Win32,60.01680471,6299f149e92ead563fba08ef,62b70e43662c8674ae400b49,,,,,,,,,,,,,,,,,,,,,,,,,,,,,,,,,,,,,,,,,,,,,,,,,,,,,,,,,,,,,,,,,,,,,,,,,,,,,,,,,,,,,,,,,,,,"[""comma""]",0,[1.74350000000004],0,0,0,0,1,,
,,,,,,,,,,,,5ffdd8d1b2325f3c1f6edc6b,53,Mężczyzna,2022-06-25_15h40.11.138,task,2021.1.4,Win32,60.01680471,6299f149e92ead563fba08ef,62b70e43662c8674ae400b49,,,,,,,,,,,,,,,,,,,,,,,,,,,,,,,,,,,,,,,,,,,,,,,,,,,,,,,,,,,,,,,,,,,,,,,,,,,,,,,,,,,,,,,,,,,,"[""comma""]",0,[1.7366999999881045],1,0,1,0,1,,
,,,,,,,,,,,,5ffdd8d1b2325f3c1f6edc6b,53,Mężczyzna,2022-06-25_15h40.11.138,task,2021.1.4,Win32,60.01680471,6299f149e92ead563fba08ef,62b70e43662c8674ae400b49,,,,,,,,,,,,,,,,,,,,,,,,,,,,,,,,,,,,,,,,,,,,,,,,,,,,,,,,,,,,,,,,,,,,,,,,,,,,,,,,,,,,,,,,,,,,"[""period""]",0,[1.2029000000356973],2,0,2,0,1,,
,,,,,,,,,,,,5ffdd8d1b2325f3c1f6edc6b,53,Mężczyzna,2022-06-25_15h40.11.138,task,2021.1.4,Win32,60.01680471,6299f149e92ead563fba08ef,62b70e43662c8674ae400b49,,,,,,,,,,,,,,,,,,,,,,,,,,,,,,,,,,,,,,,,,,,,,,,,,,,,,,,,,,,,,,,,,,,,,,,,,,,,,,,,,,,,,,,,,,,,"[""comma""]",0,[1.15300000000002],3,0,3,0,1,,
,,,,,,,,,,,,5ffdd8d1b2325f3c1f6edc6b,53,Mężczyzna,2022-06-25_15h40.11.138,task,2021.1.4,Win32,60.01680471,6299f149e92ead563fba08ef,62b70e43662c8674ae400b49,,,,,,,,,,,,,,,,,,,,,,,,,,,,,,,,,,,,,,,,,,,,,,,,,,,,,,,,,,,,,,,,,,,,,,,,,,,,,,,,,,,,,,,,,,,,"[""period""]",0,[1.01969999998812],4,0,4,0,1,,
,,,,,,,,,,,,5ffdd8d1b2325f3c1f6edc6b,53,Mężczyzna,2022-06-25_15h40.11.138,task,2021.1.4,Win32,60.01680471,6299f149e92ead563fba08ef,62b70e43662c8674ae400b49,,,,,,,,,,,,,,,,,,,,,,,,,,,,,,,,,,,,,,,,,,,,,,,,,,,,,,,,,,,,,,,,,,,,,,,,,,,,,,,,,,,,,,,,,,,,"[""period""]",0,[0.9903999999761481],5,0,5,0,1,,
,,,,,,,,,,,,5ffdd8d1b2325f3c1f6edc6b,53,Mężczyzna,2022-06-25_15h40.11.138,task,2021.1.4,Win32,60.01680471,6299f149e92ead563fba08ef,62b70e43662c8674ae400b49,,,,,,,,,,,,,,,,,,,,,,,,,,,,,,,,,,,,,,,,,,,,,,,,,,,,,,,,,,,,,,,,,,,,,,,,,,,,,,,,,,,,,,,,,,,,"[""comma""]",0,[0.9868999999761172],6,0,6,0,1,,
,,,,,,,,,,,,5ffdd8d1b2325f3c1f6edc6b,53,Mężczyzna,2022-06-25_15h40.11.138,task,2021.1.4,Win32,60.01680471,6299f149e92ead563fba08ef,62b70e43662c8674ae400b49,,,,,,,,,,,,,,,,,,,,,,,,,,,,,,,,,,,,,,,,,,,,,,,,,,,,,,,,,,,,,,,,,,,,,,,,,,,,,,,,,,,,,,,,,,,,"[""period""]",0,[0.9835999999642127],7,0,7,0,1,,
,,,,,,,,,,,,5ffdd8d1b2325f3c1f6edc6b,53,Mężczyzna,2022-06-25_15h40.11.138,task,2021.1.4,Win32,60.01680471,6299f149e92ead563fba08ef,62b70e43662c8674ae400b49,,,,,,,,,,,,,,,,,,,,,,,,,,,,,,,,,,,,,,,,,,,,,,,,,,,,,,,,,,,,,,,,,,,,,,,,,,,,,,,,,,,,,,,,,,,,"[""period""]",0,[0.9838000000119109],8,0,8,0,1,,
,,,,,,,,,,,,5ffdd8d1b2325f3c1f6edc6b,53,Mężczyzna,2022-06-25_15h40.11.138,task,2021.1.4,Win32,60.01680471,6299f149e92ead563fba08ef,62b70e43662c8674ae400b49,,,,,,,,,,,,,,,,,,,,,,,,,,,,,,,,,,,,,,,,,,,,,,,,,,,,,,,,,,,,,,,,,,,,,,,,,,,,,,,,,,,,,,,,,,,,"[""comma""]",0,[0.9680000000000746],9,0,9,0,1,,
,,,,,,,,,,,,5ffdd8d1b2325f3c1f6edc6b,53,Mężczyzna,2022-06-25_15h40.11.138,task,2021.1.4,Win32,60.01680471,6299f149e92ead563fba08ef,62b70e43662c8674ae400b49,,,,,,,,,,,,,,,,,,,,,,,,,,,,,,,,,,,,,,,,,,,,,,,,,,,,,,,,,,,,,,,,,,,,,,,,,,,,,,,,,,,,,,,,,,,,"[""comma""]",0,[0.98519999998814],10,0,10,0,1,,
,,,,,,,,,,,,5ffdd8d1b2325f3c1f6edc6b,53,Mężczyzna,2022-06-25_15h40.11.138,task,2021.1.4,Win32,60.01680471,6299f149e92ead563fba08ef,62b70e43662c8674ae400b49,,,,,,,,,,,,,,,,,,,,,,,,,,,,,,,,,,,,,,,,,,,,,,,,,,,,,,,,,,,,,,,,,,,,,,,,,,,,,,,,,,,,,,,,,,,,"[""period""]",0,[0.5386999999881255],11,0,11,0,1,,
,,,,,,,,,,,,5ffdd8d1b2325f3c1f6edc6b,53,Mężczyzna,2022-06-25_15h40.11.138,task,2021.1.4,Win32,60.01680471,6299f149e92ead563fba08ef,62b70e43662c8674ae400b49,,,,,,,,,,,,,,,,,,,,,,,,,,,,,,,,,,,,,,,,,,,,,,,,,,,,,,,,,,,,,,,,,,,,,,,,,,,,,,,,,,,,,,,,,,,,"[""comma""]",0,[0.2490999999641872],12,0,12,0,1,,
,,,,,,,,,,,,5ffdd8d1b2325f3c1f6edc6b,53,Mężczyzna,2022-06-25_15h40.11.138,task,2021.1.4,Win32,60.01680471,6299f149e92ead563fba08ef,62b70e43662c8674ae400b49,,,,,,,,,,,,,,,,,,,,,,,,,,,,,,,,,,,,,,,,,,,,,,,,,,,,,,,,,,,,,,,,,,,,,,,,,,,,,,,,,,,,,,,,,,,,"[""comma""]",0,[0.2011999999880345],13,0,13,0,1,,
,,,,,,,,,,,,5ffdd8d1b2325f3c1f6edc6b,53,Mężczyzna,2022-06-25_15h40.11.138,task,2021.1.4,Win32,60.01680471,6299f149e92ead563fba08ef,62b70e43662c8674ae400b49,,,,,,,,,,,,,,,,,,,,,,,,,,,,,,,,,,,,,,,,,,,,,,,,,,,,,,,,,,,,,,,,,,,,,,,,,,,,,,,,,,,,,,,,,,,,"[""period""]",0,[0.23609999996426723],14,0,14,0,1,,
,,,,,,,,,,,,5ffdd8d1b2325f3c1f6edc6b,53,Mężczyzna,2022-06-25_15h40.11.138,task,2021.1.4,Win32,60.01680471,6299f149e92ead563fba08ef,62b70e43662c8674ae400b49,,,,,,,,,,,,,,,,,,,,,,,,,,,,,,,,,,,,,,,,,,,,,,,,,,,,,,,,,,,,,,,,,,,,,,,,,,,,,,,,,,,,,,,,,,,,"[""period""]",0,[0.26719999998806543],15,0,15,0,1,,
,,,,,,,,,,,,5ffdd8d1b2325f3c1f6edc6b,53,Mężczyzna,2022-06-25_15h40.11.138,task,2021.1.4,Win32,60.01680471,6299f149e92ead563fba08ef,62b70e43662c8674ae400b49,,,,,,,,,,,,,,,,,,,,,,,,,,,,,,,,,,,,,,,,,,,,,,,,,,,,,,,,,,,,,,,,,,,,,,,,,,,,,,,,,,,,,,,,,,,,"[""comma""]",0,[0.4213000000120246],16,0,16,0,1,,
,,,,,,,,,,,,5ffdd8d1b2325f3c1f6edc6b,53,Mężczyzna,2022-06-25_15h40.11.138,task,2021.1.4,Win32,60.01680471,6299f149e92ead563fba08ef,62b70e43662c8674ae400b49,,,,,,,,,,,,,,,,,,,,,,,,,,,,,,,,,,,,,,,,,,,,,,,,,,,,,,,,,,,,,,,,,,,,,,,,,,,,,,,,,,,,,,,,,,,,"[""comma""]",0,[0.4353999999760845],17,0,17,0,1,,
,,,,,,,,,,,,5ffdd8d1b2325f3c1f6edc6b,53,Mężczyzna,2022-06-25_15h40.11.138,task,2021.1.4,Win32,60.01680471,6299f149e92ead563fba08ef,62b70e43662c8674ae400b49,,,,,,,,,,,,,,,,,,,,,,,,,,,,,,,,,,,,,,,,,,,,,,,,,,,,,,,,,,,,,,,,,,,,,,,,,,,,,,,,,,,,,,,,,,,,"[""period""]",0,[0.5172999999523427],18,0,18,0,1,,
,,,,,,,,,,,,5ffdd8d1b2325f3c1f6edc6b,53,Mężczyzna,2022-06-25_15h40.11.138,task,2021.1.4,Win32,60.01680471,6299f149e92ead563fba08ef,62b70e43662c8674ae400b49,,,,,,,,,,,,,,,,,,,,,,,,,,,,,,,,,,,,,,,,,,,,,,,,,,,,,,,,,,,,,,,,,,,,,,,,,,,,,,,,,,,,,,,,,,,,"[""period""]",0,[0.36709999996423903],19,0,19,0,1,,
,,,,,,,,,,,,5ffdd8d1b2325f3c1f6edc6b,53,Mężczyzna,2022-06-25_15h40.11.138,task,2021.1.4,Win32,60.01680471,6299f149e92ead563fba08ef,62b70e43662c8674ae400b49,,,,,,,,,,,,,,,,,,,,,,,,,,,,,,,,,,,,,,,,,,,,,,,,,,,,,,,,,,,,,,,,,,,,,,,,,,,,,,,,,,,,,,,,,,,,"[""period""]",0,[0.3010999999642081],20,0,20,0,1,,
,,,,,,,,,,,,5ffdd8d1b2325f3c1f6edc6b,53,Mężczyzna,2022-06-25_15h40.11.138,task,2021.1.4,Win32,60.01680471,6299f149e92ead563fba08ef,62b70e43662c8674ae400b49,,,,,,,,,,,,,,,,,,,,,,,,,,,,,,,,,,,,,,,,,,,,,,,,,,,,,,,,,,,,,,,,,,,,,,,,,,,,,,,,,,,,,,,,,,,,"[""comma""]",0,[0.24069999998812364],21,0,21,0,1,,
,,,,,,,,,,,,5ffdd8d1b2325f3c1f6edc6b,53,Mężczyzna,2022-06-25_15h40.11.138,task,2021.1.4,Win32,60.01680471,6299f149e92ead563fba08ef,62b70e43662c8674ae400b49,,,,,,,,,,,,,,,,,,,,,,,,,,,,,,,,,,,,,,,,,,,,,,,,,,,,,,,,,,,,,,,,,,,,,,,,,,,,,,,,,,,,,,,,,,,,"[""period""]",0,[0.26730000001191456],22,0,22,0,1,,
,,,,,,,,,,,,5ffdd8d1b2325f3c1f6edc6b,53,Mężczyzna,2022-06-25_15h40.11.138,task,2021.1.4,Win32,60.01680471,6299f149e92ead563fba08ef,62b70e43662c8674ae400b49,,,,,,,,,,,,,,,,,,,,,,,,,,,,,,,,,,,,,,,,,,,,,,,,,,,,,,,,,,,,,,,,,,,,,,,,,,,,,,,,,,,,,,,,,,,,"[""comma""]",0,[0.18530000001192093],23,0,23,0,1,,
,,,,,,,,,,,,5ffdd8d1b2325f3c1f6edc6b,53,Mężczyzna,2022-06-25_15h40.11.138,task,2021.1.4,Win32,60.01680471,6299f149e92ead563fba08ef,62b70e43662c8674ae400b49,,,,,,,,,,,,,,,,,,,,,,,,,,,,,,,,,,,,,,,,,,,,,,,,,,,,,,,,,,,,,,,,,,,,,,,,,,,,,,,,,,,,,,,,,,,,"[""comma""]",0,[0.03669999998805906],24,0,24,0,1,,
,,,,,,,,,,,,5ffdd8d1b2325f3c1f6edc6b,53,Mężczyzna,2022-06-25_15h40.11.138,task,2021.1.4,Win32,60.01680471,6299f149e92ead563fba08ef,62b70e43662c8674ae400b49,,,,,,,,,,,,,,,,,,,,,,,,,,,,,,,,,,,,,,,,,,,,,,,,,,,,,,,,,,,,,,,,,,,,,,,,,,,,,,,,,,,,,,,,,,,,"[""comma""]",0,[0.20130000001188364],25,0,25,0,1,,
,,,,,,,,,,,,5ffdd8d1b2325f3c1f6edc6b,53,Mężczyzna,2022-06-25_15h40.11.138,task,2021.1.4,Win32,60.01680471,6299f149e92ead563fba08ef,62b70e43662c8674ae400b49,,,,,,,,,,,,,,,,,,,,,,,,,,,,,,,,,,,,,,,,,,,,,,,,,,,,,,,,,,,,,,,,,,,,,,,,,,,,,,,,,,,,,,,,,,,,"[""period""]",0,[0.1330000000000382],26,0,26,0,1,,
,,,,,,,,,,,,5ffdd8d1b2325f3c1f6edc6b,53,Mężczyzna,2022-06-25_15h40.11.138,task,2021.1.4,Win32,60.01680471,6299f149e92ead563fba08ef,62b70e43662c8674ae400b49,,,,,,,,,,,,,,,,,,,,,,,,,,,,,,,,,,,,,,,,,,,,,,,,,,,,,,,,,,,,,,,,,,,,,,,,,,,,,,,,,,,,,,,,,,,,"[""period""]",0,[0.22040000003585192],27,0,27,0,1,,
,,,,,,,,,,,,5ffdd8d1b2325f3c1f6edc6b,53,Mężczyzna,2022-06-25_15h40.11.138,task,2021.1.4,Win32,60.01680471,6299f149e92ead563fba08ef,62b70e43662c8674ae400b49,,,,,,,,,,,,,,,,,,,,,,,,,,,,,,,,,,,,,,,,,,,,,,,,,,,,,,,,,,,,,,,,,,,,,,,,,,,,,,,,,,,,,,,,,,,,"[""comma""]",0,[0.2523000000119282],28,0,28,0,1,,
,,,,,,,,,,,,5ffdd8d1b2325f3c1f6edc6b,53,Mężczyzna,2022-06-25_15h40.11.138,task,2021.1.4,Win32,60.01680471,6299f149e92ead563fba08ef,62b70e43662c8674ae400b49,,,,,,,,,,,,,,,,,,,,,,,,,,,,,,,,,,,,,,,,,,,,,,,,,,,,,,,,,,,,,,,,,,,,,,,,,,,,,,,,,,,,,,,,,,,,"[""period""]",0,[0.3176000000238446],29,0,29,0,1,,
,,,,,,,,,,,,5ffdd8d1b2325f3c1f6edc6b,53,Mężczyzna,2022-06-25_15h40.11.138,task,2021.1.4,Win32,60.01680471,6299f149e92ead563fba08ef,62b70e43662c8674ae400b49,,,,,,,,,,,,,,,,,,,,,,,,,,,,,,,,,,,,,,,,,,,,,,,,,,,,,,,,,,,,,,,,,,,,,,,,,,,,,,,,,,,,,,,,,,,,"[""comma""]",0,[0.4001999999881036],30,0,30,0,1,,
,,,,,,,,,,,,5ffdd8d1b2325f3c1f6edc6b,53,Mężczyzna,2022-06-25_15h40.11.138,task,2021.1.4,Win32,60.01680471,6299f149e92ead563fba08ef,62b70e43662c8674ae400b49,,,,,,,,,,,,,,,,,,,,,,,,,,,,,,,,,,,,,,,,,,,,,,,,,,,,,,,,,,,,,,,,,,,,,,,,,,,,,,,,,,,,,,,,,,,,"[""comma""]",0,[0.5215999999642236],31,0,31,0,1,,
,,,,,,,,,,,,5ffdd8d1b2325f3c1f6edc6b,53,Mężczyzna,2022-06-25_15h40.11.138,task,2021.1.4,Win32,60.01680471,6299f149e92ead563fba08ef,62b70e43662c8674ae400b49,,,,,,,,,,,,,,,,,,,,,,,,,,,,,,,,,,,,,,,,,,,,,,,,,,,,,,,,,,,,,,,,,,,,,,,,,,,,,,,,,,,,,,,,,,,,"[""period""]",0,[0.3159000000357537],32,0,32,0,1,,
,,,,,,,,,,,,5ffdd8d1b2325f3c1f6edc6b,53,Mężczyzna,2022-06-25_15h40.11.138,task,2021.1.4,Win32,60.01680471,6299f149e92ead563fba08ef,62b70e43662c8674ae400b49,,,,,,,,,,,,,,,,,,,,,,,,,,,,,,,,,,,,,,,,,,,,,,,,,,,,,,,,,,,,,,,,,,,,,,,,,,,,,,,,,,,,,,,,,,,,"[""period""]",0,[0.2400000000000091],33,0,33,0,1,,
,,,,,,,,,,,,5ffdd8d1b2325f3c1f6edc6b,53,Mężczyzna,2022-06-25_15h40.11.138,task,2021.1.4,Win32,60.01680471,6299f149e92ead563fba08ef,62b70e43662c8674ae400b49,,,,,,,,,,,,,,,,,,,,,,,,,,,,,,,,,,,,,,,,,,,,,,,,,,,,,,,,,,,,,,,,,,,,,,,,,,,,,,,,,,,,,,,,,,,,"[""period""]",0,[0.21839999997621362],34,0,34,0,1,,
,,,,,,,,,,,,5ffdd8d1b2325f3c1f6edc6b,53,Mężczyzna,2022-06-25_15h40.11.138,task,2021.1.4,Win32,60.01680471,6299f149e92ead563fba08ef,62b70e43662c8674ae400b49,,,,,,,,,,,,,,,,,,,,,,,,,,,,,,,,,,,,,,,,,,,,,,,,,,,,,,,,,,,,,,,,,,,,,,,,,,,,,,,,,,,,,,,,,,,,"[""comma""]",0,[0.3156000000238919],35,0,35,0,1,,
,,,,,,,,,,,,5ffdd8d1b2325f3c1f6edc6b,53,Mężczyzna,2022-06-25_15h40.11.138,task,2021.1.4,Win32,60.01680471,6299f149e92ead563fba08ef,62b70e43662c8674ae400b49,,,,,,,,,,,,,,,,,,,,,,,,,,,,,,,,,,,,,,,,,,,,,,,,,,,,,,,,,,,,,,,,,,,,,,,,,,,,,,,,,,,,,,,,,,,,"[""period""]",0,[0.3876000000238946],36,0,36,0,1,,
,,,,,,,,,,,,5ffdd8d1b2325f3c1f6edc6b,53,Mężczyzna,2022-06-25_15h40.11.138,task,2021.1.4,Win32,60.01680471,6299f149e92ead563fba08ef,62b70e43662c8674ae400b49,,,,,,,,,,,,,,,,,,,,,,,,,,,,,,,,,,,,,,,,,,,,,,,,,,,,,,,,,,,,,,,,,,,,,,,,,,,,,,,,,,,,,,,,,,,,"[""comma""]",0,[0.38340000003574914],37,0,37,0,1,,
,,,,,,,,,,,,5ffdd8d1b2325f3c1f6edc6b,53,Mężczyzna,2022-06-25_15h40.11.138,task,2021.1.4,Win32,60.01680471,6299f149e92ead563fba08ef,62b70e43662c8674ae400b49,,,,,,,,,,,,,,,,,,,,,,,,,,,,,,,,,,,,,,,,,,,,,,,,,,,,,,,,,,,,,,,,,,,,,,,,,,,,,,,,,,,,,,,,,,,,"[""period""]",0,[0.23810000002379184],38,0,38,0,1,,
,,,,,,,,,,,,5ffdd8d1b2325f3c1f6edc6b,53,Mężczyzna,2022-06-25_15h40.11.138,task,2021.1.4,Win32,60.01680471,6299f149e92ead563fba08ef,62b70e43662c8674ae400b49,,,,,,,,,,,,,,,,,,,,,,,,,,,,,,,,,,,,,,,,,,,,,,,,,,,,,,,,,,,,,,,,,,,,,,,,,,,,,,,,,,,,,,,,,,,,"[""comma""]",0,[0.2375000000000682],39,0,39,0,1,,
,,,,,,,,,,,,5ffdd8d1b2325f3c1f6edc6b,53,Mężczyzna,2022-06-25_15h40.11.138,task,2021.1.4,Win32,60.01680471,6299f149e92ead563fba08ef,62b70e43662c8674ae400b49,,,,,,,,,,,,,,,,,,,,,,,,,,,,,,,,,,,,,,,,,,,,,,,,,,,,,,,,,,,,,,,,,,,,,,,,,,,,,,,,,,,,,,,,,,,,"[""comma""]",0,[0.20180000001187182],40,0,40,0,1,,
,,,,,,,,,,,,5ffdd8d1b2325f3c1f6edc6b,53,Mężczyzna,2022-06-25_15h40.11.138,task,2021.1.4,Win32,60.01680471,6299f149e92ead563fba08ef,62b70e43662c8674ae400b49,,,,,,,,,,,,,,,,,,,,,,,,,,,,,,,,,,,,,,,,,,,,,,,,,,,,,,,,,,,,,,,,,,,,,,,,,,,,,,,,,,,,,,,,,,,,"[""period""]",0,[0.1226999999880718],41,0,41,0,1,,
,,,,,,,,,,,,5ffdd8d1b2325f3c1f6edc6b,53,Mężczyzna,2022-06-25_15h40.11.138,task,2021.1.4,Win32,60.01680471,6299f149e92ead563fba08ef,62b70e43662c8674ae400b49,,,,,,,,,,,,,,,,,,,,,,,,,,,,,,,,,,,,,,,,,,,,,,,,,,,,,,,,,,,,,,,,,,,,,,,,,,,,,,,,,,,,,,,,,,,,"[""period""]",0,[0.2193999999760763],42,0,42,0,1,,
,,,,,,,,,,,,5ffdd8d1b2325f3c1f6edc6b,53,Mężczyzna,2022-06-25_15h40.11.138,task,2021.1.4,Win32,60.01680471,6299f149e92ead563fba08ef,62b70e43662c8674ae400b49,,,,,,,,,,,,,,,,,,,,,,,,,,,,,,,,,,,,,,,,,,,,,,,,,,,,,,,,,,,,,,,,,,,,,,,,,,,,,,,,,,,,,,,,,,,,"[""comma""]",0,[0.03450000000009368],43,0,43,0,1,,
,,,,,,,,,,,,5ffdd8d1b2325f3c1f6edc6b,53,Mężczyzna,2022-06-25_15h40.11.138,task,2021.1.4,Win32,60.01680471,6299f149e92ead563fba08ef,62b70e43662c8674ae400b49,,,,,,,,,,,,,,,,,,,,,,,,,,,,,,,,,,,,,,,,,,,,,,,,,,,,,,,,,,,,,,,,,,,,,,,,,,,,,,,,,,,,,,,,,,,,"[""comma""]",0,[0.15119999998807998],44,0,44,0,1,,
,,,,,,,,,,,,5ffdd8d1b2325f3c1f6edc6b,53,Mężczyzna,2022-06-25_15h40.11.138,task,2021.1.4,Win32,60.01680471,6299f149e92ead563fba08ef,62b70e43662c8674ae400b49,,,,,,,,,,,,,,,,,,,,,,,,,,,,,,,,,,,,,,,,,,,,,,,,,,,,,,,,,,,,,,,,,,,,,,,,,,,,,,,,,,,,,,,,,,,,"[""period""]",0,[0.20039999997607083],45,0,45,0,1,,
,,,,,,,,,,,,5ffdd8d1b2325f3c1f6edc6b,53,Mężczyzna,2022-06-25_15h40.11.138,task,2021.1.4,Win32,60.01680471,6299f149e92ead563fba08ef,62b70e43662c8674ae400b49,,,,,,,,,,,,,,,,,,,,,,,,,,,,,,,,,,,,,,,,,,,,,,,,,,,,,,,,,,,,,,,,,,,,,,,,,,,,,,,,,,,,,,,,,,,,"[""comma""]",0,[0.23189999997612176],46,0,46,0,1,,
,,,,,,,,,,,,5ffdd8d1b2325f3c1f6edc6b,53,Mężczyzna,2022-06-25_15h40.11.138,task,2021.1.4,Win32,60.01680471,6299f149e92ead563fba08ef,62b70e43662c8674ae400b49,,,,,,,,,,,,,,,,,,,,,,,,,,,,,,,,,,,,,,,,,,,,,,,,,,,,,,,,,,,,,,,,,,,,,,,,,,,,,,,,,,,,,,,,,,,,"[""period""]",0,[0.23450000000002547],47,0,47,0,1,,
,,,,,,,,,,,,5ffdd8d1b2325f3c1f6edc6b,53,Mężczyzna,2022-06-25_15h40.11.138,task,2021.1.4,Win32,60.01680471,6299f149e92ead563fba08ef,62b70e43662c8674ae400b49,,,,,,,,,,,,,,,,,,,,,,,,,,,,,,,,,,,,,,,,,,,,,,,,,,,,,,,,,,,,,,,,,,,,,,,,,,,,,,,,,,,,,,,,,,,,"[""period""]",0,[0.32379999995225717],48,0,48,0,1,,
,,,,,,,,,,,,5ffdd8d1b2325f3c1f6edc6b,53,Mężczyzna,2022-06-25_15h40.11.138,task,2021.1.4,Win32,60.01680471,6299f149e92ead563fba08ef,62b70e43662c8674ae400b49,,,,,,,,,,,,,,,,,,,,,,,,,,,,,,,,,,,,,,,,,,,,,,,,,,,,,,,,,,,,,,,,,,,,,,,,,,,,,,,,,,,,,,,,,,,,"[""comma""]",0,[0.23279999995236267],49,0,49,0,1,,
,,,,,,,,,,,,5ffdd8d1b2325f3c1f6edc6b,53,Mężczyzna,2022-06-25_15h40.11.138,task,2021.1.4,Win32,60.01680471,6299f149e92ead563fba08ef,62b70e43662c8674ae400b49,,,,,,,,,,,,,,,,,,,,,,,,,,,,,,,,,,,,,,,,,,,,,,,,,,,,,,,,,,,,,,,,,,,,,,,,,,,,,,,,,,,,,,,,,,,,"[""comma""]",0,[0.21819999998808726],50,0,50,0,1,,
,,,,,,,,,,,,5ffdd8d1b2325f3c1f6edc6b,53,Mężczyzna,2022-06-25_15h40.11.138,task,2021.1.4,Win32,60.01680471,6299f149e92ead563fba08ef,62b70e43662c8674ae400b49,,,,,,,,,,,,,,,,,,,,,,,,,,,,,,,,,,,,,,,,,,,,,,,,,,,,,,,,,,,,,,,,,,,,,,,,,,,,,,,,,,,,,,,,,,,,"[""period""]",0,[0.15029999995226717],51,0,51,0,1,,
,,,,,,,,,,,,5ffdd8d1b2325f3c1f6edc6b,53,Mężczyzna,2022-06-25_15h40.11.138,task,2021.1.4,Win32,60.01680471,6299f149e92ead563fba08ef,62b70e43662c8674ae400b49,,,,,,,,,,,,,,,,,,,,,,,,,,,,,,,,,,,,,,,,,,,,,,,,,,,,,,,,,,,,,,,,,,,,,,,,,,,,,,,,,,,,,,,,,,,,"[""period""]",0,[0.2186000000239119],52,0,52,0,1,,
,,,,,,,,,,,,5ffdd8d1b2325f3c1f6edc6b,53,Mężczyzna,2022-06-25_15h40.11.138,task,2021.1.4,Win32,60.01680471,6299f149e92ead563fba08ef,62b70e43662c8674ae400b49,,,,,,,,,,,,,,,,,,,,,,,,,,,,,,,,,,,,,,,,,,,,,,,,,,,,,,,,,,,,,,,,,,,,,,,,,,,,,,,,,,,,,,,,,,,,"[""comma""]",0,[0.11799999999993815],53,0,53,0,1,,
,,,,,,,,,,,,5ffdd8d1b2325f3c1f6edc6b,53,Mężczyzna,2022-06-25_15h40.11.138,task,2021.1.4,Win32,60.01680471,6299f149e92ead563fba08ef,62b70e43662c8674ae400b49,,,,,,,,,,,,,,,,,,,,,,,,,,,,,,,,,,,,,,,,,,,,,,,,,,,,,,,,,,,,,,,,,,,,,,,,,,,,,,,,,,,,,,,,,,,,"[""period""]",0,[0.3224000000357137],54,0,54,0,1,,
,,,,,,,,,,,,5ffdd8d1b2325f3c1f6edc6b,53,Mężczyzna,2022-06-25_15h40.11.138,task,2021.1.4,Win32,60.01680471,6299f149e92ead563fba08ef,62b70e43662c8674ae400b49,,,,,,,,,,,,,,,,,,,,,,,,,,,,,,,,,,,,,,,,,,,,,,,,,,,,,,,,,,,,,,,,,,,,,,,,,,,,,,,,,,,,,,,,,,,,"[""comma""]",0,[0.2685999999641808],55,0,55,0,1,,
,,,,,,,,,,,,5ffdd8d1b2325f3c1f6edc6b,53,Mężczyzna,2022-06-25_15h40.11.138,task,2021.1.4,Win32,60.01680471,6299f149e92ead563fba08ef,62b70e43662c8674ae400b49,,,,,,,,,,,,,,,,,,,,,,,,,,,,,,,,,,,,,,,,,,,,,,,,,,,,,,,,,,,,,,,,,,,,,,,,,,,,,,,,,,,,,,,,,,,,"[""comma""]",0,[0.2511999999881027],56,0,56,0,1,,
,,,,,,,,,,,,5ffdd8d1b2325f3c1f6edc6b,53,Mężczyzna,2022-06-25_15h40.11.138,task,2021.1.4,Win32,60.01680471,6299f149e92ead563fba08ef,62b70e43662c8674ae400b49,,,,,,,,,,,,,,,,,,,,,,,,,,,,,,,,,,,,,,,,,,,,,,,,,,,,,,,,,,,,,,,,,,,,,,,,,,,,,,,,,,,,,,,,,,,,"[""period""]",0,[0.31860000002382094],57,0,57,0,1,,
,,,,,,,,,,,,5ffdd8d1b2325f3c1f6edc6b,53,Mężczyzna,2022-06-25_15h40.11.138,task,2021.1.4,Win32,60.01680471,6299f149e92ead563fba08ef,62b70e43662c8674ae400b49,,,,,,,,,,,,,,,,,,,,,,,,,,,,,,,,,,,,,,,,,,,,,,,,,,,,,,,,,,,,,,,,,,,,,,,,,,,,,,,,,,,,,,,,,,,,"[""comma""]",0,[0.40119999998808],58,0,58,0,1,,
,,,,,,,,,,,,5ffdd8d1b2325f3c1f6edc6b,53,Mężczyzna,2022-06-25_15h40.11.138,task,2021.1.4,Win32,60.01680471,6299f149e92ead563fba08ef,62b70e43662c8674ae400b49,,,,,,,,,,,,,,,,,,,,,,,,,,,,,,,,,,,,,,,,,,,,,,,,,,,,,,,,,,,,,,,,,,,,,,,,,,,,,,,,,,,,,,,,,,,,"[""period""]",0,[0.2493999999761627],59,0,59,0,1,,
,,,,,,,,,,,,5ffdd8d1b2325f3c1f6edc6b,53,Mężczyzna,2022-06-25_15h40.11.138,task,2021.1.4,Win32,60.01680471,6299f149e92ead563fba08ef,62b70e43662c8674ae400b49,,,,,,,,,,,,,,,,,,,,,,,,,,,,,,,,,,,,,,,,,,,,,,,,,,,,,,,,,,,,,,,,,,,,,,,,,,,,,,,,,,,,,,,,,,,,"[""period""]",0,[0.23710000002381548],60,0,60,0,1,,
,,,,,,,,,,,,5ffdd8d1b2325f3c1f6edc6b,53,Mężczyzna,2022-06-25_15h40.11.138,task,2021.1.4,Win32,60.01680471,6299f149e92ead563fba08ef,62b70e43662c8674ae400b49,,,,,,,,,,,,,,,,,,,,,,,,,,,,,,,,,,,,,,,,,,,,,,,,,,,,,,,,,,,,,,,,,,,,,,,,,,,,,,,,,,,,,,,,,,,,"[""period""]",0,[0.3196999999880745],61,0,61,0,1,,
,,,,,,,,,,,,5ffdd8d1b2325f3c1f6edc6b,53,Mężczyzna,2022-06-25_15h40.11.138,task,2021.1.4,Win32,60.01680471,6299f149e92ead563fba08ef,62b70e43662c8674ae400b49,,,,,,,,,,,,,,,,,,,,,,,,,,,,,,,,,,,,,,,,,,,,,,,,,,,,,,,,,,,,,,,,,,,,,,,,,,,,,,,,,,,,,,,,,,,,"[""comma""]",0,[0.6255999999642654],62,0,62,0,1,,
,,,,,,,,,,,,5ffdd8d1b2325f3c1f6edc6b,53,Mężczyzna,2022-06-25_15h40.11.138,task,2021.1.4,Win32,60.01680471,6299f149e92ead563fba08ef,62b70e43662c8674ae400b49,,,,,,,,,,,,,,,,,,,,,,,,,,,,,,,,,,,,,,,,,,,,,,,,,,,,,,,,,,,,,,,,,,,,,,,,,,,,,,,,,,,,,,,,,,,,"[""period""]",0,[0.5061999999880982],63,0,63,0,1,,
,,,,,,,,,,,,5ffdd8d1b2325f3c1f6edc6b,53,Mężczyzna,2022-06-25_15h40.11.138,task,2021.1.4,Win32,60.01680471,6299f149e92ead563fba08ef,62b70e43662c8674ae400b49,,,,,,,,,,,,,,,,,,,,,,,,,,,,,,,,,,,,,,,,,,,,,,,,,,,,,,,,,,,,,,,,,,,,,,,,,,,,,,,,,,,,,,,,,,,,"[""comma""]",0,[0.5345999999642572],64,0,64,0,1,,
,,,,,,,,,,,,5ffdd8d1b2325f3c1f6edc6b,53,Mężczyzna,2022-06-25_15h40.11.138,task,2021.1.4,Win32,60.01680471,6299f149e92ead563fba08ef,62b70e43662c8674ae400b49,,,,,,,,,,,,,,,,,,,,,,,,,,,,,,,,,,,,,,,,,,,,,,,,,,,,,,,,,,,,,,,,,,,,,,,,,,,,,,,,,,,,,,,,,,,,"[""comma""]",0,[0.46849999999994907],65,0,65,0,1,,
,,,,,,,,,,,,5ffdd8d1b2325f3c1f6edc6b,53,Mężczyzna,2022-06-25_15h40.11.138,task,2021.1.4,Win32,60.01680471,6299f149e92ead563fba08ef,62b70e43662c8674ae400b49,,,,,,,,,,,,,,,,,,,,,,,,,,,,,,,,,,,,,,,,,,,,,,,,,,,,,,,,,,,,,,,,,,,,,,,,,,,,,,,,,,,,,,,,,,,,"[""period""]",0,[0.7029999999999745],66,0,66,0,1,,
,,,,,,,,,,,,5ffdd8d1b2325f3c1f6edc6b,53,Mężczyzna,2022-06-25_15h40.11.138,task,2021.1.4,Win32,60.01680471,6299f149e92ead563fba08ef,62b70e43662c8674ae400b49,,,,,,,,,,,,,,,,,,,,,,,,,,,,,,,,,,,,,,,,,,,,,,,,,,,,,,,,,,,,,,,,,,,,,,,,,,,,,,,,,,,,,,,,,,,,"[""comma""]",0,[0.28689999997607174],67,0,67,0,1,,
,,,,,,,,,,,,5ffdd8d1b2325f3c1f6edc6b,53,Mężczyzna,2022-06-25_15h40.11.138,task,2021.1.4,Win32,60.01680471,6299f149e92ead563fba08ef,62b70e43662c8674ae400b49,,,,,,,,,,,,,,,,,,,,,,,,,,,,,,,,,,,,,,,,,,,,,,,,,,,,,,,,,,,,,,,,,,,,,,,,,,,,,,,,,,,,,,,,,,,,"[""period""]",0,[0.31889999997611085],68,0,68,0,1,,
,,,,,,,,,,,,5ffdd8d1b2325f3c1f6edc6b,53,Mężczyzna,2022-06-25_15h40.11.138,task,2021.1.4,Win32,60.01680471,6299f149e92ead563fba08ef,62b70e43662c8674ae400b49,,,,,,,,,,,,,,,,,,,,,,,,,,,,,,,,,,,,,,,,,,,,,,,,,,,,,,,,,,,,,,,,,,,,,,,,,,,,,,,,,,,,,,,,,,,,"[""period""]",0,[0.9907000000476955],69,0,69,0,1,,
,,,,,,,,,,,,5ffdd8d1b2325f3c1f6edc6b,53,Mężczyzna,2022-06-25_15h40.11.138,task,2021.1.4,Win32,60.01680471,6299f149e92ead563fba08ef,62b70e43662c8674ae400b49,,,,,,,,,,,,,,,,,,,,,,,,,,,,,,,,,,,,,,,,,,,,,,,,,,,,,,,,,,,,,,,,,,,,,,,,,,,,,,,,,,,,,,,,,,,,"[""comma"",""comma""]",0,"[0.36850000000004,1.2688999999761563]",70,0,70,0,1,,
,,,,,,,,,,,,5ffdd8d1b2325f3c1f6edc6b,53,Mężczyzna,2022-06-25_15h40.11.138,task,2021.1.4,Win32,60.01680471,6299f149e92ead563fba08ef,62b70e43662c8674ae400b49,,,,,,,,,,,,,,,,,,,,,,,,,,,,,,,,,,,,,,,,,,,,,,,,,,,,,,,,,,,,,,,,,,,,,,,,,,,,,,,,,,,,,,,,,,,,,0,,71,0,71,0,1,,
,,,,,,,,,,,,5ffdd8d1b2325f3c1f6edc6b,53,Mężczyzna,2022-06-25_15h40.11.138,task,2021.1.4,Win32,60.01680471,6299f149e92ead563fba08ef,62b70e43662c8674ae400b49,,,,,,,,,,,,,,,,,,,,,,,,,,,,,,,,,,,,,,,,,,,,,,,,,,,,,,,,,,,,,,,,,,,,,,,,,,,,,,,,,,,,,,,,,,,,"[""period""]",0,[0.21880000001192457],72,0,72,0,1,,
,,,,,,,,,,,,5ffdd8d1b2325f3c1f6edc6b,53,Mężczyzna,2022-06-25_15h40.11.138,task,2021.1.4,Win32,60.01680471,6299f149e92ead563fba08ef,62b70e43662c8674ae400b49,,,,,,,,,,,,,,,,,,,,,,,,,,,,,,,,,,,,,,,,,,,,,,,,,,,,,,,,,,,,,,,,,,,,,,,,,,,,,,,,,,,,,,,,,,,,"[""period""]",0,[0.20420000004764916],73,0,73,0,1,,
,,,,,,,,,,,,5ffdd8d1b2325f3c1f6edc6b,53,Mężczyzna,2022-06-25_15h40.11.138,task,2021.1.4,Win32,60.01680471,6299f149e92ead563fba08ef,62b70e43662c8674ae400b49,,,,,,,,,,,,,,,,,,,,,,,,,,,,,,,,,,,,,,,,,,,,,,,,,,,,,,,,,,,,,,,,,,,,,,,,,,,,,,,,,,,,,,,,,,,,"[""comma""]",0,[0.18569999998805997],74,0,74,0,1,,
,,,,,,,,,,,,5ffdd8d1b2325f3c1f6edc6b,53,Mężczyzna,2022-06-25_15h40.11.138,task,2021.1.4,Win32,60.01680471,6299f149e92ead563fba08ef,62b70e43662c8674ae400b49,,,,,,,,,,,,,,,,,,,,,,,,,,,,,,,,,,,,,,,,,,,,,,,,,,,,,,,,,,,,,,,,,,,,,,,,,,,,,,,,,,,,,,,,,,,,"[""period""]",0,[0.033700000047701906],75,0,75,0,1,,
,,,,,,,,,,,,5ffdd8d1b2325f3c1f6edc6b,53,Mężczyzna,2022-06-25_15h40.11.138,task,2021.1.4,Win32,60.01680471,6299f149e92ead563fba08ef,62b70e43662c8674ae400b49,,,,,,,,,,,,,,,,,,,,,,,,,,,,,,,,,,,,,,,,,,,,,,,,,,,,,,,,,,,,,,,,,,,,,,,,,,,,,,,,,,,,,,,,,,,,"[""comma""]",0,[0.17190000003574823],76,0,76,0,1,,
,,,,,,,,,,,,5ffdd8d1b2325f3c1f6edc6b,53,Mężczyzna,2022-06-25_15h40.11.138,task,2021.1.4,Win32,60.01680471,6299f149e92ead563fba08ef,62b70e43662c8674ae400b49,,,,,,,,,,,,,,,,,,,,,,,,,,,,,,,,,,,,,,,,,,,,,,,,,,,,,,,,,,,,,,,,,,,,,,,,,,,,,,,,,,,,,,,,,,,,"[""period""]",0,[0.1326999999880627],77,0,77,0,1,,
,,,,,,,,,,,,5ffdd8d1b2325f3c1f6edc6b,53,Mężczyzna,2022-06-25_15h40.11.138,task,2021.1.4,Win32,60.01680471,6299f149e92ead563fba08ef,62b70e43662c8674ae400b49,,,,,,,,,,,,,,,,,,,,,,,,,,,,,,,,,,,,,,,,,,,,,,,,,,,,,,,,,,,,,,,,,,,,,,,,,,,,,,,,,,,,,,,,,,,,"[""comma""]",0,[0.13310000002388733],78,0,78,0,1,,
,,,,,,,,,,,,5ffdd8d1b2325f3c1f6edc6b,53,Mężczyzna,2022-06-25_15h40.11.138,task,2021.1.4,Win32,60.01680471,6299f149e92ead563fba08ef,62b70e43662c8674ae400b49,,,,,,,,,,,,,,,,,,,,,,,,,,,,,,,,,,,,,,,,,,,,,,,,,,,,,,,,,,,,,,,,,,,,,,,,,,,,,,,,,,,,,,,,,,,,"[""comma""]",0,[0.11899999999991451],79,0,79,0,1,,
