key_resp_15.keys,key_resp_15.rt,key_resp_13.keys,key_resp_13.corr,ranodm_loop.thisRepN,ranodm_loop.thisTrialN,ranodm_loop.thisN,ranodm_loop.thisIndex,ranodm_loop.ran,participant,Wiek*,Płeć,date,expName,psychopyVersion,OS,frameRate,study_id,session,key_resp_13.rt,key_resp_16.keys,key_resp_16.rt,key_resp_4.keys,key_resp_4.rt,next_letter.thisRepN,next_letter.thisTrialN,next_letter.thisN,next_letter.thisIndex,next_letter.ran,letter,simple_recall,key_resp_5.keys,key_resp_5.rt,simple_recall_corr,simple_recall_corrkeys,next_level.thisRepN,next_level.thisTrialN,next_level.thisN,next_level.thisIndex,next_level.ran,key_resp_2.keys,key_resp_2.rt,digit_answer,key_resp.keys,key_resp.corr,key_resp.rt,RT_list,next_equation.thisRepN,next_equation.thisTrialN,next_equation.thisN,next_equation.thisIndex,next_equation.ran,Task,Trial,Problem,Operation_answer,processing_score,sumRT,meanRT,sumdiff,sd,RT,key_resp_3.keys,key_resp_3.rt,repeat_practice.thisRepN,repeat_practice.thisTrialN,repeat_practice.thisN,repeat_practice.thisIndex,repeat_practice.ran,key_resp_6.keys,key_resp_6.rt,key_resp_11.keys,key_resp_11.corr,key_resp_11.rt,operation_correct,repeat_if_wrong_prac.thisRepN,repeat_if_wrong_prac.thisTrialN,repeat_if_wrong_prac.thisN,repeat_if_wrong_prac.thisIndex,repeat_if_wrong_prac.ran,span_size_prac.thisRepN,span_size_prac.thisTrialN,span_size_prac.thisN,span_size_prac.thisIndex,span_size_prac.ran,complex_recall_practice,key_resp_9.keys,key_resp_9.corr,key_resp_9.rt,complex_prac_corr,span_recall_prac.thisRepN,span_recall_prac.thisTrialN,span_recall_prac.thisN,span_recall_prac.thisIndex,span_recall_prac.ran,key_resp_10.keys,key_resp_10.rt,key_resp_7.keys,key_resp_7.corr,key_resp_7.rt,repeat_if_wrong.thisRepN,repeat_if_wrong.thisTrialN,repeat_if_wrong.thisN,repeat_if_wrong.thisIndex,repeat_if_wrong.ran,span_size.thisRepN,span_size.thisTrialN,span_size.thisN,span_size.thisIndex,span_size.ran,complex_recall,key_resp_8.keys,key_resp_8.corr,key_resp_8.rt,complex_recall_corr,complex_recall_corrkeys,span_recall.thisRepN,span_recall.thisTrialN,span_recall.thisN,span_recall.thisIndex,span_recall.ran,key_resp_12.keys,key_resp_12.rt
space,4.8213,,0,0,0,0,0,1,60113374795b0d000a98b896,35,Mężczyzna,2022-06-04_08h18.08.101,task,2021.1.4,Win32,59.79073244,628b806c463b948bc644b84f,629af9128e5c974c5174547b,,,,,,,,,,,,,,,,,,,,,,,,,,,,,,,,,,,,,,,,,,,,,,,,,,,,,,,,,,,,,,,,,,,,,,,,,,,,,,,,,,,,,,,,,,,,,,,,,,,,,,,,
,,"[""comma""]",0,1,0,1,0,1,60113374795b0d000a98b896,35,Mężczyzna,2022-06-04_08h18.08.101,task,2021.1.4,Win32,59.79073244,628b806c463b948bc644b84f,629af9128e5c974c5174547b,[0.5049000000059607],,,,,,,,,,,,,,,,,,,,,,,,,,,,,,,,,,,,,,,,,,,,,,,,,,,,,,,,,,,,,,,,,,,,,,,,,,,,,,,,,,,,,,,,,,,,,,,,,,,,,,,
,,"[""comma""]",0,2,0,2,0,1,60113374795b0d000a98b896,35,Mężczyzna,2022-06-04_08h18.08.101,task,2021.1.4,Win32,59.79073244,628b806c463b948bc644b84f,629af9128e5c974c5174547b,[0.8333000000119171],,,,,,,,,,,,,,,,,,,,,,,,,,,,,,,,,,,,,,,,,,,,,,,,,,,,,,,,,,,,,,,,,,,,,,,,,,,,,,,,,,,,,,,,,,,,,,,,,,,,,,,
,,,0,3,0,3,0,1,60113374795b0d000a98b896,35,Mężczyzna,2022-06-04_08h18.08.101,task,2021.1.4,Win32,59.79073244,628b806c463b948bc644b84f,629af9128e5c974c5174547b,,,,,,,,,,,,,,,,,,,,,,,,,,,,,,,,,,,,,,,,,,,,,,,,,,,,,,,,,,,,,,,,,,,,,,,,,,,,,,,,,,,,,,,,,,,,,,,,,,,,,,,,
,,"[""period""]",0,4,0,4,0,1,60113374795b0d000a98b896,35,Mężczyzna,2022-06-04_08h18.08.101,task,2021.1.4,Win32,59.79073244,628b806c463b948bc644b84f,629af9128e5c974c5174547b,[0.2966000000089366],,,,,,,,,,,,,,,,,,,,,,,,,,,,,,,,,,,,,,,,,,,,,,,,,,,,,,,,,,,,,,,,,,,,,,,,,,,,,,,,,,,,,,,,,,,,,,,,,,,,,,,
,,"[""comma""]",0,5,0,5,0,1,60113374795b0d000a98b896,35,Mężczyzna,2022-06-04_08h18.08.101,task,2021.1.4,Win32,59.79073244,628b806c463b948bc644b84f,629af9128e5c974c5174547b,[0.07580000001192388],,,,,,,,,,,,,,,,,,,,,,,,,,,,,,,,,,,,,,,,,,,,,,,,,,,,,,,,,,,,,,,,,,,,,,,,,,,,,,,,,,,,,,,,,,,,,,,,,,,,,,,
,,"[""period""]",0,6,0,6,0,1,60113374795b0d000a98b896,35,Mężczyzna,2022-06-04_08h18.08.101,task,2021.1.4,Win32,59.79073244,628b806c463b948bc644b84f,629af9128e5c974c5174547b,[0.3155000000000001],,,,,,,,,,,,,,,,,,,,,,,,,,,,,,,,,,,,,,,,,,,,,,,,,,,,,,,,,,,,,,,,,,,,,,,,,,,,,,,,,,,,,,,,,,,,,,,,,,,,,,,
,,"[""comma""]",0,7,0,7,0,1,60113374795b0d000a98b896,35,Mężczyzna,2022-06-04_08h18.08.101,task,2021.1.4,Win32,59.79073244,628b806c463b948bc644b84f,629af9128e5c974c5174547b,[0.2999000000059624],,,,,,,,,,,,,,,,,,,,,,,,,,,,,,,,,,,,,,,,,,,,,,,,,,,,,,,,,,,,,,,,,,,,,,,,,,,,,,,,,,,,,,,,,,,,,,,,,,,,,,,
,,"[""period""]",0,8,0,8,0,1,60113374795b0d000a98b896,35,Mężczyzna,2022-06-04_08h18.08.101,task,2021.1.4,Win32,59.79073244,628b806c463b948bc644b84f,629af9128e5c974c5174547b,[0.2705999999940474],,,,,,,,,,,,,,,,,,,,,,,,,,,,,,,,,,,,,,,,,,,,,,,,,,,,,,,,,,,,,,,,,,,,,,,,,,,,,,,,,,,,,,,,,,,,,,,,,,,,,,,
,,"[""period""]",0,9,0,9,0,1,60113374795b0d000a98b896,35,Mężczyzna,2022-06-04_08h18.08.101,task,2021.1.4,Win32,59.79073244,628b806c463b948bc644b84f,629af9128e5c974c5174547b,[0.2854000000059642],,,,,,,,,,,,,,,,,,,,,,,,,,,,,,,,,,,,,,,,,,,,,,,,,,,,,,,,,,,,,,,,,,,,,,,,,,,,,,,,,,,,,,,,,,,,,,,,,,,,,,,
,,"[""period"",""period""]",0,10,0,10,0,1,60113374795b0d000a98b896,35,Mężczyzna,2022-06-04_08h18.08.101,task,2021.1.4,Win32,59.79073244,628b806c463b948bc644b84f,629af9128e5c974c5174547b,"[0.09920000000298046,1.8524000000059573]",,,,,,,,,,,,,,,,,,,,,,,,,,,,,,,,,,,,,,,,,,,,,,,,,,,,,,,,,,,,,,,,,,,,,,,,,,,,,,,,,,,,,,,,,,,,,,,,,,,,,,,
,,"[""comma""]",0,11,0,11,0,1,60113374795b0d000a98b896,35,Mężczyzna,2022-06-04_08h18.08.101,task,2021.1.4,Win32,59.79073244,628b806c463b948bc644b84f,629af9128e5c974c5174547b,[1.930499999999995],,,,,,,,,,,,,,,,,,,,,,,,,,,,,,,,,,,,,,,,,,,,,,,,,,,,,,,,,,,,,,,,,,,,,,,,,,,,,,,,,,,,,,,,,,,,,,,,,,,,,,,
,,,0,12,0,12,0,1,60113374795b0d000a98b896,35,Mężczyzna,2022-06-04_08h18.08.101,task,2021.1.4,Win32,59.79073244,628b806c463b948bc644b84f,629af9128e5c974c5174547b,,,,,,,,,,,,,,,,,,,,,,,,,,,,,,,,,,,,,,,,,,,,,,,,,,,,,,,,,,,,,,,,,,,,,,,,,,,,,,,,,,,,,,,,,,,,,,,,,,,,,,,,
,,"[""period""]",0,13,0,13,0,1,60113374795b0d000a98b896,35,Mężczyzna,2022-06-04_08h18.08.101,task,2021.1.4,Win32,59.79073244,628b806c463b948bc644b84f,629af9128e5c974c5174547b,[0.28509999999404556],,,,,,,,,,,,,,,,,,,,,,,,,,,,,,,,,,,,,,,,,,,,,,,,,,,,,,,,,,,,,,,,,,,,,,,,,,,,,,,,,,,,,,,,,,,,,,,,,,,,,,,
,,"[""comma"",""period""]",0,14,0,14,0,1,60113374795b0d000a98b896,35,Mężczyzna,2022-06-04_08h18.08.101,task,2021.1.4,Win32,59.79073244,628b806c463b948bc644b84f,629af9128e5c974c5174547b,"[0.2886000000089268,1.9696000000089526]",,,,,,,,,,,,,,,,,,,,,,,,,,,,,,,,,,,,,,,,,,,,,,,,,,,,,,,,,,,,,,,,,,,,,,,,,,,,,,,,,,,,,,,,,,,,,,,,,,,,,,,
,,,0,15,0,15,0,1,60113374795b0d000a98b896,35,Mężczyzna,2022-06-04_08h18.08.101,task,2021.1.4,Win32,59.79073244,628b806c463b948bc644b84f,629af9128e5c974c5174547b,,,,,,,,,,,,,,,,,,,,,,,,,,,,,,,,,,,,,,,,,,,,,,,,,,,,,,,,,,,,,,,,,,,,,,,,,,,,,,,,,,,,,,,,,,,,,,,,,,,,,,,,
,,"[""comma"",""period""]",0,16,0,16,0,1,60113374795b0d000a98b896,35,Mężczyzna,2022-06-04_08h18.08.101,task,2021.1.4,Win32,59.79073244,628b806c463b948bc644b84f,629af9128e5c974c5174547b,"[0.012899999991049071,1.816200000002965]",,,,,,,,,,,,,,,,,,,,,,,,,,,,,,,,,,,,,,,,,,,,,,,,,,,,,,,,,,,,,,,,,,,,,,,,,,,,,,,,,,,,,,,,,,,,,,,,,,,,,,,
,,,0,17,0,17,0,1,60113374795b0d000a98b896,35,Mężczyzna,2022-06-04_08h18.08.101,task,2021.1.4,Win32,59.79073244,628b806c463b948bc644b84f,629af9128e5c974c5174547b,,,,,,,,,,,,,,,,,,,,,,,,,,,,,,,,,,,,,,,,,,,,,,,,,,,,,,,,,,,,,,,,,,,,,,,,,,,,,,,,,,,,,,,,,,,,,,,,,,,,,,,,
,,"[""comma""]",0,18,0,18,0,1,60113374795b0d000a98b896,35,Mężczyzna,2022-06-04_08h18.08.101,task,2021.1.4,Win32,59.79073244,628b806c463b948bc644b84f,629af9128e5c974c5174547b,[0.1845000000000141],,,,,,,,,,,,,,,,,,,,,,,,,,,,,,,,,,,,,,,,,,,,,,,,,,,,,,,,,,,,,,,,,,,,,,,,,,,,,,,,,,,,,,,,,,,,,,,,,,,,,,,
,,"[""period""]",0,19,0,19,0,1,60113374795b0d000a98b896,35,Mężczyzna,2022-06-04_08h18.08.101,task,2021.1.4,Win32,59.79073244,628b806c463b948bc644b84f,629af9128e5c974c5174547b,[0.30560000000892273],,,,,,,,,,,,,,,,,,,,,,,,,,,,,,,,,,,,,,,,,,,,,,,,,,,,,,,,,,,,,,,,,,,,,,,,,,,,,,,,,,,,,,,,,,,,,,,,,,,,,,,
,,"[""comma""]",0,20,0,20,0,1,60113374795b0d000a98b896,35,Mężczyzna,2022-06-04_08h18.08.101,task,2021.1.4,Win32,59.79073244,628b806c463b948bc644b84f,629af9128e5c974c5174547b,[0.28469999998807793],,,,,,,,,,,,,,,,,,,,,,,,,,,,,,,,,,,,,,,,,,,,,,,,,,,,,,,,,,,,,,,,,,,,,,,,,,,,,,,,,,,,,,,,,,,,,,,,,,,,,,,
,,"[""period""]",0,21,0,21,0,1,60113374795b0d000a98b896,35,Mężczyzna,2022-06-04_08h18.08.101,task,2021.1.4,Win32,59.79073244,628b806c463b948bc644b84f,629af9128e5c974c5174547b,[0.2845000000000084],,,,,,,,,,,,,,,,,,,,,,,,,,,,,,,,,,,,,,,,,,,,,,,,,,,,,,,,,,,,,,,,,,,,,,,,,,,,,,,,,,,,,,,,,,,,,,,,,,,,,,,
,,"[""comma""]",0,22,0,22,0,1,60113374795b0d000a98b896,35,Mężczyzna,2022-06-04_08h18.08.101,task,2021.1.4,Win32,59.79073244,628b806c463b948bc644b84f,629af9128e5c974c5174547b,[0.30720000000297887],,,,,,,,,,,,,,,,,,,,,,,,,,,,,,,,,,,,,,,,,,,,,,,,,,,,,,,,,,,,,,,,,,,,,,,,,,,,,,,,,,,,,,,,,,,,,,,,,,,,,,,
,,"[""period""]",0,23,0,23,0,1,60113374795b0d000a98b896,35,Mężczyzna,2022-06-04_08h18.08.101,task,2021.1.4,Win32,59.79073244,628b806c463b948bc644b84f,629af9128e5c974c5174547b,[0.28370000000299456],,,,,,,,,,,,,,,,,,,,,,,,,,,,,,,,,,,,,,,,,,,,,,,,,,,,,,,,,,,,,,,,,,,,,,,,,,,,,,,,,,,,,,,,,,,,,,,,,,,,,,,
,,"[""comma""]",0,24,0,24,0,1,60113374795b0d000a98b896,35,Mężczyzna,2022-06-04_08h18.08.101,task,2021.1.4,Win32,59.79073244,628b806c463b948bc644b84f,629af9128e5c974c5174547b,[0.29840000000598366],,,,,,,,,,,,,,,,,,,,,,,,,,,,,,,,,,,,,,,,,,,,,,,,,,,,,,,,,,,,,,,,,,,,,,,,,,,,,,,,,,,,,,,,,,,,,,,,,,,,,,,
,,"[""period""]",0,25,0,25,0,1,60113374795b0d000a98b896,35,Mężczyzna,2022-06-04_08h18.08.101,task,2021.1.4,Win32,59.79073244,628b806c463b948bc644b84f,629af9128e5c974c5174547b,[0.28320000000297796],,,,,,,,,,,,,,,,,,,,,,,,,,,,,,,,,,,,,,,,,,,,,,,,,,,,,,,,,,,,,,,,,,,,,,,,,,,,,,,,,,,,,,,,,,,,,,,,,,,,,,,
,,"[""period""]",0,26,0,26,0,1,60113374795b0d000a98b896,35,Mężczyzna,2022-06-04_08h18.08.101,task,2021.1.4,Win32,59.79073244,628b806c463b948bc644b84f,629af9128e5c974c5174547b,[0.2696999999880916],,,,,,,,,,,,,,,,,,,,,,,,,,,,,,,,,,,,,,,,,,,,,,,,,,,,,,,,,,,,,,,,,,,,,,,,,,,,,,,,,,,,,,,,,,,,,,,,,,,,,,,
,,"[""period"",""period""]",0,27,0,27,0,1,60113374795b0d000a98b896,35,Mężczyzna,2022-06-04_08h18.08.101,task,2021.1.4,Win32,59.79073244,628b806c463b948bc644b84f,629af9128e5c974c5174547b,"[0.28189999999105453,1.8785999999940373]",,,,,,,,,,,,,,,,,,,,,,,,,,,,,,,,,,,,,,,,,,,,,,,,,,,,,,,,,,,,,,,,,,,,,,,,,,,,,,,,,,,,,,,,,,,,,,,,,,,,,,,
,,,0,28,0,28,0,1,60113374795b0d000a98b896,35,Mężczyzna,2022-06-04_08h18.08.101,task,2021.1.4,Win32,59.79073244,628b806c463b948bc644b84f,629af9128e5c974c5174547b,,,,,,,,,,,,,,,,,,,,,,,,,,,,,,,,,,,,,,,,,,,,,,,,,,,,,,,,,,,,,,,,,,,,,,,,,,,,,,,,,,,,,,,,,,,,,,,,,,,,,,,,
,,"[""comma""]",0,29,0,29,0,1,60113374795b0d000a98b896,35,Mężczyzna,2022-06-04_08h18.08.101,task,2021.1.4,Win32,59.79073244,628b806c463b948bc644b84f,629af9128e5c974c5174547b,[0.18340000000594614],,,,,,,,,,,,,,,,,,,,,,,,,,,,,,,,,,,,,,,,,,,,,,,,,,,,,,,,,,,,,,,,,,,,,,,,,,,,,,,,,,,,,,,,,,,,,,,,,,,,,,,
,,"[""comma""]",0,30,0,30,0,1,60113374795b0d000a98b896,35,Mężczyzna,2022-06-04_08h18.08.101,task,2021.1.4,Win32,59.79073244,628b806c463b948bc644b84f,629af9128e5c974c5174547b,[0.29120000000298774],,,,,,,,,,,,,,,,,,,,,,,,,,,,,,,,,,,,,,,,,,,,,,,,,,,,,,,,,,,,,,,,,,,,,,,,,,,,,,,,,,,,,,,,,,,,,,,,,,,,,,,
,,"[""comma"",""comma""]",0,31,0,31,0,1,60113374795b0d000a98b896,35,Mężczyzna,2022-06-04_08h18.08.101,task,2021.1.4,Win32,59.79073244,628b806c463b948bc644b84f,629af9128e5c974c5174547b,"[0.23870000000297864,1.9362999999970327]",,,,,,,,,,,,,,,,,,,,,,,,,,,,,,,,,,,,,,,,,,,,,,,,,,,,,,,,,,,,,,,,,,,,,,,,,,,,,,,,,,,,,,,,,,,,,,,,,,,,,,,
,,"[""comma""]",0,32,0,32,0,1,60113374795b0d000a98b896,35,Mężczyzna,2022-06-04_08h18.08.101,task,2021.1.4,Win32,59.79073244,628b806c463b948bc644b84f,629af9128e5c974c5174547b,[1.6639999999999873],,,,,,,,,,,,,,,,,,,,,,,,,,,,,,,,,,,,,,,,,,,,,,,,,,,,,,,,,,,,,,,,,,,,,,,,,,,,,,,,,,,,,,,,,,,,,,,,,,,,,,,
,,"[""comma""]",0,33,0,33,0,1,60113374795b0d000a98b896,35,Mężczyzna,2022-06-04_08h18.08.101,task,2021.1.4,Win32,59.79073244,628b806c463b948bc644b84f,629af9128e5c974c5174547b,[1.848799999997027],,,,,,,,,,,,,,,,,,,,,,,,,,,,,,,,,,,,,,,,,,,,,,,,,,,,,,,,,,,,,,,,,,,,,,,,,,,,,,,,,,,,,,,,,,,,,,,,,,,,,,,
,,,0,34,0,34,0,1,60113374795b0d000a98b896,35,Mężczyzna,2022-06-04_08h18.08.101,task,2021.1.4,Win32,59.79073244,628b806c463b948bc644b84f,629af9128e5c974c5174547b,,,,,,,,,,,,,,,,,,,,,,,,,,,,,,,,,,,,,,,,,,,,,,,,,,,,,,,,,,,,,,,,,,,,,,,,,,,,,,,,,,,,,,,,,,,,,,,,,,,,,,,,
,,"[""period""]",0,35,0,35,0,1,60113374795b0d000a98b896,35,Mężczyzna,2022-06-04_08h18.08.101,task,2021.1.4,Win32,59.79073244,628b806c463b948bc644b84f,629af9128e5c974c5174547b,[0.3379000000059591],,,,,,,,,,,,,,,,,,,,,,,,,,,,,,,,,,,,,,,,,,,,,,,,,,,,,,,,,,,,,,,,,,,,,,,,,,,,,,,,,,,,,,,,,,,,,,,,,,,,,,,
,,"[""period""]",0,36,0,36,0,1,60113374795b0d000a98b896,35,Mężczyzna,2022-06-04_08h18.08.101,task,2021.1.4,Win32,59.79073244,628b806c463b948bc644b84f,629af9128e5c974c5174547b,[0.2721999999880893],,,,,,,,,,,,,,,,,,,,,,,,,,,,,,,,,,,,,,,,,,,,,,,,,,,,,,,,,,,,,,,,,,,,,,,,,,,,,,,,,,,,,,,,,,,,,,,,,,,,,,,
,,"[""comma""]",0,37,0,37,0,1,60113374795b0d000a98b896,35,Mężczyzna,2022-06-04_08h18.08.101,task,2021.1.4,Win32,59.79073244,628b806c463b948bc644b84f,629af9128e5c974c5174547b,[0.29790000000596706],,,,,,,,,,,,,,,,,,,,,,,,,,,,,,,,,,,,,,,,,,,,,,,,,,,,,,,,,,,,,,,,,,,,,,,,,,,,,,,,,,,,,,,,,,,,,,,,,,,,,,,
,,"[""period""]",0,38,0,38,0,1,60113374795b0d000a98b896,35,Mężczyzna,2022-06-04_08h18.08.101,task,2021.1.4,Win32,59.79073244,628b806c463b948bc644b84f,629af9128e5c974c5174547b,[0.2001000000089448],,,,,,,,,,,,,,,,,,,,,,,,,,,,,,,,,,,,,,,,,,,,,,,,,,,,,,,,,,,,,,,,,,,,,,,,,,,,,,,,,,,,,,,,,,,,,,,,,,,,,,,
,,"[""comma""]",0,39,0,39,0,1,60113374795b0d000a98b896,35,Mężczyzna,2022-06-04_08h18.08.101,task,2021.1.4,Win32,59.79073244,628b806c463b948bc644b84f,629af9128e5c974c5174547b,[0.049000000000006594],,,,,,,,,,,,,,,,,,,,,,,,,,,,,,,,,,,,,,,,,,,,,,,,,,,,,,,,,,,,,,,,,,,,,,,,,,,,,,,,,,,,,,,,,,,,,,,,,,,,,,,
,,"[""period""]",0,40,0,40,0,1,60113374795b0d000a98b896,35,Mężczyzna,2022-06-04_08h18.08.101,task,2021.1.4,Win32,59.79073244,628b806c463b948bc644b84f,629af9128e5c974c5174547b,[0.2337000000029832],,,,,,,,,,,,,,,,,,,,,,,,,,,,,,,,,,,,,,,,,,,,,,,,,,,,,,,,,,,,,,,,,,,,,,,,,,,,,,,,,,,,,,,,,,,,,,,,,,,,,,,
,,"[""comma""]",0,41,0,41,0,1,60113374795b0d000a98b896,35,Mężczyzna,2022-06-04_08h18.08.101,task,2021.1.4,Win32,59.79073244,628b806c463b948bc644b84f,629af9128e5c974c5174547b,[0.23780000001193002],,,,,,,,,,,,,,,,,,,,,,,,,,,,,,,,,,,,,,,,,,,,,,,,,,,,,,,,,,,,,,,,,,,,,,,,,,,,,,,,,,,,,,,,,,,,,,,,,,,,,,,
,,"[""period""]",0,42,0,42,0,1,60113374795b0d000a98b896,35,Mężczyzna,2022-06-04_08h18.08.101,task,2021.1.4,Win32,59.79073244,628b806c463b948bc644b84f,629af9128e5c974c5174547b,[0.2991999999880761],,,,,,,,,,,,,,,,,,,,,,,,,,,,,,,,,,,,,,,,,,,,,,,,,,,,,,,,,,,,,,,,,,,,,,,,,,,,,,,,,,,,,,,,,,,,,,,,,,,,,,,
,,"[""period""]",0,43,0,43,0,1,60113374795b0d000a98b896,35,Mężczyzna,2022-06-04_08h18.08.101,task,2021.1.4,Win32,59.79073244,628b806c463b948bc644b84f,629af9128e5c974c5174547b,[0.3015999999940391],,,,,,,,,,,,,,,,,,,,,,,,,,,,,,,,,,,,,,,,,,,,,,,,,,,,,,,,,,,,,,,,,,,,,,,,,,,,,,,,,,,,,,,,,,,,,,,,,,,,,,,
,,"[""period""]",0,44,0,44,0,1,60113374795b0d000a98b896,35,Mężczyzna,2022-06-04_08h18.08.101,task,2021.1.4,Win32,59.79073244,628b806c463b948bc644b84f,629af9128e5c974c5174547b,[0.20209999999403294],,,,,,,,,,,,,,,,,,,,,,,,,,,,,,,,,,,,,,,,,,,,,,,,,,,,,,,,,,,,,,,,,,,,,,,,,,,,,,,,,,,,,,,,,,,,,,,,,,,,,,,
,,"[""period""]",0,45,0,45,0,1,60113374795b0d000a98b896,35,Mężczyzna,2022-06-04_08h18.08.101,task,2021.1.4,Win32,59.79073244,628b806c463b948bc644b84f,629af9128e5c974c5174547b,[0.01840000000598252],,,,,,,,,,,,,,,,,,,,,,,,,,,,,,,,,,,,,,,,,,,,,,,,,,,,,,,,,,,,,,,,,,,,,,,,,,,,,,,,,,,,,,,,,,,,,,,,,,,,,,,
,,"[""period""]",0,46,0,46,0,1,60113374795b0d000a98b896,35,Mężczyzna,2022-06-04_08h18.08.101,task,2021.1.4,Win32,59.79073244,628b806c463b948bc644b84f,629af9128e5c974c5174547b,[-0.01679999999700499],,,,,,,,,,,,,,,,,,,,,,,,,,,,,,,,,,,,,,,,,,,,,,,,,,,,,,,,,,,,,,,,,,,,,,,,,,,,,,,,,,,,,,,,,,,,,,,,,,,,,,,
,,"[""comma""]",0,47,0,47,0,1,60113374795b0d000a98b896,35,Mężczyzna,2022-06-04_08h18.08.101,task,2021.1.4,Win32,59.79073244,628b806c463b948bc644b84f,629af9128e5c974c5174547b,[-0.01410000000893774],,,,,,,,,,,,,,,,,,,,,,,,,,,,,,,,,,,,,,,,,,,,,,,,,,,,,,,,,,,,,,,,,,,,,,,,,,,,,,,,,,,,,,,,,,,,,,,,,,,,,,,
,,"[""comma""]",0,48,0,48,0,1,60113374795b0d000a98b896,35,Mężczyzna,2022-06-04_08h18.08.101,task,2021.1.4,Win32,59.79073244,628b806c463b948bc644b84f,629af9128e5c974c5174547b,[0.3041000000089298],,,,,,,,,,,,,,,,,,,,,,,,,,,,,,,,,,,,,,,,,,,,,,,,,,,,,,,,,,,,,,,,,,,,,,,,,,,,,,,,,,,,,,,,,,,,,,,,,,,,,,,
,,"[""comma""]",0,49,0,49,0,1,60113374795b0d000a98b896,35,Mężczyzna,2022-06-04_08h18.08.101,task,2021.1.4,Win32,59.79073244,628b806c463b948bc644b84f,629af9128e5c974c5174547b,[0.4302000000029693],,,,,,,,,,,,,,,,,,,,,,,,,,,,,,,,,,,,,,,,,,,,,,,,,,,,,,,,,,,,,,,,,,,,,,,,,,,,,,,,,,,,,,,,,,,,,,,,,,,,,,,
,,"[""period""]",0,50,0,50,0,1,60113374795b0d000a98b896,35,Mężczyzna,2022-06-04_08h18.08.101,task,2021.1.4,Win32,59.79073244,628b806c463b948bc644b84f,629af9128e5c974c5174547b,[0.28329999999704114],,,,,,,,,,,,,,,,,,,,,,,,,,,,,,,,,,,,,,,,,,,,,,,,,,,,,,,,,,,,,,,,,,,,,,,,,,,,,,,,,,,,,,,,,,,,,,,,,,,,,,,
,,"[""comma""]",0,51,0,51,0,1,60113374795b0d000a98b896,35,Mężczyzna,2022-06-04_08h18.08.101,task,2021.1.4,Win32,59.79073244,628b806c463b948bc644b84f,629af9128e5c974c5174547b,[0.218299999997015],,,,,,,,,,,,,,,,,,,,,,,,,,,,,,,,,,,,,,,,,,,,,,,,,,,,,,,,,,,,,,,,,,,,,,,,,,,,,,,,,,,,,,,,,,,,,,,,,,,,,,,
,,"[""period""]",0,52,0,52,0,1,60113374795b0d000a98b896,35,Mężczyzna,2022-06-04_08h18.08.101,task,2021.1.4,Win32,59.79073244,628b806c463b948bc644b84f,629af9128e5c974c5174547b,[0.16390000000598093],,,,,,,,,,,,,,,,,,,,,,,,,,,,,,,,,,,,,,,,,,,,,,,,,,,,,,,,,,,,,,,,,,,,,,,,,,,,,,,,,,,,,,,,,,,,,,,,,,,,,,,
,,"[""comma""]",0,53,0,53,0,1,60113374795b0d000a98b896,35,Mężczyzna,2022-06-04_08h18.08.101,task,2021.1.4,Win32,59.79073244,628b806c463b948bc644b84f,629af9128e5c974c5174547b,[0.26779999999700976],,,,,,,,,,,,,,,,,,,,,,,,,,,,,,,,,,,,,,,,,,,,,,,,,,,,,,,,,,,,,,,,,,,,,,,,,,,,,,,,,,,,,,,,,,,,,,,,,,,,,,,
,,"[""period""]",0,54,0,54,0,1,60113374795b0d000a98b896,35,Mężczyzna,2022-06-04_08h18.08.101,task,2021.1.4,Win32,59.79073244,628b806c463b948bc644b84f,629af9128e5c974c5174547b,[0.22100000000000364],,,,,,,,,,,,,,,,,,,,,,,,,,,,,,,,,,,,,,,,,,,,,,,,,,,,,,,,,,,,,,,,,,,,,,,,,,,,,,,,,,,,,,,,,,,,,,,,,,,,,,,
,,"[""comma""]",0,55,0,55,0,1,60113374795b0d000a98b896,35,Mężczyzna,2022-06-04_08h18.08.101,task,2021.1.4,Win32,59.79073244,628b806c463b948bc644b84f,629af9128e5c974c5174547b,[0.28440000000597365],,,,,,,,,,,,,,,,,,,,,,,,,,,,,,,,,,,,,,,,,,,,,,,,,,,,,,,,,,,,,,,,,,,,,,,,,,,,,,,,,,,,,,,,,,,,,,,,,,,,,,,
,,"[""period""]",0,56,0,56,0,1,60113374795b0d000a98b896,35,Mężczyzna,2022-06-04_08h18.08.101,task,2021.1.4,Win32,59.79073244,628b806c463b948bc644b84f,629af9128e5c974c5174547b,[0.28529999999702227],,,,,,,,,,,,,,,,,,,,,,,,,,,,,,,,,,,,,,,,,,,,,,,,,,,,,,,,,,,,,,,,,,,,,,,,,,,,,,,,,,,,,,,,,,,,,,,,,,,,,,,
,,"[""comma""]",0,57,0,57,0,1,60113374795b0d000a98b896,35,Mężczyzna,2022-06-04_08h18.08.101,task,2021.1.4,Win32,59.79073244,628b806c463b948bc644b84f,629af9128e5c974c5174547b,[0.18350000000000932],,,,,,,,,,,,,,,,,,,,,,,,,,,,,,,,,,,,,,,,,,,,,,,,,,,,,,,,,,,,,,,,,,,,,,,,,,,,,,,,,,,,,,,,,,,,,,,,,,,,,,,
,,"[""period""]",0,58,0,58,0,1,60113374795b0d000a98b896,35,Mężczyzna,2022-06-04_08h18.08.101,task,2021.1.4,Win32,59.79073244,628b806c463b948bc644b84f,629af9128e5c974c5174547b,[0.2669999999999959],,,,,,,,,,,,,,,,,,,,,,,,,,,,,,,,,,,,,,,,,,,,,,,,,,,,,,,,,,,,,,,,,,,,,,,,,,,,,,,,,,,,,,,,,,,,,,,,,,,,,,,
,,"[""comma""]",0,59,0,59,0,1,60113374795b0d000a98b896,35,Mężczyzna,2022-06-04_08h18.08.101,task,2021.1.4,Win32,59.79073244,628b806c463b948bc644b84f,629af9128e5c974c5174547b,[0.2827000000029898],,,,,,,,,,,,,,,,,,,,,,,,,,,,,,,,,,,,,,,,,,,,,,,,,,,,,,,,,,,,,,,,,,,,,,,,,,,,,,,,,,,,,,,,,,,,,,,,,,,,,,,
,,"[""period""]",0,60,0,60,0,1,60113374795b0d000a98b896,35,Mężczyzna,2022-06-04_08h18.08.101,task,2021.1.4,Win32,59.79073244,628b806c463b948bc644b84f,629af9128e5c974c5174547b,[0.07209999999403749],,,,,,,,,,,,,,,,,,,,,,,,,,,,,,,,,,,,,,,,,,,,,,,,,,,,,,,,,,,,,,,,,,,,,,,,,,,,,,,,,,,,,,,,,,,,,,,,,,,,,,,
,,"[""comma""]",0,61,0,61,0,1,60113374795b0d000a98b896,35,Mężczyzna,2022-06-04_08h18.08.101,task,2021.1.4,Win32,59.79073244,628b806c463b948bc644b84f,629af9128e5c974c5174547b,[0.16800000000000637],,,,,,,,,,,,,,,,,,,,,,,,,,,,,,,,,,,,,,,,,,,,,,,,,,,,,,,,,,,,,,,,,,,,,,,,,,,,,,,,,,,,,,,,,,,,,,,,,,,,,,,
,,"[""period""]",0,62,0,62,0,1,60113374795b0d000a98b896,35,Mężczyzna,2022-06-04_08h18.08.101,task,2021.1.4,Win32,59.79073244,628b806c463b948bc644b84f,629af9128e5c974c5174547b,[0.11760000000893456],,,,,,,,,,,,,,,,,,,,,,,,,,,,,,,,,,,,,,,,,,,,,,,,,,,,,,,,,,,,,,,,,,,,,,,,,,,,,,,,,,,,,,,,,,,,,,,,,,,,,,,
,,"[""comma""]",0,63,0,63,0,1,60113374795b0d000a98b896,35,Mężczyzna,2022-06-04_08h18.08.101,task,2021.1.4,Win32,59.79073244,628b806c463b948bc644b84f,629af9128e5c974c5174547b,[0.20349999999999113],,,,,,,,,,,,,,,,,,,,,,,,,,,,,,,,,,,,,,,,,,,,,,,,,,,,,,,,,,,,,,,,,,,,,,,,,,,,,,,,,,,,,,,,,,,,,,,,,,,,,,,
,,"[""period""]",0,64,0,64,0,1,60113374795b0d000a98b896,35,Mężczyzna,2022-06-04_08h18.08.101,task,2021.1.4,Win32,59.79073244,628b806c463b948bc644b84f,629af9128e5c974c5174547b,[0.23279999999701317],,,,,,,,,,,,,,,,,,,,,,,,,,,,,,,,,,,,,,,,,,,,,,,,,,,,,,,,,,,,,,,,,,,,,,,,,,,,,,,,,,,,,,,,,,,,,,,,,,,,,,,
,,"[""comma""]",0,65,0,65,0,1,60113374795b0d000a98b896,35,Mężczyzna,2022-06-04_08h18.08.101,task,2021.1.4,Win32,59.79073244,628b806c463b948bc644b84f,629af9128e5c974c5174547b,[0.4339999999999975],,,,,,,,,,,,,,,,,,,,,,,,,,,,,,,,,,,,,,,,,,,,,,,,,,,,,,,,,,,,,,,,,,,,,,,,,,,,,,,,,,,,,,,,,,,,,,,,,,,,,,,
,,"[""period""]",0,66,0,66,0,1,60113374795b0d000a98b896,35,Mężczyzna,2022-06-04_08h18.08.101,task,2021.1.4,Win32,59.79073244,628b806c463b948bc644b84f,629af9128e5c974c5174547b,[0.24970000000297432],,,,,,,,,,,,,,,,,,,,,,,,,,,,,,,,,,,,,,,,,,,,,,,,,,,,,,,,,,,,,,,,,,,,,,,,,,,,,,,,,,,,,,,,,,,,,,,,,,,,,,,
,,"[""comma""]",0,67,0,67,0,1,60113374795b0d000a98b896,35,Mężczyzna,2022-06-04_08h18.08.101,task,2021.1.4,Win32,59.79073244,628b806c463b948bc644b84f,629af9128e5c974c5174547b,[0.1150000000000091],,,,,,,,,,,,,,,,,,,,,,,,,,,,,,,,,,,,,,,,,,,,,,,,,,,,,,,,,,,,,,,,,,,,,,,,,,,,,,,,,,,,,,,,,,,,,,,,,,,,,,,
,,"[""period""]",0,68,0,68,0,1,60113374795b0d000a98b896,35,Mężczyzna,2022-06-04_08h18.08.101,task,2021.1.4,Win32,59.79073244,628b806c463b948bc644b84f,629af9128e5c974c5174547b,[0.1360000000000241],,,,,,,,,,,,,,,,,,,,,,,,,,,,,,,,,,,,,,,,,,,,,,,,,,,,,,,,,,,,,,,,,,,,,,,,,,,,,,,,,,,,,,,,,,,,,,,,,,,,,,,
,,"[""comma""]",0,69,0,69,0,1,60113374795b0d000a98b896,35,Mężczyzna,2022-06-04_08h18.08.101,task,2021.1.4,Win32,59.79073244,628b806c463b948bc644b84f,629af9128e5c974c5174547b,[0.3007999999970252],,,,,,,,,,,,,,,,,,,,,,,,,,,,,,,,,,,,,,,,,,,,,,,,,,,,,,,,,,,,,,,,,,,,,,,,,,,,,,,,,,,,,,,,,,,,,,,,,,,,,,,
,,"[""period""]",0,70,0,70,0,1,60113374795b0d000a98b896,35,Mężczyzna,2022-06-04_08h18.08.101,task,2021.1.4,Win32,59.79073244,628b806c463b948bc644b84f,629af9128e5c974c5174547b,[0.35249999999999204],,,,,,,,,,,,,,,,,,,,,,,,,,,,,,,,,,,,,,,,,,,,,,,,,,,,,,,,,,,,,,,,,,,,,,,,,,,,,,,,,,,,,,,,,,,,,,,,,,,,,,,
,,"[""comma""]",0,71,0,71,0,1,60113374795b0d000a98b896,35,Mężczyzna,2022-06-04_08h18.08.101,task,2021.1.4,Win32,59.79073244,628b806c463b948bc644b84f,629af9128e5c974c5174547b,[0.33870000000297296],,,,,,,,,,,,,,,,,,,,,,,,,,,,,,,,,,,,,,,,,,,,,,,,,,,,,,,,,,,,,,,,,,,,,,,,,,,,,,,,,,,,,,,,,,,,,,,,,,,,,,,
,,"[""period""]",0,72,0,72,0,1,60113374795b0d000a98b896,35,Mężczyzna,2022-06-04_08h18.08.101,task,2021.1.4,Win32,59.79073244,628b806c463b948bc644b84f,629af9128e5c974c5174547b,[0.23140000000594796],,,,,,,,,,,,,,,,,,,,,,,,,,,,,,,,,,,,,,,,,,,,,,,,,,,,,,,,,,,,,,,,,,,,,,,,,,,,,,,,,,,,,,,,,,,,,,,,,,,,,,,
,,"[""comma""]",0,73,0,73,0,1,60113374795b0d000a98b896,35,Mężczyzna,2022-06-04_08h18.08.101,task,2021.1.4,Win32,59.79073244,628b806c463b948bc644b84f,629af9128e5c974c5174547b,[-0.016099999994025893],,,,,,,,,,,,,,,,,,,,,,,,,,,,,,,,,,,,,,,,,,,,,,,,,,,,,,,,,,,,,,,,,,,,,,,,,,,,,,,,,,,,,,,,,,,,,,,,,,,,,,,
,,"[""period""]",0,74,0,74,0,1,60113374795b0d000a98b896,35,Mężczyzna,2022-06-04_08h18.08.101,task,2021.1.4,Win32,59.79073244,628b806c463b948bc644b84f,629af9128e5c974c5174547b,[0.28400000000002024],,,,,,,,,,,,,,,,,,,,,,,,,,,,,,,,,,,,,,,,,,,,,,,,,,,,,,,,,,,,,,,,,,,,,,,,,,,,,,,,,,,,,,,,,,,,,,,,,,,,,,,
,,"[""comma""]",0,75,0,75,0,1,60113374795b0d000a98b896,35,Mężczyzna,2022-06-04_08h18.08.101,task,2021.1.4,Win32,59.79073244,628b806c463b948bc644b84f,629af9128e5c974c5174547b,[0.3389000000059639],,,,,,,,,,,,,,,,,,,,,,,,,,,,,,,,,,,,,,,,,,,,,,,,,,,,,,,,,,,,,,,,,,,,,,,,,,,,,,,,,,,,,,,,,,,,,,,,,,,,,,,
,,"[""period""]",0,76,0,76,0,1,60113374795b0d000a98b896,35,Mężczyzna,2022-06-04_08h18.08.101,task,2021.1.4,Win32,59.79073244,628b806c463b948bc644b84f,629af9128e5c974c5174547b,[0.3490999999940527],,,,,,,,,,,,,,,,,,,,,,,,,,,,,,,,,,,,,,,,,,,,,,,,,,,,,,,,,,,,,,,,,,,,,,,,,,,,,,,,,,,,,,,,,,,,,,,,,,,,,,,
,,"[""comma"",""comma""]",0,77,0,77,0,1,60113374795b0d000a98b896,35,Mężczyzna,2022-06-04_08h18.08.101,task,2021.1.4,Win32,59.79073244,628b806c463b948bc644b84f,629af9128e5c974c5174547b,"[0.18149999999999977,0.265300000011905]",,,,,,,,,,,,,,,,,,,,,,,,,,,,,,,,,,,,,,,,,,,,,,,,,,,,,,,,,,,,,,,,,,,,,,,,,,,,,,,,,,,,,,,,,,,,,,,,,,,,,,,
,,"[""period""]",0,78,0,78,0,1,60113374795b0d000a98b896,35,Mężczyzna,2022-06-04_08h18.08.101,task,2021.1.4,Win32,59.79073244,628b806c463b948bc644b84f,629af9128e5c974c5174547b,[0.40129999999703614],,,,,,,,,,,,,,,,,,,,,,,,,,,,,,,,,,,,,,,,,,,,,,,,,,,,,,,,,,,,,,,,,,,,,,,,,,,,,,,,,,,,,,,,,,,,,,,,,,,,,,,
,,"[""comma""]",0,79,0,79,0,1,60113374795b0d000a98b896,35,Mężczyzna,2022-06-04_08h18.08.101,task,2021.1.4,Win32,59.79073244,628b806c463b948bc644b84f,629af9128e5c974c5174547b,[0.3159000000059109],,,,,,,,,,,,,,,,,,,,,,,,,,,,,,,,,,,,,,,,,,,,,,,,,,,,,,,,,,,,,,,,,,,,,,,,,,,,,,,,,,,,,,,,,,,,,,,,,,,,,,,
,,"[""period""]",0,80,0,80,0,1,60113374795b0d000a98b896,35,Mężczyzna,2022-06-04_08h18.08.101,task,2021.1.4,Win32,59.79073244,628b806c463b948bc644b84f,629af9128e5c974c5174547b,[0.3237000000029866],,,,,,,,,,,,,,,,,,,,,,,,,,,,,,,,,,,,,,,,,,,,,,,,,,,,,,,,,,,,,,,,,,,,,,,,,,,,,,,,,,,,,,,,,,,,,,,,,,,,,,,
,,,0,81,0,81,0,1,60113374795b0d000a98b896,35,Mężczyzna,2022-06-04_08h18.08.101,task,2021.1.4,Win32,59.79073244,628b806c463b948bc644b84f,629af9128e5c974c5174547b,,,,,,,,,,,,,,,,,,,,,,,,,,,,,,,,,,,,,,,,,,,,,,,,,,,,,,,,,,,,,,,,,,,,,,,,,,,,,,,,,,,,,,,,,,,,,,,,,,,,,,,,
,,"[""comma""]",0,82,0,82,0,1,60113374795b0d000a98b896,35,Mężczyzna,2022-06-04_08h18.08.101,task,2021.1.4,Win32,59.79073244,628b806c463b948bc644b84f,629af9128e5c974c5174547b,[0.015799999997000214],,,,,,,,,,,,,,,,,,,,,,,,,,,,,,,,,,,,,,,,,,,,,,,,,,,,,,,,,,,,,,,,,,,,,,,,,,,,,,,,,,,,,,,,,,,,,,,,,,,,,,,
,,"[""period""]",0,83,0,83,0,1,60113374795b0d000a98b896,35,Mężczyzna,2022-06-04_08h18.08.101,task,2021.1.4,Win32,59.79073244,628b806c463b948bc644b84f,629af9128e5c974c5174547b,[0.17420000000294067],,,,,,,,,,,,,,,,,,,,,,,,,,,,,,,,,,,,,,,,,,,,,,,,,,,,,,,,,,,,,,,,,,,,,,,,,,,,,,,,,,,,,,,,,,,,,,,,,,,,,,,
,,"[""comma""]",0,84,0,84,0,1,60113374795b0d000a98b896,35,Mężczyzna,2022-06-04_08h18.08.101,task,2021.1.4,Win32,59.79073244,628b806c463b948bc644b84f,629af9128e5c974c5174547b,[0.2987000000029525],,,,,,,,,,,,,,,,,,,,,,,,,,,,,,,,,,,,,,,,,,,,,,,,,,,,,,,,,,,,,,,,,,,,,,,,,,,,,,,,,,,,,,,,,,,,,,,,,,,,,,,
,,"[""period""]",0,85,0,85,0,1,60113374795b0d000a98b896,35,Mężczyzna,2022-06-04_08h18.08.101,task,2021.1.4,Win32,59.79073244,628b806c463b948bc644b84f,629af9128e5c974c5174547b,[0.3639999999999759],,,,,,,,,,,,,,,,,,,,,,,,,,,,,,,,,,,,,,,,,,,,,,,,,,,,,,,,,,,,,,,,,,,,,,,,,,,,,,,,,,,,,,,,,,,,,,,,,,,,,,,
,,"[""comma""]",0,86,0,86,0,1,60113374795b0d000a98b896,35,Mężczyzna,2022-06-04_08h18.08.101,task,2021.1.4,Win32,59.79073244,628b806c463b948bc644b84f,629af9128e5c974c5174547b,[0.27360000000891205],,,,,,,,,,,,,,,,,,,,,,,,,,,,,,,,,,,,,,,,,,,,,,,,,,,,,,,,,,,,,,,,,,,,,,,,,,,,,,,,,,,,,,,,,,,,,,,,,,,,,,,
,,"[""period""]",0,87,0,87,0,1,60113374795b0d000a98b896,35,Mężczyzna,2022-06-04_08h18.08.101,task,2021.1.4,Win32,59.79073244,628b806c463b948bc644b84f,629af9128e5c974c5174547b,[0.26499999999998636],,,,,,,,,,,,,,,,,,,,,,,,,,,,,,,,,,,,,,,,,,,,,,,,,,,,,,,,,,,,,,,,,,,,,,,,,,,,,,,,,,,,,,,,,,,,,,,,,,,,,,,
,,"[""comma""]",0,88,0,88,0,1,60113374795b0d000a98b896,35,Mężczyzna,2022-06-04_08h18.08.101,task,2021.1.4,Win32,59.79073244,628b806c463b948bc644b84f,629af9128e5c974c5174547b,[0.24850000000003547],,,,,,,,,,,,,,,,,,,,,,,,,,,,,,,,,,,,,,,,,,,,,,,,,,,,,,,,,,,,,,,,,,,,,,,,,,,,,,,,,,,,,,,,,,,,,,,,,,,,,,,
,,"[""period""]",0,89,0,89,0,1,60113374795b0d000a98b896,35,Mężczyzna,2022-06-04_08h18.08.101,task,2021.1.4,Win32,59.79073244,628b806c463b948bc644b84f,629af9128e5c974c5174547b,[0.13379999999705205],,,,,,,,,,,,,,,,,,,,,,,,,,,,,,,,,,,,,,,,,,,,,,,,,,,,,,,,,,,,,,,,,,,,,,,,,,,,,,,,,,,,,,,,,,,,,,,,,,,,,,,
,,"[""comma""]",0,90,0,90,0,1,60113374795b0d000a98b896,35,Mężczyzna,2022-06-04_08h18.08.101,task,2021.1.4,Win32,59.79073244,628b806c463b948bc644b84f,629af9128e5c974c5174547b,[0.2982000000029643],,,,,,,,,,,,,,,,,,,,,,,,,,,,,,,,,,,,,,,,,,,,,,,,,,,,,,,,,,,,,,,,,,,,,,,,,,,,,,,,,,,,,,,,,,,,,,,,,,,,,,,
,,"[""period""]",0,91,0,91,0,1,60113374795b0d000a98b896,35,Mężczyzna,2022-06-04_08h18.08.101,task,2021.1.4,Win32,59.79073244,628b806c463b948bc644b84f,629af9128e5c974c5174547b,[0.43549999999999045],,,,,,,,,,,,,,,,,,,,,,,,,,,,,,,,,,,,,,,,,,,,,,,,,,,,,,,,,,,,,,,,,,,,,,,,,,,,,,,,,,,,,,,,,,,,,,,,,,,,,,,
,,"[""comma""]",0,92,0,92,0,1,60113374795b0d000a98b896,35,Mężczyzna,2022-06-04_08h18.08.101,task,2021.1.4,Win32,59.79073244,628b806c463b948bc644b84f,629af9128e5c974c5174547b,[0.6855000000000473],,,,,,,,,,,,,,,,,,,,,,,,,,,,,,,,,,,,,,,,,,,,,,,,,,,,,,,,,,,,,,,,,,,,,,,,,,,,,,,,,,,,,,,,,,,,,,,,,,,,,,,
,,,0,93,0,93,0,1,60113374795b0d000a98b896,35,Mężczyzna,2022-06-04_08h18.08.101,task,2021.1.4,Win32,59.79073244,628b806c463b948bc644b84f,629af9128e5c974c5174547b,,,,,,,,,,,,,,,,,,,,,,,,,,,,,,,,,,,,,,,,,,,,,,,,,,,,,,,,,,,,,,,,,,,,,,,,,,,,,,,,,,,,,,,,,,,,,,,,,,,,,,,,
,,"[""period""]",0,94,0,94,0,1,60113374795b0d000a98b896,35,Mężczyzna,2022-06-04_08h18.08.101,task,2021.1.4,Win32,59.79073244,628b806c463b948bc644b84f,629af9128e5c974c5174547b,[0.29029999999704614],,,,,,,,,,,,,,,,,,,,,,,,,,,,,,,,,,,,,,,,,,,,,,,,,,,,,,,,,,,,,,,,,,,,,,,,,,,,,,,,,,,,,,,,,,,,,,,,,,,,,,,
,,"[""comma""]",0,95,0,95,0,1,60113374795b0d000a98b896,35,Mężczyzna,2022-06-04_08h18.08.101,task,2021.1.4,Win32,59.79073244,628b806c463b948bc644b84f,629af9128e5c974c5174547b,[0.3154000000059227],,,,,,,,,,,,,,,,,,,,,,,,,,,,,,,,,,,,,,,,,,,,,,,,,,,,,,,,,,,,,,,,,,,,,,,,,,,,,,,,,,,,,,,,,,,,,,,,,,,,,,,
,,"[""comma""]",0,96,0,96,0,1,60113374795b0d000a98b896,35,Mężczyzna,2022-06-04_08h18.08.101,task,2021.1.4,Win32,59.79073244,628b806c463b948bc644b84f,629af9128e5c974c5174547b,[0.284100000008948],,,,,,,,,,,,,,,,,,,,,,,,,,,,,,,,,,,,,,,,,,,,,,,,,,,,,,,,,,,,,,,,,,,,,,,,,,,,,,,,,,,,,,,,,,,,,,,,,,,,,,,
,,"[""comma""]",0,97,0,97,0,1,60113374795b0d000a98b896,35,Mężczyzna,2022-06-04_08h18.08.101,task,2021.1.4,Win32,59.79073244,628b806c463b948bc644b84f,629af9128e5c974c5174547b,[0.28160000000895025],,,,,,,,,,,,,,,,,,,,,,,,,,,,,,,,,,,,,,,,,,,,,,,,,,,,,,,,,,,,,,,,,,,,,,,,,,,,,,,,,,,,,,,,,,,,,,,,,,,,,,,
,,"[""comma""]",0,98,0,98,0,1,60113374795b0d000a98b896,35,Mężczyzna,2022-06-04_08h18.08.101,task,2021.1.4,Win32,59.79073244,628b806c463b948bc644b84f,629af9128e5c974c5174547b,[0.29519999998808544],,,,,,,,,,,,,,,,,,,,,,,,,,,,,,,,,,,,,,,,,,,,,,,,,,,,,,,,,,,,,,,,,,,,,,,,,,,,,,,,,,,,,,,,,,,,,,,,,,,,,,,
,,"[""comma""]",0,99,0,99,0,1,60113374795b0d000a98b896,35,Mężczyzna,2022-06-04_08h18.08.101,task,2021.1.4,Win32,59.79073244,628b806c463b948bc644b84f,629af9128e5c974c5174547b,[0.2982999999970275],,,,,,,,,,,,,,,,,,,,,,,,,,,,,,,,,,,,,,,,,,,,,,,,,,,,,,,,,,,,,,,,,,,,,,,,,,,,,,,,,,,,,,,,,,,,,,,,,,,,,,,
,,"[""comma""]",0,100,0,100,0,1,60113374795b0d000a98b896,35,Mężczyzna,2022-06-04_08h18.08.101,task,2021.1.4,Win32,59.79073244,628b806c463b948bc644b84f,629af9128e5c974c5174547b,[0.3171999999880768],,,,,,,,,,,,,,,,,,,,,,,,,,,,,,,,,,,,,,,,,,,,,,,,,,,,,,,,,,,,,,,,,,,,,,,,,,,,,,,,,,,,,,,,,,,,,,,,,,,,,,,
,,"[""period""]",0,101,0,101,0,1,60113374795b0d000a98b896,35,Mężczyzna,2022-06-04_08h18.08.101,task,2021.1.4,Win32,59.79073244,628b806c463b948bc644b84f,629af9128e5c974c5174547b,[0.285000000000025],,,,,,,,,,,,,,,,,,,,,,,,,,,,,,,,,,,,,,,,,,,,,,,,,,,,,,,,,,,,,,,,,,,,,,,,,,,,,,,,,,,,,,,,,,,,,,,,,,,,,,,
,,"[""period""]",0,102,0,102,0,1,60113374795b0d000a98b896,35,Mężczyzna,2022-06-04_08h18.08.101,task,2021.1.4,Win32,59.79073244,628b806c463b948bc644b84f,629af9128e5c974c5174547b,[0.31939999999104884],,,,,,,,,,,,,,,,,,,,,,,,,,,,,,,,,,,,,,,,,,,,,,,,,,,,,,,,,,,,,,,,,,,,,,,,,,,,,,,,,,,,,,,,,,,,,,,,,,,,,,,
,,"[""period""]",0,103,0,103,0,1,60113374795b0d000a98b896,35,Mężczyzna,2022-06-04_08h18.08.101,task,2021.1.4,Win32,59.79073244,628b806c463b948bc644b84f,629af9128e5c974c5174547b,[0.29939999999106703],,,,,,,,,,,,,,,,,,,,,,,,,,,,,,,,,,,,,,,,,,,,,,,,,,,,,,,,,,,,,,,,,,,,,,,,,,,,,,,,,,,,,,,,,,,,,,,,,,,,,,,
,,"[""period""]",0,104,0,104,0,1,60113374795b0d000a98b896,35,Mężczyzna,2022-06-04_08h18.08.101,task,2021.1.4,Win32,59.79073244,628b806c463b948bc644b84f,629af9128e5c974c5174547b,[0.3123000000119305],,,,,,,,,,,,,,,,,,,,,,,,,,,,,,,,,,,,,,,,,,,,,,,,,,,,,,,,,,,,,,,,,,,,,,,,,,,,,,,,,,,,,,,,,,,,,,,,,,,,,,,
,,"[""period""]",0,105,0,105,0,1,60113374795b0d000a98b896,35,Mężczyzna,2022-06-04_08h18.08.101,task,2021.1.4,Win32,59.79073244,628b806c463b948bc644b84f,629af9128e5c974c5174547b,[0.24849999999997863],,,,,,,,,,,,,,,,,,,,,,,,,,,,,,,,,,,,,,,,,,,,,,,,,,,,,,,,,,,,,,,,,,,,,,,,,,,,,,,,,,,,,,,,,,,,,,,,,,,,,,,
,,"[""comma""]",0,106,0,106,0,1,60113374795b0d000a98b896,35,Mężczyzna,2022-06-04_08h18.08.101,task,2021.1.4,Win32,59.79073244,628b806c463b948bc644b84f,629af9128e5c974c5174547b,[0.305499999999995],,,,,,,,,,,,,,,,,,,,,,,,,,,,,,,,,,,,,,,,,,,,,,,,,,,,,,,,,,,,,,,,,,,,,,,,,,,,,,,,,,,,,,,,,,,,,,,,,,,,,,,
,,"[""period""]",0,107,0,107,0,1,60113374795b0d000a98b896,35,Mężczyzna,2022-06-04_08h18.08.101,task,2021.1.4,Win32,59.79073244,628b806c463b948bc644b84f,629af9128e5c974c5174547b,[0.31470000000297205],,,,,,,,,,,,,,,,,,,,,,,,,,,,,,,,,,,,,,,,,,,,,,,,,,,,,,,,,,,,,,,,,,,,,,,,,,,,,,,,,,,,,,,,,,,,,,,,,,,,,,,
,,"[""period""]",0,108,0,108,0,1,60113374795b0d000a98b896,35,Mężczyzna,2022-06-04_08h18.08.101,task,2021.1.4,Win32,59.79073244,628b806c463b948bc644b84f,629af9128e5c974c5174547b,[0.2682000000029916],,,,,,,,,,,,,,,,,,,,,,,,,,,,,,,,,,,,,,,,,,,,,,,,,,,,,,,,,,,,,,,,,,,,,,,,,,,,,,,,,,,,,,,,,,,,,,,,,,,,,,,
,,"[""comma""]",0,109,0,109,0,1,60113374795b0d000a98b896,35,Mężczyzna,2022-06-04_08h18.08.101,task,2021.1.4,Win32,59.79073244,628b806c463b948bc644b84f,629af9128e5c974c5174547b,[0.3050000000000068],,,,,,,,,,,,,,,,,,,,,,,,,,,,,,,,,,,,,,,,,,,,,,,,,,,,,,,,,,,,,,,,,,,,,,,,,,,,,,,,,,,,,,,,,,,,,,,,,,,,,,,
,,"[""comma""]",0,110,0,110,0,1,60113374795b0d000a98b896,35,Mężczyzna,2022-06-04_08h18.08.101,task,2021.1.4,Win32,59.79073244,628b806c463b948bc644b84f,629af9128e5c974c5174547b,[0.2847000000029425],,,,,,,,,,,,,,,,,,,,,,,,,,,,,,,,,,,,,,,,,,,,,,,,,,,,,,,,,,,,,,,,,,,,,,,,,,,,,,,,,,,,,,,,,,,,,,,,,,,,,,,
,,"[""period""]",0,111,0,111,0,1,60113374795b0d000a98b896,35,Mężczyzna,2022-06-04_08h18.08.101,task,2021.1.4,Win32,59.79073244,628b806c463b948bc644b84f,629af9128e5c974c5174547b,[0.20020000000300797],,,,,,,,,,,,,,,,,,,,,,,,,,,,,,,,,,,,,,,,,,,,,,,,,,,,,,,,,,,,,,,,,,,,,,,,,,,,,,,,,,,,,,,,,,,,,,,,,,,,,,,
,,"[""period""]",0,112,0,112,0,1,60113374795b0d000a98b896,35,Mężczyzna,2022-06-04_08h18.08.101,task,2021.1.4,Win32,59.79073244,628b806c463b948bc644b84f,629af9128e5c974c5174547b,[0.26590000000595637],,,,,,,,,,,,,,,,,,,,,,,,,,,,,,,,,,,,,,,,,,,,,,,,,,,,,,,,,,,,,,,,,,,,,,,,,,,,,,,,,,,,,,,,,,,,,,,,,,,,,,,
,,"[""comma""]",0,113,0,113,0,1,60113374795b0d000a98b896,35,Mężczyzna,2022-06-04_08h18.08.101,task,2021.1.4,Win32,59.79073244,628b806c463b948bc644b84f,629af9128e5c974c5174547b,[0.30229999999698975],,,,,,,,,,,,,,,,,,,,,,,,,,,,,,,,,,,,,,,,,,,,,,,,,,,,,,,,,,,,,,,,,,,,,,,,,,,,,,,,,,,,,,,,,,,,,,,,,,,,,,,
,,"[""comma""]",0,114,0,114,0,1,60113374795b0d000a98b896,35,Mężczyzna,2022-06-04_08h18.08.101,task,2021.1.4,Win32,59.79073244,628b806c463b948bc644b84f,629af9128e5c974c5174547b,[0.3515000000000441],,,,,,,,,,,,,,,,,,,,,,,,,,,,,,,,,,,,,,,,,,,,,,,,,,,,,,,,,,,,,,,,,,,,,,,,,,,,,,,,,,,,,,,,,,,,,,,,,,,,,,,
,,"[""period""]",0,115,0,115,0,1,60113374795b0d000a98b896,35,Mężczyzna,2022-06-04_08h18.08.101,task,2021.1.4,Win32,59.79073244,628b806c463b948bc644b84f,629af9128e5c974c5174547b,[0.3012999999970134],,,,,,,,,,,,,,,,,,,,,,,,,,,,,,,,,,,,,,,,,,,,,,,,,,,,,,,,,,,,,,,,,,,,,,,,,,,,,,,,,,,,,,,,,,,,,,,,,,,,,,,
,,"[""period""]",0,116,0,116,0,1,60113374795b0d000a98b896,35,Mężczyzna,2022-06-04_08h18.08.101,task,2021.1.4,Win32,59.79073244,628b806c463b948bc644b84f,629af9128e5c974c5174547b,[0.28320000000297796],,,,,,,,,,,,,,,,,,,,,,,,,,,,,,,,,,,,,,,,,,,,,,,,,,,,,,,,,,,,,,,,,,,,,,,,,,,,,,,,,,,,,,,,,,,,,,,,,,,,,,,
,,"[""comma""]",0,117,0,117,0,1,60113374795b0d000a98b896,35,Mężczyzna,2022-06-04_08h18.08.101,task,2021.1.4,Win32,59.79073244,628b806c463b948bc644b84f,629af9128e5c974c5174547b,[0.298099999994065],,,,,,,,,,,,,,,,,,,,,,,,,,,,,,,,,,,,,,,,,,,,,,,,,,,,,,,,,,,,,,,,,,,,,,,,,,,,,,,,,,,,,,,,,,,,,,,,,,,,,,,
,,"[""comma""]",0,118,0,118,0,1,60113374795b0d000a98b896,35,Mężczyzna,2022-06-04_08h18.08.101,task,2021.1.4,Win32,59.79073244,628b806c463b948bc644b84f,629af9128e5c974c5174547b,[0.26300000000003365],,,,,,,,,,,,,,,,,,,,,,,,,,,,,,,,,,,,,,,,,,,,,,,,,,,,,,,,,,,,,,,,,,,,,,,,,,,,,,,,,,,,,,,,,,,,,,,,,,,,,,,
,,"[""period""]",0,119,0,119,0,1,60113374795b0d000a98b896,35,Mężczyzna,2022-06-04_08h18.08.101,task,2021.1.4,Win32,59.79073244,628b806c463b948bc644b84f,629af9128e5c974c5174547b,[0.31340000000597],,,,,,,,,,,,,,,,,,,,,,,,,,,,,,,,,,,,,,,,,,,,,,,,,,,,,,,,,,,,,,,,,,,,,,,,,,,,,,,,,,,,,,,,,,,,,,,,,,,,,,,
,,,,,,,,,60113374795b0d000a98b896,35,Mężczyzna,2022-06-04_08h18.08.101,task,2021.1.4,Win32,59.79073244,628b806c463b948bc644b84f,629af9128e5c974c5174547b,,space,40.8838,space,8.069,0,0,0,0,1,X V Q F H G B L J M P D K C T S W R N Z,,,,,,,,,,,,,,,,,,,,,,,,,,,,,,,,,,,,,,,,,,,,,,,,,,,,,,,,,,,,,,,,,,,,,,,,,,,,,,,,,,,,,,,,,,,,,
,,,,,,,,,60113374795b0d000a98b896,35,Mężczyzna,2022-06-04_08h18.08.101,task,2021.1.4,Win32,59.79073244,628b806c463b948bc644b84f,629af9128e5c974c5174547b,,,,,,1,0,1,0,1,X V Q F H G B L J M P D K C T S W R N Z,,,,,,,,,,,,,,,,,,,,,,,,,,,,,,,,,,,,,,,,,,,,,,,,,,,,,,,,,,,,,,,,,,,,,,,,,,,,,,,,,,,,,,,,,,,,,
,,,,,,,,,60113374795b0d000a98b896,35,Mężczyzna,2022-06-04_08h18.08.101,task,2021.1.4,Win32,59.79073244,628b806c463b948bc644b84f,629af9128e5c974c5174547b,,,,,,,,,,,,zx,"[""z"",""x""]","[2.792500000000018,3.155200000002992,5.002400000005991]",1,ZX,0,0,0,0,1,,,,,,,,,,,,,,,,,,,,,,,,,,,,,,,,,,,,,,,,,,,,,,,,,,,,,,,,,,,,,,,,,,,,,,,,,,,,,,,,,,,
,,,,,,,,,60113374795b0d000a98b896,35,Mężczyzna,2022-06-04_08h18.08.101,task,2021.1.4,Win32,59.79073244,628b806c463b948bc644b84f,629af9128e5c974c5174547b,,,,,,0,0,0,0,1,X V Q F H G B L J M P D K C T S W R N Z,,,,,,,,,,,,,,,,,,,,,,,,,,,,,,,,,,,,,,,,,,,,,,,,,,,,,,,,,,,,,,,,,,,,,,,,,,,,,,,,,,,,,,,,,,,,,
,,,,,,,,,60113374795b0d000a98b896,35,Mężczyzna,2022-06-04_08h18.08.101,task,2021.1.4,Win32,59.79073244,628b806c463b948bc644b84f,629af9128e5c974c5174547b,,,,,,1,0,1,0,1,X V Q F H G B L J M P D K C T S W R N Z,,,,,,,,,,,,,,,,,,,,,,,,,,,,,,,,,,,,,,,,,,,,,,,,,,,,,,,,,,,,,,,,,,,,,,,,,,,,,,,,,,,,,,,,,,,,,
,,,,,,,,,60113374795b0d000a98b896,35,Mężczyzna,2022-06-04_08h18.08.101,task,2021.1.4,Win32,59.79073244,628b806c463b948bc644b84f,629af9128e5c974c5174547b,,,,,,,,,,,,dc,"[""d"",""c""]","[1.497799999997028,1.7547000000029698,2.2462000000029434]",1,DC,1,0,1,0,1,,,,,,,,,,,,,,,,,,,,,,,,,,,,,,,,,,,,,,,,,,,,,,,,,,,,,,,,,,,,,,,,,,,,,,,,,,,,,,,,,,,
,,,,,,,,,60113374795b0d000a98b896,35,Mężczyzna,2022-06-04_08h18.08.101,task,2021.1.4,Win32,59.79073244,628b806c463b948bc644b84f,629af9128e5c974c5174547b,,,,,,0,0,0,0,1,X V Q F H G B L J M P D K C T S W R N Z,,,,,,,,,,,,,,,,,,,,,,,,,,,,,,,,,,,,,,,,,,,,,,,,,,,,,,,,,,,,,,,,,,,,,,,,,,,,,,,,,,,,,,,,,,,,,
,,,,,,,,,60113374795b0d000a98b896,35,Mężczyzna,2022-06-04_08h18.08.101,task,2021.1.4,Win32,59.79073244,628b806c463b948bc644b84f,629af9128e5c974c5174547b,,,,,,1,0,1,0,1,X V Q F H G B L J M P D K C T S W R N Z,,,,,,,,,,,,,,,,,,,,,,,,,,,,,,,,,,,,,,,,,,,,,,,,,,,,,,,,,,,,,,,,,,,,,,,,,,,,,,,,,,,,,,,,,,,,,
,,,,,,,,,60113374795b0d000a98b896,35,Mężczyzna,2022-06-04_08h18.08.101,task,2021.1.4,Win32,59.79073244,628b806c463b948bc644b84f,629af9128e5c974c5174547b,,,,,,2,0,2,0,1,X V Q F H G B L J M P D K C T S W R N Z,,,,,,,,,,,,,,,,,,,,,,,,,,,,,,,,,,,,,,,,,,,,,,,,,,,,,,,,,,,,,,,,,,,,,,,,,,,,,,,,,,,,,,,,,,,,,
,,,,,,,,,60113374795b0d000a98b896,35,Mężczyzna,2022-06-04_08h18.08.101,task,2021.1.4,Win32,59.79073244,628b806c463b948bc644b84f,629af9128e5c974c5174547b,,,,,,,,,,,,rgz,"[""r"",""g"",""z""]","[1.140699999988101,1.441399999991063,1.9686999999881323,2.833599999994078]",1,RGZ,2,0,2,0,1,,,,,,,,,,,,,,,,,,,,,,,,,,,,,,,,,,,,,,,,,,,,,,,,,,,,,,,,,,,,,,,,,,,,,,,,,,,,,,,,,,,
,,,,,,,,,60113374795b0d000a98b896,35,Mężczyzna,2022-06-04_08h18.08.101,task,2021.1.4,Win32,59.79073244,628b806c463b948bc644b84f,629af9128e5c974c5174547b,,,,,,0,0,0,0,1,X V Q F H G B L J M P D K C T S W R N Z,,,,,,,,,,,,,,,,,,,,,,,,,,,,,,,,,,,,,,,,,,,,,,,,,,,,,,,,,,,,,,,,,,,,,,,,,,,,,,,,,,,,,,,,,,,,,
,,,,,,,,,60113374795b0d000a98b896,35,Mężczyzna,2022-06-04_08h18.08.101,task,2021.1.4,Win32,59.79073244,628b806c463b948bc644b84f,629af9128e5c974c5174547b,,,,,,1,0,1,0,1,X V Q F H G B L J M P D K C T S W R N Z,,,,,,,,,,,,,,,,,,,,,,,,,,,,,,,,,,,,,,,,,,,,,,,,,,,,,,,,,,,,,,,,,,,,,,,,,,,,,,,,,,,,,,,,,,,,,
,,,,,,,,,60113374795b0d000a98b896,35,Mężczyzna,2022-06-04_08h18.08.101,task,2021.1.4,Win32,59.79073244,628b806c463b948bc644b84f,629af9128e5c974c5174547b,,,,,,2,0,2,0,1,X V Q F H G B L J M P D K C T S W R N Z,,,,,,,,,,,,,,,,,,,,,,,,,,,,,,,,,,,,,,,,,,,,,,,,,,,,,,,,,,,,,,,,,,,,,,,,,,,,,,,,,,,,,,,,,,,,,
,,,,,,,,,60113374795b0d000a98b896,35,Mężczyzna,2022-06-04_08h18.08.101,task,2021.1.4,Win32,59.79073244,628b806c463b948bc644b84f,629af9128e5c974c5174547b,,,,,,,,,,,,dtg,"[""d"",""t"",""g""]","[1.6932999999970093,2.0137999999969907,2.345299999996996,2.8118999999910557]",1,DTG,3,0,3,0,1,,,,,,,,,,,,,,,,,,,,,,,,,,,,,,,,,,,,,,,,,,,,,,,,,,,,,,,,,,,,,,,,,,,,,,,,,,,,,,,,,,,
,,,,,,,,,60113374795b0d000a98b896,35,Mężczyzna,2022-06-04_08h18.08.101,task,2021.1.4,Win32,59.79073244,628b806c463b948bc644b84f,629af9128e5c974c5174547b,,,,,,0,0,0,0,1,X V Q F H G B L J M P D K C T S W R N Z,,,,,,,,,,,,,,,,,,,,,,,,,,,,,,,,,,,,,,,,,,,,,,,,,,,,,,,,,,,,,,,,,,,,,,,,,,,,,,,,,,,,,,,,,,,,,
,,,,,,,,,60113374795b0d000a98b896,35,Mężczyzna,2022-06-04_08h18.08.101,task,2021.1.4,Win32,59.79073244,628b806c463b948bc644b84f,629af9128e5c974c5174547b,,,,,,1,0,1,0,1,X V Q F H G B L J M P D K C T S W R N Z,,,,,,,,,,,,,,,,,,,,,,,,,,,,,,,,,,,,,,,,,,,,,,,,,,,,,,,,,,,,,,,,,,,,,,,,,,,,,,,,,,,,,,,,,,,,,
,,,,,,,,,60113374795b0d000a98b896,35,Mężczyzna,2022-06-04_08h18.08.101,task,2021.1.4,Win32,59.79073244,628b806c463b948bc644b84f,629af9128e5c974c5174547b,,,,,,2,0,2,0,1,X V Q F H G B L J M P D K C T S W R N Z,,,,,,,,,,,,,,,,,,,,,,,,,,,,,,,,,,,,,,,,,,,,,,,,,,,,,,,,,,,,,,,,,,,,,,,,,,,,,,,,,,,,,,,,,,,,,
,,,,,,,,,60113374795b0d000a98b896,35,Mężczyzna,2022-06-04_08h18.08.101,task,2021.1.4,Win32,59.79073244,628b806c463b948bc644b84f,629af9128e5c974c5174547b,,,,,,3,0,3,0,1,X V Q F H G B L J M P D K C T S W R N Z,,,,,,,,,,,,,,,,,,,,,,,,,,,,,,,,,,,,,,,,,,,,,,,,,,,,,,,,,,,,,,,,,,,,,,,,,,,,,,,,,,,,,,,,,,,,,
,,,,,,,,,60113374795b0d000a98b896,35,Mężczyzna,2022-06-04_08h18.08.101,task,2021.1.4,Win32,59.79073244,628b806c463b948bc644b84f,629af9128e5c974c5174547b,,,,,,,,,,,,hzn,"[""h"",""z"",""n""]","[0.5972999999970057,1.232099999994034,1.6510000000000105,2.2337000000029548]",0,HZNK,4,0,4,0,1,,,,,,,,,,,,,,,,,,,,,,,,,,,,,,,,,,,,,,,,,,,,,,,,,,,,,,,,,,,,,,,,,,,,,,,,,,,,,,,,,,,
,,,,,,,,,60113374795b0d000a98b896,35,Mężczyzna,2022-06-04_08h18.08.101,task,2021.1.4,Win32,59.79073244,628b806c463b948bc644b84f,629af9128e5c974c5174547b,,,,,,0,0,0,0,1,X V Q F H G B L J M P D K C T S W R N Z,,,,,,,,,,,,,,,,,,,,,,,,,,,,,,,,,,,,,,,,,,,,,,,,,,,,,,,,,,,,,,,,,,,,,,,,,,,,,,,,,,,,,,,,,,,,,
,,,,,,,,,60113374795b0d000a98b896,35,Mężczyzna,2022-06-04_08h18.08.101,task,2021.1.4,Win32,59.79073244,628b806c463b948bc644b84f,629af9128e5c974c5174547b,,,,,,1,0,1,0,1,X V Q F H G B L J M P D K C T S W R N Z,,,,,,,,,,,,,,,,,,,,,,,,,,,,,,,,,,,,,,,,,,,,,,,,,,,,,,,,,,,,,,,,,,,,,,,,,,,,,,,,,,,,,,,,,,,,,
,,,,,,,,,60113374795b0d000a98b896,35,Mężczyzna,2022-06-04_08h18.08.101,task,2021.1.4,Win32,59.79073244,628b806c463b948bc644b84f,629af9128e5c974c5174547b,,,,,,2,0,2,0,1,X V Q F H G B L J M P D K C T S W R N Z,,,,,,,,,,,,,,,,,,,,,,,,,,,,,,,,,,,,,,,,,,,,,,,,,,,,,,,,,,,,,,,,,,,,,,,,,,,,,,,,,,,,,,,,,,,,,
,,,,,,,,,60113374795b0d000a98b896,35,Mężczyzna,2022-06-04_08h18.08.101,task,2021.1.4,Win32,59.79073244,628b806c463b948bc644b84f,629af9128e5c974c5174547b,,,,,,3,0,3,0,1,X V Q F H G B L J M P D K C T S W R N Z,,,,,,,,,,,,,,,,,,,,,,,,,,,,,,,,,,,,,,,,,,,,,,,,,,,,,,,,,,,,,,,,,,,,,,,,,,,,,,,,,,,,,,,,,,,,,
,,,,,,,,,60113374795b0d000a98b896,35,Mężczyzna,2022-06-04_08h18.08.101,task,2021.1.4,Win32,59.79073244,628b806c463b948bc644b84f,629af9128e5c974c5174547b,,,,,,,,,,,,srlp,"[""s"",""r"",""l"",""p""]","[1.0442999999970084,1.3792000000029816,1.8058999999910839,2.1413999999910516,2.5627999999970257]",1,SRLP,5,0,5,0,1,,,,,,,,,,,,,,,,,,,,,,,,,,,,,,,,,,,,,,,,,,,,,,,,,,,,,,,,,,,,,,,,,,,,,,,,,,,,,,,,,,,
,,,,,,,,,60113374795b0d000a98b896,35,Mężczyzna,2022-06-04_08h18.08.101,task,2021.1.4,Win32,59.79073244,628b806c463b948bc644b84f,629af9128e5c974c5174547b,,,,,,0,0,0,0,1,X V Q F H G B L J M P D K C T S W R N Z,,,,,,,,,,,,,,,,,,,,,,,,,,,,,,,,,,,,,,,,,,,,,,,,,,,,,,,,,,,,,,,,,,,,,,,,,,,,,,,,,,,,,,,,,,,,,
,,,,,,,,,60113374795b0d000a98b896,35,Mężczyzna,2022-06-04_08h18.08.101,task,2021.1.4,Win32,59.79073244,628b806c463b948bc644b84f,629af9128e5c974c5174547b,,,,,,1,0,1,0,1,X V Q F H G B L J M P D K C T S W R N Z,,,,,,,,,,,,,,,,,,,,,,,,,,,,,,,,,,,,,,,,,,,,,,,,,,,,,,,,,,,,,,,,,,,,,,,,,,,,,,,,,,,,,,,,,,,,,
,,,,,,,,,60113374795b0d000a98b896,35,Mężczyzna,2022-06-04_08h18.08.101,task,2021.1.4,Win32,59.79073244,628b806c463b948bc644b84f,629af9128e5c974c5174547b,,,,,,2,0,2,0,1,X V Q F H G B L J M P D K C T S W R N Z,,,,,,,,,,,,,,,,,,,,,,,,,,,,,,,,,,,,,,,,,,,,,,,,,,,,,,,,,,,,,,,,,,,,,,,,,,,,,,,,,,,,,,,,,,,,,
,,,,,,,,,60113374795b0d000a98b896,35,Mężczyzna,2022-06-04_08h18.08.101,task,2021.1.4,Win32,59.79073244,628b806c463b948bc644b84f,629af9128e5c974c5174547b,,,,,,3,0,3,0,1,X V Q F H G B L J M P D K C T S W R N Z,,,,,,,,,,,,,,,,,,,,,,,,,,,,,,,,,,,,,,,,,,,,,,,,,,,,,,,,,,,,,,,,,,,,,,,,,,,,,,,,,,,,,,,,,,,,,
,,,,,,,,,60113374795b0d000a98b896,35,Mężczyzna,2022-06-04_08h18.08.101,task,2021.1.4,Win32,59.79073244,628b806c463b948bc644b84f,629af9128e5c974c5174547b,,,,,,,,,,,,msqg,"[""m"",""s"",""q"",""g""]","[1.5034000000059677,1.9612000000029752,2.2354000000059386,2.8984000000059496,5.8267000000029725]",1,MSQG,6,0,6,0,1,,,,,,,,,,,,,,,,,,,,,,,,,,,,,,,,,,,,,,,,,,,,,,,,,,,,,,,,,,,,,,,,,,,,,,,,,,,,,,,,,,,
,,,,,,,,,60113374795b0d000a98b896,35,Mężczyzna,2022-06-04_08h18.08.101,task,2021.1.4,Win32,59.79073244,628b806c463b948bc644b84f,629af9128e5c974c5174547b,,,,,,0,0,0,0,1,X V Q F H G B L J M P D K C T S W R N Z,,,,,,,,,,,,,,,,,,,,,,,,,,,,,,,,,,,,,,,,,,,,,,,,,,,,,,,,,,,,,,,,,,,,,,,,,,,,,,,,,,,,,,,,,,,,,
,,,,,,,,,60113374795b0d000a98b896,35,Mężczyzna,2022-06-04_08h18.08.101,task,2021.1.4,Win32,59.79073244,628b806c463b948bc644b84f,629af9128e5c974c5174547b,,,,,,1,0,1,0,1,X V Q F H G B L J M P D K C T S W R N Z,,,,,,,,,,,,,,,,,,,,,,,,,,,,,,,,,,,,,,,,,,,,,,,,,,,,,,,,,,,,,,,,,,,,,,,,,,,,,,,,,,,,,,,,,,,,,
,,,,,,,,,60113374795b0d000a98b896,35,Mężczyzna,2022-06-04_08h18.08.101,task,2021.1.4,Win32,59.79073244,628b806c463b948bc644b84f,629af9128e5c974c5174547b,,,,,,2,0,2,0,1,X V Q F H G B L J M P D K C T S W R N Z,,,,,,,,,,,,,,,,,,,,,,,,,,,,,,,,,,,,,,,,,,,,,,,,,,,,,,,,,,,,,,,,,,,,,,,,,,,,,,,,,,,,,,,,,,,,,
,,,,,,,,,60113374795b0d000a98b896,35,Mężczyzna,2022-06-04_08h18.08.101,task,2021.1.4,Win32,59.79073244,628b806c463b948bc644b84f,629af9128e5c974c5174547b,,,,,,3,0,3,0,1,X V Q F H G B L J M P D K C T S W R N Z,,,,,,,,,,,,,,,,,,,,,,,,,,,,,,,,,,,,,,,,,,,,,,,,,,,,,,,,,,,,,,,,,,,,,,,,,,,,,,,,,,,,,,,,,,,,,
,,,,,,,,,60113374795b0d000a98b896,35,Mężczyzna,2022-06-04_08h18.08.101,task,2021.1.4,Win32,59.79073244,628b806c463b948bc644b84f,629af9128e5c974c5174547b,,,,,,4,0,4,0,1,X V Q F H G B L J M P D K C T S W R N Z,,,,,,,,,,,,,,,,,,,,,,,,,,,,,,,,,,,,,,,,,,,,,,,,,,,,,,,,,,,,,,,,,,,,,,,,,,,,,,,,,,,,,,,,,,,,,
,,,,,,,,,60113374795b0d000a98b896,35,Mężczyzna,2022-06-04_08h18.08.101,task,2021.1.4,Win32,59.79073244,628b806c463b948bc644b84f,629af9128e5c974c5174547b,,,,,,,,,,,,rdrlt,"[""r"",""d"",""r"",""l"",""t""]","[1.9935999999940464,2.379799999997033,4.881200000002991,5.710599999994031,6.285099999994031,6.693299999997009]",1,RDRLT,7,0,7,0,1,,,,,,,,,,,,,,,,,,,,,,,,,,,,,,,,,,,,,,,,,,,,,,,,,,,,,,,,,,,,,,,,,,,,,,,,,,,,,,,,,,,
,,,,,,,,,60113374795b0d000a98b896,35,Mężczyzna,2022-06-04_08h18.08.101,task,2021.1.4,Win32,59.79073244,628b806c463b948bc644b84f,629af9128e5c974c5174547b,,,,,,0,0,0,0,1,X V Q F H G B L J M P D K C T S W R N Z,,,,,,,,,,,,,,,,,,,,,,,,,,,,,,,,,,,,,,,,,,,,,,,,,,,,,,,,,,,,,,,,,,,,,,,,,,,,,,,,,,,,,,,,,,,,,
,,,,,,,,,60113374795b0d000a98b896,35,Mężczyzna,2022-06-04_08h18.08.101,task,2021.1.4,Win32,59.79073244,628b806c463b948bc644b84f,629af9128e5c974c5174547b,,,,,,1,0,1,0,1,X V Q F H G B L J M P D K C T S W R N Z,,,,,,,,,,,,,,,,,,,,,,,,,,,,,,,,,,,,,,,,,,,,,,,,,,,,,,,,,,,,,,,,,,,,,,,,,,,,,,,,,,,,,,,,,,,,,
,,,,,,,,,60113374795b0d000a98b896,35,Mężczyzna,2022-06-04_08h18.08.101,task,2021.1.4,Win32,59.79073244,628b806c463b948bc644b84f,629af9128e5c974c5174547b,,,,,,2,0,2,0,1,X V Q F H G B L J M P D K C T S W R N Z,,,,,,,,,,,,,,,,,,,,,,,,,,,,,,,,,,,,,,,,,,,,,,,,,,,,,,,,,,,,,,,,,,,,,,,,,,,,,,,,,,,,,,,,,,,,,
,,,,,,,,,60113374795b0d000a98b896,35,Mężczyzna,2022-06-04_08h18.08.101,task,2021.1.4,Win32,59.79073244,628b806c463b948bc644b84f,629af9128e5c974c5174547b,,,,,,3,0,3,0,1,X V Q F H G B L J M P D K C T S W R N Z,,,,,,,,,,,,,,,,,,,,,,,,,,,,,,,,,,,,,,,,,,,,,,,,,,,,,,,,,,,,,,,,,,,,,,,,,,,,,,,,,,,,,,,,,,,,,
,,,,,,,,,60113374795b0d000a98b896,35,Mężczyzna,2022-06-04_08h18.08.101,task,2021.1.4,Win32,59.79073244,628b806c463b948bc644b84f,629af9128e5c974c5174547b,,,,,,4,0,4,0,1,X V Q F H G B L J M P D K C T S W R N Z,,,,,,,,,,,,,,,,,,,,,,,,,,,,,,,,,,,,,,,,,,,,,,,,,,,,,,,,,,,,,,,,,,,,,,,,,,,,,,,,,,,,,,,,,,,,,
,,,,,,,,,60113374795b0d000a98b896,35,Mężczyzna,2022-06-04_08h18.08.101,task,2021.1.4,Win32,59.79073244,628b806c463b948bc644b84f,629af9128e5c974c5174547b,,,,,,,,,,,,ldhcg,"[""l"",""d"",""h"",""c"",""g""]","[1.4995000000000118,2.197100000008959,4.212800000011953,4.814200000002984,5.944200000002979,7.024400000005983]",1,LDHCG,8,0,8,0,1,,,,,,,,,,,,,,,,,,,,,,,,,,,,,,,,,,,,,,,,,,,,,,,,,,,,,,,,,,,,,,,,,,,,,,,,,,,,,,,,,,,
,,,,,,,,,60113374795b0d000a98b896,35,Mężczyzna,2022-06-04_08h18.08.101,task,2021.1.4,Win32,59.79073244,628b806c463b948bc644b84f,629af9128e5c974c5174547b,,,,,,0,0,0,0,1,X V Q F H G B L J M P D K C T S W R N Z,,,,,,,,,,,,,,,,,,,,,,,,,,,,,,,,,,,,,,,,,,,,,,,,,,,,,,,,,,,,,,,,,,,,,,,,,,,,,,,,,,,,,,,,,,,,,
,,,,,,,,,60113374795b0d000a98b896,35,Mężczyzna,2022-06-04_08h18.08.101,task,2021.1.4,Win32,59.79073244,628b806c463b948bc644b84f,629af9128e5c974c5174547b,,,,,,1,0,1,0,1,X V Q F H G B L J M P D K C T S W R N Z,,,,,,,,,,,,,,,,,,,,,,,,,,,,,,,,,,,,,,,,,,,,,,,,,,,,,,,,,,,,,,,,,,,,,,,,,,,,,,,,,,,,,,,,,,,,,
,,,,,,,,,60113374795b0d000a98b896,35,Mężczyzna,2022-06-04_08h18.08.101,task,2021.1.4,Win32,59.79073244,628b806c463b948bc644b84f,629af9128e5c974c5174547b,,,,,,2,0,2,0,1,X V Q F H G B L J M P D K C T S W R N Z,,,,,,,,,,,,,,,,,,,,,,,,,,,,,,,,,,,,,,,,,,,,,,,,,,,,,,,,,,,,,,,,,,,,,,,,,,,,,,,,,,,,,,,,,,,,,
,,,,,,,,,60113374795b0d000a98b896,35,Mężczyzna,2022-06-04_08h18.08.101,task,2021.1.4,Win32,59.79073244,628b806c463b948bc644b84f,629af9128e5c974c5174547b,,,,,,3,0,3,0,1,X V Q F H G B L J M P D K C T S W R N Z,,,,,,,,,,,,,,,,,,,,,,,,,,,,,,,,,,,,,,,,,,,,,,,,,,,,,,,,,,,,,,,,,,,,,,,,,,,,,,,,,,,,,,,,,,,,,
,,,,,,,,,60113374795b0d000a98b896,35,Mężczyzna,2022-06-04_08h18.08.101,task,2021.1.4,Win32,59.79073244,628b806c463b948bc644b84f,629af9128e5c974c5174547b,,,,,,4,0,4,0,1,X V Q F H G B L J M P D K C T S W R N Z,,,,,,,,,,,,,,,,,,,,,,,,,,,,,,,,,,,,,,,,,,,,,,,,,,,,,,,,,,,,,,,,,,,,,,,,,,,,,,,,,,,,,,,,,,,,,
,,,,,,,,,60113374795b0d000a98b896,35,Mężczyzna,2022-06-04_08h18.08.101,task,2021.1.4,Win32,59.79073244,628b806c463b948bc644b84f,629af9128e5c974c5174547b,,,,,,5,0,5,0,1,X V Q F H G B L J M P D K C T S W R N Z,,,,,,,,,,,,,,,,,,,,,,,,,,,,,,,,,,,,,,,,,,,,,,,,,,,,,,,,,,,,,,,,,,,,,,,,,,,,,,,,,,,,,,,,,,,,,
,,,,,,,,,60113374795b0d000a98b896,35,Mężczyzna,2022-06-04_08h18.08.101,task,2021.1.4,Win32,59.79073244,628b806c463b948bc644b84f,629af9128e5c974c5174547b,,,,,,,,,,,,mskgsw,"[""m"",""s"",""k"",""g"",""s"",""w""]","[2.1138999999910766,2.6810999999940464,4.042899999991107,5.259700000003022,5.927099999994084,6.207500000000039,6.907899999991059]",1,MSKGSW,9,0,9,0,1,,,,,,,,,,,,,,,,,,,,,,,,,,,,,,,,,,,,,,,,,,,,,,,,,,,,,,,,,,,,,,,,,,,,,,,,,,,,,,,,,,,
,,,,,,,,,60113374795b0d000a98b896,35,Mężczyzna,2022-06-04_08h18.08.101,task,2021.1.4,Win32,59.79073244,628b806c463b948bc644b84f,629af9128e5c974c5174547b,,,,,,0,0,0,0,1,X V Q F H G B L J M P D K C T S W R N Z,,,,,,,,,,,,,,,,,,,,,,,,,,,,,,,,,,,,,,,,,,,,,,,,,,,,,,,,,,,,,,,,,,,,,,,,,,,,,,,,,,,,,,,,,,,,,
,,,,,,,,,60113374795b0d000a98b896,35,Mężczyzna,2022-06-04_08h18.08.101,task,2021.1.4,Win32,59.79073244,628b806c463b948bc644b84f,629af9128e5c974c5174547b,,,,,,1,0,1,0,1,X V Q F H G B L J M P D K C T S W R N Z,,,,,,,,,,,,,,,,,,,,,,,,,,,,,,,,,,,,,,,,,,,,,,,,,,,,,,,,,,,,,,,,,,,,,,,,,,,,,,,,,,,,,,,,,,,,,
,,,,,,,,,60113374795b0d000a98b896,35,Mężczyzna,2022-06-04_08h18.08.101,task,2021.1.4,Win32,59.79073244,628b806c463b948bc644b84f,629af9128e5c974c5174547b,,,,,,2,0,2,0,1,X V Q F H G B L J M P D K C T S W R N Z,,,,,,,,,,,,,,,,,,,,,,,,,,,,,,,,,,,,,,,,,,,,,,,,,,,,,,,,,,,,,,,,,,,,,,,,,,,,,,,,,,,,,,,,,,,,,
,,,,,,,,,60113374795b0d000a98b896,35,Mężczyzna,2022-06-04_08h18.08.101,task,2021.1.4,Win32,59.79073244,628b806c463b948bc644b84f,629af9128e5c974c5174547b,,,,,,3,0,3,0,1,X V Q F H G B L J M P D K C T S W R N Z,,,,,,,,,,,,,,,,,,,,,,,,,,,,,,,,,,,,,,,,,,,,,,,,,,,,,,,,,,,,,,,,,,,,,,,,,,,,,,,,,,,,,,,,,,,,,
,,,,,,,,,60113374795b0d000a98b896,35,Mężczyzna,2022-06-04_08h18.08.101,task,2021.1.4,Win32,59.79073244,628b806c463b948bc644b84f,629af9128e5c974c5174547b,,,,,,4,0,4,0,1,X V Q F H G B L J M P D K C T S W R N Z,,,,,,,,,,,,,,,,,,,,,,,,,,,,,,,,,,,,,,,,,,,,,,,,,,,,,,,,,,,,,,,,,,,,,,,,,,,,,,,,,,,,,,,,,,,,,
,,,,,,,,,60113374795b0d000a98b896,35,Mężczyzna,2022-06-04_08h18.08.101,task,2021.1.4,Win32,59.79073244,628b806c463b948bc644b84f,629af9128e5c974c5174547b,,,,,,5,0,5,0,1,X V Q F H G B L J M P D K C T S W R N Z,,,,,,,,,,,,,,,,,,,,,,,,,,,,,,,,,,,,,,,,,,,,,,,,,,,,,,,,,,,,,,,,,,,,,,,,,,,,,,,,,,,,,,,,,,,,,
,,,,,,,,,60113374795b0d000a98b896,35,Mężczyzna,2022-06-04_08h18.08.101,task,2021.1.4,Win32,59.79073244,628b806c463b948bc644b84f,629af9128e5c974c5174547b,,,,,,,,,,,,dlsdgq,"[""d"",""l"",""s"",""d"",""g"",""q""]","[4.678799999997011,6.022400000005916,6.813799999997002,7.777400000005969,8.69599999999997,9.209100000008902,9.791900000005967]",1,DLSDGQ,10,0,10,0,1,,,,,,,,,,,,,,,,,,,,,,,,,,,,,,,,,,,,,,,,,,,,,,,,,,,,,,,,,,,,,,,,,,,,,,,,,,,,,,,,,,,
,,,,,,,,,60113374795b0d000a98b896,35,Mężczyzna,2022-06-04_08h18.08.101,task,2021.1.4,Win32,59.79073244,628b806c463b948bc644b84f,629af9128e5c974c5174547b,,,,,,0,0,0,0,1,X V Q F H G B L J M P D K C T S W R N Z,,,,,,,,,,,,,,,,,,,,,,,,,,,,,,,,,,,,,,,,,,,,,,,,,,,,,,,,,,,,,,,,,,,,,,,,,,,,,,,,,,,,,,,,,,,,,
,,,,,,,,,60113374795b0d000a98b896,35,Mężczyzna,2022-06-04_08h18.08.101,task,2021.1.4,Win32,59.79073244,628b806c463b948bc644b84f,629af9128e5c974c5174547b,,,,,,1,0,1,0,1,X V Q F H G B L J M P D K C T S W R N Z,,,,,,,,,,,,,,,,,,,,,,,,,,,,,,,,,,,,,,,,,,,,,,,,,,,,,,,,,,,,,,,,,,,,,,,,,,,,,,,,,,,,,,,,,,,,,
,,,,,,,,,60113374795b0d000a98b896,35,Mężczyzna,2022-06-04_08h18.08.101,task,2021.1.4,Win32,59.79073244,628b806c463b948bc644b84f,629af9128e5c974c5174547b,,,,,,2,0,2,0,1,X V Q F H G B L J M P D K C T S W R N Z,,,,,,,,,,,,,,,,,,,,,,,,,,,,,,,,,,,,,,,,,,,,,,,,,,,,,,,,,,,,,,,,,,,,,,,,,,,,,,,,,,,,,,,,,,,,,
,,,,,,,,,60113374795b0d000a98b896,35,Mężczyzna,2022-06-04_08h18.08.101,task,2021.1.4,Win32,59.79073244,628b806c463b948bc644b84f,629af9128e5c974c5174547b,,,,,,3,0,3,0,1,X V Q F H G B L J M P D K C T S W R N Z,,,,,,,,,,,,,,,,,,,,,,,,,,,,,,,,,,,,,,,,,,,,,,,,,,,,,,,,,,,,,,,,,,,,,,,,,,,,,,,,,,,,,,,,,,,,,
,,,,,,,,,60113374795b0d000a98b896,35,Mężczyzna,2022-06-04_08h18.08.101,task,2021.1.4,Win32,59.79073244,628b806c463b948bc644b84f,629af9128e5c974c5174547b,,,,,,4,0,4,0,1,X V Q F H G B L J M P D K C T S W R N Z,,,,,,,,,,,,,,,,,,,,,,,,,,,,,,,,,,,,,,,,,,,,,,,,,,,,,,,,,,,,,,,,,,,,,,,,,,,,,,,,,,,,,,,,,,,,,
,,,,,,,,,60113374795b0d000a98b896,35,Mężczyzna,2022-06-04_08h18.08.101,task,2021.1.4,Win32,59.79073244,628b806c463b948bc644b84f,629af9128e5c974c5174547b,,,,,,5,0,5,0,1,X V Q F H G B L J M P D K C T S W R N Z,,,,,,,,,,,,,,,,,,,,,,,,,,,,,,,,,,,,,,,,,,,,,,,,,,,,,,,,,,,,,,,,,,,,,,,,,,,,,,,,,,,,,,,,,,,,,
,,,,,,,,,60113374795b0d000a98b896,35,Mężczyzna,2022-06-04_08h18.08.101,task,2021.1.4,Win32,59.79073244,628b806c463b948bc644b84f,629af9128e5c974c5174547b,,,,,,6,0,6,0,1,X V Q F H G B L J M P D K C T S W R N Z,,,,,,,,,,,,,,,,,,,,,,,,,,,,,,,,,,,,,,,,,,,,,,,,,,,,,,,,,,,,,,,,,,,,,,,,,,,,,,,,,,,,,,,,,,,,,
,,,,,,,,,60113374795b0d000a98b896,35,Mężczyzna,2022-06-04_08h18.08.101,task,2021.1.4,Win32,59.79073244,628b806c463b948bc644b84f,629af9128e5c974c5174547b,,,,,,,,,,,,nrmnrxd,"[""n"",""r"",""m"",""n"",""r"",""x"",""d""]","[2.469399999991083,2.8860999999940304,4.614299999997002,4.850899999991043,6.167500000000018,6.797299999996994,7.815399999991087,8.296399999991081]",1,NRMNRXD,11,0,11,0,1,,,,,,,,,,,,,,,,,,,,,,,,,,,,,,,,,,,,,,,,,,,,,,,,,,,,,,,,,,,,,,,,,,,,,,,,,,,,,,,,,,,
,,,,,,,,,60113374795b0d000a98b896,35,Mężczyzna,2022-06-04_08h18.08.101,task,2021.1.4,Win32,59.79073244,628b806c463b948bc644b84f,629af9128e5c974c5174547b,,,,,,0,0,0,0,1,X V Q F H G B L J M P D K C T S W R N Z,,,,,,,,,,,,,,,,,,,,,,,,,,,,,,,,,,,,,,,,,,,,,,,,,,,,,,,,,,,,,,,,,,,,,,,,,,,,,,,,,,,,,,,,,,,,,
,,,,,,,,,60113374795b0d000a98b896,35,Mężczyzna,2022-06-04_08h18.08.101,task,2021.1.4,Win32,59.79073244,628b806c463b948bc644b84f,629af9128e5c974c5174547b,,,,,,1,0,1,0,1,X V Q F H G B L J M P D K C T S W R N Z,,,,,,,,,,,,,,,,,,,,,,,,,,,,,,,,,,,,,,,,,,,,,,,,,,,,,,,,,,,,,,,,,,,,,,,,,,,,,,,,,,,,,,,,,,,,,
,,,,,,,,,60113374795b0d000a98b896,35,Mężczyzna,2022-06-04_08h18.08.101,task,2021.1.4,Win32,59.79073244,628b806c463b948bc644b84f,629af9128e5c974c5174547b,,,,,,2,0,2,0,1,X V Q F H G B L J M P D K C T S W R N Z,,,,,,,,,,,,,,,,,,,,,,,,,,,,,,,,,,,,,,,,,,,,,,,,,,,,,,,,,,,,,,,,,,,,,,,,,,,,,,,,,,,,,,,,,,,,,
,,,,,,,,,60113374795b0d000a98b896,35,Mężczyzna,2022-06-04_08h18.08.101,task,2021.1.4,Win32,59.79073244,628b806c463b948bc644b84f,629af9128e5c974c5174547b,,,,,,3,0,3,0,1,X V Q F H G B L J M P D K C T S W R N Z,,,,,,,,,,,,,,,,,,,,,,,,,,,,,,,,,,,,,,,,,,,,,,,,,,,,,,,,,,,,,,,,,,,,,,,,,,,,,,,,,,,,,,,,,,,,,
,,,,,,,,,60113374795b0d000a98b896,35,Mężczyzna,2022-06-04_08h18.08.101,task,2021.1.4,Win32,59.79073244,628b806c463b948bc644b84f,629af9128e5c974c5174547b,,,,,,4,0,4,0,1,X V Q F H G B L J M P D K C T S W R N Z,,,,,,,,,,,,,,,,,,,,,,,,,,,,,,,,,,,,,,,,,,,,,,,,,,,,,,,,,,,,,,,,,,,,,,,,,,,,,,,,,,,,,,,,,,,,,
,,,,,,,,,60113374795b0d000a98b896,35,Mężczyzna,2022-06-04_08h18.08.101,task,2021.1.4,Win32,59.79073244,628b806c463b948bc644b84f,629af9128e5c974c5174547b,,,,,,5,0,5,0,1,X V Q F H G B L J M P D K C T S W R N Z,,,,,,,,,,,,,,,,,,,,,,,,,,,,,,,,,,,,,,,,,,,,,,,,,,,,,,,,,,,,,,,,,,,,,,,,,,,,,,,,,,,,,,,,,,,,,
,,,,,,,,,60113374795b0d000a98b896,35,Mężczyzna,2022-06-04_08h18.08.101,task,2021.1.4,Win32,59.79073244,628b806c463b948bc644b84f,629af9128e5c974c5174547b,,,,,,6,0,6,0,1,X V Q F H G B L J M P D K C T S W R N Z,,,,,,,,,,,,,,,,,,,,,,,,,,,,,,,,,,,,,,,,,,,,,,,,,,,,,,,,,,,,,,,,,,,,,,,,,,,,,,,,,,,,,,,,,,,,,
,,,,,,,,,60113374795b0d000a98b896,35,Mężczyzna,2022-06-04_08h18.08.101,task,2021.1.4,Win32,59.79073244,628b806c463b948bc644b84f,629af9128e5c974c5174547b,,,,,,,,,,,,srhhjv,"[""s"",""r"",""h"",""h"",""j"",""v""]","[3.5477000000029193,3.8586000000088916,5.491700000002993,5.677999999999997,6.226900000005912,6.810900000005972,7.3419999999999845]",0,CSRHHJV,12,0,12,0,1,,,,,,,,,,,,,,,,,,,,,,,,,,,,,,,,,,,,,,,,,,,,,,,,,,,,,,,,,,,,,,,,,,,,,,,,,,,,,,,,,,,
,,,,,,,,,60113374795b0d000a98b896,35,Mężczyzna,2022-06-04_08h18.08.101,task,2021.1.4,Win32,59.79073244,628b806c463b948bc644b84f,629af9128e5c974c5174547b,,,,,,0,0,0,0,1,X V Q F H G B L J M P D K C T S W R N Z,,,,,,,,,,,,,,,,,,,,,,,,,,,,,,,,,,,,,,,,,,,,,,,,,,,,,,,,,,,,,,,,,,,,,,,,,,,,,,,,,,,,,,,,,,,,,
,,,,,,,,,60113374795b0d000a98b896,35,Mężczyzna,2022-06-04_08h18.08.101,task,2021.1.4,Win32,59.79073244,628b806c463b948bc644b84f,629af9128e5c974c5174547b,,,,,,1,0,1,0,1,X V Q F H G B L J M P D K C T S W R N Z,,,,,,,,,,,,,,,,,,,,,,,,,,,,,,,,,,,,,,,,,,,,,,,,,,,,,,,,,,,,,,,,,,,,,,,,,,,,,,,,,,,,,,,,,,,,,
,,,,,,,,,60113374795b0d000a98b896,35,Mężczyzna,2022-06-04_08h18.08.101,task,2021.1.4,Win32,59.79073244,628b806c463b948bc644b84f,629af9128e5c974c5174547b,,,,,,2,0,2,0,1,X V Q F H G B L J M P D K C T S W R N Z,,,,,,,,,,,,,,,,,,,,,,,,,,,,,,,,,,,,,,,,,,,,,,,,,,,,,,,,,,,,,,,,,,,,,,,,,,,,,,,,,,,,,,,,,,,,,
,,,,,,,,,60113374795b0d000a98b896,35,Mężczyzna,2022-06-04_08h18.08.101,task,2021.1.4,Win32,59.79073244,628b806c463b948bc644b84f,629af9128e5c974c5174547b,,,,,,3,0,3,0,1,X V Q F H G B L J M P D K C T S W R N Z,,,,,,,,,,,,,,,,,,,,,,,,,,,,,,,,,,,,,,,,,,,,,,,,,,,,,,,,,,,,,,,,,,,,,,,,,,,,,,,,,,,,,,,,,,,,,
,,,,,,,,,60113374795b0d000a98b896,35,Mężczyzna,2022-06-04_08h18.08.101,task,2021.1.4,Win32,59.79073244,628b806c463b948bc644b84f,629af9128e5c974c5174547b,,,,,,4,0,4,0,1,X V Q F H G B L J M P D K C T S W R N Z,,,,,,,,,,,,,,,,,,,,,,,,,,,,,,,,,,,,,,,,,,,,,,,,,,,,,,,,,,,,,,,,,,,,,,,,,,,,,,,,,,,,,,,,,,,,,
,,,,,,,,,60113374795b0d000a98b896,35,Mężczyzna,2022-06-04_08h18.08.101,task,2021.1.4,Win32,59.79073244,628b806c463b948bc644b84f,629af9128e5c974c5174547b,,,,,,5,0,5,0,1,X V Q F H G B L J M P D K C T S W R N Z,,,,,,,,,,,,,,,,,,,,,,,,,,,,,,,,,,,,,,,,,,,,,,,,,,,,,,,,,,,,,,,,,,,,,,,,,,,,,,,,,,,,,,,,,,,,,
,,,,,,,,,60113374795b0d000a98b896,35,Mężczyzna,2022-06-04_08h18.08.101,task,2021.1.4,Win32,59.79073244,628b806c463b948bc644b84f,629af9128e5c974c5174547b,,,,,,6,0,6,0,1,X V Q F H G B L J M P D K C T S W R N Z,,,,,,,,,,,,,,,,,,,,,,,,,,,,,,,,,,,,,,,,,,,,,,,,,,,,,,,,,,,,,,,,,,,,,,,,,,,,,,,,,,,,,,,,,,,,,
,,,,,,,,,60113374795b0d000a98b896,35,Mężczyzna,2022-06-04_08h18.08.101,task,2021.1.4,Win32,59.79073244,628b806c463b948bc644b84f,629af9128e5c974c5174547b,,,,,,,,,,,,cndfjtq,"[""c"",""n"",""d"",""f"",""j"",""t"",""q""]","[2.9035999999940714,3.258299999997007,4.504900000005932,4.821799999996983,6.9722999999970625,7.369900000005941,7.820799999997007,8.336000000000013]",0,CMDFJTQ,13,0,13,0,1,,,,,,,,,,,,,,,,,,,,,,,,,,,,,,,,,,,,,,,,,,,,,,,,,,,,,,,,,,,,,,,,,,,,,,,,,,,,,,,,,,,
,,,,,,,,,60113374795b0d000a98b896,35,Mężczyzna,2022-06-04_08h18.08.101,task,2021.1.4,Win32,59.79073244,628b806c463b948bc644b84f,629af9128e5c974c5174547b,,,,,,0,0,0,0,1,X V Q F H G B L J M P D K C T S W R N Z,,,,,,,,,,,,,,,,,,,,,,,,,,,,,,,,,,,,,,,,,,,,,,,,,,,,,,,,,,,,,,,,,,,,,,,,,,,,,,,,,,,,,,,,,,,,,
,,,,,,,,,60113374795b0d000a98b896,35,Mężczyzna,2022-06-04_08h18.08.101,task,2021.1.4,Win32,59.79073244,628b806c463b948bc644b84f,629af9128e5c974c5174547b,,,,,,1,0,1,0,1,X V Q F H G B L J M P D K C T S W R N Z,,,,,,,,,,,,,,,,,,,,,,,,,,,,,,,,,,,,,,,,,,,,,,,,,,,,,,,,,,,,,,,,,,,,,,,,,,,,,,,,,,,,,,,,,,,,,
,,,,,,,,,60113374795b0d000a98b896,35,Mężczyzna,2022-06-04_08h18.08.101,task,2021.1.4,Win32,59.79073244,628b806c463b948bc644b84f,629af9128e5c974c5174547b,,,,,,2,0,2,0,1,X V Q F H G B L J M P D K C T S W R N Z,,,,,,,,,,,,,,,,,,,,,,,,,,,,,,,,,,,,,,,,,,,,,,,,,,,,,,,,,,,,,,,,,,,,,,,,,,,,,,,,,,,,,,,,,,,,,
,,,,,,,,,60113374795b0d000a98b896,35,Mężczyzna,2022-06-04_08h18.08.101,task,2021.1.4,Win32,59.79073244,628b806c463b948bc644b84f,629af9128e5c974c5174547b,,,,,,3,0,3,0,1,X V Q F H G B L J M P D K C T S W R N Z,,,,,,,,,,,,,,,,,,,,,,,,,,,,,,,,,,,,,,,,,,,,,,,,,,,,,,,,,,,,,,,,,,,,,,,,,,,,,,,,,,,,,,,,,,,,,
,,,,,,,,,60113374795b0d000a98b896,35,Mężczyzna,2022-06-04_08h18.08.101,task,2021.1.4,Win32,59.79073244,628b806c463b948bc644b84f,629af9128e5c974c5174547b,,,,,,4,0,4,0,1,X V Q F H G B L J M P D K C T S W R N Z,,,,,,,,,,,,,,,,,,,,,,,,,,,,,,,,,,,,,,,,,,,,,,,,,,,,,,,,,,,,,,,,,,,,,,,,,,,,,,,,,,,,,,,,,,,,,
,,,,,,,,,60113374795b0d000a98b896,35,Mężczyzna,2022-06-04_08h18.08.101,task,2021.1.4,Win32,59.79073244,628b806c463b948bc644b84f,629af9128e5c974c5174547b,,,,,,5,0,5,0,1,X V Q F H G B L J M P D K C T S W R N Z,,,,,,,,,,,,,,,,,,,,,,,,,,,,,,,,,,,,,,,,,,,,,,,,,,,,,,,,,,,,,,,,,,,,,,,,,,,,,,,,,,,,,,,,,,,,,
,,,,,,,,,60113374795b0d000a98b896,35,Mężczyzna,2022-06-04_08h18.08.101,task,2021.1.4,Win32,59.79073244,628b806c463b948bc644b84f,629af9128e5c974c5174547b,,,,,,6,0,6,0,1,X V Q F H G B L J M P D K C T S W R N Z,,,,,,,,,,,,,,,,,,,,,,,,,,,,,,,,,,,,,,,,,,,,,,,,,,,,,,,,,,,,,,,,,,,,,,,,,,,,,,,,,,,,,,,,,,,,,
,,,,,,,,,60113374795b0d000a98b896,35,Mężczyzna,2022-06-04_08h18.08.101,task,2021.1.4,Win32,59.79073244,628b806c463b948bc644b84f,629af9128e5c974c5174547b,,,,,,,,,,,,bhxkmir,"[""b"",""h"",""x"",""k"",""m"",""i"",""r""]","[2.4505000000000337,3.0314000000059877,5.196000000000026,6.111999999999966,7.141599999994014,8.655200000002992,10.017400000005978,11.038599999994062]",0,BHXKMPR,14,0,14,0,1,,,,,,,,,,,,,,,,,,,,,,,,,,,,,,,,,,,,,,,,,,,,,,,,,,,,,,,,,,,,,,,,,,,,,,,,,,,,,,,,,,,
,,,,,,,,,60113374795b0d000a98b896,35,Mężczyzna,2022-06-04_08h18.08.101,task,2021.1.4,Win32,59.79073244,628b806c463b948bc644b84f,629af9128e5c974c5174547b,,,,,,,,,,,,,,,,,,,,,,space,12.1672,4,"[""4""]",1,[13.972899999991114],[13.972899999991114],0,0,0,4,1,Practice,5,(2x6) - 8,4,,,,,,,,,,,,,,,,,,,,,,,,,,,,,,,,,,,,,,,,,,,,,,,,,,,,,,,,,,,,,,,,,,,
,,,,,,,,,60113374795b0d000a98b896,35,Mężczyzna,2022-06-04_08h18.08.101,task,2021.1.4,Win32,59.79073244,628b806c463b948bc644b84f,629af9128e5c974c5174547b,,,,,,,,,,,,,,,,,,,,,,,,1,"[""1""]",1,[2.4704000000059523],"[13.972899999991114,2.4704000000059523]",0,1,1,1,1,Practice,2,(4x4) - 15,1,,,,,,,,,,,,,,,,,,,,,,,,,,,,,,,,,,,,,,,,,,,,,,,,,,,,,,,,,,,,,,,,,,,
,,,,,,,,,60113374795b0d000a98b896,35,Mężczyzna,2022-06-04_08h18.08.101,task,2021.1.4,Win32,59.79073244,628b806c463b948bc644b84f,629af9128e5c974c5174547b,,,,,,,,,,,,,,,,,,,,,,,,6,"[""6""]",1,[2.964600000009],"[13.972899999991114,2.4704000000059523,2.964600000009]",0,2,2,6,1,Practice,7,(25/5) + 1,6,,,,,,,,,,,,,,,,,,,,,,,,,,,,,,,,,,,,,,,,,,,,,,,,,,,,,,,,,,,,,,,,,,,
,,,,,,,,,60113374795b0d000a98b896,35,Mężczyzna,2022-06-04_08h18.08.101,task,2021.1.4,Win32,59.79073244,628b806c463b948bc644b84f,629af9128e5c974c5174547b,,,,,,,,,,,,,,,,,,,,,,,,8,"[""8""]",1,[2.0330000000000155],"[13.972899999991114,2.4704000000059523,2.964600000009,2.0330000000000155]",0,3,3,8,1,Practice,9,(3x3) - 1,8,,,,,,,,,,,,,,,,,,,,,,,,,,,,,,,,,,,,,,,,,,,,,,,,,,,,,,,,,,,,,,,,,,,
,,,,,,,,,60113374795b0d000a98b896,35,Mężczyzna,2022-06-04_08h18.08.101,task,2021.1.4,Win32,59.79073244,628b806c463b948bc644b84f,629af9128e5c974c5174547b,,,,,,,,,,,,,,,,,,,,,,,,7,"[""7""]",1,[3.886800000011931],"[13.972899999991114,2.4704000000059523,2.964600000009,2.0330000000000155,3.886800000011931]",0,4,4,7,1,Practice,8,(5x5) - 18,7,,,,,,,,,,,,,,,,,,,,,,,,,,,,,,,,,,,,,,,,,,,,,,,,,,,,,,,,,,,,,,,,,,,
,,,,,,,,,60113374795b0d000a98b896,35,Mężczyzna,2022-06-04_08h18.08.101,task,2021.1.4,Win32,59.79073244,628b806c463b948bc644b84f,629af9128e5c974c5174547b,,,,,,,,,,,,,,,,,,,,,,,,2,"[""2""]",1,[1.6817000000030475],"[13.972899999991114,2.4704000000059523,2.964600000009,2.0330000000000155,3.886800000011931,1.6817000000030475]",0,5,5,2,1,Practice,3,(4x4) - 14,2,,,,,,,,,,,,,,,,,,,,,,,,,,,,,,,,,,,,,,,,,,,,,,,,,,,,,,,,,,,,,,,,,,,
,,,,,,,,,60113374795b0d000a98b896,35,Mężczyzna,2022-06-04_08h18.08.101,task,2021.1.4,Win32,59.79073244,628b806c463b948bc644b84f,629af9128e5c974c5174547b,,,,,,,,,,,,,,,,,,,,,,,,9,"[""9""]",1,[2.729400000005967],"[13.972899999991114,2.4704000000059523,2.964600000009,2.0330000000000155,3.886800000011931,1.6817000000030475,2.729400000005967]",0,6,6,9,1,Practice,10,(20/2) - 1,9,,,,,,,,,,,,,,,,,,,,,,,,,,,,,,,,,,,,,,,,,,,,,,,,,,,,,,,,,,,,,,,,,,,
,,,,,,,,,60113374795b0d000a98b896,35,Mężczyzna,2022-06-04_08h18.08.101,task,2021.1.4,Win32,59.79073244,628b806c463b948bc644b84f,629af9128e5c974c5174547b,,,,,,,,,,,,,,,,,,,,,,,,0,"[""0""]",1,[1.913000000000011],"[13.972899999991114,2.4704000000059523,2.964600000009,2.0330000000000155,3.886800000011931,1.6817000000030475,2.729400000005967,1.913000000000011]",0,7,7,0,1,Practice,1,(3x3) -  9,0,,,,,,,,,,,,,,,,,,,,,,,,,,,,,,,,,,,,,,,,,,,,,,,,,,,,,,,,,,,,,,,,,,,
,,,,,,,,,60113374795b0d000a98b896,35,Mężczyzna,2022-06-04_08h18.08.101,task,2021.1.4,Win32,59.79073244,628b806c463b948bc644b84f,629af9128e5c974c5174547b,,,,,,,,,,,,,,,,,,,,,,,,3,"[""3""]",1,[4.152800000012007],"[13.972899999991114,2.4704000000059523,2.964600000009,2.0330000000000155,3.886800000011931,1.6817000000030475,2.729400000005967,1.913000000000011,4.152800000012007]",0,8,8,3,1,Practice,4,(8/4) + 1,3,,,,,,,,,,,,,,,,,,,,,,,,,,,,,,,,,,,,,,,,,,,,,,,,,,,,,,,,,,,,,,,,,,,
,,,,,,,,,60113374795b0d000a98b896,35,Mężczyzna,2022-06-04_08h18.08.101,task,2021.1.4,Win32,59.79073244,628b806c463b948bc644b84f,629af9128e5c974c5174547b,,,,,,,,,,,,,,,,,,,,,,,,5,"[""5""]",1,[2.102800000011939],"[13.972899999991114,2.4704000000059523,2.964600000009,2.0330000000000155,3.886800000011931,1.6817000000030475,2.729400000005967,1.913000000000011,4.152800000012007,2.102800000011939]",0,9,9,5,1,Practice,6,(4/2) + 3,5,,,,,,,,,,,,,,,,,,,,,,,,,,,,,,,,,,,,,,,,,,,,,,,,,,,,,,,,,,,,,,,,,,,
,,,,,,,,,60113374795b0d000a98b896,35,Mężczyzna,2022-06-04_08h18.08.101,task,2021.1.4,Win32,59.79073244,628b806c463b948bc644b84f,629af9128e5c974c5174547b,,,,,,,,,,,,,,,,,,,,,,,,,,,,,,,,,,,,,,1,37.9074,2.52716,137.2480376,3.024875067,10.33133767,space,2.6165,0,0,0,0,1,,,,,,,,,,,,,,,,,,,,,,,,,,,,,,,,,,,,,,,,,,,,,,,,,,,,,,
,,,,,,,,,60113374795b0d000a98b896,35,Mężczyzna,2022-06-04_08h18.08.101,task,2021.1.4,Win32,59.79073244,628b806c463b948bc644b84f,629af9128e5c974c5174547b,,,,,,,,,,,,,,,,,,,,,,,,9,,,,,,,,,,Practice,10,(20/2) - 1,9,,,,,,,,,,,,,,space,4.0933,"[""9""]",1,[3.6132999999970252],1,0,0,0,9,1,,,,,,,,,,,,,,,,,,,,,,,,,,,,,,,,,,,,,,,,,,,
,,,,,,,,,60113374795b0d000a98b896,35,Mężczyzna,2022-06-04_08h18.08.101,task,2021.1.4,Win32,59.79073244,628b806c463b948bc644b84f,629af9128e5c974c5174547b,,,,,,,,,,,X V Q F H G B L J M P D K C T S W R N Z,,,,,,,,,,,,,,,,,,,,,,,,,,,,,,,,,,,,,,,,,,,,,,,,,,,0,0,0,0,1,,,,,,,,,,,,,,,,,,,,,,,,,,,,,,,,,,,,,,
,,,,,,,,,60113374795b0d000a98b896,35,Mężczyzna,2022-06-04_08h18.08.101,task,2021.1.4,Win32,59.79073244,628b806c463b948bc644b84f,629af9128e5c974c5174547b,,,,,,,,,,,,,,,,,,,,,,,,1,,,,,,,,,,Practice,2,(4x4) - 15,1,,,,,,,,,,,,,,,,"[""1""]",1,[3.232399999991003],1,0,0,0,1,1,,,,,,,,,,,,,,,,,,,,,,,,,,,,,,,,,,,,,,,,,,,
,,,,,,,,,60113374795b0d000a98b896,35,Mężczyzna,2022-06-04_08h18.08.101,task,2021.1.4,Win32,59.79073244,628b806c463b948bc644b84f,629af9128e5c974c5174547b,,,,,,,,,,,X V Q F H G B L J M P D K C T S W R N Z,,,,,,,,,,,,,,,,,,,,,,,,,,,,,,,,,,,,,,,,,,,,,,,,,,,1,0,1,0,1,,,,,,,,,,,,,,,,,,,,,,,,,,,,,,,,,,,,,,
,,,,,,,,,60113374795b0d000a98b896,35,Mężczyzna,2022-06-04_08h18.08.101,task,2021.1.4,Win32,59.79073244,628b806c463b948bc644b84f,629af9128e5c974c5174547b,,,,,,,,,,,,,,,,,,,,,,,,,,,,,,,,,,,,,,,,,,,,,,,,,,,,,,,,,,,,,,,,,,,zn,"[""z"",""n""]",0,"[3.414300000011849,3.8258000000118955,6.67640000000597]",1,0,0,0,0,1,,,,,,,,,,,,,,,,,,,,,,,,,,,,
,,,,,,,,,60113374795b0d000a98b896,35,Mężczyzna,2022-06-04_08h18.08.101,task,2021.1.4,Win32,59.79073244,628b806c463b948bc644b84f,629af9128e5c974c5174547b,,,,,,,,,,,,,,,,,,,,,,,,1,,,,,,,,,,Practice,2,(4x4) - 15,1,,,,,,,,,,,,,,,,"[""1""]",1,[1.7166000000089525],1,0,0,0,1,1,,,,,,,,,,,,,,,,,,,,,,,,,,,,,,,,,,,,,,,,,,,
,,,,,,,,,60113374795b0d000a98b896,35,Mężczyzna,2022-06-04_08h18.08.101,task,2021.1.4,Win32,59.79073244,628b806c463b948bc644b84f,629af9128e5c974c5174547b,,,,,,,,,,,X V Q F H G B L J M P D K C T S W R N Z,,,,,,,,,,,,,,,,,,,,,,,,,,,,,,,,,,,,,,,,,,,,,,,,,,,0,0,0,0,1,,,,,,,,,,,,,,,,,,,,,,,,,,,,,,,,,,,,,,
,,,,,,,,,60113374795b0d000a98b896,35,Mężczyzna,2022-06-04_08h18.08.101,task,2021.1.4,Win32,59.79073244,628b806c463b948bc644b84f,629af9128e5c974c5174547b,,,,,,,,,,,,,,,,,,,,,,,,3,,,,,,,,,,Practice,4,(8/4) + 1,3,,,,,,,,,,,,,,,,"[""3""]",1,[1.9937000000030594],1,0,0,0,3,1,,,,,,,,,,,,,,,,,,,,,,,,,,,,,,,,,,,,,,,,,,,
,,,,,,,,,60113374795b0d000a98b896,35,Mężczyzna,2022-06-04_08h18.08.101,task,2021.1.4,Win32,59.79073244,628b806c463b948bc644b84f,629af9128e5c974c5174547b,,,,,,,,,,,X V Q F H G B L J M P D K C T S W R N Z,,,,,,,,,,,,,,,,,,,,,,,,,,,,,,,,,,,,,,,,,,,,,,,,,,,1,0,1,0,1,,,,,,,,,,,,,,,,,,,,,,,,,,,,,,,,,,,,,,
,,,,,,,,,60113374795b0d000a98b896,35,Mężczyzna,2022-06-04_08h18.08.101,task,2021.1.4,Win32,59.79073244,628b806c463b948bc644b84f,629af9128e5c974c5174547b,,,,,,,,,,,,,,,,,,,,,,,,,,,,,,,,,,,,,,,,,,,,,,,,,,,,,,,,,,,,,,,,,,,gq,"[""g"",""q""]",0,"[3.1772000000030403,3.9262999999970134,4.69229999999709]",1,1,0,1,0,1,,,,,,,,,,,,,,,,,,,,,,,,,,,,
,,,,,,,,,60113374795b0d000a98b896,35,Mężczyzna,2022-06-04_08h18.08.101,task,2021.1.4,Win32,59.79073244,628b806c463b948bc644b84f,629af9128e5c974c5174547b,,,,,,,,,,,,,,,,,,,,,,,,0,,,,,,,,,,Practice,1,(3x3) -  9,0,,,,,,,,,,,,,,,,"[""0""]",1,[1.5615999999940868],1,0,0,0,0,1,,,,,,,,,,,,,,,,,,,,,,,,,,,,,,,,,,,,,,,,,,,
,,,,,,,,,60113374795b0d000a98b896,35,Mężczyzna,2022-06-04_08h18.08.101,task,2021.1.4,Win32,59.79073244,628b806c463b948bc644b84f,629af9128e5c974c5174547b,,,,,,,,,,,X V Q F H G B L J M P D K C T S W R N Z,,,,,,,,,,,,,,,,,,,,,,,,,,,,,,,,,,,,,,,,,,,,,,,,,,,0,0,0,0,1,,,,,,,,,,,,,,,,,,,,,,,,,,,,,,,,,,,,,,
,,,,,,,,,60113374795b0d000a98b896,35,Mężczyzna,2022-06-04_08h18.08.101,task,2021.1.4,Win32,59.79073244,628b806c463b948bc644b84f,629af9128e5c974c5174547b,,,,,,,,,,,,,,,,,,,,,,,,0,,,,,,,,,,Practice,1,(3x3) -  9,0,,,,,,,,,,,,,,,,"[""0""]",1,[2.7310999999940577],1,0,0,0,0,1,,,,,,,,,,,,,,,,,,,,,,,,,,,,,,,,,,,,,,,,,,,
,,,,,,,,,60113374795b0d000a98b896,35,Mężczyzna,2022-06-04_08h18.08.101,task,2021.1.4,Win32,59.79073244,628b806c463b948bc644b84f,629af9128e5c974c5174547b,,,,,,,,,,,X V Q F H G B L J M P D K C T S W R N Z,,,,,,,,,,,,,,,,,,,,,,,,,,,,,,,,,,,,,,,,,,,,,,,,,,,1,0,1,0,1,,,,,,,,,,,,,,,,,,,,,,,,,,,,,,,,,,,,,,
,,,,,,,,,60113374795b0d000a98b896,35,Mężczyzna,2022-06-04_08h18.08.101,task,2021.1.4,Win32,59.79073244,628b806c463b948bc644b84f,629af9128e5c974c5174547b,,,,,,,,,,,,,,,,,,,,,,,,,,,,,,,,,,,,,,,,,,,,,,,,,,,,,,,,,,,,,,,,,,,gh,"[""g"",""h""]",0,"[2.0194999999999936,2.8700999999940677,4.139799999996967]",1,2,0,2,0,1,,,,,,,,,,,,,,,,,,,,,,,,,,,,
,,,,,,,,,60113374795b0d000a98b896,35,Mężczyzna,2022-06-04_08h18.08.101,task,2021.1.4,Win32,59.79073244,628b806c463b948bc644b84f,629af9128e5c974c5174547b,,,,,,,,,,,,,,,,,,,,,,,,8,,,,,,,,,,Task,39,(5x3) - 7,8,,,,,,,,,,,,,,,,,,,1,,,,,,,,,,,,,,,,,,,,,space,17.6224,"[""8""]",1,[8.66409999999405],0,0,0,38,1,,,,,,,,,,,,,,,,,,
,,,,,,,,,60113374795b0d000a98b896,35,Mężczyzna,2022-06-04_08h18.08.101,task,2021.1.4,Win32,59.79073244,628b806c463b948bc644b84f,629af9128e5c974c5174547b,,,,,,,,,,,X V Q F H G B L J M P D K C T S W R N Z,,,,,,,,,,,,,,,,,,,,,,,,,,,,,,,,,,,,,,,,,,,,,,,,,,,,,,,,,,,,,,,,,,,,,,,,,,,,0,0,0,0,1,,,,,,,,,,,,,
,,,,,,,,,60113374795b0d000a98b896,35,Mężczyzna,2022-06-04_08h18.08.101,task,2021.1.4,Win32,59.79073244,628b806c463b948bc644b84f,629af9128e5c974c5174547b,,,,,,,,,,,,,,,,,,,,,,,,5,,,,,,,,,,Task,29,(3x8) - 19 ,5,,,,,,,,,,,,,,,,,,,1,,,,,,,,,,,,,,,,,,,,,,,"[""5""]",1,[5.995299999996973],0,0,0,28,1,,,,,,,,,,,,,,,,,,
,,,,,,,,,60113374795b0d000a98b896,35,Mężczyzna,2022-06-04_08h18.08.101,task,2021.1.4,Win32,59.79073244,628b806c463b948bc644b84f,629af9128e5c974c5174547b,,,,,,,,,,,X V Q F H G B L J M P D K C T S W R N Z,,,,,,,,,,,,,,,,,,,,,,,,,,,,,,,,,,,,,,,,,,,,,,,,,,,,,,,,,,,,,,,,,,,,,,,,,,,,1,0,1,0,1,,,,,,,,,,,,,
,,,,,,,,,60113374795b0d000a98b896,35,Mężczyzna,2022-06-04_08h18.08.101,task,2021.1.4,Win32,59.79073244,628b806c463b948bc644b84f,629af9128e5c974c5174547b,,,,,,,,,,,,,,,,,,,,,,,,,,,,,,,,,,,,,,,,,,,,,,,,,,,,,,,,,,,,,,,,,,,,,,,,,,,,,,,,,,,,,,,,,,,,zx,"[""z"",""x""]",0,"[2.180900000005863,3.9274999999998954,4.809700000002977]",1,ZX,0,0,0,0,1,,
,,,,,,,,,60113374795b0d000a98b896,35,Mężczyzna,2022-06-04_08h18.08.101,task,2021.1.4,Win32,59.79073244,628b806c463b948bc644b84f,629af9128e5c974c5174547b,,,,,,,,,,,,,,,,,,,,,,,,0,,,,,,,,,,Task,17,(2x3) - 6,0,,,,,,,,,,,,,,,,,,,1,,,,,,,,,,,,,,,,,,,,,,,"[""0""]",1,[3.0190000000000055],0,0,0,16,1,,,,,,,,,,,,,,,,,,
,,,,,,,,,60113374795b0d000a98b896,35,Mężczyzna,2022-06-04_08h18.08.101,task,2021.1.4,Win32,59.79073244,628b806c463b948bc644b84f,629af9128e5c974c5174547b,,,,,,,,,,,X V Q F H G B L J M P D K C T S W R N Z,,,,,,,,,,,,,,,,,,,,,,,,,,,,,,,,,,,,,,,,,,,,,,,,,,,,,,,,,,,,,,,,,,,,,,,,,,,,0,0,0,0,1,,,,,,,,,,,,,
,,,,,,,,,60113374795b0d000a98b896,35,Mężczyzna,2022-06-04_08h18.08.101,task,2021.1.4,Win32,59.79073244,628b806c463b948bc644b84f,629af9128e5c974c5174547b,,,,,,,,,,,,,,,,,,,,,,,,6,,,,,,,,,,Task,5,(2x3) + 0,6,,,,,,,,,,,,,,,,,,,1,,,,,,,,,,,,,,,,,,,,,,,"[""6""]",1,[2.4375],0,0,0,4,1,,,,,,,,,,,,,,,,,,
,,,,,,,,,60113374795b0d000a98b896,35,Mężczyzna,2022-06-04_08h18.08.101,task,2021.1.4,Win32,59.79073244,628b806c463b948bc644b84f,629af9128e5c974c5174547b,,,,,,,,,,,X V Q F H G B L J M P D K C T S W R N Z,,,,,,,,,,,,,,,,,,,,,,,,,,,,,,,,,,,,,,,,,,,,,,,,,,,,,,,,,,,,,,,,,,,,,,,,,,,,1,0,1,0,1,,,,,,,,,,,,,
,,,,,,,,,60113374795b0d000a98b896,35,Mężczyzna,2022-06-04_08h18.08.101,task,2021.1.4,Win32,59.79073244,628b806c463b948bc644b84f,629af9128e5c974c5174547b,,,,,,,,,,,,,,,,,,,,,,,,9,,,,,,,,,,Task,24,(2x2) + 5,9,,,,,,,,,,,,,,,,,,,1,,,,,,,,,,,,,,,,,,,,,,,"[""9""]",1,[4.425899999991088],0,0,0,23,1,,,,,,,,,,,,,,,,,,
,,,,,,,,,60113374795b0d000a98b896,35,Mężczyzna,2022-06-04_08h18.08.101,task,2021.1.4,Win32,59.79073244,628b806c463b948bc644b84f,629af9128e5c974c5174547b,,,,,,,,,,,X V Q F H G B L J M P D K C T S W R N Z,,,,,,,,,,,,,,,,,,,,,,,,,,,,,,,,,,,,,,,,,,,,,,,,,,,,,,,,,,,,,,,,,,,,,,,,,,,,2,0,2,0,1,,,,,,,,,,,,,
,,,,,,,,,60113374795b0d000a98b896,35,Mężczyzna,2022-06-04_08h18.08.101,task,2021.1.4,Win32,59.79073244,628b806c463b948bc644b84f,629af9128e5c974c5174547b,,,,,,,,,,,,,,,,,,,,,,,,,,,,,,,,,,,,,,,,,,,,,,,,,,,,,,,,,,,,,,,,,,,,,,,,,,,,,,,,,,,,,,,,,,,,xhn,"[""x"",""h"",""n""]",0,"[3.8174999999999955,4.6462000000029775,5.018000000000029,5.897400000005973]",1,XHN,1,0,1,0,1,,
,,,,,,,,,60113374795b0d000a98b896,35,Mężczyzna,2022-06-04_08h18.08.101,task,2021.1.4,Win32,59.79073244,628b806c463b948bc644b84f,629af9128e5c974c5174547b,,,,,,,,,,,,,,,,,,,,,,,,5,,,,,,,,,,Task,12,(4x4) - 11,5,,,,,,,,,,,,,,,,,,,1,,,,,,,,,,,,,,,,,,,,,,,"[""5""]",1,[5.51119999998798],0,0,0,11,1,,,,,,,,,,,,,,,,,,
,,,,,,,,,60113374795b0d000a98b896,35,Mężczyzna,2022-06-04_08h18.08.101,task,2021.1.4,Win32,59.79073244,628b806c463b948bc644b84f,629af9128e5c974c5174547b,,,,,,,,,,,X V Q F H G B L J M P D K C T S W R N Z,,,,,,,,,,,,,,,,,,,,,,,,,,,,,,,,,,,,,,,,,,,,,,,,,,,,,,,,,,,,,,,,,,,,,,,,,,,,0,0,0,0,1,,,,,,,,,,,,,
,,,,,,,,,60113374795b0d000a98b896,35,Mężczyzna,2022-06-04_08h18.08.101,task,2021.1.4,Win32,59.79073244,628b806c463b948bc644b84f,629af9128e5c974c5174547b,,,,,,,,,,,,,,,,,,,,,,,,2,,,,,,,,,,Task,2,(2x2) - 2,2,,,,,,,,,,,,,,,,,,,1,,,,,,,,,,,,,,,,,,,,,,,"[""2""]",1,[2.3297999999970216],0,0,0,1,1,,,,,,,,,,,,,,,,,,
,,,,,,,,,60113374795b0d000a98b896,35,Mężczyzna,2022-06-04_08h18.08.101,task,2021.1.4,Win32,59.79073244,628b806c463b948bc644b84f,629af9128e5c974c5174547b,,,,,,,,,,,X V Q F H G B L J M P D K C T S W R N Z,,,,,,,,,,,,,,,,,,,,,,,,,,,,,,,,,,,,,,,,,,,,,,,,,,,,,,,,,,,,,,,,,,,,,,,,,,,,1,0,1,0,1,,,,,,,,,,,,,
,,,,,,,,,60113374795b0d000a98b896,35,Mężczyzna,2022-06-04_08h18.08.101,task,2021.1.4,Win32,59.79073244,628b806c463b948bc644b84f,629af9128e5c974c5174547b,,,,,,,,,,,,,,,,,,,,,,,,3,,,,,,,,,,Task,3,(2x3) - 3,3,,,,,,,,,,,,,,,,,,,1,,,,,,,,,,,,,,,,,,,,,,,"[""3""]",1,[2.9432000000028893],0,0,0,2,1,,,,,,,,,,,,,,,,,,
,,,,,,,,,60113374795b0d000a98b896,35,Mężczyzna,2022-06-04_08h18.08.101,task,2021.1.4,Win32,59.79073244,628b806c463b948bc644b84f,629af9128e5c974c5174547b,,,,,,,,,,,X V Q F H G B L J M P D K C T S W R N Z,,,,,,,,,,,,,,,,,,,,,,,,,,,,,,,,,,,,,,,,,,,,,,,,,,,,,,,,,,,,,,,,,,,,,,,,,,,,2,0,2,0,1,,,,,,,,,,,,,
,,,,,,,,,60113374795b0d000a98b896,35,Mężczyzna,2022-06-04_08h18.08.101,task,2021.1.4,Win32,59.79073244,628b806c463b948bc644b84f,629af9128e5c974c5174547b,,,,,,,,,,,,,,,,,,,,,,,,3,,,,,,,,,,Task,20,(18/9) + 1,3,,,,,,,,,,,,,,,,,,,1,,,,,,,,,,,,,,,,,,,,,,,"[""3""]",1,[3.658999999999992],0,0,0,19,1,,,,,,,,,,,,,,,,,,
,,,,,,,,,60113374795b0d000a98b896,35,Mężczyzna,2022-06-04_08h18.08.101,task,2021.1.4,Win32,59.79073244,628b806c463b948bc644b84f,629af9128e5c974c5174547b,,,,,,,,,,,X V Q F H G B L J M P D K C T S W R N Z,,,,,,,,,,,,,,,,,,,,,,,,,,,,,,,,,,,,,,,,,,,,,,,,,,,,,,,,,,,,,,,,,,,,,,,,,,,,3,0,3,0,1,,,,,,,,,,,,,
,,,,,,,,,60113374795b0d000a98b896,35,Mężczyzna,2022-06-04_08h18.08.101,task,2021.1.4,Win32,59.79073244,628b806c463b948bc644b84f,629af9128e5c974c5174547b,,,,,,,,,,,,,,,,,,,,,,,,,,,,,,,,,,,,,,,,,,,,,,,,,,,,,,,,,,,,,,,,,,,,,,,,,,,,,,,,,,,,,,,,,,,,zcpl,"[""z"",""c"",""p"",""l""]",0,"[3.3206000000088807,3.853100000008908,5.237900000005993,5.451400000005947,6.38149999999996]",1,ZCPL,2,0,2,0,1,,
,,,,,,,,,60113374795b0d000a98b896,35,Mężczyzna,2022-06-04_08h18.08.101,task,2021.1.4,Win32,59.79073244,628b806c463b948bc644b84f,629af9128e5c974c5174547b,,,,,,,,,,,,,,,,,,,,,,,,1,,,,,,,,,,Task,1,(12/6) - 1,1,,,,,,,,,,,,,,,,,,,1,,,,,,,,,,,,,,,,,,,,,,,"[""1""]",1,[6.329000000000065],0,0,0,0,1,,,,,,,,,,,,,,,,,,
,,,,,,,,,60113374795b0d000a98b896,35,Mężczyzna,2022-06-04_08h18.08.101,task,2021.1.4,Win32,59.79073244,628b806c463b948bc644b84f,629af9128e5c974c5174547b,,,,,,,,,,,X V Q F H G B L J M P D K C T S W R N Z,,,,,,,,,,,,,,,,,,,,,,,,,,,,,,,,,,,,,,,,,,,,,,,,,,,,,,,,,,,,,,,,,,,,,,,,,,,,0,0,0,0,1,,,,,,,,,,,,,
,,,,,,,,,60113374795b0d000a98b896,35,Mężczyzna,2022-06-04_08h18.08.101,task,2021.1.4,Win32,59.79073244,628b806c463b948bc644b84f,629af9128e5c974c5174547b,,,,,,,,,,,,,,,,,,,,,,,,2,,,,,,,,,,Task,26,(2x9) - 16,2,,,,,,,,,,,,,,,,,,,1,,,,,,,,,,,,,,,,,,,,,,,"[""2""]",1,[1.9829999999999472],0,0,0,25,1,,,,,,,,,,,,,,,,,,
,,,,,,,,,60113374795b0d000a98b896,35,Mężczyzna,2022-06-04_08h18.08.101,task,2021.1.4,Win32,59.79073244,628b806c463b948bc644b84f,629af9128e5c974c5174547b,,,,,,,,,,,X V Q F H G B L J M P D K C T S W R N Z,,,,,,,,,,,,,,,,,,,,,,,,,,,,,,,,,,,,,,,,,,,,,,,,,,,,,,,,,,,,,,,,,,,,,,,,,,,,1,0,1,0,1,,,,,,,,,,,,,
,,,,,,,,,60113374795b0d000a98b896,35,Mężczyzna,2022-06-04_08h18.08.101,task,2021.1.4,Win32,59.79073244,628b806c463b948bc644b84f,629af9128e5c974c5174547b,,,,,,,,,,,,,,,,,,,,,,,,4,,,,,,,,,,Task,28,(2x5) - 6,4,,,,,,,,,,,,,,,,,,,1,,,,,,,,,,,,,,,,,,,,,,,"[""4""]",1,[2.4265000000000327],0,0,0,27,1,,,,,,,,,,,,,,,,,,
,,,,,,,,,60113374795b0d000a98b896,35,Mężczyzna,2022-06-04_08h18.08.101,task,2021.1.4,Win32,59.79073244,628b806c463b948bc644b84f,629af9128e5c974c5174547b,,,,,,,,,,,X V Q F H G B L J M P D K C T S W R N Z,,,,,,,,,,,,,,,,,,,,,,,,,,,,,,,,,,,,,,,,,,,,,,,,,,,,,,,,,,,,,,,,,,,,,,,,,,,,2,0,2,0,1,,,,,,,,,,,,,
,,,,,,,,,60113374795b0d000a98b896,35,Mężczyzna,2022-06-04_08h18.08.101,task,2021.1.4,Win32,59.79073244,628b806c463b948bc644b84f,629af9128e5c974c5174547b,,,,,,,,,,,,,,,,,,,,,,,,3,,,,,,,,,,Task,3,(2x3) - 3,3,,,,,,,,,,,,,,,,,,,1,,,,,,,,,,,,,,,,,,,,,,,"[""3""]",1,[2.429900000005887],0,0,0,2,1,,,,,,,,,,,,,,,,,,
,,,,,,,,,60113374795b0d000a98b896,35,Mężczyzna,2022-06-04_08h18.08.101,task,2021.1.4,Win32,59.79073244,628b806c463b948bc644b84f,629af9128e5c974c5174547b,,,,,,,,,,,X V Q F H G B L J M P D K C T S W R N Z,,,,,,,,,,,,,,,,,,,,,,,,,,,,,,,,,,,,,,,,,,,,,,,,,,,,,,,,,,,,,,,,,,,,,,,,,,,,3,0,3,0,1,,,,,,,,,,,,,
,,,,,,,,,60113374795b0d000a98b896,35,Mężczyzna,2022-06-04_08h18.08.101,task,2021.1.4,Win32,59.79073244,628b806c463b948bc644b84f,629af9128e5c974c5174547b,,,,,,,,,,,,,,,,,,,,,,,,7,,,,,,,,,,Task,6,(12/2) + 1,7,,,,,,,,,,,,,,,,,,,1,,,,,,,,,,,,,,,,,,,,,,,"[""7""]",1,[2.3132000000030075],0,0,0,5,1,,,,,,,,,,,,,,,,,,
,,,,,,,,,60113374795b0d000a98b896,35,Mężczyzna,2022-06-04_08h18.08.101,task,2021.1.4,Win32,59.79073244,628b806c463b948bc644b84f,629af9128e5c974c5174547b,,,,,,,,,,,X V Q F H G B L J M P D K C T S W R N Z,,,,,,,,,,,,,,,,,,,,,,,,,,,,,,,,,,,,,,,,,,,,,,,,,,,,,,,,,,,,,,,,,,,,,,,,,,,,4,0,4,0,1,,,,,,,,,,,,,
,,,,,,,,,60113374795b0d000a98b896,35,Mężczyzna,2022-06-04_08h18.08.101,task,2021.1.4,Win32,59.79073244,628b806c463b948bc644b84f,629af9128e5c974c5174547b,,,,,,,,,,,,,,,,,,,,,,,,,,,,,,,,,,,,,,,,,,,,,,,,,,,,,,,,,,,,,,,,,,,,,,,,,,,,,,,,,,,,,,,,,,,,wstrt,"[""w"",""s"",""t"",""r"",""t""]",0,"[2.336200000003032,2.6698000000119464,3.970300000012003,4.918300000011982,5.13250000000005,6.330500000000029]",1,WSTRT,3,0,3,0,1,,
,,,,,,,,,60113374795b0d000a98b896,35,Mężczyzna,2022-06-04_08h18.08.101,task,2021.1.4,Win32,59.79073244,628b806c463b948bc644b84f,629af9128e5c974c5174547b,,,,,,,,,,,,,,,,,,,,,,,,7,,,,,,,,,,Task,6,(12/2) + 1,7,,,,,,,,,,,,,,,,,,,1,,,,,,,,,,,,,,,,,,,,,,,"[""7""]",1,[4.848100000009026],0,0,0,5,1,,,,,,,,,,,,,,,,,,
,,,,,,,,,60113374795b0d000a98b896,35,Mężczyzna,2022-06-04_08h18.08.101,task,2021.1.4,Win32,59.79073244,628b806c463b948bc644b84f,629af9128e5c974c5174547b,,,,,,,,,,,X V Q F H G B L J M P D K C T S W R N Z,,,,,,,,,,,,,,,,,,,,,,,,,,,,,,,,,,,,,,,,,,,,,,,,,,,,,,,,,,,,,,,,,,,,,,,,,,,,0,0,0,0,1,,,,,,,,,,,,,
,,,,,,,,,60113374795b0d000a98b896,35,Mężczyzna,2022-06-04_08h18.08.101,task,2021.1.4,Win32,59.79073244,628b806c463b948bc644b84f,629af9128e5c974c5174547b,,,,,,,,,,,,,,,,,,,,,,,,3,,,,,,,,,,Task,35,(1x2) + 1,3,,,,,,,,,,,,,,,,,,,1,,,,,,,,,,,,,,,,,,,,,,,"[""3""]",1,[2.5009999999999764],0,0,0,34,1,,,,,,,,,,,,,,,,,,
,,,,,,,,,60113374795b0d000a98b896,35,Mężczyzna,2022-06-04_08h18.08.101,task,2021.1.4,Win32,59.79073244,628b806c463b948bc644b84f,629af9128e5c974c5174547b,,,,,,,,,,,X V Q F H G B L J M P D K C T S W R N Z,,,,,,,,,,,,,,,,,,,,,,,,,,,,,,,,,,,,,,,,,,,,,,,,,,,,,,,,,,,,,,,,,,,,,,,,,,,,1,0,1,0,1,,,,,,,,,,,,,
,,,,,,,,,60113374795b0d000a98b896,35,Mężczyzna,2022-06-04_08h18.08.101,task,2021.1.4,Win32,59.79073244,628b806c463b948bc644b84f,629af9128e5c974c5174547b,,,,,,,,,,,,,,,,,,,,,,,,1,,,,,,,,,,Task,1,(12/6) - 1,1,,,,,,,,,,,,,,,,,,,1,,,,,,,,,,,,,,,,,,,,,,,"[""1""]",1,[3.1159999999999854],0,0,0,0,1,,,,,,,,,,,,,,,,,,
,,,,,,,,,60113374795b0d000a98b896,35,Mężczyzna,2022-06-04_08h18.08.101,task,2021.1.4,Win32,59.79073244,628b806c463b948bc644b84f,629af9128e5c974c5174547b,,,,,,,,,,,X V Q F H G B L J M P D K C T S W R N Z,,,,,,,,,,,,,,,,,,,,,,,,,,,,,,,,,,,,,,,,,,,,,,,,,,,,,,,,,,,,,,,,,,,,,,,,,,,,2,0,2,0,1,,,,,,,,,,,,,
,,,,,,,,,60113374795b0d000a98b896,35,Mężczyzna,2022-06-04_08h18.08.101,task,2021.1.4,Win32,59.79073244,628b806c463b948bc644b84f,629af9128e5c974c5174547b,,,,,,,,,,,,,,,,,,,,,,,,0,,,,,,,,,,Task,33,(1/1) - 1,0,,,,,,,,,,,,,,,,,,,1,,,,,,,,,,,,,,,,,,,,,,,"[""0""]",1,[2.431900000005953],0,0,0,32,1,,,,,,,,,,,,,,,,,,
,,,,,,,,,60113374795b0d000a98b896,35,Mężczyzna,2022-06-04_08h18.08.101,task,2021.1.4,Win32,59.79073244,628b806c463b948bc644b84f,629af9128e5c974c5174547b,,,,,,,,,,,X V Q F H G B L J M P D K C T S W R N Z,,,,,,,,,,,,,,,,,,,,,,,,,,,,,,,,,,,,,,,,,,,,,,,,,,,,,,,,,,,,,,,,,,,,,,,,,,,,3,0,3,0,1,,,,,,,,,,,,,
,,,,,,,,,60113374795b0d000a98b896,35,Mężczyzna,2022-06-04_08h18.08.101,task,2021.1.4,Win32,59.79073244,628b806c463b948bc644b84f,629af9128e5c974c5174547b,,,,,,,,,,,,,,,,,,,,,,,,2,,,,,,,,,,Task,10,(2x5) - 8,2,,,,,,,,,,,,,,,,,,,1,,,,,,,,,,,,,,,,,,,,,,,"[""2""]",1,[3.529399999991142],0,0,0,9,1,,,,,,,,,,,,,,,,,,
,,,,,,,,,60113374795b0d000a98b896,35,Mężczyzna,2022-06-04_08h18.08.101,task,2021.1.4,Win32,59.79073244,628b806c463b948bc644b84f,629af9128e5c974c5174547b,,,,,,,,,,,X V Q F H G B L J M P D K C T S W R N Z,,,,,,,,,,,,,,,,,,,,,,,,,,,,,,,,,,,,,,,,,,,,,,,,,,,,,,,,,,,,,,,,,,,,,,,,,,,,4,0,4,0,1,,,,,,,,,,,,,
,,,,,,,,,60113374795b0d000a98b896,35,Mężczyzna,2022-06-04_08h18.08.101,task,2021.1.4,Win32,59.79073244,628b806c463b948bc644b84f,629af9128e5c974c5174547b,,,,,,,,,,,,,,,,,,,,,,,,5,,,,,,,,,,Task,22,(3x1) + 2,5,,,,,,,,,,,,,,,,,,,1,,,,,,,,,,,,,,,,,,,,,,,"[""5""]",1,[2.479400000005967],0,0,0,21,1,,,,,,,,,,,,,,,,,,
,,,,,,,,,60113374795b0d000a98b896,35,Mężczyzna,2022-06-04_08h18.08.101,task,2021.1.4,Win32,59.79073244,628b806c463b948bc644b84f,629af9128e5c974c5174547b,,,,,,,,,,,X V Q F H G B L J M P D K C T S W R N Z,,,,,,,,,,,,,,,,,,,,,,,,,,,,,,,,,,,,,,,,,,,,,,,,,,,,,,,,,,,,,,,,,,,,,,,,,,,,5,0,5,0,1,,,,,,,,,,,,,
,,,,,,,,,60113374795b0d000a98b896,35,Mężczyzna,2022-06-04_08h18.08.101,task,2021.1.4,Win32,59.79073244,628b806c463b948bc644b84f,629af9128e5c974c5174547b,,,,,,,,,,,,,,,,,,,,,,,,,,,,,,,,,,,,,,,,,,,,,,,,,,,,,,,,,,,,,,,,,,,,,,,,,,,,,,,,,,,,,,,,,,,,jhcrxk,"[""j"",""h"",""c"",""r"",""x"",""k""]",0,"[3.017100000008895,4.198400000005904,5.129400000005944,5.711400000005938,7.6095000000000255,9.473999999999933,10.656700000002957]",0,JHCRKK,4,0,4,0,1,,
,,,,,,,,,60113374795b0d000a98b896,35,Mężczyzna,2022-06-04_08h18.08.101,task,2021.1.4,Win32,59.79073244,628b806c463b948bc644b84f,629af9128e5c974c5174547b,,,,,,,,,,,,,,,,,,,,,,,,2,,,,,,,,,,Task,10,(2x5) - 8,2,,,,,,,,,,,,,,,,,,,1,,,,,,,,,,,,,,,,,,,,,,,"[""2""]",1,[2.1998999999910893],0,0,0,9,1,,,,,,,,,,,,,,,,,,
,,,,,,,,,60113374795b0d000a98b896,35,Mężczyzna,2022-06-04_08h18.08.101,task,2021.1.4,Win32,59.79073244,628b806c463b948bc644b84f,629af9128e5c974c5174547b,,,,,,,,,,,X V Q F H G B L J M P D K C T S W R N Z,,,,,,,,,,,,,,,,,,,,,,,,,,,,,,,,,,,,,,,,,,,,,,,,,,,,,,,,,,,,,,,,,,,,,,,,,,,,0,0,0,0,1,,,,,,,,,,,,,
,,,,,,,,,60113374795b0d000a98b896,35,Mężczyzna,2022-06-04_08h18.08.101,task,2021.1.4,Win32,59.79073244,628b806c463b948bc644b84f,629af9128e5c974c5174547b,,,,,,,,,,,,,,,,,,,,,,,,5,,,,,,,,,,Task,12,(4x4) - 11,5,,,,,,,,,,,,,,,,,,,1,,,,,,,,,,,,,,,,,,,,,,,"[""5""]",1,[5.280200000002992],0,0,0,11,1,,,,,,,,,,,,,,,,,,
,,,,,,,,,60113374795b0d000a98b896,35,Mężczyzna,2022-06-04_08h18.08.101,task,2021.1.4,Win32,59.79073244,628b806c463b948bc644b84f,629af9128e5c974c5174547b,,,,,,,,,,,X V Q F H G B L J M P D K C T S W R N Z,,,,,,,,,,,,,,,,,,,,,,,,,,,,,,,,,,,,,,,,,,,,,,,,,,,,,,,,,,,,,,,,,,,,,,,,,,,,1,0,1,0,1,,,,,,,,,,,,,
,,,,,,,,,60113374795b0d000a98b896,35,Mężczyzna,2022-06-04_08h18.08.101,task,2021.1.4,Win32,59.79073244,628b806c463b948bc644b84f,629af9128e5c974c5174547b,,,,,,,,,,,,,,,,,,,,,,,,5,,,,,,,,,,Task,12,(4x4) - 11,5,,,,,,,,,,,,,,,,,,,1,,,,,,,,,,,,,,,,,,,,,,,"[""5""]",1,[4.247599999994009],0,0,0,11,1,,,,,,,,,,,,,,,,,,
,,,,,,,,,60113374795b0d000a98b896,35,Mężczyzna,2022-06-04_08h18.08.101,task,2021.1.4,Win32,59.79073244,628b806c463b948bc644b84f,629af9128e5c974c5174547b,,,,,,,,,,,X V Q F H G B L J M P D K C T S W R N Z,,,,,,,,,,,,,,,,,,,,,,,,,,,,,,,,,,,,,,,,,,,,,,,,,,,,,,,,,,,,,,,,,,,,,,,,,,,,2,0,2,0,1,,,,,,,,,,,,,
,,,,,,,,,60113374795b0d000a98b896,35,Mężczyzna,2022-06-04_08h18.08.101,task,2021.1.4,Win32,59.79073244,628b806c463b948bc644b84f,629af9128e5c974c5174547b,,,,,,,,,,,,,,,,,,,,,,,,0,,,,,,,,,,Task,8,(1x5) - 5,0,,,,,,,,,,,,,,,,,,,1,,,,,,,,,,,,,,,,,,,,,,,"[""0""]",1,[2.3877999999970143],0,0,0,7,1,,,,,,,,,,,,,,,,,,
,,,,,,,,,60113374795b0d000a98b896,35,Mężczyzna,2022-06-04_08h18.08.101,task,2021.1.4,Win32,59.79073244,628b806c463b948bc644b84f,629af9128e5c974c5174547b,,,,,,,,,,,X V Q F H G B L J M P D K C T S W R N Z,,,,,,,,,,,,,,,,,,,,,,,,,,,,,,,,,,,,,,,,,,,,,,,,,,,,,,,,,,,,,,,,,,,,,,,,,,,,3,0,3,0,1,,,,,,,,,,,,,
,,,,,,,,,60113374795b0d000a98b896,35,Mężczyzna,2022-06-04_08h18.08.101,task,2021.1.4,Win32,59.79073244,628b806c463b948bc644b84f,629af9128e5c974c5174547b,,,,,,,,,,,,,,,,,,,,,,,,5,,,,,,,,,,Task,4,(1x5) - 1,4,,,,,,,,,,,,,,,,,,,0,,,,,,,,,,,,,,,,,,,,,,,"[""5""]",0,[3.330899999991061],0,0,0,3,1,,,,,,,,,,,,,,,,,,
,,,,,,,,,60113374795b0d000a98b896,35,Mężczyzna,2022-06-04_08h18.08.101,task,2021.1.4,Win32,59.79073244,628b806c463b948bc644b84f,629af9128e5c974c5174547b,,,,,,,,,,,,,,,,,,,,,,,,3,,,,,,,,,,Task,3,(2x3) - 3,3,,,,,,,,,,,,,,,,,,,1,,,,,,,,,,,,,,,,,,,,,,,"[""3""]",1,[3.8131000000089443],0,1,1,2,1,,,,,,,,,,,,,,,,,,
,,,,,,,,,60113374795b0d000a98b896,35,Mężczyzna,2022-06-04_08h18.08.101,task,2021.1.4,Win32,59.79073244,628b806c463b948bc644b84f,629af9128e5c974c5174547b,,,,,,,,,,,X V Q F H G B L J M P D K C T S W R N Z,,,,,,,,,,,,,,,,,,,,,,,,,,,,,,,,,,,,,,,,,,,,,,,,,,,,,,,,,,,,,,,,,,,,,,,,,,,,4,0,4,0,1,,,,,,,,,,,,,
,,,,,,,,,60113374795b0d000a98b896,35,Mężczyzna,2022-06-04_08h18.08.101,task,2021.1.4,Win32,59.79073244,628b806c463b948bc644b84f,629af9128e5c974c5174547b,,,,,,,,,,,,,,,,,,,,,,,,6,,,,,,,,,,Task,13,(3x4) - 6,6,,,,,,,,,,,,,,,,,,,1,,,,,,,,,,,,,,,,,,,,,,,"[""6""]",1,[3.9100999999940314],0,0,0,12,1,,,,,,,,,,,,,,,,,,
,,,,,,,,,60113374795b0d000a98b896,35,Mężczyzna,2022-06-04_08h18.08.101,task,2021.1.4,Win32,59.79073244,628b806c463b948bc644b84f,629af9128e5c974c5174547b,,,,,,,,,,,X V Q F H G B L J M P D K C T S W R N Z,,,,,,,,,,,,,,,,,,,,,,,,,,,,,,,,,,,,,,,,,,,,,,,,,,,,,,,,,,,,,,,,,,,,,,,,,,,,5,0,5,0,1,,,,,,,,,,,,,
,,,,,,,,,60113374795b0d000a98b896,35,Mężczyzna,2022-06-04_08h18.08.101,task,2021.1.4,Win32,59.79073244,628b806c463b948bc644b84f,629af9128e5c974c5174547b,,,,,,,,,,,,,,,,,,,,,,,,,,,,,,,,,,,,,,,,,,,,,,,,,,,,,,,,,,,,,,,,,,,,,,,,,,,,,,,,,,,,,,,,,,,,ccmnzy,"[""c"",""c"",""m"",""n"",""z"",""y""]",0,"[2.5146000000089543,2.7143000000119173,4.446200000003046,5.728900000005979,6.380500000000097,6.82940000000599,7.692700000003015]",0,CCMNZX,5,0,5,0,1,,
,,,,,,,,,60113374795b0d000a98b896,35,Mężczyzna,2022-06-04_08h18.08.101,task,2021.1.4,Win32,59.79073244,628b806c463b948bc644b84f,629af9128e5c974c5174547b,,,,,,,,,,,,,,,,,,,,,,,,,,,,,,,,,,,,,,,,,,,,,,,,,,,,,,,,,,,,,,,,,,,,,,,,,,,,,,,,,,,,,,,,,,,,,,,,,,,,,,,space,2.8917
