key_resp_15.keys,key_resp_15.rt,key_resp_16.keys,key_resp_16.rt,key_resp_4.keys,key_resp_4.rt,next_letter.thisRepN,next_letter.thisTrialN,next_letter.thisN,next_letter.thisIndex,next_letter.ran,letter,participant,Wiek*,Płeć,date,expName,psychopyVersion,OS,frameRate,study_id,session,simple_recall,key_resp_5.keys,key_resp_5.rt,simple_recall_corr,simple_recall_corrkeys,next_level.thisRepN,next_level.thisTrialN,next_level.thisN,next_level.thisIndex,next_level.ran,key_resp_2.keys,key_resp_2.rt,digit_answer,key_resp.keys,key_resp.corr,key_resp.rt,RT_list,next_equation.thisRepN,next_equation.thisTrialN,next_equation.thisN,next_equation.thisIndex,next_equation.ran,Task,Trial,Problem,Operation_answer,processing_score,sumRT,meanRT,sumdiff,sd,RT,key_resp_3.keys,key_resp_3.rt,repeat_practice.thisRepN,repeat_practice.thisTrialN,repeat_practice.thisN,repeat_practice.thisIndex,repeat_practice.ran,key_resp_6.keys,key_resp_6.rt,key_resp_11.keys,key_resp_11.corr,key_resp_11.rt,operation_correct,repeat_if_wrong_prac.thisRepN,repeat_if_wrong_prac.thisTrialN,repeat_if_wrong_prac.thisN,repeat_if_wrong_prac.thisIndex,repeat_if_wrong_prac.ran,span_size_prac.thisRepN,span_size_prac.thisTrialN,span_size_prac.thisN,span_size_prac.thisIndex,span_size_prac.ran,complex_recall_practice,key_resp_9.keys,key_resp_9.corr,key_resp_9.rt,complex_prac_corr,span_recall_prac.thisRepN,span_recall_prac.thisTrialN,span_recall_prac.thisN,span_recall_prac.thisIndex,span_recall_prac.ran,key_resp_10.keys,key_resp_10.rt,key_resp_7.keys,key_resp_7.corr,key_resp_7.rt,repeat_if_wrong.thisRepN,repeat_if_wrong.thisTrialN,repeat_if_wrong.thisN,repeat_if_wrong.thisIndex,repeat_if_wrong.ran,span_size.thisRepN,span_size.thisTrialN,span_size.thisN,span_size.thisIndex,span_size.ran,complex_recall,key_resp_8.keys,key_resp_8.corr,key_resp_8.rt,complex_recall_corr,complex_recall_corrkeys,span_recall.thisRepN,span_recall.thisTrialN,span_recall.thisN,span_recall.thisIndex,span_recall.ran,key_resp_13.keys,key_resp_13.corr,key_resp_13.rt,random_loop.thisRepN,random_loop.thisTrialN,random_loop.thisN,random_loop.thisIndex,random_loop.ran,key_resp_12.keys,key_resp_12.rt
space,12.7285,space,16.8619,space,6.9007,0,0,0,0,1,X V Q F H G B L J M P D K C T S W R N Z,60185218bc28d50a56653c58,21,Mężczyzna,2022-06-11_09h31.08.072,task,2021.1.4,Win32,144.0092166,6299f149e92ead563fba08ef,62a444b274f65a87f4d5f273,,,,,,,,,,,,,,,,,,,,,,,,,,,,,,,,,,,,,,,,,,,,,,,,,,,,,,,,,,,,,,,,,,,,,,,,,,,,,,,,,,,,,,,,,,,,,,,,,,,,,
,,,,,,1,0,1,0,1,X V Q F H G B L J M P D K C T S W R N Z,60185218bc28d50a56653c58,21,Mężczyzna,2022-06-11_09h31.08.072,task,2021.1.4,Win32,144.0092166,6299f149e92ead563fba08ef,62a444b274f65a87f4d5f273,,,,,,,,,,,,,,,,,,,,,,,,,,,,,,,,,,,,,,,,,,,,,,,,,,,,,,,,,,,,,,,,,,,,,,,,,,,,,,,,,,,,,,,,,,,,,,,,,,,,,
,,,,,,,,,,,,60185218bc28d50a56653c58,21,Mężczyzna,2022-06-11_09h31.08.072,task,2021.1.4,Win32,144.0092166,6299f149e92ead563fba08ef,62a444b274f65a87f4d5f273,zj,"[""z"",""j""]","[2.1658999996185315,2.4073999996185336,4.240000000000002]",1,ZJ,0,0,0,0,1,,,,,,,,,,,,,,,,,,,,,,,,,,,,,,,,,,,,,,,,,,,,,,,,,,,,,,,,,,,,,,,,,,,,,,,,,,,,,,,,,,,,,,,,,,,
,,,,,,0,0,0,0,1,X V Q F H G B L J M P D K C T S W R N Z,60185218bc28d50a56653c58,21,Mężczyzna,2022-06-11_09h31.08.072,task,2021.1.4,Win32,144.0092166,6299f149e92ead563fba08ef,62a444b274f65a87f4d5f273,,,,,,,,,,,,,,,,,,,,,,,,,,,,,,,,,,,,,,,,,,,,,,,,,,,,,,,,,,,,,,,,,,,,,,,,,,,,,,,,,,,,,,,,,,,,,,,,,,,,,
,,,,,,1,0,1,0,1,X V Q F H G B L J M P D K C T S W R N Z,60185218bc28d50a56653c58,21,Mężczyzna,2022-06-11_09h31.08.072,task,2021.1.4,Win32,144.0092166,6299f149e92ead563fba08ef,62a444b274f65a87f4d5f273,,,,,,,,,,,,,,,,,,,,,,,,,,,,,,,,,,,,,,,,,,,,,,,,,,,,,,,,,,,,,,,,,,,,,,,,,,,,,,,,,,,,,,,,,,,,,,,,,,,,,
,,,,,,,,,,,,60185218bc28d50a56653c58,21,Mężczyzna,2022-06-11_09h31.08.072,task,2021.1.4,Win32,144.0092166,6299f149e92ead563fba08ef,62a444b274f65a87f4d5f273,md,"[""m"",""d""]","[1.5579999999999998,1.8360999999046328,2.281399999618529]",1,MD,1,0,1,0,1,,,,,,,,,,,,,,,,,,,,,,,,,,,,,,,,,,,,,,,,,,,,,,,,,,,,,,,,,,,,,,,,,,,,,,,,,,,,,,,,,,,,,,,,,,,
,,,,,,0,0,0,0,1,X V Q F H G B L J M P D K C T S W R N Z,60185218bc28d50a56653c58,21,Mężczyzna,2022-06-11_09h31.08.072,task,2021.1.4,Win32,144.0092166,6299f149e92ead563fba08ef,62a444b274f65a87f4d5f273,,,,,,,,,,,,,,,,,,,,,,,,,,,,,,,,,,,,,,,,,,,,,,,,,,,,,,,,,,,,,,,,,,,,,,,,,,,,,,,,,,,,,,,,,,,,,,,,,,,,,
,,,,,,1,0,1,0,1,X V Q F H G B L J M P D K C T S W R N Z,60185218bc28d50a56653c58,21,Mężczyzna,2022-06-11_09h31.08.072,task,2021.1.4,Win32,144.0092166,6299f149e92ead563fba08ef,62a444b274f65a87f4d5f273,,,,,,,,,,,,,,,,,,,,,,,,,,,,,,,,,,,,,,,,,,,,,,,,,,,,,,,,,,,,,,,,,,,,,,,,,,,,,,,,,,,,,,,,,,,,,,,,,,,,,
,,,,,,2,0,2,0,1,X V Q F H G B L J M P D K C T S W R N Z,60185218bc28d50a56653c58,21,Mężczyzna,2022-06-11_09h31.08.072,task,2021.1.4,Win32,144.0092166,6299f149e92ead563fba08ef,62a444b274f65a87f4d5f273,,,,,,,,,,,,,,,,,,,,,,,,,,,,,,,,,,,,,,,,,,,,,,,,,,,,,,,,,,,,,,,,,,,,,,,,,,,,,,,,,,,,,,,,,,,,,,,,,,,,,
,,,,,,,,,,,,60185218bc28d50a56653c58,21,Mężczyzna,2022-06-11_09h31.08.072,task,2021.1.4,Win32,144.0092166,6299f149e92ead563fba08ef,62a444b274f65a87f4d5f273,xpn,"[""x"",""p"",""n""]","[0.45469999980926445,0.615000000000002,1.0313999996185288,1.6710999999046336]",1,XPN,2,0,2,0,1,,,,,,,,,,,,,,,,,,,,,,,,,,,,,,,,,,,,,,,,,,,,,,,,,,,,,,,,,,,,,,,,,,,,,,,,,,,,,,,,,,,,,,,,,,,
,,,,,,0,0,0,0,1,X V Q F H G B L J M P D K C T S W R N Z,60185218bc28d50a56653c58,21,Mężczyzna,2022-06-11_09h31.08.072,task,2021.1.4,Win32,144.0092166,6299f149e92ead563fba08ef,62a444b274f65a87f4d5f273,,,,,,,,,,,,,,,,,,,,,,,,,,,,,,,,,,,,,,,,,,,,,,,,,,,,,,,,,,,,,,,,,,,,,,,,,,,,,,,,,,,,,,,,,,,,,,,,,,,,,
,,,,,,1,0,1,0,1,X V Q F H G B L J M P D K C T S W R N Z,60185218bc28d50a56653c58,21,Mężczyzna,2022-06-11_09h31.08.072,task,2021.1.4,Win32,144.0092166,6299f149e92ead563fba08ef,62a444b274f65a87f4d5f273,,,,,,,,,,,,,,,,,,,,,,,,,,,,,,,,,,,,,,,,,,,,,,,,,,,,,,,,,,,,,,,,,,,,,,,,,,,,,,,,,,,,,,,,,,,,,,,,,,,,,
,,,,,,2,0,2,0,1,X V Q F H G B L J M P D K C T S W R N Z,60185218bc28d50a56653c58,21,Mężczyzna,2022-06-11_09h31.08.072,task,2021.1.4,Win32,144.0092166,6299f149e92ead563fba08ef,62a444b274f65a87f4d5f273,,,,,,,,,,,,,,,,,,,,,,,,,,,,,,,,,,,,,,,,,,,,,,,,,,,,,,,,,,,,,,,,,,,,,,,,,,,,,,,,,,,,,,,,,,,,,,,,,,,,,
,,,,,,,,,,,,60185218bc28d50a56653c58,21,Mężczyzna,2022-06-11_09h31.08.072,task,2021.1.4,Win32,144.0092166,6299f149e92ead563fba08ef,62a444b274f65a87f4d5f273,bkg,"[""b"",""k"",""g""]","[0.643099999904635,0.8857999997138961,1.441599999904625,2.026199999809265]",1,BKG,3,0,3,0,1,,,,,,,,,,,,,,,,,,,,,,,,,,,,,,,,,,,,,,,,,,,,,,,,,,,,,,,,,,,,,,,,,,,,,,,,,,,,,,,,,,,,,,,,,,,
,,,,,,0,0,0,0,1,X V Q F H G B L J M P D K C T S W R N Z,60185218bc28d50a56653c58,21,Mężczyzna,2022-06-11_09h31.08.072,task,2021.1.4,Win32,144.0092166,6299f149e92ead563fba08ef,62a444b274f65a87f4d5f273,,,,,,,,,,,,,,,,,,,,,,,,,,,,,,,,,,,,,,,,,,,,,,,,,,,,,,,,,,,,,,,,,,,,,,,,,,,,,,,,,,,,,,,,,,,,,,,,,,,,,
,,,,,,1,0,1,0,1,X V Q F H G B L J M P D K C T S W R N Z,60185218bc28d50a56653c58,21,Mężczyzna,2022-06-11_09h31.08.072,task,2021.1.4,Win32,144.0092166,6299f149e92ead563fba08ef,62a444b274f65a87f4d5f273,,,,,,,,,,,,,,,,,,,,,,,,,,,,,,,,,,,,,,,,,,,,,,,,,,,,,,,,,,,,,,,,,,,,,,,,,,,,,,,,,,,,,,,,,,,,,,,,,,,,,
,,,,,,2,0,2,0,1,X V Q F H G B L J M P D K C T S W R N Z,60185218bc28d50a56653c58,21,Mężczyzna,2022-06-11_09h31.08.072,task,2021.1.4,Win32,144.0092166,6299f149e92ead563fba08ef,62a444b274f65a87f4d5f273,,,,,,,,,,,,,,,,,,,,,,,,,,,,,,,,,,,,,,,,,,,,,,,,,,,,,,,,,,,,,,,,,,,,,,,,,,,,,,,,,,,,,,,,,,,,,,,,,,,,,
,,,,,,3,0,3,0,1,X V Q F H G B L J M P D K C T S W R N Z,60185218bc28d50a56653c58,21,Mężczyzna,2022-06-11_09h31.08.072,task,2021.1.4,Win32,144.0092166,6299f149e92ead563fba08ef,62a444b274f65a87f4d5f273,,,,,,,,,,,,,,,,,,,,,,,,,,,,,,,,,,,,,,,,,,,,,,,,,,,,,,,,,,,,,,,,,,,,,,,,,,,,,,,,,,,,,,,,,,,,,,,,,,,,,
,,,,,,,,,,,,60185218bc28d50a56653c58,21,Mężczyzna,2022-06-11_09h31.08.072,task,2021.1.4,Win32,144.0092166,6299f149e92ead563fba08ef,62a444b274f65a87f4d5f273,xrxl,"[""x"",""r"",""x"",""l""]","[0.37790000009536584,0.6025999999046263,0.9575999999046303,1.773699999809267,2.162800000190728]",1,XRXL,4,0,4,0,1,,,,,,,,,,,,,,,,,,,,,,,,,,,,,,,,,,,,,,,,,,,,,,,,,,,,,,,,,,,,,,,,,,,,,,,,,,,,,,,,,,,,,,,,,,,
,,,,,,0,0,0,0,1,X V Q F H G B L J M P D K C T S W R N Z,60185218bc28d50a56653c58,21,Mężczyzna,2022-06-11_09h31.08.072,task,2021.1.4,Win32,144.0092166,6299f149e92ead563fba08ef,62a444b274f65a87f4d5f273,,,,,,,,,,,,,,,,,,,,,,,,,,,,,,,,,,,,,,,,,,,,,,,,,,,,,,,,,,,,,,,,,,,,,,,,,,,,,,,,,,,,,,,,,,,,,,,,,,,,,
,,,,,,1,0,1,0,1,X V Q F H G B L J M P D K C T S W R N Z,60185218bc28d50a56653c58,21,Mężczyzna,2022-06-11_09h31.08.072,task,2021.1.4,Win32,144.0092166,6299f149e92ead563fba08ef,62a444b274f65a87f4d5f273,,,,,,,,,,,,,,,,,,,,,,,,,,,,,,,,,,,,,,,,,,,,,,,,,,,,,,,,,,,,,,,,,,,,,,,,,,,,,,,,,,,,,,,,,,,,,,,,,,,,,
,,,,,,2,0,2,0,1,X V Q F H G B L J M P D K C T S W R N Z,60185218bc28d50a56653c58,21,Mężczyzna,2022-06-11_09h31.08.072,task,2021.1.4,Win32,144.0092166,6299f149e92ead563fba08ef,62a444b274f65a87f4d5f273,,,,,,,,,,,,,,,,,,,,,,,,,,,,,,,,,,,,,,,,,,,,,,,,,,,,,,,,,,,,,,,,,,,,,,,,,,,,,,,,,,,,,,,,,,,,,,,,,,,,,
,,,,,,3,0,3,0,1,X V Q F H G B L J M P D K C T S W R N Z,60185218bc28d50a56653c58,21,Mężczyzna,2022-06-11_09h31.08.072,task,2021.1.4,Win32,144.0092166,6299f149e92ead563fba08ef,62a444b274f65a87f4d5f273,,,,,,,,,,,,,,,,,,,,,,,,,,,,,,,,,,,,,,,,,,,,,,,,,,,,,,,,,,,,,,,,,,,,,,,,,,,,,,,,,,,,,,,,,,,,,,,,,,,,,
,,,,,,,,,,,,60185218bc28d50a56653c58,21,Mężczyzna,2022-06-11_09h31.08.072,task,2021.1.4,Win32,144.0092166,6299f149e92ead563fba08ef,62a444b274f65a87f4d5f273,zsjf,"[""z"",""s"",""j"",""f""]","[0.5246000003814828,0.8928000001907463,1.0940000000000083,1.5678000001907435,2.142300000190744]",1,ZSJF,5,0,5,0,1,,,,,,,,,,,,,,,,,,,,,,,,,,,,,,,,,,,,,,,,,,,,,,,,,,,,,,,,,,,,,,,,,,,,,,,,,,,,,,,,,,,,,,,,,,,
,,,,,,0,0,0,0,1,X V Q F H G B L J M P D K C T S W R N Z,60185218bc28d50a56653c58,21,Mężczyzna,2022-06-11_09h31.08.072,task,2021.1.4,Win32,144.0092166,6299f149e92ead563fba08ef,62a444b274f65a87f4d5f273,,,,,,,,,,,,,,,,,,,,,,,,,,,,,,,,,,,,,,,,,,,,,,,,,,,,,,,,,,,,,,,,,,,,,,,,,,,,,,,,,,,,,,,,,,,,,,,,,,,,,
,,,,,,1,0,1,0,1,X V Q F H G B L J M P D K C T S W R N Z,60185218bc28d50a56653c58,21,Mężczyzna,2022-06-11_09h31.08.072,task,2021.1.4,Win32,144.0092166,6299f149e92ead563fba08ef,62a444b274f65a87f4d5f273,,,,,,,,,,,,,,,,,,,,,,,,,,,,,,,,,,,,,,,,,,,,,,,,,,,,,,,,,,,,,,,,,,,,,,,,,,,,,,,,,,,,,,,,,,,,,,,,,,,,,
,,,,,,2,0,2,0,1,X V Q F H G B L J M P D K C T S W R N Z,60185218bc28d50a56653c58,21,Mężczyzna,2022-06-11_09h31.08.072,task,2021.1.4,Win32,144.0092166,6299f149e92ead563fba08ef,62a444b274f65a87f4d5f273,,,,,,,,,,,,,,,,,,,,,,,,,,,,,,,,,,,,,,,,,,,,,,,,,,,,,,,,,,,,,,,,,,,,,,,,,,,,,,,,,,,,,,,,,,,,,,,,,,,,,
,,,,,,3,0,3,0,1,X V Q F H G B L J M P D K C T S W R N Z,60185218bc28d50a56653c58,21,Mężczyzna,2022-06-11_09h31.08.072,task,2021.1.4,Win32,144.0092166,6299f149e92ead563fba08ef,62a444b274f65a87f4d5f273,,,,,,,,,,,,,,,,,,,,,,,,,,,,,,,,,,,,,,,,,,,,,,,,,,,,,,,,,,,,,,,,,,,,,,,,,,,,,,,,,,,,,,,,,,,,,,,,,,,,,
,,,,,,4,0,4,0,1,X V Q F H G B L J M P D K C T S W R N Z,60185218bc28d50a56653c58,21,Mężczyzna,2022-06-11_09h31.08.072,task,2021.1.4,Win32,144.0092166,6299f149e92ead563fba08ef,62a444b274f65a87f4d5f273,,,,,,,,,,,,,,,,,,,,,,,,,,,,,,,,,,,,,,,,,,,,,,,,,,,,,,,,,,,,,,,,,,,,,,,,,,,,,,,,,,,,,,,,,,,,,,,,,,,,,
,,,,,,,,,,,,60185218bc28d50a56653c58,21,Mężczyzna,2022-06-11_09h31.08.072,task,2021.1.4,Win32,144.0092166,6299f149e92ead563fba08ef,62a444b274f65a87f4d5f273,gqsrg,"[""g"",""q"",""s"",""r"",""g""]","[0.553600000381465,1.171300000190726,1.7391000003814696,2.336600000381466,2.766999999999996,3.447900000095359]",0,GQSGJ,6,0,6,0,1,,,,,,,,,,,,,,,,,,,,,,,,,,,,,,,,,,,,,,,,,,,,,,,,,,,,,,,,,,,,,,,,,,,,,,,,,,,,,,,,,,,,,,,,,,,
,,,,,,0,0,0,0,1,X V Q F H G B L J M P D K C T S W R N Z,60185218bc28d50a56653c58,21,Mężczyzna,2022-06-11_09h31.08.072,task,2021.1.4,Win32,144.0092166,6299f149e92ead563fba08ef,62a444b274f65a87f4d5f273,,,,,,,,,,,,,,,,,,,,,,,,,,,,,,,,,,,,,,,,,,,,,,,,,,,,,,,,,,,,,,,,,,,,,,,,,,,,,,,,,,,,,,,,,,,,,,,,,,,,,
,,,,,,1,0,1,0,1,X V Q F H G B L J M P D K C T S W R N Z,60185218bc28d50a56653c58,21,Mężczyzna,2022-06-11_09h31.08.072,task,2021.1.4,Win32,144.0092166,6299f149e92ead563fba08ef,62a444b274f65a87f4d5f273,,,,,,,,,,,,,,,,,,,,,,,,,,,,,,,,,,,,,,,,,,,,,,,,,,,,,,,,,,,,,,,,,,,,,,,,,,,,,,,,,,,,,,,,,,,,,,,,,,,,,
,,,,,,2,0,2,0,1,X V Q F H G B L J M P D K C T S W R N Z,60185218bc28d50a56653c58,21,Mężczyzna,2022-06-11_09h31.08.072,task,2021.1.4,Win32,144.0092166,6299f149e92ead563fba08ef,62a444b274f65a87f4d5f273,,,,,,,,,,,,,,,,,,,,,,,,,,,,,,,,,,,,,,,,,,,,,,,,,,,,,,,,,,,,,,,,,,,,,,,,,,,,,,,,,,,,,,,,,,,,,,,,,,,,,
,,,,,,3,0,3,0,1,X V Q F H G B L J M P D K C T S W R N Z,60185218bc28d50a56653c58,21,Mężczyzna,2022-06-11_09h31.08.072,task,2021.1.4,Win32,144.0092166,6299f149e92ead563fba08ef,62a444b274f65a87f4d5f273,,,,,,,,,,,,,,,,,,,,,,,,,,,,,,,,,,,,,,,,,,,,,,,,,,,,,,,,,,,,,,,,,,,,,,,,,,,,,,,,,,,,,,,,,,,,,,,,,,,,,
,,,,,,4,0,4,0,1,X V Q F H G B L J M P D K C T S W R N Z,60185218bc28d50a56653c58,21,Mężczyzna,2022-06-11_09h31.08.072,task,2021.1.4,Win32,144.0092166,6299f149e92ead563fba08ef,62a444b274f65a87f4d5f273,,,,,,,,,,,,,,,,,,,,,,,,,,,,,,,,,,,,,,,,,,,,,,,,,,,,,,,,,,,,,,,,,,,,,,,,,,,,,,,,,,,,,,,,,,,,,,,,,,,,,
,,,,,,,,,,,,60185218bc28d50a56653c58,21,Mężczyzna,2022-06-11_09h31.08.072,task,2021.1.4,Win32,144.0092166,6299f149e92ead563fba08ef,62a444b274f65a87f4d5f273,dgdqm,"[""d"",""g"",""d"",""q"",""m""]","[0.3147000002861091,0.5584000000953608,0.7392000002861039,1.2956000003814694,2.050700000286099,2.3296000003814754]",1,DGDQM,7,0,7,0,1,,,,,,,,,,,,,,,,,,,,,,,,,,,,,,,,,,,,,,,,,,,,,,,,,,,,,,,,,,,,,,,,,,,,,,,,,,,,,,,,,,,,,,,,,,,
,,,,,,0,0,0,0,1,X V Q F H G B L J M P D K C T S W R N Z,60185218bc28d50a56653c58,21,Mężczyzna,2022-06-11_09h31.08.072,task,2021.1.4,Win32,144.0092166,6299f149e92ead563fba08ef,62a444b274f65a87f4d5f273,,,,,,,,,,,,,,,,,,,,,,,,,,,,,,,,,,,,,,,,,,,,,,,,,,,,,,,,,,,,,,,,,,,,,,,,,,,,,,,,,,,,,,,,,,,,,,,,,,,,,
,,,,,,1,0,1,0,1,X V Q F H G B L J M P D K C T S W R N Z,60185218bc28d50a56653c58,21,Mężczyzna,2022-06-11_09h31.08.072,task,2021.1.4,Win32,144.0092166,6299f149e92ead563fba08ef,62a444b274f65a87f4d5f273,,,,,,,,,,,,,,,,,,,,,,,,,,,,,,,,,,,,,,,,,,,,,,,,,,,,,,,,,,,,,,,,,,,,,,,,,,,,,,,,,,,,,,,,,,,,,,,,,,,,,
,,,,,,2,0,2,0,1,X V Q F H G B L J M P D K C T S W R N Z,60185218bc28d50a56653c58,21,Mężczyzna,2022-06-11_09h31.08.072,task,2021.1.4,Win32,144.0092166,6299f149e92ead563fba08ef,62a444b274f65a87f4d5f273,,,,,,,,,,,,,,,,,,,,,,,,,,,,,,,,,,,,,,,,,,,,,,,,,,,,,,,,,,,,,,,,,,,,,,,,,,,,,,,,,,,,,,,,,,,,,,,,,,,,,
,,,,,,3,0,3,0,1,X V Q F H G B L J M P D K C T S W R N Z,60185218bc28d50a56653c58,21,Mężczyzna,2022-06-11_09h31.08.072,task,2021.1.4,Win32,144.0092166,6299f149e92ead563fba08ef,62a444b274f65a87f4d5f273,,,,,,,,,,,,,,,,,,,,,,,,,,,,,,,,,,,,,,,,,,,,,,,,,,,,,,,,,,,,,,,,,,,,,,,,,,,,,,,,,,,,,,,,,,,,,,,,,,,,,
,,,,,,4,0,4,0,1,X V Q F H G B L J M P D K C T S W R N Z,60185218bc28d50a56653c58,21,Mężczyzna,2022-06-11_09h31.08.072,task,2021.1.4,Win32,144.0092166,6299f149e92ead563fba08ef,62a444b274f65a87f4d5f273,,,,,,,,,,,,,,,,,,,,,,,,,,,,,,,,,,,,,,,,,,,,,,,,,,,,,,,,,,,,,,,,,,,,,,,,,,,,,,,,,,,,,,,,,,,,,,,,,,,,,
,,,,,,,,,,,,60185218bc28d50a56653c58,21,Mężczyzna,2022-06-11_09h31.08.072,task,2021.1.4,Win32,144.0092166,6299f149e92ead563fba08ef,62a444b274f65a87f4d5f273,zhpwg,"[""z"",""h"",""p"",""w"",""g""]","[0.3509999999999991,0.6979999999999933,1.2265999999046358,1.532199999809265,1.83769999980926,2.220399999618536]",1,ZHPWG,8,0,8,0,1,,,,,,,,,,,,,,,,,,,,,,,,,,,,,,,,,,,,,,,,,,,,,,,,,,,,,,,,,,,,,,,,,,,,,,,,,,,,,,,,,,,,,,,,,,,
,,,,,,0,0,0,0,1,X V Q F H G B L J M P D K C T S W R N Z,60185218bc28d50a56653c58,21,Mężczyzna,2022-06-11_09h31.08.072,task,2021.1.4,Win32,144.0092166,6299f149e92ead563fba08ef,62a444b274f65a87f4d5f273,,,,,,,,,,,,,,,,,,,,,,,,,,,,,,,,,,,,,,,,,,,,,,,,,,,,,,,,,,,,,,,,,,,,,,,,,,,,,,,,,,,,,,,,,,,,,,,,,,,,,
,,,,,,1,0,1,0,1,X V Q F H G B L J M P D K C T S W R N Z,60185218bc28d50a56653c58,21,Mężczyzna,2022-06-11_09h31.08.072,task,2021.1.4,Win32,144.0092166,6299f149e92ead563fba08ef,62a444b274f65a87f4d5f273,,,,,,,,,,,,,,,,,,,,,,,,,,,,,,,,,,,,,,,,,,,,,,,,,,,,,,,,,,,,,,,,,,,,,,,,,,,,,,,,,,,,,,,,,,,,,,,,,,,,,
,,,,,,2,0,2,0,1,X V Q F H G B L J M P D K C T S W R N Z,60185218bc28d50a56653c58,21,Mężczyzna,2022-06-11_09h31.08.072,task,2021.1.4,Win32,144.0092166,6299f149e92ead563fba08ef,62a444b274f65a87f4d5f273,,,,,,,,,,,,,,,,,,,,,,,,,,,,,,,,,,,,,,,,,,,,,,,,,,,,,,,,,,,,,,,,,,,,,,,,,,,,,,,,,,,,,,,,,,,,,,,,,,,,,
,,,,,,3,0,3,0,1,X V Q F H G B L J M P D K C T S W R N Z,60185218bc28d50a56653c58,21,Mężczyzna,2022-06-11_09h31.08.072,task,2021.1.4,Win32,144.0092166,6299f149e92ead563fba08ef,62a444b274f65a87f4d5f273,,,,,,,,,,,,,,,,,,,,,,,,,,,,,,,,,,,,,,,,,,,,,,,,,,,,,,,,,,,,,,,,,,,,,,,,,,,,,,,,,,,,,,,,,,,,,,,,,,,,,
,,,,,,4,0,4,0,1,X V Q F H G B L J M P D K C T S W R N Z,60185218bc28d50a56653c58,21,Mężczyzna,2022-06-11_09h31.08.072,task,2021.1.4,Win32,144.0092166,6299f149e92ead563fba08ef,62a444b274f65a87f4d5f273,,,,,,,,,,,,,,,,,,,,,,,,,,,,,,,,,,,,,,,,,,,,,,,,,,,,,,,,,,,,,,,,,,,,,,,,,,,,,,,,,,,,,,,,,,,,,,,,,,,,,
,,,,,,5,0,5,0,1,X V Q F H G B L J M P D K C T S W R N Z,60185218bc28d50a56653c58,21,Mężczyzna,2022-06-11_09h31.08.072,task,2021.1.4,Win32,144.0092166,6299f149e92ead563fba08ef,62a444b274f65a87f4d5f273,,,,,,,,,,,,,,,,,,,,,,,,,,,,,,,,,,,,,,,,,,,,,,,,,,,,,,,,,,,,,,,,,,,,,,,,,,,,,,,,,,,,,,,,,,,,,,,,,,,,,
,,,,,,,,,,,,60185218bc28d50a56653c58,21,Mężczyzna,2022-06-11_09h31.08.072,task,2021.1.4,Win32,144.0092166,6299f149e92ead563fba08ef,62a444b274f65a87f4d5f273,qkvfcs,"[""q"",""k"",""v"",""f"",""c"",""s""]","[0.3375000000000057,0.5261999998092648,0.7637999997138962,1.3666999998092706,2.3922999997138987,2.8795999999046415,3.312799999713903]",0,QKVHFS,9,0,9,0,1,,,,,,,,,,,,,,,,,,,,,,,,,,,,,,,,,,,,,,,,,,,,,,,,,,,,,,,,,,,,,,,,,,,,,,,,,,,,,,,,,,,,,,,,,,,
,,,,,,0,0,0,0,1,X V Q F H G B L J M P D K C T S W R N Z,60185218bc28d50a56653c58,21,Mężczyzna,2022-06-11_09h31.08.072,task,2021.1.4,Win32,144.0092166,6299f149e92ead563fba08ef,62a444b274f65a87f4d5f273,,,,,,,,,,,,,,,,,,,,,,,,,,,,,,,,,,,,,,,,,,,,,,,,,,,,,,,,,,,,,,,,,,,,,,,,,,,,,,,,,,,,,,,,,,,,,,,,,,,,,
,,,,,,1,0,1,0,1,X V Q F H G B L J M P D K C T S W R N Z,60185218bc28d50a56653c58,21,Mężczyzna,2022-06-11_09h31.08.072,task,2021.1.4,Win32,144.0092166,6299f149e92ead563fba08ef,62a444b274f65a87f4d5f273,,,,,,,,,,,,,,,,,,,,,,,,,,,,,,,,,,,,,,,,,,,,,,,,,,,,,,,,,,,,,,,,,,,,,,,,,,,,,,,,,,,,,,,,,,,,,,,,,,,,,
,,,,,,2,0,2,0,1,X V Q F H G B L J M P D K C T S W R N Z,60185218bc28d50a56653c58,21,Mężczyzna,2022-06-11_09h31.08.072,task,2021.1.4,Win32,144.0092166,6299f149e92ead563fba08ef,62a444b274f65a87f4d5f273,,,,,,,,,,,,,,,,,,,,,,,,,,,,,,,,,,,,,,,,,,,,,,,,,,,,,,,,,,,,,,,,,,,,,,,,,,,,,,,,,,,,,,,,,,,,,,,,,,,,,
,,,,,,3,0,3,0,1,X V Q F H G B L J M P D K C T S W R N Z,60185218bc28d50a56653c58,21,Mężczyzna,2022-06-11_09h31.08.072,task,2021.1.4,Win32,144.0092166,6299f149e92ead563fba08ef,62a444b274f65a87f4d5f273,,,,,,,,,,,,,,,,,,,,,,,,,,,,,,,,,,,,,,,,,,,,,,,,,,,,,,,,,,,,,,,,,,,,,,,,,,,,,,,,,,,,,,,,,,,,,,,,,,,,,
,,,,,,4,0,4,0,1,X V Q F H G B L J M P D K C T S W R N Z,60185218bc28d50a56653c58,21,Mężczyzna,2022-06-11_09h31.08.072,task,2021.1.4,Win32,144.0092166,6299f149e92ead563fba08ef,62a444b274f65a87f4d5f273,,,,,,,,,,,,,,,,,,,,,,,,,,,,,,,,,,,,,,,,,,,,,,,,,,,,,,,,,,,,,,,,,,,,,,,,,,,,,,,,,,,,,,,,,,,,,,,,,,,,,
,,,,,,5,0,5,0,1,X V Q F H G B L J M P D K C T S W R N Z,60185218bc28d50a56653c58,21,Mężczyzna,2022-06-11_09h31.08.072,task,2021.1.4,Win32,144.0092166,6299f149e92ead563fba08ef,62a444b274f65a87f4d5f273,,,,,,,,,,,,,,,,,,,,,,,,,,,,,,,,,,,,,,,,,,,,,,,,,,,,,,,,,,,,,,,,,,,,,,,,,,,,,,,,,,,,,,,,,,,,,,,,,,,,,
,,,,,,,,,,,,60185218bc28d50a56653c58,21,Mężczyzna,2022-06-11_09h31.08.072,task,2021.1.4,Win32,144.0092166,6299f149e92ead563fba08ef,62a444b274f65a87f4d5f273,pdnvhg,"[""p"",""d"",""n"",""v"",""h"",""g""]","[0.33759999990462575,0.5951999998092674,2.6012999997138877,3.176799999713893,3.836900000095369,4.144799999713882,4.434699999809254]",0,PDNVHN,10,0,10,0,1,,,,,,,,,,,,,,,,,,,,,,,,,,,,,,,,,,,,,,,,,,,,,,,,,,,,,,,,,,,,,,,,,,,,,,,,,,,,,,,,,,,,,,,,,,,
,,,,,,0,0,0,0,1,X V Q F H G B L J M P D K C T S W R N Z,60185218bc28d50a56653c58,21,Mężczyzna,2022-06-11_09h31.08.072,task,2021.1.4,Win32,144.0092166,6299f149e92ead563fba08ef,62a444b274f65a87f4d5f273,,,,,,,,,,,,,,,,,,,,,,,,,,,,,,,,,,,,,,,,,,,,,,,,,,,,,,,,,,,,,,,,,,,,,,,,,,,,,,,,,,,,,,,,,,,,,,,,,,,,,
,,,,,,1,0,1,0,1,X V Q F H G B L J M P D K C T S W R N Z,60185218bc28d50a56653c58,21,Mężczyzna,2022-06-11_09h31.08.072,task,2021.1.4,Win32,144.0092166,6299f149e92ead563fba08ef,62a444b274f65a87f4d5f273,,,,,,,,,,,,,,,,,,,,,,,,,,,,,,,,,,,,,,,,,,,,,,,,,,,,,,,,,,,,,,,,,,,,,,,,,,,,,,,,,,,,,,,,,,,,,,,,,,,,,
,,,,,,2,0,2,0,1,X V Q F H G B L J M P D K C T S W R N Z,60185218bc28d50a56653c58,21,Mężczyzna,2022-06-11_09h31.08.072,task,2021.1.4,Win32,144.0092166,6299f149e92ead563fba08ef,62a444b274f65a87f4d5f273,,,,,,,,,,,,,,,,,,,,,,,,,,,,,,,,,,,,,,,,,,,,,,,,,,,,,,,,,,,,,,,,,,,,,,,,,,,,,,,,,,,,,,,,,,,,,,,,,,,,,
,,,,,,3,0,3,0,1,X V Q F H G B L J M P D K C T S W R N Z,60185218bc28d50a56653c58,21,Mężczyzna,2022-06-11_09h31.08.072,task,2021.1.4,Win32,144.0092166,6299f149e92ead563fba08ef,62a444b274f65a87f4d5f273,,,,,,,,,,,,,,,,,,,,,,,,,,,,,,,,,,,,,,,,,,,,,,,,,,,,,,,,,,,,,,,,,,,,,,,,,,,,,,,,,,,,,,,,,,,,,,,,,,,,,
,,,,,,4,0,4,0,1,X V Q F H G B L J M P D K C T S W R N Z,60185218bc28d50a56653c58,21,Mężczyzna,2022-06-11_09h31.08.072,task,2021.1.4,Win32,144.0092166,6299f149e92ead563fba08ef,62a444b274f65a87f4d5f273,,,,,,,,,,,,,,,,,,,,,,,,,,,,,,,,,,,,,,,,,,,,,,,,,,,,,,,,,,,,,,,,,,,,,,,,,,,,,,,,,,,,,,,,,,,,,,,,,,,,,
,,,,,,5,0,5,0,1,X V Q F H G B L J M P D K C T S W R N Z,60185218bc28d50a56653c58,21,Mężczyzna,2022-06-11_09h31.08.072,task,2021.1.4,Win32,144.0092166,6299f149e92ead563fba08ef,62a444b274f65a87f4d5f273,,,,,,,,,,,,,,,,,,,,,,,,,,,,,,,,,,,,,,,,,,,,,,,,,,,,,,,,,,,,,,,,,,,,,,,,,,,,,,,,,,,,,,,,,,,,,,,,,,,,,
,,,,,,,,,,,,60185218bc28d50a56653c58,21,Mężczyzna,2022-06-11_09h31.08.072,task,2021.1.4,Win32,144.0092166,6299f149e92ead563fba08ef,62a444b274f65a87f4d5f273,xzpdzx,"[""x"",""z"",""p"",""d"",""z"",""x""]","[0.30320000028612526,0.5129000000953852,0.8029000000953772,1.4764000000953672,2.2476000003814818,2.5270000000000152,2.754700000286107]",0,XZPNDP,11,0,11,0,1,,,,,,,,,,,,,,,,,,,,,,,,,,,,,,,,,,,,,,,,,,,,,,,,,,,,,,,,,,,,,,,,,,,,,,,,,,,,,,,,,,,,,,,,,,,
,,,,,,,,,,,,60185218bc28d50a56653c58,21,Mężczyzna,2022-06-11_09h31.08.072,task,2021.1.4,Win32,144.0092166,6299f149e92ead563fba08ef,62a444b274f65a87f4d5f273,,,,,,,,,,,space,7.7776,2,"[""2""]",0,[2.577900000095383],[2.577900000095383],0,0,0,3,1,Practice,4,(8/4) + 1,3,,,,,,,,,,,,,,,,,,,,,,,,,,,,,,,,,,,,,,,,,,,,,,,,,,,,,,,,,,,,,,,,,,,,,,,,,,,
,,,,,,,,,,,,60185218bc28d50a56653c58,21,Mężczyzna,2022-06-11_09h31.08.072,task,2021.1.4,Win32,144.0092166,6299f149e92ead563fba08ef,62a444b274f65a87f4d5f273,,,,,,,,,,,,,9,"[""9""]",1,[3.3097999997139027],"[2.577900000095383,3.3097999997139027]",0,1,1,9,1,Practice,10,(20/2) - 1,9,,,,,,,,,,,,,,,,,,,,,,,,,,,,,,,,,,,,,,,,,,,,,,,,,,,,,,,,,,,,,,,,,,,,,,,,,,,
,,,,,,,,,,,,60185218bc28d50a56653c58,21,Mężczyzna,2022-06-11_09h31.08.072,task,2021.1.4,Win32,144.0092166,6299f149e92ead563fba08ef,62a444b274f65a87f4d5f273,,,,,,,,,,,,,2,"[""2""]",1,[1.817699999809264],"[2.577900000095383,3.3097999997139027,1.817699999809264]",0,2,2,2,1,Practice,3,(4x4) - 14,2,,,,,,,,,,,,,,,,,,,,,,,,,,,,,,,,,,,,,,,,,,,,,,,,,,,,,,,,,,,,,,,,,,,,,,,,,,,
,,,,,,,,,,,,60185218bc28d50a56653c58,21,Mężczyzna,2022-06-11_09h31.08.072,task,2021.1.4,Win32,144.0092166,6299f149e92ead563fba08ef,62a444b274f65a87f4d5f273,,,,,,,,,,,,,4,"[""4""]",1,[3.253900000095342],"[2.577900000095383,3.3097999997139027,1.817699999809264,3.253900000095342]",0,3,3,4,1,Practice,5,(2x6) - 8,4,,,,,,,,,,,,,,,,,,,,,,,,,,,,,,,,,,,,,,,,,,,,,,,,,,,,,,,,,,,,,,,,,,,,,,,,,,,
,,,,,,,,,,,,60185218bc28d50a56653c58,21,Mężczyzna,2022-06-11_09h31.08.072,task,2021.1.4,Win32,144.0092166,6299f149e92ead563fba08ef,62a444b274f65a87f4d5f273,,,,,,,,,,,,,7,"[""7""]",1,[3.3252000002861166],"[2.577900000095383,3.3097999997139027,1.817699999809264,3.253900000095342,3.3252000002861166]",0,4,4,7,1,Practice,8,(5x5) - 18,7,,,,,,,,,,,,,,,,,,,,,,,,,,,,,,,,,,,,,,,,,,,,,,,,,,,,,,,,,,,,,,,,,,,,,,,,,,,
,,,,,,,,,,,,60185218bc28d50a56653c58,21,Mężczyzna,2022-06-11_09h31.08.072,task,2021.1.4,Win32,144.0092166,6299f149e92ead563fba08ef,62a444b274f65a87f4d5f273,,,,,,,,,,,,,0,"[""0""]",1,[1.5739000000953922],"[2.577900000095383,3.3097999997139027,1.817699999809264,3.253900000095342,3.3252000002861166,1.5739000000953922]",0,5,5,0,1,Practice,1,(3x3) -  9,0,,,,,,,,,,,,,,,,,,,,,,,,,,,,,,,,,,,,,,,,,,,,,,,,,,,,,,,,,,,,,,,,,,,,,,,,,,,
,,,,,,,,,,,,60185218bc28d50a56653c58,21,Mężczyzna,2022-06-11_09h31.08.072,task,2021.1.4,Win32,144.0092166,6299f149e92ead563fba08ef,62a444b274f65a87f4d5f273,,,,,,,,,,,,,5,"[""5""]",1,[1.8979999999999961],"[2.577900000095383,3.3097999997139027,1.817699999809264,3.253900000095342,3.3252000002861166,1.5739000000953922,1.8979999999999961]",0,6,6,5,1,Practice,6,(4/2) + 3,5,,,,,,,,,,,,,,,,,,,,,,,,,,,,,,,,,,,,,,,,,,,,,,,,,,,,,,,,,,,,,,,,,,,,,,,,,,,
,,,,,,,,,,,,60185218bc28d50a56653c58,21,Mężczyzna,2022-06-11_09h31.08.072,task,2021.1.4,Win32,144.0092166,6299f149e92ead563fba08ef,62a444b274f65a87f4d5f273,,,,,,,,,,,,,8,"[""8""]",1,[1.7070999999046421],"[2.577900000095383,3.3097999997139027,1.817699999809264,3.253900000095342,3.3252000002861166,1.5739000000953922,1.8979999999999961,1.7070999999046421]",0,7,7,8,1,Practice,9,(3x3) - 1,8,,,,,,,,,,,,,,,,,,,,,,,,,,,,,,,,,,,,,,,,,,,,,,,,,,,,,,,,,,,,,,,,,,,,,,,,,,,
,,,,,,,,,,,,60185218bc28d50a56653c58,21,Mężczyzna,2022-06-11_09h31.08.072,task,2021.1.4,Win32,144.0092166,6299f149e92ead563fba08ef,62a444b274f65a87f4d5f273,,,,,,,,,,,,,1,"[""1""]",1,[1.3029000000953488],"[2.577900000095383,3.3097999997139027,1.817699999809264,3.253900000095342,3.3252000002861166,1.5739000000953922,1.8979999999999961,1.7070999999046421,1.3029000000953488]",0,8,8,1,1,Practice,2,(4x4) - 15,1,,,,,,,,,,,,,,,,,,,,,,,,,,,,,,,,,,,,,,,,,,,,,,,,,,,,,,,,,,,,,,,,,,,,,,,,,,,
,,,,,,,,,,,,60185218bc28d50a56653c58,21,Mężczyzna,2022-06-11_09h31.08.072,task,2021.1.4,Win32,144.0092166,6299f149e92ead563fba08ef,62a444b274f65a87f4d5f273,,,,,,,,,,,,,6,"[""6""]",1,[2.5657000002860855],"[2.577900000095383,3.3097999997139027,1.817699999809264,3.253900000095342,3.3252000002861166,1.5739000000953922,1.8979999999999961,1.7070999999046421,1.3029000000953488,2.5657000002860855]",0,9,9,6,1,Practice,7,(25/5) + 1,6,,,,,,,,,,,,,,,,,,,,,,,,,,,,,,,,,,,,,,,,,,,,,,,,,,,,,,,,,,,,,,,,,,,,,,,,,,,
,,,,,,,,,,,,60185218bc28d50a56653c58,21,Mężczyzna,2022-06-11_09h31.08.072,task,2021.1.4,Win32,144.0092166,6299f149e92ead563fba08ef,62a444b274f65a87f4d5f273,,,,,,,,,,,,,,,,,,,,,,,,,,,0.9,23.3321,1.555473333,11.4333727,0.873054893,3.807954958,space,1.2996,0,0,0,0,1,,,,,,,,,,,,,,,,,,,,,,,,,,,,,,,,,,,,,,,,,,,,,,,,,,,,,,,,,,,,,,
,,,,,,,,,,,,60185218bc28d50a56653c58,21,Mężczyzna,2022-06-11_09h31.08.072,task,2021.1.4,Win32,144.0092166,6299f149e92ead563fba08ef,62a444b274f65a87f4d5f273,,,,,,,,,,,,,8,,,,,,,,,,Practice,9,(3x3) - 1,8,,,,,,,,,,,,,,space,15.7482,"[""8""]",1,[1.6754999999999995],1,0,0,0,8,1,,,,,,,,,,,,,,,,,,,,,,,,,,,,,,,,,,,,,,,,,,,,,,,,,,,
,,,,,,,,,,,X V Q F H G B L J M P D K C T S W R N Z,60185218bc28d50a56653c58,21,Mężczyzna,2022-06-11_09h31.08.072,task,2021.1.4,Win32,144.0092166,6299f149e92ead563fba08ef,62a444b274f65a87f4d5f273,,,,,,,,,,,,,,,,,,,,,,,,,,,,,,,,,,,,,,,,,,,,,,,,,,,0,0,0,0,1,,,,,,,,,,,,,,,,,,,,,,,,,,,,,,,,,,,,,,,,,,,,,,
,,,,,,,,,,,,60185218bc28d50a56653c58,21,Mężczyzna,2022-06-11_09h31.08.072,task,2021.1.4,Win32,144.0092166,6299f149e92ead563fba08ef,62a444b274f65a87f4d5f273,,,,,,,,,,,,,1,,,,,,,,,,Practice,2,(4x4) - 15,1,,,,,,,,,,,,,,,,"[""1""]",1,[1.2730999999046446],1,0,0,0,1,1,,,,,,,,,,,,,,,,,,,,,,,,,,,,,,,,,,,,,,,,,,,,,,,,,,,
,,,,,,,,,,,X V Q F H G B L J M P D K C T S W R N Z,60185218bc28d50a56653c58,21,Mężczyzna,2022-06-11_09h31.08.072,task,2021.1.4,Win32,144.0092166,6299f149e92ead563fba08ef,62a444b274f65a87f4d5f273,,,,,,,,,,,,,,,,,,,,,,,,,,,,,,,,,,,,,,,,,,,,,,,,,,,1,0,1,0,1,,,,,,,,,,,,,,,,,,,,,,,,,,,,,,,,,,,,,,,,,,,,,,
,,,,,,,,,,,,60185218bc28d50a56653c58,21,Mężczyzna,2022-06-11_09h31.08.072,task,2021.1.4,Win32,144.0092166,6299f149e92ead563fba08ef,62a444b274f65a87f4d5f273,,,,,,,,,,,,,,,,,,,,,,,,,,,,,,,,,,,,,,,,,,,,,,,,,,,,,,,,zl,"[""z"",""l""]",0,"[1.6554000000953693,1.8535999999046453,2.5453000001907355]",1,0,0,0,0,1,,,,,,,,,,,,,,,,,,,,,,,,,,,,,,,,,,,,
,,,,,,,,,,,,60185218bc28d50a56653c58,21,Mężczyzna,2022-06-11_09h31.08.072,task,2021.1.4,Win32,144.0092166,6299f149e92ead563fba08ef,62a444b274f65a87f4d5f273,,,,,,,,,,,,,4,,,,,,,,,,Practice,5,(2x6) - 8,4,,,,,,,,,,,,,,,,"[""4""]",1,[1.8409000000953881],1,0,0,0,4,1,,,,,,,,,,,,,,,,,,,,,,,,,,,,,,,,,,,,,,,,,,,,,,,,,,,
,,,,,,,,,,,X V Q F H G B L J M P D K C T S W R N Z,60185218bc28d50a56653c58,21,Mężczyzna,2022-06-11_09h31.08.072,task,2021.1.4,Win32,144.0092166,6299f149e92ead563fba08ef,62a444b274f65a87f4d5f273,,,,,,,,,,,,,,,,,,,,,,,,,,,,,,,,,,,,,,,,,,,,,,,,,,,0,0,0,0,1,,,,,,,,,,,,,,,,,,,,,,,,,,,,,,,,,,,,,,,,,,,,,,
,,,,,,,,,,,,60185218bc28d50a56653c58,21,Mężczyzna,2022-06-11_09h31.08.072,task,2021.1.4,Win32,144.0092166,6299f149e92ead563fba08ef,62a444b274f65a87f4d5f273,,,,,,,,,,,,,0,,,,,,,,,,Practice,1,(3x3) -  9,0,,,,,,,,,,,,,,,,"[""0""]",1,[1.2632999997138938],1,0,0,0,0,1,,,,,,,,,,,,,,,,,,,,,,,,,,,,,,,,,,,,,,,,,,,,,,,,,,,
,,,,,,,,,,,X V Q F H G B L J M P D K C T S W R N Z,60185218bc28d50a56653c58,21,Mężczyzna,2022-06-11_09h31.08.072,task,2021.1.4,Win32,144.0092166,6299f149e92ead563fba08ef,62a444b274f65a87f4d5f273,,,,,,,,,,,,,,,,,,,,,,,,,,,,,,,,,,,,,,,,,,,,,,,,,,,1,0,1,0,1,,,,,,,,,,,,,,,,,,,,,,,,,,,,,,,,,,,,,,,,,,,,,,
,,,,,,,,,,,,60185218bc28d50a56653c58,21,Mężczyzna,2022-06-11_09h31.08.072,task,2021.1.4,Win32,144.0092166,6299f149e92ead563fba08ef,62a444b274f65a87f4d5f273,,,,,,,,,,,,,,,,,,,,,,,,,,,,,,,,,,,,,,,,,,,,,,,,,,,,,,,,zd,"[""z"",""d""]",0,"[0.9080000000000155,1.0170999999046444,1.3880000000000052]",1,1,0,1,0,1,,,,,,,,,,,,,,,,,,,,,,,,,,,,,,,,,,,,
,,,,,,,,,,,,60185218bc28d50a56653c58,21,Mężczyzna,2022-06-11_09h31.08.072,task,2021.1.4,Win32,144.0092166,6299f149e92ead563fba08ef,62a444b274f65a87f4d5f273,,,,,,,,,,,,,7,,,,,,,,,,Practice,8,(5x5) - 18,7,,,,,,,,,,,,,,,,"[""7""]",1,[2.454599999904616],1,0,0,0,7,1,,,,,,,,,,,,,,,,,,,,,,,,,,,,,,,,,,,,,,,,,,,,,,,,,,,
,,,,,,,,,,,X V Q F H G B L J M P D K C T S W R N Z,60185218bc28d50a56653c58,21,Mężczyzna,2022-06-11_09h31.08.072,task,2021.1.4,Win32,144.0092166,6299f149e92ead563fba08ef,62a444b274f65a87f4d5f273,,,,,,,,,,,,,,,,,,,,,,,,,,,,,,,,,,,,,,,,,,,,,,,,,,,0,0,0,0,1,,,,,,,,,,,,,,,,,,,,,,,,,,,,,,,,,,,,,,,,,,,,,,
,,,,,,,,,,,,60185218bc28d50a56653c58,21,Mężczyzna,2022-06-11_09h31.08.072,task,2021.1.4,Win32,144.0092166,6299f149e92ead563fba08ef,62a444b274f65a87f4d5f273,,,,,,,,,,,,,5,,,,,,,,,,Practice,6,(4/2) + 3,5,,,,,,,,,,,,,,,,"[""5""]",1,[1.4893999996185414],1,0,0,0,5,1,,,,,,,,,,,,,,,,,,,,,,,,,,,,,,,,,,,,,,,,,,,,,,,,,,,
,,,,,,,,,,,X V Q F H G B L J M P D K C T S W R N Z,60185218bc28d50a56653c58,21,Mężczyzna,2022-06-11_09h31.08.072,task,2021.1.4,Win32,144.0092166,6299f149e92ead563fba08ef,62a444b274f65a87f4d5f273,,,,,,,,,,,,,,,,,,,,,,,,,,,,,,,,,,,,,,,,,,,,,,,,,,,1,0,1,0,1,,,,,,,,,,,,,,,,,,,,,,,,,,,,,,,,,,,,,,,,,,,,,,
,,,,,,,,,,,,60185218bc28d50a56653c58,21,Mężczyzna,2022-06-11_09h31.08.072,task,2021.1.4,Win32,144.0092166,6299f149e92ead563fba08ef,62a444b274f65a87f4d5f273,,,,,,,,,,,,,,,,,,,,,,,,,,,,,,,,,,,,,,,,,,,,,,,,,,,,,,,,qw,"[""q"",""w""]",0,"[1.444100000381468,1.6292000002861187,1.9650000000000034]",1,2,0,2,0,1,,,,,,,,,,,,,,,,,,,,,,,,,,,,,,,,,,,,
,,,,,,,,,,,,60185218bc28d50a56653c58,21,Mężczyzna,2022-06-11_09h31.08.072,task,2021.1.4,Win32,144.0092166,6299f149e92ead563fba08ef,62a444b274f65a87f4d5f273,,,,,,,,,,,,,3,,,,,,,,,,Task,26,(2x9) - 16,2,,,,,,,,,,,,,,,,,,,0,,,,,,,,,,,,,,,,,,,,,space,7.9965,"[""3""]",0,[1.6554000000953693],0,0,0,25,1,,,,,,,,,,,,,,,,,,,,,,,,,,
,,,,,,,,,,,,60185218bc28d50a56653c58,21,Mężczyzna,2022-06-11_09h31.08.072,task,2021.1.4,Win32,144.0092166,6299f149e92ead563fba08ef,62a444b274f65a87f4d5f273,,,,,,,,,,,,,1,,,,,,,,,,Task,1,(12/6) - 1,1,,,,,,,,,,,,,,,,,,,1,,,,,,,,,,,,,,,,,,,,,,,"[""1""]",1,[2.482300000190719],0,1,1,0,1,,,,,,,,,,,,,,,,,,,,,,,,,,
,,,,,,,,,,,X V Q F H G B L J M P D K C T S W R N Z,60185218bc28d50a56653c58,21,Mężczyzna,2022-06-11_09h31.08.072,task,2021.1.4,Win32,144.0092166,6299f149e92ead563fba08ef,62a444b274f65a87f4d5f273,,,,,,,,,,,,,,,,,,,,,,,,,,,,,,,,,,,,,,,,,,,,,,,,,,,,,,,,,,,,,,,,,,,,,,,,,,,,0,0,0,0,1,,,,,,,,,,,,,,,,,,,,,
,,,,,,,,,,,,60185218bc28d50a56653c58,21,Mężczyzna,2022-06-11_09h31.08.072,task,2021.1.4,Win32,144.0092166,6299f149e92ead563fba08ef,62a444b274f65a87f4d5f273,,,,,,,,,,,,,,,,,,,,,,,Task,11,(18/3) - 2,4,,,,,,,,,,,,,,,,,,,0,,,,,,,,,,,,,,,,,,,,,,,,0,,0,0,0,10,1,,,,,,,,,,,,,,,,,,,,,,,,,,
,,,,,,,,,,,,60185218bc28d50a56653c58,21,Mężczyzna,2022-06-11_09h31.08.072,task,2021.1.4,Win32,144.0092166,6299f149e92ead563fba08ef,62a444b274f65a87f4d5f273,,,,,,,,,,,,,3,,,,,,,,,,Task,35,(1x2) + 1,3,,,,,,,,,,,,,,,,,,,1,,,,,,,,,,,,,,,,,,,,,,,"[""3""]",1,[2.136200000286067],0,1,1,34,1,,,,,,,,,,,,,,,,,,,,,,,,,,
,,,,,,,,,,,X V Q F H G B L J M P D K C T S W R N Z,60185218bc28d50a56653c58,21,Mężczyzna,2022-06-11_09h31.08.072,task,2021.1.4,Win32,144.0092166,6299f149e92ead563fba08ef,62a444b274f65a87f4d5f273,,,,,,,,,,,,,,,,,,,,,,,,,,,,,,,,,,,,,,,,,,,,,,,,,,,,,,,,,,,,,,,,,,,,,,,,,,,,1,0,1,0,1,,,,,,,,,,,,,,,,,,,,,
,,,,,,,,,,,,60185218bc28d50a56653c58,21,Mężczyzna,2022-06-11_09h31.08.072,task,2021.1.4,Win32,144.0092166,6299f149e92ead563fba08ef,62a444b274f65a87f4d5f273,,,,,,,,,,,,,,,,,,,,,,,,,,,,,,,,,,,,,,,,,,,,,,,,,,,,,,,,,,,,,,,,,,,,,,,,,,,,,,,,,zl,"[""z"",""l""]",0,"[1.149300000190749,1.3248000001907485,1.7189000000953456]",1,ZL,0,0,0,0,1,,,,,,,,,,
,,,,,,,,,,,,60185218bc28d50a56653c58,21,Mężczyzna,2022-06-11_09h31.08.072,task,2021.1.4,Win32,144.0092166,6299f149e92ead563fba08ef,62a444b274f65a87f4d5f273,,,,,,,,,,,,,3,,,,,,,,,,Task,26,(2x9) - 16,2,,,,,,,,,,,,,,,,,,,0,,,,,,,,,,,,,,,,,,,,,,,"[""3""]",0,[1.8098000001907621],0,0,0,25,1,,,,,,,,,,,,,,,,,,,,,,,,,,
,,,,,,,,,,,,60185218bc28d50a56653c58,21,Mężczyzna,2022-06-11_09h31.08.072,task,2021.1.4,Win32,144.0092166,6299f149e92ead563fba08ef,62a444b274f65a87f4d5f273,,,,,,,,,,,,,0,,,,,,,,,,Task,8,(1x5) - 5,0,,,,,,,,,,,,,,,,,,,1,,,,,,,,,,,,,,,,,,,,,,,"[""0""]",1,[2.2754999999999654],0,1,1,7,1,,,,,,,,,,,,,,,,,,,,,,,,,,
,,,,,,,,,,,X V Q F H G B L J M P D K C T S W R N Z,60185218bc28d50a56653c58,21,Mężczyzna,2022-06-11_09h31.08.072,task,2021.1.4,Win32,144.0092166,6299f149e92ead563fba08ef,62a444b274f65a87f4d5f273,,,,,,,,,,,,,,,,,,,,,,,,,,,,,,,,,,,,,,,,,,,,,,,,,,,,,,,,,,,,,,,,,,,,,,,,,,,,0,0,0,0,1,,,,,,,,,,,,,,,,,,,,,
,,,,,,,,,,,,60185218bc28d50a56653c58,21,Mężczyzna,2022-06-11_09h31.08.072,task,2021.1.4,Win32,144.0092166,6299f149e92ead563fba08ef,62a444b274f65a87f4d5f273,,,,,,,,,,,,,1,,,,,,,,,,Task,34,(9/3) - 2,1,,,,,,,,,,,,,,,,,,,1,,,,,,,,,,,,,,,,,,,,,,,"[""1""]",1,[2.3706999998092897],0,0,0,33,1,,,,,,,,,,,,,,,,,,,,,,,,,,
,,,,,,,,,,,X V Q F H G B L J M P D K C T S W R N Z,60185218bc28d50a56653c58,21,Mężczyzna,2022-06-11_09h31.08.072,task,2021.1.4,Win32,144.0092166,6299f149e92ead563fba08ef,62a444b274f65a87f4d5f273,,,,,,,,,,,,,,,,,,,,,,,,,,,,,,,,,,,,,,,,,,,,,,,,,,,,,,,,,,,,,,,,,,,,,,,,,,,,1,0,1,0,1,,,,,,,,,,,,,,,,,,,,,
,,,,,,,,,,,,60185218bc28d50a56653c58,21,Mężczyzna,2022-06-11_09h31.08.072,task,2021.1.4,Win32,144.0092166,6299f149e92ead563fba08ef,62a444b274f65a87f4d5f273,,,,,,,,,,,,,4,,,,,,,,,,Task,21,(10/2) - 1,4,,,,,,,,,,,,,,,,,,,1,,,,,,,,,,,,,,,,,,,,,,,"[""4""]",1,[1.8724000000953538],0,0,0,20,1,,,,,,,,,,,,,,,,,,,,,,,,,,
,,,,,,,,,,,X V Q F H G B L J M P D K C T S W R N Z,60185218bc28d50a56653c58,21,Mężczyzna,2022-06-11_09h31.08.072,task,2021.1.4,Win32,144.0092166,6299f149e92ead563fba08ef,62a444b274f65a87f4d5f273,,,,,,,,,,,,,,,,,,,,,,,,,,,,,,,,,,,,,,,,,,,,,,,,,,,,,,,,,,,,,,,,,,,,,,,,,,,,2,0,2,0,1,,,,,,,,,,,,,,,,,,,,,
,,,,,,,,,,,,60185218bc28d50a56653c58,21,Mężczyzna,2022-06-11_09h31.08.072,task,2021.1.4,Win32,144.0092166,6299f149e92ead563fba08ef,62a444b274f65a87f4d5f273,,,,,,,,,,,,,,,,,,,,,,,,,,,,,,,,,,,,,,,,,,,,,,,,,,,,,,,,,,,,,,,,,,,,,,,,,,,,,,,,,xns,"[""x"",""n"",""s""]",0,"[1.5252000002861337,1.7608000001907271,1.8579000000954125,2.2690000000000055]",1,XNS,1,0,1,0,1,,,,,,,,,,
,,,,,,,,,,,,60185218bc28d50a56653c58,21,Mężczyzna,2022-06-11_09h31.08.072,task,2021.1.4,Win32,144.0092166,6299f149e92ead563fba08ef,62a444b274f65a87f4d5f273,,,,,,,,,,,,,0,,,,,,,,,,Task,25,(10/5) - 2,0,,,,,,,,,,,,,,,,,,,1,,,,,,,,,,,,,,,,,,,,,,,"[""0""]",1,[1.6998999996184807],0,0,0,24,1,,,,,,,,,,,,,,,,,,,,,,,,,,
,,,,,,,,,,,X V Q F H G B L J M P D K C T S W R N Z,60185218bc28d50a56653c58,21,Mężczyzna,2022-06-11_09h31.08.072,task,2021.1.4,Win32,144.0092166,6299f149e92ead563fba08ef,62a444b274f65a87f4d5f273,,,,,,,,,,,,,,,,,,,,,,,,,,,,,,,,,,,,,,,,,,,,,,,,,,,,,,,,,,,,,,,,,,,,,,,,,,,,0,0,0,0,1,,,,,,,,,,,,,,,,,,,,,
,,,,,,,,,,,,60185218bc28d50a56653c58,21,Mężczyzna,2022-06-11_09h31.08.072,task,2021.1.4,Win32,144.0092166,6299f149e92ead563fba08ef,62a444b274f65a87f4d5f273,,,,,,,,,,,,,0,,,,,,,,,,Task,25,(10/5) - 2,0,,,,,,,,,,,,,,,,,,,1,,,,,,,,,,,,,,,,,,,,,,,"[""0""]",1,[1.3498000001907258],0,0,0,24,1,,,,,,,,,,,,,,,,,,,,,,,,,,
,,,,,,,,,,,X V Q F H G B L J M P D K C T S W R N Z,60185218bc28d50a56653c58,21,Mężczyzna,2022-06-11_09h31.08.072,task,2021.1.4,Win32,144.0092166,6299f149e92ead563fba08ef,62a444b274f65a87f4d5f273,,,,,,,,,,,,,,,,,,,,,,,,,,,,,,,,,,,,,,,,,,,,,,,,,,,,,,,,,,,,,,,,,,,,,,,,,,,,1,0,1,0,1,,,,,,,,,,,,,,,,,,,,,
,,,,,,,,,,,,60185218bc28d50a56653c58,21,Mężczyzna,2022-06-11_09h31.08.072,task,2021.1.4,Win32,144.0092166,6299f149e92ead563fba08ef,62a444b274f65a87f4d5f273,,,,,,,,,,,,,3,,,,,,,,,,Task,3,(2x3) - 3,3,,,,,,,,,,,,,,,,,,,1,,,,,,,,,,,,,,,,,,,,,,,"[""3""]",1,[2.2471999998092542],0,0,0,2,1,,,,,,,,,,,,,,,,,,,,,,,,,,
,,,,,,,,,,,X V Q F H G B L J M P D K C T S W R N Z,60185218bc28d50a56653c58,21,Mężczyzna,2022-06-11_09h31.08.072,task,2021.1.4,Win32,144.0092166,6299f149e92ead563fba08ef,62a444b274f65a87f4d5f273,,,,,,,,,,,,,,,,,,,,,,,,,,,,,,,,,,,,,,,,,,,,,,,,,,,,,,,,,,,,,,,,,,,,,,,,,,,,2,0,2,0,1,,,,,,,,,,,,,,,,,,,,,
,,,,,,,,,,,,60185218bc28d50a56653c58,21,Mężczyzna,2022-06-11_09h31.08.072,task,2021.1.4,Win32,144.0092166,6299f149e92ead563fba08ef,62a444b274f65a87f4d5f273,,,,,,,,,,,,,3,,,,,,,,,,Task,3,(2x3) - 3,3,,,,,,,,,,,,,,,,,,,1,,,,,,,,,,,,,,,,,,,,,,,"[""3""]",1,[2.1709999999999923],0,0,0,2,1,,,,,,,,,,,,,,,,,,,,,,,,,,
,,,,,,,,,,,X V Q F H G B L J M P D K C T S W R N Z,60185218bc28d50a56653c58,21,Mężczyzna,2022-06-11_09h31.08.072,task,2021.1.4,Win32,144.0092166,6299f149e92ead563fba08ef,62a444b274f65a87f4d5f273,,,,,,,,,,,,,,,,,,,,,,,,,,,,,,,,,,,,,,,,,,,,,,,,,,,,,,,,,,,,,,,,,,,,,,,,,,,,3,0,3,0,1,,,,,,,,,,,,,,,,,,,,,
,,,,,,,,,,,,60185218bc28d50a56653c58,21,Mężczyzna,2022-06-11_09h31.08.072,task,2021.1.4,Win32,144.0092166,6299f149e92ead563fba08ef,62a444b274f65a87f4d5f273,,,,,,,,,,,,,,,,,,,,,,,,,,,,,,,,,,,,,,,,,,,,,,,,,,,,,,,,,,,,,,,,,,,,,,,,,,,,,,,,,bgrw,"[""b"",""g"",""r"",""w""]",0,"[1.5249000000953856,1.7678000001907321,2.0554000000953465,2.2537000002860736,2.9794000000953815]",1,BGRW,2,0,2,0,1,,,,,,,,,,
,,,,,,,,,,,,60185218bc28d50a56653c58,21,Mężczyzna,2022-06-11_09h31.08.072,task,2021.1.4,Win32,144.0092166,6299f149e92ead563fba08ef,62a444b274f65a87f4d5f273,,,,,,,,,,,,,5,,,,,,,,,,Task,22,(3x1) + 2,5,,,,,,,,,,,,,,,,,,,1,,,,,,,,,,,,,,,,,,,,,,,"[""5""]",1,[1.453400000095371],0,0,0,21,1,,,,,,,,,,,,,,,,,,,,,,,,,,
,,,,,,,,,,,X V Q F H G B L J M P D K C T S W R N Z,60185218bc28d50a56653c58,21,Mężczyzna,2022-06-11_09h31.08.072,task,2021.1.4,Win32,144.0092166,6299f149e92ead563fba08ef,62a444b274f65a87f4d5f273,,,,,,,,,,,,,,,,,,,,,,,,,,,,,,,,,,,,,,,,,,,,,,,,,,,,,,,,,,,,,,,,,,,,,,,,,,,,0,0,0,0,1,,,,,,,,,,,,,,,,,,,,,
,,,,,,,,,,,,60185218bc28d50a56653c58,21,Mężczyzna,2022-06-11_09h31.08.072,task,2021.1.4,Win32,144.0092166,6299f149e92ead563fba08ef,62a444b274f65a87f4d5f273,,,,,,,,,,,,,0,,,,,,,,,,Task,8,(1x5) - 5,0,,,,,,,,,,,,,,,,,,,1,,,,,,,,,,,,,,,,,,,,,,,"[""0""]",1,[1.3810999999046203],0,0,0,7,1,,,,,,,,,,,,,,,,,,,,,,,,,,
,,,,,,,,,,,X V Q F H G B L J M P D K C T S W R N Z,60185218bc28d50a56653c58,21,Mężczyzna,2022-06-11_09h31.08.072,task,2021.1.4,Win32,144.0092166,6299f149e92ead563fba08ef,62a444b274f65a87f4d5f273,,,,,,,,,,,,,,,,,,,,,,,,,,,,,,,,,,,,,,,,,,,,,,,,,,,,,,,,,,,,,,,,,,,,,,,,,,,,1,0,1,0,1,,,,,,,,,,,,,,,,,,,,,
,,,,,,,,,,,,60185218bc28d50a56653c58,21,Mężczyzna,2022-06-11_09h31.08.072,task,2021.1.4,Win32,144.0092166,6299f149e92ead563fba08ef,62a444b274f65a87f4d5f273,,,,,,,,,,,,,8,,,,,,,,,,Task,39,(5x3) - 7,8,,,,,,,,,,,,,,,,,,,1,,,,,,,,,,,,,,,,,,,,,,,"[""8""]",1,[3.4540000000000077],0,0,0,38,1,,,,,,,,,,,,,,,,,,,,,,,,,,
,,,,,,,,,,,X V Q F H G B L J M P D K C T S W R N Z,60185218bc28d50a56653c58,21,Mężczyzna,2022-06-11_09h31.08.072,task,2021.1.4,Win32,144.0092166,6299f149e92ead563fba08ef,62a444b274f65a87f4d5f273,,,,,,,,,,,,,,,,,,,,,,,,,,,,,,,,,,,,,,,,,,,,,,,,,,,,,,,,,,,,,,,,,,,,,,,,,,,,2,0,2,0,1,,,,,,,,,,,,,,,,,,,,,
,,,,,,,,,,,,60185218bc28d50a56653c58,21,Mężczyzna,2022-06-11_09h31.08.072,task,2021.1.4,Win32,144.0092166,6299f149e92ead563fba08ef,62a444b274f65a87f4d5f273,,,,,,,,,,,,,3,,,,,,,,,,Task,18,(16/4) - 3,1,,,,,,,,,,,,,,,,,,,0,,,,,,,,,,,,,,,,,,,,,,,"[""3""]",0,[3.615700000286097],0,0,0,17,1,,,,,,,,,,,,,,,,,,,,,,,,,,
,,,,,,,,,,,,60185218bc28d50a56653c58,21,Mężczyzna,2022-06-11_09h31.08.072,task,2021.1.4,Win32,144.0092166,6299f149e92ead563fba08ef,62a444b274f65a87f4d5f273,,,,,,,,,,,,,8,,,,,,,,,,Task,32,(8/2) + 4,8,,,,,,,,,,,,,,,,,,,1,,,,,,,,,,,,,,,,,,,,,,,"[""8""]",1,[2.4342000002860686],0,1,1,31,1,,,,,,,,,,,,,,,,,,,,,,,,,,
,,,,,,,,,,,X V Q F H G B L J M P D K C T S W R N Z,60185218bc28d50a56653c58,21,Mężczyzna,2022-06-11_09h31.08.072,task,2021.1.4,Win32,144.0092166,6299f149e92ead563fba08ef,62a444b274f65a87f4d5f273,,,,,,,,,,,,,,,,,,,,,,,,,,,,,,,,,,,,,,,,,,,,,,,,,,,,,,,,,,,,,,,,,,,,,,,,,,,,3,0,3,0,1,,,,,,,,,,,,,,,,,,,,,
,,,,,,,,,,,,60185218bc28d50a56653c58,21,Mężczyzna,2022-06-11_09h31.08.072,task,2021.1.4,Win32,144.0092166,6299f149e92ead563fba08ef,62a444b274f65a87f4d5f273,,,,,,,,,,,,,5,,,,,,,,,,Task,29,(3x8) - 19 ,5,,,,,,,,,,,,,,,,,,,1,,,,,,,,,,,,,,,,,,,,,,,"[""5""]",1,[3.795199999809256],0,0,0,28,1,,,,,,,,,,,,,,,,,,,,,,,,,,
,,,,,,,,,,,X V Q F H G B L J M P D K C T S W R N Z,60185218bc28d50a56653c58,21,Mężczyzna,2022-06-11_09h31.08.072,task,2021.1.4,Win32,144.0092166,6299f149e92ead563fba08ef,62a444b274f65a87f4d5f273,,,,,,,,,,,,,,,,,,,,,,,,,,,,,,,,,,,,,,,,,,,,,,,,,,,,,,,,,,,,,,,,,,,,,,,,,,,,4,0,4,0,1,,,,,,,,,,,,,,,,,,,,,
,,,,,,,,,,,,60185218bc28d50a56653c58,21,Mężczyzna,2022-06-11_09h31.08.072,task,2021.1.4,Win32,144.0092166,6299f149e92ead563fba08ef,62a444b274f65a87f4d5f273,,,,,,,,,,,,,,,,,,,,,,,,,,,,,,,,,,,,,,,,,,,,,,,,,,,,,,,,,,,,,,,,,,,,,,,,,,,,,,,,,qshh,"[""q"",""s"",""h"",""h""]",0,"[1.5277999997139204,1.8119000000953633,2.192799999713884,2.476900000095384,3.2320999999046194]",0,QSHFH,3,0,3,0,1,,,,,,,,,,
,,,,,,,,,,,,60185218bc28d50a56653c58,21,Mężczyzna,2022-06-11_09h31.08.072,task,2021.1.4,Win32,144.0092166,6299f149e92ead563fba08ef,62a444b274f65a87f4d5f273,,,,,,,,,,,,,,,,,,,,,,,Task,12,(4x4) - 11,5,,,,,,,,,,,,,,,,,,,0,,,,,,,,,,,,,,,,,,,,,,,,0,,0,0,0,11,1,,,,,,,,,,,,,,,,,,,,,,,,,,
,,,,,,,,,,,,60185218bc28d50a56653c58,21,Mężczyzna,2022-06-11_09h31.08.072,task,2021.1.4,Win32,144.0092166,6299f149e92ead563fba08ef,62a444b274f65a87f4d5f273,,,,,,,,,,,,,6,,,,,,,,,,Task,13,(3x4) - 6,6,,,,,,,,,,,,,,,,,,,1,,,,,,,,,,,,,,,,,,,,,,,"[""6""]",1,[3.3836999998092665],0,1,1,12,1,,,,,,,,,,,,,,,,,,,,,,,,,,
,,,,,,,,,,,X V Q F H G B L J M P D K C T S W R N Z,60185218bc28d50a56653c58,21,Mężczyzna,2022-06-11_09h31.08.072,task,2021.1.4,Win32,144.0092166,6299f149e92ead563fba08ef,62a444b274f65a87f4d5f273,,,,,,,,,,,,,,,,,,,,,,,,,,,,,,,,,,,,,,,,,,,,,,,,,,,,,,,,,,,,,,,,,,,,,,,,,,,,0,0,0,0,1,,,,,,,,,,,,,,,,,,,,,
,,,,,,,,,,,,60185218bc28d50a56653c58,21,Mężczyzna,2022-06-11_09h31.08.072,task,2021.1.4,Win32,144.0092166,6299f149e92ead563fba08ef,62a444b274f65a87f4d5f273,,,,,,,,,,,,,1,,,,,,,,,,Task,34,(9/3) - 2,1,,,,,,,,,,,,,,,,,,,1,,,,,,,,,,,,,,,,,,,,,,,"[""1""]",1,[1.371499999999969],0,0,0,33,1,,,,,,,,,,,,,,,,,,,,,,,,,,
,,,,,,,,,,,X V Q F H G B L J M P D K C T S W R N Z,60185218bc28d50a56653c58,21,Mężczyzna,2022-06-11_09h31.08.072,task,2021.1.4,Win32,144.0092166,6299f149e92ead563fba08ef,62a444b274f65a87f4d5f273,,,,,,,,,,,,,,,,,,,,,,,,,,,,,,,,,,,,,,,,,,,,,,,,,,,,,,,,,,,,,,,,,,,,,,,,,,,,1,0,1,0,1,,,,,,,,,,,,,,,,,,,,,
,,,,,,,,,,,,60185218bc28d50a56653c58,21,Mężczyzna,2022-06-11_09h31.08.072,task,2021.1.4,Win32,144.0092166,6299f149e92ead563fba08ef,62a444b274f65a87f4d5f273,,,,,,,,,,,,,2,,,,,,,,,,Task,10,(2x5) - 8,2,,,,,,,,,,,,,,,,,,,1,,,,,,,,,,,,,,,,,,,,,,,"[""2""]",1,[2.121499999999969],0,0,0,9,1,,,,,,,,,,,,,,,,,,,,,,,,,,
,,,,,,,,,,,X V Q F H G B L J M P D K C T S W R N Z,60185218bc28d50a56653c58,21,Mężczyzna,2022-06-11_09h31.08.072,task,2021.1.4,Win32,144.0092166,6299f149e92ead563fba08ef,62a444b274f65a87f4d5f273,,,,,,,,,,,,,,,,,,,,,,,,,,,,,,,,,,,,,,,,,,,,,,,,,,,,,,,,,,,,,,,,,,,,,,,,,,,,2,0,2,0,1,,,,,,,,,,,,,,,,,,,,,
,,,,,,,,,,,,60185218bc28d50a56653c58,21,Mężczyzna,2022-06-11_09h31.08.072,task,2021.1.4,Win32,144.0092166,6299f149e92ead563fba08ef,62a444b274f65a87f4d5f273,,,,,,,,,,,,,3,,,,,,,,,,Task,27,(3/3) + 2,3,,,,,,,,,,,,,,,,,,,1,,,,,,,,,,,,,,,,,,,,,,,"[""3""]",1,[1.9400999999046462],0,0,0,26,1,,,,,,,,,,,,,,,,,,,,,,,,,,
,,,,,,,,,,,X V Q F H G B L J M P D K C T S W R N Z,60185218bc28d50a56653c58,21,Mężczyzna,2022-06-11_09h31.08.072,task,2021.1.4,Win32,144.0092166,6299f149e92ead563fba08ef,62a444b274f65a87f4d5f273,,,,,,,,,,,,,,,,,,,,,,,,,,,,,,,,,,,,,,,,,,,,,,,,,,,,,,,,,,,,,,,,,,,,,,,,,,,,3,0,3,0,1,,,,,,,,,,,,,,,,,,,,,
,,,,,,,,,,,,60185218bc28d50a56653c58,21,Mężczyzna,2022-06-11_09h31.08.072,task,2021.1.4,Win32,144.0092166,6299f149e92ead563fba08ef,62a444b274f65a87f4d5f273,,,,,,,,,,,,,0,,,,,,,,,,Task,8,(1x5) - 5,0,,,,,,,,,,,,,,,,,,,1,,,,,,,,,,,,,,,,,,,,,,,"[""0""]",1,[1.7125999999046257],0,0,0,7,1,,,,,,,,,,,,,,,,,,,,,,,,,,
,,,,,,,,,,,X V Q F H G B L J M P D K C T S W R N Z,60185218bc28d50a56653c58,21,Mężczyzna,2022-06-11_09h31.08.072,task,2021.1.4,Win32,144.0092166,6299f149e92ead563fba08ef,62a444b274f65a87f4d5f273,,,,,,,,,,,,,,,,,,,,,,,,,,,,,,,,,,,,,,,,,,,,,,,,,,,,,,,,,,,,,,,,,,,,,,,,,,,,4,0,4,0,1,,,,,,,,,,,,,,,,,,,,,
,,,,,,,,,,,,60185218bc28d50a56653c58,21,Mężczyzna,2022-06-11_09h31.08.072,task,2021.1.4,Win32,144.0092166,6299f149e92ead563fba08ef,62a444b274f65a87f4d5f273,,,,,,,,,,,,,,,,,,,,,,,,,,,,,,,,,,,,,,,,,,,,,,,,,,,,,,,,,,,,,,,,,,,,,,,,,,,,,,,,,mklzw,"[""m"",""k"",""l"",""z"",""w""]",0,"[0.8512000002860987,1.17920000028613,1.6357000002861355,1.9299000000954152,2.2849000000953765,2.789400000095384]",1,MKLZW,4,0,4,0,1,,,,,,,,,,
,,,,,,,,,,,,60185218bc28d50a56653c58,21,Mężczyzna,2022-06-11_09h31.08.072,task,2021.1.4,Win32,144.0092166,6299f149e92ead563fba08ef,62a444b274f65a87f4d5f273,,,,,,,,,,,,,1,,,,,,,,,,Task,34,(9/3) - 2,1,,,,,,,,,,,,,,,,,,,1,,,,,,,,,,,,,,,,,,,,,,,"[""1""]",1,[1.782599999904619],0,0,0,33,1,,,,,,,,,,,,,,,,,,,,,,,,,,
,,,,,,,,,,,X V Q F H G B L J M P D K C T S W R N Z,60185218bc28d50a56653c58,21,Mężczyzna,2022-06-11_09h31.08.072,task,2021.1.4,Win32,144.0092166,6299f149e92ead563fba08ef,62a444b274f65a87f4d5f273,,,,,,,,,,,,,,,,,,,,,,,,,,,,,,,,,,,,,,,,,,,,,,,,,,,,,,,,,,,,,,,,,,,,,,,,,,,,0,0,0,0,1,,,,,,,,,,,,,,,,,,,,,
,,,,,,,,,,,,60185218bc28d50a56653c58,21,Mężczyzna,2022-06-11_09h31.08.072,task,2021.1.4,Win32,144.0092166,6299f149e92ead563fba08ef,62a444b274f65a87f4d5f273,,,,,,,,,,,,,1,,,,,,,,,,Task,18,(16/4) - 3,1,,,,,,,,,,,,,,,,,,,1,,,,,,,,,,,,,,,,,,,,,,,"[""1""]",1,[1.79849999999999],0,0,0,17,1,,,,,,,,,,,,,,,,,,,,,,,,,,
,,,,,,,,,,,X V Q F H G B L J M P D K C T S W R N Z,60185218bc28d50a56653c58,21,Mężczyzna,2022-06-11_09h31.08.072,task,2021.1.4,Win32,144.0092166,6299f149e92ead563fba08ef,62a444b274f65a87f4d5f273,,,,,,,,,,,,,,,,,,,,,,,,,,,,,,,,,,,,,,,,,,,,,,,,,,,,,,,,,,,,,,,,,,,,,,,,,,,,1,0,1,0,1,,,,,,,,,,,,,,,,,,,,,
,,,,,,,,,,,,60185218bc28d50a56653c58,21,Mężczyzna,2022-06-11_09h31.08.072,task,2021.1.4,Win32,144.0092166,6299f149e92ead563fba08ef,62a444b274f65a87f4d5f273,,,,,,,,,,,,,1,,,,,,,,,,Task,34,(9/3) - 2,1,,,,,,,,,,,,,,,,,,,1,,,,,,,,,,,,,,,,,,,,,,,"[""1""]",1,[1.135500000000036],0,0,0,33,1,,,,,,,,,,,,,,,,,,,,,,,,,,
,,,,,,,,,,,X V Q F H G B L J M P D K C T S W R N Z,60185218bc28d50a56653c58,21,Mężczyzna,2022-06-11_09h31.08.072,task,2021.1.4,Win32,144.0092166,6299f149e92ead563fba08ef,62a444b274f65a87f4d5f273,,,,,,,,,,,,,,,,,,,,,,,,,,,,,,,,,,,,,,,,,,,,,,,,,,,,,,,,,,,,,,,,,,,,,,,,,,,,2,0,2,0,1,,,,,,,,,,,,,,,,,,,,,
,,,,,,,,,,,,60185218bc28d50a56653c58,21,Mężczyzna,2022-06-11_09h31.08.072,task,2021.1.4,Win32,144.0092166,6299f149e92ead563fba08ef,62a444b274f65a87f4d5f273,,,,,,,,,,,,,8,,,,,,,,,,Task,23,(2x3) + 2,8,,,,,,,,,,,,,,,,,,,1,,,,,,,,,,,,,,,,,,,,,,,"[""8""]",1,[1.753499999999974],0,0,0,22,1,,,,,,,,,,,,,,,,,,,,,,,,,,
,,,,,,,,,,,X V Q F H G B L J M P D K C T S W R N Z,60185218bc28d50a56653c58,21,Mężczyzna,2022-06-11_09h31.08.072,task,2021.1.4,Win32,144.0092166,6299f149e92ead563fba08ef,62a444b274f65a87f4d5f273,,,,,,,,,,,,,,,,,,,,,,,,,,,,,,,,,,,,,,,,,,,,,,,,,,,,,,,,,,,,,,,,,,,,,,,,,,,,3,0,3,0,1,,,,,,,,,,,,,,,,,,,,,
,,,,,,,,,,,,60185218bc28d50a56653c58,21,Mężczyzna,2022-06-11_09h31.08.072,task,2021.1.4,Win32,144.0092166,6299f149e92ead563fba08ef,62a444b274f65a87f4d5f273,,,,,,,,,,,,,0,,,,,,,,,,Task,8,(1x5) - 5,0,,,,,,,,,,,,,,,,,,,1,,,,,,,,,,,,,,,,,,,,,,,"[""0""]",1,[1.2051000003814352],0,0,0,7,1,,,,,,,,,,,,,,,,,,,,,,,,,,
,,,,,,,,,,,X V Q F H G B L J M P D K C T S W R N Z,60185218bc28d50a56653c58,21,Mężczyzna,2022-06-11_09h31.08.072,task,2021.1.4,Win32,144.0092166,6299f149e92ead563fba08ef,62a444b274f65a87f4d5f273,,,,,,,,,,,,,,,,,,,,,,,,,,,,,,,,,,,,,,,,,,,,,,,,,,,,,,,,,,,,,,,,,,,,,,,,,,,,4,0,4,0,1,,,,,,,,,,,,,,,,,,,,,
,,,,,,,,,,,,60185218bc28d50a56653c58,21,Mężczyzna,2022-06-11_09h31.08.072,task,2021.1.4,Win32,144.0092166,6299f149e92ead563fba08ef,62a444b274f65a87f4d5f273,,,,,,,,,,,,,8,,,,,,,,,,Task,23,(2x3) + 2,8,,,,,,,,,,,,,,,,,,,1,,,,,,,,,,,,,,,,,,,,,,,"[""8""]",1,[1.9144000000953838],0,0,0,22,1,,,,,,,,,,,,,,,,,,,,,,,,,,
,,,,,,,,,,,X V Q F H G B L J M P D K C T S W R N Z,60185218bc28d50a56653c58,21,Mężczyzna,2022-06-11_09h31.08.072,task,2021.1.4,Win32,144.0092166,6299f149e92ead563fba08ef,62a444b274f65a87f4d5f273,,,,,,,,,,,,,,,,,,,,,,,,,,,,,,,,,,,,,,,,,,,,,,,,,,,,,,,,,,,,,,,,,,,,,,,,,,,,5,0,5,0,1,,,,,,,,,,,,,,,,,,,,,
,,,,,,,,,,,,60185218bc28d50a56653c58,21,Mężczyzna,2022-06-11_09h31.08.072,task,2021.1.4,Win32,144.0092166,6299f149e92ead563fba08ef,62a444b274f65a87f4d5f273,,,,,,,,,,,,,,,,,,,,,,,,,,,,,,,,,,,,,,,,,,,,,,,,,,,,,,,,,,,,,,,,,,,,,,,,,,,,,,,,,fpspsl,"[""f"",""p"",""s"",""p"",""s"",""l""]",0,"[0.8662000002861419,1.158200000286115,1.4782000002861082,1.9348000001907621,3.8243000001907603,3.9972000002861137,4.374200000286123]",0,FPSPLC,5,0,5,0,1,,,,,,,,,,
,,,,,,,,,,,,60185218bc28d50a56653c58,21,Mężczyzna,2022-06-11_09h31.08.072,task,2021.1.4,Win32,144.0092166,6299f149e92ead563fba08ef,62a444b274f65a87f4d5f273,,,,,,,,,,,,,4,,,,,,,,,,Task,28,(2x5) - 6,4,,,,,,,,,,,,,,,,,,,1,,,,,,,,,,,,,,,,,,,,,,,"[""4""]",1,[1.2954000000953556],0,0,0,27,1,,,,,,,,,,,,,,,,,,,,,,,,,,
,,,,,,,,,,,X V Q F H G B L J M P D K C T S W R N Z,60185218bc28d50a56653c58,21,Mężczyzna,2022-06-11_09h31.08.072,task,2021.1.4,Win32,144.0092166,6299f149e92ead563fba08ef,62a444b274f65a87f4d5f273,,,,,,,,,,,,,,,,,,,,,,,,,,,,,,,,,,,,,,,,,,,,,,,,,,,,,,,,,,,,,,,,,,,,,,,,,,,,0,0,0,0,1,,,,,,,,,,,,,,,,,,,,,
,,,,,,,,,,,,60185218bc28d50a56653c58,21,Mężczyzna,2022-06-11_09h31.08.072,task,2021.1.4,Win32,144.0092166,6299f149e92ead563fba08ef,62a444b274f65a87f4d5f273,,,,,,,,,,,,,1,,,,,,,,,,Task,9,(3x7) - 20,1,,,,,,,,,,,,,,,,,,,1,,,,,,,,,,,,,,,,,,,,,,,"[""1""]",1,[1.7808999996185548],0,0,0,8,1,,,,,,,,,,,,,,,,,,,,,,,,,,
,,,,,,,,,,,X V Q F H G B L J M P D K C T S W R N Z,60185218bc28d50a56653c58,21,Mężczyzna,2022-06-11_09h31.08.072,task,2021.1.4,Win32,144.0092166,6299f149e92ead563fba08ef,62a444b274f65a87f4d5f273,,,,,,,,,,,,,,,,,,,,,,,,,,,,,,,,,,,,,,,,,,,,,,,,,,,,,,,,,,,,,,,,,,,,,,,,,,,,1,0,1,0,1,,,,,,,,,,,,,,,,,,,,,
,,,,,,,,,,,,60185218bc28d50a56653c58,21,Mężczyzna,2022-06-11_09h31.08.072,task,2021.1.4,Win32,144.0092166,6299f149e92ead563fba08ef,62a444b274f65a87f4d5f273,,,,,,,,,,,,,3,,,,,,,,,,Task,3,(2x3) - 3,3,,,,,,,,,,,,,,,,,,,1,,,,,,,,,,,,,,,,,,,,,,,"[""3""]",1,[1.518000000000029],0,0,0,2,1,,,,,,,,,,,,,,,,,,,,,,,,,,
,,,,,,,,,,,X V Q F H G B L J M P D K C T S W R N Z,60185218bc28d50a56653c58,21,Mężczyzna,2022-06-11_09h31.08.072,task,2021.1.4,Win32,144.0092166,6299f149e92ead563fba08ef,62a444b274f65a87f4d5f273,,,,,,,,,,,,,,,,,,,,,,,,,,,,,,,,,,,,,,,,,,,,,,,,,,,,,,,,,,,,,,,,,,,,,,,,,,,,2,0,2,0,1,,,,,,,,,,,,,,,,,,,,,
,,,,,,,,,,,,60185218bc28d50a56653c58,21,Mężczyzna,2022-06-11_09h31.08.072,task,2021.1.4,Win32,144.0092166,6299f149e92ead563fba08ef,62a444b274f65a87f4d5f273,,,,,,,,,,,,,7,,,,,,,,,,Task,31,(4/2) + 5,7,,,,,,,,,,,,,,,,,,,1,,,,,,,,,,,,,,,,,,,,,,,"[""7""]",1,[1.7245999999046262],0,0,0,30,1,,,,,,,,,,,,,,,,,,,,,,,,,,
,,,,,,,,,,,X V Q F H G B L J M P D K C T S W R N Z,60185218bc28d50a56653c58,21,Mężczyzna,2022-06-11_09h31.08.072,task,2021.1.4,Win32,144.0092166,6299f149e92ead563fba08ef,62a444b274f65a87f4d5f273,,,,,,,,,,,,,,,,,,,,,,,,,,,,,,,,,,,,,,,,,,,,,,,,,,,,,,,,,,,,,,,,,,,,,,,,,,,,3,0,3,0,1,,,,,,,,,,,,,,,,,,,,,
,,,,,,,,,,,,60185218bc28d50a56653c58,21,Mężczyzna,2022-06-11_09h31.08.072,task,2021.1.4,Win32,144.0092166,6299f149e92ead563fba08ef,62a444b274f65a87f4d5f273,,,,,,,,,,,,,2,,,,,,,,,,Task,10,(2x5) - 8,2,,,,,,,,,,,,,,,,,,,1,,,,,,,,,,,,,,,,,,,,,,,"[""2""]",1,[1.5379000000953624],0,0,0,9,1,,,,,,,,,,,,,,,,,,,,,,,,,,
,,,,,,,,,,,X V Q F H G B L J M P D K C T S W R N Z,60185218bc28d50a56653c58,21,Mężczyzna,2022-06-11_09h31.08.072,task,2021.1.4,Win32,144.0092166,6299f149e92ead563fba08ef,62a444b274f65a87f4d5f273,,,,,,,,,,,,,,,,,,,,,,,,,,,,,,,,,,,,,,,,,,,,,,,,,,,,,,,,,,,,,,,,,,,,,,,,,,,,4,0,4,0,1,,,,,,,,,,,,,,,,,,,,,
,,,,,,,,,,,,60185218bc28d50a56653c58,21,Mężczyzna,2022-06-11_09h31.08.072,task,2021.1.4,Win32,144.0092166,6299f149e92ead563fba08ef,62a444b274f65a87f4d5f273,,,,,,,,,,,,,4,,,,,,,,,,Task,36,(8/4) + 3,5,,,,,,,,,,,,,,,,,,,0,,,,,,,,,,,,,,,,,,,,,,,"[""4""]",0,[2.051099999904636],0,0,0,35,1,,,,,,,,,,,,,,,,,,,,,,,,,,
,,,,,,,,,,,,60185218bc28d50a56653c58,21,Mężczyzna,2022-06-11_09h31.08.072,task,2021.1.4,Win32,144.0092166,6299f149e92ead563fba08ef,62a444b274f65a87f4d5f273,,,,,,,,,,,,,4,,,,,,,,,,Task,21,(10/2) - 1,4,,,,,,,,,,,,,,,,,,,1,,,,,,,,,,,,,,,,,,,,,,,"[""4""]",1,[1.739300000190724],0,1,1,20,1,,,,,,,,,,,,,,,,,,,,,,,,,,
,,,,,,,,,,,X V Q F H G B L J M P D K C T S W R N Z,60185218bc28d50a56653c58,21,Mężczyzna,2022-06-11_09h31.08.072,task,2021.1.4,Win32,144.0092166,6299f149e92ead563fba08ef,62a444b274f65a87f4d5f273,,,,,,,,,,,,,,,,,,,,,,,,,,,,,,,,,,,,,,,,,,,,,,,,,,,,,,,,,,,,,,,,,,,,,,,,,,,,5,0,5,0,1,,,,,,,,,,,,,,,,,,,,,
,,,,,,,,,,,,60185218bc28d50a56653c58,21,Mężczyzna,2022-06-11_09h31.08.072,task,2021.1.4,Win32,144.0092166,6299f149e92ead563fba08ef,62a444b274f65a87f4d5f273,,,,,,,,,,,,,,,,,,,,,,,,,,,,,,,,,,,,,,,,,,,,,,,,,,,,,,,,,,,,,,,,,,,,,,,,,,,,,,,,,qbchzr,"[""q"",""b"",""c"",""h"",""z"",""r""]",0,"[1.185099999904594,1.685099999904594,2.0459999999999923,2.568200000286083,4.004200000286062,4.192200000286107,4.706099999904609]",1,QBCHZR,6,0,6,0,1,,,,,,,,,,
,,,,,,,,,,,,60185218bc28d50a56653c58,21,Mężczyzna,2022-06-11_09h31.08.072,task,2021.1.4,Win32,144.0092166,6299f149e92ead563fba08ef,62a444b274f65a87f4d5f273,,,,,,,,,,,,,8,,,,,,,,,,Task,7,(3x7) - 12,9,,,,,,,,,,,,,,,,,,,0,,,,,,,,,,,,,,,,,,,,,,,"[""8""]",0,[3.1786999998092256],0,0,0,6,1,,,,,,,,,,,,,,,,,,,,,,,,,,
,,,,,,,,,,,,60185218bc28d50a56653c58,21,Mężczyzna,2022-06-11_09h31.08.072,task,2021.1.4,Win32,144.0092166,6299f149e92ead563fba08ef,62a444b274f65a87f4d5f273,,,,,,,,,,,,,3,,,,,,,,,,Task,3,(2x3) - 3,3,,,,,,,,,,,,,,,,,,,1,,,,,,,,,,,,,,,,,,,,,,,"[""3""]",1,[1.420000000000016],0,1,1,2,1,,,,,,,,,,,,,,,,,,,,,,,,,,
,,,,,,,,,,,X V Q F H G B L J M P D K C T S W R N Z,60185218bc28d50a56653c58,21,Mężczyzna,2022-06-11_09h31.08.072,task,2021.1.4,Win32,144.0092166,6299f149e92ead563fba08ef,62a444b274f65a87f4d5f273,,,,,,,,,,,,,,,,,,,,,,,,,,,,,,,,,,,,,,,,,,,,,,,,,,,,,,,,,,,,,,,,,,,,,,,,,,,,0,0,0,0,1,,,,,,,,,,,,,,,,,,,,,
,,,,,,,,,,,,60185218bc28d50a56653c58,21,Mężczyzna,2022-06-11_09h31.08.072,task,2021.1.4,Win32,144.0092166,6299f149e92ead563fba08ef,62a444b274f65a87f4d5f273,,,,,,,,,,,,,7,,,,,,,,,,Task,14,(2x2) + 3,7,,,,,,,,,,,,,,,,,,,1,,,,,,,,,,,,,,,,,,,,,,,"[""7""]",1,[2.3241999998092524],0,0,0,13,1,,,,,,,,,,,,,,,,,,,,,,,,,,
,,,,,,,,,,,X V Q F H G B L J M P D K C T S W R N Z,60185218bc28d50a56653c58,21,Mężczyzna,2022-06-11_09h31.08.072,task,2021.1.4,Win32,144.0092166,6299f149e92ead563fba08ef,62a444b274f65a87f4d5f273,,,,,,,,,,,,,,,,,,,,,,,,,,,,,,,,,,,,,,,,,,,,,,,,,,,,,,,,,,,,,,,,,,,,,,,,,,,,1,0,1,0,1,,,,,,,,,,,,,,,,,,,,,
,,,,,,,,,,,,60185218bc28d50a56653c58,21,Mężczyzna,2022-06-11_09h31.08.072,task,2021.1.4,Win32,144.0092166,6299f149e92ead563fba08ef,62a444b274f65a87f4d5f273,,,,,,,,,,,,,1,,,,,,,,,,Task,18,(16/4) - 3,1,,,,,,,,,,,,,,,,,,,1,,,,,,,,,,,,,,,,,,,,,,,"[""1""]",1,[1.9923000001907667],0,0,0,17,1,,,,,,,,,,,,,,,,,,,,,,,,,,
,,,,,,,,,,,X V Q F H G B L J M P D K C T S W R N Z,60185218bc28d50a56653c58,21,Mężczyzna,2022-06-11_09h31.08.072,task,2021.1.4,Win32,144.0092166,6299f149e92ead563fba08ef,62a444b274f65a87f4d5f273,,,,,,,,,,,,,,,,,,,,,,,,,,,,,,,,,,,,,,,,,,,,,,,,,,,,,,,,,,,,,,,,,,,,,,,,,,,,2,0,2,0,1,,,,,,,,,,,,,,,,,,,,,
,,,,,,,,,,,,60185218bc28d50a56653c58,21,Mężczyzna,2022-06-11_09h31.08.072,task,2021.1.4,Win32,144.0092166,6299f149e92ead563fba08ef,62a444b274f65a87f4d5f273,,,,,,,,,,,,,1,,,,,,,,,,Task,1,(12/6) - 1,1,,,,,,,,,,,,,,,,,,,1,,,,,,,,,,,,,,,,,,,,,,,"[""1""]",1,[1.600399999618503],0,0,0,0,1,,,,,,,,,,,,,,,,,,,,,,,,,,
,,,,,,,,,,,X V Q F H G B L J M P D K C T S W R N Z,60185218bc28d50a56653c58,21,Mężczyzna,2022-06-11_09h31.08.072,task,2021.1.4,Win32,144.0092166,6299f149e92ead563fba08ef,62a444b274f65a87f4d5f273,,,,,,,,,,,,,,,,,,,,,,,,,,,,,,,,,,,,,,,,,,,,,,,,,,,,,,,,,,,,,,,,,,,,,,,,,,,,3,0,3,0,1,,,,,,,,,,,,,,,,,,,,,
,,,,,,,,,,,,60185218bc28d50a56653c58,21,Mężczyzna,2022-06-11_09h31.08.072,task,2021.1.4,Win32,144.0092166,6299f149e92ead563fba08ef,62a444b274f65a87f4d5f273,,,,,,,,,,,,,4,,,,,,,,,,Task,21,(10/2) - 1,4,,,,,,,,,,,,,,,,,,,1,,,,,,,,,,,,,,,,,,,,,,,"[""4""]",1,[1.3173000001906985],0,0,0,20,1,,,,,,,,,,,,,,,,,,,,,,,,,,
,,,,,,,,,,,X V Q F H G B L J M P D K C T S W R N Z,60185218bc28d50a56653c58,21,Mężczyzna,2022-06-11_09h31.08.072,task,2021.1.4,Win32,144.0092166,6299f149e92ead563fba08ef,62a444b274f65a87f4d5f273,,,,,,,,,,,,,,,,,,,,,,,,,,,,,,,,,,,,,,,,,,,,,,,,,,,,,,,,,,,,,,,,,,,,,,,,,,,,4,0,4,0,1,,,,,,,,,,,,,,,,,,,,,
,,,,,,,,,,,,60185218bc28d50a56653c58,21,Mężczyzna,2022-06-11_09h31.08.072,task,2021.1.4,Win32,144.0092166,6299f149e92ead563fba08ef,62a444b274f65a87f4d5f273,,,,,,,,,,,,,1,,,,,,,,,,Task,9,(3x7) - 20,1,,,,,,,,,,,,,,,,,,,1,,,,,,,,,,,,,,,,,,,,,,,"[""1""]",1,[1.1764000000953843],0,0,0,8,1,,,,,,,,,,,,,,,,,,,,,,,,,,
,,,,,,,,,,,X V Q F H G B L J M P D K C T S W R N Z,60185218bc28d50a56653c58,21,Mężczyzna,2022-06-11_09h31.08.072,task,2021.1.4,Win32,144.0092166,6299f149e92ead563fba08ef,62a444b274f65a87f4d5f273,,,,,,,,,,,,,,,,,,,,,,,,,,,,,,,,,,,,,,,,,,,,,,,,,,,,,,,,,,,,,,,,,,,,,,,,,,,,5,0,5,0,1,,,,,,,,,,,,,,,,,,,,,
,,,,,,,,,,,,60185218bc28d50a56653c58,21,Mężczyzna,2022-06-11_09h31.08.072,task,2021.1.4,Win32,144.0092166,6299f149e92ead563fba08ef,62a444b274f65a87f4d5f273,,,,,,,,,,,,,4,,,,,,,,,,Task,11,(18/3) - 2,4,,,,,,,,,,,,,,,,,,,1,,,,,,,,,,,,,,,,,,,,,,,"[""4""]",1,[2.7597999997138913],0,0,0,10,1,,,,,,,,,,,,,,,,,,,,,,,,,,
,,,,,,,,,,,X V Q F H G B L J M P D K C T S W R N Z,60185218bc28d50a56653c58,21,Mężczyzna,2022-06-11_09h31.08.072,task,2021.1.4,Win32,144.0092166,6299f149e92ead563fba08ef,62a444b274f65a87f4d5f273,,,,,,,,,,,,,,,,,,,,,,,,,,,,,,,,,,,,,,,,,,,,,,,,,,,,,,,,,,,,,,,,,,,,,,,,,,,,6,0,6,0,1,,,,,,,,,,,,,,,,,,,,,
,,,,,,,,,,,,60185218bc28d50a56653c58,21,Mężczyzna,2022-06-11_09h31.08.072,task,2021.1.4,Win32,144.0092166,6299f149e92ead563fba08ef,62a444b274f65a87f4d5f273,,,,,,,,,,,,,,,,,,,,,,,,,,,,,,,,,,,,,,,,,,,,,,,,,,,,,,,,,,,,,,,,,,,,,,,,,,,,,,,,,vpdklww,"[""v"",""p"",""d"",""k"",""l"",""w"",""w""]",0,"[1.3237999997139127,1.602799999713909,1.8491999998092865,2.190099999904646,2.684900000095354,2.8116999998092638,4.641400000095359,4.905900000095357]",1,VPDKLWW,7,0,7,0,1,,,,,,,,,,
,,,,,,,,,,,,60185218bc28d50a56653c58,21,Mężczyzna,2022-06-11_09h31.08.072,task,2021.1.4,Win32,144.0092166,6299f149e92ead563fba08ef,62a444b274f65a87f4d5f273,,,,,,,,,,,,,7,,,,,,,,,,Task,6,(12/2) + 1,7,,,,,,,,,,,,,,,,,,,1,,,,,,,,,,,,,,,,,,,,,,,"[""7""]",1,[1.789900000095372],0,0,0,5,1,,,,,,,,,,,,,,,,,,,,,,,,,,
,,,,,,,,,,,X V Q F H G B L J M P D K C T S W R N Z,60185218bc28d50a56653c58,21,Mężczyzna,2022-06-11_09h31.08.072,task,2021.1.4,Win32,144.0092166,6299f149e92ead563fba08ef,62a444b274f65a87f4d5f273,,,,,,,,,,,,,,,,,,,,,,,,,,,,,,,,,,,,,,,,,,,,,,,,,,,,,,,,,,,,,,,,,,,,,,,,,,,,0,0,0,0,1,,,,,,,,,,,,,,,,,,,,,
,,,,,,,,,,,,60185218bc28d50a56653c58,21,Mężczyzna,2022-06-11_09h31.08.072,task,2021.1.4,Win32,144.0092166,6299f149e92ead563fba08ef,62a444b274f65a87f4d5f273,,,,,,,,,,,,,8,,,,,,,,,,Task,15,(3x7) - 13,8,,,,,,,,,,,,,,,,,,,1,,,,,,,,,,,,,,,,,,,,,,,"[""8""]",1,[2.324599999904592],0,0,0,14,1,,,,,,,,,,,,,,,,,,,,,,,,,,
,,,,,,,,,,,X V Q F H G B L J M P D K C T S W R N Z,60185218bc28d50a56653c58,21,Mężczyzna,2022-06-11_09h31.08.072,task,2021.1.4,Win32,144.0092166,6299f149e92ead563fba08ef,62a444b274f65a87f4d5f273,,,,,,,,,,,,,,,,,,,,,,,,,,,,,,,,,,,,,,,,,,,,,,,,,,,,,,,,,,,,,,,,,,,,,,,,,,,,1,0,1,0,1,,,,,,,,,,,,,,,,,,,,,
,,,,,,,,,,,,60185218bc28d50a56653c58,21,Mężczyzna,2022-06-11_09h31.08.072,task,2021.1.4,Win32,144.0092166,6299f149e92ead563fba08ef,62a444b274f65a87f4d5f273,,,,,,,,,,,,,7,,,,,,,,,,Task,38,(4x6) - 17,7,,,,,,,,,,,,,,,,,,,1,,,,,,,,,,,,,,,,,,,,,,,"[""7""]",1,[2.8787000002861305],0,0,0,37,1,,,,,,,,,,,,,,,,,,,,,,,,,,
,,,,,,,,,,,X V Q F H G B L J M P D K C T S W R N Z,60185218bc28d50a56653c58,21,Mężczyzna,2022-06-11_09h31.08.072,task,2021.1.4,Win32,144.0092166,6299f149e92ead563fba08ef,62a444b274f65a87f4d5f273,,,,,,,,,,,,,,,,,,,,,,,,,,,,,,,,,,,,,,,,,,,,,,,,,,,,,,,,,,,,,,,,,,,,,,,,,,,,2,0,2,0,1,,,,,,,,,,,,,,,,,,,,,
,,,,,,,,,,,,60185218bc28d50a56653c58,21,Mężczyzna,2022-06-11_09h31.08.072,task,2021.1.4,Win32,144.0092166,6299f149e92ead563fba08ef,62a444b274f65a87f4d5f273,,,,,,,,,,,,,5,,,,,,,,,,Task,36,(8/4) + 3,5,,,,,,,,,,,,,,,,,,,1,,,,,,,,,,,,,,,,,,,,,,,"[""5""]",1,[1.462400000095272],0,0,0,35,1,,,,,,,,,,,,,,,,,,,,,,,,,,
,,,,,,,,,,,X V Q F H G B L J M P D K C T S W R N Z,60185218bc28d50a56653c58,21,Mężczyzna,2022-06-11_09h31.08.072,task,2021.1.4,Win32,144.0092166,6299f149e92ead563fba08ef,62a444b274f65a87f4d5f273,,,,,,,,,,,,,,,,,,,,,,,,,,,,,,,,,,,,,,,,,,,,,,,,,,,,,,,,,,,,,,,,,,,,,,,,,,,,3,0,3,0,1,,,,,,,,,,,,,,,,,,,,,
,,,,,,,,,,,,60185218bc28d50a56653c58,21,Mężczyzna,2022-06-11_09h31.08.072,task,2021.1.4,Win32,144.0092166,6299f149e92ead563fba08ef,62a444b274f65a87f4d5f273,,,,,,,,,,,,,8,,,,,,,,,,Task,15,(3x7) - 13,8,,,,,,,,,,,,,,,,,,,1,,,,,,,,,,,,,,,,,,,,,,,"[""8""]",1,[2.5394999999999754],0,0,0,14,1,,,,,,,,,,,,,,,,,,,,,,,,,,
,,,,,,,,,,,X V Q F H G B L J M P D K C T S W R N Z,60185218bc28d50a56653c58,21,Mężczyzna,2022-06-11_09h31.08.072,task,2021.1.4,Win32,144.0092166,6299f149e92ead563fba08ef,62a444b274f65a87f4d5f273,,,,,,,,,,,,,,,,,,,,,,,,,,,,,,,,,,,,,,,,,,,,,,,,,,,,,,,,,,,,,,,,,,,,,,,,,,,,4,0,4,0,1,,,,,,,,,,,,,,,,,,,,,
,,,,,,,,,,,,60185218bc28d50a56653c58,21,Mężczyzna,2022-06-11_09h31.08.072,task,2021.1.4,Win32,144.0092166,6299f149e92ead563fba08ef,62a444b274f65a87f4d5f273,,,,,,,,,,,,,9,,,,,,,,,,Task,40,(7x2) - 5,9,,,,,,,,,,,,,,,,,,,1,,,,,,,,,,,,,,,,,,,,,,,"[""9""]",1,[2.8379999999999654],0,0,0,39,1,,,,,,,,,,,,,,,,,,,,,,,,,,
,,,,,,,,,,,X V Q F H G B L J M P D K C T S W R N Z,60185218bc28d50a56653c58,21,Mężczyzna,2022-06-11_09h31.08.072,task,2021.1.4,Win32,144.0092166,6299f149e92ead563fba08ef,62a444b274f65a87f4d5f273,,,,,,,,,,,,,,,,,,,,,,,,,,,,,,,,,,,,,,,,,,,,,,,,,,,,,,,,,,,,,,,,,,,,,,,,,,,,5,0,5,0,1,,,,,,,,,,,,,,,,,,,,,
,,,,,,,,,,,,60185218bc28d50a56653c58,21,Mężczyzna,2022-06-11_09h31.08.072,task,2021.1.4,Win32,144.0092166,6299f149e92ead563fba08ef,62a444b274f65a87f4d5f273,,,,,,,,,,,,,3,,,,,,,,,,Task,20,(18/9) + 1,3,,,,,,,,,,,,,,,,,,,1,,,,,,,,,,,,,,,,,,,,,,,"[""3""]",1,[1.592799999713975],0,0,0,19,1,,,,,,,,,,,,,,,,,,,,,,,,,,
,,,,,,,,,,,X V Q F H G B L J M P D K C T S W R N Z,60185218bc28d50a56653c58,21,Mężczyzna,2022-06-11_09h31.08.072,task,2021.1.4,Win32,144.0092166,6299f149e92ead563fba08ef,62a444b274f65a87f4d5f273,,,,,,,,,,,,,,,,,,,,,,,,,,,,,,,,,,,,,,,,,,,,,,,,,,,,,,,,,,,,,,,,,,,,,,,,,,,,6,0,6,0,1,,,,,,,,,,,,,,,,,,,,,
,,,,,,,,,,,,60185218bc28d50a56653c58,21,Mężczyzna,2022-06-11_09h31.08.072,task,2021.1.4,Win32,144.0092166,6299f149e92ead563fba08ef,62a444b274f65a87f4d5f273,,,,,,,,,,,,,0,,,,,,,,,,Task,25,(10/5) - 2,0,,,,,,,,,,,,,,,,,,,1,,,,,,,,,,,,,,,,,,,,,,,"[""0""]",1,[1.6159000000953938],0,0,0,24,1,,,,,,,,,,,,,,,,,,,,,,,,,,
,,,,,,,,,,,X V Q F H G B L J M P D K C T S W R N Z,60185218bc28d50a56653c58,21,Mężczyzna,2022-06-11_09h31.08.072,task,2021.1.4,Win32,144.0092166,6299f149e92ead563fba08ef,62a444b274f65a87f4d5f273,,,,,,,,,,,,,,,,,,,,,,,,,,,,,,,,,,,,,,,,,,,,,,,,,,,,,,,,,,,,,,,,,,,,,,,,,,,,7,0,7,0,1,,,,,,,,,,,,,,,,,,,,,
,,,,,,,,,,,,60185218bc28d50a56653c58,21,Mężczyzna,2022-06-11_09h31.08.072,task,2021.1.4,Win32,144.0092166,6299f149e92ead563fba08ef,62a444b274f65a87f4d5f273,,,,,,,,,,,,,,,,,,,,,,,,,,,,,,,,,,,,,,,,,,,,,,,,,,,,,,,,,,,,,,,,,,,,,,,,,,,,,,,,,ddfdrkrd,"[""d"",""d"",""f"",""d"",""r"",""k"",""r"",""d""]",0,"[1.190400000095451,1.3521000003814834,1.5655000000000427,1.8670000000000755,2.982100000381479,3.914900000095372,5.863300000190748,10.585600000381532,10.78010000038148]",0,DDFGDDRK,8,0,8,0,1,,,,,,,,,,
,,,,,,,,,,,,60185218bc28d50a56653c58,21,Mężczyzna,2022-06-11_09h31.08.072,task,2021.1.4,Win32,144.0092166,6299f149e92ead563fba08ef,62a444b274f65a87f4d5f273,,,,,,,,,,,,,3,,,,,,,,,,Task,35,(1x2) + 1,3,,,,,,,,,,,,,,,,,,,1,,,,,,,,,,,,,,,,,,,,,,,"[""3""]",1,[2.136400000095364],0,0,0,34,1,,,,,,,,,,,,,,,,,,,,,,,,,,
,,,,,,,,,,,X V Q F H G B L J M P D K C T S W R N Z,60185218bc28d50a56653c58,21,Mężczyzna,2022-06-11_09h31.08.072,task,2021.1.4,Win32,144.0092166,6299f149e92ead563fba08ef,62a444b274f65a87f4d5f273,,,,,,,,,,,,,,,,,,,,,,,,,,,,,,,,,,,,,,,,,,,,,,,,,,,,,,,,,,,,,,,,,,,,,,,,,,,,0,0,0,0,1,,,,,,,,,,,,,,,,,,,,,
,,,,,,,,,,,,60185218bc28d50a56653c58,21,Mężczyzna,2022-06-11_09h31.08.072,task,2021.1.4,Win32,144.0092166,6299f149e92ead563fba08ef,62a444b274f65a87f4d5f273,,,,,,,,,,,,,4,,,,,,,,,,Task,28,(2x5) - 6,4,,,,,,,,,,,,,,,,,,,1,,,,,,,,,,,,,,,,,,,,,,,"[""4""]",1,[1.6217000002860686],0,0,0,27,1,,,,,,,,,,,,,,,,,,,,,,,,,,
,,,,,,,,,,,X V Q F H G B L J M P D K C T S W R N Z,60185218bc28d50a56653c58,21,Mężczyzna,2022-06-11_09h31.08.072,task,2021.1.4,Win32,144.0092166,6299f149e92ead563fba08ef,62a444b274f65a87f4d5f273,,,,,,,,,,,,,,,,,,,,,,,,,,,,,,,,,,,,,,,,,,,,,,,,,,,,,,,,,,,,,,,,,,,,,,,,,,,,1,0,1,0,1,,,,,,,,,,,,,,,,,,,,,
,,,,,,,,,,,,60185218bc28d50a56653c58,21,Mężczyzna,2022-06-11_09h31.08.072,task,2021.1.4,Win32,144.0092166,6299f149e92ead563fba08ef,62a444b274f65a87f4d5f273,,,,,,,,,,,,,0,,,,,,,,,,Task,33,(1/1) - 1,0,,,,,,,,,,,,,,,,,,,1,,,,,,,,,,,,,,,,,,,,,,,"[""0""]",1,[1.5317000002861505],0,0,0,32,1,,,,,,,,,,,,,,,,,,,,,,,,,,
,,,,,,,,,,,X V Q F H G B L J M P D K C T S W R N Z,60185218bc28d50a56653c58,21,Mężczyzna,2022-06-11_09h31.08.072,task,2021.1.4,Win32,144.0092166,6299f149e92ead563fba08ef,62a444b274f65a87f4d5f273,,,,,,,,,,,,,,,,,,,,,,,,,,,,,,,,,,,,,,,,,,,,,,,,,,,,,,,,,,,,,,,,,,,,,,,,,,,,2,0,2,0,1,,,,,,,,,,,,,,,,,,,,,
,,,,,,,,,,,,60185218bc28d50a56653c58,21,Mężczyzna,2022-06-11_09h31.08.072,task,2021.1.4,Win32,144.0092166,6299f149e92ead563fba08ef,62a444b274f65a87f4d5f273,,,,,,,,,,,,,3,,,,,,,,,,Task,20,(18/9) + 1,3,,,,,,,,,,,,,,,,,,,1,,,,,,,,,,,,,,,,,,,,,,,"[""3""]",1,[1.3584999999999354],0,0,0,19,1,,,,,,,,,,,,,,,,,,,,,,,,,,
,,,,,,,,,,,X V Q F H G B L J M P D K C T S W R N Z,60185218bc28d50a56653c58,21,Mężczyzna,2022-06-11_09h31.08.072,task,2021.1.4,Win32,144.0092166,6299f149e92ead563fba08ef,62a444b274f65a87f4d5f273,,,,,,,,,,,,,,,,,,,,,,,,,,,,,,,,,,,,,,,,,,,,,,,,,,,,,,,,,,,,,,,,,,,,,,,,,,,,3,0,3,0,1,,,,,,,,,,,,,,,,,,,,,
,,,,,,,,,,,,60185218bc28d50a56653c58,21,Mężczyzna,2022-06-11_09h31.08.072,task,2021.1.4,Win32,144.0092166,6299f149e92ead563fba08ef,62a444b274f65a87f4d5f273,,,,,,,,,,,,,0,,,,,,,,,,Task,17,(2x3) - 6,0,,,,,,,,,,,,,,,,,,,1,,,,,,,,,,,,,,,,,,,,,,,"[""0""]",1,[1.3674000000953583],0,0,0,16,1,,,,,,,,,,,,,,,,,,,,,,,,,,
,,,,,,,,,,,X V Q F H G B L J M P D K C T S W R N Z,60185218bc28d50a56653c58,21,Mężczyzna,2022-06-11_09h31.08.072,task,2021.1.4,Win32,144.0092166,6299f149e92ead563fba08ef,62a444b274f65a87f4d5f273,,,,,,,,,,,,,,,,,,,,,,,,,,,,,,,,,,,,,,,,,,,,,,,,,,,,,,,,,,,,,,,,,,,,,,,,,,,,4,0,4,0,1,,,,,,,,,,,,,,,,,,,,,
,,,,,,,,,,,,60185218bc28d50a56653c58,21,Mężczyzna,2022-06-11_09h31.08.072,task,2021.1.4,Win32,144.0092166,6299f149e92ead563fba08ef,62a444b274f65a87f4d5f273,,,,,,,,,,,,,9,,,,,,,,,,Task,7,(3x7) - 12,9,,,,,,,,,,,,,,,,,,,1,,,,,,,,,,,,,,,,,,,,,,,"[""9""]",1,[1.7664000000953592],0,0,0,6,1,,,,,,,,,,,,,,,,,,,,,,,,,,
,,,,,,,,,,,X V Q F H G B L J M P D K C T S W R N Z,60185218bc28d50a56653c58,21,Mężczyzna,2022-06-11_09h31.08.072,task,2021.1.4,Win32,144.0092166,6299f149e92ead563fba08ef,62a444b274f65a87f4d5f273,,,,,,,,,,,,,,,,,,,,,,,,,,,,,,,,,,,,,,,,,,,,,,,,,,,,,,,,,,,,,,,,,,,,,,,,,,,,5,0,5,0,1,,,,,,,,,,,,,,,,,,,,,
,,,,,,,,,,,,60185218bc28d50a56653c58,21,Mężczyzna,2022-06-11_09h31.08.072,task,2021.1.4,Win32,144.0092166,6299f149e92ead563fba08ef,62a444b274f65a87f4d5f273,,,,,,,,,,,,,3,,,,,,,,,,Task,20,(18/9) + 1,3,,,,,,,,,,,,,,,,,,,1,,,,,,,,,,,,,,,,,,,,,,,"[""3""]",1,[1.2389000000953274],0,0,0,19,1,,,,,,,,,,,,,,,,,,,,,,,,,,
,,,,,,,,,,,X V Q F H G B L J M P D K C T S W R N Z,60185218bc28d50a56653c58,21,Mężczyzna,2022-06-11_09h31.08.072,task,2021.1.4,Win32,144.0092166,6299f149e92ead563fba08ef,62a444b274f65a87f4d5f273,,,,,,,,,,,,,,,,,,,,,,,,,,,,,,,,,,,,,,,,,,,,,,,,,,,,,,,,,,,,,,,,,,,,,,,,,,,,6,0,6,0,1,,,,,,,,,,,,,,,,,,,,,
,,,,,,,,,,,,60185218bc28d50a56653c58,21,Mężczyzna,2022-06-11_09h31.08.072,task,2021.1.4,Win32,144.0092166,6299f149e92ead563fba08ef,62a444b274f65a87f4d5f273,,,,,,,,,,,,,0,,,,,,,,,,Task,2,(2x2) - 2,2,,,,,,,,,,,,,,,,,,,0,,,,,,,,,,,,,,,,,,,,,,,"[""0""]",0,[1.288000000000011],0,0,0,1,1,,,,,,,,,,,,,,,,,,,,,,,,,,
,,,,,,,,,,,,60185218bc28d50a56653c58,21,Mężczyzna,2022-06-11_09h31.08.072,task,2021.1.4,Win32,144.0092166,6299f149e92ead563fba08ef,62a444b274f65a87f4d5f273,,,,,,,,,,,,,3,,,,,,,,,,Task,20,(18/9) + 1,3,,,,,,,,,,,,,,,,,,,1,,,,,,,,,,,,,,,,,,,,,,,"[""3""]",1,[1.3731000003814415],0,1,1,19,1,,,,,,,,,,,,,,,,,,,,,,,,,,
,,,,,,,,,,,X V Q F H G B L J M P D K C T S W R N Z,60185218bc28d50a56653c58,21,Mężczyzna,2022-06-11_09h31.08.072,task,2021.1.4,Win32,144.0092166,6299f149e92ead563fba08ef,62a444b274f65a87f4d5f273,,,,,,,,,,,,,,,,,,,,,,,,,,,,,,,,,,,,,,,,,,,,,,,,,,,,,,,,,,,,,,,,,,,,,,,,,,,,7,0,7,0,1,,,,,,,,,,,,,,,,,,,,,
,,,,,,,,,,,,60185218bc28d50a56653c58,21,Mężczyzna,2022-06-11_09h31.08.072,task,2021.1.4,Win32,144.0092166,6299f149e92ead563fba08ef,62a444b274f65a87f4d5f273,,,,,,,,,,,,,,,,,,,,,,,,,,,,,,,,,,,,,,,,,,,,,,,,,,,,,,,,,,,,,,,,,,,,,,,,,,,,,,,,,qprldpnb,"[""q"",""p"",""r"",""l"",""d"",""p"",""n"",""b""]",0,"[1.3110999999047408,1.6927999997139977,1.9070999999047444,2.461899999618595,2.7320000000000846,3.0998999996186285,3.6632999997138995,4.831199999809314,5.2537999997139195]",1,QPRLDPNB,9,0,9,0,1,,,,,,,,,,
,,,,,,,,,,,,60185218bc28d50a56653c58,21,Mężczyzna,2022-06-11_09h31.08.072,task,2021.1.4,Win32,144.0092166,6299f149e92ead563fba08ef,62a444b274f65a87f4d5f273,,,,,,,,,,,,,2,,,,,,,,,,Task,2,(2x2) - 2,2,,,,,,,,,,,,,,,,,,,1,,,,,,,,,,,,,,,,,,,,,,,"[""2""]",1,[1.6320999999046535],0,0,0,1,1,,,,,,,,,,,,,,,,,,,,,,,,,,
,,,,,,,,,,,X V Q F H G B L J M P D K C T S W R N Z,60185218bc28d50a56653c58,21,Mężczyzna,2022-06-11_09h31.08.072,task,2021.1.4,Win32,144.0092166,6299f149e92ead563fba08ef,62a444b274f65a87f4d5f273,,,,,,,,,,,,,,,,,,,,,,,,,,,,,,,,,,,,,,,,,,,,,,,,,,,,,,,,,,,,,,,,,,,,,,,,,,,,0,0,0,0,1,,,,,,,,,,,,,,,,,,,,,
,,,,,,,,,,,,60185218bc28d50a56653c58,21,Mężczyzna,2022-06-11_09h31.08.072,task,2021.1.4,Win32,144.0092166,6299f149e92ead563fba08ef,62a444b274f65a87f4d5f273,,,,,,,,,,,,,5,,,,,,,,,,Task,36,(8/4) + 3,5,,,,,,,,,,,,,,,,,,,1,,,,,,,,,,,,,,,,,,,,,,,"[""5""]",1,[1.2950999999046644],0,0,0,35,1,,,,,,,,,,,,,,,,,,,,,,,,,,
,,,,,,,,,,,X V Q F H G B L J M P D K C T S W R N Z,60185218bc28d50a56653c58,21,Mężczyzna,2022-06-11_09h31.08.072,task,2021.1.4,Win32,144.0092166,6299f149e92ead563fba08ef,62a444b274f65a87f4d5f273,,,,,,,,,,,,,,,,,,,,,,,,,,,,,,,,,,,,,,,,,,,,,,,,,,,,,,,,,,,,,,,,,,,,,,,,,,,,1,0,1,0,1,,,,,,,,,,,,,,,,,,,,,
,,,,,,,,,,,,60185218bc28d50a56653c58,21,Mężczyzna,2022-06-11_09h31.08.072,task,2021.1.4,Win32,144.0092166,6299f149e92ead563fba08ef,62a444b274f65a87f4d5f273,,,,,,,,,,,,,3,,,,,,,,,,Task,27,(3/3) + 2,3,,,,,,,,,,,,,,,,,,,1,,,,,,,,,,,,,,,,,,,,,,,"[""3""]",1,[1.6972999997138913],0,0,0,26,1,,,,,,,,,,,,,,,,,,,,,,,,,,
,,,,,,,,,,,X V Q F H G B L J M P D K C T S W R N Z,60185218bc28d50a56653c58,21,Mężczyzna,2022-06-11_09h31.08.072,task,2021.1.4,Win32,144.0092166,6299f149e92ead563fba08ef,62a444b274f65a87f4d5f273,,,,,,,,,,,,,,,,,,,,,,,,,,,,,,,,,,,,,,,,,,,,,,,,,,,,,,,,,,,,,,,,,,,,,,,,,,,,2,0,2,0,1,,,,,,,,,,,,,,,,,,,,,
,,,,,,,,,,,,60185218bc28d50a56653c58,21,Mężczyzna,2022-06-11_09h31.08.072,task,2021.1.4,Win32,144.0092166,6299f149e92ead563fba08ef,62a444b274f65a87f4d5f273,,,,,,,,,,,,,4,,,,,,,,,,Task,18,(16/4) - 3,1,,,,,,,,,,,,,,,,,,,0,,,,,,,,,,,,,,,,,,,,,,,"[""4""]",0,[2.8714000000953774],0,0,0,17,1,,,,,,,,,,,,,,,,,,,,,,,,,,
,,,,,,,,,,,,60185218bc28d50a56653c58,21,Mężczyzna,2022-06-11_09h31.08.072,task,2021.1.4,Win32,144.0092166,6299f149e92ead563fba08ef,62a444b274f65a87f4d5f273,,,,,,,,,,,,,3,,,,,,,,,,Task,35,(1x2) + 1,3,,,,,,,,,,,,,,,,,,,1,,,,,,,,,,,,,,,,,,,,,,,"[""3""]",1,[1.1644000000953838],0,1,1,34,1,,,,,,,,,,,,,,,,,,,,,,,,,,
,,,,,,,,,,,X V Q F H G B L J M P D K C T S W R N Z,60185218bc28d50a56653c58,21,Mężczyzna,2022-06-11_09h31.08.072,task,2021.1.4,Win32,144.0092166,6299f149e92ead563fba08ef,62a444b274f65a87f4d5f273,,,,,,,,,,,,,,,,,,,,,,,,,,,,,,,,,,,,,,,,,,,,,,,,,,,,,,,,,,,,,,,,,,,,,,,,,,,,3,0,3,0,1,,,,,,,,,,,,,,,,,,,,,
,,,,,,,,,,,,60185218bc28d50a56653c58,21,Mężczyzna,2022-06-11_09h31.08.072,task,2021.1.4,Win32,144.0092166,6299f149e92ead563fba08ef,62a444b274f65a87f4d5f273,,,,,,,,,,,,,0,,,,,,,,,,Task,33,(1/1) - 1,0,,,,,,,,,,,,,,,,,,,1,,,,,,,,,,,,,,,,,,,,,,,"[""0""]",1,[2.4479000000952738],0,0,0,32,1,,,,,,,,,,,,,,,,,,,,,,,,,,
,,,,,,,,,,,X V Q F H G B L J M P D K C T S W R N Z,60185218bc28d50a56653c58,21,Mężczyzna,2022-06-11_09h31.08.072,task,2021.1.4,Win32,144.0092166,6299f149e92ead563fba08ef,62a444b274f65a87f4d5f273,,,,,,,,,,,,,,,,,,,,,,,,,,,,,,,,,,,,,,,,,,,,,,,,,,,,,,,,,,,,,,,,,,,,,,,,,,,,4,0,4,0,1,,,,,,,,,,,,,,,,,,,,,
,,,,,,,,,,,,60185218bc28d50a56653c58,21,Mężczyzna,2022-06-11_09h31.08.072,task,2021.1.4,Win32,144.0092166,6299f149e92ead563fba08ef,62a444b274f65a87f4d5f273,,,,,,,,,,,,,1,,,,,,,,,,Task,18,(16/4) - 3,1,,,,,,,,,,,,,,,,,,,1,,,,,,,,,,,,,,,,,,,,,,,"[""1""]",1,[3.345200000286127],0,0,0,17,1,,,,,,,,,,,,,,,,,,,,,,,,,,
,,,,,,,,,,,X V Q F H G B L J M P D K C T S W R N Z,60185218bc28d50a56653c58,21,Mężczyzna,2022-06-11_09h31.08.072,task,2021.1.4,Win32,144.0092166,6299f149e92ead563fba08ef,62a444b274f65a87f4d5f273,,,,,,,,,,,,,,,,,,,,,,,,,,,,,,,,,,,,,,,,,,,,,,,,,,,,,,,,,,,,,,,,,,,,,,,,,,,,5,0,5,0,1,,,,,,,,,,,,,,,,,,,,,
,,,,,,,,,,,,60185218bc28d50a56653c58,21,Mężczyzna,2022-06-11_09h31.08.072,task,2021.1.4,Win32,144.0092166,6299f149e92ead563fba08ef,62a444b274f65a87f4d5f273,,,,,,,,,,,,,1,,,,,,,,,,Task,18,(16/4) - 3,1,,,,,,,,,,,,,,,,,,,1,,,,,,,,,,,,,,,,,,,,,,,"[""1""]",1,[1.1708000001907521],0,0,0,17,1,,,,,,,,,,,,,,,,,,,,,,,,,,
,,,,,,,,,,,X V Q F H G B L J M P D K C T S W R N Z,60185218bc28d50a56653c58,21,Mężczyzna,2022-06-11_09h31.08.072,task,2021.1.4,Win32,144.0092166,6299f149e92ead563fba08ef,62a444b274f65a87f4d5f273,,,,,,,,,,,,,,,,,,,,,,,,,,,,,,,,,,,,,,,,,,,,,,,,,,,,,,,,,,,,,,,,,,,,,,,,,,,,6,0,6,0,1,,,,,,,,,,,,,,,,,,,,,
,,,,,,,,,,,,60185218bc28d50a56653c58,21,Mężczyzna,2022-06-11_09h31.08.072,task,2021.1.4,Win32,144.0092166,6299f149e92ead563fba08ef,62a444b274f65a87f4d5f273,,,,,,,,,,,,,6,,,,,,,,,,Task,37,(3/3) + 5,6,,,,,,,,,,,,,,,,,,,1,,,,,,,,,,,,,,,,,,,,,,,"[""6""]",1,[3.1844999999999573],0,0,0,36,1,,,,,,,,,,,,,,,,,,,,,,,,,,
,,,,,,,,,,,X V Q F H G B L J M P D K C T S W R N Z,60185218bc28d50a56653c58,21,Mężczyzna,2022-06-11_09h31.08.072,task,2021.1.4,Win32,144.0092166,6299f149e92ead563fba08ef,62a444b274f65a87f4d5f273,,,,,,,,,,,,,,,,,,,,,,,,,,,,,,,,,,,,,,,,,,,,,,,,,,,,,,,,,,,,,,,,,,,,,,,,,,,,7,0,7,0,1,,,,,,,,,,,,,,,,,,,,,
,,,,,,,,,,,,60185218bc28d50a56653c58,21,Mężczyzna,2022-06-11_09h31.08.072,task,2021.1.4,Win32,144.0092166,6299f149e92ead563fba08ef,62a444b274f65a87f4d5f273,,,,,,,,,,,,,1,,,,,,,,,,Task,19,(6/2) - 1,2,,,,,,,,,,,,,,,,,,,0,,,,,,,,,,,,,,,,,,,,,,,"[""1""]",0,[1.753199999809226],0,0,0,18,1,,,,,,,,,,,,,,,,,,,,,,,,,,
,,,,,,,,,,,,60185218bc28d50a56653c58,21,Mężczyzna,2022-06-11_09h31.08.072,task,2021.1.4,Win32,144.0092166,6299f149e92ead563fba08ef,62a444b274f65a87f4d5f273,,,,,,,,,,,,,,,,,,,,,,,Task,40,(7x2) - 5,9,,,,,,,,,,,,,,,,,,,0,,,,,,,,,,,,,,,,,,,,,,,,0,,0,1,1,39,1,,,,,,,,,,,,,,,,,,,,,,,,,,
,,,,,,,,,,,,60185218bc28d50a56653c58,21,Mężczyzna,2022-06-11_09h31.08.072,task,2021.1.4,Win32,144.0092166,6299f149e92ead563fba08ef,62a444b274f65a87f4d5f273,,,,,,,,,,,,,8,,,,,,,,,,Task,39,(5x3) - 7,8,,,,,,,,,,,,,,,,,,,1,,,,,,,,,,,,,,,,,,,,,,,"[""8""]",1,[3.449599999904649],0,2,2,38,1,,,,,,,,,,,,,,,,,,,,,,,,,,
,,,,,,,,,,,X V Q F H G B L J M P D K C T S W R N Z,60185218bc28d50a56653c58,21,Mężczyzna,2022-06-11_09h31.08.072,task,2021.1.4,Win32,144.0092166,6299f149e92ead563fba08ef,62a444b274f65a87f4d5f273,,,,,,,,,,,,,,,,,,,,,,,,,,,,,,,,,,,,,,,,,,,,,,,,,,,,,,,,,,,,,,,,,,,,,,,,,,,,8,0,8,0,1,,,,,,,,,,,,,,,,,,,,,
,,,,,,,,,,,,60185218bc28d50a56653c58,21,Mężczyzna,2022-06-11_09h31.08.072,task,2021.1.4,Win32,144.0092166,6299f149e92ead563fba08ef,62a444b274f65a87f4d5f273,,,,,,,,,,,,,,,,,,,,,,,,,,,,,,,,,,,,,,,,,,,,,,,,,,,,,,,,,,,,,,,,,,,,,,,,,,,,,,,,,,[],0,[2.1079000000953556],0,XLGBPBGLH,10,0,10,0,1,,,,,,,,,,
,,,,,,,,,,,,60185218bc28d50a56653c58,21,Mężczyzna,2022-06-11_09h31.08.072,task,2021.1.4,Win32,144.0092166,6299f149e92ead563fba08ef,62a444b274f65a87f4d5f273,,,,,,,,,,,,,,,,,,,,,,,Task,13,(3x4) - 6,6,,,,,,,,,,,,,,,,,,,0,,,,,,,,,,,,,,,,,,,,,,,,0,,0,0,0,12,1,,,,,,,,,,,,,,,,,,,,,,,,,,
,,,,,,,,,,,,60185218bc28d50a56653c58,21,Mężczyzna,2022-06-11_09h31.08.072,task,2021.1.4,Win32,144.0092166,6299f149e92ead563fba08ef,62a444b274f65a87f4d5f273,,,,,,,,,,,,,5,,,,,,,,,,Task,22,(3x1) + 2,5,,,,,,,,,,,,,,,,,,,1,,,,,,,,,,,,,,,,,,,,,,,"[""5""]",1,[1.5807000002861287],0,1,1,21,1,,,,,,,,,,,,,,,,,,,,,,,,,,
,,,,,,,,,,,X V Q F H G B L J M P D K C T S W R N Z,60185218bc28d50a56653c58,21,Mężczyzna,2022-06-11_09h31.08.072,task,2021.1.4,Win32,144.0092166,6299f149e92ead563fba08ef,62a444b274f65a87f4d5f273,,,,,,,,,,,,,,,,,,,,,,,,,,,,,,,,,,,,,,,,,,,,,,,,,,,,,,,,,,,,,,,,,,,,,,,,,,,,0,0,0,0,1,,,,,,,,,,,,,,,,,,,,,
,,,,,,,,,,,,60185218bc28d50a56653c58,21,Mężczyzna,2022-06-11_09h31.08.072,task,2021.1.4,Win32,144.0092166,6299f149e92ead563fba08ef,62a444b274f65a87f4d5f273,,,,,,,,,,,,,1,,,,,,,,,,Task,34,(9/3) - 2,1,,,,,,,,,,,,,,,,,,,1,,,,,,,,,,,,,,,,,,,,,,,"[""1""]",1,[1.9898999996185012],0,0,0,33,1,,,,,,,,,,,,,,,,,,,,,,,,,,
,,,,,,,,,,,X V Q F H G B L J M P D K C T S W R N Z,60185218bc28d50a56653c58,21,Mężczyzna,2022-06-11_09h31.08.072,task,2021.1.4,Win32,144.0092166,6299f149e92ead563fba08ef,62a444b274f65a87f4d5f273,,,,,,,,,,,,,,,,,,,,,,,,,,,,,,,,,,,,,,,,,,,,,,,,,,,,,,,,,,,,,,,,,,,,,,,,,,,,1,0,1,0,1,,,,,,,,,,,,,,,,,,,,,
,,,,,,,,,,,,60185218bc28d50a56653c58,21,Mężczyzna,2022-06-11_09h31.08.072,task,2021.1.4,Win32,144.0092166,6299f149e92ead563fba08ef,62a444b274f65a87f4d5f273,,,,,,,,,,,,,3,,,,,,,,,,Task,26,(2x9) - 16,2,,,,,,,,,,,,,,,,,,,0,,,,,,,,,,,,,,,,,,,,,,,"[""3""]",0,[1.7395999999046126],0,0,0,25,1,,,,,,,,,,,,,,,,,,,,,,,,,,
,,,,,,,,,,,,60185218bc28d50a56653c58,21,Mężczyzna,2022-06-11_09h31.08.072,task,2021.1.4,Win32,144.0092166,6299f149e92ead563fba08ef,62a444b274f65a87f4d5f273,,,,,,,,,,,,,9,,,,,,,,,,Task,17,(2x3) - 6,0,,,,,,,,,,,,,,,,,,,0,,,,,,,,,,,,,,,,,,,,,,,"[""9""]",0,[2.7181999998093715],0,1,1,16,1,,,,,,,,,,,,,,,,,,,,,,,,,,
,,,,,,,,,,,,60185218bc28d50a56653c58,21,Mężczyzna,2022-06-11_09h31.08.072,task,2021.1.4,Win32,144.0092166,6299f149e92ead563fba08ef,62a444b274f65a87f4d5f273,,,,,,,,,,,,,5,,,,,,,,,,Task,22,(3x1) + 2,5,,,,,,,,,,,,,,,,,,,1,,,,,,,,,,,,,,,,,,,,,,,"[""5""]",1,[1.3464000000952865],0,2,2,21,1,,,,,,,,,,,,,,,,,,,,,,,,,,
,,,,,,,,,,,X V Q F H G B L J M P D K C T S W R N Z,60185218bc28d50a56653c58,21,Mężczyzna,2022-06-11_09h31.08.072,task,2021.1.4,Win32,144.0092166,6299f149e92ead563fba08ef,62a444b274f65a87f4d5f273,,,,,,,,,,,,,,,,,,,,,,,,,,,,,,,,,,,,,,,,,,,,,,,,,,,,,,,,,,,,,,,,,,,,,,,,,,,,2,0,2,0,1,,,,,,,,,,,,,,,,,,,,,
,,,,,,,,,,,,60185218bc28d50a56653c58,21,Mężczyzna,2022-06-11_09h31.08.072,task,2021.1.4,Win32,144.0092166,6299f149e92ead563fba08ef,62a444b274f65a87f4d5f273,,,,,,,,,,,,,6,,,,,,,,,,Task,37,(3/3) + 5,6,,,,,,,,,,,,,,,,,,,1,,,,,,,,,,,,,,,,,,,,,,,"[""6""]",1,[1.898699999809196],0,0,0,36,1,,,,,,,,,,,,,,,,,,,,,,,,,,
,,,,,,,,,,,X V Q F H G B L J M P D K C T S W R N Z,60185218bc28d50a56653c58,21,Mężczyzna,2022-06-11_09h31.08.072,task,2021.1.4,Win32,144.0092166,6299f149e92ead563fba08ef,62a444b274f65a87f4d5f273,,,,,,,,,,,,,,,,,,,,,,,,,,,,,,,,,,,,,,,,,,,,,,,,,,,,,,,,,,,,,,,,,,,,,,,,,,,,3,0,3,0,1,,,,,,,,,,,,,,,,,,,,,
,,,,,,,,,,,,60185218bc28d50a56653c58,21,Mężczyzna,2022-06-11_09h31.08.072,task,2021.1.4,Win32,144.0092166,6299f149e92ead563fba08ef,62a444b274f65a87f4d5f273,,,,,,,,,,,,,7,,,,,,,,,,Task,38,(4x6) - 17,7,,,,,,,,,,,,,,,,,,,1,,,,,,,,,,,,,,,,,,,,,,,"[""7""]",1,[2.3719000000953656],0,0,0,37,1,,,,,,,,,,,,,,,,,,,,,,,,,,
,,,,,,,,,,,X V Q F H G B L J M P D K C T S W R N Z,60185218bc28d50a56653c58,21,Mężczyzna,2022-06-11_09h31.08.072,task,2021.1.4,Win32,144.0092166,6299f149e92ead563fba08ef,62a444b274f65a87f4d5f273,,,,,,,,,,,,,,,,,,,,,,,,,,,,,,,,,,,,,,,,,,,,,,,,,,,,,,,,,,,,,,,,,,,,,,,,,,,,4,0,4,0,1,,,,,,,,,,,,,,,,,,,,,
,,,,,,,,,,,,60185218bc28d50a56653c58,21,Mężczyzna,2022-06-11_09h31.08.072,task,2021.1.4,Win32,144.0092166,6299f149e92ead563fba08ef,62a444b274f65a87f4d5f273,,,,,,,,,,,,,6,,,,,,,,,,Task,30,(6/3) + 4 ,6,,,,,,,,,,,,,,,,,,,1,,,,,,,,,,,,,,,,,,,,,,,"[""6""]",1,[1.8304999999999154],0,0,0,29,1,,,,,,,,,,,,,,,,,,,,,,,,,,
,,,,,,,,,,,X V Q F H G B L J M P D K C T S W R N Z,60185218bc28d50a56653c58,21,Mężczyzna,2022-06-11_09h31.08.072,task,2021.1.4,Win32,144.0092166,6299f149e92ead563fba08ef,62a444b274f65a87f4d5f273,,,,,,,,,,,,,,,,,,,,,,,,,,,,,,,,,,,,,,,,,,,,,,,,,,,,,,,,,,,,,,,,,,,,,,,,,,,,5,0,5,0,1,,,,,,,,,,,,,,,,,,,,,
,,,,,,,,,,,,60185218bc28d50a56653c58,21,Mężczyzna,2022-06-11_09h31.08.072,task,2021.1.4,Win32,144.0092166,6299f149e92ead563fba08ef,62a444b274f65a87f4d5f273,,,,,,,,,,,,,7,,,,,,,,,,Task,6,(12/2) + 1,7,,,,,,,,,,,,,,,,,,,1,,,,,,,,,,,,,,,,,,,,,,,"[""7""]",1,[1.652199999809227],0,0,0,5,1,,,,,,,,,,,,,,,,,,,,,,,,,,
,,,,,,,,,,,X V Q F H G B L J M P D K C T S W R N Z,60185218bc28d50a56653c58,21,Mężczyzna,2022-06-11_09h31.08.072,task,2021.1.4,Win32,144.0092166,6299f149e92ead563fba08ef,62a444b274f65a87f4d5f273,,,,,,,,,,,,,,,,,,,,,,,,,,,,,,,,,,,,,,,,,,,,,,,,,,,,,,,,,,,,,,,,,,,,,,,,,,,,6,0,6,0,1,,,,,,,,,,,,,,,,,,,,,
,,,,,,,,,,,,60185218bc28d50a56653c58,21,Mężczyzna,2022-06-11_09h31.08.072,task,2021.1.4,Win32,144.0092166,6299f149e92ead563fba08ef,62a444b274f65a87f4d5f273,,,,,,,,,,,,,4,,,,,,,,,,Task,18,(16/4) - 3,1,,,,,,,,,,,,,,,,,,,0,,,,,,,,,,,,,,,,,,,,,,,"[""4""]",0,[2.2052000002861405],0,0,0,17,1,,,,,,,,,,,,,,,,,,,,,,,,,,
,,,,,,,,,,,,60185218bc28d50a56653c58,21,Mężczyzna,2022-06-11_09h31.08.072,task,2021.1.4,Win32,144.0092166,6299f149e92ead563fba08ef,62a444b274f65a87f4d5f273,,,,,,,,,,,,,5,,,,,,,,,,Task,12,(4x4) - 11,5,,,,,,,,,,,,,,,,,,,1,,,,,,,,,,,,,,,,,,,,,,,"[""5""]",1,[1.658099999904607],0,1,1,11,1,,,,,,,,,,,,,,,,,,,,,,,,,,
,,,,,,,,,,,X V Q F H G B L J M P D K C T S W R N Z,60185218bc28d50a56653c58,21,Mężczyzna,2022-06-11_09h31.08.072,task,2021.1.4,Win32,144.0092166,6299f149e92ead563fba08ef,62a444b274f65a87f4d5f273,,,,,,,,,,,,,,,,,,,,,,,,,,,,,,,,,,,,,,,,,,,,,,,,,,,,,,,,,,,,,,,,,,,,,,,,,,,,7,0,7,0,1,,,,,,,,,,,,,,,,,,,,,
,,,,,,,,,,,,60185218bc28d50a56653c58,21,Mężczyzna,2022-06-11_09h31.08.072,task,2021.1.4,Win32,144.0092166,6299f149e92ead563fba08ef,62a444b274f65a87f4d5f273,,,,,,,,,,,,,9,,,,,,,,,,Task,40,(7x2) - 5,9,,,,,,,,,,,,,,,,,,,1,,,,,,,,,,,,,,,,,,,,,,,"[""9""]",1,[2.3860999999046726],0,0,0,39,1,,,,,,,,,,,,,,,,,,,,,,,,,,
,,,,,,,,,,,X V Q F H G B L J M P D K C T S W R N Z,60185218bc28d50a56653c58,21,Mężczyzna,2022-06-11_09h31.08.072,task,2021.1.4,Win32,144.0092166,6299f149e92ead563fba08ef,62a444b274f65a87f4d5f273,,,,,,,,,,,,,,,,,,,,,,,,,,,,,,,,,,,,,,,,,,,,,,,,,,,,,,,,,,,,,,,,,,,,,,,,,,,,8,0,8,0,1,,,,,,,,,,,,,,,,,,,,,
,,,,,,,,,,,,60185218bc28d50a56653c58,21,Mężczyzna,2022-06-11_09h31.08.072,task,2021.1.4,Win32,144.0092166,6299f149e92ead563fba08ef,62a444b274f65a87f4d5f273,,,,,,,,,,,,,,,,,,,,,,,,,,,,,,,,,,,,,,,,,,,,,,,,,,,,,,,,,,,,,,,,,,,,,,,,,,,,,,,,,nmzcqazm,"[""n"",""m"",""z"",""c"",""q"",""a"",""z"",""m""]",0,"[1.600999999999999,1.892699999809338,2.1075999999046644,2.433499999999981,2.898299999713913,3.679799999713964,4.19069999980934,4.649000000000001,4.968199999809258]",0,NMZCQKXCM,11,0,11,0,1,,,,,,,,,,
,,,,,,,,,,,,60185218bc28d50a56653c58,21,Mężczyzna,2022-06-11_09h31.08.072,task,2021.1.4,Win32,144.0092166,6299f149e92ead563fba08ef,62a444b274f65a87f4d5f273,,,,,,,,,,,,,,,,,,,,,,,,,,,,,,,,,,,,,,,,,,,,,,,,,,,,,,,,,,,,,,,,,,,,,,,,,,,,,,,,,,,,,,,,,,,,"[""comma""]",0,[0.7469000000953656],0,0,0,0,1,,
,,,,,,,,,,,,60185218bc28d50a56653c58,21,Mężczyzna,2022-06-11_09h31.08.072,task,2021.1.4,Win32,144.0092166,6299f149e92ead563fba08ef,62a444b274f65a87f4d5f273,,,,,,,,,,,,,,,,,,,,,,,,,,,,,,,,,,,,,,,,,,,,,,,,,,,,,,,,,,,,,,,,,,,,,,,,,,,,,,,,,,,,,,,,,,,,"[""period""]",0,[0.5057000002860832],1,0,1,0,1,,
,,,,,,,,,,,,60185218bc28d50a56653c58,21,Mężczyzna,2022-06-11_09h31.08.072,task,2021.1.4,Win32,144.0092166,6299f149e92ead563fba08ef,62a444b274f65a87f4d5f273,,,,,,,,,,,,,,,,,,,,,,,,,,,,,,,,,,,,,,,,,,,,,,,,,,,,,,,,,,,,,,,,,,,,,,,,,,,,,,,,,,,,,,,,,,,,"[""period""]",0,[0.5387999997138877],2,0,2,0,1,,
,,,,,,,,,,,,60185218bc28d50a56653c58,21,Mężczyzna,2022-06-11_09h31.08.072,task,2021.1.4,Win32,144.0092166,6299f149e92ead563fba08ef,62a444b274f65a87f4d5f273,,,,,,,,,,,,,,,,,,,,,,,,,,,,,,,,,,,,,,,,,,,,,,,,,,,,,,,,,,,,,,,,,,,,,,,,,,,,,,,,,,,,,,,,,,,,"[""comma"",""comma""]",0,"[0.2770999999046353,1.7899999999999636]",3,0,3,0,1,,
,,,,,,,,,,,,60185218bc28d50a56653c58,21,Mężczyzna,2022-06-11_09h31.08.072,task,2021.1.4,Win32,144.0092166,6299f149e92ead563fba08ef,62a444b274f65a87f4d5f273,,,,,,,,,,,,,,,,,,,,,,,,,,,,,,,,,,,,,,,,,,,,,,,,,,,,,,,,,,,,,,,,,,,,,,,,,,,,,,,,,,,,,,,,,,,,"[""comma""]",0,[0.6293999996184994],4,0,4,0,1,,
,,,,,,,,,,,,60185218bc28d50a56653c58,21,Mężczyzna,2022-06-11_09h31.08.072,task,2021.1.4,Win32,144.0092166,6299f149e92ead563fba08ef,62a444b274f65a87f4d5f273,,,,,,,,,,,,,,,,,,,,,,,,,,,,,,,,,,,,,,,,,,,,,,,,,,,,,,,,,,,,,,,,,,,,,,,,,,,,,,,,,,,,,,,,,,,,"[""period""]",0,[0.40769999980932425],5,0,5,0,1,,
,,,,,,,,,,,,60185218bc28d50a56653c58,21,Mężczyzna,2022-06-11_09h31.08.072,task,2021.1.4,Win32,144.0092166,6299f149e92ead563fba08ef,62a444b274f65a87f4d5f273,,,,,,,,,,,,,,,,,,,,,,,,,,,,,,,,,,,,,,,,,,,,,,,,,,,,,,,,,,,,,,,,,,,,,,,,,,,,,,,,,,,,,,,,,,,,"[""period""]",0,[0.42830000019080217],6,0,6,0,1,,
,,,,,,,,,,,,60185218bc28d50a56653c58,21,Mężczyzna,2022-06-11_09h31.08.072,task,2021.1.4,Win32,144.0092166,6299f149e92ead563fba08ef,62a444b274f65a87f4d5f273,,,,,,,,,,,,,,,,,,,,,,,,,,,,,,,,,,,,,,,,,,,,,,,,,,,,,,,,,,,,,,,,,,,,,,,,,,,,,,,,,,,,,,,,,,,,"[""period""]",0,[0.5040000000000191],7,0,7,0,1,,
,,,,,,,,,,,,60185218bc28d50a56653c58,21,Mężczyzna,2022-06-11_09h31.08.072,task,2021.1.4,Win32,144.0092166,6299f149e92ead563fba08ef,62a444b274f65a87f4d5f273,,,,,,,,,,,,,,,,,,,,,,,,,,,,,,,,,,,,,,,,,,,,,,,,,,,,,,,,,,,,,,,,,,,,,,,,,,,,,,,,,,,,,,,,,,,,"[""comma""]",0,[0.4560999999047226],8,0,8,0,1,,
,,,,,,,,,,,,60185218bc28d50a56653c58,21,Mężczyzna,2022-06-11_09h31.08.072,task,2021.1.4,Win32,144.0092166,6299f149e92ead563fba08ef,62a444b274f65a87f4d5f273,,,,,,,,,,,,,,,,,,,,,,,,,,,,,,,,,,,,,,,,,,,,,,,,,,,,,,,,,,,,,,,,,,,,,,,,,,,,,,,,,,,,,,,,,,,,"[""comma""]",0,[0.3033000001906885],9,0,9,0,1,,
,,,,,,,,,,,,60185218bc28d50a56653c58,21,Mężczyzna,2022-06-11_09h31.08.072,task,2021.1.4,Win32,144.0092166,6299f149e92ead563fba08ef,62a444b274f65a87f4d5f273,,,,,,,,,,,,,,,,,,,,,,,,,,,,,,,,,,,,,,,,,,,,,,,,,,,,,,,,,,,,,,,,,,,,,,,,,,,,,,,,,,,,,,,,,,,,"[""period""]",0,[0.26809999990462074],10,0,10,0,1,,
,,,,,,,,,,,,60185218bc28d50a56653c58,21,Mężczyzna,2022-06-11_09h31.08.072,task,2021.1.4,Win32,144.0092166,6299f149e92ead563fba08ef,62a444b274f65a87f4d5f273,,,,,,,,,,,,,,,,,,,,,,,,,,,,,,,,,,,,,,,,,,,,,,,,,,,,,,,,,,,,,,,,,,,,,,,,,,,,,,,,,,,,,,,,,,,,"[""period""]",0,[0.21509999990462347],11,0,11,0,1,,
,,,,,,,,,,,,60185218bc28d50a56653c58,21,Mężczyzna,2022-06-11_09h31.08.072,task,2021.1.4,Win32,144.0092166,6299f149e92ead563fba08ef,62a444b274f65a87f4d5f273,,,,,,,,,,,,,,,,,,,,,,,,,,,,,,,,,,,,,,,,,,,,,,,,,,,,,,,,,,,,,,,,,,,,,,,,,,,,,,,,,,,,,,,,,,,,"[""comma""]",0,[0.1784000000953938],12,0,12,0,1,,
,,,,,,,,,,,,60185218bc28d50a56653c58,21,Mężczyzna,2022-06-11_09h31.08.072,task,2021.1.4,Win32,144.0092166,6299f149e92ead563fba08ef,62a444b274f65a87f4d5f273,,,,,,,,,,,,,,,,,,,,,,,,,,,,,,,,,,,,,,,,,,,,,,,,,,,,,,,,,,,,,,,,,,,,,,,,,,,,,,,,,,,,,,,,,,,,"[""period""]",0,[0.20540000009532378],13,0,13,0,1,,
,,,,,,,,,,,,60185218bc28d50a56653c58,21,Mężczyzna,2022-06-11_09h31.08.072,task,2021.1.4,Win32,144.0092166,6299f149e92ead563fba08ef,62a444b274f65a87f4d5f273,,,,,,,,,,,,,,,,,,,,,,,,,,,,,,,,,,,,,,,,,,,,,,,,,,,,,,,,,,,,,,,,,,,,,,,,,,,,,,,,,,,,,,,,,,,,"[""comma""]",0,[0.20669999980918874],14,0,14,0,1,,
,,,,,,,,,,,,60185218bc28d50a56653c58,21,Mężczyzna,2022-06-11_09h31.08.072,task,2021.1.4,Win32,144.0092166,6299f149e92ead563fba08ef,62a444b274f65a87f4d5f273,,,,,,,,,,,,,,,,,,,,,,,,,,,,,,,,,,,,,,,,,,,,,,,,,,,,,,,,,,,,,,,,,,,,,,,,,,,,,,,,,,,,,,,,,,,,"[""period""]",0,[0.21249999999997726],15,0,15,0,1,,
,,,,,,,,,,,,60185218bc28d50a56653c58,21,Mężczyzna,2022-06-11_09h31.08.072,task,2021.1.4,Win32,144.0092166,6299f149e92ead563fba08ef,62a444b274f65a87f4d5f273,,,,,,,,,,,,,,,,,,,,,,,,,,,,,,,,,,,,,,,,,,,,,,,,,,,,,,,,,,,,,,,,,,,,,,,,,,,,,,,,,,,,,,,,,,,,"[""comma""]",0,[0.25099999999997635],16,0,16,0,1,,
,,,,,,,,,,,,60185218bc28d50a56653c58,21,Mężczyzna,2022-06-11_09h31.08.072,task,2021.1.4,Win32,144.0092166,6299f149e92ead563fba08ef,62a444b274f65a87f4d5f273,,,,,,,,,,,,,,,,,,,,,,,,,,,,,,,,,,,,,,,,,,,,,,,,,,,,,,,,,,,,,,,,,,,,,,,,,,,,,,,,,,,,,,,,,,,,"[""period""]",0,[0.2694000000952883],17,0,17,0,1,,
,,,,,,,,,,,,60185218bc28d50a56653c58,21,Mężczyzna,2022-06-11_09h31.08.072,task,2021.1.4,Win32,144.0092166,6299f149e92ead563fba08ef,62a444b274f65a87f4d5f273,,,,,,,,,,,,,,,,,,,,,,,,,,,,,,,,,,,,,,,,,,,,,,,,,,,,,,,,,,,,,,,,,,,,,,,,,,,,,,,,,,,,,,,,,,,,"[""period""]",0,[0.3305000000000291],18,0,18,0,1,,
,,,,,,,,,,,,60185218bc28d50a56653c58,21,Mężczyzna,2022-06-11_09h31.08.072,task,2021.1.4,Win32,144.0092166,6299f149e92ead563fba08ef,62a444b274f65a87f4d5f273,,,,,,,,,,,,,,,,,,,,,,,,,,,,,,,,,,,,,,,,,,,,,,,,,,,,,,,,,,,,,,,,,,,,,,,,,,,,,,,,,,,,,,,,,,,,"[""comma""]",0,[0.2408999996185912],19,0,19,0,1,,
,,,,,,,,,,,,60185218bc28d50a56653c58,21,Mężczyzna,2022-06-11_09h31.08.072,task,2021.1.4,Win32,144.0092166,6299f149e92ead563fba08ef,62a444b274f65a87f4d5f273,,,,,,,,,,,,,,,,,,,,,,,,,,,,,,,,,,,,,,,,,,,,,,,,,,,,,,,,,,,,,,,,,,,,,,,,,,,,,,,,,,,,,,,,,,,,"[""period""]",0,[0.3105000000000473],20,0,20,0,1,,
,,,,,,,,,,,,60185218bc28d50a56653c58,21,Mężczyzna,2022-06-11_09h31.08.072,task,2021.1.4,Win32,144.0092166,6299f149e92ead563fba08ef,62a444b274f65a87f4d5f273,,,,,,,,,,,,,,,,,,,,,,,,,,,,,,,,,,,,,,,,,,,,,,,,,,,,,,,,,,,,,,,,,,,,,,,,,,,,,,,,,,,,,,,,,,,,"[""comma""]",0,[0.21909999990464257],21,0,21,0,1,,
,,,,,,,,,,,,60185218bc28d50a56653c58,21,Mężczyzna,2022-06-11_09h31.08.072,task,2021.1.4,Win32,144.0092166,6299f149e92ead563fba08ef,62a444b274f65a87f4d5f273,,,,,,,,,,,,,,,,,,,,,,,,,,,,,,,,,,,,,,,,,,,,,,,,,,,,,,,,,,,,,,,,,,,,,,,,,,,,,,,,,,,,,,,,,,,,"[""comma""]",0,[0.22809999990465712],22,0,22,0,1,,
,,,,,,,,,,,,60185218bc28d50a56653c58,21,Mężczyzna,2022-06-11_09h31.08.072,task,2021.1.4,Win32,144.0092166,6299f149e92ead563fba08ef,62a444b274f65a87f4d5f273,,,,,,,,,,,,,,,,,,,,,,,,,,,,,,,,,,,,,,,,,,,,,,,,,,,,,,,,,,,,,,,,,,,,,,,,,,,,,,,,,,,,,,,,,,,,"[""period""]",0,[0.24640000009537744],23,0,23,0,1,,
,,,,,,,,,,,,60185218bc28d50a56653c58,21,Mężczyzna,2022-06-11_09h31.08.072,task,2021.1.4,Win32,144.0092166,6299f149e92ead563fba08ef,62a444b274f65a87f4d5f273,,,,,,,,,,,,,,,,,,,,,,,,,,,,,,,,,,,,,,,,,,,,,,,,,,,,,,,,,,,,,,,,,,,,,,,,,,,,,,,,,,,,,,,,,,,,"[""period""]",0,[0.20669999980918874],24,0,24,0,1,,
,,,,,,,,,,,,60185218bc28d50a56653c58,21,Mężczyzna,2022-06-11_09h31.08.072,task,2021.1.4,Win32,144.0092166,6299f149e92ead563fba08ef,62a444b274f65a87f4d5f273,,,,,,,,,,,,,,,,,,,,,,,,,,,,,,,,,,,,,,,,,,,,,,,,,,,,,,,,,,,,,,,,,,,,,,,,,,,,,,,,,,,,,,,,,,,,"[""period""]",0,[0.19420000028617324],25,0,25,0,1,,
,,,,,,,,,,,,60185218bc28d50a56653c58,21,Mężczyzna,2022-06-11_09h31.08.072,task,2021.1.4,Win32,144.0092166,6299f149e92ead563fba08ef,62a444b274f65a87f4d5f273,,,,,,,,,,,,,,,,,,,,,,,,,,,,,,,,,,,,,,,,,,,,,,,,,,,,,,,,,,,,,,,,,,,,,,,,,,,,,,,,,,,,,,,,,,,,"[""comma""]",0,[0.19789999961858484],26,0,26,0,1,,
,,,,,,,,,,,,60185218bc28d50a56653c58,21,Mężczyzna,2022-06-11_09h31.08.072,task,2021.1.4,Win32,144.0092166,6299f149e92ead563fba08ef,62a444b274f65a87f4d5f273,,,,,,,,,,,,,,,,,,,,,,,,,,,,,,,,,,,,,,,,,,,,,,,,,,,,,,,,,,,,,,,,,,,,,,,,,,,,,,,,,,,,,,,,,,,,"[""period""]",0,[0.2075000000000955],27,0,27,0,1,,
,,,,,,,,,,,,60185218bc28d50a56653c58,21,Mężczyzna,2022-06-11_09h31.08.072,task,2021.1.4,Win32,144.0092166,6299f149e92ead563fba08ef,62a444b274f65a87f4d5f273,,,,,,,,,,,,,,,,,,,,,,,,,,,,,,,,,,,,,,,,,,,,,,,,,,,,,,,,,,,,,,,,,,,,,,,,,,,,,,,,,,,,,,,,,,,,"[""period""]",0,[0.20709999990469896],28,0,28,0,1,,
,,,,,,,,,,,,60185218bc28d50a56653c58,21,Mężczyzna,2022-06-11_09h31.08.072,task,2021.1.4,Win32,144.0092166,6299f149e92ead563fba08ef,62a444b274f65a87f4d5f273,,,,,,,,,,,,,,,,,,,,,,,,,,,,,,,,,,,,,,,,,,,,,,,,,,,,,,,,,,,,,,,,,,,,,,,,,,,,,,,,,,,,,,,,,,,,"[""comma""]",0,[0.17790000009540563],29,0,29,0,1,,
,,,,,,,,,,,,60185218bc28d50a56653c58,21,Mężczyzna,2022-06-11_09h31.08.072,task,2021.1.4,Win32,144.0092166,6299f149e92ead563fba08ef,62a444b274f65a87f4d5f273,,,,,,,,,,,,,,,,,,,,,,,,,,,,,,,,,,,,,,,,,,,,,,,,,,,,,,,,,,,,,,,,,,,,,,,,,,,,,,,,,,,,,,,,,,,,"[""comma""]",0,[0.25549999999998363],30,0,30,0,1,,
,,,,,,,,,,,,60185218bc28d50a56653c58,21,Mężczyzna,2022-06-11_09h31.08.072,task,2021.1.4,Win32,144.0092166,6299f149e92ead563fba08ef,62a444b274f65a87f4d5f273,,,,,,,,,,,,,,,,,,,,,,,,,,,,,,,,,,,,,,,,,,,,,,,,,,,,,,,,,,,,,,,,,,,,,,,,,,,,,,,,,,,,,,,,,,,,"[""period""]",0,[0.23440000009543382],31,0,31,0,1,,
,,,,,,,,,,,,60185218bc28d50a56653c58,21,Mężczyzna,2022-06-11_09h31.08.072,task,2021.1.4,Win32,144.0092166,6299f149e92ead563fba08ef,62a444b274f65a87f4d5f273,,,,,,,,,,,,,,,,,,,,,,,,,,,,,,,,,,,,,,,,,,,,,,,,,,,,,,,,,,,,,,,,,,,,,,,,,,,,,,,,,,,,,,,,,,,,"[""comma""]",0,[0.22680000019067847],32,0,32,0,1,,
,,,,,,,,,,,,60185218bc28d50a56653c58,21,Mężczyzna,2022-06-11_09h31.08.072,task,2021.1.4,Win32,144.0092166,6299f149e92ead563fba08ef,62a444b274f65a87f4d5f273,,,,,,,,,,,,,,,,,,,,,,,,,,,,,,,,,,,,,,,,,,,,,,,,,,,,,,,,,,,,,,,,,,,,,,,,,,,,,,,,,,,,,,,,,,,,"[""period""]",0,[0.2765000000000555],33,0,33,0,1,,
,,,,,,,,,,,,60185218bc28d50a56653c58,21,Mężczyzna,2022-06-11_09h31.08.072,task,2021.1.4,Win32,144.0092166,6299f149e92ead563fba08ef,62a444b274f65a87f4d5f273,,,,,,,,,,,,,,,,,,,,,,,,,,,,,,,,,,,,,,,,,,,,,,,,,,,,,,,,,,,,,,,,,,,,,,,,,,,,,,,,,,,,,,,,,,,,"[""period""]",0,[0.21309999990467077],34,0,34,0,1,,
,,,,,,,,,,,,60185218bc28d50a56653c58,21,Mężczyzna,2022-06-11_09h31.08.072,task,2021.1.4,Win32,144.0092166,6299f149e92ead563fba08ef,62a444b274f65a87f4d5f273,,,,,,,,,,,,,,,,,,,,,,,,,,,,,,,,,,,,,,,,,,,,,,,,,,,,,,,,,,,,,,,,,,,,,,,,,,,,,,,,,,,,,,,,,,,,"[""comma""]",0,[0.22670000028608683],35,0,35,0,1,,
,,,,,,,,,,,,60185218bc28d50a56653c58,21,Mężczyzna,2022-06-11_09h31.08.072,task,2021.1.4,Win32,144.0092166,6299f149e92ead563fba08ef,62a444b274f65a87f4d5f273,,,,,,,,,,,,,,,,,,,,,,,,,,,,,,,,,,,,,,,,,,,,,,,,,,,,,,,,,,,,,,,,,,,,,,,,,,,,,,,,,,,,,,,,,,,,"[""comma""]",0,[0.2139999999999418],36,0,36,0,1,,
,,,,,,,,,,,,60185218bc28d50a56653c58,21,Mężczyzna,2022-06-11_09h31.08.072,task,2021.1.4,Win32,144.0092166,6299f149e92ead563fba08ef,62a444b274f65a87f4d5f273,,,,,,,,,,,,,,,,,,,,,,,,,,,,,,,,,,,,,,,,,,,,,,,,,,,,,,,,,,,,,,,,,,,,,,,,,,,,,,,,,,,,,,,,,,,,"[""period""]",0,[0.20569999980921239],37,0,37,0,1,,
,,,,,,,,,,,,60185218bc28d50a56653c58,21,Mężczyzna,2022-06-11_09h31.08.072,task,2021.1.4,Win32,144.0092166,6299f149e92ead563fba08ef,62a444b274f65a87f4d5f273,,,,,,,,,,,,,,,,,,,,,,,,,,,,,,,,,,,,,,,,,,,,,,,,,,,,,,,,,,,,,,,,,,,,,,,,,,,,,,,,,,,,,,,,,,,,"[""period""]",0,[0.2203000001907185],38,0,38,0,1,,
,,,,,,,,,,,,60185218bc28d50a56653c58,21,Mężczyzna,2022-06-11_09h31.08.072,task,2021.1.4,Win32,144.0092166,6299f149e92ead563fba08ef,62a444b274f65a87f4d5f273,,,,,,,,,,,,,,,,,,,,,,,,,,,,,,,,,,,,,,,,,,,,,,,,,,,,,,,,,,,,,,,,,,,,,,,,,,,,,,,,,,,,,,,,,,,,"[""period""]",0,[0.406399999618543],39,0,39,0,1,,
,,,,,,,,,,,,60185218bc28d50a56653c58,21,Mężczyzna,2022-06-11_09h31.08.072,task,2021.1.4,Win32,144.0092166,6299f149e92ead563fba08ef,62a444b274f65a87f4d5f273,,,,,,,,,,,,,,,,,,,,,,,,,,,,,,,,,,,,,,,,,,,,,,,,,,,,,,,,,,,,,,,,,,,,,,,,,,,,,,,,,,,,,,,,,,,,"[""comma""]",0,[0.185200000286045],40,0,40,0,1,,
,,,,,,,,,,,,60185218bc28d50a56653c58,21,Mężczyzna,2022-06-11_09h31.08.072,task,2021.1.4,Win32,144.0092166,6299f149e92ead563fba08ef,62a444b274f65a87f4d5f273,,,,,,,,,,,,,,,,,,,,,,,,,,,,,,,,,,,,,,,,,,,,,,,,,,,,,,,,,,,,,,,,,,,,,,,,,,,,,,,,,,,,,,,,,,,,"[""period""]",0,[0.19940000009535197],41,0,41,0,1,,
,,,,,,,,,,,,60185218bc28d50a56653c58,21,Mężczyzna,2022-06-11_09h31.08.072,task,2021.1.4,Win32,144.0092166,6299f149e92ead563fba08ef,62a444b274f65a87f4d5f273,,,,,,,,,,,,,,,,,,,,,,,,,,,,,,,,,,,,,,,,,,,,,,,,,,,,,,,,,,,,,,,,,,,,,,,,,,,,,,,,,,,,,,,,,,,,"[""period"",""comma""]",0,"[0.21940000009533378,1.830000000000041]",42,0,42,0,1,,
,,,,,,,,,,,,60185218bc28d50a56653c58,21,Mężczyzna,2022-06-11_09h31.08.072,task,2021.1.4,Win32,144.0092166,6299f149e92ead563fba08ef,62a444b274f65a87f4d5f273,,,,,,,,,,,,,,,,,,,,,,,,,,,,,,,,,,,,,,,,,,,,,,,,,,,,,,,,,,,,,,,,,,,,,,,,,,,,,,,,,,,,,,,,,,,,"[""comma""]",0,[0.8280999999046799],43,0,43,0,1,,
,,,,,,,,,,,,60185218bc28d50a56653c58,21,Mężczyzna,2022-06-11_09h31.08.072,task,2021.1.4,Win32,144.0092166,6299f149e92ead563fba08ef,62a444b274f65a87f4d5f273,,,,,,,,,,,,,,,,,,,,,,,,,,,,,,,,,,,,,,,,,,,,,,,,,,,,,,,,,,,,,,,,,,,,,,,,,,,,,,,,,,,,,,,,,,,,,0,,44,0,44,0,1,,
,,,,,,,,,,,,60185218bc28d50a56653c58,21,Mężczyzna,2022-06-11_09h31.08.072,task,2021.1.4,Win32,144.0092166,6299f149e92ead563fba08ef,62a444b274f65a87f4d5f273,,,,,,,,,,,,,,,,,,,,,,,,,,,,,,,,,,,,,,,,,,,,,,,,,,,,,,,,,,,,,,,,,,,,,,,,,,,,,,,,,,,,,,,,,,,,"[""comma""]",0,[0.1775000000000091],45,0,45,0,1,,
,,,,,,,,,,,,60185218bc28d50a56653c58,21,Mężczyzna,2022-06-11_09h31.08.072,task,2021.1.4,Win32,144.0092166,6299f149e92ead563fba08ef,62a444b274f65a87f4d5f273,,,,,,,,,,,,,,,,,,,,,,,,,,,,,,,,,,,,,,,,,,,,,,,,,,,,,,,,,,,,,,,,,,,,,,,,,,,,,,,,,,,,,,,,,,,,"[""period""]",0,[0.3249999999999318],46,0,46,0,1,,
,,,,,,,,,,,,60185218bc28d50a56653c58,21,Mężczyzna,2022-06-11_09h31.08.072,task,2021.1.4,Win32,144.0092166,6299f149e92ead563fba08ef,62a444b274f65a87f4d5f273,,,,,,,,,,,,,,,,,,,,,,,,,,,,,,,,,,,,,,,,,,,,,,,,,,,,,,,,,,,,,,,,,,,,,,,,,,,,,,,,,,,,,,,,,,,,"[""comma""]",0,[0.2845999999046853],47,0,47,0,1,,
,,,,,,,,,,,,60185218bc28d50a56653c58,21,Mężczyzna,2022-06-11_09h31.08.072,task,2021.1.4,Win32,144.0092166,6299f149e92ead563fba08ef,62a444b274f65a87f4d5f273,,,,,,,,,,,,,,,,,,,,,,,,,,,,,,,,,,,,,,,,,,,,,,,,,,,,,,,,,,,,,,,,,,,,,,,,,,,,,,,,,,,,,,,,,,,,"[""period""]",0,[0.3941999998093024],48,0,48,0,1,,
