key_resp_15.keys,key_resp_15.rt,key_resp_13.keys,key_resp_13.corr,key_resp_13.rt,ranodm_loop.thisRepN,ranodm_loop.thisTrialN,ranodm_loop.thisN,ranodm_loop.thisIndex,ranodm_loop.ran,participant,Wiek*,Płeć,date,expName,psychopyVersion,OS,frameRate,study_id,session,key_resp_16.keys,key_resp_16.rt,key_resp_4.keys,key_resp_4.rt,next_letter.thisRepN,next_letter.thisTrialN,next_letter.thisN,next_letter.thisIndex,next_letter.ran,letter,simple_recall,key_resp_5.keys,key_resp_5.rt,simple_recall_corr,simple_recall_corrkeys,next_level.thisRepN,next_level.thisTrialN,next_level.thisN,next_level.thisIndex,next_level.ran,key_resp_2.keys,key_resp_2.rt,digit_answer,key_resp.keys,key_resp.corr,key_resp.rt,RT_list,next_equation.thisRepN,next_equation.thisTrialN,next_equation.thisN,next_equation.thisIndex,next_equation.ran,Task,Trial,Problem,Operation_answer,processing_score,sumRT,meanRT,sumdiff,sd,RT,key_resp_3.keys,key_resp_3.rt,repeat_practice.thisRepN,repeat_practice.thisTrialN,repeat_practice.thisN,repeat_practice.thisIndex,repeat_practice.ran,key_resp_6.keys,key_resp_6.rt,key_resp_11.keys,key_resp_11.corr,key_resp_11.rt,operation_correct,repeat_if_wrong_prac.thisRepN,repeat_if_wrong_prac.thisTrialN,repeat_if_wrong_prac.thisN,repeat_if_wrong_prac.thisIndex,repeat_if_wrong_prac.ran,span_size_prac.thisRepN,span_size_prac.thisTrialN,span_size_prac.thisN,span_size_prac.thisIndex,span_size_prac.ran,complex_recall_practice,key_resp_9.keys,key_resp_9.corr,key_resp_9.rt,complex_prac_corr,span_recall_prac.thisRepN,span_recall_prac.thisTrialN,span_recall_prac.thisN,span_recall_prac.thisIndex,span_recall_prac.ran,key_resp_10.keys,key_resp_10.rt,key_resp_7.keys,key_resp_7.corr,key_resp_7.rt,repeat_if_wrong.thisRepN,repeat_if_wrong.thisTrialN,repeat_if_wrong.thisN,repeat_if_wrong.thisIndex,repeat_if_wrong.ran,span_size.thisRepN,span_size.thisTrialN,span_size.thisN,span_size.thisIndex,span_size.ran,complex_recall,key_resp_8.keys,key_resp_8.corr,key_resp_8.rt,complex_recall_corr,complex_recall_corrkeys,span_recall.thisRepN,span_recall.thisTrialN,span_recall.thisN,span_recall.thisIndex,span_recall.ran,key_resp_12.keys,key_resp_12.rt
space,22.059,"[""comma""]",0,[0.507000000000005],0,0,0,0,1,601913327bc70701722ecd88,26,Mężczyzna,2022-05-28_09h32.21.444,task,2021.1.4,Win32,60.0240096,628b806c463b948bc644b84f,6291cfa7aca294be982d1238,,,,,,,,,,,,,,,,,,,,,,,,,,,,,,,,,,,,,,,,,,,,,,,,,,,,,,,,,,,,,,,,,,,,,,,,,,,,,,,,,,,,,,,,,,,,,,,,,,,,,,,
,,"[""period""]",0,[0.35499999999998977],1,0,1,0,1,601913327bc70701722ecd88,26,Mężczyzna,2022-05-28_09h32.21.444,task,2021.1.4,Win32,60.0240096,628b806c463b948bc644b84f,6291cfa7aca294be982d1238,,,,,,,,,,,,,,,,,,,,,,,,,,,,,,,,,,,,,,,,,,,,,,,,,,,,,,,,,,,,,,,,,,,,,,,,,,,,,,,,,,,,,,,,,,,,,,,,,,,,,,,
,,"[""period""]",0,[0.30000000000001137],2,0,2,0,1,601913327bc70701722ecd88,26,Mężczyzna,2022-05-28_09h32.21.444,task,2021.1.4,Win32,60.0240096,628b806c463b948bc644b84f,6291cfa7aca294be982d1238,,,,,,,,,,,,,,,,,,,,,,,,,,,,,,,,,,,,,,,,,,,,,,,,,,,,,,,,,,,,,,,,,,,,,,,,,,,,,,,,,,,,,,,,,,,,,,,,,,,,,,,
,,"[""period""]",0,[-0.006000000000000227],3,0,3,0,1,601913327bc70701722ecd88,26,Mężczyzna,2022-05-28_09h32.21.444,task,2021.1.4,Win32,60.0240096,628b806c463b948bc644b84f,6291cfa7aca294be982d1238,,,,,,,,,,,,,,,,,,,,,,,,,,,,,,,,,,,,,,,,,,,,,,,,,,,,,,,,,,,,,,,,,,,,,,,,,,,,,,,,,,,,,,,,,,,,,,,,,,,,,,,
,,"[""comma""]",0,[0.2560000000000002],4,0,4,0,1,601913327bc70701722ecd88,26,Mężczyzna,2022-05-28_09h32.21.444,task,2021.1.4,Win32,60.0240096,628b806c463b948bc644b84f,6291cfa7aca294be982d1238,,,,,,,,,,,,,,,,,,,,,,,,,,,,,,,,,,,,,,,,,,,,,,,,,,,,,,,,,,,,,,,,,,,,,,,,,,,,,,,,,,,,,,,,,,,,,,,,,,,,,,,
,,"[""comma""]",0,[0.2530000000000143],5,0,5,0,1,601913327bc70701722ecd88,26,Mężczyzna,2022-05-28_09h32.21.444,task,2021.1.4,Win32,60.0240096,628b806c463b948bc644b84f,6291cfa7aca294be982d1238,,,,,,,,,,,,,,,,,,,,,,,,,,,,,,,,,,,,,,,,,,,,,,,,,,,,,,,,,,,,,,,,,,,,,,,,,,,,,,,,,,,,,,,,,,,,,,,,,,,,,,,
,,"[""period""]",0,[0.1980000000000075],6,0,6,0,1,601913327bc70701722ecd88,26,Mężczyzna,2022-05-28_09h32.21.444,task,2021.1.4,Win32,60.0240096,628b806c463b948bc644b84f,6291cfa7aca294be982d1238,,,,,,,,,,,,,,,,,,,,,,,,,,,,,,,,,,,,,,,,,,,,,,,,,,,,,,,,,,,,,,,,,,,,,,,,,,,,,,,,,,,,,,,,,,,,,,,,,,,,,,,
,,"[""comma""]",0,[0.28999999999999204],7,0,7,0,1,601913327bc70701722ecd88,26,Mężczyzna,2022-05-28_09h32.21.444,task,2021.1.4,Win32,60.0240096,628b806c463b948bc644b84f,6291cfa7aca294be982d1238,,,,,,,,,,,,,,,,,,,,,,,,,,,,,,,,,,,,,,,,,,,,,,,,,,,,,,,,,,,,,,,,,,,,,,,,,,,,,,,,,,,,,,,,,,,,,,,,,,,,,,,
,,"[""period""]",0,[0.2750000000000057],8,0,8,0,1,601913327bc70701722ecd88,26,Mężczyzna,2022-05-28_09h32.21.444,task,2021.1.4,Win32,60.0240096,628b806c463b948bc644b84f,6291cfa7aca294be982d1238,,,,,,,,,,,,,,,,,,,,,,,,,,,,,,,,,,,,,,,,,,,,,,,,,,,,,,,,,,,,,,,,,,,,,,,,,,,,,,,,,,,,,,,,,,,,,,,,,,,,,,,
,,"[""comma""]",0,[0.26300000000000523],9,0,9,0,1,601913327bc70701722ecd88,26,Mężczyzna,2022-05-28_09h32.21.444,task,2021.1.4,Win32,60.0240096,628b806c463b948bc644b84f,6291cfa7aca294be982d1238,,,,,,,,,,,,,,,,,,,,,,,,,,,,,,,,,,,,,,,,,,,,,,,,,,,,,,,,,,,,,,,,,,,,,,,,,,,,,,,,,,,,,,,,,,,,,,,,,,,,,,,
,,"[""comma""]",0,[0.2669999999999959],10,0,10,0,1,601913327bc70701722ecd88,26,Mężczyzna,2022-05-28_09h32.21.444,task,2021.1.4,Win32,60.0240096,628b806c463b948bc644b84f,6291cfa7aca294be982d1238,,,,,,,,,,,,,,,,,,,,,,,,,,,,,,,,,,,,,,,,,,,,,,,,,,,,,,,,,,,,,,,,,,,,,,,,,,,,,,,,,,,,,,,,,,,,,,,,,,,,,,,
,,"[""comma""]",0,[0.15000000000000568],11,0,11,0,1,601913327bc70701722ecd88,26,Mężczyzna,2022-05-28_09h32.21.444,task,2021.1.4,Win32,60.0240096,628b806c463b948bc644b84f,6291cfa7aca294be982d1238,,,,,,,,,,,,,,,,,,,,,,,,,,,,,,,,,,,,,,,,,,,,,,,,,,,,,,,,,,,,,,,,,,,,,,,,,,,,,,,,,,,,,,,,,,,,,,,,,,,,,,,
,,"[""comma""]",0,[0.2510000000000048],12,0,12,0,1,601913327bc70701722ecd88,26,Mężczyzna,2022-05-28_09h32.21.444,task,2021.1.4,Win32,60.0240096,628b806c463b948bc644b84f,6291cfa7aca294be982d1238,,,,,,,,,,,,,,,,,,,,,,,,,,,,,,,,,,,,,,,,,,,,,,,,,,,,,,,,,,,,,,,,,,,,,,,,,,,,,,,,,,,,,,,,,,,,,,,,,,,,,,,
,,"[""period""]",0,[0.20400000000000773],13,0,13,0,1,601913327bc70701722ecd88,26,Mężczyzna,2022-05-28_09h32.21.444,task,2021.1.4,Win32,60.0240096,628b806c463b948bc644b84f,6291cfa7aca294be982d1238,,,,,,,,,,,,,,,,,,,,,,,,,,,,,,,,,,,,,,,,,,,,,,,,,,,,,,,,,,,,,,,,,,,,,,,,,,,,,,,,,,,,,,,,,,,,,,,,,,,,,,,
,,"[""period""]",0,[0.228999999999985],14,0,14,0,1,601913327bc70701722ecd88,26,Mężczyzna,2022-05-28_09h32.21.444,task,2021.1.4,Win32,60.0240096,628b806c463b948bc644b84f,6291cfa7aca294be982d1238,,,,,,,,,,,,,,,,,,,,,,,,,,,,,,,,,,,,,,,,,,,,,,,,,,,,,,,,,,,,,,,,,,,,,,,,,,,,,,,,,,,,,,,,,,,,,,,,,,,,,,,
,,"[""comma""]",0,[0.27299999999999613],15,0,15,0,1,601913327bc70701722ecd88,26,Mężczyzna,2022-05-28_09h32.21.444,task,2021.1.4,Win32,60.0240096,628b806c463b948bc644b84f,6291cfa7aca294be982d1238,,,,,,,,,,,,,,,,,,,,,,,,,,,,,,,,,,,,,,,,,,,,,,,,,,,,,,,,,,,,,,,,,,,,,,,,,,,,,,,,,,,,,,,,,,,,,,,,,,,,,,,
,,"[""period""]",0,[0.20900000000000318],16,0,16,0,1,601913327bc70701722ecd88,26,Mężczyzna,2022-05-28_09h32.21.444,task,2021.1.4,Win32,60.0240096,628b806c463b948bc644b84f,6291cfa7aca294be982d1238,,,,,,,,,,,,,,,,,,,,,,,,,,,,,,,,,,,,,,,,,,,,,,,,,,,,,,,,,,,,,,,,,,,,,,,,,,,,,,,,,,,,,,,,,,,,,,,,,,,,,,,
,,"[""comma""]",0,[0.049000000000006594],17,0,17,0,1,601913327bc70701722ecd88,26,Mężczyzna,2022-05-28_09h32.21.444,task,2021.1.4,Win32,60.0240096,628b806c463b948bc644b84f,6291cfa7aca294be982d1238,,,,,,,,,,,,,,,,,,,,,,,,,,,,,,,,,,,,,,,,,,,,,,,,,,,,,,,,,,,,,,,,,,,,,,,,,,,,,,,,,,,,,,,,,,,,,,,,,,,,,,,
,,"[""period""]",0,[0.37000000000000455],18,0,18,0,1,601913327bc70701722ecd88,26,Mężczyzna,2022-05-28_09h32.21.444,task,2021.1.4,Win32,60.0240096,628b806c463b948bc644b84f,6291cfa7aca294be982d1238,,,,,,,,,,,,,,,,,,,,,,,,,,,,,,,,,,,,,,,,,,,,,,,,,,,,,,,,,,,,,,,,,,,,,,,,,,,,,,,,,,,,,,,,,,,,,,,,,,,,,,,
,,"[""comma""]",0,[0.38900000000001],19,0,19,0,1,601913327bc70701722ecd88,26,Mężczyzna,2022-05-28_09h32.21.444,task,2021.1.4,Win32,60.0240096,628b806c463b948bc644b84f,6291cfa7aca294be982d1238,,,,,,,,,,,,,,,,,,,,,,,,,,,,,,,,,,,,,,,,,,,,,,,,,,,,,,,,,,,,,,,,,,,,,,,,,,,,,,,,,,,,,,,,,,,,,,,,,,,,,,,
,,"[""period""]",0,[0.31100000000000705],20,0,20,0,1,601913327bc70701722ecd88,26,Mężczyzna,2022-05-28_09h32.21.444,task,2021.1.4,Win32,60.0240096,628b806c463b948bc644b84f,6291cfa7aca294be982d1238,,,,,,,,,,,,,,,,,,,,,,,,,,,,,,,,,,,,,,,,,,,,,,,,,,,,,,,,,,,,,,,,,,,,,,,,,,,,,,,,,,,,,,,,,,,,,,,,,,,,,,,
,,"[""comma""]",0,[0.32099999999999795],21,0,21,0,1,601913327bc70701722ecd88,26,Mężczyzna,2022-05-28_09h32.21.444,task,2021.1.4,Win32,60.0240096,628b806c463b948bc644b84f,6291cfa7aca294be982d1238,,,,,,,,,,,,,,,,,,,,,,,,,,,,,,,,,,,,,,,,,,,,,,,,,,,,,,,,,,,,,,,,,,,,,,,,,,,,,,,,,,,,,,,,,,,,,,,,,,,,,,,
,,"[""comma""]",0,[0.3669999999999902],22,0,22,0,1,601913327bc70701722ecd88,26,Mężczyzna,2022-05-28_09h32.21.444,task,2021.1.4,Win32,60.0240096,628b806c463b948bc644b84f,6291cfa7aca294be982d1238,,,,,,,,,,,,,,,,,,,,,,,,,,,,,,,,,,,,,,,,,,,,,,,,,,,,,,,,,,,,,,,,,,,,,,,,,,,,,,,,,,,,,,,,,,,,,,,,,,,,,,,
,,"[""period""]",0,[0.3789999999999907],23,0,23,0,1,601913327bc70701722ecd88,26,Mężczyzna,2022-05-28_09h32.21.444,task,2021.1.4,Win32,60.0240096,628b806c463b948bc644b84f,6291cfa7aca294be982d1238,,,,,,,,,,,,,,,,,,,,,,,,,,,,,,,,,,,,,,,,,,,,,,,,,,,,,,,,,,,,,,,,,,,,,,,,,,,,,,,,,,,,,,,,,,,,,,,,,,,,,,,
,,"[""comma""]",0,[0.32499999999998863],24,0,24,0,1,601913327bc70701722ecd88,26,Mężczyzna,2022-05-28_09h32.21.444,task,2021.1.4,Win32,60.0240096,628b806c463b948bc644b84f,6291cfa7aca294be982d1238,,,,,,,,,,,,,,,,,,,,,,,,,,,,,,,,,,,,,,,,,,,,,,,,,,,,,,,,,,,,,,,,,,,,,,,,,,,,,,,,,,,,,,,,,,,,,,,,,,,,,,,
,,"[""period""]",0,[0.47199999999998],25,0,25,0,1,601913327bc70701722ecd88,26,Mężczyzna,2022-05-28_09h32.21.444,task,2021.1.4,Win32,60.0240096,628b806c463b948bc644b84f,6291cfa7aca294be982d1238,,,,,,,,,,,,,,,,,,,,,,,,,,,,,,,,,,,,,,,,,,,,,,,,,,,,,,,,,,,,,,,,,,,,,,,,,,,,,,,,,,,,,,,,,,,,,,,,,,,,,,,
,,"[""comma""]",0,[0.4679999999999893],26,0,26,0,1,601913327bc70701722ecd88,26,Mężczyzna,2022-05-28_09h32.21.444,task,2021.1.4,Win32,60.0240096,628b806c463b948bc644b84f,6291cfa7aca294be982d1238,,,,,,,,,,,,,,,,,,,,,,,,,,,,,,,,,,,,,,,,,,,,,,,,,,,,,,,,,,,,,,,,,,,,,,,,,,,,,,,,,,,,,,,,,,,,,,,,,,,,,,,
,,"[""period""]",0,[0.4089999999999918],27,0,27,0,1,601913327bc70701722ecd88,26,Mężczyzna,2022-05-28_09h32.21.444,task,2021.1.4,Win32,60.0240096,628b806c463b948bc644b84f,6291cfa7aca294be982d1238,,,,,,,,,,,,,,,,,,,,,,,,,,,,,,,,,,,,,,,,,,,,,,,,,,,,,,,,,,,,,,,,,,,,,,,,,,,,,,,,,,,,,,,,,,,,,,,,,,,,,,,
,,"[""period""]",0,[0.32799999999997453],28,0,28,0,1,601913327bc70701722ecd88,26,Mężczyzna,2022-05-28_09h32.21.444,task,2021.1.4,Win32,60.0240096,628b806c463b948bc644b84f,6291cfa7aca294be982d1238,,,,,,,,,,,,,,,,,,,,,,,,,,,,,,,,,,,,,,,,,,,,,,,,,,,,,,,,,,,,,,,,,,,,,,,,,,,,,,,,,,,,,,,,,,,,,,,,,,,,,,,
,,"[""comma""]",0,[0.31399999999999295],29,0,29,0,1,601913327bc70701722ecd88,26,Mężczyzna,2022-05-28_09h32.21.444,task,2021.1.4,Win32,60.0240096,628b806c463b948bc644b84f,6291cfa7aca294be982d1238,,,,,,,,,,,,,,,,,,,,,,,,,,,,,,,,,,,,,,,,,,,,,,,,,,,,,,,,,,,,,,,,,,,,,,,,,,,,,,,,,,,,,,,,,,,,,,,,,,,,,,,
,,"[""comma""]",0,[0.2939999999999827],30,0,30,0,1,601913327bc70701722ecd88,26,Mężczyzna,2022-05-28_09h32.21.444,task,2021.1.4,Win32,60.0240096,628b806c463b948bc644b84f,6291cfa7aca294be982d1238,,,,,,,,,,,,,,,,,,,,,,,,,,,,,,,,,,,,,,,,,,,,,,,,,,,,,,,,,,,,,,,,,,,,,,,,,,,,,,,,,,,,,,,,,,,,,,,,,,,,,,,
,,"[""comma""]",0,[0.25499999999999545],31,0,31,0,1,601913327bc70701722ecd88,26,Mężczyzna,2022-05-28_09h32.21.444,task,2021.1.4,Win32,60.0240096,628b806c463b948bc644b84f,6291cfa7aca294be982d1238,,,,,,,,,,,,,,,,,,,,,,,,,,,,,,,,,,,,,,,,,,,,,,,,,,,,,,,,,,,,,,,,,,,,,,,,,,,,,,,,,,,,,,,,,,,,,,,,,,,,,,,
,,"[""period""]",0,[0.3129999999999882],32,0,32,0,1,601913327bc70701722ecd88,26,Mężczyzna,2022-05-28_09h32.21.444,task,2021.1.4,Win32,60.0240096,628b806c463b948bc644b84f,6291cfa7aca294be982d1238,,,,,,,,,,,,,,,,,,,,,,,,,,,,,,,,,,,,,,,,,,,,,,,,,,,,,,,,,,,,,,,,,,,,,,,,,,,,,,,,,,,,,,,,,,,,,,,,,,,,,,,
,,"[""comma""]",0,[0.2609999999999957],33,0,33,0,1,601913327bc70701722ecd88,26,Mężczyzna,2022-05-28_09h32.21.444,task,2021.1.4,Win32,60.0240096,628b806c463b948bc644b84f,6291cfa7aca294be982d1238,,,,,,,,,,,,,,,,,,,,,,,,,,,,,,,,,,,,,,,,,,,,,,,,,,,,,,,,,,,,,,,,,,,,,,,,,,,,,,,,,,,,,,,,,,,,,,,,,,,,,,,
,,"[""period""]",0,[0.40699999999998226],34,0,34,0,1,601913327bc70701722ecd88,26,Mężczyzna,2022-05-28_09h32.21.444,task,2021.1.4,Win32,60.0240096,628b806c463b948bc644b84f,6291cfa7aca294be982d1238,,,,,,,,,,,,,,,,,,,,,,,,,,,,,,,,,,,,,,,,,,,,,,,,,,,,,,,,,,,,,,,,,,,,,,,,,,,,,,,,,,,,,,,,,,,,,,,,,,,,,,,
,,"[""comma""]",0,[0.3019999999999925],35,0,35,0,1,601913327bc70701722ecd88,26,Mężczyzna,2022-05-28_09h32.21.444,task,2021.1.4,Win32,60.0240096,628b806c463b948bc644b84f,6291cfa7aca294be982d1238,,,,,,,,,,,,,,,,,,,,,,,,,,,,,,,,,,,,,,,,,,,,,,,,,,,,,,,,,,,,,,,,,,,,,,,,,,,,,,,,,,,,,,,,,,,,,,,,,,,,,,,
,,"[""period""]",0,[0.31799999999998363],36,0,36,0,1,601913327bc70701722ecd88,26,Mężczyzna,2022-05-28_09h32.21.444,task,2021.1.4,Win32,60.0240096,628b806c463b948bc644b84f,6291cfa7aca294be982d1238,,,,,,,,,,,,,,,,,,,,,,,,,,,,,,,,,,,,,,,,,,,,,,,,,,,,,,,,,,,,,,,,,,,,,,,,,,,,,,,,,,,,,,,,,,,,,,,,,,,,,,,
,,"[""period""]",0,[0.3849999999999909],37,0,37,0,1,601913327bc70701722ecd88,26,Mężczyzna,2022-05-28_09h32.21.444,task,2021.1.4,Win32,60.0240096,628b806c463b948bc644b84f,6291cfa7aca294be982d1238,,,,,,,,,,,,,,,,,,,,,,,,,,,,,,,,,,,,,,,,,,,,,,,,,,,,,,,,,,,,,,,,,,,,,,,,,,,,,,,,,,,,,,,,,,,,,,,,,,,,,,,
,,"[""comma""]",0,[0.3200000000000216],38,0,38,0,1,601913327bc70701722ecd88,26,Mężczyzna,2022-05-28_09h32.21.444,task,2021.1.4,Win32,60.0240096,628b806c463b948bc644b84f,6291cfa7aca294be982d1238,,,,,,,,,,,,,,,,,,,,,,,,,,,,,,,,,,,,,,,,,,,,,,,,,,,,,,,,,,,,,,,,,,,,,,,,,,,,,,,,,,,,,,,,,,,,,,,,,,,,,,,
,,"[""period""]",0,[0.3919999999999959],39,0,39,0,1,601913327bc70701722ecd88,26,Mężczyzna,2022-05-28_09h32.21.444,task,2021.1.4,Win32,60.0240096,628b806c463b948bc644b84f,6291cfa7aca294be982d1238,,,,,,,,,,,,,,,,,,,,,,,,,,,,,,,,,,,,,,,,,,,,,,,,,,,,,,,,,,,,,,,,,,,,,,,,,,,,,,,,,,,,,,,,,,,,,,,,,,,,,,,
,,"[""comma""]",0,[0.28600000000000136],40,0,40,0,1,601913327bc70701722ecd88,26,Mężczyzna,2022-05-28_09h32.21.444,task,2021.1.4,Win32,60.0240096,628b806c463b948bc644b84f,6291cfa7aca294be982d1238,,,,,,,,,,,,,,,,,,,,,,,,,,,,,,,,,,,,,,,,,,,,,,,,,,,,,,,,,,,,,,,,,,,,,,,,,,,,,,,,,,,,,,,,,,,,,,,,,,,,,,,
,,"[""comma""]",0,[0.3030000000000257],41,0,41,0,1,601913327bc70701722ecd88,26,Mężczyzna,2022-05-28_09h32.21.444,task,2021.1.4,Win32,60.0240096,628b806c463b948bc644b84f,6291cfa7aca294be982d1238,,,,,,,,,,,,,,,,,,,,,,,,,,,,,,,,,,,,,,,,,,,,,,,,,,,,,,,,,,,,,,,,,,,,,,,,,,,,,,,,,,,,,,,,,,,,,,,,,,,,,,,
,,"[""comma""]",0,[0.26700000000002433],42,0,42,0,1,601913327bc70701722ecd88,26,Mężczyzna,2022-05-28_09h32.21.444,task,2021.1.4,Win32,60.0240096,628b806c463b948bc644b84f,6291cfa7aca294be982d1238,,,,,,,,,,,,,,,,,,,,,,,,,,,,,,,,,,,,,,,,,,,,,,,,,,,,,,,,,,,,,,,,,,,,,,,,,,,,,,,,,,,,,,,,,,,,,,,,,,,,,,,
,,"[""period""]",0,[0.3230000000000075],43,0,43,0,1,601913327bc70701722ecd88,26,Mężczyzna,2022-05-28_09h32.21.444,task,2021.1.4,Win32,60.0240096,628b806c463b948bc644b84f,6291cfa7aca294be982d1238,,,,,,,,,,,,,,,,,,,,,,,,,,,,,,,,,,,,,,,,,,,,,,,,,,,,,,,,,,,,,,,,,,,,,,,,,,,,,,,,,,,,,,,,,,,,,,,,,,,,,,,
,,"[""comma""]",0,[0.28400000000002024],44,0,44,0,1,601913327bc70701722ecd88,26,Mężczyzna,2022-05-28_09h32.21.444,task,2021.1.4,Win32,60.0240096,628b806c463b948bc644b84f,6291cfa7aca294be982d1238,,,,,,,,,,,,,,,,,,,,,,,,,,,,,,,,,,,,,,,,,,,,,,,,,,,,,,,,,,,,,,,,,,,,,,,,,,,,,,,,,,,,,,,,,,,,,,,,,,,,,,,
,,"[""comma""]",0,[0.125],45,0,45,0,1,601913327bc70701722ecd88,26,Mężczyzna,2022-05-28_09h32.21.444,task,2021.1.4,Win32,60.0240096,628b806c463b948bc644b84f,6291cfa7aca294be982d1238,,,,,,,,,,,,,,,,,,,,,,,,,,,,,,,,,,,,,,,,,,,,,,,,,,,,,,,,,,,,,,,,,,,,,,,,,,,,,,,,,,,,,,,,,,,,,,,,,,,,,,,
,,"[""period""]",0,[0.27800000000002],46,0,46,0,1,601913327bc70701722ecd88,26,Mężczyzna,2022-05-28_09h32.21.444,task,2021.1.4,Win32,60.0240096,628b806c463b948bc644b84f,6291cfa7aca294be982d1238,,,,,,,,,,,,,,,,,,,,,,,,,,,,,,,,,,,,,,,,,,,,,,,,,,,,,,,,,,,,,,,,,,,,,,,,,,,,,,,,,,,,,,,,,,,,,,,,,,,,,,,
,,"[""period""]",0,[0.27000000000003865],47,0,47,0,1,601913327bc70701722ecd88,26,Mężczyzna,2022-05-28_09h32.21.444,task,2021.1.4,Win32,60.0240096,628b806c463b948bc644b84f,6291cfa7aca294be982d1238,,,,,,,,,,,,,,,,,,,,,,,,,,,,,,,,,,,,,,,,,,,,,,,,,,,,,,,,,,,,,,,,,,,,,,,,,,,,,,,,,,,,,,,,,,,,,,,,,,,,,,,
,,"[""comma""]",0,[0.21800000000001774],48,0,48,0,1,601913327bc70701722ecd88,26,Mężczyzna,2022-05-28_09h32.21.444,task,2021.1.4,Win32,60.0240096,628b806c463b948bc644b84f,6291cfa7aca294be982d1238,,,,,,,,,,,,,,,,,,,,,,,,,,,,,,,,,,,,,,,,,,,,,,,,,,,,,,,,,,,,,,,,,,,,,,,,,,,,,,,,,,,,,,,,,,,,,,,,,,,,,,,
,,"[""period""]",0,[0.2300000000000182],49,0,49,0,1,601913327bc70701722ecd88,26,Mężczyzna,2022-05-28_09h32.21.444,task,2021.1.4,Win32,60.0240096,628b806c463b948bc644b84f,6291cfa7aca294be982d1238,,,,,,,,,,,,,,,,,,,,,,,,,,,,,,,,,,,,,,,,,,,,,,,,,,,,,,,,,,,,,,,,,,,,,,,,,,,,,,,,,,,,,,,,,,,,,,,,,,,,,,,
,,"[""comma""]",0,[0.27800000000002],50,0,50,0,1,601913327bc70701722ecd88,26,Mężczyzna,2022-05-28_09h32.21.444,task,2021.1.4,Win32,60.0240096,628b806c463b948bc644b84f,6291cfa7aca294be982d1238,,,,,,,,,,,,,,,,,,,,,,,,,,,,,,,,,,,,,,,,,,,,,,,,,,,,,,,,,,,,,,,,,,,,,,,,,,,,,,,,,,,,,,,,,,,,,,,,,,,,,,,
,,"[""period""]",0,[0.29300000000000637],51,0,51,0,1,601913327bc70701722ecd88,26,Mężczyzna,2022-05-28_09h32.21.444,task,2021.1.4,Win32,60.0240096,628b806c463b948bc644b84f,6291cfa7aca294be982d1238,,,,,,,,,,,,,,,,,,,,,,,,,,,,,,,,,,,,,,,,,,,,,,,,,,,,,,,,,,,,,,,,,,,,,,,,,,,,,,,,,,,,,,,,,,,,,,,,,,,,,,,
,,"[""comma""]",0,[0.28799999999995407],52,0,52,0,1,601913327bc70701722ecd88,26,Mężczyzna,2022-05-28_09h32.21.444,task,2021.1.4,Win32,60.0240096,628b806c463b948bc644b84f,6291cfa7aca294be982d1238,,,,,,,,,,,,,,,,,,,,,,,,,,,,,,,,,,,,,,,,,,,,,,,,,,,,,,,,,,,,,,,,,,,,,,,,,,,,,,,,,,,,,,,,,,,,,,,,,,,,,,,
,,"[""period""]",0,[0.3299999999999841],53,0,53,0,1,601913327bc70701722ecd88,26,Mężczyzna,2022-05-28_09h32.21.444,task,2021.1.4,Win32,60.0240096,628b806c463b948bc644b84f,6291cfa7aca294be982d1238,,,,,,,,,,,,,,,,,,,,,,,,,,,,,,,,,,,,,,,,,,,,,,,,,,,,,,,,,,,,,,,,,,,,,,,,,,,,,,,,,,,,,,,,,,,,,,,,,,,,,,,
,,"[""period""]",0,[0.38899999999995316],54,0,54,0,1,601913327bc70701722ecd88,26,Mężczyzna,2022-05-28_09h32.21.444,task,2021.1.4,Win32,60.0240096,628b806c463b948bc644b84f,6291cfa7aca294be982d1238,,,,,,,,,,,,,,,,,,,,,,,,,,,,,,,,,,,,,,,,,,,,,,,,,,,,,,,,,,,,,,,,,,,,,,,,,,,,,,,,,,,,,,,,,,,,,,,,,,,,,,,
,,"[""period""]",0,[0.2999999999999545],55,0,55,0,1,601913327bc70701722ecd88,26,Mężczyzna,2022-05-28_09h32.21.444,task,2021.1.4,Win32,60.0240096,628b806c463b948bc644b84f,6291cfa7aca294be982d1238,,,,,,,,,,,,,,,,,,,,,,,,,,,,,,,,,,,,,,,,,,,,,,,,,,,,,,,,,,,,,,,,,,,,,,,,,,,,,,,,,,,,,,,,,,,,,,,,,,,,,,,
,,"[""comma""]",0,[0.2869999999999777],56,0,56,0,1,601913327bc70701722ecd88,26,Mężczyzna,2022-05-28_09h32.21.444,task,2021.1.4,Win32,60.0240096,628b806c463b948bc644b84f,6291cfa7aca294be982d1238,,,,,,,,,,,,,,,,,,,,,,,,,,,,,,,,,,,,,,,,,,,,,,,,,,,,,,,,,,,,,,,,,,,,,,,,,,,,,,,,,,,,,,,,,,,,,,,,,,,,,,,
,,"[""period""]",0,[0.19199999999995043],57,0,57,0,1,601913327bc70701722ecd88,26,Mężczyzna,2022-05-28_09h32.21.444,task,2021.1.4,Win32,60.0240096,628b806c463b948bc644b84f,6291cfa7aca294be982d1238,,,,,,,,,,,,,,,,,,,,,,,,,,,,,,,,,,,,,,,,,,,,,,,,,,,,,,,,,,,,,,,,,,,,,,,,,,,,,,,,,,,,,,,,,,,,,,,,,,,,,,,
,,"[""comma""]",0,[0.3269999999999982],58,0,58,0,1,601913327bc70701722ecd88,26,Mężczyzna,2022-05-28_09h32.21.444,task,2021.1.4,Win32,60.0240096,628b806c463b948bc644b84f,6291cfa7aca294be982d1238,,,,,,,,,,,,,,,,,,,,,,,,,,,,,,,,,,,,,,,,,,,,,,,,,,,,,,,,,,,,,,,,,,,,,,,,,,,,,,,,,,,,,,,,,,,,,,,,,,,,,,,
,,"[""comma""]",0,[0.26099999999996726],59,0,59,0,1,601913327bc70701722ecd88,26,Mężczyzna,2022-05-28_09h32.21.444,task,2021.1.4,Win32,60.0240096,628b806c463b948bc644b84f,6291cfa7aca294be982d1238,,,,,,,,,,,,,,,,,,,,,,,,,,,,,,,,,,,,,,,,,,,,,,,,,,,,,,,,,,,,,,,,,,,,,,,,,,,,,,,,,,,,,,,,,,,,,,,,,,,,,,,
,,"[""period""]",0,[0.2969999999999686],60,0,60,0,1,601913327bc70701722ecd88,26,Mężczyzna,2022-05-28_09h32.21.444,task,2021.1.4,Win32,60.0240096,628b806c463b948bc644b84f,6291cfa7aca294be982d1238,,,,,,,,,,,,,,,,,,,,,,,,,,,,,,,,,,,,,,,,,,,,,,,,,,,,,,,,,,,,,,,,,,,,,,,,,,,,,,,,,,,,,,,,,,,,,,,,,,,,,,,
,,"[""comma""]",0,[0.24500000000000455],61,0,61,0,1,601913327bc70701722ecd88,26,Mężczyzna,2022-05-28_09h32.21.444,task,2021.1.4,Win32,60.0240096,628b806c463b948bc644b84f,6291cfa7aca294be982d1238,,,,,,,,,,,,,,,,,,,,,,,,,,,,,,,,,,,,,,,,,,,,,,,,,,,,,,,,,,,,,,,,,,,,,,,,,,,,,,,,,,,,,,,,,,,,,,,,,,,,,,,
,,"[""period""]",0,[0.26400000000001],62,0,62,0,1,601913327bc70701722ecd88,26,Mężczyzna,2022-05-28_09h32.21.444,task,2021.1.4,Win32,60.0240096,628b806c463b948bc644b84f,6291cfa7aca294be982d1238,,,,,,,,,,,,,,,,,,,,,,,,,,,,,,,,,,,,,,,,,,,,,,,,,,,,,,,,,,,,,,,,,,,,,,,,,,,,,,,,,,,,,,,,,,,,,,,,,,,,,,,
,,"[""comma""]",0,[0.2610000000000241],63,0,63,0,1,601913327bc70701722ecd88,26,Mężczyzna,2022-05-28_09h32.21.444,task,2021.1.4,Win32,60.0240096,628b806c463b948bc644b84f,6291cfa7aca294be982d1238,,,,,,,,,,,,,,,,,,,,,,,,,,,,,,,,,,,,,,,,,,,,,,,,,,,,,,,,,,,,,,,,,,,,,,,,,,,,,,,,,,,,,,,,,,,,,,,,,,,,,,,
,,"[""comma""]",0,[0.2740000000000009],64,0,64,0,1,601913327bc70701722ecd88,26,Mężczyzna,2022-05-28_09h32.21.444,task,2021.1.4,Win32,60.0240096,628b806c463b948bc644b84f,6291cfa7aca294be982d1238,,,,,,,,,,,,,,,,,,,,,,,,,,,,,,,,,,,,,,,,,,,,,,,,,,,,,,,,,,,,,,,,,,,,,,,,,,,,,,,,,,,,,,,,,,,,,,,,,,,,,,,
,,"[""period""]",0,[0.353999999999985],65,0,65,0,1,601913327bc70701722ecd88,26,Mężczyzna,2022-05-28_09h32.21.444,task,2021.1.4,Win32,60.0240096,628b806c463b948bc644b84f,6291cfa7aca294be982d1238,,,,,,,,,,,,,,,,,,,,,,,,,,,,,,,,,,,,,,,,,,,,,,,,,,,,,,,,,,,,,,,,,,,,,,,,,,,,,,,,,,,,,,,,,,,,,,,,,,,,,,,
,,"[""comma""]",0,[0.2839999999999918],66,0,66,0,1,601913327bc70701722ecd88,26,Mężczyzna,2022-05-28_09h32.21.444,task,2021.1.4,Win32,60.0240096,628b806c463b948bc644b84f,6291cfa7aca294be982d1238,,,,,,,,,,,,,,,,,,,,,,,,,,,,,,,,,,,,,,,,,,,,,,,,,,,,,,,,,,,,,,,,,,,,,,,,,,,,,,,,,,,,,,,,,,,,,,,,,,,,,,,
,,"[""comma""]",0,[0.35899999999998045],67,0,67,0,1,601913327bc70701722ecd88,26,Mężczyzna,2022-05-28_09h32.21.444,task,2021.1.4,Win32,60.0240096,628b806c463b948bc644b84f,6291cfa7aca294be982d1238,,,,,,,,,,,,,,,,,,,,,,,,,,,,,,,,,,,,,,,,,,,,,,,,,,,,,,,,,,,,,,,,,,,,,,,,,,,,,,,,,,,,,,,,,,,,,,,,,,,,,,,
,,"[""period""]",0,[0.4460000000000264],68,0,68,0,1,601913327bc70701722ecd88,26,Mężczyzna,2022-05-28_09h32.21.444,task,2021.1.4,Win32,60.0240096,628b806c463b948bc644b84f,6291cfa7aca294be982d1238,,,,,,,,,,,,,,,,,,,,,,,,,,,,,,,,,,,,,,,,,,,,,,,,,,,,,,,,,,,,,,,,,,,,,,,,,,,,,,,,,,,,,,,,,,,,,,,,,,,,,,,
,,"[""comma""]",0,[0.5240000000000009],69,0,69,0,1,601913327bc70701722ecd88,26,Mężczyzna,2022-05-28_09h32.21.444,task,2021.1.4,Win32,60.0240096,628b806c463b948bc644b84f,6291cfa7aca294be982d1238,,,,,,,,,,,,,,,,,,,,,,,,,,,,,,,,,,,,,,,,,,,,,,,,,,,,,,,,,,,,,,,,,,,,,,,,,,,,,,,,,,,,,,,,,,,,,,,,,,,,,,,
,,"[""period""]",0,[0.20900000000000318],70,0,70,0,1,601913327bc70701722ecd88,26,Mężczyzna,2022-05-28_09h32.21.444,task,2021.1.4,Win32,60.0240096,628b806c463b948bc644b84f,6291cfa7aca294be982d1238,,,,,,,,,,,,,,,,,,,,,,,,,,,,,,,,,,,,,,,,,,,,,,,,,,,,,,,,,,,,,,,,,,,,,,,,,,,,,,,,,,,,,,,,,,,,,,,,,,,,,,,
,,"[""comma""]",0,[0.6040000000000418],71,0,71,0,1,601913327bc70701722ecd88,26,Mężczyzna,2022-05-28_09h32.21.444,task,2021.1.4,Win32,60.0240096,628b806c463b948bc644b84f,6291cfa7aca294be982d1238,,,,,,,,,,,,,,,,,,,,,,,,,,,,,,,,,,,,,,,,,,,,,,,,,,,,,,,,,,,,,,,,,,,,,,,,,,,,,,,,,,,,,,,,,,,,,,,,,,,,,,,
,,"[""period""]",0,[0.3340000000000032],72,0,72,0,1,601913327bc70701722ecd88,26,Mężczyzna,2022-05-28_09h32.21.444,task,2021.1.4,Win32,60.0240096,628b806c463b948bc644b84f,6291cfa7aca294be982d1238,,,,,,,,,,,,,,,,,,,,,,,,,,,,,,,,,,,,,,,,,,,,,,,,,,,,,,,,,,,,,,,,,,,,,,,,,,,,,,,,,,,,,,,,,,,,,,,,,,,,,,,
,,"[""period""]",0,[0.4210000000000491],73,0,73,0,1,601913327bc70701722ecd88,26,Mężczyzna,2022-05-28_09h32.21.444,task,2021.1.4,Win32,60.0240096,628b806c463b948bc644b84f,6291cfa7aca294be982d1238,,,,,,,,,,,,,,,,,,,,,,,,,,,,,,,,,,,,,,,,,,,,,,,,,,,,,,,,,,,,,,,,,,,,,,,,,,,,,,,,,,,,,,,,,,,,,,,,,,,,,,,
,,"[""comma""]",0,[1.5640000000000214],74,0,74,0,1,601913327bc70701722ecd88,26,Mężczyzna,2022-05-28_09h32.21.444,task,2021.1.4,Win32,60.0240096,628b806c463b948bc644b84f,6291cfa7aca294be982d1238,,,,,,,,,,,,,,,,,,,,,,,,,,,,,,,,,,,,,,,,,,,,,,,,,,,,,,,,,,,,,,,,,,,,,,,,,,,,,,,,,,,,,,,,,,,,,,,,,,,,,,,
,,,0,,75,0,75,0,1,601913327bc70701722ecd88,26,Mężczyzna,2022-05-28_09h32.21.444,task,2021.1.4,Win32,60.0240096,628b806c463b948bc644b84f,6291cfa7aca294be982d1238,,,,,,,,,,,,,,,,,,,,,,,,,,,,,,,,,,,,,,,,,,,,,,,,,,,,,,,,,,,,,,,,,,,,,,,,,,,,,,,,,,,,,,,,,,,,,,,,,,,,,,,
,,"[""period""]",0,[0.3280000000000314],76,0,76,0,1,601913327bc70701722ecd88,26,Mężczyzna,2022-05-28_09h32.21.444,task,2021.1.4,Win32,60.0240096,628b806c463b948bc644b84f,6291cfa7aca294be982d1238,,,,,,,,,,,,,,,,,,,,,,,,,,,,,,,,,,,,,,,,,,,,,,,,,,,,,,,,,,,,,,,,,,,,,,,,,,,,,,,,,,,,,,,,,,,,,,,,,,,,,,,
,,"[""comma""]",0,[0.4049999999999727],77,0,77,0,1,601913327bc70701722ecd88,26,Mężczyzna,2022-05-28_09h32.21.444,task,2021.1.4,Win32,60.0240096,628b806c463b948bc644b84f,6291cfa7aca294be982d1238,,,,,,,,,,,,,,,,,,,,,,,,,,,,,,,,,,,,,,,,,,,,,,,,,,,,,,,,,,,,,,,,,,,,,,,,,,,,,,,,,,,,,,,,,,,,,,,,,,,,,,,
,,"[""comma""]",0,[0.40200000000004366],78,0,78,0,1,601913327bc70701722ecd88,26,Mężczyzna,2022-05-28_09h32.21.444,task,2021.1.4,Win32,60.0240096,628b806c463b948bc644b84f,6291cfa7aca294be982d1238,,,,,,,,,,,,,,,,,,,,,,,,,,,,,,,,,,,,,,,,,,,,,,,,,,,,,,,,,,,,,,,,,,,,,,,,,,,,,,,,,,,,,,,,,,,,,,,,,,,,,,,
,,"[""period""]",0,[0.5459999999999923],79,0,79,0,1,601913327bc70701722ecd88,26,Mężczyzna,2022-05-28_09h32.21.444,task,2021.1.4,Win32,60.0240096,628b806c463b948bc644b84f,6291cfa7aca294be982d1238,,,,,,,,,,,,,,,,,,,,,,,,,,,,,,,,,,,,,,,,,,,,,,,,,,,,,,,,,,,,,,,,,,,,,,,,,,,,,,,,,,,,,,,,,,,,,,,,,,,,,,,
,,"[""comma""]",0,[1.58299999999997],80,0,80,0,1,601913327bc70701722ecd88,26,Mężczyzna,2022-05-28_09h32.21.444,task,2021.1.4,Win32,60.0240096,628b806c463b948bc644b84f,6291cfa7aca294be982d1238,,,,,,,,,,,,,,,,,,,,,,,,,,,,,,,,,,,,,,,,,,,,,,,,,,,,,,,,,,,,,,,,,,,,,,,,,,,,,,,,,,,,,,,,,,,,,,,,,,,,,,,
,,"[""comma""]",0,[0.6960000000000264],81,0,81,0,1,601913327bc70701722ecd88,26,Mężczyzna,2022-05-28_09h32.21.444,task,2021.1.4,Win32,60.0240096,628b806c463b948bc644b84f,6291cfa7aca294be982d1238,,,,,,,,,,,,,,,,,,,,,,,,,,,,,,,,,,,,,,,,,,,,,,,,,,,,,,,,,,,,,,,,,,,,,,,,,,,,,,,,,,,,,,,,,,,,,,,,,,,,,,,
,,"[""period""]",0,[0.32900000000000773],82,0,82,0,1,601913327bc70701722ecd88,26,Mężczyzna,2022-05-28_09h32.21.444,task,2021.1.4,Win32,60.0240096,628b806c463b948bc644b84f,6291cfa7aca294be982d1238,,,,,,,,,,,,,,,,,,,,,,,,,,,,,,,,,,,,,,,,,,,,,,,,,,,,,,,,,,,,,,,,,,,,,,,,,,,,,,,,,,,,,,,,,,,,,,,,,,,,,,,
,,"[""comma""]",0,[0.3039999999999736],83,0,83,0,1,601913327bc70701722ecd88,26,Mężczyzna,2022-05-28_09h32.21.444,task,2021.1.4,Win32,60.0240096,628b806c463b948bc644b84f,6291cfa7aca294be982d1238,,,,,,,,,,,,,,,,,,,,,,,,,,,,,,,,,,,,,,,,,,,,,,,,,,,,,,,,,,,,,,,,,,,,,,,,,,,,,,,,,,,,,,,,,,,,,,,,,,,,,,,
,,"[""comma""]",0,[0.2869999999999777],84,0,84,0,1,601913327bc70701722ecd88,26,Mężczyzna,2022-05-28_09h32.21.444,task,2021.1.4,Win32,60.0240096,628b806c463b948bc644b84f,6291cfa7aca294be982d1238,,,,,,,,,,,,,,,,,,,,,,,,,,,,,,,,,,,,,,,,,,,,,,,,,,,,,,,,,,,,,,,,,,,,,,,,,,,,,,,,,,,,,,,,,,,,,,,,,,,,,,,
,,"[""comma""]",0,[0.32200000000000273],85,0,85,0,1,601913327bc70701722ecd88,26,Mężczyzna,2022-05-28_09h32.21.444,task,2021.1.4,Win32,60.0240096,628b806c463b948bc644b84f,6291cfa7aca294be982d1238,,,,,,,,,,,,,,,,,,,,,,,,,,,,,,,,,,,,,,,,,,,,,,,,,,,,,,,,,,,,,,,,,,,,,,,,,,,,,,,,,,,,,,,,,,,,,,,,,,,,,,,
,,"[""period""]",0,[0.3079999999999927],86,0,86,0,1,601913327bc70701722ecd88,26,Mężczyzna,2022-05-28_09h32.21.444,task,2021.1.4,Win32,60.0240096,628b806c463b948bc644b84f,6291cfa7aca294be982d1238,,,,,,,,,,,,,,,,,,,,,,,,,,,,,,,,,,,,,,,,,,,,,,,,,,,,,,,,,,,,,,,,,,,,,,,,,,,,,,,,,,,,,,,,,,,,,,,,,,,,,,,
,,"[""period""]",0,[0.29199999999997317],87,0,87,0,1,601913327bc70701722ecd88,26,Mężczyzna,2022-05-28_09h32.21.444,task,2021.1.4,Win32,60.0240096,628b806c463b948bc644b84f,6291cfa7aca294be982d1238,,,,,,,,,,,,,,,,,,,,,,,,,,,,,,,,,,,,,,,,,,,,,,,,,,,,,,,,,,,,,,,,,,,,,,,,,,,,,,,,,,,,,,,,,,,,,,,,,,,,,,,
,,"[""comma""]",0,[0.2909999999999968],88,0,88,0,1,601913327bc70701722ecd88,26,Mężczyzna,2022-05-28_09h32.21.444,task,2021.1.4,Win32,60.0240096,628b806c463b948bc644b84f,6291cfa7aca294be982d1238,,,,,,,,,,,,,,,,,,,,,,,,,,,,,,,,,,,,,,,,,,,,,,,,,,,,,,,,,,,,,,,,,,,,,,,,,,,,,,,,,,,,,,,,,,,,,,,,,,,,,,,
,,"[""period""]",0,[0.27800000000002],89,0,89,0,1,601913327bc70701722ecd88,26,Mężczyzna,2022-05-28_09h32.21.444,task,2021.1.4,Win32,60.0240096,628b806c463b948bc644b84f,6291cfa7aca294be982d1238,,,,,,,,,,,,,,,,,,,,,,,,,,,,,,,,,,,,,,,,,,,,,,,,,,,,,,,,,,,,,,,,,,,,,,,,,,,,,,,,,,,,,,,,,,,,,,,,,,,,,,,
,,"[""period""]",0,[0.3009999999999877],90,0,90,0,1,601913327bc70701722ecd88,26,Mężczyzna,2022-05-28_09h32.21.444,task,2021.1.4,Win32,60.0240096,628b806c463b948bc644b84f,6291cfa7aca294be982d1238,,,,,,,,,,,,,,,,,,,,,,,,,,,,,,,,,,,,,,,,,,,,,,,,,,,,,,,,,,,,,,,,,,,,,,,,,,,,,,,,,,,,,,,,,,,,,,,,,,,,,,,
,,"[""period""]",0,[0.2890000000000441],91,0,91,0,1,601913327bc70701722ecd88,26,Mężczyzna,2022-05-28_09h32.21.444,task,2021.1.4,Win32,60.0240096,628b806c463b948bc644b84f,6291cfa7aca294be982d1238,,,,,,,,,,,,,,,,,,,,,,,,,,,,,,,,,,,,,,,,,,,,,,,,,,,,,,,,,,,,,,,,,,,,,,,,,,,,,,,,,,,,,,,,,,,,,,,,,,,,,,,
,,"[""comma""]",0,[0.3140000000000214],92,0,92,0,1,601913327bc70701722ecd88,26,Mężczyzna,2022-05-28_09h32.21.444,task,2021.1.4,Win32,60.0240096,628b806c463b948bc644b84f,6291cfa7aca294be982d1238,,,,,,,,,,,,,,,,,,,,,,,,,,,,,,,,,,,,,,,,,,,,,,,,,,,,,,,,,,,,,,,,,,,,,,,,,,,,,,,,,,,,,,,,,,,,,,,,,,,,,,,
,,"[""comma""]",0,[0.3240000000000123],93,0,93,0,1,601913327bc70701722ecd88,26,Mężczyzna,2022-05-28_09h32.21.444,task,2021.1.4,Win32,60.0240096,628b806c463b948bc644b84f,6291cfa7aca294be982d1238,,,,,,,,,,,,,,,,,,,,,,,,,,,,,,,,,,,,,,,,,,,,,,,,,,,,,,,,,,,,,,,,,,,,,,,,,,,,,,,,,,,,,,,,,,,,,,,,,,,,,,,
,,"[""period""]",0,[0.3050000000000068],94,0,94,0,1,601913327bc70701722ecd88,26,Mężczyzna,2022-05-28_09h32.21.444,task,2021.1.4,Win32,60.0240096,628b806c463b948bc644b84f,6291cfa7aca294be982d1238,,,,,,,,,,,,,,,,,,,,,,,,,,,,,,,,,,,,,,,,,,,,,,,,,,,,,,,,,,,,,,,,,,,,,,,,,,,,,,,,,,,,,,,,,,,,,,,,,,,,,,,
,,"[""comma""]",0,[0.28000000000002956],95,0,95,0,1,601913327bc70701722ecd88,26,Mężczyzna,2022-05-28_09h32.21.444,task,2021.1.4,Win32,60.0240096,628b806c463b948bc644b84f,6291cfa7aca294be982d1238,,,,,,,,,,,,,,,,,,,,,,,,,,,,,,,,,,,,,,,,,,,,,,,,,,,,,,,,,,,,,,,,,,,,,,,,,,,,,,,,,,,,,,,,,,,,,,,,,,,,,,,
,,"[""period""]",0,[0.2839999999999918],96,0,96,0,1,601913327bc70701722ecd88,26,Mężczyzna,2022-05-28_09h32.21.444,task,2021.1.4,Win32,60.0240096,628b806c463b948bc644b84f,6291cfa7aca294be982d1238,,,,,,,,,,,,,,,,,,,,,,,,,,,,,,,,,,,,,,,,,,,,,,,,,,,,,,,,,,,,,,,,,,,,,,,,,,,,,,,,,,,,,,,,,,,,,,,,,,,,,,,
,,"[""comma""]",0,[0.3170000000000073],97,0,97,0,1,601913327bc70701722ecd88,26,Mężczyzna,2022-05-28_09h32.21.444,task,2021.1.4,Win32,60.0240096,628b806c463b948bc644b84f,6291cfa7aca294be982d1238,,,,,,,,,,,,,,,,,,,,,,,,,,,,,,,,,,,,,,,,,,,,,,,,,,,,,,,,,,,,,,,,,,,,,,,,,,,,,,,,,,,,,,,,,,,,,,,,,,,,,,,
,,"[""comma""]",0,[0.32099999999996953],98,0,98,0,1,601913327bc70701722ecd88,26,Mężczyzna,2022-05-28_09h32.21.444,task,2021.1.4,Win32,60.0240096,628b806c463b948bc644b84f,6291cfa7aca294be982d1238,,,,,,,,,,,,,,,,,,,,,,,,,,,,,,,,,,,,,,,,,,,,,,,,,,,,,,,,,,,,,,,,,,,,,,,,,,,,,,,,,,,,,,,,,,,,,,,,,,,,,,,
,,"[""period""]",0,[0.2890000000000441],99,0,99,0,1,601913327bc70701722ecd88,26,Mężczyzna,2022-05-28_09h32.21.444,task,2021.1.4,Win32,60.0240096,628b806c463b948bc644b84f,6291cfa7aca294be982d1238,,,,,,,,,,,,,,,,,,,,,,,,,,,,,,,,,,,,,,,,,,,,,,,,,,,,,,,,,,,,,,,,,,,,,,,,,,,,,,,,,,,,,,,,,,,,,,,,,,,,,,,
,,"[""comma""]",0,[0.3079999999999927],100,0,100,0,1,601913327bc70701722ecd88,26,Mężczyzna,2022-05-28_09h32.21.444,task,2021.1.4,Win32,60.0240096,628b806c463b948bc644b84f,6291cfa7aca294be982d1238,,,,,,,,,,,,,,,,,,,,,,,,,,,,,,,,,,,,,,,,,,,,,,,,,,,,,,,,,,,,,,,,,,,,,,,,,,,,,,,,,,,,,,,,,,,,,,,,,,,,,,,
,,"[""comma""]",0,[0.311999999999955],101,0,101,0,1,601913327bc70701722ecd88,26,Mężczyzna,2022-05-28_09h32.21.444,task,2021.1.4,Win32,60.0240096,628b806c463b948bc644b84f,6291cfa7aca294be982d1238,,,,,,,,,,,,,,,,,,,,,,,,,,,,,,,,,,,,,,,,,,,,,,,,,,,,,,,,,,,,,,,,,,,,,,,,,,,,,,,,,,,,,,,,,,,,,,,,,,,,,,,
,,"[""comma""]",0,[0.29199999999997317],102,0,102,0,1,601913327bc70701722ecd88,26,Mężczyzna,2022-05-28_09h32.21.444,task,2021.1.4,Win32,60.0240096,628b806c463b948bc644b84f,6291cfa7aca294be982d1238,,,,,,,,,,,,,,,,,,,,,,,,,,,,,,,,,,,,,,,,,,,,,,,,,,,,,,,,,,,,,,,,,,,,,,,,,,,,,,,,,,,,,,,,,,,,,,,,,,,,,,,
,,"[""comma""]",0,[0.24699999999995725],103,0,103,0,1,601913327bc70701722ecd88,26,Mężczyzna,2022-05-28_09h32.21.444,task,2021.1.4,Win32,60.0240096,628b806c463b948bc644b84f,6291cfa7aca294be982d1238,,,,,,,,,,,,,,,,,,,,,,,,,,,,,,,,,,,,,,,,,,,,,,,,,,,,,,,,,,,,,,,,,,,,,,,,,,,,,,,,,,,,,,,,,,,,,,,,,,,,,,,
,,"[""period""]",0,[0.27099999999995816],104,0,104,0,1,601913327bc70701722ecd88,26,Mężczyzna,2022-05-28_09h32.21.444,task,2021.1.4,Win32,60.0240096,628b806c463b948bc644b84f,6291cfa7aca294be982d1238,,,,,,,,,,,,,,,,,,,,,,,,,,,,,,,,,,,,,,,,,,,,,,,,,,,,,,,,,,,,,,,,,,,,,,,,,,,,,,,,,,,,,,,,,,,,,,,,,,,,,,,
,,"[""period""]",0,[0.2669999999999959],105,0,105,0,1,601913327bc70701722ecd88,26,Mężczyzna,2022-05-28_09h32.21.444,task,2021.1.4,Win32,60.0240096,628b806c463b948bc644b84f,6291cfa7aca294be982d1238,,,,,,,,,,,,,,,,,,,,,,,,,,,,,,,,,,,,,,,,,,,,,,,,,,,,,,,,,,,,,,,,,,,,,,,,,,,,,,,,,,,,,,,,,,,,,,,,,,,,,,,
,,"[""period""]",0,[0.27199999999999136],106,0,106,0,1,601913327bc70701722ecd88,26,Mężczyzna,2022-05-28_09h32.21.444,task,2021.1.4,Win32,60.0240096,628b806c463b948bc644b84f,6291cfa7aca294be982d1238,,,,,,,,,,,,,,,,,,,,,,,,,,,,,,,,,,,,,,,,,,,,,,,,,,,,,,,,,,,,,,,,,,,,,,,,,,,,,,,,,,,,,,,,,,,,,,,,,,,,,,,
,,"[""comma""]",0,[0.25900000000001455],107,0,107,0,1,601913327bc70701722ecd88,26,Mężczyzna,2022-05-28_09h32.21.444,task,2021.1.4,Win32,60.0240096,628b806c463b948bc644b84f,6291cfa7aca294be982d1238,,,,,,,,,,,,,,,,,,,,,,,,,,,,,,,,,,,,,,,,,,,,,,,,,,,,,,,,,,,,,,,,,,,,,,,,,,,,,,,,,,,,,,,,,,,,,,,,,,,,,,,
,,"[""period""]",0,[0.29700000000002547],108,0,108,0,1,601913327bc70701722ecd88,26,Mężczyzna,2022-05-28_09h32.21.444,task,2021.1.4,Win32,60.0240096,628b806c463b948bc644b84f,6291cfa7aca294be982d1238,,,,,,,,,,,,,,,,,,,,,,,,,,,,,,,,,,,,,,,,,,,,,,,,,,,,,,,,,,,,,,,,,,,,,,,,,,,,,,,,,,,,,,,,,,,,,,,,,,,,,,,
,,"[""comma""]",0,[0.3019999999999641],109,0,109,0,1,601913327bc70701722ecd88,26,Mężczyzna,2022-05-28_09h32.21.444,task,2021.1.4,Win32,60.0240096,628b806c463b948bc644b84f,6291cfa7aca294be982d1238,,,,,,,,,,,,,,,,,,,,,,,,,,,,,,,,,,,,,,,,,,,,,,,,,,,,,,,,,,,,,,,,,,,,,,,,,,,,,,,,,,,,,,,,,,,,,,,,,,,,,,,
,,"[""period""]",0,[0.3210000000000264],110,0,110,0,1,601913327bc70701722ecd88,26,Mężczyzna,2022-05-28_09h32.21.444,task,2021.1.4,Win32,60.0240096,628b806c463b948bc644b84f,6291cfa7aca294be982d1238,,,,,,,,,,,,,,,,,,,,,,,,,,,,,,,,,,,,,,,,,,,,,,,,,,,,,,,,,,,,,,,,,,,,,,,,,,,,,,,,,,,,,,,,,,,,,,,,,,,,,,,
,,"[""comma""]",0,[0.29599999999999227],111,0,111,0,1,601913327bc70701722ecd88,26,Mężczyzna,2022-05-28_09h32.21.444,task,2021.1.4,Win32,60.0240096,628b806c463b948bc644b84f,6291cfa7aca294be982d1238,,,,,,,,,,,,,,,,,,,,,,,,,,,,,,,,,,,,,,,,,,,,,,,,,,,,,,,,,,,,,,,,,,,,,,,,,,,,,,,,,,,,,,,,,,,,,,,,,,,,,,,
,,"[""period""]",0,[0.25799999999998136],112,0,112,0,1,601913327bc70701722ecd88,26,Mężczyzna,2022-05-28_09h32.21.444,task,2021.1.4,Win32,60.0240096,628b806c463b948bc644b84f,6291cfa7aca294be982d1238,,,,,,,,,,,,,,,,,,,,,,,,,,,,,,,,,,,,,,,,,,,,,,,,,,,,,,,,,,,,,,,,,,,,,,,,,,,,,,,,,,,,,,,,,,,,,,,,,,,,,,,
,,"[""comma""]",0,[0.07400000000001228],113,0,113,0,1,601913327bc70701722ecd88,26,Mężczyzna,2022-05-28_09h32.21.444,task,2021.1.4,Win32,60.0240096,628b806c463b948bc644b84f,6291cfa7aca294be982d1238,,,,,,,,,,,,,,,,,,,,,,,,,,,,,,,,,,,,,,,,,,,,,,,,,,,,,,,,,,,,,,,,,,,,,,,,,,,,,,,,,,,,,,,,,,,,,,,,,,,,,,,
,,"[""period""]",0,[0.2899999999999636],114,0,114,0,1,601913327bc70701722ecd88,26,Mężczyzna,2022-05-28_09h32.21.444,task,2021.1.4,Win32,60.0240096,628b806c463b948bc644b84f,6291cfa7aca294be982d1238,,,,,,,,,,,,,,,,,,,,,,,,,,,,,,,,,,,,,,,,,,,,,,,,,,,,,,,,,,,,,,,,,,,,,,,,,,,,,,,,,,,,,,,,,,,,,,,,,,,,,,,
,,"[""comma""]",0,[0.35899999999998045],115,0,115,0,1,601913327bc70701722ecd88,26,Mężczyzna,2022-05-28_09h32.21.444,task,2021.1.4,Win32,60.0240096,628b806c463b948bc644b84f,6291cfa7aca294be982d1238,,,,,,,,,,,,,,,,,,,,,,,,,,,,,,,,,,,,,,,,,,,,,,,,,,,,,,,,,,,,,,,,,,,,,,,,,,,,,,,,,,,,,,,,,,,,,,,,,,,,,,,
,,"[""comma""]",0,[0.3009999999999877],116,0,116,0,1,601913327bc70701722ecd88,26,Mężczyzna,2022-05-28_09h32.21.444,task,2021.1.4,Win32,60.0240096,628b806c463b948bc644b84f,6291cfa7aca294be982d1238,,,,,,,,,,,,,,,,,,,,,,,,,,,,,,,,,,,,,,,,,,,,,,,,,,,,,,,,,,,,,,,,,,,,,,,,,,,,,,,,,,,,,,,,,,,,,,,,,,,,,,,
,,"[""period""]",0,[0.38299999999998136],117,0,117,0,1,601913327bc70701722ecd88,26,Mężczyzna,2022-05-28_09h32.21.444,task,2021.1.4,Win32,60.0240096,628b806c463b948bc644b84f,6291cfa7aca294be982d1238,,,,,,,,,,,,,,,,,,,,,,,,,,,,,,,,,,,,,,,,,,,,,,,,,,,,,,,,,,,,,,,,,,,,,,,,,,,,,,,,,,,,,,,,,,,,,,,,,,,,,,,
,,"[""period""]",0,[0.3720000000000141],118,0,118,0,1,601913327bc70701722ecd88,26,Mężczyzna,2022-05-28_09h32.21.444,task,2021.1.4,Win32,60.0240096,628b806c463b948bc644b84f,6291cfa7aca294be982d1238,,,,,,,,,,,,,,,,,,,,,,,,,,,,,,,,,,,,,,,,,,,,,,,,,,,,,,,,,,,,,,,,,,,,,,,,,,,,,,,,,,,,,,,,,,,,,,,,,,,,,,,
,,"[""period""]",0,[0.3439999999999941],119,0,119,0,1,601913327bc70701722ecd88,26,Mężczyzna,2022-05-28_09h32.21.444,task,2021.1.4,Win32,60.0240096,628b806c463b948bc644b84f,6291cfa7aca294be982d1238,,,,,,,,,,,,,,,,,,,,,,,,,,,,,,,,,,,,,,,,,,,,,,,,,,,,,,,,,,,,,,,,,,,,,,,,,,,,,,,,,,,,,,,,,,,,,,,,,,,,,,,
,,,,,,,,,,601913327bc70701722ecd88,26,Mężczyzna,2022-05-28_09h32.21.444,task,2021.1.4,Win32,60.0240096,628b806c463b948bc644b84f,6291cfa7aca294be982d1238,space,14.423,space,7.061,0,0,0,0,1,"X V Q F H G B L J M P D K C T S W R N Z
",,,,,,,,,,,,,,,,,,,,,,,,,,,,,,,,,,,,,,,,,,,,,,,,,,,,,,,,,,,,,,,,,,,,,,,,,,,,,,,,,,,,,,,,,,,,,
,,,,,,,,,,601913327bc70701722ecd88,26,Mężczyzna,2022-05-28_09h32.21.444,task,2021.1.4,Win32,60.0240096,628b806c463b948bc644b84f,6291cfa7aca294be982d1238,,,,,1,0,1,0,1,"X V Q F H G B L J M P D K C T S W R N Z
",,,,,,,,,,,,,,,,,,,,,,,,,,,,,,,,,,,,,,,,,,,,,,,,,,,,,,,,,,,,,,,,,,,,,,,,,,,,,,,,,,,,,,,,,,,,,
,,,,,,,,,,601913327bc70701722ecd88,26,Mężczyzna,2022-05-28_09h32.21.444,task,2021.1.4,Win32,60.0240096,628b806c463b948bc644b84f,6291cfa7aca294be982d1238,,,,,,,,,,,zh,"[""z"",""h""]","[1.9459999999999695,2.183999999999969,3.9209999999999923]",1,ZH,0,0,0,0,1,,,,,,,,,,,,,,,,,,,,,,,,,,,,,,,,,,,,,,,,,,,,,,,,,,,,,,,,,,,,,,,,,,,,,,,,,,,,,,,,,,,
,,,,,,,,,,601913327bc70701722ecd88,26,Mężczyzna,2022-05-28_09h32.21.444,task,2021.1.4,Win32,60.0240096,628b806c463b948bc644b84f,6291cfa7aca294be982d1238,,,,,0,0,0,0,1,"X V Q F H G B L J M P D K C T S W R N Z
",,,,,,,,,,,,,,,,,,,,,,,,,,,,,,,,,,,,,,,,,,,,,,,,,,,,,,,,,,,,,,,,,,,,,,,,,,,,,,,,,,,,,,,,,,,,,
,,,,,,,,,,601913327bc70701722ecd88,26,Mężczyzna,2022-05-28_09h32.21.444,task,2021.1.4,Win32,60.0240096,628b806c463b948bc644b84f,6291cfa7aca294be982d1238,,,,,1,0,1,0,1,"X V Q F H G B L J M P D K C T S W R N Z
",,,,,,,,,,,,,,,,,,,,,,,,,,,,,,,,,,,,,,,,,,,,,,,,,,,,,,,,,,,,,,,,,,,,,,,,,,,,,,,,,,,,,,,,,,,,,
,,,,,,,,,,601913327bc70701722ecd88,26,Mężczyzna,2022-05-28_09h32.21.444,task,2021.1.4,Win32,60.0240096,628b806c463b948bc644b84f,6291cfa7aca294be982d1238,,,,,,,,,,,tl,"[""t"",""l""]","[1.4039999999999964,1.492999999999995,1.7679999999999723]",1,TL,1,0,1,0,1,,,,,,,,,,,,,,,,,,,,,,,,,,,,,,,,,,,,,,,,,,,,,,,,,,,,,,,,,,,,,,,,,,,,,,,,,,,,,,,,,,,
,,,,,,,,,,601913327bc70701722ecd88,26,Mężczyzna,2022-05-28_09h32.21.444,task,2021.1.4,Win32,60.0240096,628b806c463b948bc644b84f,6291cfa7aca294be982d1238,,,,,0,0,0,0,1,"X V Q F H G B L J M P D K C T S W R N Z
",,,,,,,,,,,,,,,,,,,,,,,,,,,,,,,,,,,,,,,,,,,,,,,,,,,,,,,,,,,,,,,,,,,,,,,,,,,,,,,,,,,,,,,,,,,,,
,,,,,,,,,,601913327bc70701722ecd88,26,Mężczyzna,2022-05-28_09h32.21.444,task,2021.1.4,Win32,60.0240096,628b806c463b948bc644b84f,6291cfa7aca294be982d1238,,,,,1,0,1,0,1,"X V Q F H G B L J M P D K C T S W R N Z
",,,,,,,,,,,,,,,,,,,,,,,,,,,,,,,,,,,,,,,,,,,,,,,,,,,,,,,,,,,,,,,,,,,,,,,,,,,,,,,,,,,,,,,,,,,,,
,,,,,,,,,,601913327bc70701722ecd88,26,Mężczyzna,2022-05-28_09h32.21.444,task,2021.1.4,Win32,60.0240096,628b806c463b948bc644b84f,6291cfa7aca294be982d1238,,,,,2,0,2,0,1,"X V Q F H G B L J M P D K C T S W R N Z
",,,,,,,,,,,,,,,,,,,,,,,,,,,,,,,,,,,,,,,,,,,,,,,,,,,,,,,,,,,,,,,,,,,,,,,,,,,,,,,,,,,,,,,,,,,,,
,,,,,,,,,,601913327bc70701722ecd88,26,Mężczyzna,2022-05-28_09h32.21.444,task,2021.1.4,Win32,60.0240096,628b806c463b948bc644b84f,6291cfa7aca294be982d1238,,,,,,,,,,,gnf,"[""g"",""n"",""f""]","[1.108000000000004,1.3340000000000032,1.8260000000000218,2.1929999999999836]",1,GNF,2,0,2,0,1,,,,,,,,,,,,,,,,,,,,,,,,,,,,,,,,,,,,,,,,,,,,,,,,,,,,,,,,,,,,,,,,,,,,,,,,,,,,,,,,,,,
,,,,,,,,,,601913327bc70701722ecd88,26,Mężczyzna,2022-05-28_09h32.21.444,task,2021.1.4,Win32,60.0240096,628b806c463b948bc644b84f,6291cfa7aca294be982d1238,,,,,0,0,0,0,1,"X V Q F H G B L J M P D K C T S W R N Z
",,,,,,,,,,,,,,,,,,,,,,,,,,,,,,,,,,,,,,,,,,,,,,,,,,,,,,,,,,,,,,,,,,,,,,,,,,,,,,,,,,,,,,,,,,,,,
,,,,,,,,,,601913327bc70701722ecd88,26,Mężczyzna,2022-05-28_09h32.21.444,task,2021.1.4,Win32,60.0240096,628b806c463b948bc644b84f,6291cfa7aca294be982d1238,,,,,1,0,1,0,1,"X V Q F H G B L J M P D K C T S W R N Z
",,,,,,,,,,,,,,,,,,,,,,,,,,,,,,,,,,,,,,,,,,,,,,,,,,,,,,,,,,,,,,,,,,,,,,,,,,,,,,,,,,,,,,,,,,,,,
,,,,,,,,,,601913327bc70701722ecd88,26,Mężczyzna,2022-05-28_09h32.21.444,task,2021.1.4,Win32,60.0240096,628b806c463b948bc644b84f,6291cfa7aca294be982d1238,,,,,2,0,2,0,1,"X V Q F H G B L J M P D K C T S W R N Z
",,,,,,,,,,,,,,,,,,,,,,,,,,,,,,,,,,,,,,,,,,,,,,,,,,,,,,,,,,,,,,,,,,,,,,,,,,,,,,,,,,,,,,,,,,,,,
,,,,,,,,,,601913327bc70701722ecd88,26,Mężczyzna,2022-05-28_09h32.21.444,task,2021.1.4,Win32,60.0240096,628b806c463b948bc644b84f,6291cfa7aca294be982d1238,,,,,,,,,,,qrq,"[""q"",""r"",""q""]","[1.2719999999999914,2.5609999999999786,2.8940000000000055,3.266999999999996]",1,QRQ,3,0,3,0,1,,,,,,,,,,,,,,,,,,,,,,,,,,,,,,,,,,,,,,,,,,,,,,,,,,,,,,,,,,,,,,,,,,,,,,,,,,,,,,,,,,,
,,,,,,,,,,601913327bc70701722ecd88,26,Mężczyzna,2022-05-28_09h32.21.444,task,2021.1.4,Win32,60.0240096,628b806c463b948bc644b84f,6291cfa7aca294be982d1238,,,,,0,0,0,0,1,"X V Q F H G B L J M P D K C T S W R N Z
",,,,,,,,,,,,,,,,,,,,,,,,,,,,,,,,,,,,,,,,,,,,,,,,,,,,,,,,,,,,,,,,,,,,,,,,,,,,,,,,,,,,,,,,,,,,,
,,,,,,,,,,601913327bc70701722ecd88,26,Mężczyzna,2022-05-28_09h32.21.444,task,2021.1.4,Win32,60.0240096,628b806c463b948bc644b84f,6291cfa7aca294be982d1238,,,,,1,0,1,0,1,"X V Q F H G B L J M P D K C T S W R N Z
",,,,,,,,,,,,,,,,,,,,,,,,,,,,,,,,,,,,,,,,,,,,,,,,,,,,,,,,,,,,,,,,,,,,,,,,,,,,,,,,,,,,,,,,,,,,,
,,,,,,,,,,601913327bc70701722ecd88,26,Mężczyzna,2022-05-28_09h32.21.444,task,2021.1.4,Win32,60.0240096,628b806c463b948bc644b84f,6291cfa7aca294be982d1238,,,,,2,0,2,0,1,"X V Q F H G B L J M P D K C T S W R N Z
",,,,,,,,,,,,,,,,,,,,,,,,,,,,,,,,,,,,,,,,,,,,,,,,,,,,,,,,,,,,,,,,,,,,,,,,,,,,,,,,,,,,,,,,,,,,,
,,,,,,,,,,601913327bc70701722ecd88,26,Mężczyzna,2022-05-28_09h32.21.444,task,2021.1.4,Win32,60.0240096,628b806c463b948bc644b84f,6291cfa7aca294be982d1238,,,,,3,0,3,0,1,"X V Q F H G B L J M P D K C T S W R N Z
",,,,,,,,,,,,,,,,,,,,,,,,,,,,,,,,,,,,,,,,,,,,,,,,,,,,,,,,,,,,,,,,,,,,,,,,,,,,,,,,,,,,,,,,,,,,,
,,,,,,,,,,601913327bc70701722ecd88,26,Mężczyzna,2022-05-28_09h32.21.444,task,2021.1.4,Win32,60.0240096,628b806c463b948bc644b84f,6291cfa7aca294be982d1238,,,,,,,,,,,sfwt,"[""s"",""f"",""w"",""t""]","[1.0349999999999682,1.3899999999999864,1.7099999999999795,1.992999999999995,2.3179999999999836]",1,SFWT,4,0,4,0,1,,,,,,,,,,,,,,,,,,,,,,,,,,,,,,,,,,,,,,,,,,,,,,,,,,,,,,,,,,,,,,,,,,,,,,,,,,,,,,,,,,,
,,,,,,,,,,601913327bc70701722ecd88,26,Mężczyzna,2022-05-28_09h32.21.444,task,2021.1.4,Win32,60.0240096,628b806c463b948bc644b84f,6291cfa7aca294be982d1238,,,,,0,0,0,0,1,"X V Q F H G B L J M P D K C T S W R N Z
",,,,,,,,,,,,,,,,,,,,,,,,,,,,,,,,,,,,,,,,,,,,,,,,,,,,,,,,,,,,,,,,,,,,,,,,,,,,,,,,,,,,,,,,,,,,,
,,,,,,,,,,601913327bc70701722ecd88,26,Mężczyzna,2022-05-28_09h32.21.444,task,2021.1.4,Win32,60.0240096,628b806c463b948bc644b84f,6291cfa7aca294be982d1238,,,,,1,0,1,0,1,"X V Q F H G B L J M P D K C T S W R N Z
",,,,,,,,,,,,,,,,,,,,,,,,,,,,,,,,,,,,,,,,,,,,,,,,,,,,,,,,,,,,,,,,,,,,,,,,,,,,,,,,,,,,,,,,,,,,,
,,,,,,,,,,601913327bc70701722ecd88,26,Mężczyzna,2022-05-28_09h32.21.444,task,2021.1.4,Win32,60.0240096,628b806c463b948bc644b84f,6291cfa7aca294be982d1238,,,,,2,0,2,0,1,"X V Q F H G B L J M P D K C T S W R N Z
",,,,,,,,,,,,,,,,,,,,,,,,,,,,,,,,,,,,,,,,,,,,,,,,,,,,,,,,,,,,,,,,,,,,,,,,,,,,,,,,,,,,,,,,,,,,,
,,,,,,,,,,601913327bc70701722ecd88,26,Mężczyzna,2022-05-28_09h32.21.444,task,2021.1.4,Win32,60.0240096,628b806c463b948bc644b84f,6291cfa7aca294be982d1238,,,,,3,0,3,0,1,"X V Q F H G B L J M P D K C T S W R N Z
",,,,,,,,,,,,,,,,,,,,,,,,,,,,,,,,,,,,,,,,,,,,,,,,,,,,,,,,,,,,,,,,,,,,,,,,,,,,,,,,,,,,,,,,,,,,,
,,,,,,,,,,601913327bc70701722ecd88,26,Mężczyzna,2022-05-28_09h32.21.444,task,2021.1.4,Win32,60.0240096,628b806c463b948bc644b84f,6291cfa7aca294be982d1238,,,,,,,,,,,hppv,"[""h"",""p"",""p"",""v""]","[1.1170000000000186,1.3249999999999886,1.5,1.725999999999999,2.3840000000000146]",1,HPPV,5,0,5,0,1,,,,,,,,,,,,,,,,,,,,,,,,,,,,,,,,,,,,,,,,,,,,,,,,,,,,,,,,,,,,,,,,,,,,,,,,,,,,,,,,,,,
,,,,,,,,,,601913327bc70701722ecd88,26,Mężczyzna,2022-05-28_09h32.21.444,task,2021.1.4,Win32,60.0240096,628b806c463b948bc644b84f,6291cfa7aca294be982d1238,,,,,0,0,0,0,1,"X V Q F H G B L J M P D K C T S W R N Z
",,,,,,,,,,,,,,,,,,,,,,,,,,,,,,,,,,,,,,,,,,,,,,,,,,,,,,,,,,,,,,,,,,,,,,,,,,,,,,,,,,,,,,,,,,,,,
,,,,,,,,,,601913327bc70701722ecd88,26,Mężczyzna,2022-05-28_09h32.21.444,task,2021.1.4,Win32,60.0240096,628b806c463b948bc644b84f,6291cfa7aca294be982d1238,,,,,1,0,1,0,1,"X V Q F H G B L J M P D K C T S W R N Z
",,,,,,,,,,,,,,,,,,,,,,,,,,,,,,,,,,,,,,,,,,,,,,,,,,,,,,,,,,,,,,,,,,,,,,,,,,,,,,,,,,,,,,,,,,,,,
,,,,,,,,,,601913327bc70701722ecd88,26,Mężczyzna,2022-05-28_09h32.21.444,task,2021.1.4,Win32,60.0240096,628b806c463b948bc644b84f,6291cfa7aca294be982d1238,,,,,2,0,2,0,1,"X V Q F H G B L J M P D K C T S W R N Z
",,,,,,,,,,,,,,,,,,,,,,,,,,,,,,,,,,,,,,,,,,,,,,,,,,,,,,,,,,,,,,,,,,,,,,,,,,,,,,,,,,,,,,,,,,,,,
,,,,,,,,,,601913327bc70701722ecd88,26,Mężczyzna,2022-05-28_09h32.21.444,task,2021.1.4,Win32,60.0240096,628b806c463b948bc644b84f,6291cfa7aca294be982d1238,,,,,3,0,3,0,1,"X V Q F H G B L J M P D K C T S W R N Z
",,,,,,,,,,,,,,,,,,,,,,,,,,,,,,,,,,,,,,,,,,,,,,,,,,,,,,,,,,,,,,,,,,,,,,,,,,,,,,,,,,,,,,,,,,,,,
,,,,,,,,,,601913327bc70701722ecd88,26,Mężczyzna,2022-05-28_09h32.21.444,task,2021.1.4,Win32,60.0240096,628b806c463b948bc644b84f,6291cfa7aca294be982d1238,,,,,4,0,4,0,1,"X V Q F H G B L J M P D K C T S W R N Z
",,,,,,,,,,,,,,,,,,,,,,,,,,,,,,,,,,,,,,,,,,,,,,,,,,,,,,,,,,,,,,,,,,,,,,,,,,,,,,,,,,,,,,,,,,,,,
,,,,,,,,,,601913327bc70701722ecd88,26,Mężczyzna,2022-05-28_09h32.21.444,task,2021.1.4,Win32,60.0240096,628b806c463b948bc644b84f,6291cfa7aca294be982d1238,,,,,,,,,,,xgqfw,"[""x"",""g"",""q"",""f"",""w""]","[4.598000000000013,5.117000000000019,5.8700000000000045,7.29400000000004,8.092000000000041,8.967000000000041]",0,XSGQF,6,0,6,0,1,,,,,,,,,,,,,,,,,,,,,,,,,,,,,,,,,,,,,,,,,,,,,,,,,,,,,,,,,,,,,,,,,,,,,,,,,,,,,,,,,,,
,,,,,,,,,,601913327bc70701722ecd88,26,Mężczyzna,2022-05-28_09h32.21.444,task,2021.1.4,Win32,60.0240096,628b806c463b948bc644b84f,6291cfa7aca294be982d1238,,,,,0,0,0,0,1,"X V Q F H G B L J M P D K C T S W R N Z
",,,,,,,,,,,,,,,,,,,,,,,,,,,,,,,,,,,,,,,,,,,,,,,,,,,,,,,,,,,,,,,,,,,,,,,,,,,,,,,,,,,,,,,,,,,,,
,,,,,,,,,,601913327bc70701722ecd88,26,Mężczyzna,2022-05-28_09h32.21.444,task,2021.1.4,Win32,60.0240096,628b806c463b948bc644b84f,6291cfa7aca294be982d1238,,,,,1,0,1,0,1,"X V Q F H G B L J M P D K C T S W R N Z
",,,,,,,,,,,,,,,,,,,,,,,,,,,,,,,,,,,,,,,,,,,,,,,,,,,,,,,,,,,,,,,,,,,,,,,,,,,,,,,,,,,,,,,,,,,,,
,,,,,,,,,,601913327bc70701722ecd88,26,Mężczyzna,2022-05-28_09h32.21.444,task,2021.1.4,Win32,60.0240096,628b806c463b948bc644b84f,6291cfa7aca294be982d1238,,,,,2,0,2,0,1,"X V Q F H G B L J M P D K C T S W R N Z
",,,,,,,,,,,,,,,,,,,,,,,,,,,,,,,,,,,,,,,,,,,,,,,,,,,,,,,,,,,,,,,,,,,,,,,,,,,,,,,,,,,,,,,,,,,,,
,,,,,,,,,,601913327bc70701722ecd88,26,Mężczyzna,2022-05-28_09h32.21.444,task,2021.1.4,Win32,60.0240096,628b806c463b948bc644b84f,6291cfa7aca294be982d1238,,,,,3,0,3,0,1,"X V Q F H G B L J M P D K C T S W R N Z
",,,,,,,,,,,,,,,,,,,,,,,,,,,,,,,,,,,,,,,,,,,,,,,,,,,,,,,,,,,,,,,,,,,,,,,,,,,,,,,,,,,,,,,,,,,,,
,,,,,,,,,,601913327bc70701722ecd88,26,Mężczyzna,2022-05-28_09h32.21.444,task,2021.1.4,Win32,60.0240096,628b806c463b948bc644b84f,6291cfa7aca294be982d1238,,,,,4,0,4,0,1,"X V Q F H G B L J M P D K C T S W R N Z
",,,,,,,,,,,,,,,,,,,,,,,,,,,,,,,,,,,,,,,,,,,,,,,,,,,,,,,,,,,,,,,,,,,,,,,,,,,,,,,,,,,,,,,,,,,,,
,,,,,,,,,,601913327bc70701722ecd88,26,Mężczyzna,2022-05-28_09h32.21.444,task,2021.1.4,Win32,60.0240096,628b806c463b948bc644b84f,6291cfa7aca294be982d1238,,,,,,,,,,,lwpkq,"[""l"",""w"",""p"",""k"",""q""]","[1.1440000000000055,1.4189999999999827,1.711999999999989,2.1399999999999864,2.4499999999999886,2.853999999999985]",1,LWPKQ,7,0,7,0,1,,,,,,,,,,,,,,,,,,,,,,,,,,,,,,,,,,,,,,,,,,,,,,,,,,,,,,,,,,,,,,,,,,,,,,,,,,,,,,,,,,,
,,,,,,,,,,601913327bc70701722ecd88,26,Mężczyzna,2022-05-28_09h32.21.444,task,2021.1.4,Win32,60.0240096,628b806c463b948bc644b84f,6291cfa7aca294be982d1238,,,,,0,0,0,0,1,"X V Q F H G B L J M P D K C T S W R N Z
",,,,,,,,,,,,,,,,,,,,,,,,,,,,,,,,,,,,,,,,,,,,,,,,,,,,,,,,,,,,,,,,,,,,,,,,,,,,,,,,,,,,,,,,,,,,,
,,,,,,,,,,601913327bc70701722ecd88,26,Mężczyzna,2022-05-28_09h32.21.444,task,2021.1.4,Win32,60.0240096,628b806c463b948bc644b84f,6291cfa7aca294be982d1238,,,,,1,0,1,0,1,"X V Q F H G B L J M P D K C T S W R N Z
",,,,,,,,,,,,,,,,,,,,,,,,,,,,,,,,,,,,,,,,,,,,,,,,,,,,,,,,,,,,,,,,,,,,,,,,,,,,,,,,,,,,,,,,,,,,,
,,,,,,,,,,601913327bc70701722ecd88,26,Mężczyzna,2022-05-28_09h32.21.444,task,2021.1.4,Win32,60.0240096,628b806c463b948bc644b84f,6291cfa7aca294be982d1238,,,,,2,0,2,0,1,"X V Q F H G B L J M P D K C T S W R N Z
",,,,,,,,,,,,,,,,,,,,,,,,,,,,,,,,,,,,,,,,,,,,,,,,,,,,,,,,,,,,,,,,,,,,,,,,,,,,,,,,,,,,,,,,,,,,,
,,,,,,,,,,601913327bc70701722ecd88,26,Mężczyzna,2022-05-28_09h32.21.444,task,2021.1.4,Win32,60.0240096,628b806c463b948bc644b84f,6291cfa7aca294be982d1238,,,,,3,0,3,0,1,"X V Q F H G B L J M P D K C T S W R N Z
",,,,,,,,,,,,,,,,,,,,,,,,,,,,,,,,,,,,,,,,,,,,,,,,,,,,,,,,,,,,,,,,,,,,,,,,,,,,,,,,,,,,,,,,,,,,,
,,,,,,,,,,601913327bc70701722ecd88,26,Mężczyzna,2022-05-28_09h32.21.444,task,2021.1.4,Win32,60.0240096,628b806c463b948bc644b84f,6291cfa7aca294be982d1238,,,,,4,0,4,0,1,"X V Q F H G B L J M P D K C T S W R N Z
",,,,,,,,,,,,,,,,,,,,,,,,,,,,,,,,,,,,,,,,,,,,,,,,,,,,,,,,,,,,,,,,,,,,,,,,,,,,,,,,,,,,,,,,,,,,,
,,,,,,,,,,601913327bc70701722ecd88,26,Mężczyzna,2022-05-28_09h32.21.444,task,2021.1.4,Win32,60.0240096,628b806c463b948bc644b84f,6291cfa7aca294be982d1238,,,,,,,,,,,tscsf,"[""t"",""s"",""c"",""s"",""f""]","[1.0159999999999627,1.2199999999999704,1.5279999999999632,2.1299999999999955,2.6409999999999627,3.266999999999996]",1,TSCSF,8,0,8,0,1,,,,,,,,,,,,,,,,,,,,,,,,,,,,,,,,,,,,,,,,,,,,,,,,,,,,,,,,,,,,,,,,,,,,,,,,,,,,,,,,,,,
,,,,,,,,,,601913327bc70701722ecd88,26,Mężczyzna,2022-05-28_09h32.21.444,task,2021.1.4,Win32,60.0240096,628b806c463b948bc644b84f,6291cfa7aca294be982d1238,,,,,0,0,0,0,1,"X V Q F H G B L J M P D K C T S W R N Z
",,,,,,,,,,,,,,,,,,,,,,,,,,,,,,,,,,,,,,,,,,,,,,,,,,,,,,,,,,,,,,,,,,,,,,,,,,,,,,,,,,,,,,,,,,,,,
,,,,,,,,,,601913327bc70701722ecd88,26,Mężczyzna,2022-05-28_09h32.21.444,task,2021.1.4,Win32,60.0240096,628b806c463b948bc644b84f,6291cfa7aca294be982d1238,,,,,1,0,1,0,1,"X V Q F H G B L J M P D K C T S W R N Z
",,,,,,,,,,,,,,,,,,,,,,,,,,,,,,,,,,,,,,,,,,,,,,,,,,,,,,,,,,,,,,,,,,,,,,,,,,,,,,,,,,,,,,,,,,,,,
,,,,,,,,,,601913327bc70701722ecd88,26,Mężczyzna,2022-05-28_09h32.21.444,task,2021.1.4,Win32,60.0240096,628b806c463b948bc644b84f,6291cfa7aca294be982d1238,,,,,2,0,2,0,1,"X V Q F H G B L J M P D K C T S W R N Z
",,,,,,,,,,,,,,,,,,,,,,,,,,,,,,,,,,,,,,,,,,,,,,,,,,,,,,,,,,,,,,,,,,,,,,,,,,,,,,,,,,,,,,,,,,,,,
,,,,,,,,,,601913327bc70701722ecd88,26,Mężczyzna,2022-05-28_09h32.21.444,task,2021.1.4,Win32,60.0240096,628b806c463b948bc644b84f,6291cfa7aca294be982d1238,,,,,3,0,3,0,1,"X V Q F H G B L J M P D K C T S W R N Z
",,,,,,,,,,,,,,,,,,,,,,,,,,,,,,,,,,,,,,,,,,,,,,,,,,,,,,,,,,,,,,,,,,,,,,,,,,,,,,,,,,,,,,,,,,,,,
,,,,,,,,,,601913327bc70701722ecd88,26,Mężczyzna,2022-05-28_09h32.21.444,task,2021.1.4,Win32,60.0240096,628b806c463b948bc644b84f,6291cfa7aca294be982d1238,,,,,4,0,4,0,1,"X V Q F H G B L J M P D K C T S W R N Z
",,,,,,,,,,,,,,,,,,,,,,,,,,,,,,,,,,,,,,,,,,,,,,,,,,,,,,,,,,,,,,,,,,,,,,,,,,,,,,,,,,,,,,,,,,,,,
,,,,,,,,,,601913327bc70701722ecd88,26,Mężczyzna,2022-05-28_09h32.21.444,task,2021.1.4,Win32,60.0240096,628b806c463b948bc644b84f,6291cfa7aca294be982d1238,,,,,5,0,5,0,1,"X V Q F H G B L J M P D K C T S W R N Z
",,,,,,,,,,,,,,,,,,,,,,,,,,,,,,,,,,,,,,,,,,,,,,,,,,,,,,,,,,,,,,,,,,,,,,,,,,,,,,,,,,,,,,,,,,,,,
,,,,,,,,,,601913327bc70701722ecd88,26,Mężczyzna,2022-05-28_09h32.21.444,task,2021.1.4,Win32,60.0240096,628b806c463b948bc644b84f,6291cfa7aca294be982d1238,,,,,,,,,,,phrrpr,"[""p"",""h"",""r"",""r"",""p"",""r""]","[1.2930000000000064,1.4499999999999886,1.7930000000000064,1.9660000000000082,2.1999999999999886,2.356999999999971,3.044999999999959]",1,PHRRPR,9,0,9,0,1,,,,,,,,,,,,,,,,,,,,,,,,,,,,,,,,,,,,,,,,,,,,,,,,,,,,,,,,,,,,,,,,,,,,,,,,,,,,,,,,,,,
,,,,,,,,,,601913327bc70701722ecd88,26,Mężczyzna,2022-05-28_09h32.21.444,task,2021.1.4,Win32,60.0240096,628b806c463b948bc644b84f,6291cfa7aca294be982d1238,,,,,0,0,0,0,1,"X V Q F H G B L J M P D K C T S W R N Z
",,,,,,,,,,,,,,,,,,,,,,,,,,,,,,,,,,,,,,,,,,,,,,,,,,,,,,,,,,,,,,,,,,,,,,,,,,,,,,,,,,,,,,,,,,,,,
,,,,,,,,,,601913327bc70701722ecd88,26,Mężczyzna,2022-05-28_09h32.21.444,task,2021.1.4,Win32,60.0240096,628b806c463b948bc644b84f,6291cfa7aca294be982d1238,,,,,1,0,1,0,1,"X V Q F H G B L J M P D K C T S W R N Z
",,,,,,,,,,,,,,,,,,,,,,,,,,,,,,,,,,,,,,,,,,,,,,,,,,,,,,,,,,,,,,,,,,,,,,,,,,,,,,,,,,,,,,,,,,,,,
,,,,,,,,,,601913327bc70701722ecd88,26,Mężczyzna,2022-05-28_09h32.21.444,task,2021.1.4,Win32,60.0240096,628b806c463b948bc644b84f,6291cfa7aca294be982d1238,,,,,2,0,2,0,1,"X V Q F H G B L J M P D K C T S W R N Z
",,,,,,,,,,,,,,,,,,,,,,,,,,,,,,,,,,,,,,,,,,,,,,,,,,,,,,,,,,,,,,,,,,,,,,,,,,,,,,,,,,,,,,,,,,,,,
,,,,,,,,,,601913327bc70701722ecd88,26,Mężczyzna,2022-05-28_09h32.21.444,task,2021.1.4,Win32,60.0240096,628b806c463b948bc644b84f,6291cfa7aca294be982d1238,,,,,3,0,3,0,1,"X V Q F H G B L J M P D K C T S W R N Z
",,,,,,,,,,,,,,,,,,,,,,,,,,,,,,,,,,,,,,,,,,,,,,,,,,,,,,,,,,,,,,,,,,,,,,,,,,,,,,,,,,,,,,,,,,,,,
,,,,,,,,,,601913327bc70701722ecd88,26,Mężczyzna,2022-05-28_09h32.21.444,task,2021.1.4,Win32,60.0240096,628b806c463b948bc644b84f,6291cfa7aca294be982d1238,,,,,4,0,4,0,1,"X V Q F H G B L J M P D K C T S W R N Z
",,,,,,,,,,,,,,,,,,,,,,,,,,,,,,,,,,,,,,,,,,,,,,,,,,,,,,,,,,,,,,,,,,,,,,,,,,,,,,,,,,,,,,,,,,,,,
,,,,,,,,,,601913327bc70701722ecd88,26,Mężczyzna,2022-05-28_09h32.21.444,task,2021.1.4,Win32,60.0240096,628b806c463b948bc644b84f,6291cfa7aca294be982d1238,,,,,5,0,5,0,1,"X V Q F H G B L J M P D K C T S W R N Z
",,,,,,,,,,,,,,,,,,,,,,,,,,,,,,,,,,,,,,,,,,,,,,,,,,,,,,,,,,,,,,,,,,,,,,,,,,,,,,,,,,,,,,,,,,,,,
,,,,,,,,,,601913327bc70701722ecd88,26,Mężczyzna,2022-05-28_09h32.21.444,task,2021.1.4,Win32,60.0240096,628b806c463b948bc644b84f,6291cfa7aca294be982d1238,,,,,,,,,,,swcxb,"[""s"",""w"",""c"",""x"",""b""]","[1.2490000000000236,1.641999999999939,1.990000000000009,2.381999999999948,3.1860000000000355,4.523000000000025]",0,SWCXBH,10,0,10,0,1,,,,,,,,,,,,,,,,,,,,,,,,,,,,,,,,,,,,,,,,,,,,,,,,,,,,,,,,,,,,,,,,,,,,,,,,,,,,,,,,,,,
,,,,,,,,,,601913327bc70701722ecd88,26,Mężczyzna,2022-05-28_09h32.21.444,task,2021.1.4,Win32,60.0240096,628b806c463b948bc644b84f,6291cfa7aca294be982d1238,,,,,0,0,0,0,1,"X V Q F H G B L J M P D K C T S W R N Z
",,,,,,,,,,,,,,,,,,,,,,,,,,,,,,,,,,,,,,,,,,,,,,,,,,,,,,,,,,,,,,,,,,,,,,,,,,,,,,,,,,,,,,,,,,,,,
,,,,,,,,,,601913327bc70701722ecd88,26,Mężczyzna,2022-05-28_09h32.21.444,task,2021.1.4,Win32,60.0240096,628b806c463b948bc644b84f,6291cfa7aca294be982d1238,,,,,1,0,1,0,1,"X V Q F H G B L J M P D K C T S W R N Z
",,,,,,,,,,,,,,,,,,,,,,,,,,,,,,,,,,,,,,,,,,,,,,,,,,,,,,,,,,,,,,,,,,,,,,,,,,,,,,,,,,,,,,,,,,,,,
,,,,,,,,,,601913327bc70701722ecd88,26,Mężczyzna,2022-05-28_09h32.21.444,task,2021.1.4,Win32,60.0240096,628b806c463b948bc644b84f,6291cfa7aca294be982d1238,,,,,2,0,2,0,1,"X V Q F H G B L J M P D K C T S W R N Z
",,,,,,,,,,,,,,,,,,,,,,,,,,,,,,,,,,,,,,,,,,,,,,,,,,,,,,,,,,,,,,,,,,,,,,,,,,,,,,,,,,,,,,,,,,,,,
,,,,,,,,,,601913327bc70701722ecd88,26,Mężczyzna,2022-05-28_09h32.21.444,task,2021.1.4,Win32,60.0240096,628b806c463b948bc644b84f,6291cfa7aca294be982d1238,,,,,3,0,3,0,1,"X V Q F H G B L J M P D K C T S W R N Z
",,,,,,,,,,,,,,,,,,,,,,,,,,,,,,,,,,,,,,,,,,,,,,,,,,,,,,,,,,,,,,,,,,,,,,,,,,,,,,,,,,,,,,,,,,,,,
,,,,,,,,,,601913327bc70701722ecd88,26,Mężczyzna,2022-05-28_09h32.21.444,task,2021.1.4,Win32,60.0240096,628b806c463b948bc644b84f,6291cfa7aca294be982d1238,,,,,4,0,4,0,1,"X V Q F H G B L J M P D K C T S W R N Z
",,,,,,,,,,,,,,,,,,,,,,,,,,,,,,,,,,,,,,,,,,,,,,,,,,,,,,,,,,,,,,,,,,,,,,,,,,,,,,,,,,,,,,,,,,,,,
,,,,,,,,,,601913327bc70701722ecd88,26,Mężczyzna,2022-05-28_09h32.21.444,task,2021.1.4,Win32,60.0240096,628b806c463b948bc644b84f,6291cfa7aca294be982d1238,,,,,5,0,5,0,1,"X V Q F H G B L J M P D K C T S W R N Z
",,,,,,,,,,,,,,,,,,,,,,,,,,,,,,,,,,,,,,,,,,,,,,,,,,,,,,,,,,,,,,,,,,,,,,,,,,,,,,,,,,,,,,,,,,,,,
,,,,,,,,,,601913327bc70701722ecd88,26,Mężczyzna,2022-05-28_09h32.21.444,task,2021.1.4,Win32,60.0240096,628b806c463b948bc644b84f,6291cfa7aca294be982d1238,,,,,,,,,,,wtfkxb,"[""w"",""t"",""f"",""k"",""x"",""b""]","[1.5370000000000346,1.75,1.9669999999999845,2.3740000000000236,2.7069999999999936,2.9950000000000045,4.277000000000044]",1,WTFKXB,11,0,11,0,1,,,,,,,,,,,,,,,,,,,,,,,,,,,,,,,,,,,,,,,,,,,,,,,,,,,,,,,,,,,,,,,,,,,,,,,,,,,,,,,,,,,
,,,,,,,,,,601913327bc70701722ecd88,26,Mężczyzna,2022-05-28_09h32.21.444,task,2021.1.4,Win32,60.0240096,628b806c463b948bc644b84f,6291cfa7aca294be982d1238,,,,,0,0,0,0,1,"X V Q F H G B L J M P D K C T S W R N Z
",,,,,,,,,,,,,,,,,,,,,,,,,,,,,,,,,,,,,,,,,,,,,,,,,,,,,,,,,,,,,,,,,,,,,,,,,,,,,,,,,,,,,,,,,,,,,
,,,,,,,,,,601913327bc70701722ecd88,26,Mężczyzna,2022-05-28_09h32.21.444,task,2021.1.4,Win32,60.0240096,628b806c463b948bc644b84f,6291cfa7aca294be982d1238,,,,,1,0,1,0,1,"X V Q F H G B L J M P D K C T S W R N Z
",,,,,,,,,,,,,,,,,,,,,,,,,,,,,,,,,,,,,,,,,,,,,,,,,,,,,,,,,,,,,,,,,,,,,,,,,,,,,,,,,,,,,,,,,,,,,
,,,,,,,,,,601913327bc70701722ecd88,26,Mężczyzna,2022-05-28_09h32.21.444,task,2021.1.4,Win32,60.0240096,628b806c463b948bc644b84f,6291cfa7aca294be982d1238,,,,,2,0,2,0,1,"X V Q F H G B L J M P D K C T S W R N Z
",,,,,,,,,,,,,,,,,,,,,,,,,,,,,,,,,,,,,,,,,,,,,,,,,,,,,,,,,,,,,,,,,,,,,,,,,,,,,,,,,,,,,,,,,,,,,
,,,,,,,,,,601913327bc70701722ecd88,26,Mężczyzna,2022-05-28_09h32.21.444,task,2021.1.4,Win32,60.0240096,628b806c463b948bc644b84f,6291cfa7aca294be982d1238,,,,,3,0,3,0,1,"X V Q F H G B L J M P D K C T S W R N Z
",,,,,,,,,,,,,,,,,,,,,,,,,,,,,,,,,,,,,,,,,,,,,,,,,,,,,,,,,,,,,,,,,,,,,,,,,,,,,,,,,,,,,,,,,,,,,
,,,,,,,,,,601913327bc70701722ecd88,26,Mężczyzna,2022-05-28_09h32.21.444,task,2021.1.4,Win32,60.0240096,628b806c463b948bc644b84f,6291cfa7aca294be982d1238,,,,,4,0,4,0,1,"X V Q F H G B L J M P D K C T S W R N Z
",,,,,,,,,,,,,,,,,,,,,,,,,,,,,,,,,,,,,,,,,,,,,,,,,,,,,,,,,,,,,,,,,,,,,,,,,,,,,,,,,,,,,,,,,,,,,
,,,,,,,,,,601913327bc70701722ecd88,26,Mężczyzna,2022-05-28_09h32.21.444,task,2021.1.4,Win32,60.0240096,628b806c463b948bc644b84f,6291cfa7aca294be982d1238,,,,,5,0,5,0,1,"X V Q F H G B L J M P D K C T S W R N Z
",,,,,,,,,,,,,,,,,,,,,,,,,,,,,,,,,,,,,,,,,,,,,,,,,,,,,,,,,,,,,,,,,,,,,,,,,,,,,,,,,,,,,,,,,,,,,
,,,,,,,,,,601913327bc70701722ecd88,26,Mężczyzna,2022-05-28_09h32.21.444,task,2021.1.4,Win32,60.0240096,628b806c463b948bc644b84f,6291cfa7aca294be982d1238,,,,,6,0,6,0,1,"X V Q F H G B L J M P D K C T S W R N Z
",,,,,,,,,,,,,,,,,,,,,,,,,,,,,,,,,,,,,,,,,,,,,,,,,,,,,,,,,,,,,,,,,,,,,,,,,,,,,,,,,,,,,,,,,,,,,
,,,,,,,,,,601913327bc70701722ecd88,26,Mężczyzna,2022-05-28_09h32.21.444,task,2021.1.4,Win32,60.0240096,628b806c463b948bc644b84f,6291cfa7aca294be982d1238,,,,,,,,,,,xcvmgc,"[""x"",""c"",""v"",""m"",""g"",""c""]","[1.294999999999959,1.5299999999999727,2.5410000000000537,2.9610000000000127,3.3840000000000146,5.033999999999992,5.423000000000002]",0,XCMGVMD,12,0,12,0,1,,,,,,,,,,,,,,,,,,,,,,,,,,,,,,,,,,,,,,,,,,,,,,,,,,,,,,,,,,,,,,,,,,,,,,,,,,,,,,,,,,,
,,,,,,,,,,601913327bc70701722ecd88,26,Mężczyzna,2022-05-28_09h32.21.444,task,2021.1.4,Win32,60.0240096,628b806c463b948bc644b84f,6291cfa7aca294be982d1238,,,,,0,0,0,0,1,"X V Q F H G B L J M P D K C T S W R N Z
",,,,,,,,,,,,,,,,,,,,,,,,,,,,,,,,,,,,,,,,,,,,,,,,,,,,,,,,,,,,,,,,,,,,,,,,,,,,,,,,,,,,,,,,,,,,,
,,,,,,,,,,601913327bc70701722ecd88,26,Mężczyzna,2022-05-28_09h32.21.444,task,2021.1.4,Win32,60.0240096,628b806c463b948bc644b84f,6291cfa7aca294be982d1238,,,,,1,0,1,0,1,"X V Q F H G B L J M P D K C T S W R N Z
",,,,,,,,,,,,,,,,,,,,,,,,,,,,,,,,,,,,,,,,,,,,,,,,,,,,,,,,,,,,,,,,,,,,,,,,,,,,,,,,,,,,,,,,,,,,,
,,,,,,,,,,601913327bc70701722ecd88,26,Mężczyzna,2022-05-28_09h32.21.444,task,2021.1.4,Win32,60.0240096,628b806c463b948bc644b84f,6291cfa7aca294be982d1238,,,,,2,0,2,0,1,"X V Q F H G B L J M P D K C T S W R N Z
",,,,,,,,,,,,,,,,,,,,,,,,,,,,,,,,,,,,,,,,,,,,,,,,,,,,,,,,,,,,,,,,,,,,,,,,,,,,,,,,,,,,,,,,,,,,,
,,,,,,,,,,601913327bc70701722ecd88,26,Mężczyzna,2022-05-28_09h32.21.444,task,2021.1.4,Win32,60.0240096,628b806c463b948bc644b84f,6291cfa7aca294be982d1238,,,,,3,0,3,0,1,"X V Q F H G B L J M P D K C T S W R N Z
",,,,,,,,,,,,,,,,,,,,,,,,,,,,,,,,,,,,,,,,,,,,,,,,,,,,,,,,,,,,,,,,,,,,,,,,,,,,,,,,,,,,,,,,,,,,,
,,,,,,,,,,601913327bc70701722ecd88,26,Mężczyzna,2022-05-28_09h32.21.444,task,2021.1.4,Win32,60.0240096,628b806c463b948bc644b84f,6291cfa7aca294be982d1238,,,,,4,0,4,0,1,"X V Q F H G B L J M P D K C T S W R N Z
",,,,,,,,,,,,,,,,,,,,,,,,,,,,,,,,,,,,,,,,,,,,,,,,,,,,,,,,,,,,,,,,,,,,,,,,,,,,,,,,,,,,,,,,,,,,,
,,,,,,,,,,601913327bc70701722ecd88,26,Mężczyzna,2022-05-28_09h32.21.444,task,2021.1.4,Win32,60.0240096,628b806c463b948bc644b84f,6291cfa7aca294be982d1238,,,,,5,0,5,0,1,"X V Q F H G B L J M P D K C T S W R N Z
",,,,,,,,,,,,,,,,,,,,,,,,,,,,,,,,,,,,,,,,,,,,,,,,,,,,,,,,,,,,,,,,,,,,,,,,,,,,,,,,,,,,,,,,,,,,,
,,,,,,,,,,601913327bc70701722ecd88,26,Mężczyzna,2022-05-28_09h32.21.444,task,2021.1.4,Win32,60.0240096,628b806c463b948bc644b84f,6291cfa7aca294be982d1238,,,,,6,0,6,0,1,"X V Q F H G B L J M P D K C T S W R N Z
",,,,,,,,,,,,,,,,,,,,,,,,,,,,,,,,,,,,,,,,,,,,,,,,,,,,,,,,,,,,,,,,,,,,,,,,,,,,,,,,,,,,,,,,,,,,,
,,,,,,,,,,601913327bc70701722ecd88,26,Mężczyzna,2022-05-28_09h32.21.444,task,2021.1.4,Win32,60.0240096,628b806c463b948bc644b84f,6291cfa7aca294be982d1238,,,,,,,,,,,rrvfprpp,"[""r"",""r"",""v"",""f"",""p"",""r"",""p"",""p""]","[1.2420000000000755,1.4160000000000537,2.1030000000000655,2.475999999999999,3.0160000000000764,4.173999999999978,4.338000000000079,4.937000000000012,5.828000000000088]",0,RRVFPSP,13,0,13,0,1,,,,,,,,,,,,,,,,,,,,,,,,,,,,,,,,,,,,,,,,,,,,,,,,,,,,,,,,,,,,,,,,,,,,,,,,,,,,,,,,,,,
,,,,,,,,,,601913327bc70701722ecd88,26,Mężczyzna,2022-05-28_09h32.21.444,task,2021.1.4,Win32,60.0240096,628b806c463b948bc644b84f,6291cfa7aca294be982d1238,,,,,0,0,0,0,1,"X V Q F H G B L J M P D K C T S W R N Z
",,,,,,,,,,,,,,,,,,,,,,,,,,,,,,,,,,,,,,,,,,,,,,,,,,,,,,,,,,,,,,,,,,,,,,,,,,,,,,,,,,,,,,,,,,,,,
,,,,,,,,,,601913327bc70701722ecd88,26,Mężczyzna,2022-05-28_09h32.21.444,task,2021.1.4,Win32,60.0240096,628b806c463b948bc644b84f,6291cfa7aca294be982d1238,,,,,1,0,1,0,1,"X V Q F H G B L J M P D K C T S W R N Z
",,,,,,,,,,,,,,,,,,,,,,,,,,,,,,,,,,,,,,,,,,,,,,,,,,,,,,,,,,,,,,,,,,,,,,,,,,,,,,,,,,,,,,,,,,,,,
,,,,,,,,,,601913327bc70701722ecd88,26,Mężczyzna,2022-05-28_09h32.21.444,task,2021.1.4,Win32,60.0240096,628b806c463b948bc644b84f,6291cfa7aca294be982d1238,,,,,2,0,2,0,1,"X V Q F H G B L J M P D K C T S W R N Z
",,,,,,,,,,,,,,,,,,,,,,,,,,,,,,,,,,,,,,,,,,,,,,,,,,,,,,,,,,,,,,,,,,,,,,,,,,,,,,,,,,,,,,,,,,,,,
,,,,,,,,,,601913327bc70701722ecd88,26,Mężczyzna,2022-05-28_09h32.21.444,task,2021.1.4,Win32,60.0240096,628b806c463b948bc644b84f,6291cfa7aca294be982d1238,,,,,3,0,3,0,1,"X V Q F H G B L J M P D K C T S W R N Z
",,,,,,,,,,,,,,,,,,,,,,,,,,,,,,,,,,,,,,,,,,,,,,,,,,,,,,,,,,,,,,,,,,,,,,,,,,,,,,,,,,,,,,,,,,,,,
,,,,,,,,,,601913327bc70701722ecd88,26,Mężczyzna,2022-05-28_09h32.21.444,task,2021.1.4,Win32,60.0240096,628b806c463b948bc644b84f,6291cfa7aca294be982d1238,,,,,4,0,4,0,1,"X V Q F H G B L J M P D K C T S W R N Z
",,,,,,,,,,,,,,,,,,,,,,,,,,,,,,,,,,,,,,,,,,,,,,,,,,,,,,,,,,,,,,,,,,,,,,,,,,,,,,,,,,,,,,,,,,,,,
,,,,,,,,,,601913327bc70701722ecd88,26,Mężczyzna,2022-05-28_09h32.21.444,task,2021.1.4,Win32,60.0240096,628b806c463b948bc644b84f,6291cfa7aca294be982d1238,,,,,5,0,5,0,1,"X V Q F H G B L J M P D K C T S W R N Z
",,,,,,,,,,,,,,,,,,,,,,,,,,,,,,,,,,,,,,,,,,,,,,,,,,,,,,,,,,,,,,,,,,,,,,,,,,,,,,,,,,,,,,,,,,,,,
,,,,,,,,,,601913327bc70701722ecd88,26,Mężczyzna,2022-05-28_09h32.21.444,task,2021.1.4,Win32,60.0240096,628b806c463b948bc644b84f,6291cfa7aca294be982d1238,,,,,6,0,6,0,1,"X V Q F H G B L J M P D K C T S W R N Z
",,,,,,,,,,,,,,,,,,,,,,,,,,,,,,,,,,,,,,,,,,,,,,,,,,,,,,,,,,,,,,,,,,,,,,,,,,,,,,,,,,,,,,,,,,,,,
,,,,,,,,,,601913327bc70701722ecd88,26,Mężczyzna,2022-05-28_09h32.21.444,task,2021.1.4,Win32,60.0240096,628b806c463b948bc644b84f,6291cfa7aca294be982d1238,,,,,,,,,,,jfwppqp,"[""j"",""f"",""w"",""p"",""p"",""q"",""p""]","[1.3100000000000591,1.6090000000000373,2.008000000000038,2.4340000000000828,2.816000000000031,3.5289999999999964,3.660000000000082,4.129000000000019]",0,JFWFPPQ,14,0,14,0,1,,,,,,,,,,,,,,,,,,,,,,,,,,,,,,,,,,,,,,,,,,,,,,,,,,,,,,,,,,,,,,,,,,,,,,,,,,,,,,,,,,,
,,,,,,,,,,601913327bc70701722ecd88,26,Mężczyzna,2022-05-28_09h32.21.444,task,2021.1.4,Win32,60.0240096,628b806c463b948bc644b84f,6291cfa7aca294be982d1238,,,,,,,,,,,,,,,,,,,,,space,10.022,0,"[""0""]",1,[9.934000000000083],[9.934000000000083],0,0,0,0,1,Practice,1,(3x3) -  9,0,,,,,,,,,,,,,,,,,,,,,,,,,,,,,,,,,,,,,,,,,,,,,,,,,,,,,,,,,,,,,,,,,,,
,,,,,,,,,,601913327bc70701722ecd88,26,Mężczyzna,2022-05-28_09h32.21.444,task,2021.1.4,Win32,60.0240096,628b806c463b948bc644b84f,6291cfa7aca294be982d1238,,,,,,,,,,,,,,,,,,,,,,,1,"[""1""]",1,[3.284999999999968],"[9.934000000000083,3.284999999999968]",0,1,1,1,1,Practice,2,(4x4) - 15,1,,,,,,,,,,,,,,,,,,,,,,,,,,,,,,,,,,,,,,,,,,,,,,,,,,,,,,,,,,,,,,,,,,,
,,,,,,,,,,601913327bc70701722ecd88,26,Mężczyzna,2022-05-28_09h32.21.444,task,2021.1.4,Win32,60.0240096,628b806c463b948bc644b84f,6291cfa7aca294be982d1238,,,,,,,,,,,,,,,,,,,,,,,2,"[""2""]",1,[2.9549999999999272],"[9.934000000000083,3.284999999999968,2.9549999999999272]",0,2,2,2,1,Practice,3,(4x4) - 14,2,,,,,,,,,,,,,,,,,,,,,,,,,,,,,,,,,,,,,,,,,,,,,,,,,,,,,,,,,,,,,,,,,,,
,,,,,,,,,,601913327bc70701722ecd88,26,Mężczyzna,2022-05-28_09h32.21.444,task,2021.1.4,Win32,60.0240096,628b806c463b948bc644b84f,6291cfa7aca294be982d1238,,,,,,,,,,,,,,,,,,,,,,,6,"[""6""]",1,[3.491999999999962],"[9.934000000000083,3.284999999999968,2.9549999999999272,3.491999999999962]",0,3,3,6,1,Practice,7,(25/5) + 1,6,,,,,,,,,,,,,,,,,,,,,,,,,,,,,,,,,,,,,,,,,,,,,,,,,,,,,,,,,,,,,,,,,,,
,,,,,,,,,,601913327bc70701722ecd88,26,Mężczyzna,2022-05-28_09h32.21.444,task,2021.1.4,Win32,60.0240096,628b806c463b948bc644b84f,6291cfa7aca294be982d1238,,,,,,,,,,,,,,,,,,,,,,,7,"[""7""]",1,[3.0440000000000964],"[9.934000000000083,3.284999999999968,2.9549999999999272,3.491999999999962,3.0440000000000964]",0,4,4,7,1,Practice,8,(5x5) - 18,7,,,,,,,,,,,,,,,,,,,,,,,,,,,,,,,,,,,,,,,,,,,,,,,,,,,,,,,,,,,,,,,,,,,
,,,,,,,,,,601913327bc70701722ecd88,26,Mężczyzna,2022-05-28_09h32.21.444,task,2021.1.4,Win32,60.0240096,628b806c463b948bc644b84f,6291cfa7aca294be982d1238,,,,,,,,,,,,,,,,,,,,,,,8,"[""8""]",1,[2.411000000000058],"[9.934000000000083,3.284999999999968,2.9549999999999272,3.491999999999962,3.0440000000000964,2.411000000000058]",0,5,5,8,1,Practice,9,(3x3) - 1,8,,,,,,,,,,,,,,,,,,,,,,,,,,,,,,,,,,,,,,,,,,,,,,,,,,,,,,,,,,,,,,,,,,,
,,,,,,,,,,601913327bc70701722ecd88,26,Mężczyzna,2022-05-28_09h32.21.444,task,2021.1.4,Win32,60.0240096,628b806c463b948bc644b84f,6291cfa7aca294be982d1238,,,,,,,,,,,,,,,,,,,,,,,4,"[""4""]",1,[2.44399999999996],"[9.934000000000083,3.284999999999968,2.9549999999999272,3.491999999999962,3.0440000000000964,2.411000000000058,2.44399999999996]",0,6,6,4,1,Practice,5,(2x6) - 8,4,,,,,,,,,,,,,,,,,,,,,,,,,,,,,,,,,,,,,,,,,,,,,,,,,,,,,,,,,,,,,,,,,,,
,,,,,,,,,,601913327bc70701722ecd88,26,Mężczyzna,2022-05-28_09h32.21.444,task,2021.1.4,Win32,60.0240096,628b806c463b948bc644b84f,6291cfa7aca294be982d1238,,,,,,,,,,,,,,,,,,,,,,,3,"[""3""]",1,[2.2650000000001],"[9.934000000000083,3.284999999999968,2.9549999999999272,3.491999999999962,3.0440000000000964,2.411000000000058,2.44399999999996,2.2650000000001]",0,7,7,3,1,Practice,4,(8/4) + 1,3,,,,,,,,,,,,,,,,,,,,,,,,,,,,,,,,,,,,,,,,,,,,,,,,,,,,,,,,,,,,,,,,,,,
,,,,,,,,,,601913327bc70701722ecd88,26,Mężczyzna,2022-05-28_09h32.21.444,task,2021.1.4,Win32,60.0240096,628b806c463b948bc644b84f,6291cfa7aca294be982d1238,,,,,,,,,,,,,,,,,,,,,,,9,"[""9""]",1,[3.7200000000000273],"[9.934000000000083,3.284999999999968,2.9549999999999272,3.491999999999962,3.0440000000000964,2.411000000000058,2.44399999999996,2.2650000000001,3.7200000000000273]",0,8,8,9,1,Practice,10,(20/2) - 1,9,,,,,,,,,,,,,,,,,,,,,,,,,,,,,,,,,,,,,,,,,,,,,,,,,,,,,,,,,,,,,,,,,,,
,,,,,,,,,,601913327bc70701722ecd88,26,Mężczyzna,2022-05-28_09h32.21.444,task,2021.1.4,Win32,60.0240096,628b806c463b948bc644b84f,6291cfa7aca294be982d1238,,,,,,,,,,,,,,,,,,,,,,,5,"[""5""]",1,[2.4139999999999873],"[9.934000000000083,3.284999999999968,2.9549999999999272,3.491999999999962,3.0440000000000964,2.411000000000058,2.44399999999996,2.2650000000001,3.7200000000000273,2.4139999999999873]",0,9,9,5,1,Practice,6,(4/2) + 3,5,,,,,,,,,,,,,,,,,,,,,,,,,,,,,,,,,,,,,,,,,,,,,,,,,,,,,,,,,,,,,,,,,,,
,,,,,,,,,,601913327bc70701722ecd88,26,Mężczyzna,2022-05-28_09h32.21.444,task,2021.1.4,Win32,60.0240096,628b806c463b948bc644b84f,6291cfa7aca294be982d1238,,,,,,,,,,,,,,,,,,,,,,,,,,,,,,,,,,,,,1,35.964,2.3976,61.2799688,2.021220239,7.612348216,space,2.044,0,0,0,0,1,,,,,,,,,,,,,,,,,,,,,,,,,,,,,,,,,,,,,,,,,,,,,,,,,,,,,,
,,,,,,,,,,601913327bc70701722ecd88,26,Mężczyzna,2022-05-28_09h32.21.444,task,2021.1.4,Win32,60.0240096,628b806c463b948bc644b84f,6291cfa7aca294be982d1238,,,,,,,,,,,,,,,,,,,,,,,0,,,,,,,,,,Practice,1,(3x3) -  9,0,,,,,,,,,,,,,,space,13.851,"[""0""]",1,[2.73599999999999],1,0,0,0,0,1,,,,,,,,,,,,,,,,,,,,,,,,,,,,,,,,,,,,,,,,,,,
,,,,,,,,,,601913327bc70701722ecd88,26,Mężczyzna,2022-05-28_09h32.21.444,task,2021.1.4,Win32,60.0240096,628b806c463b948bc644b84f,6291cfa7aca294be982d1238,,,,,,,,,,"X V Q F H G B L J M P D K C T S W R N Z
",,,,,,,,,,,,,,,,,,,,,,,,,,,,,,,,,,,,,,,,,,,,,,,,,,,0,0,0,0,1,,,,,,,,,,,,,,,,,,,,,,,,,,,,,,,,,,,,,,
,,,,,,,,,,601913327bc70701722ecd88,26,Mężczyzna,2022-05-28_09h32.21.444,task,2021.1.4,Win32,60.0240096,628b806c463b948bc644b84f,6291cfa7aca294be982d1238,,,,,,,,,,,,,,,,,,,,,,,0,,,,,,,,,,Practice,1,(3x3) -  9,0,,,,,,,,,,,,,,,,"[""0""]",1,[2.6700000000000728],1,0,0,0,0,1,,,,,,,,,,,,,,,,,,,,,,,,,,,,,,,,,,,,,,,,,,,
,,,,,,,,,,601913327bc70701722ecd88,26,Mężczyzna,2022-05-28_09h32.21.444,task,2021.1.4,Win32,60.0240096,628b806c463b948bc644b84f,6291cfa7aca294be982d1238,,,,,,,,,,"X V Q F H G B L J M P D K C T S W R N Z
",,,,,,,,,,,,,,,,,,,,,,,,,,,,,,,,,,,,,,,,,,,,,,,,,,,1,0,1,0,1,,,,,,,,,,,,,,,,,,,,,,,,,,,,,,,,,,,,,,
,,,,,,,,,,601913327bc70701722ecd88,26,Mężczyzna,2022-05-28_09h32.21.444,task,2021.1.4,Win32,60.0240096,628b806c463b948bc644b84f,6291cfa7aca294be982d1238,,,,,,,,,,,,,,,,,,,,,,,,,,,,,,,,,,,,,,,,,,,,,,,,,,,,,,,,,,,,,,,,,,zr,"[""z"",""r""]",0,"[2.691000000000031,2.8010000000000446,3.5939999999999372]",1,0,0,0,0,1,,,,,,,,,,,,,,,,,,,,,,,,,,,,
,,,,,,,,,,601913327bc70701722ecd88,26,Mężczyzna,2022-05-28_09h32.21.444,task,2021.1.4,Win32,60.0240096,628b806c463b948bc644b84f,6291cfa7aca294be982d1238,,,,,,,,,,,,,,,,,,,,,,,1,,,,,,,,,,Practice,2,(4x4) - 15,1,,,,,,,,,,,,,,,,"[""1""]",1,[2.8950000000000955],1,0,0,0,1,1,,,,,,,,,,,,,,,,,,,,,,,,,,,,,,,,,,,,,,,,,,,
,,,,,,,,,,601913327bc70701722ecd88,26,Mężczyzna,2022-05-28_09h32.21.444,task,2021.1.4,Win32,60.0240096,628b806c463b948bc644b84f,6291cfa7aca294be982d1238,,,,,,,,,,"X V Q F H G B L J M P D K C T S W R N Z
",,,,,,,,,,,,,,,,,,,,,,,,,,,,,,,,,,,,,,,,,,,,,,,,,,,0,0,0,0,1,,,,,,,,,,,,,,,,,,,,,,,,,,,,,,,,,,,,,,
,,,,,,,,,,601913327bc70701722ecd88,26,Mężczyzna,2022-05-28_09h32.21.444,task,2021.1.4,Win32,60.0240096,628b806c463b948bc644b84f,6291cfa7aca294be982d1238,,,,,,,,,,,,,,,,,,,,,,,6,,,,,,,,,,Practice,7,(25/5) + 1,6,,,,,,,,,,,,,,,,"[""6""]",1,[2.090000000000032],1,0,0,0,6,1,,,,,,,,,,,,,,,,,,,,,,,,,,,,,,,,,,,,,,,,,,,
,,,,,,,,,,601913327bc70701722ecd88,26,Mężczyzna,2022-05-28_09h32.21.444,task,2021.1.4,Win32,60.0240096,628b806c463b948bc644b84f,6291cfa7aca294be982d1238,,,,,,,,,,"X V Q F H G B L J M P D K C T S W R N Z
",,,,,,,,,,,,,,,,,,,,,,,,,,,,,,,,,,,,,,,,,,,,,,,,,,,1,0,1,0,1,,,,,,,,,,,,,,,,,,,,,,,,,,,,,,,,,,,,,,
,,,,,,,,,,601913327bc70701722ecd88,26,Mężczyzna,2022-05-28_09h32.21.444,task,2021.1.4,Win32,60.0240096,628b806c463b948bc644b84f,6291cfa7aca294be982d1238,,,,,,,,,,,,,,,,,,,,,,,,,,,,,,,,,,,,,,,,,,,,,,,,,,,,,,,,,,,,,,,,,,jv,"[""j"",""v""]",0,"[1.9169999999999163,2.217999999999961,2.742999999999938]",1,1,0,1,0,1,,,,,,,,,,,,,,,,,,,,,,,,,,,,
,,,,,,,,,,601913327bc70701722ecd88,26,Mężczyzna,2022-05-28_09h32.21.444,task,2021.1.4,Win32,60.0240096,628b806c463b948bc644b84f,6291cfa7aca294be982d1238,,,,,,,,,,,,,,,,,,,,,,,6,,,,,,,,,,Practice,7,(25/5) + 1,6,,,,,,,,,,,,,,,,"[""6""]",1,[1.6599999999999682],1,0,0,0,6,1,,,,,,,,,,,,,,,,,,,,,,,,,,,,,,,,,,,,,,,,,,,
,,,,,,,,,,601913327bc70701722ecd88,26,Mężczyzna,2022-05-28_09h32.21.444,task,2021.1.4,Win32,60.0240096,628b806c463b948bc644b84f,6291cfa7aca294be982d1238,,,,,,,,,,"X V Q F H G B L J M P D K C T S W R N Z
",,,,,,,,,,,,,,,,,,,,,,,,,,,,,,,,,,,,,,,,,,,,,,,,,,,0,0,0,0,1,,,,,,,,,,,,,,,,,,,,,,,,,,,,,,,,,,,,,,
,,,,,,,,,,601913327bc70701722ecd88,26,Mężczyzna,2022-05-28_09h32.21.444,task,2021.1.4,Win32,60.0240096,628b806c463b948bc644b84f,6291cfa7aca294be982d1238,,,,,,,,,,,,,,,,,,,,,,,4,,,,,,,,,,Practice,5,(2x6) - 8,4,,,,,,,,,,,,,,,,"[""4""]",1,[2.41599999999994],1,0,0,0,4,1,,,,,,,,,,,,,,,,,,,,,,,,,,,,,,,,,,,,,,,,,,,
,,,,,,,,,,601913327bc70701722ecd88,26,Mężczyzna,2022-05-28_09h32.21.444,task,2021.1.4,Win32,60.0240096,628b806c463b948bc644b84f,6291cfa7aca294be982d1238,,,,,,,,,,"X V Q F H G B L J M P D K C T S W R N Z
",,,,,,,,,,,,,,,,,,,,,,,,,,,,,,,,,,,,,,,,,,,,,,,,,,,1,0,1,0,1,,,,,,,,,,,,,,,,,,,,,,,,,,,,,,,,,,,,,,
,,,,,,,,,,601913327bc70701722ecd88,26,Mężczyzna,2022-05-28_09h32.21.444,task,2021.1.4,Win32,60.0240096,628b806c463b948bc644b84f,6291cfa7aca294be982d1238,,,,,,,,,,,,,,,,,,,,,,,,,,,,,,,,,,,,,,,,,,,,,,,,,,,,,,,,,,,,,,,,,,cf,"[""c"",""f""]",0,"[1.7590000000000146,1.842999999999961,2.730000000000018]",1,2,0,2,0,1,,,,,,,,,,,,,,,,,,,,,,,,,,,,
,,,,,,,,,,601913327bc70701722ecd88,26,Mężczyzna,2022-05-28_09h32.21.444,task,2021.1.4,Win32,60.0240096,628b806c463b948bc644b84f,6291cfa7aca294be982d1238,,,,,,,,,,,,,,,,,,,,,,,7,,,,,,,,,,Task,14,(2x2) + 3,7,,,,,,,,,,,,,,,,,,,1,,,,,,,,,,,,,,,,,,,,,space,14.174,"[""7""]",1,[2.3319999999999936],0,0,0,13,1,,,,,,,,,,,,,,,,,,
,,,,,,,,,,601913327bc70701722ecd88,26,Mężczyzna,2022-05-28_09h32.21.444,task,2021.1.4,Win32,60.0240096,628b806c463b948bc644b84f,6291cfa7aca294be982d1238,,,,,,,,,,"X V Q F H G B L J M P D K C T S W R N Z
",,,,,,,,,,,,,,,,,,,,,,,,,,,,,,,,,,,,,,,,,,,,,,,,,,,,,,,,,,,,,,,,,,,,,,,,,,,,0,0,0,0,1,,,,,,,,,,,,,
,,,,,,,,,,601913327bc70701722ecd88,26,Mężczyzna,2022-05-28_09h32.21.444,task,2021.1.4,Win32,60.0240096,628b806c463b948bc644b84f,6291cfa7aca294be982d1238,,,,,,,,,,,,,,,,,,,,,,,0,,,,,,,,,,Task,25,(10/5) - 2,0,,,,,,,,,,,,,,,,,,,1,,,,,,,,,,,,,,,,,,,,,,,"[""0""]",1,[2.4460000000000264],0,0,0,24,1,,,,,,,,,,,,,,,,,,
,,,,,,,,,,601913327bc70701722ecd88,26,Mężczyzna,2022-05-28_09h32.21.444,task,2021.1.4,Win32,60.0240096,628b806c463b948bc644b84f,6291cfa7aca294be982d1238,,,,,,,,,,"X V Q F H G B L J M P D K C T S W R N Z
",,,,,,,,,,,,,,,,,,,,,,,,,,,,,,,,,,,,,,,,,,,,,,,,,,,,,,,,,,,,,,,,,,,,,,,,,,,,1,0,1,0,1,,,,,,,,,,,,,
,,,,,,,,,,601913327bc70701722ecd88,26,Mężczyzna,2022-05-28_09h32.21.444,task,2021.1.4,Win32,60.0240096,628b806c463b948bc644b84f,6291cfa7aca294be982d1238,,,,,,,,,,,,,,,,,,,,,,,,,,,,,,,,,,,,,,,,,,,,,,,,,,,,,,,,,,,,,,,,,,,,,,,,,,,,,,,,,,,,,,,,,,,zv,"[""z"",""v""]",0,"[1.4239999999999782,2.0359999999999445,2.616999999999962]",1,ZV,0,0,0,0,1,,
,,,,,,,,,,601913327bc70701722ecd88,26,Mężczyzna,2022-05-28_09h32.21.444,task,2021.1.4,Win32,60.0240096,628b806c463b948bc644b84f,6291cfa7aca294be982d1238,,,,,,,,,,,,,,,,,,,,,,,7,,,,,,,,,,Task,38,(4x6) - 17,7,,,,,,,,,,,,,,,,,,,1,,,,,,,,,,,,,,,,,,,,,,,"[""7""]",1,[5.2690000000000055],0,0,0,37,1,,,,,,,,,,,,,,,,,,
,,,,,,,,,,601913327bc70701722ecd88,26,Mężczyzna,2022-05-28_09h32.21.444,task,2021.1.4,Win32,60.0240096,628b806c463b948bc644b84f,6291cfa7aca294be982d1238,,,,,,,,,,"X V Q F H G B L J M P D K C T S W R N Z
",,,,,,,,,,,,,,,,,,,,,,,,,,,,,,,,,,,,,,,,,,,,,,,,,,,,,,,,,,,,,,,,,,,,,,,,,,,,0,0,0,0,1,,,,,,,,,,,,,
,,,,,,,,,,601913327bc70701722ecd88,26,Mężczyzna,2022-05-28_09h32.21.444,task,2021.1.4,Win32,60.0240096,628b806c463b948bc644b84f,6291cfa7aca294be982d1238,,,,,,,,,,,,,,,,,,,,,,,5,,,,,,,,,,Task,29,(3x8) - 19 ,5,,,,,,,,,,,,,,,,,,,1,,,,,,,,,,,,,,,,,,,,,,,"[""5""]",1,[5.907000000000039],0,0,0,28,1,,,,,,,,,,,,,,,,,,
,,,,,,,,,,601913327bc70701722ecd88,26,Mężczyzna,2022-05-28_09h32.21.444,task,2021.1.4,Win32,60.0240096,628b806c463b948bc644b84f,6291cfa7aca294be982d1238,,,,,,,,,,"X V Q F H G B L J M P D K C T S W R N Z
",,,,,,,,,,,,,,,,,,,,,,,,,,,,,,,,,,,,,,,,,,,,,,,,,,,,,,,,,,,,,,,,,,,,,,,,,,,,1,0,1,0,1,,,,,,,,,,,,,
,,,,,,,,,,601913327bc70701722ecd88,26,Mężczyzna,2022-05-28_09h32.21.444,task,2021.1.4,Win32,60.0240096,628b806c463b948bc644b84f,6291cfa7aca294be982d1238,,,,,,,,,,,,,,,,,,,,,,,8,,,,,,,,,,Task,39,(5x3) - 7,8,,,,,,,,,,,,,,,,,,,1,,,,,,,,,,,,,,,,,,,,,,,"[""8""]",1,[4.435000000000059],0,0,0,38,1,,,,,,,,,,,,,,,,,,
,,,,,,,,,,601913327bc70701722ecd88,26,Mężczyzna,2022-05-28_09h32.21.444,task,2021.1.4,Win32,60.0240096,628b806c463b948bc644b84f,6291cfa7aca294be982d1238,,,,,,,,,,"X V Q F H G B L J M P D K C T S W R N Z
",,,,,,,,,,,,,,,,,,,,,,,,,,,,,,,,,,,,,,,,,,,,,,,,,,,,,,,,,,,,,,,,,,,,,,,,,,,,2,0,2,0,1,,,,,,,,,,,,,
,,,,,,,,,,601913327bc70701722ecd88,26,Mężczyzna,2022-05-28_09h32.21.444,task,2021.1.4,Win32,60.0240096,628b806c463b948bc644b84f,6291cfa7aca294be982d1238,,,,,,,,,,,,,,,,,,,,,,,,,,,,,,,,,,,,,,,,,,,,,,,,,,,,,,,,,,,,,,,,,,,,,,,,,,,,,,,,,,,,,,,,,,,cjt,"[""c"",""j"",""t""]",0,"[1.490000000000009,2.033999999999992,2.2759999999999536,2.8279999999999745]",1,CJT,1,0,1,0,1,,
,,,,,,,,,,601913327bc70701722ecd88,26,Mężczyzna,2022-05-28_09h32.21.444,task,2021.1.4,Win32,60.0240096,628b806c463b948bc644b84f,6291cfa7aca294be982d1238,,,,,,,,,,,,,,,,,,,,,,,6,,,,,,,,,,Task,5,(2x3) + 0,6,,,,,,,,,,,,,,,,,,,1,,,,,,,,,,,,,,,,,,,,,,,"[""6""]",1,[3.6299999999999955],0,0,0,4,1,,,,,,,,,,,,,,,,,,
,,,,,,,,,,601913327bc70701722ecd88,26,Mężczyzna,2022-05-28_09h32.21.444,task,2021.1.4,Win32,60.0240096,628b806c463b948bc644b84f,6291cfa7aca294be982d1238,,,,,,,,,,"X V Q F H G B L J M P D K C T S W R N Z
",,,,,,,,,,,,,,,,,,,,,,,,,,,,,,,,,,,,,,,,,,,,,,,,,,,,,,,,,,,,,,,,,,,,,,,,,,,,0,0,0,0,1,,,,,,,,,,,,,
,,,,,,,,,,601913327bc70701722ecd88,26,Mężczyzna,2022-05-28_09h32.21.444,task,2021.1.4,Win32,60.0240096,628b806c463b948bc644b84f,6291cfa7aca294be982d1238,,,,,,,,,,,,,,,,,,,,,,,6,,,,,,,,,,Task,30,(6/3) + 4 ,6,,,,,,,,,,,,,,,,,,,1,,,,,,,,,,,,,,,,,,,,,,,"[""6""]",1,[2.4010000000000673],0,0,0,29,1,,,,,,,,,,,,,,,,,,
,,,,,,,,,,601913327bc70701722ecd88,26,Mężczyzna,2022-05-28_09h32.21.444,task,2021.1.4,Win32,60.0240096,628b806c463b948bc644b84f,6291cfa7aca294be982d1238,,,,,,,,,,"X V Q F H G B L J M P D K C T S W R N Z
",,,,,,,,,,,,,,,,,,,,,,,,,,,,,,,,,,,,,,,,,,,,,,,,,,,,,,,,,,,,,,,,,,,,,,,,,,,,1,0,1,0,1,,,,,,,,,,,,,
,,,,,,,,,,601913327bc70701722ecd88,26,Mężczyzna,2022-05-28_09h32.21.444,task,2021.1.4,Win32,60.0240096,628b806c463b948bc644b84f,6291cfa7aca294be982d1238,,,,,,,,,,,,,,,,,,,,,,,3,,,,,,,,,,Task,35,(1x2) + 1,3,,,,,,,,,,,,,,,,,,,1,,,,,,,,,,,,,,,,,,,,,,,"[""3""]",1,[2.3360000000000127],0,0,0,34,1,,,,,,,,,,,,,,,,,,
,,,,,,,,,,601913327bc70701722ecd88,26,Mężczyzna,2022-05-28_09h32.21.444,task,2021.1.4,Win32,60.0240096,628b806c463b948bc644b84f,6291cfa7aca294be982d1238,,,,,,,,,,"X V Q F H G B L J M P D K C T S W R N Z
",,,,,,,,,,,,,,,,,,,,,,,,,,,,,,,,,,,,,,,,,,,,,,,,,,,,,,,,,,,,,,,,,,,,,,,,,,,,2,0,2,0,1,,,,,,,,,,,,,
,,,,,,,,,,601913327bc70701722ecd88,26,Mężczyzna,2022-05-28_09h32.21.444,task,2021.1.4,Win32,60.0240096,628b806c463b948bc644b84f,6291cfa7aca294be982d1238,,,,,,,,,,,,,,,,,,,,,,,6,,,,,,,,,,Task,30,(6/3) + 4 ,6,,,,,,,,,,,,,,,,,,,1,,,,,,,,,,,,,,,,,,,,,,,"[""6""]",1,[2.6720000000000255],0,0,0,29,1,,,,,,,,,,,,,,,,,,
,,,,,,,,,,601913327bc70701722ecd88,26,Mężczyzna,2022-05-28_09h32.21.444,task,2021.1.4,Win32,60.0240096,628b806c463b948bc644b84f,6291cfa7aca294be982d1238,,,,,,,,,,"X V Q F H G B L J M P D K C T S W R N Z
",,,,,,,,,,,,,,,,,,,,,,,,,,,,,,,,,,,,,,,,,,,,,,,,,,,,,,,,,,,,,,,,,,,,,,,,,,,,3,0,3,0,1,,,,,,,,,,,,,
,,,,,,,,,,601913327bc70701722ecd88,26,Mężczyzna,2022-05-28_09h32.21.444,task,2021.1.4,Win32,60.0240096,628b806c463b948bc644b84f,6291cfa7aca294be982d1238,,,,,,,,,,,,,,,,,,,,,,,,,,,,,,,,,,,,,,,,,,,,,,,,,,,,,,,,,,,,,,,,,,,,,,,,,,,,,,,,,,,,,,,,,,,zqwg,"[""z"",""q"",""w"",""g""]",0,"[1.4620000000001028,1.725999999999999,2.2770000000000437,2.740000000000009,3.5680000000000973]",0,"Z
QWG",2,0,2,0,1,,
,,,,,,,,,,601913327bc70701722ecd88,26,Mężczyzna,2022-05-28_09h32.21.444,task,2021.1.4,Win32,60.0240096,628b806c463b948bc644b84f,6291cfa7aca294be982d1238,,,,,,,,,,,,,,,,,,,,,,,1,,,,,,,,,,Task,12,(4x4) - 11,5,,,,,,,,,,,,,,,,,,,0,,,,,,,,,,,,,,,,,,,,,,,"[""1""]",0,[2.69399999999996],0,0,0,11,1,,,,,,,,,,,,,,,,,,
,,,,,,,,,,601913327bc70701722ecd88,26,Mężczyzna,2022-05-28_09h32.21.444,task,2021.1.4,Win32,60.0240096,628b806c463b948bc644b84f,6291cfa7aca294be982d1238,,,,,,,,,,,,,,,,,,,,,,,5,,,,,,,,,,Task,22,(3x1) + 2,5,,,,,,,,,,,,,,,,,,,1,,,,,,,,,,,,,,,,,,,,,,,"[""5""]",1,[3.9460000000000264],0,1,1,21,1,,,,,,,,,,,,,,,,,,
,,,,,,,,,,601913327bc70701722ecd88,26,Mężczyzna,2022-05-28_09h32.21.444,task,2021.1.4,Win32,60.0240096,628b806c463b948bc644b84f,6291cfa7aca294be982d1238,,,,,,,,,,"X V Q F H G B L J M P D K C T S W R N Z
",,,,,,,,,,,,,,,,,,,,,,,,,,,,,,,,,,,,,,,,,,,,,,,,,,,,,,,,,,,,,,,,,,,,,,,,,,,,0,0,0,0,1,,,,,,,,,,,,,
,,,,,,,,,,601913327bc70701722ecd88,26,Mężczyzna,2022-05-28_09h32.21.444,task,2021.1.4,Win32,60.0240096,628b806c463b948bc644b84f,6291cfa7aca294be982d1238,,,,,,,,,,,,,,,,,,,,,,,5,,,,,,,,,,Task,29,(3x8) - 19 ,5,,,,,,,,,,,,,,,,,,,1,,,,,,,,,,,,,,,,,,,,,,,"[""5""]",1,[2.4329999999999927],0,0,0,28,1,,,,,,,,,,,,,,,,,,
,,,,,,,,,,601913327bc70701722ecd88,26,Mężczyzna,2022-05-28_09h32.21.444,task,2021.1.4,Win32,60.0240096,628b806c463b948bc644b84f,6291cfa7aca294be982d1238,,,,,,,,,,"X V Q F H G B L J M P D K C T S W R N Z
",,,,,,,,,,,,,,,,,,,,,,,,,,,,,,,,,,,,,,,,,,,,,,,,,,,,,,,,,,,,,,,,,,,,,,,,,,,,1,0,1,0,1,,,,,,,,,,,,,
,,,,,,,,,,601913327bc70701722ecd88,26,Mężczyzna,2022-05-28_09h32.21.444,task,2021.1.4,Win32,60.0240096,628b806c463b948bc644b84f,6291cfa7aca294be982d1238,,,,,,,,,,,,,,,,,,,,,,,8,,,,,,,,,,Task,23,(2x3) + 2,8,,,,,,,,,,,,,,,,,,,1,,,,,,,,,,,,,,,,,,,,,,,"[""8""]",1,[2.3319999999999936],0,0,0,22,1,,,,,,,,,,,,,,,,,,
,,,,,,,,,,601913327bc70701722ecd88,26,Mężczyzna,2022-05-28_09h32.21.444,task,2021.1.4,Win32,60.0240096,628b806c463b948bc644b84f,6291cfa7aca294be982d1238,,,,,,,,,,"X V Q F H G B L J M P D K C T S W R N Z
",,,,,,,,,,,,,,,,,,,,,,,,,,,,,,,,,,,,,,,,,,,,,,,,,,,,,,,,,,,,,,,,,,,,,,,,,,,,2,0,2,0,1,,,,,,,,,,,,,
,,,,,,,,,,601913327bc70701722ecd88,26,Mężczyzna,2022-05-28_09h32.21.444,task,2021.1.4,Win32,60.0240096,628b806c463b948bc644b84f,6291cfa7aca294be982d1238,,,,,,,,,,,,,,,,,,,,,,,2,,,,,,,,,,Task,26,(2x9) - 16,2,,,,,,,,,,,,,,,,,,,1,,,,,,,,,,,,,,,,,,,,,,,"[""2""]",1,[3.949999999999932],0,0,0,25,1,,,,,,,,,,,,,,,,,,
,,,,,,,,,,601913327bc70701722ecd88,26,Mężczyzna,2022-05-28_09h32.21.444,task,2021.1.4,Win32,60.0240096,628b806c463b948bc644b84f,6291cfa7aca294be982d1238,,,,,,,,,,"X V Q F H G B L J M P D K C T S W R N Z
",,,,,,,,,,,,,,,,,,,,,,,,,,,,,,,,,,,,,,,,,,,,,,,,,,,,,,,,,,,,,,,,,,,,,,,,,,,,3,0,3,0,1,,,,,,,,,,,,,
,,,,,,,,,,601913327bc70701722ecd88,26,Mężczyzna,2022-05-28_09h32.21.444,task,2021.1.4,Win32,60.0240096,628b806c463b948bc644b84f,6291cfa7aca294be982d1238,,,,,,,,,,,,,,,,,,,,,,,,,,,,,,,,,,,,,,,,,,,,,,,,,,,,,,,,,,,,,,,,,,,,,,,,,,,,,,,,,,,,,,,,,,,bkdc,"[""b"",""k"",""d"",""c""]",0,"[1.8179999999999836,2.3059999999999263,3.467999999999961,3.814999999999941,5.793999999999983]",1,BKDC,3,0,3,0,1,,
,,,,,,,,,,601913327bc70701722ecd88,26,Mężczyzna,2022-05-28_09h32.21.444,task,2021.1.4,Win32,60.0240096,628b806c463b948bc644b84f,6291cfa7aca294be982d1238,,,,,,,,,,,,,,,,,,,,,,,5,,,,,,,,,,Task,22,(3x1) + 2,5,,,,,,,,,,,,,,,,,,,1,,,,,,,,,,,,,,,,,,,,,,,"[""5""]",1,[2.0190000000000055],0,0,0,21,1,,,,,,,,,,,,,,,,,,
,,,,,,,,,,601913327bc70701722ecd88,26,Mężczyzna,2022-05-28_09h32.21.444,task,2021.1.4,Win32,60.0240096,628b806c463b948bc644b84f,6291cfa7aca294be982d1238,,,,,,,,,,"X V Q F H G B L J M P D K C T S W R N Z
",,,,,,,,,,,,,,,,,,,,,,,,,,,,,,,,,,,,,,,,,,,,,,,,,,,,,,,,,,,,,,,,,,,,,,,,,,,,0,0,0,0,1,,,,,,,,,,,,,
,,,,,,,,,,601913327bc70701722ecd88,26,Mężczyzna,2022-05-28_09h32.21.444,task,2021.1.4,Win32,60.0240096,628b806c463b948bc644b84f,6291cfa7aca294be982d1238,,,,,,,,,,,,,,,,,,,,,,,9,,,,,,,,,,Task,40,(7x2) - 5,9,,,,,,,,,,,,,,,,,,,1,,,,,,,,,,,,,,,,,,,,,,,"[""9""]",1,[2.634999999999991],0,0,0,39,1,,,,,,,,,,,,,,,,,,
,,,,,,,,,,601913327bc70701722ecd88,26,Mężczyzna,2022-05-28_09h32.21.444,task,2021.1.4,Win32,60.0240096,628b806c463b948bc644b84f,6291cfa7aca294be982d1238,,,,,,,,,,"X V Q F H G B L J M P D K C T S W R N Z
",,,,,,,,,,,,,,,,,,,,,,,,,,,,,,,,,,,,,,,,,,,,,,,,,,,,,,,,,,,,,,,,,,,,,,,,,,,,1,0,1,0,1,,,,,,,,,,,,,
,,,,,,,,,,601913327bc70701722ecd88,26,Mężczyzna,2022-05-28_09h32.21.444,task,2021.1.4,Win32,60.0240096,628b806c463b948bc644b84f,6291cfa7aca294be982d1238,,,,,,,,,,,,,,,,,,,,,,,8,,,,,,,,,,Task,15,(3x7) - 13,8,,,,,,,,,,,,,,,,,,,1,,,,,,,,,,,,,,,,,,,,,,,"[""8""]",1,[3.816000000000031],0,0,0,14,1,,,,,,,,,,,,,,,,,,
,,,,,,,,,,601913327bc70701722ecd88,26,Mężczyzna,2022-05-28_09h32.21.444,task,2021.1.4,Win32,60.0240096,628b806c463b948bc644b84f,6291cfa7aca294be982d1238,,,,,,,,,,"X V Q F H G B L J M P D K C T S W R N Z
",,,,,,,,,,,,,,,,,,,,,,,,,,,,,,,,,,,,,,,,,,,,,,,,,,,,,,,,,,,,,,,,,,,,,,,,,,,,2,0,2,0,1,,,,,,,,,,,,,
,,,,,,,,,,601913327bc70701722ecd88,26,Mężczyzna,2022-05-28_09h32.21.444,task,2021.1.4,Win32,60.0240096,628b806c463b948bc644b84f,6291cfa7aca294be982d1238,,,,,,,,,,,,,,,,,,,,,,,1,,,,,,,,,,Task,9,(3x7) - 20,1,,,,,,,,,,,,,,,,,,,1,,,,,,,,,,,,,,,,,,,,,,,"[""1""]",1,[6.90300000000002],0,0,0,8,1,,,,,,,,,,,,,,,,,,
,,,,,,,,,,601913327bc70701722ecd88,26,Mężczyzna,2022-05-28_09h32.21.444,task,2021.1.4,Win32,60.0240096,628b806c463b948bc644b84f,6291cfa7aca294be982d1238,,,,,,,,,,"X V Q F H G B L J M P D K C T S W R N Z
",,,,,,,,,,,,,,,,,,,,,,,,,,,,,,,,,,,,,,,,,,,,,,,,,,,,,,,,,,,,,,,,,,,,,,,,,,,,3,0,3,0,1,,,,,,,,,,,,,
,,,,,,,,,,601913327bc70701722ecd88,26,Mężczyzna,2022-05-28_09h32.21.444,task,2021.1.4,Win32,60.0240096,628b806c463b948bc644b84f,6291cfa7aca294be982d1238,,,,,,,,,,,,,,,,,,,,,,,9,,,,,,,,,,Task,24,(2x2) + 5,9,,,,,,,,,,,,,,,,,,,1,,,,,,,,,,,,,,,,,,,,,,,"[""9""]",1,[3.076000000000022],0,0,0,23,1,,,,,,,,,,,,,,,,,,
,,,,,,,,,,601913327bc70701722ecd88,26,Mężczyzna,2022-05-28_09h32.21.444,task,2021.1.4,Win32,60.0240096,628b806c463b948bc644b84f,6291cfa7aca294be982d1238,,,,,,,,,,"X V Q F H G B L J M P D K C T S W R N Z
",,,,,,,,,,,,,,,,,,,,,,,,,,,,,,,,,,,,,,,,,,,,,,,,,,,,,,,,,,,,,,,,,,,,,,,,,,,,4,0,4,0,1,,,,,,,,,,,,,
,,,,,,,,,,601913327bc70701722ecd88,26,Mężczyzna,2022-05-28_09h32.21.444,task,2021.1.4,Win32,60.0240096,628b806c463b948bc644b84f,6291cfa7aca294be982d1238,,,,,,,,,,,,,,,,,,,,,,,,,,,,,,,,,,,,,,,,,,,,,,,,,,,,,,,,,,,,,,,,,,,,,,,,,,,,,,,,,,,,,,,,,,,xjntl,"[""x"",""j"",""n"",""t"",""l""]",0,"[1.5510000000000446,2.1440000000000055,2.6510000000000673,3.173000000000002,3.6960000000000264,5.085000000000036]",1,XJNTL,4,0,4,0,1,,
,,,,,,,,,,601913327bc70701722ecd88,26,Mężczyzna,2022-05-28_09h32.21.444,task,2021.1.4,Win32,60.0240096,628b806c463b948bc644b84f,6291cfa7aca294be982d1238,,,,,,,,,,,,,,,,,,,,,,,7,,,,,,,,,,Task,14,(2x2) + 3,7,,,,,,,,,,,,,,,,,,,1,,,,,,,,,,,,,,,,,,,,,,,"[""7""]",1,[3.2799999999999727],0,0,0,13,1,,,,,,,,,,,,,,,,,,
,,,,,,,,,,601913327bc70701722ecd88,26,Mężczyzna,2022-05-28_09h32.21.444,task,2021.1.4,Win32,60.0240096,628b806c463b948bc644b84f,6291cfa7aca294be982d1238,,,,,,,,,,"X V Q F H G B L J M P D K C T S W R N Z
",,,,,,,,,,,,,,,,,,,,,,,,,,,,,,,,,,,,,,,,,,,,,,,,,,,,,,,,,,,,,,,,,,,,,,,,,,,,0,0,0,0,1,,,,,,,,,,,,,
,,,,,,,,,,601913327bc70701722ecd88,26,Mężczyzna,2022-05-28_09h32.21.444,task,2021.1.4,Win32,60.0240096,628b806c463b948bc644b84f,6291cfa7aca294be982d1238,,,,,,,,,,,,,,,,,,,,,,,5,,,,,,,,,,Task,22,(3x1) + 2,5,,,,,,,,,,,,,,,,,,,1,,,,,,,,,,,,,,,,,,,,,,,"[""5""]",1,[1.8419999999999845],0,0,0,21,1,,,,,,,,,,,,,,,,,,
,,,,,,,,,,601913327bc70701722ecd88,26,Mężczyzna,2022-05-28_09h32.21.444,task,2021.1.4,Win32,60.0240096,628b806c463b948bc644b84f,6291cfa7aca294be982d1238,,,,,,,,,,"X V Q F H G B L J M P D K C T S W R N Z
",,,,,,,,,,,,,,,,,,,,,,,,,,,,,,,,,,,,,,,,,,,,,,,,,,,,,,,,,,,,,,,,,,,,,,,,,,,,1,0,1,0,1,,,,,,,,,,,,,
,,,,,,,,,,601913327bc70701722ecd88,26,Mężczyzna,2022-05-28_09h32.21.444,task,2021.1.4,Win32,60.0240096,628b806c463b948bc644b84f,6291cfa7aca294be982d1238,,,,,,,,,,,,,,,,,,,,,,,1,,,,,,,,,,Task,18,(16/4) - 3,1,,,,,,,,,,,,,,,,,,,1,,,,,,,,,,,,,,,,,,,,,,,"[""1""]",1,[3.5960000000000036],0,0,0,17,1,,,,,,,,,,,,,,,,,,
,,,,,,,,,,601913327bc70701722ecd88,26,Mężczyzna,2022-05-28_09h32.21.444,task,2021.1.4,Win32,60.0240096,628b806c463b948bc644b84f,6291cfa7aca294be982d1238,,,,,,,,,,"X V Q F H G B L J M P D K C T S W R N Z
",,,,,,,,,,,,,,,,,,,,,,,,,,,,,,,,,,,,,,,,,,,,,,,,,,,,,,,,,,,,,,,,,,,,,,,,,,,,2,0,2,0,1,,,,,,,,,,,,,
,,,,,,,,,,601913327bc70701722ecd88,26,Mężczyzna,2022-05-28_09h32.21.444,task,2021.1.4,Win32,60.0240096,628b806c463b948bc644b84f,6291cfa7aca294be982d1238,,,,,,,,,,,,,,,,,,,,,,,3,,,,,,,,,,Task,27,(3/3) + 2,3,,,,,,,,,,,,,,,,,,,1,,,,,,,,,,,,,,,,,,,,,,,"[""3""]",1,[2.322999999999979],0,0,0,26,1,,,,,,,,,,,,,,,,,,
,,,,,,,,,,601913327bc70701722ecd88,26,Mężczyzna,2022-05-28_09h32.21.444,task,2021.1.4,Win32,60.0240096,628b806c463b948bc644b84f,6291cfa7aca294be982d1238,,,,,,,,,,"X V Q F H G B L J M P D K C T S W R N Z
",,,,,,,,,,,,,,,,,,,,,,,,,,,,,,,,,,,,,,,,,,,,,,,,,,,,,,,,,,,,,,,,,,,,,,,,,,,,3,0,3,0,1,,,,,,,,,,,,,
,,,,,,,,,,601913327bc70701722ecd88,26,Mężczyzna,2022-05-28_09h32.21.444,task,2021.1.4,Win32,60.0240096,628b806c463b948bc644b84f,6291cfa7aca294be982d1238,,,,,,,,,,,,,,,,,,,,,,,3,,,,,,,,,,Task,35,(1x2) + 1,3,,,,,,,,,,,,,,,,,,,1,,,,,,,,,,,,,,,,,,,,,,,"[""3""]",1,[2.242999999999938],0,0,0,34,1,,,,,,,,,,,,,,,,,,
,,,,,,,,,,601913327bc70701722ecd88,26,Mężczyzna,2022-05-28_09h32.21.444,task,2021.1.4,Win32,60.0240096,628b806c463b948bc644b84f,6291cfa7aca294be982d1238,,,,,,,,,,"X V Q F H G B L J M P D K C T S W R N Z
",,,,,,,,,,,,,,,,,,,,,,,,,,,,,,,,,,,,,,,,,,,,,,,,,,,,,,,,,,,,,,,,,,,,,,,,,,,,4,0,4,0,1,,,,,,,,,,,,,
,,,,,,,,,,601913327bc70701722ecd88,26,Mężczyzna,2022-05-28_09h32.21.444,task,2021.1.4,Win32,60.0240096,628b806c463b948bc644b84f,6291cfa7aca294be982d1238,,,,,,,,,,,,,,,,,,,,,,,6,,,,,,,,,,Task,37,(3/3) + 5,6,,,,,,,,,,,,,,,,,,,1,,,,,,,,,,,,,,,,,,,,,,,"[""6""]",1,[2.9840000000000373],0,0,0,36,1,,,,,,,,,,,,,,,,,,
,,,,,,,,,,601913327bc70701722ecd88,26,Mężczyzna,2022-05-28_09h32.21.444,task,2021.1.4,Win32,60.0240096,628b806c463b948bc644b84f,6291cfa7aca294be982d1238,,,,,,,,,,"X V Q F H G B L J M P D K C T S W R N Z
",,,,,,,,,,,,,,,,,,,,,,,,,,,,,,,,,,,,,,,,,,,,,,,,,,,,,,,,,,,,,,,,,,,,,,,,,,,,5,0,5,0,1,,,,,,,,,,,,,
,,,,,,,,,,601913327bc70701722ecd88,26,Mężczyzna,2022-05-28_09h32.21.444,task,2021.1.4,Win32,60.0240096,628b806c463b948bc644b84f,6291cfa7aca294be982d1238,,,,,,,,,,,,,,,,,,,,,,,,,,,,,,,,,,,,,,,,,,,,,,,,,,,,,,,,,,,,,,,,,,,,,,,,,,,,,,,,,,,,,,,,,,,csvvlz,"[""c"",""s"",""v"",""v"",""l"",""z""]",0,"[1.6510000000000673,1.88900000000001,2.25,2.41700000000003,2.9669999999999845,3.4010000000000673,4.532000000000039]",0,"CSVVLZ
",5,0,5,0,1,,
,,,,,,,,,,601913327bc70701722ecd88,26,Mężczyzna,2022-05-28_09h32.21.444,task,2021.1.4,Win32,60.0240096,628b806c463b948bc644b84f,6291cfa7aca294be982d1238,,,,,,,,,,,,,,,,,,,,,,,2,,,,,,,,,,Task,10,(2x5) - 8,2,,,,,,,,,,,,,,,,,,,1,,,,,,,,,,,,,,,,,,,,,,,"[""2""]",1,[1.8949999999999818],0,0,0,9,1,,,,,,,,,,,,,,,,,,
,,,,,,,,,,601913327bc70701722ecd88,26,Mężczyzna,2022-05-28_09h32.21.444,task,2021.1.4,Win32,60.0240096,628b806c463b948bc644b84f,6291cfa7aca294be982d1238,,,,,,,,,,"X V Q F H G B L J M P D K C T S W R N Z
",,,,,,,,,,,,,,,,,,,,,,,,,,,,,,,,,,,,,,,,,,,,,,,,,,,,,,,,,,,,,,,,,,,,,,,,,,,,0,0,0,0,1,,,,,,,,,,,,,
,,,,,,,,,,601913327bc70701722ecd88,26,Mężczyzna,2022-05-28_09h32.21.444,task,2021.1.4,Win32,60.0240096,628b806c463b948bc644b84f,6291cfa7aca294be982d1238,,,,,,,,,,,,,,,,,,,,,,,3,,,,,,,,,,Task,20,(18/9) + 1,3,,,,,,,,,,,,,,,,,,,1,,,,,,,,,,,,,,,,,,,,,,,"[""3""]",1,[2.149000000000001],0,0,0,19,1,,,,,,,,,,,,,,,,,,
,,,,,,,,,,601913327bc70701722ecd88,26,Mężczyzna,2022-05-28_09h32.21.444,task,2021.1.4,Win32,60.0240096,628b806c463b948bc644b84f,6291cfa7aca294be982d1238,,,,,,,,,,"X V Q F H G B L J M P D K C T S W R N Z
",,,,,,,,,,,,,,,,,,,,,,,,,,,,,,,,,,,,,,,,,,,,,,,,,,,,,,,,,,,,,,,,,,,,,,,,,,,,1,0,1,0,1,,,,,,,,,,,,,
,,,,,,,,,,601913327bc70701722ecd88,26,Mężczyzna,2022-05-28_09h32.21.444,task,2021.1.4,Win32,60.0240096,628b806c463b948bc644b84f,6291cfa7aca294be982d1238,,,,,,,,,,,,,,,,,,,,,,,5,,,,,,,,,,Task,12,(4x4) - 11,5,,,,,,,,,,,,,,,,,,,1,,,,,,,,,,,,,,,,,,,,,,,"[""5""]",1,[3.5190000000000055],0,0,0,11,1,,,,,,,,,,,,,,,,,,
,,,,,,,,,,601913327bc70701722ecd88,26,Mężczyzna,2022-05-28_09h32.21.444,task,2021.1.4,Win32,60.0240096,628b806c463b948bc644b84f,6291cfa7aca294be982d1238,,,,,,,,,,"X V Q F H G B L J M P D K C T S W R N Z
",,,,,,,,,,,,,,,,,,,,,,,,,,,,,,,,,,,,,,,,,,,,,,,,,,,,,,,,,,,,,,,,,,,,,,,,,,,,2,0,2,0,1,,,,,,,,,,,,,
,,,,,,,,,,601913327bc70701722ecd88,26,Mężczyzna,2022-05-28_09h32.21.444,task,2021.1.4,Win32,60.0240096,628b806c463b948bc644b84f,6291cfa7aca294be982d1238,,,,,,,,,,,,,,,,,,,,,,,4,,,,,,,,,,Task,4,(1x5) - 1,4,,,,,,,,,,,,,,,,,,,1,,,,,,,,,,,,,,,,,,,,,,,"[""4""]",1,[2.0190000000000055],0,0,0,3,1,,,,,,,,,,,,,,,,,,
,,,,,,,,,,601913327bc70701722ecd88,26,Mężczyzna,2022-05-28_09h32.21.444,task,2021.1.4,Win32,60.0240096,628b806c463b948bc644b84f,6291cfa7aca294be982d1238,,,,,,,,,,"X V Q F H G B L J M P D K C T S W R N Z
",,,,,,,,,,,,,,,,,,,,,,,,,,,,,,,,,,,,,,,,,,,,,,,,,,,,,,,,,,,,,,,,,,,,,,,,,,,,3,0,3,0,1,,,,,,,,,,,,,
,,,,,,,,,,601913327bc70701722ecd88,26,Mężczyzna,2022-05-28_09h32.21.444,task,2021.1.4,Win32,60.0240096,628b806c463b948bc644b84f,6291cfa7aca294be982d1238,,,,,,,,,,,,,,,,,,,,,,,0,,,,,,,,,,Task,33,(1/1) - 1,0,,,,,,,,,,,,,,,,,,,1,,,,,,,,,,,,,,,,,,,,,,,"[""0""]",1,[3.046000000000049],0,0,0,32,1,,,,,,,,,,,,,,,,,,
,,,,,,,,,,601913327bc70701722ecd88,26,Mężczyzna,2022-05-28_09h32.21.444,task,2021.1.4,Win32,60.0240096,628b806c463b948bc644b84f,6291cfa7aca294be982d1238,,,,,,,,,,"X V Q F H G B L J M P D K C T S W R N Z
",,,,,,,,,,,,,,,,,,,,,,,,,,,,,,,,,,,,,,,,,,,,,,,,,,,,,,,,,,,,,,,,,,,,,,,,,,,,4,0,4,0,1,,,,,,,,,,,,,
,,,,,,,,,,601913327bc70701722ecd88,26,Mężczyzna,2022-05-28_09h32.21.444,task,2021.1.4,Win32,60.0240096,628b806c463b948bc644b84f,6291cfa7aca294be982d1238,,,,,,,,,,,,,,,,,,,,,,,0,,,,,,,,,,Task,25,(10/5) - 2,0,,,,,,,,,,,,,,,,,,,1,,,,,,,,,,,,,,,,,,,,,,,"[""0""]",1,[4.043999999999983],0,0,0,24,1,,,,,,,,,,,,,,,,,,
,,,,,,,,,,601913327bc70701722ecd88,26,Mężczyzna,2022-05-28_09h32.21.444,task,2021.1.4,Win32,60.0240096,628b806c463b948bc644b84f,6291cfa7aca294be982d1238,,,,,,,,,,"X V Q F H G B L J M P D K C T S W R N Z
",,,,,,,,,,,,,,,,,,,,,,,,,,,,,,,,,,,,,,,,,,,,,,,,,,,,,,,,,,,,,,,,,,,,,,,,,,,,5,0,5,0,1,,,,,,,,,,,,,
,,,,,,,,,,601913327bc70701722ecd88,26,Mężczyzna,2022-05-28_09h32.21.444,task,2021.1.4,Win32,60.0240096,628b806c463b948bc644b84f,6291cfa7aca294be982d1238,,,,,,,,,,,,,,,,,,,,,,,,,,,,,,,,,,,,,,,,,,,,,,,,,,,,,,,,,,,,,,,,,,,,,,,,,,,,,,,,,,,,,,,,,,,dfjfnw,"[""d"",""f"",""j"",""f"",""n"",""w""]",0,"[1.7579999999999245,2.0739999999999554,2.613999999999919,3.1299999999999955,3.669999999999959,4.125999999999976,5.626999999999953]",1,DFJFNW,6,0,6,0,1,,
,,,,,,,,,,601913327bc70701722ecd88,26,Mężczyzna,2022-05-28_09h32.21.444,task,2021.1.4,Win32,60.0240096,628b806c463b948bc644b84f,6291cfa7aca294be982d1238,,,,,,,,,,,,,,,,,,,,,,,1,,,,,,,,,,Task,34,(9/3) - 2,1,,,,,,,,,,,,,,,,,,,1,,,,,,,,,,,,,,,,,,,,,,,"[""1""]",1,[3.033999999999992],0,0,0,33,1,,,,,,,,,,,,,,,,,,
,,,,,,,,,,601913327bc70701722ecd88,26,Mężczyzna,2022-05-28_09h32.21.444,task,2021.1.4,Win32,60.0240096,628b806c463b948bc644b84f,6291cfa7aca294be982d1238,,,,,,,,,,"X V Q F H G B L J M P D K C T S W R N Z
",,,,,,,,,,,,,,,,,,,,,,,,,,,,,,,,,,,,,,,,,,,,,,,,,,,,,,,,,,,,,,,,,,,,,,,,,,,,0,0,0,0,1,,,,,,,,,,,,,
,,,,,,,,,,601913327bc70701722ecd88,26,Mężczyzna,2022-05-28_09h32.21.444,task,2021.1.4,Win32,60.0240096,628b806c463b948bc644b84f,6291cfa7aca294be982d1238,,,,,,,,,,,,,,,,,,,,,,,2,,,,,,,,,,Task,19,(6/2) - 1,2,,,,,,,,,,,,,,,,,,,1,,,,,,,,,,,,,,,,,,,,,,,"[""2""]",1,[2.240000000000009],0,0,0,18,1,,,,,,,,,,,,,,,,,,
,,,,,,,,,,601913327bc70701722ecd88,26,Mężczyzna,2022-05-28_09h32.21.444,task,2021.1.4,Win32,60.0240096,628b806c463b948bc644b84f,6291cfa7aca294be982d1238,,,,,,,,,,"X V Q F H G B L J M P D K C T S W R N Z
",,,,,,,,,,,,,,,,,,,,,,,,,,,,,,,,,,,,,,,,,,,,,,,,,,,,,,,,,,,,,,,,,,,,,,,,,,,,1,0,1,0,1,,,,,,,,,,,,,
,,,,,,,,,,601913327bc70701722ecd88,26,Mężczyzna,2022-05-28_09h32.21.444,task,2021.1.4,Win32,60.0240096,628b806c463b948bc644b84f,6291cfa7aca294be982d1238,,,,,,,,,,,,,,,,,,,,,,,2,,,,,,,,,,Task,26,(2x9) - 16,2,,,,,,,,,,,,,,,,,,,1,,,,,,,,,,,,,,,,,,,,,,,"[""2""]",1,[3.2089999999999463],0,0,0,25,1,,,,,,,,,,,,,,,,,,
,,,,,,,,,,601913327bc70701722ecd88,26,Mężczyzna,2022-05-28_09h32.21.444,task,2021.1.4,Win32,60.0240096,628b806c463b948bc644b84f,6291cfa7aca294be982d1238,,,,,,,,,,"X V Q F H G B L J M P D K C T S W R N Z
",,,,,,,,,,,,,,,,,,,,,,,,,,,,,,,,,,,,,,,,,,,,,,,,,,,,,,,,,,,,,,,,,,,,,,,,,,,,2,0,2,0,1,,,,,,,,,,,,,
,,,,,,,,,,601913327bc70701722ecd88,26,Mężczyzna,2022-05-28_09h32.21.444,task,2021.1.4,Win32,60.0240096,628b806c463b948bc644b84f,6291cfa7aca294be982d1238,,,,,,,,,,,,,,,,,,,,,,,2,,,,,,,,,,Task,2,(2x2) - 2,2,,,,,,,,,,,,,,,,,,,1,,,,,,,,,,,,,,,,,,,,,,,"[""2""]",1,[2.4039999999999964],0,0,0,1,1,,,,,,,,,,,,,,,,,,
,,,,,,,,,,601913327bc70701722ecd88,26,Mężczyzna,2022-05-28_09h32.21.444,task,2021.1.4,Win32,60.0240096,628b806c463b948bc644b84f,6291cfa7aca294be982d1238,,,,,,,,,,"X V Q F H G B L J M P D K C T S W R N Z
",,,,,,,,,,,,,,,,,,,,,,,,,,,,,,,,,,,,,,,,,,,,,,,,,,,,,,,,,,,,,,,,,,,,,,,,,,,,3,0,3,0,1,,,,,,,,,,,,,
,,,,,,,,,,601913327bc70701722ecd88,26,Mężczyzna,2022-05-28_09h32.21.444,task,2021.1.4,Win32,60.0240096,628b806c463b948bc644b84f,6291cfa7aca294be982d1238,,,,,,,,,,,,,,,,,,,,,,,7,,,,,,,,,,Task,14,(2x2) + 3,7,,,,,,,,,,,,,,,,,,,1,,,,,,,,,,,,,,,,,,,,,,,"[""7""]",1,[3.0559999999999263],0,0,0,13,1,,,,,,,,,,,,,,,,,,
,,,,,,,,,,601913327bc70701722ecd88,26,Mężczyzna,2022-05-28_09h32.21.444,task,2021.1.4,Win32,60.0240096,628b806c463b948bc644b84f,6291cfa7aca294be982d1238,,,,,,,,,,"X V Q F H G B L J M P D K C T S W R N Z
",,,,,,,,,,,,,,,,,,,,,,,,,,,,,,,,,,,,,,,,,,,,,,,,,,,,,,,,,,,,,,,,,,,,,,,,,,,,4,0,4,0,1,,,,,,,,,,,,,
,,,,,,,,,,601913327bc70701722ecd88,26,Mężczyzna,2022-05-28_09h32.21.444,task,2021.1.4,Win32,60.0240096,628b806c463b948bc644b84f,6291cfa7aca294be982d1238,,,,,,,,,,,,,,,,,,,,,,,9,,,,,,,,,,Task,7,(3x7) - 12,9,,,,,,,,,,,,,,,,,,,1,,,,,,,,,,,,,,,,,,,,,,,"[""9""]",1,[5.11099999999999],0,0,0,6,1,,,,,,,,,,,,,,,,,,
