key_resp_15.keys,key_resp_15.rt,key_resp_13.keys,key_resp_13.corr,key_resp_13.rt,ranodm_loop.thisRepN,ranodm_loop.thisTrialN,ranodm_loop.thisN,ranodm_loop.thisIndex,ranodm_loop.ran,participant,Wiek*,Płeć,date,expName,psychopyVersion,OS,frameRate,study_id,session,key_resp_16.keys,key_resp_16.rt,key_resp_4.keys,key_resp_4.rt,next_letter.thisRepN,next_letter.thisTrialN,next_letter.thisN,next_letter.thisIndex,next_letter.ran,letter,simple_recall,key_resp_5.keys,key_resp_5.rt,simple_recall_corr,simple_recall_corrkeys,next_level.thisRepN,next_level.thisTrialN,next_level.thisN,next_level.thisIndex,next_level.ran,key_resp_2.keys,key_resp_2.rt,digit_answer,key_resp.keys,key_resp.corr,key_resp.rt,RT_list,next_equation.thisRepN,next_equation.thisTrialN,next_equation.thisN,next_equation.thisIndex,next_equation.ran,Task,Trial,Problem,Operation_answer,processing_score,sumRT,meanRT,sumdiff,sd,RT,key_resp_3.keys,key_resp_3.rt,repeat_practice.thisRepN,repeat_practice.thisTrialN,repeat_practice.thisN,repeat_practice.thisIndex,repeat_practice.ran,key_resp_6.keys,key_resp_6.rt,key_resp_11.keys,key_resp_11.corr,key_resp_11.rt,operation_correct,repeat_if_wrong_prac.thisRepN,repeat_if_wrong_prac.thisTrialN,repeat_if_wrong_prac.thisN,repeat_if_wrong_prac.thisIndex,repeat_if_wrong_prac.ran,span_size_prac.thisRepN,span_size_prac.thisTrialN,span_size_prac.thisN,span_size_prac.thisIndex,span_size_prac.ran,complex_recall_practice,key_resp_9.keys,key_resp_9.corr,key_resp_9.rt,complex_prac_corr,span_recall_prac.thisRepN,span_recall_prac.thisTrialN,span_recall_prac.thisN,span_recall_prac.thisIndex,span_recall_prac.ran,key_resp_10.keys,key_resp_10.rt,key_resp_7.keys,key_resp_7.corr,key_resp_7.rt,repeat_if_wrong.thisRepN,repeat_if_wrong.thisTrialN,repeat_if_wrong.thisN,repeat_if_wrong.thisIndex,repeat_if_wrong.ran,span_size.thisRepN,span_size.thisTrialN,span_size.thisN,span_size.thisIndex,span_size.ran,complex_recall,key_resp_8.keys,key_resp_8.corr,key_resp_8.rt,complex_recall_corr,complex_recall_corrkeys,span_recall.thisRepN,span_recall.thisTrialN,span_recall.thisN,span_recall.thisIndex,span_recall.ran,key_resp_12.keys,key_resp_12.rt
space,21.9565,"[""comma""]",0,[1.1754000000003657],0,0,0,0,1,60196cc05e7bc705c9ab5891,23,Kobieta,2022-05-28_09h14.26.952,task,2021.1.4,Win32,60.86427267,628b806c463b948bc644b84f,6291cbc65848ef81f95f8dbc,,,,,,,,,,,,,,,,,,,,,,,,,,,,,,,,,,,,,,,,,,,,,,,,,,,,,,,,,,,,,,,,,,,,,,,,,,,,,,,,,,,,,,,,,,,,,,,,,,,,,,,
,,"[""comma""]",0,[0.8739000000003756],1,0,1,0,1,60196cc05e7bc705c9ab5891,23,Kobieta,2022-05-28_09h14.26.952,task,2021.1.4,Win32,60.86427267,628b806c463b948bc644b84f,6291cbc65848ef81f95f8dbc,,,,,,,,,,,,,,,,,,,,,,,,,,,,,,,,,,,,,,,,,,,,,,,,,,,,,,,,,,,,,,,,,,,,,,,,,,,,,,,,,,,,,,,,,,,,,,,,,,,,,,,
,,"[""period""]",0,[0.5775999999996344],2,0,2,0,1,60196cc05e7bc705c9ab5891,23,Kobieta,2022-05-28_09h14.26.952,task,2021.1.4,Win32,60.86427267,628b806c463b948bc644b84f,6291cbc65848ef81f95f8dbc,,,,,,,,,,,,,,,,,,,,,,,,,,,,,,,,,,,,,,,,,,,,,,,,,,,,,,,,,,,,,,,,,,,,,,,,,,,,,,,,,,,,,,,,,,,,,,,,,,,,,,,
,,"[""comma""]",0,[0.4423999999985142],3,0,3,0,1,60196cc05e7bc705c9ab5891,23,Kobieta,2022-05-28_09h14.26.952,task,2021.1.4,Win32,60.86427267,628b806c463b948bc644b84f,6291cbc65848ef81f95f8dbc,,,,,,,,,,,,,,,,,,,,,,,,,,,,,,,,,,,,,,,,,,,,,,,,,,,,,,,,,,,,,,,,,,,,,,,,,,,,,,,,,,,,,,,,,,,,,,,,,,,,,,,
,,"[""period""]",0,[0.35140000000036764],4,0,4,0,1,60196cc05e7bc705c9ab5891,23,Kobieta,2022-05-28_09h14.26.952,task,2021.1.4,Win32,60.86427267,628b806c463b948bc644b84f,6291cbc65848ef81f95f8dbc,,,,,,,,,,,,,,,,,,,,,,,,,,,,,,,,,,,,,,,,,,,,,,,,,,,,,,,,,,,,,,,,,,,,,,,,,,,,,,,,,,,,,,,,,,,,,,,,,,,,,,,
,,"[""period""]",0,[0.2830999999996351],5,0,5,0,1,60196cc05e7bc705c9ab5891,23,Kobieta,2022-05-28_09h14.26.952,task,2021.1.4,Win32,60.86427267,628b806c463b948bc644b84f,6291cbc65848ef81f95f8dbc,,,,,,,,,,,,,,,,,,,,,,,,,,,,,,,,,,,,,,,,,,,,,,,,,,,,,,,,,,,,,,,,,,,,,,,,,,,,,,,,,,,,,,,,,,,,,,,,,,,,,,,
,,"[""period""]",0,[0.3494000000003723],6,0,6,0,1,60196cc05e7bc705c9ab5891,23,Kobieta,2022-05-28_09h14.26.952,task,2021.1.4,Win32,60.86427267,628b806c463b948bc644b84f,6291cbc65848ef81f95f8dbc,,,,,,,,,,,,,,,,,,,,,,,,,,,,,,,,,,,,,,,,,,,,,,,,,,,,,,,,,,,,,,,,,,,,,,,,,,,,,,,,,,,,,,,,,,,,,,,,,,,,,,,
,,"[""period""]",0,[0.497800000000737],7,0,7,0,1,60196cc05e7bc705c9ab5891,23,Kobieta,2022-05-28_09h14.26.952,task,2021.1.4,Win32,60.86427267,628b806c463b948bc644b84f,6291cbc65848ef81f95f8dbc,,,,,,,,,,,,,,,,,,,,,,,,,,,,,,,,,,,,,,,,,,,,,,,,,,,,,,,,,,,,,,,,,,,,,,,,,,,,,,,,,,,,,,,,,,,,,,,,,,,,,,,
,,"[""comma""]",0,[0.257599999999627],8,0,8,0,1,60196cc05e7bc705c9ab5891,23,Kobieta,2022-05-28_09h14.26.952,task,2021.1.4,Win32,60.86427267,628b806c463b948bc644b84f,6291cbc65848ef81f95f8dbc,,,,,,,,,,,,,,,,,,,,,,,,,,,,,,,,,,,,,,,,,,,,,,,,,,,,,,,,,,,,,,,,,,,,,,,,,,,,,,,,,,,,,,,,,,,,,,,,,,,,,,,
,,"[""period""]",0,[0.3216999999992538],9,0,9,0,1,60196cc05e7bc705c9ab5891,23,Kobieta,2022-05-28_09h14.26.952,task,2021.1.4,Win32,60.86427267,628b806c463b948bc644b84f,6291cbc65848ef81f95f8dbc,,,,,,,,,,,,,,,,,,,,,,,,,,,,,,,,,,,,,,,,,,,,,,,,,,,,,,,,,,,,,,,,,,,,,,,,,,,,,,,,,,,,,,,,,,,,,,,,,,,,,,,
,,"[""comma""]",0,[0.3230000000000075],10,0,10,0,1,60196cc05e7bc705c9ab5891,23,Kobieta,2022-05-28_09h14.26.952,task,2021.1.4,Win32,60.86427267,628b806c463b948bc644b84f,6291cbc65848ef81f95f8dbc,,,,,,,,,,,,,,,,,,,,,,,,,,,,,,,,,,,,,,,,,,,,,,,,,,,,,,,,,,,,,,,,,,,,,,,,,,,,,,,,,,,,,,,,,,,,,,,,,,,,,,,
,,"[""period""]",0,[0.35299999999999443],11,0,11,0,1,60196cc05e7bc705c9ab5891,23,Kobieta,2022-05-28_09h14.26.952,task,2021.1.4,Win32,60.86427267,628b806c463b948bc644b84f,6291cbc65848ef81f95f8dbc,,,,,,,,,,,,,,,,,,,,,,,,,,,,,,,,,,,,,,,,,,,,,,,,,,,,,,,,,,,,,,,,,,,,,,,,,,,,,,,,,,,,,,,,,,,,,,,,,,,,,,,
,,"[""period""]",0,[0.6589000000003864],12,0,12,0,1,60196cc05e7bc705c9ab5891,23,Kobieta,2022-05-28_09h14.26.952,task,2021.1.4,Win32,60.86427267,628b806c463b948bc644b84f,6291cbc65848ef81f95f8dbc,,,,,,,,,,,,,,,,,,,,,,,,,,,,,,,,,,,,,,,,,,,,,,,,,,,,,,,,,,,,,,,,,,,,,,,,,,,,,,,,,,,,,,,,,,,,,,,,,,,,,,,
,,"[""comma""]",0,[0.7074000000003764],13,0,13,0,1,60196cc05e7bc705c9ab5891,23,Kobieta,2022-05-28_09h14.26.952,task,2021.1.4,Win32,60.86427267,628b806c463b948bc644b84f,6291cbc65848ef81f95f8dbc,,,,,,,,,,,,,,,,,,,,,,,,,,,,,,,,,,,,,,,,,,,,,,,,,,,,,,,,,,,,,,,,,,,,,,,,,,,,,,,,,,,,,,,,,,,,,,,,,,,,,,,
,,"[""comma""]",0,[0.49769999999925574],14,0,14,0,1,60196cc05e7bc705c9ab5891,23,Kobieta,2022-05-28_09h14.26.952,task,2021.1.4,Win32,60.86427267,628b806c463b948bc644b84f,6291cbc65848ef81f95f8dbc,,,,,,,,,,,,,,,,,,,,,,,,,,,,,,,,,,,,,,,,,,,,,,,,,,,,,,,,,,,,,,,,,,,,,,,,,,,,,,,,,,,,,,,,,,,,,,,,,,,,,,,
,,"[""period""]",0,[0.6101999999992529],15,0,15,0,1,60196cc05e7bc705c9ab5891,23,Kobieta,2022-05-28_09h14.26.952,task,2021.1.4,Win32,60.86427267,628b806c463b948bc644b84f,6291cbc65848ef81f95f8dbc,,,,,,,,,,,,,,,,,,,,,,,,,,,,,,,,,,,,,,,,,,,,,,,,,,,,,,,,,,,,,,,,,,,,,,,,,,,,,,,,,,,,,,,,,,,,,,,,,,,,,,,
,,"[""comma""]",0,[0.5700000000000216],16,0,16,0,1,60196cc05e7bc705c9ab5891,23,Kobieta,2022-05-28_09h14.26.952,task,2021.1.4,Win32,60.86427267,628b806c463b948bc644b84f,6291cbc65848ef81f95f8dbc,,,,,,,,,,,,,,,,,,,,,,,,,,,,,,,,,,,,,,,,,,,,,,,,,,,,,,,,,,,,,,,,,,,,,,,,,,,,,,,,,,,,,,,,,,,,,,,,,,,,,,,
,,"[""comma""]",0,[0.994499999999988],17,0,17,0,1,60196cc05e7bc705c9ab5891,23,Kobieta,2022-05-28_09h14.26.952,task,2021.1.4,Win32,60.86427267,628b806c463b948bc644b84f,6291cbc65848ef81f95f8dbc,,,,,,,,,,,,,,,,,,,,,,,,,,,,,,,,,,,,,,,,,,,,,,,,,,,,,,,,,,,,,,,,,,,,,,,,,,,,,,,,,,,,,,,,,,,,,,,,,,,,,,,
,,"[""comma"",""period""]",0,"[0.6344000000003689,1.9699999999999989]",18,0,18,0,1,60196cc05e7bc705c9ab5891,23,Kobieta,2022-05-28_09h14.26.952,task,2021.1.4,Win32,60.86427267,628b806c463b948bc644b84f,6291cbc65848ef81f95f8dbc,,,,,,,,,,,,,,,,,,,,,,,,,,,,,,,,,,,,,,,,,,,,,,,,,,,,,,,,,,,,,,,,,,,,,,,,,,,,,,,,,,,,,,,,,,,,,,,,,,,,,,,
,,,0,,19,0,19,0,1,60196cc05e7bc705c9ab5891,23,Kobieta,2022-05-28_09h14.26.952,task,2021.1.4,Win32,60.86427267,628b806c463b948bc644b84f,6291cbc65848ef81f95f8dbc,,,,,,,,,,,,,,,,,,,,,,,,,,,,,,,,,,,,,,,,,,,,,,,,,,,,,,,,,,,,,,,,,,,,,,,,,,,,,,,,,,,,,,,,,,,,,,,,,,,,,,,
,,"[""period""]",0,[0.36970000000113146],20,0,20,0,1,60196cc05e7bc705c9ab5891,23,Kobieta,2022-05-28_09h14.26.952,task,2021.1.4,Win32,60.86427267,628b806c463b948bc644b84f,6291cbc65848ef81f95f8dbc,,,,,,,,,,,,,,,,,,,,,,,,,,,,,,,,,,,,,,,,,,,,,,,,,,,,,,,,,,,,,,,,,,,,,,,,,,,,,,,,,,,,,,,,,,,,,,,,,,,,,,,
,,"[""comma""]",0,[0.9224000000003798],21,0,21,0,1,60196cc05e7bc705c9ab5891,23,Kobieta,2022-05-28_09h14.26.952,task,2021.1.4,Win32,60.86427267,628b806c463b948bc644b84f,6291cbc65848ef81f95f8dbc,,,,,,,,,,,,,,,,,,,,,,,,,,,,,,,,,,,,,,,,,,,,,,,,,,,,,,,,,,,,,,,,,,,,,,,,,,,,,,,,,,,,,,,,,,,,,,,,,,,,,,,
,,"[""period""]",0,[0.5162000000011062],22,0,22,0,1,60196cc05e7bc705c9ab5891,23,Kobieta,2022-05-28_09h14.26.952,task,2021.1.4,Win32,60.86427267,628b806c463b948bc644b84f,6291cbc65848ef81f95f8dbc,,,,,,,,,,,,,,,,,,,,,,,,,,,,,,,,,,,,,,,,,,,,,,,,,,,,,,,,,,,,,,,,,,,,,,,,,,,,,,,,,,,,,,,,,,,,,,,,,,,,,,,
,,"[""comma""]",0,[0.2987000000011335],23,0,23,0,1,60196cc05e7bc705c9ab5891,23,Kobieta,2022-05-28_09h14.26.952,task,2021.1.4,Win32,60.86427267,628b806c463b948bc644b84f,6291cbc65848ef81f95f8dbc,,,,,,,,,,,,,,,,,,,,,,,,,,,,,,,,,,,,,,,,,,,,,,,,,,,,,,,,,,,,,,,,,,,,,,,,,,,,,,,,,,,,,,,,,,,,,,,,,,,,,,,
,,"[""period""]",0,[0.26680000000075665],24,0,24,0,1,60196cc05e7bc705c9ab5891,23,Kobieta,2022-05-28_09h14.26.952,task,2021.1.4,Win32,60.86427267,628b806c463b948bc644b84f,6291cbc65848ef81f95f8dbc,,,,,,,,,,,,,,,,,,,,,,,,,,,,,,,,,,,,,,,,,,,,,,,,,,,,,,,,,,,,,,,,,,,,,,,,,,,,,,,,,,,,,,,,,,,,,,,,,,,,,,,
,,"[""comma""]",0,[0.2661999999992588],25,0,25,0,1,60196cc05e7bc705c9ab5891,23,Kobieta,2022-05-28_09h14.26.952,task,2021.1.4,Win32,60.86427267,628b806c463b948bc644b84f,6291cbc65848ef81f95f8dbc,,,,,,,,,,,,,,,,,,,,,,,,,,,,,,,,,,,,,,,,,,,,,,,,,,,,,,,,,,,,,,,,,,,,,,,,,,,,,,,,,,,,,,,,,,,,,,,,,,,,,,,
,,"[""comma""]",0,[0.15350000000000819],26,0,26,0,1,60196cc05e7bc705c9ab5891,23,Kobieta,2022-05-28_09h14.26.952,task,2021.1.4,Win32,60.86427267,628b806c463b948bc644b84f,6291cbc65848ef81f95f8dbc,,,,,,,,,,,,,,,,,,,,,,,,,,,,,,,,,,,,,,,,,,,,,,,,,,,,,,,,,,,,,,,,,,,,,,,,,,,,,,,,,,,,,,,,,,,,,,,,,,,,,,,
,,"[""period""]",0,[0.3152999999988708],27,0,27,0,1,60196cc05e7bc705c9ab5891,23,Kobieta,2022-05-28_09h14.26.952,task,2021.1.4,Win32,60.86427267,628b806c463b948bc644b84f,6291cbc65848ef81f95f8dbc,,,,,,,,,,,,,,,,,,,,,,,,,,,,,,,,,,,,,,,,,,,,,,,,,,,,,,,,,,,,,,,,,,,,,,,,,,,,,,,,,,,,,,,,,,,,,,,,,,,,,,,
,,"[""comma""]",0,[0.2591999999992538],28,0,28,0,1,60196cc05e7bc705c9ab5891,23,Kobieta,2022-05-28_09h14.26.952,task,2021.1.4,Win32,60.86427267,628b806c463b948bc644b84f,6291cbc65848ef81f95f8dbc,,,,,,,,,,,,,,,,,,,,,,,,,,,,,,,,,,,,,,,,,,,,,,,,,,,,,,,,,,,,,,,,,,,,,,,,,,,,,,,,,,,,,,,,,,,,,,,,,,,,,,,
,,"[""period""]",0,[0.04140000000037958],29,0,29,0,1,60196cc05e7bc705c9ab5891,23,Kobieta,2022-05-28_09h14.26.952,task,2021.1.4,Win32,60.86427267,628b806c463b948bc644b84f,6291cbc65848ef81f95f8dbc,,,,,,,,,,,,,,,,,,,,,,,,,,,,,,,,,,,,,,,,,,,,,,,,,,,,,,,,,,,,,,,,,,,,,,,,,,,,,,,,,,,,,,,,,,,,,,,,,,,,,,,
,,"[""period""]",0,[0.35279999999886513],30,0,30,0,1,60196cc05e7bc705c9ab5891,23,Kobieta,2022-05-28_09h14.26.952,task,2021.1.4,Win32,60.86427267,628b806c463b948bc644b84f,6291cbc65848ef81f95f8dbc,,,,,,,,,,,,,,,,,,,,,,,,,,,,,,,,,,,,,,,,,,,,,,,,,,,,,,,,,,,,,,,,,,,,,,,,,,,,,,,,,,,,,,,,,,,,,,,,,,,,,,,
,,"[""comma""]",0,[0.33740000000037185],31,0,31,0,1,60196cc05e7bc705c9ab5891,23,Kobieta,2022-05-28_09h14.26.952,task,2021.1.4,Win32,60.86427267,628b806c463b948bc644b84f,6291cbc65848ef81f95f8dbc,,,,,,,,,,,,,,,,,,,,,,,,,,,,,,,,,,,,,,,,,,,,,,,,,,,,,,,,,,,,,,,,,,,,,,,,,,,,,,,,,,,,,,,,,,,,,,,,,,,,,,,
,,"[""comma""]",0,[0.3561999999992622],32,0,32,0,1,60196cc05e7bc705c9ab5891,23,Kobieta,2022-05-28_09h14.26.952,task,2021.1.4,Win32,60.86427267,628b806c463b948bc644b84f,6291cbc65848ef81f95f8dbc,,,,,,,,,,,,,,,,,,,,,,,,,,,,,,,,,,,,,,,,,,,,,,,,,,,,,,,,,,,,,,,,,,,,,,,,,,,,,,,,,,,,,,,,,,,,,,,,,,,,,,,
,,"[""comma""]",0,[0.3506999999992786],33,0,33,0,1,60196cc05e7bc705c9ab5891,23,Kobieta,2022-05-28_09h14.26.952,task,2021.1.4,Win32,60.86427267,628b806c463b948bc644b84f,6291cbc65848ef81f95f8dbc,,,,,,,,,,,,,,,,,,,,,,,,,,,,,,,,,,,,,,,,,,,,,,,,,,,,,,,,,,,,,,,,,,,,,,,,,,,,,,,,,,,,,,,,,,,,,,,,,,,,,,,
,,"[""comma""]",0,[0.35229999999887696],34,0,34,0,1,60196cc05e7bc705c9ab5891,23,Kobieta,2022-05-28_09h14.26.952,task,2021.1.4,Win32,60.86427267,628b806c463b948bc644b84f,6291cbc65848ef81f95f8dbc,,,,,,,,,,,,,,,,,,,,,,,,,,,,,,,,,,,,,,,,,,,,,,,,,,,,,,,,,,,,,,,,,,,,,,,,,,,,,,,,,,,,,,,,,,,,,,,,,,,,,,,
,,"[""period""]",0,[0.1859000000003732],35,0,35,0,1,60196cc05e7bc705c9ab5891,23,Kobieta,2022-05-28_09h14.26.952,task,2021.1.4,Win32,60.86427267,628b806c463b948bc644b84f,6291cbc65848ef81f95f8dbc,,,,,,,,,,,,,,,,,,,,,,,,,,,,,,,,,,,,,,,,,,,,,,,,,,,,,,,,,,,,,,,,,,,,,,,,,,,,,,,,,,,,,,,,,,,,,,,,,,,,,,,
,,"[""comma""]",0,[0.3059999999999832],36,0,36,0,1,60196cc05e7bc705c9ab5891,23,Kobieta,2022-05-28_09h14.26.952,task,2021.1.4,Win32,60.86427267,628b806c463b948bc644b84f,6291cbc65848ef81f95f8dbc,,,,,,,,,,,,,,,,,,,,,,,,,,,,,,,,,,,,,,,,,,,,,,,,,,,,,,,,,,,,,,,,,,,,,,,,,,,,,,,,,,,,,,,,,,,,,,,,,,,,,,,
,,"[""comma""]",0,[0.281800000000743],37,0,37,0,1,60196cc05e7bc705c9ab5891,23,Kobieta,2022-05-28_09h14.26.952,task,2021.1.4,Win32,60.86427267,628b806c463b948bc644b84f,6291cbc65848ef81f95f8dbc,,,,,,,,,,,,,,,,,,,,,,,,,,,,,,,,,,,,,,,,,,,,,,,,,,,,,,,,,,,,,,,,,,,,,,,,,,,,,,,,,,,,,,,,,,,,,,,,,,,,,,,
,,"[""period""]",0,[0.24950000000001182],38,0,38,0,1,60196cc05e7bc705c9ab5891,23,Kobieta,2022-05-28_09h14.26.952,task,2021.1.4,Win32,60.86427267,628b806c463b948bc644b84f,6291cbc65848ef81f95f8dbc,,,,,,,,,,,,,,,,,,,,,,,,,,,,,,,,,,,,,,,,,,,,,,,,,,,,,,,,,,,,,,,,,,,,,,,,,,,,,,,,,,,,,,,,,,,,,,,,,,,,,,,
,,"[""period""]",0,[0.27359999999961815],39,0,39,0,1,60196cc05e7bc705c9ab5891,23,Kobieta,2022-05-28_09h14.26.952,task,2021.1.4,Win32,60.86427267,628b806c463b948bc644b84f,6291cbc65848ef81f95f8dbc,,,,,,,,,,,,,,,,,,,,,,,,,,,,,,,,,,,,,,,,,,,,,,,,,,,,,,,,,,,,,,,,,,,,,,,,,,,,,,,,,,,,,,,,,,,,,,,,,,,,,,,
,,"[""comma""]",0,[0.3069000000003541],40,0,40,0,1,60196cc05e7bc705c9ab5891,23,Kobieta,2022-05-28_09h14.26.952,task,2021.1.4,Win32,60.86427267,628b806c463b948bc644b84f,6291cbc65848ef81f95f8dbc,,,,,,,,,,,,,,,,,,,,,,,,,,,,,,,,,,,,,,,,,,,,,,,,,,,,,,,,,,,,,,,,,,,,,,,,,,,,,,,,,,,,,,,,,,,,,,,,,,,,,,,
,,"[""period""]",0,[0.1705000000000041],41,0,41,0,1,60196cc05e7bc705c9ab5891,23,Kobieta,2022-05-28_09h14.26.952,task,2021.1.4,Win32,60.86427267,628b806c463b948bc644b84f,6291cbc65848ef81f95f8dbc,,,,,,,,,,,,,,,,,,,,,,,,,,,,,,,,,,,,,,,,,,,,,,,,,,,,,,,,,,,,,,,,,,,,,,,,,,,,,,,,,,,,,,,,,,,,,,,,,,,,,,,
,,"[""period""]",0,[0.26709999999962974],42,0,42,0,1,60196cc05e7bc705c9ab5891,23,Kobieta,2022-05-28_09h14.26.952,task,2021.1.4,Win32,60.86427267,628b806c463b948bc644b84f,6291cbc65848ef81f95f8dbc,,,,,,,,,,,,,,,,,,,,,,,,,,,,,,,,,,,,,,,,,,,,,,,,,,,,,,,,,,,,,,,,,,,,,,,,,,,,,,,,,,,,,,,,,,,,,,,,,,,,,,,
,,"[""comma""]",0,[0.30669999999926745],43,0,43,0,1,60196cc05e7bc705c9ab5891,23,Kobieta,2022-05-28_09h14.26.952,task,2021.1.4,Win32,60.86427267,628b806c463b948bc644b84f,6291cbc65848ef81f95f8dbc,,,,,,,,,,,,,,,,,,,,,,,,,,,,,,,,,,,,,,,,,,,,,,,,,,,,,,,,,,,,,,,,,,,,,,,,,,,,,,,,,,,,,,,,,,,,,,,,,,,,,,,
,,"[""comma""]",0,[0.4173000000007505],44,0,44,0,1,60196cc05e7bc705c9ab5891,23,Kobieta,2022-05-28_09h14.26.952,task,2021.1.4,Win32,60.86427267,628b806c463b948bc644b84f,6291cbc65848ef81f95f8dbc,,,,,,,,,,,,,,,,,,,,,,,,,,,,,,,,,,,,,,,,,,,,,,,,,,,,,,,,,,,,,,,,,,,,,,,,,,,,,,,,,,,,,,,,,,,,,,,,,,,,,,,
,,"[""comma""]",0,[0.8889000000003762],45,0,45,0,1,60196cc05e7bc705c9ab5891,23,Kobieta,2022-05-28_09h14.26.952,task,2021.1.4,Win32,60.86427267,628b806c463b948bc644b84f,6291cbc65848ef81f95f8dbc,,,,,,,,,,,,,,,,,,,,,,,,,,,,,,,,,,,,,,,,,,,,,,,,,,,,,,,,,,,,,,,,,,,,,,,,,,,,,,,,,,,,,,,,,,,,,,,,,,,,,,,
,,"[""period""]",0,[0.35110000000150876],46,0,46,0,1,60196cc05e7bc705c9ab5891,23,Kobieta,2022-05-28_09h14.26.952,task,2021.1.4,Win32,60.86427267,628b806c463b948bc644b84f,6291cbc65848ef81f95f8dbc,,,,,,,,,,,,,,,,,,,,,,,,,,,,,,,,,,,,,,,,,,,,,,,,,,,,,,,,,,,,,,,,,,,,,,,,,,,,,,,,,,,,,,,,,,,,,,,,,,,,,,,
,,"[""comma""]",0,[0.34850000000000136],47,0,47,0,1,60196cc05e7bc705c9ab5891,23,Kobieta,2022-05-28_09h14.26.952,task,2021.1.4,Win32,60.86427267,628b806c463b948bc644b84f,6291cbc65848ef81f95f8dbc,,,,,,,,,,,,,,,,,,,,,,,,,,,,,,,,,,,,,,,,,,,,,,,,,,,,,,,,,,,,,,,,,,,,,,,,,,,,,,,,,,,,,,,,,,,,,,,,,,,,,,,
,,"[""period""]",0,[0.29030000000074097],48,0,48,0,1,60196cc05e7bc705c9ab5891,23,Kobieta,2022-05-28_09h14.26.952,task,2021.1.4,Win32,60.86427267,628b806c463b948bc644b84f,6291cbc65848ef81f95f8dbc,,,,,,,,,,,,,,,,,,,,,,,,,,,,,,,,,,,,,,,,,,,,,,,,,,,,,,,,,,,,,,,,,,,,,,,,,,,,,,,,,,,,,,,,,,,,,,,,,,,,,,,
,,"[""comma""]",0,[0.3315999999996393],49,0,49,0,1,60196cc05e7bc705c9ab5891,23,Kobieta,2022-05-28_09h14.26.952,task,2021.1.4,Win32,60.86427267,628b806c463b948bc644b84f,6291cbc65848ef81f95f8dbc,,,,,,,,,,,,,,,,,,,,,,,,,,,,,,,,,,,,,,,,,,,,,,,,,,,,,,,,,,,,,,,,,,,,,,,,,,,,,,,,,,,,,,,,,,,,,,,,,,,,,,,
,,"[""period"",""period""]",0,"[0.23440000000039163,1.8896999999992659]",50,0,50,0,1,60196cc05e7bc705c9ab5891,23,Kobieta,2022-05-28_09h14.26.952,task,2021.1.4,Win32,60.86427267,628b806c463b948bc644b84f,6291cbc65848ef81f95f8dbc,,,,,,,,,,,,,,,,,,,,,,,,,,,,,,,,,,,,,,,,,,,,,,,,,,,,,,,,,,,,,,,,,,,,,,,,,,,,,,,,,,,,,,,,,,,,,,,,,,,,,,,
,,,0,,51,0,51,0,1,60196cc05e7bc705c9ab5891,23,Kobieta,2022-05-28_09h14.26.952,task,2021.1.4,Win32,60.86427267,628b806c463b948bc644b84f,6291cbc65848ef81f95f8dbc,,,,,,,,,,,,,,,,,,,,,,,,,,,,,,,,,,,,,,,,,,,,,,,,,,,,,,,,,,,,,,,,,,,,,,,,,,,,,,,,,,,,,,,,,,,,,,,,,,,,,,,
,,"[""period""]",0,[0.3155000000000143],52,0,52,0,1,60196cc05e7bc705c9ab5891,23,Kobieta,2022-05-28_09h14.26.952,task,2021.1.4,Win32,60.86427267,628b806c463b948bc644b84f,6291cbc65848ef81f95f8dbc,,,,,,,,,,,,,,,,,,,,,,,,,,,,,,,,,,,,,,,,,,,,,,,,,,,,,,,,,,,,,,,,,,,,,,,,,,,,,,,,,,,,,,,,,,,,,,,,,,,,,,,
,,"[""comma""]",0,[0.282400000000365],53,0,53,0,1,60196cc05e7bc705c9ab5891,23,Kobieta,2022-05-28_09h14.26.952,task,2021.1.4,Win32,60.86427267,628b806c463b948bc644b84f,6291cbc65848ef81f95f8dbc,,,,,,,,,,,,,,,,,,,,,,,,,,,,,,,,,,,,,,,,,,,,,,,,,,,,,,,,,,,,,,,,,,,,,,,,,,,,,,,,,,,,,,,,,,,,,,,,,,,,,,,
,,"[""period""]",0,[0.09000000000000341],54,0,54,0,1,60196cc05e7bc705c9ab5891,23,Kobieta,2022-05-28_09h14.26.952,task,2021.1.4,Win32,60.86427267,628b806c463b948bc644b84f,6291cbc65848ef81f95f8dbc,,,,,,,,,,,,,,,,,,,,,,,,,,,,,,,,,,,,,,,,,,,,,,,,,,,,,,,,,,,,,,,,,,,,,,,,,,,,,,,,,,,,,,,,,,,,,,,,,,,,,,,
,,"[""comma""]",0,[0.43309999999962656],55,0,55,0,1,60196cc05e7bc705c9ab5891,23,Kobieta,2022-05-28_09h14.26.952,task,2021.1.4,Win32,60.86427267,628b806c463b948bc644b84f,6291cbc65848ef81f95f8dbc,,,,,,,,,,,,,,,,,,,,,,,,,,,,,,,,,,,,,,,,,,,,,,,,,,,,,,,,,,,,,,,,,,,,,,,,,,,,,,,,,,,,,,,,,,,,,,,,,,,,,,,
,,"[""period""]",0,[0.24070000000111236],56,0,56,0,1,60196cc05e7bc705c9ab5891,23,Kobieta,2022-05-28_09h14.26.952,task,2021.1.4,Win32,60.86427267,628b806c463b948bc644b84f,6291cbc65848ef81f95f8dbc,,,,,,,,,,,,,,,,,,,,,,,,,,,,,,,,,,,,,,,,,,,,,,,,,,,,,,,,,,,,,,,,,,,,,,,,,,,,,,,,,,,,,,,,,,,,,,,,,,,,,,,
,,"[""comma""]",0,[0.3699000000003707],57,0,57,0,1,60196cc05e7bc705c9ab5891,23,Kobieta,2022-05-28_09h14.26.952,task,2021.1.4,Win32,60.86427267,628b806c463b948bc644b84f,6291cbc65848ef81f95f8dbc,,,,,,,,,,,,,,,,,,,,,,,,,,,,,,,,,,,,,,,,,,,,,,,,,,,,,,,,,,,,,,,,,,,,,,,,,,,,,,,,,,,,,,,,,,,,,,,,,,,,,,,
,,"[""comma""]",0,[0.2661999999992588],58,0,58,0,1,60196cc05e7bc705c9ab5891,23,Kobieta,2022-05-28_09h14.26.952,task,2021.1.4,Win32,60.86427267,628b806c463b948bc644b84f,6291cbc65848ef81f95f8dbc,,,,,,,,,,,,,,,,,,,,,,,,,,,,,,,,,,,,,,,,,,,,,,,,,,,,,,,,,,,,,,,,,,,,,,,,,,,,,,,,,,,,,,,,,,,,,,,,,,,,,,,
,,"[""comma""]",0,[0.0581999999992604],59,0,59,0,1,60196cc05e7bc705c9ab5891,23,Kobieta,2022-05-28_09h14.26.952,task,2021.1.4,Win32,60.86427267,628b806c463b948bc644b84f,6291cbc65848ef81f95f8dbc,,,,,,,,,,,,,,,,,,,,,,,,,,,,,,,,,,,,,,,,,,,,,,,,,,,,,,,,,,,,,,,,,,,,,,,,,,,,,,,,,,,,,,,,,,,,,,,,,,,,,,,
,,"[""period""]",0,[0.0013999999985117029],60,0,60,0,1,60196cc05e7bc705c9ab5891,23,Kobieta,2022-05-28_09h14.26.952,task,2021.1.4,Win32,60.86427267,628b806c463b948bc644b84f,6291cbc65848ef81f95f8dbc,,,,,,,,,,,,,,,,,,,,,,,,,,,,,,,,,,,,,,,,,,,,,,,,,,,,,,,,,,,,,,,,,,,,,,,,,,,,,,,,,,,,,,,,,,,,,,,,,,,,,,,
,,"[""period""]",0,[0.15399999999999636],61,0,61,0,1,60196cc05e7bc705c9ab5891,23,Kobieta,2022-05-28_09h14.26.952,task,2021.1.4,Win32,60.86427267,628b806c463b948bc644b84f,6291cbc65848ef81f95f8dbc,,,,,,,,,,,,,,,,,,,,,,,,,,,,,,,,,,,,,,,,,,,,,,,,,,,,,,,,,,,,,,,,,,,,,,,,,,,,,,,,,,,,,,,,,,,,,,,,,,,,,,,
,,"[""comma""]",0,[0.2896999999992431],62,0,62,0,1,60196cc05e7bc705c9ab5891,23,Kobieta,2022-05-28_09h14.26.952,task,2021.1.4,Win32,60.86427267,628b806c463b948bc644b84f,6291cbc65848ef81f95f8dbc,,,,,,,,,,,,,,,,,,,,,,,,,,,,,,,,,,,,,,,,,,,,,,,,,,,,,,,,,,,,,,,,,,,,,,,,,,,,,,,,,,,,,,,,,,,,,,,,,,,,,,,
,,"[""period""]",0,[0.27409999999963475],63,0,63,0,1,60196cc05e7bc705c9ab5891,23,Kobieta,2022-05-28_09h14.26.952,task,2021.1.4,Win32,60.86427267,628b806c463b948bc644b84f,6291cbc65848ef81f95f8dbc,,,,,,,,,,,,,,,,,,,,,,,,,,,,,,,,,,,,,,,,,,,,,,,,,,,,,,,,,,,,,,,,,,,,,,,,,,,,,,,,,,,,,,,,,,,,,,,,,,,,,,,
,,"[""period""]",0,[0.29859999999962383],64,0,64,0,1,60196cc05e7bc705c9ab5891,23,Kobieta,2022-05-28_09h14.26.952,task,2021.1.4,Win32,60.86427267,628b806c463b948bc644b84f,6291cbc65848ef81f95f8dbc,,,,,,,,,,,,,,,,,,,,,,,,,,,,,,,,,,,,,,,,,,,,,,,,,,,,,,,,,,,,,,,,,,,,,,,,,,,,,,,,,,,,,,,,,,,,,,,,,,,,,,,
,,"[""period"",""period""]",0,"[0.12159999999963134,1.5694000000003712]",65,0,65,0,1,60196cc05e7bc705c9ab5891,23,Kobieta,2022-05-28_09h14.26.952,task,2021.1.4,Win32,60.86427267,628b806c463b948bc644b84f,6291cbc65848ef81f95f8dbc,,,,,,,,,,,,,,,,,,,,,,,,,,,,,,,,,,,,,,,,,,,,,,,,,,,,,,,,,,,,,,,,,,,,,,,,,,,,,,,,,,,,,,,,,,,,,,,,,,,,,,,
,,"[""period""]",0,[1.581200000001104],66,0,66,0,1,60196cc05e7bc705c9ab5891,23,Kobieta,2022-05-28_09h14.26.952,task,2021.1.4,Win32,60.86427267,628b806c463b948bc644b84f,6291cbc65848ef81f95f8dbc,,,,,,,,,,,,,,,,,,,,,,,,,,,,,,,,,,,,,,,,,,,,,,,,,,,,,,,,,,,,,,,,,,,,,,,,,,,,,,,,,,,,,,,,,,,,,,,,,,,,,,,
,,"[""period""]",0,[1.9221999999992647],67,0,67,0,1,60196cc05e7bc705c9ab5891,23,Kobieta,2022-05-28_09h14.26.952,task,2021.1.4,Win32,60.86427267,628b806c463b948bc644b84f,6291cbc65848ef81f95f8dbc,,,,,,,,,,,,,,,,,,,,,,,,,,,,,,,,,,,,,,,,,,,,,,,,,,,,,,,,,,,,,,,,,,,,,,,,,,,,,,,,,,,,,,,,,,,,,,,,,,,,,,,
,,,0,,68,0,68,0,1,60196cc05e7bc705c9ab5891,23,Kobieta,2022-05-28_09h14.26.952,task,2021.1.4,Win32,60.86427267,628b806c463b948bc644b84f,6291cbc65848ef81f95f8dbc,,,,,,,,,,,,,,,,,,,,,,,,,,,,,,,,,,,,,,,,,,,,,,,,,,,,,,,,,,,,,,,,,,,,,,,,,,,,,,,,,,,,,,,,,,,,,,,,,,,,,,,
,,"[""period"",""comma""]",0,"[0.16940000000036548,1.913200000001126]",69,0,69,0,1,60196cc05e7bc705c9ab5891,23,Kobieta,2022-05-28_09h14.26.952,task,2021.1.4,Win32,60.86427267,628b806c463b948bc644b84f,6291cbc65848ef81f95f8dbc,,,,,,,,,,,,,,,,,,,,,,,,,,,,,,,,,,,,,,,,,,,,,,,,,,,,,,,,,,,,,,,,,,,,,,,,,,,,,,,,,,,,,,,,,,,,,,,,,,,,,,,
,,,0,,70,0,70,0,1,60196cc05e7bc705c9ab5891,23,Kobieta,2022-05-28_09h14.26.952,task,2021.1.4,Win32,60.86427267,628b806c463b948bc644b84f,6291cbc65848ef81f95f8dbc,,,,,,,,,,,,,,,,,,,,,,,,,,,,,,,,,,,,,,,,,,,,,,,,,,,,,,,,,,,,,,,,,,,,,,,,,,,,,,,,,,,,,,,,,,,,,,,,,,,,,,,
,,"[""comma""]",0,[0.3006999999992388],71,0,71,0,1,60196cc05e7bc705c9ab5891,23,Kobieta,2022-05-28_09h14.26.952,task,2021.1.4,Win32,60.86427267,628b806c463b948bc644b84f,6291cbc65848ef81f95f8dbc,,,,,,,,,,,,,,,,,,,,,,,,,,,,,,,,,,,,,,,,,,,,,,,,,,,,,,,,,,,,,,,,,,,,,,,,,,,,,,,,,,,,,,,,,,,,,,,,,,,,,,,
,,"[""period""]",0,[0.45009999999962247],72,0,72,0,1,60196cc05e7bc705c9ab5891,23,Kobieta,2022-05-28_09h14.26.952,task,2021.1.4,Win32,60.86427267,628b806c463b948bc644b84f,6291cbc65848ef81f95f8dbc,,,,,,,,,,,,,,,,,,,,,,,,,,,,,,,,,,,,,,,,,,,,,,,,,,,,,,,,,,,,,,,,,,,,,,,,,,,,,,,,,,,,,,,,,,,,,,,,,,,,,,,
,,"[""period""]",0,[0.22530000000074324],73,0,73,0,1,60196cc05e7bc705c9ab5891,23,Kobieta,2022-05-28_09h14.26.952,task,2021.1.4,Win32,60.86427267,628b806c463b948bc644b84f,6291cbc65848ef81f95f8dbc,,,,,,,,,,,,,,,,,,,,,,,,,,,,,,,,,,,,,,,,,,,,,,,,,,,,,,,,,,,,,,,,,,,,,,,,,,,,,,,,,,,,,,,,,,,,,,,,,,,,,,,
,,"[""comma""]",0,[0.26680000000075665],74,0,74,0,1,60196cc05e7bc705c9ab5891,23,Kobieta,2022-05-28_09h14.26.952,task,2021.1.4,Win32,60.86427267,628b806c463b948bc644b84f,6291cbc65848ef81f95f8dbc,,,,,,,,,,,,,,,,,,,,,,,,,,,,,,,,,,,,,,,,,,,,,,,,,,,,,,,,,,,,,,,,,,,,,,,,,,,,,,,,,,,,,,,,,,,,,,,,,,,,,,,
,,"[""comma""]",0,[0.30379999999885854],75,0,75,0,1,60196cc05e7bc705c9ab5891,23,Kobieta,2022-05-28_09h14.26.952,task,2021.1.4,Win32,60.86427267,628b806c463b948bc644b84f,6291cbc65848ef81f95f8dbc,,,,,,,,,,,,,,,,,,,,,,,,,,,,,,,,,,,,,,,,,,,,,,,,,,,,,,,,,,,,,,,,,,,,,,,,,,,,,,,,,,,,,,,,,,,,,,,,,,,,,,,
,,"[""period""]",0,[0.2572000000011201],76,0,76,0,1,60196cc05e7bc705c9ab5891,23,Kobieta,2022-05-28_09h14.26.952,task,2021.1.4,Win32,60.86427267,628b806c463b948bc644b84f,6291cbc65848ef81f95f8dbc,,,,,,,,,,,,,,,,,,,,,,,,,,,,,,,,,,,,,,,,,,,,,,,,,,,,,,,,,,,,,,,,,,,,,,,,,,,,,,,,,,,,,,,,,,,,,,,,,,,,,,,
,,"[""comma""]",0,[0.4819999999999993],77,0,77,0,1,60196cc05e7bc705c9ab5891,23,Kobieta,2022-05-28_09h14.26.952,task,2021.1.4,Win32,60.86427267,628b806c463b948bc644b84f,6291cbc65848ef81f95f8dbc,,,,,,,,,,,,,,,,,,,,,,,,,,,,,,,,,,,,,,,,,,,,,,,,,,,,,,,,,,,,,,,,,,,,,,,,,,,,,,,,,,,,,,,,,,,,,,,,,,,,,,,
,,"[""comma""]",0,[0.37750000000002615],78,0,78,0,1,60196cc05e7bc705c9ab5891,23,Kobieta,2022-05-28_09h14.26.952,task,2021.1.4,Win32,60.86427267,628b806c463b948bc644b84f,6291cbc65848ef81f95f8dbc,,,,,,,,,,,,,,,,,,,,,,,,,,,,,,,,,,,,,,,,,,,,,,,,,,,,,,,,,,,,,,,,,,,,,,,,,,,,,,,,,,,,,,,,,,,,,,,,,,,,,,,
,,"[""period""]",0,[0.28180000000077143],79,0,79,0,1,60196cc05e7bc705c9ab5891,23,Kobieta,2022-05-28_09h14.26.952,task,2021.1.4,Win32,60.86427267,628b806c463b948bc644b84f,6291cbc65848ef81f95f8dbc,,,,,,,,,,,,,,,,,,,,,,,,,,,,,,,,,,,,,,,,,,,,,,,,,,,,,,,,,,,,,,,,,,,,,,,,,,,,,,,,,,,,,,,,,,,,,,,,,,,,,,,
,,"[""period""]",0,[0.33710000000149876],80,0,80,0,1,60196cc05e7bc705c9ab5891,23,Kobieta,2022-05-28_09h14.26.952,task,2021.1.4,Win32,60.86427267,628b806c463b948bc644b84f,6291cbc65848ef81f95f8dbc,,,,,,,,,,,,,,,,,,,,,,,,,,,,,,,,,,,,,,,,,,,,,,,,,,,,,,,,,,,,,,,,,,,,,,,,,,,,,,,,,,,,,,,,,,,,,,,,,,,,,,,
,,"[""period""]",0,[0.28360000000145646],81,0,81,0,1,60196cc05e7bc705c9ab5891,23,Kobieta,2022-05-28_09h14.26.952,task,2021.1.4,Win32,60.86427267,628b806c463b948bc644b84f,6291cbc65848ef81f95f8dbc,,,,,,,,,,,,,,,,,,,,,,,,,,,,,,,,,,,,,,,,,,,,,,,,,,,,,,,,,,,,,,,,,,,,,,,,,,,,,,,,,,,,,,,,,,,,,,,,,,,,,,,
,,"[""period""]",0,[0.33749999999997726],82,0,82,0,1,60196cc05e7bc705c9ab5891,23,Kobieta,2022-05-28_09h14.26.952,task,2021.1.4,Win32,60.86427267,628b806c463b948bc644b84f,6291cbc65848ef81f95f8dbc,,,,,,,,,,,,,,,,,,,,,,,,,,,,,,,,,,,,,,,,,,,,,,,,,,,,,,,,,,,,,,,,,,,,,,,,,,,,,,,,,,,,,,,,,,,,,,,,,,,,,,,
,,"[""comma""]",0,[0.36330000000072005],83,0,83,0,1,60196cc05e7bc705c9ab5891,23,Kobieta,2022-05-28_09h14.26.952,task,2021.1.4,Win32,60.86427267,628b806c463b948bc644b84f,6291cbc65848ef81f95f8dbc,,,,,,,,,,,,,,,,,,,,,,,,,,,,,,,,,,,,,,,,,,,,,,,,,,,,,,,,,,,,,,,,,,,,,,,,,,,,,,,,,,,,,,,,,,,,,,,,,,,,,,,
,,"[""period""]",0,[0.5694000000003712],84,0,84,0,1,60196cc05e7bc705c9ab5891,23,Kobieta,2022-05-28_09h14.26.952,task,2021.1.4,Win32,60.86427267,628b806c463b948bc644b84f,6291cbc65848ef81f95f8dbc,,,,,,,,,,,,,,,,,,,,,,,,,,,,,,,,,,,,,,,,,,,,,,,,,,,,,,,,,,,,,,,,,,,,,,,,,,,,,,,,,,,,,,,,,,,,,,,,,,,,,,,
,,"[""comma""]",0,[0.3370999999996229],85,0,85,0,1,60196cc05e7bc705c9ab5891,23,Kobieta,2022-05-28_09h14.26.952,task,2021.1.4,Win32,60.86427267,628b806c463b948bc644b84f,6291cbc65848ef81f95f8dbc,,,,,,,,,,,,,,,,,,,,,,,,,,,,,,,,,,,,,,,,,,,,,,,,,,,,,,,,,,,,,,,,,,,,,,,,,,,,,,,,,,,,,,,,,,,,,,,,,,,,,,,
,,"[""period""]",0,[0.2503000000007205],86,0,86,0,1,60196cc05e7bc705c9ab5891,23,Kobieta,2022-05-28_09h14.26.952,task,2021.1.4,Win32,60.86427267,628b806c463b948bc644b84f,6291cbc65848ef81f95f8dbc,,,,,,,,,,,,,,,,,,,,,,,,,,,,,,,,,,,,,,,,,,,,,,,,,,,,,,,,,,,,,,,,,,,,,,,,,,,,,,,,,,,,,,,,,,,,,,,,,,,,,,,
,,"[""comma"",""period""]",0,"[0.2574999999999932,1.964900000000398]",87,0,87,0,1,60196cc05e7bc705c9ab5891,23,Kobieta,2022-05-28_09h14.26.952,task,2021.1.4,Win32,60.86427267,628b806c463b948bc644b84f,6291cbc65848ef81f95f8dbc,,,,,,,,,,,,,,,,,,,,,,,,,,,,,,,,,,,,,,,,,,,,,,,,,,,,,,,,,,,,,,,,,,,,,,,,,,,,,,,,,,,,,,,,,,,,,,,,,,,,,,,
,,"[""comma""]",0,[1.8667000000011171],88,0,88,0,1,60196cc05e7bc705c9ab5891,23,Kobieta,2022-05-28_09h14.26.952,task,2021.1.4,Win32,60.86427267,628b806c463b948bc644b84f,6291cbc65848ef81f95f8dbc,,,,,,,,,,,,,,,,,,,,,,,,,,,,,,,,,,,,,,,,,,,,,,,,,,,,,,,,,,,,,,,,,,,,,,,,,,,,,,,,,,,,,,,,,,,,,,,,,,,,,,,
,,,0,,89,0,89,0,1,60196cc05e7bc705c9ab5891,23,Kobieta,2022-05-28_09h14.26.952,task,2021.1.4,Win32,60.86427267,628b806c463b948bc644b84f,6291cbc65848ef81f95f8dbc,,,,,,,,,,,,,,,,,,,,,,,,,,,,,,,,,,,,,,,,,,,,,,,,,,,,,,,,,,,,,,,,,,,,,,,,,,,,,,,,,,,,,,,,,,,,,,,,,,,,,,,
,,"[""comma""]",0,[0.3047000000011053],90,0,90,0,1,60196cc05e7bc705c9ab5891,23,Kobieta,2022-05-28_09h14.26.952,task,2021.1.4,Win32,60.86427267,628b806c463b948bc644b84f,6291cbc65848ef81f95f8dbc,,,,,,,,,,,,,,,,,,,,,,,,,,,,,,,,,,,,,,,,,,,,,,,,,,,,,,,,,,,,,,,,,,,,,,,,,,,,,,,,,,,,,,,,,,,,,,,,,,,,,,,
,,"[""period""]",0,[0.2890000000000441],91,0,91,0,1,60196cc05e7bc705c9ab5891,23,Kobieta,2022-05-28_09h14.26.952,task,2021.1.4,Win32,60.86427267,628b806c463b948bc644b84f,6291cbc65848ef81f95f8dbc,,,,,,,,,,,,,,,,,,,,,,,,,,,,,,,,,,,,,,,,,,,,,,,,,,,,,,,,,,,,,,,,,,,,,,,,,,,,,,,,,,,,,,,,,,,,,,,,,,,,,,,
,,"[""period""]",0,[0.3151999999992654],92,0,92,0,1,60196cc05e7bc705c9ab5891,23,Kobieta,2022-05-28_09h14.26.952,task,2021.1.4,Win32,60.86427267,628b806c463b948bc644b84f,6291cbc65848ef81f95f8dbc,,,,,,,,,,,,,,,,,,,,,,,,,,,,,,,,,,,,,,,,,,,,,,,,,,,,,,,,,,,,,,,,,,,,,,,,,,,,,,,,,,,,,,,,,,,,,,,,,,,,,,,
,,"[""period""]",0,[0.3146999999992772],93,0,93,0,1,60196cc05e7bc705c9ab5891,23,Kobieta,2022-05-28_09h14.26.952,task,2021.1.4,Win32,60.86427267,628b806c463b948bc644b84f,6291cbc65848ef81f95f8dbc,,,,,,,,,,,,,,,,,,,,,,,,,,,,,,,,,,,,,,,,,,,,,,,,,,,,,,,,,,,,,,,,,,,,,,,,,,,,,,,,,,,,,,,,,,,,,,,,,,,,,,,
,,"[""comma""]",0,[0.3216999999992822],94,0,94,0,1,60196cc05e7bc705c9ab5891,23,Kobieta,2022-05-28_09h14.26.952,task,2021.1.4,Win32,60.86427267,628b806c463b948bc644b84f,6291cbc65848ef81f95f8dbc,,,,,,,,,,,,,,,,,,,,,,,,,,,,,,,,,,,,,,,,,,,,,,,,,,,,,,,,,,,,,,,,,,,,,,,,,,,,,,,,,,,,,,,,,,,,,,,,,,,,,,,
,,"[""comma""]",0,[0.2814999999999941],95,0,95,0,1,60196cc05e7bc705c9ab5891,23,Kobieta,2022-05-28_09h14.26.952,task,2021.1.4,Win32,60.86427267,628b806c463b948bc644b84f,6291cbc65848ef81f95f8dbc,,,,,,,,,,,,,,,,,,,,,,,,,,,,,,,,,,,,,,,,,,,,,,,,,,,,,,,,,,,,,,,,,,,,,,,,,,,,,,,,,,,,,,,,,,,,,,,,,,,,,,,
,,"[""period""]",0,[0.22559999999964475],96,0,96,0,1,60196cc05e7bc705c9ab5891,23,Kobieta,2022-05-28_09h14.26.952,task,2021.1.4,Win32,60.86427267,628b806c463b948bc644b84f,6291cbc65848ef81f95f8dbc,,,,,,,,,,,,,,,,,,,,,,,,,,,,,,,,,,,,,,,,,,,,,,,,,,,,,,,,,,,,,,,,,,,,,,,,,,,,,,,,,,,,,,,,,,,,,,,,,,,,,,,
,,"[""comma""]",0,[0.304900000000373],97,0,97,0,1,60196cc05e7bc705c9ab5891,23,Kobieta,2022-05-28_09h14.26.952,task,2021.1.4,Win32,60.86427267,628b806c463b948bc644b84f,6291cbc65848ef81f95f8dbc,,,,,,,,,,,,,,,,,,,,,,,,,,,,,,,,,,,,,,,,,,,,,,,,,,,,,,,,,,,,,,,,,,,,,,,,,,,,,,,,,,,,,,,,,,,,,,,,,,,,,,,
,,"[""period""]",0,[0.28930000000070777],98,0,98,0,1,60196cc05e7bc705c9ab5891,23,Kobieta,2022-05-28_09h14.26.952,task,2021.1.4,Win32,60.86427267,628b806c463b948bc644b84f,6291cbc65848ef81f95f8dbc,,,,,,,,,,,,,,,,,,,,,,,,,,,,,,,,,,,,,,,,,,,,,,,,,,,,,,,,,,,,,,,,,,,,,,,,,,,,,,,,,,,,,,,,,,,,,,,,,,,,,,,
,,"[""period""]",0,[0.28979999999887696],99,0,99,0,1,60196cc05e7bc705c9ab5891,23,Kobieta,2022-05-28_09h14.26.952,task,2021.1.4,Win32,60.86427267,628b806c463b948bc644b84f,6291cbc65848ef81f95f8dbc,,,,,,,,,,,,,,,,,,,,,,,,,,,,,,,,,,,,,,,,,,,,,,,,,,,,,,,,,,,,,,,,,,,,,,,,,,,,,,,,,,,,,,,,,,,,,,,,,,,,,,,
,,"[""period""]",0,[0.4426999999992631],100,0,100,0,1,60196cc05e7bc705c9ab5891,23,Kobieta,2022-05-28_09h14.26.952,task,2021.1.4,Win32,60.86427267,628b806c463b948bc644b84f,6291cbc65848ef81f95f8dbc,,,,,,,,,,,,,,,,,,,,,,,,,,,,,,,,,,,,,,,,,,,,,,,,,,,,,,,,,,,,,,,,,,,,,,,,,,,,,,,,,,,,,,,,,,,,,,,,,,,,,,,
,,"[""comma""]",0,[0.3768000000007419],101,0,101,0,1,60196cc05e7bc705c9ab5891,23,Kobieta,2022-05-28_09h14.26.952,task,2021.1.4,Win32,60.86427267,628b806c463b948bc644b84f,6291cbc65848ef81f95f8dbc,,,,,,,,,,,,,,,,,,,,,,,,,,,,,,,,,,,,,,,,,,,,,,,,,,,,,,,,,,,,,,,,,,,,,,,,,,,,,,,,,,,,,,,,,,,,,,,,,,,,,,,
,,"[""comma""]",0,[0.3855999999996129],102,0,102,0,1,60196cc05e7bc705c9ab5891,23,Kobieta,2022-05-28_09h14.26.952,task,2021.1.4,Win32,60.86427267,628b806c463b948bc644b84f,6291cbc65848ef81f95f8dbc,,,,,,,,,,,,,,,,,,,,,,,,,,,,,,,,,,,,,,,,,,,,,,,,,,,,,,,,,,,,,,,,,,,,,,,,,,,,,,,,,,,,,,,,,,,,,,,,,,,,,,,
,,"[""period""]",0,[0.5766999999992777],103,0,103,0,1,60196cc05e7bc705c9ab5891,23,Kobieta,2022-05-28_09h14.26.952,task,2021.1.4,Win32,60.86427267,628b806c463b948bc644b84f,6291cbc65848ef81f95f8dbc,,,,,,,,,,,,,,,,,,,,,,,,,,,,,,,,,,,,,,,,,,,,,,,,,,,,,,,,,,,,,,,,,,,,,,,,,,,,,,,,,,,,,,,,,,,,,,,,,,,,,,,
,,"[""comma""]",0,[0.6091999999992481],104,0,104,0,1,60196cc05e7bc705c9ab5891,23,Kobieta,2022-05-28_09h14.26.952,task,2021.1.4,Win32,60.86427267,628b806c463b948bc644b84f,6291cbc65848ef81f95f8dbc,,,,,,,,,,,,,,,,,,,,,,,,,,,,,,,,,,,,,,,,,,,,,,,,,,,,,,,,,,,,,,,,,,,,,,,,,,,,,,,,,,,,,,,,,,,,,,,,,,,,,,,
,,"[""period""]",0,[0.4891999999992436],105,0,105,0,1,60196cc05e7bc705c9ab5891,23,Kobieta,2022-05-28_09h14.26.952,task,2021.1.4,Win32,60.86427267,628b806c463b948bc644b84f,6291cbc65848ef81f95f8dbc,,,,,,,,,,,,,,,,,,,,,,,,,,,,,,,,,,,,,,,,,,,,,,,,,,,,,,,,,,,,,,,,,,,,,,,,,,,,,,,,,,,,,,,,,,,,,,,,,,,,,,,
,,"[""period""]",0,[0.4889000000003989],106,0,106,0,1,60196cc05e7bc705c9ab5891,23,Kobieta,2022-05-28_09h14.26.952,task,2021.1.4,Win32,60.86427267,628b806c463b948bc644b84f,6291cbc65848ef81f95f8dbc,,,,,,,,,,,,,,,,,,,,,,,,,,,,,,,,,,,,,,,,,,,,,,,,,,,,,,,,,,,,,,,,,,,,,,,,,,,,,,,,,,,,,,,,,,,,,,,,,,,,,,,
,,"[""comma""]",0,[0.47319999999928086],107,0,107,0,1,60196cc05e7bc705c9ab5891,23,Kobieta,2022-05-28_09h14.26.952,task,2021.1.4,Win32,60.86427267,628b806c463b948bc644b84f,6291cbc65848ef81f95f8dbc,,,,,,,,,,,,,,,,,,,,,,,,,,,,,,,,,,,,,,,,,,,,,,,,,,,,,,,,,,,,,,,,,,,,,,,,,,,,,,,,,,,,,,,,,,,,,,,,,,,,,,,
,,"[""period""]",0,[0.3381999999992331],108,0,108,0,1,60196cc05e7bc705c9ab5891,23,Kobieta,2022-05-28_09h14.26.952,task,2021.1.4,Win32,60.86427267,628b806c463b948bc644b84f,6291cbc65848ef81f95f8dbc,,,,,,,,,,,,,,,,,,,,,,,,,,,,,,,,,,,,,,,,,,,,,,,,,,,,,,,,,,,,,,,,,,,,,,,,,,,,,,,,,,,,,,,,,,,,,,,,,,,,,,,
,,"[""period""]",0,[0.353399999998544],109,0,109,0,1,60196cc05e7bc705c9ab5891,23,Kobieta,2022-05-28_09h14.26.952,task,2021.1.4,Win32,60.86427267,628b806c463b948bc644b84f,6291cbc65848ef81f95f8dbc,,,,,,,,,,,,,,,,,,,,,,,,,,,,,,,,,,,,,,,,,,,,,,,,,,,,,,,,,,,,,,,,,,,,,,,,,,,,,,,,,,,,,,,,,,,,,,,,,,,,,,,
,,"[""period""]",0,[0.49770000000108894],110,0,110,0,1,60196cc05e7bc705c9ab5891,23,Kobieta,2022-05-28_09h14.26.952,task,2021.1.4,Win32,60.86427267,628b806c463b948bc644b84f,6291cbc65848ef81f95f8dbc,,,,,,,,,,,,,,,,,,,,,,,,,,,,,,,,,,,,,,,,,,,,,,,,,,,,,,,,,,,,,,,,,,,,,,,,,,,,,,,,,,,,,,,,,,,,,,,,,,,,,,,
,,"[""comma""]",0,[0.3655999999996311],111,0,111,0,1,60196cc05e7bc705c9ab5891,23,Kobieta,2022-05-28_09h14.26.952,task,2021.1.4,Win32,60.86427267,628b806c463b948bc644b84f,6291cbc65848ef81f95f8dbc,,,,,,,,,,,,,,,,,,,,,,,,,,,,,,,,,,,,,,,,,,,,,,,,,,,,,,,,,,,,,,,,,,,,,,,,,,,,,,,,,,,,,,,,,,,,,,,,,,,,,,,
,,"[""comma""]",0,[0.3534999999999968],112,0,112,0,1,60196cc05e7bc705c9ab5891,23,Kobieta,2022-05-28_09h14.26.952,task,2021.1.4,Win32,60.86427267,628b806c463b948bc644b84f,6291cbc65848ef81f95f8dbc,,,,,,,,,,,,,,,,,,,,,,,,,,,,,,,,,,,,,,,,,,,,,,,,,,,,,,,,,,,,,,,,,,,,,,,,,,,,,,,,,,,,,,,,,,,,,,,,,,,,,,,
,,"[""comma""]",0,[0.27380000000073323],113,0,113,0,1,60196cc05e7bc705c9ab5891,23,Kobieta,2022-05-28_09h14.26.952,task,2021.1.4,Win32,60.86427267,628b806c463b948bc644b84f,6291cbc65848ef81f95f8dbc,,,,,,,,,,,,,,,,,,,,,,,,,,,,,,,,,,,,,,,,,,,,,,,,,,,,,,,,,,,,,,,,,,,,,,,,,,,,,,,,,,,,,,,,,,,,,,,,,,,,,,,
,,"[""period""]",0,[0.31580000000076325],114,0,114,0,1,60196cc05e7bc705c9ab5891,23,Kobieta,2022-05-28_09h14.26.952,task,2021.1.4,Win32,60.86427267,628b806c463b948bc644b84f,6291cbc65848ef81f95f8dbc,,,,,,,,,,,,,,,,,,,,,,,,,,,,,,,,,,,,,,,,,,,,,,,,,,,,,,,,,,,,,,,,,,,,,,,,,,,,,,,,,,,,,,,,,,,,,,,,,,,,,,,
,,"[""comma"",""period""]",0,"[0.33700000000004593,1.8256999999993013]",115,0,115,0,1,60196cc05e7bc705c9ab5891,23,Kobieta,2022-05-28_09h14.26.952,task,2021.1.4,Win32,60.86427267,628b806c463b948bc644b84f,6291cbc65848ef81f95f8dbc,,,,,,,,,,,,,,,,,,,,,,,,,,,,,,,,,,,,,,,,,,,,,,,,,,,,,,,,,,,,,,,,,,,,,,,,,,,,,,,,,,,,,,,,,,,,,,,,,,,,,,,
,,"[""period""]",0,[1.6979000000003452],116,0,116,0,1,60196cc05e7bc705c9ab5891,23,Kobieta,2022-05-28_09h14.26.952,task,2021.1.4,Win32,60.86427267,628b806c463b948bc644b84f,6291cbc65848ef81f95f8dbc,,,,,,,,,,,,,,,,,,,,,,,,,,,,,,,,,,,,,,,,,,,,,,,,,,,,,,,,,,,,,,,,,,,,,,,,,,,,,,,,,,,,,,,,,,,,,,,,,,,,,,,
,,"[""comma""]",0,[1.6256999999992559],117,0,117,0,1,60196cc05e7bc705c9ab5891,23,Kobieta,2022-05-28_09h14.26.952,task,2021.1.4,Win32,60.86427267,628b806c463b948bc644b84f,6291cbc65848ef81f95f8dbc,,,,,,,,,,,,,,,,,,,,,,,,,,,,,,,,,,,,,,,,,,,,,,,,,,,,,,,,,,,,,,,,,,,,,,,,,,,,,,,,,,,,,,,,,,,,,,,,,,,,,,,
,,,0,,118,0,118,0,1,60196cc05e7bc705c9ab5891,23,Kobieta,2022-05-28_09h14.26.952,task,2021.1.4,Win32,60.86427267,628b806c463b948bc644b84f,6291cbc65848ef81f95f8dbc,,,,,,,,,,,,,,,,,,,,,,,,,,,,,,,,,,,,,,,,,,,,,,,,,,,,,,,,,,,,,,,,,,,,,,,,,,,,,,,,,,,,,,,,,,,,,,,,,,,,,,,
,,"[""comma""]",0,[0.16960000000148057],119,0,119,0,1,60196cc05e7bc705c9ab5891,23,Kobieta,2022-05-28_09h14.26.952,task,2021.1.4,Win32,60.86427267,628b806c463b948bc644b84f,6291cbc65848ef81f95f8dbc,,,,,,,,,,,,,,,,,,,,,,,,,,,,,,,,,,,,,,,,,,,,,,,,,,,,,,,,,,,,,,,,,,,,,,,,,,,,,,,,,,,,,,,,,,,,,,,,,,,,,,,
,,,,,,,,,,60196cc05e7bc705c9ab5891,23,Kobieta,2022-05-28_09h14.26.952,task,2021.1.4,Win32,60.86427267,628b806c463b948bc644b84f,6291cbc65848ef81f95f8dbc,space,19.5055,space,6.9776,0,0,0,0,1,"X V Q F H G B L J M P D K C T S W R N Z
",,,,,,,,,,,,,,,,,,,,,,,,,,,,,,,,,,,,,,,,,,,,,,,,,,,,,,,,,,,,,,,,,,,,,,,,,,,,,,,,,,,,,,,,,,,,,
,,,,,,,,,,60196cc05e7bc705c9ab5891,23,Kobieta,2022-05-28_09h14.26.952,task,2021.1.4,Win32,60.86427267,628b806c463b948bc644b84f,6291cbc65848ef81f95f8dbc,,,,,1,0,1,0,1,"X V Q F H G B L J M P D K C T S W R N Z
",,,,,,,,,,,,,,,,,,,,,,,,,,,,,,,,,,,,,,,,,,,,,,,,,,,,,,,,,,,,,,,,,,,,,,,,,,,,,,,,,,,,,,,,,,,,,
,,,,,,,,,,60196cc05e7bc705c9ab5891,23,Kobieta,2022-05-28_09h14.26.952,task,2021.1.4,Win32,60.86427267,628b806c463b948bc644b84f,6291cbc65848ef81f95f8dbc,,,,,,,,,,,zg,"[""z"",""g""]","[1.617900000000418,2.0091999999992822,4.082900000000393]",1,ZG,0,0,0,0,1,,,,,,,,,,,,,,,,,,,,,,,,,,,,,,,,,,,,,,,,,,,,,,,,,,,,,,,,,,,,,,,,,,,,,,,,,,,,,,,,,,,
,,,,,,,,,,60196cc05e7bc705c9ab5891,23,Kobieta,2022-05-28_09h14.26.952,task,2021.1.4,Win32,60.86427267,628b806c463b948bc644b84f,6291cbc65848ef81f95f8dbc,,,,,0,0,0,0,1,"X V Q F H G B L J M P D K C T S W R N Z
",,,,,,,,,,,,,,,,,,,,,,,,,,,,,,,,,,,,,,,,,,,,,,,,,,,,,,,,,,,,,,,,,,,,,,,,,,,,,,,,,,,,,,,,,,,,,
,,,,,,,,,,60196cc05e7bc705c9ab5891,23,Kobieta,2022-05-28_09h14.26.952,task,2021.1.4,Win32,60.86427267,628b806c463b948bc644b84f,6291cbc65848ef81f95f8dbc,,,,,1,0,1,0,1,"X V Q F H G B L J M P D K C T S W R N Z
",,,,,,,,,,,,,,,,,,,,,,,,,,,,,,,,,,,,,,,,,,,,,,,,,,,,,,,,,,,,,,,,,,,,,,,,,,,,,,,,,,,,,,,,,,,,,
,,,,,,,,,,60196cc05e7bc705c9ab5891,23,Kobieta,2022-05-28_09h14.26.952,task,2021.1.4,Win32,60.86427267,628b806c463b948bc644b84f,6291cbc65848ef81f95f8dbc,,,,,,,,,,,cc,"[""c"",""c""]","[1.200399999998524,1.3718999999985044,1.5395000000000323]",1,CC,1,0,1,0,1,,,,,,,,,,,,,,,,,,,,,,,,,,,,,,,,,,,,,,,,,,,,,,,,,,,,,,,,,,,,,,,,,,,,,,,,,,,,,,,,,,,
,,,,,,,,,,60196cc05e7bc705c9ab5891,23,Kobieta,2022-05-28_09h14.26.952,task,2021.1.4,Win32,60.86427267,628b806c463b948bc644b84f,6291cbc65848ef81f95f8dbc,,,,,0,0,0,0,1,"X V Q F H G B L J M P D K C T S W R N Z
",,,,,,,,,,,,,,,,,,,,,,,,,,,,,,,,,,,,,,,,,,,,,,,,,,,,,,,,,,,,,,,,,,,,,,,,,,,,,,,,,,,,,,,,,,,,,
,,,,,,,,,,60196cc05e7bc705c9ab5891,23,Kobieta,2022-05-28_09h14.26.952,task,2021.1.4,Win32,60.86427267,628b806c463b948bc644b84f,6291cbc65848ef81f95f8dbc,,,,,1,0,1,0,1,"X V Q F H G B L J M P D K C T S W R N Z
",,,,,,,,,,,,,,,,,,,,,,,,,,,,,,,,,,,,,,,,,,,,,,,,,,,,,,,,,,,,,,,,,,,,,,,,,,,,,,,,,,,,,,,,,,,,,
,,,,,,,,,,60196cc05e7bc705c9ab5891,23,Kobieta,2022-05-28_09h14.26.952,task,2021.1.4,Win32,60.86427267,628b806c463b948bc644b84f,6291cbc65848ef81f95f8dbc,,,,,2,0,2,0,1,"X V Q F H G B L J M P D K C T S W R N Z
",,,,,,,,,,,,,,,,,,,,,,,,,,,,,,,,,,,,,,,,,,,,,,,,,,,,,,,,,,,,,,,,,,,,,,,,,,,,,,,,,,,,,,,,,,,,,
,,,,,,,,,,60196cc05e7bc705c9ab5891,23,Kobieta,2022-05-28_09h14.26.952,task,2021.1.4,Win32,60.86427267,628b806c463b948bc644b84f,6291cbc65848ef81f95f8dbc,,,,,,,,,,,xvf,"[""x"",""v"",""f""]","[1.1450999999996725,1.9420000000000073,2.438500000000033,2.702500000000043]",1,XVF,2,0,2,0,1,,,,,,,,,,,,,,,,,,,,,,,,,,,,,,,,,,,,,,,,,,,,,,,,,,,,,,,,,,,,,,,,,,,,,,,,,,,,,,,,,,,
,,,,,,,,,,60196cc05e7bc705c9ab5891,23,Kobieta,2022-05-28_09h14.26.952,task,2021.1.4,Win32,60.86427267,628b806c463b948bc644b84f,6291cbc65848ef81f95f8dbc,,,,,0,0,0,0,1,"X V Q F H G B L J M P D K C T S W R N Z
",,,,,,,,,,,,,,,,,,,,,,,,,,,,,,,,,,,,,,,,,,,,,,,,,,,,,,,,,,,,,,,,,,,,,,,,,,,,,,,,,,,,,,,,,,,,,
,,,,,,,,,,60196cc05e7bc705c9ab5891,23,Kobieta,2022-05-28_09h14.26.952,task,2021.1.4,Win32,60.86427267,628b806c463b948bc644b84f,6291cbc65848ef81f95f8dbc,,,,,1,0,1,0,1,"X V Q F H G B L J M P D K C T S W R N Z
",,,,,,,,,,,,,,,,,,,,,,,,,,,,,,,,,,,,,,,,,,,,,,,,,,,,,,,,,,,,,,,,,,,,,,,,,,,,,,,,,,,,,,,,,,,,,
,,,,,,,,,,60196cc05e7bc705c9ab5891,23,Kobieta,2022-05-28_09h14.26.952,task,2021.1.4,Win32,60.86427267,628b806c463b948bc644b84f,6291cbc65848ef81f95f8dbc,,,,,2,0,2,0,1,"X V Q F H G B L J M P D K C T S W R N Z
",,,,,,,,,,,,,,,,,,,,,,,,,,,,,,,,,,,,,,,,,,,,,,,,,,,,,,,,,,,,,,,,,,,,,,,,,,,,,,,,,,,,,,,,,,,,,
,,,,,,,,,,60196cc05e7bc705c9ab5891,23,Kobieta,2022-05-28_09h14.26.952,task,2021.1.4,Win32,60.86427267,628b806c463b948bc644b84f,6291cbc65848ef81f95f8dbc,,,,,,,,,,,wtk,"[""w"",""t"",""k""]","[1.3190999999995938,1.742999999999995,2.8788000000007514,3.0540999999996075]",1,WTK,3,0,3,0,1,,,,,,,,,,,,,,,,,,,,,,,,,,,,,,,,,,,,,,,,,,,,,,,,,,,,,,,,,,,,,,,,,,,,,,,,,,,,,,,,,,,
,,,,,,,,,,60196cc05e7bc705c9ab5891,23,Kobieta,2022-05-28_09h14.26.952,task,2021.1.4,Win32,60.86427267,628b806c463b948bc644b84f,6291cbc65848ef81f95f8dbc,,,,,0,0,0,0,1,"X V Q F H G B L J M P D K C T S W R N Z
",,,,,,,,,,,,,,,,,,,,,,,,,,,,,,,,,,,,,,,,,,,,,,,,,,,,,,,,,,,,,,,,,,,,,,,,,,,,,,,,,,,,,,,,,,,,,
,,,,,,,,,,60196cc05e7bc705c9ab5891,23,Kobieta,2022-05-28_09h14.26.952,task,2021.1.4,Win32,60.86427267,628b806c463b948bc644b84f,6291cbc65848ef81f95f8dbc,,,,,1,0,1,0,1,"X V Q F H G B L J M P D K C T S W R N Z
",,,,,,,,,,,,,,,,,,,,,,,,,,,,,,,,,,,,,,,,,,,,,,,,,,,,,,,,,,,,,,,,,,,,,,,,,,,,,,,,,,,,,,,,,,,,,
,,,,,,,,,,60196cc05e7bc705c9ab5891,23,Kobieta,2022-05-28_09h14.26.952,task,2021.1.4,Win32,60.86427267,628b806c463b948bc644b84f,6291cbc65848ef81f95f8dbc,,,,,2,0,2,0,1,"X V Q F H G B L J M P D K C T S W R N Z
",,,,,,,,,,,,,,,,,,,,,,,,,,,,,,,,,,,,,,,,,,,,,,,,,,,,,,,,,,,,,,,,,,,,,,,,,,,,,,,,,,,,,,,,,,,,,
,,,,,,,,,,60196cc05e7bc705c9ab5891,23,Kobieta,2022-05-28_09h14.26.952,task,2021.1.4,Win32,60.86427267,628b806c463b948bc644b84f,6291cbc65848ef81f95f8dbc,,,,,3,0,3,0,1,"X V Q F H G B L J M P D K C T S W R N Z
",,,,,,,,,,,,,,,,,,,,,,,,,,,,,,,,,,,,,,,,,,,,,,,,,,,,,,,,,,,,,,,,,,,,,,,,,,,,,,,,,,,,,,,,,,,,,
,,,,,,,,,,60196cc05e7bc705c9ab5891,23,Kobieta,2022-05-28_09h14.26.952,task,2021.1.4,Win32,60.86427267,628b806c463b948bc644b84f,6291cbc65848ef81f95f8dbc,,,,,,,,,,,lnkn,"[""l"",""n"",""k"",""n""]","[1.092899999998508,1.3327999999988833,1.5559999999999832,1.804399999998509,2.04619999999926]",0,LKNK,4,0,4,0,1,,,,,,,,,,,,,,,,,,,,,,,,,,,,,,,,,,,,,,,,,,,,,,,,,,,,,,,,,,,,,,,,,,,,,,,,,,,,,,,,,,,
,,,,,,,,,,60196cc05e7bc705c9ab5891,23,Kobieta,2022-05-28_09h14.26.952,task,2021.1.4,Win32,60.86427267,628b806c463b948bc644b84f,6291cbc65848ef81f95f8dbc,,,,,0,0,0,0,1,"X V Q F H G B L J M P D K C T S W R N Z
",,,,,,,,,,,,,,,,,,,,,,,,,,,,,,,,,,,,,,,,,,,,,,,,,,,,,,,,,,,,,,,,,,,,,,,,,,,,,,,,,,,,,,,,,,,,,
,,,,,,,,,,60196cc05e7bc705c9ab5891,23,Kobieta,2022-05-28_09h14.26.952,task,2021.1.4,Win32,60.86427267,628b806c463b948bc644b84f,6291cbc65848ef81f95f8dbc,,,,,1,0,1,0,1,"X V Q F H G B L J M P D K C T S W R N Z
",,,,,,,,,,,,,,,,,,,,,,,,,,,,,,,,,,,,,,,,,,,,,,,,,,,,,,,,,,,,,,,,,,,,,,,,,,,,,,,,,,,,,,,,,,,,,
,,,,,,,,,,60196cc05e7bc705c9ab5891,23,Kobieta,2022-05-28_09h14.26.952,task,2021.1.4,Win32,60.86427267,628b806c463b948bc644b84f,6291cbc65848ef81f95f8dbc,,,,,2,0,2,0,1,"X V Q F H G B L J M P D K C T S W R N Z
",,,,,,,,,,,,,,,,,,,,,,,,,,,,,,,,,,,,,,,,,,,,,,,,,,,,,,,,,,,,,,,,,,,,,,,,,,,,,,,,,,,,,,,,,,,,,
,,,,,,,,,,60196cc05e7bc705c9ab5891,23,Kobieta,2022-05-28_09h14.26.952,task,2021.1.4,Win32,60.86427267,628b806c463b948bc644b84f,6291cbc65848ef81f95f8dbc,,,,,3,0,3,0,1,"X V Q F H G B L J M P D K C T S W R N Z
",,,,,,,,,,,,,,,,,,,,,,,,,,,,,,,,,,,,,,,,,,,,,,,,,,,,,,,,,,,,,,,,,,,,,,,,,,,,,,,,,,,,,,,,,,,,,
,,,,,,,,,,60196cc05e7bc705c9ab5891,23,Kobieta,2022-05-28_09h14.26.952,task,2021.1.4,Win32,60.86427267,628b806c463b948bc644b84f,6291cbc65848ef81f95f8dbc,,,,,,,,,,,knqf,"[""k"",""n"",""q"",""f""]","[0.9529000000003975,1.1469000000004144,1.8657999999988988,2.5819000000004166,2.7361999999992577]",1,KNQF,5,0,5,0,1,,,,,,,,,,,,,,,,,,,,,,,,,,,,,,,,,,,,,,,,,,,,,,,,,,,,,,,,,,,,,,,,,,,,,,,,,,,,,,,,,,,
,,,,,,,,,,60196cc05e7bc705c9ab5891,23,Kobieta,2022-05-28_09h14.26.952,task,2021.1.4,Win32,60.86427267,628b806c463b948bc644b84f,6291cbc65848ef81f95f8dbc,,,,,0,0,0,0,1,"X V Q F H G B L J M P D K C T S W R N Z
",,,,,,,,,,,,,,,,,,,,,,,,,,,,,,,,,,,,,,,,,,,,,,,,,,,,,,,,,,,,,,,,,,,,,,,,,,,,,,,,,,,,,,,,,,,,,
,,,,,,,,,,60196cc05e7bc705c9ab5891,23,Kobieta,2022-05-28_09h14.26.952,task,2021.1.4,Win32,60.86427267,628b806c463b948bc644b84f,6291cbc65848ef81f95f8dbc,,,,,1,0,1,0,1,"X V Q F H G B L J M P D K C T S W R N Z
",,,,,,,,,,,,,,,,,,,,,,,,,,,,,,,,,,,,,,,,,,,,,,,,,,,,,,,,,,,,,,,,,,,,,,,,,,,,,,,,,,,,,,,,,,,,,
,,,,,,,,,,60196cc05e7bc705c9ab5891,23,Kobieta,2022-05-28_09h14.26.952,task,2021.1.4,Win32,60.86427267,628b806c463b948bc644b84f,6291cbc65848ef81f95f8dbc,,,,,2,0,2,0,1,"X V Q F H G B L J M P D K C T S W R N Z
",,,,,,,,,,,,,,,,,,,,,,,,,,,,,,,,,,,,,,,,,,,,,,,,,,,,,,,,,,,,,,,,,,,,,,,,,,,,,,,,,,,,,,,,,,,,,
,,,,,,,,,,60196cc05e7bc705c9ab5891,23,Kobieta,2022-05-28_09h14.26.952,task,2021.1.4,Win32,60.86427267,628b806c463b948bc644b84f,6291cbc65848ef81f95f8dbc,,,,,3,0,3,0,1,"X V Q F H G B L J M P D K C T S W R N Z
",,,,,,,,,,,,,,,,,,,,,,,,,,,,,,,,,,,,,,,,,,,,,,,,,,,,,,,,,,,,,,,,,,,,,,,,,,,,,,,,,,,,,,,,,,,,,
,,,,,,,,,,60196cc05e7bc705c9ab5891,23,Kobieta,2022-05-28_09h14.26.952,task,2021.1.4,Win32,60.86427267,628b806c463b948bc644b84f,6291cbc65848ef81f95f8dbc,,,,,,,,,,,gdlx,"[""g"",""d"",""l"",""x""]","[1.4466999999992822,2.034599999999614,2.522800000000757,3.632699999999261,3.7864000000003557]",1,GDLX,6,0,6,0,1,,,,,,,,,,,,,,,,,,,,,,,,,,,,,,,,,,,,,,,,,,,,,,,,,,,,,,,,,,,,,,,,,,,,,,,,,,,,,,,,,,,
,,,,,,,,,,60196cc05e7bc705c9ab5891,23,Kobieta,2022-05-28_09h14.26.952,task,2021.1.4,Win32,60.86427267,628b806c463b948bc644b84f,6291cbc65848ef81f95f8dbc,,,,,0,0,0,0,1,"X V Q F H G B L J M P D K C T S W R N Z
",,,,,,,,,,,,,,,,,,,,,,,,,,,,,,,,,,,,,,,,,,,,,,,,,,,,,,,,,,,,,,,,,,,,,,,,,,,,,,,,,,,,,,,,,,,,,
,,,,,,,,,,60196cc05e7bc705c9ab5891,23,Kobieta,2022-05-28_09h14.26.952,task,2021.1.4,Win32,60.86427267,628b806c463b948bc644b84f,6291cbc65848ef81f95f8dbc,,,,,1,0,1,0,1,"X V Q F H G B L J M P D K C T S W R N Z
",,,,,,,,,,,,,,,,,,,,,,,,,,,,,,,,,,,,,,,,,,,,,,,,,,,,,,,,,,,,,,,,,,,,,,,,,,,,,,,,,,,,,,,,,,,,,
,,,,,,,,,,60196cc05e7bc705c9ab5891,23,Kobieta,2022-05-28_09h14.26.952,task,2021.1.4,Win32,60.86427267,628b806c463b948bc644b84f,6291cbc65848ef81f95f8dbc,,,,,2,0,2,0,1,"X V Q F H G B L J M P D K C T S W R N Z
",,,,,,,,,,,,,,,,,,,,,,,,,,,,,,,,,,,,,,,,,,,,,,,,,,,,,,,,,,,,,,,,,,,,,,,,,,,,,,,,,,,,,,,,,,,,,
,,,,,,,,,,60196cc05e7bc705c9ab5891,23,Kobieta,2022-05-28_09h14.26.952,task,2021.1.4,Win32,60.86427267,628b806c463b948bc644b84f,6291cbc65848ef81f95f8dbc,,,,,3,0,3,0,1,"X V Q F H G B L J M P D K C T S W R N Z
",,,,,,,,,,,,,,,,,,,,,,,,,,,,,,,,,,,,,,,,,,,,,,,,,,,,,,,,,,,,,,,,,,,,,,,,,,,,,,,,,,,,,,,,,,,,,
,,,,,,,,,,60196cc05e7bc705c9ab5891,23,Kobieta,2022-05-28_09h14.26.952,task,2021.1.4,Win32,60.86427267,628b806c463b948bc644b84f,6291cbc65848ef81f95f8dbc,,,,,4,0,4,0,1,"X V Q F H G B L J M P D K C T S W R N Z
",,,,,,,,,,,,,,,,,,,,,,,,,,,,,,,,,,,,,,,,,,,,,,,,,,,,,,,,,,,,,,,,,,,,,,,,,,,,,,,,,,,,,,,,,,,,,
,,,,,,,,,,60196cc05e7bc705c9ab5891,23,Kobieta,2022-05-28_09h14.26.952,task,2021.1.4,Win32,60.86427267,628b806c463b948bc644b84f,6291cbc65848ef81f95f8dbc,,,,,,,,,,,mjsbl,"[""m"",""j"",""s"",""b"",""l""]","[0.8797000000010939,1.0799000000003502,1.3998000000007096,1.7982000000010885,2.223000000000013,2.3986000000014656]",1,MJSBL,7,0,7,0,1,,,,,,,,,,,,,,,,,,,,,,,,,,,,,,,,,,,,,,,,,,,,,,,,,,,,,,,,,,,,,,,,,,,,,,,,,,,,,,,,,,,
,,,,,,,,,,60196cc05e7bc705c9ab5891,23,Kobieta,2022-05-28_09h14.26.952,task,2021.1.4,Win32,60.86427267,628b806c463b948bc644b84f,6291cbc65848ef81f95f8dbc,,,,,0,0,0,0,1,"X V Q F H G B L J M P D K C T S W R N Z
",,,,,,,,,,,,,,,,,,,,,,,,,,,,,,,,,,,,,,,,,,,,,,,,,,,,,,,,,,,,,,,,,,,,,,,,,,,,,,,,,,,,,,,,,,,,,
,,,,,,,,,,60196cc05e7bc705c9ab5891,23,Kobieta,2022-05-28_09h14.26.952,task,2021.1.4,Win32,60.86427267,628b806c463b948bc644b84f,6291cbc65848ef81f95f8dbc,,,,,1,0,1,0,1,"X V Q F H G B L J M P D K C T S W R N Z
",,,,,,,,,,,,,,,,,,,,,,,,,,,,,,,,,,,,,,,,,,,,,,,,,,,,,,,,,,,,,,,,,,,,,,,,,,,,,,,,,,,,,,,,,,,,,
,,,,,,,,,,60196cc05e7bc705c9ab5891,23,Kobieta,2022-05-28_09h14.26.952,task,2021.1.4,Win32,60.86427267,628b806c463b948bc644b84f,6291cbc65848ef81f95f8dbc,,,,,2,0,2,0,1,"X V Q F H G B L J M P D K C T S W R N Z
",,,,,,,,,,,,,,,,,,,,,,,,,,,,,,,,,,,,,,,,,,,,,,,,,,,,,,,,,,,,,,,,,,,,,,,,,,,,,,,,,,,,,,,,,,,,,
,,,,,,,,,,60196cc05e7bc705c9ab5891,23,Kobieta,2022-05-28_09h14.26.952,task,2021.1.4,Win32,60.86427267,628b806c463b948bc644b84f,6291cbc65848ef81f95f8dbc,,,,,3,0,3,0,1,"X V Q F H G B L J M P D K C T S W R N Z
",,,,,,,,,,,,,,,,,,,,,,,,,,,,,,,,,,,,,,,,,,,,,,,,,,,,,,,,,,,,,,,,,,,,,,,,,,,,,,,,,,,,,,,,,,,,,
,,,,,,,,,,60196cc05e7bc705c9ab5891,23,Kobieta,2022-05-28_09h14.26.952,task,2021.1.4,Win32,60.86427267,628b806c463b948bc644b84f,6291cbc65848ef81f95f8dbc,,,,,4,0,4,0,1,"X V Q F H G B L J M P D K C T S W R N Z
",,,,,,,,,,,,,,,,,,,,,,,,,,,,,,,,,,,,,,,,,,,,,,,,,,,,,,,,,,,,,,,,,,,,,,,,,,,,,,,,,,,,,,,,,,,,,
,,,,,,,,,,60196cc05e7bc705c9ab5891,23,Kobieta,2022-05-28_09h14.26.952,task,2021.1.4,Win32,60.86427267,628b806c463b948bc644b84f,6291cbc65848ef81f95f8dbc,,,,,,,,,,,hrkvx,"[""h"",""r"",""k"",""v"",""x""]","[1.3187000000011153,1.5737000000011108,1.925200000001098,4.2864999999999895,5.070300000000714,5.217499999999973]",1,HRKVX,8,0,8,0,1,,,,,,,,,,,,,,,,,,,,,,,,,,,,,,,,,,,,,,,,,,,,,,,,,,,,,,,,,,,,,,,,,,,,,,,,,,,,,,,,,,,
,,,,,,,,,,60196cc05e7bc705c9ab5891,23,Kobieta,2022-05-28_09h14.26.952,task,2021.1.4,Win32,60.86427267,628b806c463b948bc644b84f,6291cbc65848ef81f95f8dbc,,,,,0,0,0,0,1,"X V Q F H G B L J M P D K C T S W R N Z
",,,,,,,,,,,,,,,,,,,,,,,,,,,,,,,,,,,,,,,,,,,,,,,,,,,,,,,,,,,,,,,,,,,,,,,,,,,,,,,,,,,,,,,,,,,,,
,,,,,,,,,,60196cc05e7bc705c9ab5891,23,Kobieta,2022-05-28_09h14.26.952,task,2021.1.4,Win32,60.86427267,628b806c463b948bc644b84f,6291cbc65848ef81f95f8dbc,,,,,1,0,1,0,1,"X V Q F H G B L J M P D K C T S W R N Z
",,,,,,,,,,,,,,,,,,,,,,,,,,,,,,,,,,,,,,,,,,,,,,,,,,,,,,,,,,,,,,,,,,,,,,,,,,,,,,,,,,,,,,,,,,,,,
,,,,,,,,,,60196cc05e7bc705c9ab5891,23,Kobieta,2022-05-28_09h14.26.952,task,2021.1.4,Win32,60.86427267,628b806c463b948bc644b84f,6291cbc65848ef81f95f8dbc,,,,,2,0,2,0,1,"X V Q F H G B L J M P D K C T S W R N Z
",,,,,,,,,,,,,,,,,,,,,,,,,,,,,,,,,,,,,,,,,,,,,,,,,,,,,,,,,,,,,,,,,,,,,,,,,,,,,,,,,,,,,,,,,,,,,
,,,,,,,,,,60196cc05e7bc705c9ab5891,23,Kobieta,2022-05-28_09h14.26.952,task,2021.1.4,Win32,60.86427267,628b806c463b948bc644b84f,6291cbc65848ef81f95f8dbc,,,,,3,0,3,0,1,"X V Q F H G B L J M P D K C T S W R N Z
",,,,,,,,,,,,,,,,,,,,,,,,,,,,,,,,,,,,,,,,,,,,,,,,,,,,,,,,,,,,,,,,,,,,,,,,,,,,,,,,,,,,,,,,,,,,,
,,,,,,,,,,60196cc05e7bc705c9ab5891,23,Kobieta,2022-05-28_09h14.26.952,task,2021.1.4,Win32,60.86427267,628b806c463b948bc644b84f,6291cbc65848ef81f95f8dbc,,,,,4,0,4,0,1,"X V Q F H G B L J M P D K C T S W R N Z
",,,,,,,,,,,,,,,,,,,,,,,,,,,,,,,,,,,,,,,,,,,,,,,,,,,,,,,,,,,,,,,,,,,,,,,,,,,,,,,,,,,,,,,,,,,,,
,,,,,,,,,,60196cc05e7bc705c9ab5891,23,Kobieta,2022-05-28_09h14.26.952,task,2021.1.4,Win32,60.86427267,628b806c463b948bc644b84f,6291cbc65848ef81f95f8dbc,,,,,5,0,5,0,1,"X V Q F H G B L J M P D K C T S W R N Z
",,,,,,,,,,,,,,,,,,,,,,,,,,,,,,,,,,,,,,,,,,,,,,,,,,,,,,,,,,,,,,,,,,,,,,,,,,,,,,,,,,,,,,,,,,,,,
,,,,,,,,,,60196cc05e7bc705c9ab5891,23,Kobieta,2022-05-28_09h14.26.952,task,2021.1.4,Win32,60.86427267,628b806c463b948bc644b84f,6291cbc65848ef81f95f8dbc,,,,,,,,,,,vhlxlk,"[""v"",""h"",""l"",""x"",""l"",""k""]","[1.3471999999992477,1.9540000000000077,2.2340000000000373,2.76400000000001,3.0340999999996257,3.747799999998904,3.9370999999996457]",1,VHLXLK,9,0,9,0,1,,,,,,,,,,,,,,,,,,,,,,,,,,,,,,,,,,,,,,,,,,,,,,,,,,,,,,,,,,,,,,,,,,,,,,,,,,,,,,,,,,,
,,,,,,,,,,60196cc05e7bc705c9ab5891,23,Kobieta,2022-05-28_09h14.26.952,task,2021.1.4,Win32,60.86427267,628b806c463b948bc644b84f,6291cbc65848ef81f95f8dbc,,,,,0,0,0,0,1,"X V Q F H G B L J M P D K C T S W R N Z
",,,,,,,,,,,,,,,,,,,,,,,,,,,,,,,,,,,,,,,,,,,,,,,,,,,,,,,,,,,,,,,,,,,,,,,,,,,,,,,,,,,,,,,,,,,,,
,,,,,,,,,,60196cc05e7bc705c9ab5891,23,Kobieta,2022-05-28_09h14.26.952,task,2021.1.4,Win32,60.86427267,628b806c463b948bc644b84f,6291cbc65848ef81f95f8dbc,,,,,1,0,1,0,1,"X V Q F H G B L J M P D K C T S W R N Z
",,,,,,,,,,,,,,,,,,,,,,,,,,,,,,,,,,,,,,,,,,,,,,,,,,,,,,,,,,,,,,,,,,,,,,,,,,,,,,,,,,,,,,,,,,,,,
,,,,,,,,,,60196cc05e7bc705c9ab5891,23,Kobieta,2022-05-28_09h14.26.952,task,2021.1.4,Win32,60.86427267,628b806c463b948bc644b84f,6291cbc65848ef81f95f8dbc,,,,,2,0,2,0,1,"X V Q F H G B L J M P D K C T S W R N Z
",,,,,,,,,,,,,,,,,,,,,,,,,,,,,,,,,,,,,,,,,,,,,,,,,,,,,,,,,,,,,,,,,,,,,,,,,,,,,,,,,,,,,,,,,,,,,
,,,,,,,,,,60196cc05e7bc705c9ab5891,23,Kobieta,2022-05-28_09h14.26.952,task,2021.1.4,Win32,60.86427267,628b806c463b948bc644b84f,6291cbc65848ef81f95f8dbc,,,,,3,0,3,0,1,"X V Q F H G B L J M P D K C T S W R N Z
",,,,,,,,,,,,,,,,,,,,,,,,,,,,,,,,,,,,,,,,,,,,,,,,,,,,,,,,,,,,,,,,,,,,,,,,,,,,,,,,,,,,,,,,,,,,,
,,,,,,,,,,60196cc05e7bc705c9ab5891,23,Kobieta,2022-05-28_09h14.26.952,task,2021.1.4,Win32,60.86427267,628b806c463b948bc644b84f,6291cbc65848ef81f95f8dbc,,,,,4,0,4,0,1,"X V Q F H G B L J M P D K C T S W R N Z
",,,,,,,,,,,,,,,,,,,,,,,,,,,,,,,,,,,,,,,,,,,,,,,,,,,,,,,,,,,,,,,,,,,,,,,,,,,,,,,,,,,,,,,,,,,,,
,,,,,,,,,,60196cc05e7bc705c9ab5891,23,Kobieta,2022-05-28_09h14.26.952,task,2021.1.4,Win32,60.86427267,628b806c463b948bc644b84f,6291cbc65848ef81f95f8dbc,,,,,5,0,5,0,1,"X V Q F H G B L J M P D K C T S W R N Z
",,,,,,,,,,,,,,,,,,,,,,,,,,,,,,,,,,,,,,,,,,,,,,,,,,,,,,,,,,,,,,,,,,,,,,,,,,,,,,,,,,,,,,,,,,,,,
,,,,,,,,,,60196cc05e7bc705c9ab5891,23,Kobieta,2022-05-28_09h14.26.952,task,2021.1.4,Win32,60.86427267,628b806c463b948bc644b84f,6291cbc65848ef81f95f8dbc,,,,,,,,,,,jclfs,"[""j"",""c"",""l"",""f"",""s""]","[1.2156999999992877,1.4610999999996466,1.8934000000003834,2.341000000000008,3.5161999999992872,3.6925999999996293]",0,JCRLFS,10,0,10,0,1,,,,,,,,,,,,,,,,,,,,,,,,,,,,,,,,,,,,,,,,,,,,,,,,,,,,,,,,,,,,,,,,,,,,,,,,,,,,,,,,,,,
,,,,,,,,,,60196cc05e7bc705c9ab5891,23,Kobieta,2022-05-28_09h14.26.952,task,2021.1.4,Win32,60.86427267,628b806c463b948bc644b84f,6291cbc65848ef81f95f8dbc,,,,,0,0,0,0,1,"X V Q F H G B L J M P D K C T S W R N Z
",,,,,,,,,,,,,,,,,,,,,,,,,,,,,,,,,,,,,,,,,,,,,,,,,,,,,,,,,,,,,,,,,,,,,,,,,,,,,,,,,,,,,,,,,,,,,
,,,,,,,,,,60196cc05e7bc705c9ab5891,23,Kobieta,2022-05-28_09h14.26.952,task,2021.1.4,Win32,60.86427267,628b806c463b948bc644b84f,6291cbc65848ef81f95f8dbc,,,,,1,0,1,0,1,"X V Q F H G B L J M P D K C T S W R N Z
",,,,,,,,,,,,,,,,,,,,,,,,,,,,,,,,,,,,,,,,,,,,,,,,,,,,,,,,,,,,,,,,,,,,,,,,,,,,,,,,,,,,,,,,,,,,,
,,,,,,,,,,60196cc05e7bc705c9ab5891,23,Kobieta,2022-05-28_09h14.26.952,task,2021.1.4,Win32,60.86427267,628b806c463b948bc644b84f,6291cbc65848ef81f95f8dbc,,,,,2,0,2,0,1,"X V Q F H G B L J M P D K C T S W R N Z
",,,,,,,,,,,,,,,,,,,,,,,,,,,,,,,,,,,,,,,,,,,,,,,,,,,,,,,,,,,,,,,,,,,,,,,,,,,,,,,,,,,,,,,,,,,,,
,,,,,,,,,,60196cc05e7bc705c9ab5891,23,Kobieta,2022-05-28_09h14.26.952,task,2021.1.4,Win32,60.86427267,628b806c463b948bc644b84f,6291cbc65848ef81f95f8dbc,,,,,3,0,3,0,1,"X V Q F H G B L J M P D K C T S W R N Z
",,,,,,,,,,,,,,,,,,,,,,,,,,,,,,,,,,,,,,,,,,,,,,,,,,,,,,,,,,,,,,,,,,,,,,,,,,,,,,,,,,,,,,,,,,,,,
,,,,,,,,,,60196cc05e7bc705c9ab5891,23,Kobieta,2022-05-28_09h14.26.952,task,2021.1.4,Win32,60.86427267,628b806c463b948bc644b84f,6291cbc65848ef81f95f8dbc,,,,,4,0,4,0,1,"X V Q F H G B L J M P D K C T S W R N Z
",,,,,,,,,,,,,,,,,,,,,,,,,,,,,,,,,,,,,,,,,,,,,,,,,,,,,,,,,,,,,,,,,,,,,,,,,,,,,,,,,,,,,,,,,,,,,
,,,,,,,,,,60196cc05e7bc705c9ab5891,23,Kobieta,2022-05-28_09h14.26.952,task,2021.1.4,Win32,60.86427267,628b806c463b948bc644b84f,6291cbc65848ef81f95f8dbc,,,,,5,0,5,0,1,"X V Q F H G B L J M P D K C T S W R N Z
",,,,,,,,,,,,,,,,,,,,,,,,,,,,,,,,,,,,,,,,,,,,,,,,,,,,,,,,,,,,,,,,,,,,,,,,,,,,,,,,,,,,,,,,,,,,,
,,,,,,,,,,60196cc05e7bc705c9ab5891,23,Kobieta,2022-05-28_09h14.26.952,task,2021.1.4,Win32,60.86427267,628b806c463b948bc644b84f,6291cbc65848ef81f95f8dbc,,,,,,,,,,,kswqmck,"[""k"",""s"",""w"",""q"",""m"",""c"",""k""]","[0.8321000000015033,1.3344000000003575,3.4799000000003844,5.932600000001514,7.262800000000766,7.43870000000112,7.590900000000374,8.101800000000765]",0,KNSQMK,11,0,11,0,1,,,,,,,,,,,,,,,,,,,,,,,,,,,,,,,,,,,,,,,,,,,,,,,,,,,,,,,,,,,,,,,,,,,,,,,,,,,,,,,,,,,
,,,,,,,,,,60196cc05e7bc705c9ab5891,23,Kobieta,2022-05-28_09h14.26.952,task,2021.1.4,Win32,60.86427267,628b806c463b948bc644b84f,6291cbc65848ef81f95f8dbc,,,,,0,0,0,0,1,"X V Q F H G B L J M P D K C T S W R N Z
",,,,,,,,,,,,,,,,,,,,,,,,,,,,,,,,,,,,,,,,,,,,,,,,,,,,,,,,,,,,,,,,,,,,,,,,,,,,,,,,,,,,,,,,,,,,,
,,,,,,,,,,60196cc05e7bc705c9ab5891,23,Kobieta,2022-05-28_09h14.26.952,task,2021.1.4,Win32,60.86427267,628b806c463b948bc644b84f,6291cbc65848ef81f95f8dbc,,,,,1,0,1,0,1,"X V Q F H G B L J M P D K C T S W R N Z
",,,,,,,,,,,,,,,,,,,,,,,,,,,,,,,,,,,,,,,,,,,,,,,,,,,,,,,,,,,,,,,,,,,,,,,,,,,,,,,,,,,,,,,,,,,,,
,,,,,,,,,,60196cc05e7bc705c9ab5891,23,Kobieta,2022-05-28_09h14.26.952,task,2021.1.4,Win32,60.86427267,628b806c463b948bc644b84f,6291cbc65848ef81f95f8dbc,,,,,2,0,2,0,1,"X V Q F H G B L J M P D K C T S W R N Z
",,,,,,,,,,,,,,,,,,,,,,,,,,,,,,,,,,,,,,,,,,,,,,,,,,,,,,,,,,,,,,,,,,,,,,,,,,,,,,,,,,,,,,,,,,,,,
,,,,,,,,,,60196cc05e7bc705c9ab5891,23,Kobieta,2022-05-28_09h14.26.952,task,2021.1.4,Win32,60.86427267,628b806c463b948bc644b84f,6291cbc65848ef81f95f8dbc,,,,,3,0,3,0,1,"X V Q F H G B L J M P D K C T S W R N Z
",,,,,,,,,,,,,,,,,,,,,,,,,,,,,,,,,,,,,,,,,,,,,,,,,,,,,,,,,,,,,,,,,,,,,,,,,,,,,,,,,,,,,,,,,,,,,
,,,,,,,,,,60196cc05e7bc705c9ab5891,23,Kobieta,2022-05-28_09h14.26.952,task,2021.1.4,Win32,60.86427267,628b806c463b948bc644b84f,6291cbc65848ef81f95f8dbc,,,,,4,0,4,0,1,"X V Q F H G B L J M P D K C T S W R N Z
",,,,,,,,,,,,,,,,,,,,,,,,,,,,,,,,,,,,,,,,,,,,,,,,,,,,,,,,,,,,,,,,,,,,,,,,,,,,,,,,,,,,,,,,,,,,,
,,,,,,,,,,60196cc05e7bc705c9ab5891,23,Kobieta,2022-05-28_09h14.26.952,task,2021.1.4,Win32,60.86427267,628b806c463b948bc644b84f,6291cbc65848ef81f95f8dbc,,,,,5,0,5,0,1,"X V Q F H G B L J M P D K C T S W R N Z
",,,,,,,,,,,,,,,,,,,,,,,,,,,,,,,,,,,,,,,,,,,,,,,,,,,,,,,,,,,,,,,,,,,,,,,,,,,,,,,,,,,,,,,,,,,,,
,,,,,,,,,,60196cc05e7bc705c9ab5891,23,Kobieta,2022-05-28_09h14.26.952,task,2021.1.4,Win32,60.86427267,628b806c463b948bc644b84f,6291cbc65848ef81f95f8dbc,,,,,,,,,,,fjttfx,"[""f"",""j"",""t"",""t"",""f"",""x""]","[1.531699999999205,1.7869000000003439,2.2899999999999636,2.458499999999958,3.4347999999988588,3.7707999999988715,3.89009999999962]",1,FJTTFX,12,0,12,0,1,,,,,,,,,,,,,,,,,,,,,,,,,,,,,,,,,,,,,,,,,,,,,,,,,,,,,,,,,,,,,,,,,,,,,,,,,,,,,,,,,,,
,,,,,,,,,,60196cc05e7bc705c9ab5891,23,Kobieta,2022-05-28_09h14.26.952,task,2021.1.4,Win32,60.86427267,628b806c463b948bc644b84f,6291cbc65848ef81f95f8dbc,,,,,0,0,0,0,1,"X V Q F H G B L J M P D K C T S W R N Z
",,,,,,,,,,,,,,,,,,,,,,,,,,,,,,,,,,,,,,,,,,,,,,,,,,,,,,,,,,,,,,,,,,,,,,,,,,,,,,,,,,,,,,,,,,,,,
,,,,,,,,,,60196cc05e7bc705c9ab5891,23,Kobieta,2022-05-28_09h14.26.952,task,2021.1.4,Win32,60.86427267,628b806c463b948bc644b84f,6291cbc65848ef81f95f8dbc,,,,,1,0,1,0,1,"X V Q F H G B L J M P D K C T S W R N Z
",,,,,,,,,,,,,,,,,,,,,,,,,,,,,,,,,,,,,,,,,,,,,,,,,,,,,,,,,,,,,,,,,,,,,,,,,,,,,,,,,,,,,,,,,,,,,
,,,,,,,,,,60196cc05e7bc705c9ab5891,23,Kobieta,2022-05-28_09h14.26.952,task,2021.1.4,Win32,60.86427267,628b806c463b948bc644b84f,6291cbc65848ef81f95f8dbc,,,,,2,0,2,0,1,"X V Q F H G B L J M P D K C T S W R N Z
",,,,,,,,,,,,,,,,,,,,,,,,,,,,,,,,,,,,,,,,,,,,,,,,,,,,,,,,,,,,,,,,,,,,,,,,,,,,,,,,,,,,,,,,,,,,,
,,,,,,,,,,60196cc05e7bc705c9ab5891,23,Kobieta,2022-05-28_09h14.26.952,task,2021.1.4,Win32,60.86427267,628b806c463b948bc644b84f,6291cbc65848ef81f95f8dbc,,,,,3,0,3,0,1,"X V Q F H G B L J M P D K C T S W R N Z
",,,,,,,,,,,,,,,,,,,,,,,,,,,,,,,,,,,,,,,,,,,,,,,,,,,,,,,,,,,,,,,,,,,,,,,,,,,,,,,,,,,,,,,,,,,,,
,,,,,,,,,,60196cc05e7bc705c9ab5891,23,Kobieta,2022-05-28_09h14.26.952,task,2021.1.4,Win32,60.86427267,628b806c463b948bc644b84f,6291cbc65848ef81f95f8dbc,,,,,4,0,4,0,1,"X V Q F H G B L J M P D K C T S W R N Z
",,,,,,,,,,,,,,,,,,,,,,,,,,,,,,,,,,,,,,,,,,,,,,,,,,,,,,,,,,,,,,,,,,,,,,,,,,,,,,,,,,,,,,,,,,,,,
,,,,,,,,,,60196cc05e7bc705c9ab5891,23,Kobieta,2022-05-28_09h14.26.952,task,2021.1.4,Win32,60.86427267,628b806c463b948bc644b84f,6291cbc65848ef81f95f8dbc,,,,,5,0,5,0,1,"X V Q F H G B L J M P D K C T S W R N Z
",,,,,,,,,,,,,,,,,,,,,,,,,,,,,,,,,,,,,,,,,,,,,,,,,,,,,,,,,,,,,,,,,,,,,,,,,,,,,,,,,,,,,,,,,,,,,
,,,,,,,,,,60196cc05e7bc705c9ab5891,23,Kobieta,2022-05-28_09h14.26.952,task,2021.1.4,Win32,60.86427267,628b806c463b948bc644b84f,6291cbc65848ef81f95f8dbc,,,,,6,0,6,0,1,"X V Q F H G B L J M P D K C T S W R N Z
",,,,,,,,,,,,,,,,,,,,,,,,,,,,,,,,,,,,,,,,,,,,,,,,,,,,,,,,,,,,,,,,,,,,,,,,,,,,,,,,,,,,,,,,,,,,,
,,,,,,,,,,60196cc05e7bc705c9ab5891,23,Kobieta,2022-05-28_09h14.26.952,task,2021.1.4,Win32,60.86427267,628b806c463b948bc644b84f,6291cbc65848ef81f95f8dbc,,,,,,,,,,,bdkkrqx,"[""b"",""d"",""k"",""k"",""r"",""q"",""x""]","[0.980600000001516,1.3064000000003944,1.9802000000011049,3.1707000000011476,3.602200000001119,4.362800000000732,5.01400000000001,5.121300000000758]",1,BDKKRQX,13,0,13,0,1,,,,,,,,,,,,,,,,,,,,,,,,,,,,,,,,,,,,,,,,,,,,,,,,,,,,,,,,,,,,,,,,,,,,,,,,,,,,,,,,,,,
,,,,,,,,,,60196cc05e7bc705c9ab5891,23,Kobieta,2022-05-28_09h14.26.952,task,2021.1.4,Win32,60.86427267,628b806c463b948bc644b84f,6291cbc65848ef81f95f8dbc,,,,,0,0,0,0,1,"X V Q F H G B L J M P D K C T S W R N Z
",,,,,,,,,,,,,,,,,,,,,,,,,,,,,,,,,,,,,,,,,,,,,,,,,,,,,,,,,,,,,,,,,,,,,,,,,,,,,,,,,,,,,,,,,,,,,
,,,,,,,,,,60196cc05e7bc705c9ab5891,23,Kobieta,2022-05-28_09h14.26.952,task,2021.1.4,Win32,60.86427267,628b806c463b948bc644b84f,6291cbc65848ef81f95f8dbc,,,,,1,0,1,0,1,"X V Q F H G B L J M P D K C T S W R N Z
",,,,,,,,,,,,,,,,,,,,,,,,,,,,,,,,,,,,,,,,,,,,,,,,,,,,,,,,,,,,,,,,,,,,,,,,,,,,,,,,,,,,,,,,,,,,,
,,,,,,,,,,60196cc05e7bc705c9ab5891,23,Kobieta,2022-05-28_09h14.26.952,task,2021.1.4,Win32,60.86427267,628b806c463b948bc644b84f,6291cbc65848ef81f95f8dbc,,,,,2,0,2,0,1,"X V Q F H G B L J M P D K C T S W R N Z
",,,,,,,,,,,,,,,,,,,,,,,,,,,,,,,,,,,,,,,,,,,,,,,,,,,,,,,,,,,,,,,,,,,,,,,,,,,,,,,,,,,,,,,,,,,,,
,,,,,,,,,,60196cc05e7bc705c9ab5891,23,Kobieta,2022-05-28_09h14.26.952,task,2021.1.4,Win32,60.86427267,628b806c463b948bc644b84f,6291cbc65848ef81f95f8dbc,,,,,3,0,3,0,1,"X V Q F H G B L J M P D K C T S W R N Z
",,,,,,,,,,,,,,,,,,,,,,,,,,,,,,,,,,,,,,,,,,,,,,,,,,,,,,,,,,,,,,,,,,,,,,,,,,,,,,,,,,,,,,,,,,,,,
,,,,,,,,,,60196cc05e7bc705c9ab5891,23,Kobieta,2022-05-28_09h14.26.952,task,2021.1.4,Win32,60.86427267,628b806c463b948bc644b84f,6291cbc65848ef81f95f8dbc,,,,,4,0,4,0,1,"X V Q F H G B L J M P D K C T S W R N Z
",,,,,,,,,,,,,,,,,,,,,,,,,,,,,,,,,,,,,,,,,,,,,,,,,,,,,,,,,,,,,,,,,,,,,,,,,,,,,,,,,,,,,,,,,,,,,
,,,,,,,,,,60196cc05e7bc705c9ab5891,23,Kobieta,2022-05-28_09h14.26.952,task,2021.1.4,Win32,60.86427267,628b806c463b948bc644b84f,6291cbc65848ef81f95f8dbc,,,,,5,0,5,0,1,"X V Q F H G B L J M P D K C T S W R N Z
",,,,,,,,,,,,,,,,,,,,,,,,,,,,,,,,,,,,,,,,,,,,,,,,,,,,,,,,,,,,,,,,,,,,,,,,,,,,,,,,,,,,,,,,,,,,,
,,,,,,,,,,60196cc05e7bc705c9ab5891,23,Kobieta,2022-05-28_09h14.26.952,task,2021.1.4,Win32,60.86427267,628b806c463b948bc644b84f,6291cbc65848ef81f95f8dbc,,,,,6,0,6,0,1,"X V Q F H G B L J M P D K C T S W R N Z
",,,,,,,,,,,,,,,,,,,,,,,,,,,,,,,,,,,,,,,,,,,,,,,,,,,,,,,,,,,,,,,,,,,,,,,,,,,,,,,,,,,,,,,,,,,,,
,,,,,,,,,,60196cc05e7bc705c9ab5891,23,Kobieta,2022-05-28_09h14.26.952,task,2021.1.4,Win32,60.86427267,628b806c463b948bc644b84f,6291cbc65848ef81f95f8dbc,,,,,,,,,,,zffcj,"[""z"",""f"",""f"",""c"",""j""]","[0.9710000000000036,1.4026999999992427,2.699799999998845,5.674999999999898,7.355299999998863,7.922399999998504]",0,"Z
RSFTLJ",14,0,14,0,1,,,,,,,,,,,,,,,,,,,,,,,,,,,,,,,,,,,,,,,,,,,,,,,,,,,,,,,,,,,,,,,,,,,,,,,,,,,,,,,,,,,
,,,,,,,,,,60196cc05e7bc705c9ab5891,23,Kobieta,2022-05-28_09h14.26.952,task,2021.1.4,Win32,60.86427267,628b806c463b948bc644b84f,6291cbc65848ef81f95f8dbc,,,,,0,0,0,0,1,"X V Q F H G B L J M P D K C T S W R N Z
",,,,,,,,,,,,,,,,,,,,,,,,,,,,,,,,,,,,,,,,,,,,,,,,,,,,,,,,,,,,,,,,,,,,,,,,,,,,,,,,,,,,,,,,,,,,,
,,,,,,,,,,60196cc05e7bc705c9ab5891,23,Kobieta,2022-05-28_09h14.26.952,task,2021.1.4,Win32,60.86427267,628b806c463b948bc644b84f,6291cbc65848ef81f95f8dbc,,,,,1,0,1,0,1,"X V Q F H G B L J M P D K C T S W R N Z
",,,,,,,,,,,,,,,,,,,,,,,,,,,,,,,,,,,,,,,,,,,,,,,,,,,,,,,,,,,,,,,,,,,,,,,,,,,,,,,,,,,,,,,,,,,,,
,,,,,,,,,,60196cc05e7bc705c9ab5891,23,Kobieta,2022-05-28_09h14.26.952,task,2021.1.4,Win32,60.86427267,628b806c463b948bc644b84f,6291cbc65848ef81f95f8dbc,,,,,2,0,2,0,1,"X V Q F H G B L J M P D K C T S W R N Z
",,,,,,,,,,,,,,,,,,,,,,,,,,,,,,,,,,,,,,,,,,,,,,,,,,,,,,,,,,,,,,,,,,,,,,,,,,,,,,,,,,,,,,,,,,,,,
,,,,,,,,,,60196cc05e7bc705c9ab5891,23,Kobieta,2022-05-28_09h14.26.952,task,2021.1.4,Win32,60.86427267,628b806c463b948bc644b84f,6291cbc65848ef81f95f8dbc,,,,,3,0,3,0,1,"X V Q F H G B L J M P D K C T S W R N Z
",,,,,,,,,,,,,,,,,,,,,,,,,,,,,,,,,,,,,,,,,,,,,,,,,,,,,,,,,,,,,,,,,,,,,,,,,,,,,,,,,,,,,,,,,,,,,
,,,,,,,,,,60196cc05e7bc705c9ab5891,23,Kobieta,2022-05-28_09h14.26.952,task,2021.1.4,Win32,60.86427267,628b806c463b948bc644b84f,6291cbc65848ef81f95f8dbc,,,,,4,0,4,0,1,"X V Q F H G B L J M P D K C T S W R N Z
",,,,,,,,,,,,,,,,,,,,,,,,,,,,,,,,,,,,,,,,,,,,,,,,,,,,,,,,,,,,,,,,,,,,,,,,,,,,,,,,,,,,,,,,,,,,,
,,,,,,,,,,60196cc05e7bc705c9ab5891,23,Kobieta,2022-05-28_09h14.26.952,task,2021.1.4,Win32,60.86427267,628b806c463b948bc644b84f,6291cbc65848ef81f95f8dbc,,,,,5,0,5,0,1,"X V Q F H G B L J M P D K C T S W R N Z
",,,,,,,,,,,,,,,,,,,,,,,,,,,,,,,,,,,,,,,,,,,,,,,,,,,,,,,,,,,,,,,,,,,,,,,,,,,,,,,,,,,,,,,,,,,,,
,,,,,,,,,,60196cc05e7bc705c9ab5891,23,Kobieta,2022-05-28_09h14.26.952,task,2021.1.4,Win32,60.86427267,628b806c463b948bc644b84f,6291cbc65848ef81f95f8dbc,,,,,6,0,6,0,1,"X V Q F H G B L J M P D K C T S W R N Z
",,,,,,,,,,,,,,,,,,,,,,,,,,,,,,,,,,,,,,,,,,,,,,,,,,,,,,,,,,,,,,,,,,,,,,,,,,,,,,,,,,,,,,,,,,,,,
,,,,,,,,,,60196cc05e7bc705c9ab5891,23,Kobieta,2022-05-28_09h14.26.952,task,2021.1.4,Win32,60.86427267,628b806c463b948bc644b84f,6291cbc65848ef81f95f8dbc,,,,,,,,,,,frwbgb,"[""f"",""r"",""w"",""b"",""g"",""b""]","[1.4647999999989452,1.655799999998976,2.7677999999989424,4.551799999998934,4.816599999999653,5.023799999998914,5.2163999999985435]",0,FRDWBGB,15,0,15,0,1,,,,,,,,,,,,,,,,,,,,,,,,,,,,,,,,,,,,,,,,,,,,,,,,,,,,,,,,,,,,,,,,,,,,,,,,,,,,,,,,,,,
,,,,,,,,,,60196cc05e7bc705c9ab5891,23,Kobieta,2022-05-28_09h14.26.952,task,2021.1.4,Win32,60.86427267,628b806c463b948bc644b84f,6291cbc65848ef81f95f8dbc,,,,,0,0,0,0,1,"X V Q F H G B L J M P D K C T S W R N Z
",,,,,,,,,,,,,,,,,,,,,,,,,,,,,,,,,,,,,,,,,,,,,,,,,,,,,,,,,,,,,,,,,,,,,,,,,,,,,,,,,,,,,,,,,,,,,
,,,,,,,,,,60196cc05e7bc705c9ab5891,23,Kobieta,2022-05-28_09h14.26.952,task,2021.1.4,Win32,60.86427267,628b806c463b948bc644b84f,6291cbc65848ef81f95f8dbc,,,,,1,0,1,0,1,"X V Q F H G B L J M P D K C T S W R N Z
",,,,,,,,,,,,,,,,,,,,,,,,,,,,,,,,,,,,,,,,,,,,,,,,,,,,,,,,,,,,,,,,,,,,,,,,,,,,,,,,,,,,,,,,,,,,,
,,,,,,,,,,60196cc05e7bc705c9ab5891,23,Kobieta,2022-05-28_09h14.26.952,task,2021.1.4,Win32,60.86427267,628b806c463b948bc644b84f,6291cbc65848ef81f95f8dbc,,,,,2,0,2,0,1,"X V Q F H G B L J M P D K C T S W R N Z
",,,,,,,,,,,,,,,,,,,,,,,,,,,,,,,,,,,,,,,,,,,,,,,,,,,,,,,,,,,,,,,,,,,,,,,,,,,,,,,,,,,,,,,,,,,,,
,,,,,,,,,,60196cc05e7bc705c9ab5891,23,Kobieta,2022-05-28_09h14.26.952,task,2021.1.4,Win32,60.86427267,628b806c463b948bc644b84f,6291cbc65848ef81f95f8dbc,,,,,3,0,3,0,1,"X V Q F H G B L J M P D K C T S W R N Z
",,,,,,,,,,,,,,,,,,,,,,,,,,,,,,,,,,,,,,,,,,,,,,,,,,,,,,,,,,,,,,,,,,,,,,,,,,,,,,,,,,,,,,,,,,,,,
,,,,,,,,,,60196cc05e7bc705c9ab5891,23,Kobieta,2022-05-28_09h14.26.952,task,2021.1.4,Win32,60.86427267,628b806c463b948bc644b84f,6291cbc65848ef81f95f8dbc,,,,,4,0,4,0,1,"X V Q F H G B L J M P D K C T S W R N Z
",,,,,,,,,,,,,,,,,,,,,,,,,,,,,,,,,,,,,,,,,,,,,,,,,,,,,,,,,,,,,,,,,,,,,,,,,,,,,,,,,,,,,,,,,,,,,
,,,,,,,,,,60196cc05e7bc705c9ab5891,23,Kobieta,2022-05-28_09h14.26.952,task,2021.1.4,Win32,60.86427267,628b806c463b948bc644b84f,6291cbc65848ef81f95f8dbc,,,,,5,0,5,0,1,"X V Q F H G B L J M P D K C T S W R N Z
",,,,,,,,,,,,,,,,,,,,,,,,,,,,,,,,,,,,,,,,,,,,,,,,,,,,,,,,,,,,,,,,,,,,,,,,,,,,,,,,,,,,,,,,,,,,,
,,,,,,,,,,60196cc05e7bc705c9ab5891,23,Kobieta,2022-05-28_09h14.26.952,task,2021.1.4,Win32,60.86427267,628b806c463b948bc644b84f,6291cbc65848ef81f95f8dbc,,,,,6,0,6,0,1,"X V Q F H G B L J M P D K C T S W R N Z
",,,,,,,,,,,,,,,,,,,,,,,,,,,,,,,,,,,,,,,,,,,,,,,,,,,,,,,,,,,,,,,,,,,,,,,,,,,,,,,,,,,,,,,,,,,,,
,,,,,,,,,,60196cc05e7bc705c9ab5891,23,Kobieta,2022-05-28_09h14.26.952,task,2021.1.4,Win32,60.86427267,628b806c463b948bc644b84f,6291cbc65848ef81f95f8dbc,,,,,,,,,,,bfhjlmn,"[""b"",""f"",""h"",""j"",""l"",""m"",""n""]","[1.2188000000007833,2.35450000000003,2.683200000001193,4.201999999999998,5.396900000000414,6.230300000000852,6.506500000000074,6.81240000000048]",0,BKHFLBM,16,0,16,0,1,,,,,,,,,,,,,,,,,,,,,,,,,,,,,,,,,,,,,,,,,,,,,,,,,,,,,,,,,,,,,,,,,,,,,,,,,,,,,,,,,,,
,,,,,,,,,,60196cc05e7bc705c9ab5891,23,Kobieta,2022-05-28_09h14.26.952,task,2021.1.4,Win32,60.86427267,628b806c463b948bc644b84f,6291cbc65848ef81f95f8dbc,,,,,,,,,,,,,,,,,,,,,space,9.5286,3,"[""3""]",1,[4.934100000001536],[4.934100000001536],0,0,0,3,1,Practice,4,(8/4) + 1,3,,,,,,,,,,,,,,,,,,,,,,,,,,,,,,,,,,,,,,,,,,,,,,,,,,,,,,,,,,,,,,,,,,,
,,,,,,,,,,60196cc05e7bc705c9ab5891,23,Kobieta,2022-05-28_09h14.26.952,task,2021.1.4,Win32,60.86427267,628b806c463b948bc644b84f,6291cbc65848ef81f95f8dbc,,,,,,,,,,,,,,,,,,,,,,,8,"[""8""]",1,[4.068400000000338],"[4.934100000001536,4.068400000000338]",0,1,1,8,1,Practice,9,(3x3) - 1,8,,,,,,,,,,,,,,,,,,,,,,,,,,,,,,,,,,,,,,,,,,,,,,,,,,,,,,,,,,,,,,,,,,,
,,,,,,,,,,60196cc05e7bc705c9ab5891,23,Kobieta,2022-05-28_09h14.26.952,task,2021.1.4,Win32,60.86427267,628b806c463b948bc644b84f,6291cbc65848ef81f95f8dbc,,,,,,,,,,,,,,,,,,,,,,,4,"[""4""]",1,[7.837399999998524],"[4.934100000001536,4.068400000000338,7.837399999998524]",0,2,2,4,1,Practice,5,(2x6) - 8,4,,,,,,,,,,,,,,,,,,,,,,,,,,,,,,,,,,,,,,,,,,,,,,,,,,,,,,,,,,,,,,,,,,,
,,,,,,,,,,60196cc05e7bc705c9ab5891,23,Kobieta,2022-05-28_09h14.26.952,task,2021.1.4,Win32,60.86427267,628b806c463b948bc644b84f,6291cbc65848ef81f95f8dbc,,,,,,,,,,,,,,,,,,,,,,,0,"[""0""]",1,[3.113299999998844],"[4.934100000001536,4.068400000000338,7.837399999998524,3.113299999998844]",0,3,3,0,1,Practice,1,(3x3) -  9,0,,,,,,,,,,,,,,,,,,,,,,,,,,,,,,,,,,,,,,,,,,,,,,,,,,,,,,,,,,,,,,,,,,,
,,,,,,,,,,60196cc05e7bc705c9ab5891,23,Kobieta,2022-05-28_09h14.26.952,task,2021.1.4,Win32,60.86427267,628b806c463b948bc644b84f,6291cbc65848ef81f95f8dbc,,,,,,,,,,,,,,,,,,,,,,,7,"[""7""]",1,[4.922699999999281],"[4.934100000001536,4.068400000000338,7.837399999998524,3.113299999998844,4.922699999999281]",0,4,4,7,1,Practice,8,(5x5) - 18,7,,,,,,,,,,,,,,,,,,,,,,,,,,,,,,,,,,,,,,,,,,,,,,,,,,,,,,,,,,,,,,,,,,,
,,,,,,,,,,60196cc05e7bc705c9ab5891,23,Kobieta,2022-05-28_09h14.26.952,task,2021.1.4,Win32,60.86427267,628b806c463b948bc644b84f,6291cbc65848ef81f95f8dbc,,,,,,,,,,,,,,,,,,,,,,,2,"[""2""]",1,[5.472900000000436],"[4.934100000001536,4.068400000000338,7.837399999998524,3.113299999998844,4.922699999999281,5.472900000000436]",0,5,5,2,1,Practice,3,(4x4) - 14,2,,,,,,,,,,,,,,,,,,,,,,,,,,,,,,,,,,,,,,,,,,,,,,,,,,,,,,,,,,,,,,,,,,,
,,,,,,,,,,60196cc05e7bc705c9ab5891,23,Kobieta,2022-05-28_09h14.26.952,task,2021.1.4,Win32,60.86427267,628b806c463b948bc644b84f,6291cbc65848ef81f95f8dbc,,,,,,,,,,,,,,,,,,,,,,,6,"[""6""]",1,[3.138900000000376],"[4.934100000001536,4.068400000000338,7.837399999998524,3.113299999998844,4.922699999999281,5.472900000000436,3.138900000000376]",0,6,6,6,1,Practice,7,(25/5) + 1,6,,,,,,,,,,,,,,,,,,,,,,,,,,,,,,,,,,,,,,,,,,,,,,,,,,,,,,,,,,,,,,,,,,,
,,,,,,,,,,60196cc05e7bc705c9ab5891,23,Kobieta,2022-05-28_09h14.26.952,task,2021.1.4,Win32,60.86427267,628b806c463b948bc644b84f,6291cbc65848ef81f95f8dbc,,,,,,,,,,,,,,,,,,,,,,,9,"[""9""]",1,[3.062599999999634],"[4.934100000001536,4.068400000000338,7.837399999998524,3.113299999998844,4.922699999999281,5.472900000000436,3.138900000000376,3.062599999999634]",0,7,7,9,1,Practice,10,(20/2) - 1,9,,,,,,,,,,,,,,,,,,,,,,,,,,,,,,,,,,,,,,,,,,,,,,,,,,,,,,,,,,,,,,,,,,,
,,,,,,,,,,60196cc05e7bc705c9ab5891,23,Kobieta,2022-05-28_09h14.26.952,task,2021.1.4,Win32,60.86427267,628b806c463b948bc644b84f,6291cbc65848ef81f95f8dbc,,,,,,,,,,,,,,,,,,,,,,,1,"[""1""]",1,[2.563099999999622],"[4.934100000001536,4.068400000000338,7.837399999998524,3.113299999998844,4.922699999999281,5.472900000000436,3.138900000000376,3.062599999999634,2.563099999999622]",0,8,8,1,1,Practice,2,(4x4) - 15,1,,,,,,,,,,,,,,,,,,,,,,,,,,,,,,,,,,,,,,,,,,,,,,,,,,,,,,,,,,,,,,,,,,,
,,,,,,,,,,60196cc05e7bc705c9ab5891,23,Kobieta,2022-05-28_09h14.26.952,task,2021.1.4,Win32,60.86427267,628b806c463b948bc644b84f,6291cbc65848ef81f95f8dbc,,,,,,,,,,,,,,,,,,,,,,,5,"[""5""]",1,[4.008900000000381],"[4.934100000001536,4.068400000000338,7.837399999998524,3.113299999998844,4.922699999999281,5.472900000000436,3.138900000000376,3.062599999999634,2.563099999999622,4.008900000000381]",0,9,9,5,1,Practice,6,(4/2) + 3,5,,,,,,,,,,,,,,,,,,,,,,,,,,,,,,,,,,,,,,,,,,,,,,,,,,,,,,,,,,,,,,,,,,,
,,,,,,,,,,60196cc05e7bc705c9ab5891,23,Kobieta,2022-05-28_09h14.26.952,task,2021.1.4,Win32,60.86427267,628b806c463b948bc644b84f,6291cbc65848ef81f95f8dbc,,,,,,,,,,,,,,,,,,,,,,,,,,,,,,,,,,,,,1,43.1223,2.87482,42.78147886,1.688815736,7.231964599,space,1.452,0,0,0,0,1,,,,,,,,,,,,,,,,,,,,,,,,,,,,,,,,,,,,,,,,,,,,,,,,,,,,,,
,,,,,,,,,,60196cc05e7bc705c9ab5891,23,Kobieta,2022-05-28_09h14.26.952,task,2021.1.4,Win32,60.86427267,628b806c463b948bc644b84f,6291cbc65848ef81f95f8dbc,,,,,,,,,,,,,,,,,,,,,,,7,,,,,,,,,,Practice,8,(5x5) - 18,7,,,,,,,,,,,,,,space,14.7714,"[""7""]",1,[4.579800000000773],1,0,0,0,7,1,,,,,,,,,,,,,,,,,,,,,,,,,,,,,,,,,,,,,,,,,,,
,,,,,,,,,,60196cc05e7bc705c9ab5891,23,Kobieta,2022-05-28_09h14.26.952,task,2021.1.4,Win32,60.86427267,628b806c463b948bc644b84f,6291cbc65848ef81f95f8dbc,,,,,,,,,,"X V Q F H G B L J M P D K C T S W R N Z
",,,,,,,,,,,,,,,,,,,,,,,,,,,,,,,,,,,,,,,,,,,,,,,,,,,0,0,0,0,1,,,,,,,,,,,,,,,,,,,,,,,,,,,,,,,,,,,,,,
,,,,,,,,,,60196cc05e7bc705c9ab5891,23,Kobieta,2022-05-28_09h14.26.952,task,2021.1.4,Win32,60.86427267,628b806c463b948bc644b84f,6291cbc65848ef81f95f8dbc,,,,,,,,,,,,,,,,,,,,,,,2,,,,,,,,,,Practice,3,(4x4) - 14,2,,,,,,,,,,,,,,,,"[""2""]",1,[3.3745999999996457],1,0,0,0,2,1,,,,,,,,,,,,,,,,,,,,,,,,,,,,,,,,,,,,,,,,,,,
,,,,,,,,,,60196cc05e7bc705c9ab5891,23,Kobieta,2022-05-28_09h14.26.952,task,2021.1.4,Win32,60.86427267,628b806c463b948bc644b84f,6291cbc65848ef81f95f8dbc,,,,,,,,,,"X V Q F H G B L J M P D K C T S W R N Z
",,,,,,,,,,,,,,,,,,,,,,,,,,,,,,,,,,,,,,,,,,,,,,,,,,,1,0,1,0,1,,,,,,,,,,,,,,,,,,,,,,,,,,,,,,,,,,,,,,
,,,,,,,,,,60196cc05e7bc705c9ab5891,23,Kobieta,2022-05-28_09h14.26.952,task,2021.1.4,Win32,60.86427267,628b806c463b948bc644b84f,6291cbc65848ef81f95f8dbc,,,,,,,,,,,,,,,,,,,,,,,,,,,,,,,,,,,,,,,,,,,,,,,,,,,,,,,,,,,,,,,,,,zt,"[""z"",""t""]",0,"[2.117400000000316,2.5174999999999272,2.9973000000006778]",1,0,0,0,0,1,,,,,,,,,,,,,,,,,,,,,,,,,,,,
,,,,,,,,,,60196cc05e7bc705c9ab5891,23,Kobieta,2022-05-28_09h14.26.952,task,2021.1.4,Win32,60.86427267,628b806c463b948bc644b84f,6291cbc65848ef81f95f8dbc,,,,,,,,,,,,,,,,,,,,,,,9,,,,,,,,,,Practice,10,(20/2) - 1,9,,,,,,,,,,,,,,,,"[""9""]",1,[2.4199000000003252],1,0,0,0,9,1,,,,,,,,,,,,,,,,,,,,,,,,,,,,,,,,,,,,,,,,,,,
,,,,,,,,,,60196cc05e7bc705c9ab5891,23,Kobieta,2022-05-28_09h14.26.952,task,2021.1.4,Win32,60.86427267,628b806c463b948bc644b84f,6291cbc65848ef81f95f8dbc,,,,,,,,,,"X V Q F H G B L J M P D K C T S W R N Z
",,,,,,,,,,,,,,,,,,,,,,,,,,,,,,,,,,,,,,,,,,,,,,,,,,,0,0,0,0,1,,,,,,,,,,,,,,,,,,,,,,,,,,,,,,,,,,,,,,
,,,,,,,,,,60196cc05e7bc705c9ab5891,23,Kobieta,2022-05-28_09h14.26.952,task,2021.1.4,Win32,60.86427267,628b806c463b948bc644b84f,6291cbc65848ef81f95f8dbc,,,,,,,,,,,,,,,,,,,,,,,9,,,,,,,,,,Practice,10,(20/2) - 1,9,,,,,,,,,,,,,,,,"[""9""]",1,[2.608000000000061],1,0,0,0,9,1,,,,,,,,,,,,,,,,,,,,,,,,,,,,,,,,,,,,,,,,,,,
,,,,,,,,,,60196cc05e7bc705c9ab5891,23,Kobieta,2022-05-28_09h14.26.952,task,2021.1.4,Win32,60.86427267,628b806c463b948bc644b84f,6291cbc65848ef81f95f8dbc,,,,,,,,,,"X V Q F H G B L J M P D K C T S W R N Z
",,,,,,,,,,,,,,,,,,,,,,,,,,,,,,,,,,,,,,,,,,,,,,,,,,,1,0,1,0,1,,,,,,,,,,,,,,,,,,,,,,,,,,,,,,,,,,,,,,
,,,,,,,,,,60196cc05e7bc705c9ab5891,23,Kobieta,2022-05-28_09h14.26.952,task,2021.1.4,Win32,60.86427267,628b806c463b948bc644b84f,6291cbc65848ef81f95f8dbc,,,,,,,,,,,,,,,,,,,,,,,,,,,,,,,,,,,,,,,,,,,,,,,,,,,,,,,,,,,,,,,,,,nj,"[""n"",""j""]",0,"[1.9139000000004671,2.234799999998927,2.7215999999996257]",1,1,0,1,0,1,,,,,,,,,,,,,,,,,,,,,,,,,,,,
,,,,,,,,,,60196cc05e7bc705c9ab5891,23,Kobieta,2022-05-28_09h14.26.952,task,2021.1.4,Win32,60.86427267,628b806c463b948bc644b84f,6291cbc65848ef81f95f8dbc,,,,,,,,,,,,,,,,,,,,,,,3,,,,,,,,,,Practice,4,(8/4) + 1,3,,,,,,,,,,,,,,,,"[""3""]",1,[4.896700000001147],1,0,0,0,3,1,,,,,,,,,,,,,,,,,,,,,,,,,,,,,,,,,,,,,,,,,,,
,,,,,,,,,,60196cc05e7bc705c9ab5891,23,Kobieta,2022-05-28_09h14.26.952,task,2021.1.4,Win32,60.86427267,628b806c463b948bc644b84f,6291cbc65848ef81f95f8dbc,,,,,,,,,,"X V Q F H G B L J M P D K C T S W R N Z
",,,,,,,,,,,,,,,,,,,,,,,,,,,,,,,,,,,,,,,,,,,,,,,,,,,0,0,0,0,1,,,,,,,,,,,,,,,,,,,,,,,,,,,,,,,,,,,,,,
,,,,,,,,,,60196cc05e7bc705c9ab5891,23,Kobieta,2022-05-28_09h14.26.952,task,2021.1.4,Win32,60.86427267,628b806c463b948bc644b84f,6291cbc65848ef81f95f8dbc,,,,,,,,,,,,,,,,,,,,,,,4,,,,,,,,,,Practice,5,(2x6) - 8,4,,,,,,,,,,,,,,,,"[""4""]",1,[5.605199999999286],1,0,0,0,4,1,,,,,,,,,,,,,,,,,,,,,,,,,,,,,,,,,,,,,,,,,,,
,,,,,,,,,,60196cc05e7bc705c9ab5891,23,Kobieta,2022-05-28_09h14.26.952,task,2021.1.4,Win32,60.86427267,628b806c463b948bc644b84f,6291cbc65848ef81f95f8dbc,,,,,,,,,,"X V Q F H G B L J M P D K C T S W R N Z
",,,,,,,,,,,,,,,,,,,,,,,,,,,,,,,,,,,,,,,,,,,,,,,,,,,1,0,1,0,1,,,,,,,,,,,,,,,,,,,,,,,,,,,,,,,,,,,,,,
,,,,,,,,,,60196cc05e7bc705c9ab5891,23,Kobieta,2022-05-28_09h14.26.952,task,2021.1.4,Win32,60.86427267,628b806c463b948bc644b84f,6291cbc65848ef81f95f8dbc,,,,,,,,,,,,,,,,,,,,,,,,,,,,,,,,,,,,,,,,,,,,,,,,,,,,,,,,,,,,,,,,,,wn,"[""w"",""n""]",0,"[1.9043999999985317,2.3752999999989015,4.023599999999647]",1,2,0,2,0,1,,,,,,,,,,,,,,,,,,,,,,,,,,,,
,,,,,,,,,,60196cc05e7bc705c9ab5891,23,Kobieta,2022-05-28_09h14.26.952,task,2021.1.4,Win32,60.86427267,628b806c463b948bc644b84f,6291cbc65848ef81f95f8dbc,,,,,,,,,,,,,,,,,,,,,,,5,,,,,,,,,,Task,12,(4x4) - 11,5,,,,,,,,,,,,,,,,,,,1,,,,,,,,,,,,,,,,,,,,,space,12.1506,"[""5""]",1,[4.781099999999583],0,0,0,11,1,,,,,,,,,,,,,,,,,,
,,,,,,,,,,60196cc05e7bc705c9ab5891,23,Kobieta,2022-05-28_09h14.26.952,task,2021.1.4,Win32,60.86427267,628b806c463b948bc644b84f,6291cbc65848ef81f95f8dbc,,,,,,,,,,"X V Q F H G B L J M P D K C T S W R N Z
",,,,,,,,,,,,,,,,,,,,,,,,,,,,,,,,,,,,,,,,,,,,,,,,,,,,,,,,,,,,,,,,,,,,,,,,,,,,0,0,0,0,1,,,,,,,,,,,,,
,,,,,,,,,,60196cc05e7bc705c9ab5891,23,Kobieta,2022-05-28_09h14.26.952,task,2021.1.4,Win32,60.86427267,628b806c463b948bc644b84f,6291cbc65848ef81f95f8dbc,,,,,,,,,,,,,,,,,,,,,,,,,,,,,,,,,Task,16,(3x8) - 15,9,,,,,,,,,,,,,,,,,,,0,,,,,,,,,,,,,,,,,,,,,,,,0,,0,0,0,15,1,,,,,,,,,,,,,,,,,,
,,,,,,,,,,60196cc05e7bc705c9ab5891,23,Kobieta,2022-05-28_09h14.26.952,task,2021.1.4,Win32,60.86427267,628b806c463b948bc644b84f,6291cbc65848ef81f95f8dbc,,,,,,,,,,,,,,,,,,,,,,,2,,,,,,,,,,Task,2,(2x2) - 2,2,,,,,,,,,,,,,,,,,,,1,,,,,,,,,,,,,,,,,,,,,,,"[""2""]",1,[2.368400000000406],0,1,1,1,1,,,,,,,,,,,,,,,,,,
,,,,,,,,,,60196cc05e7bc705c9ab5891,23,Kobieta,2022-05-28_09h14.26.952,task,2021.1.4,Win32,60.86427267,628b806c463b948bc644b84f,6291cbc65848ef81f95f8dbc,,,,,,,,,,"X V Q F H G B L J M P D K C T S W R N Z
",,,,,,,,,,,,,,,,,,,,,,,,,,,,,,,,,,,,,,,,,,,,,,,,,,,,,,,,,,,,,,,,,,,,,,,,,,,,1,0,1,0,1,,,,,,,,,,,,,
,,,,,,,,,,60196cc05e7bc705c9ab5891,23,Kobieta,2022-05-28_09h14.26.952,task,2021.1.4,Win32,60.86427267,628b806c463b948bc644b84f,6291cbc65848ef81f95f8dbc,,,,,,,,,,,,,,,,,,,,,,,,,,,,,,,,,,,,,,,,,,,,,,,,,,,,,,,,,,,,,,,,,,,,,,,,,,,,,,,,,,,,,,,,,,,zx,"[""z"",""x""]",0,"[3.0470999999996593,3.7392999999988206,3.9707999999988033]",1,ZX,0,0,0,0,1,,
,,,,,,,,,,60196cc05e7bc705c9ab5891,23,Kobieta,2022-05-28_09h14.26.952,task,2021.1.4,Win32,60.86427267,628b806c463b948bc644b84f,6291cbc65848ef81f95f8dbc,,,,,,,,,,,,,,,,,,,,,,,7,,,,,,,,,,Task,31,(4/2) + 5,7,,,,,,,,,,,,,,,,,,,1,,,,,,,,,,,,,,,,,,,,,,,"[""7""]",1,[2.8652000000010958],0,0,0,30,1,,,,,,,,,,,,,,,,,,
,,,,,,,,,,60196cc05e7bc705c9ab5891,23,Kobieta,2022-05-28_09h14.26.952,task,2021.1.4,Win32,60.86427267,628b806c463b948bc644b84f,6291cbc65848ef81f95f8dbc,,,,,,,,,,"X V Q F H G B L J M P D K C T S W R N Z
",,,,,,,,,,,,,,,,,,,,,,,,,,,,,,,,,,,,,,,,,,,,,,,,,,,,,,,,,,,,,,,,,,,,,,,,,,,,0,0,0,0,1,,,,,,,,,,,,,
,,,,,,,,,,60196cc05e7bc705c9ab5891,23,Kobieta,2022-05-28_09h14.26.952,task,2021.1.4,Win32,60.86427267,628b806c463b948bc644b84f,6291cbc65848ef81f95f8dbc,,,,,,,,,,,,,,,,,,,,,,,9,,,,,,,,,,Task,40,(7x2) - 5,9,,,,,,,,,,,,,,,,,,,1,,,,,,,,,,,,,,,,,,,,,,,"[""9""]",1,[3.5032999999989443],0,0,0,39,1,,,,,,,,,,,,,,,,,,
,,,,,,,,,,60196cc05e7bc705c9ab5891,23,Kobieta,2022-05-28_09h14.26.952,task,2021.1.4,Win32,60.86427267,628b806c463b948bc644b84f,6291cbc65848ef81f95f8dbc,,,,,,,,,,"X V Q F H G B L J M P D K C T S W R N Z
",,,,,,,,,,,,,,,,,,,,,,,,,,,,,,,,,,,,,,,,,,,,,,,,,,,,,,,,,,,,,,,,,,,,,,,,,,,,1,0,1,0,1,,,,,,,,,,,,,
,,,,,,,,,,60196cc05e7bc705c9ab5891,23,Kobieta,2022-05-28_09h14.26.952,task,2021.1.4,Win32,60.86427267,628b806c463b948bc644b84f,6291cbc65848ef81f95f8dbc,,,,,,,,,,,,,,,,,,,,,,,9,,,,,,,,,,Task,40,(7x2) - 5,9,,,,,,,,,,,,,,,,,,,1,,,,,,,,,,,,,,,,,,,,,,,"[""9""]",1,[4.290199999999231],0,0,0,39,1,,,,,,,,,,,,,,,,,,
,,,,,,,,,,60196cc05e7bc705c9ab5891,23,Kobieta,2022-05-28_09h14.26.952,task,2021.1.4,Win32,60.86427267,628b806c463b948bc644b84f,6291cbc65848ef81f95f8dbc,,,,,,,,,,"X V Q F H G B L J M P D K C T S W R N Z
",,,,,,,,,,,,,,,,,,,,,,,,,,,,,,,,,,,,,,,,,,,,,,,,,,,,,,,,,,,,,,,,,,,,,,,,,,,,2,0,2,0,1,,,,,,,,,,,,,
,,,,,,,,,,60196cc05e7bc705c9ab5891,23,Kobieta,2022-05-28_09h14.26.952,task,2021.1.4,Win32,60.86427267,628b806c463b948bc644b84f,6291cbc65848ef81f95f8dbc,,,,,,,,,,,,,,,,,,,,,,,,,,,,,,,,,,,,,,,,,,,,,,,,,,,,,,,,,,,,,,,,,,,,,,,,,,,,,,,,,,,,,,,,,,,zmj,"[""z"",""m"",""j""]",0,"[3.6846999999993386,4.1379000000004,4.434500000000071,4.701000000000022]",0,MFJ,1,0,1,0,1,,
,,,,,,,,,,60196cc05e7bc705c9ab5891,23,Kobieta,2022-05-28_09h14.26.952,task,2021.1.4,Win32,60.86427267,628b806c463b948bc644b84f,6291cbc65848ef81f95f8dbc,,,,,,,,,,,,,,,,,,,,,,,3,,,,,,,,,,Task,20,(18/9) + 1,3,,,,,,,,,,,,,,,,,,,1,,,,,,,,,,,,,,,,,,,,,,,"[""3""]",1,[2.410799999998858],0,0,0,19,1,,,,,,,,,,,,,,,,,,
,,,,,,,,,,60196cc05e7bc705c9ab5891,23,Kobieta,2022-05-28_09h14.26.952,task,2021.1.4,Win32,60.86427267,628b806c463b948bc644b84f,6291cbc65848ef81f95f8dbc,,,,,,,,,,"X V Q F H G B L J M P D K C T S W R N Z
",,,,,,,,,,,,,,,,,,,,,,,,,,,,,,,,,,,,,,,,,,,,,,,,,,,,,,,,,,,,,,,,,,,,,,,,,,,,0,0,0,0,1,,,,,,,,,,,,,
,,,,,,,,,,60196cc05e7bc705c9ab5891,23,Kobieta,2022-05-28_09h14.26.952,task,2021.1.4,Win32,60.86427267,628b806c463b948bc644b84f,6291cbc65848ef81f95f8dbc,,,,,,,,,,,,,,,,,,,,,,,6,,,,,,,,,,Task,13,(3x4) - 6,6,,,,,,,,,,,,,,,,,,,1,,,,,,,,,,,,,,,,,,,,,,,"[""6""]",1,[3.4496999999992113],0,0,0,12,1,,,,,,,,,,,,,,,,,,
,,,,,,,,,,60196cc05e7bc705c9ab5891,23,Kobieta,2022-05-28_09h14.26.952,task,2021.1.4,Win32,60.86427267,628b806c463b948bc644b84f,6291cbc65848ef81f95f8dbc,,,,,,,,,,"X V Q F H G B L J M P D K C T S W R N Z
",,,,,,,,,,,,,,,,,,,,,,,,,,,,,,,,,,,,,,,,,,,,,,,,,,,,,,,,,,,,,,,,,,,,,,,,,,,,1,0,1,0,1,,,,,,,,,,,,,
,,,,,,,,,,60196cc05e7bc705c9ab5891,23,Kobieta,2022-05-28_09h14.26.952,task,2021.1.4,Win32,60.86427267,628b806c463b948bc644b84f,6291cbc65848ef81f95f8dbc,,,,,,,,,,,,,,,,,,,,,,,8,,,,,,,,,,Task,39,(5x3) - 7,8,,,,,,,,,,,,,,,,,,,1,,,,,,,,,,,,,,,,,,,,,,,"[""8""]",1,[4.298999999999978],0,0,0,38,1,,,,,,,,,,,,,,,,,,
,,,,,,,,,,60196cc05e7bc705c9ab5891,23,Kobieta,2022-05-28_09h14.26.952,task,2021.1.4,Win32,60.86427267,628b806c463b948bc644b84f,6291cbc65848ef81f95f8dbc,,,,,,,,,,"X V Q F H G B L J M P D K C T S W R N Z
",,,,,,,,,,,,,,,,,,,,,,,,,,,,,,,,,,,,,,,,,,,,,,,,,,,,,,,,,,,,,,,,,,,,,,,,,,,,2,0,2,0,1,,,,,,,,,,,,,
,,,,,,,,,,60196cc05e7bc705c9ab5891,23,Kobieta,2022-05-28_09h14.26.952,task,2021.1.4,Win32,60.86427267,628b806c463b948bc644b84f,6291cbc65848ef81f95f8dbc,,,,,,,,,,,,,,,,,,,,,,,,,,,,,,,,,,,,,,,,,,,,,,,,,,,,,,,,,,,,,,,,,,,,,,,,,,,,,,,,,,,,,,,,,,,zx,"[""z"",""x""]",0,"[1.6289000000003853,2.1889000000004444,2.5499000000004344]",0,"Z
WX",2,0,2,0,1,,
,,,,,,,,,,60196cc05e7bc705c9ab5891,23,Kobieta,2022-05-28_09h14.26.952,task,2021.1.4,Win32,60.86427267,628b806c463b948bc644b84f,6291cbc65848ef81f95f8dbc,,,,,,,,,,,,,,,,,,,,,,,,,,,,,,,,,,,,,,,,,,,,,,,,,,,,,,,,,,,,,,,,,,,,,,,,,,,,,,,,,,,,,,,,,,,,,,,,,,,,,,space,2.1049
