key_resp_15.keys,key_resp_15.rt,key_resp_13.keys,key_resp_13.corr,key_resp_13.rt,ranodm_loop.thisRepN,ranodm_loop.thisTrialN,ranodm_loop.thisN,ranodm_loop.thisIndex,ranodm_loop.ran,participant,Wiek*,Płeć,date,expName,psychopyVersion,OS,frameRate,study_id,session,key_resp_16.keys,key_resp_16.rt,key_resp_4.keys,key_resp_4.rt,next_letter.thisRepN,next_letter.thisTrialN,next_letter.thisN,next_letter.thisIndex,next_letter.ran,letter,simple_recall,key_resp_5.keys,key_resp_5.rt,simple_recall_corr,simple_recall_corrkeys,next_level.thisRepN,next_level.thisTrialN,next_level.thisN,next_level.thisIndex,next_level.ran,key_resp_2.keys,key_resp_2.rt,digit_answer,key_resp.keys,key_resp.corr,key_resp.rt,RT_list,next_equation.thisRepN,next_equation.thisTrialN,next_equation.thisN,next_equation.thisIndex,next_equation.ran,Task,Trial,Problem,Operation_answer,processing_score,sumRT,meanRT,sumdiff,sd,RT,key_resp_3.keys,key_resp_3.rt,repeat_practice.thisRepN,repeat_practice.thisTrialN,repeat_practice.thisN,repeat_practice.thisIndex,repeat_practice.ran,key_resp_6.keys,key_resp_6.rt,key_resp_11.keys,key_resp_11.corr,key_resp_11.rt,operation_correct,repeat_if_wrong_prac.thisRepN,repeat_if_wrong_prac.thisTrialN,repeat_if_wrong_prac.thisN,repeat_if_wrong_prac.thisIndex,repeat_if_wrong_prac.ran,span_size_prac.thisRepN,span_size_prac.thisTrialN,span_size_prac.thisN,span_size_prac.thisIndex,span_size_prac.ran,complex_recall_practice,key_resp_9.keys,key_resp_9.corr,key_resp_9.rt,complex_prac_corr,span_recall_prac.thisRepN,span_recall_prac.thisTrialN,span_recall_prac.thisN,span_recall_prac.thisIndex,span_recall_prac.ran,key_resp_10.keys,key_resp_10.rt,key_resp_7.keys,key_resp_7.corr,repeat_if_wrong.thisRepN,repeat_if_wrong.thisTrialN,repeat_if_wrong.thisN,repeat_if_wrong.thisIndex,repeat_if_wrong.ran,key_resp_7.rt,span_size.thisRepN,span_size.thisTrialN,span_size.thisN,span_size.thisIndex,span_size.ran,complex_recall,key_resp_8.keys,key_resp_8.corr,key_resp_8.rt,complex_recall_corr,complex_recall_corrkeys,span_recall.thisRepN,span_recall.thisTrialN,span_recall.thisN,span_recall.thisIndex,span_recall.ran,key_resp_12.keys,key_resp_12.rt
space,2.0778,"[""comma""]",0,[0.6885999999046319],0,0,0,0,1,601fe0de101ae05414812f4d,26,Kobieta,2022-06-04_07h10.54.283,task,2021.1.4,Win32,59.88382538,628b806c463b948bc644b84f,629af6bcc430cf36bc415876,,,,,,,,,,,,,,,,,,,,,,,,,,,,,,,,,,,,,,,,,,,,,,,,,,,,,,,,,,,,,,,,,,,,,,,,,,,,,,,,,,,,,,,,,,,,,,,,,,,,,,,
,,"[""period""]",0,[0.5664000000953706],1,0,1,0,1,601fe0de101ae05414812f4d,26,Kobieta,2022-06-04_07h10.54.283,task,2021.1.4,Win32,59.88382538,628b806c463b948bc644b84f,629af6bcc430cf36bc415876,,,,,,,,,,,,,,,,,,,,,,,,,,,,,,,,,,,,,,,,,,,,,,,,,,,,,,,,,,,,,,,,,,,,,,,,,,,,,,,,,,,,,,,,,,,,,,,,,,,,,,,
,,"[""period""]",0,[0.8447000000476805],2,0,2,0,1,601fe0de101ae05414812f4d,26,Kobieta,2022-06-04_07h10.54.283,task,2021.1.4,Win32,59.88382538,628b806c463b948bc644b84f,629af6bcc430cf36bc415876,,,,,,,,,,,,,,,,,,,,,,,,,,,,,,,,,,,,,,,,,,,,,,,,,,,,,,,,,,,,,,,,,,,,,,,,,,,,,,,,,,,,,,,,,,,,,,,,,,,,,,,
,,"[""period""]",0,[1.016999999999996],3,0,3,0,1,601fe0de101ae05414812f4d,26,Kobieta,2022-06-04_07h10.54.283,task,2021.1.4,Win32,59.88382538,628b806c463b948bc644b84f,629af6bcc430cf36bc415876,,,,,,,,,,,,,,,,,,,,,,,,,,,,,,,,,,,,,,,,,,,,,,,,,,,,,,,,,,,,,,,,,,,,,,,,,,,,,,,,,,,,,,,,,,,,,,,,,,,,,,,
,,,0,,4,0,4,0,1,601fe0de101ae05414812f4d,26,Kobieta,2022-06-04_07h10.54.283,task,2021.1.4,Win32,59.88382538,628b806c463b948bc644b84f,629af6bcc430cf36bc415876,,,,,,,,,,,,,,,,,,,,,,,,,,,,,,,,,,,,,,,,,,,,,,,,,,,,,,,,,,,,,,,,,,,,,,,,,,,,,,,,,,,,,,,,,,,,,,,,,,,,,,,
,,"[""comma""]",0,[0.3172999999523114],5,0,5,0,1,601fe0de101ae05414812f4d,26,Kobieta,2022-06-04_07h10.54.283,task,2021.1.4,Win32,59.88382538,628b806c463b948bc644b84f,629af6bcc430cf36bc415876,,,,,,,,,,,,,,,,,,,,,,,,,,,,,,,,,,,,,,,,,,,,,,,,,,,,,,,,,,,,,,,,,,,,,,,,,,,,,,,,,,,,,,,,,,,,,,,,,,,,,,,
,,"[""comma""]",0,[0.4410000000000025],6,0,6,0,1,601fe0de101ae05414812f4d,26,Kobieta,2022-06-04_07h10.54.283,task,2021.1.4,Win32,59.88382538,628b806c463b948bc644b84f,629af6bcc430cf36bc415876,,,,,,,,,,,,,,,,,,,,,,,,,,,,,,,,,,,,,,,,,,,,,,,,,,,,,,,,,,,,,,,,,,,,,,,,,,,,,,,,,,,,,,,,,,,,,,,,,,,,,,,
,,"[""comma""]",0,[0.30009999990463143],7,0,7,0,1,601fe0de101ae05414812f4d,26,Kobieta,2022-06-04_07h10.54.283,task,2021.1.4,Win32,59.88382538,628b806c463b948bc644b84f,629af6bcc430cf36bc415876,,,,,,,,,,,,,,,,,,,,,,,,,,,,,,,,,,,,,,,,,,,,,,,,,,,,,,,,,,,,,,,,,,,,,,,,,,,,,,,,,,,,,,,,,,,,,,,,,,,,,,,
,,"[""period""]",0,[0.2597000000476868],8,0,8,0,1,601fe0de101ae05414812f4d,26,Kobieta,2022-06-04_07h10.54.283,task,2021.1.4,Win32,59.88382538,628b806c463b948bc644b84f,629af6bcc430cf36bc415876,,,,,,,,,,,,,,,,,,,,,,,,,,,,,,,,,,,,,,,,,,,,,,,,,,,,,,,,,,,,,,,,,,,,,,,,,,,,,,,,,,,,,,,,,,,,,,,,,,,,,,,
,,"[""period""]",0,[0.450499999999991],9,0,9,0,1,601fe0de101ae05414812f4d,26,Kobieta,2022-06-04_07h10.54.283,task,2021.1.4,Win32,59.88382538,628b806c463b948bc644b84f,629af6bcc430cf36bc415876,,,,,,,,,,,,,,,,,,,,,,,,,,,,,,,,,,,,,,,,,,,,,,,,,,,,,,,,,,,,,,,,,,,,,,,,,,,,,,,,,,,,,,,,,,,,,,,,,,,,,,,
,,"[""period""]",0,[0.2504000000953681],10,0,10,0,1,601fe0de101ae05414812f4d,26,Kobieta,2022-06-04_07h10.54.283,task,2021.1.4,Win32,59.88382538,628b806c463b948bc644b84f,629af6bcc430cf36bc415876,,,,,,,,,,,,,,,,,,,,,,,,,,,,,,,,,,,,,,,,,,,,,,,,,,,,,,,,,,,,,,,,,,,,,,,,,,,,,,,,,,,,,,,,,,,,,,,,,,,,,,,
,,"[""period""]",0,[0.2870999999046262],11,0,11,0,1,601fe0de101ae05414812f4d,26,Kobieta,2022-06-04_07h10.54.283,task,2021.1.4,Win32,59.88382538,628b806c463b948bc644b84f,629af6bcc430cf36bc415876,,,,,,,,,,,,,,,,,,,,,,,,,,,,,,,,,,,,,,,,,,,,,,,,,,,,,,,,,,,,,,,,,,,,,,,,,,,,,,,,,,,,,,,,,,,,,,,,,,,,,,,
,,"[""comma""]",0,[0.7432999999523133],12,0,12,0,1,601fe0de101ae05414812f4d,26,Kobieta,2022-06-04_07h10.54.283,task,2021.1.4,Win32,59.88382538,628b806c463b948bc644b84f,629af6bcc430cf36bc415876,,,,,,,,,,,,,,,,,,,,,,,,,,,,,,,,,,,,,,,,,,,,,,,,,,,,,,,,,,,,,,,,,,,,,,,,,,,,,,,,,,,,,,,,,,,,,,,,,,,,,,,
,,"[""comma""]",0,[0.29829999995232015],13,0,13,0,1,601fe0de101ae05414812f4d,26,Kobieta,2022-06-04_07h10.54.283,task,2021.1.4,Win32,59.88382538,628b806c463b948bc644b84f,629af6bcc430cf36bc415876,,,,,,,,,,,,,,,,,,,,,,,,,,,,,,,,,,,,,,,,,,,,,,,,,,,,,,,,,,,,,,,,,,,,,,,,,,,,,,,,,,,,,,,,,,,,,,,,,,,,,,,
,,"[""period""]",0,[0.35070000004768076],14,0,14,0,1,601fe0de101ae05414812f4d,26,Kobieta,2022-06-04_07h10.54.283,task,2021.1.4,Win32,59.88382538,628b806c463b948bc644b84f,629af6bcc430cf36bc415876,,,,,,,,,,,,,,,,,,,,,,,,,,,,,,,,,,,,,,,,,,,,,,,,,,,,,,,,,,,,,,,,,,,,,,,,,,,,,,,,,,,,,,,,,,,,,,,,,,,,,,,
,,"[""comma""]",0,[0.2512999999523089],15,0,15,0,1,601fe0de101ae05414812f4d,26,Kobieta,2022-06-04_07h10.54.283,task,2021.1.4,Win32,59.88382538,628b806c463b948bc644b84f,629af6bcc430cf36bc415876,,,,,,,,,,,,,,,,,,,,,,,,,,,,,,,,,,,,,,,,,,,,,,,,,,,,,,,,,,,,,,,,,,,,,,,,,,,,,,,,,,,,,,,,,,,,,,,,,,,,,,,
,,"[""period""]",0,[0.23970000004769076],16,0,16,0,1,601fe0de101ae05414812f4d,26,Kobieta,2022-06-04_07h10.54.283,task,2021.1.4,Win32,59.88382538,628b806c463b948bc644b84f,629af6bcc430cf36bc415876,,,,,,,,,,,,,,,,,,,,,,,,,,,,,,,,,,,,,,,,,,,,,,,,,,,,,,,,,,,,,,,,,,,,,,,,,,,,,,,,,,,,,,,,,,,,,,,,,,,,,,,
,,"[""comma""]",0,[0.512999999999991],17,0,17,0,1,601fe0de101ae05414812f4d,26,Kobieta,2022-06-04_07h10.54.283,task,2021.1.4,Win32,59.88382538,628b806c463b948bc644b84f,629af6bcc430cf36bc415876,,,,,,,,,,,,,,,,,,,,,,,,,,,,,,,,,,,,,,,,,,,,,,,,,,,,,,,,,,,,,,,,,,,,,,,,,,,,,,,,,,,,,,,,,,,,,,,,,,,,,,,
,,"[""comma""]",0,[0.31840000009536595],18,0,18,0,1,601fe0de101ae05414812f4d,26,Kobieta,2022-06-04_07h10.54.283,task,2021.1.4,Win32,59.88382538,628b806c463b948bc644b84f,629af6bcc430cf36bc415876,,,,,,,,,,,,,,,,,,,,,,,,,,,,,,,,,,,,,,,,,,,,,,,,,,,,,,,,,,,,,,,,,,,,,,,,,,,,,,,,,,,,,,,,,,,,,,,,,,,,,,,
,,"[""comma""]",0,[0.3151000001430475],19,0,19,0,1,601fe0de101ae05414812f4d,26,Kobieta,2022-06-04_07h10.54.283,task,2021.1.4,Win32,59.88382538,628b806c463b948bc644b84f,629af6bcc430cf36bc415876,,,,,,,,,,,,,,,,,,,,,,,,,,,,,,,,,,,,,,,,,,,,,,,,,,,,,,,,,,,,,,,,,,,,,,,,,,,,,,,,,,,,,,,,,,,,,,,,,,,,,,,
,,"[""comma""]",0,[0.7079999999999984],20,0,20,0,1,601fe0de101ae05414812f4d,26,Kobieta,2022-06-04_07h10.54.283,task,2021.1.4,Win32,59.88382538,628b806c463b948bc644b84f,629af6bcc430cf36bc415876,,,,,,,,,,,,,,,,,,,,,,,,,,,,,,,,,,,,,,,,,,,,,,,,,,,,,,,,,,,,,,,,,,,,,,,,,,,,,,,,,,,,,,,,,,,,,,,,,,,,,,,
,,"[""comma""]",0,[0.5480000000000018],21,0,21,0,1,601fe0de101ae05414812f4d,26,Kobieta,2022-06-04_07h10.54.283,task,2021.1.4,Win32,59.88382538,628b806c463b948bc644b84f,629af6bcc430cf36bc415876,,,,,,,,,,,,,,,,,,,,,,,,,,,,,,,,,,,,,,,,,,,,,,,,,,,,,,,,,,,,,,,,,,,,,,,,,,,,,,,,,,,,,,,,,,,,,,,,,,,,,,,
,,"[""comma""]",0,[0.6413999998569437],22,0,22,0,1,601fe0de101ae05414812f4d,26,Kobieta,2022-06-04_07h10.54.283,task,2021.1.4,Win32,59.88382538,628b806c463b948bc644b84f,629af6bcc430cf36bc415876,,,,,,,,,,,,,,,,,,,,,,,,,,,,,,,,,,,,,,,,,,,,,,,,,,,,,,,,,,,,,,,,,,,,,,,,,,,,,,,,,,,,,,,,,,,,,,,,,,,,,,,
,,,0,,23,0,23,0,1,601fe0de101ae05414812f4d,26,Kobieta,2022-06-04_07h10.54.283,task,2021.1.4,Win32,59.88382538,628b806c463b948bc644b84f,629af6bcc430cf36bc415876,,,,,,,,,,,,,,,,,,,,,,,,,,,,,,,,,,,,,,,,,,,,,,,,,,,,,,,,,,,,,,,,,,,,,,,,,,,,,,,,,,,,,,,,,,,,,,,,,,,,,,,
,,"[""period""]",0,[0.04229999995230571],24,0,24,0,1,601fe0de101ae05414812f4d,26,Kobieta,2022-06-04_07h10.54.283,task,2021.1.4,Win32,59.88382538,628b806c463b948bc644b84f,629af6bcc430cf36bc415876,,,,,,,,,,,,,,,,,,,,,,,,,,,,,,,,,,,,,,,,,,,,,,,,,,,,,,,,,,,,,,,,,,,,,,,,,,,,,,,,,,,,,,,,,,,,,,,,,,,,,,,
,,"[""comma""]",0,[0.5489999999999924],25,0,25,0,1,601fe0de101ae05414812f4d,26,Kobieta,2022-06-04_07h10.54.283,task,2021.1.4,Win32,59.88382538,628b806c463b948bc644b84f,629af6bcc430cf36bc415876,,,,,,,,,,,,,,,,,,,,,,,,,,,,,,,,,,,,,,,,,,,,,,,,,,,,,,,,,,,,,,,,,,,,,,,,,,,,,,,,,,,,,,,,,,,,,,,,,,,,,,,
,,"[""comma""]",0,[0.6594999999999942],26,0,26,0,1,601fe0de101ae05414812f4d,26,Kobieta,2022-06-04_07h10.54.283,task,2021.1.4,Win32,59.88382538,628b806c463b948bc644b84f,629af6bcc430cf36bc415876,,,,,,,,,,,,,,,,,,,,,,,,,,,,,,,,,,,,,,,,,,,,,,,,,,,,,,,,,,,,,,,,,,,,,,,,,,,,,,,,,,,,,,,,,,,,,,,,,,,,,,,
,,"[""period""]",0,[0.5542000000476861],27,0,27,0,1,601fe0de101ae05414812f4d,26,Kobieta,2022-06-04_07h10.54.283,task,2021.1.4,Win32,59.88382538,628b806c463b948bc644b84f,629af6bcc430cf36bc415876,,,,,,,,,,,,,,,,,,,,,,,,,,,,,,,,,,,,,,,,,,,,,,,,,,,,,,,,,,,,,,,,,,,,,,,,,,,,,,,,,,,,,,,,,,,,,,,,,,,,,,,
,,"[""period""]",0,[0.698799999952314],28,0,28,0,1,601fe0de101ae05414812f4d,26,Kobieta,2022-06-04_07h10.54.283,task,2021.1.4,Win32,59.88382538,628b806c463b948bc644b84f,629af6bcc430cf36bc415876,,,,,,,,,,,,,,,,,,,,,,,,,,,,,,,,,,,,,,,,,,,,,,,,,,,,,,,,,,,,,,,,,,,,,,,,,,,,,,,,,,,,,,,,,,,,,,,,,,,,,,,
,,"[""comma""]",0,[0.7272000000476879],29,0,29,0,1,601fe0de101ae05414812f4d,26,Kobieta,2022-06-04_07h10.54.283,task,2021.1.4,Win32,59.88382538,628b806c463b948bc644b84f,629af6bcc430cf36bc415876,,,,,,,,,,,,,,,,,,,,,,,,,,,,,,,,,,,,,,,,,,,,,,,,,,,,,,,,,,,,,,,,,,,,,,,,,,,,,,,,,,,,,,,,,,,,,,,,,,,,,,,
,,"[""period""]",0,[0.6982000000476773],30,0,30,0,1,601fe0de101ae05414812f4d,26,Kobieta,2022-06-04_07h10.54.283,task,2021.1.4,Win32,59.88382538,628b806c463b948bc644b84f,629af6bcc430cf36bc415876,,,,,,,,,,,,,,,,,,,,,,,,,,,,,,,,,,,,,,,,,,,,,,,,,,,,,,,,,,,,,,,,,,,,,,,,,,,,,,,,,,,,,,,,,,,,,,,,,,,,,,,
,,"[""comma""]",0,[0.724700000047676],31,0,31,0,1,601fe0de101ae05414812f4d,26,Kobieta,2022-06-04_07h10.54.283,task,2021.1.4,Win32,59.88382538,628b806c463b948bc644b84f,629af6bcc430cf36bc415876,,,,,,,,,,,,,,,,,,,,,,,,,,,,,,,,,,,,,,,,,,,,,,,,,,,,,,,,,,,,,,,,,,,,,,,,,,,,,,,,,,,,,,,,,,,,,,,,,,,,,,,
,,,0,,32,0,32,0,1,601fe0de101ae05414812f4d,26,Kobieta,2022-06-04_07h10.54.283,task,2021.1.4,Win32,59.88382538,628b806c463b948bc644b84f,629af6bcc430cf36bc415876,,,,,,,,,,,,,,,,,,,,,,,,,,,,,,,,,,,,,,,,,,,,,,,,,,,,,,,,,,,,,,,,,,,,,,,,,,,,,,,,,,,,,,,,,,,,,,,,,,,,,,,
,,"[""period""]",0,[0.5999000000953743],33,0,33,0,1,601fe0de101ae05414812f4d,26,Kobieta,2022-06-04_07h10.54.283,task,2021.1.4,Win32,59.88382538,628b806c463b948bc644b84f,629af6bcc430cf36bc415876,,,,,,,,,,,,,,,,,,,,,,,,,,,,,,,,,,,,,,,,,,,,,,,,,,,,,,,,,,,,,,,,,,,,,,,,,,,,,,,,,,,,,,,,,,,,,,,,,,,,,,,
,,"[""comma""]",0,[0.577200000047668],34,0,34,0,1,601fe0de101ae05414812f4d,26,Kobieta,2022-06-04_07h10.54.283,task,2021.1.4,Win32,59.88382538,628b806c463b948bc644b84f,629af6bcc430cf36bc415876,,,,,,,,,,,,,,,,,,,,,,,,,,,,,,,,,,,,,,,,,,,,,,,,,,,,,,,,,,,,,,,,,,,,,,,,,,,,,,,,,,,,,,,,,,,,,,,,,,,,,,,
,,"[""comma""]",0,[0.7062999999523072],35,0,35,0,1,601fe0de101ae05414812f4d,26,Kobieta,2022-06-04_07h10.54.283,task,2021.1.4,Win32,59.88382538,628b806c463b948bc644b84f,629af6bcc430cf36bc415876,,,,,,,,,,,,,,,,,,,,,,,,,,,,,,,,,,,,,,,,,,,,,,,,,,,,,,,,,,,,,,,,,,,,,,,,,,,,,,,,,,,,,,,,,,,,,,,,,,,,,,,
,,"[""period""]",0,[0.45179999995232833],36,0,36,0,1,601fe0de101ae05414812f4d,26,Kobieta,2022-06-04_07h10.54.283,task,2021.1.4,Win32,59.88382538,628b806c463b948bc644b84f,629af6bcc430cf36bc415876,,,,,,,,,,,,,,,,,,,,,,,,,,,,,,,,,,,,,,,,,,,,,,,,,,,,,,,,,,,,,,,,,,,,,,,,,,,,,,,,,,,,,,,,,,,,,,,,,,,,,,,
,,"[""comma""]",0,[0.852400000095372],37,0,37,0,1,601fe0de101ae05414812f4d,26,Kobieta,2022-06-04_07h10.54.283,task,2021.1.4,Win32,59.88382538,628b806c463b948bc644b84f,629af6bcc430cf36bc415876,,,,,,,,,,,,,,,,,,,,,,,,,,,,,,,,,,,,,,,,,,,,,,,,,,,,,,,,,,,,,,,,,,,,,,,,,,,,,,,,,,,,,,,,,,,,,,,,,,,,,,,
,,,0,,38,0,38,0,1,601fe0de101ae05414812f4d,26,Kobieta,2022-06-04_07h10.54.283,task,2021.1.4,Win32,59.88382538,628b806c463b948bc644b84f,629af6bcc430cf36bc415876,,,,,,,,,,,,,,,,,,,,,,,,,,,,,,,,,,,,,,,,,,,,,,,,,,,,,,,,,,,,,,,,,,,,,,,,,,,,,,,,,,,,,,,,,,,,,,,,,,,,,,,
,,"[""comma""]",0,[0.34870000004769963],39,0,39,0,1,601fe0de101ae05414812f4d,26,Kobieta,2022-06-04_07h10.54.283,task,2021.1.4,Win32,59.88382538,628b806c463b948bc644b84f,629af6bcc430cf36bc415876,,,,,,,,,,,,,,,,,,,,,,,,,,,,,,,,,,,,,,,,,,,,,,,,,,,,,,,,,,,,,,,,,,,,,,,,,,,,,,,,,,,,,,,,,,,,,,,,,,,,,,,
,,"[""period""]",0,[0.6585999999046237],40,0,40,0,1,601fe0de101ae05414812f4d,26,Kobieta,2022-06-04_07h10.54.283,task,2021.1.4,Win32,59.88382538,628b806c463b948bc644b84f,629af6bcc430cf36bc415876,,,,,,,,,,,,,,,,,,,,,,,,,,,,,,,,,,,,,,,,,,,,,,,,,,,,,,,,,,,,,,,,,,,,,,,,,,,,,,,,,,,,,,,,,,,,,,,,,,,,,,,
,,"[""period""]",0,[0.8760000000000048],41,0,41,0,1,601fe0de101ae05414812f4d,26,Kobieta,2022-06-04_07h10.54.283,task,2021.1.4,Win32,59.88382538,628b806c463b948bc644b84f,629af6bcc430cf36bc415876,,,,,,,,,,,,,,,,,,,,,,,,,,,,,,,,,,,,,,,,,,,,,,,,,,,,,,,,,,,,,,,,,,,,,,,,,,,,,,,,,,,,,,,,,,,,,,,,,,,,,,,
,,,0,,42,0,42,0,1,601fe0de101ae05414812f4d,26,Kobieta,2022-06-04_07h10.54.283,task,2021.1.4,Win32,59.88382538,628b806c463b948bc644b84f,629af6bcc430cf36bc415876,,,,,,,,,,,,,,,,,,,,,,,,,,,,,,,,,,,,,,,,,,,,,,,,,,,,,,,,,,,,,,,,,,,,,,,,,,,,,,,,,,,,,,,,,,,,,,,,,,,,,,,
,,"[""comma""]",0,[0.36520000004767894],43,0,43,0,1,601fe0de101ae05414812f4d,26,Kobieta,2022-06-04_07h10.54.283,task,2021.1.4,Win32,59.88382538,628b806c463b948bc644b84f,629af6bcc430cf36bc415876,,,,,,,,,,,,,,,,,,,,,,,,,,,,,,,,,,,,,,,,,,,,,,,,,,,,,,,,,,,,,,,,,,,,,,,,,,,,,,,,,,,,,,,,,,,,,,,,,,,,,,,
,,"[""period""]",0,[1.7195999999046307],44,0,44,0,1,601fe0de101ae05414812f4d,26,Kobieta,2022-06-04_07h10.54.283,task,2021.1.4,Win32,59.88382538,628b806c463b948bc644b84f,629af6bcc430cf36bc415876,,,,,,,,,,,,,,,,,,,,,,,,,,,,,,,,,,,,,,,,,,,,,,,,,,,,,,,,,,,,,,,,,,,,,,,,,,,,,,,,,,,,,,,,,,,,,,,,,,,,,,,
,,,0,,45,0,45,0,1,601fe0de101ae05414812f4d,26,Kobieta,2022-06-04_07h10.54.283,task,2021.1.4,Win32,59.88382538,628b806c463b948bc644b84f,629af6bcc430cf36bc415876,,,,,,,,,,,,,,,,,,,,,,,,,,,,,,,,,,,,,,,,,,,,,,,,,,,,,,,,,,,,,,,,,,,,,,,,,,,,,,,,,,,,,,,,,,,,,,,,,,,,,,,
,,"[""comma""]",0,[0.38559999990462757],46,0,46,0,1,601fe0de101ae05414812f4d,26,Kobieta,2022-06-04_07h10.54.283,task,2021.1.4,Win32,59.88382538,628b806c463b948bc644b84f,629af6bcc430cf36bc415876,,,,,,,,,,,,,,,,,,,,,,,,,,,,,,,,,,,,,,,,,,,,,,,,,,,,,,,,,,,,,,,,,,,,,,,,,,,,,,,,,,,,,,,,,,,,,,,,,,,,,,,
,,"[""comma""]",0,[0.6610000000000014],47,0,47,0,1,601fe0de101ae05414812f4d,26,Kobieta,2022-06-04_07h10.54.283,task,2021.1.4,Win32,59.88382538,628b806c463b948bc644b84f,629af6bcc430cf36bc415876,,,,,,,,,,,,,,,,,,,,,,,,,,,,,,,,,,,,,,,,,,,,,,,,,,,,,,,,,,,,,,,,,,,,,,,,,,,,,,,,,,,,,,,,,,,,,,,,,,,,,,,
,,"[""period""]",0,[0.8982999999523145],48,0,48,0,1,601fe0de101ae05414812f4d,26,Kobieta,2022-06-04_07h10.54.283,task,2021.1.4,Win32,59.88382538,628b806c463b948bc644b84f,629af6bcc430cf36bc415876,,,,,,,,,,,,,,,,,,,,,,,,,,,,,,,,,,,,,,,,,,,,,,,,,,,,,,,,,,,,,,,,,,,,,,,,,,,,,,,,,,,,,,,,,,,,,,,,,,,,,,,
,,"[""comma""]",0,[1.3536999998092654],49,0,49,0,1,601fe0de101ae05414812f4d,26,Kobieta,2022-06-04_07h10.54.283,task,2021.1.4,Win32,59.88382538,628b806c463b948bc644b84f,629af6bcc430cf36bc415876,,,,,,,,,,,,,,,,,,,,,,,,,,,,,,,,,,,,,,,,,,,,,,,,,,,,,,,,,,,,,,,,,,,,,,,,,,,,,,,,,,,,,,,,,,,,,,,,,,,,,,,
,,"[""comma""]",0,[0.5886000001430602],50,0,50,0,1,601fe0de101ae05414812f4d,26,Kobieta,2022-06-04_07h10.54.283,task,2021.1.4,Win32,59.88382538,628b806c463b948bc644b84f,629af6bcc430cf36bc415876,,,,,,,,,,,,,,,,,,,,,,,,,,,,,,,,,,,,,,,,,,,,,,,,,,,,,,,,,,,,,,,,,,,,,,,,,,,,,,,,,,,,,,,,,,,,,,,,,,,,,,,
,,"[""comma""]",0,[0.6036999998092654],51,0,51,0,1,601fe0de101ae05414812f4d,26,Kobieta,2022-06-04_07h10.54.283,task,2021.1.4,Win32,59.88382538,628b806c463b948bc644b84f,629af6bcc430cf36bc415876,,,,,,,,,,,,,,,,,,,,,,,,,,,,,,,,,,,,,,,,,,,,,,,,,,,,,,,,,,,,,,,,,,,,,,,,,,,,,,,,,,,,,,,,,,,,,,,,,,,,,,,
,,"[""comma""]",0,[0.5522999999523392],52,0,52,0,1,601fe0de101ae05414812f4d,26,Kobieta,2022-06-04_07h10.54.283,task,2021.1.4,Win32,59.88382538,628b806c463b948bc644b84f,629af6bcc430cf36bc415876,,,,,,,,,,,,,,,,,,,,,,,,,,,,,,,,,,,,,,,,,,,,,,,,,,,,,,,,,,,,,,,,,,,,,,,,,,,,,,,,,,,,,,,,,,,,,,,,,,,,,,,
,,"[""period""]",0,[0.7727000000476778],53,0,53,0,1,601fe0de101ae05414812f4d,26,Kobieta,2022-06-04_07h10.54.283,task,2021.1.4,Win32,59.88382538,628b806c463b948bc644b84f,629af6bcc430cf36bc415876,,,,,,,,,,,,,,,,,,,,,,,,,,,,,,,,,,,,,,,,,,,,,,,,,,,,,,,,,,,,,,,,,,,,,,,,,,,,,,,,,,,,,,,,,,,,,,,,,,,,,,,
,,"[""comma""]",0,[1.3015999999046244],54,0,54,0,1,601fe0de101ae05414812f4d,26,Kobieta,2022-06-04_07h10.54.283,task,2021.1.4,Win32,59.88382538,628b806c463b948bc644b84f,629af6bcc430cf36bc415876,,,,,,,,,,,,,,,,,,,,,,,,,,,,,,,,,,,,,,,,,,,,,,,,,,,,,,,,,,,,,,,,,,,,,,,,,,,,,,,,,,,,,,,,,,,,,,,,,,,,,,,
,,,0,,55,0,55,0,1,601fe0de101ae05414812f4d,26,Kobieta,2022-06-04_07h10.54.283,task,2021.1.4,Win32,59.88382538,628b806c463b948bc644b84f,629af6bcc430cf36bc415876,,,,,,,,,,,,,,,,,,,,,,,,,,,,,,,,,,,,,,,,,,,,,,,,,,,,,,,,,,,,,,,,,,,,,,,,,,,,,,,,,,,,,,,,,,,,,,,,,,,,,,,
,,"[""comma""]",0,[0.5180000000000007],56,0,56,0,1,601fe0de101ae05414812f4d,26,Kobieta,2022-06-04_07h10.54.283,task,2021.1.4,Win32,59.88382538,628b806c463b948bc644b84f,629af6bcc430cf36bc415876,,,,,,,,,,,,,,,,,,,,,,,,,,,,,,,,,,,,,,,,,,,,,,,,,,,,,,,,,,,,,,,,,,,,,,,,,,,,,,,,,,,,,,,,,,,,,,,,,,,,,,,
,,"[""period""]",0,[0.5854000000953761],57,0,57,0,1,601fe0de101ae05414812f4d,26,Kobieta,2022-06-04_07h10.54.283,task,2021.1.4,Win32,59.88382538,628b806c463b948bc644b84f,629af6bcc430cf36bc415876,,,,,,,,,,,,,,,,,,,,,,,,,,,,,,,,,,,,,,,,,,,,,,,,,,,,,,,,,,,,,,,,,,,,,,,,,,,,,,,,,,,,,,,,,,,,,,,,,,,,,,,
,,"[""period""]",0,[0.8499999999999943],58,0,58,0,1,601fe0de101ae05414812f4d,26,Kobieta,2022-06-04_07h10.54.283,task,2021.1.4,Win32,59.88382538,628b806c463b948bc644b84f,629af6bcc430cf36bc415876,,,,,,,,,,,,,,,,,,,,,,,,,,,,,,,,,,,,,,,,,,,,,,,,,,,,,,,,,,,,,,,,,,,,,,,,,,,,,,,,,,,,,,,,,,,,,,,,,,,,,,,
,,"[""comma""]",0,[1.0402000000476903],59,0,59,0,1,601fe0de101ae05414812f4d,26,Kobieta,2022-06-04_07h10.54.283,task,2021.1.4,Win32,59.88382538,628b806c463b948bc644b84f,629af6bcc430cf36bc415876,,,,,,,,,,,,,,,,,,,,,,,,,,,,,,,,,,,,,,,,,,,,,,,,,,,,,,,,,,,,,,,,,,,,,,,,,,,,,,,,,,,,,,,,,,,,,,,,,,,,,,,
,,,0,,60,0,60,0,1,601fe0de101ae05414812f4d,26,Kobieta,2022-06-04_07h10.54.283,task,2021.1.4,Win32,59.88382538,628b806c463b948bc644b84f,629af6bcc430cf36bc415876,,,,,,,,,,,,,,,,,,,,,,,,,,,,,,,,,,,,,,,,,,,,,,,,,,,,,,,,,,,,,,,,,,,,,,,,,,,,,,,,,,,,,,,,,,,,,,,,,,,,,,,
,,"[""comma""]",0,[0.28209999990463075],61,0,61,0,1,601fe0de101ae05414812f4d,26,Kobieta,2022-06-04_07h10.54.283,task,2021.1.4,Win32,59.88382538,628b806c463b948bc644b84f,629af6bcc430cf36bc415876,,,,,,,,,,,,,,,,,,,,,,,,,,,,,,,,,,,,,,,,,,,,,,,,,,,,,,,,,,,,,,,,,,,,,,,,,,,,,,,,,,,,,,,,,,,,,,,,,,,,,,,
,,"[""comma""]",0,[0.533799999952322],62,0,62,0,1,601fe0de101ae05414812f4d,26,Kobieta,2022-06-04_07h10.54.283,task,2021.1.4,Win32,59.88382538,628b806c463b948bc644b84f,629af6bcc430cf36bc415876,,,,,,,,,,,,,,,,,,,,,,,,,,,,,,,,,,,,,,,,,,,,,,,,,,,,,,,,,,,,,,,,,,,,,,,,,,,,,,,,,,,,,,,,,,,,,,,,,,,,,,,
,,"[""period""]",0,[0.31309999990463666],63,0,63,0,1,601fe0de101ae05414812f4d,26,Kobieta,2022-06-04_07h10.54.283,task,2021.1.4,Win32,59.88382538,628b806c463b948bc644b84f,629af6bcc430cf36bc415876,,,,,,,,,,,,,,,,,,,,,,,,,,,,,,,,,,,,,,,,,,,,,,,,,,,,,,,,,,,,,,,,,,,,,,,,,,,,,,,,,,,,,,,,,,,,,,,,,,,,,,,
,,"[""comma""]",0,[0.3329999999999984],64,0,64,0,1,601fe0de101ae05414812f4d,26,Kobieta,2022-06-04_07h10.54.283,task,2021.1.4,Win32,59.88382538,628b806c463b948bc644b84f,629af6bcc430cf36bc415876,,,,,,,,,,,,,,,,,,,,,,,,,,,,,,,,,,,,,,,,,,,,,,,,,,,,,,,,,,,,,,,,,,,,,,,,,,,,,,,,,,,,,,,,,,,,,,,,,,,,,,,
,,"[""comma""]",0,[0.6819000000953679],65,0,65,0,1,601fe0de101ae05414812f4d,26,Kobieta,2022-06-04_07h10.54.283,task,2021.1.4,Win32,59.88382538,628b806c463b948bc644b84f,629af6bcc430cf36bc415876,,,,,,,,,,,,,,,,,,,,,,,,,,,,,,,,,,,,,,,,,,,,,,,,,,,,,,,,,,,,,,,,,,,,,,,,,,,,,,,,,,,,,,,,,,,,,,,,,,,,,,,
,,"[""period""]",0,[0.6687999999523129],66,0,66,0,1,601fe0de101ae05414812f4d,26,Kobieta,2022-06-04_07h10.54.283,task,2021.1.4,Win32,59.88382538,628b806c463b948bc644b84f,629af6bcc430cf36bc415876,,,,,,,,,,,,,,,,,,,,,,,,,,,,,,,,,,,,,,,,,,,,,,,,,,,,,,,,,,,,,,,,,,,,,,,,,,,,,,,,,,,,,,,,,,,,,,,,,,,,,,,
,,"[""comma""]",0,[0.4378999998569384],67,0,67,0,1,601fe0de101ae05414812f4d,26,Kobieta,2022-06-04_07h10.54.283,task,2021.1.4,Win32,59.88382538,628b806c463b948bc644b84f,629af6bcc430cf36bc415876,,,,,,,,,,,,,,,,,,,,,,,,,,,,,,,,,,,,,,,,,,,,,,,,,,,,,,,,,,,,,,,,,,,,,,,,,,,,,,,,,,,,,,,,,,,,,,,,,,,,,,,
,,"[""period""]",0,[0.7253999998569327],68,0,68,0,1,601fe0de101ae05414812f4d,26,Kobieta,2022-06-04_07h10.54.283,task,2021.1.4,Win32,59.88382538,628b806c463b948bc644b84f,629af6bcc430cf36bc415876,,,,,,,,,,,,,,,,,,,,,,,,,,,,,,,,,,,,,,,,,,,,,,,,,,,,,,,,,,,,,,,,,,,,,,,,,,,,,,,,,,,,,,,,,,,,,,,,,,,,,,,
,,"[""comma""]",0,[0.8855000000000075],69,0,69,0,1,601fe0de101ae05414812f4d,26,Kobieta,2022-06-04_07h10.54.283,task,2021.1.4,Win32,59.88382538,628b806c463b948bc644b84f,629af6bcc430cf36bc415876,,,,,,,,,,,,,,,,,,,,,,,,,,,,,,,,,,,,,,,,,,,,,,,,,,,,,,,,,,,,,,,,,,,,,,,,,,,,,,,,,,,,,,,,,,,,,,,,,,,,,,,
,,"[""comma""]",0,[0.5861000001430625],70,0,70,0,1,601fe0de101ae05414812f4d,26,Kobieta,2022-06-04_07h10.54.283,task,2021.1.4,Win32,59.88382538,628b806c463b948bc644b84f,629af6bcc430cf36bc415876,,,,,,,,,,,,,,,,,,,,,,,,,,,,,,,,,,,,,,,,,,,,,,,,,,,,,,,,,,,,,,,,,,,,,,,,,,,,,,,,,,,,,,,,,,,,,,,,,,,,,,,
,,"[""period""]",0,[0.3552999999523365],71,0,71,0,1,601fe0de101ae05414812f4d,26,Kobieta,2022-06-04_07h10.54.283,task,2021.1.4,Win32,59.88382538,628b806c463b948bc644b84f,629af6bcc430cf36bc415876,,,,,,,,,,,,,,,,,,,,,,,,,,,,,,,,,,,,,,,,,,,,,,,,,,,,,,,,,,,,,,,,,,,,,,,,,,,,,,,,,,,,,,,,,,,,,,,,,,,,,,,
,,"[""comma""]",0,[1.446400000095366],72,0,72,0,1,601fe0de101ae05414812f4d,26,Kobieta,2022-06-04_07h10.54.283,task,2021.1.4,Win32,59.88382538,628b806c463b948bc644b84f,629af6bcc430cf36bc415876,,,,,,,,,,,,,,,,,,,,,,,,,,,,,,,,,,,,,,,,,,,,,,,,,,,,,,,,,,,,,,,,,,,,,,,,,,,,,,,,,,,,,,,,,,,,,,,,,,,,,,,
,,,0,,73,0,73,0,1,601fe0de101ae05414812f4d,26,Kobieta,2022-06-04_07h10.54.283,task,2021.1.4,Win32,59.88382538,628b806c463b948bc644b84f,629af6bcc430cf36bc415876,,,,,,,,,,,,,,,,,,,,,,,,,,,,,,,,,,,,,,,,,,,,,,,,,,,,,,,,,,,,,,,,,,,,,,,,,,,,,,,,,,,,,,,,,,,,,,,,,,,,,,,
,,"[""comma""]",0,[0.37000000000000455],74,0,74,0,1,601fe0de101ae05414812f4d,26,Kobieta,2022-06-04_07h10.54.283,task,2021.1.4,Win32,59.88382538,628b806c463b948bc644b84f,629af6bcc430cf36bc415876,,,,,,,,,,,,,,,,,,,,,,,,,,,,,,,,,,,,,,,,,,,,,,,,,,,,,,,,,,,,,,,,,,,,,,,,,,,,,,,,,,,,,,,,,,,,,,,,,,,,,,,
,,"[""comma""]",0,[0.6224000000953538],75,0,75,0,1,601fe0de101ae05414812f4d,26,Kobieta,2022-06-04_07h10.54.283,task,2021.1.4,Win32,59.88382538,628b806c463b948bc644b84f,629af6bcc430cf36bc415876,,,,,,,,,,,,,,,,,,,,,,,,,,,,,,,,,,,,,,,,,,,,,,,,,,,,,,,,,,,,,,,,,,,,,,,,,,,,,,,,,,,,,,,,,,,,,,,,,,,,,,,
,,"[""period""]",0,[0.4654000000953715],76,0,76,0,1,601fe0de101ae05414812f4d,26,Kobieta,2022-06-04_07h10.54.283,task,2021.1.4,Win32,59.88382538,628b806c463b948bc644b84f,629af6bcc430cf36bc415876,,,,,,,,,,,,,,,,,,,,,,,,,,,,,,,,,,,,,,,,,,,,,,,,,,,,,,,,,,,,,,,,,,,,,,,,,,,,,,,,,,,,,,,,,,,,,,,,,,,,,,,
,,"[""period""]",0,[0.3234999999999957],77,0,77,0,1,601fe0de101ae05414812f4d,26,Kobieta,2022-06-04_07h10.54.283,task,2021.1.4,Win32,59.88382538,628b806c463b948bc644b84f,629af6bcc430cf36bc415876,,,,,,,,,,,,,,,,,,,,,,,,,,,,,,,,,,,,,,,,,,,,,,,,,,,,,,,,,,,,,,,,,,,,,,,,,,,,,,,,,,,,,,,,,,,,,,,,,,,,,,,
,,"[""period""]",0,[0.3025000000000091],78,0,78,0,1,601fe0de101ae05414812f4d,26,Kobieta,2022-06-04_07h10.54.283,task,2021.1.4,Win32,59.88382538,628b806c463b948bc644b84f,629af6bcc430cf36bc415876,,,,,,,,,,,,,,,,,,,,,,,,,,,,,,,,,,,,,,,,,,,,,,,,,,,,,,,,,,,,,,,,,,,,,,,,,,,,,,,,,,,,,,,,,,,,,,,,,,,,,,,
,,"[""period""]",0,[0.38209999990462507],79,0,79,0,1,601fe0de101ae05414812f4d,26,Kobieta,2022-06-04_07h10.54.283,task,2021.1.4,Win32,59.88382538,628b806c463b948bc644b84f,629af6bcc430cf36bc415876,,,,,,,,,,,,,,,,,,,,,,,,,,,,,,,,,,,,,,,,,,,,,,,,,,,,,,,,,,,,,,,,,,,,,,,,,,,,,,,,,,,,,,,,,,,,,,,,,,,,,,,
,,"[""comma""]",0,[0.31970000004767485],80,0,80,0,1,601fe0de101ae05414812f4d,26,Kobieta,2022-06-04_07h10.54.283,task,2021.1.4,Win32,59.88382538,628b806c463b948bc644b84f,629af6bcc430cf36bc415876,,,,,,,,,,,,,,,,,,,,,,,,,,,,,,,,,,,,,,,,,,,,,,,,,,,,,,,,,,,,,,,,,,,,,,,,,,,,,,,,,,,,,,,,,,,,,,,,,,,,,,,
,,"[""comma""]",0,[0.3094999999999857],81,0,81,0,1,601fe0de101ae05414812f4d,26,Kobieta,2022-06-04_07h10.54.283,task,2021.1.4,Win32,59.88382538,628b806c463b948bc644b84f,629af6bcc430cf36bc415876,,,,,,,,,,,,,,,,,,,,,,,,,,,,,,,,,,,,,,,,,,,,,,,,,,,,,,,,,,,,,,,,,,,,,,,,,,,,,,,,,,,,,,,,,,,,,,,,,,,,,,,
,,"[""comma""]",0,[0.031099999904654396],82,0,82,0,1,601fe0de101ae05414812f4d,26,Kobieta,2022-06-04_07h10.54.283,task,2021.1.4,Win32,59.88382538,628b806c463b948bc644b84f,629af6bcc430cf36bc415876,,,,,,,,,,,,,,,,,,,,,,,,,,,,,,,,,,,,,,,,,,,,,,,,,,,,,,,,,,,,,,,,,,,,,,,,,,,,,,,,,,,,,,,,,,,,,,,,,,,,,,,
,,"[""period""]",0,[0.3018999998569427],83,0,83,0,1,601fe0de101ae05414812f4d,26,Kobieta,2022-06-04_07h10.54.283,task,2021.1.4,Win32,59.88382538,628b806c463b948bc644b84f,629af6bcc430cf36bc415876,,,,,,,,,,,,,,,,,,,,,,,,,,,,,,,,,,,,,,,,,,,,,,,,,,,,,,,,,,,,,,,,,,,,,,,,,,,,,,,,,,,,,,,,,,,,,,,,,,,,,,,
,,"[""period""]",0,[0.14840000009536425],84,0,84,0,1,601fe0de101ae05414812f4d,26,Kobieta,2022-06-04_07h10.54.283,task,2021.1.4,Win32,59.88382538,628b806c463b948bc644b84f,629af6bcc430cf36bc415876,,,,,,,,,,,,,,,,,,,,,,,,,,,,,,,,,,,,,,,,,,,,,,,,,,,,,,,,,,,,,,,,,,,,,,,,,,,,,,,,,,,,,,,,,,,,,,,,,,,,,,,
,,"[""period""]",0,[0.26650000000000773],85,0,85,0,1,601fe0de101ae05414812f4d,26,Kobieta,2022-06-04_07h10.54.283,task,2021.1.4,Win32,59.88382538,628b806c463b948bc644b84f,629af6bcc430cf36bc415876,,,,,,,,,,,,,,,,,,,,,,,,,,,,,,,,,,,,,,,,,,,,,,,,,,,,,,,,,,,,,,,,,,,,,,,,,,,,,,,,,,,,,,,,,,,,,,,,,,,,,,,
,,"[""comma""]",0,[0.36549999999999727],86,0,86,0,1,601fe0de101ae05414812f4d,26,Kobieta,2022-06-04_07h10.54.283,task,2021.1.4,Win32,59.88382538,628b806c463b948bc644b84f,629af6bcc430cf36bc415876,,,,,,,,,,,,,,,,,,,,,,,,,,,,,,,,,,,,,,,,,,,,,,,,,,,,,,,,,,,,,,,,,,,,,,,,,,,,,,,,,,,,,,,,,,,,,,,,,,,,,,,
,,"[""comma""]",0,[0.2565999999046369],87,0,87,0,1,601fe0de101ae05414812f4d,26,Kobieta,2022-06-04_07h10.54.283,task,2021.1.4,Win32,59.88382538,628b806c463b948bc644b84f,629af6bcc430cf36bc415876,,,,,,,,,,,,,,,,,,,,,,,,,,,,,,,,,,,,,,,,,,,,,,,,,,,,,,,,,,,,,,,,,,,,,,,,,,,,,,,,,,,,,,,,,,,,,,,,,,,,,,,
,,"[""comma""]",0,[0.2005999999046253],88,0,88,0,1,601fe0de101ae05414812f4d,26,Kobieta,2022-06-04_07h10.54.283,task,2021.1.4,Win32,59.88382538,628b806c463b948bc644b84f,629af6bcc430cf36bc415876,,,,,,,,,,,,,,,,,,,,,,,,,,,,,,,,,,,,,,,,,,,,,,,,,,,,,,,,,,,,,,,,,,,,,,,,,,,,,,,,,,,,,,,,,,,,,,,,,,,,,,,
,,"[""period""]",0,[0.28549999999998477],89,0,89,0,1,601fe0de101ae05414812f4d,26,Kobieta,2022-06-04_07h10.54.283,task,2021.1.4,Win32,59.88382538,628b806c463b948bc644b84f,629af6bcc430cf36bc415876,,,,,,,,,,,,,,,,,,,,,,,,,,,,,,,,,,,,,,,,,,,,,,,,,,,,,,,,,,,,,,,,,,,,,,,,,,,,,,,,,,,,,,,,,,,,,,,,,,,,,,,
,,"[""period"",""period""]",0,"[0.2951000001430373,1.7834000000953552]",90,0,90,0,1,601fe0de101ae05414812f4d,26,Kobieta,2022-06-04_07h10.54.283,task,2021.1.4,Win32,59.88382538,628b806c463b948bc644b84f,629af6bcc430cf36bc415876,,,,,,,,,,,,,,,,,,,,,,,,,,,,,,,,,,,,,,,,,,,,,,,,,,,,,,,,,,,,,,,,,,,,,,,,,,,,,,,,,,,,,,,,,,,,,,,,,,,,,,,
,,,0,,91,0,91,0,1,601fe0de101ae05414812f4d,26,Kobieta,2022-06-04_07h10.54.283,task,2021.1.4,Win32,59.88382538,628b806c463b948bc644b84f,629af6bcc430cf36bc415876,,,,,,,,,,,,,,,,,,,,,,,,,,,,,,,,,,,,,,,,,,,,,,,,,,,,,,,,,,,,,,,,,,,,,,,,,,,,,,,,,,,,,,,,,,,,,,,,,,,,,,,
,,"[""comma""]",0,[0.21509999990462347],92,0,92,0,1,601fe0de101ae05414812f4d,26,Kobieta,2022-06-04_07h10.54.283,task,2021.1.4,Win32,59.88382538,628b806c463b948bc644b84f,629af6bcc430cf36bc415876,,,,,,,,,,,,,,,,,,,,,,,,,,,,,,,,,,,,,,,,,,,,,,,,,,,,,,,,,,,,,,,,,,,,,,,,,,,,,,,,,,,,,,,,,,,,,,,,,,,,,,,
,,"[""period""]",0,[0.714600000143065],93,0,93,0,1,601fe0de101ae05414812f4d,26,Kobieta,2022-06-04_07h10.54.283,task,2021.1.4,Win32,59.88382538,628b806c463b948bc644b84f,629af6bcc430cf36bc415876,,,,,,,,,,,,,,,,,,,,,,,,,,,,,,,,,,,,,,,,,,,,,,,,,,,,,,,,,,,,,,,,,,,,,,,,,,,,,,,,,,,,,,,,,,,,,,,,,,,,,,,
,,,0,,94,0,94,0,1,601fe0de101ae05414812f4d,26,Kobieta,2022-06-04_07h10.54.283,task,2021.1.4,Win32,59.88382538,628b806c463b948bc644b84f,629af6bcc430cf36bc415876,,,,,,,,,,,,,,,,,,,,,,,,,,,,,,,,,,,,,,,,,,,,,,,,,,,,,,,,,,,,,,,,,,,,,,,,,,,,,,,,,,,,,,,,,,,,,,,,,,,,,,,
,,"[""comma""]",0,[0.3314000000953854],95,0,95,0,1,601fe0de101ae05414812f4d,26,Kobieta,2022-06-04_07h10.54.283,task,2021.1.4,Win32,59.88382538,628b806c463b948bc644b84f,629af6bcc430cf36bc415876,,,,,,,,,,,,,,,,,,,,,,,,,,,,,,,,,,,,,,,,,,,,,,,,,,,,,,,,,,,,,,,,,,,,,,,,,,,,,,,,,,,,,,,,,,,,,,,,,,,,,,,
,,"[""comma"",""period""]",0,"[0.25670000004768667,1.8142999999523397]",96,0,96,0,1,601fe0de101ae05414812f4d,26,Kobieta,2022-06-04_07h10.54.283,task,2021.1.4,Win32,59.88382538,628b806c463b948bc644b84f,629af6bcc430cf36bc415876,,,,,,,,,,,,,,,,,,,,,,,,,,,,,,,,,,,,,,,,,,,,,,,,,,,,,,,,,,,,,,,,,,,,,,,,,,,,,,,,,,,,,,,,,,,,,,,,,,,,,,,
,,,0,,97,0,97,0,1,601fe0de101ae05414812f4d,26,Kobieta,2022-06-04_07h10.54.283,task,2021.1.4,Win32,59.88382538,628b806c463b948bc644b84f,629af6bcc430cf36bc415876,,,,,,,,,,,,,,,,,,,,,,,,,,,,,,,,,,,,,,,,,,,,,,,,,,,,,,,,,,,,,,,,,,,,,,,,,,,,,,,,,,,,,,,,,,,,,,,,,,,,,,,
,,"[""period""]",0,[0.24840000009538699],98,0,98,0,1,601fe0de101ae05414812f4d,26,Kobieta,2022-06-04_07h10.54.283,task,2021.1.4,Win32,59.88382538,628b806c463b948bc644b84f,629af6bcc430cf36bc415876,,,,,,,,,,,,,,,,,,,,,,,,,,,,,,,,,,,,,,,,,,,,,,,,,,,,,,,,,,,,,,,,,,,,,,,,,,,,,,,,,,,,,,,,,,,,,,,,,,,,,,,
,,"[""period""]",0,[0.25370000004767235],99,0,99,0,1,601fe0de101ae05414812f4d,26,Kobieta,2022-06-04_07h10.54.283,task,2021.1.4,Win32,59.88382538,628b806c463b948bc644b84f,629af6bcc430cf36bc415876,,,,,,,,,,,,,,,,,,,,,,,,,,,,,,,,,,,,,,,,,,,,,,,,,,,,,,,,,,,,,,,,,,,,,,,,,,,,,,,,,,,,,,,,,,,,,,,,,,,,,,,
,,"[""comma""]",0,[0.22009999990461893],100,0,100,0,1,601fe0de101ae05414812f4d,26,Kobieta,2022-06-04_07h10.54.283,task,2021.1.4,Win32,59.88382538,628b806c463b948bc644b84f,629af6bcc430cf36bc415876,,,,,,,,,,,,,,,,,,,,,,,,,,,,,,,,,,,,,,,,,,,,,,,,,,,,,,,,,,,,,,,,,,,,,,,,,,,,,,,,,,,,,,,,,,,,,,,,,,,,,,,
,,"[""period""]",0,[0.23829999995228945],101,0,101,0,1,601fe0de101ae05414812f4d,26,Kobieta,2022-06-04_07h10.54.283,task,2021.1.4,Win32,59.88382538,628b806c463b948bc644b84f,629af6bcc430cf36bc415876,,,,,,,,,,,,,,,,,,,,,,,,,,,,,,,,,,,,,,,,,,,,,,,,,,,,,,,,,,,,,,,,,,,,,,,,,,,,,,,,,,,,,,,,,,,,,,,,,,,,,,,
,,"[""comma""]",0,[0.2857999999523031],102,0,102,0,1,601fe0de101ae05414812f4d,26,Kobieta,2022-06-04_07h10.54.283,task,2021.1.4,Win32,59.88382538,628b806c463b948bc644b84f,629af6bcc430cf36bc415876,,,,,,,,,,,,,,,,,,,,,,,,,,,,,,,,,,,,,,,,,,,,,,,,,,,,,,,,,,,,,,,,,,,,,,,,,,,,,,,,,,,,,,,,,,,,,,,,,,,,,,,
,,"[""period""]",0,[0.20340000009537107],103,0,103,0,1,601fe0de101ae05414812f4d,26,Kobieta,2022-06-04_07h10.54.283,task,2021.1.4,Win32,59.88382538,628b806c463b948bc644b84f,629af6bcc430cf36bc415876,,,,,,,,,,,,,,,,,,,,,,,,,,,,,,,,,,,,,,,,,,,,,,,,,,,,,,,,,,,,,,,,,,,,,,,,,,,,,,,,,,,,,,,,,,,,,,,,,,,,,,,
,,"[""comma""]",0,[0.28429999995233857],104,0,104,0,1,601fe0de101ae05414812f4d,26,Kobieta,2022-06-04_07h10.54.283,task,2021.1.4,Win32,59.88382538,628b806c463b948bc644b84f,629af6bcc430cf36bc415876,,,,,,,,,,,,,,,,,,,,,,,,,,,,,,,,,,,,,,,,,,,,,,,,,,,,,,,,,,,,,,,,,,,,,,,,,,,,,,,,,,,,,,,,,,,,,,,,,,,,,,,
,,"[""period""]",0,[0.2584000000953779],105,0,105,0,1,601fe0de101ae05414812f4d,26,Kobieta,2022-06-04_07h10.54.283,task,2021.1.4,Win32,59.88382538,628b806c463b948bc644b84f,629af6bcc430cf36bc415876,,,,,,,,,,,,,,,,,,,,,,,,,,,,,,,,,,,,,,,,,,,,,,,,,,,,,,,,,,,,,,,,,,,,,,,,,,,,,,,,,,,,,,,,,,,,,,,,,,,,,,,
,,"[""comma""]",0,[0.28790000009536243],106,0,106,0,1,601fe0de101ae05414812f4d,26,Kobieta,2022-06-04_07h10.54.283,task,2021.1.4,Win32,59.88382538,628b806c463b948bc644b84f,629af6bcc430cf36bc415876,,,,,,,,,,,,,,,,,,,,,,,,,,,,,,,,,,,,,,,,,,,,,,,,,,,,,,,,,,,,,,,,,,,,,,,,,,,,,,,,,,,,,,,,,,,,,,,,,,,,,,,
,,"[""period""]",0,[0.18199999999995953],107,0,107,0,1,601fe0de101ae05414812f4d,26,Kobieta,2022-06-04_07h10.54.283,task,2021.1.4,Win32,59.88382538,628b806c463b948bc644b84f,629af6bcc430cf36bc415876,,,,,,,,,,,,,,,,,,,,,,,,,,,,,,,,,,,,,,,,,,,,,,,,,,,,,,,,,,,,,,,,,,,,,,,,,,,,,,,,,,,,,,,,,,,,,,,,,,,,,,,
,,"[""comma""]",0,[0.30420000004772874],108,0,108,0,1,601fe0de101ae05414812f4d,26,Kobieta,2022-06-04_07h10.54.283,task,2021.1.4,Win32,59.88382538,628b806c463b948bc644b84f,629af6bcc430cf36bc415876,,,,,,,,,,,,,,,,,,,,,,,,,,,,,,,,,,,,,,,,,,,,,,,,,,,,,,,,,,,,,,,,,,,,,,,,,,,,,,,,,,,,,,,,,,,,,,,,,,,,,,,
,,"[""period""]",0,[0.125],109,0,109,0,1,601fe0de101ae05414812f4d,26,Kobieta,2022-06-04_07h10.54.283,task,2021.1.4,Win32,59.88382538,628b806c463b948bc644b84f,629af6bcc430cf36bc415876,,,,,,,,,,,,,,,,,,,,,,,,,,,,,,,,,,,,,,,,,,,,,,,,,,,,,,,,,,,,,,,,,,,,,,,,,,,,,,,,,,,,,,,,,,,,,,,,,,,,,,,
,,"[""comma""]",0,[0.34149999999999636],110,0,110,0,1,601fe0de101ae05414812f4d,26,Kobieta,2022-06-04_07h10.54.283,task,2021.1.4,Win32,59.88382538,628b806c463b948bc644b84f,629af6bcc430cf36bc415876,,,,,,,,,,,,,,,,,,,,,,,,,,,,,,,,,,,,,,,,,,,,,,,,,,,,,,,,,,,,,,,,,,,,,,,,,,,,,,,,,,,,,,,,,,,,,,,,,,,,,,,
,,"[""period""]",0,[0.25870000004772464],111,0,111,0,1,601fe0de101ae05414812f4d,26,Kobieta,2022-06-04_07h10.54.283,task,2021.1.4,Win32,59.88382538,628b806c463b948bc644b84f,629af6bcc430cf36bc415876,,,,,,,,,,,,,,,,,,,,,,,,,,,,,,,,,,,,,,,,,,,,,,,,,,,,,,,,,,,,,,,,,,,,,,,,,,,,,,,,,,,,,,,,,,,,,,,,,,,,,,,
,,"[""comma""]",0,[0.28220000004768053],112,0,112,0,1,601fe0de101ae05414812f4d,26,Kobieta,2022-06-04_07h10.54.283,task,2021.1.4,Win32,59.88382538,628b806c463b948bc644b84f,629af6bcc430cf36bc415876,,,,,,,,,,,,,,,,,,,,,,,,,,,,,,,,,,,,,,,,,,,,,,,,,,,,,,,,,,,,,,,,,,,,,,,,,,,,,,,,,,,,,,,,,,,,,,,,,,,,,,,
,,"[""period""]",0,[0.25190000009536107],113,0,113,0,1,601fe0de101ae05414812f4d,26,Kobieta,2022-06-04_07h10.54.283,task,2021.1.4,Win32,59.88382538,628b806c463b948bc644b84f,629af6bcc430cf36bc415876,,,,,,,,,,,,,,,,,,,,,,,,,,,,,,,,,,,,,,,,,,,,,,,,,,,,,,,,,,,,,,,,,,,,,,,,,,,,,,,,,,,,,,,,,,,,,,,,,,,,,,,
,,"[""comma""]",0,[0.09210000014309117],114,0,114,0,1,601fe0de101ae05414812f4d,26,Kobieta,2022-06-04_07h10.54.283,task,2021.1.4,Win32,59.88382538,628b806c463b948bc644b84f,629af6bcc430cf36bc415876,,,,,,,,,,,,,,,,,,,,,,,,,,,,,,,,,,,,,,,,,,,,,,,,,,,,,,,,,,,,,,,,,,,,,,,,,,,,,,,,,,,,,,,,,,,,,,,,,,,,,,,
,,"[""period""]",0,[0.45230000019074623],115,0,115,0,1,601fe0de101ae05414812f4d,26,Kobieta,2022-06-04_07h10.54.283,task,2021.1.4,Win32,59.88382538,628b806c463b948bc644b84f,629af6bcc430cf36bc415876,,,,,,,,,,,,,,,,,,,,,,,,,,,,,,,,,,,,,,,,,,,,,,,,,,,,,,,,,,,,,,,,,,,,,,,,,,,,,,,,,,,,,,,,,,,,,,,,,,,,,,,
,,"[""comma""]",0,[0.28660000014309617],116,0,116,0,1,601fe0de101ae05414812f4d,26,Kobieta,2022-06-04_07h10.54.283,task,2021.1.4,Win32,59.88382538,628b806c463b948bc644b84f,629af6bcc430cf36bc415876,,,,,,,,,,,,,,,,,,,,,,,,,,,,,,,,,,,,,,,,,,,,,,,,,,,,,,,,,,,,,,,,,,,,,,,,,,,,,,,,,,,,,,,,,,,,,,,,,,,,,,,
,,"[""period""]",0,[0.5328999998569657],117,0,117,0,1,601fe0de101ae05414812f4d,26,Kobieta,2022-06-04_07h10.54.283,task,2021.1.4,Win32,59.88382538,628b806c463b948bc644b84f,629af6bcc430cf36bc415876,,,,,,,,,,,,,,,,,,,,,,,,,,,,,,,,,,,,,,,,,,,,,,,,,,,,,,,,,,,,,,,,,,,,,,,,,,,,,,,,,,,,,,,,,,,,,,,,,,,,,,,
,,"[""comma""]",0,[0.39800000000002456],118,0,118,0,1,601fe0de101ae05414812f4d,26,Kobieta,2022-06-04_07h10.54.283,task,2021.1.4,Win32,59.88382538,628b806c463b948bc644b84f,629af6bcc430cf36bc415876,,,,,,,,,,,,,,,,,,,,,,,,,,,,,,,,,,,,,,,,,,,,,,,,,,,,,,,,,,,,,,,,,,,,,,,,,,,,,,,,,,,,,,,,,,,,,,,,,,,,,,,
,,"[""comma""]",0,[0.6005999999046594],119,0,119,0,1,601fe0de101ae05414812f4d,26,Kobieta,2022-06-04_07h10.54.283,task,2021.1.4,Win32,59.88382538,628b806c463b948bc644b84f,629af6bcc430cf36bc415876,,,,,,,,,,,,,,,,,,,,,,,,,,,,,,,,,,,,,,,,,,,,,,,,,,,,,,,,,,,,,,,,,,,,,,,,,,,,,,,,,,,,,,,,,,,,,,,,,,,,,,,
,,,,,,,,,,601fe0de101ae05414812f4d,26,Kobieta,2022-06-04_07h10.54.283,task,2021.1.4,Win32,59.88382538,628b806c463b948bc644b84f,629af6bcc430cf36bc415876,space,9.2678,space,1.077,0,0,0,0,1,X V Q F H G B L J M P D K C T S W R N Z,,,,,,,,,,,,,,,,,,,,,,,,,,,,,,,,,,,,,,,,,,,,,,,,,,,,,,,,,,,,,,,,,,,,,,,,,,,,,,,,,,,,,,,,,,,,,
,,,,,,,,,,601fe0de101ae05414812f4d,26,Kobieta,2022-06-04_07h10.54.283,task,2021.1.4,Win32,59.88382538,628b806c463b948bc644b84f,629af6bcc430cf36bc415876,,,,,1,0,1,0,1,X V Q F H G B L J M P D K C T S W R N Z,,,,,,,,,,,,,,,,,,,,,,,,,,,,,,,,,,,,,,,,,,,,,,,,,,,,,,,,,,,,,,,,,,,,,,,,,,,,,,,,,,,,,,,,,,,,,
,,,,,,,,,,601fe0de101ae05414812f4d,26,Kobieta,2022-06-04_07h10.54.283,task,2021.1.4,Win32,59.88382538,628b806c463b948bc644b84f,629af6bcc430cf36bc415876,,,,,,,,,,,zj,"[""z"",""j""]","[2.0569999999999595,2.347600000143018,2.9859000000953415]",1,ZJ,0,0,0,0,1,,,,,,,,,,,,,,,,,,,,,,,,,,,,,,,,,,,,,,,,,,,,,,,,,,,,,,,,,,,,,,,,,,,,,,,,,,,,,,,,,,,
,,,,,,,,,,601fe0de101ae05414812f4d,26,Kobieta,2022-06-04_07h10.54.283,task,2021.1.4,Win32,59.88382538,628b806c463b948bc644b84f,629af6bcc430cf36bc415876,,,,,0,0,0,0,1,X V Q F H G B L J M P D K C T S W R N Z,,,,,,,,,,,,,,,,,,,,,,,,,,,,,,,,,,,,,,,,,,,,,,,,,,,,,,,,,,,,,,,,,,,,,,,,,,,,,,,,,,,,,,,,,,,,,
,,,,,,,,,,601fe0de101ae05414812f4d,26,Kobieta,2022-06-04_07h10.54.283,task,2021.1.4,Win32,59.88382538,628b806c463b948bc644b84f,629af6bcc430cf36bc415876,,,,,1,0,1,0,1,X V Q F H G B L J M P D K C T S W R N Z,,,,,,,,,,,,,,,,,,,,,,,,,,,,,,,,,,,,,,,,,,,,,,,,,,,,,,,,,,,,,,,,,,,,,,,,,,,,,,,,,,,,,,,,,,,,,
,,,,,,,,,,601fe0de101ae05414812f4d,26,Kobieta,2022-06-04_07h10.54.283,task,2021.1.4,Win32,59.88382538,628b806c463b948bc644b84f,629af6bcc430cf36bc415876,,,,,,,,,,,qh,"[""q"",""h""]","[0.7715000000000032,1.0616000001430734,1.2460000000000377]",1,QH,1,0,1,0,1,,,,,,,,,,,,,,,,,,,,,,,,,,,,,,,,,,,,,,,,,,,,,,,,,,,,,,,,,,,,,,,,,,,,,,,,,,,,,,,,,,,
,,,,,,,,,,601fe0de101ae05414812f4d,26,Kobieta,2022-06-04_07h10.54.283,task,2021.1.4,Win32,59.88382538,628b806c463b948bc644b84f,629af6bcc430cf36bc415876,,,,,0,0,0,0,1,X V Q F H G B L J M P D K C T S W R N Z,,,,,,,,,,,,,,,,,,,,,,,,,,,,,,,,,,,,,,,,,,,,,,,,,,,,,,,,,,,,,,,,,,,,,,,,,,,,,,,,,,,,,,,,,,,,,
,,,,,,,,,,601fe0de101ae05414812f4d,26,Kobieta,2022-06-04_07h10.54.283,task,2021.1.4,Win32,59.88382538,628b806c463b948bc644b84f,629af6bcc430cf36bc415876,,,,,1,0,1,0,1,X V Q F H G B L J M P D K C T S W R N Z,,,,,,,,,,,,,,,,,,,,,,,,,,,,,,,,,,,,,,,,,,,,,,,,,,,,,,,,,,,,,,,,,,,,,,,,,,,,,,,,,,,,,,,,,,,,,
,,,,,,,,,,601fe0de101ae05414812f4d,26,Kobieta,2022-06-04_07h10.54.283,task,2021.1.4,Win32,59.88382538,628b806c463b948bc644b84f,629af6bcc430cf36bc415876,,,,,2,0,2,0,1,X V Q F H G B L J M P D K C T S W R N Z,,,,,,,,,,,,,,,,,,,,,,,,,,,,,,,,,,,,,,,,,,,,,,,,,,,,,,,,,,,,,,,,,,,,,,,,,,,,,,,,,,,,,,,,,,,,,
,,,,,,,,,,601fe0de101ae05414812f4d,26,Kobieta,2022-06-04_07h10.54.283,task,2021.1.4,Win32,59.88382538,628b806c463b948bc644b84f,629af6bcc430cf36bc415876,,,,,,,,,,,pbp,"[""p"",""b"",""p""]","[0.45429999995229764,0.6317999999523067,0.7529000000953374,1.2031000001430243]",1,PBP,2,0,2,0,1,,,,,,,,,,,,,,,,,,,,,,,,,,,,,,,,,,,,,,,,,,,,,,,,,,,,,,,,,,,,,,,,,,,,,,,,,,,,,,,,,,,
,,,,,,,,,,601fe0de101ae05414812f4d,26,Kobieta,2022-06-04_07h10.54.283,task,2021.1.4,Win32,59.88382538,628b806c463b948bc644b84f,629af6bcc430cf36bc415876,,,,,0,0,0,0,1,X V Q F H G B L J M P D K C T S W R N Z,,,,,,,,,,,,,,,,,,,,,,,,,,,,,,,,,,,,,,,,,,,,,,,,,,,,,,,,,,,,,,,,,,,,,,,,,,,,,,,,,,,,,,,,,,,,,
,,,,,,,,,,601fe0de101ae05414812f4d,26,Kobieta,2022-06-04_07h10.54.283,task,2021.1.4,Win32,59.88382538,628b806c463b948bc644b84f,629af6bcc430cf36bc415876,,,,,1,0,1,0,1,X V Q F H G B L J M P D K C T S W R N Z,,,,,,,,,,,,,,,,,,,,,,,,,,,,,,,,,,,,,,,,,,,,,,,,,,,,,,,,,,,,,,,,,,,,,,,,,,,,,,,,,,,,,,,,,,,,,
,,,,,,,,,,601fe0de101ae05414812f4d,26,Kobieta,2022-06-04_07h10.54.283,task,2021.1.4,Win32,59.88382538,628b806c463b948bc644b84f,629af6bcc430cf36bc415876,,,,,2,0,2,0,1,X V Q F H G B L J M P D K C T S W R N Z,,,,,,,,,,,,,,,,,,,,,,,,,,,,,,,,,,,,,,,,,,,,,,,,,,,,,,,,,,,,,,,,,,,,,,,,,,,,,,,,,,,,,,,,,,,,,
,,,,,,,,,,601fe0de101ae05414812f4d,26,Kobieta,2022-06-04_07h10.54.283,task,2021.1.4,Win32,59.88382538,628b806c463b948bc644b84f,629af6bcc430cf36bc415876,,,,,,,,,,,qpr,"[""q"",""p"",""r""]","[0.48279999995236267,0.5829000000953783,0.7379000000954079,1.000799999952335]",1,QPR,3,0,3,0,1,,,,,,,,,,,,,,,,,,,,,,,,,,,,,,,,,,,,,,,,,,,,,,,,,,,,,,,,,,,,,,,,,,,,,,,,,,,,,,,,,,,
,,,,,,,,,,601fe0de101ae05414812f4d,26,Kobieta,2022-06-04_07h10.54.283,task,2021.1.4,Win32,59.88382538,628b806c463b948bc644b84f,629af6bcc430cf36bc415876,,,,,0,0,0,0,1,X V Q F H G B L J M P D K C T S W R N Z,,,,,,,,,,,,,,,,,,,,,,,,,,,,,,,,,,,,,,,,,,,,,,,,,,,,,,,,,,,,,,,,,,,,,,,,,,,,,,,,,,,,,,,,,,,,,
,,,,,,,,,,601fe0de101ae05414812f4d,26,Kobieta,2022-06-04_07h10.54.283,task,2021.1.4,Win32,59.88382538,628b806c463b948bc644b84f,629af6bcc430cf36bc415876,,,,,1,0,1,0,1,X V Q F H G B L J M P D K C T S W R N Z,,,,,,,,,,,,,,,,,,,,,,,,,,,,,,,,,,,,,,,,,,,,,,,,,,,,,,,,,,,,,,,,,,,,,,,,,,,,,,,,,,,,,,,,,,,,,
,,,,,,,,,,601fe0de101ae05414812f4d,26,Kobieta,2022-06-04_07h10.54.283,task,2021.1.4,Win32,59.88382538,628b806c463b948bc644b84f,629af6bcc430cf36bc415876,,,,,2,0,2,0,1,X V Q F H G B L J M P D K C T S W R N Z,,,,,,,,,,,,,,,,,,,,,,,,,,,,,,,,,,,,,,,,,,,,,,,,,,,,,,,,,,,,,,,,,,,,,,,,,,,,,,,,,,,,,,,,,,,,,
,,,,,,,,,,601fe0de101ae05414812f4d,26,Kobieta,2022-06-04_07h10.54.283,task,2021.1.4,Win32,59.88382538,628b806c463b948bc644b84f,629af6bcc430cf36bc415876,,,,,3,0,3,0,1,X V Q F H G B L J M P D K C T S W R N Z,,,,,,,,,,,,,,,,,,,,,,,,,,,,,,,,,,,,,,,,,,,,,,,,,,,,,,,,,,,,,,,,,,,,,,,,,,,,,,,,,,,,,,,,,,,,,
,,,,,,,,,,601fe0de101ae05414812f4d,26,Kobieta,2022-06-04_07h10.54.283,task,2021.1.4,Win32,59.88382538,628b806c463b948bc644b84f,629af6bcc430cf36bc415876,,,,,,,,,,,vlvw,"[""v"",""l"",""v"",""w""]","[0.4206000001430539,0.5677000000476937,0.7156000001430698,0.8951000001430316,1.038499999999999]",1,VLVW,4,0,4,0,1,,,,,,,,,,,,,,,,,,,,,,,,,,,,,,,,,,,,,,,,,,,,,,,,,,,,,,,,,,,,,,,,,,,,,,,,,,,,,,,,,,,
,,,,,,,,,,601fe0de101ae05414812f4d,26,Kobieta,2022-06-04_07h10.54.283,task,2021.1.4,Win32,59.88382538,628b806c463b948bc644b84f,629af6bcc430cf36bc415876,,,,,0,0,0,0,1,X V Q F H G B L J M P D K C T S W R N Z,,,,,,,,,,,,,,,,,,,,,,,,,,,,,,,,,,,,,,,,,,,,,,,,,,,,,,,,,,,,,,,,,,,,,,,,,,,,,,,,,,,,,,,,,,,,,
,,,,,,,,,,601fe0de101ae05414812f4d,26,Kobieta,2022-06-04_07h10.54.283,task,2021.1.4,Win32,59.88382538,628b806c463b948bc644b84f,629af6bcc430cf36bc415876,,,,,1,0,1,0,1,X V Q F H G B L J M P D K C T S W R N Z,,,,,,,,,,,,,,,,,,,,,,,,,,,,,,,,,,,,,,,,,,,,,,,,,,,,,,,,,,,,,,,,,,,,,,,,,,,,,,,,,,,,,,,,,,,,,
,,,,,,,,,,601fe0de101ae05414812f4d,26,Kobieta,2022-06-04_07h10.54.283,task,2021.1.4,Win32,59.88382538,628b806c463b948bc644b84f,629af6bcc430cf36bc415876,,,,,2,0,2,0,1,X V Q F H G B L J M P D K C T S W R N Z,,,,,,,,,,,,,,,,,,,,,,,,,,,,,,,,,,,,,,,,,,,,,,,,,,,,,,,,,,,,,,,,,,,,,,,,,,,,,,,,,,,,,,,,,,,,,
,,,,,,,,,,601fe0de101ae05414812f4d,26,Kobieta,2022-06-04_07h10.54.283,task,2021.1.4,Win32,59.88382538,628b806c463b948bc644b84f,629af6bcc430cf36bc415876,,,,,3,0,3,0,1,X V Q F H G B L J M P D K C T S W R N Z,,,,,,,,,,,,,,,,,,,,,,,,,,,,,,,,,,,,,,,,,,,,,,,,,,,,,,,,,,,,,,,,,,,,,,,,,,,,,,,,,,,,,,,,,,,,,
,,,,,,,,,,601fe0de101ae05414812f4d,26,Kobieta,2022-06-04_07h10.54.283,task,2021.1.4,Win32,59.88382538,628b806c463b948bc644b84f,629af6bcc430cf36bc415876,,,,,,,,,,,ppnp,"[""p"",""p"",""n"",""p""]","[0.41279999995231265,0.6007999999523008,0.7987999999523367,0.9104000000953647,1.154599999904633]",1,PPNP,5,0,5,0,1,,,,,,,,,,,,,,,,,,,,,,,,,,,,,,,,,,,,,,,,,,,,,,,,,,,,,,,,,,,,,,,,,,,,,,,,,,,,,,,,,,,
,,,,,,,,,,601fe0de101ae05414812f4d,26,Kobieta,2022-06-04_07h10.54.283,task,2021.1.4,Win32,59.88382538,628b806c463b948bc644b84f,629af6bcc430cf36bc415876,,,,,0,0,0,0,1,X V Q F H G B L J M P D K C T S W R N Z,,,,,,,,,,,,,,,,,,,,,,,,,,,,,,,,,,,,,,,,,,,,,,,,,,,,,,,,,,,,,,,,,,,,,,,,,,,,,,,,,,,,,,,,,,,,,
,,,,,,,,,,601fe0de101ae05414812f4d,26,Kobieta,2022-06-04_07h10.54.283,task,2021.1.4,Win32,59.88382538,628b806c463b948bc644b84f,629af6bcc430cf36bc415876,,,,,1,0,1,0,1,X V Q F H G B L J M P D K C T S W R N Z,,,,,,,,,,,,,,,,,,,,,,,,,,,,,,,,,,,,,,,,,,,,,,,,,,,,,,,,,,,,,,,,,,,,,,,,,,,,,,,,,,,,,,,,,,,,,
,,,,,,,,,,601fe0de101ae05414812f4d,26,Kobieta,2022-06-04_07h10.54.283,task,2021.1.4,Win32,59.88382538,628b806c463b948bc644b84f,629af6bcc430cf36bc415876,,,,,2,0,2,0,1,X V Q F H G B L J M P D K C T S W R N Z,,,,,,,,,,,,,,,,,,,,,,,,,,,,,,,,,,,,,,,,,,,,,,,,,,,,,,,,,,,,,,,,,,,,,,,,,,,,,,,,,,,,,,,,,,,,,
,,,,,,,,,,601fe0de101ae05414812f4d,26,Kobieta,2022-06-04_07h10.54.283,task,2021.1.4,Win32,59.88382538,628b806c463b948bc644b84f,629af6bcc430cf36bc415876,,,,,3,0,3,0,1,X V Q F H G B L J M P D K C T S W R N Z,,,,,,,,,,,,,,,,,,,,,,,,,,,,,,,,,,,,,,,,,,,,,,,,,,,,,,,,,,,,,,,,,,,,,,,,,,,,,,,,,,,,,,,,,,,,,
,,,,,,,,,,601fe0de101ae05414812f4d,26,Kobieta,2022-06-04_07h10.54.283,task,2021.1.4,Win32,59.88382538,628b806c463b948bc644b84f,629af6bcc430cf36bc415876,,,,,4,0,4,0,1,X V Q F H G B L J M P D K C T S W R N Z,,,,,,,,,,,,,,,,,,,,,,,,,,,,,,,,,,,,,,,,,,,,,,,,,,,,,,,,,,,,,,,,,,,,,,,,,,,,,,,,,,,,,,,,,,,,,
,,,,,,,,,,601fe0de101ae05414812f4d,26,Kobieta,2022-06-04_07h10.54.283,task,2021.1.4,Win32,59.88382538,628b806c463b948bc644b84f,629af6bcc430cf36bc415876,,,,,,,,,,,pddtj,"[""p"",""d"",""d"",""t"",""j""]","[0.39679999995234994,0.5827000000476801,0.7739000000953524,1.4834000000954006,2.083000000000027,2.2662999999523095]",0,VDDTJ,6,0,6,0,1,,,,,,,,,,,,,,,,,,,,,,,,,,,,,,,,,,,,,,,,,,,,,,,,,,,,,,,,,,,,,,,,,,,,,,,,,,,,,,,,,,,
,,,,,,,,,,601fe0de101ae05414812f4d,26,Kobieta,2022-06-04_07h10.54.283,task,2021.1.4,Win32,59.88382538,628b806c463b948bc644b84f,629af6bcc430cf36bc415876,,,,,0,0,0,0,1,X V Q F H G B L J M P D K C T S W R N Z,,,,,,,,,,,,,,,,,,,,,,,,,,,,,,,,,,,,,,,,,,,,,,,,,,,,,,,,,,,,,,,,,,,,,,,,,,,,,,,,,,,,,,,,,,,,,
,,,,,,,,,,601fe0de101ae05414812f4d,26,Kobieta,2022-06-04_07h10.54.283,task,2021.1.4,Win32,59.88382538,628b806c463b948bc644b84f,629af6bcc430cf36bc415876,,,,,1,0,1,0,1,X V Q F H G B L J M P D K C T S W R N Z,,,,,,,,,,,,,,,,,,,,,,,,,,,,,,,,,,,,,,,,,,,,,,,,,,,,,,,,,,,,,,,,,,,,,,,,,,,,,,,,,,,,,,,,,,,,,
,,,,,,,,,,601fe0de101ae05414812f4d,26,Kobieta,2022-06-04_07h10.54.283,task,2021.1.4,Win32,59.88382538,628b806c463b948bc644b84f,629af6bcc430cf36bc415876,,,,,2,0,2,0,1,X V Q F H G B L J M P D K C T S W R N Z,,,,,,,,,,,,,,,,,,,,,,,,,,,,,,,,,,,,,,,,,,,,,,,,,,,,,,,,,,,,,,,,,,,,,,,,,,,,,,,,,,,,,,,,,,,,,
,,,,,,,,,,601fe0de101ae05414812f4d,26,Kobieta,2022-06-04_07h10.54.283,task,2021.1.4,Win32,59.88382538,628b806c463b948bc644b84f,629af6bcc430cf36bc415876,,,,,3,0,3,0,1,X V Q F H G B L J M P D K C T S W R N Z,,,,,,,,,,,,,,,,,,,,,,,,,,,,,,,,,,,,,,,,,,,,,,,,,,,,,,,,,,,,,,,,,,,,,,,,,,,,,,,,,,,,,,,,,,,,,
,,,,,,,,,,601fe0de101ae05414812f4d,26,Kobieta,2022-06-04_07h10.54.283,task,2021.1.4,Win32,59.88382538,628b806c463b948bc644b84f,629af6bcc430cf36bc415876,,,,,4,0,4,0,1,X V Q F H G B L J M P D K C T S W R N Z,,,,,,,,,,,,,,,,,,,,,,,,,,,,,,,,,,,,,,,,,,,,,,,,,,,,,,,,,,,,,,,,,,,,,,,,,,,,,,,,,,,,,,,,,,,,,
,,,,,,,,,,601fe0de101ae05414812f4d,26,Kobieta,2022-06-04_07h10.54.283,task,2021.1.4,Win32,59.88382538,628b806c463b948bc644b84f,629af6bcc430cf36bc415876,,,,,,,,,,,xpbfg,"[""x"",""p"",""b"",""f"",""g""]","[0.6022000000477306,0.9540999999046562,2.170200000047714,2.4092999999523386,2.5950000000000273,2.877200000047708]",1,XPBFG,7,0,7,0,1,,,,,,,,,,,,,,,,,,,,,,,,,,,,,,,,,,,,,,,,,,,,,,,,,,,,,,,,,,,,,,,,,,,,,,,,,,,,,,,,,,,
,,,,,,,,,,601fe0de101ae05414812f4d,26,Kobieta,2022-06-04_07h10.54.283,task,2021.1.4,Win32,59.88382538,628b806c463b948bc644b84f,629af6bcc430cf36bc415876,,,,,0,0,0,0,1,X V Q F H G B L J M P D K C T S W R N Z,,,,,,,,,,,,,,,,,,,,,,,,,,,,,,,,,,,,,,,,,,,,,,,,,,,,,,,,,,,,,,,,,,,,,,,,,,,,,,,,,,,,,,,,,,,,,
,,,,,,,,,,601fe0de101ae05414812f4d,26,Kobieta,2022-06-04_07h10.54.283,task,2021.1.4,Win32,59.88382538,628b806c463b948bc644b84f,629af6bcc430cf36bc415876,,,,,1,0,1,0,1,X V Q F H G B L J M P D K C T S W R N Z,,,,,,,,,,,,,,,,,,,,,,,,,,,,,,,,,,,,,,,,,,,,,,,,,,,,,,,,,,,,,,,,,,,,,,,,,,,,,,,,,,,,,,,,,,,,,
,,,,,,,,,,601fe0de101ae05414812f4d,26,Kobieta,2022-06-04_07h10.54.283,task,2021.1.4,Win32,59.88382538,628b806c463b948bc644b84f,629af6bcc430cf36bc415876,,,,,2,0,2,0,1,X V Q F H G B L J M P D K C T S W R N Z,,,,,,,,,,,,,,,,,,,,,,,,,,,,,,,,,,,,,,,,,,,,,,,,,,,,,,,,,,,,,,,,,,,,,,,,,,,,,,,,,,,,,,,,,,,,,
,,,,,,,,,,601fe0de101ae05414812f4d,26,Kobieta,2022-06-04_07h10.54.283,task,2021.1.4,Win32,59.88382538,628b806c463b948bc644b84f,629af6bcc430cf36bc415876,,,,,3,0,3,0,1,X V Q F H G B L J M P D K C T S W R N Z,,,,,,,,,,,,,,,,,,,,,,,,,,,,,,,,,,,,,,,,,,,,,,,,,,,,,,,,,,,,,,,,,,,,,,,,,,,,,,,,,,,,,,,,,,,,,
,,,,,,,,,,601fe0de101ae05414812f4d,26,Kobieta,2022-06-04_07h10.54.283,task,2021.1.4,Win32,59.88382538,628b806c463b948bc644b84f,629af6bcc430cf36bc415876,,,,,4,0,4,0,1,X V Q F H G B L J M P D K C T S W R N Z,,,,,,,,,,,,,,,,,,,,,,,,,,,,,,,,,,,,,,,,,,,,,,,,,,,,,,,,,,,,,,,,,,,,,,,,,,,,,,,,,,,,,,,,,,,,,
,,,,,,,,,,601fe0de101ae05414812f4d,26,Kobieta,2022-06-04_07h10.54.283,task,2021.1.4,Win32,59.88382538,628b806c463b948bc644b84f,629af6bcc430cf36bc415876,,,,,,,,,,,cxtxl,"[""c"",""x"",""t"",""x"",""l""]","[0.9007999999523122,1.1802999999522967,1.5349999999999682,3.04839999985694,3.3960999999046066,4.151499999999999]",1,CXTXL,8,0,8,0,1,,,,,,,,,,,,,,,,,,,,,,,,,,,,,,,,,,,,,,,,,,,,,,,,,,,,,,,,,,,,,,,,,,,,,,,,,,,,,,,,,,,
,,,,,,,,,,601fe0de101ae05414812f4d,26,Kobieta,2022-06-04_07h10.54.283,task,2021.1.4,Win32,59.88382538,628b806c463b948bc644b84f,629af6bcc430cf36bc415876,,,,,0,0,0,0,1,X V Q F H G B L J M P D K C T S W R N Z,,,,,,,,,,,,,,,,,,,,,,,,,,,,,,,,,,,,,,,,,,,,,,,,,,,,,,,,,,,,,,,,,,,,,,,,,,,,,,,,,,,,,,,,,,,,,
,,,,,,,,,,601fe0de101ae05414812f4d,26,Kobieta,2022-06-04_07h10.54.283,task,2021.1.4,Win32,59.88382538,628b806c463b948bc644b84f,629af6bcc430cf36bc415876,,,,,1,0,1,0,1,X V Q F H G B L J M P D K C T S W R N Z,,,,,,,,,,,,,,,,,,,,,,,,,,,,,,,,,,,,,,,,,,,,,,,,,,,,,,,,,,,,,,,,,,,,,,,,,,,,,,,,,,,,,,,,,,,,,
,,,,,,,,,,601fe0de101ae05414812f4d,26,Kobieta,2022-06-04_07h10.54.283,task,2021.1.4,Win32,59.88382538,628b806c463b948bc644b84f,629af6bcc430cf36bc415876,,,,,2,0,2,0,1,X V Q F H G B L J M P D K C T S W R N Z,,,,,,,,,,,,,,,,,,,,,,,,,,,,,,,,,,,,,,,,,,,,,,,,,,,,,,,,,,,,,,,,,,,,,,,,,,,,,,,,,,,,,,,,,,,,,
,,,,,,,,,,601fe0de101ae05414812f4d,26,Kobieta,2022-06-04_07h10.54.283,task,2021.1.4,Win32,59.88382538,628b806c463b948bc644b84f,629af6bcc430cf36bc415876,,,,,3,0,3,0,1,X V Q F H G B L J M P D K C T S W R N Z,,,,,,,,,,,,,,,,,,,,,,,,,,,,,,,,,,,,,,,,,,,,,,,,,,,,,,,,,,,,,,,,,,,,,,,,,,,,,,,,,,,,,,,,,,,,,
,,,,,,,,,,601fe0de101ae05414812f4d,26,Kobieta,2022-06-04_07h10.54.283,task,2021.1.4,Win32,59.88382538,628b806c463b948bc644b84f,629af6bcc430cf36bc415876,,,,,4,0,4,0,1,X V Q F H G B L J M P D K C T S W R N Z,,,,,,,,,,,,,,,,,,,,,,,,,,,,,,,,,,,,,,,,,,,,,,,,,,,,,,,,,,,,,,,,,,,,,,,,,,,,,,,,,,,,,,,,,,,,,
,,,,,,,,,,601fe0de101ae05414812f4d,26,Kobieta,2022-06-04_07h10.54.283,task,2021.1.4,Win32,59.88382538,628b806c463b948bc644b84f,629af6bcc430cf36bc415876,,,,,5,0,5,0,1,X V Q F H G B L J M P D K C T S W R N Z,,,,,,,,,,,,,,,,,,,,,,,,,,,,,,,,,,,,,,,,,,,,,,,,,,,,,,,,,,,,,,,,,,,,,,,,,,,,,,,,,,,,,,,,,,,,,
,,,,,,,,,,601fe0de101ae05414812f4d,26,Kobieta,2022-06-04_07h10.54.283,task,2021.1.4,Win32,59.88382538,628b806c463b948bc644b84f,629af6bcc430cf36bc415876,,,,,,,,,,,rmnft,"[""r"",""m"",""n"",""f"",""t""]","[2.563900000095373,2.9506000001430834,3.149200000047699,3.609400000095377,4.044500000000028,7.836200000047711]",0,RMNFMT,9,0,9,0,1,,,,,,,,,,,,,,,,,,,,,,,,,,,,,,,,,,,,,,,,,,,,,,,,,,,,,,,,,,,,,,,,,,,,,,,,,,,,,,,,,,,
,,,,,,,,,,601fe0de101ae05414812f4d,26,Kobieta,2022-06-04_07h10.54.283,task,2021.1.4,Win32,59.88382538,628b806c463b948bc644b84f,629af6bcc430cf36bc415876,,,,,0,0,0,0,1,X V Q F H G B L J M P D K C T S W R N Z,,,,,,,,,,,,,,,,,,,,,,,,,,,,,,,,,,,,,,,,,,,,,,,,,,,,,,,,,,,,,,,,,,,,,,,,,,,,,,,,,,,,,,,,,,,,,
,,,,,,,,,,601fe0de101ae05414812f4d,26,Kobieta,2022-06-04_07h10.54.283,task,2021.1.4,Win32,59.88382538,628b806c463b948bc644b84f,629af6bcc430cf36bc415876,,,,,1,0,1,0,1,X V Q F H G B L J M P D K C T S W R N Z,,,,,,,,,,,,,,,,,,,,,,,,,,,,,,,,,,,,,,,,,,,,,,,,,,,,,,,,,,,,,,,,,,,,,,,,,,,,,,,,,,,,,,,,,,,,,
,,,,,,,,,,601fe0de101ae05414812f4d,26,Kobieta,2022-06-04_07h10.54.283,task,2021.1.4,Win32,59.88382538,628b806c463b948bc644b84f,629af6bcc430cf36bc415876,,,,,2,0,2,0,1,X V Q F H G B L J M P D K C T S W R N Z,,,,,,,,,,,,,,,,,,,,,,,,,,,,,,,,,,,,,,,,,,,,,,,,,,,,,,,,,,,,,,,,,,,,,,,,,,,,,,,,,,,,,,,,,,,,,
,,,,,,,,,,601fe0de101ae05414812f4d,26,Kobieta,2022-06-04_07h10.54.283,task,2021.1.4,Win32,59.88382538,628b806c463b948bc644b84f,629af6bcc430cf36bc415876,,,,,3,0,3,0,1,X V Q F H G B L J M P D K C T S W R N Z,,,,,,,,,,,,,,,,,,,,,,,,,,,,,,,,,,,,,,,,,,,,,,,,,,,,,,,,,,,,,,,,,,,,,,,,,,,,,,,,,,,,,,,,,,,,,
,,,,,,,,,,601fe0de101ae05414812f4d,26,Kobieta,2022-06-04_07h10.54.283,task,2021.1.4,Win32,59.88382538,628b806c463b948bc644b84f,629af6bcc430cf36bc415876,,,,,4,0,4,0,1,X V Q F H G B L J M P D K C T S W R N Z,,,,,,,,,,,,,,,,,,,,,,,,,,,,,,,,,,,,,,,,,,,,,,,,,,,,,,,,,,,,,,,,,,,,,,,,,,,,,,,,,,,,,,,,,,,,,
,,,,,,,,,,601fe0de101ae05414812f4d,26,Kobieta,2022-06-04_07h10.54.283,task,2021.1.4,Win32,59.88382538,628b806c463b948bc644b84f,629af6bcc430cf36bc415876,,,,,5,0,5,0,1,X V Q F H G B L J M P D K C T S W R N Z,,,,,,,,,,,,,,,,,,,,,,,,,,,,,,,,,,,,,,,,,,,,,,,,,,,,,,,,,,,,,,,,,,,,,,,,,,,,,,,,,,,,,,,,,,,,,
,,,,,,,,,,601fe0de101ae05414812f4d,26,Kobieta,2022-06-04_07h10.54.283,task,2021.1.4,Win32,59.88382538,628b806c463b948bc644b84f,629af6bcc430cf36bc415876,,,,,,,,,,,bhptxtt,"[""b"",""h"",""p"",""t"",""x"",""t"",""t""]","[0.3872999999523472,0.6788999998569807,0.8995000000000459,1.069200000047715,1.679700000047717,1.9950000000000045,2.14520000004768,2.3975000000000364]",0,BHPTXT,10,0,10,0,1,,,,,,,,,,,,,,,,,,,,,,,,,,,,,,,,,,,,,,,,,,,,,,,,,,,,,,,,,,,,,,,,,,,,,,,,,,,,,,,,,,,
,,,,,,,,,,601fe0de101ae05414812f4d,26,Kobieta,2022-06-04_07h10.54.283,task,2021.1.4,Win32,59.88382538,628b806c463b948bc644b84f,629af6bcc430cf36bc415876,,,,,0,0,0,0,1,X V Q F H G B L J M P D K C T S W R N Z,,,,,,,,,,,,,,,,,,,,,,,,,,,,,,,,,,,,,,,,,,,,,,,,,,,,,,,,,,,,,,,,,,,,,,,,,,,,,,,,,,,,,,,,,,,,,
,,,,,,,,,,601fe0de101ae05414812f4d,26,Kobieta,2022-06-04_07h10.54.283,task,2021.1.4,Win32,59.88382538,628b806c463b948bc644b84f,629af6bcc430cf36bc415876,,,,,1,0,1,0,1,X V Q F H G B L J M P D K C T S W R N Z,,,,,,,,,,,,,,,,,,,,,,,,,,,,,,,,,,,,,,,,,,,,,,,,,,,,,,,,,,,,,,,,,,,,,,,,,,,,,,,,,,,,,,,,,,,,,
,,,,,,,,,,601fe0de101ae05414812f4d,26,Kobieta,2022-06-04_07h10.54.283,task,2021.1.4,Win32,59.88382538,628b806c463b948bc644b84f,629af6bcc430cf36bc415876,,,,,2,0,2,0,1,X V Q F H G B L J M P D K C T S W R N Z,,,,,,,,,,,,,,,,,,,,,,,,,,,,,,,,,,,,,,,,,,,,,,,,,,,,,,,,,,,,,,,,,,,,,,,,,,,,,,,,,,,,,,,,,,,,,
,,,,,,,,,,601fe0de101ae05414812f4d,26,Kobieta,2022-06-04_07h10.54.283,task,2021.1.4,Win32,59.88382538,628b806c463b948bc644b84f,629af6bcc430cf36bc415876,,,,,3,0,3,0,1,X V Q F H G B L J M P D K C T S W R N Z,,,,,,,,,,,,,,,,,,,,,,,,,,,,,,,,,,,,,,,,,,,,,,,,,,,,,,,,,,,,,,,,,,,,,,,,,,,,,,,,,,,,,,,,,,,,,
,,,,,,,,,,601fe0de101ae05414812f4d,26,Kobieta,2022-06-04_07h10.54.283,task,2021.1.4,Win32,59.88382538,628b806c463b948bc644b84f,629af6bcc430cf36bc415876,,,,,4,0,4,0,1,X V Q F H G B L J M P D K C T S W R N Z,,,,,,,,,,,,,,,,,,,,,,,,,,,,,,,,,,,,,,,,,,,,,,,,,,,,,,,,,,,,,,,,,,,,,,,,,,,,,,,,,,,,,,,,,,,,,
,,,,,,,,,,601fe0de101ae05414812f4d,26,Kobieta,2022-06-04_07h10.54.283,task,2021.1.4,Win32,59.88382538,628b806c463b948bc644b84f,629af6bcc430cf36bc415876,,,,,5,0,5,0,1,X V Q F H G B L J M P D K C T S W R N Z,,,,,,,,,,,,,,,,,,,,,,,,,,,,,,,,,,,,,,,,,,,,,,,,,,,,,,,,,,,,,,,,,,,,,,,,,,,,,,,,,,,,,,,,,,,,,
,,,,,,,,,,601fe0de101ae05414812f4d,26,Kobieta,2022-06-04_07h10.54.283,task,2021.1.4,Win32,59.88382538,628b806c463b948bc644b84f,629af6bcc430cf36bc415876,,,,,,,,,,,bvnxmp,"[""b"",""v"",""n"",""x"",""m"",""p""]","[1.5387999999523458,2.154599999904633,2.5585000000000377,2.927000000000021,3.2482000000476887,3.4322000000477146,3.780200000047728]",0,XSVNBM,11,0,11,0,1,,,,,,,,,,,,,,,,,,,,,,,,,,,,,,,,,,,,,,,,,,,,,,,,,,,,,,,,,,,,,,,,,,,,,,,,,,,,,,,,,,,
,,,,,,,,,,601fe0de101ae05414812f4d,26,Kobieta,2022-06-04_07h10.54.283,task,2021.1.4,Win32,59.88382538,628b806c463b948bc644b84f,629af6bcc430cf36bc415876,,,,,,,,,,,,,,,,,,,,,space,16.4401,0,"[""0""]",1,[6.368299999952285],[6.368299999952285],0,0,0,0,1,Practice,1,(3x3) -  9,0,,,,,,,,,,,,,,,,,,,,,,,,,,,,,,,,,,,,,,,,,,,,,,,,,,,,,,,,,,,,,,,,,,,
,,,,,,,,,,601fe0de101ae05414812f4d,26,Kobieta,2022-06-04_07h10.54.283,task,2021.1.4,Win32,59.88382538,628b806c463b948bc644b84f,629af6bcc430cf36bc415876,,,,,,,,,,,,,,,,,,,,,,,2,"[""2""]",1,[2.9785999999046453],"[6.368299999952285,2.9785999999046453]",0,1,1,2,1,Practice,3,(4x4) - 14,2,,,,,,,,,,,,,,,,,,,,,,,,,,,,,,,,,,,,,,,,,,,,,,,,,,,,,,,,,,,,,,,,,,,
,,,,,,,,,,601fe0de101ae05414812f4d,26,Kobieta,2022-06-04_07h10.54.283,task,2021.1.4,Win32,59.88382538,628b806c463b948bc644b84f,629af6bcc430cf36bc415876,,,,,,,,,,,,,,,,,,,,,,,3,"[""3""]",1,[6.040600000143058],"[6.368299999952285,2.9785999999046453,6.040600000143058]",0,2,2,3,1,Practice,4,(8/4) + 1,3,,,,,,,,,,,,,,,,,,,,,,,,,,,,,,,,,,,,,,,,,,,,,,,,,,,,,,,,,,,,,,,,,,,
,,,,,,,,,,601fe0de101ae05414812f4d,26,Kobieta,2022-06-04_07h10.54.283,task,2021.1.4,Win32,59.88382538,628b806c463b948bc644b84f,629af6bcc430cf36bc415876,,,,,,,,,,,,,,,,,,,,,,,8,"[""8""]",1,[2.1482999999523145],"[6.368299999952285,2.9785999999046453,6.040600000143058,2.1482999999523145]",0,3,3,8,1,Practice,9,(3x3) - 1,8,,,,,,,,,,,,,,,,,,,,,,,,,,,,,,,,,,,,,,,,,,,,,,,,,,,,,,,,,,,,,,,,,,,
,,,,,,,,,,601fe0de101ae05414812f4d,26,Kobieta,2022-06-04_07h10.54.283,task,2021.1.4,Win32,59.88382538,628b806c463b948bc644b84f,629af6bcc430cf36bc415876,,,,,,,,,,,,,,,,,,,,,,,9,"[""9""]",1,[2.0170999999045875],"[6.368299999952285,2.9785999999046453,6.040600000143058,2.1482999999523145,2.0170999999045875]",0,4,4,9,1,Practice,10,(20/2) - 1,9,,,,,,,,,,,,,,,,,,,,,,,,,,,,,,,,,,,,,,,,,,,,,,,,,,,,,,,,,,,,,,,,,,,
,,,,,,,,,,601fe0de101ae05414812f4d,26,Kobieta,2022-06-04_07h10.54.283,task,2021.1.4,Win32,59.88382538,628b806c463b948bc644b84f,629af6bcc430cf36bc415876,,,,,,,,,,,,,,,,,,,,,,,7,"[""7""]",1,[7.543000000000006],"[6.368299999952285,2.9785999999046453,6.040600000143058,2.1482999999523145,2.0170999999045875,7.543000000000006]",0,5,5,7,1,Practice,8,(5x5) - 18,7,,,,,,,,,,,,,,,,,,,,,,,,,,,,,,,,,,,,,,,,,,,,,,,,,,,,,,,,,,,,,,,,,,,
,,,,,,,,,,601fe0de101ae05414812f4d,26,Kobieta,2022-06-04_07h10.54.283,task,2021.1.4,Win32,59.88382538,628b806c463b948bc644b84f,629af6bcc430cf36bc415876,,,,,,,,,,,,,,,,,,,,,,,5,"[""5""]",1,[2.397599999904685],"[6.368299999952285,2.9785999999046453,6.040600000143058,2.1482999999523145,2.0170999999045875,7.543000000000006,2.397599999904685]",0,6,6,5,1,Practice,6,(4/2) + 3,5,,,,,,,,,,,,,,,,,,,,,,,,,,,,,,,,,,,,,,,,,,,,,,,,,,,,,,,,,,,,,,,,,,,
,,,,,,,,,,601fe0de101ae05414812f4d,26,Kobieta,2022-06-04_07h10.54.283,task,2021.1.4,Win32,59.88382538,628b806c463b948bc644b84f,629af6bcc430cf36bc415876,,,,,,,,,,,,,,,,,,,,,,,1,"[""1""]",1,[1.932899999856943],"[6.368299999952285,2.9785999999046453,6.040600000143058,2.1482999999523145,2.0170999999045875,7.543000000000006,2.397599999904685,1.932899999856943]",0,7,7,1,1,Practice,2,(4x4) - 15,1,,,,,,,,,,,,,,,,,,,,,,,,,,,,,,,,,,,,,,,,,,,,,,,,,,,,,,,,,,,,,,,,,,,
,,,,,,,,,,601fe0de101ae05414812f4d,26,Kobieta,2022-06-04_07h10.54.283,task,2021.1.4,Win32,59.88382538,628b806c463b948bc644b84f,629af6bcc430cf36bc415876,,,,,,,,,,,,,,,,,,,,,,,6,"[""6""]",1,[1.9186000001430443],"[6.368299999952285,2.9785999999046453,6.040600000143058,2.1482999999523145,2.0170999999045875,7.543000000000006,2.397599999904685,1.932899999856943,1.9186000001430443]",0,8,8,6,1,Practice,7,(25/5) + 1,6,,,,,,,,,,,,,,,,,,,,,,,,,,,,,,,,,,,,,,,,,,,,,,,,,,,,,,,,,,,,,,,,,,,
,,,,,,,,,,601fe0de101ae05414812f4d,26,Kobieta,2022-06-04_07h10.54.283,task,2021.1.4,Win32,59.88382538,628b806c463b948bc644b84f,629af6bcc430cf36bc415876,,,,,,,,,,,,,,,,,,,,,,,4,"[""4""]",1,[6.259500000000003],"[6.368299999952285,2.9785999999046453,6.040600000143058,2.1482999999523145,2.0170999999045875,7.543000000000006,2.397599999904685,1.932899999856943,1.9186000001430443,6.259500000000003]",0,9,9,4,1,Practice,5,(2x6) - 8,4,,,,,,,,,,,,,,,,,,,,,,,,,,,,,,,,,,,,,,,,,,,,,,,,,,,,,,,,,,,,,,,,,,,
,,,,,,,,,,601fe0de101ae05414812f4d,26,Kobieta,2022-06-04_07h10.54.283,task,2021.1.4,Win32,59.88382538,628b806c463b948bc644b84f,629af6bcc430cf36bc415876,,,,,,,,,,,,,,,,,,,,,,,,,,,,,,,,,,,,,1,39.6045,2.6403,64.42015809,2.072360298,7.98698957,space,1.2692,0,0,0,0,1,,,,,,,,,,,,,,,,,,,,,,,,,,,,,,,,,,,,,,,,,,,,,,,,,,,,,,
,,,,,,,,,,601fe0de101ae05414812f4d,26,Kobieta,2022-06-04_07h10.54.283,task,2021.1.4,Win32,59.88382538,628b806c463b948bc644b84f,629af6bcc430cf36bc415876,,,,,,,,,,,,,,,,,,,,,,,7,,,,,,,,,,Practice,8,(5x5) - 18,7,,,,,,,,,,,,,,space,6.4726,"[""7""]",1,[4.2569000000953565],1,0,0,0,7,1,,,,,,,,,,,,,,,,,,,,,,,,,,,,,,,,,,,,,,,,,,,
,,,,,,,,,,601fe0de101ae05414812f4d,26,Kobieta,2022-06-04_07h10.54.283,task,2021.1.4,Win32,59.88382538,628b806c463b948bc644b84f,629af6bcc430cf36bc415876,,,,,,,,,,X V Q F H G B L J M P D K C T S W R N Z,,,,,,,,,,,,,,,,,,,,,,,,,,,,,,,,,,,,,,,,,,,,,,,,,,,0,0,0,0,1,,,,,,,,,,,,,,,,,,,,,,,,,,,,,,,,,,,,,,
,,,,,,,,,,601fe0de101ae05414812f4d,26,Kobieta,2022-06-04_07h10.54.283,task,2021.1.4,Win32,59.88382538,628b806c463b948bc644b84f,629af6bcc430cf36bc415876,,,,,,,,,,,,,,,,,,,,,,,3,,,,,,,,,,Practice,4,(8/4) + 1,3,,,,,,,,,,,,,,,,"[""3""]",1,[7.810899999856986],1,0,0,0,3,1,,,,,,,,,,,,,,,,,,,,,,,,,,,,,,,,,,,,,,,,,,,
,,,,,,,,,,601fe0de101ae05414812f4d,26,Kobieta,2022-06-04_07h10.54.283,task,2021.1.4,Win32,59.88382538,628b806c463b948bc644b84f,629af6bcc430cf36bc415876,,,,,,,,,,X V Q F H G B L J M P D K C T S W R N Z,,,,,,,,,,,,,,,,,,,,,,,,,,,,,,,,,,,,,,,,,,,,,,,,,,,1,0,1,0,1,,,,,,,,,,,,,,,,,,,,,,,,,,,,,,,,,,,,,,
,,,,,,,,,,601fe0de101ae05414812f4d,26,Kobieta,2022-06-04_07h10.54.283,task,2021.1.4,Win32,59.88382538,628b806c463b948bc644b84f,629af6bcc430cf36bc415876,,,,,,,,,,,,,,,,,,,,,,,,,,,,,,,,,,,,,,,,,,,,,,,,,,,,,,,,,,,,,,,,,,zc,"[""z"",""c""]",0,"[1.9341000001431325,2.366000000000156,3.102400000095429]",1,0,0,0,0,1,,,,,,,,,,,,,,,,,,,,,,,,,,,,
,,,,,,,,,,601fe0de101ae05414812f4d,26,Kobieta,2022-06-04_07h10.54.283,task,2021.1.4,Win32,59.88382538,628b806c463b948bc644b84f,629af6bcc430cf36bc415876,,,,,,,,,,,,,,,,,,,,,,,9,,,,,,,,,,Practice,10,(20/2) - 1,9,,,,,,,,,,,,,,,,"[""9""]",1,[3.9516000001431166],1,0,0,0,9,1,,,,,,,,,,,,,,,,,,,,,,,,,,,,,,,,,,,,,,,,,,,
,,,,,,,,,,601fe0de101ae05414812f4d,26,Kobieta,2022-06-04_07h10.54.283,task,2021.1.4,Win32,59.88382538,628b806c463b948bc644b84f,629af6bcc430cf36bc415876,,,,,,,,,,X V Q F H G B L J M P D K C T S W R N Z,,,,,,,,,,,,,,,,,,,,,,,,,,,,,,,,,,,,,,,,,,,,,,,,,,,0,0,0,0,1,,,,,,,,,,,,,,,,,,,,,,,,,,,,,,,,,,,,,,
,,,,,,,,,,601fe0de101ae05414812f4d,26,Kobieta,2022-06-04_07h10.54.283,task,2021.1.4,Win32,59.88382538,628b806c463b948bc644b84f,629af6bcc430cf36bc415876,,,,,,,,,,,,,,,,,,,,,,,2,,,,,,,,,,Practice,3,(4x4) - 14,2,,,,,,,,,,,,,,,,"[""2""]",1,[6.163499999999999],1,0,0,0,2,1,,,,,,,,,,,,,,,,,,,,,,,,,,,,,,,,,,,,,,,,,,,
,,,,,,,,,,601fe0de101ae05414812f4d,26,Kobieta,2022-06-04_07h10.54.283,task,2021.1.4,Win32,59.88382538,628b806c463b948bc644b84f,629af6bcc430cf36bc415876,,,,,,,,,,X V Q F H G B L J M P D K C T S W R N Z,,,,,,,,,,,,,,,,,,,,,,,,,,,,,,,,,,,,,,,,,,,,,,,,,,,1,0,1,0,1,,,,,,,,,,,,,,,,,,,,,,,,,,,,,,,,,,,,,,
,,,,,,,,,,601fe0de101ae05414812f4d,26,Kobieta,2022-06-04_07h10.54.283,task,2021.1.4,Win32,59.88382538,628b806c463b948bc644b84f,629af6bcc430cf36bc415876,,,,,,,,,,,,,,,,,,,,,,,,,,,,,,,,,,,,,,,,,,,,,,,,,,,,,,,,,,,,,,,,,,rt,"[""r"",""t""]",0,"[2.590600000143013,2.780499999999961,3.86590000009528]",1,1,0,1,0,1,,,,,,,,,,,,,,,,,,,,,,,,,,,,
,,,,,,,,,,601fe0de101ae05414812f4d,26,Kobieta,2022-06-04_07h10.54.283,task,2021.1.4,Win32,59.88382538,628b806c463b948bc644b84f,629af6bcc430cf36bc415876,,,,,,,,,,,,,,,,,,,,,,,7,,,,,,,,,,Practice,8,(5x5) - 18,7,,,,,,,,,,,,,,,,"[""7""]",1,[3.209100000143053],1,0,0,0,7,1,,,,,,,,,,,,,,,,,,,,,,,,,,,,,,,,,,,,,,,,,,,
,,,,,,,,,,601fe0de101ae05414812f4d,26,Kobieta,2022-06-04_07h10.54.283,task,2021.1.4,Win32,59.88382538,628b806c463b948bc644b84f,629af6bcc430cf36bc415876,,,,,,,,,,X V Q F H G B L J M P D K C T S W R N Z,,,,,,,,,,,,,,,,,,,,,,,,,,,,,,,,,,,,,,,,,,,,,,,,,,,0,0,0,0,1,,,,,,,,,,,,,,,,,,,,,,,,,,,,,,,,,,,,,,
,,,,,,,,,,601fe0de101ae05414812f4d,26,Kobieta,2022-06-04_07h10.54.283,task,2021.1.4,Win32,59.88382538,628b806c463b948bc644b84f,629af6bcc430cf36bc415876,,,,,,,,,,,,,,,,,,,,,,,0,,,,,,,,,,Practice,1,(3x3) -  9,0,,,,,,,,,,,,,,,,"[""0""]",1,[2.2071000001431003],1,0,0,0,0,1,,,,,,,,,,,,,,,,,,,,,,,,,,,,,,,,,,,,,,,,,,,
,,,,,,,,,,601fe0de101ae05414812f4d,26,Kobieta,2022-06-04_07h10.54.283,task,2021.1.4,Win32,59.88382538,628b806c463b948bc644b84f,629af6bcc430cf36bc415876,,,,,,,,,,X V Q F H G B L J M P D K C T S W R N Z,,,,,,,,,,,,,,,,,,,,,,,,,,,,,,,,,,,,,,,,,,,,,,,,,,,1,0,1,0,1,,,,,,,,,,,,,,,,,,,,,,,,,,,,,,,,,,,,,,
,,,,,,,,,,601fe0de101ae05414812f4d,26,Kobieta,2022-06-04_07h10.54.283,task,2021.1.4,Win32,59.88382538,628b806c463b948bc644b84f,629af6bcc430cf36bc415876,,,,,,,,,,,,,,,,,,,,,,,,,,,,,,,,,,,,,,,,,,,,,,,,,,,,,,,,,,,,,,,,,,nf,"[""n"",""f""]",0,"[1.686400000095432,1.7814000000954593,2.249200000047722]",1,2,0,2,0,1,,,,,,,,,,,,,,,,,,,,,,,,,,,,
,,,,,,,,,,601fe0de101ae05414812f4d,26,Kobieta,2022-06-04_07h10.54.283,task,2021.1.4,Win32,59.88382538,628b806c463b948bc644b84f,629af6bcc430cf36bc415876,,,,,,,,,,,,,,,,,,,,,,,,,,,,,,,,,Task,38,(4x6) - 17,7,,,,,,,,,,,,,,,,,,,0,,,,,,,,,,,,,,,,,,,,,space,16.5738,,0,0,0,0,37,1,,,,,,,,,,,,,,,,,,,
,,,,,,,,,,601fe0de101ae05414812f4d,26,Kobieta,2022-06-04_07h10.54.283,task,2021.1.4,Win32,59.88382538,628b806c463b948bc644b84f,629af6bcc430cf36bc415876,,,,,,,,,,,,,,,,,,,,,,,7,,,,,,,,,,Task,31,(4/2) + 5,7,,,,,,,,,,,,,,,,,,,1,,,,,,,,,,,,,,,,,,,,,,,"[""7""]",1,0,1,1,30,1,[2.74350000000004],,,,,,,,,,,,,,,,,,
,,,,,,,,,,601fe0de101ae05414812f4d,26,Kobieta,2022-06-04_07h10.54.283,task,2021.1.4,Win32,59.88382538,628b806c463b948bc644b84f,629af6bcc430cf36bc415876,,,,,,,,,,X V Q F H G B L J M P D K C T S W R N Z,,,,,,,,,,,,,,,,,,,,,,,,,,,,,,,,,,,,,,,,,,,,,,,,,,,,,,,,,,,,,,,,,,,,,,,,,,,,0,0,0,0,1,,,,,,,,,,,,,
,,,,,,,,,,601fe0de101ae05414812f4d,26,Kobieta,2022-06-04_07h10.54.283,task,2021.1.4,Win32,59.88382538,628b806c463b948bc644b84f,629af6bcc430cf36bc415876,,,,,,,,,,,,,,,,,,,,,,,9,,,,,,,,,,Task,24,(2x2) + 5,9,,,,,,,,,,,,,,,,,,,1,,,,,,,,,,,,,,,,,,,,,,,"[""9""]",1,0,0,0,23,1,[2.454300000190642],,,,,,,,,,,,,,,,,,
,,,,,,,,,,601fe0de101ae05414812f4d,26,Kobieta,2022-06-04_07h10.54.283,task,2021.1.4,Win32,59.88382538,628b806c463b948bc644b84f,629af6bcc430cf36bc415876,,,,,,,,,,X V Q F H G B L J M P D K C T S W R N Z,,,,,,,,,,,,,,,,,,,,,,,,,,,,,,,,,,,,,,,,,,,,,,,,,,,,,,,,,,,,,,,,,,,,,,,,,,,,1,0,1,0,1,,,,,,,,,,,,,
,,,,,,,,,,601fe0de101ae05414812f4d,26,Kobieta,2022-06-04_07h10.54.283,task,2021.1.4,Win32,59.88382538,628b806c463b948bc644b84f,629af6bcc430cf36bc415876,,,,,,,,,,,,,,,,,,,,,,,,,,,,,,,,,,,,,,,,,,,,,,,,,,,,,,,,,,,,,,,,,,,,,,,,,,,,,,,,,,,,,,,,,,,zz,"[""z"",""z""]",0,"[1.7037999999523663,1.8671999998093725,2.0165000000000646]",1,ZZ,0,0,0,0,1,,
,,,,,,,,,,601fe0de101ae05414812f4d,26,Kobieta,2022-06-04_07h10.54.283,task,2021.1.4,Win32,59.88382538,628b806c463b948bc644b84f,629af6bcc430cf36bc415876,,,,,,,,,,,,,,,,,,,,,,,0,,,,,,,,,,Task,17,(2x3) - 6,0,,,,,,,,,,,,,,,,,,,1,,,,,,,,,,,,,,,,,,,,,,,"[""0""]",1,0,0,0,16,1,[2.1886999998092733],,,,,,,,,,,,,,,,,,
,,,,,,,,,,601fe0de101ae05414812f4d,26,Kobieta,2022-06-04_07h10.54.283,task,2021.1.4,Win32,59.88382538,628b806c463b948bc644b84f,629af6bcc430cf36bc415876,,,,,,,,,,X V Q F H G B L J M P D K C T S W R N Z,,,,,,,,,,,,,,,,,,,,,,,,,,,,,,,,,,,,,,,,,,,,,,,,,,,,,,,,,,,,,,,,,,,,,,,,,,,,0,0,0,0,1,,,,,,,,,,,,,
,,,,,,,,,,601fe0de101ae05414812f4d,26,Kobieta,2022-06-04_07h10.54.283,task,2021.1.4,Win32,59.88382538,628b806c463b948bc644b84f,629af6bcc430cf36bc415876,,,,,,,,,,,,,,,,,,,,,,,4,,,,,,,,,,Task,21,(10/2) - 1,4,,,,,,,,,,,,,,,,,,,1,,,,,,,,,,,,,,,,,,,,,,,"[""4""]",1,0,0,0,20,1,[2.683200000047691],,,,,,,,,,,,,,,,,,
,,,,,,,,,,601fe0de101ae05414812f4d,26,Kobieta,2022-06-04_07h10.54.283,task,2021.1.4,Win32,59.88382538,628b806c463b948bc644b84f,629af6bcc430cf36bc415876,,,,,,,,,,X V Q F H G B L J M P D K C T S W R N Z,,,,,,,,,,,,,,,,,,,,,,,,,,,,,,,,,,,,,,,,,,,,,,,,,,,,,,,,,,,,,,,,,,,,,,,,,,,,1,0,1,0,1,,,,,,,,,,,,,
,,,,,,,,,,601fe0de101ae05414812f4d,26,Kobieta,2022-06-04_07h10.54.283,task,2021.1.4,Win32,59.88382538,628b806c463b948bc644b84f,629af6bcc430cf36bc415876,,,,,,,,,,,,,,,,,,,,,,,8,,,,,,,,,,Task,23,(2x3) + 2,8,,,,,,,,,,,,,,,,,,,1,,,,,,,,,,,,,,,,,,,,,,,"[""8""]",1,0,0,0,22,1,[4.127200000047651],,,,,,,,,,,,,,,,,,
,,,,,,,,,,601fe0de101ae05414812f4d,26,Kobieta,2022-06-04_07h10.54.283,task,2021.1.4,Win32,59.88382538,628b806c463b948bc644b84f,629af6bcc430cf36bc415876,,,,,,,,,,X V Q F H G B L J M P D K C T S W R N Z,,,,,,,,,,,,,,,,,,,,,,,,,,,,,,,,,,,,,,,,,,,,,,,,,,,,,,,,,,,,,,,,,,,,,,,,,,,,2,0,2,0,1,,,,,,,,,,,,,
,,,,,,,,,,601fe0de101ae05414812f4d,26,Kobieta,2022-06-04_07h10.54.283,task,2021.1.4,Win32,59.88382538,628b806c463b948bc644b84f,629af6bcc430cf36bc415876,,,,,,,,,,,,,,,,,,,,,,,,,,,,,,,,,,,,,,,,,,,,,,,,,,,,,,,,,,,,,,,,,,,,,,,,,,,,,,,,,,,,,,,,,,,zwh,"[""z"",""w"",""h""]",0,"[1.5318000001907421,1.96550000000002,2.098600000143051,2.4839000000954456]",0,DWH,1,0,1,0,1,,
,,,,,,,,,,601fe0de101ae05414812f4d,26,Kobieta,2022-06-04_07h10.54.283,task,2021.1.4,Win32,59.88382538,628b806c463b948bc644b84f,629af6bcc430cf36bc415876,,,,,,,,,,,,,,,,,,,,,,,1,,,,,,,,,,Task,1,(12/6) - 1,1,,,,,,,,,,,,,,,,,,,1,,,,,,,,,,,,,,,,,,,,,,,"[""1""]",1,0,0,0,0,1,[2.5820000000001073],,,,,,,,,,,,,,,,,,
,,,,,,,,,,601fe0de101ae05414812f4d,26,Kobieta,2022-06-04_07h10.54.283,task,2021.1.4,Win32,59.88382538,628b806c463b948bc644b84f,629af6bcc430cf36bc415876,,,,,,,,,,X V Q F H G B L J M P D K C T S W R N Z,,,,,,,,,,,,,,,,,,,,,,,,,,,,,,,,,,,,,,,,,,,,,,,,,,,,,,,,,,,,,,,,,,,,,,,,,,,,0,0,0,0,1,,,,,,,,,,,,,
,,,,,,,,,,601fe0de101ae05414812f4d,26,Kobieta,2022-06-04_07h10.54.283,task,2021.1.4,Win32,59.88382538,628b806c463b948bc644b84f,629af6bcc430cf36bc415876,,,,,,,,,,,,,,,,,,,,,,,2,,,,,,,,,,Task,19,(6/2) - 1,2,,,,,,,,,,,,,,,,,,,1,,,,,,,,,,,,,,,,,,,,,,,"[""2""]",1,0,0,0,18,1,[3.2337000000476337],,,,,,,,,,,,,,,,,,
,,,,,,,,,,601fe0de101ae05414812f4d,26,Kobieta,2022-06-04_07h10.54.283,task,2021.1.4,Win32,59.88382538,628b806c463b948bc644b84f,629af6bcc430cf36bc415876,,,,,,,,,,X V Q F H G B L J M P D K C T S W R N Z,,,,,,,,,,,,,,,,,,,,,,,,,,,,,,,,,,,,,,,,,,,,,,,,,,,,,,,,,,,,,,,,,,,,,,,,,,,,1,0,1,0,1,,,,,,,,,,,,,
,,,,,,,,,,601fe0de101ae05414812f4d,26,Kobieta,2022-06-04_07h10.54.283,task,2021.1.4,Win32,59.88382538,628b806c463b948bc644b84f,629af6bcc430cf36bc415876,,,,,,,,,,,,,,,,,,,,,,,6,,,,,,,,,,Task,37,(3/3) + 5,6,,,,,,,,,,,,,,,,,,,1,,,,,,,,,,,,,,,,,,,,,,,"[""6""]",1,0,0,0,36,1,[3.240299999952299],,,,,,,,,,,,,,,,,,
,,,,,,,,,,601fe0de101ae05414812f4d,26,Kobieta,2022-06-04_07h10.54.283,task,2021.1.4,Win32,59.88382538,628b806c463b948bc644b84f,629af6bcc430cf36bc415876,,,,,,,,,,X V Q F H G B L J M P D K C T S W R N Z,,,,,,,,,,,,,,,,,,,,,,,,,,,,,,,,,,,,,,,,,,,,,,,,,,,,,,,,,,,,,,,,,,,,,,,,,,,,2,0,2,0,1,,,,,,,,,,,,,
,,,,,,,,,,601fe0de101ae05414812f4d,26,Kobieta,2022-06-04_07h10.54.283,task,2021.1.4,Win32,59.88382538,628b806c463b948bc644b84f,629af6bcc430cf36bc415876,,,,,,,,,,,,,,,,,,,,,,,,,,,,,,,,,,,,,,,,,,,,,,,,,,,,,,,,,,,,,,,,,,,,,,,,,,,,,,,,,,,,,,,,,,,ptw,"[""p"",""t"",""w""]",0,"[2.334600000143041,2.3868000001907603,2.4706000001430084,2.7819999999999254]",1,PTW,2,0,2,0,1,,
,,,,,,,,,,601fe0de101ae05414812f4d,26,Kobieta,2022-06-04_07h10.54.283,task,2021.1.4,Win32,59.88382538,628b806c463b948bc644b84f,629af6bcc430cf36bc415876,,,,,,,,,,,,,,,,,,,,,,,0,,,,,,,,,,Task,17,(2x3) - 6,0,,,,,,,,,,,,,,,,,,,1,,,,,,,,,,,,,,,,,,,,,,,"[""0""]",1,0,0,0,16,1,[1.567799999952399],,,,,,,,,,,,,,,,,,
,,,,,,,,,,601fe0de101ae05414812f4d,26,Kobieta,2022-06-04_07h10.54.283,task,2021.1.4,Win32,59.88382538,628b806c463b948bc644b84f,629af6bcc430cf36bc415876,,,,,,,,,,X V Q F H G B L J M P D K C T S W R N Z,,,,,,,,,,,,,,,,,,,,,,,,,,,,,,,,,,,,,,,,,,,,,,,,,,,,,,,,,,,,,,,,,,,,,,,,,,,,0,0,0,0,1,,,,,,,,,,,,,
,,,,,,,,,,601fe0de101ae05414812f4d,26,Kobieta,2022-06-04_07h10.54.283,task,2021.1.4,Win32,59.88382538,628b806c463b948bc644b84f,629af6bcc430cf36bc415876,,,,,,,,,,,,,,,,,,,,,,,8,,,,,,,,,,Task,39,(5x3) - 7,8,,,,,,,,,,,,,,,,,,,1,,,,,,,,,,,,,,,,,,,,,,,"[""8""]",1,0,0,0,38,1,[3.9617999999524045],,,,,,,,,,,,,,,,,,
,,,,,,,,,,601fe0de101ae05414812f4d,26,Kobieta,2022-06-04_07h10.54.283,task,2021.1.4,Win32,59.88382538,628b806c463b948bc644b84f,629af6bcc430cf36bc415876,,,,,,,,,,X V Q F H G B L J M P D K C T S W R N Z,,,,,,,,,,,,,,,,,,,,,,,,,,,,,,,,,,,,,,,,,,,,,,,,,,,,,,,,,,,,,,,,,,,,,,,,,,,,1,0,1,0,1,,,,,,,,,,,,,
,,,,,,,,,,601fe0de101ae05414812f4d,26,Kobieta,2022-06-04_07h10.54.283,task,2021.1.4,Win32,59.88382538,628b806c463b948bc644b84f,629af6bcc430cf36bc415876,,,,,,,,,,,,,,,,,,,,,,,,,,,,,,,,,Task,16,(3x8) - 15,9,,,,,,,,,,,,,,,,,,,0,,,,,,,,,,,,,,,,,,,,,,,,0,0,0,0,15,1,,,,,,,,,,,,,,,,,,,
,,,,,,,,,,601fe0de101ae05414812f4d,26,Kobieta,2022-06-04_07h10.54.283,task,2021.1.4,Win32,59.88382538,628b806c463b948bc644b84f,629af6bcc430cf36bc415876,,,,,,,,,,,,,,,,,,,,,,,1,,,,,,,,,,Task,18,(16/4) - 3,1,,,,,,,,,,,,,,,,,,,1,,,,,,,,,,,,,,,,,,,,,,,"[""1""]",1,0,1,1,17,1,[1.8314000000954138],,,,,,,,,,,,,,,,,,
,,,,,,,,,,601fe0de101ae05414812f4d,26,Kobieta,2022-06-04_07h10.54.283,task,2021.1.4,Win32,59.88382538,628b806c463b948bc644b84f,629af6bcc430cf36bc415876,,,,,,,,,,X V Q F H G B L J M P D K C T S W R N Z,,,,,,,,,,,,,,,,,,,,,,,,,,,,,,,,,,,,,,,,,,,,,,,,,,,,,,,,,,,,,,,,,,,,,,,,,,,,2,0,2,0,1,,,,,,,,,,,,,
,,,,,,,,,,601fe0de101ae05414812f4d,26,Kobieta,2022-06-04_07h10.54.283,task,2021.1.4,Win32,59.88382538,628b806c463b948bc644b84f,629af6bcc430cf36bc415876,,,,,,,,,,,,,,,,,,,,,,,7,,,,,,,,,,Task,14,(2x2) + 3,7,,,,,,,,,,,,,,,,,,,1,,,,,,,,,,,,,,,,,,,,,,,"[""7""]",1,0,0,0,13,1,[4.331299999952307],,,,,,,,,,,,,,,,,,
,,,,,,,,,,601fe0de101ae05414812f4d,26,Kobieta,2022-06-04_07h10.54.283,task,2021.1.4,Win32,59.88382538,628b806c463b948bc644b84f,629af6bcc430cf36bc415876,,,,,,,,,,X V Q F H G B L J M P D K C T S W R N Z,,,,,,,,,,,,,,,,,,,,,,,,,,,,,,,,,,,,,,,,,,,,,,,,,,,,,,,,,,,,,,,,,,,,,,,,,,,,3,0,3,0,1,,,,,,,,,,,,,
,,,,,,,,,,601fe0de101ae05414812f4d,26,Kobieta,2022-06-04_07h10.54.283,task,2021.1.4,Win32,59.88382538,628b806c463b948bc644b84f,629af6bcc430cf36bc415876,,,,,,,,,,,,,,,,,,,,,,,,,,,,,,,,,,,,,,,,,,,,,,,,,,,,,,,,,,,,,,,,,,,,,,,,,,,,,,,,,,,,,,,,,,,rmvq,"[""r"",""m"",""v"",""q""]",0,"[2.6074000000953674,2.8647000000476055,3.501600000143071,3.919300000190674,4.523000000000025]",1,RMVQ,3,0,3,0,1,,
,,,,,,,,,,601fe0de101ae05414812f4d,26,Kobieta,2022-06-04_07h10.54.283,task,2021.1.4,Win32,59.88382538,628b806c463b948bc644b84f,629af6bcc430cf36bc415876,,,,,,,,,,,,,,,,,,,,,,,8,,,,,,,,,,Task,39,(5x3) - 7,8,,,,,,,,,,,,,,,,,,,1,,,,,,,,,,,,,,,,,,,,,,,"[""8""]",1,0,0,0,38,1,[4.785699999809253],,,,,,,,,,,,,,,,,,
,,,,,,,,,,601fe0de101ae05414812f4d,26,Kobieta,2022-06-04_07h10.54.283,task,2021.1.4,Win32,59.88382538,628b806c463b948bc644b84f,629af6bcc430cf36bc415876,,,,,,,,,,X V Q F H G B L J M P D K C T S W R N Z,,,,,,,,,,,,,,,,,,,,,,,,,,,,,,,,,,,,,,,,,,,,,,,,,,,,,,,,,,,,,,,,,,,,,,,,,,,,0,0,0,0,1,,,,,,,,,,,,,
,,,,,,,,,,601fe0de101ae05414812f4d,26,Kobieta,2022-06-04_07h10.54.283,task,2021.1.4,Win32,59.88382538,628b806c463b948bc644b84f,629af6bcc430cf36bc415876,,,,,,,,,,,,,,,,,,,,,,,3,,,,,,,,,,Task,20,(18/9) + 1,3,,,,,,,,,,,,,,,,,,,1,,,,,,,,,,,,,,,,,,,,,,,"[""3""]",1,0,0,0,19,1,[6.182199999809313],,,,,,,,,,,,,,,,,,
,,,,,,,,,,601fe0de101ae05414812f4d,26,Kobieta,2022-06-04_07h10.54.283,task,2021.1.4,Win32,59.88382538,628b806c463b948bc644b84f,629af6bcc430cf36bc415876,,,,,,,,,,X V Q F H G B L J M P D K C T S W R N Z,,,,,,,,,,,,,,,,,,,,,,,,,,,,,,,,,,,,,,,,,,,,,,,,,,,,,,,,,,,,,,,,,,,,,,,,,,,,1,0,1,0,1,,,,,,,,,,,,,
,,,,,,,,,,601fe0de101ae05414812f4d,26,Kobieta,2022-06-04_07h10.54.283,task,2021.1.4,Win32,59.88382538,628b806c463b948bc644b84f,629af6bcc430cf36bc415876,,,,,,,,,,,,,,,,,,,,,,,7,,,,,,,,,,Task,14,(2x2) + 3,7,,,,,,,,,,,,,,,,,,,1,,,,,,,,,,,,,,,,,,,,,,,"[""7""]",1,0,0,0,13,1,[6.2302000000477165],,,,,,,,,,,,,,,,,,
,,,,,,,,,,601fe0de101ae05414812f4d,26,Kobieta,2022-06-04_07h10.54.283,task,2021.1.4,Win32,59.88382538,628b806c463b948bc644b84f,629af6bcc430cf36bc415876,,,,,,,,,,X V Q F H G B L J M P D K C T S W R N Z,,,,,,,,,,,,,,,,,,,,,,,,,,,,,,,,,,,,,,,,,,,,,,,,,,,,,,,,,,,,,,,,,,,,,,,,,,,,2,0,2,0,1,,,,,,,,,,,,,
,,,,,,,,,,601fe0de101ae05414812f4d,26,Kobieta,2022-06-04_07h10.54.283,task,2021.1.4,Win32,59.88382538,628b806c463b948bc644b84f,629af6bcc430cf36bc415876,,,,,,,,,,,,,,,,,,,,,,,3,,,,,,,,,,Task,27,(3/3) + 2,3,,,,,,,,,,,,,,,,,,,1,,,,,,,,,,,,,,,,,,,,,,,"[""3""]",1,0,0,0,26,1,[3.455000000000041],,,,,,,,,,,,,,,,,,
,,,,,,,,,,601fe0de101ae05414812f4d,26,Kobieta,2022-06-04_07h10.54.283,task,2021.1.4,Win32,59.88382538,628b806c463b948bc644b84f,629af6bcc430cf36bc415876,,,,,,,,,,X V Q F H G B L J M P D K C T S W R N Z,,,,,,,,,,,,,,,,,,,,,,,,,,,,,,,,,,,,,,,,,,,,,,,,,,,,,,,,,,,,,,,,,,,,,,,,,,,,3,0,3,0,1,,,,,,,,,,,,,
,,,,,,,,,,601fe0de101ae05414812f4d,26,Kobieta,2022-06-04_07h10.54.283,task,2021.1.4,Win32,59.88382538,628b806c463b948bc644b84f,629af6bcc430cf36bc415876,,,,,,,,,,,,,,,,,,,,,,,1,,,,,,,,,,Task,1,(12/6) - 1,1,,,,,,,,,,,,,,,,,,,1,,,,,,,,,,,,,,,,,,,,,,,"[""1""]",1,0,0,0,0,1,[1.6565999999046426],,,,,,,,,,,,,,,,,,
,,,,,,,,,,601fe0de101ae05414812f4d,26,Kobieta,2022-06-04_07h10.54.283,task,2021.1.4,Win32,59.88382538,628b806c463b948bc644b84f,629af6bcc430cf36bc415876,,,,,,,,,,X V Q F H G B L J M P D K C T S W R N Z,,,,,,,,,,,,,,,,,,,,,,,,,,,,,,,,,,,,,,,,,,,,,,,,,,,,,,,,,,,,,,,,,,,,,,,,,,,,4,0,4,0,1,,,,,,,,,,,,,
,,,,,,,,,,601fe0de101ae05414812f4d,26,Kobieta,2022-06-04_07h10.54.283,task,2021.1.4,Win32,59.88382538,628b806c463b948bc644b84f,629af6bcc430cf36bc415876,,,,,,,,,,,,,,,,,,,,,,,,,,,,,,,,,,,,,,,,,,,,,,,,,,,,,,,,,,,,,,,,,,,,,,,,,,,,,,,,,,,,,,,,,,,jwqbk,"[""j"",""w"",""q"",""b"",""k""]",0,"[12.795600000143054,13.029600000142977,13.46820000004766,13.836000000000013,14.066100000143024,14.469499999999925]",1,JWQBK,4,0,4,0,1,,
,,,,,,,,,,601fe0de101ae05414812f4d,26,Kobieta,2022-06-04_07h10.54.283,task,2021.1.4,Win32,59.88382538,628b806c463b948bc644b84f,629af6bcc430cf36bc415876,,,,,,,,,,,,,,,,,,,,,,,1,,,,,,,,,,Task,1,(12/6) - 1,1,,,,,,,,,,,,,,,,,,,1,,,,,,,,,,,,,,,,,,,,,,,"[""1""]",1,0,0,0,0,1,[4.320700000047623],,,,,,,,,,,,,,,,,,
,,,,,,,,,,601fe0de101ae05414812f4d,26,Kobieta,2022-06-04_07h10.54.283,task,2021.1.4,Win32,59.88382538,628b806c463b948bc644b84f,629af6bcc430cf36bc415876,,,,,,,,,,X V Q F H G B L J M P D K C T S W R N Z,,,,,,,,,,,,,,,,,,,,,,,,,,,,,,,,,,,,,,,,,,,,,,,,,,,,,,,,,,,,,,,,,,,,,,,,,,,,0,0,0,0,1,,,,,,,,,,,,,
,,,,,,,,,,601fe0de101ae05414812f4d,26,Kobieta,2022-06-04_07h10.54.283,task,2021.1.4,Win32,59.88382538,628b806c463b948bc644b84f,629af6bcc430cf36bc415876,,,,,,,,,,,,,,,,,,,,,,,8,,,,,,,,,,Task,23,(2x3) + 2,8,,,,,,,,,,,,,,,,,,,1,,,,,,,,,,,,,,,,,,,,,,,"[""8""]",1,0,0,0,22,1,[3.648200000047723],,,,,,,,,,,,,,,,,,
,,,,,,,,,,601fe0de101ae05414812f4d,26,Kobieta,2022-06-04_07h10.54.283,task,2021.1.4,Win32,59.88382538,628b806c463b948bc644b84f,629af6bcc430cf36bc415876,,,,,,,,,,X V Q F H G B L J M P D K C T S W R N Z,,,,,,,,,,,,,,,,,,,,,,,,,,,,,,,,,,,,,,,,,,,,,,,,,,,,,,,,,,,,,,,,,,,,,,,,,,,,1,0,1,0,1,,,,,,,,,,,,,
,,,,,,,,,,601fe0de101ae05414812f4d,26,Kobieta,2022-06-04_07h10.54.283,task,2021.1.4,Win32,59.88382538,628b806c463b948bc644b84f,629af6bcc430cf36bc415876,,,,,,,,,,,,,,,,,,,,,,,5,,,,,,,,,,Task,12,(4x4) - 11,5,,,,,,,,,,,,,,,,,,,1,,,,,,,,,,,,,,,,,,,,,,,"[""5""]",1,0,0,0,11,1,[2.5611999998092188],,,,,,,,,,,,,,,,,,
,,,,,,,,,,601fe0de101ae05414812f4d,26,Kobieta,2022-06-04_07h10.54.283,task,2021.1.4,Win32,59.88382538,628b806c463b948bc644b84f,629af6bcc430cf36bc415876,,,,,,,,,,X V Q F H G B L J M P D K C T S W R N Z,,,,,,,,,,,,,,,,,,,,,,,,,,,,,,,,,,,,,,,,,,,,,,,,,,,,,,,,,,,,,,,,,,,,,,,,,,,,2,0,2,0,1,,,,,,,,,,,,,
,,,,,,,,,,601fe0de101ae05414812f4d,26,Kobieta,2022-06-04_07h10.54.283,task,2021.1.4,Win32,59.88382538,628b806c463b948bc644b84f,629af6bcc430cf36bc415876,,,,,,,,,,,,,,,,,,,,,,,7,,,,,,,,,,Task,38,(4x6) - 17,7,,,,,,,,,,,,,,,,,,,1,,,,,,,,,,,,,,,,,,,,,,,"[""7""]",1,0,0,0,37,1,[6.066500000000019],,,,,,,,,,,,,,,,,,
,,,,,,,,,,601fe0de101ae05414812f4d,26,Kobieta,2022-06-04_07h10.54.283,task,2021.1.4,Win32,59.88382538,628b806c463b948bc644b84f,629af6bcc430cf36bc415876,,,,,,,,,,X V Q F H G B L J M P D K C T S W R N Z,,,,,,,,,,,,,,,,,,,,,,,,,,,,,,,,,,,,,,,,,,,,,,,,,,,,,,,,,,,,,,,,,,,,,,,,,,,,3,0,3,0,1,,,,,,,,,,,,,
,,,,,,,,,,601fe0de101ae05414812f4d,26,Kobieta,2022-06-04_07h10.54.283,task,2021.1.4,Win32,59.88382538,628b806c463b948bc644b84f,629af6bcc430cf36bc415876,,,,,,,,,,,,,,,,,,,,,,,8,,,,,,,,,,Task,39,(5x3) - 7,8,,,,,,,,,,,,,,,,,,,1,,,,,,,,,,,,,,,,,,,,,,,"[""8""]",1,0,0,0,38,1,[3.2596999998092997],,,,,,,,,,,,,,,,,,
,,,,,,,,,,601fe0de101ae05414812f4d,26,Kobieta,2022-06-04_07h10.54.283,task,2021.1.4,Win32,59.88382538,628b806c463b948bc644b84f,629af6bcc430cf36bc415876,,,,,,,,,,X V Q F H G B L J M P D K C T S W R N Z,,,,,,,,,,,,,,,,,,,,,,,,,,,,,,,,,,,,,,,,,,,,,,,,,,,,,,,,,,,,,,,,,,,,,,,,,,,,4,0,4,0,1,,,,,,,,,,,,,
,,,,,,,,,,601fe0de101ae05414812f4d,26,Kobieta,2022-06-04_07h10.54.283,task,2021.1.4,Win32,59.88382538,628b806c463b948bc644b84f,629af6bcc430cf36bc415876,,,,,,,,,,,,,,,,,,,,,,,2,,,,,,,,,,Task,26,(2x9) - 16,2,,,,,,,,,,,,,,,,,,,1,,,,,,,,,,,,,,,,,,,,,,,"[""2""]",1,0,0,0,25,1,[2.0142000000477083],,,,,,,,,,,,,,,,,,
,,,,,,,,,,601fe0de101ae05414812f4d,26,Kobieta,2022-06-04_07h10.54.283,task,2021.1.4,Win32,59.88382538,628b806c463b948bc644b84f,629af6bcc430cf36bc415876,,,,,,,,,,X V Q F H G B L J M P D K C T S W R N Z,,,,,,,,,,,,,,,,,,,,,,,,,,,,,,,,,,,,,,,,,,,,,,,,,,,,,,,,,,,,,,,,,,,,,,,,,,,,5,0,5,0,1,,,,,,,,,,,,,
,,,,,,,,,,601fe0de101ae05414812f4d,26,Kobieta,2022-06-04_07h10.54.283,task,2021.1.4,Win32,59.88382538,628b806c463b948bc644b84f,629af6bcc430cf36bc415876,,,,,,,,,,,,,,,,,,,,,,,,,,,,,,,,,,,,,,,,,,,,,,,,,,,,,,,,,,,,,,,,,,,,,,,,,,,,,,,,,,,,,,,,,,,shdqd,"[""s"",""h"",""d"",""q"",""d""]",0,"[1.8934000000954256,2.9089000000954,3.6709000000954575,4.285700000047768,4.540299999952367,5.433400000095389]",0,SHKDQD,5,0,5,0,1,,
,,,,,,,,,,601fe0de101ae05414812f4d,26,Kobieta,2022-06-04_07h10.54.283,task,2021.1.4,Win32,59.88382538,628b806c463b948bc644b84f,629af6bcc430cf36bc415876,,,,,,,,,,,,,,,,,,,,,,,5,,,,,,,,,,Task,12,(4x4) - 11,5,,,,,,,,,,,,,,,,,,,1,,,,,,,,,,,,,,,,,,,,,,,"[""5""]",1,0,0,0,11,1,[3.5622999999523017],,,,,,,,,,,,,,,,,,
,,,,,,,,,,601fe0de101ae05414812f4d,26,Kobieta,2022-06-04_07h10.54.283,task,2021.1.4,Win32,59.88382538,628b806c463b948bc644b84f,629af6bcc430cf36bc415876,,,,,,,,,,X V Q F H G B L J M P D K C T S W R N Z,,,,,,,,,,,,,,,,,,,,,,,,,,,,,,,,,,,,,,,,,,,,,,,,,,,,,,,,,,,,,,,,,,,,,,,,,,,,0,0,0,0,1,,,,,,,,,,,,,
,,,,,,,,,,601fe0de101ae05414812f4d,26,Kobieta,2022-06-04_07h10.54.283,task,2021.1.4,Win32,59.88382538,628b806c463b948bc644b84f,629af6bcc430cf36bc415876,,,,,,,,,,,,,,,,,,,,,,,8,,,,,,,,,,Task,23,(2x3) + 2,8,,,,,,,,,,,,,,,,,,,1,,,,,,,,,,,,,,,,,,,,,,,"[""8""]",1,0,0,0,22,1,[1.7001000001430384],,,,,,,,,,,,,,,,,,
,,,,,,,,,,601fe0de101ae05414812f4d,26,Kobieta,2022-06-04_07h10.54.283,task,2021.1.4,Win32,59.88382538,628b806c463b948bc644b84f,629af6bcc430cf36bc415876,,,,,,,,,,X V Q F H G B L J M P D K C T S W R N Z,,,,,,,,,,,,,,,,,,,,,,,,,,,,,,,,,,,,,,,,,,,,,,,,,,,,,,,,,,,,,,,,,,,,,,,,,,,,1,0,1,0,1,,,,,,,,,,,,,
,,,,,,,,,,601fe0de101ae05414812f4d,26,Kobieta,2022-06-04_07h10.54.283,task,2021.1.4,Win32,59.88382538,628b806c463b948bc644b84f,629af6bcc430cf36bc415876,,,,,,,,,,,,,,,,,,,,,,,7,,,,,,,,,,Task,15,(3x7) - 13,8,,,,,,,,,,,,,,,,,,,0,,,,,,,,,,,,,,,,,,,,,,,"[""7""]",0,0,0,0,14,1,[4.728999999999928],,,,,,,,,,,,,,,,,,
,,,,,,,,,,601fe0de101ae05414812f4d,26,Kobieta,2022-06-04_07h10.54.283,task,2021.1.4,Win32,59.88382538,628b806c463b948bc644b84f,629af6bcc430cf36bc415876,,,,,,,,,,,,,,,,,,,,,,,0,,,,,,,,,,Task,33,(1/1) - 1,0,,,,,,,,,,,,,,,,,,,1,,,,,,,,,,,,,,,,,,,,,,,"[""0""]",1,0,1,1,32,1,[2.2436999998092233],,,,,,,,,,,,,,,,,,
,,,,,,,,,,601fe0de101ae05414812f4d,26,Kobieta,2022-06-04_07h10.54.283,task,2021.1.4,Win32,59.88382538,628b806c463b948bc644b84f,629af6bcc430cf36bc415876,,,,,,,,,,X V Q F H G B L J M P D K C T S W R N Z,,,,,,,,,,,,,,,,,,,,,,,,,,,,,,,,,,,,,,,,,,,,,,,,,,,,,,,,,,,,,,,,,,,,,,,,,,,,2,0,2,0,1,,,,,,,,,,,,,
,,,,,,,,,,601fe0de101ae05414812f4d,26,Kobieta,2022-06-04_07h10.54.283,task,2021.1.4,Win32,59.88382538,628b806c463b948bc644b84f,629af6bcc430cf36bc415876,,,,,,,,,,,,,,,,,,,,,,,6,,,,,,,,,,Task,13,(3x4) - 6,6,,,,,,,,,,,,,,,,,,,1,,,,,,,,,,,,,,,,,,,,,,,"[""6""]",1,0,0,0,12,1,[4.637000000000057],,,,,,,,,,,,,,,,,,
,,,,,,,,,,601fe0de101ae05414812f4d,26,Kobieta,2022-06-04_07h10.54.283,task,2021.1.4,Win32,59.88382538,628b806c463b948bc644b84f,629af6bcc430cf36bc415876,,,,,,,,,,X V Q F H G B L J M P D K C T S W R N Z,,,,,,,,,,,,,,,,,,,,,,,,,,,,,,,,,,,,,,,,,,,,,,,,,,,,,,,,,,,,,,,,,,,,,,,,,,,,3,0,3,0,1,,,,,,,,,,,,,
,,,,,,,,,,601fe0de101ae05414812f4d,26,Kobieta,2022-06-04_07h10.54.283,task,2021.1.4,Win32,59.88382538,628b806c463b948bc644b84f,629af6bcc430cf36bc415876,,,,,,,,,,,,,,,,,,,,,,,1,,,,,,,,,,Task,34,(9/3) - 2,1,,,,,,,,,,,,,,,,,,,1,,,,,,,,,,,,,,,,,,,,,,,"[""1""]",1,0,0,0,33,1,[3.162699999809206],,,,,,,,,,,,,,,,,,
,,,,,,,,,,601fe0de101ae05414812f4d,26,Kobieta,2022-06-04_07h10.54.283,task,2021.1.4,Win32,59.88382538,628b806c463b948bc644b84f,629af6bcc430cf36bc415876,,,,,,,,,,X V Q F H G B L J M P D K C T S W R N Z,,,,,,,,,,,,,,,,,,,,,,,,,,,,,,,,,,,,,,,,,,,,,,,,,,,,,,,,,,,,,,,,,,,,,,,,,,,,4,0,4,0,1,,,,,,,,,,,,,
,,,,,,,,,,601fe0de101ae05414812f4d,26,Kobieta,2022-06-04_07h10.54.283,task,2021.1.4,Win32,59.88382538,628b806c463b948bc644b84f,629af6bcc430cf36bc415876,,,,,,,,,,,,,,,,,,,,,,,4,,,,,,,,,,Task,21,(10/2) - 1,4,,,,,,,,,,,,,,,,,,,1,,,,,,,,,,,,,,,,,,,,,,,"[""4""]",1,0,0,0,20,1,[2.137400000095454],,,,,,,,,,,,,,,,,,
,,,,,,,,,,601fe0de101ae05414812f4d,26,Kobieta,2022-06-04_07h10.54.283,task,2021.1.4,Win32,59.88382538,628b806c463b948bc644b84f,629af6bcc430cf36bc415876,,,,,,,,,,X V Q F H G B L J M P D K C T S W R N Z,,,,,,,,,,,,,,,,,,,,,,,,,,,,,,,,,,,,,,,,,,,,,,,,,,,,,,,,,,,,,,,,,,,,,,,,,,,,5,0,5,0,1,,,,,,,,,,,,,
,,,,,,,,,,601fe0de101ae05414812f4d,26,Kobieta,2022-06-04_07h10.54.283,task,2021.1.4,Win32,59.88382538,628b806c463b948bc644b84f,629af6bcc430cf36bc415876,,,,,,,,,,,,,,,,,,,,,,,,,,,,,,,,,,,,,,,,,,,,,,,,,,,,,,,,,,,,,,,,,,,,,,,,,,,,,,,,,,,,,,,,,,,gdlwsv,"[""g"",""d"",""l"",""w"",""s"",""v""]",0,"[1.9834999999999354,2.831099999904609,2.990299999952299,3.29720000004761,3.555499999999938,3.8233999998568606,4.463599999904545]",0,GSLWSV,6,0,6,0,1,,
,,,,,,,,,,601fe0de101ae05414812f4d,26,Kobieta,2022-06-04_07h10.54.283,task,2021.1.4,Win32,59.88382538,628b806c463b948bc644b84f,629af6bcc430cf36bc415876,,,,,,,,,,,,,,,,,,,,,,,,,,,,,,,,,,,,,,,,,,,,,,,,,,,,,,,,,,,,,,,,,,,,,,,,,,,,,,,,,,,,,,,,,,,,,,,,,,,,,,space,1.2196
