key_resp_15.keys,key_resp_15.rt,key_resp_13.keys,key_resp_13.corr,key_resp_13.rt,ranodm_loop.thisRepN,ranodm_loop.thisTrialN,ranodm_loop.thisN,ranodm_loop.thisIndex,ranodm_loop.ran,participant,Wiek*,Płeć,date,expName,psychopyVersion,OS,frameRate,study_id,session,key_resp_16.keys,key_resp_16.rt,key_resp_4.keys,key_resp_4.rt,next_letter.thisRepN,next_letter.thisTrialN,next_letter.thisN,next_letter.thisIndex,next_letter.ran,letter,simple_recall,key_resp_5.keys,key_resp_5.rt,simple_recall_corr,simple_recall_corrkeys,next_level.thisRepN,next_level.thisTrialN,next_level.thisN,next_level.thisIndex,next_level.ran,key_resp_2.keys,key_resp_2.rt,digit_answer,key_resp.keys,key_resp.corr,key_resp.rt,RT_list,next_equation.thisRepN,next_equation.thisTrialN,next_equation.thisN,next_equation.thisIndex,next_equation.ran,Task,Trial,Problem,Operation_answer,processing_score,sumRT,meanRT,sumdiff,sd,RT,key_resp_3.keys,key_resp_3.rt,repeat_practice.thisRepN,repeat_practice.thisTrialN,repeat_practice.thisN,repeat_practice.thisIndex,repeat_practice.ran,key_resp_6.keys,key_resp_6.rt,key_resp_11.keys,key_resp_11.corr,key_resp_11.rt,operation_correct,repeat_if_wrong_prac.thisRepN,repeat_if_wrong_prac.thisTrialN,repeat_if_wrong_prac.thisN,repeat_if_wrong_prac.thisIndex,repeat_if_wrong_prac.ran,span_size_prac.thisRepN,span_size_prac.thisTrialN,span_size_prac.thisN,span_size_prac.thisIndex,span_size_prac.ran,complex_recall_practice,key_resp_9.keys,key_resp_9.corr,key_resp_9.rt,complex_prac_corr,span_recall_prac.thisRepN,span_recall_prac.thisTrialN,span_recall_prac.thisN,span_recall_prac.thisIndex,span_recall_prac.ran,key_resp_10.keys,key_resp_10.rt,key_resp_7.keys,key_resp_7.corr,key_resp_7.rt,repeat_if_wrong.thisRepN,repeat_if_wrong.thisTrialN,repeat_if_wrong.thisN,repeat_if_wrong.thisIndex,repeat_if_wrong.ran,span_size.thisRepN,span_size.thisTrialN,span_size.thisN,span_size.thisIndex,span_size.ran,complex_recall,key_resp_8.keys,key_resp_8.corr,key_resp_8.rt,complex_recall_corr,complex_recall_corrkeys,span_recall.thisRepN,span_recall.thisTrialN,span_recall.thisN,span_recall.thisIndex,span_recall.ran,key_resp_12.keys,key_resp_12.rt
space,27.0689,"[""comma""]",0,[1.178299999997023],0,0,0,0,1,602ad4a0805527185ca10247,24,Mężczyzna,2022-06-04_08h09.33.706,task,2021.1.4,Win32,60.1612321,628b806c463b948bc644b84f,629af6eb62b88c7e7755bf94,,,,,,,,,,,,,,,,,,,,,,,,,,,,,,,,,,,,,,,,,,,,,,,,,,,,,,,,,,,,,,,,,,,,,,,,,,,,,,,,,,,,,,,,,,,,,,,,,,,,,,,
,,"[""period""]",0,[1.4840000000000089],1,0,1,0,1,602ad4a0805527185ca10247,24,Mężczyzna,2022-06-04_08h09.33.706,task,2021.1.4,Win32,60.1612321,628b806c463b948bc644b84f,629af6eb62b88c7e7755bf94,,,,,,,,,,,,,,,,,,,,,,,,,,,,,,,,,,,,,,,,,,,,,,,,,,,,,,,,,,,,,,,,,,,,,,,,,,,,,,,,,,,,,,,,,,,,,,,,,,,,,,,
,,"[""period""]",0,[1.1917000000029816],2,0,2,0,1,602ad4a0805527185ca10247,24,Mężczyzna,2022-06-04_08h09.33.706,task,2021.1.4,Win32,60.1612321,628b806c463b948bc644b84f,629af6eb62b88c7e7755bf94,,,,,,,,,,,,,,,,,,,,,,,,,,,,,,,,,,,,,,,,,,,,,,,,,,,,,,,,,,,,,,,,,,,,,,,,,,,,,,,,,,,,,,,,,,,,,,,,,,,,,,,
,,"[""comma""]",0,[1.1197999999970136],3,0,3,0,1,602ad4a0805527185ca10247,24,Mężczyzna,2022-06-04_08h09.33.706,task,2021.1.4,Win32,60.1612321,628b806c463b948bc644b84f,629af6eb62b88c7e7755bf94,,,,,,,,,,,,,,,,,,,,,,,,,,,,,,,,,,,,,,,,,,,,,,,,,,,,,,,,,,,,,,,,,,,,,,,,,,,,,,,,,,,,,,,,,,,,,,,,,,,,,,,
,,"[""period""]",0,[1.2500999999940348],4,0,4,0,1,602ad4a0805527185ca10247,24,Mężczyzna,2022-06-04_08h09.33.706,task,2021.1.4,Win32,60.1612321,628b806c463b948bc644b84f,629af6eb62b88c7e7755bf94,,,,,,,,,,,,,,,,,,,,,,,,,,,,,,,,,,,,,,,,,,,,,,,,,,,,,,,,,,,,,,,,,,,,,,,,,,,,,,,,,,,,,,,,,,,,,,,,,,,,,,,
,,"[""comma""]",0,[1.1831000000015024],5,0,5,0,1,602ad4a0805527185ca10247,24,Mężczyzna,2022-06-04_08h09.33.706,task,2021.1.4,Win32,60.1612321,628b806c463b948bc644b84f,629af6eb62b88c7e7755bf94,,,,,,,,,,,,,,,,,,,,,,,,,,,,,,,,,,,,,,,,,,,,,,,,,,,,,,,,,,,,,,,,,,,,,,,,,,,,,,,,,,,,,,,,,,,,,,,,,,,,,,,
,,"[""period""]",0,[1.0833999999985053],6,0,6,0,1,602ad4a0805527185ca10247,24,Mężczyzna,2022-06-04_08h09.33.706,task,2021.1.4,Win32,60.1612321,628b806c463b948bc644b84f,629af6eb62b88c7e7755bf94,,,,,,,,,,,,,,,,,,,,,,,,,,,,,,,,,,,,,,,,,,,,,,,,,,,,,,,,,,,,,,,,,,,,,,,,,,,,,,,,,,,,,,,,,,,,,,,,,,,,,,,
,,"[""period""]",0,[1.0171000000015056],7,0,7,0,1,602ad4a0805527185ca10247,24,Mężczyzna,2022-06-04_08h09.33.706,task,2021.1.4,Win32,60.1612321,628b806c463b948bc644b84f,629af6eb62b88c7e7755bf94,,,,,,,,,,,,,,,,,,,,,,,,,,,,,,,,,,,,,,,,,,,,,,,,,,,,,,,,,,,,,,,,,,,,,,,,,,,,,,,,,,,,,,,,,,,,,,,,,,,,,,,
,,"[""period""]",0,[0.9892000000029384],8,0,8,0,1,602ad4a0805527185ca10247,24,Mężczyzna,2022-06-04_08h09.33.706,task,2021.1.4,Win32,60.1612321,628b806c463b948bc644b84f,629af6eb62b88c7e7755bf94,,,,,,,,,,,,,,,,,,,,,,,,,,,,,,,,,,,,,,,,,,,,,,,,,,,,,,,,,,,,,,,,,,,,,,,,,,,,,,,,,,,,,,,,,,,,,,,,,,,,,,,
,,"[""comma""]",0,[0.9711000000015133],9,0,9,0,1,602ad4a0805527185ca10247,24,Mężczyzna,2022-06-04_08h09.33.706,task,2021.1.4,Win32,60.1612321,628b806c463b948bc644b84f,629af6eb62b88c7e7755bf94,,,,,,,,,,,,,,,,,,,,,,,,,,,,,,,,,,,,,,,,,,,,,,,,,,,,,,,,,,,,,,,,,,,,,,,,,,,,,,,,,,,,,,,,,,,,,,,,,,,,,,,
,,"[""comma""]",0,[1.0194999999999936],10,0,10,0,1,602ad4a0805527185ca10247,24,Mężczyzna,2022-06-04_08h09.33.706,task,2021.1.4,Win32,60.1612321,628b806c463b948bc644b84f,629af6eb62b88c7e7755bf94,,,,,,,,,,,,,,,,,,,,,,,,,,,,,,,,,,,,,,,,,,,,,,,,,,,,,,,,,,,,,,,,,,,,,,,,,,,,,,,,,,,,,,,,,,,,,,,,,,,,,,,
,,"[""period""]",0,[1.1232999999970161],11,0,11,0,1,602ad4a0805527185ca10247,24,Mężczyzna,2022-06-04_08h09.33.706,task,2021.1.4,Win32,60.1612321,628b806c463b948bc644b84f,629af6eb62b88c7e7755bf94,,,,,,,,,,,,,,,,,,,,,,,,,,,,,,,,,,,,,,,,,,,,,,,,,,,,,,,,,,,,,,,,,,,,,,,,,,,,,,,,,,,,,,,,,,,,,,,,,,,,,,,
,,"[""comma""]",0,[0.9906000000014501],12,0,12,0,1,602ad4a0805527185ca10247,24,Mężczyzna,2022-06-04_08h09.33.706,task,2021.1.4,Win32,60.1612321,628b806c463b948bc644b84f,629af6eb62b88c7e7755bf94,,,,,,,,,,,,,,,,,,,,,,,,,,,,,,,,,,,,,,,,,,,,,,,,,,,,,,,,,,,,,,,,,,,,,,,,,,,,,,,,,,,,,,,,,,,,,,,,,,,,,,,
,,"[""period""]",0,[1.0071000000014578],13,0,13,0,1,602ad4a0805527185ca10247,24,Mężczyzna,2022-06-04_08h09.33.706,task,2021.1.4,Win32,60.1612321,628b806c463b948bc644b84f,629af6eb62b88c7e7755bf94,,,,,,,,,,,,,,,,,,,,,,,,,,,,,,,,,,,,,,,,,,,,,,,,,,,,,,,,,,,,,,,,,,,,,,,,,,,,,,,,,,,,,,,,,,,,,,,,,,,,,,,
,,"[""comma""]",0,[0.984899999998504],14,0,14,0,1,602ad4a0805527185ca10247,24,Mężczyzna,2022-06-04_08h09.33.706,task,2021.1.4,Win32,60.1612321,628b806c463b948bc644b84f,629af6eb62b88c7e7755bf94,,,,,,,,,,,,,,,,,,,,,,,,,,,,,,,,,,,,,,,,,,,,,,,,,,,,,,,,,,,,,,,,,,,,,,,,,,,,,,,,,,,,,,,,,,,,,,,,,,,,,,,
,,"[""comma""]",0,[1.008600000001536],15,0,15,0,1,602ad4a0805527185ca10247,24,Mężczyzna,2022-06-04_08h09.33.706,task,2021.1.4,Win32,60.1612321,628b806c463b948bc644b84f,629af6eb62b88c7e7755bf94,,,,,,,,,,,,,,,,,,,,,,,,,,,,,,,,,,,,,,,,,,,,,,,,,,,,,,,,,,,,,,,,,,,,,,,,,,,,,,,,,,,,,,,,,,,,,,,,,,,,,,,
,,"[""period""]",0,[0.9830000000000041],16,0,16,0,1,602ad4a0805527185ca10247,24,Mężczyzna,2022-06-04_08h09.33.706,task,2021.1.4,Win32,60.1612321,628b806c463b948bc644b84f,629af6eb62b88c7e7755bf94,,,,,,,,,,,,,,,,,,,,,,,,,,,,,,,,,,,,,,,,,,,,,,,,,,,,,,,,,,,,,,,,,,,,,,,,,,,,,,,,,,,,,,,,,,,,,,,,,,,,,,,
,,"[""comma""]",0,[1.0162999999970452],17,0,17,0,1,602ad4a0805527185ca10247,24,Mężczyzna,2022-06-04_08h09.33.706,task,2021.1.4,Win32,60.1612321,628b806c463b948bc644b84f,629af6eb62b88c7e7755bf94,,,,,,,,,,,,,,,,,,,,,,,,,,,,,,,,,,,,,,,,,,,,,,,,,,,,,,,,,,,,,,,,,,,,,,,,,,,,,,,,,,,,,,,,,,,,,,,,,,,,,,,
,,"[""comma""]",0,[0.9875000000000114],18,0,18,0,1,602ad4a0805527185ca10247,24,Mężczyzna,2022-06-04_08h09.33.706,task,2021.1.4,Win32,60.1612321,628b806c463b948bc644b84f,629af6eb62b88c7e7755bf94,,,,,,,,,,,,,,,,,,,,,,,,,,,,,,,,,,,,,,,,,,,,,,,,,,,,,,,,,,,,,,,,,,,,,,,,,,,,,,,,,,,,,,,,,,,,,,,,,,,,,,,
,,"[""comma""]",0,[0.9673999999985199],19,0,19,0,1,602ad4a0805527185ca10247,24,Mężczyzna,2022-06-04_08h09.33.706,task,2021.1.4,Win32,60.1612321,628b806c463b948bc644b84f,629af6eb62b88c7e7755bf94,,,,,,,,,,,,,,,,,,,,,,,,,,,,,,,,,,,,,,,,,,,,,,,,,,,,,,,,,,,,,,,,,,,,,,,,,,,,,,,,,,,,,,,,,,,,,,,,,,,,,,,
,,"[""comma""]",0,[0.9996999999955278],20,0,20,0,1,602ad4a0805527185ca10247,24,Mężczyzna,2022-06-04_08h09.33.706,task,2021.1.4,Win32,60.1612321,628b806c463b948bc644b84f,629af6eb62b88c7e7755bf94,,,,,,,,,,,,,,,,,,,,,,,,,,,,,,,,,,,,,,,,,,,,,,,,,,,,,,,,,,,,,,,,,,,,,,,,,,,,,,,,,,,,,,,,,,,,,,,,,,,,,,,
,,"[""period""]",0,[1.0332999999970411],21,0,21,0,1,602ad4a0805527185ca10247,24,Mężczyzna,2022-06-04_08h09.33.706,task,2021.1.4,Win32,60.1612321,628b806c463b948bc644b84f,629af6eb62b88c7e7755bf94,,,,,,,,,,,,,,,,,,,,,,,,,,,,,,,,,,,,,,,,,,,,,,,,,,,,,,,,,,,,,,,,,,,,,,,,,,,,,,,,,,,,,,,,,,,,,,,,,,,,,,,
,,"[""comma""]",0,[1.0231999999955406],22,0,22,0,1,602ad4a0805527185ca10247,24,Mężczyzna,2022-06-04_08h09.33.706,task,2021.1.4,Win32,60.1612321,628b806c463b948bc644b84f,629af6eb62b88c7e7755bf94,,,,,,,,,,,,,,,,,,,,,,,,,,,,,,,,,,,,,,,,,,,,,,,,,,,,,,,,,,,,,,,,,,,,,,,,,,,,,,,,,,,,,,,,,,,,,,,,,,,,,,,
,,"[""period""]",0,[1.0493999999985135],23,0,23,0,1,602ad4a0805527185ca10247,24,Mężczyzna,2022-06-04_08h09.33.706,task,2021.1.4,Win32,60.1612321,628b806c463b948bc644b84f,629af6eb62b88c7e7755bf94,,,,,,,,,,,,,,,,,,,,,,,,,,,,,,,,,,,,,,,,,,,,,,,,,,,,,,,,,,,,,,,,,,,,,,,,,,,,,,,,,,,,,,,,,,,,,,,,,,,,,,,
,,"[""period""]",0,[0.9897999999970466],24,0,24,0,1,602ad4a0805527185ca10247,24,Mężczyzna,2022-06-04_08h09.33.706,task,2021.1.4,Win32,60.1612321,628b806c463b948bc644b84f,629af6eb62b88c7e7755bf94,,,,,,,,,,,,,,,,,,,,,,,,,,,,,,,,,,,,,,,,,,,,,,,,,,,,,,,,,,,,,,,,,,,,,,,,,,,,,,,,,,,,,,,,,,,,,,,,,,,,,,,
,,"[""period""]",0,[1.033200000002978],25,0,25,0,1,602ad4a0805527185ca10247,24,Mężczyzna,2022-06-04_08h09.33.706,task,2021.1.4,Win32,60.1612321,628b806c463b948bc644b84f,629af6eb62b88c7e7755bf94,,,,,,,,,,,,,,,,,,,,,,,,,,,,,,,,,,,,,,,,,,,,,,,,,,,,,,,,,,,,,,,,,,,,,,,,,,,,,,,,,,,,,,,,,,,,,,,,,,,,,,,
,,"[""comma""]",0,[1.0673000000044794],26,0,26,0,1,602ad4a0805527185ca10247,24,Mężczyzna,2022-06-04_08h09.33.706,task,2021.1.4,Win32,60.1612321,628b806c463b948bc644b84f,629af6eb62b88c7e7755bf94,,,,,,,,,,,,,,,,,,,,,,,,,,,,,,,,,,,,,,,,,,,,,,,,,,,,,,,,,,,,,,,,,,,,,,,,,,,,,,,,,,,,,,,,,,,,,,,,,,,,,,,
,,"[""period""]",0,[1.0004999999999882],27,0,27,0,1,602ad4a0805527185ca10247,24,Mężczyzna,2022-06-04_08h09.33.706,task,2021.1.4,Win32,60.1612321,628b806c463b948bc644b84f,629af6eb62b88c7e7755bf94,,,,,,,,,,,,,,,,,,,,,,,,,,,,,,,,,,,,,,,,,,,,,,,,,,,,,,,,,,,,,,,,,,,,,,,,,,,,,,,,,,,,,,,,,,,,,,,,,,,,,,,
,,"[""comma""]",0,[1.008299999997007],28,0,28,0,1,602ad4a0805527185ca10247,24,Mężczyzna,2022-06-04_08h09.33.706,task,2021.1.4,Win32,60.1612321,628b806c463b948bc644b84f,629af6eb62b88c7e7755bf94,,,,,,,,,,,,,,,,,,,,,,,,,,,,,,,,,,,,,,,,,,,,,,,,,,,,,,,,,,,,,,,,,,,,,,,,,,,,,,,,,,,,,,,,,,,,,,,,,,,,,,,
,,"[""comma""]",0,[1.0488000000044622],29,0,29,0,1,602ad4a0805527185ca10247,24,Mężczyzna,2022-06-04_08h09.33.706,task,2021.1.4,Win32,60.1612321,628b806c463b948bc644b84f,629af6eb62b88c7e7755bf94,,,,,,,,,,,,,,,,,,,,,,,,,,,,,,,,,,,,,,,,,,,,,,,,,,,,,,,,,,,,,,,,,,,,,,,,,,,,,,,,,,,,,,,,,,,,,,,,,,,,,,,
,,"[""period""]",0,[1.0029000000059796],30,0,30,0,1,602ad4a0805527185ca10247,24,Mężczyzna,2022-06-04_08h09.33.706,task,2021.1.4,Win32,60.1612321,628b806c463b948bc644b84f,629af6eb62b88c7e7755bf94,,,,,,,,,,,,,,,,,,,,,,,,,,,,,,,,,,,,,,,,,,,,,,,,,,,,,,,,,,,,,,,,,,,,,,,,,,,,,,,,,,,,,,,,,,,,,,,,,,,,,,,
,,"[""comma""]",0,[0.9663999999985435],31,0,31,0,1,602ad4a0805527185ca10247,24,Mężczyzna,2022-06-04_08h09.33.706,task,2021.1.4,Win32,60.1612321,628b806c463b948bc644b84f,629af6eb62b88c7e7755bf94,,,,,,,,,,,,,,,,,,,,,,,,,,,,,,,,,,,,,,,,,,,,,,,,,,,,,,,,,,,,,,,,,,,,,,,,,,,,,,,,,,,,,,,,,,,,,,,,,,,,,,,
,,"[""comma""]",0,[1.0002000000030193],32,0,32,0,1,602ad4a0805527185ca10247,24,Mężczyzna,2022-06-04_08h09.33.706,task,2021.1.4,Win32,60.1612321,628b806c463b948bc644b84f,629af6eb62b88c7e7755bf94,,,,,,,,,,,,,,,,,,,,,,,,,,,,,,,,,,,,,,,,,,,,,,,,,,,,,,,,,,,,,,,,,,,,,,,,,,,,,,,,,,,,,,,,,,,,,,,,,,,,,,,
,,"[""comma""]",0,[0.9893000000044481],33,0,33,0,1,602ad4a0805527185ca10247,24,Mężczyzna,2022-06-04_08h09.33.706,task,2021.1.4,Win32,60.1612321,628b806c463b948bc644b84f,629af6eb62b88c7e7755bf94,,,,,,,,,,,,,,,,,,,,,,,,,,,,,,,,,,,,,,,,,,,,,,,,,,,,,,,,,,,,,,,,,,,,,,,,,,,,,,,,,,,,,,,,,,,,,,,,,,,,,,,
,,"[""period""]",0,[0.96640000000599],34,0,34,0,1,602ad4a0805527185ca10247,24,Mężczyzna,2022-06-04_08h09.33.706,task,2021.1.4,Win32,60.1612321,628b806c463b948bc644b84f,629af6eb62b88c7e7755bf94,,,,,,,,,,,,,,,,,,,,,,,,,,,,,,,,,,,,,,,,,,,,,,,,,,,,,,,,,,,,,,,,,,,,,,,,,,,,,,,,,,,,,,,,,,,,,,,,,,,,,,,
,,"[""comma""]",0,[0.9699000000059641],35,0,35,0,1,602ad4a0805527185ca10247,24,Mężczyzna,2022-06-04_08h09.33.706,task,2021.1.4,Win32,60.1612321,628b806c463b948bc644b84f,629af6eb62b88c7e7755bf94,,,,,,,,,,,,,,,,,,,,,,,,,,,,,,,,,,,,,,,,,,,,,,,,,,,,,,,,,,,,,,,,,,,,,,,,,,,,,,,,,,,,,,,,,,,,,,,,,,,,,,,
,,"[""period""]",0,[0.9663999999984867],36,0,36,0,1,602ad4a0805527185ca10247,24,Mężczyzna,2022-06-04_08h09.33.706,task,2021.1.4,Win32,60.1612321,628b806c463b948bc644b84f,629af6eb62b88c7e7755bf94,,,,,,,,,,,,,,,,,,,,,,,,,,,,,,,,,,,,,,,,,,,,,,,,,,,,,,,,,,,,,,,,,,,,,,,,,,,,,,,,,,,,,,,,,,,,,,,,,,,,,,,
,,"[""comma""]",0,[1.183399999998528],37,0,37,0,1,602ad4a0805527185ca10247,24,Mężczyzna,2022-06-04_08h09.33.706,task,2021.1.4,Win32,60.1612321,628b806c463b948bc644b84f,629af6eb62b88c7e7755bf94,,,,,,,,,,,,,,,,,,,,,,,,,,,,,,,,,,,,,,,,,,,,,,,,,,,,,,,,,,,,,,,,,,,,,,,,,,,,,,,,,,,,,,,,,,,,,,,,,,,,,,,
,,"[""comma""]",0,[1.0418000000044572],38,0,38,0,1,602ad4a0805527185ca10247,24,Mężczyzna,2022-06-04_08h09.33.706,task,2021.1.4,Win32,60.1612321,628b806c463b948bc644b84f,629af6eb62b88c7e7755bf94,,,,,,,,,,,,,,,,,,,,,,,,,,,,,,,,,,,,,,,,,,,,,,,,,,,,,,,,,,,,,,,,,,,,,,,,,,,,,,,,,,,,,,,,,,,,,,,,,,,,,,,
,,"[""period""]",0,[1.0563000000044553],39,0,39,0,1,602ad4a0805527185ca10247,24,Mężczyzna,2022-06-04_08h09.33.706,task,2021.1.4,Win32,60.1612321,628b806c463b948bc644b84f,629af6eb62b88c7e7755bf94,,,,,,,,,,,,,,,,,,,,,,,,,,,,,,,,,,,,,,,,,,,,,,,,,,,,,,,,,,,,,,,,,,,,,,,,,,,,,,,,,,,,,,,,,,,,,,,,,,,,,,,
,,"[""comma""]",0,[1.0871000000014988],40,0,40,0,1,602ad4a0805527185ca10247,24,Mężczyzna,2022-06-04_08h09.33.706,task,2021.1.4,Win32,60.1612321,628b806c463b948bc644b84f,629af6eb62b88c7e7755bf94,,,,,,,,,,,,,,,,,,,,,,,,,,,,,,,,,,,,,,,,,,,,,,,,,,,,,,,,,,,,,,,,,,,,,,,,,,,,,,,,,,,,,,,,,,,,,,,,,,,,,,,
,,"[""period""]",0,[0.9662999999970339],41,0,41,0,1,602ad4a0805527185ca10247,24,Mężczyzna,2022-06-04_08h09.33.706,task,2021.1.4,Win32,60.1612321,628b806c463b948bc644b84f,629af6eb62b88c7e7755bf94,,,,,,,,,,,,,,,,,,,,,,,,,,,,,,,,,,,,,,,,,,,,,,,,,,,,,,,,,,,,,,,,,,,,,,,,,,,,,,,,,,,,,,,,,,,,,,,,,,,,,,,
,,"[""comma""]",0,[1.0506000000015092],42,0,42,0,1,602ad4a0805527185ca10247,24,Mężczyzna,2022-06-04_08h09.33.706,task,2021.1.4,Win32,60.1612321,628b806c463b948bc644b84f,629af6eb62b88c7e7755bf94,,,,,,,,,,,,,,,,,,,,,,,,,,,,,,,,,,,,,,,,,,,,,,,,,,,,,,,,,,,,,,,,,,,,,,,,,,,,,,,,,,,,,,,,,,,,,,,,,,,,,,,
,,"[""period""]",0,[1.0825000000000387],43,0,43,0,1,602ad4a0805527185ca10247,24,Mężczyzna,2022-06-04_08h09.33.706,task,2021.1.4,Win32,60.1612321,628b806c463b948bc644b84f,629af6eb62b88c7e7755bf94,,,,,,,,,,,,,,,,,,,,,,,,,,,,,,,,,,,,,,,,,,,,,,,,,,,,,,,,,,,,,,,,,,,,,,,,,,,,,,,,,,,,,,,,,,,,,,,,,,,,,,,
,,"[""period""]",0,[0.9669999999999845],44,0,44,0,1,602ad4a0805527185ca10247,24,Mężczyzna,2022-06-04_08h09.33.706,task,2021.1.4,Win32,60.1612321,628b806c463b948bc644b84f,629af6eb62b88c7e7755bf94,,,,,,,,,,,,,,,,,,,,,,,,,,,,,,,,,,,,,,,,,,,,,,,,,,,,,,,,,,,,,,,,,,,,,,,,,,,,,,,,,,,,,,,,,,,,,,,,,,,,,,,
,,"[""comma""]",0,[0.8696000000014692],45,0,45,0,1,602ad4a0805527185ca10247,24,Mężczyzna,2022-06-04_08h09.33.706,task,2021.1.4,Win32,60.1612321,628b806c463b948bc644b84f,629af6eb62b88c7e7755bf94,,,,,,,,,,,,,,,,,,,,,,,,,,,,,,,,,,,,,,,,,,,,,,,,,,,,,,,,,,,,,,,,,,,,,,,,,,,,,,,,,,,,,,,,,,,,,,,,,,,,,,,
,,"[""period""]",0,[1.0083999999985167],46,0,46,0,1,602ad4a0805527185ca10247,24,Mężczyzna,2022-06-04_08h09.33.706,task,2021.1.4,Win32,60.1612321,628b806c463b948bc644b84f,629af6eb62b88c7e7755bf94,,,,,,,,,,,,,,,,,,,,,,,,,,,,,,,,,,,,,,,,,,,,,,,,,,,,,,,,,,,,,,,,,,,,,,,,,,,,,,,,,,,,,,,,,,,,,,,,,,,,,,,
,,"[""comma""]",0,[1.0337000000029661],47,0,47,0,1,602ad4a0805527185ca10247,24,Mężczyzna,2022-06-04_08h09.33.706,task,2021.1.4,Win32,60.1612321,628b806c463b948bc644b84f,629af6eb62b88c7e7755bf94,,,,,,,,,,,,,,,,,,,,,,,,,,,,,,,,,,,,,,,,,,,,,,,,,,,,,,,,,,,,,,,,,,,,,,,,,,,,,,,,,,,,,,,,,,,,,,,,,,,,,,,
,,"[""comma""]",0,[1.0518999999985112],48,0,48,0,1,602ad4a0805527185ca10247,24,Mężczyzna,2022-06-04_08h09.33.706,task,2021.1.4,Win32,60.1612321,628b806c463b948bc644b84f,629af6eb62b88c7e7755bf94,,,,,,,,,,,,,,,,,,,,,,,,,,,,,,,,,,,,,,,,,,,,,,,,,,,,,,,,,,,,,,,,,,,,,,,,,,,,,,,,,,,,,,,,,,,,,,,,,,,,,,,
,,"[""period""]",0,[0.9825999999940223],49,0,49,0,1,602ad4a0805527185ca10247,24,Mężczyzna,2022-06-04_08h09.33.706,task,2021.1.4,Win32,60.1612321,628b806c463b948bc644b84f,629af6eb62b88c7e7755bf94,,,,,,,,,,,,,,,,,,,,,,,,,,,,,,,,,,,,,,,,,,,,,,,,,,,,,,,,,,,,,,,,,,,,,,,,,,,,,,,,,,,,,,,,,,,,,,,,,,,,,,,
,,"[""comma""]",0,[0.9986999999955515],50,0,50,0,1,602ad4a0805527185ca10247,24,Mężczyzna,2022-06-04_08h09.33.706,task,2021.1.4,Win32,60.1612321,628b806c463b948bc644b84f,629af6eb62b88c7e7755bf94,,,,,,,,,,,,,,,,,,,,,,,,,,,,,,,,,,,,,,,,,,,,,,,,,,,,,,,,,,,,,,,,,,,,,,,,,,,,,,,,,,,,,,,,,,,,,,,,,,,,,,,
,,"[""period""]",0,[0.9673000000044567],51,0,51,0,1,602ad4a0805527185ca10247,24,Mężczyzna,2022-06-04_08h09.33.706,task,2021.1.4,Win32,60.1612321,628b806c463b948bc644b84f,629af6eb62b88c7e7755bf94,,,,,,,,,,,,,,,,,,,,,,,,,,,,,,,,,,,,,,,,,,,,,,,,,,,,,,,,,,,,,,,,,,,,,,,,,,,,,,,,,,,,,,,,,,,,,,,,,,,,,,,
,,"[""comma""]",0,[1.0151999999955024],52,0,52,0,1,602ad4a0805527185ca10247,24,Mężczyzna,2022-06-04_08h09.33.706,task,2021.1.4,Win32,60.1612321,628b806c463b948bc644b84f,629af6eb62b88c7e7755bf94,,,,,,,,,,,,,,,,,,,,,,,,,,,,,,,,,,,,,,,,,,,,,,,,,,,,,,,,,,,,,,,,,,,,,,,,,,,,,,,,,,,,,,,,,,,,,,,,,,,,,,,
,,"[""period""]",0,[0.92349999999999],53,0,53,0,1,602ad4a0805527185ca10247,24,Mężczyzna,2022-06-04_08h09.33.706,task,2021.1.4,Win32,60.1612321,628b806c463b948bc644b84f,629af6eb62b88c7e7755bf94,,,,,,,,,,,,,,,,,,,,,,,,,,,,,,,,,,,,,,,,,,,,,,,,,,,,,,,,,,,,,,,,,,,,,,,,,,,,,,,,,,,,,,,,,,,,,,,,,,,,,,,
,,"[""comma""]",0,[1.0679999999999836],54,0,54,0,1,602ad4a0805527185ca10247,24,Mężczyzna,2022-06-04_08h09.33.706,task,2021.1.4,Win32,60.1612321,628b806c463b948bc644b84f,629af6eb62b88c7e7755bf94,,,,,,,,,,,,,,,,,,,,,,,,,,,,,,,,,,,,,,,,,,,,,,,,,,,,,,,,,,,,,,,,,,,,,,,,,,,,,,,,,,,,,,,,,,,,,,,,,,,,,,,
,,"[""comma""]",0,[1.0095000000000027],55,0,55,0,1,602ad4a0805527185ca10247,24,Mężczyzna,2022-06-04_08h09.33.706,task,2021.1.4,Win32,60.1612321,628b806c463b948bc644b84f,629af6eb62b88c7e7755bf94,,,,,,,,,,,,,,,,,,,,,,,,,,,,,,,,,,,,,,,,,,,,,,,,,,,,,,,,,,,,,,,,,,,,,,,,,,,,,,,,,,,,,,,,,,,,,,,,,,,,,,,
,,"[""comma""]",0,[1.033399999998494],56,0,56,0,1,602ad4a0805527185ca10247,24,Mężczyzna,2022-06-04_08h09.33.706,task,2021.1.4,Win32,60.1612321,628b806c463b948bc644b84f,629af6eb62b88c7e7755bf94,,,,,,,,,,,,,,,,,,,,,,,,,,,,,,,,,,,,,,,,,,,,,,,,,,,,,,,,,,,,,,,,,,,,,,,,,,,,,,,,,,,,,,,,,,,,,,,,,,,,,,,
,,"[""period""]",0,[0.9998999999985472],57,0,57,0,1,602ad4a0805527185ca10247,24,Mężczyzna,2022-06-04_08h09.33.706,task,2021.1.4,Win32,60.1612321,628b806c463b948bc644b84f,629af6eb62b88c7e7755bf94,,,,,,,,,,,,,,,,,,,,,,,,,,,,,,,,,,,,,,,,,,,,,,,,,,,,,,,,,,,,,,,,,,,,,,,,,,,,,,,,,,,,,,,,,,,,,,,,,,,,,,,
,,"[""comma""]",0,[0.9830000000000041],58,0,58,0,1,602ad4a0805527185ca10247,24,Mężczyzna,2022-06-04_08h09.33.706,task,2021.1.4,Win32,60.1612321,628b806c463b948bc644b84f,629af6eb62b88c7e7755bf94,,,,,,,,,,,,,,,,,,,,,,,,,,,,,,,,,,,,,,,,,,,,,,,,,,,,,,,,,,,,,,,,,,,,,,,,,,,,,,,,,,,,,,,,,,,,,,,,,,,,,,,
,,"[""comma""]",0,[0.9383000000044603],59,0,59,0,1,602ad4a0805527185ca10247,24,Mężczyzna,2022-06-04_08h09.33.706,task,2021.1.4,Win32,60.1612321,628b806c463b948bc644b84f,629af6eb62b88c7e7755bf94,,,,,,,,,,,,,,,,,,,,,,,,,,,,,,,,,,,,,,,,,,,,,,,,,,,,,,,,,,,,,,,,,,,,,,,,,,,,,,,,,,,,,,,,,,,,,,,,,,,,,,,
,,"[""comma""]",0,[0.9822000000029334],60,0,60,0,1,602ad4a0805527185ca10247,24,Mężczyzna,2022-06-04_08h09.33.706,task,2021.1.4,Win32,60.1612321,628b806c463b948bc644b84f,629af6eb62b88c7e7755bf94,,,,,,,,,,,,,,,,,,,,,,,,,,,,,,,,,,,,,,,,,,,,,,,,,,,,,,,,,,,,,,,,,,,,,,,,,,,,,,,,,,,,,,,,,,,,,,,,,,,,,,,
,,"[""comma""]",0,[1.0006999999955042],61,0,61,0,1,602ad4a0805527185ca10247,24,Mężczyzna,2022-06-04_08h09.33.706,task,2021.1.4,Win32,60.1612321,628b806c463b948bc644b84f,629af6eb62b88c7e7755bf94,,,,,,,,,,,,,,,,,,,,,,,,,,,,,,,,,,,,,,,,,,,,,,,,,,,,,,,,,,,,,,,,,,,,,,,,,,,,,,,,,,,,,,,,,,,,,,,,,,,,,,,
,,"[""period""]",0,[0.999499999999955],62,0,62,0,1,602ad4a0805527185ca10247,24,Mężczyzna,2022-06-04_08h09.33.706,task,2021.1.4,Win32,60.1612321,628b806c463b948bc644b84f,629af6eb62b88c7e7755bf94,,,,,,,,,,,,,,,,,,,,,,,,,,,,,,,,,,,,,,,,,,,,,,,,,,,,,,,,,,,,,,,,,,,,,,,,,,,,,,,,,,,,,,,,,,,,,,,,,,,,,,,
,,"[""period""]",0,[1.0166000000015174],63,0,63,0,1,602ad4a0805527185ca10247,24,Mężczyzna,2022-06-04_08h09.33.706,task,2021.1.4,Win32,60.1612321,628b806c463b948bc644b84f,629af6eb62b88c7e7755bf94,,,,,,,,,,,,,,,,,,,,,,,,,,,,,,,,,,,,,,,,,,,,,,,,,,,,,,,,,,,,,,,,,,,,,,,,,,,,,,,,,,,,,,,,,,,,,,,,,,,,,,,
,,"[""comma""]",0,[1.0171000000014487],64,0,64,0,1,602ad4a0805527185ca10247,24,Mężczyzna,2022-06-04_08h09.33.706,task,2021.1.4,Win32,60.1612321,628b806c463b948bc644b84f,629af6eb62b88c7e7755bf94,,,,,,,,,,,,,,,,,,,,,,,,,,,,,,,,,,,,,,,,,,,,,,,,,,,,,,,,,,,,,,,,,,,,,,,,,,,,,,,,,,,,,,,,,,,,,,,,,,,,,,,
,,"[""period""]",0,[0.8330999999940332],65,0,65,0,1,602ad4a0805527185ca10247,24,Mężczyzna,2022-06-04_08h09.33.706,task,2021.1.4,Win32,60.1612321,628b806c463b948bc644b84f,629af6eb62b88c7e7755bf94,,,,,,,,,,,,,,,,,,,,,,,,,,,,,,,,,,,,,,,,,,,,,,,,,,,,,,,,,,,,,,,,,,,,,,,,,,,,,,,,,,,,,,,,,,,,,,,,,,,,,,,
,,"[""period""]",0,[1.0751000000014983],66,0,66,0,1,602ad4a0805527185ca10247,24,Mężczyzna,2022-06-04_08h09.33.706,task,2021.1.4,Win32,60.1612321,628b806c463b948bc644b84f,629af6eb62b88c7e7755bf94,,,,,,,,,,,,,,,,,,,,,,,,,,,,,,,,,,,,,,,,,,,,,,,,,,,,,,,,,,,,,,,,,,,,,,,,,,,,,,,,,,,,,,,,,,,,,,,,,,,,,,,
,,"[""comma""]",0,[1.0336000000015133],67,0,67,0,1,602ad4a0805527185ca10247,24,Mężczyzna,2022-06-04_08h09.33.706,task,2021.1.4,Win32,60.1612321,628b806c463b948bc644b84f,629af6eb62b88c7e7755bf94,,,,,,,,,,,,,,,,,,,,,,,,,,,,,,,,,,,,,,,,,,,,,,,,,,,,,,,,,,,,,,,,,,,,,,,,,,,,,,,,,,,,,,,,,,,,,,,,,,,,,,,
,,"[""period""]",0,[1.0161999999955356],68,0,68,0,1,602ad4a0805527185ca10247,24,Mężczyzna,2022-06-04_08h09.33.706,task,2021.1.4,Win32,60.1612321,628b806c463b948bc644b84f,629af6eb62b88c7e7755bf94,,,,,,,,,,,,,,,,,,,,,,,,,,,,,,,,,,,,,,,,,,,,,,,,,,,,,,,,,,,,,,,,,,,,,,,,,,,,,,,,,,,,,,,,,,,,,,,,,,,,,,,
,,"[""comma""]",0,[0.9827999999969848],69,0,69,0,1,602ad4a0805527185ca10247,24,Mężczyzna,2022-06-04_08h09.33.706,task,2021.1.4,Win32,60.1612321,628b806c463b948bc644b84f,629af6eb62b88c7e7755bf94,,,,,,,,,,,,,,,,,,,,,,,,,,,,,,,,,,,,,,,,,,,,,,,,,,,,,,,,,,,,,,,,,,,,,,,,,,,,,,,,,,,,,,,,,,,,,,,,,,,,,,,
,,"[""comma""]",0,[0.9868999999985135],70,0,70,0,1,602ad4a0805527185ca10247,24,Mężczyzna,2022-06-04_08h09.33.706,task,2021.1.4,Win32,60.1612321,628b806c463b948bc644b84f,629af6eb62b88c7e7755bf94,,,,,,,,,,,,,,,,,,,,,,,,,,,,,,,,,,,,,,,,,,,,,,,,,,,,,,,,,,,,,,,,,,,,,,,,,,,,,,,,,,,,,,,,,,,,,,,,,,,,,,,
,,"[""comma""]",0,[1.066600000001472],71,0,71,0,1,602ad4a0805527185ca10247,24,Mężczyzna,2022-06-04_08h09.33.706,task,2021.1.4,Win32,60.1612321,628b806c463b948bc644b84f,629af6eb62b88c7e7755bf94,,,,,,,,,,,,,,,,,,,,,,,,,,,,,,,,,,,,,,,,,,,,,,,,,,,,,,,,,,,,,,,,,,,,,,,,,,,,,,,,,,,,,,,,,,,,,,,,,,,,,,,
,,"[""period""]",0,[1.0213999999984935],72,0,72,0,1,602ad4a0805527185ca10247,24,Mężczyzna,2022-06-04_08h09.33.706,task,2021.1.4,Win32,60.1612321,628b806c463b948bc644b84f,629af6eb62b88c7e7755bf94,,,,,,,,,,,,,,,,,,,,,,,,,,,,,,,,,,,,,,,,,,,,,,,,,,,,,,,,,,,,,,,,,,,,,,,,,,,,,,,,,,,,,,,,,,,,,,,,,,,,,,,
,,"[""comma""]",0,[0.9162999999970225],73,0,73,0,1,602ad4a0805527185ca10247,24,Mężczyzna,2022-06-04_08h09.33.706,task,2021.1.4,Win32,60.1612321,628b806c463b948bc644b84f,629af6eb62b88c7e7755bf94,,,,,,,,,,,,,,,,,,,,,,,,,,,,,,,,,,,,,,,,,,,,,,,,,,,,,,,,,,,,,,,,,,,,,,,,,,,,,,,,,,,,,,,,,,,,,,,,,,,,,,,
,,"[""period""]",0,[0.9016999999955715],74,0,74,0,1,602ad4a0805527185ca10247,24,Mężczyzna,2022-06-04_08h09.33.706,task,2021.1.4,Win32,60.1612321,628b806c463b948bc644b84f,629af6eb62b88c7e7755bf94,,,,,,,,,,,,,,,,,,,,,,,,,,,,,,,,,,,,,,,,,,,,,,,,,,,,,,,,,,,,,,,,,,,,,,,,,,,,,,,,,,,,,,,,,,,,,,,,,,,,,,,
,,"[""comma""]",0,[1.1656000000014615],75,0,75,0,1,602ad4a0805527185ca10247,24,Mężczyzna,2022-06-04_08h09.33.706,task,2021.1.4,Win32,60.1612321,628b806c463b948bc644b84f,629af6eb62b88c7e7755bf94,,,,,,,,,,,,,,,,,,,,,,,,,,,,,,,,,,,,,,,,,,,,,,,,,,,,,,,,,,,,,,,,,,,,,,,,,,,,,,,,,,,,,,,,,,,,,,,,,,,,,,,
,,"[""period""]",0,[1.0332999999970411],76,0,76,0,1,602ad4a0805527185ca10247,24,Mężczyzna,2022-06-04_08h09.33.706,task,2021.1.4,Win32,60.1612321,628b806c463b948bc644b84f,629af6eb62b88c7e7755bf94,,,,,,,,,,,,,,,,,,,,,,,,,,,,,,,,,,,,,,,,,,,,,,,,,,,,,,,,,,,,,,,,,,,,,,,,,,,,,,,,,,,,,,,,,,,,,,,,,,,,,,,
,,"[""period""]",0,[1.0082000000030007],77,0,77,0,1,602ad4a0805527185ca10247,24,Mężczyzna,2022-06-04_08h09.33.706,task,2021.1.4,Win32,60.1612321,628b806c463b948bc644b84f,629af6eb62b88c7e7755bf94,,,,,,,,,,,,,,,,,,,,,,,,,,,,,,,,,,,,,,,,,,,,,,,,,,,,,,,,,,,,,,,,,,,,,,,,,,,,,,,,,,,,,,,,,,,,,,,,,,,,,,,
,,"[""comma""]",0,[0.8922000000029584],78,0,78,0,1,602ad4a0805527185ca10247,24,Mężczyzna,2022-06-04_08h09.33.706,task,2021.1.4,Win32,60.1612321,628b806c463b948bc644b84f,629af6eb62b88c7e7755bf94,,,,,,,,,,,,,,,,,,,,,,,,,,,,,,,,,,,,,,,,,,,,,,,,,,,,,,,,,,,,,,,,,,,,,,,,,,,,,,,,,,,,,,,,,,,,,,,,,,,,,,,
,,"[""comma""]",0,[1.0433000000044785],79,0,79,0,1,602ad4a0805527185ca10247,24,Mężczyzna,2022-06-04_08h09.33.706,task,2021.1.4,Win32,60.1612321,628b806c463b948bc644b84f,629af6eb62b88c7e7755bf94,,,,,,,,,,,,,,,,,,,,,,,,,,,,,,,,,,,,,,,,,,,,,,,,,,,,,,,,,,,,,,,,,,,,,,,,,,,,,,,,,,,,,,,,,,,,,,,,,,,,,,,
,,"[""period""]",0,[1.12039999999854],80,0,80,0,1,602ad4a0805527185ca10247,24,Mężczyzna,2022-06-04_08h09.33.706,task,2021.1.4,Win32,60.1612321,628b806c463b948bc644b84f,629af6eb62b88c7e7755bf94,,,,,,,,,,,,,,,,,,,,,,,,,,,,,,,,,,,,,,,,,,,,,,,,,,,,,,,,,,,,,,,,,,,,,,,,,,,,,,,,,,,,,,,,,,,,,,,,,,,,,,,
,,"[""comma""]",0,[1.0226000000014892],81,0,81,0,1,602ad4a0805527185ca10247,24,Mężczyzna,2022-06-04_08h09.33.706,task,2021.1.4,Win32,60.1612321,628b806c463b948bc644b84f,629af6eb62b88c7e7755bf94,,,,,,,,,,,,,,,,,,,,,,,,,,,,,,,,,,,,,,,,,,,,,,,,,,,,,,,,,,,,,,,,,,,,,,,,,,,,,,,,,,,,,,,,,,,,,,,,,,,,,,,
,,"[""comma""]",0,[1.0559999999999832],82,0,82,0,1,602ad4a0805527185ca10247,24,Mężczyzna,2022-06-04_08h09.33.706,task,2021.1.4,Win32,60.1612321,628b806c463b948bc644b84f,629af6eb62b88c7e7755bf94,,,,,,,,,,,,,,,,,,,,,,,,,,,,,,,,,,,,,,,,,,,,,,,,,,,,,,,,,,,,,,,,,,,,,,,,,,,,,,,,,,,,,,,,,,,,,,,,,,,,,,,
,,"[""period""]",0,[1.1062999999970202],83,0,83,0,1,602ad4a0805527185ca10247,24,Mężczyzna,2022-06-04_08h09.33.706,task,2021.1.4,Win32,60.1612321,628b806c463b948bc644b84f,629af6eb62b88c7e7755bf94,,,,,,,,,,,,,,,,,,,,,,,,,,,,,,,,,,,,,,,,,,,,,,,,,,,,,,,,,,,,,,,,,,,,,,,,,,,,,,,,,,,,,,,,,,,,,,,,,,,,,,,
,,"[""comma""]",0,[1.019700000003013],84,0,84,0,1,602ad4a0805527185ca10247,24,Mężczyzna,2022-06-04_08h09.33.706,task,2021.1.4,Win32,60.1612321,628b806c463b948bc644b84f,629af6eb62b88c7e7755bf94,,,,,,,,,,,,,,,,,,,,,,,,,,,,,,,,,,,,,,,,,,,,,,,,,,,,,,,,,,,,,,,,,,,,,,,,,,,,,,,,,,,,,,,,,,,,,,,,,,,,,,,
,,"[""period""]",0,[1.0742000000029748],85,0,85,0,1,602ad4a0805527185ca10247,24,Mężczyzna,2022-06-04_08h09.33.706,task,2021.1.4,Win32,60.1612321,628b806c463b948bc644b84f,629af6eb62b88c7e7755bf94,,,,,,,,,,,,,,,,,,,,,,,,,,,,,,,,,,,,,,,,,,,,,,,,,,,,,,,,,,,,,,,,,,,,,,,,,,,,,,,,,,,,,,,,,,,,,,,,,,,,,,,
,,"[""period""]",0,[1.021900000005985],86,0,86,0,1,602ad4a0805527185ca10247,24,Mężczyzna,2022-06-04_08h09.33.706,task,2021.1.4,Win32,60.1612321,628b806c463b948bc644b84f,629af6eb62b88c7e7755bf94,,,,,,,,,,,,,,,,,,,,,,,,,,,,,,,,,,,,,,,,,,,,,,,,,,,,,,,,,,,,,,,,,,,,,,,,,,,,,,,,,,,,,,,,,,,,,,,,,,,,,,,
,,"[""period""]",0,[0.9714999999999918],87,0,87,0,1,602ad4a0805527185ca10247,24,Mężczyzna,2022-06-04_08h09.33.706,task,2021.1.4,Win32,60.1612321,628b806c463b948bc644b84f,629af6eb62b88c7e7755bf94,,,,,,,,,,,,,,,,,,,,,,,,,,,,,,,,,,,,,,,,,,,,,,,,,,,,,,,,,,,,,,,,,,,,,,,,,,,,,,,,,,,,,,,,,,,,,,,,,,,,,,,
,,"[""comma""]",0,[1.0033999999985213],88,0,88,0,1,602ad4a0805527185ca10247,24,Mężczyzna,2022-06-04_08h09.33.706,task,2021.1.4,Win32,60.1612321,628b806c463b948bc644b84f,629af6eb62b88c7e7755bf94,,,,,,,,,,,,,,,,,,,,,,,,,,,,,,,,,,,,,,,,,,,,,,,,,,,,,,,,,,,,,,,,,,,,,,,,,,,,,,,,,,,,,,,,,,,,,,,,,,,,,,,
,,"[""period""]",0,[1.0428999999985535],89,0,89,0,1,602ad4a0805527185ca10247,24,Mężczyzna,2022-06-04_08h09.33.706,task,2021.1.4,Win32,60.1612321,628b806c463b948bc644b84f,629af6eb62b88c7e7755bf94,,,,,,,,,,,,,,,,,,,,,,,,,,,,,,,,,,,,,,,,,,,,,,,,,,,,,,,,,,,,,,,,,,,,,,,,,,,,,,,,,,,,,,,,,,,,,,,,,,,,,,,
,,"[""comma""]",0,[1.083500000000015],90,0,90,0,1,602ad4a0805527185ca10247,24,Mężczyzna,2022-06-04_08h09.33.706,task,2021.1.4,Win32,60.1612321,628b806c463b948bc644b84f,629af6eb62b88c7e7755bf94,,,,,,,,,,,,,,,,,,,,,,,,,,,,,,,,,,,,,,,,,,,,,,,,,,,,,,,,,,,,,,,,,,,,,,,,,,,,,,,,,,,,,,,,,,,,,,,,,,,,,,,
,,"[""period""]",0,[0.9909999999999854],91,0,91,0,1,602ad4a0805527185ca10247,24,Mężczyzna,2022-06-04_08h09.33.706,task,2021.1.4,Win32,60.1612321,628b806c463b948bc644b84f,629af6eb62b88c7e7755bf94,,,,,,,,,,,,,,,,,,,,,,,,,,,,,,,,,,,,,,,,,,,,,,,,,,,,,,,,,,,,,,,,,,,,,,,,,,,,,,,,,,,,,,,,,,,,,,,,,,,,,,,
,,"[""comma""]",0,[0.9862999999970157],92,0,92,0,1,602ad4a0805527185ca10247,24,Mężczyzna,2022-06-04_08h09.33.706,task,2021.1.4,Win32,60.1612321,628b806c463b948bc644b84f,629af6eb62b88c7e7755bf94,,,,,,,,,,,,,,,,,,,,,,,,,,,,,,,,,,,,,,,,,,,,,,,,,,,,,,,,,,,,,,,,,,,,,,,,,,,,,,,,,,,,,,,,,,,,,,,,,,,,,,,
,,"[""period""]",0,[1.019700000003013],93,0,93,0,1,602ad4a0805527185ca10247,24,Mężczyzna,2022-06-04_08h09.33.706,task,2021.1.4,Win32,60.1612321,628b806c463b948bc644b84f,629af6eb62b88c7e7755bf94,,,,,,,,,,,,,,,,,,,,,,,,,,,,,,,,,,,,,,,,,,,,,,,,,,,,,,,,,,,,,,,,,,,,,,,,,,,,,,,,,,,,,,,,,,,,,,,,,,,,,,,
,,"[""comma""]",0,[1.0727000000030102],94,0,94,0,1,602ad4a0805527185ca10247,24,Mężczyzna,2022-06-04_08h09.33.706,task,2021.1.4,Win32,60.1612321,628b806c463b948bc644b84f,629af6eb62b88c7e7755bf94,,,,,,,,,,,,,,,,,,,,,,,,,,,,,,,,,,,,,,,,,,,,,,,,,,,,,,,,,,,,,,,,,,,,,,,,,,,,,,,,,,,,,,,,,,,,,,,,,,,,,,,
,,"[""comma""]",0,[1.0703999999985285],95,0,95,0,1,602ad4a0805527185ca10247,24,Mężczyzna,2022-06-04_08h09.33.706,task,2021.1.4,Win32,60.1612321,628b806c463b948bc644b84f,629af6eb62b88c7e7755bf94,,,,,,,,,,,,,,,,,,,,,,,,,,,,,,,,,,,,,,,,,,,,,,,,,,,,,,,,,,,,,,,,,,,,,,,,,,,,,,,,,,,,,,,,,,,,,,,,,,,,,,,
,,"[""period""]",0,[1.1522000000029493],96,0,96,0,1,602ad4a0805527185ca10247,24,Mężczyzna,2022-06-04_08h09.33.706,task,2021.1.4,Win32,60.1612321,628b806c463b948bc644b84f,629af6eb62b88c7e7755bf94,,,,,,,,,,,,,,,,,,,,,,,,,,,,,,,,,,,,,,,,,,,,,,,,,,,,,,,,,,,,,,,,,,,,,,,,,,,,,,,,,,,,,,,,,,,,,,,,,,,,,,,
,,"[""comma""]",0,[1.0001000000015097],97,0,97,0,1,602ad4a0805527185ca10247,24,Mężczyzna,2022-06-04_08h09.33.706,task,2021.1.4,Win32,60.1612321,628b806c463b948bc644b84f,629af6eb62b88c7e7755bf94,,,,,,,,,,,,,,,,,,,,,,,,,,,,,,,,,,,,,,,,,,,,,,,,,,,,,,,,,,,,,,,,,,,,,,,,,,,,,,,,,,,,,,,,,,,,,,,,,,,,,,,
,,"[""comma""]",0,[1.0330999999940218],98,0,98,0,1,602ad4a0805527185ca10247,24,Mężczyzna,2022-06-04_08h09.33.706,task,2021.1.4,Win32,60.1612321,628b806c463b948bc644b84f,629af6eb62b88c7e7755bf94,,,,,,,,,,,,,,,,,,,,,,,,,,,,,,,,,,,,,,,,,,,,,,,,,,,,,,,,,,,,,,,,,,,,,,,,,,,,,,,,,,,,,,,,,,,,,,,,,,,,,,,
,,"[""period""]",0,[1.0057000000029461],99,0,99,0,1,602ad4a0805527185ca10247,24,Mężczyzna,2022-06-04_08h09.33.706,task,2021.1.4,Win32,60.1612321,628b806c463b948bc644b84f,629af6eb62b88c7e7755bf94,,,,,,,,,,,,,,,,,,,,,,,,,,,,,,,,,,,,,,,,,,,,,,,,,,,,,,,,,,,,,,,,,,,,,,,,,,,,,,,,,,,,,,,,,,,,,,,,,,,,,,,
,,"[""comma""]",0,[0.9995000000000118],100,0,100,0,1,602ad4a0805527185ca10247,24,Mężczyzna,2022-06-04_08h09.33.706,task,2021.1.4,Win32,60.1612321,628b806c463b948bc644b84f,629af6eb62b88c7e7755bf94,,,,,,,,,,,,,,,,,,,,,,,,,,,,,,,,,,,,,,,,,,,,,,,,,,,,,,,,,,,,,,,,,,,,,,,,,,,,,,,,,,,,,,,,,,,,,,,,,,,,,,,
,,,0,,101,0,101,0,1,602ad4a0805527185ca10247,24,Mężczyzna,2022-06-04_08h09.33.706,task,2021.1.4,Win32,60.1612321,628b806c463b948bc644b84f,629af6eb62b88c7e7755bf94,,,,,,,,,,,,,,,,,,,,,,,,,,,,,,,,,,,,,,,,,,,,,,,,,,,,,,,,,,,,,,,,,,,,,,,,,,,,,,,,,,,,,,,,,,,,,,,,,,,,,,,
,,"[""comma"",""period""]",0,"[0.3093999999985044,1.4502999999970143]",102,0,102,0,1,602ad4a0805527185ca10247,24,Mężczyzna,2022-06-04_08h09.33.706,task,2021.1.4,Win32,60.1612321,628b806c463b948bc644b84f,629af6eb62b88c7e7755bf94,,,,,,,,,,,,,,,,,,,,,,,,,,,,,,,,,,,,,,,,,,,,,,,,,,,,,,,,,,,,,,,,,,,,,,,,,,,,,,,,,,,,,,,,,,,,,,,,,,,,,,,
,,"[""comma""]",0,[1.0325999999940336],103,0,103,0,1,602ad4a0805527185ca10247,24,Mężczyzna,2022-06-04_08h09.33.706,task,2021.1.4,Win32,60.1612321,628b806c463b948bc644b84f,629af6eb62b88c7e7755bf94,,,,,,,,,,,,,,,,,,,,,,,,,,,,,,,,,,,,,,,,,,,,,,,,,,,,,,,,,,,,,,,,,,,,,,,,,,,,,,,,,,,,,,,,,,,,,,,,,,,,,,,
,,"[""period""]",0,[0.9917999999969993],104,0,104,0,1,602ad4a0805527185ca10247,24,Mężczyzna,2022-06-04_08h09.33.706,task,2021.1.4,Win32,60.1612321,628b806c463b948bc644b84f,629af6eb62b88c7e7755bf94,,,,,,,,,,,,,,,,,,,,,,,,,,,,,,,,,,,,,,,,,,,,,,,,,,,,,,,,,,,,,,,,,,,,,,,,,,,,,,,,,,,,,,,,,,,,,,,,,,,,,,,
,,"[""comma""]",0,[1.0541000000014833],105,0,105,0,1,602ad4a0805527185ca10247,24,Mężczyzna,2022-06-04_08h09.33.706,task,2021.1.4,Win32,60.1612321,628b806c463b948bc644b84f,629af6eb62b88c7e7755bf94,,,,,,,,,,,,,,,,,,,,,,,,,,,,,,,,,,,,,,,,,,,,,,,,,,,,,,,,,,,,,,,,,,,,,,,,,,,,,,,,,,,,,,,,,,,,,,,,,,,,,,,
,,"[""comma""]",0,[1.0821000000015033],106,0,106,0,1,602ad4a0805527185ca10247,24,Mężczyzna,2022-06-04_08h09.33.706,task,2021.1.4,Win32,60.1612321,628b806c463b948bc644b84f,629af6eb62b88c7e7755bf94,,,,,,,,,,,,,,,,,,,,,,,,,,,,,,,,,,,,,,,,,,,,,,,,,,,,,,,,,,,,,,,,,,,,,,,,,,,,,,,,,,,,,,,,,,,,,,,,,,,,,,,
,,"[""period""]",0,[1.0159999999999627],107,0,107,0,1,602ad4a0805527185ca10247,24,Mężczyzna,2022-06-04_08h09.33.706,task,2021.1.4,Win32,60.1612321,628b806c463b948bc644b84f,629af6eb62b88c7e7755bf94,,,,,,,,,,,,,,,,,,,,,,,,,,,,,,,,,,,,,,,,,,,,,,,,,,,,,,,,,,,,,,,,,,,,,,,,,,,,,,,,,,,,,,,,,,,,,,,,,,,,,,,
,,"[""period""]",0,[1.0851999999955524],108,0,108,0,1,602ad4a0805527185ca10247,24,Mężczyzna,2022-06-04_08h09.33.706,task,2021.1.4,Win32,60.1612321,628b806c463b948bc644b84f,629af6eb62b88c7e7755bf94,,,,,,,,,,,,,,,,,,,,,,,,,,,,,,,,,,,,,,,,,,,,,,,,,,,,,,,,,,,,,,,,,,,,,,,,,,,,,,,,,,,,,,,,,,,,,,,,,,,,,,,
,,"[""comma""]",0,[0.96550000000002],109,0,109,0,1,602ad4a0805527185ca10247,24,Mężczyzna,2022-06-04_08h09.33.706,task,2021.1.4,Win32,60.1612321,628b806c463b948bc644b84f,629af6eb62b88c7e7755bf94,,,,,,,,,,,,,,,,,,,,,,,,,,,,,,,,,,,,,,,,,,,,,,,,,,,,,,,,,,,,,,,,,,,,,,,,,,,,,,,,,,,,,,,,,,,,,,,,,,,,,,,
,,"[""comma""]",0,[0.9989000000059605],110,0,110,0,1,602ad4a0805527185ca10247,24,Mężczyzna,2022-06-04_08h09.33.706,task,2021.1.4,Win32,60.1612321,628b806c463b948bc644b84f,629af6eb62b88c7e7755bf94,,,,,,,,,,,,,,,,,,,,,,,,,,,,,,,,,,,,,,,,,,,,,,,,,,,,,,,,,,,,,,,,,,,,,,,,,,,,,,,,,,,,,,,,,,,,,,,,,,,,,,,
,,"[""period""]",0,[1.0006000000014978],111,0,111,0,1,602ad4a0805527185ca10247,24,Mężczyzna,2022-06-04_08h09.33.706,task,2021.1.4,Win32,60.1612321,628b806c463b948bc644b84f,629af6eb62b88c7e7755bf94,,,,,,,,,,,,,,,,,,,,,,,,,,,,,,,,,,,,,,,,,,,,,,,,,,,,,,,,,,,,,,,,,,,,,,,,,,,,,,,,,,,,,,,,,,,,,,,,,,,,,,,
,,"[""period""]",0,[1.0053999999985308],112,0,112,0,1,602ad4a0805527185ca10247,24,Mężczyzna,2022-06-04_08h09.33.706,task,2021.1.4,Win32,60.1612321,628b806c463b948bc644b84f,629af6eb62b88c7e7755bf94,,,,,,,,,,,,,,,,,,,,,,,,,,,,,,,,,,,,,,,,,,,,,,,,,,,,,,,,,,,,,,,,,,,,,,,,,,,,,,,,,,,,,,,,,,,,,,,,,,,,,,,
,,"[""period""]",0,[1.0327999999969961],113,0,113,0,1,602ad4a0805527185ca10247,24,Mężczyzna,2022-06-04_08h09.33.706,task,2021.1.4,Win32,60.1612321,628b806c463b948bc644b84f,629af6eb62b88c7e7755bf94,,,,,,,,,,,,,,,,,,,,,,,,,,,,,,,,,,,,,,,,,,,,,,,,,,,,,,,,,,,,,,,,,,,,,,,,,,,,,,,,,,,,,,,,,,,,,,,,,,,,,,,
,,"[""comma""]",0,[0.9731999999955292],114,0,114,0,1,602ad4a0805527185ca10247,24,Mężczyzna,2022-06-04_08h09.33.706,task,2021.1.4,Win32,60.1612321,628b806c463b948bc644b84f,629af6eb62b88c7e7755bf94,,,,,,,,,,,,,,,,,,,,,,,,,,,,,,,,,,,,,,,,,,,,,,,,,,,,,,,,,,,,,,,,,,,,,,,,,,,,,,,,,,,,,,,,,,,,,,,,,,,,,,,
,,"[""period""]",0,[1.0660999999940373],115,0,115,0,1,602ad4a0805527185ca10247,24,Mężczyzna,2022-06-04_08h09.33.706,task,2021.1.4,Win32,60.1612321,628b806c463b948bc644b84f,629af6eb62b88c7e7755bf94,,,,,,,,,,,,,,,,,,,,,,,,,,,,,,,,,,,,,,,,,,,,,,,,,,,,,,,,,,,,,,,,,,,,,,,,,,,,,,,,,,,,,,,,,,,,,,,,,,,,,,,
,,"[""comma""]",0,[1.0330000000000155],116,0,116,0,1,602ad4a0805527185ca10247,24,Mężczyzna,2022-06-04_08h09.33.706,task,2021.1.4,Win32,60.1612321,628b806c463b948bc644b84f,629af6eb62b88c7e7755bf94,,,,,,,,,,,,,,,,,,,,,,,,,,,,,,,,,,,,,,,,,,,,,,,,,,,,,,,,,,,,,,,,,,,,,,,,,,,,,,,,,,,,,,,,,,,,,,,,,,,,,,,
,,"[""comma""]",0,[1.0331000000014683],117,0,117,0,1,602ad4a0805527185ca10247,24,Mężczyzna,2022-06-04_08h09.33.706,task,2021.1.4,Win32,60.1612321,628b806c463b948bc644b84f,629af6eb62b88c7e7755bf94,,,,,,,,,,,,,,,,,,,,,,,,,,,,,,,,,,,,,,,,,,,,,,,,,,,,,,,,,,,,,,,,,,,,,,,,,,,,,,,,,,,,,,,,,,,,,,,,,,,,,,,
,,"[""comma""]",0,[0.991200000002948],118,0,118,0,1,602ad4a0805527185ca10247,24,Mężczyzna,2022-06-04_08h09.33.706,task,2021.1.4,Win32,60.1612321,628b806c463b948bc644b84f,629af6eb62b88c7e7755bf94,,,,,,,,,,,,,,,,,,,,,,,,,,,,,,,,,,,,,,,,,,,,,,,,,,,,,,,,,,,,,,,,,,,,,,,,,,,,,,,,,,,,,,,,,,,,,,,,,,,,,,,
,,"[""period""]",0,[0.8494999999999777],119,0,119,0,1,602ad4a0805527185ca10247,24,Mężczyzna,2022-06-04_08h09.33.706,task,2021.1.4,Win32,60.1612321,628b806c463b948bc644b84f,629af6eb62b88c7e7755bf94,,,,,,,,,,,,,,,,,,,,,,,,,,,,,,,,,,,,,,,,,,,,,,,,,,,,,,,,,,,,,,,,,,,,,,,,,,,,,,,,,,,,,,,,,,,,,,,,,,,,,,,
,,,,,,,,,,602ad4a0805527185ca10247,24,Mężczyzna,2022-06-04_08h09.33.706,task,2021.1.4,Win32,60.1612321,628b806c463b948bc644b84f,629af6eb62b88c7e7755bf94,space,271.9552,space,206.8784,0,0,0,0,1,X V Q F H G B L J M P D K C T S W R N Z,,,,,,,,,,,,,,,,,,,,,,,,,,,,,,,,,,,,,,,,,,,,,,,,,,,,,,,,,,,,,,,,,,,,,,,,,,,,,,,,,,,,,,,,,,,,,
,,,,,,,,,,602ad4a0805527185ca10247,24,Mężczyzna,2022-06-04_08h09.33.706,task,2021.1.4,Win32,60.1612321,628b806c463b948bc644b84f,629af6eb62b88c7e7755bf94,,,,,1,0,1,0,1,X V Q F H G B L J M P D K C T S W R N Z,,,,,,,,,,,,,,,,,,,,,,,,,,,,,,,,,,,,,,,,,,,,,,,,,,,,,,,,,,,,,,,,,,,,,,,,,,,,,,,,,,,,,,,,,,,,,
,,,,,,,,,,602ad4a0805527185ca10247,24,Mężczyzna,2022-06-04_08h09.33.706,task,2021.1.4,Win32,60.1612321,628b806c463b948bc644b84f,629af6eb62b88c7e7755bf94,,,,,,,,,,,zb,"[""z"",""b""]","[3.048600000001443,3.477999999999952,3.743799999997009]",1,ZB,0,0,0,0,1,,,,,,,,,,,,,,,,,,,,,,,,,,,,,,,,,,,,,,,,,,,,,,,,,,,,,,,,,,,,,,,,,,,,,,,,,,,,,,,,,,,
,,,,,,,,,,602ad4a0805527185ca10247,24,Mężczyzna,2022-06-04_08h09.33.706,task,2021.1.4,Win32,60.1612321,628b806c463b948bc644b84f,629af6eb62b88c7e7755bf94,,,,,0,0,0,0,1,X V Q F H G B L J M P D K C T S W R N Z,,,,,,,,,,,,,,,,,,,,,,,,,,,,,,,,,,,,,,,,,,,,,,,,,,,,,,,,,,,,,,,,,,,,,,,,,,,,,,,,,,,,,,,,,,,,,
,,,,,,,,,,602ad4a0805527185ca10247,24,Mężczyzna,2022-06-04_08h09.33.706,task,2021.1.4,Win32,60.1612321,628b806c463b948bc644b84f,629af6eb62b88c7e7755bf94,,,,,1,0,1,0,1,X V Q F H G B L J M P D K C T S W R N Z,,,,,,,,,,,,,,,,,,,,,,,,,,,,,,,,,,,,,,,,,,,,,,,,,,,,,,,,,,,,,,,,,,,,,,,,,,,,,,,,,,,,,,,,,,,,,
,,,,,,,,,,602ad4a0805527185ca10247,24,Mężczyzna,2022-06-04_08h09.33.706,task,2021.1.4,Win32,60.1612321,628b806c463b948bc644b84f,629af6eb62b88c7e7755bf94,,,,,,,,,,,xj,"[""x"",""j""]","[1.0496000000015329,1.1172000000029811,1.3672000000029811]",1,XJ,1,0,1,0,1,,,,,,,,,,,,,,,,,,,,,,,,,,,,,,,,,,,,,,,,,,,,,,,,,,,,,,,,,,,,,,,,,,,,,,,,,,,,,,,,,,,
,,,,,,,,,,602ad4a0805527185ca10247,24,Mężczyzna,2022-06-04_08h09.33.706,task,2021.1.4,Win32,60.1612321,628b806c463b948bc644b84f,629af6eb62b88c7e7755bf94,,,,,0,0,0,0,1,X V Q F H G B L J M P D K C T S W R N Z,,,,,,,,,,,,,,,,,,,,,,,,,,,,,,,,,,,,,,,,,,,,,,,,,,,,,,,,,,,,,,,,,,,,,,,,,,,,,,,,,,,,,,,,,,,,,
,,,,,,,,,,602ad4a0805527185ca10247,24,Mężczyzna,2022-06-04_08h09.33.706,task,2021.1.4,Win32,60.1612321,628b806c463b948bc644b84f,629af6eb62b88c7e7755bf94,,,,,1,0,1,0,1,X V Q F H G B L J M P D K C T S W R N Z,,,,,,,,,,,,,,,,,,,,,,,,,,,,,,,,,,,,,,,,,,,,,,,,,,,,,,,,,,,,,,,,,,,,,,,,,,,,,,,,,,,,,,,,,,,,,
,,,,,,,,,,602ad4a0805527185ca10247,24,Mężczyzna,2022-06-04_08h09.33.706,task,2021.1.4,Win32,60.1612321,628b806c463b948bc644b84f,629af6eb62b88c7e7755bf94,,,,,2,0,2,0,1,X V Q F H G B L J M P D K C T S W R N Z,,,,,,,,,,,,,,,,,,,,,,,,,,,,,,,,,,,,,,,,,,,,,,,,,,,,,,,,,,,,,,,,,,,,,,,,,,,,,,,,,,,,,,,,,,,,,
,,,,,,,,,,602ad4a0805527185ca10247,24,Mężczyzna,2022-06-04_08h09.33.706,task,2021.1.4,Win32,60.1612321,628b806c463b948bc644b84f,629af6eb62b88c7e7755bf94,,,,,,,,,,,lxg,"[""l"",""x"",""g""]","[0.6078999999984944,0.7507000000030075,0.9664999999999964,1.1227000000029648]",1,LXG,2,0,2,0,1,,,,,,,,,,,,,,,,,,,,,,,,,,,,,,,,,,,,,,,,,,,,,,,,,,,,,,,,,,,,,,,,,,,,,,,,,,,,,,,,,,,
,,,,,,,,,,602ad4a0805527185ca10247,24,Mężczyzna,2022-06-04_08h09.33.706,task,2021.1.4,Win32,60.1612321,628b806c463b948bc644b84f,629af6eb62b88c7e7755bf94,,,,,0,0,0,0,1,X V Q F H G B L J M P D K C T S W R N Z,,,,,,,,,,,,,,,,,,,,,,,,,,,,,,,,,,,,,,,,,,,,,,,,,,,,,,,,,,,,,,,,,,,,,,,,,,,,,,,,,,,,,,,,,,,,,
,,,,,,,,,,602ad4a0805527185ca10247,24,Mężczyzna,2022-06-04_08h09.33.706,task,2021.1.4,Win32,60.1612321,628b806c463b948bc644b84f,629af6eb62b88c7e7755bf94,,,,,1,0,1,0,1,X V Q F H G B L J M P D K C T S W R N Z,,,,,,,,,,,,,,,,,,,,,,,,,,,,,,,,,,,,,,,,,,,,,,,,,,,,,,,,,,,,,,,,,,,,,,,,,,,,,,,,,,,,,,,,,,,,,
,,,,,,,,,,602ad4a0805527185ca10247,24,Mężczyzna,2022-06-04_08h09.33.706,task,2021.1.4,Win32,60.1612321,628b806c463b948bc644b84f,629af6eb62b88c7e7755bf94,,,,,2,0,2,0,1,X V Q F H G B L J M P D K C T S W R N Z,,,,,,,,,,,,,,,,,,,,,,,,,,,,,,,,,,,,,,,,,,,,,,,,,,,,,,,,,,,,,,,,,,,,,,,,,,,,,,,,,,,,,,,,,,,,,
,,,,,,,,,,602ad4a0805527185ca10247,24,Mężczyzna,2022-06-04_08h09.33.706,task,2021.1.4,Win32,60.1612321,628b806c463b948bc644b84f,629af6eb62b88c7e7755bf94,,,,,,,,,,,wvc,"[""w"",""v"",""c""]","[0.6023000000044476,0.7835000000000036,0.9547000000029584,1.0716000000014674]",1,WVC,3,0,3,0,1,,,,,,,,,,,,,,,,,,,,,,,,,,,,,,,,,,,,,,,,,,,,,,,,,,,,,,,,,,,,,,,,,,,,,,,,,,,,,,,,,,,
,,,,,,,,,,602ad4a0805527185ca10247,24,Mężczyzna,2022-06-04_08h09.33.706,task,2021.1.4,Win32,60.1612321,628b806c463b948bc644b84f,629af6eb62b88c7e7755bf94,,,,,0,0,0,0,1,X V Q F H G B L J M P D K C T S W R N Z,,,,,,,,,,,,,,,,,,,,,,,,,,,,,,,,,,,,,,,,,,,,,,,,,,,,,,,,,,,,,,,,,,,,,,,,,,,,,,,,,,,,,,,,,,,,,
,,,,,,,,,,602ad4a0805527185ca10247,24,Mężczyzna,2022-06-04_08h09.33.706,task,2021.1.4,Win32,60.1612321,628b806c463b948bc644b84f,629af6eb62b88c7e7755bf94,,,,,1,0,1,0,1,X V Q F H G B L J M P D K C T S W R N Z,,,,,,,,,,,,,,,,,,,,,,,,,,,,,,,,,,,,,,,,,,,,,,,,,,,,,,,,,,,,,,,,,,,,,,,,,,,,,,,,,,,,,,,,,,,,,
,,,,,,,,,,602ad4a0805527185ca10247,24,Mężczyzna,2022-06-04_08h09.33.706,task,2021.1.4,Win32,60.1612321,628b806c463b948bc644b84f,629af6eb62b88c7e7755bf94,,,,,2,0,2,0,1,X V Q F H G B L J M P D K C T S W R N Z,,,,,,,,,,,,,,,,,,,,,,,,,,,,,,,,,,,,,,,,,,,,,,,,,,,,,,,,,,,,,,,,,,,,,,,,,,,,,,,,,,,,,,,,,,,,,
,,,,,,,,,,602ad4a0805527185ca10247,24,Mężczyzna,2022-06-04_08h09.33.706,task,2021.1.4,Win32,60.1612321,628b806c463b948bc644b84f,629af6eb62b88c7e7755bf94,,,,,3,0,3,0,1,X V Q F H G B L J M P D K C T S W R N Z,,,,,,,,,,,,,,,,,,,,,,,,,,,,,,,,,,,,,,,,,,,,,,,,,,,,,,,,,,,,,,,,,,,,,,,,,,,,,,,,,,,,,,,,,,,,,
,,,,,,,,,,602ad4a0805527185ca10247,24,Mężczyzna,2022-06-04_08h09.33.706,task,2021.1.4,Win32,60.1612321,628b806c463b948bc644b84f,629af6eb62b88c7e7755bf94,,,,,,,,,,,flpt,"[""f"",""l"",""p"",""t""]","[0.5831999999955997,0.715699999995536,1.2653999999985217,1.4011999999955833,1.5193999999985408]",1,FLPT,4,0,4,0,1,,,,,,,,,,,,,,,,,,,,,,,,,,,,,,,,,,,,,,,,,,,,,,,,,,,,,,,,,,,,,,,,,,,,,,,,,,,,,,,,,,,
,,,,,,,,,,602ad4a0805527185ca10247,24,Mężczyzna,2022-06-04_08h09.33.706,task,2021.1.4,Win32,60.1612321,628b806c463b948bc644b84f,629af6eb62b88c7e7755bf94,,,,,0,0,0,0,1,X V Q F H G B L J M P D K C T S W R N Z,,,,,,,,,,,,,,,,,,,,,,,,,,,,,,,,,,,,,,,,,,,,,,,,,,,,,,,,,,,,,,,,,,,,,,,,,,,,,,,,,,,,,,,,,,,,,
,,,,,,,,,,602ad4a0805527185ca10247,24,Mężczyzna,2022-06-04_08h09.33.706,task,2021.1.4,Win32,60.1612321,628b806c463b948bc644b84f,629af6eb62b88c7e7755bf94,,,,,1,0,1,0,1,X V Q F H G B L J M P D K C T S W R N Z,,,,,,,,,,,,,,,,,,,,,,,,,,,,,,,,,,,,,,,,,,,,,,,,,,,,,,,,,,,,,,,,,,,,,,,,,,,,,,,,,,,,,,,,,,,,,
,,,,,,,,,,602ad4a0805527185ca10247,24,Mężczyzna,2022-06-04_08h09.33.706,task,2021.1.4,Win32,60.1612321,628b806c463b948bc644b84f,629af6eb62b88c7e7755bf94,,,,,2,0,2,0,1,X V Q F H G B L J M P D K C T S W R N Z,,,,,,,,,,,,,,,,,,,,,,,,,,,,,,,,,,,,,,,,,,,,,,,,,,,,,,,,,,,,,,,,,,,,,,,,,,,,,,,,,,,,,,,,,,,,,
,,,,,,,,,,602ad4a0805527185ca10247,24,Mężczyzna,2022-06-04_08h09.33.706,task,2021.1.4,Win32,60.1612321,628b806c463b948bc644b84f,629af6eb62b88c7e7755bf94,,,,,3,0,3,0,1,X V Q F H G B L J M P D K C T S W R N Z,,,,,,,,,,,,,,,,,,,,,,,,,,,,,,,,,,,,,,,,,,,,,,,,,,,,,,,,,,,,,,,,,,,,,,,,,,,,,,,,,,,,,,,,,,,,,
,,,,,,,,,,602ad4a0805527185ca10247,24,Mężczyzna,2022-06-04_08h09.33.706,task,2021.1.4,Win32,60.1612321,628b806c463b948bc644b84f,629af6eb62b88c7e7755bf94,,,,,,,,,,,zfft,"[""z"",""f"",""f"",""t""]","[0.3722999999970398,0.5232999999969934,0.6829999999999927,0.915399999998499,1.1426000000014938]",1,ZFFT,5,0,5,0,1,,,,,,,,,,,,,,,,,,,,,,,,,,,,,,,,,,,,,,,,,,,,,,,,,,,,,,,,,,,,,,,,,,,,,,,,,,,,,,,,,,,
,,,,,,,,,,602ad4a0805527185ca10247,24,Mężczyzna,2022-06-04_08h09.33.706,task,2021.1.4,Win32,60.1612321,628b806c463b948bc644b84f,629af6eb62b88c7e7755bf94,,,,,0,0,0,0,1,X V Q F H G B L J M P D K C T S W R N Z,,,,,,,,,,,,,,,,,,,,,,,,,,,,,,,,,,,,,,,,,,,,,,,,,,,,,,,,,,,,,,,,,,,,,,,,,,,,,,,,,,,,,,,,,,,,,
,,,,,,,,,,602ad4a0805527185ca10247,24,Mężczyzna,2022-06-04_08h09.33.706,task,2021.1.4,Win32,60.1612321,628b806c463b948bc644b84f,629af6eb62b88c7e7755bf94,,,,,1,0,1,0,1,X V Q F H G B L J M P D K C T S W R N Z,,,,,,,,,,,,,,,,,,,,,,,,,,,,,,,,,,,,,,,,,,,,,,,,,,,,,,,,,,,,,,,,,,,,,,,,,,,,,,,,,,,,,,,,,,,,,
,,,,,,,,,,602ad4a0805527185ca10247,24,Mężczyzna,2022-06-04_08h09.33.706,task,2021.1.4,Win32,60.1612321,628b806c463b948bc644b84f,629af6eb62b88c7e7755bf94,,,,,2,0,2,0,1,X V Q F H G B L J M P D K C T S W R N Z,,,,,,,,,,,,,,,,,,,,,,,,,,,,,,,,,,,,,,,,,,,,,,,,,,,,,,,,,,,,,,,,,,,,,,,,,,,,,,,,,,,,,,,,,,,,,
,,,,,,,,,,602ad4a0805527185ca10247,24,Mężczyzna,2022-06-04_08h09.33.706,task,2021.1.4,Win32,60.1612321,628b806c463b948bc644b84f,629af6eb62b88c7e7755bf94,,,,,3,0,3,0,1,X V Q F H G B L J M P D K C T S W R N Z,,,,,,,,,,,,,,,,,,,,,,,,,,,,,,,,,,,,,,,,,,,,,,,,,,,,,,,,,,,,,,,,,,,,,,,,,,,,,,,,,,,,,,,,,,,,,
,,,,,,,,,,602ad4a0805527185ca10247,24,Mężczyzna,2022-06-04_08h09.33.706,task,2021.1.4,Win32,60.1612321,628b806c463b948bc644b84f,629af6eb62b88c7e7755bf94,,,,,4,0,4,0,1,X V Q F H G B L J M P D K C T S W R N Z,,,,,,,,,,,,,,,,,,,,,,,,,,,,,,,,,,,,,,,,,,,,,,,,,,,,,,,,,,,,,,,,,,,,,,,,,,,,,,,,,,,,,,,,,,,,,
,,,,,,,,,,602ad4a0805527185ca10247,24,Mężczyzna,2022-06-04_08h09.33.706,task,2021.1.4,Win32,60.1612321,628b806c463b948bc644b84f,629af6eb62b88c7e7755bf94,,,,,,,,,,,cdfwp,"[""c"",""d"",""f"",""w"",""p""]","[0.4686000000015156,0.7666000000015174,1.2826000000014801,1.4841000000014901,1.6006000000014637,1.7915000000000418]",1,CDFWP,6,0,6,0,1,,,,,,,,,,,,,,,,,,,,,,,,,,,,,,,,,,,,,,,,,,,,,,,,,,,,,,,,,,,,,,,,,,,,,,,,,,,,,,,,,,,
,,,,,,,,,,602ad4a0805527185ca10247,24,Mężczyzna,2022-06-04_08h09.33.706,task,2021.1.4,Win32,60.1612321,628b806c463b948bc644b84f,629af6eb62b88c7e7755bf94,,,,,0,0,0,0,1,X V Q F H G B L J M P D K C T S W R N Z,,,,,,,,,,,,,,,,,,,,,,,,,,,,,,,,,,,,,,,,,,,,,,,,,,,,,,,,,,,,,,,,,,,,,,,,,,,,,,,,,,,,,,,,,,,,,
,,,,,,,,,,602ad4a0805527185ca10247,24,Mężczyzna,2022-06-04_08h09.33.706,task,2021.1.4,Win32,60.1612321,628b806c463b948bc644b84f,629af6eb62b88c7e7755bf94,,,,,1,0,1,0,1,X V Q F H G B L J M P D K C T S W R N Z,,,,,,,,,,,,,,,,,,,,,,,,,,,,,,,,,,,,,,,,,,,,,,,,,,,,,,,,,,,,,,,,,,,,,,,,,,,,,,,,,,,,,,,,,,,,,
,,,,,,,,,,602ad4a0805527185ca10247,24,Mężczyzna,2022-06-04_08h09.33.706,task,2021.1.4,Win32,60.1612321,628b806c463b948bc644b84f,629af6eb62b88c7e7755bf94,,,,,2,0,2,0,1,X V Q F H G B L J M P D K C T S W R N Z,,,,,,,,,,,,,,,,,,,,,,,,,,,,,,,,,,,,,,,,,,,,,,,,,,,,,,,,,,,,,,,,,,,,,,,,,,,,,,,,,,,,,,,,,,,,,
,,,,,,,,,,602ad4a0805527185ca10247,24,Mężczyzna,2022-06-04_08h09.33.706,task,2021.1.4,Win32,60.1612321,628b806c463b948bc644b84f,629af6eb62b88c7e7755bf94,,,,,3,0,3,0,1,X V Q F H G B L J M P D K C T S W R N Z,,,,,,,,,,,,,,,,,,,,,,,,,,,,,,,,,,,,,,,,,,,,,,,,,,,,,,,,,,,,,,,,,,,,,,,,,,,,,,,,,,,,,,,,,,,,,
,,,,,,,,,,602ad4a0805527185ca10247,24,Mężczyzna,2022-06-04_08h09.33.706,task,2021.1.4,Win32,60.1612321,628b806c463b948bc644b84f,629af6eb62b88c7e7755bf94,,,,,4,0,4,0,1,X V Q F H G B L J M P D K C T S W R N Z,,,,,,,,,,,,,,,,,,,,,,,,,,,,,,,,,,,,,,,,,,,,,,,,,,,,,,,,,,,,,,,,,,,,,,,,,,,,,,,,,,,,,,,,,,,,,
,,,,,,,,,,602ad4a0805527185ca10247,24,Mężczyzna,2022-06-04_08h09.33.706,task,2021.1.4,Win32,60.1612321,628b806c463b948bc644b84f,629af6eb62b88c7e7755bf94,,,,,,,,,,,gfptn,"[""g"",""f"",""p"",""t"",""n""]","[0.6327999999970189,0.9869999999999663,1.2171999999955005,1.5413999999984753,1.7920999999939795,2.000499999999988]",1,GFPTN,7,0,7,0,1,,,,,,,,,,,,,,,,,,,,,,,,,,,,,,,,,,,,,,,,,,,,,,,,,,,,,,,,,,,,,,,,,,,,,,,,,,,,,,,,,,,
,,,,,,,,,,602ad4a0805527185ca10247,24,Mężczyzna,2022-06-04_08h09.33.706,task,2021.1.4,Win32,60.1612321,628b806c463b948bc644b84f,629af6eb62b88c7e7755bf94,,,,,0,0,0,0,1,X V Q F H G B L J M P D K C T S W R N Z,,,,,,,,,,,,,,,,,,,,,,,,,,,,,,,,,,,,,,,,,,,,,,,,,,,,,,,,,,,,,,,,,,,,,,,,,,,,,,,,,,,,,,,,,,,,,
,,,,,,,,,,602ad4a0805527185ca10247,24,Mężczyzna,2022-06-04_08h09.33.706,task,2021.1.4,Win32,60.1612321,628b806c463b948bc644b84f,629af6eb62b88c7e7755bf94,,,,,1,0,1,0,1,X V Q F H G B L J M P D K C T S W R N Z,,,,,,,,,,,,,,,,,,,,,,,,,,,,,,,,,,,,,,,,,,,,,,,,,,,,,,,,,,,,,,,,,,,,,,,,,,,,,,,,,,,,,,,,,,,,,
,,,,,,,,,,602ad4a0805527185ca10247,24,Mężczyzna,2022-06-04_08h09.33.706,task,2021.1.4,Win32,60.1612321,628b806c463b948bc644b84f,629af6eb62b88c7e7755bf94,,,,,2,0,2,0,1,X V Q F H G B L J M P D K C T S W R N Z,,,,,,,,,,,,,,,,,,,,,,,,,,,,,,,,,,,,,,,,,,,,,,,,,,,,,,,,,,,,,,,,,,,,,,,,,,,,,,,,,,,,,,,,,,,,,
,,,,,,,,,,602ad4a0805527185ca10247,24,Mężczyzna,2022-06-04_08h09.33.706,task,2021.1.4,Win32,60.1612321,628b806c463b948bc644b84f,629af6eb62b88c7e7755bf94,,,,,3,0,3,0,1,X V Q F H G B L J M P D K C T S W R N Z,,,,,,,,,,,,,,,,,,,,,,,,,,,,,,,,,,,,,,,,,,,,,,,,,,,,,,,,,,,,,,,,,,,,,,,,,,,,,,,,,,,,,,,,,,,,,
,,,,,,,,,,602ad4a0805527185ca10247,24,Mężczyzna,2022-06-04_08h09.33.706,task,2021.1.4,Win32,60.1612321,628b806c463b948bc644b84f,629af6eb62b88c7e7755bf94,,,,,4,0,4,0,1,X V Q F H G B L J M P D K C T S W R N Z,,,,,,,,,,,,,,,,,,,,,,,,,,,,,,,,,,,,,,,,,,,,,,,,,,,,,,,,,,,,,,,,,,,,,,,,,,,,,,,,,,,,,,,,,,,,,
,,,,,,,,,,602ad4a0805527185ca10247,24,Mężczyzna,2022-06-04_08h09.33.706,task,2021.1.4,Win32,60.1612321,628b806c463b948bc644b84f,629af6eb62b88c7e7755bf94,,,,,5,0,5,0,1,X V Q F H G B L J M P D K C T S W R N Z,,,,,,,,,,,,,,,,,,,,,,,,,,,,,,,,,,,,,,,,,,,,,,,,,,,,,,,,,,,,,,,,,,,,,,,,,,,,,,,,,,,,,,,,,,,,,
,,,,,,,,,,602ad4a0805527185ca10247,24,Mężczyzna,2022-06-04_08h09.33.706,task,2021.1.4,Win32,60.1612321,628b806c463b948bc644b84f,629af6eb62b88c7e7755bf94,,,,,,,,,,,vdkcgv,"[""v"",""d"",""k"",""c"",""g"",""v""]","[0.5721000000014556,0.7998999999986154,1.0824999999999818,1.5697000000029675,1.933399999998528,2.315499999999929,2.765300000004572]",1,VDKCGV,8,0,8,0,1,,,,,,,,,,,,,,,,,,,,,,,,,,,,,,,,,,,,,,,,,,,,,,,,,,,,,,,,,,,,,,,,,,,,,,,,,,,,,,,,,,,
,,,,,,,,,,602ad4a0805527185ca10247,24,Mężczyzna,2022-06-04_08h09.33.706,task,2021.1.4,Win32,60.1612321,628b806c463b948bc644b84f,629af6eb62b88c7e7755bf94,,,,,0,0,0,0,1,X V Q F H G B L J M P D K C T S W R N Z,,,,,,,,,,,,,,,,,,,,,,,,,,,,,,,,,,,,,,,,,,,,,,,,,,,,,,,,,,,,,,,,,,,,,,,,,,,,,,,,,,,,,,,,,,,,,
,,,,,,,,,,602ad4a0805527185ca10247,24,Mężczyzna,2022-06-04_08h09.33.706,task,2021.1.4,Win32,60.1612321,628b806c463b948bc644b84f,629af6eb62b88c7e7755bf94,,,,,1,0,1,0,1,X V Q F H G B L J M P D K C T S W R N Z,,,,,,,,,,,,,,,,,,,,,,,,,,,,,,,,,,,,,,,,,,,,,,,,,,,,,,,,,,,,,,,,,,,,,,,,,,,,,,,,,,,,,,,,,,,,,
,,,,,,,,,,602ad4a0805527185ca10247,24,Mężczyzna,2022-06-04_08h09.33.706,task,2021.1.4,Win32,60.1612321,628b806c463b948bc644b84f,629af6eb62b88c7e7755bf94,,,,,2,0,2,0,1,X V Q F H G B L J M P D K C T S W R N Z,,,,,,,,,,,,,,,,,,,,,,,,,,,,,,,,,,,,,,,,,,,,,,,,,,,,,,,,,,,,,,,,,,,,,,,,,,,,,,,,,,,,,,,,,,,,,
,,,,,,,,,,602ad4a0805527185ca10247,24,Mężczyzna,2022-06-04_08h09.33.706,task,2021.1.4,Win32,60.1612321,628b806c463b948bc644b84f,629af6eb62b88c7e7755bf94,,,,,3,0,3,0,1,X V Q F H G B L J M P D K C T S W R N Z,,,,,,,,,,,,,,,,,,,,,,,,,,,,,,,,,,,,,,,,,,,,,,,,,,,,,,,,,,,,,,,,,,,,,,,,,,,,,,,,,,,,,,,,,,,,,
,,,,,,,,,,602ad4a0805527185ca10247,24,Mężczyzna,2022-06-04_08h09.33.706,task,2021.1.4,Win32,60.1612321,628b806c463b948bc644b84f,629af6eb62b88c7e7755bf94,,,,,4,0,4,0,1,X V Q F H G B L J M P D K C T S W R N Z,,,,,,,,,,,,,,,,,,,,,,,,,,,,,,,,,,,,,,,,,,,,,,,,,,,,,,,,,,,,,,,,,,,,,,,,,,,,,,,,,,,,,,,,,,,,,
,,,,,,,,,,602ad4a0805527185ca10247,24,Mężczyzna,2022-06-04_08h09.33.706,task,2021.1.4,Win32,60.1612321,628b806c463b948bc644b84f,629af6eb62b88c7e7755bf94,,,,,5,0,5,0,1,X V Q F H G B L J M P D K C T S W R N Z,,,,,,,,,,,,,,,,,,,,,,,,,,,,,,,,,,,,,,,,,,,,,,,,,,,,,,,,,,,,,,,,,,,,,,,,,,,,,,,,,,,,,,,,,,,,,
,,,,,,,,,,602ad4a0805527185ca10247,24,Mężczyzna,2022-06-04_08h09.33.706,task,2021.1.4,Win32,60.1612321,628b806c463b948bc644b84f,629af6eb62b88c7e7755bf94,,,,,,,,,,,xvljnw,"[""x"",""v"",""l"",""j"",""n"",""w""]","[1.0587999999970634,1.933399999998528,2.0882999999969343,2.3837000000030457,2.5747999999969124,2.9039999999999964,3.049200000002884]",1,XVLJNW,9,0,9,0,1,,,,,,,,,,,,,,,,,,,,,,,,,,,,,,,,,,,,,,,,,,,,,,,,,,,,,,,,,,,,,,,,,,,,,,,,,,,,,,,,,,,
,,,,,,,,,,602ad4a0805527185ca10247,24,Mężczyzna,2022-06-04_08h09.33.706,task,2021.1.4,Win32,60.1612321,628b806c463b948bc644b84f,629af6eb62b88c7e7755bf94,,,,,0,0,0,0,1,X V Q F H G B L J M P D K C T S W R N Z,,,,,,,,,,,,,,,,,,,,,,,,,,,,,,,,,,,,,,,,,,,,,,,,,,,,,,,,,,,,,,,,,,,,,,,,,,,,,,,,,,,,,,,,,,,,,
,,,,,,,,,,602ad4a0805527185ca10247,24,Mężczyzna,2022-06-04_08h09.33.706,task,2021.1.4,Win32,60.1612321,628b806c463b948bc644b84f,629af6eb62b88c7e7755bf94,,,,,1,0,1,0,1,X V Q F H G B L J M P D K C T S W R N Z,,,,,,,,,,,,,,,,,,,,,,,,,,,,,,,,,,,,,,,,,,,,,,,,,,,,,,,,,,,,,,,,,,,,,,,,,,,,,,,,,,,,,,,,,,,,,
,,,,,,,,,,602ad4a0805527185ca10247,24,Mężczyzna,2022-06-04_08h09.33.706,task,2021.1.4,Win32,60.1612321,628b806c463b948bc644b84f,629af6eb62b88c7e7755bf94,,,,,2,0,2,0,1,X V Q F H G B L J M P D K C T S W R N Z,,,,,,,,,,,,,,,,,,,,,,,,,,,,,,,,,,,,,,,,,,,,,,,,,,,,,,,,,,,,,,,,,,,,,,,,,,,,,,,,,,,,,,,,,,,,,
,,,,,,,,,,602ad4a0805527185ca10247,24,Mężczyzna,2022-06-04_08h09.33.706,task,2021.1.4,Win32,60.1612321,628b806c463b948bc644b84f,629af6eb62b88c7e7755bf94,,,,,3,0,3,0,1,X V Q F H G B L J M P D K C T S W R N Z,,,,,,,,,,,,,,,,,,,,,,,,,,,,,,,,,,,,,,,,,,,,,,,,,,,,,,,,,,,,,,,,,,,,,,,,,,,,,,,,,,,,,,,,,,,,,
,,,,,,,,,,602ad4a0805527185ca10247,24,Mężczyzna,2022-06-04_08h09.33.706,task,2021.1.4,Win32,60.1612321,628b806c463b948bc644b84f,629af6eb62b88c7e7755bf94,,,,,4,0,4,0,1,X V Q F H G B L J M P D K C T S W R N Z,,,,,,,,,,,,,,,,,,,,,,,,,,,,,,,,,,,,,,,,,,,,,,,,,,,,,,,,,,,,,,,,,,,,,,,,,,,,,,,,,,,,,,,,,,,,,
,,,,,,,,,,602ad4a0805527185ca10247,24,Mężczyzna,2022-06-04_08h09.33.706,task,2021.1.4,Win32,60.1612321,628b806c463b948bc644b84f,629af6eb62b88c7e7755bf94,,,,,5,0,5,0,1,X V Q F H G B L J M P D K C T S W R N Z,,,,,,,,,,,,,,,,,,,,,,,,,,,,,,,,,,,,,,,,,,,,,,,,,,,,,,,,,,,,,,,,,,,,,,,,,,,,,,,,,,,,,,,,,,,,,
,,,,,,,,,,602ad4a0805527185ca10247,24,Mężczyzna,2022-06-04_08h09.33.706,task,2021.1.4,Win32,60.1612321,628b806c463b948bc644b84f,629af6eb62b88c7e7755bf94,,,,,6,0,6,0,1,X V Q F H G B L J M P D K C T S W R N Z,,,,,,,,,,,,,,,,,,,,,,,,,,,,,,,,,,,,,,,,,,,,,,,,,,,,,,,,,,,,,,,,,,,,,,,,,,,,,,,,,,,,,,,,,,,,,
,,,,,,,,,,602ad4a0805527185ca10247,24,Mężczyzna,2022-06-04_08h09.33.706,task,2021.1.4,Win32,60.1612321,628b806c463b948bc644b84f,629af6eb62b88c7e7755bf94,,,,,,,,,,,zvgcbfg,"[""z"",""v"",""g"",""c"",""b"",""f"",""g""]","[0.9329999999999927,1.181600000001481,1.4663999999984298,2.008000000000038,2.3092000000028747,2.556100000001379,2.7662999999970452,3.136500000000069]",1,ZVGCBFG,10,0,10,0,1,,,,,,,,,,,,,,,,,,,,,,,,,,,,,,,,,,,,,,,,,,,,,,,,,,,,,,,,,,,,,,,,,,,,,,,,,,,,,,,,,,,
,,,,,,,,,,602ad4a0805527185ca10247,24,Mężczyzna,2022-06-04_08h09.33.706,task,2021.1.4,Win32,60.1612321,628b806c463b948bc644b84f,629af6eb62b88c7e7755bf94,,,,,0,0,0,0,1,X V Q F H G B L J M P D K C T S W R N Z,,,,,,,,,,,,,,,,,,,,,,,,,,,,,,,,,,,,,,,,,,,,,,,,,,,,,,,,,,,,,,,,,,,,,,,,,,,,,,,,,,,,,,,,,,,,,
,,,,,,,,,,602ad4a0805527185ca10247,24,Mężczyzna,2022-06-04_08h09.33.706,task,2021.1.4,Win32,60.1612321,628b806c463b948bc644b84f,629af6eb62b88c7e7755bf94,,,,,1,0,1,0,1,X V Q F H G B L J M P D K C T S W R N Z,,,,,,,,,,,,,,,,,,,,,,,,,,,,,,,,,,,,,,,,,,,,,,,,,,,,,,,,,,,,,,,,,,,,,,,,,,,,,,,,,,,,,,,,,,,,,
,,,,,,,,,,602ad4a0805527185ca10247,24,Mężczyzna,2022-06-04_08h09.33.706,task,2021.1.4,Win32,60.1612321,628b806c463b948bc644b84f,629af6eb62b88c7e7755bf94,,,,,2,0,2,0,1,X V Q F H G B L J M P D K C T S W R N Z,,,,,,,,,,,,,,,,,,,,,,,,,,,,,,,,,,,,,,,,,,,,,,,,,,,,,,,,,,,,,,,,,,,,,,,,,,,,,,,,,,,,,,,,,,,,,
,,,,,,,,,,602ad4a0805527185ca10247,24,Mężczyzna,2022-06-04_08h09.33.706,task,2021.1.4,Win32,60.1612321,628b806c463b948bc644b84f,629af6eb62b88c7e7755bf94,,,,,3,0,3,0,1,X V Q F H G B L J M P D K C T S W R N Z,,,,,,,,,,,,,,,,,,,,,,,,,,,,,,,,,,,,,,,,,,,,,,,,,,,,,,,,,,,,,,,,,,,,,,,,,,,,,,,,,,,,,,,,,,,,,
,,,,,,,,,,602ad4a0805527185ca10247,24,Mężczyzna,2022-06-04_08h09.33.706,task,2021.1.4,Win32,60.1612321,628b806c463b948bc644b84f,629af6eb62b88c7e7755bf94,,,,,4,0,4,0,1,X V Q F H G B L J M P D K C T S W R N Z,,,,,,,,,,,,,,,,,,,,,,,,,,,,,,,,,,,,,,,,,,,,,,,,,,,,,,,,,,,,,,,,,,,,,,,,,,,,,,,,,,,,,,,,,,,,,
,,,,,,,,,,602ad4a0805527185ca10247,24,Mężczyzna,2022-06-04_08h09.33.706,task,2021.1.4,Win32,60.1612321,628b806c463b948bc644b84f,629af6eb62b88c7e7755bf94,,,,,5,0,5,0,1,X V Q F H G B L J M P D K C T S W R N Z,,,,,,,,,,,,,,,,,,,,,,,,,,,,,,,,,,,,,,,,,,,,,,,,,,,,,,,,,,,,,,,,,,,,,,,,,,,,,,,,,,,,,,,,,,,,,
,,,,,,,,,,602ad4a0805527185ca10247,24,Mężczyzna,2022-06-04_08h09.33.706,task,2021.1.4,Win32,60.1612321,628b806c463b948bc644b84f,629af6eb62b88c7e7755bf94,,,,,6,0,6,0,1,X V Q F H G B L J M P D K C T S W R N Z,,,,,,,,,,,,,,,,,,,,,,,,,,,,,,,,,,,,,,,,,,,,,,,,,,,,,,,,,,,,,,,,,,,,,,,,,,,,,,,,,,,,,,,,,,,,,
,,,,,,,,,,602ad4a0805527185ca10247,24,Mężczyzna,2022-06-04_08h09.33.706,task,2021.1.4,Win32,60.1612321,628b806c463b948bc644b84f,629af6eb62b88c7e7755bf94,,,,,,,,,,,bdwpthv,"[""b"",""d"",""w"",""p"",""t"",""h"",""v""]","[1.440199999995457,1.7155999999940832,2.049199999995608,2.286299999997027,2.484099999993987,2.7180000000000746,3.2395999999939704,3.382399999998597]",1,BDWPTHV,11,0,11,0,1,,,,,,,,,,,,,,,,,,,,,,,,,,,,,,,,,,,,,,,,,,,,,,,,,,,,,,,,,,,,,,,,,,,,,,,,,,,,,,,,,,,
,,,,,,,,,,602ad4a0805527185ca10247,24,Mężczyzna,2022-06-04_08h09.33.706,task,2021.1.4,Win32,60.1612321,628b806c463b948bc644b84f,629af6eb62b88c7e7755bf94,,,,,0,0,0,0,1,X V Q F H G B L J M P D K C T S W R N Z,,,,,,,,,,,,,,,,,,,,,,,,,,,,,,,,,,,,,,,,,,,,,,,,,,,,,,,,,,,,,,,,,,,,,,,,,,,,,,,,,,,,,,,,,,,,,
,,,,,,,,,,602ad4a0805527185ca10247,24,Mężczyzna,2022-06-04_08h09.33.706,task,2021.1.4,Win32,60.1612321,628b806c463b948bc644b84f,629af6eb62b88c7e7755bf94,,,,,1,0,1,0,1,X V Q F H G B L J M P D K C T S W R N Z,,,,,,,,,,,,,,,,,,,,,,,,,,,,,,,,,,,,,,,,,,,,,,,,,,,,,,,,,,,,,,,,,,,,,,,,,,,,,,,,,,,,,,,,,,,,,
,,,,,,,,,,602ad4a0805527185ca10247,24,Mężczyzna,2022-06-04_08h09.33.706,task,2021.1.4,Win32,60.1612321,628b806c463b948bc644b84f,629af6eb62b88c7e7755bf94,,,,,2,0,2,0,1,X V Q F H G B L J M P D K C T S W R N Z,,,,,,,,,,,,,,,,,,,,,,,,,,,,,,,,,,,,,,,,,,,,,,,,,,,,,,,,,,,,,,,,,,,,,,,,,,,,,,,,,,,,,,,,,,,,,
,,,,,,,,,,602ad4a0805527185ca10247,24,Mężczyzna,2022-06-04_08h09.33.706,task,2021.1.4,Win32,60.1612321,628b806c463b948bc644b84f,629af6eb62b88c7e7755bf94,,,,,3,0,3,0,1,X V Q F H G B L J M P D K C T S W R N Z,,,,,,,,,,,,,,,,,,,,,,,,,,,,,,,,,,,,,,,,,,,,,,,,,,,,,,,,,,,,,,,,,,,,,,,,,,,,,,,,,,,,,,,,,,,,,
,,,,,,,,,,602ad4a0805527185ca10247,24,Mężczyzna,2022-06-04_08h09.33.706,task,2021.1.4,Win32,60.1612321,628b806c463b948bc644b84f,629af6eb62b88c7e7755bf94,,,,,4,0,4,0,1,X V Q F H G B L J M P D K C T S W R N Z,,,,,,,,,,,,,,,,,,,,,,,,,,,,,,,,,,,,,,,,,,,,,,,,,,,,,,,,,,,,,,,,,,,,,,,,,,,,,,,,,,,,,,,,,,,,,
,,,,,,,,,,602ad4a0805527185ca10247,24,Mężczyzna,2022-06-04_08h09.33.706,task,2021.1.4,Win32,60.1612321,628b806c463b948bc644b84f,629af6eb62b88c7e7755bf94,,,,,5,0,5,0,1,X V Q F H G B L J M P D K C T S W R N Z,,,,,,,,,,,,,,,,,,,,,,,,,,,,,,,,,,,,,,,,,,,,,,,,,,,,,,,,,,,,,,,,,,,,,,,,,,,,,,,,,,,,,,,,,,,,,
,,,,,,,,,,602ad4a0805527185ca10247,24,Mężczyzna,2022-06-04_08h09.33.706,task,2021.1.4,Win32,60.1612321,628b806c463b948bc644b84f,629af6eb62b88c7e7755bf94,,,,,6,0,6,0,1,X V Q F H G B L J M P D K C T S W R N Z,,,,,,,,,,,,,,,,,,,,,,,,,,,,,,,,,,,,,,,,,,,,,,,,,,,,,,,,,,,,,,,,,,,,,,,,,,,,,,,,,,,,,,,,,,,,,
,,,,,,,,,,602ad4a0805527185ca10247,24,Mężczyzna,2022-06-04_08h09.33.706,task,2021.1.4,Win32,60.1612321,628b806c463b948bc644b84f,629af6eb62b88c7e7755bf94,,,,,7,0,7,0,1,X V Q F H G B L J M P D K C T S W R N Z,,,,,,,,,,,,,,,,,,,,,,,,,,,,,,,,,,,,,,,,,,,,,,,,,,,,,,,,,,,,,,,,,,,,,,,,,,,,,,,,,,,,,,,,,,,,,
,,,,,,,,,,602ad4a0805527185ca10247,24,Mężczyzna,2022-06-04_08h09.33.706,task,2021.1.4,Win32,60.1612321,628b806c463b948bc644b84f,629af6eb62b88c7e7755bf94,,,,,,,,,,,ldrnckpb,"[""l"",""d"",""r"",""n"",""c"",""k"",""p"",""b""]","[1.5833000000043285,1.7996000000014192,2.066300000004503,2.3926000000014938,3.0497000000029857,4.033100000001468,4.249600000001465,4.416400000005979,4.556600000001481]",0,LDRCNKPB,12,0,12,0,1,,,,,,,,,,,,,,,,,,,,,,,,,,,,,,,,,,,,,,,,,,,,,,,,,,,,,,,,,,,,,,,,,,,,,,,,,,,,,,,,,,,
,,,,,,,,,,602ad4a0805527185ca10247,24,Mężczyzna,2022-06-04_08h09.33.706,task,2021.1.4,Win32,60.1612321,628b806c463b948bc644b84f,629af6eb62b88c7e7755bf94,,,,,0,0,0,0,1,X V Q F H G B L J M P D K C T S W R N Z,,,,,,,,,,,,,,,,,,,,,,,,,,,,,,,,,,,,,,,,,,,,,,,,,,,,,,,,,,,,,,,,,,,,,,,,,,,,,,,,,,,,,,,,,,,,,
,,,,,,,,,,602ad4a0805527185ca10247,24,Mężczyzna,2022-06-04_08h09.33.706,task,2021.1.4,Win32,60.1612321,628b806c463b948bc644b84f,629af6eb62b88c7e7755bf94,,,,,1,0,1,0,1,X V Q F H G B L J M P D K C T S W R N Z,,,,,,,,,,,,,,,,,,,,,,,,,,,,,,,,,,,,,,,,,,,,,,,,,,,,,,,,,,,,,,,,,,,,,,,,,,,,,,,,,,,,,,,,,,,,,
,,,,,,,,,,602ad4a0805527185ca10247,24,Mężczyzna,2022-06-04_08h09.33.706,task,2021.1.4,Win32,60.1612321,628b806c463b948bc644b84f,629af6eb62b88c7e7755bf94,,,,,2,0,2,0,1,X V Q F H G B L J M P D K C T S W R N Z,,,,,,,,,,,,,,,,,,,,,,,,,,,,,,,,,,,,,,,,,,,,,,,,,,,,,,,,,,,,,,,,,,,,,,,,,,,,,,,,,,,,,,,,,,,,,
,,,,,,,,,,602ad4a0805527185ca10247,24,Mężczyzna,2022-06-04_08h09.33.706,task,2021.1.4,Win32,60.1612321,628b806c463b948bc644b84f,629af6eb62b88c7e7755bf94,,,,,3,0,3,0,1,X V Q F H G B L J M P D K C T S W R N Z,,,,,,,,,,,,,,,,,,,,,,,,,,,,,,,,,,,,,,,,,,,,,,,,,,,,,,,,,,,,,,,,,,,,,,,,,,,,,,,,,,,,,,,,,,,,,
,,,,,,,,,,602ad4a0805527185ca10247,24,Mężczyzna,2022-06-04_08h09.33.706,task,2021.1.4,Win32,60.1612321,628b806c463b948bc644b84f,629af6eb62b88c7e7755bf94,,,,,4,0,4,0,1,X V Q F H G B L J M P D K C T S W R N Z,,,,,,,,,,,,,,,,,,,,,,,,,,,,,,,,,,,,,,,,,,,,,,,,,,,,,,,,,,,,,,,,,,,,,,,,,,,,,,,,,,,,,,,,,,,,,
,,,,,,,,,,602ad4a0805527185ca10247,24,Mężczyzna,2022-06-04_08h09.33.706,task,2021.1.4,Win32,60.1612321,628b806c463b948bc644b84f,629af6eb62b88c7e7755bf94,,,,,5,0,5,0,1,X V Q F H G B L J M P D K C T S W R N Z,,,,,,,,,,,,,,,,,,,,,,,,,,,,,,,,,,,,,,,,,,,,,,,,,,,,,,,,,,,,,,,,,,,,,,,,,,,,,,,,,,,,,,,,,,,,,
,,,,,,,,,,602ad4a0805527185ca10247,24,Mężczyzna,2022-06-04_08h09.33.706,task,2021.1.4,Win32,60.1612321,628b806c463b948bc644b84f,629af6eb62b88c7e7755bf94,,,,,6,0,6,0,1,X V Q F H G B L J M P D K C T S W R N Z,,,,,,,,,,,,,,,,,,,,,,,,,,,,,,,,,,,,,,,,,,,,,,,,,,,,,,,,,,,,,,,,,,,,,,,,,,,,,,,,,,,,,,,,,,,,,
,,,,,,,,,,602ad4a0805527185ca10247,24,Mężczyzna,2022-06-04_08h09.33.706,task,2021.1.4,Win32,60.1612321,628b806c463b948bc644b84f,629af6eb62b88c7e7755bf94,,,,,7,0,7,0,1,X V Q F H G B L J M P D K C T S W R N Z,,,,,,,,,,,,,,,,,,,,,,,,,,,,,,,,,,,,,,,,,,,,,,,,,,,,,,,,,,,,,,,,,,,,,,,,,,,,,,,,,,,,,,,,,,,,,
,,,,,,,,,,602ad4a0805527185ca10247,24,Mężczyzna,2022-06-04_08h09.33.706,task,2021.1.4,Win32,60.1612321,628b806c463b948bc644b84f,629af6eb62b88c7e7755bf94,,,,,,,,,,,gkwgvnkg,"[""g"",""k"",""w"",""g"",""v"",""n"",""k"",""g""]","[0.6258999999984098,1.2025000000001,1.4515999999939595,1.9230000000000018,4.0528999999985444,4.565199999995457,5.833099999994147,5.969899999998461,6.166699999995444]",0,GKWGVGNR,13,0,13,0,1,,,,,,,,,,,,,,,,,,,,,,,,,,,,,,,,,,,,,,,,,,,,,,,,,,,,,,,,,,,,,,,,,,,,,,,,,,,,,,,,,,,
,,,,,,,,,,602ad4a0805527185ca10247,24,Mężczyzna,2022-06-04_08h09.33.706,task,2021.1.4,Win32,60.1612321,628b806c463b948bc644b84f,629af6eb62b88c7e7755bf94,,,,,0,0,0,0,1,X V Q F H G B L J M P D K C T S W R N Z,,,,,,,,,,,,,,,,,,,,,,,,,,,,,,,,,,,,,,,,,,,,,,,,,,,,,,,,,,,,,,,,,,,,,,,,,,,,,,,,,,,,,,,,,,,,,
,,,,,,,,,,602ad4a0805527185ca10247,24,Mężczyzna,2022-06-04_08h09.33.706,task,2021.1.4,Win32,60.1612321,628b806c463b948bc644b84f,629af6eb62b88c7e7755bf94,,,,,1,0,1,0,1,X V Q F H G B L J M P D K C T S W R N Z,,,,,,,,,,,,,,,,,,,,,,,,,,,,,,,,,,,,,,,,,,,,,,,,,,,,,,,,,,,,,,,,,,,,,,,,,,,,,,,,,,,,,,,,,,,,,
,,,,,,,,,,602ad4a0805527185ca10247,24,Mężczyzna,2022-06-04_08h09.33.706,task,2021.1.4,Win32,60.1612321,628b806c463b948bc644b84f,629af6eb62b88c7e7755bf94,,,,,2,0,2,0,1,X V Q F H G B L J M P D K C T S W R N Z,,,,,,,,,,,,,,,,,,,,,,,,,,,,,,,,,,,,,,,,,,,,,,,,,,,,,,,,,,,,,,,,,,,,,,,,,,,,,,,,,,,,,,,,,,,,,
,,,,,,,,,,602ad4a0805527185ca10247,24,Mężczyzna,2022-06-04_08h09.33.706,task,2021.1.4,Win32,60.1612321,628b806c463b948bc644b84f,629af6eb62b88c7e7755bf94,,,,,3,0,3,0,1,X V Q F H G B L J M P D K C T S W R N Z,,,,,,,,,,,,,,,,,,,,,,,,,,,,,,,,,,,,,,,,,,,,,,,,,,,,,,,,,,,,,,,,,,,,,,,,,,,,,,,,,,,,,,,,,,,,,
,,,,,,,,,,602ad4a0805527185ca10247,24,Mężczyzna,2022-06-04_08h09.33.706,task,2021.1.4,Win32,60.1612321,628b806c463b948bc644b84f,629af6eb62b88c7e7755bf94,,,,,4,0,4,0,1,X V Q F H G B L J M P D K C T S W R N Z,,,,,,,,,,,,,,,,,,,,,,,,,,,,,,,,,,,,,,,,,,,,,,,,,,,,,,,,,,,,,,,,,,,,,,,,,,,,,,,,,,,,,,,,,,,,,
,,,,,,,,,,602ad4a0805527185ca10247,24,Mężczyzna,2022-06-04_08h09.33.706,task,2021.1.4,Win32,60.1612321,628b806c463b948bc644b84f,629af6eb62b88c7e7755bf94,,,,,5,0,5,0,1,X V Q F H G B L J M P D K C T S W R N Z,,,,,,,,,,,,,,,,,,,,,,,,,,,,,,,,,,,,,,,,,,,,,,,,,,,,,,,,,,,,,,,,,,,,,,,,,,,,,,,,,,,,,,,,,,,,,
,,,,,,,,,,602ad4a0805527185ca10247,24,Mężczyzna,2022-06-04_08h09.33.706,task,2021.1.4,Win32,60.1612321,628b806c463b948bc644b84f,629af6eb62b88c7e7755bf94,,,,,6,0,6,0,1,X V Q F H G B L J M P D K C T S W R N Z,,,,,,,,,,,,,,,,,,,,,,,,,,,,,,,,,,,,,,,,,,,,,,,,,,,,,,,,,,,,,,,,,,,,,,,,,,,,,,,,,,,,,,,,,,,,,
,,,,,,,,,,602ad4a0805527185ca10247,24,Mężczyzna,2022-06-04_08h09.33.706,task,2021.1.4,Win32,60.1612321,628b806c463b948bc644b84f,629af6eb62b88c7e7755bf94,,,,,7,0,7,0,1,X V Q F H G B L J M P D K C T S W R N Z,,,,,,,,,,,,,,,,,,,,,,,,,,,,,,,,,,,,,,,,,,,,,,,,,,,,,,,,,,,,,,,,,,,,,,,,,,,,,,,,,,,,,,,,,,,,,
,,,,,,,,,,602ad4a0805527185ca10247,24,Mężczyzna,2022-06-04_08h09.33.706,task,2021.1.4,Win32,60.1612321,628b806c463b948bc644b84f,629af6eb62b88c7e7755bf94,,,,,,,,,,,fznltxwh,"[""f"",""z"",""n"",""l"",""t"",""x"",""w"",""h""]","[0.40469999999550055,0.6167999999970561,1.1825999999941814,1.5836999999955879,1.8836999999955424,3.2550999999941723,3.7253999999984444,4.400399999998626,4.515699999995604]",0,FZNLSTXW,14,0,14,0,1,,,,,,,,,,,,,,,,,,,,,,,,,,,,,,,,,,,,,,,,,,,,,,,,,,,,,,,,,,,,,,,,,,,,,,,,,,,,,,,,,,,
,,,,,,,,,,602ad4a0805527185ca10247,24,Mężczyzna,2022-06-04_08h09.33.706,task,2021.1.4,Win32,60.1612321,628b806c463b948bc644b84f,629af6eb62b88c7e7755bf94,,,,,,,,,,,,,,,,,,,,,space,6.2308,3,"[""3""]",1,[5.927699999995639],[5.927699999995639],0,0,0,3,1,Practice,4,(8/4) + 1,3,,,,,,,,,,,,,,,,,,,,,,,,,,,,,,,,,,,,,,,,,,,,,,,,,,,,,,,,,,,,,,,,,,,
,,,,,,,,,,602ad4a0805527185ca10247,24,Mężczyzna,2022-06-04_08h09.33.706,task,2021.1.4,Win32,60.1612321,628b806c463b948bc644b84f,629af6eb62b88c7e7755bf94,,,,,,,,,,,,,,,,,,,,,,,6,"[""6""]",1,[6.092800000004445],"[5.927699999995639,6.092800000004445]",0,1,1,6,1,Practice,7,(25/5) + 1,6,,,,,,,,,,,,,,,,,,,,,,,,,,,,,,,,,,,,,,,,,,,,,,,,,,,,,,,,,,,,,,,,,,,
,,,,,,,,,,602ad4a0805527185ca10247,24,Mężczyzna,2022-06-04_08h09.33.706,task,2021.1.4,Win32,60.1612321,628b806c463b948bc644b84f,629af6eb62b88c7e7755bf94,,,,,,,,,,,,,,,,,,,,,,,1,"[""1""]",1,[3.6140000000000327],"[5.927699999995639,6.092800000004445,3.6140000000000327]",0,2,2,1,1,Practice,2,(4x4) - 15,1,,,,,,,,,,,,,,,,,,,,,,,,,,,,,,,,,,,,,,,,,,,,,,,,,,,,,,,,,,,,,,,,,,,
,,,,,,,,,,602ad4a0805527185ca10247,24,Mężczyzna,2022-06-04_08h09.33.706,task,2021.1.4,Win32,60.1612321,628b806c463b948bc644b84f,629af6eb62b88c7e7755bf94,,,,,,,,,,,,,,,,,,,,,,,9,"[""9""]",1,[2.45339999999851],"[5.927699999995639,6.092800000004445,3.6140000000000327,2.45339999999851]",0,3,3,9,1,Practice,10,(20/2) - 1,9,,,,,,,,,,,,,,,,,,,,,,,,,,,,,,,,,,,,,,,,,,,,,,,,,,,,,,,,,,,,,,,,,,,
,,,,,,,,,,602ad4a0805527185ca10247,24,Mężczyzna,2022-06-04_08h09.33.706,task,2021.1.4,Win32,60.1612321,628b806c463b948bc644b84f,629af6eb62b88c7e7755bf94,,,,,,,,,,,,,,,,,,,,,,,0,"[""0""]",1,[2.9612999999969816],"[5.927699999995639,6.092800000004445,3.6140000000000327,2.45339999999851,2.9612999999969816]",0,4,4,0,1,Practice,1,(3x3) -  9,0,,,,,,,,,,,,,,,,,,,,,,,,,,,,,,,,,,,,,,,,,,,,,,,,,,,,,,,,,,,,,,,,,,,
,,,,,,,,,,602ad4a0805527185ca10247,24,Mężczyzna,2022-06-04_08h09.33.706,task,2021.1.4,Win32,60.1612321,628b806c463b948bc644b84f,629af6eb62b88c7e7755bf94,,,,,,,,,,,,,,,,,,,,,,,9,"[""9""]",0,[2.3276999999957297],"[5.927699999995639,6.092800000004445,3.6140000000000327,2.45339999999851,2.9612999999969816,2.3276999999957297]",0,5,5,8,1,Practice,9,(3x3) - 1,8,,,,,,,,,,,,,,,,,,,,,,,,,,,,,,,,,,,,,,,,,,,,,,,,,,,,,,,,,,,,,,,,,,,
,,,,,,,,,,602ad4a0805527185ca10247,24,Mężczyzna,2022-06-04_08h09.33.706,task,2021.1.4,Win32,60.1612321,628b806c463b948bc644b84f,629af6eb62b88c7e7755bf94,,,,,,,,,,,,,,,,,,,,,,,5,"[""5""]",1,[7.997399999998606],"[5.927699999995639,6.092800000004445,3.6140000000000327,2.45339999999851,2.9612999999969816,2.3276999999957297,7.997399999998606]",0,6,6,5,1,Practice,6,(4/2) + 3,5,,,,,,,,,,,,,,,,,,,,,,,,,,,,,,,,,,,,,,,,,,,,,,,,,,,,,,,,,,,,,,,,,,,
,,,,,,,,,,602ad4a0805527185ca10247,24,Mężczyzna,2022-06-04_08h09.33.706,task,2021.1.4,Win32,60.1612321,628b806c463b948bc644b84f,629af6eb62b88c7e7755bf94,,,,,,,,,,,,,,,,,,,,,,,4,"[""4""]",1,[2.7359999999998763],"[5.927699999995639,6.092800000004445,3.6140000000000327,2.45339999999851,2.9612999999969816,2.3276999999957297,7.997399999998606,2.7359999999998763]",0,7,7,4,1,Practice,5,(2x6) - 8,4,,,,,,,,,,,,,,,,,,,,,,,,,,,,,,,,,,,,,,,,,,,,,,,,,,,,,,,,,,,,,,,,,,,
,,,,,,,,,,602ad4a0805527185ca10247,24,Mężczyzna,2022-06-04_08h09.33.706,task,2021.1.4,Win32,60.1612321,628b806c463b948bc644b84f,629af6eb62b88c7e7755bf94,,,,,,,,,,,,,,,,,,,,,,,2,"[""2""]",1,[5.032999999999902],"[5.927699999995639,6.092800000004445,3.6140000000000327,2.45339999999851,2.9612999999969816,2.3276999999957297,7.997399999998606,2.7359999999998763,5.032999999999902]",0,8,8,2,1,Practice,3,(4x4) - 14,2,,,,,,,,,,,,,,,,,,,,,,,,,,,,,,,,,,,,,,,,,,,,,,,,,,,,,,,,,,,,,,,,,,,
,,,,,,,,,,602ad4a0805527185ca10247,24,Mężczyzna,2022-06-04_08h09.33.706,task,2021.1.4,Win32,60.1612321,628b806c463b948bc644b84f,629af6eb62b88c7e7755bf94,,,,,,,,,,,,,,,,,,,,,,,7,"[""7""]",1,[4.650199999995493],"[5.927699999995639,6.092800000004445,3.6140000000000327,2.45339999999851,2.9612999999969816,2.3276999999957297,7.997399999998606,2.7359999999998763,5.032999999999902,4.650199999995493]",0,9,9,7,1,Practice,8,(5x5) - 18,7,,,,,,,,,,,,,,,,,,,,,,,,,,,,,,,,,,,,,,,,,,,,,,,,,,,,,,,,,,,,,,,,,,,
,,,,,,,,,,602ad4a0805527185ca10247,24,Mężczyzna,2022-06-04_08h09.33.706,task,2021.1.4,Win32,60.1612321,628b806c463b948bc644b84f,629af6eb62b88c7e7755bf94,,,,,,,,,,,,,,,,,,,,,,,,,,,,,,,,,,,,,0.9,43.7935,2.919566667,53.44965305,1.887673225,7.789763586,space,1.1852,0,0,0,0,1,,,,,,,,,,,,,,,,,,,,,,,,,,,,,,,,,,,,,,,,,,,,,,,,,,,,,,
,,,,,,,,,,602ad4a0805527185ca10247,24,Mężczyzna,2022-06-04_08h09.33.706,task,2021.1.4,Win32,60.1612321,628b806c463b948bc644b84f,629af6eb62b88c7e7755bf94,,,,,,,,,,,,,,,,,,,,,,,9,,,,,,,,,,Practice,10,(20/2) - 1,9,,,,,,,,,,,,,,space,10.6188,"[""9""]",1,[2.5263999999983753],1,0,0,0,9,1,,,,,,,,,,,,,,,,,,,,,,,,,,,,,,,,,,,,,,,,,,,
,,,,,,,,,,602ad4a0805527185ca10247,24,Mężczyzna,2022-06-04_08h09.33.706,task,2021.1.4,Win32,60.1612321,628b806c463b948bc644b84f,629af6eb62b88c7e7755bf94,,,,,,,,,,X V Q F H G B L J M P D K C T S W R N Z,,,,,,,,,,,,,,,,,,,,,,,,,,,,,,,,,,,,,,,,,,,,,,,,,,,0,0,0,0,1,,,,,,,,,,,,,,,,,,,,,,,,,,,,,,,,,,,,,,
,,,,,,,,,,602ad4a0805527185ca10247,24,Mężczyzna,2022-06-04_08h09.33.706,task,2021.1.4,Win32,60.1612321,628b806c463b948bc644b84f,629af6eb62b88c7e7755bf94,,,,,,,,,,,,,,,,,,,,,,,3,,,,,,,,,,Practice,4,(8/4) + 1,3,,,,,,,,,,,,,,,,"[""3""]",1,[4.175299999997151],1,0,0,0,3,1,,,,,,,,,,,,,,,,,,,,,,,,,,,,,,,,,,,,,,,,,,,
,,,,,,,,,,602ad4a0805527185ca10247,24,Mężczyzna,2022-06-04_08h09.33.706,task,2021.1.4,Win32,60.1612321,628b806c463b948bc644b84f,629af6eb62b88c7e7755bf94,,,,,,,,,,X V Q F H G B L J M P D K C T S W R N Z,,,,,,,,,,,,,,,,,,,,,,,,,,,,,,,,,,,,,,,,,,,,,,,,,,,1,0,1,0,1,,,,,,,,,,,,,,,,,,,,,,,,,,,,,,,,,,,,,,
,,,,,,,,,,602ad4a0805527185ca10247,24,Mężczyzna,2022-06-04_08h09.33.706,task,2021.1.4,Win32,60.1612321,628b806c463b948bc644b84f,629af6eb62b88c7e7755bf94,,,,,,,,,,,,,,,,,,,,,,,,,,,,,,,,,,,,,,,,,,,,,,,,,,,,,,,,,,,,,,,,,,zj,"[""z"",""j""]",0,"[1.7512000000031094,1.8410000000001219,2.084500000000162]",1,0,0,0,0,1,,,,,,,,,,,,,,,,,,,,,,,,,,,,
,,,,,,,,,,602ad4a0805527185ca10247,24,Mężczyzna,2022-06-04_08h09.33.706,task,2021.1.4,Win32,60.1612321,628b806c463b948bc644b84f,629af6eb62b88c7e7755bf94,,,,,,,,,,,,,,,,,,,,,,,6,,,,,,,,,,Practice,7,(25/5) + 1,6,,,,,,,,,,,,,,,,"[""6""]",1,[2.658200000003035],1,0,0,0,6,1,,,,,,,,,,,,,,,,,,,,,,,,,,,,,,,,,,,,,,,,,,,
,,,,,,,,,,602ad4a0805527185ca10247,24,Mężczyzna,2022-06-04_08h09.33.706,task,2021.1.4,Win32,60.1612321,628b806c463b948bc644b84f,629af6eb62b88c7e7755bf94,,,,,,,,,,X V Q F H G B L J M P D K C T S W R N Z,,,,,,,,,,,,,,,,,,,,,,,,,,,,,,,,,,,,,,,,,,,,,,,,,,,0,0,0,0,1,,,,,,,,,,,,,,,,,,,,,,,,,,,,,,,,,,,,,,
,,,,,,,,,,602ad4a0805527185ca10247,24,Mężczyzna,2022-06-04_08h09.33.706,task,2021.1.4,Win32,60.1612321,628b806c463b948bc644b84f,629af6eb62b88c7e7755bf94,,,,,,,,,,,,,,,,,,,,,,,8,,,,,,,,,,Practice,9,(3x3) - 1,8,,,,,,,,,,,,,,,,"[""8""]",1,[2.75089999999841],1,0,0,0,8,1,,,,,,,,,,,,,,,,,,,,,,,,,,,,,,,,,,,,,,,,,,,
,,,,,,,,,,602ad4a0805527185ca10247,24,Mężczyzna,2022-06-04_08h09.33.706,task,2021.1.4,Win32,60.1612321,628b806c463b948bc644b84f,629af6eb62b88c7e7755bf94,,,,,,,,,,X V Q F H G B L J M P D K C T S W R N Z,,,,,,,,,,,,,,,,,,,,,,,,,,,,,,,,,,,,,,,,,,,,,,,,,,,1,0,1,0,1,,,,,,,,,,,,,,,,,,,,,,,,,,,,,,,,,,,,,,
,,,,,,,,,,602ad4a0805527185ca10247,24,Mężczyzna,2022-06-04_08h09.33.706,task,2021.1.4,Win32,60.1612321,628b806c463b948bc644b84f,629af6eb62b88c7e7755bf94,,,,,,,,,,,,,,,,,,,,,,,,,,,,,,,,,,,,,,,,,,,,,,,,,,,,,,,,,,,,,,,,,,np,"[""n"",""p""]",0,"[1.8411999999955242,2.2501000000015665,2.433299999997189]",1,1,0,1,0,1,,,,,,,,,,,,,,,,,,,,,,,,,,,,
,,,,,,,,,,602ad4a0805527185ca10247,24,Mężczyzna,2022-06-04_08h09.33.706,task,2021.1.4,Win32,60.1612321,628b806c463b948bc644b84f,629af6eb62b88c7e7755bf94,,,,,,,,,,,,,,,,,,,,,,,0,,,,,,,,,,Practice,1,(3x3) -  9,0,,,,,,,,,,,,,,,,"[""0""]",1,[1.9723999999985153],1,0,0,0,0,1,,,,,,,,,,,,,,,,,,,,,,,,,,,,,,,,,,,,,,,,,,,
,,,,,,,,,,602ad4a0805527185ca10247,24,Mężczyzna,2022-06-04_08h09.33.706,task,2021.1.4,Win32,60.1612321,628b806c463b948bc644b84f,629af6eb62b88c7e7755bf94,,,,,,,,,,X V Q F H G B L J M P D K C T S W R N Z,,,,,,,,,,,,,,,,,,,,,,,,,,,,,,,,,,,,,,,,,,,,,,,,,,,0,0,0,0,1,,,,,,,,,,,,,,,,,,,,,,,,,,,,,,,,,,,,,,
,,,,,,,,,,602ad4a0805527185ca10247,24,Mężczyzna,2022-06-04_08h09.33.706,task,2021.1.4,Win32,60.1612321,628b806c463b948bc644b84f,629af6eb62b88c7e7755bf94,,,,,,,,,,,,,,,,,,,,,,,4,,,,,,,,,,Practice,5,(2x6) - 8,4,,,,,,,,,,,,,,,,"[""4""]",1,[3.3718999999985044],1,0,0,0,4,1,,,,,,,,,,,,,,,,,,,,,,,,,,,,,,,,,,,,,,,,,,,
,,,,,,,,,,602ad4a0805527185ca10247,24,Mężczyzna,2022-06-04_08h09.33.706,task,2021.1.4,Win32,60.1612321,628b806c463b948bc644b84f,629af6eb62b88c7e7755bf94,,,,,,,,,,X V Q F H G B L J M P D K C T S W R N Z,,,,,,,,,,,,,,,,,,,,,,,,,,,,,,,,,,,,,,,,,,,,,,,,,,,1,0,1,0,1,,,,,,,,,,,,,,,,,,,,,,,,,,,,,,,,,,,,,,
,,,,,,,,,,602ad4a0805527185ca10247,24,Mężczyzna,2022-06-04_08h09.33.706,task,2021.1.4,Win32,60.1612321,628b806c463b948bc644b84f,629af6eb62b88c7e7755bf94,,,,,,,,,,,,,,,,,,,,,,,,,,,,,,,,,,,,,,,,,,,,,,,,,,,,,,,,,,,,,,,,,,bb,"[""b"",""b""]",0,"[1.566099999994094,1.7394999999999072,2.0711999999955424]",1,2,0,2,0,1,,,,,,,,,,,,,,,,,,,,,,,,,,,,
,,,,,,,,,,602ad4a0805527185ca10247,24,Mężczyzna,2022-06-04_08h09.33.706,task,2021.1.4,Win32,60.1612321,628b806c463b948bc644b84f,629af6eb62b88c7e7755bf94,,,,,,,,,,,,,,,,,,,,,,,6,,,,,,,,,,Task,30,(6/3) + 4 ,6,,,,,,,,,,,,,,,,,,,1,,,,,,,,,,,,,,,,,,,,,space,8.8989,"[""6""]",1,[4.005499999999984],0,0,0,29,1,,,,,,,,,,,,,,,,,,
,,,,,,,,,,602ad4a0805527185ca10247,24,Mężczyzna,2022-06-04_08h09.33.706,task,2021.1.4,Win32,60.1612321,628b806c463b948bc644b84f,629af6eb62b88c7e7755bf94,,,,,,,,,,X V Q F H G B L J M P D K C T S W R N Z,,,,,,,,,,,,,,,,,,,,,,,,,,,,,,,,,,,,,,,,,,,,,,,,,,,,,,,,,,,,,,,,,,,,,,,,,,,,0,0,0,0,1,,,,,,,,,,,,,
,,,,,,,,,,602ad4a0805527185ca10247,24,Mężczyzna,2022-06-04_08h09.33.706,task,2021.1.4,Win32,60.1612321,628b806c463b948bc644b84f,629af6eb62b88c7e7755bf94,,,,,,,,,,,,,,,,,,,,,,,4,,,,,,,,,,Task,21,(10/2) - 1,4,,,,,,,,,,,,,,,,,,,1,,,,,,,,,,,,,,,,,,,,,,,"[""4""]",1,[4.677699999995639],0,0,0,20,1,,,,,,,,,,,,,,,,,,
,,,,,,,,,,602ad4a0805527185ca10247,24,Mężczyzna,2022-06-04_08h09.33.706,task,2021.1.4,Win32,60.1612321,628b806c463b948bc644b84f,629af6eb62b88c7e7755bf94,,,,,,,,,,X V Q F H G B L J M P D K C T S W R N Z,,,,,,,,,,,,,,,,,,,,,,,,,,,,,,,,,,,,,,,,,,,,,,,,,,,,,,,,,,,,,,,,,,,,,,,,,,,,1,0,1,0,1,,,,,,,,,,,,,
,,,,,,,,,,602ad4a0805527185ca10247,24,Mężczyzna,2022-06-04_08h09.33.706,task,2021.1.4,Win32,60.1612321,628b806c463b948bc644b84f,629af6eb62b88c7e7755bf94,,,,,,,,,,,,,,,,,,,,,,,,,,,,,,,,,,,,,,,,,,,,,,,,,,,,,,,,,,,,,,,,,,,,,,,,,,,,,,,,,,,,,,,,,,,zs,"[""z"",""s""]",0,"[1.6244999999998981,1.73139999999853,2.588800000004312]",1,ZS,0,0,0,0,1,,
,,,,,,,,,,602ad4a0805527185ca10247,24,Mężczyzna,2022-06-04_08h09.33.706,task,2021.1.4,Win32,60.1612321,628b806c463b948bc644b84f,629af6eb62b88c7e7755bf94,,,,,,,,,,,,,,,,,,,,,,,3,,,,,,,,,,Task,27,(3/3) + 2,3,,,,,,,,,,,,,,,,,,,1,,,,,,,,,,,,,,,,,,,,,,,"[""3""]",1,[2.6337999999968815],0,0,0,26,1,,,,,,,,,,,,,,,,,,
,,,,,,,,,,602ad4a0805527185ca10247,24,Mężczyzna,2022-06-04_08h09.33.706,task,2021.1.4,Win32,60.1612321,628b806c463b948bc644b84f,629af6eb62b88c7e7755bf94,,,,,,,,,,X V Q F H G B L J M P D K C T S W R N Z,,,,,,,,,,,,,,,,,,,,,,,,,,,,,,,,,,,,,,,,,,,,,,,,,,,,,,,,,,,,,,,,,,,,,,,,,,,,0,0,0,0,1,,,,,,,,,,,,,
,,,,,,,,,,602ad4a0805527185ca10247,24,Mężczyzna,2022-06-04_08h09.33.706,task,2021.1.4,Win32,60.1612321,628b806c463b948bc644b84f,629af6eb62b88c7e7755bf94,,,,,,,,,,,,,,,,,,,,,,,0,,,,,,,,,,Task,25,(10/5) - 2,0,,,,,,,,,,,,,,,,,,,1,,,,,,,,,,,,,,,,,,,,,,,"[""0""]",1,[2.5997999999970034],0,0,0,24,1,,,,,,,,,,,,,,,,,,
,,,,,,,,,,602ad4a0805527185ca10247,24,Mężczyzna,2022-06-04_08h09.33.706,task,2021.1.4,Win32,60.1612321,628b806c463b948bc644b84f,629af6eb62b88c7e7755bf94,,,,,,,,,,X V Q F H G B L J M P D K C T S W R N Z,,,,,,,,,,,,,,,,,,,,,,,,,,,,,,,,,,,,,,,,,,,,,,,,,,,,,,,,,,,,,,,,,,,,,,,,,,,,1,0,1,0,1,,,,,,,,,,,,,
,,,,,,,,,,602ad4a0805527185ca10247,24,Mężczyzna,2022-06-04_08h09.33.706,task,2021.1.4,Win32,60.1612321,628b806c463b948bc644b84f,629af6eb62b88c7e7755bf94,,,,,,,,,,,,,,,,,,,,,,,1,,,,,,,,,,Task,34,(9/3) - 2,1,,,,,,,,,,,,,,,,,,,1,,,,,,,,,,,,,,,,,,,,,,,"[""1""]",1,[3.7787999999970907],0,0,0,33,1,,,,,,,,,,,,,,,,,,
,,,,,,,,,,602ad4a0805527185ca10247,24,Mężczyzna,2022-06-04_08h09.33.706,task,2021.1.4,Win32,60.1612321,628b806c463b948bc644b84f,629af6eb62b88c7e7755bf94,,,,,,,,,,X V Q F H G B L J M P D K C T S W R N Z,,,,,,,,,,,,,,,,,,,,,,,,,,,,,,,,,,,,,,,,,,,,,,,,,,,,,,,,,,,,,,,,,,,,,,,,,,,,2,0,2,0,1,,,,,,,,,,,,,
,,,,,,,,,,602ad4a0805527185ca10247,24,Mężczyzna,2022-06-04_08h09.33.706,task,2021.1.4,Win32,60.1612321,628b806c463b948bc644b84f,629af6eb62b88c7e7755bf94,,,,,,,,,,,,,,,,,,,,,,,,,,,,,,,,,,,,,,,,,,,,,,,,,,,,,,,,,,,,,,,,,,,,,,,,,,,,,,,,,,,,,,,,,,,tvp,"[""t"",""v"",""p""]",0,"[1.5568999999984499,1.8297000000029584,2.4921000000015283,2.7118999999984226]",1,TVP,1,0,1,0,1,,
,,,,,,,,,,602ad4a0805527185ca10247,24,Mężczyzna,2022-06-04_08h09.33.706,task,2021.1.4,Win32,60.1612321,628b806c463b948bc644b84f,629af6eb62b88c7e7755bf94,,,,,,,,,,,,,,,,,,,,,,,4,,,,,,,,,,Task,4,(1x5) - 1,4,,,,,,,,,,,,,,,,,,,1,,,,,,,,,,,,,,,,,,,,,,,"[""4""]",1,[3.1337999999968815],0,0,0,3,1,,,,,,,,,,,,,,,,,,
,,,,,,,,,,602ad4a0805527185ca10247,24,Mężczyzna,2022-06-04_08h09.33.706,task,2021.1.4,Win32,60.1612321,628b806c463b948bc644b84f,629af6eb62b88c7e7755bf94,,,,,,,,,,X V Q F H G B L J M P D K C T S W R N Z,,,,,,,,,,,,,,,,,,,,,,,,,,,,,,,,,,,,,,,,,,,,,,,,,,,,,,,,,,,,,,,,,,,,,,,,,,,,0,0,0,0,1,,,,,,,,,,,,,
,,,,,,,,,,602ad4a0805527185ca10247,24,Mężczyzna,2022-06-04_08h09.33.706,task,2021.1.4,Win32,60.1612321,628b806c463b948bc644b84f,629af6eb62b88c7e7755bf94,,,,,,,,,,,,,,,,,,,,,,,8,,,,,,,,,,Task,32,(8/2) + 4,8,,,,,,,,,,,,,,,,,,,1,,,,,,,,,,,,,,,,,,,,,,,"[""8""]",1,[4.377700000003188],0,0,0,31,1,,,,,,,,,,,,,,,,,,
,,,,,,,,,,602ad4a0805527185ca10247,24,Mężczyzna,2022-06-04_08h09.33.706,task,2021.1.4,Win32,60.1612321,628b806c463b948bc644b84f,629af6eb62b88c7e7755bf94,,,,,,,,,,X V Q F H G B L J M P D K C T S W R N Z,,,,,,,,,,,,,,,,,,,,,,,,,,,,,,,,,,,,,,,,,,,,,,,,,,,,,,,,,,,,,,,,,,,,,,,,,,,,1,0,1,0,1,,,,,,,,,,,,,
,,,,,,,,,,602ad4a0805527185ca10247,24,Mężczyzna,2022-06-04_08h09.33.706,task,2021.1.4,Win32,60.1612321,628b806c463b948bc644b84f,629af6eb62b88c7e7755bf94,,,,,,,,,,,,,,,,,,,,,,,6,,,,,,,,,,Task,13,(3x4) - 6,6,,,,,,,,,,,,,,,,,,,1,,,,,,,,,,,,,,,,,,,,,,,"[""6""]",1,[3.264299999996865],0,0,0,12,1,,,,,,,,,,,,,,,,,,
,,,,,,,,,,602ad4a0805527185ca10247,24,Mężczyzna,2022-06-04_08h09.33.706,task,2021.1.4,Win32,60.1612321,628b806c463b948bc644b84f,629af6eb62b88c7e7755bf94,,,,,,,,,,X V Q F H G B L J M P D K C T S W R N Z,,,,,,,,,,,,,,,,,,,,,,,,,,,,,,,,,,,,,,,,,,,,,,,,,,,,,,,,,,,,,,,,,,,,,,,,,,,,2,0,2,0,1,,,,,,,,,,,,,
,,,,,,,,,,602ad4a0805527185ca10247,24,Mężczyzna,2022-06-04_08h09.33.706,task,2021.1.4,Win32,60.1612321,628b806c463b948bc644b84f,629af6eb62b88c7e7755bf94,,,,,,,,,,,,,,,,,,,,,,,4,,,,,,,,,,Task,28,(2x5) - 6,4,,,,,,,,,,,,,,,,,,,1,,,,,,,,,,,,,,,,,,,,,,,"[""4""]",1,[3.0170999999938886],0,0,0,27,1,,,,,,,,,,,,,,,,,,
,,,,,,,,,,602ad4a0805527185ca10247,24,Mężczyzna,2022-06-04_08h09.33.706,task,2021.1.4,Win32,60.1612321,628b806c463b948bc644b84f,629af6eb62b88c7e7755bf94,,,,,,,,,,X V Q F H G B L J M P D K C T S W R N Z,,,,,,,,,,,,,,,,,,,,,,,,,,,,,,,,,,,,,,,,,,,,,,,,,,,,,,,,,,,,,,,,,,,,,,,,,,,,3,0,3,0,1,,,,,,,,,,,,,
,,,,,,,,,,602ad4a0805527185ca10247,24,Mężczyzna,2022-06-04_08h09.33.706,task,2021.1.4,Win32,60.1612321,628b806c463b948bc644b84f,629af6eb62b88c7e7755bf94,,,,,,,,,,,,,,,,,,,,,,,,,,,,,,,,,,,,,,,,,,,,,,,,,,,,,,,,,,,,,,,,,,,,,,,,,,,,,,,,,,,,,,,,,,,njtn,"[""n"",""j"",""t"",""n""]",0,"[1.7983999999985372,2.040099999994027,2.4170999999939795,2.735299999996869,3.0685999999939213]",1,NJTN,2,0,2,0,1,,
,,,,,,,,,,602ad4a0805527185ca10247,24,Mężczyzna,2022-06-04_08h09.33.706,task,2021.1.4,Win32,60.1612321,628b806c463b948bc644b84f,629af6eb62b88c7e7755bf94,,,,,,,,,,,,,,,,,,,,,,,1,,,,,,,,,,Task,9,(3x7) - 20,1,,,,,,,,,,,,,,,,,,,1,,,,,,,,,,,,,,,,,,,,,,,"[""1""]",1,[4.990200000002915],0,0,0,8,1,,,,,,,,,,,,,,,,,,
,,,,,,,,,,602ad4a0805527185ca10247,24,Mężczyzna,2022-06-04_08h09.33.706,task,2021.1.4,Win32,60.1612321,628b806c463b948bc644b84f,629af6eb62b88c7e7755bf94,,,,,,,,,,X V Q F H G B L J M P D K C T S W R N Z,,,,,,,,,,,,,,,,,,,,,,,,,,,,,,,,,,,,,,,,,,,,,,,,,,,,,,,,,,,,,,,,,,,,,,,,,,,,0,0,0,0,1,,,,,,,,,,,,,
,,,,,,,,,,602ad4a0805527185ca10247,24,Mężczyzna,2022-06-04_08h09.33.706,task,2021.1.4,Win32,60.1612321,628b806c463b948bc644b84f,629af6eb62b88c7e7755bf94,,,,,,,,,,,,,,,,,,,,,,,,,,,,,,,,,Task,7,(3x7) - 12,9,,,,,,,,,,,,,,,,,,,0,,,,,,,,,,,,,,,,,,,,,,,,0,,0,0,0,6,1,,,,,,,,,,,,,,,,,,
,,,,,,,,,,602ad4a0805527185ca10247,24,Mężczyzna,2022-06-04_08h09.33.706,task,2021.1.4,Win32,60.1612321,628b806c463b948bc644b84f,629af6eb62b88c7e7755bf94,,,,,,,,,,,,,,,,,,,,,,,6,,,,,,,,,,Task,30,(6/3) + 4 ,6,,,,,,,,,,,,,,,,,,,1,,,,,,,,,,,,,,,,,,,,,,,"[""6""]",1,[2.4945999999940796],0,1,1,29,1,,,,,,,,,,,,,,,,,,
,,,,,,,,,,602ad4a0805527185ca10247,24,Mężczyzna,2022-06-04_08h09.33.706,task,2021.1.4,Win32,60.1612321,628b806c463b948bc644b84f,629af6eb62b88c7e7755bf94,,,,,,,,,,X V Q F H G B L J M P D K C T S W R N Z,,,,,,,,,,,,,,,,,,,,,,,,,,,,,,,,,,,,,,,,,,,,,,,,,,,,,,,,,,,,,,,,,,,,,,,,,,,,1,0,1,0,1,,,,,,,,,,,,,
,,,,,,,,,,602ad4a0805527185ca10247,24,Mężczyzna,2022-06-04_08h09.33.706,task,2021.1.4,Win32,60.1612321,628b806c463b948bc644b84f,629af6eb62b88c7e7755bf94,,,,,,,,,,,,,,,,,,,,,,,6,,,,,,,,,,Task,5,(2x3) + 0,6,,,,,,,,,,,,,,,,,,,1,,,,,,,,,,,,,,,,,,,,,,,"[""6""]",1,[1.9841000000014901],0,0,0,4,1,,,,,,,,,,,,,,,,,,
,,,,,,,,,,602ad4a0805527185ca10247,24,Mężczyzna,2022-06-04_08h09.33.706,task,2021.1.4,Win32,60.1612321,628b806c463b948bc644b84f,629af6eb62b88c7e7755bf94,,,,,,,,,,X V Q F H G B L J M P D K C T S W R N Z,,,,,,,,,,,,,,,,,,,,,,,,,,,,,,,,,,,,,,,,,,,,,,,,,,,,,,,,,,,,,,,,,,,,,,,,,,,,2,0,2,0,1,,,,,,,,,,,,,
,,,,,,,,,,602ad4a0805527185ca10247,24,Mężczyzna,2022-06-04_08h09.33.706,task,2021.1.4,Win32,60.1612321,628b806c463b948bc644b84f,629af6eb62b88c7e7755bf94,,,,,,,,,,,,,,,,,,,,,,,6,,,,,,,,,,Task,13,(3x4) - 6,6,,,,,,,,,,,,,,,,,,,1,,,,,,,,,,,,,,,,,,,,,,,"[""6""]",1,[3.4408999999984644],0,0,0,12,1,,,,,,,,,,,,,,,,,,
,,,,,,,,,,602ad4a0805527185ca10247,24,Mężczyzna,2022-06-04_08h09.33.706,task,2021.1.4,Win32,60.1612321,628b806c463b948bc644b84f,629af6eb62b88c7e7755bf94,,,,,,,,,,X V Q F H G B L J M P D K C T S W R N Z,,,,,,,,,,,,,,,,,,,,,,,,,,,,,,,,,,,,,,,,,,,,,,,,,,,,,,,,,,,,,,,,,,,,,,,,,,,,3,0,3,0,1,,,,,,,,,,,,,
,,,,,,,,,,602ad4a0805527185ca10247,24,Mężczyzna,2022-06-04_08h09.33.706,task,2021.1.4,Win32,60.1612321,628b806c463b948bc644b84f,629af6eb62b88c7e7755bf94,,,,,,,,,,,,,,,,,,,,,,,2,,,,,,,,,,Task,10,(2x5) - 8,2,,,,,,,,,,,,,,,,,,,1,,,,,,,,,,,,,,,,,,,,,,,"[""2""]",1,[3.106199999995397],0,0,0,9,1,,,,,,,,,,,,,,,,,,
,,,,,,,,,,602ad4a0805527185ca10247,24,Mężczyzna,2022-06-04_08h09.33.706,task,2021.1.4,Win32,60.1612321,628b806c463b948bc644b84f,629af6eb62b88c7e7755bf94,,,,,,,,,,X V Q F H G B L J M P D K C T S W R N Z,,,,,,,,,,,,,,,,,,,,,,,,,,,,,,,,,,,,,,,,,,,,,,,,,,,,,,,,,,,,,,,,,,,,,,,,,,,,4,0,4,0,1,,,,,,,,,,,,,
,,,,,,,,,,602ad4a0805527185ca10247,24,Mężczyzna,2022-06-04_08h09.33.706,task,2021.1.4,Win32,60.1612321,628b806c463b948bc644b84f,629af6eb62b88c7e7755bf94,,,,,,,,,,,,,,,,,,,,,,,,,,,,,,,,,,,,,,,,,,,,,,,,,,,,,,,,,,,,,,,,,,,,,,,,,,,,,,,,,,,,,,,,,,,fpndx,"[""f"",""p"",""n"",""d"",""x""]",0,"[1.9163999999984753,2.4173999999984517,2.7415000000000873,3.1560999999940123,3.353399999998601,3.89939999999865]",1,FPNDX,3,0,3,0,1,,
,,,,,,,,,,602ad4a0805527185ca10247,24,Mężczyzna,2022-06-04_08h09.33.706,task,2021.1.4,Win32,60.1612321,628b806c463b948bc644b84f,629af6eb62b88c7e7755bf94,,,,,,,,,,,,,,,,,,,,,,,7,,,,,,,,,,Task,14,(2x2) + 3,7,,,,,,,,,,,,,,,,,,,1,,,,,,,,,,,,,,,,,,,,,,,"[""7""]",1,[2.2162000000028],0,0,0,13,1,,,,,,,,,,,,,,,,,,
,,,,,,,,,,602ad4a0805527185ca10247,24,Mężczyzna,2022-06-04_08h09.33.706,task,2021.1.4,Win32,60.1612321,628b806c463b948bc644b84f,629af6eb62b88c7e7755bf94,,,,,,,,,,X V Q F H G B L J M P D K C T S W R N Z,,,,,,,,,,,,,,,,,,,,,,,,,,,,,,,,,,,,,,,,,,,,,,,,,,,,,,,,,,,,,,,,,,,,,,,,,,,,0,0,0,0,1,,,,,,,,,,,,,
,,,,,,,,,,602ad4a0805527185ca10247,24,Mężczyzna,2022-06-04_08h09.33.706,task,2021.1.4,Win32,60.1612321,628b806c463b948bc644b84f,629af6eb62b88c7e7755bf94,,,,,,,,,,,,,,,,,,,,,,,0,,,,,,,,,,Task,33,(1/1) - 1,0,,,,,,,,,,,,,,,,,,,1,,,,,,,,,,,,,,,,,,,,,,,"[""0""]",1,[3.0920999999941614],0,0,0,32,1,,,,,,,,,,,,,,,,,,
,,,,,,,,,,602ad4a0805527185ca10247,24,Mężczyzna,2022-06-04_08h09.33.706,task,2021.1.4,Win32,60.1612321,628b806c463b948bc644b84f,629af6eb62b88c7e7755bf94,,,,,,,,,,X V Q F H G B L J M P D K C T S W R N Z,,,,,,,,,,,,,,,,,,,,,,,,,,,,,,,,,,,,,,,,,,,,,,,,,,,,,,,,,,,,,,,,,,,,,,,,,,,,1,0,1,0,1,,,,,,,,,,,,,
,,,,,,,,,,602ad4a0805527185ca10247,24,Mężczyzna,2022-06-04_08h09.33.706,task,2021.1.4,Win32,60.1612321,628b806c463b948bc644b84f,629af6eb62b88c7e7755bf94,,,,,,,,,,,,,,,,,,,,,,,9,,,,,,,,,,Task,7,(3x7) - 12,9,,,,,,,,,,,,,,,,,,,1,,,,,,,,,,,,,,,,,,,,,,,"[""9""]",1,[3.309800000004543],0,0,0,6,1,,,,,,,,,,,,,,,,,,
,,,,,,,,,,602ad4a0805527185ca10247,24,Mężczyzna,2022-06-04_08h09.33.706,task,2021.1.4,Win32,60.1612321,628b806c463b948bc644b84f,629af6eb62b88c7e7755bf94,,,,,,,,,,X V Q F H G B L J M P D K C T S W R N Z,,,,,,,,,,,,,,,,,,,,,,,,,,,,,,,,,,,,,,,,,,,,,,,,,,,,,,,,,,,,,,,,,,,,,,,,,,,,2,0,2,0,1,,,,,,,,,,,,,
,,,,,,,,,,602ad4a0805527185ca10247,24,Mężczyzna,2022-06-04_08h09.33.706,task,2021.1.4,Win32,60.1612321,628b806c463b948bc644b84f,629af6eb62b88c7e7755bf94,,,,,,,,,,,,,,,,,,,,,,,4,,,,,,,,,,Task,4,(1x5) - 1,4,,,,,,,,,,,,,,,,,,,1,,,,,,,,,,,,,,,,,,,,,,,"[""4""]",1,[2.2997999999968215],0,0,0,3,1,,,,,,,,,,,,,,,,,,
,,,,,,,,,,602ad4a0805527185ca10247,24,Mężczyzna,2022-06-04_08h09.33.706,task,2021.1.4,Win32,60.1612321,628b806c463b948bc644b84f,629af6eb62b88c7e7755bf94,,,,,,,,,,X V Q F H G B L J M P D K C T S W R N Z,,,,,,,,,,,,,,,,,,,,,,,,,,,,,,,,,,,,,,,,,,,,,,,,,,,,,,,,,,,,,,,,,,,,,,,,,,,,3,0,3,0,1,,,,,,,,,,,,,
,,,,,,,,,,602ad4a0805527185ca10247,24,Mężczyzna,2022-06-04_08h09.33.706,task,2021.1.4,Win32,60.1612321,628b806c463b948bc644b84f,629af6eb62b88c7e7755bf94,,,,,,,,,,,,,,,,,,,,,,,3,,,,,,,,,,Task,35,(1x2) + 1,3,,,,,,,,,,,,,,,,,,,1,,,,,,,,,,,,,,,,,,,,,,,"[""3""]",1,[2.0482000000029075],0,0,0,34,1,,,,,,,,,,,,,,,,,,
,,,,,,,,,,602ad4a0805527185ca10247,24,Mężczyzna,2022-06-04_08h09.33.706,task,2021.1.4,Win32,60.1612321,628b806c463b948bc644b84f,629af6eb62b88c7e7755bf94,,,,,,,,,,X V Q F H G B L J M P D K C T S W R N Z,,,,,,,,,,,,,,,,,,,,,,,,,,,,,,,,,,,,,,,,,,,,,,,,,,,,,,,,,,,,,,,,,,,,,,,,,,,,4,0,4,0,1,,,,,,,,,,,,,
,,,,,,,,,,602ad4a0805527185ca10247,24,Mężczyzna,2022-06-04_08h09.33.706,task,2021.1.4,Win32,60.1612321,628b806c463b948bc644b84f,629af6eb62b88c7e7755bf94,,,,,,,,,,,,,,,,,,,,,,,8,,,,,,,,,,Task,15,(3x7) - 13,8,,,,,,,,,,,,,,,,,,,1,,,,,,,,,,,,,,,,,,,,,,,"[""8""]",1,[2.7318999999986318],0,0,0,14,1,,,,,,,,,,,,,,,,,,
,,,,,,,,,,602ad4a0805527185ca10247,24,Mężczyzna,2022-06-04_08h09.33.706,task,2021.1.4,Win32,60.1612321,628b806c463b948bc644b84f,629af6eb62b88c7e7755bf94,,,,,,,,,,X V Q F H G B L J M P D K C T S W R N Z,,,,,,,,,,,,,,,,,,,,,,,,,,,,,,,,,,,,,,,,,,,,,,,,,,,,,,,,,,,,,,,,,,,,,,,,,,,,5,0,5,0,1,,,,,,,,,,,,,
,,,,,,,,,,602ad4a0805527185ca10247,24,Mężczyzna,2022-06-04_08h09.33.706,task,2021.1.4,Win32,60.1612321,628b806c463b948bc644b84f,629af6eb62b88c7e7755bf94,,,,,,,,,,,,,,,,,,,,,,,,,,,,,,,,,,,,,,,,,,,,,,,,,,,,,,,,,,,,,,,,,,,,,,,,,,,,,,,,,,,,,,,,,,,pvztrr,"[""p"",""v"",""z"",""t"",""r"",""r""]",0,"[1.4002999999970598,1.8266000000014628,2.1598999999985153,2.5033999999984644,2.8332999999970525,2.984399999998459,3.44110000000137]",0,TVZTRR,4,0,4,0,1,,
,,,,,,,,,,602ad4a0805527185ca10247,24,Mężczyzna,2022-06-04_08h09.33.706,task,2021.1.4,Win32,60.1612321,628b806c463b948bc644b84f,629af6eb62b88c7e7755bf94,,,,,,,,,,,,,,,,,,,,,,,0,,,,,,,,,,Task,8,(1x5) - 5,0,,,,,,,,,,,,,,,,,,,1,,,,,,,,,,,,,,,,,,,,,,,"[""0""]",1,[1.9175999999940814],0,0,0,7,1,,,,,,,,,,,,,,,,,,
,,,,,,,,,,602ad4a0805527185ca10247,24,Mężczyzna,2022-06-04_08h09.33.706,task,2021.1.4,Win32,60.1612321,628b806c463b948bc644b84f,629af6eb62b88c7e7755bf94,,,,,,,,,,X V Q F H G B L J M P D K C T S W R N Z,,,,,,,,,,,,,,,,,,,,,,,,,,,,,,,,,,,,,,,,,,,,,,,,,,,,,,,,,,,,,,,,,,,,,,,,,,,,0,0,0,0,1,,,,,,,,,,,,,
,,,,,,,,,,602ad4a0805527185ca10247,24,Mężczyzna,2022-06-04_08h09.33.706,task,2021.1.4,Win32,60.1612321,628b806c463b948bc644b84f,629af6eb62b88c7e7755bf94,,,,,,,,,,,,,,,,,,,,,,,9,,,,,,,,,,Task,40,(7x2) - 5,9,,,,,,,,,,,,,,,,,,,1,,,,,,,,,,,,,,,,,,,,,,,"[""9""]",1,[3.5989999999999327],0,0,0,39,1,,,,,,,,,,,,,,,,,,
,,,,,,,,,,602ad4a0805527185ca10247,24,Mężczyzna,2022-06-04_08h09.33.706,task,2021.1.4,Win32,60.1612321,628b806c463b948bc644b84f,629af6eb62b88c7e7755bf94,,,,,,,,,,X V Q F H G B L J M P D K C T S W R N Z,,,,,,,,,,,,,,,,,,,,,,,,,,,,,,,,,,,,,,,,,,,,,,,,,,,,,,,,,,,,,,,,,,,,,,,,,,,,1,0,1,0,1,,,,,,,,,,,,,
,,,,,,,,,,602ad4a0805527185ca10247,24,Mężczyzna,2022-06-04_08h09.33.706,task,2021.1.4,Win32,60.1612321,628b806c463b948bc644b84f,629af6eb62b88c7e7755bf94,,,,,,,,,,,,,,,,,,,,,,,7,,,,,,,,,,Task,16,(3x8) - 15,9,,,,,,,,,,,,,,,,,,,0,,,,,,,,,,,,,,,,,,,,,,,"[""7""]",0,[6.12319999999545],0,0,0,15,1,,,,,,,,,,,,,,,,,,
,,,,,,,,,,602ad4a0805527185ca10247,24,Mężczyzna,2022-06-04_08h09.33.706,task,2021.1.4,Win32,60.1612321,628b806c463b948bc644b84f,629af6eb62b88c7e7755bf94,,,,,,,,,,,,,,,,,,,,,,,0,,,,,,,,,,Task,17,(2x3) - 6,0,,,,,,,,,,,,,,,,,,,1,,,,,,,,,,,,,,,,,,,,,,,"[""0""]",1,[1.6850000000001728],0,1,1,16,1,,,,,,,,,,,,,,,,,,
,,,,,,,,,,602ad4a0805527185ca10247,24,Mężczyzna,2022-06-04_08h09.33.706,task,2021.1.4,Win32,60.1612321,628b806c463b948bc644b84f,629af6eb62b88c7e7755bf94,,,,,,,,,,X V Q F H G B L J M P D K C T S W R N Z,,,,,,,,,,,,,,,,,,,,,,,,,,,,,,,,,,,,,,,,,,,,,,,,,,,,,,,,,,,,,,,,,,,,,,,,,,,,2,0,2,0,1,,,,,,,,,,,,,
,,,,,,,,,,602ad4a0805527185ca10247,24,Mężczyzna,2022-06-04_08h09.33.706,task,2021.1.4,Win32,60.1612321,628b806c463b948bc644b84f,629af6eb62b88c7e7755bf94,,,,,,,,,,,,,,,,,,,,,,,4,,,,,,,,,,Task,28,(2x5) - 6,4,,,,,,,,,,,,,,,,,,,1,,,,,,,,,,,,,,,,,,,,,,,"[""4""]",1,[2.0061000000014246],0,0,0,27,1,,,,,,,,,,,,,,,,,,
,,,,,,,,,,602ad4a0805527185ca10247,24,Mężczyzna,2022-06-04_08h09.33.706,task,2021.1.4,Win32,60.1612321,628b806c463b948bc644b84f,629af6eb62b88c7e7755bf94,,,,,,,,,,X V Q F H G B L J M P D K C T S W R N Z,,,,,,,,,,,,,,,,,,,,,,,,,,,,,,,,,,,,,,,,,,,,,,,,,,,,,,,,,,,,,,,,,,,,,,,,,,,,3,0,3,0,1,,,,,,,,,,,,,
,,,,,,,,,,602ad4a0805527185ca10247,24,Mężczyzna,2022-06-04_08h09.33.706,task,2021.1.4,Win32,60.1612321,628b806c463b948bc644b84f,629af6eb62b88c7e7755bf94,,,,,,,,,,,,,,,,,,,,,,,7,,,,,,,,,,Task,38,(4x6) - 17,7,,,,,,,,,,,,,,,,,,,1,,,,,,,,,,,,,,,,,,,,,,,"[""7""]",1,[4.900799999996934],0,0,0,37,1,,,,,,,,,,,,,,,,,,
,,,,,,,,,,602ad4a0805527185ca10247,24,Mężczyzna,2022-06-04_08h09.33.706,task,2021.1.4,Win32,60.1612321,628b806c463b948bc644b84f,629af6eb62b88c7e7755bf94,,,,,,,,,,X V Q F H G B L J M P D K C T S W R N Z,,,,,,,,,,,,,,,,,,,,,,,,,,,,,,,,,,,,,,,,,,,,,,,,,,,,,,,,,,,,,,,,,,,,,,,,,,,,4,0,4,0,1,,,,,,,,,,,,,
,,,,,,,,,,602ad4a0805527185ca10247,24,Mężczyzna,2022-06-04_08h09.33.706,task,2021.1.4,Win32,60.1612321,628b806c463b948bc644b84f,629af6eb62b88c7e7755bf94,,,,,,,,,,,,,,,,,,,,,,,2,,,,,,,,,,Task,2,(2x2) - 2,2,,,,,,,,,,,,,,,,,,,1,,,,,,,,,,,,,,,,,,,,,,,"[""2""]",1,[2.1004000000059477],0,0,0,1,1,,,,,,,,,,,,,,,,,,
,,,,,,,,,,602ad4a0805527185ca10247,24,Mężczyzna,2022-06-04_08h09.33.706,task,2021.1.4,Win32,60.1612321,628b806c463b948bc644b84f,629af6eb62b88c7e7755bf94,,,,,,,,,,X V Q F H G B L J M P D K C T S W R N Z,,,,,,,,,,,,,,,,,,,,,,,,,,,,,,,,,,,,,,,,,,,,,,,,,,,,,,,,,,,,,,,,,,,,,,,,,,,,5,0,5,0,1,,,,,,,,,,,,,
,,,,,,,,,,602ad4a0805527185ca10247,24,Mężczyzna,2022-06-04_08h09.33.706,task,2021.1.4,Win32,60.1612321,628b806c463b948bc644b84f,629af6eb62b88c7e7755bf94,,,,,,,,,,,,,,,,,,,,,,,,,,,,,,,,,,,,,,,,,,,,,,,,,,,,,,,,,,,,,,,,,,,,,,,,,,,,,,,,,,,,,,,,,,,gfvpss,"[""g"",""f"",""v"",""p"",""s"",""s""]",0,"[2.290300000004436,2.7162000000028,3.2543000000043776,5.289600000001428,5.811499999999796,5.98410000000149,6.577900000005911]",0,GFVSSC,5,0,5,0,1,,
,,,,,,,,,,602ad4a0805527185ca10247,24,Mężczyzna,2022-06-04_08h09.33.706,task,2021.1.4,Win32,60.1612321,628b806c463b948bc644b84f,629af6eb62b88c7e7755bf94,,,,,,,,,,,,,,,,,,,,,,,,,,,,,,,,,,,,,,,,,,,,,,,,,,,,,,,,,,,,,,,,,,,,,,,,,,,,,,,,,,,,,,,,,,,,,,,,,,,,,,space,1.4681
