key_resp_15.keys,key_resp_15.rt,key_resp_13.keys,key_resp_13.corr,key_resp_13.rt,ranodm_loop.thisRepN,ranodm_loop.thisTrialN,ranodm_loop.thisN,ranodm_loop.thisIndex,ranodm_loop.ran,participant,Wiek*,Płeć,date,expName,psychopyVersion,OS,frameRate,study_id,session,key_resp_16.keys,key_resp_16.rt,key_resp_4.keys,key_resp_4.rt,next_letter.thisRepN,next_letter.thisTrialN,next_letter.thisN,next_letter.thisIndex,next_letter.ran,letter,simple_recall,key_resp_5.keys,key_resp_5.rt,simple_recall_corr,simple_recall_corrkeys,next_level.thisRepN,next_level.thisTrialN,next_level.thisN,next_level.thisIndex,next_level.ran,key_resp_2.keys,key_resp_2.rt,digit_answer,key_resp.keys,key_resp.corr,key_resp.rt,RT_list,next_equation.thisRepN,next_equation.thisTrialN,next_equation.thisN,next_equation.thisIndex,next_equation.ran,Task,Trial,Problem,Operation_answer,processing_score,sumRT,meanRT,sumdiff,sd,RT,key_resp_3.keys,key_resp_3.rt,repeat_practice.thisRepN,repeat_practice.thisTrialN,repeat_practice.thisN,repeat_practice.thisIndex,repeat_practice.ran,key_resp_6.keys,key_resp_6.rt,key_resp_11.keys,key_resp_11.corr,operation_correct,repeat_if_wrong_prac.thisRepN,repeat_if_wrong_prac.thisTrialN,repeat_if_wrong_prac.thisN,repeat_if_wrong_prac.thisIndex,repeat_if_wrong_prac.ran,key_resp_11.rt,span_size_prac.thisRepN,span_size_prac.thisTrialN,span_size_prac.thisN,span_size_prac.thisIndex,span_size_prac.ran,complex_recall_practice,key_resp_9.keys,key_resp_9.corr,key_resp_9.rt,complex_prac_corr,span_recall_prac.thisRepN,span_recall_prac.thisTrialN,span_recall_prac.thisN,span_recall_prac.thisIndex,span_recall_prac.ran,key_resp_10.keys,key_resp_10.rt,key_resp_7.keys,key_resp_7.corr,key_resp_7.rt,repeat_if_wrong.thisRepN,repeat_if_wrong.thisTrialN,repeat_if_wrong.thisN,repeat_if_wrong.thisIndex,repeat_if_wrong.ran,span_size.thisRepN,span_size.thisTrialN,span_size.thisN,span_size.thisIndex,span_size.ran,complex_recall,key_resp_8.keys,key_resp_8.corr,key_resp_8.rt,complex_recall_corr,complex_recall_corrkeys,span_recall.thisRepN,span_recall.thisTrialN,span_recall.thisN,span_recall.thisIndex,span_recall.ran,key_resp_12.keys,key_resp_12.rt
space,12.626,"[""comma""]",0,[1.0720000000000027],0,0,0,0,1,60324e0d654dbd21e0e7fa2d,21,Mężczyzna,2022-06-04_08h43.53.508,task,2021.1.4,Win32,74.96251874,628b806c463b948bc644b84f,629afe901cd7794e310e7601,,,,,,,,,,,,,,,,,,,,,,,,,,,,,,,,,,,,,,,,,,,,,,,,,,,,,,,,,,,,,,,,,,,,,,,,,,,,,,,,,,,,,,,,,,,,,,,,,,,,,,,
,,"[""period""]",0,[1.4190000000000111],1,0,1,0,1,60324e0d654dbd21e0e7fa2d,21,Mężczyzna,2022-06-04_08h43.53.508,task,2021.1.4,Win32,74.96251874,628b806c463b948bc644b84f,629afe901cd7794e310e7601,,,,,,,,,,,,,,,,,,,,,,,,,,,,,,,,,,,,,,,,,,,,,,,,,,,,,,,,,,,,,,,,,,,,,,,,,,,,,,,,,,,,,,,,,,,,,,,,,,,,,,,
,,"[""comma""]",0,[1.320999999999998],2,0,2,0,1,60324e0d654dbd21e0e7fa2d,21,Mężczyzna,2022-06-04_08h43.53.508,task,2021.1.4,Win32,74.96251874,628b806c463b948bc644b84f,629afe901cd7794e310e7601,,,,,,,,,,,,,,,,,,,,,,,,,,,,,,,,,,,,,,,,,,,,,,,,,,,,,,,,,,,,,,,,,,,,,,,,,,,,,,,,,,,,,,,,,,,,,,,,,,,,,,,
,,"[""comma""]",0,[0.8819999999999766],3,0,3,0,1,60324e0d654dbd21e0e7fa2d,21,Mężczyzna,2022-06-04_08h43.53.508,task,2021.1.4,Win32,74.96251874,628b806c463b948bc644b84f,629afe901cd7794e310e7601,,,,,,,,,,,,,,,,,,,,,,,,,,,,,,,,,,,,,,,,,,,,,,,,,,,,,,,,,,,,,,,,,,,,,,,,,,,,,,,,,,,,,,,,,,,,,,,,,,,,,,,
,,"[""comma""]",0,[0.6459999999999866],4,0,4,0,1,60324e0d654dbd21e0e7fa2d,21,Mężczyzna,2022-06-04_08h43.53.508,task,2021.1.4,Win32,74.96251874,628b806c463b948bc644b84f,629afe901cd7794e310e7601,,,,,,,,,,,,,,,,,,,,,,,,,,,,,,,,,,,,,,,,,,,,,,,,,,,,,,,,,,,,,,,,,,,,,,,,,,,,,,,,,,,,,,,,,,,,,,,,,,,,,,,
,,"[""comma""]",0,[0.7379999999999995],5,0,5,0,1,60324e0d654dbd21e0e7fa2d,21,Mężczyzna,2022-06-04_08h43.53.508,task,2021.1.4,Win32,74.96251874,628b806c463b948bc644b84f,629afe901cd7794e310e7601,,,,,,,,,,,,,,,,,,,,,,,,,,,,,,,,,,,,,,,,,,,,,,,,,,,,,,,,,,,,,,,,,,,,,,,,,,,,,,,,,,,,,,,,,,,,,,,,,,,,,,,
,,"[""period""]",0,[0.7239999999999895],6,0,6,0,1,60324e0d654dbd21e0e7fa2d,21,Mężczyzna,2022-06-04_08h43.53.508,task,2021.1.4,Win32,74.96251874,628b806c463b948bc644b84f,629afe901cd7794e310e7601,,,,,,,,,,,,,,,,,,,,,,,,,,,,,,,,,,,,,,,,,,,,,,,,,,,,,,,,,,,,,,,,,,,,,,,,,,,,,,,,,,,,,,,,,,,,,,,,,,,,,,,
,,"[""period""]",0,[1.0060000000000002],7,0,7,0,1,60324e0d654dbd21e0e7fa2d,21,Mężczyzna,2022-06-04_08h43.53.508,task,2021.1.4,Win32,74.96251874,628b806c463b948bc644b84f,629afe901cd7794e310e7601,,,,,,,,,,,,,,,,,,,,,,,,,,,,,,,,,,,,,,,,,,,,,,,,,,,,,,,,,,,,,,,,,,,,,,,,,,,,,,,,,,,,,,,,,,,,,,,,,,,,,,,
,,"[""comma""]",0,[0.7480000000000189],8,0,8,0,1,60324e0d654dbd21e0e7fa2d,21,Mężczyzna,2022-06-04_08h43.53.508,task,2021.1.4,Win32,74.96251874,628b806c463b948bc644b84f,629afe901cd7794e310e7601,,,,,,,,,,,,,,,,,,,,,,,,,,,,,,,,,,,,,,,,,,,,,,,,,,,,,,,,,,,,,,,,,,,,,,,,,,,,,,,,,,,,,,,,,,,,,,,,,,,,,,,
,,"[""comma""]",0,[0.4989999999999952],9,0,9,0,1,60324e0d654dbd21e0e7fa2d,21,Mężczyzna,2022-06-04_08h43.53.508,task,2021.1.4,Win32,74.96251874,628b806c463b948bc644b84f,629afe901cd7794e310e7601,,,,,,,,,,,,,,,,,,,,,,,,,,,,,,,,,,,,,,,,,,,,,,,,,,,,,,,,,,,,,,,,,,,,,,,,,,,,,,,,,,,,,,,,,,,,,,,,,,,,,,,
,,"[""comma""]",0,[0.5349999999999966],10,0,10,0,1,60324e0d654dbd21e0e7fa2d,21,Mężczyzna,2022-06-04_08h43.53.508,task,2021.1.4,Win32,74.96251874,628b806c463b948bc644b84f,629afe901cd7794e310e7601,,,,,,,,,,,,,,,,,,,,,,,,,,,,,,,,,,,,,,,,,,,,,,,,,,,,,,,,,,,,,,,,,,,,,,,,,,,,,,,,,,,,,,,,,,,,,,,,,,,,,,,
,,"[""period""]",0,[0.5339999999999918],11,0,11,0,1,60324e0d654dbd21e0e7fa2d,21,Mężczyzna,2022-06-04_08h43.53.508,task,2021.1.4,Win32,74.96251874,628b806c463b948bc644b84f,629afe901cd7794e310e7601,,,,,,,,,,,,,,,,,,,,,,,,,,,,,,,,,,,,,,,,,,,,,,,,,,,,,,,,,,,,,,,,,,,,,,,,,,,,,,,,,,,,,,,,,,,,,,,,,,,,,,,
,,"[""period""]",0,[0.6419999999999959],12,0,12,0,1,60324e0d654dbd21e0e7fa2d,21,Mężczyzna,2022-06-04_08h43.53.508,task,2021.1.4,Win32,74.96251874,628b806c463b948bc644b84f,629afe901cd7794e310e7601,,,,,,,,,,,,,,,,,,,,,,,,,,,,,,,,,,,,,,,,,,,,,,,,,,,,,,,,,,,,,,,,,,,,,,,,,,,,,,,,,,,,,,,,,,,,,,,,,,,,,,,
,,"[""comma""]",0,[0.7879999999999825],13,0,13,0,1,60324e0d654dbd21e0e7fa2d,21,Mężczyzna,2022-06-04_08h43.53.508,task,2021.1.4,Win32,74.96251874,628b806c463b948bc644b84f,629afe901cd7794e310e7601,,,,,,,,,,,,,,,,,,,,,,,,,,,,,,,,,,,,,,,,,,,,,,,,,,,,,,,,,,,,,,,,,,,,,,,,,,,,,,,,,,,,,,,,,,,,,,,,,,,,,,,
,,"[""period""]",0,[0.5869999999999891],14,0,14,0,1,60324e0d654dbd21e0e7fa2d,21,Mężczyzna,2022-06-04_08h43.53.508,task,2021.1.4,Win32,74.96251874,628b806c463b948bc644b84f,629afe901cd7794e310e7601,,,,,,,,,,,,,,,,,,,,,,,,,,,,,,,,,,,,,,,,,,,,,,,,,,,,,,,,,,,,,,,,,,,,,,,,,,,,,,,,,,,,,,,,,,,,,,,,,,,,,,,
,,"[""period""]",0,[0.6150000000000091],15,0,15,0,1,60324e0d654dbd21e0e7fa2d,21,Mężczyzna,2022-06-04_08h43.53.508,task,2021.1.4,Win32,74.96251874,628b806c463b948bc644b84f,629afe901cd7794e310e7601,,,,,,,,,,,,,,,,,,,,,,,,,,,,,,,,,,,,,,,,,,,,,,,,,,,,,,,,,,,,,,,,,,,,,,,,,,,,,,,,,,,,,,,,,,,,,,,,,,,,,,,
,,"[""comma""]",0,[0.4819999999999993],16,0,16,0,1,60324e0d654dbd21e0e7fa2d,21,Mężczyzna,2022-06-04_08h43.53.508,task,2021.1.4,Win32,74.96251874,628b806c463b948bc644b84f,629afe901cd7794e310e7601,,,,,,,,,,,,,,,,,,,,,,,,,,,,,,,,,,,,,,,,,,,,,,,,,,,,,,,,,,,,,,,,,,,,,,,,,,,,,,,,,,,,,,,,,,,,,,,,,,,,,,,
,,"[""comma""]",0,[0.47299999999998477],17,0,17,0,1,60324e0d654dbd21e0e7fa2d,21,Mężczyzna,2022-06-04_08h43.53.508,task,2021.1.4,Win32,74.96251874,628b806c463b948bc644b84f,629afe901cd7794e310e7601,,,,,,,,,,,,,,,,,,,,,,,,,,,,,,,,,,,,,,,,,,,,,,,,,,,,,,,,,,,,,,,,,,,,,,,,,,,,,,,,,,,,,,,,,,,,,,,,,,,,,,,
,,"[""comma""]",0,[0.32399999999998386],18,0,18,0,1,60324e0d654dbd21e0e7fa2d,21,Mężczyzna,2022-06-04_08h43.53.508,task,2021.1.4,Win32,74.96251874,628b806c463b948bc644b84f,629afe901cd7794e310e7601,,,,,,,,,,,,,,,,,,,,,,,,,,,,,,,,,,,,,,,,,,,,,,,,,,,,,,,,,,,,,,,,,,,,,,,,,,,,,,,,,,,,,,,,,,,,,,,,,,,,,,,
,,"[""period""]",0,[0.2739999999999725],19,0,19,0,1,60324e0d654dbd21e0e7fa2d,21,Mężczyzna,2022-06-04_08h43.53.508,task,2021.1.4,Win32,74.96251874,628b806c463b948bc644b84f,629afe901cd7794e310e7601,,,,,,,,,,,,,,,,,,,,,,,,,,,,,,,,,,,,,,,,,,,,,,,,,,,,,,,,,,,,,,,,,,,,,,,,,,,,,,,,,,,,,,,,,,,,,,,,,,,,,,,
,,"[""comma""]",0,[0.25900000000001455],20,0,20,0,1,60324e0d654dbd21e0e7fa2d,21,Mężczyzna,2022-06-04_08h43.53.508,task,2021.1.4,Win32,74.96251874,628b806c463b948bc644b84f,629afe901cd7794e310e7601,,,,,,,,,,,,,,,,,,,,,,,,,,,,,,,,,,,,,,,,,,,,,,,,,,,,,,,,,,,,,,,,,,,,,,,,,,,,,,,,,,,,,,,,,,,,,,,,,,,,,,,
,,"[""comma""]",0,[0.2950000000000159],21,0,21,0,1,60324e0d654dbd21e0e7fa2d,21,Mężczyzna,2022-06-04_08h43.53.508,task,2021.1.4,Win32,74.96251874,628b806c463b948bc644b84f,629afe901cd7794e310e7601,,,,,,,,,,,,,,,,,,,,,,,,,,,,,,,,,,,,,,,,,,,,,,,,,,,,,,,,,,,,,,,,,,,,,,,,,,,,,,,,,,,,,,,,,,,,,,,,,,,,,,,
,,"[""period""]",0,[0.3650000000000091],22,0,22,0,1,60324e0d654dbd21e0e7fa2d,21,Mężczyzna,2022-06-04_08h43.53.508,task,2021.1.4,Win32,74.96251874,628b806c463b948bc644b84f,629afe901cd7794e310e7601,,,,,,,,,,,,,,,,,,,,,,,,,,,,,,,,,,,,,,,,,,,,,,,,,,,,,,,,,,,,,,,,,,,,,,,,,,,,,,,,,,,,,,,,,,,,,,,,,,,,,,,
,,"[""comma""]",0,[0.30000000000001137],23,0,23,0,1,60324e0d654dbd21e0e7fa2d,21,Mężczyzna,2022-06-04_08h43.53.508,task,2021.1.4,Win32,74.96251874,628b806c463b948bc644b84f,629afe901cd7794e310e7601,,,,,,,,,,,,,,,,,,,,,,,,,,,,,,,,,,,,,,,,,,,,,,,,,,,,,,,,,,,,,,,,,,,,,,,,,,,,,,,,,,,,,,,,,,,,,,,,,,,,,,,
,,"[""period""]",0,[0.38999999999998636],24,0,24,0,1,60324e0d654dbd21e0e7fa2d,21,Mężczyzna,2022-06-04_08h43.53.508,task,2021.1.4,Win32,74.96251874,628b806c463b948bc644b84f,629afe901cd7794e310e7601,,,,,,,,,,,,,,,,,,,,,,,,,,,,,,,,,,,,,,,,,,,,,,,,,,,,,,,,,,,,,,,,,,,,,,,,,,,,,,,,,,,,,,,,,,,,,,,,,,,,,,,
,,"[""period""]",0,[0.32099999999999795],25,0,25,0,1,60324e0d654dbd21e0e7fa2d,21,Mężczyzna,2022-06-04_08h43.53.508,task,2021.1.4,Win32,74.96251874,628b806c463b948bc644b84f,629afe901cd7794e310e7601,,,,,,,,,,,,,,,,,,,,,,,,,,,,,,,,,,,,,,,,,,,,,,,,,,,,,,,,,,,,,,,,,,,,,,,,,,,,,,,,,,,,,,,,,,,,,,,,,,,,,,,
,,"[""period""]",0,[0.3089999999999975],26,0,26,0,1,60324e0d654dbd21e0e7fa2d,21,Mężczyzna,2022-06-04_08h43.53.508,task,2021.1.4,Win32,74.96251874,628b806c463b948bc644b84f,629afe901cd7794e310e7601,,,,,,,,,,,,,,,,,,,,,,,,,,,,,,,,,,,,,,,,,,,,,,,,,,,,,,,,,,,,,,,,,,,,,,,,,,,,,,,,,,,,,,,,,,,,,,,,,,,,,,,
,,"[""comma""]",0,[0.2820000000000107],27,0,27,0,1,60324e0d654dbd21e0e7fa2d,21,Mężczyzna,2022-06-04_08h43.53.508,task,2021.1.4,Win32,74.96251874,628b806c463b948bc644b84f,629afe901cd7794e310e7601,,,,,,,,,,,,,,,,,,,,,,,,,,,,,,,,,,,,,,,,,,,,,,,,,,,,,,,,,,,,,,,,,,,,,,,,,,,,,,,,,,,,,,,,,,,,,,,,,,,,,,,
,,"[""comma""]",0,[0.30700000000001637],28,0,28,0,1,60324e0d654dbd21e0e7fa2d,21,Mężczyzna,2022-06-04_08h43.53.508,task,2021.1.4,Win32,74.96251874,628b806c463b948bc644b84f,629afe901cd7794e310e7601,,,,,,,,,,,,,,,,,,,,,,,,,,,,,,,,,,,,,,,,,,,,,,,,,,,,,,,,,,,,,,,,,,,,,,,,,,,,,,,,,,,,,,,,,,,,,,,,,,,,,,,
,,"[""comma""]",0,[0.30699999999998795],29,0,29,0,1,60324e0d654dbd21e0e7fa2d,21,Mężczyzna,2022-06-04_08h43.53.508,task,2021.1.4,Win32,74.96251874,628b806c463b948bc644b84f,629afe901cd7794e310e7601,,,,,,,,,,,,,,,,,,,,,,,,,,,,,,,,,,,,,,,,,,,,,,,,,,,,,,,,,,,,,,,,,,,,,,,,,,,,,,,,,,,,,,,,,,,,,,,,,,,,,,,
,,"[""period""]",0,[0.2839999999999918],30,0,30,0,1,60324e0d654dbd21e0e7fa2d,21,Mężczyzna,2022-06-04_08h43.53.508,task,2021.1.4,Win32,74.96251874,628b806c463b948bc644b84f,629afe901cd7794e310e7601,,,,,,,,,,,,,,,,,,,,,,,,,,,,,,,,,,,,,,,,,,,,,,,,,,,,,,,,,,,,,,,,,,,,,,,,,,,,,,,,,,,,,,,,,,,,,,,,,,,,,,,
,,"[""period""]",0,[0.28199999999998226],31,0,31,0,1,60324e0d654dbd21e0e7fa2d,21,Mężczyzna,2022-06-04_08h43.53.508,task,2021.1.4,Win32,74.96251874,628b806c463b948bc644b84f,629afe901cd7794e310e7601,,,,,,,,,,,,,,,,,,,,,,,,,,,,,,,,,,,,,,,,,,,,,,,,,,,,,,,,,,,,,,,,,,,,,,,,,,,,,,,,,,,,,,,,,,,,,,,,,,,,,,,
,,"[""period""]",0,[0.29400000000001114],32,0,32,0,1,60324e0d654dbd21e0e7fa2d,21,Mężczyzna,2022-06-04_08h43.53.508,task,2021.1.4,Win32,74.96251874,628b806c463b948bc644b84f,629afe901cd7794e310e7601,,,,,,,,,,,,,,,,,,,,,,,,,,,,,,,,,,,,,,,,,,,,,,,,,,,,,,,,,,,,,,,,,,,,,,,,,,,,,,,,,,,,,,,,,,,,,,,,,,,,,,,
,,"[""period""]",0,[0.29400000000001114],33,0,33,0,1,60324e0d654dbd21e0e7fa2d,21,Mężczyzna,2022-06-04_08h43.53.508,task,2021.1.4,Win32,74.96251874,628b806c463b948bc644b84f,629afe901cd7794e310e7601,,,,,,,,,,,,,,,,,,,,,,,,,,,,,,,,,,,,,,,,,,,,,,,,,,,,,,,,,,,,,,,,,,,,,,,,,,,,,,,,,,,,,,,,,,,,,,,,,,,,,,,
,,"[""period""]",0,[0.2820000000000107],34,0,34,0,1,60324e0d654dbd21e0e7fa2d,21,Mężczyzna,2022-06-04_08h43.53.508,task,2021.1.4,Win32,74.96251874,628b806c463b948bc644b84f,629afe901cd7794e310e7601,,,,,,,,,,,,,,,,,,,,,,,,,,,,,,,,,,,,,,,,,,,,,,,,,,,,,,,,,,,,,,,,,,,,,,,,,,,,,,,,,,,,,,,,,,,,,,,,,,,,,,,
,,"[""comma""]",0,[0.29400000000001114],35,0,35,0,1,60324e0d654dbd21e0e7fa2d,21,Mężczyzna,2022-06-04_08h43.53.508,task,2021.1.4,Win32,74.96251874,628b806c463b948bc644b84f,629afe901cd7794e310e7601,,,,,,,,,,,,,,,,,,,,,,,,,,,,,,,,,,,,,,,,,,,,,,,,,,,,,,,,,,,,,,,,,,,,,,,,,,,,,,,,,,,,,,,,,,,,,,,,,,,,,,,
,,"[""period""]",0,[0.32399999999998386],36,0,36,0,1,60324e0d654dbd21e0e7fa2d,21,Mężczyzna,2022-06-04_08h43.53.508,task,2021.1.4,Win32,74.96251874,628b806c463b948bc644b84f,629afe901cd7794e310e7601,,,,,,,,,,,,,,,,,,,,,,,,,,,,,,,,,,,,,,,,,,,,,,,,,,,,,,,,,,,,,,,,,,,,,,,,,,,,,,,,,,,,,,,,,,,,,,,,,,,,,,,
,,"[""comma""]",0,[0.2599999999999909],37,0,37,0,1,60324e0d654dbd21e0e7fa2d,21,Mężczyzna,2022-06-04_08h43.53.508,task,2021.1.4,Win32,74.96251874,628b806c463b948bc644b84f,629afe901cd7794e310e7601,,,,,,,,,,,,,,,,,,,,,,,,,,,,,,,,,,,,,,,,,,,,,,,,,,,,,,,,,,,,,,,,,,,,,,,,,,,,,,,,,,,,,,,,,,,,,,,,,,,,,,,
,,"[""comma""]",0,[0.30000000000001137],38,0,38,0,1,60324e0d654dbd21e0e7fa2d,21,Mężczyzna,2022-06-04_08h43.53.508,task,2021.1.4,Win32,74.96251874,628b806c463b948bc644b84f,629afe901cd7794e310e7601,,,,,,,,,,,,,,,,,,,,,,,,,,,,,,,,,,,,,,,,,,,,,,,,,,,,,,,,,,,,,,,,,,,,,,,,,,,,,,,,,,,,,,,,,,,,,,,,,,,,,,,
,,"[""comma""]",0,[0.29400000000001114],39,0,39,0,1,60324e0d654dbd21e0e7fa2d,21,Mężczyzna,2022-06-04_08h43.53.508,task,2021.1.4,Win32,74.96251874,628b806c463b948bc644b84f,629afe901cd7794e310e7601,,,,,,,,,,,,,,,,,,,,,,,,,,,,,,,,,,,,,,,,,,,,,,,,,,,,,,,,,,,,,,,,,,,,,,,,,,,,,,,,,,,,,,,,,,,,,,,,,,,,,,,
,,"[""period""]",0,[0.2939999999999827],40,0,40,0,1,60324e0d654dbd21e0e7fa2d,21,Mężczyzna,2022-06-04_08h43.53.508,task,2021.1.4,Win32,74.96251874,628b806c463b948bc644b84f,629afe901cd7794e310e7601,,,,,,,,,,,,,,,,,,,,,,,,,,,,,,,,,,,,,,,,,,,,,,,,,,,,,,,,,,,,,,,,,,,,,,,,,,,,,,,,,,,,,,,,,,,,,,,,,,,,,,,
,,"[""period""]",0,[0.3089999999999975],41,0,41,0,1,60324e0d654dbd21e0e7fa2d,21,Mężczyzna,2022-06-04_08h43.53.508,task,2021.1.4,Win32,74.96251874,628b806c463b948bc644b84f,629afe901cd7794e310e7601,,,,,,,,,,,,,,,,,,,,,,,,,,,,,,,,,,,,,,,,,,,,,,,,,,,,,,,,,,,,,,,,,,,,,,,,,,,,,,,,,,,,,,,,,,,,,,,,,,,,,,,
,,"[""comma""]",0,[0.2569999999999766],42,0,42,0,1,60324e0d654dbd21e0e7fa2d,21,Mężczyzna,2022-06-04_08h43.53.508,task,2021.1.4,Win32,74.96251874,628b806c463b948bc644b84f,629afe901cd7794e310e7601,,,,,,,,,,,,,,,,,,,,,,,,,,,,,,,,,,,,,,,,,,,,,,,,,,,,,,,,,,,,,,,,,,,,,,,,,,,,,,,,,,,,,,,,,,,,,,,,,,,,,,,
,,"[""comma"",""comma""]",0,"[0.13399999999998613,0.21699999999998454]",43,0,43,0,1,60324e0d654dbd21e0e7fa2d,21,Mężczyzna,2022-06-04_08h43.53.508,task,2021.1.4,Win32,74.96251874,628b806c463b948bc644b84f,629afe901cd7794e310e7601,,,,,,,,,,,,,,,,,,,,,,,,,,,,,,,,,,,,,,,,,,,,,,,,,,,,,,,,,,,,,,,,,,,,,,,,,,,,,,,,,,,,,,,,,,,,,,,,,,,,,,,
,,"[""period""]",0,[0.3079999999999927],44,0,44,0,1,60324e0d654dbd21e0e7fa2d,21,Mężczyzna,2022-06-04_08h43.53.508,task,2021.1.4,Win32,74.96251874,628b806c463b948bc644b84f,629afe901cd7794e310e7601,,,,,,,,,,,,,,,,,,,,,,,,,,,,,,,,,,,,,,,,,,,,,,,,,,,,,,,,,,,,,,,,,,,,,,,,,,,,,,,,,,,,,,,,,,,,,,,,,,,,,,,
,,"[""period""]",0,[0.24300000000002342],45,0,45,0,1,60324e0d654dbd21e0e7fa2d,21,Mężczyzna,2022-06-04_08h43.53.508,task,2021.1.4,Win32,74.96251874,628b806c463b948bc644b84f,629afe901cd7794e310e7601,,,,,,,,,,,,,,,,,,,,,,,,,,,,,,,,,,,,,,,,,,,,,,,,,,,,,,,,,,,,,,,,,,,,,,,,,,,,,,,,,,,,,,,,,,,,,,,,,,,,,,,
,,"[""comma""]",0,[0.2990000000000066],46,0,46,0,1,60324e0d654dbd21e0e7fa2d,21,Mężczyzna,2022-06-04_08h43.53.508,task,2021.1.4,Win32,74.96251874,628b806c463b948bc644b84f,629afe901cd7794e310e7601,,,,,,,,,,,,,,,,,,,,,,,,,,,,,,,,,,,,,,,,,,,,,,,,,,,,,,,,,,,,,,,,,,,,,,,,,,,,,,,,,,,,,,,,,,,,,,,,,,,,,,,
,,"[""comma""]",0,[0.42799999999999727],47,0,47,0,1,60324e0d654dbd21e0e7fa2d,21,Mężczyzna,2022-06-04_08h43.53.508,task,2021.1.4,Win32,74.96251874,628b806c463b948bc644b84f,629afe901cd7794e310e7601,,,,,,,,,,,,,,,,,,,,,,,,,,,,,,,,,,,,,,,,,,,,,,,,,,,,,,,,,,,,,,,,,,,,,,,,,,,,,,,,,,,,,,,,,,,,,,,,,,,,,,,
,,"[""comma""]",0,[0.32099999999999795],48,0,48,0,1,60324e0d654dbd21e0e7fa2d,21,Mężczyzna,2022-06-04_08h43.53.508,task,2021.1.4,Win32,74.96251874,628b806c463b948bc644b84f,629afe901cd7794e310e7601,,,,,,,,,,,,,,,,,,,,,,,,,,,,,,,,,,,,,,,,,,,,,,,,,,,,,,,,,,,,,,,,,,,,,,,,,,,,,,,,,,,,,,,,,,,,,,,,,,,,,,,
,,"[""period""]",0,[0.26900000000000546],49,0,49,0,1,60324e0d654dbd21e0e7fa2d,21,Mężczyzna,2022-06-04_08h43.53.508,task,2021.1.4,Win32,74.96251874,628b806c463b948bc644b84f,629afe901cd7794e310e7601,,,,,,,,,,,,,,,,,,,,,,,,,,,,,,,,,,,,,,,,,,,,,,,,,,,,,,,,,,,,,,,,,,,,,,,,,,,,,,,,,,,,,,,,,,,,,,,,,,,,,,,
,,"[""period""]",0,[0.28600000000000136],50,0,50,0,1,60324e0d654dbd21e0e7fa2d,21,Mężczyzna,2022-06-04_08h43.53.508,task,2021.1.4,Win32,74.96251874,628b806c463b948bc644b84f,629afe901cd7794e310e7601,,,,,,,,,,,,,,,,,,,,,,,,,,,,,,,,,,,,,,,,,,,,,,,,,,,,,,,,,,,,,,,,,,,,,,,,,,,,,,,,,,,,,,,,,,,,,,,,,,,,,,,
,,"[""comma""]",0,[0.3210000000000264],51,0,51,0,1,60324e0d654dbd21e0e7fa2d,21,Mężczyzna,2022-06-04_08h43.53.508,task,2021.1.4,Win32,74.96251874,628b806c463b948bc644b84f,629afe901cd7794e310e7601,,,,,,,,,,,,,,,,,,,,,,,,,,,,,,,,,,,,,,,,,,,,,,,,,,,,,,,,,,,,,,,,,,,,,,,,,,,,,,,,,,,,,,,,,,,,,,,,,,,,,,,
,,"[""comma""]",0,[0.2699999999999818],52,0,52,0,1,60324e0d654dbd21e0e7fa2d,21,Mężczyzna,2022-06-04_08h43.53.508,task,2021.1.4,Win32,74.96251874,628b806c463b948bc644b84f,629afe901cd7794e310e7601,,,,,,,,,,,,,,,,,,,,,,,,,,,,,,,,,,,,,,,,,,,,,,,,,,,,,,,,,,,,,,,,,,,,,,,,,,,,,,,,,,,,,,,,,,,,,,,,,,,,,,,
,,"[""period""]",0,[0.3480000000000132],53,0,53,0,1,60324e0d654dbd21e0e7fa2d,21,Mężczyzna,2022-06-04_08h43.53.508,task,2021.1.4,Win32,74.96251874,628b806c463b948bc644b84f,629afe901cd7794e310e7601,,,,,,,,,,,,,,,,,,,,,,,,,,,,,,,,,,,,,,,,,,,,,,,,,,,,,,,,,,,,,,,,,,,,,,,,,,,,,,,,,,,,,,,,,,,,,,,,,,,,,,,
,,"[""comma""]",0,[0.3079999999999927],54,0,54,0,1,60324e0d654dbd21e0e7fa2d,21,Mężczyzna,2022-06-04_08h43.53.508,task,2021.1.4,Win32,74.96251874,628b806c463b948bc644b84f,629afe901cd7794e310e7601,,,,,,,,,,,,,,,,,,,,,,,,,,,,,,,,,,,,,,,,,,,,,,,,,,,,,,,,,,,,,,,,,,,,,,,,,,,,,,,,,,,,,,,,,,,,,,,,,,,,,,,
,,"[""comma""]",0,[0.3130000000000166],55,0,55,0,1,60324e0d654dbd21e0e7fa2d,21,Mężczyzna,2022-06-04_08h43.53.508,task,2021.1.4,Win32,74.96251874,628b806c463b948bc644b84f,629afe901cd7794e310e7601,,,,,,,,,,,,,,,,,,,,,,,,,,,,,,,,,,,,,,,,,,,,,,,,,,,,,,,,,,,,,,,,,,,,,,,,,,,,,,,,,,,,,,,,,,,,,,,,,,,,,,,
,,"[""comma""]",0,[0.3140000000000214],56,0,56,0,1,60324e0d654dbd21e0e7fa2d,21,Mężczyzna,2022-06-04_08h43.53.508,task,2021.1.4,Win32,74.96251874,628b806c463b948bc644b84f,629afe901cd7794e310e7601,,,,,,,,,,,,,,,,,,,,,,,,,,,,,,,,,,,,,,,,,,,,,,,,,,,,,,,,,,,,,,,,,,,,,,,,,,,,,,,,,,,,,,,,,,,,,,,,,,,,,,,
,,"[""comma""]",0,[0.33500000000000796],57,0,57,0,1,60324e0d654dbd21e0e7fa2d,21,Mężczyzna,2022-06-04_08h43.53.508,task,2021.1.4,Win32,74.96251874,628b806c463b948bc644b84f,629afe901cd7794e310e7601,,,,,,,,,,,,,,,,,,,,,,,,,,,,,,,,,,,,,,,,,,,,,,,,,,,,,,,,,,,,,,,,,,,,,,,,,,,,,,,,,,,,,,,,,,,,,,,,,,,,,,,
,,"[""period""]",0,[0.4329999999999927],58,0,58,0,1,60324e0d654dbd21e0e7fa2d,21,Mężczyzna,2022-06-04_08h43.53.508,task,2021.1.4,Win32,74.96251874,628b806c463b948bc644b84f,629afe901cd7794e310e7601,,,,,,,,,,,,,,,,,,,,,,,,,,,,,,,,,,,,,,,,,,,,,,,,,,,,,,,,,,,,,,,,,,,,,,,,,,,,,,,,,,,,,,,,,,,,,,,,,,,,,,,
,,"[""period""]",0,[0.4019999999999868],59,0,59,0,1,60324e0d654dbd21e0e7fa2d,21,Mężczyzna,2022-06-04_08h43.53.508,task,2021.1.4,Win32,74.96251874,628b806c463b948bc644b84f,629afe901cd7794e310e7601,,,,,,,,,,,,,,,,,,,,,,,,,,,,,,,,,,,,,,,,,,,,,,,,,,,,,,,,,,,,,,,,,,,,,,,,,,,,,,,,,,,,,,,,,,,,,,,,,,,,,,,
,,"[""period""]",0,[0.32099999999999795],60,0,60,0,1,60324e0d654dbd21e0e7fa2d,21,Mężczyzna,2022-06-04_08h43.53.508,task,2021.1.4,Win32,74.96251874,628b806c463b948bc644b84f,629afe901cd7794e310e7601,,,,,,,,,,,,,,,,,,,,,,,,,,,,,,,,,,,,,,,,,,,,,,,,,,,,,,,,,,,,,,,,,,,,,,,,,,,,,,,,,,,,,,,,,,,,,,,,,,,,,,,
,,"[""comma""]",0,[0.2869999999999777],61,0,61,0,1,60324e0d654dbd21e0e7fa2d,21,Mężczyzna,2022-06-04_08h43.53.508,task,2021.1.4,Win32,74.96251874,628b806c463b948bc644b84f,629afe901cd7794e310e7601,,,,,,,,,,,,,,,,,,,,,,,,,,,,,,,,,,,,,,,,,,,,,,,,,,,,,,,,,,,,,,,,,,,,,,,,,,,,,,,,,,,,,,,,,,,,,,,,,,,,,,,
,,"[""comma""]",0,[0.26600000000001955],62,0,62,0,1,60324e0d654dbd21e0e7fa2d,21,Mężczyzna,2022-06-04_08h43.53.508,task,2021.1.4,Win32,74.96251874,628b806c463b948bc644b84f,629afe901cd7794e310e7601,,,,,,,,,,,,,,,,,,,,,,,,,,,,,,,,,,,,,,,,,,,,,,,,,,,,,,,,,,,,,,,,,,,,,,,,,,,,,,,,,,,,,,,,,,,,,,,,,,,,,,,
,,"[""comma""]",0,[0.29400000000001114],63,0,63,0,1,60324e0d654dbd21e0e7fa2d,21,Mężczyzna,2022-06-04_08h43.53.508,task,2021.1.4,Win32,74.96251874,628b806c463b948bc644b84f,629afe901cd7794e310e7601,,,,,,,,,,,,,,,,,,,,,,,,,,,,,,,,,,,,,,,,,,,,,,,,,,,,,,,,,,,,,,,,,,,,,,,,,,,,,,,,,,,,,,,,,,,,,,,,,,,,,,,
,,"[""comma""]",0,[0.35200000000000387],64,0,64,0,1,60324e0d654dbd21e0e7fa2d,21,Mężczyzna,2022-06-04_08h43.53.508,task,2021.1.4,Win32,74.96251874,628b806c463b948bc644b84f,629afe901cd7794e310e7601,,,,,,,,,,,,,,,,,,,,,,,,,,,,,,,,,,,,,,,,,,,,,,,,,,,,,,,,,,,,,,,,,,,,,,,,,,,,,,,,,,,,,,,,,,,,,,,,,,,,,,,
,,"[""period""]",0,[0.2599999999999909],65,0,65,0,1,60324e0d654dbd21e0e7fa2d,21,Mężczyzna,2022-06-04_08h43.53.508,task,2021.1.4,Win32,74.96251874,628b806c463b948bc644b84f,629afe901cd7794e310e7601,,,,,,,,,,,,,,,,,,,,,,,,,,,,,,,,,,,,,,,,,,,,,,,,,,,,,,,,,,,,,,,,,,,,,,,,,,,,,,,,,,,,,,,,,,,,,,,,,,,,,,,
,,"[""period""]",0,[0.32099999999999795],66,0,66,0,1,60324e0d654dbd21e0e7fa2d,21,Mężczyzna,2022-06-04_08h43.53.508,task,2021.1.4,Win32,74.96251874,628b806c463b948bc644b84f,629afe901cd7794e310e7601,,,,,,,,,,,,,,,,,,,,,,,,,,,,,,,,,,,,,,,,,,,,,,,,,,,,,,,,,,,,,,,,,,,,,,,,,,,,,,,,,,,,,,,,,,,,,,,,,,,,,,,
,,"[""comma""]",0,[0.375],67,0,67,0,1,60324e0d654dbd21e0e7fa2d,21,Mężczyzna,2022-06-04_08h43.53.508,task,2021.1.4,Win32,74.96251874,628b806c463b948bc644b84f,629afe901cd7794e310e7601,,,,,,,,,,,,,,,,,,,,,,,,,,,,,,,,,,,,,,,,,,,,,,,,,,,,,,,,,,,,,,,,,,,,,,,,,,,,,,,,,,,,,,,,,,,,,,,,,,,,,,,
,,"[""comma""]",0,[0.28199999999998226],68,0,68,0,1,60324e0d654dbd21e0e7fa2d,21,Mężczyzna,2022-06-04_08h43.53.508,task,2021.1.4,Win32,74.96251874,628b806c463b948bc644b84f,629afe901cd7794e310e7601,,,,,,,,,,,,,,,,,,,,,,,,,,,,,,,,,,,,,,,,,,,,,,,,,,,,,,,,,,,,,,,,,,,,,,,,,,,,,,,,,,,,,,,,,,,,,,,,,,,,,,,
,,"[""comma""]",0,[0.32200000000000273],69,0,69,0,1,60324e0d654dbd21e0e7fa2d,21,Mężczyzna,2022-06-04_08h43.53.508,task,2021.1.4,Win32,74.96251874,628b806c463b948bc644b84f,629afe901cd7794e310e7601,,,,,,,,,,,,,,,,,,,,,,,,,,,,,,,,,,,,,,,,,,,,,,,,,,,,,,,,,,,,,,,,,,,,,,,,,,,,,,,,,,,,,,,,,,,,,,,,,,,,,,,
,,"[""period""]",0,[0.5200000000000102],70,0,70,0,1,60324e0d654dbd21e0e7fa2d,21,Mężczyzna,2022-06-04_08h43.53.508,task,2021.1.4,Win32,74.96251874,628b806c463b948bc644b84f,629afe901cd7794e310e7601,,,,,,,,,,,,,,,,,,,,,,,,,,,,,,,,,,,,,,,,,,,,,,,,,,,,,,,,,,,,,,,,,,,,,,,,,,,,,,,,,,,,,,,,,,,,,,,,,,,,,,,
,,"[""period""]",0,[0.5110000000000241],71,0,71,0,1,60324e0d654dbd21e0e7fa2d,21,Mężczyzna,2022-06-04_08h43.53.508,task,2021.1.4,Win32,74.96251874,628b806c463b948bc644b84f,629afe901cd7794e310e7601,,,,,,,,,,,,,,,,,,,,,,,,,,,,,,,,,,,,,,,,,,,,,,,,,,,,,,,,,,,,,,,,,,,,,,,,,,,,,,,,,,,,,,,,,,,,,,,,,,,,,,,
,,"[""comma""]",0,[0.3079999999999927],72,0,72,0,1,60324e0d654dbd21e0e7fa2d,21,Mężczyzna,2022-06-04_08h43.53.508,task,2021.1.4,Win32,74.96251874,628b806c463b948bc644b84f,629afe901cd7794e310e7601,,,,,,,,,,,,,,,,,,,,,,,,,,,,,,,,,,,,,,,,,,,,,,,,,,,,,,,,,,,,,,,,,,,,,,,,,,,,,,,,,,,,,,,,,,,,,,,,,,,,,,,
,,"[""comma""]",0,[0.29400000000001114],73,0,73,0,1,60324e0d654dbd21e0e7fa2d,21,Mężczyzna,2022-06-04_08h43.53.508,task,2021.1.4,Win32,74.96251874,628b806c463b948bc644b84f,629afe901cd7794e310e7601,,,,,,,,,,,,,,,,,,,,,,,,,,,,,,,,,,,,,,,,,,,,,,,,,,,,,,,,,,,,,,,,,,,,,,,,,,,,,,,,,,,,,,,,,,,,,,,,,,,,,,,
,,"[""period""]",0,[0.375],74,0,74,0,1,60324e0d654dbd21e0e7fa2d,21,Mężczyzna,2022-06-04_08h43.53.508,task,2021.1.4,Win32,74.96251874,628b806c463b948bc644b84f,629afe901cd7794e310e7601,,,,,,,,,,,,,,,,,,,,,,,,,,,,,,,,,,,,,,,,,,,,,,,,,,,,,,,,,,,,,,,,,,,,,,,,,,,,,,,,,,,,,,,,,,,,,,,,,,,,,,,
,,"[""period""]",0,[0.32200000000000273],75,0,75,0,1,60324e0d654dbd21e0e7fa2d,21,Mężczyzna,2022-06-04_08h43.53.508,task,2021.1.4,Win32,74.96251874,628b806c463b948bc644b84f,629afe901cd7794e310e7601,,,,,,,,,,,,,,,,,,,,,,,,,,,,,,,,,,,,,,,,,,,,,,,,,,,,,,,,,,,,,,,,,,,,,,,,,,,,,,,,,,,,,,,,,,,,,,,,,,,,,,,
,,"[""period""]",0,[0.2990000000000066],76,0,76,0,1,60324e0d654dbd21e0e7fa2d,21,Mężczyzna,2022-06-04_08h43.53.508,task,2021.1.4,Win32,74.96251874,628b806c463b948bc644b84f,629afe901cd7794e310e7601,,,,,,,,,,,,,,,,,,,,,,,,,,,,,,,,,,,,,,,,,,,,,,,,,,,,,,,,,,,,,,,,,,,,,,,,,,,,,,,,,,,,,,,,,,,,,,,,,,,,,,,
,,"[""period""]",0,[0.2680000000000007],77,0,77,0,1,60324e0d654dbd21e0e7fa2d,21,Mężczyzna,2022-06-04_08h43.53.508,task,2021.1.4,Win32,74.96251874,628b806c463b948bc644b84f,629afe901cd7794e310e7601,,,,,,,,,,,,,,,,,,,,,,,,,,,,,,,,,,,,,,,,,,,,,,,,,,,,,,,,,,,,,,,,,,,,,,,,,,,,,,,,,,,,,,,,,,,,,,,,,,,,,,,
,,"[""period""]",0,[0.2939999999999827],78,0,78,0,1,60324e0d654dbd21e0e7fa2d,21,Mężczyzna,2022-06-04_08h43.53.508,task,2021.1.4,Win32,74.96251874,628b806c463b948bc644b84f,629afe901cd7794e310e7601,,,,,,,,,,,,,,,,,,,,,,,,,,,,,,,,,,,,,,,,,,,,,,,,,,,,,,,,,,,,,,,,,,,,,,,,,,,,,,,,,,,,,,,,,,,,,,,,,,,,,,,
,,"[""period""]",0,[0.20699999999999363],79,0,79,0,1,60324e0d654dbd21e0e7fa2d,21,Mężczyzna,2022-06-04_08h43.53.508,task,2021.1.4,Win32,74.96251874,628b806c463b948bc644b84f,629afe901cd7794e310e7601,,,,,,,,,,,,,,,,,,,,,,,,,,,,,,,,,,,,,,,,,,,,,,,,,,,,,,,,,,,,,,,,,,,,,,,,,,,,,,,,,,,,,,,,,,,,,,,,,,,,,,,
,,"[""comma""]",0,[0.242999999999995],80,0,80,0,1,60324e0d654dbd21e0e7fa2d,21,Mężczyzna,2022-06-04_08h43.53.508,task,2021.1.4,Win32,74.96251874,628b806c463b948bc644b84f,629afe901cd7794e310e7601,,,,,,,,,,,,,,,,,,,,,,,,,,,,,,,,,,,,,,,,,,,,,,,,,,,,,,,,,,,,,,,,,,,,,,,,,,,,,,,,,,,,,,,,,,,,,,,,,,,,,,,
,,"[""period""]",0,[0.2270000000000323],81,0,81,0,1,60324e0d654dbd21e0e7fa2d,21,Mężczyzna,2022-06-04_08h43.53.508,task,2021.1.4,Win32,74.96251874,628b806c463b948bc644b84f,629afe901cd7794e310e7601,,,,,,,,,,,,,,,,,,,,,,,,,,,,,,,,,,,,,,,,,,,,,,,,,,,,,,,,,,,,,,,,,,,,,,,,,,,,,,,,,,,,,,,,,,,,,,,,,,,,,,,
,,"[""comma""]",0,[0.3199999999999932],82,0,82,0,1,60324e0d654dbd21e0e7fa2d,21,Mężczyzna,2022-06-04_08h43.53.508,task,2021.1.4,Win32,74.96251874,628b806c463b948bc644b84f,629afe901cd7794e310e7601,,,,,,,,,,,,,,,,,,,,,,,,,,,,,,,,,,,,,,,,,,,,,,,,,,,,,,,,,,,,,,,,,,,,,,,,,,,,,,,,,,,,,,,,,,,,,,,,,,,,,,,
,,"[""comma""]",0,[0.38100000000002865],83,0,83,0,1,60324e0d654dbd21e0e7fa2d,21,Mężczyzna,2022-06-04_08h43.53.508,task,2021.1.4,Win32,74.96251874,628b806c463b948bc644b84f,629afe901cd7794e310e7601,,,,,,,,,,,,,,,,,,,,,,,,,,,,,,,,,,,,,,,,,,,,,,,,,,,,,,,,,,,,,,,,,,,,,,,,,,,,,,,,,,,,,,,,,,,,,,,,,,,,,,,
,,"[""period""]",0,[0.3059999999999832],84,0,84,0,1,60324e0d654dbd21e0e7fa2d,21,Mężczyzna,2022-06-04_08h43.53.508,task,2021.1.4,Win32,74.96251874,628b806c463b948bc644b84f,629afe901cd7794e310e7601,,,,,,,,,,,,,,,,,,,,,,,,,,,,,,,,,,,,,,,,,,,,,,,,,,,,,,,,,,,,,,,,,,,,,,,,,,,,,,,,,,,,,,,,,,,,,,,,,,,,,,,
,,"[""comma""]",0,[0.3100000000000023],85,0,85,0,1,60324e0d654dbd21e0e7fa2d,21,Mężczyzna,2022-06-04_08h43.53.508,task,2021.1.4,Win32,74.96251874,628b806c463b948bc644b84f,629afe901cd7794e310e7601,,,,,,,,,,,,,,,,,,,,,,,,,,,,,,,,,,,,,,,,,,,,,,,,,,,,,,,,,,,,,,,,,,,,,,,,,,,,,,,,,,,,,,,,,,,,,,,,,,,,,,,
,,"[""comma""]",0,[0.5349999999999682],86,0,86,0,1,60324e0d654dbd21e0e7fa2d,21,Mężczyzna,2022-06-04_08h43.53.508,task,2021.1.4,Win32,74.96251874,628b806c463b948bc644b84f,629afe901cd7794e310e7601,,,,,,,,,,,,,,,,,,,,,,,,,,,,,,,,,,,,,,,,,,,,,,,,,,,,,,,,,,,,,,,,,,,,,,,,,,,,,,,,,,,,,,,,,,,,,,,,,,,,,,,
,,"[""comma""]",0,[0.48200000000002774],87,0,87,0,1,60324e0d654dbd21e0e7fa2d,21,Mężczyzna,2022-06-04_08h43.53.508,task,2021.1.4,Win32,74.96251874,628b806c463b948bc644b84f,629afe901cd7794e310e7601,,,,,,,,,,,,,,,,,,,,,,,,,,,,,,,,,,,,,,,,,,,,,,,,,,,,,,,,,,,,,,,,,,,,,,,,,,,,,,,,,,,,,,,,,,,,,,,,,,,,,,,
,,"[""period""]",0,[0.3690000000000282],88,0,88,0,1,60324e0d654dbd21e0e7fa2d,21,Mężczyzna,2022-06-04_08h43.53.508,task,2021.1.4,Win32,74.96251874,628b806c463b948bc644b84f,629afe901cd7794e310e7601,,,,,,,,,,,,,,,,,,,,,,,,,,,,,,,,,,,,,,,,,,,,,,,,,,,,,,,,,,,,,,,,,,,,,,,,,,,,,,,,,,,,,,,,,,,,,,,,,,,,,,,
,,"[""comma""]",0,[0.3199999999999932],89,0,89,0,1,60324e0d654dbd21e0e7fa2d,21,Mężczyzna,2022-06-04_08h43.53.508,task,2021.1.4,Win32,74.96251874,628b806c463b948bc644b84f,629afe901cd7794e310e7601,,,,,,,,,,,,,,,,,,,,,,,,,,,,,,,,,,,,,,,,,,,,,,,,,,,,,,,,,,,,,,,,,,,,,,,,,,,,,,,,,,,,,,,,,,,,,,,,,,,,,,,
,,"[""comma""]",0,[0.3149999999999977],90,0,90,0,1,60324e0d654dbd21e0e7fa2d,21,Mężczyzna,2022-06-04_08h43.53.508,task,2021.1.4,Win32,74.96251874,628b806c463b948bc644b84f,629afe901cd7794e310e7601,,,,,,,,,,,,,,,,,,,,,,,,,,,,,,,,,,,,,,,,,,,,,,,,,,,,,,,,,,,,,,,,,,,,,,,,,,,,,,,,,,,,,,,,,,,,,,,,,,,,,,,
,,"[""period""]",0,[0.3109999999999786],91,0,91,0,1,60324e0d654dbd21e0e7fa2d,21,Mężczyzna,2022-06-04_08h43.53.508,task,2021.1.4,Win32,74.96251874,628b806c463b948bc644b84f,629afe901cd7794e310e7601,,,,,,,,,,,,,,,,,,,,,,,,,,,,,,,,,,,,,,,,,,,,,,,,,,,,,,,,,,,,,,,,,,,,,,,,,,,,,,,,,,,,,,,,,,,,,,,,,,,,,,,
,,"[""period""]",0,[0.3009999999999877],92,0,92,0,1,60324e0d654dbd21e0e7fa2d,21,Mężczyzna,2022-06-04_08h43.53.508,task,2021.1.4,Win32,74.96251874,628b806c463b948bc644b84f,629afe901cd7794e310e7601,,,,,,,,,,,,,,,,,,,,,,,,,,,,,,,,,,,,,,,,,,,,,,,,,,,,,,,,,,,,,,,,,,,,,,,,,,,,,,,,,,,,,,,,,,,,,,,,,,,,,,,
,,"[""comma""]",0,[0.26099999999996726],93,0,93,0,1,60324e0d654dbd21e0e7fa2d,21,Mężczyzna,2022-06-04_08h43.53.508,task,2021.1.4,Win32,74.96251874,628b806c463b948bc644b84f,629afe901cd7794e310e7601,,,,,,,,,,,,,,,,,,,,,,,,,,,,,,,,,,,,,,,,,,,,,,,,,,,,,,,,,,,,,,,,,,,,,,,,,,,,,,,,,,,,,,,,,,,,,,,,,,,,,,,
,,"[""comma""]",0,[0.25799999999998136],94,0,94,0,1,60324e0d654dbd21e0e7fa2d,21,Mężczyzna,2022-06-04_08h43.53.508,task,2021.1.4,Win32,74.96251874,628b806c463b948bc644b84f,629afe901cd7794e310e7601,,,,,,,,,,,,,,,,,,,,,,,,,,,,,,,,,,,,,,,,,,,,,,,,,,,,,,,,,,,,,,,,,,,,,,,,,,,,,,,,,,,,,,,,,,,,,,,,,,,,,,,
,,"[""period""]",0,[0.3410000000000082],95,0,95,0,1,60324e0d654dbd21e0e7fa2d,21,Mężczyzna,2022-06-04_08h43.53.508,task,2021.1.4,Win32,74.96251874,628b806c463b948bc644b84f,629afe901cd7794e310e7601,,,,,,,,,,,,,,,,,,,,,,,,,,,,,,,,,,,,,,,,,,,,,,,,,,,,,,,,,,,,,,,,,,,,,,,,,,,,,,,,,,,,,,,,,,,,,,,,,,,,,,,
,,"[""period""]",0,[0.25499999999999545],96,0,96,0,1,60324e0d654dbd21e0e7fa2d,21,Mężczyzna,2022-06-04_08h43.53.508,task,2021.1.4,Win32,74.96251874,628b806c463b948bc644b84f,629afe901cd7794e310e7601,,,,,,,,,,,,,,,,,,,,,,,,,,,,,,,,,,,,,,,,,,,,,,,,,,,,,,,,,,,,,,,,,,,,,,,,,,,,,,,,,,,,,,,,,,,,,,,,,,,,,,,
,,"[""comma""]",0,[0.2949999999999591],97,0,97,0,1,60324e0d654dbd21e0e7fa2d,21,Mężczyzna,2022-06-04_08h43.53.508,task,2021.1.4,Win32,74.96251874,628b806c463b948bc644b84f,629afe901cd7794e310e7601,,,,,,,,,,,,,,,,,,,,,,,,,,,,,,,,,,,,,,,,,,,,,,,,,,,,,,,,,,,,,,,,,,,,,,,,,,,,,,,,,,,,,,,,,,,,,,,,,,,,,,,
,,"[""comma""]",0,[0.2950000000000159],98,0,98,0,1,60324e0d654dbd21e0e7fa2d,21,Mężczyzna,2022-06-04_08h43.53.508,task,2021.1.4,Win32,74.96251874,628b806c463b948bc644b84f,629afe901cd7794e310e7601,,,,,,,,,,,,,,,,,,,,,,,,,,,,,,,,,,,,,,,,,,,,,,,,,,,,,,,,,,,,,,,,,,,,,,,,,,,,,,,,,,,,,,,,,,,,,,,,,,,,,,,
,,"[""comma""]",0,[0.29599999999999227],99,0,99,0,1,60324e0d654dbd21e0e7fa2d,21,Mężczyzna,2022-06-04_08h43.53.508,task,2021.1.4,Win32,74.96251874,628b806c463b948bc644b84f,629afe901cd7794e310e7601,,,,,,,,,,,,,,,,,,,,,,,,,,,,,,,,,,,,,,,,,,,,,,,,,,,,,,,,,,,,,,,,,,,,,,,,,,,,,,,,,,,,,,,,,,,,,,,,,,,,,,,
,,"[""period""]",0,[0.2949999999999591],100,0,100,0,1,60324e0d654dbd21e0e7fa2d,21,Mężczyzna,2022-06-04_08h43.53.508,task,2021.1.4,Win32,74.96251874,628b806c463b948bc644b84f,629afe901cd7794e310e7601,,,,,,,,,,,,,,,,,,,,,,,,,,,,,,,,,,,,,,,,,,,,,,,,,,,,,,,,,,,,,,,,,,,,,,,,,,,,,,,,,,,,,,,,,,,,,,,,,,,,,,,
,,"[""period""]",0,[0.3109999999999786],101,0,101,0,1,60324e0d654dbd21e0e7fa2d,21,Mężczyzna,2022-06-04_08h43.53.508,task,2021.1.4,Win32,74.96251874,628b806c463b948bc644b84f,629afe901cd7794e310e7601,,,,,,,,,,,,,,,,,,,,,,,,,,,,,,,,,,,,,,,,,,,,,,,,,,,,,,,,,,,,,,,,,,,,,,,,,,,,,,,,,,,,,,,,,,,,,,,,,,,,,,,
,,"[""period""]",0,[0.24799999999999045],102,0,102,0,1,60324e0d654dbd21e0e7fa2d,21,Mężczyzna,2022-06-04_08h43.53.508,task,2021.1.4,Win32,74.96251874,628b806c463b948bc644b84f,629afe901cd7794e310e7601,,,,,,,,,,,,,,,,,,,,,,,,,,,,,,,,,,,,,,,,,,,,,,,,,,,,,,,,,,,,,,,,,,,,,,,,,,,,,,,,,,,,,,,,,,,,,,,,,,,,,,,
,,"[""period""]",0,[0.2689999999999486],103,0,103,0,1,60324e0d654dbd21e0e7fa2d,21,Mężczyzna,2022-06-04_08h43.53.508,task,2021.1.4,Win32,74.96251874,628b806c463b948bc644b84f,629afe901cd7794e310e7601,,,,,,,,,,,,,,,,,,,,,,,,,,,,,,,,,,,,,,,,,,,,,,,,,,,,,,,,,,,,,,,,,,,,,,,,,,,,,,,,,,,,,,,,,,,,,,,,,,,,,,,
,,"[""comma""]",0,[0.13500000000004775],104,0,104,0,1,60324e0d654dbd21e0e7fa2d,21,Mężczyzna,2022-06-04_08h43.53.508,task,2021.1.4,Win32,74.96251874,628b806c463b948bc644b84f,629afe901cd7794e310e7601,,,,,,,,,,,,,,,,,,,,,,,,,,,,,,,,,,,,,,,,,,,,,,,,,,,,,,,,,,,,,,,,,,,,,,,,,,,,,,,,,,,,,,,,,,,,,,,,,,,,,,,
,,"[""comma""]",0,[0.2699999999999818],105,0,105,0,1,60324e0d654dbd21e0e7fa2d,21,Mężczyzna,2022-06-04_08h43.53.508,task,2021.1.4,Win32,74.96251874,628b806c463b948bc644b84f,629afe901cd7794e310e7601,,,,,,,,,,,,,,,,,,,,,,,,,,,,,,,,,,,,,,,,,,,,,,,,,,,,,,,,,,,,,,,,,,,,,,,,,,,,,,,,,,,,,,,,,,,,,,,,,,,,,,,
,,"[""period""]",0,[0.3109999999999786],106,0,106,0,1,60324e0d654dbd21e0e7fa2d,21,Mężczyzna,2022-06-04_08h43.53.508,task,2021.1.4,Win32,74.96251874,628b806c463b948bc644b84f,629afe901cd7794e310e7601,,,,,,,,,,,,,,,,,,,,,,,,,,,,,,,,,,,,,,,,,,,,,,,,,,,,,,,,,,,,,,,,,,,,,,,,,,,,,,,,,,,,,,,,,,,,,,,,,,,,,,,
,,"[""comma""]",0,[0.3340000000000032],107,0,107,0,1,60324e0d654dbd21e0e7fa2d,21,Mężczyzna,2022-06-04_08h43.53.508,task,2021.1.4,Win32,74.96251874,628b806c463b948bc644b84f,629afe901cd7794e310e7601,,,,,,,,,,,,,,,,,,,,,,,,,,,,,,,,,,,,,,,,,,,,,,,,,,,,,,,,,,,,,,,,,,,,,,,,,,,,,,,,,,,,,,,,,,,,,,,,,,,,,,,
,,"[""comma""]",0,[0.36099999999999],108,0,108,0,1,60324e0d654dbd21e0e7fa2d,21,Mężczyzna,2022-06-04_08h43.53.508,task,2021.1.4,Win32,74.96251874,628b806c463b948bc644b84f,629afe901cd7794e310e7601,,,,,,,,,,,,,,,,,,,,,,,,,,,,,,,,,,,,,,,,,,,,,,,,,,,,,,,,,,,,,,,,,,,,,,,,,,,,,,,,,,,,,,,,,,,,,,,,,,,,,,,
,,"[""comma""]",0,[0.2969999999999686],109,0,109,0,1,60324e0d654dbd21e0e7fa2d,21,Mężczyzna,2022-06-04_08h43.53.508,task,2021.1.4,Win32,74.96251874,628b806c463b948bc644b84f,629afe901cd7794e310e7601,,,,,,,,,,,,,,,,,,,,,,,,,,,,,,,,,,,,,,,,,,,,,,,,,,,,,,,,,,,,,,,,,,,,,,,,,,,,,,,,,,,,,,,,,,,,,,,,,,,,,,,
,,"[""period""]",0,[0.33499999999997954],110,0,110,0,1,60324e0d654dbd21e0e7fa2d,21,Mężczyzna,2022-06-04_08h43.53.508,task,2021.1.4,Win32,74.96251874,628b806c463b948bc644b84f,629afe901cd7794e310e7601,,,,,,,,,,,,,,,,,,,,,,,,,,,,,,,,,,,,,,,,,,,,,,,,,,,,,,,,,,,,,,,,,,,,,,,,,,,,,,,,,,,,,,,,,,,,,,,,,,,,,,,
,,"[""period""]",0,[0.2939999999999827],111,0,111,0,1,60324e0d654dbd21e0e7fa2d,21,Mężczyzna,2022-06-04_08h43.53.508,task,2021.1.4,Win32,74.96251874,628b806c463b948bc644b84f,629afe901cd7794e310e7601,,,,,,,,,,,,,,,,,,,,,,,,,,,,,,,,,,,,,,,,,,,,,,,,,,,,,,,,,,,,,,,,,,,,,,,,,,,,,,,,,,,,,,,,,,,,,,,,,,,,,,,
,,"[""period""]",0,[0.25399999999996226],112,0,112,0,1,60324e0d654dbd21e0e7fa2d,21,Mężczyzna,2022-06-04_08h43.53.508,task,2021.1.4,Win32,74.96251874,628b806c463b948bc644b84f,629afe901cd7794e310e7601,,,,,,,,,,,,,,,,,,,,,,,,,,,,,,,,,,,,,,,,,,,,,,,,,,,,,,,,,,,,,,,,,,,,,,,,,,,,,,,,,,,,,,,,,,,,,,,,,,,,,,,
,,"[""period""]",0,[0.2689999999999486],113,0,113,0,1,60324e0d654dbd21e0e7fa2d,21,Mężczyzna,2022-06-04_08h43.53.508,task,2021.1.4,Win32,74.96251874,628b806c463b948bc644b84f,629afe901cd7794e310e7601,,,,,,,,,,,,,,,,,,,,,,,,,,,,,,,,,,,,,,,,,,,,,,,,,,,,,,,,,,,,,,,,,,,,,,,,,,,,,,,,,,,,,,,,,,,,,,,,,,,,,,,
,,"[""comma""]",0,[0.2540000000000191],114,0,114,0,1,60324e0d654dbd21e0e7fa2d,21,Mężczyzna,2022-06-04_08h43.53.508,task,2021.1.4,Win32,74.96251874,628b806c463b948bc644b84f,629afe901cd7794e310e7601,,,,,,,,,,,,,,,,,,,,,,,,,,,,,,,,,,,,,,,,,,,,,,,,,,,,,,,,,,,,,,,,,,,,,,,,,,,,,,,,,,,,,,,,,,,,,,,,,,,,,,,
,,"[""comma""]",0,[0.26900000000000546],115,0,115,0,1,60324e0d654dbd21e0e7fa2d,21,Mężczyzna,2022-06-04_08h43.53.508,task,2021.1.4,Win32,74.96251874,628b806c463b948bc644b84f,629afe901cd7794e310e7601,,,,,,,,,,,,,,,,,,,,,,,,,,,,,,,,,,,,,,,,,,,,,,,,,,,,,,,,,,,,,,,,,,,,,,,,,,,,,,,,,,,,,,,,,,,,,,,,,,,,,,,
,,"[""comma""]",0,[0.29599999999999227],116,0,116,0,1,60324e0d654dbd21e0e7fa2d,21,Mężczyzna,2022-06-04_08h43.53.508,task,2021.1.4,Win32,74.96251874,628b806c463b948bc644b84f,629afe901cd7794e310e7601,,,,,,,,,,,,,,,,,,,,,,,,,,,,,,,,,,,,,,,,,,,,,,,,,,,,,,,,,,,,,,,,,,,,,,,,,,,,,,,,,,,,,,,,,,,,,,,,,,,,,,,
,,"[""period""]",0,[0.285000000000025],117,0,117,0,1,60324e0d654dbd21e0e7fa2d,21,Mężczyzna,2022-06-04_08h43.53.508,task,2021.1.4,Win32,74.96251874,628b806c463b948bc644b84f,629afe901cd7794e310e7601,,,,,,,,,,,,,,,,,,,,,,,,,,,,,,,,,,,,,,,,,,,,,,,,,,,,,,,,,,,,,,,,,,,,,,,,,,,,,,,,,,,,,,,,,,,,,,,,,,,,,,,
,,"[""period""]",0,[0.299000000000035],118,0,118,0,1,60324e0d654dbd21e0e7fa2d,21,Mężczyzna,2022-06-04_08h43.53.508,task,2021.1.4,Win32,74.96251874,628b806c463b948bc644b84f,629afe901cd7794e310e7601,,,,,,,,,,,,,,,,,,,,,,,,,,,,,,,,,,,,,,,,,,,,,,,,,,,,,,,,,,,,,,,,,,,,,,,,,,,,,,,,,,,,,,,,,,,,,,,,,,,,,,,
,,"[""comma""]",0,[0.2949999999999591],119,0,119,0,1,60324e0d654dbd21e0e7fa2d,21,Mężczyzna,2022-06-04_08h43.53.508,task,2021.1.4,Win32,74.96251874,628b806c463b948bc644b84f,629afe901cd7794e310e7601,,,,,,,,,,,,,,,,,,,,,,,,,,,,,,,,,,,,,,,,,,,,,,,,,,,,,,,,,,,,,,,,,,,,,,,,,,,,,,,,,,,,,,,,,,,,,,,,,,,,,,,
,,,,,,,,,,60324e0d654dbd21e0e7fa2d,21,Mężczyzna,2022-06-04_08h43.53.508,task,2021.1.4,Win32,74.96251874,628b806c463b948bc644b84f,629afe901cd7794e310e7601,space,24.948,space,9.059,0,0,0,0,1,X V Q F H G B L J M P D K C T S W R N Z,,,,,,,,,,,,,,,,,,,,,,,,,,,,,,,,,,,,,,,,,,,,,,,,,,,,,,,,,,,,,,,,,,,,,,,,,,,,,,,,,,,,,,,,,,,,,
,,,,,,,,,,60324e0d654dbd21e0e7fa2d,21,Mężczyzna,2022-06-04_08h43.53.508,task,2021.1.4,Win32,74.96251874,628b806c463b948bc644b84f,629afe901cd7794e310e7601,,,,,1,0,1,0,1,X V Q F H G B L J M P D K C T S W R N Z,,,,,,,,,,,,,,,,,,,,,,,,,,,,,,,,,,,,,,,,,,,,,,,,,,,,,,,,,,,,,,,,,,,,,,,,,,,,,,,,,,,,,,,,,,,,,
,,,,,,,,,,60324e0d654dbd21e0e7fa2d,21,Mężczyzna,2022-06-04_08h43.53.508,task,2021.1.4,Win32,74.96251874,628b806c463b948bc644b84f,629afe901cd7794e310e7601,,,,,,,,,,,zw,"[""z"",""w""]","[3.2129999999999654,3.3319999999999936,6.319999999999993]",1,ZW,0,0,0,0,1,,,,,,,,,,,,,,,,,,,,,,,,,,,,,,,,,,,,,,,,,,,,,,,,,,,,,,,,,,,,,,,,,,,,,,,,,,,,,,,,,,,
,,,,,,,,,,60324e0d654dbd21e0e7fa2d,21,Mężczyzna,2022-06-04_08h43.53.508,task,2021.1.4,Win32,74.96251874,628b806c463b948bc644b84f,629afe901cd7794e310e7601,,,,,0,0,0,0,1,X V Q F H G B L J M P D K C T S W R N Z,,,,,,,,,,,,,,,,,,,,,,,,,,,,,,,,,,,,,,,,,,,,,,,,,,,,,,,,,,,,,,,,,,,,,,,,,,,,,,,,,,,,,,,,,,,,,
,,,,,,,,,,60324e0d654dbd21e0e7fa2d,21,Mężczyzna,2022-06-04_08h43.53.508,task,2021.1.4,Win32,74.96251874,628b806c463b948bc644b84f,629afe901cd7794e310e7601,,,,,1,0,1,0,1,X V Q F H G B L J M P D K C T S W R N Z,,,,,,,,,,,,,,,,,,,,,,,,,,,,,,,,,,,,,,,,,,,,,,,,,,,,,,,,,,,,,,,,,,,,,,,,,,,,,,,,,,,,,,,,,,,,,
,,,,,,,,,,60324e0d654dbd21e0e7fa2d,21,Mężczyzna,2022-06-04_08h43.53.508,task,2021.1.4,Win32,74.96251874,628b806c463b948bc644b84f,629afe901cd7794e310e7601,,,,,,,,,,,fv,"[""f"",""v""]","[2.0399999999999636,2.266999999999996,3.0149999999999864]",1,FV,1,0,1,0,1,,,,,,,,,,,,,,,,,,,,,,,,,,,,,,,,,,,,,,,,,,,,,,,,,,,,,,,,,,,,,,,,,,,,,,,,,,,,,,,,,,,
,,,,,,,,,,60324e0d654dbd21e0e7fa2d,21,Mężczyzna,2022-06-04_08h43.53.508,task,2021.1.4,Win32,74.96251874,628b806c463b948bc644b84f,629afe901cd7794e310e7601,,,,,0,0,0,0,1,X V Q F H G B L J M P D K C T S W R N Z,,,,,,,,,,,,,,,,,,,,,,,,,,,,,,,,,,,,,,,,,,,,,,,,,,,,,,,,,,,,,,,,,,,,,,,,,,,,,,,,,,,,,,,,,,,,,
,,,,,,,,,,60324e0d654dbd21e0e7fa2d,21,Mężczyzna,2022-06-04_08h43.53.508,task,2021.1.4,Win32,74.96251874,628b806c463b948bc644b84f,629afe901cd7794e310e7601,,,,,1,0,1,0,1,X V Q F H G B L J M P D K C T S W R N Z,,,,,,,,,,,,,,,,,,,,,,,,,,,,,,,,,,,,,,,,,,,,,,,,,,,,,,,,,,,,,,,,,,,,,,,,,,,,,,,,,,,,,,,,,,,,,
,,,,,,,,,,60324e0d654dbd21e0e7fa2d,21,Mężczyzna,2022-06-04_08h43.53.508,task,2021.1.4,Win32,74.96251874,628b806c463b948bc644b84f,629afe901cd7794e310e7601,,,,,2,0,2,0,1,X V Q F H G B L J M P D K C T S W R N Z,,,,,,,,,,,,,,,,,,,,,,,,,,,,,,,,,,,,,,,,,,,,,,,,,,,,,,,,,,,,,,,,,,,,,,,,,,,,,,,,,,,,,,,,,,,,,
,,,,,,,,,,60324e0d654dbd21e0e7fa2d,21,Mężczyzna,2022-06-04_08h43.53.508,task,2021.1.4,Win32,74.96251874,628b806c463b948bc644b84f,629afe901cd7794e310e7601,,,,,,,,,,,fth,"[""f"",""t"",""h""]","[2.1329999999999814,2.3999999999999773,2.6129999999999995,2.812999999999988]",1,FTH,2,0,2,0,1,,,,,,,,,,,,,,,,,,,,,,,,,,,,,,,,,,,,,,,,,,,,,,,,,,,,,,,,,,,,,,,,,,,,,,,,,,,,,,,,,,,
,,,,,,,,,,60324e0d654dbd21e0e7fa2d,21,Mężczyzna,2022-06-04_08h43.53.508,task,2021.1.4,Win32,74.96251874,628b806c463b948bc644b84f,629afe901cd7794e310e7601,,,,,0,0,0,0,1,X V Q F H G B L J M P D K C T S W R N Z,,,,,,,,,,,,,,,,,,,,,,,,,,,,,,,,,,,,,,,,,,,,,,,,,,,,,,,,,,,,,,,,,,,,,,,,,,,,,,,,,,,,,,,,,,,,,
,,,,,,,,,,60324e0d654dbd21e0e7fa2d,21,Mężczyzna,2022-06-04_08h43.53.508,task,2021.1.4,Win32,74.96251874,628b806c463b948bc644b84f,629afe901cd7794e310e7601,,,,,1,0,1,0,1,X V Q F H G B L J M P D K C T S W R N Z,,,,,,,,,,,,,,,,,,,,,,,,,,,,,,,,,,,,,,,,,,,,,,,,,,,,,,,,,,,,,,,,,,,,,,,,,,,,,,,,,,,,,,,,,,,,,
,,,,,,,,,,60324e0d654dbd21e0e7fa2d,21,Mężczyzna,2022-06-04_08h43.53.508,task,2021.1.4,Win32,74.96251874,628b806c463b948bc644b84f,629afe901cd7794e310e7601,,,,,2,0,2,0,1,X V Q F H G B L J M P D K C T S W R N Z,,,,,,,,,,,,,,,,,,,,,,,,,,,,,,,,,,,,,,,,,,,,,,,,,,,,,,,,,,,,,,,,,,,,,,,,,,,,,,,,,,,,,,,,,,,,,
,,,,,,,,,,60324e0d654dbd21e0e7fa2d,21,Mężczyzna,2022-06-04_08h43.53.508,task,2021.1.4,Win32,74.96251874,628b806c463b948bc644b84f,629afe901cd7794e310e7601,,,,,,,,,,,ksq,"[""k"",""s"",""q""]","[2.269999999999982,2.3729999999999905,2.494000000000028,3.3740000000000236]",1,KSQ,3,0,3,0,1,,,,,,,,,,,,,,,,,,,,,,,,,,,,,,,,,,,,,,,,,,,,,,,,,,,,,,,,,,,,,,,,,,,,,,,,,,,,,,,,,,,
,,,,,,,,,,60324e0d654dbd21e0e7fa2d,21,Mężczyzna,2022-06-04_08h43.53.508,task,2021.1.4,Win32,74.96251874,628b806c463b948bc644b84f,629afe901cd7794e310e7601,,,,,0,0,0,0,1,X V Q F H G B L J M P D K C T S W R N Z,,,,,,,,,,,,,,,,,,,,,,,,,,,,,,,,,,,,,,,,,,,,,,,,,,,,,,,,,,,,,,,,,,,,,,,,,,,,,,,,,,,,,,,,,,,,,
,,,,,,,,,,60324e0d654dbd21e0e7fa2d,21,Mężczyzna,2022-06-04_08h43.53.508,task,2021.1.4,Win32,74.96251874,628b806c463b948bc644b84f,629afe901cd7794e310e7601,,,,,1,0,1,0,1,X V Q F H G B L J M P D K C T S W R N Z,,,,,,,,,,,,,,,,,,,,,,,,,,,,,,,,,,,,,,,,,,,,,,,,,,,,,,,,,,,,,,,,,,,,,,,,,,,,,,,,,,,,,,,,,,,,,
,,,,,,,,,,60324e0d654dbd21e0e7fa2d,21,Mężczyzna,2022-06-04_08h43.53.508,task,2021.1.4,Win32,74.96251874,628b806c463b948bc644b84f,629afe901cd7794e310e7601,,,,,2,0,2,0,1,X V Q F H G B L J M P D K C T S W R N Z,,,,,,,,,,,,,,,,,,,,,,,,,,,,,,,,,,,,,,,,,,,,,,,,,,,,,,,,,,,,,,,,,,,,,,,,,,,,,,,,,,,,,,,,,,,,,
,,,,,,,,,,60324e0d654dbd21e0e7fa2d,21,Mężczyzna,2022-06-04_08h43.53.508,task,2021.1.4,Win32,74.96251874,628b806c463b948bc644b84f,629afe901cd7794e310e7601,,,,,3,0,3,0,1,X V Q F H G B L J M P D K C T S W R N Z,,,,,,,,,,,,,,,,,,,,,,,,,,,,,,,,,,,,,,,,,,,,,,,,,,,,,,,,,,,,,,,,,,,,,,,,,,,,,,,,,,,,,,,,,,,,,
,,,,,,,,,,60324e0d654dbd21e0e7fa2d,21,Mężczyzna,2022-06-04_08h43.53.508,task,2021.1.4,Win32,74.96251874,628b806c463b948bc644b84f,629afe901cd7794e310e7601,,,,,,,,,,,kdfn,"[""k"",""d"",""f"",""n""]","[1.5370000000000346,1.9230000000000018,2.415999999999997,3.0260000000000105,4.814999999999998]",0,QDFN,4,0,4,0,1,,,,,,,,,,,,,,,,,,,,,,,,,,,,,,,,,,,,,,,,,,,,,,,,,,,,,,,,,,,,,,,,,,,,,,,,,,,,,,,,,,,
,,,,,,,,,,60324e0d654dbd21e0e7fa2d,21,Mężczyzna,2022-06-04_08h43.53.508,task,2021.1.4,Win32,74.96251874,628b806c463b948bc644b84f,629afe901cd7794e310e7601,,,,,0,0,0,0,1,X V Q F H G B L J M P D K C T S W R N Z,,,,,,,,,,,,,,,,,,,,,,,,,,,,,,,,,,,,,,,,,,,,,,,,,,,,,,,,,,,,,,,,,,,,,,,,,,,,,,,,,,,,,,,,,,,,,
,,,,,,,,,,60324e0d654dbd21e0e7fa2d,21,Mężczyzna,2022-06-04_08h43.53.508,task,2021.1.4,Win32,74.96251874,628b806c463b948bc644b84f,629afe901cd7794e310e7601,,,,,1,0,1,0,1,X V Q F H G B L J M P D K C T S W R N Z,,,,,,,,,,,,,,,,,,,,,,,,,,,,,,,,,,,,,,,,,,,,,,,,,,,,,,,,,,,,,,,,,,,,,,,,,,,,,,,,,,,,,,,,,,,,,
,,,,,,,,,,60324e0d654dbd21e0e7fa2d,21,Mężczyzna,2022-06-04_08h43.53.508,task,2021.1.4,Win32,74.96251874,628b806c463b948bc644b84f,629afe901cd7794e310e7601,,,,,2,0,2,0,1,X V Q F H G B L J M P D K C T S W R N Z,,,,,,,,,,,,,,,,,,,,,,,,,,,,,,,,,,,,,,,,,,,,,,,,,,,,,,,,,,,,,,,,,,,,,,,,,,,,,,,,,,,,,,,,,,,,,
,,,,,,,,,,60324e0d654dbd21e0e7fa2d,21,Mężczyzna,2022-06-04_08h43.53.508,task,2021.1.4,Win32,74.96251874,628b806c463b948bc644b84f,629afe901cd7794e310e7601,,,,,3,0,3,0,1,X V Q F H G B L J M P D K C T S W R N Z,,,,,,,,,,,,,,,,,,,,,,,,,,,,,,,,,,,,,,,,,,,,,,,,,,,,,,,,,,,,,,,,,,,,,,,,,,,,,,,,,,,,,,,,,,,,,
,,,,,,,,,,60324e0d654dbd21e0e7fa2d,21,Mężczyzna,2022-06-04_08h43.53.508,task,2021.1.4,Win32,74.96251874,628b806c463b948bc644b84f,629afe901cd7794e310e7601,,,,,,,,,,,bphw,"[""b"",""p"",""h"",""w""]","[1.6259999999999764,1.8530000000000086,2.497000000000014,2.6569999999999823,3.1469999999999914]",1,BPHW,5,0,5,0,1,,,,,,,,,,,,,,,,,,,,,,,,,,,,,,,,,,,,,,,,,,,,,,,,,,,,,,,,,,,,,,,,,,,,,,,,,,,,,,,,,,,
,,,,,,,,,,60324e0d654dbd21e0e7fa2d,21,Mężczyzna,2022-06-04_08h43.53.508,task,2021.1.4,Win32,74.96251874,628b806c463b948bc644b84f,629afe901cd7794e310e7601,,,,,0,0,0,0,1,X V Q F H G B L J M P D K C T S W R N Z,,,,,,,,,,,,,,,,,,,,,,,,,,,,,,,,,,,,,,,,,,,,,,,,,,,,,,,,,,,,,,,,,,,,,,,,,,,,,,,,,,,,,,,,,,,,,
,,,,,,,,,,60324e0d654dbd21e0e7fa2d,21,Mężczyzna,2022-06-04_08h43.53.508,task,2021.1.4,Win32,74.96251874,628b806c463b948bc644b84f,629afe901cd7794e310e7601,,,,,1,0,1,0,1,X V Q F H G B L J M P D K C T S W R N Z,,,,,,,,,,,,,,,,,,,,,,,,,,,,,,,,,,,,,,,,,,,,,,,,,,,,,,,,,,,,,,,,,,,,,,,,,,,,,,,,,,,,,,,,,,,,,
,,,,,,,,,,60324e0d654dbd21e0e7fa2d,21,Mężczyzna,2022-06-04_08h43.53.508,task,2021.1.4,Win32,74.96251874,628b806c463b948bc644b84f,629afe901cd7794e310e7601,,,,,2,0,2,0,1,X V Q F H G B L J M P D K C T S W R N Z,,,,,,,,,,,,,,,,,,,,,,,,,,,,,,,,,,,,,,,,,,,,,,,,,,,,,,,,,,,,,,,,,,,,,,,,,,,,,,,,,,,,,,,,,,,,,
,,,,,,,,,,60324e0d654dbd21e0e7fa2d,21,Mężczyzna,2022-06-04_08h43.53.508,task,2021.1.4,Win32,74.96251874,628b806c463b948bc644b84f,629afe901cd7794e310e7601,,,,,3,0,3,0,1,X V Q F H G B L J M P D K C T S W R N Z,,,,,,,,,,,,,,,,,,,,,,,,,,,,,,,,,,,,,,,,,,,,,,,,,,,,,,,,,,,,,,,,,,,,,,,,,,,,,,,,,,,,,,,,,,,,,
,,,,,,,,,,60324e0d654dbd21e0e7fa2d,21,Mężczyzna,2022-06-04_08h43.53.508,task,2021.1.4,Win32,74.96251874,628b806c463b948bc644b84f,629afe901cd7794e310e7601,,,,,,,,,,,vrkj,"[""v"",""r"",""k"",""j""]","[1.427000000000021,1.7060000000000173,2.093999999999994,2.3070000000000164,3.040999999999997]",1,VRKJ,6,0,6,0,1,,,,,,,,,,,,,,,,,,,,,,,,,,,,,,,,,,,,,,,,,,,,,,,,,,,,,,,,,,,,,,,,,,,,,,,,,,,,,,,,,,,
,,,,,,,,,,60324e0d654dbd21e0e7fa2d,21,Mężczyzna,2022-06-04_08h43.53.508,task,2021.1.4,Win32,74.96251874,628b806c463b948bc644b84f,629afe901cd7794e310e7601,,,,,0,0,0,0,1,X V Q F H G B L J M P D K C T S W R N Z,,,,,,,,,,,,,,,,,,,,,,,,,,,,,,,,,,,,,,,,,,,,,,,,,,,,,,,,,,,,,,,,,,,,,,,,,,,,,,,,,,,,,,,,,,,,,
,,,,,,,,,,60324e0d654dbd21e0e7fa2d,21,Mężczyzna,2022-06-04_08h43.53.508,task,2021.1.4,Win32,74.96251874,628b806c463b948bc644b84f,629afe901cd7794e310e7601,,,,,1,0,1,0,1,X V Q F H G B L J M P D K C T S W R N Z,,,,,,,,,,,,,,,,,,,,,,,,,,,,,,,,,,,,,,,,,,,,,,,,,,,,,,,,,,,,,,,,,,,,,,,,,,,,,,,,,,,,,,,,,,,,,
,,,,,,,,,,60324e0d654dbd21e0e7fa2d,21,Mężczyzna,2022-06-04_08h43.53.508,task,2021.1.4,Win32,74.96251874,628b806c463b948bc644b84f,629afe901cd7794e310e7601,,,,,2,0,2,0,1,X V Q F H G B L J M P D K C T S W R N Z,,,,,,,,,,,,,,,,,,,,,,,,,,,,,,,,,,,,,,,,,,,,,,,,,,,,,,,,,,,,,,,,,,,,,,,,,,,,,,,,,,,,,,,,,,,,,
,,,,,,,,,,60324e0d654dbd21e0e7fa2d,21,Mężczyzna,2022-06-04_08h43.53.508,task,2021.1.4,Win32,74.96251874,628b806c463b948bc644b84f,629afe901cd7794e310e7601,,,,,3,0,3,0,1,X V Q F H G B L J M P D K C T S W R N Z,,,,,,,,,,,,,,,,,,,,,,,,,,,,,,,,,,,,,,,,,,,,,,,,,,,,,,,,,,,,,,,,,,,,,,,,,,,,,,,,,,,,,,,,,,,,,
,,,,,,,,,,60324e0d654dbd21e0e7fa2d,21,Mężczyzna,2022-06-04_08h43.53.508,task,2021.1.4,Win32,74.96251874,628b806c463b948bc644b84f,629afe901cd7794e310e7601,,,,,4,0,4,0,1,X V Q F H G B L J M P D K C T S W R N Z,,,,,,,,,,,,,,,,,,,,,,,,,,,,,,,,,,,,,,,,,,,,,,,,,,,,,,,,,,,,,,,,,,,,,,,,,,,,,,,,,,,,,,,,,,,,,
,,,,,,,,,,60324e0d654dbd21e0e7fa2d,21,Mężczyzna,2022-06-04_08h43.53.508,task,2021.1.4,Win32,74.96251874,628b806c463b948bc644b84f,629afe901cd7794e310e7601,,,,,,,,,,,ljvkb,"[""l"",""j"",""v"",""k"",""b""]","[3.2970000000000255,3.7340000000000373,5.456000000000017,5.699000000000012,6.494000000000028,6.68100000000004]",0,LJFKB,7,0,7,0,1,,,,,,,,,,,,,,,,,,,,,,,,,,,,,,,,,,,,,,,,,,,,,,,,,,,,,,,,,,,,,,,,,,,,,,,,,,,,,,,,,,,
,,,,,,,,,,60324e0d654dbd21e0e7fa2d,21,Mężczyzna,2022-06-04_08h43.53.508,task,2021.1.4,Win32,74.96251874,628b806c463b948bc644b84f,629afe901cd7794e310e7601,,,,,0,0,0,0,1,X V Q F H G B L J M P D K C T S W R N Z,,,,,,,,,,,,,,,,,,,,,,,,,,,,,,,,,,,,,,,,,,,,,,,,,,,,,,,,,,,,,,,,,,,,,,,,,,,,,,,,,,,,,,,,,,,,,
,,,,,,,,,,60324e0d654dbd21e0e7fa2d,21,Mężczyzna,2022-06-04_08h43.53.508,task,2021.1.4,Win32,74.96251874,628b806c463b948bc644b84f,629afe901cd7794e310e7601,,,,,1,0,1,0,1,X V Q F H G B L J M P D K C T S W R N Z,,,,,,,,,,,,,,,,,,,,,,,,,,,,,,,,,,,,,,,,,,,,,,,,,,,,,,,,,,,,,,,,,,,,,,,,,,,,,,,,,,,,,,,,,,,,,
,,,,,,,,,,60324e0d654dbd21e0e7fa2d,21,Mężczyzna,2022-06-04_08h43.53.508,task,2021.1.4,Win32,74.96251874,628b806c463b948bc644b84f,629afe901cd7794e310e7601,,,,,2,0,2,0,1,X V Q F H G B L J M P D K C T S W R N Z,,,,,,,,,,,,,,,,,,,,,,,,,,,,,,,,,,,,,,,,,,,,,,,,,,,,,,,,,,,,,,,,,,,,,,,,,,,,,,,,,,,,,,,,,,,,,
,,,,,,,,,,60324e0d654dbd21e0e7fa2d,21,Mężczyzna,2022-06-04_08h43.53.508,task,2021.1.4,Win32,74.96251874,628b806c463b948bc644b84f,629afe901cd7794e310e7601,,,,,3,0,3,0,1,X V Q F H G B L J M P D K C T S W R N Z,,,,,,,,,,,,,,,,,,,,,,,,,,,,,,,,,,,,,,,,,,,,,,,,,,,,,,,,,,,,,,,,,,,,,,,,,,,,,,,,,,,,,,,,,,,,,
,,,,,,,,,,60324e0d654dbd21e0e7fa2d,21,Mężczyzna,2022-06-04_08h43.53.508,task,2021.1.4,Win32,74.96251874,628b806c463b948bc644b84f,629afe901cd7794e310e7601,,,,,4,0,4,0,1,X V Q F H G B L J M P D K C T S W R N Z,,,,,,,,,,,,,,,,,,,,,,,,,,,,,,,,,,,,,,,,,,,,,,,,,,,,,,,,,,,,,,,,,,,,,,,,,,,,,,,,,,,,,,,,,,,,,
,,,,,,,,,,60324e0d654dbd21e0e7fa2d,21,Mężczyzna,2022-06-04_08h43.53.508,task,2021.1.4,Win32,74.96251874,628b806c463b948bc644b84f,629afe901cd7794e310e7601,,,,,,,,,,,psnwg,"[""p"",""s"",""n"",""w"",""g""]","[1.524000000000001,1.9329999999999927,2.858000000000004,4.375999999999976,4.961000000000013,5.300000000000011]",1,PSNWG,8,0,8,0,1,,,,,,,,,,,,,,,,,,,,,,,,,,,,,,,,,,,,,,,,,,,,,,,,,,,,,,,,,,,,,,,,,,,,,,,,,,,,,,,,,,,
,,,,,,,,,,60324e0d654dbd21e0e7fa2d,21,Mężczyzna,2022-06-04_08h43.53.508,task,2021.1.4,Win32,74.96251874,628b806c463b948bc644b84f,629afe901cd7794e310e7601,,,,,0,0,0,0,1,X V Q F H G B L J M P D K C T S W R N Z,,,,,,,,,,,,,,,,,,,,,,,,,,,,,,,,,,,,,,,,,,,,,,,,,,,,,,,,,,,,,,,,,,,,,,,,,,,,,,,,,,,,,,,,,,,,,
,,,,,,,,,,60324e0d654dbd21e0e7fa2d,21,Mężczyzna,2022-06-04_08h43.53.508,task,2021.1.4,Win32,74.96251874,628b806c463b948bc644b84f,629afe901cd7794e310e7601,,,,,1,0,1,0,1,X V Q F H G B L J M P D K C T S W R N Z,,,,,,,,,,,,,,,,,,,,,,,,,,,,,,,,,,,,,,,,,,,,,,,,,,,,,,,,,,,,,,,,,,,,,,,,,,,,,,,,,,,,,,,,,,,,,
,,,,,,,,,,60324e0d654dbd21e0e7fa2d,21,Mężczyzna,2022-06-04_08h43.53.508,task,2021.1.4,Win32,74.96251874,628b806c463b948bc644b84f,629afe901cd7794e310e7601,,,,,2,0,2,0,1,X V Q F H G B L J M P D K C T S W R N Z,,,,,,,,,,,,,,,,,,,,,,,,,,,,,,,,,,,,,,,,,,,,,,,,,,,,,,,,,,,,,,,,,,,,,,,,,,,,,,,,,,,,,,,,,,,,,
,,,,,,,,,,60324e0d654dbd21e0e7fa2d,21,Mężczyzna,2022-06-04_08h43.53.508,task,2021.1.4,Win32,74.96251874,628b806c463b948bc644b84f,629afe901cd7794e310e7601,,,,,3,0,3,0,1,X V Q F H G B L J M P D K C T S W R N Z,,,,,,,,,,,,,,,,,,,,,,,,,,,,,,,,,,,,,,,,,,,,,,,,,,,,,,,,,,,,,,,,,,,,,,,,,,,,,,,,,,,,,,,,,,,,,
,,,,,,,,,,60324e0d654dbd21e0e7fa2d,21,Mężczyzna,2022-06-04_08h43.53.508,task,2021.1.4,Win32,74.96251874,628b806c463b948bc644b84f,629afe901cd7794e310e7601,,,,,4,0,4,0,1,X V Q F H G B L J M P D K C T S W R N Z,,,,,,,,,,,,,,,,,,,,,,,,,,,,,,,,,,,,,,,,,,,,,,,,,,,,,,,,,,,,,,,,,,,,,,,,,,,,,,,,,,,,,,,,,,,,,
,,,,,,,,,,60324e0d654dbd21e0e7fa2d,21,Mężczyzna,2022-06-04_08h43.53.508,task,2021.1.4,Win32,74.96251874,628b806c463b948bc644b84f,629afe901cd7794e310e7601,,,,,,,,,,,jffts,"[""j"",""f"",""f"",""t"",""s""]","[1.4839999999999804,2.7239999999999895,3.1340000000000146,4.1340000000000146,4.4010000000000105,6.228999999999985]",1,JFFTS,9,0,9,0,1,,,,,,,,,,,,,,,,,,,,,,,,,,,,,,,,,,,,,,,,,,,,,,,,,,,,,,,,,,,,,,,,,,,,,,,,,,,,,,,,,,,
,,,,,,,,,,60324e0d654dbd21e0e7fa2d,21,Mężczyzna,2022-06-04_08h43.53.508,task,2021.1.4,Win32,74.96251874,628b806c463b948bc644b84f,629afe901cd7794e310e7601,,,,,0,0,0,0,1,X V Q F H G B L J M P D K C T S W R N Z,,,,,,,,,,,,,,,,,,,,,,,,,,,,,,,,,,,,,,,,,,,,,,,,,,,,,,,,,,,,,,,,,,,,,,,,,,,,,,,,,,,,,,,,,,,,,
,,,,,,,,,,60324e0d654dbd21e0e7fa2d,21,Mężczyzna,2022-06-04_08h43.53.508,task,2021.1.4,Win32,74.96251874,628b806c463b948bc644b84f,629afe901cd7794e310e7601,,,,,1,0,1,0,1,X V Q F H G B L J M P D K C T S W R N Z,,,,,,,,,,,,,,,,,,,,,,,,,,,,,,,,,,,,,,,,,,,,,,,,,,,,,,,,,,,,,,,,,,,,,,,,,,,,,,,,,,,,,,,,,,,,,
,,,,,,,,,,60324e0d654dbd21e0e7fa2d,21,Mężczyzna,2022-06-04_08h43.53.508,task,2021.1.4,Win32,74.96251874,628b806c463b948bc644b84f,629afe901cd7794e310e7601,,,,,2,0,2,0,1,X V Q F H G B L J M P D K C T S W R N Z,,,,,,,,,,,,,,,,,,,,,,,,,,,,,,,,,,,,,,,,,,,,,,,,,,,,,,,,,,,,,,,,,,,,,,,,,,,,,,,,,,,,,,,,,,,,,
,,,,,,,,,,60324e0d654dbd21e0e7fa2d,21,Mężczyzna,2022-06-04_08h43.53.508,task,2021.1.4,Win32,74.96251874,628b806c463b948bc644b84f,629afe901cd7794e310e7601,,,,,3,0,3,0,1,X V Q F H G B L J M P D K C T S W R N Z,,,,,,,,,,,,,,,,,,,,,,,,,,,,,,,,,,,,,,,,,,,,,,,,,,,,,,,,,,,,,,,,,,,,,,,,,,,,,,,,,,,,,,,,,,,,,
,,,,,,,,,,60324e0d654dbd21e0e7fa2d,21,Mężczyzna,2022-06-04_08h43.53.508,task,2021.1.4,Win32,74.96251874,628b806c463b948bc644b84f,629afe901cd7794e310e7601,,,,,4,0,4,0,1,X V Q F H G B L J M P D K C T S W R N Z,,,,,,,,,,,,,,,,,,,,,,,,,,,,,,,,,,,,,,,,,,,,,,,,,,,,,,,,,,,,,,,,,,,,,,,,,,,,,,,,,,,,,,,,,,,,,
,,,,,,,,,,60324e0d654dbd21e0e7fa2d,21,Mężczyzna,2022-06-04_08h43.53.508,task,2021.1.4,Win32,74.96251874,628b806c463b948bc644b84f,629afe901cd7794e310e7601,,,,,5,0,5,0,1,X V Q F H G B L J M P D K C T S W R N Z,,,,,,,,,,,,,,,,,,,,,,,,,,,,,,,,,,,,,,,,,,,,,,,,,,,,,,,,,,,,,,,,,,,,,,,,,,,,,,,,,,,,,,,,,,,,,
,,,,,,,,,,60324e0d654dbd21e0e7fa2d,21,Mężczyzna,2022-06-04_08h43.53.508,task,2021.1.4,Win32,74.96251874,628b806c463b948bc644b84f,629afe901cd7794e310e7601,,,,,,,,,,,qkfpkb,"[""q"",""k"",""f"",""p"",""k"",""b""]","[1.9370000000000118,3,3.586999999999989,4.855000000000018,5.9220000000000255,6.882999999999981,7.442000000000007]",1,QKFPKB,10,0,10,0,1,,,,,,,,,,,,,,,,,,,,,,,,,,,,,,,,,,,,,,,,,,,,,,,,,,,,,,,,,,,,,,,,,,,,,,,,,,,,,,,,,,,
,,,,,,,,,,60324e0d654dbd21e0e7fa2d,21,Mężczyzna,2022-06-04_08h43.53.508,task,2021.1.4,Win32,74.96251874,628b806c463b948bc644b84f,629afe901cd7794e310e7601,,,,,0,0,0,0,1,X V Q F H G B L J M P D K C T S W R N Z,,,,,,,,,,,,,,,,,,,,,,,,,,,,,,,,,,,,,,,,,,,,,,,,,,,,,,,,,,,,,,,,,,,,,,,,,,,,,,,,,,,,,,,,,,,,,
,,,,,,,,,,60324e0d654dbd21e0e7fa2d,21,Mężczyzna,2022-06-04_08h43.53.508,task,2021.1.4,Win32,74.96251874,628b806c463b948bc644b84f,629afe901cd7794e310e7601,,,,,1,0,1,0,1,X V Q F H G B L J M P D K C T S W R N Z,,,,,,,,,,,,,,,,,,,,,,,,,,,,,,,,,,,,,,,,,,,,,,,,,,,,,,,,,,,,,,,,,,,,,,,,,,,,,,,,,,,,,,,,,,,,,
,,,,,,,,,,60324e0d654dbd21e0e7fa2d,21,Mężczyzna,2022-06-04_08h43.53.508,task,2021.1.4,Win32,74.96251874,628b806c463b948bc644b84f,629afe901cd7794e310e7601,,,,,2,0,2,0,1,X V Q F H G B L J M P D K C T S W R N Z,,,,,,,,,,,,,,,,,,,,,,,,,,,,,,,,,,,,,,,,,,,,,,,,,,,,,,,,,,,,,,,,,,,,,,,,,,,,,,,,,,,,,,,,,,,,,
,,,,,,,,,,60324e0d654dbd21e0e7fa2d,21,Mężczyzna,2022-06-04_08h43.53.508,task,2021.1.4,Win32,74.96251874,628b806c463b948bc644b84f,629afe901cd7794e310e7601,,,,,3,0,3,0,1,X V Q F H G B L J M P D K C T S W R N Z,,,,,,,,,,,,,,,,,,,,,,,,,,,,,,,,,,,,,,,,,,,,,,,,,,,,,,,,,,,,,,,,,,,,,,,,,,,,,,,,,,,,,,,,,,,,,
,,,,,,,,,,60324e0d654dbd21e0e7fa2d,21,Mężczyzna,2022-06-04_08h43.53.508,task,2021.1.4,Win32,74.96251874,628b806c463b948bc644b84f,629afe901cd7794e310e7601,,,,,4,0,4,0,1,X V Q F H G B L J M P D K C T S W R N Z,,,,,,,,,,,,,,,,,,,,,,,,,,,,,,,,,,,,,,,,,,,,,,,,,,,,,,,,,,,,,,,,,,,,,,,,,,,,,,,,,,,,,,,,,,,,,
,,,,,,,,,,60324e0d654dbd21e0e7fa2d,21,Mężczyzna,2022-06-04_08h43.53.508,task,2021.1.4,Win32,74.96251874,628b806c463b948bc644b84f,629afe901cd7794e310e7601,,,,,5,0,5,0,1,X V Q F H G B L J M P D K C T S W R N Z,,,,,,,,,,,,,,,,,,,,,,,,,,,,,,,,,,,,,,,,,,,,,,,,,,,,,,,,,,,,,,,,,,,,,,,,,,,,,,,,,,,,,,,,,,,,,
,,,,,,,,,,60324e0d654dbd21e0e7fa2d,21,Mężczyzna,2022-06-04_08h43.53.508,task,2021.1.4,Win32,74.96251874,628b806c463b948bc644b84f,629afe901cd7794e310e7601,,,,,,,,,,,pwsmts,"[""p"",""w"",""s"",""m"",""t"",""s""]","[1.122000000000014,1.43100000000004,1.8260000000000218,2.507000000000005,3.066000000000031,3.2270000000000323,8.642000000000053]",1,PWSMTS,11,0,11,0,1,,,,,,,,,,,,,,,,,,,,,,,,,,,,,,,,,,,,,,,,,,,,,,,,,,,,,,,,,,,,,,,,,,,,,,,,,,,,,,,,,,,
,,,,,,,,,,60324e0d654dbd21e0e7fa2d,21,Mężczyzna,2022-06-04_08h43.53.508,task,2021.1.4,Win32,74.96251874,628b806c463b948bc644b84f,629afe901cd7794e310e7601,,,,,0,0,0,0,1,X V Q F H G B L J M P D K C T S W R N Z,,,,,,,,,,,,,,,,,,,,,,,,,,,,,,,,,,,,,,,,,,,,,,,,,,,,,,,,,,,,,,,,,,,,,,,,,,,,,,,,,,,,,,,,,,,,,
,,,,,,,,,,60324e0d654dbd21e0e7fa2d,21,Mężczyzna,2022-06-04_08h43.53.508,task,2021.1.4,Win32,74.96251874,628b806c463b948bc644b84f,629afe901cd7794e310e7601,,,,,1,0,1,0,1,X V Q F H G B L J M P D K C T S W R N Z,,,,,,,,,,,,,,,,,,,,,,,,,,,,,,,,,,,,,,,,,,,,,,,,,,,,,,,,,,,,,,,,,,,,,,,,,,,,,,,,,,,,,,,,,,,,,
,,,,,,,,,,60324e0d654dbd21e0e7fa2d,21,Mężczyzna,2022-06-04_08h43.53.508,task,2021.1.4,Win32,74.96251874,628b806c463b948bc644b84f,629afe901cd7794e310e7601,,,,,2,0,2,0,1,X V Q F H G B L J M P D K C T S W R N Z,,,,,,,,,,,,,,,,,,,,,,,,,,,,,,,,,,,,,,,,,,,,,,,,,,,,,,,,,,,,,,,,,,,,,,,,,,,,,,,,,,,,,,,,,,,,,
,,,,,,,,,,60324e0d654dbd21e0e7fa2d,21,Mężczyzna,2022-06-04_08h43.53.508,task,2021.1.4,Win32,74.96251874,628b806c463b948bc644b84f,629afe901cd7794e310e7601,,,,,3,0,3,0,1,X V Q F H G B L J M P D K C T S W R N Z,,,,,,,,,,,,,,,,,,,,,,,,,,,,,,,,,,,,,,,,,,,,,,,,,,,,,,,,,,,,,,,,,,,,,,,,,,,,,,,,,,,,,,,,,,,,,
,,,,,,,,,,60324e0d654dbd21e0e7fa2d,21,Mężczyzna,2022-06-04_08h43.53.508,task,2021.1.4,Win32,74.96251874,628b806c463b948bc644b84f,629afe901cd7794e310e7601,,,,,4,0,4,0,1,X V Q F H G B L J M P D K C T S W R N Z,,,,,,,,,,,,,,,,,,,,,,,,,,,,,,,,,,,,,,,,,,,,,,,,,,,,,,,,,,,,,,,,,,,,,,,,,,,,,,,,,,,,,,,,,,,,,
,,,,,,,,,,60324e0d654dbd21e0e7fa2d,21,Mężczyzna,2022-06-04_08h43.53.508,task,2021.1.4,Win32,74.96251874,628b806c463b948bc644b84f,629afe901cd7794e310e7601,,,,,5,0,5,0,1,X V Q F H G B L J M P D K C T S W R N Z,,,,,,,,,,,,,,,,,,,,,,,,,,,,,,,,,,,,,,,,,,,,,,,,,,,,,,,,,,,,,,,,,,,,,,,,,,,,,,,,,,,,,,,,,,,,,
,,,,,,,,,,60324e0d654dbd21e0e7fa2d,21,Mężczyzna,2022-06-04_08h43.53.508,task,2021.1.4,Win32,74.96251874,628b806c463b948bc644b84f,629afe901cd7794e310e7601,,,,,6,0,6,0,1,X V Q F H G B L J M P D K C T S W R N Z,,,,,,,,,,,,,,,,,,,,,,,,,,,,,,,,,,,,,,,,,,,,,,,,,,,,,,,,,,,,,,,,,,,,,,,,,,,,,,,,,,,,,,,,,,,,,
,,,,,,,,,,60324e0d654dbd21e0e7fa2d,21,Mężczyzna,2022-06-04_08h43.53.508,task,2021.1.4,Win32,74.96251874,628b806c463b948bc644b84f,629afe901cd7794e310e7601,,,,,,,,,,,dwdwjlz,"[""d"",""w"",""d"",""w"",""j"",""l"",""z""]","[2.680999999999983,2.826999999999998,3.45799999999997,3.5849999999999795,4.34699999999998,4.880999999999972,5.040999999999997,7.9080000000000155]",1,DWDWJLZ,12,0,12,0,1,,,,,,,,,,,,,,,,,,,,,,,,,,,,,,,,,,,,,,,,,,,,,,,,,,,,,,,,,,,,,,,,,,,,,,,,,,,,,,,,,,,
,,,,,,,,,,60324e0d654dbd21e0e7fa2d,21,Mężczyzna,2022-06-04_08h43.53.508,task,2021.1.4,Win32,74.96251874,628b806c463b948bc644b84f,629afe901cd7794e310e7601,,,,,0,0,0,0,1,X V Q F H G B L J M P D K C T S W R N Z,,,,,,,,,,,,,,,,,,,,,,,,,,,,,,,,,,,,,,,,,,,,,,,,,,,,,,,,,,,,,,,,,,,,,,,,,,,,,,,,,,,,,,,,,,,,,
,,,,,,,,,,60324e0d654dbd21e0e7fa2d,21,Mężczyzna,2022-06-04_08h43.53.508,task,2021.1.4,Win32,74.96251874,628b806c463b948bc644b84f,629afe901cd7794e310e7601,,,,,1,0,1,0,1,X V Q F H G B L J M P D K C T S W R N Z,,,,,,,,,,,,,,,,,,,,,,,,,,,,,,,,,,,,,,,,,,,,,,,,,,,,,,,,,,,,,,,,,,,,,,,,,,,,,,,,,,,,,,,,,,,,,
,,,,,,,,,,60324e0d654dbd21e0e7fa2d,21,Mężczyzna,2022-06-04_08h43.53.508,task,2021.1.4,Win32,74.96251874,628b806c463b948bc644b84f,629afe901cd7794e310e7601,,,,,2,0,2,0,1,X V Q F H G B L J M P D K C T S W R N Z,,,,,,,,,,,,,,,,,,,,,,,,,,,,,,,,,,,,,,,,,,,,,,,,,,,,,,,,,,,,,,,,,,,,,,,,,,,,,,,,,,,,,,,,,,,,,
,,,,,,,,,,60324e0d654dbd21e0e7fa2d,21,Mężczyzna,2022-06-04_08h43.53.508,task,2021.1.4,Win32,74.96251874,628b806c463b948bc644b84f,629afe901cd7794e310e7601,,,,,3,0,3,0,1,X V Q F H G B L J M P D K C T S W R N Z,,,,,,,,,,,,,,,,,,,,,,,,,,,,,,,,,,,,,,,,,,,,,,,,,,,,,,,,,,,,,,,,,,,,,,,,,,,,,,,,,,,,,,,,,,,,,
,,,,,,,,,,60324e0d654dbd21e0e7fa2d,21,Mężczyzna,2022-06-04_08h43.53.508,task,2021.1.4,Win32,74.96251874,628b806c463b948bc644b84f,629afe901cd7794e310e7601,,,,,4,0,4,0,1,X V Q F H G B L J M P D K C T S W R N Z,,,,,,,,,,,,,,,,,,,,,,,,,,,,,,,,,,,,,,,,,,,,,,,,,,,,,,,,,,,,,,,,,,,,,,,,,,,,,,,,,,,,,,,,,,,,,
,,,,,,,,,,60324e0d654dbd21e0e7fa2d,21,Mężczyzna,2022-06-04_08h43.53.508,task,2021.1.4,Win32,74.96251874,628b806c463b948bc644b84f,629afe901cd7794e310e7601,,,,,5,0,5,0,1,X V Q F H G B L J M P D K C T S W R N Z,,,,,,,,,,,,,,,,,,,,,,,,,,,,,,,,,,,,,,,,,,,,,,,,,,,,,,,,,,,,,,,,,,,,,,,,,,,,,,,,,,,,,,,,,,,,,
,,,,,,,,,,60324e0d654dbd21e0e7fa2d,21,Mężczyzna,2022-06-04_08h43.53.508,task,2021.1.4,Win32,74.96251874,628b806c463b948bc644b84f,629afe901cd7794e310e7601,,,,,6,0,6,0,1,X V Q F H G B L J M P D K C T S W R N Z,,,,,,,,,,,,,,,,,,,,,,,,,,,,,,,,,,,,,,,,,,,,,,,,,,,,,,,,,,,,,,,,,,,,,,,,,,,,,,,,,,,,,,,,,,,,,
,,,,,,,,,,60324e0d654dbd21e0e7fa2d,21,Mężczyzna,2022-06-04_08h43.53.508,task,2021.1.4,Win32,74.96251874,628b806c463b948bc644b84f,629afe901cd7794e310e7601,,,,,,,,,,,jfwzfd,"[""j"",""f"",""w"",""z"",""f"",""d""]","[2.0130000000000337,3.1779999999999973,4.5919999999999845,4.899000000000001,6.776000000000067,7.429000000000087,7.72199999999998]",0,JFWZFDN,13,0,13,0,1,,,,,,,,,,,,,,,,,,,,,,,,,,,,,,,,,,,,,,,,,,,,,,,,,,,,,,,,,,,,,,,,,,,,,,,,,,,,,,,,,,,
,,,,,,,,,,60324e0d654dbd21e0e7fa2d,21,Mężczyzna,2022-06-04_08h43.53.508,task,2021.1.4,Win32,74.96251874,628b806c463b948bc644b84f,629afe901cd7794e310e7601,,,,,0,0,0,0,1,X V Q F H G B L J M P D K C T S W R N Z,,,,,,,,,,,,,,,,,,,,,,,,,,,,,,,,,,,,,,,,,,,,,,,,,,,,,,,,,,,,,,,,,,,,,,,,,,,,,,,,,,,,,,,,,,,,,
,,,,,,,,,,60324e0d654dbd21e0e7fa2d,21,Mężczyzna,2022-06-04_08h43.53.508,task,2021.1.4,Win32,74.96251874,628b806c463b948bc644b84f,629afe901cd7794e310e7601,,,,,1,0,1,0,1,X V Q F H G B L J M P D K C T S W R N Z,,,,,,,,,,,,,,,,,,,,,,,,,,,,,,,,,,,,,,,,,,,,,,,,,,,,,,,,,,,,,,,,,,,,,,,,,,,,,,,,,,,,,,,,,,,,,
,,,,,,,,,,60324e0d654dbd21e0e7fa2d,21,Mężczyzna,2022-06-04_08h43.53.508,task,2021.1.4,Win32,74.96251874,628b806c463b948bc644b84f,629afe901cd7794e310e7601,,,,,2,0,2,0,1,X V Q F H G B L J M P D K C T S W R N Z,,,,,,,,,,,,,,,,,,,,,,,,,,,,,,,,,,,,,,,,,,,,,,,,,,,,,,,,,,,,,,,,,,,,,,,,,,,,,,,,,,,,,,,,,,,,,
,,,,,,,,,,60324e0d654dbd21e0e7fa2d,21,Mężczyzna,2022-06-04_08h43.53.508,task,2021.1.4,Win32,74.96251874,628b806c463b948bc644b84f,629afe901cd7794e310e7601,,,,,3,0,3,0,1,X V Q F H G B L J M P D K C T S W R N Z,,,,,,,,,,,,,,,,,,,,,,,,,,,,,,,,,,,,,,,,,,,,,,,,,,,,,,,,,,,,,,,,,,,,,,,,,,,,,,,,,,,,,,,,,,,,,
,,,,,,,,,,60324e0d654dbd21e0e7fa2d,21,Mężczyzna,2022-06-04_08h43.53.508,task,2021.1.4,Win32,74.96251874,628b806c463b948bc644b84f,629afe901cd7794e310e7601,,,,,4,0,4,0,1,X V Q F H G B L J M P D K C T S W R N Z,,,,,,,,,,,,,,,,,,,,,,,,,,,,,,,,,,,,,,,,,,,,,,,,,,,,,,,,,,,,,,,,,,,,,,,,,,,,,,,,,,,,,,,,,,,,,
,,,,,,,,,,60324e0d654dbd21e0e7fa2d,21,Mężczyzna,2022-06-04_08h43.53.508,task,2021.1.4,Win32,74.96251874,628b806c463b948bc644b84f,629afe901cd7794e310e7601,,,,,5,0,5,0,1,X V Q F H G B L J M P D K C T S W R N Z,,,,,,,,,,,,,,,,,,,,,,,,,,,,,,,,,,,,,,,,,,,,,,,,,,,,,,,,,,,,,,,,,,,,,,,,,,,,,,,,,,,,,,,,,,,,,
,,,,,,,,,,60324e0d654dbd21e0e7fa2d,21,Mężczyzna,2022-06-04_08h43.53.508,task,2021.1.4,Win32,74.96251874,628b806c463b948bc644b84f,629afe901cd7794e310e7601,,,,,6,0,6,0,1,X V Q F H G B L J M P D K C T S W R N Z,,,,,,,,,,,,,,,,,,,,,,,,,,,,,,,,,,,,,,,,,,,,,,,,,,,,,,,,,,,,,,,,,,,,,,,,,,,,,,,,,,,,,,,,,,,,,
,,,,,,,,,,60324e0d654dbd21e0e7fa2d,21,Mężczyzna,2022-06-04_08h43.53.508,task,2021.1.4,Win32,74.96251874,628b806c463b948bc644b84f,629afe901cd7794e310e7601,,,,,,,,,,,ddwnvkk,"[""d"",""d"",""w"",""n"",""v"",""k"",""k""]","[2.3769999999999527,2.590000000000032,3.280999999999949,3.562000000000012,4.68100000000004,6.481999999999971,6.682000000000016,7.629000000000019]",0,DDTPVKK,14,0,14,0,1,,,,,,,,,,,,,,,,,,,,,,,,,,,,,,,,,,,,,,,,,,,,,,,,,,,,,,,,,,,,,,,,,,,,,,,,,,,,,,,,,,,
,,,,,,,,,,60324e0d654dbd21e0e7fa2d,21,Mężczyzna,2022-06-04_08h43.53.508,task,2021.1.4,Win32,74.96251874,628b806c463b948bc644b84f,629afe901cd7794e310e7601,,,,,0,0,0,0,1,X V Q F H G B L J M P D K C T S W R N Z,,,,,,,,,,,,,,,,,,,,,,,,,,,,,,,,,,,,,,,,,,,,,,,,,,,,,,,,,,,,,,,,,,,,,,,,,,,,,,,,,,,,,,,,,,,,,
,,,,,,,,,,60324e0d654dbd21e0e7fa2d,21,Mężczyzna,2022-06-04_08h43.53.508,task,2021.1.4,Win32,74.96251874,628b806c463b948bc644b84f,629afe901cd7794e310e7601,,,,,1,0,1,0,1,X V Q F H G B L J M P D K C T S W R N Z,,,,,,,,,,,,,,,,,,,,,,,,,,,,,,,,,,,,,,,,,,,,,,,,,,,,,,,,,,,,,,,,,,,,,,,,,,,,,,,,,,,,,,,,,,,,,
,,,,,,,,,,60324e0d654dbd21e0e7fa2d,21,Mężczyzna,2022-06-04_08h43.53.508,task,2021.1.4,Win32,74.96251874,628b806c463b948bc644b84f,629afe901cd7794e310e7601,,,,,2,0,2,0,1,X V Q F H G B L J M P D K C T S W R N Z,,,,,,,,,,,,,,,,,,,,,,,,,,,,,,,,,,,,,,,,,,,,,,,,,,,,,,,,,,,,,,,,,,,,,,,,,,,,,,,,,,,,,,,,,,,,,
,,,,,,,,,,60324e0d654dbd21e0e7fa2d,21,Mężczyzna,2022-06-04_08h43.53.508,task,2021.1.4,Win32,74.96251874,628b806c463b948bc644b84f,629afe901cd7794e310e7601,,,,,3,0,3,0,1,X V Q F H G B L J M P D K C T S W R N Z,,,,,,,,,,,,,,,,,,,,,,,,,,,,,,,,,,,,,,,,,,,,,,,,,,,,,,,,,,,,,,,,,,,,,,,,,,,,,,,,,,,,,,,,,,,,,
,,,,,,,,,,60324e0d654dbd21e0e7fa2d,21,Mężczyzna,2022-06-04_08h43.53.508,task,2021.1.4,Win32,74.96251874,628b806c463b948bc644b84f,629afe901cd7794e310e7601,,,,,4,0,4,0,1,X V Q F H G B L J M P D K C T S W R N Z,,,,,,,,,,,,,,,,,,,,,,,,,,,,,,,,,,,,,,,,,,,,,,,,,,,,,,,,,,,,,,,,,,,,,,,,,,,,,,,,,,,,,,,,,,,,,
,,,,,,,,,,60324e0d654dbd21e0e7fa2d,21,Mężczyzna,2022-06-04_08h43.53.508,task,2021.1.4,Win32,74.96251874,628b806c463b948bc644b84f,629afe901cd7794e310e7601,,,,,5,0,5,0,1,X V Q F H G B L J M P D K C T S W R N Z,,,,,,,,,,,,,,,,,,,,,,,,,,,,,,,,,,,,,,,,,,,,,,,,,,,,,,,,,,,,,,,,,,,,,,,,,,,,,,,,,,,,,,,,,,,,,
,,,,,,,,,,60324e0d654dbd21e0e7fa2d,21,Mężczyzna,2022-06-04_08h43.53.508,task,2021.1.4,Win32,74.96251874,628b806c463b948bc644b84f,629afe901cd7794e310e7601,,,,,6,0,6,0,1,X V Q F H G B L J M P D K C T S W R N Z,,,,,,,,,,,,,,,,,,,,,,,,,,,,,,,,,,,,,,,,,,,,,,,,,,,,,,,,,,,,,,,,,,,,,,,,,,,,,,,,,,,,,,,,,,,,,
,,,,,,,,,,60324e0d654dbd21e0e7fa2d,21,Mężczyzna,2022-06-04_08h43.53.508,task,2021.1.4,Win32,74.96251874,628b806c463b948bc644b84f,629afe901cd7794e310e7601,,,,,,,,,,,kgljjtv,"[""k"",""g"",""l"",""j"",""j"",""t"",""v""]","[1.34699999999998,2.1860000000000355,3.201000000000022,3.98700000000008,4.9780000000000655,8.07000000000005,9.194000000000074,9.322999999999979]",0,KGLJJGT,15,0,15,0,1,,,,,,,,,,,,,,,,,,,,,,,,,,,,,,,,,,,,,,,,,,,,,,,,,,,,,,,,,,,,,,,,,,,,,,,,,,,,,,,,,,,
,,,,,,,,,,60324e0d654dbd21e0e7fa2d,21,Mężczyzna,2022-06-04_08h43.53.508,task,2021.1.4,Win32,74.96251874,628b806c463b948bc644b84f,629afe901cd7794e310e7601,,,,,,,,,,,,,,,,,,,,,space,15.42,0,"[""0""]",1,[6.488999999999919],[6.488999999999919],0,0,0,0,1,Practice,1,(3x3) -  9,0,,,,,,,,,,,,,,,,,,,,,,,,,,,,,,,,,,,,,,,,,,,,,,,,,,,,,,,,,,,,,,,,,,,
,,,,,,,,,,60324e0d654dbd21e0e7fa2d,21,Mężczyzna,2022-06-04_08h43.53.508,task,2021.1.4,Win32,74.96251874,628b806c463b948bc644b84f,629afe901cd7794e310e7601,,,,,,,,,,,,,,,,,,,,,,,1,"[""1""]",1,[3.147999999999911],"[6.488999999999919,3.147999999999911]",0,1,1,1,1,Practice,2,(4x4) - 15,1,,,,,,,,,,,,,,,,,,,,,,,,,,,,,,,,,,,,,,,,,,,,,,,,,,,,,,,,,,,,,,,,,,,
,,,,,,,,,,60324e0d654dbd21e0e7fa2d,21,Mężczyzna,2022-06-04_08h43.53.508,task,2021.1.4,Win32,74.96251874,628b806c463b948bc644b84f,629afe901cd7794e310e7601,,,,,,,,,,,,,,,,,,,,,,,6,"[""6""]",1,[2.8150000000000546],"[6.488999999999919,3.147999999999911,2.8150000000000546]",0,2,2,6,1,Practice,7,(25/5) + 1,6,,,,,,,,,,,,,,,,,,,,,,,,,,,,,,,,,,,,,,,,,,,,,,,,,,,,,,,,,,,,,,,,,,,
,,,,,,,,,,60324e0d654dbd21e0e7fa2d,21,Mężczyzna,2022-06-04_08h43.53.508,task,2021.1.4,Win32,74.96251874,628b806c463b948bc644b84f,629afe901cd7794e310e7601,,,,,,,,,,,,,,,,,,,,,,,4,"[""4""]",1,[3.216000000000008],"[6.488999999999919,3.147999999999911,2.8150000000000546,3.216000000000008]",0,3,3,4,1,Practice,5,(2x6) - 8,4,,,,,,,,,,,,,,,,,,,,,,,,,,,,,,,,,,,,,,,,,,,,,,,,,,,,,,,,,,,,,,,,,,,
,,,,,,,,,,60324e0d654dbd21e0e7fa2d,21,Mężczyzna,2022-06-04_08h43.53.508,task,2021.1.4,Win32,74.96251874,628b806c463b948bc644b84f,629afe901cd7794e310e7601,,,,,,,,,,,,,,,,,,,,,,,9,"[""9""]",1,[2.3880000000000337],"[6.488999999999919,3.147999999999911,2.8150000000000546,3.216000000000008,2.3880000000000337]",0,4,4,9,1,Practice,10,(20/2) - 1,9,,,,,,,,,,,,,,,,,,,,,,,,,,,,,,,,,,,,,,,,,,,,,,,,,,,,,,,,,,,,,,,,,,,
,,,,,,,,,,60324e0d654dbd21e0e7fa2d,21,Mężczyzna,2022-06-04_08h43.53.508,task,2021.1.4,Win32,74.96251874,628b806c463b948bc644b84f,629afe901cd7794e310e7601,,,,,,,,,,,,,,,,,,,,,,,8,"[""8""]",1,[2.798000000000002],"[6.488999999999919,3.147999999999911,2.8150000000000546,3.216000000000008,2.3880000000000337,2.798000000000002]",0,5,5,8,1,Practice,9,(3x3) - 1,8,,,,,,,,,,,,,,,,,,,,,,,,,,,,,,,,,,,,,,,,,,,,,,,,,,,,,,,,,,,,,,,,,,,
,,,,,,,,,,60324e0d654dbd21e0e7fa2d,21,Mężczyzna,2022-06-04_08h43.53.508,task,2021.1.4,Win32,74.96251874,628b806c463b948bc644b84f,629afe901cd7794e310e7601,,,,,,,,,,,,,,,,,,,,,,,2,"[""2""]",1,[2.3330000000000837],"[6.488999999999919,3.147999999999911,2.8150000000000546,3.216000000000008,2.3880000000000337,2.798000000000002,2.3330000000000837]",0,6,6,2,1,Practice,3,(4x4) - 14,2,,,,,,,,,,,,,,,,,,,,,,,,,,,,,,,,,,,,,,,,,,,,,,,,,,,,,,,,,,,,,,,,,,,
,,,,,,,,,,60324e0d654dbd21e0e7fa2d,21,Mężczyzna,2022-06-04_08h43.53.508,task,2021.1.4,Win32,74.96251874,628b806c463b948bc644b84f,629afe901cd7794e310e7601,,,,,,,,,,,,,,,,,,,,,,,3,"[""3""]",1,[1.7369999999999663],"[6.488999999999919,3.147999999999911,2.8150000000000546,3.216000000000008,2.3880000000000337,2.798000000000002,2.3330000000000837,1.7369999999999663]",0,7,7,3,1,Practice,4,(8/4) + 1,3,,,,,,,,,,,,,,,,,,,,,,,,,,,,,,,,,,,,,,,,,,,,,,,,,,,,,,,,,,,,,,,,,,,
,,,,,,,,,,60324e0d654dbd21e0e7fa2d,21,Mężczyzna,2022-06-04_08h43.53.508,task,2021.1.4,Win32,74.96251874,628b806c463b948bc644b84f,629afe901cd7794e310e7601,,,,,,,,,,,,,,,,,,,,,,,7,"[""7""]",1,[2.923000000000002],"[6.488999999999919,3.147999999999911,2.8150000000000546,3.216000000000008,2.3880000000000337,2.798000000000002,2.3330000000000837,1.7369999999999663,2.923000000000002]",0,8,8,7,1,Practice,8,(5x5) - 18,7,,,,,,,,,,,,,,,,,,,,,,,,,,,,,,,,,,,,,,,,,,,,,,,,,,,,,,,,,,,,,,,,,,,
,,,,,,,,,,60324e0d654dbd21e0e7fa2d,21,Mężczyzna,2022-06-04_08h43.53.508,task,2021.1.4,Win32,74.96251874,628b806c463b948bc644b84f,629afe901cd7794e310e7601,,,,,,,,,,,,,,,,,,,,,,,5,"[""5""]",1,[2.5270000000000437],"[6.488999999999919,3.147999999999911,2.8150000000000546,3.216000000000008,2.3880000000000337,2.798000000000002,2.3330000000000837,1.7369999999999663,2.923000000000002,2.5270000000000437]",0,9,9,5,1,Practice,6,(4/2) + 3,5,,,,,,,,,,,,,,,,,,,,,,,,,,,,,,,,,,,,,,,,,,,,,,,,,,,,,,,,,,,,,,,,,,,
,,,,,,,,,,60324e0d654dbd21e0e7fa2d,21,Mężczyzna,2022-06-04_08h43.53.508,task,2021.1.4,Win32,74.96251874,628b806c463b948bc644b84f,629afe901cd7794e310e7601,,,,,,,,,,,,,,,,,,,,,,,,,,,,,,,,,,,,,1,30.374,2.024933333,25.19786991,1.296093359,5.368854198,space,9.914,0,0,0,0,1,,,,,,,,,,,,,,,,,,,,,,,,,,,,,,,,,,,,,,,,,,,,,,,,,,,,,,
,,,,,,,,,,60324e0d654dbd21e0e7fa2d,21,Mężczyzna,2022-06-04_08h43.53.508,task,2021.1.4,Win32,74.96251874,628b806c463b948bc644b84f,629afe901cd7794e310e7601,,,,,,,,,,,,,,,,,,,,,,,,,,,,,,,,,Practice,4,(8/4) + 1,3,,,,,,,,,,,,,,space,19.689,,0,0,0,0,0,3,1,,,,,,,,,,,,,,,,,,,,,,,,,,,,,,,,,,,,,,,,,,,,
,,,,,,,,,,60324e0d654dbd21e0e7fa2d,21,Mężczyzna,2022-06-04_08h43.53.508,task,2021.1.4,Win32,74.96251874,628b806c463b948bc644b84f,629afe901cd7794e310e7601,,,,,,,,,,,,,,,,,,,,,,,,,,,,,,,,,Practice,9,(3x3) - 1,8,,,,,,,,,,,,,,,,,0,0,0,1,1,8,1,,,,,,,,,,,,,,,,,,,,,,,,,,,,,,,,,,,,,,,,,,,,
,,,,,,,,,,60324e0d654dbd21e0e7fa2d,21,Mężczyzna,2022-06-04_08h43.53.508,task,2021.1.4,Win32,74.96251874,628b806c463b948bc644b84f,629afe901cd7794e310e7601,,,,,,,,,,,,,,,,,,,,,,,0,,,,,,,,,,Practice,1,(3x3) -  9,0,,,,,,,,,,,,,,,,"[""0""]",1,1,0,2,2,0,1,[2.705000000000041],,,,,,,,,,,,,,,,,,,,,,,,,,,,,,,,,,,,,,,,,,,
,,,,,,,,,,60324e0d654dbd21e0e7fa2d,21,Mężczyzna,2022-06-04_08h43.53.508,task,2021.1.4,Win32,74.96251874,628b806c463b948bc644b84f,629afe901cd7794e310e7601,,,,,,,,,,X V Q F H G B L J M P D K C T S W R N Z,,,,,,,,,,,,,,,,,,,,,,,,,,,,,,,,,,,,,,,,,,,,,,,,,,,0,0,0,0,1,,,,,,,,,,,,,,,,,,,,,,,,,,,,,,,,,,,,,,
,,,,,,,,,,60324e0d654dbd21e0e7fa2d,21,Mężczyzna,2022-06-04_08h43.53.508,task,2021.1.4,Win32,74.96251874,628b806c463b948bc644b84f,629afe901cd7794e310e7601,,,,,,,,,,,,,,,,,,,,,,,4,,,,,,,,,,Practice,5,(2x6) - 8,4,,,,,,,,,,,,,,,,"[""4""]",1,1,0,0,0,4,1,[2.8929999999999154],,,,,,,,,,,,,,,,,,,,,,,,,,,,,,,,,,,,,,,,,,,
,,,,,,,,,,60324e0d654dbd21e0e7fa2d,21,Mężczyzna,2022-06-04_08h43.53.508,task,2021.1.4,Win32,74.96251874,628b806c463b948bc644b84f,629afe901cd7794e310e7601,,,,,,,,,,X V Q F H G B L J M P D K C T S W R N Z,,,,,,,,,,,,,,,,,,,,,,,,,,,,,,,,,,,,,,,,,,,,,,,,,,,1,0,1,0,1,,,,,,,,,,,,,,,,,,,,,,,,,,,,,,,,,,,,,,
,,,,,,,,,,60324e0d654dbd21e0e7fa2d,21,Mężczyzna,2022-06-04_08h43.53.508,task,2021.1.4,Win32,74.96251874,628b806c463b948bc644b84f,629afe901cd7794e310e7601,,,,,,,,,,,,,,,,,,,,,,,,,,,,,,,,,,,,,,,,,,,,,,,,,,,,,,,,,,,,,,,,,,zv,"[""z"",""v""]",0,"[2.467999999999961,2.6259999999999764,3.576999999999998]",1,0,0,0,0,1,,,,,,,,,,,,,,,,,,,,,,,,,,,,
,,,,,,,,,,60324e0d654dbd21e0e7fa2d,21,Mężczyzna,2022-06-04_08h43.53.508,task,2021.1.4,Win32,74.96251874,628b806c463b948bc644b84f,629afe901cd7794e310e7601,,,,,,,,,,,,,,,,,,,,,,,6,,,,,,,,,,Practice,7,(25/5) + 1,6,,,,,,,,,,,,,,,,"[""6""]",1,1,0,0,0,6,1,[2.296999999999912],,,,,,,,,,,,,,,,,,,,,,,,,,,,,,,,,,,,,,,,,,,
,,,,,,,,,,60324e0d654dbd21e0e7fa2d,21,Mężczyzna,2022-06-04_08h43.53.508,task,2021.1.4,Win32,74.96251874,628b806c463b948bc644b84f,629afe901cd7794e310e7601,,,,,,,,,,X V Q F H G B L J M P D K C T S W R N Z,,,,,,,,,,,,,,,,,,,,,,,,,,,,,,,,,,,,,,,,,,,,,,,,,,,0,0,0,0,1,,,,,,,,,,,,,,,,,,,,,,,,,,,,,,,,,,,,,,
,,,,,,,,,,60324e0d654dbd21e0e7fa2d,21,Mężczyzna,2022-06-04_08h43.53.508,task,2021.1.4,Win32,74.96251874,628b806c463b948bc644b84f,629afe901cd7794e310e7601,,,,,,,,,,,,,,,,,,,,,,,7,,,,,,,,,,Practice,8,(5x5) - 18,7,,,,,,,,,,,,,,,,"[""7""]",1,1,0,0,0,7,1,[2.6820000000000164],,,,,,,,,,,,,,,,,,,,,,,,,,,,,,,,,,,,,,,,,,,
,,,,,,,,,,60324e0d654dbd21e0e7fa2d,21,Mężczyzna,2022-06-04_08h43.53.508,task,2021.1.4,Win32,74.96251874,628b806c463b948bc644b84f,629afe901cd7794e310e7601,,,,,,,,,,X V Q F H G B L J M P D K C T S W R N Z,,,,,,,,,,,,,,,,,,,,,,,,,,,,,,,,,,,,,,,,,,,,,,,,,,,1,0,1,0,1,,,,,,,,,,,,,,,,,,,,,,,,,,,,,,,,,,,,,,
,,,,,,,,,,60324e0d654dbd21e0e7fa2d,21,Mężczyzna,2022-06-04_08h43.53.508,task,2021.1.4,Win32,74.96251874,628b806c463b948bc644b84f,629afe901cd7794e310e7601,,,,,,,,,,,,,,,,,,,,,,,,,,,,,,,,,,,,,,,,,,,,,,,,,,,,,,,,,,,,,,,,,,kw,"[""k"",""w""]",0,"[1.641999999999939,1.7519999999999527,3.923999999999978]",1,1,0,1,0,1,,,,,,,,,,,,,,,,,,,,,,,,,,,,
,,,,,,,,,,60324e0d654dbd21e0e7fa2d,21,Mężczyzna,2022-06-04_08h43.53.508,task,2021.1.4,Win32,74.96251874,628b806c463b948bc644b84f,629afe901cd7794e310e7601,,,,,,,,,,,,,,,,,,,,,,,8,,,,,,,,,,Practice,9,(3x3) - 1,8,,,,,,,,,,,,,,,,"[""8""]",1,1,0,0,0,8,1,[2.171999999999912],,,,,,,,,,,,,,,,,,,,,,,,,,,,,,,,,,,,,,,,,,,
,,,,,,,,,,60324e0d654dbd21e0e7fa2d,21,Mężczyzna,2022-06-04_08h43.53.508,task,2021.1.4,Win32,74.96251874,628b806c463b948bc644b84f,629afe901cd7794e310e7601,,,,,,,,,,X V Q F H G B L J M P D K C T S W R N Z,,,,,,,,,,,,,,,,,,,,,,,,,,,,,,,,,,,,,,,,,,,,,,,,,,,0,0,0,0,1,,,,,,,,,,,,,,,,,,,,,,,,,,,,,,,,,,,,,,
,,,,,,,,,,60324e0d654dbd21e0e7fa2d,21,Mężczyzna,2022-06-04_08h43.53.508,task,2021.1.4,Win32,74.96251874,628b806c463b948bc644b84f,629afe901cd7794e310e7601,,,,,,,,,,,,,,,,,,,,,,,8,,,,,,,,,,Practice,9,(3x3) - 1,8,,,,,,,,,,,,,,,,"[""8""]",1,1,0,0,0,8,1,[2.074000000000069],,,,,,,,,,,,,,,,,,,,,,,,,,,,,,,,,,,,,,,,,,,
,,,,,,,,,,60324e0d654dbd21e0e7fa2d,21,Mężczyzna,2022-06-04_08h43.53.508,task,2021.1.4,Win32,74.96251874,628b806c463b948bc644b84f,629afe901cd7794e310e7601,,,,,,,,,,X V Q F H G B L J M P D K C T S W R N Z,,,,,,,,,,,,,,,,,,,,,,,,,,,,,,,,,,,,,,,,,,,,,,,,,,,1,0,1,0,1,,,,,,,,,,,,,,,,,,,,,,,,,,,,,,,,,,,,,,
,,,,,,,,,,60324e0d654dbd21e0e7fa2d,21,Mężczyzna,2022-06-04_08h43.53.508,task,2021.1.4,Win32,74.96251874,628b806c463b948bc644b84f,629afe901cd7794e310e7601,,,,,,,,,,,,,,,,,,,,,,,,,,,,,,,,,,,,,,,,,,,,,,,,,,,,,,,,,,,,,,,,,,tm,"[""t"",""m""]",0,"[1.8210000000000264,1.9620000000001028,2.483000000000061]",1,2,0,2,0,1,,,,,,,,,,,,,,,,,,,,,,,,,,,,
,,,,,,,,,,60324e0d654dbd21e0e7fa2d,21,Mężczyzna,2022-06-04_08h43.53.508,task,2021.1.4,Win32,74.96251874,628b806c463b948bc644b84f,629afe901cd7794e310e7601,,,,,,,,,,,,,,,,,,,,,,,9,,,,,,,,,,Task,24,(2x2) + 5,9,,,,,,,,,,,,,,,,,,1,,,,,,,,,,,,,,,,,,,,,,space,24.976,"[""9""]",1,[3.298999999999978],0,0,0,23,1,,,,,,,,,,,,,,,,,,
,,,,,,,,,,60324e0d654dbd21e0e7fa2d,21,Mężczyzna,2022-06-04_08h43.53.508,task,2021.1.4,Win32,74.96251874,628b806c463b948bc644b84f,629afe901cd7794e310e7601,,,,,,,,,,X V Q F H G B L J M P D K C T S W R N Z,,,,,,,,,,,,,,,,,,,,,,,,,,,,,,,,,,,,,,,,,,,,,,,,,,,,,,,,,,,,,,,,,,,,,,,,,,,,0,0,0,0,1,,,,,,,,,,,,,
,,,,,,,,,,60324e0d654dbd21e0e7fa2d,21,Mężczyzna,2022-06-04_08h43.53.508,task,2021.1.4,Win32,74.96251874,628b806c463b948bc644b84f,629afe901cd7794e310e7601,,,,,,,,,,,,,,,,,,,,,,,6,,,,,,,,,,Task,37,(3/3) + 5,6,,,,,,,,,,,,,,,,,,1,,,,,,,,,,,,,,,,,,,,,,,,"[""6""]",1,[3.6539999999999964],0,0,0,36,1,,,,,,,,,,,,,,,,,,
,,,,,,,,,,60324e0d654dbd21e0e7fa2d,21,Mężczyzna,2022-06-04_08h43.53.508,task,2021.1.4,Win32,74.96251874,628b806c463b948bc644b84f,629afe901cd7794e310e7601,,,,,,,,,,X V Q F H G B L J M P D K C T S W R N Z,,,,,,,,,,,,,,,,,,,,,,,,,,,,,,,,,,,,,,,,,,,,,,,,,,,,,,,,,,,,,,,,,,,,,,,,,,,,1,0,1,0,1,,,,,,,,,,,,,
,,,,,,,,,,60324e0d654dbd21e0e7fa2d,21,Mężczyzna,2022-06-04_08h43.53.508,task,2021.1.4,Win32,74.96251874,628b806c463b948bc644b84f,629afe901cd7794e310e7601,,,,,,,,,,,,,,,,,,,,,,,,,,,,,,,,,,,,,,,,,,,,,,,,,,,,,,,,,,,,,,,,,,,,,,,,,,,,,,,,,,,,,,,,,,,zv,"[""z"",""v""]",0,"[1.6820000000000164,1.9530000000000882,2.1929999999999836]",1,ZV,0,0,0,0,1,,
,,,,,,,,,,60324e0d654dbd21e0e7fa2d,21,Mężczyzna,2022-06-04_08h43.53.508,task,2021.1.4,Win32,74.96251874,628b806c463b948bc644b84f,629afe901cd7794e310e7601,,,,,,,,,,,,,,,,,,,,,,,1,,,,,,,,,,Task,18,(16/4) - 3,1,,,,,,,,,,,,,,,,,,1,,,,,,,,,,,,,,,,,,,,,,,,"[""1""]",1,[2.240000000000009],0,0,0,17,1,,,,,,,,,,,,,,,,,,
,,,,,,,,,,60324e0d654dbd21e0e7fa2d,21,Mężczyzna,2022-06-04_08h43.53.508,task,2021.1.4,Win32,74.96251874,628b806c463b948bc644b84f,629afe901cd7794e310e7601,,,,,,,,,,X V Q F H G B L J M P D K C T S W R N Z,,,,,,,,,,,,,,,,,,,,,,,,,,,,,,,,,,,,,,,,,,,,,,,,,,,,,,,,,,,,,,,,,,,,,,,,,,,,0,0,0,0,1,,,,,,,,,,,,,
,,,,,,,,,,60324e0d654dbd21e0e7fa2d,21,Mężczyzna,2022-06-04_08h43.53.508,task,2021.1.4,Win32,74.96251874,628b806c463b948bc644b84f,629afe901cd7794e310e7601,,,,,,,,,,,,,,,,,,,,,,,0,,,,,,,,,,Task,17,(2x3) - 6,0,,,,,,,,,,,,,,,,,,1,,,,,,,,,,,,,,,,,,,,,,,,"[""0""]",1,[2.8940000000000055],0,0,0,16,1,,,,,,,,,,,,,,,,,,
,,,,,,,,,,60324e0d654dbd21e0e7fa2d,21,Mężczyzna,2022-06-04_08h43.53.508,task,2021.1.4,Win32,74.96251874,628b806c463b948bc644b84f,629afe901cd7794e310e7601,,,,,,,,,,X V Q F H G B L J M P D K C T S W R N Z,,,,,,,,,,,,,,,,,,,,,,,,,,,,,,,,,,,,,,,,,,,,,,,,,,,,,,,,,,,,,,,,,,,,,,,,,,,,1,0,1,0,1,,,,,,,,,,,,,
,,,,,,,,,,60324e0d654dbd21e0e7fa2d,21,Mężczyzna,2022-06-04_08h43.53.508,task,2021.1.4,Win32,74.96251874,628b806c463b948bc644b84f,629afe901cd7794e310e7601,,,,,,,,,,,,,,,,,,,,,,,4,,,,,,,,,,Task,11,(18/3) - 2,4,,,,,,,,,,,,,,,,,,1,,,,,,,,,,,,,,,,,,,,,,,,"[""4""]",1,[3.386000000000081],0,0,0,10,1,,,,,,,,,,,,,,,,,,
,,,,,,,,,,60324e0d654dbd21e0e7fa2d,21,Mężczyzna,2022-06-04_08h43.53.508,task,2021.1.4,Win32,74.96251874,628b806c463b948bc644b84f,629afe901cd7794e310e7601,,,,,,,,,,X V Q F H G B L J M P D K C T S W R N Z,,,,,,,,,,,,,,,,,,,,,,,,,,,,,,,,,,,,,,,,,,,,,,,,,,,,,,,,,,,,,,,,,,,,,,,,,,,,2,0,2,0,1,,,,,,,,,,,,,
,,,,,,,,,,60324e0d654dbd21e0e7fa2d,21,Mężczyzna,2022-06-04_08h43.53.508,task,2021.1.4,Win32,74.96251874,628b806c463b948bc644b84f,629afe901cd7794e310e7601,,,,,,,,,,,,,,,,,,,,,,,,,,,,,,,,,,,,,,,,,,,,,,,,,,,,,,,,,,,,,,,,,,,,,,,,,,,,,,,,,,,,,,,,,,,shm,"[""s"",""h"",""m""]",0,"[2.1079999999999472,2.2299999999999045,2.606999999999971,3.8689999999999145]",1,SHM,1,0,1,0,1,,
,,,,,,,,,,60324e0d654dbd21e0e7fa2d,21,Mężczyzna,2022-06-04_08h43.53.508,task,2021.1.4,Win32,74.96251874,628b806c463b948bc644b84f,629afe901cd7794e310e7601,,,,,,,,,,,,,,,,,,,,,,,5,,,,,,,,,,Task,36,(8/4) + 3,5,,,,,,,,,,,,,,,,,,1,,,,,,,,,,,,,,,,,,,,,,,,"[""5""]",1,[2.480000000000018],0,0,0,35,1,,,,,,,,,,,,,,,,,,
,,,,,,,,,,60324e0d654dbd21e0e7fa2d,21,Mężczyzna,2022-06-04_08h43.53.508,task,2021.1.4,Win32,74.96251874,628b806c463b948bc644b84f,629afe901cd7794e310e7601,,,,,,,,,,X V Q F H G B L J M P D K C T S W R N Z,,,,,,,,,,,,,,,,,,,,,,,,,,,,,,,,,,,,,,,,,,,,,,,,,,,,,,,,,,,,,,,,,,,,,,,,,,,,0,0,0,0,1,,,,,,,,,,,,,
,,,,,,,,,,60324e0d654dbd21e0e7fa2d,21,Mężczyzna,2022-06-04_08h43.53.508,task,2021.1.4,Win32,74.96251874,628b806c463b948bc644b84f,629afe901cd7794e310e7601,,,,,,,,,,,,,,,,,,,,,,,9,,,,,,,,,,Task,40,(7x2) - 5,9,,,,,,,,,,,,,,,,,,1,,,,,,,,,,,,,,,,,,,,,,,,"[""9""]",1,[3.562000000000012],0,0,0,39,1,,,,,,,,,,,,,,,,,,
,,,,,,,,,,60324e0d654dbd21e0e7fa2d,21,Mężczyzna,2022-06-04_08h43.53.508,task,2021.1.4,Win32,74.96251874,628b806c463b948bc644b84f,629afe901cd7794e310e7601,,,,,,,,,,X V Q F H G B L J M P D K C T S W R N Z,,,,,,,,,,,,,,,,,,,,,,,,,,,,,,,,,,,,,,,,,,,,,,,,,,,,,,,,,,,,,,,,,,,,,,,,,,,,1,0,1,0,1,,,,,,,,,,,,,
,,,,,,,,,,60324e0d654dbd21e0e7fa2d,21,Mężczyzna,2022-06-04_08h43.53.508,task,2021.1.4,Win32,74.96251874,628b806c463b948bc644b84f,629afe901cd7794e310e7601,,,,,,,,,,,,,,,,,,,,,,,6,,,,,,,,,,Task,30,(6/3) + 4 ,6,,,,,,,,,,,,,,,,,,1,,,,,,,,,,,,,,,,,,,,,,,,"[""6""]",1,[3.7069999999999936],0,0,0,29,1,,,,,,,,,,,,,,,,,,
,,,,,,,,,,60324e0d654dbd21e0e7fa2d,21,Mężczyzna,2022-06-04_08h43.53.508,task,2021.1.4,Win32,74.96251874,628b806c463b948bc644b84f,629afe901cd7794e310e7601,,,,,,,,,,X V Q F H G B L J M P D K C T S W R N Z,,,,,,,,,,,,,,,,,,,,,,,,,,,,,,,,,,,,,,,,,,,,,,,,,,,,,,,,,,,,,,,,,,,,,,,,,,,,2,0,2,0,1,,,,,,,,,,,,,
,,,,,,,,,,60324e0d654dbd21e0e7fa2d,21,Mężczyzna,2022-06-04_08h43.53.508,task,2021.1.4,Win32,74.96251874,628b806c463b948bc644b84f,629afe901cd7794e310e7601,,,,,,,,,,,,,,,,,,,,,,,2,,,,,,,,,,Task,19,(6/2) - 1,2,,,,,,,,,,,,,,,,,,1,,,,,,,,,,,,,,,,,,,,,,,,"[""2""]",1,[3.254000000000019],0,0,0,18,1,,,,,,,,,,,,,,,,,,
,,,,,,,,,,60324e0d654dbd21e0e7fa2d,21,Mężczyzna,2022-06-04_08h43.53.508,task,2021.1.4,Win32,74.96251874,628b806c463b948bc644b84f,629afe901cd7794e310e7601,,,,,,,,,,X V Q F H G B L J M P D K C T S W R N Z,,,,,,,,,,,,,,,,,,,,,,,,,,,,,,,,,,,,,,,,,,,,,,,,,,,,,,,,,,,,,,,,,,,,,,,,,,,,3,0,3,0,1,,,,,,,,,,,,,
,,,,,,,,,,60324e0d654dbd21e0e7fa2d,21,Mężczyzna,2022-06-04_08h43.53.508,task,2021.1.4,Win32,74.96251874,628b806c463b948bc644b84f,629afe901cd7794e310e7601,,,,,,,,,,,,,,,,,,,,,,,,,,,,,,,,,,,,,,,,,,,,,,,,,,,,,,,,,,,,,,,,,,,,,,,,,,,,,,,,,,,,,,,,,,,wlvw,"[""w"",""l"",""v"",""w""]",0,"[1.615000000000009,1.9230000000000018,2.580000000000041,2.7369999999999663,3.618000000000052]",1,WLVW,2,0,2,0,1,,
,,,,,,,,,,60324e0d654dbd21e0e7fa2d,21,Mężczyzna,2022-06-04_08h43.53.508,task,2021.1.4,Win32,74.96251874,628b806c463b948bc644b84f,629afe901cd7794e310e7601,,,,,,,,,,,,,,,,,,,,,,,6,,,,,,,,,,Task,5,(2x3) + 0,6,,,,,,,,,,,,,,,,,,1,,,,,,,,,,,,,,,,,,,,,,,,"[""6""]",1,[2.5300000000000864],0,0,0,4,1,,,,,,,,,,,,,,,,,,
,,,,,,,,,,60324e0d654dbd21e0e7fa2d,21,Mężczyzna,2022-06-04_08h43.53.508,task,2021.1.4,Win32,74.96251874,628b806c463b948bc644b84f,629afe901cd7794e310e7601,,,,,,,,,,X V Q F H G B L J M P D K C T S W R N Z,,,,,,,,,,,,,,,,,,,,,,,,,,,,,,,,,,,,,,,,,,,,,,,,,,,,,,,,,,,,,,,,,,,,,,,,,,,,0,0,0,0,1,,,,,,,,,,,,,
,,,,,,,,,,60324e0d654dbd21e0e7fa2d,21,Mężczyzna,2022-06-04_08h43.53.508,task,2021.1.4,Win32,74.96251874,628b806c463b948bc644b84f,629afe901cd7794e310e7601,,,,,,,,,,,,,,,,,,,,,,,1,,,,,,,,,,Task,1,(12/6) - 1,1,,,,,,,,,,,,,,,,,,1,,,,,,,,,,,,,,,,,,,,,,,,"[""1""]",1,[2.7859999999999445],0,0,0,0,1,,,,,,,,,,,,,,,,,,
,,,,,,,,,,60324e0d654dbd21e0e7fa2d,21,Mężczyzna,2022-06-04_08h43.53.508,task,2021.1.4,Win32,74.96251874,628b806c463b948bc644b84f,629afe901cd7794e310e7601,,,,,,,,,,X V Q F H G B L J M P D K C T S W R N Z,,,,,,,,,,,,,,,,,,,,,,,,,,,,,,,,,,,,,,,,,,,,,,,,,,,,,,,,,,,,,,,,,,,,,,,,,,,,1,0,1,0,1,,,,,,,,,,,,,
,,,,,,,,,,60324e0d654dbd21e0e7fa2d,21,Mężczyzna,2022-06-04_08h43.53.508,task,2021.1.4,Win32,74.96251874,628b806c463b948bc644b84f,629afe901cd7794e310e7601,,,,,,,,,,,,,,,,,,,,,,,6,,,,,,,,,,Task,5,(2x3) + 0,6,,,,,,,,,,,,,,,,,,1,,,,,,,,,,,,,,,,,,,,,,,,"[""6""]",1,[2.2940000000000964],0,0,0,4,1,,,,,,,,,,,,,,,,,,
,,,,,,,,,,60324e0d654dbd21e0e7fa2d,21,Mężczyzna,2022-06-04_08h43.53.508,task,2021.1.4,Win32,74.96251874,628b806c463b948bc644b84f,629afe901cd7794e310e7601,,,,,,,,,,X V Q F H G B L J M P D K C T S W R N Z,,,,,,,,,,,,,,,,,,,,,,,,,,,,,,,,,,,,,,,,,,,,,,,,,,,,,,,,,,,,,,,,,,,,,,,,,,,,2,0,2,0,1,,,,,,,,,,,,,
,,,,,,,,,,60324e0d654dbd21e0e7fa2d,21,Mężczyzna,2022-06-04_08h43.53.508,task,2021.1.4,Win32,74.96251874,628b806c463b948bc644b84f,629afe901cd7794e310e7601,,,,,,,,,,,,,,,,,,,,,,,3,,,,,,,,,,Task,35,(1x2) + 1,3,,,,,,,,,,,,,,,,,,1,,,,,,,,,,,,,,,,,,,,,,,,"[""3""]",1,[2.6129999999999427],0,0,0,34,1,,,,,,,,,,,,,,,,,,
,,,,,,,,,,60324e0d654dbd21e0e7fa2d,21,Mężczyzna,2022-06-04_08h43.53.508,task,2021.1.4,Win32,74.96251874,628b806c463b948bc644b84f,629afe901cd7794e310e7601,,,,,,,,,,X V Q F H G B L J M P D K C T S W R N Z,,,,,,,,,,,,,,,,,,,,,,,,,,,,,,,,,,,,,,,,,,,,,,,,,,,,,,,,,,,,,,,,,,,,,,,,,,,,3,0,3,0,1,,,,,,,,,,,,,
,,,,,,,,,,60324e0d654dbd21e0e7fa2d,21,Mężczyzna,2022-06-04_08h43.53.508,task,2021.1.4,Win32,74.96251874,628b806c463b948bc644b84f,629afe901cd7794e310e7601,,,,,,,,,,,,,,,,,,,,,,,2,,,,,,,,,,Task,26,(2x9) - 16,2,,,,,,,,,,,,,,,,,,1,,,,,,,,,,,,,,,,,,,,,,,,"[""2""]",1,[4.108000000000061],0,0,0,25,1,,,,,,,,,,,,,,,,,,
,,,,,,,,,,60324e0d654dbd21e0e7fa2d,21,Mężczyzna,2022-06-04_08h43.53.508,task,2021.1.4,Win32,74.96251874,628b806c463b948bc644b84f,629afe901cd7794e310e7601,,,,,,,,,,X V Q F H G B L J M P D K C T S W R N Z,,,,,,,,,,,,,,,,,,,,,,,,,,,,,,,,,,,,,,,,,,,,,,,,,,,,,,,,,,,,,,,,,,,,,,,,,,,,4,0,4,0,1,,,,,,,,,,,,,
,,,,,,,,,,60324e0d654dbd21e0e7fa2d,21,Mężczyzna,2022-06-04_08h43.53.508,task,2021.1.4,Win32,74.96251874,628b806c463b948bc644b84f,629afe901cd7794e310e7601,,,,,,,,,,,,,,,,,,,,,,,,,,,,,,,,,,,,,,,,,,,,,,,,,,,,,,,,,,,,,,,,,,,,,,,,,,,,,,,,,,,,,,,,,,,jgxcl,"[""j"",""g"",""x"",""c"",""l""]",0,"[1.8960000000000719,2.507000000000062,3.0160000000000764,3.7889999999999873,4.776000000000067,5.661000000000058]",1,JGXCL,3,0,3,0,1,,
,,,,,,,,,,60324e0d654dbd21e0e7fa2d,21,Mężczyzna,2022-06-04_08h43.53.508,task,2021.1.4,Win32,74.96251874,628b806c463b948bc644b84f,629afe901cd7794e310e7601,,,,,,,,,,,,,,,,,,,,,,,4,,,,,,,,,,Task,28,(2x5) - 6,4,,,,,,,,,,,,,,,,,,1,,,,,,,,,,,,,,,,,,,,,,,,"[""4""]",1,[4.539000000000101],0,0,0,27,1,,,,,,,,,,,,,,,,,,
,,,,,,,,,,60324e0d654dbd21e0e7fa2d,21,Mężczyzna,2022-06-04_08h43.53.508,task,2021.1.4,Win32,74.96251874,628b806c463b948bc644b84f,629afe901cd7794e310e7601,,,,,,,,,,X V Q F H G B L J M P D K C T S W R N Z,,,,,,,,,,,,,,,,,,,,,,,,,,,,,,,,,,,,,,,,,,,,,,,,,,,,,,,,,,,,,,,,,,,,,,,,,,,,0,0,0,0,1,,,,,,,,,,,,,
,,,,,,,,,,60324e0d654dbd21e0e7fa2d,21,Mężczyzna,2022-06-04_08h43.53.508,task,2021.1.4,Win32,74.96251874,628b806c463b948bc644b84f,629afe901cd7794e310e7601,,,,,,,,,,,,,,,,,,,,,,,6,,,,,,,,,,Task,13,(3x4) - 6,6,,,,,,,,,,,,,,,,,,1,,,,,,,,,,,,,,,,,,,,,,,,"[""6""]",1,[3.3859999999999673],0,0,0,12,1,,,,,,,,,,,,,,,,,,
,,,,,,,,,,60324e0d654dbd21e0e7fa2d,21,Mężczyzna,2022-06-04_08h43.53.508,task,2021.1.4,Win32,74.96251874,628b806c463b948bc644b84f,629afe901cd7794e310e7601,,,,,,,,,,X V Q F H G B L J M P D K C T S W R N Z,,,,,,,,,,,,,,,,,,,,,,,,,,,,,,,,,,,,,,,,,,,,,,,,,,,,,,,,,,,,,,,,,,,,,,,,,,,,1,0,1,0,1,,,,,,,,,,,,,
,,,,,,,,,,60324e0d654dbd21e0e7fa2d,21,Mężczyzna,2022-06-04_08h43.53.508,task,2021.1.4,Win32,74.96251874,628b806c463b948bc644b84f,629afe901cd7794e310e7601,,,,,,,,,,,,,,,,,,,,,,,8,,,,,,,,,,Task,39,(5x3) - 7,8,,,,,,,,,,,,,,,,,,1,,,,,,,,,,,,,,,,,,,,,,,,"[""8""]",1,[4.080000000000041],0,0,0,38,1,,,,,,,,,,,,,,,,,,
,,,,,,,,,,60324e0d654dbd21e0e7fa2d,21,Mężczyzna,2022-06-04_08h43.53.508,task,2021.1.4,Win32,74.96251874,628b806c463b948bc644b84f,629afe901cd7794e310e7601,,,,,,,,,,X V Q F H G B L J M P D K C T S W R N Z,,,,,,,,,,,,,,,,,,,,,,,,,,,,,,,,,,,,,,,,,,,,,,,,,,,,,,,,,,,,,,,,,,,,,,,,,,,,2,0,2,0,1,,,,,,,,,,,,,
,,,,,,,,,,60324e0d654dbd21e0e7fa2d,21,Mężczyzna,2022-06-04_08h43.53.508,task,2021.1.4,Win32,74.96251874,628b806c463b948bc644b84f,629afe901cd7794e310e7601,,,,,,,,,,,,,,,,,,,,,,,2,,,,,,,,,,Task,2,(2x2) - 2,2,,,,,,,,,,,,,,,,,,1,,,,,,,,,,,,,,,,,,,,,,,,"[""2""]",1,[2.9840000000000373],0,0,0,1,1,,,,,,,,,,,,,,,,,,
,,,,,,,,,,60324e0d654dbd21e0e7fa2d,21,Mężczyzna,2022-06-04_08h43.53.508,task,2021.1.4,Win32,74.96251874,628b806c463b948bc644b84f,629afe901cd7794e310e7601,,,,,,,,,,X V Q F H G B L J M P D K C T S W R N Z,,,,,,,,,,,,,,,,,,,,,,,,,,,,,,,,,,,,,,,,,,,,,,,,,,,,,,,,,,,,,,,,,,,,,,,,,,,,3,0,3,0,1,,,,,,,,,,,,,
,,,,,,,,,,60324e0d654dbd21e0e7fa2d,21,Mężczyzna,2022-06-04_08h43.53.508,task,2021.1.4,Win32,74.96251874,628b806c463b948bc644b84f,629afe901cd7794e310e7601,,,,,,,,,,,,,,,,,,,,,,,4,,,,,,,,,,Task,21,(10/2) - 1,4,,,,,,,,,,,,,,,,,,1,,,,,,,,,,,,,,,,,,,,,,,,"[""4""]",1,[1.9850000000000136],0,0,0,20,1,,,,,,,,,,,,,,,,,,
,,,,,,,,,,60324e0d654dbd21e0e7fa2d,21,Mężczyzna,2022-06-04_08h43.53.508,task,2021.1.4,Win32,74.96251874,628b806c463b948bc644b84f,629afe901cd7794e310e7601,,,,,,,,,,X V Q F H G B L J M P D K C T S W R N Z,,,,,,,,,,,,,,,,,,,,,,,,,,,,,,,,,,,,,,,,,,,,,,,,,,,,,,,,,,,,,,,,,,,,,,,,,,,,4,0,4,0,1,,,,,,,,,,,,,
,,,,,,,,,,60324e0d654dbd21e0e7fa2d,21,Mężczyzna,2022-06-04_08h43.53.508,task,2021.1.4,Win32,74.96251874,628b806c463b948bc644b84f,629afe901cd7794e310e7601,,,,,,,,,,,,,,,,,,,,,,,9,,,,,,,,,,Task,7,(3x7) - 12,9,,,,,,,,,,,,,,,,,,1,,,,,,,,,,,,,,,,,,,,,,,,"[""9""]",1,[3.977999999999952],0,0,0,6,1,,,,,,,,,,,,,,,,,,
,,,,,,,,,,60324e0d654dbd21e0e7fa2d,21,Mężczyzna,2022-06-04_08h43.53.508,task,2021.1.4,Win32,74.96251874,628b806c463b948bc644b84f,629afe901cd7794e310e7601,,,,,,,,,,X V Q F H G B L J M P D K C T S W R N Z,,,,,,,,,,,,,,,,,,,,,,,,,,,,,,,,,,,,,,,,,,,,,,,,,,,,,,,,,,,,,,,,,,,,,,,,,,,,5,0,5,0,1,,,,,,,,,,,,,
,,,,,,,,,,60324e0d654dbd21e0e7fa2d,21,Mężczyzna,2022-06-04_08h43.53.508,task,2021.1.4,Win32,74.96251874,628b806c463b948bc644b84f,629afe901cd7794e310e7601,,,,,,,,,,,,,,,,,,,,,,,,,,,,,,,,,,,,,,,,,,,,,,,,,,,,,,,,,,,,,,,,,,,,,,,,,,,,,,,,,,,,,,,,,,,cvjwrl,"[""c"",""v"",""j"",""w"",""r"",""l""]",0,"[2.2859999999999445,2.7089999999999463,3.1609999999999445,3.48599999999999,3.802000000000021,4.454999999999927,6.363999999999919]",1,CVJWRL,4,0,4,0,1,,
,,,,,,,,,,60324e0d654dbd21e0e7fa2d,21,Mężczyzna,2022-06-04_08h43.53.508,task,2021.1.4,Win32,74.96251874,628b806c463b948bc644b84f,629afe901cd7794e310e7601,,,,,,,,,,,,,,,,,,,,,,,9,,,,,,,,,,Task,24,(2x2) + 5,9,,,,,,,,,,,,,,,,,,1,,,,,,,,,,,,,,,,,,,,,,,,"[""9""]",1,[3.038000000000011],0,0,0,23,1,,,,,,,,,,,,,,,,,,
,,,,,,,,,,60324e0d654dbd21e0e7fa2d,21,Mężczyzna,2022-06-04_08h43.53.508,task,2021.1.4,Win32,74.96251874,628b806c463b948bc644b84f,629afe901cd7794e310e7601,,,,,,,,,,X V Q F H G B L J M P D K C T S W R N Z,,,,,,,,,,,,,,,,,,,,,,,,,,,,,,,,,,,,,,,,,,,,,,,,,,,,,,,,,,,,,,,,,,,,,,,,,,,,0,0,0,0,1,,,,,,,,,,,,,
,,,,,,,,,,60324e0d654dbd21e0e7fa2d,21,Mężczyzna,2022-06-04_08h43.53.508,task,2021.1.4,Win32,74.96251874,628b806c463b948bc644b84f,629afe901cd7794e310e7601,,,,,,,,,,,,,,,,,,,,,,,6,,,,,,,,,,Task,30,(6/3) + 4 ,6,,,,,,,,,,,,,,,,,,1,,,,,,,,,,,,,,,,,,,,,,,,"[""6""]",1,[3.312000000000012],0,0,0,29,1,,,,,,,,,,,,,,,,,,
,,,,,,,,,,60324e0d654dbd21e0e7fa2d,21,Mężczyzna,2022-06-04_08h43.53.508,task,2021.1.4,Win32,74.96251874,628b806c463b948bc644b84f,629afe901cd7794e310e7601,,,,,,,,,,X V Q F H G B L J M P D K C T S W R N Z,,,,,,,,,,,,,,,,,,,,,,,,,,,,,,,,,,,,,,,,,,,,,,,,,,,,,,,,,,,,,,,,,,,,,,,,,,,,1,0,1,0,1,,,,,,,,,,,,,
,,,,,,,,,,60324e0d654dbd21e0e7fa2d,21,Mężczyzna,2022-06-04_08h43.53.508,task,2021.1.4,Win32,74.96251874,628b806c463b948bc644b84f,629afe901cd7794e310e7601,,,,,,,,,,,,,,,,,,,,,,,5,,,,,,,,,,Task,12,(4x4) - 11,5,,,,,,,,,,,,,,,,,,1,,,,,,,,,,,,,,,,,,,,,,,,"[""5""]",1,[2.6660000000000537],0,0,0,11,1,,,,,,,,,,,,,,,,,,
,,,,,,,,,,60324e0d654dbd21e0e7fa2d,21,Mężczyzna,2022-06-04_08h43.53.508,task,2021.1.4,Win32,74.96251874,628b806c463b948bc644b84f,629afe901cd7794e310e7601,,,,,,,,,,X V Q F H G B L J M P D K C T S W R N Z,,,,,,,,,,,,,,,,,,,,,,,,,,,,,,,,,,,,,,,,,,,,,,,,,,,,,,,,,,,,,,,,,,,,,,,,,,,,2,0,2,0,1,,,,,,,,,,,,,
,,,,,,,,,,60324e0d654dbd21e0e7fa2d,21,Mężczyzna,2022-06-04_08h43.53.508,task,2021.1.4,Win32,74.96251874,628b806c463b948bc644b84f,629afe901cd7794e310e7601,,,,,,,,,,,,,,,,,,,,,,,7,,,,,,,,,,Task,31,(4/2) + 5,7,,,,,,,,,,,,,,,,,,1,,,,,,,,,,,,,,,,,,,,,,,,"[""7""]",1,[2.2659999999999627],0,0,0,30,1,,,,,,,,,,,,,,,,,,
,,,,,,,,,,60324e0d654dbd21e0e7fa2d,21,Mężczyzna,2022-06-04_08h43.53.508,task,2021.1.4,Win32,74.96251874,628b806c463b948bc644b84f,629afe901cd7794e310e7601,,,,,,,,,,X V Q F H G B L J M P D K C T S W R N Z,,,,,,,,,,,,,,,,,,,,,,,,,,,,,,,,,,,,,,,,,,,,,,,,,,,,,,,,,,,,,,,,,,,,,,,,,,,,3,0,3,0,1,,,,,,,,,,,,,
,,,,,,,,,,60324e0d654dbd21e0e7fa2d,21,Mężczyzna,2022-06-04_08h43.53.508,task,2021.1.4,Win32,74.96251874,628b806c463b948bc644b84f,629afe901cd7794e310e7601,,,,,,,,,,,,,,,,,,,,,,,1,,,,,,,,,,Task,18,(16/4) - 3,1,,,,,,,,,,,,,,,,,,1,,,,,,,,,,,,,,,,,,,,,,,,"[""1""]",1,[3.5850000000000364],0,0,0,17,1,,,,,,,,,,,,,,,,,,
,,,,,,,,,,60324e0d654dbd21e0e7fa2d,21,Mężczyzna,2022-06-04_08h43.53.508,task,2021.1.4,Win32,74.96251874,628b806c463b948bc644b84f,629afe901cd7794e310e7601,,,,,,,,,,X V Q F H G B L J M P D K C T S W R N Z,,,,,,,,,,,,,,,,,,,,,,,,,,,,,,,,,,,,,,,,,,,,,,,,,,,,,,,,,,,,,,,,,,,,,,,,,,,,4,0,4,0,1,,,,,,,,,,,,,
,,,,,,,,,,60324e0d654dbd21e0e7fa2d,21,Mężczyzna,2022-06-04_08h43.53.508,task,2021.1.4,Win32,74.96251874,628b806c463b948bc644b84f,629afe901cd7794e310e7601,,,,,,,,,,,,,,,,,,,,,,,,,,,,,,,,,Task,1,(12/6) - 1,1,,,,,,,,,,,,,,,,,,0,,,,,,,,,,,,,,,,,,,,,,,,,0,,0,0,0,0,1,,,,,,,,,,,,,,,,,,
,,,,,,,,,,60324e0d654dbd21e0e7fa2d,21,Mężczyzna,2022-06-04_08h43.53.508,task,2021.1.4,Win32,74.96251874,628b806c463b948bc644b84f,629afe901cd7794e310e7601,,,,,,,,,,,,,,,,,,,,,,,3,,,,,,,,,,Task,27,(3/3) + 2,3,,,,,,,,,,,,,,,,,,1,,,,,,,,,,,,,,,,,,,,,,,,"[""3""]",1,[2.092999999999961],0,1,1,26,1,,,,,,,,,,,,,,,,,,
,,,,,,,,,,60324e0d654dbd21e0e7fa2d,21,Mężczyzna,2022-06-04_08h43.53.508,task,2021.1.4,Win32,74.96251874,628b806c463b948bc644b84f,629afe901cd7794e310e7601,,,,,,,,,,X V Q F H G B L J M P D K C T S W R N Z,,,,,,,,,,,,,,,,,,,,,,,,,,,,,,,,,,,,,,,,,,,,,,,,,,,,,,,,,,,,,,,,,,,,,,,,,,,,5,0,5,0,1,,,,,,,,,,,,,
,,,,,,,,,,60324e0d654dbd21e0e7fa2d,21,Mężczyzna,2022-06-04_08h43.53.508,task,2021.1.4,Win32,74.96251874,628b806c463b948bc644b84f,629afe901cd7794e310e7601,,,,,,,,,,,,,,,,,,,,,,,7,,,,,,,,,,Task,30,(6/3) + 4 ,6,,,,,,,,,,,,,,,,,,0,,,,,,,,,,,,,,,,,,,,,,,,"[""7""]",0,[3.0400000000000773],0,0,0,29,1,,,,,,,,,,,,,,,,,,
,,,,,,,,,,60324e0d654dbd21e0e7fa2d,21,Mężczyzna,2022-06-04_08h43.53.508,task,2021.1.4,Win32,74.96251874,628b806c463b948bc644b84f,629afe901cd7794e310e7601,,,,,,,,,,,,,,,,,,,,,,,7,,,,,,,,,,Task,31,(4/2) + 5,7,,,,,,,,,,,,,,,,,,1,,,,,,,,,,,,,,,,,,,,,,,,"[""7""]",1,[2.4669999999999845],0,1,1,30,1,,,,,,,,,,,,,,,,,,
,,,,,,,,,,60324e0d654dbd21e0e7fa2d,21,Mężczyzna,2022-06-04_08h43.53.508,task,2021.1.4,Win32,74.96251874,628b806c463b948bc644b84f,629afe901cd7794e310e7601,,,,,,,,,,X V Q F H G B L J M P D K C T S W R N Z,,,,,,,,,,,,,,,,,,,,,,,,,,,,,,,,,,,,,,,,,,,,,,,,,,,,,,,,,,,,,,,,,,,,,,,,,,,,6,0,6,0,1,,,,,,,,,,,,,
,,,,,,,,,,60324e0d654dbd21e0e7fa2d,21,Mężczyzna,2022-06-04_08h43.53.508,task,2021.1.4,Win32,74.96251874,628b806c463b948bc644b84f,629afe901cd7794e310e7601,,,,,,,,,,,,,,,,,,,,,,,,,,,,,,,,,,,,,,,,,,,,,,,,,,,,,,,,,,,,,,,,,,,,,,,,,,,,,,,,,,,,,,,,,,,tdrmdbb,"[""t"",""d"",""r"",""m"",""d"",""b"",""b""]",0,"[2.0579999999999927,2.4289999999999736,3.38900000000001,4.043999999999983,4.9500000000000455,5.416000000000054,5.897000000000048,7.004000000000019]",0,TMDRMBB,5,0,5,0,1,,
,,,,,,,,,,60324e0d654dbd21e0e7fa2d,21,Mężczyzna,2022-06-04_08h43.53.508,task,2021.1.4,Win32,74.96251874,628b806c463b948bc644b84f,629afe901cd7794e310e7601,,,,,,,,,,,,,,,,,,,,,,,0,,,,,,,,,,Task,8,(1x5) - 5,0,,,,,,,,,,,,,,,,,,1,,,,,,,,,,,,,,,,,,,,,,,,"[""0""]",1,[2.37399999999991],0,0,0,7,1,,,,,,,,,,,,,,,,,,
,,,,,,,,,,60324e0d654dbd21e0e7fa2d,21,Mężczyzna,2022-06-04_08h43.53.508,task,2021.1.4,Win32,74.96251874,628b806c463b948bc644b84f,629afe901cd7794e310e7601,,,,,,,,,,X V Q F H G B L J M P D K C T S W R N Z,,,,,,,,,,,,,,,,,,,,,,,,,,,,,,,,,,,,,,,,,,,,,,,,,,,,,,,,,,,,,,,,,,,,,,,,,,,,0,0,0,0,1,,,,,,,,,,,,,
,,,,,,,,,,60324e0d654dbd21e0e7fa2d,21,Mężczyzna,2022-06-04_08h43.53.508,task,2021.1.4,Win32,74.96251874,628b806c463b948bc644b84f,629afe901cd7794e310e7601,,,,,,,,,,,,,,,,,,,,,,,2,,,,,,,,,,Task,26,(2x9) - 16,2,,,,,,,,,,,,,,,,,,1,,,,,,,,,,,,,,,,,,,,,,,,"[""2""]",1,[1.6589999999999918],0,0,0,25,1,,,,,,,,,,,,,,,,,,
,,,,,,,,,,60324e0d654dbd21e0e7fa2d,21,Mężczyzna,2022-06-04_08h43.53.508,task,2021.1.4,Win32,74.96251874,628b806c463b948bc644b84f,629afe901cd7794e310e7601,,,,,,,,,,X V Q F H G B L J M P D K C T S W R N Z,,,,,,,,,,,,,,,,,,,,,,,,,,,,,,,,,,,,,,,,,,,,,,,,,,,,,,,,,,,,,,,,,,,,,,,,,,,,1,0,1,0,1,,,,,,,,,,,,,
,,,,,,,,,,60324e0d654dbd21e0e7fa2d,21,Mężczyzna,2022-06-04_08h43.53.508,task,2021.1.4,Win32,74.96251874,628b806c463b948bc644b84f,629afe901cd7794e310e7601,,,,,,,,,,,,,,,,,,,,,,,5,,,,,,,,,,Task,22,(3x1) + 2,5,,,,,,,,,,,,,,,,,,1,,,,,,,,,,,,,,,,,,,,,,,,"[""5""]",1,[1.9990000000000236],0,0,0,21,1,,,,,,,,,,,,,,,,,,
,,,,,,,,,,60324e0d654dbd21e0e7fa2d,21,Mężczyzna,2022-06-04_08h43.53.508,task,2021.1.4,Win32,74.96251874,628b806c463b948bc644b84f,629afe901cd7794e310e7601,,,,,,,,,,X V Q F H G B L J M P D K C T S W R N Z,,,,,,,,,,,,,,,,,,,,,,,,,,,,,,,,,,,,,,,,,,,,,,,,,,,,,,,,,,,,,,,,,,,,,,,,,,,,2,0,2,0,1,,,,,,,,,,,,,
,,,,,,,,,,60324e0d654dbd21e0e7fa2d,21,Mężczyzna,2022-06-04_08h43.53.508,task,2021.1.4,Win32,74.96251874,628b806c463b948bc644b84f,629afe901cd7794e310e7601,,,,,,,,,,,,,,,,,,,,,,,3,,,,,,,,,,Task,16,(3x8) - 15,9,,,,,,,,,,,,,,,,,,0,,,,,,,,,,,,,,,,,,,,,,,,"[""3""]",0,[2.159999999999968],0,0,0,15,1,,,,,,,,,,,,,,,,,,
,,,,,,,,,,60324e0d654dbd21e0e7fa2d,21,Mężczyzna,2022-06-04_08h43.53.508,task,2021.1.4,Win32,74.96251874,628b806c463b948bc644b84f,629afe901cd7794e310e7601,,,,,,,,,,,,,,,,,,,,,,,5,,,,,,,,,,Task,22,(3x1) + 2,5,,,,,,,,,,,,,,,,,,1,,,,,,,,,,,,,,,,,,,,,,,,"[""5""]",1,[2.8139999999999645],0,1,1,21,1,,,,,,,,,,,,,,,,,,
,,,,,,,,,,60324e0d654dbd21e0e7fa2d,21,Mężczyzna,2022-06-04_08h43.53.508,task,2021.1.4,Win32,74.96251874,628b806c463b948bc644b84f,629afe901cd7794e310e7601,,,,,,,,,,X V Q F H G B L J M P D K C T S W R N Z,,,,,,,,,,,,,,,,,,,,,,,,,,,,,,,,,,,,,,,,,,,,,,,,,,,,,,,,,,,,,,,,,,,,,,,,,,,,3,0,3,0,1,,,,,,,,,,,,,
