key_resp_15.keys,key_resp_15.rt,key_resp_16.keys,key_resp_16.rt,key_resp_4.keys,key_resp_4.rt,next_letter.thisRepN,next_letter.thisTrialN,next_letter.thisN,next_letter.thisIndex,next_letter.ran,letter,participant,Wiek*,Płeć,date,expName,psychopyVersion,OS,frameRate,study_id,session,simple_recall,key_resp_5.keys,key_resp_5.rt,simple_recall_corr,simple_recall_corrkeys,next_level.thisRepN,next_level.thisTrialN,next_level.thisN,next_level.thisIndex,next_level.ran,key_resp_2.keys,key_resp_2.rt,digit_answer,key_resp.keys,key_resp.corr,key_resp.rt,RT_list,next_equation.thisRepN,next_equation.thisTrialN,next_equation.thisN,next_equation.thisIndex,next_equation.ran,Task,Trial,Problem,Operation_answer,processing_score,sumRT,meanRT,sumdiff,sd,RT,key_resp_3.keys,key_resp_3.rt,repeat_practice.thisRepN,repeat_practice.thisTrialN,repeat_practice.thisN,repeat_practice.thisIndex,repeat_practice.ran,key_resp_6.keys,key_resp_6.rt,key_resp_11.keys,key_resp_11.corr,key_resp_11.rt,operation_correct,repeat_if_wrong_prac.thisRepN,repeat_if_wrong_prac.thisTrialN,repeat_if_wrong_prac.thisN,repeat_if_wrong_prac.thisIndex,repeat_if_wrong_prac.ran,span_size_prac.thisRepN,span_size_prac.thisTrialN,span_size_prac.thisN,span_size_prac.thisIndex,span_size_prac.ran,complex_recall_practice,key_resp_9.keys,key_resp_9.corr,key_resp_9.rt,complex_prac_corr,span_recall_prac.thisRepN,span_recall_prac.thisTrialN,span_recall_prac.thisN,span_recall_prac.thisIndex,span_recall_prac.ran,key_resp_10.keys,key_resp_10.rt,key_resp_7.keys,key_resp_7.corr,key_resp_7.rt,repeat_if_wrong.thisRepN,repeat_if_wrong.thisTrialN,repeat_if_wrong.thisN,repeat_if_wrong.thisIndex,repeat_if_wrong.ran,span_size.thisRepN,span_size.thisTrialN,span_size.thisN,span_size.thisIndex,span_size.ran,complex_recall,key_resp_8.keys,key_resp_8.corr,key_resp_8.rt,complex_recall_corr,complex_recall_corrkeys,span_recall.thisRepN,span_recall.thisTrialN,span_recall.thisN,span_recall.thisIndex,span_recall.ran,key_resp_13.keys,key_resp_13.corr,key_resp_13.rt,random_loop.thisRepN,random_loop.thisTrialN,random_loop.thisN,random_loop.thisIndex,random_loop.ran,key_resp_12.keys,key_resp_12.rt
space,29.1698,space,71.1547,space,5.5247,0,0,0,0,1,X V Q F H G B L J M P D K C T S W R N Z,603d3ff5158dc4c2130d811e,19,Kobieta,2022-06-11_09h02.04.221,task,2021.1.4,Win32,59.94844434,6299f149e92ead563fba08ef,62a43ddc847e3ec0bad8608d,,,,,,,,,,,,,,,,,,,,,,,,,,,,,,,,,,,,,,,,,,,,,,,,,,,,,,,,,,,,,,,,,,,,,,,,,,,,,,,,,,,,,,,,,,,,,,,,,,,,,
,,,,,,1,0,1,0,1,X V Q F H G B L J M P D K C T S W R N Z,603d3ff5158dc4c2130d811e,19,Kobieta,2022-06-11_09h02.04.221,task,2021.1.4,Win32,59.94844434,6299f149e92ead563fba08ef,62a43ddc847e3ec0bad8608d,,,,,,,,,,,,,,,,,,,,,,,,,,,,,,,,,,,,,,,,,,,,,,,,,,,,,,,,,,,,,,,,,,,,,,,,,,,,,,,,,,,,,,,,,,,,,,,,,,,,,
,,,,,,,,,,,,603d3ff5158dc4c2130d811e,19,Kobieta,2022-06-11_09h02.04.221,task,2021.1.4,Win32,59.94844434,6299f149e92ead563fba08ef,62a43ddc847e3ec0bad8608d,zj,"[""z"",""j""]","[1.8011999999955322,2.458100000001494,3.754199999995521]",1,ZJ,0,0,0,0,1,,,,,,,,,,,,,,,,,,,,,,,,,,,,,,,,,,,,,,,,,,,,,,,,,,,,,,,,,,,,,,,,,,,,,,,,,,,,,,,,,,,,,,,,,,,
,,,,,,0,0,0,0,1,X V Q F H G B L J M P D K C T S W R N Z,603d3ff5158dc4c2130d811e,19,Kobieta,2022-06-11_09h02.04.221,task,2021.1.4,Win32,59.94844434,6299f149e92ead563fba08ef,62a43ddc847e3ec0bad8608d,,,,,,,,,,,,,,,,,,,,,,,,,,,,,,,,,,,,,,,,,,,,,,,,,,,,,,,,,,,,,,,,,,,,,,,,,,,,,,,,,,,,,,,,,,,,,,,,,,,,,
,,,,,,1,0,1,0,1,X V Q F H G B L J M P D K C T S W R N Z,603d3ff5158dc4c2130d811e,19,Kobieta,2022-06-11_09h02.04.221,task,2021.1.4,Win32,59.94844434,6299f149e92ead563fba08ef,62a43ddc847e3ec0bad8608d,,,,,,,,,,,,,,,,,,,,,,,,,,,,,,,,,,,,,,,,,,,,,,,,,,,,,,,,,,,,,,,,,,,,,,,,,,,,,,,,,,,,,,,,,,,,,,,,,,,,,
,,,,,,,,,,,,603d3ff5158dc4c2130d811e,19,Kobieta,2022-06-11_09h02.04.221,task,2021.1.4,Win32,59.94844434,6299f149e92ead563fba08ef,62a43ddc847e3ec0bad8608d,hx,"[""h"",""x""]","[1.5074999999999932,1.6564000000059593,2.512400000005954]",1,HX,1,0,1,0,1,,,,,,,,,,,,,,,,,,,,,,,,,,,,,,,,,,,,,,,,,,,,,,,,,,,,,,,,,,,,,,,,,,,,,,,,,,,,,,,,,,,,,,,,,,,
,,,,,,0,0,0,0,1,X V Q F H G B L J M P D K C T S W R N Z,603d3ff5158dc4c2130d811e,19,Kobieta,2022-06-11_09h02.04.221,task,2021.1.4,Win32,59.94844434,6299f149e92ead563fba08ef,62a43ddc847e3ec0bad8608d,,,,,,,,,,,,,,,,,,,,,,,,,,,,,,,,,,,,,,,,,,,,,,,,,,,,,,,,,,,,,,,,,,,,,,,,,,,,,,,,,,,,,,,,,,,,,,,,,,,,,
,,,,,,1,0,1,0,1,X V Q F H G B L J M P D K C T S W R N Z,603d3ff5158dc4c2130d811e,19,Kobieta,2022-06-11_09h02.04.221,task,2021.1.4,Win32,59.94844434,6299f149e92ead563fba08ef,62a43ddc847e3ec0bad8608d,,,,,,,,,,,,,,,,,,,,,,,,,,,,,,,,,,,,,,,,,,,,,,,,,,,,,,,,,,,,,,,,,,,,,,,,,,,,,,,,,,,,,,,,,,,,,,,,,,,,,
,,,,,,2,0,2,0,1,X V Q F H G B L J M P D K C T S W R N Z,603d3ff5158dc4c2130d811e,19,Kobieta,2022-06-11_09h02.04.221,task,2021.1.4,Win32,59.94844434,6299f149e92ead563fba08ef,62a43ddc847e3ec0bad8608d,,,,,,,,,,,,,,,,,,,,,,,,,,,,,,,,,,,,,,,,,,,,,,,,,,,,,,,,,,,,,,,,,,,,,,,,,,,,,,,,,,,,,,,,,,,,,,,,,,,,,
,,,,,,,,,,,,603d3ff5158dc4c2130d811e,19,Kobieta,2022-06-11_09h02.04.221,task,2021.1.4,Win32,59.94844434,6299f149e92ead563fba08ef,62a43ddc847e3ec0bad8608d,gqs,"[""g"",""q"",""s""]","[0.7703999999985172,0.9302000000029977,1.2782000000029825,1.9693000000044947]",1,GQS,2,0,2,0,1,,,,,,,,,,,,,,,,,,,,,,,,,,,,,,,,,,,,,,,,,,,,,,,,,,,,,,,,,,,,,,,,,,,,,,,,,,,,,,,,,,,,,,,,,,,
,,,,,,0,0,0,0,1,X V Q F H G B L J M P D K C T S W R N Z,603d3ff5158dc4c2130d811e,19,Kobieta,2022-06-11_09h02.04.221,task,2021.1.4,Win32,59.94844434,6299f149e92ead563fba08ef,62a43ddc847e3ec0bad8608d,,,,,,,,,,,,,,,,,,,,,,,,,,,,,,,,,,,,,,,,,,,,,,,,,,,,,,,,,,,,,,,,,,,,,,,,,,,,,,,,,,,,,,,,,,,,,,,,,,,,,
,,,,,,1,0,1,0,1,X V Q F H G B L J M P D K C T S W R N Z,603d3ff5158dc4c2130d811e,19,Kobieta,2022-06-11_09h02.04.221,task,2021.1.4,Win32,59.94844434,6299f149e92ead563fba08ef,62a43ddc847e3ec0bad8608d,,,,,,,,,,,,,,,,,,,,,,,,,,,,,,,,,,,,,,,,,,,,,,,,,,,,,,,,,,,,,,,,,,,,,,,,,,,,,,,,,,,,,,,,,,,,,,,,,,,,,
,,,,,,2,0,2,0,1,X V Q F H G B L J M P D K C T S W R N Z,603d3ff5158dc4c2130d811e,19,Kobieta,2022-06-11_09h02.04.221,task,2021.1.4,Win32,59.94844434,6299f149e92ead563fba08ef,62a43ddc847e3ec0bad8608d,,,,,,,,,,,,,,,,,,,,,,,,,,,,,,,,,,,,,,,,,,,,,,,,,,,,,,,,,,,,,,,,,,,,,,,,,,,,,,,,,,,,,,,,,,,,,,,,,,,,,
,,,,,,,,,,,,603d3ff5158dc4c2130d811e,19,Kobieta,2022-06-11_09h02.04.221,task,2021.1.4,Win32,59.94844434,6299f149e92ead563fba08ef,62a43ddc847e3ec0bad8608d,jnn,"[""j"",""n"",""n""]","[1.20610000000147,1.372100000001467,1.5091000000014674,2.348100000001466]",1,JNN,3,0,3,0,1,,,,,,,,,,,,,,,,,,,,,,,,,,,,,,,,,,,,,,,,,,,,,,,,,,,,,,,,,,,,,,,,,,,,,,,,,,,,,,,,,,,,,,,,,,,
,,,,,,0,0,0,0,1,X V Q F H G B L J M P D K C T S W R N Z,603d3ff5158dc4c2130d811e,19,Kobieta,2022-06-11_09h02.04.221,task,2021.1.4,Win32,59.94844434,6299f149e92ead563fba08ef,62a43ddc847e3ec0bad8608d,,,,,,,,,,,,,,,,,,,,,,,,,,,,,,,,,,,,,,,,,,,,,,,,,,,,,,,,,,,,,,,,,,,,,,,,,,,,,,,,,,,,,,,,,,,,,,,,,,,,,
,,,,,,1,0,1,0,1,X V Q F H G B L J M P D K C T S W R N Z,603d3ff5158dc4c2130d811e,19,Kobieta,2022-06-11_09h02.04.221,task,2021.1.4,Win32,59.94844434,6299f149e92ead563fba08ef,62a43ddc847e3ec0bad8608d,,,,,,,,,,,,,,,,,,,,,,,,,,,,,,,,,,,,,,,,,,,,,,,,,,,,,,,,,,,,,,,,,,,,,,,,,,,,,,,,,,,,,,,,,,,,,,,,,,,,,
,,,,,,2,0,2,0,1,X V Q F H G B L J M P D K C T S W R N Z,603d3ff5158dc4c2130d811e,19,Kobieta,2022-06-11_09h02.04.221,task,2021.1.4,Win32,59.94844434,6299f149e92ead563fba08ef,62a43ddc847e3ec0bad8608d,,,,,,,,,,,,,,,,,,,,,,,,,,,,,,,,,,,,,,,,,,,,,,,,,,,,,,,,,,,,,,,,,,,,,,,,,,,,,,,,,,,,,,,,,,,,,,,,,,,,,
,,,,,,3,0,3,0,1,X V Q F H G B L J M P D K C T S W R N Z,603d3ff5158dc4c2130d811e,19,Kobieta,2022-06-11_09h02.04.221,task,2021.1.4,Win32,59.94844434,6299f149e92ead563fba08ef,62a43ddc847e3ec0bad8608d,,,,,,,,,,,,,,,,,,,,,,,,,,,,,,,,,,,,,,,,,,,,,,,,,,,,,,,,,,,,,,,,,,,,,,,,,,,,,,,,,,,,,,,,,,,,,,,,,,,,,
,,,,,,,,,,,,603d3ff5158dc4c2130d811e,19,Kobieta,2022-06-11_09h02.04.221,task,2021.1.4,Win32,59.94844434,6299f149e92ead563fba08ef,62a43ddc847e3ec0bad8608d,brnp,"[""b"",""r"",""n"",""p""]","[3.267300000004468,3.649300000004473,3.94030000000447,4.346300000004476,5.053400000005951]",1,BRNP,4,0,4,0,1,,,,,,,,,,,,,,,,,,,,,,,,,,,,,,,,,,,,,,,,,,,,,,,,,,,,,,,,,,,,,,,,,,,,,,,,,,,,,,,,,,,,,,,,,,,
,,,,,,0,0,0,0,1,X V Q F H G B L J M P D K C T S W R N Z,603d3ff5158dc4c2130d811e,19,Kobieta,2022-06-11_09h02.04.221,task,2021.1.4,Win32,59.94844434,6299f149e92ead563fba08ef,62a43ddc847e3ec0bad8608d,,,,,,,,,,,,,,,,,,,,,,,,,,,,,,,,,,,,,,,,,,,,,,,,,,,,,,,,,,,,,,,,,,,,,,,,,,,,,,,,,,,,,,,,,,,,,,,,,,,,,
,,,,,,1,0,1,0,1,X V Q F H G B L J M P D K C T S W R N Z,603d3ff5158dc4c2130d811e,19,Kobieta,2022-06-11_09h02.04.221,task,2021.1.4,Win32,59.94844434,6299f149e92ead563fba08ef,62a43ddc847e3ec0bad8608d,,,,,,,,,,,,,,,,,,,,,,,,,,,,,,,,,,,,,,,,,,,,,,,,,,,,,,,,,,,,,,,,,,,,,,,,,,,,,,,,,,,,,,,,,,,,,,,,,,,,,
,,,,,,2,0,2,0,1,X V Q F H G B L J M P D K C T S W R N Z,603d3ff5158dc4c2130d811e,19,Kobieta,2022-06-11_09h02.04.221,task,2021.1.4,Win32,59.94844434,6299f149e92ead563fba08ef,62a43ddc847e3ec0bad8608d,,,,,,,,,,,,,,,,,,,,,,,,,,,,,,,,,,,,,,,,,,,,,,,,,,,,,,,,,,,,,,,,,,,,,,,,,,,,,,,,,,,,,,,,,,,,,,,,,,,,,
,,,,,,3,0,3,0,1,X V Q F H G B L J M P D K C T S W R N Z,603d3ff5158dc4c2130d811e,19,Kobieta,2022-06-11_09h02.04.221,task,2021.1.4,Win32,59.94844434,6299f149e92ead563fba08ef,62a43ddc847e3ec0bad8608d,,,,,,,,,,,,,,,,,,,,,,,,,,,,,,,,,,,,,,,,,,,,,,,,,,,,,,,,,,,,,,,,,,,,,,,,,,,,,,,,,,,,,,,,,,,,,,,,,,,,,
,,,,,,,,,,,,603d3ff5158dc4c2130d811e,19,Kobieta,2022-06-11_09h02.04.221,task,2021.1.4,Win32,59.94844434,6299f149e92ead563fba08ef,62a43ddc847e3ec0bad8608d,dsrq,"[""d"",""s"",""r"",""q""]","[1.5348999999985153,1.7977000000029761,2.0426000000014994,2.2317000000029736,3.041800000004457]",1,DSRQ,5,0,5,0,1,,,,,,,,,,,,,,,,,,,,,,,,,,,,,,,,,,,,,,,,,,,,,,,,,,,,,,,,,,,,,,,,,,,,,,,,,,,,,,,,,,,,,,,,,,,
,,,,,,0,0,0,0,1,X V Q F H G B L J M P D K C T S W R N Z,603d3ff5158dc4c2130d811e,19,Kobieta,2022-06-11_09h02.04.221,task,2021.1.4,Win32,59.94844434,6299f149e92ead563fba08ef,62a43ddc847e3ec0bad8608d,,,,,,,,,,,,,,,,,,,,,,,,,,,,,,,,,,,,,,,,,,,,,,,,,,,,,,,,,,,,,,,,,,,,,,,,,,,,,,,,,,,,,,,,,,,,,,,,,,,,,
,,,,,,1,0,1,0,1,X V Q F H G B L J M P D K C T S W R N Z,603d3ff5158dc4c2130d811e,19,Kobieta,2022-06-11_09h02.04.221,task,2021.1.4,Win32,59.94844434,6299f149e92ead563fba08ef,62a43ddc847e3ec0bad8608d,,,,,,,,,,,,,,,,,,,,,,,,,,,,,,,,,,,,,,,,,,,,,,,,,,,,,,,,,,,,,,,,,,,,,,,,,,,,,,,,,,,,,,,,,,,,,,,,,,,,,
,,,,,,2,0,2,0,1,X V Q F H G B L J M P D K C T S W R N Z,603d3ff5158dc4c2130d811e,19,Kobieta,2022-06-11_09h02.04.221,task,2021.1.4,Win32,59.94844434,6299f149e92ead563fba08ef,62a43ddc847e3ec0bad8608d,,,,,,,,,,,,,,,,,,,,,,,,,,,,,,,,,,,,,,,,,,,,,,,,,,,,,,,,,,,,,,,,,,,,,,,,,,,,,,,,,,,,,,,,,,,,,,,,,,,,,
,,,,,,3,0,3,0,1,X V Q F H G B L J M P D K C T S W R N Z,603d3ff5158dc4c2130d811e,19,Kobieta,2022-06-11_09h02.04.221,task,2021.1.4,Win32,59.94844434,6299f149e92ead563fba08ef,62a43ddc847e3ec0bad8608d,,,,,,,,,,,,,,,,,,,,,,,,,,,,,,,,,,,,,,,,,,,,,,,,,,,,,,,,,,,,,,,,,,,,,,,,,,,,,,,,,,,,,,,,,,,,,,,,,,,,,
,,,,,,4,0,4,0,1,X V Q F H G B L J M P D K C T S W R N Z,603d3ff5158dc4c2130d811e,19,Kobieta,2022-06-11_09h02.04.221,task,2021.1.4,Win32,59.94844434,6299f149e92ead563fba08ef,62a43ddc847e3ec0bad8608d,,,,,,,,,,,,,,,,,,,,,,,,,,,,,,,,,,,,,,,,,,,,,,,,,,,,,,,,,,,,,,,,,,,,,,,,,,,,,,,,,,,,,,,,,,,,,,,,,,,,,
,,,,,,,,,,,,603d3ff5158dc4c2130d811e,19,Kobieta,2022-06-11_09h02.04.221,task,2021.1.4,Win32,59.94844434,6299f149e92ead563fba08ef,62a43ddc847e3ec0bad8608d,pdqwv,"[""p"",""d"",""q"",""w"",""v""]","[2.1362000000029866,2.586999999999989,3.1981000000014888,3.735100000001495,4.779100000001478,5.584200000002966]",1,PDQWV,6,0,6,0,1,,,,,,,,,,,,,,,,,,,,,,,,,,,,,,,,,,,,,,,,,,,,,,,,,,,,,,,,,,,,,,,,,,,,,,,,,,,,,,,,,,,,,,,,,,,
,,,,,,0,0,0,0,1,X V Q F H G B L J M P D K C T S W R N Z,603d3ff5158dc4c2130d811e,19,Kobieta,2022-06-11_09h02.04.221,task,2021.1.4,Win32,59.94844434,6299f149e92ead563fba08ef,62a43ddc847e3ec0bad8608d,,,,,,,,,,,,,,,,,,,,,,,,,,,,,,,,,,,,,,,,,,,,,,,,,,,,,,,,,,,,,,,,,,,,,,,,,,,,,,,,,,,,,,,,,,,,,,,,,,,,,
,,,,,,1,0,1,0,1,X V Q F H G B L J M P D K C T S W R N Z,603d3ff5158dc4c2130d811e,19,Kobieta,2022-06-11_09h02.04.221,task,2021.1.4,Win32,59.94844434,6299f149e92ead563fba08ef,62a43ddc847e3ec0bad8608d,,,,,,,,,,,,,,,,,,,,,,,,,,,,,,,,,,,,,,,,,,,,,,,,,,,,,,,,,,,,,,,,,,,,,,,,,,,,,,,,,,,,,,,,,,,,,,,,,,,,,
,,,,,,2,0,2,0,1,X V Q F H G B L J M P D K C T S W R N Z,603d3ff5158dc4c2130d811e,19,Kobieta,2022-06-11_09h02.04.221,task,2021.1.4,Win32,59.94844434,6299f149e92ead563fba08ef,62a43ddc847e3ec0bad8608d,,,,,,,,,,,,,,,,,,,,,,,,,,,,,,,,,,,,,,,,,,,,,,,,,,,,,,,,,,,,,,,,,,,,,,,,,,,,,,,,,,,,,,,,,,,,,,,,,,,,,
,,,,,,3,0,3,0,1,X V Q F H G B L J M P D K C T S W R N Z,603d3ff5158dc4c2130d811e,19,Kobieta,2022-06-11_09h02.04.221,task,2021.1.4,Win32,59.94844434,6299f149e92ead563fba08ef,62a43ddc847e3ec0bad8608d,,,,,,,,,,,,,,,,,,,,,,,,,,,,,,,,,,,,,,,,,,,,,,,,,,,,,,,,,,,,,,,,,,,,,,,,,,,,,,,,,,,,,,,,,,,,,,,,,,,,,
,,,,,,4,0,4,0,1,X V Q F H G B L J M P D K C T S W R N Z,603d3ff5158dc4c2130d811e,19,Kobieta,2022-06-11_09h02.04.221,task,2021.1.4,Win32,59.94844434,6299f149e92ead563fba08ef,62a43ddc847e3ec0bad8608d,,,,,,,,,,,,,,,,,,,,,,,,,,,,,,,,,,,,,,,,,,,,,,,,,,,,,,,,,,,,,,,,,,,,,,,,,,,,,,,,,,,,,,,,,,,,,,,,,,,,,
,,,,,,,,,,,,603d3ff5158dc4c2130d811e,19,Kobieta,2022-06-11_09h02.04.221,task,2021.1.4,Win32,59.94844434,6299f149e92ead563fba08ef,62a43ddc847e3ec0bad8608d,dbbzg,"[""d"",""b"",""b"",""z"",""g""]","[1.0925000000000011,1.4232999999970275,1.6401999999955308,1.8393999999985056,2.0113999999985026,2.827399999998505]",1,DBBZG,7,0,7,0,1,,,,,,,,,,,,,,,,,,,,,,,,,,,,,,,,,,,,,,,,,,,,,,,,,,,,,,,,,,,,,,,,,,,,,,,,,,,,,,,,,,,,,,,,,,,
,,,,,,0,0,0,0,1,X V Q F H G B L J M P D K C T S W R N Z,603d3ff5158dc4c2130d811e,19,Kobieta,2022-06-11_09h02.04.221,task,2021.1.4,Win32,59.94844434,6299f149e92ead563fba08ef,62a43ddc847e3ec0bad8608d,,,,,,,,,,,,,,,,,,,,,,,,,,,,,,,,,,,,,,,,,,,,,,,,,,,,,,,,,,,,,,,,,,,,,,,,,,,,,,,,,,,,,,,,,,,,,,,,,,,,,
,,,,,,1,0,1,0,1,X V Q F H G B L J M P D K C T S W R N Z,603d3ff5158dc4c2130d811e,19,Kobieta,2022-06-11_09h02.04.221,task,2021.1.4,Win32,59.94844434,6299f149e92ead563fba08ef,62a43ddc847e3ec0bad8608d,,,,,,,,,,,,,,,,,,,,,,,,,,,,,,,,,,,,,,,,,,,,,,,,,,,,,,,,,,,,,,,,,,,,,,,,,,,,,,,,,,,,,,,,,,,,,,,,,,,,,
,,,,,,2,0,2,0,1,X V Q F H G B L J M P D K C T S W R N Z,603d3ff5158dc4c2130d811e,19,Kobieta,2022-06-11_09h02.04.221,task,2021.1.4,Win32,59.94844434,6299f149e92ead563fba08ef,62a43ddc847e3ec0bad8608d,,,,,,,,,,,,,,,,,,,,,,,,,,,,,,,,,,,,,,,,,,,,,,,,,,,,,,,,,,,,,,,,,,,,,,,,,,,,,,,,,,,,,,,,,,,,,,,,,,,,,
,,,,,,3,0,3,0,1,X V Q F H G B L J M P D K C T S W R N Z,603d3ff5158dc4c2130d811e,19,Kobieta,2022-06-11_09h02.04.221,task,2021.1.4,Win32,59.94844434,6299f149e92ead563fba08ef,62a43ddc847e3ec0bad8608d,,,,,,,,,,,,,,,,,,,,,,,,,,,,,,,,,,,,,,,,,,,,,,,,,,,,,,,,,,,,,,,,,,,,,,,,,,,,,,,,,,,,,,,,,,,,,,,,,,,,,
,,,,,,4,0,4,0,1,X V Q F H G B L J M P D K C T S W R N Z,603d3ff5158dc4c2130d811e,19,Kobieta,2022-06-11_09h02.04.221,task,2021.1.4,Win32,59.94844434,6299f149e92ead563fba08ef,62a43ddc847e3ec0bad8608d,,,,,,,,,,,,,,,,,,,,,,,,,,,,,,,,,,,,,,,,,,,,,,,,,,,,,,,,,,,,,,,,,,,,,,,,,,,,,,,,,,,,,,,,,,,,,,,,,,,,,
,,,,,,5,0,5,0,1,X V Q F H G B L J M P D K C T S W R N Z,603d3ff5158dc4c2130d811e,19,Kobieta,2022-06-11_09h02.04.221,task,2021.1.4,Win32,59.94844434,6299f149e92ead563fba08ef,62a43ddc847e3ec0bad8608d,,,,,,,,,,,,,,,,,,,,,,,,,,,,,,,,,,,,,,,,,,,,,,,,,,,,,,,,,,,,,,,,,,,,,,,,,,,,,,,,,,,,,,,,,,,,,,,,,,,,,
,,,,,,,,,,,,603d3ff5158dc4c2130d811e,19,Kobieta,2022-06-11_09h02.04.221,task,2021.1.4,Win32,59.94844434,6299f149e92ead563fba08ef,62a43ddc847e3ec0bad8608d,fdxqmb,"[""f"",""d"",""x"",""q"",""m"",""b""]","[1.351399999998506,1.8533000000044808,2.641200000002982,3.1612000000029923,3.7601000000015006,8.73220000000299,9.263200000002996]",1,FDXQMB,8,0,8,0,1,,,,,,,,,,,,,,,,,,,,,,,,,,,,,,,,,,,,,,,,,,,,,,,,,,,,,,,,,,,,,,,,,,,,,,,,,,,,,,,,,,,,,,,,,,,
,,,,,,0,0,0,0,1,X V Q F H G B L J M P D K C T S W R N Z,603d3ff5158dc4c2130d811e,19,Kobieta,2022-06-11_09h02.04.221,task,2021.1.4,Win32,59.94844434,6299f149e92ead563fba08ef,62a43ddc847e3ec0bad8608d,,,,,,,,,,,,,,,,,,,,,,,,,,,,,,,,,,,,,,,,,,,,,,,,,,,,,,,,,,,,,,,,,,,,,,,,,,,,,,,,,,,,,,,,,,,,,,,,,,,,,
,,,,,,1,0,1,0,1,X V Q F H G B L J M P D K C T S W R N Z,603d3ff5158dc4c2130d811e,19,Kobieta,2022-06-11_09h02.04.221,task,2021.1.4,Win32,59.94844434,6299f149e92ead563fba08ef,62a43ddc847e3ec0bad8608d,,,,,,,,,,,,,,,,,,,,,,,,,,,,,,,,,,,,,,,,,,,,,,,,,,,,,,,,,,,,,,,,,,,,,,,,,,,,,,,,,,,,,,,,,,,,,,,,,,,,,
,,,,,,2,0,2,0,1,X V Q F H G B L J M P D K C T S W R N Z,603d3ff5158dc4c2130d811e,19,Kobieta,2022-06-11_09h02.04.221,task,2021.1.4,Win32,59.94844434,6299f149e92ead563fba08ef,62a43ddc847e3ec0bad8608d,,,,,,,,,,,,,,,,,,,,,,,,,,,,,,,,,,,,,,,,,,,,,,,,,,,,,,,,,,,,,,,,,,,,,,,,,,,,,,,,,,,,,,,,,,,,,,,,,,,,,
,,,,,,3,0,3,0,1,X V Q F H G B L J M P D K C T S W R N Z,603d3ff5158dc4c2130d811e,19,Kobieta,2022-06-11_09h02.04.221,task,2021.1.4,Win32,59.94844434,6299f149e92ead563fba08ef,62a43ddc847e3ec0bad8608d,,,,,,,,,,,,,,,,,,,,,,,,,,,,,,,,,,,,,,,,,,,,,,,,,,,,,,,,,,,,,,,,,,,,,,,,,,,,,,,,,,,,,,,,,,,,,,,,,,,,,
,,,,,,4,0,4,0,1,X V Q F H G B L J M P D K C T S W R N Z,603d3ff5158dc4c2130d811e,19,Kobieta,2022-06-11_09h02.04.221,task,2021.1.4,Win32,59.94844434,6299f149e92ead563fba08ef,62a43ddc847e3ec0bad8608d,,,,,,,,,,,,,,,,,,,,,,,,,,,,,,,,,,,,,,,,,,,,,,,,,,,,,,,,,,,,,,,,,,,,,,,,,,,,,,,,,,,,,,,,,,,,,,,,,,,,,
,,,,,,5,0,5,0,1,X V Q F H G B L J M P D K C T S W R N Z,603d3ff5158dc4c2130d811e,19,Kobieta,2022-06-11_09h02.04.221,task,2021.1.4,Win32,59.94844434,6299f149e92ead563fba08ef,62a43ddc847e3ec0bad8608d,,,,,,,,,,,,,,,,,,,,,,,,,,,,,,,,,,,,,,,,,,,,,,,,,,,,,,,,,,,,,,,,,,,,,,,,,,,,,,,,,,,,,,,,,,,,,,,,,,,,,
,,,,,,,,,,,,603d3ff5158dc4c2130d811e,19,Kobieta,2022-06-11_09h02.04.221,task,2021.1.4,Win32,59.94844434,6299f149e92ead563fba08ef,62a43ddc847e3ec0bad8608d,wphntg,"[""w"",""p"",""h"",""n"",""t"",""g""]","[1.3654000000059625,1.8392000000029611,2.7243000000044617,3.1232000000029814,3.7053000000044563,4.025300000004478,5.018300000004473]",1,WPHNTG,9,0,9,0,1,,,,,,,,,,,,,,,,,,,,,,,,,,,,,,,,,,,,,,,,,,,,,,,,,,,,,,,,,,,,,,,,,,,,,,,,,,,,,,,,,,,,,,,,,,,
,,,,,,0,0,0,0,1,X V Q F H G B L J M P D K C T S W R N Z,603d3ff5158dc4c2130d811e,19,Kobieta,2022-06-11_09h02.04.221,task,2021.1.4,Win32,59.94844434,6299f149e92ead563fba08ef,62a43ddc847e3ec0bad8608d,,,,,,,,,,,,,,,,,,,,,,,,,,,,,,,,,,,,,,,,,,,,,,,,,,,,,,,,,,,,,,,,,,,,,,,,,,,,,,,,,,,,,,,,,,,,,,,,,,,,,
,,,,,,1,0,1,0,1,X V Q F H G B L J M P D K C T S W R N Z,603d3ff5158dc4c2130d811e,19,Kobieta,2022-06-11_09h02.04.221,task,2021.1.4,Win32,59.94844434,6299f149e92ead563fba08ef,62a43ddc847e3ec0bad8608d,,,,,,,,,,,,,,,,,,,,,,,,,,,,,,,,,,,,,,,,,,,,,,,,,,,,,,,,,,,,,,,,,,,,,,,,,,,,,,,,,,,,,,,,,,,,,,,,,,,,,
,,,,,,2,0,2,0,1,X V Q F H G B L J M P D K C T S W R N Z,603d3ff5158dc4c2130d811e,19,Kobieta,2022-06-11_09h02.04.221,task,2021.1.4,Win32,59.94844434,6299f149e92ead563fba08ef,62a43ddc847e3ec0bad8608d,,,,,,,,,,,,,,,,,,,,,,,,,,,,,,,,,,,,,,,,,,,,,,,,,,,,,,,,,,,,,,,,,,,,,,,,,,,,,,,,,,,,,,,,,,,,,,,,,,,,,
,,,,,,3,0,3,0,1,X V Q F H G B L J M P D K C T S W R N Z,603d3ff5158dc4c2130d811e,19,Kobieta,2022-06-11_09h02.04.221,task,2021.1.4,Win32,59.94844434,6299f149e92ead563fba08ef,62a43ddc847e3ec0bad8608d,,,,,,,,,,,,,,,,,,,,,,,,,,,,,,,,,,,,,,,,,,,,,,,,,,,,,,,,,,,,,,,,,,,,,,,,,,,,,,,,,,,,,,,,,,,,,,,,,,,,,
,,,,,,4,0,4,0,1,X V Q F H G B L J M P D K C T S W R N Z,603d3ff5158dc4c2130d811e,19,Kobieta,2022-06-11_09h02.04.221,task,2021.1.4,Win32,59.94844434,6299f149e92ead563fba08ef,62a43ddc847e3ec0bad8608d,,,,,,,,,,,,,,,,,,,,,,,,,,,,,,,,,,,,,,,,,,,,,,,,,,,,,,,,,,,,,,,,,,,,,,,,,,,,,,,,,,,,,,,,,,,,,,,,,,,,,
,,,,,,5,0,5,0,1,X V Q F H G B L J M P D K C T S W R N Z,603d3ff5158dc4c2130d811e,19,Kobieta,2022-06-11_09h02.04.221,task,2021.1.4,Win32,59.94844434,6299f149e92ead563fba08ef,62a43ddc847e3ec0bad8608d,,,,,,,,,,,,,,,,,,,,,,,,,,,,,,,,,,,,,,,,,,,,,,,,,,,,,,,,,,,,,,,,,,,,,,,,,,,,,,,,,,,,,,,,,,,,,,,,,,,,,
,,,,,,6,0,6,0,1,X V Q F H G B L J M P D K C T S W R N Z,603d3ff5158dc4c2130d811e,19,Kobieta,2022-06-11_09h02.04.221,task,2021.1.4,Win32,59.94844434,6299f149e92ead563fba08ef,62a43ddc847e3ec0bad8608d,,,,,,,,,,,,,,,,,,,,,,,,,,,,,,,,,,,,,,,,,,,,,,,,,,,,,,,,,,,,,,,,,,,,,,,,,,,,,,,,,,,,,,,,,,,,,,,,,,,,,
,,,,,,,,,,,,603d3ff5158dc4c2130d811e,19,Kobieta,2022-06-11_09h02.04.221,task,2021.1.4,Win32,59.94844434,6299f149e92ead563fba08ef,62a43ddc847e3ec0bad8608d,jgzgtbc,"[""j"",""g"",""z"",""g"",""t"",""b"",""c""]","[1.4934000000059484,1.784700000002971,2.104200000002976,2.3722000000029766,2.6462000000029775,2.977100000001485,3.2062000000029798,4.165300000004464]",1,JGZGTBC,10,0,10,0,1,,,,,,,,,,,,,,,,,,,,,,,,,,,,,,,,,,,,,,,,,,,,,,,,,,,,,,,,,,,,,,,,,,,,,,,,,,,,,,,,,,,,,,,,,,,
,,,,,,0,0,0,0,1,X V Q F H G B L J M P D K C T S W R N Z,603d3ff5158dc4c2130d811e,19,Kobieta,2022-06-11_09h02.04.221,task,2021.1.4,Win32,59.94844434,6299f149e92ead563fba08ef,62a43ddc847e3ec0bad8608d,,,,,,,,,,,,,,,,,,,,,,,,,,,,,,,,,,,,,,,,,,,,,,,,,,,,,,,,,,,,,,,,,,,,,,,,,,,,,,,,,,,,,,,,,,,,,,,,,,,,,
,,,,,,1,0,1,0,1,X V Q F H G B L J M P D K C T S W R N Z,603d3ff5158dc4c2130d811e,19,Kobieta,2022-06-11_09h02.04.221,task,2021.1.4,Win32,59.94844434,6299f149e92ead563fba08ef,62a43ddc847e3ec0bad8608d,,,,,,,,,,,,,,,,,,,,,,,,,,,,,,,,,,,,,,,,,,,,,,,,,,,,,,,,,,,,,,,,,,,,,,,,,,,,,,,,,,,,,,,,,,,,,,,,,,,,,
,,,,,,2,0,2,0,1,X V Q F H G B L J M P D K C T S W R N Z,603d3ff5158dc4c2130d811e,19,Kobieta,2022-06-11_09h02.04.221,task,2021.1.4,Win32,59.94844434,6299f149e92ead563fba08ef,62a43ddc847e3ec0bad8608d,,,,,,,,,,,,,,,,,,,,,,,,,,,,,,,,,,,,,,,,,,,,,,,,,,,,,,,,,,,,,,,,,,,,,,,,,,,,,,,,,,,,,,,,,,,,,,,,,,,,,
,,,,,,3,0,3,0,1,X V Q F H G B L J M P D K C T S W R N Z,603d3ff5158dc4c2130d811e,19,Kobieta,2022-06-11_09h02.04.221,task,2021.1.4,Win32,59.94844434,6299f149e92ead563fba08ef,62a43ddc847e3ec0bad8608d,,,,,,,,,,,,,,,,,,,,,,,,,,,,,,,,,,,,,,,,,,,,,,,,,,,,,,,,,,,,,,,,,,,,,,,,,,,,,,,,,,,,,,,,,,,,,,,,,,,,,
,,,,,,4,0,4,0,1,X V Q F H G B L J M P D K C T S W R N Z,603d3ff5158dc4c2130d811e,19,Kobieta,2022-06-11_09h02.04.221,task,2021.1.4,Win32,59.94844434,6299f149e92ead563fba08ef,62a43ddc847e3ec0bad8608d,,,,,,,,,,,,,,,,,,,,,,,,,,,,,,,,,,,,,,,,,,,,,,,,,,,,,,,,,,,,,,,,,,,,,,,,,,,,,,,,,,,,,,,,,,,,,,,,,,,,,
,,,,,,5,0,5,0,1,X V Q F H G B L J M P D K C T S W R N Z,603d3ff5158dc4c2130d811e,19,Kobieta,2022-06-11_09h02.04.221,task,2021.1.4,Win32,59.94844434,6299f149e92ead563fba08ef,62a43ddc847e3ec0bad8608d,,,,,,,,,,,,,,,,,,,,,,,,,,,,,,,,,,,,,,,,,,,,,,,,,,,,,,,,,,,,,,,,,,,,,,,,,,,,,,,,,,,,,,,,,,,,,,,,,,,,,
,,,,,,6,0,6,0,1,X V Q F H G B L J M P D K C T S W R N Z,603d3ff5158dc4c2130d811e,19,Kobieta,2022-06-11_09h02.04.221,task,2021.1.4,Win32,59.94844434,6299f149e92ead563fba08ef,62a43ddc847e3ec0bad8608d,,,,,,,,,,,,,,,,,,,,,,,,,,,,,,,,,,,,,,,,,,,,,,,,,,,,,,,,,,,,,,,,,,,,,,,,,,,,,,,,,,,,,,,,,,,,,,,,,,,,,
,,,,,,,,,,,,603d3ff5158dc4c2130d811e,19,Kobieta,2022-06-11_09h02.04.221,task,2021.1.4,Win32,59.94844434,6299f149e92ead563fba08ef,62a43ddc847e3ec0bad8608d,phdmxv,"[""p"",""h"",""d"",""m"",""x"",""v""]","[1.518999999999977,2.1469999999999914,2.5068999999984953,2.9798999999985085,4.270499999999998,4.463799999997008,6.268000000000001]",0,PVDMHXV,11,0,11,0,1,,,,,,,,,,,,,,,,,,,,,,,,,,,,,,,,,,,,,,,,,,,,,,,,,,,,,,,,,,,,,,,,,,,,,,,,,,,,,,,,,,,,,,,,,,,
,,,,,,0,0,0,0,1,X V Q F H G B L J M P D K C T S W R N Z,603d3ff5158dc4c2130d811e,19,Kobieta,2022-06-11_09h02.04.221,task,2021.1.4,Win32,59.94844434,6299f149e92ead563fba08ef,62a43ddc847e3ec0bad8608d,,,,,,,,,,,,,,,,,,,,,,,,,,,,,,,,,,,,,,,,,,,,,,,,,,,,,,,,,,,,,,,,,,,,,,,,,,,,,,,,,,,,,,,,,,,,,,,,,,,,,
,,,,,,1,0,1,0,1,X V Q F H G B L J M P D K C T S W R N Z,603d3ff5158dc4c2130d811e,19,Kobieta,2022-06-11_09h02.04.221,task,2021.1.4,Win32,59.94844434,6299f149e92ead563fba08ef,62a43ddc847e3ec0bad8608d,,,,,,,,,,,,,,,,,,,,,,,,,,,,,,,,,,,,,,,,,,,,,,,,,,,,,,,,,,,,,,,,,,,,,,,,,,,,,,,,,,,,,,,,,,,,,,,,,,,,,
,,,,,,2,0,2,0,1,X V Q F H G B L J M P D K C T S W R N Z,603d3ff5158dc4c2130d811e,19,Kobieta,2022-06-11_09h02.04.221,task,2021.1.4,Win32,59.94844434,6299f149e92ead563fba08ef,62a43ddc847e3ec0bad8608d,,,,,,,,,,,,,,,,,,,,,,,,,,,,,,,,,,,,,,,,,,,,,,,,,,,,,,,,,,,,,,,,,,,,,,,,,,,,,,,,,,,,,,,,,,,,,,,,,,,,,
,,,,,,3,0,3,0,1,X V Q F H G B L J M P D K C T S W R N Z,603d3ff5158dc4c2130d811e,19,Kobieta,2022-06-11_09h02.04.221,task,2021.1.4,Win32,59.94844434,6299f149e92ead563fba08ef,62a43ddc847e3ec0bad8608d,,,,,,,,,,,,,,,,,,,,,,,,,,,,,,,,,,,,,,,,,,,,,,,,,,,,,,,,,,,,,,,,,,,,,,,,,,,,,,,,,,,,,,,,,,,,,,,,,,,,,
,,,,,,4,0,4,0,1,X V Q F H G B L J M P D K C T S W R N Z,603d3ff5158dc4c2130d811e,19,Kobieta,2022-06-11_09h02.04.221,task,2021.1.4,Win32,59.94844434,6299f149e92ead563fba08ef,62a43ddc847e3ec0bad8608d,,,,,,,,,,,,,,,,,,,,,,,,,,,,,,,,,,,,,,,,,,,,,,,,,,,,,,,,,,,,,,,,,,,,,,,,,,,,,,,,,,,,,,,,,,,,,,,,,,,,,
,,,,,,5,0,5,0,1,X V Q F H G B L J M P D K C T S W R N Z,603d3ff5158dc4c2130d811e,19,Kobieta,2022-06-11_09h02.04.221,task,2021.1.4,Win32,59.94844434,6299f149e92ead563fba08ef,62a43ddc847e3ec0bad8608d,,,,,,,,,,,,,,,,,,,,,,,,,,,,,,,,,,,,,,,,,,,,,,,,,,,,,,,,,,,,,,,,,,,,,,,,,,,,,,,,,,,,,,,,,,,,,,,,,,,,,
,,,,,,6,0,6,0,1,X V Q F H G B L J M P D K C T S W R N Z,603d3ff5158dc4c2130d811e,19,Kobieta,2022-06-11_09h02.04.221,task,2021.1.4,Win32,59.94844434,6299f149e92ead563fba08ef,62a43ddc847e3ec0bad8608d,,,,,,,,,,,,,,,,,,,,,,,,,,,,,,,,,,,,,,,,,,,,,,,,,,,,,,,,,,,,,,,,,,,,,,,,,,,,,,,,,,,,,,,,,,,,,,,,,,,,,
,,,,,,,,,,,,603d3ff5158dc4c2130d811e,19,Kobieta,2022-06-11_09h02.04.221,task,2021.1.4,Win32,59.94844434,6299f149e92ead563fba08ef,62a43ddc847e3ec0bad8608d,kxrxhqr,"[""k"",""x"",""r"",""x"",""h"",""q"",""r""]","[1.7259000000059643,2.359700000002988,2.866700000002993,3.6377000000029796,5.2017000000029725,6.052800000004481,6.263600000001503,7.450700000002996]",0,HXRXQHR,12,0,12,0,1,,,,,,,,,,,,,,,,,,,,,,,,,,,,,,,,,,,,,,,,,,,,,,,,,,,,,,,,,,,,,,,,,,,,,,,,,,,,,,,,,,,,,,,,,,,
,,,,,,0,0,0,0,1,X V Q F H G B L J M P D K C T S W R N Z,603d3ff5158dc4c2130d811e,19,Kobieta,2022-06-11_09h02.04.221,task,2021.1.4,Win32,59.94844434,6299f149e92ead563fba08ef,62a43ddc847e3ec0bad8608d,,,,,,,,,,,,,,,,,,,,,,,,,,,,,,,,,,,,,,,,,,,,,,,,,,,,,,,,,,,,,,,,,,,,,,,,,,,,,,,,,,,,,,,,,,,,,,,,,,,,,
,,,,,,1,0,1,0,1,X V Q F H G B L J M P D K C T S W R N Z,603d3ff5158dc4c2130d811e,19,Kobieta,2022-06-11_09h02.04.221,task,2021.1.4,Win32,59.94844434,6299f149e92ead563fba08ef,62a43ddc847e3ec0bad8608d,,,,,,,,,,,,,,,,,,,,,,,,,,,,,,,,,,,,,,,,,,,,,,,,,,,,,,,,,,,,,,,,,,,,,,,,,,,,,,,,,,,,,,,,,,,,,,,,,,,,,
,,,,,,2,0,2,0,1,X V Q F H G B L J M P D K C T S W R N Z,603d3ff5158dc4c2130d811e,19,Kobieta,2022-06-11_09h02.04.221,task,2021.1.4,Win32,59.94844434,6299f149e92ead563fba08ef,62a43ddc847e3ec0bad8608d,,,,,,,,,,,,,,,,,,,,,,,,,,,,,,,,,,,,,,,,,,,,,,,,,,,,,,,,,,,,,,,,,,,,,,,,,,,,,,,,,,,,,,,,,,,,,,,,,,,,,
,,,,,,3,0,3,0,1,X V Q F H G B L J M P D K C T S W R N Z,603d3ff5158dc4c2130d811e,19,Kobieta,2022-06-11_09h02.04.221,task,2021.1.4,Win32,59.94844434,6299f149e92ead563fba08ef,62a43ddc847e3ec0bad8608d,,,,,,,,,,,,,,,,,,,,,,,,,,,,,,,,,,,,,,,,,,,,,,,,,,,,,,,,,,,,,,,,,,,,,,,,,,,,,,,,,,,,,,,,,,,,,,,,,,,,,
,,,,,,4,0,4,0,1,X V Q F H G B L J M P D K C T S W R N Z,603d3ff5158dc4c2130d811e,19,Kobieta,2022-06-11_09h02.04.221,task,2021.1.4,Win32,59.94844434,6299f149e92ead563fba08ef,62a43ddc847e3ec0bad8608d,,,,,,,,,,,,,,,,,,,,,,,,,,,,,,,,,,,,,,,,,,,,,,,,,,,,,,,,,,,,,,,,,,,,,,,,,,,,,,,,,,,,,,,,,,,,,,,,,,,,,
,,,,,,5,0,5,0,1,X V Q F H G B L J M P D K C T S W R N Z,603d3ff5158dc4c2130d811e,19,Kobieta,2022-06-11_09h02.04.221,task,2021.1.4,Win32,59.94844434,6299f149e92ead563fba08ef,62a43ddc847e3ec0bad8608d,,,,,,,,,,,,,,,,,,,,,,,,,,,,,,,,,,,,,,,,,,,,,,,,,,,,,,,,,,,,,,,,,,,,,,,,,,,,,,,,,,,,,,,,,,,,,,,,,,,,,
,,,,,,6,0,6,0,1,X V Q F H G B L J M P D K C T S W R N Z,603d3ff5158dc4c2130d811e,19,Kobieta,2022-06-11_09h02.04.221,task,2021.1.4,Win32,59.94844434,6299f149e92ead563fba08ef,62a43ddc847e3ec0bad8608d,,,,,,,,,,,,,,,,,,,,,,,,,,,,,,,,,,,,,,,,,,,,,,,,,,,,,,,,,,,,,,,,,,,,,,,,,,,,,,,,,,,,,,,,,,,,,,,,,,,,,
,,,,,,,,,,,,603d3ff5158dc4c2130d811e,19,Kobieta,2022-06-11_09h02.04.221,task,2021.1.4,Win32,59.94844434,6299f149e92ead563fba08ef,62a43ddc847e3ec0bad8608d,rwfqnkbv,"[""r"",""w"",""f"",""q"",""n"",""k"",""b"",""v""]","[1.9638999999985458,2.288699999995572,2.733799999997018,3.3450000000000273,3.6698999999985062,5.262799999997014,5.702799999997012,6.7357999999970275,7.562799999997026]",0,WFQNKBV,13,0,13,0,1,,,,,,,,,,,,,,,,,,,,,,,,,,,,,,,,,,,,,,,,,,,,,,,,,,,,,,,,,,,,,,,,,,,,,,,,,,,,,,,,,,,,,,,,,,,
,,,,,,,,,,,,603d3ff5158dc4c2130d811e,19,Kobieta,2022-06-11_09h02.04.221,task,2021.1.4,Win32,59.94844434,6299f149e92ead563fba08ef,62a43ddc847e3ec0bad8608d,,,,,,,,,,,space,23.2489,4,"[""4""]",1,[3.5797999999970216],[3.5797999999970216],0,0,0,4,1,Practice,5,(2x6) - 8,4,,,,,,,,,,,,,,,,,,,,,,,,,,,,,,,,,,,,,,,,,,,,,,,,,,,,,,,,,,,,,,,,,,,,,,,,,,,
,,,,,,,,,,,,603d3ff5158dc4c2130d811e,19,Kobieta,2022-06-11_09h02.04.221,task,2021.1.4,Win32,59.94844434,6299f149e92ead563fba08ef,62a43ddc847e3ec0bad8608d,,,,,,,,,,,,,7,"[""7""]",1,[3.3676000000014596],"[3.5797999999970216,3.3676000000014596]",0,1,1,7,1,Practice,8,(5x5) - 18,7,,,,,,,,,,,,,,,,,,,,,,,,,,,,,,,,,,,,,,,,,,,,,,,,,,,,,,,,,,,,,,,,,,,,,,,,,,,
,,,,,,,,,,,,603d3ff5158dc4c2130d811e,19,Kobieta,2022-06-11_09h02.04.221,task,2021.1.4,Win32,59.94844434,6299f149e92ead563fba08ef,62a43ddc847e3ec0bad8608d,,,,,,,,,,,,,5,"[""5""]",1,[2.7566000000014697],"[3.5797999999970216,3.3676000000014596,2.7566000000014697]",0,2,2,5,1,Practice,6,(4/2) + 3,5,,,,,,,,,,,,,,,,,,,,,,,,,,,,,,,,,,,,,,,,,,,,,,,,,,,,,,,,,,,,,,,,,,,,,,,,,,,
,,,,,,,,,,,,603d3ff5158dc4c2130d811e,19,Kobieta,2022-06-11_09h02.04.221,task,2021.1.4,Win32,59.94844434,6299f149e92ead563fba08ef,62a43ddc847e3ec0bad8608d,,,,,,,,,,,,,8,"[""8""]",1,[2.4727000000029875],"[3.5797999999970216,3.3676000000014596,2.7566000000014697,2.4727000000029875]",0,3,3,8,1,Practice,9,(3x3) - 1,8,,,,,,,,,,,,,,,,,,,,,,,,,,,,,,,,,,,,,,,,,,,,,,,,,,,,,,,,,,,,,,,,,,,,,,,,,,,
,,,,,,,,,,,,603d3ff5158dc4c2130d811e,19,Kobieta,2022-06-11_09h02.04.221,task,2021.1.4,Win32,59.94844434,6299f149e92ead563fba08ef,62a43ddc847e3ec0bad8608d,,,,,,,,,,,,,9,"[""9""]",1,[2.267499999999984],"[3.5797999999970216,3.3676000000014596,2.7566000000014697,2.4727000000029875,2.267499999999984]",0,4,4,9,1,Practice,10,(20/2) - 1,9,,,,,,,,,,,,,,,,,,,,,,,,,,,,,,,,,,,,,,,,,,,,,,,,,,,,,,,,,,,,,,,,,,,,,,,,,,,
,,,,,,,,,,,,603d3ff5158dc4c2130d811e,19,Kobieta,2022-06-11_09h02.04.221,task,2021.1.4,Win32,59.94844434,6299f149e92ead563fba08ef,62a43ddc847e3ec0bad8608d,,,,,,,,,,,,,0,"[""0""]",1,[1.8611000000014997],"[3.5797999999970216,3.3676000000014596,2.7566000000014697,2.4727000000029875,2.267499999999984,1.8611000000014997]",0,5,5,0,1,Practice,1,(3x3) -  9,0,,,,,,,,,,,,,,,,,,,,,,,,,,,,,,,,,,,,,,,,,,,,,,,,,,,,,,,,,,,,,,,,,,,,,,,,,,,
,,,,,,,,,,,,603d3ff5158dc4c2130d811e,19,Kobieta,2022-06-11_09h02.04.221,task,2021.1.4,Win32,59.94844434,6299f149e92ead563fba08ef,62a43ddc847e3ec0bad8608d,,,,,,,,,,,,,3,"[""3""]",1,[1.9707999999970411],"[3.5797999999970216,3.3676000000014596,2.7566000000014697,2.4727000000029875,2.267499999999984,1.8611000000014997,1.9707999999970411]",0,6,6,3,1,Practice,4,(8/4) + 1,3,,,,,,,,,,,,,,,,,,,,,,,,,,,,,,,,,,,,,,,,,,,,,,,,,,,,,,,,,,,,,,,,,,,,,,,,,,,
,,,,,,,,,,,,603d3ff5158dc4c2130d811e,19,Kobieta,2022-06-11_09h02.04.221,task,2021.1.4,Win32,59.94844434,6299f149e92ead563fba08ef,62a43ddc847e3ec0bad8608d,,,,,,,,,,,,,6,"[""6""]",1,[2.1854999999999905],"[3.5797999999970216,3.3676000000014596,2.7566000000014697,2.4727000000029875,2.267499999999984,1.8611000000014997,1.9707999999970411,2.1854999999999905]",0,7,7,6,1,Practice,7,(25/5) + 1,6,,,,,,,,,,,,,,,,,,,,,,,,,,,,,,,,,,,,,,,,,,,,,,,,,,,,,,,,,,,,,,,,,,,,,,,,,,,
,,,,,,,,,,,,603d3ff5158dc4c2130d811e,19,Kobieta,2022-06-11_09h02.04.221,task,2021.1.4,Win32,59.94844434,6299f149e92ead563fba08ef,62a43ddc847e3ec0bad8608d,,,,,,,,,,,,,1,"[""1""]",1,[1.9088000000044758],"[3.5797999999970216,3.3676000000014596,2.7566000000014697,2.4727000000029875,2.267499999999984,1.8611000000014997,1.9707999999970411,2.1854999999999905,1.9088000000044758]",0,8,8,1,1,Practice,2,(4x4) - 15,1,,,,,,,,,,,,,,,,,,,,,,,,,,,,,,,,,,,,,,,,,,,,,,,,,,,,,,,,,,,,,,,,,,,,,,,,,,,
,,,,,,,,,,,,603d3ff5158dc4c2130d811e,19,Kobieta,2022-06-11_09h02.04.221,task,2021.1.4,Win32,59.94844434,6299f149e92ead563fba08ef,62a43ddc847e3ec0bad8608d,,,,,,,,,,,,,2,"[""2""]",1,[1.9958999999984712],"[3.5797999999970216,3.3676000000014596,2.7566000000014697,2.4727000000029875,2.267499999999984,1.8611000000014997,1.9707999999970411,2.1854999999999905,1.9088000000044758,1.9958999999984712]",0,9,9,2,1,Practice,3,(4x4) - 14,2,,,,,,,,,,,,,,,,,,,,,,,,,,,,,,,,,,,,,,,,,,,,,,,,,,,,,,,,,,,,,,,,,,,,,,,,,,,
,,,,,,,,,,,,603d3ff5158dc4c2130d811e,19,Kobieta,2022-06-11_09h02.04.221,task,2021.1.4,Win32,59.94844434,6299f149e92ead563fba08ef,62a43ddc847e3ec0bad8608d,,,,,,,,,,,,,,,,,,,,,,,,,,,1,24.3663,1.62442,9.986826522,0.815958599,3.729593185,space,49.3442,0,0,0,0,1,,,,,,,,,,,,,,,,,,,,,,,,,,,,,,,,,,,,,,,,,,,,,,,,,,,,,,,,,,,,,,
,,,,,,,,,,,,603d3ff5158dc4c2130d811e,19,Kobieta,2022-06-11_09h02.04.221,task,2021.1.4,Win32,59.94844434,6299f149e92ead563fba08ef,62a43ddc847e3ec0bad8608d,,,,,,,,,,,,,0,,,,,,,,,,Practice,1,(3x3) -  9,0,,,,,,,,,,,,,,space,20.2765,"[""0""]",1,[1.6862000000029411],1,0,0,0,0,1,,,,,,,,,,,,,,,,,,,,,,,,,,,,,,,,,,,,,,,,,,,,,,,,,,,
,,,,,,,,,,,X V Q F H G B L J M P D K C T S W R N Z,603d3ff5158dc4c2130d811e,19,Kobieta,2022-06-11_09h02.04.221,task,2021.1.4,Win32,59.94844434,6299f149e92ead563fba08ef,62a43ddc847e3ec0bad8608d,,,,,,,,,,,,,,,,,,,,,,,,,,,,,,,,,,,,,,,,,,,,,,,,,,,0,0,0,0,1,,,,,,,,,,,,,,,,,,,,,,,,,,,,,,,,,,,,,,,,,,,,,,
,,,,,,,,,,,,603d3ff5158dc4c2130d811e,19,Kobieta,2022-06-11_09h02.04.221,task,2021.1.4,Win32,59.94844434,6299f149e92ead563fba08ef,62a43ddc847e3ec0bad8608d,,,,,,,,,,,,,,,,,,,,,,,Practice,8,(5x5) - 18,7,,,,,,,,,,,,,,,,,0,,0,0,0,0,7,1,,,,,,,,,,,,,,,,,,,,,,,,,,,,,,,,,,,,,,,,,,,,,,,,,,,
,,,,,,,,,,,,603d3ff5158dc4c2130d811e,19,Kobieta,2022-06-11_09h02.04.221,task,2021.1.4,Win32,59.94844434,6299f149e92ead563fba08ef,62a43ddc847e3ec0bad8608d,,,,,,,,,,,,,0,,,,,,,,,,Practice,1,(3x3) -  9,0,,,,,,,,,,,,,,,,"[""0""]",1,[1.1512999999970361],1,0,1,1,0,1,,,,,,,,,,,,,,,,,,,,,,,,,,,,,,,,,,,,,,,,,,,,,,,,,,,
,,,,,,,,,,,X V Q F H G B L J M P D K C T S W R N Z,603d3ff5158dc4c2130d811e,19,Kobieta,2022-06-11_09h02.04.221,task,2021.1.4,Win32,59.94844434,6299f149e92ead563fba08ef,62a43ddc847e3ec0bad8608d,,,,,,,,,,,,,,,,,,,,,,,,,,,,,,,,,,,,,,,,,,,,,,,,,,,1,0,1,0,1,,,,,,,,,,,,,,,,,,,,,,,,,,,,,,,,,,,,,,,,,,,,,,
,,,,,,,,,,,,603d3ff5158dc4c2130d811e,19,Kobieta,2022-06-11_09h02.04.221,task,2021.1.4,Win32,59.94844434,6299f149e92ead563fba08ef,62a43ddc847e3ec0bad8608d,,,,,,,,,,,,,,,,,,,,,,,,,,,,,,,,,,,,,,,,,,,,,,,,,,,,,,,,zx,"[""z"",""x""]",0,"[2.283399999998551,2.6543999999985317,3.8525000000000205]",1,0,0,0,0,1,,,,,,,,,,,,,,,,,,,,,,,,,,,,,,,,,,,,
,,,,,,,,,,,,603d3ff5158dc4c2130d811e,19,Kobieta,2022-06-11_09h02.04.221,task,2021.1.4,Win32,59.94844434,6299f149e92ead563fba08ef,62a43ddc847e3ec0bad8608d,,,,,,,,,,,,,4,,,,,,,,,,Practice,5,(2x6) - 8,4,,,,,,,,,,,,,,,,"[""4""]",1,[1.8448999999985176],1,0,0,0,4,1,,,,,,,,,,,,,,,,,,,,,,,,,,,,,,,,,,,,,,,,,,,,,,,,,,,
,,,,,,,,,,,X V Q F H G B L J M P D K C T S W R N Z,603d3ff5158dc4c2130d811e,19,Kobieta,2022-06-11_09h02.04.221,task,2021.1.4,Win32,59.94844434,6299f149e92ead563fba08ef,62a43ddc847e3ec0bad8608d,,,,,,,,,,,,,,,,,,,,,,,,,,,,,,,,,,,,,,,,,,,,,,,,,,,0,0,0,0,1,,,,,,,,,,,,,,,,,,,,,,,,,,,,,,,,,,,,,,,,,,,,,,
,,,,,,,,,,,,603d3ff5158dc4c2130d811e,19,Kobieta,2022-06-11_09h02.04.221,task,2021.1.4,Win32,59.94844434,6299f149e92ead563fba08ef,62a43ddc847e3ec0bad8608d,,,,,,,,,,,,,0,,,,,,,,,,Practice,1,(3x3) -  9,0,,,,,,,,,,,,,,,,"[""0""]",1,[1.3416999999955124],1,0,0,0,0,1,,,,,,,,,,,,,,,,,,,,,,,,,,,,,,,,,,,,,,,,,,,,,,,,,,,
,,,,,,,,,,,X V Q F H G B L J M P D K C T S W R N Z,603d3ff5158dc4c2130d811e,19,Kobieta,2022-06-11_09h02.04.221,task,2021.1.4,Win32,59.94844434,6299f149e92ead563fba08ef,62a43ddc847e3ec0bad8608d,,,,,,,,,,,,,,,,,,,,,,,,,,,,,,,,,,,,,,,,,,,,,,,,,,,1,0,1,0,1,,,,,,,,,,,,,,,,,,,,,,,,,,,,,,,,,,,,,,,,,,,,,,
,,,,,,,,,,,,603d3ff5158dc4c2130d811e,19,Kobieta,2022-06-11_09h02.04.221,task,2021.1.4,Win32,59.94844434,6299f149e92ead563fba08ef,62a43ddc847e3ec0bad8608d,,,,,,,,,,,,,,,,,,,,,,,,,,,,,,,,,,,,,,,,,,,,,,,,,,,,,,,,zs,"[""z"",""s""]",0,"[1.8616999999954942,2.1527999999970007,2.957699999995498]",1,1,0,1,0,1,,,,,,,,,,,,,,,,,,,,,,,,,,,,,,,,,,,,
,,,,,,,,,,,,603d3ff5158dc4c2130d811e,19,Kobieta,2022-06-11_09h02.04.221,task,2021.1.4,Win32,59.94844434,6299f149e92ead563fba08ef,62a43ddc847e3ec0bad8608d,,,,,,,,,,,,,9,,,,,,,,,,Practice,10,(20/2) - 1,9,,,,,,,,,,,,,,,,"[""9""]",1,[1.6052000000029807],1,0,0,0,9,1,,,,,,,,,,,,,,,,,,,,,,,,,,,,,,,,,,,,,,,,,,,,,,,,,,,
,,,,,,,,,,,X V Q F H G B L J M P D K C T S W R N Z,603d3ff5158dc4c2130d811e,19,Kobieta,2022-06-11_09h02.04.221,task,2021.1.4,Win32,59.94844434,6299f149e92ead563fba08ef,62a43ddc847e3ec0bad8608d,,,,,,,,,,,,,,,,,,,,,,,,,,,,,,,,,,,,,,,,,,,,,,,,,,,0,0,0,0,1,,,,,,,,,,,,,,,,,,,,,,,,,,,,,,,,,,,,,,,,,,,,,,
,,,,,,,,,,,,603d3ff5158dc4c2130d811e,19,Kobieta,2022-06-11_09h02.04.221,task,2021.1.4,Win32,59.94844434,6299f149e92ead563fba08ef,62a43ddc847e3ec0bad8608d,,,,,,,,,,,,,4,,,,,,,,,,Practice,5,(2x6) - 8,4,,,,,,,,,,,,,,,,"[""4""]",1,[1.8022999999970466],1,0,0,0,4,1,,,,,,,,,,,,,,,,,,,,,,,,,,,,,,,,,,,,,,,,,,,,,,,,,,,
,,,,,,,,,,,X V Q F H G B L J M P D K C T S W R N Z,603d3ff5158dc4c2130d811e,19,Kobieta,2022-06-11_09h02.04.221,task,2021.1.4,Win32,59.94844434,6299f149e92ead563fba08ef,62a43ddc847e3ec0bad8608d,,,,,,,,,,,,,,,,,,,,,,,,,,,,,,,,,,,,,,,,,,,,,,,,,,,1,0,1,0,1,,,,,,,,,,,,,,,,,,,,,,,,,,,,,,,,,,,,,,,,,,,,,,
,,,,,,,,,,,,603d3ff5158dc4c2130d811e,19,Kobieta,2022-06-11_09h02.04.221,task,2021.1.4,Win32,59.94844434,6299f149e92ead563fba08ef,62a43ddc847e3ec0bad8608d,,,,,,,,,,,,,,,,,,,,,,,,,,,,,,,,,,,,,,,,,,,,,,,,,,,,,,,,hl,"[""h"",""l""]",0,"[2.6311999999955447,3.0652999999970234,3.893199999995545]",1,2,0,2,0,1,,,,,,,,,,,,,,,,,,,,,,,,,,,,,,,,,,,,
,,,,,,,,,,,,603d3ff5158dc4c2130d811e,19,Kobieta,2022-06-11_09h02.04.221,task,2021.1.4,Win32,59.94844434,6299f149e92ead563fba08ef,62a43ddc847e3ec0bad8608d,,,,,,,,,,,,,9,,,,,,,,,,Task,40,(7x2) - 5,9,,,,,,,,,,,,,,,,,,,1,,,,,,,,,,,,,,,,,,,,,space,38.1973,"[""9""]",1,[1.9995000000000118],0,0,0,39,1,,,,,,,,,,,,,,,,,,,,,,,,,,
,,,,,,,,,,,X V Q F H G B L J M P D K C T S W R N Z,603d3ff5158dc4c2130d811e,19,Kobieta,2022-06-11_09h02.04.221,task,2021.1.4,Win32,59.94844434,6299f149e92ead563fba08ef,62a43ddc847e3ec0bad8608d,,,,,,,,,,,,,,,,,,,,,,,,,,,,,,,,,,,,,,,,,,,,,,,,,,,,,,,,,,,,,,,,,,,,,,,,,,,,0,0,0,0,1,,,,,,,,,,,,,,,,,,,,,
,,,,,,,,,,,,603d3ff5158dc4c2130d811e,19,Kobieta,2022-06-11_09h02.04.221,task,2021.1.4,Win32,59.94844434,6299f149e92ead563fba08ef,62a43ddc847e3ec0bad8608d,,,,,,,,,,,,,3,,,,,,,,,,Task,20,(18/9) + 1,3,,,,,,,,,,,,,,,,,,,1,,,,,,,,,,,,,,,,,,,,,,,"[""3""]",1,[1.999599999994075],0,0,0,19,1,,,,,,,,,,,,,,,,,,,,,,,,,,
,,,,,,,,,,,X V Q F H G B L J M P D K C T S W R N Z,603d3ff5158dc4c2130d811e,19,Kobieta,2022-06-11_09h02.04.221,task,2021.1.4,Win32,59.94844434,6299f149e92ead563fba08ef,62a43ddc847e3ec0bad8608d,,,,,,,,,,,,,,,,,,,,,,,,,,,,,,,,,,,,,,,,,,,,,,,,,,,,,,,,,,,,,,,,,,,,,,,,,,,,1,0,1,0,1,,,,,,,,,,,,,,,,,,,,,
,,,,,,,,,,,,603d3ff5158dc4c2130d811e,19,Kobieta,2022-06-11_09h02.04.221,task,2021.1.4,Win32,59.94844434,6299f149e92ead563fba08ef,62a43ddc847e3ec0bad8608d,,,,,,,,,,,,,,,,,,,,,,,,,,,,,,,,,,,,,,,,,,,,,,,,,,,,,,,,,,,,,,,,,,,,,,,,,,,,,,,,,zv,"[""z"",""v""]",0,"[1.4857999999969707,1.691600000001472,3.7869999999999777]",1,ZV,0,0,0,0,1,,,,,,,,,,
,,,,,,,,,,,,603d3ff5158dc4c2130d811e,19,Kobieta,2022-06-11_09h02.04.221,task,2021.1.4,Win32,59.94844434,6299f149e92ead563fba08ef,62a43ddc847e3ec0bad8608d,,,,,,,,,,,,,1,,,,,,,,,,Task,34,(9/3) - 2,1,,,,,,,,,,,,,,,,,,,1,,,,,,,,,,,,,,,,,,,,,,,"[""1""]",1,[1.6943000000044321],0,0,0,33,1,,,,,,,,,,,,,,,,,,,,,,,,,,
,,,,,,,,,,,X V Q F H G B L J M P D K C T S W R N Z,603d3ff5158dc4c2130d811e,19,Kobieta,2022-06-11_09h02.04.221,task,2021.1.4,Win32,59.94844434,6299f149e92ead563fba08ef,62a43ddc847e3ec0bad8608d,,,,,,,,,,,,,,,,,,,,,,,,,,,,,,,,,,,,,,,,,,,,,,,,,,,,,,,,,,,,,,,,,,,,,,,,,,,,0,0,0,0,1,,,,,,,,,,,,,,,,,,,,,
,,,,,,,,,,,,603d3ff5158dc4c2130d811e,19,Kobieta,2022-06-11_09h02.04.221,task,2021.1.4,Win32,59.94844434,6299f149e92ead563fba08ef,62a43ddc847e3ec0bad8608d,,,,,,,,,,,,,3,,,,,,,,,,Task,20,(18/9) + 1,3,,,,,,,,,,,,,,,,,,,1,,,,,,,,,,,,,,,,,,,,,,,"[""3""]",1,[1.8220000000000027],0,0,0,19,1,,,,,,,,,,,,,,,,,,,,,,,,,,
,,,,,,,,,,,X V Q F H G B L J M P D K C T S W R N Z,603d3ff5158dc4c2130d811e,19,Kobieta,2022-06-11_09h02.04.221,task,2021.1.4,Win32,59.94844434,6299f149e92ead563fba08ef,62a43ddc847e3ec0bad8608d,,,,,,,,,,,,,,,,,,,,,,,,,,,,,,,,,,,,,,,,,,,,,,,,,,,,,,,,,,,,,,,,,,,,,,,,,,,,1,0,1,0,1,,,,,,,,,,,,,,,,,,,,,
,,,,,,,,,,,,603d3ff5158dc4c2130d811e,19,Kobieta,2022-06-11_09h02.04.221,task,2021.1.4,Win32,59.94844434,6299f149e92ead563fba08ef,62a43ddc847e3ec0bad8608d,,,,,,,,,,,,,1,,,,,,,,,,Task,18,(16/4) - 3,1,,,,,,,,,,,,,,,,,,,1,,,,,,,,,,,,,,,,,,,,,,,"[""1""]",1,[2.175199999995584],0,0,0,17,1,,,,,,,,,,,,,,,,,,,,,,,,,,
,,,,,,,,,,,X V Q F H G B L J M P D K C T S W R N Z,603d3ff5158dc4c2130d811e,19,Kobieta,2022-06-11_09h02.04.221,task,2021.1.4,Win32,59.94844434,6299f149e92ead563fba08ef,62a43ddc847e3ec0bad8608d,,,,,,,,,,,,,,,,,,,,,,,,,,,,,,,,,,,,,,,,,,,,,,,,,,,,,,,,,,,,,,,,,,,,,,,,,,,,2,0,2,0,1,,,,,,,,,,,,,,,,,,,,,
,,,,,,,,,,,,603d3ff5158dc4c2130d811e,19,Kobieta,2022-06-11_09h02.04.221,task,2021.1.4,Win32,59.94844434,6299f149e92ead563fba08ef,62a43ddc847e3ec0bad8608d,,,,,,,,,,,,,,,,,,,,,,,,,,,,,,,,,,,,,,,,,,,,,,,,,,,,,,,,,,,,,,,,,,,,,,,,,,,,,,,,,bmc,"[""b"",""m"",""c""]",0,"[4.229900000005955,4.7718000000044185,4.938200000002894,6.341900000005921]",1,BMC,1,0,1,0,1,,,,,,,,,,
,,,,,,,,,,,,603d3ff5158dc4c2130d811e,19,Kobieta,2022-06-11_09h02.04.221,task,2021.1.4,Win32,59.94844434,6299f149e92ead563fba08ef,62a43ddc847e3ec0bad8608d,,,,,,,,,,,,,7,,,,,,,,,,Task,6,(12/2) + 1,7,,,,,,,,,,,,,,,,,,,1,,,,,,,,,,,,,,,,,,,,,,,"[""7""]",1,[1.7705000000000837],0,0,0,5,1,,,,,,,,,,,,,,,,,,,,,,,,,,
,,,,,,,,,,,X V Q F H G B L J M P D K C T S W R N Z,603d3ff5158dc4c2130d811e,19,Kobieta,2022-06-11_09h02.04.221,task,2021.1.4,Win32,59.94844434,6299f149e92ead563fba08ef,62a43ddc847e3ec0bad8608d,,,,,,,,,,,,,,,,,,,,,,,,,,,,,,,,,,,,,,,,,,,,,,,,,,,,,,,,,,,,,,,,,,,,,,,,,,,,0,0,0,0,1,,,,,,,,,,,,,,,,,,,,,
,,,,,,,,,,,,603d3ff5158dc4c2130d811e,19,Kobieta,2022-06-11_09h02.04.221,task,2021.1.4,Win32,59.94844434,6299f149e92ead563fba08ef,62a43ddc847e3ec0bad8608d,,,,,,,,,,,,,7,,,,,,,,,,Task,31,(4/2) + 5,7,,,,,,,,,,,,,,,,,,,1,,,,,,,,,,,,,,,,,,,,,,,"[""7""]",1,[1.8094999999999573],0,0,0,30,1,,,,,,,,,,,,,,,,,,,,,,,,,,
,,,,,,,,,,,X V Q F H G B L J M P D K C T S W R N Z,603d3ff5158dc4c2130d811e,19,Kobieta,2022-06-11_09h02.04.221,task,2021.1.4,Win32,59.94844434,6299f149e92ead563fba08ef,62a43ddc847e3ec0bad8608d,,,,,,,,,,,,,,,,,,,,,,,,,,,,,,,,,,,,,,,,,,,,,,,,,,,,,,,,,,,,,,,,,,,,,,,,,,,,1,0,1,0,1,,,,,,,,,,,,,,,,,,,,,
,,,,,,,,,,,,603d3ff5158dc4c2130d811e,19,Kobieta,2022-06-11_09h02.04.221,task,2021.1.4,Win32,59.94844434,6299f149e92ead563fba08ef,62a43ddc847e3ec0bad8608d,,,,,,,,,,,,,1,,,,,,,,,,Task,1,(12/6) - 1,1,,,,,,,,,,,,,,,,,,,1,,,,,,,,,,,,,,,,,,,,,,,"[""1""]",1,[2.419699999995487],0,0,0,0,1,,,,,,,,,,,,,,,,,,,,,,,,,,
,,,,,,,,,,,X V Q F H G B L J M P D K C T S W R N Z,603d3ff5158dc4c2130d811e,19,Kobieta,2022-06-11_09h02.04.221,task,2021.1.4,Win32,59.94844434,6299f149e92ead563fba08ef,62a43ddc847e3ec0bad8608d,,,,,,,,,,,,,,,,,,,,,,,,,,,,,,,,,,,,,,,,,,,,,,,,,,,,,,,,,,,,,,,,,,,,,,,,,,,,2,0,2,0,1,,,,,,,,,,,,,,,,,,,,,
,,,,,,,,,,,,603d3ff5158dc4c2130d811e,19,Kobieta,2022-06-11_09h02.04.221,task,2021.1.4,Win32,59.94844434,6299f149e92ead563fba08ef,62a43ddc847e3ec0bad8608d,,,,,,,,,,,,,4,,,,,,,,,,Task,11,(18/3) - 2,4,,,,,,,,,,,,,,,,,,,1,,,,,,,,,,,,,,,,,,,,,,,"[""4""]",1,[2.9442000000029793],0,0,0,10,1,,,,,,,,,,,,,,,,,,,,,,,,,,
,,,,,,,,,,,X V Q F H G B L J M P D K C T S W R N Z,603d3ff5158dc4c2130d811e,19,Kobieta,2022-06-11_09h02.04.221,task,2021.1.4,Win32,59.94844434,6299f149e92ead563fba08ef,62a43ddc847e3ec0bad8608d,,,,,,,,,,,,,,,,,,,,,,,,,,,,,,,,,,,,,,,,,,,,,,,,,,,,,,,,,,,,,,,,,,,,,,,,,,,,3,0,3,0,1,,,,,,,,,,,,,,,,,,,,,
,,,,,,,,,,,,603d3ff5158dc4c2130d811e,19,Kobieta,2022-06-11_09h02.04.221,task,2021.1.4,Win32,59.94844434,6299f149e92ead563fba08ef,62a43ddc847e3ec0bad8608d,,,,,,,,,,,,,,,,,,,,,,,,,,,,,,,,,,,,,,,,,,,,,,,,,,,,,,,,,,,,,,,,,,,,,,,,,,,,,,,,,crcv,"[""c"",""r"",""c"",""v""]",0,"[2.187599999994063,7.691399999998566,8.119500000000016,8.456399999998553,10.482399999998506]",1,CRCV,2,0,2,0,1,,,,,,,,,,
,,,,,,,,,,,,603d3ff5158dc4c2130d811e,19,Kobieta,2022-06-11_09h02.04.221,task,2021.1.4,Win32,59.94844434,6299f149e92ead563fba08ef,62a43ddc847e3ec0bad8608d,,,,,,,,,,,,,9,,,,,,,,,,Task,24,(2x2) + 5,9,,,,,,,,,,,,,,,,,,,1,,,,,,,,,,,,,,,,,,,,,,,"[""9""]",1,[2.0307999999970434],0,0,0,23,1,,,,,,,,,,,,,,,,,,,,,,,,,,
,,,,,,,,,,,X V Q F H G B L J M P D K C T S W R N Z,603d3ff5158dc4c2130d811e,19,Kobieta,2022-06-11_09h02.04.221,task,2021.1.4,Win32,59.94844434,6299f149e92ead563fba08ef,62a43ddc847e3ec0bad8608d,,,,,,,,,,,,,,,,,,,,,,,,,,,,,,,,,,,,,,,,,,,,,,,,,,,,,,,,,,,,,,,,,,,,,,,,,,,,0,0,0,0,1,,,,,,,,,,,,,,,,,,,,,
,,,,,,,,,,,,603d3ff5158dc4c2130d811e,19,Kobieta,2022-06-11_09h02.04.221,task,2021.1.4,Win32,59.94844434,6299f149e92ead563fba08ef,62a43ddc847e3ec0bad8608d,,,,,,,,,,,,,0,,,,,,,,,,Task,8,(1x5) - 5,0,,,,,,,,,,,,,,,,,,,1,,,,,,,,,,,,,,,,,,,,,,,"[""0""]",1,[1.801700000003052],0,0,0,7,1,,,,,,,,,,,,,,,,,,,,,,,,,,
,,,,,,,,,,,X V Q F H G B L J M P D K C T S W R N Z,603d3ff5158dc4c2130d811e,19,Kobieta,2022-06-11_09h02.04.221,task,2021.1.4,Win32,59.94844434,6299f149e92ead563fba08ef,62a43ddc847e3ec0bad8608d,,,,,,,,,,,,,,,,,,,,,,,,,,,,,,,,,,,,,,,,,,,,,,,,,,,,,,,,,,,,,,,,,,,,,,,,,,,,1,0,1,0,1,,,,,,,,,,,,,,,,,,,,,
,,,,,,,,,,,,603d3ff5158dc4c2130d811e,19,Kobieta,2022-06-11_09h02.04.221,task,2021.1.4,Win32,59.94844434,6299f149e92ead563fba08ef,62a43ddc847e3ec0bad8608d,,,,,,,,,,,,,4,,,,,,,,,,Task,21,(10/2) - 1,4,,,,,,,,,,,,,,,,,,,1,,,,,,,,,,,,,,,,,,,,,,,"[""4""]",1,[1.538300000004483],0,0,0,20,1,,,,,,,,,,,,,,,,,,,,,,,,,,
,,,,,,,,,,,X V Q F H G B L J M P D K C T S W R N Z,603d3ff5158dc4c2130d811e,19,Kobieta,2022-06-11_09h02.04.221,task,2021.1.4,Win32,59.94844434,6299f149e92ead563fba08ef,62a43ddc847e3ec0bad8608d,,,,,,,,,,,,,,,,,,,,,,,,,,,,,,,,,,,,,,,,,,,,,,,,,,,,,,,,,,,,,,,,,,,,,,,,,,,,2,0,2,0,1,,,,,,,,,,,,,,,,,,,,,
,,,,,,,,,,,,603d3ff5158dc4c2130d811e,19,Kobieta,2022-06-11_09h02.04.221,task,2021.1.4,Win32,59.94844434,6299f149e92ead563fba08ef,62a43ddc847e3ec0bad8608d,,,,,,,,,,,,,2,,,,,,,,,,Task,19,(6/2) - 1,2,,,,,,,,,,,,,,,,,,,1,,,,,,,,,,,,,,,,,,,,,,,"[""2""]",1,[1.6214000000060196],0,0,0,18,1,,,,,,,,,,,,,,,,,,,,,,,,,,
,,,,,,,,,,,X V Q F H G B L J M P D K C T S W R N Z,603d3ff5158dc4c2130d811e,19,Kobieta,2022-06-11_09h02.04.221,task,2021.1.4,Win32,59.94844434,6299f149e92ead563fba08ef,62a43ddc847e3ec0bad8608d,,,,,,,,,,,,,,,,,,,,,,,,,,,,,,,,,,,,,,,,,,,,,,,,,,,,,,,,,,,,,,,,,,,,,,,,,,,,3,0,3,0,1,,,,,,,,,,,,,,,,,,,,,
,,,,,,,,,,,,603d3ff5158dc4c2130d811e,19,Kobieta,2022-06-11_09h02.04.221,task,2021.1.4,Win32,59.94844434,6299f149e92ead563fba08ef,62a43ddc847e3ec0bad8608d,,,,,,,,,,,,,,,,,,,,,,,Task,7,(3x7) - 12,9,,,,,,,,,,,,,,,,,,,0,,,,,,,,,,,,,,,,,,,,,,,,0,,0,0,0,6,1,,,,,,,,,,,,,,,,,,,,,,,,,,
,,,,,,,,,,,,603d3ff5158dc4c2130d811e,19,Kobieta,2022-06-11_09h02.04.221,task,2021.1.4,Win32,59.94844434,6299f149e92ead563fba08ef,62a43ddc847e3ec0bad8608d,,,,,,,,,,,,,1,,,,,,,,,,Task,34,(9/3) - 2,1,,,,,,,,,,,,,,,,,,,1,,,,,,,,,,,,,,,,,,,,,,,"[""1""]",1,[2.8786000000014837],0,1,1,33,1,,,,,,,,,,,,,,,,,,,,,,,,,,
,,,,,,,,,,,X V Q F H G B L J M P D K C T S W R N Z,603d3ff5158dc4c2130d811e,19,Kobieta,2022-06-11_09h02.04.221,task,2021.1.4,Win32,59.94844434,6299f149e92ead563fba08ef,62a43ddc847e3ec0bad8608d,,,,,,,,,,,,,,,,,,,,,,,,,,,,,,,,,,,,,,,,,,,,,,,,,,,,,,,,,,,,,,,,,,,,,,,,,,,,4,0,4,0,1,,,,,,,,,,,,,,,,,,,,,
,,,,,,,,,,,,603d3ff5158dc4c2130d811e,19,Kobieta,2022-06-11_09h02.04.221,task,2021.1.4,Win32,59.94844434,6299f149e92ead563fba08ef,62a43ddc847e3ec0bad8608d,,,,,,,,,,,,,,,,,,,,,,,,,,,,,,,,,,,,,,,,,,,,,,,,,,,,,,,,,,,,,,,,,,,,,,,,,,,,,,,,,lncgp,"[""l"",""n"",""c"",""g"",""p""]",0,"[2.308200000003012,3.0042000000029248,3.883200000002944,7.131200000002991,7.502200000002972,10.836300000004485]",1,LNCGP,3,0,3,0,1,,,,,,,,,,
,,,,,,,,,,,,603d3ff5158dc4c2130d811e,19,Kobieta,2022-06-11_09h02.04.221,task,2021.1.4,Win32,59.94844434,6299f149e92ead563fba08ef,62a43ddc847e3ec0bad8608d,,,,,,,,,,,,,0,,,,,,,,,,Task,17,(2x3) - 6,0,,,,,,,,,,,,,,,,,,,1,,,,,,,,,,,,,,,,,,,,,,,"[""0""]",1,[1.6739999999999782],0,0,0,16,1,,,,,,,,,,,,,,,,,,,,,,,,,,
,,,,,,,,,,,X V Q F H G B L J M P D K C T S W R N Z,603d3ff5158dc4c2130d811e,19,Kobieta,2022-06-11_09h02.04.221,task,2021.1.4,Win32,59.94844434,6299f149e92ead563fba08ef,62a43ddc847e3ec0bad8608d,,,,,,,,,,,,,,,,,,,,,,,,,,,,,,,,,,,,,,,,,,,,,,,,,,,,,,,,,,,,,,,,,,,,,,,,,,,,0,0,0,0,1,,,,,,,,,,,,,,,,,,,,,
,,,,,,,,,,,,603d3ff5158dc4c2130d811e,19,Kobieta,2022-06-11_09h02.04.221,task,2021.1.4,Win32,59.94844434,6299f149e92ead563fba08ef,62a43ddc847e3ec0bad8608d,,,,,,,,,,,,,5,,,,,,,,,,Task,38,(4x6) - 17,7,,,,,,,,,,,,,,,,,,,0,,,,,,,,,,,,,,,,,,,,,,,"[""5""]",0,[2.302600000001462],0,0,0,37,1,,,,,,,,,,,,,,,,,,,,,,,,,,
,,,,,,,,,,,,603d3ff5158dc4c2130d811e,19,Kobieta,2022-06-11_09h02.04.221,task,2021.1.4,Win32,59.94844434,6299f149e92ead563fba08ef,62a43ddc847e3ec0bad8608d,,,,,,,,,,,,,9,,,,,,,,,,Task,40,(7x2) - 5,9,,,,,,,,,,,,,,,,,,,1,,,,,,,,,,,,,,,,,,,,,,,"[""9""]",1,[1.6786000000014383],0,1,1,39,1,,,,,,,,,,,,,,,,,,,,,,,,,,
,,,,,,,,,,,X V Q F H G B L J M P D K C T S W R N Z,603d3ff5158dc4c2130d811e,19,Kobieta,2022-06-11_09h02.04.221,task,2021.1.4,Win32,59.94844434,6299f149e92ead563fba08ef,62a43ddc847e3ec0bad8608d,,,,,,,,,,,,,,,,,,,,,,,,,,,,,,,,,,,,,,,,,,,,,,,,,,,,,,,,,,,,,,,,,,,,,,,,,,,,1,0,1,0,1,,,,,,,,,,,,,,,,,,,,,
,,,,,,,,,,,,603d3ff5158dc4c2130d811e,19,Kobieta,2022-06-11_09h02.04.221,task,2021.1.4,Win32,59.94844434,6299f149e92ead563fba08ef,62a43ddc847e3ec0bad8608d,,,,,,,,,,,,,3,,,,,,,,,,Task,27,(3/3) + 2,3,,,,,,,,,,,,,,,,,,,1,,,,,,,,,,,,,,,,,,,,,,,"[""3""]",1,[2.433499999999981],0,0,0,26,1,,,,,,,,,,,,,,,,,,,,,,,,,,
,,,,,,,,,,,X V Q F H G B L J M P D K C T S W R N Z,603d3ff5158dc4c2130d811e,19,Kobieta,2022-06-11_09h02.04.221,task,2021.1.4,Win32,59.94844434,6299f149e92ead563fba08ef,62a43ddc847e3ec0bad8608d,,,,,,,,,,,,,,,,,,,,,,,,,,,,,,,,,,,,,,,,,,,,,,,,,,,,,,,,,,,,,,,,,,,,,,,,,,,,2,0,2,0,1,,,,,,,,,,,,,,,,,,,,,
,,,,,,,,,,,,603d3ff5158dc4c2130d811e,19,Kobieta,2022-06-11_09h02.04.221,task,2021.1.4,Win32,59.94844434,6299f149e92ead563fba08ef,62a43ddc847e3ec0bad8608d,,,,,,,,,,,,,1,,,,,,,,,,Task,34,(9/3) - 2,1,,,,,,,,,,,,,,,,,,,1,,,,,,,,,,,,,,,,,,,,,,,"[""1""]",1,[1.51860000000147],0,0,0,33,1,,,,,,,,,,,,,,,,,,,,,,,,,,
,,,,,,,,,,,X V Q F H G B L J M P D K C T S W R N Z,603d3ff5158dc4c2130d811e,19,Kobieta,2022-06-11_09h02.04.221,task,2021.1.4,Win32,59.94844434,6299f149e92ead563fba08ef,62a43ddc847e3ec0bad8608d,,,,,,,,,,,,,,,,,,,,,,,,,,,,,,,,,,,,,,,,,,,,,,,,,,,,,,,,,,,,,,,,,,,,,,,,,,,,3,0,3,0,1,,,,,,,,,,,,,,,,,,,,,
,,,,,,,,,,,,603d3ff5158dc4c2130d811e,19,Kobieta,2022-06-11_09h02.04.221,task,2021.1.4,Win32,59.94844434,6299f149e92ead563fba08ef,62a43ddc847e3ec0bad8608d,,,,,,,,,,,,,4,,,,,,,,,,Task,4,(1x5) - 1,4,,,,,,,,,,,,,,,,,,,1,,,,,,,,,,,,,,,,,,,,,,,"[""4""]",1,[1.4929000000059887],0,0,0,3,1,,,,,,,,,,,,,,,,,,,,,,,,,,
,,,,,,,,,,,X V Q F H G B L J M P D K C T S W R N Z,603d3ff5158dc4c2130d811e,19,Kobieta,2022-06-11_09h02.04.221,task,2021.1.4,Win32,59.94844434,6299f149e92ead563fba08ef,62a43ddc847e3ec0bad8608d,,,,,,,,,,,,,,,,,,,,,,,,,,,,,,,,,,,,,,,,,,,,,,,,,,,,,,,,,,,,,,,,,,,,,,,,,,,,4,0,4,0,1,,,,,,,,,,,,,,,,,,,,,
,,,,,,,,,,,,603d3ff5158dc4c2130d811e,19,Kobieta,2022-06-11_09h02.04.221,task,2021.1.4,Win32,59.94844434,6299f149e92ead563fba08ef,62a43ddc847e3ec0bad8608d,,,,,,,,,,,,,6,,,,,,,,,,Task,5,(2x3) + 0,6,,,,,,,,,,,,,,,,,,,1,,,,,,,,,,,,,,,,,,,,,,,"[""6""]",1,[2.0305000000000746],0,0,0,4,1,,,,,,,,,,,,,,,,,,,,,,,,,,
,,,,,,,,,,,X V Q F H G B L J M P D K C T S W R N Z,603d3ff5158dc4c2130d811e,19,Kobieta,2022-06-11_09h02.04.221,task,2021.1.4,Win32,59.94844434,6299f149e92ead563fba08ef,62a43ddc847e3ec0bad8608d,,,,,,,,,,,,,,,,,,,,,,,,,,,,,,,,,,,,,,,,,,,,,,,,,,,,,,,,,,,,,,,,,,,,,,,,,,,,5,0,5,0,1,,,,,,,,,,,,,,,,,,,,,
,,,,,,,,,,,,603d3ff5158dc4c2130d811e,19,Kobieta,2022-06-11_09h02.04.221,task,2021.1.4,Win32,59.94844434,6299f149e92ead563fba08ef,62a43ddc847e3ec0bad8608d,,,,,,,,,,,,,,,,,,,,,,,,,,,,,,,,,,,,,,,,,,,,,,,,,,,,,,,,,,,,,,,,,,,,,,,,,,,,,,,,,gnjfgj,"[""g"",""n"",""j"",""f"",""g"",""j""]",0,"[8.52049999999997,8.892299999997022,10.28449999999998,10.495399999998426,11.888499999999908,12.10539999999844,13.430399999998485]",1,GNJFGJ,4,0,4,0,1,,,,,,,,,,
,,,,,,,,,,,,603d3ff5158dc4c2130d811e,19,Kobieta,2022-06-11_09h02.04.221,task,2021.1.4,Win32,59.94844434,6299f149e92ead563fba08ef,62a43ddc847e3ec0bad8608d,,,,,,,,,,,,,1,,,,,,,,,,Task,18,(16/4) - 3,1,,,,,,,,,,,,,,,,,,,1,,,,,,,,,,,,,,,,,,,,,,,"[""1""]",1,[1.8937000000030366],0,0,0,17,1,,,,,,,,,,,,,,,,,,,,,,,,,,
,,,,,,,,,,,X V Q F H G B L J M P D K C T S W R N Z,603d3ff5158dc4c2130d811e,19,Kobieta,2022-06-11_09h02.04.221,task,2021.1.4,Win32,59.94844434,6299f149e92ead563fba08ef,62a43ddc847e3ec0bad8608d,,,,,,,,,,,,,,,,,,,,,,,,,,,,,,,,,,,,,,,,,,,,,,,,,,,,,,,,,,,,,,,,,,,,,,,,,,,,0,0,0,0,1,,,,,,,,,,,,,,,,,,,,,
,,,,,,,,,,,,603d3ff5158dc4c2130d811e,19,Kobieta,2022-06-11_09h02.04.221,task,2021.1.4,Win32,59.94844434,6299f149e92ead563fba08ef,62a43ddc847e3ec0bad8608d,,,,,,,,,,,,,7,,,,,,,,,,Task,6,(12/2) + 1,7,,,,,,,,,,,,,,,,,,,1,,,,,,,,,,,,,,,,,,,,,,,"[""7""]",1,[1.88250000000005],0,0,0,5,1,,,,,,,,,,,,,,,,,,,,,,,,,,
,,,,,,,,,,,X V Q F H G B L J M P D K C T S W R N Z,603d3ff5158dc4c2130d811e,19,Kobieta,2022-06-11_09h02.04.221,task,2021.1.4,Win32,59.94844434,6299f149e92ead563fba08ef,62a43ddc847e3ec0bad8608d,,,,,,,,,,,,,,,,,,,,,,,,,,,,,,,,,,,,,,,,,,,,,,,,,,,,,,,,,,,,,,,,,,,,,,,,,,,,1,0,1,0,1,,,,,,,,,,,,,,,,,,,,,
,,,,,,,,,,,,603d3ff5158dc4c2130d811e,19,Kobieta,2022-06-11_09h02.04.221,task,2021.1.4,Win32,59.94844434,6299f149e92ead563fba08ef,62a43ddc847e3ec0bad8608d,,,,,,,,,,,,,6,,,,,,,,,,Task,38,(4x6) - 17,7,,,,,,,,,,,,,,,,,,,0,,,,,,,,,,,,,,,,,,,,,,,"[""6""]",0,[2.1001000000014756],0,0,0,37,1,,,,,,,,,,,,,,,,,,,,,,,,,,
,,,,,,,,,,,,603d3ff5158dc4c2130d811e,19,Kobieta,2022-06-11_09h02.04.221,task,2021.1.4,Win32,59.94844434,6299f149e92ead563fba08ef,62a43ddc847e3ec0bad8608d,,,,,,,,,,,,,4,,,,,,,,,,Task,11,(18/3) - 2,4,,,,,,,,,,,,,,,,,,,1,,,,,,,,,,,,,,,,,,,,,,,"[""4""]",1,[2.411799999997015],0,1,1,10,1,,,,,,,,,,,,,,,,,,,,,,,,,,
,,,,,,,,,,,X V Q F H G B L J M P D K C T S W R N Z,603d3ff5158dc4c2130d811e,19,Kobieta,2022-06-11_09h02.04.221,task,2021.1.4,Win32,59.94844434,6299f149e92ead563fba08ef,62a43ddc847e3ec0bad8608d,,,,,,,,,,,,,,,,,,,,,,,,,,,,,,,,,,,,,,,,,,,,,,,,,,,,,,,,,,,,,,,,,,,,,,,,,,,,2,0,2,0,1,,,,,,,,,,,,,,,,,,,,,
,,,,,,,,,,,,603d3ff5158dc4c2130d811e,19,Kobieta,2022-06-11_09h02.04.221,task,2021.1.4,Win32,59.94844434,6299f149e92ead563fba08ef,62a43ddc847e3ec0bad8608d,,,,,,,,,,,,,4,,,,,,,,,,Task,21,(10/2) - 1,4,,,,,,,,,,,,,,,,,,,1,,,,,,,,,,,,,,,,,,,,,,,"[""4""]",1,[1.9239999999999782],0,0,0,20,1,,,,,,,,,,,,,,,,,,,,,,,,,,
,,,,,,,,,,,X V Q F H G B L J M P D K C T S W R N Z,603d3ff5158dc4c2130d811e,19,Kobieta,2022-06-11_09h02.04.221,task,2021.1.4,Win32,59.94844434,6299f149e92ead563fba08ef,62a43ddc847e3ec0bad8608d,,,,,,,,,,,,,,,,,,,,,,,,,,,,,,,,,,,,,,,,,,,,,,,,,,,,,,,,,,,,,,,,,,,,,,,,,,,,3,0,3,0,1,,,,,,,,,,,,,,,,,,,,,
,,,,,,,,,,,,603d3ff5158dc4c2130d811e,19,Kobieta,2022-06-11_09h02.04.221,task,2021.1.4,Win32,59.94844434,6299f149e92ead563fba08ef,62a43ddc847e3ec0bad8608d,,,,,,,,,,,,,1,,,,,,,,,,Task,9,(3x7) - 20,1,,,,,,,,,,,,,,,,,,,1,,,,,,,,,,,,,,,,,,,,,,,"[""1""]",1,[2.2796000000014374],0,0,0,8,1,,,,,,,,,,,,,,,,,,,,,,,,,,
,,,,,,,,,,,X V Q F H G B L J M P D K C T S W R N Z,603d3ff5158dc4c2130d811e,19,Kobieta,2022-06-11_09h02.04.221,task,2021.1.4,Win32,59.94844434,6299f149e92ead563fba08ef,62a43ddc847e3ec0bad8608d,,,,,,,,,,,,,,,,,,,,,,,,,,,,,,,,,,,,,,,,,,,,,,,,,,,,,,,,,,,,,,,,,,,,,,,,,,,,4,0,4,0,1,,,,,,,,,,,,,,,,,,,,,
,,,,,,,,,,,,603d3ff5158dc4c2130d811e,19,Kobieta,2022-06-11_09h02.04.221,task,2021.1.4,Win32,59.94844434,6299f149e92ead563fba08ef,62a43ddc847e3ec0bad8608d,,,,,,,,,,,,,6,,,,,,,,,,Task,30,(6/3) + 4 ,6,,,,,,,,,,,,,,,,,,,1,,,,,,,,,,,,,,,,,,,,,,,"[""6""]",1,[2.154100000001563],0,0,0,29,1,,,,,,,,,,,,,,,,,,,,,,,,,,
,,,,,,,,,,,X V Q F H G B L J M P D K C T S W R N Z,603d3ff5158dc4c2130d811e,19,Kobieta,2022-06-11_09h02.04.221,task,2021.1.4,Win32,59.94844434,6299f149e92ead563fba08ef,62a43ddc847e3ec0bad8608d,,,,,,,,,,,,,,,,,,,,,,,,,,,,,,,,,,,,,,,,,,,,,,,,,,,,,,,,,,,,,,,,,,,,,,,,,,,,5,0,5,0,1,,,,,,,,,,,,,,,,,,,,,
,,,,,,,,,,,,603d3ff5158dc4c2130d811e,19,Kobieta,2022-06-11_09h02.04.221,task,2021.1.4,Win32,59.94844434,6299f149e92ead563fba08ef,62a43ddc847e3ec0bad8608d,,,,,,,,,,,,,4,,,,,,,,,,Task,4,(1x5) - 1,4,,,,,,,,,,,,,,,,,,,1,,,,,,,,,,,,,,,,,,,,,,,"[""4""]",1,[1.426200000003064],0,0,0,3,1,,,,,,,,,,,,,,,,,,,,,,,,,,
,,,,,,,,,,,X V Q F H G B L J M P D K C T S W R N Z,603d3ff5158dc4c2130d811e,19,Kobieta,2022-06-11_09h02.04.221,task,2021.1.4,Win32,59.94844434,6299f149e92ead563fba08ef,62a43ddc847e3ec0bad8608d,,,,,,,,,,,,,,,,,,,,,,,,,,,,,,,,,,,,,,,,,,,,,,,,,,,,,,,,,,,,,,,,,,,,,,,,,,,,6,0,6,0,1,,,,,,,,,,,,,,,,,,,,,
,,,,,,,,,,,,603d3ff5158dc4c2130d811e,19,Kobieta,2022-06-11_09h02.04.221,task,2021.1.4,Win32,59.94844434,6299f149e92ead563fba08ef,62a43ddc847e3ec0bad8608d,,,,,,,,,,,,,,,,,,,,,,,,,,,,,,,,,,,,,,,,,,,,,,,,,,,,,,,,,,,,,,,,,,,,,,,,,,,,,,,,,zstkkqj,"[""z"",""s"",""t"",""k"",""k"",""q"",""j""]",0,"[5.846600000001558,6.35450000000003,7.513500000000022,7.77529999999706,12.325500000000034,12.804500000000075,16.441600000001472,18.239399999998568]",0,ZSTKTQJ,5,0,5,0,1,,,,,,,,,,
,,,,,,,,,,,,603d3ff5158dc4c2130d811e,19,Kobieta,2022-06-11_09h02.04.221,task,2021.1.4,Win32,59.94844434,6299f149e92ead563fba08ef,62a43ddc847e3ec0bad8608d,,,,,,,,,,,,,2,,,,,,,,,,Task,2,(2x2) - 2,2,,,,,,,,,,,,,,,,,,,1,,,,,,,,,,,,,,,,,,,,,,,"[""2""]",1,[1.5327999999969961],0,0,0,1,1,,,,,,,,,,,,,,,,,,,,,,,,,,
,,,,,,,,,,,X V Q F H G B L J M P D K C T S W R N Z,603d3ff5158dc4c2130d811e,19,Kobieta,2022-06-11_09h02.04.221,task,2021.1.4,Win32,59.94844434,6299f149e92ead563fba08ef,62a43ddc847e3ec0bad8608d,,,,,,,,,,,,,,,,,,,,,,,,,,,,,,,,,,,,,,,,,,,,,,,,,,,,,,,,,,,,,,,,,,,,,,,,,,,,0,0,0,0,1,,,,,,,,,,,,,,,,,,,,,
,,,,,,,,,,,,603d3ff5158dc4c2130d811e,19,Kobieta,2022-06-11_09h02.04.221,task,2021.1.4,Win32,59.94844434,6299f149e92ead563fba08ef,62a43ddc847e3ec0bad8608d,,,,,,,,,,,,,0,,,,,,,,,,Task,8,(1x5) - 5,0,,,,,,,,,,,,,,,,,,,1,,,,,,,,,,,,,,,,,,,,,,,"[""0""]",1,[1.997600000001512],0,0,0,7,1,,,,,,,,,,,,,,,,,,,,,,,,,,
,,,,,,,,,,,X V Q F H G B L J M P D K C T S W R N Z,603d3ff5158dc4c2130d811e,19,Kobieta,2022-06-11_09h02.04.221,task,2021.1.4,Win32,59.94844434,6299f149e92ead563fba08ef,62a43ddc847e3ec0bad8608d,,,,,,,,,,,,,,,,,,,,,,,,,,,,,,,,,,,,,,,,,,,,,,,,,,,,,,,,,,,,,,,,,,,,,,,,,,,,1,0,1,0,1,,,,,,,,,,,,,,,,,,,,,
,,,,,,,,,,,,603d3ff5158dc4c2130d811e,19,Kobieta,2022-06-11_09h02.04.221,task,2021.1.4,Win32,59.94844434,6299f149e92ead563fba08ef,62a43ddc847e3ec0bad8608d,,,,,,,,,,,,,8,,,,,,,,,,Task,32,(8/2) + 4,8,,,,,,,,,,,,,,,,,,,1,,,,,,,,,,,,,,,,,,,,,,,"[""8""]",1,[2.1224999999999454],0,0,0,31,1,,,,,,,,,,,,,,,,,,,,,,,,,,
,,,,,,,,,,,X V Q F H G B L J M P D K C T S W R N Z,603d3ff5158dc4c2130d811e,19,Kobieta,2022-06-11_09h02.04.221,task,2021.1.4,Win32,59.94844434,6299f149e92ead563fba08ef,62a43ddc847e3ec0bad8608d,,,,,,,,,,,,,,,,,,,,,,,,,,,,,,,,,,,,,,,,,,,,,,,,,,,,,,,,,,,,,,,,,,,,,,,,,,,,2,0,2,0,1,,,,,,,,,,,,,,,,,,,,,
,,,,,,,,,,,,603d3ff5158dc4c2130d811e,19,Kobieta,2022-06-11_09h02.04.221,task,2021.1.4,Win32,59.94844434,6299f149e92ead563fba08ef,62a43ddc847e3ec0bad8608d,,,,,,,,,,,,,0,,,,,,,,,,Task,33,(1/1) - 1,0,,,,,,,,,,,,,,,,,,,1,,,,,,,,,,,,,,,,,,,,,,,"[""0""]",1,[1.8281999999956042],0,0,0,32,1,,,,,,,,,,,,,,,,,,,,,,,,,,
,,,,,,,,,,,X V Q F H G B L J M P D K C T S W R N Z,603d3ff5158dc4c2130d811e,19,Kobieta,2022-06-11_09h02.04.221,task,2021.1.4,Win32,59.94844434,6299f149e92ead563fba08ef,62a43ddc847e3ec0bad8608d,,,,,,,,,,,,,,,,,,,,,,,,,,,,,,,,,,,,,,,,,,,,,,,,,,,,,,,,,,,,,,,,,,,,,,,,,,,,3,0,3,0,1,,,,,,,,,,,,,,,,,,,,,
,,,,,,,,,,,,603d3ff5158dc4c2130d811e,19,Kobieta,2022-06-11_09h02.04.221,task,2021.1.4,Win32,59.94844434,6299f149e92ead563fba08ef,62a43ddc847e3ec0bad8608d,,,,,,,,,,,,,4,,,,,,,,,,Task,28,(2x5) - 6,4,,,,,,,,,,,,,,,,,,,1,,,,,,,,,,,,,,,,,,,,,,,"[""4""]",1,[2.930100000001403],0,0,0,27,1,,,,,,,,,,,,,,,,,,,,,,,,,,
,,,,,,,,,,,X V Q F H G B L J M P D K C T S W R N Z,603d3ff5158dc4c2130d811e,19,Kobieta,2022-06-11_09h02.04.221,task,2021.1.4,Win32,59.94844434,6299f149e92ead563fba08ef,62a43ddc847e3ec0bad8608d,,,,,,,,,,,,,,,,,,,,,,,,,,,,,,,,,,,,,,,,,,,,,,,,,,,,,,,,,,,,,,,,,,,,,,,,,,,,4,0,4,0,1,,,,,,,,,,,,,,,,,,,,,
,,,,,,,,,,,,603d3ff5158dc4c2130d811e,19,Kobieta,2022-06-11_09h02.04.221,task,2021.1.4,Win32,59.94844434,6299f149e92ead563fba08ef,62a43ddc847e3ec0bad8608d,,,,,,,,,,,,,5,,,,,,,,,,Task,38,(4x6) - 17,7,,,,,,,,,,,,,,,,,,,0,,,,,,,,,,,,,,,,,,,,,,,"[""5""]",0,[3.5752999999970143],0,0,0,37,1,,,,,,,,,,,,,,,,,,,,,,,,,,
,,,,,,,,,,,,603d3ff5158dc4c2130d811e,19,Kobieta,2022-06-11_09h02.04.221,task,2021.1.4,Win32,59.94844434,6299f149e92ead563fba08ef,62a43ddc847e3ec0bad8608d,,,,,,,,,,,,,7,,,,,,,,,,Task,6,(12/2) + 1,7,,,,,,,,,,,,,,,,,,,1,,,,,,,,,,,,,,,,,,,,,,,"[""7""]",1,[3.4534999999999627],0,1,1,5,1,,,,,,,,,,,,,,,,,,,,,,,,,,
,,,,,,,,,,,X V Q F H G B L J M P D K C T S W R N Z,603d3ff5158dc4c2130d811e,19,Kobieta,2022-06-11_09h02.04.221,task,2021.1.4,Win32,59.94844434,6299f149e92ead563fba08ef,62a43ddc847e3ec0bad8608d,,,,,,,,,,,,,,,,,,,,,,,,,,,,,,,,,,,,,,,,,,,,,,,,,,,,,,,,,,,,,,,,,,,,,,,,,,,,5,0,5,0,1,,,,,,,,,,,,,,,,,,,,,
,,,,,,,,,,,,603d3ff5158dc4c2130d811e,19,Kobieta,2022-06-11_09h02.04.221,task,2021.1.4,Win32,59.94844434,6299f149e92ead563fba08ef,62a43ddc847e3ec0bad8608d,,,,,,,,,,,,,5,,,,,,,,,,Task,29,(3x8) - 19 ,5,,,,,,,,,,,,,,,,,,,1,,,,,,,,,,,,,,,,,,,,,,,"[""5""]",1,[3.188199999995504],0,0,0,28,1,,,,,,,,,,,,,,,,,,,,,,,,,,
,,,,,,,,,,,X V Q F H G B L J M P D K C T S W R N Z,603d3ff5158dc4c2130d811e,19,Kobieta,2022-06-11_09h02.04.221,task,2021.1.4,Win32,59.94844434,6299f149e92ead563fba08ef,62a43ddc847e3ec0bad8608d,,,,,,,,,,,,,,,,,,,,,,,,,,,,,,,,,,,,,,,,,,,,,,,,,,,,,,,,,,,,,,,,,,,,,,,,,,,,6,0,6,0,1,,,,,,,,,,,,,,,,,,,,,
,,,,,,,,,,,,603d3ff5158dc4c2130d811e,19,Kobieta,2022-06-11_09h02.04.221,task,2021.1.4,Win32,59.94844434,6299f149e92ead563fba08ef,62a43ddc847e3ec0bad8608d,,,,,,,,,,,,,,,,,,,,,,,,,,,,,,,,,,,,,,,,,,,,,,,,,,,,,,,,,,,,,,,,,,,,,,,,,,,,,,,,,nlzfmhs,"[""n"",""l"",""z"",""f"",""m"",""h"",""s""]",0,"[7.255700000002889,7.7176000000014255,9.110500000000002,9.727499999999964,11.239600000001474,13.762600000001385,15.720600000001468,16.120499999999993]",0,NLZFMBS,6,0,6,0,1,,,,,,,,,,
,,,,,,,,,,,,603d3ff5158dc4c2130d811e,19,Kobieta,2022-06-11_09h02.04.221,task,2021.1.4,Win32,59.94844434,6299f149e92ead563fba08ef,62a43ddc847e3ec0bad8608d,,,,,,,,,,,,,,,,,,,,,,,,,,,,,,,,,,,,,,,,,,,,,,,,,,,,,,,,,,,,,,,,,,,,,,,,,,,,,,,,,,,,,,,,,,,,"[""period""]",0,[0.6895999999940159],0,0,0,0,1,,
,,,,,,,,,,,,603d3ff5158dc4c2130d811e,19,Kobieta,2022-06-11_09h02.04.221,task,2021.1.4,Win32,59.94844434,6299f149e92ead563fba08ef,62a43ddc847e3ec0bad8608d,,,,,,,,,,,,,,,,,,,,,,,,,,,,,,,,,,,,,,,,,,,,,,,,,,,,,,,,,,,,,,,,,,,,,,,,,,,,,,,,,,,,,,,,,,,,"[""comma""]",0,[0.5961000000015702],1,0,1,0,1,,
,,,,,,,,,,,,603d3ff5158dc4c2130d811e,19,Kobieta,2022-06-11_09h02.04.221,task,2021.1.4,Win32,59.94844434,6299f149e92ead563fba08ef,62a43ddc847e3ec0bad8608d,,,,,,,,,,,,,,,,,,,,,,,,,,,,,,,,,,,,,,,,,,,,,,,,,,,,,,,,,,,,,,,,,,,,,,,,,,,,,,,,,,,,,,,,,,,,"[""comma""]",0,[0.43779999999696884],2,0,2,0,1,,
,,,,,,,,,,,,603d3ff5158dc4c2130d811e,19,Kobieta,2022-06-11_09h02.04.221,task,2021.1.4,Win32,59.94844434,6299f149e92ead563fba08ef,62a43ddc847e3ec0bad8608d,,,,,,,,,,,,,,,,,,,,,,,,,,,,,,,,,,,,,,,,,,,,,,,,,,,,,,,,,,,,,,,,,,,,,,,,,,,,,,,,,,,,,,,,,,,,"[""period""]",0,[0.4856999999956315],3,0,3,0,1,,
,,,,,,,,,,,,603d3ff5158dc4c2130d811e,19,Kobieta,2022-06-11_09h02.04.221,task,2021.1.4,Win32,59.94844434,6299f149e92ead563fba08ef,62a43ddc847e3ec0bad8608d,,,,,,,,,,,,,,,,,,,,,,,,,,,,,,,,,,,,,,,,,,,,,,,,,,,,,,,,,,,,,,,,,,,,,,,,,,,,,,,,,,,,,,,,,,,,"[""period""]",0,[0.3446999999955551],4,0,4,0,1,,
,,,,,,,,,,,,603d3ff5158dc4c2130d811e,19,Kobieta,2022-06-11_09h02.04.221,task,2021.1.4,Win32,59.94844434,6299f149e92ead563fba08ef,62a43ddc847e3ec0bad8608d,,,,,,,,,,,,,,,,,,,,,,,,,,,,,,,,,,,,,,,,,,,,,,,,,,,,,,,,,,,,,,,,,,,,,,,,,,,,,,,,,,,,,,,,,,,,"[""comma""]",0,[0.33489999999858355],5,0,5,0,1,,
,,,,,,,,,,,,603d3ff5158dc4c2130d811e,19,Kobieta,2022-06-11_09h02.04.221,task,2021.1.4,Win32,59.94844434,6299f149e92ead563fba08ef,62a43ddc847e3ec0bad8608d,,,,,,,,,,,,,,,,,,,,,,,,,,,,,,,,,,,,,,,,,,,,,,,,,,,,,,,,,,,,,,,,,,,,,,,,,,,,,,,,,,,,,,,,,,,,"[""period""]",0,[0.2845999999940432],6,0,6,0,1,,
,,,,,,,,,,,,603d3ff5158dc4c2130d811e,19,Kobieta,2022-06-11_09h02.04.221,task,2021.1.4,Win32,59.94844434,6299f149e92ead563fba08ef,62a43ddc847e3ec0bad8608d,,,,,,,,,,,,,,,,,,,,,,,,,,,,,,,,,,,,,,,,,,,,,,,,,,,,,,,,,,,,,,,,,,,,,,,,,,,,,,,,,,,,,,,,,,,,"[""comma"",""comma""]",0,"[0.28059999999413776,1.8787999999971134]",7,0,7,0,1,,
,,,,,,,,,,,,603d3ff5158dc4c2130d811e,19,Kobieta,2022-06-11_09h02.04.221,task,2021.1.4,Win32,59.94844434,6299f149e92ead563fba08ef,62a43ddc847e3ec0bad8608d,,,,,,,,,,,,,,,,,,,,,,,,,,,,,,,,,,,,,,,,,,,,,,,,,,,,,,,,,,,,,,,,,,,,,,,,,,,,,,,,,,,,,,,,,,,,"[""period""]",0,[1.651599999994005],8,0,8,0,1,,
,,,,,,,,,,,,603d3ff5158dc4c2130d811e,19,Kobieta,2022-06-11_09h02.04.221,task,2021.1.4,Win32,59.94844434,6299f149e92ead563fba08ef,62a43ddc847e3ec0bad8608d,,,,,,,,,,,,,,,,,,,,,,,,,,,,,,,,,,,,,,,,,,,,,,,,,,,,,,,,,,,,,,,,,,,,,,,,,,,,,,,,,,,,,,,,,,,,"[""period""]",0,[1.8072999999969852],9,0,9,0,1,,
,,,,,,,,,,,,603d3ff5158dc4c2130d811e,19,Kobieta,2022-06-11_09h02.04.221,task,2021.1.4,Win32,59.94844434,6299f149e92ead563fba08ef,62a43ddc847e3ec0bad8608d,,,,,,,,,,,,,,,,,,,,,,,,,,,,,,,,,,,,,,,,,,,,,,,,,,,,,,,,,,,,,,,,,,,,,,,,,,,,,,,,,,,,,,,,,,,,,0,,10,0,10,0,1,,
,,,,,,,,,,,,603d3ff5158dc4c2130d811e,19,Kobieta,2022-06-11_09h02.04.221,task,2021.1.4,Win32,59.94844434,6299f149e92ead563fba08ef,62a43ddc847e3ec0bad8608d,,,,,,,,,,,,,,,,,,,,,,,,,,,,,,,,,,,,,,,,,,,,,,,,,,,,,,,,,,,,,,,,,,,,,,,,,,,,,,,,,,,,,,,,,,,,"[""comma""]",0,[0.2971000000014783],11,0,11,0,1,,
,,,,,,,,,,,,603d3ff5158dc4c2130d811e,19,Kobieta,2022-06-11_09h02.04.221,task,2021.1.4,Win32,59.94844434,6299f149e92ead563fba08ef,62a43ddc847e3ec0bad8608d,,,,,,,,,,,,,,,,,,,,,,,,,,,,,,,,,,,,,,,,,,,,,,,,,,,,,,,,,,,,,,,,,,,,,,,,,,,,,,,,,,,,,,,,,,,,"[""period""]",0,[0.3171999999955233],12,0,12,0,1,,
,,,,,,,,,,,,603d3ff5158dc4c2130d811e,19,Kobieta,2022-06-11_09h02.04.221,task,2021.1.4,Win32,59.94844434,6299f149e92ead563fba08ef,62a43ddc847e3ec0bad8608d,,,,,,,,,,,,,,,,,,,,,,,,,,,,,,,,,,,,,,,,,,,,,,,,,,,,,,,,,,,,,,,,,,,,,,,,,,,,,,,,,,,,,,,,,,,,"[""period""]",0,[0.28359999999395313],13,0,13,0,1,,
,,,,,,,,,,,,603d3ff5158dc4c2130d811e,19,Kobieta,2022-06-11_09h02.04.221,task,2021.1.4,Win32,59.94844434,6299f149e92ead563fba08ef,62a43ddc847e3ec0bad8608d,,,,,,,,,,,,,,,,,,,,,,,,,,,,,,,,,,,,,,,,,,,,,,,,,,,,,,,,,,,,,,,,,,,,,,,,,,,,,,,,,,,,,,,,,,,,"[""comma""]",0,[0.3249999999999318],14,0,14,0,1,,
,,,,,,,,,,,,603d3ff5158dc4c2130d811e,19,Kobieta,2022-06-11_09h02.04.221,task,2021.1.4,Win32,59.94844434,6299f149e92ead563fba08ef,62a43ddc847e3ec0bad8608d,,,,,,,,,,,,,,,,,,,,,,,,,,,,,,,,,,,,,,,,,,,,,,,,,,,,,,,,,,,,,,,,,,,,,,,,,,,,,,,,,,,,,,,,,,,,"[""comma""]",0,[0.31500000000005457],15,0,15,0,1,,
,,,,,,,,,,,,603d3ff5158dc4c2130d811e,19,Kobieta,2022-06-11_09h02.04.221,task,2021.1.4,Win32,59.94844434,6299f149e92ead563fba08ef,62a43ddc847e3ec0bad8608d,,,,,,,,,,,,,,,,,,,,,,,,,,,,,,,,,,,,,,,,,,,,,,,,,,,,,,,,,,,,,,,,,,,,,,,,,,,,,,,,,,,,,,,,,,,,"[""period""]",0,[0.3111000000014883],16,0,16,0,1,,
,,,,,,,,,,,,603d3ff5158dc4c2130d811e,19,Kobieta,2022-06-11_09h02.04.221,task,2021.1.4,Win32,59.94844434,6299f149e92ead563fba08ef,62a43ddc847e3ec0bad8608d,,,,,,,,,,,,,,,,,,,,,,,,,,,,,,,,,,,,,,,,,,,,,,,,,,,,,,,,,,,,,,,,,,,,,,,,,,,,,,,,,,,,,,,,,,,,"[""period""]",0,[0.2944999999999709],17,0,17,0,1,,
,,,,,,,,,,,,603d3ff5158dc4c2130d811e,19,Kobieta,2022-06-11_09h02.04.221,task,2021.1.4,Win32,59.94844434,6299f149e92ead563fba08ef,62a43ddc847e3ec0bad8608d,,,,,,,,,,,,,,,,,,,,,,,,,,,,,,,,,,,,,,,,,,,,,,,,,,,,,,,,,,,,,,,,,,,,,,,,,,,,,,,,,,,,,,,,,,,,"[""period""]",0,[0.3138000000044485],18,0,18,0,1,,
,,,,,,,,,,,,603d3ff5158dc4c2130d811e,19,Kobieta,2022-06-11_09h02.04.221,task,2021.1.4,Win32,59.94844434,6299f149e92ead563fba08ef,62a43ddc847e3ec0bad8608d,,,,,,,,,,,,,,,,,,,,,,,,,,,,,,,,,,,,,,,,,,,,,,,,,,,,,,,,,,,,,,,,,,,,,,,,,,,,,,,,,,,,,,,,,,,,"[""comma"",""comma""]",0,"[0.2744999999999891,1.816500000000019]",19,0,19,0,1,,
,,,,,,,,,,,,603d3ff5158dc4c2130d811e,19,Kobieta,2022-06-11_09h02.04.221,task,2021.1.4,Win32,59.94844434,6299f149e92ead563fba08ef,62a43ddc847e3ec0bad8608d,,,,,,,,,,,,,,,,,,,,,,,,,,,,,,,,,,,,,,,,,,,,,,,,,,,,,,,,,,,,,,,,,,,,,,,,,,,,,,,,,,,,,,,,,,,,,0,,20,0,20,0,1,,
,,,,,,,,,,,,603d3ff5158dc4c2130d811e,19,Kobieta,2022-06-11_09h02.04.221,task,2021.1.4,Win32,59.94844434,6299f149e92ead563fba08ef,62a43ddc847e3ec0bad8608d,,,,,,,,,,,,,,,,,,,,,,,,,,,,,,,,,,,,,,,,,,,,,,,,,,,,,,,,,,,,,,,,,,,,,,,,,,,,,,,,,,,,,,,,,,,,"[""comma""]",0,[0.25549999999998363],21,0,21,0,1,,
,,,,,,,,,,,,603d3ff5158dc4c2130d811e,19,Kobieta,2022-06-11_09h02.04.221,task,2021.1.4,Win32,59.94844434,6299f149e92ead563fba08ef,62a43ddc847e3ec0bad8608d,,,,,,,,,,,,,,,,,,,,,,,,,,,,,,,,,,,,,,,,,,,,,,,,,,,,,,,,,,,,,,,,,,,,,,,,,,,,,,,,,,,,,,,,,,,,"[""comma""]",0,[0.07950000000005275],22,0,22,0,1,,
,,,,,,,,,,,,603d3ff5158dc4c2130d811e,19,Kobieta,2022-06-11_09h02.04.221,task,2021.1.4,Win32,59.94844434,6299f149e92ead563fba08ef,62a43ddc847e3ec0bad8608d,,,,,,,,,,,,,,,,,,,,,,,,,,,,,,,,,,,,,,,,,,,,,,,,,,,,,,,,,,,,,,,,,,,,,,,,,,,,,,,,,,,,,,,,,,,,"[""period""]",0,[0.2812000000029684],23,0,23,0,1,,
,,,,,,,,,,,,603d3ff5158dc4c2130d811e,19,Kobieta,2022-06-11_09h02.04.221,task,2021.1.4,Win32,59.94844434,6299f149e92ead563fba08ef,62a43ddc847e3ec0bad8608d,,,,,,,,,,,,,,,,,,,,,,,,,,,,,,,,,,,,,,,,,,,,,,,,,,,,,,,,,,,,,,,,,,,,,,,,,,,,,,,,,,,,,,,,,,,,"[""period""]",0,[0.24829999999701613],24,0,24,0,1,,
,,,,,,,,,,,,603d3ff5158dc4c2130d811e,19,Kobieta,2022-06-11_09h02.04.221,task,2021.1.4,Win32,59.94844434,6299f149e92ead563fba08ef,62a43ddc847e3ec0bad8608d,,,,,,,,,,,,,,,,,,,,,,,,,,,,,,,,,,,,,,,,,,,,,,,,,,,,,,,,,,,,,,,,,,,,,,,,,,,,,,,,,,,,,,,,,,,,"[""comma""]",0,[0.2840000000001055],25,0,25,0,1,,
,,,,,,,,,,,,603d3ff5158dc4c2130d811e,19,Kobieta,2022-06-11_09h02.04.221,task,2021.1.4,Win32,59.94844434,6299f149e92ead563fba08ef,62a43ddc847e3ec0bad8608d,,,,,,,,,,,,,,,,,,,,,,,,,,,,,,,,,,,,,,,,,,,,,,,,,,,,,,,,,,,,,,,,,,,,,,,,,,,,,,,,,,,,,,,,,,,,"[""comma""]",0,[0.33089999999856445],26,0,26,0,1,,
,,,,,,,,,,,,603d3ff5158dc4c2130d811e,19,Kobieta,2022-06-11_09h02.04.221,task,2021.1.4,Win32,59.94844434,6299f149e92ead563fba08ef,62a43ddc847e3ec0bad8608d,,,,,,,,,,,,,,,,,,,,,,,,,,,,,,,,,,,,,,,,,,,,,,,,,,,,,,,,,,,,,,,,,,,,,,,,,,,,,,,,,,,,,,,,,,,,"[""period""]",0,[0.25299999999992906],27,0,27,0,1,,
,,,,,,,,,,,,603d3ff5158dc4c2130d811e,19,Kobieta,2022-06-11_09h02.04.221,task,2021.1.4,Win32,59.94844434,6299f149e92ead563fba08ef,62a43ddc847e3ec0bad8608d,,,,,,,,,,,,,,,,,,,,,,,,,,,,,,,,,,,,,,,,,,,,,,,,,,,,,,,,,,,,,,,,,,,,,,,,,,,,,,,,,,,,,,,,,,,,"[""comma""]",0,[0.38599999999996726],28,0,28,0,1,,
,,,,,,,,,,,,603d3ff5158dc4c2130d811e,19,Kobieta,2022-06-11_09h02.04.221,task,2021.1.4,Win32,59.94844434,6299f149e92ead563fba08ef,62a43ddc847e3ec0bad8608d,,,,,,,,,,,,,,,,,,,,,,,,,,,,,,,,,,,,,,,,,,,,,,,,,,,,,,,,,,,,,,,,,,,,,,,,,,,,,,,,,,,,,,,,,,,,"[""period""]",0,[0.3357000000029302],29,0,29,0,1,,
,,,,,,,,,,,,603d3ff5158dc4c2130d811e,19,Kobieta,2022-06-11_09h02.04.221,task,2021.1.4,Win32,59.94844434,6299f149e92ead563fba08ef,62a43ddc847e3ec0bad8608d,,,,,,,,,,,,,,,,,,,,,,,,,,,,,,,,,,,,,,,,,,,,,,,,,,,,,,,,,,,,,,,,,,,,,,,,,,,,,,,,,,,,,,,,,,,,"[""comma""]",0,[0.29779999999709617],30,0,30,0,1,,
,,,,,,,,,,,,603d3ff5158dc4c2130d811e,19,Kobieta,2022-06-11_09h02.04.221,task,2021.1.4,Win32,59.94844434,6299f149e92ead563fba08ef,62a43ddc847e3ec0bad8608d,,,,,,,,,,,,,,,,,,,,,,,,,,,,,,,,,,,,,,,,,,,,,,,,,,,,,,,,,,,,,,,,,,,,,,,,,,,,,,,,,,,,,,,,,,,,"[""period""]",0,[0.24779999999702795],31,0,31,0,1,,
,,,,,,,,,,,,603d3ff5158dc4c2130d811e,19,Kobieta,2022-06-11_09h02.04.221,task,2021.1.4,Win32,59.94844434,6299f149e92ead563fba08ef,62a43ddc847e3ec0bad8608d,,,,,,,,,,,,,,,,,,,,,,,,,,,,,,,,,,,,,,,,,,,,,,,,,,,,,,,,,,,,,,,,,,,,,,,,,,,,,,,,,,,,,,,,,,,,"[""comma""]",0,[0.3058999999984735],32,0,32,0,1,,
,,,,,,,,,,,,603d3ff5158dc4c2130d811e,19,Kobieta,2022-06-11_09h02.04.221,task,2021.1.4,Win32,59.94844434,6299f149e92ead563fba08ef,62a43ddc847e3ec0bad8608d,,,,,,,,,,,,,,,,,,,,,,,,,,,,,,,,,,,,,,,,,,,,,,,,,,,,,,,,,,,,,,,,,,,,,,,,,,,,,,,,,,,,,,,,,,,,"[""comma""]",0,[0.2783000000043785],33,0,33,0,1,,
,,,,,,,,,,,,603d3ff5158dc4c2130d811e,19,Kobieta,2022-06-11_09h02.04.221,task,2021.1.4,Win32,59.94844434,6299f149e92ead563fba08ef,62a43ddc847e3ec0bad8608d,,,,,,,,,,,,,,,,,,,,,,,,,,,,,,,,,,,,,,,,,,,,,,,,,,,,,,,,,,,,,,,,,,,,,,,,,,,,,,,,,,,,,,,,,,,,"[""period""]",0,[0.26820000000304844],34,0,34,0,1,,
,,,,,,,,,,,,603d3ff5158dc4c2130d811e,19,Kobieta,2022-06-11_09h02.04.221,task,2021.1.4,Win32,59.94844434,6299f149e92ead563fba08ef,62a43ddc847e3ec0bad8608d,,,,,,,,,,,,,,,,,,,,,,,,,,,,,,,,,,,,,,,,,,,,,,,,,,,,,,,,,,,,,,,,,,,,,,,,,,,,,,,,,,,,,,,,,,,,"[""period""]",0,[0.17810000000156379],35,0,35,0,1,,
,,,,,,,,,,,,603d3ff5158dc4c2130d811e,19,Kobieta,2022-06-11_09h02.04.221,task,2021.1.4,Win32,59.94844434,6299f149e92ead563fba08ef,62a43ddc847e3ec0bad8608d,,,,,,,,,,,,,,,,,,,,,,,,,,,,,,,,,,,,,,,,,,,,,,,,,,,,,,,,,,,,,,,,,,,,,,,,,,,,,,,,,,,,,,,,,,,,"[""period""]",0,[0.3051000000014028],36,0,36,0,1,,
,,,,,,,,,,,,603d3ff5158dc4c2130d811e,19,Kobieta,2022-06-11_09h02.04.221,task,2021.1.4,Win32,59.94844434,6299f149e92ead563fba08ef,62a43ddc847e3ec0bad8608d,,,,,,,,,,,,,,,,,,,,,,,,,,,,,,,,,,,,,,,,,,,,,,,,,,,,,,,,,,,,,,,,,,,,,,,,,,,,,,,,,,,,,,,,,,,,"[""comma""]",0,[0.3592999999970061],37,0,37,0,1,,
,,,,,,,,,,,,603d3ff5158dc4c2130d811e,19,Kobieta,2022-06-11_09h02.04.221,task,2021.1.4,Win32,59.94844434,6299f149e92ead563fba08ef,62a43ddc847e3ec0bad8608d,,,,,,,,,,,,,,,,,,,,,,,,,,,,,,,,,,,,,,,,,,,,,,,,,,,,,,,,,,,,,,,,,,,,,,,,,,,,,,,,,,,,,,,,,,,,"[""comma""]",0,[0.33210000000156015],38,0,38,0,1,,
,,,,,,,,,,,,603d3ff5158dc4c2130d811e,19,Kobieta,2022-06-11_09h02.04.221,task,2021.1.4,Win32,59.94844434,6299f149e92ead563fba08ef,62a43ddc847e3ec0bad8608d,,,,,,,,,,,,,,,,,,,,,,,,,,,,,,,,,,,,,,,,,,,,,,,,,,,,,,,,,,,,,,,,,,,,,,,,,,,,,,,,,,,,,,,,,,,,"[""period""]",0,[0.2531000000014956],39,0,39,0,1,,
,,,,,,,,,,,,603d3ff5158dc4c2130d811e,19,Kobieta,2022-06-11_09h02.04.221,task,2021.1.4,Win32,59.94844434,6299f149e92ead563fba08ef,62a43ddc847e3ec0bad8608d,,,,,,,,,,,,,,,,,,,,,,,,,,,,,,,,,,,,,,,,,,,,,,,,,,,,,,,,,,,,,,,,,,,,,,,,,,,,,,,,,,,,,,,,,,,,"[""period""]",0,[0.3351000000014892],40,0,40,0,1,,
,,,,,,,,,,,,603d3ff5158dc4c2130d811e,19,Kobieta,2022-06-11_09h02.04.221,task,2021.1.4,Win32,59.94844434,6299f149e92ead563fba08ef,62a43ddc847e3ec0bad8608d,,,,,,,,,,,,,,,,,,,,,,,,,,,,,,,,,,,,,,,,,,,,,,,,,,,,,,,,,,,,,,,,,,,,,,,,,,,,,,,,,,,,,,,,,,,,"[""comma""]",0,[0.44529999999701886],41,0,41,0,1,,
,,,,,,,,,,,,603d3ff5158dc4c2130d811e,19,Kobieta,2022-06-11_09h02.04.221,task,2021.1.4,Win32,59.94844434,6299f149e92ead563fba08ef,62a43ddc847e3ec0bad8608d,,,,,,,,,,,,,,,,,,,,,,,,,,,,,,,,,,,,,,,,,,,,,,,,,,,,,,,,,,,,,,,,,,,,,,,,,,,,,,,,,,,,,,,,,,,,"[""comma""]",0,[0.451699999995526],42,0,42,0,1,,
,,,,,,,,,,,,603d3ff5158dc4c2130d811e,19,Kobieta,2022-06-11_09h02.04.221,task,2021.1.4,Win32,59.94844434,6299f149e92ead563fba08ef,62a43ddc847e3ec0bad8608d,,,,,,,,,,,,,,,,,,,,,,,,,,,,,,,,,,,,,,,,,,,,,,,,,,,,,,,,,,,,,,,,,,,,,,,,,,,,,,,,,,,,,,,,,,,,"[""period""]",0,[0.4366000000014765],43,0,43,0,1,,
,,,,,,,,,,,,603d3ff5158dc4c2130d811e,19,Kobieta,2022-06-11_09h02.04.221,task,2021.1.4,Win32,59.94844434,6299f149e92ead563fba08ef,62a43ddc847e3ec0bad8608d,,,,,,,,,,,,,,,,,,,,,,,,,,,,,,,,,,,,,,,,,,,,,,,,,,,,,,,,,,,,,,,,,,,,,,,,,,,,,,,,,,,,,,,,,,,,"[""period""]",0,[0.3126000000015665],44,0,44,0,1,,
,,,,,,,,,,,,603d3ff5158dc4c2130d811e,19,Kobieta,2022-06-11_09h02.04.221,task,2021.1.4,Win32,59.94844434,6299f149e92ead563fba08ef,62a43ddc847e3ec0bad8608d,,,,,,,,,,,,,,,,,,,,,,,,,,,,,,,,,,,,,,,,,,,,,,,,,,,,,,,,,,,,,,,,,,,,,,,,,,,,,,,,,,,,,,,,,,,,"[""comma""]",0,[0.5365000000000464],45,0,45,0,1,,
,,,,,,,,,,,,603d3ff5158dc4c2130d811e,19,Kobieta,2022-06-11_09h02.04.221,task,2021.1.4,Win32,59.94844434,6299f149e92ead563fba08ef,62a43ddc847e3ec0bad8608d,,,,,,,,,,,,,,,,,,,,,,,,,,,,,,,,,,,,,,,,,,,,,,,,,,,,,,,,,,,,,,,,,,,,,,,,,,,,,,,,,,,,,,,,,,,,"[""comma""]",0,[0.41259999999397223],46,0,46,0,1,,
,,,,,,,,,,,,603d3ff5158dc4c2130d811e,19,Kobieta,2022-06-11_09h02.04.221,task,2021.1.4,Win32,59.94844434,6299f149e92ead563fba08ef,62a43ddc847e3ec0bad8608d,,,,,,,,,,,,,,,,,,,,,,,,,,,,,,,,,,,,,,,,,,,,,,,,,,,,,,,,,,,,,,,,,,,,,,,,,,,,,,,,,,,,,,,,,,,,"[""period""]",0,[0.26540000000591135],47,0,47,0,1,,
,,,,,,,,,,,,603d3ff5158dc4c2130d811e,19,Kobieta,2022-06-11_09h02.04.221,task,2021.1.4,Win32,59.94844434,6299f149e92ead563fba08ef,62a43ddc847e3ec0bad8608d,,,,,,,,,,,,,,,,,,,,,,,,,,,,,,,,,,,,,,,,,,,,,,,,,,,,,,,,,,,,,,,,,,,,,,,,,,,,,,,,,,,,,,,,,,,,"[""period""]",0,[0.33559999999408774],48,0,48,0,1,,
,,,,,,,,,,,,603d3ff5158dc4c2130d811e,19,Kobieta,2022-06-11_09h02.04.221,task,2021.1.4,Win32,59.94844434,6299f149e92ead563fba08ef,62a43ddc847e3ec0bad8608d,,,,,,,,,,,,,,,,,,,,,,,,,,,,,,,,,,,,,,,,,,,,,,,,,,,,,,,,,,,,,,,,,,,,,,,,,,,,,,,,,,,,,,,,,,,,"[""comma""]",0,[0.3084000000059177],49,0,49,0,1,,
,,,,,,,,,,,,603d3ff5158dc4c2130d811e,19,Kobieta,2022-06-11_09h02.04.221,task,2021.1.4,Win32,59.94844434,6299f149e92ead563fba08ef,62a43ddc847e3ec0bad8608d,,,,,,,,,,,,,,,,,,,,,,,,,,,,,,,,,,,,,,,,,,,,,,,,,,,,,,,,,,,,,,,,,,,,,,,,,,,,,,,,,,,,,,,,,,,,"[""comma""]",0,[0.5090000000000146],50,0,50,0,1,,
,,,,,,,,,,,,603d3ff5158dc4c2130d811e,19,Kobieta,2022-06-11_09h02.04.221,task,2021.1.4,Win32,59.94844434,6299f149e92ead563fba08ef,62a43ddc847e3ec0bad8608d,,,,,,,,,,,,,,,,,,,,,,,,,,,,,,,,,,,,,,,,,,,,,,,,,,,,,,,,,,,,,,,,,,,,,,,,,,,,,,,,,,,,,,,,,,,,"[""period""]",0,[0.4708999999985508],51,0,51,0,1,,
,,,,,,,,,,,,603d3ff5158dc4c2130d811e,19,Kobieta,2022-06-11_09h02.04.221,task,2021.1.4,Win32,59.94844434,6299f149e92ead563fba08ef,62a43ddc847e3ec0bad8608d,,,,,,,,,,,,,,,,,,,,,,,,,,,,,,,,,,,,,,,,,,,,,,,,,,,,,,,,,,,,,,,,,,,,,,,,,,,,,,,,,,,,,,,,,,,,"[""comma""]",0,[0.31309999999405136],52,0,52,0,1,,
,,,,,,,,,,,,603d3ff5158dc4c2130d811e,19,Kobieta,2022-06-11_09h02.04.221,task,2021.1.4,Win32,59.94844434,6299f149e92ead563fba08ef,62a43ddc847e3ec0bad8608d,,,,,,,,,,,,,,,,,,,,,,,,,,,,,,,,,,,,,,,,,,,,,,,,,,,,,,,,,,,,,,,,,,,,,,,,,,,,,,,,,,,,,,,,,,,,"[""comma""]",0,[0.3089000000059059],53,0,53,0,1,,
,,,,,,,,,,,,603d3ff5158dc4c2130d811e,19,Kobieta,2022-06-11_09h02.04.221,task,2021.1.4,Win32,59.94844434,6299f149e92ead563fba08ef,62a43ddc847e3ec0bad8608d,,,,,,,,,,,,,,,,,,,,,,,,,,,,,,,,,,,,,,,,,,,,,,,,,,,,,,,,,,,,,,,,,,,,,,,,,,,,,,,,,,,,,,,,,,,,"[""period""]",0,[0.29339999999842803],54,0,54,0,1,,
,,,,,,,,,,,,603d3ff5158dc4c2130d811e,19,Kobieta,2022-06-11_09h02.04.221,task,2021.1.4,Win32,59.94844434,6299f149e92ead563fba08ef,62a43ddc847e3ec0bad8608d,,,,,,,,,,,,,,,,,,,,,,,,,,,,,,,,,,,,,,,,,,,,,,,,,,,,,,,,,,,,,,,,,,,,,,,,,,,,,,,,,,,,,,,,,,,,"[""comma""]",0,[0.2949000000058959],55,0,55,0,1,,
,,,,,,,,,,,,603d3ff5158dc4c2130d811e,19,Kobieta,2022-06-11_09h02.04.221,task,2021.1.4,Win32,59.94844434,6299f149e92ead563fba08ef,62a43ddc847e3ec0bad8608d,,,,,,,,,,,,,,,,,,,,,,,,,,,,,,,,,,,,,,,,,,,,,,,,,,,,,,,,,,,,,,,,,,,,,,,,,,,,,,,,,,,,,,,,,,,,"[""period""]",0,[0.26880000000448945],56,0,56,0,1,,
,,,,,,,,,,,,603d3ff5158dc4c2130d811e,19,Kobieta,2022-06-11_09h02.04.221,task,2021.1.4,Win32,59.94844434,6299f149e92ead563fba08ef,62a43ddc847e3ec0bad8608d,,,,,,,,,,,,,,,,,,,,,,,,,,,,,,,,,,,,,,,,,,,,,,,,,,,,,,,,,,,,,,,,,,,,,,,,,,,,,,,,,,,,,,,,,,,,"[""period""]",0,[0.28670000000295204],57,0,57,0,1,,
,,,,,,,,,,,,603d3ff5158dc4c2130d811e,19,Kobieta,2022-06-11_09h02.04.221,task,2021.1.4,Win32,59.94844434,6299f149e92ead563fba08ef,62a43ddc847e3ec0bad8608d,,,,,,,,,,,,,,,,,,,,,,,,,,,,,,,,,,,,,,,,,,,,,,,,,,,,,,,,,,,,,,,,,,,,,,,,,,,,,,,,,,,,,,,,,,,,"[""period""]",0,[0.27730000000440214],58,0,58,0,1,,
,,,,,,,,,,,,603d3ff5158dc4c2130d811e,19,Kobieta,2022-06-11_09h02.04.221,task,2021.1.4,Win32,59.94844434,6299f149e92ead563fba08ef,62a43ddc847e3ec0bad8608d,,,,,,,,,,,,,,,,,,,,,,,,,,,,,,,,,,,,,,,,,,,,,,,,,,,,,,,,,,,,,,,,,,,,,,,,,,,,,,,,,,,,,,,,,,,,"[""comma""]",0,[0.27230000000452037],59,0,59,0,1,,
,,,,,,,,,,,,603d3ff5158dc4c2130d811e,19,Kobieta,2022-06-11_09h02.04.221,task,2021.1.4,Win32,59.94844434,6299f149e92ead563fba08ef,62a43ddc847e3ec0bad8608d,,,,,,,,,,,,,,,,,,,,,,,,,,,,,,,,,,,,,,,,,,,,,,,,,,,,,,,,,,,,,,,,,,,,,,,,,,,,,,,,,,,,,,,,,,,,"[""comma"",""period""]",0,"[0.2683000000043876,1.867300000004434]",60,0,60,0,1,,
,,,,,,,,,,,,603d3ff5158dc4c2130d811e,19,Kobieta,2022-06-11_09h02.04.221,task,2021.1.4,Win32,59.94844434,6299f149e92ead563fba08ef,62a43ddc847e3ec0bad8608d,,,,,,,,,,,,,,,,,,,,,,,,,,,,,,,,,,,,,,,,,,,,,,,,,,,,,,,,,,,,,,,,,,,,,,,,,,,,,,,,,,,,,,,,,,,,,0,,61,0,61,0,1,,
,,,,,,,,,,,,603d3ff5158dc4c2130d811e,19,Kobieta,2022-06-11_09h02.04.221,task,2021.1.4,Win32,59.94844434,6299f149e92ead563fba08ef,62a43ddc847e3ec0bad8608d,,,,,,,,,,,,,,,,,,,,,,,,,,,,,,,,,,,,,,,,,,,,,,,,,,,,,,,,,,,,,,,,,,,,,,,,,,,,,,,,,,,,,,,,,,,,"[""comma""]",0,[0.2833999999985508],62,0,62,0,1,,
,,,,,,,,,,,,603d3ff5158dc4c2130d811e,19,Kobieta,2022-06-11_09h02.04.221,task,2021.1.4,Win32,59.94844434,6299f149e92ead563fba08ef,62a43ddc847e3ec0bad8608d,,,,,,,,,,,,,,,,,,,,,,,,,,,,,,,,,,,,,,,,,,,,,,,,,,,,,,,,,,,,,,,,,,,,,,,,,,,,,,,,,,,,,,,,,,,,"[""period""]",0,[0.26220000000296295],63,0,63,0,1,,
,,,,,,,,,,,,603d3ff5158dc4c2130d811e,19,Kobieta,2022-06-11_09h02.04.221,task,2021.1.4,Win32,59.94844434,6299f149e92ead563fba08ef,62a43ddc847e3ec0bad8608d,,,,,,,,,,,,,,,,,,,,,,,,,,,,,,,,,,,,,,,,,,,,,,,,,,,,,,,,,,,,,,,,,,,,,,,,,,,,,,,,,,,,,,,,,,,,"[""comma""]",0,[0.28010000000142554],64,0,64,0,1,,
,,,,,,,,,,,,603d3ff5158dc4c2130d811e,19,Kobieta,2022-06-11_09h02.04.221,task,2021.1.4,Win32,59.94844434,6299f149e92ead563fba08ef,62a43ddc847e3ec0bad8608d,,,,,,,,,,,,,,,,,,,,,,,,,,,,,,,,,,,,,,,,,,,,,,,,,,,,,,,,,,,,,,,,,,,,,,,,,,,,,,,,,,,,,,,,,,,,"[""period""]",0,[0.34999999999990905],65,0,65,0,1,,
,,,,,,,,,,,,603d3ff5158dc4c2130d811e,19,Kobieta,2022-06-11_09h02.04.221,task,2021.1.4,Win32,59.94844434,6299f149e92ead563fba08ef,62a43ddc847e3ec0bad8608d,,,,,,,,,,,,,,,,,,,,,,,,,,,,,,,,,,,,,,,,,,,,,,,,,,,,,,,,,,,,,,,,,,,,,,,,,,,,,,,,,,,,,,,,,,,,"[""comma""]",0,[0.4598000000044067],66,0,66,0,1,,
,,,,,,,,,,,,603d3ff5158dc4c2130d811e,19,Kobieta,2022-06-11_09h02.04.221,task,2021.1.4,Win32,59.94844434,6299f149e92ead563fba08ef,62a43ddc847e3ec0bad8608d,,,,,,,,,,,,,,,,,,,,,,,,,,,,,,,,,,,,,,,,,,,,,,,,,,,,,,,,,,,,,,,,,,,,,,,,,,,,,,,,,,,,,,,,,,,,"[""period""]",0,[0.5358000000045422],67,0,67,0,1,,
,,,,,,,,,,,,603d3ff5158dc4c2130d811e,19,Kobieta,2022-06-11_09h02.04.221,task,2021.1.4,Win32,59.94844434,6299f149e92ead563fba08ef,62a43ddc847e3ec0bad8608d,,,,,,,,,,,,,,,,,,,,,,,,,,,,,,,,,,,,,,,,,,,,,,,,,,,,,,,,,,,,,,,,,,,,,,,,,,,,,,,,,,,,,,,,,,,,"[""comma""]",0,[0.48560000000145465],68,0,68,0,1,,
,,,,,,,,,,,,603d3ff5158dc4c2130d811e,19,Kobieta,2022-06-11_09h02.04.221,task,2021.1.4,Win32,59.94844434,6299f149e92ead563fba08ef,62a43ddc847e3ec0bad8608d,,,,,,,,,,,,,,,,,,,,,,,,,,,,,,,,,,,,,,,,,,,,,,,,,,,,,,,,,,,,,,,,,,,,,,,,,,,,,,,,,,,,,,,,,,,,"[""period""]",0,[0.5907000000030393],69,0,69,0,1,,
,,,,,,,,,,,,603d3ff5158dc4c2130d811e,19,Kobieta,2022-06-11_09h02.04.221,task,2021.1.4,Win32,59.94844434,6299f149e92ead563fba08ef,62a43ddc847e3ec0bad8608d,,,,,,,,,,,,,,,,,,,,,,,,,,,,,,,,,,,,,,,,,,,,,,,,,,,,,,,,,,,,,,,,,,,,,,,,,,,,,,,,,,,,,,,,,,,,"[""comma""]",0,[0.4267999999970016],70,0,70,0,1,,
,,,,,,,,,,,,603d3ff5158dc4c2130d811e,19,Kobieta,2022-06-11_09h02.04.221,task,2021.1.4,Win32,59.94844434,6299f149e92ead563fba08ef,62a43ddc847e3ec0bad8608d,,,,,,,,,,,,,,,,,,,,,,,,,,,,,,,,,,,,,,,,,,,,,,,,,,,,,,,,,,,,,,,,,,,,,,,,,,,,,,,,,,,,,,,,,,,,"[""comma""]",0,[0.3317000000030248],71,0,71,0,1,,
,,,,,,,,,,,,603d3ff5158dc4c2130d811e,19,Kobieta,2022-06-11_09h02.04.221,task,2021.1.4,Win32,59.94844434,6299f149e92ead563fba08ef,62a43ddc847e3ec0bad8608d,,,,,,,,,,,,,,,,,,,,,,,,,,,,,,,,,,,,,,,,,,,,,,,,,,,,,,,,,,,,,,,,,,,,,,,,,,,,,,,,,,,,,,,,,,,,"[""period""]",0,[0.26949999999999363],72,0,72,0,1,,
,,,,,,,,,,,,603d3ff5158dc4c2130d811e,19,Kobieta,2022-06-11_09h02.04.221,task,2021.1.4,Win32,59.94844434,6299f149e92ead563fba08ef,62a43ddc847e3ec0bad8608d,,,,,,,,,,,,,,,,,,,,,,,,,,,,,,,,,,,,,,,,,,,,,,,,,,,,,,,,,,,,,,,,,,,,,,,,,,,,,,,,,,,,,,,,,,,,"[""period""]",0,[0.38550000000009277],73,0,73,0,1,,
,,,,,,,,,,,,603d3ff5158dc4c2130d811e,19,Kobieta,2022-06-11_09h02.04.221,task,2021.1.4,Win32,59.94844434,6299f149e92ead563fba08ef,62a43ddc847e3ec0bad8608d,,,,,,,,,,,,,,,,,,,,,,,,,,,,,,,,,,,,,,,,,,,,,,,,,,,,,,,,,,,,,,,,,,,,,,,,,,,,,,,,,,,,,,,,,,,,"[""comma""]",0,[0.28420000000301116],74,0,74,0,1,,
,,,,,,,,,,,,603d3ff5158dc4c2130d811e,19,Kobieta,2022-06-11_09h02.04.221,task,2021.1.4,Win32,59.94844434,6299f149e92ead563fba08ef,62a43ddc847e3ec0bad8608d,,,,,,,,,,,,,,,,,,,,,,,,,,,,,,,,,,,,,,,,,,,,,,,,,,,,,,,,,,,,,,,,,,,,,,,,,,,,,,,,,,,,,,,,,,,,"[""comma""]",0,[0.28610000000151103],75,0,75,0,1,,
,,,,,,,,,,,,603d3ff5158dc4c2130d811e,19,Kobieta,2022-06-11_09h02.04.221,task,2021.1.4,Win32,59.94844434,6299f149e92ead563fba08ef,62a43ddc847e3ec0bad8608d,,,,,,,,,,,,,,,,,,,,,,,,,,,,,,,,,,,,,,,,,,,,,,,,,,,,,,,,,,,,,,,,,,,,,,,,,,,,,,,,,,,,,,,,,,,,"[""comma""]",0,[0.2821999999955551],76,0,76,0,1,,
,,,,,,,,,,,,603d3ff5158dc4c2130d811e,19,Kobieta,2022-06-11_09h02.04.221,task,2021.1.4,Win32,59.94844434,6299f149e92ead563fba08ef,62a43ddc847e3ec0bad8608d,,,,,,,,,,,,,,,,,,,,,,,,,,,,,,,,,,,,,,,,,,,,,,,,,,,,,,,,,,,,,,,,,,,,,,,,,,,,,,,,,,,,,,,,,,,,"[""period""]",0,[0.25499999999999545],77,0,77,0,1,,
,,,,,,,,,,,,603d3ff5158dc4c2130d811e,19,Kobieta,2022-06-11_09h02.04.221,task,2021.1.4,Win32,59.94844434,6299f149e92ead563fba08ef,62a43ddc847e3ec0bad8608d,,,,,,,,,,,,,,,,,,,,,,,,,,,,,,,,,,,,,,,,,,,,,,,,,,,,,,,,,,,,,,,,,,,,,,,,,,,,,,,,,,,,,,,,,,,,"[""period""]",0,[0.26779999999700976],78,0,78,0,1,,
,,,,,,,,,,,,603d3ff5158dc4c2130d811e,19,Kobieta,2022-06-11_09h02.04.221,task,2021.1.4,Win32,59.94844434,6299f149e92ead563fba08ef,62a43ddc847e3ec0bad8608d,,,,,,,,,,,,,,,,,,,,,,,,,,,,,,,,,,,,,,,,,,,,,,,,,,,,,,,,,,,,,,,,,,,,,,,,,,,,,,,,,,,,,,,,,,,,"[""comma""]",0,[0.25289999999847623],79,0,79,0,1,,
,,,,,,,,,,,,603d3ff5158dc4c2130d811e,19,Kobieta,2022-06-11_09h02.04.221,task,2021.1.4,Win32,59.94844434,6299f149e92ead563fba08ef,62a43ddc847e3ec0bad8608d,,,,,,,,,,,,,,,,,,,,,,,,,,,,,,,,,,,,,,,,,,,,,,,,,,,,,,,,,,,,,,,,,,,,,,,,,,,,,,,,,,,,,,,,,,,,"[""period""]",0,[0.0538999999985208],80,0,80,0,1,,
,,,,,,,,,,,,603d3ff5158dc4c2130d811e,19,Kobieta,2022-06-11_09h02.04.221,task,2021.1.4,Win32,59.94844434,6299f149e92ead563fba08ef,62a43ddc847e3ec0bad8608d,,,,,,,,,,,,,,,,,,,,,,,,,,,,,,,,,,,,,,,,,,,,,,,,,,,,,,,,,,,,,,,,,,,,,,,,,,,,,,,,,,,,,,,,,,,,"[""period""]",0,[0.31790000000603413],81,0,81,0,1,,
,,,,,,,,,,,,603d3ff5158dc4c2130d811e,19,Kobieta,2022-06-11_09h02.04.221,task,2021.1.4,Win32,59.94844434,6299f149e92ead563fba08ef,62a43ddc847e3ec0bad8608d,,,,,,,,,,,,,,,,,,,,,,,,,,,,,,,,,,,,,,,,,,,,,,,,,,,,,,,,,,,,,,,,,,,,,,,,,,,,,,,,,,,,,,,,,,,,"[""period""]",0,[0.30880000000445307],82,0,82,0,1,,
,,,,,,,,,,,,603d3ff5158dc4c2130d811e,19,Kobieta,2022-06-11_09h02.04.221,task,2021.1.4,Win32,59.94844434,6299f149e92ead563fba08ef,62a43ddc847e3ec0bad8608d,,,,,,,,,,,,,,,,,,,,,,,,,,,,,,,,,,,,,,,,,,,,,,,,,,,,,,,,,,,,,,,,,,,,,,,,,,,,,,,,,,,,,,,,,,,,"[""comma""]",0,[0.263599999994085],83,0,83,0,1,,
,,,,,,,,,,,,603d3ff5158dc4c2130d811e,19,Kobieta,2022-06-11_09h02.04.221,task,2021.1.4,Win32,59.94844434,6299f149e92ead563fba08ef,62a43ddc847e3ec0bad8608d,,,,,,,,,,,,,,,,,,,,,,,,,,,,,,,,,,,,,,,,,,,,,,,,,,,,,,,,,,,,,,,,,,,,,,,,,,,,,,,,,,,,,,,,,,,,"[""period""]",0,[0.3284999999999627],84,0,84,0,1,,
,,,,,,,,,,,,603d3ff5158dc4c2130d811e,19,Kobieta,2022-06-11_09h02.04.221,task,2021.1.4,Win32,59.94844434,6299f149e92ead563fba08ef,62a43ddc847e3ec0bad8608d,,,,,,,,,,,,,,,,,,,,,,,,,,,,,,,,,,,,,,,,,,,,,,,,,,,,,,,,,,,,,,,,,,,,,,,,,,,,,,,,,,,,,,,,,,,,"[""comma""]",0,[0.256300000004444],85,0,85,0,1,,
,,,,,,,,,,,,603d3ff5158dc4c2130d811e,19,Kobieta,2022-06-11_09h02.04.221,task,2021.1.4,Win32,59.94844434,6299f149e92ead563fba08ef,62a43ddc847e3ec0bad8608d,,,,,,,,,,,,,,,,,,,,,,,,,,,,,,,,,,,,,,,,,,,,,,,,,,,,,,,,,,,,,,,,,,,,,,,,,,,,,,,,,,,,,,,,,,,,"[""period""]",0,[0.32039999999858537],86,0,86,0,1,,
,,,,,,,,,,,,603d3ff5158dc4c2130d811e,19,Kobieta,2022-06-11_09h02.04.221,task,2021.1.4,Win32,59.94844434,6299f149e92ead563fba08ef,62a43ddc847e3ec0bad8608d,,,,,,,,,,,,,,,,,,,,,,,,,,,,,,,,,,,,,,,,,,,,,,,,,,,,,,,,,,,,,,,,,,,,,,,,,,,,,,,,,,,,,,,,,,,,"[""comma""]",0,[0.3169000000060578],87,0,87,0,1,,
,,,,,,,,,,,,603d3ff5158dc4c2130d811e,19,Kobieta,2022-06-11_09h02.04.221,task,2021.1.4,Win32,59.94844434,6299f149e92ead563fba08ef,62a43ddc847e3ec0bad8608d,,,,,,,,,,,,,,,,,,,,,,,,,,,,,,,,,,,,,,,,,,,,,,,,,,,,,,,,,,,,,,,,,,,,,,,,,,,,,,,,,,,,,,,,,,,,"[""period""]",0,[0.05030000000442669],88,0,88,0,1,,
,,,,,,,,,,,,603d3ff5158dc4c2130d811e,19,Kobieta,2022-06-11_09h02.04.221,task,2021.1.4,Win32,59.94844434,6299f149e92ead563fba08ef,62a43ddc847e3ec0bad8608d,,,,,,,,,,,,,,,,,,,,,,,,,,,,,,,,,,,,,,,,,,,,,,,,,,,,,,,,,,,,,,,,,,,,,,,,,,,,,,,,,,,,,,,,,,,,"[""period""]",0,[0.10820000000296659],89,0,89,0,1,,
,,,,,,,,,,,,603d3ff5158dc4c2130d811e,19,Kobieta,2022-06-11_09h02.04.221,task,2021.1.4,Win32,59.94844434,6299f149e92ead563fba08ef,62a43ddc847e3ec0bad8608d,,,,,,,,,,,,,,,,,,,,,,,,,,,,,,,,,,,,,,,,,,,,,,,,,,,,,,,,,,,,,,,,,,,,,,,,,,,,,,,,,,,,,,,,,,,,"[""comma""]",0,[0.16710000000148284],90,0,90,0,1,,
,,,,,,,,,,,,603d3ff5158dc4c2130d811e,19,Kobieta,2022-06-11_09h02.04.221,task,2021.1.4,Win32,59.94844434,6299f149e92ead563fba08ef,62a43ddc847e3ec0bad8608d,,,,,,,,,,,,,,,,,,,,,,,,,,,,,,,,,,,,,,,,,,,,,,,,,,,,,,,,,,,,,,,,,,,,,,,,,,,,,,,,,,,,,,,,,,,,"[""comma""]",0,[0.27680000000441396],91,0,91,0,1,,
,,,,,,,,,,,,603d3ff5158dc4c2130d811e,19,Kobieta,2022-06-11_09h02.04.221,task,2021.1.4,Win32,59.94844434,6299f149e92ead563fba08ef,62a43ddc847e3ec0bad8608d,,,,,,,,,,,,,,,,,,,,,,,,,,,,,,,,,,,,,,,,,,,,,,,,,,,,,,,,,,,,,,,,,,,,,,,,,,,,,,,,,,,,,,,,,,,,"[""period""]",0,[0.26680000000453674],92,0,92,0,1,,
,,,,,,,,,,,,603d3ff5158dc4c2130d811e,19,Kobieta,2022-06-11_09h02.04.221,task,2021.1.4,Win32,59.94844434,6299f149e92ead563fba08ef,62a43ddc847e3ec0bad8608d,,,,,,,,,,,,,,,,,,,,,,,,,,,,,,,,,,,,,,,,,,,,,,,,,,,,,,,,,,,,,,,,,,,,,,,,,,,,,,,,,,,,,,,,,,,,"[""period""]",0,[0.26870000000292293],93,0,93,0,1,,
,,,,,,,,,,,,603d3ff5158dc4c2130d811e,19,Kobieta,2022-06-11_09h02.04.221,task,2021.1.4,Win32,59.94844434,6299f149e92ead563fba08ef,62a43ddc847e3ec0bad8608d,,,,,,,,,,,,,,,,,,,,,,,,,,,,,,,,,,,,,,,,,,,,,,,,,,,,,,,,,,,,,,,,,,,,,,,,,,,,,,,,,,,,,,,,,,,,"[""comma""]",0,[0.2757000000029848],94,0,94,0,1,,
,,,,,,,,,,,,603d3ff5158dc4c2130d811e,19,Kobieta,2022-06-11_09h02.04.221,task,2021.1.4,Win32,59.94844434,6299f149e92ead563fba08ef,62a43ddc847e3ec0bad8608d,,,,,,,,,,,,,,,,,,,,,,,,,,,,,,,,,,,,,,,,,,,,,,,,,,,,,,,,,,,,,,,,,,,,,,,,,,,,,,,,,,,,,,,,,,,,"[""period""]",0,[0.32270000000289656],95,0,95,0,1,,
,,,,,,,,,,,,603d3ff5158dc4c2130d811e,19,Kobieta,2022-06-11_09h02.04.221,task,2021.1.4,Win32,59.94844434,6299f149e92ead563fba08ef,62a43ddc847e3ec0bad8608d,,,,,,,,,,,,,,,,,,,,,,,,,,,,,,,,,,,,,,,,,,,,,,,,,,,,,,,,,,,,,,,,,,,,,,,,,,,,,,,,,,,,,,,,,,,,"[""comma""]",0,[0.30160000000148557],96,0,96,0,1,,
,,,,,,,,,,,,603d3ff5158dc4c2130d811e,19,Kobieta,2022-06-11_09h02.04.221,task,2021.1.4,Win32,59.94844434,6299f149e92ead563fba08ef,62a43ddc847e3ec0bad8608d,,,,,,,,,,,,,,,,,,,,,,,,,,,,,,,,,,,,,,,,,,,,,,,,,,,,,,,,,,,,,,,,,,,,,,,,,,,,,,,,,,,,,,,,,,,,"[""period""]",0,[0.3378000000045631],97,0,97,0,1,,
,,,,,,,,,,,,603d3ff5158dc4c2130d811e,19,Kobieta,2022-06-11_09h02.04.221,task,2021.1.4,Win32,59.94844434,6299f149e92ead563fba08ef,62a43ddc847e3ec0bad8608d,,,,,,,,,,,,,,,,,,,,,,,,,,,,,,,,,,,,,,,,,,,,,,,,,,,,,,,,,,,,,,,,,,,,,,,,,,,,,,,,,,,,,,,,,,,,"[""period""]",0,[0.44170000000303844],98,0,98,0,1,,
,,,,,,,,,,,,603d3ff5158dc4c2130d811e,19,Kobieta,2022-06-11_09h02.04.221,task,2021.1.4,Win32,59.94844434,6299f149e92ead563fba08ef,62a43ddc847e3ec0bad8608d,,,,,,,,,,,,,,,,,,,,,,,,,,,,,,,,,,,,,,,,,,,,,,,,,,,,,,,,,,,,,,,,,,,,,,,,,,,,,,,,,,,,,,,,,,,,"[""comma""]",0,[0.3283000000044467],99,0,99,0,1,,
,,,,,,,,,,,,603d3ff5158dc4c2130d811e,19,Kobieta,2022-06-11_09h02.04.221,task,2021.1.4,Win32,59.94844434,6299f149e92ead563fba08ef,62a43ddc847e3ec0bad8608d,,,,,,,,,,,,,,,,,,,,,,,,,,,,,,,,,,,,,,,,,,,,,,,,,,,,,,,,,,,,,,,,,,,,,,,,,,,,,,,,,,,,,,,,,,,,"[""comma""]",0,[0.29020000000298296],100,0,100,0,1,,
,,,,,,,,,,,,603d3ff5158dc4c2130d811e,19,Kobieta,2022-06-11_09h02.04.221,task,2021.1.4,Win32,59.94844434,6299f149e92ead563fba08ef,62a43ddc847e3ec0bad8608d,,,,,,,,,,,,,,,,,,,,,,,,,,,,,,,,,,,,,,,,,,,,,,,,,,,,,,,,,,,,,,,,,,,,,,,,,,,,,,,,,,,,,,,,,,,,"[""period""]",0,[0.2738000000043712],101,0,101,0,1,,
,,,,,,,,,,,,603d3ff5158dc4c2130d811e,19,Kobieta,2022-06-11_09h02.04.221,task,2021.1.4,Win32,59.94844434,6299f149e92ead563fba08ef,62a43ddc847e3ec0bad8608d,,,,,,,,,,,,,,,,,,,,,,,,,,,,,,,,,,,,,,,,,,,,,,,,,,,,,,,,,,,,,,,,,,,,,,,,,,,,,,,,,,,,,,,,,,,,"[""comma""]",0,[0.24710000000152377],102,0,102,0,1,,
,,,,,,,,,,,,603d3ff5158dc4c2130d811e,19,Kobieta,2022-06-11_09h02.04.221,task,2021.1.4,Win32,59.94844434,6299f149e92ead563fba08ef,62a43ddc847e3ec0bad8608d,,,,,,,,,,,,,,,,,,,,,,,,,,,,,,,,,,,,,,,,,,,,,,,,,,,,,,,,,,,,,,,,,,,,,,,,,,,,,,,,,,,,,,,,,,,,"[""period""]",0,[0.28360000000145646],103,0,103,0,1,,
,,,,,,,,,,,,603d3ff5158dc4c2130d811e,19,Kobieta,2022-06-11_09h02.04.221,task,2021.1.4,Win32,59.94844434,6299f149e92ead563fba08ef,62a43ddc847e3ec0bad8608d,,,,,,,,,,,,,,,,,,,,,,,,,,,,,,,,,,,,,,,,,,,,,,,,,,,,,,,,,,,,,,,,,,,,,,,,,,,,,,,,,,,,,,,,,,,,"[""comma""]",0,[0.22210000000143282],104,0,104,0,1,,
,,,,,,,,,,,,603d3ff5158dc4c2130d811e,19,Kobieta,2022-06-11_09h02.04.221,task,2021.1.4,Win32,59.94844434,6299f149e92ead563fba08ef,62a43ddc847e3ec0bad8608d,,,,,,,,,,,,,,,,,,,,,,,,,,,,,,,,,,,,,,,,,,,,,,,,,,,,,,,,,,,,,,,,,,,,,,,,,,,,,,,,,,,,,,,,,,,,"[""period""]",0,[0.200899999998569],105,0,105,0,1,,
,,,,,,,,,,,,603d3ff5158dc4c2130d811e,19,Kobieta,2022-06-11_09h02.04.221,task,2021.1.4,Win32,59.94844434,6299f149e92ead563fba08ef,62a43ddc847e3ec0bad8608d,,,,,,,,,,,,,,,,,,,,,,,,,,,,,,,,,,,,,,,,,,,,,,,,,,,,,,,,,,,,,,,,,,,,,,,,,,,,,,,,,,,,,,,,,,,,"[""period""]",0,[0.2540000000000191],106,0,106,0,1,,
,,,,,,,,,,,,603d3ff5158dc4c2130d811e,19,Kobieta,2022-06-11_09h02.04.221,task,2021.1.4,Win32,59.94844434,6299f149e92ead563fba08ef,62a43ddc847e3ec0bad8608d,,,,,,,,,,,,,,,,,,,,,,,,,,,,,,,,,,,,,,,,,,,,,,,,,,,,,,,,,,,,,,,,,,,,,,,,,,,,,,,,,,,,,,,,,,,,"[""comma""]",0,[0.2957000000029666],107,0,107,0,1,,
,,,,,,,,,,,,603d3ff5158dc4c2130d811e,19,Kobieta,2022-06-11_09h02.04.221,task,2021.1.4,Win32,59.94844434,6299f149e92ead563fba08ef,62a43ddc847e3ec0bad8608d,,,,,,,,,,,,,,,,,,,,,,,,,,,,,,,,,,,,,,,,,,,,,,,,,,,,,,,,,,,,,,,,,,,,,,,,,,,,,,,,,,,,,,,,,,,,"[""comma""]",0,[0.27949999999998454],108,0,108,0,1,,
,,,,,,,,,,,,603d3ff5158dc4c2130d811e,19,Kobieta,2022-06-11_09h02.04.221,task,2021.1.4,Win32,59.94844434,6299f149e92ead563fba08ef,62a43ddc847e3ec0bad8608d,,,,,,,,,,,,,,,,,,,,,,,,,,,,,,,,,,,,,,,,,,,,,,,,,,,,,,,,,,,,,,,,,,,,,,,,,,,,,,,,,,,,,,,,,,,,"[""period"",""comma""]",0,"[0.27560000000153195,0.8976000000014892]",109,0,109,0,1,,
,,,,,,,,,,,,603d3ff5158dc4c2130d811e,19,Kobieta,2022-06-11_09h02.04.221,task,2021.1.4,Win32,59.94844434,6299f149e92ead563fba08ef,62a43ddc847e3ec0bad8608d,,,,,,,,,,,,,,,,,,,,,,,,,,,,,,,,,,,,,,,,,,,,,,,,,,,,,,,,,,,,,,,,,,,,,,,,,,,,,,,,,,,,,,,,,,,,,0,,110,0,110,0,1,,
,,,,,,,,,,,,603d3ff5158dc4c2130d811e,19,Kobieta,2022-06-11_09h02.04.221,task,2021.1.4,Win32,59.94844434,6299f149e92ead563fba08ef,62a43ddc847e3ec0bad8608d,,,,,,,,,,,,,,,,,,,,,,,,,,,,,,,,,,,,,,,,,,,,,,,,,,,,,,,,,,,,,,,,,,,,,,,,,,,,,,,,,,,,,,,,,,,,"[""comma"",""period""]",0,"[0.318399999998519,0.8155000000000427]",111,0,111,0,1,,
,,,,,,,,,,,,603d3ff5158dc4c2130d811e,19,Kobieta,2022-06-11_09h02.04.221,task,2021.1.4,Win32,59.94844434,6299f149e92ead563fba08ef,62a43ddc847e3ec0bad8608d,,,,,,,,,,,,,,,,,,,,,,,,,,,,,,,,,,,,,,,,,,,,,,,,,,,,,,,,,,,,,,,,,,,,,,,,,,,,,,,,,,,,,,,,,,,,,0,,112,0,112,0,1,,
,,,,,,,,,,,,603d3ff5158dc4c2130d811e,19,Kobieta,2022-06-11_09h02.04.221,task,2021.1.4,Win32,59.94844434,6299f149e92ead563fba08ef,62a43ddc847e3ec0bad8608d,,,,,,,,,,,,,,,,,,,,,,,,,,,,,,,,,,,,,,,,,,,,,,,,,,,,,,,,,,,,,,,,,,,,,,,,,,,,,,,,,,,,,,,,,,,,"[""period""]",0,[0.34539999999856263],113,0,113,0,1,,
,,,,,,,,,,,,603d3ff5158dc4c2130d811e,19,Kobieta,2022-06-11_09h02.04.221,task,2021.1.4,Win32,59.94844434,6299f149e92ead563fba08ef,62a43ddc847e3ec0bad8608d,,,,,,,,,,,,,,,,,,,,,,,,,,,,,,,,,,,,,,,,,,,,,,,,,,,,,,,,,,,,,,,,,,,,,,,,,,,,,,,,,,,,,,,,,,,,"[""comma""]",0,[0.3013999999986936],114,0,114,0,1,,
,,,,,,,,,,,,603d3ff5158dc4c2130d811e,19,Kobieta,2022-06-11_09h02.04.221,task,2021.1.4,Win32,59.94844434,6299f149e92ead563fba08ef,62a43ddc847e3ec0bad8608d,,,,,,,,,,,,,,,,,,,,,,,,,,,,,,,,,,,,,,,,,,,,,,,,,,,,,,,,,,,,,,,,,,,,,,,,,,,,,,,,,,,,,,,,,,,,"[""period""]",0,[0.3881000000014865],115,0,115,0,1,,
,,,,,,,,,,,,603d3ff5158dc4c2130d811e,19,Kobieta,2022-06-11_09h02.04.221,task,2021.1.4,Win32,59.94844434,6299f149e92ead563fba08ef,62a43ddc847e3ec0bad8608d,,,,,,,,,,,,,,,,,,,,,,,,,,,,,,,,,,,,,,,,,,,,,,,,,,,,,,,,,,,,,,,,,,,,,,,,,,,,,,,,,,,,,,,,,,,,"[""comma""]",0,[0.3338999999984935],116,0,116,0,1,,
,,,,,,,,,,,,603d3ff5158dc4c2130d811e,19,Kobieta,2022-06-11_09h02.04.221,task,2021.1.4,Win32,59.94844434,6299f149e92ead563fba08ef,62a43ddc847e3ec0bad8608d,,,,,,,,,,,,,,,,,,,,,,,,,,,,,,,,,,,,,,,,,,,,,,,,,,,,,,,,,,,,,,,,,,,,,,,,,,,,,,,,,,,,,,,,,,,,"[""period""]",0,[0.277799999996887],117,0,117,0,1,,
,,,,,,,,,,,,603d3ff5158dc4c2130d811e,19,Kobieta,2022-06-11_09h02.04.221,task,2021.1.4,Win32,59.94844434,6299f149e92ead563fba08ef,62a43ddc847e3ec0bad8608d,,,,,,,,,,,,,,,,,,,,,,,,,,,,,,,,,,,,,,,,,,,,,,,,,,,,,,,,,,,,,,,,,,,,,,,,,,,,,,,,,,,,,,,,,,,,"[""period""]",0,[0.25579999999695247],118,0,118,0,1,,
,,,,,,,,,,,,603d3ff5158dc4c2130d811e,19,Kobieta,2022-06-11_09h02.04.221,task,2021.1.4,Win32,59.94844434,6299f149e92ead563fba08ef,62a43ddc847e3ec0bad8608d,,,,,,,,,,,,,,,,,,,,,,,,,,,,,,,,,,,,,,,,,,,,,,,,,,,,,,,,,,,,,,,,,,,,,,,,,,,,,,,,,,,,,,,,,,,,"[""comma""]",0,[0.2918999999985772],119,0,119,0,1,,
,,,,,,,,,,,,603d3ff5158dc4c2130d811e,19,Kobieta,2022-06-11_09h02.04.221,task,2021.1.4,Win32,59.94844434,6299f149e92ead563fba08ef,62a43ddc847e3ec0bad8608d,,,,,,,,,,,,,,,,,,,,,,,,,,,,,,,,,,,,,,,,,,,,,,,,,,,,,,,,,,,,,,,,,,,,,,,,,,,,,,,,,,,,,,,,,,,,,,,,,,,,space,2.0072
