key_resp_15.keys,key_resp_15.rt,key_resp_16.keys,key_resp_16.rt,key_resp_4.keys,key_resp_4.rt,next_letter.thisRepN,next_letter.thisTrialN,next_letter.thisN,next_letter.thisIndex,next_letter.ran,letter,participant,Wiek*,Płeć,date,expName,psychopyVersion,OS,frameRate,study_id,session,simple_recall,key_resp_5.keys,key_resp_5.rt,simple_recall_corr,simple_recall_corrkeys,next_level.thisRepN,next_level.thisTrialN,next_level.thisN,next_level.thisIndex,next_level.ran,key_resp_2.keys,key_resp_2.rt,digit_answer,key_resp.keys,key_resp.corr,key_resp.rt,RT_list,next_equation.thisRepN,next_equation.thisTrialN,next_equation.thisN,next_equation.thisIndex,next_equation.ran,Task,Trial,Problem,Operation_answer,processing_score,sumRT,meanRT,sumdiff,sd,RT,key_resp_3.keys,key_resp_3.rt,repeat_practice.thisRepN,repeat_practice.thisTrialN,repeat_practice.thisN,repeat_practice.thisIndex,repeat_practice.ran,key_resp_6.keys,key_resp_6.rt,key_resp_11.keys,key_resp_11.corr,key_resp_11.rt,operation_correct,repeat_if_wrong_prac.thisRepN,repeat_if_wrong_prac.thisTrialN,repeat_if_wrong_prac.thisN,repeat_if_wrong_prac.thisIndex,repeat_if_wrong_prac.ran,span_size_prac.thisRepN,span_size_prac.thisTrialN,span_size_prac.thisN,span_size_prac.thisIndex,span_size_prac.ran,complex_recall_practice,key_resp_9.keys,key_resp_9.corr,key_resp_9.rt,complex_prac_corr,span_recall_prac.thisRepN,span_recall_prac.thisTrialN,span_recall_prac.thisN,span_recall_prac.thisIndex,span_recall_prac.ran,key_resp_10.keys,key_resp_10.rt,key_resp_7.keys,key_resp_7.corr,key_resp_7.rt,repeat_if_wrong.thisRepN,repeat_if_wrong.thisTrialN,repeat_if_wrong.thisN,repeat_if_wrong.thisIndex,repeat_if_wrong.ran,span_size.thisRepN,span_size.thisTrialN,span_size.thisN,span_size.thisIndex,span_size.ran,complex_recall,key_resp_8.keys,key_resp_8.corr,key_resp_8.rt,complex_recall_corr,complex_recall_corrkeys,span_recall.thisRepN,span_recall.thisTrialN,span_recall.thisN,span_recall.thisIndex,span_recall.ran,key_resp_13.keys,key_resp_13.corr,key_resp_13.rt,random_loop.thisRepN,random_loop.thisTrialN,random_loop.thisN,random_loop.thisIndex,random_loop.ran,key_resp_12.keys,key_resp_12.rt
space,6.2607,space,12.674,space,6.1694,0,0,0,0,1,X V Q F H G B L J M P D K C T S W R N Z,603e5aad160c3ee04e07e8d3,26,Mężczyzna,2022-06-11_09h05.05.036,task,2021.1.4,Win32,143.7607821,6299f149e92ead563fba08ef,62a43e88fb74fa26fa86d202,,,,,,,,,,,,,,,,,,,,,,,,,,,,,,,,,,,,,,,,,,,,,,,,,,,,,,,,,,,,,,,,,,,,,,,,,,,,,,,,,,,,,,,,,,,,,,,,,,,,,
,,,,,,1,0,1,0,1,X V Q F H G B L J M P D K C T S W R N Z,603e5aad160c3ee04e07e8d3,26,Mężczyzna,2022-06-11_09h05.05.036,task,2021.1.4,Win32,143.7607821,6299f149e92ead563fba08ef,62a43e88fb74fa26fa86d202,,,,,,,,,,,,,,,,,,,,,,,,,,,,,,,,,,,,,,,,,,,,,,,,,,,,,,,,,,,,,,,,,,,,,,,,,,,,,,,,,,,,,,,,,,,,,,,,,,,,,
,,,,,,,,,,,,603e5aad160c3ee04e07e8d3,26,Mężczyzna,2022-06-11_09h05.05.036,task,2021.1.4,Win32,143.7607821,6299f149e92ead563fba08ef,62a43e88fb74fa26fa86d202,zs,"[""z"",""s""]","[1.7512000000029744,2.0482000000029785,3.1273000000044675]",1,ZS,0,0,0,0,1,,,,,,,,,,,,,,,,,,,,,,,,,,,,,,,,,,,,,,,,,,,,,,,,,,,,,,,,,,,,,,,,,,,,,,,,,,,,,,,,,,,,,,,,,,,
,,,,,,0,0,0,0,1,X V Q F H G B L J M P D K C T S W R N Z,603e5aad160c3ee04e07e8d3,26,Mężczyzna,2022-06-11_09h05.05.036,task,2021.1.4,Win32,143.7607821,6299f149e92ead563fba08ef,62a43e88fb74fa26fa86d202,,,,,,,,,,,,,,,,,,,,,,,,,,,,,,,,,,,,,,,,,,,,,,,,,,,,,,,,,,,,,,,,,,,,,,,,,,,,,,,,,,,,,,,,,,,,,,,,,,,,,
,,,,,,1,0,1,0,1,X V Q F H G B L J M P D K C T S W R N Z,603e5aad160c3ee04e07e8d3,26,Mężczyzna,2022-06-11_09h05.05.036,task,2021.1.4,Win32,143.7607821,6299f149e92ead563fba08ef,62a43e88fb74fa26fa86d202,,,,,,,,,,,,,,,,,,,,,,,,,,,,,,,,,,,,,,,,,,,,,,,,,,,,,,,,,,,,,,,,,,,,,,,,,,,,,,,,,,,,,,,,,,,,,,,,,,,,,
,,,,,,,,,,,,603e5aad160c3ee04e07e8d3,26,Mężczyzna,2022-06-11_09h05.05.036,task,2021.1.4,Win32,143.7607821,6299f149e92ead563fba08ef,62a43e88fb74fa26fa86d202,rm,"[""r"",""m""]","[1.160499999999999,1.4403999999985047,1.7762999999970148]",1,RM,1,0,1,0,1,,,,,,,,,,,,,,,,,,,,,,,,,,,,,,,,,,,,,,,,,,,,,,,,,,,,,,,,,,,,,,,,,,,,,,,,,,,,,,,,,,,,,,,,,,,
,,,,,,0,0,0,0,1,X V Q F H G B L J M P D K C T S W R N Z,603e5aad160c3ee04e07e8d3,26,Mężczyzna,2022-06-11_09h05.05.036,task,2021.1.4,Win32,143.7607821,6299f149e92ead563fba08ef,62a43e88fb74fa26fa86d202,,,,,,,,,,,,,,,,,,,,,,,,,,,,,,,,,,,,,,,,,,,,,,,,,,,,,,,,,,,,,,,,,,,,,,,,,,,,,,,,,,,,,,,,,,,,,,,,,,,,,
,,,,,,1,0,1,0,1,X V Q F H G B L J M P D K C T S W R N Z,603e5aad160c3ee04e07e8d3,26,Mężczyzna,2022-06-11_09h05.05.036,task,2021.1.4,Win32,143.7607821,6299f149e92ead563fba08ef,62a43e88fb74fa26fa86d202,,,,,,,,,,,,,,,,,,,,,,,,,,,,,,,,,,,,,,,,,,,,,,,,,,,,,,,,,,,,,,,,,,,,,,,,,,,,,,,,,,,,,,,,,,,,,,,,,,,,,
,,,,,,2,0,2,0,1,X V Q F H G B L J M P D K C T S W R N Z,603e5aad160c3ee04e07e8d3,26,Mężczyzna,2022-06-11_09h05.05.036,task,2021.1.4,Win32,143.7607821,6299f149e92ead563fba08ef,62a43e88fb74fa26fa86d202,,,,,,,,,,,,,,,,,,,,,,,,,,,,,,,,,,,,,,,,,,,,,,,,,,,,,,,,,,,,,,,,,,,,,,,,,,,,,,,,,,,,,,,,,,,,,,,,,,,,,
,,,,,,,,,,,,603e5aad160c3ee04e07e8d3,26,Mężczyzna,2022-06-11_09h05.05.036,task,2021.1.4,Win32,143.7607821,6299f149e92ead563fba08ef,62a43e88fb74fa26fa86d202,bpv,"[""b"",""p"",""v""]","[0.6637999999970177,0.9756000000014851,1.511499999999998,1.7442000000029765]",1,BPV,2,0,2,0,1,,,,,,,,,,,,,,,,,,,,,,,,,,,,,,,,,,,,,,,,,,,,,,,,,,,,,,,,,,,,,,,,,,,,,,,,,,,,,,,,,,,,,,,,,,,
,,,,,,0,0,0,0,1,X V Q F H G B L J M P D K C T S W R N Z,603e5aad160c3ee04e07e8d3,26,Mężczyzna,2022-06-11_09h05.05.036,task,2021.1.4,Win32,143.7607821,6299f149e92ead563fba08ef,62a43e88fb74fa26fa86d202,,,,,,,,,,,,,,,,,,,,,,,,,,,,,,,,,,,,,,,,,,,,,,,,,,,,,,,,,,,,,,,,,,,,,,,,,,,,,,,,,,,,,,,,,,,,,,,,,,,,,
,,,,,,1,0,1,0,1,X V Q F H G B L J M P D K C T S W R N Z,603e5aad160c3ee04e07e8d3,26,Mężczyzna,2022-06-11_09h05.05.036,task,2021.1.4,Win32,143.7607821,6299f149e92ead563fba08ef,62a43e88fb74fa26fa86d202,,,,,,,,,,,,,,,,,,,,,,,,,,,,,,,,,,,,,,,,,,,,,,,,,,,,,,,,,,,,,,,,,,,,,,,,,,,,,,,,,,,,,,,,,,,,,,,,,,,,,
,,,,,,2,0,2,0,1,X V Q F H G B L J M P D K C T S W R N Z,603e5aad160c3ee04e07e8d3,26,Mężczyzna,2022-06-11_09h05.05.036,task,2021.1.4,Win32,143.7607821,6299f149e92ead563fba08ef,62a43e88fb74fa26fa86d202,,,,,,,,,,,,,,,,,,,,,,,,,,,,,,,,,,,,,,,,,,,,,,,,,,,,,,,,,,,,,,,,,,,,,,,,,,,,,,,,,,,,,,,,,,,,,,,,,,,,,
,,,,,,,,,,,,603e5aad160c3ee04e07e8d3,26,Mężczyzna,2022-06-11_09h05.05.036,task,2021.1.4,Win32,143.7607821,6299f149e92ead563fba08ef,62a43e88fb74fa26fa86d202,shp,"[""s"",""h"",""p""]","[1.055899999998509,1.2102999999970194,1.6113999999985111,2.034399999998513]",1,SHP,3,0,3,0,1,,,,,,,,,,,,,,,,,,,,,,,,,,,,,,,,,,,,,,,,,,,,,,,,,,,,,,,,,,,,,,,,,,,,,,,,,,,,,,,,,,,,,,,,,,,
,,,,,,0,0,0,0,1,X V Q F H G B L J M P D K C T S W R N Z,603e5aad160c3ee04e07e8d3,26,Mężczyzna,2022-06-11_09h05.05.036,task,2021.1.4,Win32,143.7607821,6299f149e92ead563fba08ef,62a43e88fb74fa26fa86d202,,,,,,,,,,,,,,,,,,,,,,,,,,,,,,,,,,,,,,,,,,,,,,,,,,,,,,,,,,,,,,,,,,,,,,,,,,,,,,,,,,,,,,,,,,,,,,,,,,,,,
,,,,,,1,0,1,0,1,X V Q F H G B L J M P D K C T S W R N Z,603e5aad160c3ee04e07e8d3,26,Mężczyzna,2022-06-11_09h05.05.036,task,2021.1.4,Win32,143.7607821,6299f149e92ead563fba08ef,62a43e88fb74fa26fa86d202,,,,,,,,,,,,,,,,,,,,,,,,,,,,,,,,,,,,,,,,,,,,,,,,,,,,,,,,,,,,,,,,,,,,,,,,,,,,,,,,,,,,,,,,,,,,,,,,,,,,,
,,,,,,2,0,2,0,1,X V Q F H G B L J M P D K C T S W R N Z,603e5aad160c3ee04e07e8d3,26,Mężczyzna,2022-06-11_09h05.05.036,task,2021.1.4,Win32,143.7607821,6299f149e92ead563fba08ef,62a43e88fb74fa26fa86d202,,,,,,,,,,,,,,,,,,,,,,,,,,,,,,,,,,,,,,,,,,,,,,,,,,,,,,,,,,,,,,,,,,,,,,,,,,,,,,,,,,,,,,,,,,,,,,,,,,,,,
,,,,,,3,0,3,0,1,X V Q F H G B L J M P D K C T S W R N Z,603e5aad160c3ee04e07e8d3,26,Mężczyzna,2022-06-11_09h05.05.036,task,2021.1.4,Win32,143.7607821,6299f149e92ead563fba08ef,62a43e88fb74fa26fa86d202,,,,,,,,,,,,,,,,,,,,,,,,,,,,,,,,,,,,,,,,,,,,,,,,,,,,,,,,,,,,,,,,,,,,,,,,,,,,,,,,,,,,,,,,,,,,,,,,,,,,,
,,,,,,,,,,,,603e5aad160c3ee04e07e8d3,26,Mężczyzna,2022-06-11_09h05.05.036,task,2021.1.4,Win32,143.7607821,6299f149e92ead563fba08ef,62a43e88fb74fa26fa86d202,mnnr,"[""m"",""n"",""n"",""r""]","[0.5820000000000007,0.8624999999999972,1.0378999999985083,1.301799999997023,1.5559999999999974]",1,MNNR,4,0,4,0,1,,,,,,,,,,,,,,,,,,,,,,,,,,,,,,,,,,,,,,,,,,,,,,,,,,,,,,,,,,,,,,,,,,,,,,,,,,,,,,,,,,,,,,,,,,,
,,,,,,0,0,0,0,1,X V Q F H G B L J M P D K C T S W R N Z,603e5aad160c3ee04e07e8d3,26,Mężczyzna,2022-06-11_09h05.05.036,task,2021.1.4,Win32,143.7607821,6299f149e92ead563fba08ef,62a43e88fb74fa26fa86d202,,,,,,,,,,,,,,,,,,,,,,,,,,,,,,,,,,,,,,,,,,,,,,,,,,,,,,,,,,,,,,,,,,,,,,,,,,,,,,,,,,,,,,,,,,,,,,,,,,,,,
,,,,,,1,0,1,0,1,X V Q F H G B L J M P D K C T S W R N Z,603e5aad160c3ee04e07e8d3,26,Mężczyzna,2022-06-11_09h05.05.036,task,2021.1.4,Win32,143.7607821,6299f149e92ead563fba08ef,62a43e88fb74fa26fa86d202,,,,,,,,,,,,,,,,,,,,,,,,,,,,,,,,,,,,,,,,,,,,,,,,,,,,,,,,,,,,,,,,,,,,,,,,,,,,,,,,,,,,,,,,,,,,,,,,,,,,,
,,,,,,2,0,2,0,1,X V Q F H G B L J M P D K C T S W R N Z,603e5aad160c3ee04e07e8d3,26,Mężczyzna,2022-06-11_09h05.05.036,task,2021.1.4,Win32,143.7607821,6299f149e92ead563fba08ef,62a43e88fb74fa26fa86d202,,,,,,,,,,,,,,,,,,,,,,,,,,,,,,,,,,,,,,,,,,,,,,,,,,,,,,,,,,,,,,,,,,,,,,,,,,,,,,,,,,,,,,,,,,,,,,,,,,,,,
,,,,,,3,0,3,0,1,X V Q F H G B L J M P D K C T S W R N Z,603e5aad160c3ee04e07e8d3,26,Mężczyzna,2022-06-11_09h05.05.036,task,2021.1.4,Win32,143.7607821,6299f149e92ead563fba08ef,62a43e88fb74fa26fa86d202,,,,,,,,,,,,,,,,,,,,,,,,,,,,,,,,,,,,,,,,,,,,,,,,,,,,,,,,,,,,,,,,,,,,,,,,,,,,,,,,,,,,,,,,,,,,,,,,,,,,,
,,,,,,,,,,,,603e5aad160c3ee04e07e8d3,26,Mężczyzna,2022-06-11_09h05.05.036,task,2021.1.4,Win32,143.7607821,6299f149e92ead563fba08ef,62a43e88fb74fa26fa86d202,sthg,"[""s"",""t"",""h"",""g""]","[0.5925000000000011,1.0008999999985093,1.2966000000014901,1.528499999999994,1.9795000000000016]",1,STHG,5,0,5,0,1,,,,,,,,,,,,,,,,,,,,,,,,,,,,,,,,,,,,,,,,,,,,,,,,,,,,,,,,,,,,,,,,,,,,,,,,,,,,,,,,,,,,,,,,,,,
,,,,,,0,0,0,0,1,X V Q F H G B L J M P D K C T S W R N Z,603e5aad160c3ee04e07e8d3,26,Mężczyzna,2022-06-11_09h05.05.036,task,2021.1.4,Win32,143.7607821,6299f149e92ead563fba08ef,62a43e88fb74fa26fa86d202,,,,,,,,,,,,,,,,,,,,,,,,,,,,,,,,,,,,,,,,,,,,,,,,,,,,,,,,,,,,,,,,,,,,,,,,,,,,,,,,,,,,,,,,,,,,,,,,,,,,,
,,,,,,1,0,1,0,1,X V Q F H G B L J M P D K C T S W R N Z,603e5aad160c3ee04e07e8d3,26,Mężczyzna,2022-06-11_09h05.05.036,task,2021.1.4,Win32,143.7607821,6299f149e92ead563fba08ef,62a43e88fb74fa26fa86d202,,,,,,,,,,,,,,,,,,,,,,,,,,,,,,,,,,,,,,,,,,,,,,,,,,,,,,,,,,,,,,,,,,,,,,,,,,,,,,,,,,,,,,,,,,,,,,,,,,,,,
,,,,,,2,0,2,0,1,X V Q F H G B L J M P D K C T S W R N Z,603e5aad160c3ee04e07e8d3,26,Mężczyzna,2022-06-11_09h05.05.036,task,2021.1.4,Win32,143.7607821,6299f149e92ead563fba08ef,62a43e88fb74fa26fa86d202,,,,,,,,,,,,,,,,,,,,,,,,,,,,,,,,,,,,,,,,,,,,,,,,,,,,,,,,,,,,,,,,,,,,,,,,,,,,,,,,,,,,,,,,,,,,,,,,,,,,,
,,,,,,3,0,3,0,1,X V Q F H G B L J M P D K C T S W R N Z,603e5aad160c3ee04e07e8d3,26,Mężczyzna,2022-06-11_09h05.05.036,task,2021.1.4,Win32,143.7607821,6299f149e92ead563fba08ef,62a43e88fb74fa26fa86d202,,,,,,,,,,,,,,,,,,,,,,,,,,,,,,,,,,,,,,,,,,,,,,,,,,,,,,,,,,,,,,,,,,,,,,,,,,,,,,,,,,,,,,,,,,,,,,,,,,,,,
,,,,,,4,0,4,0,1,X V Q F H G B L J M P D K C T S W R N Z,603e5aad160c3ee04e07e8d3,26,Mężczyzna,2022-06-11_09h05.05.036,task,2021.1.4,Win32,143.7607821,6299f149e92ead563fba08ef,62a43e88fb74fa26fa86d202,,,,,,,,,,,,,,,,,,,,,,,,,,,,,,,,,,,,,,,,,,,,,,,,,,,,,,,,,,,,,,,,,,,,,,,,,,,,,,,,,,,,,,,,,,,,,,,,,,,,,
,,,,,,,,,,,,603e5aad160c3ee04e07e8d3,26,Mężczyzna,2022-06-11_09h05.05.036,task,2021.1.4,Win32,143.7607821,6299f149e92ead563fba08ef,62a43e88fb74fa26fa86d202,vfggm,"[""v"",""f"",""g"",""g"",""m""]","[0.33689999999850784,1.033299999997027,1.2968999999985158,1.4887999999970134,2.7047999999970216,3.008599999994047]",1,VFGGM,6,0,6,0,1,,,,,,,,,,,,,,,,,,,,,,,,,,,,,,,,,,,,,,,,,,,,,,,,,,,,,,,,,,,,,,,,,,,,,,,,,,,,,,,,,,,,,,,,,,,
,,,,,,0,0,0,0,1,X V Q F H G B L J M P D K C T S W R N Z,603e5aad160c3ee04e07e8d3,26,Mężczyzna,2022-06-11_09h05.05.036,task,2021.1.4,Win32,143.7607821,6299f149e92ead563fba08ef,62a43e88fb74fa26fa86d202,,,,,,,,,,,,,,,,,,,,,,,,,,,,,,,,,,,,,,,,,,,,,,,,,,,,,,,,,,,,,,,,,,,,,,,,,,,,,,,,,,,,,,,,,,,,,,,,,,,,,
,,,,,,1,0,1,0,1,X V Q F H G B L J M P D K C T S W R N Z,603e5aad160c3ee04e07e8d3,26,Mężczyzna,2022-06-11_09h05.05.036,task,2021.1.4,Win32,143.7607821,6299f149e92ead563fba08ef,62a43e88fb74fa26fa86d202,,,,,,,,,,,,,,,,,,,,,,,,,,,,,,,,,,,,,,,,,,,,,,,,,,,,,,,,,,,,,,,,,,,,,,,,,,,,,,,,,,,,,,,,,,,,,,,,,,,,,
,,,,,,2,0,2,0,1,X V Q F H G B L J M P D K C T S W R N Z,603e5aad160c3ee04e07e8d3,26,Mężczyzna,2022-06-11_09h05.05.036,task,2021.1.4,Win32,143.7607821,6299f149e92ead563fba08ef,62a43e88fb74fa26fa86d202,,,,,,,,,,,,,,,,,,,,,,,,,,,,,,,,,,,,,,,,,,,,,,,,,,,,,,,,,,,,,,,,,,,,,,,,,,,,,,,,,,,,,,,,,,,,,,,,,,,,,
,,,,,,3,0,3,0,1,X V Q F H G B L J M P D K C T S W R N Z,603e5aad160c3ee04e07e8d3,26,Mężczyzna,2022-06-11_09h05.05.036,task,2021.1.4,Win32,143.7607821,6299f149e92ead563fba08ef,62a43e88fb74fa26fa86d202,,,,,,,,,,,,,,,,,,,,,,,,,,,,,,,,,,,,,,,,,,,,,,,,,,,,,,,,,,,,,,,,,,,,,,,,,,,,,,,,,,,,,,,,,,,,,,,,,,,,,
,,,,,,4,0,4,0,1,X V Q F H G B L J M P D K C T S W R N Z,603e5aad160c3ee04e07e8d3,26,Mężczyzna,2022-06-11_09h05.05.036,task,2021.1.4,Win32,143.7607821,6299f149e92ead563fba08ef,62a43e88fb74fa26fa86d202,,,,,,,,,,,,,,,,,,,,,,,,,,,,,,,,,,,,,,,,,,,,,,,,,,,,,,,,,,,,,,,,,,,,,,,,,,,,,,,,,,,,,,,,,,,,,,,,,,,,,
,,,,,,,,,,,,603e5aad160c3ee04e07e8d3,26,Mężczyzna,2022-06-11_09h05.05.036,task,2021.1.4,Win32,143.7607821,6299f149e92ead563fba08ef,62a43e88fb74fa26fa86d202,qhzps,"[""q"",""h"",""z"",""p"",""s""]","[0.9743999999984965,1.2543999999984976,1.5023999999985023,1.7743999999985078,2.0383999999985036,2.302499999999995]",1,QHZPS,7,0,7,0,1,,,,,,,,,,,,,,,,,,,,,,,,,,,,,,,,,,,,,,,,,,,,,,,,,,,,,,,,,,,,,,,,,,,,,,,,,,,,,,,,,,,,,,,,,,,
,,,,,,0,0,0,0,1,X V Q F H G B L J M P D K C T S W R N Z,603e5aad160c3ee04e07e8d3,26,Mężczyzna,2022-06-11_09h05.05.036,task,2021.1.4,Win32,143.7607821,6299f149e92ead563fba08ef,62a43e88fb74fa26fa86d202,,,,,,,,,,,,,,,,,,,,,,,,,,,,,,,,,,,,,,,,,,,,,,,,,,,,,,,,,,,,,,,,,,,,,,,,,,,,,,,,,,,,,,,,,,,,,,,,,,,,,
,,,,,,1,0,1,0,1,X V Q F H G B L J M P D K C T S W R N Z,603e5aad160c3ee04e07e8d3,26,Mężczyzna,2022-06-11_09h05.05.036,task,2021.1.4,Win32,143.7607821,6299f149e92ead563fba08ef,62a43e88fb74fa26fa86d202,,,,,,,,,,,,,,,,,,,,,,,,,,,,,,,,,,,,,,,,,,,,,,,,,,,,,,,,,,,,,,,,,,,,,,,,,,,,,,,,,,,,,,,,,,,,,,,,,,,,,
,,,,,,2,0,2,0,1,X V Q F H G B L J M P D K C T S W R N Z,603e5aad160c3ee04e07e8d3,26,Mężczyzna,2022-06-11_09h05.05.036,task,2021.1.4,Win32,143.7607821,6299f149e92ead563fba08ef,62a43e88fb74fa26fa86d202,,,,,,,,,,,,,,,,,,,,,,,,,,,,,,,,,,,,,,,,,,,,,,,,,,,,,,,,,,,,,,,,,,,,,,,,,,,,,,,,,,,,,,,,,,,,,,,,,,,,,
,,,,,,3,0,3,0,1,X V Q F H G B L J M P D K C T S W R N Z,603e5aad160c3ee04e07e8d3,26,Mężczyzna,2022-06-11_09h05.05.036,task,2021.1.4,Win32,143.7607821,6299f149e92ead563fba08ef,62a43e88fb74fa26fa86d202,,,,,,,,,,,,,,,,,,,,,,,,,,,,,,,,,,,,,,,,,,,,,,,,,,,,,,,,,,,,,,,,,,,,,,,,,,,,,,,,,,,,,,,,,,,,,,,,,,,,,
,,,,,,4,0,4,0,1,X V Q F H G B L J M P D K C T S W R N Z,603e5aad160c3ee04e07e8d3,26,Mężczyzna,2022-06-11_09h05.05.036,task,2021.1.4,Win32,143.7607821,6299f149e92ead563fba08ef,62a43e88fb74fa26fa86d202,,,,,,,,,,,,,,,,,,,,,,,,,,,,,,,,,,,,,,,,,,,,,,,,,,,,,,,,,,,,,,,,,,,,,,,,,,,,,,,,,,,,,,,,,,,,,,,,,,,,,
,,,,,,5,0,5,0,1,X V Q F H G B L J M P D K C T S W R N Z,603e5aad160c3ee04e07e8d3,26,Mężczyzna,2022-06-11_09h05.05.036,task,2021.1.4,Win32,143.7607821,6299f149e92ead563fba08ef,62a43e88fb74fa26fa86d202,,,,,,,,,,,,,,,,,,,,,,,,,,,,,,,,,,,,,,,,,,,,,,,,,,,,,,,,,,,,,,,,,,,,,,,,,,,,,,,,,,,,,,,,,,,,,,,,,,,,,
,,,,,,,,,,,,603e5aad160c3ee04e07e8d3,26,Mężczyzna,2022-06-11_09h05.05.036,task,2021.1.4,Win32,143.7607821,6299f149e92ead563fba08ef,62a43e88fb74fa26fa86d202,cxvmsg,"[""c"",""x"",""v"",""m"",""s"",""g""]","[0.8455000000000013,1.1017000000029782,1.3654999999999973,1.6296000000014885,2.0374999999999943,2.535100000001492,2.8455000000000013]",1,CXVMSG,8,0,8,0,1,,,,,,,,,,,,,,,,,,,,,,,,,,,,,,,,,,,,,,,,,,,,,,,,,,,,,,,,,,,,,,,,,,,,,,,,,,,,,,,,,,,,,,,,,,,
,,,,,,0,0,0,0,1,X V Q F H G B L J M P D K C T S W R N Z,603e5aad160c3ee04e07e8d3,26,Mężczyzna,2022-06-11_09h05.05.036,task,2021.1.4,Win32,143.7607821,6299f149e92ead563fba08ef,62a43e88fb74fa26fa86d202,,,,,,,,,,,,,,,,,,,,,,,,,,,,,,,,,,,,,,,,,,,,,,,,,,,,,,,,,,,,,,,,,,,,,,,,,,,,,,,,,,,,,,,,,,,,,,,,,,,,,
,,,,,,1,0,1,0,1,X V Q F H G B L J M P D K C T S W R N Z,603e5aad160c3ee04e07e8d3,26,Mężczyzna,2022-06-11_09h05.05.036,task,2021.1.4,Win32,143.7607821,6299f149e92ead563fba08ef,62a43e88fb74fa26fa86d202,,,,,,,,,,,,,,,,,,,,,,,,,,,,,,,,,,,,,,,,,,,,,,,,,,,,,,,,,,,,,,,,,,,,,,,,,,,,,,,,,,,,,,,,,,,,,,,,,,,,,
,,,,,,2,0,2,0,1,X V Q F H G B L J M P D K C T S W R N Z,603e5aad160c3ee04e07e8d3,26,Mężczyzna,2022-06-11_09h05.05.036,task,2021.1.4,Win32,143.7607821,6299f149e92ead563fba08ef,62a43e88fb74fa26fa86d202,,,,,,,,,,,,,,,,,,,,,,,,,,,,,,,,,,,,,,,,,,,,,,,,,,,,,,,,,,,,,,,,,,,,,,,,,,,,,,,,,,,,,,,,,,,,,,,,,,,,,
,,,,,,3,0,3,0,1,X V Q F H G B L J M P D K C T S W R N Z,603e5aad160c3ee04e07e8d3,26,Mężczyzna,2022-06-11_09h05.05.036,task,2021.1.4,Win32,143.7607821,6299f149e92ead563fba08ef,62a43e88fb74fa26fa86d202,,,,,,,,,,,,,,,,,,,,,,,,,,,,,,,,,,,,,,,,,,,,,,,,,,,,,,,,,,,,,,,,,,,,,,,,,,,,,,,,,,,,,,,,,,,,,,,,,,,,,
,,,,,,4,0,4,0,1,X V Q F H G B L J M P D K C T S W R N Z,603e5aad160c3ee04e07e8d3,26,Mężczyzna,2022-06-11_09h05.05.036,task,2021.1.4,Win32,143.7607821,6299f149e92ead563fba08ef,62a43e88fb74fa26fa86d202,,,,,,,,,,,,,,,,,,,,,,,,,,,,,,,,,,,,,,,,,,,,,,,,,,,,,,,,,,,,,,,,,,,,,,,,,,,,,,,,,,,,,,,,,,,,,,,,,,,,,
,,,,,,5,0,5,0,1,X V Q F H G B L J M P D K C T S W R N Z,603e5aad160c3ee04e07e8d3,26,Mężczyzna,2022-06-11_09h05.05.036,task,2021.1.4,Win32,143.7607821,6299f149e92ead563fba08ef,62a43e88fb74fa26fa86d202,,,,,,,,,,,,,,,,,,,,,,,,,,,,,,,,,,,,,,,,,,,,,,,,,,,,,,,,,,,,,,,,,,,,,,,,,,,,,,,,,,,,,,,,,,,,,,,,,,,,,
,,,,,,,,,,,,603e5aad160c3ee04e07e8d3,26,Mężczyzna,2022-06-11_09h05.05.036,task,2021.1.4,Win32,143.7607821,6299f149e92ead563fba08ef,62a43e88fb74fa26fa86d202,jhccdd,"[""j"",""h"",""c"",""c"",""d"",""d""]","[0.4388999999985117,0.6951000000015028,1.0390000000000015,1.3352000000029847,1.5911000000014894,1.8710000000000093,2.2308999999985133]",1,JHCCDD,9,0,9,0,1,,,,,,,,,,,,,,,,,,,,,,,,,,,,,,,,,,,,,,,,,,,,,,,,,,,,,,,,,,,,,,,,,,,,,,,,,,,,,,,,,,,,,,,,,,,
,,,,,,0,0,0,0,1,X V Q F H G B L J M P D K C T S W R N Z,603e5aad160c3ee04e07e8d3,26,Mężczyzna,2022-06-11_09h05.05.036,task,2021.1.4,Win32,143.7607821,6299f149e92ead563fba08ef,62a43e88fb74fa26fa86d202,,,,,,,,,,,,,,,,,,,,,,,,,,,,,,,,,,,,,,,,,,,,,,,,,,,,,,,,,,,,,,,,,,,,,,,,,,,,,,,,,,,,,,,,,,,,,,,,,,,,,
,,,,,,1,0,1,0,1,X V Q F H G B L J M P D K C T S W R N Z,603e5aad160c3ee04e07e8d3,26,Mężczyzna,2022-06-11_09h05.05.036,task,2021.1.4,Win32,143.7607821,6299f149e92ead563fba08ef,62a43e88fb74fa26fa86d202,,,,,,,,,,,,,,,,,,,,,,,,,,,,,,,,,,,,,,,,,,,,,,,,,,,,,,,,,,,,,,,,,,,,,,,,,,,,,,,,,,,,,,,,,,,,,,,,,,,,,
,,,,,,2,0,2,0,1,X V Q F H G B L J M P D K C T S W R N Z,603e5aad160c3ee04e07e8d3,26,Mężczyzna,2022-06-11_09h05.05.036,task,2021.1.4,Win32,143.7607821,6299f149e92ead563fba08ef,62a43e88fb74fa26fa86d202,,,,,,,,,,,,,,,,,,,,,,,,,,,,,,,,,,,,,,,,,,,,,,,,,,,,,,,,,,,,,,,,,,,,,,,,,,,,,,,,,,,,,,,,,,,,,,,,,,,,,
,,,,,,3,0,3,0,1,X V Q F H G B L J M P D K C T S W R N Z,603e5aad160c3ee04e07e8d3,26,Mężczyzna,2022-06-11_09h05.05.036,task,2021.1.4,Win32,143.7607821,6299f149e92ead563fba08ef,62a43e88fb74fa26fa86d202,,,,,,,,,,,,,,,,,,,,,,,,,,,,,,,,,,,,,,,,,,,,,,,,,,,,,,,,,,,,,,,,,,,,,,,,,,,,,,,,,,,,,,,,,,,,,,,,,,,,,
,,,,,,4,0,4,0,1,X V Q F H G B L J M P D K C T S W R N Z,603e5aad160c3ee04e07e8d3,26,Mężczyzna,2022-06-11_09h05.05.036,task,2021.1.4,Win32,143.7607821,6299f149e92ead563fba08ef,62a43e88fb74fa26fa86d202,,,,,,,,,,,,,,,,,,,,,,,,,,,,,,,,,,,,,,,,,,,,,,,,,,,,,,,,,,,,,,,,,,,,,,,,,,,,,,,,,,,,,,,,,,,,,,,,,,,,,
,,,,,,5,0,5,0,1,X V Q F H G B L J M P D K C T S W R N Z,603e5aad160c3ee04e07e8d3,26,Mężczyzna,2022-06-11_09h05.05.036,task,2021.1.4,Win32,143.7607821,6299f149e92ead563fba08ef,62a43e88fb74fa26fa86d202,,,,,,,,,,,,,,,,,,,,,,,,,,,,,,,,,,,,,,,,,,,,,,,,,,,,,,,,,,,,,,,,,,,,,,,,,,,,,,,,,,,,,,,,,,,,,,,,,,,,,
,,,,,,6,0,6,0,1,X V Q F H G B L J M P D K C T S W R N Z,603e5aad160c3ee04e07e8d3,26,Mężczyzna,2022-06-11_09h05.05.036,task,2021.1.4,Win32,143.7607821,6299f149e92ead563fba08ef,62a43e88fb74fa26fa86d202,,,,,,,,,,,,,,,,,,,,,,,,,,,,,,,,,,,,,,,,,,,,,,,,,,,,,,,,,,,,,,,,,,,,,,,,,,,,,,,,,,,,,,,,,,,,,,,,,,,,,
,,,,,,,,,,,,603e5aad160c3ee04e07e8d3,26,Mężczyzna,2022-06-11_09h05.05.036,task,2021.1.4,Win32,143.7607821,6299f149e92ead563fba08ef,62a43e88fb74fa26fa86d202,bbmqhvl,"[""b"",""b"",""m"",""q"",""h"",""v"",""l""]","[0.7531000000014814,0.9289999999999878,1.382300000004463,2.145300000004468,2.424999999999997,3.785800000004471,3.9728000000044688,4.305100000001488]",1,BBMQHVL,10,0,10,0,1,,,,,,,,,,,,,,,,,,,,,,,,,,,,,,,,,,,,,,,,,,,,,,,,,,,,,,,,,,,,,,,,,,,,,,,,,,,,,,,,,,,,,,,,,,,
,,,,,,0,0,0,0,1,X V Q F H G B L J M P D K C T S W R N Z,603e5aad160c3ee04e07e8d3,26,Mężczyzna,2022-06-11_09h05.05.036,task,2021.1.4,Win32,143.7607821,6299f149e92ead563fba08ef,62a43e88fb74fa26fa86d202,,,,,,,,,,,,,,,,,,,,,,,,,,,,,,,,,,,,,,,,,,,,,,,,,,,,,,,,,,,,,,,,,,,,,,,,,,,,,,,,,,,,,,,,,,,,,,,,,,,,,
,,,,,,1,0,1,0,1,X V Q F H G B L J M P D K C T S W R N Z,603e5aad160c3ee04e07e8d3,26,Mężczyzna,2022-06-11_09h05.05.036,task,2021.1.4,Win32,143.7607821,6299f149e92ead563fba08ef,62a43e88fb74fa26fa86d202,,,,,,,,,,,,,,,,,,,,,,,,,,,,,,,,,,,,,,,,,,,,,,,,,,,,,,,,,,,,,,,,,,,,,,,,,,,,,,,,,,,,,,,,,,,,,,,,,,,,,
,,,,,,2,0,2,0,1,X V Q F H G B L J M P D K C T S W R N Z,603e5aad160c3ee04e07e8d3,26,Mężczyzna,2022-06-11_09h05.05.036,task,2021.1.4,Win32,143.7607821,6299f149e92ead563fba08ef,62a43e88fb74fa26fa86d202,,,,,,,,,,,,,,,,,,,,,,,,,,,,,,,,,,,,,,,,,,,,,,,,,,,,,,,,,,,,,,,,,,,,,,,,,,,,,,,,,,,,,,,,,,,,,,,,,,,,,
,,,,,,3,0,3,0,1,X V Q F H G B L J M P D K C T S W R N Z,603e5aad160c3ee04e07e8d3,26,Mężczyzna,2022-06-11_09h05.05.036,task,2021.1.4,Win32,143.7607821,6299f149e92ead563fba08ef,62a43e88fb74fa26fa86d202,,,,,,,,,,,,,,,,,,,,,,,,,,,,,,,,,,,,,,,,,,,,,,,,,,,,,,,,,,,,,,,,,,,,,,,,,,,,,,,,,,,,,,,,,,,,,,,,,,,,,
,,,,,,4,0,4,0,1,X V Q F H G B L J M P D K C T S W R N Z,603e5aad160c3ee04e07e8d3,26,Mężczyzna,2022-06-11_09h05.05.036,task,2021.1.4,Win32,143.7607821,6299f149e92ead563fba08ef,62a43e88fb74fa26fa86d202,,,,,,,,,,,,,,,,,,,,,,,,,,,,,,,,,,,,,,,,,,,,,,,,,,,,,,,,,,,,,,,,,,,,,,,,,,,,,,,,,,,,,,,,,,,,,,,,,,,,,
,,,,,,5,0,5,0,1,X V Q F H G B L J M P D K C T S W R N Z,603e5aad160c3ee04e07e8d3,26,Mężczyzna,2022-06-11_09h05.05.036,task,2021.1.4,Win32,143.7607821,6299f149e92ead563fba08ef,62a43e88fb74fa26fa86d202,,,,,,,,,,,,,,,,,,,,,,,,,,,,,,,,,,,,,,,,,,,,,,,,,,,,,,,,,,,,,,,,,,,,,,,,,,,,,,,,,,,,,,,,,,,,,,,,,,,,,
,,,,,,6,0,6,0,1,X V Q F H G B L J M P D K C T S W R N Z,603e5aad160c3ee04e07e8d3,26,Mężczyzna,2022-06-11_09h05.05.036,task,2021.1.4,Win32,143.7607821,6299f149e92ead563fba08ef,62a43e88fb74fa26fa86d202,,,,,,,,,,,,,,,,,,,,,,,,,,,,,,,,,,,,,,,,,,,,,,,,,,,,,,,,,,,,,,,,,,,,,,,,,,,,,,,,,,,,,,,,,,,,,,,,,,,,,
,,,,,,,,,,,,603e5aad160c3ee04e07e8d3,26,Mężczyzna,2022-06-11_09h05.05.036,task,2021.1.4,Win32,143.7607821,6299f149e92ead563fba08ef,62a43e88fb74fa26fa86d202,wxqlztl,"[""w"",""x"",""q"",""l"",""z"",""t"",""l""]","[0.6693999999984896,0.937699999995516,1.3971999999955074,1.7090000000000032,2.069999999999993,2.349299999997015,2.5413999999985037,2.8293999999984862]",1,WXQLZTL,11,0,11,0,1,,,,,,,,,,,,,,,,,,,,,,,,,,,,,,,,,,,,,,,,,,,,,,,,,,,,,,,,,,,,,,,,,,,,,,,,,,,,,,,,,,,,,,,,,,,
,,,,,,0,0,0,0,1,X V Q F H G B L J M P D K C T S W R N Z,603e5aad160c3ee04e07e8d3,26,Mężczyzna,2022-06-11_09h05.05.036,task,2021.1.4,Win32,143.7607821,6299f149e92ead563fba08ef,62a43e88fb74fa26fa86d202,,,,,,,,,,,,,,,,,,,,,,,,,,,,,,,,,,,,,,,,,,,,,,,,,,,,,,,,,,,,,,,,,,,,,,,,,,,,,,,,,,,,,,,,,,,,,,,,,,,,,
,,,,,,1,0,1,0,1,X V Q F H G B L J M P D K C T S W R N Z,603e5aad160c3ee04e07e8d3,26,Mężczyzna,2022-06-11_09h05.05.036,task,2021.1.4,Win32,143.7607821,6299f149e92ead563fba08ef,62a43e88fb74fa26fa86d202,,,,,,,,,,,,,,,,,,,,,,,,,,,,,,,,,,,,,,,,,,,,,,,,,,,,,,,,,,,,,,,,,,,,,,,,,,,,,,,,,,,,,,,,,,,,,,,,,,,,,
,,,,,,2,0,2,0,1,X V Q F H G B L J M P D K C T S W R N Z,603e5aad160c3ee04e07e8d3,26,Mężczyzna,2022-06-11_09h05.05.036,task,2021.1.4,Win32,143.7607821,6299f149e92ead563fba08ef,62a43e88fb74fa26fa86d202,,,,,,,,,,,,,,,,,,,,,,,,,,,,,,,,,,,,,,,,,,,,,,,,,,,,,,,,,,,,,,,,,,,,,,,,,,,,,,,,,,,,,,,,,,,,,,,,,,,,,
,,,,,,3,0,3,0,1,X V Q F H G B L J M P D K C T S W R N Z,603e5aad160c3ee04e07e8d3,26,Mężczyzna,2022-06-11_09h05.05.036,task,2021.1.4,Win32,143.7607821,6299f149e92ead563fba08ef,62a43e88fb74fa26fa86d202,,,,,,,,,,,,,,,,,,,,,,,,,,,,,,,,,,,,,,,,,,,,,,,,,,,,,,,,,,,,,,,,,,,,,,,,,,,,,,,,,,,,,,,,,,,,,,,,,,,,,
,,,,,,4,0,4,0,1,X V Q F H G B L J M P D K C T S W R N Z,603e5aad160c3ee04e07e8d3,26,Mężczyzna,2022-06-11_09h05.05.036,task,2021.1.4,Win32,143.7607821,6299f149e92ead563fba08ef,62a43e88fb74fa26fa86d202,,,,,,,,,,,,,,,,,,,,,,,,,,,,,,,,,,,,,,,,,,,,,,,,,,,,,,,,,,,,,,,,,,,,,,,,,,,,,,,,,,,,,,,,,,,,,,,,,,,,,
,,,,,,5,0,5,0,1,X V Q F H G B L J M P D K C T S W R N Z,603e5aad160c3ee04e07e8d3,26,Mężczyzna,2022-06-11_09h05.05.036,task,2021.1.4,Win32,143.7607821,6299f149e92ead563fba08ef,62a43e88fb74fa26fa86d202,,,,,,,,,,,,,,,,,,,,,,,,,,,,,,,,,,,,,,,,,,,,,,,,,,,,,,,,,,,,,,,,,,,,,,,,,,,,,,,,,,,,,,,,,,,,,,,,,,,,,
,,,,,,6,0,6,0,1,X V Q F H G B L J M P D K C T S W R N Z,603e5aad160c3ee04e07e8d3,26,Mężczyzna,2022-06-11_09h05.05.036,task,2021.1.4,Win32,143.7607821,6299f149e92ead563fba08ef,62a43e88fb74fa26fa86d202,,,,,,,,,,,,,,,,,,,,,,,,,,,,,,,,,,,,,,,,,,,,,,,,,,,,,,,,,,,,,,,,,,,,,,,,,,,,,,,,,,,,,,,,,,,,,,,,,,,,,
,,,,,,7,0,7,0,1,X V Q F H G B L J M P D K C T S W R N Z,603e5aad160c3ee04e07e8d3,26,Mężczyzna,2022-06-11_09h05.05.036,task,2021.1.4,Win32,143.7607821,6299f149e92ead563fba08ef,62a43e88fb74fa26fa86d202,,,,,,,,,,,,,,,,,,,,,,,,,,,,,,,,,,,,,,,,,,,,,,,,,,,,,,,,,,,,,,,,,,,,,,,,,,,,,,,,,,,,,,,,,,,,,,,,,,,,,
,,,,,,,,,,,,603e5aad160c3ee04e07e8d3,26,Mężczyzna,2022-06-11_09h05.05.036,task,2021.1.4,Win32,143.7607821,6299f149e92ead563fba08ef,62a43e88fb74fa26fa86d202,qxfnfvp,"[""q"",""x"",""f"",""n"",""f"",""v"",""p""]","[0.7916000000014947,1.047399999998504,1.3272999999970239,1.5754999999999768,1.8481000000014944,2.7712000000029775,3.055499999999995,3.5357000000029757]",0,QXZFNFVP,12,0,12,0,1,,,,,,,,,,,,,,,,,,,,,,,,,,,,,,,,,,,,,,,,,,,,,,,,,,,,,,,,,,,,,,,,,,,,,,,,,,,,,,,,,,,,,,,,,,,
,,,,,,0,0,0,0,1,X V Q F H G B L J M P D K C T S W R N Z,603e5aad160c3ee04e07e8d3,26,Mężczyzna,2022-06-11_09h05.05.036,task,2021.1.4,Win32,143.7607821,6299f149e92ead563fba08ef,62a43e88fb74fa26fa86d202,,,,,,,,,,,,,,,,,,,,,,,,,,,,,,,,,,,,,,,,,,,,,,,,,,,,,,,,,,,,,,,,,,,,,,,,,,,,,,,,,,,,,,,,,,,,,,,,,,,,,
,,,,,,1,0,1,0,1,X V Q F H G B L J M P D K C T S W R N Z,603e5aad160c3ee04e07e8d3,26,Mężczyzna,2022-06-11_09h05.05.036,task,2021.1.4,Win32,143.7607821,6299f149e92ead563fba08ef,62a43e88fb74fa26fa86d202,,,,,,,,,,,,,,,,,,,,,,,,,,,,,,,,,,,,,,,,,,,,,,,,,,,,,,,,,,,,,,,,,,,,,,,,,,,,,,,,,,,,,,,,,,,,,,,,,,,,,
,,,,,,2,0,2,0,1,X V Q F H G B L J M P D K C T S W R N Z,603e5aad160c3ee04e07e8d3,26,Mężczyzna,2022-06-11_09h05.05.036,task,2021.1.4,Win32,143.7607821,6299f149e92ead563fba08ef,62a43e88fb74fa26fa86d202,,,,,,,,,,,,,,,,,,,,,,,,,,,,,,,,,,,,,,,,,,,,,,,,,,,,,,,,,,,,,,,,,,,,,,,,,,,,,,,,,,,,,,,,,,,,,,,,,,,,,
,,,,,,3,0,3,0,1,X V Q F H G B L J M P D K C T S W R N Z,603e5aad160c3ee04e07e8d3,26,Mężczyzna,2022-06-11_09h05.05.036,task,2021.1.4,Win32,143.7607821,6299f149e92ead563fba08ef,62a43e88fb74fa26fa86d202,,,,,,,,,,,,,,,,,,,,,,,,,,,,,,,,,,,,,,,,,,,,,,,,,,,,,,,,,,,,,,,,,,,,,,,,,,,,,,,,,,,,,,,,,,,,,,,,,,,,,
,,,,,,4,0,4,0,1,X V Q F H G B L J M P D K C T S W R N Z,603e5aad160c3ee04e07e8d3,26,Mężczyzna,2022-06-11_09h05.05.036,task,2021.1.4,Win32,143.7607821,6299f149e92ead563fba08ef,62a43e88fb74fa26fa86d202,,,,,,,,,,,,,,,,,,,,,,,,,,,,,,,,,,,,,,,,,,,,,,,,,,,,,,,,,,,,,,,,,,,,,,,,,,,,,,,,,,,,,,,,,,,,,,,,,,,,,
,,,,,,5,0,5,0,1,X V Q F H G B L J M P D K C T S W R N Z,603e5aad160c3ee04e07e8d3,26,Mężczyzna,2022-06-11_09h05.05.036,task,2021.1.4,Win32,143.7607821,6299f149e92ead563fba08ef,62a43e88fb74fa26fa86d202,,,,,,,,,,,,,,,,,,,,,,,,,,,,,,,,,,,,,,,,,,,,,,,,,,,,,,,,,,,,,,,,,,,,,,,,,,,,,,,,,,,,,,,,,,,,,,,,,,,,,
,,,,,,6,0,6,0,1,X V Q F H G B L J M P D K C T S W R N Z,603e5aad160c3ee04e07e8d3,26,Mężczyzna,2022-06-11_09h05.05.036,task,2021.1.4,Win32,143.7607821,6299f149e92ead563fba08ef,62a43e88fb74fa26fa86d202,,,,,,,,,,,,,,,,,,,,,,,,,,,,,,,,,,,,,,,,,,,,,,,,,,,,,,,,,,,,,,,,,,,,,,,,,,,,,,,,,,,,,,,,,,,,,,,,,,,,,
,,,,,,7,0,7,0,1,X V Q F H G B L J M P D K C T S W R N Z,603e5aad160c3ee04e07e8d3,26,Mężczyzna,2022-06-11_09h05.05.036,task,2021.1.4,Win32,143.7607821,6299f149e92ead563fba08ef,62a43e88fb74fa26fa86d202,,,,,,,,,,,,,,,,,,,,,,,,,,,,,,,,,,,,,,,,,,,,,,,,,,,,,,,,,,,,,,,,,,,,,,,,,,,,,,,,,,,,,,,,,,,,,,,,,,,,,
,,,,,,,,,,,,603e5aad160c3ee04e07e8d3,26,Mężczyzna,2022-06-11_09h05.05.036,task,2021.1.4,Win32,143.7607821,6299f149e92ead563fba08ef,62a43e88fb74fa26fa86d202,dmhgdbj,"[""d"",""m"",""h"",""g"",""d"",""b"",""j""]","[0.8532000000029711,1.181600000001481,2.348900000005955,3.1329000000059466,3.4211000000014735,3.973300000004457,5.437200000002974,5.829000000000008]",0,DMHGDBJT,13,0,13,0,1,,,,,,,,,,,,,,,,,,,,,,,,,,,,,,,,,,,,,,,,,,,,,,,,,,,,,,,,,,,,,,,,,,,,,,,,,,,,,,,,,,,,,,,,,,,
,,,,,,0,0,0,0,1,X V Q F H G B L J M P D K C T S W R N Z,603e5aad160c3ee04e07e8d3,26,Mężczyzna,2022-06-11_09h05.05.036,task,2021.1.4,Win32,143.7607821,6299f149e92ead563fba08ef,62a43e88fb74fa26fa86d202,,,,,,,,,,,,,,,,,,,,,,,,,,,,,,,,,,,,,,,,,,,,,,,,,,,,,,,,,,,,,,,,,,,,,,,,,,,,,,,,,,,,,,,,,,,,,,,,,,,,,
,,,,,,1,0,1,0,1,X V Q F H G B L J M P D K C T S W R N Z,603e5aad160c3ee04e07e8d3,26,Mężczyzna,2022-06-11_09h05.05.036,task,2021.1.4,Win32,143.7607821,6299f149e92ead563fba08ef,62a43e88fb74fa26fa86d202,,,,,,,,,,,,,,,,,,,,,,,,,,,,,,,,,,,,,,,,,,,,,,,,,,,,,,,,,,,,,,,,,,,,,,,,,,,,,,,,,,,,,,,,,,,,,,,,,,,,,
,,,,,,2,0,2,0,1,X V Q F H G B L J M P D K C T S W R N Z,603e5aad160c3ee04e07e8d3,26,Mężczyzna,2022-06-11_09h05.05.036,task,2021.1.4,Win32,143.7607821,6299f149e92ead563fba08ef,62a43e88fb74fa26fa86d202,,,,,,,,,,,,,,,,,,,,,,,,,,,,,,,,,,,,,,,,,,,,,,,,,,,,,,,,,,,,,,,,,,,,,,,,,,,,,,,,,,,,,,,,,,,,,,,,,,,,,
,,,,,,3,0,3,0,1,X V Q F H G B L J M P D K C T S W R N Z,603e5aad160c3ee04e07e8d3,26,Mężczyzna,2022-06-11_09h05.05.036,task,2021.1.4,Win32,143.7607821,6299f149e92ead563fba08ef,62a43e88fb74fa26fa86d202,,,,,,,,,,,,,,,,,,,,,,,,,,,,,,,,,,,,,,,,,,,,,,,,,,,,,,,,,,,,,,,,,,,,,,,,,,,,,,,,,,,,,,,,,,,,,,,,,,,,,
,,,,,,4,0,4,0,1,X V Q F H G B L J M P D K C T S W R N Z,603e5aad160c3ee04e07e8d3,26,Mężczyzna,2022-06-11_09h05.05.036,task,2021.1.4,Win32,143.7607821,6299f149e92ead563fba08ef,62a43e88fb74fa26fa86d202,,,,,,,,,,,,,,,,,,,,,,,,,,,,,,,,,,,,,,,,,,,,,,,,,,,,,,,,,,,,,,,,,,,,,,,,,,,,,,,,,,,,,,,,,,,,,,,,,,,,,
,,,,,,5,0,5,0,1,X V Q F H G B L J M P D K C T S W R N Z,603e5aad160c3ee04e07e8d3,26,Mężczyzna,2022-06-11_09h05.05.036,task,2021.1.4,Win32,143.7607821,6299f149e92ead563fba08ef,62a43e88fb74fa26fa86d202,,,,,,,,,,,,,,,,,,,,,,,,,,,,,,,,,,,,,,,,,,,,,,,,,,,,,,,,,,,,,,,,,,,,,,,,,,,,,,,,,,,,,,,,,,,,,,,,,,,,,
,,,,,,6,0,6,0,1,X V Q F H G B L J M P D K C T S W R N Z,603e5aad160c3ee04e07e8d3,26,Mężczyzna,2022-06-11_09h05.05.036,task,2021.1.4,Win32,143.7607821,6299f149e92ead563fba08ef,62a43e88fb74fa26fa86d202,,,,,,,,,,,,,,,,,,,,,,,,,,,,,,,,,,,,,,,,,,,,,,,,,,,,,,,,,,,,,,,,,,,,,,,,,,,,,,,,,,,,,,,,,,,,,,,,,,,,,
,,,,,,7,0,7,0,1,X V Q F H G B L J M P D K C T S W R N Z,603e5aad160c3ee04e07e8d3,26,Mężczyzna,2022-06-11_09h05.05.036,task,2021.1.4,Win32,143.7607821,6299f149e92ead563fba08ef,62a43e88fb74fa26fa86d202,,,,,,,,,,,,,,,,,,,,,,,,,,,,,,,,,,,,,,,,,,,,,,,,,,,,,,,,,,,,,,,,,,,,,,,,,,,,,,,,,,,,,,,,,,,,,,,,,,,,,
,,,,,,,,,,,,603e5aad160c3ee04e07e8d3,26,Mężczyzna,2022-06-11_09h05.05.036,task,2021.1.4,Win32,143.7607821,6299f149e92ead563fba08ef,62a43e88fb74fa26fa86d202,gnwlsqq,"[""g"",""n"",""w"",""l"",""s"",""q"",""q""]","[1.0229999999999961,1.3108999999984974,1.5747999999970261,3.1115000000000066,3.726799999997013,5.229700000002964,5.398600000001494,5.582899999998517]",0,GNWSLVVQ,14,0,14,0,1,,,,,,,,,,,,,,,,,,,,,,,,,,,,,,,,,,,,,,,,,,,,,,,,,,,,,,,,,,,,,,,,,,,,,,,,,,,,,,,,,,,,,,,,,,,
,,,,,,,,,,,,603e5aad160c3ee04e07e8d3,26,Mężczyzna,2022-06-11_09h05.05.036,task,2021.1.4,Win32,143.7607821,6299f149e92ead563fba08ef,62a43e88fb74fa26fa86d202,,,,,,,,,,,space,9.348,3,"[""3""]",1,[4.386100000001477],[4.386100000001477],0,0,0,3,1,Practice,4,(8/4) + 1,3,,,,,,,,,,,,,,,,,,,,,,,,,,,,,,,,,,,,,,,,,,,,,,,,,,,,,,,,,,,,,,,,,,,,,,,,,,,
,,,,,,,,,,,,603e5aad160c3ee04e07e8d3,26,Mężczyzna,2022-06-11_09h05.05.036,task,2021.1.4,Win32,143.7607821,6299f149e92ead563fba08ef,62a43e88fb74fa26fa86d202,,,,,,,,,,,,,8,"[""8""]",1,[2.298900000005972],"[4.386100000001477,2.298900000005972]",0,1,1,8,1,Practice,9,(3x3) - 1,8,,,,,,,,,,,,,,,,,,,,,,,,,,,,,,,,,,,,,,,,,,,,,,,,,,,,,,,,,,,,,,,,,,,,,,,,,,,
,,,,,,,,,,,,603e5aad160c3ee04e07e8d3,26,Mężczyzna,2022-06-11_09h05.05.036,task,2021.1.4,Win32,143.7607821,6299f149e92ead563fba08ef,62a43e88fb74fa26fa86d202,,,,,,,,,,,,,5,"[""5""]",1,[1.8062999999970089],"[4.386100000001477,2.298900000005972,1.8062999999970089]",0,2,2,5,1,Practice,6,(4/2) + 3,5,,,,,,,,,,,,,,,,,,,,,,,,,,,,,,,,,,,,,,,,,,,,,,,,,,,,,,,,,,,,,,,,,,,,,,,,,,,
,,,,,,,,,,,,603e5aad160c3ee04e07e8d3,26,Mężczyzna,2022-06-11_09h05.05.036,task,2021.1.4,Win32,143.7607821,6299f149e92ead563fba08ef,62a43e88fb74fa26fa86d202,,,,,,,,,,,,,1,"[""1""]",1,[2.530000000000001],"[4.386100000001477,2.298900000005972,1.8062999999970089,2.530000000000001]",0,3,3,1,1,Practice,2,(4x4) - 15,1,,,,,,,,,,,,,,,,,,,,,,,,,,,,,,,,,,,,,,,,,,,,,,,,,,,,,,,,,,,,,,,,,,,,,,,,,,,
,,,,,,,,,,,,603e5aad160c3ee04e07e8d3,26,Mężczyzna,2022-06-11_09h05.05.036,task,2021.1.4,Win32,143.7607821,6299f149e92ead563fba08ef,62a43e88fb74fa26fa86d202,,,,,,,,,,,,,7,"[""7""]",1,[3.029299999997022],"[4.386100000001477,2.298900000005972,1.8062999999970089,2.530000000000001,3.029299999997022]",0,4,4,7,1,Practice,8,(5x5) - 18,7,,,,,,,,,,,,,,,,,,,,,,,,,,,,,,,,,,,,,,,,,,,,,,,,,,,,,,,,,,,,,,,,,,,,,,,,,,,
,,,,,,,,,,,,603e5aad160c3ee04e07e8d3,26,Mężczyzna,2022-06-11_09h05.05.036,task,2021.1.4,Win32,143.7607821,6299f149e92ead563fba08ef,62a43e88fb74fa26fa86d202,,,,,,,,,,,,,0,"[""0""]",1,[1.5006999999955326],"[4.386100000001477,2.298900000005972,1.8062999999970089,2.530000000000001,3.029299999997022,1.5006999999955326]",0,5,5,0,1,Practice,1,(3x3) -  9,0,,,,,,,,,,,,,,,,,,,,,,,,,,,,,,,,,,,,,,,,,,,,,,,,,,,,,,,,,,,,,,,,,,,,,,,,,,,
,,,,,,,,,,,,603e5aad160c3ee04e07e8d3,26,Mężczyzna,2022-06-11_09h05.05.036,task,2021.1.4,Win32,143.7607821,6299f149e92ead563fba08ef,62a43e88fb74fa26fa86d202,,,,,,,,,,,,,9,"[""9""]",1,[1.795199999995532],"[4.386100000001477,2.298900000005972,1.8062999999970089,2.530000000000001,3.029299999997022,1.5006999999955326,1.795199999995532]",0,6,6,9,1,Practice,10,(20/2) - 1,9,,,,,,,,,,,,,,,,,,,,,,,,,,,,,,,,,,,,,,,,,,,,,,,,,,,,,,,,,,,,,,,,,,,,,,,,,,,
,,,,,,,,,,,,603e5aad160c3ee04e07e8d3,26,Mężczyzna,2022-06-11_09h05.05.036,task,2021.1.4,Win32,143.7607821,6299f149e92ead563fba08ef,62a43e88fb74fa26fa86d202,,,,,,,,,,,,,6,"[""6""]",1,[1.9986000000014883],"[4.386100000001477,2.298900000005972,1.8062999999970089,2.530000000000001,3.029299999997022,1.5006999999955326,1.795199999995532,1.9986000000014883]",0,7,7,6,1,Practice,7,(25/5) + 1,6,,,,,,,,,,,,,,,,,,,,,,,,,,,,,,,,,,,,,,,,,,,,,,,,,,,,,,,,,,,,,,,,,,,,,,,,,,,
,,,,,,,,,,,,603e5aad160c3ee04e07e8d3,26,Mężczyzna,2022-06-11_09h05.05.036,task,2021.1.4,Win32,143.7607821,6299f149e92ead563fba08ef,62a43e88fb74fa26fa86d202,,,,,,,,,,,,,2,"[""2""]",1,[4.456499999999977],"[4.386100000001477,2.298900000005972,1.8062999999970089,2.530000000000001,3.029299999997022,1.5006999999955326,1.795199999995532,1.9986000000014883,4.456499999999977]",0,8,8,2,1,Practice,3,(4x4) - 14,2,,,,,,,,,,,,,,,,,,,,,,,,,,,,,,,,,,,,,,,,,,,,,,,,,,,,,,,,,,,,,,,,,,,,,,,,,,,
,,,,,,,,,,,,603e5aad160c3ee04e07e8d3,26,Mężczyzna,2022-06-11_09h05.05.036,task,2021.1.4,Win32,143.7607821,6299f149e92ead563fba08ef,62a43e88fb74fa26fa86d202,,,,,,,,,,,,,4,"[""4""]",1,[5.191899999998526],"[4.386100000001477,2.298900000005972,1.8062999999970089,2.530000000000001,3.029299999997022,1.5006999999955326,1.795199999995532,1.9986000000014883,4.456499999999977,5.191899999998526]",0,9,9,4,1,Practice,5,(2x6) - 8,4,,,,,,,,,,,,,,,,,,,,,,,,,,,,,,,,,,,,,,,,,,,,,,,,,,,,,,,,,,,,,,,,,,,,,,,,,,,
,,,,,,,,,,,,603e5aad160c3ee04e07e8d3,26,Mężczyzna,2022-06-11_09h05.05.036,task,2021.1.4,Win32,143.7607821,6299f149e92ead563fba08ef,62a43e88fb74fa26fa86d202,,,,,,,,,,,,,,,,,,,,,,,,,,,1,28.9935,1.9329,24.92650775,1.28909549,5.258766365,space,1.9895,0,0,0,0,1,,,,,,,,,,,,,,,,,,,,,,,,,,,,,,,,,,,,,,,,,,,,,,,,,,,,,,,,,,,,,,
,,,,,,,,,,,,603e5aad160c3ee04e07e8d3,26,Mężczyzna,2022-06-11_09h05.05.036,task,2021.1.4,Win32,143.7607821,6299f149e92ead563fba08ef,62a43e88fb74fa26fa86d202,,,,,,,,,,,,,8,,,,,,,,,,Practice,9,(3x3) - 1,8,,,,,,,,,,,,,,space,13.0893,"[""8""]",1,[2.994899999998495],1,0,0,0,8,1,,,,,,,,,,,,,,,,,,,,,,,,,,,,,,,,,,,,,,,,,,,,,,,,,,,
,,,,,,,,,,,X V Q F H G B L J M P D K C T S W R N Z,603e5aad160c3ee04e07e8d3,26,Mężczyzna,2022-06-11_09h05.05.036,task,2021.1.4,Win32,143.7607821,6299f149e92ead563fba08ef,62a43e88fb74fa26fa86d202,,,,,,,,,,,,,,,,,,,,,,,,,,,,,,,,,,,,,,,,,,,,,,,,,,,0,0,0,0,1,,,,,,,,,,,,,,,,,,,,,,,,,,,,,,,,,,,,,,,,,,,,,,
,,,,,,,,,,,,603e5aad160c3ee04e07e8d3,26,Mężczyzna,2022-06-11_09h05.05.036,task,2021.1.4,Win32,143.7607821,6299f149e92ead563fba08ef,62a43e88fb74fa26fa86d202,,,,,,,,,,,,,0,,,,,,,,,,Practice,1,(3x3) -  9,0,,,,,,,,,,,,,,,,"[""0""]",1,[3.3904999999999745],1,0,0,0,0,1,,,,,,,,,,,,,,,,,,,,,,,,,,,,,,,,,,,,,,,,,,,,,,,,,,,
,,,,,,,,,,,X V Q F H G B L J M P D K C T S W R N Z,603e5aad160c3ee04e07e8d3,26,Mężczyzna,2022-06-11_09h05.05.036,task,2021.1.4,Win32,143.7607821,6299f149e92ead563fba08ef,62a43e88fb74fa26fa86d202,,,,,,,,,,,,,,,,,,,,,,,,,,,,,,,,,,,,,,,,,,,,,,,,,,,1,0,1,0,1,,,,,,,,,,,,,,,,,,,,,,,,,,,,,,,,,,,,,,,,,,,,,,
,,,,,,,,,,,,603e5aad160c3ee04e07e8d3,26,Mężczyzna,2022-06-11_09h05.05.036,task,2021.1.4,Win32,143.7607821,6299f149e92ead563fba08ef,62a43e88fb74fa26fa86d202,,,,,,,,,,,,,,,,,,,,,,,,,,,,,,,,,,,,,,,,,,,,,,,,,,,,,,,,zc,"[""z"",""c""]",0,"[1.4566000000014583,1.680300000004479,2.632300000004477]",1,0,0,0,0,1,,,,,,,,,,,,,,,,,,,,,,,,,,,,,,,,,,,,
,,,,,,,,,,,,603e5aad160c3ee04e07e8d3,26,Mężczyzna,2022-06-11_09h05.05.036,task,2021.1.4,Win32,143.7607821,6299f149e92ead563fba08ef,62a43e88fb74fa26fa86d202,,,,,,,,,,,,,6,,,,,,,,,,Practice,7,(25/5) + 1,6,,,,,,,,,,,,,,,,"[""6""]",1,[2.2246000000014874],1,0,0,0,6,1,,,,,,,,,,,,,,,,,,,,,,,,,,,,,,,,,,,,,,,,,,,,,,,,,,,
,,,,,,,,,,,X V Q F H G B L J M P D K C T S W R N Z,603e5aad160c3ee04e07e8d3,26,Mężczyzna,2022-06-11_09h05.05.036,task,2021.1.4,Win32,143.7607821,6299f149e92ead563fba08ef,62a43e88fb74fa26fa86d202,,,,,,,,,,,,,,,,,,,,,,,,,,,,,,,,,,,,,,,,,,,,,,,,,,,0,0,0,0,1,,,,,,,,,,,,,,,,,,,,,,,,,,,,,,,,,,,,,,,,,,,,,,
,,,,,,,,,,,,603e5aad160c3ee04e07e8d3,26,Mężczyzna,2022-06-11_09h05.05.036,task,2021.1.4,Win32,143.7607821,6299f149e92ead563fba08ef,62a43e88fb74fa26fa86d202,,,,,,,,,,,,,9,,,,,,,,,,Practice,10,(20/2) - 1,9,,,,,,,,,,,,,,,,"[""9""]",1,[3.3582999999970298],1,0,0,0,9,1,,,,,,,,,,,,,,,,,,,,,,,,,,,,,,,,,,,,,,,,,,,,,,,,,,,
,,,,,,,,,,,X V Q F H G B L J M P D K C T S W R N Z,603e5aad160c3ee04e07e8d3,26,Mężczyzna,2022-06-11_09h05.05.036,task,2021.1.4,Win32,143.7607821,6299f149e92ead563fba08ef,62a43e88fb74fa26fa86d202,,,,,,,,,,,,,,,,,,,,,,,,,,,,,,,,,,,,,,,,,,,,,,,,,,,1,0,1,0,1,,,,,,,,,,,,,,,,,,,,,,,,,,,,,,,,,,,,,,,,,,,,,,
,,,,,,,,,,,,603e5aad160c3ee04e07e8d3,26,Mężczyzna,2022-06-11_09h05.05.036,task,2021.1.4,Win32,143.7607821,6299f149e92ead563fba08ef,62a43e88fb74fa26fa86d202,,,,,,,,,,,,,,,,,,,,,,,,,,,,,,,,,,,,,,,,,,,,,,,,,,,,,,,,mf,"[""m"",""f""]",0,"[1.2670000000000528,1.41889999999853,1.634800000004475]",1,1,0,1,0,1,,,,,,,,,,,,,,,,,,,,,,,,,,,,,,,,,,,,
,,,,,,,,,,,,603e5aad160c3ee04e07e8d3,26,Mężczyzna,2022-06-11_09h05.05.036,task,2021.1.4,Win32,143.7607821,6299f149e92ead563fba08ef,62a43e88fb74fa26fa86d202,,,,,,,,,,,,,1,,,,,,,,,,Practice,2,(4x4) - 15,1,,,,,,,,,,,,,,,,"[""1""]",1,[3.5430000000000064],1,0,0,0,1,1,,,,,,,,,,,,,,,,,,,,,,,,,,,,,,,,,,,,,,,,,,,,,,,,,,,
,,,,,,,,,,,X V Q F H G B L J M P D K C T S W R N Z,603e5aad160c3ee04e07e8d3,26,Mężczyzna,2022-06-11_09h05.05.036,task,2021.1.4,Win32,143.7607821,6299f149e92ead563fba08ef,62a43e88fb74fa26fa86d202,,,,,,,,,,,,,,,,,,,,,,,,,,,,,,,,,,,,,,,,,,,,,,,,,,,0,0,0,0,1,,,,,,,,,,,,,,,,,,,,,,,,,,,,,,,,,,,,,,,,,,,,,,
,,,,,,,,,,,,603e5aad160c3ee04e07e8d3,26,Mężczyzna,2022-06-11_09h05.05.036,task,2021.1.4,Win32,143.7607821,6299f149e92ead563fba08ef,62a43e88fb74fa26fa86d202,,,,,,,,,,,,,4,,,,,,,,,,Practice,5,(2x6) - 8,4,,,,,,,,,,,,,,,,"[""4""]",1,[2.111699999995494],1,0,0,0,4,1,,,,,,,,,,,,,,,,,,,,,,,,,,,,,,,,,,,,,,,,,,,,,,,,,,,
,,,,,,,,,,,X V Q F H G B L J M P D K C T S W R N Z,603e5aad160c3ee04e07e8d3,26,Mężczyzna,2022-06-11_09h05.05.036,task,2021.1.4,Win32,143.7607821,6299f149e92ead563fba08ef,62a43e88fb74fa26fa86d202,,,,,,,,,,,,,,,,,,,,,,,,,,,,,,,,,,,,,,,,,,,,,,,,,,,1,0,1,0,1,,,,,,,,,,,,,,,,,,,,,,,,,,,,,,,,,,,,,,,,,,,,,,
,,,,,,,,,,,,603e5aad160c3ee04e07e8d3,26,Mężczyzna,2022-06-11_09h05.05.036,task,2021.1.4,Win32,143.7607821,6299f149e92ead563fba08ef,62a43e88fb74fa26fa86d202,,,,,,,,,,,,,,,,,,,,,,,,,,,,,,,,,,,,,,,,,,,,,,,,,,,,,,,,jt,"[""j"",""t""]",0,"[1.2152999999970575,1.295500000000004,1.6322999999970307]",1,2,0,2,0,1,,,,,,,,,,,,,,,,,,,,,,,,,,,,,,,,,,,,
,,,,,,,,,,,,603e5aad160c3ee04e07e8d3,26,Mężczyzna,2022-06-11_09h05.05.036,task,2021.1.4,Win32,143.7607821,6299f149e92ead563fba08ef,62a43e88fb74fa26fa86d202,,,,,,,,,,,,,7,,,,,,,,,,Task,6,(12/2) + 1,7,,,,,,,,,,,,,,,,,,,1,,,,,,,,,,,,,,,,,,,,,space,11.634,"[""7""]",1,[3.632000000000005],0,0,0,5,1,,,,,,,,,,,,,,,,,,,,,,,,,,
,,,,,,,,,,,X V Q F H G B L J M P D K C T S W R N Z,603e5aad160c3ee04e07e8d3,26,Mężczyzna,2022-06-11_09h05.05.036,task,2021.1.4,Win32,143.7607821,6299f149e92ead563fba08ef,62a43e88fb74fa26fa86d202,,,,,,,,,,,,,,,,,,,,,,,,,,,,,,,,,,,,,,,,,,,,,,,,,,,,,,,,,,,,,,,,,,,,,,,,,,,,0,0,0,0,1,,,,,,,,,,,,,,,,,,,,,
,,,,,,,,,,,,603e5aad160c3ee04e07e8d3,26,Mężczyzna,2022-06-11_09h05.05.036,task,2021.1.4,Win32,143.7607821,6299f149e92ead563fba08ef,62a43e88fb74fa26fa86d202,,,,,,,,,,,,,5,,,,,,,,,,Task,29,(3x8) - 19 ,5,,,,,,,,,,,,,,,,,,,1,,,,,,,,,,,,,,,,,,,,,,,"[""5""]",1,[4.259099999994021],0,0,0,28,1,,,,,,,,,,,,,,,,,,,,,,,,,,
,,,,,,,,,,,X V Q F H G B L J M P D K C T S W R N Z,603e5aad160c3ee04e07e8d3,26,Mężczyzna,2022-06-11_09h05.05.036,task,2021.1.4,Win32,143.7607821,6299f149e92ead563fba08ef,62a43e88fb74fa26fa86d202,,,,,,,,,,,,,,,,,,,,,,,,,,,,,,,,,,,,,,,,,,,,,,,,,,,,,,,,,,,,,,,,,,,,,,,,,,,,1,0,1,0,1,,,,,,,,,,,,,,,,,,,,,
,,,,,,,,,,,,603e5aad160c3ee04e07e8d3,26,Mężczyzna,2022-06-11_09h05.05.036,task,2021.1.4,Win32,143.7607821,6299f149e92ead563fba08ef,62a43e88fb74fa26fa86d202,,,,,,,,,,,,,,,,,,,,,,,,,,,,,,,,,,,,,,,,,,,,,,,,,,,,,,,,,,,,,,,,,,,,,,,,,,,,,,,,,zd,"[""z"",""d""]",0,"[1.440800000004458,1.5696000000015147,1.9047000000030039]",1,ZD,0,0,0,0,1,,,,,,,,,,
,,,,,,,,,,,,603e5aad160c3ee04e07e8d3,26,Mężczyzna,2022-06-11_09h05.05.036,task,2021.1.4,Win32,143.7607821,6299f149e92ead563fba08ef,62a43e88fb74fa26fa86d202,,,,,,,,,,,,,9,,,,,,,,,,Task,24,(2x2) + 5,9,,,,,,,,,,,,,,,,,,,1,,,,,,,,,,,,,,,,,,,,,,,"[""9""]",1,[2.5811999999955333],0,0,0,23,1,,,,,,,,,,,,,,,,,,,,,,,,,,
,,,,,,,,,,,X V Q F H G B L J M P D K C T S W R N Z,603e5aad160c3ee04e07e8d3,26,Mężczyzna,2022-06-11_09h05.05.036,task,2021.1.4,Win32,143.7607821,6299f149e92ead563fba08ef,62a43e88fb74fa26fa86d202,,,,,,,,,,,,,,,,,,,,,,,,,,,,,,,,,,,,,,,,,,,,,,,,,,,,,,,,,,,,,,,,,,,,,,,,,,,,0,0,0,0,1,,,,,,,,,,,,,,,,,,,,,
,,,,,,,,,,,,603e5aad160c3ee04e07e8d3,26,Mężczyzna,2022-06-11_09h05.05.036,task,2021.1.4,Win32,143.7607821,6299f149e92ead563fba08ef,62a43e88fb74fa26fa86d202,,,,,,,,,,,,,8,,,,,,,,,,Task,25,(10/5) - 2,0,,,,,,,,,,,,,,,,,,,0,,,,,,,,,,,,,,,,,,,,,,,"[""8""]",0,[1.406699999995567],0,0,0,24,1,,,,,,,,,,,,,,,,,,,,,,,,,,
,,,,,,,,,,,,603e5aad160c3ee04e07e8d3,26,Mężczyzna,2022-06-11_09h05.05.036,task,2021.1.4,Win32,143.7607821,6299f149e92ead563fba08ef,62a43e88fb74fa26fa86d202,,,,,,,,,,,,,6,,,,,,,,,,Task,37,(3/3) + 5,6,,,,,,,,,,,,,,,,,,,1,,,,,,,,,,,,,,,,,,,,,,,"[""6""]",1,[2.8496000000014874],0,1,1,36,1,,,,,,,,,,,,,,,,,,,,,,,,,,
,,,,,,,,,,,X V Q F H G B L J M P D K C T S W R N Z,603e5aad160c3ee04e07e8d3,26,Mężczyzna,2022-06-11_09h05.05.036,task,2021.1.4,Win32,143.7607821,6299f149e92ead563fba08ef,62a43e88fb74fa26fa86d202,,,,,,,,,,,,,,,,,,,,,,,,,,,,,,,,,,,,,,,,,,,,,,,,,,,,,,,,,,,,,,,,,,,,,,,,,,,,1,0,1,0,1,,,,,,,,,,,,,,,,,,,,,
,,,,,,,,,,,,603e5aad160c3ee04e07e8d3,26,Mężczyzna,2022-06-11_09h05.05.036,task,2021.1.4,Win32,143.7607821,6299f149e92ead563fba08ef,62a43e88fb74fa26fa86d202,,,,,,,,,,,,,3,,,,,,,,,,Task,3,(2x3) - 3,3,,,,,,,,,,,,,,,,,,,1,,,,,,,,,,,,,,,,,,,,,,,"[""3""]",1,[2.6684999999999945],0,0,0,2,1,,,,,,,,,,,,,,,,,,,,,,,,,,
,,,,,,,,,,,X V Q F H G B L J M P D K C T S W R N Z,603e5aad160c3ee04e07e8d3,26,Mężczyzna,2022-06-11_09h05.05.036,task,2021.1.4,Win32,143.7607821,6299f149e92ead563fba08ef,62a43e88fb74fa26fa86d202,,,,,,,,,,,,,,,,,,,,,,,,,,,,,,,,,,,,,,,,,,,,,,,,,,,,,,,,,,,,,,,,,,,,,,,,,,,,2,0,2,0,1,,,,,,,,,,,,,,,,,,,,,
,,,,,,,,,,,,603e5aad160c3ee04e07e8d3,26,Mężczyzna,2022-06-11_09h05.05.036,task,2021.1.4,Win32,143.7607821,6299f149e92ead563fba08ef,62a43e88fb74fa26fa86d202,,,,,,,,,,,,,,,,,,,,,,,,,,,,,,,,,,,,,,,,,,,,,,,,,,,,,,,,,,,,,,,,,,,,,,,,,,,,,,,,,cqr,"[""c"",""q"",""r""]",0,"[1.0166999999955237,1.2644999999999982,1.5692999999969857,3.1926000000014483]",1,CQR,1,0,1,0,1,,,,,,,,,,
,,,,,,,,,,,,603e5aad160c3ee04e07e8d3,26,Mężczyzna,2022-06-11_09h05.05.036,task,2021.1.4,Win32,143.7607821,6299f149e92ead563fba08ef,62a43e88fb74fa26fa86d202,,,,,,,,,,,,,7,,,,,,,,,,Task,31,(4/2) + 5,7,,,,,,,,,,,,,,,,,,,1,,,,,,,,,,,,,,,,,,,,,,,"[""7""]",1,[3.009099999994021],0,0,0,30,1,,,,,,,,,,,,,,,,,,,,,,,,,,
,,,,,,,,,,,X V Q F H G B L J M P D K C T S W R N Z,603e5aad160c3ee04e07e8d3,26,Mężczyzna,2022-06-11_09h05.05.036,task,2021.1.4,Win32,143.7607821,6299f149e92ead563fba08ef,62a43e88fb74fa26fa86d202,,,,,,,,,,,,,,,,,,,,,,,,,,,,,,,,,,,,,,,,,,,,,,,,,,,,,,,,,,,,,,,,,,,,,,,,,,,,0,0,0,0,1,,,,,,,,,,,,,,,,,,,,,
,,,,,,,,,,,,603e5aad160c3ee04e07e8d3,26,Mężczyzna,2022-06-11_09h05.05.036,task,2021.1.4,Win32,143.7607821,6299f149e92ead563fba08ef,62a43e88fb74fa26fa86d202,,,,,,,,,,,,,5,,,,,,,,,,Task,12,(4x4) - 11,5,,,,,,,,,,,,,,,,,,,1,,,,,,,,,,,,,,,,,,,,,,,"[""5""]",1,[2.659999999999968],0,0,0,11,1,,,,,,,,,,,,,,,,,,,,,,,,,,
,,,,,,,,,,,X V Q F H G B L J M P D K C T S W R N Z,603e5aad160c3ee04e07e8d3,26,Mężczyzna,2022-06-11_09h05.05.036,task,2021.1.4,Win32,143.7607821,6299f149e92ead563fba08ef,62a43e88fb74fa26fa86d202,,,,,,,,,,,,,,,,,,,,,,,,,,,,,,,,,,,,,,,,,,,,,,,,,,,,,,,,,,,,,,,,,,,,,,,,,,,,1,0,1,0,1,,,,,,,,,,,,,,,,,,,,,
,,,,,,,,,,,,603e5aad160c3ee04e07e8d3,26,Mężczyzna,2022-06-11_09h05.05.036,task,2021.1.4,Win32,143.7607821,6299f149e92ead563fba08ef,62a43e88fb74fa26fa86d202,,,,,,,,,,,,,2,,,,,,,,,,Task,19,(6/2) - 1,2,,,,,,,,,,,,,,,,,,,1,,,,,,,,,,,,,,,,,,,,,,,"[""2""]",1,[2.9786999999955697],0,0,0,18,1,,,,,,,,,,,,,,,,,,,,,,,,,,
,,,,,,,,,,,X V Q F H G B L J M P D K C T S W R N Z,603e5aad160c3ee04e07e8d3,26,Mężczyzna,2022-06-11_09h05.05.036,task,2021.1.4,Win32,143.7607821,6299f149e92ead563fba08ef,62a43e88fb74fa26fa86d202,,,,,,,,,,,,,,,,,,,,,,,,,,,,,,,,,,,,,,,,,,,,,,,,,,,,,,,,,,,,,,,,,,,,,,,,,,,,2,0,2,0,1,,,,,,,,,,,,,,,,,,,,,
,,,,,,,,,,,,603e5aad160c3ee04e07e8d3,26,Mężczyzna,2022-06-11_09h05.05.036,task,2021.1.4,Win32,143.7607821,6299f149e92ead563fba08ef,62a43e88fb74fa26fa86d202,,,,,,,,,,,,,,,,,,,,,,,Task,38,(4x6) - 17,7,,,,,,,,,,,,,,,,,,,0,,,,,,,,,,,,,,,,,,,,,,,,0,,0,0,0,37,1,,,,,,,,,,,,,,,,,,,,,,,,,,
,,,,,,,,,,,,603e5aad160c3ee04e07e8d3,26,Mężczyzna,2022-06-11_09h05.05.036,task,2021.1.4,Win32,143.7607821,6299f149e92ead563fba08ef,62a43e88fb74fa26fa86d202,,,,,,,,,,,,,2,,,,,,,,,,Task,19,(6/2) - 1,2,,,,,,,,,,,,,,,,,,,1,,,,,,,,,,,,,,,,,,,,,,,"[""2""]",1,[3.0369000000059145],0,1,1,18,1,,,,,,,,,,,,,,,,,,,,,,,,,,
,,,,,,,,,,,X V Q F H G B L J M P D K C T S W R N Z,603e5aad160c3ee04e07e8d3,26,Mężczyzna,2022-06-11_09h05.05.036,task,2021.1.4,Win32,143.7607821,6299f149e92ead563fba08ef,62a43e88fb74fa26fa86d202,,,,,,,,,,,,,,,,,,,,,,,,,,,,,,,,,,,,,,,,,,,,,,,,,,,,,,,,,,,,,,,,,,,,,,,,,,,,3,0,3,0,1,,,,,,,,,,,,,,,,,,,,,
,,,,,,,,,,,,603e5aad160c3ee04e07e8d3,26,Mężczyzna,2022-06-11_09h05.05.036,task,2021.1.4,Win32,143.7607821,6299f149e92ead563fba08ef,62a43e88fb74fa26fa86d202,,,,,,,,,,,,,,,,,,,,,,,,,,,,,,,,,,,,,,,,,,,,,,,,,,,,,,,,,,,,,,,,,,,,,,,,,,,,,,,,,wjmj,"[""w"",""j"",""m"",""j""]",0,"[1.808800000004453,2.048800000004462,2.2647000000029607,2.432700000002967,2.680900000005977]",1,WJMJ,2,0,2,0,1,,,,,,,,,,
,,,,,,,,,,,,603e5aad160c3ee04e07e8d3,26,Mężczyzna,2022-06-11_09h05.05.036,task,2021.1.4,Win32,143.7607821,6299f149e92ead563fba08ef,62a43e88fb74fa26fa86d202,,,,,,,,,,,,,4,,,,,,,,,,Task,11,(18/3) - 2,4,,,,,,,,,,,,,,,,,,,1,,,,,,,,,,,,,,,,,,,,,,,"[""4""]",1,[2.6719999999999686],0,0,0,10,1,,,,,,,,,,,,,,,,,,,,,,,,,,
,,,,,,,,,,,X V Q F H G B L J M P D K C T S W R N Z,603e5aad160c3ee04e07e8d3,26,Mężczyzna,2022-06-11_09h05.05.036,task,2021.1.4,Win32,143.7607821,6299f149e92ead563fba08ef,62a43e88fb74fa26fa86d202,,,,,,,,,,,,,,,,,,,,,,,,,,,,,,,,,,,,,,,,,,,,,,,,,,,,,,,,,,,,,,,,,,,,,,,,,,,,0,0,0,0,1,,,,,,,,,,,,,,,,,,,,,
,,,,,,,,,,,,603e5aad160c3ee04e07e8d3,26,Mężczyzna,2022-06-11_09h05.05.036,task,2021.1.4,Win32,143.7607821,6299f149e92ead563fba08ef,62a43e88fb74fa26fa86d202,,,,,,,,,,,,,7,,,,,,,,,,Task,6,(12/2) + 1,7,,,,,,,,,,,,,,,,,,,1,,,,,,,,,,,,,,,,,,,,,,,"[""7""]",1,[2.938500000000033],0,0,0,5,1,,,,,,,,,,,,,,,,,,,,,,,,,,
,,,,,,,,,,,X V Q F H G B L J M P D K C T S W R N Z,603e5aad160c3ee04e07e8d3,26,Mężczyzna,2022-06-11_09h05.05.036,task,2021.1.4,Win32,143.7607821,6299f149e92ead563fba08ef,62a43e88fb74fa26fa86d202,,,,,,,,,,,,,,,,,,,,,,,,,,,,,,,,,,,,,,,,,,,,,,,,,,,,,,,,,,,,,,,,,,,,,,,,,,,,1,0,1,0,1,,,,,,,,,,,,,,,,,,,,,
,,,,,,,,,,,,603e5aad160c3ee04e07e8d3,26,Mężczyzna,2022-06-11_09h05.05.036,task,2021.1.4,Win32,143.7607821,6299f149e92ead563fba08ef,62a43e88fb74fa26fa86d202,,,,,,,,,,,,,4,,,,,,,,,,Task,11,(18/3) - 2,4,,,,,,,,,,,,,,,,,,,1,,,,,,,,,,,,,,,,,,,,,,,"[""4""]",1,[2.5278999999985103],0,0,0,10,1,,,,,,,,,,,,,,,,,,,,,,,,,,
,,,,,,,,,,,X V Q F H G B L J M P D K C T S W R N Z,603e5aad160c3ee04e07e8d3,26,Mężczyzna,2022-06-11_09h05.05.036,task,2021.1.4,Win32,143.7607821,6299f149e92ead563fba08ef,62a43e88fb74fa26fa86d202,,,,,,,,,,,,,,,,,,,,,,,,,,,,,,,,,,,,,,,,,,,,,,,,,,,,,,,,,,,,,,,,,,,,,,,,,,,,2,0,2,0,1,,,,,,,,,,,,,,,,,,,,,
,,,,,,,,,,,,603e5aad160c3ee04e07e8d3,26,Mężczyzna,2022-06-11_09h05.05.036,task,2021.1.4,Win32,143.7607821,6299f149e92ead563fba08ef,62a43e88fb74fa26fa86d202,,,,,,,,,,,,,2,,,,,,,,,,Task,10,(2x5) - 8,2,,,,,,,,,,,,,,,,,,,1,,,,,,,,,,,,,,,,,,,,,,,"[""2""]",1,[2.5517000000029952],0,0,0,9,1,,,,,,,,,,,,,,,,,,,,,,,,,,
,,,,,,,,,,,X V Q F H G B L J M P D K C T S W R N Z,603e5aad160c3ee04e07e8d3,26,Mężczyzna,2022-06-11_09h05.05.036,task,2021.1.4,Win32,143.7607821,6299f149e92ead563fba08ef,62a43e88fb74fa26fa86d202,,,,,,,,,,,,,,,,,,,,,,,,,,,,,,,,,,,,,,,,,,,,,,,,,,,,,,,,,,,,,,,,,,,,,,,,,,,,3,0,3,0,1,,,,,,,,,,,,,,,,,,,,,
,,,,,,,,,,,,603e5aad160c3ee04e07e8d3,26,Mężczyzna,2022-06-11_09h05.05.036,task,2021.1.4,Win32,143.7607821,6299f149e92ead563fba08ef,62a43e88fb74fa26fa86d202,,,,,,,,,,,,,5,,,,,,,,,,Task,37,(3/3) + 5,6,,,,,,,,,,,,,,,,,,,0,,,,,,,,,,,,,,,,,,,,,,,"[""5""]",0,[2.417900000006],0,0,0,36,1,,,,,,,,,,,,,,,,,,,,,,,,,,
,,,,,,,,,,,,603e5aad160c3ee04e07e8d3,26,Mężczyzna,2022-06-11_09h05.05.036,task,2021.1.4,Win32,143.7607821,6299f149e92ead563fba08ef,62a43e88fb74fa26fa86d202,,,,,,,,,,,,,2,,,,,,,,,,Task,10,(2x5) - 8,2,,,,,,,,,,,,,,,,,,,1,,,,,,,,,,,,,,,,,,,,,,,"[""2""]",1,[1.975500000000011],0,1,1,9,1,,,,,,,,,,,,,,,,,,,,,,,,,,
,,,,,,,,,,,X V Q F H G B L J M P D K C T S W R N Z,603e5aad160c3ee04e07e8d3,26,Mężczyzna,2022-06-11_09h05.05.036,task,2021.1.4,Win32,143.7607821,6299f149e92ead563fba08ef,62a43e88fb74fa26fa86d202,,,,,,,,,,,,,,,,,,,,,,,,,,,,,,,,,,,,,,,,,,,,,,,,,,,,,,,,,,,,,,,,,,,,,,,,,,,,4,0,4,0,1,,,,,,,,,,,,,,,,,,,,,
,,,,,,,,,,,,603e5aad160c3ee04e07e8d3,26,Mężczyzna,2022-06-11_09h05.05.036,task,2021.1.4,Win32,143.7607821,6299f149e92ead563fba08ef,62a43e88fb74fa26fa86d202,,,,,,,,,,,,,,,,,,,,,,,,,,,,,,,,,,,,,,,,,,,,,,,,,,,,,,,,,,,,,,,,,,,,,,,,,,,,,,,,,bblnf,"[""b"",""b"",""l"",""n"",""f""]",0,"[1.3857000000029984,1.5756000000015433,1.7221000000014897,2.131300000004501,2.9616000000015106,3.4735000000000014]",1,BBLNF,3,0,3,0,1,,,,,,,,,,
,,,,,,,,,,,,603e5aad160c3ee04e07e8d3,26,Mężczyzna,2022-06-11_09h05.05.036,task,2021.1.4,Win32,143.7607821,6299f149e92ead563fba08ef,62a43e88fb74fa26fa86d202,,,,,,,,,,,,,5,,,,,,,,,,Task,12,(4x4) - 11,5,,,,,,,,,,,,,,,,,,,1,,,,,,,,,,,,,,,,,,,,,,,"[""5""]",1,[2.4325000000000045],0,0,0,11,1,,,,,,,,,,,,,,,,,,,,,,,,,,
,,,,,,,,,,,X V Q F H G B L J M P D K C T S W R N Z,603e5aad160c3ee04e07e8d3,26,Mężczyzna,2022-06-11_09h05.05.036,task,2021.1.4,Win32,143.7607821,6299f149e92ead563fba08ef,62a43e88fb74fa26fa86d202,,,,,,,,,,,,,,,,,,,,,,,,,,,,,,,,,,,,,,,,,,,,,,,,,,,,,,,,,,,,,,,,,,,,,,,,,,,,0,0,0,0,1,,,,,,,,,,,,,,,,,,,,,
,,,,,,,,,,,,603e5aad160c3ee04e07e8d3,26,Mężczyzna,2022-06-11_09h05.05.036,task,2021.1.4,Win32,143.7607821,6299f149e92ead563fba08ef,62a43e88fb74fa26fa86d202,,,,,,,,,,,,,4,,,,,,,,,,Task,28,(2x5) - 6,4,,,,,,,,,,,,,,,,,,,1,,,,,,,,,,,,,,,,,,,,,,,"[""4""]",1,[2.8088999999985163],0,0,0,27,1,,,,,,,,,,,,,,,,,,,,,,,,,,
,,,,,,,,,,,X V Q F H G B L J M P D K C T S W R N Z,603e5aad160c3ee04e07e8d3,26,Mężczyzna,2022-06-11_09h05.05.036,task,2021.1.4,Win32,143.7607821,6299f149e92ead563fba08ef,62a43e88fb74fa26fa86d202,,,,,,,,,,,,,,,,,,,,,,,,,,,,,,,,,,,,,,,,,,,,,,,,,,,,,,,,,,,,,,,,,,,,,,,,,,,,1,0,1,0,1,,,,,,,,,,,,,,,,,,,,,
,,,,,,,,,,,,603e5aad160c3ee04e07e8d3,26,Mężczyzna,2022-06-11_09h05.05.036,task,2021.1.4,Win32,143.7607821,6299f149e92ead563fba08ef,62a43e88fb74fa26fa86d202,,,,,,,,,,,,,3,,,,,,,,,,Task,19,(6/2) - 1,2,,,,,,,,,,,,,,,,,,,0,,,,,,,,,,,,,,,,,,,,,,,"[""3""]",0,[3.569800000004477],0,0,0,18,1,,,,,,,,,,,,,,,,,,,,,,,,,,
,,,,,,,,,,,,603e5aad160c3ee04e07e8d3,26,Mężczyzna,2022-06-11_09h05.05.036,task,2021.1.4,Win32,143.7607821,6299f149e92ead563fba08ef,62a43e88fb74fa26fa86d202,,,,,,,,,,,,,8,,,,,,,,,,Task,23,(2x3) + 2,8,,,,,,,,,,,,,,,,,,,1,,,,,,,,,,,,,,,,,,,,,,,"[""8""]",1,[3.177400000005946],0,1,1,22,1,,,,,,,,,,,,,,,,,,,,,,,,,,
,,,,,,,,,,,X V Q F H G B L J M P D K C T S W R N Z,603e5aad160c3ee04e07e8d3,26,Mężczyzna,2022-06-11_09h05.05.036,task,2021.1.4,Win32,143.7607821,6299f149e92ead563fba08ef,62a43e88fb74fa26fa86d202,,,,,,,,,,,,,,,,,,,,,,,,,,,,,,,,,,,,,,,,,,,,,,,,,,,,,,,,,,,,,,,,,,,,,,,,,,,,2,0,2,0,1,,,,,,,,,,,,,,,,,,,,,
,,,,,,,,,,,,603e5aad160c3ee04e07e8d3,26,Mężczyzna,2022-06-11_09h05.05.036,task,2021.1.4,Win32,143.7607821,6299f149e92ead563fba08ef,62a43e88fb74fa26fa86d202,,,,,,,,,,,,,,,,,,,,,,,Task,29,(3x8) - 19 ,5,,,,,,,,,,,,,,,,,,,0,,,,,,,,,,,,,,,,,,,,,,,,0,,0,0,0,28,1,,,,,,,,,,,,,,,,,,,,,,,,,,
,,,,,,,,,,,,603e5aad160c3ee04e07e8d3,26,Mężczyzna,2022-06-11_09h05.05.036,task,2021.1.4,Win32,143.7607821,6299f149e92ead563fba08ef,62a43e88fb74fa26fa86d202,,,,,,,,,,,,,1,,,,,,,,,,Task,18,(16/4) - 3,1,,,,,,,,,,,,,,,,,,,1,,,,,,,,,,,,,,,,,,,,,,,"[""1""]",1,[2.7106000000014774],0,1,1,17,1,,,,,,,,,,,,,,,,,,,,,,,,,,
,,,,,,,,,,,X V Q F H G B L J M P D K C T S W R N Z,603e5aad160c3ee04e07e8d3,26,Mężczyzna,2022-06-11_09h05.05.036,task,2021.1.4,Win32,143.7607821,6299f149e92ead563fba08ef,62a43e88fb74fa26fa86d202,,,,,,,,,,,,,,,,,,,,,,,,,,,,,,,,,,,,,,,,,,,,,,,,,,,,,,,,,,,,,,,,,,,,,,,,,,,,3,0,3,0,1,,,,,,,,,,,,,,,,,,,,,
,,,,,,,,,,,,603e5aad160c3ee04e07e8d3,26,Mężczyzna,2022-06-11_09h05.05.036,task,2021.1.4,Win32,143.7607821,6299f149e92ead563fba08ef,62a43e88fb74fa26fa86d202,,,,,,,,,,,,,4,,,,,,,,,,Task,28,(2x5) - 6,4,,,,,,,,,,,,,,,,,,,1,,,,,,,,,,,,,,,,,,,,,,,"[""4""]",1,[2.7676999999955],0,0,0,27,1,,,,,,,,,,,,,,,,,,,,,,,,,,
,,,,,,,,,,,X V Q F H G B L J M P D K C T S W R N Z,603e5aad160c3ee04e07e8d3,26,Mężczyzna,2022-06-11_09h05.05.036,task,2021.1.4,Win32,143.7607821,6299f149e92ead563fba08ef,62a43e88fb74fa26fa86d202,,,,,,,,,,,,,,,,,,,,,,,,,,,,,,,,,,,,,,,,,,,,,,,,,,,,,,,,,,,,,,,,,,,,,,,,,,,,4,0,4,0,1,,,,,,,,,,,,,,,,,,,,,
,,,,,,,,,,,,603e5aad160c3ee04e07e8d3,26,Mężczyzna,2022-06-11_09h05.05.036,task,2021.1.4,Win32,143.7607821,6299f149e92ead563fba08ef,62a43e88fb74fa26fa86d202,,,,,,,,,,,,,2,,,,,,,,,,Task,2,(2x2) - 2,2,,,,,,,,,,,,,,,,,,,1,,,,,,,,,,,,,,,,,,,,,,,"[""2""]",1,[2.282100000001492],0,0,0,1,1,,,,,,,,,,,,,,,,,,,,,,,,,,
,,,,,,,,,,,X V Q F H G B L J M P D K C T S W R N Z,603e5aad160c3ee04e07e8d3,26,Mężczyzna,2022-06-11_09h05.05.036,task,2021.1.4,Win32,143.7607821,6299f149e92ead563fba08ef,62a43e88fb74fa26fa86d202,,,,,,,,,,,,,,,,,,,,,,,,,,,,,,,,,,,,,,,,,,,,,,,,,,,,,,,,,,,,,,,,,,,,,,,,,,,,5,0,5,0,1,,,,,,,,,,,,,,,,,,,,,
,,,,,,,,,,,,603e5aad160c3ee04e07e8d3,26,Mężczyzna,2022-06-11_09h05.05.036,task,2021.1.4,Win32,143.7607821,6299f149e92ead563fba08ef,62a43e88fb74fa26fa86d202,,,,,,,,,,,,,,,,,,,,,,,,,,,,,,,,,,,,,,,,,,,,,,,,,,,,,,,,,,,,,,,,,,,,,,,,,,,,,,,,,smztlm,"[""s"",""m"",""z"",""t"",""l"",""m""]",0,"[1.1468999999984817,1.3548999999985085,1.6592999999970175,2.1469999999999914,2.2988999999984685,2.5068999999984953,2.9149999999999636]",1,SMZTLM,4,0,4,0,1,,,,,,,,,,
,,,,,,,,,,,,603e5aad160c3ee04e07e8d3,26,Mężczyzna,2022-06-11_09h05.05.036,task,2021.1.4,Win32,143.7607821,6299f149e92ead563fba08ef,62a43e88fb74fa26fa86d202,,,,,,,,,,,,,8,,,,,,,,,,Task,39,(5x3) - 7,8,,,,,,,,,,,,,,,,,,,1,,,,,,,,,,,,,,,,,,,,,,,"[""8""]",1,[2.8151000000014506],0,0,0,38,1,,,,,,,,,,,,,,,,,,,,,,,,,,
,,,,,,,,,,,X V Q F H G B L J M P D K C T S W R N Z,603e5aad160c3ee04e07e8d3,26,Mężczyzna,2022-06-11_09h05.05.036,task,2021.1.4,Win32,143.7607821,6299f149e92ead563fba08ef,62a43e88fb74fa26fa86d202,,,,,,,,,,,,,,,,,,,,,,,,,,,,,,,,,,,,,,,,,,,,,,,,,,,,,,,,,,,,,,,,,,,,,,,,,,,,0,0,0,0,1,,,,,,,,,,,,,,,,,,,,,
,,,,,,,,,,,,603e5aad160c3ee04e07e8d3,26,Mężczyzna,2022-06-11_09h05.05.036,task,2021.1.4,Win32,143.7607821,6299f149e92ead563fba08ef,62a43e88fb74fa26fa86d202,,,,,,,,,,,,,2,,,,,,,,,,Task,10,(2x5) - 8,2,,,,,,,,,,,,,,,,,,,1,,,,,,,,,,,,,,,,,,,,,,,"[""2""]",1,[1.7707999999970525],0,0,0,9,1,,,,,,,,,,,,,,,,,,,,,,,,,,
,,,,,,,,,,,X V Q F H G B L J M P D K C T S W R N Z,603e5aad160c3ee04e07e8d3,26,Mężczyzna,2022-06-11_09h05.05.036,task,2021.1.4,Win32,143.7607821,6299f149e92ead563fba08ef,62a43e88fb74fa26fa86d202,,,,,,,,,,,,,,,,,,,,,,,,,,,,,,,,,,,,,,,,,,,,,,,,,,,,,,,,,,,,,,,,,,,,,,,,,,,,1,0,1,0,1,,,,,,,,,,,,,,,,,,,,,
,,,,,,,,,,,,603e5aad160c3ee04e07e8d3,26,Mężczyzna,2022-06-11_09h05.05.036,task,2021.1.4,Win32,143.7607821,6299f149e92ead563fba08ef,62a43e88fb74fa26fa86d202,,,,,,,,,,,,,7,,,,,,,,,,Task,31,(4/2) + 5,7,,,,,,,,,,,,,,,,,,,1,,,,,,,,,,,,,,,,,,,,,,,"[""7""]",1,[2.8595000000000255],0,0,0,30,1,,,,,,,,,,,,,,,,,,,,,,,,,,
,,,,,,,,,,,X V Q F H G B L J M P D K C T S W R N Z,603e5aad160c3ee04e07e8d3,26,Mężczyzna,2022-06-11_09h05.05.036,task,2021.1.4,Win32,143.7607821,6299f149e92ead563fba08ef,62a43e88fb74fa26fa86d202,,,,,,,,,,,,,,,,,,,,,,,,,,,,,,,,,,,,,,,,,,,,,,,,,,,,,,,,,,,,,,,,,,,,,,,,,,,,2,0,2,0,1,,,,,,,,,,,,,,,,,,,,,
,,,,,,,,,,,,603e5aad160c3ee04e07e8d3,26,Mężczyzna,2022-06-11_09h05.05.036,task,2021.1.4,Win32,143.7607821,6299f149e92ead563fba08ef,62a43e88fb74fa26fa86d202,,,,,,,,,,,,,7,,,,,,,,,,Task,30,(6/3) + 4 ,6,,,,,,,,,,,,,,,,,,,0,,,,,,,,,,,,,,,,,,,,,,,"[""7""]",0,[4.058100000001502],0,0,0,29,1,,,,,,,,,,,,,,,,,,,,,,,,,,
,,,,,,,,,,,,603e5aad160c3ee04e07e8d3,26,Mężczyzna,2022-06-11_09h05.05.036,task,2021.1.4,Win32,143.7607821,6299f149e92ead563fba08ef,62a43e88fb74fa26fa86d202,,,,,,,,,,,,,5,,,,,,,,,,Task,12,(4x4) - 11,5,,,,,,,,,,,,,,,,,,,1,,,,,,,,,,,,,,,,,,,,,,,"[""5""]",1,[2.4320000000000164],0,1,1,11,1,,,,,,,,,,,,,,,,,,,,,,,,,,
,,,,,,,,,,,X V Q F H G B L J M P D K C T S W R N Z,603e5aad160c3ee04e07e8d3,26,Mężczyzna,2022-06-11_09h05.05.036,task,2021.1.4,Win32,143.7607821,6299f149e92ead563fba08ef,62a43e88fb74fa26fa86d202,,,,,,,,,,,,,,,,,,,,,,,,,,,,,,,,,,,,,,,,,,,,,,,,,,,,,,,,,,,,,,,,,,,,,,,,,,,,3,0,3,0,1,,,,,,,,,,,,,,,,,,,,,
,,,,,,,,,,,,603e5aad160c3ee04e07e8d3,26,Mężczyzna,2022-06-11_09h05.05.036,task,2021.1.4,Win32,143.7607821,6299f149e92ead563fba08ef,62a43e88fb74fa26fa86d202,,,,,,,,,,,,,,,,,,,,,,,Task,13,(3x4) - 6,6,,,,,,,,,,,,,,,,,,,0,,,,,,,,,,,,,,,,,,,,,,,,0,,0,0,0,12,1,,,,,,,,,,,,,,,,,,,,,,,,,,
,,,,,,,,,,,,603e5aad160c3ee04e07e8d3,26,Mężczyzna,2022-06-11_09h05.05.036,task,2021.1.4,Win32,143.7607821,6299f149e92ead563fba08ef,62a43e88fb74fa26fa86d202,,,,,,,,,,,,,4,,,,,,,,,,Task,11,(18/3) - 2,4,,,,,,,,,,,,,,,,,,,1,,,,,,,,,,,,,,,,,,,,,,,"[""4""]",1,[3.6153999999984876],0,1,1,10,1,,,,,,,,,,,,,,,,,,,,,,,,,,
,,,,,,,,,,,X V Q F H G B L J M P D K C T S W R N Z,603e5aad160c3ee04e07e8d3,26,Mężczyzna,2022-06-11_09h05.05.036,task,2021.1.4,Win32,143.7607821,6299f149e92ead563fba08ef,62a43e88fb74fa26fa86d202,,,,,,,,,,,,,,,,,,,,,,,,,,,,,,,,,,,,,,,,,,,,,,,,,,,,,,,,,,,,,,,,,,,,,,,,,,,,4,0,4,0,1,,,,,,,,,,,,,,,,,,,,,
,,,,,,,,,,,,603e5aad160c3ee04e07e8d3,26,Mężczyzna,2022-06-11_09h05.05.036,task,2021.1.4,Win32,143.7607821,6299f149e92ead563fba08ef,62a43e88fb74fa26fa86d202,,,,,,,,,,,,,1,,,,,,,,,,Task,18,(16/4) - 3,1,,,,,,,,,,,,,,,,,,,1,,,,,,,,,,,,,,,,,,,,,,,"[""1""]",1,[4.844799999997065],0,0,0,17,1,,,,,,,,,,,,,,,,,,,,,,,,,,
,,,,,,,,,,,X V Q F H G B L J M P D K C T S W R N Z,603e5aad160c3ee04e07e8d3,26,Mężczyzna,2022-06-11_09h05.05.036,task,2021.1.4,Win32,143.7607821,6299f149e92ead563fba08ef,62a43e88fb74fa26fa86d202,,,,,,,,,,,,,,,,,,,,,,,,,,,,,,,,,,,,,,,,,,,,,,,,,,,,,,,,,,,,,,,,,,,,,,,,,,,,5,0,5,0,1,,,,,,,,,,,,,,,,,,,,,
,,,,,,,,,,,,603e5aad160c3ee04e07e8d3,26,Mężczyzna,2022-06-11_09h05.05.036,task,2021.1.4,Win32,143.7607821,6299f149e92ead563fba08ef,62a43e88fb74fa26fa86d202,,,,,,,,,,,,,5,,,,,,,,,,Task,36,(8/4) + 3,5,,,,,,,,,,,,,,,,,,,1,,,,,,,,,,,,,,,,,,,,,,,"[""5""]",1,[2.4971000000015238],0,0,0,35,1,,,,,,,,,,,,,,,,,,,,,,,,,,
,,,,,,,,,,,X V Q F H G B L J M P D K C T S W R N Z,603e5aad160c3ee04e07e8d3,26,Mężczyzna,2022-06-11_09h05.05.036,task,2021.1.4,Win32,143.7607821,6299f149e92ead563fba08ef,62a43e88fb74fa26fa86d202,,,,,,,,,,,,,,,,,,,,,,,,,,,,,,,,,,,,,,,,,,,,,,,,,,,,,,,,,,,,,,,,,,,,,,,,,,,,6,0,6,0,1,,,,,,,,,,,,,,,,,,,,,
,,,,,,,,,,,,603e5aad160c3ee04e07e8d3,26,Mężczyzna,2022-06-11_09h05.05.036,task,2021.1.4,Win32,143.7607821,6299f149e92ead563fba08ef,62a43e88fb74fa26fa86d202,,,,,,,,,,,,,,,,,,,,,,,,,,,,,,,,,,,,,,,,,,,,,,,,,,,,,,,,,,,,,,,,,,,,,,,,,,,,,,,,,dnvtqd,"[""d"",""n"",""v"",""t"",""q"",""d""]",0,"[1.4517000000030293,1.6671000000014828,2.0510000000000446,2.2916000000014947,2.715600000001473,2.906800000004523,3.2590000000000146]",0,DNVHNQD,5,0,5,0,1,,,,,,,,,,
,,,,,,,,,,,,603e5aad160c3ee04e07e8d3,26,Mężczyzna,2022-06-11_09h05.05.036,task,2021.1.4,Win32,143.7607821,6299f149e92ead563fba08ef,62a43e88fb74fa26fa86d202,,,,,,,,,,,,,2,,,,,,,,,,Task,10,(2x5) - 8,2,,,,,,,,,,,,,,,,,,,1,,,,,,,,,,,,,,,,,,,,,,,"[""2""]",1,[1.8116999999955397],0,0,0,9,1,,,,,,,,,,,,,,,,,,,,,,,,,,
,,,,,,,,,,,X V Q F H G B L J M P D K C T S W R N Z,603e5aad160c3ee04e07e8d3,26,Mężczyzna,2022-06-11_09h05.05.036,task,2021.1.4,Win32,143.7607821,6299f149e92ead563fba08ef,62a43e88fb74fa26fa86d202,,,,,,,,,,,,,,,,,,,,,,,,,,,,,,,,,,,,,,,,,,,,,,,,,,,,,,,,,,,,,,,,,,,,,,,,,,,,0,0,0,0,1,,,,,,,,,,,,,,,,,,,,,
,,,,,,,,,,,,603e5aad160c3ee04e07e8d3,26,Mężczyzna,2022-06-11_09h05.05.036,task,2021.1.4,Win32,143.7607821,6299f149e92ead563fba08ef,62a43e88fb74fa26fa86d202,,,,,,,,,,,,,5,,,,,,,,,,Task,12,(4x4) - 11,5,,,,,,,,,,,,,,,,,,,1,,,,,,,,,,,,,,,,,,,,,,,"[""5""]",1,[1.9881000000015092],0,0,0,11,1,,,,,,,,,,,,,,,,,,,,,,,,,,
,,,,,,,,,,,X V Q F H G B L J M P D K C T S W R N Z,603e5aad160c3ee04e07e8d3,26,Mężczyzna,2022-06-11_09h05.05.036,task,2021.1.4,Win32,143.7607821,6299f149e92ead563fba08ef,62a43e88fb74fa26fa86d202,,,,,,,,,,,,,,,,,,,,,,,,,,,,,,,,,,,,,,,,,,,,,,,,,,,,,,,,,,,,,,,,,,,,,,,,,,,,1,0,1,0,1,,,,,,,,,,,,,,,,,,,,,
,,,,,,,,,,,,603e5aad160c3ee04e07e8d3,26,Mężczyzna,2022-06-11_09h05.05.036,task,2021.1.4,Win32,143.7607821,6299f149e92ead563fba08ef,62a43e88fb74fa26fa86d202,,,,,,,,,,,,,5,,,,,,,,,,Task,12,(4x4) - 11,5,,,,,,,,,,,,,,,,,,,1,,,,,,,,,,,,,,,,,,,,,,,"[""5""]",1,[1.4637999999970361],0,0,0,11,1,,,,,,,,,,,,,,,,,,,,,,,,,,
,,,,,,,,,,,X V Q F H G B L J M P D K C T S W R N Z,603e5aad160c3ee04e07e8d3,26,Mężczyzna,2022-06-11_09h05.05.036,task,2021.1.4,Win32,143.7607821,6299f149e92ead563fba08ef,62a43e88fb74fa26fa86d202,,,,,,,,,,,,,,,,,,,,,,,,,,,,,,,,,,,,,,,,,,,,,,,,,,,,,,,,,,,,,,,,,,,,,,,,,,,,2,0,2,0,1,,,,,,,,,,,,,,,,,,,,,
,,,,,,,,,,,,603e5aad160c3ee04e07e8d3,26,Mężczyzna,2022-06-11_09h05.05.036,task,2021.1.4,Win32,143.7607821,6299f149e92ead563fba08ef,62a43e88fb74fa26fa86d202,,,,,,,,,,,,,4,,,,,,,,,,Task,4,(1x5) - 1,4,,,,,,,,,,,,,,,,,,,1,,,,,,,,,,,,,,,,,,,,,,,"[""4""]",1,[2.0916999999955124],0,0,0,3,1,,,,,,,,,,,,,,,,,,,,,,,,,,
,,,,,,,,,,,X V Q F H G B L J M P D K C T S W R N Z,603e5aad160c3ee04e07e8d3,26,Mężczyzna,2022-06-11_09h05.05.036,task,2021.1.4,Win32,143.7607821,6299f149e92ead563fba08ef,62a43e88fb74fa26fa86d202,,,,,,,,,,,,,,,,,,,,,,,,,,,,,,,,,,,,,,,,,,,,,,,,,,,,,,,,,,,,,,,,,,,,,,,,,,,,3,0,3,0,1,,,,,,,,,,,,,,,,,,,,,
,,,,,,,,,,,,603e5aad160c3ee04e07e8d3,26,Mężczyzna,2022-06-11_09h05.05.036,task,2021.1.4,Win32,143.7607821,6299f149e92ead563fba08ef,62a43e88fb74fa26fa86d202,,,,,,,,,,,,,3,,,,,,,,,,Task,26,(2x9) - 16,2,,,,,,,,,,,,,,,,,,,0,,,,,,,,,,,,,,,,,,,,,,,"[""3""]",0,[3.0048000000044794],0,0,0,25,1,,,,,,,,,,,,,,,,,,,,,,,,,,
,,,,,,,,,,,,603e5aad160c3ee04e07e8d3,26,Mężczyzna,2022-06-11_09h05.05.036,task,2021.1.4,Win32,143.7607821,6299f149e92ead563fba08ef,62a43e88fb74fa26fa86d202,,,,,,,,,,,,,1,,,,,,,,,,Task,20,(18/9) + 1,3,,,,,,,,,,,,,,,,,,,0,,,,,,,,,,,,,,,,,,,,,,,"[""1""]",0,[2.6342999999969834],0,1,1,19,1,,,,,,,,,,,,,,,,,,,,,,,,,,
,,,,,,,,,,,,603e5aad160c3ee04e07e8d3,26,Mężczyzna,2022-06-11_09h05.05.036,task,2021.1.4,Win32,143.7607821,6299f149e92ead563fba08ef,62a43e88fb74fa26fa86d202,,,,,,,,,,,,,2,,,,,,,,,,Task,19,(6/2) - 1,2,,,,,,,,,,,,,,,,,,,1,,,,,,,,,,,,,,,,,,,,,,,"[""2""]",1,[2.423999999999978],0,2,2,18,1,,,,,,,,,,,,,,,,,,,,,,,,,,
,,,,,,,,,,,X V Q F H G B L J M P D K C T S W R N Z,603e5aad160c3ee04e07e8d3,26,Mężczyzna,2022-06-11_09h05.05.036,task,2021.1.4,Win32,143.7607821,6299f149e92ead563fba08ef,62a43e88fb74fa26fa86d202,,,,,,,,,,,,,,,,,,,,,,,,,,,,,,,,,,,,,,,,,,,,,,,,,,,,,,,,,,,,,,,,,,,,,,,,,,,,4,0,4,0,1,,,,,,,,,,,,,,,,,,,,,
,,,,,,,,,,,,603e5aad160c3ee04e07e8d3,26,Mężczyzna,2022-06-11_09h05.05.036,task,2021.1.4,Win32,143.7607821,6299f149e92ead563fba08ef,62a43e88fb74fa26fa86d202,,,,,,,,,,,,,6,,,,,,,,,,Task,37,(3/3) + 5,6,,,,,,,,,,,,,,,,,,,1,,,,,,,,,,,,,,,,,,,,,,,"[""6""]",1,[1.721200000003023],0,0,0,36,1,,,,,,,,,,,,,,,,,,,,,,,,,,
,,,,,,,,,,,X V Q F H G B L J M P D K C T S W R N Z,603e5aad160c3ee04e07e8d3,26,Mężczyzna,2022-06-11_09h05.05.036,task,2021.1.4,Win32,143.7607821,6299f149e92ead563fba08ef,62a43e88fb74fa26fa86d202,,,,,,,,,,,,,,,,,,,,,,,,,,,,,,,,,,,,,,,,,,,,,,,,,,,,,,,,,,,,,,,,,,,,,,,,,,,,5,0,5,0,1,,,,,,,,,,,,,,,,,,,,,
,,,,,,,,,,,,603e5aad160c3ee04e07e8d3,26,Mężczyzna,2022-06-11_09h05.05.036,task,2021.1.4,Win32,143.7607821,6299f149e92ead563fba08ef,62a43e88fb74fa26fa86d202,,,,,,,,,,,,,6,,,,,,,,,,Task,30,(6/3) + 4 ,6,,,,,,,,,,,,,,,,,,,1,,,,,,,,,,,,,,,,,,,,,,,"[""6""]",1,[2.0510000000000446],0,0,0,29,1,,,,,,,,,,,,,,,,,,,,,,,,,,
,,,,,,,,,,,X V Q F H G B L J M P D K C T S W R N Z,603e5aad160c3ee04e07e8d3,26,Mężczyzna,2022-06-11_09h05.05.036,task,2021.1.4,Win32,143.7607821,6299f149e92ead563fba08ef,62a43e88fb74fa26fa86d202,,,,,,,,,,,,,,,,,,,,,,,,,,,,,,,,,,,,,,,,,,,,,,,,,,,,,,,,,,,,,,,,,,,,,,,,,,,,6,0,6,0,1,,,,,,,,,,,,,,,,,,,,,
,,,,,,,,,,,,603e5aad160c3ee04e07e8d3,26,Mężczyzna,2022-06-11_09h05.05.036,task,2021.1.4,Win32,143.7607821,6299f149e92ead563fba08ef,62a43e88fb74fa26fa86d202,,,,,,,,,,,,,,,,,,,,,,,,,,,,,,,,,,,,,,,,,,,,,,,,,,,,,,,,,,,,,,,,,,,,,,,,,,,,,,,,,dcvzdlz,"[""d"",""c"",""v"",""z"",""d"",""l"",""z""]",0,"[1.105799999997089,1.3612999999970725,1.6012999999970816,1.8732999999970161,2.209100000001513,2.4095000000000937,2.5931999999955906,3.0813999999985526]",1,DCVZDLZ,6,0,6,0,1,,,,,,,,,,
,,,,,,,,,,,,603e5aad160c3ee04e07e8d3,26,Mężczyzna,2022-06-11_09h05.05.036,task,2021.1.4,Win32,143.7607821,6299f149e92ead563fba08ef,62a43e88fb74fa26fa86d202,,,,,,,,,,,,,1,,,,,,,,,,Task,9,(3x7) - 20,1,,,,,,,,,,,,,,,,,,,1,,,,,,,,,,,,,,,,,,,,,,,"[""1""]",1,[1.87039999999854],0,0,0,8,1,,,,,,,,,,,,,,,,,,,,,,,,,,
,,,,,,,,,,,X V Q F H G B L J M P D K C T S W R N Z,603e5aad160c3ee04e07e8d3,26,Mężczyzna,2022-06-11_09h05.05.036,task,2021.1.4,Win32,143.7607821,6299f149e92ead563fba08ef,62a43e88fb74fa26fa86d202,,,,,,,,,,,,,,,,,,,,,,,,,,,,,,,,,,,,,,,,,,,,,,,,,,,,,,,,,,,,,,,,,,,,,,,,,,,,0,0,0,0,1,,,,,,,,,,,,,,,,,,,,,
,,,,,,,,,,,,603e5aad160c3ee04e07e8d3,26,Mężczyzna,2022-06-11_09h05.05.036,task,2021.1.4,Win32,143.7607821,6299f149e92ead563fba08ef,62a43e88fb74fa26fa86d202,,,,,,,,,,,,,3,,,,,,,,,,Task,26,(2x9) - 16,2,,,,,,,,,,,,,,,,,,,0,,,,,,,,,,,,,,,,,,,,,,,"[""3""]",0,[2.7182999999969297],0,0,0,25,1,,,,,,,,,,,,,,,,,,,,,,,,,,
,,,,,,,,,,,,603e5aad160c3ee04e07e8d3,26,Mężczyzna,2022-06-11_09h05.05.036,task,2021.1.4,Win32,143.7607821,6299f149e92ead563fba08ef,62a43e88fb74fa26fa86d202,,,,,,,,,,,,,1,,,,,,,,,,Task,1,(12/6) - 1,1,,,,,,,,,,,,,,,,,,,1,,,,,,,,,,,,,,,,,,,,,,,"[""1""]",1,[1.953100000001541],0,1,1,0,1,,,,,,,,,,,,,,,,,,,,,,,,,,
,,,,,,,,,,,X V Q F H G B L J M P D K C T S W R N Z,603e5aad160c3ee04e07e8d3,26,Mężczyzna,2022-06-11_09h05.05.036,task,2021.1.4,Win32,143.7607821,6299f149e92ead563fba08ef,62a43e88fb74fa26fa86d202,,,,,,,,,,,,,,,,,,,,,,,,,,,,,,,,,,,,,,,,,,,,,,,,,,,,,,,,,,,,,,,,,,,,,,,,,,,,1,0,1,0,1,,,,,,,,,,,,,,,,,,,,,
,,,,,,,,,,,,603e5aad160c3ee04e07e8d3,26,Mężczyzna,2022-06-11_09h05.05.036,task,2021.1.4,Win32,143.7607821,6299f149e92ead563fba08ef,62a43e88fb74fa26fa86d202,,,,,,,,,,,,,3,,,,,,,,,,Task,27,(3/3) + 2,3,,,,,,,,,,,,,,,,,,,1,,,,,,,,,,,,,,,,,,,,,,,"[""3""]",1,[2.054699999995478],0,0,0,26,1,,,,,,,,,,,,,,,,,,,,,,,,,,
,,,,,,,,,,,X V Q F H G B L J M P D K C T S W R N Z,603e5aad160c3ee04e07e8d3,26,Mężczyzna,2022-06-11_09h05.05.036,task,2021.1.4,Win32,143.7607821,6299f149e92ead563fba08ef,62a43e88fb74fa26fa86d202,,,,,,,,,,,,,,,,,,,,,,,,,,,,,,,,,,,,,,,,,,,,,,,,,,,,,,,,,,,,,,,,,,,,,,,,,,,,2,0,2,0,1,,,,,,,,,,,,,,,,,,,,,
,,,,,,,,,,,,603e5aad160c3ee04e07e8d3,26,Mężczyzna,2022-06-11_09h05.05.036,task,2021.1.4,Win32,143.7607821,6299f149e92ead563fba08ef,62a43e88fb74fa26fa86d202,,,,,,,,,,,,,3,,,,,,,,,,Task,25,(10/5) - 2,0,,,,,,,,,,,,,,,,,,,0,,,,,,,,,,,,,,,,,,,,,,,"[""3""]",0,[3.1422999999970216],0,0,0,24,1,,,,,,,,,,,,,,,,,,,,,,,,,,
,,,,,,,,,,,,603e5aad160c3ee04e07e8d3,26,Mężczyzna,2022-06-11_09h05.05.036,task,2021.1.4,Win32,143.7607821,6299f149e92ead563fba08ef,62a43e88fb74fa26fa86d202,,,,,,,,,,,,,9,,,,,,,,,,Task,24,(2x2) + 5,9,,,,,,,,,,,,,,,,,,,1,,,,,,,,,,,,,,,,,,,,,,,"[""9""]",1,[3.225999999999999],0,1,1,23,1,,,,,,,,,,,,,,,,,,,,,,,,,,
,,,,,,,,,,,X V Q F H G B L J M P D K C T S W R N Z,603e5aad160c3ee04e07e8d3,26,Mężczyzna,2022-06-11_09h05.05.036,task,2021.1.4,Win32,143.7607821,6299f149e92ead563fba08ef,62a43e88fb74fa26fa86d202,,,,,,,,,,,,,,,,,,,,,,,,,,,,,,,,,,,,,,,,,,,,,,,,,,,,,,,,,,,,,,,,,,,,,,,,,,,,3,0,3,0,1,,,,,,,,,,,,,,,,,,,,,
,,,,,,,,,,,,603e5aad160c3ee04e07e8d3,26,Mężczyzna,2022-06-11_09h05.05.036,task,2021.1.4,Win32,143.7607821,6299f149e92ead563fba08ef,62a43e88fb74fa26fa86d202,,,,,,,,,,,,,6,,,,,,,,,,Task,30,(6/3) + 4 ,6,,,,,,,,,,,,,,,,,,,1,,,,,,,,,,,,,,,,,,,,,,,"[""6""]",1,[2.160799999997039],0,0,0,29,1,,,,,,,,,,,,,,,,,,,,,,,,,,
,,,,,,,,,,,X V Q F H G B L J M P D K C T S W R N Z,603e5aad160c3ee04e07e8d3,26,Mężczyzna,2022-06-11_09h05.05.036,task,2021.1.4,Win32,143.7607821,6299f149e92ead563fba08ef,62a43e88fb74fa26fa86d202,,,,,,,,,,,,,,,,,,,,,,,,,,,,,,,,,,,,,,,,,,,,,,,,,,,,,,,,,,,,,,,,,,,,,,,,,,,,4,0,4,0,1,,,,,,,,,,,,,,,,,,,,,
,,,,,,,,,,,,603e5aad160c3ee04e07e8d3,26,Mężczyzna,2022-06-11_09h05.05.036,task,2021.1.4,Win32,143.7607821,6299f149e92ead563fba08ef,62a43e88fb74fa26fa86d202,,,,,,,,,,,,,,,,,,,,,,,Task,26,(2x9) - 16,2,,,,,,,,,,,,,,,,,,,0,,,,,,,,,,,,,,,,,,,,,,,,0,,0,0,0,25,1,,,,,,,,,,,,,,,,,,,,,,,,,,
,,,,,,,,,,,,603e5aad160c3ee04e07e8d3,26,Mężczyzna,2022-06-11_09h05.05.036,task,2021.1.4,Win32,143.7607821,6299f149e92ead563fba08ef,62a43e88fb74fa26fa86d202,,,,,,,,,,,,,3,,,,,,,,,,Task,35,(1x2) + 1,3,,,,,,,,,,,,,,,,,,,1,,,,,,,,,,,,,,,,,,,,,,,"[""3""]",1,[2.346200000003023],0,1,1,34,1,,,,,,,,,,,,,,,,,,,,,,,,,,
,,,,,,,,,,,X V Q F H G B L J M P D K C T S W R N Z,603e5aad160c3ee04e07e8d3,26,Mężczyzna,2022-06-11_09h05.05.036,task,2021.1.4,Win32,143.7607821,6299f149e92ead563fba08ef,62a43e88fb74fa26fa86d202,,,,,,,,,,,,,,,,,,,,,,,,,,,,,,,,,,,,,,,,,,,,,,,,,,,,,,,,,,,,,,,,,,,,,,,,,,,,5,0,5,0,1,,,,,,,,,,,,,,,,,,,,,
,,,,,,,,,,,,603e5aad160c3ee04e07e8d3,26,Mężczyzna,2022-06-11_09h05.05.036,task,2021.1.4,Win32,143.7607821,6299f149e92ead563fba08ef,62a43e88fb74fa26fa86d202,,,,,,,,,,,,,4,,,,,,,,,,Task,11,(18/3) - 2,4,,,,,,,,,,,,,,,,,,,1,,,,,,,,,,,,,,,,,,,,,,,"[""4""]",1,[3.756600000001413],0,0,0,10,1,,,,,,,,,,,,,,,,,,,,,,,,,,
,,,,,,,,,,,X V Q F H G B L J M P D K C T S W R N Z,603e5aad160c3ee04e07e8d3,26,Mężczyzna,2022-06-11_09h05.05.036,task,2021.1.4,Win32,143.7607821,6299f149e92ead563fba08ef,62a43e88fb74fa26fa86d202,,,,,,,,,,,,,,,,,,,,,,,,,,,,,,,,,,,,,,,,,,,,,,,,,,,,,,,,,,,,,,,,,,,,,,,,,,,,6,0,6,0,1,,,,,,,,,,,,,,,,,,,,,
,,,,,,,,,,,,603e5aad160c3ee04e07e8d3,26,Mężczyzna,2022-06-11_09h05.05.036,task,2021.1.4,Win32,143.7607821,6299f149e92ead563fba08ef,62a43e88fb74fa26fa86d202,,,,,,,,,,,,,3,,,,,,,,,,Task,25,(10/5) - 2,0,,,,,,,,,,,,,,,,,,,0,,,,,,,,,,,,,,,,,,,,,,,"[""3""]",0,[3.7329999999999472],0,0,0,24,1,,,,,,,,,,,,,,,,,,,,,,,,,,
,,,,,,,,,,,,603e5aad160c3ee04e07e8d3,26,Mężczyzna,2022-06-11_09h05.05.036,task,2021.1.4,Win32,143.7607821,6299f149e92ead563fba08ef,62a43e88fb74fa26fa86d202,,,,,,,,,,,,,0,,,,,,,,,,Task,8,(1x5) - 5,0,,,,,,,,,,,,,,,,,,,1,,,,,,,,,,,,,,,,,,,,,,,"[""0""]",1,[2.2491999999955397],0,1,1,7,1,,,,,,,,,,,,,,,,,,,,,,,,,,
,,,,,,,,,,,X V Q F H G B L J M P D K C T S W R N Z,603e5aad160c3ee04e07e8d3,26,Mężczyzna,2022-06-11_09h05.05.036,task,2021.1.4,Win32,143.7607821,6299f149e92ead563fba08ef,62a43e88fb74fa26fa86d202,,,,,,,,,,,,,,,,,,,,,,,,,,,,,,,,,,,,,,,,,,,,,,,,,,,,,,,,,,,,,,,,,,,,,,,,,,,,7,0,7,0,1,,,,,,,,,,,,,,,,,,,,,
,,,,,,,,,,,,603e5aad160c3ee04e07e8d3,26,Mężczyzna,2022-06-11_09h05.05.036,task,2021.1.4,Win32,143.7607821,6299f149e92ead563fba08ef,62a43e88fb74fa26fa86d202,,,,,,,,,,,,,,,,,,,,,,,,,,,,,,,,,,,,,,,,,,,,,,,,,,,,,,,,,,,,,,,,,,,,,,,,,,,,,,,,,rhlzvd,"[""r"",""h"",""l"",""z"",""v"",""d""]",0,"[1.6703999999984944,1.9344999999999573,2.1983999999984007,2.7263000000044713,3.3583999999984826,5.718600000001402,6.174200000002884]",0,RHLZVLLD,7,0,7,0,1,,,,,,,,,,
,,,,,,,,,,,,603e5aad160c3ee04e07e8d3,26,Mężczyzna,2022-06-11_09h05.05.036,task,2021.1.4,Win32,143.7607821,6299f149e92ead563fba08ef,62a43e88fb74fa26fa86d202,,,,,,,,,,,,,2,,,,,,,,,,Task,10,(2x5) - 8,2,,,,,,,,,,,,,,,,,,,1,,,,,,,,,,,,,,,,,,,,,,,"[""2""]",1,[1.360800000004474],0,0,0,9,1,,,,,,,,,,,,,,,,,,,,,,,,,,
,,,,,,,,,,,X V Q F H G B L J M P D K C T S W R N Z,603e5aad160c3ee04e07e8d3,26,Mężczyzna,2022-06-11_09h05.05.036,task,2021.1.4,Win32,143.7607821,6299f149e92ead563fba08ef,62a43e88fb74fa26fa86d202,,,,,,,,,,,,,,,,,,,,,,,,,,,,,,,,,,,,,,,,,,,,,,,,,,,,,,,,,,,,,,,,,,,,,,,,,,,,0,0,0,0,1,,,,,,,,,,,,,,,,,,,,,
,,,,,,,,,,,,603e5aad160c3ee04e07e8d3,26,Mężczyzna,2022-06-11_09h05.05.036,task,2021.1.4,Win32,143.7607821,6299f149e92ead563fba08ef,62a43e88fb74fa26fa86d202,,,,,,,,,,,,,5,,,,,,,,,,Task,29,(3x8) - 19 ,5,,,,,,,,,,,,,,,,,,,1,,,,,,,,,,,,,,,,,,,,,,,"[""5""]",1,[4.900799999997048],0,0,0,28,1,,,,,,,,,,,,,,,,,,,,,,,,,,
,,,,,,,,,,,X V Q F H G B L J M P D K C T S W R N Z,603e5aad160c3ee04e07e8d3,26,Mężczyzna,2022-06-11_09h05.05.036,task,2021.1.4,Win32,143.7607821,6299f149e92ead563fba08ef,62a43e88fb74fa26fa86d202,,,,,,,,,,,,,,,,,,,,,,,,,,,,,,,,,,,,,,,,,,,,,,,,,,,,,,,,,,,,,,,,,,,,,,,,,,,,1,0,1,0,1,,,,,,,,,,,,,,,,,,,,,
,,,,,,,,,,,,603e5aad160c3ee04e07e8d3,26,Mężczyzna,2022-06-11_09h05.05.036,task,2021.1.4,Win32,143.7607821,6299f149e92ead563fba08ef,62a43e88fb74fa26fa86d202,,,,,,,,,,,,,8,,,,,,,,,,Task,15,(3x7) - 13,8,,,,,,,,,,,,,,,,,,,1,,,,,,,,,,,,,,,,,,,,,,,"[""8""]",1,[2.561599999994087],0,0,0,14,1,,,,,,,,,,,,,,,,,,,,,,,,,,
,,,,,,,,,,,X V Q F H G B L J M P D K C T S W R N Z,603e5aad160c3ee04e07e8d3,26,Mężczyzna,2022-06-11_09h05.05.036,task,2021.1.4,Win32,143.7607821,6299f149e92ead563fba08ef,62a43e88fb74fa26fa86d202,,,,,,,,,,,,,,,,,,,,,,,,,,,,,,,,,,,,,,,,,,,,,,,,,,,,,,,,,,,,,,,,,,,,,,,,,,,,2,0,2,0,1,,,,,,,,,,,,,,,,,,,,,
,,,,,,,,,,,,603e5aad160c3ee04e07e8d3,26,Mężczyzna,2022-06-11_09h05.05.036,task,2021.1.4,Win32,143.7607821,6299f149e92ead563fba08ef,62a43e88fb74fa26fa86d202,,,,,,,,,,,,,7,,,,,,,,,,Task,38,(4x6) - 17,7,,,,,,,,,,,,,,,,,,,1,,,,,,,,,,,,,,,,,,,,,,,"[""7""]",1,[3.3163999999984526],0,0,0,37,1,,,,,,,,,,,,,,,,,,,,,,,,,,
,,,,,,,,,,,X V Q F H G B L J M P D K C T S W R N Z,603e5aad160c3ee04e07e8d3,26,Mężczyzna,2022-06-11_09h05.05.036,task,2021.1.4,Win32,143.7607821,6299f149e92ead563fba08ef,62a43e88fb74fa26fa86d202,,,,,,,,,,,,,,,,,,,,,,,,,,,,,,,,,,,,,,,,,,,,,,,,,,,,,,,,,,,,,,,,,,,,,,,,,,,,3,0,3,0,1,,,,,,,,,,,,,,,,,,,,,
,,,,,,,,,,,,603e5aad160c3ee04e07e8d3,26,Mężczyzna,2022-06-11_09h05.05.036,task,2021.1.4,Win32,143.7607821,6299f149e92ead563fba08ef,62a43e88fb74fa26fa86d202,,,,,,,,,,,,,9,,,,,,,,,,Task,16,(3x8) - 15,9,,,,,,,,,,,,,,,,,,,1,,,,,,,,,,,,,,,,,,,,,,,"[""9""]",1,[2.776899999998477],0,0,0,15,1,,,,,,,,,,,,,,,,,,,,,,,,,,
,,,,,,,,,,,X V Q F H G B L J M P D K C T S W R N Z,603e5aad160c3ee04e07e8d3,26,Mężczyzna,2022-06-11_09h05.05.036,task,2021.1.4,Win32,143.7607821,6299f149e92ead563fba08ef,62a43e88fb74fa26fa86d202,,,,,,,,,,,,,,,,,,,,,,,,,,,,,,,,,,,,,,,,,,,,,,,,,,,,,,,,,,,,,,,,,,,,,,,,,,,,4,0,4,0,1,,,,,,,,,,,,,,,,,,,,,
,,,,,,,,,,,,603e5aad160c3ee04e07e8d3,26,Mężczyzna,2022-06-11_09h05.05.036,task,2021.1.4,Win32,143.7607821,6299f149e92ead563fba08ef,62a43e88fb74fa26fa86d202,,,,,,,,,,,,,4,,,,,,,,,,Task,28,(2x5) - 6,4,,,,,,,,,,,,,,,,,,,1,,,,,,,,,,,,,,,,,,,,,,,"[""4""]",1,[2.1146000000014737],0,0,0,27,1,,,,,,,,,,,,,,,,,,,,,,,,,,
,,,,,,,,,,,X V Q F H G B L J M P D K C T S W R N Z,603e5aad160c3ee04e07e8d3,26,Mężczyzna,2022-06-11_09h05.05.036,task,2021.1.4,Win32,143.7607821,6299f149e92ead563fba08ef,62a43e88fb74fa26fa86d202,,,,,,,,,,,,,,,,,,,,,,,,,,,,,,,,,,,,,,,,,,,,,,,,,,,,,,,,,,,,,,,,,,,,,,,,,,,,5,0,5,0,1,,,,,,,,,,,,,,,,,,,,,
,,,,,,,,,,,,603e5aad160c3ee04e07e8d3,26,Mężczyzna,2022-06-11_09h05.05.036,task,2021.1.4,Win32,143.7607821,6299f149e92ead563fba08ef,62a43e88fb74fa26fa86d202,,,,,,,,,,,,,7,,,,,,,,,,Task,11,(18/3) - 2,4,,,,,,,,,,,,,,,,,,,0,,,,,,,,,,,,,,,,,,,,,,,"[""7""]",0,[4.776200000002973],0,0,0,10,1,,,,,,,,,,,,,,,,,,,,,,,,,,
,,,,,,,,,,,,603e5aad160c3ee04e07e8d3,26,Mężczyzna,2022-06-11_09h05.05.036,task,2021.1.4,Win32,143.7607821,6299f149e92ead563fba08ef,62a43e88fb74fa26fa86d202,,,,,,,,,,,,,7,,,,,,,,,,Task,38,(4x6) - 17,7,,,,,,,,,,,,,,,,,,,1,,,,,,,,,,,,,,,,,,,,,,,"[""7""]",1,[3.851100000001452],0,1,1,37,1,,,,,,,,,,,,,,,,,,,,,,,,,,
,,,,,,,,,,,X V Q F H G B L J M P D K C T S W R N Z,603e5aad160c3ee04e07e8d3,26,Mężczyzna,2022-06-11_09h05.05.036,task,2021.1.4,Win32,143.7607821,6299f149e92ead563fba08ef,62a43e88fb74fa26fa86d202,,,,,,,,,,,,,,,,,,,,,,,,,,,,,,,,,,,,,,,,,,,,,,,,,,,,,,,,,,,,,,,,,,,,,,,,,,,,6,0,6,0,1,,,,,,,,,,,,,,,,,,,,,
,,,,,,,,,,,,603e5aad160c3ee04e07e8d3,26,Mężczyzna,2022-06-11_09h05.05.036,task,2021.1.4,Win32,143.7607821,6299f149e92ead563fba08ef,62a43e88fb74fa26fa86d202,,,,,,,,,,,,,3,,,,,,,,,,Task,20,(18/9) + 1,3,,,,,,,,,,,,,,,,,,,1,,,,,,,,,,,,,,,,,,,,,,,"[""3""]",1,[3.0174000000059777],0,0,0,19,1,,,,,,,,,,,,,,,,,,,,,,,,,,
,,,,,,,,,,,X V Q F H G B L J M P D K C T S W R N Z,603e5aad160c3ee04e07e8d3,26,Mężczyzna,2022-06-11_09h05.05.036,task,2021.1.4,Win32,143.7607821,6299f149e92ead563fba08ef,62a43e88fb74fa26fa86d202,,,,,,,,,,,,,,,,,,,,,,,,,,,,,,,,,,,,,,,,,,,,,,,,,,,,,,,,,,,,,,,,,,,,,,,,,,,,7,0,7,0,1,,,,,,,,,,,,,,,,,,,,,
,,,,,,,,,,,,603e5aad160c3ee04e07e8d3,26,Mężczyzna,2022-06-11_09h05.05.036,task,2021.1.4,Win32,143.7607821,6299f149e92ead563fba08ef,62a43e88fb74fa26fa86d202,,,,,,,,,,,,,,,,,,,,,,,,,,,,,,,,,,,,,,,,,,,,,,,,,,,,,,,,,,,,,,,,,,,,,,,,,,,,,,,,,whlzrd,"[""w"",""h"",""l"",""z"",""r"",""d""]",0,"[1.906500000000051,2.1144000000059577,2.5304000000060114,3.0264000000059923,3.5069000000059987,4.754900000005932,6.0263000000045395]",0,WHLZRDSC,8,0,8,0,1,,,,,,,,,,
,,,,,,,,,,,,603e5aad160c3ee04e07e8d3,26,Mężczyzna,2022-06-11_09h05.05.036,task,2021.1.4,Win32,143.7607821,6299f149e92ead563fba08ef,62a43e88fb74fa26fa86d202,,,,,,,,,,,,,,,,,,,,,,,,,,,,,,,,,,,,,,,,,,,,,,,,,,,,,,,,,,,,,,,,,,,,,,,,,,,,,,,,,,,,,,,,,,,,"[""comma""]",0,[0.8368000000044731],0,0,0,0,1,,
,,,,,,,,,,,,603e5aad160c3ee04e07e8d3,26,Mężczyzna,2022-06-11_09h05.05.036,task,2021.1.4,Win32,143.7607821,6299f149e92ead563fba08ef,62a43e88fb74fa26fa86d202,,,,,,,,,,,,,,,,,,,,,,,,,,,,,,,,,,,,,,,,,,,,,,,,,,,,,,,,,,,,,,,,,,,,,,,,,,,,,,,,,,,,,,,,,,,,"[""comma""]",0,[0.44589999999845986],1,0,1,0,1,,
,,,,,,,,,,,,603e5aad160c3ee04e07e8d3,26,Mężczyzna,2022-06-11_09h05.05.036,task,2021.1.4,Win32,143.7607821,6299f149e92ead563fba08ef,62a43e88fb74fa26fa86d202,,,,,,,,,,,,,,,,,,,,,,,,,,,,,,,,,,,,,,,,,,,,,,,,,,,,,,,,,,,,,,,,,,,,,,,,,,,,,,,,,,,,,,,,,,,,"[""period""]",0,[0.3654000000059341],2,0,2,0,1,,
,,,,,,,,,,,,603e5aad160c3ee04e07e8d3,26,Mężczyzna,2022-06-11_09h05.05.036,task,2021.1.4,Win32,143.7607821,6299f149e92ead563fba08ef,62a43e88fb74fa26fa86d202,,,,,,,,,,,,,,,,,,,,,,,,,,,,,,,,,,,,,,,,,,,,,,,,,,,,,,,,,,,,,,,,,,,,,,,,,,,,,,,,,,,,,,,,,,,,"[""comma""]",0,[0.6219000000058941],3,0,3,0,1,,
,,,,,,,,,,,,603e5aad160c3ee04e07e8d3,26,Mężczyzna,2022-06-11_09h05.05.036,task,2021.1.4,Win32,143.7607821,6299f149e92ead563fba08ef,62a43e88fb74fa26fa86d202,,,,,,,,,,,,,,,,,,,,,,,,,,,,,,,,,,,,,,,,,,,,,,,,,,,,,,,,,,,,,,,,,,,,,,,,,,,,,,,,,,,,,,,,,,,,"[""period""]",0,[0.5577000000029102],4,0,4,0,1,,
,,,,,,,,,,,,603e5aad160c3ee04e07e8d3,26,Mężczyzna,2022-06-11_09h05.05.036,task,2021.1.4,Win32,143.7607821,6299f149e92ead563fba08ef,62a43e88fb74fa26fa86d202,,,,,,,,,,,,,,,,,,,,,,,,,,,,,,,,,,,,,,,,,,,,,,,,,,,,,,,,,,,,,,,,,,,,,,,,,,,,,,,,,,,,,,,,,,,,"[""period""]",0,[0.3260999999939713],5,0,5,0,1,,
,,,,,,,,,,,,603e5aad160c3ee04e07e8d3,26,Mężczyzna,2022-06-11_09h05.05.036,task,2021.1.4,Win32,143.7607821,6299f149e92ead563fba08ef,62a43e88fb74fa26fa86d202,,,,,,,,,,,,,,,,,,,,,,,,,,,,,,,,,,,,,,,,,,,,,,,,,,,,,,,,,,,,,,,,,,,,,,,,,,,,,,,,,,,,,,,,,,,,"[""comma""]",0,[0.3414000000059332],6,0,6,0,1,,
,,,,,,,,,,,,603e5aad160c3ee04e07e8d3,26,Mężczyzna,2022-06-11_09h05.05.036,task,2021.1.4,Win32,143.7607821,6299f149e92ead563fba08ef,62a43e88fb74fa26fa86d202,,,,,,,,,,,,,,,,,,,,,,,,,,,,,,,,,,,,,,,,,,,,,,,,,,,,,,,,,,,,,,,,,,,,,,,,,,,,,,,,,,,,,,,,,,,,"[""period""]",0,[0.2692000000030248],7,0,7,0,1,,
,,,,,,,,,,,,603e5aad160c3ee04e07e8d3,26,Mężczyzna,2022-06-11_09h05.05.036,task,2021.1.4,Win32,143.7607821,6299f149e92ead563fba08ef,62a43e88fb74fa26fa86d202,,,,,,,,,,,,,,,,,,,,,,,,,,,,,,,,,,,,,,,,,,,,,,,,,,,,,,,,,,,,,,,,,,,,,,,,,,,,,,,,,,,,,,,,,,,,"[""comma""]",0,[0.28550000000007003],8,0,8,0,1,,
,,,,,,,,,,,,603e5aad160c3ee04e07e8d3,26,Mężczyzna,2022-06-11_09h05.05.036,task,2021.1.4,Win32,143.7607821,6299f149e92ead563fba08ef,62a43e88fb74fa26fa86d202,,,,,,,,,,,,,,,,,,,,,,,,,,,,,,,,,,,,,,,,,,,,,,,,,,,,,,,,,,,,,,,,,,,,,,,,,,,,,,,,,,,,,,,,,,,,"[""period""]",0,[0.26889999999855263],9,0,9,0,1,,
,,,,,,,,,,,,603e5aad160c3ee04e07e8d3,26,Mężczyzna,2022-06-11_09h05.05.036,task,2021.1.4,Win32,143.7607821,6299f149e92ead563fba08ef,62a43e88fb74fa26fa86d202,,,,,,,,,,,,,,,,,,,,,,,,,,,,,,,,,,,,,,,,,,,,,,,,,,,,,,,,,,,,,,,,,,,,,,,,,,,,,,,,,,,,,,,,,,,,"[""comma""]",0,[0.26080000000445125],10,0,10,0,1,,
,,,,,,,,,,,,603e5aad160c3ee04e07e8d3,26,Mężczyzna,2022-06-11_09h05.05.036,task,2021.1.4,Win32,143.7607821,6299f149e92ead563fba08ef,62a43e88fb74fa26fa86d202,,,,,,,,,,,,,,,,,,,,,,,,,,,,,,,,,,,,,,,,,,,,,,,,,,,,,,,,,,,,,,,,,,,,,,,,,,,,,,,,,,,,,,,,,,,,"[""period"",""comma""]",0,"[0.27810000000147284,1.9651000000014847]",11,0,11,0,1,,
,,,,,,,,,,,,603e5aad160c3ee04e07e8d3,26,Mężczyzna,2022-06-11_09h05.05.036,task,2021.1.4,Win32,143.7607821,6299f149e92ead563fba08ef,62a43e88fb74fa26fa86d202,,,,,,,,,,,,,,,,,,,,,,,,,,,,,,,,,,,,,,,,,,,,,,,,,,,,,,,,,,,,,,,,,,,,,,,,,,,,,,,,,,,,,,,,,,,,,0,,12,0,12,0,1,,
,,,,,,,,,,,,603e5aad160c3ee04e07e8d3,26,Mężczyzna,2022-06-11_09h05.05.036,task,2021.1.4,Win32,143.7607821,6299f149e92ead563fba08ef,62a43e88fb74fa26fa86d202,,,,,,,,,,,,,,,,,,,,,,,,,,,,,,,,,,,,,,,,,,,,,,,,,,,,,,,,,,,,,,,,,,,,,,,,,,,,,,,,,,,,,,,,,,,,"[""period""]",0,[0.24429999999699703],13,0,13,0,1,,
,,,,,,,,,,,,603e5aad160c3ee04e07e8d3,26,Mężczyzna,2022-06-11_09h05.05.036,task,2021.1.4,Win32,143.7607821,6299f149e92ead563fba08ef,62a43e88fb74fa26fa86d202,,,,,,,,,,,,,,,,,,,,,,,,,,,,,,,,,,,,,,,,,,,,,,,,,,,,,,,,,,,,,,,,,,,,,,,,,,,,,,,,,,,,,,,,,,,,"[""comma""]",0,[0.2764999999999418],14,0,14,0,1,,
,,,,,,,,,,,,603e5aad160c3ee04e07e8d3,26,Mężczyzna,2022-06-11_09h05.05.036,task,2021.1.4,Win32,143.7607821,6299f149e92ead563fba08ef,62a43e88fb74fa26fa86d202,,,,,,,,,,,,,,,,,,,,,,,,,,,,,,,,,,,,,,,,,,,,,,,,,,,,,,,,,,,,,,,,,,,,,,,,,,,,,,,,,,,,,,,,,,,,"[""period""]",0,[0.21220000000300843],15,0,15,0,1,,
,,,,,,,,,,,,603e5aad160c3ee04e07e8d3,26,Mężczyzna,2022-06-11_09h05.05.036,task,2021.1.4,Win32,143.7607821,6299f149e92ead563fba08ef,62a43e88fb74fa26fa86d202,,,,,,,,,,,,,,,,,,,,,,,,,,,,,,,,,,,,,,,,,,,,,,,,,,,,,,,,,,,,,,,,,,,,,,,,,,,,,,,,,,,,,,,,,,,,"[""comma""]",0,[0.21200000000010277],16,0,16,0,1,,
,,,,,,,,,,,,603e5aad160c3ee04e07e8d3,26,Mężczyzna,2022-06-11_09h05.05.036,task,2021.1.4,Win32,143.7607821,6299f149e92ead563fba08ef,62a43e88fb74fa26fa86d202,,,,,,,,,,,,,,,,,,,,,,,,,,,,,,,,,,,,,,,,,,,,,,,,,,,,,,,,,,,,,,,,,,,,,,,,,,,,,,,,,,,,,,,,,,,,"[""period"",""comma""]",0,"[0.22820000000308482,1.9480000000000928]",17,0,17,0,1,,
,,,,,,,,,,,,603e5aad160c3ee04e07e8d3,26,Mężczyzna,2022-06-11_09h05.05.036,task,2021.1.4,Win32,143.7607821,6299f149e92ead563fba08ef,62a43e88fb74fa26fa86d202,,,,,,,,,,,,,,,,,,,,,,,,,,,,,,,,,,,,,,,,,,,,,,,,,,,,,,,,,,,,,,,,,,,,,,,,,,,,,,,,,,,,,,,,,,,,,0,,18,0,18,0,1,,
,,,,,,,,,,,,603e5aad160c3ee04e07e8d3,26,Mężczyzna,2022-06-11_09h05.05.036,task,2021.1.4,Win32,143.7607821,6299f149e92ead563fba08ef,62a43e88fb74fa26fa86d202,,,,,,,,,,,,,,,,,,,,,,,,,,,,,,,,,,,,,,,,,,,,,,,,,,,,,,,,,,,,,,,,,,,,,,,,,,,,,,,,,,,,,,,,,,,,"[""period""]",0,[0.2518000000044367],19,0,19,0,1,,
,,,,,,,,,,,,603e5aad160c3ee04e07e8d3,26,Mężczyzna,2022-06-11_09h05.05.036,task,2021.1.4,Win32,143.7607821,6299f149e92ead563fba08ef,62a43e88fb74fa26fa86d202,,,,,,,,,,,,,,,,,,,,,,,,,,,,,,,,,,,,,,,,,,,,,,,,,,,,,,,,,,,,,,,,,,,,,,,,,,,,,,,,,,,,,,,,,,,,"[""comma""]",0,[0.29150000000004184],20,0,20,0,1,,
,,,,,,,,,,,,603e5aad160c3ee04e07e8d3,26,Mężczyzna,2022-06-11_09h05.05.036,task,2021.1.4,Win32,143.7607821,6299f149e92ead563fba08ef,62a43e88fb74fa26fa86d202,,,,,,,,,,,,,,,,,,,,,,,,,,,,,,,,,,,,,,,,,,,,,,,,,,,,,,,,,,,,,,,,,,,,,,,,,,,,,,,,,,,,,,,,,,,,"[""comma""]",0,[0.14750000000003638],21,0,21,0,1,,
,,,,,,,,,,,,603e5aad160c3ee04e07e8d3,26,Mężczyzna,2022-06-11_09h05.05.036,task,2021.1.4,Win32,143.7607821,6299f149e92ead563fba08ef,62a43e88fb74fa26fa86d202,,,,,,,,,,,,,,,,,,,,,,,,,,,,,,,,,,,,,,,,,,,,,,,,,,,,,,,,,,,,,,,,,,,,,,,,,,,,,,,,,,,,,,,,,,,,"[""period"",""period""]",0,"[0.03539999999850352,1.9728999999985035]",22,0,22,0,1,,
,,,,,,,,,,,,603e5aad160c3ee04e07e8d3,26,Mężczyzna,2022-06-11_09h05.05.036,task,2021.1.4,Win32,143.7607821,6299f149e92ead563fba08ef,62a43e88fb74fa26fa86d202,,,,,,,,,,,,,,,,,,,,,,,,,,,,,,,,,,,,,,,,,,,,,,,,,,,,,,,,,,,,,,,,,,,,,,,,,,,,,,,,,,,,,,,,,,,,"[""period""]",0,[1.7875000000000227],23,0,23,0,1,,
,,,,,,,,,,,,603e5aad160c3ee04e07e8d3,26,Mężczyzna,2022-06-11_09h05.05.036,task,2021.1.4,Win32,143.7607821,6299f149e92ead563fba08ef,62a43e88fb74fa26fa86d202,,,,,,,,,,,,,,,,,,,,,,,,,,,,,,,,,,,,,,,,,,,,,,,,,,,,,,,,,,,,,,,,,,,,,,,,,,,,,,,,,,,,,,,,,,,,"[""comma""]",0,[1.7156000000014728],24,0,24,0,1,,
,,,,,,,,,,,,603e5aad160c3ee04e07e8d3,26,Mężczyzna,2022-06-11_09h05.05.036,task,2021.1.4,Win32,143.7607821,6299f149e92ead563fba08ef,62a43e88fb74fa26fa86d202,,,,,,,,,,,,,,,,,,,,,,,,,,,,,,,,,,,,,,,,,,,,,,,,,,,,,,,,,,,,,,,,,,,,,,,,,,,,,,,,,,,,,,,,,,,,"[""comma""]",0,[1.6911000000014837],25,0,25,0,1,,
,,,,,,,,,,,,603e5aad160c3ee04e07e8d3,26,Mężczyzna,2022-06-11_09h05.05.036,task,2021.1.4,Win32,143.7607821,6299f149e92ead563fba08ef,62a43e88fb74fa26fa86d202,,,,,,,,,,,,,,,,,,,,,,,,,,,,,,,,,,,,,,,,,,,,,,,,,,,,,,,,,,,,,,,,,,,,,,,,,,,,,,,,,,,,,,,,,,,,"[""period""]",0,[1.7868999999985817],26,0,26,0,1,,
,,,,,,,,,,,,603e5aad160c3ee04e07e8d3,26,Mężczyzna,2022-06-11_09h05.05.036,task,2021.1.4,Win32,143.7607821,6299f149e92ead563fba08ef,62a43e88fb74fa26fa86d202,,,,,,,,,,,,,,,,,,,,,,,,,,,,,,,,,,,,,,,,,,,,,,,,,,,,,,,,,,,,,,,,,,,,,,,,,,,,,,,,,,,,,,,,,,,,,0,,27,0,27,0,1,,
,,,,,,,,,,,,603e5aad160c3ee04e07e8d3,26,Mężczyzna,2022-06-11_09h05.05.036,task,2021.1.4,Win32,143.7607821,6299f149e92ead563fba08ef,62a43e88fb74fa26fa86d202,,,,,,,,,,,,,,,,,,,,,,,,,,,,,,,,,,,,,,,,,,,,,,,,,,,,,,,,,,,,,,,,,,,,,,,,,,,,,,,,,,,,,,,,,,,,"[""comma""]",0,[0.22690000000602595],28,0,28,0,1,,
,,,,,,,,,,,,603e5aad160c3ee04e07e8d3,26,Mężczyzna,2022-06-11_09h05.05.036,task,2021.1.4,Win32,143.7607821,6299f149e92ead563fba08ef,62a43e88fb74fa26fa86d202,,,,,,,,,,,,,,,,,,,,,,,,,,,,,,,,,,,,,,,,,,,,,,,,,,,,,,,,,,,,,,,,,,,,,,,,,,,,,,,,,,,,,,,,,,,,"[""period""]",0,[0.20260000000143918],29,0,29,0,1,,
,,,,,,,,,,,,603e5aad160c3ee04e07e8d3,26,Mężczyzna,2022-06-11_09h05.05.036,task,2021.1.4,Win32,143.7607821,6299f149e92ead563fba08ef,62a43e88fb74fa26fa86d202,,,,,,,,,,,,,,,,,,,,,,,,,,,,,,,,,,,,,,,,,,,,,,,,,,,,,,,,,,,,,,,,,,,,,,,,,,,,,,,,,,,,,,,,,,,,"[""comma""]",0,[0.25020000000301934],30,0,30,0,1,,
,,,,,,,,,,,,603e5aad160c3ee04e07e8d3,26,Mężczyzna,2022-06-11_09h05.05.036,task,2021.1.4,Win32,143.7607821,6299f149e92ead563fba08ef,62a43e88fb74fa26fa86d202,,,,,,,,,,,,,,,,,,,,,,,,,,,,,,,,,,,,,,,,,,,,,,,,,,,,,,,,,,,,,,,,,,,,,,,,,,,,,,,,,,,,,,,,,,,,"[""period""]",0,[0.27420000000302025],31,0,31,0,1,,
,,,,,,,,,,,,603e5aad160c3ee04e07e8d3,26,Mężczyzna,2022-06-11_09h05.05.036,task,2021.1.4,Win32,143.7607821,6299f149e92ead563fba08ef,62a43e88fb74fa26fa86d202,,,,,,,,,,,,,,,,,,,,,,,,,,,,,,,,,,,,,,,,,,,,,,,,,,,,,,,,,,,,,,,,,,,,,,,,,,,,,,,,,,,,,,,,,,,,"[""comma""]",0,[0.2101000000014892],32,0,32,0,1,,
,,,,,,,,,,,,603e5aad160c3ee04e07e8d3,26,Mężczyzna,2022-06-11_09h05.05.036,task,2021.1.4,Win32,143.7607821,6299f149e92ead563fba08ef,62a43e88fb74fa26fa86d202,,,,,,,,,,,,,,,,,,,,,,,,,,,,,,,,,,,,,,,,,,,,,,,,,,,,,,,,,,,,,,,,,,,,,,,,,,,,,,,,,,,,,,,,,,,,"[""period""]",0,[0.13899999999989632],33,0,33,0,1,,
,,,,,,,,,,,,603e5aad160c3ee04e07e8d3,26,Mężczyzna,2022-06-11_09h05.05.036,task,2021.1.4,Win32,143.7607821,6299f149e92ead563fba08ef,62a43e88fb74fa26fa86d202,,,,,,,,,,,,,,,,,,,,,,,,,,,,,,,,,,,,,,,,,,,,,,,,,,,,,,,,,,,,,,,,,,,,,,,,,,,,,,,,,,,,,,,,,,,,"[""comma"",""period""]",0,"[0.10580000000447853,1.9779000000060023]",34,0,34,0,1,,
,,,,,,,,,,,,603e5aad160c3ee04e07e8d3,26,Mężczyzna,2022-06-11_09h05.05.036,task,2021.1.4,Win32,143.7607821,6299f149e92ead563fba08ef,62a43e88fb74fa26fa86d202,,,,,,,,,,,,,,,,,,,,,,,,,,,,,,,,,,,,,,,,,,,,,,,,,,,,,,,,,,,,,,,,,,,,,,,,,,,,,,,,,,,,,,,,,,,,"[""comma""]",0,[1.9308000000044103],35,0,35,0,1,,
,,,,,,,,,,,,603e5aad160c3ee04e07e8d3,26,Mężczyzna,2022-06-11_09h05.05.036,task,2021.1.4,Win32,143.7607821,6299f149e92ead563fba08ef,62a43e88fb74fa26fa86d202,,,,,,,,,,,,,,,,,,,,,,,,,,,,,,,,,,,,,,,,,,,,,,,,,,,,,,,,,,,,,,,,,,,,,,,,,,,,,,,,,,,,,,,,,,,,,0,,36,0,36,0,1,,
,,,,,,,,,,,,603e5aad160c3ee04e07e8d3,26,Mężczyzna,2022-06-11_09h05.05.036,task,2021.1.4,Win32,143.7607821,6299f149e92ead563fba08ef,62a43e88fb74fa26fa86d202,,,,,,,,,,,,,,,,,,,,,,,,,,,,,,,,,,,,,,,,,,,,,,,,,,,,,,,,,,,,,,,,,,,,,,,,,,,,,,,,,,,,,,,,,,,,"[""period""]",0,[0.1775000000000091],37,0,37,0,1,,
,,,,,,,,,,,,603e5aad160c3ee04e07e8d3,26,Mężczyzna,2022-06-11_09h05.05.036,task,2021.1.4,Win32,143.7607821,6299f149e92ead563fba08ef,62a43e88fb74fa26fa86d202,,,,,,,,,,,,,,,,,,,,,,,,,,,,,,,,,,,,,,,,,,,,,,,,,,,,,,,,,,,,,,,,,,,,,,,,,,,,,,,,,,,,,,,,,,,,"[""comma""]",0,[0.18529999999702795],38,0,38,0,1,,
,,,,,,,,,,,,603e5aad160c3ee04e07e8d3,26,Mężczyzna,2022-06-11_09h05.05.036,task,2021.1.4,Win32,143.7607821,6299f149e92ead563fba08ef,62a43e88fb74fa26fa86d202,,,,,,,,,,,,,,,,,,,,,,,,,,,,,,,,,,,,,,,,,,,,,,,,,,,,,,,,,,,,,,,,,,,,,,,,,,,,,,,,,,,,,,,,,,,,"[""period""]",0,[0.21960000000149194],39,0,39,0,1,,
,,,,,,,,,,,,603e5aad160c3ee04e07e8d3,26,Mężczyzna,2022-06-11_09h05.05.036,task,2021.1.4,Win32,143.7607821,6299f149e92ead563fba08ef,62a43e88fb74fa26fa86d202,,,,,,,,,,,,,,,,,,,,,,,,,,,,,,,,,,,,,,,,,,,,,,,,,,,,,,,,,,,,,,,,,,,,,,,,,,,,,,,,,,,,,,,,,,,,"[""comma""]",0,[0.18720000000303116],40,0,40,0,1,,
,,,,,,,,,,,,603e5aad160c3ee04e07e8d3,26,Mężczyzna,2022-06-11_09h05.05.036,task,2021.1.4,Win32,143.7607821,6299f149e92ead563fba08ef,62a43e88fb74fa26fa86d202,,,,,,,,,,,,,,,,,,,,,,,,,,,,,,,,,,,,,,,,,,,,,,,,,,,,,,,,,,,,,,,,,,,,,,,,,,,,,,,,,,,,,,,,,,,,"[""period""]",0,[0.1230000000000473],41,0,41,0,1,,
,,,,,,,,,,,,603e5aad160c3ee04e07e8d3,26,Mężczyzna,2022-06-11_09h05.05.036,task,2021.1.4,Win32,143.7607821,6299f149e92ead563fba08ef,62a43e88fb74fa26fa86d202,,,,,,,,,,,,,,,,,,,,,,,,,,,,,,,,,,,,,,,,,,,,,,,,,,,,,,,,,,,,,,,,,,,,,,,,,,,,,,,,,,,,,,,,,,,,"[""comma"",""period""]",0,"[0.0027999999970234057,1.810899999998469]",42,0,42,0,1,,
,,,,,,,,,,,,603e5aad160c3ee04e07e8d3,26,Mężczyzna,2022-06-11_09h05.05.036,task,2021.1.4,Win32,143.7607821,6299f149e92ead563fba08ef,62a43e88fb74fa26fa86d202,,,,,,,,,,,,,,,,,,,,,,,,,,,,,,,,,,,,,,,,,,,,,,,,,,,,,,,,,,,,,,,,,,,,,,,,,,,,,,,,,,,,,,,,,,,,"[""comma""]",0,[1.91700000000003],43,0,43,0,1,,
,,,,,,,,,,,,603e5aad160c3ee04e07e8d3,26,Mężczyzna,2022-06-11_09h05.05.036,task,2021.1.4,Win32,143.7607821,6299f149e92ead563fba08ef,62a43e88fb74fa26fa86d202,,,,,,,,,,,,,,,,,,,,,,,,,,,,,,,,,,,,,,,,,,,,,,,,,,,,,,,,,,,,,,,,,,,,,,,,,,,,,,,,,,,,,,,,,,,,,0,,44,0,44,0,1,,
,,,,,,,,,,,,603e5aad160c3ee04e07e8d3,26,Mężczyzna,2022-06-11_09h05.05.036,task,2021.1.4,Win32,143.7607821,6299f149e92ead563fba08ef,62a43e88fb74fa26fa86d202,,,,,,,,,,,,,,,,,,,,,,,,,,,,,,,,,,,,,,,,,,,,,,,,,,,,,,,,,,,,,,,,,,,,,,,,,,,,,,,,,,,,,,,,,,,,"[""comma""]",0,[0.00270000000307391],45,0,45,0,1,,
,,,,,,,,,,,,603e5aad160c3ee04e07e8d3,26,Mężczyzna,2022-06-11_09h05.05.036,task,2021.1.4,Win32,143.7607821,6299f149e92ead563fba08ef,62a43e88fb74fa26fa86d202,,,,,,,,,,,,,,,,,,,,,,,,,,,,,,,,,,,,,,,,,,,,,,,,,,,,,,,,,,,,,,,,,,,,,,,,,,,,,,,,,,,,,,,,,,,,"[""comma""]",0,[0.01069999999549509],46,0,46,0,1,,
,,,,,,,,,,,,603e5aad160c3ee04e07e8d3,26,Mężczyzna,2022-06-11_09h05.05.036,task,2021.1.4,Win32,143.7607821,6299f149e92ead563fba08ef,62a43e88fb74fa26fa86d202,,,,,,,,,,,,,,,,,,,,,,,,,,,,,,,,,,,,,,,,,,,,,,,,,,,,,,,,,,,,,,,,,,,,,,,,,,,,,,,,,,,,,,,,,,,,"[""period"",""period""]",0,"[0.0823000000044658,1.9623000000044613]",47,0,47,0,1,,
,,,,,,,,,,,,603e5aad160c3ee04e07e8d3,26,Mężczyzna,2022-06-11_09h05.05.036,task,2021.1.4,Win32,143.7607821,6299f149e92ead563fba08ef,62a43e88fb74fa26fa86d202,,,,,,,,,,,,,,,,,,,,,,,,,,,,,,,,,,,,,,,,,,,,,,,,,,,,,,,,,,,,,,,,,,,,,,,,,,,,,,,,,,,,,,,,,,,,,0,,48,0,48,0,1,,
,,,,,,,,,,,,603e5aad160c3ee04e07e8d3,26,Mężczyzna,2022-06-11_09h05.05.036,task,2021.1.4,Win32,143.7607821,6299f149e92ead563fba08ef,62a43e88fb74fa26fa86d202,,,,,,,,,,,,,,,,,,,,,,,,,,,,,,,,,,,,,,,,,,,,,,,,,,,,,,,,,,,,,,,,,,,,,,,,,,,,,,,,,,,,,,,,,,,,"[""comma"",""period""]",0,"[0.23420000000305663,1.7939999999999827]",49,0,49,0,1,,
,,,,,,,,,,,,603e5aad160c3ee04e07e8d3,26,Mężczyzna,2022-06-11_09h05.05.036,task,2021.1.4,Win32,143.7607821,6299f149e92ead563fba08ef,62a43e88fb74fa26fa86d202,,,,,,,,,,,,,,,,,,,,,,,,,,,,,,,,,,,,,,,,,,,,,,,,,,,,,,,,,,,,,,,,,,,,,,,,,,,,,,,,,,,,,,,,,,,,"[""period""]",0,[1.9238999999985253],50,0,50,0,1,,
,,,,,,,,,,,,603e5aad160c3ee04e07e8d3,26,Mężczyzna,2022-06-11_09h05.05.036,task,2021.1.4,Win32,143.7607821,6299f149e92ead563fba08ef,62a43e88fb74fa26fa86d202,,,,,,,,,,,,,,,,,,,,,,,,,,,,,,,,,,,,,,,,,,,,,,,,,,,,,,,,,,,,,,,,,,,,,,,,,,,,,,,,,,,,,,,,,,,,,0,,51,0,51,0,1,,
,,,,,,,,,,,,603e5aad160c3ee04e07e8d3,26,Mężczyzna,2022-06-11_09h05.05.036,task,2021.1.4,Win32,143.7607821,6299f149e92ead563fba08ef,62a43e88fb74fa26fa86d202,,,,,,,,,,,,,,,,,,,,,,,,,,,,,,,,,,,,,,,,,,,,,,,,,,,,,,,,,,,,,,,,,,,,,,,,,,,,,,,,,,,,,,,,,,,,"[""comma""]",0,[0.22580000000448308],52,0,52,0,1,,
,,,,,,,,,,,,603e5aad160c3ee04e07e8d3,26,Mężczyzna,2022-06-11_09h05.05.036,task,2021.1.4,Win32,143.7607821,6299f149e92ead563fba08ef,62a43e88fb74fa26fa86d202,,,,,,,,,,,,,,,,,,,,,,,,,,,,,,,,,,,,,,,,,,,,,,,,,,,,,,,,,,,,,,,,,,,,,,,,,,,,,,,,,,,,,,,,,,,,"[""period""]",0,[0.56149999999991],53,0,53,0,1,,
,,,,,,,,,,,,603e5aad160c3ee04e07e8d3,26,Mężczyzna,2022-06-11_09h05.05.036,task,2021.1.4,Win32,143.7607821,6299f149e92ead563fba08ef,62a43e88fb74fa26fa86d202,,,,,,,,,,,,,,,,,,,,,,,,,,,,,,,,,,,,,,,,,,,,,,,,,,,,,,,,,,,,,,,,,,,,,,,,,,,,,,,,,,,,,,,,,,,,"[""period""]",0,[0.250199999995516],54,0,54,0,1,,
,,,,,,,,,,,,603e5aad160c3ee04e07e8d3,26,Mężczyzna,2022-06-11_09h05.05.036,task,2021.1.4,Win32,143.7607821,6299f149e92ead563fba08ef,62a43e88fb74fa26fa86d202,,,,,,,,,,,,,,,,,,,,,,,,,,,,,,,,,,,,,,,,,,,,,,,,,,,,,,,,,,,,,,,,,,,,,,,,,,,,,,,,,,,,,,,,,,,,"[""comma""]",0,[0.0812999999970998],55,0,55,0,1,,
,,,,,,,,,,,,603e5aad160c3ee04e07e8d3,26,Mężczyzna,2022-06-11_09h05.05.036,task,2021.1.4,Win32,143.7607821,6299f149e92ead563fba08ef,62a43e88fb74fa26fa86d202,,,,,,,,,,,,,,,,,,,,,,,,,,,,,,,,,,,,,,,,,,,,,,,,,,,,,,,,,,,,,,,,,,,,,,,,,,,,,,,,,,,,,,,,,,,,"[""period"",""comma""]",0,"[0.10520000000303753,1.9378000000044722]",56,0,56,0,1,,
,,,,,,,,,,,,603e5aad160c3ee04e07e8d3,26,Mężczyzna,2022-06-11_09h05.05.036,task,2021.1.4,Win32,143.7607821,6299f149e92ead563fba08ef,62a43e88fb74fa26fa86d202,,,,,,,,,,,,,,,,,,,,,,,,,,,,,,,,,,,,,,,,,,,,,,,,,,,,,,,,,,,,,,,,,,,,,,,,,,,,,,,,,,,,,,,,,,,,"[""period""]",0,[1.9586000000015247],57,0,57,0,1,,
,,,,,,,,,,,,603e5aad160c3ee04e07e8d3,26,Mężczyzna,2022-06-11_09h05.05.036,task,2021.1.4,Win32,143.7607821,6299f149e92ead563fba08ef,62a43e88fb74fa26fa86d202,,,,,,,,,,,,,,,,,,,,,,,,,,,,,,,,,,,,,,,,,,,,,,,,,,,,,,,,,,,,,,,,,,,,,,,,,,,,,,,,,,,,,,,,,,,,"[""comma""]",0,[1.77699999999993],58,0,58,0,1,,
,,,,,,,,,,,,603e5aad160c3ee04e07e8d3,26,Mężczyzna,2022-06-11_09h05.05.036,task,2021.1.4,Win32,143.7607821,6299f149e92ead563fba08ef,62a43e88fb74fa26fa86d202,,,,,,,,,,,,,,,,,,,,,,,,,,,,,,,,,,,,,,,,,,,,,,,,,,,,,,,,,,,,,,,,,,,,,,,,,,,,,,,,,,,,,,,,,,,,"[""comma""]",0,[1.7447999999969852],59,0,59,0,1,,
,,,,,,,,,,,,603e5aad160c3ee04e07e8d3,26,Mężczyzna,2022-06-11_09h05.05.036,task,2021.1.4,Win32,143.7607821,6299f149e92ead563fba08ef,62a43e88fb74fa26fa86d202,,,,,,,,,,,,,,,,,,,,,,,,,,,,,,,,,,,,,,,,,,,,,,,,,,,,,,,,,,,,,,,,,,,,,,,,,,,,,,,,,,,,,,,,,,,,"[""period""]",0,[1.8127999999970825],60,0,60,0,1,,
,,,,,,,,,,,,603e5aad160c3ee04e07e8d3,26,Mężczyzna,2022-06-11_09h05.05.036,task,2021.1.4,Win32,143.7607821,6299f149e92ead563fba08ef,62a43e88fb74fa26fa86d202,,,,,,,,,,,,,,,,,,,,,,,,,,,,,,,,,,,,,,,,,,,,,,,,,,,,,,,,,,,,,,,,,,,,,,,,,,,,,,,,,,,,,,,,,,,,"[""period""]",0,[1.8966000000015129],61,0,61,0,1,,
,,,,,,,,,,,,603e5aad160c3ee04e07e8d3,26,Mężczyzna,2022-06-11_09h05.05.036,task,2021.1.4,Win32,143.7607821,6299f149e92ead563fba08ef,62a43e88fb74fa26fa86d202,,,,,,,,,,,,,,,,,,,,,,,,,,,,,,,,,,,,,,,,,,,,,,,,,,,,,,,,,,,,,,,,,,,,,,,,,,,,,,,,,,,,,,,,,,,,"[""comma""]",0,[1.8553999999984399],62,0,62,0,1,,
,,,,,,,,,,,,603e5aad160c3ee04e07e8d3,26,Mężczyzna,2022-06-11_09h05.05.036,task,2021.1.4,Win32,143.7607821,6299f149e92ead563fba08ef,62a43e88fb74fa26fa86d202,,,,,,,,,,,,,,,,,,,,,,,,,,,,,,,,,,,,,,,,,,,,,,,,,,,,,,,,,,,,,,,,,,,,,,,,,,,,,,,,,,,,,,,,,,,,,0,,63,0,63,0,1,,
,,,,,,,,,,,,603e5aad160c3ee04e07e8d3,26,Mężczyzna,2022-06-11_09h05.05.036,task,2021.1.4,Win32,143.7607821,6299f149e92ead563fba08ef,62a43e88fb74fa26fa86d202,,,,,,,,,,,,,,,,,,,,,,,,,,,,,,,,,,,,,,,,,,,,,,,,,,,,,,,,,,,,,,,,,,,,,,,,,,,,,,,,,,,,,,,,,,,,"[""period""]",0,[0.055300000004422145],64,0,64,0,1,,
,,,,,,,,,,,,603e5aad160c3ee04e07e8d3,26,Mężczyzna,2022-06-11_09h05.05.036,task,2021.1.4,Win32,143.7607821,6299f149e92ead563fba08ef,62a43e88fb74fa26fa86d202,,,,,,,,,,,,,,,,,,,,,,,,,,,,,,,,,,,,,,,,,,,,,,,,,,,,,,,,,,,,,,,,,,,,,,,,,,,,,,,,,,,,,,,,,,,,"[""comma""]",0,[0.09050000000002001],65,0,65,0,1,,
,,,,,,,,,,,,603e5aad160c3ee04e07e8d3,26,Mężczyzna,2022-06-11_09h05.05.036,task,2021.1.4,Win32,143.7607821,6299f149e92ead563fba08ef,62a43e88fb74fa26fa86d202,,,,,,,,,,,,,,,,,,,,,,,,,,,,,,,,,,,,,,,,,,,,,,,,,,,,,,,,,,,,,,,,,,,,,,,,,,,,,,,,,,,,,,,,,,,,"[""period""]",0,[0.12679999999693337],66,0,66,0,1,,
