key_resp_15.keys,key_resp_15.rt,key_resp_16.keys,key_resp_16.rt,key_resp_4.keys,key_resp_4.rt,next_letter.thisRepN,next_letter.thisTrialN,next_letter.thisN,next_letter.thisIndex,next_letter.ran,letter,participant,Wiek*,Płeć,date,expName,psychopyVersion,OS,frameRate,study_id,session,simple_recall,key_resp_5.keys,key_resp_5.rt,simple_recall_corr,simple_recall_corrkeys,next_level.thisRepN,next_level.thisTrialN,next_level.thisN,next_level.thisIndex,next_level.ran,key_resp_2.keys,key_resp_2.rt,digit_answer,key_resp.keys,key_resp.corr,key_resp.rt,RT_list,next_equation.thisRepN,next_equation.thisTrialN,next_equation.thisN,next_equation.thisIndex,next_equation.ran,Task,Trial,Problem,Operation_answer,processing_score,sumRT,meanRT,sumdiff,sd,RT,key_resp_3.keys,key_resp_3.rt,repeat_practice.thisRepN,repeat_practice.thisTrialN,repeat_practice.thisN,repeat_practice.thisIndex,repeat_practice.ran,key_resp_6.keys,key_resp_6.rt,key_resp_11.keys,key_resp_11.corr,key_resp_11.rt,operation_correct,repeat_if_wrong_prac.thisRepN,repeat_if_wrong_prac.thisTrialN,repeat_if_wrong_prac.thisN,repeat_if_wrong_prac.thisIndex,repeat_if_wrong_prac.ran,span_size_prac.thisRepN,span_size_prac.thisTrialN,span_size_prac.thisN,span_size_prac.thisIndex,span_size_prac.ran,complex_recall_practice,key_resp_9.keys,key_resp_9.corr,key_resp_9.rt,complex_prac_corr,span_recall_prac.thisRepN,span_recall_prac.thisTrialN,span_recall_prac.thisN,span_recall_prac.thisIndex,span_recall_prac.ran,key_resp_10.keys,key_resp_10.rt,key_resp_7.keys,key_resp_7.corr,repeat_if_wrong.thisRepN,repeat_if_wrong.thisTrialN,repeat_if_wrong.thisN,repeat_if_wrong.thisIndex,repeat_if_wrong.ran,key_resp_7.rt,span_size.thisRepN,span_size.thisTrialN,span_size.thisN,span_size.thisIndex,span_size.ran,complex_recall,key_resp_8.keys,key_resp_8.corr,key_resp_8.rt,complex_recall_corr,complex_recall_corrkeys,span_recall.thisRepN,span_recall.thisTrialN,span_recall.thisN,span_recall.thisIndex,span_recall.ran,key_resp_13.keys,key_resp_13.corr,key_resp_13.rt,random_loop.thisRepN,random_loop.thisTrialN,random_loop.thisN,random_loop.thisIndex,random_loop.ran,key_resp_12.keys,key_resp_12.rt
space,13.4885,space,13.9346,space,5.5071,0,0,0,0,1,X V Q F H G B L J M P D K C T S W R N Z,604784025572562991fa9638,27,Kobieta,2022-06-11_09h30.32.012,task,2021.1.4,Win32,120.0624325,6299f149e92ead563fba08ef,62a4447bb786af9384ba2280,,,,,,,,,,,,,,,,,,,,,,,,,,,,,,,,,,,,,,,,,,,,,,,,,,,,,,,,,,,,,,,,,,,,,,,,,,,,,,,,,,,,,,,,,,,,,,,,,,,,,
,,,,,,1,0,1,0,1,X V Q F H G B L J M P D K C T S W R N Z,604784025572562991fa9638,27,Kobieta,2022-06-11_09h30.32.012,task,2021.1.4,Win32,120.0624325,6299f149e92ead563fba08ef,62a4447bb786af9384ba2280,,,,,,,,,,,,,,,,,,,,,,,,,,,,,,,,,,,,,,,,,,,,,,,,,,,,,,,,,,,,,,,,,,,,,,,,,,,,,,,,,,,,,,,,,,,,,,,,,,,,,
,,,,,,,,,,,,604784025572562991fa9638,27,Kobieta,2022-06-11_09h30.32.012,task,2021.1.4,Win32,120.0624325,6299f149e92ead563fba08ef,62a4447bb786af9384ba2280,zc,"[""z"",""c""]","[1.8027999999523203,2.16579999995232,3.6436999998092716]",1,ZC,0,0,0,0,1,,,,,,,,,,,,,,,,,,,,,,,,,,,,,,,,,,,,,,,,,,,,,,,,,,,,,,,,,,,,,,,,,,,,,,,,,,,,,,,,,,,,,,,,,,,
,,,,,,0,0,0,0,1,X V Q F H G B L J M P D K C T S W R N Z,604784025572562991fa9638,27,Kobieta,2022-06-11_09h30.32.012,task,2021.1.4,Win32,120.0624325,6299f149e92ead563fba08ef,62a4447bb786af9384ba2280,,,,,,,,,,,,,,,,,,,,,,,,,,,,,,,,,,,,,,,,,,,,,,,,,,,,,,,,,,,,,,,,,,,,,,,,,,,,,,,,,,,,,,,,,,,,,,,,,,,,,
,,,,,,1,0,1,0,1,X V Q F H G B L J M P D K C T S W R N Z,604784025572562991fa9638,27,Kobieta,2022-06-11_09h30.32.012,task,2021.1.4,Win32,120.0624325,6299f149e92ead563fba08ef,62a4447bb786af9384ba2280,,,,,,,,,,,,,,,,,,,,,,,,,,,,,,,,,,,,,,,,,,,,,,,,,,,,,,,,,,,,,,,,,,,,,,,,,,,,,,,,,,,,,,,,,,,,,,,,,,,,,
,,,,,,,,,,,,604784025572562991fa9638,27,Kobieta,2022-06-11_09h30.32.012,task,2021.1.4,Win32,120.0624325,6299f149e92ead563fba08ef,62a4447bb786af9384ba2280,qs,"[""q"",""s""]","[1.3128000001907338,1.6427000000476824,2.016100000143055]",1,QS,1,0,1,0,1,,,,,,,,,,,,,,,,,,,,,,,,,,,,,,,,,,,,,,,,,,,,,,,,,,,,,,,,,,,,,,,,,,,,,,,,,,,,,,,,,,,,,,,,,,,
,,,,,,0,0,0,0,1,X V Q F H G B L J M P D K C T S W R N Z,604784025572562991fa9638,27,Kobieta,2022-06-11_09h30.32.012,task,2021.1.4,Win32,120.0624325,6299f149e92ead563fba08ef,62a4447bb786af9384ba2280,,,,,,,,,,,,,,,,,,,,,,,,,,,,,,,,,,,,,,,,,,,,,,,,,,,,,,,,,,,,,,,,,,,,,,,,,,,,,,,,,,,,,,,,,,,,,,,,,,,,,
,,,,,,1,0,1,0,1,X V Q F H G B L J M P D K C T S W R N Z,604784025572562991fa9638,27,Kobieta,2022-06-11_09h30.32.012,task,2021.1.4,Win32,120.0624325,6299f149e92ead563fba08ef,62a4447bb786af9384ba2280,,,,,,,,,,,,,,,,,,,,,,,,,,,,,,,,,,,,,,,,,,,,,,,,,,,,,,,,,,,,,,,,,,,,,,,,,,,,,,,,,,,,,,,,,,,,,,,,,,,,,
,,,,,,2,0,2,0,1,X V Q F H G B L J M P D K C T S W R N Z,604784025572562991fa9638,27,Kobieta,2022-06-11_09h30.32.012,task,2021.1.4,Win32,120.0624325,6299f149e92ead563fba08ef,62a4447bb786af9384ba2280,,,,,,,,,,,,,,,,,,,,,,,,,,,,,,,,,,,,,,,,,,,,,,,,,,,,,,,,,,,,,,,,,,,,,,,,,,,,,,,,,,,,,,,,,,,,,,,,,,,,,
,,,,,,,,,,,,604784025572562991fa9638,27,Kobieta,2022-06-11_09h30.32.012,task,2021.1.4,Win32,120.0624325,6299f149e92ead563fba08ef,62a4447bb786af9384ba2280,zhj,"[""z"",""h"",""j""]","[1.1287000000476866,1.4080999999046355,1.9692000000476924,2.4920999999046387]",1,ZHJ,2,0,2,0,1,,,,,,,,,,,,,,,,,,,,,,,,,,,,,,,,,,,,,,,,,,,,,,,,,,,,,,,,,,,,,,,,,,,,,,,,,,,,,,,,,,,,,,,,,,,
,,,,,,0,0,0,0,1,X V Q F H G B L J M P D K C T S W R N Z,604784025572562991fa9638,27,Kobieta,2022-06-11_09h30.32.012,task,2021.1.4,Win32,120.0624325,6299f149e92ead563fba08ef,62a4447bb786af9384ba2280,,,,,,,,,,,,,,,,,,,,,,,,,,,,,,,,,,,,,,,,,,,,,,,,,,,,,,,,,,,,,,,,,,,,,,,,,,,,,,,,,,,,,,,,,,,,,,,,,,,,,
,,,,,,1,0,1,0,1,X V Q F H G B L J M P D K C T S W R N Z,604784025572562991fa9638,27,Kobieta,2022-06-11_09h30.32.012,task,2021.1.4,Win32,120.0624325,6299f149e92ead563fba08ef,62a4447bb786af9384ba2280,,,,,,,,,,,,,,,,,,,,,,,,,,,,,,,,,,,,,,,,,,,,,,,,,,,,,,,,,,,,,,,,,,,,,,,,,,,,,,,,,,,,,,,,,,,,,,,,,,,,,
,,,,,,2,0,2,0,1,X V Q F H G B L J M P D K C T S W R N Z,604784025572562991fa9638,27,Kobieta,2022-06-11_09h30.32.012,task,2021.1.4,Win32,120.0624325,6299f149e92ead563fba08ef,62a4447bb786af9384ba2280,,,,,,,,,,,,,,,,,,,,,,,,,,,,,,,,,,,,,,,,,,,,,,,,,,,,,,,,,,,,,,,,,,,,,,,,,,,,,,,,,,,,,,,,,,,,,,,,,,,,,
,,,,,,,,,,,,604784025572562991fa9638,27,Kobieta,2022-06-11_09h30.32.012,task,2021.1.4,Win32,120.0624325,6299f149e92ead563fba08ef,62a4447bb786af9384ba2280,wpw,"[""w"",""p"",""w""]","[1.076399999856946,1.4763999998569517,1.8102999999523206,2.424399999856945]",1,WPW,3,0,3,0,1,,,,,,,,,,,,,,,,,,,,,,,,,,,,,,,,,,,,,,,,,,,,,,,,,,,,,,,,,,,,,,,,,,,,,,,,,,,,,,,,,,,,,,,,,,,
,,,,,,0,0,0,0,1,X V Q F H G B L J M P D K C T S W R N Z,604784025572562991fa9638,27,Kobieta,2022-06-11_09h30.32.012,task,2021.1.4,Win32,120.0624325,6299f149e92ead563fba08ef,62a4447bb786af9384ba2280,,,,,,,,,,,,,,,,,,,,,,,,,,,,,,,,,,,,,,,,,,,,,,,,,,,,,,,,,,,,,,,,,,,,,,,,,,,,,,,,,,,,,,,,,,,,,,,,,,,,,
,,,,,,1,0,1,0,1,X V Q F H G B L J M P D K C T S W R N Z,604784025572562991fa9638,27,Kobieta,2022-06-11_09h30.32.012,task,2021.1.4,Win32,120.0624325,6299f149e92ead563fba08ef,62a4447bb786af9384ba2280,,,,,,,,,,,,,,,,,,,,,,,,,,,,,,,,,,,,,,,,,,,,,,,,,,,,,,,,,,,,,,,,,,,,,,,,,,,,,,,,,,,,,,,,,,,,,,,,,,,,,
,,,,,,2,0,2,0,1,X V Q F H G B L J M P D K C T S W R N Z,604784025572562991fa9638,27,Kobieta,2022-06-11_09h30.32.012,task,2021.1.4,Win32,120.0624325,6299f149e92ead563fba08ef,62a4447bb786af9384ba2280,,,,,,,,,,,,,,,,,,,,,,,,,,,,,,,,,,,,,,,,,,,,,,,,,,,,,,,,,,,,,,,,,,,,,,,,,,,,,,,,,,,,,,,,,,,,,,,,,,,,,
,,,,,,3,0,3,0,1,X V Q F H G B L J M P D K C T S W R N Z,604784025572562991fa9638,27,Kobieta,2022-06-11_09h30.32.012,task,2021.1.4,Win32,120.0624325,6299f149e92ead563fba08ef,62a4447bb786af9384ba2280,,,,,,,,,,,,,,,,,,,,,,,,,,,,,,,,,,,,,,,,,,,,,,,,,,,,,,,,,,,,,,,,,,,,,,,,,,,,,,,,,,,,,,,,,,,,,,,,,,,,,
,,,,,,,,,,,,604784025572562991fa9638,27,Kobieta,2022-06-11_09h30.32.012,task,2021.1.4,Win32,120.0624325,6299f149e92ead563fba08ef,62a4447bb786af9384ba2280,dhrv,"[""d"",""h"",""r"",""v""]","[0.8746999998092662,1.6915000000000049,2.293399999856959,2.5911999998092625,3.1492999999523192]",1,DHRV,4,0,4,0,1,,,,,,,,,,,,,,,,,,,,,,,,,,,,,,,,,,,,,,,,,,,,,,,,,,,,,,,,,,,,,,,,,,,,,,,,,,,,,,,,,,,,,,,,,,,
,,,,,,0,0,0,0,1,X V Q F H G B L J M P D K C T S W R N Z,604784025572562991fa9638,27,Kobieta,2022-06-11_09h30.32.012,task,2021.1.4,Win32,120.0624325,6299f149e92ead563fba08ef,62a4447bb786af9384ba2280,,,,,,,,,,,,,,,,,,,,,,,,,,,,,,,,,,,,,,,,,,,,,,,,,,,,,,,,,,,,,,,,,,,,,,,,,,,,,,,,,,,,,,,,,,,,,,,,,,,,,
,,,,,,1,0,1,0,1,X V Q F H G B L J M P D K C T S W R N Z,604784025572562991fa9638,27,Kobieta,2022-06-11_09h30.32.012,task,2021.1.4,Win32,120.0624325,6299f149e92ead563fba08ef,62a4447bb786af9384ba2280,,,,,,,,,,,,,,,,,,,,,,,,,,,,,,,,,,,,,,,,,,,,,,,,,,,,,,,,,,,,,,,,,,,,,,,,,,,,,,,,,,,,,,,,,,,,,,,,,,,,,
,,,,,,2,0,2,0,1,X V Q F H G B L J M P D K C T S W R N Z,604784025572562991fa9638,27,Kobieta,2022-06-11_09h30.32.012,task,2021.1.4,Win32,120.0624325,6299f149e92ead563fba08ef,62a4447bb786af9384ba2280,,,,,,,,,,,,,,,,,,,,,,,,,,,,,,,,,,,,,,,,,,,,,,,,,,,,,,,,,,,,,,,,,,,,,,,,,,,,,,,,,,,,,,,,,,,,,,,,,,,,,
,,,,,,3,0,3,0,1,X V Q F H G B L J M P D K C T S W R N Z,604784025572562991fa9638,27,Kobieta,2022-06-11_09h30.32.012,task,2021.1.4,Win32,120.0624325,6299f149e92ead563fba08ef,62a4447bb786af9384ba2280,,,,,,,,,,,,,,,,,,,,,,,,,,,,,,,,,,,,,,,,,,,,,,,,,,,,,,,,,,,,,,,,,,,,,,,,,,,,,,,,,,,,,,,,,,,,,,,,,,,,,
,,,,,,,,,,,,604784025572562991fa9638,27,Kobieta,2022-06-11_09h30.32.012,task,2021.1.4,Win32,120.0624325,6299f149e92ead563fba08ef,62a4447bb786af9384ba2280,pcdq,"[""p"",""c"",""d"",""q""]","[0.8293999998569461,1.2352999999523178,1.583199999809267,1.8938999998569415,2.225599999904631]",1,PCDQ,5,0,5,0,1,,,,,,,,,,,,,,,,,,,,,,,,,,,,,,,,,,,,,,,,,,,,,,,,,,,,,,,,,,,,,,,,,,,,,,,,,,,,,,,,,,,,,,,,,,,
,,,,,,0,0,0,0,1,X V Q F H G B L J M P D K C T S W R N Z,604784025572562991fa9638,27,Kobieta,2022-06-11_09h30.32.012,task,2021.1.4,Win32,120.0624325,6299f149e92ead563fba08ef,62a4447bb786af9384ba2280,,,,,,,,,,,,,,,,,,,,,,,,,,,,,,,,,,,,,,,,,,,,,,,,,,,,,,,,,,,,,,,,,,,,,,,,,,,,,,,,,,,,,,,,,,,,,,,,,,,,,
,,,,,,1,0,1,0,1,X V Q F H G B L J M P D K C T S W R N Z,604784025572562991fa9638,27,Kobieta,2022-06-11_09h30.32.012,task,2021.1.4,Win32,120.0624325,6299f149e92ead563fba08ef,62a4447bb786af9384ba2280,,,,,,,,,,,,,,,,,,,,,,,,,,,,,,,,,,,,,,,,,,,,,,,,,,,,,,,,,,,,,,,,,,,,,,,,,,,,,,,,,,,,,,,,,,,,,,,,,,,,,
,,,,,,2,0,2,0,1,X V Q F H G B L J M P D K C T S W R N Z,604784025572562991fa9638,27,Kobieta,2022-06-11_09h30.32.012,task,2021.1.4,Win32,120.0624325,6299f149e92ead563fba08ef,62a4447bb786af9384ba2280,,,,,,,,,,,,,,,,,,,,,,,,,,,,,,,,,,,,,,,,,,,,,,,,,,,,,,,,,,,,,,,,,,,,,,,,,,,,,,,,,,,,,,,,,,,,,,,,,,,,,
,,,,,,3,0,3,0,1,X V Q F H G B L J M P D K C T S W R N Z,604784025572562991fa9638,27,Kobieta,2022-06-11_09h30.32.012,task,2021.1.4,Win32,120.0624325,6299f149e92ead563fba08ef,62a4447bb786af9384ba2280,,,,,,,,,,,,,,,,,,,,,,,,,,,,,,,,,,,,,,,,,,,,,,,,,,,,,,,,,,,,,,,,,,,,,,,,,,,,,,,,,,,,,,,,,,,,,,,,,,,,,
,,,,,,4,0,4,0,1,X V Q F H G B L J M P D K C T S W R N Z,604784025572562991fa9638,27,Kobieta,2022-06-11_09h30.32.012,task,2021.1.4,Win32,120.0624325,6299f149e92ead563fba08ef,62a4447bb786af9384ba2280,,,,,,,,,,,,,,,,,,,,,,,,,,,,,,,,,,,,,,,,,,,,,,,,,,,,,,,,,,,,,,,,,,,,,,,,,,,,,,,,,,,,,,,,,,,,,,,,,,,,,
,,,,,,,,,,,,604784025572562991fa9638,27,Kobieta,2022-06-11_09h30.32.012,task,2021.1.4,Win32,120.0624325,6299f149e92ead563fba08ef,62a4447bb786af9384ba2280,bftrt,"[""b"",""f"",""t"",""r"",""t""]","[0.9612000000476826,1.4172000000476714,1.7834999999999894,2.102700000047676,2.7777000000476733,3.1462000000476706]",0,BFRTR,6,0,6,0,1,,,,,,,,,,,,,,,,,,,,,,,,,,,,,,,,,,,,,,,,,,,,,,,,,,,,,,,,,,,,,,,,,,,,,,,,,,,,,,,,,,,,,,,,,,,
,,,,,,0,0,0,0,1,X V Q F H G B L J M P D K C T S W R N Z,604784025572562991fa9638,27,Kobieta,2022-06-11_09h30.32.012,task,2021.1.4,Win32,120.0624325,6299f149e92ead563fba08ef,62a4447bb786af9384ba2280,,,,,,,,,,,,,,,,,,,,,,,,,,,,,,,,,,,,,,,,,,,,,,,,,,,,,,,,,,,,,,,,,,,,,,,,,,,,,,,,,,,,,,,,,,,,,,,,,,,,,
,,,,,,1,0,1,0,1,X V Q F H G B L J M P D K C T S W R N Z,604784025572562991fa9638,27,Kobieta,2022-06-11_09h30.32.012,task,2021.1.4,Win32,120.0624325,6299f149e92ead563fba08ef,62a4447bb786af9384ba2280,,,,,,,,,,,,,,,,,,,,,,,,,,,,,,,,,,,,,,,,,,,,,,,,,,,,,,,,,,,,,,,,,,,,,,,,,,,,,,,,,,,,,,,,,,,,,,,,,,,,,
,,,,,,2,0,2,0,1,X V Q F H G B L J M P D K C T S W R N Z,604784025572562991fa9638,27,Kobieta,2022-06-11_09h30.32.012,task,2021.1.4,Win32,120.0624325,6299f149e92ead563fba08ef,62a4447bb786af9384ba2280,,,,,,,,,,,,,,,,,,,,,,,,,,,,,,,,,,,,,,,,,,,,,,,,,,,,,,,,,,,,,,,,,,,,,,,,,,,,,,,,,,,,,,,,,,,,,,,,,,,,,
,,,,,,3,0,3,0,1,X V Q F H G B L J M P D K C T S W R N Z,604784025572562991fa9638,27,Kobieta,2022-06-11_09h30.32.012,task,2021.1.4,Win32,120.0624325,6299f149e92ead563fba08ef,62a4447bb786af9384ba2280,,,,,,,,,,,,,,,,,,,,,,,,,,,,,,,,,,,,,,,,,,,,,,,,,,,,,,,,,,,,,,,,,,,,,,,,,,,,,,,,,,,,,,,,,,,,,,,,,,,,,
,,,,,,4,0,4,0,1,X V Q F H G B L J M P D K C T S W R N Z,604784025572562991fa9638,27,Kobieta,2022-06-11_09h30.32.012,task,2021.1.4,Win32,120.0624325,6299f149e92ead563fba08ef,62a4447bb786af9384ba2280,,,,,,,,,,,,,,,,,,,,,,,,,,,,,,,,,,,,,,,,,,,,,,,,,,,,,,,,,,,,,,,,,,,,,,,,,,,,,,,,,,,,,,,,,,,,,,,,,,,,,
,,,,,,,,,,,,604784025572562991fa9638,27,Kobieta,2022-06-11_09h30.32.012,task,2021.1.4,Win32,120.0624325,6299f149e92ead563fba08ef,62a4447bb786af9384ba2280,rdptm,"[""r"",""d"",""p"",""t"",""m""]","[1.392400000095364,1.5995000000000061,1.9834000000953722,2.516100000143055,2.9071000001430463,3.1937000000476843]",1,RDPTM,7,0,7,0,1,,,,,,,,,,,,,,,,,,,,,,,,,,,,,,,,,,,,,,,,,,,,,,,,,,,,,,,,,,,,,,,,,,,,,,,,,,,,,,,,,,,,,,,,,,,
,,,,,,0,0,0,0,1,X V Q F H G B L J M P D K C T S W R N Z,604784025572562991fa9638,27,Kobieta,2022-06-11_09h30.32.012,task,2021.1.4,Win32,120.0624325,6299f149e92ead563fba08ef,62a4447bb786af9384ba2280,,,,,,,,,,,,,,,,,,,,,,,,,,,,,,,,,,,,,,,,,,,,,,,,,,,,,,,,,,,,,,,,,,,,,,,,,,,,,,,,,,,,,,,,,,,,,,,,,,,,,
,,,,,,1,0,1,0,1,X V Q F H G B L J M P D K C T S W R N Z,604784025572562991fa9638,27,Kobieta,2022-06-11_09h30.32.012,task,2021.1.4,Win32,120.0624325,6299f149e92ead563fba08ef,62a4447bb786af9384ba2280,,,,,,,,,,,,,,,,,,,,,,,,,,,,,,,,,,,,,,,,,,,,,,,,,,,,,,,,,,,,,,,,,,,,,,,,,,,,,,,,,,,,,,,,,,,,,,,,,,,,,
,,,,,,2,0,2,0,1,X V Q F H G B L J M P D K C T S W R N Z,604784025572562991fa9638,27,Kobieta,2022-06-11_09h30.32.012,task,2021.1.4,Win32,120.0624325,6299f149e92ead563fba08ef,62a4447bb786af9384ba2280,,,,,,,,,,,,,,,,,,,,,,,,,,,,,,,,,,,,,,,,,,,,,,,,,,,,,,,,,,,,,,,,,,,,,,,,,,,,,,,,,,,,,,,,,,,,,,,,,,,,,
,,,,,,3,0,3,0,1,X V Q F H G B L J M P D K C T S W R N Z,604784025572562991fa9638,27,Kobieta,2022-06-11_09h30.32.012,task,2021.1.4,Win32,120.0624325,6299f149e92ead563fba08ef,62a4447bb786af9384ba2280,,,,,,,,,,,,,,,,,,,,,,,,,,,,,,,,,,,,,,,,,,,,,,,,,,,,,,,,,,,,,,,,,,,,,,,,,,,,,,,,,,,,,,,,,,,,,,,,,,,,,
,,,,,,4,0,4,0,1,X V Q F H G B L J M P D K C T S W R N Z,604784025572562991fa9638,27,Kobieta,2022-06-11_09h30.32.012,task,2021.1.4,Win32,120.0624325,6299f149e92ead563fba08ef,62a4447bb786af9384ba2280,,,,,,,,,,,,,,,,,,,,,,,,,,,,,,,,,,,,,,,,,,,,,,,,,,,,,,,,,,,,,,,,,,,,,,,,,,,,,,,,,,,,,,,,,,,,,,,,,,,,,
,,,,,,,,,,,,604784025572562991fa9638,27,Kobieta,2022-06-11_09h30.32.012,task,2021.1.4,Win32,120.0624325,6299f149e92ead563fba08ef,62a4447bb786af9384ba2280,jhhwm,"[""j"",""h"",""h"",""w"",""m""]","[0.9927999999523252,1.2214000000953718,1.3525000000000063,2.1875,2.494299999952318,2.8189000000953683]",1,JHHWM,8,0,8,0,1,,,,,,,,,,,,,,,,,,,,,,,,,,,,,,,,,,,,,,,,,,,,,,,,,,,,,,,,,,,,,,,,,,,,,,,,,,,,,,,,,,,,,,,,,,,
,,,,,,0,0,0,0,1,X V Q F H G B L J M P D K C T S W R N Z,604784025572562991fa9638,27,Kobieta,2022-06-11_09h30.32.012,task,2021.1.4,Win32,120.0624325,6299f149e92ead563fba08ef,62a4447bb786af9384ba2280,,,,,,,,,,,,,,,,,,,,,,,,,,,,,,,,,,,,,,,,,,,,,,,,,,,,,,,,,,,,,,,,,,,,,,,,,,,,,,,,,,,,,,,,,,,,,,,,,,,,,
,,,,,,1,0,1,0,1,X V Q F H G B L J M P D K C T S W R N Z,604784025572562991fa9638,27,Kobieta,2022-06-11_09h30.32.012,task,2021.1.4,Win32,120.0624325,6299f149e92ead563fba08ef,62a4447bb786af9384ba2280,,,,,,,,,,,,,,,,,,,,,,,,,,,,,,,,,,,,,,,,,,,,,,,,,,,,,,,,,,,,,,,,,,,,,,,,,,,,,,,,,,,,,,,,,,,,,,,,,,,,,
,,,,,,2,0,2,0,1,X V Q F H G B L J M P D K C T S W R N Z,604784025572562991fa9638,27,Kobieta,2022-06-11_09h30.32.012,task,2021.1.4,Win32,120.0624325,6299f149e92ead563fba08ef,62a4447bb786af9384ba2280,,,,,,,,,,,,,,,,,,,,,,,,,,,,,,,,,,,,,,,,,,,,,,,,,,,,,,,,,,,,,,,,,,,,,,,,,,,,,,,,,,,,,,,,,,,,,,,,,,,,,
,,,,,,3,0,3,0,1,X V Q F H G B L J M P D K C T S W R N Z,604784025572562991fa9638,27,Kobieta,2022-06-11_09h30.32.012,task,2021.1.4,Win32,120.0624325,6299f149e92ead563fba08ef,62a4447bb786af9384ba2280,,,,,,,,,,,,,,,,,,,,,,,,,,,,,,,,,,,,,,,,,,,,,,,,,,,,,,,,,,,,,,,,,,,,,,,,,,,,,,,,,,,,,,,,,,,,,,,,,,,,,
,,,,,,4,0,4,0,1,X V Q F H G B L J M P D K C T S W R N Z,604784025572562991fa9638,27,Kobieta,2022-06-11_09h30.32.012,task,2021.1.4,Win32,120.0624325,6299f149e92ead563fba08ef,62a4447bb786af9384ba2280,,,,,,,,,,,,,,,,,,,,,,,,,,,,,,,,,,,,,,,,,,,,,,,,,,,,,,,,,,,,,,,,,,,,,,,,,,,,,,,,,,,,,,,,,,,,,,,,,,,,,
,,,,,,5,0,5,0,1,X V Q F H G B L J M P D K C T S W R N Z,604784025572562991fa9638,27,Kobieta,2022-06-11_09h30.32.012,task,2021.1.4,Win32,120.0624325,6299f149e92ead563fba08ef,62a4447bb786af9384ba2280,,,,,,,,,,,,,,,,,,,,,,,,,,,,,,,,,,,,,,,,,,,,,,,,,,,,,,,,,,,,,,,,,,,,,,,,,,,,,,,,,,,,,,,,,,,,,,,,,,,,,
,,,,,,,,,,,,604784025572562991fa9638,27,Kobieta,2022-06-11_09h30.32.012,task,2021.1.4,Win32,120.0624325,6299f149e92ead563fba08ef,62a4447bb786af9384ba2280,hzjrng,"[""h"",""z"",""j"",""r"",""n"",""g""]","[1.8057000000476933,2.1924999999999955,2.4788999998569636,3.035299999952315,3.5755999999046537,3.9907999999523156,4.390700000047701]",1,HZJRNG,9,0,9,0,1,,,,,,,,,,,,,,,,,,,,,,,,,,,,,,,,,,,,,,,,,,,,,,,,,,,,,,,,,,,,,,,,,,,,,,,,,,,,,,,,,,,,,,,,,,,
,,,,,,0,0,0,0,1,X V Q F H G B L J M P D K C T S W R N Z,604784025572562991fa9638,27,Kobieta,2022-06-11_09h30.32.012,task,2021.1.4,Win32,120.0624325,6299f149e92ead563fba08ef,62a4447bb786af9384ba2280,,,,,,,,,,,,,,,,,,,,,,,,,,,,,,,,,,,,,,,,,,,,,,,,,,,,,,,,,,,,,,,,,,,,,,,,,,,,,,,,,,,,,,,,,,,,,,,,,,,,,
,,,,,,1,0,1,0,1,X V Q F H G B L J M P D K C T S W R N Z,604784025572562991fa9638,27,Kobieta,2022-06-11_09h30.32.012,task,2021.1.4,Win32,120.0624325,6299f149e92ead563fba08ef,62a4447bb786af9384ba2280,,,,,,,,,,,,,,,,,,,,,,,,,,,,,,,,,,,,,,,,,,,,,,,,,,,,,,,,,,,,,,,,,,,,,,,,,,,,,,,,,,,,,,,,,,,,,,,,,,,,,
,,,,,,2,0,2,0,1,X V Q F H G B L J M P D K C T S W R N Z,604784025572562991fa9638,27,Kobieta,2022-06-11_09h30.32.012,task,2021.1.4,Win32,120.0624325,6299f149e92ead563fba08ef,62a4447bb786af9384ba2280,,,,,,,,,,,,,,,,,,,,,,,,,,,,,,,,,,,,,,,,,,,,,,,,,,,,,,,,,,,,,,,,,,,,,,,,,,,,,,,,,,,,,,,,,,,,,,,,,,,,,
,,,,,,3,0,3,0,1,X V Q F H G B L J M P D K C T S W R N Z,604784025572562991fa9638,27,Kobieta,2022-06-11_09h30.32.012,task,2021.1.4,Win32,120.0624325,6299f149e92ead563fba08ef,62a4447bb786af9384ba2280,,,,,,,,,,,,,,,,,,,,,,,,,,,,,,,,,,,,,,,,,,,,,,,,,,,,,,,,,,,,,,,,,,,,,,,,,,,,,,,,,,,,,,,,,,,,,,,,,,,,,
,,,,,,4,0,4,0,1,X V Q F H G B L J M P D K C T S W R N Z,604784025572562991fa9638,27,Kobieta,2022-06-11_09h30.32.012,task,2021.1.4,Win32,120.0624325,6299f149e92ead563fba08ef,62a4447bb786af9384ba2280,,,,,,,,,,,,,,,,,,,,,,,,,,,,,,,,,,,,,,,,,,,,,,,,,,,,,,,,,,,,,,,,,,,,,,,,,,,,,,,,,,,,,,,,,,,,,,,,,,,,,
,,,,,,5,0,5,0,1,X V Q F H G B L J M P D K C T S W R N Z,604784025572562991fa9638,27,Kobieta,2022-06-11_09h30.32.012,task,2021.1.4,Win32,120.0624325,6299f149e92ead563fba08ef,62a4447bb786af9384ba2280,,,,,,,,,,,,,,,,,,,,,,,,,,,,,,,,,,,,,,,,,,,,,,,,,,,,,,,,,,,,,,,,,,,,,,,,,,,,,,,,,,,,,,,,,,,,,,,,,,,,,
,,,,,,,,,,,,604784025572562991fa9638,27,Kobieta,2022-06-11_09h30.32.012,task,2021.1.4,Win32,120.0624325,6299f149e92ead563fba08ef,62a4447bb786af9384ba2280,hrgwws,"[""h"",""r"",""g"",""w"",""w"",""s""]","[0.9220999999046171,1.3171999998092758,1.5753999998569554,1.8778999998569361,2.0132999999523236,2.200099999904637,2.485500000000002]",1,HRGWWS,10,0,10,0,1,,,,,,,,,,,,,,,,,,,,,,,,,,,,,,,,,,,,,,,,,,,,,,,,,,,,,,,,,,,,,,,,,,,,,,,,,,,,,,,,,,,,,,,,,,,
,,,,,,0,0,0,0,1,X V Q F H G B L J M P D K C T S W R N Z,604784025572562991fa9638,27,Kobieta,2022-06-11_09h30.32.012,task,2021.1.4,Win32,120.0624325,6299f149e92ead563fba08ef,62a4447bb786af9384ba2280,,,,,,,,,,,,,,,,,,,,,,,,,,,,,,,,,,,,,,,,,,,,,,,,,,,,,,,,,,,,,,,,,,,,,,,,,,,,,,,,,,,,,,,,,,,,,,,,,,,,,
,,,,,,1,0,1,0,1,X V Q F H G B L J M P D K C T S W R N Z,604784025572562991fa9638,27,Kobieta,2022-06-11_09h30.32.012,task,2021.1.4,Win32,120.0624325,6299f149e92ead563fba08ef,62a4447bb786af9384ba2280,,,,,,,,,,,,,,,,,,,,,,,,,,,,,,,,,,,,,,,,,,,,,,,,,,,,,,,,,,,,,,,,,,,,,,,,,,,,,,,,,,,,,,,,,,,,,,,,,,,,,
,,,,,,2,0,2,0,1,X V Q F H G B L J M P D K C T S W R N Z,604784025572562991fa9638,27,Kobieta,2022-06-11_09h30.32.012,task,2021.1.4,Win32,120.0624325,6299f149e92ead563fba08ef,62a4447bb786af9384ba2280,,,,,,,,,,,,,,,,,,,,,,,,,,,,,,,,,,,,,,,,,,,,,,,,,,,,,,,,,,,,,,,,,,,,,,,,,,,,,,,,,,,,,,,,,,,,,,,,,,,,,
,,,,,,3,0,3,0,1,X V Q F H G B L J M P D K C T S W R N Z,604784025572562991fa9638,27,Kobieta,2022-06-11_09h30.32.012,task,2021.1.4,Win32,120.0624325,6299f149e92ead563fba08ef,62a4447bb786af9384ba2280,,,,,,,,,,,,,,,,,,,,,,,,,,,,,,,,,,,,,,,,,,,,,,,,,,,,,,,,,,,,,,,,,,,,,,,,,,,,,,,,,,,,,,,,,,,,,,,,,,,,,
,,,,,,4,0,4,0,1,X V Q F H G B L J M P D K C T S W R N Z,604784025572562991fa9638,27,Kobieta,2022-06-11_09h30.32.012,task,2021.1.4,Win32,120.0624325,6299f149e92ead563fba08ef,62a4447bb786af9384ba2280,,,,,,,,,,,,,,,,,,,,,,,,,,,,,,,,,,,,,,,,,,,,,,,,,,,,,,,,,,,,,,,,,,,,,,,,,,,,,,,,,,,,,,,,,,,,,,,,,,,,,
,,,,,,5,0,5,0,1,X V Q F H G B L J M P D K C T S W R N Z,604784025572562991fa9638,27,Kobieta,2022-06-11_09h30.32.012,task,2021.1.4,Win32,120.0624325,6299f149e92ead563fba08ef,62a4447bb786af9384ba2280,,,,,,,,,,,,,,,,,,,,,,,,,,,,,,,,,,,,,,,,,,,,,,,,,,,,,,,,,,,,,,,,,,,,,,,,,,,,,,,,,,,,,,,,,,,,,,,,,,,,,
,,,,,,6,0,6,0,1,X V Q F H G B L J M P D K C T S W R N Z,604784025572562991fa9638,27,Kobieta,2022-06-11_09h30.32.012,task,2021.1.4,Win32,120.0624325,6299f149e92ead563fba08ef,62a4447bb786af9384ba2280,,,,,,,,,,,,,,,,,,,,,,,,,,,,,,,,,,,,,,,,,,,,,,,,,,,,,,,,,,,,,,,,,,,,,,,,,,,,,,,,,,,,,,,,,,,,,,,,,,,,,
,,,,,,,,,,,,604784025572562991fa9638,27,Kobieta,2022-06-11_09h30.32.012,task,2021.1.4,Win32,120.0624325,6299f149e92ead563fba08ef,62a4447bb786af9384ba2280,tkjscdn,"[""t"",""k"",""j"",""s"",""c"",""d"",""n""]","[1.633400000095378,2.108400000095372,2.3922999999523142,3.5421000001430514,4.079200000047678,4.55670000004767,5.336799999952319,5.631499999999988]",1,TKJSCDN,11,0,11,0,1,,,,,,,,,,,,,,,,,,,,,,,,,,,,,,,,,,,,,,,,,,,,,,,,,,,,,,,,,,,,,,,,,,,,,,,,,,,,,,,,,,,,,,,,,,,
,,,,,,0,0,0,0,1,X V Q F H G B L J M P D K C T S W R N Z,604784025572562991fa9638,27,Kobieta,2022-06-11_09h30.32.012,task,2021.1.4,Win32,120.0624325,6299f149e92ead563fba08ef,62a4447bb786af9384ba2280,,,,,,,,,,,,,,,,,,,,,,,,,,,,,,,,,,,,,,,,,,,,,,,,,,,,,,,,,,,,,,,,,,,,,,,,,,,,,,,,,,,,,,,,,,,,,,,,,,,,,
,,,,,,1,0,1,0,1,X V Q F H G B L J M P D K C T S W R N Z,604784025572562991fa9638,27,Kobieta,2022-06-11_09h30.32.012,task,2021.1.4,Win32,120.0624325,6299f149e92ead563fba08ef,62a4447bb786af9384ba2280,,,,,,,,,,,,,,,,,,,,,,,,,,,,,,,,,,,,,,,,,,,,,,,,,,,,,,,,,,,,,,,,,,,,,,,,,,,,,,,,,,,,,,,,,,,,,,,,,,,,,
,,,,,,2,0,2,0,1,X V Q F H G B L J M P D K C T S W R N Z,604784025572562991fa9638,27,Kobieta,2022-06-11_09h30.32.012,task,2021.1.4,Win32,120.0624325,6299f149e92ead563fba08ef,62a4447bb786af9384ba2280,,,,,,,,,,,,,,,,,,,,,,,,,,,,,,,,,,,,,,,,,,,,,,,,,,,,,,,,,,,,,,,,,,,,,,,,,,,,,,,,,,,,,,,,,,,,,,,,,,,,,
,,,,,,3,0,3,0,1,X V Q F H G B L J M P D K C T S W R N Z,604784025572562991fa9638,27,Kobieta,2022-06-11_09h30.32.012,task,2021.1.4,Win32,120.0624325,6299f149e92ead563fba08ef,62a4447bb786af9384ba2280,,,,,,,,,,,,,,,,,,,,,,,,,,,,,,,,,,,,,,,,,,,,,,,,,,,,,,,,,,,,,,,,,,,,,,,,,,,,,,,,,,,,,,,,,,,,,,,,,,,,,
,,,,,,4,0,4,0,1,X V Q F H G B L J M P D K C T S W R N Z,604784025572562991fa9638,27,Kobieta,2022-06-11_09h30.32.012,task,2021.1.4,Win32,120.0624325,6299f149e92ead563fba08ef,62a4447bb786af9384ba2280,,,,,,,,,,,,,,,,,,,,,,,,,,,,,,,,,,,,,,,,,,,,,,,,,,,,,,,,,,,,,,,,,,,,,,,,,,,,,,,,,,,,,,,,,,,,,,,,,,,,,
,,,,,,5,0,5,0,1,X V Q F H G B L J M P D K C T S W R N Z,604784025572562991fa9638,27,Kobieta,2022-06-11_09h30.32.012,task,2021.1.4,Win32,120.0624325,6299f149e92ead563fba08ef,62a4447bb786af9384ba2280,,,,,,,,,,,,,,,,,,,,,,,,,,,,,,,,,,,,,,,,,,,,,,,,,,,,,,,,,,,,,,,,,,,,,,,,,,,,,,,,,,,,,,,,,,,,,,,,,,,,,
,,,,,,6,0,6,0,1,X V Q F H G B L J M P D K C T S W R N Z,604784025572562991fa9638,27,Kobieta,2022-06-11_09h30.32.012,task,2021.1.4,Win32,120.0624325,6299f149e92ead563fba08ef,62a4447bb786af9384ba2280,,,,,,,,,,,,,,,,,,,,,,,,,,,,,,,,,,,,,,,,,,,,,,,,,,,,,,,,,,,,,,,,,,,,,,,,,,,,,,,,,,,,,,,,,,,,,,,,,,,,,
,,,,,,,,,,,,604784025572562991fa9638,27,Kobieta,2022-06-11_09h30.32.012,task,2021.1.4,Win32,120.0624325,6299f149e92ead563fba08ef,62a4447bb786af9384ba2280,qxqrcx,"[""q"",""x"",""q"",""r"",""c"",""x""]","[3.9926000001430566,5.467100000143034,6.256700000047687,6.657799999952317,6.927600000143059,7.243299999952313,7.582400000095362]",0,QXQRCXD,12,0,12,0,1,,,,,,,,,,,,,,,,,,,,,,,,,,,,,,,,,,,,,,,,,,,,,,,,,,,,,,,,,,,,,,,,,,,,,,,,,,,,,,,,,,,,,,,,,,,
,,,,,,0,0,0,0,1,X V Q F H G B L J M P D K C T S W R N Z,604784025572562991fa9638,27,Kobieta,2022-06-11_09h30.32.012,task,2021.1.4,Win32,120.0624325,6299f149e92ead563fba08ef,62a4447bb786af9384ba2280,,,,,,,,,,,,,,,,,,,,,,,,,,,,,,,,,,,,,,,,,,,,,,,,,,,,,,,,,,,,,,,,,,,,,,,,,,,,,,,,,,,,,,,,,,,,,,,,,,,,,
,,,,,,1,0,1,0,1,X V Q F H G B L J M P D K C T S W R N Z,604784025572562991fa9638,27,Kobieta,2022-06-11_09h30.32.012,task,2021.1.4,Win32,120.0624325,6299f149e92ead563fba08ef,62a4447bb786af9384ba2280,,,,,,,,,,,,,,,,,,,,,,,,,,,,,,,,,,,,,,,,,,,,,,,,,,,,,,,,,,,,,,,,,,,,,,,,,,,,,,,,,,,,,,,,,,,,,,,,,,,,,
,,,,,,2,0,2,0,1,X V Q F H G B L J M P D K C T S W R N Z,604784025572562991fa9638,27,Kobieta,2022-06-11_09h30.32.012,task,2021.1.4,Win32,120.0624325,6299f149e92ead563fba08ef,62a4447bb786af9384ba2280,,,,,,,,,,,,,,,,,,,,,,,,,,,,,,,,,,,,,,,,,,,,,,,,,,,,,,,,,,,,,,,,,,,,,,,,,,,,,,,,,,,,,,,,,,,,,,,,,,,,,
,,,,,,3,0,3,0,1,X V Q F H G B L J M P D K C T S W R N Z,604784025572562991fa9638,27,Kobieta,2022-06-11_09h30.32.012,task,2021.1.4,Win32,120.0624325,6299f149e92ead563fba08ef,62a4447bb786af9384ba2280,,,,,,,,,,,,,,,,,,,,,,,,,,,,,,,,,,,,,,,,,,,,,,,,,,,,,,,,,,,,,,,,,,,,,,,,,,,,,,,,,,,,,,,,,,,,,,,,,,,,,
,,,,,,4,0,4,0,1,X V Q F H G B L J M P D K C T S W R N Z,604784025572562991fa9638,27,Kobieta,2022-06-11_09h30.32.012,task,2021.1.4,Win32,120.0624325,6299f149e92ead563fba08ef,62a4447bb786af9384ba2280,,,,,,,,,,,,,,,,,,,,,,,,,,,,,,,,,,,,,,,,,,,,,,,,,,,,,,,,,,,,,,,,,,,,,,,,,,,,,,,,,,,,,,,,,,,,,,,,,,,,,
,,,,,,5,0,5,0,1,X V Q F H G B L J M P D K C T S W R N Z,604784025572562991fa9638,27,Kobieta,2022-06-11_09h30.32.012,task,2021.1.4,Win32,120.0624325,6299f149e92ead563fba08ef,62a4447bb786af9384ba2280,,,,,,,,,,,,,,,,,,,,,,,,,,,,,,,,,,,,,,,,,,,,,,,,,,,,,,,,,,,,,,,,,,,,,,,,,,,,,,,,,,,,,,,,,,,,,,,,,,,,,
,,,,,,6,0,6,0,1,X V Q F H G B L J M P D K C T S W R N Z,604784025572562991fa9638,27,Kobieta,2022-06-11_09h30.32.012,task,2021.1.4,Win32,120.0624325,6299f149e92ead563fba08ef,62a4447bb786af9384ba2280,,,,,,,,,,,,,,,,,,,,,,,,,,,,,,,,,,,,,,,,,,,,,,,,,,,,,,,,,,,,,,,,,,,,,,,,,,,,,,,,,,,,,,,,,,,,,,,,,,,,,
,,,,,,,,,,,,604784025572562991fa9638,27,Kobieta,2022-06-11_09h30.32.012,task,2021.1.4,Win32,120.0624325,6299f149e92ead563fba08ef,62a4447bb786af9384ba2280,bkfsplk,"[""b"",""k"",""f"",""s"",""p"",""l"",""k""]","[1.959299999952293,2.3079000000953442,2.7039000000953592,3.032900000095367,3.6907999999523042,3.990700000047667,4.45770000004768,4.708299999952317]",1,BKFSPLK,13,0,13,0,1,,,,,,,,,,,,,,,,,,,,,,,,,,,,,,,,,,,,,,,,,,,,,,,,,,,,,,,,,,,,,,,,,,,,,,,,,,,,,,,,,,,,,,,,,,,
,,,,,,0,0,0,0,1,X V Q F H G B L J M P D K C T S W R N Z,604784025572562991fa9638,27,Kobieta,2022-06-11_09h30.32.012,task,2021.1.4,Win32,120.0624325,6299f149e92ead563fba08ef,62a4447bb786af9384ba2280,,,,,,,,,,,,,,,,,,,,,,,,,,,,,,,,,,,,,,,,,,,,,,,,,,,,,,,,,,,,,,,,,,,,,,,,,,,,,,,,,,,,,,,,,,,,,,,,,,,,,
,,,,,,1,0,1,0,1,X V Q F H G B L J M P D K C T S W R N Z,604784025572562991fa9638,27,Kobieta,2022-06-11_09h30.32.012,task,2021.1.4,Win32,120.0624325,6299f149e92ead563fba08ef,62a4447bb786af9384ba2280,,,,,,,,,,,,,,,,,,,,,,,,,,,,,,,,,,,,,,,,,,,,,,,,,,,,,,,,,,,,,,,,,,,,,,,,,,,,,,,,,,,,,,,,,,,,,,,,,,,,,
,,,,,,2,0,2,0,1,X V Q F H G B L J M P D K C T S W R N Z,604784025572562991fa9638,27,Kobieta,2022-06-11_09h30.32.012,task,2021.1.4,Win32,120.0624325,6299f149e92ead563fba08ef,62a4447bb786af9384ba2280,,,,,,,,,,,,,,,,,,,,,,,,,,,,,,,,,,,,,,,,,,,,,,,,,,,,,,,,,,,,,,,,,,,,,,,,,,,,,,,,,,,,,,,,,,,,,,,,,,,,,
,,,,,,3,0,3,0,1,X V Q F H G B L J M P D K C T S W R N Z,604784025572562991fa9638,27,Kobieta,2022-06-11_09h30.32.012,task,2021.1.4,Win32,120.0624325,6299f149e92ead563fba08ef,62a4447bb786af9384ba2280,,,,,,,,,,,,,,,,,,,,,,,,,,,,,,,,,,,,,,,,,,,,,,,,,,,,,,,,,,,,,,,,,,,,,,,,,,,,,,,,,,,,,,,,,,,,,,,,,,,,,
,,,,,,4,0,4,0,1,X V Q F H G B L J M P D K C T S W R N Z,604784025572562991fa9638,27,Kobieta,2022-06-11_09h30.32.012,task,2021.1.4,Win32,120.0624325,6299f149e92ead563fba08ef,62a4447bb786af9384ba2280,,,,,,,,,,,,,,,,,,,,,,,,,,,,,,,,,,,,,,,,,,,,,,,,,,,,,,,,,,,,,,,,,,,,,,,,,,,,,,,,,,,,,,,,,,,,,,,,,,,,,
,,,,,,5,0,5,0,1,X V Q F H G B L J M P D K C T S W R N Z,604784025572562991fa9638,27,Kobieta,2022-06-11_09h30.32.012,task,2021.1.4,Win32,120.0624325,6299f149e92ead563fba08ef,62a4447bb786af9384ba2280,,,,,,,,,,,,,,,,,,,,,,,,,,,,,,,,,,,,,,,,,,,,,,,,,,,,,,,,,,,,,,,,,,,,,,,,,,,,,,,,,,,,,,,,,,,,,,,,,,,,,
,,,,,,6,0,6,0,1,X V Q F H G B L J M P D K C T S W R N Z,604784025572562991fa9638,27,Kobieta,2022-06-11_09h30.32.012,task,2021.1.4,Win32,120.0624325,6299f149e92ead563fba08ef,62a4447bb786af9384ba2280,,,,,,,,,,,,,,,,,,,,,,,,,,,,,,,,,,,,,,,,,,,,,,,,,,,,,,,,,,,,,,,,,,,,,,,,,,,,,,,,,,,,,,,,,,,,,,,,,,,,,
,,,,,,7,0,7,0,1,X V Q F H G B L J M P D K C T S W R N Z,604784025572562991fa9638,27,Kobieta,2022-06-11_09h30.32.012,task,2021.1.4,Win32,120.0624325,6299f149e92ead563fba08ef,62a4447bb786af9384ba2280,,,,,,,,,,,,,,,,,,,,,,,,,,,,,,,,,,,,,,,,,,,,,,,,,,,,,,,,,,,,,,,,,,,,,,,,,,,,,,,,,,,,,,,,,,,,,,,,,,,,,
,,,,,,,,,,,,604784025572562991fa9638,27,Kobieta,2022-06-11_09h30.32.012,task,2021.1.4,Win32,120.0624325,6299f149e92ead563fba08ef,62a4447bb786af9384ba2280,msgsjgxg,"[""m"",""s"",""g"",""s"",""j"",""g"",""x"",""g""]","[1.200299999952307,1.6359999999999957,2.11909999990462,2.949799999952319,3.201099999904642,3.7847000000476783,5.141999999999996,6.533200000047685,7.244700000047686]",0,MSGSJGXV,14,0,14,0,1,,,,,,,,,,,,,,,,,,,,,,,,,,,,,,,,,,,,,,,,,,,,,,,,,,,,,,,,,,,,,,,,,,,,,,,,,,,,,,,,,,,,,,,,,,,
,,,,,,0,0,0,0,1,X V Q F H G B L J M P D K C T S W R N Z,604784025572562991fa9638,27,Kobieta,2022-06-11_09h30.32.012,task,2021.1.4,Win32,120.0624325,6299f149e92ead563fba08ef,62a4447bb786af9384ba2280,,,,,,,,,,,,,,,,,,,,,,,,,,,,,,,,,,,,,,,,,,,,,,,,,,,,,,,,,,,,,,,,,,,,,,,,,,,,,,,,,,,,,,,,,,,,,,,,,,,,,
,,,,,,1,0,1,0,1,X V Q F H G B L J M P D K C T S W R N Z,604784025572562991fa9638,27,Kobieta,2022-06-11_09h30.32.012,task,2021.1.4,Win32,120.0624325,6299f149e92ead563fba08ef,62a4447bb786af9384ba2280,,,,,,,,,,,,,,,,,,,,,,,,,,,,,,,,,,,,,,,,,,,,,,,,,,,,,,,,,,,,,,,,,,,,,,,,,,,,,,,,,,,,,,,,,,,,,,,,,,,,,
,,,,,,2,0,2,0,1,X V Q F H G B L J M P D K C T S W R N Z,604784025572562991fa9638,27,Kobieta,2022-06-11_09h30.32.012,task,2021.1.4,Win32,120.0624325,6299f149e92ead563fba08ef,62a4447bb786af9384ba2280,,,,,,,,,,,,,,,,,,,,,,,,,,,,,,,,,,,,,,,,,,,,,,,,,,,,,,,,,,,,,,,,,,,,,,,,,,,,,,,,,,,,,,,,,,,,,,,,,,,,,
,,,,,,3,0,3,0,1,X V Q F H G B L J M P D K C T S W R N Z,604784025572562991fa9638,27,Kobieta,2022-06-11_09h30.32.012,task,2021.1.4,Win32,120.0624325,6299f149e92ead563fba08ef,62a4447bb786af9384ba2280,,,,,,,,,,,,,,,,,,,,,,,,,,,,,,,,,,,,,,,,,,,,,,,,,,,,,,,,,,,,,,,,,,,,,,,,,,,,,,,,,,,,,,,,,,,,,,,,,,,,,
,,,,,,4,0,4,0,1,X V Q F H G B L J M P D K C T S W R N Z,604784025572562991fa9638,27,Kobieta,2022-06-11_09h30.32.012,task,2021.1.4,Win32,120.0624325,6299f149e92ead563fba08ef,62a4447bb786af9384ba2280,,,,,,,,,,,,,,,,,,,,,,,,,,,,,,,,,,,,,,,,,,,,,,,,,,,,,,,,,,,,,,,,,,,,,,,,,,,,,,,,,,,,,,,,,,,,,,,,,,,,,
,,,,,,5,0,5,0,1,X V Q F H G B L J M P D K C T S W R N Z,604784025572562991fa9638,27,Kobieta,2022-06-11_09h30.32.012,task,2021.1.4,Win32,120.0624325,6299f149e92ead563fba08ef,62a4447bb786af9384ba2280,,,,,,,,,,,,,,,,,,,,,,,,,,,,,,,,,,,,,,,,,,,,,,,,,,,,,,,,,,,,,,,,,,,,,,,,,,,,,,,,,,,,,,,,,,,,,,,,,,,,,
,,,,,,6,0,6,0,1,X V Q F H G B L J M P D K C T S W R N Z,604784025572562991fa9638,27,Kobieta,2022-06-11_09h30.32.012,task,2021.1.4,Win32,120.0624325,6299f149e92ead563fba08ef,62a4447bb786af9384ba2280,,,,,,,,,,,,,,,,,,,,,,,,,,,,,,,,,,,,,,,,,,,,,,,,,,,,,,,,,,,,,,,,,,,,,,,,,,,,,,,,,,,,,,,,,,,,,,,,,,,,,
,,,,,,7,0,7,0,1,X V Q F H G B L J M P D K C T S W R N Z,604784025572562991fa9638,27,Kobieta,2022-06-11_09h30.32.012,task,2021.1.4,Win32,120.0624325,6299f149e92ead563fba08ef,62a4447bb786af9384ba2280,,,,,,,,,,,,,,,,,,,,,,,,,,,,,,,,,,,,,,,,,,,,,,,,,,,,,,,,,,,,,,,,,,,,,,,,,,,,,,,,,,,,,,,,,,,,,,,,,,,,,
,,,,,,,,,,,,604784025572562991fa9638,27,Kobieta,2022-06-11_09h30.32.012,task,2021.1.4,Win32,120.0624325,6299f149e92ead563fba08ef,62a4447bb786af9384ba2280,blkjrxq,"[""b"",""l"",""k"",""j"",""r"",""x"",""q""]","[1.900100000143027,2.2249999999999943,2.5041000001430405,2.859700000047667,3.891600000143029,4.127300000190729,5.290300000190712,5.615300000190729]",0,BLJKRXQD,15,0,15,0,1,,,,,,,,,,,,,,,,,,,,,,,,,,,,,,,,,,,,,,,,,,,,,,,,,,,,,,,,,,,,,,,,,,,,,,,,,,,,,,,,,,,,,,,,,,,
,,,,,,0,0,0,0,1,X V Q F H G B L J M P D K C T S W R N Z,604784025572562991fa9638,27,Kobieta,2022-06-11_09h30.32.012,task,2021.1.4,Win32,120.0624325,6299f149e92ead563fba08ef,62a4447bb786af9384ba2280,,,,,,,,,,,,,,,,,,,,,,,,,,,,,,,,,,,,,,,,,,,,,,,,,,,,,,,,,,,,,,,,,,,,,,,,,,,,,,,,,,,,,,,,,,,,,,,,,,,,,
,,,,,,1,0,1,0,1,X V Q F H G B L J M P D K C T S W R N Z,604784025572562991fa9638,27,Kobieta,2022-06-11_09h30.32.012,task,2021.1.4,Win32,120.0624325,6299f149e92ead563fba08ef,62a4447bb786af9384ba2280,,,,,,,,,,,,,,,,,,,,,,,,,,,,,,,,,,,,,,,,,,,,,,,,,,,,,,,,,,,,,,,,,,,,,,,,,,,,,,,,,,,,,,,,,,,,,,,,,,,,,
,,,,,,2,0,2,0,1,X V Q F H G B L J M P D K C T S W R N Z,604784025572562991fa9638,27,Kobieta,2022-06-11_09h30.32.012,task,2021.1.4,Win32,120.0624325,6299f149e92ead563fba08ef,62a4447bb786af9384ba2280,,,,,,,,,,,,,,,,,,,,,,,,,,,,,,,,,,,,,,,,,,,,,,,,,,,,,,,,,,,,,,,,,,,,,,,,,,,,,,,,,,,,,,,,,,,,,,,,,,,,,
,,,,,,3,0,3,0,1,X V Q F H G B L J M P D K C T S W R N Z,604784025572562991fa9638,27,Kobieta,2022-06-11_09h30.32.012,task,2021.1.4,Win32,120.0624325,6299f149e92ead563fba08ef,62a4447bb786af9384ba2280,,,,,,,,,,,,,,,,,,,,,,,,,,,,,,,,,,,,,,,,,,,,,,,,,,,,,,,,,,,,,,,,,,,,,,,,,,,,,,,,,,,,,,,,,,,,,,,,,,,,,
,,,,,,4,0,4,0,1,X V Q F H G B L J M P D K C T S W R N Z,604784025572562991fa9638,27,Kobieta,2022-06-11_09h30.32.012,task,2021.1.4,Win32,120.0624325,6299f149e92ead563fba08ef,62a4447bb786af9384ba2280,,,,,,,,,,,,,,,,,,,,,,,,,,,,,,,,,,,,,,,,,,,,,,,,,,,,,,,,,,,,,,,,,,,,,,,,,,,,,,,,,,,,,,,,,,,,,,,,,,,,,
,,,,,,5,0,5,0,1,X V Q F H G B L J M P D K C T S W R N Z,604784025572562991fa9638,27,Kobieta,2022-06-11_09h30.32.012,task,2021.1.4,Win32,120.0624325,6299f149e92ead563fba08ef,62a4447bb786af9384ba2280,,,,,,,,,,,,,,,,,,,,,,,,,,,,,,,,,,,,,,,,,,,,,,,,,,,,,,,,,,,,,,,,,,,,,,,,,,,,,,,,,,,,,,,,,,,,,,,,,,,,,
,,,,,,6,0,6,0,1,X V Q F H G B L J M P D K C T S W R N Z,604784025572562991fa9638,27,Kobieta,2022-06-11_09h30.32.012,task,2021.1.4,Win32,120.0624325,6299f149e92ead563fba08ef,62a4447bb786af9384ba2280,,,,,,,,,,,,,,,,,,,,,,,,,,,,,,,,,,,,,,,,,,,,,,,,,,,,,,,,,,,,,,,,,,,,,,,,,,,,,,,,,,,,,,,,,,,,,,,,,,,,,
,,,,,,7,0,7,0,1,X V Q F H G B L J M P D K C T S W R N Z,604784025572562991fa9638,27,Kobieta,2022-06-11_09h30.32.012,task,2021.1.4,Win32,120.0624325,6299f149e92ead563fba08ef,62a4447bb786af9384ba2280,,,,,,,,,,,,,,,,,,,,,,,,,,,,,,,,,,,,,,,,,,,,,,,,,,,,,,,,,,,,,,,,,,,,,,,,,,,,,,,,,,,,,,,,,,,,,,,,,,,,,
,,,,,,,,,,,,604784025572562991fa9638,27,Kobieta,2022-06-11_09h30.32.012,task,2021.1.4,Win32,120.0624325,6299f149e92ead563fba08ef,62a4447bb786af9384ba2280,zbztpdqv,"[""z"",""b"",""z"",""t"",""p"",""d"",""q"",""v""]","[1.4095999999046285,1.637700000047687,1.8837999999523163,2.5587999999523277,2.83270000004768,3.1922999999523256,3.7075000000000102,4.415500000000009,4.686099999904627]",1,ZBZTPDQV,16,0,16,0,1,,,,,,,,,,,,,,,,,,,,,,,,,,,,,,,,,,,,,,,,,,,,,,,,,,,,,,,,,,,,,,,,,,,,,,,,,,,,,,,,,,,,,,,,,,,
,,,,,,0,0,0,0,1,X V Q F H G B L J M P D K C T S W R N Z,604784025572562991fa9638,27,Kobieta,2022-06-11_09h30.32.012,task,2021.1.4,Win32,120.0624325,6299f149e92ead563fba08ef,62a4447bb786af9384ba2280,,,,,,,,,,,,,,,,,,,,,,,,,,,,,,,,,,,,,,,,,,,,,,,,,,,,,,,,,,,,,,,,,,,,,,,,,,,,,,,,,,,,,,,,,,,,,,,,,,,,,
,,,,,,1,0,1,0,1,X V Q F H G B L J M P D K C T S W R N Z,604784025572562991fa9638,27,Kobieta,2022-06-11_09h30.32.012,task,2021.1.4,Win32,120.0624325,6299f149e92ead563fba08ef,62a4447bb786af9384ba2280,,,,,,,,,,,,,,,,,,,,,,,,,,,,,,,,,,,,,,,,,,,,,,,,,,,,,,,,,,,,,,,,,,,,,,,,,,,,,,,,,,,,,,,,,,,,,,,,,,,,,
,,,,,,2,0,2,0,1,X V Q F H G B L J M P D K C T S W R N Z,604784025572562991fa9638,27,Kobieta,2022-06-11_09h30.32.012,task,2021.1.4,Win32,120.0624325,6299f149e92ead563fba08ef,62a4447bb786af9384ba2280,,,,,,,,,,,,,,,,,,,,,,,,,,,,,,,,,,,,,,,,,,,,,,,,,,,,,,,,,,,,,,,,,,,,,,,,,,,,,,,,,,,,,,,,,,,,,,,,,,,,,
,,,,,,3,0,3,0,1,X V Q F H G B L J M P D K C T S W R N Z,604784025572562991fa9638,27,Kobieta,2022-06-11_09h30.32.012,task,2021.1.4,Win32,120.0624325,6299f149e92ead563fba08ef,62a4447bb786af9384ba2280,,,,,,,,,,,,,,,,,,,,,,,,,,,,,,,,,,,,,,,,,,,,,,,,,,,,,,,,,,,,,,,,,,,,,,,,,,,,,,,,,,,,,,,,,,,,,,,,,,,,,
,,,,,,4,0,4,0,1,X V Q F H G B L J M P D K C T S W R N Z,604784025572562991fa9638,27,Kobieta,2022-06-11_09h30.32.012,task,2021.1.4,Win32,120.0624325,6299f149e92ead563fba08ef,62a4447bb786af9384ba2280,,,,,,,,,,,,,,,,,,,,,,,,,,,,,,,,,,,,,,,,,,,,,,,,,,,,,,,,,,,,,,,,,,,,,,,,,,,,,,,,,,,,,,,,,,,,,,,,,,,,,
,,,,,,5,0,5,0,1,X V Q F H G B L J M P D K C T S W R N Z,604784025572562991fa9638,27,Kobieta,2022-06-11_09h30.32.012,task,2021.1.4,Win32,120.0624325,6299f149e92ead563fba08ef,62a4447bb786af9384ba2280,,,,,,,,,,,,,,,,,,,,,,,,,,,,,,,,,,,,,,,,,,,,,,,,,,,,,,,,,,,,,,,,,,,,,,,,,,,,,,,,,,,,,,,,,,,,,,,,,,,,,
,,,,,,6,0,6,0,1,X V Q F H G B L J M P D K C T S W R N Z,604784025572562991fa9638,27,Kobieta,2022-06-11_09h30.32.012,task,2021.1.4,Win32,120.0624325,6299f149e92ead563fba08ef,62a4447bb786af9384ba2280,,,,,,,,,,,,,,,,,,,,,,,,,,,,,,,,,,,,,,,,,,,,,,,,,,,,,,,,,,,,,,,,,,,,,,,,,,,,,,,,,,,,,,,,,,,,,,,,,,,,,
,,,,,,7,0,7,0,1,X V Q F H G B L J M P D K C T S W R N Z,604784025572562991fa9638,27,Kobieta,2022-06-11_09h30.32.012,task,2021.1.4,Win32,120.0624325,6299f149e92ead563fba08ef,62a4447bb786af9384ba2280,,,,,,,,,,,,,,,,,,,,,,,,,,,,,,,,,,,,,,,,,,,,,,,,,,,,,,,,,,,,,,,,,,,,,,,,,,,,,,,,,,,,,,,,,,,,,,,,,,,,,
,,,,,,,,,,,,604784025572562991fa9638,27,Kobieta,2022-06-11_09h30.32.012,task,2021.1.4,Win32,120.0624325,6299f149e92ead563fba08ef,62a4447bb786af9384ba2280,ddmjxkwt,"[""d"",""d"",""m"",""j"",""x"",""k"",""w"",""t""]","[1.0192999999522954,1.141600000143029,1.33290000009535,1.675400000095351,2.3004999999999995,2.7424000000953583,4.317299999952297,4.5154999999999745,5.723400000095353]",1,DDMJXKWT,17,0,17,0,1,,,,,,,,,,,,,,,,,,,,,,,,,,,,,,,,,,,,,,,,,,,,,,,,,,,,,,,,,,,,,,,,,,,,,,,,,,,,,,,,,,,,,,,,,,,
,,,,,,0,0,0,0,1,X V Q F H G B L J M P D K C T S W R N Z,604784025572562991fa9638,27,Kobieta,2022-06-11_09h30.32.012,task,2021.1.4,Win32,120.0624325,6299f149e92ead563fba08ef,62a4447bb786af9384ba2280,,,,,,,,,,,,,,,,,,,,,,,,,,,,,,,,,,,,,,,,,,,,,,,,,,,,,,,,,,,,,,,,,,,,,,,,,,,,,,,,,,,,,,,,,,,,,,,,,,,,,
,,,,,,1,0,1,0,1,X V Q F H G B L J M P D K C T S W R N Z,604784025572562991fa9638,27,Kobieta,2022-06-11_09h30.32.012,task,2021.1.4,Win32,120.0624325,6299f149e92ead563fba08ef,62a4447bb786af9384ba2280,,,,,,,,,,,,,,,,,,,,,,,,,,,,,,,,,,,,,,,,,,,,,,,,,,,,,,,,,,,,,,,,,,,,,,,,,,,,,,,,,,,,,,,,,,,,,,,,,,,,,
,,,,,,2,0,2,0,1,X V Q F H G B L J M P D K C T S W R N Z,604784025572562991fa9638,27,Kobieta,2022-06-11_09h30.32.012,task,2021.1.4,Win32,120.0624325,6299f149e92ead563fba08ef,62a4447bb786af9384ba2280,,,,,,,,,,,,,,,,,,,,,,,,,,,,,,,,,,,,,,,,,,,,,,,,,,,,,,,,,,,,,,,,,,,,,,,,,,,,,,,,,,,,,,,,,,,,,,,,,,,,,
,,,,,,3,0,3,0,1,X V Q F H G B L J M P D K C T S W R N Z,604784025572562991fa9638,27,Kobieta,2022-06-11_09h30.32.012,task,2021.1.4,Win32,120.0624325,6299f149e92ead563fba08ef,62a4447bb786af9384ba2280,,,,,,,,,,,,,,,,,,,,,,,,,,,,,,,,,,,,,,,,,,,,,,,,,,,,,,,,,,,,,,,,,,,,,,,,,,,,,,,,,,,,,,,,,,,,,,,,,,,,,
,,,,,,4,0,4,0,1,X V Q F H G B L J M P D K C T S W R N Z,604784025572562991fa9638,27,Kobieta,2022-06-11_09h30.32.012,task,2021.1.4,Win32,120.0624325,6299f149e92ead563fba08ef,62a4447bb786af9384ba2280,,,,,,,,,,,,,,,,,,,,,,,,,,,,,,,,,,,,,,,,,,,,,,,,,,,,,,,,,,,,,,,,,,,,,,,,,,,,,,,,,,,,,,,,,,,,,,,,,,,,,
,,,,,,5,0,5,0,1,X V Q F H G B L J M P D K C T S W R N Z,604784025572562991fa9638,27,Kobieta,2022-06-11_09h30.32.012,task,2021.1.4,Win32,120.0624325,6299f149e92ead563fba08ef,62a4447bb786af9384ba2280,,,,,,,,,,,,,,,,,,,,,,,,,,,,,,,,,,,,,,,,,,,,,,,,,,,,,,,,,,,,,,,,,,,,,,,,,,,,,,,,,,,,,,,,,,,,,,,,,,,,,
,,,,,,6,0,6,0,1,X V Q F H G B L J M P D K C T S W R N Z,604784025572562991fa9638,27,Kobieta,2022-06-11_09h30.32.012,task,2021.1.4,Win32,120.0624325,6299f149e92ead563fba08ef,62a4447bb786af9384ba2280,,,,,,,,,,,,,,,,,,,,,,,,,,,,,,,,,,,,,,,,,,,,,,,,,,,,,,,,,,,,,,,,,,,,,,,,,,,,,,,,,,,,,,,,,,,,,,,,,,,,,
,,,,,,7,0,7,0,1,X V Q F H G B L J M P D K C T S W R N Z,604784025572562991fa9638,27,Kobieta,2022-06-11_09h30.32.012,task,2021.1.4,Win32,120.0624325,6299f149e92ead563fba08ef,62a4447bb786af9384ba2280,,,,,,,,,,,,,,,,,,,,,,,,,,,,,,,,,,,,,,,,,,,,,,,,,,,,,,,,,,,,,,,,,,,,,,,,,,,,,,,,,,,,,,,,,,,,,,,,,,,,,
,,,,,,8,0,8,0,1,X V Q F H G B L J M P D K C T S W R N Z,604784025572562991fa9638,27,Kobieta,2022-06-11_09h30.32.012,task,2021.1.4,Win32,120.0624325,6299f149e92ead563fba08ef,62a4447bb786af9384ba2280,,,,,,,,,,,,,,,,,,,,,,,,,,,,,,,,,,,,,,,,,,,,,,,,,,,,,,,,,,,,,,,,,,,,,,,,,,,,,,,,,,,,,,,,,,,,,,,,,,,,,
,,,,,,,,,,,,604784025572562991fa9638,27,Kobieta,2022-06-11_09h30.32.012,task,2021.1.4,Win32,120.0624325,6299f149e92ead563fba08ef,62a4447bb786af9384ba2280,bmnfthwb,"[""b"",""m"",""n"",""f"",""t"",""h"",""w"",""b""]","[1.1281999998092829,1.349899999856973,1.5465000000000373,2.6505000000000223,2.869599999904665,3.176099999904636,3.569699999809302,4.1180999999046435,4.399099999904649]",0,BMNFTHWFD,18,0,18,0,1,,,,,,,,,,,,,,,,,,,,,,,,,,,,,,,,,,,,,,,,,,,,,,,,,,,,,,,,,,,,,,,,,,,,,,,,,,,,,,,,,,,,,,,,,,,
,,,,,,0,0,0,0,1,X V Q F H G B L J M P D K C T S W R N Z,604784025572562991fa9638,27,Kobieta,2022-06-11_09h30.32.012,task,2021.1.4,Win32,120.0624325,6299f149e92ead563fba08ef,62a4447bb786af9384ba2280,,,,,,,,,,,,,,,,,,,,,,,,,,,,,,,,,,,,,,,,,,,,,,,,,,,,,,,,,,,,,,,,,,,,,,,,,,,,,,,,,,,,,,,,,,,,,,,,,,,,,
,,,,,,1,0,1,0,1,X V Q F H G B L J M P D K C T S W R N Z,604784025572562991fa9638,27,Kobieta,2022-06-11_09h30.32.012,task,2021.1.4,Win32,120.0624325,6299f149e92ead563fba08ef,62a4447bb786af9384ba2280,,,,,,,,,,,,,,,,,,,,,,,,,,,,,,,,,,,,,,,,,,,,,,,,,,,,,,,,,,,,,,,,,,,,,,,,,,,,,,,,,,,,,,,,,,,,,,,,,,,,,
,,,,,,2,0,2,0,1,X V Q F H G B L J M P D K C T S W R N Z,604784025572562991fa9638,27,Kobieta,2022-06-11_09h30.32.012,task,2021.1.4,Win32,120.0624325,6299f149e92ead563fba08ef,62a4447bb786af9384ba2280,,,,,,,,,,,,,,,,,,,,,,,,,,,,,,,,,,,,,,,,,,,,,,,,,,,,,,,,,,,,,,,,,,,,,,,,,,,,,,,,,,,,,,,,,,,,,,,,,,,,,
,,,,,,3,0,3,0,1,X V Q F H G B L J M P D K C T S W R N Z,604784025572562991fa9638,27,Kobieta,2022-06-11_09h30.32.012,task,2021.1.4,Win32,120.0624325,6299f149e92ead563fba08ef,62a4447bb786af9384ba2280,,,,,,,,,,,,,,,,,,,,,,,,,,,,,,,,,,,,,,,,,,,,,,,,,,,,,,,,,,,,,,,,,,,,,,,,,,,,,,,,,,,,,,,,,,,,,,,,,,,,,
,,,,,,4,0,4,0,1,X V Q F H G B L J M P D K C T S W R N Z,604784025572562991fa9638,27,Kobieta,2022-06-11_09h30.32.012,task,2021.1.4,Win32,120.0624325,6299f149e92ead563fba08ef,62a4447bb786af9384ba2280,,,,,,,,,,,,,,,,,,,,,,,,,,,,,,,,,,,,,,,,,,,,,,,,,,,,,,,,,,,,,,,,,,,,,,,,,,,,,,,,,,,,,,,,,,,,,,,,,,,,,
,,,,,,5,0,5,0,1,X V Q F H G B L J M P D K C T S W R N Z,604784025572562991fa9638,27,Kobieta,2022-06-11_09h30.32.012,task,2021.1.4,Win32,120.0624325,6299f149e92ead563fba08ef,62a4447bb786af9384ba2280,,,,,,,,,,,,,,,,,,,,,,,,,,,,,,,,,,,,,,,,,,,,,,,,,,,,,,,,,,,,,,,,,,,,,,,,,,,,,,,,,,,,,,,,,,,,,,,,,,,,,
,,,,,,6,0,6,0,1,X V Q F H G B L J M P D K C T S W R N Z,604784025572562991fa9638,27,Kobieta,2022-06-11_09h30.32.012,task,2021.1.4,Win32,120.0624325,6299f149e92ead563fba08ef,62a4447bb786af9384ba2280,,,,,,,,,,,,,,,,,,,,,,,,,,,,,,,,,,,,,,,,,,,,,,,,,,,,,,,,,,,,,,,,,,,,,,,,,,,,,,,,,,,,,,,,,,,,,,,,,,,,,
,,,,,,7,0,7,0,1,X V Q F H G B L J M P D K C T S W R N Z,604784025572562991fa9638,27,Kobieta,2022-06-11_09h30.32.012,task,2021.1.4,Win32,120.0624325,6299f149e92ead563fba08ef,62a4447bb786af9384ba2280,,,,,,,,,,,,,,,,,,,,,,,,,,,,,,,,,,,,,,,,,,,,,,,,,,,,,,,,,,,,,,,,,,,,,,,,,,,,,,,,,,,,,,,,,,,,,,,,,,,,,
,,,,,,8,0,8,0,1,X V Q F H G B L J M P D K C T S W R N Z,604784025572562991fa9638,27,Kobieta,2022-06-11_09h30.32.012,task,2021.1.4,Win32,120.0624325,6299f149e92ead563fba08ef,62a4447bb786af9384ba2280,,,,,,,,,,,,,,,,,,,,,,,,,,,,,,,,,,,,,,,,,,,,,,,,,,,,,,,,,,,,,,,,,,,,,,,,,,,,,,,,,,,,,,,,,,,,,,,,,,,,,
,,,,,,,,,,,,604784025572562991fa9638,27,Kobieta,2022-06-11_09h30.32.012,task,2021.1.4,Win32,120.0624325,6299f149e92ead563fba08ef,62a4447bb786af9384ba2280,qtpdvzqt,"[""q"",""t"",""p"",""d"",""v"",""z"",""q"",""t""]","[1.224999999999966,1.5500000000000114,1.8416000001430461,2.136100000143017,4.053400000095337,4.803100000143047,5.508700000047668,5.72010000014302,6.056900000095368]",0,QTPDVZFVB,19,0,19,0,1,,,,,,,,,,,,,,,,,,,,,,,,,,,,,,,,,,,,,,,,,,,,,,,,,,,,,,,,,,,,,,,,,,,,,,,,,,,,,,,,,,,,,,,,,,,
,,,,,,0,0,0,0,1,X V Q F H G B L J M P D K C T S W R N Z,604784025572562991fa9638,27,Kobieta,2022-06-11_09h30.32.012,task,2021.1.4,Win32,120.0624325,6299f149e92ead563fba08ef,62a4447bb786af9384ba2280,,,,,,,,,,,,,,,,,,,,,,,,,,,,,,,,,,,,,,,,,,,,,,,,,,,,,,,,,,,,,,,,,,,,,,,,,,,,,,,,,,,,,,,,,,,,,,,,,,,,,
,,,,,,1,0,1,0,1,X V Q F H G B L J M P D K C T S W R N Z,604784025572562991fa9638,27,Kobieta,2022-06-11_09h30.32.012,task,2021.1.4,Win32,120.0624325,6299f149e92ead563fba08ef,62a4447bb786af9384ba2280,,,,,,,,,,,,,,,,,,,,,,,,,,,,,,,,,,,,,,,,,,,,,,,,,,,,,,,,,,,,,,,,,,,,,,,,,,,,,,,,,,,,,,,,,,,,,,,,,,,,,
,,,,,,2,0,2,0,1,X V Q F H G B L J M P D K C T S W R N Z,604784025572562991fa9638,27,Kobieta,2022-06-11_09h30.32.012,task,2021.1.4,Win32,120.0624325,6299f149e92ead563fba08ef,62a4447bb786af9384ba2280,,,,,,,,,,,,,,,,,,,,,,,,,,,,,,,,,,,,,,,,,,,,,,,,,,,,,,,,,,,,,,,,,,,,,,,,,,,,,,,,,,,,,,,,,,,,,,,,,,,,,
,,,,,,3,0,3,0,1,X V Q F H G B L J M P D K C T S W R N Z,604784025572562991fa9638,27,Kobieta,2022-06-11_09h30.32.012,task,2021.1.4,Win32,120.0624325,6299f149e92ead563fba08ef,62a4447bb786af9384ba2280,,,,,,,,,,,,,,,,,,,,,,,,,,,,,,,,,,,,,,,,,,,,,,,,,,,,,,,,,,,,,,,,,,,,,,,,,,,,,,,,,,,,,,,,,,,,,,,,,,,,,
,,,,,,4,0,4,0,1,X V Q F H G B L J M P D K C T S W R N Z,604784025572562991fa9638,27,Kobieta,2022-06-11_09h30.32.012,task,2021.1.4,Win32,120.0624325,6299f149e92ead563fba08ef,62a4447bb786af9384ba2280,,,,,,,,,,,,,,,,,,,,,,,,,,,,,,,,,,,,,,,,,,,,,,,,,,,,,,,,,,,,,,,,,,,,,,,,,,,,,,,,,,,,,,,,,,,,,,,,,,,,,
,,,,,,5,0,5,0,1,X V Q F H G B L J M P D K C T S W R N Z,604784025572562991fa9638,27,Kobieta,2022-06-11_09h30.32.012,task,2021.1.4,Win32,120.0624325,6299f149e92ead563fba08ef,62a4447bb786af9384ba2280,,,,,,,,,,,,,,,,,,,,,,,,,,,,,,,,,,,,,,,,,,,,,,,,,,,,,,,,,,,,,,,,,,,,,,,,,,,,,,,,,,,,,,,,,,,,,,,,,,,,,
,,,,,,6,0,6,0,1,X V Q F H G B L J M P D K C T S W R N Z,604784025572562991fa9638,27,Kobieta,2022-06-11_09h30.32.012,task,2021.1.4,Win32,120.0624325,6299f149e92ead563fba08ef,62a4447bb786af9384ba2280,,,,,,,,,,,,,,,,,,,,,,,,,,,,,,,,,,,,,,,,,,,,,,,,,,,,,,,,,,,,,,,,,,,,,,,,,,,,,,,,,,,,,,,,,,,,,,,,,,,,,
,,,,,,7,0,7,0,1,X V Q F H G B L J M P D K C T S W R N Z,604784025572562991fa9638,27,Kobieta,2022-06-11_09h30.32.012,task,2021.1.4,Win32,120.0624325,6299f149e92ead563fba08ef,62a4447bb786af9384ba2280,,,,,,,,,,,,,,,,,,,,,,,,,,,,,,,,,,,,,,,,,,,,,,,,,,,,,,,,,,,,,,,,,,,,,,,,,,,,,,,,,,,,,,,,,,,,,,,,,,,,,
,,,,,,8,0,8,0,1,X V Q F H G B L J M P D K C T S W R N Z,604784025572562991fa9638,27,Kobieta,2022-06-11_09h30.32.012,task,2021.1.4,Win32,120.0624325,6299f149e92ead563fba08ef,62a4447bb786af9384ba2280,,,,,,,,,,,,,,,,,,,,,,,,,,,,,,,,,,,,,,,,,,,,,,,,,,,,,,,,,,,,,,,,,,,,,,,,,,,,,,,,,,,,,,,,,,,,,,,,,,,,,
,,,,,,,,,,,,604784025572562991fa9638,27,Kobieta,2022-06-11_09h30.32.012,task,2021.1.4,Win32,120.0624325,6299f149e92ead563fba08ef,62a4447bb786af9384ba2280,szsqzmdfj,"[""s"",""z"",""s"",""q"",""z"",""m"",""d"",""f"",""j""]","[2.7496000001430616,2.9094000000953884,3.141700000047706,3.9517000000477083,4.191100000143081,4.642100000143046,5.166700000047683,5.694700000047703,6.173700000047688,6.473900000095398]",0,SZSQZFDMJ,20,0,20,0,1,,,,,,,,,,,,,,,,,,,,,,,,,,,,,,,,,,,,,,,,,,,,,,,,,,,,,,,,,,,,,,,,,,,,,,,,,,,,,,,,,,,,,,,,,,,
,,,,,,,,,,,,604784025572562991fa9638,27,Kobieta,2022-06-11_09h30.32.012,task,2021.1.4,Win32,120.0624325,6299f149e92ead563fba08ef,62a4447bb786af9384ba2280,,,,,,,,,,,space,6.3153,3,"[""3""]",1,[4.367599999904655],[4.367599999904655],0,0,0,3,1,Practice,4,(8/4) + 1,3,,,,,,,,,,,,,,,,,,,,,,,,,,,,,,,,,,,,,,,,,,,,,,,,,,,,,,,,,,,,,,,,,,,,,,,,,,,
,,,,,,,,,,,,604784025572562991fa9638,27,Kobieta,2022-06-11_09h30.32.012,task,2021.1.4,Win32,120.0624325,6299f149e92ead563fba08ef,62a4447bb786af9384ba2280,,,,,,,,,,,,,4,"[""4""]",1,[3.5237999999523026],"[4.367599999904655,3.5237999999523026]",0,1,1,4,1,Practice,5,(2x6) - 8,4,,,,,,,,,,,,,,,,,,,,,,,,,,,,,,,,,,,,,,,,,,,,,,,,,,,,,,,,,,,,,,,,,,,,,,,,,,,
,,,,,,,,,,,,604784025572562991fa9638,27,Kobieta,2022-06-11_09h30.32.012,task,2021.1.4,Win32,120.0624325,6299f149e92ead563fba08ef,62a4447bb786af9384ba2280,,,,,,,,,,,,,0,"[""0""]",1,[2.069199999809257],"[4.367599999904655,3.5237999999523026,2.069199999809257]",0,2,2,0,1,Practice,1,(3x3) -  9,0,,,,,,,,,,,,,,,,,,,,,,,,,,,,,,,,,,,,,,,,,,,,,,,,,,,,,,,,,,,,,,,,,,,,,,,,,,,
,,,,,,,,,,,,604784025572562991fa9638,27,Kobieta,2022-06-11_09h30.32.012,task,2021.1.4,Win32,120.0624325,6299f149e92ead563fba08ef,62a4447bb786af9384ba2280,,,,,,,,,,,,,5,"[""5""]",1,[2.320799999952328],"[4.367599999904655,3.5237999999523026,2.069199999809257,2.320799999952328]",0,3,3,5,1,Practice,6,(4/2) + 3,5,,,,,,,,,,,,,,,,,,,,,,,,,,,,,,,,,,,,,,,,,,,,,,,,,,,,,,,,,,,,,,,,,,,,,,,,,,,
,,,,,,,,,,,,604784025572562991fa9638,27,Kobieta,2022-06-11_09h30.32.012,task,2021.1.4,Win32,120.0624325,6299f149e92ead563fba08ef,62a4447bb786af9384ba2280,,,,,,,,,,,,,9,"[""9""]",1,[1.7545000000000073],"[4.367599999904655,3.5237999999523026,2.069199999809257,2.320799999952328,1.7545000000000073]",0,4,4,9,1,Practice,10,(20/2) - 1,9,,,,,,,,,,,,,,,,,,,,,,,,,,,,,,,,,,,,,,,,,,,,,,,,,,,,,,,,,,,,,,,,,,,,,,,,,,,
,,,,,,,,,,,,604784025572562991fa9638,27,Kobieta,2022-06-11_09h30.32.012,task,2021.1.4,Win32,120.0624325,6299f149e92ead563fba08ef,62a4447bb786af9384ba2280,,,,,,,,,,,,,7,"[""7""]",1,[3.2448999998569548],"[4.367599999904655,3.5237999999523026,2.069199999809257,2.320799999952328,1.7545000000000073,3.2448999998569548]",0,5,5,7,1,Practice,8,(5x5) - 18,7,,,,,,,,,,,,,,,,,,,,,,,,,,,,,,,,,,,,,,,,,,,,,,,,,,,,,,,,,,,,,,,,,,,,,,,,,,,
,,,,,,,,,,,,604784025572562991fa9638,27,Kobieta,2022-06-11_09h30.32.012,task,2021.1.4,Win32,120.0624325,6299f149e92ead563fba08ef,62a4447bb786af9384ba2280,,,,,,,,,,,,,1,"[""1""]",0,[2.201800000190758],"[4.367599999904655,3.5237999999523026,2.069199999809257,2.320799999952328,1.7545000000000073,3.2448999998569548,2.201800000190758]",0,6,6,8,1,Practice,9,(3x3) - 1,8,,,,,,,,,,,,,,,,,,,,,,,,,,,,,,,,,,,,,,,,,,,,,,,,,,,,,,,,,,,,,,,,,,,,,,,,,,,
,,,,,,,,,,,,604784025572562991fa9638,27,Kobieta,2022-06-11_09h30.32.012,task,2021.1.4,Win32,120.0624325,6299f149e92ead563fba08ef,62a4447bb786af9384ba2280,,,,,,,,,,,,,1,"[""1""]",1,[3.2772999999522767],"[4.367599999904655,3.5237999999523026,2.069199999809257,2.320799999952328,1.7545000000000073,3.2448999998569548,2.201800000190758,3.2772999999522767]",0,7,7,1,1,Practice,2,(4x4) - 15,1,,,,,,,,,,,,,,,,,,,,,,,,,,,,,,,,,,,,,,,,,,,,,,,,,,,,,,,,,,,,,,,,,,,,,,,,,,,
,,,,,,,,,,,,604784025572562991fa9638,27,Kobieta,2022-06-11_09h30.32.012,task,2021.1.4,Win32,120.0624325,6299f149e92ead563fba08ef,62a4447bb786af9384ba2280,,,,,,,,,,,,,2,"[""2""]",1,[4.025299999952324],"[4.367599999904655,3.5237999999523026,2.069199999809257,2.320799999952328,1.7545000000000073,3.2448999998569548,2.201800000190758,3.2772999999522767,4.025299999952324]",0,8,8,2,1,Practice,3,(4x4) - 14,2,,,,,,,,,,,,,,,,,,,,,,,,,,,,,,,,,,,,,,,,,,,,,,,,,,,,,,,,,,,,,,,,,,,,,,,,,,,
,,,,,,,,,,,,604784025572562991fa9638,27,Kobieta,2022-06-11_09h30.32.012,task,2021.1.4,Win32,120.0624325,6299f149e92ead563fba08ef,62a4447bb786af9384ba2280,,,,,,,,,,,,,6,"[""6""]",1,[2.1759999999999877],"[4.367599999904655,3.5237999999523026,2.069199999809257,2.320799999952328,1.7545000000000073,3.2448999998569548,2.201800000190758,3.2772999999522767,4.025299999952324,2.1759999999999877]",0,9,9,6,1,Practice,7,(25/5) + 1,6,,,,,,,,,,,,,,,,,,,,,,,,,,,,,,,,,,,,,,,,,,,,,,,,,,,,,,,,,,,,,,,,,,,,,,,,,,,
,,,,,,,,,,,,604784025572562991fa9638,27,Kobieta,2022-06-11_09h30.32.012,task,2021.1.4,Win32,120.0624325,6299f149e92ead563fba08ef,62a4447bb786af9384ba2280,,,,,,,,,,,,,,,,,,,,,,,,,,,0.9,28.9612,1.930746667,16.73942454,1.056390854,4.65623507,space,1.4442,0,0,0,0,1,,,,,,,,,,,,,,,,,,,,,,,,,,,,,,,,,,,,,,,,,,,,,,,,,,,,,,,,,,,,,,
,,,,,,,,,,,,604784025572562991fa9638,27,Kobieta,2022-06-11_09h30.32.012,task,2021.1.4,Win32,120.0624325,6299f149e92ead563fba08ef,62a4447bb786af9384ba2280,,,,,,,,,,,,,3,,,,,,,,,,Practice,4,(8/4) + 1,3,,,,,,,,,,,,,,space,11.1137,"[""3""]",1,[2.693200000047682],1,0,0,0,3,1,,,,,,,,,,,,,,,,,,,,,,,,,,,,,,,,,,,,,,,,,,,,,,,,,,,
,,,,,,,,,,,X V Q F H G B L J M P D K C T S W R N Z,604784025572562991fa9638,27,Kobieta,2022-06-11_09h30.32.012,task,2021.1.4,Win32,120.0624325,6299f149e92ead563fba08ef,62a4447bb786af9384ba2280,,,,,,,,,,,,,,,,,,,,,,,,,,,,,,,,,,,,,,,,,,,,,,,,,,,0,0,0,0,1,,,,,,,,,,,,,,,,,,,,,,,,,,,,,,,,,,,,,,,,,,,,,,
,,,,,,,,,,,,604784025572562991fa9638,27,Kobieta,2022-06-11_09h30.32.012,task,2021.1.4,Win32,120.0624325,6299f149e92ead563fba08ef,62a4447bb786af9384ba2280,,,,,,,,,,,,,,,,,,,,,,,Practice,3,(4x4) - 14,2,,,,,,,,,,,,,,,,,0,,0,0,0,0,2,1,,,,,,,,,,,,,,,,,,,,,,,,,,,,,,,,,,,,,,,,,,,,,,,,,,,
,,,,,,,,,,,,604784025572562991fa9638,27,Kobieta,2022-06-11_09h30.32.012,task,2021.1.4,Win32,120.0624325,6299f149e92ead563fba08ef,62a4447bb786af9384ba2280,,,,,,,,,,,,,8,,,,,,,,,,Practice,9,(3x3) - 1,8,,,,,,,,,,,,,,,,"[""8""]",1,[2.3744000000953633],1,0,1,1,8,1,,,,,,,,,,,,,,,,,,,,,,,,,,,,,,,,,,,,,,,,,,,,,,,,,,,
,,,,,,,,,,,X V Q F H G B L J M P D K C T S W R N Z,604784025572562991fa9638,27,Kobieta,2022-06-11_09h30.32.012,task,2021.1.4,Win32,120.0624325,6299f149e92ead563fba08ef,62a4447bb786af9384ba2280,,,,,,,,,,,,,,,,,,,,,,,,,,,,,,,,,,,,,,,,,,,,,,,,,,,1,0,1,0,1,,,,,,,,,,,,,,,,,,,,,,,,,,,,,,,,,,,,,,,,,,,,,,
,,,,,,,,,,,,604784025572562991fa9638,27,Kobieta,2022-06-11_09h30.32.012,task,2021.1.4,Win32,120.0624325,6299f149e92ead563fba08ef,62a4447bb786af9384ba2280,,,,,,,,,,,,,,,,,,,,,,,,,,,,,,,,,,,,,,,,,,,,,,,,,,,,,,,,zx,"[""z"",""x""]",0,"[2.9325000000000045,3.15310000014307,3.9814999999999827]",1,0,0,0,0,1,,,,,,,,,,,,,,,,,,,,,,,,,,,,,,,,,,,,
,,,,,,,,,,,,604784025572562991fa9638,27,Kobieta,2022-06-11_09h30.32.012,task,2021.1.4,Win32,120.0624325,6299f149e92ead563fba08ef,62a4447bb786af9384ba2280,,,,,,,,,,,,,2,,,,,,,,,,Practice,3,(4x4) - 14,2,,,,,,,,,,,,,,,,"[""2""]",1,[2.0860999999046044],1,0,0,0,2,1,,,,,,,,,,,,,,,,,,,,,,,,,,,,,,,,,,,,,,,,,,,,,,,,,,,
,,,,,,,,,,,X V Q F H G B L J M P D K C T S W R N Z,604784025572562991fa9638,27,Kobieta,2022-06-11_09h30.32.012,task,2021.1.4,Win32,120.0624325,6299f149e92ead563fba08ef,62a4447bb786af9384ba2280,,,,,,,,,,,,,,,,,,,,,,,,,,,,,,,,,,,,,,,,,,,,,,,,,,,0,0,0,0,1,,,,,,,,,,,,,,,,,,,,,,,,,,,,,,,,,,,,,,,,,,,,,,
,,,,,,,,,,,,604784025572562991fa9638,27,Kobieta,2022-06-11_09h30.32.012,task,2021.1.4,Win32,120.0624325,6299f149e92ead563fba08ef,62a4447bb786af9384ba2280,,,,,,,,,,,,,5,,,,,,,,,,Practice,6,(4/2) + 3,5,,,,,,,,,,,,,,,,"[""5""]",1,[3.0115999999046608],1,0,0,0,5,1,,,,,,,,,,,,,,,,,,,,,,,,,,,,,,,,,,,,,,,,,,,,,,,,,,,
,,,,,,,,,,,X V Q F H G B L J M P D K C T S W R N Z,604784025572562991fa9638,27,Kobieta,2022-06-11_09h30.32.012,task,2021.1.4,Win32,120.0624325,6299f149e92ead563fba08ef,62a4447bb786af9384ba2280,,,,,,,,,,,,,,,,,,,,,,,,,,,,,,,,,,,,,,,,,,,,,,,,,,,1,0,1,0,1,,,,,,,,,,,,,,,,,,,,,,,,,,,,,,,,,,,,,,,,,,,,,,
,,,,,,,,,,,,604784025572562991fa9638,27,Kobieta,2022-06-11_09h30.32.012,task,2021.1.4,Win32,120.0624325,6299f149e92ead563fba08ef,62a4447bb786af9384ba2280,,,,,,,,,,,,,,,,,,,,,,,,,,,,,,,,,,,,,,,,,,,,,,,,,,,,,,,,mw,"[""m"",""w""]",0,"[1.9932000000476364,2.510499999999979,3.5504999999999995]",1,1,0,1,0,1,,,,,,,,,,,,,,,,,,,,,,,,,,,,,,,,,,,,
,,,,,,,,,,,,604784025572562991fa9638,27,Kobieta,2022-06-11_09h30.32.012,task,2021.1.4,Win32,120.0624325,6299f149e92ead563fba08ef,62a4447bb786af9384ba2280,,,,,,,,,,,,,7,,,,,,,,,,Practice,8,(5x5) - 18,7,,,,,,,,,,,,,,,,"[""7""]",1,[1.6249000000953515],1,0,0,0,7,1,,,,,,,,,,,,,,,,,,,,,,,,,,,,,,,,,,,,,,,,,,,,,,,,,,,
,,,,,,,,,,,X V Q F H G B L J M P D K C T S W R N Z,604784025572562991fa9638,27,Kobieta,2022-06-11_09h30.32.012,task,2021.1.4,Win32,120.0624325,6299f149e92ead563fba08ef,62a4447bb786af9384ba2280,,,,,,,,,,,,,,,,,,,,,,,,,,,,,,,,,,,,,,,,,,,,,,,,,,,0,0,0,0,1,,,,,,,,,,,,,,,,,,,,,,,,,,,,,,,,,,,,,,,,,,,,,,
,,,,,,,,,,,,604784025572562991fa9638,27,Kobieta,2022-06-11_09h30.32.012,task,2021.1.4,Win32,120.0624325,6299f149e92ead563fba08ef,62a4447bb786af9384ba2280,,,,,,,,,,,,,8,,,,,,,,,,Practice,9,(3x3) - 1,8,,,,,,,,,,,,,,,,"[""8""]",1,[2.5734000000953756],1,0,0,0,8,1,,,,,,,,,,,,,,,,,,,,,,,,,,,,,,,,,,,,,,,,,,,,,,,,,,,
,,,,,,,,,,,X V Q F H G B L J M P D K C T S W R N Z,604784025572562991fa9638,27,Kobieta,2022-06-11_09h30.32.012,task,2021.1.4,Win32,120.0624325,6299f149e92ead563fba08ef,62a4447bb786af9384ba2280,,,,,,,,,,,,,,,,,,,,,,,,,,,,,,,,,,,,,,,,,,,,,,,,,,,1,0,1,0,1,,,,,,,,,,,,,,,,,,,,,,,,,,,,,,,,,,,,,,,,,,,,,,
,,,,,,,,,,,,604784025572562991fa9638,27,Kobieta,2022-06-11_09h30.32.012,task,2021.1.4,Win32,120.0624325,6299f149e92ead563fba08ef,62a4447bb786af9384ba2280,,,,,,,,,,,,,,,,,,,,,,,,,,,,,,,,,,,,,,,,,,,,,,,,,,,,,,,,rn,"[""r"",""n""]",0,"[1.7012000000476633,2.157600000143077,2.499500000000012]",1,2,0,2,0,1,,,,,,,,,,,,,,,,,,,,,,,,,,,,,,,,,,,,
,,,,,,,,,,,,604784025572562991fa9638,27,Kobieta,2022-06-11_09h30.32.012,task,2021.1.4,Win32,120.0624325,6299f149e92ead563fba08ef,62a4447bb786af9384ba2280,,,,,,,,,,,,,,,,,,,,,,,Task,7,(3x7) - 12,9,,,,,,,,,,,,,,,,,,,0,,,,,,,,,,,,,,,,,,,,,space,15.4174,,0,0,0,0,6,1,,,,,,,,,,,,,,,,,,,,,,,,,,,
,,,,,,,,,,,,604784025572562991fa9638,27,Kobieta,2022-06-11_09h30.32.012,task,2021.1.4,Win32,120.0624325,6299f149e92ead563fba08ef,62a4447bb786af9384ba2280,,,,,,,,,,,,,1,,,,,,,,,,Task,18,(16/4) - 3,1,,,,,,,,,,,,,,,,,,,1,,,,,,,,,,,,,,,,,,,,,,,"[""1""]",1,0,1,1,17,1,[2.242500000000007],,,,,,,,,,,,,,,,,,,,,,,,,,
,,,,,,,,,,,X V Q F H G B L J M P D K C T S W R N Z,604784025572562991fa9638,27,Kobieta,2022-06-11_09h30.32.012,task,2021.1.4,Win32,120.0624325,6299f149e92ead563fba08ef,62a4447bb786af9384ba2280,,,,,,,,,,,,,,,,,,,,,,,,,,,,,,,,,,,,,,,,,,,,,,,,,,,,,,,,,,,,,,,,,,,,,,,,,,,,0,0,0,0,1,,,,,,,,,,,,,,,,,,,,,
,,,,,,,,,,,,604784025572562991fa9638,27,Kobieta,2022-06-11_09h30.32.012,task,2021.1.4,Win32,120.0624325,6299f149e92ead563fba08ef,62a4447bb786af9384ba2280,,,,,,,,,,,,,2,,,,,,,,,,Task,2,(2x2) - 2,2,,,,,,,,,,,,,,,,,,,1,,,,,,,,,,,,,,,,,,,,,,,"[""2""]",1,0,0,0,1,1,[1.9861000001430398],,,,,,,,,,,,,,,,,,,,,,,,,,
,,,,,,,,,,,X V Q F H G B L J M P D K C T S W R N Z,604784025572562991fa9638,27,Kobieta,2022-06-11_09h30.32.012,task,2021.1.4,Win32,120.0624325,6299f149e92ead563fba08ef,62a4447bb786af9384ba2280,,,,,,,,,,,,,,,,,,,,,,,,,,,,,,,,,,,,,,,,,,,,,,,,,,,,,,,,,,,,,,,,,,,,,,,,,,,,1,0,1,0,1,,,,,,,,,,,,,,,,,,,,,
,,,,,,,,,,,,604784025572562991fa9638,27,Kobieta,2022-06-11_09h30.32.012,task,2021.1.4,Win32,120.0624325,6299f149e92ead563fba08ef,62a4447bb786af9384ba2280,,,,,,,,,,,,,,,,,,,,,,,,,,,,,,,,,,,,,,,,,,,,,,,,,,,,,,,,,,,,,,,,,,,,,,,,,,,,,,,,,zr,"[""z"",""r""]",0,"[1.7387999999523345,2.0085000000000264,2.4707000000477137]",1,ZR,0,0,0,0,1,,,,,,,,,,
,,,,,,,,,,,,604784025572562991fa9638,27,Kobieta,2022-06-11_09h30.32.012,task,2021.1.4,Win32,120.0624325,6299f149e92ead563fba08ef,62a4447bb786af9384ba2280,,,,,,,,,,,,,9,,,,,,,,,,Task,40,(7x2) - 5,9,,,,,,,,,,,,,,,,,,,1,,,,,,,,,,,,,,,,,,,,,,,"[""9""]",1,0,0,0,39,1,[2.8927000000476824],,,,,,,,,,,,,,,,,,,,,,,,,,
,,,,,,,,,,,X V Q F H G B L J M P D K C T S W R N Z,604784025572562991fa9638,27,Kobieta,2022-06-11_09h30.32.012,task,2021.1.4,Win32,120.0624325,6299f149e92ead563fba08ef,62a4447bb786af9384ba2280,,,,,,,,,,,,,,,,,,,,,,,,,,,,,,,,,,,,,,,,,,,,,,,,,,,,,,,,,,,,,,,,,,,,,,,,,,,,0,0,0,0,1,,,,,,,,,,,,,,,,,,,,,
,,,,,,,,,,,,604784025572562991fa9638,27,Kobieta,2022-06-11_09h30.32.012,task,2021.1.4,Win32,120.0624325,6299f149e92ead563fba08ef,62a4447bb786af9384ba2280,,,,,,,,,,,,,0,,,,,,,,,,Task,33,(1/1) - 1,0,,,,,,,,,,,,,,,,,,,1,,,,,,,,,,,,,,,,,,,,,,,"[""0""]",1,0,0,0,32,1,[2.819799999952295],,,,,,,,,,,,,,,,,,,,,,,,,,
,,,,,,,,,,,X V Q F H G B L J M P D K C T S W R N Z,604784025572562991fa9638,27,Kobieta,2022-06-11_09h30.32.012,task,2021.1.4,Win32,120.0624325,6299f149e92ead563fba08ef,62a4447bb786af9384ba2280,,,,,,,,,,,,,,,,,,,,,,,,,,,,,,,,,,,,,,,,,,,,,,,,,,,,,,,,,,,,,,,,,,,,,,,,,,,,1,0,1,0,1,,,,,,,,,,,,,,,,,,,,,
,,,,,,,,,,,,604784025572562991fa9638,27,Kobieta,2022-06-11_09h30.32.012,task,2021.1.4,Win32,120.0624325,6299f149e92ead563fba08ef,62a4447bb786af9384ba2280,,,,,,,,,,,,,,,,,,,,,,,Task,16,(3x8) - 15,9,,,,,,,,,,,,,,,,,,,0,,,,,,,,,,,,,,,,,,,,,,,,0,0,0,0,15,1,,,,,,,,,,,,,,,,,,,,,,,,,,,
,,,,,,,,,,,,604784025572562991fa9638,27,Kobieta,2022-06-11_09h30.32.012,task,2021.1.4,Win32,120.0624325,6299f149e92ead563fba08ef,62a4447bb786af9384ba2280,,,,,,,,,,,,,7,,,,,,,,,,Task,31,(4/2) + 5,7,,,,,,,,,,,,,,,,,,,1,,,,,,,,,,,,,,,,,,,,,,,"[""7""]",1,0,1,1,30,1,[2.1687999999523413],,,,,,,,,,,,,,,,,,,,,,,,,,
,,,,,,,,,,,X V Q F H G B L J M P D K C T S W R N Z,604784025572562991fa9638,27,Kobieta,2022-06-11_09h30.32.012,task,2021.1.4,Win32,120.0624325,6299f149e92ead563fba08ef,62a4447bb786af9384ba2280,,,,,,,,,,,,,,,,,,,,,,,,,,,,,,,,,,,,,,,,,,,,,,,,,,,,,,,,,,,,,,,,,,,,,,,,,,,,2,0,2,0,1,,,,,,,,,,,,,,,,,,,,,
,,,,,,,,,,,,604784025572562991fa9638,27,Kobieta,2022-06-11_09h30.32.012,task,2021.1.4,Win32,120.0624325,6299f149e92ead563fba08ef,62a4447bb786af9384ba2280,,,,,,,,,,,,,,,,,,,,,,,,,,,,,,,,,,,,,,,,,,,,,,,,,,,,,,,,,,,,,,,,,,,,,,,,,,,,,,,,,rs,"[""r"",""s""]",0,"[1.496199999809221,1.7595999999045944,2.1337999999523163]",0,JFS,1,0,1,0,1,,,,,,,,,,
,,,,,,,,,,,,604784025572562991fa9638,27,Kobieta,2022-06-11_09h30.32.012,task,2021.1.4,Win32,120.0624325,6299f149e92ead563fba08ef,62a4447bb786af9384ba2280,,,,,,,,,,,,,5,,,,,,,,,,Task,22,(3x1) + 2,5,,,,,,,,,,,,,,,,,,,1,,,,,,,,,,,,,,,,,,,,,,,"[""5""]",1,0,0,0,21,1,[1.892799999952274],,,,,,,,,,,,,,,,,,,,,,,,,,
,,,,,,,,,,,X V Q F H G B L J M P D K C T S W R N Z,604784025572562991fa9638,27,Kobieta,2022-06-11_09h30.32.012,task,2021.1.4,Win32,120.0624325,6299f149e92ead563fba08ef,62a4447bb786af9384ba2280,,,,,,,,,,,,,,,,,,,,,,,,,,,,,,,,,,,,,,,,,,,,,,,,,,,,,,,,,,,,,,,,,,,,,,,,,,,,0,0,0,0,1,,,,,,,,,,,,,,,,,,,,,
,,,,,,,,,,,,604784025572562991fa9638,27,Kobieta,2022-06-11_09h30.32.012,task,2021.1.4,Win32,120.0624325,6299f149e92ead563fba08ef,62a4447bb786af9384ba2280,,,,,,,,,,,,,3,,,,,,,,,,Task,20,(18/9) + 1,3,,,,,,,,,,,,,,,,,,,1,,,,,,,,,,,,,,,,,,,,,,,"[""3""]",1,0,0,0,19,1,[3.2842999999522817],,,,,,,,,,,,,,,,,,,,,,,,,,
,,,,,,,,,,,X V Q F H G B L J M P D K C T S W R N Z,604784025572562991fa9638,27,Kobieta,2022-06-11_09h30.32.012,task,2021.1.4,Win32,120.0624325,6299f149e92ead563fba08ef,62a4447bb786af9384ba2280,,,,,,,,,,,,,,,,,,,,,,,,,,,,,,,,,,,,,,,,,,,,,,,,,,,,,,,,,,,,,,,,,,,,,,,,,,,,1,0,1,0,1,,,,,,,,,,,,,,,,,,,,,
,,,,,,,,,,,,604784025572562991fa9638,27,Kobieta,2022-06-11_09h30.32.012,task,2021.1.4,Win32,120.0624325,6299f149e92ead563fba08ef,62a4447bb786af9384ba2280,,,,,,,,,,,,,0,,,,,,,,,,Task,17,(2x3) - 6,0,,,,,,,,,,,,,,,,,,,1,,,,,,,,,,,,,,,,,,,,,,,"[""0""]",1,0,0,0,16,1,[2.9138999998569375],,,,,,,,,,,,,,,,,,,,,,,,,,
,,,,,,,,,,,X V Q F H G B L J M P D K C T S W R N Z,604784025572562991fa9638,27,Kobieta,2022-06-11_09h30.32.012,task,2021.1.4,Win32,120.0624325,6299f149e92ead563fba08ef,62a4447bb786af9384ba2280,,,,,,,,,,,,,,,,,,,,,,,,,,,,,,,,,,,,,,,,,,,,,,,,,,,,,,,,,,,,,,,,,,,,,,,,,,,,2,0,2,0,1,,,,,,,,,,,,,,,,,,,,,
,,,,,,,,,,,,604784025572562991fa9638,27,Kobieta,2022-06-11_09h30.32.012,task,2021.1.4,Win32,120.0624325,6299f149e92ead563fba08ef,62a4447bb786af9384ba2280,,,,,,,,,,,,,,,,,,,,,,,,,,,,,,,,,,,,,,,,,,,,,,,,,,,,,,,,,,,,,,,,,,,,,,,,,,,,,,,,,rqt,"[""r"",""q"",""t""]",0,"[1.6626999998092629,1.9752999999523126,2.352899999856959,2.841599999904588]",0,DQT,2,0,2,0,1,,,,,,,,,,
,,,,,,,,,,,,604784025572562991fa9638,27,Kobieta,2022-06-11_09h30.32.012,task,2021.1.4,Win32,120.0624325,6299f149e92ead563fba08ef,62a4447bb786af9384ba2280,,,,,,,,,,,,,,,,,,,,,,,,,,,,,,,,,,,,,,,,,,,,,,,,,,,,,,,,,,,,,,,,,,,,,,,,,,,,,,,,,,,,,,,,,,,,"[""comma""]",0,[0.8065000000000282],0,0,0,0,1,,
,,,,,,,,,,,,604784025572562991fa9638,27,Kobieta,2022-06-11_09h30.32.012,task,2021.1.4,Win32,120.0624325,6299f149e92ead563fba08ef,62a4447bb786af9384ba2280,,,,,,,,,,,,,,,,,,,,,,,,,,,,,,,,,,,,,,,,,,,,,,,,,,,,,,,,,,,,,,,,,,,,,,,,,,,,,,,,,,,,,,,,,,,,"[""comma""]",0,[0.4457999999523281],1,0,1,0,1,,
,,,,,,,,,,,,604784025572562991fa9638,27,Kobieta,2022-06-11_09h30.32.012,task,2021.1.4,Win32,120.0624325,6299f149e92ead563fba08ef,62a4447bb786af9384ba2280,,,,,,,,,,,,,,,,,,,,,,,,,,,,,,,,,,,,,,,,,,,,,,,,,,,,,,,,,,,,,,,,,,,,,,,,,,,,,,,,,,,,,,,,,,,,"[""period""]",0,[0.27729999995233356],2,0,2,0,1,,
,,,,,,,,,,,,604784025572562991fa9638,27,Kobieta,2022-06-11_09h30.32.012,task,2021.1.4,Win32,120.0624325,6299f149e92ead563fba08ef,62a4447bb786af9384ba2280,,,,,,,,,,,,,,,,,,,,,,,,,,,,,,,,,,,,,,,,,,,,,,,,,,,,,,,,,,,,,,,,,,,,,,,,,,,,,,,,,,,,,,,,,,,,"[""period""]",0,[0.24310000014304478],3,0,3,0,1,,
,,,,,,,,,,,,604784025572562991fa9638,27,Kobieta,2022-06-11_09h30.32.012,task,2021.1.4,Win32,120.0624325,6299f149e92ead563fba08ef,62a4447bb786af9384ba2280,,,,,,,,,,,,,,,,,,,,,,,,,,,,,,,,,,,,,,,,,,,,,,,,,,,,,,,,,,,,,,,,,,,,,,,,,,,,,,,,,,,,,,,,,,,,"[""comma""]",0,[0.22470000004761914],4,0,4,0,1,,
,,,,,,,,,,,,604784025572562991fa9638,27,Kobieta,2022-06-11_09h30.32.012,task,2021.1.4,Win32,120.0624325,6299f149e92ead563fba08ef,62a4447bb786af9384ba2280,,,,,,,,,,,,,,,,,,,,,,,,,,,,,,,,,,,,,,,,,,,,,,,,,,,,,,,,,,,,,,,,,,,,,,,,,,,,,,,,,,,,,,,,,,,,"[""period"",""period""]",0,"[0.25410000014301204,0.6568000001907421]",5,0,5,0,1,,
,,,,,,,,,,,,604784025572562991fa9638,27,Kobieta,2022-06-11_09h30.32.012,task,2021.1.4,Win32,120.0624325,6299f149e92ead563fba08ef,62a4447bb786af9384ba2280,,,,,,,,,,,,,,,,,,,,,,,,,,,,,,,,,,,,,,,,,,,,,,,,,,,,,,,,,,,,,,,,,,,,,,,,,,,,,,,,,,,,,,,,,,,,"[""comma""]",0,[0.2551000001431021],6,0,6,0,1,,
,,,,,,,,,,,,604784025572562991fa9638,27,Kobieta,2022-06-11_09h30.32.012,task,2021.1.4,Win32,120.0624325,6299f149e92ead563fba08ef,62a4447bb786af9384ba2280,,,,,,,,,,,,,,,,,,,,,,,,,,,,,,,,,,,,,,,,,,,,,,,,,,,,,,,,,,,,,,,,,,,,,,,,,,,,,,,,,,,,,,,,,,,,"[""comma""]",0,[0.2442999999523181],7,0,7,0,1,,
,,,,,,,,,,,,604784025572562991fa9638,27,Kobieta,2022-06-11_09h30.32.012,task,2021.1.4,Win32,120.0624325,6299f149e92ead563fba08ef,62a4447bb786af9384ba2280,,,,,,,,,,,,,,,,,,,,,,,,,,,,,,,,,,,,,,,,,,,,,,,,,,,,,,,,,,,,,,,,,,,,,,,,,,,,,,,,,,,,,,,,,,,,"[""comma""]",0,[0.3086000001430875],8,0,8,0,1,,
,,,,,,,,,,,,604784025572562991fa9638,27,Kobieta,2022-06-11_09h30.32.012,task,2021.1.4,Win32,120.0624325,6299f149e92ead563fba08ef,62a4447bb786af9384ba2280,,,,,,,,,,,,,,,,,,,,,,,,,,,,,,,,,,,,,,,,,,,,,,,,,,,,,,,,,,,,,,,,,,,,,,,,,,,,,,,,,,,,,,,,,,,,"[""comma""]",0,[0.22710000014308207],9,0,9,0,1,,
,,,,,,,,,,,,604784025572562991fa9638,27,Kobieta,2022-06-11_09h30.32.012,task,2021.1.4,Win32,120.0624325,6299f149e92ead563fba08ef,62a4447bb786af9384ba2280,,,,,,,,,,,,,,,,,,,,,,,,,,,,,,,,,,,,,,,,,,,,,,,,,,,,,,,,,,,,,,,,,,,,,,,,,,,,,,,,,,,,,,,,,,,,"[""period""]",0,[0.24270000004764825],10,0,10,0,1,,
,,,,,,,,,,,,604784025572562991fa9638,27,Kobieta,2022-06-11_09h30.32.012,task,2021.1.4,Win32,120.0624325,6299f149e92ead563fba08ef,62a4447bb786af9384ba2280,,,,,,,,,,,,,,,,,,,,,,,,,,,,,,,,,,,,,,,,,,,,,,,,,,,,,,,,,,,,,,,,,,,,,,,,,,,,,,,,,,,,,,,,,,,,"[""period""]",0,[0.20970000004774647],11,0,11,0,1,,
,,,,,,,,,,,,604784025572562991fa9638,27,Kobieta,2022-06-11_09h30.32.012,task,2021.1.4,Win32,120.0624325,6299f149e92ead563fba08ef,62a4447bb786af9384ba2280,,,,,,,,,,,,,,,,,,,,,,,,,,,,,,,,,,,,,,,,,,,,,,,,,,,,,,,,,,,,,,,,,,,,,,,,,,,,,,,,,,,,,,,,,,,,"[""period""]",0,[0.21620000004770645],12,0,12,0,1,,
,,,,,,,,,,,,604784025572562991fa9638,27,Kobieta,2022-06-11_09h30.32.012,task,2021.1.4,Win32,120.0624325,6299f149e92ead563fba08ef,62a4447bb786af9384ba2280,,,,,,,,,,,,,,,,,,,,,,,,,,,,,,,,,,,,,,,,,,,,,,,,,,,,,,,,,,,,,,,,,,,,,,,,,,,,,,,,,,,,,,,,,,,,"[""comma""]",0,[0.25149999999996453],13,0,13,0,1,,
,,,,,,,,,,,,604784025572562991fa9638,27,Kobieta,2022-06-11_09h30.32.012,task,2021.1.4,Win32,120.0624325,6299f149e92ead563fba08ef,62a4447bb786af9384ba2280,,,,,,,,,,,,,,,,,,,,,,,,,,,,,,,,,,,,,,,,,,,,,,,,,,,,,,,,,,,,,,,,,,,,,,,,,,,,,,,,,,,,,,,,,,,,"[""comma""]",0,[0.2662999999522526],14,0,14,0,1,,
,,,,,,,,,,,,604784025572562991fa9638,27,Kobieta,2022-06-11_09h30.32.012,task,2021.1.4,Win32,120.0624325,6299f149e92ead563fba08ef,62a4447bb786af9384ba2280,,,,,,,,,,,,,,,,,,,,,,,,,,,,,,,,,,,,,,,,,,,,,,,,,,,,,,,,,,,,,,,,,,,,,,,,,,,,,,,,,,,,,,,,,,,,"[""period""]",0,[0.29890000009538653],15,0,15,0,1,,
,,,,,,,,,,,,604784025572562991fa9638,27,Kobieta,2022-06-11_09h30.32.012,task,2021.1.4,Win32,120.0624325,6299f149e92ead563fba08ef,62a4447bb786af9384ba2280,,,,,,,,,,,,,,,,,,,,,,,,,,,,,,,,,,,,,,,,,,,,,,,,,,,,,,,,,,,,,,,,,,,,,,,,,,,,,,,,,,,,,,,,,,,,"[""comma""]",0,[0.2776999998092151],16,0,16,0,1,,
,,,,,,,,,,,,604784025572562991fa9638,27,Kobieta,2022-06-11_09h30.32.012,task,2021.1.4,Win32,120.0624325,6299f149e92ead563fba08ef,62a4447bb786af9384ba2280,,,,,,,,,,,,,,,,,,,,,,,,,,,,,,,,,,,,,,,,,,,,,,,,,,,,,,,,,,,,,,,,,,,,,,,,,,,,,,,,,,,,,,,,,,,,"[""period"",""period""]",0,"[0.24379999995232993,0.5335999999045953]",17,0,17,0,1,,
,,,,,,,,,,,,604784025572562991fa9638,27,Kobieta,2022-06-11_09h30.32.012,task,2021.1.4,Win32,120.0624325,6299f149e92ead563fba08ef,62a4447bb786af9384ba2280,,,,,,,,,,,,,,,,,,,,,,,,,,,,,,,,,,,,,,,,,,,,,,,,,,,,,,,,,,,,,,,,,,,,,,,,,,,,,,,,,,,,,,,,,,,,"[""period""]",0,[0.2456999998092897],18,0,18,0,1,,
,,,,,,,,,,,,604784025572562991fa9638,27,Kobieta,2022-06-11_09h30.32.012,task,2021.1.4,Win32,120.0624325,6299f149e92ead563fba08ef,62a4447bb786af9384ba2280,,,,,,,,,,,,,,,,,,,,,,,,,,,,,,,,,,,,,,,,,,,,,,,,,,,,,,,,,,,,,,,,,,,,,,,,,,,,,,,,,,,,,,,,,,,,"[""comma""]",0,[0.24270000004764825],19,0,19,0,1,,
,,,,,,,,,,,,604784025572562991fa9638,27,Kobieta,2022-06-11_09h30.32.012,task,2021.1.4,Win32,120.0624325,6299f149e92ead563fba08ef,62a4447bb786af9384ba2280,,,,,,,,,,,,,,,,,,,,,,,,,,,,,,,,,,,,,,,,,,,,,,,,,,,,,,,,,,,,,,,,,,,,,,,,,,,,,,,,,,,,,,,,,,,,"[""comma""]",0,[0.24209999990466713],20,0,20,0,1,,
,,,,,,,,,,,,604784025572562991fa9638,27,Kobieta,2022-06-11_09h30.32.012,task,2021.1.4,Win32,120.0624325,6299f149e92ead563fba08ef,62a4447bb786af9384ba2280,,,,,,,,,,,,,,,,,,,,,,,,,,,,,,,,,,,,,,,,,,,,,,,,,,,,,,,,,,,,,,,,,,,,,,,,,,,,,,,,,,,,,,,,,,,,"[""period""]",0,[0.2175000000000864],21,0,21,0,1,,
,,,,,,,,,,,,604784025572562991fa9638,27,Kobieta,2022-06-11_09h30.32.012,task,2021.1.4,Win32,120.0624325,6299f149e92ead563fba08ef,62a4447bb786af9384ba2280,,,,,,,,,,,,,,,,,,,,,,,,,,,,,,,,,,,,,,,,,,,,,,,,,,,,,,,,,,,,,,,,,,,,,,,,,,,,,,,,,,,,,,,,,,,,"[""comma""]",0,[0.10249999999996362],22,0,22,0,1,,
,,,,,,,,,,,,604784025572562991fa9638,27,Kobieta,2022-06-11_09h30.32.012,task,2021.1.4,Win32,120.0624325,6299f149e92ead563fba08ef,62a4447bb786af9384ba2280,,,,,,,,,,,,,,,,,,,,,,,,,,,,,,,,,,,,,,,,,,,,,,,,,,,,,,,,,,,,,,,,,,,,,,,,,,,,,,,,,,,,,,,,,,,,"[""period""]",0,[0.11690000009537016],23,0,23,0,1,,
,,,,,,,,,,,,604784025572562991fa9638,27,Kobieta,2022-06-11_09h30.32.012,task,2021.1.4,Win32,120.0624325,6299f149e92ead563fba08ef,62a4447bb786af9384ba2280,,,,,,,,,,,,,,,,,,,,,,,,,,,,,,,,,,,,,,,,,,,,,,,,,,,,,,,,,,,,,,,,,,,,,,,,,,,,,,,,,,,,,,,,,,,,"[""comma""]",0,[0.24140000009538198],24,0,24,0,1,,
,,,,,,,,,,,,604784025572562991fa9638,27,Kobieta,2022-06-11_09h30.32.012,task,2021.1.4,Win32,120.0624325,6299f149e92ead563fba08ef,62a4447bb786af9384ba2280,,,,,,,,,,,,,,,,,,,,,,,,,,,,,,,,,,,,,,,,,,,,,,,,,,,,,,,,,,,,,,,,,,,,,,,,,,,,,,,,,,,,,,,,,,,,"[""period""]",0,[0.2502999999522899],25,0,25,0,1,,
,,,,,,,,,,,,604784025572562991fa9638,27,Kobieta,2022-06-11_09h30.32.012,task,2021.1.4,Win32,120.0624325,6299f149e92ead563fba08ef,62a4447bb786af9384ba2280,,,,,,,,,,,,,,,,,,,,,,,,,,,,,,,,,,,,,,,,,,,,,,,,,,,,,,,,,,,,,,,,,,,,,,,,,,,,,,,,,,,,,,,,,,,,"[""period""]",0,[0.25189999985695977],26,0,26,0,1,,
,,,,,,,,,,,,604784025572562991fa9638,27,Kobieta,2022-06-11_09h30.32.012,task,2021.1.4,Win32,120.0624325,6299f149e92ead563fba08ef,62a4447bb786af9384ba2280,,,,,,,,,,,,,,,,,,,,,,,,,,,,,,,,,,,,,,,,,,,,,,,,,,,,,,,,,,,,,,,,,,,,,,,,,,,,,,,,,,,,,,,,,,,,,0,,27,0,27,0,1,,
,,,,,,,,,,,,604784025572562991fa9638,27,Kobieta,2022-06-11_09h30.32.012,task,2021.1.4,Win32,120.0624325,6299f149e92ead563fba08ef,62a4447bb786af9384ba2280,,,,,,,,,,,,,,,,,,,,,,,,,,,,,,,,,,,,,,,,,,,,,,,,,,,,,,,,,,,,,,,,,,,,,,,,,,,,,,,,,,,,,,,,,,,,"[""period""]",0,[0.19219999980919056],28,0,28,0,1,,
,,,,,,,,,,,,604784025572562991fa9638,27,Kobieta,2022-06-11_09h30.32.012,task,2021.1.4,Win32,120.0624325,6299f149e92ead563fba08ef,62a4447bb786af9384ba2280,,,,,,,,,,,,,,,,,,,,,,,,,,,,,,,,,,,,,,,,,,,,,,,,,,,,,,,,,,,,,,,,,,,,,,,,,,,,,,,,,,,,,,,,,,,,"[""period""]",0,[0.22809999990465712],29,0,29,0,1,,
,,,,,,,,,,,,604784025572562991fa9638,27,Kobieta,2022-06-11_09h30.32.012,task,2021.1.4,Win32,120.0624325,6299f149e92ead563fba08ef,62a4447bb786af9384ba2280,,,,,,,,,,,,,,,,,,,,,,,,,,,,,,,,,,,,,,,,,,,,,,,,,,,,,,,,,,,,,,,,,,,,,,,,,,,,,,,,,,,,,,,,,,,,"[""period""]",0,[0.2589000000954229],30,0,30,0,1,,
,,,,,,,,,,,,604784025572562991fa9638,27,Kobieta,2022-06-11_09h30.32.012,task,2021.1.4,Win32,120.0624325,6299f149e92ead563fba08ef,62a4447bb786af9384ba2280,,,,,,,,,,,,,,,,,,,,,,,,,,,,,,,,,,,,,,,,,,,,,,,,,,,,,,,,,,,,,,,,,,,,,,,,,,,,,,,,,,,,,,,,,,,,"[""comma""]",0,[0.25070000004768644],31,0,31,0,1,,
,,,,,,,,,,,,604784025572562991fa9638,27,Kobieta,2022-06-11_09h30.32.012,task,2021.1.4,Win32,120.0624325,6299f149e92ead563fba08ef,62a4447bb786af9384ba2280,,,,,,,,,,,,,,,,,,,,,,,,,,,,,,,,,,,,,,,,,,,,,,,,,,,,,,,,,,,,,,,,,,,,,,,,,,,,,,,,,,,,,,,,,,,,"[""period""]",0,[0.21710000014309117],32,0,32,0,1,,
,,,,,,,,,,,,604784025572562991fa9638,27,Kobieta,2022-06-11_09h30.32.012,task,2021.1.4,Win32,120.0624325,6299f149e92ead563fba08ef,62a4447bb786af9384ba2280,,,,,,,,,,,,,,,,,,,,,,,,,,,,,,,,,,,,,,,,,,,,,,,,,,,,,,,,,,,,,,,,,,,,,,,,,,,,,,,,,,,,,,,,,,,,"[""comma""]",0,[0.23759999990465985],33,0,33,0,1,,
,,,,,,,,,,,,604784025572562991fa9638,27,Kobieta,2022-06-11_09h30.32.012,task,2021.1.4,Win32,120.0624325,6299f149e92ead563fba08ef,62a4447bb786af9384ba2280,,,,,,,,,,,,,,,,,,,,,,,,,,,,,,,,,,,,,,,,,,,,,,,,,,,,,,,,,,,,,,,,,,,,,,,,,,,,,,,,,,,,,,,,,,,,"[""comma""]",0,[0.24989999985689337],34,0,34,0,1,,
,,,,,,,,,,,,604784025572562991fa9638,27,Kobieta,2022-06-11_09h30.32.012,task,2021.1.4,Win32,120.0624325,6299f149e92ead563fba08ef,62a4447bb786af9384ba2280,,,,,,,,,,,,,,,,,,,,,,,,,,,,,,,,,,,,,,,,,,,,,,,,,,,,,,,,,,,,,,,,,,,,,,,,,,,,,,,,,,,,,,,,,,,,"[""period""]",0,[0.1834999999999809],35,0,35,0,1,,
,,,,,,,,,,,,604784025572562991fa9638,27,Kobieta,2022-06-11_09h30.32.012,task,2021.1.4,Win32,120.0624325,6299f149e92ead563fba08ef,62a4447bb786af9384ba2280,,,,,,,,,,,,,,,,,,,,,,,,,,,,,,,,,,,,,,,,,,,,,,,,,,,,,,,,,,,,,,,,,,,,,,,,,,,,,,,,,,,,,,,,,,,,"[""period""]",0,[0.04890000009538653],36,0,36,0,1,,
,,,,,,,,,,,,604784025572562991fa9638,27,Kobieta,2022-06-11_09h30.32.012,task,2021.1.4,Win32,120.0624325,6299f149e92ead563fba08ef,62a4447bb786af9384ba2280,,,,,,,,,,,,,,,,,,,,,,,,,,,,,,,,,,,,,,,,,,,,,,,,,,,,,,,,,,,,,,,,,,,,,,,,,,,,,,,,,,,,,,,,,,,,"[""comma"",""comma""]",0,"[0.06949999999994816,1.581599999904597]",37,0,37,0,1,,
,,,,,,,,,,,,604784025572562991fa9638,27,Kobieta,2022-06-11_09h30.32.012,task,2021.1.4,Win32,120.0624325,6299f149e92ead563fba08ef,62a4447bb786af9384ba2280,,,,,,,,,,,,,,,,,,,,,,,,,,,,,,,,,,,,,,,,,,,,,,,,,,,,,,,,,,,,,,,,,,,,,,,,,,,,,,,,,,,,,,,,,,,,,0,,38,0,38,0,1,,
,,,,,,,,,,,,604784025572562991fa9638,27,Kobieta,2022-06-11_09h30.32.012,task,2021.1.4,Win32,120.0624325,6299f149e92ead563fba08ef,62a4447bb786af9384ba2280,,,,,,,,,,,,,,,,,,,,,,,,,,,,,,,,,,,,,,,,,,,,,,,,,,,,,,,,,,,,,,,,,,,,,,,,,,,,,,,,,,,,,,,,,,,,"[""period""]",0,[0.2611000001430739],39,0,39,0,1,,
,,,,,,,,,,,,604784025572562991fa9638,27,Kobieta,2022-06-11_09h30.32.012,task,2021.1.4,Win32,120.0624325,6299f149e92ead563fba08ef,62a4447bb786af9384ba2280,,,,,,,,,,,,,,,,,,,,,,,,,,,,,,,,,,,,,,,,,,,,,,,,,,,,,,,,,,,,,,,,,,,,,,,,,,,,,,,,,,,,,,,,,,,,"[""period""]",0,[0.115299999952299],40,0,40,0,1,,
,,,,,,,,,,,,604784025572562991fa9638,27,Kobieta,2022-06-11_09h30.32.012,task,2021.1.4,Win32,120.0624325,6299f149e92ead563fba08ef,62a4447bb786af9384ba2280,,,,,,,,,,,,,,,,,,,,,,,,,,,,,,,,,,,,,,,,,,,,,,,,,,,,,,,,,,,,,,,,,,,,,,,,,,,,,,,,,,,,,,,,,,,,"[""comma""]",0,[0.2235000000000582],41,0,41,0,1,,
,,,,,,,,,,,,604784025572562991fa9638,27,Kobieta,2022-06-11_09h30.32.012,task,2021.1.4,Win32,120.0624325,6299f149e92ead563fba08ef,62a4447bb786af9384ba2280,,,,,,,,,,,,,,,,,,,,,,,,,,,,,,,,,,,,,,,,,,,,,,,,,,,,,,,,,,,,,,,,,,,,,,,,,,,,,,,,,,,,,,,,,,,,"[""period""]",0,[0.04959999990467168],42,0,42,0,1,,
,,,,,,,,,,,,604784025572562991fa9638,27,Kobieta,2022-06-11_09h30.32.012,task,2021.1.4,Win32,120.0624325,6299f149e92ead563fba08ef,62a4447bb786af9384ba2280,,,,,,,,,,,,,,,,,,,,,,,,,,,,,,,,,,,,,,,,,,,,,,,,,,,,,,,,,,,,,,,,,,,,,,,,,,,,,,,,,,,,,,,,,,,,"[""comma""]",0,[0.205799999952319],43,0,43,0,1,,
,,,,,,,,,,,,604784025572562991fa9638,27,Kobieta,2022-06-11_09h30.32.012,task,2021.1.4,Win32,120.0624325,6299f149e92ead563fba08ef,62a4447bb786af9384ba2280,,,,,,,,,,,,,,,,,,,,,,,,,,,,,,,,,,,,,,,,,,,,,,,,,,,,,,,,,,,,,,,,,,,,,,,,,,,,,,,,,,,,,,,,,,,,"[""period""]",0,[0.10229999995226535],44,0,44,0,1,,
,,,,,,,,,,,,604784025572562991fa9638,27,Kobieta,2022-06-11_09h30.32.012,task,2021.1.4,Win32,120.0624325,6299f149e92ead563fba08ef,62a4447bb786af9384ba2280,,,,,,,,,,,,,,,,,,,,,,,,,,,,,,,,,,,,,,,,,,,,,,,,,,,,,,,,,,,,,,,,,,,,,,,,,,,,,,,,,,,,,,,,,,,,"[""comma""]",0,[0.25729999995235175],45,0,45,0,1,,
,,,,,,,,,,,,604784025572562991fa9638,27,Kobieta,2022-06-11_09h30.32.012,task,2021.1.4,Win32,120.0624325,6299f149e92ead563fba08ef,62a4447bb786af9384ba2280,,,,,,,,,,,,,,,,,,,,,,,,,,,,,,,,,,,,,,,,,,,,,,,,,,,,,,,,,,,,,,,,,,,,,,,,,,,,,,,,,,,,,,,,,,,,"[""period""]",0,[0.5074000000953447],46,0,46,0,1,,
,,,,,,,,,,,,604784025572562991fa9638,27,Kobieta,2022-06-11_09h30.32.012,task,2021.1.4,Win32,120.0624325,6299f149e92ead563fba08ef,62a4447bb786af9384ba2280,,,,,,,,,,,,,,,,,,,,,,,,,,,,,,,,,,,,,,,,,,,,,,,,,,,,,,,,,,,,,,,,,,,,,,,,,,,,,,,,,,,,,,,,,,,,"[""period""]",0,[0.29870000004768826],47,0,47,0,1,,
,,,,,,,,,,,,604784025572562991fa9638,27,Kobieta,2022-06-11_09h30.32.012,task,2021.1.4,Win32,120.0624325,6299f149e92ead563fba08ef,62a4447bb786af9384ba2280,,,,,,,,,,,,,,,,,,,,,,,,,,,,,,,,,,,,,,,,,,,,,,,,,,,,,,,,,,,,,,,,,,,,,,,,,,,,,,,,,,,,,,,,,,,,"[""comma""]",0,[0.23740000009536288],48,0,48,0,1,,
,,,,,,,,,,,,604784025572562991fa9638,27,Kobieta,2022-06-11_09h30.32.012,task,2021.1.4,Win32,120.0624325,6299f149e92ead563fba08ef,62a4447bb786af9384ba2280,,,,,,,,,,,,,,,,,,,,,,,,,,,,,,,,,,,,,,,,,,,,,,,,,,,,,,,,,,,,,,,,,,,,,,,,,,,,,,,,,,,,,,,,,,,,"[""period""]",0,[0.29009999990466895],49,0,49,0,1,,
,,,,,,,,,,,,604784025572562991fa9638,27,Kobieta,2022-06-11_09h30.32.012,task,2021.1.4,Win32,120.0624325,6299f149e92ead563fba08ef,62a4447bb786af9384ba2280,,,,,,,,,,,,,,,,,,,,,,,,,,,,,,,,,,,,,,,,,,,,,,,,,,,,,,,,,,,,,,,,,,,,,,,,,,,,,,,,,,,,,,,,,,,,"[""comma""]",0,[0.34270000004778467],50,0,50,0,1,,
,,,,,,,,,,,,604784025572562991fa9638,27,Kobieta,2022-06-11_09h30.32.012,task,2021.1.4,Win32,120.0624325,6299f149e92ead563fba08ef,62a4447bb786af9384ba2280,,,,,,,,,,,,,,,,,,,,,,,,,,,,,,,,,,,,,,,,,,,,,,,,,,,,,,,,,,,,,,,,,,,,,,,,,,,,,,,,,,,,,,,,,,,,"[""period""]",0,[0.26700000000005275],51,0,51,0,1,,
,,,,,,,,,,,,604784025572562991fa9638,27,Kobieta,2022-06-11_09h30.32.012,task,2021.1.4,Win32,120.0624325,6299f149e92ead563fba08ef,62a4447bb786af9384ba2280,,,,,,,,,,,,,,,,,,,,,,,,,,,,,,,,,,,,,,,,,,,,,,,,,,,,,,,,,,,,,,,,,,,,,,,,,,,,,,,,,,,,,,,,,,,,"[""comma""]",0,[0.27549999999996544],52,0,52,0,1,,
,,,,,,,,,,,,604784025572562991fa9638,27,Kobieta,2022-06-11_09h30.32.012,task,2021.1.4,Win32,120.0624325,6299f149e92ead563fba08ef,62a4447bb786af9384ba2280,,,,,,,,,,,,,,,,,,,,,,,,,,,,,,,,,,,,,,,,,,,,,,,,,,,,,,,,,,,,,,,,,,,,,,,,,,,,,,,,,,,,,,,,,,,,"[""period""]",0,[0.3420999999045762],53,0,53,0,1,,
,,,,,,,,,,,,604784025572562991fa9638,27,Kobieta,2022-06-11_09h30.32.012,task,2021.1.4,Win32,120.0624325,6299f149e92ead563fba08ef,62a4447bb786af9384ba2280,,,,,,,,,,,,,,,,,,,,,,,,,,,,,,,,,,,,,,,,,,,,,,,,,,,,,,,,,,,,,,,,,,,,,,,,,,,,,,,,,,,,,,,,,,,,"[""comma""]",0,[0.28379999995229355],54,0,54,0,1,,
,,,,,,,,,,,,604784025572562991fa9638,27,Kobieta,2022-06-11_09h30.32.012,task,2021.1.4,Win32,120.0624325,6299f149e92ead563fba08ef,62a4447bb786af9384ba2280,,,,,,,,,,,,,,,,,,,,,,,,,,,,,,,,,,,,,,,,,,,,,,,,,,,,,,,,,,,,,,,,,,,,,,,,,,,,,,,,,,,,,,,,,,,,"[""period""]",0,[0.27549999999996544],55,0,55,0,1,,
,,,,,,,,,,,,604784025572562991fa9638,27,Kobieta,2022-06-11_09h30.32.012,task,2021.1.4,Win32,120.0624325,6299f149e92ead563fba08ef,62a4447bb786af9384ba2280,,,,,,,,,,,,,,,,,,,,,,,,,,,,,,,,,,,,,,,,,,,,,,,,,,,,,,,,,,,,,,,,,,,,,,,,,,,,,,,,,,,,,,,,,,,,"[""comma""]",0,[0.25009999990459164],56,0,56,0,1,,
,,,,,,,,,,,,604784025572562991fa9638,27,Kobieta,2022-06-11_09h30.32.012,task,2021.1.4,Win32,120.0624325,6299f149e92ead563fba08ef,62a4447bb786af9384ba2280,,,,,,,,,,,,,,,,,,,,,,,,,,,,,,,,,,,,,,,,,,,,,,,,,,,,,,,,,,,,,,,,,,,,,,,,,,,,,,,,,,,,,,,,,,,,"[""period""]",0,[0.7751000001429702],57,0,57,0,1,,
,,,,,,,,,,,,604784025572562991fa9638,27,Kobieta,2022-06-11_09h30.32.012,task,2021.1.4,Win32,120.0624325,6299f149e92ead563fba08ef,62a4447bb786af9384ba2280,,,,,,,,,,,,,,,,,,,,,,,,,,,,,,,,,,,,,,,,,,,,,,,,,,,,,,,,,,,,,,,,,,,,,,,,,,,,,,,,,,,,,,,,,,,,"[""comma""]",0,[0.2531000001431494],58,0,58,0,1,,
,,,,,,,,,,,,604784025572562991fa9638,27,Kobieta,2022-06-11_09h30.32.012,task,2021.1.4,Win32,120.0624325,6299f149e92ead563fba08ef,62a4447bb786af9384ba2280,,,,,,,,,,,,,,,,,,,,,,,,,,,,,,,,,,,,,,,,,,,,,,,,,,,,,,,,,,,,,,,,,,,,,,,,,,,,,,,,,,,,,,,,,,,,"[""period""]",0,[0.23240000009536743],59,0,59,0,1,,
,,,,,,,,,,,,604784025572562991fa9638,27,Kobieta,2022-06-11_09h30.32.012,task,2021.1.4,Win32,120.0624325,6299f149e92ead563fba08ef,62a4447bb786af9384ba2280,,,,,,,,,,,,,,,,,,,,,,,,,,,,,,,,,,,,,,,,,,,,,,,,,,,,,,,,,,,,,,,,,,,,,,,,,,,,,,,,,,,,,,,,,,,,"[""comma""]",0,[0.21550000000002],60,0,60,0,1,,
,,,,,,,,,,,,604784025572562991fa9638,27,Kobieta,2022-06-11_09h30.32.012,task,2021.1.4,Win32,120.0624325,6299f149e92ead563fba08ef,62a4447bb786af9384ba2280,,,,,,,,,,,,,,,,,,,,,,,,,,,,,,,,,,,,,,,,,,,,,,,,,,,,,,,,,,,,,,,,,,,,,,,,,,,,,,,,,,,,,,,,,,,,"[""period""]",0,[0.33009999990463257],61,0,61,0,1,,
,,,,,,,,,,,,604784025572562991fa9638,27,Kobieta,2022-06-11_09h30.32.012,task,2021.1.4,Win32,120.0624325,6299f149e92ead563fba08ef,62a4447bb786af9384ba2280,,,,,,,,,,,,,,,,,,,,,,,,,,,,,,,,,,,,,,,,,,,,,,,,,,,,,,,,,,,,,,,,,,,,,,,,,,,,,,,,,,,,,,,,,,,,"[""comma""]",0,[0.21559999990461165],62,0,62,0,1,,
,,,,,,,,,,,,604784025572562991fa9638,27,Kobieta,2022-06-11_09h30.32.012,task,2021.1.4,Win32,120.0624325,6299f149e92ead563fba08ef,62a4447bb786af9384ba2280,,,,,,,,,,,,,,,,,,,,,,,,,,,,,,,,,,,,,,,,,,,,,,,,,,,,,,,,,,,,,,,,,,,,,,,,,,,,,,,,,,,,,,,,,,,,"[""comma""]",0,[0.5220000000000482],63,0,63,0,1,,
,,,,,,,,,,,,604784025572562991fa9638,27,Kobieta,2022-06-11_09h30.32.012,task,2021.1.4,Win32,120.0624325,6299f149e92ead563fba08ef,62a4447bb786af9384ba2280,,,,,,,,,,,,,,,,,,,,,,,,,,,,,,,,,,,,,,,,,,,,,,,,,,,,,,,,,,,,,,,,,,,,,,,,,,,,,,,,,,,,,,,,,,,,"[""period""]",0,[0.9082000000477137],64,0,64,0,1,,
,,,,,,,,,,,,604784025572562991fa9638,27,Kobieta,2022-06-11_09h30.32.012,task,2021.1.4,Win32,120.0624325,6299f149e92ead563fba08ef,62a4447bb786af9384ba2280,,,,,,,,,,,,,,,,,,,,,,,,,,,,,,,,,,,,,,,,,,,,,,,,,,,,,,,,,,,,,,,,,,,,,,,,,,,,,,,,,,,,,,,,,,,,"[""period""]",0,[0.3495999999046262],65,0,65,0,1,,
,,,,,,,,,,,,604784025572562991fa9638,27,Kobieta,2022-06-11_09h30.32.012,task,2021.1.4,Win32,120.0624325,6299f149e92ead563fba08ef,62a4447bb786af9384ba2280,,,,,,,,,,,,,,,,,,,,,,,,,,,,,,,,,,,,,,,,,,,,,,,,,,,,,,,,,,,,,,,,,,,,,,,,,,,,,,,,,,,,,,,,,,,,"[""comma""]",0,[0.5787999999522526],66,0,66,0,1,,
,,,,,,,,,,,,604784025572562991fa9638,27,Kobieta,2022-06-11_09h30.32.012,task,2021.1.4,Win32,120.0624325,6299f149e92ead563fba08ef,62a4447bb786af9384ba2280,,,,,,,,,,,,,,,,,,,,,,,,,,,,,,,,,,,,,,,,,,,,,,,,,,,,,,,,,,,,,,,,,,,,,,,,,,,,,,,,,,,,,,,,,,,,"[""period""]",0,[0.3628000001907594],67,0,67,0,1,,
,,,,,,,,,,,,604784025572562991fa9638,27,Kobieta,2022-06-11_09h30.32.012,task,2021.1.4,Win32,120.0624325,6299f149e92ead563fba08ef,62a4447bb786af9384ba2280,,,,,,,,,,,,,,,,,,,,,,,,,,,,,,,,,,,,,,,,,,,,,,,,,,,,,,,,,,,,,,,,,,,,,,,,,,,,,,,,,,,,,,,,,,,,"[""comma""]",0,[0.8157999999523327],68,0,68,0,1,,
,,,,,,,,,,,,604784025572562991fa9638,27,Kobieta,2022-06-11_09h30.32.012,task,2021.1.4,Win32,120.0624325,6299f149e92ead563fba08ef,62a4447bb786af9384ba2280,,,,,,,,,,,,,,,,,,,,,,,,,,,,,,,,,,,,,,,,,,,,,,,,,,,,,,,,,,,,,,,,,,,,,,,,,,,,,,,,,,,,,,,,,,,,"[""comma""]",0,[0.21179999995229082],69,0,69,0,1,,
,,,,,,,,,,,,604784025572562991fa9638,27,Kobieta,2022-06-11_09h30.32.012,task,2021.1.4,Win32,120.0624325,6299f149e92ead563fba08ef,62a4447bb786af9384ba2280,,,,,,,,,,,,,,,,,,,,,,,,,,,,,,,,,,,,,,,,,,,,,,,,,,,,,,,,,,,,,,,,,,,,,,,,,,,,,,,,,,,,,,,,,,,,"[""comma""]",0,[0.22899999999992815],70,0,70,0,1,,
,,,,,,,,,,,,604784025572562991fa9638,27,Kobieta,2022-06-11_09h30.32.012,task,2021.1.4,Win32,120.0624325,6299f149e92ead563fba08ef,62a4447bb786af9384ba2280,,,,,,,,,,,,,,,,,,,,,,,,,,,,,,,,,,,,,,,,,,,,,,,,,,,,,,,,,,,,,,,,,,,,,,,,,,,,,,,,,,,,,,,,,,,,"[""comma""]",0,[0.20140000009530468],71,0,71,0,1,,
,,,,,,,,,,,,604784025572562991fa9638,27,Kobieta,2022-06-11_09h30.32.012,task,2021.1.4,Win32,120.0624325,6299f149e92ead563fba08ef,62a4447bb786af9384ba2280,,,,,,,,,,,,,,,,,,,,,,,,,,,,,,,,,,,,,,,,,,,,,,,,,,,,,,,,,,,,,,,,,,,,,,,,,,,,,,,,,,,,,,,,,,,,"[""comma""]",0,[0.2851000001429611],72,0,72,0,1,,
,,,,,,,,,,,,604784025572562991fa9638,27,Kobieta,2022-06-11_09h30.32.012,task,2021.1.4,Win32,120.0624325,6299f149e92ead563fba08ef,62a4447bb786af9384ba2280,,,,,,,,,,,,,,,,,,,,,,,,,,,,,,,,,,,,,,,,,,,,,,,,,,,,,,,,,,,,,,,,,,,,,,,,,,,,,,,,,,,,,,,,,,,,"[""comma""]",0,[0.17429999995238177],73,0,73,0,1,,
,,,,,,,,,,,,604784025572562991fa9638,27,Kobieta,2022-06-11_09h30.32.012,task,2021.1.4,Win32,120.0624325,6299f149e92ead563fba08ef,62a4447bb786af9384ba2280,,,,,,,,,,,,,,,,,,,,,,,,,,,,,,,,,,,,,,,,,,,,,,,,,,,,,,,,,,,,,,,,,,,,,,,,,,,,,,,,,,,,,,,,,,,,"[""comma""]",0,[0.18419999980926605],74,0,74,0,1,,
,,,,,,,,,,,,604784025572562991fa9638,27,Kobieta,2022-06-11_09h30.32.012,task,2021.1.4,Win32,120.0624325,6299f149e92ead563fba08ef,62a4447bb786af9384ba2280,,,,,,,,,,,,,,,,,,,,,,,,,,,,,,,,,,,,,,,,,,,,,,,,,,,,,,,,,,,,,,,,,,,,,,,,,,,,,,,,,,,,,,,,,,,,"[""period""]",0,[0.24310000014304478],75,0,75,0,1,,
,,,,,,,,,,,,604784025572562991fa9638,27,Kobieta,2022-06-11_09h30.32.012,task,2021.1.4,Win32,120.0624325,6299f149e92ead563fba08ef,62a4447bb786af9384ba2280,,,,,,,,,,,,,,,,,,,,,,,,,,,,,,,,,,,,,,,,,,,,,,,,,,,,,,,,,,,,,,,,,,,,,,,,,,,,,,,,,,,,,,,,,,,,"[""period""]",0,[0.12389999985691702],76,0,76,0,1,,
,,,,,,,,,,,,604784025572562991fa9638,27,Kobieta,2022-06-11_09h30.32.012,task,2021.1.4,Win32,120.0624325,6299f149e92ead563fba08ef,62a4447bb786af9384ba2280,,,,,,,,,,,,,,,,,,,,,,,,,,,,,,,,,,,,,,,,,,,,,,,,,,,,,,,,,,,,,,,,,,,,,,,,,,,,,,,,,,,,,,,,,,,,"[""period""]",0,[0.33229999995239723],77,0,77,0,1,,
,,,,,,,,,,,,604784025572562991fa9638,27,Kobieta,2022-06-11_09h30.32.012,task,2021.1.4,Win32,120.0624325,6299f149e92ead563fba08ef,62a4447bb786af9384ba2280,,,,,,,,,,,,,,,,,,,,,,,,,,,,,,,,,,,,,,,,,,,,,,,,,,,,,,,,,,,,,,,,,,,,,,,,,,,,,,,,,,,,,,,,,,,,"[""period""]",0,[1.1980999999046844],78,0,78,0,1,,
,,,,,,,,,,,,604784025572562991fa9638,27,Kobieta,2022-06-11_09h30.32.012,task,2021.1.4,Win32,120.0624325,6299f149e92ead563fba08ef,62a4447bb786af9384ba2280,,,,,,,,,,,,,,,,,,,,,,,,,,,,,,,,,,,,,,,,,,,,,,,,,,,,,,,,,,,,,,,,,,,,,,,,,,,,,,,,,,,,,,,,,,,,"[""comma""]",0,[0.22390000009545474],79,0,79,0,1,,
,,,,,,,,,,,,604784025572562991fa9638,27,Kobieta,2022-06-11_09h30.32.012,task,2021.1.4,Win32,120.0624325,6299f149e92ead563fba08ef,62a4447bb786af9384ba2280,,,,,,,,,,,,,,,,,,,,,,,,,,,,,,,,,,,,,,,,,,,,,,,,,,,,,,,,,,,,,,,,,,,,,,,,,,,,,,,,,,,,,,,,,,,,"[""period""]",0,[0.09020000004761641],80,0,80,0,1,,
,,,,,,,,,,,,604784025572562991fa9638,27,Kobieta,2022-06-11_09h30.32.012,task,2021.1.4,Win32,120.0624325,6299f149e92ead563fba08ef,62a4447bb786af9384ba2280,,,,,,,,,,,,,,,,,,,,,,,,,,,,,,,,,,,,,,,,,,,,,,,,,,,,,,,,,,,,,,,,,,,,,,,,,,,,,,,,,,,,,,,,,,,,"[""comma""]",0,[0.06970000004764643],81,0,81,0,1,,
,,,,,,,,,,,,604784025572562991fa9638,27,Kobieta,2022-06-11_09h30.32.012,task,2021.1.4,Win32,120.0624325,6299f149e92ead563fba08ef,62a4447bb786af9384ba2280,,,,,,,,,,,,,,,,,,,,,,,,,,,,,,,,,,,,,,,,,,,,,,,,,,,,,,,,,,,,,,,,,,,,,,,,,,,,,,,,,,,,,,,,,,,,"[""period""]",0,[0.12079999995228263],82,0,82,0,1,,
,,,,,,,,,,,,604784025572562991fa9638,27,Kobieta,2022-06-11_09h30.32.012,task,2021.1.4,Win32,120.0624325,6299f149e92ead563fba08ef,62a4447bb786af9384ba2280,,,,,,,,,,,,,,,,,,,,,,,,,,,,,,,,,,,,,,,,,,,,,,,,,,,,,,,,,,,,,,,,,,,,,,,,,,,,,,,,,,,,,,,,,,,,"[""comma""]",0,[0.24919999980920693],83,0,83,0,1,,
,,,,,,,,,,,,604784025572562991fa9638,27,Kobieta,2022-06-11_09h30.32.012,task,2021.1.4,Win32,120.0624325,6299f149e92ead563fba08ef,62a4447bb786af9384ba2280,,,,,,,,,,,,,,,,,,,,,,,,,,,,,,,,,,,,,,,,,,,,,,,,,,,,,,,,,,,,,,,,,,,,,,,,,,,,,,,,,,,,,,,,,,,,"[""period""]",0,[0.22469999980921784],84,0,84,0,1,,
,,,,,,,,,,,,604784025572562991fa9638,27,Kobieta,2022-06-11_09h30.32.012,task,2021.1.4,Win32,120.0624325,6299f149e92ead563fba08ef,62a4447bb786af9384ba2280,,,,,,,,,,,,,,,,,,,,,,,,,,,,,,,,,,,,,,,,,,,,,,,,,,,,,,,,,,,,,,,,,,,,,,,,,,,,,,,,,,,,,,,,,,,,"[""comma""]",0,[0.23699999999996635],85,0,85,0,1,,
,,,,,,,,,,,,604784025572562991fa9638,27,Kobieta,2022-06-11_09h30.32.012,task,2021.1.4,Win32,120.0624325,6299f149e92ead563fba08ef,62a4447bb786af9384ba2280,,,,,,,,,,,,,,,,,,,,,,,,,,,,,,,,,,,,,,,,,,,,,,,,,,,,,,,,,,,,,,,,,,,,,,,,,,,,,,,,,,,,,,,,,,,,"[""period""]",0,[0.22300000000007003],86,0,86,0,1,,
,,,,,,,,,,,,604784025572562991fa9638,27,Kobieta,2022-06-11_09h30.32.012,task,2021.1.4,Win32,120.0624325,6299f149e92ead563fba08ef,62a4447bb786af9384ba2280,,,,,,,,,,,,,,,,,,,,,,,,,,,,,,,,,,,,,,,,,,,,,,,,,,,,,,,,,,,,,,,,,,,,,,,,,,,,,,,,,,,,,,,,,,,,"[""period""]",0,[0.19910000014306206],87,0,87,0,1,,
,,,,,,,,,,,,604784025572562991fa9638,27,Kobieta,2022-06-11_09h30.32.012,task,2021.1.4,Win32,120.0624325,6299f149e92ead563fba08ef,62a4447bb786af9384ba2280,,,,,,,,,,,,,,,,,,,,,,,,,,,,,,,,,,,,,,,,,,,,,,,,,,,,,,,,,,,,,,,,,,,,,,,,,,,,,,,,,,,,,,,,,,,,"[""comma""]",0,[0.2681999998093261],88,0,88,0,1,,
,,,,,,,,,,,,604784025572562991fa9638,27,Kobieta,2022-06-11_09h30.32.012,task,2021.1.4,Win32,120.0624325,6299f149e92ead563fba08ef,62a4447bb786af9384ba2280,,,,,,,,,,,,,,,,,,,,,,,,,,,,,,,,,,,,,,,,,,,,,,,,,,,,,,,,,,,,,,,,,,,,,,,,,,,,,,,,,,,,,,,,,,,,"[""period""]",0,[0.20000000000004547],89,0,89,0,1,,
,,,,,,,,,,,,604784025572562991fa9638,27,Kobieta,2022-06-11_09h30.32.012,task,2021.1.4,Win32,120.0624325,6299f149e92ead563fba08ef,62a4447bb786af9384ba2280,,,,,,,,,,,,,,,,,,,,,,,,,,,,,,,,,,,,,,,,,,,,,,,,,,,,,,,,,,,,,,,,,,,,,,,,,,,,,,,,,,,,,,,,,,,,"[""comma""]",0,[0.0681999998092806],90,0,90,0,1,,
,,,,,,,,,,,,604784025572562991fa9638,27,Kobieta,2022-06-11_09h30.32.012,task,2021.1.4,Win32,120.0624325,6299f149e92ead563fba08ef,62a4447bb786af9384ba2280,,,,,,,,,,,,,,,,,,,,,,,,,,,,,,,,,,,,,,,,,,,,,,,,,,,,,,,,,,,,,,,,,,,,,,,,,,,,,,,,,,,,,,,,,,,,"[""period""]",0,[0.23500000000001364],91,0,91,0,1,,
,,,,,,,,,,,,604784025572562991fa9638,27,Kobieta,2022-06-11_09h30.32.012,task,2021.1.4,Win32,120.0624325,6299f149e92ead563fba08ef,62a4447bb786af9384ba2280,,,,,,,,,,,,,,,,,,,,,,,,,,,,,,,,,,,,,,,,,,,,,,,,,,,,,,,,,,,,,,,,,,,,,,,,,,,,,,,,,,,,,,,,,,,,"[""period""]",0,[0.2567999999523636],92,0,92,0,1,,
,,,,,,,,,,,,604784025572562991fa9638,27,Kobieta,2022-06-11_09h30.32.012,task,2021.1.4,Win32,120.0624325,6299f149e92ead563fba08ef,62a4447bb786af9384ba2280,,,,,,,,,,,,,,,,,,,,,,,,,,,,,,,,,,,,,,,,,,,,,,,,,,,,,,,,,,,,,,,,,,,,,,,,,,,,,,,,,,,,,,,,,,,,"[""period""]",0,[0.22839999985694703],93,0,93,0,1,,
,,,,,,,,,,,,604784025572562991fa9638,27,Kobieta,2022-06-11_09h30.32.012,task,2021.1.4,Win32,120.0624325,6299f149e92ead563fba08ef,62a4447bb786af9384ba2280,,,,,,,,,,,,,,,,,,,,,,,,,,,,,,,,,,,,,,,,,,,,,,,,,,,,,,,,,,,,,,,,,,,,,,,,,,,,,,,,,,,,,,,,,,,,"[""period""]",0,[0.27329999995231447],94,0,94,0,1,,
,,,,,,,,,,,,604784025572562991fa9638,27,Kobieta,2022-06-11_09h30.32.012,task,2021.1.4,Win32,120.0624325,6299f149e92ead563fba08ef,62a4447bb786af9384ba2280,,,,,,,,,,,,,,,,,,,,,,,,,,,,,,,,,,,,,,,,,,,,,,,,,,,,,,,,,,,,,,,,,,,,,,,,,,,,,,,,,,,,,,,,,,,,"[""period""]",0,[0.24620000004767917],95,0,95,0,1,,
,,,,,,,,,,,,604784025572562991fa9638,27,Kobieta,2022-06-11_09h30.32.012,task,2021.1.4,Win32,120.0624325,6299f149e92ead563fba08ef,62a4447bb786af9384ba2280,,,,,,,,,,,,,,,,,,,,,,,,,,,,,,,,,,,,,,,,,,,,,,,,,,,,,,,,,,,,,,,,,,,,,,,,,,,,,,,,,,,,,,,,,,,,"[""period""]",0,[0.17690000009542928],96,0,96,0,1,,
,,,,,,,,,,,,604784025572562991fa9638,27,Kobieta,2022-06-11_09h30.32.012,task,2021.1.4,Win32,120.0624325,6299f149e92ead563fba08ef,62a4447bb786af9384ba2280,,,,,,,,,,,,,,,,,,,,,,,,,,,,,,,,,,,,,,,,,,,,,,,,,,,,,,,,,,,,,,,,,,,,,,,,,,,,,,,,,,,,,,,,,,,,"[""period""]",0,[0.16679999995233175],97,0,97,0,1,,
,,,,,,,,,,,,604784025572562991fa9638,27,Kobieta,2022-06-11_09h30.32.012,task,2021.1.4,Win32,120.0624325,6299f149e92ead563fba08ef,62a4447bb786af9384ba2280,,,,,,,,,,,,,,,,,,,,,,,,,,,,,,,,,,,,,,,,,,,,,,,,,,,,,,,,,,,,,,,,,,,,,,,,,,,,,,,,,,,,,,,,,,,,"[""period""]",0,[0.0404999999999518],98,0,98,0,1,,
,,,,,,,,,,,,604784025572562991fa9638,27,Kobieta,2022-06-11_09h30.32.012,task,2021.1.4,Win32,120.0624325,6299f149e92ead563fba08ef,62a4447bb786af9384ba2280,,,,,,,,,,,,,,,,,,,,,,,,,,,,,,,,,,,,,,,,,,,,,,,,,,,,,,,,,,,,,,,,,,,,,,,,,,,,,,,,,,,,,,,,,,,,"[""period""]",0,[0.00040000009539653547],99,0,99,0,1,,
,,,,,,,,,,,,604784025572562991fa9638,27,Kobieta,2022-06-11_09h30.32.012,task,2021.1.4,Win32,120.0624325,6299f149e92ead563fba08ef,62a4447bb786af9384ba2280,,,,,,,,,,,,,,,,,,,,,,,,,,,,,,,,,,,,,,,,,,,,,,,,,,,,,,,,,,,,,,,,,,,,,,,,,,,,,,,,,,,,,,,,,,,,"[""comma"",""period""]",0,"[0.08460000014304114,1.956600000143112]",100,0,100,0,1,,
,,,,,,,,,,,,604784025572562991fa9638,27,Kobieta,2022-06-11_09h30.32.012,task,2021.1.4,Win32,120.0624325,6299f149e92ead563fba08ef,62a4447bb786af9384ba2280,,,,,,,,,,,,,,,,,,,,,,,,,,,,,,,,,,,,,,,,,,,,,,,,,,,,,,,,,,,,,,,,,,,,,,,,,,,,,,,,,,,,,,,,,,,,"[""period""]",0,[1.9776000001430702],101,0,101,0,1,,
,,,,,,,,,,,,604784025572562991fa9638,27,Kobieta,2022-06-11_09h30.32.012,task,2021.1.4,Win32,120.0624325,6299f149e92ead563fba08ef,62a4447bb786af9384ba2280,,,,,,,,,,,,,,,,,,,,,,,,,,,,,,,,,,,,,,,,,,,,,,,,,,,,,,,,,,,,,,,,,,,,,,,,,,,,,,,,,,,,,,,,,,,,,0,,102,0,102,0,1,,
,,,,,,,,,,,,604784025572562991fa9638,27,Kobieta,2022-06-11_09h30.32.012,task,2021.1.4,Win32,120.0624325,6299f149e92ead563fba08ef,62a4447bb786af9384ba2280,,,,,,,,,,,,,,,,,,,,,,,,,,,,,,,,,,,,,,,,,,,,,,,,,,,,,,,,,,,,,,,,,,,,,,,,,,,,,,,,,,,,,,,,,,,,"[""comma""]",0,[0.03220000004762369],103,0,103,0,1,,
,,,,,,,,,,,,604784025572562991fa9638,27,Kobieta,2022-06-11_09h30.32.012,task,2021.1.4,Win32,120.0624325,6299f149e92ead563fba08ef,62a4447bb786af9384ba2280,,,,,,,,,,,,,,,,,,,,,,,,,,,,,,,,,,,,,,,,,,,,,,,,,,,,,,,,,,,,,,,,,,,,,,,,,,,,,,,,,,,,,,,,,,,,"[""period""]",0,[0.2657000000476728],104,0,104,0,1,,
,,,,,,,,,,,,604784025572562991fa9638,27,Kobieta,2022-06-11_09h30.32.012,task,2021.1.4,Win32,120.0624325,6299f149e92ead563fba08ef,62a4447bb786af9384ba2280,,,,,,,,,,,,,,,,,,,,,,,,,,,,,,,,,,,,,,,,,,,,,,,,,,,,,,,,,,,,,,,,,,,,,,,,,,,,,,,,,,,,,,,,,,,,"[""period""]",0,[0.1868999998569052],105,0,105,0,1,,
,,,,,,,,,,,,604784025572562991fa9638,27,Kobieta,2022-06-11_09h30.32.012,task,2021.1.4,Win32,120.0624325,6299f149e92ead563fba08ef,62a4447bb786af9384ba2280,,,,,,,,,,,,,,,,,,,,,,,,,,,,,,,,,,,,,,,,,,,,,,,,,,,,,,,,,,,,,,,,,,,,,,,,,,,,,,,,,,,,,,,,,,,,"[""comma""]",0,[0.12629999995237995],106,0,106,0,1,,
,,,,,,,,,,,,604784025572562991fa9638,27,Kobieta,2022-06-11_09h30.32.012,task,2021.1.4,Win32,120.0624325,6299f149e92ead563fba08ef,62a4447bb786af9384ba2280,,,,,,,,,,,,,,,,,,,,,,,,,,,,,,,,,,,,,,,,,,,,,,,,,,,,,,,,,,,,,,,,,,,,,,,,,,,,,,,,,,,,,,,,,,,,"[""period""]",0,[0.1169999999999618],107,0,107,0,1,,
,,,,,,,,,,,,604784025572562991fa9638,27,Kobieta,2022-06-11_09h30.32.012,task,2021.1.4,Win32,120.0624325,6299f149e92ead563fba08ef,62a4447bb786af9384ba2280,,,,,,,,,,,,,,,,,,,,,,,,,,,,,,,,,,,,,,,,,,,,,,,,,,,,,,,,,,,,,,,,,,,,,,,,,,,,,,,,,,,,,,,,,,,,"[""comma""]",0,[0.09349999999994907],108,0,108,0,1,,
,,,,,,,,,,,,604784025572562991fa9638,27,Kobieta,2022-06-11_09h30.32.012,task,2021.1.4,Win32,120.0624325,6299f149e92ead563fba08ef,62a4447bb786af9384ba2280,,,,,,,,,,,,,,,,,,,,,,,,,,,,,,,,,,,,,,,,,,,,,,,,,,,,,,,,,,,,,,,,,,,,,,,,,,,,,,,,,,,,,,,,,,,,"[""period""]",0,[0.5425000000000182],109,0,109,0,1,,
,,,,,,,,,,,,604784025572562991fa9638,27,Kobieta,2022-06-11_09h30.32.012,task,2021.1.4,Win32,120.0624325,6299f149e92ead563fba08ef,62a4447bb786af9384ba2280,,,,,,,,,,,,,,,,,,,,,,,,,,,,,,,,,,,,,,,,,,,,,,,,,,,,,,,,,,,,,,,,,,,,,,,,,,,,,,,,,,,,,,,,,,,,"[""period""]",0,[0.5621999998093088],110,0,110,0,1,,
,,,,,,,,,,,,604784025572562991fa9638,27,Kobieta,2022-06-11_09h30.32.012,task,2021.1.4,Win32,120.0624325,6299f149e92ead563fba08ef,62a4447bb786af9384ba2280,,,,,,,,,,,,,,,,,,,,,,,,,,,,,,,,,,,,,,,,,,,,,,,,,,,,,,,,,,,,,,,,,,,,,,,,,,,,,,,,,,,,,,,,,,,,"[""comma""]",0,[0.3422000000476828],111,0,111,0,1,,
,,,,,,,,,,,,604784025572562991fa9638,27,Kobieta,2022-06-11_09h30.32.012,task,2021.1.4,Win32,120.0624325,6299f149e92ead563fba08ef,62a4447bb786af9384ba2280,,,,,,,,,,,,,,,,,,,,,,,,,,,,,,,,,,,,,,,,,,,,,,,,,,,,,,,,,,,,,,,,,,,,,,,,,,,,,,,,,,,,,,,,,,,,"[""period""]",0,[0.2922999999523199],112,0,112,0,1,,
,,,,,,,,,,,,604784025572562991fa9638,27,Kobieta,2022-06-11_09h30.32.012,task,2021.1.4,Win32,120.0624325,6299f149e92ead563fba08ef,62a4447bb786af9384ba2280,,,,,,,,,,,,,,,,,,,,,,,,,,,,,,,,,,,,,,,,,,,,,,,,,,,,,,,,,,,,,,,,,,,,,,,,,,,,,,,,,,,,,,,,,,,,"[""comma""]",0,[0.19259999990470078],113,0,113,0,1,,
,,,,,,,,,,,,604784025572562991fa9638,27,Kobieta,2022-06-11_09h30.32.012,task,2021.1.4,Win32,120.0624325,6299f149e92ead563fba08ef,62a4447bb786af9384ba2280,,,,,,,,,,,,,,,,,,,,,,,,,,,,,,,,,,,,,,,,,,,,,,,,,,,,,,,,,,,,,,,,,,,,,,,,,,,,,,,,,,,,,,,,,,,,"[""period""]",0,[0.33410000014305297],114,0,114,0,1,,
,,,,,,,,,,,,604784025572562991fa9638,27,Kobieta,2022-06-11_09h30.32.012,task,2021.1.4,Win32,120.0624325,6299f149e92ead563fba08ef,62a4447bb786af9384ba2280,,,,,,,,,,,,,,,,,,,,,,,,,,,,,,,,,,,,,,,,,,,,,,,,,,,,,,,,,,,,,,,,,,,,,,,,,,,,,,,,,,,,,,,,,,,,"[""comma""]",0,[0.5766999998091933],115,0,115,0,1,,
,,,,,,,,,,,,604784025572562991fa9638,27,Kobieta,2022-06-11_09h30.32.012,task,2021.1.4,Win32,120.0624325,6299f149e92ead563fba08ef,62a4447bb786af9384ba2280,,,,,,,,,,,,,,,,,,,,,,,,,,,,,,,,,,,,,,,,,,,,,,,,,,,,,,,,,,,,,,,,,,,,,,,,,,,,,,,,,,,,,,,,,,,,"[""period""]",0,[0.30920000004766734],116,0,116,0,1,,
,,,,,,,,,,,,604784025572562991fa9638,27,Kobieta,2022-06-11_09h30.32.012,task,2021.1.4,Win32,120.0624325,6299f149e92ead563fba08ef,62a4447bb786af9384ba2280,,,,,,,,,,,,,,,,,,,,,,,,,,,,,,,,,,,,,,,,,,,,,,,,,,,,,,,,,,,,,,,,,,,,,,,,,,,,,,,,,,,,,,,,,,,,"[""comma""]",0,[0.1992000000476537],117,0,117,0,1,,
