key_resp_15.keys,key_resp_15.rt,key_resp_13.keys,key_resp_13.corr,ranodm_loop.thisRepN,ranodm_loop.thisTrialN,ranodm_loop.thisN,ranodm_loop.thisIndex,ranodm_loop.ran,participant,Wiek*,Płeć,date,expName,psychopyVersion,OS,frameRate,study_id,session,key_resp_13.rt,key_resp_16.keys,key_resp_16.rt,key_resp_4.keys,key_resp_4.rt,next_letter.thisRepN,next_letter.thisTrialN,next_letter.thisN,next_letter.thisIndex,next_letter.ran,letter,simple_recall,key_resp_5.keys,key_resp_5.rt,simple_recall_corr,simple_recall_corrkeys,next_level.thisRepN,next_level.thisTrialN,next_level.thisN,next_level.thisIndex,next_level.ran,key_resp_2.keys,key_resp_2.rt,digit_answer,key_resp.keys,key_resp.corr,key_resp.rt,RT_list,next_equation.thisRepN,next_equation.thisTrialN,next_equation.thisN,next_equation.thisIndex,next_equation.ran,Task,Trial,Problem,Operation_answer,processing_score,sumRT,meanRT,sumdiff,sd,RT,key_resp_3.keys,key_resp_3.rt,repeat_practice.thisRepN,repeat_practice.thisTrialN,repeat_practice.thisN,repeat_practice.thisIndex,repeat_practice.ran,key_resp_6.keys,key_resp_6.rt,key_resp_11.keys,key_resp_11.corr,key_resp_11.rt,operation_correct,repeat_if_wrong_prac.thisRepN,repeat_if_wrong_prac.thisTrialN,repeat_if_wrong_prac.thisN,repeat_if_wrong_prac.thisIndex,repeat_if_wrong_prac.ran,span_size_prac.thisRepN,span_size_prac.thisTrialN,span_size_prac.thisN,span_size_prac.thisIndex,span_size_prac.ran,complex_recall_practice,key_resp_9.keys,key_resp_9.corr,key_resp_9.rt,complex_prac_corr,span_recall_prac.thisRepN,span_recall_prac.thisTrialN,span_recall_prac.thisN,span_recall_prac.thisIndex,span_recall_prac.ran,key_resp_10.keys,key_resp_10.rt,key_resp_7.keys,key_resp_7.corr,key_resp_7.rt,repeat_if_wrong.thisRepN,repeat_if_wrong.thisTrialN,repeat_if_wrong.thisN,repeat_if_wrong.thisIndex,repeat_if_wrong.ran,span_size.thisRepN,span_size.thisTrialN,span_size.thisN,span_size.thisIndex,span_size.ran,complex_recall,key_resp_8.keys,key_resp_8.corr,key_resp_8.rt,complex_recall_corr,complex_recall_corrkeys,span_recall.thisRepN,span_recall.thisTrialN,span_recall.thisN,span_recall.thisIndex,span_recall.ran,key_resp_12.keys,key_resp_12.rt
space,8.87,,0,0,0,0,0,1,6047d153b53e4a096d54b26b,24,Mężczyzna,2022-06-04_08h27.18.105,task,2021.1.4,Win32,60.33182504,628b806c463b948bc644b84f,629afb2e58460b5c21e0f1f8,,,,,,,,,,,,,,,,,,,,,,,,,,,,,,,,,,,,,,,,,,,,,,,,,,,,,,,,,,,,,,,,,,,,,,,,,,,,,,,,,,,,,,,,,,,,,,,,,,,,,,,,
,,"[""comma"",""period""]",0,1,0,1,0,1,6047d153b53e4a096d54b26b,24,Mężczyzna,2022-06-04_08h27.18.105,task,2021.1.4,Win32,60.33182504,628b806c463b948bc644b84f,629afb2e58460b5c21e0f1f8,"[0.5003999998569526,1.8946999998092764]",,,,,,,,,,,,,,,,,,,,,,,,,,,,,,,,,,,,,,,,,,,,,,,,,,,,,,,,,,,,,,,,,,,,,,,,,,,,,,,,,,,,,,,,,,,,,,,,,,,,,,,
,,"[""comma""]",0,2,0,2,0,1,6047d153b53e4a096d54b26b,24,Mężczyzna,2022-06-04_08h27.18.105,task,2021.1.4,Win32,60.33182504,628b806c463b948bc644b84f,629afb2e58460b5c21e0f1f8,[0.9002000000476897],,,,,,,,,,,,,,,,,,,,,,,,,,,,,,,,,,,,,,,,,,,,,,,,,,,,,,,,,,,,,,,,,,,,,,,,,,,,,,,,,,,,,,,,,,,,,,,,,,,,,,,
,,"[""period""]",0,3,0,3,0,1,6047d153b53e4a096d54b26b,24,Mężczyzna,2022-06-04_08h27.18.105,task,2021.1.4,Win32,60.33182504,628b806c463b948bc644b84f,629afb2e58460b5c21e0f1f8,[0.23059999990464064],,,,,,,,,,,,,,,,,,,,,,,,,,,,,,,,,,,,,,,,,,,,,,,,,,,,,,,,,,,,,,,,,,,,,,,,,,,,,,,,,,,,,,,,,,,,,,,,,,,,,,,
,,"[""comma"",""period""]",0,4,0,4,0,1,6047d153b53e4a096d54b26b,24,Mężczyzna,2022-06-04_08h27.18.105,task,2021.1.4,Win32,60.33182504,628b806c463b948bc644b84f,629afb2e58460b5c21e0f1f8,"[0.190099999904632,1.8140000000000072]",,,,,,,,,,,,,,,,,,,,,,,,,,,,,,,,,,,,,,,,,,,,,,,,,,,,,,,,,,,,,,,,,,,,,,,,,,,,,,,,,,,,,,,,,,,,,,,,,,,,,,,
,,,0,5,0,5,0,1,6047d153b53e4a096d54b26b,24,Mężczyzna,2022-06-04_08h27.18.105,task,2021.1.4,Win32,60.33182504,628b806c463b948bc644b84f,629afb2e58460b5c21e0f1f8,,,,,,,,,,,,,,,,,,,,,,,,,,,,,,,,,,,,,,,,,,,,,,,,,,,,,,,,,,,,,,,,,,,,,,,,,,,,,,,,,,,,,,,,,,,,,,,,,,,,,,,,
,,"[""comma""]",0,6,0,6,0,1,6047d153b53e4a096d54b26b,24,Mężczyzna,2022-06-04_08h27.18.105,task,2021.1.4,Win32,60.33182504,628b806c463b948bc644b84f,629afb2e58460b5c21e0f1f8,[0.5352000000476806],,,,,,,,,,,,,,,,,,,,,,,,,,,,,,,,,,,,,,,,,,,,,,,,,,,,,,,,,,,,,,,,,,,,,,,,,,,,,,,,,,,,,,,,,,,,,,,,,,,,,,,
,,"[""comma""]",0,7,0,7,0,1,6047d153b53e4a096d54b26b,24,Mężczyzna,2022-06-04_08h27.18.105,task,2021.1.4,Win32,60.33182504,628b806c463b948bc644b84f,629afb2e58460b5c21e0f1f8,[0.294200000047681],,,,,,,,,,,,,,,,,,,,,,,,,,,,,,,,,,,,,,,,,,,,,,,,,,,,,,,,,,,,,,,,,,,,,,,,,,,,,,,,,,,,,,,,,,,,,,,,,,,,,,,
,,"[""comma""]",0,8,0,8,0,1,6047d153b53e4a096d54b26b,24,Mężczyzna,2022-06-04_08h27.18.105,task,2021.1.4,Win32,60.33182504,628b806c463b948bc644b84f,629afb2e58460b5c21e0f1f8,[0.30010000014304694],,,,,,,,,,,,,,,,,,,,,,,,,,,,,,,,,,,,,,,,,,,,,,,,,,,,,,,,,,,,,,,,,,,,,,,,,,,,,,,,,,,,,,,,,,,,,,,,,,,,,,,
,,"[""period"",""comma""]",0,9,0,9,0,1,6047d153b53e4a096d54b26b,24,Mężczyzna,2022-06-04_08h27.18.105,task,2021.1.4,Win32,60.33182504,628b806c463b948bc644b84f,629afb2e58460b5c21e0f1f8,"[0.23370000004769054,1.9257999999523179]",,,,,,,,,,,,,,,,,,,,,,,,,,,,,,,,,,,,,,,,,,,,,,,,,,,,,,,,,,,,,,,,,,,,,,,,,,,,,,,,,,,,,,,,,,,,,,,,,,,,,,,
,,"[""comma""]",0,10,0,10,0,1,6047d153b53e4a096d54b26b,24,Mężczyzna,2022-06-04_08h27.18.105,task,2021.1.4,Win32,60.33182504,628b806c463b948bc644b84f,629afb2e58460b5c21e0f1f8,[1.7834999999999894],,,,,,,,,,,,,,,,,,,,,,,,,,,,,,,,,,,,,,,,,,,,,,,,,,,,,,,,,,,,,,,,,,,,,,,,,,,,,,,,,,,,,,,,,,,,,,,,,,,,,,,
,,"[""comma""]",0,11,0,11,0,1,6047d153b53e4a096d54b26b,24,Mężczyzna,2022-06-04_08h27.18.105,task,2021.1.4,Win32,60.33182504,628b806c463b948bc644b84f,629afb2e58460b5c21e0f1f8,[1.7747000000476731],,,,,,,,,,,,,,,,,,,,,,,,,,,,,,,,,,,,,,,,,,,,,,,,,,,,,,,,,,,,,,,,,,,,,,,,,,,,,,,,,,,,,,,,,,,,,,,,,,,,,,,
,,"[""period""]",0,12,0,12,0,1,6047d153b53e4a096d54b26b,24,Mężczyzna,2022-06-04_08h27.18.105,task,2021.1.4,Win32,60.33182504,628b806c463b948bc644b84f,629afb2e58460b5c21e0f1f8,[1.7265000000000015],,,,,,,,,,,,,,,,,,,,,,,,,,,,,,,,,,,,,,,,,,,,,,,,,,,,,,,,,,,,,,,,,,,,,,,,,,,,,,,,,,,,,,,,,,,,,,,,,,,,,,,
,,"[""comma""]",0,13,0,13,0,1,6047d153b53e4a096d54b26b,24,Mężczyzna,2022-06-04_08h27.18.105,task,2021.1.4,Win32,60.33182504,628b806c463b948bc644b84f,629afb2e58460b5c21e0f1f8,[1.654999999999987],,,,,,,,,,,,,,,,,,,,,,,,,,,,,,,,,,,,,,,,,,,,,,,,,,,,,,,,,,,,,,,,,,,,,,,,,,,,,,,,,,,,,,,,,,,,,,,,,,,,,,,
,,,0,14,0,14,0,1,6047d153b53e4a096d54b26b,24,Mężczyzna,2022-06-04_08h27.18.105,task,2021.1.4,Win32,60.33182504,628b806c463b948bc644b84f,629afb2e58460b5c21e0f1f8,,,,,,,,,,,,,,,,,,,,,,,,,,,,,,,,,,,,,,,,,,,,,,,,,,,,,,,,,,,,,,,,,,,,,,,,,,,,,,,,,,,,,,,,,,,,,,,,,,,,,,,,
,,"[""comma""]",0,15,0,15,0,1,6047d153b53e4a096d54b26b,24,Mężczyzna,2022-06-04_08h27.18.105,task,2021.1.4,Win32,60.33182504,628b806c463b948bc644b84f,629afb2e58460b5c21e0f1f8,[0.21520000004768747],,,,,,,,,,,,,,,,,,,,,,,,,,,,,,,,,,,,,,,,,,,,,,,,,,,,,,,,,,,,,,,,,,,,,,,,,,,,,,,,,,,,,,,,,,,,,,,,,,,,,,,
,,"[""period""]",0,16,0,16,0,1,6047d153b53e4a096d54b26b,24,Mężczyzna,2022-06-04_08h27.18.105,task,2021.1.4,Win32,60.33182504,628b806c463b948bc644b84f,629afb2e58460b5c21e0f1f8,[0.5837000000476849],,,,,,,,,,,,,,,,,,,,,,,,,,,,,,,,,,,,,,,,,,,,,,,,,,,,,,,,,,,,,,,,,,,,,,,,,,,,,,,,,,,,,,,,,,,,,,,,,,,,,,,
,,"[""period""]",0,17,0,17,0,1,6047d153b53e4a096d54b26b,24,Mężczyzna,2022-06-04_08h27.18.105,task,2021.1.4,Win32,60.33182504,628b806c463b948bc644b84f,629afb2e58460b5c21e0f1f8,[0.4835000000000065],,,,,,,,,,,,,,,,,,,,,,,,,,,,,,,,,,,,,,,,,,,,,,,,,,,,,,,,,,,,,,,,,,,,,,,,,,,,,,,,,,,,,,,,,,,,,,,,,,,,,,,
,,"[""comma""]",0,18,0,18,0,1,6047d153b53e4a096d54b26b,24,Mężczyzna,2022-06-04_08h27.18.105,task,2021.1.4,Win32,60.33182504,628b806c463b948bc644b84f,629afb2e58460b5c21e0f1f8,[0.33370000004768485],,,,,,,,,,,,,,,,,,,,,,,,,,,,,,,,,,,,,,,,,,,,,,,,,,,,,,,,,,,,,,,,,,,,,,,,,,,,,,,,,,,,,,,,,,,,,,,,,,,,,,,
,,"[""comma""]",0,19,0,19,0,1,6047d153b53e4a096d54b26b,24,Mężczyzna,2022-06-04_08h27.18.105,task,2021.1.4,Win32,60.33182504,628b806c463b948bc644b84f,629afb2e58460b5c21e0f1f8,[0.30009999990463143],,,,,,,,,,,,,,,,,,,,,,,,,,,,,,,,,,,,,,,,,,,,,,,,,,,,,,,,,,,,,,,,,,,,,,,,,,,,,,,,,,,,,,,,,,,,,,,,,,,,,,,
,,"[""period""]",0,20,0,20,0,1,6047d153b53e4a096d54b26b,24,Mężczyzna,2022-06-04_08h27.18.105,task,2021.1.4,Win32,60.33182504,628b806c463b948bc644b84f,629afb2e58460b5c21e0f1f8,[0.2172000000476828],,,,,,,,,,,,,,,,,,,,,,,,,,,,,,,,,,,,,,,,,,,,,,,,,,,,,,,,,,,,,,,,,,,,,,,,,,,,,,,,,,,,,,,,,,,,,,,,,,,,,,,
,,"[""period""]",0,21,0,21,0,1,6047d153b53e4a096d54b26b,24,Mężczyzna,2022-06-04_08h27.18.105,task,2021.1.4,Win32,60.33182504,628b806c463b948bc644b84f,629afb2e58460b5c21e0f1f8,[0.1668999998569518],,,,,,,,,,,,,,,,,,,,,,,,,,,,,,,,,,,,,,,,,,,,,,,,,,,,,,,,,,,,,,,,,,,,,,,,,,,,,,,,,,,,,,,,,,,,,,,,,,,,,,,
,,"[""comma""]",0,22,0,22,0,1,6047d153b53e4a096d54b26b,24,Mężczyzna,2022-06-04_08h27.18.105,task,2021.1.4,Win32,60.33182504,628b806c463b948bc644b84f,629afb2e58460b5c21e0f1f8,[0.0672999999523114],,,,,,,,,,,,,,,,,,,,,,,,,,,,,,,,,,,,,,,,,,,,,,,,,,,,,,,,,,,,,,,,,,,,,,,,,,,,,,,,,,,,,,,,,,,,,,,,,,,,,,,
,,"[""comma""]",0,23,0,23,0,1,6047d153b53e4a096d54b26b,24,Mężczyzna,2022-06-04_08h27.18.105,task,2021.1.4,Win32,60.33182504,628b806c463b948bc644b84f,629afb2e58460b5c21e0f1f8,[0.09350000000000591],,,,,,,,,,,,,,,,,,,,,,,,,,,,,,,,,,,,,,,,,,,,,,,,,,,,,,,,,,,,,,,,,,,,,,,,,,,,,,,,,,,,,,,,,,,,,,,,,,,,,,,
,,"[""period""]",0,24,0,24,0,1,6047d153b53e4a096d54b26b,24,Mężczyzna,2022-06-04_08h27.18.105,task,2021.1.4,Win32,60.33182504,628b806c463b948bc644b84f,629afb2e58460b5c21e0f1f8,[0.23329999995232242],,,,,,,,,,,,,,,,,,,,,,,,,,,,,,,,,,,,,,,,,,,,,,,,,,,,,,,,,,,,,,,,,,,,,,,,,,,,,,,,,,,,,,,,,,,,,,,,,,,,,,,
,,"[""period""]",0,25,0,25,0,1,6047d153b53e4a096d54b26b,24,Mężczyzna,2022-06-04_08h27.18.105,task,2021.1.4,Win32,60.33182504,628b806c463b948bc644b84f,629afb2e58460b5c21e0f1f8,[0.21699999999999875],,,,,,,,,,,,,,,,,,,,,,,,,,,,,,,,,,,,,,,,,,,,,,,,,,,,,,,,,,,,,,,,,,,,,,,,,,,,,,,,,,,,,,,,,,,,,,,,,,,,,,,
,,"[""comma""]",0,26,0,26,0,1,6047d153b53e4a096d54b26b,24,Mężczyzna,2022-06-04_08h27.18.105,task,2021.1.4,Win32,60.33182504,628b806c463b948bc644b84f,629afb2e58460b5c21e0f1f8,[0.08499999999999375],,,,,,,,,,,,,,,,,,,,,,,,,,,,,,,,,,,,,,,,,,,,,,,,,,,,,,,,,,,,,,,,,,,,,,,,,,,,,,,,,,,,,,,,,,,,,,,,,,,,,,,
,,"[""comma""]",0,27,0,27,0,1,6047d153b53e4a096d54b26b,24,Mężczyzna,2022-06-04_08h27.18.105,task,2021.1.4,Win32,60.33182504,628b806c463b948bc644b84f,629afb2e58460b5c21e0f1f8,[0.18359999990462939],,,,,,,,,,,,,,,,,,,,,,,,,,,,,,,,,,,,,,,,,,,,,,,,,,,,,,,,,,,,,,,,,,,,,,,,,,,,,,,,,,,,,,,,,,,,,,,,,,,,,,,
,,"[""comma""]",0,28,0,28,0,1,6047d153b53e4a096d54b26b,24,Mężczyzna,2022-06-04_08h27.18.105,task,2021.1.4,Win32,60.33182504,628b806c463b948bc644b84f,629afb2e58460b5c21e0f1f8,[0.1878999998569526],,,,,,,,,,,,,,,,,,,,,,,,,,,,,,,,,,,,,,,,,,,,,,,,,,,,,,,,,,,,,,,,,,,,,,,,,,,,,,,,,,,,,,,,,,,,,,,,,,,,,,,
,,"[""period""]",0,29,0,29,0,1,6047d153b53e4a096d54b26b,24,Mężczyzna,2022-06-04_08h27.18.105,task,2021.1.4,Win32,60.33182504,628b806c463b948bc644b84f,629afb2e58460b5c21e0f1f8,[0.2442999999523181],,,,,,,,,,,,,,,,,,,,,,,,,,,,,,,,,,,,,,,,,,,,,,,,,,,,,,,,,,,,,,,,,,,,,,,,,,,,,,,,,,,,,,,,,,,,,,,,,,,,,,,
,,"[""comma""]",0,30,0,30,0,1,6047d153b53e4a096d54b26b,24,Mężczyzna,2022-06-04_08h27.18.105,task,2021.1.4,Win32,60.33182504,628b806c463b948bc644b84f,629afb2e58460b5c21e0f1f8,[0.30049999999999955],,,,,,,,,,,,,,,,,,,,,,,,,,,,,,,,,,,,,,,,,,,,,,,,,,,,,,,,,,,,,,,,,,,,,,,,,,,,,,,,,,,,,,,,,,,,,,,,,,,,,,,
,,"[""comma""]",0,31,0,31,0,1,6047d153b53e4a096d54b26b,24,Mężczyzna,2022-06-04_08h27.18.105,task,2021.1.4,Win32,60.33182504,628b806c463b948bc644b84f,629afb2e58460b5c21e0f1f8,[0.0922000000476828],,,,,,,,,,,,,,,,,,,,,,,,,,,,,,,,,,,,,,,,,,,,,,,,,,,,,,,,,,,,,,,,,,,,,,,,,,,,,,,,,,,,,,,,,,,,,,,,,,,,,,,
,,"[""period""]",0,32,0,32,0,1,6047d153b53e4a096d54b26b,24,Mężczyzna,2022-06-04_08h27.18.105,task,2021.1.4,Win32,60.33182504,628b806c463b948bc644b84f,629afb2e58460b5c21e0f1f8,[0.18760000014304978],,,,,,,,,,,,,,,,,,,,,,,,,,,,,,,,,,,,,,,,,,,,,,,,,,,,,,,,,,,,,,,,,,,,,,,,,,,,,,,,,,,,,,,,,,,,,,,,,,,,,,,
,,"[""period""]",0,33,0,33,0,1,6047d153b53e4a096d54b26b,24,Mężczyzna,2022-06-04_08h27.18.105,task,2021.1.4,Win32,60.33182504,628b806c463b948bc644b84f,629afb2e58460b5c21e0f1f8,[0.25189999985695977],,,,,,,,,,,,,,,,,,,,,,,,,,,,,,,,,,,,,,,,,,,,,,,,,,,,,,,,,,,,,,,,,,,,,,,,,,,,,,,,,,,,,,,,,,,,,,,,,,,,,,,
,,"[""comma""]",0,34,0,34,0,1,6047d153b53e4a096d54b26b,24,Mężczyzna,2022-06-04_08h27.18.105,task,2021.1.4,Win32,60.33182504,628b806c463b948bc644b84f,629afb2e58460b5c21e0f1f8,[0.2437999999523015],,,,,,,,,,,,,,,,,,,,,,,,,,,,,,,,,,,,,,,,,,,,,,,,,,,,,,,,,,,,,,,,,,,,,,,,,,,,,,,,,,,,,,,,,,,,,,,,,,,,,,,
,,"[""period""]",0,35,0,35,0,1,6047d153b53e4a096d54b26b,24,Mężczyzna,2022-06-04_08h27.18.105,task,2021.1.4,Win32,60.33182504,628b806c463b948bc644b84f,629afb2e58460b5c21e0f1f8,[0.21229999995233584],,,,,,,,,,,,,,,,,,,,,,,,,,,,,,,,,,,,,,,,,,,,,,,,,,,,,,,,,,,,,,,,,,,,,,,,,,,,,,,,,,,,,,,,,,,,,,,,,,,,,,,
,,"[""comma""]",0,36,0,36,0,1,6047d153b53e4a096d54b26b,24,Mężczyzna,2022-06-04_08h27.18.105,task,2021.1.4,Win32,60.33182504,628b806c463b948bc644b84f,629afb2e58460b5c21e0f1f8,[0.25940000009535424],,,,,,,,,,,,,,,,,,,,,,,,,,,,,,,,,,,,,,,,,,,,,,,,,,,,,,,,,,,,,,,,,,,,,,,,,,,,,,,,,,,,,,,,,,,,,,,,,,,,,,,
,,"[""period""]",0,37,0,37,0,1,6047d153b53e4a096d54b26b,24,Mężczyzna,2022-06-04_08h27.18.105,task,2021.1.4,Win32,60.33182504,628b806c463b948bc644b84f,629afb2e58460b5c21e0f1f8,[0.2836000001430534],,,,,,,,,,,,,,,,,,,,,,,,,,,,,,,,,,,,,,,,,,,,,,,,,,,,,,,,,,,,,,,,,,,,,,,,,,,,,,,,,,,,,,,,,,,,,,,,,,,,,,,
,,"[""comma""]",0,38,0,38,0,1,6047d153b53e4a096d54b26b,24,Mężczyzna,2022-06-04_08h27.18.105,task,2021.1.4,Win32,60.33182504,628b806c463b948bc644b84f,629afb2e58460b5c21e0f1f8,[0.2352000000476835],,,,,,,,,,,,,,,,,,,,,,,,,,,,,,,,,,,,,,,,,,,,,,,,,,,,,,,,,,,,,,,,,,,,,,,,,,,,,,,,,,,,,,,,,,,,,,,,,,,,,,,
,,"[""comma""]",0,39,0,39,0,1,6047d153b53e4a096d54b26b,24,Mężczyzna,2022-06-04_08h27.18.105,task,2021.1.4,Win32,60.33182504,628b806c463b948bc644b84f,629afb2e58460b5c21e0f1f8,[0.20359999990463962],,,,,,,,,,,,,,,,,,,,,,,,,,,,,,,,,,,,,,,,,,,,,,,,,,,,,,,,,,,,,,,,,,,,,,,,,,,,,,,,,,,,,,,,,,,,,,,,,,,,,,,
,,"[""comma""]",0,40,0,40,0,1,6047d153b53e4a096d54b26b,24,Mężczyzna,2022-06-04_08h27.18.105,task,2021.1.4,Win32,60.33182504,628b806c463b948bc644b84f,629afb2e58460b5c21e0f1f8,[0.517099999904616],,,,,,,,,,,,,,,,,,,,,,,,,,,,,,,,,,,,,,,,,,,,,,,,,,,,,,,,,,,,,,,,,,,,,,,,,,,,,,,,,,,,,,,,,,,,,,,,,,,,,,,
,,"[""comma""]",0,41,0,41,0,1,6047d153b53e4a096d54b26b,24,Mężczyzna,2022-06-04_08h27.18.105,task,2021.1.4,Win32,60.33182504,628b806c463b948bc644b84f,629afb2e58460b5c21e0f1f8,[0.5002999999523183],,,,,,,,,,,,,,,,,,,,,,,,,,,,,,,,,,,,,,,,,,,,,,,,,,,,,,,,,,,,,,,,,,,,,,,,,,,,,,,,,,,,,,,,,,,,,,,,,,,,,,,
,,"[""comma""]",0,42,0,42,0,1,6047d153b53e4a096d54b26b,24,Mężczyzna,2022-06-04_08h27.18.105,task,2021.1.4,Win32,60.33182504,628b806c463b948bc644b84f,629afb2e58460b5c21e0f1f8,[0.3072000000476862],,,,,,,,,,,,,,,,,,,,,,,,,,,,,,,,,,,,,,,,,,,,,,,,,,,,,,,,,,,,,,,,,,,,,,,,,,,,,,,,,,,,,,,,,,,,,,,,,,,,,,,
,,"[""comma""]",0,43,0,43,0,1,6047d153b53e4a096d54b26b,24,Mężczyzna,2022-06-04_08h27.18.105,task,2021.1.4,Win32,60.33182504,628b806c463b948bc644b84f,629afb2e58460b5c21e0f1f8,[0.20029999995230696],,,,,,,,,,,,,,,,,,,,,,,,,,,,,,,,,,,,,,,,,,,,,,,,,,,,,,,,,,,,,,,,,,,,,,,,,,,,,,,,,,,,,,,,,,,,,,,,,,,,,,,
,,"[""period""]",0,44,0,44,0,1,6047d153b53e4a096d54b26b,24,Mężczyzna,2022-06-04_08h27.18.105,task,2021.1.4,Win32,60.33182504,628b806c463b948bc644b84f,629afb2e58460b5c21e0f1f8,[0.21029999995229787],,,,,,,,,,,,,,,,,,,,,,,,,,,,,,,,,,,,,,,,,,,,,,,,,,,,,,,,,,,,,,,,,,,,,,,,,,,,,,,,,,,,,,,,,,,,,,,,,,,,,,,
,,"[""comma""]",0,45,0,45,0,1,6047d153b53e4a096d54b26b,24,Mężczyzna,2022-06-04_08h27.18.105,task,2021.1.4,Win32,60.33182504,628b806c463b948bc644b84f,629afb2e58460b5c21e0f1f8,[0.3178000001907151],,,,,,,,,,,,,,,,,,,,,,,,,,,,,,,,,,,,,,,,,,,,,,,,,,,,,,,,,,,,,,,,,,,,,,,,,,,,,,,,,,,,,,,,,,,,,,,,,,,,,,,
,,"[""comma""]",0,46,0,46,0,1,6047d153b53e4a096d54b26b,24,Mężczyzna,2022-06-04_08h27.18.105,task,2021.1.4,Win32,60.33182504,628b806c463b948bc644b84f,629afb2e58460b5c21e0f1f8,[0.25009999990462006],,,,,,,,,,,,,,,,,,,,,,,,,,,,,,,,,,,,,,,,,,,,,,,,,,,,,,,,,,,,,,,,,,,,,,,,,,,,,,,,,,,,,,,,,,,,,,,,,,,,,,,
,,"[""comma""]",0,47,0,47,0,1,6047d153b53e4a096d54b26b,24,Mężczyzna,2022-06-04_08h27.18.105,task,2021.1.4,Win32,60.33182504,628b806c463b948bc644b84f,629afb2e58460b5c21e0f1f8,[0.35419999980928196],,,,,,,,,,,,,,,,,,,,,,,,,,,,,,,,,,,,,,,,,,,,,,,,,,,,,,,,,,,,,,,,,,,,,,,,,,,,,,,,,,,,,,,,,,,,,,,,,,,,,,,
,,"[""period""]",0,48,0,48,0,1,6047d153b53e4a096d54b26b,24,Mężczyzna,2022-06-04_08h27.18.105,task,2021.1.4,Win32,60.33182504,628b806c463b948bc644b84f,629afb2e58460b5c21e0f1f8,[0.2837000000476735],,,,,,,,,,,,,,,,,,,,,,,,,,,,,,,,,,,,,,,,,,,,,,,,,,,,,,,,,,,,,,,,,,,,,,,,,,,,,,,,,,,,,,,,,,,,,,,,,,,,,,,
,,"[""period""]",0,49,0,49,0,1,6047d153b53e4a096d54b26b,24,Mężczyzna,2022-06-04_08h27.18.105,task,2021.1.4,Win32,60.33182504,628b806c463b948bc644b84f,629afb2e58460b5c21e0f1f8,[0.2337999999523106],,,,,,,,,,,,,,,,,,,,,,,,,,,,,,,,,,,,,,,,,,,,,,,,,,,,,,,,,,,,,,,,,,,,,,,,,,,,,,,,,,,,,,,,,,,,,,,,,,,,,,,
,,"[""comma""]",0,50,0,50,0,1,6047d153b53e4a096d54b26b,24,Mężczyzna,2022-06-04_08h27.18.105,task,2021.1.4,Win32,60.33182504,628b806c463b948bc644b84f,629afb2e58460b5c21e0f1f8,[0.23359999990464075],,,,,,,,,,,,,,,,,,,,,,,,,,,,,,,,,,,,,,,,,,,,,,,,,,,,,,,,,,,,,,,,,,,,,,,,,,,,,,,,,,,,,,,,,,,,,,,,,,,,,,,
,,"[""comma""]",0,51,0,51,0,1,6047d153b53e4a096d54b26b,24,Mężczyzna,2022-06-04_08h27.18.105,task,2021.1.4,Win32,60.33182504,628b806c463b948bc644b84f,629afb2e58460b5c21e0f1f8,[0.24150000000000205],,,,,,,,,,,,,,,,,,,,,,,,,,,,,,,,,,,,,,,,,,,,,,,,,,,,,,,,,,,,,,,,,,,,,,,,,,,,,,,,,,,,,,,,,,,,,,,,,,,,,,,
,,"[""period""]",0,52,0,52,0,1,6047d153b53e4a096d54b26b,24,Mężczyzna,2022-06-04_08h27.18.105,task,2021.1.4,Win32,60.33182504,628b806c463b948bc644b84f,629afb2e58460b5c21e0f1f8,[0.23360000014307047],,,,,,,,,,,,,,,,,,,,,,,,,,,,,,,,,,,,,,,,,,,,,,,,,,,,,,,,,,,,,,,,,,,,,,,,,,,,,,,,,,,,,,,,,,,,,,,,,,,,,,,
,,"[""period""]",0,53,0,53,0,1,6047d153b53e4a096d54b26b,24,Mężczyzna,2022-06-04_08h27.18.105,task,2021.1.4,Win32,60.33182504,628b806c463b948bc644b84f,629afb2e58460b5c21e0f1f8,[0.3611000001430682],,,,,,,,,,,,,,,,,,,,,,,,,,,,,,,,,,,,,,,,,,,,,,,,,,,,,,,,,,,,,,,,,,,,,,,,,,,,,,,,,,,,,,,,,,,,,,,,,,,,,,,
,,"[""comma""]",0,54,0,54,0,1,6047d153b53e4a096d54b26b,24,Mężczyzna,2022-06-04_08h27.18.105,task,2021.1.4,Win32,60.33182504,628b806c463b948bc644b84f,629afb2e58460b5c21e0f1f8,[0.3135000000000048],,,,,,,,,,,,,,,,,,,,,,,,,,,,,,,,,,,,,,,,,,,,,,,,,,,,,,,,,,,,,,,,,,,,,,,,,,,,,,,,,,,,,,,,,,,,,,,,,,,,,,,
,,"[""period""]",0,55,0,55,0,1,6047d153b53e4a096d54b26b,24,Mężczyzna,2022-06-04_08h27.18.105,task,2021.1.4,Win32,60.33182504,628b806c463b948bc644b84f,629afb2e58460b5c21e0f1f8,[0.11699999999999022],,,,,,,,,,,,,,,,,,,,,,,,,,,,,,,,,,,,,,,,,,,,,,,,,,,,,,,,,,,,,,,,,,,,,,,,,,,,,,,,,,,,,,,,,,,,,,,,,,,,,,,
,,"[""comma""]",0,56,0,56,0,1,6047d153b53e4a096d54b26b,24,Mężczyzna,2022-06-04_08h27.18.105,task,2021.1.4,Win32,60.33182504,628b806c463b948bc644b84f,629afb2e58460b5c21e0f1f8,[0.23359999990464075],,,,,,,,,,,,,,,,,,,,,,,,,,,,,,,,,,,,,,,,,,,,,,,,,,,,,,,,,,,,,,,,,,,,,,,,,,,,,,,,,,,,,,,,,,,,,,,,,,,,,,,
,,"[""period""]",0,57,0,57,0,1,6047d153b53e4a096d54b26b,24,Mężczyzna,2022-06-04_08h27.18.105,task,2021.1.4,Win32,60.33182504,628b806c463b948bc644b84f,629afb2e58460b5c21e0f1f8,[0.24190000009537016],,,,,,,,,,,,,,,,,,,,,,,,,,,,,,,,,,,,,,,,,,,,,,,,,,,,,,,,,,,,,,,,,,,,,,,,,,,,,,,,,,,,,,,,,,,,,,,,,,,,,,,
,,"[""comma""]",0,58,0,58,0,1,6047d153b53e4a096d54b26b,24,Mężczyzna,2022-06-04_08h27.18.105,task,2021.1.4,Win32,60.33182504,628b806c463b948bc644b84f,629afb2e58460b5c21e0f1f8,[0.2504000000953681],,,,,,,,,,,,,,,,,,,,,,,,,,,,,,,,,,,,,,,,,,,,,,,,,,,,,,,,,,,,,,,,,,,,,,,,,,,,,,,,,,,,,,,,,,,,,,,,,,,,,,,
,,"[""comma""]",0,59,0,59,0,1,6047d153b53e4a096d54b26b,24,Mężczyzna,2022-06-04_08h27.18.105,task,2021.1.4,Win32,60.33182504,628b806c463b948bc644b84f,629afb2e58460b5c21e0f1f8,[0.20199999999999818],,,,,,,,,,,,,,,,,,,,,,,,,,,,,,,,,,,,,,,,,,,,,,,,,,,,,,,,,,,,,,,,,,,,,,,,,,,,,,,,,,,,,,,,,,,,,,,,,,,,,,,
,,"[""comma""]",0,60,0,60,0,1,6047d153b53e4a096d54b26b,24,Mężczyzna,2022-06-04_08h27.18.105,task,2021.1.4,Win32,60.33182504,628b806c463b948bc644b84f,629afb2e58460b5c21e0f1f8,[0.2651999998092549],,,,,,,,,,,,,,,,,,,,,,,,,,,,,,,,,,,,,,,,,,,,,,,,,,,,,,,,,,,,,,,,,,,,,,,,,,,,,,,,,,,,,,,,,,,,,,,,,,,,,,,
,,"[""period""]",0,61,0,61,0,1,6047d153b53e4a096d54b26b,24,Mężczyzna,2022-06-04_08h27.18.105,task,2021.1.4,Win32,60.33182504,628b806c463b948bc644b84f,629afb2e58460b5c21e0f1f8,[0.25029999995231833],,,,,,,,,,,,,,,,,,,,,,,,,,,,,,,,,,,,,,,,,,,,,,,,,,,,,,,,,,,,,,,,,,,,,,,,,,,,,,,,,,,,,,,,,,,,,,,,,,,,,,,
,,"[""comma""]",0,62,0,62,0,1,6047d153b53e4a096d54b26b,24,Mężczyzna,2022-06-04_08h27.18.105,task,2021.1.4,Win32,60.33182504,628b806c463b948bc644b84f,629afb2e58460b5c21e0f1f8,[0.21709999990463302],,,,,,,,,,,,,,,,,,,,,,,,,,,,,,,,,,,,,,,,,,,,,,,,,,,,,,,,,,,,,,,,,,,,,,,,,,,,,,,,,,,,,,,,,,,,,,,,,,,,,,,
,,"[""comma""]",0,63,0,63,0,1,6047d153b53e4a096d54b26b,24,Mężczyzna,2022-06-04_08h27.18.105,task,2021.1.4,Win32,60.33182504,628b806c463b948bc644b84f,629afb2e58460b5c21e0f1f8,[0.21690000009536448],,,,,,,,,,,,,,,,,,,,,,,,,,,,,,,,,,,,,,,,,,,,,,,,,,,,,,,,,,,,,,,,,,,,,,,,,,,,,,,,,,,,,,,,,,,,,,,,,,,,,,,
,,"[""comma""]",0,64,0,64,0,1,6047d153b53e4a096d54b26b,24,Mężczyzna,2022-06-04_08h27.18.105,task,2021.1.4,Win32,60.33182504,628b806c463b948bc644b84f,629afb2e58460b5c21e0f1f8,[0.23360000014304205],,,,,,,,,,,,,,,,,,,,,,,,,,,,,,,,,,,,,,,,,,,,,,,,,,,,,,,,,,,,,,,,,,,,,,,,,,,,,,,,,,,,,,,,,,,,,,,,,,,,,,,
,,"[""comma""]",0,65,0,65,0,1,6047d153b53e4a096d54b26b,24,Mężczyzna,2022-06-04_08h27.18.105,task,2021.1.4,Win32,60.33182504,628b806c463b948bc644b84f,629afb2e58460b5c21e0f1f8,[0.19249999999999545],,,,,,,,,,,,,,,,,,,,,,,,,,,,,,,,,,,,,,,,,,,,,,,,,,,,,,,,,,,,,,,,,,,,,,,,,,,,,,,,,,,,,,,,,,,,,,,,,,,,,,,
,,"[""comma""]",0,66,0,66,0,1,6047d153b53e4a096d54b26b,24,Mężczyzna,2022-06-04_08h27.18.105,task,2021.1.4,Win32,60.33182504,628b806c463b948bc644b84f,629afb2e58460b5c21e0f1f8,[0.2242999999523363],,,,,,,,,,,,,,,,,,,,,,,,,,,,,,,,,,,,,,,,,,,,,,,,,,,,,,,,,,,,,,,,,,,,,,,,,,,,,,,,,,,,,,,,,,,,,,,,,,,,,,,
,,"[""comma""]",0,67,0,67,0,1,6047d153b53e4a096d54b26b,24,Mężczyzna,2022-06-04_08h27.18.105,task,2021.1.4,Win32,60.33182504,628b806c463b948bc644b84f,629afb2e58460b5c21e0f1f8,[0.28379999995232197],,,,,,,,,,,,,,,,,,,,,,,,,,,,,,,,,,,,,,,,,,,,,,,,,,,,,,,,,,,,,,,,,,,,,,,,,,,,,,,,,,,,,,,,,,,,,,,,,,,,,,,
,,"[""period""]",0,68,0,68,0,1,6047d153b53e4a096d54b26b,24,Mężczyzna,2022-06-04_08h27.18.105,task,2021.1.4,Win32,60.33182504,628b806c463b948bc644b84f,629afb2e58460b5c21e0f1f8,[0.23979999995231083],,,,,,,,,,,,,,,,,,,,,,,,,,,,,,,,,,,,,,,,,,,,,,,,,,,,,,,,,,,,,,,,,,,,,,,,,,,,,,,,,,,,,,,,,,,,,,,,,,,,,,,
,,"[""comma""]",0,69,0,69,0,1,6047d153b53e4a096d54b26b,24,Mężczyzna,2022-06-04_08h27.18.105,task,2021.1.4,Win32,60.33182504,628b806c463b948bc644b84f,629afb2e58460b5c21e0f1f8,[0.2334000000953722],,,,,,,,,,,,,,,,,,,,,,,,,,,,,,,,,,,,,,,,,,,,,,,,,,,,,,,,,,,,,,,,,,,,,,,,,,,,,,,,,,,,,,,,,,,,,,,,,,,,,,,
,,"[""comma""]",0,70,0,70,0,1,6047d153b53e4a096d54b26b,24,Mężczyzna,2022-06-04_08h27.18.105,task,2021.1.4,Win32,60.33182504,628b806c463b948bc644b84f,629afb2e58460b5c21e0f1f8,[0.21700000000001296],,,,,,,,,,,,,,,,,,,,,,,,,,,,,,,,,,,,,,,,,,,,,,,,,,,,,,,,,,,,,,,,,,,,,,,,,,,,,,,,,,,,,,,,,,,,,,,,,,,,,,,
,,"[""comma""]",0,71,0,71,0,1,6047d153b53e4a096d54b26b,24,Mężczyzna,2022-06-04_08h27.18.105,task,2021.1.4,Win32,60.33182504,628b806c463b948bc644b84f,629afb2e58460b5c21e0f1f8,[0.18330000019074077],,,,,,,,,,,,,,,,,,,,,,,,,,,,,,,,,,,,,,,,,,,,,,,,,,,,,,,,,,,,,,,,,,,,,,,,,,,,,,,,,,,,,,,,,,,,,,,,,,,,,,,
,,"[""comma""]",0,72,0,72,0,1,6047d153b53e4a096d54b26b,24,Mężczyzna,2022-06-04_08h27.18.105,task,2021.1.4,Win32,60.33182504,628b806c463b948bc644b84f,629afb2e58460b5c21e0f1f8,[0.1197999999523347],,,,,,,,,,,,,,,,,,,,,,,,,,,,,,,,,,,,,,,,,,,,,,,,,,,,,,,,,,,,,,,,,,,,,,,,,,,,,,,,,,,,,,,,,,,,,,,,,,,,,,,
,,"[""period""]",0,73,0,73,0,1,6047d153b53e4a096d54b26b,24,Mężczyzna,2022-06-04_08h27.18.105,task,2021.1.4,Win32,60.33182504,628b806c463b948bc644b84f,629afb2e58460b5c21e0f1f8,[0.19130000019075055],,,,,,,,,,,,,,,,,,,,,,,,,,,,,,,,,,,,,,,,,,,,,,,,,,,,,,,,,,,,,,,,,,,,,,,,,,,,,,,,,,,,,,,,,,,,,,,,,,,,,,,
,,"[""comma""]",0,74,0,74,0,1,6047d153b53e4a096d54b26b,24,Mężczyzna,2022-06-04_08h27.18.105,task,2021.1.4,Win32,60.33182504,628b806c463b948bc644b84f,629afb2e58460b5c21e0f1f8,[0.2474000000953822],,,,,,,,,,,,,,,,,,,,,,,,,,,,,,,,,,,,,,,,,,,,,,,,,,,,,,,,,,,,,,,,,,,,,,,,,,,,,,,,,,,,,,,,,,,,,,,,,,,,,,,
,,"[""comma""]",0,75,0,75,0,1,6047d153b53e4a096d54b26b,24,Mężczyzna,2022-06-04_08h27.18.105,task,2021.1.4,Win32,60.33182504,628b806c463b948bc644b84f,629afb2e58460b5c21e0f1f8,[0.24669999980926605],,,,,,,,,,,,,,,,,,,,,,,,,,,,,,,,,,,,,,,,,,,,,,,,,,,,,,,,,,,,,,,,,,,,,,,,,,,,,,,,,,,,,,,,,,,,,,,,,,,,,,,
,,"[""period""]",0,76,0,76,0,1,6047d153b53e4a096d54b26b,24,Mężczyzna,2022-06-04_08h27.18.105,task,2021.1.4,Win32,60.33182504,628b806c463b948bc644b84f,629afb2e58460b5c21e0f1f8,[0.2389999999999759],,,,,,,,,,,,,,,,,,,,,,,,,,,,,,,,,,,,,,,,,,,,,,,,,,,,,,,,,,,,,,,,,,,,,,,,,,,,,,,,,,,,,,,,,,,,,,,,,,,,,,,
,,"[""period""]",0,77,0,77,0,1,6047d153b53e4a096d54b26b,24,Mężczyzna,2022-06-04_08h27.18.105,task,2021.1.4,Win32,60.33182504,628b806c463b948bc644b84f,629afb2e58460b5c21e0f1f8,[0.3172000000476771],,,,,,,,,,,,,,,,,,,,,,,,,,,,,,,,,,,,,,,,,,,,,,,,,,,,,,,,,,,,,,,,,,,,,,,,,,,,,,,,,,,,,,,,,,,,,,,,,,,,,,,
,,"[""comma""]",0,78,0,78,0,1,6047d153b53e4a096d54b26b,24,Mężczyzna,2022-06-04_08h27.18.105,task,2021.1.4,Win32,60.33182504,628b806c463b948bc644b84f,629afb2e58460b5c21e0f1f8,[0.21700000000001296],,,,,,,,,,,,,,,,,,,,,,,,,,,,,,,,,,,,,,,,,,,,,,,,,,,,,,,,,,,,,,,,,,,,,,,,,,,,,,,,,,,,,,,,,,,,,,,,,,,,,,,
,,"[""comma""]",0,79,0,79,0,1,6047d153b53e4a096d54b26b,24,Mężczyzna,2022-06-04_08h27.18.105,task,2021.1.4,Win32,60.33182504,628b806c463b948bc644b84f,629afb2e58460b5c21e0f1f8,[0.2469000000953656],,,,,,,,,,,,,,,,,,,,,,,,,,,,,,,,,,,,,,,,,,,,,,,,,,,,,,,,,,,,,,,,,,,,,,,,,,,,,,,,,,,,,,,,,,,,,,,,,,,,,,,
,,"[""period""]",0,80,0,80,0,1,6047d153b53e4a096d54b26b,24,Mężczyzna,2022-06-04_08h27.18.105,task,2021.1.4,Win32,60.33182504,628b806c463b948bc644b84f,629afb2e58460b5c21e0f1f8,[0.21699999999998454],,,,,,,,,,,,,,,,,,,,,,,,,,,,,,,,,,,,,,,,,,,,,,,,,,,,,,,,,,,,,,,,,,,,,,,,,,,,,,,,,,,,,,,,,,,,,,,,,,,,,,,
,,"[""period""]",0,81,0,81,0,1,6047d153b53e4a096d54b26b,24,Mężczyzna,2022-06-04_08h27.18.105,task,2021.1.4,Win32,60.33182504,628b806c463b948bc644b84f,629afb2e58460b5c21e0f1f8,[0.2947000000476976],,,,,,,,,,,,,,,,,,,,,,,,,,,,,,,,,,,,,,,,,,,,,,,,,,,,,,,,,,,,,,,,,,,,,,,,,,,,,,,,,,,,,,,,,,,,,,,,,,,,,,,
,,"[""comma""]",0,82,0,82,0,1,6047d153b53e4a096d54b26b,24,Mężczyzna,2022-06-04_08h27.18.105,task,2021.1.4,Win32,60.33182504,628b806c463b948bc644b84f,629afb2e58460b5c21e0f1f8,[0.23360000014307047],,,,,,,,,,,,,,,,,,,,,,,,,,,,,,,,,,,,,,,,,,,,,,,,,,,,,,,,,,,,,,,,,,,,,,,,,,,,,,,,,,,,,,,,,,,,,,,,,,,,,,,
,,"[""period""]",0,83,0,83,0,1,6047d153b53e4a096d54b26b,24,Mężczyzna,2022-06-04_08h27.18.105,task,2021.1.4,Win32,60.33182504,628b806c463b948bc644b84f,629afb2e58460b5c21e0f1f8,[0.23359999990464075],,,,,,,,,,,,,,,,,,,,,,,,,,,,,,,,,,,,,,,,,,,,,,,,,,,,,,,,,,,,,,,,,,,,,,,,,,,,,,,,,,,,,,,,,,,,,,,,,,,,,,,
,,"[""comma""]",0,84,0,84,0,1,6047d153b53e4a096d54b26b,24,Mężczyzna,2022-06-04_08h27.18.105,task,2021.1.4,Win32,60.33182504,628b806c463b948bc644b84f,629afb2e58460b5c21e0f1f8,[0.2335000000000207],,,,,,,,,,,,,,,,,,,,,,,,,,,,,,,,,,,,,,,,,,,,,,,,,,,,,,,,,,,,,,,,,,,,,,,,,,,,,,,,,,,,,,,,,,,,,,,,,,,,,,,
,,"[""period""]",0,85,0,85,0,1,6047d153b53e4a096d54b26b,24,Mężczyzna,2022-06-04_08h27.18.105,task,2021.1.4,Win32,60.33182504,628b806c463b948bc644b84f,629afb2e58460b5c21e0f1f8,[0.25009999990462006],,,,,,,,,,,,,,,,,,,,,,,,,,,,,,,,,,,,,,,,,,,,,,,,,,,,,,,,,,,,,,,,,,,,,,,,,,,,,,,,,,,,,,,,,,,,,,,,,,,,,,,
,,"[""comma""]",0,86,0,86,0,1,6047d153b53e4a096d54b26b,24,Mężczyzna,2022-06-04_08h27.18.105,task,2021.1.4,Win32,60.33182504,628b806c463b948bc644b84f,629afb2e58460b5c21e0f1f8,[0.2382000000476978],,,,,,,,,,,,,,,,,,,,,,,,,,,,,,,,,,,,,,,,,,,,,,,,,,,,,,,,,,,,,,,,,,,,,,,,,,,,,,,,,,,,,,,,,,,,,,,,,,,,,,,
,,"[""comma""]",0,87,0,87,0,1,6047d153b53e4a096d54b26b,24,Mężczyzna,2022-06-04_08h27.18.105,task,2021.1.4,Win32,60.33182504,628b806c463b948bc644b84f,629afb2e58460b5c21e0f1f8,[0.35769999980925604],,,,,,,,,,,,,,,,,,,,,,,,,,,,,,,,,,,,,,,,,,,,,,,,,,,,,,,,,,,,,,,,,,,,,,,,,,,,,,,,,,,,,,,,,,,,,,,,,,,,,,,
,,"[""period""]",0,88,0,88,0,1,6047d153b53e4a096d54b26b,24,Mężczyzna,2022-06-04_08h27.18.105,task,2021.1.4,Win32,60.33182504,628b806c463b948bc644b84f,629afb2e58460b5c21e0f1f8,[0.2501000001430498],,,,,,,,,,,,,,,,,,,,,,,,,,,,,,,,,,,,,,,,,,,,,,,,,,,,,,,,,,,,,,,,,,,,,,,,,,,,,,,,,,,,,,,,,,,,,,,,,,,,,,,
,,"[""period""]",0,89,0,89,0,1,6047d153b53e4a096d54b26b,24,Mężczyzna,2022-06-04_08h27.18.105,task,2021.1.4,Win32,60.33182504,628b806c463b948bc644b84f,629afb2e58460b5c21e0f1f8,[0.293599999904643],,,,,,,,,,,,,,,,,,,,,,,,,,,,,,,,,,,,,,,,,,,,,,,,,,,,,,,,,,,,,,,,,,,,,,,,,,,,,,,,,,,,,,,,,,,,,,,,,,,,,,,
,,"[""comma""]",0,90,0,90,0,1,6047d153b53e4a096d54b26b,24,Mężczyzna,2022-06-04_08h27.18.105,task,2021.1.4,Win32,60.33182504,628b806c463b948bc644b84f,629afb2e58460b5c21e0f1f8,[0.14170000004767758],,,,,,,,,,,,,,,,,,,,,,,,,,,,,,,,,,,,,,,,,,,,,,,,,,,,,,,,,,,,,,,,,,,,,,,,,,,,,,,,,,,,,,,,,,,,,,,,,,,,,,,
,,"[""comma""]",0,91,0,91,0,1,6047d153b53e4a096d54b26b,24,Mężczyzna,2022-06-04_08h27.18.105,task,2021.1.4,Win32,60.33182504,628b806c463b948bc644b84f,629afb2e58460b5c21e0f1f8,[0.10940000009537698],,,,,,,,,,,,,,,,,,,,,,,,,,,,,,,,,,,,,,,,,,,,,,,,,,,,,,,,,,,,,,,,,,,,,,,,,,,,,,,,,,,,,,,,,,,,,,,,,,,,,,,
,,"[""period""]",0,92,0,92,0,1,6047d153b53e4a096d54b26b,24,Mężczyzna,2022-06-04_08h27.18.105,task,2021.1.4,Win32,60.33182504,628b806c463b948bc644b84f,629afb2e58460b5c21e0f1f8,[0.13359999990461802],,,,,,,,,,,,,,,,,,,,,,,,,,,,,,,,,,,,,,,,,,,,,,,,,,,,,,,,,,,,,,,,,,,,,,,,,,,,,,,,,,,,,,,,,,,,,,,,,,,,,,,
,,"[""comma""]",0,93,0,93,0,1,6047d153b53e4a096d54b26b,24,Mężczyzna,2022-06-04_08h27.18.105,task,2021.1.4,Win32,60.33182504,628b806c463b948bc644b84f,629afb2e58460b5c21e0f1f8,[0.22849999999999682],,,,,,,,,,,,,,,,,,,,,,,,,,,,,,,,,,,,,,,,,,,,,,,,,,,,,,,,,,,,,,,,,,,,,,,,,,,,,,,,,,,,,,,,,,,,,,,,,,,,,,,
,,"[""comma""]",0,94,0,94,0,1,6047d153b53e4a096d54b26b,24,Mężczyzna,2022-06-04_08h27.18.105,task,2021.1.4,Win32,60.33182504,628b806c463b948bc644b84f,629afb2e58460b5c21e0f1f8,[0.261299999952314],,,,,,,,,,,,,,,,,,,,,,,,,,,,,,,,,,,,,,,,,,,,,,,,,,,,,,,,,,,,,,,,,,,,,,,,,,,,,,,,,,,,,,,,,,,,,,,,,,,,,,,
,,"[""comma""]",0,95,0,95,0,1,6047d153b53e4a096d54b26b,24,Mężczyzna,2022-06-04_08h27.18.105,task,2021.1.4,Win32,60.33182504,628b806c463b948bc644b84f,629afb2e58460b5c21e0f1f8,[0.3169000000953588],,,,,,,,,,,,,,,,,,,,,,,,,,,,,,,,,,,,,,,,,,,,,,,,,,,,,,,,,,,,,,,,,,,,,,,,,,,,,,,,,,,,,,,,,,,,,,,,,,,,,,,
,,"[""period""]",0,96,0,96,0,1,6047d153b53e4a096d54b26b,24,Mężczyzna,2022-06-04_08h27.18.105,task,2021.1.4,Win32,60.33182504,628b806c463b948bc644b84f,629afb2e58460b5c21e0f1f8,[0.3167000000476605],,,,,,,,,,,,,,,,,,,,,,,,,,,,,,,,,,,,,,,,,,,,,,,,,,,,,,,,,,,,,,,,,,,,,,,,,,,,,,,,,,,,,,,,,,,,,,,,,,,,,,,
,,"[""period""]",0,97,0,97,0,1,6047d153b53e4a096d54b26b,24,Mężczyzna,2022-06-04_08h27.18.105,task,2021.1.4,Win32,60.33182504,628b806c463b948bc644b84f,629afb2e58460b5c21e0f1f8,[0.3247999999523472],,,,,,,,,,,,,,,,,,,,,,,,,,,,,,,,,,,,,,,,,,,,,,,,,,,,,,,,,,,,,,,,,,,,,,,,,,,,,,,,,,,,,,,,,,,,,,,,,,,,,,,
,,"[""comma""]",0,98,0,98,0,1,6047d153b53e4a096d54b26b,24,Mężczyzna,2022-06-04_08h27.18.105,task,2021.1.4,Win32,60.33182504,628b806c463b948bc644b84f,629afb2e58460b5c21e0f1f8,[0.2835999999046521],,,,,,,,,,,,,,,,,,,,,,,,,,,,,,,,,,,,,,,,,,,,,,,,,,,,,,,,,,,,,,,,,,,,,,,,,,,,,,,,,,,,,,,,,,,,,,,,,,,,,,,
,,"[""comma""]",0,99,0,99,0,1,6047d153b53e4a096d54b26b,24,Mężczyzna,2022-06-04_08h27.18.105,task,2021.1.4,Win32,60.33182504,628b806c463b948bc644b84f,629afb2e58460b5c21e0f1f8,[0.24420000004766962],,,,,,,,,,,,,,,,,,,,,,,,,,,,,,,,,,,,,,,,,,,,,,,,,,,,,,,,,,,,,,,,,,,,,,,,,,,,,,,,,,,,,,,,,,,,,,,,,,,,,,,
,,"[""comma""]",0,100,0,100,0,1,6047d153b53e4a096d54b26b,24,Mężczyzna,2022-06-04_08h27.18.105,task,2021.1.4,Win32,60.33182504,628b806c463b948bc644b84f,629afb2e58460b5c21e0f1f8,[0.22839999985694703],,,,,,,,,,,,,,,,,,,,,,,,,,,,,,,,,,,,,,,,,,,,,,,,,,,,,,,,,,,,,,,,,,,,,,,,,,,,,,,,,,,,,,,,,,,,,,,,,,,,,,,
,,"[""comma""]",0,101,0,101,0,1,6047d153b53e4a096d54b26b,24,Mężczyzna,2022-06-04_08h27.18.105,task,2021.1.4,Win32,60.33182504,628b806c463b948bc644b84f,629afb2e58460b5c21e0f1f8,[0.25040000009539654],,,,,,,,,,,,,,,,,,,,,,,,,,,,,,,,,,,,,,,,,,,,,,,,,,,,,,,,,,,,,,,,,,,,,,,,,,,,,,,,,,,,,,,,,,,,,,,,,,,,,,,
,,"[""comma""]",0,102,0,102,0,1,6047d153b53e4a096d54b26b,24,Mężczyzna,2022-06-04_08h27.18.105,task,2021.1.4,Win32,60.33182504,628b806c463b948bc644b84f,629afb2e58460b5c21e0f1f8,[0.21700000000004138],,,,,,,,,,,,,,,,,,,,,,,,,,,,,,,,,,,,,,,,,,,,,,,,,,,,,,,,,,,,,,,,,,,,,,,,,,,,,,,,,,,,,,,,,,,,,,,,,,,,,,,
,,"[""period""]",0,103,0,103,0,1,6047d153b53e4a096d54b26b,24,Mężczyzna,2022-06-04_08h27.18.105,task,2021.1.4,Win32,60.33182504,628b806c463b948bc644b84f,629afb2e58460b5c21e0f1f8,[0.00980000019075078],,,,,,,,,,,,,,,,,,,,,,,,,,,,,,,,,,,,,,,,,,,,,,,,,,,,,,,,,,,,,,,,,,,,,,,,,,,,,,,,,,,,,,,,,,,,,,,,,,,,,,,
,,"[""period""]",0,104,0,104,0,1,6047d153b53e4a096d54b26b,24,Mężczyzna,2022-06-04_08h27.18.105,task,2021.1.4,Win32,60.33182504,628b806c463b948bc644b84f,629afb2e58460b5c21e0f1f8,[0.21220000004768735],,,,,,,,,,,,,,,,,,,,,,,,,,,,,,,,,,,,,,,,,,,,,,,,,,,,,,,,,,,,,,,,,,,,,,,,,,,,,,,,,,,,,,,,,,,,,,,,,,,,,,,
,,"[""period""]",0,105,0,105,0,1,6047d153b53e4a096d54b26b,24,Mężczyzna,2022-06-04_08h27.18.105,task,2021.1.4,Win32,60.33182504,628b806c463b948bc644b84f,629afb2e58460b5c21e0f1f8,[0.23599999999999],,,,,,,,,,,,,,,,,,,,,,,,,,,,,,,,,,,,,,,,,,,,,,,,,,,,,,,,,,,,,,,,,,,,,,,,,,,,,,,,,,,,,,,,,,,,,,,,,,,,,,,
,,"[""comma""]",0,106,0,106,0,1,6047d153b53e4a096d54b26b,24,Mężczyzna,2022-06-04_08h27.18.105,task,2021.1.4,Win32,60.33182504,628b806c463b948bc644b84f,629afb2e58460b5c21e0f1f8,[0.20370000004771782],,,,,,,,,,,,,,,,,,,,,,,,,,,,,,,,,,,,,,,,,,,,,,,,,,,,,,,,,,,,,,,,,,,,,,,,,,,,,,,,,,,,,,,,,,,,,,,,,,,,,,,
,,"[""period""]",0,107,0,107,0,1,6047d153b53e4a096d54b26b,24,Mężczyzna,2022-06-04_08h27.18.105,task,2021.1.4,Win32,60.33182504,628b806c463b948bc644b84f,629afb2e58460b5c21e0f1f8,[0.24399999999997135],,,,,,,,,,,,,,,,,,,,,,,,,,,,,,,,,,,,,,,,,,,,,,,,,,,,,,,,,,,,,,,,,,,,,,,,,,,,,,,,,,,,,,,,,,,,,,,,,,,,,,,
,,"[""comma""]",0,108,0,108,0,1,6047d153b53e4a096d54b26b,24,Mężczyzna,2022-06-04_08h27.18.105,task,2021.1.4,Win32,60.33182504,628b806c463b948bc644b84f,629afb2e58460b5c21e0f1f8,[0.1633999998569493],,,,,,,,,,,,,,,,,,,,,,,,,,,,,,,,,,,,,,,,,,,,,,,,,,,,,,,,,,,,,,,,,,,,,,,,,,,,,,,,,,,,,,,,,,,,,,,,,,,,,,,
,,"[""period""]",0,109,0,109,0,1,6047d153b53e4a096d54b26b,24,Mężczyzna,2022-06-04_08h27.18.105,task,2021.1.4,Win32,60.33182504,628b806c463b948bc644b84f,629afb2e58460b5c21e0f1f8,[0.20039999985692702],,,,,,,,,,,,,,,,,,,,,,,,,,,,,,,,,,,,,,,,,,,,,,,,,,,,,,,,,,,,,,,,,,,,,,,,,,,,,,,,,,,,,,,,,,,,,,,,,,,,,,,
,,"[""comma""]",0,110,0,110,0,1,6047d153b53e4a096d54b26b,24,Mężczyzna,2022-06-04_08h27.18.105,task,2021.1.4,Win32,60.33182504,628b806c463b948bc644b84f,629afb2e58460b5c21e0f1f8,[0.011200000047665526],,,,,,,,,,,,,,,,,,,,,,,,,,,,,,,,,,,,,,,,,,,,,,,,,,,,,,,,,,,,,,,,,,,,,,,,,,,,,,,,,,,,,,,,,,,,,,,,,,,,,,,
,,"[""comma""]",0,111,0,111,0,1,6047d153b53e4a096d54b26b,24,Mężczyzna,2022-06-04_08h27.18.105,task,2021.1.4,Win32,60.33182504,628b806c463b948bc644b84f,629afb2e58460b5c21e0f1f8,[0.18720000004765325],,,,,,,,,,,,,,,,,,,,,,,,,,,,,,,,,,,,,,,,,,,,,,,,,,,,,,,,,,,,,,,,,,,,,,,,,,,,,,,,,,,,,,,,,,,,,,,,,,,,,,,
,,"[""comma""]",0,112,0,112,0,1,6047d153b53e4a096d54b26b,24,Mężczyzna,2022-06-04_08h27.18.105,task,2021.1.4,Win32,60.33182504,628b806c463b948bc644b84f,629afb2e58460b5c21e0f1f8,[0.2504999999999882],,,,,,,,,,,,,,,,,,,,,,,,,,,,,,,,,,,,,,,,,,,,,,,,,,,,,,,,,,,,,,,,,,,,,,,,,,,,,,,,,,,,,,,,,,,,,,,,,,,,,,,
,,"[""period""]",0,113,0,113,0,1,6047d153b53e4a096d54b26b,24,Mężczyzna,2022-06-04_08h27.18.105,task,2021.1.4,Win32,60.33182504,628b806c463b948bc644b84f,629afb2e58460b5c21e0f1f8,[0.20029999995233538],,,,,,,,,,,,,,,,,,,,,,,,,,,,,,,,,,,,,,,,,,,,,,,,,,,,,,,,,,,,,,,,,,,,,,,,,,,,,,,,,,,,,,,,,,,,,,,,,,,,,,,
,,"[""period""]",0,114,0,114,0,1,6047d153b53e4a096d54b26b,24,Mężczyzna,2022-06-04_08h27.18.105,task,2021.1.4,Win32,60.33182504,628b806c463b948bc644b84f,629afb2e58460b5c21e0f1f8,[0.06709999990465576],,,,,,,,,,,,,,,,,,,,,,,,,,,,,,,,,,,,,,,,,,,,,,,,,,,,,,,,,,,,,,,,,,,,,,,,,,,,,,,,,,,,,,,,,,,,,,,,,,,,,,,
,,"[""period""]",0,115,0,115,0,1,6047d153b53e4a096d54b26b,24,Mężczyzna,2022-06-04_08h27.18.105,task,2021.1.4,Win32,60.33182504,628b806c463b948bc644b84f,629afb2e58460b5c21e0f1f8,[0.194500000000005],,,,,,,,,,,,,,,,,,,,,,,,,,,,,,,,,,,,,,,,,,,,,,,,,,,,,,,,,,,,,,,,,,,,,,,,,,,,,,,,,,,,,,,,,,,,,,,,,,,,,,,
,,"[""comma""]",0,116,0,116,0,1,6047d153b53e4a096d54b26b,24,Mężczyzna,2022-06-04_08h27.18.105,task,2021.1.4,Win32,60.33182504,628b806c463b948bc644b84f,629afb2e58460b5c21e0f1f8,[0.28389999985694203],,,,,,,,,,,,,,,,,,,,,,,,,,,,,,,,,,,,,,,,,,,,,,,,,,,,,,,,,,,,,,,,,,,,,,,,,,,,,,,,,,,,,,,,,,,,,,,,,,,,,,,
,,"[""comma""]",0,117,0,117,0,1,6047d153b53e4a096d54b26b,24,Mężczyzna,2022-06-04_08h27.18.105,task,2021.1.4,Win32,60.33182504,628b806c463b948bc644b84f,629afb2e58460b5c21e0f1f8,[0.25070000004768644],,,,,,,,,,,,,,,,,,,,,,,,,,,,,,,,,,,,,,,,,,,,,,,,,,,,,,,,,,,,,,,,,,,,,,,,,,,,,,,,,,,,,,,,,,,,,,,,,,,,,,,
,,"[""period""]",0,118,0,118,0,1,6047d153b53e4a096d54b26b,24,Mężczyzna,2022-06-04_08h27.18.105,task,2021.1.4,Win32,60.33182504,628b806c463b948bc644b84f,629afb2e58460b5c21e0f1f8,[0.23399999999998045],,,,,,,,,,,,,,,,,,,,,,,,,,,,,,,,,,,,,,,,,,,,,,,,,,,,,,,,,,,,,,,,,,,,,,,,,,,,,,,,,,,,,,,,,,,,,,,,,,,,,,,
,,"[""period""]",0,119,0,119,0,1,6047d153b53e4a096d54b26b,24,Mężczyzna,2022-06-04_08h27.18.105,task,2021.1.4,Win32,60.33182504,628b806c463b948bc644b84f,629afb2e58460b5c21e0f1f8,[0.20199999999999818],,,,,,,,,,,,,,,,,,,,,,,,,,,,,,,,,,,,,,,,,,,,,,,,,,,,,,,,,,,,,,,,,,,,,,,,,,,,,,,,,,,,,,,,,,,,,,,,,,,,,,,
,,,,,,,,,6047d153b53e4a096d54b26b,24,Mężczyzna,2022-06-04_08h27.18.105,task,2021.1.4,Win32,60.33182504,628b806c463b948bc644b84f,629afb2e58460b5c21e0f1f8,,space,51.1374,space,11.1894,0,0,0,0,1,X V Q F H G B L J M P D K C T S W R N Z,,,,,,,,,,,,,,,,,,,,,,,,,,,,,,,,,,,,,,,,,,,,,,,,,,,,,,,,,,,,,,,,,,,,,,,,,,,,,,,,,,,,,,,,,,,,,
,,,,,,,,,6047d153b53e4a096d54b26b,24,Mężczyzna,2022-06-04_08h27.18.105,task,2021.1.4,Win32,60.33182504,628b806c463b948bc644b84f,629afb2e58460b5c21e0f1f8,,,,,,1,0,1,0,1,X V Q F H G B L J M P D K C T S W R N Z,,,,,,,,,,,,,,,,,,,,,,,,,,,,,,,,,,,,,,,,,,,,,,,,,,,,,,,,,,,,,,,,,,,,,,,,,,,,,,,,,,,,,,,,,,,,,
,,,,,,,,,6047d153b53e4a096d54b26b,24,Mężczyzna,2022-06-04_08h27.18.105,task,2021.1.4,Win32,60.33182504,628b806c463b948bc644b84f,629afb2e58460b5c21e0f1f8,,,,,,,,,,,,zh,"[""z"",""h""]","[1.5643000001907126,1.8765000000000214,5.668200000047705]",1,ZH,0,0,0,0,1,,,,,,,,,,,,,,,,,,,,,,,,,,,,,,,,,,,,,,,,,,,,,,,,,,,,,,,,,,,,,,,,,,,,,,,,,,,,,,,,,,,
,,,,,,,,,6047d153b53e4a096d54b26b,24,Mężczyzna,2022-06-04_08h27.18.105,task,2021.1.4,Win32,60.33182504,628b806c463b948bc644b84f,629afb2e58460b5c21e0f1f8,,,,,,0,0,0,0,1,X V Q F H G B L J M P D K C T S W R N Z,,,,,,,,,,,,,,,,,,,,,,,,,,,,,,,,,,,,,,,,,,,,,,,,,,,,,,,,,,,,,,,,,,,,,,,,,,,,,,,,,,,,,,,,,,,,,
,,,,,,,,,6047d153b53e4a096d54b26b,24,Mężczyzna,2022-06-04_08h27.18.105,task,2021.1.4,Win32,60.33182504,628b806c463b948bc644b84f,629afb2e58460b5c21e0f1f8,,,,,,1,0,1,0,1,X V Q F H G B L J M P D K C T S W R N Z,,,,,,,,,,,,,,,,,,,,,,,,,,,,,,,,,,,,,,,,,,,,,,,,,,,,,,,,,,,,,,,,,,,,,,,,,,,,,,,,,,,,,,,,,,,,,
,,,,,,,,,6047d153b53e4a096d54b26b,24,Mężczyzna,2022-06-04_08h27.18.105,task,2021.1.4,Win32,60.33182504,628b806c463b948bc644b84f,629afb2e58460b5c21e0f1f8,,,,,,,,,,,,vr,"[""v"",""r""]","[0.9425999999046439,1.2220999999046285,1.6865000000000236]",1,VR,1,0,1,0,1,,,,,,,,,,,,,,,,,,,,,,,,,,,,,,,,,,,,,,,,,,,,,,,,,,,,,,,,,,,,,,,,,,,,,,,,,,,,,,,,,,,
,,,,,,,,,6047d153b53e4a096d54b26b,24,Mężczyzna,2022-06-04_08h27.18.105,task,2021.1.4,Win32,60.33182504,628b806c463b948bc644b84f,629afb2e58460b5c21e0f1f8,,,,,,0,0,0,0,1,X V Q F H G B L J M P D K C T S W R N Z,,,,,,,,,,,,,,,,,,,,,,,,,,,,,,,,,,,,,,,,,,,,,,,,,,,,,,,,,,,,,,,,,,,,,,,,,,,,,,,,,,,,,,,,,,,,,
,,,,,,,,,6047d153b53e4a096d54b26b,24,Mężczyzna,2022-06-04_08h27.18.105,task,2021.1.4,Win32,60.33182504,628b806c463b948bc644b84f,629afb2e58460b5c21e0f1f8,,,,,,1,0,1,0,1,X V Q F H G B L J M P D K C T S W R N Z,,,,,,,,,,,,,,,,,,,,,,,,,,,,,,,,,,,,,,,,,,,,,,,,,,,,,,,,,,,,,,,,,,,,,,,,,,,,,,,,,,,,,,,,,,,,,
,,,,,,,,,6047d153b53e4a096d54b26b,24,Mężczyzna,2022-06-04_08h27.18.105,task,2021.1.4,Win32,60.33182504,628b806c463b948bc644b84f,629afb2e58460b5c21e0f1f8,,,,,,2,0,2,0,1,X V Q F H G B L J M P D K C T S W R N Z,,,,,,,,,,,,,,,,,,,,,,,,,,,,,,,,,,,,,,,,,,,,,,,,,,,,,,,,,,,,,,,,,,,,,,,,,,,,,,,,,,,,,,,,,,,,,
,,,,,,,,,6047d153b53e4a096d54b26b,24,Mężczyzna,2022-06-04_08h27.18.105,task,2021.1.4,Win32,60.33182504,628b806c463b948bc644b84f,629afb2e58460b5c21e0f1f8,,,,,,,,,,,,lwd,"[""l"",""w"",""d""]","[0.6619000000953861,0.7499000000953515,0.8222999999522926,0.9897000000476623]",1,LWD,2,0,2,0,1,,,,,,,,,,,,,,,,,,,,,,,,,,,,,,,,,,,,,,,,,,,,,,,,,,,,,,,,,,,,,,,,,,,,,,,,,,,,,,,,,,,
,,,,,,,,,6047d153b53e4a096d54b26b,24,Mężczyzna,2022-06-04_08h27.18.105,task,2021.1.4,Win32,60.33182504,628b806c463b948bc644b84f,629afb2e58460b5c21e0f1f8,,,,,,0,0,0,0,1,X V Q F H G B L J M P D K C T S W R N Z,,,,,,,,,,,,,,,,,,,,,,,,,,,,,,,,,,,,,,,,,,,,,,,,,,,,,,,,,,,,,,,,,,,,,,,,,,,,,,,,,,,,,,,,,,,,,
,,,,,,,,,6047d153b53e4a096d54b26b,24,Mężczyzna,2022-06-04_08h27.18.105,task,2021.1.4,Win32,60.33182504,628b806c463b948bc644b84f,629afb2e58460b5c21e0f1f8,,,,,,1,0,1,0,1,X V Q F H G B L J M P D K C T S W R N Z,,,,,,,,,,,,,,,,,,,,,,,,,,,,,,,,,,,,,,,,,,,,,,,,,,,,,,,,,,,,,,,,,,,,,,,,,,,,,,,,,,,,,,,,,,,,,
,,,,,,,,,6047d153b53e4a096d54b26b,24,Mężczyzna,2022-06-04_08h27.18.105,task,2021.1.4,Win32,60.33182504,628b806c463b948bc644b84f,629afb2e58460b5c21e0f1f8,,,,,,2,0,2,0,1,X V Q F H G B L J M P D K C T S W R N Z,,,,,,,,,,,,,,,,,,,,,,,,,,,,,,,,,,,,,,,,,,,,,,,,,,,,,,,,,,,,,,,,,,,,,,,,,,,,,,,,,,,,,,,,,,,,,
,,,,,,,,,6047d153b53e4a096d54b26b,24,Mężczyzna,2022-06-04_08h27.18.105,task,2021.1.4,Win32,60.33182504,628b806c463b948bc644b84f,629afb2e58460b5c21e0f1f8,,,,,,,,,,,,fhp,"[""f"",""h"",""p""]","[0.13800000000003365,0.20170000004770827,0.30579999995234175,0.5697000000477033]",1,FHP,3,0,3,0,1,,,,,,,,,,,,,,,,,,,,,,,,,,,,,,,,,,,,,,,,,,,,,,,,,,,,,,,,,,,,,,,,,,,,,,,,,,,,,,,,,,,
,,,,,,,,,6047d153b53e4a096d54b26b,24,Mężczyzna,2022-06-04_08h27.18.105,task,2021.1.4,Win32,60.33182504,628b806c463b948bc644b84f,629afb2e58460b5c21e0f1f8,,,,,,0,0,0,0,1,X V Q F H G B L J M P D K C T S W R N Z,,,,,,,,,,,,,,,,,,,,,,,,,,,,,,,,,,,,,,,,,,,,,,,,,,,,,,,,,,,,,,,,,,,,,,,,,,,,,,,,,,,,,,,,,,,,,
,,,,,,,,,6047d153b53e4a096d54b26b,24,Mężczyzna,2022-06-04_08h27.18.105,task,2021.1.4,Win32,60.33182504,628b806c463b948bc644b84f,629afb2e58460b5c21e0f1f8,,,,,,1,0,1,0,1,X V Q F H G B L J M P D K C T S W R N Z,,,,,,,,,,,,,,,,,,,,,,,,,,,,,,,,,,,,,,,,,,,,,,,,,,,,,,,,,,,,,,,,,,,,,,,,,,,,,,,,,,,,,,,,,,,,,
,,,,,,,,,6047d153b53e4a096d54b26b,24,Mężczyzna,2022-06-04_08h27.18.105,task,2021.1.4,Win32,60.33182504,628b806c463b948bc644b84f,629afb2e58460b5c21e0f1f8,,,,,,2,0,2,0,1,X V Q F H G B L J M P D K C T S W R N Z,,,,,,,,,,,,,,,,,,,,,,,,,,,,,,,,,,,,,,,,,,,,,,,,,,,,,,,,,,,,,,,,,,,,,,,,,,,,,,,,,,,,,,,,,,,,,
,,,,,,,,,6047d153b53e4a096d54b26b,24,Mężczyzna,2022-06-04_08h27.18.105,task,2021.1.4,Win32,60.33182504,628b806c463b948bc644b84f,629afb2e58460b5c21e0f1f8,,,,,,3,0,3,0,1,X V Q F H G B L J M P D K C T S W R N Z,,,,,,,,,,,,,,,,,,,,,,,,,,,,,,,,,,,,,,,,,,,,,,,,,,,,,,,,,,,,,,,,,,,,,,,,,,,,,,,,,,,,,,,,,,,,,
,,,,,,,,,6047d153b53e4a096d54b26b,24,Mężczyzna,2022-06-04_08h27.18.105,task,2021.1.4,Win32,60.33182504,628b806c463b948bc644b84f,629afb2e58460b5c21e0f1f8,,,,,,,,,,,,rrll,"[""r"",""r"",""l"",""l""]","[0.41020000004766644,0.545799999952294,0.6742000000476764,0.8100999999046508,0.9303999998569452]",1,RRLL,4,0,4,0,1,,,,,,,,,,,,,,,,,,,,,,,,,,,,,,,,,,,,,,,,,,,,,,,,,,,,,,,,,,,,,,,,,,,,,,,,,,,,,,,,,,,
,,,,,,,,,6047d153b53e4a096d54b26b,24,Mężczyzna,2022-06-04_08h27.18.105,task,2021.1.4,Win32,60.33182504,628b806c463b948bc644b84f,629afb2e58460b5c21e0f1f8,,,,,,0,0,0,0,1,X V Q F H G B L J M P D K C T S W R N Z,,,,,,,,,,,,,,,,,,,,,,,,,,,,,,,,,,,,,,,,,,,,,,,,,,,,,,,,,,,,,,,,,,,,,,,,,,,,,,,,,,,,,,,,,,,,,
,,,,,,,,,6047d153b53e4a096d54b26b,24,Mężczyzna,2022-06-04_08h27.18.105,task,2021.1.4,Win32,60.33182504,628b806c463b948bc644b84f,629afb2e58460b5c21e0f1f8,,,,,,1,0,1,0,1,X V Q F H G B L J M P D K C T S W R N Z,,,,,,,,,,,,,,,,,,,,,,,,,,,,,,,,,,,,,,,,,,,,,,,,,,,,,,,,,,,,,,,,,,,,,,,,,,,,,,,,,,,,,,,,,,,,,
,,,,,,,,,6047d153b53e4a096d54b26b,24,Mężczyzna,2022-06-04_08h27.18.105,task,2021.1.4,Win32,60.33182504,628b806c463b948bc644b84f,629afb2e58460b5c21e0f1f8,,,,,,2,0,2,0,1,X V Q F H G B L J M P D K C T S W R N Z,,,,,,,,,,,,,,,,,,,,,,,,,,,,,,,,,,,,,,,,,,,,,,,,,,,,,,,,,,,,,,,,,,,,,,,,,,,,,,,,,,,,,,,,,,,,,
,,,,,,,,,6047d153b53e4a096d54b26b,24,Mężczyzna,2022-06-04_08h27.18.105,task,2021.1.4,Win32,60.33182504,628b806c463b948bc644b84f,629afb2e58460b5c21e0f1f8,,,,,,3,0,3,0,1,X V Q F H G B L J M P D K C T S W R N Z,,,,,,,,,,,,,,,,,,,,,,,,,,,,,,,,,,,,,,,,,,,,,,,,,,,,,,,,,,,,,,,,,,,,,,,,,,,,,,,,,,,,,,,,,,,,,
,,,,,,,,,6047d153b53e4a096d54b26b,24,Mężczyzna,2022-06-04_08h27.18.105,task,2021.1.4,Win32,60.33182504,628b806c463b948bc644b84f,629afb2e58460b5c21e0f1f8,,,,,,,,,,,,tgmq,"[""t"",""g"",""m"",""q""]","[0.6765000000000327,0.740299999952299,0.9165999999046335,1.0843999998569416,1.1885000000000332]",1,TGMQ,5,0,5,0,1,,,,,,,,,,,,,,,,,,,,,,,,,,,,,,,,,,,,,,,,,,,,,,,,,,,,,,,,,,,,,,,,,,,,,,,,,,,,,,,,,,,
,,,,,,,,,6047d153b53e4a096d54b26b,24,Mężczyzna,2022-06-04_08h27.18.105,task,2021.1.4,Win32,60.33182504,628b806c463b948bc644b84f,629afb2e58460b5c21e0f1f8,,,,,,0,0,0,0,1,X V Q F H G B L J M P D K C T S W R N Z,,,,,,,,,,,,,,,,,,,,,,,,,,,,,,,,,,,,,,,,,,,,,,,,,,,,,,,,,,,,,,,,,,,,,,,,,,,,,,,,,,,,,,,,,,,,,
,,,,,,,,,6047d153b53e4a096d54b26b,24,Mężczyzna,2022-06-04_08h27.18.105,task,2021.1.4,Win32,60.33182504,628b806c463b948bc644b84f,629afb2e58460b5c21e0f1f8,,,,,,1,0,1,0,1,X V Q F H G B L J M P D K C T S W R N Z,,,,,,,,,,,,,,,,,,,,,,,,,,,,,,,,,,,,,,,,,,,,,,,,,,,,,,,,,,,,,,,,,,,,,,,,,,,,,,,,,,,,,,,,,,,,,
,,,,,,,,,6047d153b53e4a096d54b26b,24,Mężczyzna,2022-06-04_08h27.18.105,task,2021.1.4,Win32,60.33182504,628b806c463b948bc644b84f,629afb2e58460b5c21e0f1f8,,,,,,2,0,2,0,1,X V Q F H G B L J M P D K C T S W R N Z,,,,,,,,,,,,,,,,,,,,,,,,,,,,,,,,,,,,,,,,,,,,,,,,,,,,,,,,,,,,,,,,,,,,,,,,,,,,,,,,,,,,,,,,,,,,,
,,,,,,,,,6047d153b53e4a096d54b26b,24,Mężczyzna,2022-06-04_08h27.18.105,task,2021.1.4,Win32,60.33182504,628b806c463b948bc644b84f,629afb2e58460b5c21e0f1f8,,,,,,3,0,3,0,1,X V Q F H G B L J M P D K C T S W R N Z,,,,,,,,,,,,,,,,,,,,,,,,,,,,,,,,,,,,,,,,,,,,,,,,,,,,,,,,,,,,,,,,,,,,,,,,,,,,,,,,,,,,,,,,,,,,,
,,,,,,,,,6047d153b53e4a096d54b26b,24,Mężczyzna,2022-06-04_08h27.18.105,task,2021.1.4,Win32,60.33182504,628b806c463b948bc644b84f,629afb2e58460b5c21e0f1f8,,,,,,4,0,4,0,1,X V Q F H G B L J M P D K C T S W R N Z,,,,,,,,,,,,,,,,,,,,,,,,,,,,,,,,,,,,,,,,,,,,,,,,,,,,,,,,,,,,,,,,,,,,,,,,,,,,,,,,,,,,,,,,,,,,,
,,,,,,,,,6047d153b53e4a096d54b26b,24,Mężczyzna,2022-06-04_08h27.18.105,task,2021.1.4,Win32,60.33182504,628b806c463b948bc644b84f,629afb2e58460b5c21e0f1f8,,,,,,,,,,,,pdwth,"[""p"",""d"",""w"",""t"",""h""]","[0.6637000000476974,0.9760999999046476,1.1169000000953702,1.297099999904617,2.079799999952286,2.359700000047667]",1,PDWTH,6,0,6,0,1,,,,,,,,,,,,,,,,,,,,,,,,,,,,,,,,,,,,,,,,,,,,,,,,,,,,,,,,,,,,,,,,,,,,,,,,,,,,,,,,,,,
,,,,,,,,,6047d153b53e4a096d54b26b,24,Mężczyzna,2022-06-04_08h27.18.105,task,2021.1.4,Win32,60.33182504,628b806c463b948bc644b84f,629afb2e58460b5c21e0f1f8,,,,,,0,0,0,0,1,X V Q F H G B L J M P D K C T S W R N Z,,,,,,,,,,,,,,,,,,,,,,,,,,,,,,,,,,,,,,,,,,,,,,,,,,,,,,,,,,,,,,,,,,,,,,,,,,,,,,,,,,,,,,,,,,,,,
,,,,,,,,,6047d153b53e4a096d54b26b,24,Mężczyzna,2022-06-04_08h27.18.105,task,2021.1.4,Win32,60.33182504,628b806c463b948bc644b84f,629afb2e58460b5c21e0f1f8,,,,,,1,0,1,0,1,X V Q F H G B L J M P D K C T S W R N Z,,,,,,,,,,,,,,,,,,,,,,,,,,,,,,,,,,,,,,,,,,,,,,,,,,,,,,,,,,,,,,,,,,,,,,,,,,,,,,,,,,,,,,,,,,,,,
,,,,,,,,,6047d153b53e4a096d54b26b,24,Mężczyzna,2022-06-04_08h27.18.105,task,2021.1.4,Win32,60.33182504,628b806c463b948bc644b84f,629afb2e58460b5c21e0f1f8,,,,,,2,0,2,0,1,X V Q F H G B L J M P D K C T S W R N Z,,,,,,,,,,,,,,,,,,,,,,,,,,,,,,,,,,,,,,,,,,,,,,,,,,,,,,,,,,,,,,,,,,,,,,,,,,,,,,,,,,,,,,,,,,,,,
,,,,,,,,,6047d153b53e4a096d54b26b,24,Mężczyzna,2022-06-04_08h27.18.105,task,2021.1.4,Win32,60.33182504,628b806c463b948bc644b84f,629afb2e58460b5c21e0f1f8,,,,,,3,0,3,0,1,X V Q F H G B L J M P D K C T S W R N Z,,,,,,,,,,,,,,,,,,,,,,,,,,,,,,,,,,,,,,,,,,,,,,,,,,,,,,,,,,,,,,,,,,,,,,,,,,,,,,,,,,,,,,,,,,,,,
,,,,,,,,,6047d153b53e4a096d54b26b,24,Mężczyzna,2022-06-04_08h27.18.105,task,2021.1.4,Win32,60.33182504,628b806c463b948bc644b84f,629afb2e58460b5c21e0f1f8,,,,,,4,0,4,0,1,X V Q F H G B L J M P D K C T S W R N Z,,,,,,,,,,,,,,,,,,,,,,,,,,,,,,,,,,,,,,,,,,,,,,,,,,,,,,,,,,,,,,,,,,,,,,,,,,,,,,,,,,,,,,,,,,,,,
,,,,,,,,,6047d153b53e4a096d54b26b,24,Mężczyzna,2022-06-04_08h27.18.105,task,2021.1.4,Win32,60.33182504,628b806c463b948bc644b84f,629afb2e58460b5c21e0f1f8,,,,,,,,,,,,ttgqt,"[""t"",""t"",""g"",""q"",""t""]","[0.4602000000476778,0.620700000047691,0.8044000000953702,1.2043000001907558,1.4601000001430862,1.7402000000477074]",1,TTGQT,7,0,7,0,1,,,,,,,,,,,,,,,,,,,,,,,,,,,,,,,,,,,,,,,,,,,,,,,,,,,,,,,,,,,,,,,,,,,,,,,,,,,,,,,,,,,
,,,,,,,,,6047d153b53e4a096d54b26b,24,Mężczyzna,2022-06-04_08h27.18.105,task,2021.1.4,Win32,60.33182504,628b806c463b948bc644b84f,629afb2e58460b5c21e0f1f8,,,,,,0,0,0,0,1,X V Q F H G B L J M P D K C T S W R N Z,,,,,,,,,,,,,,,,,,,,,,,,,,,,,,,,,,,,,,,,,,,,,,,,,,,,,,,,,,,,,,,,,,,,,,,,,,,,,,,,,,,,,,,,,,,,,
,,,,,,,,,6047d153b53e4a096d54b26b,24,Mężczyzna,2022-06-04_08h27.18.105,task,2021.1.4,Win32,60.33182504,628b806c463b948bc644b84f,629afb2e58460b5c21e0f1f8,,,,,,1,0,1,0,1,X V Q F H G B L J M P D K C T S W R N Z,,,,,,,,,,,,,,,,,,,,,,,,,,,,,,,,,,,,,,,,,,,,,,,,,,,,,,,,,,,,,,,,,,,,,,,,,,,,,,,,,,,,,,,,,,,,,
,,,,,,,,,6047d153b53e4a096d54b26b,24,Mężczyzna,2022-06-04_08h27.18.105,task,2021.1.4,Win32,60.33182504,628b806c463b948bc644b84f,629afb2e58460b5c21e0f1f8,,,,,,2,0,2,0,1,X V Q F H G B L J M P D K C T S W R N Z,,,,,,,,,,,,,,,,,,,,,,,,,,,,,,,,,,,,,,,,,,,,,,,,,,,,,,,,,,,,,,,,,,,,,,,,,,,,,,,,,,,,,,,,,,,,,
,,,,,,,,,6047d153b53e4a096d54b26b,24,Mężczyzna,2022-06-04_08h27.18.105,task,2021.1.4,Win32,60.33182504,628b806c463b948bc644b84f,629afb2e58460b5c21e0f1f8,,,,,,3,0,3,0,1,X V Q F H G B L J M P D K C T S W R N Z,,,,,,,,,,,,,,,,,,,,,,,,,,,,,,,,,,,,,,,,,,,,,,,,,,,,,,,,,,,,,,,,,,,,,,,,,,,,,,,,,,,,,,,,,,,,,
,,,,,,,,,6047d153b53e4a096d54b26b,24,Mężczyzna,2022-06-04_08h27.18.105,task,2021.1.4,Win32,60.33182504,628b806c463b948bc644b84f,629afb2e58460b5c21e0f1f8,,,,,,4,0,4,0,1,X V Q F H G B L J M P D K C T S W R N Z,,,,,,,,,,,,,,,,,,,,,,,,,,,,,,,,,,,,,,,,,,,,,,,,,,,,,,,,,,,,,,,,,,,,,,,,,,,,,,,,,,,,,,,,,,,,,
,,,,,,,,,6047d153b53e4a096d54b26b,24,Mężczyzna,2022-06-04_08h27.18.105,task,2021.1.4,Win32,60.33182504,628b806c463b948bc644b84f,629afb2e58460b5c21e0f1f8,,,,,,5,0,5,0,1,X V Q F H G B L J M P D K C T S W R N Z,,,,,,,,,,,,,,,,,,,,,,,,,,,,,,,,,,,,,,,,,,,,,,,,,,,,,,,,,,,,,,,,,,,,,,,,,,,,,,,,,,,,,,,,,,,,,
,,,,,,,,,6047d153b53e4a096d54b26b,24,Mężczyzna,2022-06-04_08h27.18.105,task,2021.1.4,Win32,60.33182504,628b806c463b948bc644b84f,629afb2e58460b5c21e0f1f8,,,,,,,,,,,,tjhcsw,"[""t"",""j"",""h"",""c"",""s"",""w""]","[0.8688999998569216,1.2928999998569566,1.5891999998092388,1.8290000000000077,2.0288999998569466,2.212799999952324,2.9968999998569643]",1,TJHCSW,8,0,8,0,1,,,,,,,,,,,,,,,,,,,,,,,,,,,,,,,,,,,,,,,,,,,,,,,,,,,,,,,,,,,,,,,,,,,,,,,,,,,,,,,,,,,
,,,,,,,,,6047d153b53e4a096d54b26b,24,Mężczyzna,2022-06-04_08h27.18.105,task,2021.1.4,Win32,60.33182504,628b806c463b948bc644b84f,629afb2e58460b5c21e0f1f8,,,,,,0,0,0,0,1,X V Q F H G B L J M P D K C T S W R N Z,,,,,,,,,,,,,,,,,,,,,,,,,,,,,,,,,,,,,,,,,,,,,,,,,,,,,,,,,,,,,,,,,,,,,,,,,,,,,,,,,,,,,,,,,,,,,
,,,,,,,,,6047d153b53e4a096d54b26b,24,Mężczyzna,2022-06-04_08h27.18.105,task,2021.1.4,Win32,60.33182504,628b806c463b948bc644b84f,629afb2e58460b5c21e0f1f8,,,,,,1,0,1,0,1,X V Q F H G B L J M P D K C T S W R N Z,,,,,,,,,,,,,,,,,,,,,,,,,,,,,,,,,,,,,,,,,,,,,,,,,,,,,,,,,,,,,,,,,,,,,,,,,,,,,,,,,,,,,,,,,,,,,
,,,,,,,,,6047d153b53e4a096d54b26b,24,Mężczyzna,2022-06-04_08h27.18.105,task,2021.1.4,Win32,60.33182504,628b806c463b948bc644b84f,629afb2e58460b5c21e0f1f8,,,,,,2,0,2,0,1,X V Q F H G B L J M P D K C T S W R N Z,,,,,,,,,,,,,,,,,,,,,,,,,,,,,,,,,,,,,,,,,,,,,,,,,,,,,,,,,,,,,,,,,,,,,,,,,,,,,,,,,,,,,,,,,,,,,
,,,,,,,,,6047d153b53e4a096d54b26b,24,Mężczyzna,2022-06-04_08h27.18.105,task,2021.1.4,Win32,60.33182504,628b806c463b948bc644b84f,629afb2e58460b5c21e0f1f8,,,,,,3,0,3,0,1,X V Q F H G B L J M P D K C T S W R N Z,,,,,,,,,,,,,,,,,,,,,,,,,,,,,,,,,,,,,,,,,,,,,,,,,,,,,,,,,,,,,,,,,,,,,,,,,,,,,,,,,,,,,,,,,,,,,
,,,,,,,,,6047d153b53e4a096d54b26b,24,Mężczyzna,2022-06-04_08h27.18.105,task,2021.1.4,Win32,60.33182504,628b806c463b948bc644b84f,629afb2e58460b5c21e0f1f8,,,,,,4,0,4,0,1,X V Q F H G B L J M P D K C T S W R N Z,,,,,,,,,,,,,,,,,,,,,,,,,,,,,,,,,,,,,,,,,,,,,,,,,,,,,,,,,,,,,,,,,,,,,,,,,,,,,,,,,,,,,,,,,,,,,
,,,,,,,,,6047d153b53e4a096d54b26b,24,Mężczyzna,2022-06-04_08h27.18.105,task,2021.1.4,Win32,60.33182504,628b806c463b948bc644b84f,629afb2e58460b5c21e0f1f8,,,,,,5,0,5,0,1,X V Q F H G B L J M P D K C T S W R N Z,,,,,,,,,,,,,,,,,,,,,,,,,,,,,,,,,,,,,,,,,,,,,,,,,,,,,,,,,,,,,,,,,,,,,,,,,,,,,,,,,,,,,,,,,,,,,
,,,,,,,,,6047d153b53e4a096d54b26b,24,Mężczyzna,2022-06-04_08h27.18.105,task,2021.1.4,Win32,60.33182504,628b806c463b948bc644b84f,629afb2e58460b5c21e0f1f8,,,,,,,,,,,,zxndsc,"[""z"",""x"",""n"",""d"",""s"",""c""]","[1.7005999999046253,2.2677000000476824,2.612099999904615,2.724099999904638,2.924299999952325,3.0282000000476614,3.3799999999999955]",1,ZXNDSC,9,0,9,0,1,,,,,,,,,,,,,,,,,,,,,,,,,,,,,,,,,,,,,,,,,,,,,,,,,,,,,,,,,,,,,,,,,,,,,,,,,,,,,,,,,,,
,,,,,,,,,6047d153b53e4a096d54b26b,24,Mężczyzna,2022-06-04_08h27.18.105,task,2021.1.4,Win32,60.33182504,628b806c463b948bc644b84f,629afb2e58460b5c21e0f1f8,,,,,,0,0,0,0,1,X V Q F H G B L J M P D K C T S W R N Z,,,,,,,,,,,,,,,,,,,,,,,,,,,,,,,,,,,,,,,,,,,,,,,,,,,,,,,,,,,,,,,,,,,,,,,,,,,,,,,,,,,,,,,,,,,,,
,,,,,,,,,6047d153b53e4a096d54b26b,24,Mężczyzna,2022-06-04_08h27.18.105,task,2021.1.4,Win32,60.33182504,628b806c463b948bc644b84f,629afb2e58460b5c21e0f1f8,,,,,,1,0,1,0,1,X V Q F H G B L J M P D K C T S W R N Z,,,,,,,,,,,,,,,,,,,,,,,,,,,,,,,,,,,,,,,,,,,,,,,,,,,,,,,,,,,,,,,,,,,,,,,,,,,,,,,,,,,,,,,,,,,,,
,,,,,,,,,6047d153b53e4a096d54b26b,24,Mężczyzna,2022-06-04_08h27.18.105,task,2021.1.4,Win32,60.33182504,628b806c463b948bc644b84f,629afb2e58460b5c21e0f1f8,,,,,,2,0,2,0,1,X V Q F H G B L J M P D K C T S W R N Z,,,,,,,,,,,,,,,,,,,,,,,,,,,,,,,,,,,,,,,,,,,,,,,,,,,,,,,,,,,,,,,,,,,,,,,,,,,,,,,,,,,,,,,,,,,,,
,,,,,,,,,6047d153b53e4a096d54b26b,24,Mężczyzna,2022-06-04_08h27.18.105,task,2021.1.4,Win32,60.33182504,628b806c463b948bc644b84f,629afb2e58460b5c21e0f1f8,,,,,,3,0,3,0,1,X V Q F H G B L J M P D K C T S W R N Z,,,,,,,,,,,,,,,,,,,,,,,,,,,,,,,,,,,,,,,,,,,,,,,,,,,,,,,,,,,,,,,,,,,,,,,,,,,,,,,,,,,,,,,,,,,,,
,,,,,,,,,6047d153b53e4a096d54b26b,24,Mężczyzna,2022-06-04_08h27.18.105,task,2021.1.4,Win32,60.33182504,628b806c463b948bc644b84f,629afb2e58460b5c21e0f1f8,,,,,,4,0,4,0,1,X V Q F H G B L J M P D K C T S W R N Z,,,,,,,,,,,,,,,,,,,,,,,,,,,,,,,,,,,,,,,,,,,,,,,,,,,,,,,,,,,,,,,,,,,,,,,,,,,,,,,,,,,,,,,,,,,,,
,,,,,,,,,6047d153b53e4a096d54b26b,24,Mężczyzna,2022-06-04_08h27.18.105,task,2021.1.4,Win32,60.33182504,628b806c463b948bc644b84f,629afb2e58460b5c21e0f1f8,,,,,,5,0,5,0,1,X V Q F H G B L J M P D K C T S W R N Z,,,,,,,,,,,,,,,,,,,,,,,,,,,,,,,,,,,,,,,,,,,,,,,,,,,,,,,,,,,,,,,,,,,,,,,,,,,,,,,,,,,,,,,,,,,,,
,,,,,,,,,6047d153b53e4a096d54b26b,24,Mężczyzna,2022-06-04_08h27.18.105,task,2021.1.4,Win32,60.33182504,628b806c463b948bc644b84f,629afb2e58460b5c21e0f1f8,,,,,,6,0,6,0,1,X V Q F H G B L J M P D K C T S W R N Z,,,,,,,,,,,,,,,,,,,,,,,,,,,,,,,,,,,,,,,,,,,,,,,,,,,,,,,,,,,,,,,,,,,,,,,,,,,,,,,,,,,,,,,,,,,,,
,,,,,,,,,6047d153b53e4a096d54b26b,24,Mężczyzna,2022-06-04_08h27.18.105,task,2021.1.4,Win32,60.33182504,628b806c463b948bc644b84f,629afb2e58460b5c21e0f1f8,,,,,,,,,,,,dfbpcvc,"[""d"",""f"",""b"",""p"",""c"",""v"",""c""]","[0.7348999998569639,0.7590000000000146,0.9510999999046703,1.134999999999991,1.5672000000477055,1.7512000000476746,1.903799999952355,2.063299999952335]",0,DFBPVCV,10,0,10,0,1,,,,,,,,,,,,,,,,,,,,,,,,,,,,,,,,,,,,,,,,,,,,,,,,,,,,,,,,,,,,,,,,,,,,,,,,,,,,,,,,,,,
,,,,,,,,,6047d153b53e4a096d54b26b,24,Mężczyzna,2022-06-04_08h27.18.105,task,2021.1.4,Win32,60.33182504,628b806c463b948bc644b84f,629afb2e58460b5c21e0f1f8,,,,,,0,0,0,0,1,X V Q F H G B L J M P D K C T S W R N Z,,,,,,,,,,,,,,,,,,,,,,,,,,,,,,,,,,,,,,,,,,,,,,,,,,,,,,,,,,,,,,,,,,,,,,,,,,,,,,,,,,,,,,,,,,,,,
,,,,,,,,,6047d153b53e4a096d54b26b,24,Mężczyzna,2022-06-04_08h27.18.105,task,2021.1.4,Win32,60.33182504,628b806c463b948bc644b84f,629afb2e58460b5c21e0f1f8,,,,,,1,0,1,0,1,X V Q F H G B L J M P D K C T S W R N Z,,,,,,,,,,,,,,,,,,,,,,,,,,,,,,,,,,,,,,,,,,,,,,,,,,,,,,,,,,,,,,,,,,,,,,,,,,,,,,,,,,,,,,,,,,,,,
,,,,,,,,,6047d153b53e4a096d54b26b,24,Mężczyzna,2022-06-04_08h27.18.105,task,2021.1.4,Win32,60.33182504,628b806c463b948bc644b84f,629afb2e58460b5c21e0f1f8,,,,,,2,0,2,0,1,X V Q F H G B L J M P D K C T S W R N Z,,,,,,,,,,,,,,,,,,,,,,,,,,,,,,,,,,,,,,,,,,,,,,,,,,,,,,,,,,,,,,,,,,,,,,,,,,,,,,,,,,,,,,,,,,,,,
,,,,,,,,,6047d153b53e4a096d54b26b,24,Mężczyzna,2022-06-04_08h27.18.105,task,2021.1.4,Win32,60.33182504,628b806c463b948bc644b84f,629afb2e58460b5c21e0f1f8,,,,,,3,0,3,0,1,X V Q F H G B L J M P D K C T S W R N Z,,,,,,,,,,,,,,,,,,,,,,,,,,,,,,,,,,,,,,,,,,,,,,,,,,,,,,,,,,,,,,,,,,,,,,,,,,,,,,,,,,,,,,,,,,,,,
,,,,,,,,,6047d153b53e4a096d54b26b,24,Mężczyzna,2022-06-04_08h27.18.105,task,2021.1.4,Win32,60.33182504,628b806c463b948bc644b84f,629afb2e58460b5c21e0f1f8,,,,,,4,0,4,0,1,X V Q F H G B L J M P D K C T S W R N Z,,,,,,,,,,,,,,,,,,,,,,,,,,,,,,,,,,,,,,,,,,,,,,,,,,,,,,,,,,,,,,,,,,,,,,,,,,,,,,,,,,,,,,,,,,,,,
,,,,,,,,,6047d153b53e4a096d54b26b,24,Mężczyzna,2022-06-04_08h27.18.105,task,2021.1.4,Win32,60.33182504,628b806c463b948bc644b84f,629afb2e58460b5c21e0f1f8,,,,,,5,0,5,0,1,X V Q F H G B L J M P D K C T S W R N Z,,,,,,,,,,,,,,,,,,,,,,,,,,,,,,,,,,,,,,,,,,,,,,,,,,,,,,,,,,,,,,,,,,,,,,,,,,,,,,,,,,,,,,,,,,,,,
,,,,,,,,,6047d153b53e4a096d54b26b,24,Mężczyzna,2022-06-04_08h27.18.105,task,2021.1.4,Win32,60.33182504,628b806c463b948bc644b84f,629afb2e58460b5c21e0f1f8,,,,,,6,0,6,0,1,X V Q F H G B L J M P D K C T S W R N Z,,,,,,,,,,,,,,,,,,,,,,,,,,,,,,,,,,,,,,,,,,,,,,,,,,,,,,,,,,,,,,,,,,,,,,,,,,,,,,,,,,,,,,,,,,,,,
,,,,,,,,,6047d153b53e4a096d54b26b,24,Mężczyzna,2022-06-04_08h27.18.105,task,2021.1.4,Win32,60.33182504,628b806c463b948bc644b84f,629afb2e58460b5c21e0f1f8,,,,,,,,,,,,rxlqqww,"[""r"",""x"",""l"",""q"",""q"",""w"",""w""]","[0.40010000014302705,0.6712000000476337,0.9512000000476633,1.2229000000953647,1.3834999999999695,1.599999999999966,1.7431000001430448,1.9590000000000032]",1,RXLQQWW,11,0,11,0,1,,,,,,,,,,,,,,,,,,,,,,,,,,,,,,,,,,,,,,,,,,,,,,,,,,,,,,,,,,,,,,,,,,,,,,,,,,,,,,,,,,,
,,,,,,,,,6047d153b53e4a096d54b26b,24,Mężczyzna,2022-06-04_08h27.18.105,task,2021.1.4,Win32,60.33182504,628b806c463b948bc644b84f,629afb2e58460b5c21e0f1f8,,,,,,0,0,0,0,1,X V Q F H G B L J M P D K C T S W R N Z,,,,,,,,,,,,,,,,,,,,,,,,,,,,,,,,,,,,,,,,,,,,,,,,,,,,,,,,,,,,,,,,,,,,,,,,,,,,,,,,,,,,,,,,,,,,,
,,,,,,,,,6047d153b53e4a096d54b26b,24,Mężczyzna,2022-06-04_08h27.18.105,task,2021.1.4,Win32,60.33182504,628b806c463b948bc644b84f,629afb2e58460b5c21e0f1f8,,,,,,1,0,1,0,1,X V Q F H G B L J M P D K C T S W R N Z,,,,,,,,,,,,,,,,,,,,,,,,,,,,,,,,,,,,,,,,,,,,,,,,,,,,,,,,,,,,,,,,,,,,,,,,,,,,,,,,,,,,,,,,,,,,,
,,,,,,,,,6047d153b53e4a096d54b26b,24,Mężczyzna,2022-06-04_08h27.18.105,task,2021.1.4,Win32,60.33182504,628b806c463b948bc644b84f,629afb2e58460b5c21e0f1f8,,,,,,2,0,2,0,1,X V Q F H G B L J M P D K C T S W R N Z,,,,,,,,,,,,,,,,,,,,,,,,,,,,,,,,,,,,,,,,,,,,,,,,,,,,,,,,,,,,,,,,,,,,,,,,,,,,,,,,,,,,,,,,,,,,,
,,,,,,,,,6047d153b53e4a096d54b26b,24,Mężczyzna,2022-06-04_08h27.18.105,task,2021.1.4,Win32,60.33182504,628b806c463b948bc644b84f,629afb2e58460b5c21e0f1f8,,,,,,3,0,3,0,1,X V Q F H G B L J M P D K C T S W R N Z,,,,,,,,,,,,,,,,,,,,,,,,,,,,,,,,,,,,,,,,,,,,,,,,,,,,,,,,,,,,,,,,,,,,,,,,,,,,,,,,,,,,,,,,,,,,,
,,,,,,,,,6047d153b53e4a096d54b26b,24,Mężczyzna,2022-06-04_08h27.18.105,task,2021.1.4,Win32,60.33182504,628b806c463b948bc644b84f,629afb2e58460b5c21e0f1f8,,,,,,4,0,4,0,1,X V Q F H G B L J M P D K C T S W R N Z,,,,,,,,,,,,,,,,,,,,,,,,,,,,,,,,,,,,,,,,,,,,,,,,,,,,,,,,,,,,,,,,,,,,,,,,,,,,,,,,,,,,,,,,,,,,,
,,,,,,,,,6047d153b53e4a096d54b26b,24,Mężczyzna,2022-06-04_08h27.18.105,task,2021.1.4,Win32,60.33182504,628b806c463b948bc644b84f,629afb2e58460b5c21e0f1f8,,,,,,5,0,5,0,1,X V Q F H G B L J M P D K C T S W R N Z,,,,,,,,,,,,,,,,,,,,,,,,,,,,,,,,,,,,,,,,,,,,,,,,,,,,,,,,,,,,,,,,,,,,,,,,,,,,,,,,,,,,,,,,,,,,,
,,,,,,,,,6047d153b53e4a096d54b26b,24,Mężczyzna,2022-06-04_08h27.18.105,task,2021.1.4,Win32,60.33182504,628b806c463b948bc644b84f,629afb2e58460b5c21e0f1f8,,,,,,6,0,6,0,1,X V Q F H G B L J M P D K C T S W R N Z,,,,,,,,,,,,,,,,,,,,,,,,,,,,,,,,,,,,,,,,,,,,,,,,,,,,,,,,,,,,,,,,,,,,,,,,,,,,,,,,,,,,,,,,,,,,,
,,,,,,,,,6047d153b53e4a096d54b26b,24,Mężczyzna,2022-06-04_08h27.18.105,task,2021.1.4,Win32,60.33182504,628b806c463b948bc644b84f,629afb2e58460b5c21e0f1f8,,,,,,,,,,,,kqhlpln,"[""k"",""q"",""h"",""l"",""p"",""l"",""n""]","[0.6192999999523181,1.907000000000039,2.5559000000953915,2.900299999952324,3.2109000000953642,3.5387000000476974,3.955000000000041,4.333500000000015]",0,KQPLHLN,12,0,12,0,1,,,,,,,,,,,,,,,,,,,,,,,,,,,,,,,,,,,,,,,,,,,,,,,,,,,,,,,,,,,,,,,,,,,,,,,,,,,,,,,,,,,
,,,,,,,,,6047d153b53e4a096d54b26b,24,Mężczyzna,2022-06-04_08h27.18.105,task,2021.1.4,Win32,60.33182504,628b806c463b948bc644b84f,629afb2e58460b5c21e0f1f8,,,,,,0,0,0,0,1,X V Q F H G B L J M P D K C T S W R N Z,,,,,,,,,,,,,,,,,,,,,,,,,,,,,,,,,,,,,,,,,,,,,,,,,,,,,,,,,,,,,,,,,,,,,,,,,,,,,,,,,,,,,,,,,,,,,
,,,,,,,,,6047d153b53e4a096d54b26b,24,Mężczyzna,2022-06-04_08h27.18.105,task,2021.1.4,Win32,60.33182504,628b806c463b948bc644b84f,629afb2e58460b5c21e0f1f8,,,,,,1,0,1,0,1,X V Q F H G B L J M P D K C T S W R N Z,,,,,,,,,,,,,,,,,,,,,,,,,,,,,,,,,,,,,,,,,,,,,,,,,,,,,,,,,,,,,,,,,,,,,,,,,,,,,,,,,,,,,,,,,,,,,
,,,,,,,,,6047d153b53e4a096d54b26b,24,Mężczyzna,2022-06-04_08h27.18.105,task,2021.1.4,Win32,60.33182504,628b806c463b948bc644b84f,629afb2e58460b5c21e0f1f8,,,,,,2,0,2,0,1,X V Q F H G B L J M P D K C T S W R N Z,,,,,,,,,,,,,,,,,,,,,,,,,,,,,,,,,,,,,,,,,,,,,,,,,,,,,,,,,,,,,,,,,,,,,,,,,,,,,,,,,,,,,,,,,,,,,
,,,,,,,,,6047d153b53e4a096d54b26b,24,Mężczyzna,2022-06-04_08h27.18.105,task,2021.1.4,Win32,60.33182504,628b806c463b948bc644b84f,629afb2e58460b5c21e0f1f8,,,,,,3,0,3,0,1,X V Q F H G B L J M P D K C T S W R N Z,,,,,,,,,,,,,,,,,,,,,,,,,,,,,,,,,,,,,,,,,,,,,,,,,,,,,,,,,,,,,,,,,,,,,,,,,,,,,,,,,,,,,,,,,,,,,
,,,,,,,,,6047d153b53e4a096d54b26b,24,Mężczyzna,2022-06-04_08h27.18.105,task,2021.1.4,Win32,60.33182504,628b806c463b948bc644b84f,629afb2e58460b5c21e0f1f8,,,,,,4,0,4,0,1,X V Q F H G B L J M P D K C T S W R N Z,,,,,,,,,,,,,,,,,,,,,,,,,,,,,,,,,,,,,,,,,,,,,,,,,,,,,,,,,,,,,,,,,,,,,,,,,,,,,,,,,,,,,,,,,,,,,
,,,,,,,,,6047d153b53e4a096d54b26b,24,Mężczyzna,2022-06-04_08h27.18.105,task,2021.1.4,Win32,60.33182504,628b806c463b948bc644b84f,629afb2e58460b5c21e0f1f8,,,,,,5,0,5,0,1,X V Q F H G B L J M P D K C T S W R N Z,,,,,,,,,,,,,,,,,,,,,,,,,,,,,,,,,,,,,,,,,,,,,,,,,,,,,,,,,,,,,,,,,,,,,,,,,,,,,,,,,,,,,,,,,,,,,
,,,,,,,,,6047d153b53e4a096d54b26b,24,Mężczyzna,2022-06-04_08h27.18.105,task,2021.1.4,Win32,60.33182504,628b806c463b948bc644b84f,629afb2e58460b5c21e0f1f8,,,,,,6,0,6,0,1,X V Q F H G B L J M P D K C T S W R N Z,,,,,,,,,,,,,,,,,,,,,,,,,,,,,,,,,,,,,,,,,,,,,,,,,,,,,,,,,,,,,,,,,,,,,,,,,,,,,,,,,,,,,,,,,,,,,
,,,,,,,,,6047d153b53e4a096d54b26b,24,Mężczyzna,2022-06-04_08h27.18.105,task,2021.1.4,Win32,60.33182504,628b806c463b948bc644b84f,629afb2e58460b5c21e0f1f8,,,,,,,,,,,,rdljnfnj,"[""r"",""d"",""l"",""j"",""n"",""f"",""n"",""j""]","[0.48760000014306115,0.7672999999523427,1.055499999999995,1.4169000000953815,1.703700000047661,1.9357999999523372,6.207499999999982,6.359600000143075,6.575400000095385]",0,RDJLNFJ,13,0,13,0,1,,,,,,,,,,,,,,,,,,,,,,,,,,,,,,,,,,,,,,,,,,,,,,,,,,,,,,,,,,,,,,,,,,,,,,,,,,,,,,,,,,,
,,,,,,,,,6047d153b53e4a096d54b26b,24,Mężczyzna,2022-06-04_08h27.18.105,task,2021.1.4,Win32,60.33182504,628b806c463b948bc644b84f,629afb2e58460b5c21e0f1f8,,,,,,,,,,,,,,,,,,,,,,space,5.9778,2,"[""2""]",1,[7.941200000047672],[7.941200000047672],0,0,0,2,1,Practice,3,(4x4) - 14,2,,,,,,,,,,,,,,,,,,,,,,,,,,,,,,,,,,,,,,,,,,,,,,,,,,,,,,,,,,,,,,,,,,,
,,,,,,,,,6047d153b53e4a096d54b26b,24,Mężczyzna,2022-06-04_08h27.18.105,task,2021.1.4,Win32,60.33182504,628b806c463b948bc644b84f,629afb2e58460b5c21e0f1f8,,,,,,,,,,,,,,,,,,,,,,,,3,"[""3""]",1,[3.82159999990472],"[7.941200000047672,3.82159999990472]",0,1,1,3,1,Practice,4,(8/4) + 1,3,,,,,,,,,,,,,,,,,,,,,,,,,,,,,,,,,,,,,,,,,,,,,,,,,,,,,,,,,,,,,,,,,,,
,,,,,,,,,6047d153b53e4a096d54b26b,24,Mężczyzna,2022-06-04_08h27.18.105,task,2021.1.4,Win32,60.33182504,628b806c463b948bc644b84f,629afb2e58460b5c21e0f1f8,,,,,,,,,,,,,,,,,,,,,,,,7,"[""7""]",1,[4.23440000009532],"[7.941200000047672,3.82159999990472,4.23440000009532]",0,2,2,7,1,Practice,8,(5x5) - 18,7,,,,,,,,,,,,,,,,,,,,,,,,,,,,,,,,,,,,,,,,,,,,,,,,,,,,,,,,,,,,,,,,,,,
,,,,,,,,,6047d153b53e4a096d54b26b,24,Mężczyzna,2022-06-04_08h27.18.105,task,2021.1.4,Win32,60.33182504,628b806c463b948bc644b84f,629afb2e58460b5c21e0f1f8,,,,,,,,,,,,,,,,,,,,,,,,6,"[""6""]",1,[2.5109999999999673],"[7.941200000047672,3.82159999990472,4.23440000009532,2.5109999999999673]",0,3,3,6,1,Practice,7,(25/5) + 1,6,,,,,,,,,,,,,,,,,,,,,,,,,,,,,,,,,,,,,,,,,,,,,,,,,,,,,,,,,,,,,,,,,,,
,,,,,,,,,6047d153b53e4a096d54b26b,24,Mężczyzna,2022-06-04_08h27.18.105,task,2021.1.4,Win32,60.33182504,628b806c463b948bc644b84f,629afb2e58460b5c21e0f1f8,,,,,,,,,,,,,,,,,,,,,,,,4,"[""4""]",1,[2.568399999856979],"[7.941200000047672,3.82159999990472,4.23440000009532,2.5109999999999673,2.568399999856979]",0,4,4,4,1,Practice,5,(2x6) - 8,4,,,,,,,,,,,,,,,,,,,,,,,,,,,,,,,,,,,,,,,,,,,,,,,,,,,,,,,,,,,,,,,,,,,
,,,,,,,,,6047d153b53e4a096d54b26b,24,Mężczyzna,2022-06-04_08h27.18.105,task,2021.1.4,Win32,60.33182504,628b806c463b948bc644b84f,629afb2e58460b5c21e0f1f8,,,,,,,,,,,,,,,,,,,,,,,,9,"[""9""]",1,[1.7356000001429948],"[7.941200000047672,3.82159999990472,4.23440000009532,2.5109999999999673,2.568399999856979,1.7356000001429948]",0,5,5,9,1,Practice,10,(20/2) - 1,9,,,,,,,,,,,,,,,,,,,,,,,,,,,,,,,,,,,,,,,,,,,,,,,,,,,,,,,,,,,,,,,,,,,
,,,,,,,,,6047d153b53e4a096d54b26b,24,Mężczyzna,2022-06-04_08h27.18.105,task,2021.1.4,Win32,60.33182504,628b806c463b948bc644b84f,629afb2e58460b5c21e0f1f8,,,,,,,,,,,,,,,,,,,,,,,,5,"[""5""]",1,[2.6882000000476864],"[7.941200000047672,3.82159999990472,4.23440000009532,2.5109999999999673,2.568399999856979,1.7356000001429948,2.6882000000476864]",0,6,6,5,1,Practice,6,(4/2) + 3,5,,,,,,,,,,,,,,,,,,,,,,,,,,,,,,,,,,,,,,,,,,,,,,,,,,,,,,,,,,,,,,,,,,,
,,,,,,,,,6047d153b53e4a096d54b26b,24,Mężczyzna,2022-06-04_08h27.18.105,task,2021.1.4,Win32,60.33182504,628b806c463b948bc644b84f,629afb2e58460b5c21e0f1f8,,,,,,,,,,,,,,,,,,,,,,,,8,"[""8""]",1,[1.4432999999522735],"[7.941200000047672,3.82159999990472,4.23440000009532,2.5109999999999673,2.568399999856979,1.7356000001429948,2.6882000000476864,1.4432999999522735]",0,7,7,8,1,Practice,9,(3x3) - 1,8,,,,,,,,,,,,,,,,,,,,,,,,,,,,,,,,,,,,,,,,,,,,,,,,,,,,,,,,,,,,,,,,,,,
,,,,,,,,,6047d153b53e4a096d54b26b,24,Mężczyzna,2022-06-04_08h27.18.105,task,2021.1.4,Win32,60.33182504,628b806c463b948bc644b84f,629afb2e58460b5c21e0f1f8,,,,,,,,,,,,,,,,,,,,,,,,0,"[""0""]",1,[1.6232999999523372],"[7.941200000047672,3.82159999990472,4.23440000009532,2.5109999999999673,2.568399999856979,1.7356000001429948,2.6882000000476864,1.4432999999522735,1.6232999999523372]",0,8,8,0,1,Practice,1,(3x3) -  9,0,,,,,,,,,,,,,,,,,,,,,,,,,,,,,,,,,,,,,,,,,,,,,,,,,,,,,,,,,,,,,,,,,,,
,,,,,,,,,6047d153b53e4a096d54b26b,24,Mężczyzna,2022-06-04_08h27.18.105,task,2021.1.4,Win32,60.33182504,628b806c463b948bc644b84f,629afb2e58460b5c21e0f1f8,,,,,,,,,,,,,,,,,,,,,,,,1,"[""1""]",1,[1.605299999952308],"[7.941200000047672,3.82159999990472,4.23440000009532,2.5109999999999673,2.568399999856979,1.7356000001429948,2.6882000000476864,1.4432999999522735,1.6232999999523372,1.605299999952308]",0,9,9,1,1,Practice,2,(4x4) - 15,1,,,,,,,,,,,,,,,,,,,,,,,,,,,,,,,,,,,,,,,,,,,,,,,,,,,,,,,,,,,,,,,,,,,
,,,,,,,,,6047d153b53e4a096d54b26b,24,Mężczyzna,2022-06-04_08h27.18.105,task,2021.1.4,Win32,60.33182504,628b806c463b948bc644b84f,629afb2e58460b5c21e0f1f8,,,,,,,,,,,,,,,,,,,,,,,,,,,,,,,,,,,,,,1,30.1723,2.011486667,45.11158719,1.734196974,6.48571486,space,1.5473,0,0,0,0,1,,,,,,,,,,,,,,,,,,,,,,,,,,,,,,,,,,,,,,,,,,,,,,,,,,,,,,
,,,,,,,,,6047d153b53e4a096d54b26b,24,Mężczyzna,2022-06-04_08h27.18.105,task,2021.1.4,Win32,60.33182504,628b806c463b948bc644b84f,629afb2e58460b5c21e0f1f8,,,,,,,,,,,,,,,,,,,,,,,,2,,,,,,,,,,Practice,3,(4x4) - 14,2,,,,,,,,,,,,,,space,13.4677,"[""2""]",1,[2.652500000000032],1,0,0,0,2,1,,,,,,,,,,,,,,,,,,,,,,,,,,,,,,,,,,,,,,,,,,,
,,,,,,,,,6047d153b53e4a096d54b26b,24,Mężczyzna,2022-06-04_08h27.18.105,task,2021.1.4,Win32,60.33182504,628b806c463b948bc644b84f,629afb2e58460b5c21e0f1f8,,,,,,,,,,,X V Q F H G B L J M P D K C T S W R N Z,,,,,,,,,,,,,,,,,,,,,,,,,,,,,,,,,,,,,,,,,,,,,,,,,,,0,0,0,0,1,,,,,,,,,,,,,,,,,,,,,,,,,,,,,,,,,,,,,,
,,,,,,,,,6047d153b53e4a096d54b26b,24,Mężczyzna,2022-06-04_08h27.18.105,task,2021.1.4,Win32,60.33182504,628b806c463b948bc644b84f,629afb2e58460b5c21e0f1f8,,,,,,,,,,,,,,,,,,,,,,,,5,,,,,,,,,,Practice,6,(4/2) + 3,5,,,,,,,,,,,,,,,,"[""5""]",1,[5.826299999952312],1,0,0,0,5,1,,,,,,,,,,,,,,,,,,,,,,,,,,,,,,,,,,,,,,,,,,,
,,,,,,,,,6047d153b53e4a096d54b26b,24,Mężczyzna,2022-06-04_08h27.18.105,task,2021.1.4,Win32,60.33182504,628b806c463b948bc644b84f,629afb2e58460b5c21e0f1f8,,,,,,,,,,,X V Q F H G B L J M P D K C T S W R N Z,,,,,,,,,,,,,,,,,,,,,,,,,,,,,,,,,,,,,,,,,,,,,,,,,,,1,0,1,0,1,,,,,,,,,,,,,,,,,,,,,,,,,,,,,,,,,,,,,,
,,,,,,,,,6047d153b53e4a096d54b26b,24,Mężczyzna,2022-06-04_08h27.18.105,task,2021.1.4,Win32,60.33182504,628b806c463b948bc644b84f,629afb2e58460b5c21e0f1f8,,,,,,,,,,,,,,,,,,,,,,,,,,,,,,,,,,,,,,,,,,,,,,,,,,,,,,,,,,,,,,,,,,,zh,"[""z"",""h""]",0,"[2.554399999856969,2.7692000000477037,3.6810999999046317]",1,0,0,0,0,1,,,,,,,,,,,,,,,,,,,,,,,,,,,,
,,,,,,,,,6047d153b53e4a096d54b26b,24,Mężczyzna,2022-06-04_08h27.18.105,task,2021.1.4,Win32,60.33182504,628b806c463b948bc644b84f,629afb2e58460b5c21e0f1f8,,,,,,,,,,,,,,,,,,,,,,,,0,,,,,,,,,,Practice,1,(3x3) -  9,0,,,,,,,,,,,,,,,,"[""0""]",1,[2.1581000001430084],1,0,0,0,0,1,,,,,,,,,,,,,,,,,,,,,,,,,,,,,,,,,,,,,,,,,,,
,,,,,,,,,6047d153b53e4a096d54b26b,24,Mężczyzna,2022-06-04_08h27.18.105,task,2021.1.4,Win32,60.33182504,628b806c463b948bc644b84f,629afb2e58460b5c21e0f1f8,,,,,,,,,,,X V Q F H G B L J M P D K C T S W R N Z,,,,,,,,,,,,,,,,,,,,,,,,,,,,,,,,,,,,,,,,,,,,,,,,,,,0,0,0,0,1,,,,,,,,,,,,,,,,,,,,,,,,,,,,,,,,,,,,,,
,,,,,,,,,6047d153b53e4a096d54b26b,24,Mężczyzna,2022-06-04_08h27.18.105,task,2021.1.4,Win32,60.33182504,628b806c463b948bc644b84f,629afb2e58460b5c21e0f1f8,,,,,,,,,,,,,,,,,,,,,,,,3,,,,,,,,,,Practice,4,(8/4) + 1,3,,,,,,,,,,,,,,,,"[""3""]",1,[6.1179000000953465],1,0,0,0,3,1,,,,,,,,,,,,,,,,,,,,,,,,,,,,,,,,,,,,,,,,,,,
,,,,,,,,,6047d153b53e4a096d54b26b,24,Mężczyzna,2022-06-04_08h27.18.105,task,2021.1.4,Win32,60.33182504,628b806c463b948bc644b84f,629afb2e58460b5c21e0f1f8,,,,,,,,,,,X V Q F H G B L J M P D K C T S W R N Z,,,,,,,,,,,,,,,,,,,,,,,,,,,,,,,,,,,,,,,,,,,,,,,,,,,1,0,1,0,1,,,,,,,,,,,,,,,,,,,,,,,,,,,,,,,,,,,,,,
,,,,,,,,,6047d153b53e4a096d54b26b,24,Mężczyzna,2022-06-04_08h27.18.105,task,2021.1.4,Win32,60.33182504,628b806c463b948bc644b84f,629afb2e58460b5c21e0f1f8,,,,,,,,,,,,,,,,,,,,,,,,,,,,,,,,,,,,,,,,,,,,,,,,,,,,,,,,,,,,,,,,,,,kk,"[""k"",""k""]",0,"[1.3557999999522963,1.4917999999523772,1.9716000001430984]",1,1,0,1,0,1,,,,,,,,,,,,,,,,,,,,,,,,,,,,
,,,,,,,,,6047d153b53e4a096d54b26b,24,Mężczyzna,2022-06-04_08h27.18.105,task,2021.1.4,Win32,60.33182504,628b806c463b948bc644b84f,629afb2e58460b5c21e0f1f8,,,,,,,,,,,,,,,,,,,,,,,,1,,,,,,,,,,Practice,2,(4x4) - 15,1,,,,,,,,,,,,,,,,"[""1""]",1,[1.9305999999046435],1,0,0,0,1,1,,,,,,,,,,,,,,,,,,,,,,,,,,,,,,,,,,,,,,,,,,,
,,,,,,,,,6047d153b53e4a096d54b26b,24,Mężczyzna,2022-06-04_08h27.18.105,task,2021.1.4,Win32,60.33182504,628b806c463b948bc644b84f,629afb2e58460b5c21e0f1f8,,,,,,,,,,,X V Q F H G B L J M P D K C T S W R N Z,,,,,,,,,,,,,,,,,,,,,,,,,,,,,,,,,,,,,,,,,,,,,,,,,,,0,0,0,0,1,,,,,,,,,,,,,,,,,,,,,,,,,,,,,,,,,,,,,,
,,,,,,,,,6047d153b53e4a096d54b26b,24,Mężczyzna,2022-06-04_08h27.18.105,task,2021.1.4,Win32,60.33182504,628b806c463b948bc644b84f,629afb2e58460b5c21e0f1f8,,,,,,,,,,,,,,,,,,,,,,,,1,,,,,,,,,,Practice,2,(4x4) - 15,1,,,,,,,,,,,,,,,,"[""1""]",1,[3.1504999999999654],1,0,0,0,1,1,,,,,,,,,,,,,,,,,,,,,,,,,,,,,,,,,,,,,,,,,,,
,,,,,,,,,6047d153b53e4a096d54b26b,24,Mężczyzna,2022-06-04_08h27.18.105,task,2021.1.4,Win32,60.33182504,628b806c463b948bc644b84f,629afb2e58460b5c21e0f1f8,,,,,,,,,,,X V Q F H G B L J M P D K C T S W R N Z,,,,,,,,,,,,,,,,,,,,,,,,,,,,,,,,,,,,,,,,,,,,,,,,,,,1,0,1,0,1,,,,,,,,,,,,,,,,,,,,,,,,,,,,,,,,,,,,,,
,,,,,,,,,6047d153b53e4a096d54b26b,24,Mężczyzna,2022-06-04_08h27.18.105,task,2021.1.4,Win32,60.33182504,628b806c463b948bc644b84f,629afb2e58460b5c21e0f1f8,,,,,,,,,,,,,,,,,,,,,,,,,,,,,,,,,,,,,,,,,,,,,,,,,,,,,,,,,,,,,,,,,,,bq,"[""b"",""q""]",0,"[1.2087000000476564,1.3524000000952583,1.977099999904567]",1,2,0,2,0,1,,,,,,,,,,,,,,,,,,,,,,,,,,,,
,,,,,,,,,6047d153b53e4a096d54b26b,24,Mężczyzna,2022-06-04_08h27.18.105,task,2021.1.4,Win32,60.33182504,628b806c463b948bc644b84f,629afb2e58460b5c21e0f1f8,,,,,,,,,,,,,,,,,,,,,,,,1,,,,,,,,,,Task,18,(16/4) - 3,1,,,,,,,,,,,,,,,,,,,1,,,,,,,,,,,,,,,,,,,,,space,8.8648,"[""1""]",1,[2.7609000000953756],0,0,0,17,1,,,,,,,,,,,,,,,,,,
,,,,,,,,,6047d153b53e4a096d54b26b,24,Mężczyzna,2022-06-04_08h27.18.105,task,2021.1.4,Win32,60.33182504,628b806c463b948bc644b84f,629afb2e58460b5c21e0f1f8,,,,,,,,,,,X V Q F H G B L J M P D K C T S W R N Z,,,,,,,,,,,,,,,,,,,,,,,,,,,,,,,,,,,,,,,,,,,,,,,,,,,,,,,,,,,,,,,,,,,,,,,,,,,,0,0,0,0,1,,,,,,,,,,,,,
,,,,,,,,,6047d153b53e4a096d54b26b,24,Mężczyzna,2022-06-04_08h27.18.105,task,2021.1.4,Win32,60.33182504,628b806c463b948bc644b84f,629afb2e58460b5c21e0f1f8,,,,,,,,,,,,,,,,,,,,,,,,8,,,,,,,,,,Task,23,(2x3) + 2,8,,,,,,,,,,,,,,,,,,,1,,,,,,,,,,,,,,,,,,,,,,,"[""8""]",1,[4.478400000095348],0,0,0,22,1,,,,,,,,,,,,,,,,,,
,,,,,,,,,6047d153b53e4a096d54b26b,24,Mężczyzna,2022-06-04_08h27.18.105,task,2021.1.4,Win32,60.33182504,628b806c463b948bc644b84f,629afb2e58460b5c21e0f1f8,,,,,,,,,,,X V Q F H G B L J M P D K C T S W R N Z,,,,,,,,,,,,,,,,,,,,,,,,,,,,,,,,,,,,,,,,,,,,,,,,,,,,,,,,,,,,,,,,,,,,,,,,,,,,1,0,1,0,1,,,,,,,,,,,,,
,,,,,,,,,6047d153b53e4a096d54b26b,24,Mężczyzna,2022-06-04_08h27.18.105,task,2021.1.4,Win32,60.33182504,628b806c463b948bc644b84f,629afb2e58460b5c21e0f1f8,,,,,,,,,,,,,,,,,,,,,,,,,,,,,,,,,,,,,,,,,,,,,,,,,,,,,,,,,,,,,,,,,,,,,,,,,,,,,,,,,,,,,,,,,,,,zw,"[""z"",""w""]",0,"[1.5031999998093397,1.5590999999046744,1.6795999999046671]",1,ZW,0,0,0,0,1,,
,,,,,,,,,6047d153b53e4a096d54b26b,24,Mężczyzna,2022-06-04_08h27.18.105,task,2021.1.4,Win32,60.33182504,628b806c463b948bc644b84f,629afb2e58460b5c21e0f1f8,,,,,,,,,,,,,,,,,,,,,,,,1,,,,,,,,,,Task,18,(16/4) - 3,1,,,,,,,,,,,,,,,,,,,1,,,,,,,,,,,,,,,,,,,,,,,"[""1""]",1,[2.5784999999999627],0,0,0,17,1,,,,,,,,,,,,,,,,,,
,,,,,,,,,6047d153b53e4a096d54b26b,24,Mężczyzna,2022-06-04_08h27.18.105,task,2021.1.4,Win32,60.33182504,628b806c463b948bc644b84f,629afb2e58460b5c21e0f1f8,,,,,,,,,,,X V Q F H G B L J M P D K C T S W R N Z,,,,,,,,,,,,,,,,,,,,,,,,,,,,,,,,,,,,,,,,,,,,,,,,,,,,,,,,,,,,,,,,,,,,,,,,,,,,0,0,0,0,1,,,,,,,,,,,,,
,,,,,,,,,6047d153b53e4a096d54b26b,24,Mężczyzna,2022-06-04_08h27.18.105,task,2021.1.4,Win32,60.33182504,628b806c463b948bc644b84f,629afb2e58460b5c21e0f1f8,,,,,,,,,,,,,,,,,,,,,,,,0,,,,,,,,,,Task,25,(10/5) - 2,0,,,,,,,,,,,,,,,,,,,1,,,,,,,,,,,,,,,,,,,,,,,"[""0""]",1,[3.4621999998091724],0,0,0,24,1,,,,,,,,,,,,,,,,,,
,,,,,,,,,6047d153b53e4a096d54b26b,24,Mężczyzna,2022-06-04_08h27.18.105,task,2021.1.4,Win32,60.33182504,628b806c463b948bc644b84f,629afb2e58460b5c21e0f1f8,,,,,,,,,,,X V Q F H G B L J M P D K C T S W R N Z,,,,,,,,,,,,,,,,,,,,,,,,,,,,,,,,,,,,,,,,,,,,,,,,,,,,,,,,,,,,,,,,,,,,,,,,,,,,1,0,1,0,1,,,,,,,,,,,,,
,,,,,,,,,6047d153b53e4a096d54b26b,24,Mężczyzna,2022-06-04_08h27.18.105,task,2021.1.4,Win32,60.33182504,628b806c463b948bc644b84f,629afb2e58460b5c21e0f1f8,,,,,,,,,,,,,,,,,,,,,,,,5,,,,,,,,,,Task,36,(8/4) + 3,5,,,,,,,,,,,,,,,,,,,1,,,,,,,,,,,,,,,,,,,,,,,"[""5""]",1,[3.6935000000000855],0,0,0,35,1,,,,,,,,,,,,,,,,,,
,,,,,,,,,6047d153b53e4a096d54b26b,24,Mężczyzna,2022-06-04_08h27.18.105,task,2021.1.4,Win32,60.33182504,628b806c463b948bc644b84f,629afb2e58460b5c21e0f1f8,,,,,,,,,,,X V Q F H G B L J M P D K C T S W R N Z,,,,,,,,,,,,,,,,,,,,,,,,,,,,,,,,,,,,,,,,,,,,,,,,,,,,,,,,,,,,,,,,,,,,,,,,,,,,2,0,2,0,1,,,,,,,,,,,,,
,,,,,,,,,6047d153b53e4a096d54b26b,24,Mężczyzna,2022-06-04_08h27.18.105,task,2021.1.4,Win32,60.33182504,628b806c463b948bc644b84f,629afb2e58460b5c21e0f1f8,,,,,,,,,,,,,,,,,,,,,,,,,,,,,,,,,,,,,,,,,,,,,,,,,,,,,,,,,,,,,,,,,,,,,,,,,,,,,,,,,,,,,,,,,,,,ngh,"[""n"",""g"",""h""]",0,"[1.0212999999523618,1.1574000000954356,1.2612000000476655,1.7332000000477592]",1,NGH,1,0,1,0,1,,
,,,,,,,,,6047d153b53e4a096d54b26b,24,Mężczyzna,2022-06-04_08h27.18.105,task,2021.1.4,Win32,60.33182504,628b806c463b948bc644b84f,629afb2e58460b5c21e0f1f8,,,,,,,,,,,,,,,,,,,,,,,,8,,,,,,,,,,Task,39,(5x3) - 7,8,,,,,,,,,,,,,,,,,,,1,,,,,,,,,,,,,,,,,,,,,,,"[""8""]",1,[3.02179999995235],0,0,0,38,1,,,,,,,,,,,,,,,,,,
,,,,,,,,,6047d153b53e4a096d54b26b,24,Mężczyzna,2022-06-04_08h27.18.105,task,2021.1.4,Win32,60.33182504,628b806c463b948bc644b84f,629afb2e58460b5c21e0f1f8,,,,,,,,,,,X V Q F H G B L J M P D K C T S W R N Z,,,,,,,,,,,,,,,,,,,,,,,,,,,,,,,,,,,,,,,,,,,,,,,,,,,,,,,,,,,,,,,,,,,,,,,,,,,,0,0,0,0,1,,,,,,,,,,,,,
,,,,,,,,,6047d153b53e4a096d54b26b,24,Mężczyzna,2022-06-04_08h27.18.105,task,2021.1.4,Win32,60.33182504,628b806c463b948bc644b84f,629afb2e58460b5c21e0f1f8,,,,,,,,,,,,,,,,,,,,,,,,0,,,,,,,,,,Task,33,(1/1) - 1,0,,,,,,,,,,,,,,,,,,,1,,,,,,,,,,,,,,,,,,,,,,,"[""0""]",1,[5.646799999952236],0,0,0,32,1,,,,,,,,,,,,,,,,,,
,,,,,,,,,6047d153b53e4a096d54b26b,24,Mężczyzna,2022-06-04_08h27.18.105,task,2021.1.4,Win32,60.33182504,628b806c463b948bc644b84f,629afb2e58460b5c21e0f1f8,,,,,,,,,,,X V Q F H G B L J M P D K C T S W R N Z,,,,,,,,,,,,,,,,,,,,,,,,,,,,,,,,,,,,,,,,,,,,,,,,,,,,,,,,,,,,,,,,,,,,,,,,,,,,1,0,1,0,1,,,,,,,,,,,,,
,,,,,,,,,6047d153b53e4a096d54b26b,24,Mężczyzna,2022-06-04_08h27.18.105,task,2021.1.4,Win32,60.33182504,628b806c463b948bc644b84f,629afb2e58460b5c21e0f1f8,,,,,,,,,,,,,,,,,,,,,,,,3,,,,,,,,,,Task,27,(3/3) + 2,3,,,,,,,,,,,,,,,,,,,1,,,,,,,,,,,,,,,,,,,,,,,"[""3""]",1,[4.958600000143065],0,0,0,26,1,,,,,,,,,,,,,,,,,,
,,,,,,,,,6047d153b53e4a096d54b26b,24,Mężczyzna,2022-06-04_08h27.18.105,task,2021.1.4,Win32,60.33182504,628b806c463b948bc644b84f,629afb2e58460b5c21e0f1f8,,,,,,,,,,,X V Q F H G B L J M P D K C T S W R N Z,,,,,,,,,,,,,,,,,,,,,,,,,,,,,,,,,,,,,,,,,,,,,,,,,,,,,,,,,,,,,,,,,,,,,,,,,,,,2,0,2,0,1,,,,,,,,,,,,,
,,,,,,,,,6047d153b53e4a096d54b26b,24,Mężczyzna,2022-06-04_08h27.18.105,task,2021.1.4,Win32,60.33182504,628b806c463b948bc644b84f,629afb2e58460b5c21e0f1f8,,,,,,,,,,,,,,,,,,,,,,,,9,,,,,,,,,,Task,40,(7x2) - 5,9,,,,,,,,,,,,,,,,,,,1,,,,,,,,,,,,,,,,,,,,,,,"[""9""]",1,[6.163799999952403],0,0,0,39,1,,,,,,,,,,,,,,,,,,
,,,,,,,,,6047d153b53e4a096d54b26b,24,Mężczyzna,2022-06-04_08h27.18.105,task,2021.1.4,Win32,60.33182504,628b806c463b948bc644b84f,629afb2e58460b5c21e0f1f8,,,,,,,,,,,X V Q F H G B L J M P D K C T S W R N Z,,,,,,,,,,,,,,,,,,,,,,,,,,,,,,,,,,,,,,,,,,,,,,,,,,,,,,,,,,,,,,,,,,,,,,,,,,,,3,0,3,0,1,,,,,,,,,,,,,
,,,,,,,,,6047d153b53e4a096d54b26b,24,Mężczyzna,2022-06-04_08h27.18.105,task,2021.1.4,Win32,60.33182504,628b806c463b948bc644b84f,629afb2e58460b5c21e0f1f8,,,,,,,,,,,,,,,,,,,,,,,,,,,,,,,,,,,,,,,,,,,,,,,,,,,,,,,,,,,,,,,,,,,,,,,,,,,,,,,,,,,,,,,,,,,,jtjl,"[""j"",""t"",""j"",""l""]",0,"[1.1440999999047108,1.3920999999046444,1.6007999999524145,1.759599999904708,1.8962000000477701]",1,JTJL,2,0,2,0,1,,
,,,,,,,,,6047d153b53e4a096d54b26b,24,Mężczyzna,2022-06-04_08h27.18.105,task,2021.1.4,Win32,60.33182504,628b806c463b948bc644b84f,629afb2e58460b5c21e0f1f8,,,,,,,,,,,,,,,,,,,,,,,,8,,,,,,,,,,Task,32,(8/2) + 4,8,,,,,,,,,,,,,,,,,,,1,,,,,,,,,,,,,,,,,,,,,,,"[""8""]",1,[2.9465000000000146],0,0,0,31,1,,,,,,,,,,,,,,,,,,
,,,,,,,,,6047d153b53e4a096d54b26b,24,Mężczyzna,2022-06-04_08h27.18.105,task,2021.1.4,Win32,60.33182504,628b806c463b948bc644b84f,629afb2e58460b5c21e0f1f8,,,,,,,,,,,X V Q F H G B L J M P D K C T S W R N Z,,,,,,,,,,,,,,,,,,,,,,,,,,,,,,,,,,,,,,,,,,,,,,,,,,,,,,,,,,,,,,,,,,,,,,,,,,,,0,0,0,0,1,,,,,,,,,,,,,
,,,,,,,,,6047d153b53e4a096d54b26b,24,Mężczyzna,2022-06-04_08h27.18.105,task,2021.1.4,Win32,60.33182504,628b806c463b948bc644b84f,629afb2e58460b5c21e0f1f8,,,,,,,,,,,,,,,,,,,,,,,,2,,,,,,,,,,Task,19,(6/2) - 1,2,,,,,,,,,,,,,,,,,,,1,,,,,,,,,,,,,,,,,,,,,,,"[""2""]",1,[3.9686000001430557],0,0,0,18,1,,,,,,,,,,,,,,,,,,
,,,,,,,,,6047d153b53e4a096d54b26b,24,Mężczyzna,2022-06-04_08h27.18.105,task,2021.1.4,Win32,60.33182504,628b806c463b948bc644b84f,629afb2e58460b5c21e0f1f8,,,,,,,,,,,X V Q F H G B L J M P D K C T S W R N Z,,,,,,,,,,,,,,,,,,,,,,,,,,,,,,,,,,,,,,,,,,,,,,,,,,,,,,,,,,,,,,,,,,,,,,,,,,,,1,0,1,0,1,,,,,,,,,,,,,
,,,,,,,,,6047d153b53e4a096d54b26b,24,Mężczyzna,2022-06-04_08h27.18.105,task,2021.1.4,Win32,60.33182504,628b806c463b948bc644b84f,629afb2e58460b5c21e0f1f8,,,,,,,,,,,,,,,,,,,,,,,,,,,,,,,,,,Task,33,(1/1) - 1,0,,,,,,,,,,,,,,,,,,,0,,,,,,,,,,,,,,,,,,,,,,,,0,,0,0,0,32,1,,,,,,,,,,,,,,,,,,
,,,,,,,,,6047d153b53e4a096d54b26b,24,Mężczyzna,2022-06-04_08h27.18.105,task,2021.1.4,Win32,60.33182504,628b806c463b948bc644b84f,629afb2e58460b5c21e0f1f8,,,,,,,,,,,,,,,,,,,,,,,,9,,,,,,,,,,Task,40,(7x2) - 5,9,,,,,,,,,,,,,,,,,,,1,,,,,,,,,,,,,,,,,,,,,,,"[""9""]",1,[2.1164999999999736],0,1,1,39,1,,,,,,,,,,,,,,,,,,
,,,,,,,,,6047d153b53e4a096d54b26b,24,Mężczyzna,2022-06-04_08h27.18.105,task,2021.1.4,Win32,60.33182504,628b806c463b948bc644b84f,629afb2e58460b5c21e0f1f8,,,,,,,,,,,X V Q F H G B L J M P D K C T S W R N Z,,,,,,,,,,,,,,,,,,,,,,,,,,,,,,,,,,,,,,,,,,,,,,,,,,,,,,,,,,,,,,,,,,,,,,,,,,,,2,0,2,0,1,,,,,,,,,,,,,
,,,,,,,,,6047d153b53e4a096d54b26b,24,Mężczyzna,2022-06-04_08h27.18.105,task,2021.1.4,Win32,60.33182504,628b806c463b948bc644b84f,629afb2e58460b5c21e0f1f8,,,,,,,,,,,,,,,,,,,,,,,,7,,,,,,,,,,Task,14,(2x2) + 3,7,,,,,,,,,,,,,,,,,,,1,,,,,,,,,,,,,,,,,,,,,,,"[""7""]",1,[3.300200000047653],0,0,0,13,1,,,,,,,,,,,,,,,,,,
,,,,,,,,,6047d153b53e4a096d54b26b,24,Mężczyzna,2022-06-04_08h27.18.105,task,2021.1.4,Win32,60.33182504,628b806c463b948bc644b84f,629afb2e58460b5c21e0f1f8,,,,,,,,,,,X V Q F H G B L J M P D K C T S W R N Z,,,,,,,,,,,,,,,,,,,,,,,,,,,,,,,,,,,,,,,,,,,,,,,,,,,,,,,,,,,,,,,,,,,,,,,,,,,,3,0,3,0,1,,,,,,,,,,,,,
,,,,,,,,,6047d153b53e4a096d54b26b,24,Mężczyzna,2022-06-04_08h27.18.105,task,2021.1.4,Win32,60.33182504,628b806c463b948bc644b84f,629afb2e58460b5c21e0f1f8,,,,,,,,,,,,,,,,,,,,,,,,2,,,,,,,,,,Task,10,(2x5) - 8,2,,,,,,,,,,,,,,,,,,,1,,,,,,,,,,,,,,,,,,,,,,,"[""2""]",1,[4.55310000014299],0,0,0,9,1,,,,,,,,,,,,,,,,,,
,,,,,,,,,6047d153b53e4a096d54b26b,24,Mężczyzna,2022-06-04_08h27.18.105,task,2021.1.4,Win32,60.33182504,628b806c463b948bc644b84f,629afb2e58460b5c21e0f1f8,,,,,,,,,,,X V Q F H G B L J M P D K C T S W R N Z,,,,,,,,,,,,,,,,,,,,,,,,,,,,,,,,,,,,,,,,,,,,,,,,,,,,,,,,,,,,,,,,,,,,,,,,,,,,4,0,4,0,1,,,,,,,,,,,,,
,,,,,,,,,6047d153b53e4a096d54b26b,24,Mężczyzna,2022-06-04_08h27.18.105,task,2021.1.4,Win32,60.33182504,628b806c463b948bc644b84f,629afb2e58460b5c21e0f1f8,,,,,,,,,,,,,,,,,,,,,,,,,,,,,,,,,,,,,,,,,,,,,,,,,,,,,,,,,,,,,,,,,,,,,,,,,,,,,,,,,,,,,,,,,,,,tfxkt,"[""t"",""f"",""x"",""k"",""t""]",0,"[1.4633000001907703,1.8464000000954002,2.5901000001430248,3.342400000095381,3.6224999999999454,4.230300000190709]",1,TFXKT,3,0,3,0,1,,
,,,,,,,,,6047d153b53e4a096d54b26b,24,Mężczyzna,2022-06-04_08h27.18.105,task,2021.1.4,Win32,60.33182504,628b806c463b948bc644b84f,629afb2e58460b5c21e0f1f8,,,,,,,,,,,,,,,,,,,,,,,,9,,,,,,,,,,Task,24,(2x2) + 5,9,,,,,,,,,,,,,,,,,,,1,,,,,,,,,,,,,,,,,,,,,,,"[""9""]",1,[2.549599999904558],0,0,0,23,1,,,,,,,,,,,,,,,,,,
,,,,,,,,,6047d153b53e4a096d54b26b,24,Mężczyzna,2022-06-04_08h27.18.105,task,2021.1.4,Win32,60.33182504,628b806c463b948bc644b84f,629afb2e58460b5c21e0f1f8,,,,,,,,,,,X V Q F H G B L J M P D K C T S W R N Z,,,,,,,,,,,,,,,,,,,,,,,,,,,,,,,,,,,,,,,,,,,,,,,,,,,,,,,,,,,,,,,,,,,,,,,,,,,,0,0,0,0,1,,,,,,,,,,,,,
,,,,,,,,,6047d153b53e4a096d54b26b,24,Mężczyzna,2022-06-04_08h27.18.105,task,2021.1.4,Win32,60.33182504,628b806c463b948bc644b84f,629afb2e58460b5c21e0f1f8,,,,,,,,,,,,,,,,,,,,,,,,7,,,,,,,,,,Task,38,(4x6) - 17,7,,,,,,,,,,,,,,,,,,,1,,,,,,,,,,,,,,,,,,,,,,,"[""7""]",1,[4.866200000047684],0,0,0,37,1,,,,,,,,,,,,,,,,,,
,,,,,,,,,6047d153b53e4a096d54b26b,24,Mężczyzna,2022-06-04_08h27.18.105,task,2021.1.4,Win32,60.33182504,628b806c463b948bc644b84f,629afb2e58460b5c21e0f1f8,,,,,,,,,,,X V Q F H G B L J M P D K C T S W R N Z,,,,,,,,,,,,,,,,,,,,,,,,,,,,,,,,,,,,,,,,,,,,,,,,,,,,,,,,,,,,,,,,,,,,,,,,,,,,1,0,1,0,1,,,,,,,,,,,,,
,,,,,,,,,6047d153b53e4a096d54b26b,24,Mężczyzna,2022-06-04_08h27.18.105,task,2021.1.4,Win32,60.33182504,628b806c463b948bc644b84f,629afb2e58460b5c21e0f1f8,,,,,,,,,,,,,,,,,,,,,,,,1,,,,,,,,,,Task,27,(3/3) + 2,3,,,,,,,,,,,,,,,,,,,0,,,,,,,,,,,,,,,,,,,,,,,"[""1""]",0,[2.545199999809256],0,0,0,26,1,,,,,,,,,,,,,,,,,,
,,,,,,,,,6047d153b53e4a096d54b26b,24,Mężczyzna,2022-06-04_08h27.18.105,task,2021.1.4,Win32,60.33182504,628b806c463b948bc644b84f,629afb2e58460b5c21e0f1f8,,,,,,,,,,,,,,,,,,,,,,,,8,,,,,,,,,,Task,23,(2x3) + 2,8,,,,,,,,,,,,,,,,,,,1,,,,,,,,,,,,,,,,,,,,,,,"[""8""]",1,[3.6703999998569543],0,1,1,22,1,,,,,,,,,,,,,,,,,,
,,,,,,,,,6047d153b53e4a096d54b26b,24,Mężczyzna,2022-06-04_08h27.18.105,task,2021.1.4,Win32,60.33182504,628b806c463b948bc644b84f,629afb2e58460b5c21e0f1f8,,,,,,,,,,,X V Q F H G B L J M P D K C T S W R N Z,,,,,,,,,,,,,,,,,,,,,,,,,,,,,,,,,,,,,,,,,,,,,,,,,,,,,,,,,,,,,,,,,,,,,,,,,,,,2,0,2,0,1,,,,,,,,,,,,,
,,,,,,,,,6047d153b53e4a096d54b26b,24,Mężczyzna,2022-06-04_08h27.18.105,task,2021.1.4,Win32,60.33182504,628b806c463b948bc644b84f,629afb2e58460b5c21e0f1f8,,,,,,,,,,,,,,,,,,,,,,,,7,,,,,,,,,,Task,14,(2x2) + 3,7,,,,,,,,,,,,,,,,,,,1,,,,,,,,,,,,,,,,,,,,,,,"[""7""]",1,[2.758200000047623],0,0,0,13,1,,,,,,,,,,,,,,,,,,
,,,,,,,,,6047d153b53e4a096d54b26b,24,Mężczyzna,2022-06-04_08h27.18.105,task,2021.1.4,Win32,60.33182504,628b806c463b948bc644b84f,629afb2e58460b5c21e0f1f8,,,,,,,,,,,X V Q F H G B L J M P D K C T S W R N Z,,,,,,,,,,,,,,,,,,,,,,,,,,,,,,,,,,,,,,,,,,,,,,,,,,,,,,,,,,,,,,,,,,,,,,,,,,,,3,0,3,0,1,,,,,,,,,,,,,
,,,,,,,,,6047d153b53e4a096d54b26b,24,Mężczyzna,2022-06-04_08h27.18.105,task,2021.1.4,Win32,60.33182504,628b806c463b948bc644b84f,629afb2e58460b5c21e0f1f8,,,,,,,,,,,,,,,,,,,,,,,,5,,,,,,,,,,Task,29,(3x8) - 19 ,5,,,,,,,,,,,,,,,,,,,1,,,,,,,,,,,,,,,,,,,,,,,"[""5""]",1,[4.3884000000953165],0,0,0,28,1,,,,,,,,,,,,,,,,,,
,,,,,,,,,6047d153b53e4a096d54b26b,24,Mężczyzna,2022-06-04_08h27.18.105,task,2021.1.4,Win32,60.33182504,628b806c463b948bc644b84f,629afb2e58460b5c21e0f1f8,,,,,,,,,,,X V Q F H G B L J M P D K C T S W R N Z,,,,,,,,,,,,,,,,,,,,,,,,,,,,,,,,,,,,,,,,,,,,,,,,,,,,,,,,,,,,,,,,,,,,,,,,,,,,4,0,4,0,1,,,,,,,,,,,,,
,,,,,,,,,6047d153b53e4a096d54b26b,24,Mężczyzna,2022-06-04_08h27.18.105,task,2021.1.4,Win32,60.33182504,628b806c463b948bc644b84f,629afb2e58460b5c21e0f1f8,,,,,,,,,,,,,,,,,,,,,,,,8,,,,,,,,,,Task,32,(8/2) + 4,8,,,,,,,,,,,,,,,,,,,1,,,,,,,,,,,,,,,,,,,,,,,"[""8""]",1,[5.647299999952338],0,0,0,31,1,,,,,,,,,,,,,,,,,,
,,,,,,,,,6047d153b53e4a096d54b26b,24,Mężczyzna,2022-06-04_08h27.18.105,task,2021.1.4,Win32,60.33182504,628b806c463b948bc644b84f,629afb2e58460b5c21e0f1f8,,,,,,,,,,,X V Q F H G B L J M P D K C T S W R N Z,,,,,,,,,,,,,,,,,,,,,,,,,,,,,,,,,,,,,,,,,,,,,,,,,,,,,,,,,,,,,,,,,,,,,,,,,,,,5,0,5,0,1,,,,,,,,,,,,,
,,,,,,,,,6047d153b53e4a096d54b26b,24,Mężczyzna,2022-06-04_08h27.18.105,task,2021.1.4,Win32,60.33182504,628b806c463b948bc644b84f,629afb2e58460b5c21e0f1f8,,,,,,,,,,,,,,,,,,,,,,,,,,,,,,,,,,,,,,,,,,,,,,,,,,,,,,,,,,,,,,,,,,,,,,,,,,,,,,,,,,,,,,,,,,,,mzdbvq,"[""m"",""z"",""d"",""b"",""v"",""q""]",0,"[1.3609000000953984,1.6011000001431057,1.7450000000000045,3.5610000000000355,3.666500000000042,3.968800000190754,4.3452000000477256]",1,MZDBVQ,4,0,4,0,1,,
,,,,,,,,,6047d153b53e4a096d54b26b,24,Mężczyzna,2022-06-04_08h27.18.105,task,2021.1.4,Win32,60.33182504,628b806c463b948bc644b84f,629afb2e58460b5c21e0f1f8,,,,,,,,,,,,,,,,,,,,,,,,8,,,,,,,,,,Task,23,(2x3) + 2,8,,,,,,,,,,,,,,,,,,,1,,,,,,,,,,,,,,,,,,,,,,,"[""8""]",1,[2.2017000000477083],0,0,0,22,1,,,,,,,,,,,,,,,,,,
,,,,,,,,,6047d153b53e4a096d54b26b,24,Mężczyzna,2022-06-04_08h27.18.105,task,2021.1.4,Win32,60.33182504,628b806c463b948bc644b84f,629afb2e58460b5c21e0f1f8,,,,,,,,,,,X V Q F H G B L J M P D K C T S W R N Z,,,,,,,,,,,,,,,,,,,,,,,,,,,,,,,,,,,,,,,,,,,,,,,,,,,,,,,,,,,,,,,,,,,,,,,,,,,,0,0,0,0,1,,,,,,,,,,,,,
,,,,,,,,,6047d153b53e4a096d54b26b,24,Mężczyzna,2022-06-04_08h27.18.105,task,2021.1.4,Win32,60.33182504,628b806c463b948bc644b84f,629afb2e58460b5c21e0f1f8,,,,,,,,,,,,,,,,,,,,,,,,4,,,,,,,,,,Task,21,(10/2) - 1,4,,,,,,,,,,,,,,,,,,,1,,,,,,,,,,,,,,,,,,,,,,,"[""4""]",1,[2.277500000000032],0,0,0,20,1,,,,,,,,,,,,,,,,,,
,,,,,,,,,6047d153b53e4a096d54b26b,24,Mężczyzna,2022-06-04_08h27.18.105,task,2021.1.4,Win32,60.33182504,628b806c463b948bc644b84f,629afb2e58460b5c21e0f1f8,,,,,,,,,,,X V Q F H G B L J M P D K C T S W R N Z,,,,,,,,,,,,,,,,,,,,,,,,,,,,,,,,,,,,,,,,,,,,,,,,,,,,,,,,,,,,,,,,,,,,,,,,,,,,1,0,1,0,1,,,,,,,,,,,,,
,,,,,,,,,6047d153b53e4a096d54b26b,24,Mężczyzna,2022-06-04_08h27.18.105,task,2021.1.4,Win32,60.33182504,628b806c463b948bc644b84f,629afb2e58460b5c21e0f1f8,,,,,,,,,,,,,,,,,,,,,,,,1,,,,,,,,,,Task,18,(16/4) - 3,1,,,,,,,,,,,,,,,,,,,1,,,,,,,,,,,,,,,,,,,,,,,"[""1""]",1,[2.100200000047721],0,0,0,17,1,,,,,,,,,,,,,,,,,,
,,,,,,,,,6047d153b53e4a096d54b26b,24,Mężczyzna,2022-06-04_08h27.18.105,task,2021.1.4,Win32,60.33182504,628b806c463b948bc644b84f,629afb2e58460b5c21e0f1f8,,,,,,,,,,,X V Q F H G B L J M P D K C T S W R N Z,,,,,,,,,,,,,,,,,,,,,,,,,,,,,,,,,,,,,,,,,,,,,,,,,,,,,,,,,,,,,,,,,,,,,,,,,,,,2,0,2,0,1,,,,,,,,,,,,,
,,,,,,,,,6047d153b53e4a096d54b26b,24,Mężczyzna,2022-06-04_08h27.18.105,task,2021.1.4,Win32,60.33182504,628b806c463b948bc644b84f,629afb2e58460b5c21e0f1f8,,,,,,,,,,,,,,,,,,,,,,,,6,,,,,,,,,,Task,13,(3x4) - 6,6,,,,,,,,,,,,,,,,,,,1,,,,,,,,,,,,,,,,,,,,,,,"[""6""]",1,[2.476199999809296],0,0,0,12,1,,,,,,,,,,,,,,,,,,
,,,,,,,,,6047d153b53e4a096d54b26b,24,Mężczyzna,2022-06-04_08h27.18.105,task,2021.1.4,Win32,60.33182504,628b806c463b948bc644b84f,629afb2e58460b5c21e0f1f8,,,,,,,,,,,X V Q F H G B L J M P D K C T S W R N Z,,,,,,,,,,,,,,,,,,,,,,,,,,,,,,,,,,,,,,,,,,,,,,,,,,,,,,,,,,,,,,,,,,,,,,,,,,,,3,0,3,0,1,,,,,,,,,,,,,
,,,,,,,,,6047d153b53e4a096d54b26b,24,Mężczyzna,2022-06-04_08h27.18.105,task,2021.1.4,Win32,60.33182504,628b806c463b948bc644b84f,629afb2e58460b5c21e0f1f8,,,,,,,,,,,,,,,,,,,,,,,,5,,,,,,,,,,Task,12,(4x4) - 11,5,,,,,,,,,,,,,,,,,,,1,,,,,,,,,,,,,,,,,,,,,,,"[""5""]",1,[1.9329999999999927],0,0,0,11,1,,,,,,,,,,,,,,,,,,
,,,,,,,,,6047d153b53e4a096d54b26b,24,Mężczyzna,2022-06-04_08h27.18.105,task,2021.1.4,Win32,60.33182504,628b806c463b948bc644b84f,629afb2e58460b5c21e0f1f8,,,,,,,,,,,X V Q F H G B L J M P D K C T S W R N Z,,,,,,,,,,,,,,,,,,,,,,,,,,,,,,,,,,,,,,,,,,,,,,,,,,,,,,,,,,,,,,,,,,,,,,,,,,,,4,0,4,0,1,,,,,,,,,,,,,
,,,,,,,,,6047d153b53e4a096d54b26b,24,Mężczyzna,2022-06-04_08h27.18.105,task,2021.1.4,Win32,60.33182504,628b806c463b948bc644b84f,629afb2e58460b5c21e0f1f8,,,,,,,,,,,,,,,,,,,,,,,,7,,,,,,,,,,Task,14,(2x2) + 3,7,,,,,,,,,,,,,,,,,,,1,,,,,,,,,,,,,,,,,,,,,,,"[""7""]",1,[2.66700000000003],0,0,0,13,1,,,,,,,,,,,,,,,,,,
,,,,,,,,,6047d153b53e4a096d54b26b,24,Mężczyzna,2022-06-04_08h27.18.105,task,2021.1.4,Win32,60.33182504,628b806c463b948bc644b84f,629afb2e58460b5c21e0f1f8,,,,,,,,,,,X V Q F H G B L J M P D K C T S W R N Z,,,,,,,,,,,,,,,,,,,,,,,,,,,,,,,,,,,,,,,,,,,,,,,,,,,,,,,,,,,,,,,,,,,,,,,,,,,,5,0,5,0,1,,,,,,,,,,,,,
,,,,,,,,,6047d153b53e4a096d54b26b,24,Mężczyzna,2022-06-04_08h27.18.105,task,2021.1.4,Win32,60.33182504,628b806c463b948bc644b84f,629afb2e58460b5c21e0f1f8,,,,,,,,,,,,,,,,,,,,,,,,0,,,,,,,,,,Task,33,(1/1) - 1,0,,,,,,,,,,,,,,,,,,,1,,,,,,,,,,,,,,,,,,,,,,,"[""0""]",1,[3.45770000004768],0,0,0,32,1,,,,,,,,,,,,,,,,,,
,,,,,,,,,6047d153b53e4a096d54b26b,24,Mężczyzna,2022-06-04_08h27.18.105,task,2021.1.4,Win32,60.33182504,628b806c463b948bc644b84f,629afb2e58460b5c21e0f1f8,,,,,,,,,,,X V Q F H G B L J M P D K C T S W R N Z,,,,,,,,,,,,,,,,,,,,,,,,,,,,,,,,,,,,,,,,,,,,,,,,,,,,,,,,,,,,,,,,,,,,,,,,,,,,6,0,6,0,1,,,,,,,,,,,,,
,,,,,,,,,6047d153b53e4a096d54b26b,24,Mężczyzna,2022-06-04_08h27.18.105,task,2021.1.4,Win32,60.33182504,628b806c463b948bc644b84f,629afb2e58460b5c21e0f1f8,,,,,,,,,,,,,,,,,,,,,,,,,,,,,,,,,,,,,,,,,,,,,,,,,,,,,,,,,,,,,,,,,,,,,,,,,,,,,,,,,,,,,,,,,,,,rqprgdr,"[""r"",""q"",""p"",""r"",""g"",""d"",""r""]",0,"[1.1464000000953547,1.2745999999046944,1.394400000095402,1.794099999904688,2.0422000000477283,2.354000000000042,2.5065999999046653,2.6670999999046217]",1,RQPRGDR,5,0,5,0,1,,
,,,,,,,,,6047d153b53e4a096d54b26b,24,Mężczyzna,2022-06-04_08h27.18.105,task,2021.1.4,Win32,60.33182504,628b806c463b948bc644b84f,629afb2e58460b5c21e0f1f8,,,,,,,,,,,,,,,,,,,,,,,,4,,,,,,,,,,Task,4,(1x5) - 1,4,,,,,,,,,,,,,,,,,,,1,,,,,,,,,,,,,,,,,,,,,,,"[""4""]",1,[1.4787999999523436],0,0,0,3,1,,,,,,,,,,,,,,,,,,
,,,,,,,,,6047d153b53e4a096d54b26b,24,Mężczyzna,2022-06-04_08h27.18.105,task,2021.1.4,Win32,60.33182504,628b806c463b948bc644b84f,629afb2e58460b5c21e0f1f8,,,,,,,,,,,X V Q F H G B L J M P D K C T S W R N Z,,,,,,,,,,,,,,,,,,,,,,,,,,,,,,,,,,,,,,,,,,,,,,,,,,,,,,,,,,,,,,,,,,,,,,,,,,,,0,0,0,0,1,,,,,,,,,,,,,
,,,,,,,,,6047d153b53e4a096d54b26b,24,Mężczyzna,2022-06-04_08h27.18.105,task,2021.1.4,Win32,60.33182504,628b806c463b948bc644b84f,629afb2e58460b5c21e0f1f8,,,,,,,,,,,,,,,,,,,,,,,,2,,,,,,,,,,Task,2,(2x2) - 2,2,,,,,,,,,,,,,,,,,,,1,,,,,,,,,,,,,,,,,,,,,,,"[""2""]",1,[1.5362000000477565],0,0,0,1,1,,,,,,,,,,,,,,,,,,
,,,,,,,,,6047d153b53e4a096d54b26b,24,Mężczyzna,2022-06-04_08h27.18.105,task,2021.1.4,Win32,60.33182504,628b806c463b948bc644b84f,629afb2e58460b5c21e0f1f8,,,,,,,,,,,X V Q F H G B L J M P D K C T S W R N Z,,,,,,,,,,,,,,,,,,,,,,,,,,,,,,,,,,,,,,,,,,,,,,,,,,,,,,,,,,,,,,,,,,,,,,,,,,,,1,0,1,0,1,,,,,,,,,,,,,
,,,,,,,,,6047d153b53e4a096d54b26b,24,Mężczyzna,2022-06-04_08h27.18.105,task,2021.1.4,Win32,60.33182504,628b806c463b948bc644b84f,629afb2e58460b5c21e0f1f8,,,,,,,,,,,,,,,,,,,,,,,,0,,,,,,,,,,Task,17,(2x3) - 6,0,,,,,,,,,,,,,,,,,,,1,,,,,,,,,,,,,,,,,,,,,,,"[""0""]",1,[2.535199999809265],0,0,0,16,1,,,,,,,,,,,,,,,,,,
,,,,,,,,,6047d153b53e4a096d54b26b,24,Mężczyzna,2022-06-04_08h27.18.105,task,2021.1.4,Win32,60.33182504,628b806c463b948bc644b84f,629afb2e58460b5c21e0f1f8,,,,,,,,,,,X V Q F H G B L J M P D K C T S W R N Z,,,,,,,,,,,,,,,,,,,,,,,,,,,,,,,,,,,,,,,,,,,,,,,,,,,,,,,,,,,,,,,,,,,,,,,,,,,,2,0,2,0,1,,,,,,,,,,,,,
,,,,,,,,,6047d153b53e4a096d54b26b,24,Mężczyzna,2022-06-04_08h27.18.105,task,2021.1.4,Win32,60.33182504,628b806c463b948bc644b84f,629afb2e58460b5c21e0f1f8,,,,,,,,,,,,,,,,,,,,,,,,6,,,,,,,,,,Task,5,(2x3) + 0,6,,,,,,,,,,,,,,,,,,,1,,,,,,,,,,,,,,,,,,,,,,,"[""6""]",1,[2.5251999998092742],0,0,0,4,1,,,,,,,,,,,,,,,,,,
,,,,,,,,,6047d153b53e4a096d54b26b,24,Mężczyzna,2022-06-04_08h27.18.105,task,2021.1.4,Win32,60.33182504,628b806c463b948bc644b84f,629afb2e58460b5c21e0f1f8,,,,,,,,,,,X V Q F H G B L J M P D K C T S W R N Z,,,,,,,,,,,,,,,,,,,,,,,,,,,,,,,,,,,,,,,,,,,,,,,,,,,,,,,,,,,,,,,,,,,,,,,,,,,,3,0,3,0,1,,,,,,,,,,,,,
,,,,,,,,,6047d153b53e4a096d54b26b,24,Mężczyzna,2022-06-04_08h27.18.105,task,2021.1.4,Win32,60.33182504,628b806c463b948bc644b84f,629afb2e58460b5c21e0f1f8,,,,,,,,,,,,,,,,,,,,,,,,2,,,,,,,,,,Task,10,(2x5) - 8,2,,,,,,,,,,,,,,,,,,,1,,,,,,,,,,,,,,,,,,,,,,,"[""2""]",1,[1.7640999999046016],0,0,0,9,1,,,,,,,,,,,,,,,,,,
,,,,,,,,,6047d153b53e4a096d54b26b,24,Mężczyzna,2022-06-04_08h27.18.105,task,2021.1.4,Win32,60.33182504,628b806c463b948bc644b84f,629afb2e58460b5c21e0f1f8,,,,,,,,,,,X V Q F H G B L J M P D K C T S W R N Z,,,,,,,,,,,,,,,,,,,,,,,,,,,,,,,,,,,,,,,,,,,,,,,,,,,,,,,,,,,,,,,,,,,,,,,,,,,,4,0,4,0,1,,,,,,,,,,,,,
,,,,,,,,,6047d153b53e4a096d54b26b,24,Mężczyzna,2022-06-04_08h27.18.105,task,2021.1.4,Win32,60.33182504,628b806c463b948bc644b84f,629afb2e58460b5c21e0f1f8,,,,,,,,,,,,,,,,,,,,,,,,9,,,,,,,,,,Task,24,(2x2) + 5,9,,,,,,,,,,,,,,,,,,,1,,,,,,,,,,,,,,,,,,,,,,,"[""9""]",1,[1.9699000000954356],0,0,0,23,1,,,,,,,,,,,,,,,,,,
,,,,,,,,,6047d153b53e4a096d54b26b,24,Mężczyzna,2022-06-04_08h27.18.105,task,2021.1.4,Win32,60.33182504,628b806c463b948bc644b84f,629afb2e58460b5c21e0f1f8,,,,,,,,,,,X V Q F H G B L J M P D K C T S W R N Z,,,,,,,,,,,,,,,,,,,,,,,,,,,,,,,,,,,,,,,,,,,,,,,,,,,,,,,,,,,,,,,,,,,,,,,,,,,,5,0,5,0,1,,,,,,,,,,,,,
,,,,,,,,,6047d153b53e4a096d54b26b,24,Mężczyzna,2022-06-04_08h27.18.105,task,2021.1.4,Win32,60.33182504,628b806c463b948bc644b84f,629afb2e58460b5c21e0f1f8,,,,,,,,,,,,,,,,,,,,,,,,9,,,,,,,,,,Task,16,(3x8) - 15,9,,,,,,,,,,,,,,,,,,,1,,,,,,,,,,,,,,,,,,,,,,,"[""9""]",1,[2.5590999999045607],0,0,0,15,1,,,,,,,,,,,,,,,,,,
,,,,,,,,,6047d153b53e4a096d54b26b,24,Mężczyzna,2022-06-04_08h27.18.105,task,2021.1.4,Win32,60.33182504,628b806c463b948bc644b84f,629afb2e58460b5c21e0f1f8,,,,,,,,,,,X V Q F H G B L J M P D K C T S W R N Z,,,,,,,,,,,,,,,,,,,,,,,,,,,,,,,,,,,,,,,,,,,,,,,,,,,,,,,,,,,,,,,,,,,,,,,,,,,,6,0,6,0,1,,,,,,,,,,,,,
,,,,,,,,,6047d153b53e4a096d54b26b,24,Mężczyzna,2022-06-04_08h27.18.105,task,2021.1.4,Win32,60.33182504,628b806c463b948bc644b84f,629afb2e58460b5c21e0f1f8,,,,,,,,,,,,,,,,,,,,,,,,4,,,,,,,,,,Task,21,(10/2) - 1,4,,,,,,,,,,,,,,,,,,,1,,,,,,,,,,,,,,,,,,,,,,,"[""4""]",1,[3.1807999999523418],0,0,0,20,1,,,,,,,,,,,,,,,,,,
,,,,,,,,,6047d153b53e4a096d54b26b,24,Mężczyzna,2022-06-04_08h27.18.105,task,2021.1.4,Win32,60.33182504,628b806c463b948bc644b84f,629afb2e58460b5c21e0f1f8,,,,,,,,,,,X V Q F H G B L J M P D K C T S W R N Z,,,,,,,,,,,,,,,,,,,,,,,,,,,,,,,,,,,,,,,,,,,,,,,,,,,,,,,,,,,,,,,,,,,,,,,,,,,,7,0,7,0,1,,,,,,,,,,,,,
,,,,,,,,,6047d153b53e4a096d54b26b,24,Mężczyzna,2022-06-04_08h27.18.105,task,2021.1.4,Win32,60.33182504,628b806c463b948bc644b84f,629afb2e58460b5c21e0f1f8,,,,,,,,,,,,,,,,,,,,,,,,,,,,,,,,,,,,,,,,,,,,,,,,,,,,,,,,,,,,,,,,,,,,,,,,,,,,,,,,,,,,,,,,,,,,kgqpldm,"[""k"",""g"",""q"",""p"",""l"",""d"",""m""]",0,"[1.289100000143094,1.7052999999523308,2.1295000000000073,2.5537999999522754,2.920799999952351,3.2497999999523017,3.61690000009537,3.944600000143055]",0,KGMQPLDM,6,0,6,0,1,,
,,,,,,,,,6047d153b53e4a096d54b26b,24,Mężczyzna,2022-06-04_08h27.18.105,task,2021.1.4,Win32,60.33182504,628b806c463b948bc644b84f,629afb2e58460b5c21e0f1f8,,,,,,,,,,,,,,,,,,,,,,,,5,,,,,,,,,,Task,12,(4x4) - 11,5,,,,,,,,,,,,,,,,,,,1,,,,,,,,,,,,,,,,,,,,,,,"[""5""]",1,[2.0158999998569698],0,0,0,11,1,,,,,,,,,,,,,,,,,,
,,,,,,,,,6047d153b53e4a096d54b26b,24,Mężczyzna,2022-06-04_08h27.18.105,task,2021.1.4,Win32,60.33182504,628b806c463b948bc644b84f,629afb2e58460b5c21e0f1f8,,,,,,,,,,,X V Q F H G B L J M P D K C T S W R N Z,,,,,,,,,,,,,,,,,,,,,,,,,,,,,,,,,,,,,,,,,,,,,,,,,,,,,,,,,,,,,,,,,,,,,,,,,,,,0,0,0,0,1,,,,,,,,,,,,,
,,,,,,,,,6047d153b53e4a096d54b26b,24,Mężczyzna,2022-06-04_08h27.18.105,task,2021.1.4,Win32,60.33182504,628b806c463b948bc644b84f,629afb2e58460b5c21e0f1f8,,,,,,,,,,,,,,,,,,,,,,,,2,,,,,,,,,,Task,26,(2x9) - 16,2,,,,,,,,,,,,,,,,,,,1,,,,,,,,,,,,,,,,,,,,,,,"[""2""]",1,[1.6492000000476992],0,0,0,25,1,,,,,,,,,,,,,,,,,,
,,,,,,,,,6047d153b53e4a096d54b26b,24,Mężczyzna,2022-06-04_08h27.18.105,task,2021.1.4,Win32,60.33182504,628b806c463b948bc644b84f,629afb2e58460b5c21e0f1f8,,,,,,,,,,,X V Q F H G B L J M P D K C T S W R N Z,,,,,,,,,,,,,,,,,,,,,,,,,,,,,,,,,,,,,,,,,,,,,,,,,,,,,,,,,,,,,,,,,,,,,,,,,,,,1,0,1,0,1,,,,,,,,,,,,,
