key_resp_15.keys,key_resp_15.rt,key_resp_13.keys,key_resp_13.corr,ranodm_loop.thisRepN,ranodm_loop.thisTrialN,ranodm_loop.thisN,ranodm_loop.thisIndex,ranodm_loop.ran,participant,Wiek*,Płeć,date,expName,psychopyVersion,OS,frameRate,study_id,session,key_resp_13.rt,key_resp_16.keys,key_resp_16.rt,key_resp_4.keys,key_resp_4.rt,next_letter.thisRepN,next_letter.thisTrialN,next_letter.thisN,next_letter.thisIndex,next_letter.ran,letter,simple_recall,key_resp_5.keys,key_resp_5.rt,simple_recall_corr,simple_recall_corrkeys,next_level.thisRepN,next_level.thisTrialN,next_level.thisN,next_level.thisIndex,next_level.ran,key_resp_2.keys,key_resp_2.rt,digit_answer,key_resp.keys,key_resp.corr,key_resp.rt,RT_list,next_equation.thisRepN,next_equation.thisTrialN,next_equation.thisN,next_equation.thisIndex,next_equation.ran,Task,Trial,Problem,Operation_answer,processing_score,sumRT,meanRT,sumdiff,sd,RT,key_resp_3.keys,key_resp_3.rt,repeat_practice.thisRepN,repeat_practice.thisTrialN,repeat_practice.thisN,repeat_practice.thisIndex,repeat_practice.ran,key_resp_6.keys,key_resp_6.rt,key_resp_11.keys,key_resp_11.corr,operation_correct,repeat_if_wrong_prac.thisRepN,repeat_if_wrong_prac.thisTrialN,repeat_if_wrong_prac.thisN,repeat_if_wrong_prac.thisIndex,repeat_if_wrong_prac.ran,key_resp_11.rt,span_size_prac.thisRepN,span_size_prac.thisTrialN,span_size_prac.thisN,span_size_prac.thisIndex,span_size_prac.ran,complex_recall_practice,key_resp_9.keys,key_resp_9.corr,key_resp_9.rt,complex_prac_corr,span_recall_prac.thisRepN,span_recall_prac.thisTrialN,span_recall_prac.thisN,span_recall_prac.thisIndex,span_recall_prac.ran,key_resp_10.keys,key_resp_10.rt,key_resp_7.keys,key_resp_7.corr,key_resp_7.rt,repeat_if_wrong.thisRepN,repeat_if_wrong.thisTrialN,repeat_if_wrong.thisN,repeat_if_wrong.thisIndex,repeat_if_wrong.ran,span_size.thisRepN,span_size.thisTrialN,span_size.thisN,span_size.thisIndex,span_size.ran,complex_recall,key_resp_8.keys,key_resp_8.corr,key_resp_8.rt,complex_recall_corr,complex_recall_corrkeys,span_recall.thisRepN,span_recall.thisTrialN,span_recall.thisN,span_recall.thisIndex,span_recall.ran,key_resp_12.keys,key_resp_12.rt
space,8.0101,,0,0,0,0,0,1,6048b33e9bbc7bbfa6eeed32,25,Kobieta,2022-05-28_09h28.01.470,task,2021.1.4,Win32,60.06727535,628b806c463b948bc644b84f,6291cedd10dd9f0077eecd82,,,,,,,,,,,,,,,,,,,,,,,,,,,,,,,,,,,,,,,,,,,,,,,,,,,,,,,,,,,,,,,,,,,,,,,,,,,,,,,,,,,,,,,,,,,,,,,,,,,,,,,,
,,"[""comma""]",0,1,0,1,0,1,6048b33e9bbc7bbfa6eeed32,25,Kobieta,2022-05-28_09h28.01.470,task,2021.1.4,Win32,60.06727535,628b806c463b948bc644b84f,6291cedd10dd9f0077eecd82,[0.716100000143058],,,,,,,,,,,,,,,,,,,,,,,,,,,,,,,,,,,,,,,,,,,,,,,,,,,,,,,,,,,,,,,,,,,,,,,,,,,,,,,,,,,,,,,,,,,,,,,,,,,,,,,
,,"[""comma""]",0,2,0,2,0,1,6048b33e9bbc7bbfa6eeed32,25,Kobieta,2022-05-28_09h28.01.470,task,2021.1.4,Win32,60.06727535,628b806c463b948bc644b84f,6291cedd10dd9f0077eecd82,[0.5514999999999972],,,,,,,,,,,,,,,,,,,,,,,,,,,,,,,,,,,,,,,,,,,,,,,,,,,,,,,,,,,,,,,,,,,,,,,,,,,,,,,,,,,,,,,,,,,,,,,,,,,,,,,
,,"[""comma""]",0,3,0,3,0,1,6048b33e9bbc7bbfa6eeed32,25,Kobieta,2022-05-28_09h28.01.470,task,2021.1.4,Win32,60.06727535,628b806c463b948bc644b84f,6291cedd10dd9f0077eecd82,[0.4593999998569487],,,,,,,,,,,,,,,,,,,,,,,,,,,,,,,,,,,,,,,,,,,,,,,,,,,,,,,,,,,,,,,,,,,,,,,,,,,,,,,,,,,,,,,,,,,,,,,,,,,,,,,
,,"[""period""]",0,4,0,4,0,1,6048b33e9bbc7bbfa6eeed32,25,Kobieta,2022-05-28_09h28.01.470,task,2021.1.4,Win32,60.06727535,628b806c463b948bc644b84f,6291cedd10dd9f0077eecd82,[0.24900000000000233],,,,,,,,,,,,,,,,,,,,,,,,,,,,,,,,,,,,,,,,,,,,,,,,,,,,,,,,,,,,,,,,,,,,,,,,,,,,,,,,,,,,,,,,,,,,,,,,,,,,,,,
,,"[""period"",""period""]",0,5,0,5,0,1,6048b33e9bbc7bbfa6eeed32,25,Kobieta,2022-05-28_09h28.01.470,task,2021.1.4,Win32,60.06727535,628b806c463b948bc644b84f,6291cedd10dd9f0077eecd82,"[0.2337999999523177,1.908100000143051]",,,,,,,,,,,,,,,,,,,,,,,,,,,,,,,,,,,,,,,,,,,,,,,,,,,,,,,,,,,,,,,,,,,,,,,,,,,,,,,,,,,,,,,,,,,,,,,,,,,,,,,
,,,0,6,0,6,0,1,6048b33e9bbc7bbfa6eeed32,25,Kobieta,2022-05-28_09h28.01.470,task,2021.1.4,Win32,60.06727535,628b806c463b948bc644b84f,6291cedd10dd9f0077eecd82,,,,,,,,,,,,,,,,,,,,,,,,,,,,,,,,,,,,,,,,,,,,,,,,,,,,,,,,,,,,,,,,,,,,,,,,,,,,,,,,,,,,,,,,,,,,,,,,,,,,,,,,
,,"[""comma""]",0,7,0,7,0,1,6048b33e9bbc7bbfa6eeed32,25,Kobieta,2022-05-28_09h28.01.470,task,2021.1.4,Win32,60.06727535,628b806c463b948bc644b84f,6291cedd10dd9f0077eecd82,[0.26770000004768235],,,,,,,,,,,,,,,,,,,,,,,,,,,,,,,,,,,,,,,,,,,,,,,,,,,,,,,,,,,,,,,,,,,,,,,,,,,,,,,,,,,,,,,,,,,,,,,,,,,,,,,
,,"[""period""]",0,8,0,8,0,1,6048b33e9bbc7bbfa6eeed32,25,Kobieta,2022-05-28_09h28.01.470,task,2021.1.4,Win32,60.06727535,628b806c463b948bc644b84f,6291cedd10dd9f0077eecd82,[0.24210000014305422],,,,,,,,,,,,,,,,,,,,,,,,,,,,,,,,,,,,,,,,,,,,,,,,,,,,,,,,,,,,,,,,,,,,,,,,,,,,,,,,,,,,,,,,,,,,,,,,,,,,,,,
,,"[""period""]",0,9,0,9,0,1,6048b33e9bbc7bbfa6eeed32,25,Kobieta,2022-05-28_09h28.01.470,task,2021.1.4,Win32,60.06727535,628b806c463b948bc644b84f,6291cedd10dd9f0077eecd82,[0.18380000019072895],,,,,,,,,,,,,,,,,,,,,,,,,,,,,,,,,,,,,,,,,,,,,,,,,,,,,,,,,,,,,,,,,,,,,,,,,,,,,,,,,,,,,,,,,,,,,,,,,,,,,,,
,,"[""comma""]",0,10,0,10,0,1,6048b33e9bbc7bbfa6eeed32,25,Kobieta,2022-05-28_09h28.01.470,task,2021.1.4,Win32,60.06727535,628b806c463b948bc644b84f,6291cedd10dd9f0077eecd82,[0.25150000000000716],,,,,,,,,,,,,,,,,,,,,,,,,,,,,,,,,,,,,,,,,,,,,,,,,,,,,,,,,,,,,,,,,,,,,,,,,,,,,,,,,,,,,,,,,,,,,,,,,,,,,,,
,,"[""period""]",0,11,0,11,0,1,6048b33e9bbc7bbfa6eeed32,25,Kobieta,2022-05-28_09h28.01.470,task,2021.1.4,Win32,60.06727535,628b806c463b948bc644b84f,6291cedd10dd9f0077eecd82,[0.23360000014305626],,,,,,,,,,,,,,,,,,,,,,,,,,,,,,,,,,,,,,,,,,,,,,,,,,,,,,,,,,,,,,,,,,,,,,,,,,,,,,,,,,,,,,,,,,,,,,,,,,,,,,,
,,"[""period""]",0,12,0,12,0,1,6048b33e9bbc7bbfa6eeed32,25,Kobieta,2022-05-28_09h28.01.470,task,2021.1.4,Win32,60.06727535,628b806c463b948bc644b84f,6291cedd10dd9f0077eecd82,[0.22569999980926525],,,,,,,,,,,,,,,,,,,,,,,,,,,,,,,,,,,,,,,,,,,,,,,,,,,,,,,,,,,,,,,,,,,,,,,,,,,,,,,,,,,,,,,,,,,,,,,,,,,,,,,
,,"[""period""]",0,13,0,13,0,1,6048b33e9bbc7bbfa6eeed32,25,Kobieta,2022-05-28_09h28.01.470,task,2021.1.4,Win32,60.06727535,628b806c463b948bc644b84f,6291cedd10dd9f0077eecd82,[0.12260000014305206],,,,,,,,,,,,,,,,,,,,,,,,,,,,,,,,,,,,,,,,,,,,,,,,,,,,,,,,,,,,,,,,,,,,,,,,,,,,,,,,,,,,,,,,,,,,,,,,,,,,,,,
,,"[""period""]",0,14,0,14,0,1,6048b33e9bbc7bbfa6eeed32,25,Kobieta,2022-05-28_09h28.01.470,task,2021.1.4,Win32,60.06727535,628b806c463b948bc644b84f,6291cedd10dd9f0077eecd82,[0.0887000000476803],,,,,,,,,,,,,,,,,,,,,,,,,,,,,,,,,,,,,,,,,,,,,,,,,,,,,,,,,,,,,,,,,,,,,,,,,,,,,,,,,,,,,,,,,,,,,,,,,,,,,,,
,,"[""period""]",0,15,0,15,0,1,6048b33e9bbc7bbfa6eeed32,25,Kobieta,2022-05-28_09h28.01.470,task,2021.1.4,Win32,60.06727535,628b806c463b948bc644b84f,6291cedd10dd9f0077eecd82,[0.340999999999994],,,,,,,,,,,,,,,,,,,,,,,,,,,,,,,,,,,,,,,,,,,,,,,,,,,,,,,,,,,,,,,,,,,,,,,,,,,,,,,,,,,,,,,,,,,,,,,,,,,,,,,
,,"[""period""]",0,16,0,16,0,1,6048b33e9bbc7bbfa6eeed32,25,Kobieta,2022-05-28_09h28.01.470,task,2021.1.4,Win32,60.06727535,628b806c463b948bc644b84f,6291cedd10dd9f0077eecd82,[0.29180000019073304],,,,,,,,,,,,,,,,,,,,,,,,,,,,,,,,,,,,,,,,,,,,,,,,,,,,,,,,,,,,,,,,,,,,,,,,,,,,,,,,,,,,,,,,,,,,,,,,,,,,,,,
,,"[""comma""]",0,17,0,17,0,1,6048b33e9bbc7bbfa6eeed32,25,Kobieta,2022-05-28_09h28.01.470,task,2021.1.4,Win32,60.06727535,628b806c463b948bc644b84f,6291cedd10dd9f0077eecd82,[0.2337999999523106],,,,,,,,,,,,,,,,,,,,,,,,,,,,,,,,,,,,,,,,,,,,,,,,,,,,,,,,,,,,,,,,,,,,,,,,,,,,,,,,,,,,,,,,,,,,,,,,,,,,,,,
,,"[""period"",""comma""]",0,18,0,18,0,1,6048b33e9bbc7bbfa6eeed32,25,Kobieta,2022-05-28_09h28.01.470,task,2021.1.4,Win32,60.06727535,628b806c463b948bc644b84f,6291cedd10dd9f0077eecd82,"[0.2005999999046395,1.8542999999523175]",,,,,,,,,,,,,,,,,,,,,,,,,,,,,,,,,,,,,,,,,,,,,,,,,,,,,,,,,,,,,,,,,,,,,,,,,,,,,,,,,,,,,,,,,,,,,,,,,,,,,,,
,,,0,19,0,19,0,1,6048b33e9bbc7bbfa6eeed32,25,Kobieta,2022-05-28_09h28.01.470,task,2021.1.4,Win32,60.06727535,628b806c463b948bc644b84f,6291cedd10dd9f0077eecd82,,,,,,,,,,,,,,,,,,,,,,,,,,,,,,,,,,,,,,,,,,,,,,,,,,,,,,,,,,,,,,,,,,,,,,,,,,,,,,,,,,,,,,,,,,,,,,,,,,,,,,,,
,,"[""comma""]",0,20,0,20,0,1,6048b33e9bbc7bbfa6eeed32,25,Kobieta,2022-05-28_09h28.01.470,task,2021.1.4,Win32,60.06727535,628b806c463b948bc644b84f,6291cedd10dd9f0077eecd82,[0.2171999998092673],,,,,,,,,,,,,,,,,,,,,,,,,,,,,,,,,,,,,,,,,,,,,,,,,,,,,,,,,,,,,,,,,,,,,,,,,,,,,,,,,,,,,,,,,,,,,,,,,,,,,,,
,,"[""period""]",0,21,0,21,0,1,6048b33e9bbc7bbfa6eeed32,25,Kobieta,2022-05-28_09h28.01.470,task,2021.1.4,Win32,60.06727535,628b806c463b948bc644b84f,6291cedd10dd9f0077eecd82,[0.27729999995231935],,,,,,,,,,,,,,,,,,,,,,,,,,,,,,,,,,,,,,,,,,,,,,,,,,,,,,,,,,,,,,,,,,,,,,,,,,,,,,,,,,,,,,,,,,,,,,,,,,,,,,,
,,"[""comma""]",0,22,0,22,0,1,6048b33e9bbc7bbfa6eeed32,25,Kobieta,2022-05-28_09h28.01.470,task,2021.1.4,Win32,60.06727535,628b806c463b948bc644b84f,6291cedd10dd9f0077eecd82,[0.25060000014305217],,,,,,,,,,,,,,,,,,,,,,,,,,,,,,,,,,,,,,,,,,,,,,,,,,,,,,,,,,,,,,,,,,,,,,,,,,,,,,,,,,,,,,,,,,,,,,,,,,,,,,,
,,"[""comma""]",0,23,0,23,0,1,6048b33e9bbc7bbfa6eeed32,25,Kobieta,2022-05-28_09h28.01.470,task,2021.1.4,Win32,60.06727535,628b806c463b948bc644b84f,6291cedd10dd9f0077eecd82,[0.2505000000000024],,,,,,,,,,,,,,,,,,,,,,,,,,,,,,,,,,,,,,,,,,,,,,,,,,,,,,,,,,,,,,,,,,,,,,,,,,,,,,,,,,,,,,,,,,,,,,,,,,,,,,,
,,"[""comma""]",0,24,0,24,0,1,6048b33e9bbc7bbfa6eeed32,25,Kobieta,2022-05-28_09h28.01.470,task,2021.1.4,Win32,60.06727535,628b806c463b948bc644b84f,6291cedd10dd9f0077eecd82,[0.27200000000000557],,,,,,,,,,,,,,,,,,,,,,,,,,,,,,,,,,,,,,,,,,,,,,,,,,,,,,,,,,,,,,,,,,,,,,,,,,,,,,,,,,,,,,,,,,,,,,,,,,,,,,,
,,"[""period"",""comma""]",0,25,0,25,0,1,6048b33e9bbc7bbfa6eeed32,25,Kobieta,2022-05-28_09h28.01.470,task,2021.1.4,Win32,60.06727535,628b806c463b948bc644b84f,6291cedd10dd9f0077eecd82,"[0.017200000047694175,1.9519000000953781]",,,,,,,,,,,,,,,,,,,,,,,,,,,,,,,,,,,,,,,,,,,,,,,,,,,,,,,,,,,,,,,,,,,,,,,,,,,,,,,,,,,,,,,,,,,,,,,,,,,,,,,
,,,0,26,0,26,0,1,6048b33e9bbc7bbfa6eeed32,25,Kobieta,2022-05-28_09h28.01.470,task,2021.1.4,Win32,60.06727535,628b806c463b948bc644b84f,6291cedd10dd9f0077eecd82,,,,,,,,,,,,,,,,,,,,,,,,,,,,,,,,,,,,,,,,,,,,,,,,,,,,,,,,,,,,,,,,,,,,,,,,,,,,,,,,,,,,,,,,,,,,,,,,,,,,,,,,
,,"[""comma""]",0,27,0,27,0,1,6048b33e9bbc7bbfa6eeed32,25,Kobieta,2022-05-28_09h28.01.470,task,2021.1.4,Win32,60.06727535,628b806c463b948bc644b84f,6291cedd10dd9f0077eecd82,[0.13659999990463234],,,,,,,,,,,,,,,,,,,,,,,,,,,,,,,,,,,,,,,,,,,,,,,,,,,,,,,,,,,,,,,,,,,,,,,,,,,,,,,,,,,,,,,,,,,,,,,,,,,,,,,
,,"[""period""]",0,28,0,28,0,1,6048b33e9bbc7bbfa6eeed32,25,Kobieta,2022-05-28_09h28.01.470,task,2021.1.4,Win32,60.06727535,628b806c463b948bc644b84f,6291cedd10dd9f0077eecd82,[0.12470000004768167],,,,,,,,,,,,,,,,,,,,,,,,,,,,,,,,,,,,,,,,,,,,,,,,,,,,,,,,,,,,,,,,,,,,,,,,,,,,,,,,,,,,,,,,,,,,,,,,,,,,,,,
,,"[""period""]",0,29,0,29,0,1,6048b33e9bbc7bbfa6eeed32,25,Kobieta,2022-05-28_09h28.01.470,task,2021.1.4,Win32,60.06727535,628b806c463b948bc644b84f,6291cedd10dd9f0077eecd82,[0.0005000000000023874],,,,,,,,,,,,,,,,,,,,,,,,,,,,,,,,,,,,,,,,,,,,,,,,,,,,,,,,,,,,,,,,,,,,,,,,,,,,,,,,,,,,,,,,,,,,,,,,,,,,,,,
,,"[""comma""]",0,30,0,30,0,1,6048b33e9bbc7bbfa6eeed32,25,Kobieta,2022-05-28_09h28.01.470,task,2021.1.4,Win32,60.06727535,628b806c463b948bc644b84f,6291cedd10dd9f0077eecd82,[0.10099999999999909],,,,,,,,,,,,,,,,,,,,,,,,,,,,,,,,,,,,,,,,,,,,,,,,,,,,,,,,,,,,,,,,,,,,,,,,,,,,,,,,,,,,,,,,,,,,,,,,,,,,,,,
,,"[""period""]",0,31,0,31,0,1,6048b33e9bbc7bbfa6eeed32,25,Kobieta,2022-05-28_09h28.01.470,task,2021.1.4,Win32,60.06727535,628b806c463b948bc644b84f,6291cedd10dd9f0077eecd82,[0.06799999999999784],,,,,,,,,,,,,,,,,,,,,,,,,,,,,,,,,,,,,,,,,,,,,,,,,,,,,,,,,,,,,,,,,,,,,,,,,,,,,,,,,,,,,,,,,,,,,,,,,,,,,,,
,,"[""comma""]",0,32,0,32,0,1,6048b33e9bbc7bbfa6eeed32,25,Kobieta,2022-05-28_09h28.01.470,task,2021.1.4,Win32,60.06727535,628b806c463b948bc644b84f,6291cedd10dd9f0077eecd82,[0.26679999995232606],,,,,,,,,,,,,,,,,,,,,,,,,,,,,,,,,,,,,,,,,,,,,,,,,,,,,,,,,,,,,,,,,,,,,,,,,,,,,,,,,,,,,,,,,,,,,,,,,,,,,,,
,,"[""comma""]",0,33,0,33,0,1,6048b33e9bbc7bbfa6eeed32,25,Kobieta,2022-05-28_09h28.01.470,task,2021.1.4,Win32,60.06727535,628b806c463b948bc644b84f,6291cedd10dd9f0077eecd82,[0.2365000000000066],,,,,,,,,,,,,,,,,,,,,,,,,,,,,,,,,,,,,,,,,,,,,,,,,,,,,,,,,,,,,,,,,,,,,,,,,,,,,,,,,,,,,,,,,,,,,,,,,,,,,,,
,,"[""comma""]",0,34,0,34,0,1,6048b33e9bbc7bbfa6eeed32,25,Kobieta,2022-05-28_09h28.01.470,task,2021.1.4,Win32,60.06727535,628b806c463b948bc644b84f,6291cedd10dd9f0077eecd82,[0.21699999999999875],,,,,,,,,,,,,,,,,,,,,,,,,,,,,,,,,,,,,,,,,,,,,,,,,,,,,,,,,,,,,,,,,,,,,,,,,,,,,,,,,,,,,,,,,,,,,,,,,,,,,,,
,,"[""comma""]",0,35,0,35,0,1,6048b33e9bbc7bbfa6eeed32,25,Kobieta,2022-05-28_09h28.01.470,task,2021.1.4,Win32,60.06727535,628b806c463b948bc644b84f,6291cedd10dd9f0077eecd82,[0.1350999999046394],,,,,,,,,,,,,,,,,,,,,,,,,,,,,,,,,,,,,,,,,,,,,,,,,,,,,,,,,,,,,,,,,,,,,,,,,,,,,,,,,,,,,,,,,,,,,,,,,,,,,,,
,,"[""period""]",0,36,0,36,0,1,6048b33e9bbc7bbfa6eeed32,25,Kobieta,2022-05-28_09h28.01.470,task,2021.1.4,Win32,60.06727535,628b806c463b948bc644b84f,6291cedd10dd9f0077eecd82,[0.06170000004769349],,,,,,,,,,,,,,,,,,,,,,,,,,,,,,,,,,,,,,,,,,,,,,,,,,,,,,,,,,,,,,,,,,,,,,,,,,,,,,,,,,,,,,,,,,,,,,,,,,,,,,,
,,"[""comma""]",0,37,0,37,0,1,6048b33e9bbc7bbfa6eeed32,25,Kobieta,2022-05-28_09h28.01.470,task,2021.1.4,Win32,60.06727535,628b806c463b948bc644b84f,6291cedd10dd9f0077eecd82,[0.4669000000953645],,,,,,,,,,,,,,,,,,,,,,,,,,,,,,,,,,,,,,,,,,,,,,,,,,,,,,,,,,,,,,,,,,,,,,,,,,,,,,,,,,,,,,,,,,,,,,,,,,,,,,,
,,"[""period""]",0,38,0,38,0,1,6048b33e9bbc7bbfa6eeed32,25,Kobieta,2022-05-28_09h28.01.470,task,2021.1.4,Win32,60.06727535,628b806c463b948bc644b84f,6291cedd10dd9f0077eecd82,[1.220099999904619],,,,,,,,,,,,,,,,,,,,,,,,,,,,,,,,,,,,,,,,,,,,,,,,,,,,,,,,,,,,,,,,,,,,,,,,,,,,,,,,,,,,,,,,,,,,,,,,,,,,,,,
,,"[""comma""]",0,39,0,39,0,1,6048b33e9bbc7bbfa6eeed32,25,Kobieta,2022-05-28_09h28.01.470,task,2021.1.4,Win32,60.06727535,628b806c463b948bc644b84f,6291cedd10dd9f0077eecd82,[0.4733000001907328],,,,,,,,,,,,,,,,,,,,,,,,,,,,,,,,,,,,,,,,,,,,,,,,,,,,,,,,,,,,,,,,,,,,,,,,,,,,,,,,,,,,,,,,,,,,,,,,,,,,,,,
,,"[""comma""]",0,40,0,40,0,1,6048b33e9bbc7bbfa6eeed32,25,Kobieta,2022-05-28_09h28.01.470,task,2021.1.4,Win32,60.06727535,628b806c463b948bc644b84f,6291cedd10dd9f0077eecd82,[0.2605000000000075],,,,,,,,,,,,,,,,,,,,,,,,,,,,,,,,,,,,,,,,,,,,,,,,,,,,,,,,,,,,,,,,,,,,,,,,,,,,,,,,,,,,,,,,,,,,,,,,,,,,,,,
,,"[""comma""]",0,41,0,41,0,1,6048b33e9bbc7bbfa6eeed32,25,Kobieta,2022-05-28_09h28.01.470,task,2021.1.4,Win32,60.06727535,628b806c463b948bc644b84f,6291cedd10dd9f0077eecd82,[0.2172999999523313],,,,,,,,,,,,,,,,,,,,,,,,,,,,,,,,,,,,,,,,,,,,,,,,,,,,,,,,,,,,,,,,,,,,,,,,,,,,,,,,,,,,,,,,,,,,,,,,,,,,,,,
,,"[""period""]",0,42,0,42,0,1,6048b33e9bbc7bbfa6eeed32,25,Kobieta,2022-05-28_09h28.01.470,task,2021.1.4,Win32,60.06727535,628b806c463b948bc644b84f,6291cedd10dd9f0077eecd82,[-0.015500000000002956],,,,,,,,,,,,,,,,,,,,,,,,,,,,,,,,,,,,,,,,,,,,,,,,,,,,,,,,,,,,,,,,,,,,,,,,,,,,,,,,,,,,,,,,,,,,,,,,,,,,,,,
,,"[""period""]",0,43,0,43,0,1,6048b33e9bbc7bbfa6eeed32,25,Kobieta,2022-05-28_09h28.01.470,task,2021.1.4,Win32,60.06727535,628b806c463b948bc644b84f,6291cedd10dd9f0077eecd82,[0.27250000000000796],,,,,,,,,,,,,,,,,,,,,,,,,,,,,,,,,,,,,,,,,,,,,,,,,,,,,,,,,,,,,,,,,,,,,,,,,,,,,,,,,,,,,,,,,,,,,,,,,,,,,,,
,,"[""comma""]",0,44,0,44,0,1,6048b33e9bbc7bbfa6eeed32,25,Kobieta,2022-05-28_09h28.01.470,task,2021.1.4,Win32,60.06727535,628b806c463b948bc644b84f,6291cedd10dd9f0077eecd82,[0.1704000000953556],,,,,,,,,,,,,,,,,,,,,,,,,,,,,,,,,,,,,,,,,,,,,,,,,,,,,,,,,,,,,,,,,,,,,,,,,,,,,,,,,,,,,,,,,,,,,,,,,,,,,,,
,,"[""period""]",0,45,0,45,0,1,6048b33e9bbc7bbfa6eeed32,25,Kobieta,2022-05-28_09h28.01.470,task,2021.1.4,Win32,60.06727535,628b806c463b948bc644b84f,6291cedd10dd9f0077eecd82,[0.21870000004767576],,,,,,,,,,,,,,,,,,,,,,,,,,,,,,,,,,,,,,,,,,,,,,,,,,,,,,,,,,,,,,,,,,,,,,,,,,,,,,,,,,,,,,,,,,,,,,,,,,,,,,,
,,"[""comma""]",0,46,0,46,0,1,6048b33e9bbc7bbfa6eeed32,25,Kobieta,2022-05-28_09h28.01.470,task,2021.1.4,Win32,60.06727535,628b806c463b948bc644b84f,6291cedd10dd9f0077eecd82,[0.23410000014305865],,,,,,,,,,,,,,,,,,,,,,,,,,,,,,,,,,,,,,,,,,,,,,,,,,,,,,,,,,,,,,,,,,,,,,,,,,,,,,,,,,,,,,,,,,,,,,,,,,,,,,,
,,"[""comma""]",0,47,0,47,0,1,6048b33e9bbc7bbfa6eeed32,25,Kobieta,2022-05-28_09h28.01.470,task,2021.1.4,Win32,60.06727535,628b806c463b948bc644b84f,6291cedd10dd9f0077eecd82,[0.30059999990464803],,,,,,,,,,,,,,,,,,,,,,,,,,,,,,,,,,,,,,,,,,,,,,,,,,,,,,,,,,,,,,,,,,,,,,,,,,,,,,,,,,,,,,,,,,,,,,,,,,,,,,,
,,"[""period""]",0,48,0,48,0,1,6048b33e9bbc7bbfa6eeed32,25,Kobieta,2022-05-28_09h28.01.470,task,2021.1.4,Win32,60.06727535,628b806c463b948bc644b84f,6291cedd10dd9f0077eecd82,[0.08400000000000318],,,,,,,,,,,,,,,,,,,,,,,,,,,,,,,,,,,,,,,,,,,,,,,,,,,,,,,,,,,,,,,,,,,,,,,,,,,,,,,,,,,,,,,,,,,,,,,,,,,,,,,
,,"[""comma""]",0,49,0,49,0,1,6048b33e9bbc7bbfa6eeed32,25,Kobieta,2022-05-28_09h28.01.470,task,2021.1.4,Win32,60.06727535,628b806c463b948bc644b84f,6291cedd10dd9f0077eecd82,[0.050800000190747596],,,,,,,,,,,,,,,,,,,,,,,,,,,,,,,,,,,,,,,,,,,,,,,,,,,,,,,,,,,,,,,,,,,,,,,,,,,,,,,,,,,,,,,,,,,,,,,,,,,,,,,
,,"[""comma""]",0,50,0,50,0,1,6048b33e9bbc7bbfa6eeed32,25,Kobieta,2022-05-28_09h28.01.470,task,2021.1.4,Win32,60.06727535,628b806c463b948bc644b84f,6291cedd10dd9f0077eecd82,[0.18329999995231105],,,,,,,,,,,,,,,,,,,,,,,,,,,,,,,,,,,,,,,,,,,,,,,,,,,,,,,,,,,,,,,,,,,,,,,,,,,,,,,,,,,,,,,,,,,,,,,,,,,,,,,
,,"[""comma"",""period""]",0,51,0,51,0,1,6048b33e9bbc7bbfa6eeed32,25,Kobieta,2022-05-28_09h28.01.470,task,2021.1.4,Win32,60.06727535,628b806c463b948bc644b84f,6291cedd10dd9f0077eecd82,"[0.1504000000953738,1.8667999999523204]",,,,,,,,,,,,,,,,,,,,,,,,,,,,,,,,,,,,,,,,,,,,,,,,,,,,,,,,,,,,,,,,,,,,,,,,,,,,,,,,,,,,,,,,,,,,,,,,,,,,,,,
,,"[""comma""]",0,52,0,52,0,1,6048b33e9bbc7bbfa6eeed32,25,Kobieta,2022-05-28_09h28.01.470,task,2021.1.4,Win32,60.06727535,628b806c463b948bc644b84f,6291cedd10dd9f0077eecd82,[1.8831000001430596],,,,,,,,,,,,,,,,,,,,,,,,,,,,,,,,,,,,,,,,,,,,,,,,,,,,,,,,,,,,,,,,,,,,,,,,,,,,,,,,,,,,,,,,,,,,,,,,,,,,,,,
,,,0,53,0,53,0,1,6048b33e9bbc7bbfa6eeed32,25,Kobieta,2022-05-28_09h28.01.470,task,2021.1.4,Win32,60.06727535,628b806c463b948bc644b84f,6291cedd10dd9f0077eecd82,,,,,,,,,,,,,,,,,,,,,,,,,,,,,,,,,,,,,,,,,,,,,,,,,,,,,,,,,,,,,,,,,,,,,,,,,,,,,,,,,,,,,,,,,,,,,,,,,,,,,,,,
,,"[""comma""]",0,54,0,54,0,1,6048b33e9bbc7bbfa6eeed32,25,Kobieta,2022-05-28_09h28.01.470,task,2021.1.4,Win32,60.06727535,628b806c463b948bc644b84f,6291cedd10dd9f0077eecd82,[0.03820000004768076],,,,,,,,,,,,,,,,,,,,,,,,,,,,,,,,,,,,,,,,,,,,,,,,,,,,,,,,,,,,,,,,,,,,,,,,,,,,,,,,,,,,,,,,,,,,,,,,,,,,,,,
,,"[""comma""]",0,55,0,55,0,1,6048b33e9bbc7bbfa6eeed32,25,Kobieta,2022-05-28_09h28.01.470,task,2021.1.4,Win32,60.06727535,628b806c463b948bc644b84f,6291cedd10dd9f0077eecd82,[0.1507999999523122],,,,,,,,,,,,,,,,,,,,,,,,,,,,,,,,,,,,,,,,,,,,,,,,,,,,,,,,,,,,,,,,,,,,,,,,,,,,,,,,,,,,,,,,,,,,,,,,,,,,,,,
,,"[""period""]",0,56,0,56,0,1,6048b33e9bbc7bbfa6eeed32,25,Kobieta,2022-05-28_09h28.01.470,task,2021.1.4,Win32,60.06727535,628b806c463b948bc644b84f,6291cedd10dd9f0077eecd82,[0.36769999980924695],,,,,,,,,,,,,,,,,,,,,,,,,,,,,,,,,,,,,,,,,,,,,,,,,,,,,,,,,,,,,,,,,,,,,,,,,,,,,,,,,,,,,,,,,,,,,,,,,,,,,,,
,,"[""comma""]",0,57,0,57,0,1,6048b33e9bbc7bbfa6eeed32,25,Kobieta,2022-05-28_09h28.01.470,task,2021.1.4,Win32,60.06727535,628b806c463b948bc644b84f,6291cedd10dd9f0077eecd82,[0.25670000004768667],,,,,,,,,,,,,,,,,,,,,,,,,,,,,,,,,,,,,,,,,,,,,,,,,,,,,,,,,,,,,,,,,,,,,,,,,,,,,,,,,,,,,,,,,,,,,,,,,,,,,,,
,,"[""comma""]",0,58,0,58,0,1,6048b33e9bbc7bbfa6eeed32,25,Kobieta,2022-05-28_09h28.01.470,task,2021.1.4,Win32,60.06727535,628b806c463b948bc644b84f,6291cedd10dd9f0077eecd82,[0.1677999999523081],,,,,,,,,,,,,,,,,,,,,,,,,,,,,,,,,,,,,,,,,,,,,,,,,,,,,,,,,,,,,,,,,,,,,,,,,,,,,,,,,,,,,,,,,,,,,,,,,,,,,,,
,,"[""period""]",0,59,0,59,0,1,6048b33e9bbc7bbfa6eeed32,25,Kobieta,2022-05-28_09h28.01.470,task,2021.1.4,Win32,60.06727535,628b806c463b948bc644b84f,6291cedd10dd9f0077eecd82,[0.08079999995231901],,,,,,,,,,,,,,,,,,,,,,,,,,,,,,,,,,,,,,,,,,,,,,,,,,,,,,,,,,,,,,,,,,,,,,,,,,,,,,,,,,,,,,,,,,,,,,,,,,,,,,,
,,"[""period""]",0,60,0,60,0,1,6048b33e9bbc7bbfa6eeed32,25,Kobieta,2022-05-28_09h28.01.470,task,2021.1.4,Win32,60.06727535,628b806c463b948bc644b84f,6291cedd10dd9f0077eecd82,[0.18559999990463893],,,,,,,,,,,,,,,,,,,,,,,,,,,,,,,,,,,,,,,,,,,,,,,,,,,,,,,,,,,,,,,,,,,,,,,,,,,,,,,,,,,,,,,,,,,,,,,,,,,,,,,
,,"[""period""]",0,61,0,61,0,1,6048b33e9bbc7bbfa6eeed32,25,Kobieta,2022-05-28_09h28.01.470,task,2021.1.4,Win32,60.06727535,628b806c463b948bc644b84f,6291cedd10dd9f0077eecd82,[0.3398999998569536],,,,,,,,,,,,,,,,,,,,,,,,,,,,,,,,,,,,,,,,,,,,,,,,,,,,,,,,,,,,,,,,,,,,,,,,,,,,,,,,,,,,,,,,,,,,,,,,,,,,,,,
,,"[""comma""]",0,62,0,62,0,1,6048b33e9bbc7bbfa6eeed32,25,Kobieta,2022-05-28_09h28.01.470,task,2021.1.4,Win32,60.06727535,628b806c463b948bc644b84f,6291cedd10dd9f0077eecd82,[0.23379999995233902],,,,,,,,,,,,,,,,,,,,,,,,,,,,,,,,,,,,,,,,,,,,,,,,,,,,,,,,,,,,,,,,,,,,,,,,,,,,,,,,,,,,,,,,,,,,,,,,,,,,,,,
,,"[""comma""]",0,63,0,63,0,1,6048b33e9bbc7bbfa6eeed32,25,Kobieta,2022-05-28_09h28.01.470,task,2021.1.4,Win32,60.06727535,628b806c463b948bc644b84f,6291cedd10dd9f0077eecd82,[0.3340000000000032],,,,,,,,,,,,,,,,,,,,,,,,,,,,,,,,,,,,,,,,,,,,,,,,,,,,,,,,,,,,,,,,,,,,,,,,,,,,,,,,,,,,,,,,,,,,,,,,,,,,,,,
,,"[""comma""]",0,64,0,64,0,1,6048b33e9bbc7bbfa6eeed32,25,Kobieta,2022-05-28_09h28.01.470,task,2021.1.4,Win32,60.06727535,628b806c463b948bc644b84f,6291cedd10dd9f0077eecd82,[0.4172999999523199],,,,,,,,,,,,,,,,,,,,,,,,,,,,,,,,,,,,,,,,,,,,,,,,,,,,,,,,,,,,,,,,,,,,,,,,,,,,,,,,,,,,,,,,,,,,,,,,,,,,,,,
,,"[""period""]",0,65,0,65,0,1,6048b33e9bbc7bbfa6eeed32,25,Kobieta,2022-05-28_09h28.01.470,task,2021.1.4,Win32,60.06727535,628b806c463b948bc644b84f,6291cedd10dd9f0077eecd82,[0.4507000000477035],,,,,,,,,,,,,,,,,,,,,,,,,,,,,,,,,,,,,,,,,,,,,,,,,,,,,,,,,,,,,,,,,,,,,,,,,,,,,,,,,,,,,,,,,,,,,,,,,,,,,,,
,,"[""period"",""comma""]",0,66,0,66,0,1,6048b33e9bbc7bbfa6eeed32,25,Kobieta,2022-05-28_09h28.01.470,task,2021.1.4,Win32,60.06727535,628b806c463b948bc644b84f,6291cedd10dd9f0077eecd82,"[0.04690000009537698,1.7959999999999923]",,,,,,,,,,,,,,,,,,,,,,,,,,,,,,,,,,,,,,,,,,,,,,,,,,,,,,,,,,,,,,,,,,,,,,,,,,,,,,,,,,,,,,,,,,,,,,,,,,,,,,,
,,"[""comma""]",0,67,0,67,0,1,6048b33e9bbc7bbfa6eeed32,25,Kobieta,2022-05-28_09h28.01.470,task,2021.1.4,Win32,60.06727535,628b806c463b948bc644b84f,6291cedd10dd9f0077eecd82,[1.89520000004768],,,,,,,,,,,,,,,,,,,,,,,,,,,,,,,,,,,,,,,,,,,,,,,,,,,,,,,,,,,,,,,,,,,,,,,,,,,,,,,,,,,,,,,,,,,,,,,,,,,,,,,
,,"[""period""]",0,68,0,68,0,1,6048b33e9bbc7bbfa6eeed32,25,Kobieta,2022-05-28_09h28.01.470,task,2021.1.4,Win32,60.06727535,628b806c463b948bc644b84f,6291cedd10dd9f0077eecd82,[1.8367000000476992],,,,,,,,,,,,,,,,,,,,,,,,,,,,,,,,,,,,,,,,,,,,,,,,,,,,,,,,,,,,,,,,,,,,,,,,,,,,,,,,,,,,,,,,,,,,,,,,,,,,,,,
,,,0,69,0,69,0,1,6048b33e9bbc7bbfa6eeed32,25,Kobieta,2022-05-28_09h28.01.470,task,2021.1.4,Win32,60.06727535,628b806c463b948bc644b84f,6291cedd10dd9f0077eecd82,,,,,,,,,,,,,,,,,,,,,,,,,,,,,,,,,,,,,,,,,,,,,,,,,,,,,,,,,,,,,,,,,,,,,,,,,,,,,,,,,,,,,,,,,,,,,,,,,,,,,,,,
,,"[""period""]",0,70,0,70,0,1,6048b33e9bbc7bbfa6eeed32,25,Kobieta,2022-05-28_09h28.01.470,task,2021.1.4,Win32,60.06727535,628b806c463b948bc644b84f,6291cedd10dd9f0077eecd82,[0.24779999995229218],,,,,,,,,,,,,,,,,,,,,,,,,,,,,,,,,,,,,,,,,,,,,,,,,,,,,,,,,,,,,,,,,,,,,,,,,,,,,,,,,,,,,,,,,,,,,,,,,,,,,,,
,,"[""comma""]",0,71,0,71,0,1,6048b33e9bbc7bbfa6eeed32,25,Kobieta,2022-05-28_09h28.01.470,task,2021.1.4,Win32,60.06727535,628b806c463b948bc644b84f,6291cedd10dd9f0077eecd82,[0.2509000000953847],,,,,,,,,,,,,,,,,,,,,,,,,,,,,,,,,,,,,,,,,,,,,,,,,,,,,,,,,,,,,,,,,,,,,,,,,,,,,,,,,,,,,,,,,,,,,,,,,,,,,,,
,,"[""comma""]",0,72,0,72,0,1,6048b33e9bbc7bbfa6eeed32,25,Kobieta,2022-05-28_09h28.01.470,task,2021.1.4,Win32,60.06727535,628b806c463b948bc644b84f,6291cedd10dd9f0077eecd82,[0.14109999990463962],,,,,,,,,,,,,,,,,,,,,,,,,,,,,,,,,,,,,,,,,,,,,,,,,,,,,,,,,,,,,,,,,,,,,,,,,,,,,,,,,,,,,,,,,,,,,,,,,,,,,,,
,,"[""comma"",""period""]",0,73,0,73,0,1,6048b33e9bbc7bbfa6eeed32,25,Kobieta,2022-05-28_09h28.01.470,task,2021.1.4,Win32,60.06727535,628b806c463b948bc644b84f,6291cedd10dd9f0077eecd82,"[0.019300000190753508,1.74990000009538]",,,,,,,,,,,,,,,,,,,,,,,,,,,,,,,,,,,,,,,,,,,,,,,,,,,,,,,,,,,,,,,,,,,,,,,,,,,,,,,,,,,,,,,,,,,,,,,,,,,,,,,
,,,0,74,0,74,0,1,6048b33e9bbc7bbfa6eeed32,25,Kobieta,2022-05-28_09h28.01.470,task,2021.1.4,Win32,60.06727535,628b806c463b948bc644b84f,6291cedd10dd9f0077eecd82,,,,,,,,,,,,,,,,,,,,,,,,,,,,,,,,,,,,,,,,,,,,,,,,,,,,,,,,,,,,,,,,,,,,,,,,,,,,,,,,,,,,,,,,,,,,,,,,,,,,,,,,
,,"[""period""]",0,75,0,75,0,1,6048b33e9bbc7bbfa6eeed32,25,Kobieta,2022-05-28_09h28.01.470,task,2021.1.4,Win32,60.06727535,628b806c463b948bc644b84f,6291cedd10dd9f0077eecd82,[0.22839999985694703],,,,,,,,,,,,,,,,,,,,,,,,,,,,,,,,,,,,,,,,,,,,,,,,,,,,,,,,,,,,,,,,,,,,,,,,,,,,,,,,,,,,,,,,,,,,,,,,,,,,,,,
,,"[""comma""]",0,76,0,76,0,1,6048b33e9bbc7bbfa6eeed32,25,Kobieta,2022-05-28_09h28.01.470,task,2021.1.4,Win32,60.06727535,628b806c463b948bc644b84f,6291cedd10dd9f0077eecd82,[0.2910999999046169],,,,,,,,,,,,,,,,,,,,,,,,,,,,,,,,,,,,,,,,,,,,,,,,,,,,,,,,,,,,,,,,,,,,,,,,,,,,,,,,,,,,,,,,,,,,,,,,,,,,,,,
,,"[""period""]",0,77,0,77,0,1,6048b33e9bbc7bbfa6eeed32,25,Kobieta,2022-05-28_09h28.01.470,task,2021.1.4,Win32,60.06727535,628b806c463b948bc644b84f,6291cedd10dd9f0077eecd82,[0.21310000014304364],,,,,,,,,,,,,,,,,,,,,,,,,,,,,,,,,,,,,,,,,,,,,,,,,,,,,,,,,,,,,,,,,,,,,,,,,,,,,,,,,,,,,,,,,,,,,,,,,,,,,,,
,,"[""period""]",0,78,0,78,0,1,6048b33e9bbc7bbfa6eeed32,25,Kobieta,2022-05-28_09h28.01.470,task,2021.1.4,Win32,60.06727535,628b806c463b948bc644b84f,6291cedd10dd9f0077eecd82,[0.28440000009535993],,,,,,,,,,,,,,,,,,,,,,,,,,,,,,,,,,,,,,,,,,,,,,,,,,,,,,,,,,,,,,,,,,,,,,,,,,,,,,,,,,,,,,,,,,,,,,,,,,,,,,,
,,"[""comma""]",0,79,0,79,0,1,6048b33e9bbc7bbfa6eeed32,25,Kobieta,2022-05-28_09h28.01.470,task,2021.1.4,Win32,60.06727535,628b806c463b948bc644b84f,6291cedd10dd9f0077eecd82,[0.31179999995231356],,,,,,,,,,,,,,,,,,,,,,,,,,,,,,,,,,,,,,,,,,,,,,,,,,,,,,,,,,,,,,,,,,,,,,,,,,,,,,,,,,,,,,,,,,,,,,,,,,,,,,,
,,"[""comma""]",0,80,0,80,0,1,6048b33e9bbc7bbfa6eeed32,25,Kobieta,2022-05-28_09h28.01.470,task,2021.1.4,Win32,60.06727535,628b806c463b948bc644b84f,6291cedd10dd9f0077eecd82,[0.24150000000000205],,,,,,,,,,,,,,,,,,,,,,,,,,,,,,,,,,,,,,,,,,,,,,,,,,,,,,,,,,,,,,,,,,,,,,,,,,,,,,,,,,,,,,,,,,,,,,,,,,,,,,,
,,"[""comma""]",0,81,0,81,0,1,6048b33e9bbc7bbfa6eeed32,25,Kobieta,2022-05-28_09h28.01.470,task,2021.1.4,Win32,60.06727535,628b806c463b948bc644b84f,6291cedd10dd9f0077eecd82,[0.21870000004767576],,,,,,,,,,,,,,,,,,,,,,,,,,,,,,,,,,,,,,,,,,,,,,,,,,,,,,,,,,,,,,,,,,,,,,,,,,,,,,,,,,,,,,,,,,,,,,,,,,,,,,,
,,"[""period""]",0,82,0,82,0,1,6048b33e9bbc7bbfa6eeed32,25,Kobieta,2022-05-28_09h28.01.470,task,2021.1.4,Win32,60.06727535,628b806c463b948bc644b84f,6291cedd10dd9f0077eecd82,[0.14290000009538062],,,,,,,,,,,,,,,,,,,,,,,,,,,,,,,,,,,,,,,,,,,,,,,,,,,,,,,,,,,,,,,,,,,,,,,,,,,,,,,,,,,,,,,,,,,,,,,,,,,,,,,
,,"[""comma""]",0,83,0,83,0,1,6048b33e9bbc7bbfa6eeed32,25,Kobieta,2022-05-28_09h28.01.470,task,2021.1.4,Win32,60.06727535,628b806c463b948bc644b84f,6291cedd10dd9f0077eecd82,[0.000900000095384712],,,,,,,,,,,,,,,,,,,,,,,,,,,,,,,,,,,,,,,,,,,,,,,,,,,,,,,,,,,,,,,,,,,,,,,,,,,,,,,,,,,,,,,,,,,,,,,,,,,,,,,
,,"[""period""]",0,84,0,84,0,1,6048b33e9bbc7bbfa6eeed32,25,Kobieta,2022-05-28_09h28.01.470,task,2021.1.4,Win32,60.06727535,628b806c463b948bc644b84f,6291cedd10dd9f0077eecd82,[0.9722999999523267],,,,,,,,,,,,,,,,,,,,,,,,,,,,,,,,,,,,,,,,,,,,,,,,,,,,,,,,,,,,,,,,,,,,,,,,,,,,,,,,,,,,,,,,,,,,,,,,,,,,,,,
,,"[""comma""]",0,85,0,85,0,1,6048b33e9bbc7bbfa6eeed32,25,Kobieta,2022-05-28_09h28.01.470,task,2021.1.4,Win32,60.06727535,628b806c463b948bc644b84f,6291cedd10dd9f0077eecd82,[1.0832999999523167],,,,,,,,,,,,,,,,,,,,,,,,,,,,,,,,,,,,,,,,,,,,,,,,,,,,,,,,,,,,,,,,,,,,,,,,,,,,,,,,,,,,,,,,,,,,,,,,,,,,,,,
,,"[""period""]",0,86,0,86,0,1,6048b33e9bbc7bbfa6eeed32,25,Kobieta,2022-05-28_09h28.01.470,task,2021.1.4,Win32,60.06727535,628b806c463b948bc644b84f,6291cedd10dd9f0077eecd82,[0.5676000001430452],,,,,,,,,,,,,,,,,,,,,,,,,,,,,,,,,,,,,,,,,,,,,,,,,,,,,,,,,,,,,,,,,,,,,,,,,,,,,,,,,,,,,,,,,,,,,,,,,,,,,,,
,,"[""comma""]",0,87,0,87,0,1,6048b33e9bbc7bbfa6eeed32,25,Kobieta,2022-05-28_09h28.01.470,task,2021.1.4,Win32,60.06727535,628b806c463b948bc644b84f,6291cedd10dd9f0077eecd82,[0.26640000009538767],,,,,,,,,,,,,,,,,,,,,,,,,,,,,,,,,,,,,,,,,,,,,,,,,,,,,,,,,,,,,,,,,,,,,,,,,,,,,,,,,,,,,,,,,,,,,,,,,,,,,,,
,,"[""period""]",0,88,0,88,0,1,6048b33e9bbc7bbfa6eeed32,25,Kobieta,2022-05-28_09h28.01.470,task,2021.1.4,Win32,60.06727535,628b806c463b948bc644b84f,6291cedd10dd9f0077eecd82,[0.4507000000476751],,,,,,,,,,,,,,,,,,,,,,,,,,,,,,,,,,,,,,,,,,,,,,,,,,,,,,,,,,,,,,,,,,,,,,,,,,,,,,,,,,,,,,,,,,,,,,,,,,,,,,,
,,"[""period""]",0,89,0,89,0,1,6048b33e9bbc7bbfa6eeed32,25,Kobieta,2022-05-28_09h28.01.470,task,2021.1.4,Win32,60.06727535,628b806c463b948bc644b84f,6291cedd10dd9f0077eecd82,[0.5504999999999995],,,,,,,,,,,,,,,,,,,,,,,,,,,,,,,,,,,,,,,,,,,,,,,,,,,,,,,,,,,,,,,,,,,,,,,,,,,,,,,,,,,,,,,,,,,,,,,,,,,,,,,
,,"[""comma""]",0,90,0,90,0,1,6048b33e9bbc7bbfa6eeed32,25,Kobieta,2022-05-28_09h28.01.470,task,2021.1.4,Win32,60.06727535,628b806c463b948bc644b84f,6291cedd10dd9f0077eecd82,[0.6087000000476905],,,,,,,,,,,,,,,,,,,,,,,,,,,,,,,,,,,,,,,,,,,,,,,,,,,,,,,,,,,,,,,,,,,,,,,,,,,,,,,,,,,,,,,,,,,,,,,,,,,,,,,
,,"[""period""]",0,91,0,91,0,1,6048b33e9bbc7bbfa6eeed32,25,Kobieta,2022-05-28_09h28.01.470,task,2021.1.4,Win32,60.06727535,628b806c463b948bc644b84f,6291cedd10dd9f0077eecd82,[0.20070000004767508],,,,,,,,,,,,,,,,,,,,,,,,,,,,,,,,,,,,,,,,,,,,,,,,,,,,,,,,,,,,,,,,,,,,,,,,,,,,,,,,,,,,,,,,,,,,,,,,,,,,,,,
,,"[""comma""]",0,92,0,92,0,1,6048b33e9bbc7bbfa6eeed32,25,Kobieta,2022-05-28_09h28.01.470,task,2021.1.4,Win32,60.06727535,628b806c463b948bc644b84f,6291cedd10dd9f0077eecd82,[0.28429999995231015],,,,,,,,,,,,,,,,,,,,,,,,,,,,,,,,,,,,,,,,,,,,,,,,,,,,,,,,,,,,,,,,,,,,,,,,,,,,,,,,,,,,,,,,,,,,,,,,,,,,,,,
,,"[""comma""]",0,93,0,93,0,1,6048b33e9bbc7bbfa6eeed32,25,Kobieta,2022-05-28_09h28.01.470,task,2021.1.4,Win32,60.06727535,628b806c463b948bc644b84f,6291cedd10dd9f0077eecd82,[0.21229999995233584],,,,,,,,,,,,,,,,,,,,,,,,,,,,,,,,,,,,,,,,,,,,,,,,,,,,,,,,,,,,,,,,,,,,,,,,,,,,,,,,,,,,,,,,,,,,,,,,,,,,,,,
,,"[""comma""]",0,94,0,94,0,1,6048b33e9bbc7bbfa6eeed32,25,Kobieta,2022-05-28_09h28.01.470,task,2021.1.4,Win32,60.06727535,628b806c463b948bc644b84f,6291cedd10dd9f0077eecd82,[0.26690000009537584],,,,,,,,,,,,,,,,,,,,,,,,,,,,,,,,,,,,,,,,,,,,,,,,,,,,,,,,,,,,,,,,,,,,,,,,,,,,,,,,,,,,,,,,,,,,,,,,,,,,,,,
,,"[""period""]",0,95,0,95,0,1,6048b33e9bbc7bbfa6eeed32,25,Kobieta,2022-05-28_09h28.01.470,task,2021.1.4,Win32,60.06727535,628b806c463b948bc644b84f,6291cedd10dd9f0077eecd82,[0.2849999999999966],,,,,,,,,,,,,,,,,,,,,,,,,,,,,,,,,,,,,,,,,,,,,,,,,,,,,,,,,,,,,,,,,,,,,,,,,,,,,,,,,,,,,,,,,,,,,,,,,,,,,,,
,,"[""comma""]",0,96,0,96,0,1,6048b33e9bbc7bbfa6eeed32,25,Kobieta,2022-05-28_09h28.01.470,task,2021.1.4,Win32,60.06727535,628b806c463b948bc644b84f,6291cedd10dd9f0077eecd82,[0.32020000004769145],,,,,,,,,,,,,,,,,,,,,,,,,,,,,,,,,,,,,,,,,,,,,,,,,,,,,,,,,,,,,,,,,,,,,,,,,,,,,,,,,,,,,,,,,,,,,,,,,,,,,,,
,,"[""period""]",0,97,0,97,0,1,6048b33e9bbc7bbfa6eeed32,25,Kobieta,2022-05-28_09h28.01.470,task,2021.1.4,Win32,60.06727535,628b806c463b948bc644b84f,6291cedd10dd9f0077eecd82,[0.3522000000476737],,,,,,,,,,,,,,,,,,,,,,,,,,,,,,,,,,,,,,,,,,,,,,,,,,,,,,,,,,,,,,,,,,,,,,,,,,,,,,,,,,,,,,,,,,,,,,,,,,,,,,,
,,"[""comma""]",0,98,0,98,0,1,6048b33e9bbc7bbfa6eeed32,25,Kobieta,2022-05-28_09h28.01.470,task,2021.1.4,Win32,60.06727535,628b806c463b948bc644b84f,6291cedd10dd9f0077eecd82,[0.1192999999523181],,,,,,,,,,,,,,,,,,,,,,,,,,,,,,,,,,,,,,,,,,,,,,,,,,,,,,,,,,,,,,,,,,,,,,,,,,,,,,,,,,,,,,,,,,,,,,,,,,,,,,,
,,"[""comma""]",0,99,0,99,0,1,6048b33e9bbc7bbfa6eeed32,25,Kobieta,2022-05-28_09h28.01.470,task,2021.1.4,Win32,60.06727535,628b806c463b948bc644b84f,6291cedd10dd9f0077eecd82,[0.4880999999046196],,,,,,,,,,,,,,,,,,,,,,,,,,,,,,,,,,,,,,,,,,,,,,,,,,,,,,,,,,,,,,,,,,,,,,,,,,,,,,,,,,,,,,,,,,,,,,,,,,,,,,,
,,"[""period""]",0,100,0,100,0,1,6048b33e9bbc7bbfa6eeed32,25,Kobieta,2022-05-28_09h28.01.470,task,2021.1.4,Win32,60.06727535,628b806c463b948bc644b84f,6291cedd10dd9f0077eecd82,[0.17500000000001137],,,,,,,,,,,,,,,,,,,,,,,,,,,,,,,,,,,,,,,,,,,,,,,,,,,,,,,,,,,,,,,,,,,,,,,,,,,,,,,,,,,,,,,,,,,,,,,,,,,,,,,
,,"[""period""]",0,101,0,101,0,1,6048b33e9bbc7bbfa6eeed32,25,Kobieta,2022-05-28_09h28.01.470,task,2021.1.4,Win32,60.06727535,628b806c463b948bc644b84f,6291cedd10dd9f0077eecd82,[0.3550000000000182],,,,,,,,,,,,,,,,,,,,,,,,,,,,,,,,,,,,,,,,,,,,,,,,,,,,,,,,,,,,,,,,,,,,,,,,,,,,,,,,,,,,,,,,,,,,,,,,,,,,,,,
,,"[""comma""]",0,102,0,102,0,1,6048b33e9bbc7bbfa6eeed32,25,Kobieta,2022-05-28_09h28.01.470,task,2021.1.4,Win32,60.06727535,628b806c463b948bc644b84f,6291cedd10dd9f0077eecd82,[0.16890000009539108],,,,,,,,,,,,,,,,,,,,,,,,,,,,,,,,,,,,,,,,,,,,,,,,,,,,,,,,,,,,,,,,,,,,,,,,,,,,,,,,,,,,,,,,,,,,,,,,,,,,,,,
,,"[""period""]",0,103,0,103,0,1,6048b33e9bbc7bbfa6eeed32,25,Kobieta,2022-05-28_09h28.01.470,task,2021.1.4,Win32,60.06727535,628b806c463b948bc644b84f,6291cedd10dd9f0077eecd82,[0.5589999999999691],,,,,,,,,,,,,,,,,,,,,,,,,,,,,,,,,,,,,,,,,,,,,,,,,,,,,,,,,,,,,,,,,,,,,,,,,,,,,,,,,,,,,,,,,,,,,,,,,,,,,,,
,,"[""comma""]",0,104,0,104,0,1,6048b33e9bbc7bbfa6eeed32,25,Kobieta,2022-05-28_09h28.01.470,task,2021.1.4,Win32,60.06727535,628b806c463b948bc644b84f,6291cedd10dd9f0077eecd82,[0.3192000000477151],,,,,,,,,,,,,,,,,,,,,,,,,,,,,,,,,,,,,,,,,,,,,,,,,,,,,,,,,,,,,,,,,,,,,,,,,,,,,,,,,,,,,,,,,,,,,,,,,,,,,,,
,,"[""period""]",0,105,0,105,0,1,6048b33e9bbc7bbfa6eeed32,25,Kobieta,2022-05-28_09h28.01.470,task,2021.1.4,Win32,60.06727535,628b806c463b948bc644b84f,6291cedd10dd9f0077eecd82,[-0.005299999952285361],,,,,,,,,,,,,,,,,,,,,,,,,,,,,,,,,,,,,,,,,,,,,,,,,,,,,,,,,,,,,,,,,,,,,,,,,,,,,,,,,,,,,,,,,,,,,,,,,,,,,,,
,,"[""comma""]",0,106,0,106,0,1,6048b33e9bbc7bbfa6eeed32,25,Kobieta,2022-05-28_09h28.01.470,task,2021.1.4,Win32,60.06727535,628b806c463b948bc644b84f,6291cedd10dd9f0077eecd82,[0.06099999999997863],,,,,,,,,,,,,,,,,,,,,,,,,,,,,,,,,,,,,,,,,,,,,,,,,,,,,,,,,,,,,,,,,,,,,,,,,,,,,,,,,,,,,,,,,,,,,,,,,,,,,,,
,,"[""comma""]",0,107,0,107,0,1,6048b33e9bbc7bbfa6eeed32,25,Kobieta,2022-05-28_09h28.01.470,task,2021.1.4,Win32,60.06727535,628b806c463b948bc644b84f,6291cedd10dd9f0077eecd82,[0.28370000004764506],,,,,,,,,,,,,,,,,,,,,,,,,,,,,,,,,,,,,,,,,,,,,,,,,,,,,,,,,,,,,,,,,,,,,,,,,,,,,,,,,,,,,,,,,,,,,,,,,,,,,,,
,,"[""comma""]",0,108,0,108,0,1,6048b33e9bbc7bbfa6eeed32,25,Kobieta,2022-05-28_09h28.01.470,task,2021.1.4,Win32,60.06727535,628b806c463b948bc644b84f,6291cedd10dd9f0077eecd82,[0.4035000000000082],,,,,,,,,,,,,,,,,,,,,,,,,,,,,,,,,,,,,,,,,,,,,,,,,,,,,,,,,,,,,,,,,,,,,,,,,,,,,,,,,,,,,,,,,,,,,,,,,,,,,,,
,,"[""comma""]",0,109,0,109,0,1,6048b33e9bbc7bbfa6eeed32,25,Kobieta,2022-05-28_09h28.01.470,task,2021.1.4,Win32,60.06727535,628b806c463b948bc644b84f,6291cedd10dd9f0077eecd82,[0.3002999999523013],,,,,,,,,,,,,,,,,,,,,,,,,,,,,,,,,,,,,,,,,,,,,,,,,,,,,,,,,,,,,,,,,,,,,,,,,,,,,,,,,,,,,,,,,,,,,,,,,,,,,,,
,,"[""period""]",0,110,0,110,0,1,6048b33e9bbc7bbfa6eeed32,25,Kobieta,2022-05-28_09h28.01.470,task,2021.1.4,Win32,60.06727535,628b806c463b948bc644b84f,6291cedd10dd9f0077eecd82,[0.48640000009538653],,,,,,,,,,,,,,,,,,,,,,,,,,,,,,,,,,,,,,,,,,,,,,,,,,,,,,,,,,,,,,,,,,,,,,,,,,,,,,,,,,,,,,,,,,,,,,,,,,,,,,,
,,"[""comma""]",0,111,0,111,0,1,6048b33e9bbc7bbfa6eeed32,25,Kobieta,2022-05-28_09h28.01.470,task,2021.1.4,Win32,60.06727535,628b806c463b948bc644b84f,6291cedd10dd9f0077eecd82,[0.19159999990466758],,,,,,,,,,,,,,,,,,,,,,,,,,,,,,,,,,,,,,,,,,,,,,,,,,,,,,,,,,,,,,,,,,,,,,,,,,,,,,,,,,,,,,,,,,,,,,,,,,,,,,,
,,"[""period""]",0,112,0,112,0,1,6048b33e9bbc7bbfa6eeed32,25,Kobieta,2022-05-28_09h28.01.470,task,2021.1.4,Win32,60.06727535,628b806c463b948bc644b84f,6291cedd10dd9f0077eecd82,[0.0677999999523422],,,,,,,,,,,,,,,,,,,,,,,,,,,,,,,,,,,,,,,,,,,,,,,,,,,,,,,,,,,,,,,,,,,,,,,,,,,,,,,,,,,,,,,,,,,,,,,,,,,,,,,
,,"[""period""]",0,113,0,113,0,1,6048b33e9bbc7bbfa6eeed32,25,Kobieta,2022-05-28_09h28.01.470,task,2021.1.4,Win32,60.06727535,628b806c463b948bc644b84f,6291cedd10dd9f0077eecd82,[0.6437999999523072],,,,,,,,,,,,,,,,,,,,,,,,,,,,,,,,,,,,,,,,,,,,,,,,,,,,,,,,,,,,,,,,,,,,,,,,,,,,,,,,,,,,,,,,,,,,,,,,,,,,,,,
,,"[""comma"",""comma""]",0,114,0,114,0,1,6048b33e9bbc7bbfa6eeed32,25,Kobieta,2022-05-28_09h28.01.470,task,2021.1.4,Win32,60.06727535,628b806c463b948bc644b84f,6291cedd10dd9f0077eecd82,"[0.2839000000954002,1.9709000000953552]",,,,,,,,,,,,,,,,,,,,,,,,,,,,,,,,,,,,,,,,,,,,,,,,,,,,,,,,,,,,,,,,,,,,,,,,,,,,,,,,,,,,,,,,,,,,,,,,,,,,,,,
,,,0,115,0,115,0,1,6048b33e9bbc7bbfa6eeed32,25,Kobieta,2022-05-28_09h28.01.470,task,2021.1.4,Win32,60.06727535,628b806c463b948bc644b84f,6291cedd10dd9f0077eecd82,,,,,,,,,,,,,,,,,,,,,,,,,,,,,,,,,,,,,,,,,,,,,,,,,,,,,,,,,,,,,,,,,,,,,,,,,,,,,,,,,,,,,,,,,,,,,,,,,,,,,,,,
,,"[""comma""]",0,116,0,116,0,1,6048b33e9bbc7bbfa6eeed32,25,Kobieta,2022-05-28_09h28.01.470,task,2021.1.4,Win32,60.06727535,628b806c463b948bc644b84f,6291cedd10dd9f0077eecd82,[0.15029999995232401],,,,,,,,,,,,,,,,,,,,,,,,,,,,,,,,,,,,,,,,,,,,,,,,,,,,,,,,,,,,,,,,,,,,,,,,,,,,,,,,,,,,,,,,,,,,,,,,,,,,,,,
,,"[""period""]",0,117,0,117,0,1,6048b33e9bbc7bbfa6eeed32,25,Kobieta,2022-05-28_09h28.01.470,task,2021.1.4,Win32,60.06727535,628b806c463b948bc644b84f,6291cedd10dd9f0077eecd82,[0.07340000009531877],,,,,,,,,,,,,,,,,,,,,,,,,,,,,,,,,,,,,,,,,,,,,,,,,,,,,,,,,,,,,,,,,,,,,,,,,,,,,,,,,,,,,,,,,,,,,,,,,,,,,,,
,,"[""period""]",0,118,0,118,0,1,6048b33e9bbc7bbfa6eeed32,25,Kobieta,2022-05-28_09h28.01.470,task,2021.1.4,Win32,60.06727535,628b806c463b948bc644b84f,6291cedd10dd9f0077eecd82,[0.10709999990467622],,,,,,,,,,,,,,,,,,,,,,,,,,,,,,,,,,,,,,,,,,,,,,,,,,,,,,,,,,,,,,,,,,,,,,,,,,,,,,,,,,,,,,,,,,,,,,,,,,,,,,,
,,"[""comma""]",0,119,0,119,0,1,6048b33e9bbc7bbfa6eeed32,25,Kobieta,2022-05-28_09h28.01.470,task,2021.1.4,Win32,60.06727535,628b806c463b948bc644b84f,6291cedd10dd9f0077eecd82,[0.7924999999999613],,,,,,,,,,,,,,,,,,,,,,,,,,,,,,,,,,,,,,,,,,,,,,,,,,,,,,,,,,,,,,,,,,,,,,,,,,,,,,,,,,,,,,,,,,,,,,,,,,,,,,,
,,,,,,,,,6048b33e9bbc7bbfa6eeed32,25,Kobieta,2022-05-28_09h28.01.470,task,2021.1.4,Win32,60.06727535,628b806c463b948bc644b84f,6291cedd10dd9f0077eecd82,,space,10.3504,space,6.6166,0,0,0,0,1,"X V Q F H G B L J M P D K C T S W R N Z
",,,,,,,,,,,,,,,,,,,,,,,,,,,,,,,,,,,,,,,,,,,,,,,,,,,,,,,,,,,,,,,,,,,,,,,,,,,,,,,,,,,,,,,,,,,,,
,,,,,,,,,6048b33e9bbc7bbfa6eeed32,25,Kobieta,2022-05-28_09h28.01.470,task,2021.1.4,Win32,60.06727535,628b806c463b948bc644b84f,6291cedd10dd9f0077eecd82,,,,,,1,0,1,0,1,"X V Q F H G B L J M P D K C T S W R N Z
",,,,,,,,,,,,,,,,,,,,,,,,,,,,,,,,,,,,,,,,,,,,,,,,,,,,,,,,,,,,,,,,,,,,,,,,,,,,,,,,,,,,,,,,,,,,,
,,,,,,,,,6048b33e9bbc7bbfa6eeed32,25,Kobieta,2022-05-28_09h28.01.470,task,2021.1.4,Win32,60.06727535,628b806c463b948bc644b84f,6291cedd10dd9f0077eecd82,,,,,,,,,,,,zr,"[""z"",""r""]","[1.8219999999999459,2.2151000001430248,4.021499999999946]",1,ZR,0,0,0,0,1,,,,,,,,,,,,,,,,,,,,,,,,,,,,,,,,,,,,,,,,,,,,,,,,,,,,,,,,,,,,,,,,,,,,,,,,,,,,,,,,,,,
,,,,,,,,,6048b33e9bbc7bbfa6eeed32,25,Kobieta,2022-05-28_09h28.01.470,task,2021.1.4,Win32,60.06727535,628b806c463b948bc644b84f,6291cedd10dd9f0077eecd82,,,,,,0,0,0,0,1,"X V Q F H G B L J M P D K C T S W R N Z
",,,,,,,,,,,,,,,,,,,,,,,,,,,,,,,,,,,,,,,,,,,,,,,,,,,,,,,,,,,,,,,,,,,,,,,,,,,,,,,,,,,,,,,,,,,,,
,,,,,,,,,6048b33e9bbc7bbfa6eeed32,25,Kobieta,2022-05-28_09h28.01.470,task,2021.1.4,Win32,60.06727535,628b806c463b948bc644b84f,6291cedd10dd9f0077eecd82,,,,,,1,0,1,0,1,"X V Q F H G B L J M P D K C T S W R N Z
",,,,,,,,,,,,,,,,,,,,,,,,,,,,,,,,,,,,,,,,,,,,,,,,,,,,,,,,,,,,,,,,,,,,,,,,,,,,,,,,,,,,,,,,,,,,,
,,,,,,,,,6048b33e9bbc7bbfa6eeed32,25,Kobieta,2022-05-28_09h28.01.470,task,2021.1.4,Win32,60.06727535,628b806c463b948bc644b84f,6291cedd10dd9f0077eecd82,,,,,,,,,,,,bf,"[""b"",""f""]","[1.856399999856933,2.4308999998569334,3.2815999999046426]",1,BF,1,0,1,0,1,,,,,,,,,,,,,,,,,,,,,,,,,,,,,,,,,,,,,,,,,,,,,,,,,,,,,,,,,,,,,,,,,,,,,,,,,,,,,,,,,,,
,,,,,,,,,6048b33e9bbc7bbfa6eeed32,25,Kobieta,2022-05-28_09h28.01.470,task,2021.1.4,Win32,60.06727535,628b806c463b948bc644b84f,6291cedd10dd9f0077eecd82,,,,,,0,0,0,0,1,"X V Q F H G B L J M P D K C T S W R N Z
",,,,,,,,,,,,,,,,,,,,,,,,,,,,,,,,,,,,,,,,,,,,,,,,,,,,,,,,,,,,,,,,,,,,,,,,,,,,,,,,,,,,,,,,,,,,,
,,,,,,,,,6048b33e9bbc7bbfa6eeed32,25,Kobieta,2022-05-28_09h28.01.470,task,2021.1.4,Win32,60.06727535,628b806c463b948bc644b84f,6291cedd10dd9f0077eecd82,,,,,,1,0,1,0,1,"X V Q F H G B L J M P D K C T S W R N Z
",,,,,,,,,,,,,,,,,,,,,,,,,,,,,,,,,,,,,,,,,,,,,,,,,,,,,,,,,,,,,,,,,,,,,,,,,,,,,,,,,,,,,,,,,,,,,
,,,,,,,,,6048b33e9bbc7bbfa6eeed32,25,Kobieta,2022-05-28_09h28.01.470,task,2021.1.4,Win32,60.06727535,628b806c463b948bc644b84f,6291cedd10dd9f0077eecd82,,,,,,2,0,2,0,1,"X V Q F H G B L J M P D K C T S W R N Z
",,,,,,,,,,,,,,,,,,,,,,,,,,,,,,,,,,,,,,,,,,,,,,,,,,,,,,,,,,,,,,,,,,,,,,,,,,,,,,,,,,,,,,,,,,,,,
,,,,,,,,,6048b33e9bbc7bbfa6eeed32,25,Kobieta,2022-05-28_09h28.01.470,task,2021.1.4,Win32,60.06727535,628b806c463b948bc644b84f,6291cedd10dd9f0077eecd82,,,,,,,,,,,,qcg,"[""q"",""c"",""g""]","[1.1292000000477174,1.7024999999999864,2.0842000000477015,2.781600000143044]",1,QCG,2,0,2,0,1,,,,,,,,,,,,,,,,,,,,,,,,,,,,,,,,,,,,,,,,,,,,,,,,,,,,,,,,,,,,,,,,,,,,,,,,,,,,,,,,,,,
,,,,,,,,,6048b33e9bbc7bbfa6eeed32,25,Kobieta,2022-05-28_09h28.01.470,task,2021.1.4,Win32,60.06727535,628b806c463b948bc644b84f,6291cedd10dd9f0077eecd82,,,,,,0,0,0,0,1,"X V Q F H G B L J M P D K C T S W R N Z
",,,,,,,,,,,,,,,,,,,,,,,,,,,,,,,,,,,,,,,,,,,,,,,,,,,,,,,,,,,,,,,,,,,,,,,,,,,,,,,,,,,,,,,,,,,,,
,,,,,,,,,6048b33e9bbc7bbfa6eeed32,25,Kobieta,2022-05-28_09h28.01.470,task,2021.1.4,Win32,60.06727535,628b806c463b948bc644b84f,6291cedd10dd9f0077eecd82,,,,,,1,0,1,0,1,"X V Q F H G B L J M P D K C T S W R N Z
",,,,,,,,,,,,,,,,,,,,,,,,,,,,,,,,,,,,,,,,,,,,,,,,,,,,,,,,,,,,,,,,,,,,,,,,,,,,,,,,,,,,,,,,,,,,,
,,,,,,,,,6048b33e9bbc7bbfa6eeed32,25,Kobieta,2022-05-28_09h28.01.470,task,2021.1.4,Win32,60.06727535,628b806c463b948bc644b84f,6291cedd10dd9f0077eecd82,,,,,,2,0,2,0,1,"X V Q F H G B L J M P D K C T S W R N Z
",,,,,,,,,,,,,,,,,,,,,,,,,,,,,,,,,,,,,,,,,,,,,,,,,,,,,,,,,,,,,,,,,,,,,,,,,,,,,,,,,,,,,,,,,,,,,
,,,,,,,,,6048b33e9bbc7bbfa6eeed32,25,Kobieta,2022-05-28_09h28.01.470,task,2021.1.4,Win32,60.06727535,628b806c463b948bc644b84f,6291cedd10dd9f0077eecd82,,,,,,,,,,,,vpf,"[""v"",""p"",""f""]","[1.1229999999999905,1.6972000000476442,2.0889999999999986,2.763499999999965]",1,VPF,3,0,3,0,1,,,,,,,,,,,,,,,,,,,,,,,,,,,,,,,,,,,,,,,,,,,,,,,,,,,,,,,,,,,,,,,,,,,,,,,,,,,,,,,,,,,
,,,,,,,,,6048b33e9bbc7bbfa6eeed32,25,Kobieta,2022-05-28_09h28.01.470,task,2021.1.4,Win32,60.06727535,628b806c463b948bc644b84f,6291cedd10dd9f0077eecd82,,,,,,0,0,0,0,1,"X V Q F H G B L J M P D K C T S W R N Z
",,,,,,,,,,,,,,,,,,,,,,,,,,,,,,,,,,,,,,,,,,,,,,,,,,,,,,,,,,,,,,,,,,,,,,,,,,,,,,,,,,,,,,,,,,,,,
,,,,,,,,,6048b33e9bbc7bbfa6eeed32,25,Kobieta,2022-05-28_09h28.01.470,task,2021.1.4,Win32,60.06727535,628b806c463b948bc644b84f,6291cedd10dd9f0077eecd82,,,,,,1,0,1,0,1,"X V Q F H G B L J M P D K C T S W R N Z
",,,,,,,,,,,,,,,,,,,,,,,,,,,,,,,,,,,,,,,,,,,,,,,,,,,,,,,,,,,,,,,,,,,,,,,,,,,,,,,,,,,,,,,,,,,,,
,,,,,,,,,6048b33e9bbc7bbfa6eeed32,25,Kobieta,2022-05-28_09h28.01.470,task,2021.1.4,Win32,60.06727535,628b806c463b948bc644b84f,6291cedd10dd9f0077eecd82,,,,,,2,0,2,0,1,"X V Q F H G B L J M P D K C T S W R N Z
",,,,,,,,,,,,,,,,,,,,,,,,,,,,,,,,,,,,,,,,,,,,,,,,,,,,,,,,,,,,,,,,,,,,,,,,,,,,,,,,,,,,,,,,,,,,,
,,,,,,,,,6048b33e9bbc7bbfa6eeed32,25,Kobieta,2022-05-28_09h28.01.470,task,2021.1.4,Win32,60.06727535,628b806c463b948bc644b84f,6291cedd10dd9f0077eecd82,,,,,,3,0,3,0,1,"X V Q F H G B L J M P D K C T S W R N Z
",,,,,,,,,,,,,,,,,,,,,,,,,,,,,,,,,,,,,,,,,,,,,,,,,,,,,,,,,,,,,,,,,,,,,,,,,,,,,,,,,,,,,,,,,,,,,
,,,,,,,,,6048b33e9bbc7bbfa6eeed32,25,Kobieta,2022-05-28_09h28.01.470,task,2021.1.4,Win32,60.06727535,628b806c463b948bc644b84f,6291cedd10dd9f0077eecd82,,,,,,,,,,,,mdjq,"[""m"",""d"",""j"",""q""]","[0.5405000000000086,1.0803999998569793,1.554899999856957,1.9635000000000105,2.654099999904645]",1,MDJQ,4,0,4,0,1,,,,,,,,,,,,,,,,,,,,,,,,,,,,,,,,,,,,,,,,,,,,,,,,,,,,,,,,,,,,,,,,,,,,,,,,,,,,,,,,,,,
,,,,,,,,,6048b33e9bbc7bbfa6eeed32,25,Kobieta,2022-05-28_09h28.01.470,task,2021.1.4,Win32,60.06727535,628b806c463b948bc644b84f,6291cedd10dd9f0077eecd82,,,,,,0,0,0,0,1,"X V Q F H G B L J M P D K C T S W R N Z
",,,,,,,,,,,,,,,,,,,,,,,,,,,,,,,,,,,,,,,,,,,,,,,,,,,,,,,,,,,,,,,,,,,,,,,,,,,,,,,,,,,,,,,,,,,,,
,,,,,,,,,6048b33e9bbc7bbfa6eeed32,25,Kobieta,2022-05-28_09h28.01.470,task,2021.1.4,Win32,60.06727535,628b806c463b948bc644b84f,6291cedd10dd9f0077eecd82,,,,,,1,0,1,0,1,"X V Q F H G B L J M P D K C T S W R N Z
",,,,,,,,,,,,,,,,,,,,,,,,,,,,,,,,,,,,,,,,,,,,,,,,,,,,,,,,,,,,,,,,,,,,,,,,,,,,,,,,,,,,,,,,,,,,,
,,,,,,,,,6048b33e9bbc7bbfa6eeed32,25,Kobieta,2022-05-28_09h28.01.470,task,2021.1.4,Win32,60.06727535,628b806c463b948bc644b84f,6291cedd10dd9f0077eecd82,,,,,,2,0,2,0,1,"X V Q F H G B L J M P D K C T S W R N Z
",,,,,,,,,,,,,,,,,,,,,,,,,,,,,,,,,,,,,,,,,,,,,,,,,,,,,,,,,,,,,,,,,,,,,,,,,,,,,,,,,,,,,,,,,,,,,
,,,,,,,,,6048b33e9bbc7bbfa6eeed32,25,Kobieta,2022-05-28_09h28.01.470,task,2021.1.4,Win32,60.06727535,628b806c463b948bc644b84f,6291cedd10dd9f0077eecd82,,,,,,3,0,3,0,1,"X V Q F H G B L J M P D K C T S W R N Z
",,,,,,,,,,,,,,,,,,,,,,,,,,,,,,,,,,,,,,,,,,,,,,,,,,,,,,,,,,,,,,,,,,,,,,,,,,,,,,,,,,,,,,,,,,,,,
,,,,,,,,,6048b33e9bbc7bbfa6eeed32,25,Kobieta,2022-05-28_09h28.01.470,task,2021.1.4,Win32,60.06727535,628b806c463b948bc644b84f,6291cedd10dd9f0077eecd82,,,,,,,,,,,,ldlt,"[""l"",""d"",""l"",""t""]","[0.9359999999999786,1.3142999999523113,1.7474000000953538,2.0804999999999723,2.7302000000476596]",1,LDLT,5,0,5,0,1,,,,,,,,,,,,,,,,,,,,,,,,,,,,,,,,,,,,,,,,,,,,,,,,,,,,,,,,,,,,,,,,,,,,,,,,,,,,,,,,,,,
,,,,,,,,,6048b33e9bbc7bbfa6eeed32,25,Kobieta,2022-05-28_09h28.01.470,task,2021.1.4,Win32,60.06727535,628b806c463b948bc644b84f,6291cedd10dd9f0077eecd82,,,,,,0,0,0,0,1,"X V Q F H G B L J M P D K C T S W R N Z
",,,,,,,,,,,,,,,,,,,,,,,,,,,,,,,,,,,,,,,,,,,,,,,,,,,,,,,,,,,,,,,,,,,,,,,,,,,,,,,,,,,,,,,,,,,,,
,,,,,,,,,6048b33e9bbc7bbfa6eeed32,25,Kobieta,2022-05-28_09h28.01.470,task,2021.1.4,Win32,60.06727535,628b806c463b948bc644b84f,6291cedd10dd9f0077eecd82,,,,,,1,0,1,0,1,"X V Q F H G B L J M P D K C T S W R N Z
",,,,,,,,,,,,,,,,,,,,,,,,,,,,,,,,,,,,,,,,,,,,,,,,,,,,,,,,,,,,,,,,,,,,,,,,,,,,,,,,,,,,,,,,,,,,,
,,,,,,,,,6048b33e9bbc7bbfa6eeed32,25,Kobieta,2022-05-28_09h28.01.470,task,2021.1.4,Win32,60.06727535,628b806c463b948bc644b84f,6291cedd10dd9f0077eecd82,,,,,,2,0,2,0,1,"X V Q F H G B L J M P D K C T S W R N Z
",,,,,,,,,,,,,,,,,,,,,,,,,,,,,,,,,,,,,,,,,,,,,,,,,,,,,,,,,,,,,,,,,,,,,,,,,,,,,,,,,,,,,,,,,,,,,
,,,,,,,,,6048b33e9bbc7bbfa6eeed32,25,Kobieta,2022-05-28_09h28.01.470,task,2021.1.4,Win32,60.06727535,628b806c463b948bc644b84f,6291cedd10dd9f0077eecd82,,,,,,3,0,3,0,1,"X V Q F H G B L J M P D K C T S W R N Z
",,,,,,,,,,,,,,,,,,,,,,,,,,,,,,,,,,,,,,,,,,,,,,,,,,,,,,,,,,,,,,,,,,,,,,,,,,,,,,,,,,,,,,,,,,,,,
,,,,,,,,,6048b33e9bbc7bbfa6eeed32,25,Kobieta,2022-05-28_09h28.01.470,task,2021.1.4,Win32,60.06727535,628b806c463b948bc644b84f,6291cedd10dd9f0077eecd82,,,,,,4,0,4,0,1,"X V Q F H G B L J M P D K C T S W R N Z
",,,,,,,,,,,,,,,,,,,,,,,,,,,,,,,,,,,,,,,,,,,,,,,,,,,,,,,,,,,,,,,,,,,,,,,,,,,,,,,,,,,,,,,,,,,,,
,,,,,,,,,6048b33e9bbc7bbfa6eeed32,25,Kobieta,2022-05-28_09h28.01.470,task,2021.1.4,Win32,60.06727535,628b806c463b948bc644b84f,6291cedd10dd9f0077eecd82,,,,,,,,,,,,qgths,"[""q"",""g"",""t"",""h"",""s""]","[1.3145000000000095,2.0091999998092547,2.2825000000000273,2.6328999998569884,2.9356999998092874,3.5535000000000423]",1,QGTHS,6,0,6,0,1,,,,,,,,,,,,,,,,,,,,,,,,,,,,,,,,,,,,,,,,,,,,,,,,,,,,,,,,,,,,,,,,,,,,,,,,,,,,,,,,,,,
,,,,,,,,,6048b33e9bbc7bbfa6eeed32,25,Kobieta,2022-05-28_09h28.01.470,task,2021.1.4,Win32,60.06727535,628b806c463b948bc644b84f,6291cedd10dd9f0077eecd82,,,,,,0,0,0,0,1,"X V Q F H G B L J M P D K C T S W R N Z
",,,,,,,,,,,,,,,,,,,,,,,,,,,,,,,,,,,,,,,,,,,,,,,,,,,,,,,,,,,,,,,,,,,,,,,,,,,,,,,,,,,,,,,,,,,,,
,,,,,,,,,6048b33e9bbc7bbfa6eeed32,25,Kobieta,2022-05-28_09h28.01.470,task,2021.1.4,Win32,60.06727535,628b806c463b948bc644b84f,6291cedd10dd9f0077eecd82,,,,,,1,0,1,0,1,"X V Q F H G B L J M P D K C T S W R N Z
",,,,,,,,,,,,,,,,,,,,,,,,,,,,,,,,,,,,,,,,,,,,,,,,,,,,,,,,,,,,,,,,,,,,,,,,,,,,,,,,,,,,,,,,,,,,,
,,,,,,,,,6048b33e9bbc7bbfa6eeed32,25,Kobieta,2022-05-28_09h28.01.470,task,2021.1.4,Win32,60.06727535,628b806c463b948bc644b84f,6291cedd10dd9f0077eecd82,,,,,,2,0,2,0,1,"X V Q F H G B L J M P D K C T S W R N Z
",,,,,,,,,,,,,,,,,,,,,,,,,,,,,,,,,,,,,,,,,,,,,,,,,,,,,,,,,,,,,,,,,,,,,,,,,,,,,,,,,,,,,,,,,,,,,
,,,,,,,,,6048b33e9bbc7bbfa6eeed32,25,Kobieta,2022-05-28_09h28.01.470,task,2021.1.4,Win32,60.06727535,628b806c463b948bc644b84f,6291cedd10dd9f0077eecd82,,,,,,3,0,3,0,1,"X V Q F H G B L J M P D K C T S W R N Z
",,,,,,,,,,,,,,,,,,,,,,,,,,,,,,,,,,,,,,,,,,,,,,,,,,,,,,,,,,,,,,,,,,,,,,,,,,,,,,,,,,,,,,,,,,,,,
,,,,,,,,,6048b33e9bbc7bbfa6eeed32,25,Kobieta,2022-05-28_09h28.01.470,task,2021.1.4,Win32,60.06727535,628b806c463b948bc644b84f,6291cedd10dd9f0077eecd82,,,,,,4,0,4,0,1,"X V Q F H G B L J M P D K C T S W R N Z
",,,,,,,,,,,,,,,,,,,,,,,,,,,,,,,,,,,,,,,,,,,,,,,,,,,,,,,,,,,,,,,,,,,,,,,,,,,,,,,,,,,,,,,,,,,,,
,,,,,,,,,6048b33e9bbc7bbfa6eeed32,25,Kobieta,2022-05-28_09h28.01.470,task,2021.1.4,Win32,60.06727535,628b806c463b948bc644b84f,6291cedd10dd9f0077eecd82,,,,,,,,,,,,knrjz,"[""k"",""n"",""r"",""j"",""z""]","[1.2635999999046135,1.4981999998092306,4.666199999809237,5.106999999999971,5.440499999999986,6.173199999809242]",0,"KNRJZ
",7,0,7,0,1,,,,,,,,,,,,,,,,,,,,,,,,,,,,,,,,,,,,,,,,,,,,,,,,,,,,,,,,,,,,,,,,,,,,,,,,,,,,,,,,,,,
,,,,,,,,,6048b33e9bbc7bbfa6eeed32,25,Kobieta,2022-05-28_09h28.01.470,task,2021.1.4,Win32,60.06727535,628b806c463b948bc644b84f,6291cedd10dd9f0077eecd82,,,,,,0,0,0,0,1,"X V Q F H G B L J M P D K C T S W R N Z
",,,,,,,,,,,,,,,,,,,,,,,,,,,,,,,,,,,,,,,,,,,,,,,,,,,,,,,,,,,,,,,,,,,,,,,,,,,,,,,,,,,,,,,,,,,,,
,,,,,,,,,6048b33e9bbc7bbfa6eeed32,25,Kobieta,2022-05-28_09h28.01.470,task,2021.1.4,Win32,60.06727535,628b806c463b948bc644b84f,6291cedd10dd9f0077eecd82,,,,,,1,0,1,0,1,"X V Q F H G B L J M P D K C T S W R N Z
",,,,,,,,,,,,,,,,,,,,,,,,,,,,,,,,,,,,,,,,,,,,,,,,,,,,,,,,,,,,,,,,,,,,,,,,,,,,,,,,,,,,,,,,,,,,,
,,,,,,,,,6048b33e9bbc7bbfa6eeed32,25,Kobieta,2022-05-28_09h28.01.470,task,2021.1.4,Win32,60.06727535,628b806c463b948bc644b84f,6291cedd10dd9f0077eecd82,,,,,,2,0,2,0,1,"X V Q F H G B L J M P D K C T S W R N Z
",,,,,,,,,,,,,,,,,,,,,,,,,,,,,,,,,,,,,,,,,,,,,,,,,,,,,,,,,,,,,,,,,,,,,,,,,,,,,,,,,,,,,,,,,,,,,
,,,,,,,,,6048b33e9bbc7bbfa6eeed32,25,Kobieta,2022-05-28_09h28.01.470,task,2021.1.4,Win32,60.06727535,628b806c463b948bc644b84f,6291cedd10dd9f0077eecd82,,,,,,3,0,3,0,1,"X V Q F H G B L J M P D K C T S W R N Z
",,,,,,,,,,,,,,,,,,,,,,,,,,,,,,,,,,,,,,,,,,,,,,,,,,,,,,,,,,,,,,,,,,,,,,,,,,,,,,,,,,,,,,,,,,,,,
,,,,,,,,,6048b33e9bbc7bbfa6eeed32,25,Kobieta,2022-05-28_09h28.01.470,task,2021.1.4,Win32,60.06727535,628b806c463b948bc644b84f,6291cedd10dd9f0077eecd82,,,,,,4,0,4,0,1,"X V Q F H G B L J M P D K C T S W R N Z
",,,,,,,,,,,,,,,,,,,,,,,,,,,,,,,,,,,,,,,,,,,,,,,,,,,,,,,,,,,,,,,,,,,,,,,,,,,,,,,,,,,,,,,,,,,,,
,,,,,,,,,6048b33e9bbc7bbfa6eeed32,25,Kobieta,2022-05-28_09h28.01.470,task,2021.1.4,Win32,60.06727535,628b806c463b948bc644b84f,6291cedd10dd9f0077eecd82,,,,,,,,,,,,fksll,"[""f"",""k"",""s"",""l"",""l""]","[1.8504000000953624,2.25029999995229,2.6295000000000073,3.1577000000476687,3.3034999999999854,3.945400000095333]",1,FKSLL,8,0,8,0,1,,,,,,,,,,,,,,,,,,,,,,,,,,,,,,,,,,,,,,,,,,,,,,,,,,,,,,,,,,,,,,,,,,,,,,,,,,,,,,,,,,,
,,,,,,,,,6048b33e9bbc7bbfa6eeed32,25,Kobieta,2022-05-28_09h28.01.470,task,2021.1.4,Win32,60.06727535,628b806c463b948bc644b84f,6291cedd10dd9f0077eecd82,,,,,,0,0,0,0,1,"X V Q F H G B L J M P D K C T S W R N Z
",,,,,,,,,,,,,,,,,,,,,,,,,,,,,,,,,,,,,,,,,,,,,,,,,,,,,,,,,,,,,,,,,,,,,,,,,,,,,,,,,,,,,,,,,,,,,
,,,,,,,,,6048b33e9bbc7bbfa6eeed32,25,Kobieta,2022-05-28_09h28.01.470,task,2021.1.4,Win32,60.06727535,628b806c463b948bc644b84f,6291cedd10dd9f0077eecd82,,,,,,1,0,1,0,1,"X V Q F H G B L J M P D K C T S W R N Z
",,,,,,,,,,,,,,,,,,,,,,,,,,,,,,,,,,,,,,,,,,,,,,,,,,,,,,,,,,,,,,,,,,,,,,,,,,,,,,,,,,,,,,,,,,,,,
,,,,,,,,,6048b33e9bbc7bbfa6eeed32,25,Kobieta,2022-05-28_09h28.01.470,task,2021.1.4,Win32,60.06727535,628b806c463b948bc644b84f,6291cedd10dd9f0077eecd82,,,,,,2,0,2,0,1,"X V Q F H G B L J M P D K C T S W R N Z
",,,,,,,,,,,,,,,,,,,,,,,,,,,,,,,,,,,,,,,,,,,,,,,,,,,,,,,,,,,,,,,,,,,,,,,,,,,,,,,,,,,,,,,,,,,,,
,,,,,,,,,6048b33e9bbc7bbfa6eeed32,25,Kobieta,2022-05-28_09h28.01.470,task,2021.1.4,Win32,60.06727535,628b806c463b948bc644b84f,6291cedd10dd9f0077eecd82,,,,,,3,0,3,0,1,"X V Q F H G B L J M P D K C T S W R N Z
",,,,,,,,,,,,,,,,,,,,,,,,,,,,,,,,,,,,,,,,,,,,,,,,,,,,,,,,,,,,,,,,,,,,,,,,,,,,,,,,,,,,,,,,,,,,,
,,,,,,,,,6048b33e9bbc7bbfa6eeed32,25,Kobieta,2022-05-28_09h28.01.470,task,2021.1.4,Win32,60.06727535,628b806c463b948bc644b84f,6291cedd10dd9f0077eecd82,,,,,,4,0,4,0,1,"X V Q F H G B L J M P D K C T S W R N Z
",,,,,,,,,,,,,,,,,,,,,,,,,,,,,,,,,,,,,,,,,,,,,,,,,,,,,,,,,,,,,,,,,,,,,,,,,,,,,,,,,,,,,,,,,,,,,
,,,,,,,,,6048b33e9bbc7bbfa6eeed32,25,Kobieta,2022-05-28_09h28.01.470,task,2021.1.4,Win32,60.06727535,628b806c463b948bc644b84f,6291cedd10dd9f0077eecd82,,,,,,5,0,5,0,1,"X V Q F H G B L J M P D K C T S W R N Z
",,,,,,,,,,,,,,,,,,,,,,,,,,,,,,,,,,,,,,,,,,,,,,,,,,,,,,,,,,,,,,,,,,,,,,,,,,,,,,,,,,,,,,,,,,,,,
,,,,,,,,,6048b33e9bbc7bbfa6eeed32,25,Kobieta,2022-05-28_09h28.01.470,task,2021.1.4,Win32,60.06727535,628b806c463b948bc644b84f,6291cedd10dd9f0077eecd82,,,,,,,,,,,,svdgcw,"[""s"",""v"",""d"",""g"",""c"",""w""]","[1.3157999999523327,1.8640999999046244,2.3046999998092588,3.2888999998569943,3.555499999999995,3.846699999809289,4.601299999952346]",1,SVDGCW,9,0,9,0,1,,,,,,,,,,,,,,,,,,,,,,,,,,,,,,,,,,,,,,,,,,,,,,,,,,,,,,,,,,,,,,,,,,,,,,,,,,,,,,,,,,,
,,,,,,,,,6048b33e9bbc7bbfa6eeed32,25,Kobieta,2022-05-28_09h28.01.470,task,2021.1.4,Win32,60.06727535,628b806c463b948bc644b84f,6291cedd10dd9f0077eecd82,,,,,,0,0,0,0,1,"X V Q F H G B L J M P D K C T S W R N Z
",,,,,,,,,,,,,,,,,,,,,,,,,,,,,,,,,,,,,,,,,,,,,,,,,,,,,,,,,,,,,,,,,,,,,,,,,,,,,,,,,,,,,,,,,,,,,
,,,,,,,,,6048b33e9bbc7bbfa6eeed32,25,Kobieta,2022-05-28_09h28.01.470,task,2021.1.4,Win32,60.06727535,628b806c463b948bc644b84f,6291cedd10dd9f0077eecd82,,,,,,1,0,1,0,1,"X V Q F H G B L J M P D K C T S W R N Z
",,,,,,,,,,,,,,,,,,,,,,,,,,,,,,,,,,,,,,,,,,,,,,,,,,,,,,,,,,,,,,,,,,,,,,,,,,,,,,,,,,,,,,,,,,,,,
,,,,,,,,,6048b33e9bbc7bbfa6eeed32,25,Kobieta,2022-05-28_09h28.01.470,task,2021.1.4,Win32,60.06727535,628b806c463b948bc644b84f,6291cedd10dd9f0077eecd82,,,,,,2,0,2,0,1,"X V Q F H G B L J M P D K C T S W R N Z
",,,,,,,,,,,,,,,,,,,,,,,,,,,,,,,,,,,,,,,,,,,,,,,,,,,,,,,,,,,,,,,,,,,,,,,,,,,,,,,,,,,,,,,,,,,,,
,,,,,,,,,6048b33e9bbc7bbfa6eeed32,25,Kobieta,2022-05-28_09h28.01.470,task,2021.1.4,Win32,60.06727535,628b806c463b948bc644b84f,6291cedd10dd9f0077eecd82,,,,,,3,0,3,0,1,"X V Q F H G B L J M P D K C T S W R N Z
",,,,,,,,,,,,,,,,,,,,,,,,,,,,,,,,,,,,,,,,,,,,,,,,,,,,,,,,,,,,,,,,,,,,,,,,,,,,,,,,,,,,,,,,,,,,,
,,,,,,,,,6048b33e9bbc7bbfa6eeed32,25,Kobieta,2022-05-28_09h28.01.470,task,2021.1.4,Win32,60.06727535,628b806c463b948bc644b84f,6291cedd10dd9f0077eecd82,,,,,,4,0,4,0,1,"X V Q F H G B L J M P D K C T S W R N Z
",,,,,,,,,,,,,,,,,,,,,,,,,,,,,,,,,,,,,,,,,,,,,,,,,,,,,,,,,,,,,,,,,,,,,,,,,,,,,,,,,,,,,,,,,,,,,
,,,,,,,,,6048b33e9bbc7bbfa6eeed32,25,Kobieta,2022-05-28_09h28.01.470,task,2021.1.4,Win32,60.06727535,628b806c463b948bc644b84f,6291cedd10dd9f0077eecd82,,,,,,5,0,5,0,1,"X V Q F H G B L J M P D K C T S W R N Z
",,,,,,,,,,,,,,,,,,,,,,,,,,,,,,,,,,,,,,,,,,,,,,,,,,,,,,,,,,,,,,,,,,,,,,,,,,,,,,,,,,,,,,,,,,,,,
,,,,,,,,,6048b33e9bbc7bbfa6eeed32,25,Kobieta,2022-05-28_09h28.01.470,task,2021.1.4,Win32,60.06727535,628b806c463b948bc644b84f,6291cedd10dd9f0077eecd82,,,,,,,,,,,,dlksmh,"[""d"",""l"",""k"",""s"",""m"",""h""]","[1.064400000095361,1.6593000001907399,1.9231000001430516,2.3178000001907435,2.7971000001430184,4.1734000000953415,4.549900000095363]",1,DLKSMH,10,0,10,0,1,,,,,,,,,,,,,,,,,,,,,,,,,,,,,,,,,,,,,,,,,,,,,,,,,,,,,,,,,,,,,,,,,,,,,,,,,,,,,,,,,,,
,,,,,,,,,6048b33e9bbc7bbfa6eeed32,25,Kobieta,2022-05-28_09h28.01.470,task,2021.1.4,Win32,60.06727535,628b806c463b948bc644b84f,6291cedd10dd9f0077eecd82,,,,,,0,0,0,0,1,"X V Q F H G B L J M P D K C T S W R N Z
",,,,,,,,,,,,,,,,,,,,,,,,,,,,,,,,,,,,,,,,,,,,,,,,,,,,,,,,,,,,,,,,,,,,,,,,,,,,,,,,,,,,,,,,,,,,,
,,,,,,,,,6048b33e9bbc7bbfa6eeed32,25,Kobieta,2022-05-28_09h28.01.470,task,2021.1.4,Win32,60.06727535,628b806c463b948bc644b84f,6291cedd10dd9f0077eecd82,,,,,,1,0,1,0,1,"X V Q F H G B L J M P D K C T S W R N Z
",,,,,,,,,,,,,,,,,,,,,,,,,,,,,,,,,,,,,,,,,,,,,,,,,,,,,,,,,,,,,,,,,,,,,,,,,,,,,,,,,,,,,,,,,,,,,
,,,,,,,,,6048b33e9bbc7bbfa6eeed32,25,Kobieta,2022-05-28_09h28.01.470,task,2021.1.4,Win32,60.06727535,628b806c463b948bc644b84f,6291cedd10dd9f0077eecd82,,,,,,2,0,2,0,1,"X V Q F H G B L J M P D K C T S W R N Z
",,,,,,,,,,,,,,,,,,,,,,,,,,,,,,,,,,,,,,,,,,,,,,,,,,,,,,,,,,,,,,,,,,,,,,,,,,,,,,,,,,,,,,,,,,,,,
,,,,,,,,,6048b33e9bbc7bbfa6eeed32,25,Kobieta,2022-05-28_09h28.01.470,task,2021.1.4,Win32,60.06727535,628b806c463b948bc644b84f,6291cedd10dd9f0077eecd82,,,,,,3,0,3,0,1,"X V Q F H G B L J M P D K C T S W R N Z
",,,,,,,,,,,,,,,,,,,,,,,,,,,,,,,,,,,,,,,,,,,,,,,,,,,,,,,,,,,,,,,,,,,,,,,,,,,,,,,,,,,,,,,,,,,,,
,,,,,,,,,6048b33e9bbc7bbfa6eeed32,25,Kobieta,2022-05-28_09h28.01.470,task,2021.1.4,Win32,60.06727535,628b806c463b948bc644b84f,6291cedd10dd9f0077eecd82,,,,,,4,0,4,0,1,"X V Q F H G B L J M P D K C T S W R N Z
",,,,,,,,,,,,,,,,,,,,,,,,,,,,,,,,,,,,,,,,,,,,,,,,,,,,,,,,,,,,,,,,,,,,,,,,,,,,,,,,,,,,,,,,,,,,,
,,,,,,,,,6048b33e9bbc7bbfa6eeed32,25,Kobieta,2022-05-28_09h28.01.470,task,2021.1.4,Win32,60.06727535,628b806c463b948bc644b84f,6291cedd10dd9f0077eecd82,,,,,,5,0,5,0,1,"X V Q F H G B L J M P D K C T S W R N Z
",,,,,,,,,,,,,,,,,,,,,,,,,,,,,,,,,,,,,,,,,,,,,,,,,,,,,,,,,,,,,,,,,,,,,,,,,,,,,,,,,,,,,,,,,,,,,
,,,,,,,,,6048b33e9bbc7bbfa6eeed32,25,Kobieta,2022-05-28_09h28.01.470,task,2021.1.4,Win32,60.06727535,628b806c463b948bc644b84f,6291cedd10dd9f0077eecd82,,,,,,6,0,6,0,1,"X V Q F H G B L J M P D K C T S W R N Z
",,,,,,,,,,,,,,,,,,,,,,,,,,,,,,,,,,,,,,,,,,,,,,,,,,,,,,,,,,,,,,,,,,,,,,,,,,,,,,,,,,,,,,,,,,,,,
,,,,,,,,,6048b33e9bbc7bbfa6eeed32,25,Kobieta,2022-05-28_09h28.01.470,task,2021.1.4,Win32,60.06727535,628b806c463b948bc644b84f,6291cedd10dd9f0077eecd82,,,,,,,,,,,,zwrvdkw,"[""z"",""w"",""r"",""v"",""d"",""k"",""w""]","[1.1809000000953915,1.630700000047682,2.388500000000022,3.213400000095362,6.099099999904638,9.778999999999996,10.121599999904618,10.831900000095345]",0,"Z
WRVKRD",11,0,11,0,1,,,,,,,,,,,,,,,,,,,,,,,,,,,,,,,,,,,,,,,,,,,,,,,,,,,,,,,,,,,,,,,,,,,,,,,,,,,,,,,,,,,
,,,,,,,,,6048b33e9bbc7bbfa6eeed32,25,Kobieta,2022-05-28_09h28.01.470,task,2021.1.4,Win32,60.06727535,628b806c463b948bc644b84f,6291cedd10dd9f0077eecd82,,,,,,0,0,0,0,1,"X V Q F H G B L J M P D K C T S W R N Z
",,,,,,,,,,,,,,,,,,,,,,,,,,,,,,,,,,,,,,,,,,,,,,,,,,,,,,,,,,,,,,,,,,,,,,,,,,,,,,,,,,,,,,,,,,,,,
,,,,,,,,,6048b33e9bbc7bbfa6eeed32,25,Kobieta,2022-05-28_09h28.01.470,task,2021.1.4,Win32,60.06727535,628b806c463b948bc644b84f,6291cedd10dd9f0077eecd82,,,,,,1,0,1,0,1,"X V Q F H G B L J M P D K C T S W R N Z
",,,,,,,,,,,,,,,,,,,,,,,,,,,,,,,,,,,,,,,,,,,,,,,,,,,,,,,,,,,,,,,,,,,,,,,,,,,,,,,,,,,,,,,,,,,,,
,,,,,,,,,6048b33e9bbc7bbfa6eeed32,25,Kobieta,2022-05-28_09h28.01.470,task,2021.1.4,Win32,60.06727535,628b806c463b948bc644b84f,6291cedd10dd9f0077eecd82,,,,,,2,0,2,0,1,"X V Q F H G B L J M P D K C T S W R N Z
",,,,,,,,,,,,,,,,,,,,,,,,,,,,,,,,,,,,,,,,,,,,,,,,,,,,,,,,,,,,,,,,,,,,,,,,,,,,,,,,,,,,,,,,,,,,,
,,,,,,,,,6048b33e9bbc7bbfa6eeed32,25,Kobieta,2022-05-28_09h28.01.470,task,2021.1.4,Win32,60.06727535,628b806c463b948bc644b84f,6291cedd10dd9f0077eecd82,,,,,,3,0,3,0,1,"X V Q F H G B L J M P D K C T S W R N Z
",,,,,,,,,,,,,,,,,,,,,,,,,,,,,,,,,,,,,,,,,,,,,,,,,,,,,,,,,,,,,,,,,,,,,,,,,,,,,,,,,,,,,,,,,,,,,
,,,,,,,,,6048b33e9bbc7bbfa6eeed32,25,Kobieta,2022-05-28_09h28.01.470,task,2021.1.4,Win32,60.06727535,628b806c463b948bc644b84f,6291cedd10dd9f0077eecd82,,,,,,4,0,4,0,1,"X V Q F H G B L J M P D K C T S W R N Z
",,,,,,,,,,,,,,,,,,,,,,,,,,,,,,,,,,,,,,,,,,,,,,,,,,,,,,,,,,,,,,,,,,,,,,,,,,,,,,,,,,,,,,,,,,,,,
,,,,,,,,,6048b33e9bbc7bbfa6eeed32,25,Kobieta,2022-05-28_09h28.01.470,task,2021.1.4,Win32,60.06727535,628b806c463b948bc644b84f,6291cedd10dd9f0077eecd82,,,,,,5,0,5,0,1,"X V Q F H G B L J M P D K C T S W R N Z
",,,,,,,,,,,,,,,,,,,,,,,,,,,,,,,,,,,,,,,,,,,,,,,,,,,,,,,,,,,,,,,,,,,,,,,,,,,,,,,,,,,,,,,,,,,,,
,,,,,,,,,6048b33e9bbc7bbfa6eeed32,25,Kobieta,2022-05-28_09h28.01.470,task,2021.1.4,Win32,60.06727535,628b806c463b948bc644b84f,6291cedd10dd9f0077eecd82,,,,,,6,0,6,0,1,"X V Q F H G B L J M P D K C T S W R N Z
",,,,,,,,,,,,,,,,,,,,,,,,,,,,,,,,,,,,,,,,,,,,,,,,,,,,,,,,,,,,,,,,,,,,,,,,,,,,,,,,,,,,,,,,,,,,,
,,,,,,,,,6048b33e9bbc7bbfa6eeed32,25,Kobieta,2022-05-28_09h28.01.470,task,2021.1.4,Win32,60.06727535,628b806c463b948bc644b84f,6291cedd10dd9f0077eecd82,,,,,,,,,,,,dsxbmxs,"[""d"",""s"",""x"",""b"",""m"",""x"",""s""]","[1.4710000000000036,1.7640999999046016,1.9832000000476455,2.616099999904634,2.88740000009534,3.3302000000476824,3.563299999952278,4.363599999904636]",0,DSXBXMB,12,0,12,0,1,,,,,,,,,,,,,,,,,,,,,,,,,,,,,,,,,,,,,,,,,,,,,,,,,,,,,,,,,,,,,,,,,,,,,,,,,,,,,,,,,,,
,,,,,,,,,6048b33e9bbc7bbfa6eeed32,25,Kobieta,2022-05-28_09h28.01.470,task,2021.1.4,Win32,60.06727535,628b806c463b948bc644b84f,6291cedd10dd9f0077eecd82,,,,,,0,0,0,0,1,"X V Q F H G B L J M P D K C T S W R N Z
",,,,,,,,,,,,,,,,,,,,,,,,,,,,,,,,,,,,,,,,,,,,,,,,,,,,,,,,,,,,,,,,,,,,,,,,,,,,,,,,,,,,,,,,,,,,,
,,,,,,,,,6048b33e9bbc7bbfa6eeed32,25,Kobieta,2022-05-28_09h28.01.470,task,2021.1.4,Win32,60.06727535,628b806c463b948bc644b84f,6291cedd10dd9f0077eecd82,,,,,,1,0,1,0,1,"X V Q F H G B L J M P D K C T S W R N Z
",,,,,,,,,,,,,,,,,,,,,,,,,,,,,,,,,,,,,,,,,,,,,,,,,,,,,,,,,,,,,,,,,,,,,,,,,,,,,,,,,,,,,,,,,,,,,
,,,,,,,,,6048b33e9bbc7bbfa6eeed32,25,Kobieta,2022-05-28_09h28.01.470,task,2021.1.4,Win32,60.06727535,628b806c463b948bc644b84f,6291cedd10dd9f0077eecd82,,,,,,2,0,2,0,1,"X V Q F H G B L J M P D K C T S W R N Z
",,,,,,,,,,,,,,,,,,,,,,,,,,,,,,,,,,,,,,,,,,,,,,,,,,,,,,,,,,,,,,,,,,,,,,,,,,,,,,,,,,,,,,,,,,,,,
,,,,,,,,,6048b33e9bbc7bbfa6eeed32,25,Kobieta,2022-05-28_09h28.01.470,task,2021.1.4,Win32,60.06727535,628b806c463b948bc644b84f,6291cedd10dd9f0077eecd82,,,,,,3,0,3,0,1,"X V Q F H G B L J M P D K C T S W R N Z
",,,,,,,,,,,,,,,,,,,,,,,,,,,,,,,,,,,,,,,,,,,,,,,,,,,,,,,,,,,,,,,,,,,,,,,,,,,,,,,,,,,,,,,,,,,,,
,,,,,,,,,6048b33e9bbc7bbfa6eeed32,25,Kobieta,2022-05-28_09h28.01.470,task,2021.1.4,Win32,60.06727535,628b806c463b948bc644b84f,6291cedd10dd9f0077eecd82,,,,,,4,0,4,0,1,"X V Q F H G B L J M P D K C T S W R N Z
",,,,,,,,,,,,,,,,,,,,,,,,,,,,,,,,,,,,,,,,,,,,,,,,,,,,,,,,,,,,,,,,,,,,,,,,,,,,,,,,,,,,,,,,,,,,,
,,,,,,,,,6048b33e9bbc7bbfa6eeed32,25,Kobieta,2022-05-28_09h28.01.470,task,2021.1.4,Win32,60.06727535,628b806c463b948bc644b84f,6291cedd10dd9f0077eecd82,,,,,,5,0,5,0,1,"X V Q F H G B L J M P D K C T S W R N Z
",,,,,,,,,,,,,,,,,,,,,,,,,,,,,,,,,,,,,,,,,,,,,,,,,,,,,,,,,,,,,,,,,,,,,,,,,,,,,,,,,,,,,,,,,,,,,
,,,,,,,,,6048b33e9bbc7bbfa6eeed32,25,Kobieta,2022-05-28_09h28.01.470,task,2021.1.4,Win32,60.06727535,628b806c463b948bc644b84f,6291cedd10dd9f0077eecd82,,,,,,6,0,6,0,1,"X V Q F H G B L J M P D K C T S W R N Z
",,,,,,,,,,,,,,,,,,,,,,,,,,,,,,,,,,,,,,,,,,,,,,,,,,,,,,,,,,,,,,,,,,,,,,,,,,,,,,,,,,,,,,,,,,,,,
,,,,,,,,,6048b33e9bbc7bbfa6eeed32,25,Kobieta,2022-05-28_09h28.01.470,task,2021.1.4,Win32,60.06727535,628b806c463b948bc644b84f,6291cedd10dd9f0077eecd82,,,,,,,,,,,,vspgzlm,"[""v"",""s"",""p"",""g"",""z"",""l"",""m""]","[2.5145999999046467,3.005299999952342,3.5155000000000314,3.9632000000476637,4.296299999952339,4.848299999952303,5.02009999990463,5.329099999904656]",0,"VSPGZ
LW",13,0,13,0,1,,,,,,,,,,,,,,,,,,,,,,,,,,,,,,,,,,,,,,,,,,,,,,,,,,,,,,,,,,,,,,,,,,,,,,,,,,,,,,,,,,,
,,,,,,,,,6048b33e9bbc7bbfa6eeed32,25,Kobieta,2022-05-28_09h28.01.470,task,2021.1.4,Win32,60.06727535,628b806c463b948bc644b84f,6291cedd10dd9f0077eecd82,,,,,,,,,,,,,,,,,,,,,,space,7.9982,0,"[""0""]",1,[3.6239000000953183],[3.6239000000953183],0,0,0,0,1,Practice,1,(3x3) -  9,0,,,,,,,,,,,,,,,,,,,,,,,,,,,,,,,,,,,,,,,,,,,,,,,,,,,,,,,,,,,,,,,,,,,
,,,,,,,,,6048b33e9bbc7bbfa6eeed32,25,Kobieta,2022-05-28_09h28.01.470,task,2021.1.4,Win32,60.06727535,628b806c463b948bc644b84f,6291cedd10dd9f0077eecd82,,,,,,,,,,,,,,,,,,,,,,,,2,"[""2""]",1,[1.8717000000476673],"[3.6239000000953183,1.8717000000476673]",0,1,1,2,1,Practice,3,(4x4) - 14,2,,,,,,,,,,,,,,,,,,,,,,,,,,,,,,,,,,,,,,,,,,,,,,,,,,,,,,,,,,,,,,,,,,,
,,,,,,,,,6048b33e9bbc7bbfa6eeed32,25,Kobieta,2022-05-28_09h28.01.470,task,2021.1.4,Win32,60.06727535,628b806c463b948bc644b84f,6291cedd10dd9f0077eecd82,,,,,,,,,,,,,,,,,,,,,,,,9,"[""9""]",1,[2.3132000000476864],"[3.6239000000953183,1.8717000000476673,2.3132000000476864]",0,2,2,9,1,Practice,10,(20/2) - 1,9,,,,,,,,,,,,,,,,,,,,,,,,,,,,,,,,,,,,,,,,,,,,,,,,,,,,,,,,,,,,,,,,,,,
,,,,,,,,,6048b33e9bbc7bbfa6eeed32,25,Kobieta,2022-05-28_09h28.01.470,task,2021.1.4,Win32,60.06727535,628b806c463b948bc644b84f,6291cedd10dd9f0077eecd82,,,,,,,,,,,,,,,,,,,,,,,,3,"[""3""]",1,[2.7669000000954043],"[3.6239000000953183,1.8717000000476673,2.3132000000476864,2.7669000000954043]",0,3,3,3,1,Practice,4,(8/4) + 1,3,,,,,,,,,,,,,,,,,,,,,,,,,,,,,,,,,,,,,,,,,,,,,,,,,,,,,,,,,,,,,,,,,,,
,,,,,,,,,6048b33e9bbc7bbfa6eeed32,25,Kobieta,2022-05-28_09h28.01.470,task,2021.1.4,Win32,60.06727535,628b806c463b948bc644b84f,6291cedd10dd9f0077eecd82,,,,,,,,,,,,,,,,,,,,,,,,1,"[""1""]",1,[1.4967000000476673],"[3.6239000000953183,1.8717000000476673,2.3132000000476864,2.7669000000954043,1.4967000000476673]",0,4,4,1,1,Practice,2,(4x4) - 15,1,,,,,,,,,,,,,,,,,,,,,,,,,,,,,,,,,,,,,,,,,,,,,,,,,,,,,,,,,,,,,,,,,,,
,,,,,,,,,6048b33e9bbc7bbfa6eeed32,25,Kobieta,2022-05-28_09h28.01.470,task,2021.1.4,Win32,60.06727535,628b806c463b948bc644b84f,6291cedd10dd9f0077eecd82,,,,,,,,,,,,,,,,,,,,,,,,7,"[""7""]",1,[1.855299999952308],"[3.6239000000953183,1.8717000000476673,2.3132000000476864,2.7669000000954043,1.4967000000476673,1.855299999952308]",0,5,5,7,1,Practice,8,(5x5) - 18,7,,,,,,,,,,,,,,,,,,,,,,,,,,,,,,,,,,,,,,,,,,,,,,,,,,,,,,,,,,,,,,,,,,,
,,,,,,,,,6048b33e9bbc7bbfa6eeed32,25,Kobieta,2022-05-28_09h28.01.470,task,2021.1.4,Win32,60.06727535,628b806c463b948bc644b84f,6291cedd10dd9f0077eecd82,,,,,,,,,,,,,,,,,,,,,,,,6,"[""6""]",1,[1.5592000000476673],"[3.6239000000953183,1.8717000000476673,2.3132000000476864,2.7669000000954043,1.4967000000476673,1.855299999952308,1.5592000000476673]",0,6,6,6,1,Practice,7,(25/5) + 1,6,,,,,,,,,,,,,,,,,,,,,,,,,,,,,,,,,,,,,,,,,,,,,,,,,,,,,,,,,,,,,,,,,,,
,,,,,,,,,6048b33e9bbc7bbfa6eeed32,25,Kobieta,2022-05-28_09h28.01.470,task,2021.1.4,Win32,60.06727535,628b806c463b948bc644b84f,6291cedd10dd9f0077eecd82,,,,,,,,,,,,,,,,,,,,,,,,5,"[""5""]",1,[2.480799999952353],"[3.6239000000953183,1.8717000000476673,2.3132000000476864,2.7669000000954043,1.4967000000476673,1.855299999952308,1.5592000000476673,2.480799999952353]",0,7,7,5,1,Practice,6,(4/2) + 3,5,,,,,,,,,,,,,,,,,,,,,,,,,,,,,,,,,,,,,,,,,,,,,,,,,,,,,,,,,,,,,,,,,,,
,,,,,,,,,6048b33e9bbc7bbfa6eeed32,25,Kobieta,2022-05-28_09h28.01.470,task,2021.1.4,Win32,60.06727535,628b806c463b948bc644b84f,6291cedd10dd9f0077eecd82,,,,,,,,,,,,,,,,,,,,,,,,8,"[""8""]",1,[1.9884999999999877],"[3.6239000000953183,1.8717000000476673,2.3132000000476864,2.7669000000954043,1.4967000000476673,1.855299999952308,1.5592000000476673,2.480799999952353,1.9884999999999877]",0,8,8,8,1,Practice,9,(3x3) - 1,8,,,,,,,,,,,,,,,,,,,,,,,,,,,,,,,,,,,,,,,,,,,,,,,,,,,,,,,,,,,,,,,,,,,
,,,,,,,,,6048b33e9bbc7bbfa6eeed32,25,Kobieta,2022-05-28_09h28.01.470,task,2021.1.4,Win32,60.06727535,628b806c463b948bc644b84f,6291cedd10dd9f0077eecd82,,,,,,,,,,,,,,,,,,,,,,,,4,"[""4""]",1,[1.8684000000953347],"[3.6239000000953183,1.8717000000476673,2.3132000000476864,2.7669000000954043,1.4967000000476673,1.855299999952308,1.5592000000476673,2.480799999952353,1.9884999999999877,1.8684000000953347]",0,9,9,4,1,Practice,5,(2x6) - 8,4,,,,,,,,,,,,,,,,,,,,,,,,,,,,,,,,,,,,,,,,,,,,,,,,,,,,,,,,,,,,,,,,,,,
,,,,,,,,,6048b33e9bbc7bbfa6eeed32,25,Kobieta,2022-05-28_09h28.01.470,task,2021.1.4,Win32,60.06727535,628b806c463b948bc644b84f,6291cedd10dd9f0077eecd82,,,,,,,,,,,,,,,,,,,,,,,,,,,,,,,,,,,,,,1,21.8246,1.454973333,9.016367006,0.775300673,3.45524907,space,1.7543,0,0,0,0,1,,,,,,,,,,,,,,,,,,,,,,,,,,,,,,,,,,,,,,,,,,,,,,,,,,,,,,
,,,,,,,,,6048b33e9bbc7bbfa6eeed32,25,Kobieta,2022-05-28_09h28.01.470,task,2021.1.4,Win32,60.06727535,628b806c463b948bc644b84f,6291cedd10dd9f0077eecd82,,,,,,,,,,,,,,,,,,,,,,,,,,,,,,,,,,Practice,2,(4x4) - 15,1,,,,,,,,,,,,,,space,10.6917,,0,0,0,0,0,1,1,,,,,,,,,,,,,,,,,,,,,,,,,,,,,,,,,,,,,,,,,,,,
,,,,,,,,,6048b33e9bbc7bbfa6eeed32,25,Kobieta,2022-05-28_09h28.01.470,task,2021.1.4,Win32,60.06727535,628b806c463b948bc644b84f,6291cedd10dd9f0077eecd82,,,,,,,,,,,,,,,,,,,,,,,,7,,,,,,,,,,Practice,8,(5x5) - 18,7,,,,,,,,,,,,,,,,"[""7""]",1,1,0,1,1,7,1,[1.8973999998569298],,,,,,,,,,,,,,,,,,,,,,,,,,,,,,,,,,,,,,,,,,,
,,,,,,,,,6048b33e9bbc7bbfa6eeed32,25,Kobieta,2022-05-28_09h28.01.470,task,2021.1.4,Win32,60.06727535,628b806c463b948bc644b84f,6291cedd10dd9f0077eecd82,,,,,,,,,,,"X V Q F H G B L J M P D K C T S W R N Z
",,,,,,,,,,,,,,,,,,,,,,,,,,,,,,,,,,,,,,,,,,,,,,,,,,,0,0,0,0,1,,,,,,,,,,,,,,,,,,,,,,,,,,,,,,,,,,,,,,
,,,,,,,,,6048b33e9bbc7bbfa6eeed32,25,Kobieta,2022-05-28_09h28.01.470,task,2021.1.4,Win32,60.06727535,628b806c463b948bc644b84f,6291cedd10dd9f0077eecd82,,,,,,,,,,,,,,,,,,,,,,,,5,,,,,,,,,,Practice,6,(4/2) + 3,5,,,,,,,,,,,,,,,,"[""5""]",1,1,0,0,0,5,1,[1.7870999999047399],,,,,,,,,,,,,,,,,,,,,,,,,,,,,,,,,,,,,,,,,,,
,,,,,,,,,6048b33e9bbc7bbfa6eeed32,25,Kobieta,2022-05-28_09h28.01.470,task,2021.1.4,Win32,60.06727535,628b806c463b948bc644b84f,6291cedd10dd9f0077eecd82,,,,,,,,,,,"X V Q F H G B L J M P D K C T S W R N Z
",,,,,,,,,,,,,,,,,,,,,,,,,,,,,,,,,,,,,,,,,,,,,,,,,,,1,0,1,0,1,,,,,,,,,,,,,,,,,,,,,,,,,,,,,,,,,,,,,,
,,,,,,,,,6048b33e9bbc7bbfa6eeed32,25,Kobieta,2022-05-28_09h28.01.470,task,2021.1.4,Win32,60.06727535,628b806c463b948bc644b84f,6291cedd10dd9f0077eecd82,,,,,,,,,,,,,,,,,,,,,,,,,,,,,,,,,,,,,,,,,,,,,,,,,,,,,,,,,,,,,,,,,,,zn,"[""z"",""n""]",0,"[2.290200000047662,2.817299999952297,3.456299999952307]",1,0,0,0,0,1,,,,,,,,,,,,,,,,,,,,,,,,,,,,
,,,,,,,,,6048b33e9bbc7bbfa6eeed32,25,Kobieta,2022-05-28_09h28.01.470,task,2021.1.4,Win32,60.06727535,628b806c463b948bc644b84f,6291cedd10dd9f0077eecd82,,,,,,,,,,,,,,,,,,,,,,,,1,,,,,,,,,,Practice,2,(4x4) - 15,1,,,,,,,,,,,,,,,,"[""1""]",1,1,0,0,0,1,1,[1.2649000000953947],,,,,,,,,,,,,,,,,,,,,,,,,,,,,,,,,,,,,,,,,,,
,,,,,,,,,6048b33e9bbc7bbfa6eeed32,25,Kobieta,2022-05-28_09h28.01.470,task,2021.1.4,Win32,60.06727535,628b806c463b948bc644b84f,6291cedd10dd9f0077eecd82,,,,,,,,,,,"X V Q F H G B L J M P D K C T S W R N Z
",,,,,,,,,,,,,,,,,,,,,,,,,,,,,,,,,,,,,,,,,,,,,,,,,,,0,0,0,0,1,,,,,,,,,,,,,,,,,,,,,,,,,,,,,,,,,,,,,,
,,,,,,,,,6048b33e9bbc7bbfa6eeed32,25,Kobieta,2022-05-28_09h28.01.470,task,2021.1.4,Win32,60.06727535,628b806c463b948bc644b84f,6291cedd10dd9f0077eecd82,,,,,,,,,,,,,,,,,,,,,,,,7,,,,,,,,,,Practice,8,(5x5) - 18,7,,,,,,,,,,,,,,,,"[""7""]",1,1,0,0,0,7,1,[1.2752000000476755],,,,,,,,,,,,,,,,,,,,,,,,,,,,,,,,,,,,,,,,,,,
,,,,,,,,,6048b33e9bbc7bbfa6eeed32,25,Kobieta,2022-05-28_09h28.01.470,task,2021.1.4,Win32,60.06727535,628b806c463b948bc644b84f,6291cedd10dd9f0077eecd82,,,,,,,,,,,"X V Q F H G B L J M P D K C T S W R N Z
",,,,,,,,,,,,,,,,,,,,,,,,,,,,,,,,,,,,,,,,,,,,,,,,,,,1,0,1,0,1,,,,,,,,,,,,,,,,,,,,,,,,,,,,,,,,,,,,,,
,,,,,,,,,6048b33e9bbc7bbfa6eeed32,25,Kobieta,2022-05-28_09h28.01.470,task,2021.1.4,Win32,60.06727535,628b806c463b948bc644b84f,6291cedd10dd9f0077eecd82,,,,,,,,,,,,,,,,,,,,,,,,,,,,,,,,,,,,,,,,,,,,,,,,,,,,,,,,,,,,,,,,,,,cp,"[""c"",""p""]",0,"[1.7364999999999782,2.2206000001430084,2.5260000000000673]",1,1,0,1,0,1,,,,,,,,,,,,,,,,,,,,,,,,,,,,
,,,,,,,,,6048b33e9bbc7bbfa6eeed32,25,Kobieta,2022-05-28_09h28.01.470,task,2021.1.4,Win32,60.06727535,628b806c463b948bc644b84f,6291cedd10dd9f0077eecd82,,,,,,,,,,,,,,,,,,,,,,,,5,,,,,,,,,,Practice,6,(4/2) + 3,5,,,,,,,,,,,,,,,,"[""5""]",1,1,0,0,0,5,1,[1.6142999999523227],,,,,,,,,,,,,,,,,,,,,,,,,,,,,,,,,,,,,,,,,,,
,,,,,,,,,6048b33e9bbc7bbfa6eeed32,25,Kobieta,2022-05-28_09h28.01.470,task,2021.1.4,Win32,60.06727535,628b806c463b948bc644b84f,6291cedd10dd9f0077eecd82,,,,,,,,,,,"X V Q F H G B L J M P D K C T S W R N Z
",,,,,,,,,,,,,,,,,,,,,,,,,,,,,,,,,,,,,,,,,,,,,,,,,,,0,0,0,0,1,,,,,,,,,,,,,,,,,,,,,,,,,,,,,,,,,,,,,,
,,,,,,,,,6048b33e9bbc7bbfa6eeed32,25,Kobieta,2022-05-28_09h28.01.470,task,2021.1.4,Win32,60.06727535,628b806c463b948bc644b84f,6291cedd10dd9f0077eecd82,,,,,,,,,,,,,,,,,,,,,,,,3,,,,,,,,,,Practice,4,(8/4) + 1,3,,,,,,,,,,,,,,,,"[""3""]",1,1,0,0,0,3,1,[2.7067000000477037],,,,,,,,,,,,,,,,,,,,,,,,,,,,,,,,,,,,,,,,,,,
,,,,,,,,,6048b33e9bbc7bbfa6eeed32,25,Kobieta,2022-05-28_09h28.01.470,task,2021.1.4,Win32,60.06727535,628b806c463b948bc644b84f,6291cedd10dd9f0077eecd82,,,,,,,,,,,"X V Q F H G B L J M P D K C T S W R N Z
",,,,,,,,,,,,,,,,,,,,,,,,,,,,,,,,,,,,,,,,,,,,,,,,,,,1,0,1,0,1,,,,,,,,,,,,,,,,,,,,,,,,,,,,,,,,,,,,,,
,,,,,,,,,6048b33e9bbc7bbfa6eeed32,25,Kobieta,2022-05-28_09h28.01.470,task,2021.1.4,Win32,60.06727535,628b806c463b948bc644b84f,6291cedd10dd9f0077eecd82,,,,,,,,,,,,,,,,,,,,,,,,,,,,,,,,,,,,,,,,,,,,,,,,,,,,,,,,,,,,,,,,,,,lt,"[""l"",""t""]",0,"[1.7838999998569989,2.133299999952328,2.5940999999046426]",1,2,0,2,0,1,,,,,,,,,,,,,,,,,,,,,,,,,,,,
,,,,,,,,,6048b33e9bbc7bbfa6eeed32,25,Kobieta,2022-05-28_09h28.01.470,task,2021.1.4,Win32,60.06727535,628b806c463b948bc644b84f,6291cedd10dd9f0077eecd82,,,,,,,,,,,,,,,,,,,,,,,,3,,,,,,,,,,Task,35,(1x2) + 1,3,,,,,,,,,,,,,,,,,,1,,,,,,,,,,,,,,,,,,,,,,space,16.579,"[""3""]",1,[1.7665999999045425],0,0,0,34,1,,,,,,,,,,,,,,,,,,
,,,,,,,,,6048b33e9bbc7bbfa6eeed32,25,Kobieta,2022-05-28_09h28.01.470,task,2021.1.4,Win32,60.06727535,628b806c463b948bc644b84f,6291cedd10dd9f0077eecd82,,,,,,,,,,,"X V Q F H G B L J M P D K C T S W R N Z
",,,,,,,,,,,,,,,,,,,,,,,,,,,,,,,,,,,,,,,,,,,,,,,,,,,,,,,,,,,,,,,,,,,,,,,,,,,,0,0,0,0,1,,,,,,,,,,,,,
,,,,,,,,,6048b33e9bbc7bbfa6eeed32,25,Kobieta,2022-05-28_09h28.01.470,task,2021.1.4,Win32,60.06727535,628b806c463b948bc644b84f,6291cedd10dd9f0077eecd82,,,,,,,,,,,,,,,,,,,,,,,,3,,,,,,,,,,Task,20,(18/9) + 1,3,,,,,,,,,,,,,,,,,,1,,,,,,,,,,,,,,,,,,,,,,,,"[""3""]",1,[1.4365000000000236],0,0,0,19,1,,,,,,,,,,,,,,,,,,
,,,,,,,,,6048b33e9bbc7bbfa6eeed32,25,Kobieta,2022-05-28_09h28.01.470,task,2021.1.4,Win32,60.06727535,628b806c463b948bc644b84f,6291cedd10dd9f0077eecd82,,,,,,,,,,,"X V Q F H G B L J M P D K C T S W R N Z
",,,,,,,,,,,,,,,,,,,,,,,,,,,,,,,,,,,,,,,,,,,,,,,,,,,,,,,,,,,,,,,,,,,,,,,,,,,,1,0,1,0,1,,,,,,,,,,,,,
,,,,,,,,,6048b33e9bbc7bbfa6eeed32,25,Kobieta,2022-05-28_09h28.01.470,task,2021.1.4,Win32,60.06727535,628b806c463b948bc644b84f,6291cedd10dd9f0077eecd82,,,,,,,,,,,,,,,,,,,,,,,,,,,,,,,,,,,,,,,,,,,,,,,,,,,,,,,,,,,,,,,,,,,,,,,,,,,,,,,,,,,,,,,,,,,,zd,"[""z"",""d""]",0,"[1.322200000047701,1.6166000001430803,2.9099000000953765]",1,ZD,0,0,0,0,1,,
,,,,,,,,,6048b33e9bbc7bbfa6eeed32,25,Kobieta,2022-05-28_09h28.01.470,task,2021.1.4,Win32,60.06727535,628b806c463b948bc644b84f,6291cedd10dd9f0077eecd82,,,,,,,,,,,,,,,,,,,,,,,,,,,,,,,,,,Task,15,(3x7) - 13,8,,,,,,,,,,,,,,,,,,0,,,,,,,,,,,,,,,,,,,,,,,,,0,,0,0,0,14,1,,,,,,,,,,,,,,,,,,
,,,,,,,,,6048b33e9bbc7bbfa6eeed32,25,Kobieta,2022-05-28_09h28.01.470,task,2021.1.4,Win32,60.06727535,628b806c463b948bc644b84f,6291cedd10dd9f0077eecd82,,,,,,,,,,,,,,,,,,,,,,,,9,,,,,,,,,,Task,24,(2x2) + 5,9,,,,,,,,,,,,,,,,,,1,,,,,,,,,,,,,,,,,,,,,,,,"[""9""]",1,[2.296000000000049],0,1,1,23,1,,,,,,,,,,,,,,,,,,
,,,,,,,,,6048b33e9bbc7bbfa6eeed32,25,Kobieta,2022-05-28_09h28.01.470,task,2021.1.4,Win32,60.06727535,628b806c463b948bc644b84f,6291cedd10dd9f0077eecd82,,,,,,,,,,,"X V Q F H G B L J M P D K C T S W R N Z
",,,,,,,,,,,,,,,,,,,,,,,,,,,,,,,,,,,,,,,,,,,,,,,,,,,,,,,,,,,,,,,,,,,,,,,,,,,,0,0,0,0,1,,,,,,,,,,,,,
,,,,,,,,,6048b33e9bbc7bbfa6eeed32,25,Kobieta,2022-05-28_09h28.01.470,task,2021.1.4,Win32,60.06727535,628b806c463b948bc644b84f,6291cedd10dd9f0077eecd82,,,,,,,,,,,,,,,,,,,,,,,,1,,,,,,,,,,Task,1,(12/6) - 1,1,,,,,,,,,,,,,,,,,,1,,,,,,,,,,,,,,,,,,,,,,,,"[""1""]",1,[3.133000000000038],0,0,0,0,1,,,,,,,,,,,,,,,,,,
,,,,,,,,,6048b33e9bbc7bbfa6eeed32,25,Kobieta,2022-05-28_09h28.01.470,task,2021.1.4,Win32,60.06727535,628b806c463b948bc644b84f,6291cedd10dd9f0077eecd82,,,,,,,,,,,"X V Q F H G B L J M P D K C T S W R N Z
",,,,,,,,,,,,,,,,,,,,,,,,,,,,,,,,,,,,,,,,,,,,,,,,,,,,,,,,,,,,,,,,,,,,,,,,,,,,1,0,1,0,1,,,,,,,,,,,,,
,,,,,,,,,6048b33e9bbc7bbfa6eeed32,25,Kobieta,2022-05-28_09h28.01.470,task,2021.1.4,Win32,60.06727535,628b806c463b948bc644b84f,6291cedd10dd9f0077eecd82,,,,,,,,,,,,,,,,,,,,,,,,4,,,,,,,,,,Task,28,(2x5) - 6,4,,,,,,,,,,,,,,,,,,1,,,,,,,,,,,,,,,,,,,,,,,,"[""4""]",1,[2.519700000047692],0,0,0,27,1,,,,,,,,,,,,,,,,,,
,,,,,,,,,6048b33e9bbc7bbfa6eeed32,25,Kobieta,2022-05-28_09h28.01.470,task,2021.1.4,Win32,60.06727535,628b806c463b948bc644b84f,6291cedd10dd9f0077eecd82,,,,,,,,,,,"X V Q F H G B L J M P D K C T S W R N Z
",,,,,,,,,,,,,,,,,,,,,,,,,,,,,,,,,,,,,,,,,,,,,,,,,,,,,,,,,,,,,,,,,,,,,,,,,,,,2,0,2,0,1,,,,,,,,,,,,,
,,,,,,,,,6048b33e9bbc7bbfa6eeed32,25,Kobieta,2022-05-28_09h28.01.470,task,2021.1.4,Win32,60.06727535,628b806c463b948bc644b84f,6291cedd10dd9f0077eecd82,,,,,,,,,,,,,,,,,,,,,,,,,,,,,,,,,,,,,,,,,,,,,,,,,,,,,,,,,,,,,,,,,,,,,,,,,,,,,,,,,,,,,,,,,,,,btj,"[""b"",""t"",""j""]",0,"[1.452599999904578,1.7167000000476946,2.15300000000002,2.649299999952291]",1,BTJ,1,0,1,0,1,,
,,,,,,,,,6048b33e9bbc7bbfa6eeed32,25,Kobieta,2022-05-28_09h28.01.470,task,2021.1.4,Win32,60.06727535,628b806c463b948bc644b84f,6291cedd10dd9f0077eecd82,,,,,,,,,,,,,,,,,,,,,,,,7,,,,,,,,,,Task,31,(4/2) + 5,7,,,,,,,,,,,,,,,,,,1,,,,,,,,,,,,,,,,,,,,,,,,"[""7""]",1,[1.8148000001907576],0,0,0,30,1,,,,,,,,,,,,,,,,,,
,,,,,,,,,6048b33e9bbc7bbfa6eeed32,25,Kobieta,2022-05-28_09h28.01.470,task,2021.1.4,Win32,60.06727535,628b806c463b948bc644b84f,6291cedd10dd9f0077eecd82,,,,,,,,,,,"X V Q F H G B L J M P D K C T S W R N Z
",,,,,,,,,,,,,,,,,,,,,,,,,,,,,,,,,,,,,,,,,,,,,,,,,,,,,,,,,,,,,,,,,,,,,,,,,,,,0,0,0,0,1,,,,,,,,,,,,,
,,,,,,,,,6048b33e9bbc7bbfa6eeed32,25,Kobieta,2022-05-28_09h28.01.470,task,2021.1.4,Win32,60.06727535,628b806c463b948bc644b84f,6291cedd10dd9f0077eecd82,,,,,,,,,,,,,,,,,,,,,,,,2,,,,,,,,,,Task,26,(2x9) - 16,2,,,,,,,,,,,,,,,,,,1,,,,,,,,,,,,,,,,,,,,,,,,"[""2""]",1,[2.822700000047689],0,0,0,25,1,,,,,,,,,,,,,,,,,,
,,,,,,,,,6048b33e9bbc7bbfa6eeed32,25,Kobieta,2022-05-28_09h28.01.470,task,2021.1.4,Win32,60.06727535,628b806c463b948bc644b84f,6291cedd10dd9f0077eecd82,,,,,,,,,,,"X V Q F H G B L J M P D K C T S W R N Z
",,,,,,,,,,,,,,,,,,,,,,,,,,,,,,,,,,,,,,,,,,,,,,,,,,,,,,,,,,,,,,,,,,,,,,,,,,,,1,0,1,0,1,,,,,,,,,,,,,
,,,,,,,,,6048b33e9bbc7bbfa6eeed32,25,Kobieta,2022-05-28_09h28.01.470,task,2021.1.4,Win32,60.06727535,628b806c463b948bc644b84f,6291cedd10dd9f0077eecd82,,,,,,,,,,,,,,,,,,,,,,,,9,,,,,,,,,,Task,24,(2x2) + 5,9,,,,,,,,,,,,,,,,,,1,,,,,,,,,,,,,,,,,,,,,,,,"[""9""]",1,[1.4640999999045334],0,0,0,23,1,,,,,,,,,,,,,,,,,,
,,,,,,,,,6048b33e9bbc7bbfa6eeed32,25,Kobieta,2022-05-28_09h28.01.470,task,2021.1.4,Win32,60.06727535,628b806c463b948bc644b84f,6291cedd10dd9f0077eecd82,,,,,,,,,,,"X V Q F H G B L J M P D K C T S W R N Z
",,,,,,,,,,,,,,,,,,,,,,,,,,,,,,,,,,,,,,,,,,,,,,,,,,,,,,,,,,,,,,,,,,,,,,,,,,,,2,0,2,0,1,,,,,,,,,,,,,
,,,,,,,,,6048b33e9bbc7bbfa6eeed32,25,Kobieta,2022-05-28_09h28.01.470,task,2021.1.4,Win32,60.06727535,628b806c463b948bc644b84f,6291cedd10dd9f0077eecd82,,,,,,,,,,,,,,,,,,,,,,,,,,,,,,,,,,Task,30,(6/3) + 4 ,6,,,,,,,,,,,,,,,,,,0,,,,,,,,,,,,,,,,,,,,,,,,,0,,0,0,0,29,1,,,,,,,,,,,,,,,,,,
,,,,,,,,,6048b33e9bbc7bbfa6eeed32,25,Kobieta,2022-05-28_09h28.01.470,task,2021.1.4,Win32,60.06727535,628b806c463b948bc644b84f,6291cedd10dd9f0077eecd82,,,,,,,,,,,,,,,,,,,,,,,,0,,,,,,,,,,Task,25,(10/5) - 2,0,,,,,,,,,,,,,,,,,,1,,,,,,,,,,,,,,,,,,,,,,,,"[""0""]",1,[2.7641999998091933],0,1,1,24,1,,,,,,,,,,,,,,,,,,
,,,,,,,,,6048b33e9bbc7bbfa6eeed32,25,Kobieta,2022-05-28_09h28.01.470,task,2021.1.4,Win32,60.06727535,628b806c463b948bc644b84f,6291cedd10dd9f0077eecd82,,,,,,,,,,,"X V Q F H G B L J M P D K C T S W R N Z
",,,,,,,,,,,,,,,,,,,,,,,,,,,,,,,,,,,,,,,,,,,,,,,,,,,,,,,,,,,,,,,,,,,,,,,,,,,,3,0,3,0,1,,,,,,,,,,,,,
,,,,,,,,,6048b33e9bbc7bbfa6eeed32,25,Kobieta,2022-05-28_09h28.01.470,task,2021.1.4,Win32,60.06727535,628b806c463b948bc644b84f,6291cedd10dd9f0077eecd82,,,,,,,,,,,,,,,,,,,,,,,,,,,,,,,,,,,,,,,,,,,,,,,,,,,,,,,,,,,,,,,,,,,,,,,,,,,,,,,,,,,,,,,,,,,,vshp,"[""v"",""s"",""h"",""p""]",0,"[1.038900000095282,1.3842999999523045,1.8220999999045944,2.209400000095343,2.466400000095291]",1,VSHP,2,0,2,0,1,,
,,,,,,,,,6048b33e9bbc7bbfa6eeed32,25,Kobieta,2022-05-28_09h28.01.470,task,2021.1.4,Win32,60.06727535,628b806c463b948bc644b84f,6291cedd10dd9f0077eecd82,,,,,,,,,,,,,,,,,,,,,,,,7,,,,,,,,,,Task,14,(2x2) + 3,7,,,,,,,,,,,,,,,,,,1,,,,,,,,,,,,,,,,,,,,,,,,"[""7""]",1,[2.401099999904659],0,0,0,13,1,,,,,,,,,,,,,,,,,,
,,,,,,,,,6048b33e9bbc7bbfa6eeed32,25,Kobieta,2022-05-28_09h28.01.470,task,2021.1.4,Win32,60.06727535,628b806c463b948bc644b84f,6291cedd10dd9f0077eecd82,,,,,,,,,,,"X V Q F H G B L J M P D K C T S W R N Z
",,,,,,,,,,,,,,,,,,,,,,,,,,,,,,,,,,,,,,,,,,,,,,,,,,,,,,,,,,,,,,,,,,,,,,,,,,,,0,0,0,0,1,,,,,,,,,,,,,
,,,,,,,,,6048b33e9bbc7bbfa6eeed32,25,Kobieta,2022-05-28_09h28.01.470,task,2021.1.4,Win32,60.06727535,628b806c463b948bc644b84f,6291cedd10dd9f0077eecd82,,,,,,,,,,,,,,,,,,,,,,,,3,,,,,,,,,,Task,35,(1x2) + 1,3,,,,,,,,,,,,,,,,,,1,,,,,,,,,,,,,,,,,,,,,,,,"[""3""]",1,[1.9154000000953602],0,0,0,34,1,,,,,,,,,,,,,,,,,,
,,,,,,,,,6048b33e9bbc7bbfa6eeed32,25,Kobieta,2022-05-28_09h28.01.470,task,2021.1.4,Win32,60.06727535,628b806c463b948bc644b84f,6291cedd10dd9f0077eecd82,,,,,,,,,,,"X V Q F H G B L J M P D K C T S W R N Z
",,,,,,,,,,,,,,,,,,,,,,,,,,,,,,,,,,,,,,,,,,,,,,,,,,,,,,,,,,,,,,,,,,,,,,,,,,,,1,0,1,0,1,,,,,,,,,,,,,
,,,,,,,,,6048b33e9bbc7bbfa6eeed32,25,Kobieta,2022-05-28_09h28.01.470,task,2021.1.4,Win32,60.06727535,628b806c463b948bc644b84f,6291cedd10dd9f0077eecd82,,,,,,,,,,,,,,,,,,,,,,,,0,,,,,,,,,,Task,25,(10/5) - 2,0,,,,,,,,,,,,,,,,,,1,,,,,,,,,,,,,,,,,,,,,,,,"[""0""]",1,[1.72300000000007],0,0,0,24,1,,,,,,,,,,,,,,,,,,
,,,,,,,,,6048b33e9bbc7bbfa6eeed32,25,Kobieta,2022-05-28_09h28.01.470,task,2021.1.4,Win32,60.06727535,628b806c463b948bc644b84f,6291cedd10dd9f0077eecd82,,,,,,,,,,,"X V Q F H G B L J M P D K C T S W R N Z
",,,,,,,,,,,,,,,,,,,,,,,,,,,,,,,,,,,,,,,,,,,,,,,,,,,,,,,,,,,,,,,,,,,,,,,,,,,,2,0,2,0,1,,,,,,,,,,,,,
,,,,,,,,,6048b33e9bbc7bbfa6eeed32,25,Kobieta,2022-05-28_09h28.01.470,task,2021.1.4,Win32,60.06727535,628b806c463b948bc644b84f,6291cedd10dd9f0077eecd82,,,,,,,,,,,,,,,,,,,,,,,,7,,,,,,,,,,Task,31,(4/2) + 5,7,,,,,,,,,,,,,,,,,,1,,,,,,,,,,,,,,,,,,,,,,,,"[""7""]",1,[2.3868999998569507],0,0,0,30,1,,,,,,,,,,,,,,,,,,
,,,,,,,,,6048b33e9bbc7bbfa6eeed32,25,Kobieta,2022-05-28_09h28.01.470,task,2021.1.4,Win32,60.06727535,628b806c463b948bc644b84f,6291cedd10dd9f0077eecd82,,,,,,,,,,,"X V Q F H G B L J M P D K C T S W R N Z
",,,,,,,,,,,,,,,,,,,,,,,,,,,,,,,,,,,,,,,,,,,,,,,,,,,,,,,,,,,,,,,,,,,,,,,,,,,,3,0,3,0,1,,,,,,,,,,,,,
,,,,,,,,,6048b33e9bbc7bbfa6eeed32,25,Kobieta,2022-05-28_09h28.01.470,task,2021.1.4,Win32,60.06727535,628b806c463b948bc644b84f,6291cedd10dd9f0077eecd82,,,,,,,,,,,,,,,,,,,,,,,,1,,,,,,,,,,Task,9,(3x7) - 20,1,,,,,,,,,,,,,,,,,,1,,,,,,,,,,,,,,,,,,,,,,,,"[""1""]",1,[2.330399999857036],0,0,0,8,1,,,,,,,,,,,,,,,,,,
,,,,,,,,,6048b33e9bbc7bbfa6eeed32,25,Kobieta,2022-05-28_09h28.01.470,task,2021.1.4,Win32,60.06727535,628b806c463b948bc644b84f,6291cedd10dd9f0077eecd82,,,,,,,,,,,"X V Q F H G B L J M P D K C T S W R N Z
",,,,,,,,,,,,,,,,,,,,,,,,,,,,,,,,,,,,,,,,,,,,,,,,,,,,,,,,,,,,,,,,,,,,,,,,,,,,4,0,4,0,1,,,,,,,,,,,,,
,,,,,,,,,6048b33e9bbc7bbfa6eeed32,25,Kobieta,2022-05-28_09h28.01.470,task,2021.1.4,Win32,60.06727535,628b806c463b948bc644b84f,6291cedd10dd9f0077eecd82,,,,,,,,,,,,,,,,,,,,,,,,,,,,,,,,,,,,,,,,,,,,,,,,,,,,,,,,,,,,,,,,,,,,,,,,,,,,,,,,,,,,,,,,,,,,rslzl,"[""r"",""s"",""l"",""z"",""l""]",0,"[1.557900000095401,1.850500000000011,2.36879999995233,2.7337000000477474,3.2019000000954065,3.6831000001430994]",0,"RSLZ
L",3,0,3,0,1,,
,,,,,,,,,6048b33e9bbc7bbfa6eeed32,25,Kobieta,2022-05-28_09h28.01.470,task,2021.1.4,Win32,60.06727535,628b806c463b948bc644b84f,6291cedd10dd9f0077eecd82,,,,,,,,,,,,,,,,,,,,,,,,2,,,,,,,,,,Task,2,(2x2) - 2,2,,,,,,,,,,,,,,,,,,1,,,,,,,,,,,,,,,,,,,,,,,,"[""2""]",1,[2.336899999856996],0,0,0,1,1,,,,,,,,,,,,,,,,,,
,,,,,,,,,6048b33e9bbc7bbfa6eeed32,25,Kobieta,2022-05-28_09h28.01.470,task,2021.1.4,Win32,60.06727535,628b806c463b948bc644b84f,6291cedd10dd9f0077eecd82,,,,,,,,,,,"X V Q F H G B L J M P D K C T S W R N Z
",,,,,,,,,,,,,,,,,,,,,,,,,,,,,,,,,,,,,,,,,,,,,,,,,,,,,,,,,,,,,,,,,,,,,,,,,,,,0,0,0,0,1,,,,,,,,,,,,,
,,,,,,,,,6048b33e9bbc7bbfa6eeed32,25,Kobieta,2022-05-28_09h28.01.470,task,2021.1.4,Win32,60.06727535,628b806c463b948bc644b84f,6291cedd10dd9f0077eecd82,,,,,,,,,,,,,,,,,,,,,,,,,,,,,,,,,,Task,32,(8/2) + 4,8,,,,,,,,,,,,,,,,,,0,,,,,,,,,,,,,,,,,,,,,,,,,0,,0,0,0,31,1,,,,,,,,,,,,,,,,,,
,,,,,,,,,6048b33e9bbc7bbfa6eeed32,25,Kobieta,2022-05-28_09h28.01.470,task,2021.1.4,Win32,60.06727535,628b806c463b948bc644b84f,6291cedd10dd9f0077eecd82,,,,,,,,,,,,,,,,,,,,,,,,3,,,,,,,,,,Task,20,(18/9) + 1,3,,,,,,,,,,,,,,,,,,1,,,,,,,,,,,,,,,,,,,,,,,,"[""3""]",1,[1.899499999999989],0,1,1,19,1,,,,,,,,,,,,,,,,,,
,,,,,,,,,6048b33e9bbc7bbfa6eeed32,25,Kobieta,2022-05-28_09h28.01.470,task,2021.1.4,Win32,60.06727535,628b806c463b948bc644b84f,6291cedd10dd9f0077eecd82,,,,,,,,,,,"X V Q F H G B L J M P D K C T S W R N Z
",,,,,,,,,,,,,,,,,,,,,,,,,,,,,,,,,,,,,,,,,,,,,,,,,,,,,,,,,,,,,,,,,,,,,,,,,,,,1,0,1,0,1,,,,,,,,,,,,,
,,,,,,,,,6048b33e9bbc7bbfa6eeed32,25,Kobieta,2022-05-28_09h28.01.470,task,2021.1.4,Win32,60.06727535,628b806c463b948bc644b84f,6291cedd10dd9f0077eecd82,,,,,,,,,,,,,,,,,,,,,,,,4,,,,,,,,,,Task,4,(1x5) - 1,4,,,,,,,,,,,,,,,,,,1,,,,,,,,,,,,,,,,,,,,,,,,"[""4""]",1,[2.135200000047689],0,0,0,3,1,,,,,,,,,,,,,,,,,,
,,,,,,,,,6048b33e9bbc7bbfa6eeed32,25,Kobieta,2022-05-28_09h28.01.470,task,2021.1.4,Win32,60.06727535,628b806c463b948bc644b84f,6291cedd10dd9f0077eecd82,,,,,,,,,,,"X V Q F H G B L J M P D K C T S W R N Z
",,,,,,,,,,,,,,,,,,,,,,,,,,,,,,,,,,,,,,,,,,,,,,,,,,,,,,,,,,,,,,,,,,,,,,,,,,,,2,0,2,0,1,,,,,,,,,,,,,
,,,,,,,,,6048b33e9bbc7bbfa6eeed32,25,Kobieta,2022-05-28_09h28.01.470,task,2021.1.4,Win32,60.06727535,628b806c463b948bc644b84f,6291cedd10dd9f0077eecd82,,,,,,,,,,,,,,,,,,,,,,,,5,,,,,,,,,,Task,22,(3x1) + 2,5,,,,,,,,,,,,,,,,,,1,,,,,,,,,,,,,,,,,,,,,,,,"[""5""]",1,[1.7902000000476619],0,0,0,21,1,,,,,,,,,,,,,,,,,,
,,,,,,,,,6048b33e9bbc7bbfa6eeed32,25,Kobieta,2022-05-28_09h28.01.470,task,2021.1.4,Win32,60.06727535,628b806c463b948bc644b84f,6291cedd10dd9f0077eecd82,,,,,,,,,,,"X V Q F H G B L J M P D K C T S W R N Z
",,,,,,,,,,,,,,,,,,,,,,,,,,,,,,,,,,,,,,,,,,,,,,,,,,,,,,,,,,,,,,,,,,,,,,,,,,,,3,0,3,0,1,,,,,,,,,,,,,
,,,,,,,,,6048b33e9bbc7bbfa6eeed32,25,Kobieta,2022-05-28_09h28.01.470,task,2021.1.4,Win32,60.06727535,628b806c463b948bc644b84f,6291cedd10dd9f0077eecd82,,,,,,,,,,,,,,,,,,,,,,,,0,,,,,,,,,,Task,17,(2x3) - 6,0,,,,,,,,,,,,,,,,,,1,,,,,,,,,,,,,,,,,,,,,,,,"[""0""]",1,[2.2533999998569243],0,0,0,16,1,,,,,,,,,,,,,,,,,,
,,,,,,,,,6048b33e9bbc7bbfa6eeed32,25,Kobieta,2022-05-28_09h28.01.470,task,2021.1.4,Win32,60.06727535,628b806c463b948bc644b84f,6291cedd10dd9f0077eecd82,,,,,,,,,,,"X V Q F H G B L J M P D K C T S W R N Z
",,,,,,,,,,,,,,,,,,,,,,,,,,,,,,,,,,,,,,,,,,,,,,,,,,,,,,,,,,,,,,,,,,,,,,,,,,,,4,0,4,0,1,,,,,,,,,,,,,
,,,,,,,,,6048b33e9bbc7bbfa6eeed32,25,Kobieta,2022-05-28_09h28.01.470,task,2021.1.4,Win32,60.06727535,628b806c463b948bc644b84f,6291cedd10dd9f0077eecd82,,,,,,,,,,,,,,,,,,,,,,,,,,,,,,,,,,,,,,,,,,,,,,,,,,,,,,,,,,,,,,,,,,,,,,,,,,,,,,,,,,,,,,,,,,,,nvgkk,"[""n"",""v"",""g"",""k"",""k""]",0,"[1.9172000000477283,2.482700000047771,3.616400000095382,4.051000000000045,4.1731000001431084,4.609799999952315]",1,NVGKK,4,0,4,0,1,,
,,,,,,,,,6048b33e9bbc7bbfa6eeed32,25,Kobieta,2022-05-28_09h28.01.470,task,2021.1.4,Win32,60.06727535,628b806c463b948bc644b84f,6291cedd10dd9f0077eecd82,,,,,,,,,,,,,,,,,,,,,,,,3,,,,,,,,,,Task,35,(1x2) + 1,3,,,,,,,,,,,,,,,,,,1,,,,,,,,,,,,,,,,,,,,,,,,"[""3""]",1,[1.62529999995229],0,0,0,34,1,,,,,,,,,,,,,,,,,,
,,,,,,,,,6048b33e9bbc7bbfa6eeed32,25,Kobieta,2022-05-28_09h28.01.470,task,2021.1.4,Win32,60.06727535,628b806c463b948bc644b84f,6291cedd10dd9f0077eecd82,,,,,,,,,,,"X V Q F H G B L J M P D K C T S W R N Z
",,,,,,,,,,,,,,,,,,,,,,,,,,,,,,,,,,,,,,,,,,,,,,,,,,,,,,,,,,,,,,,,,,,,,,,,,,,,0,0,0,0,1,,,,,,,,,,,,,
,,,,,,,,,6048b33e9bbc7bbfa6eeed32,25,Kobieta,2022-05-28_09h28.01.470,task,2021.1.4,Win32,60.06727535,628b806c463b948bc644b84f,6291cedd10dd9f0077eecd82,,,,,,,,,,,,,,,,,,,,,,,,8,,,,,,,,,,Task,23,(2x3) + 2,8,,,,,,,,,,,,,,,,,,1,,,,,,,,,,,,,,,,,,,,,,,,"[""8""]",1,[1.9907999999522872],0,0,0,22,1,,,,,,,,,,,,,,,,,,
,,,,,,,,,6048b33e9bbc7bbfa6eeed32,25,Kobieta,2022-05-28_09h28.01.470,task,2021.1.4,Win32,60.06727535,628b806c463b948bc644b84f,6291cedd10dd9f0077eecd82,,,,,,,,,,,"X V Q F H G B L J M P D K C T S W R N Z
",,,,,,,,,,,,,,,,,,,,,,,,,,,,,,,,,,,,,,,,,,,,,,,,,,,,,,,,,,,,,,,,,,,,,,,,,,,,1,0,1,0,1,,,,,,,,,,,,,
,,,,,,,,,6048b33e9bbc7bbfa6eeed32,25,Kobieta,2022-05-28_09h28.01.470,task,2021.1.4,Win32,60.06727535,628b806c463b948bc644b84f,6291cedd10dd9f0077eecd82,,,,,,,,,,,,,,,,,,,,,,,,7,,,,,,,,,,Task,6,(12/2) + 1,7,,,,,,,,,,,,,,,,,,1,,,,,,,,,,,,,,,,,,,,,,,,"[""7""]",1,[1.7984000000952847],0,0,0,5,1,,,,,,,,,,,,,,,,,,
,,,,,,,,,6048b33e9bbc7bbfa6eeed32,25,Kobieta,2022-05-28_09h28.01.470,task,2021.1.4,Win32,60.06727535,628b806c463b948bc644b84f,6291cedd10dd9f0077eecd82,,,,,,,,,,,"X V Q F H G B L J M P D K C T S W R N Z
",,,,,,,,,,,,,,,,,,,,,,,,,,,,,,,,,,,,,,,,,,,,,,,,,,,,,,,,,,,,,,,,,,,,,,,,,,,,2,0,2,0,1,,,,,,,,,,,,,
,,,,,,,,,6048b33e9bbc7bbfa6eeed32,25,Kobieta,2022-05-28_09h28.01.470,task,2021.1.4,Win32,60.06727535,628b806c463b948bc644b84f,6291cedd10dd9f0077eecd82,,,,,,,,,,,,,,,,,,,,,,,,2,,,,,,,,,,Task,10,(2x5) - 8,2,,,,,,,,,,,,,,,,,,1,,,,,,,,,,,,,,,,,,,,,,,,"[""2""]",1,[2.0022999999523563],0,0,0,9,1,,,,,,,,,,,,,,,,,,
,,,,,,,,,6048b33e9bbc7bbfa6eeed32,25,Kobieta,2022-05-28_09h28.01.470,task,2021.1.4,Win32,60.06727535,628b806c463b948bc644b84f,6291cedd10dd9f0077eecd82,,,,,,,,,,,"X V Q F H G B L J M P D K C T S W R N Z
",,,,,,,,,,,,,,,,,,,,,,,,,,,,,,,,,,,,,,,,,,,,,,,,,,,,,,,,,,,,,,,,,,,,,,,,,,,,3,0,3,0,1,,,,,,,,,,,,,
,,,,,,,,,6048b33e9bbc7bbfa6eeed32,25,Kobieta,2022-05-28_09h28.01.470,task,2021.1.4,Win32,60.06727535,628b806c463b948bc644b84f,6291cedd10dd9f0077eecd82,,,,,,,,,,,,,,,,,,,,,,,,1,,,,,,,,,,Task,18,(16/4) - 3,1,,,,,,,,,,,,,,,,,,1,,,,,,,,,,,,,,,,,,,,,,,,"[""1""]",1,[1.9980000000000473],0,0,0,17,1,,,,,,,,,,,,,,,,,,
,,,,,,,,,6048b33e9bbc7bbfa6eeed32,25,Kobieta,2022-05-28_09h28.01.470,task,2021.1.4,Win32,60.06727535,628b806c463b948bc644b84f,6291cedd10dd9f0077eecd82,,,,,,,,,,,"X V Q F H G B L J M P D K C T S W R N Z
",,,,,,,,,,,,,,,,,,,,,,,,,,,,,,,,,,,,,,,,,,,,,,,,,,,,,,,,,,,,,,,,,,,,,,,,,,,,4,0,4,0,1,,,,,,,,,,,,,
,,,,,,,,,6048b33e9bbc7bbfa6eeed32,25,Kobieta,2022-05-28_09h28.01.470,task,2021.1.4,Win32,60.06727535,628b806c463b948bc644b84f,6291cedd10dd9f0077eecd82,,,,,,,,,,,,,,,,,,,,,,,,1,,,,,,,,,,Task,18,(16/4) - 3,1,,,,,,,,,,,,,,,,,,1,,,,,,,,,,,,,,,,,,,,,,,,"[""1""]",1,[2.1832999999523963],0,0,0,17,1,,,,,,,,,,,,,,,,,,
,,,,,,,,,6048b33e9bbc7bbfa6eeed32,25,Kobieta,2022-05-28_09h28.01.470,task,2021.1.4,Win32,60.06727535,628b806c463b948bc644b84f,6291cedd10dd9f0077eecd82,,,,,,,,,,,"X V Q F H G B L J M P D K C T S W R N Z
",,,,,,,,,,,,,,,,,,,,,,,,,,,,,,,,,,,,,,,,,,,,,,,,,,,,,,,,,,,,,,,,,,,,,,,,,,,,5,0,5,0,1,,,,,,,,,,,,,
,,,,,,,,,6048b33e9bbc7bbfa6eeed32,25,Kobieta,2022-05-28_09h28.01.470,task,2021.1.4,Win32,60.06727535,628b806c463b948bc644b84f,6291cedd10dd9f0077eecd82,,,,,,,,,,,,,,,,,,,,,,,,,,,,,,,,,,,,,,,,,,,,,,,,,,,,,,,,,,,,,,,,,,,,,,,,,,,,,,,,,,,,,,,,,,,,dddscg,"[""d"",""d"",""d"",""s"",""c"",""g""]",0,"[1.7440999999046198,2.002699999809238,2.5874999999999773,2.8028999998568906,3.085399999856918,3.8880999999046253,4.70829999995226]",1,DDDSCG,5,0,5,0,1,,
,,,,,,,,,6048b33e9bbc7bbfa6eeed32,25,Kobieta,2022-05-28_09h28.01.470,task,2021.1.4,Win32,60.06727535,628b806c463b948bc644b84f,6291cedd10dd9f0077eecd82,,,,,,,,,,,,,,,,,,,,,,,,8,,,,,,,,,,Task,7,(3x7) - 12,9,,,,,,,,,,,,,,,,,,0,,,,,,,,,,,,,,,,,,,,,,,,"[""8""]",0,[3.2465999999046744],0,0,0,6,1,,,,,,,,,,,,,,,,,,
,,,,,,,,,6048b33e9bbc7bbfa6eeed32,25,Kobieta,2022-05-28_09h28.01.470,task,2021.1.4,Win32,60.06727535,628b806c463b948bc644b84f,6291cedd10dd9f0077eecd82,,,,,,,,,,,,,,,,,,,,,,,,2,,,,,,,,,,Task,2,(2x2) - 2,2,,,,,,,,,,,,,,,,,,1,,,,,,,,,,,,,,,,,,,,,,,,"[""2""]",1,[1.3983000001907158],0,1,1,1,1,,,,,,,,,,,,,,,,,,
,,,,,,,,,6048b33e9bbc7bbfa6eeed32,25,Kobieta,2022-05-28_09h28.01.470,task,2021.1.4,Win32,60.06727535,628b806c463b948bc644b84f,6291cedd10dd9f0077eecd82,,,,,,,,,,,"X V Q F H G B L J M P D K C T S W R N Z
",,,,,,,,,,,,,,,,,,,,,,,,,,,,,,,,,,,,,,,,,,,,,,,,,,,,,,,,,,,,,,,,,,,,,,,,,,,,0,0,0,0,1,,,,,,,,,,,,,
,,,,,,,,,6048b33e9bbc7bbfa6eeed32,25,Kobieta,2022-05-28_09h28.01.470,task,2021.1.4,Win32,60.06727535,628b806c463b948bc644b84f,6291cedd10dd9f0077eecd82,,,,,,,,,,,,,,,,,,,,,,,,4,,,,,,,,,,Task,28,(2x5) - 6,4,,,,,,,,,,,,,,,,,,1,,,,,,,,,,,,,,,,,,,,,,,,"[""4""]",1,[1.6997999999523472],0,0,0,27,1,,,,,,,,,,,,,,,,,,
,,,,,,,,,6048b33e9bbc7bbfa6eeed32,25,Kobieta,2022-05-28_09h28.01.470,task,2021.1.4,Win32,60.06727535,628b806c463b948bc644b84f,6291cedd10dd9f0077eecd82,,,,,,,,,,,"X V Q F H G B L J M P D K C T S W R N Z
",,,,,,,,,,,,,,,,,,,,,,,,,,,,,,,,,,,,,,,,,,,,,,,,,,,,,,,,,,,,,,,,,,,,,,,,,,,,1,0,1,0,1,,,,,,,,,,,,,
,,,,,,,,,6048b33e9bbc7bbfa6eeed32,25,Kobieta,2022-05-28_09h28.01.470,task,2021.1.4,Win32,60.06727535,628b806c463b948bc644b84f,6291cedd10dd9f0077eecd82,,,,,,,,,,,,,,,,,,,,,,,,0,,,,,,,,,,Task,25,(10/5) - 2,0,,,,,,,,,,,,,,,,,,1,,,,,,,,,,,,,,,,,,,,,,,,"[""0""]",1,[2.08299999999997],0,0,0,24,1,,,,,,,,,,,,,,,,,,
,,,,,,,,,6048b33e9bbc7bbfa6eeed32,25,Kobieta,2022-05-28_09h28.01.470,task,2021.1.4,Win32,60.06727535,628b806c463b948bc644b84f,6291cedd10dd9f0077eecd82,,,,,,,,,,,"X V Q F H G B L J M P D K C T S W R N Z
",,,,,,,,,,,,,,,,,,,,,,,,,,,,,,,,,,,,,,,,,,,,,,,,,,,,,,,,,,,,,,,,,,,,,,,,,,,,2,0,2,0,1,,,,,,,,,,,,,
,,,,,,,,,6048b33e9bbc7bbfa6eeed32,25,Kobieta,2022-05-28_09h28.01.470,task,2021.1.4,Win32,60.06727535,628b806c463b948bc644b84f,6291cedd10dd9f0077eecd82,,,,,,,,,,,,,,,,,,,,,,,,3,,,,,,,,,,Task,35,(1x2) + 1,3,,,,,,,,,,,,,,,,,,1,,,,,,,,,,,,,,,,,,,,,,,,"[""3""]",1,[1.4252000000476528],0,0,0,34,1,,,,,,,,,,,,,,,,,,
,,,,,,,,,6048b33e9bbc7bbfa6eeed32,25,Kobieta,2022-05-28_09h28.01.470,task,2021.1.4,Win32,60.06727535,628b806c463b948bc644b84f,6291cedd10dd9f0077eecd82,,,,,,,,,,,"X V Q F H G B L J M P D K C T S W R N Z
",,,,,,,,,,,,,,,,,,,,,,,,,,,,,,,,,,,,,,,,,,,,,,,,,,,,,,,,,,,,,,,,,,,,,,,,,,,,3,0,3,0,1,,,,,,,,,,,,,
,,,,,,,,,6048b33e9bbc7bbfa6eeed32,25,Kobieta,2022-05-28_09h28.01.470,task,2021.1.4,Win32,60.06727535,628b806c463b948bc644b84f,6291cedd10dd9f0077eecd82,,,,,,,,,,,,,,,,,,,,,,,,,,,,,,,,,,Task,39,(5x3) - 7,8,,,,,,,,,,,,,,,,,,0,,,,,,,,,,,,,,,,,,,,,,,,,0,,0,0,0,38,1,,,,,,,,,,,,,,,,,,
,,,,,,,,,6048b33e9bbc7bbfa6eeed32,25,Kobieta,2022-05-28_09h28.01.470,task,2021.1.4,Win32,60.06727535,628b806c463b948bc644b84f,6291cedd10dd9f0077eecd82,,,,,,,,,,,,,,,,,,,,,,,,1,,,,,,,,,,Task,9,(3x7) - 20,1,,,,,,,,,,,,,,,,,,1,,,,,,,,,,,,,,,,,,,,,,,,"[""1""]",1,[1.2643999998568916],0,1,1,8,1,,,,,,,,,,,,,,,,,,
,,,,,,,,,6048b33e9bbc7bbfa6eeed32,25,Kobieta,2022-05-28_09h28.01.470,task,2021.1.4,Win32,60.06727535,628b806c463b948bc644b84f,6291cedd10dd9f0077eecd82,,,,,,,,,,,"X V Q F H G B L J M P D K C T S W R N Z
",,,,,,,,,,,,,,,,,,,,,,,,,,,,,,,,,,,,,,,,,,,,,,,,,,,,,,,,,,,,,,,,,,,,,,,,,,,,4,0,4,0,1,,,,,,,,,,,,,
,,,,,,,,,6048b33e9bbc7bbfa6eeed32,25,Kobieta,2022-05-28_09h28.01.470,task,2021.1.4,Win32,60.06727535,628b806c463b948bc644b84f,6291cedd10dd9f0077eecd82,,,,,,,,,,,,,,,,,,,,,,,,8,,,,,,,,,,Task,23,(2x3) + 2,8,,,,,,,,,,,,,,,,,,1,,,,,,,,,,,,,,,,,,,,,,,,"[""8""]",1,[2.346800000190683],0,0,0,22,1,,,,,,,,,,,,,,,,,,
,,,,,,,,,6048b33e9bbc7bbfa6eeed32,25,Kobieta,2022-05-28_09h28.01.470,task,2021.1.4,Win32,60.06727535,628b806c463b948bc644b84f,6291cedd10dd9f0077eecd82,,,,,,,,,,,"X V Q F H G B L J M P D K C T S W R N Z
",,,,,,,,,,,,,,,,,,,,,,,,,,,,,,,,,,,,,,,,,,,,,,,,,,,,,,,,,,,,,,,,,,,,,,,,,,,,5,0,5,0,1,,,,,,,,,,,,,
,,,,,,,,,6048b33e9bbc7bbfa6eeed32,25,Kobieta,2022-05-28_09h28.01.470,task,2021.1.4,Win32,60.06727535,628b806c463b948bc644b84f,6291cedd10dd9f0077eecd82,,,,,,,,,,,,,,,,,,,,,,,,9,,,,,,,,,,Task,7,(3x7) - 12,9,,,,,,,,,,,,,,,,,,1,,,,,,,,,,,,,,,,,,,,,,,,"[""9""]",1,[1.9209000000953438],0,0,0,6,1,,,,,,,,,,,,,,,,,,
,,,,,,,,,6048b33e9bbc7bbfa6eeed32,25,Kobieta,2022-05-28_09h28.01.470,task,2021.1.4,Win32,60.06727535,628b806c463b948bc644b84f,6291cedd10dd9f0077eecd82,,,,,,,,,,,"X V Q F H G B L J M P D K C T S W R N Z
",,,,,,,,,,,,,,,,,,,,,,,,,,,,,,,,,,,,,,,,,,,,,,,,,,,,,,,,,,,,,,,,,,,,,,,,,,,,6,0,6,0,1,,,,,,,,,,,,,
,,,,,,,,,6048b33e9bbc7bbfa6eeed32,25,Kobieta,2022-05-28_09h28.01.470,task,2021.1.4,Win32,60.06727535,628b806c463b948bc644b84f,6291cedd10dd9f0077eecd82,,,,,,,,,,,,,,,,,,,,,,,,,,,,,,,,,,,,,,,,,,,,,,,,,,,,,,,,,,,,,,,,,,,,,,,,,,,,,,,,,,,,,,,,,,,,qxqrnpt,"[""q"",""x"",""q"",""r"",""n"",""p"",""t""]",0,"[1.4167999999523317,1.7736999998093097,2.033999999999992,2.4167999999523317,2.8103999998569407,3.1928999998569907,3.549299999952268,3.9491999998092524]",1,QXQRNPT,6,0,6,0,1,,
,,,,,,,,,6048b33e9bbc7bbfa6eeed32,25,Kobieta,2022-05-28_09h28.01.470,task,2021.1.4,Win32,60.06727535,628b806c463b948bc644b84f,6291cedd10dd9f0077eecd82,,,,,,,,,,,,,,,,,,,,,,,,9,,,,,,,,,,Task,15,(3x7) - 13,8,,,,,,,,,,,,,,,,,,0,,,,,,,,,,,,,,,,,,,,,,,,"[""9""]",0,[2.4082999999523054],0,0,0,14,1,,,,,,,,,,,,,,,,,,
,,,,,,,,,6048b33e9bbc7bbfa6eeed32,25,Kobieta,2022-05-28_09h28.01.470,task,2021.1.4,Win32,60.06727535,628b806c463b948bc644b84f,6291cedd10dd9f0077eecd82,,,,,,,,,,,,,,,,,,,,,,,,2,,,,,,,,,,Task,10,(2x5) - 8,2,,,,,,,,,,,,,,,,,,1,,,,,,,,,,,,,,,,,,,,,,,,"[""2""]",1,[1.8244999999999436],0,1,1,9,1,,,,,,,,,,,,,,,,,,
,,,,,,,,,6048b33e9bbc7bbfa6eeed32,25,Kobieta,2022-05-28_09h28.01.470,task,2021.1.4,Win32,60.06727535,628b806c463b948bc644b84f,6291cedd10dd9f0077eecd82,,,,,,,,,,,"X V Q F H G B L J M P D K C T S W R N Z
",,,,,,,,,,,,,,,,,,,,,,,,,,,,,,,,,,,,,,,,,,,,,,,,,,,,,,,,,,,,,,,,,,,,,,,,,,,,0,0,0,0,1,,,,,,,,,,,,,
,,,,,,,,,6048b33e9bbc7bbfa6eeed32,25,Kobieta,2022-05-28_09h28.01.470,task,2021.1.4,Win32,60.06727535,628b806c463b948bc644b84f,6291cedd10dd9f0077eecd82,,,,,,,,,,,,,,,,,,,,,,,,8,,,,,,,,,,Task,23,(2x3) + 2,8,,,,,,,,,,,,,,,,,,1,,,,,,,,,,,,,,,,,,,,,,,,"[""8""]",1,[1.7807999999523645],0,0,0,22,1,,,,,,,,,,,,,,,,,,
,,,,,,,,,6048b33e9bbc7bbfa6eeed32,25,Kobieta,2022-05-28_09h28.01.470,task,2021.1.4,Win32,60.06727535,628b806c463b948bc644b84f,6291cedd10dd9f0077eecd82,,,,,,,,,,,"X V Q F H G B L J M P D K C T S W R N Z
",,,,,,,,,,,,,,,,,,,,,,,,,,,,,,,,,,,,,,,,,,,,,,,,,,,,,,,,,,,,,,,,,,,,,,,,,,,,1,0,1,0,1,,,,,,,,,,,,,
,,,,,,,,,6048b33e9bbc7bbfa6eeed32,25,Kobieta,2022-05-28_09h28.01.470,task,2021.1.4,Win32,60.06727535,628b806c463b948bc644b84f,6291cedd10dd9f0077eecd82,,,,,,,,,,,,,,,,,,,,,,,,3,,,,,,,,,,Task,26,(2x9) - 16,2,,,,,,,,,,,,,,,,,,0,,,,,,,,,,,,,,,,,,,,,,,,"[""3""]",0,[2.237099999904558],0,0,0,25,1,,,,,,,,,,,,,,,,,,
,,,,,,,,,6048b33e9bbc7bbfa6eeed32,25,Kobieta,2022-05-28_09h28.01.470,task,2021.1.4,Win32,60.06727535,628b806c463b948bc644b84f,6291cedd10dd9f0077eecd82,,,,,,,,,,,,,,,,,,,,,,,,0,,,,,,,,,,Task,8,(1x5) - 5,0,,,,,,,,,,,,,,,,,,1,,,,,,,,,,,,,,,,,,,,,,,,"[""0""]",1,[1.7530999999046344],0,1,1,7,1,,,,,,,,,,,,,,,,,,
,,,,,,,,,6048b33e9bbc7bbfa6eeed32,25,Kobieta,2022-05-28_09h28.01.470,task,2021.1.4,Win32,60.06727535,628b806c463b948bc644b84f,6291cedd10dd9f0077eecd82,,,,,,,,,,,"X V Q F H G B L J M P D K C T S W R N Z
",,,,,,,,,,,,,,,,,,,,,,,,,,,,,,,,,,,,,,,,,,,,,,,,,,,,,,,,,,,,,,,,,,,,,,,,,,,,2,0,2,0,1,,,,,,,,,,,,,
,,,,,,,,,6048b33e9bbc7bbfa6eeed32,25,Kobieta,2022-05-28_09h28.01.470,task,2021.1.4,Win32,60.06727535,628b806c463b948bc644b84f,6291cedd10dd9f0077eecd82,,,,,,,,,,,,,,,,,,,,,,,,0,,,,,,,,,,Task,33,(1/1) - 1,0,,,,,,,,,,,,,,,,,,1,,,,,,,,,,,,,,,,,,,,,,,,"[""0""]",1,[1.6546000001430912],0,0,0,32,1,,,,,,,,,,,,,,,,,,
,,,,,,,,,6048b33e9bbc7bbfa6eeed32,25,Kobieta,2022-05-28_09h28.01.470,task,2021.1.4,Win32,60.06727535,628b806c463b948bc644b84f,6291cedd10dd9f0077eecd82,,,,,,,,,,,"X V Q F H G B L J M P D K C T S W R N Z
",,,,,,,,,,,,,,,,,,,,,,,,,,,,,,,,,,,,,,,,,,,,,,,,,,,,,,,,,,,,,,,,,,,,,,,,,,,,3,0,3,0,1,,,,,,,,,,,,,
