key_resp_15.keys,key_resp_15.rt,key_resp_13.keys,key_resp_13.corr,key_resp_13.rt,ranodm_loop.thisRepN,ranodm_loop.thisTrialN,ranodm_loop.thisN,ranodm_loop.thisIndex,ranodm_loop.ran,participant,Wiek*,Płeć,date,expName,psychopyVersion,OS,frameRate,study_id,session,key_resp_16.keys,key_resp_16.rt,key_resp_4.keys,key_resp_4.rt,next_letter.thisRepN,next_letter.thisTrialN,next_letter.thisN,next_letter.thisIndex,next_letter.ran,letter,simple_recall,key_resp_5.keys,key_resp_5.rt,simple_recall_corr,simple_recall_corrkeys,next_level.thisRepN,next_level.thisTrialN,next_level.thisN,next_level.thisIndex,next_level.ran,key_resp_2.keys,key_resp_2.rt,digit_answer,key_resp.keys,key_resp.corr,key_resp.rt,RT_list,next_equation.thisRepN,next_equation.thisTrialN,next_equation.thisN,next_equation.thisIndex,next_equation.ran,Task,Trial,Problem,Operation_answer,processing_score,sumRT,meanRT,sumdiff,sd,RT,key_resp_3.keys,key_resp_3.rt,repeat_practice.thisRepN,repeat_practice.thisTrialN,repeat_practice.thisN,repeat_practice.thisIndex,repeat_practice.ran,key_resp_6.keys,key_resp_6.rt,key_resp_11.keys,key_resp_11.corr,key_resp_11.rt,operation_correct,repeat_if_wrong_prac.thisRepN,repeat_if_wrong_prac.thisTrialN,repeat_if_wrong_prac.thisN,repeat_if_wrong_prac.thisIndex,repeat_if_wrong_prac.ran,span_size_prac.thisRepN,span_size_prac.thisTrialN,span_size_prac.thisN,span_size_prac.thisIndex,span_size_prac.ran,complex_recall_practice,key_resp_9.keys,key_resp_9.corr,key_resp_9.rt,complex_prac_corr,span_recall_prac.thisRepN,span_recall_prac.thisTrialN,span_recall_prac.thisN,span_recall_prac.thisIndex,span_recall_prac.ran,key_resp_10.keys,key_resp_10.rt,key_resp_7.keys,key_resp_7.corr,key_resp_7.rt,repeat_if_wrong.thisRepN,repeat_if_wrong.thisTrialN,repeat_if_wrong.thisN,repeat_if_wrong.thisIndex,repeat_if_wrong.ran,span_size.thisRepN,span_size.thisTrialN,span_size.thisN,span_size.thisIndex,span_size.ran,complex_recall,key_resp_8.keys,key_resp_8.corr,key_resp_8.rt,complex_recall_corr,complex_recall_corrkeys,span_recall.thisRepN,span_recall.thisTrialN,span_recall.thisN,span_recall.thisIndex,span_recall.ran,key_resp_12.keys,key_resp_12.rt
space,12.578,"[""comma""]",0,[1.0720000000000027],0,0,0,0,1,60487c3f3ae5a81d6f322d73,27,Mężczyzna,2022-06-04_08h43.11.015,task,2021.1.4,Win32,60.0240096,628b806c463b948bc644b84f,629afec08dc06083f04a4548,,,,,,,,,,,,,,,,,,,,,,,,,,,,,,,,,,,,,,,,,,,,,,,,,,,,,,,,,,,,,,,,,,,,,,,,,,,,,,,,,,,,,,,,,,,,,,,,,,,,,,,
,,"[""comma""]",0,[0.49199999999999733],1,0,1,0,1,60487c3f3ae5a81d6f322d73,27,Mężczyzna,2022-06-04_08h43.11.015,task,2021.1.4,Win32,60.0240096,628b806c463b948bc644b84f,629afec08dc06083f04a4548,,,,,,,,,,,,,,,,,,,,,,,,,,,,,,,,,,,,,,,,,,,,,,,,,,,,,,,,,,,,,,,,,,,,,,,,,,,,,,,,,,,,,,,,,,,,,,,,,,,,,,,
,,"[""period""]",0,[0.2289999999999992],2,0,2,0,1,60487c3f3ae5a81d6f322d73,27,Mężczyzna,2022-06-04_08h43.11.015,task,2021.1.4,Win32,60.0240096,628b806c463b948bc644b84f,629afec08dc06083f04a4548,,,,,,,,,,,,,,,,,,,,,,,,,,,,,,,,,,,,,,,,,,,,,,,,,,,,,,,,,,,,,,,,,,,,,,,,,,,,,,,,,,,,,,,,,,,,,,,,,,,,,,,
,,"[""period""]",0,[0.23699999999999477],3,0,3,0,1,60487c3f3ae5a81d6f322d73,27,Mężczyzna,2022-06-04_08h43.11.015,task,2021.1.4,Win32,60.0240096,628b806c463b948bc644b84f,629afec08dc06083f04a4548,,,,,,,,,,,,,,,,,,,,,,,,,,,,,,,,,,,,,,,,,,,,,,,,,,,,,,,,,,,,,,,,,,,,,,,,,,,,,,,,,,,,,,,,,,,,,,,,,,,,,,,
,,"[""comma""]",0,[0.2359999999999971],4,0,4,0,1,60487c3f3ae5a81d6f322d73,27,Mężczyzna,2022-06-04_08h43.11.015,task,2021.1.4,Win32,60.0240096,628b806c463b948bc644b84f,629afec08dc06083f04a4548,,,,,,,,,,,,,,,,,,,,,,,,,,,,,,,,,,,,,,,,,,,,,,,,,,,,,,,,,,,,,,,,,,,,,,,,,,,,,,,,,,,,,,,,,,,,,,,,,,,,,,,
,,"[""comma""]",0,[0.22800000000000153],5,0,5,0,1,60487c3f3ae5a81d6f322d73,27,Mężczyzna,2022-06-04_08h43.11.015,task,2021.1.4,Win32,60.0240096,628b806c463b948bc644b84f,629afec08dc06083f04a4548,,,,,,,,,,,,,,,,,,,,,,,,,,,,,,,,,,,,,,,,,,,,,,,,,,,,,,,,,,,,,,,,,,,,,,,,,,,,,,,,,,,,,,,,,,,,,,,,,,,,,,,
,,"[""period""]",0,[0.2530000000000001],6,0,6,0,1,60487c3f3ae5a81d6f322d73,27,Mężczyzna,2022-06-04_08h43.11.015,task,2021.1.4,Win32,60.0240096,628b806c463b948bc644b84f,629afec08dc06083f04a4548,,,,,,,,,,,,,,,,,,,,,,,,,,,,,,,,,,,,,,,,,,,,,,,,,,,,,,,,,,,,,,,,,,,,,,,,,,,,,,,,,,,,,,,,,,,,,,,,,,,,,,,
,,"[""comma""]",0,[0.23499999999999943],7,0,7,0,1,60487c3f3ae5a81d6f322d73,27,Mężczyzna,2022-06-04_08h43.11.015,task,2021.1.4,Win32,60.0240096,628b806c463b948bc644b84f,629afec08dc06083f04a4548,,,,,,,,,,,,,,,,,,,,,,,,,,,,,,,,,,,,,,,,,,,,,,,,,,,,,,,,,,,,,,,,,,,,,,,,,,,,,,,,,,,,,,,,,,,,,,,,,,,,,,,
,,"[""period"",""comma""]",0,"[0.11699999999999022,1.9719999999999942]",8,0,8,0,1,60487c3f3ae5a81d6f322d73,27,Mężczyzna,2022-06-04_08h43.11.015,task,2021.1.4,Win32,60.0240096,628b806c463b948bc644b84f,629afec08dc06083f04a4548,,,,,,,,,,,,,,,,,,,,,,,,,,,,,,,,,,,,,,,,,,,,,,,,,,,,,,,,,,,,,,,,,,,,,,,,,,,,,,,,,,,,,,,,,,,,,,,,,,,,,,,
,,,0,,9,0,9,0,1,60487c3f3ae5a81d6f322d73,27,Mężczyzna,2022-06-04_08h43.11.015,task,2021.1.4,Win32,60.0240096,628b806c463b948bc644b84f,629afec08dc06083f04a4548,,,,,,,,,,,,,,,,,,,,,,,,,,,,,,,,,,,,,,,,,,,,,,,,,,,,,,,,,,,,,,,,,,,,,,,,,,,,,,,,,,,,,,,,,,,,,,,,,,,,,,,
,,"[""period"",""comma""]",0,"[0.03499999999999659,1.8840000000000003]",10,0,10,0,1,60487c3f3ae5a81d6f322d73,27,Mężczyzna,2022-06-04_08h43.11.015,task,2021.1.4,Win32,60.0240096,628b806c463b948bc644b84f,629afec08dc06083f04a4548,,,,,,,,,,,,,,,,,,,,,,,,,,,,,,,,,,,,,,,,,,,,,,,,,,,,,,,,,,,,,,,,,,,,,,,,,,,,,,,,,,,,,,,,,,,,,,,,,,,,,,,
,,"[""comma""]",0,[1.8109999999999928],11,0,11,0,1,60487c3f3ae5a81d6f322d73,27,Mężczyzna,2022-06-04_08h43.11.015,task,2021.1.4,Win32,60.0240096,628b806c463b948bc644b84f,629afec08dc06083f04a4548,,,,,,,,,,,,,,,,,,,,,,,,,,,,,,,,,,,,,,,,,,,,,,,,,,,,,,,,,,,,,,,,,,,,,,,,,,,,,,,,,,,,,,,,,,,,,,,,,,,,,,,
,,,0,,12,0,12,0,1,60487c3f3ae5a81d6f322d73,27,Mężczyzna,2022-06-04_08h43.11.015,task,2021.1.4,Win32,60.0240096,628b806c463b948bc644b84f,629afec08dc06083f04a4548,,,,,,,,,,,,,,,,,,,,,,,,,,,,,,,,,,,,,,,,,,,,,,,,,,,,,,,,,,,,,,,,,,,,,,,,,,,,,,,,,,,,,,,,,,,,,,,,,,,,,,,
,,"[""comma""]",0,[0.033999999999991815],13,0,13,0,1,60487c3f3ae5a81d6f322d73,27,Mężczyzna,2022-06-04_08h43.11.015,task,2021.1.4,Win32,60.0240096,628b806c463b948bc644b84f,629afec08dc06083f04a4548,,,,,,,,,,,,,,,,,,,,,,,,,,,,,,,,,,,,,,,,,,,,,,,,,,,,,,,,,,,,,,,,,,,,,,,,,,,,,,,,,,,,,,,,,,,,,,,,,,,,,,,
,,"[""comma""]",0,[0.21000000000000796],14,0,14,0,1,60487c3f3ae5a81d6f322d73,27,Mężczyzna,2022-06-04_08h43.11.015,task,2021.1.4,Win32,60.0240096,628b806c463b948bc644b84f,629afec08dc06083f04a4548,,,,,,,,,,,,,,,,,,,,,,,,,,,,,,,,,,,,,,,,,,,,,,,,,,,,,,,,,,,,,,,,,,,,,,,,,,,,,,,,,,,,,,,,,,,,,,,,,,,,,,,
,,"[""comma""]",0,[0.15000000000000568],15,0,15,0,1,60487c3f3ae5a81d6f322d73,27,Mężczyzna,2022-06-04_08h43.11.015,task,2021.1.4,Win32,60.0240096,628b806c463b948bc644b84f,629afec08dc06083f04a4548,,,,,,,,,,,,,,,,,,,,,,,,,,,,,,,,,,,,,,,,,,,,,,,,,,,,,,,,,,,,,,,,,,,,,,,,,,,,,,,,,,,,,,,,,,,,,,,,,,,,,,,
,,"[""period""]",0,[0.23599999999999],16,0,16,0,1,60487c3f3ae5a81d6f322d73,27,Mężczyzna,2022-06-04_08h43.11.015,task,2021.1.4,Win32,60.0240096,628b806c463b948bc644b84f,629afec08dc06083f04a4548,,,,,,,,,,,,,,,,,,,,,,,,,,,,,,,,,,,,,,,,,,,,,,,,,,,,,,,,,,,,,,,,,,,,,,,,,,,,,,,,,,,,,,,,,,,,,,,,,,,,,,,
,,"[""period""]",0,[0.2259999999999991],17,0,17,0,1,60487c3f3ae5a81d6f322d73,27,Mężczyzna,2022-06-04_08h43.11.015,task,2021.1.4,Win32,60.0240096,628b806c463b948bc644b84f,629afec08dc06083f04a4548,,,,,,,,,,,,,,,,,,,,,,,,,,,,,,,,,,,,,,,,,,,,,,,,,,,,,,,,,,,,,,,,,,,,,,,,,,,,,,,,,,,,,,,,,,,,,,,,,,,,,,,
,,"[""comma""]",0,[0.20199999999999818],18,0,18,0,1,60487c3f3ae5a81d6f322d73,27,Mężczyzna,2022-06-04_08h43.11.015,task,2021.1.4,Win32,60.0240096,628b806c463b948bc644b84f,629afec08dc06083f04a4548,,,,,,,,,,,,,,,,,,,,,,,,,,,,,,,,,,,,,,,,,,,,,,,,,,,,,,,,,,,,,,,,,,,,,,,,,,,,,,,,,,,,,,,,,,,,,,,,,,,,,,,
,,"[""comma""]",0,[0.27599999999999625],19,0,19,0,1,60487c3f3ae5a81d6f322d73,27,Mężczyzna,2022-06-04_08h43.11.015,task,2021.1.4,Win32,60.0240096,628b806c463b948bc644b84f,629afec08dc06083f04a4548,,,,,,,,,,,,,,,,,,,,,,,,,,,,,,,,,,,,,,,,,,,,,,,,,,,,,,,,,,,,,,,,,,,,,,,,,,,,,,,,,,,,,,,,,,,,,,,,,,,,,,,
,,"[""period""]",0,[0.2669999999999959],20,0,20,0,1,60487c3f3ae5a81d6f322d73,27,Mężczyzna,2022-06-04_08h43.11.015,task,2021.1.4,Win32,60.0240096,628b806c463b948bc644b84f,629afec08dc06083f04a4548,,,,,,,,,,,,,,,,,,,,,,,,,,,,,,,,,,,,,,,,,,,,,,,,,,,,,,,,,,,,,,,,,,,,,,,,,,,,,,,,,,,,,,,,,,,,,,,,,,,,,,,
,,"[""period""]",0,[0.2580000000000098],21,0,21,0,1,60487c3f3ae5a81d6f322d73,27,Mężczyzna,2022-06-04_08h43.11.015,task,2021.1.4,Win32,60.0240096,628b806c463b948bc644b84f,629afec08dc06083f04a4548,,,,,,,,,,,,,,,,,,,,,,,,,,,,,,,,,,,,,,,,,,,,,,,,,,,,,,,,,,,,,,,,,,,,,,,,,,,,,,,,,,,,,,,,,,,,,,,,,,,,,,,
,,"[""period""]",0,[0.21699999999999875],22,0,22,0,1,60487c3f3ae5a81d6f322d73,27,Mężczyzna,2022-06-04_08h43.11.015,task,2021.1.4,Win32,60.0240096,628b806c463b948bc644b84f,629afec08dc06083f04a4548,,,,,,,,,,,,,,,,,,,,,,,,,,,,,,,,,,,,,,,,,,,,,,,,,,,,,,,,,,,,,,,,,,,,,,,,,,,,,,,,,,,,,,,,,,,,,,,,,,,,,,,
,,"[""period""]",0,[0.11800000000000921],23,0,23,0,1,60487c3f3ae5a81d6f322d73,27,Mężczyzna,2022-06-04_08h43.11.015,task,2021.1.4,Win32,60.0240096,628b806c463b948bc644b84f,629afec08dc06083f04a4548,,,,,,,,,,,,,,,,,,,,,,,,,,,,,,,,,,,,,,,,,,,,,,,,,,,,,,,,,,,,,,,,,,,,,,,,,,,,,,,,,,,,,,,,,,,,,,,,,,,,,,,
,,"[""period""]",0,[0.2259999999999991],24,0,24,0,1,60487c3f3ae5a81d6f322d73,27,Mężczyzna,2022-06-04_08h43.11.015,task,2021.1.4,Win32,60.0240096,628b806c463b948bc644b84f,629afec08dc06083f04a4548,,,,,,,,,,,,,,,,,,,,,,,,,,,,,,,,,,,,,,,,,,,,,,,,,,,,,,,,,,,,,,,,,,,,,,,,,,,,,,,,,,,,,,,,,,,,,,,,,,,,,,,
,,"[""comma""]",0,[0.257000000000005],25,0,25,0,1,60487c3f3ae5a81d6f322d73,27,Mężczyzna,2022-06-04_08h43.11.015,task,2021.1.4,Win32,60.0240096,628b806c463b948bc644b84f,629afec08dc06083f04a4548,,,,,,,,,,,,,,,,,,,,,,,,,,,,,,,,,,,,,,,,,,,,,,,,,,,,,,,,,,,,,,,,,,,,,,,,,,,,,,,,,,,,,,,,,,,,,,,,,,,,,,,
,,"[""comma""]",0,[0.25799999999999557],26,0,26,0,1,60487c3f3ae5a81d6f322d73,27,Mężczyzna,2022-06-04_08h43.11.015,task,2021.1.4,Win32,60.0240096,628b806c463b948bc644b84f,629afec08dc06083f04a4548,,,,,,,,,,,,,,,,,,,,,,,,,,,,,,,,,,,,,,,,,,,,,,,,,,,,,,,,,,,,,,,,,,,,,,,,,,,,,,,,,,,,,,,,,,,,,,,,,,,,,,,
,,"[""period""]",0,[0.24099999999999966],27,0,27,0,1,60487c3f3ae5a81d6f322d73,27,Mężczyzna,2022-06-04_08h43.11.015,task,2021.1.4,Win32,60.0240096,628b806c463b948bc644b84f,629afec08dc06083f04a4548,,,,,,,,,,,,,,,,,,,,,,,,,,,,,,,,,,,,,,,,,,,,,,,,,,,,,,,,,,,,,,,,,,,,,,,,,,,,,,,,,,,,,,,,,,,,,,,,,,,,,,,
,,"[""comma""]",0,[0.10600000000000875],28,0,28,0,1,60487c3f3ae5a81d6f322d73,27,Mężczyzna,2022-06-04_08h43.11.015,task,2021.1.4,Win32,60.0240096,628b806c463b948bc644b84f,629afec08dc06083f04a4548,,,,,,,,,,,,,,,,,,,,,,,,,,,,,,,,,,,,,,,,,,,,,,,,,,,,,,,,,,,,,,,,,,,,,,,,,,,,,,,,,,,,,,,,,,,,,,,,,,,,,,,
,,"[""period""]",0,[0.20700000000000784],29,0,29,0,1,60487c3f3ae5a81d6f322d73,27,Mężczyzna,2022-06-04_08h43.11.015,task,2021.1.4,Win32,60.0240096,628b806c463b948bc644b84f,629afec08dc06083f04a4548,,,,,,,,,,,,,,,,,,,,,,,,,,,,,,,,,,,,,,,,,,,,,,,,,,,,,,,,,,,,,,,,,,,,,,,,,,,,,,,,,,,,,,,,,,,,,,,,,,,,,,,
,,"[""period""]",0,[0.22499999999999432],30,0,30,0,1,60487c3f3ae5a81d6f322d73,27,Mężczyzna,2022-06-04_08h43.11.015,task,2021.1.4,Win32,60.0240096,628b806c463b948bc644b84f,629afec08dc06083f04a4548,,,,,,,,,,,,,,,,,,,,,,,,,,,,,,,,,,,,,,,,,,,,,,,,,,,,,,,,,,,,,,,,,,,,,,,,,,,,,,,,,,,,,,,,,,,,,,,,,,,,,,,
,,"[""period""]",0,[0.19299999999999784],31,0,31,0,1,60487c3f3ae5a81d6f322d73,27,Mężczyzna,2022-06-04_08h43.11.015,task,2021.1.4,Win32,60.0240096,628b806c463b948bc644b84f,629afec08dc06083f04a4548,,,,,,,,,,,,,,,,,,,,,,,,,,,,,,,,,,,,,,,,,,,,,,,,,,,,,,,,,,,,,,,,,,,,,,,,,,,,,,,,,,,,,,,,,,,,,,,,,,,,,,,
,,"[""period""]",0,[0.20999999999999375],32,0,32,0,1,60487c3f3ae5a81d6f322d73,27,Mężczyzna,2022-06-04_08h43.11.015,task,2021.1.4,Win32,60.0240096,628b806c463b948bc644b84f,629afec08dc06083f04a4548,,,,,,,,,,,,,,,,,,,,,,,,,,,,,,,,,,,,,,,,,,,,,,,,,,,,,,,,,,,,,,,,,,,,,,,,,,,,,,,,,,,,,,,,,,,,,,,,,,,,,,,
,,"[""comma""]",0,[0.08399999999998897],33,0,33,0,1,60487c3f3ae5a81d6f322d73,27,Mężczyzna,2022-06-04_08h43.11.015,task,2021.1.4,Win32,60.0240096,628b806c463b948bc644b84f,629afec08dc06083f04a4548,,,,,,,,,,,,,,,,,,,,,,,,,,,,,,,,,,,,,,,,,,,,,,,,,,,,,,,,,,,,,,,,,,,,,,,,,,,,,,,,,,,,,,,,,,,,,,,,,,,,,,,
,,"[""comma""]",0,[0.22499999999999432],34,0,34,0,1,60487c3f3ae5a81d6f322d73,27,Mężczyzna,2022-06-04_08h43.11.015,task,2021.1.4,Win32,60.0240096,628b806c463b948bc644b84f,629afec08dc06083f04a4548,,,,,,,,,,,,,,,,,,,,,,,,,,,,,,,,,,,,,,,,,,,,,,,,,,,,,,,,,,,,,,,,,,,,,,,,,,,,,,,,,,,,,,,,,,,,,,,,,,,,,,,
,,"[""period""]",0,[0.23499999999999943],35,0,35,0,1,60487c3f3ae5a81d6f322d73,27,Mężczyzna,2022-06-04_08h43.11.015,task,2021.1.4,Win32,60.0240096,628b806c463b948bc644b84f,629afec08dc06083f04a4548,,,,,,,,,,,,,,,,,,,,,,,,,,,,,,,,,,,,,,,,,,,,,,,,,,,,,,,,,,,,,,,,,,,,,,,,,,,,,,,,,,,,,,,,,,,,,,,,,,,,,,,
,,"[""period""]",0,[0.25099999999999056],36,0,36,0,1,60487c3f3ae5a81d6f322d73,27,Mężczyzna,2022-06-04_08h43.11.015,task,2021.1.4,Win32,60.0240096,628b806c463b948bc644b84f,629afec08dc06083f04a4548,,,,,,,,,,,,,,,,,,,,,,,,,,,,,,,,,,,,,,,,,,,,,,,,,,,,,,,,,,,,,,,,,,,,,,,,,,,,,,,,,,,,,,,,,,,,,,,,,,,,,,,
,,"[""period""]",0,[0.2839999999999918],37,0,37,0,1,60487c3f3ae5a81d6f322d73,27,Mężczyzna,2022-06-04_08h43.11.015,task,2021.1.4,Win32,60.0240096,628b806c463b948bc644b84f,629afec08dc06083f04a4548,,,,,,,,,,,,,,,,,,,,,,,,,,,,,,,,,,,,,,,,,,,,,,,,,,,,,,,,,,,,,,,,,,,,,,,,,,,,,,,,,,,,,,,,,,,,,,,,,,,,,,,
,,"[""period""]",0,[0.25099999999999056],38,0,38,0,1,60487c3f3ae5a81d6f322d73,27,Mężczyzna,2022-06-04_08h43.11.015,task,2021.1.4,Win32,60.0240096,628b806c463b948bc644b84f,629afec08dc06083f04a4548,,,,,,,,,,,,,,,,,,,,,,,,,,,,,,,,,,,,,,,,,,,,,,,,,,,,,,,,,,,,,,,,,,,,,,,,,,,,,,,,,,,,,,,,,,,,,,,,,,,,,,,
,,"[""comma""]",0,[0.2680000000000007],39,0,39,0,1,60487c3f3ae5a81d6f322d73,27,Mężczyzna,2022-06-04_08h43.11.015,task,2021.1.4,Win32,60.0240096,628b806c463b948bc644b84f,629afec08dc06083f04a4548,,,,,,,,,,,,,,,,,,,,,,,,,,,,,,,,,,,,,,,,,,,,,,,,,,,,,,,,,,,,,,,,,,,,,,,,,,,,,,,,,,,,,,,,,,,,,,,,,,,,,,,
,,"[""period""]",0,[0.2400000000000091],40,0,40,0,1,60487c3f3ae5a81d6f322d73,27,Mężczyzna,2022-06-04_08h43.11.015,task,2021.1.4,Win32,60.0240096,628b806c463b948bc644b84f,629afec08dc06083f04a4548,,,,,,,,,,,,,,,,,,,,,,,,,,,,,,,,,,,,,,,,,,,,,,,,,,,,,,,,,,,,,,,,,,,,,,,,,,,,,,,,,,,,,,,,,,,,,,,,,,,,,,,
,,"[""comma""]",0,[0.2560000000000002],41,0,41,0,1,60487c3f3ae5a81d6f322d73,27,Mężczyzna,2022-06-04_08h43.11.015,task,2021.1.4,Win32,60.0240096,628b806c463b948bc644b84f,629afec08dc06083f04a4548,,,,,,,,,,,,,,,,,,,,,,,,,,,,,,,,,,,,,,,,,,,,,,,,,,,,,,,,,,,,,,,,,,,,,,,,,,,,,,,,,,,,,,,,,,,,,,,,,,,,,,,
,,"[""period""]",0,[0.23500000000001364],42,0,42,0,1,60487c3f3ae5a81d6f322d73,27,Mężczyzna,2022-06-04_08h43.11.015,task,2021.1.4,Win32,60.0240096,628b806c463b948bc644b84f,629afec08dc06083f04a4548,,,,,,,,,,,,,,,,,,,,,,,,,,,,,,,,,,,,,,,,,,,,,,,,,,,,,,,,,,,,,,,,,,,,,,,,,,,,,,,,,,,,,,,,,,,,,,,,,,,,,,,
,,"[""comma""]",0,[0.23500000000001364],43,0,43,0,1,60487c3f3ae5a81d6f322d73,27,Mężczyzna,2022-06-04_08h43.11.015,task,2021.1.4,Win32,60.0240096,628b806c463b948bc644b84f,629afec08dc06083f04a4548,,,,,,,,,,,,,,,,,,,,,,,,,,,,,,,,,,,,,,,,,,,,,,,,,,,,,,,,,,,,,,,,,,,,,,,,,,,,,,,,,,,,,,,,,,,,,,,,,,,,,,,
,,"[""comma""]",0,[0.2400000000000091],44,0,44,0,1,60487c3f3ae5a81d6f322d73,27,Mężczyzna,2022-06-04_08h43.11.015,task,2021.1.4,Win32,60.0240096,628b806c463b948bc644b84f,629afec08dc06083f04a4548,,,,,,,,,,,,,,,,,,,,,,,,,,,,,,,,,,,,,,,,,,,,,,,,,,,,,,,,,,,,,,,,,,,,,,,,,,,,,,,,,,,,,,,,,,,,,,,,,,,,,,,
,,"[""comma""]",0,[0.28700000000000614],45,0,45,0,1,60487c3f3ae5a81d6f322d73,27,Mężczyzna,2022-06-04_08h43.11.015,task,2021.1.4,Win32,60.0240096,628b806c463b948bc644b84f,629afec08dc06083f04a4548,,,,,,,,,,,,,,,,,,,,,,,,,,,,,,,,,,,,,,,,,,,,,,,,,,,,,,,,,,,,,,,,,,,,,,,,,,,,,,,,,,,,,,,,,,,,,,,,,,,,,,,
,,"[""period""]",0,[0.3100000000000023],46,0,46,0,1,60487c3f3ae5a81d6f322d73,27,Mężczyzna,2022-06-04_08h43.11.015,task,2021.1.4,Win32,60.0240096,628b806c463b948bc644b84f,629afec08dc06083f04a4548,,,,,,,,,,,,,,,,,,,,,,,,,,,,,,,,,,,,,,,,,,,,,,,,,,,,,,,,,,,,,,,,,,,,,,,,,,,,,,,,,,,,,,,,,,,,,,,,,,,,,,,
,,"[""comma""]",0,[0.2539999999999907],47,0,47,0,1,60487c3f3ae5a81d6f322d73,27,Mężczyzna,2022-06-04_08h43.11.015,task,2021.1.4,Win32,60.0240096,628b806c463b948bc644b84f,629afec08dc06083f04a4548,,,,,,,,,,,,,,,,,,,,,,,,,,,,,,,,,,,,,,,,,,,,,,,,,,,,,,,,,,,,,,,,,,,,,,,,,,,,,,,,,,,,,,,,,,,,,,,,,,,,,,,
,,"[""comma""]",0,[0.05000000000001137],48,0,48,0,1,60487c3f3ae5a81d6f322d73,27,Mężczyzna,2022-06-04_08h43.11.015,task,2021.1.4,Win32,60.0240096,628b806c463b948bc644b84f,629afec08dc06083f04a4548,,,,,,,,,,,,,,,,,,,,,,,,,,,,,,,,,,,,,,,,,,,,,,,,,,,,,,,,,,,,,,,,,,,,,,,,,,,,,,,,,,,,,,,,,,,,,,,,,,,,,,,
,,"[""period""]",0,[0.31100000000000705],49,0,49,0,1,60487c3f3ae5a81d6f322d73,27,Mężczyzna,2022-06-04_08h43.11.015,task,2021.1.4,Win32,60.0240096,628b806c463b948bc644b84f,629afec08dc06083f04a4548,,,,,,,,,,,,,,,,,,,,,,,,,,,,,,,,,,,,,,,,,,,,,,,,,,,,,,,,,,,,,,,,,,,,,,,,,,,,,,,,,,,,,,,,,,,,,,,,,,,,,,,
,,"[""comma""]",0,[0.27899999999999636],50,0,50,0,1,60487c3f3ae5a81d6f322d73,27,Mężczyzna,2022-06-04_08h43.11.015,task,2021.1.4,Win32,60.0240096,628b806c463b948bc644b84f,629afec08dc06083f04a4548,,,,,,,,,,,,,,,,,,,,,,,,,,,,,,,,,,,,,,,,,,,,,,,,,,,,,,,,,,,,,,,,,,,,,,,,,,,,,,,,,,,,,,,,,,,,,,,,,,,,,,,
,,"[""comma""]",0,[0.25499999999999545],51,0,51,0,1,60487c3f3ae5a81d6f322d73,27,Mężczyzna,2022-06-04_08h43.11.015,task,2021.1.4,Win32,60.0240096,628b806c463b948bc644b84f,629afec08dc06083f04a4548,,,,,,,,,,,,,,,,,,,,,,,,,,,,,,,,,,,,,,,,,,,,,,,,,,,,,,,,,,,,,,,,,,,,,,,,,,,,,,,,,,,,,,,,,,,,,,,,,,,,,,,
,,"[""period"",""period""]",0,"[0.2230000000000132,1.8710000000000093]",52,0,52,0,1,60487c3f3ae5a81d6f322d73,27,Mężczyzna,2022-06-04_08h43.11.015,task,2021.1.4,Win32,60.0240096,628b806c463b948bc644b84f,629afec08dc06083f04a4548,,,,,,,,,,,,,,,,,,,,,,,,,,,,,,,,,,,,,,,,,,,,,,,,,,,,,,,,,,,,,,,,,,,,,,,,,,,,,,,,,,,,,,,,,,,,,,,,,,,,,,,
,,,0,,53,0,53,0,1,60487c3f3ae5a81d6f322d73,27,Mężczyzna,2022-06-04_08h43.11.015,task,2021.1.4,Win32,60.0240096,628b806c463b948bc644b84f,629afec08dc06083f04a4548,,,,,,,,,,,,,,,,,,,,,,,,,,,,,,,,,,,,,,,,,,,,,,,,,,,,,,,,,,,,,,,,,,,,,,,,,,,,,,,,,,,,,,,,,,,,,,,,,,,,,,,
,,"[""period""]",0,[0.2009999999999934],54,0,54,0,1,60487c3f3ae5a81d6f322d73,27,Mężczyzna,2022-06-04_08h43.11.015,task,2021.1.4,Win32,60.0240096,628b806c463b948bc644b84f,629afec08dc06083f04a4548,,,,,,,,,,,,,,,,,,,,,,,,,,,,,,,,,,,,,,,,,,,,,,,,,,,,,,,,,,,,,,,,,,,,,,,,,,,,,,,,,,,,,,,,,,,,,,,,,,,,,,,
,,"[""comma""]",0,[0.28600000000000136],55,0,55,0,1,60487c3f3ae5a81d6f322d73,27,Mężczyzna,2022-06-04_08h43.11.015,task,2021.1.4,Win32,60.0240096,628b806c463b948bc644b84f,629afec08dc06083f04a4548,,,,,,,,,,,,,,,,,,,,,,,,,,,,,,,,,,,,,,,,,,,,,,,,,,,,,,,,,,,,,,,,,,,,,,,,,,,,,,,,,,,,,,,,,,,,,,,,,,,,,,,
,,"[""comma""]",0,[0.20199999999999818],56,0,56,0,1,60487c3f3ae5a81d6f322d73,27,Mężczyzna,2022-06-04_08h43.11.015,task,2021.1.4,Win32,60.0240096,628b806c463b948bc644b84f,629afec08dc06083f04a4548,,,,,,,,,,,,,,,,,,,,,,,,,,,,,,,,,,,,,,,,,,,,,,,,,,,,,,,,,,,,,,,,,,,,,,,,,,,,,,,,,,,,,,,,,,,,,,,,,,,,,,,
,,"[""period""]",0,[0.3019999999999925],57,0,57,0,1,60487c3f3ae5a81d6f322d73,27,Mężczyzna,2022-06-04_08h43.11.015,task,2021.1.4,Win32,60.0240096,628b806c463b948bc644b84f,629afec08dc06083f04a4548,,,,,,,,,,,,,,,,,,,,,,,,,,,,,,,,,,,,,,,,,,,,,,,,,,,,,,,,,,,,,,,,,,,,,,,,,,,,,,,,,,,,,,,,,,,,,,,,,,,,,,,
,,"[""period""]",0,[0.2189999999999941],58,0,58,0,1,60487c3f3ae5a81d6f322d73,27,Mężczyzna,2022-06-04_08h43.11.015,task,2021.1.4,Win32,60.0240096,628b806c463b948bc644b84f,629afec08dc06083f04a4548,,,,,,,,,,,,,,,,,,,,,,,,,,,,,,,,,,,,,,,,,,,,,,,,,,,,,,,,,,,,,,,,,,,,,,,,,,,,,,,,,,,,,,,,,,,,,,,,,,,,,,,
,,"[""comma""]",0,[0.054000000000002046],59,0,59,0,1,60487c3f3ae5a81d6f322d73,27,Mężczyzna,2022-06-04_08h43.11.015,task,2021.1.4,Win32,60.0240096,628b806c463b948bc644b84f,629afec08dc06083f04a4548,,,,,,,,,,,,,,,,,,,,,,,,,,,,,,,,,,,,,,,,,,,,,,,,,,,,,,,,,,,,,,,,,,,,,,,,,,,,,,,,,,,,,,,,,,,,,,,,,,,,,,,
,,"[""comma""]",0,[0.22999999999998977],60,0,60,0,1,60487c3f3ae5a81d6f322d73,27,Mężczyzna,2022-06-04_08h43.11.015,task,2021.1.4,Win32,60.0240096,628b806c463b948bc644b84f,629afec08dc06083f04a4548,,,,,,,,,,,,,,,,,,,,,,,,,,,,,,,,,,,,,,,,,,,,,,,,,,,,,,,,,,,,,,,,,,,,,,,,,,,,,,,,,,,,,,,,,,,,,,,,,,,,,,,
,,"[""comma""]",0,[0.27000000000001023],61,0,61,0,1,60487c3f3ae5a81d6f322d73,27,Mężczyzna,2022-06-04_08h43.11.015,task,2021.1.4,Win32,60.0240096,628b806c463b948bc644b84f,629afec08dc06083f04a4548,,,,,,,,,,,,,,,,,,,,,,,,,,,,,,,,,,,,,,,,,,,,,,,,,,,,,,,,,,,,,,,,,,,,,,,,,,,,,,,,,,,,,,,,,,,,,,,,,,,,,,,
,,"[""comma""]",0,[0.2939999999999827],62,0,62,0,1,60487c3f3ae5a81d6f322d73,27,Mężczyzna,2022-06-04_08h43.11.015,task,2021.1.4,Win32,60.0240096,628b806c463b948bc644b84f,629afec08dc06083f04a4548,,,,,,,,,,,,,,,,,,,,,,,,,,,,,,,,,,,,,,,,,,,,,,,,,,,,,,,,,,,,,,,,,,,,,,,,,,,,,,,,,,,,,,,,,,,,,,,,,,,,,,,
,,"[""period""]",0,[0.2669999999999959],63,0,63,0,1,60487c3f3ae5a81d6f322d73,27,Mężczyzna,2022-06-04_08h43.11.015,task,2021.1.4,Win32,60.0240096,628b806c463b948bc644b84f,629afec08dc06083f04a4548,,,,,,,,,,,,,,,,,,,,,,,,,,,,,,,,,,,,,,,,,,,,,,,,,,,,,,,,,,,,,,,,,,,,,,,,,,,,,,,,,,,,,,,,,,,,,,,,,,,,,,,
,,"[""period""]",0,[0.2769999999999868],64,0,64,0,1,60487c3f3ae5a81d6f322d73,27,Mężczyzna,2022-06-04_08h43.11.015,task,2021.1.4,Win32,60.0240096,628b806c463b948bc644b84f,629afec08dc06083f04a4548,,,,,,,,,,,,,,,,,,,,,,,,,,,,,,,,,,,,,,,,,,,,,,,,,,,,,,,,,,,,,,,,,,,,,,,,,,,,,,,,,,,,,,,,,,,,,,,,,,,,,,,
,,"[""period""]",0,[0.29300000000000637],65,0,65,0,1,60487c3f3ae5a81d6f322d73,27,Mężczyzna,2022-06-04_08h43.11.015,task,2021.1.4,Win32,60.0240096,628b806c463b948bc644b84f,629afec08dc06083f04a4548,,,,,,,,,,,,,,,,,,,,,,,,,,,,,,,,,,,,,,,,,,,,,,,,,,,,,,,,,,,,,,,,,,,,,,,,,,,,,,,,,,,,,,,,,,,,,,,,,,,,,,,
,,"[""comma""]",0,[0.12700000000000955],66,0,66,0,1,60487c3f3ae5a81d6f322d73,27,Mężczyzna,2022-06-04_08h43.11.015,task,2021.1.4,Win32,60.0240096,628b806c463b948bc644b84f,629afec08dc06083f04a4548,,,,,,,,,,,,,,,,,,,,,,,,,,,,,,,,,,,,,,,,,,,,,,,,,,,,,,,,,,,,,,,,,,,,,,,,,,,,,,,,,,,,,,,,,,,,,,,,,,,,,,,
,,"[""period""]",0,[0.24500000000000455],67,0,67,0,1,60487c3f3ae5a81d6f322d73,27,Mężczyzna,2022-06-04_08h43.11.015,task,2021.1.4,Win32,60.0240096,628b806c463b948bc644b84f,629afec08dc06083f04a4548,,,,,,,,,,,,,,,,,,,,,,,,,,,,,,,,,,,,,,,,,,,,,,,,,,,,,,,,,,,,,,,,,,,,,,,,,,,,,,,,,,,,,,,,,,,,,,,,,,,,,,,
,,"[""comma""]",0,[0.11699999999999022],68,0,68,0,1,60487c3f3ae5a81d6f322d73,27,Mężczyzna,2022-06-04_08h43.11.015,task,2021.1.4,Win32,60.0240096,628b806c463b948bc644b84f,629afec08dc06083f04a4548,,,,,,,,,,,,,,,,,,,,,,,,,,,,,,,,,,,,,,,,,,,,,,,,,,,,,,,,,,,,,,,,,,,,,,,,,,,,,,,,,,,,,,,,,,,,,,,,,,,,,,,
,,"[""period""]",0,[0.2609999999999957],69,0,69,0,1,60487c3f3ae5a81d6f322d73,27,Mężczyzna,2022-06-04_08h43.11.015,task,2021.1.4,Win32,60.0240096,628b806c463b948bc644b84f,629afec08dc06083f04a4548,,,,,,,,,,,,,,,,,,,,,,,,,,,,,,,,,,,,,,,,,,,,,,,,,,,,,,,,,,,,,,,,,,,,,,,,,,,,,,,,,,,,,,,,,,,,,,,,,,,,,,,
,,"[""comma""]",0,[0.3089999999999975],70,0,70,0,1,60487c3f3ae5a81d6f322d73,27,Mężczyzna,2022-06-04_08h43.11.015,task,2021.1.4,Win32,60.0240096,628b806c463b948bc644b84f,629afec08dc06083f04a4548,,,,,,,,,,,,,,,,,,,,,,,,,,,,,,,,,,,,,,,,,,,,,,,,,,,,,,,,,,,,,,,,,,,,,,,,,,,,,,,,,,,,,,,,,,,,,,,,,,,,,,,
,,"[""period""]",0,[0.2769999999999868],71,0,71,0,1,60487c3f3ae5a81d6f322d73,27,Mężczyzna,2022-06-04_08h43.11.015,task,2021.1.4,Win32,60.0240096,628b806c463b948bc644b84f,629afec08dc06083f04a4548,,,,,,,,,,,,,,,,,,,,,,,,,,,,,,,,,,,,,,,,,,,,,,,,,,,,,,,,,,,,,,,,,,,,,,,,,,,,,,,,,,,,,,,,,,,,,,,,,,,,,,,
,,"[""comma""]",0,[0.2680000000000007],72,0,72,0,1,60487c3f3ae5a81d6f322d73,27,Mężczyzna,2022-06-04_08h43.11.015,task,2021.1.4,Win32,60.0240096,628b806c463b948bc644b84f,629afec08dc06083f04a4548,,,,,,,,,,,,,,,,,,,,,,,,,,,,,,,,,,,,,,,,,,,,,,,,,,,,,,,,,,,,,,,,,,,,,,,,,,,,,,,,,,,,,,,,,,,,,,,,,,,,,,,
,,"[""period""]",0,[0.2839999999999918],73,0,73,0,1,60487c3f3ae5a81d6f322d73,27,Mężczyzna,2022-06-04_08h43.11.015,task,2021.1.4,Win32,60.0240096,628b806c463b948bc644b84f,629afec08dc06083f04a4548,,,,,,,,,,,,,,,,,,,,,,,,,,,,,,,,,,,,,,,,,,,,,,,,,,,,,,,,,,,,,,,,,,,,,,,,,,,,,,,,,,,,,,,,,,,,,,,,,,,,,,,
,,"[""comma""]",0,[0.2920000000000016],74,0,74,0,1,60487c3f3ae5a81d6f322d73,27,Mężczyzna,2022-06-04_08h43.11.015,task,2021.1.4,Win32,60.0240096,628b806c463b948bc644b84f,629afec08dc06083f04a4548,,,,,,,,,,,,,,,,,,,,,,,,,,,,,,,,,,,,,,,,,,,,,,,,,,,,,,,,,,,,,,,,,,,,,,,,,,,,,,,,,,,,,,,,,,,,,,,,,,,,,,,
,,"[""comma""]",0,[0.24500000000000455],75,0,75,0,1,60487c3f3ae5a81d6f322d73,27,Mężczyzna,2022-06-04_08h43.11.015,task,2021.1.4,Win32,60.0240096,628b806c463b948bc644b84f,629afec08dc06083f04a4548,,,,,,,,,,,,,,,,,,,,,,,,,,,,,,,,,,,,,,,,,,,,,,,,,,,,,,,,,,,,,,,,,,,,,,,,,,,,,,,,,,,,,,,,,,,,,,,,,,,,,,,
,,"[""comma""]",0,[0.27599999999998204],76,0,76,0,1,60487c3f3ae5a81d6f322d73,27,Mężczyzna,2022-06-04_08h43.11.015,task,2021.1.4,Win32,60.0240096,628b806c463b948bc644b84f,629afec08dc06083f04a4548,,,,,,,,,,,,,,,,,,,,,,,,,,,,,,,,,,,,,,,,,,,,,,,,,,,,,,,,,,,,,,,,,,,,,,,,,,,,,,,,,,,,,,,,,,,,,,,,,,,,,,,
,,"[""period""]",0,[0.3079999999999927],77,0,77,0,1,60487c3f3ae5a81d6f322d73,27,Mężczyzna,2022-06-04_08h43.11.015,task,2021.1.4,Win32,60.0240096,628b806c463b948bc644b84f,629afec08dc06083f04a4548,,,,,,,,,,,,,,,,,,,,,,,,,,,,,,,,,,,,,,,,,,,,,,,,,,,,,,,,,,,,,,,,,,,,,,,,,,,,,,,,,,,,,,,,,,,,,,,,,,,,,,,
,,"[""period""]",0,[0.03499999999999659],78,0,78,0,1,60487c3f3ae5a81d6f322d73,27,Mężczyzna,2022-06-04_08h43.11.015,task,2021.1.4,Win32,60.0240096,628b806c463b948bc644b84f,629afec08dc06083f04a4548,,,,,,,,,,,,,,,,,,,,,,,,,,,,,,,,,,,,,,,,,,,,,,,,,,,,,,,,,,,,,,,,,,,,,,,,,,,,,,,,,,,,,,,,,,,,,,,,,,,,,,,
,,"[""comma""]",0,[0.23400000000000887],79,0,79,0,1,60487c3f3ae5a81d6f322d73,27,Mężczyzna,2022-06-04_08h43.11.015,task,2021.1.4,Win32,60.0240096,628b806c463b948bc644b84f,629afec08dc06083f04a4548,,,,,,,,,,,,,,,,,,,,,,,,,,,,,,,,,,,,,,,,,,,,,,,,,,,,,,,,,,,,,,,,,,,,,,,,,,,,,,,,,,,,,,,,,,,,,,,,,,,,,,,
,,"[""period""]",0,[0.28400000000002024],80,0,80,0,1,60487c3f3ae5a81d6f322d73,27,Mężczyzna,2022-06-04_08h43.11.015,task,2021.1.4,Win32,60.0240096,628b806c463b948bc644b84f,629afec08dc06083f04a4548,,,,,,,,,,,,,,,,,,,,,,,,,,,,,,,,,,,,,,,,,,,,,,,,,,,,,,,,,,,,,,,,,,,,,,,,,,,,,,,,,,,,,,,,,,,,,,,,,,,,,,,
,,"[""comma""]",0,[0.30000000000001137],81,0,81,0,1,60487c3f3ae5a81d6f322d73,27,Mężczyzna,2022-06-04_08h43.11.015,task,2021.1.4,Win32,60.0240096,628b806c463b948bc644b84f,629afec08dc06083f04a4548,,,,,,,,,,,,,,,,,,,,,,,,,,,,,,,,,,,,,,,,,,,,,,,,,,,,,,,,,,,,,,,,,,,,,,,,,,,,,,,,,,,,,,,,,,,,,,,,,,,,,,,
,,"[""comma""]",0,[0.3550000000000182],82,0,82,0,1,60487c3f3ae5a81d6f322d73,27,Mężczyzna,2022-06-04_08h43.11.015,task,2021.1.4,Win32,60.0240096,628b806c463b948bc644b84f,629afec08dc06083f04a4548,,,,,,,,,,,,,,,,,,,,,,,,,,,,,,,,,,,,,,,,,,,,,,,,,,,,,,,,,,,,,,,,,,,,,,,,,,,,,,,,,,,,,,,,,,,,,,,,,,,,,,,
,,"[""period""]",0,[0.4590000000000032],83,0,83,0,1,60487c3f3ae5a81d6f322d73,27,Mężczyzna,2022-06-04_08h43.11.015,task,2021.1.4,Win32,60.0240096,628b806c463b948bc644b84f,629afec08dc06083f04a4548,,,,,,,,,,,,,,,,,,,,,,,,,,,,,,,,,,,,,,,,,,,,,,,,,,,,,,,,,,,,,,,,,,,,,,,,,,,,,,,,,,,,,,,,,,,,,,,,,,,,,,,
,,"[""period""]",0,[0.3860000000000241],84,0,84,0,1,60487c3f3ae5a81d6f322d73,27,Mężczyzna,2022-06-04_08h43.11.015,task,2021.1.4,Win32,60.0240096,628b806c463b948bc644b84f,629afec08dc06083f04a4548,,,,,,,,,,,,,,,,,,,,,,,,,,,,,,,,,,,,,,,,,,,,,,,,,,,,,,,,,,,,,,,,,,,,,,,,,,,,,,,,,,,,,,,,,,,,,,,,,,,,,,,
,,"[""period""]",0,[0.3060000000000116],85,0,85,0,1,60487c3f3ae5a81d6f322d73,27,Mężczyzna,2022-06-04_08h43.11.015,task,2021.1.4,Win32,60.0240096,628b806c463b948bc644b84f,629afec08dc06083f04a4548,,,,,,,,,,,,,,,,,,,,,,,,,,,,,,,,,,,,,,,,,,,,,,,,,,,,,,,,,,,,,,,,,,,,,,,,,,,,,,,,,,,,,,,,,,,,,,,,,,,,,,,
,,"[""comma""]",0,[0.3860000000000241],86,0,86,0,1,60487c3f3ae5a81d6f322d73,27,Mężczyzna,2022-06-04_08h43.11.015,task,2021.1.4,Win32,60.0240096,628b806c463b948bc644b84f,629afec08dc06083f04a4548,,,,,,,,,,,,,,,,,,,,,,,,,,,,,,,,,,,,,,,,,,,,,,,,,,,,,,,,,,,,,,,,,,,,,,,,,,,,,,,,,,,,,,,,,,,,,,,,,,,,,,,
,,"[""comma""]",0,[0.26700000000002433],87,0,87,0,1,60487c3f3ae5a81d6f322d73,27,Mężczyzna,2022-06-04_08h43.11.015,task,2021.1.4,Win32,60.0240096,628b806c463b948bc644b84f,629afec08dc06083f04a4548,,,,,,,,,,,,,,,,,,,,,,,,,,,,,,,,,,,,,,,,,,,,,,,,,,,,,,,,,,,,,,,,,,,,,,,,,,,,,,,,,,,,,,,,,,,,,,,,,,,,,,,
,,"[""period""]",0,[0.22700000000000387],88,0,88,0,1,60487c3f3ae5a81d6f322d73,27,Mężczyzna,2022-06-04_08h43.11.015,task,2021.1.4,Win32,60.0240096,628b806c463b948bc644b84f,629afec08dc06083f04a4548,,,,,,,,,,,,,,,,,,,,,,,,,,,,,,,,,,,,,,,,,,,,,,,,,,,,,,,,,,,,,,,,,,,,,,,,,,,,,,,,,,,,,,,,,,,,,,,,,,,,,,,
,,"[""comma""]",0,[0.30000000000001137],89,0,89,0,1,60487c3f3ae5a81d6f322d73,27,Mężczyzna,2022-06-04_08h43.11.015,task,2021.1.4,Win32,60.0240096,628b806c463b948bc644b84f,629afec08dc06083f04a4548,,,,,,,,,,,,,,,,,,,,,,,,,,,,,,,,,,,,,,,,,,,,,,,,,,,,,,,,,,,,,,,,,,,,,,,,,,,,,,,,,,,,,,,,,,,,,,,,,,,,,,,
,,"[""period""]",0,[0.285000000000025],90,0,90,0,1,60487c3f3ae5a81d6f322d73,27,Mężczyzna,2022-06-04_08h43.11.015,task,2021.1.4,Win32,60.0240096,628b806c463b948bc644b84f,629afec08dc06083f04a4548,,,,,,,,,,,,,,,,,,,,,,,,,,,,,,,,,,,,,,,,,,,,,,,,,,,,,,,,,,,,,,,,,,,,,,,,,,,,,,,,,,,,,,,,,,,,,,,,,,,,,,,
,,"[""comma""]",0,[0.2740000000000009],91,0,91,0,1,60487c3f3ae5a81d6f322d73,27,Mężczyzna,2022-06-04_08h43.11.015,task,2021.1.4,Win32,60.0240096,628b806c463b948bc644b84f,629afec08dc06083f04a4548,,,,,,,,,,,,,,,,,,,,,,,,,,,,,,,,,,,,,,,,,,,,,,,,,,,,,,,,,,,,,,,,,,,,,,,,,,,,,,,,,,,,,,,,,,,,,,,,,,,,,,,
,,"[""comma""]",0,[0.29100000000002524],92,0,92,0,1,60487c3f3ae5a81d6f322d73,27,Mężczyzna,2022-06-04_08h43.11.015,task,2021.1.4,Win32,60.0240096,628b806c463b948bc644b84f,629afec08dc06083f04a4548,,,,,,,,,,,,,,,,,,,,,,,,,,,,,,,,,,,,,,,,,,,,,,,,,,,,,,,,,,,,,,,,,,,,,,,,,,,,,,,,,,,,,,,,,,,,,,,,,,,,,,,
,,"[""period""]",0,[0.2259999999999991],93,0,93,0,1,60487c3f3ae5a81d6f322d73,27,Mężczyzna,2022-06-04_08h43.11.015,task,2021.1.4,Win32,60.0240096,628b806c463b948bc644b84f,629afec08dc06083f04a4548,,,,,,,,,,,,,,,,,,,,,,,,,,,,,,,,,,,,,,,,,,,,,,,,,,,,,,,,,,,,,,,,,,,,,,,,,,,,,,,,,,,,,,,,,,,,,,,,,,,,,,,
,,"[""comma""]",0,[0.25200000000000955],94,0,94,0,1,60487c3f3ae5a81d6f322d73,27,Mężczyzna,2022-06-04_08h43.11.015,task,2021.1.4,Win32,60.0240096,628b806c463b948bc644b84f,629afec08dc06083f04a4548,,,,,,,,,,,,,,,,,,,,,,,,,,,,,,,,,,,,,,,,,,,,,,,,,,,,,,,,,,,,,,,,,,,,,,,,,,,,,,,,,,,,,,,,,,,,,,,,,,,,,,,
,,"[""period""]",0,[0.24200000000001864],95,0,95,0,1,60487c3f3ae5a81d6f322d73,27,Mężczyzna,2022-06-04_08h43.11.015,task,2021.1.4,Win32,60.0240096,628b806c463b948bc644b84f,629afec08dc06083f04a4548,,,,,,,,,,,,,,,,,,,,,,,,,,,,,,,,,,,,,,,,,,,,,,,,,,,,,,,,,,,,,,,,,,,,,,,,,,,,,,,,,,,,,,,,,,,,,,,,,,,,,,,
,,"[""comma""]",0,[0.24899999999999523],96,0,96,0,1,60487c3f3ae5a81d6f322d73,27,Mężczyzna,2022-06-04_08h43.11.015,task,2021.1.4,Win32,60.0240096,628b806c463b948bc644b84f,629afec08dc06083f04a4548,,,,,,,,,,,,,,,,,,,,,,,,,,,,,,,,,,,,,,,,,,,,,,,,,,,,,,,,,,,,,,,,,,,,,,,,,,,,,,,,,,,,,,,,,,,,,,,,,,,,,,,
,,"[""period""]",0,[0.42500000000001137],97,0,97,0,1,60487c3f3ae5a81d6f322d73,27,Mężczyzna,2022-06-04_08h43.11.015,task,2021.1.4,Win32,60.0240096,628b806c463b948bc644b84f,629afec08dc06083f04a4548,,,,,,,,,,,,,,,,,,,,,,,,,,,,,,,,,,,,,,,,,,,,,,,,,,,,,,,,,,,,,,,,,,,,,,,,,,,,,,,,,,,,,,,,,,,,,,,,,,,,,,,
,,"[""comma""]",0,[0.2510000000000048],98,0,98,0,1,60487c3f3ae5a81d6f322d73,27,Mężczyzna,2022-06-04_08h43.11.015,task,2021.1.4,Win32,60.0240096,628b806c463b948bc644b84f,629afec08dc06083f04a4548,,,,,,,,,,,,,,,,,,,,,,,,,,,,,,,,,,,,,,,,,,,,,,,,,,,,,,,,,,,,,,,,,,,,,,,,,,,,,,,,,,,,,,,,,,,,,,,,,,,,,,,
,,"[""period""]",0,[0.2890000000000157],99,0,99,0,1,60487c3f3ae5a81d6f322d73,27,Mężczyzna,2022-06-04_08h43.11.015,task,2021.1.4,Win32,60.0240096,628b806c463b948bc644b84f,629afec08dc06083f04a4548,,,,,,,,,,,,,,,,,,,,,,,,,,,,,,,,,,,,,,,,,,,,,,,,,,,,,,,,,,,,,,,,,,,,,,,,,,,,,,,,,,,,,,,,,,,,,,,,,,,,,,,
,,"[""comma""]",0,[0.30100000000001614],100,0,100,0,1,60487c3f3ae5a81d6f322d73,27,Mężczyzna,2022-06-04_08h43.11.015,task,2021.1.4,Win32,60.0240096,628b806c463b948bc644b84f,629afec08dc06083f04a4548,,,,,,,,,,,,,,,,,,,,,,,,,,,,,,,,,,,,,,,,,,,,,,,,,,,,,,,,,,,,,,,,,,,,,,,,,,,,,,,,,,,,,,,,,,,,,,,,,,,,,,,
,,"[""comma"",""comma""]",0,"[0.11199999999999477,1.9339999999999975]",101,0,101,0,1,60487c3f3ae5a81d6f322d73,27,Mężczyzna,2022-06-04_08h43.11.015,task,2021.1.4,Win32,60.0240096,628b806c463b948bc644b84f,629afec08dc06083f04a4548,,,,,,,,,,,,,,,,,,,,,,,,,,,,,,,,,,,,,,,,,,,,,,,,,,,,,,,,,,,,,,,,,,,,,,,,,,,,,,,,,,,,,,,,,,,,,,,,,,,,,,,
,,"[""comma""]",0,[1.7449999999999761],102,0,102,0,1,60487c3f3ae5a81d6f322d73,27,Mężczyzna,2022-06-04_08h43.11.015,task,2021.1.4,Win32,60.0240096,628b806c463b948bc644b84f,629afec08dc06083f04a4548,,,,,,,,,,,,,,,,,,,,,,,,,,,,,,,,,,,,,,,,,,,,,,,,,,,,,,,,,,,,,,,,,,,,,,,,,,,,,,,,,,,,,,,,,,,,,,,,,,,,,,,
,,"[""period""]",0,[1.5009999999999764],103,0,103,0,1,60487c3f3ae5a81d6f322d73,27,Mężczyzna,2022-06-04_08h43.11.015,task,2021.1.4,Win32,60.0240096,628b806c463b948bc644b84f,629afec08dc06083f04a4548,,,,,,,,,,,,,,,,,,,,,,,,,,,,,,,,,,,,,,,,,,,,,,,,,,,,,,,,,,,,,,,,,,,,,,,,,,,,,,,,,,,,,,,,,,,,,,,,,,,,,,,
,,"[""period""]",0,[1.0879999999999654],104,0,104,0,1,60487c3f3ae5a81d6f322d73,27,Mężczyzna,2022-06-04_08h43.11.015,task,2021.1.4,Win32,60.0240096,628b806c463b948bc644b84f,629afec08dc06083f04a4548,,,,,,,,,,,,,,,,,,,,,,,,,,,,,,,,,,,,,,,,,,,,,,,,,,,,,,,,,,,,,,,,,,,,,,,,,,,,,,,,,,,,,,,,,,,,,,,,,,,,,,,
,,,0,,105,0,105,0,1,60487c3f3ae5a81d6f322d73,27,Mężczyzna,2022-06-04_08h43.11.015,task,2021.1.4,Win32,60.0240096,628b806c463b948bc644b84f,629afec08dc06083f04a4548,,,,,,,,,,,,,,,,,,,,,,,,,,,,,,,,,,,,,,,,,,,,,,,,,,,,,,,,,,,,,,,,,,,,,,,,,,,,,,,,,,,,,,,,,,,,,,,,,,,,,,,
,,"[""comma""]",0,[0.23399999999998045],106,0,106,0,1,60487c3f3ae5a81d6f322d73,27,Mężczyzna,2022-06-04_08h43.11.015,task,2021.1.4,Win32,60.0240096,628b806c463b948bc644b84f,629afec08dc06083f04a4548,,,,,,,,,,,,,,,,,,,,,,,,,,,,,,,,,,,,,,,,,,,,,,,,,,,,,,,,,,,,,,,,,,,,,,,,,,,,,,,,,,,,,,,,,,,,,,,,,,,,,,,
,,"[""comma""]",0,[0.18600000000003547],107,0,107,0,1,60487c3f3ae5a81d6f322d73,27,Mężczyzna,2022-06-04_08h43.11.015,task,2021.1.4,Win32,60.0240096,628b806c463b948bc644b84f,629afec08dc06083f04a4548,,,,,,,,,,,,,,,,,,,,,,,,,,,,,,,,,,,,,,,,,,,,,,,,,,,,,,,,,,,,,,,,,,,,,,,,,,,,,,,,,,,,,,,,,,,,,,,,,,,,,,,
,,"[""period"",""period""]",0,"[0.15999999999996817,1.6719999999999686]",108,0,108,0,1,60487c3f3ae5a81d6f322d73,27,Mężczyzna,2022-06-04_08h43.11.015,task,2021.1.4,Win32,60.0240096,628b806c463b948bc644b84f,629afec08dc06083f04a4548,,,,,,,,,,,,,,,,,,,,,,,,,,,,,,,,,,,,,,,,,,,,,,,,,,,,,,,,,,,,,,,,,,,,,,,,,,,,,,,,,,,,,,,,,,,,,,,,,,,,,,,
,,,0,,109,0,109,0,1,60487c3f3ae5a81d6f322d73,27,Mężczyzna,2022-06-04_08h43.11.015,task,2021.1.4,Win32,60.0240096,628b806c463b948bc644b84f,629afec08dc06083f04a4548,,,,,,,,,,,,,,,,,,,,,,,,,,,,,,,,,,,,,,,,,,,,,,,,,,,,,,,,,,,,,,,,,,,,,,,,,,,,,,,,,,,,,,,,,,,,,,,,,,,,,,,
,,"[""period""]",0,[0.2519999999999527],110,0,110,0,1,60487c3f3ae5a81d6f322d73,27,Mężczyzna,2022-06-04_08h43.11.015,task,2021.1.4,Win32,60.0240096,628b806c463b948bc644b84f,629afec08dc06083f04a4548,,,,,,,,,,,,,,,,,,,,,,,,,,,,,,,,,,,,,,,,,,,,,,,,,,,,,,,,,,,,,,,,,,,,,,,,,,,,,,,,,,,,,,,,,,,,,,,,,,,,,,,
,,"[""comma""]",0,[0.23999999999995225],111,0,111,0,1,60487c3f3ae5a81d6f322d73,27,Mężczyzna,2022-06-04_08h43.11.015,task,2021.1.4,Win32,60.0240096,628b806c463b948bc644b84f,629afec08dc06083f04a4548,,,,,,,,,,,,,,,,,,,,,,,,,,,,,,,,,,,,,,,,,,,,,,,,,,,,,,,,,,,,,,,,,,,,,,,,,,,,,,,,,,,,,,,,,,,,,,,,,,,,,,,
,,"[""period""]",0,[0.2179999999999609],112,0,112,0,1,60487c3f3ae5a81d6f322d73,27,Mężczyzna,2022-06-04_08h43.11.015,task,2021.1.4,Win32,60.0240096,628b806c463b948bc644b84f,629afec08dc06083f04a4548,,,,,,,,,,,,,,,,,,,,,,,,,,,,,,,,,,,,,,,,,,,,,,,,,,,,,,,,,,,,,,,,,,,,,,,,,,,,,,,,,,,,,,,,,,,,,,,,,,,,,,,
,,"[""comma""]",0,[0.19900000000001228],113,0,113,0,1,60487c3f3ae5a81d6f322d73,27,Mężczyzna,2022-06-04_08h43.11.015,task,2021.1.4,Win32,60.0240096,628b806c463b948bc644b84f,629afec08dc06083f04a4548,,,,,,,,,,,,,,,,,,,,,,,,,,,,,,,,,,,,,,,,,,,,,,,,,,,,,,,,,,,,,,,,,,,,,,,,,,,,,,,,,,,,,,,,,,,,,,,,,,,,,,,
,,"[""comma"",""period""]",0,"[0.06799999999998363,1.8239999999999554]",114,0,114,0,1,60487c3f3ae5a81d6f322d73,27,Mężczyzna,2022-06-04_08h43.11.015,task,2021.1.4,Win32,60.0240096,628b806c463b948bc644b84f,629afec08dc06083f04a4548,,,,,,,,,,,,,,,,,,,,,,,,,,,,,,,,,,,,,,,,,,,,,,,,,,,,,,,,,,,,,,,,,,,,,,,,,,,,,,,,,,,,,,,,,,,,,,,,,,,,,,,
,,,0,,115,0,115,0,1,60487c3f3ae5a81d6f322d73,27,Mężczyzna,2022-06-04_08h43.11.015,task,2021.1.4,Win32,60.0240096,628b806c463b948bc644b84f,629afec08dc06083f04a4548,,,,,,,,,,,,,,,,,,,,,,,,,,,,,,,,,,,,,,,,,,,,,,,,,,,,,,,,,,,,,,,,,,,,,,,,,,,,,,,,,,,,,,,,,,,,,,,,,,,,,,,
,,"[""period""]",0,[0.25099999999997635],116,0,116,0,1,60487c3f3ae5a81d6f322d73,27,Mężczyzna,2022-06-04_08h43.11.015,task,2021.1.4,Win32,60.0240096,628b806c463b948bc644b84f,629afec08dc06083f04a4548,,,,,,,,,,,,,,,,,,,,,,,,,,,,,,,,,,,,,,,,,,,,,,,,,,,,,,,,,,,,,,,,,,,,,,,,,,,,,,,,,,,,,,,,,,,,,,,,,,,,,,,
,,"[""comma""]",0,[0.367999999999995],117,0,117,0,1,60487c3f3ae5a81d6f322d73,27,Mężczyzna,2022-06-04_08h43.11.015,task,2021.1.4,Win32,60.0240096,628b806c463b948bc644b84f,629afec08dc06083f04a4548,,,,,,,,,,,,,,,,,,,,,,,,,,,,,,,,,,,,,,,,,,,,,,,,,,,,,,,,,,,,,,,,,,,,,,,,,,,,,,,,,,,,,,,,,,,,,,,,,,,,,,,
,,"[""period""]",0,[0.271000000000015],118,0,118,0,1,60487c3f3ae5a81d6f322d73,27,Mężczyzna,2022-06-04_08h43.11.015,task,2021.1.4,Win32,60.0240096,628b806c463b948bc644b84f,629afec08dc06083f04a4548,,,,,,,,,,,,,,,,,,,,,,,,,,,,,,,,,,,,,,,,,,,,,,,,,,,,,,,,,,,,,,,,,,,,,,,,,,,,,,,,,,,,,,,,,,,,,,,,,,,,,,,
,,"[""period""]",0,[0.32600000000002183],119,0,119,0,1,60487c3f3ae5a81d6f322d73,27,Mężczyzna,2022-06-04_08h43.11.015,task,2021.1.4,Win32,60.0240096,628b806c463b948bc644b84f,629afec08dc06083f04a4548,,,,,,,,,,,,,,,,,,,,,,,,,,,,,,,,,,,,,,,,,,,,,,,,,,,,,,,,,,,,,,,,,,,,,,,,,,,,,,,,,,,,,,,,,,,,,,,,,,,,,,,
,,,,,,,,,,60487c3f3ae5a81d6f322d73,27,Mężczyzna,2022-06-04_08h43.11.015,task,2021.1.4,Win32,60.0240096,628b806c463b948bc644b84f,629afec08dc06083f04a4548,space,18.66,space,6.254,0,0,0,0,1,X V Q F H G B L J M P D K C T S W R N Z,,,,,,,,,,,,,,,,,,,,,,,,,,,,,,,,,,,,,,,,,,,,,,,,,,,,,,,,,,,,,,,,,,,,,,,,,,,,,,,,,,,,,,,,,,,,,
,,,,,,,,,,60487c3f3ae5a81d6f322d73,27,Mężczyzna,2022-06-04_08h43.11.015,task,2021.1.4,Win32,60.0240096,628b806c463b948bc644b84f,629afec08dc06083f04a4548,,,,,1,0,1,0,1,X V Q F H G B L J M P D K C T S W R N Z,,,,,,,,,,,,,,,,,,,,,,,,,,,,,,,,,,,,,,,,,,,,,,,,,,,,,,,,,,,,,,,,,,,,,,,,,,,,,,,,,,,,,,,,,,,,,
,,,,,,,,,,60487c3f3ae5a81d6f322d73,27,Mężczyzna,2022-06-04_08h43.11.015,task,2021.1.4,Win32,60.0240096,628b806c463b948bc644b84f,629afec08dc06083f04a4548,,,,,,,,,,,zg,"[""z"",""g""]","[2.2600000000000477,2.708000000000027,4.420000000000016]",1,ZG,0,0,0,0,1,,,,,,,,,,,,,,,,,,,,,,,,,,,,,,,,,,,,,,,,,,,,,,,,,,,,,,,,,,,,,,,,,,,,,,,,,,,,,,,,,,,
,,,,,,,,,,60487c3f3ae5a81d6f322d73,27,Mężczyzna,2022-06-04_08h43.11.015,task,2021.1.4,Win32,60.0240096,628b806c463b948bc644b84f,629afec08dc06083f04a4548,,,,,0,0,0,0,1,X V Q F H G B L J M P D K C T S W R N Z,,,,,,,,,,,,,,,,,,,,,,,,,,,,,,,,,,,,,,,,,,,,,,,,,,,,,,,,,,,,,,,,,,,,,,,,,,,,,,,,,,,,,,,,,,,,,
,,,,,,,,,,60487c3f3ae5a81d6f322d73,27,Mężczyzna,2022-06-04_08h43.11.015,task,2021.1.4,Win32,60.0240096,628b806c463b948bc644b84f,629afec08dc06083f04a4548,,,,,1,0,1,0,1,X V Q F H G B L J M P D K C T S W R N Z,,,,,,,,,,,,,,,,,,,,,,,,,,,,,,,,,,,,,,,,,,,,,,,,,,,,,,,,,,,,,,,,,,,,,,,,,,,,,,,,,,,,,,,,,,,,,
,,,,,,,,,,60487c3f3ae5a81d6f322d73,27,Mężczyzna,2022-06-04_08h43.11.015,task,2021.1.4,Win32,60.0240096,628b806c463b948bc644b84f,629afec08dc06083f04a4548,,,,,,,,,,,gt,"[""g"",""t""]","[1.4230000000000018,1.5910000000000082,3.63900000000001]",1,GT,1,0,1,0,1,,,,,,,,,,,,,,,,,,,,,,,,,,,,,,,,,,,,,,,,,,,,,,,,,,,,,,,,,,,,,,,,,,,,,,,,,,,,,,,,,,,
,,,,,,,,,,60487c3f3ae5a81d6f322d73,27,Mężczyzna,2022-06-04_08h43.11.015,task,2021.1.4,Win32,60.0240096,628b806c463b948bc644b84f,629afec08dc06083f04a4548,,,,,0,0,0,0,1,X V Q F H G B L J M P D K C T S W R N Z,,,,,,,,,,,,,,,,,,,,,,,,,,,,,,,,,,,,,,,,,,,,,,,,,,,,,,,,,,,,,,,,,,,,,,,,,,,,,,,,,,,,,,,,,,,,,
,,,,,,,,,,60487c3f3ae5a81d6f322d73,27,Mężczyzna,2022-06-04_08h43.11.015,task,2021.1.4,Win32,60.0240096,628b806c463b948bc644b84f,629afec08dc06083f04a4548,,,,,1,0,1,0,1,X V Q F H G B L J M P D K C T S W R N Z,,,,,,,,,,,,,,,,,,,,,,,,,,,,,,,,,,,,,,,,,,,,,,,,,,,,,,,,,,,,,,,,,,,,,,,,,,,,,,,,,,,,,,,,,,,,,
,,,,,,,,,,60487c3f3ae5a81d6f322d73,27,Mężczyzna,2022-06-04_08h43.11.015,task,2021.1.4,Win32,60.0240096,628b806c463b948bc644b84f,629afec08dc06083f04a4548,,,,,2,0,2,0,1,X V Q F H G B L J M P D K C T S W R N Z,,,,,,,,,,,,,,,,,,,,,,,,,,,,,,,,,,,,,,,,,,,,,,,,,,,,,,,,,,,,,,,,,,,,,,,,,,,,,,,,,,,,,,,,,,,,,
,,,,,,,,,,60487c3f3ae5a81d6f322d73,27,Mężczyzna,2022-06-04_08h43.11.015,task,2021.1.4,Win32,60.0240096,628b806c463b948bc644b84f,629afec08dc06083f04a4548,,,,,,,,,,,fch,"[""f"",""c"",""h""]","[1.1990000000000123,1.5919999999999845,1.9279999999999973,3.66700000000003]",1,FCH,2,0,2,0,1,,,,,,,,,,,,,,,,,,,,,,,,,,,,,,,,,,,,,,,,,,,,,,,,,,,,,,,,,,,,,,,,,,,,,,,,,,,,,,,,,,,
,,,,,,,,,,60487c3f3ae5a81d6f322d73,27,Mężczyzna,2022-06-04_08h43.11.015,task,2021.1.4,Win32,60.0240096,628b806c463b948bc644b84f,629afec08dc06083f04a4548,,,,,0,0,0,0,1,X V Q F H G B L J M P D K C T S W R N Z,,,,,,,,,,,,,,,,,,,,,,,,,,,,,,,,,,,,,,,,,,,,,,,,,,,,,,,,,,,,,,,,,,,,,,,,,,,,,,,,,,,,,,,,,,,,,
,,,,,,,,,,60487c3f3ae5a81d6f322d73,27,Mężczyzna,2022-06-04_08h43.11.015,task,2021.1.4,Win32,60.0240096,628b806c463b948bc644b84f,629afec08dc06083f04a4548,,,,,1,0,1,0,1,X V Q F H G B L J M P D K C T S W R N Z,,,,,,,,,,,,,,,,,,,,,,,,,,,,,,,,,,,,,,,,,,,,,,,,,,,,,,,,,,,,,,,,,,,,,,,,,,,,,,,,,,,,,,,,,,,,,
,,,,,,,,,,60487c3f3ae5a81d6f322d73,27,Mężczyzna,2022-06-04_08h43.11.015,task,2021.1.4,Win32,60.0240096,628b806c463b948bc644b84f,629afec08dc06083f04a4548,,,,,2,0,2,0,1,X V Q F H G B L J M P D K C T S W R N Z,,,,,,,,,,,,,,,,,,,,,,,,,,,,,,,,,,,,,,,,,,,,,,,,,,,,,,,,,,,,,,,,,,,,,,,,,,,,,,,,,,,,,,,,,,,,,
,,,,,,,,,,60487c3f3ae5a81d6f322d73,27,Mężczyzna,2022-06-04_08h43.11.015,task,2021.1.4,Win32,60.0240096,628b806c463b948bc644b84f,629afec08dc06083f04a4548,,,,,,,,,,,nkf,"[""n"",""k"",""f""]","[0.9940000000000282,1.3170000000000073,2.30600000000004,3.2180000000000177]",1,NKF,3,0,3,0,1,,,,,,,,,,,,,,,,,,,,,,,,,,,,,,,,,,,,,,,,,,,,,,,,,,,,,,,,,,,,,,,,,,,,,,,,,,,,,,,,,,,
,,,,,,,,,,60487c3f3ae5a81d6f322d73,27,Mężczyzna,2022-06-04_08h43.11.015,task,2021.1.4,Win32,60.0240096,628b806c463b948bc644b84f,629afec08dc06083f04a4548,,,,,0,0,0,0,1,X V Q F H G B L J M P D K C T S W R N Z,,,,,,,,,,,,,,,,,,,,,,,,,,,,,,,,,,,,,,,,,,,,,,,,,,,,,,,,,,,,,,,,,,,,,,,,,,,,,,,,,,,,,,,,,,,,,
,,,,,,,,,,60487c3f3ae5a81d6f322d73,27,Mężczyzna,2022-06-04_08h43.11.015,task,2021.1.4,Win32,60.0240096,628b806c463b948bc644b84f,629afec08dc06083f04a4548,,,,,1,0,1,0,1,X V Q F H G B L J M P D K C T S W R N Z,,,,,,,,,,,,,,,,,,,,,,,,,,,,,,,,,,,,,,,,,,,,,,,,,,,,,,,,,,,,,,,,,,,,,,,,,,,,,,,,,,,,,,,,,,,,,
,,,,,,,,,,60487c3f3ae5a81d6f322d73,27,Mężczyzna,2022-06-04_08h43.11.015,task,2021.1.4,Win32,60.0240096,628b806c463b948bc644b84f,629afec08dc06083f04a4548,,,,,2,0,2,0,1,X V Q F H G B L J M P D K C T S W R N Z,,,,,,,,,,,,,,,,,,,,,,,,,,,,,,,,,,,,,,,,,,,,,,,,,,,,,,,,,,,,,,,,,,,,,,,,,,,,,,,,,,,,,,,,,,,,,
,,,,,,,,,,60487c3f3ae5a81d6f322d73,27,Mężczyzna,2022-06-04_08h43.11.015,task,2021.1.4,Win32,60.0240096,628b806c463b948bc644b84f,629afec08dc06083f04a4548,,,,,3,0,3,0,1,X V Q F H G B L J M P D K C T S W R N Z,,,,,,,,,,,,,,,,,,,,,,,,,,,,,,,,,,,,,,,,,,,,,,,,,,,,,,,,,,,,,,,,,,,,,,,,,,,,,,,,,,,,,,,,,,,,,
,,,,,,,,,,60487c3f3ae5a81d6f322d73,27,Mężczyzna,2022-06-04_08h43.11.015,task,2021.1.4,Win32,60.0240096,628b806c463b948bc644b84f,629afec08dc06083f04a4548,,,,,,,,,,,hgns,"[""h"",""g"",""n"",""s""]","[0.9099999999999682,1.1989999999999554,1.405999999999949,1.725999999999999,2.853999999999985]",1,HGNS,4,0,4,0,1,,,,,,,,,,,,,,,,,,,,,,,,,,,,,,,,,,,,,,,,,,,,,,,,,,,,,,,,,,,,,,,,,,,,,,,,,,,,,,,,,,,
,,,,,,,,,,60487c3f3ae5a81d6f322d73,27,Mężczyzna,2022-06-04_08h43.11.015,task,2021.1.4,Win32,60.0240096,628b806c463b948bc644b84f,629afec08dc06083f04a4548,,,,,0,0,0,0,1,X V Q F H G B L J M P D K C T S W R N Z,,,,,,,,,,,,,,,,,,,,,,,,,,,,,,,,,,,,,,,,,,,,,,,,,,,,,,,,,,,,,,,,,,,,,,,,,,,,,,,,,,,,,,,,,,,,,
,,,,,,,,,,60487c3f3ae5a81d6f322d73,27,Mężczyzna,2022-06-04_08h43.11.015,task,2021.1.4,Win32,60.0240096,628b806c463b948bc644b84f,629afec08dc06083f04a4548,,,,,1,0,1,0,1,X V Q F H G B L J M P D K C T S W R N Z,,,,,,,,,,,,,,,,,,,,,,,,,,,,,,,,,,,,,,,,,,,,,,,,,,,,,,,,,,,,,,,,,,,,,,,,,,,,,,,,,,,,,,,,,,,,,
,,,,,,,,,,60487c3f3ae5a81d6f322d73,27,Mężczyzna,2022-06-04_08h43.11.015,task,2021.1.4,Win32,60.0240096,628b806c463b948bc644b84f,629afec08dc06083f04a4548,,,,,2,0,2,0,1,X V Q F H G B L J M P D K C T S W R N Z,,,,,,,,,,,,,,,,,,,,,,,,,,,,,,,,,,,,,,,,,,,,,,,,,,,,,,,,,,,,,,,,,,,,,,,,,,,,,,,,,,,,,,,,,,,,,
,,,,,,,,,,60487c3f3ae5a81d6f322d73,27,Mężczyzna,2022-06-04_08h43.11.015,task,2021.1.4,Win32,60.0240096,628b806c463b948bc644b84f,629afec08dc06083f04a4548,,,,,3,0,3,0,1,X V Q F H G B L J M P D K C T S W R N Z,,,,,,,,,,,,,,,,,,,,,,,,,,,,,,,,,,,,,,,,,,,,,,,,,,,,,,,,,,,,,,,,,,,,,,,,,,,,,,,,,,,,,,,,,,,,,
,,,,,,,,,,60487c3f3ae5a81d6f322d73,27,Mężczyzna,2022-06-04_08h43.11.015,task,2021.1.4,Win32,60.0240096,628b806c463b948bc644b84f,629afec08dc06083f04a4548,,,,,,,,,,,hqdr,"[""h"",""q"",""d"",""r""]","[1.035000000000025,1.4669999999999845,1.6999999999999886,1.9239999999999782,2.9080000000000155]",1,HQDR,5,0,5,0,1,,,,,,,,,,,,,,,,,,,,,,,,,,,,,,,,,,,,,,,,,,,,,,,,,,,,,,,,,,,,,,,,,,,,,,,,,,,,,,,,,,,
,,,,,,,,,,60487c3f3ae5a81d6f322d73,27,Mężczyzna,2022-06-04_08h43.11.015,task,2021.1.4,Win32,60.0240096,628b806c463b948bc644b84f,629afec08dc06083f04a4548,,,,,0,0,0,0,1,X V Q F H G B L J M P D K C T S W R N Z,,,,,,,,,,,,,,,,,,,,,,,,,,,,,,,,,,,,,,,,,,,,,,,,,,,,,,,,,,,,,,,,,,,,,,,,,,,,,,,,,,,,,,,,,,,,,
,,,,,,,,,,60487c3f3ae5a81d6f322d73,27,Mężczyzna,2022-06-04_08h43.11.015,task,2021.1.4,Win32,60.0240096,628b806c463b948bc644b84f,629afec08dc06083f04a4548,,,,,1,0,1,0,1,X V Q F H G B L J M P D K C T S W R N Z,,,,,,,,,,,,,,,,,,,,,,,,,,,,,,,,,,,,,,,,,,,,,,,,,,,,,,,,,,,,,,,,,,,,,,,,,,,,,,,,,,,,,,,,,,,,,
,,,,,,,,,,60487c3f3ae5a81d6f322d73,27,Mężczyzna,2022-06-04_08h43.11.015,task,2021.1.4,Win32,60.0240096,628b806c463b948bc644b84f,629afec08dc06083f04a4548,,,,,2,0,2,0,1,X V Q F H G B L J M P D K C T S W R N Z,,,,,,,,,,,,,,,,,,,,,,,,,,,,,,,,,,,,,,,,,,,,,,,,,,,,,,,,,,,,,,,,,,,,,,,,,,,,,,,,,,,,,,,,,,,,,
,,,,,,,,,,60487c3f3ae5a81d6f322d73,27,Mężczyzna,2022-06-04_08h43.11.015,task,2021.1.4,Win32,60.0240096,628b806c463b948bc644b84f,629afec08dc06083f04a4548,,,,,3,0,3,0,1,X V Q F H G B L J M P D K C T S W R N Z,,,,,,,,,,,,,,,,,,,,,,,,,,,,,,,,,,,,,,,,,,,,,,,,,,,,,,,,,,,,,,,,,,,,,,,,,,,,,,,,,,,,,,,,,,,,,
,,,,,,,,,,60487c3f3ae5a81d6f322d73,27,Mężczyzna,2022-06-04_08h43.11.015,task,2021.1.4,Win32,60.0240096,628b806c463b948bc644b84f,629afec08dc06083f04a4548,,,,,4,0,4,0,1,X V Q F H G B L J M P D K C T S W R N Z,,,,,,,,,,,,,,,,,,,,,,,,,,,,,,,,,,,,,,,,,,,,,,,,,,,,,,,,,,,,,,,,,,,,,,,,,,,,,,,,,,,,,,,,,,,,,
,,,,,,,,,,60487c3f3ae5a81d6f322d73,27,Mężczyzna,2022-06-04_08h43.11.015,task,2021.1.4,Win32,60.0240096,628b806c463b948bc644b84f,629afec08dc06083f04a4548,,,,,,,,,,,rxvbf,"[""r"",""x"",""v"",""b"",""f""]","[1.1859999999999786,1.6829999999999927,2.100999999999999,2.578999999999951,3.065999999999974,4.186999999999955]",1,RXVBF,6,0,6,0,1,,,,,,,,,,,,,,,,,,,,,,,,,,,,,,,,,,,,,,,,,,,,,,,,,,,,,,,,,,,,,,,,,,,,,,,,,,,,,,,,,,,
,,,,,,,,,,60487c3f3ae5a81d6f322d73,27,Mężczyzna,2022-06-04_08h43.11.015,task,2021.1.4,Win32,60.0240096,628b806c463b948bc644b84f,629afec08dc06083f04a4548,,,,,0,0,0,0,1,X V Q F H G B L J M P D K C T S W R N Z,,,,,,,,,,,,,,,,,,,,,,,,,,,,,,,,,,,,,,,,,,,,,,,,,,,,,,,,,,,,,,,,,,,,,,,,,,,,,,,,,,,,,,,,,,,,,
,,,,,,,,,,60487c3f3ae5a81d6f322d73,27,Mężczyzna,2022-06-04_08h43.11.015,task,2021.1.4,Win32,60.0240096,628b806c463b948bc644b84f,629afec08dc06083f04a4548,,,,,1,0,1,0,1,X V Q F H G B L J M P D K C T S W R N Z,,,,,,,,,,,,,,,,,,,,,,,,,,,,,,,,,,,,,,,,,,,,,,,,,,,,,,,,,,,,,,,,,,,,,,,,,,,,,,,,,,,,,,,,,,,,,
,,,,,,,,,,60487c3f3ae5a81d6f322d73,27,Mężczyzna,2022-06-04_08h43.11.015,task,2021.1.4,Win32,60.0240096,628b806c463b948bc644b84f,629afec08dc06083f04a4548,,,,,2,0,2,0,1,X V Q F H G B L J M P D K C T S W R N Z,,,,,,,,,,,,,,,,,,,,,,,,,,,,,,,,,,,,,,,,,,,,,,,,,,,,,,,,,,,,,,,,,,,,,,,,,,,,,,,,,,,,,,,,,,,,,
,,,,,,,,,,60487c3f3ae5a81d6f322d73,27,Mężczyzna,2022-06-04_08h43.11.015,task,2021.1.4,Win32,60.0240096,628b806c463b948bc644b84f,629afec08dc06083f04a4548,,,,,3,0,3,0,1,X V Q F H G B L J M P D K C T S W R N Z,,,,,,,,,,,,,,,,,,,,,,,,,,,,,,,,,,,,,,,,,,,,,,,,,,,,,,,,,,,,,,,,,,,,,,,,,,,,,,,,,,,,,,,,,,,,,
,,,,,,,,,,60487c3f3ae5a81d6f322d73,27,Mężczyzna,2022-06-04_08h43.11.015,task,2021.1.4,Win32,60.0240096,628b806c463b948bc644b84f,629afec08dc06083f04a4548,,,,,4,0,4,0,1,X V Q F H G B L J M P D K C T S W R N Z,,,,,,,,,,,,,,,,,,,,,,,,,,,,,,,,,,,,,,,,,,,,,,,,,,,,,,,,,,,,,,,,,,,,,,,,,,,,,,,,,,,,,,,,,,,,,
,,,,,,,,,,60487c3f3ae5a81d6f322d73,27,Mężczyzna,2022-06-04_08h43.11.015,task,2021.1.4,Win32,60.0240096,628b806c463b948bc644b84f,629afec08dc06083f04a4548,,,,,,,,,,,cxrxz,"[""c"",""x"",""r"",""x"",""z""]","[2.291999999999973,2.603999999999985,3.197999999999979,3.755999999999972,4.197999999999979,6.1650000000000205]",1,CXRXZ,7,0,7,0,1,,,,,,,,,,,,,,,,,,,,,,,,,,,,,,,,,,,,,,,,,,,,,,,,,,,,,,,,,,,,,,,,,,,,,,,,,,,,,,,,,,,
,,,,,,,,,,60487c3f3ae5a81d6f322d73,27,Mężczyzna,2022-06-04_08h43.11.015,task,2021.1.4,Win32,60.0240096,628b806c463b948bc644b84f,629afec08dc06083f04a4548,,,,,0,0,0,0,1,X V Q F H G B L J M P D K C T S W R N Z,,,,,,,,,,,,,,,,,,,,,,,,,,,,,,,,,,,,,,,,,,,,,,,,,,,,,,,,,,,,,,,,,,,,,,,,,,,,,,,,,,,,,,,,,,,,,
,,,,,,,,,,60487c3f3ae5a81d6f322d73,27,Mężczyzna,2022-06-04_08h43.11.015,task,2021.1.4,Win32,60.0240096,628b806c463b948bc644b84f,629afec08dc06083f04a4548,,,,,1,0,1,0,1,X V Q F H G B L J M P D K C T S W R N Z,,,,,,,,,,,,,,,,,,,,,,,,,,,,,,,,,,,,,,,,,,,,,,,,,,,,,,,,,,,,,,,,,,,,,,,,,,,,,,,,,,,,,,,,,,,,,
,,,,,,,,,,60487c3f3ae5a81d6f322d73,27,Mężczyzna,2022-06-04_08h43.11.015,task,2021.1.4,Win32,60.0240096,628b806c463b948bc644b84f,629afec08dc06083f04a4548,,,,,2,0,2,0,1,X V Q F H G B L J M P D K C T S W R N Z,,,,,,,,,,,,,,,,,,,,,,,,,,,,,,,,,,,,,,,,,,,,,,,,,,,,,,,,,,,,,,,,,,,,,,,,,,,,,,,,,,,,,,,,,,,,,
,,,,,,,,,,60487c3f3ae5a81d6f322d73,27,Mężczyzna,2022-06-04_08h43.11.015,task,2021.1.4,Win32,60.0240096,628b806c463b948bc644b84f,629afec08dc06083f04a4548,,,,,3,0,3,0,1,X V Q F H G B L J M P D K C T S W R N Z,,,,,,,,,,,,,,,,,,,,,,,,,,,,,,,,,,,,,,,,,,,,,,,,,,,,,,,,,,,,,,,,,,,,,,,,,,,,,,,,,,,,,,,,,,,,,
,,,,,,,,,,60487c3f3ae5a81d6f322d73,27,Mężczyzna,2022-06-04_08h43.11.015,task,2021.1.4,Win32,60.0240096,628b806c463b948bc644b84f,629afec08dc06083f04a4548,,,,,4,0,4,0,1,X V Q F H G B L J M P D K C T S W R N Z,,,,,,,,,,,,,,,,,,,,,,,,,,,,,,,,,,,,,,,,,,,,,,,,,,,,,,,,,,,,,,,,,,,,,,,,,,,,,,,,,,,,,,,,,,,,,
,,,,,,,,,,60487c3f3ae5a81d6f322d73,27,Mężczyzna,2022-06-04_08h43.11.015,task,2021.1.4,Win32,60.0240096,628b806c463b948bc644b84f,629afec08dc06083f04a4548,,,,,5,0,5,0,1,X V Q F H G B L J M P D K C T S W R N Z,,,,,,,,,,,,,,,,,,,,,,,,,,,,,,,,,,,,,,,,,,,,,,,,,,,,,,,,,,,,,,,,,,,,,,,,,,,,,,,,,,,,,,,,,,,,,
,,,,,,,,,,60487c3f3ae5a81d6f322d73,27,Mężczyzna,2022-06-04_08h43.11.015,task,2021.1.4,Win32,60.0240096,628b806c463b948bc644b84f,629afec08dc06083f04a4548,,,,,,,,,,,rwsksz,"[""r"",""w"",""s"",""k"",""s"",""z""]","[2.910000000000025,3.2530000000000427,3.65300000000002,4.5330000000000155,5.157000000000039,5.662000000000035,6.93300000000005]",1,RWSKSZ,8,0,8,0,1,,,,,,,,,,,,,,,,,,,,,,,,,,,,,,,,,,,,,,,,,,,,,,,,,,,,,,,,,,,,,,,,,,,,,,,,,,,,,,,,,,,
,,,,,,,,,,60487c3f3ae5a81d6f322d73,27,Mężczyzna,2022-06-04_08h43.11.015,task,2021.1.4,Win32,60.0240096,628b806c463b948bc644b84f,629afec08dc06083f04a4548,,,,,0,0,0,0,1,X V Q F H G B L J M P D K C T S W R N Z,,,,,,,,,,,,,,,,,,,,,,,,,,,,,,,,,,,,,,,,,,,,,,,,,,,,,,,,,,,,,,,,,,,,,,,,,,,,,,,,,,,,,,,,,,,,,
,,,,,,,,,,60487c3f3ae5a81d6f322d73,27,Mężczyzna,2022-06-04_08h43.11.015,task,2021.1.4,Win32,60.0240096,628b806c463b948bc644b84f,629afec08dc06083f04a4548,,,,,1,0,1,0,1,X V Q F H G B L J M P D K C T S W R N Z,,,,,,,,,,,,,,,,,,,,,,,,,,,,,,,,,,,,,,,,,,,,,,,,,,,,,,,,,,,,,,,,,,,,,,,,,,,,,,,,,,,,,,,,,,,,,
,,,,,,,,,,60487c3f3ae5a81d6f322d73,27,Mężczyzna,2022-06-04_08h43.11.015,task,2021.1.4,Win32,60.0240096,628b806c463b948bc644b84f,629afec08dc06083f04a4548,,,,,2,0,2,0,1,X V Q F H G B L J M P D K C T S W R N Z,,,,,,,,,,,,,,,,,,,,,,,,,,,,,,,,,,,,,,,,,,,,,,,,,,,,,,,,,,,,,,,,,,,,,,,,,,,,,,,,,,,,,,,,,,,,,
,,,,,,,,,,60487c3f3ae5a81d6f322d73,27,Mężczyzna,2022-06-04_08h43.11.015,task,2021.1.4,Win32,60.0240096,628b806c463b948bc644b84f,629afec08dc06083f04a4548,,,,,3,0,3,0,1,X V Q F H G B L J M P D K C T S W R N Z,,,,,,,,,,,,,,,,,,,,,,,,,,,,,,,,,,,,,,,,,,,,,,,,,,,,,,,,,,,,,,,,,,,,,,,,,,,,,,,,,,,,,,,,,,,,,
,,,,,,,,,,60487c3f3ae5a81d6f322d73,27,Mężczyzna,2022-06-04_08h43.11.015,task,2021.1.4,Win32,60.0240096,628b806c463b948bc644b84f,629afec08dc06083f04a4548,,,,,4,0,4,0,1,X V Q F H G B L J M P D K C T S W R N Z,,,,,,,,,,,,,,,,,,,,,,,,,,,,,,,,,,,,,,,,,,,,,,,,,,,,,,,,,,,,,,,,,,,,,,,,,,,,,,,,,,,,,,,,,,,,,
,,,,,,,,,,60487c3f3ae5a81d6f322d73,27,Mężczyzna,2022-06-04_08h43.11.015,task,2021.1.4,Win32,60.0240096,628b806c463b948bc644b84f,629afec08dc06083f04a4548,,,,,5,0,5,0,1,X V Q F H G B L J M P D K C T S W R N Z,,,,,,,,,,,,,,,,,,,,,,,,,,,,,,,,,,,,,,,,,,,,,,,,,,,,,,,,,,,,,,,,,,,,,,,,,,,,,,,,,,,,,,,,,,,,,
,,,,,,,,,,60487c3f3ae5a81d6f322d73,27,Mężczyzna,2022-06-04_08h43.11.015,task,2021.1.4,Win32,60.0240096,628b806c463b948bc644b84f,629afec08dc06083f04a4548,,,,,,,,,,,tnfdnk,"[""t"",""n"",""f"",""d"",""n"",""k""]","[2.2660000000000196,2.8700000000000045,4.3910000000000196,5.7339999999999804,5.9909999999999854,6.269999999999982,7.295000000000016]",1,TNFDNK,9,0,9,0,1,,,,,,,,,,,,,,,,,,,,,,,,,,,,,,,,,,,,,,,,,,,,,,,,,,,,,,,,,,,,,,,,,,,,,,,,,,,,,,,,,,,
,,,,,,,,,,60487c3f3ae5a81d6f322d73,27,Mężczyzna,2022-06-04_08h43.11.015,task,2021.1.4,Win32,60.0240096,628b806c463b948bc644b84f,629afec08dc06083f04a4548,,,,,0,0,0,0,1,X V Q F H G B L J M P D K C T S W R N Z,,,,,,,,,,,,,,,,,,,,,,,,,,,,,,,,,,,,,,,,,,,,,,,,,,,,,,,,,,,,,,,,,,,,,,,,,,,,,,,,,,,,,,,,,,,,,
,,,,,,,,,,60487c3f3ae5a81d6f322d73,27,Mężczyzna,2022-06-04_08h43.11.015,task,2021.1.4,Win32,60.0240096,628b806c463b948bc644b84f,629afec08dc06083f04a4548,,,,,1,0,1,0,1,X V Q F H G B L J M P D K C T S W R N Z,,,,,,,,,,,,,,,,,,,,,,,,,,,,,,,,,,,,,,,,,,,,,,,,,,,,,,,,,,,,,,,,,,,,,,,,,,,,,,,,,,,,,,,,,,,,,
,,,,,,,,,,60487c3f3ae5a81d6f322d73,27,Mężczyzna,2022-06-04_08h43.11.015,task,2021.1.4,Win32,60.0240096,628b806c463b948bc644b84f,629afec08dc06083f04a4548,,,,,2,0,2,0,1,X V Q F H G B L J M P D K C T S W R N Z,,,,,,,,,,,,,,,,,,,,,,,,,,,,,,,,,,,,,,,,,,,,,,,,,,,,,,,,,,,,,,,,,,,,,,,,,,,,,,,,,,,,,,,,,,,,,
,,,,,,,,,,60487c3f3ae5a81d6f322d73,27,Mężczyzna,2022-06-04_08h43.11.015,task,2021.1.4,Win32,60.0240096,628b806c463b948bc644b84f,629afec08dc06083f04a4548,,,,,3,0,3,0,1,X V Q F H G B L J M P D K C T S W R N Z,,,,,,,,,,,,,,,,,,,,,,,,,,,,,,,,,,,,,,,,,,,,,,,,,,,,,,,,,,,,,,,,,,,,,,,,,,,,,,,,,,,,,,,,,,,,,
,,,,,,,,,,60487c3f3ae5a81d6f322d73,27,Mężczyzna,2022-06-04_08h43.11.015,task,2021.1.4,Win32,60.0240096,628b806c463b948bc644b84f,629afec08dc06083f04a4548,,,,,4,0,4,0,1,X V Q F H G B L J M P D K C T S W R N Z,,,,,,,,,,,,,,,,,,,,,,,,,,,,,,,,,,,,,,,,,,,,,,,,,,,,,,,,,,,,,,,,,,,,,,,,,,,,,,,,,,,,,,,,,,,,,
,,,,,,,,,,60487c3f3ae5a81d6f322d73,27,Mężczyzna,2022-06-04_08h43.11.015,task,2021.1.4,Win32,60.0240096,628b806c463b948bc644b84f,629afec08dc06083f04a4548,,,,,5,0,5,0,1,X V Q F H G B L J M P D K C T S W R N Z,,,,,,,,,,,,,,,,,,,,,,,,,,,,,,,,,,,,,,,,,,,,,,,,,,,,,,,,,,,,,,,,,,,,,,,,,,,,,,,,,,,,,,,,,,,,,
,,,,,,,,,,60487c3f3ae5a81d6f322d73,27,Mężczyzna,2022-06-04_08h43.11.015,task,2021.1.4,Win32,60.0240096,628b806c463b948bc644b84f,629afec08dc06083f04a4548,,,,,6,0,6,0,1,X V Q F H G B L J M P D K C T S W R N Z,,,,,,,,,,,,,,,,,,,,,,,,,,,,,,,,,,,,,,,,,,,,,,,,,,,,,,,,,,,,,,,,,,,,,,,,,,,,,,,,,,,,,,,,,,,,,
,,,,,,,,,,60487c3f3ae5a81d6f322d73,27,Mężczyzna,2022-06-04_08h43.11.015,task,2021.1.4,Win32,60.0240096,628b806c463b948bc644b84f,629afec08dc06083f04a4548,,,,,,,,,,,xwvrnmk,"[""x"",""w"",""v"",""r"",""n"",""m"",""k""]","[2.8029999999999973,3.4499999999999886,4.650000000000034,6.1340000000000146,6.816000000000031,9.238,9.551000000000045,10.310000000000002]",1,XWVRNMK,10,0,10,0,1,,,,,,,,,,,,,,,,,,,,,,,,,,,,,,,,,,,,,,,,,,,,,,,,,,,,,,,,,,,,,,,,,,,,,,,,,,,,,,,,,,,
,,,,,,,,,,60487c3f3ae5a81d6f322d73,27,Mężczyzna,2022-06-04_08h43.11.015,task,2021.1.4,Win32,60.0240096,628b806c463b948bc644b84f,629afec08dc06083f04a4548,,,,,0,0,0,0,1,X V Q F H G B L J M P D K C T S W R N Z,,,,,,,,,,,,,,,,,,,,,,,,,,,,,,,,,,,,,,,,,,,,,,,,,,,,,,,,,,,,,,,,,,,,,,,,,,,,,,,,,,,,,,,,,,,,,
,,,,,,,,,,60487c3f3ae5a81d6f322d73,27,Mężczyzna,2022-06-04_08h43.11.015,task,2021.1.4,Win32,60.0240096,628b806c463b948bc644b84f,629afec08dc06083f04a4548,,,,,1,0,1,0,1,X V Q F H G B L J M P D K C T S W R N Z,,,,,,,,,,,,,,,,,,,,,,,,,,,,,,,,,,,,,,,,,,,,,,,,,,,,,,,,,,,,,,,,,,,,,,,,,,,,,,,,,,,,,,,,,,,,,
,,,,,,,,,,60487c3f3ae5a81d6f322d73,27,Mężczyzna,2022-06-04_08h43.11.015,task,2021.1.4,Win32,60.0240096,628b806c463b948bc644b84f,629afec08dc06083f04a4548,,,,,2,0,2,0,1,X V Q F H G B L J M P D K C T S W R N Z,,,,,,,,,,,,,,,,,,,,,,,,,,,,,,,,,,,,,,,,,,,,,,,,,,,,,,,,,,,,,,,,,,,,,,,,,,,,,,,,,,,,,,,,,,,,,
,,,,,,,,,,60487c3f3ae5a81d6f322d73,27,Mężczyzna,2022-06-04_08h43.11.015,task,2021.1.4,Win32,60.0240096,628b806c463b948bc644b84f,629afec08dc06083f04a4548,,,,,3,0,3,0,1,X V Q F H G B L J M P D K C T S W R N Z,,,,,,,,,,,,,,,,,,,,,,,,,,,,,,,,,,,,,,,,,,,,,,,,,,,,,,,,,,,,,,,,,,,,,,,,,,,,,,,,,,,,,,,,,,,,,
,,,,,,,,,,60487c3f3ae5a81d6f322d73,27,Mężczyzna,2022-06-04_08h43.11.015,task,2021.1.4,Win32,60.0240096,628b806c463b948bc644b84f,629afec08dc06083f04a4548,,,,,4,0,4,0,1,X V Q F H G B L J M P D K C T S W R N Z,,,,,,,,,,,,,,,,,,,,,,,,,,,,,,,,,,,,,,,,,,,,,,,,,,,,,,,,,,,,,,,,,,,,,,,,,,,,,,,,,,,,,,,,,,,,,
,,,,,,,,,,60487c3f3ae5a81d6f322d73,27,Mężczyzna,2022-06-04_08h43.11.015,task,2021.1.4,Win32,60.0240096,628b806c463b948bc644b84f,629afec08dc06083f04a4548,,,,,5,0,5,0,1,X V Q F H G B L J M P D K C T S W R N Z,,,,,,,,,,,,,,,,,,,,,,,,,,,,,,,,,,,,,,,,,,,,,,,,,,,,,,,,,,,,,,,,,,,,,,,,,,,,,,,,,,,,,,,,,,,,,
,,,,,,,,,,60487c3f3ae5a81d6f322d73,27,Mężczyzna,2022-06-04_08h43.11.015,task,2021.1.4,Win32,60.0240096,628b806c463b948bc644b84f,629afec08dc06083f04a4548,,,,,6,0,6,0,1,X V Q F H G B L J M P D K C T S W R N Z,,,,,,,,,,,,,,,,,,,,,,,,,,,,,,,,,,,,,,,,,,,,,,,,,,,,,,,,,,,,,,,,,,,,,,,,,,,,,,,,,,,,,,,,,,,,,
,,,,,,,,,,60487c3f3ae5a81d6f322d73,27,Mężczyzna,2022-06-04_08h43.11.015,task,2021.1.4,Win32,60.0240096,628b806c463b948bc644b84f,629afec08dc06083f04a4548,,,,,,,,,,,kgzdtlq,"[""k"",""g"",""z"",""d"",""t"",""l"",""q""]","[3.733000000000004,4.475999999999999,4.852000000000032,5.668000000000006,5.876000000000033,6.367999999999995,7.989000000000033,9.100000000000023]",1,KGZDTLQ,11,0,11,0,1,,,,,,,,,,,,,,,,,,,,,,,,,,,,,,,,,,,,,,,,,,,,,,,,,,,,,,,,,,,,,,,,,,,,,,,,,,,,,,,,,,,
,,,,,,,,,,60487c3f3ae5a81d6f322d73,27,Mężczyzna,2022-06-04_08h43.11.015,task,2021.1.4,Win32,60.0240096,628b806c463b948bc644b84f,629afec08dc06083f04a4548,,,,,0,0,0,0,1,X V Q F H G B L J M P D K C T S W R N Z,,,,,,,,,,,,,,,,,,,,,,,,,,,,,,,,,,,,,,,,,,,,,,,,,,,,,,,,,,,,,,,,,,,,,,,,,,,,,,,,,,,,,,,,,,,,,
,,,,,,,,,,60487c3f3ae5a81d6f322d73,27,Mężczyzna,2022-06-04_08h43.11.015,task,2021.1.4,Win32,60.0240096,628b806c463b948bc644b84f,629afec08dc06083f04a4548,,,,,1,0,1,0,1,X V Q F H G B L J M P D K C T S W R N Z,,,,,,,,,,,,,,,,,,,,,,,,,,,,,,,,,,,,,,,,,,,,,,,,,,,,,,,,,,,,,,,,,,,,,,,,,,,,,,,,,,,,,,,,,,,,,
,,,,,,,,,,60487c3f3ae5a81d6f322d73,27,Mężczyzna,2022-06-04_08h43.11.015,task,2021.1.4,Win32,60.0240096,628b806c463b948bc644b84f,629afec08dc06083f04a4548,,,,,2,0,2,0,1,X V Q F H G B L J M P D K C T S W R N Z,,,,,,,,,,,,,,,,,,,,,,,,,,,,,,,,,,,,,,,,,,,,,,,,,,,,,,,,,,,,,,,,,,,,,,,,,,,,,,,,,,,,,,,,,,,,,
,,,,,,,,,,60487c3f3ae5a81d6f322d73,27,Mężczyzna,2022-06-04_08h43.11.015,task,2021.1.4,Win32,60.0240096,628b806c463b948bc644b84f,629afec08dc06083f04a4548,,,,,3,0,3,0,1,X V Q F H G B L J M P D K C T S W R N Z,,,,,,,,,,,,,,,,,,,,,,,,,,,,,,,,,,,,,,,,,,,,,,,,,,,,,,,,,,,,,,,,,,,,,,,,,,,,,,,,,,,,,,,,,,,,,
,,,,,,,,,,60487c3f3ae5a81d6f322d73,27,Mężczyzna,2022-06-04_08h43.11.015,task,2021.1.4,Win32,60.0240096,628b806c463b948bc644b84f,629afec08dc06083f04a4548,,,,,4,0,4,0,1,X V Q F H G B L J M P D K C T S W R N Z,,,,,,,,,,,,,,,,,,,,,,,,,,,,,,,,,,,,,,,,,,,,,,,,,,,,,,,,,,,,,,,,,,,,,,,,,,,,,,,,,,,,,,,,,,,,,
,,,,,,,,,,60487c3f3ae5a81d6f322d73,27,Mężczyzna,2022-06-04_08h43.11.015,task,2021.1.4,Win32,60.0240096,628b806c463b948bc644b84f,629afec08dc06083f04a4548,,,,,5,0,5,0,1,X V Q F H G B L J M P D K C T S W R N Z,,,,,,,,,,,,,,,,,,,,,,,,,,,,,,,,,,,,,,,,,,,,,,,,,,,,,,,,,,,,,,,,,,,,,,,,,,,,,,,,,,,,,,,,,,,,,
,,,,,,,,,,60487c3f3ae5a81d6f322d73,27,Mężczyzna,2022-06-04_08h43.11.015,task,2021.1.4,Win32,60.0240096,628b806c463b948bc644b84f,629afec08dc06083f04a4548,,,,,6,0,6,0,1,X V Q F H G B L J M P D K C T S W R N Z,,,,,,,,,,,,,,,,,,,,,,,,,,,,,,,,,,,,,,,,,,,,,,,,,,,,,,,,,,,,,,,,,,,,,,,,,,,,,,,,,,,,,,,,,,,,,
,,,,,,,,,,60487c3f3ae5a81d6f322d73,27,Mężczyzna,2022-06-04_08h43.11.015,task,2021.1.4,Win32,60.0240096,628b806c463b948bc644b84f,629afec08dc06083f04a4548,,,,,7,0,7,0,1,X V Q F H G B L J M P D K C T S W R N Z,,,,,,,,,,,,,,,,,,,,,,,,,,,,,,,,,,,,,,,,,,,,,,,,,,,,,,,,,,,,,,,,,,,,,,,,,,,,,,,,,,,,,,,,,,,,,
,,,,,,,,,,60487c3f3ae5a81d6f322d73,27,Mężczyzna,2022-06-04_08h43.11.015,task,2021.1.4,Win32,60.0240096,628b806c463b948bc644b84f,629afec08dc06083f04a4548,,,,,,,,,,,qlhflcln,"[""q"",""l"",""h"",""f"",""l"",""c"",""l"",""n""]","[3.033999999999992,3.6340000000000146,4.287000000000035,5.855000000000018,6.278999999999996,6.959000000000003,7.287000000000035,7.711000000000013,9.033000000000015]",0,QLHFLNCL,12,0,12,0,1,,,,,,,,,,,,,,,,,,,,,,,,,,,,,,,,,,,,,,,,,,,,,,,,,,,,,,,,,,,,,,,,,,,,,,,,,,,,,,,,,,,
,,,,,,,,,,60487c3f3ae5a81d6f322d73,27,Mężczyzna,2022-06-04_08h43.11.015,task,2021.1.4,Win32,60.0240096,628b806c463b948bc644b84f,629afec08dc06083f04a4548,,,,,0,0,0,0,1,X V Q F H G B L J M P D K C T S W R N Z,,,,,,,,,,,,,,,,,,,,,,,,,,,,,,,,,,,,,,,,,,,,,,,,,,,,,,,,,,,,,,,,,,,,,,,,,,,,,,,,,,,,,,,,,,,,,
,,,,,,,,,,60487c3f3ae5a81d6f322d73,27,Mężczyzna,2022-06-04_08h43.11.015,task,2021.1.4,Win32,60.0240096,628b806c463b948bc644b84f,629afec08dc06083f04a4548,,,,,1,0,1,0,1,X V Q F H G B L J M P D K C T S W R N Z,,,,,,,,,,,,,,,,,,,,,,,,,,,,,,,,,,,,,,,,,,,,,,,,,,,,,,,,,,,,,,,,,,,,,,,,,,,,,,,,,,,,,,,,,,,,,
,,,,,,,,,,60487c3f3ae5a81d6f322d73,27,Mężczyzna,2022-06-04_08h43.11.015,task,2021.1.4,Win32,60.0240096,628b806c463b948bc644b84f,629afec08dc06083f04a4548,,,,,2,0,2,0,1,X V Q F H G B L J M P D K C T S W R N Z,,,,,,,,,,,,,,,,,,,,,,,,,,,,,,,,,,,,,,,,,,,,,,,,,,,,,,,,,,,,,,,,,,,,,,,,,,,,,,,,,,,,,,,,,,,,,
,,,,,,,,,,60487c3f3ae5a81d6f322d73,27,Mężczyzna,2022-06-04_08h43.11.015,task,2021.1.4,Win32,60.0240096,628b806c463b948bc644b84f,629afec08dc06083f04a4548,,,,,3,0,3,0,1,X V Q F H G B L J M P D K C T S W R N Z,,,,,,,,,,,,,,,,,,,,,,,,,,,,,,,,,,,,,,,,,,,,,,,,,,,,,,,,,,,,,,,,,,,,,,,,,,,,,,,,,,,,,,,,,,,,,
,,,,,,,,,,60487c3f3ae5a81d6f322d73,27,Mężczyzna,2022-06-04_08h43.11.015,task,2021.1.4,Win32,60.0240096,628b806c463b948bc644b84f,629afec08dc06083f04a4548,,,,,4,0,4,0,1,X V Q F H G B L J M P D K C T S W R N Z,,,,,,,,,,,,,,,,,,,,,,,,,,,,,,,,,,,,,,,,,,,,,,,,,,,,,,,,,,,,,,,,,,,,,,,,,,,,,,,,,,,,,,,,,,,,,
,,,,,,,,,,60487c3f3ae5a81d6f322d73,27,Mężczyzna,2022-06-04_08h43.11.015,task,2021.1.4,Win32,60.0240096,628b806c463b948bc644b84f,629afec08dc06083f04a4548,,,,,5,0,5,0,1,X V Q F H G B L J M P D K C T S W R N Z,,,,,,,,,,,,,,,,,,,,,,,,,,,,,,,,,,,,,,,,,,,,,,,,,,,,,,,,,,,,,,,,,,,,,,,,,,,,,,,,,,,,,,,,,,,,,
,,,,,,,,,,60487c3f3ae5a81d6f322d73,27,Mężczyzna,2022-06-04_08h43.11.015,task,2021.1.4,Win32,60.0240096,628b806c463b948bc644b84f,629afec08dc06083f04a4548,,,,,6,0,6,0,1,X V Q F H G B L J M P D K C T S W R N Z,,,,,,,,,,,,,,,,,,,,,,,,,,,,,,,,,,,,,,,,,,,,,,,,,,,,,,,,,,,,,,,,,,,,,,,,,,,,,,,,,,,,,,,,,,,,,
,,,,,,,,,,60487c3f3ae5a81d6f322d73,27,Mężczyzna,2022-06-04_08h43.11.015,task,2021.1.4,Win32,60.0240096,628b806c463b948bc644b84f,629afec08dc06083f04a4548,,,,,7,0,7,0,1,X V Q F H G B L J M P D K C T S W R N Z,,,,,,,,,,,,,,,,,,,,,,,,,,,,,,,,,,,,,,,,,,,,,,,,,,,,,,,,,,,,,,,,,,,,,,,,,,,,,,,,,,,,,,,,,,,,,
,,,,,,,,,,60487c3f3ae5a81d6f322d73,27,Mężczyzna,2022-06-04_08h43.11.015,task,2021.1.4,Win32,60.0240096,628b806c463b948bc644b84f,629afec08dc06083f04a4548,,,,,,,,,,,kllxfcfm,"[""k"",""l"",""l"",""x"",""f"",""c"",""f"",""m""]","[4.483000000000004,5.083000000000027,5.371000000000038,6.066000000000031,7.203000000000031,7.7830000000000155,8.203000000000031,8.691000000000031,10.033999999999992]",0,HLLXFCFM,13,0,13,0,1,,,,,,,,,,,,,,,,,,,,,,,,,,,,,,,,,,,,,,,,,,,,,,,,,,,,,,,,,,,,,,,,,,,,,,,,,,,,,,,,,,,
,,,,,,,,,,60487c3f3ae5a81d6f322d73,27,Mężczyzna,2022-06-04_08h43.11.015,task,2021.1.4,Win32,60.0240096,628b806c463b948bc644b84f,629afec08dc06083f04a4548,,,,,0,0,0,0,1,X V Q F H G B L J M P D K C T S W R N Z,,,,,,,,,,,,,,,,,,,,,,,,,,,,,,,,,,,,,,,,,,,,,,,,,,,,,,,,,,,,,,,,,,,,,,,,,,,,,,,,,,,,,,,,,,,,,
,,,,,,,,,,60487c3f3ae5a81d6f322d73,27,Mężczyzna,2022-06-04_08h43.11.015,task,2021.1.4,Win32,60.0240096,628b806c463b948bc644b84f,629afec08dc06083f04a4548,,,,,1,0,1,0,1,X V Q F H G B L J M P D K C T S W R N Z,,,,,,,,,,,,,,,,,,,,,,,,,,,,,,,,,,,,,,,,,,,,,,,,,,,,,,,,,,,,,,,,,,,,,,,,,,,,,,,,,,,,,,,,,,,,,
,,,,,,,,,,60487c3f3ae5a81d6f322d73,27,Mężczyzna,2022-06-04_08h43.11.015,task,2021.1.4,Win32,60.0240096,628b806c463b948bc644b84f,629afec08dc06083f04a4548,,,,,2,0,2,0,1,X V Q F H G B L J M P D K C T S W R N Z,,,,,,,,,,,,,,,,,,,,,,,,,,,,,,,,,,,,,,,,,,,,,,,,,,,,,,,,,,,,,,,,,,,,,,,,,,,,,,,,,,,,,,,,,,,,,
,,,,,,,,,,60487c3f3ae5a81d6f322d73,27,Mężczyzna,2022-06-04_08h43.11.015,task,2021.1.4,Win32,60.0240096,628b806c463b948bc644b84f,629afec08dc06083f04a4548,,,,,3,0,3,0,1,X V Q F H G B L J M P D K C T S W R N Z,,,,,,,,,,,,,,,,,,,,,,,,,,,,,,,,,,,,,,,,,,,,,,,,,,,,,,,,,,,,,,,,,,,,,,,,,,,,,,,,,,,,,,,,,,,,,
,,,,,,,,,,60487c3f3ae5a81d6f322d73,27,Mężczyzna,2022-06-04_08h43.11.015,task,2021.1.4,Win32,60.0240096,628b806c463b948bc644b84f,629afec08dc06083f04a4548,,,,,4,0,4,0,1,X V Q F H G B L J M P D K C T S W R N Z,,,,,,,,,,,,,,,,,,,,,,,,,,,,,,,,,,,,,,,,,,,,,,,,,,,,,,,,,,,,,,,,,,,,,,,,,,,,,,,,,,,,,,,,,,,,,
,,,,,,,,,,60487c3f3ae5a81d6f322d73,27,Mężczyzna,2022-06-04_08h43.11.015,task,2021.1.4,Win32,60.0240096,628b806c463b948bc644b84f,629afec08dc06083f04a4548,,,,,5,0,5,0,1,X V Q F H G B L J M P D K C T S W R N Z,,,,,,,,,,,,,,,,,,,,,,,,,,,,,,,,,,,,,,,,,,,,,,,,,,,,,,,,,,,,,,,,,,,,,,,,,,,,,,,,,,,,,,,,,,,,,
,,,,,,,,,,60487c3f3ae5a81d6f322d73,27,Mężczyzna,2022-06-04_08h43.11.015,task,2021.1.4,Win32,60.0240096,628b806c463b948bc644b84f,629afec08dc06083f04a4548,,,,,6,0,6,0,1,X V Q F H G B L J M P D K C T S W R N Z,,,,,,,,,,,,,,,,,,,,,,,,,,,,,,,,,,,,,,,,,,,,,,,,,,,,,,,,,,,,,,,,,,,,,,,,,,,,,,,,,,,,,,,,,,,,,
,,,,,,,,,,60487c3f3ae5a81d6f322d73,27,Mężczyzna,2022-06-04_08h43.11.015,task,2021.1.4,Win32,60.0240096,628b806c463b948bc644b84f,629afec08dc06083f04a4548,,,,,7,0,7,0,1,X V Q F H G B L J M P D K C T S W R N Z,,,,,,,,,,,,,,,,,,,,,,,,,,,,,,,,,,,,,,,,,,,,,,,,,,,,,,,,,,,,,,,,,,,,,,,,,,,,,,,,,,,,,,,,,,,,,
,,,,,,,,,,60487c3f3ae5a81d6f322d73,27,Mężczyzna,2022-06-04_08h43.11.015,task,2021.1.4,Win32,60.0240096,628b806c463b948bc644b84f,629afec08dc06083f04a4548,,,,,,,,,,,nrbgvbpt,"[""n"",""r"",""b"",""g"",""v"",""b"",""p"",""t""]","[3.6890000000000214,4.057000000000016,5.809000000000026,6.904000000000053,9.19300000000004,9.536000000000001,10.32000000000005,10.904000000000053,11.713000000000136]",1,NRBGVBPT,14,0,14,0,1,,,,,,,,,,,,,,,,,,,,,,,,,,,,,,,,,,,,,,,,,,,,,,,,,,,,,,,,,,,,,,,,,,,,,,,,,,,,,,,,,,,
,,,,,,,,,,60487c3f3ae5a81d6f322d73,27,Mężczyzna,2022-06-04_08h43.11.015,task,2021.1.4,Win32,60.0240096,628b806c463b948bc644b84f,629afec08dc06083f04a4548,,,,,0,0,0,0,1,X V Q F H G B L J M P D K C T S W R N Z,,,,,,,,,,,,,,,,,,,,,,,,,,,,,,,,,,,,,,,,,,,,,,,,,,,,,,,,,,,,,,,,,,,,,,,,,,,,,,,,,,,,,,,,,,,,,
,,,,,,,,,,60487c3f3ae5a81d6f322d73,27,Mężczyzna,2022-06-04_08h43.11.015,task,2021.1.4,Win32,60.0240096,628b806c463b948bc644b84f,629afec08dc06083f04a4548,,,,,1,0,1,0,1,X V Q F H G B L J M P D K C T S W R N Z,,,,,,,,,,,,,,,,,,,,,,,,,,,,,,,,,,,,,,,,,,,,,,,,,,,,,,,,,,,,,,,,,,,,,,,,,,,,,,,,,,,,,,,,,,,,,
,,,,,,,,,,60487c3f3ae5a81d6f322d73,27,Mężczyzna,2022-06-04_08h43.11.015,task,2021.1.4,Win32,60.0240096,628b806c463b948bc644b84f,629afec08dc06083f04a4548,,,,,2,0,2,0,1,X V Q F H G B L J M P D K C T S W R N Z,,,,,,,,,,,,,,,,,,,,,,,,,,,,,,,,,,,,,,,,,,,,,,,,,,,,,,,,,,,,,,,,,,,,,,,,,,,,,,,,,,,,,,,,,,,,,
,,,,,,,,,,60487c3f3ae5a81d6f322d73,27,Mężczyzna,2022-06-04_08h43.11.015,task,2021.1.4,Win32,60.0240096,628b806c463b948bc644b84f,629afec08dc06083f04a4548,,,,,3,0,3,0,1,X V Q F H G B L J M P D K C T S W R N Z,,,,,,,,,,,,,,,,,,,,,,,,,,,,,,,,,,,,,,,,,,,,,,,,,,,,,,,,,,,,,,,,,,,,,,,,,,,,,,,,,,,,,,,,,,,,,
,,,,,,,,,,60487c3f3ae5a81d6f322d73,27,Mężczyzna,2022-06-04_08h43.11.015,task,2021.1.4,Win32,60.0240096,628b806c463b948bc644b84f,629afec08dc06083f04a4548,,,,,4,0,4,0,1,X V Q F H G B L J M P D K C T S W R N Z,,,,,,,,,,,,,,,,,,,,,,,,,,,,,,,,,,,,,,,,,,,,,,,,,,,,,,,,,,,,,,,,,,,,,,,,,,,,,,,,,,,,,,,,,,,,,
,,,,,,,,,,60487c3f3ae5a81d6f322d73,27,Mężczyzna,2022-06-04_08h43.11.015,task,2021.1.4,Win32,60.0240096,628b806c463b948bc644b84f,629afec08dc06083f04a4548,,,,,5,0,5,0,1,X V Q F H G B L J M P D K C T S W R N Z,,,,,,,,,,,,,,,,,,,,,,,,,,,,,,,,,,,,,,,,,,,,,,,,,,,,,,,,,,,,,,,,,,,,,,,,,,,,,,,,,,,,,,,,,,,,,
,,,,,,,,,,60487c3f3ae5a81d6f322d73,27,Mężczyzna,2022-06-04_08h43.11.015,task,2021.1.4,Win32,60.0240096,628b806c463b948bc644b84f,629afec08dc06083f04a4548,,,,,6,0,6,0,1,X V Q F H G B L J M P D K C T S W R N Z,,,,,,,,,,,,,,,,,,,,,,,,,,,,,,,,,,,,,,,,,,,,,,,,,,,,,,,,,,,,,,,,,,,,,,,,,,,,,,,,,,,,,,,,,,,,,
,,,,,,,,,,60487c3f3ae5a81d6f322d73,27,Mężczyzna,2022-06-04_08h43.11.015,task,2021.1.4,Win32,60.0240096,628b806c463b948bc644b84f,629afec08dc06083f04a4548,,,,,7,0,7,0,1,X V Q F H G B L J M P D K C T S W R N Z,,,,,,,,,,,,,,,,,,,,,,,,,,,,,,,,,,,,,,,,,,,,,,,,,,,,,,,,,,,,,,,,,,,,,,,,,,,,,,,,,,,,,,,,,,,,,
,,,,,,,,,,60487c3f3ae5a81d6f322d73,27,Mężczyzna,2022-06-04_08h43.11.015,task,2021.1.4,Win32,60.0240096,628b806c463b948bc644b84f,629afec08dc06083f04a4548,,,,,,,,,,,jvtngbr,"[""j"",""v"",""t"",""n"",""g"",""b"",""r""]","[9.016000000000076,10.92100000000005,12.288999999999987,12.985000000000014,14.282000000000039,15.392000000000053,17.34800000000007,18.800000000000068]",0,JVTMGBBR,15,0,15,0,1,,,,,,,,,,,,,,,,,,,,,,,,,,,,,,,,,,,,,,,,,,,,,,,,,,,,,,,,,,,,,,,,,,,,,,,,,,,,,,,,,,,
,,,,,,,,,,60487c3f3ae5a81d6f322d73,27,Mężczyzna,2022-06-04_08h43.11.015,task,2021.1.4,Win32,60.0240096,628b806c463b948bc644b84f,629afec08dc06083f04a4548,,,,,,,,,,,,,,,,,,,,,space,9.342,1,"[""1""]",1,[7.802999999999997],[7.802999999999997],0,0,0,1,1,Practice,2,(4x4) - 15,1,,,,,,,,,,,,,,,,,,,,,,,,,,,,,,,,,,,,,,,,,,,,,,,,,,,,,,,,,,,,,,,,,,,
,,,,,,,,,,60487c3f3ae5a81d6f322d73,27,Mężczyzna,2022-06-04_08h43.11.015,task,2021.1.4,Win32,60.0240096,628b806c463b948bc644b84f,629afec08dc06083f04a4548,,,,,,,,,,,,,,,,,,,,,,,6,"[""6""]",1,[2.893000000000029],"[7.802999999999997,2.893000000000029]",0,1,1,6,1,Practice,7,(25/5) + 1,6,,,,,,,,,,,,,,,,,,,,,,,,,,,,,,,,,,,,,,,,,,,,,,,,,,,,,,,,,,,,,,,,,,,
,,,,,,,,,,60487c3f3ae5a81d6f322d73,27,Mężczyzna,2022-06-04_08h43.11.015,task,2021.1.4,Win32,60.0240096,628b806c463b948bc644b84f,629afec08dc06083f04a4548,,,,,,,,,,,,,,,,,,,,,,,9,"[""9""]",1,[3.616999999999962],"[7.802999999999997,2.893000000000029,3.616999999999962]",0,2,2,9,1,Practice,10,(20/2) - 1,9,,,,,,,,,,,,,,,,,,,,,,,,,,,,,,,,,,,,,,,,,,,,,,,,,,,,,,,,,,,,,,,,,,,
,,,,,,,,,,60487c3f3ae5a81d6f322d73,27,Mężczyzna,2022-06-04_08h43.11.015,task,2021.1.4,Win32,60.0240096,628b806c463b948bc644b84f,629afec08dc06083f04a4548,,,,,,,,,,,,,,,,,,,,,,,0,"[""0""]",1,[1.502999999999929],"[7.802999999999997,2.893000000000029,3.616999999999962,1.502999999999929]",0,3,3,0,1,Practice,1,(3x3) -  9,0,,,,,,,,,,,,,,,,,,,,,,,,,,,,,,,,,,,,,,,,,,,,,,,,,,,,,,,,,,,,,,,,,,,
,,,,,,,,,,60487c3f3ae5a81d6f322d73,27,Mężczyzna,2022-06-04_08h43.11.015,task,2021.1.4,Win32,60.0240096,628b806c463b948bc644b84f,629afec08dc06083f04a4548,,,,,,,,,,,,,,,,,,,,,,,8,"[""8""]",1,[3.716000000000008],"[7.802999999999997,2.893000000000029,3.616999999999962,1.502999999999929,3.716000000000008]",0,4,4,8,1,Practice,9,(3x3) - 1,8,,,,,,,,,,,,,,,,,,,,,,,,,,,,,,,,,,,,,,,,,,,,,,,,,,,,,,,,,,,,,,,,,,,
,,,,,,,,,,60487c3f3ae5a81d6f322d73,27,Mężczyzna,2022-06-04_08h43.11.015,task,2021.1.4,Win32,60.0240096,628b806c463b948bc644b84f,629afec08dc06083f04a4548,,,,,,,,,,,,,,,,,,,,,,,4,"[""4""]",1,[2.5949999999999136],"[7.802999999999997,2.893000000000029,3.616999999999962,1.502999999999929,3.716000000000008,2.5949999999999136]",0,5,5,4,1,Practice,5,(2x6) - 8,4,,,,,,,,,,,,,,,,,,,,,,,,,,,,,,,,,,,,,,,,,,,,,,,,,,,,,,,,,,,,,,,,,,,
,,,,,,,,,,60487c3f3ae5a81d6f322d73,27,Mężczyzna,2022-06-04_08h43.11.015,task,2021.1.4,Win32,60.0240096,628b806c463b948bc644b84f,629afec08dc06083f04a4548,,,,,,,,,,,,,,,,,,,,,,,5,"[""5""]",1,[1.8110000000000355],"[7.802999999999997,2.893000000000029,3.616999999999962,1.502999999999929,3.716000000000008,2.5949999999999136,1.8110000000000355]",0,6,6,5,1,Practice,6,(4/2) + 3,5,,,,,,,,,,,,,,,,,,,,,,,,,,,,,,,,,,,,,,,,,,,,,,,,,,,,,,,,,,,,,,,,,,,
,,,,,,,,,,60487c3f3ae5a81d6f322d73,27,Mężczyzna,2022-06-04_08h43.11.015,task,2021.1.4,Win32,60.0240096,628b806c463b948bc644b84f,629afec08dc06083f04a4548,,,,,,,,,,,,,,,,,,,,,,,7,"[""7""]",1,[1.9680000000000746],"[7.802999999999997,2.893000000000029,3.616999999999962,1.502999999999929,3.716000000000008,2.5949999999999136,1.8110000000000355,1.9680000000000746]",0,7,7,7,1,Practice,8,(5x5) - 18,7,,,,,,,,,,,,,,,,,,,,,,,,,,,,,,,,,,,,,,,,,,,,,,,,,,,,,,,,,,,,,,,,,,,
,,,,,,,,,,60487c3f3ae5a81d6f322d73,27,Mężczyzna,2022-06-04_08h43.11.015,task,2021.1.4,Win32,60.0240096,628b806c463b948bc644b84f,629afec08dc06083f04a4548,,,,,,,,,,,,,,,,,,,,,,,2,"[""2""]",1,[1.7760000000000673],"[7.802999999999997,2.893000000000029,3.616999999999962,1.502999999999929,3.716000000000008,2.5949999999999136,1.8110000000000355,1.9680000000000746,1.7760000000000673]",0,8,8,2,1,Practice,3,(4x4) - 14,2,,,,,,,,,,,,,,,,,,,,,,,,,,,,,,,,,,,,,,,,,,,,,,,,,,,,,,,,,,,,,,,,,,,
,,,,,,,,,,60487c3f3ae5a81d6f322d73,27,Mężczyzna,2022-06-04_08h43.11.015,task,2021.1.4,Win32,60.0240096,628b806c463b948bc644b84f,629afec08dc06083f04a4548,,,,,,,,,,,,,,,,,,,,,,,3,"[""3""]",1,[2.3689999999999145],"[7.802999999999997,2.893000000000029,3.616999999999962,1.502999999999929,3.716000000000008,2.5949999999999136,1.8110000000000355,1.9680000000000746,1.7760000000000673,2.3689999999999145]",0,9,9,3,1,Practice,4,(8/4) + 1,3,,,,,,,,,,,,,,,,,,,,,,,,,,,,,,,,,,,,,,,,,,,,,,,,,,,,,,,,,,,,,,,,,,,
,,,,,,,,,,60487c3f3ae5a81d6f322d73,27,Mężczyzna,2022-06-04_08h43.11.015,task,2021.1.4,Win32,60.0240096,628b806c463b948bc644b84f,629afec08dc06083f04a4548,,,,,,,,,,,,,,,,,,,,,,,,,,,,,,,,,,,,,1,30.051,2.0034,40.7874878,1.648989343,6.257792505,space,2.084,0,0,0,0,1,,,,,,,,,,,,,,,,,,,,,,,,,,,,,,,,,,,,,,,,,,,,,,,,,,,,,,
,,,,,,,,,,60487c3f3ae5a81d6f322d73,27,Mężczyzna,2022-06-04_08h43.11.015,task,2021.1.4,Win32,60.0240096,628b806c463b948bc644b84f,629afec08dc06083f04a4548,,,,,,,,,,,,,,,,,,,,,,,8,,,,,,,,,,Practice,9,(3x3) - 1,8,,,,,,,,,,,,,,space,12.852,"[""8""]",1,[1.47199999999998],1,0,0,0,8,1,,,,,,,,,,,,,,,,,,,,,,,,,,,,,,,,,,,,,,,,,,,
,,,,,,,,,,60487c3f3ae5a81d6f322d73,27,Mężczyzna,2022-06-04_08h43.11.015,task,2021.1.4,Win32,60.0240096,628b806c463b948bc644b84f,629afec08dc06083f04a4548,,,,,,,,,,X V Q F H G B L J M P D K C T S W R N Z,,,,,,,,,,,,,,,,,,,,,,,,,,,,,,,,,,,,,,,,,,,,,,,,,,,0,0,0,0,1,,,,,,,,,,,,,,,,,,,,,,,,,,,,,,,,,,,,,,
,,,,,,,,,,60487c3f3ae5a81d6f322d73,27,Mężczyzna,2022-06-04_08h43.11.015,task,2021.1.4,Win32,60.0240096,628b806c463b948bc644b84f,629afec08dc06083f04a4548,,,,,,,,,,,,,,,,,,,,,,,8,,,,,,,,,,Practice,9,(3x3) - 1,8,,,,,,,,,,,,,,,,"[""8""]",1,[1.6180000000000518],1,0,0,0,8,1,,,,,,,,,,,,,,,,,,,,,,,,,,,,,,,,,,,,,,,,,,,
,,,,,,,,,,60487c3f3ae5a81d6f322d73,27,Mężczyzna,2022-06-04_08h43.11.015,task,2021.1.4,Win32,60.0240096,628b806c463b948bc644b84f,629afec08dc06083f04a4548,,,,,,,,,,X V Q F H G B L J M P D K C T S W R N Z,,,,,,,,,,,,,,,,,,,,,,,,,,,,,,,,,,,,,,,,,,,,,,,,,,,1,0,1,0,1,,,,,,,,,,,,,,,,,,,,,,,,,,,,,,,,,,,,,,
,,,,,,,,,,60487c3f3ae5a81d6f322d73,27,Mężczyzna,2022-06-04_08h43.11.015,task,2021.1.4,Win32,60.0240096,628b806c463b948bc644b84f,629afec08dc06083f04a4548,,,,,,,,,,,,,,,,,,,,,,,,,,,,,,,,,,,,,,,,,,,,,,,,,,,,,,,,,,,,,,,,,,zk,"[""z"",""k""]",0,"[2.3719999999999573,2.788000000000011,3.685000000000059]",1,0,0,0,0,1,,,,,,,,,,,,,,,,,,,,,,,,,,,,
,,,,,,,,,,60487c3f3ae5a81d6f322d73,27,Mężczyzna,2022-06-04_08h43.11.015,task,2021.1.4,Win32,60.0240096,628b806c463b948bc644b84f,629afec08dc06083f04a4548,,,,,,,,,,,,,,,,,,,,,,,3,,,,,,,,,,Practice,4,(8/4) + 1,3,,,,,,,,,,,,,,,,"[""3""]",1,[1.8570000000000846],1,0,0,0,3,1,,,,,,,,,,,,,,,,,,,,,,,,,,,,,,,,,,,,,,,,,,,
,,,,,,,,,,60487c3f3ae5a81d6f322d73,27,Mężczyzna,2022-06-04_08h43.11.015,task,2021.1.4,Win32,60.0240096,628b806c463b948bc644b84f,629afec08dc06083f04a4548,,,,,,,,,,X V Q F H G B L J M P D K C T S W R N Z,,,,,,,,,,,,,,,,,,,,,,,,,,,,,,,,,,,,,,,,,,,,,,,,,,,0,0,0,0,1,,,,,,,,,,,,,,,,,,,,,,,,,,,,,,,,,,,,,,
,,,,,,,,,,60487c3f3ae5a81d6f322d73,27,Mężczyzna,2022-06-04_08h43.11.015,task,2021.1.4,Win32,60.0240096,628b806c463b948bc644b84f,629afec08dc06083f04a4548,,,,,,,,,,,,,,,,,,,,,,,6,,,,,,,,,,Practice,7,(25/5) + 1,6,,,,,,,,,,,,,,,,"[""6""]",1,[1.524000000000001],1,0,0,0,6,1,,,,,,,,,,,,,,,,,,,,,,,,,,,,,,,,,,,,,,,,,,,
,,,,,,,,,,60487c3f3ae5a81d6f322d73,27,Mężczyzna,2022-06-04_08h43.11.015,task,2021.1.4,Win32,60.0240096,628b806c463b948bc644b84f,629afec08dc06083f04a4548,,,,,,,,,,X V Q F H G B L J M P D K C T S W R N Z,,,,,,,,,,,,,,,,,,,,,,,,,,,,,,,,,,,,,,,,,,,,,,,,,,,1,0,1,0,1,,,,,,,,,,,,,,,,,,,,,,,,,,,,,,,,,,,,,,
,,,,,,,,,,60487c3f3ae5a81d6f322d73,27,Mężczyzna,2022-06-04_08h43.11.015,task,2021.1.4,Win32,60.0240096,628b806c463b948bc644b84f,629afec08dc06083f04a4548,,,,,,,,,,,,,,,,,,,,,,,,,,,,,,,,,,,,,,,,,,,,,,,,,,,,,,,,,,,,,,,,,,cd,"[""c"",""d""]",0,"[2.324999999999932,2.4289999999999736,3.4529999999999745]",1,1,0,1,0,1,,,,,,,,,,,,,,,,,,,,,,,,,,,,
,,,,,,,,,,60487c3f3ae5a81d6f322d73,27,Mężczyzna,2022-06-04_08h43.11.015,task,2021.1.4,Win32,60.0240096,628b806c463b948bc644b84f,629afec08dc06083f04a4548,,,,,,,,,,,,,,,,,,,,,,,2,,,,,,,,,,Practice,3,(4x4) - 14,2,,,,,,,,,,,,,,,,"[""2""]",1,[1.4600000000000364],1,0,0,0,2,1,,,,,,,,,,,,,,,,,,,,,,,,,,,,,,,,,,,,,,,,,,,
,,,,,,,,,,60487c3f3ae5a81d6f322d73,27,Mężczyzna,2022-06-04_08h43.11.015,task,2021.1.4,Win32,60.0240096,628b806c463b948bc644b84f,629afec08dc06083f04a4548,,,,,,,,,,X V Q F H G B L J M P D K C T S W R N Z,,,,,,,,,,,,,,,,,,,,,,,,,,,,,,,,,,,,,,,,,,,,,,,,,,,0,0,0,0,1,,,,,,,,,,,,,,,,,,,,,,,,,,,,,,,,,,,,,,
,,,,,,,,,,60487c3f3ae5a81d6f322d73,27,Mężczyzna,2022-06-04_08h43.11.015,task,2021.1.4,Win32,60.0240096,628b806c463b948bc644b84f,629afec08dc06083f04a4548,,,,,,,,,,,,,,,,,,,,,,,6,,,,,,,,,,Practice,7,(25/5) + 1,6,,,,,,,,,,,,,,,,"[""6""]",1,[1.3819999999999482],1,0,0,0,6,1,,,,,,,,,,,,,,,,,,,,,,,,,,,,,,,,,,,,,,,,,,,
,,,,,,,,,,60487c3f3ae5a81d6f322d73,27,Mężczyzna,2022-06-04_08h43.11.015,task,2021.1.4,Win32,60.0240096,628b806c463b948bc644b84f,629afec08dc06083f04a4548,,,,,,,,,,X V Q F H G B L J M P D K C T S W R N Z,,,,,,,,,,,,,,,,,,,,,,,,,,,,,,,,,,,,,,,,,,,,,,,,,,,1,0,1,0,1,,,,,,,,,,,,,,,,,,,,,,,,,,,,,,,,,,,,,,
,,,,,,,,,,60487c3f3ae5a81d6f322d73,27,Mężczyzna,2022-06-04_08h43.11.015,task,2021.1.4,Win32,60.0240096,628b806c463b948bc644b84f,629afec08dc06083f04a4548,,,,,,,,,,,,,,,,,,,,,,,,,,,,,,,,,,,,,,,,,,,,,,,,,,,,,,,,,,,,,,,,,,qn,"[""q"",""n""]",0,"[1.933999999999969,2.405999999999949,3.1100000000000136]",1,2,0,2,0,1,,,,,,,,,,,,,,,,,,,,,,,,,,,,
,,,,,,,,,,60487c3f3ae5a81d6f322d73,27,Mężczyzna,2022-06-04_08h43.11.015,task,2021.1.4,Win32,60.0240096,628b806c463b948bc644b84f,629afec08dc06083f04a4548,,,,,,,,,,,,,,,,,,,,,,,6,,,,,,,,,,Task,13,(3x4) - 6,6,,,,,,,,,,,,,,,,,,,1,,,,,,,,,,,,,,,,,,,,,space,68.224,"[""6""]",1,[1.7939999999999827],0,0,0,12,1,,,,,,,,,,,,,,,,,,
,,,,,,,,,,60487c3f3ae5a81d6f322d73,27,Mężczyzna,2022-06-04_08h43.11.015,task,2021.1.4,Win32,60.0240096,628b806c463b948bc644b84f,629afec08dc06083f04a4548,,,,,,,,,,X V Q F H G B L J M P D K C T S W R N Z,,,,,,,,,,,,,,,,,,,,,,,,,,,,,,,,,,,,,,,,,,,,,,,,,,,,,,,,,,,,,,,,,,,,,,,,,,,,0,0,0,0,1,,,,,,,,,,,,,
,,,,,,,,,,60487c3f3ae5a81d6f322d73,27,Mężczyzna,2022-06-04_08h43.11.015,task,2021.1.4,Win32,60.0240096,628b806c463b948bc644b84f,629afec08dc06083f04a4548,,,,,,,,,,,,,,,,,,,,,,,5,,,,,,,,,,Task,12,(4x4) - 11,5,,,,,,,,,,,,,,,,,,,1,,,,,,,,,,,,,,,,,,,,,,,"[""5""]",1,[2.038000000000011],0,0,0,11,1,,,,,,,,,,,,,,,,,,
,,,,,,,,,,60487c3f3ae5a81d6f322d73,27,Mężczyzna,2022-06-04_08h43.11.015,task,2021.1.4,Win32,60.0240096,628b806c463b948bc644b84f,629afec08dc06083f04a4548,,,,,,,,,,X V Q F H G B L J M P D K C T S W R N Z,,,,,,,,,,,,,,,,,,,,,,,,,,,,,,,,,,,,,,,,,,,,,,,,,,,,,,,,,,,,,,,,,,,,,,,,,,,,1,0,1,0,1,,,,,,,,,,,,,
,,,,,,,,,,60487c3f3ae5a81d6f322d73,27,Mężczyzna,2022-06-04_08h43.11.015,task,2021.1.4,Win32,60.0240096,628b806c463b948bc644b84f,629afec08dc06083f04a4548,,,,,,,,,,,,,,,,,,,,,,,,,,,,,,,,,,,,,,,,,,,,,,,,,,,,,,,,,,,,,,,,,,,,,,,,,,,,,,,,,,,,,,,,,,,zj,"[""z"",""j""]",0,"[1.9449999999999363,2.30499999999995,3.2250000000000227]",1,ZJ,0,0,0,0,1,,
,,,,,,,,,,60487c3f3ae5a81d6f322d73,27,Mężczyzna,2022-06-04_08h43.11.015,task,2021.1.4,Win32,60.0240096,628b806c463b948bc644b84f,629afec08dc06083f04a4548,,,,,,,,,,,,,,,,,,,,,,,0,,,,,,,,,,Task,3,(2x3) - 3,3,,,,,,,,,,,,,,,,,,,0,,,,,,,,,,,,,,,,,,,,,,,"[""0""]",0,[1.808999999999969],0,0,0,2,1,,,,,,,,,,,,,,,,,,
,,,,,,,,,,60487c3f3ae5a81d6f322d73,27,Mężczyzna,2022-06-04_08h43.11.015,task,2021.1.4,Win32,60.0240096,628b806c463b948bc644b84f,629afec08dc06083f04a4548,,,,,,,,,,,,,,,,,,,,,,,5,,,,,,,,,,Task,22,(3x1) + 2,5,,,,,,,,,,,,,,,,,,,1,,,,,,,,,,,,,,,,,,,,,,,"[""5""]",1,[3.634999999999991],0,1,1,21,1,,,,,,,,,,,,,,,,,,
,,,,,,,,,,60487c3f3ae5a81d6f322d73,27,Mężczyzna,2022-06-04_08h43.11.015,task,2021.1.4,Win32,60.0240096,628b806c463b948bc644b84f,629afec08dc06083f04a4548,,,,,,,,,,X V Q F H G B L J M P D K C T S W R N Z,,,,,,,,,,,,,,,,,,,,,,,,,,,,,,,,,,,,,,,,,,,,,,,,,,,,,,,,,,,,,,,,,,,,,,,,,,,,0,0,0,0,1,,,,,,,,,,,,,
,,,,,,,,,,60487c3f3ae5a81d6f322d73,27,Mężczyzna,2022-06-04_08h43.11.015,task,2021.1.4,Win32,60.0240096,628b806c463b948bc644b84f,629afec08dc06083f04a4548,,,,,,,,,,,,,,,,,,,,,,,0,,,,,,,,,,Task,8,(1x5) - 5,0,,,,,,,,,,,,,,,,,,,1,,,,,,,,,,,,,,,,,,,,,,,"[""0""]",1,[1.9499999999999318],0,0,0,7,1,,,,,,,,,,,,,,,,,,
,,,,,,,,,,60487c3f3ae5a81d6f322d73,27,Mężczyzna,2022-06-04_08h43.11.015,task,2021.1.4,Win32,60.0240096,628b806c463b948bc644b84f,629afec08dc06083f04a4548,,,,,,,,,,X V Q F H G B L J M P D K C T S W R N Z,,,,,,,,,,,,,,,,,,,,,,,,,,,,,,,,,,,,,,,,,,,,,,,,,,,,,,,,,,,,,,,,,,,,,,,,,,,,1,0,1,0,1,,,,,,,,,,,,,
,,,,,,,,,,60487c3f3ae5a81d6f322d73,27,Mężczyzna,2022-06-04_08h43.11.015,task,2021.1.4,Win32,60.0240096,628b806c463b948bc644b84f,629afec08dc06083f04a4548,,,,,,,,,,,,,,,,,,,,,,,9,,,,,,,,,,Task,40,(7x2) - 5,9,,,,,,,,,,,,,,,,,,,1,,,,,,,,,,,,,,,,,,,,,,,"[""9""]",1,[4.4669999999999845],0,0,0,39,1,,,,,,,,,,,,,,,,,,
,,,,,,,,,,60487c3f3ae5a81d6f322d73,27,Mężczyzna,2022-06-04_08h43.11.015,task,2021.1.4,Win32,60.0240096,628b806c463b948bc644b84f,629afec08dc06083f04a4548,,,,,,,,,,X V Q F H G B L J M P D K C T S W R N Z,,,,,,,,,,,,,,,,,,,,,,,,,,,,,,,,,,,,,,,,,,,,,,,,,,,,,,,,,,,,,,,,,,,,,,,,,,,,2,0,2,0,1,,,,,,,,,,,,,
,,,,,,,,,,60487c3f3ae5a81d6f322d73,27,Mężczyzna,2022-06-04_08h43.11.015,task,2021.1.4,Win32,60.0240096,628b806c463b948bc644b84f,629afec08dc06083f04a4548,,,,,,,,,,,,,,,,,,,,,,,,,,,,,,,,,,,,,,,,,,,,,,,,,,,,,,,,,,,,,,,,,,,,,,,,,,,,,,,,,,,,,,,,,,,fnx,"[""f"",""n"",""x""]",0,"[1.8029999999999973,2.3070000000000164,2.6909999999999172,4.058999999999969]",1,FNX,1,0,1,0,1,,
,,,,,,,,,,60487c3f3ae5a81d6f322d73,27,Mężczyzna,2022-06-04_08h43.11.015,task,2021.1.4,Win32,60.0240096,628b806c463b948bc644b84f,629afec08dc06083f04a4548,,,,,,,,,,,,,,,,,,,,,,,8,,,,,,,,,,Task,23,(2x3) + 2,8,,,,,,,,,,,,,,,,,,,1,,,,,,,,,,,,,,,,,,,,,,,"[""8""]",1,[2.13900000000001],0,0,0,22,1,,,,,,,,,,,,,,,,,,
,,,,,,,,,,60487c3f3ae5a81d6f322d73,27,Mężczyzna,2022-06-04_08h43.11.015,task,2021.1.4,Win32,60.0240096,628b806c463b948bc644b84f,629afec08dc06083f04a4548,,,,,,,,,,X V Q F H G B L J M P D K C T S W R N Z,,,,,,,,,,,,,,,,,,,,,,,,,,,,,,,,,,,,,,,,,,,,,,,,,,,,,,,,,,,,,,,,,,,,,,,,,,,,0,0,0,0,1,,,,,,,,,,,,,
,,,,,,,,,,60487c3f3ae5a81d6f322d73,27,Mężczyzna,2022-06-04_08h43.11.015,task,2021.1.4,Win32,60.0240096,628b806c463b948bc644b84f,629afec08dc06083f04a4548,,,,,,,,,,,,,,,,,,,,,,,9,,,,,,,,,,Task,16,(3x8) - 15,9,,,,,,,,,,,,,,,,,,,1,,,,,,,,,,,,,,,,,,,,,,,"[""9""]",1,[4.037000000000035],0,0,0,15,1,,,,,,,,,,,,,,,,,,
,,,,,,,,,,60487c3f3ae5a81d6f322d73,27,Mężczyzna,2022-06-04_08h43.11.015,task,2021.1.4,Win32,60.0240096,628b806c463b948bc644b84f,629afec08dc06083f04a4548,,,,,,,,,,X V Q F H G B L J M P D K C T S W R N Z,,,,,,,,,,,,,,,,,,,,,,,,,,,,,,,,,,,,,,,,,,,,,,,,,,,,,,,,,,,,,,,,,,,,,,,,,,,,1,0,1,0,1,,,,,,,,,,,,,
,,,,,,,,,,60487c3f3ae5a81d6f322d73,27,Mężczyzna,2022-06-04_08h43.11.015,task,2021.1.4,Win32,60.0240096,628b806c463b948bc644b84f,629afec08dc06083f04a4548,,,,,,,,,,,,,,,,,,,,,,,0,,,,,,,,,,Task,25,(10/5) - 2,0,,,,,,,,,,,,,,,,,,,1,,,,,,,,,,,,,,,,,,,,,,,"[""0""]",1,[2.905999999999949],0,0,0,24,1,,,,,,,,,,,,,,,,,,
,,,,,,,,,,60487c3f3ae5a81d6f322d73,27,Mężczyzna,2022-06-04_08h43.11.015,task,2021.1.4,Win32,60.0240096,628b806c463b948bc644b84f,629afec08dc06083f04a4548,,,,,,,,,,X V Q F H G B L J M P D K C T S W R N Z,,,,,,,,,,,,,,,,,,,,,,,,,,,,,,,,,,,,,,,,,,,,,,,,,,,,,,,,,,,,,,,,,,,,,,,,,,,,2,0,2,0,1,,,,,,,,,,,,,
,,,,,,,,,,60487c3f3ae5a81d6f322d73,27,Mężczyzna,2022-06-04_08h43.11.015,task,2021.1.4,Win32,60.0240096,628b806c463b948bc644b84f,629afec08dc06083f04a4548,,,,,,,,,,,,,,,,,,,,,,,4,,,,,,,,,,Task,11,(18/3) - 2,4,,,,,,,,,,,,,,,,,,,1,,,,,,,,,,,,,,,,,,,,,,,"[""4""]",1,[3.7180000000000746],0,0,0,10,1,,,,,,,,,,,,,,,,,,
,,,,,,,,,,60487c3f3ae5a81d6f322d73,27,Mężczyzna,2022-06-04_08h43.11.015,task,2021.1.4,Win32,60.0240096,628b806c463b948bc644b84f,629afec08dc06083f04a4548,,,,,,,,,,X V Q F H G B L J M P D K C T S W R N Z,,,,,,,,,,,,,,,,,,,,,,,,,,,,,,,,,,,,,,,,,,,,,,,,,,,,,,,,,,,,,,,,,,,,,,,,,,,,3,0,3,0,1,,,,,,,,,,,,,
,,,,,,,,,,60487c3f3ae5a81d6f322d73,27,Mężczyzna,2022-06-04_08h43.11.015,task,2021.1.4,Win32,60.0240096,628b806c463b948bc644b84f,629afec08dc06083f04a4548,,,,,,,,,,,,,,,,,,,,,,,,,,,,,,,,,,,,,,,,,,,,,,,,,,,,,,,,,,,,,,,,,,,,,,,,,,,,,,,,,,,,,,,,,,,ztmd,"[""z"",""t"",""m"",""d""]",0,"[2.4470000000000027,2.6789999999999736,3.085999999999899,3.4470000000000027,5.375999999999976]",1,ZTMD,2,0,2,0,1,,
,,,,,,,,,,60487c3f3ae5a81d6f322d73,27,Mężczyzna,2022-06-04_08h43.11.015,task,2021.1.4,Win32,60.0240096,628b806c463b948bc644b84f,629afec08dc06083f04a4548,,,,,,,,,,,,,,,,,,,,,,,8,,,,,,,,,,Task,23,(2x3) + 2,8,,,,,,,,,,,,,,,,,,,1,,,,,,,,,,,,,,,,,,,,,,,"[""8""]",1,[1.8000000000000682],0,0,0,22,1,,,,,,,,,,,,,,,,,,
,,,,,,,,,,60487c3f3ae5a81d6f322d73,27,Mężczyzna,2022-06-04_08h43.11.015,task,2021.1.4,Win32,60.0240096,628b806c463b948bc644b84f,629afec08dc06083f04a4548,,,,,,,,,,X V Q F H G B L J M P D K C T S W R N Z,,,,,,,,,,,,,,,,,,,,,,,,,,,,,,,,,,,,,,,,,,,,,,,,,,,,,,,,,,,,,,,,,,,,,,,,,,,,0,0,0,0,1,,,,,,,,,,,,,
,,,,,,,,,,60487c3f3ae5a81d6f322d73,27,Mężczyzna,2022-06-04_08h43.11.015,task,2021.1.4,Win32,60.0240096,628b806c463b948bc644b84f,629afec08dc06083f04a4548,,,,,,,,,,,,,,,,,,,,,,,,,,,,,,,,,Task,25,(10/5) - 2,0,,,,,,,,,,,,,,,,,,,0,,,,,,,,,,,,,,,,,,,,,,,,0,,0,0,0,24,1,,,,,,,,,,,,,,,,,,
,,,,,,,,,,60487c3f3ae5a81d6f322d73,27,Mężczyzna,2022-06-04_08h43.11.015,task,2021.1.4,Win32,60.0240096,628b806c463b948bc644b84f,629afec08dc06083f04a4548,,,,,,,,,,,,,,,,,,,,,,,1,,,,,,,,,,Task,18,(16/4) - 3,1,,,,,,,,,,,,,,,,,,,1,,,,,,,,,,,,,,,,,,,,,,,"[""1""]",1,[2.2649999999999864],0,1,1,17,1,,,,,,,,,,,,,,,,,,
,,,,,,,,,,60487c3f3ae5a81d6f322d73,27,Mężczyzna,2022-06-04_08h43.11.015,task,2021.1.4,Win32,60.0240096,628b806c463b948bc644b84f,629afec08dc06083f04a4548,,,,,,,,,,X V Q F H G B L J M P D K C T S W R N Z,,,,,,,,,,,,,,,,,,,,,,,,,,,,,,,,,,,,,,,,,,,,,,,,,,,,,,,,,,,,,,,,,,,,,,,,,,,,1,0,1,0,1,,,,,,,,,,,,,
,,,,,,,,,,60487c3f3ae5a81d6f322d73,27,Mężczyzna,2022-06-04_08h43.11.015,task,2021.1.4,Win32,60.0240096,628b806c463b948bc644b84f,629afec08dc06083f04a4548,,,,,,,,,,,,,,,,,,,,,,,8,,,,,,,,,,Task,39,(5x3) - 7,8,,,,,,,,,,,,,,,,,,,1,,,,,,,,,,,,,,,,,,,,,,,"[""8""]",1,[2.558999999999969],0,0,0,38,1,,,,,,,,,,,,,,,,,,
,,,,,,,,,,60487c3f3ae5a81d6f322d73,27,Mężczyzna,2022-06-04_08h43.11.015,task,2021.1.4,Win32,60.0240096,628b806c463b948bc644b84f,629afec08dc06083f04a4548,,,,,,,,,,X V Q F H G B L J M P D K C T S W R N Z,,,,,,,,,,,,,,,,,,,,,,,,,,,,,,,,,,,,,,,,,,,,,,,,,,,,,,,,,,,,,,,,,,,,,,,,,,,,2,0,2,0,1,,,,,,,,,,,,,
,,,,,,,,,,60487c3f3ae5a81d6f322d73,27,Mężczyzna,2022-06-04_08h43.11.015,task,2021.1.4,Win32,60.0240096,628b806c463b948bc644b84f,629afec08dc06083f04a4548,,,,,,,,,,,,,,,,,,,,,,,9,,,,,,,,,,Task,24,(2x2) + 5,9,,,,,,,,,,,,,,,,,,,1,,,,,,,,,,,,,,,,,,,,,,,"[""9""]",1,[2.285000000000082],0,0,0,23,1,,,,,,,,,,,,,,,,,,
,,,,,,,,,,60487c3f3ae5a81d6f322d73,27,Mężczyzna,2022-06-04_08h43.11.015,task,2021.1.4,Win32,60.0240096,628b806c463b948bc644b84f,629afec08dc06083f04a4548,,,,,,,,,,X V Q F H G B L J M P D K C T S W R N Z,,,,,,,,,,,,,,,,,,,,,,,,,,,,,,,,,,,,,,,,,,,,,,,,,,,,,,,,,,,,,,,,,,,,,,,,,,,,3,0,3,0,1,,,,,,,,,,,,,
,,,,,,,,,,60487c3f3ae5a81d6f322d73,27,Mężczyzna,2022-06-04_08h43.11.015,task,2021.1.4,Win32,60.0240096,628b806c463b948bc644b84f,629afec08dc06083f04a4548,,,,,,,,,,,,,,,,,,,,,,,6,,,,,,,,,,Task,37,(3/3) + 5,6,,,,,,,,,,,,,,,,,,,1,,,,,,,,,,,,,,,,,,,,,,,"[""6""]",1,[1.7830000000000155],0,0,0,36,1,,,,,,,,,,,,,,,,,,
,,,,,,,,,,60487c3f3ae5a81d6f322d73,27,Mężczyzna,2022-06-04_08h43.11.015,task,2021.1.4,Win32,60.0240096,628b806c463b948bc644b84f,629afec08dc06083f04a4548,,,,,,,,,,X V Q F H G B L J M P D K C T S W R N Z,,,,,,,,,,,,,,,,,,,,,,,,,,,,,,,,,,,,,,,,,,,,,,,,,,,,,,,,,,,,,,,,,,,,,,,,,,,,4,0,4,0,1,,,,,,,,,,,,,
,,,,,,,,,,60487c3f3ae5a81d6f322d73,27,Mężczyzna,2022-06-04_08h43.11.015,task,2021.1.4,Win32,60.0240096,628b806c463b948bc644b84f,629afec08dc06083f04a4548,,,,,,,,,,,,,,,,,,,,,,,,,,,,,,,,,,,,,,,,,,,,,,,,,,,,,,,,,,,,,,,,,,,,,,,,,,,,,,,,,,,,,,,,,,,wcqjn,"[""w"",""c"",""q"",""j"",""n""]",0,"[5.288999999999987,5.634999999999991,6.0090000000000146,6.513000000000034,6.754000000000019,8.137000000000057]",1,WCQJN,3,0,3,0,1,,
,,,,,,,,,,60487c3f3ae5a81d6f322d73,27,Mężczyzna,2022-06-04_08h43.11.015,task,2021.1.4,Win32,60.0240096,628b806c463b948bc644b84f,629afec08dc06083f04a4548,,,,,,,,,,,,,,,,,,,,,,,0,,,,,,,,,,Task,25,(10/5) - 2,0,,,,,,,,,,,,,,,,,,,1,,,,,,,,,,,,,,,,,,,,,,,"[""0""]",1,[2.4740000000000464],0,0,0,24,1,,,,,,,,,,,,,,,,,,
,,,,,,,,,,60487c3f3ae5a81d6f322d73,27,Mężczyzna,2022-06-04_08h43.11.015,task,2021.1.4,Win32,60.0240096,628b806c463b948bc644b84f,629afec08dc06083f04a4548,,,,,,,,,,X V Q F H G B L J M P D K C T S W R N Z,,,,,,,,,,,,,,,,,,,,,,,,,,,,,,,,,,,,,,,,,,,,,,,,,,,,,,,,,,,,,,,,,,,,,,,,,,,,0,0,0,0,1,,,,,,,,,,,,,
,,,,,,,,,,60487c3f3ae5a81d6f322d73,27,Mężczyzna,2022-06-04_08h43.11.015,task,2021.1.4,Win32,60.0240096,628b806c463b948bc644b84f,629afec08dc06083f04a4548,,,,,,,,,,,,,,,,,,,,,,,9,,,,,,,,,,Task,24,(2x2) + 5,9,,,,,,,,,,,,,,,,,,,1,,,,,,,,,,,,,,,,,,,,,,,"[""9""]",1,[1.4049999999999727],0,0,0,23,1,,,,,,,,,,,,,,,,,,
,,,,,,,,,,60487c3f3ae5a81d6f322d73,27,Mężczyzna,2022-06-04_08h43.11.015,task,2021.1.4,Win32,60.0240096,628b806c463b948bc644b84f,629afec08dc06083f04a4548,,,,,,,,,,X V Q F H G B L J M P D K C T S W R N Z,,,,,,,,,,,,,,,,,,,,,,,,,,,,,,,,,,,,,,,,,,,,,,,,,,,,,,,,,,,,,,,,,,,,,,,,,,,,1,0,1,0,1,,,,,,,,,,,,,
,,,,,,,,,,60487c3f3ae5a81d6f322d73,27,Mężczyzna,2022-06-04_08h43.11.015,task,2021.1.4,Win32,60.0240096,628b806c463b948bc644b84f,629afec08dc06083f04a4548,,,,,,,,,,,,,,,,,,,,,,,1,,,,,,,,,,Task,1,(12/6) - 1,1,,,,,,,,,,,,,,,,,,,1,,,,,,,,,,,,,,,,,,,,,,,"[""1""]",1,[2.340000000000032],0,0,0,0,1,,,,,,,,,,,,,,,,,,
,,,,,,,,,,60487c3f3ae5a81d6f322d73,27,Mężczyzna,2022-06-04_08h43.11.015,task,2021.1.4,Win32,60.0240096,628b806c463b948bc644b84f,629afec08dc06083f04a4548,,,,,,,,,,X V Q F H G B L J M P D K C T S W R N Z,,,,,,,,,,,,,,,,,,,,,,,,,,,,,,,,,,,,,,,,,,,,,,,,,,,,,,,,,,,,,,,,,,,,,,,,,,,,2,0,2,0,1,,,,,,,,,,,,,
,,,,,,,,,,60487c3f3ae5a81d6f322d73,27,Mężczyzna,2022-06-04_08h43.11.015,task,2021.1.4,Win32,60.0240096,628b806c463b948bc644b84f,629afec08dc06083f04a4548,,,,,,,,,,,,,,,,,,,,,,,6,,,,,,,,,,Task,30,(6/3) + 4 ,6,,,,,,,,,,,,,,,,,,,1,,,,,,,,,,,,,,,,,,,,,,,"[""6""]",1,[1.9750000000000227],0,0,0,29,1,,,,,,,,,,,,,,,,,,
,,,,,,,,,,60487c3f3ae5a81d6f322d73,27,Mężczyzna,2022-06-04_08h43.11.015,task,2021.1.4,Win32,60.0240096,628b806c463b948bc644b84f,629afec08dc06083f04a4548,,,,,,,,,,X V Q F H G B L J M P D K C T S W R N Z,,,,,,,,,,,,,,,,,,,,,,,,,,,,,,,,,,,,,,,,,,,,,,,,,,,,,,,,,,,,,,,,,,,,,,,,,,,,3,0,3,0,1,,,,,,,,,,,,,
,,,,,,,,,,60487c3f3ae5a81d6f322d73,27,Mężczyzna,2022-06-04_08h43.11.015,task,2021.1.4,Win32,60.0240096,628b806c463b948bc644b84f,629afec08dc06083f04a4548,,,,,,,,,,,,,,,,,,,,,,,6,,,,,,,,,,Task,13,(3x4) - 6,6,,,,,,,,,,,,,,,,,,,1,,,,,,,,,,,,,,,,,,,,,,,"[""6""]",1,[2.177000000000021],0,0,0,12,1,,,,,,,,,,,,,,,,,,
,,,,,,,,,,60487c3f3ae5a81d6f322d73,27,Mężczyzna,2022-06-04_08h43.11.015,task,2021.1.4,Win32,60.0240096,628b806c463b948bc644b84f,629afec08dc06083f04a4548,,,,,,,,,,X V Q F H G B L J M P D K C T S W R N Z,,,,,,,,,,,,,,,,,,,,,,,,,,,,,,,,,,,,,,,,,,,,,,,,,,,,,,,,,,,,,,,,,,,,,,,,,,,,4,0,4,0,1,,,,,,,,,,,,,
,,,,,,,,,,60487c3f3ae5a81d6f322d73,27,Mężczyzna,2022-06-04_08h43.11.015,task,2021.1.4,Win32,60.0240096,628b806c463b948bc644b84f,629afec08dc06083f04a4548,,,,,,,,,,,,,,,,,,,,,,,8,,,,,,,,,,Task,15,(3x7) - 13,8,,,,,,,,,,,,,,,,,,,1,,,,,,,,,,,,,,,,,,,,,,,"[""8""]",1,[3.481999999999971],0,0,0,14,1,,,,,,,,,,,,,,,,,,
,,,,,,,,,,60487c3f3ae5a81d6f322d73,27,Mężczyzna,2022-06-04_08h43.11.015,task,2021.1.4,Win32,60.0240096,628b806c463b948bc644b84f,629afec08dc06083f04a4548,,,,,,,,,,X V Q F H G B L J M P D K C T S W R N Z,,,,,,,,,,,,,,,,,,,,,,,,,,,,,,,,,,,,,,,,,,,,,,,,,,,,,,,,,,,,,,,,,,,,,,,,,,,,5,0,5,0,1,,,,,,,,,,,,,
,,,,,,,,,,60487c3f3ae5a81d6f322d73,27,Mężczyzna,2022-06-04_08h43.11.015,task,2021.1.4,Win32,60.0240096,628b806c463b948bc644b84f,629afec08dc06083f04a4548,,,,,,,,,,,,,,,,,,,,,,,,,,,,,,,,,,,,,,,,,,,,,,,,,,,,,,,,,,,,,,,,,,,,,,,,,,,,,,,,,,,,,,,,,,,lwtnhh,"[""l"",""w"",""t"",""n"",""h"",""h""]",0,"[4.301999999999907,4.9799999999999045,5.517999999999915,6.2029999999999745,6.751999999999953,7.2439999999999145,8.350999999999999]",1,LWTNHH,4,0,4,0,1,,
,,,,,,,,,,60487c3f3ae5a81d6f322d73,27,Mężczyzna,2022-06-04_08h43.11.015,task,2021.1.4,Win32,60.0240096,628b806c463b948bc644b84f,629afec08dc06083f04a4548,,,,,,,,,,,,,,,,,,,,,,,5,,,,,,,,,,Task,22,(3x1) + 2,5,,,,,,,,,,,,,,,,,,,1,,,,,,,,,,,,,,,,,,,,,,,"[""5""]",1,[1.7169999999999845],0,0,0,21,1,,,,,,,,,,,,,,,,,,
,,,,,,,,,,60487c3f3ae5a81d6f322d73,27,Mężczyzna,2022-06-04_08h43.11.015,task,2021.1.4,Win32,60.0240096,628b806c463b948bc644b84f,629afec08dc06083f04a4548,,,,,,,,,,X V Q F H G B L J M P D K C T S W R N Z,,,,,,,,,,,,,,,,,,,,,,,,,,,,,,,,,,,,,,,,,,,,,,,,,,,,,,,,,,,,,,,,,,,,,,,,,,,,0,0,0,0,1,,,,,,,,,,,,,
,,,,,,,,,,60487c3f3ae5a81d6f322d73,27,Mężczyzna,2022-06-04_08h43.11.015,task,2021.1.4,Win32,60.0240096,628b806c463b948bc644b84f,629afec08dc06083f04a4548,,,,,,,,,,,,,,,,,,,,,,,7,,,,,,,,,,Task,6,(12/2) + 1,7,,,,,,,,,,,,,,,,,,,1,,,,,,,,,,,,,,,,,,,,,,,"[""7""]",1,[2.766999999999939],0,0,0,5,1,,,,,,,,,,,,,,,,,,
,,,,,,,,,,60487c3f3ae5a81d6f322d73,27,Mężczyzna,2022-06-04_08h43.11.015,task,2021.1.4,Win32,60.0240096,628b806c463b948bc644b84f,629afec08dc06083f04a4548,,,,,,,,,,X V Q F H G B L J M P D K C T S W R N Z,,,,,,,,,,,,,,,,,,,,,,,,,,,,,,,,,,,,,,,,,,,,,,,,,,,,,,,,,,,,,,,,,,,,,,,,,,,,1,0,1,0,1,,,,,,,,,,,,,
,,,,,,,,,,60487c3f3ae5a81d6f322d73,27,Mężczyzna,2022-06-04_08h43.11.015,task,2021.1.4,Win32,60.0240096,628b806c463b948bc644b84f,629afec08dc06083f04a4548,,,,,,,,,,,,,,,,,,,,,,,8,,,,,,,,,,Task,39,(5x3) - 7,8,,,,,,,,,,,,,,,,,,,1,,,,,,,,,,,,,,,,,,,,,,,"[""8""]",1,[3.822999999999979],0,0,0,38,1,,,,,,,,,,,,,,,,,,
,,,,,,,,,,60487c3f3ae5a81d6f322d73,27,Mężczyzna,2022-06-04_08h43.11.015,task,2021.1.4,Win32,60.0240096,628b806c463b948bc644b84f,629afec08dc06083f04a4548,,,,,,,,,,X V Q F H G B L J M P D K C T S W R N Z,,,,,,,,,,,,,,,,,,,,,,,,,,,,,,,,,,,,,,,,,,,,,,,,,,,,,,,,,,,,,,,,,,,,,,,,,,,,2,0,2,0,1,,,,,,,,,,,,,
,,,,,,,,,,60487c3f3ae5a81d6f322d73,27,Mężczyzna,2022-06-04_08h43.11.015,task,2021.1.4,Win32,60.0240096,628b806c463b948bc644b84f,629afec08dc06083f04a4548,,,,,,,,,,,,,,,,,,,,,,,3,,,,,,,,,,Task,27,(3/3) + 2,3,,,,,,,,,,,,,,,,,,,1,,,,,,,,,,,,,,,,,,,,,,,"[""3""]",1,[2.991999999999962],0,0,0,26,1,,,,,,,,,,,,,,,,,,
,,,,,,,,,,60487c3f3ae5a81d6f322d73,27,Mężczyzna,2022-06-04_08h43.11.015,task,2021.1.4,Win32,60.0240096,628b806c463b948bc644b84f,629afec08dc06083f04a4548,,,,,,,,,,X V Q F H G B L J M P D K C T S W R N Z,,,,,,,,,,,,,,,,,,,,,,,,,,,,,,,,,,,,,,,,,,,,,,,,,,,,,,,,,,,,,,,,,,,,,,,,,,,,3,0,3,0,1,,,,,,,,,,,,,
,,,,,,,,,,60487c3f3ae5a81d6f322d73,27,Mężczyzna,2022-06-04_08h43.11.015,task,2021.1.4,Win32,60.0240096,628b806c463b948bc644b84f,629afec08dc06083f04a4548,,,,,,,,,,,,,,,,,,,,,,,8,,,,,,,,,,Task,15,(3x7) - 13,8,,,,,,,,,,,,,,,,,,,1,,,,,,,,,,,,,,,,,,,,,,,"[""8""]",1,[4.615000000000009],0,0,0,14,1,,,,,,,,,,,,,,,,,,
,,,,,,,,,,60487c3f3ae5a81d6f322d73,27,Mężczyzna,2022-06-04_08h43.11.015,task,2021.1.4,Win32,60.0240096,628b806c463b948bc644b84f,629afec08dc06083f04a4548,,,,,,,,,,X V Q F H G B L J M P D K C T S W R N Z,,,,,,,,,,,,,,,,,,,,,,,,,,,,,,,,,,,,,,,,,,,,,,,,,,,,,,,,,,,,,,,,,,,,,,,,,,,,4,0,4,0,1,,,,,,,,,,,,,
,,,,,,,,,,60487c3f3ae5a81d6f322d73,27,Mężczyzna,2022-06-04_08h43.11.015,task,2021.1.4,Win32,60.0240096,628b806c463b948bc644b84f,629afec08dc06083f04a4548,,,,,,,,,,,,,,,,,,,,,,,3,,,,,,,,,,Task,20,(18/9) + 1,3,,,,,,,,,,,,,,,,,,,1,,,,,,,,,,,,,,,,,,,,,,,"[""3""]",1,[3.0370000000000346],0,0,0,19,1,,,,,,,,,,,,,,,,,,
,,,,,,,,,,60487c3f3ae5a81d6f322d73,27,Mężczyzna,2022-06-04_08h43.11.015,task,2021.1.4,Win32,60.0240096,628b806c463b948bc644b84f,629afec08dc06083f04a4548,,,,,,,,,,X V Q F H G B L J M P D K C T S W R N Z,,,,,,,,,,,,,,,,,,,,,,,,,,,,,,,,,,,,,,,,,,,,,,,,,,,,,,,,,,,,,,,,,,,,,,,,,,,,5,0,5,0,1,,,,,,,,,,,,,
,,,,,,,,,,60487c3f3ae5a81d6f322d73,27,Mężczyzna,2022-06-04_08h43.11.015,task,2021.1.4,Win32,60.0240096,628b806c463b948bc644b84f,629afec08dc06083f04a4548,,,,,,,,,,,,,,,,,,,,,,,5,,,,,,,,,,Task,12,(4x4) - 11,5,,,,,,,,,,,,,,,,,,,1,,,,,,,,,,,,,,,,,,,,,,,"[""5""]",1,[2.788000000000011],0,0,0,11,1,,,,,,,,,,,,,,,,,,
,,,,,,,,,,60487c3f3ae5a81d6f322d73,27,Mężczyzna,2022-06-04_08h43.11.015,task,2021.1.4,Win32,60.0240096,628b806c463b948bc644b84f,629afec08dc06083f04a4548,,,,,,,,,,X V Q F H G B L J M P D K C T S W R N Z,,,,,,,,,,,,,,,,,,,,,,,,,,,,,,,,,,,,,,,,,,,,,,,,,,,,,,,,,,,,,,,,,,,,,,,,,,,,6,0,6,0,1,,,,,,,,,,,,,
,,,,,,,,,,60487c3f3ae5a81d6f322d73,27,Mężczyzna,2022-06-04_08h43.11.015,task,2021.1.4,Win32,60.0240096,628b806c463b948bc644b84f,629afec08dc06083f04a4548,,,,,,,,,,,,,,,,,,,,,,,,,,,,,,,,,,,,,,,,,,,,,,,,,,,,,,,,,,,,,,,,,,,,,,,,,,,,,,,,,,,,,,,,,,,wkjckbv,"[""w"",""k"",""j"",""c"",""k"",""b"",""v""]",0,"[2.225999999999999,2.826000000000022,3.3940000000000055,4.302000000000021,7.346000000000004,8.019000000000005,8.286000000000058,11.003000000000043]",1,WKJCKBV,5,0,5,0,1,,
,,,,,,,,,,60487c3f3ae5a81d6f322d73,27,Mężczyzna,2022-06-04_08h43.11.015,task,2021.1.4,Win32,60.0240096,628b806c463b948bc644b84f,629afec08dc06083f04a4548,,,,,,,,,,,,,,,,,,,,,,,5,,,,,,,,,,Task,22,(3x1) + 2,5,,,,,,,,,,,,,,,,,,,1,,,,,,,,,,,,,,,,,,,,,,,"[""5""]",1,[2.3810000000000855],0,0,0,21,1,,,,,,,,,,,,,,,,,,
,,,,,,,,,,60487c3f3ae5a81d6f322d73,27,Mężczyzna,2022-06-04_08h43.11.015,task,2021.1.4,Win32,60.0240096,628b806c463b948bc644b84f,629afec08dc06083f04a4548,,,,,,,,,,X V Q F H G B L J M P D K C T S W R N Z,,,,,,,,,,,,,,,,,,,,,,,,,,,,,,,,,,,,,,,,,,,,,,,,,,,,,,,,,,,,,,,,,,,,,,,,,,,,0,0,0,0,1,,,,,,,,,,,,,
