key_resp_15.keys,key_resp_15.rt,key_resp_13.keys,key_resp_13.corr,key_resp_13.rt,ranodm_loop.thisRepN,ranodm_loop.thisTrialN,ranodm_loop.thisN,ranodm_loop.thisIndex,ranodm_loop.ran,participant,Wiek*,Płeć,date,expName,psychopyVersion,OS,frameRate,study_id,session,key_resp_16.keys,key_resp_16.rt,key_resp_4.keys,key_resp_4.rt,next_letter.thisRepN,next_letter.thisTrialN,next_letter.thisN,next_letter.thisIndex,next_letter.ran,letter,simple_recall,key_resp_5.keys,key_resp_5.rt,simple_recall_corr,simple_recall_corrkeys,next_level.thisRepN,next_level.thisTrialN,next_level.thisN,next_level.thisIndex,next_level.ran,key_resp_2.keys,key_resp_2.rt,digit_answer,key_resp.keys,key_resp.corr,key_resp.rt,RT_list,next_equation.thisRepN,next_equation.thisTrialN,next_equation.thisN,next_equation.thisIndex,next_equation.ran,Task,Trial,Problem,Operation_answer,processing_score,sumRT,meanRT,sumdiff,sd,RT,key_resp_3.keys,key_resp_3.rt,repeat_practice.thisRepN,repeat_practice.thisTrialN,repeat_practice.thisN,repeat_practice.thisIndex,repeat_practice.ran,key_resp_6.keys,key_resp_6.rt,key_resp_11.keys,key_resp_11.corr,key_resp_11.rt,operation_correct,repeat_if_wrong_prac.thisRepN,repeat_if_wrong_prac.thisTrialN,repeat_if_wrong_prac.thisN,repeat_if_wrong_prac.thisIndex,repeat_if_wrong_prac.ran,span_size_prac.thisRepN,span_size_prac.thisTrialN,span_size_prac.thisN,span_size_prac.thisIndex,span_size_prac.ran,complex_recall_practice,key_resp_9.keys,key_resp_9.corr,key_resp_9.rt,complex_prac_corr,span_recall_prac.thisRepN,span_recall_prac.thisTrialN,span_recall_prac.thisN,span_recall_prac.thisIndex,span_recall_prac.ran,key_resp_10.keys,key_resp_10.rt,key_resp_7.keys,key_resp_7.corr,repeat_if_wrong.thisRepN,repeat_if_wrong.thisTrialN,repeat_if_wrong.thisN,repeat_if_wrong.thisIndex,repeat_if_wrong.ran,key_resp_7.rt,span_size.thisRepN,span_size.thisTrialN,span_size.thisN,span_size.thisIndex,span_size.ran,complex_recall,key_resp_8.keys,key_resp_8.corr,key_resp_8.rt,complex_recall_corr,complex_recall_corrkeys,span_recall.thisRepN,span_recall.thisTrialN,span_recall.thisN,span_recall.thisIndex,span_recall.ran,key_resp_12.keys,key_resp_12.rt
space,22.4837,"[""comma""]",0,[1.8867999999523164],0,0,0,0,1,604d6dd610326bec3ab2d15e,20,Mężczyzna,2022-06-10_12h58.10.502,task,2021.1.4,Win32,75.26719855,628b806c463b948bc644b84f,62a323b40ba0e39638525511,,,,,,,,,,,,,,,,,,,,,,,,,,,,,,,,,,,,,,,,,,,,,,,,,,,,,,,,,,,,,,,,,,,,,,,,,,,,,,,,,,,,,,,,,,,,,,,,,,,,,,,
,,"[""period""]",0,[1.4035999999046282],1,0,1,0,1,604d6dd610326bec3ab2d15e,20,Mężczyzna,2022-06-10_12h58.10.502,task,2021.1.4,Win32,75.26719855,628b806c463b948bc644b84f,62a323b40ba0e39638525511,,,,,,,,,,,,,,,,,,,,,,,,,,,,,,,,,,,,,,,,,,,,,,,,,,,,,,,,,,,,,,,,,,,,,,,,,,,,,,,,,,,,,,,,,,,,,,,,,,,,,,,
,,"[""period""]",0,[0.9973000001907337],2,0,2,0,1,604d6dd610326bec3ab2d15e,20,Mężczyzna,2022-06-10_12h58.10.502,task,2021.1.4,Win32,75.26719855,628b806c463b948bc644b84f,62a323b40ba0e39638525511,,,,,,,,,,,,,,,,,,,,,,,,,,,,,,,,,,,,,,,,,,,,,,,,,,,,,,,,,,,,,,,,,,,,,,,,,,,,,,,,,,,,,,,,,,,,,,,,,,,,,,,
,,"[""comma""]",0,[1.458199999809267],3,0,3,0,1,604d6dd610326bec3ab2d15e,20,Mężczyzna,2022-06-10_12h58.10.502,task,2021.1.4,Win32,75.26719855,628b806c463b948bc644b84f,62a323b40ba0e39638525511,,,,,,,,,,,,,,,,,,,,,,,,,,,,,,,,,,,,,,,,,,,,,,,,,,,,,,,,,,,,,,,,,,,,,,,,,,,,,,,,,,,,,,,,,,,,,,,,,,,,,,,
,,,0,,4,0,4,0,1,604d6dd610326bec3ab2d15e,20,Mężczyzna,2022-06-10_12h58.10.502,task,2021.1.4,Win32,75.26719855,628b806c463b948bc644b84f,62a323b40ba0e39638525511,,,,,,,,,,,,,,,,,,,,,,,,,,,,,,,,,,,,,,,,,,,,,,,,,,,,,,,,,,,,,,,,,,,,,,,,,,,,,,,,,,,,,,,,,,,,,,,,,,,,,,,
,,"[""period"",""comma""]",0,"[0.25329999995231844,1.2292999999523175]",5,0,5,0,1,604d6dd610326bec3ab2d15e,20,Mężczyzna,2022-06-10_12h58.10.502,task,2021.1.4,Win32,75.26719855,628b806c463b948bc644b84f,62a323b40ba0e39638525511,,,,,,,,,,,,,,,,,,,,,,,,,,,,,,,,,,,,,,,,,,,,,,,,,,,,,,,,,,,,,,,,,,,,,,,,,,,,,,,,,,,,,,,,,,,,,,,,,,,,,,,
,,"[""comma""]",0,[0.8532999999523128],6,0,6,0,1,604d6dd610326bec3ab2d15e,20,Mężczyzna,2022-06-10_12h58.10.502,task,2021.1.4,Win32,75.26719855,628b806c463b948bc644b84f,62a323b40ba0e39638525511,,,,,,,,,,,,,,,,,,,,,,,,,,,,,,,,,,,,,,,,,,,,,,,,,,,,,,,,,,,,,,,,,,,,,,,,,,,,,,,,,,,,,,,,,,,,,,,,,,,,,,,
,,"[""period""]",0,[0.8082999999523253],7,0,7,0,1,604d6dd610326bec3ab2d15e,20,Mężczyzna,2022-06-10_12h58.10.502,task,2021.1.4,Win32,75.26719855,628b806c463b948bc644b84f,62a323b40ba0e39638525511,,,,,,,,,,,,,,,,,,,,,,,,,,,,,,,,,,,,,,,,,,,,,,,,,,,,,,,,,,,,,,,,,,,,,,,,,,,,,,,,,,,,,,,,,,,,,,,,,,,,,,,
,,"[""period""]",0,[0.5138999998569602],8,0,8,0,1,604d6dd610326bec3ab2d15e,20,Mężczyzna,2022-06-10_12h58.10.502,task,2021.1.4,Win32,75.26719855,628b806c463b948bc644b84f,62a323b40ba0e39638525511,,,,,,,,,,,,,,,,,,,,,,,,,,,,,,,,,,,,,,,,,,,,,,,,,,,,,,,,,,,,,,,,,,,,,,,,,,,,,,,,,,,,,,,,,,,,,,,,,,,,,,,
,,"[""comma""]",0,[0.3279000000953687],9,0,9,0,1,604d6dd610326bec3ab2d15e,20,Mężczyzna,2022-06-10_12h58.10.502,task,2021.1.4,Win32,75.26719855,628b806c463b948bc644b84f,62a323b40ba0e39638525511,,,,,,,,,,,,,,,,,,,,,,,,,,,,,,,,,,,,,,,,,,,,,,,,,,,,,,,,,,,,,,,,,,,,,,,,,,,,,,,,,,,,,,,,,,,,,,,,,,,,,,,
,,"[""comma""]",0,[0.5497999999523131],10,0,10,0,1,604d6dd610326bec3ab2d15e,20,Mężczyzna,2022-06-10_12h58.10.502,task,2021.1.4,Win32,75.26719855,628b806c463b948bc644b84f,62a323b40ba0e39638525511,,,,,,,,,,,,,,,,,,,,,,,,,,,,,,,,,,,,,,,,,,,,,,,,,,,,,,,,,,,,,,,,,,,,,,,,,,,,,,,,,,,,,,,,,,,,,,,,,,,,,,,
,,"[""comma""]",0,[0.5658999998569527],11,0,11,0,1,604d6dd610326bec3ab2d15e,20,Mężczyzna,2022-06-10_12h58.10.502,task,2021.1.4,Win32,75.26719855,628b806c463b948bc644b84f,62a323b40ba0e39638525511,,,,,,,,,,,,,,,,,,,,,,,,,,,,,,,,,,,,,,,,,,,,,,,,,,,,,,,,,,,,,,,,,,,,,,,,,,,,,,,,,,,,,,,,,,,,,,,,,,,,,,,
,,"[""comma""]",0,[0.5627000000476841],12,0,12,0,1,604d6dd610326bec3ab2d15e,20,Mężczyzna,2022-06-10_12h58.10.502,task,2021.1.4,Win32,75.26719855,628b806c463b948bc644b84f,62a323b40ba0e39638525511,,,,,,,,,,,,,,,,,,,,,,,,,,,,,,,,,,,,,,,,,,,,,,,,,,,,,,,,,,,,,,,,,,,,,,,,,,,,,,,,,,,,,,,,,,,,,,,,,,,,,,,
,,"[""period""]",0,[0.546999999999997],13,0,13,0,1,604d6dd610326bec3ab2d15e,20,Mężczyzna,2022-06-10_12h58.10.502,task,2021.1.4,Win32,75.26719855,628b806c463b948bc644b84f,62a323b40ba0e39638525511,,,,,,,,,,,,,,,,,,,,,,,,,,,,,,,,,,,,,,,,,,,,,,,,,,,,,,,,,,,,,,,,,,,,,,,,,,,,,,,,,,,,,,,,,,,,,,,,,,,,,,,
,,"[""comma""]",0,[0.33549999999999613],14,0,14,0,1,604d6dd610326bec3ab2d15e,20,Mężczyzna,2022-06-10_12h58.10.502,task,2021.1.4,Win32,75.26719855,628b806c463b948bc644b84f,62a323b40ba0e39638525511,,,,,,,,,,,,,,,,,,,,,,,,,,,,,,,,,,,,,,,,,,,,,,,,,,,,,,,,,,,,,,,,,,,,,,,,,,,,,,,,,,,,,,,,,,,,,,,,,,,,,,,
,,"[""period""]",0,[0.6617000000476736],15,0,15,0,1,604d6dd610326bec3ab2d15e,20,Mężczyzna,2022-06-10_12h58.10.502,task,2021.1.4,Win32,75.26719855,628b806c463b948bc644b84f,62a323b40ba0e39638525511,,,,,,,,,,,,,,,,,,,,,,,,,,,,,,,,,,,,,,,,,,,,,,,,,,,,,,,,,,,,,,,,,,,,,,,,,,,,,,,,,,,,,,,,,,,,,,,,,,,,,,,
,,"[""period""]",0,[0.333999999999989],16,0,16,0,1,604d6dd610326bec3ab2d15e,20,Mężczyzna,2022-06-10_12h58.10.502,task,2021.1.4,Win32,75.26719855,628b806c463b948bc644b84f,62a323b40ba0e39638525511,,,,,,,,,,,,,,,,,,,,,,,,,,,,,,,,,,,,,,,,,,,,,,,,,,,,,,,,,,,,,,,,,,,,,,,,,,,,,,,,,,,,,,,,,,,,,,,,,,,,,,,
,,"[""period""]",0,[0.26889999985694146],17,0,17,0,1,604d6dd610326bec3ab2d15e,20,Mężczyzna,2022-06-10_12h58.10.502,task,2021.1.4,Win32,75.26719855,628b806c463b948bc644b84f,62a323b40ba0e39638525511,,,,,,,,,,,,,,,,,,,,,,,,,,,,,,,,,,,,,,,,,,,,,,,,,,,,,,,,,,,,,,,,,,,,,,,,,,,,,,,,,,,,,,,,,,,,,,,,,,,,,,,
,,"[""comma""]",0,[0.21509999990463768],18,0,18,0,1,604d6dd610326bec3ab2d15e,20,Mężczyzna,2022-06-10_12h58.10.502,task,2021.1.4,Win32,75.26719855,628b806c463b948bc644b84f,62a323b40ba0e39638525511,,,,,,,,,,,,,,,,,,,,,,,,,,,,,,,,,,,,,,,,,,,,,,,,,,,,,,,,,,,,,,,,,,,,,,,,,,,,,,,,,,,,,,,,,,,,,,,,,,,,,,,
,,"[""period""]",0,[0.9597999999523097],19,0,19,0,1,604d6dd610326bec3ab2d15e,20,Mężczyzna,2022-06-10_12h58.10.502,task,2021.1.4,Win32,75.26719855,628b806c463b948bc644b84f,62a323b40ba0e39638525511,,,,,,,,,,,,,,,,,,,,,,,,,,,,,,,,,,,,,,,,,,,,,,,,,,,,,,,,,,,,,,,,,,,,,,,,,,,,,,,,,,,,,,,,,,,,,,,,,,,,,,,
,,"[""comma""]",0,[1.1512000000476803],20,0,20,0,1,604d6dd610326bec3ab2d15e,20,Mężczyzna,2022-06-10_12h58.10.502,task,2021.1.4,Win32,75.26719855,628b806c463b948bc644b84f,62a323b40ba0e39638525511,,,,,,,,,,,,,,,,,,,,,,,,,,,,,,,,,,,,,,,,,,,,,,,,,,,,,,,,,,,,,,,,,,,,,,,,,,,,,,,,,,,,,,,,,,,,,,,,,,,,,,,
,,"[""comma""]",0,[0.5626999998092685],21,0,21,0,1,604d6dd610326bec3ab2d15e,20,Mężczyzna,2022-06-10_12h58.10.502,task,2021.1.4,Win32,75.26719855,628b806c463b948bc644b84f,62a323b40ba0e39638525511,,,,,,,,,,,,,,,,,,,,,,,,,,,,,,,,,,,,,,,,,,,,,,,,,,,,,,,,,,,,,,,,,,,,,,,,,,,,,,,,,,,,,,,,,,,,,,,,,,,,,,,
,,"[""period""]",0,[0.2605000000000075],22,0,22,0,1,604d6dd610326bec3ab2d15e,20,Mężczyzna,2022-06-10_12h58.10.502,task,2021.1.4,Win32,75.26719855,628b806c463b948bc644b84f,62a323b40ba0e39638525511,,,,,,,,,,,,,,,,,,,,,,,,,,,,,,,,,,,,,,,,,,,,,,,,,,,,,,,,,,,,,,,,,,,,,,,,,,,,,,,,,,,,,,,,,,,,,,,,,,,,,,,
,,"[""period""]",0,[0.43429999995231583],23,0,23,0,1,604d6dd610326bec3ab2d15e,20,Mężczyzna,2022-06-10_12h58.10.502,task,2021.1.4,Win32,75.26719855,628b806c463b948bc644b84f,62a323b40ba0e39638525511,,,,,,,,,,,,,,,,,,,,,,,,,,,,,,,,,,,,,,,,,,,,,,,,,,,,,,,,,,,,,,,,,,,,,,,,,,,,,,,,,,,,,,,,,,,,,,,,,,,,,,,
,,"[""period""]",0,[0.32550000000000523],24,0,24,0,1,604d6dd610326bec3ab2d15e,20,Mężczyzna,2022-06-10_12h58.10.502,task,2021.1.4,Win32,75.26719855,628b806c463b948bc644b84f,62a323b40ba0e39638525511,,,,,,,,,,,,,,,,,,,,,,,,,,,,,,,,,,,,,,,,,,,,,,,,,,,,,,,,,,,,,,,,,,,,,,,,,,,,,,,,,,,,,,,,,,,,,,,,,,,,,,,
,,"[""comma""]",0,[0.3737000000476911],25,0,25,0,1,604d6dd610326bec3ab2d15e,20,Mężczyzna,2022-06-10_12h58.10.502,task,2021.1.4,Win32,75.26719855,628b806c463b948bc644b84f,62a323b40ba0e39638525511,,,,,,,,,,,,,,,,,,,,,,,,,,,,,,,,,,,,,,,,,,,,,,,,,,,,,,,,,,,,,,,,,,,,,,,,,,,,,,,,,,,,,,,,,,,,,,,,,,,,,,,
,,"[""period""]",0,[0.2670000000000101],26,0,26,0,1,604d6dd610326bec3ab2d15e,20,Mężczyzna,2022-06-10_12h58.10.502,task,2021.1.4,Win32,75.26719855,628b806c463b948bc644b84f,62a323b40ba0e39638525511,,,,,,,,,,,,,,,,,,,,,,,,,,,,,,,,,,,,,,,,,,,,,,,,,,,,,,,,,,,,,,,,,,,,,,,,,,,,,,,,,,,,,,,,,,,,,,,,,,,,,,,
,,"[""period""]",0,[0.2145999999046353],27,0,27,0,1,604d6dd610326bec3ab2d15e,20,Mężczyzna,2022-06-10_12h58.10.502,task,2021.1.4,Win32,75.26719855,628b806c463b948bc644b84f,62a323b40ba0e39638525511,,,,,,,,,,,,,,,,,,,,,,,,,,,,,,,,,,,,,,,,,,,,,,,,,,,,,,,,,,,,,,,,,,,,,,,,,,,,,,,,,,,,,,,,,,,,,,,,,,,,,,,
,,"[""period""]",0,[0.2154999999999916],28,0,28,0,1,604d6dd610326bec3ab2d15e,20,Mężczyzna,2022-06-10_12h58.10.502,task,2021.1.4,Win32,75.26719855,628b806c463b948bc644b84f,62a323b40ba0e39638525511,,,,,,,,,,,,,,,,,,,,,,,,,,,,,,,,,,,,,,,,,,,,,,,,,,,,,,,,,,,,,,,,,,,,,,,,,,,,,,,,,,,,,,,,,,,,,,,,,,,,,,,
,,"[""period""]",0,[0.17399999999997817],29,0,29,0,1,604d6dd610326bec3ab2d15e,20,Mężczyzna,2022-06-10_12h58.10.502,task,2021.1.4,Win32,75.26719855,628b806c463b948bc644b84f,62a323b40ba0e39638525511,,,,,,,,,,,,,,,,,,,,,,,,,,,,,,,,,,,,,,,,,,,,,,,,,,,,,,,,,,,,,,,,,,,,,,,,,,,,,,,,,,,,,,,,,,,,,,,,,,,,,,,
,,"[""period""]",0,[0.05330000019074532],30,0,30,0,1,604d6dd610326bec3ab2d15e,20,Mężczyzna,2022-06-10_12h58.10.502,task,2021.1.4,Win32,75.26719855,628b806c463b948bc644b84f,62a323b40ba0e39638525511,,,,,,,,,,,,,,,,,,,,,,,,,,,,,,,,,,,,,,,,,,,,,,,,,,,,,,,,,,,,,,,,,,,,,,,,,,,,,,,,,,,,,,,,,,,,,,,,,,,,,,,
,,"[""period""]",0,[0.5228000001907276],31,0,31,0,1,604d6dd610326bec3ab2d15e,20,Mężczyzna,2022-06-10_12h58.10.502,task,2021.1.4,Win32,75.26719855,628b806c463b948bc644b84f,62a323b40ba0e39638525511,,,,,,,,,,,,,,,,,,,,,,,,,,,,,,,,,,,,,,,,,,,,,,,,,,,,,,,,,,,,,,,,,,,,,,,,,,,,,,,,,,,,,,,,,,,,,,,,,,,,,,,
,,"[""period""]",0,[0.30179999995232265],32,0,32,0,1,604d6dd610326bec3ab2d15e,20,Mężczyzna,2022-06-10_12h58.10.502,task,2021.1.4,Win32,75.26719855,628b806c463b948bc644b84f,62a323b40ba0e39638525511,,,,,,,,,,,,,,,,,,,,,,,,,,,,,,,,,,,,,,,,,,,,,,,,,,,,,,,,,,,,,,,,,,,,,,,,,,,,,,,,,,,,,,,,,,,,,,,,,,,,,,,
,,"[""comma""]",0,[0.3684000000953631],33,0,33,0,1,604d6dd610326bec3ab2d15e,20,Mężczyzna,2022-06-10_12h58.10.502,task,2021.1.4,Win32,75.26719855,628b806c463b948bc644b84f,62a323b40ba0e39638525511,,,,,,,,,,,,,,,,,,,,,,,,,,,,,,,,,,,,,,,,,,,,,,,,,,,,,,,,,,,,,,,,,,,,,,,,,,,,,,,,,,,,,,,,,,,,,,,,,,,,,,,
,,"[""comma""]",0,[0.3748999998569502],34,0,34,0,1,604d6dd610326bec3ab2d15e,20,Mężczyzna,2022-06-10_12h58.10.502,task,2021.1.4,Win32,75.26719855,628b806c463b948bc644b84f,62a323b40ba0e39638525511,,,,,,,,,,,,,,,,,,,,,,,,,,,,,,,,,,,,,,,,,,,,,,,,,,,,,,,,,,,,,,,,,,,,,,,,,,,,,,,,,,,,,,,,,,,,,,,,,,,,,,,
,,"[""period"",""comma""]",0,"[0.18099999999998317,1.8138999998569432]",35,0,35,0,1,604d6dd610326bec3ab2d15e,20,Mężczyzna,2022-06-10_12h58.10.502,task,2021.1.4,Win32,75.26719855,628b806c463b948bc644b84f,62a323b40ba0e39638525511,,,,,,,,,,,,,,,,,,,,,,,,,,,,,,,,,,,,,,,,,,,,,,,,,,,,,,,,,,,,,,,,,,,,,,,,,,,,,,,,,,,,,,,,,,,,,,,,,,,,,,,
,,,0,,36,0,36,0,1,604d6dd610326bec3ab2d15e,20,Mężczyzna,2022-06-10_12h58.10.502,task,2021.1.4,Win32,75.26719855,628b806c463b948bc644b84f,62a323b40ba0e39638525511,,,,,,,,,,,,,,,,,,,,,,,,,,,,,,,,,,,,,,,,,,,,,,,,,,,,,,,,,,,,,,,,,,,,,,,,,,,,,,,,,,,,,,,,,,,,,,,,,,,,,,,
,,"[""period""]",0,[0.22440000009535765],37,0,37,0,1,604d6dd610326bec3ab2d15e,20,Mężczyzna,2022-06-10_12h58.10.502,task,2021.1.4,Win32,75.26719855,628b806c463b948bc644b84f,62a323b40ba0e39638525511,,,,,,,,,,,,,,,,,,,,,,,,,,,,,,,,,,,,,,,,,,,,,,,,,,,,,,,,,,,,,,,,,,,,,,,,,,,,,,,,,,,,,,,,,,,,,,,,,,,,,,,
,,"[""comma""]",0,[0.00040000009536811376],38,0,38,0,1,604d6dd610326bec3ab2d15e,20,Mężczyzna,2022-06-10_12h58.10.502,task,2021.1.4,Win32,75.26719855,628b806c463b948bc644b84f,62a323b40ba0e39638525511,,,,,,,,,,,,,,,,,,,,,,,,,,,,,,,,,,,,,,,,,,,,,,,,,,,,,,,,,,,,,,,,,,,,,,,,,,,,,,,,,,,,,,,,,,,,,,,,,,,,,,,
,,"[""period""]",0,[0.32800000000000296],39,0,39,0,1,604d6dd610326bec3ab2d15e,20,Mężczyzna,2022-06-10_12h58.10.502,task,2021.1.4,Win32,75.26719855,628b806c463b948bc644b84f,62a323b40ba0e39638525511,,,,,,,,,,,,,,,,,,,,,,,,,,,,,,,,,,,,,,,,,,,,,,,,,,,,,,,,,,,,,,,,,,,,,,,,,,,,,,,,,,,,,,,,,,,,,,,,,,,,,,,
,,"[""comma""]",0,[0.4537000000476894],40,0,40,0,1,604d6dd610326bec3ab2d15e,20,Mężczyzna,2022-06-10_12h58.10.502,task,2021.1.4,Win32,75.26719855,628b806c463b948bc644b84f,62a323b40ba0e39638525511,,,,,,,,,,,,,,,,,,,,,,,,,,,,,,,,,,,,,,,,,,,,,,,,,,,,,,,,,,,,,,,,,,,,,,,,,,,,,,,,,,,,,,,,,,,,,,,,,,,,,,,
,,"[""comma""]",0,[0.5269000000953667],41,0,41,0,1,604d6dd610326bec3ab2d15e,20,Mężczyzna,2022-06-10_12h58.10.502,task,2021.1.4,Win32,75.26719855,628b806c463b948bc644b84f,62a323b40ba0e39638525511,,,,,,,,,,,,,,,,,,,,,,,,,,,,,,,,,,,,,,,,,,,,,,,,,,,,,,,,,,,,,,,,,,,,,,,,,,,,,,,,,,,,,,,,,,,,,,,,,,,,,,,
,,"[""comma""]",0,[0.26940000009537357],42,0,42,0,1,604d6dd610326bec3ab2d15e,20,Mężczyzna,2022-06-10_12h58.10.502,task,2021.1.4,Win32,75.26719855,628b806c463b948bc644b84f,62a323b40ba0e39638525511,,,,,,,,,,,,,,,,,,,,,,,,,,,,,,,,,,,,,,,,,,,,,,,,,,,,,,,,,,,,,,,,,,,,,,,,,,,,,,,,,,,,,,,,,,,,,,,,,,,,,,,
,,"[""comma""]",0,[0.25459999990465576],43,0,43,0,1,604d6dd610326bec3ab2d15e,20,Mężczyzna,2022-06-10_12h58.10.502,task,2021.1.4,Win32,75.26719855,628b806c463b948bc644b84f,62a323b40ba0e39638525511,,,,,,,,,,,,,,,,,,,,,,,,,,,,,,,,,,,,,,,,,,,,,,,,,,,,,,,,,,,,,,,,,,,,,,,,,,,,,,,,,,,,,,,,,,,,,,,,,,,,,,,
,,"[""period""]",0,[0.3107000000476887],44,0,44,0,1,604d6dd610326bec3ab2d15e,20,Mężczyzna,2022-06-10_12h58.10.502,task,2021.1.4,Win32,75.26719855,628b806c463b948bc644b84f,62a323b40ba0e39638525511,,,,,,,,,,,,,,,,,,,,,,,,,,,,,,,,,,,,,,,,,,,,,,,,,,,,,,,,,,,,,,,,,,,,,,,,,,,,,,,,,,,,,,,,,,,,,,,,,,,,,,,
,,"[""comma""]",0,[0.23390000009536038],45,0,45,0,1,604d6dd610326bec3ab2d15e,20,Mężczyzna,2022-06-10_12h58.10.502,task,2021.1.4,Win32,75.26719855,628b806c463b948bc644b84f,62a323b40ba0e39638525511,,,,,,,,,,,,,,,,,,,,,,,,,,,,,,,,,,,,,,,,,,,,,,,,,,,,,,,,,,,,,,,,,,,,,,,,,,,,,,,,,,,,,,,,,,,,,,,,,,,,,,,
,,"[""period""]",0,[0.22739999985697068],46,0,46,0,1,604d6dd610326bec3ab2d15e,20,Mężczyzna,2022-06-10_12h58.10.502,task,2021.1.4,Win32,75.26719855,628b806c463b948bc644b84f,62a323b40ba0e39638525511,,,,,,,,,,,,,,,,,,,,,,,,,,,,,,,,,,,,,,,,,,,,,,,,,,,,,,,,,,,,,,,,,,,,,,,,,,,,,,,,,,,,,,,,,,,,,,,,,,,,,,,
,,"[""period""]",0,[0.2032999999523213],47,0,47,0,1,604d6dd610326bec3ab2d15e,20,Mężczyzna,2022-06-10_12h58.10.502,task,2021.1.4,Win32,75.26719855,628b806c463b948bc644b84f,62a323b40ba0e39638525511,,,,,,,,,,,,,,,,,,,,,,,,,,,,,,,,,,,,,,,,,,,,,,,,,,,,,,,,,,,,,,,,,,,,,,,,,,,,,,,,,,,,,,,,,,,,,,,,,,,,,,,
,,"[""comma"",""period""]",0,"[0.20830000019071804,1.9533000001907226]",48,0,48,0,1,604d6dd610326bec3ab2d15e,20,Mężczyzna,2022-06-10_12h58.10.502,task,2021.1.4,Win32,75.26719855,628b806c463b948bc644b84f,62a323b40ba0e39638525511,,,,,,,,,,,,,,,,,,,,,,,,,,,,,,,,,,,,,,,,,,,,,,,,,,,,,,,,,,,,,,,,,,,,,,,,,,,,,,,,,,,,,,,,,,,,,,,,,,,,,,,
,,,0,,49,0,49,0,1,604d6dd610326bec3ab2d15e,20,Mężczyzna,2022-06-10_12h58.10.502,task,2021.1.4,Win32,75.26719855,628b806c463b948bc644b84f,62a323b40ba0e39638525511,,,,,,,,,,,,,,,,,,,,,,,,,,,,,,,,,,,,,,,,,,,,,,,,,,,,,,,,,,,,,,,,,,,,,,,,,,,,,,,,,,,,,,,,,,,,,,,,,,,,,,,
,,"[""comma""]",0,[0.2670999999046444],50,0,50,0,1,604d6dd610326bec3ab2d15e,20,Mężczyzna,2022-06-10_12h58.10.502,task,2021.1.4,Win32,75.26719855,628b806c463b948bc644b84f,62a323b40ba0e39638525511,,,,,,,,,,,,,,,,,,,,,,,,,,,,,,,,,,,,,,,,,,,,,,,,,,,,,,,,,,,,,,,,,,,,,,,,,,,,,,,,,,,,,,,,,,,,,,,,,,,,,,,
,,"[""comma""]",0,[0.2538999998569693],51,0,51,0,1,604d6dd610326bec3ab2d15e,20,Mężczyzna,2022-06-10_12h58.10.502,task,2021.1.4,Win32,75.26719855,628b806c463b948bc644b84f,62a323b40ba0e39638525511,,,,,,,,,,,,,,,,,,,,,,,,,,,,,,,,,,,,,,,,,,,,,,,,,,,,,,,,,,,,,,,,,,,,,,,,,,,,,,,,,,,,,,,,,,,,,,,,,,,,,,,
,,"[""comma""]",0,[0.2435000000000116],52,0,52,0,1,604d6dd610326bec3ab2d15e,20,Mężczyzna,2022-06-10_12h58.10.502,task,2021.1.4,Win32,75.26719855,628b806c463b948bc644b84f,62a323b40ba0e39638525511,,,,,,,,,,,,,,,,,,,,,,,,,,,,,,,,,,,,,,,,,,,,,,,,,,,,,,,,,,,,,,,,,,,,,,,,,,,,,,,,,,,,,,,,,,,,,,,,,,,,,,,
,,"[""comma""]",0,[0.25789999985696],53,0,53,0,1,604d6dd610326bec3ab2d15e,20,Mężczyzna,2022-06-10_12h58.10.502,task,2021.1.4,Win32,75.26719855,628b806c463b948bc644b84f,62a323b40ba0e39638525511,,,,,,,,,,,,,,,,,,,,,,,,,,,,,,,,,,,,,,,,,,,,,,,,,,,,,,,,,,,,,,,,,,,,,,,,,,,,,,,,,,,,,,,,,,,,,,,,,,,,,,,
,,"[""comma"",""period""]",0,"[0.20390000009535925,1.8861000001430455]",54,0,54,0,1,604d6dd610326bec3ab2d15e,20,Mężczyzna,2022-06-10_12h58.10.502,task,2021.1.4,Win32,75.26719855,628b806c463b948bc644b84f,62a323b40ba0e39638525511,,,,,,,,,,,,,,,,,,,,,,,,,,,,,,,,,,,,,,,,,,,,,,,,,,,,,,,,,,,,,,,,,,,,,,,,,,,,,,,,,,,,,,,,,,,,,,,,,,,,,,,
,,,0,,55,0,55,0,1,604d6dd610326bec3ab2d15e,20,Mężczyzna,2022-06-10_12h58.10.502,task,2021.1.4,Win32,75.26719855,628b806c463b948bc644b84f,62a323b40ba0e39638525511,,,,,,,,,,,,,,,,,,,,,,,,,,,,,,,,,,,,,,,,,,,,,,,,,,,,,,,,,,,,,,,,,,,,,,,,,,,,,,,,,,,,,,,,,,,,,,,,,,,,,,,
,,"[""period""]",0,[0.33410000014305297],56,0,56,0,1,604d6dd610326bec3ab2d15e,20,Mężczyzna,2022-06-10_12h58.10.502,task,2021.1.4,Win32,75.26719855,628b806c463b948bc644b84f,62a323b40ba0e39638525511,,,,,,,,,,,,,,,,,,,,,,,,,,,,,,,,,,,,,,,,,,,,,,,,,,,,,,,,,,,,,,,,,,,,,,,,,,,,,,,,,,,,,,,,,,,,,,,,,,,,,,,
,,"[""comma""]",0,[0.26650000000000773],57,0,57,0,1,604d6dd610326bec3ab2d15e,20,Mężczyzna,2022-06-10_12h58.10.502,task,2021.1.4,Win32,75.26719855,628b806c463b948bc644b84f,62a323b40ba0e39638525511,,,,,,,,,,,,,,,,,,,,,,,,,,,,,,,,,,,,,,,,,,,,,,,,,,,,,,,,,,,,,,,,,,,,,,,,,,,,,,,,,,,,,,,,,,,,,,,,,,,,,,,
,,"[""period""]",0,[0.2048999998569343],58,0,58,0,1,604d6dd610326bec3ab2d15e,20,Mężczyzna,2022-06-10_12h58.10.502,task,2021.1.4,Win32,75.26719855,628b806c463b948bc644b84f,62a323b40ba0e39638525511,,,,,,,,,,,,,,,,,,,,,,,,,,,,,,,,,,,,,,,,,,,,,,,,,,,,,,,,,,,,,,,,,,,,,,,,,,,,,,,,,,,,,,,,,,,,,,,,,,,,,,,
,,"[""comma""]",0,[0.22799999999998022],59,0,59,0,1,604d6dd610326bec3ab2d15e,20,Mężczyzna,2022-06-10_12h58.10.502,task,2021.1.4,Win32,75.26719855,628b806c463b948bc644b84f,62a323b40ba0e39638525511,,,,,,,,,,,,,,,,,,,,,,,,,,,,,,,,,,,,,,,,,,,,,,,,,,,,,,,,,,,,,,,,,,,,,,,,,,,,,,,,,,,,,,,,,,,,,,,,,,,,,,,
,,"[""period""]",0,[0.1895999999046296],60,0,60,0,1,604d6dd610326bec3ab2d15e,20,Mężczyzna,2022-06-10_12h58.10.502,task,2021.1.4,Win32,75.26719855,628b806c463b948bc644b84f,62a323b40ba0e39638525511,,,,,,,,,,,,,,,,,,,,,,,,,,,,,,,,,,,,,,,,,,,,,,,,,,,,,,,,,,,,,,,,,,,,,,,,,,,,,,,,,,,,,,,,,,,,,,,,,,,,,,,
,,"[""comma""]",0,[0.2542000000476605],61,0,61,0,1,604d6dd610326bec3ab2d15e,20,Mężczyzna,2022-06-10_12h58.10.502,task,2021.1.4,Win32,75.26719855,628b806c463b948bc644b84f,62a323b40ba0e39638525511,,,,,,,,,,,,,,,,,,,,,,,,,,,,,,,,,,,,,,,,,,,,,,,,,,,,,,,,,,,,,,,,,,,,,,,,,,,,,,,,,,,,,,,,,,,,,,,,,,,,,,,
,,"[""comma""]",0,[0.2048999998569343],62,0,62,0,1,604d6dd610326bec3ab2d15e,20,Mężczyzna,2022-06-10_12h58.10.502,task,2021.1.4,Win32,75.26719855,628b806c463b948bc644b84f,62a323b40ba0e39638525511,,,,,,,,,,,,,,,,,,,,,,,,,,,,,,,,,,,,,,,,,,,,,,,,,,,,,,,,,,,,,,,,,,,,,,,,,,,,,,,,,,,,,,,,,,,,,,,,,,,,,,,
,,"[""comma""]",0,[0.21920000004766393],63,0,63,0,1,604d6dd610326bec3ab2d15e,20,Mężczyzna,2022-06-10_12h58.10.502,task,2021.1.4,Win32,75.26719855,628b806c463b948bc644b84f,62a323b40ba0e39638525511,,,,,,,,,,,,,,,,,,,,,,,,,,,,,,,,,,,,,,,,,,,,,,,,,,,,,,,,,,,,,,,,,,,,,,,,,,,,,,,,,,,,,,,,,,,,,,,,,,,,,,,
,,"[""comma""]",0,[0.1603999998569634],64,0,64,0,1,604d6dd610326bec3ab2d15e,20,Mężczyzna,2022-06-10_12h58.10.502,task,2021.1.4,Win32,75.26719855,628b806c463b948bc644b84f,62a323b40ba0e39638525511,,,,,,,,,,,,,,,,,,,,,,,,,,,,,,,,,,,,,,,,,,,,,,,,,,,,,,,,,,,,,,,,,,,,,,,,,,,,,,,,,,,,,,,,,,,,,,,,,,,,,,,
,,"[""comma""]",0,[0.24049999999999727],65,0,65,0,1,604d6dd610326bec3ab2d15e,20,Mężczyzna,2022-06-10_12h58.10.502,task,2021.1.4,Win32,75.26719855,628b806c463b948bc644b84f,62a323b40ba0e39638525511,,,,,,,,,,,,,,,,,,,,,,,,,,,,,,,,,,,,,,,,,,,,,,,,,,,,,,,,,,,,,,,,,,,,,,,,,,,,,,,,,,,,,,,,,,,,,,,,,,,,,,,
,,"[""period""]",0,[0.22190000009535993],66,0,66,0,1,604d6dd610326bec3ab2d15e,20,Mężczyzna,2022-06-10_12h58.10.502,task,2021.1.4,Win32,75.26719855,628b806c463b948bc644b84f,62a323b40ba0e39638525511,,,,,,,,,,,,,,,,,,,,,,,,,,,,,,,,,,,,,,,,,,,,,,,,,,,,,,,,,,,,,,,,,,,,,,,,,,,,,,,,,,,,,,,,,,,,,,,,,,,,,,,
,,"[""period""]",0,[0.19509999990461324],67,0,67,0,1,604d6dd610326bec3ab2d15e,20,Mężczyzna,2022-06-10_12h58.10.502,task,2021.1.4,Win32,75.26719855,628b806c463b948bc644b84f,62a323b40ba0e39638525511,,,,,,,,,,,,,,,,,,,,,,,,,,,,,,,,,,,,,,,,,,,,,,,,,,,,,,,,,,,,,,,,,,,,,,,,,,,,,,,,,,,,,,,,,,,,,,,,,,,,,,,
,,"[""period""]",0,[0.2092999999523215],68,0,68,0,1,604d6dd610326bec3ab2d15e,20,Mężczyzna,2022-06-10_12h58.10.502,task,2021.1.4,Win32,75.26719855,628b806c463b948bc644b84f,62a323b40ba0e39638525511,,,,,,,,,,,,,,,,,,,,,,,,,,,,,,,,,,,,,,,,,,,,,,,,,,,,,,,,,,,,,,,,,,,,,,,,,,,,,,,,,,,,,,,,,,,,,,,,,,,,,,,
,,"[""period""]",0,[0.17650000000000432],69,0,69,0,1,604d6dd610326bec3ab2d15e,20,Mężczyzna,2022-06-10_12h58.10.502,task,2021.1.4,Win32,75.26719855,628b806c463b948bc644b84f,62a323b40ba0e39638525511,,,,,,,,,,,,,,,,,,,,,,,,,,,,,,,,,,,,,,,,,,,,,,,,,,,,,,,,,,,,,,,,,,,,,,,,,,,,,,,,,,,,,,,,,,,,,,,,,,,,,,,
,,"[""comma""]",0,[0.06079999995230878],70,0,70,0,1,604d6dd610326bec3ab2d15e,20,Mężczyzna,2022-06-10_12h58.10.502,task,2021.1.4,Win32,75.26719855,628b806c463b948bc644b84f,62a323b40ba0e39638525511,,,,,,,,,,,,,,,,,,,,,,,,,,,,,,,,,,,,,,,,,,,,,,,,,,,,,,,,,,,,,,,,,,,,,,,,,,,,,,,,,,,,,,,,,,,,,,,,,,,,,,,
,,"[""period"",""comma""]",0,"[0.04430000019073077,1.8402000000476733]",71,0,71,0,1,604d6dd610326bec3ab2d15e,20,Mężczyzna,2022-06-10_12h58.10.502,task,2021.1.4,Win32,75.26719855,628b806c463b948bc644b84f,62a323b40ba0e39638525511,,,,,,,,,,,,,,,,,,,,,,,,,,,,,,,,,,,,,,,,,,,,,,,,,,,,,,,,,,,,,,,,,,,,,,,,,,,,,,,,,,,,,,,,,,,,,,,,,,,,,,,
,,,0,,72,0,72,0,1,604d6dd610326bec3ab2d15e,20,Mężczyzna,2022-06-10_12h58.10.502,task,2021.1.4,Win32,75.26719855,628b806c463b948bc644b84f,62a323b40ba0e39638525511,,,,,,,,,,,,,,,,,,,,,,,,,,,,,,,,,,,,,,,,,,,,,,,,,,,,,,,,,,,,,,,,,,,,,,,,,,,,,,,,,,,,,,,,,,,,,,,,,,,,,,,
,,"[""period""]",0,[0.29949999999999477],73,0,73,0,1,604d6dd610326bec3ab2d15e,20,Mężczyzna,2022-06-10_12h58.10.502,task,2021.1.4,Win32,75.26719855,628b806c463b948bc644b84f,62a323b40ba0e39638525511,,,,,,,,,,,,,,,,,,,,,,,,,,,,,,,,,,,,,,,,,,,,,,,,,,,,,,,,,,,,,,,,,,,,,,,,,,,,,,,,,,,,,,,,,,,,,,,,,,,,,,,
,,"[""period""]",0,[0.0567999999523181],74,0,74,0,1,604d6dd610326bec3ab2d15e,20,Mężczyzna,2022-06-10_12h58.10.502,task,2021.1.4,Win32,75.26719855,628b806c463b948bc644b84f,62a323b40ba0e39638525511,,,,,,,,,,,,,,,,,,,,,,,,,,,,,,,,,,,,,,,,,,,,,,,,,,,,,,,,,,,,,,,,,,,,,,,,,,,,,,,,,,,,,,,,,,,,,,,,,,,,,,,
,,"[""period""]",0,[0.22799999999998022],75,0,75,0,1,604d6dd610326bec3ab2d15e,20,Mężczyzna,2022-06-10_12h58.10.502,task,2021.1.4,Win32,75.26719855,628b806c463b948bc644b84f,62a323b40ba0e39638525511,,,,,,,,,,,,,,,,,,,,,,,,,,,,,,,,,,,,,,,,,,,,,,,,,,,,,,,,,,,,,,,,,,,,,,,,,,,,,,,,,,,,,,,,,,,,,,,,,,,,,,,
,,"[""period""]",0,[0.21639999985694658],76,0,76,0,1,604d6dd610326bec3ab2d15e,20,Mężczyzna,2022-06-10_12h58.10.502,task,2021.1.4,Win32,75.26719855,628b806c463b948bc644b84f,62a323b40ba0e39638525511,,,,,,,,,,,,,,,,,,,,,,,,,,,,,,,,,,,,,,,,,,,,,,,,,,,,,,,,,,,,,,,,,,,,,,,,,,,,,,,,,,,,,,,,,,,,,,,,,,,,,,,
,,"[""period""]",0,[0.5405999999046287],77,0,77,0,1,604d6dd610326bec3ab2d15e,20,Mężczyzna,2022-06-10_12h58.10.502,task,2021.1.4,Win32,75.26719855,628b806c463b948bc644b84f,62a323b40ba0e39638525511,,,,,,,,,,,,,,,,,,,,,,,,,,,,,,,,,,,,,,,,,,,,,,,,,,,,,,,,,,,,,,,,,,,,,,,,,,,,,,,,,,,,,,,,,,,,,,,,,,,,,,,
,,"[""comma""]",0,[0.3739999999999952],78,0,78,0,1,604d6dd610326bec3ab2d15e,20,Mężczyzna,2022-06-10_12h58.10.502,task,2021.1.4,Win32,75.26719855,628b806c463b948bc644b84f,62a323b40ba0e39638525511,,,,,,,,,,,,,,,,,,,,,,,,,,,,,,,,,,,,,,,,,,,,,,,,,,,,,,,,,,,,,,,,,,,,,,,,,,,,,,,,,,,,,,,,,,,,,,,,,,,,,,,
,,"[""period""]",0,[0.2669999999999959],79,0,79,0,1,604d6dd610326bec3ab2d15e,20,Mężczyzna,2022-06-10_12h58.10.502,task,2021.1.4,Win32,75.26719855,628b806c463b948bc644b84f,62a323b40ba0e39638525511,,,,,,,,,,,,,,,,,,,,,,,,,,,,,,,,,,,,,,,,,,,,,,,,,,,,,,,,,,,,,,,,,,,,,,,,,,,,,,,,,,,,,,,,,,,,,,,,,,,,,,,
,,"[""comma""]",0,[0.23759999990463143],80,0,80,0,1,604d6dd610326bec3ab2d15e,20,Mężczyzna,2022-06-10_12h58.10.502,task,2021.1.4,Win32,75.26719855,628b806c463b948bc644b84f,62a323b40ba0e39638525511,,,,,,,,,,,,,,,,,,,,,,,,,,,,,,,,,,,,,,,,,,,,,,,,,,,,,,,,,,,,,,,,,,,,,,,,,,,,,,,,,,,,,,,,,,,,,,,,,,,,,,,
,,"[""comma""]",0,[0.2315999999046312],81,0,81,0,1,604d6dd610326bec3ab2d15e,20,Mężczyzna,2022-06-10_12h58.10.502,task,2021.1.4,Win32,75.26719855,628b806c463b948bc644b84f,62a323b40ba0e39638525511,,,,,,,,,,,,,,,,,,,,,,,,,,,,,,,,,,,,,,,,,,,,,,,,,,,,,,,,,,,,,,,,,,,,,,,,,,,,,,,,,,,,,,,,,,,,,,,,,,,,,,,
,,"[""comma""]",0,[0.1259000000953847],82,0,82,0,1,604d6dd610326bec3ab2d15e,20,Mężczyzna,2022-06-10_12h58.10.502,task,2021.1.4,Win32,75.26719855,628b806c463b948bc644b84f,62a323b40ba0e39638525511,,,,,,,,,,,,,,,,,,,,,,,,,,,,,,,,,,,,,,,,,,,,,,,,,,,,,,,,,,,,,,,,,,,,,,,,,,,,,,,,,,,,,,,,,,,,,,,,,,,,,,,
,,"[""period"",""period""]",0,"[0.12800000000001432,1.9074000000953788]",83,0,83,0,1,604d6dd610326bec3ab2d15e,20,Mężczyzna,2022-06-10_12h58.10.502,task,2021.1.4,Win32,75.26719855,628b806c463b948bc644b84f,62a323b40ba0e39638525511,,,,,,,,,,,,,,,,,,,,,,,,,,,,,,,,,,,,,,,,,,,,,,,,,,,,,,,,,,,,,,,,,,,,,,,,,,,,,,,,,,,,,,,,,,,,,,,,,,,,,,,
,,,0,,84,0,84,0,1,604d6dd610326bec3ab2d15e,20,Mężczyzna,2022-06-10_12h58.10.502,task,2021.1.4,Win32,75.26719855,628b806c463b948bc644b84f,62a323b40ba0e39638525511,,,,,,,,,,,,,,,,,,,,,,,,,,,,,,,,,,,,,,,,,,,,,,,,,,,,,,,,,,,,,,,,,,,,,,,,,,,,,,,,,,,,,,,,,,,,,,,,,,,,,,,
,,"[""period""]",0,[0.23039999985695658],85,0,85,0,1,604d6dd610326bec3ab2d15e,20,Mężczyzna,2022-06-10_12h58.10.502,task,2021.1.4,Win32,75.26719855,628b806c463b948bc644b84f,62a323b40ba0e39638525511,,,,,,,,,,,,,,,,,,,,,,,,,,,,,,,,,,,,,,,,,,,,,,,,,,,,,,,,,,,,,,,,,,,,,,,,,,,,,,,,,,,,,,,,,,,,,,,,,,,,,,,
,,"[""period""]",0,[0.2718999998569416],86,0,86,0,1,604d6dd610326bec3ab2d15e,20,Mężczyzna,2022-06-10_12h58.10.502,task,2021.1.4,Win32,75.26719855,628b806c463b948bc644b84f,62a323b40ba0e39638525511,,,,,,,,,,,,,,,,,,,,,,,,,,,,,,,,,,,,,,,,,,,,,,,,,,,,,,,,,,,,,,,,,,,,,,,,,,,,,,,,,,,,,,,,,,,,,,,,,,,,,,,
,,"[""period""]",0,[0.23389999985693066],87,0,87,0,1,604d6dd610326bec3ab2d15e,20,Mężczyzna,2022-06-10_12h58.10.502,task,2021.1.4,Win32,75.26719855,628b806c463b948bc644b84f,62a323b40ba0e39638525511,,,,,,,,,,,,,,,,,,,,,,,,,,,,,,,,,,,,,,,,,,,,,,,,,,,,,,,,,,,,,,,,,,,,,,,,,,,,,,,,,,,,,,,,,,,,,,,,,,,,,,,
,,"[""period""]",0,[0.2553000001907435],88,0,88,0,1,604d6dd610326bec3ab2d15e,20,Mężczyzna,2022-06-10_12h58.10.502,task,2021.1.4,Win32,75.26719855,628b806c463b948bc644b84f,62a323b40ba0e39638525511,,,,,,,,,,,,,,,,,,,,,,,,,,,,,,,,,,,,,,,,,,,,,,,,,,,,,,,,,,,,,,,,,,,,,,,,,,,,,,,,,,,,,,,,,,,,,,,,,,,,,,,
,,"[""comma""]",0,[0.23240000009536743],89,0,89,0,1,604d6dd610326bec3ab2d15e,20,Mężczyzna,2022-06-10_12h58.10.502,task,2021.1.4,Win32,75.26719855,628b806c463b948bc644b84f,62a323b40ba0e39638525511,,,,,,,,,,,,,,,,,,,,,,,,,,,,,,,,,,,,,,,,,,,,,,,,,,,,,,,,,,,,,,,,,,,,,,,,,,,,,,,,,,,,,,,,,,,,,,,,,,,,,,,
,,"[""comma""]",0,[0.24179999995229196],90,0,90,0,1,604d6dd610326bec3ab2d15e,20,Mężczyzna,2022-06-10_12h58.10.502,task,2021.1.4,Win32,75.26719855,628b806c463b948bc644b84f,62a323b40ba0e39638525511,,,,,,,,,,,,,,,,,,,,,,,,,,,,,,,,,,,,,,,,,,,,,,,,,,,,,,,,,,,,,,,,,,,,,,,,,,,,,,,,,,,,,,,,,,,,,,,,,,,,,,,
,,"[""comma""]",0,[0.2403999998569475],91,0,91,0,1,604d6dd610326bec3ab2d15e,20,Mężczyzna,2022-06-10_12h58.10.502,task,2021.1.4,Win32,75.26719855,628b806c463b948bc644b84f,62a323b40ba0e39638525511,,,,,,,,,,,,,,,,,,,,,,,,,,,,,,,,,,,,,,,,,,,,,,,,,,,,,,,,,,,,,,,,,,,,,,,,,,,,,,,,,,,,,,,,,,,,,,,,,,,,,,,
,,"[""comma""]",0,[0.3202999999522831],92,0,92,0,1,604d6dd610326bec3ab2d15e,20,Mężczyzna,2022-06-10_12h58.10.502,task,2021.1.4,Win32,75.26719855,628b806c463b948bc644b84f,62a323b40ba0e39638525511,,,,,,,,,,,,,,,,,,,,,,,,,,,,,,,,,,,,,,,,,,,,,,,,,,,,,,,,,,,,,,,,,,,,,,,,,,,,,,,,,,,,,,,,,,,,,,,,,,,,,,,
,,"[""comma""]",0,[0.2302999999523081],93,0,93,0,1,604d6dd610326bec3ab2d15e,20,Mężczyzna,2022-06-10_12h58.10.502,task,2021.1.4,Win32,75.26719855,628b806c463b948bc644b84f,62a323b40ba0e39638525511,,,,,,,,,,,,,,,,,,,,,,,,,,,,,,,,,,,,,,,,,,,,,,,,,,,,,,,,,,,,,,,,,,,,,,,,,,,,,,,,,,,,,,,,,,,,,,,,,,,,,,,
,,"[""period""]",0,[0.20949999999999136],94,0,94,0,1,604d6dd610326bec3ab2d15e,20,Mężczyzna,2022-06-10_12h58.10.502,task,2021.1.4,Win32,75.26719855,628b806c463b948bc644b84f,62a323b40ba0e39638525511,,,,,,,,,,,,,,,,,,,,,,,,,,,,,,,,,,,,,,,,,,,,,,,,,,,,,,,,,,,,,,,,,,,,,,,,,,,,,,,,,,,,,,,,,,,,,,,,,,,,,,,
,,"[""period""]",0,[0.3471000001430298],95,0,95,0,1,604d6dd610326bec3ab2d15e,20,Mężczyzna,2022-06-10_12h58.10.502,task,2021.1.4,Win32,75.26719855,628b806c463b948bc644b84f,62a323b40ba0e39638525511,,,,,,,,,,,,,,,,,,,,,,,,,,,,,,,,,,,,,,,,,,,,,,,,,,,,,,,,,,,,,,,,,,,,,,,,,,,,,,,,,,,,,,,,,,,,,,,,,,,,,,,
,,"[""period""]",0,[0.21609999990459983],96,0,96,0,1,604d6dd610326bec3ab2d15e,20,Mężczyzna,2022-06-10_12h58.10.502,task,2021.1.4,Win32,75.26719855,628b806c463b948bc644b84f,62a323b40ba0e39638525511,,,,,,,,,,,,,,,,,,,,,,,,,,,,,,,,,,,,,,,,,,,,,,,,,,,,,,,,,,,,,,,,,,,,,,,,,,,,,,,,,,,,,,,,,,,,,,,,,,,,,,,
,,"[""comma""]",0,[0.21519999980921511],97,0,97,0,1,604d6dd610326bec3ab2d15e,20,Mężczyzna,2022-06-10_12h58.10.502,task,2021.1.4,Win32,75.26719855,628b806c463b948bc644b84f,62a323b40ba0e39638525511,,,,,,,,,,,,,,,,,,,,,,,,,,,,,,,,,,,,,,,,,,,,,,,,,,,,,,,,,,,,,,,,,,,,,,,,,,,,,,,,,,,,,,,,,,,,,,,,,,,,,,,
,,"[""period""]",0,[0.21389999985694885],98,0,98,0,1,604d6dd610326bec3ab2d15e,20,Mężczyzna,2022-06-10_12h58.10.502,task,2021.1.4,Win32,75.26719855,628b806c463b948bc644b84f,62a323b40ba0e39638525511,,,,,,,,,,,,,,,,,,,,,,,,,,,,,,,,,,,,,,,,,,,,,,,,,,,,,,,,,,,,,,,,,,,,,,,,,,,,,,,,,,,,,,,,,,,,,,,,,,,,,,,
,,"[""comma""]",0,[0.21979999995232902],99,0,99,0,1,604d6dd610326bec3ab2d15e,20,Mężczyzna,2022-06-10_12h58.10.502,task,2021.1.4,Win32,75.26719855,628b806c463b948bc644b84f,62a323b40ba0e39638525511,,,,,,,,,,,,,,,,,,,,,,,,,,,,,,,,,,,,,,,,,,,,,,,,,,,,,,,,,,,,,,,,,,,,,,,,,,,,,,,,,,,,,,,,,,,,,,,,,,,,,,,
,,"[""comma""]",0,[0.21410000014304842],100,0,100,0,1,604d6dd610326bec3ab2d15e,20,Mężczyzna,2022-06-10_12h58.10.502,task,2021.1.4,Win32,75.26719855,628b806c463b948bc644b84f,62a323b40ba0e39638525511,,,,,,,,,,,,,,,,,,,,,,,,,,,,,,,,,,,,,,,,,,,,,,,,,,,,,,,,,,,,,,,,,,,,,,,,,,,,,,,,,,,,,,,,,,,,,,,,,,,,,,,
,,"[""period""]",0,[0.1884000000953847],101,0,101,0,1,604d6dd610326bec3ab2d15e,20,Mężczyzna,2022-06-10_12h58.10.502,task,2021.1.4,Win32,75.26719855,628b806c463b948bc644b84f,62a323b40ba0e39638525511,,,,,,,,,,,,,,,,,,,,,,,,,,,,,,,,,,,,,,,,,,,,,,,,,,,,,,,,,,,,,,,,,,,,,,,,,,,,,,,,,,,,,,,,,,,,,,,,,,,,,,,
,,"[""period""]",0,[0.15669999980929106],102,0,102,0,1,604d6dd610326bec3ab2d15e,20,Mężczyzna,2022-06-10_12h58.10.502,task,2021.1.4,Win32,75.26719855,628b806c463b948bc644b84f,62a323b40ba0e39638525511,,,,,,,,,,,,,,,,,,,,,,,,,,,,,,,,,,,,,,,,,,,,,,,,,,,,,,,,,,,,,,,,,,,,,,,,,,,,,,,,,,,,,,,,,,,,,,,,,,,,,,,
,,"[""period""]",0,[0.20959999990463984],103,0,103,0,1,604d6dd610326bec3ab2d15e,20,Mężczyzna,2022-06-10_12h58.10.502,task,2021.1.4,Win32,75.26719855,628b806c463b948bc644b84f,62a323b40ba0e39638525511,,,,,,,,,,,,,,,,,,,,,,,,,,,,,,,,,,,,,,,,,,,,,,,,,,,,,,,,,,,,,,,,,,,,,,,,,,,,,,,,,,,,,,,,,,,,,,,,,,,,,,,
,,"[""period"",""comma""]",0,"[0.34720000004767826,1.9605000000000246]",104,0,104,0,1,604d6dd610326bec3ab2d15e,20,Mężczyzna,2022-06-10_12h58.10.502,task,2021.1.4,Win32,75.26719855,628b806c463b948bc644b84f,62a323b40ba0e39638525511,,,,,,,,,,,,,,,,,,,,,,,,,,,,,,,,,,,,,,,,,,,,,,,,,,,,,,,,,,,,,,,,,,,,,,,,,,,,,,,,,,,,,,,,,,,,,,,,,,,,,,,
,,,0,,105,0,105,0,1,604d6dd610326bec3ab2d15e,20,Mężczyzna,2022-06-10_12h58.10.502,task,2021.1.4,Win32,75.26719855,628b806c463b948bc644b84f,62a323b40ba0e39638525511,,,,,,,,,,,,,,,,,,,,,,,,,,,,,,,,,,,,,,,,,,,,,,,,,,,,,,,,,,,,,,,,,,,,,,,,,,,,,,,,,,,,,,,,,,,,,,,,,,,,,,,
,,"[""comma""]",0,[0.22779999995231037],106,0,106,0,1,604d6dd610326bec3ab2d15e,20,Mężczyzna,2022-06-10_12h58.10.502,task,2021.1.4,Win32,75.26719855,628b806c463b948bc644b84f,62a323b40ba0e39638525511,,,,,,,,,,,,,,,,,,,,,,,,,,,,,,,,,,,,,,,,,,,,,,,,,,,,,,,,,,,,,,,,,,,,,,,,,,,,,,,,,,,,,,,,,,,,,,,,,,,,,,,
,,"[""comma""]",0,[0.22840000009534833],107,0,107,0,1,604d6dd610326bec3ab2d15e,20,Mężczyzna,2022-06-10_12h58.10.502,task,2021.1.4,Win32,75.26719855,628b806c463b948bc644b84f,62a323b40ba0e39638525511,,,,,,,,,,,,,,,,,,,,,,,,,,,,,,,,,,,,,,,,,,,,,,,,,,,,,,,,,,,,,,,,,,,,,,,,,,,,,,,,,,,,,,,,,,,,,,,,,,,,,,,
,,"[""period""]",0,[0.2757999999523122],108,0,108,0,1,604d6dd610326bec3ab2d15e,20,Mężczyzna,2022-06-10_12h58.10.502,task,2021.1.4,Win32,75.26719855,628b806c463b948bc644b84f,62a323b40ba0e39638525511,,,,,,,,,,,,,,,,,,,,,,,,,,,,,,,,,,,,,,,,,,,,,,,,,,,,,,,,,,,,,,,,,,,,,,,,,,,,,,,,,,,,,,,,,,,,,,,,,,,,,,,
,,"[""period"",""comma""]",0,"[0.00720000004770327,1.883400000095378]",109,0,109,0,1,604d6dd610326bec3ab2d15e,20,Mężczyzna,2022-06-10_12h58.10.502,task,2021.1.4,Win32,75.26719855,628b806c463b948bc644b84f,62a323b40ba0e39638525511,,,,,,,,,,,,,,,,,,,,,,,,,,,,,,,,,,,,,,,,,,,,,,,,,,,,,,,,,,,,,,,,,,,,,,,,,,,,,,,,,,,,,,,,,,,,,,,,,,,,,,,
,,,0,,110,0,110,0,1,604d6dd610326bec3ab2d15e,20,Mężczyzna,2022-06-10_12h58.10.502,task,2021.1.4,Win32,75.26719855,628b806c463b948bc644b84f,62a323b40ba0e39638525511,,,,,,,,,,,,,,,,,,,,,,,,,,,,,,,,,,,,,,,,,,,,,,,,,,,,,,,,,,,,,,,,,,,,,,,,,,,,,,,,,,,,,,,,,,,,,,,,,,,,,,,
,,"[""comma""]",0,[0.22709999990468077],111,0,111,0,1,604d6dd610326bec3ab2d15e,20,Mężczyzna,2022-06-10_12h58.10.502,task,2021.1.4,Win32,75.26719855,628b806c463b948bc644b84f,62a323b40ba0e39638525511,,,,,,,,,,,,,,,,,,,,,,,,,,,,,,,,,,,,,,,,,,,,,,,,,,,,,,,,,,,,,,,,,,,,,,,,,,,,,,,,,,,,,,,,,,,,,,,,,,,,,,,
,,"[""comma""]",0,[0.2617999999523022],112,0,112,0,1,604d6dd610326bec3ab2d15e,20,Mężczyzna,2022-06-10_12h58.10.502,task,2021.1.4,Win32,75.26719855,628b806c463b948bc644b84f,62a323b40ba0e39638525511,,,,,,,,,,,,,,,,,,,,,,,,,,,,,,,,,,,,,,,,,,,,,,,,,,,,,,,,,,,,,,,,,,,,,,,,,,,,,,,,,,,,,,,,,,,,,,,,,,,,,,,
,,"[""period""]",0,[0.22109999990459528],113,0,113,0,1,604d6dd610326bec3ab2d15e,20,Mężczyzna,2022-06-10_12h58.10.502,task,2021.1.4,Win32,75.26719855,628b806c463b948bc644b84f,62a323b40ba0e39638525511,,,,,,,,,,,,,,,,,,,,,,,,,,,,,,,,,,,,,,,,,,,,,,,,,,,,,,,,,,,,,,,,,,,,,,,,,,,,,,,,,,,,,,,,,,,,,,,,,,,,,,,
,,"[""comma""]",0,[0.22129999995229355],114,0,114,0,1,604d6dd610326bec3ab2d15e,20,Mężczyzna,2022-06-10_12h58.10.502,task,2021.1.4,Win32,75.26719855,628b806c463b948bc644b84f,62a323b40ba0e39638525511,,,,,,,,,,,,,,,,,,,,,,,,,,,,,,,,,,,,,,,,,,,,,,,,,,,,,,,,,,,,,,,,,,,,,,,,,,,,,,,,,,,,,,,,,,,,,,,,,,,,,,,
,,"[""period""]",0,[0.26779999995233084],115,0,115,0,1,604d6dd610326bec3ab2d15e,20,Mężczyzna,2022-06-10_12h58.10.502,task,2021.1.4,Win32,75.26719855,628b806c463b948bc644b84f,62a323b40ba0e39638525511,,,,,,,,,,,,,,,,,,,,,,,,,,,,,,,,,,,,,,,,,,,,,,,,,,,,,,,,,,,,,,,,,,,,,,,,,,,,,,,,,,,,,,,,,,,,,,,,,,,,,,,
,,"[""comma"",""period""]",0,"[0.04570000004770236,1.9108999998569516]",116,0,116,0,1,604d6dd610326bec3ab2d15e,20,Mężczyzna,2022-06-10_12h58.10.502,task,2021.1.4,Win32,75.26719855,628b806c463b948bc644b84f,62a323b40ba0e39638525511,,,,,,,,,,,,,,,,,,,,,,,,,,,,,,,,,,,,,,,,,,,,,,,,,,,,,,,,,,,,,,,,,,,,,,,,,,,,,,,,,,,,,,,,,,,,,,,,,,,,,,,
,,"[""comma""]",0,[1.883100000143088],117,0,117,0,1,604d6dd610326bec3ab2d15e,20,Mężczyzna,2022-06-10_12h58.10.502,task,2021.1.4,Win32,75.26719855,628b806c463b948bc644b84f,62a323b40ba0e39638525511,,,,,,,,,,,,,,,,,,,,,,,,,,,,,,,,,,,,,,,,,,,,,,,,,,,,,,,,,,,,,,,,,,,,,,,,,,,,,,,,,,,,,,,,,,,,,,,,,,,,,,,
,,,0,,118,0,118,0,1,604d6dd610326bec3ab2d15e,20,Mężczyzna,2022-06-10_12h58.10.502,task,2021.1.4,Win32,75.26719855,628b806c463b948bc644b84f,62a323b40ba0e39638525511,,,,,,,,,,,,,,,,,,,,,,,,,,,,,,,,,,,,,,,,,,,,,,,,,,,,,,,,,,,,,,,,,,,,,,,,,,,,,,,,,,,,,,,,,,,,,,,,,,,,,,,
,,"[""period""]",0,[0.17549999999999955],119,0,119,0,1,604d6dd610326bec3ab2d15e,20,Mężczyzna,2022-06-10_12h58.10.502,task,2021.1.4,Win32,75.26719855,628b806c463b948bc644b84f,62a323b40ba0e39638525511,,,,,,,,,,,,,,,,,,,,,,,,,,,,,,,,,,,,,,,,,,,,,,,,,,,,,,,,,,,,,,,,,,,,,,,,,,,,,,,,,,,,,,,,,,,,,,,,,,,,,,,
,,,,,,,,,,604d6dd610326bec3ab2d15e,20,Mężczyzna,2022-06-10_12h58.10.502,task,2021.1.4,Win32,75.26719855,628b806c463b948bc644b84f,62a323b40ba0e39638525511,space,24.0292,space,9.4804,0,0,0,0,1,X V Q F H G B L J M P D K C T S W R N Z,,,,,,,,,,,,,,,,,,,,,,,,,,,,,,,,,,,,,,,,,,,,,,,,,,,,,,,,,,,,,,,,,,,,,,,,,,,,,,,,,,,,,,,,,,,,,
,,,,,,,,,,604d6dd610326bec3ab2d15e,20,Mężczyzna,2022-06-10_12h58.10.502,task,2021.1.4,Win32,75.26719855,628b806c463b948bc644b84f,62a323b40ba0e39638525511,,,,,1,0,1,0,1,X V Q F H G B L J M P D K C T S W R N Z,,,,,,,,,,,,,,,,,,,,,,,,,,,,,,,,,,,,,,,,,,,,,,,,,,,,,,,,,,,,,,,,,,,,,,,,,,,,,,,,,,,,,,,,,,,,,
,,,,,,,,,,604d6dd610326bec3ab2d15e,20,Mężczyzna,2022-06-10_12h58.10.502,task,2021.1.4,Win32,75.26719855,628b806c463b948bc644b84f,62a323b40ba0e39638525511,,,,,,,,,,,zr,"[""z"",""r""]","[3.7251000001430725,4.031299999952353,5.158500000000004]",1,ZR,0,0,0,0,1,,,,,,,,,,,,,,,,,,,,,,,,,,,,,,,,,,,,,,,,,,,,,,,,,,,,,,,,,,,,,,,,,,,,,,,,,,,,,,,,,,,
,,,,,,,,,,604d6dd610326bec3ab2d15e,20,Mężczyzna,2022-06-10_12h58.10.502,task,2021.1.4,Win32,75.26719855,628b806c463b948bc644b84f,62a323b40ba0e39638525511,,,,,0,0,0,0,1,X V Q F H G B L J M P D K C T S W R N Z,,,,,,,,,,,,,,,,,,,,,,,,,,,,,,,,,,,,,,,,,,,,,,,,,,,,,,,,,,,,,,,,,,,,,,,,,,,,,,,,,,,,,,,,,,,,,
,,,,,,,,,,604d6dd610326bec3ab2d15e,20,Mężczyzna,2022-06-10_12h58.10.502,task,2021.1.4,Win32,75.26719855,628b806c463b948bc644b84f,62a323b40ba0e39638525511,,,,,1,0,1,0,1,X V Q F H G B L J M P D K C T S W R N Z,,,,,,,,,,,,,,,,,,,,,,,,,,,,,,,,,,,,,,,,,,,,,,,,,,,,,,,,,,,,,,,,,,,,,,,,,,,,,,,,,,,,,,,,,,,,,
,,,,,,,,,,604d6dd610326bec3ab2d15e,20,Mężczyzna,2022-06-10_12h58.10.502,task,2021.1.4,Win32,75.26719855,628b806c463b948bc644b84f,62a323b40ba0e39638525511,,,,,,,,,,,zr,"[""z"",""r""]","[4.4579000000953215,4.926799999952323,5.539900000095372]",1,ZR,1,0,1,0,1,,,,,,,,,,,,,,,,,,,,,,,,,,,,,,,,,,,,,,,,,,,,,,,,,,,,,,,,,,,,,,,,,,,,,,,,,,,,,,,,,,,
,,,,,,,,,,604d6dd610326bec3ab2d15e,20,Mężczyzna,2022-06-10_12h58.10.502,task,2021.1.4,Win32,75.26719855,628b806c463b948bc644b84f,62a323b40ba0e39638525511,,,,,0,0,0,0,1,X V Q F H G B L J M P D K C T S W R N Z,,,,,,,,,,,,,,,,,,,,,,,,,,,,,,,,,,,,,,,,,,,,,,,,,,,,,,,,,,,,,,,,,,,,,,,,,,,,,,,,,,,,,,,,,,,,,
,,,,,,,,,,604d6dd610326bec3ab2d15e,20,Mężczyzna,2022-06-10_12h58.10.502,task,2021.1.4,Win32,75.26719855,628b806c463b948bc644b84f,62a323b40ba0e39638525511,,,,,1,0,1,0,1,X V Q F H G B L J M P D K C T S W R N Z,,,,,,,,,,,,,,,,,,,,,,,,,,,,,,,,,,,,,,,,,,,,,,,,,,,,,,,,,,,,,,,,,,,,,,,,,,,,,,,,,,,,,,,,,,,,,
,,,,,,,,,,604d6dd610326bec3ab2d15e,20,Mężczyzna,2022-06-10_12h58.10.502,task,2021.1.4,Win32,75.26719855,628b806c463b948bc644b84f,62a323b40ba0e39638525511,,,,,2,0,2,0,1,X V Q F H G B L J M P D K C T S W R N Z,,,,,,,,,,,,,,,,,,,,,,,,,,,,,,,,,,,,,,,,,,,,,,,,,,,,,,,,,,,,,,,,,,,,,,,,,,,,,,,,,,,,,,,,,,,,,
,,,,,,,,,,604d6dd610326bec3ab2d15e,20,Mężczyzna,2022-06-10_12h58.10.502,task,2021.1.4,Win32,75.26719855,628b806c463b948bc644b84f,62a323b40ba0e39638525511,,,,,,,,,,,rqj,"[""r"",""q"",""j""]","[1.466900000095336,1.7335999999046408,2.6324000000953447,3.2324000000953674]",1,RQJ,2,0,2,0,1,,,,,,,,,,,,,,,,,,,,,,,,,,,,,,,,,,,,,,,,,,,,,,,,,,,,,,,,,,,,,,,,,,,,,,,,,,,,,,,,,,,
,,,,,,,,,,604d6dd610326bec3ab2d15e,20,Mężczyzna,2022-06-10_12h58.10.502,task,2021.1.4,Win32,75.26719855,628b806c463b948bc644b84f,62a323b40ba0e39638525511,,,,,0,0,0,0,1,X V Q F H G B L J M P D K C T S W R N Z,,,,,,,,,,,,,,,,,,,,,,,,,,,,,,,,,,,,,,,,,,,,,,,,,,,,,,,,,,,,,,,,,,,,,,,,,,,,,,,,,,,,,,,,,,,,,
,,,,,,,,,,604d6dd610326bec3ab2d15e,20,Mężczyzna,2022-06-10_12h58.10.502,task,2021.1.4,Win32,75.26719855,628b806c463b948bc644b84f,62a323b40ba0e39638525511,,,,,1,0,1,0,1,X V Q F H G B L J M P D K C T S W R N Z,,,,,,,,,,,,,,,,,,,,,,,,,,,,,,,,,,,,,,,,,,,,,,,,,,,,,,,,,,,,,,,,,,,,,,,,,,,,,,,,,,,,,,,,,,,,,
,,,,,,,,,,604d6dd610326bec3ab2d15e,20,Mężczyzna,2022-06-10_12h58.10.502,task,2021.1.4,Win32,75.26719855,628b806c463b948bc644b84f,62a323b40ba0e39638525511,,,,,2,0,2,0,1,X V Q F H G B L J M P D K C T S W R N Z,,,,,,,,,,,,,,,,,,,,,,,,,,,,,,,,,,,,,,,,,,,,,,,,,,,,,,,,,,,,,,,,,,,,,,,,,,,,,,,,,,,,,,,,,,,,,
,,,,,,,,,,604d6dd610326bec3ab2d15e,20,Mężczyzna,2022-06-10_12h58.10.502,task,2021.1.4,Win32,75.26719855,628b806c463b948bc644b84f,62a323b40ba0e39638525511,,,,,,,,,,,cgt,"[""c"",""g"",""t""]","[1.233600000143042,1.670000000000016,1.9467999999523045,2.827299999952345]",1,CGT,3,0,3,0,1,,,,,,,,,,,,,,,,,,,,,,,,,,,,,,,,,,,,,,,,,,,,,,,,,,,,,,,,,,,,,,,,,,,,,,,,,,,,,,,,,,,
,,,,,,,,,,604d6dd610326bec3ab2d15e,20,Mężczyzna,2022-06-10_12h58.10.502,task,2021.1.4,Win32,75.26719855,628b806c463b948bc644b84f,62a323b40ba0e39638525511,,,,,0,0,0,0,1,X V Q F H G B L J M P D K C T S W R N Z,,,,,,,,,,,,,,,,,,,,,,,,,,,,,,,,,,,,,,,,,,,,,,,,,,,,,,,,,,,,,,,,,,,,,,,,,,,,,,,,,,,,,,,,,,,,,
,,,,,,,,,,604d6dd610326bec3ab2d15e,20,Mężczyzna,2022-06-10_12h58.10.502,task,2021.1.4,Win32,75.26719855,628b806c463b948bc644b84f,62a323b40ba0e39638525511,,,,,1,0,1,0,1,X V Q F H G B L J M P D K C T S W R N Z,,,,,,,,,,,,,,,,,,,,,,,,,,,,,,,,,,,,,,,,,,,,,,,,,,,,,,,,,,,,,,,,,,,,,,,,,,,,,,,,,,,,,,,,,,,,,
,,,,,,,,,,604d6dd610326bec3ab2d15e,20,Mężczyzna,2022-06-10_12h58.10.502,task,2021.1.4,Win32,75.26719855,628b806c463b948bc644b84f,62a323b40ba0e39638525511,,,,,2,0,2,0,1,X V Q F H G B L J M P D K C T S W R N Z,,,,,,,,,,,,,,,,,,,,,,,,,,,,,,,,,,,,,,,,,,,,,,,,,,,,,,,,,,,,,,,,,,,,,,,,,,,,,,,,,,,,,,,,,,,,,
,,,,,,,,,,604d6dd610326bec3ab2d15e,20,Mężczyzna,2022-06-10_12h58.10.502,task,2021.1.4,Win32,75.26719855,628b806c463b948bc644b84f,62a323b40ba0e39638525511,,,,,3,0,3,0,1,X V Q F H G B L J M P D K C T S W R N Z,,,,,,,,,,,,,,,,,,,,,,,,,,,,,,,,,,,,,,,,,,,,,,,,,,,,,,,,,,,,,,,,,,,,,,,,,,,,,,,,,,,,,,,,,,,,,
,,,,,,,,,,604d6dd610326bec3ab2d15e,20,Mężczyzna,2022-06-10_12h58.10.502,task,2021.1.4,Win32,75.26719855,628b806c463b948bc644b84f,62a323b40ba0e39638525511,,,,,,,,,,,fwgx,"[""f"",""w"",""g"",""x""]","[1.7208999998569539,2.080199999809281,2.498599999904684,2.946599999904663,3.642699999809281]",1,FWGX,4,0,4,0,1,,,,,,,,,,,,,,,,,,,,,,,,,,,,,,,,,,,,,,,,,,,,,,,,,,,,,,,,,,,,,,,,,,,,,,,,,,,,,,,,,,,
,,,,,,,,,,604d6dd610326bec3ab2d15e,20,Mężczyzna,2022-06-10_12h58.10.502,task,2021.1.4,Win32,75.26719855,628b806c463b948bc644b84f,62a323b40ba0e39638525511,,,,,0,0,0,0,1,X V Q F H G B L J M P D K C T S W R N Z,,,,,,,,,,,,,,,,,,,,,,,,,,,,,,,,,,,,,,,,,,,,,,,,,,,,,,,,,,,,,,,,,,,,,,,,,,,,,,,,,,,,,,,,,,,,,
,,,,,,,,,,604d6dd610326bec3ab2d15e,20,Mężczyzna,2022-06-10_12h58.10.502,task,2021.1.4,Win32,75.26719855,628b806c463b948bc644b84f,62a323b40ba0e39638525511,,,,,1,0,1,0,1,X V Q F H G B L J M P D K C T S W R N Z,,,,,,,,,,,,,,,,,,,,,,,,,,,,,,,,,,,,,,,,,,,,,,,,,,,,,,,,,,,,,,,,,,,,,,,,,,,,,,,,,,,,,,,,,,,,,
,,,,,,,,,,604d6dd610326bec3ab2d15e,20,Mężczyzna,2022-06-10_12h58.10.502,task,2021.1.4,Win32,75.26719855,628b806c463b948bc644b84f,62a323b40ba0e39638525511,,,,,2,0,2,0,1,X V Q F H G B L J M P D K C T S W R N Z,,,,,,,,,,,,,,,,,,,,,,,,,,,,,,,,,,,,,,,,,,,,,,,,,,,,,,,,,,,,,,,,,,,,,,,,,,,,,,,,,,,,,,,,,,,,,
,,,,,,,,,,604d6dd610326bec3ab2d15e,20,Mężczyzna,2022-06-10_12h58.10.502,task,2021.1.4,Win32,75.26719855,628b806c463b948bc644b84f,62a323b40ba0e39638525511,,,,,3,0,3,0,1,X V Q F H G B L J M P D K C T S W R N Z,,,,,,,,,,,,,,,,,,,,,,,,,,,,,,,,,,,,,,,,,,,,,,,,,,,,,,,,,,,,,,,,,,,,,,,,,,,,,,,,,,,,,,,,,,,,,
,,,,,,,,,,604d6dd610326bec3ab2d15e,20,Mężczyzna,2022-06-10_12h58.10.502,task,2021.1.4,Win32,75.26719855,628b806c463b948bc644b84f,62a323b40ba0e39638525511,,,,,,,,,,,xdmh,"[""x"",""d"",""m"",""h""]","[1.3087999999523277,1.6309000000953802,1.987900000095408,2.626400000095373,3.239799999952311]",1,XDMH,5,0,5,0,1,,,,,,,,,,,,,,,,,,,,,,,,,,,,,,,,,,,,,,,,,,,,,,,,,,,,,,,,,,,,,,,,,,,,,,,,,,,,,,,,,,,
,,,,,,,,,,604d6dd610326bec3ab2d15e,20,Mężczyzna,2022-06-10_12h58.10.502,task,2021.1.4,Win32,75.26719855,628b806c463b948bc644b84f,62a323b40ba0e39638525511,,,,,0,0,0,0,1,X V Q F H G B L J M P D K C T S W R N Z,,,,,,,,,,,,,,,,,,,,,,,,,,,,,,,,,,,,,,,,,,,,,,,,,,,,,,,,,,,,,,,,,,,,,,,,,,,,,,,,,,,,,,,,,,,,,
,,,,,,,,,,604d6dd610326bec3ab2d15e,20,Mężczyzna,2022-06-10_12h58.10.502,task,2021.1.4,Win32,75.26719855,628b806c463b948bc644b84f,62a323b40ba0e39638525511,,,,,1,0,1,0,1,X V Q F H G B L J M P D K C T S W R N Z,,,,,,,,,,,,,,,,,,,,,,,,,,,,,,,,,,,,,,,,,,,,,,,,,,,,,,,,,,,,,,,,,,,,,,,,,,,,,,,,,,,,,,,,,,,,,
,,,,,,,,,,604d6dd610326bec3ab2d15e,20,Mężczyzna,2022-06-10_12h58.10.502,task,2021.1.4,Win32,75.26719855,628b806c463b948bc644b84f,62a323b40ba0e39638525511,,,,,2,0,2,0,1,X V Q F H G B L J M P D K C T S W R N Z,,,,,,,,,,,,,,,,,,,,,,,,,,,,,,,,,,,,,,,,,,,,,,,,,,,,,,,,,,,,,,,,,,,,,,,,,,,,,,,,,,,,,,,,,,,,,
,,,,,,,,,,604d6dd610326bec3ab2d15e,20,Mężczyzna,2022-06-10_12h58.10.502,task,2021.1.4,Win32,75.26719855,628b806c463b948bc644b84f,62a323b40ba0e39638525511,,,,,3,0,3,0,1,X V Q F H G B L J M P D K C T S W R N Z,,,,,,,,,,,,,,,,,,,,,,,,,,,,,,,,,,,,,,,,,,,,,,,,,,,,,,,,,,,,,,,,,,,,,,,,,,,,,,,,,,,,,,,,,,,,,
,,,,,,,,,,604d6dd610326bec3ab2d15e,20,Mężczyzna,2022-06-10_12h58.10.502,task,2021.1.4,Win32,75.26719855,628b806c463b948bc644b84f,62a323b40ba0e39638525511,,,,,4,0,4,0,1,X V Q F H G B L J M P D K C T S W R N Z,,,,,,,,,,,,,,,,,,,,,,,,,,,,,,,,,,,,,,,,,,,,,,,,,,,,,,,,,,,,,,,,,,,,,,,,,,,,,,,,,,,,,,,,,,,,,
,,,,,,,,,,604d6dd610326bec3ab2d15e,20,Mężczyzna,2022-06-10_12h58.10.502,task,2021.1.4,Win32,75.26719855,628b806c463b948bc644b84f,62a323b40ba0e39638525511,,,,,,,,,,,wqlmq,"[""w"",""q"",""l"",""m"",""q""]","[0.9004000000953738,1.5482999999523486,1.9084000000953552,3.116599999904622,3.45959999990464,4.364799999952311]",0,WQLMW,6,0,6,0,1,,,,,,,,,,,,,,,,,,,,,,,,,,,,,,,,,,,,,,,,,,,,,,,,,,,,,,,,,,,,,,,,,,,,,,,,,,,,,,,,,,,
,,,,,,,,,,604d6dd610326bec3ab2d15e,20,Mężczyzna,2022-06-10_12h58.10.502,task,2021.1.4,Win32,75.26719855,628b806c463b948bc644b84f,62a323b40ba0e39638525511,,,,,0,0,0,0,1,X V Q F H G B L J M P D K C T S W R N Z,,,,,,,,,,,,,,,,,,,,,,,,,,,,,,,,,,,,,,,,,,,,,,,,,,,,,,,,,,,,,,,,,,,,,,,,,,,,,,,,,,,,,,,,,,,,,
,,,,,,,,,,604d6dd610326bec3ab2d15e,20,Mężczyzna,2022-06-10_12h58.10.502,task,2021.1.4,Win32,75.26719855,628b806c463b948bc644b84f,62a323b40ba0e39638525511,,,,,1,0,1,0,1,X V Q F H G B L J M P D K C T S W R N Z,,,,,,,,,,,,,,,,,,,,,,,,,,,,,,,,,,,,,,,,,,,,,,,,,,,,,,,,,,,,,,,,,,,,,,,,,,,,,,,,,,,,,,,,,,,,,
,,,,,,,,,,604d6dd610326bec3ab2d15e,20,Mężczyzna,2022-06-10_12h58.10.502,task,2021.1.4,Win32,75.26719855,628b806c463b948bc644b84f,62a323b40ba0e39638525511,,,,,2,0,2,0,1,X V Q F H G B L J M P D K C T S W R N Z,,,,,,,,,,,,,,,,,,,,,,,,,,,,,,,,,,,,,,,,,,,,,,,,,,,,,,,,,,,,,,,,,,,,,,,,,,,,,,,,,,,,,,,,,,,,,
,,,,,,,,,,604d6dd610326bec3ab2d15e,20,Mężczyzna,2022-06-10_12h58.10.502,task,2021.1.4,Win32,75.26719855,628b806c463b948bc644b84f,62a323b40ba0e39638525511,,,,,3,0,3,0,1,X V Q F H G B L J M P D K C T S W R N Z,,,,,,,,,,,,,,,,,,,,,,,,,,,,,,,,,,,,,,,,,,,,,,,,,,,,,,,,,,,,,,,,,,,,,,,,,,,,,,,,,,,,,,,,,,,,,
,,,,,,,,,,604d6dd610326bec3ab2d15e,20,Mężczyzna,2022-06-10_12h58.10.502,task,2021.1.4,Win32,75.26719855,628b806c463b948bc644b84f,62a323b40ba0e39638525511,,,,,4,0,4,0,1,X V Q F H G B L J M P D K C T S W R N Z,,,,,,,,,,,,,,,,,,,,,,,,,,,,,,,,,,,,,,,,,,,,,,,,,,,,,,,,,,,,,,,,,,,,,,,,,,,,,,,,,,,,,,,,,,,,,
,,,,,,,,,,604d6dd610326bec3ab2d15e,20,Mężczyzna,2022-06-10_12h58.10.502,task,2021.1.4,Win32,75.26719855,628b806c463b948bc644b84f,62a323b40ba0e39638525511,,,,,,,,,,,hjsvt,"[""h"",""j"",""s"",""v"",""t""]","[1.2083999998569652,1.5201999998092788,2.040399999856959,4.510799999952326,4.933399999856931,5.645699999809267]",1,HJSVT,7,0,7,0,1,,,,,,,,,,,,,,,,,,,,,,,,,,,,,,,,,,,,,,,,,,,,,,,,,,,,,,,,,,,,,,,,,,,,,,,,,,,,,,,,,,,
,,,,,,,,,,604d6dd610326bec3ab2d15e,20,Mężczyzna,2022-06-10_12h58.10.502,task,2021.1.4,Win32,75.26719855,628b806c463b948bc644b84f,62a323b40ba0e39638525511,,,,,0,0,0,0,1,X V Q F H G B L J M P D K C T S W R N Z,,,,,,,,,,,,,,,,,,,,,,,,,,,,,,,,,,,,,,,,,,,,,,,,,,,,,,,,,,,,,,,,,,,,,,,,,,,,,,,,,,,,,,,,,,,,,
,,,,,,,,,,604d6dd610326bec3ab2d15e,20,Mężczyzna,2022-06-10_12h58.10.502,task,2021.1.4,Win32,75.26719855,628b806c463b948bc644b84f,62a323b40ba0e39638525511,,,,,1,0,1,0,1,X V Q F H G B L J M P D K C T S W R N Z,,,,,,,,,,,,,,,,,,,,,,,,,,,,,,,,,,,,,,,,,,,,,,,,,,,,,,,,,,,,,,,,,,,,,,,,,,,,,,,,,,,,,,,,,,,,,
,,,,,,,,,,604d6dd610326bec3ab2d15e,20,Mężczyzna,2022-06-10_12h58.10.502,task,2021.1.4,Win32,75.26719855,628b806c463b948bc644b84f,62a323b40ba0e39638525511,,,,,2,0,2,0,1,X V Q F H G B L J M P D K C T S W R N Z,,,,,,,,,,,,,,,,,,,,,,,,,,,,,,,,,,,,,,,,,,,,,,,,,,,,,,,,,,,,,,,,,,,,,,,,,,,,,,,,,,,,,,,,,,,,,
,,,,,,,,,,604d6dd610326bec3ab2d15e,20,Mężczyzna,2022-06-10_12h58.10.502,task,2021.1.4,Win32,75.26719855,628b806c463b948bc644b84f,62a323b40ba0e39638525511,,,,,3,0,3,0,1,X V Q F H G B L J M P D K C T S W R N Z,,,,,,,,,,,,,,,,,,,,,,,,,,,,,,,,,,,,,,,,,,,,,,,,,,,,,,,,,,,,,,,,,,,,,,,,,,,,,,,,,,,,,,,,,,,,,
,,,,,,,,,,604d6dd610326bec3ab2d15e,20,Mężczyzna,2022-06-10_12h58.10.502,task,2021.1.4,Win32,75.26719855,628b806c463b948bc644b84f,62a323b40ba0e39638525511,,,,,4,0,4,0,1,X V Q F H G B L J M P D K C T S W R N Z,,,,,,,,,,,,,,,,,,,,,,,,,,,,,,,,,,,,,,,,,,,,,,,,,,,,,,,,,,,,,,,,,,,,,,,,,,,,,,,,,,,,,,,,,,,,,
,,,,,,,,,,604d6dd610326bec3ab2d15e,20,Mężczyzna,2022-06-10_12h58.10.502,task,2021.1.4,Win32,75.26719855,628b806c463b948bc644b84f,62a323b40ba0e39638525511,,,,,,,,,,,ttvgb,"[""t"",""t"",""v"",""g"",""b""]","[0.8209999999999695,1.01400000000001,1.4805000000000064,1.9490000000000123,2.1901000001430475,2.747400000095354]",1,TTVGB,8,0,8,0,1,,,,,,,,,,,,,,,,,,,,,,,,,,,,,,,,,,,,,,,,,,,,,,,,,,,,,,,,,,,,,,,,,,,,,,,,,,,,,,,,,,,
,,,,,,,,,,604d6dd610326bec3ab2d15e,20,Mężczyzna,2022-06-10_12h58.10.502,task,2021.1.4,Win32,75.26719855,628b806c463b948bc644b84f,62a323b40ba0e39638525511,,,,,0,0,0,0,1,X V Q F H G B L J M P D K C T S W R N Z,,,,,,,,,,,,,,,,,,,,,,,,,,,,,,,,,,,,,,,,,,,,,,,,,,,,,,,,,,,,,,,,,,,,,,,,,,,,,,,,,,,,,,,,,,,,,
,,,,,,,,,,604d6dd610326bec3ab2d15e,20,Mężczyzna,2022-06-10_12h58.10.502,task,2021.1.4,Win32,75.26719855,628b806c463b948bc644b84f,62a323b40ba0e39638525511,,,,,1,0,1,0,1,X V Q F H G B L J M P D K C T S W R N Z,,,,,,,,,,,,,,,,,,,,,,,,,,,,,,,,,,,,,,,,,,,,,,,,,,,,,,,,,,,,,,,,,,,,,,,,,,,,,,,,,,,,,,,,,,,,,
,,,,,,,,,,604d6dd610326bec3ab2d15e,20,Mężczyzna,2022-06-10_12h58.10.502,task,2021.1.4,Win32,75.26719855,628b806c463b948bc644b84f,62a323b40ba0e39638525511,,,,,2,0,2,0,1,X V Q F H G B L J M P D K C T S W R N Z,,,,,,,,,,,,,,,,,,,,,,,,,,,,,,,,,,,,,,,,,,,,,,,,,,,,,,,,,,,,,,,,,,,,,,,,,,,,,,,,,,,,,,,,,,,,,
,,,,,,,,,,604d6dd610326bec3ab2d15e,20,Mężczyzna,2022-06-10_12h58.10.502,task,2021.1.4,Win32,75.26719855,628b806c463b948bc644b84f,62a323b40ba0e39638525511,,,,,3,0,3,0,1,X V Q F H G B L J M P D K C T S W R N Z,,,,,,,,,,,,,,,,,,,,,,,,,,,,,,,,,,,,,,,,,,,,,,,,,,,,,,,,,,,,,,,,,,,,,,,,,,,,,,,,,,,,,,,,,,,,,
,,,,,,,,,,604d6dd610326bec3ab2d15e,20,Mężczyzna,2022-06-10_12h58.10.502,task,2021.1.4,Win32,75.26719855,628b806c463b948bc644b84f,62a323b40ba0e39638525511,,,,,4,0,4,0,1,X V Q F H G B L J M P D K C T S W R N Z,,,,,,,,,,,,,,,,,,,,,,,,,,,,,,,,,,,,,,,,,,,,,,,,,,,,,,,,,,,,,,,,,,,,,,,,,,,,,,,,,,,,,,,,,,,,,
,,,,,,,,,,604d6dd610326bec3ab2d15e,20,Mężczyzna,2022-06-10_12h58.10.502,task,2021.1.4,Win32,75.26719855,628b806c463b948bc644b84f,62a323b40ba0e39638525511,,,,,5,0,5,0,1,X V Q F H G B L J M P D K C T S W R N Z,,,,,,,,,,,,,,,,,,,,,,,,,,,,,,,,,,,,,,,,,,,,,,,,,,,,,,,,,,,,,,,,,,,,,,,,,,,,,,,,,,,,,,,,,,,,,
,,,,,,,,,,604d6dd610326bec3ab2d15e,20,Mężczyzna,2022-06-10_12h58.10.502,task,2021.1.4,Win32,75.26719855,628b806c463b948bc644b84f,62a323b40ba0e39638525511,,,,,,,,,,,hschjj,"[""h"",""s"",""c"",""h"",""j"",""j""]","[0.9541000001430575,1.6712000000476905,2.3894000000953497,5.47990000009537,6.3202000000476914,6.786400000095341,8.00660000014301]",0,HSCHHS,9,0,9,0,1,,,,,,,,,,,,,,,,,,,,,,,,,,,,,,,,,,,,,,,,,,,,,,,,,,,,,,,,,,,,,,,,,,,,,,,,,,,,,,,,,,,
,,,,,,,,,,604d6dd610326bec3ab2d15e,20,Mężczyzna,2022-06-10_12h58.10.502,task,2021.1.4,Win32,75.26719855,628b806c463b948bc644b84f,62a323b40ba0e39638525511,,,,,0,0,0,0,1,X V Q F H G B L J M P D K C T S W R N Z,,,,,,,,,,,,,,,,,,,,,,,,,,,,,,,,,,,,,,,,,,,,,,,,,,,,,,,,,,,,,,,,,,,,,,,,,,,,,,,,,,,,,,,,,,,,,
,,,,,,,,,,604d6dd610326bec3ab2d15e,20,Mężczyzna,2022-06-10_12h58.10.502,task,2021.1.4,Win32,75.26719855,628b806c463b948bc644b84f,62a323b40ba0e39638525511,,,,,1,0,1,0,1,X V Q F H G B L J M P D K C T S W R N Z,,,,,,,,,,,,,,,,,,,,,,,,,,,,,,,,,,,,,,,,,,,,,,,,,,,,,,,,,,,,,,,,,,,,,,,,,,,,,,,,,,,,,,,,,,,,,
,,,,,,,,,,604d6dd610326bec3ab2d15e,20,Mężczyzna,2022-06-10_12h58.10.502,task,2021.1.4,Win32,75.26719855,628b806c463b948bc644b84f,62a323b40ba0e39638525511,,,,,2,0,2,0,1,X V Q F H G B L J M P D K C T S W R N Z,,,,,,,,,,,,,,,,,,,,,,,,,,,,,,,,,,,,,,,,,,,,,,,,,,,,,,,,,,,,,,,,,,,,,,,,,,,,,,,,,,,,,,,,,,,,,
,,,,,,,,,,604d6dd610326bec3ab2d15e,20,Mężczyzna,2022-06-10_12h58.10.502,task,2021.1.4,Win32,75.26719855,628b806c463b948bc644b84f,62a323b40ba0e39638525511,,,,,3,0,3,0,1,X V Q F H G B L J M P D K C T S W R N Z,,,,,,,,,,,,,,,,,,,,,,,,,,,,,,,,,,,,,,,,,,,,,,,,,,,,,,,,,,,,,,,,,,,,,,,,,,,,,,,,,,,,,,,,,,,,,
,,,,,,,,,,604d6dd610326bec3ab2d15e,20,Mężczyzna,2022-06-10_12h58.10.502,task,2021.1.4,Win32,75.26719855,628b806c463b948bc644b84f,62a323b40ba0e39638525511,,,,,4,0,4,0,1,X V Q F H G B L J M P D K C T S W R N Z,,,,,,,,,,,,,,,,,,,,,,,,,,,,,,,,,,,,,,,,,,,,,,,,,,,,,,,,,,,,,,,,,,,,,,,,,,,,,,,,,,,,,,,,,,,,,
,,,,,,,,,,604d6dd610326bec3ab2d15e,20,Mężczyzna,2022-06-10_12h58.10.502,task,2021.1.4,Win32,75.26719855,628b806c463b948bc644b84f,62a323b40ba0e39638525511,,,,,5,0,5,0,1,X V Q F H G B L J M P D K C T S W R N Z,,,,,,,,,,,,,,,,,,,,,,,,,,,,,,,,,,,,,,,,,,,,,,,,,,,,,,,,,,,,,,,,,,,,,,,,,,,,,,,,,,,,,,,,,,,,,
,,,,,,,,,,604d6dd610326bec3ab2d15e,20,Mężczyzna,2022-06-10_12h58.10.502,task,2021.1.4,Win32,75.26719855,628b806c463b948bc644b84f,62a323b40ba0e39638525511,,,,,,,,,,,pgpvdx,"[""p"",""g"",""p"",""v"",""d"",""x""]","[1.552300000190769,1.8361000001430625,2.080500000000029,2.494000000000028,2.9869000000953747,3.3208000001907294,4.206300000190765]",1,PGPVDX,10,0,10,0,1,,,,,,,,,,,,,,,,,,,,,,,,,,,,,,,,,,,,,,,,,,,,,,,,,,,,,,,,,,,,,,,,,,,,,,,,,,,,,,,,,,,
,,,,,,,,,,604d6dd610326bec3ab2d15e,20,Mężczyzna,2022-06-10_12h58.10.502,task,2021.1.4,Win32,75.26719855,628b806c463b948bc644b84f,62a323b40ba0e39638525511,,,,,0,0,0,0,1,X V Q F H G B L J M P D K C T S W R N Z,,,,,,,,,,,,,,,,,,,,,,,,,,,,,,,,,,,,,,,,,,,,,,,,,,,,,,,,,,,,,,,,,,,,,,,,,,,,,,,,,,,,,,,,,,,,,
,,,,,,,,,,604d6dd610326bec3ab2d15e,20,Mężczyzna,2022-06-10_12h58.10.502,task,2021.1.4,Win32,75.26719855,628b806c463b948bc644b84f,62a323b40ba0e39638525511,,,,,1,0,1,0,1,X V Q F H G B L J M P D K C T S W R N Z,,,,,,,,,,,,,,,,,,,,,,,,,,,,,,,,,,,,,,,,,,,,,,,,,,,,,,,,,,,,,,,,,,,,,,,,,,,,,,,,,,,,,,,,,,,,,
,,,,,,,,,,604d6dd610326bec3ab2d15e,20,Mężczyzna,2022-06-10_12h58.10.502,task,2021.1.4,Win32,75.26719855,628b806c463b948bc644b84f,62a323b40ba0e39638525511,,,,,2,0,2,0,1,X V Q F H G B L J M P D K C T S W R N Z,,,,,,,,,,,,,,,,,,,,,,,,,,,,,,,,,,,,,,,,,,,,,,,,,,,,,,,,,,,,,,,,,,,,,,,,,,,,,,,,,,,,,,,,,,,,,
,,,,,,,,,,604d6dd610326bec3ab2d15e,20,Mężczyzna,2022-06-10_12h58.10.502,task,2021.1.4,Win32,75.26719855,628b806c463b948bc644b84f,62a323b40ba0e39638525511,,,,,3,0,3,0,1,X V Q F H G B L J M P D K C T S W R N Z,,,,,,,,,,,,,,,,,,,,,,,,,,,,,,,,,,,,,,,,,,,,,,,,,,,,,,,,,,,,,,,,,,,,,,,,,,,,,,,,,,,,,,,,,,,,,
,,,,,,,,,,604d6dd610326bec3ab2d15e,20,Mężczyzna,2022-06-10_12h58.10.502,task,2021.1.4,Win32,75.26719855,628b806c463b948bc644b84f,62a323b40ba0e39638525511,,,,,4,0,4,0,1,X V Q F H G B L J M P D K C T S W R N Z,,,,,,,,,,,,,,,,,,,,,,,,,,,,,,,,,,,,,,,,,,,,,,,,,,,,,,,,,,,,,,,,,,,,,,,,,,,,,,,,,,,,,,,,,,,,,
,,,,,,,,,,604d6dd610326bec3ab2d15e,20,Mężczyzna,2022-06-10_12h58.10.502,task,2021.1.4,Win32,75.26719855,628b806c463b948bc644b84f,62a323b40ba0e39638525511,,,,,5,0,5,0,1,X V Q F H G B L J M P D K C T S W R N Z,,,,,,,,,,,,,,,,,,,,,,,,,,,,,,,,,,,,,,,,,,,,,,,,,,,,,,,,,,,,,,,,,,,,,,,,,,,,,,,,,,,,,,,,,,,,,
,,,,,,,,,,604d6dd610326bec3ab2d15e,20,Mężczyzna,2022-06-10_12h58.10.502,task,2021.1.4,Win32,75.26719855,628b806c463b948bc644b84f,62a323b40ba0e39638525511,,,,,,,,,,,tjbstp,"[""t"",""j"",""b"",""s"",""t"",""p""]","[2.2803000001907208,2.5470000000000255,9.066600000143069,9.329800000190744,9.70780000019073,10.190600000143036,11]",0,TJBSFP,11,0,11,0,1,,,,,,,,,,,,,,,,,,,,,,,,,,,,,,,,,,,,,,,,,,,,,,,,,,,,,,,,,,,,,,,,,,,,,,,,,,,,,,,,,,,
,,,,,,,,,,604d6dd610326bec3ab2d15e,20,Mężczyzna,2022-06-10_12h58.10.502,task,2021.1.4,Win32,75.26719855,628b806c463b948bc644b84f,62a323b40ba0e39638525511,,,,,0,0,0,0,1,X V Q F H G B L J M P D K C T S W R N Z,,,,,,,,,,,,,,,,,,,,,,,,,,,,,,,,,,,,,,,,,,,,,,,,,,,,,,,,,,,,,,,,,,,,,,,,,,,,,,,,,,,,,,,,,,,,,
,,,,,,,,,,604d6dd610326bec3ab2d15e,20,Mężczyzna,2022-06-10_12h58.10.502,task,2021.1.4,Win32,75.26719855,628b806c463b948bc644b84f,62a323b40ba0e39638525511,,,,,1,0,1,0,1,X V Q F H G B L J M P D K C T S W R N Z,,,,,,,,,,,,,,,,,,,,,,,,,,,,,,,,,,,,,,,,,,,,,,,,,,,,,,,,,,,,,,,,,,,,,,,,,,,,,,,,,,,,,,,,,,,,,
,,,,,,,,,,604d6dd610326bec3ab2d15e,20,Mężczyzna,2022-06-10_12h58.10.502,task,2021.1.4,Win32,75.26719855,628b806c463b948bc644b84f,62a323b40ba0e39638525511,,,,,2,0,2,0,1,X V Q F H G B L J M P D K C T S W R N Z,,,,,,,,,,,,,,,,,,,,,,,,,,,,,,,,,,,,,,,,,,,,,,,,,,,,,,,,,,,,,,,,,,,,,,,,,,,,,,,,,,,,,,,,,,,,,
,,,,,,,,,,604d6dd610326bec3ab2d15e,20,Mężczyzna,2022-06-10_12h58.10.502,task,2021.1.4,Win32,75.26719855,628b806c463b948bc644b84f,62a323b40ba0e39638525511,,,,,3,0,3,0,1,X V Q F H G B L J M P D K C T S W R N Z,,,,,,,,,,,,,,,,,,,,,,,,,,,,,,,,,,,,,,,,,,,,,,,,,,,,,,,,,,,,,,,,,,,,,,,,,,,,,,,,,,,,,,,,,,,,,
,,,,,,,,,,604d6dd610326bec3ab2d15e,20,Mężczyzna,2022-06-10_12h58.10.502,task,2021.1.4,Win32,75.26719855,628b806c463b948bc644b84f,62a323b40ba0e39638525511,,,,,4,0,4,0,1,X V Q F H G B L J M P D K C T S W R N Z,,,,,,,,,,,,,,,,,,,,,,,,,,,,,,,,,,,,,,,,,,,,,,,,,,,,,,,,,,,,,,,,,,,,,,,,,,,,,,,,,,,,,,,,,,,,,
,,,,,,,,,,604d6dd610326bec3ab2d15e,20,Mężczyzna,2022-06-10_12h58.10.502,task,2021.1.4,Win32,75.26719855,628b806c463b948bc644b84f,62a323b40ba0e39638525511,,,,,5,0,5,0,1,X V Q F H G B L J M P D K C T S W R N Z,,,,,,,,,,,,,,,,,,,,,,,,,,,,,,,,,,,,,,,,,,,,,,,,,,,,,,,,,,,,,,,,,,,,,,,,,,,,,,,,,,,,,,,,,,,,,
,,,,,,,,,,604d6dd610326bec3ab2d15e,20,Mężczyzna,2022-06-10_12h58.10.502,task,2021.1.4,Win32,75.26719855,628b806c463b948bc644b84f,62a323b40ba0e39638525511,,,,,,,,,,,rmxjnn,"[""r"",""m"",""x"",""j"",""n"",""n""]","[1.0851000001430862,2.5069000000954134,3.733300000190752,11.973900000095398,15.03970000004773,15.207900000095378,17.497100000143064]",0,RMXZNN,12,0,12,0,1,,,,,,,,,,,,,,,,,,,,,,,,,,,,,,,,,,,,,,,,,,,,,,,,,,,,,,,,,,,,,,,,,,,,,,,,,,,,,,,,,,,
,,,,,,,,,,604d6dd610326bec3ab2d15e,20,Mężczyzna,2022-06-10_12h58.10.502,task,2021.1.4,Win32,75.26719855,628b806c463b948bc644b84f,62a323b40ba0e39638525511,,,,,,,,,,,,,,,,,,,,,space,11.4086,5,"[""5""]",1,[6.662500000000023],[6.662500000000023],0,0,0,5,1,Practice,6,(4/2) + 3,5,,,,,,,,,,,,,,,,,,,,,,,,,,,,,,,,,,,,,,,,,,,,,,,,,,,,,,,,,,,,,,,,,,,
,,,,,,,,,,604d6dd610326bec3ab2d15e,20,Mężczyzna,2022-06-10_12h58.10.502,task,2021.1.4,Win32,75.26719855,628b806c463b948bc644b84f,62a323b40ba0e39638525511,,,,,,,,,,,,,,,,,,,,,,,7,"[""7""]",1,[7.146699999809243],"[6.662500000000023,7.146699999809243]",0,1,1,7,1,Practice,8,(5x5) - 18,7,,,,,,,,,,,,,,,,,,,,,,,,,,,,,,,,,,,,,,,,,,,,,,,,,,,,,,,,,,,,,,,,,,,
,,,,,,,,,,604d6dd610326bec3ab2d15e,20,Mężczyzna,2022-06-10_12h58.10.502,task,2021.1.4,Win32,75.26719855,628b806c463b948bc644b84f,62a323b40ba0e39638525511,,,,,,,,,,,,,,,,,,,,,,,3,"[""3""]",1,[4.2041000001430575],"[6.662500000000023,7.146699999809243,4.2041000001430575]",0,2,2,3,1,Practice,4,(8/4) + 1,3,,,,,,,,,,,,,,,,,,,,,,,,,,,,,,,,,,,,,,,,,,,,,,,,,,,,,,,,,,,,,,,,,,,
,,,,,,,,,,604d6dd610326bec3ab2d15e,20,Mężczyzna,2022-06-10_12h58.10.502,task,2021.1.4,Win32,75.26719855,628b806c463b948bc644b84f,62a323b40ba0e39638525511,,,,,,,,,,,,,,,,,,,,,,,1,"[""1""]",1,[3.3866999998092524],"[6.662500000000023,7.146699999809243,4.2041000001430575,3.3866999998092524]",0,3,3,1,1,Practice,2,(4x4) - 15,1,,,,,,,,,,,,,,,,,,,,,,,,,,,,,,,,,,,,,,,,,,,,,,,,,,,,,,,,,,,,,,,,,,,
,,,,,,,,,,604d6dd610326bec3ab2d15e,20,Mężczyzna,2022-06-10_12h58.10.502,task,2021.1.4,Win32,75.26719855,628b806c463b948bc644b84f,62a323b40ba0e39638525511,,,,,,,,,,,,,,,,,,,,,,,2,"[""2""]",1,[3.306900000095311],"[6.662500000000023,7.146699999809243,4.2041000001430575,3.3866999998092524,3.306900000095311]",0,4,4,2,1,Practice,3,(4x4) - 14,2,,,,,,,,,,,,,,,,,,,,,,,,,,,,,,,,,,,,,,,,,,,,,,,,,,,,,,,,,,,,,,,,,,,
,,,,,,,,,,604d6dd610326bec3ab2d15e,20,Mężczyzna,2022-06-10_12h58.10.502,task,2021.1.4,Win32,75.26719855,628b806c463b948bc644b84f,62a323b40ba0e39638525511,,,,,,,,,,,,,,,,,,,,,,,8,"[""8""]",1,[4.54200000000003],"[6.662500000000023,7.146699999809243,4.2041000001430575,3.3866999998092524,3.306900000095311,4.54200000000003]",0,5,5,8,1,Practice,9,(3x3) - 1,8,,,,,,,,,,,,,,,,,,,,,,,,,,,,,,,,,,,,,,,,,,,,,,,,,,,,,,,,,,,,,,,,,,,
,,,,,,,,,,604d6dd610326bec3ab2d15e,20,Mężczyzna,2022-06-10_12h58.10.502,task,2021.1.4,Win32,75.26719855,628b806c463b948bc644b84f,62a323b40ba0e39638525511,,,,,,,,,,,,,,,,,,,,,,,6,"[""6""]",1,[3.1865000000000236],"[6.662500000000023,7.146699999809243,4.2041000001430575,3.3866999998092524,3.306900000095311,4.54200000000003,3.1865000000000236]",0,6,6,6,1,Practice,7,(25/5) + 1,6,,,,,,,,,,,,,,,,,,,,,,,,,,,,,,,,,,,,,,,,,,,,,,,,,,,,,,,,,,,,,,,,,,,
,,,,,,,,,,604d6dd610326bec3ab2d15e,20,Mężczyzna,2022-06-10_12h58.10.502,task,2021.1.4,Win32,75.26719855,628b806c463b948bc644b84f,62a323b40ba0e39638525511,,,,,,,,,,,,,,,,,,,,,,,9,"[""9""]",1,[2.8373999998568706],"[6.662500000000023,7.146699999809243,4.2041000001430575,3.3866999998092524,3.306900000095311,4.54200000000003,3.1865000000000236,2.8373999998568706]",0,7,7,9,1,Practice,10,(20/2) - 1,9,,,,,,,,,,,,,,,,,,,,,,,,,,,,,,,,,,,,,,,,,,,,,,,,,,,,,,,,,,,,,,,,,,,
,,,,,,,,,,604d6dd610326bec3ab2d15e,20,Mężczyzna,2022-06-10_12h58.10.502,task,2021.1.4,Win32,75.26719855,628b806c463b948bc644b84f,62a323b40ba0e39638525511,,,,,,,,,,,,,,,,,,,,,,,4,"[""4""]",1,[2.7823999998569207],"[6.662500000000023,7.146699999809243,4.2041000001430575,3.3866999998092524,3.306900000095311,4.54200000000003,3.1865000000000236,2.8373999998568706,2.7823999998569207]",0,8,8,4,1,Practice,5,(2x6) - 8,4,,,,,,,,,,,,,,,,,,,,,,,,,,,,,,,,,,,,,,,,,,,,,,,,,,,,,,,,,,,,,,,,,,,
,,,,,,,,,,604d6dd610326bec3ab2d15e,20,Mężczyzna,2022-06-10_12h58.10.502,task,2021.1.4,Win32,75.26719855,628b806c463b948bc644b84f,62a323b40ba0e39638525511,,,,,,,,,,,,,,,,,,,,,,,0,"[""0""]",1,[3.18259999990471],"[6.662500000000023,7.146699999809243,4.2041000001430575,3.3866999998092524,3.306900000095311,4.54200000000003,3.1865000000000236,2.8373999998568706,2.7823999998569207,3.18259999990471]",0,9,9,0,1,Practice,1,(3x3) -  9,0,,,,,,,,,,,,,,,,,,,,,,,,,,,,,,,,,,,,,,,,,,,,,,,,,,,,,,,,,,,,,,,,,,,
,,,,,,,,,,604d6dd610326bec3ab2d15e,20,Mężczyzna,2022-06-10_12h58.10.502,task,2021.1.4,Win32,75.26719855,628b806c463b948bc644b84f,62a323b40ba0e39638525511,,,,,,,,,,,,,,,,,,,,,,,,,,,,,,,,,,,,,1,41.2378,2.749186667,41.08853942,1.655063733,7.019251098,space,3.0044,0,0,0,0,1,,,,,,,,,,,,,,,,,,,,,,,,,,,,,,,,,,,,,,,,,,,,,,,,,,,,,,
,,,,,,,,,,604d6dd610326bec3ab2d15e,20,Mężczyzna,2022-06-10_12h58.10.502,task,2021.1.4,Win32,75.26719855,628b806c463b948bc644b84f,62a323b40ba0e39638525511,,,,,,,,,,,,,,,,,,,,,,,2,,,,,,,,,,Practice,3,(4x4) - 14,2,,,,,,,,,,,,,,space,56.9902,"[""2""]",1,[5.29070000004765],1,0,0,0,2,1,,,,,,,,,,,,,,,,,,,,,,,,,,,,,,,,,,,,,,,,,,,
,,,,,,,,,,604d6dd610326bec3ab2d15e,20,Mężczyzna,2022-06-10_12h58.10.502,task,2021.1.4,Win32,75.26719855,628b806c463b948bc644b84f,62a323b40ba0e39638525511,,,,,,,,,,X V Q F H G B L J M P D K C T S W R N Z,,,,,,,,,,,,,,,,,,,,,,,,,,,,,,,,,,,,,,,,,,,,,,,,,,,0,0,0,0,1,,,,,,,,,,,,,,,,,,,,,,,,,,,,,,,,,,,,,,
,,,,,,,,,,604d6dd610326bec3ab2d15e,20,Mężczyzna,2022-06-10_12h58.10.502,task,2021.1.4,Win32,75.26719855,628b806c463b948bc644b84f,62a323b40ba0e39638525511,,,,,,,,,,,,,,,,,,,,,,,3,,,,,,,,,,Practice,4,(8/4) + 1,3,,,,,,,,,,,,,,,,"[""3""]",1,[3.4134000000954074],1,0,0,0,3,1,,,,,,,,,,,,,,,,,,,,,,,,,,,,,,,,,,,,,,,,,,,
,,,,,,,,,,604d6dd610326bec3ab2d15e,20,Mężczyzna,2022-06-10_12h58.10.502,task,2021.1.4,Win32,75.26719855,628b806c463b948bc644b84f,62a323b40ba0e39638525511,,,,,,,,,,X V Q F H G B L J M P D K C T S W R N Z,,,,,,,,,,,,,,,,,,,,,,,,,,,,,,,,,,,,,,,,,,,,,,,,,,,1,0,1,0,1,,,,,,,,,,,,,,,,,,,,,,,,,,,,,,,,,,,,,,
,,,,,,,,,,604d6dd610326bec3ab2d15e,20,Mężczyzna,2022-06-10_12h58.10.502,task,2021.1.4,Win32,75.26719855,628b806c463b948bc644b84f,62a323b40ba0e39638525511,,,,,,,,,,,,,,,,,,,,,,,,,,,,,,,,,,,,,,,,,,,,,,,,,,,,,,,,,,,,,,,,,,zf,"[""z"",""f""]",0,"[4.415800000190757,5.235000000000014,7.013600000143015]",1,0,0,0,0,1,,,,,,,,,,,,,,,,,,,,,,,,,,,,
,,,,,,,,,,604d6dd610326bec3ab2d15e,20,Mężczyzna,2022-06-10_12h58.10.502,task,2021.1.4,Win32,75.26719855,628b806c463b948bc644b84f,62a323b40ba0e39638525511,,,,,,,,,,,,,,,,,,,,,,,6,,,,,,,,,,Practice,7,(25/5) + 1,6,,,,,,,,,,,,,,,,"[""6""]",1,[2.323799999952371],1,0,0,0,6,1,,,,,,,,,,,,,,,,,,,,,,,,,,,,,,,,,,,,,,,,,,,
,,,,,,,,,,604d6dd610326bec3ab2d15e,20,Mężczyzna,2022-06-10_12h58.10.502,task,2021.1.4,Win32,75.26719855,628b806c463b948bc644b84f,62a323b40ba0e39638525511,,,,,,,,,,X V Q F H G B L J M P D K C T S W R N Z,,,,,,,,,,,,,,,,,,,,,,,,,,,,,,,,,,,,,,,,,,,,,,,,,,,0,0,0,0,1,,,,,,,,,,,,,,,,,,,,,,,,,,,,,,,,,,,,,,
,,,,,,,,,,604d6dd610326bec3ab2d15e,20,Mężczyzna,2022-06-10_12h58.10.502,task,2021.1.4,Win32,75.26719855,628b806c463b948bc644b84f,62a323b40ba0e39638525511,,,,,,,,,,,,,,,,,,,,,,,6,,,,,,,,,,Practice,7,(25/5) + 1,6,,,,,,,,,,,,,,,,"[""6""]",1,[2.787200000047733],1,0,0,0,6,1,,,,,,,,,,,,,,,,,,,,,,,,,,,,,,,,,,,,,,,,,,,
,,,,,,,,,,604d6dd610326bec3ab2d15e,20,Mężczyzna,2022-06-10_12h58.10.502,task,2021.1.4,Win32,75.26719855,628b806c463b948bc644b84f,62a323b40ba0e39638525511,,,,,,,,,,X V Q F H G B L J M P D K C T S W R N Z,,,,,,,,,,,,,,,,,,,,,,,,,,,,,,,,,,,,,,,,,,,,,,,,,,,1,0,1,0,1,,,,,,,,,,,,,,,,,,,,,,,,,,,,,,,,,,,,,,
,,,,,,,,,,604d6dd610326bec3ab2d15e,20,Mężczyzna,2022-06-10_12h58.10.502,task,2021.1.4,Win32,75.26719855,628b806c463b948bc644b84f,62a323b40ba0e39638525511,,,,,,,,,,,,,,,,,,,,,,,,,,,,,,,,,,,,,,,,,,,,,,,,,,,,,,,,,,,,,,,,,,wk,"[""w"",""k""]",0,"[1.9788999998569352,2.354199999809339,2.826999999999998]",1,1,0,1,0,1,,,,,,,,,,,,,,,,,,,,,,,,,,,,
,,,,,,,,,,604d6dd610326bec3ab2d15e,20,Mężczyzna,2022-06-10_12h58.10.502,task,2021.1.4,Win32,75.26719855,628b806c463b948bc644b84f,62a323b40ba0e39638525511,,,,,,,,,,,,,,,,,,,,,,,1,,,,,,,,,,Practice,2,(4x4) - 15,1,,,,,,,,,,,,,,,,"[""1""]",1,[5.533099999904607],1,0,0,0,1,1,,,,,,,,,,,,,,,,,,,,,,,,,,,,,,,,,,,,,,,,,,,
,,,,,,,,,,604d6dd610326bec3ab2d15e,20,Mężczyzna,2022-06-10_12h58.10.502,task,2021.1.4,Win32,75.26719855,628b806c463b948bc644b84f,62a323b40ba0e39638525511,,,,,,,,,,X V Q F H G B L J M P D K C T S W R N Z,,,,,,,,,,,,,,,,,,,,,,,,,,,,,,,,,,,,,,,,,,,,,,,,,,,0,0,0,0,1,,,,,,,,,,,,,,,,,,,,,,,,,,,,,,,,,,,,,,
,,,,,,,,,,604d6dd610326bec3ab2d15e,20,Mężczyzna,2022-06-10_12h58.10.502,task,2021.1.4,Win32,75.26719855,628b806c463b948bc644b84f,62a323b40ba0e39638525511,,,,,,,,,,,,,,,,,,,,,,,9,,,,,,,,,,Practice,10,(20/2) - 1,9,,,,,,,,,,,,,,,,"[""9""]",1,[4.126399999856972],1,0,0,0,9,1,,,,,,,,,,,,,,,,,,,,,,,,,,,,,,,,,,,,,,,,,,,
,,,,,,,,,,604d6dd610326bec3ab2d15e,20,Mężczyzna,2022-06-10_12h58.10.502,task,2021.1.4,Win32,75.26719855,628b806c463b948bc644b84f,62a323b40ba0e39638525511,,,,,,,,,,X V Q F H G B L J M P D K C T S W R N Z,,,,,,,,,,,,,,,,,,,,,,,,,,,,,,,,,,,,,,,,,,,,,,,,,,,1,0,1,0,1,,,,,,,,,,,,,,,,,,,,,,,,,,,,,,,,,,,,,,
,,,,,,,,,,604d6dd610326bec3ab2d15e,20,Mężczyzna,2022-06-10_12h58.10.502,task,2021.1.4,Win32,75.26719855,628b806c463b948bc644b84f,62a323b40ba0e39638525511,,,,,,,,,,,,,,,,,,,,,,,,,,,,,,,,,,,,,,,,,,,,,,,,,,,,,,,,,,,,,,,,,,zc,"[""z"",""c""]",0,"[2.978399999856947,3.374399999856905,4.285499999999956]",1,2,0,2,0,1,,,,,,,,,,,,,,,,,,,,,,,,,,,,
,,,,,,,,,,604d6dd610326bec3ab2d15e,20,Mężczyzna,2022-06-10_12h58.10.502,task,2021.1.4,Win32,75.26719855,628b806c463b948bc644b84f,62a323b40ba0e39638525511,,,,,,,,,,,,,,,,,,,,,,,,,,,,,,,,,Task,18,(16/4) - 3,1,,,,,,,,,,,,,,,,,,,0,,,,,,,,,,,,,,,,,,,,,space,19.493,,0,0,0,0,17,1,,,,,,,,,,,,,,,,,,,
,,,,,,,,,,604d6dd610326bec3ab2d15e,20,Mężczyzna,2022-06-10_12h58.10.502,task,2021.1.4,Win32,75.26719855,628b806c463b948bc644b84f,62a323b40ba0e39638525511,,,,,,,,,,,,,,,,,,,,,,,1,,,,,,,,,,Task,1,(12/6) - 1,1,,,,,,,,,,,,,,,,,,,1,,,,,,,,,,,,,,,,,,,,,,,"[""1""]",1,0,1,1,0,1,[2.03479999995227],,,,,,,,,,,,,,,,,,
,,,,,,,,,,604d6dd610326bec3ab2d15e,20,Mężczyzna,2022-06-10_12h58.10.502,task,2021.1.4,Win32,75.26719855,628b806c463b948bc644b84f,62a323b40ba0e39638525511,,,,,,,,,,X V Q F H G B L J M P D K C T S W R N Z,,,,,,,,,,,,,,,,,,,,,,,,,,,,,,,,,,,,,,,,,,,,,,,,,,,,,,,,,,,,,,,,,,,,,,,,,,,,0,0,0,0,1,,,,,,,,,,,,,
,,,,,,,,,,604d6dd610326bec3ab2d15e,20,Mężczyzna,2022-06-10_12h58.10.502,task,2021.1.4,Win32,75.26719855,628b806c463b948bc644b84f,62a323b40ba0e39638525511,,,,,,,,,,,,,,,,,,,,,,,1,,,,,,,,,,Task,34,(9/3) - 2,1,,,,,,,,,,,,,,,,,,,1,,,,,,,,,,,,,,,,,,,,,,,"[""1""]",1,0,0,0,33,1,[3.7670999999045307],,,,,,,,,,,,,,,,,,
,,,,,,,,,,604d6dd610326bec3ab2d15e,20,Mężczyzna,2022-06-10_12h58.10.502,task,2021.1.4,Win32,75.26719855,628b806c463b948bc644b84f,62a323b40ba0e39638525511,,,,,,,,,,X V Q F H G B L J M P D K C T S W R N Z,,,,,,,,,,,,,,,,,,,,,,,,,,,,,,,,,,,,,,,,,,,,,,,,,,,,,,,,,,,,,,,,,,,,,,,,,,,,1,0,1,0,1,,,,,,,,,,,,,
,,,,,,,,,,604d6dd610326bec3ab2d15e,20,Mężczyzna,2022-06-10_12h58.10.502,task,2021.1.4,Win32,75.26719855,628b806c463b948bc644b84f,62a323b40ba0e39638525511,,,,,,,,,,,,,,,,,,,,,,,,,,,,,,,,,,,,,,,,,,,,,,,,,,,,,,,,,,,,,,,,,,,,,,,,,,,,,,,,,,,,,,,,,,,zg,"[""z"",""g""]",0,"[1.9202999999523627,2.2403999998570043,3.724099999904638]",1,ZG,0,0,0,0,1,,
,,,,,,,,,,604d6dd610326bec3ab2d15e,20,Mężczyzna,2022-06-10_12h58.10.502,task,2021.1.4,Win32,75.26719855,628b806c463b948bc644b84f,62a323b40ba0e39638525511,,,,,,,,,,,,,,,,,,,,,,,6,,,,,,,,,,Task,5,(2x3) + 0,6,,,,,,,,,,,,,,,,,,,1,,,,,,,,,,,,,,,,,,,,,,,"[""6""]",1,0,0,0,4,1,[2.9751000001431294],,,,,,,,,,,,,,,,,,
,,,,,,,,,,604d6dd610326bec3ab2d15e,20,Mężczyzna,2022-06-10_12h58.10.502,task,2021.1.4,Win32,75.26719855,628b806c463b948bc644b84f,62a323b40ba0e39638525511,,,,,,,,,,X V Q F H G B L J M P D K C T S W R N Z,,,,,,,,,,,,,,,,,,,,,,,,,,,,,,,,,,,,,,,,,,,,,,,,,,,,,,,,,,,,,,,,,,,,,,,,,,,,0,0,0,0,1,,,,,,,,,,,,,
,,,,,,,,,,604d6dd610326bec3ab2d15e,20,Mężczyzna,2022-06-10_12h58.10.502,task,2021.1.4,Win32,75.26719855,628b806c463b948bc644b84f,62a323b40ba0e39638525511,,,,,,,,,,,,,,,,,,,,,,,4,,,,,,,,,,Task,28,(2x5) - 6,4,,,,,,,,,,,,,,,,,,,1,,,,,,,,,,,,,,,,,,,,,,,"[""4""]",1,0,0,0,27,1,[2.568899999856967],,,,,,,,,,,,,,,,,,
,,,,,,,,,,604d6dd610326bec3ab2d15e,20,Mężczyzna,2022-06-10_12h58.10.502,task,2021.1.4,Win32,75.26719855,628b806c463b948bc644b84f,62a323b40ba0e39638525511,,,,,,,,,,X V Q F H G B L J M P D K C T S W R N Z,,,,,,,,,,,,,,,,,,,,,,,,,,,,,,,,,,,,,,,,,,,,,,,,,,,,,,,,,,,,,,,,,,,,,,,,,,,,1,0,1,0,1,,,,,,,,,,,,,
,,,,,,,,,,604d6dd610326bec3ab2d15e,20,Mężczyzna,2022-06-10_12h58.10.502,task,2021.1.4,Win32,75.26719855,628b806c463b948bc644b84f,62a323b40ba0e39638525511,,,,,,,,,,,,,,,,,,,,,,,0,,,,,,,,,,Task,33,(1/1) - 1,0,,,,,,,,,,,,,,,,,,,1,,,,,,,,,,,,,,,,,,,,,,,"[""0""]",1,0,0,0,32,1,[2.661299999952348],,,,,,,,,,,,,,,,,,
,,,,,,,,,,604d6dd610326bec3ab2d15e,20,Mężczyzna,2022-06-10_12h58.10.502,task,2021.1.4,Win32,75.26719855,628b806c463b948bc644b84f,62a323b40ba0e39638525511,,,,,,,,,,X V Q F H G B L J M P D K C T S W R N Z,,,,,,,,,,,,,,,,,,,,,,,,,,,,,,,,,,,,,,,,,,,,,,,,,,,,,,,,,,,,,,,,,,,,,,,,,,,,2,0,2,0,1,,,,,,,,,,,,,
,,,,,,,,,,604d6dd610326bec3ab2d15e,20,Mężczyzna,2022-06-10_12h58.10.502,task,2021.1.4,Win32,75.26719855,628b806c463b948bc644b84f,62a323b40ba0e39638525511,,,,,,,,,,,,,,,,,,,,,,,,,,,,,,,,,,,,,,,,,,,,,,,,,,,,,,,,,,,,,,,,,,,,,,,,,,,,,,,,,,,,,,,,,,,msh,"[""m"",""s"",""h""]",0,"[2.84079999995231,2.9874999999999545,3.588299999952369,4.70740000009539]",1,MSH,1,0,1,0,1,,
,,,,,,,,,,604d6dd610326bec3ab2d15e,20,Mężczyzna,2022-06-10_12h58.10.502,task,2021.1.4,Win32,75.26719855,628b806c463b948bc644b84f,62a323b40ba0e39638525511,,,,,,,,,,,,,,,,,,,,,,,4,,,,,,,,,,Task,28,(2x5) - 6,4,,,,,,,,,,,,,,,,,,,1,,,,,,,,,,,,,,,,,,,,,,,"[""4""]",1,0,0,0,27,1,[3.3380999999046708],,,,,,,,,,,,,,,,,,
,,,,,,,,,,604d6dd610326bec3ab2d15e,20,Mężczyzna,2022-06-10_12h58.10.502,task,2021.1.4,Win32,75.26719855,628b806c463b948bc644b84f,62a323b40ba0e39638525511,,,,,,,,,,X V Q F H G B L J M P D K C T S W R N Z,,,,,,,,,,,,,,,,,,,,,,,,,,,,,,,,,,,,,,,,,,,,,,,,,,,,,,,,,,,,,,,,,,,,,,,,,,,,0,0,0,0,1,,,,,,,,,,,,,
,,,,,,,,,,604d6dd610326bec3ab2d15e,20,Mężczyzna,2022-06-10_12h58.10.502,task,2021.1.4,Win32,75.26719855,628b806c463b948bc644b84f,62a323b40ba0e39638525511,,,,,,,,,,,,,,,,,,,,,,,,,,,,,,,,,Task,7,(3x7) - 12,9,,,,,,,,,,,,,,,,,,,0,,,,,,,,,,,,,,,,,,,,,,,,0,0,0,0,6,1,,,,,,,,,,,,,,,,,,,
,,,,,,,,,,604d6dd610326bec3ab2d15e,20,Mężczyzna,2022-06-10_12h58.10.502,task,2021.1.4,Win32,75.26719855,628b806c463b948bc644b84f,62a323b40ba0e39638525511,,,,,,,,,,,,,,,,,,,,,,,7,,,,,,,,,,Task,14,(2x2) + 3,7,,,,,,,,,,,,,,,,,,,1,,,,,,,,,,,,,,,,,,,,,,,"[""7""]",1,0,1,1,13,1,[5.027200000047628],,,,,,,,,,,,,,,,,,
,,,,,,,,,,604d6dd610326bec3ab2d15e,20,Mężczyzna,2022-06-10_12h58.10.502,task,2021.1.4,Win32,75.26719855,628b806c463b948bc644b84f,62a323b40ba0e39638525511,,,,,,,,,,X V Q F H G B L J M P D K C T S W R N Z,,,,,,,,,,,,,,,,,,,,,,,,,,,,,,,,,,,,,,,,,,,,,,,,,,,,,,,,,,,,,,,,,,,,,,,,,,,,1,0,1,0,1,,,,,,,,,,,,,
,,,,,,,,,,604d6dd610326bec3ab2d15e,20,Mężczyzna,2022-06-10_12h58.10.502,task,2021.1.4,Win32,75.26719855,628b806c463b948bc644b84f,62a323b40ba0e39638525511,,,,,,,,,,,,,,,,,,,,,,,2,,,,,,,,,,Task,10,(2x5) - 8,2,,,,,,,,,,,,,,,,,,,1,,,,,,,,,,,,,,,,,,,,,,,"[""2""]",1,0,0,0,9,1,[2.419999999999959],,,,,,,,,,,,,,,,,,
,,,,,,,,,,604d6dd610326bec3ab2d15e,20,Mężczyzna,2022-06-10_12h58.10.502,task,2021.1.4,Win32,75.26719855,628b806c463b948bc644b84f,62a323b40ba0e39638525511,,,,,,,,,,X V Q F H G B L J M P D K C T S W R N Z,,,,,,,,,,,,,,,,,,,,,,,,,,,,,,,,,,,,,,,,,,,,,,,,,,,,,,,,,,,,,,,,,,,,,,,,,,,,2,0,2,0,1,,,,,,,,,,,,,
,,,,,,,,,,604d6dd610326bec3ab2d15e,20,Mężczyzna,2022-06-10_12h58.10.502,task,2021.1.4,Win32,75.26719855,628b806c463b948bc644b84f,62a323b40ba0e39638525511,,,,,,,,,,,,,,,,,,,,,,,3,,,,,,,,,,Task,35,(1x2) + 1,3,,,,,,,,,,,,,,,,,,,1,,,,,,,,,,,,,,,,,,,,,,,"[""3""]",1,0,0,0,34,1,[3.0497000000476646],,,,,,,,,,,,,,,,,,
,,,,,,,,,,604d6dd610326bec3ab2d15e,20,Mężczyzna,2022-06-10_12h58.10.502,task,2021.1.4,Win32,75.26719855,628b806c463b948bc644b84f,62a323b40ba0e39638525511,,,,,,,,,,X V Q F H G B L J M P D K C T S W R N Z,,,,,,,,,,,,,,,,,,,,,,,,,,,,,,,,,,,,,,,,,,,,,,,,,,,,,,,,,,,,,,,,,,,,,,,,,,,,3,0,3,0,1,,,,,,,,,,,,,
,,,,,,,,,,604d6dd610326bec3ab2d15e,20,Mężczyzna,2022-06-10_12h58.10.502,task,2021.1.4,Win32,75.26719855,628b806c463b948bc644b84f,62a323b40ba0e39638525511,,,,,,,,,,,,,,,,,,,,,,,,,,,,,,,,,,,,,,,,,,,,,,,,,,,,,,,,,,,,,,,,,,,,,,,,,,,,,,,,,,,,,,,,,,,cqfw,"[""c"",""q"",""f"",""w""]",0,"[2.6936000001430784,3.0874000000953856,4.605400000095415,8.980000000000018,10.179900000095358]",1,CQFW,2,0,2,0,1,,
,,,,,,,,,,604d6dd610326bec3ab2d15e,20,Mężczyzna,2022-06-10_12h58.10.502,task,2021.1.4,Win32,75.26719855,628b806c463b948bc644b84f,62a323b40ba0e39638525511,,,,,,,,,,,,,,,,,,,,,,,1,,,,,,,,,,Task,9,(3x7) - 20,1,,,,,,,,,,,,,,,,,,,1,,,,,,,,,,,,,,,,,,,,,,,"[""1""]",1,0,0,0,8,1,[3.895999999999958],,,,,,,,,,,,,,,,,,
,,,,,,,,,,604d6dd610326bec3ab2d15e,20,Mężczyzna,2022-06-10_12h58.10.502,task,2021.1.4,Win32,75.26719855,628b806c463b948bc644b84f,62a323b40ba0e39638525511,,,,,,,,,,X V Q F H G B L J M P D K C T S W R N Z,,,,,,,,,,,,,,,,,,,,,,,,,,,,,,,,,,,,,,,,,,,,,,,,,,,,,,,,,,,,,,,,,,,,,,,,,,,,0,0,0,0,1,,,,,,,,,,,,,
,,,,,,,,,,604d6dd610326bec3ab2d15e,20,Mężczyzna,2022-06-10_12h58.10.502,task,2021.1.4,Win32,75.26719855,628b806c463b948bc644b84f,62a323b40ba0e39638525511,,,,,,,,,,,,,,,,,,,,,,,1,,,,,,,,,,Task,9,(3x7) - 20,1,,,,,,,,,,,,,,,,,,,1,,,,,,,,,,,,,,,,,,,,,,,"[""1""]",1,0,0,0,8,1,[1.7644999999999982],,,,,,,,,,,,,,,,,,
,,,,,,,,,,604d6dd610326bec3ab2d15e,20,Mężczyzna,2022-06-10_12h58.10.502,task,2021.1.4,Win32,75.26719855,628b806c463b948bc644b84f,62a323b40ba0e39638525511,,,,,,,,,,X V Q F H G B L J M P D K C T S W R N Z,,,,,,,,,,,,,,,,,,,,,,,,,,,,,,,,,,,,,,,,,,,,,,,,,,,,,,,,,,,,,,,,,,,,,,,,,,,,1,0,1,0,1,,,,,,,,,,,,,
,,,,,,,,,,604d6dd610326bec3ab2d15e,20,Mężczyzna,2022-06-10_12h58.10.502,task,2021.1.4,Win32,75.26719855,628b806c463b948bc644b84f,62a323b40ba0e39638525511,,,,,,,,,,,,,,,,,,,,,,,3,,,,,,,,,,Task,3,(2x3) - 3,3,,,,,,,,,,,,,,,,,,,1,,,,,,,,,,,,,,,,,,,,,,,"[""3""]",1,0,0,0,2,1,[3.014499999999998],,,,,,,,,,,,,,,,,,
,,,,,,,,,,604d6dd610326bec3ab2d15e,20,Mężczyzna,2022-06-10_12h58.10.502,task,2021.1.4,Win32,75.26719855,628b806c463b948bc644b84f,62a323b40ba0e39638525511,,,,,,,,,,X V Q F H G B L J M P D K C T S W R N Z,,,,,,,,,,,,,,,,,,,,,,,,,,,,,,,,,,,,,,,,,,,,,,,,,,,,,,,,,,,,,,,,,,,,,,,,,,,,2,0,2,0,1,,,,,,,,,,,,,
,,,,,,,,,,604d6dd610326bec3ab2d15e,20,Mężczyzna,2022-06-10_12h58.10.502,task,2021.1.4,Win32,75.26719855,628b806c463b948bc644b84f,62a323b40ba0e39638525511,,,,,,,,,,,,,,,,,,,,,,,2,,,,,,,,,,Task,19,(6/2) - 1,2,,,,,,,,,,,,,,,,,,,1,,,,,,,,,,,,,,,,,,,,,,,"[""2""]",1,0,0,0,18,1,[2.8952999999522717],,,,,,,,,,,,,,,,,,
,,,,,,,,,,604d6dd610326bec3ab2d15e,20,Mężczyzna,2022-06-10_12h58.10.502,task,2021.1.4,Win32,75.26719855,628b806c463b948bc644b84f,62a323b40ba0e39638525511,,,,,,,,,,X V Q F H G B L J M P D K C T S W R N Z,,,,,,,,,,,,,,,,,,,,,,,,,,,,,,,,,,,,,,,,,,,,,,,,,,,,,,,,,,,,,,,,,,,,,,,,,,,,3,0,3,0,1,,,,,,,,,,,,,
,,,,,,,,,,604d6dd610326bec3ab2d15e,20,Mężczyzna,2022-06-10_12h58.10.502,task,2021.1.4,Win32,75.26719855,628b806c463b948bc644b84f,62a323b40ba0e39638525511,,,,,,,,,,,,,,,,,,,,,,,3,,,,,,,,,,Task,35,(1x2) + 1,3,,,,,,,,,,,,,,,,,,,1,,,,,,,,,,,,,,,,,,,,,,,"[""3""]",1,0,0,0,34,1,[2.0537000000476837],,,,,,,,,,,,,,,,,,
,,,,,,,,,,604d6dd610326bec3ab2d15e,20,Mężczyzna,2022-06-10_12h58.10.502,task,2021.1.4,Win32,75.26719855,628b806c463b948bc644b84f,62a323b40ba0e39638525511,,,,,,,,,,X V Q F H G B L J M P D K C T S W R N Z,,,,,,,,,,,,,,,,,,,,,,,,,,,,,,,,,,,,,,,,,,,,,,,,,,,,,,,,,,,,,,,,,,,,,,,,,,,,4,0,4,0,1,,,,,,,,,,,,,
,,,,,,,,,,604d6dd610326bec3ab2d15e,20,Mężczyzna,2022-06-10_12h58.10.502,task,2021.1.4,Win32,75.26719855,628b806c463b948bc644b84f,62a323b40ba0e39638525511,,,,,,,,,,,,,,,,,,,,,,,,,,,,,,,,,,,,,,,,,,,,,,,,,,,,,,,,,,,,,,,,,,,,,,,,,,,,,,,,,,,,,,,,,,,lgpdd,"[""l"",""g"",""p"",""d"",""d""]",0,"[3.986499999999978,4.813300000190793,6.853700000047752,8.333300000190775,8.533500000000004,9.546500000000037]",1,LGPDD,3,0,3,0,1,,
,,,,,,,,,,604d6dd610326bec3ab2d15e,20,Mężczyzna,2022-06-10_12h58.10.502,task,2021.1.4,Win32,75.26719855,628b806c463b948bc644b84f,62a323b40ba0e39638525511,,,,,,,,,,,,,,,,,,,,,,,1,,,,,,,,,,Task,9,(3x7) - 20,1,,,,,,,,,,,,,,,,,,,1,,,,,,,,,,,,,,,,,,,,,,,"[""1""]",1,0,0,0,8,1,[1.6837999999523845],,,,,,,,,,,,,,,,,,
,,,,,,,,,,604d6dd610326bec3ab2d15e,20,Mężczyzna,2022-06-10_12h58.10.502,task,2021.1.4,Win32,75.26719855,628b806c463b948bc644b84f,62a323b40ba0e39638525511,,,,,,,,,,X V Q F H G B L J M P D K C T S W R N Z,,,,,,,,,,,,,,,,,,,,,,,,,,,,,,,,,,,,,,,,,,,,,,,,,,,,,,,,,,,,,,,,,,,,,,,,,,,,0,0,0,0,1,,,,,,,,,,,,,
,,,,,,,,,,604d6dd610326bec3ab2d15e,20,Mężczyzna,2022-06-10_12h58.10.502,task,2021.1.4,Win32,75.26719855,628b806c463b948bc644b84f,62a323b40ba0e39638525511,,,,,,,,,,,,,,,,,,,,,,,8,,,,,,,,,,Task,7,(3x7) - 12,9,,,,,,,,,,,,,,,,,,,0,,,,,,,,,,,,,,,,,,,,,,,"[""8""]",0,0,0,0,6,1,[6.071800000190706],,,,,,,,,,,,,,,,,,
,,,,,,,,,,604d6dd610326bec3ab2d15e,20,Mężczyzna,2022-06-10_12h58.10.502,task,2021.1.4,Win32,75.26719855,628b806c463b948bc644b84f,62a323b40ba0e39638525511,,,,,,,,,,,,,,,,,,,,,,,2,,,,,,,,,,Task,10,(2x5) - 8,2,,,,,,,,,,,,,,,,,,,1,,,,,,,,,,,,,,,,,,,,,,,"[""2""]",1,0,1,1,9,1,[3.1503999998569725],,,,,,,,,,,,,,,,,,
,,,,,,,,,,604d6dd610326bec3ab2d15e,20,Mężczyzna,2022-06-10_12h58.10.502,task,2021.1.4,Win32,75.26719855,628b806c463b948bc644b84f,62a323b40ba0e39638525511,,,,,,,,,,X V Q F H G B L J M P D K C T S W R N Z,,,,,,,,,,,,,,,,,,,,,,,,,,,,,,,,,,,,,,,,,,,,,,,,,,,,,,,,,,,,,,,,,,,,,,,,,,,,1,0,1,0,1,,,,,,,,,,,,,
,,,,,,,,,,604d6dd610326bec3ab2d15e,20,Mężczyzna,2022-06-10_12h58.10.502,task,2021.1.4,Win32,75.26719855,628b806c463b948bc644b84f,62a323b40ba0e39638525511,,,,,,,,,,,,,,,,,,,,,,,7,,,,,,,,,,Task,14,(2x2) + 3,7,,,,,,,,,,,,,,,,,,,1,,,,,,,,,,,,,,,,,,,,,,,"[""7""]",1,0,0,0,13,1,[2.3759999999999764],,,,,,,,,,,,,,,,,,
,,,,,,,,,,604d6dd610326bec3ab2d15e,20,Mężczyzna,2022-06-10_12h58.10.502,task,2021.1.4,Win32,75.26719855,628b806c463b948bc644b84f,62a323b40ba0e39638525511,,,,,,,,,,X V Q F H G B L J M P D K C T S W R N Z,,,,,,,,,,,,,,,,,,,,,,,,,,,,,,,,,,,,,,,,,,,,,,,,,,,,,,,,,,,,,,,,,,,,,,,,,,,,2,0,2,0,1,,,,,,,,,,,,,
,,,,,,,,,,604d6dd610326bec3ab2d15e,20,Mężczyzna,2022-06-10_12h58.10.502,task,2021.1.4,Win32,75.26719855,628b806c463b948bc644b84f,62a323b40ba0e39638525511,,,,,,,,,,,,,,,,,,,,,,,0,,,,,,,,,,Task,17,(2x3) - 6,0,,,,,,,,,,,,,,,,,,,1,,,,,,,,,,,,,,,,,,,,,,,"[""0""]",1,0,0,0,16,1,[3.0350999999046735],,,,,,,,,,,,,,,,,,
,,,,,,,,,,604d6dd610326bec3ab2d15e,20,Mężczyzna,2022-06-10_12h58.10.502,task,2021.1.4,Win32,75.26719855,628b806c463b948bc644b84f,62a323b40ba0e39638525511,,,,,,,,,,X V Q F H G B L J M P D K C T S W R N Z,,,,,,,,,,,,,,,,,,,,,,,,,,,,,,,,,,,,,,,,,,,,,,,,,,,,,,,,,,,,,,,,,,,,,,,,,,,,3,0,3,0,1,,,,,,,,,,,,,
,,,,,,,,,,604d6dd610326bec3ab2d15e,20,Mężczyzna,2022-06-10_12h58.10.502,task,2021.1.4,Win32,75.26719855,628b806c463b948bc644b84f,62a323b40ba0e39638525511,,,,,,,,,,,,,,,,,,,,,,,0,,,,,,,,,,Task,25,(10/5) - 2,0,,,,,,,,,,,,,,,,,,,1,,,,,,,,,,,,,,,,,,,,,,,"[""0""]",1,0,0,0,24,1,[2.9418999998570143],,,,,,,,,,,,,,,,,,
,,,,,,,,,,604d6dd610326bec3ab2d15e,20,Mężczyzna,2022-06-10_12h58.10.502,task,2021.1.4,Win32,75.26719855,628b806c463b948bc644b84f,62a323b40ba0e39638525511,,,,,,,,,,X V Q F H G B L J M P D K C T S W R N Z,,,,,,,,,,,,,,,,,,,,,,,,,,,,,,,,,,,,,,,,,,,,,,,,,,,,,,,,,,,,,,,,,,,,,,,,,,,,4,0,4,0,1,,,,,,,,,,,,,
,,,,,,,,,,604d6dd610326bec3ab2d15e,20,Mężczyzna,2022-06-10_12h58.10.502,task,2021.1.4,Win32,75.26719855,628b806c463b948bc644b84f,62a323b40ba0e39638525511,,,,,,,,,,,,,,,,,,,,,,,,,,,,,,,,,Task,11,(18/3) - 2,4,,,,,,,,,,,,,,,,,,,0,,,,,,,,,,,,,,,,,,,,,,,,0,0,0,0,10,1,,,,,,,,,,,,,,,,,,,
,,,,,,,,,,604d6dd610326bec3ab2d15e,20,Mężczyzna,2022-06-10_12h58.10.502,task,2021.1.4,Win32,75.26719855,628b806c463b948bc644b84f,62a323b40ba0e39638525511,,,,,,,,,,,,,,,,,,,,,,,,,,,,,,,,,Task,15,(3x7) - 13,8,,,,,,,,,,,,,,,,,,,0,,,,,,,,,,,,,,,,,,,,,,,,0,0,1,1,14,1,,,,,,,,,,,,,,,,,,,
,,,,,,,,,,604d6dd610326bec3ab2d15e,20,Mężczyzna,2022-06-10_12h58.10.502,task,2021.1.4,Win32,75.26719855,628b806c463b948bc644b84f,62a323b40ba0e39638525511,,,,,,,,,,,,,,,,,,,,,,,6,,,,,,,,,,Task,30,(6/3) + 4 ,6,,,,,,,,,,,,,,,,,,,1,,,,,,,,,,,,,,,,,,,,,,,"[""6""]",1,0,2,2,29,1,[3.968499999999949],,,,,,,,,,,,,,,,,,
,,,,,,,,,,604d6dd610326bec3ab2d15e,20,Mężczyzna,2022-06-10_12h58.10.502,task,2021.1.4,Win32,75.26719855,628b806c463b948bc644b84f,62a323b40ba0e39638525511,,,,,,,,,,X V Q F H G B L J M P D K C T S W R N Z,,,,,,,,,,,,,,,,,,,,,,,,,,,,,,,,,,,,,,,,,,,,,,,,,,,,,,,,,,,,,,,,,,,,,,,,,,,,5,0,5,0,1,,,,,,,,,,,,,
,,,,,,,,,,604d6dd610326bec3ab2d15e,20,Mężczyzna,2022-06-10_12h58.10.502,task,2021.1.4,Win32,75.26719855,628b806c463b948bc644b84f,62a323b40ba0e39638525511,,,,,,,,,,,,,,,,,,,,,,,,,,,,,,,,,,,,,,,,,,,,,,,,,,,,,,,,,,,,,,,,,,,,,,,,,,,,,,,,,,,,,,,,,,,hdcgvv,"[""h"",""d"",""c"",""g"",""v"",""v""]",0,"[3.4544000000953474,3.5904000000954284,4.800100000143061,5.208500000000072,7.140700000047673,7.390799999952378,9.347200000047678]",1,HDCGVV,4,0,4,0,1,,
,,,,,,,,,,604d6dd610326bec3ab2d15e,20,Mężczyzna,2022-06-10_12h58.10.502,task,2021.1.4,Win32,75.26719855,628b806c463b948bc644b84f,62a323b40ba0e39638525511,,,,,,,,,,,,,,,,,,,,,,,6,,,,,,,,,,Task,13,(3x4) - 6,6,,,,,,,,,,,,,,,,,,,1,,,,,,,,,,,,,,,,,,,,,,,"[""6""]",1,0,0,0,12,1,[3.9815999999045744],,,,,,,,,,,,,,,,,,
,,,,,,,,,,604d6dd610326bec3ab2d15e,20,Mężczyzna,2022-06-10_12h58.10.502,task,2021.1.4,Win32,75.26719855,628b806c463b948bc644b84f,62a323b40ba0e39638525511,,,,,,,,,,X V Q F H G B L J M P D K C T S W R N Z,,,,,,,,,,,,,,,,,,,,,,,,,,,,,,,,,,,,,,,,,,,,,,,,,,,,,,,,,,,,,,,,,,,,,,,,,,,,0,0,0,0,1,,,,,,,,,,,,,
,,,,,,,,,,604d6dd610326bec3ab2d15e,20,Mężczyzna,2022-06-10_12h58.10.502,task,2021.1.4,Win32,75.26719855,628b806c463b948bc644b84f,62a323b40ba0e39638525511,,,,,,,,,,,,,,,,,,,,,,,1,,,,,,,,,,Task,1,(12/6) - 1,1,,,,,,,,,,,,,,,,,,,1,,,,,,,,,,,,,,,,,,,,,,,"[""1""]",1,0,0,0,0,1,[3.925999999999931],,,,,,,,,,,,,,,,,,
,,,,,,,,,,604d6dd610326bec3ab2d15e,20,Mężczyzna,2022-06-10_12h58.10.502,task,2021.1.4,Win32,75.26719855,628b806c463b948bc644b84f,62a323b40ba0e39638525511,,,,,,,,,,X V Q F H G B L J M P D K C T S W R N Z,,,,,,,,,,,,,,,,,,,,,,,,,,,,,,,,,,,,,,,,,,,,,,,,,,,,,,,,,,,,,,,,,,,,,,,,,,,,1,0,1,0,1,,,,,,,,,,,,,
,,,,,,,,,,604d6dd610326bec3ab2d15e,20,Mężczyzna,2022-06-10_12h58.10.502,task,2021.1.4,Win32,75.26719855,628b806c463b948bc644b84f,62a323b40ba0e39638525511,,,,,,,,,,,,,,,,,,,,,,,1,,,,,,,,,,Task,9,(3x7) - 20,1,,,,,,,,,,,,,,,,,,,1,,,,,,,,,,,,,,,,,,,,,,,"[""1""]",1,0,0,0,8,1,[2.6280999999046344],,,,,,,,,,,,,,,,,,
,,,,,,,,,,604d6dd610326bec3ab2d15e,20,Mężczyzna,2022-06-10_12h58.10.502,task,2021.1.4,Win32,75.26719855,628b806c463b948bc644b84f,62a323b40ba0e39638525511,,,,,,,,,,X V Q F H G B L J M P D K C T S W R N Z,,,,,,,,,,,,,,,,,,,,,,,,,,,,,,,,,,,,,,,,,,,,,,,,,,,,,,,,,,,,,,,,,,,,,,,,,,,,2,0,2,0,1,,,,,,,,,,,,,
,,,,,,,,,,604d6dd610326bec3ab2d15e,20,Mężczyzna,2022-06-10_12h58.10.502,task,2021.1.4,Win32,75.26719855,628b806c463b948bc644b84f,62a323b40ba0e39638525511,,,,,,,,,,,,,,,,,,,,,,,1,,,,,,,,,,Task,34,(9/3) - 2,1,,,,,,,,,,,,,,,,,,,1,,,,,,,,,,,,,,,,,,,,,,,"[""1""]",1,0,0,0,33,1,[4.254799999952297],,,,,,,,,,,,,,,,,,
,,,,,,,,,,604d6dd610326bec3ab2d15e,20,Mężczyzna,2022-06-10_12h58.10.502,task,2021.1.4,Win32,75.26719855,628b806c463b948bc644b84f,62a323b40ba0e39638525511,,,,,,,,,,X V Q F H G B L J M P D K C T S W R N Z,,,,,,,,,,,,,,,,,,,,,,,,,,,,,,,,,,,,,,,,,,,,,,,,,,,,,,,,,,,,,,,,,,,,,,,,,,,,3,0,3,0,1,,,,,,,,,,,,,
,,,,,,,,,,604d6dd610326bec3ab2d15e,20,Mężczyzna,2022-06-10_12h58.10.502,task,2021.1.4,Win32,75.26719855,628b806c463b948bc644b84f,62a323b40ba0e39638525511,,,,,,,,,,,,,,,,,,,,,,,6,,,,,,,,,,Task,5,(2x3) + 0,6,,,,,,,,,,,,,,,,,,,1,,,,,,,,,,,,,,,,,,,,,,,"[""6""]",1,0,0,0,4,1,[2.934900000095354],,,,,,,,,,,,,,,,,,
,,,,,,,,,,604d6dd610326bec3ab2d15e,20,Mężczyzna,2022-06-10_12h58.10.502,task,2021.1.4,Win32,75.26719855,628b806c463b948bc644b84f,62a323b40ba0e39638525511,,,,,,,,,,X V Q F H G B L J M P D K C T S W R N Z,,,,,,,,,,,,,,,,,,,,,,,,,,,,,,,,,,,,,,,,,,,,,,,,,,,,,,,,,,,,,,,,,,,,,,,,,,,,4,0,4,0,1,,,,,,,,,,,,,
,,,,,,,,,,604d6dd610326bec3ab2d15e,20,Mężczyzna,2022-06-10_12h58.10.502,task,2021.1.4,Win32,75.26719855,628b806c463b948bc644b84f,62a323b40ba0e39638525511,,,,,,,,,,,,,,,,,,,,,,,6,,,,,,,,,,Task,5,(2x3) + 0,6,,,,,,,,,,,,,,,,,,,1,,,,,,,,,,,,,,,,,,,,,,,"[""6""]",1,0,0,0,4,1,[2.137299999952347],,,,,,,,,,,,,,,,,,
,,,,,,,,,,604d6dd610326bec3ab2d15e,20,Mężczyzna,2022-06-10_12h58.10.502,task,2021.1.4,Win32,75.26719855,628b806c463b948bc644b84f,62a323b40ba0e39638525511,,,,,,,,,,X V Q F H G B L J M P D K C T S W R N Z,,,,,,,,,,,,,,,,,,,,,,,,,,,,,,,,,,,,,,,,,,,,,,,,,,,,,,,,,,,,,,,,,,,,,,,,,,,,5,0,5,0,1,,,,,,,,,,,,,
,,,,,,,,,,604d6dd610326bec3ab2d15e,20,Mężczyzna,2022-06-10_12h58.10.502,task,2021.1.4,Win32,75.26719855,628b806c463b948bc644b84f,62a323b40ba0e39638525511,,,,,,,,,,,,,,,,,,,,,,,8,,,,,,,,,,Task,39,(5x3) - 7,8,,,,,,,,,,,,,,,,,,,1,,,,,,,,,,,,,,,,,,,,,,,"[""8""]",1,0,0,0,38,1,[4.534999999999968],,,,,,,,,,,,,,,,,,
,,,,,,,,,,604d6dd610326bec3ab2d15e,20,Mężczyzna,2022-06-10_12h58.10.502,task,2021.1.4,Win32,75.26719855,628b806c463b948bc644b84f,62a323b40ba0e39638525511,,,,,,,,,,X V Q F H G B L J M P D K C T S W R N Z,,,,,,,,,,,,,,,,,,,,,,,,,,,,,,,,,,,,,,,,,,,,,,,,,,,,,,,,,,,,,,,,,,,,,,,,,,,,6,0,6,0,1,,,,,,,,,,,,,
,,,,,,,,,,604d6dd610326bec3ab2d15e,20,Mężczyzna,2022-06-10_12h58.10.502,task,2021.1.4,Win32,75.26719855,628b806c463b948bc644b84f,62a323b40ba0e39638525511,,,,,,,,,,,,,,,,,,,,,,,,,,,,,,,,,,,,,,,,,,,,,,,,,,,,,,,,,,,,,,,,,,,,,,,,,,,,,,,,,,,,,,,,,,,lwxfgtz,"[""l"",""w"",""x"",""f"",""g"",""t"",""z""]",0,"[3.2697999999522835,3.6398999998568797,5.403799999952298,5.906599999904643,14.763700000047606,15.053099999904589,16.372499999999945,17.39949999999999]",1,LWXFGTZ,5,0,5,0,1,,
,,,,,,,,,,604d6dd610326bec3ab2d15e,20,Mężczyzna,2022-06-10_12h58.10.502,task,2021.1.4,Win32,75.26719855,628b806c463b948bc644b84f,62a323b40ba0e39638525511,,,,,,,,,,,,,,,,,,,,,,,1,,,,,,,,,,Task,34,(9/3) - 2,1,,,,,,,,,,,,,,,,,,,1,,,,,,,,,,,,,,,,,,,,,,,"[""1""]",1,0,0,0,33,1,[3.5202999999522717],,,,,,,,,,,,,,,,,,
,,,,,,,,,,604d6dd610326bec3ab2d15e,20,Mężczyzna,2022-06-10_12h58.10.502,task,2021.1.4,Win32,75.26719855,628b806c463b948bc644b84f,62a323b40ba0e39638525511,,,,,,,,,,X V Q F H G B L J M P D K C T S W R N Z,,,,,,,,,,,,,,,,,,,,,,,,,,,,,,,,,,,,,,,,,,,,,,,,,,,,,,,,,,,,,,,,,,,,,,,,,,,,0,0,0,0,1,,,,,,,,,,,,,
,,,,,,,,,,604d6dd610326bec3ab2d15e,20,Mężczyzna,2022-06-10_12h58.10.502,task,2021.1.4,Win32,75.26719855,628b806c463b948bc644b84f,62a323b40ba0e39638525511,,,,,,,,,,,,,,,,,,,,,,,8,,,,,,,,,,Task,23,(2x3) + 2,8,,,,,,,,,,,,,,,,,,,1,,,,,,,,,,,,,,,,,,,,,,,"[""8""]",1,0,0,0,22,1,[4.573400000095376],,,,,,,,,,,,,,,,,,
,,,,,,,,,,604d6dd610326bec3ab2d15e,20,Mężczyzna,2022-06-10_12h58.10.502,task,2021.1.4,Win32,75.26719855,628b806c463b948bc644b84f,62a323b40ba0e39638525511,,,,,,,,,,X V Q F H G B L J M P D K C T S W R N Z,,,,,,,,,,,,,,,,,,,,,,,,,,,,,,,,,,,,,,,,,,,,,,,,,,,,,,,,,,,,,,,,,,,,,,,,,,,,1,0,1,0,1,,,,,,,,,,,,,
,,,,,,,,,,604d6dd610326bec3ab2d15e,20,Mężczyzna,2022-06-10_12h58.10.502,task,2021.1.4,Win32,75.26719855,628b806c463b948bc644b84f,62a323b40ba0e39638525511,,,,,,,,,,,,,,,,,,,,,,,2,,,,,,,,,,Task,26,(2x9) - 16,2,,,,,,,,,,,,,,,,,,,1,,,,,,,,,,,,,,,,,,,,,,,"[""2""]",1,0,0,0,25,1,[2.680399999856945],,,,,,,,,,,,,,,,,,
,,,,,,,,,,604d6dd610326bec3ab2d15e,20,Mężczyzna,2022-06-10_12h58.10.502,task,2021.1.4,Win32,75.26719855,628b806c463b948bc644b84f,62a323b40ba0e39638525511,,,,,,,,,,X V Q F H G B L J M P D K C T S W R N Z,,,,,,,,,,,,,,,,,,,,,,,,,,,,,,,,,,,,,,,,,,,,,,,,,,,,,,,,,,,,,,,,,,,,,,,,,,,,2,0,2,0,1,,,,,,,,,,,,,
,,,,,,,,,,604d6dd610326bec3ab2d15e,20,Mężczyzna,2022-06-10_12h58.10.502,task,2021.1.4,Win32,75.26719855,628b806c463b948bc644b84f,62a323b40ba0e39638525511,,,,,,,,,,,,,,,,,,,,,,,0,,,,,,,,,,Task,8,(1x5) - 5,0,,,,,,,,,,,,,,,,,,,1,,,,,,,,,,,,,,,,,,,,,,,"[""0""]",1,0,0,0,7,1,[2.346699999809175],,,,,,,,,,,,,,,,,,
,,,,,,,,,,604d6dd610326bec3ab2d15e,20,Mężczyzna,2022-06-10_12h58.10.502,task,2021.1.4,Win32,75.26719855,628b806c463b948bc644b84f,62a323b40ba0e39638525511,,,,,,,,,,X V Q F H G B L J M P D K C T S W R N Z,,,,,,,,,,,,,,,,,,,,,,,,,,,,,,,,,,,,,,,,,,,,,,,,,,,,,,,,,,,,,,,,,,,,,,,,,,,,3,0,3,0,1,,,,,,,,,,,,,
,,,,,,,,,,604d6dd610326bec3ab2d15e,20,Mężczyzna,2022-06-10_12h58.10.502,task,2021.1.4,Win32,75.26719855,628b806c463b948bc644b84f,62a323b40ba0e39638525511,,,,,,,,,,,,,,,,,,,,,,,9,,,,,,,,,,Task,40,(7x2) - 5,9,,,,,,,,,,,,,,,,,,,1,,,,,,,,,,,,,,,,,,,,,,,"[""9""]",1,0,0,0,39,1,[3.2701000001430884],,,,,,,,,,,,,,,,,,
,,,,,,,,,,604d6dd610326bec3ab2d15e,20,Mężczyzna,2022-06-10_12h58.10.502,task,2021.1.4,Win32,75.26719855,628b806c463b948bc644b84f,62a323b40ba0e39638525511,,,,,,,,,,X V Q F H G B L J M P D K C T S W R N Z,,,,,,,,,,,,,,,,,,,,,,,,,,,,,,,,,,,,,,,,,,,,,,,,,,,,,,,,,,,,,,,,,,,,,,,,,,,,4,0,4,0,1,,,,,,,,,,,,,
,,,,,,,,,,604d6dd610326bec3ab2d15e,20,Mężczyzna,2022-06-10_12h58.10.502,task,2021.1.4,Win32,75.26719855,628b806c463b948bc644b84f,62a323b40ba0e39638525511,,,,,,,,,,,,,,,,,,,,,,,5,,,,,,,,,,Task,12,(4x4) - 11,5,,,,,,,,,,,,,,,,,,,1,,,,,,,,,,,,,,,,,,,,,,,"[""5""]",1,0,0,0,11,1,[3.3600999999046053],,,,,,,,,,,,,,,,,,
,,,,,,,,,,604d6dd610326bec3ab2d15e,20,Mężczyzna,2022-06-10_12h58.10.502,task,2021.1.4,Win32,75.26719855,628b806c463b948bc644b84f,62a323b40ba0e39638525511,,,,,,,,,,X V Q F H G B L J M P D K C T S W R N Z,,,,,,,,,,,,,,,,,,,,,,,,,,,,,,,,,,,,,,,,,,,,,,,,,,,,,,,,,,,,,,,,,,,,,,,,,,,,5,0,5,0,1,,,,,,,,,,,,,
,,,,,,,,,,604d6dd610326bec3ab2d15e,20,Mężczyzna,2022-06-10_12h58.10.502,task,2021.1.4,Win32,75.26719855,628b806c463b948bc644b84f,62a323b40ba0e39638525511,,,,,,,,,,,,,,,,,,,,,,,7,,,,,,,,,,Task,16,(3x8) - 15,9,,,,,,,,,,,,,,,,,,,0,,,,,,,,,,,,,,,,,,,,,,,"[""7""]",0,0,0,0,15,1,[6.0965999999045835],,,,,,,,,,,,,,,,,,
,,,,,,,,,,604d6dd610326bec3ab2d15e,20,Mężczyzna,2022-06-10_12h58.10.502,task,2021.1.4,Win32,75.26719855,628b806c463b948bc644b84f,62a323b40ba0e39638525511,,,,,,,,,,,,,,,,,,,,,,,4,,,,,,,,,,Task,28,(2x5) - 6,4,,,,,,,,,,,,,,,,,,,1,,,,,,,,,,,,,,,,,,,,,,,"[""4""]",1,0,1,1,27,1,[2.6231999998092306],,,,,,,,,,,,,,,,,,
,,,,,,,,,,604d6dd610326bec3ab2d15e,20,Mężczyzna,2022-06-10_12h58.10.502,task,2021.1.4,Win32,75.26719855,628b806c463b948bc644b84f,62a323b40ba0e39638525511,,,,,,,,,,X V Q F H G B L J M P D K C T S W R N Z,,,,,,,,,,,,,,,,,,,,,,,,,,,,,,,,,,,,,,,,,,,,,,,,,,,,,,,,,,,,,,,,,,,,,,,,,,,,6,0,6,0,1,,,,,,,,,,,,,
,,,,,,,,,,604d6dd610326bec3ab2d15e,20,Mężczyzna,2022-06-10_12h58.10.502,task,2021.1.4,Win32,75.26719855,628b806c463b948bc644b84f,62a323b40ba0e39638525511,,,,,,,,,,,,,,,,,,,,,,,3,,,,,,,,,,Task,3,(2x3) - 3,3,,,,,,,,,,,,,,,,,,,1,,,,,,,,,,,,,,,,,,,,,,,"[""3""]",1,0,0,0,2,1,[4.859799999952202],,,,,,,,,,,,,,,,,,
,,,,,,,,,,604d6dd610326bec3ab2d15e,20,Mężczyzna,2022-06-10_12h58.10.502,task,2021.1.4,Win32,75.26719855,628b806c463b948bc644b84f,62a323b40ba0e39638525511,,,,,,,,,,X V Q F H G B L J M P D K C T S W R N Z,,,,,,,,,,,,,,,,,,,,,,,,,,,,,,,,,,,,,,,,,,,,,,,,,,,,,,,,,,,,,,,,,,,,,,,,,,,,7,0,7,0,1,,,,,,,,,,,,,
,,,,,,,,,,604d6dd610326bec3ab2d15e,20,Mężczyzna,2022-06-10_12h58.10.502,task,2021.1.4,Win32,75.26719855,628b806c463b948bc644b84f,62a323b40ba0e39638525511,,,,,,,,,,,,,,,,,,,,,,,,,,,,,,,,,,,,,,,,,,,,,,,,,,,,,,,,,,,,,,,,,,,,,,,,,,,,,,,,,,,,,,,,,,,pgdslwc,"[""p"",""g"",""d"",""s"",""l"",""w"",""c""]",0,"[1.7945999999046762,3.108500000000049,3.511399999857076,3.9333999998571016,4.603500000000167,5.925599999904762,8.353799999952344,10.826500000000124]",0,PGDSLWGC,6,0,6,0,1,,
,,,,,,,,,,604d6dd610326bec3ab2d15e,20,Mężczyzna,2022-06-10_12h58.10.502,task,2021.1.4,Win32,75.26719855,628b806c463b948bc644b84f,62a323b40ba0e39638525511,,,,,,,,,,,,,,,,,,,,,,,6,,,,,,,,,,Task,15,(3x7) - 13,8,,,,,,,,,,,,,,,,,,,0,,,,,,,,,,,,,,,,,,,,,,,"[""6""]",0,0,0,0,14,1,[6.199700000047642],,,,,,,,,,,,,,,,,,
,,,,,,,,,,604d6dd610326bec3ab2d15e,20,Mężczyzna,2022-06-10_12h58.10.502,task,2021.1.4,Win32,75.26719855,628b806c463b948bc644b84f,62a323b40ba0e39638525511,,,,,,,,,,,,,,,,,,,,,,,,,,,,,,,,,Task,1,(12/6) - 1,1,,,,,,,,,,,,,,,,,,,0,,,,,,,,,,,,,,,,,,,,,,,,0,0,1,1,0,1,,,,,,,,,,,,,,,,,,,
,,,,,,,,,,604d6dd610326bec3ab2d15e,20,Mężczyzna,2022-06-10_12h58.10.502,task,2021.1.4,Win32,75.26719855,628b806c463b948bc644b84f,62a323b40ba0e39638525511,,,,,,,,,,,,,,,,,,,,,,,3,,,,,,,,,,Task,20,(18/9) + 1,3,,,,,,,,,,,,,,,,,,,1,,,,,,,,,,,,,,,,,,,,,,,"[""3""]",1,0,2,2,19,1,[2.5247999999523927],,,,,,,,,,,,,,,,,,
,,,,,,,,,,604d6dd610326bec3ab2d15e,20,Mężczyzna,2022-06-10_12h58.10.502,task,2021.1.4,Win32,75.26719855,628b806c463b948bc644b84f,62a323b40ba0e39638525511,,,,,,,,,,X V Q F H G B L J M P D K C T S W R N Z,,,,,,,,,,,,,,,,,,,,,,,,,,,,,,,,,,,,,,,,,,,,,,,,,,,,,,,,,,,,,,,,,,,,,,,,,,,,0,0,0,0,1,,,,,,,,,,,,,
,,,,,,,,,,604d6dd610326bec3ab2d15e,20,Mężczyzna,2022-06-10_12h58.10.502,task,2021.1.4,Win32,75.26719855,628b806c463b948bc644b84f,62a323b40ba0e39638525511,,,,,,,,,,,,,,,,,,,,,,,7,,,,,,,,,,Task,6,(12/2) + 1,7,,,,,,,,,,,,,,,,,,,1,,,,,,,,,,,,,,,,,,,,,,,"[""7""]",1,0,0,0,5,1,[2.4937999999524436],,,,,,,,,,,,,,,,,,
,,,,,,,,,,604d6dd610326bec3ab2d15e,20,Mężczyzna,2022-06-10_12h58.10.502,task,2021.1.4,Win32,75.26719855,628b806c463b948bc644b84f,62a323b40ba0e39638525511,,,,,,,,,,X V Q F H G B L J M P D K C T S W R N Z,,,,,,,,,,,,,,,,,,,,,,,,,,,,,,,,,,,,,,,,,,,,,,,,,,,,,,,,,,,,,,,,,,,,,,,,,,,,1,0,1,0,1,,,,,,,,,,,,,
,,,,,,,,,,604d6dd610326bec3ab2d15e,20,Mężczyzna,2022-06-10_12h58.10.502,task,2021.1.4,Win32,75.26719855,628b806c463b948bc644b84f,62a323b40ba0e39638525511,,,,,,,,,,,,,,,,,,,,,,,3,,,,,,,,,,Task,20,(18/9) + 1,3,,,,,,,,,,,,,,,,,,,1,,,,,,,,,,,,,,,,,,,,,,,"[""3""]",1,0,0,0,19,1,[3.1035999999046453],,,,,,,,,,,,,,,,,,
,,,,,,,,,,604d6dd610326bec3ab2d15e,20,Mężczyzna,2022-06-10_12h58.10.502,task,2021.1.4,Win32,75.26719855,628b806c463b948bc644b84f,62a323b40ba0e39638525511,,,,,,,,,,X V Q F H G B L J M P D K C T S W R N Z,,,,,,,,,,,,,,,,,,,,,,,,,,,,,,,,,,,,,,,,,,,,,,,,,,,,,,,,,,,,,,,,,,,,,,,,,,,,2,0,2,0,1,,,,,,,,,,,,,
,,,,,,,,,,604d6dd610326bec3ab2d15e,20,Mężczyzna,2022-06-10_12h58.10.502,task,2021.1.4,Win32,75.26719855,628b806c463b948bc644b84f,62a323b40ba0e39638525511,,,,,,,,,,,,,,,,,,,,,,,1,,,,,,,,,,Task,34,(9/3) - 2,1,,,,,,,,,,,,,,,,,,,1,,,,,,,,,,,,,,,,,,,,,,,"[""1""]",1,0,0,0,33,1,[3.3415999999044743],,,,,,,,,,,,,,,,,,
,,,,,,,,,,604d6dd610326bec3ab2d15e,20,Mężczyzna,2022-06-10_12h58.10.502,task,2021.1.4,Win32,75.26719855,628b806c463b948bc644b84f,62a323b40ba0e39638525511,,,,,,,,,,X V Q F H G B L J M P D K C T S W R N Z,,,,,,,,,,,,,,,,,,,,,,,,,,,,,,,,,,,,,,,,,,,,,,,,,,,,,,,,,,,,,,,,,,,,,,,,,,,,3,0,3,0,1,,,,,,,,,,,,,
,,,,,,,,,,604d6dd610326bec3ab2d15e,20,Mężczyzna,2022-06-10_12h58.10.502,task,2021.1.4,Win32,75.26719855,628b806c463b948bc644b84f,62a323b40ba0e39638525511,,,,,,,,,,,,,,,,,,,,,,,2,,,,,,,,,,Task,2,(2x2) - 2,2,,,,,,,,,,,,,,,,,,,1,,,,,,,,,,,,,,,,,,,,,,,"[""2""]",1,0,0,0,1,1,[3.1737999999525073],,,,,,,,,,,,,,,,,,
,,,,,,,,,,604d6dd610326bec3ab2d15e,20,Mężczyzna,2022-06-10_12h58.10.502,task,2021.1.4,Win32,75.26719855,628b806c463b948bc644b84f,62a323b40ba0e39638525511,,,,,,,,,,X V Q F H G B L J M P D K C T S W R N Z,,,,,,,,,,,,,,,,,,,,,,,,,,,,,,,,,,,,,,,,,,,,,,,,,,,,,,,,,,,,,,,,,,,,,,,,,,,,4,0,4,0,1,,,,,,,,,,,,,
,,,,,,,,,,604d6dd610326bec3ab2d15e,20,Mężczyzna,2022-06-10_12h58.10.502,task,2021.1.4,Win32,75.26719855,628b806c463b948bc644b84f,62a323b40ba0e39638525511,,,,,,,,,,,,,,,,,,,,,,,3,,,,,,,,,,Task,20,(18/9) + 1,3,,,,,,,,,,,,,,,,,,,1,,,,,,,,,,,,,,,,,,,,,,,"[""3""]",1,0,0,0,19,1,[4.680599999904416],,,,,,,,,,,,,,,,,,
,,,,,,,,,,604d6dd610326bec3ab2d15e,20,Mężczyzna,2022-06-10_12h58.10.502,task,2021.1.4,Win32,75.26719855,628b806c463b948bc644b84f,62a323b40ba0e39638525511,,,,,,,,,,X V Q F H G B L J M P D K C T S W R N Z,,,,,,,,,,,,,,,,,,,,,,,,,,,,,,,,,,,,,,,,,,,,,,,,,,,,,,,,,,,,,,,,,,,,,,,,,,,,5,0,5,0,1,,,,,,,,,,,,,
