key_resp_15.keys,key_resp_15.rt,key_resp_16.keys,key_resp_16.rt,key_resp_4.keys,key_resp_4.rt,next_letter.thisRepN,next_letter.thisTrialN,next_letter.thisN,next_letter.thisIndex,next_letter.ran,letter,participant,Wiek*,Płeć,date,expName,psychopyVersion,OS,frameRate,study_id,session,simple_recall,key_resp_5.keys,key_resp_5.rt,simple_recall_corr,simple_recall_corrkeys,next_level.thisRepN,next_level.thisTrialN,next_level.thisN,next_level.thisIndex,next_level.ran,key_resp_2.keys,key_resp_2.rt,digit_answer,key_resp.keys,key_resp.corr,key_resp.rt,RT_list,next_equation.thisRepN,next_equation.thisTrialN,next_equation.thisN,next_equation.thisIndex,next_equation.ran,Task,Trial,Problem,Operation_answer,processing_score,sumRT,meanRT,sumdiff,sd,RT,key_resp_3.keys,key_resp_3.rt,repeat_practice.thisRepN,repeat_practice.thisTrialN,repeat_practice.thisN,repeat_practice.thisIndex,repeat_practice.ran,key_resp_6.keys,key_resp_6.rt,key_resp_11.keys,key_resp_11.corr,key_resp_11.rt,operation_correct,repeat_if_wrong_prac.thisRepN,repeat_if_wrong_prac.thisTrialN,repeat_if_wrong_prac.thisN,repeat_if_wrong_prac.thisIndex,repeat_if_wrong_prac.ran,span_size_prac.thisRepN,span_size_prac.thisTrialN,span_size_prac.thisN,span_size_prac.thisIndex,span_size_prac.ran,complex_recall_practice,key_resp_9.keys,key_resp_9.corr,key_resp_9.rt,complex_prac_corr,span_recall_prac.thisRepN,span_recall_prac.thisTrialN,span_recall_prac.thisN,span_recall_prac.thisIndex,span_recall_prac.ran,key_resp_10.keys,key_resp_10.rt,key_resp_7.keys,key_resp_7.corr,key_resp_7.rt,repeat_if_wrong.thisRepN,repeat_if_wrong.thisTrialN,repeat_if_wrong.thisN,repeat_if_wrong.thisIndex,repeat_if_wrong.ran,span_size.thisRepN,span_size.thisTrialN,span_size.thisN,span_size.thisIndex,span_size.ran,complex_recall,key_resp_8.keys,key_resp_8.corr,key_resp_8.rt,complex_recall_corr,complex_recall_corrkeys,span_recall.thisRepN,span_recall.thisTrialN,span_recall.thisN,span_recall.thisIndex,span_recall.ran,key_resp_13.keys,key_resp_13.corr,key_resp_13.rt,random_loop.thisRepN,random_loop.thisTrialN,random_loop.thisN,random_loop.thisIndex,random_loop.ran,key_resp_12.keys,key_resp_12.rt
space,11.5701,space,11.6828,space,5.9,0,0,0,0,1,X V Q F H G B L J M P D K C T S W R N Z,6050edc9b0fa3d391dae2ffe,20,Mężczyzna,2022-06-11_09h36.45.007,task,2021.1.4,Win32,60.04202942,6299f149e92ead563fba08ef,62a445e90dd4b8aff0838d9e,,,,,,,,,,,,,,,,,,,,,,,,,,,,,,,,,,,,,,,,,,,,,,,,,,,,,,,,,,,,,,,,,,,,,,,,,,,,,,,,,,,,,,,,,,,,,,,,,,,,,
,,,,,,1,0,1,0,1,X V Q F H G B L J M P D K C T S W R N Z,6050edc9b0fa3d391dae2ffe,20,Mężczyzna,2022-06-11_09h36.45.007,task,2021.1.4,Win32,60.04202942,6299f149e92ead563fba08ef,62a445e90dd4b8aff0838d9e,,,,,,,,,,,,,,,,,,,,,,,,,,,,,,,,,,,,,,,,,,,,,,,,,,,,,,,,,,,,,,,,,,,,,,,,,,,,,,,,,,,,,,,,,,,,,,,,,,,,,
,,,,,,,,,,,,6050edc9b0fa3d391dae2ffe,20,Mężczyzna,2022-06-11_09h36.45.007,task,2021.1.4,Win32,60.04202942,6299f149e92ead563fba08ef,62a445e90dd4b8aff0838d9e,zw,"[""z"",""w""]","[2.5953999999910593,2.976799999997013,4.3173999999910535]",1,ZW,0,0,0,0,1,,,,,,,,,,,,,,,,,,,,,,,,,,,,,,,,,,,,,,,,,,,,,,,,,,,,,,,,,,,,,,,,,,,,,,,,,,,,,,,,,,,,,,,,,,,
,,,,,,0,0,0,0,1,X V Q F H G B L J M P D K C T S W R N Z,6050edc9b0fa3d391dae2ffe,20,Mężczyzna,2022-06-11_09h36.45.007,task,2021.1.4,Win32,60.04202942,6299f149e92ead563fba08ef,62a445e90dd4b8aff0838d9e,,,,,,,,,,,,,,,,,,,,,,,,,,,,,,,,,,,,,,,,,,,,,,,,,,,,,,,,,,,,,,,,,,,,,,,,,,,,,,,,,,,,,,,,,,,,,,,,,,,,,
,,,,,,1,0,1,0,1,X V Q F H G B L J M P D K C T S W R N Z,6050edc9b0fa3d391dae2ffe,20,Mężczyzna,2022-06-11_09h36.45.007,task,2021.1.4,Win32,60.04202942,6299f149e92ead563fba08ef,62a445e90dd4b8aff0838d9e,,,,,,,,,,,,,,,,,,,,,,,,,,,,,,,,,,,,,,,,,,,,,,,,,,,,,,,,,,,,,,,,,,,,,,,,,,,,,,,,,,,,,,,,,,,,,,,,,,,,,
,,,,,,,,,,,,6050edc9b0fa3d391dae2ffe,20,Mężczyzna,2022-06-11_09h36.45.007,task,2021.1.4,Win32,60.04202942,6299f149e92ead563fba08ef,62a445e90dd4b8aff0838d9e,fg,"[""f"",""g""]","[1.435300000011921,1.535499999999999,2.292500000000004]",1,FG,1,0,1,0,1,,,,,,,,,,,,,,,,,,,,,,,,,,,,,,,,,,,,,,,,,,,,,,,,,,,,,,,,,,,,,,,,,,,,,,,,,,,,,,,,,,,,,,,,,,,
,,,,,,0,0,0,0,1,X V Q F H G B L J M P D K C T S W R N Z,6050edc9b0fa3d391dae2ffe,20,Mężczyzna,2022-06-11_09h36.45.007,task,2021.1.4,Win32,60.04202942,6299f149e92ead563fba08ef,62a445e90dd4b8aff0838d9e,,,,,,,,,,,,,,,,,,,,,,,,,,,,,,,,,,,,,,,,,,,,,,,,,,,,,,,,,,,,,,,,,,,,,,,,,,,,,,,,,,,,,,,,,,,,,,,,,,,,,
,,,,,,1,0,1,0,1,X V Q F H G B L J M P D K C T S W R N Z,6050edc9b0fa3d391dae2ffe,20,Mężczyzna,2022-06-11_09h36.45.007,task,2021.1.4,Win32,60.04202942,6299f149e92ead563fba08ef,62a445e90dd4b8aff0838d9e,,,,,,,,,,,,,,,,,,,,,,,,,,,,,,,,,,,,,,,,,,,,,,,,,,,,,,,,,,,,,,,,,,,,,,,,,,,,,,,,,,,,,,,,,,,,,,,,,,,,,
,,,,,,2,0,2,0,1,X V Q F H G B L J M P D K C T S W R N Z,6050edc9b0fa3d391dae2ffe,20,Mężczyzna,2022-06-11_09h36.45.007,task,2021.1.4,Win32,60.04202942,6299f149e92ead563fba08ef,62a445e90dd4b8aff0838d9e,,,,,,,,,,,,,,,,,,,,,,,,,,,,,,,,,,,,,,,,,,,,,,,,,,,,,,,,,,,,,,,,,,,,,,,,,,,,,,,,,,,,,,,,,,,,,,,,,,,,,
,,,,,,,,,,,,6050edc9b0fa3d391dae2ffe,20,Mężczyzna,2022-06-11_09h36.45.007,task,2021.1.4,Win32,60.04202942,6299f149e92ead563fba08ef,62a445e90dd4b8aff0838d9e,ksd,"[""k"",""s"",""d""]","[1.189900000005963,1.318599999994042,1.4217000000029785,1.7334000000059575]",1,KSD,2,0,2,0,1,,,,,,,,,,,,,,,,,,,,,,,,,,,,,,,,,,,,,,,,,,,,,,,,,,,,,,,,,,,,,,,,,,,,,,,,,,,,,,,,,,,,,,,,,,,
,,,,,,0,0,0,0,1,X V Q F H G B L J M P D K C T S W R N Z,6050edc9b0fa3d391dae2ffe,20,Mężczyzna,2022-06-11_09h36.45.007,task,2021.1.4,Win32,60.04202942,6299f149e92ead563fba08ef,62a445e90dd4b8aff0838d9e,,,,,,,,,,,,,,,,,,,,,,,,,,,,,,,,,,,,,,,,,,,,,,,,,,,,,,,,,,,,,,,,,,,,,,,,,,,,,,,,,,,,,,,,,,,,,,,,,,,,,
,,,,,,1,0,1,0,1,X V Q F H G B L J M P D K C T S W R N Z,6050edc9b0fa3d391dae2ffe,20,Mężczyzna,2022-06-11_09h36.45.007,task,2021.1.4,Win32,60.04202942,6299f149e92ead563fba08ef,62a445e90dd4b8aff0838d9e,,,,,,,,,,,,,,,,,,,,,,,,,,,,,,,,,,,,,,,,,,,,,,,,,,,,,,,,,,,,,,,,,,,,,,,,,,,,,,,,,,,,,,,,,,,,,,,,,,,,,
,,,,,,2,0,2,0,1,X V Q F H G B L J M P D K C T S W R N Z,6050edc9b0fa3d391dae2ffe,20,Mężczyzna,2022-06-11_09h36.45.007,task,2021.1.4,Win32,60.04202942,6299f149e92ead563fba08ef,62a445e90dd4b8aff0838d9e,,,,,,,,,,,,,,,,,,,,,,,,,,,,,,,,,,,,,,,,,,,,,,,,,,,,,,,,,,,,,,,,,,,,,,,,,,,,,,,,,,,,,,,,,,,,,,,,,,,,,
,,,,,,,,,,,,6050edc9b0fa3d391dae2ffe,20,Mężczyzna,2022-06-11_09h36.45.007,task,2021.1.4,Win32,60.04202942,6299f149e92ead563fba08ef,62a445e90dd4b8aff0838d9e,prz,"[""p"",""r"",""z""]","[1.0999999999999943,1.3168999999910582,1.6738999999910575,2.0335999999940313]",1,PRZ,3,0,3,0,1,,,,,,,,,,,,,,,,,,,,,,,,,,,,,,,,,,,,,,,,,,,,,,,,,,,,,,,,,,,,,,,,,,,,,,,,,,,,,,,,,,,,,,,,,,,
,,,,,,0,0,0,0,1,X V Q F H G B L J M P D K C T S W R N Z,6050edc9b0fa3d391dae2ffe,20,Mężczyzna,2022-06-11_09h36.45.007,task,2021.1.4,Win32,60.04202942,6299f149e92ead563fba08ef,62a445e90dd4b8aff0838d9e,,,,,,,,,,,,,,,,,,,,,,,,,,,,,,,,,,,,,,,,,,,,,,,,,,,,,,,,,,,,,,,,,,,,,,,,,,,,,,,,,,,,,,,,,,,,,,,,,,,,,
,,,,,,1,0,1,0,1,X V Q F H G B L J M P D K C T S W R N Z,6050edc9b0fa3d391dae2ffe,20,Mężczyzna,2022-06-11_09h36.45.007,task,2021.1.4,Win32,60.04202942,6299f149e92ead563fba08ef,62a445e90dd4b8aff0838d9e,,,,,,,,,,,,,,,,,,,,,,,,,,,,,,,,,,,,,,,,,,,,,,,,,,,,,,,,,,,,,,,,,,,,,,,,,,,,,,,,,,,,,,,,,,,,,,,,,,,,,
,,,,,,2,0,2,0,1,X V Q F H G B L J M P D K C T S W R N Z,6050edc9b0fa3d391dae2ffe,20,Mężczyzna,2022-06-11_09h36.45.007,task,2021.1.4,Win32,60.04202942,6299f149e92ead563fba08ef,62a445e90dd4b8aff0838d9e,,,,,,,,,,,,,,,,,,,,,,,,,,,,,,,,,,,,,,,,,,,,,,,,,,,,,,,,,,,,,,,,,,,,,,,,,,,,,,,,,,,,,,,,,,,,,,,,,,,,,
,,,,,,3,0,3,0,1,X V Q F H G B L J M P D K C T S W R N Z,6050edc9b0fa3d391dae2ffe,20,Mężczyzna,2022-06-11_09h36.45.007,task,2021.1.4,Win32,60.04202942,6299f149e92ead563fba08ef,62a445e90dd4b8aff0838d9e,,,,,,,,,,,,,,,,,,,,,,,,,,,,,,,,,,,,,,,,,,,,,,,,,,,,,,,,,,,,,,,,,,,,,,,,,,,,,,,,,,,,,,,,,,,,,,,,,,,,,
,,,,,,,,,,,,6050edc9b0fa3d391dae2ffe,20,Mężczyzna,2022-06-11_09h36.45.007,task,2021.1.4,Win32,60.04202942,6299f149e92ead563fba08ef,62a445e90dd4b8aff0838d9e,lttl,"[""l"",""t"",""t"",""l""]","[0.9535000000000053,1.1503000000119243,1.333400000005966,1.4904000000059625,1.833400000005966]",1,LTTL,4,0,4,0,1,,,,,,,,,,,,,,,,,,,,,,,,,,,,,,,,,,,,,,,,,,,,,,,,,,,,,,,,,,,,,,,,,,,,,,,,,,,,,,,,,,,,,,,,,,,
,,,,,,0,0,0,0,1,X V Q F H G B L J M P D K C T S W R N Z,6050edc9b0fa3d391dae2ffe,20,Mężczyzna,2022-06-11_09h36.45.007,task,2021.1.4,Win32,60.04202942,6299f149e92ead563fba08ef,62a445e90dd4b8aff0838d9e,,,,,,,,,,,,,,,,,,,,,,,,,,,,,,,,,,,,,,,,,,,,,,,,,,,,,,,,,,,,,,,,,,,,,,,,,,,,,,,,,,,,,,,,,,,,,,,,,,,,,
,,,,,,1,0,1,0,1,X V Q F H G B L J M P D K C T S W R N Z,6050edc9b0fa3d391dae2ffe,20,Mężczyzna,2022-06-11_09h36.45.007,task,2021.1.4,Win32,60.04202942,6299f149e92ead563fba08ef,62a445e90dd4b8aff0838d9e,,,,,,,,,,,,,,,,,,,,,,,,,,,,,,,,,,,,,,,,,,,,,,,,,,,,,,,,,,,,,,,,,,,,,,,,,,,,,,,,,,,,,,,,,,,,,,,,,,,,,
,,,,,,2,0,2,0,1,X V Q F H G B L J M P D K C T S W R N Z,6050edc9b0fa3d391dae2ffe,20,Mężczyzna,2022-06-11_09h36.45.007,task,2021.1.4,Win32,60.04202942,6299f149e92ead563fba08ef,62a445e90dd4b8aff0838d9e,,,,,,,,,,,,,,,,,,,,,,,,,,,,,,,,,,,,,,,,,,,,,,,,,,,,,,,,,,,,,,,,,,,,,,,,,,,,,,,,,,,,,,,,,,,,,,,,,,,,,
,,,,,,3,0,3,0,1,X V Q F H G B L J M P D K C T S W R N Z,6050edc9b0fa3d391dae2ffe,20,Mężczyzna,2022-06-11_09h36.45.007,task,2021.1.4,Win32,60.04202942,6299f149e92ead563fba08ef,62a445e90dd4b8aff0838d9e,,,,,,,,,,,,,,,,,,,,,,,,,,,,,,,,,,,,,,,,,,,,,,,,,,,,,,,,,,,,,,,,,,,,,,,,,,,,,,,,,,,,,,,,,,,,,,,,,,,,,
,,,,,,,,,,,,6050edc9b0fa3d391dae2ffe,20,Mężczyzna,2022-06-11_09h36.45.007,task,2021.1.4,Win32,60.04202942,6299f149e92ead563fba08ef,62a445e90dd4b8aff0838d9e,wzsq,"[""w"",""z"",""s"",""q""]","[1.4864000000059576,2.2087000000029775,2.551000000000002,2.840400000005957,3.5]",1,WZSQ,5,0,5,0,1,,,,,,,,,,,,,,,,,,,,,,,,,,,,,,,,,,,,,,,,,,,,,,,,,,,,,,,,,,,,,,,,,,,,,,,,,,,,,,,,,,,,,,,,,,,
,,,,,,0,0,0,0,1,X V Q F H G B L J M P D K C T S W R N Z,6050edc9b0fa3d391dae2ffe,20,Mężczyzna,2022-06-11_09h36.45.007,task,2021.1.4,Win32,60.04202942,6299f149e92ead563fba08ef,62a445e90dd4b8aff0838d9e,,,,,,,,,,,,,,,,,,,,,,,,,,,,,,,,,,,,,,,,,,,,,,,,,,,,,,,,,,,,,,,,,,,,,,,,,,,,,,,,,,,,,,,,,,,,,,,,,,,,,
,,,,,,1,0,1,0,1,X V Q F H G B L J M P D K C T S W R N Z,6050edc9b0fa3d391dae2ffe,20,Mężczyzna,2022-06-11_09h36.45.007,task,2021.1.4,Win32,60.04202942,6299f149e92ead563fba08ef,62a445e90dd4b8aff0838d9e,,,,,,,,,,,,,,,,,,,,,,,,,,,,,,,,,,,,,,,,,,,,,,,,,,,,,,,,,,,,,,,,,,,,,,,,,,,,,,,,,,,,,,,,,,,,,,,,,,,,,
,,,,,,2,0,2,0,1,X V Q F H G B L J M P D K C T S W R N Z,6050edc9b0fa3d391dae2ffe,20,Mężczyzna,2022-06-11_09h36.45.007,task,2021.1.4,Win32,60.04202942,6299f149e92ead563fba08ef,62a445e90dd4b8aff0838d9e,,,,,,,,,,,,,,,,,,,,,,,,,,,,,,,,,,,,,,,,,,,,,,,,,,,,,,,,,,,,,,,,,,,,,,,,,,,,,,,,,,,,,,,,,,,,,,,,,,,,,
,,,,,,3,0,3,0,1,X V Q F H G B L J M P D K C T S W R N Z,6050edc9b0fa3d391dae2ffe,20,Mężczyzna,2022-06-11_09h36.45.007,task,2021.1.4,Win32,60.04202942,6299f149e92ead563fba08ef,62a445e90dd4b8aff0838d9e,,,,,,,,,,,,,,,,,,,,,,,,,,,,,,,,,,,,,,,,,,,,,,,,,,,,,,,,,,,,,,,,,,,,,,,,,,,,,,,,,,,,,,,,,,,,,,,,,,,,,
,,,,,,4,0,4,0,1,X V Q F H G B L J M P D K C T S W R N Z,6050edc9b0fa3d391dae2ffe,20,Mężczyzna,2022-06-11_09h36.45.007,task,2021.1.4,Win32,60.04202942,6299f149e92ead563fba08ef,62a445e90dd4b8aff0838d9e,,,,,,,,,,,,,,,,,,,,,,,,,,,,,,,,,,,,,,,,,,,,,,,,,,,,,,,,,,,,,,,,,,,,,,,,,,,,,,,,,,,,,,,,,,,,,,,,,,,,,
,,,,,,,,,,,,6050edc9b0fa3d391dae2ffe,20,Mężczyzna,2022-06-11_09h36.45.007,task,2021.1.4,Win32,60.04202942,6299f149e92ead563fba08ef,62a445e90dd4b8aff0838d9e,jbrfs,"[""j"",""b"",""r"",""f"",""s""]","[1.7267000000029782,1.9722999999970199,2.840999999999994,3.083400000005952,3.2887999999970106,3.6167999999970135]",0,JRBFS,6,0,6,0,1,,,,,,,,,,,,,,,,,,,,,,,,,,,,,,,,,,,,,,,,,,,,,,,,,,,,,,,,,,,,,,,,,,,,,,,,,,,,,,,,,,,,,,,,,,,
,,,,,,0,0,0,0,1,X V Q F H G B L J M P D K C T S W R N Z,6050edc9b0fa3d391dae2ffe,20,Mężczyzna,2022-06-11_09h36.45.007,task,2021.1.4,Win32,60.04202942,6299f149e92ead563fba08ef,62a445e90dd4b8aff0838d9e,,,,,,,,,,,,,,,,,,,,,,,,,,,,,,,,,,,,,,,,,,,,,,,,,,,,,,,,,,,,,,,,,,,,,,,,,,,,,,,,,,,,,,,,,,,,,,,,,,,,,
,,,,,,1,0,1,0,1,X V Q F H G B L J M P D K C T S W R N Z,6050edc9b0fa3d391dae2ffe,20,Mężczyzna,2022-06-11_09h36.45.007,task,2021.1.4,Win32,60.04202942,6299f149e92ead563fba08ef,62a445e90dd4b8aff0838d9e,,,,,,,,,,,,,,,,,,,,,,,,,,,,,,,,,,,,,,,,,,,,,,,,,,,,,,,,,,,,,,,,,,,,,,,,,,,,,,,,,,,,,,,,,,,,,,,,,,,,,
,,,,,,2,0,2,0,1,X V Q F H G B L J M P D K C T S W R N Z,6050edc9b0fa3d391dae2ffe,20,Mężczyzna,2022-06-11_09h36.45.007,task,2021.1.4,Win32,60.04202942,6299f149e92ead563fba08ef,62a445e90dd4b8aff0838d9e,,,,,,,,,,,,,,,,,,,,,,,,,,,,,,,,,,,,,,,,,,,,,,,,,,,,,,,,,,,,,,,,,,,,,,,,,,,,,,,,,,,,,,,,,,,,,,,,,,,,,
,,,,,,3,0,3,0,1,X V Q F H G B L J M P D K C T S W R N Z,6050edc9b0fa3d391dae2ffe,20,Mężczyzna,2022-06-11_09h36.45.007,task,2021.1.4,Win32,60.04202942,6299f149e92ead563fba08ef,62a445e90dd4b8aff0838d9e,,,,,,,,,,,,,,,,,,,,,,,,,,,,,,,,,,,,,,,,,,,,,,,,,,,,,,,,,,,,,,,,,,,,,,,,,,,,,,,,,,,,,,,,,,,,,,,,,,,,,
,,,,,,4,0,4,0,1,X V Q F H G B L J M P D K C T S W R N Z,6050edc9b0fa3d391dae2ffe,20,Mężczyzna,2022-06-11_09h36.45.007,task,2021.1.4,Win32,60.04202942,6299f149e92ead563fba08ef,62a445e90dd4b8aff0838d9e,,,,,,,,,,,,,,,,,,,,,,,,,,,,,,,,,,,,,,,,,,,,,,,,,,,,,,,,,,,,,,,,,,,,,,,,,,,,,,,,,,,,,,,,,,,,,,,,,,,,,
,,,,,,,,,,,,6050edc9b0fa3d391dae2ffe,20,Mężczyzna,2022-06-11_09h36.45.007,task,2021.1.4,Win32,60.04202942,6299f149e92ead563fba08ef,62a445e90dd4b8aff0838d9e,mmvdf,"[""m"",""m"",""v"",""d"",""f""]","[1.250100000008942,1.4165000000000134,1.9261000000089439,2.3000000000000114,2.6836000000089513,3.1501000000089476]",1,MMVDF,7,0,7,0,1,,,,,,,,,,,,,,,,,,,,,,,,,,,,,,,,,,,,,,,,,,,,,,,,,,,,,,,,,,,,,,,,,,,,,,,,,,,,,,,,,,,,,,,,,,,
,,,,,,0,0,0,0,1,X V Q F H G B L J M P D K C T S W R N Z,6050edc9b0fa3d391dae2ffe,20,Mężczyzna,2022-06-11_09h36.45.007,task,2021.1.4,Win32,60.04202942,6299f149e92ead563fba08ef,62a445e90dd4b8aff0838d9e,,,,,,,,,,,,,,,,,,,,,,,,,,,,,,,,,,,,,,,,,,,,,,,,,,,,,,,,,,,,,,,,,,,,,,,,,,,,,,,,,,,,,,,,,,,,,,,,,,,,,
,,,,,,1,0,1,0,1,X V Q F H G B L J M P D K C T S W R N Z,6050edc9b0fa3d391dae2ffe,20,Mężczyzna,2022-06-11_09h36.45.007,task,2021.1.4,Win32,60.04202942,6299f149e92ead563fba08ef,62a445e90dd4b8aff0838d9e,,,,,,,,,,,,,,,,,,,,,,,,,,,,,,,,,,,,,,,,,,,,,,,,,,,,,,,,,,,,,,,,,,,,,,,,,,,,,,,,,,,,,,,,,,,,,,,,,,,,,
,,,,,,2,0,2,0,1,X V Q F H G B L J M P D K C T S W R N Z,6050edc9b0fa3d391dae2ffe,20,Mężczyzna,2022-06-11_09h36.45.007,task,2021.1.4,Win32,60.04202942,6299f149e92ead563fba08ef,62a445e90dd4b8aff0838d9e,,,,,,,,,,,,,,,,,,,,,,,,,,,,,,,,,,,,,,,,,,,,,,,,,,,,,,,,,,,,,,,,,,,,,,,,,,,,,,,,,,,,,,,,,,,,,,,,,,,,,
,,,,,,3,0,3,0,1,X V Q F H G B L J M P D K C T S W R N Z,6050edc9b0fa3d391dae2ffe,20,Mężczyzna,2022-06-11_09h36.45.007,task,2021.1.4,Win32,60.04202942,6299f149e92ead563fba08ef,62a445e90dd4b8aff0838d9e,,,,,,,,,,,,,,,,,,,,,,,,,,,,,,,,,,,,,,,,,,,,,,,,,,,,,,,,,,,,,,,,,,,,,,,,,,,,,,,,,,,,,,,,,,,,,,,,,,,,,
,,,,,,4,0,4,0,1,X V Q F H G B L J M P D K C T S W R N Z,6050edc9b0fa3d391dae2ffe,20,Mężczyzna,2022-06-11_09h36.45.007,task,2021.1.4,Win32,60.04202942,6299f149e92ead563fba08ef,62a445e90dd4b8aff0838d9e,,,,,,,,,,,,,,,,,,,,,,,,,,,,,,,,,,,,,,,,,,,,,,,,,,,,,,,,,,,,,,,,,,,,,,,,,,,,,,,,,,,,,,,,,,,,,,,,,,,,,
,,,,,,,,,,,,6050edc9b0fa3d391dae2ffe,20,Mężczyzna,2022-06-11_09h36.45.007,task,2021.1.4,Win32,60.04202942,6299f149e92ead563fba08ef,62a445e90dd4b8aff0838d9e,rwlsv,"[""r"",""w"",""l"",""s"",""v""]","[1.3066000000089275,1.5669000000059583,1.8254000000059563,2.033200000002978,2.249900000005951,2.418299999997018]",0,RLWSV,8,0,8,0,1,,,,,,,,,,,,,,,,,,,,,,,,,,,,,,,,,,,,,,,,,,,,,,,,,,,,,,,,,,,,,,,,,,,,,,,,,,,,,,,,,,,,,,,,,,,
,,,,,,0,0,0,0,1,X V Q F H G B L J M P D K C T S W R N Z,6050edc9b0fa3d391dae2ffe,20,Mężczyzna,2022-06-11_09h36.45.007,task,2021.1.4,Win32,60.04202942,6299f149e92ead563fba08ef,62a445e90dd4b8aff0838d9e,,,,,,,,,,,,,,,,,,,,,,,,,,,,,,,,,,,,,,,,,,,,,,,,,,,,,,,,,,,,,,,,,,,,,,,,,,,,,,,,,,,,,,,,,,,,,,,,,,,,,
,,,,,,1,0,1,0,1,X V Q F H G B L J M P D K C T S W R N Z,6050edc9b0fa3d391dae2ffe,20,Mężczyzna,2022-06-11_09h36.45.007,task,2021.1.4,Win32,60.04202942,6299f149e92ead563fba08ef,62a445e90dd4b8aff0838d9e,,,,,,,,,,,,,,,,,,,,,,,,,,,,,,,,,,,,,,,,,,,,,,,,,,,,,,,,,,,,,,,,,,,,,,,,,,,,,,,,,,,,,,,,,,,,,,,,,,,,,
,,,,,,2,0,2,0,1,X V Q F H G B L J M P D K C T S W R N Z,6050edc9b0fa3d391dae2ffe,20,Mężczyzna,2022-06-11_09h36.45.007,task,2021.1.4,Win32,60.04202942,6299f149e92ead563fba08ef,62a445e90dd4b8aff0838d9e,,,,,,,,,,,,,,,,,,,,,,,,,,,,,,,,,,,,,,,,,,,,,,,,,,,,,,,,,,,,,,,,,,,,,,,,,,,,,,,,,,,,,,,,,,,,,,,,,,,,,
,,,,,,3,0,3,0,1,X V Q F H G B L J M P D K C T S W R N Z,6050edc9b0fa3d391dae2ffe,20,Mężczyzna,2022-06-11_09h36.45.007,task,2021.1.4,Win32,60.04202942,6299f149e92ead563fba08ef,62a445e90dd4b8aff0838d9e,,,,,,,,,,,,,,,,,,,,,,,,,,,,,,,,,,,,,,,,,,,,,,,,,,,,,,,,,,,,,,,,,,,,,,,,,,,,,,,,,,,,,,,,,,,,,,,,,,,,,
,,,,,,4,0,4,0,1,X V Q F H G B L J M P D K C T S W R N Z,6050edc9b0fa3d391dae2ffe,20,Mężczyzna,2022-06-11_09h36.45.007,task,2021.1.4,Win32,60.04202942,6299f149e92ead563fba08ef,62a445e90dd4b8aff0838d9e,,,,,,,,,,,,,,,,,,,,,,,,,,,,,,,,,,,,,,,,,,,,,,,,,,,,,,,,,,,,,,,,,,,,,,,,,,,,,,,,,,,,,,,,,,,,,,,,,,,,,
,,,,,,,,,,,,6050edc9b0fa3d391dae2ffe,20,Mężczyzna,2022-06-11_09h36.45.007,task,2021.1.4,Win32,60.04202942,6299f149e92ead563fba08ef,62a445e90dd4b8aff0838d9e,lwhmm,"[""l"",""w"",""h"",""m"",""m""]","[0.8212000000029747,1.1332999999970212,1.318599999994035,1.5672000000029698,1.724499999999992,1.9669999999999987]",1,LWHMM,9,0,9,0,1,,,,,,,,,,,,,,,,,,,,,,,,,,,,,,,,,,,,,,,,,,,,,,,,,,,,,,,,,,,,,,,,,,,,,,,,,,,,,,,,,,,,,,,,,,,
,,,,,,0,0,0,0,1,X V Q F H G B L J M P D K C T S W R N Z,6050edc9b0fa3d391dae2ffe,20,Mężczyzna,2022-06-11_09h36.45.007,task,2021.1.4,Win32,60.04202942,6299f149e92ead563fba08ef,62a445e90dd4b8aff0838d9e,,,,,,,,,,,,,,,,,,,,,,,,,,,,,,,,,,,,,,,,,,,,,,,,,,,,,,,,,,,,,,,,,,,,,,,,,,,,,,,,,,,,,,,,,,,,,,,,,,,,,
,,,,,,1,0,1,0,1,X V Q F H G B L J M P D K C T S W R N Z,6050edc9b0fa3d391dae2ffe,20,Mężczyzna,2022-06-11_09h36.45.007,task,2021.1.4,Win32,60.04202942,6299f149e92ead563fba08ef,62a445e90dd4b8aff0838d9e,,,,,,,,,,,,,,,,,,,,,,,,,,,,,,,,,,,,,,,,,,,,,,,,,,,,,,,,,,,,,,,,,,,,,,,,,,,,,,,,,,,,,,,,,,,,,,,,,,,,,
,,,,,,2,0,2,0,1,X V Q F H G B L J M P D K C T S W R N Z,6050edc9b0fa3d391dae2ffe,20,Mężczyzna,2022-06-11_09h36.45.007,task,2021.1.4,Win32,60.04202942,6299f149e92ead563fba08ef,62a445e90dd4b8aff0838d9e,,,,,,,,,,,,,,,,,,,,,,,,,,,,,,,,,,,,,,,,,,,,,,,,,,,,,,,,,,,,,,,,,,,,,,,,,,,,,,,,,,,,,,,,,,,,,,,,,,,,,
,,,,,,3,0,3,0,1,X V Q F H G B L J M P D K C T S W R N Z,6050edc9b0fa3d391dae2ffe,20,Mężczyzna,2022-06-11_09h36.45.007,task,2021.1.4,Win32,60.04202942,6299f149e92ead563fba08ef,62a445e90dd4b8aff0838d9e,,,,,,,,,,,,,,,,,,,,,,,,,,,,,,,,,,,,,,,,,,,,,,,,,,,,,,,,,,,,,,,,,,,,,,,,,,,,,,,,,,,,,,,,,,,,,,,,,,,,,
,,,,,,4,0,4,0,1,X V Q F H G B L J M P D K C T S W R N Z,6050edc9b0fa3d391dae2ffe,20,Mężczyzna,2022-06-11_09h36.45.007,task,2021.1.4,Win32,60.04202942,6299f149e92ead563fba08ef,62a445e90dd4b8aff0838d9e,,,,,,,,,,,,,,,,,,,,,,,,,,,,,,,,,,,,,,,,,,,,,,,,,,,,,,,,,,,,,,,,,,,,,,,,,,,,,,,,,,,,,,,,,,,,,,,,,,,,,
,,,,,,5,0,5,0,1,X V Q F H G B L J M P D K C T S W R N Z,6050edc9b0fa3d391dae2ffe,20,Mężczyzna,2022-06-11_09h36.45.007,task,2021.1.4,Win32,60.04202942,6299f149e92ead563fba08ef,62a445e90dd4b8aff0838d9e,,,,,,,,,,,,,,,,,,,,,,,,,,,,,,,,,,,,,,,,,,,,,,,,,,,,,,,,,,,,,,,,,,,,,,,,,,,,,,,,,,,,,,,,,,,,,,,,,,,,,
,,,,,,,,,,,,6050edc9b0fa3d391dae2ffe,20,Mężczyzna,2022-06-11_09h36.45.007,task,2021.1.4,Win32,60.04202942,6299f149e92ead563fba08ef,62a445e90dd4b8aff0838d9e,zjhgdj,"[""z"",""j"",""h"",""g"",""d"",""j""]","[1.2338999999910527,1.5902999999970149,3.0420000000000016,3.3336999999880987,4.223399999991059,4.550500000000014,4.874500000000026]",1,ZJHGDJ,10,0,10,0,1,,,,,,,,,,,,,,,,,,,,,,,,,,,,,,,,,,,,,,,,,,,,,,,,,,,,,,,,,,,,,,,,,,,,,,,,,,,,,,,,,,,,,,,,,,,
,,,,,,0,0,0,0,1,X V Q F H G B L J M P D K C T S W R N Z,6050edc9b0fa3d391dae2ffe,20,Mężczyzna,2022-06-11_09h36.45.007,task,2021.1.4,Win32,60.04202942,6299f149e92ead563fba08ef,62a445e90dd4b8aff0838d9e,,,,,,,,,,,,,,,,,,,,,,,,,,,,,,,,,,,,,,,,,,,,,,,,,,,,,,,,,,,,,,,,,,,,,,,,,,,,,,,,,,,,,,,,,,,,,,,,,,,,,
,,,,,,1,0,1,0,1,X V Q F H G B L J M P D K C T S W R N Z,6050edc9b0fa3d391dae2ffe,20,Mężczyzna,2022-06-11_09h36.45.007,task,2021.1.4,Win32,60.04202942,6299f149e92ead563fba08ef,62a445e90dd4b8aff0838d9e,,,,,,,,,,,,,,,,,,,,,,,,,,,,,,,,,,,,,,,,,,,,,,,,,,,,,,,,,,,,,,,,,,,,,,,,,,,,,,,,,,,,,,,,,,,,,,,,,,,,,
,,,,,,2,0,2,0,1,X V Q F H G B L J M P D K C T S W R N Z,6050edc9b0fa3d391dae2ffe,20,Mężczyzna,2022-06-11_09h36.45.007,task,2021.1.4,Win32,60.04202942,6299f149e92ead563fba08ef,62a445e90dd4b8aff0838d9e,,,,,,,,,,,,,,,,,,,,,,,,,,,,,,,,,,,,,,,,,,,,,,,,,,,,,,,,,,,,,,,,,,,,,,,,,,,,,,,,,,,,,,,,,,,,,,,,,,,,,
,,,,,,3,0,3,0,1,X V Q F H G B L J M P D K C T S W R N Z,6050edc9b0fa3d391dae2ffe,20,Mężczyzna,2022-06-11_09h36.45.007,task,2021.1.4,Win32,60.04202942,6299f149e92ead563fba08ef,62a445e90dd4b8aff0838d9e,,,,,,,,,,,,,,,,,,,,,,,,,,,,,,,,,,,,,,,,,,,,,,,,,,,,,,,,,,,,,,,,,,,,,,,,,,,,,,,,,,,,,,,,,,,,,,,,,,,,,
,,,,,,4,0,4,0,1,X V Q F H G B L J M P D K C T S W R N Z,6050edc9b0fa3d391dae2ffe,20,Mężczyzna,2022-06-11_09h36.45.007,task,2021.1.4,Win32,60.04202942,6299f149e92ead563fba08ef,62a445e90dd4b8aff0838d9e,,,,,,,,,,,,,,,,,,,,,,,,,,,,,,,,,,,,,,,,,,,,,,,,,,,,,,,,,,,,,,,,,,,,,,,,,,,,,,,,,,,,,,,,,,,,,,,,,,,,,
,,,,,,5,0,5,0,1,X V Q F H G B L J M P D K C T S W R N Z,6050edc9b0fa3d391dae2ffe,20,Mężczyzna,2022-06-11_09h36.45.007,task,2021.1.4,Win32,60.04202942,6299f149e92ead563fba08ef,62a445e90dd4b8aff0838d9e,,,,,,,,,,,,,,,,,,,,,,,,,,,,,,,,,,,,,,,,,,,,,,,,,,,,,,,,,,,,,,,,,,,,,,,,,,,,,,,,,,,,,,,,,,,,,,,,,,,,,
,,,,,,,,,,,,6050edc9b0fa3d391dae2ffe,20,Mężczyzna,2022-06-11_09h36.45.007,task,2021.1.4,Win32,60.04202942,6299f149e92ead563fba08ef,62a445e90dd4b8aff0838d9e,djfqkt,"[""d"",""j"",""f"",""q"",""k"",""t""]","[1.3534999999999968,1.6399000000059516,2.0164999999999793,2.200400000005942,2.5001000000089277,2.7039000000059445,4.21690000000595]",1,DJFQKT,11,0,11,0,1,,,,,,,,,,,,,,,,,,,,,,,,,,,,,,,,,,,,,,,,,,,,,,,,,,,,,,,,,,,,,,,,,,,,,,,,,,,,,,,,,,,,,,,,,,,
,,,,,,0,0,0,0,1,X V Q F H G B L J M P D K C T S W R N Z,6050edc9b0fa3d391dae2ffe,20,Mężczyzna,2022-06-11_09h36.45.007,task,2021.1.4,Win32,60.04202942,6299f149e92ead563fba08ef,62a445e90dd4b8aff0838d9e,,,,,,,,,,,,,,,,,,,,,,,,,,,,,,,,,,,,,,,,,,,,,,,,,,,,,,,,,,,,,,,,,,,,,,,,,,,,,,,,,,,,,,,,,,,,,,,,,,,,,
,,,,,,1,0,1,0,1,X V Q F H G B L J M P D K C T S W R N Z,6050edc9b0fa3d391dae2ffe,20,Mężczyzna,2022-06-11_09h36.45.007,task,2021.1.4,Win32,60.04202942,6299f149e92ead563fba08ef,62a445e90dd4b8aff0838d9e,,,,,,,,,,,,,,,,,,,,,,,,,,,,,,,,,,,,,,,,,,,,,,,,,,,,,,,,,,,,,,,,,,,,,,,,,,,,,,,,,,,,,,,,,,,,,,,,,,,,,
,,,,,,2,0,2,0,1,X V Q F H G B L J M P D K C T S W R N Z,6050edc9b0fa3d391dae2ffe,20,Mężczyzna,2022-06-11_09h36.45.007,task,2021.1.4,Win32,60.04202942,6299f149e92ead563fba08ef,62a445e90dd4b8aff0838d9e,,,,,,,,,,,,,,,,,,,,,,,,,,,,,,,,,,,,,,,,,,,,,,,,,,,,,,,,,,,,,,,,,,,,,,,,,,,,,,,,,,,,,,,,,,,,,,,,,,,,,
,,,,,,3,0,3,0,1,X V Q F H G B L J M P D K C T S W R N Z,6050edc9b0fa3d391dae2ffe,20,Mężczyzna,2022-06-11_09h36.45.007,task,2021.1.4,Win32,60.04202942,6299f149e92ead563fba08ef,62a445e90dd4b8aff0838d9e,,,,,,,,,,,,,,,,,,,,,,,,,,,,,,,,,,,,,,,,,,,,,,,,,,,,,,,,,,,,,,,,,,,,,,,,,,,,,,,,,,,,,,,,,,,,,,,,,,,,,
,,,,,,4,0,4,0,1,X V Q F H G B L J M P D K C T S W R N Z,6050edc9b0fa3d391dae2ffe,20,Mężczyzna,2022-06-11_09h36.45.007,task,2021.1.4,Win32,60.04202942,6299f149e92ead563fba08ef,62a445e90dd4b8aff0838d9e,,,,,,,,,,,,,,,,,,,,,,,,,,,,,,,,,,,,,,,,,,,,,,,,,,,,,,,,,,,,,,,,,,,,,,,,,,,,,,,,,,,,,,,,,,,,,,,,,,,,,
,,,,,,5,0,5,0,1,X V Q F H G B L J M P D K C T S W R N Z,6050edc9b0fa3d391dae2ffe,20,Mężczyzna,2022-06-11_09h36.45.007,task,2021.1.4,Win32,60.04202942,6299f149e92ead563fba08ef,62a445e90dd4b8aff0838d9e,,,,,,,,,,,,,,,,,,,,,,,,,,,,,,,,,,,,,,,,,,,,,,,,,,,,,,,,,,,,,,,,,,,,,,,,,,,,,,,,,,,,,,,,,,,,,,,,,,,,,
,,,,,,6,0,6,0,1,X V Q F H G B L J M P D K C T S W R N Z,6050edc9b0fa3d391dae2ffe,20,Mężczyzna,2022-06-11_09h36.45.007,task,2021.1.4,Win32,60.04202942,6299f149e92ead563fba08ef,62a445e90dd4b8aff0838d9e,,,,,,,,,,,,,,,,,,,,,,,,,,,,,,,,,,,,,,,,,,,,,,,,,,,,,,,,,,,,,,,,,,,,,,,,,,,,,,,,,,,,,,,,,,,,,,,,,,,,,
,,,,,,,,,,,,6050edc9b0fa3d391dae2ffe,20,Mężczyzna,2022-06-11_09h36.45.007,task,2021.1.4,Win32,60.04202942,6299f149e92ead563fba08ef,62a445e90dd4b8aff0838d9e,mzhpxr,"[""m"",""z"",""h"",""p"",""x"",""r""]","[1.116500000000002,1.4167999999970107,1.5758999999910657,2.0860999999940475,2.5577999999970302,3.3835999999940327,4.507299999997031]",0,MZHPHRX,12,0,12,0,1,,,,,,,,,,,,,,,,,,,,,,,,,,,,,,,,,,,,,,,,,,,,,,,,,,,,,,,,,,,,,,,,,,,,,,,,,,,,,,,,,,,,,,,,,,,
,,,,,,0,0,0,0,1,X V Q F H G B L J M P D K C T S W R N Z,6050edc9b0fa3d391dae2ffe,20,Mężczyzna,2022-06-11_09h36.45.007,task,2021.1.4,Win32,60.04202942,6299f149e92ead563fba08ef,62a445e90dd4b8aff0838d9e,,,,,,,,,,,,,,,,,,,,,,,,,,,,,,,,,,,,,,,,,,,,,,,,,,,,,,,,,,,,,,,,,,,,,,,,,,,,,,,,,,,,,,,,,,,,,,,,,,,,,
,,,,,,1,0,1,0,1,X V Q F H G B L J M P D K C T S W R N Z,6050edc9b0fa3d391dae2ffe,20,Mężczyzna,2022-06-11_09h36.45.007,task,2021.1.4,Win32,60.04202942,6299f149e92ead563fba08ef,62a445e90dd4b8aff0838d9e,,,,,,,,,,,,,,,,,,,,,,,,,,,,,,,,,,,,,,,,,,,,,,,,,,,,,,,,,,,,,,,,,,,,,,,,,,,,,,,,,,,,,,,,,,,,,,,,,,,,,
,,,,,,2,0,2,0,1,X V Q F H G B L J M P D K C T S W R N Z,6050edc9b0fa3d391dae2ffe,20,Mężczyzna,2022-06-11_09h36.45.007,task,2021.1.4,Win32,60.04202942,6299f149e92ead563fba08ef,62a445e90dd4b8aff0838d9e,,,,,,,,,,,,,,,,,,,,,,,,,,,,,,,,,,,,,,,,,,,,,,,,,,,,,,,,,,,,,,,,,,,,,,,,,,,,,,,,,,,,,,,,,,,,,,,,,,,,,
,,,,,,3,0,3,0,1,X V Q F H G B L J M P D K C T S W R N Z,6050edc9b0fa3d391dae2ffe,20,Mężczyzna,2022-06-11_09h36.45.007,task,2021.1.4,Win32,60.04202942,6299f149e92ead563fba08ef,62a445e90dd4b8aff0838d9e,,,,,,,,,,,,,,,,,,,,,,,,,,,,,,,,,,,,,,,,,,,,,,,,,,,,,,,,,,,,,,,,,,,,,,,,,,,,,,,,,,,,,,,,,,,,,,,,,,,,,
,,,,,,4,0,4,0,1,X V Q F H G B L J M P D K C T S W R N Z,6050edc9b0fa3d391dae2ffe,20,Mężczyzna,2022-06-11_09h36.45.007,task,2021.1.4,Win32,60.04202942,6299f149e92ead563fba08ef,62a445e90dd4b8aff0838d9e,,,,,,,,,,,,,,,,,,,,,,,,,,,,,,,,,,,,,,,,,,,,,,,,,,,,,,,,,,,,,,,,,,,,,,,,,,,,,,,,,,,,,,,,,,,,,,,,,,,,,
,,,,,,5,0,5,0,1,X V Q F H G B L J M P D K C T S W R N Z,6050edc9b0fa3d391dae2ffe,20,Mężczyzna,2022-06-11_09h36.45.007,task,2021.1.4,Win32,60.04202942,6299f149e92ead563fba08ef,62a445e90dd4b8aff0838d9e,,,,,,,,,,,,,,,,,,,,,,,,,,,,,,,,,,,,,,,,,,,,,,,,,,,,,,,,,,,,,,,,,,,,,,,,,,,,,,,,,,,,,,,,,,,,,,,,,,,,,
,,,,,,6,0,6,0,1,X V Q F H G B L J M P D K C T S W R N Z,6050edc9b0fa3d391dae2ffe,20,Mężczyzna,2022-06-11_09h36.45.007,task,2021.1.4,Win32,60.04202942,6299f149e92ead563fba08ef,62a445e90dd4b8aff0838d9e,,,,,,,,,,,,,,,,,,,,,,,,,,,,,,,,,,,,,,,,,,,,,,,,,,,,,,,,,,,,,,,,,,,,,,,,,,,,,,,,,,,,,,,,,,,,,,,,,,,,,
,,,,,,,,,,,,6050edc9b0fa3d391dae2ffe,20,Mężczyzna,2022-06-11_09h36.45.007,task,2021.1.4,Win32,60.04202942,6299f149e92ead563fba08ef,62a445e90dd4b8aff0838d9e,pgsxdd,"[""p"",""g"",""s"",""x"",""d"",""d""]","[0.7557999999970377,1.1502999999970314,1.4697000000030016,1.8165999999940539,2.7497999999970375,2.958500000000015,3.2859000000059666]",0,PGXSZDD,13,0,13,0,1,,,,,,,,,,,,,,,,,,,,,,,,,,,,,,,,,,,,,,,,,,,,,,,,,,,,,,,,,,,,,,,,,,,,,,,,,,,,,,,,,,,,,,,,,,,
,,,,,,0,0,0,0,1,X V Q F H G B L J M P D K C T S W R N Z,6050edc9b0fa3d391dae2ffe,20,Mężczyzna,2022-06-11_09h36.45.007,task,2021.1.4,Win32,60.04202942,6299f149e92ead563fba08ef,62a445e90dd4b8aff0838d9e,,,,,,,,,,,,,,,,,,,,,,,,,,,,,,,,,,,,,,,,,,,,,,,,,,,,,,,,,,,,,,,,,,,,,,,,,,,,,,,,,,,,,,,,,,,,,,,,,,,,,
,,,,,,1,0,1,0,1,X V Q F H G B L J M P D K C T S W R N Z,6050edc9b0fa3d391dae2ffe,20,Mężczyzna,2022-06-11_09h36.45.007,task,2021.1.4,Win32,60.04202942,6299f149e92ead563fba08ef,62a445e90dd4b8aff0838d9e,,,,,,,,,,,,,,,,,,,,,,,,,,,,,,,,,,,,,,,,,,,,,,,,,,,,,,,,,,,,,,,,,,,,,,,,,,,,,,,,,,,,,,,,,,,,,,,,,,,,,
,,,,,,2,0,2,0,1,X V Q F H G B L J M P D K C T S W R N Z,6050edc9b0fa3d391dae2ffe,20,Mężczyzna,2022-06-11_09h36.45.007,task,2021.1.4,Win32,60.04202942,6299f149e92ead563fba08ef,62a445e90dd4b8aff0838d9e,,,,,,,,,,,,,,,,,,,,,,,,,,,,,,,,,,,,,,,,,,,,,,,,,,,,,,,,,,,,,,,,,,,,,,,,,,,,,,,,,,,,,,,,,,,,,,,,,,,,,
,,,,,,3,0,3,0,1,X V Q F H G B L J M P D K C T S W R N Z,6050edc9b0fa3d391dae2ffe,20,Mężczyzna,2022-06-11_09h36.45.007,task,2021.1.4,Win32,60.04202942,6299f149e92ead563fba08ef,62a445e90dd4b8aff0838d9e,,,,,,,,,,,,,,,,,,,,,,,,,,,,,,,,,,,,,,,,,,,,,,,,,,,,,,,,,,,,,,,,,,,,,,,,,,,,,,,,,,,,,,,,,,,,,,,,,,,,,
,,,,,,4,0,4,0,1,X V Q F H G B L J M P D K C T S W R N Z,6050edc9b0fa3d391dae2ffe,20,Mężczyzna,2022-06-11_09h36.45.007,task,2021.1.4,Win32,60.04202942,6299f149e92ead563fba08ef,62a445e90dd4b8aff0838d9e,,,,,,,,,,,,,,,,,,,,,,,,,,,,,,,,,,,,,,,,,,,,,,,,,,,,,,,,,,,,,,,,,,,,,,,,,,,,,,,,,,,,,,,,,,,,,,,,,,,,,
,,,,,,5,0,5,0,1,X V Q F H G B L J M P D K C T S W R N Z,6050edc9b0fa3d391dae2ffe,20,Mężczyzna,2022-06-11_09h36.45.007,task,2021.1.4,Win32,60.04202942,6299f149e92ead563fba08ef,62a445e90dd4b8aff0838d9e,,,,,,,,,,,,,,,,,,,,,,,,,,,,,,,,,,,,,,,,,,,,,,,,,,,,,,,,,,,,,,,,,,,,,,,,,,,,,,,,,,,,,,,,,,,,,,,,,,,,,
,,,,,,6,0,6,0,1,X V Q F H G B L J M P D K C T S W R N Z,6050edc9b0fa3d391dae2ffe,20,Mężczyzna,2022-06-11_09h36.45.007,task,2021.1.4,Win32,60.04202942,6299f149e92ead563fba08ef,62a445e90dd4b8aff0838d9e,,,,,,,,,,,,,,,,,,,,,,,,,,,,,,,,,,,,,,,,,,,,,,,,,,,,,,,,,,,,,,,,,,,,,,,,,,,,,,,,,,,,,,,,,,,,,,,,,,,,,
,,,,,,,,,,,,6050edc9b0fa3d391dae2ffe,20,Mężczyzna,2022-06-11_09h36.45.007,task,2021.1.4,Win32,60.04202942,6299f149e92ead563fba08ef,62a445e90dd4b8aff0838d9e,wdhkn,"[""w"",""d"",""h"",""k"",""n""]","[1.0681000000089398,1.2579000000059466,1.516999999999996,1.7374000000059482,1.9331000000089489,2.0861000000089405]",0,WDGWHNK,14,0,14,0,1,,,,,,,,,,,,,,,,,,,,,,,,,,,,,,,,,,,,,,,,,,,,,,,,,,,,,,,,,,,,,,,,,,,,,,,,,,,,,,,,,,,,,,,,,,,
,,,,,,,,,,,,6050edc9b0fa3d391dae2ffe,20,Mężczyzna,2022-06-11_09h36.45.007,task,2021.1.4,Win32,60.04202942,6299f149e92ead563fba08ef,62a445e90dd4b8aff0838d9e,,,,,,,,,,,space,5.3005,9,"[""9""]",1,[5.594500000000011],[5.594500000000011],0,0,0,9,1,Practice,10,(20/2) - 1,9,,,,,,,,,,,,,,,,,,,,,,,,,,,,,,,,,,,,,,,,,,,,,,,,,,,,,,,,,,,,,,,,,,,,,,,,,,,
,,,,,,,,,,,,6050edc9b0fa3d391dae2ffe,20,Mężczyzna,2022-06-11_09h36.45.007,task,2021.1.4,Win32,60.04202942,6299f149e92ead563fba08ef,62a445e90dd4b8aff0838d9e,,,,,,,,,,,,,3,"[""3""]",1,[2.342599999994036],"[5.594500000000011,2.342599999994036]",0,1,1,3,1,Practice,4,(8/4) + 1,3,,,,,,,,,,,,,,,,,,,,,,,,,,,,,,,,,,,,,,,,,,,,,,,,,,,,,,,,,,,,,,,,,,,,,,,,,,,
,,,,,,,,,,,,6050edc9b0fa3d391dae2ffe,20,Mężczyzna,2022-06-11_09h36.45.007,task,2021.1.4,Win32,60.04202942,6299f149e92ead563fba08ef,62a445e90dd4b8aff0838d9e,,,,,,,,,,,,,8,"[""8""]",1,[1.916799999997039],"[5.594500000000011,2.342599999994036,1.916799999997039]",0,2,2,8,1,Practice,9,(3x3) - 1,8,,,,,,,,,,,,,,,,,,,,,,,,,,,,,,,,,,,,,,,,,,,,,,,,,,,,,,,,,,,,,,,,,,,,,,,,,,,
,,,,,,,,,,,,6050edc9b0fa3d391dae2ffe,20,Mężczyzna,2022-06-11_09h36.45.007,task,2021.1.4,Win32,60.04202942,6299f149e92ead563fba08ef,62a445e90dd4b8aff0838d9e,,,,,,,,,,,,,5,"[""5""]",1,[2.7502000000029625],"[5.594500000000011,2.342599999994036,1.916799999997039,2.7502000000029625]",0,3,3,5,1,Practice,6,(4/2) + 3,5,,,,,,,,,,,,,,,,,,,,,,,,,,,,,,,,,,,,,,,,,,,,,,,,,,,,,,,,,,,,,,,,,,,,,,,,,,,
,,,,,,,,,,,,6050edc9b0fa3d391dae2ffe,20,Mężczyzna,2022-06-11_09h36.45.007,task,2021.1.4,Win32,60.04202942,6299f149e92ead563fba08ef,62a445e90dd4b8aff0838d9e,,,,,,,,,,,,,1,"[""1""]",1,[2.185599999994025],"[5.594500000000011,2.342599999994036,1.916799999997039,2.7502000000029625,2.185599999994025]",0,4,4,1,1,Practice,2,(4x4) - 15,1,,,,,,,,,,,,,,,,,,,,,,,,,,,,,,,,,,,,,,,,,,,,,,,,,,,,,,,,,,,,,,,,,,,,,,,,,,,
,,,,,,,,,,,,6050edc9b0fa3d391dae2ffe,20,Mężczyzna,2022-06-11_09h36.45.007,task,2021.1.4,Win32,60.04202942,6299f149e92ead563fba08ef,62a445e90dd4b8aff0838d9e,,,,,,,,,,,,,6,"[""6""]",1,[2.159599999994043],"[5.594500000000011,2.342599999994036,1.916799999997039,2.7502000000029625,2.185599999994025,2.159599999994043]",0,5,5,6,1,Practice,7,(25/5) + 1,6,,,,,,,,,,,,,,,,,,,,,,,,,,,,,,,,,,,,,,,,,,,,,,,,,,,,,,,,,,,,,,,,,,,,,,,,,,,
,,,,,,,,,,,,6050edc9b0fa3d391dae2ffe,20,Mężczyzna,2022-06-11_09h36.45.007,task,2021.1.4,Win32,60.04202942,6299f149e92ead563fba08ef,62a445e90dd4b8aff0838d9e,,,,,,,,,,,,,7,"[""7""]",1,[4.3832999999970355],"[5.594500000000011,2.342599999994036,1.916799999997039,2.7502000000029625,2.185599999994025,2.159599999994043,4.3832999999970355]",0,6,6,7,1,Practice,8,(5x5) - 18,7,,,,,,,,,,,,,,,,,,,,,,,,,,,,,,,,,,,,,,,,,,,,,,,,,,,,,,,,,,,,,,,,,,,,,,,,,,,
,,,,,,,,,,,,6050edc9b0fa3d391dae2ffe,20,Mężczyzna,2022-06-11_09h36.45.007,task,2021.1.4,Win32,60.04202942,6299f149e92ead563fba08ef,62a445e90dd4b8aff0838d9e,,,,,,,,,,,,,0,"[""0""]",1,[1.9342999999970232],"[5.594500000000011,2.342599999994036,1.916799999997039,2.7502000000029625,2.185599999994025,2.159599999994043,4.3832999999970355,1.9342999999970232]",0,7,7,0,1,Practice,1,(3x3) -  9,0,,,,,,,,,,,,,,,,,,,,,,,,,,,,,,,,,,,,,,,,,,,,,,,,,,,,,,,,,,,,,,,,,,,,,,,,,,,
,,,,,,,,,,,,6050edc9b0fa3d391dae2ffe,20,Mężczyzna,2022-06-11_09h36.45.007,task,2021.1.4,Win32,60.04202942,6299f149e92ead563fba08ef,62a445e90dd4b8aff0838d9e,,,,,,,,,,,,,2,"[""2""]",1,[2.090400000005957],"[5.594500000000011,2.342599999994036,1.916799999997039,2.7502000000029625,2.185599999994025,2.159599999994043,4.3832999999970355,1.9342999999970232,2.090400000005957]",0,8,8,2,1,Practice,3,(4x4) - 14,2,,,,,,,,,,,,,,,,,,,,,,,,,,,,,,,,,,,,,,,,,,,,,,,,,,,,,,,,,,,,,,,,,,,,,,,,,,,
,,,,,,,,,,,,6050edc9b0fa3d391dae2ffe,20,Mężczyzna,2022-06-11_09h36.45.007,task,2021.1.4,Win32,60.04202942,6299f149e92ead563fba08ef,62a445e90dd4b8aff0838d9e,,,,,,,,,,,,,4,"[""4""]",1,[4.183400000005946],"[5.594500000000011,2.342599999994036,1.916799999997039,2.7502000000029625,2.185599999994025,2.159599999994043,4.3832999999970355,1.9342999999970232,2.090400000005957,4.183400000005946]",0,9,9,4,1,Practice,5,(2x6) - 8,4,,,,,,,,,,,,,,,,,,,,,,,,,,,,,,,,,,,,,,,,,,,,,,,,,,,,,,,,,,,,,,,,,,,,,,,,,,,
,,,,,,,,,,,,6050edc9b0fa3d391dae2ffe,20,Mężczyzna,2022-06-11_09h36.45.007,task,2021.1.4,Win32,60.04202942,6299f149e92ead563fba08ef,62a445e90dd4b8aff0838d9e,,,,,,,,,,,,,,,,,,,,,,,,,,,1,29.5407,1.96938,24.72093822,1.283768884,5.281503721,space,3.117,0,0,0,0,1,,,,,,,,,,,,,,,,,,,,,,,,,,,,,,,,,,,,,,,,,,,,,,,,,,,,,,,,,,,,,,
,,,,,,,,,,,,6050edc9b0fa3d391dae2ffe,20,Mężczyzna,2022-06-11_09h36.45.007,task,2021.1.4,Win32,60.04202942,6299f149e92ead563fba08ef,62a445e90dd4b8aff0838d9e,,,,,,,,,,,,,3,,,,,,,,,,Practice,4,(8/4) + 1,3,,,,,,,,,,,,,,space,12.9165,"[""3""]",1,[4.2169999999999845],1,0,0,0,3,1,,,,,,,,,,,,,,,,,,,,,,,,,,,,,,,,,,,,,,,,,,,,,,,,,,,
,,,,,,,,,,,X V Q F H G B L J M P D K C T S W R N Z,6050edc9b0fa3d391dae2ffe,20,Mężczyzna,2022-06-11_09h36.45.007,task,2021.1.4,Win32,60.04202942,6299f149e92ead563fba08ef,62a445e90dd4b8aff0838d9e,,,,,,,,,,,,,,,,,,,,,,,,,,,,,,,,,,,,,,,,,,,,,,,,,,,0,0,0,0,1,,,,,,,,,,,,,,,,,,,,,,,,,,,,,,,,,,,,,,,,,,,,,,
,,,,,,,,,,,,6050edc9b0fa3d391dae2ffe,20,Mężczyzna,2022-06-11_09h36.45.007,task,2021.1.4,Win32,60.04202942,6299f149e92ead563fba08ef,62a445e90dd4b8aff0838d9e,,,,,,,,,,,,,9,,,,,,,,,,Practice,10,(20/2) - 1,9,,,,,,,,,,,,,,,,"[""9""]",1,[2.833500000000015],1,0,0,0,9,1,,,,,,,,,,,,,,,,,,,,,,,,,,,,,,,,,,,,,,,,,,,,,,,,,,,
,,,,,,,,,,,X V Q F H G B L J M P D K C T S W R N Z,6050edc9b0fa3d391dae2ffe,20,Mężczyzna,2022-06-11_09h36.45.007,task,2021.1.4,Win32,60.04202942,6299f149e92ead563fba08ef,62a445e90dd4b8aff0838d9e,,,,,,,,,,,,,,,,,,,,,,,,,,,,,,,,,,,,,,,,,,,,,,,,,,,1,0,1,0,1,,,,,,,,,,,,,,,,,,,,,,,,,,,,,,,,,,,,,,,,,,,,,,
,,,,,,,,,,,,6050edc9b0fa3d391dae2ffe,20,Mężczyzna,2022-06-11_09h36.45.007,task,2021.1.4,Win32,60.04202942,6299f149e92ead563fba08ef,62a445e90dd4b8aff0838d9e,,,,,,,,,,,,,,,,,,,,,,,,,,,,,,,,,,,,,,,,,,,,,,,,,,,,,,,,zc,"[""z"",""c""]",0,"[1.9388000000119519,2.152500000000032,3.0759000000059586]",1,0,0,0,0,1,,,,,,,,,,,,,,,,,,,,,,,,,,,,,,,,,,,,
,,,,,,,,,,,,6050edc9b0fa3d391dae2ffe,20,Mężczyzna,2022-06-11_09h36.45.007,task,2021.1.4,Win32,60.04202942,6299f149e92ead563fba08ef,62a445e90dd4b8aff0838d9e,,,,,,,,,,,,,4,,,,,,,,,,Practice,8,(5x5) - 18,7,,,,,,,,,,,,,,,,"[""4""]",0,[2.2237000000030207],0,0,0,0,7,1,,,,,,,,,,,,,,,,,,,,,,,,,,,,,,,,,,,,,,,,,,,,,,,,,,,
,,,,,,,,,,,,6050edc9b0fa3d391dae2ffe,20,Mężczyzna,2022-06-11_09h36.45.007,task,2021.1.4,Win32,60.04202942,6299f149e92ead563fba08ef,62a445e90dd4b8aff0838d9e,,,,,,,,,,,,,3,,,,,,,,,,Practice,4,(8/4) + 1,3,,,,,,,,,,,,,,,,"[""3""]",1,[2.5042000000029816],1,0,1,1,3,1,,,,,,,,,,,,,,,,,,,,,,,,,,,,,,,,,,,,,,,,,,,,,,,,,,,
,,,,,,,,,,,X V Q F H G B L J M P D K C T S W R N Z,6050edc9b0fa3d391dae2ffe,20,Mężczyzna,2022-06-11_09h36.45.007,task,2021.1.4,Win32,60.04202942,6299f149e92ead563fba08ef,62a445e90dd4b8aff0838d9e,,,,,,,,,,,,,,,,,,,,,,,,,,,,,,,,,,,,,,,,,,,,,,,,,,,0,0,0,0,1,,,,,,,,,,,,,,,,,,,,,,,,,,,,,,,,,,,,,,,,,,,,,,
,,,,,,,,,,,,6050edc9b0fa3d391dae2ffe,20,Mężczyzna,2022-06-11_09h36.45.007,task,2021.1.4,Win32,60.04202942,6299f149e92ead563fba08ef,62a445e90dd4b8aff0838d9e,,,,,,,,,,,,,,,,,,,,,,,Practice,5,(2x6) - 8,4,,,,,,,,,,,,,,,,,0,,0,0,0,0,4,1,,,,,,,,,,,,,,,,,,,,,,,,,,,,,,,,,,,,,,,,,,,,,,,,,,,
,,,,,,,,,,,,6050edc9b0fa3d391dae2ffe,20,Mężczyzna,2022-06-11_09h36.45.007,task,2021.1.4,Win32,60.04202942,6299f149e92ead563fba08ef,62a445e90dd4b8aff0838d9e,,,,,,,,,,,,,4,,,,,,,,,,Practice,8,(5x5) - 18,7,,,,,,,,,,,,,,,,"[""4""]",0,[1.8695000000000164],0,0,1,1,7,1,,,,,,,,,,,,,,,,,,,,,,,,,,,,,,,,,,,,,,,,,,,,,,,,,,,
,,,,,,,,,,,,6050edc9b0fa3d391dae2ffe,20,Mężczyzna,2022-06-11_09h36.45.007,task,2021.1.4,Win32,60.04202942,6299f149e92ead563fba08ef,62a445e90dd4b8aff0838d9e,,,,,,,,,,,,,2,,,,,,,,,,Practice,3,(4x4) - 14,2,,,,,,,,,,,,,,,,"[""2""]",1,[1.7837000000029661],1,0,2,2,2,1,,,,,,,,,,,,,,,,,,,,,,,,,,,,,,,,,,,,,,,,,,,,,,,,,,,
,,,,,,,,,,,X V Q F H G B L J M P D K C T S W R N Z,6050edc9b0fa3d391dae2ffe,20,Mężczyzna,2022-06-11_09h36.45.007,task,2021.1.4,Win32,60.04202942,6299f149e92ead563fba08ef,62a445e90dd4b8aff0838d9e,,,,,,,,,,,,,,,,,,,,,,,,,,,,,,,,,,,,,,,,,,,,,,,,,,,1,0,1,0,1,,,,,,,,,,,,,,,,,,,,,,,,,,,,,,,,,,,,,,,,,,,,,,
,,,,,,,,,,,,6050edc9b0fa3d391dae2ffe,20,Mężczyzna,2022-06-11_09h36.45.007,task,2021.1.4,Win32,60.04202942,6299f149e92ead563fba08ef,62a445e90dd4b8aff0838d9e,,,,,,,,,,,,,,,,,,,,,,,,,,,,,,,,,,,,,,,,,,,,,,,,,,,,,,,,ng,"[""n"",""g""]",0,"[2.9332999999970184,3.033700000002966,3.471600000008948]",1,1,0,1,0,1,,,,,,,,,,,,,,,,,,,,,,,,,,,,,,,,,,,,
,,,,,,,,,,,,6050edc9b0fa3d391dae2ffe,20,Mężczyzna,2022-06-11_09h36.45.007,task,2021.1.4,Win32,60.04202942,6299f149e92ead563fba08ef,62a445e90dd4b8aff0838d9e,,,,,,,,,,,,,6,,,,,,,,,,Practice,7,(25/5) + 1,6,,,,,,,,,,,,,,,,"[""6""]",1,[2.2002999999970143],1,0,0,0,6,1,,,,,,,,,,,,,,,,,,,,,,,,,,,,,,,,,,,,,,,,,,,,,,,,,,,
,,,,,,,,,,,X V Q F H G B L J M P D K C T S W R N Z,6050edc9b0fa3d391dae2ffe,20,Mężczyzna,2022-06-11_09h36.45.007,task,2021.1.4,Win32,60.04202942,6299f149e92ead563fba08ef,62a445e90dd4b8aff0838d9e,,,,,,,,,,,,,,,,,,,,,,,,,,,,,,,,,,,,,,,,,,,,,,,,,,,0,0,0,0,1,,,,,,,,,,,,,,,,,,,,,,,,,,,,,,,,,,,,,,,,,,,,,,
,,,,,,,,,,,,6050edc9b0fa3d391dae2ffe,20,Mężczyzna,2022-06-11_09h36.45.007,task,2021.1.4,Win32,60.04202942,6299f149e92ead563fba08ef,62a445e90dd4b8aff0838d9e,,,,,,,,,,,,,7,,,,,,,,,,Practice,8,(5x5) - 18,7,,,,,,,,,,,,,,,,"[""7""]",1,[3.9174999999999613],1,0,0,0,7,1,,,,,,,,,,,,,,,,,,,,,,,,,,,,,,,,,,,,,,,,,,,,,,,,,,,
,,,,,,,,,,,X V Q F H G B L J M P D K C T S W R N Z,6050edc9b0fa3d391dae2ffe,20,Mężczyzna,2022-06-11_09h36.45.007,task,2021.1.4,Win32,60.04202942,6299f149e92ead563fba08ef,62a445e90dd4b8aff0838d9e,,,,,,,,,,,,,,,,,,,,,,,,,,,,,,,,,,,,,,,,,,,,,,,,,,,1,0,1,0,1,,,,,,,,,,,,,,,,,,,,,,,,,,,,,,,,,,,,,,,,,,,,,,
,,,,,,,,,,,,6050edc9b0fa3d391dae2ffe,20,Mężczyzna,2022-06-11_09h36.45.007,task,2021.1.4,Win32,60.04202942,6299f149e92ead563fba08ef,62a445e90dd4b8aff0838d9e,,,,,,,,,,,,,,,,,,,,,,,,,,,,,,,,,,,,,,,,,,,,,,,,,,,,,,,,gf,"[""g"",""f""]",0,"[1.55590000000592,1.649900000005914,2.1333000000119]",1,2,0,2,0,1,,,,,,,,,,,,,,,,,,,,,,,,,,,,,,,,,,,,
,,,,,,,,,,,,6050edc9b0fa3d391dae2ffe,20,Mężczyzna,2022-06-11_09h36.45.007,task,2021.1.4,Win32,60.04202942,6299f149e92ead563fba08ef,62a445e90dd4b8aff0838d9e,,,,,,,,,,,,,9,,,,,,,,,,Task,16,(3x8) - 15,9,,,,,,,,,,,,,,,,,,,1,,,,,,,,,,,,,,,,,,,,,space,14.4653,"[""9""]",1,[5.170200000002978],0,0,0,15,1,,,,,,,,,,,,,,,,,,,,,,,,,,
,,,,,,,,,,,X V Q F H G B L J M P D K C T S W R N Z,6050edc9b0fa3d391dae2ffe,20,Mężczyzna,2022-06-11_09h36.45.007,task,2021.1.4,Win32,60.04202942,6299f149e92ead563fba08ef,62a445e90dd4b8aff0838d9e,,,,,,,,,,,,,,,,,,,,,,,,,,,,,,,,,,,,,,,,,,,,,,,,,,,,,,,,,,,,,,,,,,,,,,,,,,,,0,0,0,0,1,,,,,,,,,,,,,,,,,,,,,
,,,,,,,,,,,,6050edc9b0fa3d391dae2ffe,20,Mężczyzna,2022-06-11_09h36.45.007,task,2021.1.4,Win32,60.04202942,6299f149e92ead563fba08ef,62a445e90dd4b8aff0838d9e,,,,,,,,,,,,,5,,,,,,,,,,Task,36,(8/4) + 3,5,,,,,,,,,,,,,,,,,,,1,,,,,,,,,,,,,,,,,,,,,,,"[""5""]",1,[2.690999999999974],0,0,0,35,1,,,,,,,,,,,,,,,,,,,,,,,,,,
,,,,,,,,,,,X V Q F H G B L J M P D K C T S W R N Z,6050edc9b0fa3d391dae2ffe,20,Mężczyzna,2022-06-11_09h36.45.007,task,2021.1.4,Win32,60.04202942,6299f149e92ead563fba08ef,62a445e90dd4b8aff0838d9e,,,,,,,,,,,,,,,,,,,,,,,,,,,,,,,,,,,,,,,,,,,,,,,,,,,,,,,,,,,,,,,,,,,,,,,,,,,,1,0,1,0,1,,,,,,,,,,,,,,,,,,,,,
,,,,,,,,,,,,6050edc9b0fa3d391dae2ffe,20,Mężczyzna,2022-06-11_09h36.45.007,task,2021.1.4,Win32,60.04202942,6299f149e92ead563fba08ef,62a445e90dd4b8aff0838d9e,,,,,,,,,,,,,,,,,,,,,,,,,,,,,,,,,,,,,,,,,,,,,,,,,,,,,,,,,,,,,,,,,,,,,,,,,,,,,,,,,zm,"[""z"",""m""]",0,"[1.2700000000000387,1.4897999999970466,1.8020999999940273]",1,ZM,0,0,0,0,1,,,,,,,,,,
,,,,,,,,,,,,6050edc9b0fa3d391dae2ffe,20,Mężczyzna,2022-06-11_09h36.45.007,task,2021.1.4,Win32,60.04202942,6299f149e92ead563fba08ef,62a445e90dd4b8aff0838d9e,,,,,,,,,,,,,2,,,,,,,,,,Task,26,(2x9) - 16,2,,,,,,,,,,,,,,,,,,,1,,,,,,,,,,,,,,,,,,,,,,,"[""2""]",1,[2.601800000011906],0,0,0,25,1,,,,,,,,,,,,,,,,,,,,,,,,,,
,,,,,,,,,,,X V Q F H G B L J M P D K C T S W R N Z,6050edc9b0fa3d391dae2ffe,20,Mężczyzna,2022-06-11_09h36.45.007,task,2021.1.4,Win32,60.04202942,6299f149e92ead563fba08ef,62a445e90dd4b8aff0838d9e,,,,,,,,,,,,,,,,,,,,,,,,,,,,,,,,,,,,,,,,,,,,,,,,,,,,,,,,,,,,,,,,,,,,,,,,,,,,0,0,0,0,1,,,,,,,,,,,,,,,,,,,,,
,,,,,,,,,,,,6050edc9b0fa3d391dae2ffe,20,Mężczyzna,2022-06-11_09h36.45.007,task,2021.1.4,Win32,60.04202942,6299f149e92ead563fba08ef,62a445e90dd4b8aff0838d9e,,,,,,,,,,,,,6,,,,,,,,,,Task,37,(3/3) + 5,6,,,,,,,,,,,,,,,,,,,1,,,,,,,,,,,,,,,,,,,,,,,"[""6""]",1,[2.6495999999940523],0,0,0,36,1,,,,,,,,,,,,,,,,,,,,,,,,,,
,,,,,,,,,,,X V Q F H G B L J M P D K C T S W R N Z,6050edc9b0fa3d391dae2ffe,20,Mężczyzna,2022-06-11_09h36.45.007,task,2021.1.4,Win32,60.04202942,6299f149e92ead563fba08ef,62a445e90dd4b8aff0838d9e,,,,,,,,,,,,,,,,,,,,,,,,,,,,,,,,,,,,,,,,,,,,,,,,,,,,,,,,,,,,,,,,,,,,,,,,,,,,1,0,1,0,1,,,,,,,,,,,,,,,,,,,,,
,,,,,,,,,,,,6050edc9b0fa3d391dae2ffe,20,Mężczyzna,2022-06-11_09h36.45.007,task,2021.1.4,Win32,60.04202942,6299f149e92ead563fba08ef,62a445e90dd4b8aff0838d9e,,,,,,,,,,,,,4,,,,,,,,,,Task,28,(2x5) - 6,4,,,,,,,,,,,,,,,,,,,1,,,,,,,,,,,,,,,,,,,,,,,"[""4""]",1,[2.4390000000000214],0,0,0,27,1,,,,,,,,,,,,,,,,,,,,,,,,,,
,,,,,,,,,,,X V Q F H G B L J M P D K C T S W R N Z,6050edc9b0fa3d391dae2ffe,20,Mężczyzna,2022-06-11_09h36.45.007,task,2021.1.4,Win32,60.04202942,6299f149e92ead563fba08ef,62a445e90dd4b8aff0838d9e,,,,,,,,,,,,,,,,,,,,,,,,,,,,,,,,,,,,,,,,,,,,,,,,,,,,,,,,,,,,,,,,,,,,,,,,,,,,2,0,2,0,1,,,,,,,,,,,,,,,,,,,,,
,,,,,,,,,,,,6050edc9b0fa3d391dae2ffe,20,Mężczyzna,2022-06-11_09h36.45.007,task,2021.1.4,Win32,60.04202942,6299f149e92ead563fba08ef,62a445e90dd4b8aff0838d9e,,,,,,,,,,,,,,,,,,,,,,,,,,,,,,,,,,,,,,,,,,,,,,,,,,,,,,,,,,,,,,,,,,,,,,,,,,,,,,,,,twp,"[""t"",""w"",""p""]",0,"[1.117099999994025,1.2170000000000414,1.4354999999999905,1.8172000000029698]",1,TWP,1,0,1,0,1,,,,,,,,,,
,,,,,,,,,,,,6050edc9b0fa3d391dae2ffe,20,Mężczyzna,2022-06-11_09h36.45.007,task,2021.1.4,Win32,60.04202942,6299f149e92ead563fba08ef,62a445e90dd4b8aff0838d9e,,,,,,,,,,,,,8,,,,,,,,,,Task,39,(5x3) - 7,8,,,,,,,,,,,,,,,,,,,1,,,,,,,,,,,,,,,,,,,,,,,"[""8""]",1,[3.5743999999910443],0,0,0,38,1,,,,,,,,,,,,,,,,,,,,,,,,,,
,,,,,,,,,,,X V Q F H G B L J M P D K C T S W R N Z,6050edc9b0fa3d391dae2ffe,20,Mężczyzna,2022-06-11_09h36.45.007,task,2021.1.4,Win32,60.04202942,6299f149e92ead563fba08ef,62a445e90dd4b8aff0838d9e,,,,,,,,,,,,,,,,,,,,,,,,,,,,,,,,,,,,,,,,,,,,,,,,,,,,,,,,,,,,,,,,,,,,,,,,,,,,0,0,0,0,1,,,,,,,,,,,,,,,,,,,,,
,,,,,,,,,,,,6050edc9b0fa3d391dae2ffe,20,Mężczyzna,2022-06-11_09h36.45.007,task,2021.1.4,Win32,60.04202942,6299f149e92ead563fba08ef,62a445e90dd4b8aff0838d9e,,,,,,,,,,,,,,,,,,,,,,,Task,15,(3x7) - 13,8,,,,,,,,,,,,,,,,,,,0,,,,,,,,,,,,,,,,,,,,,,,,0,,0,0,0,14,1,,,,,,,,,,,,,,,,,,,,,,,,,,
,,,,,,,,,,,,6050edc9b0fa3d391dae2ffe,20,Mężczyzna,2022-06-11_09h36.45.007,task,2021.1.4,Win32,60.04202942,6299f149e92ead563fba08ef,62a445e90dd4b8aff0838d9e,,,,,,,,,,,,,5,,,,,,,,,,Task,36,(8/4) + 3,5,,,,,,,,,,,,,,,,,,,1,,,,,,,,,,,,,,,,,,,,,,,"[""5""]",1,[3.6874000000059937],0,1,1,35,1,,,,,,,,,,,,,,,,,,,,,,,,,,
,,,,,,,,,,,X V Q F H G B L J M P D K C T S W R N Z,6050edc9b0fa3d391dae2ffe,20,Mężczyzna,2022-06-11_09h36.45.007,task,2021.1.4,Win32,60.04202942,6299f149e92ead563fba08ef,62a445e90dd4b8aff0838d9e,,,,,,,,,,,,,,,,,,,,,,,,,,,,,,,,,,,,,,,,,,,,,,,,,,,,,,,,,,,,,,,,,,,,,,,,,,,,1,0,1,0,1,,,,,,,,,,,,,,,,,,,,,
,,,,,,,,,,,,6050edc9b0fa3d391dae2ffe,20,Mężczyzna,2022-06-11_09h36.45.007,task,2021.1.4,Win32,60.04202942,6299f149e92ead563fba08ef,62a445e90dd4b8aff0838d9e,,,,,,,,,,,,,5,,,,,,,,,,Task,29,(3x8) - 19 ,5,,,,,,,,,,,,,,,,,,,1,,,,,,,,,,,,,,,,,,,,,,,"[""5""]",1,[3.6667999999970107],0,0,0,28,1,,,,,,,,,,,,,,,,,,,,,,,,,,
,,,,,,,,,,,X V Q F H G B L J M P D K C T S W R N Z,6050edc9b0fa3d391dae2ffe,20,Mężczyzna,2022-06-11_09h36.45.007,task,2021.1.4,Win32,60.04202942,6299f149e92ead563fba08ef,62a445e90dd4b8aff0838d9e,,,,,,,,,,,,,,,,,,,,,,,,,,,,,,,,,,,,,,,,,,,,,,,,,,,,,,,,,,,,,,,,,,,,,,,,,,,,2,0,2,0,1,,,,,,,,,,,,,,,,,,,,,
,,,,,,,,,,,,6050edc9b0fa3d391dae2ffe,20,Mężczyzna,2022-06-11_09h36.45.007,task,2021.1.4,Win32,60.04202942,6299f149e92ead563fba08ef,62a445e90dd4b8aff0838d9e,,,,,,,,,,,,,9,,,,,,,,,,Task,7,(3x7) - 12,9,,,,,,,,,,,,,,,,,,,1,,,,,,,,,,,,,,,,,,,,,,,"[""9""]",1,[5],0,0,0,6,1,,,,,,,,,,,,,,,,,,,,,,,,,,
,,,,,,,,,,,X V Q F H G B L J M P D K C T S W R N Z,6050edc9b0fa3d391dae2ffe,20,Mężczyzna,2022-06-11_09h36.45.007,task,2021.1.4,Win32,60.04202942,6299f149e92ead563fba08ef,62a445e90dd4b8aff0838d9e,,,,,,,,,,,,,,,,,,,,,,,,,,,,,,,,,,,,,,,,,,,,,,,,,,,,,,,,,,,,,,,,,,,,,,,,,,,,3,0,3,0,1,,,,,,,,,,,,,,,,,,,,,
,,,,,,,,,,,,6050edc9b0fa3d391dae2ffe,20,Mężczyzna,2022-06-11_09h36.45.007,task,2021.1.4,Win32,60.04202942,6299f149e92ead563fba08ef,62a445e90dd4b8aff0838d9e,,,,,,,,,,,,,,,,,,,,,,,,,,,,,,,,,,,,,,,,,,,,,,,,,,,,,,,,,,,,,,,,,,,,,,,,,,,,,,,,,qbh,"[""q"",""b"",""h""]",0,"[1.9667000000029589,2.4862999999970157,3.816799999996988,3.9065999999940004]",0,QBZH,2,0,2,0,1,,,,,,,,,,
,,,,,,,,,,,,6050edc9b0fa3d391dae2ffe,20,Mężczyzna,2022-06-11_09h36.45.007,task,2021.1.4,Win32,60.04202942,6299f149e92ead563fba08ef,62a445e90dd4b8aff0838d9e,,,,,,,,,,,,,1,,,,,,,,,,Task,1,(12/6) - 1,1,,,,,,,,,,,,,,,,,,,1,,,,,,,,,,,,,,,,,,,,,,,"[""1""]",1,[3.956400000005999],0,0,0,0,1,,,,,,,,,,,,,,,,,,,,,,,,,,
,,,,,,,,,,,X V Q F H G B L J M P D K C T S W R N Z,6050edc9b0fa3d391dae2ffe,20,Mężczyzna,2022-06-11_09h36.45.007,task,2021.1.4,Win32,60.04202942,6299f149e92ead563fba08ef,62a445e90dd4b8aff0838d9e,,,,,,,,,,,,,,,,,,,,,,,,,,,,,,,,,,,,,,,,,,,,,,,,,,,,,,,,,,,,,,,,,,,,,,,,,,,,0,0,0,0,1,,,,,,,,,,,,,,,,,,,,,
,,,,,,,,,,,,6050edc9b0fa3d391dae2ffe,20,Mężczyzna,2022-06-11_09h36.45.007,task,2021.1.4,Win32,60.04202942,6299f149e92ead563fba08ef,62a445e90dd4b8aff0838d9e,,,,,,,,,,,,,6,,,,,,,,,,Task,37,(3/3) + 5,6,,,,,,,,,,,,,,,,,,,1,,,,,,,,,,,,,,,,,,,,,,,"[""6""]",1,[3.1840999999940323],0,0,0,36,1,,,,,,,,,,,,,,,,,,,,,,,,,,
,,,,,,,,,,,X V Q F H G B L J M P D K C T S W R N Z,6050edc9b0fa3d391dae2ffe,20,Mężczyzna,2022-06-11_09h36.45.007,task,2021.1.4,Win32,60.04202942,6299f149e92ead563fba08ef,62a445e90dd4b8aff0838d9e,,,,,,,,,,,,,,,,,,,,,,,,,,,,,,,,,,,,,,,,,,,,,,,,,,,,,,,,,,,,,,,,,,,,,,,,,,,,1,0,1,0,1,,,,,,,,,,,,,,,,,,,,,
,,,,,,,,,,,,6050edc9b0fa3d391dae2ffe,20,Mężczyzna,2022-06-11_09h36.45.007,task,2021.1.4,Win32,60.04202942,6299f149e92ead563fba08ef,62a445e90dd4b8aff0838d9e,,,,,,,,,,,,,3,,,,,,,,,,Task,27,(3/3) + 2,3,,,,,,,,,,,,,,,,,,,1,,,,,,,,,,,,,,,,,,,,,,,"[""3""]",1,[2],0,0,0,26,1,,,,,,,,,,,,,,,,,,,,,,,,,,
,,,,,,,,,,,X V Q F H G B L J M P D K C T S W R N Z,6050edc9b0fa3d391dae2ffe,20,Mężczyzna,2022-06-11_09h36.45.007,task,2021.1.4,Win32,60.04202942,6299f149e92ead563fba08ef,62a445e90dd4b8aff0838d9e,,,,,,,,,,,,,,,,,,,,,,,,,,,,,,,,,,,,,,,,,,,,,,,,,,,,,,,,,,,,,,,,,,,,,,,,,,,,2,0,2,0,1,,,,,,,,,,,,,,,,,,,,,
,,,,,,,,,,,,6050edc9b0fa3d391dae2ffe,20,Mężczyzna,2022-06-11_09h36.45.007,task,2021.1.4,Win32,60.04202942,6299f149e92ead563fba08ef,62a445e90dd4b8aff0838d9e,,,,,,,,,,,,,8,,,,,,,,,,Task,32,(8/2) + 4,8,,,,,,,,,,,,,,,,,,,1,,,,,,,,,,,,,,,,,,,,,,,"[""8""]",1,[4.5504999999999995],0,0,0,31,1,,,,,,,,,,,,,,,,,,,,,,,,,,
,,,,,,,,,,,X V Q F H G B L J M P D K C T S W R N Z,6050edc9b0fa3d391dae2ffe,20,Mężczyzna,2022-06-11_09h36.45.007,task,2021.1.4,Win32,60.04202942,6299f149e92ead563fba08ef,62a445e90dd4b8aff0838d9e,,,,,,,,,,,,,,,,,,,,,,,,,,,,,,,,,,,,,,,,,,,,,,,,,,,,,,,,,,,,,,,,,,,,,,,,,,,,3,0,3,0,1,,,,,,,,,,,,,,,,,,,,,
,,,,,,,,,,,,6050edc9b0fa3d391dae2ffe,20,Mężczyzna,2022-06-11_09h36.45.007,task,2021.1.4,Win32,60.04202942,6299f149e92ead563fba08ef,62a445e90dd4b8aff0838d9e,,,,,,,,,,,,,,,,,,,,,,,,,,,,,,,,,,,,,,,,,,,,,,,,,,,,,,,,,,,,,,,,,,,,,,,,,,,,,,,,,xmwl,"[""x"",""m"",""w"",""l""]",0,"[0.9333000000119682,1.3166000000089753,1.635900000005961,1.9665000000000532,2.258900000006008]",1,XMWL,3,0,3,0,1,,,,,,,,,,
,,,,,,,,,,,,6050edc9b0fa3d391dae2ffe,20,Mężczyzna,2022-06-11_09h36.45.007,task,2021.1.4,Win32,60.04202942,6299f149e92ead563fba08ef,62a445e90dd4b8aff0838d9e,,,,,,,,,,,,,2,,,,,,,,,,Task,2,(2x2) - 2,2,,,,,,,,,,,,,,,,,,,1,,,,,,,,,,,,,,,,,,,,,,,"[""2""]",1,[3.116599999994037],0,0,0,1,1,,,,,,,,,,,,,,,,,,,,,,,,,,
,,,,,,,,,,,X V Q F H G B L J M P D K C T S W R N Z,6050edc9b0fa3d391dae2ffe,20,Mężczyzna,2022-06-11_09h36.45.007,task,2021.1.4,Win32,60.04202942,6299f149e92ead563fba08ef,62a445e90dd4b8aff0838d9e,,,,,,,,,,,,,,,,,,,,,,,,,,,,,,,,,,,,,,,,,,,,,,,,,,,,,,,,,,,,,,,,,,,,,,,,,,,,0,0,0,0,1,,,,,,,,,,,,,,,,,,,,,
,,,,,,,,,,,,6050edc9b0fa3d391dae2ffe,20,Mężczyzna,2022-06-11_09h36.45.007,task,2021.1.4,Win32,60.04202942,6299f149e92ead563fba08ef,62a445e90dd4b8aff0838d9e,,,,,,,,,,,,,4,,,,,,,,,,Task,4,(1x5) - 1,4,,,,,,,,,,,,,,,,,,,1,,,,,,,,,,,,,,,,,,,,,,,"[""4""]",1,[2],0,0,0,3,1,,,,,,,,,,,,,,,,,,,,,,,,,,
,,,,,,,,,,,X V Q F H G B L J M P D K C T S W R N Z,6050edc9b0fa3d391dae2ffe,20,Mężczyzna,2022-06-11_09h36.45.007,task,2021.1.4,Win32,60.04202942,6299f149e92ead563fba08ef,62a445e90dd4b8aff0838d9e,,,,,,,,,,,,,,,,,,,,,,,,,,,,,,,,,,,,,,,,,,,,,,,,,,,,,,,,,,,,,,,,,,,,,,,,,,,,1,0,1,0,1,,,,,,,,,,,,,,,,,,,,,
,,,,,,,,,,,,6050edc9b0fa3d391dae2ffe,20,Mężczyzna,2022-06-11_09h36.45.007,task,2021.1.4,Win32,60.04202942,6299f149e92ead563fba08ef,62a445e90dd4b8aff0838d9e,,,,,,,,,,,,,6,,,,,,,,,,Task,5,(2x3) + 0,6,,,,,,,,,,,,,,,,,,,1,,,,,,,,,,,,,,,,,,,,,,,"[""6""]",1,[2.6500999999940404],0,0,0,4,1,,,,,,,,,,,,,,,,,,,,,,,,,,
,,,,,,,,,,,X V Q F H G B L J M P D K C T S W R N Z,6050edc9b0fa3d391dae2ffe,20,Mężczyzna,2022-06-11_09h36.45.007,task,2021.1.4,Win32,60.04202942,6299f149e92ead563fba08ef,62a445e90dd4b8aff0838d9e,,,,,,,,,,,,,,,,,,,,,,,,,,,,,,,,,,,,,,,,,,,,,,,,,,,,,,,,,,,,,,,,,,,,,,,,,,,,2,0,2,0,1,,,,,,,,,,,,,,,,,,,,,
,,,,,,,,,,,,6050edc9b0fa3d391dae2ffe,20,Mężczyzna,2022-06-11_09h36.45.007,task,2021.1.4,Win32,60.04202942,6299f149e92ead563fba08ef,62a445e90dd4b8aff0838d9e,,,,,,,,,,,,,9,,,,,,,,,,Task,40,(7x2) - 5,9,,,,,,,,,,,,,,,,,,,1,,,,,,,,,,,,,,,,,,,,,,,"[""9""]",1,[2.799799999997049],0,0,0,39,1,,,,,,,,,,,,,,,,,,,,,,,,,,
,,,,,,,,,,,X V Q F H G B L J M P D K C T S W R N Z,6050edc9b0fa3d391dae2ffe,20,Mężczyzna,2022-06-11_09h36.45.007,task,2021.1.4,Win32,60.04202942,6299f149e92ead563fba08ef,62a445e90dd4b8aff0838d9e,,,,,,,,,,,,,,,,,,,,,,,,,,,,,,,,,,,,,,,,,,,,,,,,,,,,,,,,,,,,,,,,,,,,,,,,,,,,3,0,3,0,1,,,,,,,,,,,,,,,,,,,,,
,,,,,,,,,,,,6050edc9b0fa3d391dae2ffe,20,Mężczyzna,2022-06-11_09h36.45.007,task,2021.1.4,Win32,60.04202942,6299f149e92ead563fba08ef,62a445e90dd4b8aff0838d9e,,,,,,,,,,,,,7,,,,,,,,,,Task,38,(4x6) - 17,7,,,,,,,,,,,,,,,,,,,1,,,,,,,,,,,,,,,,,,,,,,,"[""7""]",1,[5.116700000002993],0,0,0,37,1,,,,,,,,,,,,,,,,,,,,,,,,,,
,,,,,,,,,,,X V Q F H G B L J M P D K C T S W R N Z,6050edc9b0fa3d391dae2ffe,20,Mężczyzna,2022-06-11_09h36.45.007,task,2021.1.4,Win32,60.04202942,6299f149e92ead563fba08ef,62a445e90dd4b8aff0838d9e,,,,,,,,,,,,,,,,,,,,,,,,,,,,,,,,,,,,,,,,,,,,,,,,,,,,,,,,,,,,,,,,,,,,,,,,,,,,4,0,4,0,1,,,,,,,,,,,,,,,,,,,,,
,,,,,,,,,,,,6050edc9b0fa3d391dae2ffe,20,Mężczyzna,2022-06-11_09h36.45.007,task,2021.1.4,Win32,60.04202942,6299f149e92ead563fba08ef,62a445e90dd4b8aff0838d9e,,,,,,,,,,,,,,,,,,,,,,,,,,,,,,,,,,,,,,,,,,,,,,,,,,,,,,,,,,,,,,,,,,,,,,,,,,,,,,,,,ttdhz,"[""t"",""t"",""d"",""h"",""z""]",0,"[1.1387999999970475,3.2219000000059737,3.750799999997014,4.033299999997041,4.367000000000019,4.6037999999970225]",1,TTDHZ,4,0,4,0,1,,,,,,,,,,
,,,,,,,,,,,,6050edc9b0fa3d391dae2ffe,20,Mężczyzna,2022-06-11_09h36.45.007,task,2021.1.4,Win32,60.04202942,6299f149e92ead563fba08ef,62a445e90dd4b8aff0838d9e,,,,,,,,,,,,,5,,,,,,,,,,Task,29,(3x8) - 19 ,5,,,,,,,,,,,,,,,,,,,1,,,,,,,,,,,,,,,,,,,,,,,"[""5""]",1,[3.152200000003006],0,0,0,28,1,,,,,,,,,,,,,,,,,,,,,,,,,,
,,,,,,,,,,,X V Q F H G B L J M P D K C T S W R N Z,6050edc9b0fa3d391dae2ffe,20,Mężczyzna,2022-06-11_09h36.45.007,task,2021.1.4,Win32,60.04202942,6299f149e92ead563fba08ef,62a445e90dd4b8aff0838d9e,,,,,,,,,,,,,,,,,,,,,,,,,,,,,,,,,,,,,,,,,,,,,,,,,,,,,,,,,,,,,,,,,,,,,,,,,,,,0,0,0,0,1,,,,,,,,,,,,,,,,,,,,,
,,,,,,,,,,,,6050edc9b0fa3d391dae2ffe,20,Mężczyzna,2022-06-11_09h36.45.007,task,2021.1.4,Win32,60.04202942,6299f149e92ead563fba08ef,62a445e90dd4b8aff0838d9e,,,,,,,,,,,,,2,,,,,,,,,,Task,26,(2x9) - 16,2,,,,,,,,,,,,,,,,,,,1,,,,,,,,,,,,,,,,,,,,,,,"[""2""]",1,[2.486899999991067],0,0,0,25,1,,,,,,,,,,,,,,,,,,,,,,,,,,
,,,,,,,,,,,X V Q F H G B L J M P D K C T S W R N Z,6050edc9b0fa3d391dae2ffe,20,Mężczyzna,2022-06-11_09h36.45.007,task,2021.1.4,Win32,60.04202942,6299f149e92ead563fba08ef,62a445e90dd4b8aff0838d9e,,,,,,,,,,,,,,,,,,,,,,,,,,,,,,,,,,,,,,,,,,,,,,,,,,,,,,,,,,,,,,,,,,,,,,,,,,,,1,0,1,0,1,,,,,,,,,,,,,,,,,,,,,
,,,,,,,,,,,,6050edc9b0fa3d391dae2ffe,20,Mężczyzna,2022-06-11_09h36.45.007,task,2021.1.4,Win32,60.04202942,6299f149e92ead563fba08ef,62a445e90dd4b8aff0838d9e,,,,,,,,,,,,,1,,,,,,,,,,Task,9,(3x7) - 20,1,,,,,,,,,,,,,,,,,,,1,,,,,,,,,,,,,,,,,,,,,,,"[""1""]",1,[2.3899999999999864],0,0,0,8,1,,,,,,,,,,,,,,,,,,,,,,,,,,
,,,,,,,,,,,X V Q F H G B L J M P D K C T S W R N Z,6050edc9b0fa3d391dae2ffe,20,Mężczyzna,2022-06-11_09h36.45.007,task,2021.1.4,Win32,60.04202942,6299f149e92ead563fba08ef,62a445e90dd4b8aff0838d9e,,,,,,,,,,,,,,,,,,,,,,,,,,,,,,,,,,,,,,,,,,,,,,,,,,,,,,,,,,,,,,,,,,,,,,,,,,,,2,0,2,0,1,,,,,,,,,,,,,,,,,,,,,
,,,,,,,,,,,,6050edc9b0fa3d391dae2ffe,20,Mężczyzna,2022-06-11_09h36.45.007,task,2021.1.4,Win32,60.04202942,6299f149e92ead563fba08ef,62a445e90dd4b8aff0838d9e,,,,,,,,,,,,,6,,,,,,,,,,Task,5,(2x3) + 0,6,,,,,,,,,,,,,,,,,,,1,,,,,,,,,,,,,,,,,,,,,,,"[""6""]",1,[3.0587999999970066],0,0,0,4,1,,,,,,,,,,,,,,,,,,,,,,,,,,
,,,,,,,,,,,X V Q F H G B L J M P D K C T S W R N Z,6050edc9b0fa3d391dae2ffe,20,Mężczyzna,2022-06-11_09h36.45.007,task,2021.1.4,Win32,60.04202942,6299f149e92ead563fba08ef,62a445e90dd4b8aff0838d9e,,,,,,,,,,,,,,,,,,,,,,,,,,,,,,,,,,,,,,,,,,,,,,,,,,,,,,,,,,,,,,,,,,,,,,,,,,,,3,0,3,0,1,,,,,,,,,,,,,,,,,,,,,
,,,,,,,,,,,,6050edc9b0fa3d391dae2ffe,20,Mężczyzna,2022-06-11_09h36.45.007,task,2021.1.4,Win32,60.04202942,6299f149e92ead563fba08ef,62a445e90dd4b8aff0838d9e,,,,,,,,,,,,,1,,,,,,,,,,Task,18,(16/4) - 3,1,,,,,,,,,,,,,,,,,,,1,,,,,,,,,,,,,,,,,,,,,,,"[""1""]",1,[2.5667000000029816],0,0,0,17,1,,,,,,,,,,,,,,,,,,,,,,,,,,
,,,,,,,,,,,X V Q F H G B L J M P D K C T S W R N Z,6050edc9b0fa3d391dae2ffe,20,Mężczyzna,2022-06-11_09h36.45.007,task,2021.1.4,Win32,60.04202942,6299f149e92ead563fba08ef,62a445e90dd4b8aff0838d9e,,,,,,,,,,,,,,,,,,,,,,,,,,,,,,,,,,,,,,,,,,,,,,,,,,,,,,,,,,,,,,,,,,,,,,,,,,,,4,0,4,0,1,,,,,,,,,,,,,,,,,,,,,
,,,,,,,,,,,,6050edc9b0fa3d391dae2ffe,20,Mężczyzna,2022-06-11_09h36.45.007,task,2021.1.4,Win32,60.04202942,6299f149e92ead563fba08ef,62a445e90dd4b8aff0838d9e,,,,,,,,,,,,,5,,,,,,,,,,Task,36,(8/4) + 3,5,,,,,,,,,,,,,,,,,,,1,,,,,,,,,,,,,,,,,,,,,,,"[""5""]",1,[4.866800000011892],0,0,0,35,1,,,,,,,,,,,,,,,,,,,,,,,,,,
,,,,,,,,,,,X V Q F H G B L J M P D K C T S W R N Z,6050edc9b0fa3d391dae2ffe,20,Mężczyzna,2022-06-11_09h36.45.007,task,2021.1.4,Win32,60.04202942,6299f149e92ead563fba08ef,62a445e90dd4b8aff0838d9e,,,,,,,,,,,,,,,,,,,,,,,,,,,,,,,,,,,,,,,,,,,,,,,,,,,,,,,,,,,,,,,,,,,,,,,,,,,,5,0,5,0,1,,,,,,,,,,,,,,,,,,,,,
,,,,,,,,,,,,6050edc9b0fa3d391dae2ffe,20,Mężczyzna,2022-06-11_09h36.45.007,task,2021.1.4,Win32,60.04202942,6299f149e92ead563fba08ef,62a445e90dd4b8aff0838d9e,,,,,,,,,,,,,,,,,,,,,,,,,,,,,,,,,,,,,,,,,,,,,,,,,,,,,,,,,,,,,,,,,,,,,,,,,,,,,,,,,xrwldd,"[""x"",""r"",""w"",""l"",""d"",""d""]",0,"[0.9998999999910438,1.355799999997032,1.4907000000029598,1.8335999999940213,2.507799999997019,2.6662999999970225,2.8672999999969875]",0,XRWLTD,5,0,5,0,1,,,,,,,,,,
,,,,,,,,,,,,6050edc9b0fa3d391dae2ffe,20,Mężczyzna,2022-06-11_09h36.45.007,task,2021.1.4,Win32,60.04202942,6299f149e92ead563fba08ef,62a445e90dd4b8aff0838d9e,,,,,,,,,,,,,5,,,,,,,,,,Task,22,(3x1) + 2,5,,,,,,,,,,,,,,,,,,,1,,,,,,,,,,,,,,,,,,,,,,,"[""5""]",1,[3.9502999999970143],0,0,0,21,1,,,,,,,,,,,,,,,,,,,,,,,,,,
,,,,,,,,,,,X V Q F H G B L J M P D K C T S W R N Z,6050edc9b0fa3d391dae2ffe,20,Mężczyzna,2022-06-11_09h36.45.007,task,2021.1.4,Win32,60.04202942,6299f149e92ead563fba08ef,62a445e90dd4b8aff0838d9e,,,,,,,,,,,,,,,,,,,,,,,,,,,,,,,,,,,,,,,,,,,,,,,,,,,,,,,,,,,,,,,,,,,,,,,,,,,,0,0,0,0,1,,,,,,,,,,,,,,,,,,,,,
,,,,,,,,,,,,6050edc9b0fa3d391dae2ffe,20,Mężczyzna,2022-06-11_09h36.45.007,task,2021.1.4,Win32,60.04202942,6299f149e92ead563fba08ef,62a445e90dd4b8aff0838d9e,,,,,,,,,,,,,0,,,,,,,,,,Task,8,(1x5) - 5,0,,,,,,,,,,,,,,,,,,,1,,,,,,,,,,,,,,,,,,,,,,,"[""0""]",1,[1.981999999999971],0,0,0,7,1,,,,,,,,,,,,,,,,,,,,,,,,,,
,,,,,,,,,,,X V Q F H G B L J M P D K C T S W R N Z,6050edc9b0fa3d391dae2ffe,20,Mężczyzna,2022-06-11_09h36.45.007,task,2021.1.4,Win32,60.04202942,6299f149e92ead563fba08ef,62a445e90dd4b8aff0838d9e,,,,,,,,,,,,,,,,,,,,,,,,,,,,,,,,,,,,,,,,,,,,,,,,,,,,,,,,,,,,,,,,,,,,,,,,,,,,1,0,1,0,1,,,,,,,,,,,,,,,,,,,,,
,,,,,,,,,,,,6050edc9b0fa3d391dae2ffe,20,Mężczyzna,2022-06-11_09h36.45.007,task,2021.1.4,Win32,60.04202942,6299f149e92ead563fba08ef,62a445e90dd4b8aff0838d9e,,,,,,,,,,,,,1,,,,,,,,,,Task,37,(3/3) + 5,6,,,,,,,,,,,,,,,,,,,0,,,,,,,,,,,,,,,,,,,,,,,"[""1""]",0,[2.988200000002962],0,0,0,36,1,,,,,,,,,,,,,,,,,,,,,,,,,,
,,,,,,,,,,,,6050edc9b0fa3d391dae2ffe,20,Mężczyzna,2022-06-11_09h36.45.007,task,2021.1.4,Win32,60.04202942,6299f149e92ead563fba08ef,62a445e90dd4b8aff0838d9e,,,,,,,,,,,,,8,,,,,,,,,,Task,7,(3x7) - 12,9,,,,,,,,,,,,,,,,,,,0,,,,,,,,,,,,,,,,,,,,,,,"[""8""]",0,[3.7829999999999018],0,1,1,6,1,,,,,,,,,,,,,,,,,,,,,,,,,,
,,,,,,,,,,,,6050edc9b0fa3d391dae2ffe,20,Mężczyzna,2022-06-11_09h36.45.007,task,2021.1.4,Win32,60.04202942,6299f149e92ead563fba08ef,62a445e90dd4b8aff0838d9e,,,,,,,,,,,,,,,,,,,,,,,Task,39,(5x3) - 7,8,,,,,,,,,,,,,,,,,,,0,,,,,,,,,,,,,,,,,,,,,,,,0,,0,2,2,38,1,,,,,,,,,,,,,,,,,,,,,,,,,,
,,,,,,,,,,,,6050edc9b0fa3d391dae2ffe,20,Mężczyzna,2022-06-11_09h36.45.007,task,2021.1.4,Win32,60.04202942,6299f149e92ead563fba08ef,62a445e90dd4b8aff0838d9e,,,,,,,,,,,,,5,,,,,,,,,,Task,36,(8/4) + 3,5,,,,,,,,,,,,,,,,,,,1,,,,,,,,,,,,,,,,,,,,,,,"[""5""]",1,[3.536799999997015],0,3,3,35,1,,,,,,,,,,,,,,,,,,,,,,,,,,
,,,,,,,,,,,X V Q F H G B L J M P D K C T S W R N Z,6050edc9b0fa3d391dae2ffe,20,Mężczyzna,2022-06-11_09h36.45.007,task,2021.1.4,Win32,60.04202942,6299f149e92ead563fba08ef,62a445e90dd4b8aff0838d9e,,,,,,,,,,,,,,,,,,,,,,,,,,,,,,,,,,,,,,,,,,,,,,,,,,,,,,,,,,,,,,,,,,,,,,,,,,,,2,0,2,0,1,,,,,,,,,,,,,,,,,,,,,
,,,,,,,,,,,,6050edc9b0fa3d391dae2ffe,20,Mężczyzna,2022-06-11_09h36.45.007,task,2021.1.4,Win32,60.04202942,6299f149e92ead563fba08ef,62a445e90dd4b8aff0838d9e,,,,,,,,,,,,,9,,,,,,,,,,Task,40,(7x2) - 5,9,,,,,,,,,,,,,,,,,,,1,,,,,,,,,,,,,,,,,,,,,,,"[""9""]",1,[3.1333999999909565],0,0,0,39,1,,,,,,,,,,,,,,,,,,,,,,,,,,
,,,,,,,,,,,X V Q F H G B L J M P D K C T S W R N Z,6050edc9b0fa3d391dae2ffe,20,Mężczyzna,2022-06-11_09h36.45.007,task,2021.1.4,Win32,60.04202942,6299f149e92ead563fba08ef,62a445e90dd4b8aff0838d9e,,,,,,,,,,,,,,,,,,,,,,,,,,,,,,,,,,,,,,,,,,,,,,,,,,,,,,,,,,,,,,,,,,,,,,,,,,,,3,0,3,0,1,,,,,,,,,,,,,,,,,,,,,
,,,,,,,,,,,,6050edc9b0fa3d391dae2ffe,20,Mężczyzna,2022-06-11_09h36.45.007,task,2021.1.4,Win32,60.04202942,6299f149e92ead563fba08ef,62a445e90dd4b8aff0838d9e,,,,,,,,,,,,,5,,,,,,,,,,Task,36,(8/4) + 3,5,,,,,,,,,,,,,,,,,,,1,,,,,,,,,,,,,,,,,,,,,,,"[""5""]",1,[2.200200000002951],0,0,0,35,1,,,,,,,,,,,,,,,,,,,,,,,,,,
,,,,,,,,,,,X V Q F H G B L J M P D K C T S W R N Z,6050edc9b0fa3d391dae2ffe,20,Mężczyzna,2022-06-11_09h36.45.007,task,2021.1.4,Win32,60.04202942,6299f149e92ead563fba08ef,62a445e90dd4b8aff0838d9e,,,,,,,,,,,,,,,,,,,,,,,,,,,,,,,,,,,,,,,,,,,,,,,,,,,,,,,,,,,,,,,,,,,,,,,,,,,,4,0,4,0,1,,,,,,,,,,,,,,,,,,,,,
,,,,,,,,,,,,6050edc9b0fa3d391dae2ffe,20,Mężczyzna,2022-06-11_09h36.45.007,task,2021.1.4,Win32,60.04202942,6299f149e92ead563fba08ef,62a445e90dd4b8aff0838d9e,,,,,,,,,,,,,1,,,,,,,,,,Task,9,(3x7) - 20,1,,,,,,,,,,,,,,,,,,,1,,,,,,,,,,,,,,,,,,,,,,,"[""1""]",1,[3.366799999997056],0,0,0,8,1,,,,,,,,,,,,,,,,,,,,,,,,,,
,,,,,,,,,,,X V Q F H G B L J M P D K C T S W R N Z,6050edc9b0fa3d391dae2ffe,20,Mężczyzna,2022-06-11_09h36.45.007,task,2021.1.4,Win32,60.04202942,6299f149e92ead563fba08ef,62a445e90dd4b8aff0838d9e,,,,,,,,,,,,,,,,,,,,,,,,,,,,,,,,,,,,,,,,,,,,,,,,,,,,,,,,,,,,,,,,,,,,,,,,,,,,5,0,5,0,1,,,,,,,,,,,,,,,,,,,,,
,,,,,,,,,,,,6050edc9b0fa3d391dae2ffe,20,Mężczyzna,2022-06-11_09h36.45.007,task,2021.1.4,Win32,60.04202942,6299f149e92ead563fba08ef,62a445e90dd4b8aff0838d9e,,,,,,,,,,,,,,,,,,,,,,,,,,,,,,,,,,,,,,,,,,,,,,,,,,,,,,,,,,,,,,,,,,,,,,,,,,,,,,,,,2wfedsgfrg,"[""2"",""w"",""f"",""e"",""d"",""s"",""g"",""f"",""r"",""g""]",0,"[1.6840000000000828,1.6900000000000546,1.801599999994096,1.8025999999940723,1.8043999999911193,1.8172999999970898,1.8407000000030393,1.868899999991072,1.8690999999940914,1.918299999997089,2.387200000002963]",0,LJNGRR,6,0,6,0,1,,,,,,,,,,
,,,,,,,,,,,,6050edc9b0fa3d391dae2ffe,20,Mężczyzna,2022-06-11_09h36.45.007,task,2021.1.4,Win32,60.04202942,6299f149e92ead563fba08ef,62a445e90dd4b8aff0838d9e,,,,,,,,,,,,,,,,,,,,,,,,,,,,,,,,,,,,,,,,,,,,,,,,,,,,,,,,,,,,,,,,,,,,,,,,,,,,,,,,,,,,,,,,,,,,"[""comma""]",0,[0.598400000005995],0,0,0,0,1,,
,,,,,,,,,,,,6050edc9b0fa3d391dae2ffe,20,Mężczyzna,2022-06-11_09h36.45.007,task,2021.1.4,Win32,60.04202942,6299f149e92ead563fba08ef,62a445e90dd4b8aff0838d9e,,,,,,,,,,,,,,,,,,,,,,,,,,,,,,,,,,,,,,,,,,,,,,,,,,,,,,,,,,,,,,,,,,,,,,,,,,,,,,,,,,,,,,,,,,,,"[""period""]",0,[0.633700000002932],1,0,1,0,1,,
,,,,,,,,,,,,6050edc9b0fa3d391dae2ffe,20,Mężczyzna,2022-06-11_09h36.45.007,task,2021.1.4,Win32,60.04202942,6299f149e92ead563fba08ef,62a445e90dd4b8aff0838d9e,,,,,,,,,,,,,,,,,,,,,,,,,,,,,,,,,,,,,,,,,,,,,,,,,,,,,,,,,,,,,,,,,,,,,,,,,,,,,,,,,,,,,,,,,,,,"[""period""]",0,[0.42289999999104566],2,0,2,0,1,,
,,,,,,,,,,,,6050edc9b0fa3d391dae2ffe,20,Mężczyzna,2022-06-11_09h36.45.007,task,2021.1.4,Win32,60.04202942,6299f149e92ead563fba08ef,62a445e90dd4b8aff0838d9e,,,,,,,,,,,,,,,,,,,,,,,,,,,,,,,,,,,,,,,,,,,,,,,,,,,,,,,,,,,,,,,,,,,,,,,,,,,,,,,,,,,,,,,,,,,,"[""comma""]",0,[0.3866000000089116],3,0,3,0,1,,
,,,,,,,,,,,,6050edc9b0fa3d391dae2ffe,20,Mężczyzna,2022-06-11_09h36.45.007,task,2021.1.4,Win32,60.04202942,6299f149e92ead563fba08ef,62a445e90dd4b8aff0838d9e,,,,,,,,,,,,,,,,,,,,,,,,,,,,,,,,,,,,,,,,,,,,,,,,,,,,,,,,,,,,,,,,,,,,,,,,,,,,,,,,,,,,,,,,,,,,"[""comma""]",0,[0.24009999999407228],4,0,4,0,1,,
,,,,,,,,,,,,6050edc9b0fa3d391dae2ffe,20,Mężczyzna,2022-06-11_09h36.45.007,task,2021.1.4,Win32,60.04202942,6299f149e92ead563fba08ef,62a445e90dd4b8aff0838d9e,,,,,,,,,,,,,,,,,,,,,,,,,,,,,,,,,,,,,,,,,,,,,,,,,,,,,,,,,,,,,,,,,,,,,,,,,,,,,,,,,,,,,,,,,,,,"[""comma""]",0,[0.250399999991032],5,0,5,0,1,,
,,,,,,,,,,,,6050edc9b0fa3d391dae2ffe,20,Mężczyzna,2022-06-11_09h36.45.007,task,2021.1.4,Win32,60.04202942,6299f149e92ead563fba08ef,62a445e90dd4b8aff0838d9e,,,,,,,,,,,,,,,,,,,,,,,,,,,,,,,,,,,,,,,,,,,,,,,,,,,,,,,,,,,,,,,,,,,,,,,,,,,,,,,,,,,,,,,,,,,,"[""period""]",0,[0.250399999991032],6,0,6,0,1,,
,,,,,,,,,,,,6050edc9b0fa3d391dae2ffe,20,Mężczyzna,2022-06-11_09h36.45.007,task,2021.1.4,Win32,60.04202942,6299f149e92ead563fba08ef,62a445e90dd4b8aff0838d9e,,,,,,,,,,,,,,,,,,,,,,,,,,,,,,,,,,,,,,,,,,,,,,,,,,,,,,,,,,,,,,,,,,,,,,,,,,,,,,,,,,,,,,,,,,,,"[""comma""]",0,[0.18689999999105567],7,0,7,0,1,,
,,,,,,,,,,,,6050edc9b0fa3d391dae2ffe,20,Mężczyzna,2022-06-11_09h36.45.007,task,2021.1.4,Win32,60.04202942,6299f149e92ead563fba08ef,62a445e90dd4b8aff0838d9e,,,,,,,,,,,,,,,,,,,,,,,,,,,,,,,,,,,,,,,,,,,,,,,,,,,,,,,,,,,,,,,,,,,,,,,,,,,,,,,,,,,,,,,,,,,,"[""comma""]",0,[0.0372000000030539],8,0,8,0,1,,
,,,,,,,,,,,,6050edc9b0fa3d391dae2ffe,20,Mężczyzna,2022-06-11_09h36.45.007,task,2021.1.4,Win32,60.04202942,6299f149e92ead563fba08ef,62a445e90dd4b8aff0838d9e,,,,,,,,,,,,,,,,,,,,,,,,,,,,,,,,,,,,,,,,,,,,,,,,,,,,,,,,,,,,,,,,,,,,,,,,,,,,,,,,,,,,,,,,,,,,"[""period""]",0,[0.23589999999103384],9,0,9,0,1,,
,,,,,,,,,,,,6050edc9b0fa3d391dae2ffe,20,Mężczyzna,2022-06-11_09h36.45.007,task,2021.1.4,Win32,60.04202942,6299f149e92ead563fba08ef,62a445e90dd4b8aff0838d9e,,,,,,,,,,,,,,,,,,,,,,,,,,,,,,,,,,,,,,,,,,,,,,,,,,,,,,,,,,,,,,,,,,,,,,,,,,,,,,,,,,,,,,,,,,,,"[""comma""]",0,[0.25100000000009004],10,0,10,0,1,,
,,,,,,,,,,,,6050edc9b0fa3d391dae2ffe,20,Mężczyzna,2022-06-11_09h36.45.007,task,2021.1.4,Win32,60.04202942,6299f149e92ead563fba08ef,62a445e90dd4b8aff0838d9e,,,,,,,,,,,,,,,,,,,,,,,,,,,,,,,,,,,,,,,,,,,,,,,,,,,,,,,,,,,,,,,,,,,,,,,,,,,,,,,,,,,,,,,,,,,,"[""period""]",0,[0.22020000000304663],11,0,11,0,1,,
,,,,,,,,,,,,6050edc9b0fa3d391dae2ffe,20,Mężczyzna,2022-06-11_09h36.45.007,task,2021.1.4,Win32,60.04202942,6299f149e92ead563fba08ef,62a445e90dd4b8aff0838d9e,,,,,,,,,,,,,,,,,,,,,,,,,,,,,,,,,,,,,,,,,,,,,,,,,,,,,,,,,,,,,,,,,,,,,,,,,,,,,,,,,,,,,,,,,,,,"[""comma""]",0,[0.45889999999110387],12,0,12,0,1,,
,,,,,,,,,,,,6050edc9b0fa3d391dae2ffe,20,Mężczyzna,2022-06-11_09h36.45.007,task,2021.1.4,Win32,60.04202942,6299f149e92ead563fba08ef,62a445e90dd4b8aff0838d9e,,,,,,,,,,,,,,,,,,,,,,,,,,,,,,,,,,,,,,,,,,,,,,,,,,,,,,,,,,,,,,,,,,,,,,,,,,,,,,,,,,,,,,,,,,,,"[""comma""]",0,[0.2007000000029393],13,0,13,0,1,,
,,,,,,,,,,,,6050edc9b0fa3d391dae2ffe,20,Mężczyzna,2022-06-11_09h36.45.007,task,2021.1.4,Win32,60.04202942,6299f149e92ead563fba08ef,62a445e90dd4b8aff0838d9e,,,,,,,,,,,,,,,,,,,,,,,,,,,,,,,,,,,,,,,,,,,,,,,,,,,,,,,,,,,,,,,,,,,,,,,,,,,,,,,,,,,,,,,,,,,,"[""period""]",0,[0.10629999999696338],14,0,14,0,1,,
,,,,,,,,,,,,6050edc9b0fa3d391dae2ffe,20,Mężczyzna,2022-06-11_09h36.45.007,task,2021.1.4,Win32,60.04202942,6299f149e92ead563fba08ef,62a445e90dd4b8aff0838d9e,,,,,,,,,,,,,,,,,,,,,,,,,,,,,,,,,,,,,,,,,,,,,,,,,,,,,,,,,,,,,,,,,,,,,,,,,,,,,,,,,,,,,,,,,,,,"[""comma""]",0,[0.21699999999998454],15,0,15,0,1,,
,,,,,,,,,,,,6050edc9b0fa3d391dae2ffe,20,Mężczyzna,2022-06-11_09h36.45.007,task,2021.1.4,Win32,60.04202942,6299f149e92ead563fba08ef,62a445e90dd4b8aff0838d9e,,,,,,,,,,,,,,,,,,,,,,,,,,,,,,,,,,,,,,,,,,,,,,,,,,,,,,,,,,,,,,,,,,,,,,,,,,,,,,,,,,,,,,,,,,,,"[""period""]",0,[0.21699999999998454],16,0,16,0,1,,
,,,,,,,,,,,,6050edc9b0fa3d391dae2ffe,20,Mężczyzna,2022-06-11_09h36.45.007,task,2021.1.4,Win32,60.04202942,6299f149e92ead563fba08ef,62a445e90dd4b8aff0838d9e,,,,,,,,,,,,,,,,,,,,,,,,,,,,,,,,,,,,,,,,,,,,,,,,,,,,,,,,,,,,,,,,,,,,,,,,,,,,,,,,,,,,,,,,,,,,"[""comma""]",0,[0.3170000000000073],17,0,17,0,1,,
,,,,,,,,,,,,6050edc9b0fa3d391dae2ffe,20,Mężczyzna,2022-06-11_09h36.45.007,task,2021.1.4,Win32,60.04202942,6299f149e92ead563fba08ef,62a445e90dd4b8aff0838d9e,,,,,,,,,,,,,,,,,,,,,,,,,,,,,,,,,,,,,,,,,,,,,,,,,,,,,,,,,,,,,,,,,,,,,,,,,,,,,,,,,,,,,,,,,,,,"[""comma""]",0,[0.2584999999999127],18,0,18,0,1,,
,,,,,,,,,,,,6050edc9b0fa3d391dae2ffe,20,Mężczyzna,2022-06-11_09h36.45.007,task,2021.1.4,Win32,60.04202942,6299f149e92ead563fba08ef,62a445e90dd4b8aff0838d9e,,,,,,,,,,,,,,,,,,,,,,,,,,,,,,,,,,,,,,,,,,,,,,,,,,,,,,,,,,,,,,,,,,,,,,,,,,,,,,,,,,,,,,,,,,,,"[""comma""]",0,[0.023899999991158438],19,0,19,0,1,,
,,,,,,,,,,,,6050edc9b0fa3d391dae2ffe,20,Mężczyzna,2022-06-11_09h36.45.007,task,2021.1.4,Win32,60.04202942,6299f149e92ead563fba08ef,62a445e90dd4b8aff0838d9e,,,,,,,,,,,,,,,,,,,,,,,,,,,,,,,,,,,,,,,,,,,,,,,,,,,,,,,,,,,,,,,,,,,,,,,,,,,,,,,,,,,,,,,,,,,,"[""comma""]",0,[0.10020000000304208],20,0,20,0,1,,
,,,,,,,,,,,,6050edc9b0fa3d391dae2ffe,20,Mężczyzna,2022-06-11_09h36.45.007,task,2021.1.4,Win32,60.04202942,6299f149e92ead563fba08ef,62a445e90dd4b8aff0838d9e,,,,,,,,,,,,,,,,,,,,,,,,,,,,,,,,,,,,,,,,,,,,,,,,,,,,,,,,,,,,,,,,,,,,,,,,,,,,,,,,,,,,,,,,,,,,"[""period""]",0,[0.05040000000587952],21,0,21,0,1,,
,,,,,,,,,,,,6050edc9b0fa3d391dae2ffe,20,Mężczyzna,2022-06-11_09h36.45.007,task,2021.1.4,Win32,60.04202942,6299f149e92ead563fba08ef,62a445e90dd4b8aff0838d9e,,,,,,,,,,,,,,,,,,,,,,,,,,,,,,,,,,,,,,,,,,,,,,,,,,,,,,,,,,,,,,,,,,,,,,,,,,,,,,,,,,,,,,,,,,,,"[""comma""]",0,[0.02360000000896889],22,0,22,0,1,,
,,,,,,,,,,,,6050edc9b0fa3d391dae2ffe,20,Mężczyzna,2022-06-11_09h36.45.007,task,2021.1.4,Win32,60.04202942,6299f149e92ead563fba08ef,62a445e90dd4b8aff0838d9e,,,,,,,,,,,,,,,,,,,,,,,,,,,,,,,,,,,,,,,,,,,,,,,,,,,,,,,,,,,,,,,,,,,,,,,,,,,,,,,,,,,,,,,,,,,,"[""period""]",0,[0.0016000000089206878],23,0,23,0,1,,
,,,,,,,,,,,,6050edc9b0fa3d391dae2ffe,20,Mężczyzna,2022-06-11_09h36.45.007,task,2021.1.4,Win32,60.04202942,6299f149e92ead563fba08ef,62a445e90dd4b8aff0838d9e,,,,,,,,,,,,,,,,,,,,,,,,,,,,,,,,,,,,,,,,,,,,,,,,,,,,,,,,,,,,,,,,,,,,,,,,,,,,,,,,,,,,,,,,,,,,"[""period""]",0,[0.13520000000289656],24,0,24,0,1,,
,,,,,,,,,,,,6050edc9b0fa3d391dae2ffe,20,Mężczyzna,2022-06-11_09h36.45.007,task,2021.1.4,Win32,60.04202942,6299f149e92ead563fba08ef,62a445e90dd4b8aff0838d9e,,,,,,,,,,,,,,,,,,,,,,,,,,,,,,,,,,,,,,,,,,,,,,,,,,,,,,,,,,,,,,,,,,,,,,,,,,,,,,,,,,,,,,,,,,,,"[""period""]",0,[0.33350000000007185],25,0,25,0,1,,
,,,,,,,,,,,,6050edc9b0fa3d391dae2ffe,20,Mężczyzna,2022-06-11_09h36.45.007,task,2021.1.4,Win32,60.04202942,6299f149e92ead563fba08ef,62a445e90dd4b8aff0838d9e,,,,,,,,,,,,,,,,,,,,,,,,,,,,,,,,,,,,,,,,,,,,,,,,,,,,,,,,,,,,,,,,,,,,,,,,,,,,,,,,,,,,,,,,,,,,"[""comma""]",0,[0.2171000000089407],26,0,26,0,1,,
,,,,,,,,,,,,6050edc9b0fa3d391dae2ffe,20,Mężczyzna,2022-06-11_09h36.45.007,task,2021.1.4,Win32,60.04202942,6299f149e92ead563fba08ef,62a445e90dd4b8aff0838d9e,,,,,,,,,,,,,,,,,,,,,,,,,,,,,,,,,,,,,,,,,,,,,,,,,,,,,,,,,,,,,,,,,,,,,,,,,,,,,,,,,,,,,,,,,,,,"[""period""]",0,[0.22289999999111387],27,0,27,0,1,,
,,,,,,,,,,,,6050edc9b0fa3d391dae2ffe,20,Mężczyzna,2022-06-11_09h36.45.007,task,2021.1.4,Win32,60.04202942,6299f149e92ead563fba08ef,62a445e90dd4b8aff0838d9e,,,,,,,,,,,,,,,,,,,,,,,,,,,,,,,,,,,,,,,,,,,,,,,,,,,,,,,,,,,,,,,,,,,,,,,,,,,,,,,,,,,,,,,,,,,,"[""comma""]",0,[0.2672000000029584],28,0,28,0,1,,
,,,,,,,,,,,,6050edc9b0fa3d391dae2ffe,20,Mężczyzna,2022-06-11_09h36.45.007,task,2021.1.4,Win32,60.04202942,6299f149e92ead563fba08ef,62a445e90dd4b8aff0838d9e,,,,,,,,,,,,,,,,,,,,,,,,,,,,,,,,,,,,,,,,,,,,,,,,,,,,,,,,,,,,,,,,,,,,,,,,,,,,,,,,,,,,,,,,,,,,"[""period""]",0,[0.2537000000029366],29,0,29,0,1,,
,,,,,,,,,,,,6050edc9b0fa3d391dae2ffe,20,Mężczyzna,2022-06-11_09h36.45.007,task,2021.1.4,Win32,60.04202942,6299f149e92ead563fba08ef,62a445e90dd4b8aff0838d9e,,,,,,,,,,,,,,,,,,,,,,,,,,,,,,,,,,,,,,,,,,,,,,,,,,,,,,,,,,,,,,,,,,,,,,,,,,,,,,,,,,,,,,,,,,,,"[""period""]",0,[0.27530000001195276],30,0,30,0,1,,
,,,,,,,,,,,,6050edc9b0fa3d391dae2ffe,20,Mężczyzna,2022-06-11_09h36.45.007,task,2021.1.4,Win32,60.04202942,6299f149e92ead563fba08ef,62a445e90dd4b8aff0838d9e,,,,,,,,,,,,,,,,,,,,,,,,,,,,,,,,,,,,,,,,,,,,,,,,,,,,,,,,,,,,,,,,,,,,,,,,,,,,,,,,,,,,,,,,,,,,"[""comma""]",0,[0.07600000000002183],31,0,31,0,1,,
,,,,,,,,,,,,6050edc9b0fa3d391dae2ffe,20,Mężczyzna,2022-06-11_09h36.45.007,task,2021.1.4,Win32,60.04202942,6299f149e92ead563fba08ef,62a445e90dd4b8aff0838d9e,,,,,,,,,,,,,,,,,,,,,,,,,,,,,,,,,,,,,,,,,,,,,,,,,,,,,,,,,,,,,,,,,,,,,,,,,,,,,,,,,,,,,,,,,,,,"[""period""]",0,[0.2411000000089416],32,0,32,0,1,,
,,,,,,,,,,,,6050edc9b0fa3d391dae2ffe,20,Mężczyzna,2022-06-11_09h36.45.007,task,2021.1.4,Win32,60.04202942,6299f149e92ead563fba08ef,62a445e90dd4b8aff0838d9e,,,,,,,,,,,,,,,,,,,,,,,,,,,,,,,,,,,,,,,,,,,,,,,,,,,,,,,,,,,,,,,,,,,,,,,,,,,,,,,,,,,,,,,,,,,,"[""comma""]",0,[0.3170000000000073],33,0,33,0,1,,
,,,,,,,,,,,,6050edc9b0fa3d391dae2ffe,20,Mężczyzna,2022-06-11_09h36.45.007,task,2021.1.4,Win32,60.04202942,6299f149e92ead563fba08ef,62a445e90dd4b8aff0838d9e,,,,,,,,,,,,,,,,,,,,,,,,,,,,,,,,,,,,,,,,,,,,,,,,,,,,,,,,,,,,,,,,,,,,,,,,,,,,,,,,,,,,,,,,,,,,"[""period""]",0,[0.22460000000899072],34,0,34,0,1,,
,,,,,,,,,,,,6050edc9b0fa3d391dae2ffe,20,Mężczyzna,2022-06-11_09h36.45.007,task,2021.1.4,Win32,60.04202942,6299f149e92ead563fba08ef,62a445e90dd4b8aff0838d9e,,,,,,,,,,,,,,,,,,,,,,,,,,,,,,,,,,,,,,,,,,,,,,,,,,,,,,,,,,,,,,,,,,,,,,,,,,,,,,,,,,,,,,,,,,,,"[""comma""]",0,[0.25019999998812636],35,0,35,0,1,,
,,,,,,,,,,,,6050edc9b0fa3d391dae2ffe,20,Mężczyzna,2022-06-11_09h36.45.007,task,2021.1.4,Win32,60.04202942,6299f149e92ead563fba08ef,62a445e90dd4b8aff0838d9e,,,,,,,,,,,,,,,,,,,,,,,,,,,,,,,,,,,,,,,,,,,,,,,,,,,,,,,,,,,,,,,,,,,,,,,,,,,,,,,,,,,,,,,,,,,,"[""period""]",0,[0.1706000000089034],36,0,36,0,1,,
,,,,,,,,,,,,6050edc9b0fa3d391dae2ffe,20,Mężczyzna,2022-06-11_09h36.45.007,task,2021.1.4,Win32,60.04202942,6299f149e92ead563fba08ef,62a445e90dd4b8aff0838d9e,,,,,,,,,,,,,,,,,,,,,,,,,,,,,,,,,,,,,,,,,,,,,,,,,,,,,,,,,,,,,,,,,,,,,,,,,,,,,,,,,,,,,,,,,,,,"[""comma""]",0,[0.46699999999998454],37,0,37,0,1,,
,,,,,,,,,,,,6050edc9b0fa3d391dae2ffe,20,Mężczyzna,2022-06-11_09h36.45.007,task,2021.1.4,Win32,60.04202942,6299f149e92ead563fba08ef,62a445e90dd4b8aff0838d9e,,,,,,,,,,,,,,,,,,,,,,,,,,,,,,,,,,,,,,,,,,,,,,,,,,,,,,,,,,,,,,,,,,,,,,,,,,,,,,,,,,,,,,,,,,,,"[""period""]",0,[0.2844000000060305],38,0,38,0,1,,
,,,,,,,,,,,,6050edc9b0fa3d391dae2ffe,20,Mężczyzna,2022-06-11_09h36.45.007,task,2021.1.4,Win32,60.04202942,6299f149e92ead563fba08ef,62a445e90dd4b8aff0838d9e,,,,,,,,,,,,,,,,,,,,,,,,,,,,,,,,,,,,,,,,,,,,,,,,,,,,,,,,,,,,,,,,,,,,,,,,,,,,,,,,,,,,,,,,,,,,"[""comma""]",0,[0.23849999999993088],39,0,39,0,1,,
,,,,,,,,,,,,6050edc9b0fa3d391dae2ffe,20,Mężczyzna,2022-06-11_09h36.45.007,task,2021.1.4,Win32,60.04202942,6299f149e92ead563fba08ef,62a445e90dd4b8aff0838d9e,,,,,,,,,,,,,,,,,,,,,,,,,,,,,,,,,,,,,,,,,,,,,,,,,,,,,,,,,,,,,,,,,,,,,,,,,,,,,,,,,,,,,,,,,,,,"[""period""]",0,[0.25690000000599866],40,0,40,0,1,,
,,,,,,,,,,,,6050edc9b0fa3d391dae2ffe,20,Mężczyzna,2022-06-11_09h36.45.007,task,2021.1.4,Win32,60.04202942,6299f149e92ead563fba08ef,62a445e90dd4b8aff0838d9e,,,,,,,,,,,,,,,,,,,,,,,,,,,,,,,,,,,,,,,,,,,,,,,,,,,,,,,,,,,,,,,,,,,,,,,,,,,,,,,,,,,,,,,,,,,,"[""comma""]",0,[0.23370000000295477],41,0,41,0,1,,
,,,,,,,,,,,,6050edc9b0fa3d391dae2ffe,20,Mężczyzna,2022-06-11_09h36.45.007,task,2021.1.4,Win32,60.04202942,6299f149e92ead563fba08ef,62a445e90dd4b8aff0838d9e,,,,,,,,,,,,,,,,,,,,,,,,,,,,,,,,,,,,,,,,,,,,,,,,,,,,,,,,,,,,,,,,,,,,,,,,,,,,,,,,,,,,,,,,,,,,"[""period""]",0,[0.40300000000002],42,0,42,0,1,,
,,,,,,,,,,,,6050edc9b0fa3d391dae2ffe,20,Mężczyzna,2022-06-11_09h36.45.007,task,2021.1.4,Win32,60.04202942,6299f149e92ead563fba08ef,62a445e90dd4b8aff0838d9e,,,,,,,,,,,,,,,,,,,,,,,,,,,,,,,,,,,,,,,,,,,,,,,,,,,,,,,,,,,,,,,,,,,,,,,,,,,,,,,,,,,,,,,,,,,,"[""comma""]",0,[0.33750000000009095],43,0,43,0,1,,
,,,,,,,,,,,,6050edc9b0fa3d391dae2ffe,20,Mężczyzna,2022-06-11_09h36.45.007,task,2021.1.4,Win32,60.04202942,6299f149e92ead563fba08ef,62a445e90dd4b8aff0838d9e,,,,,,,,,,,,,,,,,,,,,,,,,,,,,,,,,,,,,,,,,,,,,,,,,,,,,,,,,,,,,,,,,,,,,,,,,,,,,,,,,,,,,,,,,,,,"[""period""]",0,[0.33359999999402135],44,0,44,0,1,,
,,,,,,,,,,,,6050edc9b0fa3d391dae2ffe,20,Mężczyzna,2022-06-11_09h36.45.007,task,2021.1.4,Win32,60.04202942,6299f149e92ead563fba08ef,62a445e90dd4b8aff0838d9e,,,,,,,,,,,,,,,,,,,,,,,,,,,,,,,,,,,,,,,,,,,,,,,,,,,,,,,,,,,,,,,,,,,,,,,,,,,,,,,,,,,,,,,,,,,,"[""period""]",0,[0.3769000000060032],45,0,45,0,1,,
,,,,,,,,,,,,6050edc9b0fa3d391dae2ffe,20,Mężczyzna,2022-06-11_09h36.45.007,task,2021.1.4,Win32,60.04202942,6299f149e92ead563fba08ef,62a445e90dd4b8aff0838d9e,,,,,,,,,,,,,,,,,,,,,,,,,,,,,,,,,,,,,,,,,,,,,,,,,,,,,,,,,,,,,,,,,,,,,,,,,,,,,,,,,,,,,,,,,,,,"[""comma""]",0,[0.28669999998805906],46,0,46,0,1,,
,,,,,,,,,,,,6050edc9b0fa3d391dae2ffe,20,Mężczyzna,2022-06-11_09h36.45.007,task,2021.1.4,Win32,60.04202942,6299f149e92ead563fba08ef,62a445e90dd4b8aff0838d9e,,,,,,,,,,,,,,,,,,,,,,,,,,,,,,,,,,,,,,,,,,,,,,,,,,,,,,,,,,,,,,,,,,,,,,,,,,,,,,,,,,,,,,,,,,,,"[""period""]",0,[0.2504999999999882],47,0,47,0,1,,
,,,,,,,,,,,,6050edc9b0fa3d391dae2ffe,20,Mężczyzna,2022-06-11_09h36.45.007,task,2021.1.4,Win32,60.04202942,6299f149e92ead563fba08ef,62a445e90dd4b8aff0838d9e,,,,,,,,,,,,,,,,,,,,,,,,,,,,,,,,,,,,,,,,,,,,,,,,,,,,,,,,,,,,,,,,,,,,,,,,,,,,,,,,,,,,,,,,,,,,"[""comma""]",0,[0.23349999999993543],48,0,48,0,1,,
,,,,,,,,,,,,6050edc9b0fa3d391dae2ffe,20,Mężczyzna,2022-06-11_09h36.45.007,task,2021.1.4,Win32,60.04202942,6299f149e92ead563fba08ef,62a445e90dd4b8aff0838d9e,,,,,,,,,,,,,,,,,,,,,,,,,,,,,,,,,,,,,,,,,,,,,,,,,,,,,,,,,,,,,,,,,,,,,,,,,,,,,,,,,,,,,,,,,,,,"[""period""]",0,[0.33920000000296113],49,0,49,0,1,,
,,,,,,,,,,,,6050edc9b0fa3d391dae2ffe,20,Mężczyzna,2022-06-11_09h36.45.007,task,2021.1.4,Win32,60.04202942,6299f149e92ead563fba08ef,62a445e90dd4b8aff0838d9e,,,,,,,,,,,,,,,,,,,,,,,,,,,,,,,,,,,,,,,,,,,,,,,,,,,,,,,,,,,,,,,,,,,,,,,,,,,,,,,,,,,,,,,,,,,,"[""comma""]",0,[0.3578999999909911],50,0,50,0,1,,
,,,,,,,,,,,,6050edc9b0fa3d391dae2ffe,20,Mężczyzna,2022-06-11_09h36.45.007,task,2021.1.4,Win32,60.04202942,6299f149e92ead563fba08ef,62a445e90dd4b8aff0838d9e,,,,,,,,,,,,,,,,,,,,,,,,,,,,,,,,,,,,,,,,,,,,,,,,,,,,,,,,,,,,,,,,,,,,,,,,,,,,,,,,,,,,,,,,,,,,"[""period""]",0,[0.3502999999969916],51,0,51,0,1,,
,,,,,,,,,,,,6050edc9b0fa3d391dae2ffe,20,Mężczyzna,2022-06-11_09h36.45.007,task,2021.1.4,Win32,60.04202942,6299f149e92ead563fba08ef,62a445e90dd4b8aff0838d9e,,,,,,,,,,,,,,,,,,,,,,,,,,,,,,,,,,,,,,,,,,,,,,,,,,,,,,,,,,,,,,,,,,,,,,,,,,,,,,,,,,,,,,,,,,,,"[""comma""]",0,[0.2667999999969197],52,0,52,0,1,,
,,,,,,,,,,,,6050edc9b0fa3d391dae2ffe,20,Mężczyzna,2022-06-11_09h36.45.007,task,2021.1.4,Win32,60.04202942,6299f149e92ead563fba08ef,62a445e90dd4b8aff0838d9e,,,,,,,,,,,,,,,,,,,,,,,,,,,,,,,,,,,,,,,,,,,,,,,,,,,,,,,,,,,,,,,,,,,,,,,,,,,,,,,,,,,,,,,,,,,,"[""period""]",0,[0.2835999999940668],53,0,53,0,1,,
,,,,,,,,,,,,6050edc9b0fa3d391dae2ffe,20,Mężczyzna,2022-06-11_09h36.45.007,task,2021.1.4,Win32,60.04202942,6299f149e92ead563fba08ef,62a445e90dd4b8aff0838d9e,,,,,,,,,,,,,,,,,,,,,,,,,,,,,,,,,,,,,,,,,,,,,,,,,,,,,,,,,,,,,,,,,,,,,,,,,,,,,,,,,,,,,,,,,,,,"[""comma""]",0,[0.3365000000000009],54,0,54,0,1,,
,,,,,,,,,,,,6050edc9b0fa3d391dae2ffe,20,Mężczyzna,2022-06-11_09h36.45.007,task,2021.1.4,Win32,60.04202942,6299f149e92ead563fba08ef,62a445e90dd4b8aff0838d9e,,,,,,,,,,,,,,,,,,,,,,,,,,,,,,,,,,,,,,,,,,,,,,,,,,,,,,,,,,,,,,,,,,,,,,,,,,,,,,,,,,,,,,,,,,,,"[""period""]",0,[0.3089999999999691],55,0,55,0,1,,
,,,,,,,,,,,,6050edc9b0fa3d391dae2ffe,20,Mężczyzna,2022-06-11_09h36.45.007,task,2021.1.4,Win32,60.04202942,6299f149e92ead563fba08ef,62a445e90dd4b8aff0838d9e,,,,,,,,,,,,,,,,,,,,,,,,,,,,,,,,,,,,,,,,,,,,,,,,,,,,,,,,,,,,,,,,,,,,,,,,,,,,,,,,,,,,,,,,,,,,"[""comma""]",0,[0.38360000000898253],56,0,56,0,1,,
,,,,,,,,,,,,6050edc9b0fa3d391dae2ffe,20,Mężczyzna,2022-06-11_09h36.45.007,task,2021.1.4,Win32,60.04202942,6299f149e92ead563fba08ef,62a445e90dd4b8aff0838d9e,,,,,,,,,,,,,,,,,,,,,,,,,,,,,,,,,,,,,,,,,,,,,,,,,,,,,,,,,,,,,,,,,,,,,,,,,,,,,,,,,,,,,,,,,,,,"[""period""]",0,[0.6019999999999754],57,0,57,0,1,,
,,,,,,,,,,,,6050edc9b0fa3d391dae2ffe,20,Mężczyzna,2022-06-11_09h36.45.007,task,2021.1.4,Win32,60.04202942,6299f149e92ead563fba08ef,62a445e90dd4b8aff0838d9e,,,,,,,,,,,,,,,,,,,,,,,,,,,,,,,,,,,,,,,,,,,,,,,,,,,,,,,,,,,,,,,,,,,,,,,,,,,,,,,,,,,,,,,,,,,,"[""comma""]",0,[0.4391000000089207],58,0,58,0,1,,
,,,,,,,,,,,,6050edc9b0fa3d391dae2ffe,20,Mężczyzna,2022-06-11_09h36.45.007,task,2021.1.4,Win32,60.04202942,6299f149e92ead563fba08ef,62a445e90dd4b8aff0838d9e,,,,,,,,,,,,,,,,,,,,,,,,,,,,,,,,,,,,,,,,,,,,,,,,,,,,,,,,,,,,,,,,,,,,,,,,,,,,,,,,,,,,,,,,,,,,"[""period""]",0,[0.3837999999969952],59,0,59,0,1,,
,,,,,,,,,,,,6050edc9b0fa3d391dae2ffe,20,Mężczyzna,2022-06-11_09h36.45.007,task,2021.1.4,Win32,60.04202942,6299f149e92ead563fba08ef,62a445e90dd4b8aff0838d9e,,,,,,,,,,,,,,,,,,,,,,,,,,,,,,,,,,,,,,,,,,,,,,,,,,,,,,,,,,,,,,,,,,,,,,,,,,,,,,,,,,,,,,,,,,,,"[""comma""]",0,[0.3693999999910602],60,0,60,0,1,,
,,,,,,,,,,,,6050edc9b0fa3d391dae2ffe,20,Mężczyzna,2022-06-11_09h36.45.007,task,2021.1.4,Win32,60.04202942,6299f149e92ead563fba08ef,62a445e90dd4b8aff0838d9e,,,,,,,,,,,,,,,,,,,,,,,,,,,,,,,,,,,,,,,,,,,,,,,,,,,,,,,,,,,,,,,,,,,,,,,,,,,,,,,,,,,,,,,,,,,,"[""comma""]",0,[0.5382999999970934],61,0,61,0,1,,
,,,,,,,,,,,,6050edc9b0fa3d391dae2ffe,20,Mężczyzna,2022-06-11_09h36.45.007,task,2021.1.4,Win32,60.04202942,6299f149e92ead563fba08ef,62a445e90dd4b8aff0838d9e,,,,,,,,,,,,,,,,,,,,,,,,,,,,,,,,,,,,,,,,,,,,,,,,,,,,,,,,,,,,,,,,,,,,,,,,,,,,,,,,,,,,,,,,,,,,"[""period""]",0,[0.42209999999397496],62,0,62,0,1,,
,,,,,,,,,,,,6050edc9b0fa3d391dae2ffe,20,Mężczyzna,2022-06-11_09h36.45.007,task,2021.1.4,Win32,60.04202942,6299f149e92ead563fba08ef,62a445e90dd4b8aff0838d9e,,,,,,,,,,,,,,,,,,,,,,,,,,,,,,,,,,,,,,,,,,,,,,,,,,,,,,,,,,,,,,,,,,,,,,,,,,,,,,,,,,,,,,,,,,,,"[""comma""]",0,[0.4266000000088752],63,0,63,0,1,,
,,,,,,,,,,,,6050edc9b0fa3d391dae2ffe,20,Mężczyzna,2022-06-11_09h36.45.007,task,2021.1.4,Win32,60.04202942,6299f149e92ead563fba08ef,62a445e90dd4b8aff0838d9e,,,,,,,,,,,,,,,,,,,,,,,,,,,,,,,,,,,,,,,,,,,,,,,,,,,,,,,,,,,,,,,,,,,,,,,,,,,,,,,,,,,,,,,,,,,,"[""period""]",0,[0.3998999999910211],64,0,64,0,1,,
,,,,,,,,,,,,6050edc9b0fa3d391dae2ffe,20,Mężczyzna,2022-06-11_09h36.45.007,task,2021.1.4,Win32,60.04202942,6299f149e92ead563fba08ef,62a445e90dd4b8aff0838d9e,,,,,,,,,,,,,,,,,,,,,,,,,,,,,,,,,,,,,,,,,,,,,,,,,,,,,,,,,,,,,,,,,,,,,,,,,,,,,,,,,,,,,,,,,,,,"[""period""]",0,[0.3501000000089789],65,0,65,0,1,,
,,,,,,,,,,,,6050edc9b0fa3d391dae2ffe,20,Mężczyzna,2022-06-11_09h36.45.007,task,2021.1.4,Win32,60.04202942,6299f149e92ead563fba08ef,62a445e90dd4b8aff0838d9e,,,,,,,,,,,,,,,,,,,,,,,,,,,,,,,,,,,,,,,,,,,,,,,,,,,,,,,,,,,,,,,,,,,,,,,,,,,,,,,,,,,,,,,,,,,,"[""comma""]",0,[0.3340999999940095],66,0,66,0,1,,
,,,,,,,,,,,,6050edc9b0fa3d391dae2ffe,20,Mężczyzna,2022-06-11_09h36.45.007,task,2021.1.4,Win32,60.04202942,6299f149e92ead563fba08ef,62a445e90dd4b8aff0838d9e,,,,,,,,,,,,,,,,,,,,,,,,,,,,,,,,,,,,,,,,,,,,,,,,,,,,,,,,,,,,,,,,,,,,,,,,,,,,,,,,,,,,,,,,,,,,"[""comma""]",0,[0.3089000000059059],67,0,67,0,1,,
,,,,,,,,,,,,6050edc9b0fa3d391dae2ffe,20,Mężczyzna,2022-06-11_09h36.45.007,task,2021.1.4,Win32,60.04202942,6299f149e92ead563fba08ef,62a445e90dd4b8aff0838d9e,,,,,,,,,,,,,,,,,,,,,,,,,,,,,,,,,,,,,,,,,,,,,,,,,,,,,,,,,,,,,,,,,,,,,,,,,,,,,,,,,,,,,,,,,,,,"[""period""]",0,[0.38400000000001455],68,0,68,0,1,,
,,,,,,,,,,,,6050edc9b0fa3d391dae2ffe,20,Mężczyzna,2022-06-11_09h36.45.007,task,2021.1.4,Win32,60.04202942,6299f149e92ead563fba08ef,62a445e90dd4b8aff0838d9e,,,,,,,,,,,,,,,,,,,,,,,,,,,,,,,,,,,,,,,,,,,,,,,,,,,,,,,,,,,,,,,,,,,,,,,,,,,,,,,,,,,,,,,,,,,,"[""comma""]",0,[0.2852999999970507],69,0,69,0,1,,
,,,,,,,,,,,,6050edc9b0fa3d391dae2ffe,20,Mężczyzna,2022-06-11_09h36.45.007,task,2021.1.4,Win32,60.04202942,6299f149e92ead563fba08ef,62a445e90dd4b8aff0838d9e,,,,,,,,,,,,,,,,,,,,,,,,,,,,,,,,,,,,,,,,,,,,,,,,,,,,,,,,,,,,,,,,,,,,,,,,,,,,,,,,,,,,,,,,,,,,"[""period""]",0,[0.10029999999699157],70,0,70,0,1,,
,,,,,,,,,,,,6050edc9b0fa3d391dae2ffe,20,Mężczyzna,2022-06-11_09h36.45.007,task,2021.1.4,Win32,60.04202942,6299f149e92ead563fba08ef,62a445e90dd4b8aff0838d9e,,,,,,,,,,,,,,,,,,,,,,,,,,,,,,,,,,,,,,,,,,,,,,,,,,,,,,,,,,,,,,,,,,,,,,,,,,,,,,,,,,,,,,,,,,,,"[""period""]",0,[0.19969999998806998],71,0,71,0,1,,
,,,,,,,,,,,,6050edc9b0fa3d391dae2ffe,20,Mężczyzna,2022-06-11_09h36.45.007,task,2021.1.4,Win32,60.04202942,6299f149e92ead563fba08ef,62a445e90dd4b8aff0838d9e,,,,,,,,,,,,,,,,,,,,,,,,,,,,,,,,,,,,,,,,,,,,,,,,,,,,,,,,,,,,,,,,,,,,,,,,,,,,,,,,,,,,,,,,,,,,"[""period""]",0,[0.24179999999705615],72,0,72,0,1,,
,,,,,,,,,,,,6050edc9b0fa3d391dae2ffe,20,Mężczyzna,2022-06-11_09h36.45.007,task,2021.1.4,Win32,60.04202942,6299f149e92ead563fba08ef,62a445e90dd4b8aff0838d9e,,,,,,,,,,,,,,,,,,,,,,,,,,,,,,,,,,,,,,,,,,,,,,,,,,,,,,,,,,,,,,,,,,,,,,,,,,,,,,,,,,,,,,,,,,,,"[""comma""]",0,[0.2933999999910384],73,0,73,0,1,,
,,,,,,,,,,,,6050edc9b0fa3d391dae2ffe,20,Mężczyzna,2022-06-11_09h36.45.007,task,2021.1.4,Win32,60.04202942,6299f149e92ead563fba08ef,62a445e90dd4b8aff0838d9e,,,,,,,,,,,,,,,,,,,,,,,,,,,,,,,,,,,,,,,,,,,,,,,,,,,,,,,,,,,,,,,,,,,,,,,,,,,,,,,,,,,,,,,,,,,,"[""comma""]",0,[0.31660000000897526],74,0,74,0,1,,
,,,,,,,,,,,,6050edc9b0fa3d391dae2ffe,20,Mężczyzna,2022-06-11_09h36.45.007,task,2021.1.4,Win32,60.04202942,6299f149e92ead563fba08ef,62a445e90dd4b8aff0838d9e,,,,,,,,,,,,,,,,,,,,,,,,,,,,,,,,,,,,,,,,,,,,,,,,,,,,,,,,,,,,,,,,,,,,,,,,,,,,,,,,,,,,,,,,,,,,"[""period""]",0,[0.6419000000058759],75,0,75,0,1,,
,,,,,,,,,,,,6050edc9b0fa3d391dae2ffe,20,Mężczyzna,2022-06-11_09h36.45.007,task,2021.1.4,Win32,60.04202942,6299f149e92ead563fba08ef,62a445e90dd4b8aff0838d9e,,,,,,,,,,,,,,,,,,,,,,,,,,,,,,,,,,,,,,,,,,,,,,,,,,,,,,,,,,,,,,,,,,,,,,,,,,,,,,,,,,,,,,,,,,,,"[""comma""]",0,[0.3425999999940359],76,0,76,0,1,,
,,,,,,,,,,,,6050edc9b0fa3d391dae2ffe,20,Mężczyzna,2022-06-11_09h36.45.007,task,2021.1.4,Win32,60.04202942,6299f149e92ead563fba08ef,62a445e90dd4b8aff0838d9e,,,,,,,,,,,,,,,,,,,,,,,,,,,,,,,,,,,,,,,,,,,,,,,,,,,,,,,,,,,,,,,,,,,,,,,,,,,,,,,,,,,,,,,,,,,,"[""period""]",0,[0.250400000005925],77,0,77,0,1,,
,,,,,,,,,,,,6050edc9b0fa3d391dae2ffe,20,Mężczyzna,2022-06-11_09h36.45.007,task,2021.1.4,Win32,60.04202942,6299f149e92ead563fba08ef,62a445e90dd4b8aff0838d9e,,,,,,,,,,,,,,,,,,,,,,,,,,,,,,,,,,,,,,,,,,,,,,,,,,,,,,,,,,,,,,,,,,,,,,,,,,,,,,,,,,,,,,,,,,,,"[""period""]",0,[0.27620000000297296],78,0,78,0,1,,
,,,,,,,,,,,,6050edc9b0fa3d391dae2ffe,20,Mężczyzna,2022-06-11_09h36.45.007,task,2021.1.4,Win32,60.04202942,6299f149e92ead563fba08ef,62a445e90dd4b8aff0838d9e,,,,,,,,,,,,,,,,,,,,,,,,,,,,,,,,,,,,,,,,,,,,,,,,,,,,,,,,,,,,,,,,,,,,,,,,,,,,,,,,,,,,,,,,,,,,"[""period""]",0,[0.06720000000302662],79,0,79,0,1,,
,,,,,,,,,,,,6050edc9b0fa3d391dae2ffe,20,Mężczyzna,2022-06-11_09h36.45.007,task,2021.1.4,Win32,60.04202942,6299f149e92ead563fba08ef,62a445e90dd4b8aff0838d9e,,,,,,,,,,,,,,,,,,,,,,,,,,,,,,,,,,,,,,,,,,,,,,,,,,,,,,,,,,,,,,,,,,,,,,,,,,,,,,,,,,,,,,,,,,,,"[""comma""]",0,[0.6002000000029284],80,0,80,0,1,,
,,,,,,,,,,,,6050edc9b0fa3d391dae2ffe,20,Mężczyzna,2022-06-11_09h36.45.007,task,2021.1.4,Win32,60.04202942,6299f149e92ead563fba08ef,62a445e90dd4b8aff0838d9e,,,,,,,,,,,,,,,,,,,,,,,,,,,,,,,,,,,,,,,,,,,,,,,,,,,,,,,,,,,,,,,,,,,,,,,,,,,,,,,,,,,,,,,,,,,,"[""period"",""comma""]",0,"[0.10629999999696338,1.733399999991093]",81,0,81,0,1,,
,,,,,,,,,,,,6050edc9b0fa3d391dae2ffe,20,Mężczyzna,2022-06-11_09h36.45.007,task,2021.1.4,Win32,60.04202942,6299f149e92ead563fba08ef,62a445e90dd4b8aff0838d9e,,,,,,,,,,,,,,,,,,,,,,,,,,,,,,,,,,,,,,,,,,,,,,,,,,,,,,,,,,,,,,,,,,,,,,,,,,,,,,,,,,,,,,,,,,,,"[""comma""]",0,[0.5002999999969688],82,0,82,0,1,,
,,,,,,,,,,,,6050edc9b0fa3d391dae2ffe,20,Mężczyzna,2022-06-11_09h36.45.007,task,2021.1.4,Win32,60.04202942,6299f149e92ead563fba08ef,62a445e90dd4b8aff0838d9e,,,,,,,,,,,,,,,,,,,,,,,,,,,,,,,,,,,,,,,,,,,,,,,,,,,,,,,,,,,,,,,,,,,,,,,,,,,,,,,,,,,,,,,,,,,,"[""period""]",0,[0.40049999999996544],83,0,83,0,1,,
,,,,,,,,,,,,6050edc9b0fa3d391dae2ffe,20,Mężczyzna,2022-06-11_09h36.45.007,task,2021.1.4,Win32,60.04202942,6299f149e92ead563fba08ef,62a445e90dd4b8aff0838d9e,,,,,,,,,,,,,,,,,,,,,,,,,,,,,,,,,,,,,,,,,,,,,,,,,,,,,,,,,,,,,,,,,,,,,,,,,,,,,,,,,,,,,,,,,,,,"[""comma""]",0,[0.3845999999939522],84,0,84,0,1,,
,,,,,,,,,,,,6050edc9b0fa3d391dae2ffe,20,Mężczyzna,2022-06-11_09h36.45.007,task,2021.1.4,Win32,60.04202942,6299f149e92ead563fba08ef,62a445e90dd4b8aff0838d9e,,,,,,,,,,,,,,,,,,,,,,,,,,,,,,,,,,,,,,,,,,,,,,,,,,,,,,,,,,,,,,,,,,,,,,,,,,,,,,,,,,,,,,,,,,,,"[""period""]",0,[0.27059999999403317],85,0,85,0,1,,
,,,,,,,,,,,,6050edc9b0fa3d391dae2ffe,20,Mężczyzna,2022-06-11_09h36.45.007,task,2021.1.4,Win32,60.04202942,6299f149e92ead563fba08ef,62a445e90dd4b8aff0838d9e,,,,,,,,,,,,,,,,,,,,,,,,,,,,,,,,,,,,,,,,,,,,,,,,,,,,,,,,,,,,,,,,,,,,,,,,,,,,,,,,,,,,,,,,,,,,"[""comma""]",0,[0.09079999999698884],86,0,86,0,1,,
,,,,,,,,,,,,6050edc9b0fa3d391dae2ffe,20,Mężczyzna,2022-06-11_09h36.45.007,task,2021.1.4,Win32,60.04202942,6299f149e92ead563fba08ef,62a445e90dd4b8aff0838d9e,,,,,,,,,,,,,,,,,,,,,,,,,,,,,,,,,,,,,,,,,,,,,,,,,,,,,,,,,,,,,,,,,,,,,,,,,,,,,,,,,,,,,,,,,,,,"[""comma""]",0,[0.38320000000305754],87,0,87,0,1,,
,,,,,,,,,,,,6050edc9b0fa3d391dae2ffe,20,Mężczyzna,2022-06-11_09h36.45.007,task,2021.1.4,Win32,60.04202942,6299f149e92ead563fba08ef,62a445e90dd4b8aff0838d9e,,,,,,,,,,,,,,,,,,,,,,,,,,,,,,,,,,,,,,,,,,,,,,,,,,,,,,,,,,,,,,,,,,,,,,,,,,,,,,,,,,,,,,,,,,,,"[""comma""]",0,[0.408700000003023],88,0,88,0,1,,
,,,,,,,,,,,,6050edc9b0fa3d391dae2ffe,20,Mężczyzna,2022-06-11_09h36.45.007,task,2021.1.4,Win32,60.04202942,6299f149e92ead563fba08ef,62a445e90dd4b8aff0838d9e,,,,,,,,,,,,,,,,,,,,,,,,,,,,,,,,,,,,,,,,,,,,,,,,,,,,,,,,,,,,,,,,,,,,,,,,,,,,,,,,,,,,,,,,,,,,"[""period""]",0,[0.5430999999939559],89,0,89,0,1,,
,,,,,,,,,,,,6050edc9b0fa3d391dae2ffe,20,Mężczyzna,2022-06-11_09h36.45.007,task,2021.1.4,Win32,60.04202942,6299f149e92ead563fba08ef,62a445e90dd4b8aff0838d9e,,,,,,,,,,,,,,,,,,,,,,,,,,,,,,,,,,,,,,,,,,,,,,,,,,,,,,,,,,,,,,,,,,,,,,,,,,,,,,,,,,,,,,,,,,,,"[""comma""]",0,[0.3502999999969916],90,0,90,0,1,,
,,,,,,,,,,,,6050edc9b0fa3d391dae2ffe,20,Mężczyzna,2022-06-11_09h36.45.007,task,2021.1.4,Win32,60.04202942,6299f149e92ead563fba08ef,62a445e90dd4b8aff0838d9e,,,,,,,,,,,,,,,,,,,,,,,,,,,,,,,,,,,,,,,,,,,,,,,,,,,,,,,,,,,,,,,,,,,,,,,,,,,,,,,,,,,,,,,,,,,,"[""comma""]",0,[0.41700000000003],91,0,91,0,1,,
,,,,,,,,,,,,6050edc9b0fa3d391dae2ffe,20,Mężczyzna,2022-06-11_09h36.45.007,task,2021.1.4,Win32,60.04202942,6299f149e92ead563fba08ef,62a445e90dd4b8aff0838d9e,,,,,,,,,,,,,,,,,,,,,,,,,,,,,,,,,,,,,,,,,,,,,,,,,,,,,,,,,,,,,,,,,,,,,,,,,,,,,,,,,,,,,,,,,,,,"[""period""]",0,[0.5],92,0,92,0,1,,
,,,,,,,,,,,,6050edc9b0fa3d391dae2ffe,20,Mężczyzna,2022-06-11_09h36.45.007,task,2021.1.4,Win32,60.04202942,6299f149e92ead563fba08ef,62a445e90dd4b8aff0838d9e,,,,,,,,,,,,,,,,,,,,,,,,,,,,,,,,,,,,,,,,,,,,,,,,,,,,,,,,,,,,,,,,,,,,,,,,,,,,,,,,,,,,,,,,,,,,"[""period""]",0,[0.5504999999999427],93,0,93,0,1,,
,,,,,,,,,,,,6050edc9b0fa3d391dae2ffe,20,Mężczyzna,2022-06-11_09h36.45.007,task,2021.1.4,Win32,60.04202942,6299f149e92ead563fba08ef,62a445e90dd4b8aff0838d9e,,,,,,,,,,,,,,,,,,,,,,,,,,,,,,,,,,,,,,,,,,,,,,,,,,,,,,,,,,,,,,,,,,,,,,,,,,,,,,,,,,,,,,,,,,,,"[""period""]",0,[0.9667999999970789],94,0,94,0,1,,
,,,,,,,,,,,,6050edc9b0fa3d391dae2ffe,20,Mężczyzna,2022-06-11_09h36.45.007,task,2021.1.4,Win32,60.04202942,6299f149e92ead563fba08ef,62a445e90dd4b8aff0838d9e,,,,,,,,,,,,,,,,,,,,,,,,,,,,,,,,,,,,,,,,,,,,,,,,,,,,,,,,,,,,,,,,,,,,,,,,,,,,,,,,,,,,,,,,,,,,"[""comma""]",0,[0.3388999999910993],95,0,95,0,1,,
,,,,,,,,,,,,6050edc9b0fa3d391dae2ffe,20,Mężczyzna,2022-06-11_09h36.45.007,task,2021.1.4,Win32,60.04202942,6299f149e92ead563fba08ef,62a445e90dd4b8aff0838d9e,,,,,,,,,,,,,,,,,,,,,,,,,,,,,,,,,,,,,,,,,,,,,,,,,,,,,,,,,,,,,,,,,,,,,,,,,,,,,,,,,,,,,,,,,,,,"[""period""]",0,[0.3005000000000564],96,0,96,0,1,,
,,,,,,,,,,,,6050edc9b0fa3d391dae2ffe,20,Mężczyzna,2022-06-11_09h36.45.007,task,2021.1.4,Win32,60.04202942,6299f149e92ead563fba08ef,62a445e90dd4b8aff0838d9e,,,,,,,,,,,,,,,,,,,,,,,,,,,,,,,,,,,,,,,,,,,,,,,,,,,,,,,,,,,,,,,,,,,,,,,,,,,,,,,,,,,,,,,,,,,,"[""comma""]",0,[0.3380999999941423],97,0,97,0,1,,
,,,,,,,,,,,,6050edc9b0fa3d391dae2ffe,20,Mężczyzna,2022-06-11_09h36.45.007,task,2021.1.4,Win32,60.04202942,6299f149e92ead563fba08ef,62a445e90dd4b8aff0838d9e,,,,,,,,,,,,,,,,,,,,,,,,,,,,,,,,,,,,,,,,,,,,,,,,,,,,,,,,,,,,,,,,,,,,,,,,,,,,,,,,,,,,,,,,,,,,"[""period""]",0,[0.21699999999998454],98,0,98,0,1,,
,,,,,,,,,,,,6050edc9b0fa3d391dae2ffe,20,Mężczyzna,2022-06-11_09h36.45.007,task,2021.1.4,Win32,60.04202942,6299f149e92ead563fba08ef,62a445e90dd4b8aff0838d9e,,,,,,,,,,,,,,,,,,,,,,,,,,,,,,,,,,,,,,,,,,,,,,,,,,,,,,,,,,,,,,,,,,,,,,,,,,,,,,,,,,,,,,,,,,,,"[""comma""]",0,[0.4511000000088643],99,0,99,0,1,,
,,,,,,,,,,,,6050edc9b0fa3d391dae2ffe,20,Mężczyzna,2022-06-11_09h36.45.007,task,2021.1.4,Win32,60.04202942,6299f149e92ead563fba08ef,62a445e90dd4b8aff0838d9e,,,,,,,,,,,,,,,,,,,,,,,,,,,,,,,,,,,,,,,,,,,,,,,,,,,,,,,,,,,,,,,,,,,,,,,,,,,,,,,,,,,,,,,,,,,,"[""period""]",0,[0.633700000002932],100,0,100,0,1,,
,,,,,,,,,,,,6050edc9b0fa3d391dae2ffe,20,Mężczyzna,2022-06-11_09h36.45.007,task,2021.1.4,Win32,60.04202942,6299f149e92ead563fba08ef,62a445e90dd4b8aff0838d9e,,,,,,,,,,,,,,,,,,,,,,,,,,,,,,,,,,,,,,,,,,,,,,,,,,,,,,,,,,,,,,,,,,,,,,,,,,,,,,,,,,,,,,,,,,,,"[""period""]",0,[0.4046000000089407],101,0,101,0,1,,
,,,,,,,,,,,,6050edc9b0fa3d391dae2ffe,20,Mężczyzna,2022-06-11_09h36.45.007,task,2021.1.4,Win32,60.04202942,6299f149e92ead563fba08ef,62a445e90dd4b8aff0838d9e,,,,,,,,,,,,,,,,,,,,,,,,,,,,,,,,,,,,,,,,,,,,,,,,,,,,,,,,,,,,,,,,,,,,,,,,,,,,,,,,,,,,,,,,,,,,"[""comma""]",0,[0.3669000000058986],102,0,102,0,1,,
,,,,,,,,,,,,6050edc9b0fa3d391dae2ffe,20,Mężczyzna,2022-06-11_09h36.45.007,task,2021.1.4,Win32,60.04202942,6299f149e92ead563fba08ef,62a445e90dd4b8aff0838d9e,,,,,,,,,,,,,,,,,,,,,,,,,,,,,,,,,,,,,,,,,,,,,,,,,,,,,,,,,,,,,,,,,,,,,,,,,,,,,,,,,,,,,,,,,,,,"[""comma""]",0,[0.4002999999969461],103,0,103,0,1,,
,,,,,,,,,,,,6050edc9b0fa3d391dae2ffe,20,Mężczyzna,2022-06-11_09h36.45.007,task,2021.1.4,Win32,60.04202942,6299f149e92ead563fba08ef,62a445e90dd4b8aff0838d9e,,,,,,,,,,,,,,,,,,,,,,,,,,,,,,,,,,,,,,,,,,,,,,,,,,,,,,,,,,,,,,,,,,,,,,,,,,,,,,,,,,,,,,,,,,,,"[""period""]",0,[0.43400000000008276],104,0,104,0,1,,
,,,,,,,,,,,,6050edc9b0fa3d391dae2ffe,20,Mężczyzna,2022-06-11_09h36.45.007,task,2021.1.4,Win32,60.04202942,6299f149e92ead563fba08ef,62a445e90dd4b8aff0838d9e,,,,,,,,,,,,,,,,,,,,,,,,,,,,,,,,,,,,,,,,,,,,,,,,,,,,,,,,,,,,,,,,,,,,,,,,,,,,,,,,,,,,,,,,,,,,"[""comma""]",0,[0.3332000000029893],105,0,105,0,1,,
,,,,,,,,,,,,6050edc9b0fa3d391dae2ffe,20,Mężczyzna,2022-06-11_09h36.45.007,task,2021.1.4,Win32,60.04202942,6299f149e92ead563fba08ef,62a445e90dd4b8aff0838d9e,,,,,,,,,,,,,,,,,,,,,,,,,,,,,,,,,,,,,,,,,,,,,,,,,,,,,,,,,,,,,,,,,,,,,,,,,,,,,,,,,,,,,,,,,,,,"[""period"",""comma""]",0,"[0.4005999999940286,1.9006999999879781]",106,0,106,0,1,,
,,,,,,,,,,,,6050edc9b0fa3d391dae2ffe,20,Mężczyzna,2022-06-11_09h36.45.007,task,2021.1.4,Win32,60.04202942,6299f149e92ead563fba08ef,62a445e90dd4b8aff0838d9e,,,,,,,,,,,,,,,,,,,,,,,,,,,,,,,,,,,,,,,,,,,,,,,,,,,,,,,,,,,,,,,,,,,,,,,,,,,,,,,,,,,,,,,,,,,,,0,,107,0,107,0,1,,
,,,,,,,,,,,,6050edc9b0fa3d391dae2ffe,20,Mężczyzna,2022-06-11_09h36.45.007,task,2021.1.4,Win32,60.04202942,6299f149e92ead563fba08ef,62a445e90dd4b8aff0838d9e,,,,,,,,,,,,,,,,,,,,,,,,,,,,,,,,,,,,,,,,,,,,,,,,,,,,,,,,,,,,,,,,,,,,,,,,,,,,,,,,,,,,,,,,,,,,"[""period""]",0,[0.24010000000885157],108,0,108,0,1,,
,,,,,,,,,,,,6050edc9b0fa3d391dae2ffe,20,Mężczyzna,2022-06-11_09h36.45.007,task,2021.1.4,Win32,60.04202942,6299f149e92ead563fba08ef,62a445e90dd4b8aff0838d9e,,,,,,,,,,,,,,,,,,,,,,,,,,,,,,,,,,,,,,,,,,,,,,,,,,,,,,,,,,,,,,,,,,,,,,,,,,,,,,,,,,,,,,,,,,,,"[""comma""]",0,[0.28340000000594046],109,0,109,0,1,,
,,,,,,,,,,,,6050edc9b0fa3d391dae2ffe,20,Mężczyzna,2022-06-11_09h36.45.007,task,2021.1.4,Win32,60.04202942,6299f149e92ead563fba08ef,62a445e90dd4b8aff0838d9e,,,,,,,,,,,,,,,,,,,,,,,,,,,,,,,,,,,,,,,,,,,,,,,,,,,,,,,,,,,,,,,,,,,,,,,,,,,,,,,,,,,,,,,,,,,,"[""period""]",0,[0.6502000000029966],110,0,110,0,1,,
,,,,,,,,,,,,6050edc9b0fa3d391dae2ffe,20,Mężczyzna,2022-06-11_09h36.45.007,task,2021.1.4,Win32,60.04202942,6299f149e92ead563fba08ef,62a445e90dd4b8aff0838d9e,,,,,,,,,,,,,,,,,,,,,,,,,,,,,,,,,,,,,,,,,,,,,,,,,,,,,,,,,,,,,,,,,,,,,,,,,,,,,,,,,,,,,,,,,,,,"[""period""]",0,[0.567799999997078],111,0,111,0,1,,
,,,,,,,,,,,,6050edc9b0fa3d391dae2ffe,20,Mężczyzna,2022-06-11_09h36.45.007,task,2021.1.4,Win32,60.04202942,6299f149e92ead563fba08ef,62a445e90dd4b8aff0838d9e,,,,,,,,,,,,,,,,,,,,,,,,,,,,,,,,,,,,,,,,,,,,,,,,,,,,,,,,,,,,,,,,,,,,,,,,,,,,,,,,,,,,,,,,,,,,"[""comma""]",0,[0.38999999999998636],112,0,112,0,1,,
,,,,,,,,,,,,6050edc9b0fa3d391dae2ffe,20,Mężczyzna,2022-06-11_09h36.45.007,task,2021.1.4,Win32,60.04202942,6299f149e92ead563fba08ef,62a445e90dd4b8aff0838d9e,,,,,,,,,,,,,,,,,,,,,,,,,,,,,,,,,,,,,,,,,,,,,,,,,,,,,,,,,,,,,,,,,,,,,,,,,,,,,,,,,,,,,,,,,,,,"[""period""]",0,[0.2673999999909711],113,0,113,0,1,,
,,,,,,,,,,,,6050edc9b0fa3d391dae2ffe,20,Mężczyzna,2022-06-11_09h36.45.007,task,2021.1.4,Win32,60.04202942,6299f149e92ead563fba08ef,62a445e90dd4b8aff0838d9e,,,,,,,,,,,,,,,,,,,,,,,,,,,,,,,,,,,,,,,,,,,,,,,,,,,,,,,,,,,,,,,,,,,,,,,,,,,,,,,,,,,,,,,,,,,,"[""comma""]",0,[0.3337000000029775],114,0,114,0,1,,
,,,,,,,,,,,,6050edc9b0fa3d391dae2ffe,20,Mężczyzna,2022-06-11_09h36.45.007,task,2021.1.4,Win32,60.04202942,6299f149e92ead563fba08ef,62a445e90dd4b8aff0838d9e,,,,,,,,,,,,,,,,,,,,,,,,,,,,,,,,,,,,,,,,,,,,,,,,,,,,,,,,,,,,,,,,,,,,,,,,,,,,,,,,,,,,,,,,,,,,"[""comma""]",0,[0.3169000000059441],115,0,115,0,1,,
,,,,,,,,,,,,6050edc9b0fa3d391dae2ffe,20,Mężczyzna,2022-06-11_09h36.45.007,task,2021.1.4,Win32,60.04202942,6299f149e92ead563fba08ef,62a445e90dd4b8aff0838d9e,,,,,,,,,,,,,,,,,,,,,,,,,,,,,,,,,,,,,,,,,,,,,,,,,,,,,,,,,,,,,,,,,,,,,,,,,,,,,,,,,,,,,,,,,,,,"[""period""]",0,[0.4002999999970598],116,0,116,0,1,,
,,,,,,,,,,,,6050edc9b0fa3d391dae2ffe,20,Mężczyzna,2022-06-11_09h36.45.007,task,2021.1.4,Win32,60.04202942,6299f149e92ead563fba08ef,62a445e90dd4b8aff0838d9e,,,,,,,,,,,,,,,,,,,,,,,,,,,,,,,,,,,,,,,,,,,,,,,,,,,,,,,,,,,,,,,,,,,,,,,,,,,,,,,,,,,,,,,,,,,,"[""comma""]",0,[0.45659999999406864],117,0,117,0,1,,
,,,,,,,,,,,,6050edc9b0fa3d391dae2ffe,20,Mężczyzna,2022-06-11_09h36.45.007,task,2021.1.4,Win32,60.04202942,6299f149e92ead563fba08ef,62a445e90dd4b8aff0838d9e,,,,,,,,,,,,,,,,,,,,,,,,,,,,,,,,,,,,,,,,,,,,,,,,,,,,,,,,,,,,,,,,,,,,,,,,,,,,,,,,,,,,,,,,,,,,"[""comma""]",0,[0.43650000000002365],118,0,118,0,1,,
,,,,,,,,,,,,6050edc9b0fa3d391dae2ffe,20,Mężczyzna,2022-06-11_09h36.45.007,task,2021.1.4,Win32,60.04202942,6299f149e92ead563fba08ef,62a445e90dd4b8aff0838d9e,,,,,,,,,,,,,,,,,,,,,,,,,,,,,,,,,,,,,,,,,,,,,,,,,,,,,,,,,,,,,,,,,,,,,,,,,,,,,,,,,,,,,,,,,,,,"[""period""]",0,[0.5016999999880909],119,0,119,0,1,,
,,,,,,,,,,,,6050edc9b0fa3d391dae2ffe,20,Mężczyzna,2022-06-11_09h36.45.007,task,2021.1.4,Win32,60.04202942,6299f149e92ead563fba08ef,62a445e90dd4b8aff0838d9e,,,,,,,,,,,,,,,,,,,,,,,,,,,,,,,,,,,,,,,,,,,,,,,,,,,,,,,,,,,,,,,,,,,,,,,,,,,,,,,,,,,,,,,,,,,,,,,,,,,,space,2.0569
