key_resp_15.keys,key_resp_15.rt,key_resp_16.keys,key_resp_16.rt,key_resp_4.keys,key_resp_4.rt,next_letter.thisRepN,next_letter.thisTrialN,next_letter.thisN,next_letter.thisIndex,next_letter.ran,letter,participant,Wiek*,Płeć,date,expName,psychopyVersion,OS,frameRate,study_id,session,simple_recall,key_resp_5.keys,key_resp_5.rt,simple_recall_corr,simple_recall_corrkeys,next_level.thisRepN,next_level.thisTrialN,next_level.thisN,next_level.thisIndex,next_level.ran,key_resp_2.keys,key_resp_2.rt,digit_answer,key_resp.keys,key_resp.corr,key_resp.rt,RT_list,next_equation.thisRepN,next_equation.thisTrialN,next_equation.thisN,next_equation.thisIndex,next_equation.ran,Task,Trial,Problem,Operation_answer,processing_score,sumRT,meanRT,sumdiff,sd,RT,key_resp_3.keys,key_resp_3.rt,repeat_practice.thisRepN,repeat_practice.thisTrialN,repeat_practice.thisN,repeat_practice.thisIndex,repeat_practice.ran,key_resp_6.keys,key_resp_6.rt,key_resp_11.keys,key_resp_11.corr,key_resp_11.rt,operation_correct,repeat_if_wrong_prac.thisRepN,repeat_if_wrong_prac.thisTrialN,repeat_if_wrong_prac.thisN,repeat_if_wrong_prac.thisIndex,repeat_if_wrong_prac.ran,span_size_prac.thisRepN,span_size_prac.thisTrialN,span_size_prac.thisN,span_size_prac.thisIndex,span_size_prac.ran,complex_recall_practice,key_resp_9.keys,key_resp_9.corr,key_resp_9.rt,complex_prac_corr,span_recall_prac.thisRepN,span_recall_prac.thisTrialN,span_recall_prac.thisN,span_recall_prac.thisIndex,span_recall_prac.ran,key_resp_10.keys,key_resp_10.rt,key_resp_7.keys,key_resp_7.corr,key_resp_7.rt,repeat_if_wrong.thisRepN,repeat_if_wrong.thisTrialN,repeat_if_wrong.thisN,repeat_if_wrong.thisIndex,repeat_if_wrong.ran,span_size.thisRepN,span_size.thisTrialN,span_size.thisN,span_size.thisIndex,span_size.ran,complex_recall,key_resp_8.keys,key_resp_8.corr,key_resp_8.rt,complex_recall_corr,complex_recall_corrkeys,span_recall.thisRepN,span_recall.thisTrialN,span_recall.thisN,span_recall.thisIndex,span_recall.ran,key_resp_13.keys,key_resp_13.corr,random_loop.thisRepN,random_loop.thisTrialN,random_loop.thisN,random_loop.thisIndex,random_loop.ran,key_resp_13.rt,key_resp_12.keys,key_resp_12.rt
space,24.8689,space,17.5756,space,6.5211,0,0,0,0,1,X V Q F H G B L J M P D K C T S W R N Z,605238bfdfe6ffc953c1b760,20,Mężczyzna,2022-06-11_09h31.34.411,task,2021.1.4,Win32,60.00960154,6299f149e92ead563fba08ef,62a444738f4cf27bba80cce8,,,,,,,,,,,,,,,,,,,,,,,,,,,,,,,,,,,,,,,,,,,,,,,,,,,,,,,,,,,,,,,,,,,,,,,,,,,,,,,,,,,,,,,,,,,,,,,,,,,,,
,,,,,,1,0,1,0,1,X V Q F H G B L J M P D K C T S W R N Z,605238bfdfe6ffc953c1b760,20,Mężczyzna,2022-06-11_09h31.34.411,task,2021.1.4,Win32,60.00960154,6299f149e92ead563fba08ef,62a444738f4cf27bba80cce8,,,,,,,,,,,,,,,,,,,,,,,,,,,,,,,,,,,,,,,,,,,,,,,,,,,,,,,,,,,,,,,,,,,,,,,,,,,,,,,,,,,,,,,,,,,,,,,,,,,,,
,,,,,,,,,,,,605238bfdfe6ffc953c1b760,20,Mężczyzna,2022-06-11_09h31.34.411,task,2021.1.4,Win32,60.00960154,6299f149e92ead563fba08ef,62a444738f4cf27bba80cce8,zf,"[""z"",""f""]","[1.7750999999940404,2.152799999997015,6.2228999999985035]",1,ZF,0,0,0,0,1,,,,,,,,,,,,,,,,,,,,,,,,,,,,,,,,,,,,,,,,,,,,,,,,,,,,,,,,,,,,,,,,,,,,,,,,,,,,,,,,,,,,,,,,,,,
,,,,,,0,0,0,0,1,X V Q F H G B L J M P D K C T S W R N Z,605238bfdfe6ffc953c1b760,20,Mężczyzna,2022-06-11_09h31.34.411,task,2021.1.4,Win32,60.00960154,6299f149e92ead563fba08ef,62a444738f4cf27bba80cce8,,,,,,,,,,,,,,,,,,,,,,,,,,,,,,,,,,,,,,,,,,,,,,,,,,,,,,,,,,,,,,,,,,,,,,,,,,,,,,,,,,,,,,,,,,,,,,,,,,,,,
,,,,,,1,0,1,0,1,X V Q F H G B L J M P D K C T S W R N Z,605238bfdfe6ffc953c1b760,20,Mężczyzna,2022-06-11_09h31.34.411,task,2021.1.4,Win32,60.00960154,6299f149e92ead563fba08ef,62a444738f4cf27bba80cce8,,,,,,,,,,,,,,,,,,,,,,,,,,,,,,,,,,,,,,,,,,,,,,,,,,,,,,,,,,,,,,,,,,,,,,,,,,,,,,,,,,,,,,,,,,,,,,,,,,,,,
,,,,,,,,,,,,605238bfdfe6ffc953c1b760,20,Mężczyzna,2022-06-11_09h31.34.411,task,2021.1.4,Win32,60.00960154,6299f149e92ead563fba08ef,62a444738f4cf27bba80cce8,xv,"[""x"",""v""]","[0.9114999999999895,1.1836000000014906,1.3611999999955202]",1,XV,1,0,1,0,1,,,,,,,,,,,,,,,,,,,,,,,,,,,,,,,,,,,,,,,,,,,,,,,,,,,,,,,,,,,,,,,,,,,,,,,,,,,,,,,,,,,,,,,,,,,
,,,,,,0,0,0,0,1,X V Q F H G B L J M P D K C T S W R N Z,605238bfdfe6ffc953c1b760,20,Mężczyzna,2022-06-11_09h31.34.411,task,2021.1.4,Win32,60.00960154,6299f149e92ead563fba08ef,62a444738f4cf27bba80cce8,,,,,,,,,,,,,,,,,,,,,,,,,,,,,,,,,,,,,,,,,,,,,,,,,,,,,,,,,,,,,,,,,,,,,,,,,,,,,,,,,,,,,,,,,,,,,,,,,,,,,
,,,,,,1,0,1,0,1,X V Q F H G B L J M P D K C T S W R N Z,605238bfdfe6ffc953c1b760,20,Mężczyzna,2022-06-11_09h31.34.411,task,2021.1.4,Win32,60.00960154,6299f149e92ead563fba08ef,62a444738f4cf27bba80cce8,,,,,,,,,,,,,,,,,,,,,,,,,,,,,,,,,,,,,,,,,,,,,,,,,,,,,,,,,,,,,,,,,,,,,,,,,,,,,,,,,,,,,,,,,,,,,,,,,,,,,
,,,,,,2,0,2,0,1,X V Q F H G B L J M P D K C T S W R N Z,605238bfdfe6ffc953c1b760,20,Mężczyzna,2022-06-11_09h31.34.411,task,2021.1.4,Win32,60.00960154,6299f149e92ead563fba08ef,62a444738f4cf27bba80cce8,,,,,,,,,,,,,,,,,,,,,,,,,,,,,,,,,,,,,,,,,,,,,,,,,,,,,,,,,,,,,,,,,,,,,,,,,,,,,,,,,,,,,,,,,,,,,,,,,,,,,
,,,,,,,,,,,,605238bfdfe6ffc953c1b760,20,Mężczyzna,2022-06-11_09h31.34.411,task,2021.1.4,Win32,60.00960154,6299f149e92ead563fba08ef,62a444738f4cf27bba80cce8,kmj,"[""k"",""m"",""j""]","[0.6880000000000024,0.8878999999985098,1.148200000002987,1.8503999999985155]",1,KMJ,2,0,2,0,1,,,,,,,,,,,,,,,,,,,,,,,,,,,,,,,,,,,,,,,,,,,,,,,,,,,,,,,,,,,,,,,,,,,,,,,,,,,,,,,,,,,,,,,,,,,
,,,,,,0,0,0,0,1,X V Q F H G B L J M P D K C T S W R N Z,605238bfdfe6ffc953c1b760,20,Mężczyzna,2022-06-11_09h31.34.411,task,2021.1.4,Win32,60.00960154,6299f149e92ead563fba08ef,62a444738f4cf27bba80cce8,,,,,,,,,,,,,,,,,,,,,,,,,,,,,,,,,,,,,,,,,,,,,,,,,,,,,,,,,,,,,,,,,,,,,,,,,,,,,,,,,,,,,,,,,,,,,,,,,,,,,
,,,,,,1,0,1,0,1,X V Q F H G B L J M P D K C T S W R N Z,605238bfdfe6ffc953c1b760,20,Mężczyzna,2022-06-11_09h31.34.411,task,2021.1.4,Win32,60.00960154,6299f149e92ead563fba08ef,62a444738f4cf27bba80cce8,,,,,,,,,,,,,,,,,,,,,,,,,,,,,,,,,,,,,,,,,,,,,,,,,,,,,,,,,,,,,,,,,,,,,,,,,,,,,,,,,,,,,,,,,,,,,,,,,,,,,
,,,,,,2,0,2,0,1,X V Q F H G B L J M P D K C T S W R N Z,605238bfdfe6ffc953c1b760,20,Mężczyzna,2022-06-11_09h31.34.411,task,2021.1.4,Win32,60.00960154,6299f149e92ead563fba08ef,62a444738f4cf27bba80cce8,,,,,,,,,,,,,,,,,,,,,,,,,,,,,,,,,,,,,,,,,,,,,,,,,,,,,,,,,,,,,,,,,,,,,,,,,,,,,,,,,,,,,,,,,,,,,,,,,,,,,
,,,,,,,,,,,,605238bfdfe6ffc953c1b760,20,Mężczyzna,2022-06-11_09h31.34.411,task,2021.1.4,Win32,60.00960154,6299f149e92ead563fba08ef,62a444738f4cf27bba80cce8,bzm,"[""b"",""z"",""m""]","[0.4612999999970242,0.8613999999985111,2.5412999999970225,3.361399999998511]",1,BZM,3,0,3,0,1,,,,,,,,,,,,,,,,,,,,,,,,,,,,,,,,,,,,,,,,,,,,,,,,,,,,,,,,,,,,,,,,,,,,,,,,,,,,,,,,,,,,,,,,,,,
,,,,,,0,0,0,0,1,X V Q F H G B L J M P D K C T S W R N Z,605238bfdfe6ffc953c1b760,20,Mężczyzna,2022-06-11_09h31.34.411,task,2021.1.4,Win32,60.00960154,6299f149e92ead563fba08ef,62a444738f4cf27bba80cce8,,,,,,,,,,,,,,,,,,,,,,,,,,,,,,,,,,,,,,,,,,,,,,,,,,,,,,,,,,,,,,,,,,,,,,,,,,,,,,,,,,,,,,,,,,,,,,,,,,,,,
,,,,,,1,0,1,0,1,X V Q F H G B L J M P D K C T S W R N Z,605238bfdfe6ffc953c1b760,20,Mężczyzna,2022-06-11_09h31.34.411,task,2021.1.4,Win32,60.00960154,6299f149e92ead563fba08ef,62a444738f4cf27bba80cce8,,,,,,,,,,,,,,,,,,,,,,,,,,,,,,,,,,,,,,,,,,,,,,,,,,,,,,,,,,,,,,,,,,,,,,,,,,,,,,,,,,,,,,,,,,,,,,,,,,,,,
,,,,,,2,0,2,0,1,X V Q F H G B L J M P D K C T S W R N Z,605238bfdfe6ffc953c1b760,20,Mężczyzna,2022-06-11_09h31.34.411,task,2021.1.4,Win32,60.00960154,6299f149e92ead563fba08ef,62a444738f4cf27bba80cce8,,,,,,,,,,,,,,,,,,,,,,,,,,,,,,,,,,,,,,,,,,,,,,,,,,,,,,,,,,,,,,,,,,,,,,,,,,,,,,,,,,,,,,,,,,,,,,,,,,,,,
,,,,,,3,0,3,0,1,X V Q F H G B L J M P D K C T S W R N Z,605238bfdfe6ffc953c1b760,20,Mężczyzna,2022-06-11_09h31.34.411,task,2021.1.4,Win32,60.00960154,6299f149e92ead563fba08ef,62a444738f4cf27bba80cce8,,,,,,,,,,,,,,,,,,,,,,,,,,,,,,,,,,,,,,,,,,,,,,,,,,,,,,,,,,,,,,,,,,,,,,,,,,,,,,,,,,,,,,,,,,,,,,,,,,,,,
,,,,,,,,,,,,605238bfdfe6ffc953c1b760,20,Mężczyzna,2022-06-11_09h31.34.411,task,2021.1.4,Win32,60.00960154,6299f149e92ead563fba08ef,62a444738f4cf27bba80cce8,tpcd,"[""t"",""p"",""c"",""d""]","[0.4178999999985109,0.5581000000015024,0.7481000000015001,0.9778000000044784,1.2678000000044705]",1,TPCD,4,0,4,0,1,,,,,,,,,,,,,,,,,,,,,,,,,,,,,,,,,,,,,,,,,,,,,,,,,,,,,,,,,,,,,,,,,,,,,,,,,,,,,,,,,,,,,,,,,,,
,,,,,,0,0,0,0,1,X V Q F H G B L J M P D K C T S W R N Z,605238bfdfe6ffc953c1b760,20,Mężczyzna,2022-06-11_09h31.34.411,task,2021.1.4,Win32,60.00960154,6299f149e92ead563fba08ef,62a444738f4cf27bba80cce8,,,,,,,,,,,,,,,,,,,,,,,,,,,,,,,,,,,,,,,,,,,,,,,,,,,,,,,,,,,,,,,,,,,,,,,,,,,,,,,,,,,,,,,,,,,,,,,,,,,,,
,,,,,,1,0,1,0,1,X V Q F H G B L J M P D K C T S W R N Z,605238bfdfe6ffc953c1b760,20,Mężczyzna,2022-06-11_09h31.34.411,task,2021.1.4,Win32,60.00960154,6299f149e92ead563fba08ef,62a444738f4cf27bba80cce8,,,,,,,,,,,,,,,,,,,,,,,,,,,,,,,,,,,,,,,,,,,,,,,,,,,,,,,,,,,,,,,,,,,,,,,,,,,,,,,,,,,,,,,,,,,,,,,,,,,,,
,,,,,,2,0,2,0,1,X V Q F H G B L J M P D K C T S W R N Z,605238bfdfe6ffc953c1b760,20,Mężczyzna,2022-06-11_09h31.34.411,task,2021.1.4,Win32,60.00960154,6299f149e92ead563fba08ef,62a444738f4cf27bba80cce8,,,,,,,,,,,,,,,,,,,,,,,,,,,,,,,,,,,,,,,,,,,,,,,,,,,,,,,,,,,,,,,,,,,,,,,,,,,,,,,,,,,,,,,,,,,,,,,,,,,,,
,,,,,,3,0,3,0,1,X V Q F H G B L J M P D K C T S W R N Z,605238bfdfe6ffc953c1b760,20,Mężczyzna,2022-06-11_09h31.34.411,task,2021.1.4,Win32,60.00960154,6299f149e92ead563fba08ef,62a444738f4cf27bba80cce8,,,,,,,,,,,,,,,,,,,,,,,,,,,,,,,,,,,,,,,,,,,,,,,,,,,,,,,,,,,,,,,,,,,,,,,,,,,,,,,,,,,,,,,,,,,,,,,,,,,,,
,,,,,,,,,,,,605238bfdfe6ffc953c1b760,20,Mężczyzna,2022-06-11_09h31.34.411,task,2021.1.4,Win32,60.00960154,6299f149e92ead563fba08ef,62a444738f4cf27bba80cce8,cvnw,"[""c"",""v"",""n"",""w""]","[2.007799999997019,2.7176999999955314,2.9877999999970086,3.2876999999955245,3.6478999999985007]",0,VNVW,5,0,5,0,1,,,,,,,,,,,,,,,,,,,,,,,,,,,,,,,,,,,,,,,,,,,,,,,,,,,,,,,,,,,,,,,,,,,,,,,,,,,,,,,,,,,,,,,,,,,
,,,,,,0,0,0,0,1,X V Q F H G B L J M P D K C T S W R N Z,605238bfdfe6ffc953c1b760,20,Mężczyzna,2022-06-11_09h31.34.411,task,2021.1.4,Win32,60.00960154,6299f149e92ead563fba08ef,62a444738f4cf27bba80cce8,,,,,,,,,,,,,,,,,,,,,,,,,,,,,,,,,,,,,,,,,,,,,,,,,,,,,,,,,,,,,,,,,,,,,,,,,,,,,,,,,,,,,,,,,,,,,,,,,,,,,
,,,,,,1,0,1,0,1,X V Q F H G B L J M P D K C T S W R N Z,605238bfdfe6ffc953c1b760,20,Mężczyzna,2022-06-11_09h31.34.411,task,2021.1.4,Win32,60.00960154,6299f149e92ead563fba08ef,62a444738f4cf27bba80cce8,,,,,,,,,,,,,,,,,,,,,,,,,,,,,,,,,,,,,,,,,,,,,,,,,,,,,,,,,,,,,,,,,,,,,,,,,,,,,,,,,,,,,,,,,,,,,,,,,,,,,
,,,,,,2,0,2,0,1,X V Q F H G B L J M P D K C T S W R N Z,605238bfdfe6ffc953c1b760,20,Mężczyzna,2022-06-11_09h31.34.411,task,2021.1.4,Win32,60.00960154,6299f149e92ead563fba08ef,62a444738f4cf27bba80cce8,,,,,,,,,,,,,,,,,,,,,,,,,,,,,,,,,,,,,,,,,,,,,,,,,,,,,,,,,,,,,,,,,,,,,,,,,,,,,,,,,,,,,,,,,,,,,,,,,,,,,
,,,,,,3,0,3,0,1,X V Q F H G B L J M P D K C T S W R N Z,605238bfdfe6ffc953c1b760,20,Mężczyzna,2022-06-11_09h31.34.411,task,2021.1.4,Win32,60.00960154,6299f149e92ead563fba08ef,62a444738f4cf27bba80cce8,,,,,,,,,,,,,,,,,,,,,,,,,,,,,,,,,,,,,,,,,,,,,,,,,,,,,,,,,,,,,,,,,,,,,,,,,,,,,,,,,,,,,,,,,,,,,,,,,,,,,
,,,,,,,,,,,,605238bfdfe6ffc953c1b760,20,Mężczyzna,2022-06-11_09h31.34.411,task,2021.1.4,Win32,60.00960154,6299f149e92ead563fba08ef,62a444738f4cf27bba80cce8,dtrn,"[""d"",""t"",""r"",""n""]","[0.46120000000297523,0.7339000000059599,0.9411000000014837,1.2309999999999945,1.4009999999999962]",1,DTRN,6,0,6,0,1,,,,,,,,,,,,,,,,,,,,,,,,,,,,,,,,,,,,,,,,,,,,,,,,,,,,,,,,,,,,,,,,,,,,,,,,,,,,,,,,,,,,,,,,,,,
,,,,,,0,0,0,0,1,X V Q F H G B L J M P D K C T S W R N Z,605238bfdfe6ffc953c1b760,20,Mężczyzna,2022-06-11_09h31.34.411,task,2021.1.4,Win32,60.00960154,6299f149e92ead563fba08ef,62a444738f4cf27bba80cce8,,,,,,,,,,,,,,,,,,,,,,,,,,,,,,,,,,,,,,,,,,,,,,,,,,,,,,,,,,,,,,,,,,,,,,,,,,,,,,,,,,,,,,,,,,,,,,,,,,,,,
,,,,,,1,0,1,0,1,X V Q F H G B L J M P D K C T S W R N Z,605238bfdfe6ffc953c1b760,20,Mężczyzna,2022-06-11_09h31.34.411,task,2021.1.4,Win32,60.00960154,6299f149e92ead563fba08ef,62a444738f4cf27bba80cce8,,,,,,,,,,,,,,,,,,,,,,,,,,,,,,,,,,,,,,,,,,,,,,,,,,,,,,,,,,,,,,,,,,,,,,,,,,,,,,,,,,,,,,,,,,,,,,,,,,,,,
,,,,,,2,0,2,0,1,X V Q F H G B L J M P D K C T S W R N Z,605238bfdfe6ffc953c1b760,20,Mężczyzna,2022-06-11_09h31.34.411,task,2021.1.4,Win32,60.00960154,6299f149e92ead563fba08ef,62a444738f4cf27bba80cce8,,,,,,,,,,,,,,,,,,,,,,,,,,,,,,,,,,,,,,,,,,,,,,,,,,,,,,,,,,,,,,,,,,,,,,,,,,,,,,,,,,,,,,,,,,,,,,,,,,,,,
,,,,,,3,0,3,0,1,X V Q F H G B L J M P D K C T S W R N Z,605238bfdfe6ffc953c1b760,20,Mężczyzna,2022-06-11_09h31.34.411,task,2021.1.4,Win32,60.00960154,6299f149e92ead563fba08ef,62a444738f4cf27bba80cce8,,,,,,,,,,,,,,,,,,,,,,,,,,,,,,,,,,,,,,,,,,,,,,,,,,,,,,,,,,,,,,,,,,,,,,,,,,,,,,,,,,,,,,,,,,,,,,,,,,,,,
,,,,,,4,0,4,0,1,X V Q F H G B L J M P D K C T S W R N Z,605238bfdfe6ffc953c1b760,20,Mężczyzna,2022-06-11_09h31.34.411,task,2021.1.4,Win32,60.00960154,6299f149e92ead563fba08ef,62a444738f4cf27bba80cce8,,,,,,,,,,,,,,,,,,,,,,,,,,,,,,,,,,,,,,,,,,,,,,,,,,,,,,,,,,,,,,,,,,,,,,,,,,,,,,,,,,,,,,,,,,,,,,,,,,,,,
,,,,,,,,,,,,605238bfdfe6ffc953c1b760,20,Mężczyzna,2022-06-11_09h31.34.411,task,2021.1.4,Win32,60.00960154,6299f149e92ead563fba08ef,62a444738f4cf27bba80cce8,qncbx,"[""q"",""n"",""c"",""b"",""x""]","[0.5078999999985001,0.9378999999985069,1.148200000002987,1.4178999999985251,2.0978999999985035,2.7580000000000098]",1,QNCBX,7,0,7,0,1,,,,,,,,,,,,,,,,,,,,,,,,,,,,,,,,,,,,,,,,,,,,,,,,,,,,,,,,,,,,,,,,,,,,,,,,,,,,,,,,,,,,,,,,,,,
,,,,,,0,0,0,0,1,X V Q F H G B L J M P D K C T S W R N Z,605238bfdfe6ffc953c1b760,20,Mężczyzna,2022-06-11_09h31.34.411,task,2021.1.4,Win32,60.00960154,6299f149e92ead563fba08ef,62a444738f4cf27bba80cce8,,,,,,,,,,,,,,,,,,,,,,,,,,,,,,,,,,,,,,,,,,,,,,,,,,,,,,,,,,,,,,,,,,,,,,,,,,,,,,,,,,,,,,,,,,,,,,,,,,,,,
,,,,,,1,0,1,0,1,X V Q F H G B L J M P D K C T S W R N Z,605238bfdfe6ffc953c1b760,20,Mężczyzna,2022-06-11_09h31.34.411,task,2021.1.4,Win32,60.00960154,6299f149e92ead563fba08ef,62a444738f4cf27bba80cce8,,,,,,,,,,,,,,,,,,,,,,,,,,,,,,,,,,,,,,,,,,,,,,,,,,,,,,,,,,,,,,,,,,,,,,,,,,,,,,,,,,,,,,,,,,,,,,,,,,,,,
,,,,,,2,0,2,0,1,X V Q F H G B L J M P D K C T S W R N Z,605238bfdfe6ffc953c1b760,20,Mężczyzna,2022-06-11_09h31.34.411,task,2021.1.4,Win32,60.00960154,6299f149e92ead563fba08ef,62a444738f4cf27bba80cce8,,,,,,,,,,,,,,,,,,,,,,,,,,,,,,,,,,,,,,,,,,,,,,,,,,,,,,,,,,,,,,,,,,,,,,,,,,,,,,,,,,,,,,,,,,,,,,,,,,,,,
,,,,,,3,0,3,0,1,X V Q F H G B L J M P D K C T S W R N Z,605238bfdfe6ffc953c1b760,20,Mężczyzna,2022-06-11_09h31.34.411,task,2021.1.4,Win32,60.00960154,6299f149e92ead563fba08ef,62a444738f4cf27bba80cce8,,,,,,,,,,,,,,,,,,,,,,,,,,,,,,,,,,,,,,,,,,,,,,,,,,,,,,,,,,,,,,,,,,,,,,,,,,,,,,,,,,,,,,,,,,,,,,,,,,,,,
,,,,,,4,0,4,0,1,X V Q F H G B L J M P D K C T S W R N Z,605238bfdfe6ffc953c1b760,20,Mężczyzna,2022-06-11_09h31.34.411,task,2021.1.4,Win32,60.00960154,6299f149e92ead563fba08ef,62a444738f4cf27bba80cce8,,,,,,,,,,,,,,,,,,,,,,,,,,,,,,,,,,,,,,,,,,,,,,,,,,,,,,,,,,,,,,,,,,,,,,,,,,,,,,,,,,,,,,,,,,,,,,,,,,,,,
,,,,,,,,,,,,605238bfdfe6ffc953c1b760,20,Mężczyzna,2022-06-11_09h31.34.411,task,2021.1.4,Win32,60.00960154,6299f149e92ead563fba08ef,62a444738f4cf27bba80cce8,lpzmw,"[""l"",""p"",""z"",""m"",""w""]","[1.0544999999999902,1.2842999999970175,1.4743999999984965,1.6543999999985033,2.1503999999985126,2.3644999999999925]",1,LPZMW,8,0,8,0,1,,,,,,,,,,,,,,,,,,,,,,,,,,,,,,,,,,,,,,,,,,,,,,,,,,,,,,,,,,,,,,,,,,,,,,,,,,,,,,,,,,,,,,,,,,,
,,,,,,0,0,0,0,1,X V Q F H G B L J M P D K C T S W R N Z,605238bfdfe6ffc953c1b760,20,Mężczyzna,2022-06-11_09h31.34.411,task,2021.1.4,Win32,60.00960154,6299f149e92ead563fba08ef,62a444738f4cf27bba80cce8,,,,,,,,,,,,,,,,,,,,,,,,,,,,,,,,,,,,,,,,,,,,,,,,,,,,,,,,,,,,,,,,,,,,,,,,,,,,,,,,,,,,,,,,,,,,,,,,,,,,,
,,,,,,1,0,1,0,1,X V Q F H G B L J M P D K C T S W R N Z,605238bfdfe6ffc953c1b760,20,Mężczyzna,2022-06-11_09h31.34.411,task,2021.1.4,Win32,60.00960154,6299f149e92ead563fba08ef,62a444738f4cf27bba80cce8,,,,,,,,,,,,,,,,,,,,,,,,,,,,,,,,,,,,,,,,,,,,,,,,,,,,,,,,,,,,,,,,,,,,,,,,,,,,,,,,,,,,,,,,,,,,,,,,,,,,,
,,,,,,2,0,2,0,1,X V Q F H G B L J M P D K C T S W R N Z,605238bfdfe6ffc953c1b760,20,Mężczyzna,2022-06-11_09h31.34.411,task,2021.1.4,Win32,60.00960154,6299f149e92ead563fba08ef,62a444738f4cf27bba80cce8,,,,,,,,,,,,,,,,,,,,,,,,,,,,,,,,,,,,,,,,,,,,,,,,,,,,,,,,,,,,,,,,,,,,,,,,,,,,,,,,,,,,,,,,,,,,,,,,,,,,,
,,,,,,3,0,3,0,1,X V Q F H G B L J M P D K C T S W R N Z,605238bfdfe6ffc953c1b760,20,Mężczyzna,2022-06-11_09h31.34.411,task,2021.1.4,Win32,60.00960154,6299f149e92ead563fba08ef,62a444738f4cf27bba80cce8,,,,,,,,,,,,,,,,,,,,,,,,,,,,,,,,,,,,,,,,,,,,,,,,,,,,,,,,,,,,,,,,,,,,,,,,,,,,,,,,,,,,,,,,,,,,,,,,,,,,,
,,,,,,4,0,4,0,1,X V Q F H G B L J M P D K C T S W R N Z,605238bfdfe6ffc953c1b760,20,Mężczyzna,2022-06-11_09h31.34.411,task,2021.1.4,Win32,60.00960154,6299f149e92ead563fba08ef,62a444738f4cf27bba80cce8,,,,,,,,,,,,,,,,,,,,,,,,,,,,,,,,,,,,,,,,,,,,,,,,,,,,,,,,,,,,,,,,,,,,,,,,,,,,,,,,,,,,,,,,,,,,,,,,,,,,,
,,,,,,5,0,5,0,1,X V Q F H G B L J M P D K C T S W R N Z,605238bfdfe6ffc953c1b760,20,Mężczyzna,2022-06-11_09h31.34.411,task,2021.1.4,Win32,60.00960154,6299f149e92ead563fba08ef,62a444738f4cf27bba80cce8,,,,,,,,,,,,,,,,,,,,,,,,,,,,,,,,,,,,,,,,,,,,,,,,,,,,,,,,,,,,,,,,,,,,,,,,,,,,,,,,,,,,,,,,,,,,,,,,,,,,,
,,,,,,,,,,,,605238bfdfe6ffc953c1b760,20,Mężczyzna,2022-06-11_09h31.34.411,task,2021.1.4,Win32,60.00960154,6299f149e92ead563fba08ef,62a444738f4cf27bba80cce8,hmhplw,"[""h"",""m"",""h"",""p"",""l"",""w""]","[1.0010000000000048,1.460899999998503,2.540899999998487,5.760799999997005,6.030899999998496,6.917000000000002,7.260899999998514]",0,HMHNMX,9,0,9,0,1,,,,,,,,,,,,,,,,,,,,,,,,,,,,,,,,,,,,,,,,,,,,,,,,,,,,,,,,,,,,,,,,,,,,,,,,,,,,,,,,,,,,,,,,,,,
,,,,,,0,0,0,0,1,X V Q F H G B L J M P D K C T S W R N Z,605238bfdfe6ffc953c1b760,20,Mężczyzna,2022-06-11_09h31.34.411,task,2021.1.4,Win32,60.00960154,6299f149e92ead563fba08ef,62a444738f4cf27bba80cce8,,,,,,,,,,,,,,,,,,,,,,,,,,,,,,,,,,,,,,,,,,,,,,,,,,,,,,,,,,,,,,,,,,,,,,,,,,,,,,,,,,,,,,,,,,,,,,,,,,,,,
,,,,,,1,0,1,0,1,X V Q F H G B L J M P D K C T S W R N Z,605238bfdfe6ffc953c1b760,20,Mężczyzna,2022-06-11_09h31.34.411,task,2021.1.4,Win32,60.00960154,6299f149e92ead563fba08ef,62a444738f4cf27bba80cce8,,,,,,,,,,,,,,,,,,,,,,,,,,,,,,,,,,,,,,,,,,,,,,,,,,,,,,,,,,,,,,,,,,,,,,,,,,,,,,,,,,,,,,,,,,,,,,,,,,,,,
,,,,,,2,0,2,0,1,X V Q F H G B L J M P D K C T S W R N Z,605238bfdfe6ffc953c1b760,20,Mężczyzna,2022-06-11_09h31.34.411,task,2021.1.4,Win32,60.00960154,6299f149e92ead563fba08ef,62a444738f4cf27bba80cce8,,,,,,,,,,,,,,,,,,,,,,,,,,,,,,,,,,,,,,,,,,,,,,,,,,,,,,,,,,,,,,,,,,,,,,,,,,,,,,,,,,,,,,,,,,,,,,,,,,,,,
,,,,,,3,0,3,0,1,X V Q F H G B L J M P D K C T S W R N Z,605238bfdfe6ffc953c1b760,20,Mężczyzna,2022-06-11_09h31.34.411,task,2021.1.4,Win32,60.00960154,6299f149e92ead563fba08ef,62a444738f4cf27bba80cce8,,,,,,,,,,,,,,,,,,,,,,,,,,,,,,,,,,,,,,,,,,,,,,,,,,,,,,,,,,,,,,,,,,,,,,,,,,,,,,,,,,,,,,,,,,,,,,,,,,,,,
,,,,,,4,0,4,0,1,X V Q F H G B L J M P D K C T S W R N Z,605238bfdfe6ffc953c1b760,20,Mężczyzna,2022-06-11_09h31.34.411,task,2021.1.4,Win32,60.00960154,6299f149e92ead563fba08ef,62a444738f4cf27bba80cce8,,,,,,,,,,,,,,,,,,,,,,,,,,,,,,,,,,,,,,,,,,,,,,,,,,,,,,,,,,,,,,,,,,,,,,,,,,,,,,,,,,,,,,,,,,,,,,,,,,,,,
,,,,,,5,0,5,0,1,X V Q F H G B L J M P D K C T S W R N Z,605238bfdfe6ffc953c1b760,20,Mężczyzna,2022-06-11_09h31.34.411,task,2021.1.4,Win32,60.00960154,6299f149e92ead563fba08ef,62a444738f4cf27bba80cce8,,,,,,,,,,,,,,,,,,,,,,,,,,,,,,,,,,,,,,,,,,,,,,,,,,,,,,,,,,,,,,,,,,,,,,,,,,,,,,,,,,,,,,,,,,,,,,,,,,,,,
,,,,,,,,,,,,605238bfdfe6ffc953c1b760,20,Mężczyzna,2022-06-11_09h31.34.411,task,2021.1.4,Win32,60.00960154,6299f149e92ead563fba08ef,62a444738f4cf27bba80cce8,cwqctx,"[""c"",""w"",""q"",""c"",""t"",""x""]","[1.097700000002959,2.017499999999984,2.527800000004447,2.917600000001471,3.3576000000014687,4.717800000004445,5.997499999999974]",1,CWQCTX,10,0,10,0,1,,,,,,,,,,,,,,,,,,,,,,,,,,,,,,,,,,,,,,,,,,,,,,,,,,,,,,,,,,,,,,,,,,,,,,,,,,,,,,,,,,,,,,,,,,,
,,,,,,0,0,0,0,1,X V Q F H G B L J M P D K C T S W R N Z,605238bfdfe6ffc953c1b760,20,Mężczyzna,2022-06-11_09h31.34.411,task,2021.1.4,Win32,60.00960154,6299f149e92ead563fba08ef,62a444738f4cf27bba80cce8,,,,,,,,,,,,,,,,,,,,,,,,,,,,,,,,,,,,,,,,,,,,,,,,,,,,,,,,,,,,,,,,,,,,,,,,,,,,,,,,,,,,,,,,,,,,,,,,,,,,,
,,,,,,1,0,1,0,1,X V Q F H G B L J M P D K C T S W R N Z,605238bfdfe6ffc953c1b760,20,Mężczyzna,2022-06-11_09h31.34.411,task,2021.1.4,Win32,60.00960154,6299f149e92ead563fba08ef,62a444738f4cf27bba80cce8,,,,,,,,,,,,,,,,,,,,,,,,,,,,,,,,,,,,,,,,,,,,,,,,,,,,,,,,,,,,,,,,,,,,,,,,,,,,,,,,,,,,,,,,,,,,,,,,,,,,,
,,,,,,2,0,2,0,1,X V Q F H G B L J M P D K C T S W R N Z,605238bfdfe6ffc953c1b760,20,Mężczyzna,2022-06-11_09h31.34.411,task,2021.1.4,Win32,60.00960154,6299f149e92ead563fba08ef,62a444738f4cf27bba80cce8,,,,,,,,,,,,,,,,,,,,,,,,,,,,,,,,,,,,,,,,,,,,,,,,,,,,,,,,,,,,,,,,,,,,,,,,,,,,,,,,,,,,,,,,,,,,,,,,,,,,,
,,,,,,3,0,3,0,1,X V Q F H G B L J M P D K C T S W R N Z,605238bfdfe6ffc953c1b760,20,Mężczyzna,2022-06-11_09h31.34.411,task,2021.1.4,Win32,60.00960154,6299f149e92ead563fba08ef,62a444738f4cf27bba80cce8,,,,,,,,,,,,,,,,,,,,,,,,,,,,,,,,,,,,,,,,,,,,,,,,,,,,,,,,,,,,,,,,,,,,,,,,,,,,,,,,,,,,,,,,,,,,,,,,,,,,,
,,,,,,4,0,4,0,1,X V Q F H G B L J M P D K C T S W R N Z,605238bfdfe6ffc953c1b760,20,Mężczyzna,2022-06-11_09h31.34.411,task,2021.1.4,Win32,60.00960154,6299f149e92ead563fba08ef,62a444738f4cf27bba80cce8,,,,,,,,,,,,,,,,,,,,,,,,,,,,,,,,,,,,,,,,,,,,,,,,,,,,,,,,,,,,,,,,,,,,,,,,,,,,,,,,,,,,,,,,,,,,,,,,,,,,,
,,,,,,5,0,5,0,1,X V Q F H G B L J M P D K C T S W R N Z,605238bfdfe6ffc953c1b760,20,Mężczyzna,2022-06-11_09h31.34.411,task,2021.1.4,Win32,60.00960154,6299f149e92ead563fba08ef,62a444738f4cf27bba80cce8,,,,,,,,,,,,,,,,,,,,,,,,,,,,,,,,,,,,,,,,,,,,,,,,,,,,,,,,,,,,,,,,,,,,,,,,,,,,,,,,,,,,,,,,,,,,,,,,,,,,,
,,,,,,,,,,,,605238bfdfe6ffc953c1b760,20,Mężczyzna,2022-06-11_09h31.34.411,task,2021.1.4,Win32,60.00960154,6299f149e92ead563fba08ef,62a444738f4cf27bba80cce8,cfxvt,"[""c"",""f"",""x"",""v"",""t""]","[1.4108999999985201,1.8805999999940468,2.6207999999970184,3.8307999999970264,4.120799999997018,6.430699999995539]",0,ZQFXTV,11,0,11,0,1,,,,,,,,,,,,,,,,,,,,,,,,,,,,,,,,,,,,,,,,,,,,,,,,,,,,,,,,,,,,,,,,,,,,,,,,,,,,,,,,,,,,,,,,,,,
,,,,,,0,0,0,0,1,X V Q F H G B L J M P D K C T S W R N Z,605238bfdfe6ffc953c1b760,20,Mężczyzna,2022-06-11_09h31.34.411,task,2021.1.4,Win32,60.00960154,6299f149e92ead563fba08ef,62a444738f4cf27bba80cce8,,,,,,,,,,,,,,,,,,,,,,,,,,,,,,,,,,,,,,,,,,,,,,,,,,,,,,,,,,,,,,,,,,,,,,,,,,,,,,,,,,,,,,,,,,,,,,,,,,,,,
,,,,,,1,0,1,0,1,X V Q F H G B L J M P D K C T S W R N Z,605238bfdfe6ffc953c1b760,20,Mężczyzna,2022-06-11_09h31.34.411,task,2021.1.4,Win32,60.00960154,6299f149e92ead563fba08ef,62a444738f4cf27bba80cce8,,,,,,,,,,,,,,,,,,,,,,,,,,,,,,,,,,,,,,,,,,,,,,,,,,,,,,,,,,,,,,,,,,,,,,,,,,,,,,,,,,,,,,,,,,,,,,,,,,,,,
,,,,,,2,0,2,0,1,X V Q F H G B L J M P D K C T S W R N Z,605238bfdfe6ffc953c1b760,20,Mężczyzna,2022-06-11_09h31.34.411,task,2021.1.4,Win32,60.00960154,6299f149e92ead563fba08ef,62a444738f4cf27bba80cce8,,,,,,,,,,,,,,,,,,,,,,,,,,,,,,,,,,,,,,,,,,,,,,,,,,,,,,,,,,,,,,,,,,,,,,,,,,,,,,,,,,,,,,,,,,,,,,,,,,,,,
,,,,,,3,0,3,0,1,X V Q F H G B L J M P D K C T S W R N Z,605238bfdfe6ffc953c1b760,20,Mężczyzna,2022-06-11_09h31.34.411,task,2021.1.4,Win32,60.00960154,6299f149e92ead563fba08ef,62a444738f4cf27bba80cce8,,,,,,,,,,,,,,,,,,,,,,,,,,,,,,,,,,,,,,,,,,,,,,,,,,,,,,,,,,,,,,,,,,,,,,,,,,,,,,,,,,,,,,,,,,,,,,,,,,,,,
,,,,,,4,0,4,0,1,X V Q F H G B L J M P D K C T S W R N Z,605238bfdfe6ffc953c1b760,20,Mężczyzna,2022-06-11_09h31.34.411,task,2021.1.4,Win32,60.00960154,6299f149e92ead563fba08ef,62a444738f4cf27bba80cce8,,,,,,,,,,,,,,,,,,,,,,,,,,,,,,,,,,,,,,,,,,,,,,,,,,,,,,,,,,,,,,,,,,,,,,,,,,,,,,,,,,,,,,,,,,,,,,,,,,,,,
,,,,,,5,0,5,0,1,X V Q F H G B L J M P D K C T S W R N Z,605238bfdfe6ffc953c1b760,20,Mężczyzna,2022-06-11_09h31.34.411,task,2021.1.4,Win32,60.00960154,6299f149e92ead563fba08ef,62a444738f4cf27bba80cce8,,,,,,,,,,,,,,,,,,,,,,,,,,,,,,,,,,,,,,,,,,,,,,,,,,,,,,,,,,,,,,,,,,,,,,,,,,,,,,,,,,,,,,,,,,,,,,,,,,,,,
,,,,,,,,,,,,605238bfdfe6ffc953c1b760,20,Mężczyzna,2022-06-11_09h31.34.411,task,2021.1.4,Win32,60.00960154,6299f149e92ead563fba08ef,62a444738f4cf27bba80cce8,gwtrjx,"[""g"",""w"",""t"",""r"",""j"",""x""]","[0.7708999999985053,1.390699999995519,1.8007999999970252,2.0705999999940445,2.600699999995527,2.730599999994041,3.1107999999970275]",1,GWTRJX,12,0,12,0,1,,,,,,,,,,,,,,,,,,,,,,,,,,,,,,,,,,,,,,,,,,,,,,,,,,,,,,,,,,,,,,,,,,,,,,,,,,,,,,,,,,,,,,,,,,,
,,,,,,0,0,0,0,1,X V Q F H G B L J M P D K C T S W R N Z,605238bfdfe6ffc953c1b760,20,Mężczyzna,2022-06-11_09h31.34.411,task,2021.1.4,Win32,60.00960154,6299f149e92ead563fba08ef,62a444738f4cf27bba80cce8,,,,,,,,,,,,,,,,,,,,,,,,,,,,,,,,,,,,,,,,,,,,,,,,,,,,,,,,,,,,,,,,,,,,,,,,,,,,,,,,,,,,,,,,,,,,,,,,,,,,,
,,,,,,1,0,1,0,1,X V Q F H G B L J M P D K C T S W R N Z,605238bfdfe6ffc953c1b760,20,Mężczyzna,2022-06-11_09h31.34.411,task,2021.1.4,Win32,60.00960154,6299f149e92ead563fba08ef,62a444738f4cf27bba80cce8,,,,,,,,,,,,,,,,,,,,,,,,,,,,,,,,,,,,,,,,,,,,,,,,,,,,,,,,,,,,,,,,,,,,,,,,,,,,,,,,,,,,,,,,,,,,,,,,,,,,,
,,,,,,2,0,2,0,1,X V Q F H G B L J M P D K C T S W R N Z,605238bfdfe6ffc953c1b760,20,Mężczyzna,2022-06-11_09h31.34.411,task,2021.1.4,Win32,60.00960154,6299f149e92ead563fba08ef,62a444738f4cf27bba80cce8,,,,,,,,,,,,,,,,,,,,,,,,,,,,,,,,,,,,,,,,,,,,,,,,,,,,,,,,,,,,,,,,,,,,,,,,,,,,,,,,,,,,,,,,,,,,,,,,,,,,,
,,,,,,3,0,3,0,1,X V Q F H G B L J M P D K C T S W R N Z,605238bfdfe6ffc953c1b760,20,Mężczyzna,2022-06-11_09h31.34.411,task,2021.1.4,Win32,60.00960154,6299f149e92ead563fba08ef,62a444738f4cf27bba80cce8,,,,,,,,,,,,,,,,,,,,,,,,,,,,,,,,,,,,,,,,,,,,,,,,,,,,,,,,,,,,,,,,,,,,,,,,,,,,,,,,,,,,,,,,,,,,,,,,,,,,,
,,,,,,4,0,4,0,1,X V Q F H G B L J M P D K C T S W R N Z,605238bfdfe6ffc953c1b760,20,Mężczyzna,2022-06-11_09h31.34.411,task,2021.1.4,Win32,60.00960154,6299f149e92ead563fba08ef,62a444738f4cf27bba80cce8,,,,,,,,,,,,,,,,,,,,,,,,,,,,,,,,,,,,,,,,,,,,,,,,,,,,,,,,,,,,,,,,,,,,,,,,,,,,,,,,,,,,,,,,,,,,,,,,,,,,,
,,,,,,5,0,5,0,1,X V Q F H G B L J M P D K C T S W R N Z,605238bfdfe6ffc953c1b760,20,Mężczyzna,2022-06-11_09h31.34.411,task,2021.1.4,Win32,60.00960154,6299f149e92ead563fba08ef,62a444738f4cf27bba80cce8,,,,,,,,,,,,,,,,,,,,,,,,,,,,,,,,,,,,,,,,,,,,,,,,,,,,,,,,,,,,,,,,,,,,,,,,,,,,,,,,,,,,,,,,,,,,,,,,,,,,,
,,,,,,6,0,6,0,1,X V Q F H G B L J M P D K C T S W R N Z,605238bfdfe6ffc953c1b760,20,Mężczyzna,2022-06-11_09h31.34.411,task,2021.1.4,Win32,60.00960154,6299f149e92ead563fba08ef,62a444738f4cf27bba80cce8,,,,,,,,,,,,,,,,,,,,,,,,,,,,,,,,,,,,,,,,,,,,,,,,,,,,,,,,,,,,,,,,,,,,,,,,,,,,,,,,,,,,,,,,,,,,,,,,,,,,,
,,,,,,,,,,,,605238bfdfe6ffc953c1b760,20,Mężczyzna,2022-06-11_09h31.34.411,task,2021.1.4,Win32,60.00960154,6299f149e92ead563fba08ef,62a444738f4cf27bba80cce8,jtgvrtx,"[""j"",""t"",""g"",""v"",""r"",""t"",""x""]","[1.3872999999970261,3.0504999999999995,3.617399999998497,4.357299999997025,4.807299999997014,6.567399999998514,9.237399999998502,9.307399999998495]",0,FTVMRTG,13,0,13,0,1,,,,,,,,,,,,,,,,,,,,,,,,,,,,,,,,,,,,,,,,,,,,,,,,,,,,,,,,,,,,,,,,,,,,,,,,,,,,,,,,,,,,,,,,,,,
,,,,,,0,0,0,0,1,X V Q F H G B L J M P D K C T S W R N Z,605238bfdfe6ffc953c1b760,20,Mężczyzna,2022-06-11_09h31.34.411,task,2021.1.4,Win32,60.00960154,6299f149e92ead563fba08ef,62a444738f4cf27bba80cce8,,,,,,,,,,,,,,,,,,,,,,,,,,,,,,,,,,,,,,,,,,,,,,,,,,,,,,,,,,,,,,,,,,,,,,,,,,,,,,,,,,,,,,,,,,,,,,,,,,,,,
,,,,,,1,0,1,0,1,X V Q F H G B L J M P D K C T S W R N Z,605238bfdfe6ffc953c1b760,20,Mężczyzna,2022-06-11_09h31.34.411,task,2021.1.4,Win32,60.00960154,6299f149e92ead563fba08ef,62a444738f4cf27bba80cce8,,,,,,,,,,,,,,,,,,,,,,,,,,,,,,,,,,,,,,,,,,,,,,,,,,,,,,,,,,,,,,,,,,,,,,,,,,,,,,,,,,,,,,,,,,,,,,,,,,,,,
,,,,,,2,0,2,0,1,X V Q F H G B L J M P D K C T S W R N Z,605238bfdfe6ffc953c1b760,20,Mężczyzna,2022-06-11_09h31.34.411,task,2021.1.4,Win32,60.00960154,6299f149e92ead563fba08ef,62a444738f4cf27bba80cce8,,,,,,,,,,,,,,,,,,,,,,,,,,,,,,,,,,,,,,,,,,,,,,,,,,,,,,,,,,,,,,,,,,,,,,,,,,,,,,,,,,,,,,,,,,,,,,,,,,,,,
,,,,,,3,0,3,0,1,X V Q F H G B L J M P D K C T S W R N Z,605238bfdfe6ffc953c1b760,20,Mężczyzna,2022-06-11_09h31.34.411,task,2021.1.4,Win32,60.00960154,6299f149e92ead563fba08ef,62a444738f4cf27bba80cce8,,,,,,,,,,,,,,,,,,,,,,,,,,,,,,,,,,,,,,,,,,,,,,,,,,,,,,,,,,,,,,,,,,,,,,,,,,,,,,,,,,,,,,,,,,,,,,,,,,,,,
,,,,,,4,0,4,0,1,X V Q F H G B L J M P D K C T S W R N Z,605238bfdfe6ffc953c1b760,20,Mężczyzna,2022-06-11_09h31.34.411,task,2021.1.4,Win32,60.00960154,6299f149e92ead563fba08ef,62a444738f4cf27bba80cce8,,,,,,,,,,,,,,,,,,,,,,,,,,,,,,,,,,,,,,,,,,,,,,,,,,,,,,,,,,,,,,,,,,,,,,,,,,,,,,,,,,,,,,,,,,,,,,,,,,,,,
,,,,,,5,0,5,0,1,X V Q F H G B L J M P D K C T S W R N Z,605238bfdfe6ffc953c1b760,20,Mężczyzna,2022-06-11_09h31.34.411,task,2021.1.4,Win32,60.00960154,6299f149e92ead563fba08ef,62a444738f4cf27bba80cce8,,,,,,,,,,,,,,,,,,,,,,,,,,,,,,,,,,,,,,,,,,,,,,,,,,,,,,,,,,,,,,,,,,,,,,,,,,,,,,,,,,,,,,,,,,,,,,,,,,,,,
,,,,,,6,0,6,0,1,X V Q F H G B L J M P D K C T S W R N Z,605238bfdfe6ffc953c1b760,20,Mężczyzna,2022-06-11_09h31.34.411,task,2021.1.4,Win32,60.00960154,6299f149e92ead563fba08ef,62a444738f4cf27bba80cce8,,,,,,,,,,,,,,,,,,,,,,,,,,,,,,,,,,,,,,,,,,,,,,,,,,,,,,,,,,,,,,,,,,,,,,,,,,,,,,,,,,,,,,,,,,,,,,,,,,,,,
,,,,,,,,,,,,605238bfdfe6ffc953c1b760,20,Mężczyzna,2022-06-11_09h31.34.411,task,2021.1.4,Win32,60.00960154,6299f149e92ead563fba08ef,62a444738f4cf27bba80cce8,cwlkjr,"[""c"",""w"",""l"",""k"",""j"",""r""]","[1.5141000000014913,1.7538999999985094,2.073899999998531,2.6040000000000134,2.9240000000000066,5.623799999997033,5.924000000000007]",0,CWLKJNR,14,0,14,0,1,,,,,,,,,,,,,,,,,,,,,,,,,,,,,,,,,,,,,,,,,,,,,,,,,,,,,,,,,,,,,,,,,,,,,,,,,,,,,,,,,,,,,,,,,,,
,,,,,,0,0,0,0,1,X V Q F H G B L J M P D K C T S W R N Z,605238bfdfe6ffc953c1b760,20,Mężczyzna,2022-06-11_09h31.34.411,task,2021.1.4,Win32,60.00960154,6299f149e92ead563fba08ef,62a444738f4cf27bba80cce8,,,,,,,,,,,,,,,,,,,,,,,,,,,,,,,,,,,,,,,,,,,,,,,,,,,,,,,,,,,,,,,,,,,,,,,,,,,,,,,,,,,,,,,,,,,,,,,,,,,,,
,,,,,,1,0,1,0,1,X V Q F H G B L J M P D K C T S W R N Z,605238bfdfe6ffc953c1b760,20,Mężczyzna,2022-06-11_09h31.34.411,task,2021.1.4,Win32,60.00960154,6299f149e92ead563fba08ef,62a444738f4cf27bba80cce8,,,,,,,,,,,,,,,,,,,,,,,,,,,,,,,,,,,,,,,,,,,,,,,,,,,,,,,,,,,,,,,,,,,,,,,,,,,,,,,,,,,,,,,,,,,,,,,,,,,,,
,,,,,,2,0,2,0,1,X V Q F H G B L J M P D K C T S W R N Z,605238bfdfe6ffc953c1b760,20,Mężczyzna,2022-06-11_09h31.34.411,task,2021.1.4,Win32,60.00960154,6299f149e92ead563fba08ef,62a444738f4cf27bba80cce8,,,,,,,,,,,,,,,,,,,,,,,,,,,,,,,,,,,,,,,,,,,,,,,,,,,,,,,,,,,,,,,,,,,,,,,,,,,,,,,,,,,,,,,,,,,,,,,,,,,,,
,,,,,,3,0,3,0,1,X V Q F H G B L J M P D K C T S W R N Z,605238bfdfe6ffc953c1b760,20,Mężczyzna,2022-06-11_09h31.34.411,task,2021.1.4,Win32,60.00960154,6299f149e92ead563fba08ef,62a444738f4cf27bba80cce8,,,,,,,,,,,,,,,,,,,,,,,,,,,,,,,,,,,,,,,,,,,,,,,,,,,,,,,,,,,,,,,,,,,,,,,,,,,,,,,,,,,,,,,,,,,,,,,,,,,,,
,,,,,,4,0,4,0,1,X V Q F H G B L J M P D K C T S W R N Z,605238bfdfe6ffc953c1b760,20,Mężczyzna,2022-06-11_09h31.34.411,task,2021.1.4,Win32,60.00960154,6299f149e92ead563fba08ef,62a444738f4cf27bba80cce8,,,,,,,,,,,,,,,,,,,,,,,,,,,,,,,,,,,,,,,,,,,,,,,,,,,,,,,,,,,,,,,,,,,,,,,,,,,,,,,,,,,,,,,,,,,,,,,,,,,,,
,,,,,,5,0,5,0,1,X V Q F H G B L J M P D K C T S W R N Z,605238bfdfe6ffc953c1b760,20,Mężczyzna,2022-06-11_09h31.34.411,task,2021.1.4,Win32,60.00960154,6299f149e92ead563fba08ef,62a444738f4cf27bba80cce8,,,,,,,,,,,,,,,,,,,,,,,,,,,,,,,,,,,,,,,,,,,,,,,,,,,,,,,,,,,,,,,,,,,,,,,,,,,,,,,,,,,,,,,,,,,,,,,,,,,,,
,,,,,,6,0,6,0,1,X V Q F H G B L J M P D K C T S W R N Z,605238bfdfe6ffc953c1b760,20,Mężczyzna,2022-06-11_09h31.34.411,task,2021.1.4,Win32,60.00960154,6299f149e92ead563fba08ef,62a444738f4cf27bba80cce8,,,,,,,,,,,,,,,,,,,,,,,,,,,,,,,,,,,,,,,,,,,,,,,,,,,,,,,,,,,,,,,,,,,,,,,,,,,,,,,,,,,,,,,,,,,,,,,,,,,,,
,,,,,,,,,,,,605238bfdfe6ffc953c1b760,20,Mężczyzna,2022-06-11_09h31.34.411,task,2021.1.4,Win32,60.00960154,6299f149e92ead563fba08ef,62a444738f4cf27bba80cce8,skmnbxv,"[""s"",""k"",""m"",""n"",""b"",""x"",""v""]","[1.3937999999970145,1.7436999999955276,2.0837999999970123,3.363699999995532,3.733799999997018,4.123699999995523,4.973899999998508,5.203699999995507]",0,SKNMBXV,15,0,15,0,1,,,,,,,,,,,,,,,,,,,,,,,,,,,,,,,,,,,,,,,,,,,,,,,,,,,,,,,,,,,,,,,,,,,,,,,,,,,,,,,,,,,,,,,,,,,
,,,,,,,,,,,,605238bfdfe6ffc953c1b760,20,Mężczyzna,2022-06-11_09h31.34.411,task,2021.1.4,Win32,60.00960154,6299f149e92ead563fba08ef,62a444738f4cf27bba80cce8,,,,,,,,,,,space,16.7588,1,"[""1""]",1,[4.527499999999975],[4.527499999999975],0,0,0,1,1,Practice,2,(4x4) - 15,1,,,,,,,,,,,,,,,,,,,,,,,,,,,,,,,,,,,,,,,,,,,,,,,,,,,,,,,,,,,,,,,,,,,,,,,,,,,
,,,,,,,,,,,,605238bfdfe6ffc953c1b760,20,Mężczyzna,2022-06-11_09h31.34.411,task,2021.1.4,Win32,60.00960154,6299f149e92ead563fba08ef,62a444738f4cf27bba80cce8,,,,,,,,,,,,,7,"[""7""]",1,[3.450399999998524],"[4.527499999999975,3.450399999998524]",0,1,1,7,1,Practice,8,(5x5) - 18,7,,,,,,,,,,,,,,,,,,,,,,,,,,,,,,,,,,,,,,,,,,,,,,,,,,,,,,,,,,,,,,,,,,,,,,,,,,,
,,,,,,,,,,,,605238bfdfe6ffc953c1b760,20,Mężczyzna,2022-06-11_09h31.34.411,task,2021.1.4,Win32,60.00960154,6299f149e92ead563fba08ef,62a444738f4cf27bba80cce8,,,,,,,,,,,,,4,"[""4""]",1,[2.497899999998481],"[4.527499999999975,3.450399999998524,2.497899999998481]",0,2,2,4,1,Practice,5,(2x6) - 8,4,,,,,,,,,,,,,,,,,,,,,,,,,,,,,,,,,,,,,,,,,,,,,,,,,,,,,,,,,,,,,,,,,,,,,,,,,,,
,,,,,,,,,,,,605238bfdfe6ffc953c1b760,20,Mężczyzna,2022-06-11_09h31.34.411,task,2021.1.4,Win32,60.00960154,6299f149e92ead563fba08ef,62a444738f4cf27bba80cce8,,,,,,,,,,,,,0,"[""0""]",1,[1.7241000000014992],"[4.527499999999975,3.450399999998524,2.497899999998481,1.7241000000014992]",0,3,3,0,1,Practice,1,(3x3) -  9,0,,,,,,,,,,,,,,,,,,,,,,,,,,,,,,,,,,,,,,,,,,,,,,,,,,,,,,,,,,,,,,,,,,,,,,,,,,,
,,,,,,,,,,,,605238bfdfe6ffc953c1b760,20,Mężczyzna,2022-06-11_09h31.34.411,task,2021.1.4,Win32,60.00960154,6299f149e92ead563fba08ef,62a444738f4cf27bba80cce8,,,,,,,,,,,,,9,"[""9""]",1,[2.174199999995551],"[4.527499999999975,3.450399999998524,2.497899999998481,1.7241000000014992,2.174199999995551]",0,4,4,9,1,Practice,10,(20/2) - 1,9,,,,,,,,,,,,,,,,,,,,,,,,,,,,,,,,,,,,,,,,,,,,,,,,,,,,,,,,,,,,,,,,,,,,,,,,,,,
,,,,,,,,,,,,605238bfdfe6ffc953c1b760,20,Mężczyzna,2022-06-11_09h31.34.411,task,2021.1.4,Win32,60.00960154,6299f149e92ead563fba08ef,62a444738f4cf27bba80cce8,,,,,,,,,,,,,2,"[""2""]",1,[2.605299999996987],"[4.527499999999975,3.450399999998524,2.497899999998481,1.7241000000014992,2.174199999995551,2.605299999996987]",0,5,5,2,1,Practice,3,(4x4) - 14,2,,,,,,,,,,,,,,,,,,,,,,,,,,,,,,,,,,,,,,,,,,,,,,,,,,,,,,,,,,,,,,,,,,,,,,,,,,,
,,,,,,,,,,,,605238bfdfe6ffc953c1b760,20,Mężczyzna,2022-06-11_09h31.34.411,task,2021.1.4,Win32,60.00960154,6299f149e92ead563fba08ef,62a444738f4cf27bba80cce8,,,,,,,,,,,,,3,"[""3""]",1,[1.9507999999970025],"[4.527499999999975,3.450399999998524,2.497899999998481,1.7241000000014992,2.174199999995551,2.605299999996987,1.9507999999970025]",0,6,6,3,1,Practice,4,(8/4) + 1,3,,,,,,,,,,,,,,,,,,,,,,,,,,,,,,,,,,,,,,,,,,,,,,,,,,,,,,,,,,,,,,,,,,,,,,,,,,,
,,,,,,,,,,,,605238bfdfe6ffc953c1b760,20,Mężczyzna,2022-06-11_09h31.34.411,task,2021.1.4,Win32,60.00960154,6299f149e92ead563fba08ef,62a444738f4cf27bba80cce8,,,,,,,,,,,,,6,"[""6""]",1,[2.067700000002958],"[4.527499999999975,3.450399999998524,2.497899999998481,1.7241000000014992,2.174199999995551,2.605299999996987,1.9507999999970025,2.067700000002958]",0,7,7,6,1,Practice,7,(25/5) + 1,6,,,,,,,,,,,,,,,,,,,,,,,,,,,,,,,,,,,,,,,,,,,,,,,,,,,,,,,,,,,,,,,,,,,,,,,,,,,
,,,,,,,,,,,,605238bfdfe6ffc953c1b760,20,Mężczyzna,2022-06-11_09h31.34.411,task,2021.1.4,Win32,60.00960154,6299f149e92ead563fba08ef,62a444738f4cf27bba80cce8,,,,,,,,,,,,,5,"[""5""]",1,[2.487600000001521],"[4.527499999999975,3.450399999998524,2.497899999998481,1.7241000000014992,2.174199999995551,2.605299999996987,1.9507999999970025,2.067700000002958,2.487600000001521]",0,8,8,5,1,Practice,6,(4/2) + 3,5,,,,,,,,,,,,,,,,,,,,,,,,,,,,,,,,,,,,,,,,,,,,,,,,,,,,,,,,,,,,,,,,,,,,,,,,,,,
,,,,,,,,,,,,605238bfdfe6ffc953c1b760,20,Mężczyzna,2022-06-11_09h31.34.411,task,2021.1.4,Win32,60.00960154,6299f149e92ead563fba08ef,62a444738f4cf27bba80cce8,,,,,,,,,,,,,8,"[""8""]",1,[2.3916000000015174],"[4.527499999999975,3.450399999998524,2.497899999998481,1.7241000000014992,2.174199999995551,2.605299999996987,1.9507999999970025,2.067700000002958,2.487600000001521,2.3916000000015174]",0,9,9,8,1,Practice,9,(3x3) - 1,8,,,,,,,,,,,,,,,,,,,,,,,,,,,,,,,,,,,,,,,,,,,,,,,,,,,,,,,,,,,,,,,,,,,,,,,,,,,
,,,,,,,,,,,,605238bfdfe6ffc953c1b760,20,Mężczyzna,2022-06-11_09h31.34.411,task,2021.1.4,Win32,60.00960154,6299f149e92ead563fba08ef,62a444738f4cf27bba80cce8,,,,,,,,,,,,,,,,,,,,,,,,,,,1,25.8771,1.72514,13.59702322,0.952086243,4.181522508,space,3.7563,0,0,0,0,1,,,,,,,,,,,,,,,,,,,,,,,,,,,,,,,,,,,,,,,,,,,,,,,,,,,,,,,,,,,,,,
,,,,,,,,,,,,605238bfdfe6ffc953c1b760,20,Mężczyzna,2022-06-11_09h31.34.411,task,2021.1.4,Win32,60.00960154,6299f149e92ead563fba08ef,62a444738f4cf27bba80cce8,,,,,,,,,,,,,6,,,,,,,,,,Practice,7,(25/5) + 1,6,,,,,,,,,,,,,,space,15.9027,"[""6""]",1,[3.272100000001501],1,0,0,0,6,1,,,,,,,,,,,,,,,,,,,,,,,,,,,,,,,,,,,,,,,,,,,,,,,,,,,
,,,,,,,,,,,X V Q F H G B L J M P D K C T S W R N Z,605238bfdfe6ffc953c1b760,20,Mężczyzna,2022-06-11_09h31.34.411,task,2021.1.4,Win32,60.00960154,6299f149e92ead563fba08ef,62a444738f4cf27bba80cce8,,,,,,,,,,,,,,,,,,,,,,,,,,,,,,,,,,,,,,,,,,,,,,,,,,,0,0,0,0,1,,,,,,,,,,,,,,,,,,,,,,,,,,,,,,,,,,,,,,,,,,,,,,
,,,,,,,,,,,,605238bfdfe6ffc953c1b760,20,Mężczyzna,2022-06-11_09h31.34.411,task,2021.1.4,Win32,60.00960154,6299f149e92ead563fba08ef,62a444738f4cf27bba80cce8,,,,,,,,,,,,,8,,,,,,,,,,Practice,9,(3x3) - 1,8,,,,,,,,,,,,,,,,"[""8""]",1,[2.5668999999985544],1,0,0,0,8,1,,,,,,,,,,,,,,,,,,,,,,,,,,,,,,,,,,,,,,,,,,,,,,,,,,,
,,,,,,,,,,,X V Q F H G B L J M P D K C T S W R N Z,605238bfdfe6ffc953c1b760,20,Mężczyzna,2022-06-11_09h31.34.411,task,2021.1.4,Win32,60.00960154,6299f149e92ead563fba08ef,62a444738f4cf27bba80cce8,,,,,,,,,,,,,,,,,,,,,,,,,,,,,,,,,,,,,,,,,,,,,,,,,,,1,0,1,0,1,,,,,,,,,,,,,,,,,,,,,,,,,,,,,,,,,,,,,,,,,,,,,,
,,,,,,,,,,,,605238bfdfe6ffc953c1b760,20,Mężczyzna,2022-06-11_09h31.34.411,task,2021.1.4,Win32,60.00960154,6299f149e92ead563fba08ef,62a444738f4cf27bba80cce8,,,,,,,,,,,,,,,,,,,,,,,,,,,,,,,,,,,,,,,,,,,,,,,,,,,,,,,,zt,"[""z"",""t""]",0,"[1.905200000002992,2.195100000001503,3.2051000000014938]",1,0,0,0,0,1,,,,,,,,,,,,,,,,,,,,,,,,,,,,,,,,,,,,
,,,,,,,,,,,,605238bfdfe6ffc953c1b760,20,Mężczyzna,2022-06-11_09h31.34.411,task,2021.1.4,Win32,60.00960154,6299f149e92ead563fba08ef,62a444738f4cf27bba80cce8,,,,,,,,,,,,,8,,,,,,,,,,Practice,9,(3x3) - 1,8,,,,,,,,,,,,,,,,"[""8""]",1,[1.7789999999999964],1,0,0,0,8,1,,,,,,,,,,,,,,,,,,,,,,,,,,,,,,,,,,,,,,,,,,,,,,,,,,,
,,,,,,,,,,,X V Q F H G B L J M P D K C T S W R N Z,605238bfdfe6ffc953c1b760,20,Mężczyzna,2022-06-11_09h31.34.411,task,2021.1.4,Win32,60.00960154,6299f149e92ead563fba08ef,62a444738f4cf27bba80cce8,,,,,,,,,,,,,,,,,,,,,,,,,,,,,,,,,,,,,,,,,,,,,,,,,,,0,0,0,0,1,,,,,,,,,,,,,,,,,,,,,,,,,,,,,,,,,,,,,,,,,,,,,,
,,,,,,,,,,,,605238bfdfe6ffc953c1b760,20,Mężczyzna,2022-06-11_09h31.34.411,task,2021.1.4,Win32,60.00960154,6299f149e92ead563fba08ef,62a444738f4cf27bba80cce8,,,,,,,,,,,,,3,,,,,,,,,,Practice,4,(8/4) + 1,3,,,,,,,,,,,,,,,,"[""3""]",1,[2.4856000000014546],1,0,0,0,3,1,,,,,,,,,,,,,,,,,,,,,,,,,,,,,,,,,,,,,,,,,,,,,,,,,,,
,,,,,,,,,,,X V Q F H G B L J M P D K C T S W R N Z,605238bfdfe6ffc953c1b760,20,Mężczyzna,2022-06-11_09h31.34.411,task,2021.1.4,Win32,60.00960154,6299f149e92ead563fba08ef,62a444738f4cf27bba80cce8,,,,,,,,,,,,,,,,,,,,,,,,,,,,,,,,,,,,,,,,,,,,,,,,,,,1,0,1,0,1,,,,,,,,,,,,,,,,,,,,,,,,,,,,,,,,,,,,,,,,,,,,,,
,,,,,,,,,,,,605238bfdfe6ffc953c1b760,20,Mężczyzna,2022-06-11_09h31.34.411,task,2021.1.4,Win32,60.00960154,6299f149e92ead563fba08ef,62a444738f4cf27bba80cce8,,,,,,,,,,,,,,,,,,,,,,,,,,,,,,,,,,,,,,,,,,,,,,,,,,,,,,,,rv,"[""r"",""v""]",0,"[2.1586999999955196,2.358799999997018,2.8688999999985185]",1,1,0,1,0,1,,,,,,,,,,,,,,,,,,,,,,,,,,,,,,,,,,,,
,,,,,,,,,,,,605238bfdfe6ffc953c1b760,20,Mężczyzna,2022-06-11_09h31.34.411,task,2021.1.4,Win32,60.00960154,6299f149e92ead563fba08ef,62a444738f4cf27bba80cce8,,,,,,,,,,,,,,,,,,,,,,,Practice,6,(4/2) + 3,5,,,,,,,,,,,,,,,,,0,,0,0,0,0,5,1,,,,,,,,,,,,,,,,,,,,,,,,,,,,,,,,,,,,,,,,,,,,,,,,,,,
,,,,,,,,,,,,605238bfdfe6ffc953c1b760,20,Mężczyzna,2022-06-11_09h31.34.411,task,2021.1.4,Win32,60.00960154,6299f149e92ead563fba08ef,62a444738f4cf27bba80cce8,,,,,,,,,,,,,2,,,,,,,,,,Practice,3,(4x4) - 14,2,,,,,,,,,,,,,,,,"[""2""]",1,[2.701999999999998],1,0,1,1,2,1,,,,,,,,,,,,,,,,,,,,,,,,,,,,,,,,,,,,,,,,,,,,,,,,,,,
,,,,,,,,,,,X V Q F H G B L J M P D K C T S W R N Z,605238bfdfe6ffc953c1b760,20,Mężczyzna,2022-06-11_09h31.34.411,task,2021.1.4,Win32,60.00960154,6299f149e92ead563fba08ef,62a444738f4cf27bba80cce8,,,,,,,,,,,,,,,,,,,,,,,,,,,,,,,,,,,,,,,,,,,,,,,,,,,0,0,0,0,1,,,,,,,,,,,,,,,,,,,,,,,,,,,,,,,,,,,,,,,,,,,,,,
,,,,,,,,,,,,605238bfdfe6ffc953c1b760,20,Mężczyzna,2022-06-11_09h31.34.411,task,2021.1.4,Win32,60.00960154,6299f149e92ead563fba08ef,62a444738f4cf27bba80cce8,,,,,,,,,,,,,5,,,,,,,,,,Practice,6,(4/2) + 3,5,,,,,,,,,,,,,,,,"[""5""]",1,[2.5832000000029893],1,0,0,0,5,1,,,,,,,,,,,,,,,,,,,,,,,,,,,,,,,,,,,,,,,,,,,,,,,,,,,
,,,,,,,,,,,X V Q F H G B L J M P D K C T S W R N Z,605238bfdfe6ffc953c1b760,20,Mężczyzna,2022-06-11_09h31.34.411,task,2021.1.4,Win32,60.00960154,6299f149e92ead563fba08ef,62a444738f4cf27bba80cce8,,,,,,,,,,,,,,,,,,,,,,,,,,,,,,,,,,,,,,,,,,,,,,,,,,,1,0,1,0,1,,,,,,,,,,,,,,,,,,,,,,,,,,,,,,,,,,,,,,,,,,,,,,
,,,,,,,,,,,,605238bfdfe6ffc953c1b760,20,Mężczyzna,2022-06-11_09h31.34.411,task,2021.1.4,Win32,60.00960154,6299f149e92ead563fba08ef,62a444738f4cf27bba80cce8,,,,,,,,,,,,,,,,,,,,,,,,,,,,,,,,,,,,,,,,,,,,,,,,,,,,,,,,st,"[""s"",""t""]",0,"[1.435299999997028,1.685100000001455,2.224999999999966]",1,2,0,2,0,1,,,,,,,,,,,,,,,,,,,,,,,,,,,,,,,,,,,,
,,,,,,,,,,,,605238bfdfe6ffc953c1b760,20,Mężczyzna,2022-06-11_09h31.34.411,task,2021.1.4,Win32,60.00960154,6299f149e92ead563fba08ef,62a444738f4cf27bba80cce8,,,,,,,,,,,,,7,,,,,,,,,,Task,14,(2x2) + 3,7,,,,,,,,,,,,,,,,,,,1,,,,,,,,,,,,,,,,,,,,,space,16.9559,"[""7""]",1,[2.362000000000023],0,0,0,13,1,,,,,,,,,,,,,,,,,,,,,,,,,,
,,,,,,,,,,,X V Q F H G B L J M P D K C T S W R N Z,605238bfdfe6ffc953c1b760,20,Mężczyzna,2022-06-11_09h31.34.411,task,2021.1.4,Win32,60.00960154,6299f149e92ead563fba08ef,62a444738f4cf27bba80cce8,,,,,,,,,,,,,,,,,,,,,,,,,,,,,,,,,,,,,,,,,,,,,,,,,,,,,,,,,,,,,,,,,,,,,,,,,,,,0,0,0,0,1,,,,,,,,,,,,,,,,,,,,,
,,,,,,,,,,,,605238bfdfe6ffc953c1b760,20,Mężczyzna,2022-06-11_09h31.34.411,task,2021.1.4,Win32,60.00960154,6299f149e92ead563fba08ef,62a444738f4cf27bba80cce8,,,,,,,,,,,,,8,,,,,,,,,,Task,23,(2x3) + 2,8,,,,,,,,,,,,,,,,,,,1,,,,,,,,,,,,,,,,,,,,,,,"[""8""]",1,[2.11850000000004],0,0,0,22,1,,,,,,,,,,,,,,,,,,,,,,,,,,
,,,,,,,,,,,X V Q F H G B L J M P D K C T S W R N Z,605238bfdfe6ffc953c1b760,20,Mężczyzna,2022-06-11_09h31.34.411,task,2021.1.4,Win32,60.00960154,6299f149e92ead563fba08ef,62a444738f4cf27bba80cce8,,,,,,,,,,,,,,,,,,,,,,,,,,,,,,,,,,,,,,,,,,,,,,,,,,,,,,,,,,,,,,,,,,,,,,,,,,,,1,0,1,0,1,,,,,,,,,,,,,,,,,,,,,
,,,,,,,,,,,,605238bfdfe6ffc953c1b760,20,Mężczyzna,2022-06-11_09h31.34.411,task,2021.1.4,Win32,60.00960154,6299f149e92ead563fba08ef,62a444738f4cf27bba80cce8,,,,,,,,,,,,,,,,,,,,,,,,,,,,,,,,,,,,,,,,,,,,,,,,,,,,,,,,,,,,,,,,,,,,,,,,,,,,,,,,,zb,"[""z"",""b""]",0,"[1.4586000000014678,1.7684999999999604,3.0284999999999513]",1,ZB,0,0,0,0,1,,,,,,,,,,
,,,,,,,,,,,,605238bfdfe6ffc953c1b760,20,Mężczyzna,2022-06-11_09h31.34.411,task,2021.1.4,Win32,60.00960154,6299f149e92ead563fba08ef,62a444738f4cf27bba80cce8,,,,,,,,,,,,,4,,,,,,,,,,Task,11,(18/3) - 2,4,,,,,,,,,,,,,,,,,,,1,,,,,,,,,,,,,,,,,,,,,,,"[""4""]",1,[4.014600000001508],0,0,0,10,1,,,,,,,,,,,,,,,,,,,,,,,,,,
,,,,,,,,,,,X V Q F H G B L J M P D K C T S W R N Z,605238bfdfe6ffc953c1b760,20,Mężczyzna,2022-06-11_09h31.34.411,task,2021.1.4,Win32,60.00960154,6299f149e92ead563fba08ef,62a444738f4cf27bba80cce8,,,,,,,,,,,,,,,,,,,,,,,,,,,,,,,,,,,,,,,,,,,,,,,,,,,,,,,,,,,,,,,,,,,,,,,,,,,,0,0,0,0,1,,,,,,,,,,,,,,,,,,,,,
,,,,,,,,,,,,605238bfdfe6ffc953c1b760,20,Mężczyzna,2022-06-11_09h31.34.411,task,2021.1.4,Win32,60.00960154,6299f149e92ead563fba08ef,62a444738f4cf27bba80cce8,,,,,,,,,,,,,9,,,,,,,,,,Task,16,(3x8) - 15,9,,,,,,,,,,,,,,,,,,,1,,,,,,,,,,,,,,,,,,,,,,,"[""9""]",1,[3.6428000000044563],0,0,0,15,1,,,,,,,,,,,,,,,,,,,,,,,,,,
,,,,,,,,,,,X V Q F H G B L J M P D K C T S W R N Z,605238bfdfe6ffc953c1b760,20,Mężczyzna,2022-06-11_09h31.34.411,task,2021.1.4,Win32,60.00960154,6299f149e92ead563fba08ef,62a444738f4cf27bba80cce8,,,,,,,,,,,,,,,,,,,,,,,,,,,,,,,,,,,,,,,,,,,,,,,,,,,,,,,,,,,,,,,,,,,,,,,,,,,,1,0,1,0,1,,,,,,,,,,,,,,,,,,,,,
,,,,,,,,,,,,605238bfdfe6ffc953c1b760,20,Mężczyzna,2022-06-11_09h31.34.411,task,2021.1.4,Win32,60.00960154,6299f149e92ead563fba08ef,62a444738f4cf27bba80cce8,,,,,,,,,,,,,,,,,,,,,,,Task,38,(4x6) - 17,7,,,,,,,,,,,,,,,,,,,0,,,,,,,,,,,,,,,,,,,,,,,,0,,0,0,0,37,1,,,,,,,,,,,,,,,,,,,,,,,,,,
,,,,,,,,,,,,605238bfdfe6ffc953c1b760,20,Mężczyzna,2022-06-11_09h31.34.411,task,2021.1.4,Win32,60.00960154,6299f149e92ead563fba08ef,62a444738f4cf27bba80cce8,,,,,,,,,,,,,3,,,,,,,,,,Task,20,(18/9) + 1,3,,,,,,,,,,,,,,,,,,,1,,,,,,,,,,,,,,,,,,,,,,,"[""3""]",1,[1.878500000000031],0,1,1,19,1,,,,,,,,,,,,,,,,,,,,,,,,,,
,,,,,,,,,,,X V Q F H G B L J M P D K C T S W R N Z,605238bfdfe6ffc953c1b760,20,Mężczyzna,2022-06-11_09h31.34.411,task,2021.1.4,Win32,60.00960154,6299f149e92ead563fba08ef,62a444738f4cf27bba80cce8,,,,,,,,,,,,,,,,,,,,,,,,,,,,,,,,,,,,,,,,,,,,,,,,,,,,,,,,,,,,,,,,,,,,,,,,,,,,2,0,2,0,1,,,,,,,,,,,,,,,,,,,,,
,,,,,,,,,,,,605238bfdfe6ffc953c1b760,20,Mężczyzna,2022-06-11_09h31.34.411,task,2021.1.4,Win32,60.00960154,6299f149e92ead563fba08ef,62a444738f4cf27bba80cce8,,,,,,,,,,,,,,,,,,,,,,,,,,,,,,,,,,,,,,,,,,,,,,,,,,,,,,,,,,,,,,,,,,,,,,,,,,,,,,,,,zmq,"[""z"",""m"",""q""]",0,"[1.2171999999955574,1.5585000000000377,1.6883999999985235,1.9184999999999945]",0,MBQ,1,0,1,0,1,,,,,,,,,,
,,,,,,,,,,,,605238bfdfe6ffc953c1b760,20,Mężczyzna,2022-06-11_09h31.34.411,task,2021.1.4,Win32,60.00960154,6299f149e92ead563fba08ef,62a444738f4cf27bba80cce8,,,,,,,,,,,,,4,,,,,,,,,,Task,21,(10/2) - 1,4,,,,,,,,,,,,,,,,,,,1,,,,,,,,,,,,,,,,,,,,,,,"[""4""]",1,[2.1482999999970502],0,0,0,20,1,,,,,,,,,,,,,,,,,,,,,,,,,,
,,,,,,,,,,,X V Q F H G B L J M P D K C T S W R N Z,605238bfdfe6ffc953c1b760,20,Mężczyzna,2022-06-11_09h31.34.411,task,2021.1.4,Win32,60.00960154,6299f149e92ead563fba08ef,62a444738f4cf27bba80cce8,,,,,,,,,,,,,,,,,,,,,,,,,,,,,,,,,,,,,,,,,,,,,,,,,,,,,,,,,,,,,,,,,,,,,,,,,,,,0,0,0,0,1,,,,,,,,,,,,,,,,,,,,,
,,,,,,,,,,,,605238bfdfe6ffc953c1b760,20,Mężczyzna,2022-06-11_09h31.34.411,task,2021.1.4,Win32,60.00960154,6299f149e92ead563fba08ef,62a444738f4cf27bba80cce8,,,,,,,,,,,,,3,,,,,,,,,,Task,27,(3/3) + 2,3,,,,,,,,,,,,,,,,,,,1,,,,,,,,,,,,,,,,,,,,,,,"[""3""]",1,[2.9256999999955156],0,0,0,26,1,,,,,,,,,,,,,,,,,,,,,,,,,,
,,,,,,,,,,,X V Q F H G B L J M P D K C T S W R N Z,605238bfdfe6ffc953c1b760,20,Mężczyzna,2022-06-11_09h31.34.411,task,2021.1.4,Win32,60.00960154,6299f149e92ead563fba08ef,62a444738f4cf27bba80cce8,,,,,,,,,,,,,,,,,,,,,,,,,,,,,,,,,,,,,,,,,,,,,,,,,,,,,,,,,,,,,,,,,,,,,,,,,,,,1,0,1,0,1,,,,,,,,,,,,,,,,,,,,,
,,,,,,,,,,,,605238bfdfe6ffc953c1b760,20,Mężczyzna,2022-06-11_09h31.34.411,task,2021.1.4,Win32,60.00960154,6299f149e92ead563fba08ef,62a444738f4cf27bba80cce8,,,,,,,,,,,,,3,,,,,,,,,,Task,20,(18/9) + 1,3,,,,,,,,,,,,,,,,,,,1,,,,,,,,,,,,,,,,,,,,,,,"[""3""]",1,[1.9329999999999927],0,0,0,19,1,,,,,,,,,,,,,,,,,,,,,,,,,,
,,,,,,,,,,,X V Q F H G B L J M P D K C T S W R N Z,605238bfdfe6ffc953c1b760,20,Mężczyzna,2022-06-11_09h31.34.411,task,2021.1.4,Win32,60.00960154,6299f149e92ead563fba08ef,62a444738f4cf27bba80cce8,,,,,,,,,,,,,,,,,,,,,,,,,,,,,,,,,,,,,,,,,,,,,,,,,,,,,,,,,,,,,,,,,,,,,,,,,,,,2,0,2,0,1,,,,,,,,,,,,,,,,,,,,,
,,,,,,,,,,,,605238bfdfe6ffc953c1b760,20,Mężczyzna,2022-06-11_09h31.34.411,task,2021.1.4,Win32,60.00960154,6299f149e92ead563fba08ef,62a444738f4cf27bba80cce8,,,,,,,,,,,,,,,,,,,,,,,,,,,,,,,,,,,,,,,,,,,,,,,,,,,,,,,,,,,,,,,,,,,,,,,,,,,,,,,,,cxl,"[""c"",""x"",""l""]",0,"[1.5144999999999982,1.8170000000000073,1.9347000000029766,2.2944000000059646]",1,CXL,2,0,2,0,1,,,,,,,,,,
,,,,,,,,,,,,605238bfdfe6ffc953c1b760,20,Mężczyzna,2022-06-11_09h31.34.411,task,2021.1.4,Win32,60.00960154,6299f149e92ead563fba08ef,62a444738f4cf27bba80cce8,,,,,,,,,,,,,5,,,,,,,,,,Task,13,(3x4) - 6,6,,,,,,,,,,,,,,,,,,,0,,,,,,,,,,,,,,,,,,,,,,,"[""5""]",0,[3.4225000000000136],0,0,0,12,1,,,,,,,,,,,,,,,,,,,,,,,,,,
,,,,,,,,,,,,605238bfdfe6ffc953c1b760,20,Mężczyzna,2022-06-11_09h31.34.411,task,2021.1.4,Win32,60.00960154,6299f149e92ead563fba08ef,62a444738f4cf27bba80cce8,,,,,,,,,,,,,2,,,,,,,,,,Task,10,(2x5) - 8,2,,,,,,,,,,,,,,,,,,,1,,,,,,,,,,,,,,,,,,,,,,,"[""2""]",1,[2.4431999999954996],0,1,1,9,1,,,,,,,,,,,,,,,,,,,,,,,,,,
,,,,,,,,,,,X V Q F H G B L J M P D K C T S W R N Z,605238bfdfe6ffc953c1b760,20,Mężczyzna,2022-06-11_09h31.34.411,task,2021.1.4,Win32,60.00960154,6299f149e92ead563fba08ef,62a444738f4cf27bba80cce8,,,,,,,,,,,,,,,,,,,,,,,,,,,,,,,,,,,,,,,,,,,,,,,,,,,,,,,,,,,,,,,,,,,,,,,,,,,,0,0,0,0,1,,,,,,,,,,,,,,,,,,,,,
,,,,,,,,,,,,605238bfdfe6ffc953c1b760,20,Mężczyzna,2022-06-11_09h31.34.411,task,2021.1.4,Win32,60.00960154,6299f149e92ead563fba08ef,62a444738f4cf27bba80cce8,,,,,,,,,,,,,6,,,,,,,,,,Task,5,(2x3) + 0,6,,,,,,,,,,,,,,,,,,,1,,,,,,,,,,,,,,,,,,,,,,,"[""6""]",1,[2.9828999999985513],0,0,0,4,1,,,,,,,,,,,,,,,,,,,,,,,,,,
,,,,,,,,,,,X V Q F H G B L J M P D K C T S W R N Z,605238bfdfe6ffc953c1b760,20,Mężczyzna,2022-06-11_09h31.34.411,task,2021.1.4,Win32,60.00960154,6299f149e92ead563fba08ef,62a444738f4cf27bba80cce8,,,,,,,,,,,,,,,,,,,,,,,,,,,,,,,,,,,,,,,,,,,,,,,,,,,,,,,,,,,,,,,,,,,,,,,,,,,,1,0,1,0,1,,,,,,,,,,,,,,,,,,,,,
,,,,,,,,,,,,605238bfdfe6ffc953c1b760,20,Mężczyzna,2022-06-11_09h31.34.411,task,2021.1.4,Win32,60.00960154,6299f149e92ead563fba08ef,62a444738f4cf27bba80cce8,,,,,,,,,,,,,,,,,,,,,,,Task,13,(3x4) - 6,6,,,,,,,,,,,,,,,,,,,0,,,,,,,,,,,,,,,,,,,,,,,,0,,0,0,0,12,1,,,,,,,,,,,,,,,,,,,,,,,,,,
,,,,,,,,,,,,605238bfdfe6ffc953c1b760,20,Mężczyzna,2022-06-11_09h31.34.411,task,2021.1.4,Win32,60.00960154,6299f149e92ead563fba08ef,62a444738f4cf27bba80cce8,,,,,,,,,,,,,,,,,,,,,,,Task,30,(6/3) + 4 ,6,,,,,,,,,,,,,,,,,,,0,,,,,,,,,,,,,,,,,,,,,,,,0,,0,1,1,29,1,,,,,,,,,,,,,,,,,,,,,,,,,,
,,,,,,,,,,,,605238bfdfe6ffc953c1b760,20,Mężczyzna,2022-06-11_09h31.34.411,task,2021.1.4,Win32,60.00960154,6299f149e92ead563fba08ef,62a444738f4cf27bba80cce8,,,,,,,,,,,,,7,,,,,,,,,,Task,6,(12/2) + 1,7,,,,,,,,,,,,,,,,,,,1,,,,,,,,,,,,,,,,,,,,,,,"[""7""]",1,[1.6645000000000323],0,2,2,5,1,,,,,,,,,,,,,,,,,,,,,,,,,,
,,,,,,,,,,,X V Q F H G B L J M P D K C T S W R N Z,605238bfdfe6ffc953c1b760,20,Mężczyzna,2022-06-11_09h31.34.411,task,2021.1.4,Win32,60.00960154,6299f149e92ead563fba08ef,62a444738f4cf27bba80cce8,,,,,,,,,,,,,,,,,,,,,,,,,,,,,,,,,,,,,,,,,,,,,,,,,,,,,,,,,,,,,,,,,,,,,,,,,,,,2,0,2,0,1,,,,,,,,,,,,,,,,,,,,,
,,,,,,,,,,,,605238bfdfe6ffc953c1b760,20,Mężczyzna,2022-06-11_09h31.34.411,task,2021.1.4,Win32,60.00960154,6299f149e92ead563fba08ef,62a444738f4cf27bba80cce8,,,,,,,,,,,,,1,,,,,,,,,,Task,18,(16/4) - 3,1,,,,,,,,,,,,,,,,,,,1,,,,,,,,,,,,,,,,,,,,,,,"[""1""]",1,[2.4893999999985112],0,0,0,17,1,,,,,,,,,,,,,,,,,,,,,,,,,,
,,,,,,,,,,,X V Q F H G B L J M P D K C T S W R N Z,605238bfdfe6ffc953c1b760,20,Mężczyzna,2022-06-11_09h31.34.411,task,2021.1.4,Win32,60.00960154,6299f149e92ead563fba08ef,62a444738f4cf27bba80cce8,,,,,,,,,,,,,,,,,,,,,,,,,,,,,,,,,,,,,,,,,,,,,,,,,,,,,,,,,,,,,,,,,,,,,,,,,,,,3,0,3,0,1,,,,,,,,,,,,,,,,,,,,,
,,,,,,,,,,,,605238bfdfe6ffc953c1b760,20,Mężczyzna,2022-06-11_09h31.34.411,task,2021.1.4,Win32,60.00960154,6299f149e92ead563fba08ef,62a444738f4cf27bba80cce8,,,,,,,,,,,,,,,,,,,,,,,,,,,,,,,,,,,,,,,,,,,,,,,,,,,,,,,,,,,,,,,,,,,,,,,,,,,,,,,,,lxbn,"[""l"",""x"",""b"",""n""]",0,"[2.9711999999955765,3.4711000000015133,3.890000000000043,4.1111000000015,4.550000000000011]",0,FSBN,3,0,3,0,1,,,,,,,,,,
,,,,,,,,,,,,605238bfdfe6ffc953c1b760,20,Mężczyzna,2022-06-11_09h31.34.411,task,2021.1.4,Win32,60.00960154,6299f149e92ead563fba08ef,62a444738f4cf27bba80cce8,,,,,,,,,,,,,0,,,,,,,,,,Task,33,(1/1) - 1,0,,,,,,,,,,,,,,,,,,,1,,,,,,,,,,,,,,,,,,,,,,,"[""0""]",1,[1.7209000000059405],0,0,0,32,1,,,,,,,,,,,,,,,,,,,,,,,,,,
,,,,,,,,,,,X V Q F H G B L J M P D K C T S W R N Z,605238bfdfe6ffc953c1b760,20,Mężczyzna,2022-06-11_09h31.34.411,task,2021.1.4,Win32,60.00960154,6299f149e92ead563fba08ef,62a444738f4cf27bba80cce8,,,,,,,,,,,,,,,,,,,,,,,,,,,,,,,,,,,,,,,,,,,,,,,,,,,,,,,,,,,,,,,,,,,,,,,,,,,,0,0,0,0,1,,,,,,,,,,,,,,,,,,,,,
,,,,,,,,,,,,605238bfdfe6ffc953c1b760,20,Mężczyzna,2022-06-11_09h31.34.411,task,2021.1.4,Win32,60.00960154,6299f149e92ead563fba08ef,62a444738f4cf27bba80cce8,,,,,,,,,,,,,4,,,,,,,,,,Task,4,(1x5) - 1,4,,,,,,,,,,,,,,,,,,,1,,,,,,,,,,,,,,,,,,,,,,,"[""4""]",1,[1.8328999999985172],0,0,0,3,1,,,,,,,,,,,,,,,,,,,,,,,,,,
,,,,,,,,,,,X V Q F H G B L J M P D K C T S W R N Z,605238bfdfe6ffc953c1b760,20,Mężczyzna,2022-06-11_09h31.34.411,task,2021.1.4,Win32,60.00960154,6299f149e92ead563fba08ef,62a444738f4cf27bba80cce8,,,,,,,,,,,,,,,,,,,,,,,,,,,,,,,,,,,,,,,,,,,,,,,,,,,,,,,,,,,,,,,,,,,,,,,,,,,,1,0,1,0,1,,,,,,,,,,,,,,,,,,,,,
,,,,,,,,,,,,605238bfdfe6ffc953c1b760,20,Mężczyzna,2022-06-11_09h31.34.411,task,2021.1.4,Win32,60.00960154,6299f149e92ead563fba08ef,62a444738f4cf27bba80cce8,,,,,,,,,,,,,1,,,,,,,,,,Task,1,(12/6) - 1,1,,,,,,,,,,,,,,,,,,,1,,,,,,,,,,,,,,,,,,,,,,,"[""1""]",1,[3.175899999998535],0,0,0,0,1,,,,,,,,,,,,,,,,,,,,,,,,,,
,,,,,,,,,,,X V Q F H G B L J M P D K C T S W R N Z,605238bfdfe6ffc953c1b760,20,Mężczyzna,2022-06-11_09h31.34.411,task,2021.1.4,Win32,60.00960154,6299f149e92ead563fba08ef,62a444738f4cf27bba80cce8,,,,,,,,,,,,,,,,,,,,,,,,,,,,,,,,,,,,,,,,,,,,,,,,,,,,,,,,,,,,,,,,,,,,,,,,,,,,2,0,2,0,1,,,,,,,,,,,,,,,,,,,,,
,,,,,,,,,,,,605238bfdfe6ffc953c1b760,20,Mężczyzna,2022-06-11_09h31.34.411,task,2021.1.4,Win32,60.00960154,6299f149e92ead563fba08ef,62a444738f4cf27bba80cce8,,,,,,,,,,,,,8,,,,,,,,,,Task,15,(3x7) - 13,8,,,,,,,,,,,,,,,,,,,1,,,,,,,,,,,,,,,,,,,,,,,"[""8""]",1,[3.788499999999999],0,0,0,14,1,,,,,,,,,,,,,,,,,,,,,,,,,,
,,,,,,,,,,,X V Q F H G B L J M P D K C T S W R N Z,605238bfdfe6ffc953c1b760,20,Mężczyzna,2022-06-11_09h31.34.411,task,2021.1.4,Win32,60.00960154,6299f149e92ead563fba08ef,62a444738f4cf27bba80cce8,,,,,,,,,,,,,,,,,,,,,,,,,,,,,,,,,,,,,,,,,,,,,,,,,,,,,,,,,,,,,,,,,,,,,,,,,,,,3,0,3,0,1,,,,,,,,,,,,,,,,,,,,,
,,,,,,,,,,,,605238bfdfe6ffc953c1b760,20,Mężczyzna,2022-06-11_09h31.34.411,task,2021.1.4,Win32,60.00960154,6299f149e92ead563fba08ef,62a444738f4cf27bba80cce8,,,,,,,,,,,,,,,,,,,,,,,,,,,,,,,,,,,,,,,,,,,,,,,,,,,,,,,,,,,,,,,,,,,,,,,,,,,,,,,,,hvms,"[""h"",""v"",""m"",""s""]",0,"[1.4600999999939859,2.0997999999970034,2.3299999999999272,2.4698999999984608,2.680099999994013]",1,HVMS,4,0,4,0,1,,,,,,,,,,
,,,,,,,,,,,,605238bfdfe6ffc953c1b760,20,Mężczyzna,2022-06-11_09h31.34.411,task,2021.1.4,Win32,60.00960154,6299f149e92ead563fba08ef,62a444738f4cf27bba80cce8,,,,,,,,,,,,,1,,,,,,,,,,Task,9,(3x7) - 20,1,,,,,,,,,,,,,,,,,,,1,,,,,,,,,,,,,,,,,,,,,,,"[""1""]",1,[3.026699999995458],0,0,0,8,1,,,,,,,,,,,,,,,,,,,,,,,,,,
,,,,,,,,,,,X V Q F H G B L J M P D K C T S W R N Z,605238bfdfe6ffc953c1b760,20,Mężczyzna,2022-06-11_09h31.34.411,task,2021.1.4,Win32,60.00960154,6299f149e92ead563fba08ef,62a444738f4cf27bba80cce8,,,,,,,,,,,,,,,,,,,,,,,,,,,,,,,,,,,,,,,,,,,,,,,,,,,,,,,,,,,,,,,,,,,,,,,,,,,,0,0,0,0,1,,,,,,,,,,,,,,,,,,,,,
,,,,,,,,,,,,605238bfdfe6ffc953c1b760,20,Mężczyzna,2022-06-11_09h31.34.411,task,2021.1.4,Win32,60.00960154,6299f149e92ead563fba08ef,62a444738f4cf27bba80cce8,,,,,,,,,,,,,3,,,,,,,,,,Task,25,(10/5) - 2,0,,,,,,,,,,,,,,,,,,,0,,,,,,,,,,,,,,,,,,,,,,,"[""3""]",0,[1.828299999997057],0,0,0,24,1,,,,,,,,,,,,,,,,,,,,,,,,,,
,,,,,,,,,,,,605238bfdfe6ffc953c1b760,20,Mężczyzna,2022-06-11_09h31.34.411,task,2021.1.4,Win32,60.00960154,6299f149e92ead563fba08ef,62a444738f4cf27bba80cce8,,,,,,,,,,,,,3,,,,,,,,,,Task,35,(1x2) + 1,3,,,,,,,,,,,,,,,,,,,1,,,,,,,,,,,,,,,,,,,,,,,"[""3""]",1,[3.1480000000000246],0,1,1,34,1,,,,,,,,,,,,,,,,,,,,,,,,,,
,,,,,,,,,,,X V Q F H G B L J M P D K C T S W R N Z,605238bfdfe6ffc953c1b760,20,Mężczyzna,2022-06-11_09h31.34.411,task,2021.1.4,Win32,60.00960154,6299f149e92ead563fba08ef,62a444738f4cf27bba80cce8,,,,,,,,,,,,,,,,,,,,,,,,,,,,,,,,,,,,,,,,,,,,,,,,,,,,,,,,,,,,,,,,,,,,,,,,,,,,1,0,1,0,1,,,,,,,,,,,,,,,,,,,,,
,,,,,,,,,,,,605238bfdfe6ffc953c1b760,20,Mężczyzna,2022-06-11_09h31.34.411,task,2021.1.4,Win32,60.00960154,6299f149e92ead563fba08ef,62a444738f4cf27bba80cce8,,,,,,,,,,,,,9,,,,,,,,,,Task,24,(2x2) + 5,9,,,,,,,,,,,,,,,,,,,1,,,,,,,,,,,,,,,,,,,,,,,"[""9""]",1,[2.6282999999970116],0,0,0,23,1,,,,,,,,,,,,,,,,,,,,,,,,,,
,,,,,,,,,,,X V Q F H G B L J M P D K C T S W R N Z,605238bfdfe6ffc953c1b760,20,Mężczyzna,2022-06-11_09h31.34.411,task,2021.1.4,Win32,60.00960154,6299f149e92ead563fba08ef,62a444738f4cf27bba80cce8,,,,,,,,,,,,,,,,,,,,,,,,,,,,,,,,,,,,,,,,,,,,,,,,,,,,,,,,,,,,,,,,,,,,,,,,,,,,2,0,2,0,1,,,,,,,,,,,,,,,,,,,,,
,,,,,,,,,,,,605238bfdfe6ffc953c1b760,20,Mężczyzna,2022-06-11_09h31.34.411,task,2021.1.4,Win32,60.00960154,6299f149e92ead563fba08ef,62a444738f4cf27bba80cce8,,,,,,,,,,,,,8,,,,,,,,,,Task,32,(8/2) + 4,8,,,,,,,,,,,,,,,,,,,1,,,,,,,,,,,,,,,,,,,,,,,"[""8""]",1,[3.369700000002922],0,0,0,31,1,,,,,,,,,,,,,,,,,,,,,,,,,,
,,,,,,,,,,,X V Q F H G B L J M P D K C T S W R N Z,605238bfdfe6ffc953c1b760,20,Mężczyzna,2022-06-11_09h31.34.411,task,2021.1.4,Win32,60.00960154,6299f149e92ead563fba08ef,62a444738f4cf27bba80cce8,,,,,,,,,,,,,,,,,,,,,,,,,,,,,,,,,,,,,,,,,,,,,,,,,,,,,,,,,,,,,,,,,,,,,,,,,,,,3,0,3,0,1,,,,,,,,,,,,,,,,,,,,,
,,,,,,,,,,,,605238bfdfe6ffc953c1b760,20,Mężczyzna,2022-06-11_09h31.34.411,task,2021.1.4,Win32,60.00960154,6299f149e92ead563fba08ef,62a444738f4cf27bba80cce8,,,,,,,,,,,,,6,,,,,,,,,,Task,16,(3x8) - 15,9,,,,,,,,,,,,,,,,,,,0,,,,,,,,,,,,,,,,,,,,,,,"[""6""]",0,[3.211699999995517],0,0,0,15,1,,,,,,,,,,,,,,,,,,,,,,,,,,
,,,,,,,,,,,,605238bfdfe6ffc953c1b760,20,Mężczyzna,2022-06-11_09h31.34.411,task,2021.1.4,Win32,60.00960154,6299f149e92ead563fba08ef,62a444738f4cf27bba80cce8,,,,,,,,,,,,,1,,,,,,,,,,Task,9,(3x7) - 20,1,,,,,,,,,,,,,,,,,,,1,,,,,,,,,,,,,,,,,,,,,,,"[""1""]",1,[1.8277000000030057],0,1,1,8,1,,,,,,,,,,,,,,,,,,,,,,,,,,
,,,,,,,,,,,X V Q F H G B L J M P D K C T S W R N Z,605238bfdfe6ffc953c1b760,20,Mężczyzna,2022-06-11_09h31.34.411,task,2021.1.4,Win32,60.00960154,6299f149e92ead563fba08ef,62a444738f4cf27bba80cce8,,,,,,,,,,,,,,,,,,,,,,,,,,,,,,,,,,,,,,,,,,,,,,,,,,,,,,,,,,,,,,,,,,,,,,,,,,,,4,0,4,0,1,,,,,,,,,,,,,,,,,,,,,
,,,,,,,,,,,,605238bfdfe6ffc953c1b760,20,Mężczyzna,2022-06-11_09h31.34.411,task,2021.1.4,Win32,60.00960154,6299f149e92ead563fba08ef,62a444738f4cf27bba80cce8,,,,,,,,,,,,,,,,,,,,,,,,,,,,,,,,,,,,,,,,,,,,,,,,,,,,,,,,,,,,,,,,,,,,,,,,,,,,,,,,,hgdh,"[""h"",""g"",""d"",""h""]",0,"[2.3957999999970525,3.5161000000015292,4.175700000002962,4.415899999998487,5.415799999997034]",0,TGDKH,5,0,5,0,1,,,,,,,,,,
,,,,,,,,,,,,605238bfdfe6ffc953c1b760,20,Mężczyzna,2022-06-11_09h31.34.411,task,2021.1.4,Win32,60.00960154,6299f149e92ead563fba08ef,62a444738f4cf27bba80cce8,,,,,,,,,,,,,5,,,,,,,,,,Task,22,(3x1) + 2,5,,,,,,,,,,,,,,,,,,,1,,,,,,,,,,,,,,,,,,,,,,,"[""5""]",1,[2.0308999999984962],0,0,0,21,1,,,,,,,,,,,,,,,,,,,,,,,,,,
,,,,,,,,,,,X V Q F H G B L J M P D K C T S W R N Z,605238bfdfe6ffc953c1b760,20,Mężczyzna,2022-06-11_09h31.34.411,task,2021.1.4,Win32,60.00960154,6299f149e92ead563fba08ef,62a444738f4cf27bba80cce8,,,,,,,,,,,,,,,,,,,,,,,,,,,,,,,,,,,,,,,,,,,,,,,,,,,,,,,,,,,,,,,,,,,,,,,,,,,,0,0,0,0,1,,,,,,,,,,,,,,,,,,,,,
,,,,,,,,,,,,605238bfdfe6ffc953c1b760,20,Mężczyzna,2022-06-11_09h31.34.411,task,2021.1.4,Win32,60.00960154,6299f149e92ead563fba08ef,62a444738f4cf27bba80cce8,,,,,,,,,,,,,9,,,,,,,,,,Task,24,(2x2) + 5,9,,,,,,,,,,,,,,,,,,,1,,,,,,,,,,,,,,,,,,,,,,,"[""9""]",1,[1.5742000000029748],0,0,0,23,1,,,,,,,,,,,,,,,,,,,,,,,,,,
,,,,,,,,,,,X V Q F H G B L J M P D K C T S W R N Z,605238bfdfe6ffc953c1b760,20,Mężczyzna,2022-06-11_09h31.34.411,task,2021.1.4,Win32,60.00960154,6299f149e92ead563fba08ef,62a444738f4cf27bba80cce8,,,,,,,,,,,,,,,,,,,,,,,,,,,,,,,,,,,,,,,,,,,,,,,,,,,,,,,,,,,,,,,,,,,,,,,,,,,,1,0,1,0,1,,,,,,,,,,,,,,,,,,,,,
,,,,,,,,,,,,605238bfdfe6ffc953c1b760,20,Mężczyzna,2022-06-11_09h31.34.411,task,2021.1.4,Win32,60.00960154,6299f149e92ead563fba08ef,62a444738f4cf27bba80cce8,,,,,,,,,,,,,0,,,,,,,,,,Task,8,(1x5) - 5,0,,,,,,,,,,,,,,,,,,,1,,,,,,,,,,,,,,,,,,,,,,,"[""0""]",1,[2.104000000000042],0,0,0,7,1,,,,,,,,,,,,,,,,,,,,,,,,,,
,,,,,,,,,,,X V Q F H G B L J M P D K C T S W R N Z,605238bfdfe6ffc953c1b760,20,Mężczyzna,2022-06-11_09h31.34.411,task,2021.1.4,Win32,60.00960154,6299f149e92ead563fba08ef,62a444738f4cf27bba80cce8,,,,,,,,,,,,,,,,,,,,,,,,,,,,,,,,,,,,,,,,,,,,,,,,,,,,,,,,,,,,,,,,,,,,,,,,,,,,2,0,2,0,1,,,,,,,,,,,,,,,,,,,,,
,,,,,,,,,,,,605238bfdfe6ffc953c1b760,20,Mężczyzna,2022-06-11_09h31.34.411,task,2021.1.4,Win32,60.00960154,6299f149e92ead563fba08ef,62a444738f4cf27bba80cce8,,,,,,,,,,,,,2,,,,,,,,,,Task,10,(2x5) - 8,2,,,,,,,,,,,,,,,,,,,1,,,,,,,,,,,,,,,,,,,,,,,"[""2""]",1,[2.586599999994064],0,0,0,9,1,,,,,,,,,,,,,,,,,,,,,,,,,,
,,,,,,,,,,,X V Q F H G B L J M P D K C T S W R N Z,605238bfdfe6ffc953c1b760,20,Mężczyzna,2022-06-11_09h31.34.411,task,2021.1.4,Win32,60.00960154,6299f149e92ead563fba08ef,62a444738f4cf27bba80cce8,,,,,,,,,,,,,,,,,,,,,,,,,,,,,,,,,,,,,,,,,,,,,,,,,,,,,,,,,,,,,,,,,,,,,,,,,,,,3,0,3,0,1,,,,,,,,,,,,,,,,,,,,,
,,,,,,,,,,,,605238bfdfe6ffc953c1b760,20,Mężczyzna,2022-06-11_09h31.34.411,task,2021.1.4,Win32,60.00960154,6299f149e92ead563fba08ef,62a444738f4cf27bba80cce8,,,,,,,,,,,,,7,,,,,,,,,,Task,38,(4x6) - 17,7,,,,,,,,,,,,,,,,,,,1,,,,,,,,,,,,,,,,,,,,,,,"[""7""]",1,[2.906699999995567],0,0,0,37,1,,,,,,,,,,,,,,,,,,,,,,,,,,
,,,,,,,,,,,X V Q F H G B L J M P D K C T S W R N Z,605238bfdfe6ffc953c1b760,20,Mężczyzna,2022-06-11_09h31.34.411,task,2021.1.4,Win32,60.00960154,6299f149e92ead563fba08ef,62a444738f4cf27bba80cce8,,,,,,,,,,,,,,,,,,,,,,,,,,,,,,,,,,,,,,,,,,,,,,,,,,,,,,,,,,,,,,,,,,,,,,,,,,,,4,0,4,0,1,,,,,,,,,,,,,,,,,,,,,
,,,,,,,,,,,,605238bfdfe6ffc953c1b760,20,Mężczyzna,2022-06-11_09h31.34.411,task,2021.1.4,Win32,60.00960154,6299f149e92ead563fba08ef,62a444738f4cf27bba80cce8,,,,,,,,,,,,,,,,,,,,,,,,,,,,,,,,,,,,,,,,,,,,,,,,,,,,,,,,,,,,,,,,,,,,,,,,,,,,,,,,,ktjxj,"[""k"",""t"",""j"",""x"",""j""]",0,"[1.5839999999999463,1.8631000000015092,2.063100000001441,2.8531000000014046,3.2841000000014446,4.293199999995522]",1,KTJXJ,6,0,6,0,1,,,,,,,,,,
,,,,,,,,,,,,605238bfdfe6ffc953c1b760,20,Mężczyzna,2022-06-11_09h31.34.411,task,2021.1.4,Win32,60.00960154,6299f149e92ead563fba08ef,62a444738f4cf27bba80cce8,,,,,,,,,,,,,3,,,,,,,,,,Task,26,(2x9) - 16,2,,,,,,,,,,,,,,,,,,,0,,,,,,,,,,,,,,,,,,,,,,,"[""3""]",0,[2.1236999999955515],0,0,0,25,1,,,,,,,,,,,,,,,,,,,,,,,,,,
,,,,,,,,,,,,605238bfdfe6ffc953c1b760,20,Mężczyzna,2022-06-11_09h31.34.411,task,2021.1.4,Win32,60.00960154,6299f149e92ead563fba08ef,62a444738f4cf27bba80cce8,,,,,,,,,,,,,1,,,,,,,,,,Task,18,(16/4) - 3,1,,,,,,,,,,,,,,,,,,,1,,,,,,,,,,,,,,,,,,,,,,,"[""1""]",1,[3.3741000000014765],0,1,1,17,1,,,,,,,,,,,,,,,,,,,,,,,,,,
,,,,,,,,,,,X V Q F H G B L J M P D K C T S W R N Z,605238bfdfe6ffc953c1b760,20,Mężczyzna,2022-06-11_09h31.34.411,task,2021.1.4,Win32,60.00960154,6299f149e92ead563fba08ef,62a444738f4cf27bba80cce8,,,,,,,,,,,,,,,,,,,,,,,,,,,,,,,,,,,,,,,,,,,,,,,,,,,,,,,,,,,,,,,,,,,,,,,,,,,,0,0,0,0,1,,,,,,,,,,,,,,,,,,,,,
,,,,,,,,,,,,605238bfdfe6ffc953c1b760,20,Mężczyzna,2022-06-11_09h31.34.411,task,2021.1.4,Win32,60.00960154,6299f149e92ead563fba08ef,62a444738f4cf27bba80cce8,,,,,,,,,,,,,4,,,,,,,,,,Task,28,(2x5) - 6,4,,,,,,,,,,,,,,,,,,,1,,,,,,,,,,,,,,,,,,,,,,,"[""4""]",1,[1.8444000000058622],0,0,0,27,1,,,,,,,,,,,,,,,,,,,,,,,,,,
,,,,,,,,,,,X V Q F H G B L J M P D K C T S W R N Z,605238bfdfe6ffc953c1b760,20,Mężczyzna,2022-06-11_09h31.34.411,task,2021.1.4,Win32,60.00960154,6299f149e92ead563fba08ef,62a444738f4cf27bba80cce8,,,,,,,,,,,,,,,,,,,,,,,,,,,,,,,,,,,,,,,,,,,,,,,,,,,,,,,,,,,,,,,,,,,,,,,,,,,,1,0,1,0,1,,,,,,,,,,,,,,,,,,,,,
,,,,,,,,,,,,605238bfdfe6ffc953c1b760,20,Mężczyzna,2022-06-11_09h31.34.411,task,2021.1.4,Win32,60.00960154,6299f149e92ead563fba08ef,62a444738f4cf27bba80cce8,,,,,,,,,,,,,9,,,,,,,,,,Task,16,(3x8) - 15,9,,,,,,,,,,,,,,,,,,,1,,,,,,,,,,,,,,,,,,,,,,,"[""9""]",1,[2.4575000000000955],0,0,0,15,1,,,,,,,,,,,,,,,,,,,,,,,,,,
,,,,,,,,,,,X V Q F H G B L J M P D K C T S W R N Z,605238bfdfe6ffc953c1b760,20,Mężczyzna,2022-06-11_09h31.34.411,task,2021.1.4,Win32,60.00960154,6299f149e92ead563fba08ef,62a444738f4cf27bba80cce8,,,,,,,,,,,,,,,,,,,,,,,,,,,,,,,,,,,,,,,,,,,,,,,,,,,,,,,,,,,,,,,,,,,,,,,,,,,,2,0,2,0,1,,,,,,,,,,,,,,,,,,,,,
,,,,,,,,,,,,605238bfdfe6ffc953c1b760,20,Mężczyzna,2022-06-11_09h31.34.411,task,2021.1.4,Win32,60.00960154,6299f149e92ead563fba08ef,62a444738f4cf27bba80cce8,,,,,,,,,,,,,1,,,,,,,,,,Task,9,(3x7) - 20,1,,,,,,,,,,,,,,,,,,,1,,,,,,,,,,,,,,,,,,,,,,,"[""1""]",1,[1.1942999999970425],0,0,0,8,1,,,,,,,,,,,,,,,,,,,,,,,,,,
,,,,,,,,,,,X V Q F H G B L J M P D K C T S W R N Z,605238bfdfe6ffc953c1b760,20,Mężczyzna,2022-06-11_09h31.34.411,task,2021.1.4,Win32,60.00960154,6299f149e92ead563fba08ef,62a444738f4cf27bba80cce8,,,,,,,,,,,,,,,,,,,,,,,,,,,,,,,,,,,,,,,,,,,,,,,,,,,,,,,,,,,,,,,,,,,,,,,,,,,,3,0,3,0,1,,,,,,,,,,,,,,,,,,,,,
,,,,,,,,,,,,605238bfdfe6ffc953c1b760,20,Mężczyzna,2022-06-11_09h31.34.411,task,2021.1.4,Win32,60.00960154,6299f149e92ead563fba08ef,62a444738f4cf27bba80cce8,,,,,,,,,,,,,3,,,,,,,,,,Task,3,(2x3) - 3,3,,,,,,,,,,,,,,,,,,,1,,,,,,,,,,,,,,,,,,,,,,,"[""3""]",1,[2.4576000000015483],0,0,0,2,1,,,,,,,,,,,,,,,,,,,,,,,,,,
,,,,,,,,,,,X V Q F H G B L J M P D K C T S W R N Z,605238bfdfe6ffc953c1b760,20,Mężczyzna,2022-06-11_09h31.34.411,task,2021.1.4,Win32,60.00960154,6299f149e92ead563fba08ef,62a444738f4cf27bba80cce8,,,,,,,,,,,,,,,,,,,,,,,,,,,,,,,,,,,,,,,,,,,,,,,,,,,,,,,,,,,,,,,,,,,,,,,,,,,,4,0,4,0,1,,,,,,,,,,,,,,,,,,,,,
,,,,,,,,,,,,605238bfdfe6ffc953c1b760,20,Mężczyzna,2022-06-11_09h31.34.411,task,2021.1.4,Win32,60.00960154,6299f149e92ead563fba08ef,62a444738f4cf27bba80cce8,,,,,,,,,,,,,7,,,,,,,,,,Task,6,(12/2) + 1,7,,,,,,,,,,,,,,,,,,,1,,,,,,,,,,,,,,,,,,,,,,,"[""7""]",1,[2.3704999999999927],0,0,0,5,1,,,,,,,,,,,,,,,,,,,,,,,,,,
,,,,,,,,,,,X V Q F H G B L J M P D K C T S W R N Z,605238bfdfe6ffc953c1b760,20,Mężczyzna,2022-06-11_09h31.34.411,task,2021.1.4,Win32,60.00960154,6299f149e92ead563fba08ef,62a444738f4cf27bba80cce8,,,,,,,,,,,,,,,,,,,,,,,,,,,,,,,,,,,,,,,,,,,,,,,,,,,,,,,,,,,,,,,,,,,,,,,,,,,,5,0,5,0,1,,,,,,,,,,,,,,,,,,,,,
,,,,,,,,,,,,605238bfdfe6ffc953c1b760,20,Mężczyzna,2022-06-11_09h31.34.411,task,2021.1.4,Win32,60.00960154,6299f149e92ead563fba08ef,62a444738f4cf27bba80cce8,,,,,,,,,,,,,,,,,,,,,,,,,,,,,,,,,,,,,,,,,,,,,,,,,,,,,,,,,,,,,,,,,,,,,,,,,,,,,,,,,bswl,"[""b"",""s"",""w"",""l""]",0,"[1.6293000000044913,1.850200000003042,2.0393999999985226,2.229399999998577,4.1293999999985544]",0,BSWDFL,7,0,7,0,1,,,,,,,,,,
,,,,,,,,,,,,605238bfdfe6ffc953c1b760,20,Mężczyzna,2022-06-11_09h31.34.411,task,2021.1.4,Win32,60.00960154,6299f149e92ead563fba08ef,62a444738f4cf27bba80cce8,,,,,,,,,,,,,7,,,,,,,,,,Task,38,(4x6) - 17,7,,,,,,,,,,,,,,,,,,,1,,,,,,,,,,,,,,,,,,,,,,,"[""7""]",1,[2.63710000000151],0,0,0,37,1,,,,,,,,,,,,,,,,,,,,,,,,,,
,,,,,,,,,,,X V Q F H G B L J M P D K C T S W R N Z,605238bfdfe6ffc953c1b760,20,Mężczyzna,2022-06-11_09h31.34.411,task,2021.1.4,Win32,60.00960154,6299f149e92ead563fba08ef,62a444738f4cf27bba80cce8,,,,,,,,,,,,,,,,,,,,,,,,,,,,,,,,,,,,,,,,,,,,,,,,,,,,,,,,,,,,,,,,,,,,,,,,,,,,0,0,0,0,1,,,,,,,,,,,,,,,,,,,,,
,,,,,,,,,,,,605238bfdfe6ffc953c1b760,20,Mężczyzna,2022-06-11_09h31.34.411,task,2021.1.4,Win32,60.00960154,6299f149e92ead563fba08ef,62a444738f4cf27bba80cce8,,,,,,,,,,,,,4,,,,,,,,,,Task,4,(1x5) - 1,4,,,,,,,,,,,,,,,,,,,1,,,,,,,,,,,,,,,,,,,,,,,"[""4""]",1,[2.35739999999862],0,0,0,3,1,,,,,,,,,,,,,,,,,,,,,,,,,,
,,,,,,,,,,,X V Q F H G B L J M P D K C T S W R N Z,605238bfdfe6ffc953c1b760,20,Mężczyzna,2022-06-11_09h31.34.411,task,2021.1.4,Win32,60.00960154,6299f149e92ead563fba08ef,62a444738f4cf27bba80cce8,,,,,,,,,,,,,,,,,,,,,,,,,,,,,,,,,,,,,,,,,,,,,,,,,,,,,,,,,,,,,,,,,,,,,,,,,,,,1,0,1,0,1,,,,,,,,,,,,,,,,,,,,,
,,,,,,,,,,,,605238bfdfe6ffc953c1b760,20,Mężczyzna,2022-06-11_09h31.34.411,task,2021.1.4,Win32,60.00960154,6299f149e92ead563fba08ef,62a444738f4cf27bba80cce8,,,,,,,,,,,,,4,,,,,,,,,,Task,21,(10/2) - 1,4,,,,,,,,,,,,,,,,,,,1,,,,,,,,,,,,,,,,,,,,,,,"[""4""]",1,[2.034199999995508],0,0,0,20,1,,,,,,,,,,,,,,,,,,,,,,,,,,
,,,,,,,,,,,X V Q F H G B L J M P D K C T S W R N Z,605238bfdfe6ffc953c1b760,20,Mężczyzna,2022-06-11_09h31.34.411,task,2021.1.4,Win32,60.00960154,6299f149e92ead563fba08ef,62a444738f4cf27bba80cce8,,,,,,,,,,,,,,,,,,,,,,,,,,,,,,,,,,,,,,,,,,,,,,,,,,,,,,,,,,,,,,,,,,,,,,,,,,,,2,0,2,0,1,,,,,,,,,,,,,,,,,,,,,
,,,,,,,,,,,,605238bfdfe6ffc953c1b760,20,Mężczyzna,2022-06-11_09h31.34.411,task,2021.1.4,Win32,60.00960154,6299f149e92ead563fba08ef,62a444738f4cf27bba80cce8,,,,,,,,,,,,,3,,,,,,,,,,Task,3,(2x3) - 3,3,,,,,,,,,,,,,,,,,,,1,,,,,,,,,,,,,,,,,,,,,,,"[""3""]",1,[1.557799999997087],0,0,0,2,1,,,,,,,,,,,,,,,,,,,,,,,,,,
,,,,,,,,,,,X V Q F H G B L J M P D K C T S W R N Z,605238bfdfe6ffc953c1b760,20,Mężczyzna,2022-06-11_09h31.34.411,task,2021.1.4,Win32,60.00960154,6299f149e92ead563fba08ef,62a444738f4cf27bba80cce8,,,,,,,,,,,,,,,,,,,,,,,,,,,,,,,,,,,,,,,,,,,,,,,,,,,,,,,,,,,,,,,,,,,,,,,,,,,,3,0,3,0,1,,,,,,,,,,,,,,,,,,,,,
,,,,,,,,,,,,605238bfdfe6ffc953c1b760,20,Mężczyzna,2022-06-11_09h31.34.411,task,2021.1.4,Win32,60.00960154,6299f149e92ead563fba08ef,62a444738f4cf27bba80cce8,,,,,,,,,,,,,2,,,,,,,,,,Task,19,(6/2) - 1,2,,,,,,,,,,,,,,,,,,,1,,,,,,,,,,,,,,,,,,,,,,,"[""2""]",1,[2.65029999999706],0,0,0,18,1,,,,,,,,,,,,,,,,,,,,,,,,,,
,,,,,,,,,,,X V Q F H G B L J M P D K C T S W R N Z,605238bfdfe6ffc953c1b760,20,Mężczyzna,2022-06-11_09h31.34.411,task,2021.1.4,Win32,60.00960154,6299f149e92ead563fba08ef,62a444738f4cf27bba80cce8,,,,,,,,,,,,,,,,,,,,,,,,,,,,,,,,,,,,,,,,,,,,,,,,,,,,,,,,,,,,,,,,,,,,,,,,,,,,4,0,4,0,1,,,,,,,,,,,,,,,,,,,,,
,,,,,,,,,,,,605238bfdfe6ffc953c1b760,20,Mężczyzna,2022-06-11_09h31.34.411,task,2021.1.4,Win32,60.00960154,6299f149e92ead563fba08ef,62a444738f4cf27bba80cce8,,,,,,,,,,,,,2,,,,,,,,,,Task,2,(2x2) - 2,2,,,,,,,,,,,,,,,,,,,1,,,,,,,,,,,,,,,,,,,,,,,"[""2""]",1,[1.139199999995526],0,0,0,1,1,,,,,,,,,,,,,,,,,,,,,,,,,,
,,,,,,,,,,,X V Q F H G B L J M P D K C T S W R N Z,605238bfdfe6ffc953c1b760,20,Mężczyzna,2022-06-11_09h31.34.411,task,2021.1.4,Win32,60.00960154,6299f149e92ead563fba08ef,62a444738f4cf27bba80cce8,,,,,,,,,,,,,,,,,,,,,,,,,,,,,,,,,,,,,,,,,,,,,,,,,,,,,,,,,,,,,,,,,,,,,,,,,,,,5,0,5,0,1,,,,,,,,,,,,,,,,,,,,,
,,,,,,,,,,,,605238bfdfe6ffc953c1b760,20,Mężczyzna,2022-06-11_09h31.34.411,task,2021.1.4,Win32,60.00960154,6299f149e92ead563fba08ef,62a444738f4cf27bba80cce8,,,,,,,,,,,,,,,,,,,,,,,,,,,,,,,,,,,,,,,,,,,,,,,,,,,,,,,,,,,,,,,,,,,,,,,,,,,,,,,,,mcwcl,"[""m"",""c"",""w"",""c"",""l""]",0,"[1.2176000000014255,1.3508999999984326,1.5229999999999109,2.034300000004464,5.183899999998516,7.272899999998458]",0,MCWCLM,8,0,8,0,1,,,,,,,,,,
,,,,,,,,,,,,605238bfdfe6ffc953c1b760,20,Mężczyzna,2022-06-11_09h31.34.411,task,2021.1.4,Win32,60.00960154,6299f149e92ead563fba08ef,62a444738f4cf27bba80cce8,,,,,,,,,,,,,,,,,,,,,,,,,,,,,,,,,,,,,,,,,,,,,,,,,,,,,,,,,,,,,,,,,,,,,,,,,,,,,,,,,,,,,,,,,,,,,0,0,0,0,0,1,,,
,,,,,,,,,,,,605238bfdfe6ffc953c1b760,20,Mężczyzna,2022-06-11_09h31.34.411,task,2021.1.4,Win32,60.00960154,6299f149e92ead563fba08ef,62a444738f4cf27bba80cce8,,,,,,,,,,,,,,,,,,,,,,,,,,,,,,,,,,,,,,,,,,,,,,,,,,,,,,,,,,,,,,,,,,,,,,,,,,,,,,,,,,,,,,,,,,,,,0,1,0,1,0,1,,,
,,,,,,,,,,,,605238bfdfe6ffc953c1b760,20,Mężczyzna,2022-06-11_09h31.34.411,task,2021.1.4,Win32,60.00960154,6299f149e92ead563fba08ef,62a444738f4cf27bba80cce8,,,,,,,,,,,,,,,,,,,,,,,,,,,,,,,,,,,,,,,,,,,,,,,,,,,,,,,,,,,,,,,,,,,,,,,,,,,,,,,,,,,,,,,,,,,,"[""comma""]",0,2,0,2,0,1,[1.483799999997018],,
,,,,,,,,,,,,605238bfdfe6ffc953c1b760,20,Mężczyzna,2022-06-11_09h31.34.411,task,2021.1.4,Win32,60.00960154,6299f149e92ead563fba08ef,62a444738f4cf27bba80cce8,,,,,,,,,,,,,,,,,,,,,,,,,,,,,,,,,,,,,,,,,,,,,,,,,,,,,,,,,,,,,,,,,,,,,,,,,,,,,,,,,,,,,,,,,,,,"[""period""]",0,3,0,3,0,1,[1.4607999999969934],,
,,,,,,,,,,,,605238bfdfe6ffc953c1b760,20,Mężczyzna,2022-06-11_09h31.34.411,task,2021.1.4,Win32,60.00960154,6299f149e92ead563fba08ef,62a444738f4cf27bba80cce8,,,,,,,,,,,,,,,,,,,,,,,,,,,,,,,,,,,,,,,,,,,,,,,,,,,,,,,,,,,,,,,,,,,,,,,,,,,,,,,,,,,,,,,,,,,,"[""comma"",""period""]",0,4,0,4,0,1,"[0.3516999999955033,1.8206999999954405]",,
,,,,,,,,,,,,605238bfdfe6ffc953c1b760,20,Mężczyzna,2022-06-11_09h31.34.411,task,2021.1.4,Win32,60.00960154,6299f149e92ead563fba08ef,62a444738f4cf27bba80cce8,,,,,,,,,,,,,,,,,,,,,,,,,,,,,,,,,,,,,,,,,,,,,,,,,,,,,,,,,,,,,,,,,,,,,,,,,,,,,,,,,,,,,,,,,,,,"[""period""]",0,5,0,5,0,1,[1.7607000000029984],,
,,,,,,,,,,,,605238bfdfe6ffc953c1b760,20,Mężczyzna,2022-06-11_09h31.34.411,task,2021.1.4,Win32,60.00960154,6299f149e92ead563fba08ef,62a444738f4cf27bba80cce8,,,,,,,,,,,,,,,,,,,,,,,,,,,,,,,,,,,,,,,,,,,,,,,,,,,,,,,,,,,,,,,,,,,,,,,,,,,,,,,,,,,,,,,,,,,,,0,6,0,6,0,1,,,
,,,,,,,,,,,,605238bfdfe6ffc953c1b760,20,Mężczyzna,2022-06-11_09h31.34.411,task,2021.1.4,Win32,60.00960154,6299f149e92ead563fba08ef,62a444738f4cf27bba80cce8,,,,,,,,,,,,,,,,,,,,,,,,,,,,,,,,,,,,,,,,,,,,,,,,,,,,,,,,,,,,,,,,,,,,,,,,,,,,,,,,,,,,,,,,,,,,"[""comma""]",0,7,0,7,0,1,[0.3917999999970334],,
,,,,,,,,,,,,605238bfdfe6ffc953c1b760,20,Mężczyzna,2022-06-11_09h31.34.411,task,2021.1.4,Win32,60.00960154,6299f149e92ead563fba08ef,62a444738f4cf27bba80cce8,,,,,,,,,,,,,,,,,,,,,,,,,,,,,,,,,,,,,,,,,,,,,,,,,,,,,,,,,,,,,,,,,,,,,,,,,,,,,,,,,,,,,,,,,,,,"[""period""]",0,8,0,8,0,1,[0.290599999994015],,
,,,,,,,,,,,,605238bfdfe6ffc953c1b760,20,Mężczyzna,2022-06-11_09h31.34.411,task,2021.1.4,Win32,60.00960154,6299f149e92ead563fba08ef,62a444738f4cf27bba80cce8,,,,,,,,,,,,,,,,,,,,,,,,,,,,,,,,,,,,,,,,,,,,,,,,,,,,,,,,,,,,,,,,,,,,,,,,,,,,,,,,,,,,,,,,,,,,"[""period""]",0,9,0,9,0,1,[0.270300000004454],,
,,,,,,,,,,,,605238bfdfe6ffc953c1b760,20,Mężczyzna,2022-06-11_09h31.34.411,task,2021.1.4,Win32,60.00960154,6299f149e92ead563fba08ef,62a444738f4cf27bba80cce8,,,,,,,,,,,,,,,,,,,,,,,,,,,,,,,,,,,,,,,,,,,,,,,,,,,,,,,,,,,,,,,,,,,,,,,,,,,,,,,,,,,,,,,,,,,,"[""comma""]",0,10,0,10,0,1,[0.13049999999998363],,
,,,,,,,,,,,,605238bfdfe6ffc953c1b760,20,Mężczyzna,2022-06-11_09h31.34.411,task,2021.1.4,Win32,60.00960154,6299f149e92ead563fba08ef,62a444738f4cf27bba80cce8,,,,,,,,,,,,,,,,,,,,,,,,,,,,,,,,,,,,,,,,,,,,,,,,,,,,,,,,,,,,,,,,,,,,,,,,,,,,,,,,,,,,,,,,,,,,"[""period""]",0,11,0,11,0,1,[0.33089999999845077],,
,,,,,,,,,,,,605238bfdfe6ffc953c1b760,20,Mężczyzna,2022-06-11_09h31.34.411,task,2021.1.4,Win32,60.00960154,6299f149e92ead563fba08ef,62a444738f4cf27bba80cce8,,,,,,,,,,,,,,,,,,,,,,,,,,,,,,,,,,,,,,,,,,,,,,,,,,,,,,,,,,,,,,,,,,,,,,,,,,,,,,,,,,,,,,,,,,,,"[""comma"",""comma""]",0,12,0,12,0,1,"[0.010499999999979082,1.9106000000014092]",,
,,,,,,,,,,,,605238bfdfe6ffc953c1b760,20,Mężczyzna,2022-06-11_09h31.34.411,task,2021.1.4,Win32,60.00960154,6299f149e92ead563fba08ef,62a444738f4cf27bba80cce8,,,,,,,,,,,,,,,,,,,,,,,,,,,,,,,,,,,,,,,,,,,,,,,,,,,,,,,,,,,,,,,,,,,,,,,,,,,,,,,,,,,,,,,,,,,,,0,13,0,13,0,1,,,
,,,,,,,,,,,,605238bfdfe6ffc953c1b760,20,Mężczyzna,2022-06-11_09h31.34.411,task,2021.1.4,Win32,60.00960154,6299f149e92ead563fba08ef,62a444738f4cf27bba80cce8,,,,,,,,,,,,,,,,,,,,,,,,,,,,,,,,,,,,,,,,,,,,,,,,,,,,,,,,,,,,,,,,,,,,,,,,,,,,,,,,,,,,,,,,,,,,"[""comma""]",0,14,0,14,0,1,[0.2107999999969934],,
,,,,,,,,,,,,605238bfdfe6ffc953c1b760,20,Mężczyzna,2022-06-11_09h31.34.411,task,2021.1.4,Win32,60.00960154,6299f149e92ead563fba08ef,62a444738f4cf27bba80cce8,,,,,,,,,,,,,,,,,,,,,,,,,,,,,,,,,,,,,,,,,,,,,,,,,,,,,,,,,,,,,,,,,,,,,,,,,,,,,,,,,,,,,,,,,,,,"[""comma"",""period""]",0,15,0,15,0,1,"[0.22050000000001546,1.870599999994056]",,
,,,,,,,,,,,,605238bfdfe6ffc953c1b760,20,Mężczyzna,2022-06-11_09h31.34.411,task,2021.1.4,Win32,60.00960154,6299f149e92ead563fba08ef,62a444738f4cf27bba80cce8,,,,,,,,,,,,,,,,,,,,,,,,,,,,,,,,,,,,,,,,,,,,,,,,,,,,,,,,,,,,,,,,,,,,,,,,,,,,,,,,,,,,,,,,,,,,,0,16,0,16,0,1,,,
,,,,,,,,,,,,605238bfdfe6ffc953c1b760,20,Mężczyzna,2022-06-11_09h31.34.411,task,2021.1.4,Win32,60.00960154,6299f149e92ead563fba08ef,62a444738f4cf27bba80cce8,,,,,,,,,,,,,,,,,,,,,,,,,,,,,,,,,,,,,,,,,,,,,,,,,,,,,,,,,,,,,,,,,,,,,,,,,,,,,,,,,,,,,,,,,,,,"[""period""]",0,17,0,17,0,1,[0.22069999999553147],,
,,,,,,,,,,,,605238bfdfe6ffc953c1b760,20,Mężczyzna,2022-06-11_09h31.34.411,task,2021.1.4,Win32,60.00960154,6299f149e92ead563fba08ef,62a444738f4cf27bba80cce8,,,,,,,,,,,,,,,,,,,,,,,,,,,,,,,,,,,,,,,,,,,,,,,,,,,,,,,,,,,,,,,,,,,,,,,,,,,,,,,,,,,,,,,,,,,,"[""comma""]",0,18,0,18,0,1,[0.22040000000595228],,
,,,,,,,,,,,,605238bfdfe6ffc953c1b760,20,Mężczyzna,2022-06-11_09h31.34.411,task,2021.1.4,Win32,60.00960154,6299f149e92ead563fba08ef,62a444738f4cf27bba80cce8,,,,,,,,,,,,,,,,,,,,,,,,,,,,,,,,,,,,,,,,,,,,,,,,,,,,,,,,,,,,,,,,,,,,,,,,,,,,,,,,,,,,,,,,,,,,"[""period""]",0,19,0,19,0,1,[0.21119999999552874],,
,,,,,,,,,,,,605238bfdfe6ffc953c1b760,20,Mężczyzna,2022-06-11_09h31.34.411,task,2021.1.4,Win32,60.00960154,6299f149e92ead563fba08ef,62a444738f4cf27bba80cce8,,,,,,,,,,,,,,,,,,,,,,,,,,,,,,,,,,,,,,,,,,,,,,,,,,,,,,,,,,,,,,,,,,,,,,,,,,,,,,,,,,,,,,,,,,,,"[""period""]",0,20,0,20,0,1,[0.1702999999970416],,
,,,,,,,,,,,,605238bfdfe6ffc953c1b760,20,Mężczyzna,2022-06-11_09h31.34.411,task,2021.1.4,Win32,60.00960154,6299f149e92ead563fba08ef,62a444738f4cf27bba80cce8,,,,,,,,,,,,,,,,,,,,,,,,,,,,,,,,,,,,,,,,,,,,,,,,,,,,,,,,,,,,,,,,,,,,,,,,,,,,,,,,,,,,,,,,,,,,"[""period""]",0,21,0,21,0,1,[0.0805000000000291],,
,,,,,,,,,,,,605238bfdfe6ffc953c1b760,20,Mężczyzna,2022-06-11_09h31.34.411,task,2021.1.4,Win32,60.00960154,6299f149e92ead563fba08ef,62a444738f4cf27bba80cce8,,,,,,,,,,,,,,,,,,,,,,,,,,,,,,,,,,,,,,,,,,,,,,,,,,,,,,,,,,,,,,,,,,,,,,,,,,,,,,,,,,,,,,,,,,,,"[""comma""]",0,22,0,22,0,1,[0.18090000000597684],,
,,,,,,,,,,,,605238bfdfe6ffc953c1b760,20,Mężczyzna,2022-06-11_09h31.34.411,task,2021.1.4,Win32,60.00960154,6299f149e92ead563fba08ef,62a444738f4cf27bba80cce8,,,,,,,,,,,,,,,,,,,,,,,,,,,,,,,,,,,,,,,,,,,,,,,,,,,,,,,,,,,,,,,,,,,,,,,,,,,,,,,,,,,,,,,,,,,,"[""comma""]",0,23,0,23,0,1,[0.1907000000029484],,
,,,,,,,,,,,,605238bfdfe6ffc953c1b760,20,Mężczyzna,2022-06-11_09h31.34.411,task,2021.1.4,Win32,60.00960154,6299f149e92ead563fba08ef,62a444738f4cf27bba80cce8,,,,,,,,,,,,,,,,,,,,,,,,,,,,,,,,,,,,,,,,,,,,,,,,,,,,,,,,,,,,,,,,,,,,,,,,,,,,,,,,,,,,,,,,,,,,"[""period"",""comma""]",0,24,0,24,0,1,"[0.20069999999554966,1.850500000000011]",,
,,,,,,,,,,,,605238bfdfe6ffc953c1b760,20,Mężczyzna,2022-06-11_09h31.34.411,task,2021.1.4,Win32,60.00960154,6299f149e92ead563fba08ef,62a444738f4cf27bba80cce8,,,,,,,,,,,,,,,,,,,,,,,,,,,,,,,,,,,,,,,,,,,,,,,,,,,,,,,,,,,,,,,,,,,,,,,,,,,,,,,,,,,,,,,,,,,,,0,25,0,25,0,1,,,
,,,,,,,,,,,,605238bfdfe6ffc953c1b760,20,Mężczyzna,2022-06-11_09h31.34.411,task,2021.1.4,Win32,60.00960154,6299f149e92ead563fba08ef,62a444738f4cf27bba80cce8,,,,,,,,,,,,,,,,,,,,,,,,,,,,,,,,,,,,,,,,,,,,,,,,,,,,,,,,,,,,,,,,,,,,,,,,,,,,,,,,,,,,,,,,,,,,"[""period"",""period""]",0,26,0,26,0,1,"[0.2904999999999518,1.9607000000029302]",,
,,,,,,,,,,,,605238bfdfe6ffc953c1b760,20,Mężczyzna,2022-06-11_09h31.34.411,task,2021.1.4,Win32,60.00960154,6299f149e92ead563fba08ef,62a444738f4cf27bba80cce8,,,,,,,,,,,,,,,,,,,,,,,,,,,,,,,,,,,,,,,,,,,,,,,,,,,,,,,,,,,,,,,,,,,,,,,,,,,,,,,,,,,,,,,,,,,,,0,27,0,27,0,1,,,
,,,,,,,,,,,,605238bfdfe6ffc953c1b760,20,Mężczyzna,2022-06-11_09h31.34.411,task,2021.1.4,Win32,60.00960154,6299f149e92ead563fba08ef,62a444738f4cf27bba80cce8,,,,,,,,,,,,,,,,,,,,,,,,,,,,,,,,,,,,,,,,,,,,,,,,,,,,,,,,,,,,,,,,,,,,,,,,,,,,,,,,,,,,,,,,,,,,"[""comma""]",0,28,0,28,0,1,[0.42069999999557695],,
,,,,,,,,,,,,605238bfdfe6ffc953c1b760,20,Mężczyzna,2022-06-11_09h31.34.411,task,2021.1.4,Win32,60.00960154,6299f149e92ead563fba08ef,62a444738f4cf27bba80cce8,,,,,,,,,,,,,,,,,,,,,,,,,,,,,,,,,,,,,,,,,,,,,,,,,,,,,,,,,,,,,,,,,,,,,,,,,,,,,,,,,,,,,,,,,,,,"[""period""]",0,29,0,29,0,1,[0.3502000000030421],,
,,,,,,,,,,,,605238bfdfe6ffc953c1b760,20,Mężczyzna,2022-06-11_09h31.34.411,task,2021.1.4,Win32,60.00960154,6299f149e92ead563fba08ef,62a444738f4cf27bba80cce8,,,,,,,,,,,,,,,,,,,,,,,,,,,,,,,,,,,,,,,,,,,,,,,,,,,,,,,,,,,,,,,,,,,,,,,,,,,,,,,,,,,,,,,,,,,,"[""comma""]",0,30,0,30,0,1,[0.30010000000140735],,
,,,,,,,,,,,,605238bfdfe6ffc953c1b760,20,Mężczyzna,2022-06-11_09h31.34.411,task,2021.1.4,Win32,60.00960154,6299f149e92ead563fba08ef,62a444738f4cf27bba80cce8,,,,,,,,,,,,,,,,,,,,,,,,,,,,,,,,,,,,,,,,,,,,,,,,,,,,,,,,,,,,,,,,,,,,,,,,,,,,,,,,,,,,,,,,,,,,"[""period""]",0,31,0,31,0,1,[0.24049999999999727],,
,,,,,,,,,,,,605238bfdfe6ffc953c1b760,20,Mężczyzna,2022-06-11_09h31.34.411,task,2021.1.4,Win32,60.00960154,6299f149e92ead563fba08ef,62a444738f4cf27bba80cce8,,,,,,,,,,,,,,,,,,,,,,,,,,,,,,,,,,,,,,,,,,,,,,,,,,,,,,,,,,,,,,,,,,,,,,,,,,,,,,,,,,,,,,,,,,,,"[""comma""]",0,32,0,32,0,1,[0.30020000000297387],,
,,,,,,,,,,,,605238bfdfe6ffc953c1b760,20,Mężczyzna,2022-06-11_09h31.34.411,task,2021.1.4,Win32,60.00960154,6299f149e92ead563fba08ef,62a444738f4cf27bba80cce8,,,,,,,,,,,,,,,,,,,,,,,,,,,,,,,,,,,,,,,,,,,,,,,,,,,,,,,,,,,,,,,,,,,,,,,,,,,,,,,,,,,,,,,,,,,,"[""comma""]",0,33,0,33,0,1,[0.3105000000000473],,
,,,,,,,,,,,,605238bfdfe6ffc953c1b760,20,Mężczyzna,2022-06-11_09h31.34.411,task,2021.1.4,Win32,60.00960154,6299f149e92ead563fba08ef,62a444738f4cf27bba80cce8,,,,,,,,,,,,,,,,,,,,,,,,,,,,,,,,,,,,,,,,,,,,,,,,,,,,,,,,,,,,,,,,,,,,,,,,,,,,,,,,,,,,,,,,,,,,"[""period""]",0,34,0,34,0,1,[0.2107000000030439],,
,,,,,,,,,,,,605238bfdfe6ffc953c1b760,20,Mężczyzna,2022-06-11_09h31.34.411,task,2021.1.4,Win32,60.00960154,6299f149e92ead563fba08ef,62a444738f4cf27bba80cce8,,,,,,,,,,,,,,,,,,,,,,,,,,,,,,,,,,,,,,,,,,,,,,,,,,,,,,,,,,,,,,,,,,,,,,,,,,,,,,,,,,,,,,,,,,,,"[""comma"",""period""]",0,35,0,35,0,1,"[0.04060000000151831,1.9305000000000518]",,
,,,,,,,,,,,,605238bfdfe6ffc953c1b760,20,Mężczyzna,2022-06-11_09h31.34.411,task,2021.1.4,Win32,60.00960154,6299f149e92ead563fba08ef,62a444738f4cf27bba80cce8,,,,,,,,,,,,,,,,,,,,,,,,,,,,,,,,,,,,,,,,,,,,,,,,,,,,,,,,,,,,,,,,,,,,,,,,,,,,,,,,,,,,,,,,,,,,,0,36,0,36,0,1,,,
,,,,,,,,,,,,605238bfdfe6ffc953c1b760,20,Mężczyzna,2022-06-11_09h31.34.411,task,2021.1.4,Win32,60.00960154,6299f149e92ead563fba08ef,62a444738f4cf27bba80cce8,,,,,,,,,,,,,,,,,,,,,,,,,,,,,,,,,,,,,,,,,,,,,,,,,,,,,,,,,,,,,,,,,,,,,,,,,,,,,,,,,,,,,,,,,,,,"[""period""]",0,37,0,37,0,1,[0.11050000000000182],,
,,,,,,,,,,,,605238bfdfe6ffc953c1b760,20,Mężczyzna,2022-06-11_09h31.34.411,task,2021.1.4,Win32,60.00960154,6299f149e92ead563fba08ef,62a444738f4cf27bba80cce8,,,,,,,,,,,,,,,,,,,,,,,,,,,,,,,,,,,,,,,,,,,,,,,,,,,,,,,,,,,,,,,,,,,,,,,,,,,,,,,,,,,,,,,,,,,,"[""comma""]",0,38,0,38,0,1,[0.1802999999970325],,
,,,,,,,,,,,,605238bfdfe6ffc953c1b760,20,Mężczyzna,2022-06-11_09h31.34.411,task,2021.1.4,Win32,60.00960154,6299f149e92ead563fba08ef,62a444738f4cf27bba80cce8,,,,,,,,,,,,,,,,,,,,,,,,,,,,,,,,,,,,,,,,,,,,,,,,,,,,,,,,,,,,,,,,,,,,,,,,,,,,,,,,,,,,,,,,,,,,"[""period"",""comma""]",0,39,0,39,0,1,"[0.050199999995470534,1.931199999995556]",,
,,,,,,,,,,,,605238bfdfe6ffc953c1b760,20,Mężczyzna,2022-06-11_09h31.34.411,task,2021.1.4,Win32,60.00960154,6299f149e92ead563fba08ef,62a444738f4cf27bba80cce8,,,,,,,,,,,,,,,,,,,,,,,,,,,,,,,,,,,,,,,,,,,,,,,,,,,,,,,,,,,,,,,,,,,,,,,,,,,,,,,,,,,,,,,,,,,,"[""period""]",0,40,0,40,0,1,[1.9701000000014801],,
,,,,,,,,,,,,605238bfdfe6ffc953c1b760,20,Mężczyzna,2022-06-11_09h31.34.411,task,2021.1.4,Win32,60.00960154,6299f149e92ead563fba08ef,62a444738f4cf27bba80cce8,,,,,,,,,,,,,,,,,,,,,,,,,,,,,,,,,,,,,,,,,,,,,,,,,,,,,,,,,,,,,,,,,,,,,,,,,,,,,,,,,,,,,,,,,,,,"[""period""]",0,41,0,41,0,1,[1.8303999999984626],,
,,,,,,,,,,,,605238bfdfe6ffc953c1b760,20,Mężczyzna,2022-06-11_09h31.34.411,task,2021.1.4,Win32,60.00960154,6299f149e92ead563fba08ef,62a444738f4cf27bba80cce8,,,,,,,,,,,,,,,,,,,,,,,,,,,,,,,,,,,,,,,,,,,,,,,,,,,,,,,,,,,,,,,,,,,,,,,,,,,,,,,,,,,,,,,,,,,,"[""period""]",0,42,0,42,0,1,[1.660299999996937],,
,,,,,,,,,,,,605238bfdfe6ffc953c1b760,20,Mężczyzna,2022-06-11_09h31.34.411,task,2021.1.4,Win32,60.00960154,6299f149e92ead563fba08ef,62a444738f4cf27bba80cce8,,,,,,,,,,,,,,,,,,,,,,,,,,,,,,,,,,,,,,,,,,,,,,,,,,,,,,,,,,,,,,,,,,,,,,,,,,,,,,,,,,,,,,,,,,,,"[""comma""]",0,43,0,43,0,1,[1.9402999999970234],,
,,,,,,,,,,,,605238bfdfe6ffc953c1b760,20,Mężczyzna,2022-06-11_09h31.34.411,task,2021.1.4,Win32,60.00960154,6299f149e92ead563fba08ef,62a444738f4cf27bba80cce8,,,,,,,,,,,,,,,,,,,,,,,,,,,,,,,,,,,,,,,,,,,,,,,,,,,,,,,,,,,,,,,,,,,,,,,,,,,,,,,,,,,,,,,,,,,,,0,44,0,44,0,1,,,
,,,,,,,,,,,,605238bfdfe6ffc953c1b760,20,Mężczyzna,2022-06-11_09h31.34.411,task,2021.1.4,Win32,60.00960154,6299f149e92ead563fba08ef,62a444738f4cf27bba80cce8,,,,,,,,,,,,,,,,,,,,,,,,,,,,,,,,,,,,,,,,,,,,,,,,,,,,,,,,,,,,,,,,,,,,,,,,,,,,,,,,,,,,,,,,,,,,"[""comma"",""comma""]",0,45,0,45,0,1,"[0.010399999998526255,1.8402999999970007]",,
,,,,,,,,,,,,605238bfdfe6ffc953c1b760,20,Mężczyzna,2022-06-11_09h31.34.411,task,2021.1.4,Win32,60.00960154,6299f149e92ead563fba08ef,62a444738f4cf27bba80cce8,,,,,,,,,,,,,,,,,,,,,,,,,,,,,,,,,,,,,,,,,,,,,,,,,,,,,,,,,,,,,,,,,,,,,,,,,,,,,,,,,,,,,,,,,,,,"[""period""]",0,46,0,46,0,1,[1.5902999999970007],,
,,,,,,,,,,,,605238bfdfe6ffc953c1b760,20,Mężczyzna,2022-06-11_09h31.34.411,task,2021.1.4,Win32,60.00960154,6299f149e92ead563fba08ef,62a444738f4cf27bba80cce8,,,,,,,,,,,,,,,,,,,,,,,,,,,,,,,,,,,,,,,,,,,,,,,,,,,,,,,,,,,,,,,,,,,,,,,,,,,,,,,,,,,,,,,,,,,,"[""comma""]",0,47,0,47,0,1,[1.500199999995516],,
,,,,,,,,,,,,605238bfdfe6ffc953c1b760,20,Mężczyzna,2022-06-11_09h31.34.411,task,2021.1.4,Win32,60.00960154,6299f149e92ead563fba08ef,62a444738f4cf27bba80cce8,,,,,,,,,,,,,,,,,,,,,,,,,,,,,,,,,,,,,,,,,,,,,,,,,,,,,,,,,,,,,,,,,,,,,,,,,,,,,,,,,,,,,,,,,,,,,0,48,0,48,0,1,,,
,,,,,,,,,,,,605238bfdfe6ffc953c1b760,20,Mężczyzna,2022-06-11_09h31.34.411,task,2021.1.4,Win32,60.00960154,6299f149e92ead563fba08ef,62a444738f4cf27bba80cce8,,,,,,,,,,,,,,,,,,,,,,,,,,,,,,,,,,,,,,,,,,,,,,,,,,,,,,,,,,,,,,,,,,,,,,,,,,,,,,,,,,,,,,,,,,,,"[""period""]",0,49,0,49,0,1,[0.28029999999694155],,
,,,,,,,,,,,,605238bfdfe6ffc953c1b760,20,Mężczyzna,2022-06-11_09h31.34.411,task,2021.1.4,Win32,60.00960154,6299f149e92ead563fba08ef,62a444738f4cf27bba80cce8,,,,,,,,,,,,,,,,,,,,,,,,,,,,,,,,,,,,,,,,,,,,,,,,,,,,,,,,,,,,,,,,,,,,,,,,,,,,,,,,,,,,,,,,,,,,"[""period"",""period""]",0,50,0,50,0,1,"[0.4003999999985126,1.7300999999940814]",,
,,,,,,,,,,,,605238bfdfe6ffc953c1b760,20,Mężczyzna,2022-06-11_09h31.34.411,task,2021.1.4,Win32,60.00960154,6299f149e92ead563fba08ef,62a444738f4cf27bba80cce8,,,,,,,,,,,,,,,,,,,,,,,,,,,,,,,,,,,,,,,,,,,,,,,,,,,,,,,,,,,,,,,,,,,,,,,,,,,,,,,,,,,,,,,,,,,,"[""comma""]",0,51,0,51,0,1,[0.4302999999970325],,
,,,,,,,,,,,,605238bfdfe6ffc953c1b760,20,Mężczyzna,2022-06-11_09h31.34.411,task,2021.1.4,Win32,60.00960154,6299f149e92ead563fba08ef,62a444738f4cf27bba80cce8,,,,,,,,,,,,,,,,,,,,,,,,,,,,,,,,,,,,,,,,,,,,,,,,,,,,,,,,,,,,,,,,,,,,,,,,,,,,,,,,,,,,,,,,,,,,"[""comma""]",0,52,0,52,0,1,[0.27039999999851716],,
,,,,,,,,,,,,605238bfdfe6ffc953c1b760,20,Mężczyzna,2022-06-11_09h31.34.411,task,2021.1.4,Win32,60.00960154,6299f149e92ead563fba08ef,62a444738f4cf27bba80cce8,,,,,,,,,,,,,,,,,,,,,,,,,,,,,,,,,,,,,,,,,,,,,,,,,,,,,,,,,,,,,,,,,,,,,,,,,,,,,,,,,,,,,,,,,,,,"[""period""]",0,53,0,53,0,1,[0.26029999999707343],,
,,,,,,,,,,,,605238bfdfe6ffc953c1b760,20,Mężczyzna,2022-06-11_09h31.34.411,task,2021.1.4,Win32,60.00960154,6299f149e92ead563fba08ef,62a444738f4cf27bba80cce8,,,,,,,,,,,,,,,,,,,,,,,,,,,,,,,,,,,,,,,,,,,,,,,,,,,,,,,,,,,,,,,,,,,,,,,,,,,,,,,,,,,,,,,,,,,,"[""comma"",""period""]",0,54,0,54,0,1,"[0.26039999999852625,1.8804999999999836]",,
,,,,,,,,,,,,605238bfdfe6ffc953c1b760,20,Mężczyzna,2022-06-11_09h31.34.411,task,2021.1.4,Win32,60.00960154,6299f149e92ead563fba08ef,62a444738f4cf27bba80cce8,,,,,,,,,,,,,,,,,,,,,,,,,,,,,,,,,,,,,,,,,,,,,,,,,,,,,,,,,,,,,,,,,,,,,,,,,,,,,,,,,,,,,,,,,,,,,0,55,0,55,0,1,,,
,,,,,,,,,,,,605238bfdfe6ffc953c1b760,20,Mężczyzna,2022-06-11_09h31.34.411,task,2021.1.4,Win32,60.00960154,6299f149e92ead563fba08ef,62a444738f4cf27bba80cce8,,,,,,,,,,,,,,,,,,,,,,,,,,,,,,,,,,,,,,,,,,,,,,,,,,,,,,,,,,,,,,,,,,,,,,,,,,,,,,,,,,,,,,,,,,,,"[""comma""]",0,56,0,56,0,1,[0.4002999999969461],,
,,,,,,,,,,,,605238bfdfe6ffc953c1b760,20,Mężczyzna,2022-06-11_09h31.34.411,task,2021.1.4,Win32,60.00960154,6299f149e92ead563fba08ef,62a444738f4cf27bba80cce8,,,,,,,,,,,,,,,,,,,,,,,,,,,,,,,,,,,,,,,,,,,,,,,,,,,,,,,,,,,,,,,,,,,,,,,,,,,,,,,,,,,,,,,,,,,,"[""period""]",0,57,0,57,0,1,[0.2599999999999909],,
,,,,,,,,,,,,605238bfdfe6ffc953c1b760,20,Mężczyzna,2022-06-11_09h31.34.411,task,2021.1.4,Win32,60.00960154,6299f149e92ead563fba08ef,62a444738f4cf27bba80cce8,,,,,,,,,,,,,,,,,,,,,,,,,,,,,,,,,,,,,,,,,,,,,,,,,,,,,,,,,,,,,,,,,,,,,,,,,,,,,,,,,,,,,,,,,,,,"[""period""]",0,58,0,58,0,1,[0.18989999999848806],,
,,,,,,,,,,,,605238bfdfe6ffc953c1b760,20,Mężczyzna,2022-06-11_09h31.34.411,task,2021.1.4,Win32,60.00960154,6299f149e92ead563fba08ef,62a444738f4cf27bba80cce8,,,,,,,,,,,,,,,,,,,,,,,,,,,,,,,,,,,,,,,,,,,,,,,,,,,,,,,,,,,,,,,,,,,,,,,,,,,,,,,,,,,,,,,,,,,,"[""comma""]",0,59,0,59,0,1,[0.3003000000044267],,
,,,,,,,,,,,,605238bfdfe6ffc953c1b760,20,Mężczyzna,2022-06-11_09h31.34.411,task,2021.1.4,Win32,60.00960154,6299f149e92ead563fba08ef,62a444738f4cf27bba80cce8,,,,,,,,,,,,,,,,,,,,,,,,,,,,,,,,,,,,,,,,,,,,,,,,,,,,,,,,,,,,,,,,,,,,,,,,,,,,,,,,,,,,,,,,,,,,"[""period""]",0,60,0,60,0,1,[0.27010000000143464],,
,,,,,,,,,,,,605238bfdfe6ffc953c1b760,20,Mężczyzna,2022-06-11_09h31.34.411,task,2021.1.4,Win32,60.00960154,6299f149e92ead563fba08ef,62a444738f4cf27bba80cce8,,,,,,,,,,,,,,,,,,,,,,,,,,,,,,,,,,,,,,,,,,,,,,,,,,,,,,,,,,,,,,,,,,,,,,,,,,,,,,,,,,,,,,,,,,,,"[""period""]",0,61,0,61,0,1,[0.2199999999999136],,
,,,,,,,,,,,,605238bfdfe6ffc953c1b760,20,Mężczyzna,2022-06-11_09h31.34.411,task,2021.1.4,Win32,60.00960154,6299f149e92ead563fba08ef,62a444738f4cf27bba80cce8,,,,,,,,,,,,,,,,,,,,,,,,,,,,,,,,,,,,,,,,,,,,,,,,,,,,,,,,,,,,,,,,,,,,,,,,,,,,,,,,,,,,,,,,,,,,"[""comma""]",0,62,0,62,0,1,[0.26020000000301025],,
,,,,,,,,,,,,605238bfdfe6ffc953c1b760,20,Mężczyzna,2022-06-11_09h31.34.411,task,2021.1.4,Win32,60.00960154,6299f149e92ead563fba08ef,62a444738f4cf27bba80cce8,,,,,,,,,,,,,,,,,,,,,,,,,,,,,,,,,,,,,,,,,,,,,,,,,,,,,,,,,,,,,,,,,,,,,,,,,,,,,,,,,,,,,,,,,,,,"[""period"",""comma""]",0,63,0,63,0,1,"[0.25020000000301934,1.8802000000030148]",,
,,,,,,,,,,,,605238bfdfe6ffc953c1b760,20,Mężczyzna,2022-06-11_09h31.34.411,task,2021.1.4,Win32,60.00960154,6299f149e92ead563fba08ef,62a444738f4cf27bba80cce8,,,,,,,,,,,,,,,,,,,,,,,,,,,,,,,,,,,,,,,,,,,,,,,,,,,,,,,,,,,,,,,,,,,,,,,,,,,,,,,,,,,,,,,,,,,,"[""period""]",0,64,0,64,0,1,[1.8199999999999363],,
,,,,,,,,,,,,605238bfdfe6ffc953c1b760,20,Mężczyzna,2022-06-11_09h31.34.411,task,2021.1.4,Win32,60.00960154,6299f149e92ead563fba08ef,62a444738f4cf27bba80cce8,,,,,,,,,,,,,,,,,,,,,,,,,,,,,,,,,,,,,,,,,,,,,,,,,,,,,,,,,,,,,,,,,,,,,,,,,,,,,,,,,,,,,,,,,,,,"[""comma""]",0,65,0,65,0,1,[1.9501000000013846],,
,,,,,,,,,,,,605238bfdfe6ffc953c1b760,20,Mężczyzna,2022-06-11_09h31.34.411,task,2021.1.4,Win32,60.00960154,6299f149e92ead563fba08ef,62a444738f4cf27bba80cce8,,,,,,,,,,,,,,,,,,,,,,,,,,,,,,,,,,,,,,,,,,,,,,,,,,,,,,,,,,,,,,,,,,,,,,,,,,,,,,,,,,,,,,,,,,,,,0,66,0,66,0,1,,,
,,,,,,,,,,,,605238bfdfe6ffc953c1b760,20,Mężczyzna,2022-06-11_09h31.34.411,task,2021.1.4,Win32,60.00960154,6299f149e92ead563fba08ef,62a444738f4cf27bba80cce8,,,,,,,,,,,,,,,,,,,,,,,,,,,,,,,,,,,,,,,,,,,,,,,,,,,,,,,,,,,,,,,,,,,,,,,,,,,,,,,,,,,,,,,,,,,,"[""comma""]",0,67,0,67,0,1,[0.2101000000014892],,
,,,,,,,,,,,,605238bfdfe6ffc953c1b760,20,Mężczyzna,2022-06-11_09h31.34.411,task,2021.1.4,Win32,60.00960154,6299f149e92ead563fba08ef,62a444738f4cf27bba80cce8,,,,,,,,,,,,,,,,,,,,,,,,,,,,,,,,,,,,,,,,,,,,,,,,,,,,,,,,,,,,,,,,,,,,,,,,,,,,,,,,,,,,,,,,,,,,"[""period""]",0,68,0,68,0,1,[0.31020000000296477],,
,,,,,,,,,,,,605238bfdfe6ffc953c1b760,20,Mężczyzna,2022-06-11_09h31.34.411,task,2021.1.4,Win32,60.00960154,6299f149e92ead563fba08ef,62a444738f4cf27bba80cce8,,,,,,,,,,,,,,,,,,,,,,,,,,,,,,,,,,,,,,,,,,,,,,,,,,,,,,,,,,,,,,,,,,,,,,,,,,,,,,,,,,,,,,,,,,,,"[""comma""]",0,69,0,69,0,1,[0.319799999996917],,
,,,,,,,,,,,,605238bfdfe6ffc953c1b760,20,Mężczyzna,2022-06-11_09h31.34.411,task,2021.1.4,Win32,60.00960154,6299f149e92ead563fba08ef,62a444738f4cf27bba80cce8,,,,,,,,,,,,,,,,,,,,,,,,,,,,,,,,,,,,,,,,,,,,,,,,,,,,,,,,,,,,,,,,,,,,,,,,,,,,,,,,,,,,,,,,,,,,"[""period""]",0,70,0,70,0,1,[0.2598000000044749],,
,,,,,,,,,,,,605238bfdfe6ffc953c1b760,20,Mężczyzna,2022-06-11_09h31.34.411,task,2021.1.4,Win32,60.00960154,6299f149e92ead563fba08ef,62a444738f4cf27bba80cce8,,,,,,,,,,,,,,,,,,,,,,,,,,,,,,,,,,,,,,,,,,,,,,,,,,,,,,,,,,,,,,,,,,,,,,,,,,,,,,,,,,,,,,,,,,,,"[""comma""]",0,71,0,71,0,1,[0.34999999999990905],,
,,,,,,,,,,,,605238bfdfe6ffc953c1b760,20,Mężczyzna,2022-06-11_09h31.34.411,task,2021.1.4,Win32,60.00960154,6299f149e92ead563fba08ef,62a444738f4cf27bba80cce8,,,,,,,,,,,,,,,,,,,,,,,,,,,,,,,,,,,,,,,,,,,,,,,,,,,,,,,,,,,,,,,,,,,,,,,,,,,,,,,,,,,,,,,,,,,,"[""period""]",0,72,0,72,0,1,[0.25],,
,,,,,,,,,,,,605238bfdfe6ffc953c1b760,20,Mężczyzna,2022-06-11_09h31.34.411,task,2021.1.4,Win32,60.00960154,6299f149e92ead563fba08ef,62a444738f4cf27bba80cce8,,,,,,,,,,,,,,,,,,,,,,,,,,,,,,,,,,,,,,,,,,,,,,,,,,,,,,,,,,,,,,,,,,,,,,,,,,,,,,,,,,,,,,,,,,,,"[""comma""]",0,73,0,73,0,1,[0.34010000000148466],,
,,,,,,,,,,,,605238bfdfe6ffc953c1b760,20,Mężczyzna,2022-06-11_09h31.34.411,task,2021.1.4,Win32,60.00960154,6299f149e92ead563fba08ef,62a444738f4cf27bba80cce8,,,,,,,,,,,,,,,,,,,,,,,,,,,,,,,,,,,,,,,,,,,,,,,,,,,,,,,,,,,,,,,,,,,,,,,,,,,,,,,,,,,,,,,,,,,,"[""comma""]",0,74,0,74,0,1,[0.31999999999993634],,
,,,,,,,,,,,,605238bfdfe6ffc953c1b760,20,Mężczyzna,2022-06-11_09h31.34.411,task,2021.1.4,Win32,60.00960154,6299f149e92ead563fba08ef,62a444738f4cf27bba80cce8,,,,,,,,,,,,,,,,,,,,,,,,,,,,,,,,,,,,,,,,,,,,,,,,,,,,,,,,,,,,,,,,,,,,,,,,,,,,,,,,,,,,,,,,,,,,"[""period""]",0,75,0,75,0,1,[0.3097999999969261],,
,,,,,,,,,,,,605238bfdfe6ffc953c1b760,20,Mężczyzna,2022-06-11_09h31.34.411,task,2021.1.4,Win32,60.00960154,6299f149e92ead563fba08ef,62a444738f4cf27bba80cce8,,,,,,,,,,,,,,,,,,,,,,,,,,,,,,,,,,,,,,,,,,,,,,,,,,,,,,,,,,,,,,,,,,,,,,,,,,,,,,,,,,,,,,,,,,,,"[""comma""]",0,76,0,76,0,1,[0.23969999999553693],,
,,,,,,,,,,,,605238bfdfe6ffc953c1b760,20,Mężczyzna,2022-06-11_09h31.34.411,task,2021.1.4,Win32,60.00960154,6299f149e92ead563fba08ef,62a444738f4cf27bba80cce8,,,,,,,,,,,,,,,,,,,,,,,,,,,,,,,,,,,,,,,,,,,,,,,,,,,,,,,,,,,,,,,,,,,,,,,,,,,,,,,,,,,,,,,,,,,,"[""period"",""comma""]",0,77,0,77,0,1,"[0.2099999999999227,1.6498999999984107]",,
,,,,,,,,,,,,605238bfdfe6ffc953c1b760,20,Mężczyzna,2022-06-11_09h31.34.411,task,2021.1.4,Win32,60.00960154,6299f149e92ead563fba08ef,62a444738f4cf27bba80cce8,,,,,,,,,,,,,,,,,,,,,,,,,,,,,,,,,,,,,,,,,,,,,,,,,,,,,,,,,,,,,,,,,,,,,,,,,,,,,,,,,,,,,,,,,,,,"[""period""]",0,78,0,78,0,1,[1.740100000001462],,
,,,,,,,,,,,,605238bfdfe6ffc953c1b760,20,Mężczyzna,2022-06-11_09h31.34.411,task,2021.1.4,Win32,60.00960154,6299f149e92ead563fba08ef,62a444738f4cf27bba80cce8,,,,,,,,,,,,,,,,,,,,,,,,,,,,,,,,,,,,,,,,,,,,,,,,,,,,,,,,,,,,,,,,,,,,,,,,,,,,,,,,,,,,,,,,,,,,,0,79,0,79,0,1,,,
,,,,,,,,,,,,605238bfdfe6ffc953c1b760,20,Mężczyzna,2022-06-11_09h31.34.411,task,2021.1.4,Win32,60.00960154,6299f149e92ead563fba08ef,62a444738f4cf27bba80cce8,,,,,,,,,,,,,,,,,,,,,,,,,,,,,,,,,,,,,,,,,,,,,,,,,,,,,,,,,,,,,,,,,,,,,,,,,,,,,,,,,,,,,,,,,,,,"[""comma""]",0,80,0,80,0,1,[0.6503999999985126],,
,,,,,,,,,,,,605238bfdfe6ffc953c1b760,20,Mężczyzna,2022-06-11_09h31.34.411,task,2021.1.4,Win32,60.00960154,6299f149e92ead563fba08ef,62a444738f4cf27bba80cce8,,,,,,,,,,,,,,,,,,,,,,,,,,,,,,,,,,,,,,,,,,,,,,,,,,,,,,,,,,,,,,,,,,,,,,,,,,,,,,,,,,,,,,,,,,,,"[""period""]",0,81,0,81,0,1,[0.4499999999999318],,
,,,,,,,,,,,,605238bfdfe6ffc953c1b760,20,Mężczyzna,2022-06-11_09h31.34.411,task,2021.1.4,Win32,60.00960154,6299f149e92ead563fba08ef,62a444738f4cf27bba80cce8,,,,,,,,,,,,,,,,,,,,,,,,,,,,,,,,,,,,,,,,,,,,,,,,,,,,,,,,,,,,,,,,,,,,,,,,,,,,,,,,,,,,,,,,,,,,"[""period""]",0,82,0,82,0,1,[0.4498000000044158],,
,,,,,,,,,,,,605238bfdfe6ffc953c1b760,20,Mężczyzna,2022-06-11_09h31.34.411,task,2021.1.4,Win32,60.00960154,6299f149e92ead563fba08ef,62a444738f4cf27bba80cce8,,,,,,,,,,,,,,,,,,,,,,,,,,,,,,,,,,,,,,,,,,,,,,,,,,,,,,,,,,,,,,,,,,,,,,,,,,,,,,,,,,,,,,,,,,,,"[""comma""]",0,83,0,83,0,1,[0.4602000000030557],,
,,,,,,,,,,,,605238bfdfe6ffc953c1b760,20,Mężczyzna,2022-06-11_09h31.34.411,task,2021.1.4,Win32,60.00960154,6299f149e92ead563fba08ef,62a444738f4cf27bba80cce8,,,,,,,,,,,,,,,,,,,,,,,,,,,,,,,,,,,,,,,,,,,,,,,,,,,,,,,,,,,,,,,,,,,,,,,,,,,,,,,,,,,,,,,,,,,,"[""period""]",0,84,0,84,0,1,[0.5201000000014346],,
,,,,,,,,,,,,605238bfdfe6ffc953c1b760,20,Mężczyzna,2022-06-11_09h31.34.411,task,2021.1.4,Win32,60.00960154,6299f149e92ead563fba08ef,62a444738f4cf27bba80cce8,,,,,,,,,,,,,,,,,,,,,,,,,,,,,,,,,,,,,,,,,,,,,,,,,,,,,,,,,,,,,,,,,,,,,,,,,,,,,,,,,,,,,,,,,,,,"[""comma""]",0,85,0,85,0,1,[0.27020000000300115],,
,,,,,,,,,,,,605238bfdfe6ffc953c1b760,20,Mężczyzna,2022-06-11_09h31.34.411,task,2021.1.4,Win32,60.00960154,6299f149e92ead563fba08ef,62a444738f4cf27bba80cce8,,,,,,,,,,,,,,,,,,,,,,,,,,,,,,,,,,,,,,,,,,,,,,,,,,,,,,,,,,,,,,,,,,,,,,,,,,,,,,,,,,,,,,,,,,,,"[""period""]",0,86,0,86,0,1,[0.2399999999998954],,
,,,,,,,,,,,,605238bfdfe6ffc953c1b760,20,Mężczyzna,2022-06-11_09h31.34.411,task,2021.1.4,Win32,60.00960154,6299f149e92ead563fba08ef,62a444738f4cf27bba80cce8,,,,,,,,,,,,,,,,,,,,,,,,,,,,,,,,,,,,,,,,,,,,,,,,,,,,,,,,,,,,,,,,,,,,,,,,,,,,,,,,,,,,,,,,,,,,"[""period""]",0,87,0,87,0,1,[0.339899999998579],,
,,,,,,,,,,,,605238bfdfe6ffc953c1b760,20,Mężczyzna,2022-06-11_09h31.34.411,task,2021.1.4,Win32,60.00960154,6299f149e92ead563fba08ef,62a444738f4cf27bba80cce8,,,,,,,,,,,,,,,,,,,,,,,,,,,,,,,,,,,,,,,,,,,,,,,,,,,,,,,,,,,,,,,,,,,,,,,,,,,,,,,,,,,,,,,,,,,,"[""comma""]",0,88,0,88,0,1,[0.2603000000044631],,
,,,,,,,,,,,,605238bfdfe6ffc953c1b760,20,Mężczyzna,2022-06-11_09h31.34.411,task,2021.1.4,Win32,60.00960154,6299f149e92ead563fba08ef,62a444738f4cf27bba80cce8,,,,,,,,,,,,,,,,,,,,,,,,,,,,,,,,,,,,,,,,,,,,,,,,,,,,,,,,,,,,,,,,,,,,,,,,,,,,,,,,,,,,,,,,,,,,"[""period""]",0,89,0,89,0,1,[0.3098999999984926],,
,,,,,,,,,,,,605238bfdfe6ffc953c1b760,20,Mężczyzna,2022-06-11_09h31.34.411,task,2021.1.4,Win32,60.00960154,6299f149e92ead563fba08ef,62a444738f4cf27bba80cce8,,,,,,,,,,,,,,,,,,,,,,,,,,,,,,,,,,,,,,,,,,,,,,,,,,,,,,,,,,,,,,,,,,,,,,,,,,,,,,,,,,,,,,,,,,,,"[""period""]",0,90,0,90,0,1,[0.25970000000302207],,
,,,,,,,,,,,,605238bfdfe6ffc953c1b760,20,Mężczyzna,2022-06-11_09h31.34.411,task,2021.1.4,Win32,60.00960154,6299f149e92ead563fba08ef,62a444738f4cf27bba80cce8,,,,,,,,,,,,,,,,,,,,,,,,,,,,,,,,,,,,,,,,,,,,,,,,,,,,,,,,,,,,,,,,,,,,,,,,,,,,,,,,,,,,,,,,,,,,"[""comma""]",0,91,0,91,0,1,[0.31990000000598684],,
,,,,,,,,,,,,605238bfdfe6ffc953c1b760,20,Mężczyzna,2022-06-11_09h31.34.411,task,2021.1.4,Win32,60.00960154,6299f149e92ead563fba08ef,62a444738f4cf27bba80cce8,,,,,,,,,,,,,,,,,,,,,,,,,,,,,,,,,,,,,,,,,,,,,,,,,,,,,,,,,,,,,,,,,,,,,,,,,,,,,,,,,,,,,,,,,,,,"[""period""]",0,92,0,92,0,1,[0.20050000000003365],,
,,,,,,,,,,,,605238bfdfe6ffc953c1b760,20,Mężczyzna,2022-06-11_09h31.34.411,task,2021.1.4,Win32,60.00960154,6299f149e92ead563fba08ef,62a444738f4cf27bba80cce8,,,,,,,,,,,,,,,,,,,,,,,,,,,,,,,,,,,,,,,,,,,,,,,,,,,,,,,,,,,,,,,,,,,,,,,,,,,,,,,,,,,,,,,,,,,,"[""period""]",0,93,0,93,0,1,[0.23970000000292657],,
,,,,,,,,,,,,605238bfdfe6ffc953c1b760,20,Mężczyzna,2022-06-11_09h31.34.411,task,2021.1.4,Win32,60.00960154,6299f149e92ead563fba08ef,62a444738f4cf27bba80cce8,,,,,,,,,,,,,,,,,,,,,,,,,,,,,,,,,,,,,,,,,,,,,,,,,,,,,,,,,,,,,,,,,,,,,,,,,,,,,,,,,,,,,,,,,,,,"[""period""]",0,94,0,94,0,1,[0.039499999999975444],,
,,,,,,,,,,,,605238bfdfe6ffc953c1b760,20,Mężczyzna,2022-06-11_09h31.34.411,task,2021.1.4,Win32,60.00960154,6299f149e92ead563fba08ef,62a444738f4cf27bba80cce8,,,,,,,,,,,,,,,,,,,,,,,,,,,,,,,,,,,,,,,,,,,,,,,,,,,,,,,,,,,,,,,,,,,,,,,,,,,,,,,,,,,,,,,,,,,,"[""period""]",0,95,0,95,0,1,[0.2799999999999727],,
,,,,,,,,,,,,605238bfdfe6ffc953c1b760,20,Mężczyzna,2022-06-11_09h31.34.411,task,2021.1.4,Win32,60.00960154,6299f149e92ead563fba08ef,62a444738f4cf27bba80cce8,,,,,,,,,,,,,,,,,,,,,,,,,,,,,,,,,,,,,,,,,,,,,,,,,,,,,,,,,,,,,,,,,,,,,,,,,,,,,,,,,,,,,,,,,,,,"[""comma""]",0,96,0,96,0,1,[0.23010000000147102],,
,,,,,,,,,,,,605238bfdfe6ffc953c1b760,20,Mężczyzna,2022-06-11_09h31.34.411,task,2021.1.4,Win32,60.00960154,6299f149e92ead563fba08ef,62a444738f4cf27bba80cce8,,,,,,,,,,,,,,,,,,,,,,,,,,,,,,,,,,,,,,,,,,,,,,,,,,,,,,,,,,,,,,,,,,,,,,,,,,,,,,,,,,,,,,,,,,,,"[""comma""]",0,97,0,97,0,1,[0.4097999999970625],,
,,,,,,,,,,,,605238bfdfe6ffc953c1b760,20,Mężczyzna,2022-06-11_09h31.34.411,task,2021.1.4,Win32,60.00960154,6299f149e92ead563fba08ef,62a444738f4cf27bba80cce8,,,,,,,,,,,,,,,,,,,,,,,,,,,,,,,,,,,,,,,,,,,,,,,,,,,,,,,,,,,,,,,,,,,,,,,,,,,,,,,,,,,,,,,,,,,,"[""period""]",0,98,0,98,0,1,[0.22030000000449945],,
