key_resp_15.keys,key_resp_15.rt,key_resp_13.keys,key_resp_13.corr,ranodm_loop.thisRepN,ranodm_loop.thisTrialN,ranodm_loop.thisN,ranodm_loop.thisIndex,ranodm_loop.ran,participant,Wiek*,Płeć,date,expName,psychopyVersion,OS,frameRate,study_id,session,key_resp_13.rt,key_resp_16.keys,key_resp_16.rt,key_resp_4.keys,key_resp_4.rt,next_letter.thisRepN,next_letter.thisTrialN,next_letter.thisN,next_letter.thisIndex,next_letter.ran,letter,simple_recall,key_resp_5.keys,key_resp_5.rt,simple_recall_corr,simple_recall_corrkeys,next_level.thisRepN,next_level.thisTrialN,next_level.thisN,next_level.thisIndex,next_level.ran,key_resp_2.keys,key_resp_2.rt,digit_answer,key_resp.keys,key_resp.corr,key_resp.rt,RT_list,next_equation.thisRepN,next_equation.thisTrialN,next_equation.thisN,next_equation.thisIndex,next_equation.ran,Task,Trial,Problem,Operation_answer,processing_score,sumRT,meanRT,sumdiff,sd,RT,key_resp_3.keys,key_resp_3.rt,repeat_practice.thisRepN,repeat_practice.thisTrialN,repeat_practice.thisN,repeat_practice.thisIndex,repeat_practice.ran,key_resp_6.keys,key_resp_6.rt,key_resp_11.keys,key_resp_11.corr,key_resp_11.rt,operation_correct,repeat_if_wrong_prac.thisRepN,repeat_if_wrong_prac.thisTrialN,repeat_if_wrong_prac.thisN,repeat_if_wrong_prac.thisIndex,repeat_if_wrong_prac.ran,span_size_prac.thisRepN,span_size_prac.thisTrialN,span_size_prac.thisN,span_size_prac.thisIndex,span_size_prac.ran,complex_recall_practice,key_resp_9.keys,key_resp_9.corr,key_resp_9.rt,complex_prac_corr,span_recall_prac.thisRepN,span_recall_prac.thisTrialN,span_recall_prac.thisN,span_recall_prac.thisIndex,span_recall_prac.ran,key_resp_10.keys,key_resp_10.rt,key_resp_7.keys,key_resp_7.corr,key_resp_7.rt,repeat_if_wrong.thisRepN,repeat_if_wrong.thisTrialN,repeat_if_wrong.thisN,repeat_if_wrong.thisIndex,repeat_if_wrong.ran,span_size.thisRepN,span_size.thisTrialN,span_size.thisN,span_size.thisIndex,span_size.ran,complex_recall,key_resp_8.keys,key_resp_8.corr,key_resp_8.rt,complex_recall_corr,complex_recall_corrkeys,span_recall.thisRepN,span_recall.thisTrialN,span_recall.thisN,span_recall.thisIndex,span_recall.ran,key_resp_12.keys,key_resp_12.rt
space,3.6565,,0,0,0,0,0,1,605a4838b40613218220a77a,25,Mężczyzna,2022-05-28_09h16.16.019,task,2021.1.4,Win32,61.42128862,628b806c463b948bc644b84f,6291cc0ea42da326304b6943,,,,,,,,,,,,,,,,,,,,,,,,,,,,,,,,,,,,,,,,,,,,,,,,,,,,,,,,,,,,,,,,,,,,,,,,,,,,,,,,,,,,,,,,,,,,,,,,,,,,,,,,
,,"[""comma""]",0,1,0,1,0,1,605a4838b40613218220a77a,25,Mężczyzna,2022-05-28_09h16.16.019,task,2021.1.4,Win32,61.42128862,628b806c463b948bc644b84f,6291cc0ea42da326304b6943,[0.49499999999999034],,,,,,,,,,,,,,,,,,,,,,,,,,,,,,,,,,,,,,,,,,,,,,,,,,,,,,,,,,,,,,,,,,,,,,,,,,,,,,,,,,,,,,,,,,,,,,,,,,,,,,,
,,"[""comma""]",0,2,0,2,0,1,605a4838b40613218220a77a,25,Mężczyzna,2022-05-28_09h16.16.019,task,2021.1.4,Win32,61.42128862,628b806c463b948bc644b84f,6291cc0ea42da326304b6943,[0.7672999999970216],,,,,,,,,,,,,,,,,,,,,,,,,,,,,,,,,,,,,,,,,,,,,,,,,,,,,,,,,,,,,,,,,,,,,,,,,,,,,,,,,,,,,,,,,,,,,,,,,,,,,,,
,,"[""comma""]",0,3,0,3,0,1,605a4838b40613218220a77a,25,Mężczyzna,2022-05-28_09h16.16.019,task,2021.1.4,Win32,61.42128862,628b806c463b948bc644b84f,6291cc0ea42da326304b6943,[0.8721999999880694],,,,,,,,,,,,,,,,,,,,,,,,,,,,,,,,,,,,,,,,,,,,,,,,,,,,,,,,,,,,,,,,,,,,,,,,,,,,,,,,,,,,,,,,,,,,,,,,,,,,,,,
,,"[""comma""]",0,4,0,4,0,1,605a4838b40613218220a77a,25,Mężczyzna,2022-05-28_09h16.16.019,task,2021.1.4,Win32,61.42128862,628b806c463b948bc644b84f,6291cc0ea42da326304b6943,[0.4289000000059531],,,,,,,,,,,,,,,,,,,,,,,,,,,,,,,,,,,,,,,,,,,,,,,,,,,,,,,,,,,,,,,,,,,,,,,,,,,,,,,,,,,,,,,,,,,,,,,,,,,,,,,
,,"[""period""]",0,5,0,5,0,1,605a4838b40613218220a77a,25,Mężczyzna,2022-05-28_09h16.16.019,task,2021.1.4,Win32,61.42128862,628b806c463b948bc644b84f,6291cc0ea42da326304b6943,[0.5335999999940384],,,,,,,,,,,,,,,,,,,,,,,,,,,,,,,,,,,,,,,,,,,,,,,,,,,,,,,,,,,,,,,,,,,,,,,,,,,,,,,,,,,,,,,,,,,,,,,,,,,,,,,
,,"[""comma""]",0,6,0,6,0,1,605a4838b40613218220a77a,25,Mężczyzna,2022-05-28_09h16.16.019,task,2021.1.4,Win32,61.42128862,628b806c463b948bc644b84f,6291cc0ea42da326304b6943,[0.6787999999970253],,,,,,,,,,,,,,,,,,,,,,,,,,,,,,,,,,,,,,,,,,,,,,,,,,,,,,,,,,,,,,,,,,,,,,,,,,,,,,,,,,,,,,,,,,,,,,,,,,,,,,,
,,"[""comma""]",0,7,0,7,0,1,605a4838b40613218220a77a,25,Mężczyzna,2022-05-28_09h16.16.019,task,2021.1.4,Win32,61.42128862,628b806c463b948bc644b84f,6291cc0ea42da326304b6943,[0.8062000000029741],,,,,,,,,,,,,,,,,,,,,,,,,,,,,,,,,,,,,,,,,,,,,,,,,,,,,,,,,,,,,,,,,,,,,,,,,,,,,,,,,,,,,,,,,,,,,,,,,,,,,,,
,,"[""period"",""period""]",0,8,0,8,0,1,605a4838b40613218220a77a,25,Mężczyzna,2022-05-28_09h16.16.019,task,2021.1.4,Win32,61.42128862,628b806c463b948bc644b84f,6291cc0ea42da326304b6943,"[0.7190999999940431,0.8125]",,,,,,,,,,,,,,,,,,,,,,,,,,,,,,,,,,,,,,,,,,,,,,,,,,,,,,,,,,,,,,,,,,,,,,,,,,,,,,,,,,,,,,,,,,,,,,,,,,,,,,,
,,"[""comma""]",0,9,0,9,0,1,605a4838b40613218220a77a,25,Mężczyzna,2022-05-28_09h16.16.019,task,2021.1.4,Win32,61.42128862,628b806c463b948bc644b84f,6291cc0ea42da326304b6943,[0.4563000000119075],,,,,,,,,,,,,,,,,,,,,,,,,,,,,,,,,,,,,,,,,,,,,,,,,,,,,,,,,,,,,,,,,,,,,,,,,,,,,,,,,,,,,,,,,,,,,,,,,,,,,,,
,,"[""period""]",0,10,0,10,0,1,605a4838b40613218220a77a,25,Mężczyzna,2022-05-28_09h16.16.019,task,2021.1.4,Win32,61.42128862,628b806c463b948bc644b84f,6291cc0ea42da326304b6943,[0.5120999999940352],,,,,,,,,,,,,,,,,,,,,,,,,,,,,,,,,,,,,,,,,,,,,,,,,,,,,,,,,,,,,,,,,,,,,,,,,,,,,,,,,,,,,,,,,,,,,,,,,,,,,,,
,,"[""period""]",0,11,0,11,0,1,605a4838b40613218220a77a,25,Mężczyzna,2022-05-28_09h16.16.019,task,2021.1.4,Win32,61.42128862,628b806c463b948bc644b84f,6291cc0ea42da326304b6943,[0.46840000000595694],,,,,,,,,,,,,,,,,,,,,,,,,,,,,,,,,,,,,,,,,,,,,,,,,,,,,,,,,,,,,,,,,,,,,,,,,,,,,,,,,,,,,,,,,,,,,,,,,,,,,,,
,,"[""comma""]",0,12,0,12,0,1,605a4838b40613218220a77a,25,Mężczyzna,2022-05-28_09h16.16.019,task,2021.1.4,Win32,61.42128862,628b806c463b948bc644b84f,6291cc0ea42da326304b6943,[0.4712999999970151],,,,,,,,,,,,,,,,,,,,,,,,,,,,,,,,,,,,,,,,,,,,,,,,,,,,,,,,,,,,,,,,,,,,,,,,,,,,,,,,,,,,,,,,,,,,,,,,,,,,,,,
,,"[""period""]",0,13,0,13,0,1,605a4838b40613218220a77a,25,Mężczyzna,2022-05-28_09h16.16.019,task,2021.1.4,Win32,61.42128862,628b806c463b948bc644b84f,6291cc0ea42da326304b6943,[0.6057999999970178],,,,,,,,,,,,,,,,,,,,,,,,,,,,,,,,,,,,,,,,,,,,,,,,,,,,,,,,,,,,,,,,,,,,,,,,,,,,,,,,,,,,,,,,,,,,,,,,,,,,,,,
,,"[""period""]",0,14,0,14,0,1,605a4838b40613218220a77a,25,Mężczyzna,2022-05-28_09h16.16.019,task,2021.1.4,Win32,61.42128862,628b806c463b948bc644b84f,6291cc0ea42da326304b6943,[0.5160999999940401],,,,,,,,,,,,,,,,,,,,,,,,,,,,,,,,,,,,,,,,,,,,,,,,,,,,,,,,,,,,,,,,,,,,,,,,,,,,,,,,,,,,,,,,,,,,,,,,,,,,,,,
,,"[""period""]",0,15,0,15,0,1,605a4838b40613218220a77a,25,Mężczyzna,2022-05-28_09h16.16.019,task,2021.1.4,Win32,61.42128862,628b806c463b948bc644b84f,6291cc0ea42da326304b6943,[0.3854999999999933],,,,,,,,,,,,,,,,,,,,,,,,,,,,,,,,,,,,,,,,,,,,,,,,,,,,,,,,,,,,,,,,,,,,,,,,,,,,,,,,,,,,,,,,,,,,,,,,,,,,,,,
,,"[""period""]",0,16,0,16,0,1,605a4838b40613218220a77a,25,Mężczyzna,2022-05-28_09h16.16.019,task,2021.1.4,Win32,61.42128862,628b806c463b948bc644b84f,6291cc0ea42da326304b6943,[0.47679999999702716],,,,,,,,,,,,,,,,,,,,,,,,,,,,,,,,,,,,,,,,,,,,,,,,,,,,,,,,,,,,,,,,,,,,,,,,,,,,,,,,,,,,,,,,,,,,,,,,,,,,,,,
,,"[""comma""]",0,17,0,17,0,1,605a4838b40613218220a77a,25,Mężczyzna,2022-05-28_09h16.16.019,task,2021.1.4,Win32,61.42128862,628b806c463b948bc644b84f,6291cc0ea42da326304b6943,[0.31939999999104884],,,,,,,,,,,,,,,,,,,,,,,,,,,,,,,,,,,,,,,,,,,,,,,,,,,,,,,,,,,,,,,,,,,,,,,,,,,,,,,,,,,,,,,,,,,,,,,,,,,,,,,
,,"[""comma""]",0,18,0,18,0,1,605a4838b40613218220a77a,25,Mężczyzna,2022-05-28_09h16.16.019,task,2021.1.4,Win32,61.42128862,628b806c463b948bc644b84f,6291cc0ea42da326304b6943,[0.29699999999999704],,,,,,,,,,,,,,,,,,,,,,,,,,,,,,,,,,,,,,,,,,,,,,,,,,,,,,,,,,,,,,,,,,,,,,,,,,,,,,,,,,,,,,,,,,,,,,,,,,,,,,,
,,"[""comma""]",0,19,0,19,0,1,605a4838b40613218220a77a,25,Mężczyzna,2022-05-28_09h16.16.019,task,2021.1.4,Win32,61.42128862,628b806c463b948bc644b84f,6291cc0ea42da326304b6943,[0.42940000000595546],,,,,,,,,,,,,,,,,,,,,,,,,,,,,,,,,,,,,,,,,,,,,,,,,,,,,,,,,,,,,,,,,,,,,,,,,,,,,,,,,,,,,,,,,,,,,,,,,,,,,,,
,,"[""period""]",0,20,0,20,0,1,605a4838b40613218220a77a,25,Mężczyzna,2022-05-28_09h16.16.019,task,2021.1.4,Win32,61.42128862,628b806c463b948bc644b84f,6291cc0ea42da326304b6943,[0.34879999999702704],,,,,,,,,,,,,,,,,,,,,,,,,,,,,,,,,,,,,,,,,,,,,,,,,,,,,,,,,,,,,,,,,,,,,,,,,,,,,,,,,,,,,,,,,,,,,,,,,,,,,,,
,,"[""comma""]",0,21,0,21,0,1,605a4838b40613218220a77a,25,Mężczyzna,2022-05-28_09h16.16.019,task,2021.1.4,Win32,61.42128862,628b806c463b948bc644b84f,6291cc0ea42da326304b6943,[0.34899999999998954],,,,,,,,,,,,,,,,,,,,,,,,,,,,,,,,,,,,,,,,,,,,,,,,,,,,,,,,,,,,,,,,,,,,,,,,,,,,,,,,,,,,,,,,,,,,,,,,,,,,,,,
,,"[""period""]",0,22,0,22,0,1,605a4838b40613218220a77a,25,Mężczyzna,2022-05-28_09h16.16.019,task,2021.1.4,Win32,61.42128862,628b806c463b948bc644b84f,6291cc0ea42da326304b6943,[0.3758999999910628],,,,,,,,,,,,,,,,,,,,,,,,,,,,,,,,,,,,,,,,,,,,,,,,,,,,,,,,,,,,,,,,,,,,,,,,,,,,,,,,,,,,,,,,,,,,,,,,,,,,,,,
,,"[""period""]",0,23,0,23,0,1,605a4838b40613218220a77a,25,Mężczyzna,2022-05-28_09h16.16.019,task,2021.1.4,Win32,61.42128862,628b806c463b948bc644b84f,6291cc0ea42da326304b6943,[0.27249999999999375],,,,,,,,,,,,,,,,,,,,,,,,,,,,,,,,,,,,,,,,,,,,,,,,,,,,,,,,,,,,,,,,,,,,,,,,,,,,,,,,,,,,,,,,,,,,,,,,,,,,,,,
,,"[""comma""]",0,24,0,24,0,1,605a4838b40613218220a77a,25,Mężczyzna,2022-05-28_09h16.16.019,task,2021.1.4,Win32,61.42128862,628b806c463b948bc644b84f,6291cc0ea42da326304b6943,[0.3516000000089434],,,,,,,,,,,,,,,,,,,,,,,,,,,,,,,,,,,,,,,,,,,,,,,,,,,,,,,,,,,,,,,,,,,,,,,,,,,,,,,,,,,,,,,,,,,,,,,,,,,,,,,
,,"[""comma""]",0,25,0,25,0,1,605a4838b40613218220a77a,25,Mężczyzna,2022-05-28_09h16.16.019,task,2021.1.4,Win32,61.42128862,628b806c463b948bc644b84f,6291cc0ea42da326304b6943,[0.35900000000000887],,,,,,,,,,,,,,,,,,,,,,,,,,,,,,,,,,,,,,,,,,,,,,,,,,,,,,,,,,,,,,,,,,,,,,,,,,,,,,,,,,,,,,,,,,,,,,,,,,,,,,,
,,"[""period""]",0,26,0,26,0,1,605a4838b40613218220a77a,25,Mężczyzna,2022-05-28_09h16.16.019,task,2021.1.4,Win32,61.42128862,628b806c463b948bc644b84f,6291cc0ea42da326304b6943,[0.4177000000029807],,,,,,,,,,,,,,,,,,,,,,,,,,,,,,,,,,,,,,,,,,,,,,,,,,,,,,,,,,,,,,,,,,,,,,,,,,,,,,,,,,,,,,,,,,,,,,,,,,,,,,,
,,"[""period""]",0,27,0,27,0,1,605a4838b40613218220a77a,25,Mężczyzna,2022-05-28_09h16.16.019,task,2021.1.4,Win32,61.42128862,628b806c463b948bc644b84f,6291cc0ea42da326304b6943,[0.5240000000000009],,,,,,,,,,,,,,,,,,,,,,,,,,,,,,,,,,,,,,,,,,,,,,,,,,,,,,,,,,,,,,,,,,,,,,,,,,,,,,,,,,,,,,,,,,,,,,,,,,,,,,,
,,"[""comma""]",0,28,0,28,0,1,605a4838b40613218220a77a,25,Mężczyzna,2022-05-28_09h16.16.019,task,2021.1.4,Win32,61.42128862,628b806c463b948bc644b84f,6291cc0ea42da326304b6943,[0.5537000000029906],,,,,,,,,,,,,,,,,,,,,,,,,,,,,,,,,,,,,,,,,,,,,,,,,,,,,,,,,,,,,,,,,,,,,,,,,,,,,,,,,,,,,,,,,,,,,,,,,,,,,,,
,,"[""period""]",0,29,0,29,0,1,605a4838b40613218220a77a,25,Mężczyzna,2022-05-28_09h16.16.019,task,2021.1.4,Win32,61.42128862,628b806c463b948bc644b84f,6291cc0ea42da326304b6943,[0.2514000000059724],,,,,,,,,,,,,,,,,,,,,,,,,,,,,,,,,,,,,,,,,,,,,,,,,,,,,,,,,,,,,,,,,,,,,,,,,,,,,,,,,,,,,,,,,,,,,,,,,,,,,,,
,,"[""comma""]",0,30,0,30,0,1,605a4838b40613218220a77a,25,Mężczyzna,2022-05-28_09h16.16.019,task,2021.1.4,Win32,61.42128862,628b806c463b948bc644b84f,6291cc0ea42da326304b6943,[0.25549999999999784],,,,,,,,,,,,,,,,,,,,,,,,,,,,,,,,,,,,,,,,,,,,,,,,,,,,,,,,,,,,,,,,,,,,,,,,,,,,,,,,,,,,,,,,,,,,,,,,,,,,,,,
,,"[""comma""]",0,31,0,31,0,1,605a4838b40613218220a77a,25,Mężczyzna,2022-05-28_09h16.16.019,task,2021.1.4,Win32,61.42128862,628b806c463b948bc644b84f,6291cc0ea42da326304b6943,[0.4356000000089182],,,,,,,,,,,,,,,,,,,,,,,,,,,,,,,,,,,,,,,,,,,,,,,,,,,,,,,,,,,,,,,,,,,,,,,,,,,,,,,,,,,,,,,,,,,,,,,,,,,,,,,
,,"[""comma""]",0,32,0,32,0,1,605a4838b40613218220a77a,25,Mężczyzna,2022-05-28_09h16.16.019,task,2021.1.4,Win32,61.42128862,628b806c463b948bc644b84f,6291cc0ea42da326304b6943,[0.30679999999699703],,,,,,,,,,,,,,,,,,,,,,,,,,,,,,,,,,,,,,,,,,,,,,,,,,,,,,,,,,,,,,,,,,,,,,,,,,,,,,,,,,,,,,,,,,,,,,,,,,,,,,,
,,"[""period""]",0,33,0,33,0,1,605a4838b40613218220a77a,25,Mężczyzna,2022-05-28_09h16.16.019,task,2021.1.4,Win32,61.42128862,628b806c463b948bc644b84f,6291cc0ea42da326304b6943,[0.31280000001191866],,,,,,,,,,,,,,,,,,,,,,,,,,,,,,,,,,,,,,,,,,,,,,,,,,,,,,,,,,,,,,,,,,,,,,,,,,,,,,,,,,,,,,,,,,,,,,,,,,,,,,,
,,"[""period""]",0,34,0,34,0,1,605a4838b40613218220a77a,25,Mężczyzna,2022-05-28_09h16.16.019,task,2021.1.4,Win32,61.42128862,628b806c463b948bc644b84f,6291cc0ea42da326304b6943,[0.5160999999940259],,,,,,,,,,,,,,,,,,,,,,,,,,,,,,,,,,,,,,,,,,,,,,,,,,,,,,,,,,,,,,,,,,,,,,,,,,,,,,,,,,,,,,,,,,,,,,,,,,,,,,,
,,"[""comma""]",0,35,0,35,0,1,605a4838b40613218220a77a,25,Mężczyzna,2022-05-28_09h16.16.019,task,2021.1.4,Win32,61.42128862,628b806c463b948bc644b84f,6291cc0ea42da326304b6943,[0.3451000000089266],,,,,,,,,,,,,,,,,,,,,,,,,,,,,,,,,,,,,,,,,,,,,,,,,,,,,,,,,,,,,,,,,,,,,,,,,,,,,,,,,,,,,,,,,,,,,,,,,,,,,,,
,,"[""period""]",0,36,0,36,0,1,605a4838b40613218220a77a,25,Mężczyzna,2022-05-28_09h16.16.019,task,2021.1.4,Win32,61.42128862,628b806c463b948bc644b84f,6291cc0ea42da326304b6943,[0.10520000000298069],,,,,,,,,,,,,,,,,,,,,,,,,,,,,,,,,,,,,,,,,,,,,,,,,,,,,,,,,,,,,,,,,,,,,,,,,,,,,,,,,,,,,,,,,,,,,,,,,,,,,,,
,,"[""period""]",0,37,0,37,0,1,605a4838b40613218220a77a,25,Mężczyzna,2022-05-28_09h16.16.019,task,2021.1.4,Win32,61.42128862,628b806c463b948bc644b84f,6291cc0ea42da326304b6943,[0.3040999999940368],,,,,,,,,,,,,,,,,,,,,,,,,,,,,,,,,,,,,,,,,,,,,,,,,,,,,,,,,,,,,,,,,,,,,,,,,,,,,,,,,,,,,,,,,,,,,,,,,,,,,,,
,,"[""period""]",0,38,0,38,0,1,605a4838b40613218220a77a,25,Mężczyzna,2022-05-28_09h16.16.019,task,2021.1.4,Win32,61.42128862,628b806c463b948bc644b84f,6291cc0ea42da326304b6943,[0.43810000000894433],,,,,,,,,,,,,,,,,,,,,,,,,,,,,,,,,,,,,,,,,,,,,,,,,,,,,,,,,,,,,,,,,,,,,,,,,,,,,,,,,,,,,,,,,,,,,,,,,,,,,,,
,,"[""comma""]",0,39,0,39,0,1,605a4838b40613218220a77a,25,Mężczyzna,2022-05-28_09h16.16.019,task,2021.1.4,Win32,61.42128862,628b806c463b948bc644b84f,6291cc0ea42da326304b6943,[0.26690000000596115],,,,,,,,,,,,,,,,,,,,,,,,,,,,,,,,,,,,,,,,,,,,,,,,,,,,,,,,,,,,,,,,,,,,,,,,,,,,,,,,,,,,,,,,,,,,,,,,,,,,,,,
,,"[""period""]",0,40,0,40,0,1,605a4838b40613218220a77a,25,Mężczyzna,2022-05-28_09h16.16.019,task,2021.1.4,Win32,61.42128862,628b806c463b948bc644b84f,6291cc0ea42da326304b6943,[0.47290000000595],,,,,,,,,,,,,,,,,,,,,,,,,,,,,,,,,,,,,,,,,,,,,,,,,,,,,,,,,,,,,,,,,,,,,,,,,,,,,,,,,,,,,,,,,,,,,,,,,,,,,,,
,,"[""comma""]",0,41,0,41,0,1,605a4838b40613218220a77a,25,Mężczyzna,2022-05-28_09h16.16.019,task,2021.1.4,Win32,61.42128862,628b806c463b948bc644b84f,6291cc0ea42da326304b6943,[0.22740000000595728],,,,,,,,,,,,,,,,,,,,,,,,,,,,,,,,,,,,,,,,,,,,,,,,,,,,,,,,,,,,,,,,,,,,,,,,,,,,,,,,,,,,,,,,,,,,,,,,,,,,,,,
,,"[""comma""]",0,42,0,42,0,1,605a4838b40613218220a77a,25,Mężczyzna,2022-05-28_09h16.16.019,task,2021.1.4,Win32,61.42128862,628b806c463b948bc644b84f,6291cc0ea42da326304b6943,[0.15990000000596183],,,,,,,,,,,,,,,,,,,,,,,,,,,,,,,,,,,,,,,,,,,,,,,,,,,,,,,,,,,,,,,,,,,,,,,,,,,,,,,,,,,,,,,,,,,,,,,,,,,,,,,
,,"[""period""]",0,43,0,43,0,1,605a4838b40613218220a77a,25,Mężczyzna,2022-05-28_09h16.16.019,task,2021.1.4,Win32,61.42128862,628b806c463b948bc644b84f,6291cc0ea42da326304b6943,[-0.0034000000059393187],,,,,,,,,,,,,,,,,,,,,,,,,,,,,,,,,,,,,,,,,,,,,,,,,,,,,,,,,,,,,,,,,,,,,,,,,,,,,,,,,,,,,,,,,,,,,,,,,,,,,,,
,,"[""comma""]",0,44,0,44,0,1,605a4838b40613218220a77a,25,Mężczyzna,2022-05-28_09h16.16.019,task,2021.1.4,Win32,61.42128862,628b806c463b948bc644b84f,6291cc0ea42da326304b6943,[0.08429999999702886],,,,,,,,,,,,,,,,,,,,,,,,,,,,,,,,,,,,,,,,,,,,,,,,,,,,,,,,,,,,,,,,,,,,,,,,,,,,,,,,,,,,,,,,,,,,,,,,,,,,,,,
,,"[""comma""]",0,45,0,45,0,1,605a4838b40613218220a77a,25,Mężczyzna,2022-05-28_09h16.16.019,task,2021.1.4,Win32,61.42128862,628b806c463b948bc644b84f,6291cc0ea42da326304b6943,[0.2752000000029966],,,,,,,,,,,,,,,,,,,,,,,,,,,,,,,,,,,,,,,,,,,,,,,,,,,,,,,,,,,,,,,,,,,,,,,,,,,,,,,,,,,,,,,,,,,,,,,,,,,,,,,
,,"[""period""]",0,46,0,46,0,1,605a4838b40613218220a77a,25,Mężczyzna,2022-05-28_09h16.16.019,task,2021.1.4,Win32,61.42128862,628b806c463b948bc644b84f,6291cc0ea42da326304b6943,[0.2628000000119357],,,,,,,,,,,,,,,,,,,,,,,,,,,,,,,,,,,,,,,,,,,,,,,,,,,,,,,,,,,,,,,,,,,,,,,,,,,,,,,,,,,,,,,,,,,,,,,,,,,,,,,
,,"[""comma""]",0,47,0,47,0,1,605a4838b40613218220a77a,25,Mężczyzna,2022-05-28_09h16.16.019,task,2021.1.4,Win32,61.42128862,628b806c463b948bc644b84f,6291cc0ea42da326304b6943,[0.3669999999999902],,,,,,,,,,,,,,,,,,,,,,,,,,,,,,,,,,,,,,,,,,,,,,,,,,,,,,,,,,,,,,,,,,,,,,,,,,,,,,,,,,,,,,,,,,,,,,,,,,,,,,,
,,"[""period""]",0,48,0,48,0,1,605a4838b40613218220a77a,25,Mężczyzna,2022-05-28_09h16.16.019,task,2021.1.4,Win32,61.42128862,628b806c463b948bc644b84f,6291cc0ea42da326304b6943,[0.2824000000059641],,,,,,,,,,,,,,,,,,,,,,,,,,,,,,,,,,,,,,,,,,,,,,,,,,,,,,,,,,,,,,,,,,,,,,,,,,,,,,,,,,,,,,,,,,,,,,,,,,,,,,,
,,"[""period""]",0,49,0,49,0,1,605a4838b40613218220a77a,25,Mężczyzna,2022-05-28_09h16.16.019,task,2021.1.4,Win32,61.42128862,628b806c463b948bc644b84f,6291cc0ea42da326304b6943,[0.4342999999970232],,,,,,,,,,,,,,,,,,,,,,,,,,,,,,,,,,,,,,,,,,,,,,,,,,,,,,,,,,,,,,,,,,,,,,,,,,,,,,,,,,,,,,,,,,,,,,,,,,,,,,,
,,"[""comma""]",0,50,0,50,0,1,605a4838b40613218220a77a,25,Mężczyzna,2022-05-28_09h16.16.019,task,2021.1.4,Win32,61.42128862,628b806c463b948bc644b84f,6291cc0ea42da326304b6943,[0.28780000001191297],,,,,,,,,,,,,,,,,,,,,,,,,,,,,,,,,,,,,,,,,,,,,,,,,,,,,,,,,,,,,,,,,,,,,,,,,,,,,,,,,,,,,,,,,,,,,,,,,,,,,,,
,,"[""comma""]",0,51,0,51,0,1,605a4838b40613218220a77a,25,Mężczyzna,2022-05-28_09h16.16.019,task,2021.1.4,Win32,61.42128862,628b806c463b948bc644b84f,6291cc0ea42da326304b6943,[0.28580000001193184],,,,,,,,,,,,,,,,,,,,,,,,,,,,,,,,,,,,,,,,,,,,,,,,,,,,,,,,,,,,,,,,,,,,,,,,,,,,,,,,,,,,,,,,,,,,,,,,,,,,,,,
,,"[""period""]",0,52,0,52,0,1,605a4838b40613218220a77a,25,Mężczyzna,2022-05-28_09h16.16.019,task,2021.1.4,Win32,61.42128862,628b806c463b948bc644b84f,6291cc0ea42da326304b6943,[0.22929999999701067],,,,,,,,,,,,,,,,,,,,,,,,,,,,,,,,,,,,,,,,,,,,,,,,,,,,,,,,,,,,,,,,,,,,,,,,,,,,,,,,,,,,,,,,,,,,,,,,,,,,,,,
,,"[""comma""]",0,53,0,53,0,1,605a4838b40613218220a77a,25,Mężczyzna,2022-05-28_09h16.16.019,task,2021.1.4,Win32,61.42128862,628b806c463b948bc644b84f,6291cc0ea42da326304b6943,[0.2357999999970275],,,,,,,,,,,,,,,,,,,,,,,,,,,,,,,,,,,,,,,,,,,,,,,,,,,,,,,,,,,,,,,,,,,,,,,,,,,,,,,,,,,,,,,,,,,,,,,,,,,,,,,
,,"[""period""]",0,54,0,54,0,1,605a4838b40613218220a77a,25,Mężczyzna,2022-05-28_09h16.16.019,task,2021.1.4,Win32,61.42128862,628b806c463b948bc644b84f,6291cc0ea42da326304b6943,[0.06759999999405863],,,,,,,,,,,,,,,,,,,,,,,,,,,,,,,,,,,,,,,,,,,,,,,,,,,,,,,,,,,,,,,,,,,,,,,,,,,,,,,,,,,,,,,,,,,,,,,,,,,,,,,
,,"[""period""]",0,55,0,55,0,1,605a4838b40613218220a77a,25,Mężczyzna,2022-05-28_09h16.16.019,task,2021.1.4,Win32,61.42128862,628b806c463b948bc644b84f,6291cc0ea42da326304b6943,[0.28320000000297796],,,,,,,,,,,,,,,,,,,,,,,,,,,,,,,,,,,,,,,,,,,,,,,,,,,,,,,,,,,,,,,,,,,,,,,,,,,,,,,,,,,,,,,,,,,,,,,,,,,,,,,
,,"[""comma""]",0,56,0,56,0,1,605a4838b40613218220a77a,25,Mężczyzna,2022-05-28_09h16.16.019,task,2021.1.4,Win32,61.42128862,628b806c463b948bc644b84f,6291cc0ea42da326304b6943,[0.27830000001191024],,,,,,,,,,,,,,,,,,,,,,,,,,,,,,,,,,,,,,,,,,,,,,,,,,,,,,,,,,,,,,,,,,,,,,,,,,,,,,,,,,,,,,,,,,,,,,,,,,,,,,,
,,"[""comma""]",0,57,0,57,0,1,605a4838b40613218220a77a,25,Mężczyzna,2022-05-28_09h16.16.019,task,2021.1.4,Win32,61.42128862,628b806c463b948bc644b84f,6291cc0ea42da326304b6943,[0.28840000000596433],,,,,,,,,,,,,,,,,,,,,,,,,,,,,,,,,,,,,,,,,,,,,,,,,,,,,,,,,,,,,,,,,,,,,,,,,,,,,,,,,,,,,,,,,,,,,,,,,,,,,,,
,,"[""comma""]",0,58,0,58,0,1,605a4838b40613218220a77a,25,Mężczyzna,2022-05-28_09h16.16.019,task,2021.1.4,Win32,61.42128862,628b806c463b948bc644b84f,6291cc0ea42da326304b6943,[0.3340000000000032],,,,,,,,,,,,,,,,,,,,,,,,,,,,,,,,,,,,,,,,,,,,,,,,,,,,,,,,,,,,,,,,,,,,,,,,,,,,,,,,,,,,,,,,,,,,,,,,,,,,,,,
,,"[""period""]",0,59,0,59,0,1,605a4838b40613218220a77a,25,Mężczyzna,2022-05-28_09h16.16.019,task,2021.1.4,Win32,61.42128862,628b806c463b948bc644b84f,6291cc0ea42da326304b6943,[0.4084000000059689],,,,,,,,,,,,,,,,,,,,,,,,,,,,,,,,,,,,,,,,,,,,,,,,,,,,,,,,,,,,,,,,,,,,,,,,,,,,,,,,,,,,,,,,,,,,,,,,,,,,,,,
,,"[""period""]",0,60,0,60,0,1,605a4838b40613218220a77a,25,Mężczyzna,2022-05-28_09h16.16.019,task,2021.1.4,Win32,61.42128862,628b806c463b948bc644b84f,6291cc0ea42da326304b6943,[0.3169000000059725],,,,,,,,,,,,,,,,,,,,,,,,,,,,,,,,,,,,,,,,,,,,,,,,,,,,,,,,,,,,,,,,,,,,,,,,,,,,,,,,,,,,,,,,,,,,,,,,,,,,,,,
,,"[""comma""]",0,61,0,61,0,1,605a4838b40613218220a77a,25,Mężczyzna,2022-05-28_09h16.16.019,task,2021.1.4,Win32,61.42128862,628b806c463b948bc644b84f,6291cc0ea42da326304b6943,[0.2707999999970241],,,,,,,,,,,,,,,,,,,,,,,,,,,,,,,,,,,,,,,,,,,,,,,,,,,,,,,,,,,,,,,,,,,,,,,,,,,,,,,,,,,,,,,,,,,,,,,,,,,,,,,
,,"[""period""]",0,62,0,62,0,1,605a4838b40613218220a77a,25,Mężczyzna,2022-05-28_09h16.16.019,task,2021.1.4,Win32,61.42128862,628b806c463b948bc644b84f,6291cc0ea42da326304b6943,[0.29670000000297136],,,,,,,,,,,,,,,,,,,,,,,,,,,,,,,,,,,,,,,,,,,,,,,,,,,,,,,,,,,,,,,,,,,,,,,,,,,,,,,,,,,,,,,,,,,,,,,,,,,,,,,
,,"[""comma""]",0,63,0,63,0,1,605a4838b40613218220a77a,25,Mężczyzna,2022-05-28_09h16.16.019,task,2021.1.4,Win32,61.42128862,628b806c463b948bc644b84f,6291cc0ea42da326304b6943,[0.2709999999999866],,,,,,,,,,,,,,,,,,,,,,,,,,,,,,,,,,,,,,,,,,,,,,,,,,,,,,,,,,,,,,,,,,,,,,,,,,,,,,,,,,,,,,,,,,,,,,,,,,,,,,,
,,"[""comma""]",0,64,0,64,0,1,605a4838b40613218220a77a,25,Mężczyzna,2022-05-28_09h16.16.019,task,2021.1.4,Win32,61.42128862,628b806c463b948bc644b84f,6291cc0ea42da326304b6943,[0.18600000000000705],,,,,,,,,,,,,,,,,,,,,,,,,,,,,,,,,,,,,,,,,,,,,,,,,,,,,,,,,,,,,,,,,,,,,,,,,,,,,,,,,,,,,,,,,,,,,,,,,,,,,,,
,,"[""period""]",0,65,0,65,0,1,605a4838b40613218220a77a,25,Mężczyzna,2022-05-28_09h16.16.019,task,2021.1.4,Win32,61.42128862,628b806c463b948bc644b84f,6291cc0ea42da326304b6943,[0.09169999998806588],,,,,,,,,,,,,,,,,,,,,,,,,,,,,,,,,,,,,,,,,,,,,,,,,,,,,,,,,,,,,,,,,,,,,,,,,,,,,,,,,,,,,,,,,,,,,,,,,,,,,,,
,,"[""period""]",0,66,0,66,0,1,605a4838b40613218220a77a,25,Mężczyzna,2022-05-28_09h16.16.019,task,2021.1.4,Win32,61.42128862,628b806c463b948bc644b84f,6291cc0ea42da326304b6943,[0.5672000000029698],,,,,,,,,,,,,,,,,,,,,,,,,,,,,,,,,,,,,,,,,,,,,,,,,,,,,,,,,,,,,,,,,,,,,,,,,,,,,,,,,,,,,,,,,,,,,,,,,,,,,,,
,,"[""comma""]",0,67,0,67,0,1,605a4838b40613218220a77a,25,Mężczyzna,2022-05-28_09h16.16.019,task,2021.1.4,Win32,61.42128862,628b806c463b948bc644b84f,6291cc0ea42da326304b6943,[0.3299999999999841],,,,,,,,,,,,,,,,,,,,,,,,,,,,,,,,,,,,,,,,,,,,,,,,,,,,,,,,,,,,,,,,,,,,,,,,,,,,,,,,,,,,,,,,,,,,,,,,,,,,,,,
,,"[""comma""]",0,68,0,68,0,1,605a4838b40613218220a77a,25,Mężczyzna,2022-05-28_09h16.16.019,task,2021.1.4,Win32,61.42128862,628b806c463b948bc644b84f,6291cc0ea42da326304b6943,[0.4008000000119125],,,,,,,,,,,,,,,,,,,,,,,,,,,,,,,,,,,,,,,,,,,,,,,,,,,,,,,,,,,,,,,,,,,,,,,,,,,,,,,,,,,,,,,,,,,,,,,,,,,,,,,
,,"[""period""]",0,69,0,69,0,1,605a4838b40613218220a77a,25,Mężczyzna,2022-05-28_09h16.16.019,task,2021.1.4,Win32,61.42128862,628b806c463b948bc644b84f,6291cc0ea42da326304b6943,[0.30670000000296227],,,,,,,,,,,,,,,,,,,,,,,,,,,,,,,,,,,,,,,,,,,,,,,,,,,,,,,,,,,,,,,,,,,,,,,,,,,,,,,,,,,,,,,,,,,,,,,,,,,,,,,
,,"[""period""]",0,70,0,70,0,1,605a4838b40613218220a77a,25,Mężczyzna,2022-05-28_09h16.16.019,task,2021.1.4,Win32,61.42128862,628b806c463b948bc644b84f,6291cc0ea42da326304b6943,[0.7167000000029873],,,,,,,,,,,,,,,,,,,,,,,,,,,,,,,,,,,,,,,,,,,,,,,,,,,,,,,,,,,,,,,,,,,,,,,,,,,,,,,,,,,,,,,,,,,,,,,,,,,,,,,
,,"[""period""]",0,71,0,71,0,1,605a4838b40613218220a77a,25,Mężczyzna,2022-05-28_09h16.16.019,task,2021.1.4,Win32,61.42128862,628b806c463b948bc644b84f,6291cc0ea42da326304b6943,[0.4519000000059634],,,,,,,,,,,,,,,,,,,,,,,,,,,,,,,,,,,,,,,,,,,,,,,,,,,,,,,,,,,,,,,,,,,,,,,,,,,,,,,,,,,,,,,,,,,,,,,,,,,,,,,
,,"[""comma""]",0,72,0,72,0,1,605a4838b40613218220a77a,25,Mężczyzna,2022-05-28_09h16.16.019,task,2021.1.4,Win32,61.42128862,628b806c463b948bc644b84f,6291cc0ea42da326304b6943,[0.4509999999999934],,,,,,,,,,,,,,,,,,,,,,,,,,,,,,,,,,,,,,,,,,,,,,,,,,,,,,,,,,,,,,,,,,,,,,,,,,,,,,,,,,,,,,,,,,,,,,,,,,,,,,,
,,"[""comma""]",0,73,0,73,0,1,605a4838b40613218220a77a,25,Mężczyzna,2022-05-28_09h16.16.019,task,2021.1.4,Win32,61.42128862,628b806c463b948bc644b84f,6291cc0ea42da326304b6943,[0.3556999999880759],,,,,,,,,,,,,,,,,,,,,,,,,,,,,,,,,,,,,,,,,,,,,,,,,,,,,,,,,,,,,,,,,,,,,,,,,,,,,,,,,,,,,,,,,,,,,,,,,,,,,,,
,,"[""comma""]",0,74,0,74,0,1,605a4838b40613218220a77a,25,Mężczyzna,2022-05-28_09h16.16.019,task,2021.1.4,Win32,61.42128862,628b806c463b948bc644b84f,6291cc0ea42da326304b6943,[0.46889999999106635],,,,,,,,,,,,,,,,,,,,,,,,,,,,,,,,,,,,,,,,,,,,,,,,,,,,,,,,,,,,,,,,,,,,,,,,,,,,,,,,,,,,,,,,,,,,,,,,,,,,,,,
,,"[""period""]",0,75,0,75,0,1,605a4838b40613218220a77a,25,Mężczyzna,2022-05-28_09h16.16.019,task,2021.1.4,Win32,61.42128862,628b806c463b948bc644b84f,6291cc0ea42da326304b6943,[0.2966000000089366],,,,,,,,,,,,,,,,,,,,,,,,,,,,,,,,,,,,,,,,,,,,,,,,,,,,,,,,,,,,,,,,,,,,,,,,,,,,,,,,,,,,,,,,,,,,,,,,,,,,,,,
,,"[""period""]",0,76,0,76,0,1,605a4838b40613218220a77a,25,Mężczyzna,2022-05-28_09h16.16.019,task,2021.1.4,Win32,61.42128862,628b806c463b948bc644b84f,6291cc0ea42da326304b6943,[0.3557999999970036],,,,,,,,,,,,,,,,,,,,,,,,,,,,,,,,,,,,,,,,,,,,,,,,,,,,,,,,,,,,,,,,,,,,,,,,,,,,,,,,,,,,,,,,,,,,,,,,,,,,,,,
,,"[""comma""]",0,77,0,77,0,1,605a4838b40613218220a77a,25,Mężczyzna,2022-05-28_09h16.16.019,task,2021.1.4,Win32,61.42128862,628b806c463b948bc644b84f,6291cc0ea42da326304b6943,[0.289100000008915],,,,,,,,,,,,,,,,,,,,,,,,,,,,,,,,,,,,,,,,,,,,,,,,,,,,,,,,,,,,,,,,,,,,,,,,,,,,,,,,,,,,,,,,,,,,,,,,,,,,,,,
,,"[""comma""]",0,78,0,78,0,1,605a4838b40613218220a77a,25,Mężczyzna,2022-05-28_09h16.16.019,task,2021.1.4,Win32,61.42128862,628b806c463b948bc644b84f,6291cc0ea42da326304b6943,[0.31030000001192093],,,,,,,,,,,,,,,,,,,,,,,,,,,,,,,,,,,,,,,,,,,,,,,,,,,,,,,,,,,,,,,,,,,,,,,,,,,,,,,,,,,,,,,,,,,,,,,,,,,,,,,
,,"[""period""]",0,79,0,79,0,1,605a4838b40613218220a77a,25,Mężczyzna,2022-05-28_09h16.16.019,task,2021.1.4,Win32,61.42128862,628b806c463b948bc644b84f,6291cc0ea42da326304b6943,[0.25479999999700453],,,,,,,,,,,,,,,,,,,,,,,,,,,,,,,,,,,,,,,,,,,,,,,,,,,,,,,,,,,,,,,,,,,,,,,,,,,,,,,,,,,,,,,,,,,,,,,,,,,,,,,
,,"[""period""]",0,80,0,80,0,1,605a4838b40613218220a77a,25,Mężczyzna,2022-05-28_09h16.16.019,task,2021.1.4,Win32,61.42128862,628b806c463b948bc644b84f,6291cc0ea42da326304b6943,[0.31679999999701636],,,,,,,,,,,,,,,,,,,,,,,,,,,,,,,,,,,,,,,,,,,,,,,,,,,,,,,,,,,,,,,,,,,,,,,,,,,,,,,,,,,,,,,,,,,,,,,,,,,,,,,
,,"[""comma""]",0,81,0,81,0,1,605a4838b40613218220a77a,25,Mężczyzna,2022-05-28_09h16.16.019,task,2021.1.4,Win32,61.42128862,628b806c463b948bc644b84f,6291cc0ea42da326304b6943,[0.29159999999401975],,,,,,,,,,,,,,,,,,,,,,,,,,,,,,,,,,,,,,,,,,,,,,,,,,,,,,,,,,,,,,,,,,,,,,,,,,,,,,,,,,,,,,,,,,,,,,,,,,,,,,,
,,"[""comma""]",0,82,0,82,0,1,605a4838b40613218220a77a,25,Mężczyzna,2022-05-28_09h16.16.019,task,2021.1.4,Win32,61.42128862,628b806c463b948bc644b84f,6291cc0ea42da326304b6943,[0.2282999999970059],,,,,,,,,,,,,,,,,,,,,,,,,,,,,,,,,,,,,,,,,,,,,,,,,,,,,,,,,,,,,,,,,,,,,,,,,,,,,,,,,,,,,,,,,,,,,,,,,,,,,,,
,,"[""period"",""comma""]",0,83,0,83,0,1,605a4838b40613218220a77a,25,Mężczyzna,2022-05-28_09h16.16.019,task,2021.1.4,Win32,61.42128862,628b806c463b948bc644b84f,6291cc0ea42da326304b6943,"[0.10929999999703455,1.9665999999940311]",,,,,,,,,,,,,,,,,,,,,,,,,,,,,,,,,,,,,,,,,,,,,,,,,,,,,,,,,,,,,,,,,,,,,,,,,,,,,,,,,,,,,,,,,,,,,,,,,,,,,,,
,,,0,84,0,84,0,1,605a4838b40613218220a77a,25,Mężczyzna,2022-05-28_09h16.16.019,task,2021.1.4,Win32,61.42128862,628b806c463b948bc644b84f,6291cc0ea42da326304b6943,,,,,,,,,,,,,,,,,,,,,,,,,,,,,,,,,,,,,,,,,,,,,,,,,,,,,,,,,,,,,,,,,,,,,,,,,,,,,,,,,,,,,,,,,,,,,,,,,,,,,,,,
,,"[""period""]",0,85,0,85,0,1,605a4838b40613218220a77a,25,Mężczyzna,2022-05-28_09h16.16.019,task,2021.1.4,Win32,61.42128862,628b806c463b948bc644b84f,6291cc0ea42da326304b6943,[0.2577000000029841],,,,,,,,,,,,,,,,,,,,,,,,,,,,,,,,,,,,,,,,,,,,,,,,,,,,,,,,,,,,,,,,,,,,,,,,,,,,,,,,,,,,,,,,,,,,,,,,,,,,,,,
,,"[""comma""]",0,86,0,86,0,1,605a4838b40613218220a77a,25,Mężczyzna,2022-05-28_09h16.16.019,task,2021.1.4,Win32,61.42128862,628b806c463b948bc644b84f,6291cc0ea42da326304b6943,[0.24359999999404636],,,,,,,,,,,,,,,,,,,,,,,,,,,,,,,,,,,,,,,,,,,,,,,,,,,,,,,,,,,,,,,,,,,,,,,,,,,,,,,,,,,,,,,,,,,,,,,,,,,,,,,
,,"[""period""]",0,87,0,87,0,1,605a4838b40613218220a77a,25,Mężczyzna,2022-05-28_09h16.16.019,task,2021.1.4,Win32,61.42128862,628b806c463b948bc644b84f,6291cc0ea42da326304b6943,[0.28460000000896457],,,,,,,,,,,,,,,,,,,,,,,,,,,,,,,,,,,,,,,,,,,,,,,,,,,,,,,,,,,,,,,,,,,,,,,,,,,,,,,,,,,,,,,,,,,,,,,,,,,,,,,
,,"[""comma""]",0,88,0,88,0,1,605a4838b40613218220a77a,25,Mężczyzna,2022-05-28_09h16.16.019,task,2021.1.4,Win32,61.42128862,628b806c463b948bc644b84f,6291cc0ea42da326304b6943,[0.26219999998807],,,,,,,,,,,,,,,,,,,,,,,,,,,,,,,,,,,,,,,,,,,,,,,,,,,,,,,,,,,,,,,,,,,,,,,,,,,,,,,,,,,,,,,,,,,,,,,,,,,,,,,
,,"[""comma""]",0,89,0,89,0,1,605a4838b40613218220a77a,25,Mężczyzna,2022-05-28_09h16.16.019,task,2021.1.4,Win32,61.42128862,628b806c463b948bc644b84f,6291cc0ea42da326304b6943,[0.22649999999998727],,,,,,,,,,,,,,,,,,,,,,,,,,,,,,,,,,,,,,,,,,,,,,,,,,,,,,,,,,,,,,,,,,,,,,,,,,,,,,,,,,,,,,,,,,,,,,,,,,,,,,,
,,"[""comma""]",0,90,0,90,0,1,605a4838b40613218220a77a,25,Mężczyzna,2022-05-28_09h16.16.019,task,2021.1.4,Win32,61.42128862,628b806c463b948bc644b84f,6291cc0ea42da326304b6943,[0.17729999999701818],,,,,,,,,,,,,,,,,,,,,,,,,,,,,,,,,,,,,,,,,,,,,,,,,,,,,,,,,,,,,,,,,,,,,,,,,,,,,,,,,,,,,,,,,,,,,,,,,,,,,,,
,,"[""period""]",0,91,0,91,0,1,605a4838b40613218220a77a,25,Mężczyzna,2022-05-28_09h16.16.019,task,2021.1.4,Win32,61.42128862,628b806c463b948bc644b84f,6291cc0ea42da326304b6943,[0.25130000001192343],,,,,,,,,,,,,,,,,,,,,,,,,,,,,,,,,,,,,,,,,,,,,,,,,,,,,,,,,,,,,,,,,,,,,,,,,,,,,,,,,,,,,,,,,,,,,,,,,,,,,,,
,,"[""period""]",0,92,0,92,0,1,605a4838b40613218220a77a,25,Mężczyzna,2022-05-28_09h16.16.019,task,2021.1.4,Win32,61.42128862,628b806c463b948bc644b84f,6291cc0ea42da326304b6943,[0.10189999999107613],,,,,,,,,,,,,,,,,,,,,,,,,,,,,,,,,,,,,,,,,,,,,,,,,,,,,,,,,,,,,,,,,,,,,,,,,,,,,,,,,,,,,,,,,,,,,,,,,,,,,,,
,,"[""period""]",0,93,0,93,0,1,605a4838b40613218220a77a,25,Mężczyzna,2022-05-28_09h16.16.019,task,2021.1.4,Win32,61.42128862,628b806c463b948bc644b84f,6291cc0ea42da326304b6943,[0.2584000000059632],,,,,,,,,,,,,,,,,,,,,,,,,,,,,,,,,,,,,,,,,,,,,,,,,,,,,,,,,,,,,,,,,,,,,,,,,,,,,,,,,,,,,,,,,,,,,,,,,,,,,,,
,,"[""comma""]",0,94,0,94,0,1,605a4838b40613218220a77a,25,Mężczyzna,2022-05-28_09h16.16.019,task,2021.1.4,Win32,61.42128862,628b806c463b948bc644b84f,6291cc0ea42da326304b6943,[0.25940000000593955],,,,,,,,,,,,,,,,,,,,,,,,,,,,,,,,,,,,,,,,,,,,,,,,,,,,,,,,,,,,,,,,,,,,,,,,,,,,,,,,,,,,,,,,,,,,,,,,,,,,,,,
,,"[""period""]",0,95,0,95,0,1,605a4838b40613218220a77a,25,Mężczyzna,2022-05-28_09h16.16.019,task,2021.1.4,Win32,61.42128862,628b806c463b948bc644b84f,6291cc0ea42da326304b6943,[0.3101000000089016],,,,,,,,,,,,,,,,,,,,,,,,,,,,,,,,,,,,,,,,,,,,,,,,,,,,,,,,,,,,,,,,,,,,,,,,,,,,,,,,,,,,,,,,,,,,,,,,,,,,,,,
,,"[""comma""]",0,96,0,96,0,1,605a4838b40613218220a77a,25,Mężczyzna,2022-05-28_09h16.16.019,task,2021.1.4,Win32,61.42128862,628b806c463b948bc644b84f,6291cc0ea42da326304b6943,[0.28539999999105703],,,,,,,,,,,,,,,,,,,,,,,,,,,,,,,,,,,,,,,,,,,,,,,,,,,,,,,,,,,,,,,,,,,,,,,,,,,,,,,,,,,,,,,,,,,,,,,,,,,,,,,
,,"[""comma""]",0,97,0,97,0,1,605a4838b40613218220a77a,25,Mężczyzna,2022-05-28_09h16.16.019,task,2021.1.4,Win32,61.42128862,628b806c463b948bc644b84f,6291cc0ea42da326304b6943,[0.28370000000296614],,,,,,,,,,,,,,,,,,,,,,,,,,,,,,,,,,,,,,,,,,,,,,,,,,,,,,,,,,,,,,,,,,,,,,,,,,,,,,,,,,,,,,,,,,,,,,,,,,,,,,,
,,"[""comma""]",0,98,0,98,0,1,605a4838b40613218220a77a,25,Mężczyzna,2022-05-28_09h16.16.019,task,2021.1.4,Win32,61.42128862,628b806c463b948bc644b84f,6291cc0ea42da326304b6943,[0.3297000000029584],,,,,,,,,,,,,,,,,,,,,,,,,,,,,,,,,,,,,,,,,,,,,,,,,,,,,,,,,,,,,,,,,,,,,,,,,,,,,,,,,,,,,,,,,,,,,,,,,,,,,,,
,,"[""period""]",0,99,0,99,0,1,605a4838b40613218220a77a,25,Mężczyzna,2022-05-28_09h16.16.019,task,2021.1.4,Win32,61.42128862,628b806c463b948bc644b84f,6291cc0ea42da326304b6943,[0.4414000000059559],,,,,,,,,,,,,,,,,,,,,,,,,,,,,,,,,,,,,,,,,,,,,,,,,,,,,,,,,,,,,,,,,,,,,,,,,,,,,,,,,,,,,,,,,,,,,,,,,,,,,,,
,,"[""period""]",0,100,0,100,0,1,605a4838b40613218220a77a,25,Mężczyzna,2022-05-28_09h16.16.019,task,2021.1.4,Win32,61.42128862,628b806c463b948bc644b84f,6291cc0ea42da326304b6943,[0.31709999999407046],,,,,,,,,,,,,,,,,,,,,,,,,,,,,,,,,,,,,,,,,,,,,,,,,,,,,,,,,,,,,,,,,,,,,,,,,,,,,,,,,,,,,,,,,,,,,,,,,,,,,,,
,,"[""comma""]",0,101,0,101,0,1,605a4838b40613218220a77a,25,Mężczyzna,2022-05-28_09h16.16.019,task,2021.1.4,Win32,61.42128862,628b806c463b948bc644b84f,6291cc0ea42da326304b6943,[0.2725999999940427],,,,,,,,,,,,,,,,,,,,,,,,,,,,,,,,,,,,,,,,,,,,,,,,,,,,,,,,,,,,,,,,,,,,,,,,,,,,,,,,,,,,,,,,,,,,,,,,,,,,,,,
,,"[""period""]",0,102,0,102,0,1,605a4838b40613218220a77a,25,Mężczyzna,2022-05-28_09h16.16.019,task,2021.1.4,Win32,61.42128862,628b806c463b948bc644b84f,6291cc0ea42da326304b6943,[0.3040999999940368],,,,,,,,,,,,,,,,,,,,,,,,,,,,,,,,,,,,,,,,,,,,,,,,,,,,,,,,,,,,,,,,,,,,,,,,,,,,,,,,,,,,,,,,,,,,,,,,,,,,,,,
,,"[""comma""]",0,103,0,103,0,1,605a4838b40613218220a77a,25,Mężczyzna,2022-05-28_09h16.16.019,task,2021.1.4,Win32,61.42128862,628b806c463b948bc644b84f,6291cc0ea42da326304b6943,[0.21350000000001046],,,,,,,,,,,,,,,,,,,,,,,,,,,,,,,,,,,,,,,,,,,,,,,,,,,,,,,,,,,,,,,,,,,,,,,,,,,,,,,,,,,,,,,,,,,,,,,,,,,,,,,
,,"[""comma""]",0,104,0,104,0,1,605a4838b40613218220a77a,25,Mężczyzna,2022-05-28_09h16.16.019,task,2021.1.4,Win32,61.42128862,628b806c463b948bc644b84f,6291cc0ea42da326304b6943,[0.26109999999403044],,,,,,,,,,,,,,,,,,,,,,,,,,,,,,,,,,,,,,,,,,,,,,,,,,,,,,,,,,,,,,,,,,,,,,,,,,,,,,,,,,,,,,,,,,,,,,,,,,,,,,,
,,"[""comma""]",0,105,0,105,0,1,605a4838b40613218220a77a,25,Mężczyzna,2022-05-28_09h16.16.019,task,2021.1.4,Win32,61.42128862,628b806c463b948bc644b84f,6291cc0ea42da326304b6943,[0.1093000000118991],,,,,,,,,,,,,,,,,,,,,,,,,,,,,,,,,,,,,,,,,,,,,,,,,,,,,,,,,,,,,,,,,,,,,,,,,,,,,,,,,,,,,,,,,,,,,,,,,,,,,,,
,,"[""period""]",0,106,0,106,0,1,605a4838b40613218220a77a,25,Mężczyzna,2022-05-28_09h16.16.019,task,2021.1.4,Win32,61.42128862,628b806c463b948bc644b84f,6291cc0ea42da326304b6943,[0.25950000000000273],,,,,,,,,,,,,,,,,,,,,,,,,,,,,,,,,,,,,,,,,,,,,,,,,,,,,,,,,,,,,,,,,,,,,,,,,,,,,,,,,,,,,,,,,,,,,,,,,,,,,,,
,,"[""comma""]",0,107,0,107,0,1,605a4838b40613218220a77a,25,Mężczyzna,2022-05-28_09h16.16.019,task,2021.1.4,Win32,61.42128862,628b806c463b948bc644b84f,6291cc0ea42da326304b6943,[0.3073999999910484],,,,,,,,,,,,,,,,,,,,,,,,,,,,,,,,,,,,,,,,,,,,,,,,,,,,,,,,,,,,,,,,,,,,,,,,,,,,,,,,,,,,,,,,,,,,,,,,,,,,,,,
,,"[""period""]",0,108,0,108,0,1,605a4838b40613218220a77a,25,Mężczyzna,2022-05-28_09h16.16.019,task,2021.1.4,Win32,61.42128862,628b806c463b948bc644b84f,6291cc0ea42da326304b6943,[0.12160000000898208],,,,,,,,,,,,,,,,,,,,,,,,,,,,,,,,,,,,,,,,,,,,,,,,,,,,,,,,,,,,,,,,,,,,,,,,,,,,,,,,,,,,,,,,,,,,,,,,,,,,,,,
,,"[""comma""]",0,109,0,109,0,1,605a4838b40613218220a77a,25,Mężczyzna,2022-05-28_09h16.16.019,task,2021.1.4,Win32,61.42128862,628b806c463b948bc644b84f,6291cc0ea42da326304b6943,[0.0036999999880436008],,,,,,,,,,,,,,,,,,,,,,,,,,,,,,,,,,,,,,,,,,,,,,,,,,,,,,,,,,,,,,,,,,,,,,,,,,,,,,,,,,,,,,,,,,,,,,,,,,,,,,,
,,"[""period""]",0,110,0,110,0,1,605a4838b40613218220a77a,25,Mężczyzna,2022-05-28_09h16.16.019,task,2021.1.4,Win32,61.42128862,628b806c463b948bc644b84f,6291cc0ea42da326304b6943,[0.05939999999105794],,,,,,,,,,,,,,,,,,,,,,,,,,,,,,,,,,,,,,,,,,,,,,,,,,,,,,,,,,,,,,,,,,,,,,,,,,,,,,,,,,,,,,,,,,,,,,,,,,,,,,,
,,"[""comma""]",0,111,0,111,0,1,605a4838b40613218220a77a,25,Mężczyzna,2022-05-28_09h16.16.019,task,2021.1.4,Win32,61.42128862,628b806c463b948bc644b84f,6291cc0ea42da326304b6943,[0.12029999999703023],,,,,,,,,,,,,,,,,,,,,,,,,,,,,,,,,,,,,,,,,,,,,,,,,,,,,,,,,,,,,,,,,,,,,,,,,,,,,,,,,,,,,,,,,,,,,,,,,,,,,,,
,,"[""comma""]",0,112,0,112,0,1,605a4838b40613218220a77a,25,Mężczyzna,2022-05-28_09h16.16.019,task,2021.1.4,Win32,61.42128862,628b806c463b948bc644b84f,6291cc0ea42da326304b6943,[0.21629999999703386],,,,,,,,,,,,,,,,,,,,,,,,,,,,,,,,,,,,,,,,,,,,,,,,,,,,,,,,,,,,,,,,,,,,,,,,,,,,,,,,,,,,,,,,,,,,,,,,,,,,,,,
,,"[""period""]",0,113,0,113,0,1,605a4838b40613218220a77a,25,Mężczyzna,2022-05-28_09h16.16.019,task,2021.1.4,Win32,61.42128862,628b806c463b948bc644b84f,6291cc0ea42da326304b6943,[0.06659999999402544],,,,,,,,,,,,,,,,,,,,,,,,,,,,,,,,,,,,,,,,,,,,,,,,,,,,,,,,,,,,,,,,,,,,,,,,,,,,,,,,,,,,,,,,,,,,,,,,,,,,,,,
,,"[""comma""]",0,114,0,114,0,1,605a4838b40613218220a77a,25,Mężczyzna,2022-05-28_09h16.16.019,task,2021.1.4,Win32,61.42128862,628b806c463b948bc644b84f,6291cc0ea42da326304b6943,[0.2507000000029507],,,,,,,,,,,,,,,,,,,,,,,,,,,,,,,,,,,,,,,,,,,,,,,,,,,,,,,,,,,,,,,,,,,,,,,,,,,,,,,,,,,,,,,,,,,,,,,,,,,,,,,
,,"[""period""]",0,115,0,115,0,1,605a4838b40613218220a77a,25,Mężczyzna,2022-05-28_09h16.16.019,task,2021.1.4,Win32,61.42128862,628b806c463b948bc644b84f,6291cc0ea42da326304b6943,[0.26739999999108477],,,,,,,,,,,,,,,,,,,,,,,,,,,,,,,,,,,,,,,,,,,,,,,,,,,,,,,,,,,,,,,,,,,,,,,,,,,,,,,,,,,,,,,,,,,,,,,,,,,,,,,
,,"[""comma""]",0,116,0,116,0,1,605a4838b40613218220a77a,25,Mężczyzna,2022-05-28_09h16.16.019,task,2021.1.4,Win32,61.42128862,628b806c463b948bc644b84f,6291cc0ea42da326304b6943,[0.2754000000059591],,,,,,,,,,,,,,,,,,,,,,,,,,,,,,,,,,,,,,,,,,,,,,,,,,,,,,,,,,,,,,,,,,,,,,,,,,,,,,,,,,,,,,,,,,,,,,,,,,,,,,,
,,"[""comma""]",0,117,0,117,0,1,605a4838b40613218220a77a,25,Mężczyzna,2022-05-28_09h16.16.019,task,2021.1.4,Win32,61.42128862,628b806c463b948bc644b84f,6291cc0ea42da326304b6943,[0.28509999999403135],,,,,,,,,,,,,,,,,,,,,,,,,,,,,,,,,,,,,,,,,,,,,,,,,,,,,,,,,,,,,,,,,,,,,,,,,,,,,,,,,,,,,,,,,,,,,,,,,,,,,,,
,,"[""period""]",0,118,0,118,0,1,605a4838b40613218220a77a,25,Mężczyzna,2022-05-28_09h16.16.019,task,2021.1.4,Win32,61.42128862,628b806c463b948bc644b84f,6291cc0ea42da326304b6943,[0.2677000000029466],,,,,,,,,,,,,,,,,,,,,,,,,,,,,,,,,,,,,,,,,,,,,,,,,,,,,,,,,,,,,,,,,,,,,,,,,,,,,,,,,,,,,,,,,,,,,,,,,,,,,,,
,,"[""comma""]",0,119,0,119,0,1,605a4838b40613218220a77a,25,Mężczyzna,2022-05-28_09h16.16.019,task,2021.1.4,Win32,61.42128862,628b806c463b948bc644b84f,6291cc0ea42da326304b6943,[0.23380000001196777],,,,,,,,,,,,,,,,,,,,,,,,,,,,,,,,,,,,,,,,,,,,,,,,,,,,,,,,,,,,,,,,,,,,,,,,,,,,,,,,,,,,,,,,,,,,,,,,,,,,,,,
,,,,,,,,,605a4838b40613218220a77a,25,Mężczyzna,2022-05-28_09h16.16.019,task,2021.1.4,Win32,61.42128862,628b806c463b948bc644b84f,6291cc0ea42da326304b6943,,space,21.9475,space,5.8458,0,0,0,0,1,"X V Q F H G B L J M P D K C T S W R N Z
",,,,,,,,,,,,,,,,,,,,,,,,,,,,,,,,,,,,,,,,,,,,,,,,,,,,,,,,,,,,,,,,,,,,,,,,,,,,,,,,,,,,,,,,,,,,,
,,,,,,,,,605a4838b40613218220a77a,25,Mężczyzna,2022-05-28_09h16.16.019,task,2021.1.4,Win32,61.42128862,628b806c463b948bc644b84f,6291cc0ea42da326304b6943,,,,,,1,0,1,0,1,"X V Q F H G B L J M P D K C T S W R N Z
",,,,,,,,,,,,,,,,,,,,,,,,,,,,,,,,,,,,,,,,,,,,,,,,,,,,,,,,,,,,,,,,,,,,,,,,,,,,,,,,,,,,,,,,,,,,,
,,,,,,,,,605a4838b40613218220a77a,25,Mężczyzna,2022-05-28_09h16.16.019,task,2021.1.4,Win32,61.42128862,628b806c463b948bc644b84f,6291cc0ea42da326304b6943,,,,,,,,,,,,zq,"[""z"",""q""]","[2.386000000000024,2.858399999991093,3.806799999997054]",1,ZQ,0,0,0,0,1,,,,,,,,,,,,,,,,,,,,,,,,,,,,,,,,,,,,,,,,,,,,,,,,,,,,,,,,,,,,,,,,,,,,,,,,,,,,,,,,,,,
,,,,,,,,,605a4838b40613218220a77a,25,Mężczyzna,2022-05-28_09h16.16.019,task,2021.1.4,Win32,61.42128862,628b806c463b948bc644b84f,6291cc0ea42da326304b6943,,,,,,0,0,0,0,1,"X V Q F H G B L J M P D K C T S W R N Z
",,,,,,,,,,,,,,,,,,,,,,,,,,,,,,,,,,,,,,,,,,,,,,,,,,,,,,,,,,,,,,,,,,,,,,,,,,,,,,,,,,,,,,,,,,,,,
,,,,,,,,,605a4838b40613218220a77a,25,Mężczyzna,2022-05-28_09h16.16.019,task,2021.1.4,Win32,61.42128862,628b806c463b948bc644b84f,6291cc0ea42da326304b6943,,,,,,1,0,1,0,1,"X V Q F H G B L J M P D K C T S W R N Z
",,,,,,,,,,,,,,,,,,,,,,,,,,,,,,,,,,,,,,,,,,,,,,,,,,,,,,,,,,,,,,,,,,,,,,,,,,,,,,,,,,,,,,,,,,,,,
,,,,,,,,,605a4838b40613218220a77a,25,Mężczyzna,2022-05-28_09h16.16.019,task,2021.1.4,Win32,61.42128862,628b806c463b948bc644b84f,6291cc0ea42da326304b6943,,,,,,,,,,,,rd,"[""r"",""d""]","[1.4577999999970075,1.8669000000059555,2.7969000000059623]",1,RD,1,0,1,0,1,,,,,,,,,,,,,,,,,,,,,,,,,,,,,,,,,,,,,,,,,,,,,,,,,,,,,,,,,,,,,,,,,,,,,,,,,,,,,,,,,,,
,,,,,,,,,605a4838b40613218220a77a,25,Mężczyzna,2022-05-28_09h16.16.019,task,2021.1.4,Win32,61.42128862,628b806c463b948bc644b84f,6291cc0ea42da326304b6943,,,,,,0,0,0,0,1,"X V Q F H G B L J M P D K C T S W R N Z
",,,,,,,,,,,,,,,,,,,,,,,,,,,,,,,,,,,,,,,,,,,,,,,,,,,,,,,,,,,,,,,,,,,,,,,,,,,,,,,,,,,,,,,,,,,,,
,,,,,,,,,605a4838b40613218220a77a,25,Mężczyzna,2022-05-28_09h16.16.019,task,2021.1.4,Win32,61.42128862,628b806c463b948bc644b84f,6291cc0ea42da326304b6943,,,,,,1,0,1,0,1,"X V Q F H G B L J M P D K C T S W R N Z
",,,,,,,,,,,,,,,,,,,,,,,,,,,,,,,,,,,,,,,,,,,,,,,,,,,,,,,,,,,,,,,,,,,,,,,,,,,,,,,,,,,,,,,,,,,,,
,,,,,,,,,605a4838b40613218220a77a,25,Mężczyzna,2022-05-28_09h16.16.019,task,2021.1.4,Win32,61.42128862,628b806c463b948bc644b84f,6291cc0ea42da326304b6943,,,,,,2,0,2,0,1,"X V Q F H G B L J M P D K C T S W R N Z
",,,,,,,,,,,,,,,,,,,,,,,,,,,,,,,,,,,,,,,,,,,,,,,,,,,,,,,,,,,,,,,,,,,,,,,,,,,,,,,,,,,,,,,,,,,,,
,,,,,,,,,605a4838b40613218220a77a,25,Mężczyzna,2022-05-28_09h16.16.019,task,2021.1.4,Win32,61.42128862,628b806c463b948bc644b84f,6291cc0ea42da326304b6943,,,,,,,,,,,,hsj,"[""h"",""s"",""j""]","[1.260499999999979,1.65859999999401,1.933999999999969,3.066799999996988]",1,HSJ,2,0,2,0,1,,,,,,,,,,,,,,,,,,,,,,,,,,,,,,,,,,,,,,,,,,,,,,,,,,,,,,,,,,,,,,,,,,,,,,,,,,,,,,,,,,,
,,,,,,,,,605a4838b40613218220a77a,25,Mężczyzna,2022-05-28_09h16.16.019,task,2021.1.4,Win32,61.42128862,628b806c463b948bc644b84f,6291cc0ea42da326304b6943,,,,,,0,0,0,0,1,"X V Q F H G B L J M P D K C T S W R N Z
",,,,,,,,,,,,,,,,,,,,,,,,,,,,,,,,,,,,,,,,,,,,,,,,,,,,,,,,,,,,,,,,,,,,,,,,,,,,,,,,,,,,,,,,,,,,,
,,,,,,,,,605a4838b40613218220a77a,25,Mężczyzna,2022-05-28_09h16.16.019,task,2021.1.4,Win32,61.42128862,628b806c463b948bc644b84f,6291cc0ea42da326304b6943,,,,,,1,0,1,0,1,"X V Q F H G B L J M P D K C T S W R N Z
",,,,,,,,,,,,,,,,,,,,,,,,,,,,,,,,,,,,,,,,,,,,,,,,,,,,,,,,,,,,,,,,,,,,,,,,,,,,,,,,,,,,,,,,,,,,,
,,,,,,,,,605a4838b40613218220a77a,25,Mężczyzna,2022-05-28_09h16.16.019,task,2021.1.4,Win32,61.42128862,628b806c463b948bc644b84f,6291cc0ea42da326304b6943,,,,,,2,0,2,0,1,"X V Q F H G B L J M P D K C T S W R N Z
",,,,,,,,,,,,,,,,,,,,,,,,,,,,,,,,,,,,,,,,,,,,,,,,,,,,,,,,,,,,,,,,,,,,,,,,,,,,,,,,,,,,,,,,,,,,,
,,,,,,,,,605a4838b40613218220a77a,25,Mężczyzna,2022-05-28_09h16.16.019,task,2021.1.4,Win32,61.42128862,628b806c463b948bc644b84f,6291cc0ea42da326304b6943,,,,,,,,,,,,dlz,"[""d"",""l"",""z""]","[1.3795999999940136,1.7235000000000014,1.9507999999970025,2.677000000000021]",0,"DLZ
",3,0,3,0,1,,,,,,,,,,,,,,,,,,,,,,,,,,,,,,,,,,,,,,,,,,,,,,,,,,,,,,,,,,,,,,,,,,,,,,,,,,,,,,,,,,,
,,,,,,,,,605a4838b40613218220a77a,25,Mężczyzna,2022-05-28_09h16.16.019,task,2021.1.4,Win32,61.42128862,628b806c463b948bc644b84f,6291cc0ea42da326304b6943,,,,,,0,0,0,0,1,"X V Q F H G B L J M P D K C T S W R N Z
",,,,,,,,,,,,,,,,,,,,,,,,,,,,,,,,,,,,,,,,,,,,,,,,,,,,,,,,,,,,,,,,,,,,,,,,,,,,,,,,,,,,,,,,,,,,,
,,,,,,,,,605a4838b40613218220a77a,25,Mężczyzna,2022-05-28_09h16.16.019,task,2021.1.4,Win32,61.42128862,628b806c463b948bc644b84f,6291cc0ea42da326304b6943,,,,,,1,0,1,0,1,"X V Q F H G B L J M P D K C T S W R N Z
",,,,,,,,,,,,,,,,,,,,,,,,,,,,,,,,,,,,,,,,,,,,,,,,,,,,,,,,,,,,,,,,,,,,,,,,,,,,,,,,,,,,,,,,,,,,,
,,,,,,,,,605a4838b40613218220a77a,25,Mężczyzna,2022-05-28_09h16.16.019,task,2021.1.4,Win32,61.42128862,628b806c463b948bc644b84f,6291cc0ea42da326304b6943,,,,,,2,0,2,0,1,"X V Q F H G B L J M P D K C T S W R N Z
",,,,,,,,,,,,,,,,,,,,,,,,,,,,,,,,,,,,,,,,,,,,,,,,,,,,,,,,,,,,,,,,,,,,,,,,,,,,,,,,,,,,,,,,,,,,,
,,,,,,,,,605a4838b40613218220a77a,25,Mężczyzna,2022-05-28_09h16.16.019,task,2021.1.4,Win32,61.42128862,628b806c463b948bc644b84f,6291cc0ea42da326304b6943,,,,,,,,,,,,snj,"[""s"",""n"",""j""]","[1.3867000000029748,1.6300999999940586,1.8765999999940277,2.463299999996991]",1,SNJ,4,0,4,0,1,,,,,,,,,,,,,,,,,,,,,,,,,,,,,,,,,,,,,,,,,,,,,,,,,,,,,,,,,,,,,,,,,,,,,,,,,,,,,,,,,,,
,,,,,,,,,605a4838b40613218220a77a,25,Mężczyzna,2022-05-28_09h16.16.019,task,2021.1.4,Win32,61.42128862,628b806c463b948bc644b84f,6291cc0ea42da326304b6943,,,,,,0,0,0,0,1,"X V Q F H G B L J M P D K C T S W R N Z
",,,,,,,,,,,,,,,,,,,,,,,,,,,,,,,,,,,,,,,,,,,,,,,,,,,,,,,,,,,,,,,,,,,,,,,,,,,,,,,,,,,,,,,,,,,,,
,,,,,,,,,605a4838b40613218220a77a,25,Mężczyzna,2022-05-28_09h16.16.019,task,2021.1.4,Win32,61.42128862,628b806c463b948bc644b84f,6291cc0ea42da326304b6943,,,,,,1,0,1,0,1,"X V Q F H G B L J M P D K C T S W R N Z
",,,,,,,,,,,,,,,,,,,,,,,,,,,,,,,,,,,,,,,,,,,,,,,,,,,,,,,,,,,,,,,,,,,,,,,,,,,,,,,,,,,,,,,,,,,,,
,,,,,,,,,605a4838b40613218220a77a,25,Mężczyzna,2022-05-28_09h16.16.019,task,2021.1.4,Win32,61.42128862,628b806c463b948bc644b84f,6291cc0ea42da326304b6943,,,,,,2,0,2,0,1,"X V Q F H G B L J M P D K C T S W R N Z
",,,,,,,,,,,,,,,,,,,,,,,,,,,,,,,,,,,,,,,,,,,,,,,,,,,,,,,,,,,,,,,,,,,,,,,,,,,,,,,,,,,,,,,,,,,,,
,,,,,,,,,605a4838b40613218220a77a,25,Mężczyzna,2022-05-28_09h16.16.019,task,2021.1.4,Win32,61.42128862,628b806c463b948bc644b84f,6291cc0ea42da326304b6943,,,,,,3,0,3,0,1,"X V Q F H G B L J M P D K C T S W R N Z
",,,,,,,,,,,,,,,,,,,,,,,,,,,,,,,,,,,,,,,,,,,,,,,,,,,,,,,,,,,,,,,,,,,,,,,,,,,,,,,,,,,,,,,,,,,,,
,,,,,,,,,605a4838b40613218220a77a,25,Mężczyzna,2022-05-28_09h16.16.019,task,2021.1.4,Win32,61.42128862,628b806c463b948bc644b84f,6291cc0ea42da326304b6943,,,,,,,,,,,,zqcs,"[""z"",""q"",""c"",""s""]","[0.8187000000029911,1.1497999999970148,1.490799999997023,1.747000000000014,2.3829999999999814]",0,"Z
QCS",5,0,5,0,1,,,,,,,,,,,,,,,,,,,,,,,,,,,,,,,,,,,,,,,,,,,,,,,,,,,,,,,,,,,,,,,,,,,,,,,,,,,,,,,,,,,
,,,,,,,,,605a4838b40613218220a77a,25,Mężczyzna,2022-05-28_09h16.16.019,task,2021.1.4,Win32,61.42128862,628b806c463b948bc644b84f,6291cc0ea42da326304b6943,,,,,,0,0,0,0,1,"X V Q F H G B L J M P D K C T S W R N Z
",,,,,,,,,,,,,,,,,,,,,,,,,,,,,,,,,,,,,,,,,,,,,,,,,,,,,,,,,,,,,,,,,,,,,,,,,,,,,,,,,,,,,,,,,,,,,
,,,,,,,,,605a4838b40613218220a77a,25,Mężczyzna,2022-05-28_09h16.16.019,task,2021.1.4,Win32,61.42128862,628b806c463b948bc644b84f,6291cc0ea42da326304b6943,,,,,,1,0,1,0,1,"X V Q F H G B L J M P D K C T S W R N Z
",,,,,,,,,,,,,,,,,,,,,,,,,,,,,,,,,,,,,,,,,,,,,,,,,,,,,,,,,,,,,,,,,,,,,,,,,,,,,,,,,,,,,,,,,,,,,
,,,,,,,,,605a4838b40613218220a77a,25,Mężczyzna,2022-05-28_09h16.16.019,task,2021.1.4,Win32,61.42128862,628b806c463b948bc644b84f,6291cc0ea42da326304b6943,,,,,,2,0,2,0,1,"X V Q F H G B L J M P D K C T S W R N Z
",,,,,,,,,,,,,,,,,,,,,,,,,,,,,,,,,,,,,,,,,,,,,,,,,,,,,,,,,,,,,,,,,,,,,,,,,,,,,,,,,,,,,,,,,,,,,
,,,,,,,,,605a4838b40613218220a77a,25,Mężczyzna,2022-05-28_09h16.16.019,task,2021.1.4,Win32,61.42128862,628b806c463b948bc644b84f,6291cc0ea42da326304b6943,,,,,,3,0,3,0,1,"X V Q F H G B L J M P D K C T S W R N Z
",,,,,,,,,,,,,,,,,,,,,,,,,,,,,,,,,,,,,,,,,,,,,,,,,,,,,,,,,,,,,,,,,,,,,,,,,,,,,,,,,,,,,,,,,,,,,
,,,,,,,,,605a4838b40613218220a77a,25,Mężczyzna,2022-05-28_09h16.16.019,task,2021.1.4,Win32,61.42128862,628b806c463b948bc644b84f,6291cc0ea42da326304b6943,,,,,,,,,,,,gcvs,"[""g"",""c"",""v"",""s""]","[1.4499000000059254,1.8111000000089348,2.050800000011918,2.2673000000119146,2.98030000001188]",1,GCVS,6,0,6,0,1,,,,,,,,,,,,,,,,,,,,,,,,,,,,,,,,,,,,,,,,,,,,,,,,,,,,,,,,,,,,,,,,,,,,,,,,,,,,,,,,,,,
,,,,,,,,,605a4838b40613218220a77a,25,Mężczyzna,2022-05-28_09h16.16.019,task,2021.1.4,Win32,61.42128862,628b806c463b948bc644b84f,6291cc0ea42da326304b6943,,,,,,0,0,0,0,1,"X V Q F H G B L J M P D K C T S W R N Z
",,,,,,,,,,,,,,,,,,,,,,,,,,,,,,,,,,,,,,,,,,,,,,,,,,,,,,,,,,,,,,,,,,,,,,,,,,,,,,,,,,,,,,,,,,,,,
,,,,,,,,,605a4838b40613218220a77a,25,Mężczyzna,2022-05-28_09h16.16.019,task,2021.1.4,Win32,61.42128862,628b806c463b948bc644b84f,6291cc0ea42da326304b6943,,,,,,1,0,1,0,1,"X V Q F H G B L J M P D K C T S W R N Z
",,,,,,,,,,,,,,,,,,,,,,,,,,,,,,,,,,,,,,,,,,,,,,,,,,,,,,,,,,,,,,,,,,,,,,,,,,,,,,,,,,,,,,,,,,,,,
,,,,,,,,,605a4838b40613218220a77a,25,Mężczyzna,2022-05-28_09h16.16.019,task,2021.1.4,Win32,61.42128862,628b806c463b948bc644b84f,6291cc0ea42da326304b6943,,,,,,2,0,2,0,1,"X V Q F H G B L J M P D K C T S W R N Z
",,,,,,,,,,,,,,,,,,,,,,,,,,,,,,,,,,,,,,,,,,,,,,,,,,,,,,,,,,,,,,,,,,,,,,,,,,,,,,,,,,,,,,,,,,,,,
,,,,,,,,,605a4838b40613218220a77a,25,Mężczyzna,2022-05-28_09h16.16.019,task,2021.1.4,Win32,61.42128862,628b806c463b948bc644b84f,6291cc0ea42da326304b6943,,,,,,3,0,3,0,1,"X V Q F H G B L J M P D K C T S W R N Z
",,,,,,,,,,,,,,,,,,,,,,,,,,,,,,,,,,,,,,,,,,,,,,,,,,,,,,,,,,,,,,,,,,,,,,,,,,,,,,,,,,,,,,,,,,,,,
,,,,,,,,,605a4838b40613218220a77a,25,Mężczyzna,2022-05-28_09h16.16.019,task,2021.1.4,Win32,61.42128862,628b806c463b948bc644b84f,6291cc0ea42da326304b6943,,,,,,,,,,,,jbrn,"[""j"",""b"",""r"",""n""]","[1.4177000000029807,1.7569000000059418,2.0671000000089634,2.2437000000030025,2.8677000000029693]",1,JBRN,7,0,7,0,1,,,,,,,,,,,,,,,,,,,,,,,,,,,,,,,,,,,,,,,,,,,,,,,,,,,,,,,,,,,,,,,,,,,,,,,,,,,,,,,,,,,
,,,,,,,,,605a4838b40613218220a77a,25,Mężczyzna,2022-05-28_09h16.16.019,task,2021.1.4,Win32,61.42128862,628b806c463b948bc644b84f,6291cc0ea42da326304b6943,,,,,,0,0,0,0,1,"X V Q F H G B L J M P D K C T S W R N Z
",,,,,,,,,,,,,,,,,,,,,,,,,,,,,,,,,,,,,,,,,,,,,,,,,,,,,,,,,,,,,,,,,,,,,,,,,,,,,,,,,,,,,,,,,,,,,
,,,,,,,,,605a4838b40613218220a77a,25,Mężczyzna,2022-05-28_09h16.16.019,task,2021.1.4,Win32,61.42128862,628b806c463b948bc644b84f,6291cc0ea42da326304b6943,,,,,,1,0,1,0,1,"X V Q F H G B L J M P D K C T S W R N Z
",,,,,,,,,,,,,,,,,,,,,,,,,,,,,,,,,,,,,,,,,,,,,,,,,,,,,,,,,,,,,,,,,,,,,,,,,,,,,,,,,,,,,,,,,,,,,
,,,,,,,,,605a4838b40613218220a77a,25,Mężczyzna,2022-05-28_09h16.16.019,task,2021.1.4,Win32,61.42128862,628b806c463b948bc644b84f,6291cc0ea42da326304b6943,,,,,,2,0,2,0,1,"X V Q F H G B L J M P D K C T S W R N Z
",,,,,,,,,,,,,,,,,,,,,,,,,,,,,,,,,,,,,,,,,,,,,,,,,,,,,,,,,,,,,,,,,,,,,,,,,,,,,,,,,,,,,,,,,,,,,
,,,,,,,,,605a4838b40613218220a77a,25,Mężczyzna,2022-05-28_09h16.16.019,task,2021.1.4,Win32,61.42128862,628b806c463b948bc644b84f,6291cc0ea42da326304b6943,,,,,,3,0,3,0,1,"X V Q F H G B L J M P D K C T S W R N Z
",,,,,,,,,,,,,,,,,,,,,,,,,,,,,,,,,,,,,,,,,,,,,,,,,,,,,,,,,,,,,,,,,,,,,,,,,,,,,,,,,,,,,,,,,,,,,
,,,,,,,,,605a4838b40613218220a77a,25,Mężczyzna,2022-05-28_09h16.16.019,task,2021.1.4,Win32,61.42128862,628b806c463b948bc644b84f,6291cc0ea42da326304b6943,,,,,,4,0,4,0,1,"X V Q F H G B L J M P D K C T S W R N Z
",,,,,,,,,,,,,,,,,,,,,,,,,,,,,,,,,,,,,,,,,,,,,,,,,,,,,,,,,,,,,,,,,,,,,,,,,,,,,,,,,,,,,,,,,,,,,
,,,,,,,,,605a4838b40613218220a77a,25,Mężczyzna,2022-05-28_09h16.16.019,task,2021.1.4,Win32,61.42128862,628b806c463b948bc644b84f,6291cc0ea42da326304b6943,,,,,,,,,,,,wrjct,"[""w"",""r"",""j"",""c"",""t""]","[1.117099999994025,1.7665000000000077,3.0190000000000055,3.6166999999881,3.8096999999880836,4.569000000000017]",1,WRJCT,8,0,8,0,1,,,,,,,,,,,,,,,,,,,,,,,,,,,,,,,,,,,,,,,,,,,,,,,,,,,,,,,,,,,,,,,,,,,,,,,,,,,,,,,,,,,
,,,,,,,,,605a4838b40613218220a77a,25,Mężczyzna,2022-05-28_09h16.16.019,task,2021.1.4,Win32,61.42128862,628b806c463b948bc644b84f,6291cc0ea42da326304b6943,,,,,,0,0,0,0,1,"X V Q F H G B L J M P D K C T S W R N Z
",,,,,,,,,,,,,,,,,,,,,,,,,,,,,,,,,,,,,,,,,,,,,,,,,,,,,,,,,,,,,,,,,,,,,,,,,,,,,,,,,,,,,,,,,,,,,
,,,,,,,,,605a4838b40613218220a77a,25,Mężczyzna,2022-05-28_09h16.16.019,task,2021.1.4,Win32,61.42128862,628b806c463b948bc644b84f,6291cc0ea42da326304b6943,,,,,,1,0,1,0,1,"X V Q F H G B L J M P D K C T S W R N Z
",,,,,,,,,,,,,,,,,,,,,,,,,,,,,,,,,,,,,,,,,,,,,,,,,,,,,,,,,,,,,,,,,,,,,,,,,,,,,,,,,,,,,,,,,,,,,
,,,,,,,,,605a4838b40613218220a77a,25,Mężczyzna,2022-05-28_09h16.16.019,task,2021.1.4,Win32,61.42128862,628b806c463b948bc644b84f,6291cc0ea42da326304b6943,,,,,,2,0,2,0,1,"X V Q F H G B L J M P D K C T S W R N Z
",,,,,,,,,,,,,,,,,,,,,,,,,,,,,,,,,,,,,,,,,,,,,,,,,,,,,,,,,,,,,,,,,,,,,,,,,,,,,,,,,,,,,,,,,,,,,
,,,,,,,,,605a4838b40613218220a77a,25,Mężczyzna,2022-05-28_09h16.16.019,task,2021.1.4,Win32,61.42128862,628b806c463b948bc644b84f,6291cc0ea42da326304b6943,,,,,,3,0,3,0,1,"X V Q F H G B L J M P D K C T S W R N Z
",,,,,,,,,,,,,,,,,,,,,,,,,,,,,,,,,,,,,,,,,,,,,,,,,,,,,,,,,,,,,,,,,,,,,,,,,,,,,,,,,,,,,,,,,,,,,
,,,,,,,,,605a4838b40613218220a77a,25,Mężczyzna,2022-05-28_09h16.16.019,task,2021.1.4,Win32,61.42128862,628b806c463b948bc644b84f,6291cc0ea42da326304b6943,,,,,,4,0,4,0,1,"X V Q F H G B L J M P D K C T S W R N Z
",,,,,,,,,,,,,,,,,,,,,,,,,,,,,,,,,,,,,,,,,,,,,,,,,,,,,,,,,,,,,,,,,,,,,,,,,,,,,,,,,,,,,,,,,,,,,
,,,,,,,,,605a4838b40613218220a77a,25,Mężczyzna,2022-05-28_09h16.16.019,task,2021.1.4,Win32,61.42128862,628b806c463b948bc644b84f,6291cc0ea42da326304b6943,,,,,,,,,,,,jdjth,"[""j"",""d"",""j"",""t"",""h""]","[1.1995000000000005,1.5699999999999932,1.7886000000088984,1.9947000000029789,2.173999999999978,2.942300000011926]",1,JDJTH,9,0,9,0,1,,,,,,,,,,,,,,,,,,,,,,,,,,,,,,,,,,,,,,,,,,,,,,,,,,,,,,,,,,,,,,,,,,,,,,,,,,,,,,,,,,,
,,,,,,,,,605a4838b40613218220a77a,25,Mężczyzna,2022-05-28_09h16.16.019,task,2021.1.4,Win32,61.42128862,628b806c463b948bc644b84f,6291cc0ea42da326304b6943,,,,,,0,0,0,0,1,"X V Q F H G B L J M P D K C T S W R N Z
",,,,,,,,,,,,,,,,,,,,,,,,,,,,,,,,,,,,,,,,,,,,,,,,,,,,,,,,,,,,,,,,,,,,,,,,,,,,,,,,,,,,,,,,,,,,,
,,,,,,,,,605a4838b40613218220a77a,25,Mężczyzna,2022-05-28_09h16.16.019,task,2021.1.4,Win32,61.42128862,628b806c463b948bc644b84f,6291cc0ea42da326304b6943,,,,,,1,0,1,0,1,"X V Q F H G B L J M P D K C T S W R N Z
",,,,,,,,,,,,,,,,,,,,,,,,,,,,,,,,,,,,,,,,,,,,,,,,,,,,,,,,,,,,,,,,,,,,,,,,,,,,,,,,,,,,,,,,,,,,,
,,,,,,,,,605a4838b40613218220a77a,25,Mężczyzna,2022-05-28_09h16.16.019,task,2021.1.4,Win32,61.42128862,628b806c463b948bc644b84f,6291cc0ea42da326304b6943,,,,,,2,0,2,0,1,"X V Q F H G B L J M P D K C T S W R N Z
",,,,,,,,,,,,,,,,,,,,,,,,,,,,,,,,,,,,,,,,,,,,,,,,,,,,,,,,,,,,,,,,,,,,,,,,,,,,,,,,,,,,,,,,,,,,,
,,,,,,,,,605a4838b40613218220a77a,25,Mężczyzna,2022-05-28_09h16.16.019,task,2021.1.4,Win32,61.42128862,628b806c463b948bc644b84f,6291cc0ea42da326304b6943,,,,,,3,0,3,0,1,"X V Q F H G B L J M P D K C T S W R N Z
",,,,,,,,,,,,,,,,,,,,,,,,,,,,,,,,,,,,,,,,,,,,,,,,,,,,,,,,,,,,,,,,,,,,,,,,,,,,,,,,,,,,,,,,,,,,,
,,,,,,,,,605a4838b40613218220a77a,25,Mężczyzna,2022-05-28_09h16.16.019,task,2021.1.4,Win32,61.42128862,628b806c463b948bc644b84f,6291cc0ea42da326304b6943,,,,,,4,0,4,0,1,"X V Q F H G B L J M P D K C T S W R N Z
",,,,,,,,,,,,,,,,,,,,,,,,,,,,,,,,,,,,,,,,,,,,,,,,,,,,,,,,,,,,,,,,,,,,,,,,,,,,,,,,,,,,,,,,,,,,,
,,,,,,,,,605a4838b40613218220a77a,25,Mężczyzna,2022-05-28_09h16.16.019,task,2021.1.4,Win32,61.42128862,628b806c463b948bc644b84f,6291cc0ea42da326304b6943,,,,,,5,0,5,0,1,"X V Q F H G B L J M P D K C T S W R N Z
",,,,,,,,,,,,,,,,,,,,,,,,,,,,,,,,,,,,,,,,,,,,,,,,,,,,,,,,,,,,,,,,,,,,,,,,,,,,,,,,,,,,,,,,,,,,,
,,,,,,,,,605a4838b40613218220a77a,25,Mężczyzna,2022-05-28_09h16.16.019,task,2021.1.4,Win32,61.42128862,628b806c463b948bc644b84f,6291cc0ea42da326304b6943,,,,,,,,,,,,xmxhnm,"[""x"",""m"",""x"",""h"",""n"",""m""]","[1.4449999999999932,2.37679999999699,2.676099999994051,3.0277000000029943,3.566900000005944,3.7832999999969843,4.352400000005957]",1,XMXHNM,10,0,10,0,1,,,,,,,,,,,,,,,,,,,,,,,,,,,,,,,,,,,,,,,,,,,,,,,,,,,,,,,,,,,,,,,,,,,,,,,,,,,,,,,,,,,
,,,,,,,,,605a4838b40613218220a77a,25,Mężczyzna,2022-05-28_09h16.16.019,task,2021.1.4,Win32,61.42128862,628b806c463b948bc644b84f,6291cc0ea42da326304b6943,,,,,,0,0,0,0,1,"X V Q F H G B L J M P D K C T S W R N Z
",,,,,,,,,,,,,,,,,,,,,,,,,,,,,,,,,,,,,,,,,,,,,,,,,,,,,,,,,,,,,,,,,,,,,,,,,,,,,,,,,,,,,,,,,,,,,
,,,,,,,,,605a4838b40613218220a77a,25,Mężczyzna,2022-05-28_09h16.16.019,task,2021.1.4,Win32,61.42128862,628b806c463b948bc644b84f,6291cc0ea42da326304b6943,,,,,,1,0,1,0,1,"X V Q F H G B L J M P D K C T S W R N Z
",,,,,,,,,,,,,,,,,,,,,,,,,,,,,,,,,,,,,,,,,,,,,,,,,,,,,,,,,,,,,,,,,,,,,,,,,,,,,,,,,,,,,,,,,,,,,
,,,,,,,,,605a4838b40613218220a77a,25,Mężczyzna,2022-05-28_09h16.16.019,task,2021.1.4,Win32,61.42128862,628b806c463b948bc644b84f,6291cc0ea42da326304b6943,,,,,,2,0,2,0,1,"X V Q F H G B L J M P D K C T S W R N Z
",,,,,,,,,,,,,,,,,,,,,,,,,,,,,,,,,,,,,,,,,,,,,,,,,,,,,,,,,,,,,,,,,,,,,,,,,,,,,,,,,,,,,,,,,,,,,
,,,,,,,,,605a4838b40613218220a77a,25,Mężczyzna,2022-05-28_09h16.16.019,task,2021.1.4,Win32,61.42128862,628b806c463b948bc644b84f,6291cc0ea42da326304b6943,,,,,,3,0,3,0,1,"X V Q F H G B L J M P D K C T S W R N Z
",,,,,,,,,,,,,,,,,,,,,,,,,,,,,,,,,,,,,,,,,,,,,,,,,,,,,,,,,,,,,,,,,,,,,,,,,,,,,,,,,,,,,,,,,,,,,
,,,,,,,,,605a4838b40613218220a77a,25,Mężczyzna,2022-05-28_09h16.16.019,task,2021.1.4,Win32,61.42128862,628b806c463b948bc644b84f,6291cc0ea42da326304b6943,,,,,,4,0,4,0,1,"X V Q F H G B L J M P D K C T S W R N Z
",,,,,,,,,,,,,,,,,,,,,,,,,,,,,,,,,,,,,,,,,,,,,,,,,,,,,,,,,,,,,,,,,,,,,,,,,,,,,,,,,,,,,,,,,,,,,
,,,,,,,,,605a4838b40613218220a77a,25,Mężczyzna,2022-05-28_09h16.16.019,task,2021.1.4,Win32,61.42128862,628b806c463b948bc644b84f,6291cc0ea42da326304b6943,,,,,,5,0,5,0,1,"X V Q F H G B L J M P D K C T S W R N Z
",,,,,,,,,,,,,,,,,,,,,,,,,,,,,,,,,,,,,,,,,,,,,,,,,,,,,,,,,,,,,,,,,,,,,,,,,,,,,,,,,,,,,,,,,,,,,
,,,,,,,,,605a4838b40613218220a77a,25,Mężczyzna,2022-05-28_09h16.16.019,task,2021.1.4,Win32,61.42128862,628b806c463b948bc644b84f,6291cc0ea42da326304b6943,,,,,,,,,,,,gwjvnm,"[""g"",""w"",""j"",""v"",""n"",""m""]","[1.4025999999940382,6.110900000005984,6.43570000000301,6.976200000002962,7.221900000005974,7.432000000000016,7.882000000000005]",0,GWJVNT,11,0,11,0,1,,,,,,,,,,,,,,,,,,,,,,,,,,,,,,,,,,,,,,,,,,,,,,,,,,,,,,,,,,,,,,,,,,,,,,,,,,,,,,,,,,,
,,,,,,,,,605a4838b40613218220a77a,25,Mężczyzna,2022-05-28_09h16.16.019,task,2021.1.4,Win32,61.42128862,628b806c463b948bc644b84f,6291cc0ea42da326304b6943,,,,,,0,0,0,0,1,"X V Q F H G B L J M P D K C T S W R N Z
",,,,,,,,,,,,,,,,,,,,,,,,,,,,,,,,,,,,,,,,,,,,,,,,,,,,,,,,,,,,,,,,,,,,,,,,,,,,,,,,,,,,,,,,,,,,,
,,,,,,,,,605a4838b40613218220a77a,25,Mężczyzna,2022-05-28_09h16.16.019,task,2021.1.4,Win32,61.42128862,628b806c463b948bc644b84f,6291cc0ea42da326304b6943,,,,,,1,0,1,0,1,"X V Q F H G B L J M P D K C T S W R N Z
",,,,,,,,,,,,,,,,,,,,,,,,,,,,,,,,,,,,,,,,,,,,,,,,,,,,,,,,,,,,,,,,,,,,,,,,,,,,,,,,,,,,,,,,,,,,,
,,,,,,,,,605a4838b40613218220a77a,25,Mężczyzna,2022-05-28_09h16.16.019,task,2021.1.4,Win32,61.42128862,628b806c463b948bc644b84f,6291cc0ea42da326304b6943,,,,,,2,0,2,0,1,"X V Q F H G B L J M P D K C T S W R N Z
",,,,,,,,,,,,,,,,,,,,,,,,,,,,,,,,,,,,,,,,,,,,,,,,,,,,,,,,,,,,,,,,,,,,,,,,,,,,,,,,,,,,,,,,,,,,,
,,,,,,,,,605a4838b40613218220a77a,25,Mężczyzna,2022-05-28_09h16.16.019,task,2021.1.4,Win32,61.42128862,628b806c463b948bc644b84f,6291cc0ea42da326304b6943,,,,,,3,0,3,0,1,"X V Q F H G B L J M P D K C T S W R N Z
",,,,,,,,,,,,,,,,,,,,,,,,,,,,,,,,,,,,,,,,,,,,,,,,,,,,,,,,,,,,,,,,,,,,,,,,,,,,,,,,,,,,,,,,,,,,,
,,,,,,,,,605a4838b40613218220a77a,25,Mężczyzna,2022-05-28_09h16.16.019,task,2021.1.4,Win32,61.42128862,628b806c463b948bc644b84f,6291cc0ea42da326304b6943,,,,,,4,0,4,0,1,"X V Q F H G B L J M P D K C T S W R N Z
",,,,,,,,,,,,,,,,,,,,,,,,,,,,,,,,,,,,,,,,,,,,,,,,,,,,,,,,,,,,,,,,,,,,,,,,,,,,,,,,,,,,,,,,,,,,,
,,,,,,,,,605a4838b40613218220a77a,25,Mężczyzna,2022-05-28_09h16.16.019,task,2021.1.4,Win32,61.42128862,628b806c463b948bc644b84f,6291cc0ea42da326304b6943,,,,,,5,0,5,0,1,"X V Q F H G B L J M P D K C T S W R N Z
",,,,,,,,,,,,,,,,,,,,,,,,,,,,,,,,,,,,,,,,,,,,,,,,,,,,,,,,,,,,,,,,,,,,,,,,,,,,,,,,,,,,,,,,,,,,,
,,,,,,,,,605a4838b40613218220a77a,25,Mężczyzna,2022-05-28_09h16.16.019,task,2021.1.4,Win32,61.42128862,628b806c463b948bc644b84f,6291cc0ea42da326304b6943,,,,,,,,,,,,gjrnfss,"[""g"",""j"",""r"",""n"",""f"",""s"",""s""]","[1.449800000011919,2.4294000000059555,2.9496000000089566,3.911400000005983,4.205200000003003,4.516500000000008,4.736600000008934,5.032500000000027]",0,GNRFSS,12,0,12,0,1,,,,,,,,,,,,,,,,,,,,,,,,,,,,,,,,,,,,,,,,,,,,,,,,,,,,,,,,,,,,,,,,,,,,,,,,,,,,,,,,,,,
,,,,,,,,,605a4838b40613218220a77a,25,Mężczyzna,2022-05-28_09h16.16.019,task,2021.1.4,Win32,61.42128862,628b806c463b948bc644b84f,6291cc0ea42da326304b6943,,,,,,0,0,0,0,1,"X V Q F H G B L J M P D K C T S W R N Z
",,,,,,,,,,,,,,,,,,,,,,,,,,,,,,,,,,,,,,,,,,,,,,,,,,,,,,,,,,,,,,,,,,,,,,,,,,,,,,,,,,,,,,,,,,,,,
,,,,,,,,,605a4838b40613218220a77a,25,Mężczyzna,2022-05-28_09h16.16.019,task,2021.1.4,Win32,61.42128862,628b806c463b948bc644b84f,6291cc0ea42da326304b6943,,,,,,1,0,1,0,1,"X V Q F H G B L J M P D K C T S W R N Z
",,,,,,,,,,,,,,,,,,,,,,,,,,,,,,,,,,,,,,,,,,,,,,,,,,,,,,,,,,,,,,,,,,,,,,,,,,,,,,,,,,,,,,,,,,,,,
,,,,,,,,,605a4838b40613218220a77a,25,Mężczyzna,2022-05-28_09h16.16.019,task,2021.1.4,Win32,61.42128862,628b806c463b948bc644b84f,6291cc0ea42da326304b6943,,,,,,2,0,2,0,1,"X V Q F H G B L J M P D K C T S W R N Z
",,,,,,,,,,,,,,,,,,,,,,,,,,,,,,,,,,,,,,,,,,,,,,,,,,,,,,,,,,,,,,,,,,,,,,,,,,,,,,,,,,,,,,,,,,,,,
,,,,,,,,,605a4838b40613218220a77a,25,Mężczyzna,2022-05-28_09h16.16.019,task,2021.1.4,Win32,61.42128862,628b806c463b948bc644b84f,6291cc0ea42da326304b6943,,,,,,3,0,3,0,1,"X V Q F H G B L J M P D K C T S W R N Z
",,,,,,,,,,,,,,,,,,,,,,,,,,,,,,,,,,,,,,,,,,,,,,,,,,,,,,,,,,,,,,,,,,,,,,,,,,,,,,,,,,,,,,,,,,,,,
,,,,,,,,,605a4838b40613218220a77a,25,Mężczyzna,2022-05-28_09h16.16.019,task,2021.1.4,Win32,61.42128862,628b806c463b948bc644b84f,6291cc0ea42da326304b6943,,,,,,4,0,4,0,1,"X V Q F H G B L J M P D K C T S W R N Z
",,,,,,,,,,,,,,,,,,,,,,,,,,,,,,,,,,,,,,,,,,,,,,,,,,,,,,,,,,,,,,,,,,,,,,,,,,,,,,,,,,,,,,,,,,,,,
,,,,,,,,,605a4838b40613218220a77a,25,Mężczyzna,2022-05-28_09h16.16.019,task,2021.1.4,Win32,61.42128862,628b806c463b948bc644b84f,6291cc0ea42da326304b6943,,,,,,5,0,5,0,1,"X V Q F H G B L J M P D K C T S W R N Z
",,,,,,,,,,,,,,,,,,,,,,,,,,,,,,,,,,,,,,,,,,,,,,,,,,,,,,,,,,,,,,,,,,,,,,,,,,,,,,,,,,,,,,,,,,,,,
,,,,,,,,,605a4838b40613218220a77a,25,Mężczyzna,2022-05-28_09h16.16.019,task,2021.1.4,Win32,61.42128862,628b806c463b948bc644b84f,6291cc0ea42da326304b6943,,,,,,,,,,,,zmvmss,"[""z"",""m"",""v"",""m"",""s"",""s""]","[2.173900000005972,2.6014999999999873,3.894599999994057,4.72290000000595,4.900299999997003,5.070799999997007,5.340599999994026]",0,"Z
VMFSM",13,0,13,0,1,,,,,,,,,,,,,,,,,,,,,,,,,,,,,,,,,,,,,,,,,,,,,,,,,,,,,,,,,,,,,,,,,,,,,,,,,,,,,,,,,,,
,,,,,,,,,605a4838b40613218220a77a,25,Mężczyzna,2022-05-28_09h16.16.019,task,2021.1.4,Win32,61.42128862,628b806c463b948bc644b84f,6291cc0ea42da326304b6943,,,,,,,,,,,,,,,,,,,,,,space,10.7832,0,"[""0""]",1,[5.974799999997003],[5.974799999997003],0,0,0,0,1,Practice,1,(3x3) -  9,0,,,,,,,,,,,,,,,,,,,,,,,,,,,,,,,,,,,,,,,,,,,,,,,,,,,,,,,,,,,,,,,,,,,
,,,,,,,,,605a4838b40613218220a77a,25,Mężczyzna,2022-05-28_09h16.16.019,task,2021.1.4,Win32,61.42128862,628b806c463b948bc644b84f,6291cc0ea42da326304b6943,,,,,,,,,,,,,,,,,,,,,,,,1,"[""1""]",1,[3.982500000000016],"[5.974799999997003,3.982500000000016]",0,1,1,1,1,Practice,2,(4x4) - 15,1,,,,,,,,,,,,,,,,,,,,,,,,,,,,,,,,,,,,,,,,,,,,,,,,,,,,,,,,,,,,,,,,,,,
,,,,,,,,,605a4838b40613218220a77a,25,Mężczyzna,2022-05-28_09h16.16.019,task,2021.1.4,Win32,61.42128862,628b806c463b948bc644b84f,6291cc0ea42da326304b6943,,,,,,,,,,,,,,,,,,,,,,,,2,"[""2""]",1,[2.6964000000059514],"[5.974799999997003,3.982500000000016,2.6964000000059514]",0,2,2,2,1,Practice,3,(4x4) - 14,2,,,,,,,,,,,,,,,,,,,,,,,,,,,,,,,,,,,,,,,,,,,,,,,,,,,,,,,,,,,,,,,,,,,
,,,,,,,,,605a4838b40613218220a77a,25,Mężczyzna,2022-05-28_09h16.16.019,task,2021.1.4,Win32,61.42128862,628b806c463b948bc644b84f,6291cc0ea42da326304b6943,,,,,,,,,,,,,,,,,,,,,,,,3,"[""3""]",1,[4.908900000005929],"[5.974799999997003,3.982500000000016,2.6964000000059514,4.908900000005929]",0,3,3,3,1,Practice,4,(8/4) + 1,3,,,,,,,,,,,,,,,,,,,,,,,,,,,,,,,,,,,,,,,,,,,,,,,,,,,,,,,,,,,,,,,,,,,
,,,,,,,,,605a4838b40613218220a77a,25,Mężczyzna,2022-05-28_09h16.16.019,task,2021.1.4,Win32,61.42128862,628b806c463b948bc644b84f,6291cc0ea42da326304b6943,,,,,,,,,,,,,,,,,,,,,,,,5,"[""5""]",1,[3.0038000000118927],"[5.974799999997003,3.982500000000016,2.6964000000059514,4.908900000005929,3.0038000000118927]",0,4,4,5,1,Practice,6,(4/2) + 3,5,,,,,,,,,,,,,,,,,,,,,,,,,,,,,,,,,,,,,,,,,,,,,,,,,,,,,,,,,,,,,,,,,,,
,,,,,,,,,605a4838b40613218220a77a,25,Mężczyzna,2022-05-28_09h16.16.019,task,2021.1.4,Win32,61.42128862,628b806c463b948bc644b84f,6291cc0ea42da326304b6943,,,,,,,,,,,,,,,,,,,,,,,,4,"[""4""]",1,[3.349700000002997],"[5.974799999997003,3.982500000000016,2.6964000000059514,4.908900000005929,3.0038000000118927,3.349700000002997]",0,5,5,4,1,Practice,5,(2x6) - 8,4,,,,,,,,,,,,,,,,,,,,,,,,,,,,,,,,,,,,,,,,,,,,,,,,,,,,,,,,,,,,,,,,,,,
,,,,,,,,,605a4838b40613218220a77a,25,Mężczyzna,2022-05-28_09h16.16.019,task,2021.1.4,Win32,61.42128862,628b806c463b948bc644b84f,6291cc0ea42da326304b6943,,,,,,,,,,,,,,,,,,,,,,,,8,"[""8""]",1,[2.404900000006023],"[5.974799999997003,3.982500000000016,2.6964000000059514,4.908900000005929,3.0038000000118927,3.349700000002997,2.404900000006023]",0,6,6,8,1,Practice,9,(3x3) - 1,8,,,,,,,,,,,,,,,,,,,,,,,,,,,,,,,,,,,,,,,,,,,,,,,,,,,,,,,,,,,,,,,,,,,
,,,,,,,,,605a4838b40613218220a77a,25,Mężczyzna,2022-05-28_09h16.16.019,task,2021.1.4,Win32,61.42128862,628b806c463b948bc644b84f,6291cc0ea42da326304b6943,,,,,,,,,,,,,,,,,,,,,,,,7,"[""7""]",1,[2.813400000005913],"[5.974799999997003,3.982500000000016,2.6964000000059514,4.908900000005929,3.0038000000118927,3.349700000002997,2.404900000006023,2.813400000005913]",0,7,7,7,1,Practice,8,(5x5) - 18,7,,,,,,,,,,,,,,,,,,,,,,,,,,,,,,,,,,,,,,,,,,,,,,,,,,,,,,,,,,,,,,,,,,,
,,,,,,,,,605a4838b40613218220a77a,25,Mężczyzna,2022-05-28_09h16.16.019,task,2021.1.4,Win32,61.42128862,628b806c463b948bc644b84f,6291cc0ea42da326304b6943,,,,,,,,,,,,,,,,,,,,,,,,6,"[""6""]",1,[2.7672999999970216],"[5.974799999997003,3.982500000000016,2.6964000000059514,4.908900000005929,3.0038000000118927,3.349700000002997,2.404900000006023,2.813400000005913,2.7672999999970216]",0,8,8,6,1,Practice,7,(25/5) + 1,6,,,,,,,,,,,,,,,,,,,,,,,,,,,,,,,,,,,,,,,,,,,,,,,,,,,,,,,,,,,,,,,,,,,
,,,,,,,,,605a4838b40613218220a77a,25,Mężczyzna,2022-05-28_09h16.16.019,task,2021.1.4,Win32,61.42128862,628b806c463b948bc644b84f,6291cc0ea42da326304b6943,,,,,,,,,,,,,,,,,,,,,,,,9,"[""9""]",1,[1.925700000002962],"[5.974799999997003,3.982500000000016,2.6964000000059514,4.908900000005929,3.0038000000118927,3.349700000002997,2.404900000006023,2.813400000005913,2.7672999999970216,1.925700000002962]",0,9,9,9,1,Practice,10,(20/2) - 1,9,,,,,,,,,,,,,,,,,,,,,,,,,,,,,,,,,,,,,,,,,,,,,,,,,,,,,,,,,,,,,,,,,,,
,,,,,,,,,605a4838b40613218220a77a,25,Mężczyzna,2022-05-28_09h16.16.019,task,2021.1.4,Win32,61.42128862,628b806c463b948bc644b84f,6291cc0ea42da326304b6943,,,,,,,,,,,,,,,,,,,,,,,,,,,,,,,,,,,,,,1,33.8274,2.25516,26.51981883,1.329657069,5.685675239,space,1.3376,0,0,0,0,1,,,,,,,,,,,,,,,,,,,,,,,,,,,,,,,,,,,,,,,,,,,,,,,,,,,,,,
,,,,,,,,,605a4838b40613218220a77a,25,Mężczyzna,2022-05-28_09h16.16.019,task,2021.1.4,Win32,61.42128862,628b806c463b948bc644b84f,6291cc0ea42da326304b6943,,,,,,,,,,,,,,,,,,,,,,,,9,,,,,,,,,,Practice,10,(20/2) - 1,9,,,,,,,,,,,,,,space,14.94,"[""9""]",1,[4.9306999999880645],1,0,0,0,9,1,,,,,,,,,,,,,,,,,,,,,,,,,,,,,,,,,,,,,,,,,,,
,,,,,,,,,605a4838b40613218220a77a,25,Mężczyzna,2022-05-28_09h16.16.019,task,2021.1.4,Win32,61.42128862,628b806c463b948bc644b84f,6291cc0ea42da326304b6943,,,,,,,,,,,"X V Q F H G B L J M P D K C T S W R N Z
",,,,,,,,,,,,,,,,,,,,,,,,,,,,,,,,,,,,,,,,,,,,,,,,,,,0,0,0,0,1,,,,,,,,,,,,,,,,,,,,,,,,,,,,,,,,,,,,,,
,,,,,,,,,605a4838b40613218220a77a,25,Mężczyzna,2022-05-28_09h16.16.019,task,2021.1.4,Win32,61.42128862,628b806c463b948bc644b84f,6291cc0ea42da326304b6943,,,,,,,,,,,,,,,,,,,,,,,,5,,,,,,,,,,Practice,6,(4/2) + 3,5,,,,,,,,,,,,,,,,"[""5""]",1,[4.5829000000060205],1,0,0,0,5,1,,,,,,,,,,,,,,,,,,,,,,,,,,,,,,,,,,,,,,,,,,,
,,,,,,,,,605a4838b40613218220a77a,25,Mężczyzna,2022-05-28_09h16.16.019,task,2021.1.4,Win32,61.42128862,628b806c463b948bc644b84f,6291cc0ea42da326304b6943,,,,,,,,,,,"X V Q F H G B L J M P D K C T S W R N Z
",,,,,,,,,,,,,,,,,,,,,,,,,,,,,,,,,,,,,,,,,,,,,,,,,,,1,0,1,0,1,,,,,,,,,,,,,,,,,,,,,,,,,,,,,,,,,,,,,,
,,,,,,,,,605a4838b40613218220a77a,25,Mężczyzna,2022-05-28_09h16.16.019,task,2021.1.4,Win32,61.42128862,628b806c463b948bc644b84f,6291cc0ea42da326304b6943,,,,,,,,,,,,,,,,,,,,,,,,,,,,,,,,,,,,,,,,,,,,,,,,,,,,,,,,,,,,,,,,,,,zm,"[""z"",""m""]",0,"[1.766599999994014,2.4503999999910775,3.683099999994056]",1,0,0,0,0,1,,,,,,,,,,,,,,,,,,,,,,,,,,,,
,,,,,,,,,605a4838b40613218220a77a,25,Mężczyzna,2022-05-28_09h16.16.019,task,2021.1.4,Win32,61.42128862,628b806c463b948bc644b84f,6291cc0ea42da326304b6943,,,,,,,,,,,,,,,,,,,,,,,,7,,,,,,,,,,Practice,8,(5x5) - 18,7,,,,,,,,,,,,,,,,"[""7""]",1,[2.2122000000030084],1,0,0,0,7,1,,,,,,,,,,,,,,,,,,,,,,,,,,,,,,,,,,,,,,,,,,,
,,,,,,,,,605a4838b40613218220a77a,25,Mężczyzna,2022-05-28_09h16.16.019,task,2021.1.4,Win32,61.42128862,628b806c463b948bc644b84f,6291cc0ea42da326304b6943,,,,,,,,,,,"X V Q F H G B L J M P D K C T S W R N Z
",,,,,,,,,,,,,,,,,,,,,,,,,,,,,,,,,,,,,,,,,,,,,,,,,,,0,0,0,0,1,,,,,,,,,,,,,,,,,,,,,,,,,,,,,,,,,,,,,,
,,,,,,,,,605a4838b40613218220a77a,25,Mężczyzna,2022-05-28_09h16.16.019,task,2021.1.4,Win32,61.42128862,628b806c463b948bc644b84f,6291cc0ea42da326304b6943,,,,,,,,,,,,,,,,,,,,,,,,4,,,,,,,,,,Practice,5,(2x6) - 8,4,,,,,,,,,,,,,,,,"[""4""]",1,[3.58570000000293],1,0,0,0,4,1,,,,,,,,,,,,,,,,,,,,,,,,,,,,,,,,,,,,,,,,,,,
,,,,,,,,,605a4838b40613218220a77a,25,Mężczyzna,2022-05-28_09h16.16.019,task,2021.1.4,Win32,61.42128862,628b806c463b948bc644b84f,6291cc0ea42da326304b6943,,,,,,,,,,,"X V Q F H G B L J M P D K C T S W R N Z
",,,,,,,,,,,,,,,,,,,,,,,,,,,,,,,,,,,,,,,,,,,,,,,,,,,1,0,1,0,1,,,,,,,,,,,,,,,,,,,,,,,,,,,,,,,,,,,,,,
,,,,,,,,,605a4838b40613218220a77a,25,Mężczyzna,2022-05-28_09h16.16.019,task,2021.1.4,Win32,61.42128862,628b806c463b948bc644b84f,6291cc0ea42da326304b6943,,,,,,,,,,,,,,,,,,,,,,,,,,,,,,,,,,,,,,,,,,,,,,,,,,,,,,,,,,,,,,,,,,,zj,"[""z"",""j""]",0,"[1.8294000000059896,2.3957000000029893,2.984300000011899]",0,1,0,1,0,1,,,,,,,,,,,,,,,,,,,,,,,,,,,,
,,,,,,,,,605a4838b40613218220a77a,25,Mężczyzna,2022-05-28_09h16.16.019,task,2021.1.4,Win32,61.42128862,628b806c463b948bc644b84f,6291cc0ea42da326304b6943,,,,,,,,,,,,,,,,,,,,,,,,9,,,,,,,,,,Practice,10,(20/2) - 1,9,,,,,,,,,,,,,,,,"[""9""]",1,[5.28360000000896],1,0,0,0,9,1,,,,,,,,,,,,,,,,,,,,,,,,,,,,,,,,,,,,,,,,,,,
,,,,,,,,,605a4838b40613218220a77a,25,Mężczyzna,2022-05-28_09h16.16.019,task,2021.1.4,Win32,61.42128862,628b806c463b948bc644b84f,6291cc0ea42da326304b6943,,,,,,,,,,,"X V Q F H G B L J M P D K C T S W R N Z
",,,,,,,,,,,,,,,,,,,,,,,,,,,,,,,,,,,,,,,,,,,,,,,,,,,0,0,0,0,1,,,,,,,,,,,,,,,,,,,,,,,,,,,,,,,,,,,,,,
,,,,,,,,,605a4838b40613218220a77a,25,Mężczyzna,2022-05-28_09h16.16.019,task,2021.1.4,Win32,61.42128862,628b806c463b948bc644b84f,6291cc0ea42da326304b6943,,,,,,,,,,,,,,,,,,,,,,,,8,,,,,,,,,,Practice,9,(3x3) - 1,8,,,,,,,,,,,,,,,,"[""8""]",1,[4.015200000003006],1,0,0,0,8,1,,,,,,,,,,,,,,,,,,,,,,,,,,,,,,,,,,,,,,,,,,,
,,,,,,,,,605a4838b40613218220a77a,25,Mężczyzna,2022-05-28_09h16.16.019,task,2021.1.4,Win32,61.42128862,628b806c463b948bc644b84f,6291cc0ea42da326304b6943,,,,,,,,,,,"X V Q F H G B L J M P D K C T S W R N Z
",,,,,,,,,,,,,,,,,,,,,,,,,,,,,,,,,,,,,,,,,,,,,,,,,,,1,0,1,0,1,,,,,,,,,,,,,,,,,,,,,,,,,,,,,,,,,,,,,,
,,,,,,,,,605a4838b40613218220a77a,25,Mężczyzna,2022-05-28_09h16.16.019,task,2021.1.4,Win32,61.42128862,628b806c463b948bc644b84f,6291cc0ea42da326304b6943,,,,,,,,,,,,,,,,,,,,,,,,,,,,,,,,,,,,,,,,,,,,,,,,,,,,,,,,,,,,,,,,,,,xx,"[""x"",""x""]",0,"[1.4592999999970289,1.70150000000001,2.417099999994093]",1,2,0,2,0,1,,,,,,,,,,,,,,,,,,,,,,,,,,,,
,,,,,,,,,605a4838b40613218220a77a,25,Mężczyzna,2022-05-28_09h16.16.019,task,2021.1.4,Win32,61.42128862,628b806c463b948bc644b84f,6291cc0ea42da326304b6943,,,,,,,,,,,,,,,,,,,,,,,,8,,,,,,,,,,Practice,9,(3x3) - 1,8,,,,,,,,,,,,,,,,"[""8""]",1,[2.4146000000089316],1,0,0,0,8,1,,,,,,,,,,,,,,,,,,,,,,,,,,,,,,,,,,,,,,,,,,,
,,,,,,,,,605a4838b40613218220a77a,25,Mężczyzna,2022-05-28_09h16.16.019,task,2021.1.4,Win32,61.42128862,628b806c463b948bc644b84f,6291cc0ea42da326304b6943,,,,,,,,,,,"X V Q F H G B L J M P D K C T S W R N Z
",,,,,,,,,,,,,,,,,,,,,,,,,,,,,,,,,,,,,,,,,,,,,,,,,,,0,0,0,0,1,,,,,,,,,,,,,,,,,,,,,,,,,,,,,,,,,,,,,,
,,,,,,,,,605a4838b40613218220a77a,25,Mężczyzna,2022-05-28_09h16.16.019,task,2021.1.4,Win32,61.42128862,628b806c463b948bc644b84f,6291cc0ea42da326304b6943,,,,,,,,,,,,,,,,,,,,,,,,5,,,,,,,,,,Practice,6,(4/2) + 3,5,,,,,,,,,,,,,,,,"[""5""]",1,[2.1882000000030075],1,0,0,0,5,1,,,,,,,,,,,,,,,,,,,,,,,,,,,,,,,,,,,,,,,,,,,
,,,,,,,,,605a4838b40613218220a77a,25,Mężczyzna,2022-05-28_09h16.16.019,task,2021.1.4,Win32,61.42128862,628b806c463b948bc644b84f,6291cc0ea42da326304b6943,,,,,,,,,,,"X V Q F H G B L J M P D K C T S W R N Z
",,,,,,,,,,,,,,,,,,,,,,,,,,,,,,,,,,,,,,,,,,,,,,,,,,,1,0,1,0,1,,,,,,,,,,,,,,,,,,,,,,,,,,,,,,,,,,,,,,
,,,,,,,,,605a4838b40613218220a77a,25,Mężczyzna,2022-05-28_09h16.16.019,task,2021.1.4,Win32,61.42128862,628b806c463b948bc644b84f,6291cc0ea42da326304b6943,,,,,,,,,,,,,,,,,,,,,,,,,,,,,,,,,,,,,,,,,,,,,,,,,,,,,,,,,,,,,,,,,,,vj,"[""v"",""j""]",0,"[1.4749000000059596,1.9439000000060105,2.517100000008895]",1,3,0,3,0,1,,,,,,,,,,,,,,,,,,,,,,,,,,,,
,,,,,,,,,605a4838b40613218220a77a,25,Mężczyzna,2022-05-28_09h16.16.019,task,2021.1.4,Win32,61.42128862,628b806c463b948bc644b84f,6291cc0ea42da326304b6943,,,,,,,,,,,,,,,,,,,,,,,,6,,,,,,,,,,Practice,7,(25/5) + 1,6,,,,,,,,,,,,,,,,"[""6""]",1,[5.235599999994065],1,0,0,0,6,1,,,,,,,,,,,,,,,,,,,,,,,,,,,,,,,,,,,,,,,,,,,
,,,,,,,,,605a4838b40613218220a77a,25,Mężczyzna,2022-05-28_09h16.16.019,task,2021.1.4,Win32,61.42128862,628b806c463b948bc644b84f,6291cc0ea42da326304b6943,,,,,,,,,,,"X V Q F H G B L J M P D K C T S W R N Z
",,,,,,,,,,,,,,,,,,,,,,,,,,,,,,,,,,,,,,,,,,,,,,,,,,,0,0,0,0,1,,,,,,,,,,,,,,,,,,,,,,,,,,,,,,,,,,,,,,
,,,,,,,,,605a4838b40613218220a77a,25,Mężczyzna,2022-05-28_09h16.16.019,task,2021.1.4,Win32,61.42128862,628b806c463b948bc644b84f,6291cc0ea42da326304b6943,,,,,,,,,,,,,,,,,,,,,,,,6,,,,,,,,,,Practice,7,(25/5) + 1,6,,,,,,,,,,,,,,,,"[""6""]",1,[3.4617000000029066],1,0,0,0,6,1,,,,,,,,,,,,,,,,,,,,,,,,,,,,,,,,,,,,,,,,,,,
,,,,,,,,,605a4838b40613218220a77a,25,Mężczyzna,2022-05-28_09h16.16.019,task,2021.1.4,Win32,61.42128862,628b806c463b948bc644b84f,6291cc0ea42da326304b6943,,,,,,,,,,,"X V Q F H G B L J M P D K C T S W R N Z
",,,,,,,,,,,,,,,,,,,,,,,,,,,,,,,,,,,,,,,,,,,,,,,,,,,1,0,1,0,1,,,,,,,,,,,,,,,,,,,,,,,,,,,,,,,,,,,,,,
,,,,,,,,,605a4838b40613218220a77a,25,Mężczyzna,2022-05-28_09h16.16.019,task,2021.1.4,Win32,61.42128862,628b806c463b948bc644b84f,6291cc0ea42da326304b6943,,,,,,,,,,,,,,,,,,,,,,,,,,,,,,,,,,,,,,,,,,,,,,,,,,,,,,,,,,,,,,,,,,,cz,"[""c"",""z""]",0,"[1.7503000000119755,2.05410000000893,2.7003000000119073]",0,4,0,4,0,1,,,,,,,,,,,,,,,,,,,,,,,,,,,,
,,,,,,,,,605a4838b40613218220a77a,25,Mężczyzna,2022-05-28_09h16.16.019,task,2021.1.4,Win32,61.42128862,628b806c463b948bc644b84f,6291cc0ea42da326304b6943,,,,,,,,,,,,,,,,,,,,,,,,,,,,,,,,,,Practice,9,(3x3) - 1,8,,,,,,,,,,,,,,,,,0,,0,0,0,0,8,1,,,,,,,,,,,,,,,,,,,,,,,,,,,,,,,,,,,,,,,,,,,
,,,,,,,,,605a4838b40613218220a77a,25,Mężczyzna,2022-05-28_09h16.16.019,task,2021.1.4,Win32,61.42128862,628b806c463b948bc644b84f,6291cc0ea42da326304b6943,,,,,,,,,,,,,,,,,,,,,,,,6,,,,,,,,,,Practice,7,(25/5) + 1,6,,,,,,,,,,,,,,,,"[""6""]",1,[1.9004999999999654],1,0,1,1,6,1,,,,,,,,,,,,,,,,,,,,,,,,,,,,,,,,,,,,,,,,,,,
,,,,,,,,,605a4838b40613218220a77a,25,Mężczyzna,2022-05-28_09h16.16.019,task,2021.1.4,Win32,61.42128862,628b806c463b948bc644b84f,6291cc0ea42da326304b6943,,,,,,,,,,,"X V Q F H G B L J M P D K C T S W R N Z
",,,,,,,,,,,,,,,,,,,,,,,,,,,,,,,,,,,,,,,,,,,,,,,,,,,0,0,0,0,1,,,,,,,,,,,,,,,,,,,,,,,,,,,,,,,,,,,,,,
,,,,,,,,,605a4838b40613218220a77a,25,Mężczyzna,2022-05-28_09h16.16.019,task,2021.1.4,Win32,61.42128862,628b806c463b948bc644b84f,6291cc0ea42da326304b6943,,,,,,,,,,,,,,,,,,,,,,,,0,,,,,,,,,,Practice,1,(3x3) -  9,0,,,,,,,,,,,,,,,,"[""0""]",1,[1.9912000000030048],1,0,0,0,0,1,,,,,,,,,,,,,,,,,,,,,,,,,,,,,,,,,,,,,,,,,,,
,,,,,,,,,605a4838b40613218220a77a,25,Mężczyzna,2022-05-28_09h16.16.019,task,2021.1.4,Win32,61.42128862,628b806c463b948bc644b84f,6291cc0ea42da326304b6943,,,,,,,,,,,"X V Q F H G B L J M P D K C T S W R N Z
",,,,,,,,,,,,,,,,,,,,,,,,,,,,,,,,,,,,,,,,,,,,,,,,,,,1,0,1,0,1,,,,,,,,,,,,,,,,,,,,,,,,,,,,,,,,,,,,,,
,,,,,,,,,605a4838b40613218220a77a,25,Mężczyzna,2022-05-28_09h16.16.019,task,2021.1.4,Win32,61.42128862,628b806c463b948bc644b84f,6291cc0ea42da326304b6943,,,,,,,,,,,,,,,,,,,,,,,,,,,,,,,,,,,,,,,,,,,,,,,,,,,,,,,,,,,,,,,,,,,fv,"[""f"",""v""]",0,"[1.7914999999999281,2.120599999994056,2.816399999991063]",1,5,0,5,0,1,,,,,,,,,,,,,,,,,,,,,,,,,,,,
,,,,,,,,,605a4838b40613218220a77a,25,Mężczyzna,2022-05-28_09h16.16.019,task,2021.1.4,Win32,61.42128862,628b806c463b948bc644b84f,6291cc0ea42da326304b6943,,,,,,,,,,,,,,,,,,,,,,,,2,,,,,,,,,,Practice,3,(4x4) - 14,2,,,,,,,,,,,,,,,,"[""2""]",1,[2.0717999999969834],1,0,0,0,2,1,,,,,,,,,,,,,,,,,,,,,,,,,,,,,,,,,,,,,,,,,,,
,,,,,,,,,605a4838b40613218220a77a,25,Mężczyzna,2022-05-28_09h16.16.019,task,2021.1.4,Win32,61.42128862,628b806c463b948bc644b84f,6291cc0ea42da326304b6943,,,,,,,,,,,"X V Q F H G B L J M P D K C T S W R N Z
",,,,,,,,,,,,,,,,,,,,,,,,,,,,,,,,,,,,,,,,,,,,,,,,,,,0,0,0,0,1,,,,,,,,,,,,,,,,,,,,,,,,,,,,,,,,,,,,,,
,,,,,,,,,605a4838b40613218220a77a,25,Mężczyzna,2022-05-28_09h16.16.019,task,2021.1.4,Win32,61.42128862,628b806c463b948bc644b84f,6291cc0ea42da326304b6943,,,,,,,,,,,,,,,,,,,,,,,,1,,,,,,,,,,Practice,2,(4x4) - 15,1,,,,,,,,,,,,,,,,"[""1""]",1,[1.5914999999999964],1,0,0,0,1,1,,,,,,,,,,,,,,,,,,,,,,,,,,,,,,,,,,,,,,,,,,,
,,,,,,,,,605a4838b40613218220a77a,25,Mężczyzna,2022-05-28_09h16.16.019,task,2021.1.4,Win32,61.42128862,628b806c463b948bc644b84f,6291cc0ea42da326304b6943,,,,,,,,,,,"X V Q F H G B L J M P D K C T S W R N Z
",,,,,,,,,,,,,,,,,,,,,,,,,,,,,,,,,,,,,,,,,,,,,,,,,,,1,0,1,0,1,,,,,,,,,,,,,,,,,,,,,,,,,,,,,,,,,,,,,,
,,,,,,,,,605a4838b40613218220a77a,25,Mężczyzna,2022-05-28_09h16.16.019,task,2021.1.4,Win32,61.42128862,628b806c463b948bc644b84f,6291cc0ea42da326304b6943,,,,,,,,,,,,,,,,,,,,,,,,,,,,,,,,,,,,,,,,,,,,,,,,,,,,,,,,,,,,,,,,,,,cf,"[""c"",""f""]",0,"[1.766599999994014,2.041499999999928,2.699599999994007]",1,6,0,6,0,1,,,,,,,,,,,,,,,,,,,,,,,,,,,,
,,,,,,,,,605a4838b40613218220a77a,25,Mężczyzna,2022-05-28_09h16.16.019,task,2021.1.4,Win32,61.42128862,628b806c463b948bc644b84f,6291cc0ea42da326304b6943,,,,,,,,,,,,,,,,,,,,,,,,6,,,,,,,,,,Practice,7,(25/5) + 1,6,,,,,,,,,,,,,,,,"[""6""]",1,[1.8922000000029584],1,0,0,0,6,1,,,,,,,,,,,,,,,,,,,,,,,,,,,,,,,,,,,,,,,,,,,
,,,,,,,,,605a4838b40613218220a77a,25,Mężczyzna,2022-05-28_09h16.16.019,task,2021.1.4,Win32,61.42128862,628b806c463b948bc644b84f,6291cc0ea42da326304b6943,,,,,,,,,,,"X V Q F H G B L J M P D K C T S W R N Z
",,,,,,,,,,,,,,,,,,,,,,,,,,,,,,,,,,,,,,,,,,,,,,,,,,,0,0,0,0,1,,,,,,,,,,,,,,,,,,,,,,,,,,,,,,,,,,,,,,
,,,,,,,,,605a4838b40613218220a77a,25,Mężczyzna,2022-05-28_09h16.16.019,task,2021.1.4,Win32,61.42128862,628b806c463b948bc644b84f,6291cc0ea42da326304b6943,,,,,,,,,,,,,,,,,,,,,,,,7,,,,,,,,,,Practice,8,(5x5) - 18,7,,,,,,,,,,,,,,,,"[""7""]",1,[1.9508000000118955],1,0,0,0,7,1,,,,,,,,,,,,,,,,,,,,,,,,,,,,,,,,,,,,,,,,,,,
,,,,,,,,,605a4838b40613218220a77a,25,Mężczyzna,2022-05-28_09h16.16.019,task,2021.1.4,Win32,61.42128862,628b806c463b948bc644b84f,6291cc0ea42da326304b6943,,,,,,,,,,,"X V Q F H G B L J M P D K C T S W R N Z
",,,,,,,,,,,,,,,,,,,,,,,,,,,,,,,,,,,,,,,,,,,,,,,,,,,1,0,1,0,1,,,,,,,,,,,,,,,,,,,,,,,,,,,,,,,,,,,,,,
,,,,,,,,,605a4838b40613218220a77a,25,Mężczyzna,2022-05-28_09h16.16.019,task,2021.1.4,Win32,61.42128862,628b806c463b948bc644b84f,6291cc0ea42da326304b6943,,,,,,,,,,,,,,,,,,,,,,,,,,,,,,,,,,,,,,,,,,,,,,,,,,,,,,,,,,,,,,,,,,,bg,"[""b"",""g""]",0,"[1.5170000000000528,1.810700000002953,2.445500000000038]",1,7,0,7,0,1,,,,,,,,,,,,,,,,,,,,,,,,,,,,
,,,,,,,,,605a4838b40613218220a77a,25,Mężczyzna,2022-05-28_09h16.16.019,task,2021.1.4,Win32,61.42128862,628b806c463b948bc644b84f,6291cc0ea42da326304b6943,,,,,,,,,,,,,,,,,,,,,,,,6,,,,,,,,,,Task,13,(3x4) - 6,6,,,,,,,,,,,,,,,,,,,1,,,,,,,,,,,,,,,,,,,,,space,14.3289,"[""6""]",1,[1.9965000000000828],0,0,0,12,1,,,,,,,,,,,,,,,,,,
,,,,,,,,,605a4838b40613218220a77a,25,Mężczyzna,2022-05-28_09h16.16.019,task,2021.1.4,Win32,61.42128862,628b806c463b948bc644b84f,6291cc0ea42da326304b6943,,,,,,,,,,,"X V Q F H G B L J M P D K C T S W R N Z
",,,,,,,,,,,,,,,,,,,,,,,,,,,,,,,,,,,,,,,,,,,,,,,,,,,,,,,,,,,,,,,,,,,,,,,,,,,,0,0,0,0,1,,,,,,,,,,,,,
,,,,,,,,,605a4838b40613218220a77a,25,Mężczyzna,2022-05-28_09h16.16.019,task,2021.1.4,Win32,61.42128862,628b806c463b948bc644b84f,6291cc0ea42da326304b6943,,,,,,,,,,,,,,,,,,,,,,,,2,,,,,,,,,,Task,2,(2x2) - 2,2,,,,,,,,,,,,,,,,,,,1,,,,,,,,,,,,,,,,,,,,,,,"[""2""]",1,[1.9773000000118373],0,0,0,1,1,,,,,,,,,,,,,,,,,,
,,,,,,,,,605a4838b40613218220a77a,25,Mężczyzna,2022-05-28_09h16.16.019,task,2021.1.4,Win32,61.42128862,628b806c463b948bc644b84f,6291cc0ea42da326304b6943,,,,,,,,,,,"X V Q F H G B L J M P D K C T S W R N Z
",,,,,,,,,,,,,,,,,,,,,,,,,,,,,,,,,,,,,,,,,,,,,,,,,,,,,,,,,,,,,,,,,,,,,,,,,,,,1,0,1,0,1,,,,,,,,,,,,,
,,,,,,,,,605a4838b40613218220a77a,25,Mężczyzna,2022-05-28_09h16.16.019,task,2021.1.4,Win32,61.42128862,628b806c463b948bc644b84f,6291cc0ea42da326304b6943,,,,,,,,,,,,,,,,,,,,,,,,,,,,,,,,,,,,,,,,,,,,,,,,,,,,,,,,,,,,,,,,,,,,,,,,,,,,,,,,,,,,,,,,,,,,zk,"[""z"",""k""]",0,"[1.6340000000000146,1.8277000000030057,2.456700000003025]",1,ZK,0,0,0,0,1,,
,,,,,,,,,605a4838b40613218220a77a,25,Mężczyzna,2022-05-28_09h16.16.019,task,2021.1.4,Win32,61.42128862,628b806c463b948bc644b84f,6291cc0ea42da326304b6943,,,,,,,,,,,,,,,,,,,,,,,,5,,,,,,,,,,Task,29,(3x8) - 19 ,5,,,,,,,,,,,,,,,,,,,1,,,,,,,,,,,,,,,,,,,,,,,"[""5""]",1,[3.4110999999941214],0,0,0,28,1,,,,,,,,,,,,,,,,,,
,,,,,,,,,605a4838b40613218220a77a,25,Mężczyzna,2022-05-28_09h16.16.019,task,2021.1.4,Win32,61.42128862,628b806c463b948bc644b84f,6291cc0ea42da326304b6943,,,,,,,,,,,"X V Q F H G B L J M P D K C T S W R N Z
",,,,,,,,,,,,,,,,,,,,,,,,,,,,,,,,,,,,,,,,,,,,,,,,,,,,,,,,,,,,,,,,,,,,,,,,,,,,0,0,0,0,1,,,,,,,,,,,,,
,,,,,,,,,605a4838b40613218220a77a,25,Mężczyzna,2022-05-28_09h16.16.019,task,2021.1.4,Win32,61.42128862,628b806c463b948bc644b84f,6291cc0ea42da326304b6943,,,,,,,,,,,,,,,,,,,,,,,,5,,,,,,,,,,Task,36,(8/4) + 3,5,,,,,,,,,,,,,,,,,,,1,,,,,,,,,,,,,,,,,,,,,,,"[""5""]",1,[3.6447000000028993],0,0,0,35,1,,,,,,,,,,,,,,,,,,
,,,,,,,,,605a4838b40613218220a77a,25,Mężczyzna,2022-05-28_09h16.16.019,task,2021.1.4,Win32,61.42128862,628b806c463b948bc644b84f,6291cc0ea42da326304b6943,,,,,,,,,,,"X V Q F H G B L J M P D K C T S W R N Z
",,,,,,,,,,,,,,,,,,,,,,,,,,,,,,,,,,,,,,,,,,,,,,,,,,,,,,,,,,,,,,,,,,,,,,,,,,,,1,0,1,0,1,,,,,,,,,,,,,
,,,,,,,,,605a4838b40613218220a77a,25,Mężczyzna,2022-05-28_09h16.16.019,task,2021.1.4,Win32,61.42128862,628b806c463b948bc644b84f,6291cc0ea42da326304b6943,,,,,,,,,,,,,,,,,,,,,,,,3,,,,,,,,,,Task,3,(2x3) - 3,3,,,,,,,,,,,,,,,,,,,1,,,,,,,,,,,,,,,,,,,,,,,"[""3""]",1,[2.951899999991042],0,0,0,2,1,,,,,,,,,,,,,,,,,,
,,,,,,,,,605a4838b40613218220a77a,25,Mężczyzna,2022-05-28_09h16.16.019,task,2021.1.4,Win32,61.42128862,628b806c463b948bc644b84f,6291cc0ea42da326304b6943,,,,,,,,,,,"X V Q F H G B L J M P D K C T S W R N Z
",,,,,,,,,,,,,,,,,,,,,,,,,,,,,,,,,,,,,,,,,,,,,,,,,,,,,,,,,,,,,,,,,,,,,,,,,,,,2,0,2,0,1,,,,,,,,,,,,,
,,,,,,,,,605a4838b40613218220a77a,25,Mężczyzna,2022-05-28_09h16.16.019,task,2021.1.4,Win32,61.42128862,628b806c463b948bc644b84f,6291cc0ea42da326304b6943,,,,,,,,,,,,,,,,,,,,,,,,,,,,,,,,,,,,,,,,,,,,,,,,,,,,,,,,,,,,,,,,,,,,,,,,,,,,,,,,,,,,,,,,,,,,zbg,"[""z"",""b"",""g""]",0,"[1.683600000008937,1.8892000000030293,2.105799999997089,2.656500000000051]",0,WBG,1,0,1,0,1,,
,,,,,,,,,605a4838b40613218220a77a,25,Mężczyzna,2022-05-28_09h16.16.019,task,2021.1.4,Win32,61.42128862,628b806c463b948bc644b84f,6291cc0ea42da326304b6943,,,,,,,,,,,,,,,,,,,,,,,,2,,,,,,,,,,Task,26,(2x9) - 16,2,,,,,,,,,,,,,,,,,,,1,,,,,,,,,,,,,,,,,,,,,,,"[""2""]",1,[2.4503000000119073],0,0,0,25,1,,,,,,,,,,,,,,,,,,
,,,,,,,,,605a4838b40613218220a77a,25,Mężczyzna,2022-05-28_09h16.16.019,task,2021.1.4,Win32,61.42128862,628b806c463b948bc644b84f,6291cc0ea42da326304b6943,,,,,,,,,,,"X V Q F H G B L J M P D K C T S W R N Z
",,,,,,,,,,,,,,,,,,,,,,,,,,,,,,,,,,,,,,,,,,,,,,,,,,,,,,,,,,,,,,,,,,,,,,,,,,,,0,0,0,0,1,,,,,,,,,,,,,
,,,,,,,,,605a4838b40613218220a77a,25,Mężczyzna,2022-05-28_09h16.16.019,task,2021.1.4,Win32,61.42128862,628b806c463b948bc644b84f,6291cc0ea42da326304b6943,,,,,,,,,,,,,,,,,,,,,,,,8,,,,,,,,,,Task,23,(2x3) + 2,8,,,,,,,,,,,,,,,,,,,1,,,,,,,,,,,,,,,,,,,,,,,"[""8""]",1,[2.49350000000004],0,0,0,22,1,,,,,,,,,,,,,,,,,,
,,,,,,,,,605a4838b40613218220a77a,25,Mężczyzna,2022-05-28_09h16.16.019,task,2021.1.4,Win32,61.42128862,628b806c463b948bc644b84f,6291cc0ea42da326304b6943,,,,,,,,,,,"X V Q F H G B L J M P D K C T S W R N Z
",,,,,,,,,,,,,,,,,,,,,,,,,,,,,,,,,,,,,,,,,,,,,,,,,,,,,,,,,,,,,,,,,,,,,,,,,,,,1,0,1,0,1,,,,,,,,,,,,,
,,,,,,,,,605a4838b40613218220a77a,25,Mężczyzna,2022-05-28_09h16.16.019,task,2021.1.4,Win32,61.42128862,628b806c463b948bc644b84f,6291cc0ea42da326304b6943,,,,,,,,,,,,,,,,,,,,,,,,0,,,,,,,,,,Task,33,(1/1) - 1,0,,,,,,,,,,,,,,,,,,,1,,,,,,,,,,,,,,,,,,,,,,,"[""0""]",1,[2.4669999999999845],0,0,0,32,1,,,,,,,,,,,,,,,,,,
,,,,,,,,,605a4838b40613218220a77a,25,Mężczyzna,2022-05-28_09h16.16.019,task,2021.1.4,Win32,61.42128862,628b806c463b948bc644b84f,6291cc0ea42da326304b6943,,,,,,,,,,,"X V Q F H G B L J M P D K C T S W R N Z
",,,,,,,,,,,,,,,,,,,,,,,,,,,,,,,,,,,,,,,,,,,,,,,,,,,,,,,,,,,,,,,,,,,,,,,,,,,,2,0,2,0,1,,,,,,,,,,,,,
,,,,,,,,,605a4838b40613218220a77a,25,Mężczyzna,2022-05-28_09h16.16.019,task,2021.1.4,Win32,61.42128862,628b806c463b948bc644b84f,6291cc0ea42da326304b6943,,,,,,,,,,,,,,,,,,,,,,,,,,,,,,,,,,,,,,,,,,,,,,,,,,,,,,,,,,,,,,,,,,,,,,,,,,,,,,,,,,,,,,,,,,,,mbj,"[""m"",""b"",""j""]",0,"[1.5095000000000027,1.8367000000029066,2.227700000002983,2.8044000000058986]",1,MBJ,2,0,2,0,1,,
,,,,,,,,,605a4838b40613218220a77a,25,Mężczyzna,2022-05-28_09h16.16.019,task,2021.1.4,Win32,61.42128862,628b806c463b948bc644b84f,6291cc0ea42da326304b6943,,,,,,,,,,,,,,,,,,,,,,,,4,,,,,,,,,,Task,21,(10/2) - 1,4,,,,,,,,,,,,,,,,,,,1,,,,,,,,,,,,,,,,,,,,,,,"[""4""]",1,[1.8740000000000236],0,0,0,20,1,,,,,,,,,,,,,,,,,,
,,,,,,,,,605a4838b40613218220a77a,25,Mężczyzna,2022-05-28_09h16.16.019,task,2021.1.4,Win32,61.42128862,628b806c463b948bc644b84f,6291cc0ea42da326304b6943,,,,,,,,,,,"X V Q F H G B L J M P D K C T S W R N Z
",,,,,,,,,,,,,,,,,,,,,,,,,,,,,,,,,,,,,,,,,,,,,,,,,,,,,,,,,,,,,,,,,,,,,,,,,,,,0,0,0,0,1,,,,,,,,,,,,,
,,,,,,,,,605a4838b40613218220a77a,25,Mężczyzna,2022-05-28_09h16.16.019,task,2021.1.4,Win32,61.42128862,628b806c463b948bc644b84f,6291cc0ea42da326304b6943,,,,,,,,,,,,,,,,,,,,,,,,8,,,,,,,,,,Task,23,(2x3) + 2,8,,,,,,,,,,,,,,,,,,,1,,,,,,,,,,,,,,,,,,,,,,,"[""8""]",1,[3.018300000011891],0,0,0,22,1,,,,,,,,,,,,,,,,,,
,,,,,,,,,605a4838b40613218220a77a,25,Mężczyzna,2022-05-28_09h16.16.019,task,2021.1.4,Win32,61.42128862,628b806c463b948bc644b84f,6291cc0ea42da326304b6943,,,,,,,,,,,"X V Q F H G B L J M P D K C T S W R N Z
",,,,,,,,,,,,,,,,,,,,,,,,,,,,,,,,,,,,,,,,,,,,,,,,,,,,,,,,,,,,,,,,,,,,,,,,,,,,1,0,1,0,1,,,,,,,,,,,,,
,,,,,,,,,605a4838b40613218220a77a,25,Mężczyzna,2022-05-28_09h16.16.019,task,2021.1.4,Win32,61.42128862,628b806c463b948bc644b84f,6291cc0ea42da326304b6943,,,,,,,,,,,,,,,,,,,,,,,,9,,,,,,,,,,Task,14,(2x2) + 3,7,,,,,,,,,,,,,,,,,,,0,,,,,,,,,,,,,,,,,,,,,,,"[""9""]",0,[2.1822000000030357],0,0,0,13,1,,,,,,,,,,,,,,,,,,
,,,,,,,,,605a4838b40613218220a77a,25,Mężczyzna,2022-05-28_09h16.16.019,task,2021.1.4,Win32,61.42128862,628b806c463b948bc644b84f,6291cc0ea42da326304b6943,,,,,,,,,,,,,,,,,,,,,,,,1,,,,,,,,,,Task,34,(9/3) - 2,1,,,,,,,,,,,,,,,,,,,1,,,,,,,,,,,,,,,,,,,,,,,"[""1""]",1,[2.1240000000000236],0,1,1,33,1,,,,,,,,,,,,,,,,,,
,,,,,,,,,605a4838b40613218220a77a,25,Mężczyzna,2022-05-28_09h16.16.019,task,2021.1.4,Win32,61.42128862,628b806c463b948bc644b84f,6291cc0ea42da326304b6943,,,,,,,,,,,"X V Q F H G B L J M P D K C T S W R N Z
",,,,,,,,,,,,,,,,,,,,,,,,,,,,,,,,,,,,,,,,,,,,,,,,,,,,,,,,,,,,,,,,,,,,,,,,,,,,2,0,2,0,1,,,,,,,,,,,,,
,,,,,,,,,605a4838b40613218220a77a,25,Mężczyzna,2022-05-28_09h16.16.019,task,2021.1.4,Win32,61.42128862,628b806c463b948bc644b84f,6291cc0ea42da326304b6943,,,,,,,,,,,,,,,,,,,,,,,,1,,,,,,,,,,Task,34,(9/3) - 2,1,,,,,,,,,,,,,,,,,,,1,,,,,,,,,,,,,,,,,,,,,,,"[""1""]",1,[2.906600000009007],0,0,0,33,1,,,,,,,,,,,,,,,,,,
,,,,,,,,,605a4838b40613218220a77a,25,Mężczyzna,2022-05-28_09h16.16.019,task,2021.1.4,Win32,61.42128862,628b806c463b948bc644b84f,6291cc0ea42da326304b6943,,,,,,,,,,,"X V Q F H G B L J M P D K C T S W R N Z
",,,,,,,,,,,,,,,,,,,,,,,,,,,,,,,,,,,,,,,,,,,,,,,,,,,,,,,,,,,,,,,,,,,,,,,,,,,,3,0,3,0,1,,,,,,,,,,,,,
,,,,,,,,,605a4838b40613218220a77a,25,Mężczyzna,2022-05-28_09h16.16.019,task,2021.1.4,Win32,61.42128862,628b806c463b948bc644b84f,6291cc0ea42da326304b6943,,,,,,,,,,,,,,,,,,,,,,,,,,,,,,,,,,,,,,,,,,,,,,,,,,,,,,,,,,,,,,,,,,,,,,,,,,,,,,,,,,,,,,,,,,,,bjgr,"[""b"",""j"",""g"",""r""]",0,"[1.4968999999911148,1.9167999999971244,2.1947999999970307,2.4235000000001037,3.063399999991134]",1,BJGR,3,0,3,0,1,,
,,,,,,,,,605a4838b40613218220a77a,25,Mężczyzna,2022-05-28_09h16.16.019,task,2021.1.4,Win32,61.42128862,628b806c463b948bc644b84f,6291cc0ea42da326304b6943,,,,,,,,,,,,,,,,,,,,,,,,5,,,,,,,,,,Task,22,(3x1) + 2,5,,,,,,,,,,,,,,,,,,,1,,,,,,,,,,,,,,,,,,,,,,,"[""5""]",1,[4.488500000000045],0,0,0,21,1,,,,,,,,,,,,,,,,,,
,,,,,,,,,605a4838b40613218220a77a,25,Mężczyzna,2022-05-28_09h16.16.019,task,2021.1.4,Win32,61.42128862,628b806c463b948bc644b84f,6291cc0ea42da326304b6943,,,,,,,,,,,"X V Q F H G B L J M P D K C T S W R N Z
",,,,,,,,,,,,,,,,,,,,,,,,,,,,,,,,,,,,,,,,,,,,,,,,,,,,,,,,,,,,,,,,,,,,,,,,,,,,0,0,0,0,1,,,,,,,,,,,,,
,,,,,,,,,605a4838b40613218220a77a,25,Mężczyzna,2022-05-28_09h16.16.019,task,2021.1.4,Win32,61.42128862,628b806c463b948bc644b84f,6291cc0ea42da326304b6943,,,,,,,,,,,,,,,,,,,,,,,,0,,,,,,,,,,Task,8,(1x5) - 5,0,,,,,,,,,,,,,,,,,,,1,,,,,,,,,,,,,,,,,,,,,,,"[""0""]",1,[2],0,0,0,7,1,,,,,,,,,,,,,,,,,,
,,,,,,,,,605a4838b40613218220a77a,25,Mężczyzna,2022-05-28_09h16.16.019,task,2021.1.4,Win32,61.42128862,628b806c463b948bc644b84f,6291cc0ea42da326304b6943,,,,,,,,,,,"X V Q F H G B L J M P D K C T S W R N Z
",,,,,,,,,,,,,,,,,,,,,,,,,,,,,,,,,,,,,,,,,,,,,,,,,,,,,,,,,,,,,,,,,,,,,,,,,,,,1,0,1,0,1,,,,,,,,,,,,,
,,,,,,,,,605a4838b40613218220a77a,25,Mężczyzna,2022-05-28_09h16.16.019,task,2021.1.4,Win32,61.42128862,628b806c463b948bc644b84f,6291cc0ea42da326304b6943,,,,,,,,,,,,,,,,,,,,,,,,5,,,,,,,,,,Task,29,(3x8) - 19 ,5,,,,,,,,,,,,,,,,,,,1,,,,,,,,,,,,,,,,,,,,,,,"[""5""]",1,[2.176499999999919],0,0,0,28,1,,,,,,,,,,,,,,,,,,
,,,,,,,,,605a4838b40613218220a77a,25,Mężczyzna,2022-05-28_09h16.16.019,task,2021.1.4,Win32,61.42128862,628b806c463b948bc644b84f,6291cc0ea42da326304b6943,,,,,,,,,,,"X V Q F H G B L J M P D K C T S W R N Z
",,,,,,,,,,,,,,,,,,,,,,,,,,,,,,,,,,,,,,,,,,,,,,,,,,,,,,,,,,,,,,,,,,,,,,,,,,,,2,0,2,0,1,,,,,,,,,,,,,
,,,,,,,,,605a4838b40613218220a77a,25,Mężczyzna,2022-05-28_09h16.16.019,task,2021.1.4,Win32,61.42128862,628b806c463b948bc644b84f,6291cc0ea42da326304b6943,,,,,,,,,,,,,,,,,,,,,,,,0,,,,,,,,,,Task,8,(1x5) - 5,0,,,,,,,,,,,,,,,,,,,1,,,,,,,,,,,,,,,,,,,,,,,"[""0""]",1,[1.4491000000089116],0,0,0,7,1,,,,,,,,,,,,,,,,,,
,,,,,,,,,605a4838b40613218220a77a,25,Mężczyzna,2022-05-28_09h16.16.019,task,2021.1.4,Win32,61.42128862,628b806c463b948bc644b84f,6291cc0ea42da326304b6943,,,,,,,,,,,"X V Q F H G B L J M P D K C T S W R N Z
",,,,,,,,,,,,,,,,,,,,,,,,,,,,,,,,,,,,,,,,,,,,,,,,,,,,,,,,,,,,,,,,,,,,,,,,,,,,3,0,3,0,1,,,,,,,,,,,,,
,,,,,,,,,605a4838b40613218220a77a,25,Mężczyzna,2022-05-28_09h16.16.019,task,2021.1.4,Win32,61.42128862,628b806c463b948bc644b84f,6291cc0ea42da326304b6943,,,,,,,,,,,,,,,,,,,,,,,,4,,,,,,,,,,Task,11,(18/3) - 2,4,,,,,,,,,,,,,,,,,,,1,,,,,,,,,,,,,,,,,,,,,,,"[""4""]",1,[4.1117000000029975],0,0,0,10,1,,,,,,,,,,,,,,,,,,
,,,,,,,,,605a4838b40613218220a77a,25,Mężczyzna,2022-05-28_09h16.16.019,task,2021.1.4,Win32,61.42128862,628b806c463b948bc644b84f,6291cc0ea42da326304b6943,,,,,,,,,,,"X V Q F H G B L J M P D K C T S W R N Z
",,,,,,,,,,,,,,,,,,,,,,,,,,,,,,,,,,,,,,,,,,,,,,,,,,,,,,,,,,,,,,,,,,,,,,,,,,,,4,0,4,0,1,,,,,,,,,,,,,
,,,,,,,,,605a4838b40613218220a77a,25,Mężczyzna,2022-05-28_09h16.16.019,task,2021.1.4,Win32,61.42128862,628b806c463b948bc644b84f,6291cc0ea42da326304b6943,,,,,,,,,,,,,,,,,,,,,,,,,,,,,,,,,,,,,,,,,,,,,,,,,,,,,,,,,,,,,,,,,,,,,,,,,,,,,,,,,,,,,,,,,,,,xkmds,"[""x"",""k"",""m"",""d"",""s""]",0,"[1.3769000000060032,2.042100000008986,2.342700000002992,2.7602999999970734,3.0344000000060305,3.6772999999969898]",1,XKMDS,4,0,4,0,1,,
,,,,,,,,,605a4838b40613218220a77a,25,Mężczyzna,2022-05-28_09h16.16.019,task,2021.1.4,Win32,61.42128862,628b806c463b948bc644b84f,6291cc0ea42da326304b6943,,,,,,,,,,,,,,,,,,,,,,,,1,,,,,,,,,,Task,15,(3x7) - 13,8,,,,,,,,,,,,,,,,,,,0,,,,,,,,,,,,,,,,,,,,,,,"[""1""]",0,[3.233500000000049],0,0,0,14,1,,,,,,,,,,,,,,,,,,
,,,,,,,,,605a4838b40613218220a77a,25,Mężczyzna,2022-05-28_09h16.16.019,task,2021.1.4,Win32,61.42128862,628b806c463b948bc644b84f,6291cc0ea42da326304b6943,,,,,,,,,,,,,,,,,,,,,,,,8,,,,,,,,,,Task,39,(5x3) - 7,8,,,,,,,,,,,,,,,,,,,1,,,,,,,,,,,,,,,,,,,,,,,"[""8""]",1,[2.3012999999970134],0,1,1,38,1,,,,,,,,,,,,,,,,,,
,,,,,,,,,605a4838b40613218220a77a,25,Mężczyzna,2022-05-28_09h16.16.019,task,2021.1.4,Win32,61.42128862,628b806c463b948bc644b84f,6291cc0ea42da326304b6943,,,,,,,,,,,"X V Q F H G B L J M P D K C T S W R N Z
",,,,,,,,,,,,,,,,,,,,,,,,,,,,,,,,,,,,,,,,,,,,,,,,,,,,,,,,,,,,,,,,,,,,,,,,,,,,0,0,0,0,1,,,,,,,,,,,,,
,,,,,,,,,605a4838b40613218220a77a,25,Mężczyzna,2022-05-28_09h16.16.019,task,2021.1.4,Win32,61.42128862,628b806c463b948bc644b84f,6291cc0ea42da326304b6943,,,,,,,,,,,,,,,,,,,,,,,,3,,,,,,,,,,Task,27,(3/3) + 2,3,,,,,,,,,,,,,,,,,,,1,,,,,,,,,,,,,,,,,,,,,,,"[""3""]",1,[3.117100000008918],0,0,0,26,1,,,,,,,,,,,,,,,,,,
,,,,,,,,,605a4838b40613218220a77a,25,Mężczyzna,2022-05-28_09h16.16.019,task,2021.1.4,Win32,61.42128862,628b806c463b948bc644b84f,6291cc0ea42da326304b6943,,,,,,,,,,,"X V Q F H G B L J M P D K C T S W R N Z
",,,,,,,,,,,,,,,,,,,,,,,,,,,,,,,,,,,,,,,,,,,,,,,,,,,,,,,,,,,,,,,,,,,,,,,,,,,,1,0,1,0,1,,,,,,,,,,,,,
,,,,,,,,,605a4838b40613218220a77a,25,Mężczyzna,2022-05-28_09h16.16.019,task,2021.1.4,Win32,61.42128862,628b806c463b948bc644b84f,6291cc0ea42da326304b6943,,,,,,,,,,,,,,,,,,,,,,,,5,,,,,,,,,,Task,12,(4x4) - 11,5,,,,,,,,,,,,,,,,,,,1,,,,,,,,,,,,,,,,,,,,,,,"[""5""]",1,[2.3179000000059204],0,0,0,11,1,,,,,,,,,,,,,,,,,,
,,,,,,,,,605a4838b40613218220a77a,25,Mężczyzna,2022-05-28_09h16.16.019,task,2021.1.4,Win32,61.42128862,628b806c463b948bc644b84f,6291cc0ea42da326304b6943,,,,,,,,,,,"X V Q F H G B L J M P D K C T S W R N Z
",,,,,,,,,,,,,,,,,,,,,,,,,,,,,,,,,,,,,,,,,,,,,,,,,,,,,,,,,,,,,,,,,,,,,,,,,,,,2,0,2,0,1,,,,,,,,,,,,,
,,,,,,,,,605a4838b40613218220a77a,25,Mężczyzna,2022-05-28_09h16.16.019,task,2021.1.4,Win32,61.42128862,628b806c463b948bc644b84f,6291cc0ea42da326304b6943,,,,,,,,,,,,,,,,,,,,,,,,9,,,,,,,,,,Task,24,(2x2) + 5,9,,,,,,,,,,,,,,,,,,,1,,,,,,,,,,,,,,,,,,,,,,,"[""9""]",1,[2.2041000000090207],0,0,0,23,1,,,,,,,,,,,,,,,,,,
,,,,,,,,,605a4838b40613218220a77a,25,Mężczyzna,2022-05-28_09h16.16.019,task,2021.1.4,Win32,61.42128862,628b806c463b948bc644b84f,6291cc0ea42da326304b6943,,,,,,,,,,,"X V Q F H G B L J M P D K C T S W R N Z
",,,,,,,,,,,,,,,,,,,,,,,,,,,,,,,,,,,,,,,,,,,,,,,,,,,,,,,,,,,,,,,,,,,,,,,,,,,,3,0,3,0,1,,,,,,,,,,,,,
,,,,,,,,,605a4838b40613218220a77a,25,Mężczyzna,2022-05-28_09h16.16.019,task,2021.1.4,Win32,61.42128862,628b806c463b948bc644b84f,6291cc0ea42da326304b6943,,,,,,,,,,,,,,,,,,,,,,,,2,,,,,,,,,,Task,2,(2x2) - 2,2,,,,,,,,,,,,,,,,,,,1,,,,,,,,,,,,,,,,,,,,,,,"[""2""]",1,[2.13810000000899],0,0,0,1,1,,,,,,,,,,,,,,,,,,
,,,,,,,,,605a4838b40613218220a77a,25,Mężczyzna,2022-05-28_09h16.16.019,task,2021.1.4,Win32,61.42128862,628b806c463b948bc644b84f,6291cc0ea42da326304b6943,,,,,,,,,,,"X V Q F H G B L J M P D K C T S W R N Z
",,,,,,,,,,,,,,,,,,,,,,,,,,,,,,,,,,,,,,,,,,,,,,,,,,,,,,,,,,,,,,,,,,,,,,,,,,,,4,0,4,0,1,,,,,,,,,,,,,
,,,,,,,,,605a4838b40613218220a77a,25,Mężczyzna,2022-05-28_09h16.16.019,task,2021.1.4,Win32,61.42128862,628b806c463b948bc644b84f,6291cc0ea42da326304b6943,,,,,,,,,,,,,,,,,,,,,,,,4,,,,,,,,,,Task,11,(18/3) - 2,4,,,,,,,,,,,,,,,,,,,1,,,,,,,,,,,,,,,,,,,,,,,"[""4""]",1,[2.938200000002894],0,0,0,10,1,,,,,,,,,,,,,,,,,,
,,,,,,,,,605a4838b40613218220a77a,25,Mężczyzna,2022-05-28_09h16.16.019,task,2021.1.4,Win32,61.42128862,628b806c463b948bc644b84f,6291cc0ea42da326304b6943,,,,,,,,,,,"X V Q F H G B L J M P D K C T S W R N Z
",,,,,,,,,,,,,,,,,,,,,,,,,,,,,,,,,,,,,,,,,,,,,,,,,,,,,,,,,,,,,,,,,,,,,,,,,,,,5,0,5,0,1,,,,,,,,,,,,,
,,,,,,,,,605a4838b40613218220a77a,25,Mężczyzna,2022-05-28_09h16.16.019,task,2021.1.4,Win32,61.42128862,628b806c463b948bc644b84f,6291cc0ea42da326304b6943,,,,,,,,,,,,,,,,,,,,,,,,,,,,,,,,,,,,,,,,,,,,,,,,,,,,,,,,,,,,,,,,,,,,,,,,,,,,,,,,,,,,,,,,,,,,bndhjb,"[""b"",""n"",""d"",""h"",""j"",""b""]",0,"[1.760099999994054,2.3210999999940896,2.868099999994115,3.300299999997037,3.723799999997027,4.029399999991142,4.725200000003042]",1,BNDHJB,5,0,5,0,1,,
,,,,,,,,,605a4838b40613218220a77a,25,Mężczyzna,2022-05-28_09h16.16.019,task,2021.1.4,Win32,61.42128862,628b806c463b948bc644b84f,6291cc0ea42da326304b6943,,,,,,,,,,,,,,,,,,,,,,,,1,,,,,,,,,,Task,9,(3x7) - 20,1,,,,,,,,,,,,,,,,,,,1,,,,,,,,,,,,,,,,,,,,,,,"[""1""]",1,[3.0578999999910366],0,0,0,8,1,,,,,,,,,,,,,,,,,,
,,,,,,,,,605a4838b40613218220a77a,25,Mężczyzna,2022-05-28_09h16.16.019,task,2021.1.4,Win32,61.42128862,628b806c463b948bc644b84f,6291cc0ea42da326304b6943,,,,,,,,,,,"X V Q F H G B L J M P D K C T S W R N Z
",,,,,,,,,,,,,,,,,,,,,,,,,,,,,,,,,,,,,,,,,,,,,,,,,,,,,,,,,,,,,,,,,,,,,,,,,,,,0,0,0,0,1,,,,,,,,,,,,,
,,,,,,,,,605a4838b40613218220a77a,25,Mężczyzna,2022-05-28_09h16.16.019,task,2021.1.4,Win32,61.42128862,628b806c463b948bc644b84f,6291cc0ea42da326304b6943,,,,,,,,,,,,,,,,,,,,,,,,9,,,,,,,,,,Task,7,(3x7) - 12,9,,,,,,,,,,,,,,,,,,,1,,,,,,,,,,,,,,,,,,,,,,,"[""9""]",1,[3.589100000008898],0,0,0,6,1,,,,,,,,,,,,,,,,,,
,,,,,,,,,605a4838b40613218220a77a,25,Mężczyzna,2022-05-28_09h16.16.019,task,2021.1.4,Win32,61.42128862,628b806c463b948bc644b84f,6291cc0ea42da326304b6943,,,,,,,,,,,"X V Q F H G B L J M P D K C T S W R N Z
",,,,,,,,,,,,,,,,,,,,,,,,,,,,,,,,,,,,,,,,,,,,,,,,,,,,,,,,,,,,,,,,,,,,,,,,,,,,1,0,1,0,1,,,,,,,,,,,,,
,,,,,,,,,605a4838b40613218220a77a,25,Mężczyzna,2022-05-28_09h16.16.019,task,2021.1.4,Win32,61.42128862,628b806c463b948bc644b84f,6291cc0ea42da326304b6943,,,,,,,,,,,,,,,,,,,,,,,,0,,,,,,,,,,Task,17,(2x3) - 6,0,,,,,,,,,,,,,,,,,,,1,,,,,,,,,,,,,,,,,,,,,,,"[""0""]",1,[1.7601999999881173],0,0,0,16,1,,,,,,,,,,,,,,,,,,
,,,,,,,,,605a4838b40613218220a77a,25,Mężczyzna,2022-05-28_09h16.16.019,task,2021.1.4,Win32,61.42128862,628b806c463b948bc644b84f,6291cc0ea42da326304b6943,,,,,,,,,,,"X V Q F H G B L J M P D K C T S W R N Z
",,,,,,,,,,,,,,,,,,,,,,,,,,,,,,,,,,,,,,,,,,,,,,,,,,,,,,,,,,,,,,,,,,,,,,,,,,,,2,0,2,0,1,,,,,,,,,,,,,
,,,,,,,,,605a4838b40613218220a77a,25,Mężczyzna,2022-05-28_09h16.16.019,task,2021.1.4,Win32,61.42128862,628b806c463b948bc644b84f,6291cc0ea42da326304b6943,,,,,,,,,,,,,,,,,,,,,,,,5,,,,,,,,,,Task,12,(4x4) - 11,5,,,,,,,,,,,,,,,,,,,1,,,,,,,,,,,,,,,,,,,,,,,"[""5""]",1,[1.7090999999940095],0,0,0,11,1,,,,,,,,,,,,,,,,,,
,,,,,,,,,605a4838b40613218220a77a,25,Mężczyzna,2022-05-28_09h16.16.019,task,2021.1.4,Win32,61.42128862,628b806c463b948bc644b84f,6291cc0ea42da326304b6943,,,,,,,,,,,"X V Q F H G B L J M P D K C T S W R N Z
",,,,,,,,,,,,,,,,,,,,,,,,,,,,,,,,,,,,,,,,,,,,,,,,,,,,,,,,,,,,,,,,,,,,,,,,,,,,3,0,3,0,1,,,,,,,,,,,,,
,,,,,,,,,605a4838b40613218220a77a,25,Mężczyzna,2022-05-28_09h16.16.019,task,2021.1.4,Win32,61.42128862,628b806c463b948bc644b84f,6291cc0ea42da326304b6943,,,,,,,,,,,,,,,,,,,,,,,,0,,,,,,,,,,Task,17,(2x3) - 6,0,,,,,,,,,,,,,,,,,,,1,,,,,,,,,,,,,,,,,,,,,,,"[""0""]",1,[2.892200000003072],0,0,0,16,1,,,,,,,,,,,,,,,,,,
,,,,,,,,,605a4838b40613218220a77a,25,Mężczyzna,2022-05-28_09h16.16.019,task,2021.1.4,Win32,61.42128862,628b806c463b948bc644b84f,6291cc0ea42da326304b6943,,,,,,,,,,,"X V Q F H G B L J M P D K C T S W R N Z
",,,,,,,,,,,,,,,,,,,,,,,,,,,,,,,,,,,,,,,,,,,,,,,,,,,,,,,,,,,,,,,,,,,,,,,,,,,,4,0,4,0,1,,,,,,,,,,,,,
,,,,,,,,,605a4838b40613218220a77a,25,Mężczyzna,2022-05-28_09h16.16.019,task,2021.1.4,Win32,61.42128862,628b806c463b948bc644b84f,6291cc0ea42da326304b6943,,,,,,,,,,,,,,,,,,,,,,,,1,,,,,,,,,,Task,9,(3x7) - 20,1,,,,,,,,,,,,,,,,,,,1,,,,,,,,,,,,,,,,,,,,,,,"[""1""]",1,[2.773600000008969],0,0,0,8,1,,,,,,,,,,,,,,,,,,
,,,,,,,,,605a4838b40613218220a77a,25,Mężczyzna,2022-05-28_09h16.16.019,task,2021.1.4,Win32,61.42128862,628b806c463b948bc644b84f,6291cc0ea42da326304b6943,,,,,,,,,,,"X V Q F H G B L J M P D K C T S W R N Z
",,,,,,,,,,,,,,,,,,,,,,,,,,,,,,,,,,,,,,,,,,,,,,,,,,,,,,,,,,,,,,,,,,,,,,,,,,,,5,0,5,0,1,,,,,,,,,,,,,
