key_resp_15.keys,key_resp_15.rt,key_resp_16.keys,key_resp_16.rt,key_resp_4.keys,key_resp_4.rt,next_letter.thisRepN,next_letter.thisTrialN,next_letter.thisN,next_letter.thisIndex,next_letter.ran,letter,participant,Wiek*,Płeć,date,expName,psychopyVersion,OS,frameRate,study_id,session,simple_recall,key_resp_5.keys,key_resp_5.rt,simple_recall_corr,simple_recall_corrkeys,next_level.thisRepN,next_level.thisTrialN,next_level.thisN,next_level.thisIndex,next_level.ran,key_resp_2.keys,key_resp_2.rt,digit_answer,key_resp.keys,key_resp.corr,key_resp.rt,RT_list,next_equation.thisRepN,next_equation.thisTrialN,next_equation.thisN,next_equation.thisIndex,next_equation.ran,Task,Trial,Problem,Operation_answer,processing_score,sumRT,meanRT,sumdiff,sd,RT,key_resp_3.keys,key_resp_3.rt,repeat_practice.thisRepN,repeat_practice.thisTrialN,repeat_practice.thisN,repeat_practice.thisIndex,repeat_practice.ran,key_resp_6.keys,key_resp_6.rt,key_resp_11.keys,key_resp_11.corr,key_resp_11.rt,operation_correct,repeat_if_wrong_prac.thisRepN,repeat_if_wrong_prac.thisTrialN,repeat_if_wrong_prac.thisN,repeat_if_wrong_prac.thisIndex,repeat_if_wrong_prac.ran,span_size_prac.thisRepN,span_size_prac.thisTrialN,span_size_prac.thisN,span_size_prac.thisIndex,span_size_prac.ran,complex_recall_practice,key_resp_9.keys,key_resp_9.corr,key_resp_9.rt,complex_prac_corr,span_recall_prac.thisRepN,span_recall_prac.thisTrialN,span_recall_prac.thisN,span_recall_prac.thisIndex,span_recall_prac.ran,key_resp_10.keys,key_resp_10.rt,key_resp_7.keys,key_resp_7.corr,key_resp_7.rt,repeat_if_wrong.thisRepN,repeat_if_wrong.thisTrialN,repeat_if_wrong.thisN,repeat_if_wrong.thisIndex,repeat_if_wrong.ran,span_size.thisRepN,span_size.thisTrialN,span_size.thisN,span_size.thisIndex,span_size.ran,complex_recall,key_resp_8.keys,key_resp_8.corr,key_resp_8.rt,complex_recall_corr,complex_recall_corrkeys,span_recall.thisRepN,span_recall.thisTrialN,span_recall.thisN,span_recall.thisIndex,span_recall.ran,key_resp_13.keys,key_resp_13.corr,key_resp_13.rt,random_loop.thisRepN,random_loop.thisTrialN,random_loop.thisN,random_loop.thisIndex,random_loop.ran,key_resp_12.keys,key_resp_12.rt
space,15.866,space,14.2183,space,6.6056,0,0,0,0,1,X V Q F H G B L J M P D K C T S W R N Z,605d4ea84a5079897ed0d89c,22,Mężczyzna,2022-06-11_09h38.49.449,task,2021.1.4,Win32,144.092219,6299f149e92ead563fba08ef,62a4467fc0844f041c0f4970,,,,,,,,,,,,,,,,,,,,,,,,,,,,,,,,,,,,,,,,,,,,,,,,,,,,,,,,,,,,,,,,,,,,,,,,,,,,,,,,,,,,,,,,,,,,,,,,,,,,,
,,,,,,1,0,1,0,1,X V Q F H G B L J M P D K C T S W R N Z,605d4ea84a5079897ed0d89c,22,Mężczyzna,2022-06-11_09h38.49.449,task,2021.1.4,Win32,144.092219,6299f149e92ead563fba08ef,62a4467fc0844f041c0f4970,,,,,,,,,,,,,,,,,,,,,,,,,,,,,,,,,,,,,,,,,,,,,,,,,,,,,,,,,,,,,,,,,,,,,,,,,,,,,,,,,,,,,,,,,,,,,,,,,,,,,
,,,,,,,,,,,,605d4ea84a5079897ed0d89c,22,Mężczyzna,2022-06-11_09h38.49.449,task,2021.1.4,Win32,144.092219,6299f149e92ead563fba08ef,62a4467fc0844f041c0f4970,zg,"[""z"",""g""]","[1.9579999999999984,3.240100000023837,4.806699999988076]",1,ZG,0,0,0,0,1,,,,,,,,,,,,,,,,,,,,,,,,,,,,,,,,,,,,,,,,,,,,,,,,,,,,,,,,,,,,,,,,,,,,,,,,,,,,,,,,,,,,,,,,,,,
,,,,,,0,0,0,0,1,X V Q F H G B L J M P D K C T S W R N Z,605d4ea84a5079897ed0d89c,22,Mężczyzna,2022-06-11_09h38.49.449,task,2021.1.4,Win32,144.092219,6299f149e92ead563fba08ef,62a4467fc0844f041c0f4970,,,,,,,,,,,,,,,,,,,,,,,,,,,,,,,,,,,,,,,,,,,,,,,,,,,,,,,,,,,,,,,,,,,,,,,,,,,,,,,,,,,,,,,,,,,,,,,,,,,,,
,,,,,,1,0,1,0,1,X V Q F H G B L J M P D K C T S W R N Z,605d4ea84a5079897ed0d89c,22,Mężczyzna,2022-06-11_09h38.49.449,task,2021.1.4,Win32,144.092219,6299f149e92ead563fba08ef,62a4467fc0844f041c0f4970,,,,,,,,,,,,,,,,,,,,,,,,,,,,,,,,,,,,,,,,,,,,,,,,,,,,,,,,,,,,,,,,,,,,,,,,,,,,,,,,,,,,,,,,,,,,,,,,,,,,,
,,,,,,,,,,,,605d4ea84a5079897ed0d89c,22,Mężczyzna,2022-06-11_09h38.49.449,task,2021.1.4,Win32,144.092219,6299f149e92ead563fba08ef,62a4467fc0844f041c0f4970,pc,"[""p"",""c""]","[1.2358999999761622,1.577899999976161,2.8780999999642347]",1,PC,1,0,1,0,1,,,,,,,,,,,,,,,,,,,,,,,,,,,,,,,,,,,,,,,,,,,,,,,,,,,,,,,,,,,,,,,,,,,,,,,,,,,,,,,,,,,,,,,,,,,
,,,,,,0,0,0,0,1,X V Q F H G B L J M P D K C T S W R N Z,605d4ea84a5079897ed0d89c,22,Mężczyzna,2022-06-11_09h38.49.449,task,2021.1.4,Win32,144.092219,6299f149e92ead563fba08ef,62a4467fc0844f041c0f4970,,,,,,,,,,,,,,,,,,,,,,,,,,,,,,,,,,,,,,,,,,,,,,,,,,,,,,,,,,,,,,,,,,,,,,,,,,,,,,,,,,,,,,,,,,,,,,,,,,,,,
,,,,,,1,0,1,0,1,X V Q F H G B L J M P D K C T S W R N Z,605d4ea84a5079897ed0d89c,22,Mężczyzna,2022-06-11_09h38.49.449,task,2021.1.4,Win32,144.092219,6299f149e92ead563fba08ef,62a4467fc0844f041c0f4970,,,,,,,,,,,,,,,,,,,,,,,,,,,,,,,,,,,,,,,,,,,,,,,,,,,,,,,,,,,,,,,,,,,,,,,,,,,,,,,,,,,,,,,,,,,,,,,,,,,,,
,,,,,,2,0,2,0,1,X V Q F H G B L J M P D K C T S W R N Z,605d4ea84a5079897ed0d89c,22,Mężczyzna,2022-06-11_09h38.49.449,task,2021.1.4,Win32,144.092219,6299f149e92ead563fba08ef,62a4467fc0844f041c0f4970,,,,,,,,,,,,,,,,,,,,,,,,,,,,,,,,,,,,,,,,,,,,,,,,,,,,,,,,,,,,,,,,,,,,,,,,,,,,,,,,,,,,,,,,,,,,,,,,,,,,,
,,,,,,,,,,,,605d4ea84a5079897ed0d89c,22,Mężczyzna,2022-06-11_09h38.49.449,task,2021.1.4,Win32,144.092219,6299f149e92ead563fba08ef,62a4467fc0844f041c0f4970,vnk,"[""v"",""n"",""k""]","[0.5335999999642311,0.7094999999999985,1.3825999999642349,1.7086999999880774]",1,VNK,2,0,2,0,1,,,,,,,,,,,,,,,,,,,,,,,,,,,,,,,,,,,,,,,,,,,,,,,,,,,,,,,,,,,,,,,,,,,,,,,,,,,,,,,,,,,,,,,,,,,
,,,,,,0,0,0,0,1,X V Q F H G B L J M P D K C T S W R N Z,605d4ea84a5079897ed0d89c,22,Mężczyzna,2022-06-11_09h38.49.449,task,2021.1.4,Win32,144.092219,6299f149e92ead563fba08ef,62a4467fc0844f041c0f4970,,,,,,,,,,,,,,,,,,,,,,,,,,,,,,,,,,,,,,,,,,,,,,,,,,,,,,,,,,,,,,,,,,,,,,,,,,,,,,,,,,,,,,,,,,,,,,,,,,,,,
,,,,,,1,0,1,0,1,X V Q F H G B L J M P D K C T S W R N Z,605d4ea84a5079897ed0d89c,22,Mężczyzna,2022-06-11_09h38.49.449,task,2021.1.4,Win32,144.092219,6299f149e92ead563fba08ef,62a4467fc0844f041c0f4970,,,,,,,,,,,,,,,,,,,,,,,,,,,,,,,,,,,,,,,,,,,,,,,,,,,,,,,,,,,,,,,,,,,,,,,,,,,,,,,,,,,,,,,,,,,,,,,,,,,,,
,,,,,,2,0,2,0,1,X V Q F H G B L J M P D K C T S W R N Z,605d4ea84a5079897ed0d89c,22,Mężczyzna,2022-06-11_09h38.49.449,task,2021.1.4,Win32,144.092219,6299f149e92ead563fba08ef,62a4467fc0844f041c0f4970,,,,,,,,,,,,,,,,,,,,,,,,,,,,,,,,,,,,,,,,,,,,,,,,,,,,,,,,,,,,,,,,,,,,,,,,,,,,,,,,,,,,,,,,,,,,,,,,,,,,,
,,,,,,,,,,,,605d4ea84a5079897ed0d89c,22,Mężczyzna,2022-06-11_09h38.49.449,task,2021.1.4,Win32,144.092219,6299f149e92ead563fba08ef,62a4467fc0844f041c0f4970,qgq,"[""q"",""g"",""q""]","[1.1979999999999933,1.5450000000000017,1.7780999999642404,2.5810999999642377]",1,QGQ,3,0,3,0,1,,,,,,,,,,,,,,,,,,,,,,,,,,,,,,,,,,,,,,,,,,,,,,,,,,,,,,,,,,,,,,,,,,,,,,,,,,,,,,,,,,,,,,,,,,,
,,,,,,0,0,0,0,1,X V Q F H G B L J M P D K C T S W R N Z,605d4ea84a5079897ed0d89c,22,Mężczyzna,2022-06-11_09h38.49.449,task,2021.1.4,Win32,144.092219,6299f149e92ead563fba08ef,62a4467fc0844f041c0f4970,,,,,,,,,,,,,,,,,,,,,,,,,,,,,,,,,,,,,,,,,,,,,,,,,,,,,,,,,,,,,,,,,,,,,,,,,,,,,,,,,,,,,,,,,,,,,,,,,,,,,
,,,,,,1,0,1,0,1,X V Q F H G B L J M P D K C T S W R N Z,605d4ea84a5079897ed0d89c,22,Mężczyzna,2022-06-11_09h38.49.449,task,2021.1.4,Win32,144.092219,6299f149e92ead563fba08ef,62a4467fc0844f041c0f4970,,,,,,,,,,,,,,,,,,,,,,,,,,,,,,,,,,,,,,,,,,,,,,,,,,,,,,,,,,,,,,,,,,,,,,,,,,,,,,,,,,,,,,,,,,,,,,,,,,,,,
,,,,,,2,0,2,0,1,X V Q F H G B L J M P D K C T S W R N Z,605d4ea84a5079897ed0d89c,22,Mężczyzna,2022-06-11_09h38.49.449,task,2021.1.4,Win32,144.092219,6299f149e92ead563fba08ef,62a4467fc0844f041c0f4970,,,,,,,,,,,,,,,,,,,,,,,,,,,,,,,,,,,,,,,,,,,,,,,,,,,,,,,,,,,,,,,,,,,,,,,,,,,,,,,,,,,,,,,,,,,,,,,,,,,,,
,,,,,,3,0,3,0,1,X V Q F H G B L J M P D K C T S W R N Z,605d4ea84a5079897ed0d89c,22,Mężczyzna,2022-06-11_09h38.49.449,task,2021.1.4,Win32,144.092219,6299f149e92ead563fba08ef,62a4467fc0844f041c0f4970,,,,,,,,,,,,,,,,,,,,,,,,,,,,,,,,,,,,,,,,,,,,,,,,,,,,,,,,,,,,,,,,,,,,,,,,,,,,,,,,,,,,,,,,,,,,,,,,,,,,,
,,,,,,,,,,,,605d4ea84a5079897ed0d89c,22,Mężczyzna,2022-06-11_09h38.49.449,task,2021.1.4,Win32,144.092219,6299f149e92ead563fba08ef,62a4467fc0844f041c0f4970,tnkv,"[""t"",""n"",""k"",""v""]","[0.8298000000119288,1.3008000000119324,1.7568000000119213,2.020699999988082,2.569900000035773]",1,TNKV,4,0,4,0,1,,,,,,,,,,,,,,,,,,,,,,,,,,,,,,,,,,,,,,,,,,,,,,,,,,,,,,,,,,,,,,,,,,,,,,,,,,,,,,,,,,,,,,,,,,,
,,,,,,0,0,0,0,1,X V Q F H G B L J M P D K C T S W R N Z,605d4ea84a5079897ed0d89c,22,Mężczyzna,2022-06-11_09h38.49.449,task,2021.1.4,Win32,144.092219,6299f149e92ead563fba08ef,62a4467fc0844f041c0f4970,,,,,,,,,,,,,,,,,,,,,,,,,,,,,,,,,,,,,,,,,,,,,,,,,,,,,,,,,,,,,,,,,,,,,,,,,,,,,,,,,,,,,,,,,,,,,,,,,,,,,
,,,,,,1,0,1,0,1,X V Q F H G B L J M P D K C T S W R N Z,605d4ea84a5079897ed0d89c,22,Mężczyzna,2022-06-11_09h38.49.449,task,2021.1.4,Win32,144.092219,6299f149e92ead563fba08ef,62a4467fc0844f041c0f4970,,,,,,,,,,,,,,,,,,,,,,,,,,,,,,,,,,,,,,,,,,,,,,,,,,,,,,,,,,,,,,,,,,,,,,,,,,,,,,,,,,,,,,,,,,,,,,,,,,,,,
,,,,,,2,0,2,0,1,X V Q F H G B L J M P D K C T S W R N Z,605d4ea84a5079897ed0d89c,22,Mężczyzna,2022-06-11_09h38.49.449,task,2021.1.4,Win32,144.092219,6299f149e92ead563fba08ef,62a4467fc0844f041c0f4970,,,,,,,,,,,,,,,,,,,,,,,,,,,,,,,,,,,,,,,,,,,,,,,,,,,,,,,,,,,,,,,,,,,,,,,,,,,,,,,,,,,,,,,,,,,,,,,,,,,,,
,,,,,,3,0,3,0,1,X V Q F H G B L J M P D K C T S W R N Z,605d4ea84a5079897ed0d89c,22,Mężczyzna,2022-06-11_09h38.49.449,task,2021.1.4,Win32,144.092219,6299f149e92ead563fba08ef,62a4467fc0844f041c0f4970,,,,,,,,,,,,,,,,,,,,,,,,,,,,,,,,,,,,,,,,,,,,,,,,,,,,,,,,,,,,,,,,,,,,,,,,,,,,,,,,,,,,,,,,,,,,,,,,,,,,,
,,,,,,,,,,,,605d4ea84a5079897ed0d89c,22,Mężczyzna,2022-06-11_09h38.49.449,task,2021.1.4,Win32,144.092219,6299f149e92ead563fba08ef,62a4467fc0844f041c0f4970,dzgj,"[""d"",""z"",""g"",""j""]","[1.1893999999761604,1.4585000000000008,1.8953000000119147,2.271500000000003,2.8536999999880805]",1,DZGJ,5,0,5,0,1,,,,,,,,,,,,,,,,,,,,,,,,,,,,,,,,,,,,,,,,,,,,,,,,,,,,,,,,,,,,,,,,,,,,,,,,,,,,,,,,,,,,,,,,,,,
,,,,,,0,0,0,0,1,X V Q F H G B L J M P D K C T S W R N Z,605d4ea84a5079897ed0d89c,22,Mężczyzna,2022-06-11_09h38.49.449,task,2021.1.4,Win32,144.092219,6299f149e92ead563fba08ef,62a4467fc0844f041c0f4970,,,,,,,,,,,,,,,,,,,,,,,,,,,,,,,,,,,,,,,,,,,,,,,,,,,,,,,,,,,,,,,,,,,,,,,,,,,,,,,,,,,,,,,,,,,,,,,,,,,,,
,,,,,,1,0,1,0,1,X V Q F H G B L J M P D K C T S W R N Z,605d4ea84a5079897ed0d89c,22,Mężczyzna,2022-06-11_09h38.49.449,task,2021.1.4,Win32,144.092219,6299f149e92ead563fba08ef,62a4467fc0844f041c0f4970,,,,,,,,,,,,,,,,,,,,,,,,,,,,,,,,,,,,,,,,,,,,,,,,,,,,,,,,,,,,,,,,,,,,,,,,,,,,,,,,,,,,,,,,,,,,,,,,,,,,,
,,,,,,2,0,2,0,1,X V Q F H G B L J M P D K C T S W R N Z,605d4ea84a5079897ed0d89c,22,Mężczyzna,2022-06-11_09h38.49.449,task,2021.1.4,Win32,144.092219,6299f149e92ead563fba08ef,62a4467fc0844f041c0f4970,,,,,,,,,,,,,,,,,,,,,,,,,,,,,,,,,,,,,,,,,,,,,,,,,,,,,,,,,,,,,,,,,,,,,,,,,,,,,,,,,,,,,,,,,,,,,,,,,,,,,
,,,,,,3,0,3,0,1,X V Q F H G B L J M P D K C T S W R N Z,605d4ea84a5079897ed0d89c,22,Mężczyzna,2022-06-11_09h38.49.449,task,2021.1.4,Win32,144.092219,6299f149e92ead563fba08ef,62a4467fc0844f041c0f4970,,,,,,,,,,,,,,,,,,,,,,,,,,,,,,,,,,,,,,,,,,,,,,,,,,,,,,,,,,,,,,,,,,,,,,,,,,,,,,,,,,,,,,,,,,,,,,,,,,,,,
,,,,,,4,0,4,0,1,X V Q F H G B L J M P D K C T S W R N Z,605d4ea84a5079897ed0d89c,22,Mężczyzna,2022-06-11_09h38.49.449,task,2021.1.4,Win32,144.092219,6299f149e92ead563fba08ef,62a4467fc0844f041c0f4970,,,,,,,,,,,,,,,,,,,,,,,,,,,,,,,,,,,,,,,,,,,,,,,,,,,,,,,,,,,,,,,,,,,,,,,,,,,,,,,,,,,,,,,,,,,,,,,,,,,,,
,,,,,,,,,,,,605d4ea84a5079897ed0d89c,22,Mężczyzna,2022-06-11_09h38.49.449,task,2021.1.4,Win32,144.092219,6299f149e92ead563fba08ef,62a4467fc0844f041c0f4970,zkqcg,"[""z"",""k"",""q"",""c"",""g""]","[0.5613000000119115,1.296999999999997,2.3180999999642324,2.9585999999642354,3.5226999999880775,4.026300000011915]",0,ZKQCH,6,0,6,0,1,,,,,,,,,,,,,,,,,,,,,,,,,,,,,,,,,,,,,,,,,,,,,,,,,,,,,,,,,,,,,,,,,,,,,,,,,,,,,,,,,,,,,,,,,,,
,,,,,,0,0,0,0,1,X V Q F H G B L J M P D K C T S W R N Z,605d4ea84a5079897ed0d89c,22,Mężczyzna,2022-06-11_09h38.49.449,task,2021.1.4,Win32,144.092219,6299f149e92ead563fba08ef,62a4467fc0844f041c0f4970,,,,,,,,,,,,,,,,,,,,,,,,,,,,,,,,,,,,,,,,,,,,,,,,,,,,,,,,,,,,,,,,,,,,,,,,,,,,,,,,,,,,,,,,,,,,,,,,,,,,,
,,,,,,1,0,1,0,1,X V Q F H G B L J M P D K C T S W R N Z,605d4ea84a5079897ed0d89c,22,Mężczyzna,2022-06-11_09h38.49.449,task,2021.1.4,Win32,144.092219,6299f149e92ead563fba08ef,62a4467fc0844f041c0f4970,,,,,,,,,,,,,,,,,,,,,,,,,,,,,,,,,,,,,,,,,,,,,,,,,,,,,,,,,,,,,,,,,,,,,,,,,,,,,,,,,,,,,,,,,,,,,,,,,,,,,
,,,,,,2,0,2,0,1,X V Q F H G B L J M P D K C T S W R N Z,605d4ea84a5079897ed0d89c,22,Mężczyzna,2022-06-11_09h38.49.449,task,2021.1.4,Win32,144.092219,6299f149e92ead563fba08ef,62a4467fc0844f041c0f4970,,,,,,,,,,,,,,,,,,,,,,,,,,,,,,,,,,,,,,,,,,,,,,,,,,,,,,,,,,,,,,,,,,,,,,,,,,,,,,,,,,,,,,,,,,,,,,,,,,,,,
,,,,,,3,0,3,0,1,X V Q F H G B L J M P D K C T S W R N Z,605d4ea84a5079897ed0d89c,22,Mężczyzna,2022-06-11_09h38.49.449,task,2021.1.4,Win32,144.092219,6299f149e92ead563fba08ef,62a4467fc0844f041c0f4970,,,,,,,,,,,,,,,,,,,,,,,,,,,,,,,,,,,,,,,,,,,,,,,,,,,,,,,,,,,,,,,,,,,,,,,,,,,,,,,,,,,,,,,,,,,,,,,,,,,,,
,,,,,,4,0,4,0,1,X V Q F H G B L J M P D K C T S W R N Z,605d4ea84a5079897ed0d89c,22,Mężczyzna,2022-06-11_09h38.49.449,task,2021.1.4,Win32,144.092219,6299f149e92ead563fba08ef,62a4467fc0844f041c0f4970,,,,,,,,,,,,,,,,,,,,,,,,,,,,,,,,,,,,,,,,,,,,,,,,,,,,,,,,,,,,,,,,,,,,,,,,,,,,,,,,,,,,,,,,,,,,,,,,,,,,,
,,,,,,,,,,,,605d4ea84a5079897ed0d89c,22,Mężczyzna,2022-06-11_09h38.49.449,task,2021.1.4,Win32,144.092219,6299f149e92ead563fba08ef,62a4467fc0844f041c0f4970,rwdfd,"[""r"",""w"",""d"",""f"",""d""]","[0.7011000000238425,0.9658000000119245,1.218999999999994,1.6448000000119265,2.0801000000238474,2.721199999988073]",1,RWDFD,7,0,7,0,1,,,,,,,,,,,,,,,,,,,,,,,,,,,,,,,,,,,,,,,,,,,,,,,,,,,,,,,,,,,,,,,,,,,,,,,,,,,,,,,,,,,,,,,,,,,
,,,,,,0,0,0,0,1,X V Q F H G B L J M P D K C T S W R N Z,605d4ea84a5079897ed0d89c,22,Mężczyzna,2022-06-11_09h38.49.449,task,2021.1.4,Win32,144.092219,6299f149e92ead563fba08ef,62a4467fc0844f041c0f4970,,,,,,,,,,,,,,,,,,,,,,,,,,,,,,,,,,,,,,,,,,,,,,,,,,,,,,,,,,,,,,,,,,,,,,,,,,,,,,,,,,,,,,,,,,,,,,,,,,,,,
,,,,,,1,0,1,0,1,X V Q F H G B L J M P D K C T S W R N Z,605d4ea84a5079897ed0d89c,22,Mężczyzna,2022-06-11_09h38.49.449,task,2021.1.4,Win32,144.092219,6299f149e92ead563fba08ef,62a4467fc0844f041c0f4970,,,,,,,,,,,,,,,,,,,,,,,,,,,,,,,,,,,,,,,,,,,,,,,,,,,,,,,,,,,,,,,,,,,,,,,,,,,,,,,,,,,,,,,,,,,,,,,,,,,,,
,,,,,,2,0,2,0,1,X V Q F H G B L J M P D K C T S W R N Z,605d4ea84a5079897ed0d89c,22,Mężczyzna,2022-06-11_09h38.49.449,task,2021.1.4,Win32,144.092219,6299f149e92ead563fba08ef,62a4467fc0844f041c0f4970,,,,,,,,,,,,,,,,,,,,,,,,,,,,,,,,,,,,,,,,,,,,,,,,,,,,,,,,,,,,,,,,,,,,,,,,,,,,,,,,,,,,,,,,,,,,,,,,,,,,,
,,,,,,3,0,3,0,1,X V Q F H G B L J M P D K C T S W R N Z,605d4ea84a5079897ed0d89c,22,Mężczyzna,2022-06-11_09h38.49.449,task,2021.1.4,Win32,144.092219,6299f149e92ead563fba08ef,62a4467fc0844f041c0f4970,,,,,,,,,,,,,,,,,,,,,,,,,,,,,,,,,,,,,,,,,,,,,,,,,,,,,,,,,,,,,,,,,,,,,,,,,,,,,,,,,,,,,,,,,,,,,,,,,,,,,
,,,,,,4,0,4,0,1,X V Q F H G B L J M P D K C T S W R N Z,605d4ea84a5079897ed0d89c,22,Mężczyzna,2022-06-11_09h38.49.449,task,2021.1.4,Win32,144.092219,6299f149e92ead563fba08ef,62a4467fc0844f041c0f4970,,,,,,,,,,,,,,,,,,,,,,,,,,,,,,,,,,,,,,,,,,,,,,,,,,,,,,,,,,,,,,,,,,,,,,,,,,,,,,,,,,,,,,,,,,,,,,,,,,,,,
,,,,,,,,,,,,605d4ea84a5079897ed0d89c,22,Mężczyzna,2022-06-11_09h38.49.449,task,2021.1.4,Win32,144.092219,6299f149e92ead563fba08ef,62a4467fc0844f041c0f4970,rbxzr,"[""r"",""b"",""x"",""z"",""r""]","[0.7081999999880821,1.2574999999999932,3.2930999999642268,3.6705999999642387,4.669699999988069,5.1876999999880695]",1,RBXZR,8,0,8,0,1,,,,,,,,,,,,,,,,,,,,,,,,,,,,,,,,,,,,,,,,,,,,,,,,,,,,,,,,,,,,,,,,,,,,,,,,,,,,,,,,,,,,,,,,,,,
,,,,,,0,0,0,0,1,X V Q F H G B L J M P D K C T S W R N Z,605d4ea84a5079897ed0d89c,22,Mężczyzna,2022-06-11_09h38.49.449,task,2021.1.4,Win32,144.092219,6299f149e92ead563fba08ef,62a4467fc0844f041c0f4970,,,,,,,,,,,,,,,,,,,,,,,,,,,,,,,,,,,,,,,,,,,,,,,,,,,,,,,,,,,,,,,,,,,,,,,,,,,,,,,,,,,,,,,,,,,,,,,,,,,,,
,,,,,,1,0,1,0,1,X V Q F H G B L J M P D K C T S W R N Z,605d4ea84a5079897ed0d89c,22,Mężczyzna,2022-06-11_09h38.49.449,task,2021.1.4,Win32,144.092219,6299f149e92ead563fba08ef,62a4467fc0844f041c0f4970,,,,,,,,,,,,,,,,,,,,,,,,,,,,,,,,,,,,,,,,,,,,,,,,,,,,,,,,,,,,,,,,,,,,,,,,,,,,,,,,,,,,,,,,,,,,,,,,,,,,,
,,,,,,2,0,2,0,1,X V Q F H G B L J M P D K C T S W R N Z,605d4ea84a5079897ed0d89c,22,Mężczyzna,2022-06-11_09h38.49.449,task,2021.1.4,Win32,144.092219,6299f149e92ead563fba08ef,62a4467fc0844f041c0f4970,,,,,,,,,,,,,,,,,,,,,,,,,,,,,,,,,,,,,,,,,,,,,,,,,,,,,,,,,,,,,,,,,,,,,,,,,,,,,,,,,,,,,,,,,,,,,,,,,,,,,
,,,,,,3,0,3,0,1,X V Q F H G B L J M P D K C T S W R N Z,605d4ea84a5079897ed0d89c,22,Mężczyzna,2022-06-11_09h38.49.449,task,2021.1.4,Win32,144.092219,6299f149e92ead563fba08ef,62a4467fc0844f041c0f4970,,,,,,,,,,,,,,,,,,,,,,,,,,,,,,,,,,,,,,,,,,,,,,,,,,,,,,,,,,,,,,,,,,,,,,,,,,,,,,,,,,,,,,,,,,,,,,,,,,,,,
,,,,,,4,0,4,0,1,X V Q F H G B L J M P D K C T S W R N Z,605d4ea84a5079897ed0d89c,22,Mężczyzna,2022-06-11_09h38.49.449,task,2021.1.4,Win32,144.092219,6299f149e92ead563fba08ef,62a4467fc0844f041c0f4970,,,,,,,,,,,,,,,,,,,,,,,,,,,,,,,,,,,,,,,,,,,,,,,,,,,,,,,,,,,,,,,,,,,,,,,,,,,,,,,,,,,,,,,,,,,,,,,,,,,,,
,,,,,,5,0,5,0,1,X V Q F H G B L J M P D K C T S W R N Z,605d4ea84a5079897ed0d89c,22,Mężczyzna,2022-06-11_09h38.49.449,task,2021.1.4,Win32,144.092219,6299f149e92ead563fba08ef,62a4467fc0844f041c0f4970,,,,,,,,,,,,,,,,,,,,,,,,,,,,,,,,,,,,,,,,,,,,,,,,,,,,,,,,,,,,,,,,,,,,,,,,,,,,,,,,,,,,,,,,,,,,,,,,,,,,,
,,,,,,,,,,,,605d4ea84a5079897ed0d89c,22,Mężczyzna,2022-06-11_09h38.49.449,task,2021.1.4,Win32,144.092219,6299f149e92ead563fba08ef,62a4467fc0844f041c0f4970,mdssmd,"[""m"",""d"",""s"",""s"",""m"",""d""]","[0.9273000000119396,1.3361999999880823,1.6796000000238394,2.1963000000119166,4.624699999988081,4.936600000023844,5.438600000023854]",0,MDSSMH,9,0,9,0,1,,,,,,,,,,,,,,,,,,,,,,,,,,,,,,,,,,,,,,,,,,,,,,,,,,,,,,,,,,,,,,,,,,,,,,,,,,,,,,,,,,,,,,,,,,,
,,,,,,0,0,0,0,1,X V Q F H G B L J M P D K C T S W R N Z,605d4ea84a5079897ed0d89c,22,Mężczyzna,2022-06-11_09h38.49.449,task,2021.1.4,Win32,144.092219,6299f149e92ead563fba08ef,62a4467fc0844f041c0f4970,,,,,,,,,,,,,,,,,,,,,,,,,,,,,,,,,,,,,,,,,,,,,,,,,,,,,,,,,,,,,,,,,,,,,,,,,,,,,,,,,,,,,,,,,,,,,,,,,,,,,
,,,,,,1,0,1,0,1,X V Q F H G B L J M P D K C T S W R N Z,605d4ea84a5079897ed0d89c,22,Mężczyzna,2022-06-11_09h38.49.449,task,2021.1.4,Win32,144.092219,6299f149e92ead563fba08ef,62a4467fc0844f041c0f4970,,,,,,,,,,,,,,,,,,,,,,,,,,,,,,,,,,,,,,,,,,,,,,,,,,,,,,,,,,,,,,,,,,,,,,,,,,,,,,,,,,,,,,,,,,,,,,,,,,,,,
,,,,,,2,0,2,0,1,X V Q F H G B L J M P D K C T S W R N Z,605d4ea84a5079897ed0d89c,22,Mężczyzna,2022-06-11_09h38.49.449,task,2021.1.4,Win32,144.092219,6299f149e92ead563fba08ef,62a4467fc0844f041c0f4970,,,,,,,,,,,,,,,,,,,,,,,,,,,,,,,,,,,,,,,,,,,,,,,,,,,,,,,,,,,,,,,,,,,,,,,,,,,,,,,,,,,,,,,,,,,,,,,,,,,,,
,,,,,,3,0,3,0,1,X V Q F H G B L J M P D K C T S W R N Z,605d4ea84a5079897ed0d89c,22,Mężczyzna,2022-06-11_09h38.49.449,task,2021.1.4,Win32,144.092219,6299f149e92ead563fba08ef,62a4467fc0844f041c0f4970,,,,,,,,,,,,,,,,,,,,,,,,,,,,,,,,,,,,,,,,,,,,,,,,,,,,,,,,,,,,,,,,,,,,,,,,,,,,,,,,,,,,,,,,,,,,,,,,,,,,,
,,,,,,4,0,4,0,1,X V Q F H G B L J M P D K C T S W R N Z,605d4ea84a5079897ed0d89c,22,Mężczyzna,2022-06-11_09h38.49.449,task,2021.1.4,Win32,144.092219,6299f149e92ead563fba08ef,62a4467fc0844f041c0f4970,,,,,,,,,,,,,,,,,,,,,,,,,,,,,,,,,,,,,,,,,,,,,,,,,,,,,,,,,,,,,,,,,,,,,,,,,,,,,,,,,,,,,,,,,,,,,,,,,,,,,
,,,,,,5,0,5,0,1,X V Q F H G B L J M P D K C T S W R N Z,605d4ea84a5079897ed0d89c,22,Mężczyzna,2022-06-11_09h38.49.449,task,2021.1.4,Win32,144.092219,6299f149e92ead563fba08ef,62a4467fc0844f041c0f4970,,,,,,,,,,,,,,,,,,,,,,,,,,,,,,,,,,,,,,,,,,,,,,,,,,,,,,,,,,,,,,,,,,,,,,,,,,,,,,,,,,,,,,,,,,,,,,,,,,,,,
,,,,,,,,,,,,605d4ea84a5079897ed0d89c,22,Mężczyzna,2022-06-11_09h38.49.449,task,2021.1.4,Win32,144.092219,6299f149e92ead563fba08ef,62a4467fc0844f041c0f4970,wqcnlq,"[""w"",""q"",""c"",""n"",""l"",""q""]","[1.3360999999642331,1.7571999999880745,2.1183000000119137,2.9170000000000016,3.2941999999880807,3.7801999999880707,4.371199999988079]",0,WQCNLW,10,0,10,0,1,,,,,,,,,,,,,,,,,,,,,,,,,,,,,,,,,,,,,,,,,,,,,,,,,,,,,,,,,,,,,,,,,,,,,,,,,,,,,,,,,,,,,,,,,,,
,,,,,,0,0,0,0,1,X V Q F H G B L J M P D K C T S W R N Z,605d4ea84a5079897ed0d89c,22,Mężczyzna,2022-06-11_09h38.49.449,task,2021.1.4,Win32,144.092219,6299f149e92ead563fba08ef,62a4467fc0844f041c0f4970,,,,,,,,,,,,,,,,,,,,,,,,,,,,,,,,,,,,,,,,,,,,,,,,,,,,,,,,,,,,,,,,,,,,,,,,,,,,,,,,,,,,,,,,,,,,,,,,,,,,,
,,,,,,1,0,1,0,1,X V Q F H G B L J M P D K C T S W R N Z,605d4ea84a5079897ed0d89c,22,Mężczyzna,2022-06-11_09h38.49.449,task,2021.1.4,Win32,144.092219,6299f149e92ead563fba08ef,62a4467fc0844f041c0f4970,,,,,,,,,,,,,,,,,,,,,,,,,,,,,,,,,,,,,,,,,,,,,,,,,,,,,,,,,,,,,,,,,,,,,,,,,,,,,,,,,,,,,,,,,,,,,,,,,,,,,
,,,,,,2,0,2,0,1,X V Q F H G B L J M P D K C T S W R N Z,605d4ea84a5079897ed0d89c,22,Mężczyzna,2022-06-11_09h38.49.449,task,2021.1.4,Win32,144.092219,6299f149e92ead563fba08ef,62a4467fc0844f041c0f4970,,,,,,,,,,,,,,,,,,,,,,,,,,,,,,,,,,,,,,,,,,,,,,,,,,,,,,,,,,,,,,,,,,,,,,,,,,,,,,,,,,,,,,,,,,,,,,,,,,,,,
,,,,,,3,0,3,0,1,X V Q F H G B L J M P D K C T S W R N Z,605d4ea84a5079897ed0d89c,22,Mężczyzna,2022-06-11_09h38.49.449,task,2021.1.4,Win32,144.092219,6299f149e92ead563fba08ef,62a4467fc0844f041c0f4970,,,,,,,,,,,,,,,,,,,,,,,,,,,,,,,,,,,,,,,,,,,,,,,,,,,,,,,,,,,,,,,,,,,,,,,,,,,,,,,,,,,,,,,,,,,,,,,,,,,,,
,,,,,,4,0,4,0,1,X V Q F H G B L J M P D K C T S W R N Z,605d4ea84a5079897ed0d89c,22,Mężczyzna,2022-06-11_09h38.49.449,task,2021.1.4,Win32,144.092219,6299f149e92ead563fba08ef,62a4467fc0844f041c0f4970,,,,,,,,,,,,,,,,,,,,,,,,,,,,,,,,,,,,,,,,,,,,,,,,,,,,,,,,,,,,,,,,,,,,,,,,,,,,,,,,,,,,,,,,,,,,,,,,,,,,,
,,,,,,5,0,5,0,1,X V Q F H G B L J M P D K C T S W R N Z,605d4ea84a5079897ed0d89c,22,Mężczyzna,2022-06-11_09h38.49.449,task,2021.1.4,Win32,144.092219,6299f149e92ead563fba08ef,62a4467fc0844f041c0f4970,,,,,,,,,,,,,,,,,,,,,,,,,,,,,,,,,,,,,,,,,,,,,,,,,,,,,,,,,,,,,,,,,,,,,,,,,,,,,,,,,,,,,,,,,,,,,,,,,,,,,
,,,,,,,,,,,,605d4ea84a5079897ed0d89c,22,Mężczyzna,2022-06-11_09h38.49.449,task,2021.1.4,Win32,144.092219,6299f149e92ead563fba08ef,62a4467fc0844f041c0f4970,tqnl,"[""t"",""q"",""n"",""l""]","[1.5873000000119077,2.0128000000119357,2.5451999999880854,2.909100000023841,5.1935]",0,TQLDVN,11,0,11,0,1,,,,,,,,,,,,,,,,,,,,,,,,,,,,,,,,,,,,,,,,,,,,,,,,,,,,,,,,,,,,,,,,,,,,,,,,,,,,,,,,,,,,,,,,,,,
,,,,,,,,,,,,605d4ea84a5079897ed0d89c,22,Mężczyzna,2022-06-11_09h38.49.449,task,2021.1.4,Win32,144.092219,6299f149e92ead563fba08ef,62a4467fc0844f041c0f4970,,,,,,,,,,,space,8.6515,6,"[""6""]",1,[7.1769999999999925],[7.1769999999999925],0,0,0,6,1,Practice,7,(25/5) + 1,6,,,,,,,,,,,,,,,,,,,,,,,,,,,,,,,,,,,,,,,,,,,,,,,,,,,,,,,,,,,,,,,,,,,,,,,,,,,
,,,,,,,,,,,,605d4ea84a5079897ed0d89c,22,Mężczyzna,2022-06-11_09h38.49.449,task,2021.1.4,Win32,144.092219,6299f149e92ead563fba08ef,62a4467fc0844f041c0f4970,,,,,,,,,,,,,1,"[""1""]",1,[2.908899999976171],"[7.1769999999999925,2.908899999976171]",0,1,1,1,1,Practice,2,(4x4) - 15,1,,,,,,,,,,,,,,,,,,,,,,,,,,,,,,,,,,,,,,,,,,,,,,,,,,,,,,,,,,,,,,,,,,,,,,,,,,,
,,,,,,,,,,,,605d4ea84a5079897ed0d89c,22,Mężczyzna,2022-06-11_09h38.49.449,task,2021.1.4,Win32,144.092219,6299f149e92ead563fba08ef,62a4467fc0844f041c0f4970,,,,,,,,,,,,,5,"[""5""]",1,[2.464299999952317],"[7.1769999999999925,2.908899999976171,2.464299999952317]",0,2,2,5,1,Practice,6,(4/2) + 3,5,,,,,,,,,,,,,,,,,,,,,,,,,,,,,,,,,,,,,,,,,,,,,,,,,,,,,,,,,,,,,,,,,,,,,,,,,,,
,,,,,,,,,,,,605d4ea84a5079897ed0d89c,22,Mężczyzna,2022-06-11_09h38.49.449,task,2021.1.4,Win32,144.092219,6299f149e92ead563fba08ef,62a4467fc0844f041c0f4970,,,,,,,,,,,,,9,"[""9""]",1,[2.717500000000001],"[7.1769999999999925,2.908899999976171,2.464299999952317,2.717500000000001]",0,3,3,9,1,Practice,10,(20/2) - 1,9,,,,,,,,,,,,,,,,,,,,,,,,,,,,,,,,,,,,,,,,,,,,,,,,,,,,,,,,,,,,,,,,,,,,,,,,,,,
,,,,,,,,,,,,605d4ea84a5079897ed0d89c,22,Mężczyzna,2022-06-11_09h38.49.449,task,2021.1.4,Win32,144.092219,6299f149e92ead563fba08ef,62a4467fc0844f041c0f4970,,,,,,,,,,,,,3,"[""3""]",1,[2.105800000011925],"[7.1769999999999925,2.908899999976171,2.464299999952317,2.717500000000001,2.105800000011925]",0,4,4,3,1,Practice,4,(8/4) + 1,3,,,,,,,,,,,,,,,,,,,,,,,,,,,,,,,,,,,,,,,,,,,,,,,,,,,,,,,,,,,,,,,,,,,,,,,,,,,
,,,,,,,,,,,,605d4ea84a5079897ed0d89c,22,Mężczyzna,2022-06-11_09h38.49.449,task,2021.1.4,Win32,144.092219,6299f149e92ead563fba08ef,62a4467fc0844f041c0f4970,,,,,,,,,,,,,2,"[""2""]",1,[2.0316999999880636],"[7.1769999999999925,2.908899999976171,2.464299999952317,2.717500000000001,2.105800000011925,2.0316999999880636]",0,5,5,2,1,Practice,3,(4x4) - 14,2,,,,,,,,,,,,,,,,,,,,,,,,,,,,,,,,,,,,,,,,,,,,,,,,,,,,,,,,,,,,,,,,,,,,,,,,,,,
,,,,,,,,,,,,605d4ea84a5079897ed0d89c,22,Mężczyzna,2022-06-11_09h38.49.449,task,2021.1.4,Win32,144.092219,6299f149e92ead563fba08ef,62a4467fc0844f041c0f4970,,,,,,,,,,,,,0,"[""0""]",1,[2.3305000000000007],"[7.1769999999999925,2.908899999976171,2.464299999952317,2.717500000000001,2.105800000011925,2.0316999999880636,2.3305000000000007]",0,6,6,0,1,Practice,1,(3x3) -  9,0,,,,,,,,,,,,,,,,,,,,,,,,,,,,,,,,,,,,,,,,,,,,,,,,,,,,,,,,,,,,,,,,,,,,,,,,,,,
,,,,,,,,,,,,605d4ea84a5079897ed0d89c,22,Mężczyzna,2022-06-11_09h38.49.449,task,2021.1.4,Win32,144.092219,6299f149e92ead563fba08ef,62a4467fc0844f041c0f4970,,,,,,,,,,,,,7,"[""7""]",1,[2.7645999999642186],"[7.1769999999999925,2.908899999976171,2.464299999952317,2.717500000000001,2.105800000011925,2.0316999999880636,2.3305000000000007,2.7645999999642186]",0,7,7,7,1,Practice,8,(5x5) - 18,7,,,,,,,,,,,,,,,,,,,,,,,,,,,,,,,,,,,,,,,,,,,,,,,,,,,,,,,,,,,,,,,,,,,,,,,,,,,
,,,,,,,,,,,,605d4ea84a5079897ed0d89c,22,Mężczyzna,2022-06-11_09h38.49.449,task,2021.1.4,Win32,144.092219,6299f149e92ead563fba08ef,62a4467fc0844f041c0f4970,,,,,,,,,,,,,4,"[""4""]",1,[6.619500000000016],"[7.1769999999999925,2.908899999976171,2.464299999952317,2.717500000000001,2.105800000011925,2.0316999999880636,2.3305000000000007,2.7645999999642186,6.619500000000016]",0,8,8,4,1,Practice,5,(2x6) - 8,4,,,,,,,,,,,,,,,,,,,,,,,,,,,,,,,,,,,,,,,,,,,,,,,,,,,,,,,,,,,,,,,,,,,,,,,,,,,
,,,,,,,,,,,,605d4ea84a5079897ed0d89c,22,Mężczyzna,2022-06-11_09h38.49.449,task,2021.1.4,Win32,144.092219,6299f149e92ead563fba08ef,62a4467fc0844f041c0f4970,,,,,,,,,,,,,8,"[""8""]",1,[2.638100000023826],"[7.1769999999999925,2.908899999976171,2.464299999952317,2.717500000000001,2.105800000011925,2.0316999999880636,2.3305000000000007,2.7645999999642186,6.619500000000016,2.638100000023826]",0,9,9,8,1,Practice,9,(3x3) - 1,8,,,,,,,,,,,,,,,,,,,,,,,,,,,,,,,,,,,,,,,,,,,,,,,,,,,,,,,,,,,,,,,,,,,,,,,,,,,
,,,,,,,,,,,,605d4ea84a5079897ed0d89c,22,Mężczyzna,2022-06-11_09h38.49.449,task,2021.1.4,Win32,144.092219,6299f149e92ead563fba08ef,62a4467fc0844f041c0f4970,,,,,,,,,,,,,,,,,,,,,,,,,,,1,33.7579,2.250526667,44.5449972,1.723272027,6.696568497,space,1.5913,0,0,0,0,1,,,,,,,,,,,,,,,,,,,,,,,,,,,,,,,,,,,,,,,,,,,,,,,,,,,,,,,,,,,,,,
,,,,,,,,,,,,605d4ea84a5079897ed0d89c,22,Mężczyzna,2022-06-11_09h38.49.449,task,2021.1.4,Win32,144.092219,6299f149e92ead563fba08ef,62a4467fc0844f041c0f4970,,,,,,,,,,,,,5,,,,,,,,,,Practice,6,(4/2) + 3,5,,,,,,,,,,,,,,space,14.1688,"[""5""]",1,[3.4375],1,0,0,0,5,1,,,,,,,,,,,,,,,,,,,,,,,,,,,,,,,,,,,,,,,,,,,,,,,,,,,
,,,,,,,,,,,X V Q F H G B L J M P D K C T S W R N Z,605d4ea84a5079897ed0d89c,22,Mężczyzna,2022-06-11_09h38.49.449,task,2021.1.4,Win32,144.092219,6299f149e92ead563fba08ef,62a4467fc0844f041c0f4970,,,,,,,,,,,,,,,,,,,,,,,,,,,,,,,,,,,,,,,,,,,,,,,,,,,0,0,0,0,1,,,,,,,,,,,,,,,,,,,,,,,,,,,,,,,,,,,,,,,,,,,,,,
,,,,,,,,,,,,605d4ea84a5079897ed0d89c,22,Mężczyzna,2022-06-11_09h38.49.449,task,2021.1.4,Win32,144.092219,6299f149e92ead563fba08ef,62a4467fc0844f041c0f4970,,,,,,,,,,,,,0,,,,,,,,,,Practice,1,(3x3) -  9,0,,,,,,,,,,,,,,,,"[""0""]",1,[1.5406999999880782],1,0,0,0,0,1,,,,,,,,,,,,,,,,,,,,,,,,,,,,,,,,,,,,,,,,,,,,,,,,,,,
,,,,,,,,,,,X V Q F H G B L J M P D K C T S W R N Z,605d4ea84a5079897ed0d89c,22,Mężczyzna,2022-06-11_09h38.49.449,task,2021.1.4,Win32,144.092219,6299f149e92ead563fba08ef,62a4467fc0844f041c0f4970,,,,,,,,,,,,,,,,,,,,,,,,,,,,,,,,,,,,,,,,,,,,,,,,,,,1,0,1,0,1,,,,,,,,,,,,,,,,,,,,,,,,,,,,,,,,,,,,,,,,,,,,,,
,,,,,,,,,,,,605d4ea84a5079897ed0d89c,22,Mężczyzna,2022-06-11_09h38.49.449,task,2021.1.4,Win32,144.092219,6299f149e92ead563fba08ef,62a4467fc0844f041c0f4970,,,,,,,,,,,,,,,,,,,,,,,,,,,,,,,,,,,,,,,,,,,,,,,,,,,,,,,,zs,"[""z"",""s""]",0,"[1.669800000011918,1.7680000000000007,3.3788999999761415]",1,0,0,0,0,1,,,,,,,,,,,,,,,,,,,,,,,,,,,,,,,,,,,,
,,,,,,,,,,,,605d4ea84a5079897ed0d89c,22,Mężczyzna,2022-06-11_09h38.49.449,task,2021.1.4,Win32,144.092219,6299f149e92ead563fba08ef,62a4467fc0844f041c0f4970,,,,,,,,,,,,,6,,,,,,,,,,Practice,7,(25/5) + 1,6,,,,,,,,,,,,,,,,"[""6""]",1,[2.170500000000004],1,0,0,0,6,1,,,,,,,,,,,,,,,,,,,,,,,,,,,,,,,,,,,,,,,,,,,,,,,,,,,
,,,,,,,,,,,X V Q F H G B L J M P D K C T S W R N Z,605d4ea84a5079897ed0d89c,22,Mężczyzna,2022-06-11_09h38.49.449,task,2021.1.4,Win32,144.092219,6299f149e92ead563fba08ef,62a4467fc0844f041c0f4970,,,,,,,,,,,,,,,,,,,,,,,,,,,,,,,,,,,,,,,,,,,,,,,,,,,0,0,0,0,1,,,,,,,,,,,,,,,,,,,,,,,,,,,,,,,,,,,,,,,,,,,,,,
,,,,,,,,,,,,605d4ea84a5079897ed0d89c,22,Mężczyzna,2022-06-11_09h38.49.449,task,2021.1.4,Win32,144.092219,6299f149e92ead563fba08ef,62a4467fc0844f041c0f4970,,,,,,,,,,,,,2,,,,,,,,,,Practice,3,(4x4) - 14,2,,,,,,,,,,,,,,,,"[""2""]",1,[1.5568999999761672],1,0,0,0,2,1,,,,,,,,,,,,,,,,,,,,,,,,,,,,,,,,,,,,,,,,,,,,,,,,,,,
,,,,,,,,,,,X V Q F H G B L J M P D K C T S W R N Z,605d4ea84a5079897ed0d89c,22,Mężczyzna,2022-06-11_09h38.49.449,task,2021.1.4,Win32,144.092219,6299f149e92ead563fba08ef,62a4467fc0844f041c0f4970,,,,,,,,,,,,,,,,,,,,,,,,,,,,,,,,,,,,,,,,,,,,,,,,,,,1,0,1,0,1,,,,,,,,,,,,,,,,,,,,,,,,,,,,,,,,,,,,,,,,,,,,,,
,,,,,,,,,,,,605d4ea84a5079897ed0d89c,22,Mężczyzna,2022-06-11_09h38.49.449,task,2021.1.4,Win32,144.092219,6299f149e92ead563fba08ef,62a4467fc0844f041c0f4970,,,,,,,,,,,,,,,,,,,,,,,,,,,,,,,,,,,,,,,,,,,,,,,,,,,,,,,,tn,"[""t"",""n""]",0,"[1.7976999999880832,2.0058000000119023,2.647800000011898]",1,1,0,1,0,1,,,,,,,,,,,,,,,,,,,,,,,,,,,,,,,,,,,,
,,,,,,,,,,,,605d4ea84a5079897ed0d89c,22,Mężczyzna,2022-06-11_09h38.49.449,task,2021.1.4,Win32,144.092219,6299f149e92ead563fba08ef,62a4467fc0844f041c0f4970,,,,,,,,,,,,,6,,,,,,,,,,Practice,7,(25/5) + 1,6,,,,,,,,,,,,,,,,"[""6""]",1,[1.8358000000118864],1,0,0,0,6,1,,,,,,,,,,,,,,,,,,,,,,,,,,,,,,,,,,,,,,,,,,,,,,,,,,,
,,,,,,,,,,,X V Q F H G B L J M P D K C T S W R N Z,605d4ea84a5079897ed0d89c,22,Mężczyzna,2022-06-11_09h38.49.449,task,2021.1.4,Win32,144.092219,6299f149e92ead563fba08ef,62a4467fc0844f041c0f4970,,,,,,,,,,,,,,,,,,,,,,,,,,,,,,,,,,,,,,,,,,,,,,,,,,,0,0,0,0,1,,,,,,,,,,,,,,,,,,,,,,,,,,,,,,,,,,,,,,,,,,,,,,
,,,,,,,,,,,,605d4ea84a5079897ed0d89c,22,Mężczyzna,2022-06-11_09h38.49.449,task,2021.1.4,Win32,144.092219,6299f149e92ead563fba08ef,62a4467fc0844f041c0f4970,,,,,,,,,,,,,6,,,,,,,,,,Practice,7,(25/5) + 1,6,,,,,,,,,,,,,,,,"[""6""]",1,[1.8975999999642568],1,0,0,0,6,1,,,,,,,,,,,,,,,,,,,,,,,,,,,,,,,,,,,,,,,,,,,,,,,,,,,
,,,,,,,,,,,X V Q F H G B L J M P D K C T S W R N Z,605d4ea84a5079897ed0d89c,22,Mężczyzna,2022-06-11_09h38.49.449,task,2021.1.4,Win32,144.092219,6299f149e92ead563fba08ef,62a4467fc0844f041c0f4970,,,,,,,,,,,,,,,,,,,,,,,,,,,,,,,,,,,,,,,,,,,,,,,,,,,1,0,1,0,1,,,,,,,,,,,,,,,,,,,,,,,,,,,,,,,,,,,,,,,,,,,,,,
,,,,,,,,,,,,605d4ea84a5079897ed0d89c,22,Mężczyzna,2022-06-11_09h38.49.449,task,2021.1.4,Win32,144.092219,6299f149e92ead563fba08ef,62a4467fc0844f041c0f4970,,,,,,,,,,,,,,,,,,,,,,,,,,,,,,,,,,,,,,,,,,,,,,,,,,,,,,,,rc,"[""r"",""c""]",0,"[1.7093000000119218,2.035399999976164,2.8075000000000045]",1,2,0,2,0,1,,,,,,,,,,,,,,,,,,,,,,,,,,,,,,,,,,,,
,,,,,,,,,,,,605d4ea84a5079897ed0d89c,22,Mężczyzna,2022-06-11_09h38.49.449,task,2021.1.4,Win32,144.092219,6299f149e92ead563fba08ef,62a4467fc0844f041c0f4970,,,,,,,,,,,,,0,,,,,,,,,,Task,33,(1/1) - 1,0,,,,,,,,,,,,,,,,,,,1,,,,,,,,,,,,,,,,,,,,,space,18.8408,"[""0""]",1,[1.7570999999642254],0,0,0,32,1,,,,,,,,,,,,,,,,,,,,,,,,,,
,,,,,,,,,,,X V Q F H G B L J M P D K C T S W R N Z,605d4ea84a5079897ed0d89c,22,Mężczyzna,2022-06-11_09h38.49.449,task,2021.1.4,Win32,144.092219,6299f149e92ead563fba08ef,62a4467fc0844f041c0f4970,,,,,,,,,,,,,,,,,,,,,,,,,,,,,,,,,,,,,,,,,,,,,,,,,,,,,,,,,,,,,,,,,,,,,,,,,,,,0,0,0,0,1,,,,,,,,,,,,,,,,,,,,,
,,,,,,,,,,,,605d4ea84a5079897ed0d89c,22,Mężczyzna,2022-06-11_09h38.49.449,task,2021.1.4,Win32,144.092219,6299f149e92ead563fba08ef,62a4467fc0844f041c0f4970,,,,,,,,,,,,,9,,,,,,,,,,Task,7,(3x7) - 12,9,,,,,,,,,,,,,,,,,,,1,,,,,,,,,,,,,,,,,,,,,,,"[""9""]",1,[3.15300000000002],0,0,0,6,1,,,,,,,,,,,,,,,,,,,,,,,,,,
,,,,,,,,,,,X V Q F H G B L J M P D K C T S W R N Z,605d4ea84a5079897ed0d89c,22,Mężczyzna,2022-06-11_09h38.49.449,task,2021.1.4,Win32,144.092219,6299f149e92ead563fba08ef,62a4467fc0844f041c0f4970,,,,,,,,,,,,,,,,,,,,,,,,,,,,,,,,,,,,,,,,,,,,,,,,,,,,,,,,,,,,,,,,,,,,,,,,,,,,1,0,1,0,1,,,,,,,,,,,,,,,,,,,,,
,,,,,,,,,,,,605d4ea84a5079897ed0d89c,22,Mężczyzna,2022-06-11_09h38.49.449,task,2021.1.4,Win32,144.092219,6299f149e92ead563fba08ef,62a4467fc0844f041c0f4970,,,,,,,,,,,,,,,,,,,,,,,,,,,,,,,,,,,,,,,,,,,,,,,,,,,,,,,,,,,,,,,,,,,,,,,,,,,,,,,,,zb,"[""z"",""b""]",0,"[1.8650999999642295,2.288899999976138,2.9940999999641917]",1,ZB,0,0,0,0,1,,,,,,,,,,
,,,,,,,,,,,,605d4ea84a5079897ed0d89c,22,Mężczyzna,2022-06-11_09h38.49.449,task,2021.1.4,Win32,144.092219,6299f149e92ead563fba08ef,62a4467fc0844f041c0f4970,,,,,,,,,,,,,2,,,,,,,,,,Task,26,(2x9) - 16,2,,,,,,,,,,,,,,,,,,,1,,,,,,,,,,,,,,,,,,,,,,,"[""2""]",1,[2.0753999999761845],0,0,0,25,1,,,,,,,,,,,,,,,,,,,,,,,,,,
,,,,,,,,,,,X V Q F H G B L J M P D K C T S W R N Z,605d4ea84a5079897ed0d89c,22,Mężczyzna,2022-06-11_09h38.49.449,task,2021.1.4,Win32,144.092219,6299f149e92ead563fba08ef,62a4467fc0844f041c0f4970,,,,,,,,,,,,,,,,,,,,,,,,,,,,,,,,,,,,,,,,,,,,,,,,,,,,,,,,,,,,,,,,,,,,,,,,,,,,0,0,0,0,1,,,,,,,,,,,,,,,,,,,,,
,,,,,,,,,,,,605d4ea84a5079897ed0d89c,22,Mężczyzna,2022-06-11_09h38.49.449,task,2021.1.4,Win32,144.092219,6299f149e92ead563fba08ef,62a4467fc0844f041c0f4970,,,,,,,,,,,,,6,,,,,,,,,,Task,5,(2x3) + 0,6,,,,,,,,,,,,,,,,,,,1,,,,,,,,,,,,,,,,,,,,,,,"[""6""]",1,[2.7659999999999627],0,0,0,4,1,,,,,,,,,,,,,,,,,,,,,,,,,,
,,,,,,,,,,,X V Q F H G B L J M P D K C T S W R N Z,605d4ea84a5079897ed0d89c,22,Mężczyzna,2022-06-11_09h38.49.449,task,2021.1.4,Win32,144.092219,6299f149e92ead563fba08ef,62a4467fc0844f041c0f4970,,,,,,,,,,,,,,,,,,,,,,,,,,,,,,,,,,,,,,,,,,,,,,,,,,,,,,,,,,,,,,,,,,,,,,,,,,,,1,0,1,0,1,,,,,,,,,,,,,,,,,,,,,
,,,,,,,,,,,,605d4ea84a5079897ed0d89c,22,Mężczyzna,2022-06-11_09h38.49.449,task,2021.1.4,Win32,144.092219,6299f149e92ead563fba08ef,62a4467fc0844f041c0f4970,,,,,,,,,,,,,,,,,,,,,,,Task,16,(3x8) - 15,9,,,,,,,,,,,,,,,,,,,0,,,,,,,,,,,,,,,,,,,,,,,,0,,0,0,0,15,1,,,,,,,,,,,,,,,,,,,,,,,,,,
,,,,,,,,,,,,605d4ea84a5079897ed0d89c,22,Mężczyzna,2022-06-11_09h38.49.449,task,2021.1.4,Win32,144.092219,6299f149e92ead563fba08ef,62a4467fc0844f041c0f4970,,,,,,,,,,,,,3,,,,,,,,,,Task,35,(1x2) + 1,3,,,,,,,,,,,,,,,,,,,1,,,,,,,,,,,,,,,,,,,,,,,"[""3""]",1,[2.3878999999761277],0,1,1,34,1,,,,,,,,,,,,,,,,,,,,,,,,,,
,,,,,,,,,,,X V Q F H G B L J M P D K C T S W R N Z,605d4ea84a5079897ed0d89c,22,Mężczyzna,2022-06-11_09h38.49.449,task,2021.1.4,Win32,144.092219,6299f149e92ead563fba08ef,62a4467fc0844f041c0f4970,,,,,,,,,,,,,,,,,,,,,,,,,,,,,,,,,,,,,,,,,,,,,,,,,,,,,,,,,,,,,,,,,,,,,,,,,,,,2,0,2,0,1,,,,,,,,,,,,,,,,,,,,,
,,,,,,,,,,,,605d4ea84a5079897ed0d89c,22,Mężczyzna,2022-06-11_09h38.49.449,task,2021.1.4,Win32,144.092219,6299f149e92ead563fba08ef,62a4467fc0844f041c0f4970,,,,,,,,,,,,,,,,,,,,,,,,,,,,,,,,,,,,,,,,,,,,,,,,,,,,,,,,,,,,,,,,,,,,,,,,,,,,,,,,,cdc,"[""c"",""d"",""c""]",0,"[1.2456000000238419,1.3745000000000118,1.592699999988099,2.5966999999880613]",1,CDC,1,0,1,0,1,,,,,,,,,,
,,,,,,,,,,,,605d4ea84a5079897ed0d89c,22,Mężczyzna,2022-06-11_09h38.49.449,task,2021.1.4,Win32,144.092219,6299f149e92ead563fba08ef,62a4467fc0844f041c0f4970,,,,,,,,,,,,,1,,,,,,,,,,Task,1,(12/6) - 1,1,,,,,,,,,,,,,,,,,,,1,,,,,,,,,,,,,,,,,,,,,,,"[""1""]",1,[4.5351999999880945],0,0,0,0,1,,,,,,,,,,,,,,,,,,,,,,,,,,
,,,,,,,,,,,X V Q F H G B L J M P D K C T S W R N Z,605d4ea84a5079897ed0d89c,22,Mężczyzna,2022-06-11_09h38.49.449,task,2021.1.4,Win32,144.092219,6299f149e92ead563fba08ef,62a4467fc0844f041c0f4970,,,,,,,,,,,,,,,,,,,,,,,,,,,,,,,,,,,,,,,,,,,,,,,,,,,,,,,,,,,,,,,,,,,,,,,,,,,,0,0,0,0,1,,,,,,,,,,,,,,,,,,,,,
,,,,,,,,,,,,605d4ea84a5079897ed0d89c,22,Mężczyzna,2022-06-11_09h38.49.449,task,2021.1.4,Win32,144.092219,6299f149e92ead563fba08ef,62a4467fc0844f041c0f4970,,,,,,,,,,,,,6,,,,,,,,,,Task,13,(3x4) - 6,6,,,,,,,,,,,,,,,,,,,1,,,,,,,,,,,,,,,,,,,,,,,"[""6""]",1,[2.097900000035793],0,0,0,12,1,,,,,,,,,,,,,,,,,,,,,,,,,,
,,,,,,,,,,,X V Q F H G B L J M P D K C T S W R N Z,605d4ea84a5079897ed0d89c,22,Mężczyzna,2022-06-11_09h38.49.449,task,2021.1.4,Win32,144.092219,6299f149e92ead563fba08ef,62a4467fc0844f041c0f4970,,,,,,,,,,,,,,,,,,,,,,,,,,,,,,,,,,,,,,,,,,,,,,,,,,,,,,,,,,,,,,,,,,,,,,,,,,,,1,0,1,0,1,,,,,,,,,,,,,,,,,,,,,
,,,,,,,,,,,,605d4ea84a5079897ed0d89c,22,Mężczyzna,2022-06-11_09h38.49.449,task,2021.1.4,Win32,144.092219,6299f149e92ead563fba08ef,62a4467fc0844f041c0f4970,,,,,,,,,,,,,2,,,,,,,,,,Task,26,(2x9) - 16,2,,,,,,,,,,,,,,,,,,,1,,,,,,,,,,,,,,,,,,,,,,,"[""2""]",1,[1.4050000000000296],0,0,0,25,1,,,,,,,,,,,,,,,,,,,,,,,,,,
,,,,,,,,,,,X V Q F H G B L J M P D K C T S W R N Z,605d4ea84a5079897ed0d89c,22,Mężczyzna,2022-06-11_09h38.49.449,task,2021.1.4,Win32,144.092219,6299f149e92ead563fba08ef,62a4467fc0844f041c0f4970,,,,,,,,,,,,,,,,,,,,,,,,,,,,,,,,,,,,,,,,,,,,,,,,,,,,,,,,,,,,,,,,,,,,,,,,,,,,2,0,2,0,1,,,,,,,,,,,,,,,,,,,,,
,,,,,,,,,,,,605d4ea84a5079897ed0d89c,22,Mężczyzna,2022-06-11_09h38.49.449,task,2021.1.4,Win32,144.092219,6299f149e92ead563fba08ef,62a4467fc0844f041c0f4970,,,,,,,,,,,,,9,,,,,,,,,,Task,40,(7x2) - 5,9,,,,,,,,,,,,,,,,,,,1,,,,,,,,,,,,,,,,,,,,,,,"[""9""]",1,[3.388099999964254],0,0,0,39,1,,,,,,,,,,,,,,,,,,,,,,,,,,
,,,,,,,,,,,X V Q F H G B L J M P D K C T S W R N Z,605d4ea84a5079897ed0d89c,22,Mężczyzna,2022-06-11_09h38.49.449,task,2021.1.4,Win32,144.092219,6299f149e92ead563fba08ef,62a4467fc0844f041c0f4970,,,,,,,,,,,,,,,,,,,,,,,,,,,,,,,,,,,,,,,,,,,,,,,,,,,,,,,,,,,,,,,,,,,,,,,,,,,,3,0,3,0,1,,,,,,,,,,,,,,,,,,,,,
,,,,,,,,,,,,605d4ea84a5079897ed0d89c,22,Mężczyzna,2022-06-11_09h38.49.449,task,2021.1.4,Win32,144.092219,6299f149e92ead563fba08ef,62a4467fc0844f041c0f4970,,,,,,,,,,,,,,,,,,,,,,,,,,,,,,,,,,,,,,,,,,,,,,,,,,,,,,,,,,,,,,,,,,,,,,,,,,,,,,,,,nwds,"[""n"",""w"",""d"",""s""]",0,"[1.1378000000119073,1.7026999999880559,1.9573000000119123,2.049800000011942,2.7078000000119005]",1,NWDS,2,0,2,0,1,,,,,,,,,,
,,,,,,,,,,,,605d4ea84a5079897ed0d89c,22,Mężczyzna,2022-06-11_09h38.49.449,task,2021.1.4,Win32,144.092219,6299f149e92ead563fba08ef,62a4467fc0844f041c0f4970,,,,,,,,,,,,,1,,,,,,,,,,Task,1,(12/6) - 1,1,,,,,,,,,,,,,,,,,,,1,,,,,,,,,,,,,,,,,,,,,,,"[""1""]",1,[4.521999999999991],0,0,0,0,1,,,,,,,,,,,,,,,,,,,,,,,,,,
,,,,,,,,,,,X V Q F H G B L J M P D K C T S W R N Z,605d4ea84a5079897ed0d89c,22,Mężczyzna,2022-06-11_09h38.49.449,task,2021.1.4,Win32,144.092219,6299f149e92ead563fba08ef,62a4467fc0844f041c0f4970,,,,,,,,,,,,,,,,,,,,,,,,,,,,,,,,,,,,,,,,,,,,,,,,,,,,,,,,,,,,,,,,,,,,,,,,,,,,0,0,0,0,1,,,,,,,,,,,,,,,,,,,,,
,,,,,,,,,,,,605d4ea84a5079897ed0d89c,22,Mężczyzna,2022-06-11_09h38.49.449,task,2021.1.4,Win32,144.092219,6299f149e92ead563fba08ef,62a4467fc0844f041c0f4970,,,,,,,,,,,,,6,,,,,,,,,,Task,37,(3/3) + 5,6,,,,,,,,,,,,,,,,,,,1,,,,,,,,,,,,,,,,,,,,,,,"[""6""]",1,[2.474700000047676],0,0,0,36,1,,,,,,,,,,,,,,,,,,,,,,,,,,
,,,,,,,,,,,X V Q F H G B L J M P D K C T S W R N Z,605d4ea84a5079897ed0d89c,22,Mężczyzna,2022-06-11_09h38.49.449,task,2021.1.4,Win32,144.092219,6299f149e92ead563fba08ef,62a4467fc0844f041c0f4970,,,,,,,,,,,,,,,,,,,,,,,,,,,,,,,,,,,,,,,,,,,,,,,,,,,,,,,,,,,,,,,,,,,,,,,,,,,,1,0,1,0,1,,,,,,,,,,,,,,,,,,,,,
,,,,,,,,,,,,605d4ea84a5079897ed0d89c,22,Mężczyzna,2022-06-11_09h38.49.449,task,2021.1.4,Win32,144.092219,6299f149e92ead563fba08ef,62a4467fc0844f041c0f4970,,,,,,,,,,,,,1,,,,,,,,,,Task,9,(3x7) - 20,1,,,,,,,,,,,,,,,,,,,1,,,,,,,,,,,,,,,,,,,,,,,"[""1""]",1,[2.0289999999999964],0,0,0,8,1,,,,,,,,,,,,,,,,,,,,,,,,,,
,,,,,,,,,,,X V Q F H G B L J M P D K C T S W R N Z,605d4ea84a5079897ed0d89c,22,Mężczyzna,2022-06-11_09h38.49.449,task,2021.1.4,Win32,144.092219,6299f149e92ead563fba08ef,62a4467fc0844f041c0f4970,,,,,,,,,,,,,,,,,,,,,,,,,,,,,,,,,,,,,,,,,,,,,,,,,,,,,,,,,,,,,,,,,,,,,,,,,,,,2,0,2,0,1,,,,,,,,,,,,,,,,,,,,,
,,,,,,,,,,,,605d4ea84a5079897ed0d89c,22,Mężczyzna,2022-06-11_09h38.49.449,task,2021.1.4,Win32,144.092219,6299f149e92ead563fba08ef,62a4467fc0844f041c0f4970,,,,,,,,,,,,,8,,,,,,,,,,Task,39,(5x3) - 7,8,,,,,,,,,,,,,,,,,,,1,,,,,,,,,,,,,,,,,,,,,,,"[""8""]",1,[2.867100000023811],0,0,0,38,1,,,,,,,,,,,,,,,,,,,,,,,,,,
,,,,,,,,,,,X V Q F H G B L J M P D K C T S W R N Z,605d4ea84a5079897ed0d89c,22,Mężczyzna,2022-06-11_09h38.49.449,task,2021.1.4,Win32,144.092219,6299f149e92ead563fba08ef,62a4467fc0844f041c0f4970,,,,,,,,,,,,,,,,,,,,,,,,,,,,,,,,,,,,,,,,,,,,,,,,,,,,,,,,,,,,,,,,,,,,,,,,,,,,3,0,3,0,1,,,,,,,,,,,,,,,,,,,,,
,,,,,,,,,,,,605d4ea84a5079897ed0d89c,22,Mężczyzna,2022-06-11_09h38.49.449,task,2021.1.4,Win32,144.092219,6299f149e92ead563fba08ef,62a4467fc0844f041c0f4970,,,,,,,,,,,,,0,,,,,,,,,,Task,33,(1/1) - 1,0,,,,,,,,,,,,,,,,,,,1,,,,,,,,,,,,,,,,,,,,,,,"[""0""]",1,[1.4091999999880613],0,0,0,32,1,,,,,,,,,,,,,,,,,,,,,,,,,,
,,,,,,,,,,,X V Q F H G B L J M P D K C T S W R N Z,605d4ea84a5079897ed0d89c,22,Mężczyzna,2022-06-11_09h38.49.449,task,2021.1.4,Win32,144.092219,6299f149e92ead563fba08ef,62a4467fc0844f041c0f4970,,,,,,,,,,,,,,,,,,,,,,,,,,,,,,,,,,,,,,,,,,,,,,,,,,,,,,,,,,,,,,,,,,,,,,,,,,,,4,0,4,0,1,,,,,,,,,,,,,,,,,,,,,
,,,,,,,,,,,,605d4ea84a5079897ed0d89c,22,Mężczyzna,2022-06-11_09h38.49.449,task,2021.1.4,Win32,144.092219,6299f149e92ead563fba08ef,62a4467fc0844f041c0f4970,,,,,,,,,,,,,,,,,,,,,,,,,,,,,,,,,,,,,,,,,,,,,,,,,,,,,,,,,,,,,,,,,,,,,,,,,,,,,,,,,ppwnq,"[""p"",""p"",""w"",""n"",""q""]",0,"[1.1740999999642554,1.3751999999881264,2.210300000011955,2.53630000001192,2.9613000000119314,3.696300000011945]",1,PPWNQ,3,0,3,0,1,,,,,,,,,,
,,,,,,,,,,,,605d4ea84a5079897ed0d89c,22,Mężczyzna,2022-06-11_09h38.49.449,task,2021.1.4,Win32,144.092219,6299f149e92ead563fba08ef,62a4467fc0844f041c0f4970,,,,,,,,,,,,,1,,,,,,,,,,Task,34,(9/3) - 2,1,,,,,,,,,,,,,,,,,,,1,,,,,,,,,,,,,,,,,,,,,,,"[""1""]",1,[4.559499999999957],0,0,0,33,1,,,,,,,,,,,,,,,,,,,,,,,,,,
,,,,,,,,,,,X V Q F H G B L J M P D K C T S W R N Z,605d4ea84a5079897ed0d89c,22,Mężczyzna,2022-06-11_09h38.49.449,task,2021.1.4,Win32,144.092219,6299f149e92ead563fba08ef,62a4467fc0844f041c0f4970,,,,,,,,,,,,,,,,,,,,,,,,,,,,,,,,,,,,,,,,,,,,,,,,,,,,,,,,,,,,,,,,,,,,,,,,,,,,0,0,0,0,1,,,,,,,,,,,,,,,,,,,,,
,,,,,,,,,,,,605d4ea84a5079897ed0d89c,22,Mężczyzna,2022-06-11_09h38.49.449,task,2021.1.4,Win32,144.092219,6299f149e92ead563fba08ef,62a4467fc0844f041c0f4970,,,,,,,,,,,,,7,,,,,,,,,,Task,14,(2x2) + 3,7,,,,,,,,,,,,,,,,,,,1,,,,,,,,,,,,,,,,,,,,,,,"[""7""]",1,[2.2524999999999977],0,0,0,13,1,,,,,,,,,,,,,,,,,,,,,,,,,,
,,,,,,,,,,,X V Q F H G B L J M P D K C T S W R N Z,605d4ea84a5079897ed0d89c,22,Mężczyzna,2022-06-11_09h38.49.449,task,2021.1.4,Win32,144.092219,6299f149e92ead563fba08ef,62a4467fc0844f041c0f4970,,,,,,,,,,,,,,,,,,,,,,,,,,,,,,,,,,,,,,,,,,,,,,,,,,,,,,,,,,,,,,,,,,,,,,,,,,,,1,0,1,0,1,,,,,,,,,,,,,,,,,,,,,
,,,,,,,,,,,,605d4ea84a5079897ed0d89c,22,Mężczyzna,2022-06-11_09h38.49.449,task,2021.1.4,Win32,144.092219,6299f149e92ead563fba08ef,62a4467fc0844f041c0f4970,,,,,,,,,,,,,0,,,,,,,,,,Task,33,(1/1) - 1,0,,,,,,,,,,,,,,,,,,,1,,,,,,,,,,,,,,,,,,,,,,,"[""0""]",1,[1.6254999999999882],0,0,0,32,1,,,,,,,,,,,,,,,,,,,,,,,,,,
,,,,,,,,,,,X V Q F H G B L J M P D K C T S W R N Z,605d4ea84a5079897ed0d89c,22,Mężczyzna,2022-06-11_09h38.49.449,task,2021.1.4,Win32,144.092219,6299f149e92ead563fba08ef,62a4467fc0844f041c0f4970,,,,,,,,,,,,,,,,,,,,,,,,,,,,,,,,,,,,,,,,,,,,,,,,,,,,,,,,,,,,,,,,,,,,,,,,,,,,2,0,2,0,1,,,,,,,,,,,,,,,,,,,,,
,,,,,,,,,,,,605d4ea84a5079897ed0d89c,22,Mężczyzna,2022-06-11_09h38.49.449,task,2021.1.4,Win32,144.092219,6299f149e92ead563fba08ef,62a4467fc0844f041c0f4970,,,,,,,,,,,,,5,,,,,,,,,,Task,14,(2x2) + 3,7,,,,,,,,,,,,,,,,,,,0,,,,,,,,,,,,,,,,,,,,,,,"[""5""]",0,[2.0960000000000036],0,0,0,13,1,,,,,,,,,,,,,,,,,,,,,,,,,,
,,,,,,,,,,,,605d4ea84a5079897ed0d89c,22,Mężczyzna,2022-06-11_09h38.49.449,task,2021.1.4,Win32,144.092219,6299f149e92ead563fba08ef,62a4467fc0844f041c0f4970,,,,,,,,,,,,,4,,,,,,,,,,Task,4,(1x5) - 1,4,,,,,,,,,,,,,,,,,,,1,,,,,,,,,,,,,,,,,,,,,,,"[""4""]",1,[2.7254000000357905],0,1,1,3,1,,,,,,,,,,,,,,,,,,,,,,,,,,
,,,,,,,,,,,X V Q F H G B L J M P D K C T S W R N Z,605d4ea84a5079897ed0d89c,22,Mężczyzna,2022-06-11_09h38.49.449,task,2021.1.4,Win32,144.092219,6299f149e92ead563fba08ef,62a4467fc0844f041c0f4970,,,,,,,,,,,,,,,,,,,,,,,,,,,,,,,,,,,,,,,,,,,,,,,,,,,,,,,,,,,,,,,,,,,,,,,,,,,,3,0,3,0,1,,,,,,,,,,,,,,,,,,,,,
,,,,,,,,,,,,605d4ea84a5079897ed0d89c,22,Mężczyzna,2022-06-11_09h38.49.449,task,2021.1.4,Win32,144.092219,6299f149e92ead563fba08ef,62a4467fc0844f041c0f4970,,,,,,,,,,,,,6,,,,,,,,,,Task,5,(2x3) + 0,6,,,,,,,,,,,,,,,,,,,1,,,,,,,,,,,,,,,,,,,,,,,"[""6""]",1,[3.2008000000118955],0,0,0,4,1,,,,,,,,,,,,,,,,,,,,,,,,,,
,,,,,,,,,,,X V Q F H G B L J M P D K C T S W R N Z,605d4ea84a5079897ed0d89c,22,Mężczyzna,2022-06-11_09h38.49.449,task,2021.1.4,Win32,144.092219,6299f149e92ead563fba08ef,62a4467fc0844f041c0f4970,,,,,,,,,,,,,,,,,,,,,,,,,,,,,,,,,,,,,,,,,,,,,,,,,,,,,,,,,,,,,,,,,,,,,,,,,,,,4,0,4,0,1,,,,,,,,,,,,,,,,,,,,,
,,,,,,,,,,,,605d4ea84a5079897ed0d89c,22,Mężczyzna,2022-06-11_09h38.49.449,task,2021.1.4,Win32,144.092219,6299f149e92ead563fba08ef,62a4467fc0844f041c0f4970,,,,,,,,,,,,,0,,,,,,,,,,Task,33,(1/1) - 1,0,,,,,,,,,,,,,,,,,,,1,,,,,,,,,,,,,,,,,,,,,,,"[""0""]",1,[2.9749000000357455],0,0,0,32,1,,,,,,,,,,,,,,,,,,,,,,,,,,
,,,,,,,,,,,X V Q F H G B L J M P D K C T S W R N Z,605d4ea84a5079897ed0d89c,22,Mężczyzna,2022-06-11_09h38.49.449,task,2021.1.4,Win32,144.092219,6299f149e92ead563fba08ef,62a4467fc0844f041c0f4970,,,,,,,,,,,,,,,,,,,,,,,,,,,,,,,,,,,,,,,,,,,,,,,,,,,,,,,,,,,,,,,,,,,,,,,,,,,,5,0,5,0,1,,,,,,,,,,,,,,,,,,,,,
,,,,,,,,,,,,605d4ea84a5079897ed0d89c,22,Mężczyzna,2022-06-11_09h38.49.449,task,2021.1.4,Win32,144.092219,6299f149e92ead563fba08ef,62a4467fc0844f041c0f4970,,,,,,,,,,,,,,,,,,,,,,,,,,,,,,,,,,,,,,,,,,,,,,,,,,,,,,,,,,,,,,,,,,,,,,,,,,,,,,,,,nvjtxt,"[""n"",""v"",""j"",""t"",""x"",""t""]",0,"[1.3753999999761959,2.5202999999523286,3.2560000000000286,3.7282999999523554,4.717000000000041,5.421000000000049,6.062899999976196]",1,NVJTXT,4,0,4,0,1,,,,,,,,,,
,,,,,,,,,,,,605d4ea84a5079897ed0d89c,22,Mężczyzna,2022-06-11_09h38.49.449,task,2021.1.4,Win32,144.092219,6299f149e92ead563fba08ef,62a4467fc0844f041c0f4970,,,,,,,,,,,,,1,,,,,,,,,,Task,18,(16/4) - 3,1,,,,,,,,,,,,,,,,,,,1,,,,,,,,,,,,,,,,,,,,,,,"[""1""]",1,[2.075499999999977],0,0,0,17,1,,,,,,,,,,,,,,,,,,,,,,,,,,
,,,,,,,,,,,X V Q F H G B L J M P D K C T S W R N Z,605d4ea84a5079897ed0d89c,22,Mężczyzna,2022-06-11_09h38.49.449,task,2021.1.4,Win32,144.092219,6299f149e92ead563fba08ef,62a4467fc0844f041c0f4970,,,,,,,,,,,,,,,,,,,,,,,,,,,,,,,,,,,,,,,,,,,,,,,,,,,,,,,,,,,,,,,,,,,,,,,,,,,,0,0,0,0,1,,,,,,,,,,,,,,,,,,,,,
,,,,,,,,,,,,605d4ea84a5079897ed0d89c,22,Mężczyzna,2022-06-11_09h38.49.449,task,2021.1.4,Win32,144.092219,6299f149e92ead563fba08ef,62a4467fc0844f041c0f4970,,,,,,,,,,,,,8,,,,,,,,,,Task,39,(5x3) - 7,8,,,,,,,,,,,,,,,,,,,1,,,,,,,,,,,,,,,,,,,,,,,"[""8""]",1,[1.721200000047645],0,0,0,38,1,,,,,,,,,,,,,,,,,,,,,,,,,,
,,,,,,,,,,,X V Q F H G B L J M P D K C T S W R N Z,605d4ea84a5079897ed0d89c,22,Mężczyzna,2022-06-11_09h38.49.449,task,2021.1.4,Win32,144.092219,6299f149e92ead563fba08ef,62a4467fc0844f041c0f4970,,,,,,,,,,,,,,,,,,,,,,,,,,,,,,,,,,,,,,,,,,,,,,,,,,,,,,,,,,,,,,,,,,,,,,,,,,,,1,0,1,0,1,,,,,,,,,,,,,,,,,,,,,
,,,,,,,,,,,,605d4ea84a5079897ed0d89c,22,Mężczyzna,2022-06-11_09h38.49.449,task,2021.1.4,Win32,144.092219,6299f149e92ead563fba08ef,62a4467fc0844f041c0f4970,,,,,,,,,,,,,6,,,,,,,,,,Task,30,(6/3) + 4 ,6,,,,,,,,,,,,,,,,,,,1,,,,,,,,,,,,,,,,,,,,,,,"[""6""]",1,[4.195499999999981],0,0,0,29,1,,,,,,,,,,,,,,,,,,,,,,,,,,
,,,,,,,,,,,X V Q F H G B L J M P D K C T S W R N Z,605d4ea84a5079897ed0d89c,22,Mężczyzna,2022-06-11_09h38.49.449,task,2021.1.4,Win32,144.092219,6299f149e92ead563fba08ef,62a4467fc0844f041c0f4970,,,,,,,,,,,,,,,,,,,,,,,,,,,,,,,,,,,,,,,,,,,,,,,,,,,,,,,,,,,,,,,,,,,,,,,,,,,,2,0,2,0,1,,,,,,,,,,,,,,,,,,,,,
,,,,,,,,,,,,605d4ea84a5079897ed0d89c,22,Mężczyzna,2022-06-11_09h38.49.449,task,2021.1.4,Win32,144.092219,6299f149e92ead563fba08ef,62a4467fc0844f041c0f4970,,,,,,,,,,,,,9,,,,,,,,,,Task,24,(2x2) + 5,9,,,,,,,,,,,,,,,,,,,1,,,,,,,,,,,,,,,,,,,,,,,"[""9""]",1,[2.9716999999880613],0,0,0,23,1,,,,,,,,,,,,,,,,,,,,,,,,,,
,,,,,,,,,,,X V Q F H G B L J M P D K C T S W R N Z,605d4ea84a5079897ed0d89c,22,Mężczyzna,2022-06-11_09h38.49.449,task,2021.1.4,Win32,144.092219,6299f149e92ead563fba08ef,62a4467fc0844f041c0f4970,,,,,,,,,,,,,,,,,,,,,,,,,,,,,,,,,,,,,,,,,,,,,,,,,,,,,,,,,,,,,,,,,,,,,,,,,,,,3,0,3,0,1,,,,,,,,,,,,,,,,,,,,,
,,,,,,,,,,,,605d4ea84a5079897ed0d89c,22,Mężczyzna,2022-06-11_09h38.49.449,task,2021.1.4,Win32,144.092219,6299f149e92ead563fba08ef,62a4467fc0844f041c0f4970,,,,,,,,,,,,,0,,,,,,,,,,Task,33,(1/1) - 1,0,,,,,,,,,,,,,,,,,,,1,,,,,,,,,,,,,,,,,,,,,,,"[""0""]",1,[1.5519000000357437],0,0,0,32,1,,,,,,,,,,,,,,,,,,,,,,,,,,
,,,,,,,,,,,X V Q F H G B L J M P D K C T S W R N Z,605d4ea84a5079897ed0d89c,22,Mężczyzna,2022-06-11_09h38.49.449,task,2021.1.4,Win32,144.092219,6299f149e92ead563fba08ef,62a4467fc0844f041c0f4970,,,,,,,,,,,,,,,,,,,,,,,,,,,,,,,,,,,,,,,,,,,,,,,,,,,,,,,,,,,,,,,,,,,,,,,,,,,,4,0,4,0,1,,,,,,,,,,,,,,,,,,,,,
,,,,,,,,,,,,605d4ea84a5079897ed0d89c,22,Mężczyzna,2022-06-11_09h38.49.449,task,2021.1.4,Win32,144.092219,6299f149e92ead563fba08ef,62a4467fc0844f041c0f4970,,,,,,,,,,,,,8,,,,,,,,,,Task,23,(2x3) + 2,8,,,,,,,,,,,,,,,,,,,1,,,,,,,,,,,,,,,,,,,,,,,"[""8""]",1,[3.944899999976144],0,0,0,22,1,,,,,,,,,,,,,,,,,,,,,,,,,,
,,,,,,,,,,,X V Q F H G B L J M P D K C T S W R N Z,605d4ea84a5079897ed0d89c,22,Mężczyzna,2022-06-11_09h38.49.449,task,2021.1.4,Win32,144.092219,6299f149e92ead563fba08ef,62a4467fc0844f041c0f4970,,,,,,,,,,,,,,,,,,,,,,,,,,,,,,,,,,,,,,,,,,,,,,,,,,,,,,,,,,,,,,,,,,,,,,,,,,,,5,0,5,0,1,,,,,,,,,,,,,,,,,,,,,
,,,,,,,,,,,,605d4ea84a5079897ed0d89c,22,Mężczyzna,2022-06-11_09h38.49.449,task,2021.1.4,Win32,144.092219,6299f149e92ead563fba08ef,62a4467fc0844f041c0f4970,,,,,,,,,,,,,6,,,,,,,,,,Task,37,(3/3) + 5,6,,,,,,,,,,,,,,,,,,,1,,,,,,,,,,,,,,,,,,,,,,,"[""6""]",1,[2.874100000023816],0,0,0,36,1,,,,,,,,,,,,,,,,,,,,,,,,,,
,,,,,,,,,,,X V Q F H G B L J M P D K C T S W R N Z,605d4ea84a5079897ed0d89c,22,Mężczyzna,2022-06-11_09h38.49.449,task,2021.1.4,Win32,144.092219,6299f149e92ead563fba08ef,62a4467fc0844f041c0f4970,,,,,,,,,,,,,,,,,,,,,,,,,,,,,,,,,,,,,,,,,,,,,,,,,,,,,,,,,,,,,,,,,,,,,,,,,,,,6,0,6,0,1,,,,,,,,,,,,,,,,,,,,,
,,,,,,,,,,,,605d4ea84a5079897ed0d89c,22,Mężczyzna,2022-06-11_09h38.49.449,task,2021.1.4,Win32,144.092219,6299f149e92ead563fba08ef,62a4467fc0844f041c0f4970,,,,,,,,,,,,,,,,,,,,,,,,,,,,,,,,,,,,,,,,,,,,,,,,,,,,,,,,,,,,,,,,,,,,,,,,,,,,,,,,,hwpphp,"[""h"",""w"",""p"",""p"",""h"",""p""]",0,"[1.8256999999881032,2.204600000023845,3.4116000000238387,3.5836999999880845,4.286600000023839,4.568499999999972,5.193699999988098]",0,HWPPRHP,5,0,5,0,1,,,,,,,,,,
,,,,,,,,,,,,605d4ea84a5079897ed0d89c,22,Mężczyzna,2022-06-11_09h38.49.449,task,2021.1.4,Win32,144.092219,6299f149e92ead563fba08ef,62a4467fc0844f041c0f4970,,,,,,,,,,,,,6,,,,,,,,,,Task,5,(2x3) + 0,6,,,,,,,,,,,,,,,,,,,1,,,,,,,,,,,,,,,,,,,,,,,"[""6""]",1,[2.4448000000119237],0,0,0,4,1,,,,,,,,,,,,,,,,,,,,,,,,,,
,,,,,,,,,,,X V Q F H G B L J M P D K C T S W R N Z,605d4ea84a5079897ed0d89c,22,Mężczyzna,2022-06-11_09h38.49.449,task,2021.1.4,Win32,144.092219,6299f149e92ead563fba08ef,62a4467fc0844f041c0f4970,,,,,,,,,,,,,,,,,,,,,,,,,,,,,,,,,,,,,,,,,,,,,,,,,,,,,,,,,,,,,,,,,,,,,,,,,,,,0,0,0,0,1,,,,,,,,,,,,,,,,,,,,,
,,,,,,,,,,,,605d4ea84a5079897ed0d89c,22,Mężczyzna,2022-06-11_09h38.49.449,task,2021.1.4,Win32,144.092219,6299f149e92ead563fba08ef,62a4467fc0844f041c0f4970,,,,,,,,,,,,,5,,,,,,,,,,Task,12,(4x4) - 11,5,,,,,,,,,,,,,,,,,,,1,,,,,,,,,,,,,,,,,,,,,,,"[""5""]",1,[2.8625000000000114],0,0,0,11,1,,,,,,,,,,,,,,,,,,,,,,,,,,
,,,,,,,,,,,X V Q F H G B L J M P D K C T S W R N Z,605d4ea84a5079897ed0d89c,22,Mężczyzna,2022-06-11_09h38.49.449,task,2021.1.4,Win32,144.092219,6299f149e92ead563fba08ef,62a4467fc0844f041c0f4970,,,,,,,,,,,,,,,,,,,,,,,,,,,,,,,,,,,,,,,,,,,,,,,,,,,,,,,,,,,,,,,,,,,,,,,,,,,,1,0,1,0,1,,,,,,,,,,,,,,,,,,,,,
,,,,,,,,,,,,605d4ea84a5079897ed0d89c,22,Mężczyzna,2022-06-11_09h38.49.449,task,2021.1.4,Win32,144.092219,6299f149e92ead563fba08ef,62a4467fc0844f041c0f4970,,,,,,,,,,,,,7,,,,,,,,,,Task,11,(18/3) - 2,4,,,,,,,,,,,,,,,,,,,0,,,,,,,,,,,,,,,,,,,,,,,"[""7""]",0,[3.4718999999761877],0,0,0,10,1,,,,,,,,,,,,,,,,,,,,,,,,,,
,,,,,,,,,,,,605d4ea84a5079897ed0d89c,22,Mężczyzna,2022-06-11_09h38.49.449,task,2021.1.4,Win32,144.092219,6299f149e92ead563fba08ef,62a4467fc0844f041c0f4970,,,,,,,,,,,,,0,,,,,,,,,,Task,25,(10/5) - 2,0,,,,,,,,,,,,,,,,,,,1,,,,,,,,,,,,,,,,,,,,,,,"[""0""]",1,[2.902100000023836],0,1,1,24,1,,,,,,,,,,,,,,,,,,,,,,,,,,
,,,,,,,,,,,X V Q F H G B L J M P D K C T S W R N Z,605d4ea84a5079897ed0d89c,22,Mężczyzna,2022-06-11_09h38.49.449,task,2021.1.4,Win32,144.092219,6299f149e92ead563fba08ef,62a4467fc0844f041c0f4970,,,,,,,,,,,,,,,,,,,,,,,,,,,,,,,,,,,,,,,,,,,,,,,,,,,,,,,,,,,,,,,,,,,,,,,,,,,,2,0,2,0,1,,,,,,,,,,,,,,,,,,,,,
,,,,,,,,,,,,605d4ea84a5079897ed0d89c,22,Mężczyzna,2022-06-11_09h38.49.449,task,2021.1.4,Win32,144.092219,6299f149e92ead563fba08ef,62a4467fc0844f041c0f4970,,,,,,,,,,,,,5,,,,,,,,,,Task,12,(4x4) - 11,5,,,,,,,,,,,,,,,,,,,1,,,,,,,,,,,,,,,,,,,,,,,"[""5""]",1,[1.5914999999999964],0,0,0,11,1,,,,,,,,,,,,,,,,,,,,,,,,,,
,,,,,,,,,,,X V Q F H G B L J M P D K C T S W R N Z,605d4ea84a5079897ed0d89c,22,Mężczyzna,2022-06-11_09h38.49.449,task,2021.1.4,Win32,144.092219,6299f149e92ead563fba08ef,62a4467fc0844f041c0f4970,,,,,,,,,,,,,,,,,,,,,,,,,,,,,,,,,,,,,,,,,,,,,,,,,,,,,,,,,,,,,,,,,,,,,,,,,,,,3,0,3,0,1,,,,,,,,,,,,,,,,,,,,,
,,,,,,,,,,,,605d4ea84a5079897ed0d89c,22,Mężczyzna,2022-06-11_09h38.49.449,task,2021.1.4,Win32,144.092219,6299f149e92ead563fba08ef,62a4467fc0844f041c0f4970,,,,,,,,,,,,,0,,,,,,,,,,Task,25,(10/5) - 2,0,,,,,,,,,,,,,,,,,,,1,,,,,,,,,,,,,,,,,,,,,,,"[""0""]",1,[2.1778000000119846],0,0,0,24,1,,,,,,,,,,,,,,,,,,,,,,,,,,
,,,,,,,,,,,X V Q F H G B L J M P D K C T S W R N Z,605d4ea84a5079897ed0d89c,22,Mężczyzna,2022-06-11_09h38.49.449,task,2021.1.4,Win32,144.092219,6299f149e92ead563fba08ef,62a4467fc0844f041c0f4970,,,,,,,,,,,,,,,,,,,,,,,,,,,,,,,,,,,,,,,,,,,,,,,,,,,,,,,,,,,,,,,,,,,,,,,,,,,,4,0,4,0,1,,,,,,,,,,,,,,,,,,,,,
,,,,,,,,,,,,605d4ea84a5079897ed0d89c,22,Mężczyzna,2022-06-11_09h38.49.449,task,2021.1.4,Win32,144.092219,6299f149e92ead563fba08ef,62a4467fc0844f041c0f4970,,,,,,,,,,,,,0,,,,,,,,,,Task,25,(10/5) - 2,0,,,,,,,,,,,,,,,,,,,1,,,,,,,,,,,,,,,,,,,,,,,"[""0""]",1,[1.7379000000357792],0,0,0,24,1,,,,,,,,,,,,,,,,,,,,,,,,,,
,,,,,,,,,,,X V Q F H G B L J M P D K C T S W R N Z,605d4ea84a5079897ed0d89c,22,Mężczyzna,2022-06-11_09h38.49.449,task,2021.1.4,Win32,144.092219,6299f149e92ead563fba08ef,62a4467fc0844f041c0f4970,,,,,,,,,,,,,,,,,,,,,,,,,,,,,,,,,,,,,,,,,,,,,,,,,,,,,,,,,,,,,,,,,,,,,,,,,,,,5,0,5,0,1,,,,,,,,,,,,,,,,,,,,,
,,,,,,,,,,,,605d4ea84a5079897ed0d89c,22,Mężczyzna,2022-06-11_09h38.49.449,task,2021.1.4,Win32,144.092219,6299f149e92ead563fba08ef,62a4467fc0844f041c0f4970,,,,,,,,,,,,,7,,,,,,,,,,Task,6,(12/2) + 1,7,,,,,,,,,,,,,,,,,,,1,,,,,,,,,,,,,,,,,,,,,,,"[""7""]",1,[2.8323999999761327],0,0,0,5,1,,,,,,,,,,,,,,,,,,,,,,,,,,
,,,,,,,,,,,X V Q F H G B L J M P D K C T S W R N Z,605d4ea84a5079897ed0d89c,22,Mężczyzna,2022-06-11_09h38.49.449,task,2021.1.4,Win32,144.092219,6299f149e92ead563fba08ef,62a4467fc0844f041c0f4970,,,,,,,,,,,,,,,,,,,,,,,,,,,,,,,,,,,,,,,,,,,,,,,,,,,,,,,,,,,,,,,,,,,,,,,,,,,,6,0,6,0,1,,,,,,,,,,,,,,,,,,,,,
,,,,,,,,,,,,605d4ea84a5079897ed0d89c,22,Mężczyzna,2022-06-11_09h38.49.449,task,2021.1.4,Win32,144.092219,6299f149e92ead563fba08ef,62a4467fc0844f041c0f4970,,,,,,,,,,,,,,,,,,,,,,,,,,,,,,,,,,,,,,,,,,,,,,,,,,,,,,,,,,,,,,,,,,,,,,,,,,,,,,,,,fqfmvr,"[""f"",""q"",""f"",""m"",""v"",""r""]",0,"[1.51969999998812,1.7533000000120182,2.06350000000009,2.6598999999762327,4.07569999998816,4.700800000012009,5.3738999999761745]",0,FQFMVRT,6,0,6,0,1,,,,,,,,,,
,,,,,,,,,,,,605d4ea84a5079897ed0d89c,22,Mężczyzna,2022-06-11_09h38.49.449,task,2021.1.4,Win32,144.092219,6299f149e92ead563fba08ef,62a4467fc0844f041c0f4970,,,,,,,,,,,,,,,,,,,,,,,,,,,,,,,,,,,,,,,,,,,,,,,,,,,,,,,,,,,,,,,,,,,,,,,,,,,,,,,,,,,,,,,,,,,,"[""comma""]",0,[0.7968000000118991],0,0,0,0,1,,
,,,,,,,,,,,,605d4ea84a5079897ed0d89c,22,Mężczyzna,2022-06-11_09h38.49.449,task,2021.1.4,Win32,144.092219,6299f149e92ead563fba08ef,62a4467fc0844f041c0f4970,,,,,,,,,,,,,,,,,,,,,,,,,,,,,,,,,,,,,,,,,,,,,,,,,,,,,,,,,,,,,,,,,,,,,,,,,,,,,,,,,,,,,,,,,,,,"[""period""]",0,[0.7024999999999864],1,0,1,0,1,,
,,,,,,,,,,,,605d4ea84a5079897ed0d89c,22,Mężczyzna,2022-06-11_09h38.49.449,task,2021.1.4,Win32,144.092219,6299f149e92ead563fba08ef,62a4467fc0844f041c0f4970,,,,,,,,,,,,,,,,,,,,,,,,,,,,,,,,,,,,,,,,,,,,,,,,,,,,,,,,,,,,,,,,,,,,,,,,,,,,,,,,,,,,,,,,,,,,"[""period""]",0,[0.7281999999880782],2,0,2,0,1,,
,,,,,,,,,,,,605d4ea84a5079897ed0d89c,22,Mężczyzna,2022-06-11_09h38.49.449,task,2021.1.4,Win32,144.092219,6299f149e92ead563fba08ef,62a4467fc0844f041c0f4970,,,,,,,,,,,,,,,,,,,,,,,,,,,,,,,,,,,,,,,,,,,,,,,,,,,,,,,,,,,,,,,,,,,,,,,,,,,,,,,,,,,,,,,,,,,,"[""comma""]",0,[0.51039999997613],3,0,3,0,1,,
,,,,,,,,,,,,605d4ea84a5079897ed0d89c,22,Mężczyzna,2022-06-11_09h38.49.449,task,2021.1.4,Win32,144.092219,6299f149e92ead563fba08ef,62a4467fc0844f041c0f4970,,,,,,,,,,,,,,,,,,,,,,,,,,,,,,,,,,,,,,,,,,,,,,,,,,,,,,,,,,,,,,,,,,,,,,,,,,,,,,,,,,,,,,,,,,,,"[""period""]",0,[0.26549999999997453],4,0,4,0,1,,
,,,,,,,,,,,,605d4ea84a5079897ed0d89c,22,Mężczyzna,2022-06-11_09h38.49.449,task,2021.1.4,Win32,144.092219,6299f149e92ead563fba08ef,62a4467fc0844f041c0f4970,,,,,,,,,,,,,,,,,,,,,,,,,,,,,,,,,,,,,,,,,,,,,,,,,,,,,,,,,,,,,,,,,,,,,,,,,,,,,,,,,,,,,,,,,,,,"[""period""]",0,[0.4791999999880545],5,0,5,0,1,,
,,,,,,,,,,,,605d4ea84a5079897ed0d89c,22,Mężczyzna,2022-06-11_09h38.49.449,task,2021.1.4,Win32,144.092219,6299f149e92ead563fba08ef,62a4467fc0844f041c0f4970,,,,,,,,,,,,,,,,,,,,,,,,,,,,,,,,,,,,,,,,,,,,,,,,,,,,,,,,,,,,,,,,,,,,,,,,,,,,,,,,,,,,,,,,,,,,"[""comma""]",0,[0.29749999999989996],6,0,6,0,1,,
,,,,,,,,,,,,605d4ea84a5079897ed0d89c,22,Mężczyzna,2022-06-11_09h38.49.449,task,2021.1.4,Win32,144.092219,6299f149e92ead563fba08ef,62a4467fc0844f041c0f4970,,,,,,,,,,,,,,,,,,,,,,,,,,,,,,,,,,,,,,,,,,,,,,,,,,,,,,,,,,,,,,,,,,,,,,,,,,,,,,,,,,,,,,,,,,,,"[""comma""]",0,[0.6269000000357892],7,0,7,0,1,,
,,,,,,,,,,,,605d4ea84a5079897ed0d89c,22,Mężczyzna,2022-06-11_09h38.49.449,task,2021.1.4,Win32,144.092219,6299f149e92ead563fba08ef,62a4467fc0844f041c0f4970,,,,,,,,,,,,,,,,,,,,,,,,,,,,,,,,,,,,,,,,,,,,,,,,,,,,,,,,,,,,,,,,,,,,,,,,,,,,,,,,,,,,,,,,,,,,"[""period""]",0,[0.3992000000476992],8,0,8,0,1,,
,,,,,,,,,,,,605d4ea84a5079897ed0d89c,22,Mężczyzna,2022-06-11_09h38.49.449,task,2021.1.4,Win32,144.092219,6299f149e92ead563fba08ef,62a4467fc0844f041c0f4970,,,,,,,,,,,,,,,,,,,,,,,,,,,,,,,,,,,,,,,,,,,,,,,,,,,,,,,,,,,,,,,,,,,,,,,,,,,,,,,,,,,,,,,,,,,,"[""comma""]",0,[0.35719999998809726],9,0,9,0,1,,
,,,,,,,,,,,,605d4ea84a5079897ed0d89c,22,Mężczyzna,2022-06-11_09h38.49.449,task,2021.1.4,Win32,144.092219,6299f149e92ead563fba08ef,62a4467fc0844f041c0f4970,,,,,,,,,,,,,,,,,,,,,,,,,,,,,,,,,,,,,,,,,,,,,,,,,,,,,,,,,,,,,,,,,,,,,,,,,,,,,,,,,,,,,,,,,,,,"[""period""]",0,[0.5845000000000482],10,0,10,0,1,,
,,,,,,,,,,,,605d4ea84a5079897ed0d89c,22,Mężczyzna,2022-06-11_09h38.49.449,task,2021.1.4,Win32,144.092219,6299f149e92ead563fba08ef,62a4467fc0844f041c0f4970,,,,,,,,,,,,,,,,,,,,,,,,,,,,,,,,,,,,,,,,,,,,,,,,,,,,,,,,,,,,,,,,,,,,,,,,,,,,,,,,,,,,,,,,,,,,"[""period""]",0,[0.46530000001189364],11,0,11,0,1,,
,,,,,,,,,,,,605d4ea84a5079897ed0d89c,22,Mężczyzna,2022-06-11_09h38.49.449,task,2021.1.4,Win32,144.092219,6299f149e92ead563fba08ef,62a4467fc0844f041c0f4970,,,,,,,,,,,,,,,,,,,,,,,,,,,,,,,,,,,,,,,,,,,,,,,,,,,,,,,,,,,,,,,,,,,,,,,,,,,,,,,,,,,,,,,,,,,,"[""period""]",0,[1.1116999999879909],12,0,12,0,1,,
,,,,,,,,,,,,605d4ea84a5079897ed0d89c,22,Mężczyzna,2022-06-11_09h38.49.449,task,2021.1.4,Win32,144.092219,6299f149e92ead563fba08ef,62a4467fc0844f041c0f4970,,,,,,,,,,,,,,,,,,,,,,,,,,,,,,,,,,,,,,,,,,,,,,,,,,,,,,,,,,,,,,,,,,,,,,,,,,,,,,,,,,,,,,,,,,,,"[""comma""]",0,[0.3057000000477501],13,0,13,0,1,,
,,,,,,,,,,,,605d4ea84a5079897ed0d89c,22,Mężczyzna,2022-06-11_09h38.49.449,task,2021.1.4,Win32,144.092219,6299f149e92ead563fba08ef,62a4467fc0844f041c0f4970,,,,,,,,,,,,,,,,,,,,,,,,,,,,,,,,,,,,,,,,,,,,,,,,,,,,,,,,,,,,,,,,,,,,,,,,,,,,,,,,,,,,,,,,,,,,"[""period""]",0,[0.27700000000004366],14,0,14,0,1,,
,,,,,,,,,,,,605d4ea84a5079897ed0d89c,22,Mężczyzna,2022-06-11_09h38.49.449,task,2021.1.4,Win32,144.092219,6299f149e92ead563fba08ef,62a4467fc0844f041c0f4970,,,,,,,,,,,,,,,,,,,,,,,,,,,,,,,,,,,,,,,,,,,,,,,,,,,,,,,,,,,,,,,,,,,,,,,,,,,,,,,,,,,,,,,,,,,,"[""comma""]",0,[0.2973999999761645],15,0,15,0,1,,
,,,,,,,,,,,,605d4ea84a5079897ed0d89c,22,Mężczyzna,2022-06-11_09h38.49.449,task,2021.1.4,Win32,144.092219,6299f149e92ead563fba08ef,62a4467fc0844f041c0f4970,,,,,,,,,,,,,,,,,,,,,,,,,,,,,,,,,,,,,,,,,,,,,,,,,,,,,,,,,,,,,,,,,,,,,,,,,,,,,,,,,,,,,,,,,,,,"[""comma""]",0,[0.2555000000000973],16,0,16,0,1,,
,,,,,,,,,,,,605d4ea84a5079897ed0d89c,22,Mężczyzna,2022-06-11_09h38.49.449,task,2021.1.4,Win32,144.092219,6299f149e92ead563fba08ef,62a4467fc0844f041c0f4970,,,,,,,,,,,,,,,,,,,,,,,,,,,,,,,,,,,,,,,,,,,,,,,,,,,,,,,,,,,,,,,,,,,,,,,,,,,,,,,,,,,,,,,,,,,,"[""comma""]",0,[0.28130000001192457],17,0,17,0,1,,
,,,,,,,,,,,,605d4ea84a5079897ed0d89c,22,Mężczyzna,2022-06-11_09h38.49.449,task,2021.1.4,Win32,144.092219,6299f149e92ead563fba08ef,62a4467fc0844f041c0f4970,,,,,,,,,,,,,,,,,,,,,,,,,,,,,,,,,,,,,,,,,,,,,,,,,,,,,,,,,,,,,,,,,,,,,,,,,,,,,,,,,,,,,,,,,,,,"[""period""]",0,[0.27049999999997],18,0,18,0,1,,
,,,,,,,,,,,,605d4ea84a5079897ed0d89c,22,Mężczyzna,2022-06-11_09h38.49.449,task,2021.1.4,Win32,144.092219,6299f149e92ead563fba08ef,62a4467fc0844f041c0f4970,,,,,,,,,,,,,,,,,,,,,,,,,,,,,,,,,,,,,,,,,,,,,,,,,,,,,,,,,,,,,,,,,,,,,,,,,,,,,,,,,,,,,,,,,,,,"[""period""]",0,[0.30580000001191365],19,0,19,0,1,,
,,,,,,,,,,,,605d4ea84a5079897ed0d89c,22,Mężczyzna,2022-06-11_09h38.49.449,task,2021.1.4,Win32,144.092219,6299f149e92ead563fba08ef,62a4467fc0844f041c0f4970,,,,,,,,,,,,,,,,,,,,,,,,,,,,,,,,,,,,,,,,,,,,,,,,,,,,,,,,,,,,,,,,,,,,,,,,,,,,,,,,,,,,,,,,,,,,"[""comma""]",0,[0.24900000000002365],20,0,20,0,1,,
,,,,,,,,,,,,605d4ea84a5079897ed0d89c,22,Mężczyzna,2022-06-11_09h38.49.449,task,2021.1.4,Win32,144.092219,6299f149e92ead563fba08ef,62a4467fc0844f041c0f4970,,,,,,,,,,,,,,,,,,,,,,,,,,,,,,,,,,,,,,,,,,,,,,,,,,,,,,,,,,,,,,,,,,,,,,,,,,,,,,,,,,,,,,,,,,,,"[""comma""]",0,[0.5698000000119237],21,0,21,0,1,,
,,,,,,,,,,,,605d4ea84a5079897ed0d89c,22,Mężczyzna,2022-06-11_09h38.49.449,task,2021.1.4,Win32,144.092219,6299f149e92ead563fba08ef,62a4467fc0844f041c0f4970,,,,,,,,,,,,,,,,,,,,,,,,,,,,,,,,,,,,,,,,,,,,,,,,,,,,,,,,,,,,,,,,,,,,,,,,,,,,,,,,,,,,,,,,,,,,"[""period""]",0,[0.2778999999761709],22,0,22,0,1,,
,,,,,,,,,,,,605d4ea84a5079897ed0d89c,22,Mężczyzna,2022-06-11_09h38.49.449,task,2021.1.4,Win32,144.092219,6299f149e92ead563fba08ef,62a4467fc0844f041c0f4970,,,,,,,,,,,,,,,,,,,,,,,,,,,,,,,,,,,,,,,,,,,,,,,,,,,,,,,,,,,,,,,,,,,,,,,,,,,,,,,,,,,,,,,,,,,,"[""comma""]",0,[0.5311000000237982],23,0,23,0,1,,
,,,,,,,,,,,,605d4ea84a5079897ed0d89c,22,Mężczyzna,2022-06-11_09h38.49.449,task,2021.1.4,Win32,144.092219,6299f149e92ead563fba08ef,62a4467fc0844f041c0f4970,,,,,,,,,,,,,,,,,,,,,,,,,,,,,,,,,,,,,,,,,,,,,,,,,,,,,,,,,,,,,,,,,,,,,,,,,,,,,,,,,,,,,,,,,,,,"[""period""]",0,[0.42619999998805724],24,0,24,0,1,,
,,,,,,,,,,,,605d4ea84a5079897ed0d89c,22,Mężczyzna,2022-06-11_09h38.49.449,task,2021.1.4,Win32,144.092219,6299f149e92ead563fba08ef,62a4467fc0844f041c0f4970,,,,,,,,,,,,,,,,,,,,,,,,,,,,,,,,,,,,,,,,,,,,,,,,,,,,,,,,,,,,,,,,,,,,,,,,,,,,,,,,,,,,,,,,,,,,"[""comma""]",0,[0.9173999999761691],25,0,25,0,1,,
,,,,,,,,,,,,605d4ea84a5079897ed0d89c,22,Mężczyzna,2022-06-11_09h38.49.449,task,2021.1.4,Win32,144.092219,6299f149e92ead563fba08ef,62a4467fc0844f041c0f4970,,,,,,,,,,,,,,,,,,,,,,,,,,,,,,,,,,,,,,,,,,,,,,,,,,,,,,,,,,,,,,,,,,,,,,,,,,,,,,,,,,,,,,,,,,,,"[""period""]",0,[0.32650000000001],26,0,26,0,1,,
,,,,,,,,,,,,605d4ea84a5079897ed0d89c,22,Mężczyzna,2022-06-11_09h38.49.449,task,2021.1.4,Win32,144.092219,6299f149e92ead563fba08ef,62a4467fc0844f041c0f4970,,,,,,,,,,,,,,,,,,,,,,,,,,,,,,,,,,,,,,,,,,,,,,,,,,,,,,,,,,,,,,,,,,,,,,,,,,,,,,,,,,,,,,,,,,,,"[""period""]",0,[0.2588000000120019],27,0,27,0,1,,
,,,,,,,,,,,,605d4ea84a5079897ed0d89c,22,Mężczyzna,2022-06-11_09h38.49.449,task,2021.1.4,Win32,144.092219,6299f149e92ead563fba08ef,62a4467fc0844f041c0f4970,,,,,,,,,,,,,,,,,,,,,,,,,,,,,,,,,,,,,,,,,,,,,,,,,,,,,,,,,,,,,,,,,,,,,,,,,,,,,,,,,,,,,,,,,,,,"[""period""]",0,[0.45050000000003365],28,0,28,0,1,,
,,,,,,,,,,,,605d4ea84a5079897ed0d89c,22,Mężczyzna,2022-06-11_09h38.49.449,task,2021.1.4,Win32,144.092219,6299f149e92ead563fba08ef,62a4467fc0844f041c0f4970,,,,,,,,,,,,,,,,,,,,,,,,,,,,,,,,,,,,,,,,,,,,,,,,,,,,,,,,,,,,,,,,,,,,,,,,,,,,,,,,,,,,,,,,,,,,"[""comma""]",0,[0.2520000000000664],29,0,29,0,1,,
,,,,,,,,,,,,605d4ea84a5079897ed0d89c,22,Mężczyzna,2022-06-11_09h38.49.449,task,2021.1.4,Win32,144.092219,6299f149e92ead563fba08ef,62a4467fc0844f041c0f4970,,,,,,,,,,,,,,,,,,,,,,,,,,,,,,,,,,,,,,,,,,,,,,,,,,,,,,,,,,,,,,,,,,,,,,,,,,,,,,,,,,,,,,,,,,,,"[""comma""]",0,[0.2871000000238837],30,0,30,0,1,,
,,,,,,,,,,,,605d4ea84a5079897ed0d89c,22,Mężczyzna,2022-06-11_09h38.49.449,task,2021.1.4,Win32,144.092219,6299f149e92ead563fba08ef,62a4467fc0844f041c0f4970,,,,,,,,,,,,,,,,,,,,,,,,,,,,,,,,,,,,,,,,,,,,,,,,,,,,,,,,,,,,,,,,,,,,,,,,,,,,,,,,,,,,,,,,,,,,"[""period""]",0,[0.2923000000118918],31,0,31,0,1,,
,,,,,,,,,,,,605d4ea84a5079897ed0d89c,22,Mężczyzna,2022-06-11_09h38.49.449,task,2021.1.4,Win32,144.092219,6299f149e92ead563fba08ef,62a4467fc0844f041c0f4970,,,,,,,,,,,,,,,,,,,,,,,,,,,,,,,,,,,,,,,,,,,,,,,,,,,,,,,,,,,,,,,,,,,,,,,,,,,,,,,,,,,,,,,,,,,,"[""comma""]",0,[0.2505999999642654],32,0,32,0,1,,
,,,,,,,,,,,,605d4ea84a5079897ed0d89c,22,Mężczyzna,2022-06-11_09h38.49.449,task,2021.1.4,Win32,144.092219,6299f149e92ead563fba08ef,62a4467fc0844f041c0f4970,,,,,,,,,,,,,,,,,,,,,,,,,,,,,,,,,,,,,,,,,,,,,,,,,,,,,,,,,,,,,,,,,,,,,,,,,,,,,,,,,,,,,,,,,,,,"[""comma""]",0,[0.25980000001186454],33,0,33,0,1,,
,,,,,,,,,,,,605d4ea84a5079897ed0d89c,22,Mężczyzna,2022-06-11_09h38.49.449,task,2021.1.4,Win32,144.092219,6299f149e92ead563fba08ef,62a4467fc0844f041c0f4970,,,,,,,,,,,,,,,,,,,,,,,,,,,,,,,,,,,,,,,,,,,,,,,,,,,,,,,,,,,,,,,,,,,,,,,,,,,,,,,,,,,,,,,,,,,,"[""comma""]",0,[0.24889999997606083],34,0,34,0,1,,
,,,,,,,,,,,,605d4ea84a5079897ed0d89c,22,Mężczyzna,2022-06-11_09h38.49.449,task,2021.1.4,Win32,144.092219,6299f149e92ead563fba08ef,62a4467fc0844f041c0f4970,,,,,,,,,,,,,,,,,,,,,,,,,,,,,,,,,,,,,,,,,,,,,,,,,,,,,,,,,,,,,,,,,,,,,,,,,,,,,,,,,,,,,,,,,,,,"[""period""]",0,[0.5544000000357983],35,0,35,0,1,,
,,,,,,,,,,,,605d4ea84a5079897ed0d89c,22,Mężczyzna,2022-06-11_09h38.49.449,task,2021.1.4,Win32,144.092219,6299f149e92ead563fba08ef,62a4467fc0844f041c0f4970,,,,,,,,,,,,,,,,,,,,,,,,,,,,,,,,,,,,,,,,,,,,,,,,,,,,,,,,,,,,,,,,,,,,,,,,,,,,,,,,,,,,,,,,,,,,"[""comma""]",0,[0.27189999997619907],36,0,36,0,1,,
,,,,,,,,,,,,605d4ea84a5079897ed0d89c,22,Mężczyzna,2022-06-11_09h38.49.449,task,2021.1.4,Win32,144.092219,6299f149e92ead563fba08ef,62a4467fc0844f041c0f4970,,,,,,,,,,,,,,,,,,,,,,,,,,,,,,,,,,,,,,,,,,,,,,,,,,,,,,,,,,,,,,,,,,,,,,,,,,,,,,,,,,,,,,,,,,,,"[""period""]",0,[0.27669999998806816],37,0,37,0,1,,
,,,,,,,,,,,,605d4ea84a5079897ed0d89c,22,Mężczyzna,2022-06-11_09h38.49.449,task,2021.1.4,Win32,144.092219,6299f149e92ead563fba08ef,62a4467fc0844f041c0f4970,,,,,,,,,,,,,,,,,,,,,,,,,,,,,,,,,,,,,,,,,,,,,,,,,,,,,,,,,,,,,,,,,,,,,,,,,,,,,,,,,,,,,,,,,,,,"[""period""]",0,[0.25589999997612267],38,0,38,0,1,,
,,,,,,,,,,,,605d4ea84a5079897ed0d89c,22,Mężczyzna,2022-06-11_09h38.49.449,task,2021.1.4,Win32,144.092219,6299f149e92ead563fba08ef,62a4467fc0844f041c0f4970,,,,,,,,,,,,,,,,,,,,,,,,,,,,,,,,,,,,,,,,,,,,,,,,,,,,,,,,,,,,,,,,,,,,,,,,,,,,,,,,,,,,,,,,,,,,"[""comma""]",0,[0.2746000000238382],39,0,39,0,1,,
,,,,,,,,,,,,605d4ea84a5079897ed0d89c,22,Mężczyzna,2022-06-11_09h38.49.449,task,2021.1.4,Win32,144.092219,6299f149e92ead563fba08ef,62a4467fc0844f041c0f4970,,,,,,,,,,,,,,,,,,,,,,,,,,,,,,,,,,,,,,,,,,,,,,,,,,,,,,,,,,,,,,,,,,,,,,,,,,,,,,,,,,,,,,,,,,,,"[""period""]",0,[0.26349999999990814],40,0,40,0,1,,
,,,,,,,,,,,,605d4ea84a5079897ed0d89c,22,Mężczyzna,2022-06-11_09h38.49.449,task,2021.1.4,Win32,144.092219,6299f149e92ead563fba08ef,62a4467fc0844f041c0f4970,,,,,,,,,,,,,,,,,,,,,,,,,,,,,,,,,,,,,,,,,,,,,,,,,,,,,,,,,,,,,,,,,,,,,,,,,,,,,,,,,,,,,,,,,,,,"[""period""]",0,[0.299699999987979],41,0,41,0,1,,
,,,,,,,,,,,,605d4ea84a5079897ed0d89c,22,Mężczyzna,2022-06-11_09h38.49.449,task,2021.1.4,Win32,144.092219,6299f149e92ead563fba08ef,62a4467fc0844f041c0f4970,,,,,,,,,,,,,,,,,,,,,,,,,,,,,,,,,,,,,,,,,,,,,,,,,,,,,,,,,,,,,,,,,,,,,,,,,,,,,,,,,,,,,,,,,,,,"[""comma""]",0,[0.21079999995231447],42,0,42,0,1,,
,,,,,,,,,,,,605d4ea84a5079897ed0d89c,22,Mężczyzna,2022-06-11_09h38.49.449,task,2021.1.4,Win32,144.092219,6299f149e92ead563fba08ef,62a4467fc0844f041c0f4970,,,,,,,,,,,,,,,,,,,,,,,,,,,,,,,,,,,,,,,,,,,,,,,,,,,,,,,,,,,,,,,,,,,,,,,,,,,,,,,,,,,,,,,,,,,,"[""comma""]",0,[0.375],43,0,43,0,1,,
,,,,,,,,,,,,605d4ea84a5079897ed0d89c,22,Mężczyzna,2022-06-11_09h38.49.449,task,2021.1.4,Win32,144.092219,6299f149e92ead563fba08ef,62a4467fc0844f041c0f4970,,,,,,,,,,,,,,,,,,,,,,,,,,,,,,,,,,,,,,,,,,,,,,,,,,,,,,,,,,,,,,,,,,,,,,,,,,,,,,,,,,,,,,,,,,,,"[""period""]",0,[0.22400000000004638],44,0,44,0,1,,
,,,,,,,,,,,,605d4ea84a5079897ed0d89c,22,Mężczyzna,2022-06-11_09h38.49.449,task,2021.1.4,Win32,144.092219,6299f149e92ead563fba08ef,62a4467fc0844f041c0f4970,,,,,,,,,,,,,,,,,,,,,,,,,,,,,,,,,,,,,,,,,,,,,,,,,,,,,,,,,,,,,,,,,,,,,,,,,,,,,,,,,,,,,,,,,,,,"[""comma""]",0,[0.24330000001191365],45,0,45,0,1,,
,,,,,,,,,,,,605d4ea84a5079897ed0d89c,22,Mężczyzna,2022-06-11_09h38.49.449,task,2021.1.4,Win32,144.092219,6299f149e92ead563fba08ef,62a4467fc0844f041c0f4970,,,,,,,,,,,,,,,,,,,,,,,,,,,,,,,,,,,,,,,,,,,,,,,,,,,,,,,,,,,,,,,,,,,,,,,,,,,,,,,,,,,,,,,,,,,,"[""period""]",0,[0.5484000000357128],46,0,46,0,1,,
,,,,,,,,,,,,605d4ea84a5079897ed0d89c,22,Mężczyzna,2022-06-11_09h38.49.449,task,2021.1.4,Win32,144.092219,6299f149e92ead563fba08ef,62a4467fc0844f041c0f4970,,,,,,,,,,,,,,,,,,,,,,,,,,,,,,,,,,,,,,,,,,,,,,,,,,,,,,,,,,,,,,,,,,,,,,,,,,,,,,,,,,,,,,,,,,,,"[""period""]",0,[0.3503999999761618],47,0,47,0,1,,
,,,,,,,,,,,,605d4ea84a5079897ed0d89c,22,Mężczyzna,2022-06-11_09h38.49.449,task,2021.1.4,Win32,144.092219,6299f149e92ead563fba08ef,62a4467fc0844f041c0f4970,,,,,,,,,,,,,,,,,,,,,,,,,,,,,,,,,,,,,,,,,,,,,,,,,,,,,,,,,,,,,,,,,,,,,,,,,,,,,,,,,,,,,,,,,,,,"[""comma""]",0,[0.27669999998806816],48,0,48,0,1,,
,,,,,,,,,,,,605d4ea84a5079897ed0d89c,22,Mężczyzna,2022-06-11_09h38.49.449,task,2021.1.4,Win32,144.092219,6299f149e92ead563fba08ef,62a4467fc0844f041c0f4970,,,,,,,,,,,,,,,,,,,,,,,,,,,,,,,,,,,,,,,,,,,,,,,,,,,,,,,,,,,,,,,,,,,,,,,,,,,,,,,,,,,,,,,,,,,,"[""period""]",0,[0.2503000000119755],49,0,49,0,1,,
,,,,,,,,,,,,605d4ea84a5079897ed0d89c,22,Mężczyzna,2022-06-11_09h38.49.449,task,2021.1.4,Win32,144.092219,6299f149e92ead563fba08ef,62a4467fc0844f041c0f4970,,,,,,,,,,,,,,,,,,,,,,,,,,,,,,,,,,,,,,,,,,,,,,,,,,,,,,,,,,,,,,,,,,,,,,,,,,,,,,,,,,,,,,,,,,,,"[""comma""]",0,[0.0978999999762209],50,0,50,0,1,,
,,,,,,,,,,,,605d4ea84a5079897ed0d89c,22,Mężczyzna,2022-06-11_09h38.49.449,task,2021.1.4,Win32,144.092219,6299f149e92ead563fba08ef,62a4467fc0844f041c0f4970,,,,,,,,,,,,,,,,,,,,,,,,,,,,,,,,,,,,,,,,,,,,,,,,,,,,,,,,,,,,,,,,,,,,,,,,,,,,,,,,,,,,,,,,,,,,"[""comma""]",0,[0.3198999999760872],51,0,51,0,1,,
,,,,,,,,,,,,605d4ea84a5079897ed0d89c,22,Mężczyzna,2022-06-11_09h38.49.449,task,2021.1.4,Win32,144.092219,6299f149e92ead563fba08ef,62a4467fc0844f041c0f4970,,,,,,,,,,,,,,,,,,,,,,,,,,,,,,,,,,,,,,,,,,,,,,,,,,,,,,,,,,,,,,,,,,,,,,,,,,,,,,,,,,,,,,,,,,,,"[""comma""]",0,[0.3401000000237673],52,0,52,0,1,,
,,,,,,,,,,,,605d4ea84a5079897ed0d89c,22,Mężczyzna,2022-06-11_09h38.49.449,task,2021.1.4,Win32,144.092219,6299f149e92ead563fba08ef,62a4467fc0844f041c0f4970,,,,,,,,,,,,,,,,,,,,,,,,,,,,,,,,,,,,,,,,,,,,,,,,,,,,,,,,,,,,,,,,,,,,,,,,,,,,,,,,,,,,,,,,,,,,"[""period""]",0,[0.3669999999999618],53,0,53,0,1,,
,,,,,,,,,,,,605d4ea84a5079897ed0d89c,22,Mężczyzna,2022-06-11_09h38.49.449,task,2021.1.4,Win32,144.092219,6299f149e92ead563fba08ef,62a4467fc0844f041c0f4970,,,,,,,,,,,,,,,,,,,,,,,,,,,,,,,,,,,,,,,,,,,,,,,,,,,,,,,,,,,,,,,,,,,,,,,,,,,,,,,,,,,,,,,,,,,,"[""period""]",0,[0.2925000000000182],54,0,54,0,1,,
,,,,,,,,,,,,605d4ea84a5079897ed0d89c,22,Mężczyzna,2022-06-11_09h38.49.449,task,2021.1.4,Win32,144.092219,6299f149e92ead563fba08ef,62a4467fc0844f041c0f4970,,,,,,,,,,,,,,,,,,,,,,,,,,,,,,,,,,,,,,,,,,,,,,,,,,,,,,,,,,,,,,,,,,,,,,,,,,,,,,,,,,,,,,,,,,,,"[""comma""]",0,[0.45250000000010004],55,0,55,0,1,,
,,,,,,,,,,,,605d4ea84a5079897ed0d89c,22,Mężczyzna,2022-06-11_09h38.49.449,task,2021.1.4,Win32,144.092219,6299f149e92ead563fba08ef,62a4467fc0844f041c0f4970,,,,,,,,,,,,,,,,,,,,,,,,,,,,,,,,,,,,,,,,,,,,,,,,,,,,,,,,,,,,,,,,,,,,,,,,,,,,,,,,,,,,,,,,,,,,"[""period""]",0,[0.6655000000000655],56,0,56,0,1,,
,,,,,,,,,,,,605d4ea84a5079897ed0d89c,22,Mężczyzna,2022-06-11_09h38.49.449,task,2021.1.4,Win32,144.092219,6299f149e92ead563fba08ef,62a4467fc0844f041c0f4970,,,,,,,,,,,,,,,,,,,,,,,,,,,,,,,,,,,,,,,,,,,,,,,,,,,,,,,,,,,,,,,,,,,,,,,,,,,,,,,,,,,,,,,,,,,,"[""comma""]",0,[0.7928999999761572],57,0,57,0,1,,
,,,,,,,,,,,,605d4ea84a5079897ed0d89c,22,Mężczyzna,2022-06-11_09h38.49.449,task,2021.1.4,Win32,144.092219,6299f149e92ead563fba08ef,62a4467fc0844f041c0f4970,,,,,,,,,,,,,,,,,,,,,,,,,,,,,,,,,,,,,,,,,,,,,,,,,,,,,,,,,,,,,,,,,,,,,,,,,,,,,,,,,,,,,,,,,,,,"[""period""]",0,[0.37800000000004275],58,0,58,0,1,,
,,,,,,,,,,,,605d4ea84a5079897ed0d89c,22,Mężczyzna,2022-06-11_09h38.49.449,task,2021.1.4,Win32,144.092219,6299f149e92ead563fba08ef,62a4467fc0844f041c0f4970,,,,,,,,,,,,,,,,,,,,,,,,,,,,,,,,,,,,,,,,,,,,,,,,,,,,,,,,,,,,,,,,,,,,,,,,,,,,,,,,,,,,,,,,,,,,"[""period""]",0,[0.3821000000237973],59,0,59,0,1,,
,,,,,,,,,,,,605d4ea84a5079897ed0d89c,22,Mężczyzna,2022-06-11_09h38.49.449,task,2021.1.4,Win32,144.092219,6299f149e92ead563fba08ef,62a4467fc0844f041c0f4970,,,,,,,,,,,,,,,,,,,,,,,,,,,,,,,,,,,,,,,,,,,,,,,,,,,,,,,,,,,,,,,,,,,,,,,,,,,,,,,,,,,,,,,,,,,,"[""comma""]",0,[0.3541999999880545],60,0,60,0,1,,
,,,,,,,,,,,,605d4ea84a5079897ed0d89c,22,Mężczyzna,2022-06-11_09h38.49.449,task,2021.1.4,Win32,144.092219,6299f149e92ead563fba08ef,62a4467fc0844f041c0f4970,,,,,,,,,,,,,,,,,,,,,,,,,,,,,,,,,,,,,,,,,,,,,,,,,,,,,,,,,,,,,,,,,,,,,,,,,,,,,,,,,,,,,,,,,,,,"[""period""]",0,[0.4043999999761354],61,0,61,0,1,,
,,,,,,,,,,,,605d4ea84a5079897ed0d89c,22,Mężczyzna,2022-06-11_09h38.49.449,task,2021.1.4,Win32,144.092219,6299f149e92ead563fba08ef,62a4467fc0844f041c0f4970,,,,,,,,,,,,,,,,,,,,,,,,,,,,,,,,,,,,,,,,,,,,,,,,,,,,,,,,,,,,,,,,,,,,,,,,,,,,,,,,,,,,,,,,,,,,"[""comma""]",0,[0.33260000002383094],62,0,62,0,1,,
,,,,,,,,,,,,605d4ea84a5079897ed0d89c,22,Mężczyzna,2022-06-11_09h38.49.449,task,2021.1.4,Win32,144.092219,6299f149e92ead563fba08ef,62a4467fc0844f041c0f4970,,,,,,,,,,,,,,,,,,,,,,,,,,,,,,,,,,,,,,,,,,,,,,,,,,,,,,,,,,,,,,,,,,,,,,,,,,,,,,,,,,,,,,,,,,,,"[""period""]",0,[0.4503999999761845],63,0,63,0,1,,
,,,,,,,,,,,,605d4ea84a5079897ed0d89c,22,Mężczyzna,2022-06-11_09h38.49.449,task,2021.1.4,Win32,144.092219,6299f149e92ead563fba08ef,62a4467fc0844f041c0f4970,,,,,,,,,,,,,,,,,,,,,,,,,,,,,,,,,,,,,,,,,,,,,,,,,,,,,,,,,,,,,,,,,,,,,,,,,,,,,,,,,,,,,,,,,,,,"[""period""]",0,[0.3758000000119637],64,0,64,0,1,,
,,,,,,,,,,,,605d4ea84a5079897ed0d89c,22,Mężczyzna,2022-06-11_09h38.49.449,task,2021.1.4,Win32,144.092219,6299f149e92ead563fba08ef,62a4467fc0844f041c0f4970,,,,,,,,,,,,,,,,,,,,,,,,,,,,,,,,,,,,,,,,,,,,,,,,,,,,,,,,,,,,,,,,,,,,,,,,,,,,,,,,,,,,,,,,,,,,"[""comma""]",0,[0.28700000000003456],65,0,65,0,1,,
,,,,,,,,,,,,605d4ea84a5079897ed0d89c,22,Mężczyzna,2022-06-11_09h38.49.449,task,2021.1.4,Win32,144.092219,6299f149e92ead563fba08ef,62a4467fc0844f041c0f4970,,,,,,,,,,,,,,,,,,,,,,,,,,,,,,,,,,,,,,,,,,,,,,,,,,,,,,,,,,,,,,,,,,,,,,,,,,,,,,,,,,,,,,,,,,,,"[""period""]",0,[0.2633999999761727],66,0,66,0,1,,
,,,,,,,,,,,,605d4ea84a5079897ed0d89c,22,Mężczyzna,2022-06-11_09h38.49.449,task,2021.1.4,Win32,144.092219,6299f149e92ead563fba08ef,62a4467fc0844f041c0f4970,,,,,,,,,,,,,,,,,,,,,,,,,,,,,,,,,,,,,,,,,,,,,,,,,,,,,,,,,,,,,,,,,,,,,,,,,,,,,,,,,,,,,,,,,,,,"[""comma""]",0,[0.5209999999999582],67,0,67,0,1,,
,,,,,,,,,,,,605d4ea84a5079897ed0d89c,22,Mężczyzna,2022-06-11_09h38.49.449,task,2021.1.4,Win32,144.092219,6299f149e92ead563fba08ef,62a4467fc0844f041c0f4970,,,,,,,,,,,,,,,,,,,,,,,,,,,,,,,,,,,,,,,,,,,,,,,,,,,,,,,,,,,,,,,,,,,,,,,,,,,,,,,,,,,,,,,,,,,,"[""period""]",0,[0.3365000000000009],68,0,68,0,1,,
,,,,,,,,,,,,605d4ea84a5079897ed0d89c,22,Mężczyzna,2022-06-11_09h38.49.449,task,2021.1.4,Win32,144.092219,6299f149e92ead563fba08ef,62a4467fc0844f041c0f4970,,,,,,,,,,,,,,,,,,,,,,,,,,,,,,,,,,,,,,,,,,,,,,,,,,,,,,,,,,,,,,,,,,,,,,,,,,,,,,,,,,,,,,,,,,,,"[""comma""]",0,[0.2493999999761627],69,0,69,0,1,,
,,,,,,,,,,,,605d4ea84a5079897ed0d89c,22,Mężczyzna,2022-06-11_09h38.49.449,task,2021.1.4,Win32,144.092219,6299f149e92ead563fba08ef,62a4467fc0844f041c0f4970,,,,,,,,,,,,,,,,,,,,,,,,,,,,,,,,,,,,,,,,,,,,,,,,,,,,,,,,,,,,,,,,,,,,,,,,,,,,,,,,,,,,,,,,,,,,"[""comma""]",0,[0.32969999998806543],70,0,70,0,1,,
,,,,,,,,,,,,605d4ea84a5079897ed0d89c,22,Mężczyzna,2022-06-11_09h38.49.449,task,2021.1.4,Win32,144.092219,6299f149e92ead563fba08ef,62a4467fc0844f041c0f4970,,,,,,,,,,,,,,,,,,,,,,,,,,,,,,,,,,,,,,,,,,,,,,,,,,,,,,,,,,,,,,,,,,,,,,,,,,,,,,,,,,,,,,,,,,,,"[""period""]",0,[0.5698000000119237],71,0,71,0,1,,
,,,,,,,,,,,,605d4ea84a5079897ed0d89c,22,Mężczyzna,2022-06-11_09h38.49.449,task,2021.1.4,Win32,144.092219,6299f149e92ead563fba08ef,62a4467fc0844f041c0f4970,,,,,,,,,,,,,,,,,,,,,,,,,,,,,,,,,,,,,,,,,,,,,,,,,,,,,,,,,,,,,,,,,,,,,,,,,,,,,,,,,,,,,,,,,,,,"[""comma""]",0,[0.5291999999881227],72,0,72,0,1,,
,,,,,,,,,,,,605d4ea84a5079897ed0d89c,22,Mężczyzna,2022-06-11_09h38.49.449,task,2021.1.4,Win32,144.092219,6299f149e92ead563fba08ef,62a4467fc0844f041c0f4970,,,,,,,,,,,,,,,,,,,,,,,,,,,,,,,,,,,,,,,,,,,,,,,,,,,,,,,,,,,,,,,,,,,,,,,,,,,,,,,,,,,,,,,,,,,,"[""period""]",0,[0.3783999999761818],73,0,73,0,1,,
,,,,,,,,,,,,605d4ea84a5079897ed0d89c,22,Mężczyzna,2022-06-11_09h38.49.449,task,2021.1.4,Win32,144.092219,6299f149e92ead563fba08ef,62a4467fc0844f041c0f4970,,,,,,,,,,,,,,,,,,,,,,,,,,,,,,,,,,,,,,,,,,,,,,,,,,,,,,,,,,,,,,,,,,,,,,,,,,,,,,,,,,,,,,,,,,,,"[""period""]",0,[0.3044999999999618],74,0,74,0,1,,
,,,,,,,,,,,,605d4ea84a5079897ed0d89c,22,Mężczyzna,2022-06-11_09h38.49.449,task,2021.1.4,Win32,144.092219,6299f149e92ead563fba08ef,62a4467fc0844f041c0f4970,,,,,,,,,,,,,,,,,,,,,,,,,,,,,,,,,,,,,,,,,,,,,,,,,,,,,,,,,,,,,,,,,,,,,,,,,,,,,,,,,,,,,,,,,,,,"[""comma""]",0,[0.2628000000119073],75,0,75,0,1,,
,,,,,,,,,,,,605d4ea84a5079897ed0d89c,22,Mężczyzna,2022-06-11_09h38.49.449,task,2021.1.4,Win32,144.092219,6299f149e92ead563fba08ef,62a4467fc0844f041c0f4970,,,,,,,,,,,,,,,,,,,,,,,,,,,,,,,,,,,,,,,,,,,,,,,,,,,,,,,,,,,,,,,,,,,,,,,,,,,,,,,,,,,,,,,,,,,,"[""period""]",0,[0.3753000000118618],76,0,76,0,1,,
,,,,,,,,,,,,605d4ea84a5079897ed0d89c,22,Mężczyzna,2022-06-11_09h38.49.449,task,2021.1.4,Win32,144.092219,6299f149e92ead563fba08ef,62a4467fc0844f041c0f4970,,,,,,,,,,,,,,,,,,,,,,,,,,,,,,,,,,,,,,,,,,,,,,,,,,,,,,,,,,,,,,,,,,,,,,,,,,,,,,,,,,,,,,,,,,,,"[""comma""]",0,[0.31950000000006185],77,0,77,0,1,,
,,,,,,,,,,,,605d4ea84a5079897ed0d89c,22,Mężczyzna,2022-06-11_09h38.49.449,task,2021.1.4,Win32,144.092219,6299f149e92ead563fba08ef,62a4467fc0844f041c0f4970,,,,,,,,,,,,,,,,,,,,,,,,,,,,,,,,,,,,,,,,,,,,,,,,,,,,,,,,,,,,,,,,,,,,,,,,,,,,,,,,,,,,,,,,,,,,"[""period""]",0,[0.29180000001190365],78,0,78,0,1,,
,,,,,,,,,,,,605d4ea84a5079897ed0d89c,22,Mężczyzna,2022-06-11_09h38.49.449,task,2021.1.4,Win32,144.092219,6299f149e92ead563fba08ef,62a4467fc0844f041c0f4970,,,,,,,,,,,,,,,,,,,,,,,,,,,,,,,,,,,,,,,,,,,,,,,,,,,,,,,,,,,,,,,,,,,,,,,,,,,,,,,,,,,,,,,,,,,,"[""period""]",0,[0.28499999999996817],79,0,79,0,1,,
,,,,,,,,,,,,605d4ea84a5079897ed0d89c,22,Mężczyzna,2022-06-11_09h38.49.449,task,2021.1.4,Win32,144.092219,6299f149e92ead563fba08ef,62a4467fc0844f041c0f4970,,,,,,,,,,,,,,,,,,,,,,,,,,,,,,,,,,,,,,,,,,,,,,,,,,,,,,,,,,,,,,,,,,,,,,,,,,,,,,,,,,,,,,,,,,,,"[""comma""]",0,[0.29069999998807816],80,0,80,0,1,,
,,,,,,,,,,,,605d4ea84a5079897ed0d89c,22,Mężczyzna,2022-06-11_09h38.49.449,task,2021.1.4,Win32,144.092219,6299f149e92ead563fba08ef,62a4467fc0844f041c0f4970,,,,,,,,,,,,,,,,,,,,,,,,,,,,,,,,,,,,,,,,,,,,,,,,,,,,,,,,,,,,,,,,,,,,,,,,,,,,,,,,,,,,,,,,,,,,"[""comma""]",0,[0.23099999999999454],81,0,81,0,1,,
,,,,,,,,,,,,605d4ea84a5079897ed0d89c,22,Mężczyzna,2022-06-11_09h38.49.449,task,2021.1.4,Win32,144.092219,6299f149e92ead563fba08ef,62a4467fc0844f041c0f4970,,,,,,,,,,,,,,,,,,,,,,,,,,,,,,,,,,,,,,,,,,,,,,,,,,,,,,,,,,,,,,,,,,,,,,,,,,,,,,,,,,,,,,,,,,,,"[""period""]",0,[0.3611999999880027],82,0,82,0,1,,
,,,,,,,,,,,,605d4ea84a5079897ed0d89c,22,Mężczyzna,2022-06-11_09h38.49.449,task,2021.1.4,Win32,144.092219,6299f149e92ead563fba08ef,62a4467fc0844f041c0f4970,,,,,,,,,,,,,,,,,,,,,,,,,,,,,,,,,,,,,,,,,,,,,,,,,,,,,,,,,,,,,,,,,,,,,,,,,,,,,,,,,,,,,,,,,,,,"[""comma""]",0,[0.36459999996418446],83,0,83,0,1,,
,,,,,,,,,,,,605d4ea84a5079897ed0d89c,22,Mężczyzna,2022-06-11_09h38.49.449,task,2021.1.4,Win32,144.092219,6299f149e92ead563fba08ef,62a4467fc0844f041c0f4970,,,,,,,,,,,,,,,,,,,,,,,,,,,,,,,,,,,,,,,,,,,,,,,,,,,,,,,,,,,,,,,,,,,,,,,,,,,,,,,,,,,,,,,,,,,,"[""comma""]",0,[0.27760000002388097],84,0,84,0,1,,
,,,,,,,,,,,,605d4ea84a5079897ed0d89c,22,Mężczyzna,2022-06-11_09h38.49.449,task,2021.1.4,Win32,144.092219,6299f149e92ead563fba08ef,62a4467fc0844f041c0f4970,,,,,,,,,,,,,,,,,,,,,,,,,,,,,,,,,,,,,,,,,,,,,,,,,,,,,,,,,,,,,,,,,,,,,,,,,,,,,,,,,,,,,,,,,,,,"[""period""]",0,[0.2998999999762191],85,0,85,0,1,,
,,,,,,,,,,,,605d4ea84a5079897ed0d89c,22,Mężczyzna,2022-06-11_09h38.49.449,task,2021.1.4,Win32,144.092219,6299f149e92ead563fba08ef,62a4467fc0844f041c0f4970,,,,,,,,,,,,,,,,,,,,,,,,,,,,,,,,,,,,,,,,,,,,,,,,,,,,,,,,,,,,,,,,,,,,,,,,,,,,,,,,,,,,,,,,,,,,"[""period""]",0,[0.31980000001192366],86,0,86,0,1,,
,,,,,,,,,,,,605d4ea84a5079897ed0d89c,22,Mężczyzna,2022-06-11_09h38.49.449,task,2021.1.4,Win32,144.092219,6299f149e92ead563fba08ef,62a4467fc0844f041c0f4970,,,,,,,,,,,,,,,,,,,,,,,,,,,,,,,,,,,,,,,,,,,,,,,,,,,,,,,,,,,,,,,,,,,,,,,,,,,,,,,,,,,,,,,,,,,,"[""comma""]",0,[0.2631000000238828],87,0,87,0,1,,
,,,,,,,,,,,,605d4ea84a5079897ed0d89c,22,Mężczyzna,2022-06-11_09h38.49.449,task,2021.1.4,Win32,144.092219,6299f149e92ead563fba08ef,62a4467fc0844f041c0f4970,,,,,,,,,,,,,,,,,,,,,,,,,,,,,,,,,,,,,,,,,,,,,,,,,,,,,,,,,,,,,,,,,,,,,,,,,,,,,,,,,,,,,,,,,,,,"[""comma""]",0,[0.25219999998807907],88,0,88,0,1,,
,,,,,,,,,,,,605d4ea84a5079897ed0d89c,22,Mężczyzna,2022-06-11_09h38.49.449,task,2021.1.4,Win32,144.092219,6299f149e92ead563fba08ef,62a4467fc0844f041c0f4970,,,,,,,,,,,,,,,,,,,,,,,,,,,,,,,,,,,,,,,,,,,,,,,,,,,,,,,,,,,,,,,,,,,,,,,,,,,,,,,,,,,,,,,,,,,,"[""period""]",0,[0.3396000000237791],89,0,89,0,1,,
,,,,,,,,,,,,605d4ea84a5079897ed0d89c,22,Mężczyzna,2022-06-11_09h38.49.449,task,2021.1.4,Win32,144.092219,6299f149e92ead563fba08ef,62a4467fc0844f041c0f4970,,,,,,,,,,,,,,,,,,,,,,,,,,,,,,,,,,,,,,,,,,,,,,,,,,,,,,,,,,,,,,,,,,,,,,,,,,,,,,,,,,,,,,,,,,,,"[""comma""]",0,[0.3136000000238255],90,0,90,0,1,,
,,,,,,,,,,,,605d4ea84a5079897ed0d89c,22,Mężczyzna,2022-06-11_09h38.49.449,task,2021.1.4,Win32,144.092219,6299f149e92ead563fba08ef,62a4467fc0844f041c0f4970,,,,,,,,,,,,,,,,,,,,,,,,,,,,,,,,,,,,,,,,,,,,,,,,,,,,,,,,,,,,,,,,,,,,,,,,,,,,,,,,,,,,,,,,,,,,"[""period""]",0,[0.4446999999880745],91,0,91,0,1,,
,,,,,,,,,,,,605d4ea84a5079897ed0d89c,22,Mężczyzna,2022-06-11_09h38.49.449,task,2021.1.4,Win32,144.092219,6299f149e92ead563fba08ef,62a4467fc0844f041c0f4970,,,,,,,,,,,,,,,,,,,,,,,,,,,,,,,,,,,,,,,,,,,,,,,,,,,,,,,,,,,,,,,,,,,,,,,,,,,,,,,,,,,,,,,,,,,,"[""comma""]",0,[0.2607999999523827],92,0,92,0,1,,
,,,,,,,,,,,,605d4ea84a5079897ed0d89c,22,Mężczyzna,2022-06-11_09h38.49.449,task,2021.1.4,Win32,144.092219,6299f149e92ead563fba08ef,62a4467fc0844f041c0f4970,,,,,,,,,,,,,,,,,,,,,,,,,,,,,,,,,,,,,,,,,,,,,,,,,,,,,,,,,,,,,,,,,,,,,,,,,,,,,,,,,,,,,,,,,,,,"[""comma""]",0,[0.25040000003571095],93,0,93,0,1,,
,,,,,,,,,,,,605d4ea84a5079897ed0d89c,22,Mężczyzna,2022-06-11_09h38.49.449,task,2021.1.4,Win32,144.092219,6299f149e92ead563fba08ef,62a4467fc0844f041c0f4970,,,,,,,,,,,,,,,,,,,,,,,,,,,,,,,,,,,,,,,,,,,,,,,,,,,,,,,,,,,,,,,,,,,,,,,,,,,,,,,,,,,,,,,,,,,,"[""period""]",0,[0.23900000000003274],94,0,94,0,1,,
,,,,,,,,,,,,605d4ea84a5079897ed0d89c,22,Mężczyzna,2022-06-11_09h38.49.449,task,2021.1.4,Win32,144.092219,6299f149e92ead563fba08ef,62a4467fc0844f041c0f4970,,,,,,,,,,,,,,,,,,,,,,,,,,,,,,,,,,,,,,,,,,,,,,,,,,,,,,,,,,,,,,,,,,,,,,,,,,,,,,,,,,,,,,,,,,,,"[""period""]",0,[0.2641999999880227],95,0,95,0,1,,
,,,,,,,,,,,,605d4ea84a5079897ed0d89c,22,Mężczyzna,2022-06-11_09h38.49.449,task,2021.1.4,Win32,144.092219,6299f149e92ead563fba08ef,62a4467fc0844f041c0f4970,,,,,,,,,,,,,,,,,,,,,,,,,,,,,,,,,,,,,,,,,,,,,,,,,,,,,,,,,,,,,,,,,,,,,,,,,,,,,,,,,,,,,,,,,,,,"[""period""]",0,[0.3073999999761554],96,0,96,0,1,,
,,,,,,,,,,,,605d4ea84a5079897ed0d89c,22,Mężczyzna,2022-06-11_09h38.49.449,task,2021.1.4,Win32,144.092219,6299f149e92ead563fba08ef,62a4467fc0844f041c0f4970,,,,,,,,,,,,,,,,,,,,,,,,,,,,,,,,,,,,,,,,,,,,,,,,,,,,,,,,,,,,,,,,,,,,,,,,,,,,,,,,,,,,,,,,,,,,"[""comma""]",0,[0.3275999999642636],97,0,97,0,1,,
,,,,,,,,,,,,605d4ea84a5079897ed0d89c,22,Mężczyzna,2022-06-11_09h38.49.449,task,2021.1.4,Win32,144.092219,6299f149e92ead563fba08ef,62a4467fc0844f041c0f4970,,,,,,,,,,,,,,,,,,,,,,,,,,,,,,,,,,,,,,,,,,,,,,,,,,,,,,,,,,,,,,,,,,,,,,,,,,,,,,,,,,,,,,,,,,,,"[""period""]",0,[0.28549999999995634],98,0,98,0,1,,
,,,,,,,,,,,,605d4ea84a5079897ed0d89c,22,Mężczyzna,2022-06-11_09h38.49.449,task,2021.1.4,Win32,144.092219,6299f149e92ead563fba08ef,62a4467fc0844f041c0f4970,,,,,,,,,,,,,,,,,,,,,,,,,,,,,,,,,,,,,,,,,,,,,,,,,,,,,,,,,,,,,,,,,,,,,,,,,,,,,,,,,,,,,,,,,,,,"[""comma""]",0,[0.2426000000237991],99,0,99,0,1,,
,,,,,,,,,,,,605d4ea84a5079897ed0d89c,22,Mężczyzna,2022-06-11_09h38.49.449,task,2021.1.4,Win32,144.092219,6299f149e92ead563fba08ef,62a4467fc0844f041c0f4970,,,,,,,,,,,,,,,,,,,,,,,,,,,,,,,,,,,,,,,,,,,,,,,,,,,,,,,,,,,,,,,,,,,,,,,,,,,,,,,,,,,,,,,,,,,,"[""period""]",0,[0.3154000000357655],100,0,100,0,1,,
,,,,,,,,,,,,605d4ea84a5079897ed0d89c,22,Mężczyzna,2022-06-11_09h38.49.449,task,2021.1.4,Win32,144.092219,6299f149e92ead563fba08ef,62a4467fc0844f041c0f4970,,,,,,,,,,,,,,,,,,,,,,,,,,,,,,,,,,,,,,,,,,,,,,,,,,,,,,,,,,,,,,,,,,,,,,,,,,,,,,,,,,,,,,,,,,,,"[""comma""]",0,[0.2740000000000009],101,0,101,0,1,,
,,,,,,,,,,,,605d4ea84a5079897ed0d89c,22,Mężczyzna,2022-06-11_09h38.49.449,task,2021.1.4,Win32,144.092219,6299f149e92ead563fba08ef,62a4467fc0844f041c0f4970,,,,,,,,,,,,,,,,,,,,,,,,,,,,,,,,,,,,,,,,,,,,,,,,,,,,,,,,,,,,,,,,,,,,,,,,,,,,,,,,,,,,,,,,,,,,"[""comma""]",0,[0.3253000000119073],102,0,102,0,1,,
,,,,,,,,,,,,605d4ea84a5079897ed0d89c,22,Mężczyzna,2022-06-11_09h38.49.449,task,2021.1.4,Win32,144.092219,6299f149e92ead563fba08ef,62a4467fc0844f041c0f4970,,,,,,,,,,,,,,,,,,,,,,,,,,,,,,,,,,,,,,,,,,,,,,,,,,,,,,,,,,,,,,,,,,,,,,,,,,,,,,,,,,,,,,,,,,,,"[""period""]",0,[0.3141999999880909],103,0,103,0,1,,
,,,,,,,,,,,,605d4ea84a5079897ed0d89c,22,Mężczyzna,2022-06-11_09h38.49.449,task,2021.1.4,Win32,144.092219,6299f149e92ead563fba08ef,62a4467fc0844f041c0f4970,,,,,,,,,,,,,,,,,,,,,,,,,,,,,,,,,,,,,,,,,,,,,,,,,,,,,,,,,,,,,,,,,,,,,,,,,,,,,,,,,,,,,,,,,,,,"[""comma""]",0,[0.31900000000007367],104,0,104,0,1,,
,,,,,,,,,,,,605d4ea84a5079897ed0d89c,22,Mężczyzna,2022-06-11_09h38.49.449,task,2021.1.4,Win32,144.092219,6299f149e92ead563fba08ef,62a4467fc0844f041c0f4970,,,,,,,,,,,,,,,,,,,,,,,,,,,,,,,,,,,,,,,,,,,,,,,,,,,,,,,,,,,,,,,,,,,,,,,,,,,,,,,,,,,,,,,,,,,,"[""period""]",0,[0.2785000000000082],105,0,105,0,1,,
,,,,,,,,,,,,605d4ea84a5079897ed0d89c,22,Mężczyzna,2022-06-11_09h38.49.449,task,2021.1.4,Win32,144.092219,6299f149e92ead563fba08ef,62a4467fc0844f041c0f4970,,,,,,,,,,,,,,,,,,,,,,,,,,,,,,,,,,,,,,,,,,,,,,,,,,,,,,,,,,,,,,,,,,,,,,,,,,,,,,,,,,,,,,,,,,,,"[""comma""]",0,[0.25359999996419447],106,0,106,0,1,,
,,,,,,,,,,,,605d4ea84a5079897ed0d89c,22,Mężczyzna,2022-06-11_09h38.49.449,task,2021.1.4,Win32,144.092219,6299f149e92ead563fba08ef,62a4467fc0844f041c0f4970,,,,,,,,,,,,,,,,,,,,,,,,,,,,,,,,,,,,,,,,,,,,,,,,,,,,,,,,,,,,,,,,,,,,,,,,,,,,,,,,,,,,,,,,,,,,"[""period""]",0,[0.35340000003577643],107,0,107,0,1,,
,,,,,,,,,,,,605d4ea84a5079897ed0d89c,22,Mężczyzna,2022-06-11_09h38.49.449,task,2021.1.4,Win32,144.092219,6299f149e92ead563fba08ef,62a4467fc0844f041c0f4970,,,,,,,,,,,,,,,,,,,,,,,,,,,,,,,,,,,,,,,,,,,,,,,,,,,,,,,,,,,,,,,,,,,,,,,,,,,,,,,,,,,,,,,,,,,,"[""period""]",0,[0.27780000001200733],108,0,108,0,1,,
,,,,,,,,,,,,605d4ea84a5079897ed0d89c,22,Mężczyzna,2022-06-11_09h38.49.449,task,2021.1.4,Win32,144.092219,6299f149e92ead563fba08ef,62a4467fc0844f041c0f4970,,,,,,,,,,,,,,,,,,,,,,,,,,,,,,,,,,,,,,,,,,,,,,,,,,,,,,,,,,,,,,,,,,,,,,,,,,,,,,,,,,,,,,,,,,,,"[""comma""]",0,[0.31410000002392735],109,0,109,0,1,,
,,,,,,,,,,,,605d4ea84a5079897ed0d89c,22,Mężczyzna,2022-06-11_09h38.49.449,task,2021.1.4,Win32,144.092219,6299f149e92ead563fba08ef,62a4467fc0844f041c0f4970,,,,,,,,,,,,,,,,,,,,,,,,,,,,,,,,,,,,,,,,,,,,,,,,,,,,,,,,,,,,,,,,,,,,,,,,,,,,,,,,,,,,,,,,,,,,"[""comma""]",0,[0.2563000000119473],110,0,110,0,1,,
,,,,,,,,,,,,605d4ea84a5079897ed0d89c,22,Mężczyzna,2022-06-11_09h38.49.449,task,2021.1.4,Win32,144.092219,6299f149e92ead563fba08ef,62a4467fc0844f041c0f4970,,,,,,,,,,,,,,,,,,,,,,,,,,,,,,,,,,,,,,,,,,,,,,,,,,,,,,,,,,,,,,,,,,,,,,,,,,,,,,,,,,,,,,,,,,,,"[""comma""]",0,[0.07339999997623181],111,0,111,0,1,,
,,,,,,,,,,,,605d4ea84a5079897ed0d89c,22,Mężczyzna,2022-06-11_09h38.49.449,task,2021.1.4,Win32,144.092219,6299f149e92ead563fba08ef,62a4467fc0844f041c0f4970,,,,,,,,,,,,,,,,,,,,,,,,,,,,,,,,,,,,,,,,,,,,,,,,,,,,,,,,,,,,,,,,,,,,,,,,,,,,,,,,,,,,,,,,,,,,"[""period""]",0,[0.23960000002387005],112,0,112,0,1,,
,,,,,,,,,,,,605d4ea84a5079897ed0d89c,22,Mężczyzna,2022-06-11_09h38.49.449,task,2021.1.4,Win32,144.092219,6299f149e92ead563fba08ef,62a4467fc0844f041c0f4970,,,,,,,,,,,,,,,,,,,,,,,,,,,,,,,,,,,,,,,,,,,,,,,,,,,,,,,,,,,,,,,,,,,,,,,,,,,,,,,,,,,,,,,,,,,,"[""period""]",0,[0.24389999997617906],113,0,113,0,1,,
,,,,,,,,,,,,605d4ea84a5079897ed0d89c,22,Mężczyzna,2022-06-11_09h38.49.449,task,2021.1.4,Win32,144.092219,6299f149e92ead563fba08ef,62a4467fc0844f041c0f4970,,,,,,,,,,,,,,,,,,,,,,,,,,,,,,,,,,,,,,,,,,,,,,,,,,,,,,,,,,,,,,,,,,,,,,,,,,,,,,,,,,,,,,,,,,,,"[""comma""]",0,[0.2489000000358601],114,0,114,0,1,,
,,,,,,,,,,,,605d4ea84a5079897ed0d89c,22,Mężczyzna,2022-06-11_09h38.49.449,task,2021.1.4,Win32,144.092219,6299f149e92ead563fba08ef,62a4467fc0844f041c0f4970,,,,,,,,,,,,,,,,,,,,,,,,,,,,,,,,,,,,,,,,,,,,,,,,,,,,,,,,,,,,,,,,,,,,,,,,,,,,,,,,,,,,,,,,,,,,"[""period""]",0,[0.23680000001195367],115,0,115,0,1,,
,,,,,,,,,,,,605d4ea84a5079897ed0d89c,22,Mężczyzna,2022-06-11_09h38.49.449,task,2021.1.4,Win32,144.092219,6299f149e92ead563fba08ef,62a4467fc0844f041c0f4970,,,,,,,,,,,,,,,,,,,,,,,,,,,,,,,,,,,,,,,,,,,,,,,,,,,,,,,,,,,,,,,,,,,,,,,,,,,,,,,,,,,,,,,,,,,,"[""comma""]",0,[0.2311999999881209],116,0,116,0,1,,
,,,,,,,,,,,,605d4ea84a5079897ed0d89c,22,Mężczyzna,2022-06-11_09h38.49.449,task,2021.1.4,Win32,144.092219,6299f149e92ead563fba08ef,62a4467fc0844f041c0f4970,,,,,,,,,,,,,,,,,,,,,,,,,,,,,,,,,,,,,,,,,,,,,,,,,,,,,,,,,,,,,,,,,,,,,,,,,,,,,,,,,,,,,,,,,,,,"[""period""]",0,[0.6100000000000136],117,0,117,0,1,,
,,,,,,,,,,,,605d4ea84a5079897ed0d89c,22,Mężczyzna,2022-06-11_09h38.49.449,task,2021.1.4,Win32,144.092219,6299f149e92ead563fba08ef,62a4467fc0844f041c0f4970,,,,,,,,,,,,,,,,,,,,,,,,,,,,,,,,,,,,,,,,,,,,,,,,,,,,,,,,,,,,,,,,,,,,,,,,,,,,,,,,,,,,,,,,,,,,"[""period""]",0,[0.39649999999994634],118,0,118,0,1,,
,,,,,,,,,,,,605d4ea84a5079897ed0d89c,22,Mężczyzna,2022-06-11_09h38.49.449,task,2021.1.4,Win32,144.092219,6299f149e92ead563fba08ef,62a4467fc0844f041c0f4970,,,,,,,,,,,,,,,,,,,,,,,,,,,,,,,,,,,,,,,,,,,,,,,,,,,,,,,,,,,,,,,,,,,,,,,,,,,,,,,,,,,,,,,,,,,,"[""comma""]",0,[0.3233999999761181],119,0,119,0,1,,
,,,,,,,,,,,,605d4ea84a5079897ed0d89c,22,Mężczyzna,2022-06-11_09h38.49.449,task,2021.1.4,Win32,144.092219,6299f149e92ead563fba08ef,62a4467fc0844f041c0f4970,,,,,,,,,,,,,,,,,,,,,,,,,,,,,,,,,,,,,,,,,,,,,,,,,,,,,,,,,,,,,,,,,,,,,,,,,,,,,,,,,,,,,,,,,,,,,,,,,,,,space,2.1423
