key_resp_15.keys,key_resp_15.rt,key_resp_16.keys,key_resp_16.rt,key_resp_4.keys,key_resp_4.rt,next_letter.thisRepN,next_letter.thisTrialN,next_letter.thisN,next_letter.thisIndex,next_letter.ran,letter,participant,Wiek*,Płeć,date,expName,psychopyVersion,OS,frameRate,study_id,session,simple_recall,key_resp_5.keys,key_resp_5.rt,simple_recall_corr,simple_recall_corrkeys,next_level.thisRepN,next_level.thisTrialN,next_level.thisN,next_level.thisIndex,next_level.ran,key_resp_2.keys,key_resp_2.rt,digit_answer,key_resp.keys,key_resp.corr,key_resp.rt,RT_list,next_equation.thisRepN,next_equation.thisTrialN,next_equation.thisN,next_equation.thisIndex,next_equation.ran,Task,Trial,Problem,Operation_answer,processing_score,sumRT,meanRT,sumdiff,sd,RT,key_resp_3.keys,key_resp_3.rt,repeat_practice.thisRepN,repeat_practice.thisTrialN,repeat_practice.thisN,repeat_practice.thisIndex,repeat_practice.ran,key_resp_6.keys,key_resp_6.rt,key_resp_11.keys,key_resp_11.corr,key_resp_11.rt,operation_correct,repeat_if_wrong_prac.thisRepN,repeat_if_wrong_prac.thisTrialN,repeat_if_wrong_prac.thisN,repeat_if_wrong_prac.thisIndex,repeat_if_wrong_prac.ran,span_size_prac.thisRepN,span_size_prac.thisTrialN,span_size_prac.thisN,span_size_prac.thisIndex,span_size_prac.ran,complex_recall_practice,key_resp_9.keys,key_resp_9.corr,key_resp_9.rt,complex_prac_corr,span_recall_prac.thisRepN,span_recall_prac.thisTrialN,span_recall_prac.thisN,span_recall_prac.thisIndex,span_recall_prac.ran,key_resp_10.keys,key_resp_10.rt,key_resp_7.keys,key_resp_7.corr,key_resp_7.rt,repeat_if_wrong.thisRepN,repeat_if_wrong.thisTrialN,repeat_if_wrong.thisN,repeat_if_wrong.thisIndex,repeat_if_wrong.ran,span_size.thisRepN,span_size.thisTrialN,span_size.thisN,span_size.thisIndex,span_size.ran,complex_recall,key_resp_8.keys,key_resp_8.corr,key_resp_8.rt,complex_recall_corr,complex_recall_corrkeys,span_recall.thisRepN,span_recall.thisTrialN,span_recall.thisN,span_recall.thisIndex,span_recall.ran,key_resp_13.keys,key_resp_13.corr,key_resp_13.rt,random_loop.thisRepN,random_loop.thisTrialN,random_loop.thisN,random_loop.thisIndex,random_loop.ran,key_resp_12.keys,key_resp_12.rt
space,4.1992,space,20.4643,space,6.6922,0,0,0,0,1,X V Q F H G B L J M P D K C T S W R N Z,6066e9cfce4f74fe20aa3cad,47,Mężczyzna,2022-06-11_09h33.00.129,task,2021.1.4,Win32,59.60896519,6299f149e92ead563fba08ef,62a4450f4d4f0b27b9c0951a,,,,,,,,,,,,,,,,,,,,,,,,,,,,,,,,,,,,,,,,,,,,,,,,,,,,,,,,,,,,,,,,,,,,,,,,,,,,,,,,,,,,,,,,,,,,,,,,,,,,,
,,,,,,1,0,1,0,1,X V Q F H G B L J M P D K C T S W R N Z,6066e9cfce4f74fe20aa3cad,47,Mężczyzna,2022-06-11_09h33.00.129,task,2021.1.4,Win32,59.60896519,6299f149e92ead563fba08ef,62a4450f4d4f0b27b9c0951a,,,,,,,,,,,,,,,,,,,,,,,,,,,,,,,,,,,,,,,,,,,,,,,,,,,,,,,,,,,,,,,,,,,,,,,,,,,,,,,,,,,,,,,,,,,,,,,,,,,,,
,,,,,,,,,,,,6066e9cfce4f74fe20aa3cad,47,Mężczyzna,2022-06-11_09h33.00.129,task,2021.1.4,Win32,59.60896519,6299f149e92ead563fba08ef,62a4450f4d4f0b27b9c0951a,z,"[""z""]","[1.7560000000000002,5.179499999999997]",0,ZZ,0,0,0,0,1,,,,,,,,,,,,,,,,,,,,,,,,,,,,,,,,,,,,,,,,,,,,,,,,,,,,,,,,,,,,,,,,,,,,,,,,,,,,,,,,,,,,,,,,,,,
,,,,,,0,0,0,0,1,X V Q F H G B L J M P D K C T S W R N Z,6066e9cfce4f74fe20aa3cad,47,Mężczyzna,2022-06-11_09h33.00.129,task,2021.1.4,Win32,59.60896519,6299f149e92ead563fba08ef,62a4450f4d4f0b27b9c0951a,,,,,,,,,,,,,,,,,,,,,,,,,,,,,,,,,,,,,,,,,,,,,,,,,,,,,,,,,,,,,,,,,,,,,,,,,,,,,,,,,,,,,,,,,,,,,,,,,,,,,
,,,,,,1,0,1,0,1,X V Q F H G B L J M P D K C T S W R N Z,6066e9cfce4f74fe20aa3cad,47,Mężczyzna,2022-06-11_09h33.00.129,task,2021.1.4,Win32,59.60896519,6299f149e92ead563fba08ef,62a4450f4d4f0b27b9c0951a,,,,,,,,,,,,,,,,,,,,,,,,,,,,,,,,,,,,,,,,,,,,,,,,,,,,,,,,,,,,,,,,,,,,,,,,,,,,,,,,,,,,,,,,,,,,,,,,,,,,,
,,,,,,,,,,,,6066e9cfce4f74fe20aa3cad,47,Mężczyzna,2022-06-11_09h33.00.129,task,2021.1.4,Win32,59.60896519,6299f149e92ead563fba08ef,62a4450f4d4f0b27b9c0951a,hk,"[""h"",""k""]","[1.1302000000001868,1.5376000000000971,2.0508999999999133]",1,HK,1,0,1,0,1,,,,,,,,,,,,,,,,,,,,,,,,,,,,,,,,,,,,,,,,,,,,,,,,,,,,,,,,,,,,,,,,,,,,,,,,,,,,,,,,,,,,,,,,,,,
,,,,,,0,0,0,0,1,X V Q F H G B L J M P D K C T S W R N Z,6066e9cfce4f74fe20aa3cad,47,Mężczyzna,2022-06-11_09h33.00.129,task,2021.1.4,Win32,59.60896519,6299f149e92ead563fba08ef,62a4450f4d4f0b27b9c0951a,,,,,,,,,,,,,,,,,,,,,,,,,,,,,,,,,,,,,,,,,,,,,,,,,,,,,,,,,,,,,,,,,,,,,,,,,,,,,,,,,,,,,,,,,,,,,,,,,,,,,
,,,,,,1,0,1,0,1,X V Q F H G B L J M P D K C T S W R N Z,6066e9cfce4f74fe20aa3cad,47,Mężczyzna,2022-06-11_09h33.00.129,task,2021.1.4,Win32,59.60896519,6299f149e92ead563fba08ef,62a4450f4d4f0b27b9c0951a,,,,,,,,,,,,,,,,,,,,,,,,,,,,,,,,,,,,,,,,,,,,,,,,,,,,,,,,,,,,,,,,,,,,,,,,,,,,,,,,,,,,,,,,,,,,,,,,,,,,,
,,,,,,,,,,,,6066e9cfce4f74fe20aa3cad,47,Mężczyzna,2022-06-11_09h33.00.129,task,2021.1.4,Win32,59.60896519,6299f149e92ead563fba08ef,62a4450f4d4f0b27b9c0951a,vz,"[""v"",""z""]","[2.4342999999998085,3.237899999999911,3.674099999999626]",1,VZ,2,0,2,0,1,,,,,,,,,,,,,,,,,,,,,,,,,,,,,,,,,,,,,,,,,,,,,,,,,,,,,,,,,,,,,,,,,,,,,,,,,,,,,,,,,,,,,,,,,,,
,,,,,,0,0,0,0,1,X V Q F H G B L J M P D K C T S W R N Z,6066e9cfce4f74fe20aa3cad,47,Mężczyzna,2022-06-11_09h33.00.129,task,2021.1.4,Win32,59.60896519,6299f149e92ead563fba08ef,62a4450f4d4f0b27b9c0951a,,,,,,,,,,,,,,,,,,,,,,,,,,,,,,,,,,,,,,,,,,,,,,,,,,,,,,,,,,,,,,,,,,,,,,,,,,,,,,,,,,,,,,,,,,,,,,,,,,,,,
,,,,,,1,0,1,0,1,X V Q F H G B L J M P D K C T S W R N Z,6066e9cfce4f74fe20aa3cad,47,Mężczyzna,2022-06-11_09h33.00.129,task,2021.1.4,Win32,59.60896519,6299f149e92ead563fba08ef,62a4450f4d4f0b27b9c0951a,,,,,,,,,,,,,,,,,,,,,,,,,,,,,,,,,,,,,,,,,,,,,,,,,,,,,,,,,,,,,,,,,,,,,,,,,,,,,,,,,,,,,,,,,,,,,,,,,,,,,
,,,,,,2,0,2,0,1,X V Q F H G B L J M P D K C T S W R N Z,6066e9cfce4f74fe20aa3cad,47,Mężczyzna,2022-06-11_09h33.00.129,task,2021.1.4,Win32,59.60896519,6299f149e92ead563fba08ef,62a4450f4d4f0b27b9c0951a,,,,,,,,,,,,,,,,,,,,,,,,,,,,,,,,,,,,,,,,,,,,,,,,,,,,,,,,,,,,,,,,,,,,,,,,,,,,,,,,,,,,,,,,,,,,,,,,,,,,,
,,,,,,,,,,,,6066e9cfce4f74fe20aa3cad,47,Mężczyzna,2022-06-11_09h33.00.129,task,2021.1.4,Win32,59.60896519,6299f149e92ead563fba08ef,62a4450f4d4f0b27b9c0951a,wzp,"[""w"",""z"",""p""]","[1.3508000000002767,1.7019999999999982,2.4856000000000904,2.6506000000000967]",1,WZP,3,0,3,0,1,,,,,,,,,,,,,,,,,,,,,,,,,,,,,,,,,,,,,,,,,,,,,,,,,,,,,,,,,,,,,,,,,,,,,,,,,,,,,,,,,,,,,,,,,,,
,,,,,,0,0,0,0,1,X V Q F H G B L J M P D K C T S W R N Z,6066e9cfce4f74fe20aa3cad,47,Mężczyzna,2022-06-11_09h33.00.129,task,2021.1.4,Win32,59.60896519,6299f149e92ead563fba08ef,62a4450f4d4f0b27b9c0951a,,,,,,,,,,,,,,,,,,,,,,,,,,,,,,,,,,,,,,,,,,,,,,,,,,,,,,,,,,,,,,,,,,,,,,,,,,,,,,,,,,,,,,,,,,,,,,,,,,,,,
,,,,,,1,0,1,0,1,X V Q F H G B L J M P D K C T S W R N Z,6066e9cfce4f74fe20aa3cad,47,Mężczyzna,2022-06-11_09h33.00.129,task,2021.1.4,Win32,59.60896519,6299f149e92ead563fba08ef,62a4450f4d4f0b27b9c0951a,,,,,,,,,,,,,,,,,,,,,,,,,,,,,,,,,,,,,,,,,,,,,,,,,,,,,,,,,,,,,,,,,,,,,,,,,,,,,,,,,,,,,,,,,,,,,,,,,,,,,
,,,,,,2,0,2,0,1,X V Q F H G B L J M P D K C T S W R N Z,6066e9cfce4f74fe20aa3cad,47,Mężczyzna,2022-06-11_09h33.00.129,task,2021.1.4,Win32,59.60896519,6299f149e92ead563fba08ef,62a4450f4d4f0b27b9c0951a,,,,,,,,,,,,,,,,,,,,,,,,,,,,,,,,,,,,,,,,,,,,,,,,,,,,,,,,,,,,,,,,,,,,,,,,,,,,,,,,,,,,,,,,,,,,,,,,,,,,,
,,,,,,,,,,,,6066e9cfce4f74fe20aa3cad,47,Mężczyzna,2022-06-11_09h33.00.129,task,2021.1.4,Win32,59.60896519,6299f149e92ead563fba08ef,62a4450f4d4f0b27b9c0951a,ktn,"[""k"",""t"",""n""]","[1.8624999999999972,2.499300000000275,3.2422000000001816,3.394100000000094]",1,KTN,4,0,4,0,1,,,,,,,,,,,,,,,,,,,,,,,,,,,,,,,,,,,,,,,,,,,,,,,,,,,,,,,,,,,,,,,,,,,,,,,,,,,,,,,,,,,,,,,,,,,
,,,,,,0,0,0,0,1,X V Q F H G B L J M P D K C T S W R N Z,6066e9cfce4f74fe20aa3cad,47,Mężczyzna,2022-06-11_09h33.00.129,task,2021.1.4,Win32,59.60896519,6299f149e92ead563fba08ef,62a4450f4d4f0b27b9c0951a,,,,,,,,,,,,,,,,,,,,,,,,,,,,,,,,,,,,,,,,,,,,,,,,,,,,,,,,,,,,,,,,,,,,,,,,,,,,,,,,,,,,,,,,,,,,,,,,,,,,,
,,,,,,1,0,1,0,1,X V Q F H G B L J M P D K C T S W R N Z,6066e9cfce4f74fe20aa3cad,47,Mężczyzna,2022-06-11_09h33.00.129,task,2021.1.4,Win32,59.60896519,6299f149e92ead563fba08ef,62a4450f4d4f0b27b9c0951a,,,,,,,,,,,,,,,,,,,,,,,,,,,,,,,,,,,,,,,,,,,,,,,,,,,,,,,,,,,,,,,,,,,,,,,,,,,,,,,,,,,,,,,,,,,,,,,,,,,,,
,,,,,,2,0,2,0,1,X V Q F H G B L J M P D K C T S W R N Z,6066e9cfce4f74fe20aa3cad,47,Mężczyzna,2022-06-11_09h33.00.129,task,2021.1.4,Win32,59.60896519,6299f149e92ead563fba08ef,62a4450f4d4f0b27b9c0951a,,,,,,,,,,,,,,,,,,,,,,,,,,,,,,,,,,,,,,,,,,,,,,,,,,,,,,,,,,,,,,,,,,,,,,,,,,,,,,,,,,,,,,,,,,,,,,,,,,,,,
,,,,,,3,0,3,0,1,X V Q F H G B L J M P D K C T S W R N Z,6066e9cfce4f74fe20aa3cad,47,Mężczyzna,2022-06-11_09h33.00.129,task,2021.1.4,Win32,59.60896519,6299f149e92ead563fba08ef,62a4450f4d4f0b27b9c0951a,,,,,,,,,,,,,,,,,,,,,,,,,,,,,,,,,,,,,,,,,,,,,,,,,,,,,,,,,,,,,,,,,,,,,,,,,,,,,,,,,,,,,,,,,,,,,,,,,,,,,
,,,,,,,,,,,,6066e9cfce4f74fe20aa3cad,47,Mężczyzna,2022-06-11_09h33.00.129,task,2021.1.4,Win32,59.60896519,6299f149e92ead563fba08ef,62a4450f4d4f0b27b9c0951a,cwjs,"[""c"",""w"",""j"",""s""]","[2.004899999999907,2.435399999999916,2.9197999999998245,3.7674999999999983,3.888899999999907]",1,CWJS,5,0,5,0,1,,,,,,,,,,,,,,,,,,,,,,,,,,,,,,,,,,,,,,,,,,,,,,,,,,,,,,,,,,,,,,,,,,,,,,,,,,,,,,,,,,,,,,,,,,,
,,,,,,0,0,0,0,1,X V Q F H G B L J M P D K C T S W R N Z,6066e9cfce4f74fe20aa3cad,47,Mężczyzna,2022-06-11_09h33.00.129,task,2021.1.4,Win32,59.60896519,6299f149e92ead563fba08ef,62a4450f4d4f0b27b9c0951a,,,,,,,,,,,,,,,,,,,,,,,,,,,,,,,,,,,,,,,,,,,,,,,,,,,,,,,,,,,,,,,,,,,,,,,,,,,,,,,,,,,,,,,,,,,,,,,,,,,,,
,,,,,,1,0,1,0,1,X V Q F H G B L J M P D K C T S W R N Z,6066e9cfce4f74fe20aa3cad,47,Mężczyzna,2022-06-11_09h33.00.129,task,2021.1.4,Win32,59.60896519,6299f149e92ead563fba08ef,62a4450f4d4f0b27b9c0951a,,,,,,,,,,,,,,,,,,,,,,,,,,,,,,,,,,,,,,,,,,,,,,,,,,,,,,,,,,,,,,,,,,,,,,,,,,,,,,,,,,,,,,,,,,,,,,,,,,,,,
,,,,,,2,0,2,0,1,X V Q F H G B L J M P D K C T S W R N Z,6066e9cfce4f74fe20aa3cad,47,Mężczyzna,2022-06-11_09h33.00.129,task,2021.1.4,Win32,59.60896519,6299f149e92ead563fba08ef,62a4450f4d4f0b27b9c0951a,,,,,,,,,,,,,,,,,,,,,,,,,,,,,,,,,,,,,,,,,,,,,,,,,,,,,,,,,,,,,,,,,,,,,,,,,,,,,,,,,,,,,,,,,,,,,,,,,,,,,
,,,,,,3,0,3,0,1,X V Q F H G B L J M P D K C T S W R N Z,6066e9cfce4f74fe20aa3cad,47,Mężczyzna,2022-06-11_09h33.00.129,task,2021.1.4,Win32,59.60896519,6299f149e92ead563fba08ef,62a4450f4d4f0b27b9c0951a,,,,,,,,,,,,,,,,,,,,,,,,,,,,,,,,,,,,,,,,,,,,,,,,,,,,,,,,,,,,,,,,,,,,,,,,,,,,,,,,,,,,,,,,,,,,,,,,,,,,,
,,,,,,,,,,,,6066e9cfce4f74fe20aa3cad,47,Mężczyzna,2022-06-11_09h33.00.129,task,2021.1.4,Win32,59.60896519,6299f149e92ead563fba08ef,62a4450f4d4f0b27b9c0951a,rrnm,"[""r"",""r"",""n"",""m""]","[1.3553999999999036,1.4914999999999878,1.7909999999999968,1.9673999999998983,2.888600000000082]",1,RRNM,6,0,6,0,1,,,,,,,,,,,,,,,,,,,,,,,,,,,,,,,,,,,,,,,,,,,,,,,,,,,,,,,,,,,,,,,,,,,,,,,,,,,,,,,,,,,,,,,,,,,
,,,,,,0,0,0,0,1,X V Q F H G B L J M P D K C T S W R N Z,6066e9cfce4f74fe20aa3cad,47,Mężczyzna,2022-06-11_09h33.00.129,task,2021.1.4,Win32,59.60896519,6299f149e92ead563fba08ef,62a4450f4d4f0b27b9c0951a,,,,,,,,,,,,,,,,,,,,,,,,,,,,,,,,,,,,,,,,,,,,,,,,,,,,,,,,,,,,,,,,,,,,,,,,,,,,,,,,,,,,,,,,,,,,,,,,,,,,,
,,,,,,1,0,1,0,1,X V Q F H G B L J M P D K C T S W R N Z,6066e9cfce4f74fe20aa3cad,47,Mężczyzna,2022-06-11_09h33.00.129,task,2021.1.4,Win32,59.60896519,6299f149e92ead563fba08ef,62a4450f4d4f0b27b9c0951a,,,,,,,,,,,,,,,,,,,,,,,,,,,,,,,,,,,,,,,,,,,,,,,,,,,,,,,,,,,,,,,,,,,,,,,,,,,,,,,,,,,,,,,,,,,,,,,,,,,,,
,,,,,,2,0,2,0,1,X V Q F H G B L J M P D K C T S W R N Z,6066e9cfce4f74fe20aa3cad,47,Mężczyzna,2022-06-11_09h33.00.129,task,2021.1.4,Win32,59.60896519,6299f149e92ead563fba08ef,62a4450f4d4f0b27b9c0951a,,,,,,,,,,,,,,,,,,,,,,,,,,,,,,,,,,,,,,,,,,,,,,,,,,,,,,,,,,,,,,,,,,,,,,,,,,,,,,,,,,,,,,,,,,,,,,,,,,,,,
,,,,,,3,0,3,0,1,X V Q F H G B L J M P D K C T S W R N Z,6066e9cfce4f74fe20aa3cad,47,Mężczyzna,2022-06-11_09h33.00.129,task,2021.1.4,Win32,59.60896519,6299f149e92ead563fba08ef,62a4450f4d4f0b27b9c0951a,,,,,,,,,,,,,,,,,,,,,,,,,,,,,,,,,,,,,,,,,,,,,,,,,,,,,,,,,,,,,,,,,,,,,,,,,,,,,,,,,,,,,,,,,,,,,,,,,,,,,
,,,,,,4,0,4,0,1,X V Q F H G B L J M P D K C T S W R N Z,6066e9cfce4f74fe20aa3cad,47,Mężczyzna,2022-06-11_09h33.00.129,task,2021.1.4,Win32,59.60896519,6299f149e92ead563fba08ef,62a4450f4d4f0b27b9c0951a,,,,,,,,,,,,,,,,,,,,,,,,,,,,,,,,,,,,,,,,,,,,,,,,,,,,,,,,,,,,,,,,,,,,,,,,,,,,,,,,,,,,,,,,,,,,,,,,,,,,,
,,,,,,,,,,,,6066e9cfce4f74fe20aa3cad,47,Mężczyzna,2022-06-11_09h33.00.129,task,2021.1.4,Win32,59.60896519,6299f149e92ead563fba08ef,62a4450f4d4f0b27b9c0951a,mwghh,"[""m"",""w"",""g"",""h"",""h""]","[1.8207999999998208,2.0132999999998162,2.357699999999724,2.949399999999912,3.0713999999999118,4.752499999999998]",1,MWGHH,7,0,7,0,1,,,,,,,,,,,,,,,,,,,,,,,,,,,,,,,,,,,,,,,,,,,,,,,,,,,,,,,,,,,,,,,,,,,,,,,,,,,,,,,,,,,,,,,,,,,
,,,,,,0,0,0,0,1,X V Q F H G B L J M P D K C T S W R N Z,6066e9cfce4f74fe20aa3cad,47,Mężczyzna,2022-06-11_09h33.00.129,task,2021.1.4,Win32,59.60896519,6299f149e92ead563fba08ef,62a4450f4d4f0b27b9c0951a,,,,,,,,,,,,,,,,,,,,,,,,,,,,,,,,,,,,,,,,,,,,,,,,,,,,,,,,,,,,,,,,,,,,,,,,,,,,,,,,,,,,,,,,,,,,,,,,,,,,,
,,,,,,1,0,1,0,1,X V Q F H G B L J M P D K C T S W R N Z,6066e9cfce4f74fe20aa3cad,47,Mężczyzna,2022-06-11_09h33.00.129,task,2021.1.4,Win32,59.60896519,6299f149e92ead563fba08ef,62a4450f4d4f0b27b9c0951a,,,,,,,,,,,,,,,,,,,,,,,,,,,,,,,,,,,,,,,,,,,,,,,,,,,,,,,,,,,,,,,,,,,,,,,,,,,,,,,,,,,,,,,,,,,,,,,,,,,,,
,,,,,,2,0,2,0,1,X V Q F H G B L J M P D K C T S W R N Z,6066e9cfce4f74fe20aa3cad,47,Mężczyzna,2022-06-11_09h33.00.129,task,2021.1.4,Win32,59.60896519,6299f149e92ead563fba08ef,62a4450f4d4f0b27b9c0951a,,,,,,,,,,,,,,,,,,,,,,,,,,,,,,,,,,,,,,,,,,,,,,,,,,,,,,,,,,,,,,,,,,,,,,,,,,,,,,,,,,,,,,,,,,,,,,,,,,,,,
,,,,,,3,0,3,0,1,X V Q F H G B L J M P D K C T S W R N Z,6066e9cfce4f74fe20aa3cad,47,Mężczyzna,2022-06-11_09h33.00.129,task,2021.1.4,Win32,59.60896519,6299f149e92ead563fba08ef,62a4450f4d4f0b27b9c0951a,,,,,,,,,,,,,,,,,,,,,,,,,,,,,,,,,,,,,,,,,,,,,,,,,,,,,,,,,,,,,,,,,,,,,,,,,,,,,,,,,,,,,,,,,,,,,,,,,,,,,
,,,,,,4,0,4,0,1,X V Q F H G B L J M P D K C T S W R N Z,6066e9cfce4f74fe20aa3cad,47,Mężczyzna,2022-06-11_09h33.00.129,task,2021.1.4,Win32,59.60896519,6299f149e92ead563fba08ef,62a4450f4d4f0b27b9c0951a,,,,,,,,,,,,,,,,,,,,,,,,,,,,,,,,,,,,,,,,,,,,,,,,,,,,,,,,,,,,,,,,,,,,,,,,,,,,,,,,,,,,,,,,,,,,,,,,,,,,,
,,,,,,,,,,,,6066e9cfce4f74fe20aa3cad,47,Mężczyzna,2022-06-11_09h33.00.129,task,2021.1.4,Win32,59.60896519,6299f149e92ead563fba08ef,62a4450f4d4f0b27b9c0951a,rqfgc,"[""r"",""q"",""f"",""g"",""c""]","[1.6648000000002696,2.312700000000177,2.910100000000085,3.2382000000001767,3.707100000000082,4.053600000000088]",1,RQFGC,8,0,8,0,1,,,,,,,,,,,,,,,,,,,,,,,,,,,,,,,,,,,,,,,,,,,,,,,,,,,,,,,,,,,,,,,,,,,,,,,,,,,,,,,,,,,,,,,,,,,
,,,,,,0,0,0,0,1,X V Q F H G B L J M P D K C T S W R N Z,6066e9cfce4f74fe20aa3cad,47,Mężczyzna,2022-06-11_09h33.00.129,task,2021.1.4,Win32,59.60896519,6299f149e92ead563fba08ef,62a4450f4d4f0b27b9c0951a,,,,,,,,,,,,,,,,,,,,,,,,,,,,,,,,,,,,,,,,,,,,,,,,,,,,,,,,,,,,,,,,,,,,,,,,,,,,,,,,,,,,,,,,,,,,,,,,,,,,,
,,,,,,1,0,1,0,1,X V Q F H G B L J M P D K C T S W R N Z,6066e9cfce4f74fe20aa3cad,47,Mężczyzna,2022-06-11_09h33.00.129,task,2021.1.4,Win32,59.60896519,6299f149e92ead563fba08ef,62a4450f4d4f0b27b9c0951a,,,,,,,,,,,,,,,,,,,,,,,,,,,,,,,,,,,,,,,,,,,,,,,,,,,,,,,,,,,,,,,,,,,,,,,,,,,,,,,,,,,,,,,,,,,,,,,,,,,,,
,,,,,,2,0,2,0,1,X V Q F H G B L J M P D K C T S W R N Z,6066e9cfce4f74fe20aa3cad,47,Mężczyzna,2022-06-11_09h33.00.129,task,2021.1.4,Win32,59.60896519,6299f149e92ead563fba08ef,62a4450f4d4f0b27b9c0951a,,,,,,,,,,,,,,,,,,,,,,,,,,,,,,,,,,,,,,,,,,,,,,,,,,,,,,,,,,,,,,,,,,,,,,,,,,,,,,,,,,,,,,,,,,,,,,,,,,,,,
,,,,,,3,0,3,0,1,X V Q F H G B L J M P D K C T S W R N Z,6066e9cfce4f74fe20aa3cad,47,Mężczyzna,2022-06-11_09h33.00.129,task,2021.1.4,Win32,59.60896519,6299f149e92ead563fba08ef,62a4450f4d4f0b27b9c0951a,,,,,,,,,,,,,,,,,,,,,,,,,,,,,,,,,,,,,,,,,,,,,,,,,,,,,,,,,,,,,,,,,,,,,,,,,,,,,,,,,,,,,,,,,,,,,,,,,,,,,
,,,,,,4,0,4,0,1,X V Q F H G B L J M P D K C T S W R N Z,6066e9cfce4f74fe20aa3cad,47,Mężczyzna,2022-06-11_09h33.00.129,task,2021.1.4,Win32,59.60896519,6299f149e92ead563fba08ef,62a4450f4d4f0b27b9c0951a,,,,,,,,,,,,,,,,,,,,,,,,,,,,,,,,,,,,,,,,,,,,,,,,,,,,,,,,,,,,,,,,,,,,,,,,,,,,,,,,,,,,,,,,,,,,,,,,,,,,,
,,,,,,5,0,5,0,1,X V Q F H G B L J M P D K C T S W R N Z,6066e9cfce4f74fe20aa3cad,47,Mężczyzna,2022-06-11_09h33.00.129,task,2021.1.4,Win32,59.60896519,6299f149e92ead563fba08ef,62a4450f4d4f0b27b9c0951a,,,,,,,,,,,,,,,,,,,,,,,,,,,,,,,,,,,,,,,,,,,,,,,,,,,,,,,,,,,,,,,,,,,,,,,,,,,,,,,,,,,,,,,,,,,,,,,,,,,,,
,,,,,,,,,,,,6066e9cfce4f74fe20aa3cad,47,Mężczyzna,2022-06-11_09h33.00.129,task,2021.1.4,Win32,59.60896519,6299f149e92ead563fba08ef,62a4450f4d4f0b27b9c0951a,svksc,"[""s"",""v"",""k"",""s"",""c""]","[1.4378999999998996,2.1624999999999943,3.732399999999899,3.991199999999708,5.041499999999985,5.241199999999708]",0,SVKSCB,9,0,9,0,1,,,,,,,,,,,,,,,,,,,,,,,,,,,,,,,,,,,,,,,,,,,,,,,,,,,,,,,,,,,,,,,,,,,,,,,,,,,,,,,,,,,,,,,,,,,
,,,,,,0,0,0,0,1,X V Q F H G B L J M P D K C T S W R N Z,6066e9cfce4f74fe20aa3cad,47,Mężczyzna,2022-06-11_09h33.00.129,task,2021.1.4,Win32,59.60896519,6299f149e92ead563fba08ef,62a4450f4d4f0b27b9c0951a,,,,,,,,,,,,,,,,,,,,,,,,,,,,,,,,,,,,,,,,,,,,,,,,,,,,,,,,,,,,,,,,,,,,,,,,,,,,,,,,,,,,,,,,,,,,,,,,,,,,,
,,,,,,1,0,1,0,1,X V Q F H G B L J M P D K C T S W R N Z,6066e9cfce4f74fe20aa3cad,47,Mężczyzna,2022-06-11_09h33.00.129,task,2021.1.4,Win32,59.60896519,6299f149e92ead563fba08ef,62a4450f4d4f0b27b9c0951a,,,,,,,,,,,,,,,,,,,,,,,,,,,,,,,,,,,,,,,,,,,,,,,,,,,,,,,,,,,,,,,,,,,,,,,,,,,,,,,,,,,,,,,,,,,,,,,,,,,,,
,,,,,,2,0,2,0,1,X V Q F H G B L J M P D K C T S W R N Z,6066e9cfce4f74fe20aa3cad,47,Mężczyzna,2022-06-11_09h33.00.129,task,2021.1.4,Win32,59.60896519,6299f149e92ead563fba08ef,62a4450f4d4f0b27b9c0951a,,,,,,,,,,,,,,,,,,,,,,,,,,,,,,,,,,,,,,,,,,,,,,,,,,,,,,,,,,,,,,,,,,,,,,,,,,,,,,,,,,,,,,,,,,,,,,,,,,,,,
,,,,,,3,0,3,0,1,X V Q F H G B L J M P D K C T S W R N Z,6066e9cfce4f74fe20aa3cad,47,Mężczyzna,2022-06-11_09h33.00.129,task,2021.1.4,Win32,59.60896519,6299f149e92ead563fba08ef,62a4450f4d4f0b27b9c0951a,,,,,,,,,,,,,,,,,,,,,,,,,,,,,,,,,,,,,,,,,,,,,,,,,,,,,,,,,,,,,,,,,,,,,,,,,,,,,,,,,,,,,,,,,,,,,,,,,,,,,
,,,,,,4,0,4,0,1,X V Q F H G B L J M P D K C T S W R N Z,6066e9cfce4f74fe20aa3cad,47,Mężczyzna,2022-06-11_09h33.00.129,task,2021.1.4,Win32,59.60896519,6299f149e92ead563fba08ef,62a4450f4d4f0b27b9c0951a,,,,,,,,,,,,,,,,,,,,,,,,,,,,,,,,,,,,,,,,,,,,,,,,,,,,,,,,,,,,,,,,,,,,,,,,,,,,,,,,,,,,,,,,,,,,,,,,,,,,,
,,,,,,5,0,5,0,1,X V Q F H G B L J M P D K C T S W R N Z,6066e9cfce4f74fe20aa3cad,47,Mężczyzna,2022-06-11_09h33.00.129,task,2021.1.4,Win32,59.60896519,6299f149e92ead563fba08ef,62a4450f4d4f0b27b9c0951a,,,,,,,,,,,,,,,,,,,,,,,,,,,,,,,,,,,,,,,,,,,,,,,,,,,,,,,,,,,,,,,,,,,,,,,,,,,,,,,,,,,,,,,,,,,,,,,,,,,,,
,,,,,,,,,,,,6066e9cfce4f74fe20aa3cad,47,Mężczyzna,2022-06-11_09h33.00.129,task,2021.1.4,Win32,59.60896519,6299f149e92ead563fba08ef,62a4450f4d4f0b27b9c0951a,sssfrf,"[""s"",""s"",""s"",""f"",""r"",""f""]","[1.0992999999998005,1.2668999999999073,3.249399999999895,3.833100000000087,4.5817999999998165,5.020999999999987,5.846399999999903]",1,SSSFRF,10,0,10,0,1,,,,,,,,,,,,,,,,,,,,,,,,,,,,,,,,,,,,,,,,,,,,,,,,,,,,,,,,,,,,,,,,,,,,,,,,,,,,,,,,,,,,,,,,,,,
,,,,,,0,0,0,0,1,X V Q F H G B L J M P D K C T S W R N Z,6066e9cfce4f74fe20aa3cad,47,Mężczyzna,2022-06-11_09h33.00.129,task,2021.1.4,Win32,59.60896519,6299f149e92ead563fba08ef,62a4450f4d4f0b27b9c0951a,,,,,,,,,,,,,,,,,,,,,,,,,,,,,,,,,,,,,,,,,,,,,,,,,,,,,,,,,,,,,,,,,,,,,,,,,,,,,,,,,,,,,,,,,,,,,,,,,,,,,
,,,,,,1,0,1,0,1,X V Q F H G B L J M P D K C T S W R N Z,6066e9cfce4f74fe20aa3cad,47,Mężczyzna,2022-06-11_09h33.00.129,task,2021.1.4,Win32,59.60896519,6299f149e92ead563fba08ef,62a4450f4d4f0b27b9c0951a,,,,,,,,,,,,,,,,,,,,,,,,,,,,,,,,,,,,,,,,,,,,,,,,,,,,,,,,,,,,,,,,,,,,,,,,,,,,,,,,,,,,,,,,,,,,,,,,,,,,,
,,,,,,2,0,2,0,1,X V Q F H G B L J M P D K C T S W R N Z,6066e9cfce4f74fe20aa3cad,47,Mężczyzna,2022-06-11_09h33.00.129,task,2021.1.4,Win32,59.60896519,6299f149e92ead563fba08ef,62a4450f4d4f0b27b9c0951a,,,,,,,,,,,,,,,,,,,,,,,,,,,,,,,,,,,,,,,,,,,,,,,,,,,,,,,,,,,,,,,,,,,,,,,,,,,,,,,,,,,,,,,,,,,,,,,,,,,,,
,,,,,,3,0,3,0,1,X V Q F H G B L J M P D K C T S W R N Z,6066e9cfce4f74fe20aa3cad,47,Mężczyzna,2022-06-11_09h33.00.129,task,2021.1.4,Win32,59.60896519,6299f149e92ead563fba08ef,62a4450f4d4f0b27b9c0951a,,,,,,,,,,,,,,,,,,,,,,,,,,,,,,,,,,,,,,,,,,,,,,,,,,,,,,,,,,,,,,,,,,,,,,,,,,,,,,,,,,,,,,,,,,,,,,,,,,,,,
,,,,,,4,0,4,0,1,X V Q F H G B L J M P D K C T S W R N Z,6066e9cfce4f74fe20aa3cad,47,Mężczyzna,2022-06-11_09h33.00.129,task,2021.1.4,Win32,59.60896519,6299f149e92ead563fba08ef,62a4450f4d4f0b27b9c0951a,,,,,,,,,,,,,,,,,,,,,,,,,,,,,,,,,,,,,,,,,,,,,,,,,,,,,,,,,,,,,,,,,,,,,,,,,,,,,,,,,,,,,,,,,,,,,,,,,,,,,
,,,,,,5,0,5,0,1,X V Q F H G B L J M P D K C T S W R N Z,6066e9cfce4f74fe20aa3cad,47,Mężczyzna,2022-06-11_09h33.00.129,task,2021.1.4,Win32,59.60896519,6299f149e92ead563fba08ef,62a4450f4d4f0b27b9c0951a,,,,,,,,,,,,,,,,,,,,,,,,,,,,,,,,,,,,,,,,,,,,,,,,,,,,,,,,,,,,,,,,,,,,,,,,,,,,,,,,,,,,,,,,,,,,,,,,,,,,,
,,,,,,,,,,,,6066e9cfce4f74fe20aa3cad,47,Mężczyzna,2022-06-11_09h33.00.129,task,2021.1.4,Win32,59.60896519,6299f149e92ead563fba08ef,62a4450f4d4f0b27b9c0951a,zlbvs,"[""z"",""l"",""b"",""v"",""s""]","[1.7076999999997327,2.217500000000001,2.6926000000001125,3.381799999999828,4.2343999999999085,4.417899999999918]",0,ZLBVSM,11,0,11,0,1,,,,,,,,,,,,,,,,,,,,,,,,,,,,,,,,,,,,,,,,,,,,,,,,,,,,,,,,,,,,,,,,,,,,,,,,,,,,,,,,,,,,,,,,,,,
,,,,,,0,0,0,0,1,X V Q F H G B L J M P D K C T S W R N Z,6066e9cfce4f74fe20aa3cad,47,Mężczyzna,2022-06-11_09h33.00.129,task,2021.1.4,Win32,59.60896519,6299f149e92ead563fba08ef,62a4450f4d4f0b27b9c0951a,,,,,,,,,,,,,,,,,,,,,,,,,,,,,,,,,,,,,,,,,,,,,,,,,,,,,,,,,,,,,,,,,,,,,,,,,,,,,,,,,,,,,,,,,,,,,,,,,,,,,
,,,,,,1,0,1,0,1,X V Q F H G B L J M P D K C T S W R N Z,6066e9cfce4f74fe20aa3cad,47,Mężczyzna,2022-06-11_09h33.00.129,task,2021.1.4,Win32,59.60896519,6299f149e92ead563fba08ef,62a4450f4d4f0b27b9c0951a,,,,,,,,,,,,,,,,,,,,,,,,,,,,,,,,,,,,,,,,,,,,,,,,,,,,,,,,,,,,,,,,,,,,,,,,,,,,,,,,,,,,,,,,,,,,,,,,,,,,,
,,,,,,2,0,2,0,1,X V Q F H G B L J M P D K C T S W R N Z,6066e9cfce4f74fe20aa3cad,47,Mężczyzna,2022-06-11_09h33.00.129,task,2021.1.4,Win32,59.60896519,6299f149e92ead563fba08ef,62a4450f4d4f0b27b9c0951a,,,,,,,,,,,,,,,,,,,,,,,,,,,,,,,,,,,,,,,,,,,,,,,,,,,,,,,,,,,,,,,,,,,,,,,,,,,,,,,,,,,,,,,,,,,,,,,,,,,,,
,,,,,,3,0,3,0,1,X V Q F H G B L J M P D K C T S W R N Z,6066e9cfce4f74fe20aa3cad,47,Mężczyzna,2022-06-11_09h33.00.129,task,2021.1.4,Win32,59.60896519,6299f149e92ead563fba08ef,62a4450f4d4f0b27b9c0951a,,,,,,,,,,,,,,,,,,,,,,,,,,,,,,,,,,,,,,,,,,,,,,,,,,,,,,,,,,,,,,,,,,,,,,,,,,,,,,,,,,,,,,,,,,,,,,,,,,,,,
,,,,,,4,0,4,0,1,X V Q F H G B L J M P D K C T S W R N Z,6066e9cfce4f74fe20aa3cad,47,Mężczyzna,2022-06-11_09h33.00.129,task,2021.1.4,Win32,59.60896519,6299f149e92ead563fba08ef,62a4450f4d4f0b27b9c0951a,,,,,,,,,,,,,,,,,,,,,,,,,,,,,,,,,,,,,,,,,,,,,,,,,,,,,,,,,,,,,,,,,,,,,,,,,,,,,,,,,,,,,,,,,,,,,,,,,,,,,
,,,,,,5,0,5,0,1,X V Q F H G B L J M P D K C T S W R N Z,6066e9cfce4f74fe20aa3cad,47,Mężczyzna,2022-06-11_09h33.00.129,task,2021.1.4,Win32,59.60896519,6299f149e92ead563fba08ef,62a4450f4d4f0b27b9c0951a,,,,,,,,,,,,,,,,,,,,,,,,,,,,,,,,,,,,,,,,,,,,,,,,,,,,,,,,,,,,,,,,,,,,,,,,,,,,,,,,,,,,,,,,,,,,,,,,,,,,,
,,,,,,,,,,,,6066e9cfce4f74fe20aa3cad,47,Mężczyzna,2022-06-11_09h33.00.129,task,2021.1.4,Win32,59.60896519,6299f149e92ead563fba08ef,62a4450f4d4f0b27b9c0951a,rbtll,"[""r"",""b"",""t"",""l"",""l""]","[2.63630000000029,2.9012000000001876,3.1961000000000865,3.5572000000001935,3.8132000000001938,6.588300000000288]",0,RBRTLL,12,0,12,0,1,,,,,,,,,,,,,,,,,,,,,,,,,,,,,,,,,,,,,,,,,,,,,,,,,,,,,,,,,,,,,,,,,,,,,,,,,,,,,,,,,,,,,,,,,,,
,,,,,,,,,,,,6066e9cfce4f74fe20aa3cad,47,Mężczyzna,2022-06-11_09h33.00.129,task,2021.1.4,Win32,59.60896519,6299f149e92ead563fba08ef,62a4450f4d4f0b27b9c0951a,,,,,,,,,,,space,17.1335,3,"[""3""]",1,[11.784600000000097],[11.784600000000097],0,0,0,3,1,Practice,4,(8/4) + 1,3,,,,,,,,,,,,,,,,,,,,,,,,,,,,,,,,,,,,,,,,,,,,,,,,,,,,,,,,,,,,,,,,,,,,,,,,,,,
,,,,,,,,,,,,6066e9cfce4f74fe20aa3cad,47,Mężczyzna,2022-06-11_09h33.00.129,task,2021.1.4,Win32,59.60896519,6299f149e92ead563fba08ef,62a4450f4d4f0b27b9c0951a,,,,,,,,,,,,,1,"[""1""]",1,[4.0504999999999995],"[11.784600000000097,4.0504999999999995]",0,1,1,1,1,Practice,2,(4x4) - 15,1,,,,,,,,,,,,,,,,,,,,,,,,,,,,,,,,,,,,,,,,,,,,,,,,,,,,,,,,,,,,,,,,,,,,,,,,,,,
,,,,,,,,,,,,6066e9cfce4f74fe20aa3cad,47,Mężczyzna,2022-06-11_09h33.00.129,task,2021.1.4,Win32,59.60896519,6299f149e92ead563fba08ef,62a4450f4d4f0b27b9c0951a,,,,,,,,,,,,,4,"[""4""]",1,[3.7007000000001824],"[11.784600000000097,4.0504999999999995,3.7007000000001824]",0,2,2,4,1,Practice,5,(2x6) - 8,4,,,,,,,,,,,,,,,,,,,,,,,,,,,,,,,,,,,,,,,,,,,,,,,,,,,,,,,,,,,,,,,,,,,,,,,,,,,
,,,,,,,,,,,,6066e9cfce4f74fe20aa3cad,47,Mężczyzna,2022-06-11_09h33.00.129,task,2021.1.4,Win32,59.60896519,6299f149e92ead563fba08ef,62a4450f4d4f0b27b9c0951a,,,,,,,,,,,,,2,"[""2""]",1,[2.6502999999998167],"[11.784600000000097,4.0504999999999995,3.7007000000001824,2.6502999999998167]",0,3,3,2,1,Practice,3,(4x4) - 14,2,,,,,,,,,,,,,,,,,,,,,,,,,,,,,,,,,,,,,,,,,,,,,,,,,,,,,,,,,,,,,,,,,,,,,,,,,,,
,,,,,,,,,,,,6066e9cfce4f74fe20aa3cad,47,Mężczyzna,2022-06-11_09h33.00.129,task,2021.1.4,Win32,59.60896519,6299f149e92ead563fba08ef,62a4450f4d4f0b27b9c0951a,,,,,,,,,,,,,4,"[""4""]",0,[3.2797999999997955],"[11.784600000000097,4.0504999999999995,3.7007000000001824,2.6502999999998167,3.2797999999997955]",0,4,4,5,1,Practice,6,(4/2) + 3,5,,,,,,,,,,,,,,,,,,,,,,,,,,,,,,,,,,,,,,,,,,,,,,,,,,,,,,,,,,,,,,,,,,,,,,,,,,,
,,,,,,,,,,,,6066e9cfce4f74fe20aa3cad,47,Mężczyzna,2022-06-11_09h33.00.129,task,2021.1.4,Win32,59.60896519,6299f149e92ead563fba08ef,62a4450f4d4f0b27b9c0951a,,,,,,,,,,,,,8,"[""8""]",1,[3.552000000000021],"[11.784600000000097,4.0504999999999995,3.7007000000001824,2.6502999999998167,3.2797999999997955,3.552000000000021]",0,5,5,8,1,Practice,9,(3x3) - 1,8,,,,,,,,,,,,,,,,,,,,,,,,,,,,,,,,,,,,,,,,,,,,,,,,,,,,,,,,,,,,,,,,,,,,,,,,,,,
,,,,,,,,,,,,6066e9cfce4f74fe20aa3cad,47,Mężczyzna,2022-06-11_09h33.00.129,task,2021.1.4,Win32,59.60896519,6299f149e92ead563fba08ef,62a4450f4d4f0b27b9c0951a,,,,,,,,,,,,,6,"[""6""]",1,[4.583999999999975],"[11.784600000000097,4.0504999999999995,3.7007000000001824,2.6502999999998167,3.2797999999997955,3.552000000000021,4.583999999999975]",0,6,6,6,1,Practice,7,(25/5) + 1,6,,,,,,,,,,,,,,,,,,,,,,,,,,,,,,,,,,,,,,,,,,,,,,,,,,,,,,,,,,,,,,,,,,,,,,,,,,,
,,,,,,,,,,,,6066e9cfce4f74fe20aa3cad,47,Mężczyzna,2022-06-11_09h33.00.129,task,2021.1.4,Win32,59.60896519,6299f149e92ead563fba08ef,62a4450f4d4f0b27b9c0951a,,,,,,,,,,,,,7,"[""7""]",1,[5.9979999999999905],"[11.784600000000097,4.0504999999999995,3.7007000000001824,2.6502999999998167,3.2797999999997955,3.552000000000021,4.583999999999975,5.9979999999999905]",0,7,7,7,1,Practice,8,(5x5) - 18,7,,,,,,,,,,,,,,,,,,,,,,,,,,,,,,,,,,,,,,,,,,,,,,,,,,,,,,,,,,,,,,,,,,,,,,,,,,,
,,,,,,,,,,,,6066e9cfce4f74fe20aa3cad,47,Mężczyzna,2022-06-11_09h33.00.129,task,2021.1.4,Win32,59.60896519,6299f149e92ead563fba08ef,62a4450f4d4f0b27b9c0951a,,,,,,,,,,,,,0,"[""0""]",1,[3.4431999999997345],"[11.784600000000097,4.0504999999999995,3.7007000000001824,2.6502999999998167,3.2797999999997955,3.552000000000021,4.583999999999975,5.9979999999999905,3.4431999999997345]",0,8,8,0,1,Practice,1,(3x3) -  9,0,,,,,,,,,,,,,,,,,,,,,,,,,,,,,,,,,,,,,,,,,,,,,,,,,,,,,,,,,,,,,,,,,,,,,,,,,,,
,,,,,,,,,,,,6066e9cfce4f74fe20aa3cad,47,Mężczyzna,2022-06-11_09h33.00.129,task,2021.1.4,Win32,59.60896519,6299f149e92ead563fba08ef,62a4450f4d4f0b27b9c0951a,,,,,,,,,,,,,9,"[""9""]",1,[2.650099999999611],"[11.784600000000097,4.0504999999999995,3.7007000000001824,2.6502999999998167,3.2797999999997955,3.552000000000021,4.583999999999975,5.9979999999999905,3.4431999999997345,2.650099999999611]",0,9,9,9,1,Practice,10,(20/2) - 1,9,,,,,,,,,,,,,,,,,,,,,,,,,,,,,,,,,,,,,,,,,,,,,,,,,,,,,,,,,,,,,,,,,,,,,,,,,,,
,,,,,,,,,,,,6066e9cfce4f74fe20aa3cad,47,Mężczyzna,2022-06-11_09h33.00.129,task,2021.1.4,Win32,59.60896519,6299f149e92ead563fba08ef,62a4450f4d4f0b27b9c0951a,,,,,,,,,,,,,,,,,,,,,,,,,,,0.9,45.6932,3.046213333,89.65581284,2.444801462,9.353801106,space,1.7654,0,0,0,0,1,,,,,,,,,,,,,,,,,,,,,,,,,,,,,,,,,,,,,,,,,,,,,,,,,,,,,,,,,,,,,,
,,,,,,,,,,,,6066e9cfce4f74fe20aa3cad,47,Mężczyzna,2022-06-11_09h33.00.129,task,2021.1.4,Win32,59.60896519,6299f149e92ead563fba08ef,62a4450f4d4f0b27b9c0951a,,,,,,,,,,,,,4,,,,,,,,,,Practice,5,(2x6) - 8,4,,,,,,,,,,,,,,space,14.7528,"[""4""]",1,[7.840999999999951],1,0,0,0,4,1,,,,,,,,,,,,,,,,,,,,,,,,,,,,,,,,,,,,,,,,,,,,,,,,,,,
,,,,,,,,,,,X V Q F H G B L J M P D K C T S W R N Z,6066e9cfce4f74fe20aa3cad,47,Mężczyzna,2022-06-11_09h33.00.129,task,2021.1.4,Win32,59.60896519,6299f149e92ead563fba08ef,62a4450f4d4f0b27b9c0951a,,,,,,,,,,,,,,,,,,,,,,,,,,,,,,,,,,,,,,,,,,,,,,,,,,,0,0,0,0,1,,,,,,,,,,,,,,,,,,,,,,,,,,,,,,,,,,,,,,,,,,,,,,
,,,,,,,,,,,,6066e9cfce4f74fe20aa3cad,47,Mężczyzna,2022-06-11_09h33.00.129,task,2021.1.4,Win32,59.60896519,6299f149e92ead563fba08ef,62a4450f4d4f0b27b9c0951a,,,,,,,,,,,,,,,,,,,,,,,Practice,4,(8/4) + 1,3,,,,,,,,,,,,,,,,,0,,0,0,0,0,3,1,,,,,,,,,,,,,,,,,,,,,,,,,,,,,,,,,,,,,,,,,,,,,,,,,,,
,,,,,,,,,,,,6066e9cfce4f74fe20aa3cad,47,Mężczyzna,2022-06-11_09h33.00.129,task,2021.1.4,Win32,59.60896519,6299f149e92ead563fba08ef,62a4450f4d4f0b27b9c0951a,,,,,,,,,,,,,,,,,,,,,,,Practice,7,(25/5) + 1,6,,,,,,,,,,,,,,,,,0,,0,0,1,1,6,1,,,,,,,,,,,,,,,,,,,,,,,,,,,,,,,,,,,,,,,,,,,,,,,,,,,
,,,,,,,,,,,,6066e9cfce4f74fe20aa3cad,47,Mężczyzna,2022-06-11_09h33.00.129,task,2021.1.4,Win32,59.60896519,6299f149e92ead563fba08ef,62a4450f4d4f0b27b9c0951a,,,,,,,,,,,,,2,,,,,,,,,,Practice,3,(4x4) - 14,2,,,,,,,,,,,,,,,,"[""2""]",1,[4.191799999999773],1,0,2,2,2,1,,,,,,,,,,,,,,,,,,,,,,,,,,,,,,,,,,,,,,,,,,,,,,,,,,,
,,,,,,,,,,,X V Q F H G B L J M P D K C T S W R N Z,6066e9cfce4f74fe20aa3cad,47,Mężczyzna,2022-06-11_09h33.00.129,task,2021.1.4,Win32,59.60896519,6299f149e92ead563fba08ef,62a4450f4d4f0b27b9c0951a,,,,,,,,,,,,,,,,,,,,,,,,,,,,,,,,,,,,,,,,,,,,,,,,,,,1,0,1,0,1,,,,,,,,,,,,,,,,,,,,,,,,,,,,,,,,,,,,,,,,,,,,,,
,,,,,,,,,,,,6066e9cfce4f74fe20aa3cad,47,Mężczyzna,2022-06-11_09h33.00.129,task,2021.1.4,Win32,59.60896519,6299f149e92ead563fba08ef,62a4450f4d4f0b27b9c0951a,,,,,,,,,,,,,,,,,,,,,,,,,,,,,,,,,,,,,,,,,,,,,,,,,,,,,,,,zm,"[""z"",""m""]",0,"[3.37929999999983,3.9535000000000196,6.750899999999888]",1,0,0,0,0,1,,,,,,,,,,,,,,,,,,,,,,,,,,,,,,,,,,,,
,,,,,,,,,,,,6066e9cfce4f74fe20aa3cad,47,Mężczyzna,2022-06-11_09h33.00.129,task,2021.1.4,Win32,59.60896519,6299f149e92ead563fba08ef,62a4450f4d4f0b27b9c0951a,,,,,,,,,,,,,6,,,,,,,,,,Practice,7,(25/5) + 1,6,,,,,,,,,,,,,,,,"[""6""]",1,[5.7531000000000745],1,0,0,0,6,1,,,,,,,,,,,,,,,,,,,,,,,,,,,,,,,,,,,,,,,,,,,,,,,,,,,
,,,,,,,,,,,X V Q F H G B L J M P D K C T S W R N Z,6066e9cfce4f74fe20aa3cad,47,Mężczyzna,2022-06-11_09h33.00.129,task,2021.1.4,Win32,59.60896519,6299f149e92ead563fba08ef,62a4450f4d4f0b27b9c0951a,,,,,,,,,,,,,,,,,,,,,,,,,,,,,,,,,,,,,,,,,,,,,,,,,,,0,0,0,0,1,,,,,,,,,,,,,,,,,,,,,,,,,,,,,,,,,,,,,,,,,,,,,,
,,,,,,,,,,,,6066e9cfce4f74fe20aa3cad,47,Mężczyzna,2022-06-11_09h33.00.129,task,2021.1.4,Win32,59.60896519,6299f149e92ead563fba08ef,62a4450f4d4f0b27b9c0951a,,,,,,,,,,,,,9,,,,,,,,,,Practice,10,(20/2) - 1,9,,,,,,,,,,,,,,,,"[""9""]",1,[6.072499999999991],1,0,0,0,9,1,,,,,,,,,,,,,,,,,,,,,,,,,,,,,,,,,,,,,,,,,,,,,,,,,,,
,,,,,,,,,,,X V Q F H G B L J M P D K C T S W R N Z,6066e9cfce4f74fe20aa3cad,47,Mężczyzna,2022-06-11_09h33.00.129,task,2021.1.4,Win32,59.60896519,6299f149e92ead563fba08ef,62a4450f4d4f0b27b9c0951a,,,,,,,,,,,,,,,,,,,,,,,,,,,,,,,,,,,,,,,,,,,,,,,,,,,1,0,1,0,1,,,,,,,,,,,,,,,,,,,,,,,,,,,,,,,,,,,,,,,,,,,,,,
,,,,,,,,,,,,6066e9cfce4f74fe20aa3cad,47,Mężczyzna,2022-06-11_09h33.00.129,task,2021.1.4,Win32,59.60896519,6299f149e92ead563fba08ef,62a4450f4d4f0b27b9c0951a,,,,,,,,,,,,,,,,,,,,,,,,,,,,,,,,,,,,,,,,,,,,,,,,,,,,,,,,jv,"[""j"",""v""]",0,"[2.794700000000205,3.4193000000003053,4.6370000000000005]",1,1,0,1,0,1,,,,,,,,,,,,,,,,,,,,,,,,,,,,,,,,,,,,
,,,,,,,,,,,,6066e9cfce4f74fe20aa3cad,47,Mężczyzna,2022-06-11_09h33.00.129,task,2021.1.4,Win32,59.60896519,6299f149e92ead563fba08ef,62a4450f4d4f0b27b9c0951a,,,,,,,,,,,,,0,,,,,,,,,,Practice,1,(3x3) -  9,0,,,,,,,,,,,,,,,,"[""0""]",1,[2.2788999999999078],1,0,0,0,0,1,,,,,,,,,,,,,,,,,,,,,,,,,,,,,,,,,,,,,,,,,,,,,,,,,,,
,,,,,,,,,,,X V Q F H G B L J M P D K C T S W R N Z,6066e9cfce4f74fe20aa3cad,47,Mężczyzna,2022-06-11_09h33.00.129,task,2021.1.4,Win32,59.60896519,6299f149e92ead563fba08ef,62a4450f4d4f0b27b9c0951a,,,,,,,,,,,,,,,,,,,,,,,,,,,,,,,,,,,,,,,,,,,,,,,,,,,0,0,0,0,1,,,,,,,,,,,,,,,,,,,,,,,,,,,,,,,,,,,,,,,,,,,,,,
,,,,,,,,,,,,6066e9cfce4f74fe20aa3cad,47,Mężczyzna,2022-06-11_09h33.00.129,task,2021.1.4,Win32,59.60896519,6299f149e92ead563fba08ef,62a4450f4d4f0b27b9c0951a,,,,,,,,,,,,,4,,,,,,,,,,Practice,5,(2x6) - 8,4,,,,,,,,,,,,,,,,"[""4""]",1,[8.918999999999983],1,0,0,0,4,1,,,,,,,,,,,,,,,,,,,,,,,,,,,,,,,,,,,,,,,,,,,,,,,,,,,
,,,,,,,,,,,X V Q F H G B L J M P D K C T S W R N Z,6066e9cfce4f74fe20aa3cad,47,Mężczyzna,2022-06-11_09h33.00.129,task,2021.1.4,Win32,59.60896519,6299f149e92ead563fba08ef,62a4450f4d4f0b27b9c0951a,,,,,,,,,,,,,,,,,,,,,,,,,,,,,,,,,,,,,,,,,,,,,,,,,,,1,0,1,0,1,,,,,,,,,,,,,,,,,,,,,,,,,,,,,,,,,,,,,,,,,,,,,,
,,,,,,,,,,,,6066e9cfce4f74fe20aa3cad,47,Mężczyzna,2022-06-11_09h33.00.129,task,2021.1.4,Win32,59.60896519,6299f149e92ead563fba08ef,62a4450f4d4f0b27b9c0951a,,,,,,,,,,,,,,,,,,,,,,,,,,,,,,,,,,,,,,,,,,,,,,,,,,,,,,,,nc,"[""n"",""c""]",0,"[2.6796999999996842,3.2958999999999037,4.242999999999995]",1,2,0,2,0,1,,,,,,,,,,,,,,,,,,,,,,,,,,,,,,,,,,,,
,,,,,,,,,,,,6066e9cfce4f74fe20aa3cad,47,Mężczyzna,2022-06-11_09h33.00.129,task,2021.1.4,Win32,59.60896519,6299f149e92ead563fba08ef,62a4450f4d4f0b27b9c0951a,,,,,,,,,,,,,5,,,,,,,,,,Task,12,(4x4) - 11,5,,,,,,,,,,,,,,,,,,,1,,,,,,,,,,,,,,,,,,,,,space,4.1267,"[""5""]",1,[5.6305000000000405],0,0,0,11,1,,,,,,,,,,,,,,,,,,,,,,,,,,
,,,,,,,,,,,X V Q F H G B L J M P D K C T S W R N Z,6066e9cfce4f74fe20aa3cad,47,Mężczyzna,2022-06-11_09h33.00.129,task,2021.1.4,Win32,59.60896519,6299f149e92ead563fba08ef,62a4450f4d4f0b27b9c0951a,,,,,,,,,,,,,,,,,,,,,,,,,,,,,,,,,,,,,,,,,,,,,,,,,,,,,,,,,,,,,,,,,,,,,,,,,,,,0,0,0,0,1,,,,,,,,,,,,,,,,,,,,,
,,,,,,,,,,,,6066e9cfce4f74fe20aa3cad,47,Mężczyzna,2022-06-11_09h33.00.129,task,2021.1.4,Win32,59.60896519,6299f149e92ead563fba08ef,62a4450f4d4f0b27b9c0951a,,,,,,,,,,,,,3,,,,,,,,,,Task,35,(1x2) + 1,3,,,,,,,,,,,,,,,,,,,1,,,,,,,,,,,,,,,,,,,,,,,"[""3""]",1,[4.7934999999999945],0,0,0,34,1,,,,,,,,,,,,,,,,,,,,,,,,,,
,,,,,,,,,,,X V Q F H G B L J M P D K C T S W R N Z,6066e9cfce4f74fe20aa3cad,47,Mężczyzna,2022-06-11_09h33.00.129,task,2021.1.4,Win32,59.60896519,6299f149e92ead563fba08ef,62a4450f4d4f0b27b9c0951a,,,,,,,,,,,,,,,,,,,,,,,,,,,,,,,,,,,,,,,,,,,,,,,,,,,,,,,,,,,,,,,,,,,,,,,,,,,,1,0,1,0,1,,,,,,,,,,,,,,,,,,,,,
,,,,,,,,,,,,6066e9cfce4f74fe20aa3cad,47,Mężczyzna,2022-06-11_09h33.00.129,task,2021.1.4,Win32,59.60896519,6299f149e92ead563fba08ef,62a4450f4d4f0b27b9c0951a,,,,,,,,,,,,,,,,,,,,,,,,,,,,,,,,,,,,,,,,,,,,,,,,,,,,,,,,,,,,,,,,,,,,,,,,,,,,,,,,,zv,"[""z"",""v""]",0,"[1.92939999999993,2.516999999999996,3.0688999999999282]",1,ZV,0,0,0,0,1,,,,,,,,,,
,,,,,,,,,,,,6066e9cfce4f74fe20aa3cad,47,Mężczyzna,2022-06-11_09h33.00.129,task,2021.1.4,Win32,59.60896519,6299f149e92ead563fba08ef,62a4450f4d4f0b27b9c0951a,,,,,,,,,,,,,9,,,,,,,,,,Task,40,(7x2) - 5,9,,,,,,,,,,,,,,,,,,,1,,,,,,,,,,,,,,,,,,,,,,,"[""9""]",1,[5.786399999999901],0,0,0,39,1,,,,,,,,,,,,,,,,,,,,,,,,,,
,,,,,,,,,,,X V Q F H G B L J M P D K C T S W R N Z,6066e9cfce4f74fe20aa3cad,47,Mężczyzna,2022-06-11_09h33.00.129,task,2021.1.4,Win32,59.60896519,6299f149e92ead563fba08ef,62a4450f4d4f0b27b9c0951a,,,,,,,,,,,,,,,,,,,,,,,,,,,,,,,,,,,,,,,,,,,,,,,,,,,,,,,,,,,,,,,,,,,,,,,,,,,,0,0,0,0,1,,,,,,,,,,,,,,,,,,,,,
,,,,,,,,,,,,6066e9cfce4f74fe20aa3cad,47,Mężczyzna,2022-06-11_09h33.00.129,task,2021.1.4,Win32,59.60896519,6299f149e92ead563fba08ef,62a4450f4d4f0b27b9c0951a,,,,,,,,,,,,,4,,,,,,,,,,Task,28,(2x5) - 6,4,,,,,,,,,,,,,,,,,,,1,,,,,,,,,,,,,,,,,,,,,,,"[""4""]",1,[4.02909999999963],0,0,0,27,1,,,,,,,,,,,,,,,,,,,,,,,,,,
,,,,,,,,,,,X V Q F H G B L J M P D K C T S W R N Z,6066e9cfce4f74fe20aa3cad,47,Mężczyzna,2022-06-11_09h33.00.129,task,2021.1.4,Win32,59.60896519,6299f149e92ead563fba08ef,62a4450f4d4f0b27b9c0951a,,,,,,,,,,,,,,,,,,,,,,,,,,,,,,,,,,,,,,,,,,,,,,,,,,,,,,,,,,,,,,,,,,,,,,,,,,,,1,0,1,0,1,,,,,,,,,,,,,,,,,,,,,
,,,,,,,,,,,,6066e9cfce4f74fe20aa3cad,47,Mężczyzna,2022-06-11_09h33.00.129,task,2021.1.4,Win32,59.60896519,6299f149e92ead563fba08ef,62a4450f4d4f0b27b9c0951a,,,,,,,,,,,,,,,,,,,,,,,Task,27,(3/3) + 2,3,,,,,,,,,,,,,,,,,,,0,,,,,,,,,,,,,,,,,,,,,,,,0,,0,0,0,26,1,,,,,,,,,,,,,,,,,,,,,,,,,,
,,,,,,,,,,,,6066e9cfce4f74fe20aa3cad,47,Mężczyzna,2022-06-11_09h33.00.129,task,2021.1.4,Win32,59.60896519,6299f149e92ead563fba08ef,62a4450f4d4f0b27b9c0951a,,,,,,,,,,,,,8,,,,,,,,,,Task,32,(8/2) + 4,8,,,,,,,,,,,,,,,,,,,1,,,,,,,,,,,,,,,,,,,,,,,"[""8""]",1,[7.414299999999798],0,1,1,31,1,,,,,,,,,,,,,,,,,,,,,,,,,,
,,,,,,,,,,,X V Q F H G B L J M P D K C T S W R N Z,6066e9cfce4f74fe20aa3cad,47,Mężczyzna,2022-06-11_09h33.00.129,task,2021.1.4,Win32,59.60896519,6299f149e92ead563fba08ef,62a4450f4d4f0b27b9c0951a,,,,,,,,,,,,,,,,,,,,,,,,,,,,,,,,,,,,,,,,,,,,,,,,,,,,,,,,,,,,,,,,,,,,,,,,,,,,2,0,2,0,1,,,,,,,,,,,,,,,,,,,,,
,,,,,,,,,,,,6066e9cfce4f74fe20aa3cad,47,Mężczyzna,2022-06-11_09h33.00.129,task,2021.1.4,Win32,59.60896519,6299f149e92ead563fba08ef,62a4450f4d4f0b27b9c0951a,,,,,,,,,,,,,,,,,,,,,,,,,,,,,,,,,,,,,,,,,,,,,,,,,,,,,,,,,,,,,,,,,,,,,,,,,,,,,,,,,bdd,"[""b"",""d"",""d""]",0,"[3.153500000000008,3.9317000000002054,4.056100000000072,4.871399999999937]",1,BDD,1,0,1,0,1,,,,,,,,,,
,,,,,,,,,,,,6066e9cfce4f74fe20aa3cad,47,Mężczyzna,2022-06-11_09h33.00.129,task,2021.1.4,Win32,59.60896519,6299f149e92ead563fba08ef,62a4450f4d4f0b27b9c0951a,,,,,,,,,,,,,6,,,,,,,,,,Task,37,(3/3) + 5,6,,,,,,,,,,,,,,,,,,,1,,,,,,,,,,,,,,,,,,,,,,,"[""6""]",1,[4.251100000000065],0,0,0,36,1,,,,,,,,,,,,,,,,,,,,,,,,,,
,,,,,,,,,,,X V Q F H G B L J M P D K C T S W R N Z,6066e9cfce4f74fe20aa3cad,47,Mężczyzna,2022-06-11_09h33.00.129,task,2021.1.4,Win32,59.60896519,6299f149e92ead563fba08ef,62a4450f4d4f0b27b9c0951a,,,,,,,,,,,,,,,,,,,,,,,,,,,,,,,,,,,,,,,,,,,,,,,,,,,,,,,,,,,,,,,,,,,,,,,,,,,,0,0,0,0,1,,,,,,,,,,,,,,,,,,,,,
,,,,,,,,,,,,6066e9cfce4f74fe20aa3cad,47,Mężczyzna,2022-06-11_09h33.00.129,task,2021.1.4,Win32,59.60896519,6299f149e92ead563fba08ef,62a4450f4d4f0b27b9c0951a,,,,,,,,,,,,,4,,,,,,,,,,Task,28,(2x5) - 6,4,,,,,,,,,,,,,,,,,,,1,,,,,,,,,,,,,,,,,,,,,,,"[""4""]",1,[3.2011000000001104],0,0,0,27,1,,,,,,,,,,,,,,,,,,,,,,,,,,
,,,,,,,,,,,X V Q F H G B L J M P D K C T S W R N Z,6066e9cfce4f74fe20aa3cad,47,Mężczyzna,2022-06-11_09h33.00.129,task,2021.1.4,Win32,59.60896519,6299f149e92ead563fba08ef,62a4450f4d4f0b27b9c0951a,,,,,,,,,,,,,,,,,,,,,,,,,,,,,,,,,,,,,,,,,,,,,,,,,,,,,,,,,,,,,,,,,,,,,,,,,,,,1,0,1,0,1,,,,,,,,,,,,,,,,,,,,,
,,,,,,,,,,,,6066e9cfce4f74fe20aa3cad,47,Mężczyzna,2022-06-11_09h33.00.129,task,2021.1.4,Win32,59.60896519,6299f149e92ead563fba08ef,62a4450f4d4f0b27b9c0951a,,,,,,,,,,,,,0,,,,,,,,,,Task,17,(2x3) - 6,0,,,,,,,,,,,,,,,,,,,1,,,,,,,,,,,,,,,,,,,,,,,"[""0""]",1,[3.408999999999992],0,0,0,16,1,,,,,,,,,,,,,,,,,,,,,,,,,,
,,,,,,,,,,,X V Q F H G B L J M P D K C T S W R N Z,6066e9cfce4f74fe20aa3cad,47,Mężczyzna,2022-06-11_09h33.00.129,task,2021.1.4,Win32,59.60896519,6299f149e92ead563fba08ef,62a4450f4d4f0b27b9c0951a,,,,,,,,,,,,,,,,,,,,,,,,,,,,,,,,,,,,,,,,,,,,,,,,,,,,,,,,,,,,,,,,,,,,,,,,,,,,2,0,2,0,1,,,,,,,,,,,,,,,,,,,,,
,,,,,,,,,,,,6066e9cfce4f74fe20aa3cad,47,Mężczyzna,2022-06-11_09h33.00.129,task,2021.1.4,Win32,59.60896519,6299f149e92ead563fba08ef,62a4450f4d4f0b27b9c0951a,,,,,,,,,,,,,3,,,,,,,,,,Task,35,(1x2) + 1,3,,,,,,,,,,,,,,,,,,,1,,,,,,,,,,,,,,,,,,,,,,,"[""3""]",1,[3.2328999999998587],0,0,0,34,1,,,,,,,,,,,,,,,,,,,,,,,,,,
,,,,,,,,,,,X V Q F H G B L J M P D K C T S W R N Z,6066e9cfce4f74fe20aa3cad,47,Mężczyzna,2022-06-11_09h33.00.129,task,2021.1.4,Win32,59.60896519,6299f149e92ead563fba08ef,62a4450f4d4f0b27b9c0951a,,,,,,,,,,,,,,,,,,,,,,,,,,,,,,,,,,,,,,,,,,,,,,,,,,,,,,,,,,,,,,,,,,,,,,,,,,,,3,0,3,0,1,,,,,,,,,,,,,,,,,,,,,
,,,,,,,,,,,,6066e9cfce4f74fe20aa3cad,47,Mężczyzna,2022-06-11_09h33.00.129,task,2021.1.4,Win32,59.60896519,6299f149e92ead563fba08ef,62a4450f4d4f0b27b9c0951a,,,,,,,,,,,,,,,,,,,,,,,,,,,,,,,,,,,,,,,,,,,,,,,,,,,,,,,,,,,,,,,,,,,,,,,,,,,,,,,,,crzr,"[""c"",""r"",""z"",""r""]",0,"[3.1873000000002776,3.4886000000000763,3.978200000000186,4.4465000000000146,5.19880000000029]",0,CRZF,2,0,2,0,1,,,,,,,,,,
,,,,,,,,,,,,6066e9cfce4f74fe20aa3cad,47,Mężczyzna,2022-06-11_09h33.00.129,task,2021.1.4,Win32,59.60896519,6299f149e92ead563fba08ef,62a4450f4d4f0b27b9c0951a,,,,,,,,,,,,,8,,,,,,,,,,Task,32,(8/2) + 4,8,,,,,,,,,,,,,,,,,,,1,,,,,,,,,,,,,,,,,,,,,,,"[""8""]",1,[4.152000000000044],0,0,0,31,1,,,,,,,,,,,,,,,,,,,,,,,,,,
,,,,,,,,,,,X V Q F H G B L J M P D K C T S W R N Z,6066e9cfce4f74fe20aa3cad,47,Mężczyzna,2022-06-11_09h33.00.129,task,2021.1.4,Win32,59.60896519,6299f149e92ead563fba08ef,62a4450f4d4f0b27b9c0951a,,,,,,,,,,,,,,,,,,,,,,,,,,,,,,,,,,,,,,,,,,,,,,,,,,,,,,,,,,,,,,,,,,,,,,,,,,,,0,0,0,0,1,,,,,,,,,,,,,,,,,,,,,
,,,,,,,,,,,,6066e9cfce4f74fe20aa3cad,47,Mężczyzna,2022-06-11_09h33.00.129,task,2021.1.4,Win32,59.60896519,6299f149e92ead563fba08ef,62a4450f4d4f0b27b9c0951a,,,,,,,,,,,,,7,,,,,,,,,,Task,30,(6/3) + 4 ,6,,,,,,,,,,,,,,,,,,,0,,,,,,,,,,,,,,,,,,,,,,,"[""7""]",0,[5.634099999999648],0,0,0,29,1,,,,,,,,,,,,,,,,,,,,,,,,,,
,,,,,,,,,,,,6066e9cfce4f74fe20aa3cad,47,Mężczyzna,2022-06-11_09h33.00.129,task,2021.1.4,Win32,59.60896519,6299f149e92ead563fba08ef,62a4450f4d4f0b27b9c0951a,,,,,,,,,,,,,4,,,,,,,,,,Task,11,(18/3) - 2,4,,,,,,,,,,,,,,,,,,,1,,,,,,,,,,,,,,,,,,,,,,,"[""4""]",1,[6.3037000000002195],0,1,1,10,1,,,,,,,,,,,,,,,,,,,,,,,,,,
,,,,,,,,,,,X V Q F H G B L J M P D K C T S W R N Z,6066e9cfce4f74fe20aa3cad,47,Mężczyzna,2022-06-11_09h33.00.129,task,2021.1.4,Win32,59.60896519,6299f149e92ead563fba08ef,62a4450f4d4f0b27b9c0951a,,,,,,,,,,,,,,,,,,,,,,,,,,,,,,,,,,,,,,,,,,,,,,,,,,,,,,,,,,,,,,,,,,,,,,,,,,,,1,0,1,0,1,,,,,,,,,,,,,,,,,,,,,
,,,,,,,,,,,,6066e9cfce4f74fe20aa3cad,47,Mężczyzna,2022-06-11_09h33.00.129,task,2021.1.4,Win32,59.60896519,6299f149e92ead563fba08ef,62a4450f4d4f0b27b9c0951a,,,,,,,,,,,,,1,,,,,,,,,,Task,15,(3x7) - 13,8,,,,,,,,,,,,,,,,,,,0,,,,,,,,,,,,,,,,,,,,,,,"[""1""]",0,[3.819999999999993],0,0,0,14,1,,,,,,,,,,,,,,,,,,,,,,,,,,
,,,,,,,,,,,,6066e9cfce4f74fe20aa3cad,47,Mężczyzna,2022-06-11_09h33.00.129,task,2021.1.4,Win32,59.60896519,6299f149e92ead563fba08ef,62a4450f4d4f0b27b9c0951a,,,,,,,,,,,,,1,,,,,,,,,,Task,18,(16/4) - 3,1,,,,,,,,,,,,,,,,,,,1,,,,,,,,,,,,,,,,,,,,,,,"[""1""]",1,[7.132100000000094],0,1,1,17,1,,,,,,,,,,,,,,,,,,,,,,,,,,
,,,,,,,,,,,X V Q F H G B L J M P D K C T S W R N Z,6066e9cfce4f74fe20aa3cad,47,Mężczyzna,2022-06-11_09h33.00.129,task,2021.1.4,Win32,59.60896519,6299f149e92ead563fba08ef,62a4450f4d4f0b27b9c0951a,,,,,,,,,,,,,,,,,,,,,,,,,,,,,,,,,,,,,,,,,,,,,,,,,,,,,,,,,,,,,,,,,,,,,,,,,,,,2,0,2,0,1,,,,,,,,,,,,,,,,,,,,,
,,,,,,,,,,,,6066e9cfce4f74fe20aa3cad,47,Mężczyzna,2022-06-11_09h33.00.129,task,2021.1.4,Win32,59.60896519,6299f149e92ead563fba08ef,62a4450f4d4f0b27b9c0951a,,,,,,,,,,,,,6,,,,,,,,,,Task,30,(6/3) + 4 ,6,,,,,,,,,,,,,,,,,,,1,,,,,,,,,,,,,,,,,,,,,,,"[""6""]",1,[4.178299999999808],0,0,0,29,1,,,,,,,,,,,,,,,,,,,,,,,,,,
,,,,,,,,,,,X V Q F H G B L J M P D K C T S W R N Z,6066e9cfce4f74fe20aa3cad,47,Mężczyzna,2022-06-11_09h33.00.129,task,2021.1.4,Win32,59.60896519,6299f149e92ead563fba08ef,62a4450f4d4f0b27b9c0951a,,,,,,,,,,,,,,,,,,,,,,,,,,,,,,,,,,,,,,,,,,,,,,,,,,,,,,,,,,,,,,,,,,,,,,,,,,,,3,0,3,0,1,,,,,,,,,,,,,,,,,,,,,
,,,,,,,,,,,,6066e9cfce4f74fe20aa3cad,47,Mężczyzna,2022-06-11_09h33.00.129,task,2021.1.4,Win32,59.60896519,6299f149e92ead563fba08ef,62a4450f4d4f0b27b9c0951a,,,,,,,,,,,,,,,,,,,,,,,,,,,,,,,,,,,,,,,,,,,,,,,,,,,,,,,,,,,,,,,,,,,,,,,,,,,,,,,,,xfvw,"[""x"",""f"",""v"",""w""]",0,"[4.1329999999999245,5.249500000000012,6.122799999999756,6.965299999999729,8.757700000000114]",1,XFVW,3,0,3,0,1,,,,,,,,,,
,,,,,,,,,,,,6066e9cfce4f74fe20aa3cad,47,Mężczyzna,2022-06-11_09h33.00.129,task,2021.1.4,Win32,59.60896519,6299f149e92ead563fba08ef,62a4450f4d4f0b27b9c0951a,,,,,,,,,,,,,6,,,,,,,,,,Task,37,(3/3) + 5,6,,,,,,,,,,,,,,,,,,,1,,,,,,,,,,,,,,,,,,,,,,,"[""6""]",1,[3.429799999999773],0,0,0,36,1,,,,,,,,,,,,,,,,,,,,,,,,,,
,,,,,,,,,,,X V Q F H G B L J M P D K C T S W R N Z,6066e9cfce4f74fe20aa3cad,47,Mężczyzna,2022-06-11_09h33.00.129,task,2021.1.4,Win32,59.60896519,6299f149e92ead563fba08ef,62a4450f4d4f0b27b9c0951a,,,,,,,,,,,,,,,,,,,,,,,,,,,,,,,,,,,,,,,,,,,,,,,,,,,,,,,,,,,,,,,,,,,,,,,,,,,,0,0,0,0,1,,,,,,,,,,,,,,,,,,,,,
,,,,,,,,,,,,6066e9cfce4f74fe20aa3cad,47,Mężczyzna,2022-06-11_09h33.00.129,task,2021.1.4,Win32,59.60896519,6299f149e92ead563fba08ef,62a4450f4d4f0b27b9c0951a,,,,,,,,,,,,,5,,,,,,,,,,Task,22,(3x1) + 2,5,,,,,,,,,,,,,,,,,,,1,,,,,,,,,,,,,,,,,,,,,,,"[""5""]",1,[3.6978000000002567],0,0,0,21,1,,,,,,,,,,,,,,,,,,,,,,,,,,
,,,,,,,,,,,X V Q F H G B L J M P D K C T S W R N Z,6066e9cfce4f74fe20aa3cad,47,Mężczyzna,2022-06-11_09h33.00.129,task,2021.1.4,Win32,59.60896519,6299f149e92ead563fba08ef,62a4450f4d4f0b27b9c0951a,,,,,,,,,,,,,,,,,,,,,,,,,,,,,,,,,,,,,,,,,,,,,,,,,,,,,,,,,,,,,,,,,,,,,,,,,,,,1,0,1,0,1,,,,,,,,,,,,,,,,,,,,,
,,,,,,,,,,,,6066e9cfce4f74fe20aa3cad,47,Mężczyzna,2022-06-11_09h33.00.129,task,2021.1.4,Win32,59.60896519,6299f149e92ead563fba08ef,62a4450f4d4f0b27b9c0951a,,,,,,,,,,,,,2,,,,,,,,,,Task,10,(2x5) - 8,2,,,,,,,,,,,,,,,,,,,1,,,,,,,,,,,,,,,,,,,,,,,"[""2""]",1,[2.4427999999998065],0,0,0,9,1,,,,,,,,,,,,,,,,,,,,,,,,,,
,,,,,,,,,,,X V Q F H G B L J M P D K C T S W R N Z,6066e9cfce4f74fe20aa3cad,47,Mężczyzna,2022-06-11_09h33.00.129,task,2021.1.4,Win32,59.60896519,6299f149e92ead563fba08ef,62a4450f4d4f0b27b9c0951a,,,,,,,,,,,,,,,,,,,,,,,,,,,,,,,,,,,,,,,,,,,,,,,,,,,,,,,,,,,,,,,,,,,,,,,,,,,,2,0,2,0,1,,,,,,,,,,,,,,,,,,,,,
,,,,,,,,,,,,6066e9cfce4f74fe20aa3cad,47,Mężczyzna,2022-06-11_09h33.00.129,task,2021.1.4,Win32,59.60896519,6299f149e92ead563fba08ef,62a4450f4d4f0b27b9c0951a,,,,,,,,,,,,,4,,,,,,,,,,Task,28,(2x5) - 6,4,,,,,,,,,,,,,,,,,,,1,,,,,,,,,,,,,,,,,,,,,,,"[""4""]",1,[2.778500000000008],0,0,0,27,1,,,,,,,,,,,,,,,,,,,,,,,,,,
,,,,,,,,,,,X V Q F H G B L J M P D K C T S W R N Z,6066e9cfce4f74fe20aa3cad,47,Mężczyzna,2022-06-11_09h33.00.129,task,2021.1.4,Win32,59.60896519,6299f149e92ead563fba08ef,62a4450f4d4f0b27b9c0951a,,,,,,,,,,,,,,,,,,,,,,,,,,,,,,,,,,,,,,,,,,,,,,,,,,,,,,,,,,,,,,,,,,,,,,,,,,,,3,0,3,0,1,,,,,,,,,,,,,,,,,,,,,
,,,,,,,,,,,,6066e9cfce4f74fe20aa3cad,47,Mężczyzna,2022-06-11_09h33.00.129,task,2021.1.4,Win32,59.60896519,6299f149e92ead563fba08ef,62a4450f4d4f0b27b9c0951a,,,,,,,,,,,,,2,,,,,,,,,,Task,10,(2x5) - 8,2,,,,,,,,,,,,,,,,,,,1,,,,,,,,,,,,,,,,,,,,,,,"[""2""]",1,[2.1558000000003403],0,0,0,9,1,,,,,,,,,,,,,,,,,,,,,,,,,,
,,,,,,,,,,,X V Q F H G B L J M P D K C T S W R N Z,6066e9cfce4f74fe20aa3cad,47,Mężczyzna,2022-06-11_09h33.00.129,task,2021.1.4,Win32,59.60896519,6299f149e92ead563fba08ef,62a4450f4d4f0b27b9c0951a,,,,,,,,,,,,,,,,,,,,,,,,,,,,,,,,,,,,,,,,,,,,,,,,,,,,,,,,,,,,,,,,,,,,,,,,,,,,4,0,4,0,1,,,,,,,,,,,,,,,,,,,,,
,,,,,,,,,,,,6066e9cfce4f74fe20aa3cad,47,Mężczyzna,2022-06-11_09h33.00.129,task,2021.1.4,Win32,59.60896519,6299f149e92ead563fba08ef,62a4450f4d4f0b27b9c0951a,,,,,,,,,,,,,,,,,,,,,,,,,,,,,,,,,,,,,,,,,,,,,,,,,,,,,,,,,,,,,,,,,,,,,,,,,,,,,,,,,djcqc,"[""d"",""j"",""c"",""q"",""c""]",0,"[4.090099999999552,5.387699999999654,6.5359999999999445,7.665799999999763,8.918000000000006,10.338899999999853]",1,DJCQC,4,0,4,0,1,,,,,,,,,,
,,,,,,,,,,,,6066e9cfce4f74fe20aa3cad,47,Mężczyzna,2022-06-11_09h33.00.129,task,2021.1.4,Win32,59.60896519,6299f149e92ead563fba08ef,62a4450f4d4f0b27b9c0951a,,,,,,,,,,,,,6,,,,,,,,,,Task,5,(2x3) + 0,6,,,,,,,,,,,,,,,,,,,1,,,,,,,,,,,,,,,,,,,,,,,"[""6""]",1,[3.533699999999726],0,0,0,4,1,,,,,,,,,,,,,,,,,,,,,,,,,,
,,,,,,,,,,,X V Q F H G B L J M P D K C T S W R N Z,6066e9cfce4f74fe20aa3cad,47,Mężczyzna,2022-06-11_09h33.00.129,task,2021.1.4,Win32,59.60896519,6299f149e92ead563fba08ef,62a4450f4d4f0b27b9c0951a,,,,,,,,,,,,,,,,,,,,,,,,,,,,,,,,,,,,,,,,,,,,,,,,,,,,,,,,,,,,,,,,,,,,,,,,,,,,0,0,0,0,1,,,,,,,,,,,,,,,,,,,,,
,,,,,,,,,,,,6066e9cfce4f74fe20aa3cad,47,Mężczyzna,2022-06-11_09h33.00.129,task,2021.1.4,Win32,59.60896519,6299f149e92ead563fba08ef,62a4450f4d4f0b27b9c0951a,,,,,,,,,,,,,5,,,,,,,,,,Task,12,(4x4) - 11,5,,,,,,,,,,,,,,,,,,,1,,,,,,,,,,,,,,,,,,,,,,,"[""5""]",1,[5.087700000000154],0,0,0,11,1,,,,,,,,,,,,,,,,,,,,,,,,,,
,,,,,,,,,,,X V Q F H G B L J M P D K C T S W R N Z,6066e9cfce4f74fe20aa3cad,47,Mężczyzna,2022-06-11_09h33.00.129,task,2021.1.4,Win32,59.60896519,6299f149e92ead563fba08ef,62a4450f4d4f0b27b9c0951a,,,,,,,,,,,,,,,,,,,,,,,,,,,,,,,,,,,,,,,,,,,,,,,,,,,,,,,,,,,,,,,,,,,,,,,,,,,,1,0,1,0,1,,,,,,,,,,,,,,,,,,,,,
,,,,,,,,,,,,6066e9cfce4f74fe20aa3cad,47,Mężczyzna,2022-06-11_09h33.00.129,task,2021.1.4,Win32,59.60896519,6299f149e92ead563fba08ef,62a4450f4d4f0b27b9c0951a,,,,,,,,,,,,,7,,,,,,,,,,Task,31,(4/2) + 5,7,,,,,,,,,,,,,,,,,,,1,,,,,,,,,,,,,,,,,,,,,,,"[""7""]",1,[2.9125000000000227],0,0,0,30,1,,,,,,,,,,,,,,,,,,,,,,,,,,
,,,,,,,,,,,X V Q F H G B L J M P D K C T S W R N Z,6066e9cfce4f74fe20aa3cad,47,Mężczyzna,2022-06-11_09h33.00.129,task,2021.1.4,Win32,59.60896519,6299f149e92ead563fba08ef,62a4450f4d4f0b27b9c0951a,,,,,,,,,,,,,,,,,,,,,,,,,,,,,,,,,,,,,,,,,,,,,,,,,,,,,,,,,,,,,,,,,,,,,,,,,,,,2,0,2,0,1,,,,,,,,,,,,,,,,,,,,,
,,,,,,,,,,,,6066e9cfce4f74fe20aa3cad,47,Mężczyzna,2022-06-11_09h33.00.129,task,2021.1.4,Win32,59.60896519,6299f149e92ead563fba08ef,62a4450f4d4f0b27b9c0951a,,,,,,,,,,,,,6,,,,,,,,,,Task,30,(6/3) + 4 ,6,,,,,,,,,,,,,,,,,,,1,,,,,,,,,,,,,,,,,,,,,,,"[""6""]",1,[3.0125000000000455],0,0,0,29,1,,,,,,,,,,,,,,,,,,,,,,,,,,
,,,,,,,,,,,X V Q F H G B L J M P D K C T S W R N Z,6066e9cfce4f74fe20aa3cad,47,Mężczyzna,2022-06-11_09h33.00.129,task,2021.1.4,Win32,59.60896519,6299f149e92ead563fba08ef,62a4450f4d4f0b27b9c0951a,,,,,,,,,,,,,,,,,,,,,,,,,,,,,,,,,,,,,,,,,,,,,,,,,,,,,,,,,,,,,,,,,,,,,,,,,,,,3,0,3,0,1,,,,,,,,,,,,,,,,,,,,,
,,,,,,,,,,,,6066e9cfce4f74fe20aa3cad,47,Mężczyzna,2022-06-11_09h33.00.129,task,2021.1.4,Win32,59.60896519,6299f149e92ead563fba08ef,62a4450f4d4f0b27b9c0951a,,,,,,,,,,,,,5,,,,,,,,,,Task,12,(4x4) - 11,5,,,,,,,,,,,,,,,,,,,1,,,,,,,,,,,,,,,,,,,,,,,"[""5""]",1,[3.0690999999997075],0,0,0,11,1,,,,,,,,,,,,,,,,,,,,,,,,,,
,,,,,,,,,,,X V Q F H G B L J M P D K C T S W R N Z,6066e9cfce4f74fe20aa3cad,47,Mężczyzna,2022-06-11_09h33.00.129,task,2021.1.4,Win32,59.60896519,6299f149e92ead563fba08ef,62a4450f4d4f0b27b9c0951a,,,,,,,,,,,,,,,,,,,,,,,,,,,,,,,,,,,,,,,,,,,,,,,,,,,,,,,,,,,,,,,,,,,,,,,,,,,,4,0,4,0,1,,,,,,,,,,,,,,,,,,,,,
,,,,,,,,,,,,6066e9cfce4f74fe20aa3cad,47,Mężczyzna,2022-06-11_09h33.00.129,task,2021.1.4,Win32,59.60896519,6299f149e92ead563fba08ef,62a4450f4d4f0b27b9c0951a,,,,,,,,,,,,,8,,,,,,,,,,Task,23,(2x3) + 2,8,,,,,,,,,,,,,,,,,,,1,,,,,,,,,,,,,,,,,,,,,,,"[""8""]",1,[4.9273999999999205],0,0,0,22,1,,,,,,,,,,,,,,,,,,,,,,,,,,
,,,,,,,,,,,X V Q F H G B L J M P D K C T S W R N Z,6066e9cfce4f74fe20aa3cad,47,Mężczyzna,2022-06-11_09h33.00.129,task,2021.1.4,Win32,59.60896519,6299f149e92ead563fba08ef,62a4450f4d4f0b27b9c0951a,,,,,,,,,,,,,,,,,,,,,,,,,,,,,,,,,,,,,,,,,,,,,,,,,,,,,,,,,,,,,,,,,,,,,,,,,,,,5,0,5,0,1,,,,,,,,,,,,,,,,,,,,,
,,,,,,,,,,,,6066e9cfce4f74fe20aa3cad,47,Mężczyzna,2022-06-11_09h33.00.129,task,2021.1.4,Win32,59.60896519,6299f149e92ead563fba08ef,62a4450f4d4f0b27b9c0951a,,,,,,,,,,,,,,,,,,,,,,,,,,,,,,,,,,,,,,,,,,,,,,,,,,,,,,,,,,,,,,,,,,,,,,,,,,,,,,,,,kpzscq,"[""k"",""p"",""z"",""s"",""c"",""q""]",0,"[2.7233999999999696,3.941000000000031,5.516100000000165,7.631899999999973,8.331500000000005,9.134999999999991,11.045399999999972]",1,KPZSCQ,5,0,5,0,1,,,,,,,,,,
,,,,,,,,,,,,6066e9cfce4f74fe20aa3cad,47,Mężczyzna,2022-06-11_09h33.00.129,task,2021.1.4,Win32,59.60896519,6299f149e92ead563fba08ef,62a4450f4d4f0b27b9c0951a,,,,,,,,,,,,,2,,,,,,,,,,Task,26,(2x9) - 16,2,,,,,,,,,,,,,,,,,,,1,,,,,,,,,,,,,,,,,,,,,,,"[""2""]",1,[4.770300000000248],0,0,0,25,1,,,,,,,,,,,,,,,,,,,,,,,,,,
,,,,,,,,,,,X V Q F H G B L J M P D K C T S W R N Z,6066e9cfce4f74fe20aa3cad,47,Mężczyzna,2022-06-11_09h33.00.129,task,2021.1.4,Win32,59.60896519,6299f149e92ead563fba08ef,62a4450f4d4f0b27b9c0951a,,,,,,,,,,,,,,,,,,,,,,,,,,,,,,,,,,,,,,,,,,,,,,,,,,,,,,,,,,,,,,,,,,,,,,,,,,,,0,0,0,0,1,,,,,,,,,,,,,,,,,,,,,
,,,,,,,,,,,,6066e9cfce4f74fe20aa3cad,47,Mężczyzna,2022-06-11_09h33.00.129,task,2021.1.4,Win32,59.60896519,6299f149e92ead563fba08ef,62a4450f4d4f0b27b9c0951a,,,,,,,,,,,,,8,,,,,,,,,,Task,32,(8/2) + 4,8,,,,,,,,,,,,,,,,,,,1,,,,,,,,,,,,,,,,,,,,,,,"[""8""]",1,[2.3012000000002217],0,0,0,31,1,,,,,,,,,,,,,,,,,,,,,,,,,,
,,,,,,,,,,,X V Q F H G B L J M P D K C T S W R N Z,6066e9cfce4f74fe20aa3cad,47,Mężczyzna,2022-06-11_09h33.00.129,task,2021.1.4,Win32,59.60896519,6299f149e92ead563fba08ef,62a4450f4d4f0b27b9c0951a,,,,,,,,,,,,,,,,,,,,,,,,,,,,,,,,,,,,,,,,,,,,,,,,,,,,,,,,,,,,,,,,,,,,,,,,,,,,1,0,1,0,1,,,,,,,,,,,,,,,,,,,,,
,,,,,,,,,,,,6066e9cfce4f74fe20aa3cad,47,Mężczyzna,2022-06-11_09h33.00.129,task,2021.1.4,Win32,59.60896519,6299f149e92ead563fba08ef,62a4450f4d4f0b27b9c0951a,,,,,,,,,,,,,2,,,,,,,,,,Task,7,(3x7) - 12,9,,,,,,,,,,,,,,,,,,,0,,,,,,,,,,,,,,,,,,,,,,,"[""2""]",0,[2.658999999999992],0,0,0,6,1,,,,,,,,,,,,,,,,,,,,,,,,,,
,,,,,,,,,,,,6066e9cfce4f74fe20aa3cad,47,Mężczyzna,2022-06-11_09h33.00.129,task,2021.1.4,Win32,59.60896519,6299f149e92ead563fba08ef,62a4450f4d4f0b27b9c0951a,,,,,,,,,,,,,6,,,,,,,,,,Task,13,(3x4) - 6,6,,,,,,,,,,,,,,,,,,,1,,,,,,,,,,,,,,,,,,,,,,,"[""6""]",1,[6.054800000000341],0,1,1,12,1,,,,,,,,,,,,,,,,,,,,,,,,,,
,,,,,,,,,,,X V Q F H G B L J M P D K C T S W R N Z,6066e9cfce4f74fe20aa3cad,47,Mężczyzna,2022-06-11_09h33.00.129,task,2021.1.4,Win32,59.60896519,6299f149e92ead563fba08ef,62a4450f4d4f0b27b9c0951a,,,,,,,,,,,,,,,,,,,,,,,,,,,,,,,,,,,,,,,,,,,,,,,,,,,,,,,,,,,,,,,,,,,,,,,,,,,,2,0,2,0,1,,,,,,,,,,,,,,,,,,,,,
,,,,,,,,,,,,6066e9cfce4f74fe20aa3cad,47,Mężczyzna,2022-06-11_09h33.00.129,task,2021.1.4,Win32,59.60896519,6299f149e92ead563fba08ef,62a4450f4d4f0b27b9c0951a,,,,,,,,,,,,,2,,,,,,,,,,Task,19,(6/2) - 1,2,,,,,,,,,,,,,,,,,,,1,,,,,,,,,,,,,,,,,,,,,,,"[""2""]",1,[3.071399999999926],0,0,0,18,1,,,,,,,,,,,,,,,,,,,,,,,,,,
,,,,,,,,,,,X V Q F H G B L J M P D K C T S W R N Z,6066e9cfce4f74fe20aa3cad,47,Mężczyzna,2022-06-11_09h33.00.129,task,2021.1.4,Win32,59.60896519,6299f149e92ead563fba08ef,62a4450f4d4f0b27b9c0951a,,,,,,,,,,,,,,,,,,,,,,,,,,,,,,,,,,,,,,,,,,,,,,,,,,,,,,,,,,,,,,,,,,,,,,,,,,,,3,0,3,0,1,,,,,,,,,,,,,,,,,,,,,
,,,,,,,,,,,,6066e9cfce4f74fe20aa3cad,47,Mężczyzna,2022-06-11_09h33.00.129,task,2021.1.4,Win32,59.60896519,6299f149e92ead563fba08ef,62a4450f4d4f0b27b9c0951a,,,,,,,,,,,,,8,,,,,,,,,,Task,32,(8/2) + 4,8,,,,,,,,,,,,,,,,,,,1,,,,,,,,,,,,,,,,,,,,,,,"[""8""]",1,[2.801699999999755],0,0,0,31,1,,,,,,,,,,,,,,,,,,,,,,,,,,
,,,,,,,,,,,X V Q F H G B L J M P D K C T S W R N Z,6066e9cfce4f74fe20aa3cad,47,Mężczyzna,2022-06-11_09h33.00.129,task,2021.1.4,Win32,59.60896519,6299f149e92ead563fba08ef,62a4450f4d4f0b27b9c0951a,,,,,,,,,,,,,,,,,,,,,,,,,,,,,,,,,,,,,,,,,,,,,,,,,,,,,,,,,,,,,,,,,,,,,,,,,,,,4,0,4,0,1,,,,,,,,,,,,,,,,,,,,,
,,,,,,,,,,,,6066e9cfce4f74fe20aa3cad,47,Mężczyzna,2022-06-11_09h33.00.129,task,2021.1.4,Win32,59.60896519,6299f149e92ead563fba08ef,62a4450f4d4f0b27b9c0951a,,,,,,,,,,,,,6,,,,,,,,,,Task,37,(3/3) + 5,6,,,,,,,,,,,,,,,,,,,1,,,,,,,,,,,,,,,,,,,,,,,"[""6""]",1,[2.91700000000003],0,0,0,36,1,,,,,,,,,,,,,,,,,,,,,,,,,,
,,,,,,,,,,,X V Q F H G B L J M P D K C T S W R N Z,6066e9cfce4f74fe20aa3cad,47,Mężczyzna,2022-06-11_09h33.00.129,task,2021.1.4,Win32,59.60896519,6299f149e92ead563fba08ef,62a4450f4d4f0b27b9c0951a,,,,,,,,,,,,,,,,,,,,,,,,,,,,,,,,,,,,,,,,,,,,,,,,,,,,,,,,,,,,,,,,,,,,,,,,,,,,5,0,5,0,1,,,,,,,,,,,,,,,,,,,,,
,,,,,,,,,,,,6066e9cfce4f74fe20aa3cad,47,Mężczyzna,2022-06-11_09h33.00.129,task,2021.1.4,Win32,59.60896519,6299f149e92ead563fba08ef,62a4450f4d4f0b27b9c0951a,,,,,,,,,,,,,1,,,,,,,,,,Task,15,(3x7) - 13,8,,,,,,,,,,,,,,,,,,,0,,,,,,,,,,,,,,,,,,,,,,,"[""1""]",0,[1.9346000000001595],0,0,0,14,1,,,,,,,,,,,,,,,,,,,,,,,,,,
,,,,,,,,,,,,6066e9cfce4f74fe20aa3cad,47,Mężczyzna,2022-06-11_09h33.00.129,task,2021.1.4,Win32,59.60896519,6299f149e92ead563fba08ef,62a4450f4d4f0b27b9c0951a,,,,,,,,,,,,,0,,,,,,,,,,Task,8,(1x5) - 5,0,,,,,,,,,,,,,,,,,,,1,,,,,,,,,,,,,,,,,,,,,,,"[""0""]",1,[3.078100000000177],0,1,1,7,1,,,,,,,,,,,,,,,,,,,,,,,,,,
,,,,,,,,,,,X V Q F H G B L J M P D K C T S W R N Z,6066e9cfce4f74fe20aa3cad,47,Mężczyzna,2022-06-11_09h33.00.129,task,2021.1.4,Win32,59.60896519,6299f149e92ead563fba08ef,62a4450f4d4f0b27b9c0951a,,,,,,,,,,,,,,,,,,,,,,,,,,,,,,,,,,,,,,,,,,,,,,,,,,,,,,,,,,,,,,,,,,,,,,,,,,,,6,0,6,0,1,,,,,,,,,,,,,,,,,,,,,
,,,,,,,,,,,,6066e9cfce4f74fe20aa3cad,47,Mężczyzna,2022-06-11_09h33.00.129,task,2021.1.4,Win32,59.60896519,6299f149e92ead563fba08ef,62a4450f4d4f0b27b9c0951a,,,,,,,,,,,,,,,,,,,,,,,,,,,,,,,,,,,,,,,,,,,,,,,,,,,,,,,,,,,,,,,,,,,,,,,,,,,,,,,,,klsdzxz,"[""k"",""l"",""s"",""d"",""z"",""x"",""z""]",0,"[3.423999999999978,3.6841000000000577,4.430899999999951,5.464200000000233,6.579799999999864,7.398100000000113,8.61060000000009,9.46870000000024]",1,KLSDZXZ,6,0,6,0,1,,,,,,,,,,
,,,,,,,,,,,,6066e9cfce4f74fe20aa3cad,47,Mężczyzna,2022-06-11_09h33.00.129,task,2021.1.4,Win32,59.60896519,6299f149e92ead563fba08ef,62a4450f4d4f0b27b9c0951a,,,,,,,,,,,,,5,,,,,,,,,,Task,12,(4x4) - 11,5,,,,,,,,,,,,,,,,,,,1,,,,,,,,,,,,,,,,,,,,,,,"[""5""]",1,[4.9846],0,0,0,11,1,,,,,,,,,,,,,,,,,,,,,,,,,,
,,,,,,,,,,,X V Q F H G B L J M P D K C T S W R N Z,6066e9cfce4f74fe20aa3cad,47,Mężczyzna,2022-06-11_09h33.00.129,task,2021.1.4,Win32,59.60896519,6299f149e92ead563fba08ef,62a4450f4d4f0b27b9c0951a,,,,,,,,,,,,,,,,,,,,,,,,,,,,,,,,,,,,,,,,,,,,,,,,,,,,,,,,,,,,,,,,,,,,,,,,,,,,0,0,0,0,1,,,,,,,,,,,,,,,,,,,,,
,,,,,,,,,,,,6066e9cfce4f74fe20aa3cad,47,Mężczyzna,2022-06-11_09h33.00.129,task,2021.1.4,Win32,59.60896519,6299f149e92ead563fba08ef,62a4450f4d4f0b27b9c0951a,,,,,,,,,,,,,0,,,,,,,,,,Task,25,(10/5) - 2,0,,,,,,,,,,,,,,,,,,,1,,,,,,,,,,,,,,,,,,,,,,,"[""0""]",1,[4.888400000000388],0,0,0,24,1,,,,,,,,,,,,,,,,,,,,,,,,,,
,,,,,,,,,,,X V Q F H G B L J M P D K C T S W R N Z,6066e9cfce4f74fe20aa3cad,47,Mężczyzna,2022-06-11_09h33.00.129,task,2021.1.4,Win32,59.60896519,6299f149e92ead563fba08ef,62a4450f4d4f0b27b9c0951a,,,,,,,,,,,,,,,,,,,,,,,,,,,,,,,,,,,,,,,,,,,,,,,,,,,,,,,,,,,,,,,,,,,,,,,,,,,,1,0,1,0,1,,,,,,,,,,,,,,,,,,,,,
,,,,,,,,,,,,6066e9cfce4f74fe20aa3cad,47,Mężczyzna,2022-06-11_09h33.00.129,task,2021.1.4,Win32,59.60896519,6299f149e92ead563fba08ef,62a4450f4d4f0b27b9c0951a,,,,,,,,,,,,,,,,,,,,,,,Task,29,(3x8) - 19 ,5,,,,,,,,,,,,,,,,,,,0,,,,,,,,,,,,,,,,,,,,,,,,0,,0,0,0,28,1,,,,,,,,,,,,,,,,,,,,,,,,,,
,,,,,,,,,,,,6066e9cfce4f74fe20aa3cad,47,Mężczyzna,2022-06-11_09h33.00.129,task,2021.1.4,Win32,59.60896519,6299f149e92ead563fba08ef,62a4450f4d4f0b27b9c0951a,,,,,,,,,,,,,6,,,,,,,,,,Task,37,(3/3) + 5,6,,,,,,,,,,,,,,,,,,,1,,,,,,,,,,,,,,,,,,,,,,,"[""6""]",1,[3.073300000000245],0,1,1,36,1,,,,,,,,,,,,,,,,,,,,,,,,,,
,,,,,,,,,,,X V Q F H G B L J M P D K C T S W R N Z,6066e9cfce4f74fe20aa3cad,47,Mężczyzna,2022-06-11_09h33.00.129,task,2021.1.4,Win32,59.60896519,6299f149e92ead563fba08ef,62a4450f4d4f0b27b9c0951a,,,,,,,,,,,,,,,,,,,,,,,,,,,,,,,,,,,,,,,,,,,,,,,,,,,,,,,,,,,,,,,,,,,,,,,,,,,,2,0,2,0,1,,,,,,,,,,,,,,,,,,,,,
,,,,,,,,,,,,6066e9cfce4f74fe20aa3cad,47,Mężczyzna,2022-06-11_09h33.00.129,task,2021.1.4,Win32,59.60896519,6299f149e92ead563fba08ef,62a4450f4d4f0b27b9c0951a,,,,,,,,,,,,,3,,,,,,,,,,Task,3,(2x3) - 3,3,,,,,,,,,,,,,,,,,,,1,,,,,,,,,,,,,,,,,,,,,,,"[""3""]",1,[2.8417999999998074],0,0,0,2,1,,,,,,,,,,,,,,,,,,,,,,,,,,
,,,,,,,,,,,X V Q F H G B L J M P D K C T S W R N Z,6066e9cfce4f74fe20aa3cad,47,Mężczyzna,2022-06-11_09h33.00.129,task,2021.1.4,Win32,59.60896519,6299f149e92ead563fba08ef,62a4450f4d4f0b27b9c0951a,,,,,,,,,,,,,,,,,,,,,,,,,,,,,,,,,,,,,,,,,,,,,,,,,,,,,,,,,,,,,,,,,,,,,,,,,,,,3,0,3,0,1,,,,,,,,,,,,,,,,,,,,,
,,,,,,,,,,,,6066e9cfce4f74fe20aa3cad,47,Mężczyzna,2022-06-11_09h33.00.129,task,2021.1.4,Win32,59.60896519,6299f149e92ead563fba08ef,62a4450f4d4f0b27b9c0951a,,,,,,,,,,,,,3,,,,,,,,,,Task,3,(2x3) - 3,3,,,,,,,,,,,,,,,,,,,1,,,,,,,,,,,,,,,,,,,,,,,"[""3""]",1,[3.1671000000001186],0,0,0,2,1,,,,,,,,,,,,,,,,,,,,,,,,,,
,,,,,,,,,,,X V Q F H G B L J M P D K C T S W R N Z,6066e9cfce4f74fe20aa3cad,47,Mężczyzna,2022-06-11_09h33.00.129,task,2021.1.4,Win32,59.60896519,6299f149e92ead563fba08ef,62a4450f4d4f0b27b9c0951a,,,,,,,,,,,,,,,,,,,,,,,,,,,,,,,,,,,,,,,,,,,,,,,,,,,,,,,,,,,,,,,,,,,,,,,,,,,,4,0,4,0,1,,,,,,,,,,,,,,,,,,,,,
,,,,,,,,,,,,6066e9cfce4f74fe20aa3cad,47,Mężczyzna,2022-06-11_09h33.00.129,task,2021.1.4,Win32,59.60896519,6299f149e92ead563fba08ef,62a4450f4d4f0b27b9c0951a,,,,,,,,,,,,,8,,,,,,,,,,Task,32,(8/2) + 4,8,,,,,,,,,,,,,,,,,,,1,,,,,,,,,,,,,,,,,,,,,,,"[""8""]",1,[2.6017999999997983],0,0,0,31,1,,,,,,,,,,,,,,,,,,,,,,,,,,
,,,,,,,,,,,X V Q F H G B L J M P D K C T S W R N Z,6066e9cfce4f74fe20aa3cad,47,Mężczyzna,2022-06-11_09h33.00.129,task,2021.1.4,Win32,59.60896519,6299f149e92ead563fba08ef,62a4450f4d4f0b27b9c0951a,,,,,,,,,,,,,,,,,,,,,,,,,,,,,,,,,,,,,,,,,,,,,,,,,,,,,,,,,,,,,,,,,,,,,,,,,,,,5,0,5,0,1,,,,,,,,,,,,,,,,,,,,,
,,,,,,,,,,,,6066e9cfce4f74fe20aa3cad,47,Mężczyzna,2022-06-11_09h33.00.129,task,2021.1.4,Win32,59.60896519,6299f149e92ead563fba08ef,62a4450f4d4f0b27b9c0951a,,,,,,,,,,,,,5,,,,,,,,,,Task,22,(3x1) + 2,5,,,,,,,,,,,,,,,,,,,1,,,,,,,,,,,,,,,,,,,,,,,"[""5""]",1,[2.6636000000000877],0,0,0,21,1,,,,,,,,,,,,,,,,,,,,,,,,,,
,,,,,,,,,,,X V Q F H G B L J M P D K C T S W R N Z,6066e9cfce4f74fe20aa3cad,47,Mężczyzna,2022-06-11_09h33.00.129,task,2021.1.4,Win32,59.60896519,6299f149e92ead563fba08ef,62a4450f4d4f0b27b9c0951a,,,,,,,,,,,,,,,,,,,,,,,,,,,,,,,,,,,,,,,,,,,,,,,,,,,,,,,,,,,,,,,,,,,,,,,,,,,,6,0,6,0,1,,,,,,,,,,,,,,,,,,,,,
,,,,,,,,,,,,6066e9cfce4f74fe20aa3cad,47,Mężczyzna,2022-06-11_09h33.00.129,task,2021.1.4,Win32,59.60896519,6299f149e92ead563fba08ef,62a4450f4d4f0b27b9c0951a,,,,,,,,,,,,,3,,,,,,,,,,Task,3,(2x3) - 3,3,,,,,,,,,,,,,,,,,,,1,,,,,,,,,,,,,,,,,,,,,,,"[""3""]",1,[2.7431999999997743],0,0,0,2,1,,,,,,,,,,,,,,,,,,,,,,,,,,
,,,,,,,,,,,X V Q F H G B L J M P D K C T S W R N Z,6066e9cfce4f74fe20aa3cad,47,Mężczyzna,2022-06-11_09h33.00.129,task,2021.1.4,Win32,59.60896519,6299f149e92ead563fba08ef,62a4450f4d4f0b27b9c0951a,,,,,,,,,,,,,,,,,,,,,,,,,,,,,,,,,,,,,,,,,,,,,,,,,,,,,,,,,,,,,,,,,,,,,,,,,,,,7,0,7,0,1,,,,,,,,,,,,,,,,,,,,,
,,,,,,,,,,,,6066e9cfce4f74fe20aa3cad,47,Mężczyzna,2022-06-11_09h33.00.129,task,2021.1.4,Win32,59.60896519,6299f149e92ead563fba08ef,62a4450f4d4f0b27b9c0951a,,,,,,,,,,,,,,,,,,,,,,,,,,,,,,,,,,,,,,,,,,,,,,,,,,,,,,,,,,,,,,,,,,,,,,,,,,,,,,,,,dqrtbrxz,"[""d"",""q"",""r"",""t"",""b"",""r"",""x"",""z""]",0,"[4.299199999999701,5.4491999999997915,6.961500000000001,8.427699999999732,9.874500000000012,11.117899999999963,12.00429999999983,12.68819999999971,13.74779999999987]",0,DQRTBRXX,7,0,7,0,1,,,,,,,,,,
,,,,,,,,,,,,6066e9cfce4f74fe20aa3cad,47,Mężczyzna,2022-06-11_09h33.00.129,task,2021.1.4,Win32,59.60896519,6299f149e92ead563fba08ef,62a4450f4d4f0b27b9c0951a,,,,,,,,,,,,,5,,,,,,,,,,Task,36,(8/4) + 3,5,,,,,,,,,,,,,,,,,,,1,,,,,,,,,,,,,,,,,,,,,,,"[""5""]",1,[5.4015000000000555],0,0,0,35,1,,,,,,,,,,,,,,,,,,,,,,,,,,
,,,,,,,,,,,X V Q F H G B L J M P D K C T S W R N Z,6066e9cfce4f74fe20aa3cad,47,Mężczyzna,2022-06-11_09h33.00.129,task,2021.1.4,Win32,59.60896519,6299f149e92ead563fba08ef,62a4450f4d4f0b27b9c0951a,,,,,,,,,,,,,,,,,,,,,,,,,,,,,,,,,,,,,,,,,,,,,,,,,,,,,,,,,,,,,,,,,,,,,,,,,,,,0,0,0,0,1,,,,,,,,,,,,,,,,,,,,,
,,,,,,,,,,,,6066e9cfce4f74fe20aa3cad,47,Mężczyzna,2022-06-11_09h33.00.129,task,2021.1.4,Win32,59.60896519,6299f149e92ead563fba08ef,62a4450f4d4f0b27b9c0951a,,,,,,,,,,,,,9,,,,,,,,,,Task,7,(3x7) - 12,9,,,,,,,,,,,,,,,,,,,1,,,,,,,,,,,,,,,,,,,,,,,"[""9""]",1,[4.43039999999985],0,0,0,6,1,,,,,,,,,,,,,,,,,,,,,,,,,,
,,,,,,,,,,,X V Q F H G B L J M P D K C T S W R N Z,6066e9cfce4f74fe20aa3cad,47,Mężczyzna,2022-06-11_09h33.00.129,task,2021.1.4,Win32,59.60896519,6299f149e92ead563fba08ef,62a4450f4d4f0b27b9c0951a,,,,,,,,,,,,,,,,,,,,,,,,,,,,,,,,,,,,,,,,,,,,,,,,,,,,,,,,,,,,,,,,,,,,,,,,,,,,1,0,1,0,1,,,,,,,,,,,,,,,,,,,,,
,,,,,,,,,,,,6066e9cfce4f74fe20aa3cad,47,Mężczyzna,2022-06-11_09h33.00.129,task,2021.1.4,Win32,59.60896519,6299f149e92ead563fba08ef,62a4450f4d4f0b27b9c0951a,,,,,,,,,,,,,7,,,,,,,,,,Task,6,(12/2) + 1,7,,,,,,,,,,,,,,,,,,,1,,,,,,,,,,,,,,,,,,,,,,,"[""7""]",1,[3.7323999999998705],0,0,0,5,1,,,,,,,,,,,,,,,,,,,,,,,,,,
,,,,,,,,,,,X V Q F H G B L J M P D K C T S W R N Z,6066e9cfce4f74fe20aa3cad,47,Mężczyzna,2022-06-11_09h33.00.129,task,2021.1.4,Win32,59.60896519,6299f149e92ead563fba08ef,62a4450f4d4f0b27b9c0951a,,,,,,,,,,,,,,,,,,,,,,,,,,,,,,,,,,,,,,,,,,,,,,,,,,,,,,,,,,,,,,,,,,,,,,,,,,,,2,0,2,0,1,,,,,,,,,,,,,,,,,,,,,
,,,,,,,,,,,,6066e9cfce4f74fe20aa3cad,47,Mężczyzna,2022-06-11_09h33.00.129,task,2021.1.4,Win32,59.60896519,6299f149e92ead563fba08ef,62a4450f4d4f0b27b9c0951a,,,,,,,,,,,,,9,,,,,,,,,,Task,26,(2x9) - 16,2,,,,,,,,,,,,,,,,,,,0,,,,,,,,,,,,,,,,,,,,,,,"[""9""]",0,[8.666000000000054],0,0,0,25,1,,,,,,,,,,,,,,,,,,,,,,,,,,
,,,,,,,,,,,,6066e9cfce4f74fe20aa3cad,47,Mężczyzna,2022-06-11_09h33.00.129,task,2021.1.4,Win32,59.60896519,6299f149e92ead563fba08ef,62a4450f4d4f0b27b9c0951a,,,,,,,,,,,,,1,,,,,,,,,,Task,1,(12/6) - 1,1,,,,,,,,,,,,,,,,,,,1,,,,,,,,,,,,,,,,,,,,,,,"[""1""]",1,[2.80820000000017],0,1,1,0,1,,,,,,,,,,,,,,,,,,,,,,,,,,
,,,,,,,,,,,X V Q F H G B L J M P D K C T S W R N Z,6066e9cfce4f74fe20aa3cad,47,Mężczyzna,2022-06-11_09h33.00.129,task,2021.1.4,Win32,59.60896519,6299f149e92ead563fba08ef,62a4450f4d4f0b27b9c0951a,,,,,,,,,,,,,,,,,,,,,,,,,,,,,,,,,,,,,,,,,,,,,,,,,,,,,,,,,,,,,,,,,,,,,,,,,,,,3,0,3,0,1,,,,,,,,,,,,,,,,,,,,,
,,,,,,,,,,,,6066e9cfce4f74fe20aa3cad,47,Mężczyzna,2022-06-11_09h33.00.129,task,2021.1.4,Win32,59.60896519,6299f149e92ead563fba08ef,62a4450f4d4f0b27b9c0951a,,,,,,,,,,,,,8,,,,,,,,,,Task,15,(3x7) - 13,8,,,,,,,,,,,,,,,,,,,1,,,,,,,,,,,,,,,,,,,,,,,"[""8""]",1,[7.45760000000007],0,0,0,14,1,,,,,,,,,,,,,,,,,,,,,,,,,,
,,,,,,,,,,,X V Q F H G B L J M P D K C T S W R N Z,6066e9cfce4f74fe20aa3cad,47,Mężczyzna,2022-06-11_09h33.00.129,task,2021.1.4,Win32,59.60896519,6299f149e92ead563fba08ef,62a4450f4d4f0b27b9c0951a,,,,,,,,,,,,,,,,,,,,,,,,,,,,,,,,,,,,,,,,,,,,,,,,,,,,,,,,,,,,,,,,,,,,,,,,,,,,4,0,4,0,1,,,,,,,,,,,,,,,,,,,,,
,,,,,,,,,,,,6066e9cfce4f74fe20aa3cad,47,Mężczyzna,2022-06-11_09h33.00.129,task,2021.1.4,Win32,59.60896519,6299f149e92ead563fba08ef,62a4450f4d4f0b27b9c0951a,,,,,,,,,,,,,1,,,,,,,,,,Task,34,(9/3) - 2,1,,,,,,,,,,,,,,,,,,,1,,,,,,,,,,,,,,,,,,,,,,,"[""1""]",1,[3.9182000000001835],0,0,0,33,1,,,,,,,,,,,,,,,,,,,,,,,,,,
,,,,,,,,,,,X V Q F H G B L J M P D K C T S W R N Z,6066e9cfce4f74fe20aa3cad,47,Mężczyzna,2022-06-11_09h33.00.129,task,2021.1.4,Win32,59.60896519,6299f149e92ead563fba08ef,62a4450f4d4f0b27b9c0951a,,,,,,,,,,,,,,,,,,,,,,,,,,,,,,,,,,,,,,,,,,,,,,,,,,,,,,,,,,,,,,,,,,,,,,,,,,,,5,0,5,0,1,,,,,,,,,,,,,,,,,,,,,
,,,,,,,,,,,,6066e9cfce4f74fe20aa3cad,47,Mężczyzna,2022-06-11_09h33.00.129,task,2021.1.4,Win32,59.60896519,6299f149e92ead563fba08ef,62a4450f4d4f0b27b9c0951a,,,,,,,,,,,,,2,,,,,,,,,,Task,10,(2x5) - 8,2,,,,,,,,,,,,,,,,,,,1,,,,,,,,,,,,,,,,,,,,,,,"[""2""]",1,[2.293100000000095],0,0,0,9,1,,,,,,,,,,,,,,,,,,,,,,,,,,
,,,,,,,,,,,X V Q F H G B L J M P D K C T S W R N Z,6066e9cfce4f74fe20aa3cad,47,Mężczyzna,2022-06-11_09h33.00.129,task,2021.1.4,Win32,59.60896519,6299f149e92ead563fba08ef,62a4450f4d4f0b27b9c0951a,,,,,,,,,,,,,,,,,,,,,,,,,,,,,,,,,,,,,,,,,,,,,,,,,,,,,,,,,,,,,,,,,,,,,,,,,,,,6,0,6,0,1,,,,,,,,,,,,,,,,,,,,,
,,,,,,,,,,,,6066e9cfce4f74fe20aa3cad,47,Mężczyzna,2022-06-11_09h33.00.129,task,2021.1.4,Win32,59.60896519,6299f149e92ead563fba08ef,62a4450f4d4f0b27b9c0951a,,,,,,,,,,,,,,,,,,,,,,,Task,29,(3x8) - 19 ,5,,,,,,,,,,,,,,,,,,,0,,,,,,,,,,,,,,,,,,,,,,,,0,,0,0,0,28,1,,,,,,,,,,,,,,,,,,,,,,,,,,
,,,,,,,,,,,,6066e9cfce4f74fe20aa3cad,47,Mężczyzna,2022-06-11_09h33.00.129,task,2021.1.4,Win32,59.60896519,6299f149e92ead563fba08ef,62a4450f4d4f0b27b9c0951a,,,,,,,,,,,,,9,,,,,,,,,,Task,24,(2x2) + 5,9,,,,,,,,,,,,,,,,,,,1,,,,,,,,,,,,,,,,,,,,,,,"[""9""]",1,[2.9993999999999232],0,1,1,23,1,,,,,,,,,,,,,,,,,,,,,,,,,,
,,,,,,,,,,,X V Q F H G B L J M P D K C T S W R N Z,6066e9cfce4f74fe20aa3cad,47,Mężczyzna,2022-06-11_09h33.00.129,task,2021.1.4,Win32,59.60896519,6299f149e92ead563fba08ef,62a4450f4d4f0b27b9c0951a,,,,,,,,,,,,,,,,,,,,,,,,,,,,,,,,,,,,,,,,,,,,,,,,,,,,,,,,,,,,,,,,,,,,,,,,,,,,7,0,7,0,1,,,,,,,,,,,,,,,,,,,,,
,,,,,,,,,,,,6066e9cfce4f74fe20aa3cad,47,Mężczyzna,2022-06-11_09h33.00.129,task,2021.1.4,Win32,59.60896519,6299f149e92ead563fba08ef,62a4450f4d4f0b27b9c0951a,,,,,,,,,,,,,,,,,,,,,,,,,,,,,,,,,,,,,,,,,,,,,,,,,,,,,,,,,,,,,,,,,,,,,,,,,,,,,,,,,qpshxxkq,"[""q"",""p"",""s"",""h"",""x"",""x"",""k"",""q""]",0,"[2.3524999999999636,3.1639999999999873,4.47160000000008,6.037100000000123,6.959299999999757,7.38760000000002,8.289299999999798,9.018500000000017,9.951799999999821]",1,QPSHXXKQ,8,0,8,0,1,,,,,,,,,,
,,,,,,,,,,,,6066e9cfce4f74fe20aa3cad,47,Mężczyzna,2022-06-11_09h33.00.129,task,2021.1.4,Win32,59.60896519,6299f149e92ead563fba08ef,62a4450f4d4f0b27b9c0951a,,,,,,,,,,,,,1,,,,,,,,,,Task,38,(4x6) - 17,7,,,,,,,,,,,,,,,,,,,0,,,,,,,,,,,,,,,,,,,,,,,"[""1""]",0,[6.709200000000237],0,0,0,37,1,,,,,,,,,,,,,,,,,,,,,,,,,,
,,,,,,,,,,,,6066e9cfce4f74fe20aa3cad,47,Mężczyzna,2022-06-11_09h33.00.129,task,2021.1.4,Win32,59.60896519,6299f149e92ead563fba08ef,62a4450f4d4f0b27b9c0951a,,,,,,,,,,,,,5,,,,,,,,,,Task,12,(4x4) - 11,5,,,,,,,,,,,,,,,,,,,1,,,,,,,,,,,,,,,,,,,,,,,"[""5""]",1,[5.116899999999873],0,1,1,11,1,,,,,,,,,,,,,,,,,,,,,,,,,,
,,,,,,,,,,,X V Q F H G B L J M P D K C T S W R N Z,6066e9cfce4f74fe20aa3cad,47,Mężczyzna,2022-06-11_09h33.00.129,task,2021.1.4,Win32,59.60896519,6299f149e92ead563fba08ef,62a4450f4d4f0b27b9c0951a,,,,,,,,,,,,,,,,,,,,,,,,,,,,,,,,,,,,,,,,,,,,,,,,,,,,,,,,,,,,,,,,,,,,,,,,,,,,0,0,0,0,1,,,,,,,,,,,,,,,,,,,,,
,,,,,,,,,,,,6066e9cfce4f74fe20aa3cad,47,Mężczyzna,2022-06-11_09h33.00.129,task,2021.1.4,Win32,59.60896519,6299f149e92ead563fba08ef,62a4450f4d4f0b27b9c0951a,,,,,,,,,,,,,4,,,,,,,,,,Task,11,(18/3) - 2,4,,,,,,,,,,,,,,,,,,,1,,,,,,,,,,,,,,,,,,,,,,,"[""4""]",1,[6.935600000000136],0,0,0,10,1,,,,,,,,,,,,,,,,,,,,,,,,,,
,,,,,,,,,,,X V Q F H G B L J M P D K C T S W R N Z,6066e9cfce4f74fe20aa3cad,47,Mężczyzna,2022-06-11_09h33.00.129,task,2021.1.4,Win32,59.60896519,6299f149e92ead563fba08ef,62a4450f4d4f0b27b9c0951a,,,,,,,,,,,,,,,,,,,,,,,,,,,,,,,,,,,,,,,,,,,,,,,,,,,,,,,,,,,,,,,,,,,,,,,,,,,,1,0,1,0,1,,,,,,,,,,,,,,,,,,,,,
,,,,,,,,,,,,6066e9cfce4f74fe20aa3cad,47,Mężczyzna,2022-06-11_09h33.00.129,task,2021.1.4,Win32,59.60896519,6299f149e92ead563fba08ef,62a4450f4d4f0b27b9c0951a,,,,,,,,,,,,,2,,,,,,,,,,Task,19,(6/2) - 1,2,,,,,,,,,,,,,,,,,,,1,,,,,,,,,,,,,,,,,,,,,,,"[""2""]",1,[3.3821000000000367],0,0,0,18,1,,,,,,,,,,,,,,,,,,,,,,,,,,
,,,,,,,,,,,X V Q F H G B L J M P D K C T S W R N Z,6066e9cfce4f74fe20aa3cad,47,Mężczyzna,2022-06-11_09h33.00.129,task,2021.1.4,Win32,59.60896519,6299f149e92ead563fba08ef,62a4450f4d4f0b27b9c0951a,,,,,,,,,,,,,,,,,,,,,,,,,,,,,,,,,,,,,,,,,,,,,,,,,,,,,,,,,,,,,,,,,,,,,,,,,,,,2,0,2,0,1,,,,,,,,,,,,,,,,,,,,,
,,,,,,,,,,,,6066e9cfce4f74fe20aa3cad,47,Mężczyzna,2022-06-11_09h33.00.129,task,2021.1.4,Win32,59.60896519,6299f149e92ead563fba08ef,62a4450f4d4f0b27b9c0951a,,,,,,,,,,,,,7,,,,,,,,,,Task,31,(4/2) + 5,7,,,,,,,,,,,,,,,,,,,1,,,,,,,,,,,,,,,,,,,,,,,"[""7""]",1,[3.007400000000416],0,0,0,30,1,,,,,,,,,,,,,,,,,,,,,,,,,,
,,,,,,,,,,,X V Q F H G B L J M P D K C T S W R N Z,6066e9cfce4f74fe20aa3cad,47,Mężczyzna,2022-06-11_09h33.00.129,task,2021.1.4,Win32,59.60896519,6299f149e92ead563fba08ef,62a4450f4d4f0b27b9c0951a,,,,,,,,,,,,,,,,,,,,,,,,,,,,,,,,,,,,,,,,,,,,,,,,,,,,,,,,,,,,,,,,,,,,,,,,,,,,3,0,3,0,1,,,,,,,,,,,,,,,,,,,,,
,,,,,,,,,,,,6066e9cfce4f74fe20aa3cad,47,Mężczyzna,2022-06-11_09h33.00.129,task,2021.1.4,Win32,59.60896519,6299f149e92ead563fba08ef,62a4450f4d4f0b27b9c0951a,,,,,,,,,,,,,8,,,,,,,,,,Task,39,(5x3) - 7,8,,,,,,,,,,,,,,,,,,,1,,,,,,,,,,,,,,,,,,,,,,,"[""8""]",1,[4.967600000000061],0,0,0,38,1,,,,,,,,,,,,,,,,,,,,,,,,,,
,,,,,,,,,,,X V Q F H G B L J M P D K C T S W R N Z,6066e9cfce4f74fe20aa3cad,47,Mężczyzna,2022-06-11_09h33.00.129,task,2021.1.4,Win32,59.60896519,6299f149e92ead563fba08ef,62a4450f4d4f0b27b9c0951a,,,,,,,,,,,,,,,,,,,,,,,,,,,,,,,,,,,,,,,,,,,,,,,,,,,,,,,,,,,,,,,,,,,,,,,,,,,,4,0,4,0,1,,,,,,,,,,,,,,,,,,,,,
,,,,,,,,,,,,6066e9cfce4f74fe20aa3cad,47,Mężczyzna,2022-06-11_09h33.00.129,task,2021.1.4,Win32,59.60896519,6299f149e92ead563fba08ef,62a4450f4d4f0b27b9c0951a,,,,,,,,,,,,,1,,,,,,,,,,Task,9,(3x7) - 20,1,,,,,,,,,,,,,,,,,,,1,,,,,,,,,,,,,,,,,,,,,,,"[""1""]",1,[5.994900000000371],0,0,0,8,1,,,,,,,,,,,,,,,,,,,,,,,,,,
,,,,,,,,,,,X V Q F H G B L J M P D K C T S W R N Z,6066e9cfce4f74fe20aa3cad,47,Mężczyzna,2022-06-11_09h33.00.129,task,2021.1.4,Win32,59.60896519,6299f149e92ead563fba08ef,62a4450f4d4f0b27b9c0951a,,,,,,,,,,,,,,,,,,,,,,,,,,,,,,,,,,,,,,,,,,,,,,,,,,,,,,,,,,,,,,,,,,,,,,,,,,,,5,0,5,0,1,,,,,,,,,,,,,,,,,,,,,
,,,,,,,,,,,,6066e9cfce4f74fe20aa3cad,47,Mężczyzna,2022-06-11_09h33.00.129,task,2021.1.4,Win32,59.60896519,6299f149e92ead563fba08ef,62a4450f4d4f0b27b9c0951a,,,,,,,,,,,,,1,,,,,,,,,,Task,1,(12/6) - 1,1,,,,,,,,,,,,,,,,,,,1,,,,,,,,,,,,,,,,,,,,,,,"[""1""]",1,[3.140899999999874],0,0,0,0,1,,,,,,,,,,,,,,,,,,,,,,,,,,
,,,,,,,,,,,X V Q F H G B L J M P D K C T S W R N Z,6066e9cfce4f74fe20aa3cad,47,Mężczyzna,2022-06-11_09h33.00.129,task,2021.1.4,Win32,59.60896519,6299f149e92ead563fba08ef,62a4450f4d4f0b27b9c0951a,,,,,,,,,,,,,,,,,,,,,,,,,,,,,,,,,,,,,,,,,,,,,,,,,,,,,,,,,,,,,,,,,,,,,,,,,,,,6,0,6,0,1,,,,,,,,,,,,,,,,,,,,,
,,,,,,,,,,,,6066e9cfce4f74fe20aa3cad,47,Mężczyzna,2022-06-11_09h33.00.129,task,2021.1.4,Win32,59.60896519,6299f149e92ead563fba08ef,62a4450f4d4f0b27b9c0951a,,,,,,,,,,,,,5,,,,,,,,,,Task,29,(3x8) - 19 ,5,,,,,,,,,,,,,,,,,,,1,,,,,,,,,,,,,,,,,,,,,,,"[""5""]",1,[5.824299999999766],0,0,0,28,1,,,,,,,,,,,,,,,,,,,,,,,,,,
,,,,,,,,,,,X V Q F H G B L J M P D K C T S W R N Z,6066e9cfce4f74fe20aa3cad,47,Mężczyzna,2022-06-11_09h33.00.129,task,2021.1.4,Win32,59.60896519,6299f149e92ead563fba08ef,62a4450f4d4f0b27b9c0951a,,,,,,,,,,,,,,,,,,,,,,,,,,,,,,,,,,,,,,,,,,,,,,,,,,,,,,,,,,,,,,,,,,,,,,,,,,,,7,0,7,0,1,,,,,,,,,,,,,,,,,,,,,
,,,,,,,,,,,,6066e9cfce4f74fe20aa3cad,47,Mężczyzna,2022-06-11_09h33.00.129,task,2021.1.4,Win32,59.60896519,6299f149e92ead563fba08ef,62a4450f4d4f0b27b9c0951a,,,,,,,,,,,,,8,,,,,,,,,,Task,23,(2x3) + 2,8,,,,,,,,,,,,,,,,,,,1,,,,,,,,,,,,,,,,,,,,,,,"[""8""]",1,[3.9521000000000868],0,0,0,22,1,,,,,,,,,,,,,,,,,,,,,,,,,,
,,,,,,,,,,,X V Q F H G B L J M P D K C T S W R N Z,6066e9cfce4f74fe20aa3cad,47,Mężczyzna,2022-06-11_09h33.00.129,task,2021.1.4,Win32,59.60896519,6299f149e92ead563fba08ef,62a4450f4d4f0b27b9c0951a,,,,,,,,,,,,,,,,,,,,,,,,,,,,,,,,,,,,,,,,,,,,,,,,,,,,,,,,,,,,,,,,,,,,,,,,,,,,8,0,8,0,1,,,,,,,,,,,,,,,,,,,,,
,,,,,,,,,,,,6066e9cfce4f74fe20aa3cad,47,Mężczyzna,2022-06-11_09h33.00.129,task,2021.1.4,Win32,59.60896519,6299f149e92ead563fba08ef,62a4450f4d4f0b27b9c0951a,,,,,,,,,,,,,,,,,,,,,,,,,,,,,,,,,,,,,,,,,,,,,,,,,,,,,,,,,,,,,,,,,,,,,,,,,,,,,,,,,qkdjpjwk,"[""q"",""k"",""d"",""j"",""p"",""j"",""w"",""k""]",0,"[3.658999999999992,5.012400000000412,6.048800000000256,8.424200000000155,10.350999999999999,11.958400000000438,13.538800000000265,14.010200000000168,15.257700000000227]",0,QKDHPJWKJ,9,0,9,0,1,,,,,,,,,,
,,,,,,,,,,,,6066e9cfce4f74fe20aa3cad,47,Mężczyzna,2022-06-11_09h33.00.129,task,2021.1.4,Win32,59.60896519,6299f149e92ead563fba08ef,62a4450f4d4f0b27b9c0951a,,,,,,,,,,,,,4,,,,,,,,,,Task,21,(10/2) - 1,4,,,,,,,,,,,,,,,,,,,1,,,,,,,,,,,,,,,,,,,,,,,"[""4""]",1,[4.140100000000189],0,0,0,20,1,,,,,,,,,,,,,,,,,,,,,,,,,,
,,,,,,,,,,,X V Q F H G B L J M P D K C T S W R N Z,6066e9cfce4f74fe20aa3cad,47,Mężczyzna,2022-06-11_09h33.00.129,task,2021.1.4,Win32,59.60896519,6299f149e92ead563fba08ef,62a4450f4d4f0b27b9c0951a,,,,,,,,,,,,,,,,,,,,,,,,,,,,,,,,,,,,,,,,,,,,,,,,,,,,,,,,,,,,,,,,,,,,,,,,,,,,0,0,0,0,1,,,,,,,,,,,,,,,,,,,,,
,,,,,,,,,,,,6066e9cfce4f74fe20aa3cad,47,Mężczyzna,2022-06-11_09h33.00.129,task,2021.1.4,Win32,59.60896519,6299f149e92ead563fba08ef,62a4450f4d4f0b27b9c0951a,,,,,,,,,,,,,6,,,,,,,,,,Task,37,(3/3) + 5,6,,,,,,,,,,,,,,,,,,,1,,,,,,,,,,,,,,,,,,,,,,,"[""6""]",1,[3.317399999999907],0,0,0,36,1,,,,,,,,,,,,,,,,,,,,,,,,,,
,,,,,,,,,,,X V Q F H G B L J M P D K C T S W R N Z,6066e9cfce4f74fe20aa3cad,47,Mężczyzna,2022-06-11_09h33.00.129,task,2021.1.4,Win32,59.60896519,6299f149e92ead563fba08ef,62a4450f4d4f0b27b9c0951a,,,,,,,,,,,,,,,,,,,,,,,,,,,,,,,,,,,,,,,,,,,,,,,,,,,,,,,,,,,,,,,,,,,,,,,,,,,,1,0,1,0,1,,,,,,,,,,,,,,,,,,,,,
,,,,,,,,,,,,6066e9cfce4f74fe20aa3cad,47,Mężczyzna,2022-06-11_09h33.00.129,task,2021.1.4,Win32,59.60896519,6299f149e92ead563fba08ef,62a4450f4d4f0b27b9c0951a,,,,,,,,,,,,,6,,,,,,,,,,Task,5,(2x3) + 0,6,,,,,,,,,,,,,,,,,,,1,,,,,,,,,,,,,,,,,,,,,,,"[""6""]",1,[2.3705999999996266],0,0,0,4,1,,,,,,,,,,,,,,,,,,,,,,,,,,
,,,,,,,,,,,X V Q F H G B L J M P D K C T S W R N Z,6066e9cfce4f74fe20aa3cad,47,Mężczyzna,2022-06-11_09h33.00.129,task,2021.1.4,Win32,59.60896519,6299f149e92ead563fba08ef,62a4450f4d4f0b27b9c0951a,,,,,,,,,,,,,,,,,,,,,,,,,,,,,,,,,,,,,,,,,,,,,,,,,,,,,,,,,,,,,,,,,,,,,,,,,,,,2,0,2,0,1,,,,,,,,,,,,,,,,,,,,,
,,,,,,,,,,,,6066e9cfce4f74fe20aa3cad,47,Mężczyzna,2022-06-11_09h33.00.129,task,2021.1.4,Win32,59.60896519,6299f149e92ead563fba08ef,62a4450f4d4f0b27b9c0951a,,,,,,,,,,,,,1,,,,,,,,,,Task,34,(9/3) - 2,1,,,,,,,,,,,,,,,,,,,1,,,,,,,,,,,,,,,,,,,,,,,"[""1""]",1,[4.376299999999787],0,0,0,33,1,,,,,,,,,,,,,,,,,,,,,,,,,,
,,,,,,,,,,,X V Q F H G B L J M P D K C T S W R N Z,6066e9cfce4f74fe20aa3cad,47,Mężczyzna,2022-06-11_09h33.00.129,task,2021.1.4,Win32,59.60896519,6299f149e92ead563fba08ef,62a4450f4d4f0b27b9c0951a,,,,,,,,,,,,,,,,,,,,,,,,,,,,,,,,,,,,,,,,,,,,,,,,,,,,,,,,,,,,,,,,,,,,,,,,,,,,3,0,3,0,1,,,,,,,,,,,,,,,,,,,,,
,,,,,,,,,,,,6066e9cfce4f74fe20aa3cad,47,Mężczyzna,2022-06-11_09h33.00.129,task,2021.1.4,Win32,59.60896519,6299f149e92ead563fba08ef,62a4450f4d4f0b27b9c0951a,,,,,,,,,,,,,0,,,,,,,,,,Task,33,(1/1) - 1,0,,,,,,,,,,,,,,,,,,,1,,,,,,,,,,,,,,,,,,,,,,,"[""0""]",1,[2.4553999999999405],0,0,0,32,1,,,,,,,,,,,,,,,,,,,,,,,,,,
,,,,,,,,,,,X V Q F H G B L J M P D K C T S W R N Z,6066e9cfce4f74fe20aa3cad,47,Mężczyzna,2022-06-11_09h33.00.129,task,2021.1.4,Win32,59.60896519,6299f149e92ead563fba08ef,62a4450f4d4f0b27b9c0951a,,,,,,,,,,,,,,,,,,,,,,,,,,,,,,,,,,,,,,,,,,,,,,,,,,,,,,,,,,,,,,,,,,,,,,,,,,,,4,0,4,0,1,,,,,,,,,,,,,,,,,,,,,
,,,,,,,,,,,,6066e9cfce4f74fe20aa3cad,47,Mężczyzna,2022-06-11_09h33.00.129,task,2021.1.4,Win32,59.60896519,6299f149e92ead563fba08ef,62a4450f4d4f0b27b9c0951a,,,,,,,,,,,,,,,,,,,,,,,Task,7,(3x7) - 12,9,,,,,,,,,,,,,,,,,,,0,,,,,,,,,,,,,,,,,,,,,,,,0,,0,0,0,6,1,,,,,,,,,,,,,,,,,,,,,,,,,,
,,,,,,,,,,,,6066e9cfce4f74fe20aa3cad,47,Mężczyzna,2022-06-11_09h33.00.129,task,2021.1.4,Win32,59.60896519,6299f149e92ead563fba08ef,62a4450f4d4f0b27b9c0951a,,,,,,,,,,,,,1,,,,,,,,,,Task,34,(9/3) - 2,1,,,,,,,,,,,,,,,,,,,1,,,,,,,,,,,,,,,,,,,,,,,"[""1""]",1,[2.6591999999997142],0,1,1,33,1,,,,,,,,,,,,,,,,,,,,,,,,,,
,,,,,,,,,,,X V Q F H G B L J M P D K C T S W R N Z,6066e9cfce4f74fe20aa3cad,47,Mężczyzna,2022-06-11_09h33.00.129,task,2021.1.4,Win32,59.60896519,6299f149e92ead563fba08ef,62a4450f4d4f0b27b9c0951a,,,,,,,,,,,,,,,,,,,,,,,,,,,,,,,,,,,,,,,,,,,,,,,,,,,,,,,,,,,,,,,,,,,,,,,,,,,,5,0,5,0,1,,,,,,,,,,,,,,,,,,,,,
,,,,,,,,,,,,6066e9cfce4f74fe20aa3cad,47,Mężczyzna,2022-06-11_09h33.00.129,task,2021.1.4,Win32,59.60896519,6299f149e92ead563fba08ef,62a4450f4d4f0b27b9c0951a,,,,,,,,,,,,,7,,,,,,,,,,Task,31,(4/2) + 5,7,,,,,,,,,,,,,,,,,,,1,,,,,,,,,,,,,,,,,,,,,,,"[""7""]",1,[2.57979999999975],0,0,0,30,1,,,,,,,,,,,,,,,,,,,,,,,,,,
,,,,,,,,,,,X V Q F H G B L J M P D K C T S W R N Z,6066e9cfce4f74fe20aa3cad,47,Mężczyzna,2022-06-11_09h33.00.129,task,2021.1.4,Win32,59.60896519,6299f149e92ead563fba08ef,62a4450f4d4f0b27b9c0951a,,,,,,,,,,,,,,,,,,,,,,,,,,,,,,,,,,,,,,,,,,,,,,,,,,,,,,,,,,,,,,,,,,,,,,,,,,,,6,0,6,0,1,,,,,,,,,,,,,,,,,,,,,
,,,,,,,,,,,,6066e9cfce4f74fe20aa3cad,47,Mężczyzna,2022-06-11_09h33.00.129,task,2021.1.4,Win32,59.60896519,6299f149e92ead563fba08ef,62a4450f4d4f0b27b9c0951a,,,,,,,,,,,,,1,,,,,,,,,,Task,1,(12/6) - 1,1,,,,,,,,,,,,,,,,,,,1,,,,,,,,,,,,,,,,,,,,,,,"[""1""]",1,[3.424300000000244],0,0,0,0,1,,,,,,,,,,,,,,,,,,,,,,,,,,
,,,,,,,,,,,X V Q F H G B L J M P D K C T S W R N Z,6066e9cfce4f74fe20aa3cad,47,Mężczyzna,2022-06-11_09h33.00.129,task,2021.1.4,Win32,59.60896519,6299f149e92ead563fba08ef,62a4450f4d4f0b27b9c0951a,,,,,,,,,,,,,,,,,,,,,,,,,,,,,,,,,,,,,,,,,,,,,,,,,,,,,,,,,,,,,,,,,,,,,,,,,,,,7,0,7,0,1,,,,,,,,,,,,,,,,,,,,,
,,,,,,,,,,,,6066e9cfce4f74fe20aa3cad,47,Mężczyzna,2022-06-11_09h33.00.129,task,2021.1.4,Win32,59.60896519,6299f149e92ead563fba08ef,62a4450f4d4f0b27b9c0951a,,,,,,,,,,,,,0,,,,,,,,,,Task,17,(2x3) - 6,0,,,,,,,,,,,,,,,,,,,1,,,,,,,,,,,,,,,,,,,,,,,"[""0""]",1,[3.7358000000002676],0,0,0,16,1,,,,,,,,,,,,,,,,,,,,,,,,,,
,,,,,,,,,,,X V Q F H G B L J M P D K C T S W R N Z,6066e9cfce4f74fe20aa3cad,47,Mężczyzna,2022-06-11_09h33.00.129,task,2021.1.4,Win32,59.60896519,6299f149e92ead563fba08ef,62a4450f4d4f0b27b9c0951a,,,,,,,,,,,,,,,,,,,,,,,,,,,,,,,,,,,,,,,,,,,,,,,,,,,,,,,,,,,,,,,,,,,,,,,,,,,,8,0,8,0,1,,,,,,,,,,,,,,,,,,,,,
,,,,,,,,,,,,6066e9cfce4f74fe20aa3cad,47,Mężczyzna,2022-06-11_09h33.00.129,task,2021.1.4,Win32,59.60896519,6299f149e92ead563fba08ef,62a4450f4d4f0b27b9c0951a,,,,,,,,,,,,,,,,,,,,,,,,,,,,,,,,,,,,,,,,,,,,,,,,,,,,,,,,,,,,,,,,,,,,,,,,,,,,,,,,,dgpthpshn,"[""d"",""g"",""p"",""t"",""h"",""p"",""s"",""h"",""n""]",0,"[3.032899999999927,3.2921000000001186,4.06029999999987,6.391700000000242,6.829600000000141,8.539000000000101,10.688400000000001,11.222799999999893,12.158399999999915,13.472899999999981]",0,DGPTBPSHB,10,0,10,0,1,,,,,,,,,,
,,,,,,,,,,,,6066e9cfce4f74fe20aa3cad,47,Mężczyzna,2022-06-11_09h33.00.129,task,2021.1.4,Win32,59.60896519,6299f149e92ead563fba08ef,62a4450f4d4f0b27b9c0951a,,,,,,,,,,,,,,,,,,,,,,,,,,,,,,,,,,,,,,,,,,,,,,,,,,,,,,,,,,,,,,,,,,,,,,,,,,,,,,,,,,,,,,,,,,,,"[""period""]",0,[0.7423000000001139],0,0,0,0,1,,
,,,,,,,,,,,,6066e9cfce4f74fe20aa3cad,47,Mężczyzna,2022-06-11_09h33.00.129,task,2021.1.4,Win32,59.60896519,6299f149e92ead563fba08ef,62a4450f4d4f0b27b9c0951a,,,,,,,,,,,,,,,,,,,,,,,,,,,,,,,,,,,,,,,,,,,,,,,,,,,,,,,,,,,,,,,,,,,,,,,,,,,,,,,,,,,,,,,,,,,,"[""comma""]",0,[0.7843000000004849],1,0,1,0,1,,
,,,,,,,,,,,,6066e9cfce4f74fe20aa3cad,47,Mężczyzna,2022-06-11_09h33.00.129,task,2021.1.4,Win32,59.60896519,6299f149e92ead563fba08ef,62a4450f4d4f0b27b9c0951a,,,,,,,,,,,,,,,,,,,,,,,,,,,,,,,,,,,,,,,,,,,,,,,,,,,,,,,,,,,,,,,,,,,,,,,,,,,,,,,,,,,,,,,,,,,,"[""period""]",0,[1.0472000000002026],2,0,2,0,1,,
,,,,,,,,,,,,6066e9cfce4f74fe20aa3cad,47,Mężczyzna,2022-06-11_09h33.00.129,task,2021.1.4,Win32,59.60896519,6299f149e92ead563fba08ef,62a4450f4d4f0b27b9c0951a,,,,,,,,,,,,,,,,,,,,,,,,,,,,,,,,,,,,,,,,,,,,,,,,,,,,,,,,,,,,,,,,,,,,,,,,,,,,,,,,,,,,,,,,,,,,"[""period""]",0,[0.47220000000038453],3,0,3,0,1,,
,,,,,,,,,,,,6066e9cfce4f74fe20aa3cad,47,Mężczyzna,2022-06-11_09h33.00.129,task,2021.1.4,Win32,59.60896519,6299f149e92ead563fba08ef,62a4450f4d4f0b27b9c0951a,,,,,,,,,,,,,,,,,,,,,,,,,,,,,,,,,,,,,,,,,,,,,,,,,,,,,,,,,,,,,,,,,,,,,,,,,,,,,,,,,,,,,,,,,,,,"[""period""]",0,[0.5059999999998581],4,0,4,0,1,,
,,,,,,,,,,,,6066e9cfce4f74fe20aa3cad,47,Mężczyzna,2022-06-11_09h33.00.129,task,2021.1.4,Win32,59.60896519,6299f149e92ead563fba08ef,62a4450f4d4f0b27b9c0951a,,,,,,,,,,,,,,,,,,,,,,,,,,,,,,,,,,,,,,,,,,,,,,,,,,,,,,,,,,,,,,,,,,,,,,,,,,,,,,,,,,,,,,,,,,,,"[""comma""]",0,[0.3387999999997646],5,0,5,0,1,,
,,,,,,,,,,,,6066e9cfce4f74fe20aa3cad,47,Mężczyzna,2022-06-11_09h33.00.129,task,2021.1.4,Win32,59.60896519,6299f149e92ead563fba08ef,62a4450f4d4f0b27b9c0951a,,,,,,,,,,,,,,,,,,,,,,,,,,,,,,,,,,,,,,,,,,,,,,,,,,,,,,,,,,,,,,,,,,,,,,,,,,,,,,,,,,,,,,,,,,,,"[""period""]",0,[0.43840000000000146],6,0,6,0,1,,
,,,,,,,,,,,,6066e9cfce4f74fe20aa3cad,47,Mężczyzna,2022-06-11_09h33.00.129,task,2021.1.4,Win32,59.60896519,6299f149e92ead563fba08ef,62a4450f4d4f0b27b9c0951a,,,,,,,,,,,,,,,,,,,,,,,,,,,,,,,,,,,,,,,,,,,,,,,,,,,,,,,,,,,,,,,,,,,,,,,,,,,,,,,,,,,,,,,,,,,,"[""comma""]",0,[0.2979000000000269],7,0,7,0,1,,
,,,,,,,,,,,,6066e9cfce4f74fe20aa3cad,47,Mężczyzna,2022-06-11_09h33.00.129,task,2021.1.4,Win32,59.60896519,6299f149e92ead563fba08ef,62a4450f4d4f0b27b9c0951a,,,,,,,,,,,,,,,,,,,,,,,,,,,,,,,,,,,,,,,,,,,,,,,,,,,,,,,,,,,,,,,,,,,,,,,,,,,,,,,,,,,,,,,,,,,,"[""period""]",0,[0.7120999999995092],8,0,8,0,1,,
,,,,,,,,,,,,6066e9cfce4f74fe20aa3cad,47,Mężczyzna,2022-06-11_09h33.00.129,task,2021.1.4,Win32,59.60896519,6299f149e92ead563fba08ef,62a4450f4d4f0b27b9c0951a,,,,,,,,,,,,,,,,,,,,,,,,,,,,,,,,,,,,,,,,,,,,,,,,,,,,,,,,,,,,,,,,,,,,,,,,,,,,,,,,,,,,,,,,,,,,"[""period""]",0,[0.5052000000002863],9,0,9,0,1,,
,,,,,,,,,,,,6066e9cfce4f74fe20aa3cad,47,Mężczyzna,2022-06-11_09h33.00.129,task,2021.1.4,Win32,59.60896519,6299f149e92ead563fba08ef,62a4450f4d4f0b27b9c0951a,,,,,,,,,,,,,,,,,,,,,,,,,,,,,,,,,,,,,,,,,,,,,,,,,,,,,,,,,,,,,,,,,,,,,,,,,,,,,,,,,,,,,,,,,,,,"[""comma""]",0,[0.32589999999981956],10,0,10,0,1,,
,,,,,,,,,,,,6066e9cfce4f74fe20aa3cad,47,Mężczyzna,2022-06-11_09h33.00.129,task,2021.1.4,Win32,59.60896519,6299f149e92ead563fba08ef,62a4450f4d4f0b27b9c0951a,,,,,,,,,,,,,,,,,,,,,,,,,,,,,,,,,,,,,,,,,,,,,,,,,,,,,,,,,,,,,,,,,,,,,,,,,,,,,,,,,,,,,,,,,,,,"[""comma""]",0,[0.28700000000003456],11,0,11,0,1,,
,,,,,,,,,,,,6066e9cfce4f74fe20aa3cad,47,Mężczyzna,2022-06-11_09h33.00.129,task,2021.1.4,Win32,59.60896519,6299f149e92ead563fba08ef,62a4450f4d4f0b27b9c0951a,,,,,,,,,,,,,,,,,,,,,,,,,,,,,,,,,,,,,,,,,,,,,,,,,,,,,,,,,,,,,,,,,,,,,,,,,,,,,,,,,,,,,,,,,,,,"[""period""]",0,[0.20049999999991996],12,0,12,0,1,,
,,,,,,,,,,,,6066e9cfce4f74fe20aa3cad,47,Mężczyzna,2022-06-11_09h33.00.129,task,2021.1.4,Win32,59.60896519,6299f149e92ead563fba08ef,62a4450f4d4f0b27b9c0951a,,,,,,,,,,,,,,,,,,,,,,,,,,,,,,,,,,,,,,,,,,,,,,,,,,,,,,,,,,,,,,,,,,,,,,,,,,,,,,,,,,,,,,,,,,,,"[""comma""]",0,[0.3367999999998119],13,0,13,0,1,,
,,,,,,,,,,,,6066e9cfce4f74fe20aa3cad,47,Mężczyzna,2022-06-11_09h33.00.129,task,2021.1.4,Win32,59.60896519,6299f149e92ead563fba08ef,62a4450f4d4f0b27b9c0951a,,,,,,,,,,,,,,,,,,,,,,,,,,,,,,,,,,,,,,,,,,,,,,,,,,,,,,,,,,,,,,,,,,,,,,,,,,,,,,,,,,,,,,,,,,,,"[""comma""]",0,[0.4616000000000895],14,0,14,0,1,,
,,,,,,,,,,,,6066e9cfce4f74fe20aa3cad,47,Mężczyzna,2022-06-11_09h33.00.129,task,2021.1.4,Win32,59.60896519,6299f149e92ead563fba08ef,62a4450f4d4f0b27b9c0951a,,,,,,,,,,,,,,,,,,,,,,,,,,,,,,,,,,,,,,,,,,,,,,,,,,,,,,,,,,,,,,,,,,,,,,,,,,,,,,,,,,,,,,,,,,,,"[""period""]",0,[0.4981999999999971],15,0,15,0,1,,
,,,,,,,,,,,,6066e9cfce4f74fe20aa3cad,47,Mężczyzna,2022-06-11_09h33.00.129,task,2021.1.4,Win32,59.60896519,6299f149e92ead563fba08ef,62a4450f4d4f0b27b9c0951a,,,,,,,,,,,,,,,,,,,,,,,,,,,,,,,,,,,,,,,,,,,,,,,,,,,,,,,,,,,,,,,,,,,,,,,,,,,,,,,,,,,,,,,,,,,,"[""comma""]",0,[0.3528999999998632],16,0,16,0,1,,
,,,,,,,,,,,,6066e9cfce4f74fe20aa3cad,47,Mężczyzna,2022-06-11_09h33.00.129,task,2021.1.4,Win32,59.60896519,6299f149e92ead563fba08ef,62a4450f4d4f0b27b9c0951a,,,,,,,,,,,,,,,,,,,,,,,,,,,,,,,,,,,,,,,,,,,,,,,,,,,,,,,,,,,,,,,,,,,,,,,,,,,,,,,,,,,,,,,,,,,,"[""period""]",0,[0.4175000000000182],17,0,17,0,1,,
,,,,,,,,,,,,6066e9cfce4f74fe20aa3cad,47,Mężczyzna,2022-06-11_09h33.00.129,task,2021.1.4,Win32,59.60896519,6299f149e92ead563fba08ef,62a4450f4d4f0b27b9c0951a,,,,,,,,,,,,,,,,,,,,,,,,,,,,,,,,,,,,,,,,,,,,,,,,,,,,,,,,,,,,,,,,,,,,,,,,,,,,,,,,,,,,,,,,,,,,"[""comma""]",0,[0.29819999999972424],18,0,18,0,1,,
,,,,,,,,,,,,6066e9cfce4f74fe20aa3cad,47,Mężczyzna,2022-06-11_09h33.00.129,task,2021.1.4,Win32,59.60896519,6299f149e92ead563fba08ef,62a4450f4d4f0b27b9c0951a,,,,,,,,,,,,,,,,,,,,,,,,,,,,,,,,,,,,,,,,,,,,,,,,,,,,,,,,,,,,,,,,,,,,,,,,,,,,,,,,,,,,,,,,,,,,"[""comma""]",0,[0.32389999999986685],19,0,19,0,1,,
,,,,,,,,,,,,6066e9cfce4f74fe20aa3cad,47,Mężczyzna,2022-06-11_09h33.00.129,task,2021.1.4,Win32,59.60896519,6299f149e92ead563fba08ef,62a4450f4d4f0b27b9c0951a,,,,,,,,,,,,,,,,,,,,,,,,,,,,,,,,,,,,,,,,,,,,,,,,,,,,,,,,,,,,,,,,,,,,,,,,,,,,,,,,,,,,,,,,,,,,"[""period""]",0,[0.3369000000000142],20,0,20,0,1,,
,,,,,,,,,,,,6066e9cfce4f74fe20aa3cad,47,Mężczyzna,2022-06-11_09h33.00.129,task,2021.1.4,Win32,59.60896519,6299f149e92ead563fba08ef,62a4450f4d4f0b27b9c0951a,,,,,,,,,,,,,,,,,,,,,,,,,,,,,,,,,,,,,,,,,,,,,,,,,,,,,,,,,,,,,,,,,,,,,,,,,,,,,,,,,,,,,,,,,,,,"[""period""]",0,[0.3051999999997861],21,0,21,0,1,,
,,,,,,,,,,,,6066e9cfce4f74fe20aa3cad,47,Mężczyzna,2022-06-11_09h33.00.129,task,2021.1.4,Win32,59.60896519,6299f149e92ead563fba08ef,62a4450f4d4f0b27b9c0951a,,,,,,,,,,,,,,,,,,,,,,,,,,,,,,,,,,,,,,,,,,,,,,,,,,,,,,,,,,,,,,,,,,,,,,,,,,,,,,,,,,,,,,,,,,,,"[""comma""]",0,[0.33829999999966276],22,0,22,0,1,,
,,,,,,,,,,,,6066e9cfce4f74fe20aa3cad,47,Mężczyzna,2022-06-11_09h33.00.129,task,2021.1.4,Win32,59.60896519,6299f149e92ead563fba08ef,62a4450f4d4f0b27b9c0951a,,,,,,,,,,,,,,,,,,,,,,,,,,,,,,,,,,,,,,,,,,,,,,,,,,,,,,,,,,,,,,,,,,,,,,,,,,,,,,,,,,,,,,,,,,,,"[""period""]",0,[0.31110000000012406],23,0,23,0,1,,
,,,,,,,,,,,,6066e9cfce4f74fe20aa3cad,47,Mężczyzna,2022-06-11_09h33.00.129,task,2021.1.4,Win32,59.60896519,6299f149e92ead563fba08ef,62a4450f4d4f0b27b9c0951a,,,,,,,,,,,,,,,,,,,,,,,,,,,,,,,,,,,,,,,,,,,,,,,,,,,,,,,,,,,,,,,,,,,,,,,,,,,,,,,,,,,,,,,,,,,,"[""comma""]",0,[0.37180000000012114],24,0,24,0,1,,
,,,,,,,,,,,,6066e9cfce4f74fe20aa3cad,47,Mężczyzna,2022-06-11_09h33.00.129,task,2021.1.4,Win32,59.60896519,6299f149e92ead563fba08ef,62a4450f4d4f0b27b9c0951a,,,,,,,,,,,,,,,,,,,,,,,,,,,,,,,,,,,,,,,,,,,,,,,,,,,,,,,,,,,,,,,,,,,,,,,,,,,,,,,,,,,,,,,,,,,,"[""period""]",0,[0.3133999999997741],25,0,25,0,1,,
,,,,,,,,,,,,6066e9cfce4f74fe20aa3cad,47,Mężczyzna,2022-06-11_09h33.00.129,task,2021.1.4,Win32,59.60896519,6299f149e92ead563fba08ef,62a4450f4d4f0b27b9c0951a,,,,,,,,,,,,,,,,,,,,,,,,,,,,,,,,,,,,,,,,,,,,,,,,,,,,,,,,,,,,,,,,,,,,,,,,,,,,,,,,,,,,,,,,,,,,"[""comma""]",0,[0.11059999999974934],26,0,26,0,1,,
,,,,,,,,,,,,6066e9cfce4f74fe20aa3cad,47,Mężczyzna,2022-06-11_09h33.00.129,task,2021.1.4,Win32,59.60896519,6299f149e92ead563fba08ef,62a4450f4d4f0b27b9c0951a,,,,,,,,,,,,,,,,,,,,,,,,,,,,,,,,,,,,,,,,,,,,,,,,,,,,,,,,,,,,,,,,,,,,,,,,,,,,,,,,,,,,,,,,,,,,"[""comma""]",0,[0.07780000000025211],27,0,27,0,1,,
,,,,,,,,,,,,6066e9cfce4f74fe20aa3cad,47,Mężczyzna,2022-06-11_09h33.00.129,task,2021.1.4,Win32,59.60896519,6299f149e92ead563fba08ef,62a4450f4d4f0b27b9c0951a,,,,,,,,,,,,,,,,,,,,,,,,,,,,,,,,,,,,,,,,,,,,,,,,,,,,,,,,,,,,,,,,,,,,,,,,,,,,,,,,,,,,,,,,,,,,"[""comma""]",0,[0.3122000000000753],28,0,28,0,1,,
,,,,,,,,,,,,6066e9cfce4f74fe20aa3cad,47,Mężczyzna,2022-06-11_09h33.00.129,task,2021.1.4,Win32,59.60896519,6299f149e92ead563fba08ef,62a4450f4d4f0b27b9c0951a,,,,,,,,,,,,,,,,,,,,,,,,,,,,,,,,,,,,,,,,,,,,,,,,,,,,,,,,,,,,,,,,,,,,,,,,,,,,,,,,,,,,,,,,,,,,"[""period""]",0,[0.2615000000000691],29,0,29,0,1,,
,,,,,,,,,,,,6066e9cfce4f74fe20aa3cad,47,Mężczyzna,2022-06-11_09h33.00.129,task,2021.1.4,Win32,59.60896519,6299f149e92ead563fba08ef,62a4450f4d4f0b27b9c0951a,,,,,,,,,,,,,,,,,,,,,,,,,,,,,,,,,,,,,,,,,,,,,,,,,,,,,,,,,,,,,,,,,,,,,,,,,,,,,,,,,,,,,,,,,,,,"[""comma""]",0,[0.3243000000002212],30,0,30,0,1,,
,,,,,,,,,,,,6066e9cfce4f74fe20aa3cad,47,Mężczyzna,2022-06-11_09h33.00.129,task,2021.1.4,Win32,59.60896519,6299f149e92ead563fba08ef,62a4450f4d4f0b27b9c0951a,,,,,,,,,,,,,,,,,,,,,,,,,,,,,,,,,,,,,,,,,,,,,,,,,,,,,,,,,,,,,,,,,,,,,,,,,,,,,,,,,,,,,,,,,,,,"[""period""]",0,[0.3585000000000491],31,0,31,0,1,,
,,,,,,,,,,,,6066e9cfce4f74fe20aa3cad,47,Mężczyzna,2022-06-11_09h33.00.129,task,2021.1.4,Win32,59.60896519,6299f149e92ead563fba08ef,62a4450f4d4f0b27b9c0951a,,,,,,,,,,,,,,,,,,,,,,,,,,,,,,,,,,,,,,,,,,,,,,,,,,,,,,,,,,,,,,,,,,,,,,,,,,,,,,,,,,,,,,,,,,,,"[""period""]",0,[0.3040000000000873],32,0,32,0,1,,
,,,,,,,,,,,,6066e9cfce4f74fe20aa3cad,47,Mężczyzna,2022-06-11_09h33.00.129,task,2021.1.4,Win32,59.60896519,6299f149e92ead563fba08ef,62a4450f4d4f0b27b9c0951a,,,,,,,,,,,,,,,,,,,,,,,,,,,,,,,,,,,,,,,,,,,,,,,,,,,,,,,,,,,,,,,,,,,,,,,,,,,,,,,,,,,,,,,,,,,,"[""comma""]",0,[0.3025000000000091],33,0,33,0,1,,
,,,,,,,,,,,,6066e9cfce4f74fe20aa3cad,47,Mężczyzna,2022-06-11_09h33.00.129,task,2021.1.4,Win32,59.60896519,6299f149e92ead563fba08ef,62a4450f4d4f0b27b9c0951a,,,,,,,,,,,,,,,,,,,,,,,,,,,,,,,,,,,,,,,,,,,,,,,,,,,,,,,,,,,,,,,,,,,,,,,,,,,,,,,,,,,,,,,,,,,,"[""period""]",0,[0.3037000000001626],34,0,34,0,1,,
,,,,,,,,,,,,6066e9cfce4f74fe20aa3cad,47,Mężczyzna,2022-06-11_09h33.00.129,task,2021.1.4,Win32,59.60896519,6299f149e92ead563fba08ef,62a4450f4d4f0b27b9c0951a,,,,,,,,,,,,,,,,,,,,,,,,,,,,,,,,,,,,,,,,,,,,,,,,,,,,,,,,,,,,,,,,,,,,,,,,,,,,,,,,,,,,,,,,,,,,"[""comma""]",0,[0.3251999999997679],35,0,35,0,1,,
,,,,,,,,,,,,6066e9cfce4f74fe20aa3cad,47,Mężczyzna,2022-06-11_09h33.00.129,task,2021.1.4,Win32,59.60896519,6299f149e92ead563fba08ef,62a4450f4d4f0b27b9c0951a,,,,,,,,,,,,,,,,,,,,,,,,,,,,,,,,,,,,,,,,,,,,,,,,,,,,,,,,,,,,,,,,,,,,,,,,,,,,,,,,,,,,,,,,,,,,"[""comma""]",0,[0.2771000000002459],36,0,36,0,1,,
,,,,,,,,,,,,6066e9cfce4f74fe20aa3cad,47,Mężczyzna,2022-06-11_09h33.00.129,task,2021.1.4,Win32,59.60896519,6299f149e92ead563fba08ef,62a4450f4d4f0b27b9c0951a,,,,,,,,,,,,,,,,,,,,,,,,,,,,,,,,,,,,,,,,,,,,,,,,,,,,,,,,,,,,,,,,,,,,,,,,,,,,,,,,,,,,,,,,,,,,"[""period""]",0,[0.33400000000006],37,0,37,0,1,,
,,,,,,,,,,,,6066e9cfce4f74fe20aa3cad,47,Mężczyzna,2022-06-11_09h33.00.129,task,2021.1.4,Win32,59.60896519,6299f149e92ead563fba08ef,62a4450f4d4f0b27b9c0951a,,,,,,,,,,,,,,,,,,,,,,,,,,,,,,,,,,,,,,,,,,,,,,,,,,,,,,,,,,,,,,,,,,,,,,,,,,,,,,,,,,,,,,,,,,,,"[""comma""]",0,[0.31530000000020664],38,0,38,0,1,,
,,,,,,,,,,,,6066e9cfce4f74fe20aa3cad,47,Mężczyzna,2022-06-11_09h33.00.129,task,2021.1.4,Win32,59.60896519,6299f149e92ead563fba08ef,62a4450f4d4f0b27b9c0951a,,,,,,,,,,,,,,,,,,,,,,,,,,,,,,,,,,,,,,,,,,,,,,,,,,,,,,,,,,,,,,,,,,,,,,,,,,,,,,,,,,,,,,,,,,,,"[""period""]",0,[0.38820000000009713],39,0,39,0,1,,
,,,,,,,,,,,,6066e9cfce4f74fe20aa3cad,47,Mężczyzna,2022-06-11_09h33.00.129,task,2021.1.4,Win32,59.60896519,6299f149e92ead563fba08ef,62a4450f4d4f0b27b9c0951a,,,,,,,,,,,,,,,,,,,,,,,,,,,,,,,,,,,,,,,,,,,,,,,,,,,,,,,,,,,,,,,,,,,,,,,,,,,,,,,,,,,,,,,,,,,,"[""comma""]",0,[0.27700000000004366],40,0,40,0,1,,
,,,,,,,,,,,,6066e9cfce4f74fe20aa3cad,47,Mężczyzna,2022-06-11_09h33.00.129,task,2021.1.4,Win32,59.60896519,6299f149e92ead563fba08ef,62a4450f4d4f0b27b9c0951a,,,,,,,,,,,,,,,,,,,,,,,,,,,,,,,,,,,,,,,,,,,,,,,,,,,,,,,,,,,,,,,,,,,,,,,,,,,,,,,,,,,,,,,,,,,,"[""period""]",0,[0.3140000000000782],41,0,41,0,1,,
,,,,,,,,,,,,6066e9cfce4f74fe20aa3cad,47,Mężczyzna,2022-06-11_09h33.00.129,task,2021.1.4,Win32,59.60896519,6299f149e92ead563fba08ef,62a4450f4d4f0b27b9c0951a,,,,,,,,,,,,,,,,,,,,,,,,,,,,,,,,,,,,,,,,,,,,,,,,,,,,,,,,,,,,,,,,,,,,,,,,,,,,,,,,,,,,,,,,,,,,"[""period""]",0,[0.24250000000006366],42,0,42,0,1,,
,,,,,,,,,,,,6066e9cfce4f74fe20aa3cad,47,Mężczyzna,2022-06-11_09h33.00.129,task,2021.1.4,Win32,59.60896519,6299f149e92ead563fba08ef,62a4450f4d4f0b27b9c0951a,,,,,,,,,,,,,,,,,,,,,,,,,,,,,,,,,,,,,,,,,,,,,,,,,,,,,,,,,,,,,,,,,,,,,,,,,,,,,,,,,,,,,,,,,,,,"[""period""]",0,[0.15729999999962274],43,0,43,0,1,,
,,,,,,,,,,,,6066e9cfce4f74fe20aa3cad,47,Mężczyzna,2022-06-11_09h33.00.129,task,2021.1.4,Win32,59.60896519,6299f149e92ead563fba08ef,62a4450f4d4f0b27b9c0951a,,,,,,,,,,,,,,,,,,,,,,,,,,,,,,,,,,,,,,,,,,,,,,,,,,,,,,,,,,,,,,,,,,,,,,,,,,,,,,,,,,,,,,,,,,,,"[""period""]",0,[0.06760000000008404],44,0,44,0,1,,
,,,,,,,,,,,,6066e9cfce4f74fe20aa3cad,47,Mężczyzna,2022-06-11_09h33.00.129,task,2021.1.4,Win32,59.60896519,6299f149e92ead563fba08ef,62a4450f4d4f0b27b9c0951a,,,,,,,,,,,,,,,,,,,,,,,,,,,,,,,,,,,,,,,,,,,,,,,,,,,,,,,,,,,,,,,,,,,,,,,,,,,,,,,,,,,,,,,,,,,,"[""comma""]",0,[0.0638000000003558],45,0,45,0,1,,
,,,,,,,,,,,,6066e9cfce4f74fe20aa3cad,47,Mężczyzna,2022-06-11_09h33.00.129,task,2021.1.4,Win32,59.60896519,6299f149e92ead563fba08ef,62a4450f4d4f0b27b9c0951a,,,,,,,,,,,,,,,,,,,,,,,,,,,,,,,,,,,,,,,,,,,,,,,,,,,,,,,,,,,,,,,,,,,,,,,,,,,,,,,,,,,,,,,,,,,,"[""comma""]",0,[0.3465000000001055],46,0,46,0,1,,
,,,,,,,,,,,,6066e9cfce4f74fe20aa3cad,47,Mężczyzna,2022-06-11_09h33.00.129,task,2021.1.4,Win32,59.60896519,6299f149e92ead563fba08ef,62a4450f4d4f0b27b9c0951a,,,,,,,,,,,,,,,,,,,,,,,,,,,,,,,,,,,,,,,,,,,,,,,,,,,,,,,,,,,,,,,,,,,,,,,,,,,,,,,,,,,,,,,,,,,,"[""comma""]",0,[0.43420000000014625],47,0,47,0,1,,
,,,,,,,,,,,,6066e9cfce4f74fe20aa3cad,47,Mężczyzna,2022-06-11_09h33.00.129,task,2021.1.4,Win32,59.60896519,6299f149e92ead563fba08ef,62a4450f4d4f0b27b9c0951a,,,,,,,,,,,,,,,,,,,,,,,,,,,,,,,,,,,,,,,,,,,,,,,,,,,,,,,,,,,,,,,,,,,,,,,,,,,,,,,,,,,,,,,,,,,,"[""period""]",0,[0.3669999999999618],48,0,48,0,1,,
,,,,,,,,,,,,6066e9cfce4f74fe20aa3cad,47,Mężczyzna,2022-06-11_09h33.00.129,task,2021.1.4,Win32,59.60896519,6299f149e92ead563fba08ef,62a4450f4d4f0b27b9c0951a,,,,,,,,,,,,,,,,,,,,,,,,,,,,,,,,,,,,,,,,,,,,,,,,,,,,,,,,,,,,,,,,,,,,,,,,,,,,,,,,,,,,,,,,,,,,"[""comma""]",0,[0.2921000000001186],49,0,49,0,1,,
,,,,,,,,,,,,6066e9cfce4f74fe20aa3cad,47,Mężczyzna,2022-06-11_09h33.00.129,task,2021.1.4,Win32,59.60896519,6299f149e92ead563fba08ef,62a4450f4d4f0b27b9c0951a,,,,,,,,,,,,,,,,,,,,,,,,,,,,,,,,,,,,,,,,,,,,,,,,,,,,,,,,,,,,,,,,,,,,,,,,,,,,,,,,,,,,,,,,,,,,"[""period""]",0,[0.3304000000000542],50,0,50,0,1,,
,,,,,,,,,,,,6066e9cfce4f74fe20aa3cad,47,Mężczyzna,2022-06-11_09h33.00.129,task,2021.1.4,Win32,59.60896519,6299f149e92ead563fba08ef,62a4450f4d4f0b27b9c0951a,,,,,,,,,,,,,,,,,,,,,,,,,,,,,,,,,,,,,,,,,,,,,,,,,,,,,,,,,,,,,,,,,,,,,,,,,,,,,,,,,,,,,,,,,,,,"[""period""]",0,[0.3072999999997137],51,0,51,0,1,,
,,,,,,,,,,,,6066e9cfce4f74fe20aa3cad,47,Mężczyzna,2022-06-11_09h33.00.129,task,2021.1.4,Win32,59.60896519,6299f149e92ead563fba08ef,62a4450f4d4f0b27b9c0951a,,,,,,,,,,,,,,,,,,,,,,,,,,,,,,,,,,,,,,,,,,,,,,,,,,,,,,,,,,,,,,,,,,,,,,,,,,,,,,,,,,,,,,,,,,,,"[""comma""]",0,[0.550199999999677],52,0,52,0,1,,
,,,,,,,,,,,,6066e9cfce4f74fe20aa3cad,47,Mężczyzna,2022-06-11_09h33.00.129,task,2021.1.4,Win32,59.60896519,6299f149e92ead563fba08ef,62a4450f4d4f0b27b9c0951a,,,,,,,,,,,,,,,,,,,,,,,,,,,,,,,,,,,,,,,,,,,,,,,,,,,,,,,,,,,,,,,,,,,,,,,,,,,,,,,,,,,,,,,,,,,,"[""period""]",0,[0.15639999999984866],53,0,53,0,1,,
,,,,,,,,,,,,6066e9cfce4f74fe20aa3cad,47,Mężczyzna,2022-06-11_09h33.00.129,task,2021.1.4,Win32,59.60896519,6299f149e92ead563fba08ef,62a4450f4d4f0b27b9c0951a,,,,,,,,,,,,,,,,,,,,,,,,,,,,,,,,,,,,,,,,,,,,,,,,,,,,,,,,,,,,,,,,,,,,,,,,,,,,,,,,,,,,,,,,,,,,"[""comma""]",0,[0.2510999999997239],54,0,54,0,1,,
,,,,,,,,,,,,6066e9cfce4f74fe20aa3cad,47,Mężczyzna,2022-06-11_09h33.00.129,task,2021.1.4,Win32,59.60896519,6299f149e92ead563fba08ef,62a4450f4d4f0b27b9c0951a,,,,,,,,,,,,,,,,,,,,,,,,,,,,,,,,,,,,,,,,,,,,,,,,,,,,,,,,,,,,,,,,,,,,,,,,,,,,,,,,,,,,,,,,,,,,"[""comma""]",0,[0.16879999999991924],55,0,55,0,1,,
,,,,,,,,,,,,6066e9cfce4f74fe20aa3cad,47,Mężczyzna,2022-06-11_09h33.00.129,task,2021.1.4,Win32,59.60896519,6299f149e92ead563fba08ef,62a4450f4d4f0b27b9c0951a,,,,,,,,,,,,,,,,,,,,,,,,,,,,,,,,,,,,,,,,,,,,,,,,,,,,,,,,,,,,,,,,,,,,,,,,,,,,,,,,,,,,,,,,,,,,"[""period""]",0,[0.33360000000016043],56,0,56,0,1,,
,,,,,,,,,,,,6066e9cfce4f74fe20aa3cad,47,Mężczyzna,2022-06-11_09h33.00.129,task,2021.1.4,Win32,59.60896519,6299f149e92ead563fba08ef,62a4450f4d4f0b27b9c0951a,,,,,,,,,,,,,,,,,,,,,,,,,,,,,,,,,,,,,,,,,,,,,,,,,,,,,,,,,,,,,,,,,,,,,,,,,,,,,,,,,,,,,,,,,,,,"[""comma""]",0,[0.300499999999829],57,0,57,0,1,,
,,,,,,,,,,,,6066e9cfce4f74fe20aa3cad,47,Mężczyzna,2022-06-11_09h33.00.129,task,2021.1.4,Win32,59.60896519,6299f149e92ead563fba08ef,62a4450f4d4f0b27b9c0951a,,,,,,,,,,,,,,,,,,,,,,,,,,,,,,,,,,,,,,,,,,,,,,,,,,,,,,,,,,,,,,,,,,,,,,,,,,,,,,,,,,,,,,,,,,,,"[""period""]",0,[0.45010000000024775],58,0,58,0,1,,
,,,,,,,,,,,,6066e9cfce4f74fe20aa3cad,47,Mężczyzna,2022-06-11_09h33.00.129,task,2021.1.4,Win32,59.60896519,6299f149e92ead563fba08ef,62a4450f4d4f0b27b9c0951a,,,,,,,,,,,,,,,,,,,,,,,,,,,,,,,,,,,,,,,,,,,,,,,,,,,,,,,,,,,,,,,,,,,,,,,,,,,,,,,,,,,,,,,,,,,,"[""comma""]",0,[0.3167999999998301],59,0,59,0,1,,
,,,,,,,,,,,,6066e9cfce4f74fe20aa3cad,47,Mężczyzna,2022-06-11_09h33.00.129,task,2021.1.4,Win32,59.60896519,6299f149e92ead563fba08ef,62a4450f4d4f0b27b9c0951a,,,,,,,,,,,,,,,,,,,,,,,,,,,,,,,,,,,,,,,,,,,,,,,,,,,,,,,,,,,,,,,,,,,,,,,,,,,,,,,,,,,,,,,,,,,,"[""period""]",0,[0.46679999999992106],60,0,60,0,1,,
,,,,,,,,,,,,6066e9cfce4f74fe20aa3cad,47,Mężczyzna,2022-06-11_09h33.00.129,task,2021.1.4,Win32,59.60896519,6299f149e92ead563fba08ef,62a4450f4d4f0b27b9c0951a,,,,,,,,,,,,,,,,,,,,,,,,,,,,,,,,,,,,,,,,,,,,,,,,,,,,,,,,,,,,,,,,,,,,,,,,,,,,,,,,,,,,,,,,,,,,"[""comma""]",0,[0.35360000000014224],61,0,61,0,1,,
,,,,,,,,,,,,6066e9cfce4f74fe20aa3cad,47,Mężczyzna,2022-06-11_09h33.00.129,task,2021.1.4,Win32,59.60896519,6299f149e92ead563fba08ef,62a4450f4d4f0b27b9c0951a,,,,,,,,,,,,,,,,,,,,,,,,,,,,,,,,,,,,,,,,,,,,,,,,,,,,,,,,,,,,,,,,,,,,,,,,,,,,,,,,,,,,,,,,,,,,"[""comma""]",0,[0.12460000000010041],62,0,62,0,1,,
,,,,,,,,,,,,6066e9cfce4f74fe20aa3cad,47,Mężczyzna,2022-06-11_09h33.00.129,task,2021.1.4,Win32,59.60896519,6299f149e92ead563fba08ef,62a4450f4d4f0b27b9c0951a,,,,,,,,,,,,,,,,,,,,,,,,,,,,,,,,,,,,,,,,,,,,,,,,,,,,,,,,,,,,,,,,,,,,,,,,,,,,,,,,,,,,,,,,,,,,"[""period""]",0,[0.18370000000027176],63,0,63,0,1,,
