key_resp_15.keys,key_resp_15.rt,key_resp_16.keys,key_resp_16.rt,key_resp_4.keys,key_resp_4.rt,next_letter.thisRepN,next_letter.thisTrialN,next_letter.thisN,next_letter.thisIndex,next_letter.ran,letter,participant,Wiek*,Płeć,date,expName,psychopyVersion,OS,frameRate,study_id,session,simple_recall,key_resp_5.keys,key_resp_5.rt,simple_recall_corr,simple_recall_corrkeys,next_level.thisRepN,next_level.thisTrialN,next_level.thisN,next_level.thisIndex,next_level.ran,key_resp_2.keys,key_resp_2.rt,digit_answer,key_resp.keys,key_resp.corr,key_resp.rt,RT_list,next_equation.thisRepN,next_equation.thisTrialN,next_equation.thisN,next_equation.thisIndex,next_equation.ran,Task,Trial,Problem,Operation_answer,processing_score,sumRT,meanRT,sumdiff,sd,RT,key_resp_3.keys,key_resp_3.rt,repeat_practice.thisRepN,repeat_practice.thisTrialN,repeat_practice.thisN,repeat_practice.thisIndex,repeat_practice.ran,key_resp_6.keys,key_resp_6.rt,key_resp_11.keys,key_resp_11.corr,key_resp_11.rt,operation_correct,repeat_if_wrong_prac.thisRepN,repeat_if_wrong_prac.thisTrialN,repeat_if_wrong_prac.thisN,repeat_if_wrong_prac.thisIndex,repeat_if_wrong_prac.ran,span_size_prac.thisRepN,span_size_prac.thisTrialN,span_size_prac.thisN,span_size_prac.thisIndex,span_size_prac.ran,complex_recall_practice,key_resp_9.keys,key_resp_9.corr,key_resp_9.rt,complex_prac_corr,span_recall_prac.thisRepN,span_recall_prac.thisTrialN,span_recall_prac.thisN,span_recall_prac.thisIndex,span_recall_prac.ran,key_resp_10.keys,key_resp_10.rt,key_resp_7.keys,key_resp_7.corr,repeat_if_wrong.thisRepN,repeat_if_wrong.thisTrialN,repeat_if_wrong.thisN,repeat_if_wrong.thisIndex,repeat_if_wrong.ran,key_resp_7.rt,span_size.thisRepN,span_size.thisTrialN,span_size.thisN,span_size.thisIndex,span_size.ran,complex_recall,key_resp_8.keys,key_resp_8.corr,key_resp_8.rt,complex_recall_corr,complex_recall_corrkeys,span_recall.thisRepN,span_recall.thisTrialN,span_recall.thisN,span_recall.thisIndex,span_recall.ran,key_resp_13.keys,key_resp_13.corr,random_loop.thisRepN,random_loop.thisTrialN,random_loop.thisN,random_loop.thisIndex,random_loop.ran,key_resp_13.rt,key_resp_12.keys,key_resp_12.rt
space,7.5466,space,16.8459,space,7.1244,0,0,0,0,1,X V Q F H G B L J M P D K C T S W R N Z,606c8251cc2f9b7aa4224814,53,Kobieta,2022-06-11_08h31.26.366,task,2021.1.4,Win32,59.22416346,6299f149e92ead563fba08ef,62a4426628846c6c07142dba,,,,,,,,,,,,,,,,,,,,,,,,,,,,,,,,,,,,,,,,,,,,,,,,,,,,,,,,,,,,,,,,,,,,,,,,,,,,,,,,,,,,,,,,,,,,,,,,,,,,,
,,,,,,1,0,1,0,1,X V Q F H G B L J M P D K C T S W R N Z,606c8251cc2f9b7aa4224814,53,Kobieta,2022-06-11_08h31.26.366,task,2021.1.4,Win32,59.22416346,6299f149e92ead563fba08ef,62a4426628846c6c07142dba,,,,,,,,,,,,,,,,,,,,,,,,,,,,,,,,,,,,,,,,,,,,,,,,,,,,,,,,,,,,,,,,,,,,,,,,,,,,,,,,,,,,,,,,,,,,,,,,,,,,,
,,,,,,,,,,,,606c8251cc2f9b7aa4224814,53,Kobieta,2022-06-11_08h31.26.366,task,2021.1.4,Win32,59.22416346,6299f149e92ead563fba08ef,62a4426628846c6c07142dba,zf,"[""z"",""f""]","[5.869700000047686,7.7135000000000105,11.075799999952324]",1,ZF,0,0,0,0,1,,,,,,,,,,,,,,,,,,,,,,,,,,,,,,,,,,,,,,,,,,,,,,,,,,,,,,,,,,,,,,,,,,,,,,,,,,,,,,,,,,,,,,,,,,,
,,,,,,0,0,0,0,1,X V Q F H G B L J M P D K C T S W R N Z,606c8251cc2f9b7aa4224814,53,Kobieta,2022-06-11_08h31.26.366,task,2021.1.4,Win32,59.22416346,6299f149e92ead563fba08ef,62a4426628846c6c07142dba,,,,,,,,,,,,,,,,,,,,,,,,,,,,,,,,,,,,,,,,,,,,,,,,,,,,,,,,,,,,,,,,,,,,,,,,,,,,,,,,,,,,,,,,,,,,,,,,,,,,,
,,,,,,1,0,1,0,1,X V Q F H G B L J M P D K C T S W R N Z,606c8251cc2f9b7aa4224814,53,Kobieta,2022-06-11_08h31.26.366,task,2021.1.4,Win32,59.22416346,6299f149e92ead563fba08ef,62a4426628846c6c07142dba,,,,,,,,,,,,,,,,,,,,,,,,,,,,,,,,,,,,,,,,,,,,,,,,,,,,,,,,,,,,,,,,,,,,,,,,,,,,,,,,,,,,,,,,,,,,,,,,,,,,,
,,,,,,,,,,,,606c8251cc2f9b7aa4224814,53,Kobieta,2022-06-11_08h31.26.366,task,2021.1.4,Win32,59.22416346,6299f149e92ead563fba08ef,62a4426628846c6c07142dba,gc,"[""g"",""c""]","[2.652200000047685,2.6700000000000017,3.4337999999523134]",1,GC,1,0,1,0,1,,,,,,,,,,,,,,,,,,,,,,,,,,,,,,,,,,,,,,,,,,,,,,,,,,,,,,,,,,,,,,,,,,,,,,,,,,,,,,,,,,,,,,,,,,,
,,,,,,0,0,0,0,1,X V Q F H G B L J M P D K C T S W R N Z,606c8251cc2f9b7aa4224814,53,Kobieta,2022-06-11_08h31.26.366,task,2021.1.4,Win32,59.22416346,6299f149e92ead563fba08ef,62a4426628846c6c07142dba,,,,,,,,,,,,,,,,,,,,,,,,,,,,,,,,,,,,,,,,,,,,,,,,,,,,,,,,,,,,,,,,,,,,,,,,,,,,,,,,,,,,,,,,,,,,,,,,,,,,,
,,,,,,1,0,1,0,1,X V Q F H G B L J M P D K C T S W R N Z,606c8251cc2f9b7aa4224814,53,Kobieta,2022-06-11_08h31.26.366,task,2021.1.4,Win32,59.22416346,6299f149e92ead563fba08ef,62a4426628846c6c07142dba,,,,,,,,,,,,,,,,,,,,,,,,,,,,,,,,,,,,,,,,,,,,,,,,,,,,,,,,,,,,,,,,,,,,,,,,,,,,,,,,,,,,,,,,,,,,,,,,,,,,,
,,,,,,2,0,2,0,1,X V Q F H G B L J M P D K C T S W R N Z,606c8251cc2f9b7aa4224814,53,Kobieta,2022-06-11_08h31.26.366,task,2021.1.4,Win32,59.22416346,6299f149e92ead563fba08ef,62a4426628846c6c07142dba,,,,,,,,,,,,,,,,,,,,,,,,,,,,,,,,,,,,,,,,,,,,,,,,,,,,,,,,,,,,,,,,,,,,,,,,,,,,,,,,,,,,,,,,,,,,,,,,,,,,,
,,,,,,,,,,,,606c8251cc2f9b7aa4224814,53,Kobieta,2022-06-11_08h31.26.366,task,2021.1.4,Win32,59.22416346,6299f149e92ead563fba08ef,62a4426628846c6c07142dba,,[],[1.1527999999523217],0,FGN,2,0,2,0,1,,,,,,,,,,,,,,,,,,,,,,,,,,,,,,,,,,,,,,,,,,,,,,,,,,,,,,,,,,,,,,,,,,,,,,,,,,,,,,,,,,,,,,,,,,,
,,,,,,0,0,0,0,1,X V Q F H G B L J M P D K C T S W R N Z,606c8251cc2f9b7aa4224814,53,Kobieta,2022-06-11_08h31.26.366,task,2021.1.4,Win32,59.22416346,6299f149e92ead563fba08ef,62a4426628846c6c07142dba,,,,,,,,,,,,,,,,,,,,,,,,,,,,,,,,,,,,,,,,,,,,,,,,,,,,,,,,,,,,,,,,,,,,,,,,,,,,,,,,,,,,,,,,,,,,,,,,,,,,,
,,,,,,1,0,1,0,1,X V Q F H G B L J M P D K C T S W R N Z,606c8251cc2f9b7aa4224814,53,Kobieta,2022-06-11_08h31.26.366,task,2021.1.4,Win32,59.22416346,6299f149e92ead563fba08ef,62a4426628846c6c07142dba,,,,,,,,,,,,,,,,,,,,,,,,,,,,,,,,,,,,,,,,,,,,,,,,,,,,,,,,,,,,,,,,,,,,,,,,,,,,,,,,,,,,,,,,,,,,,,,,,,,,,
,,,,,,2,0,2,0,1,X V Q F H G B L J M P D K C T S W R N Z,606c8251cc2f9b7aa4224814,53,Kobieta,2022-06-11_08h31.26.366,task,2021.1.4,Win32,59.22416346,6299f149e92ead563fba08ef,62a4426628846c6c07142dba,,,,,,,,,,,,,,,,,,,,,,,,,,,,,,,,,,,,,,,,,,,,,,,,,,,,,,,,,,,,,,,,,,,,,,,,,,,,,,,,,,,,,,,,,,,,,,,,,,,,,
,,,,,,,,,,,,606c8251cc2f9b7aa4224814,53,Kobieta,2022-06-11_08h31.26.366,task,2021.1.4,Win32,59.22416346,6299f149e92ead563fba08ef,62a4426628846c6c07142dba,f,"[""f""]","[0.7510999999046248,1.2023999998569508]",0,QFT,3,0,3,0,1,,,,,,,,,,,,,,,,,,,,,,,,,,,,,,,,,,,,,,,,,,,,,,,,,,,,,,,,,,,,,,,,,,,,,,,,,,,,,,,,,,,,,,,,,,,
,,,,,,0,0,0,0,1,X V Q F H G B L J M P D K C T S W R N Z,606c8251cc2f9b7aa4224814,53,Kobieta,2022-06-11_08h31.26.366,task,2021.1.4,Win32,59.22416346,6299f149e92ead563fba08ef,62a4426628846c6c07142dba,,,,,,,,,,,,,,,,,,,,,,,,,,,,,,,,,,,,,,,,,,,,,,,,,,,,,,,,,,,,,,,,,,,,,,,,,,,,,,,,,,,,,,,,,,,,,,,,,,,,,
,,,,,,1,0,1,0,1,X V Q F H G B L J M P D K C T S W R N Z,606c8251cc2f9b7aa4224814,53,Kobieta,2022-06-11_08h31.26.366,task,2021.1.4,Win32,59.22416346,6299f149e92ead563fba08ef,62a4426628846c6c07142dba,,,,,,,,,,,,,,,,,,,,,,,,,,,,,,,,,,,,,,,,,,,,,,,,,,,,,,,,,,,,,,,,,,,,,,,,,,,,,,,,,,,,,,,,,,,,,,,,,,,,,
,,,,,,2,0,2,0,1,X V Q F H G B L J M P D K C T S W R N Z,606c8251cc2f9b7aa4224814,53,Kobieta,2022-06-11_08h31.26.366,task,2021.1.4,Win32,59.22416346,6299f149e92ead563fba08ef,62a4426628846c6c07142dba,,,,,,,,,,,,,,,,,,,,,,,,,,,,,,,,,,,,,,,,,,,,,,,,,,,,,,,,,,,,,,,,,,,,,,,,,,,,,,,,,,,,,,,,,,,,,,,,,,,,,
,,,,,,,,,,,,606c8251cc2f9b7aa4224814,53,Kobieta,2022-06-11_08h31.26.366,task,2021.1.4,Win32,59.22416346,6299f149e92ead563fba08ef,62a4426628846c6c07142dba,fmkw,"[""f"",""m"",""k"",""w""]","[4.793299999952325,5.436899999856962,6.242700000047677,6.697700000047689,7.674399999856945]",0,MKW,4,0,4,0,1,,,,,,,,,,,,,,,,,,,,,,,,,,,,,,,,,,,,,,,,,,,,,,,,,,,,,,,,,,,,,,,,,,,,,,,,,,,,,,,,,,,,,,,,,,,
,,,,,,,,,,,,606c8251cc2f9b7aa4224814,53,Kobieta,2022-06-11_08h31.26.366,task,2021.1.4,Win32,59.22416346,6299f149e92ead563fba08ef,62a4426628846c6c07142dba,,,,,,,,,,,space,14.1878,6,"[""6""]",1,[11.700600000143055],[11.700600000143055],0,0,0,6,1,Practice,7,(25/5) + 1,6,,,,,,,,,,,,,,,,,,,,,,,,,,,,,,,,,,,,,,,,,,,,,,,,,,,,,,,,,,,,,,,,,,,,,,,,,,,
,,,,,,,,,,,,606c8251cc2f9b7aa4224814,53,Kobieta,2022-06-11_08h31.26.366,task,2021.1.4,Win32,59.22416346,6299f149e92ead563fba08ef,62a4426628846c6c07142dba,,,,,,,,,,,,,0,"[""0""]",1,[3.3267999999523],"[11.700600000143055,3.3267999999523]",0,1,1,0,1,Practice,1,(3x3) -  9,0,,,,,,,,,,,,,,,,,,,,,,,,,,,,,,,,,,,,,,,,,,,,,,,,,,,,,,,,,,,,,,,,,,,,,,,,,,,
,,,,,,,,,,,,606c8251cc2f9b7aa4224814,53,Kobieta,2022-06-11_08h31.26.366,task,2021.1.4,Win32,59.22416346,6299f149e92ead563fba08ef,62a4426628846c6c07142dba,,,,,,,,,,,,,8,"[""8""]",1,[3.5352000000476664],"[11.700600000143055,3.3267999999523,3.5352000000476664]",0,2,2,8,1,Practice,9,(3x3) - 1,8,,,,,,,,,,,,,,,,,,,,,,,,,,,,,,,,,,,,,,,,,,,,,,,,,,,,,,,,,,,,,,,,,,,,,,,,,,,
,,,,,,,,,,,,606c8251cc2f9b7aa4224814,53,Kobieta,2022-06-11_08h31.26.366,task,2021.1.4,Win32,59.22416346,6299f149e92ead563fba08ef,62a4426628846c6c07142dba,,,,,,,,,,,,,4,"[""4""]",1,[3.2609000000953756],"[11.700600000143055,3.3267999999523,3.5352000000476664,3.2609000000953756]",0,3,3,4,1,Practice,5,(2x6) - 8,4,,,,,,,,,,,,,,,,,,,,,,,,,,,,,,,,,,,,,,,,,,,,,,,,,,,,,,,,,,,,,,,,,,,,,,,,,,,
,,,,,,,,,,,,606c8251cc2f9b7aa4224814,53,Kobieta,2022-06-11_08h31.26.366,task,2021.1.4,Win32,59.22416346,6299f149e92ead563fba08ef,62a4426628846c6c07142dba,,,,,,,,,,,,,7,"[""7""]",1,[3.9365999999046437],"[11.700600000143055,3.3267999999523,3.5352000000476664,3.2609000000953756,3.9365999999046437]",0,4,4,7,1,Practice,8,(5x5) - 18,7,,,,,,,,,,,,,,,,,,,,,,,,,,,,,,,,,,,,,,,,,,,,,,,,,,,,,,,,,,,,,,,,,,,,,,,,,,,
,,,,,,,,,,,,606c8251cc2f9b7aa4224814,53,Kobieta,2022-06-11_08h31.26.366,task,2021.1.4,Win32,59.22416346,6299f149e92ead563fba08ef,62a4426628846c6c07142dba,,,,,,,,,,,,,2,"[""2""]",1,[3.920000000000016],"[11.700600000143055,3.3267999999523,3.5352000000476664,3.2609000000953756,3.9365999999046437,3.920000000000016]",0,5,5,2,1,Practice,3,(4x4) - 14,2,,,,,,,,,,,,,,,,,,,,,,,,,,,,,,,,,,,,,,,,,,,,,,,,,,,,,,,,,,,,,,,,,,,,,,,,,,,
,,,,,,,,,,,,606c8251cc2f9b7aa4224814,53,Kobieta,2022-06-11_08h31.26.366,task,2021.1.4,Win32,59.22416346,6299f149e92ead563fba08ef,62a4426628846c6c07142dba,,,,,,,,,,,,,3,"[""3""]",0,[6.505900000095352],"[11.700600000143055,3.3267999999523,3.5352000000476664,3.2609000000953756,3.9365999999046437,3.920000000000016,6.505900000095352]",0,6,6,5,1,Practice,6,(4/2) + 3,5,,,,,,,,,,,,,,,,,,,,,,,,,,,,,,,,,,,,,,,,,,,,,,,,,,,,,,,,,,,,,,,,,,,,,,,,,,,
,,,,,,,,,,,,606c8251cc2f9b7aa4224814,53,Kobieta,2022-06-11_08h31.26.366,task,2021.1.4,Win32,59.22416346,6299f149e92ead563fba08ef,62a4426628846c6c07142dba,,,,,,,,,,,,,9,"[""9""]",1,[3.954499999999996],"[11.700600000143055,3.3267999999523,3.5352000000476664,3.2609000000953756,3.9365999999046437,3.920000000000016,6.505900000095352,3.954499999999996]",0,7,7,9,1,Practice,10,(20/2) - 1,9,,,,,,,,,,,,,,,,,,,,,,,,,,,,,,,,,,,,,,,,,,,,,,,,,,,,,,,,,,,,,,,,,,,,,,,,,,,
,,,,,,,,,,,,606c8251cc2f9b7aa4224814,53,Kobieta,2022-06-11_08h31.26.366,task,2021.1.4,Win32,59.22416346,6299f149e92ead563fba08ef,62a4426628846c6c07142dba,,,,,,,,,,,,,1,"[""1""]",1,[2.9407999999523042],"[11.700600000143055,3.3267999999523,3.5352000000476664,3.2609000000953756,3.9365999999046437,3.920000000000016,6.505900000095352,3.954499999999996,2.9407999999523042]",0,8,8,1,1,Practice,2,(4x4) - 15,1,,,,,,,,,,,,,,,,,,,,,,,,,,,,,,,,,,,,,,,,,,,,,,,,,,,,,,,,,,,,,,,,,,,,,,,,,,,
,,,,,,,,,,,,606c8251cc2f9b7aa4224814,53,Kobieta,2022-06-11_08h31.26.366,task,2021.1.4,Win32,59.22416346,6299f149e92ead563fba08ef,62a4426628846c6c07142dba,,,,,,,,,,,,,3,"[""3""]",1,[5.2099000000953595],"[11.700600000143055,3.3267999999523,3.5352000000476664,3.2609000000953756,3.9365999999046437,3.920000000000016,6.505900000095352,3.954499999999996,2.9407999999523042,5.2099000000953595]",0,9,9,3,1,Practice,4,(8/4) + 1,3,,,,,,,,,,,,,,,,,,,,,,,,,,,,,,,,,,,,,,,,,,,,,,,,,,,,,,,,,,,,,,,,,,,,,,,,,,,
,,,,,,,,,,,,606c8251cc2f9b7aa4224814,53,Kobieta,2022-06-11_08h31.26.366,task,2021.1.4,Win32,59.22416346,6299f149e92ead563fba08ef,62a4426628846c6c07142dba,,,,,,,,,,,,,,,,,,,,,,,,,,,0.9,48.2912,3.219413333,88.42968951,2.42802649,9.483721676,space,3.3565,0,0,0,0,1,,,,,,,,,,,,,,,,,,,,,,,,,,,,,,,,,,,,,,,,,,,,,,,,,,,,,,,,,,,,,,
,,,,,,,,,,,,606c8251cc2f9b7aa4224814,53,Kobieta,2022-06-11_08h31.26.366,task,2021.1.4,Win32,59.22416346,6299f149e92ead563fba08ef,62a4426628846c6c07142dba,,,,,,,,,,,,,0,,,,,,,,,,Practice,1,(3x3) -  9,0,,,,,,,,,,,,,,space,15.5744,"[""0""]",1,[4.520499999999998],1,0,0,0,0,1,,,,,,,,,,,,,,,,,,,,,,,,,,,,,,,,,,,,,,,,,,,,,,,,,,,
,,,,,,,,,,,X V Q F H G B L J M P D K C T S W R N Z,606c8251cc2f9b7aa4224814,53,Kobieta,2022-06-11_08h31.26.366,task,2021.1.4,Win32,59.22416346,6299f149e92ead563fba08ef,62a4426628846c6c07142dba,,,,,,,,,,,,,,,,,,,,,,,,,,,,,,,,,,,,,,,,,,,,,,,,,,,0,0,0,0,1,,,,,,,,,,,,,,,,,,,,,,,,,,,,,,,,,,,,,,,,,,,,,,
,,,,,,,,,,,,606c8251cc2f9b7aa4224814,53,Kobieta,2022-06-11_08h31.26.366,task,2021.1.4,Win32,59.22416346,6299f149e92ead563fba08ef,62a4426628846c6c07142dba,,,,,,,,,,,,,5,,,,,,,,,,Practice,6,(4/2) + 3,5,,,,,,,,,,,,,,,,"[""5""]",1,[2.741500000000002],1,0,0,0,5,1,,,,,,,,,,,,,,,,,,,,,,,,,,,,,,,,,,,,,,,,,,,,,,,,,,,
,,,,,,,,,,,X V Q F H G B L J M P D K C T S W R N Z,606c8251cc2f9b7aa4224814,53,Kobieta,2022-06-11_08h31.26.366,task,2021.1.4,Win32,59.22416346,6299f149e92ead563fba08ef,62a4426628846c6c07142dba,,,,,,,,,,,,,,,,,,,,,,,,,,,,,,,,,,,,,,,,,,,,,,,,,,,1,0,1,0,1,,,,,,,,,,,,,,,,,,,,,,,,,,,,,,,,,,,,,,,,,,,,,,
,,,,,,,,,,,,606c8251cc2f9b7aa4224814,53,Kobieta,2022-06-11_08h31.26.366,task,2021.1.4,Win32,59.22416346,6299f149e92ead563fba08ef,62a4426628846c6c07142dba,,,,,,,,,,,,,,,,,,,,,,,,,,,,,,,,,,,,,,,,,,,,,,,,,,,,,,,,zc,"[""z"",""c""]",0,"[4.425200000047681,4.755200000047694,7.390600000143024]",1,0,0,0,0,1,,,,,,,,,,,,,,,,,,,,,,,,,,,,,,,,,,,,
,,,,,,,,,,,,606c8251cc2f9b7aa4224814,53,Kobieta,2022-06-11_08h31.26.366,task,2021.1.4,Win32,59.22416346,6299f149e92ead563fba08ef,62a4426628846c6c07142dba,,,,,,,,,,,,,0,,,,,,,,,,Practice,1,(3x3) -  9,0,,,,,,,,,,,,,,,,"[""0""]",1,[6.161599999904638],1,0,0,0,0,1,,,,,,,,,,,,,,,,,,,,,,,,,,,,,,,,,,,,,,,,,,,,,,,,,,,
,,,,,,,,,,,X V Q F H G B L J M P D K C T S W R N Z,606c8251cc2f9b7aa4224814,53,Kobieta,2022-06-11_08h31.26.366,task,2021.1.4,Win32,59.22416346,6299f149e92ead563fba08ef,62a4426628846c6c07142dba,,,,,,,,,,,,,,,,,,,,,,,,,,,,,,,,,,,,,,,,,,,,,,,,,,,0,0,0,0,1,,,,,,,,,,,,,,,,,,,,,,,,,,,,,,,,,,,,,,,,,,,,,,
,,,,,,,,,,,,606c8251cc2f9b7aa4224814,53,Kobieta,2022-06-11_08h31.26.366,task,2021.1.4,Win32,59.22416346,6299f149e92ead563fba08ef,62a4426628846c6c07142dba,,,,,,,,,,,,,1,,,,,,,,,,Practice,2,(4x4) - 15,1,,,,,,,,,,,,,,,,"[""1""]",1,[3.1554000000953693],1,0,0,0,1,1,,,,,,,,,,,,,,,,,,,,,,,,,,,,,,,,,,,,,,,,,,,,,,,,,,,
,,,,,,,,,,,X V Q F H G B L J M P D K C T S W R N Z,606c8251cc2f9b7aa4224814,53,Kobieta,2022-06-11_08h31.26.366,task,2021.1.4,Win32,59.22416346,6299f149e92ead563fba08ef,62a4426628846c6c07142dba,,,,,,,,,,,,,,,,,,,,,,,,,,,,,,,,,,,,,,,,,,,,,,,,,,,1,0,1,0,1,,,,,,,,,,,,,,,,,,,,,,,,,,,,,,,,,,,,,,,,,,,,,,
,,,,,,,,,,,,606c8251cc2f9b7aa4224814,53,Kobieta,2022-06-11_08h31.26.366,task,2021.1.4,Win32,59.22416346,6299f149e92ead563fba08ef,62a4426628846c6c07142dba,,,,,,,,,,,,,,,,,,,,,,,,,,,,,,,,,,,,,,,,,,,,,,,,,,,,,,,,td,"[""t"",""d""]",0,"[2.5527000000476505,3.573799999952314,5.265799999952321]",1,1,0,1,0,1,,,,,,,,,,,,,,,,,,,,,,,,,,,,,,,,,,,,
,,,,,,,,,,,,606c8251cc2f9b7aa4224814,53,Kobieta,2022-06-11_08h31.26.366,task,2021.1.4,Win32,59.22416346,6299f149e92ead563fba08ef,62a4426628846c6c07142dba,,,,,,,,,,,,,4,,,,,,,,,,Practice,5,(2x6) - 8,4,,,,,,,,,,,,,,,,"[""4""]",1,[3.6924999999999955],1,0,0,0,4,1,,,,,,,,,,,,,,,,,,,,,,,,,,,,,,,,,,,,,,,,,,,,,,,,,,,
,,,,,,,,,,,X V Q F H G B L J M P D K C T S W R N Z,606c8251cc2f9b7aa4224814,53,Kobieta,2022-06-11_08h31.26.366,task,2021.1.4,Win32,59.22416346,6299f149e92ead563fba08ef,62a4426628846c6c07142dba,,,,,,,,,,,,,,,,,,,,,,,,,,,,,,,,,,,,,,,,,,,,,,,,,,,0,0,0,0,1,,,,,,,,,,,,,,,,,,,,,,,,,,,,,,,,,,,,,,,,,,,,,,
,,,,,,,,,,,,606c8251cc2f9b7aa4224814,53,Kobieta,2022-06-11_08h31.26.366,task,2021.1.4,Win32,59.22416346,6299f149e92ead563fba08ef,62a4426628846c6c07142dba,,,,,,,,,,,,,2,,,,,,,,,,Practice,3,(4x4) - 14,2,,,,,,,,,,,,,,,,"[""2""]",1,[2.598000000000013],1,0,0,0,2,1,,,,,,,,,,,,,,,,,,,,,,,,,,,,,,,,,,,,,,,,,,,,,,,,,,,
,,,,,,,,,,,X V Q F H G B L J M P D K C T S W R N Z,606c8251cc2f9b7aa4224814,53,Kobieta,2022-06-11_08h31.26.366,task,2021.1.4,Win32,59.22416346,6299f149e92ead563fba08ef,62a4426628846c6c07142dba,,,,,,,,,,,,,,,,,,,,,,,,,,,,,,,,,,,,,,,,,,,,,,,,,,,1,0,1,0,1,,,,,,,,,,,,,,,,,,,,,,,,,,,,,,,,,,,,,,,,,,,,,,
,,,,,,,,,,,,606c8251cc2f9b7aa4224814,53,Kobieta,2022-06-11_08h31.26.366,task,2021.1.4,Win32,59.22416346,6299f149e92ead563fba08ef,62a4426628846c6c07142dba,,,,,,,,,,,,,,,,,,,,,,,,,,,,,,,,,,,,,,,,,,,,,,,,,,,,,,,,lj,"[""l"",""j""]",0,"[3.7887000000476974,4.144400000095402,5.250900000095385]",1,2,0,2,0,1,,,,,,,,,,,,,,,,,,,,,,,,,,,,,,,,,,,,
,,,,,,,,,,,,606c8251cc2f9b7aa4224814,53,Kobieta,2022-06-11_08h31.26.366,task,2021.1.4,Win32,59.22416346,6299f149e92ead563fba08ef,62a4426628846c6c07142dba,,,,,,,,,,,,,,,,,,,,,,,Task,7,(3x7) - 12,9,,,,,,,,,,,,,,,,,,,0,,,,,,,,,,,,,,,,,,,,,space,16.99,,0,0,0,0,6,1,,,,,,,,,,,,,,,,,,,,,,,,,,,
,,,,,,,,,,,,606c8251cc2f9b7aa4224814,53,Kobieta,2022-06-11_08h31.26.366,task,2021.1.4,Win32,59.22416346,6299f149e92ead563fba08ef,62a4426628846c6c07142dba,,,,,,,,,,,,,9,,,,,,,,,,Task,29,(3x8) - 19 ,5,,,,,,,,,,,,,,,,,,,0,,,,,,,,,,,,,,,,,,,,,,,"[""9""]",0,0,1,1,28,1,[0.40129999995230037],,,,,,,,,,,,,,,,,,,,,,,,,,
,,,,,,,,,,,,606c8251cc2f9b7aa4224814,53,Kobieta,2022-06-11_08h31.26.366,task,2021.1.4,Win32,59.22416346,6299f149e92ead563fba08ef,62a4426628846c6c07142dba,,,,,,,,,,,,,0,,,,,,,,,,Task,17,(2x3) - 6,0,,,,,,,,,,,,,,,,,,,1,,,,,,,,,,,,,,,,,,,,,,,"[""0""]",1,0,2,2,16,1,[3.163000000000011],,,,,,,,,,,,,,,,,,,,,,,,,,
,,,,,,,,,,,X V Q F H G B L J M P D K C T S W R N Z,606c8251cc2f9b7aa4224814,53,Kobieta,2022-06-11_08h31.26.366,task,2021.1.4,Win32,59.22416346,6299f149e92ead563fba08ef,62a4426628846c6c07142dba,,,,,,,,,,,,,,,,,,,,,,,,,,,,,,,,,,,,,,,,,,,,,,,,,,,,,,,,,,,,,,,,,,,,,,,,,,,,0,0,0,0,1,,,,,,,,,,,,,,,,,,,,,
,,,,,,,,,,,,606c8251cc2f9b7aa4224814,53,Kobieta,2022-06-11_08h31.26.366,task,2021.1.4,Win32,59.22416346,6299f149e92ead563fba08ef,62a4426628846c6c07142dba,,,,,,,,,,,,,0,,,,,,,,,,Task,17,(2x3) - 6,0,,,,,,,,,,,,,,,,,,,1,,,,,,,,,,,,,,,,,,,,,,,"[""0""]",1,0,0,0,16,1,[2.6657999999522985],,,,,,,,,,,,,,,,,,,,,,,,,,
,,,,,,,,,,,X V Q F H G B L J M P D K C T S W R N Z,606c8251cc2f9b7aa4224814,53,Kobieta,2022-06-11_08h31.26.366,task,2021.1.4,Win32,59.22416346,6299f149e92ead563fba08ef,62a4426628846c6c07142dba,,,,,,,,,,,,,,,,,,,,,,,,,,,,,,,,,,,,,,,,,,,,,,,,,,,,,,,,,,,,,,,,,,,,,,,,,,,,1,0,1,0,1,,,,,,,,,,,,,,,,,,,,,
,,,,,,,,,,,,606c8251cc2f9b7aa4224814,53,Kobieta,2022-06-11_08h31.26.366,task,2021.1.4,Win32,59.22416346,6299f149e92ead563fba08ef,62a4426628846c6c07142dba,,,,,,,,,,,,,,,,,,,,,,,,,,,,,,,,,,,,,,,,,,,,,,,,,,,,,,,,,,,,,,,,,,,,,,,,,,,,,,,,,zf,"[""z"",""f""]",0,"[4.061900000095363,4.083799999952305,5.3722000000476555]",1,ZF,0,0,0,0,1,,,,,,,,,,
,,,,,,,,,,,,606c8251cc2f9b7aa4224814,53,Kobieta,2022-06-11_08h31.26.366,task,2021.1.4,Win32,59.22416346,6299f149e92ead563fba08ef,62a4426628846c6c07142dba,,,,,,,,,,,,,8,,,,,,,,,,Task,15,(3x7) - 13,8,,,,,,,,,,,,,,,,,,,1,,,,,,,,,,,,,,,,,,,,,,,"[""8""]",1,0,0,0,14,1,[3.704999999999984],,,,,,,,,,,,,,,,,,,,,,,,,,
,,,,,,,,,,,X V Q F H G B L J M P D K C T S W R N Z,606c8251cc2f9b7aa4224814,53,Kobieta,2022-06-11_08h31.26.366,task,2021.1.4,Win32,59.22416346,6299f149e92ead563fba08ef,62a4426628846c6c07142dba,,,,,,,,,,,,,,,,,,,,,,,,,,,,,,,,,,,,,,,,,,,,,,,,,,,,,,,,,,,,,,,,,,,,,,,,,,,,0,0,0,0,1,,,,,,,,,,,,,,,,,,,,,
,,,,,,,,,,,,606c8251cc2f9b7aa4224814,53,Kobieta,2022-06-11_08h31.26.366,task,2021.1.4,Win32,59.22416346,6299f149e92ead563fba08ef,62a4426628846c6c07142dba,,,,,,,,,,,,,7,,,,,,,,,,Task,14,(2x2) + 3,7,,,,,,,,,,,,,,,,,,,1,,,,,,,,,,,,,,,,,,,,,,,"[""7""]",1,0,0,0,13,1,[3.526200000047652],,,,,,,,,,,,,,,,,,,,,,,,,,
,,,,,,,,,,,X V Q F H G B L J M P D K C T S W R N Z,606c8251cc2f9b7aa4224814,53,Kobieta,2022-06-11_08h31.26.366,task,2021.1.4,Win32,59.22416346,6299f149e92ead563fba08ef,62a4426628846c6c07142dba,,,,,,,,,,,,,,,,,,,,,,,,,,,,,,,,,,,,,,,,,,,,,,,,,,,,,,,,,,,,,,,,,,,,,,,,,,,,1,0,1,0,1,,,,,,,,,,,,,,,,,,,,,
,,,,,,,,,,,,606c8251cc2f9b7aa4224814,53,Kobieta,2022-06-11_08h31.26.366,task,2021.1.4,Win32,59.22416346,6299f149e92ead563fba08ef,62a4426628846c6c07142dba,,,,,,,,,,,,,0,,,,,,,,,,Task,17,(2x3) - 6,0,,,,,,,,,,,,,,,,,,,1,,,,,,,,,,,,,,,,,,,,,,,"[""0""]",1,0,0,0,16,1,[2.8768999998569598],,,,,,,,,,,,,,,,,,,,,,,,,,
,,,,,,,,,,,X V Q F H G B L J M P D K C T S W R N Z,606c8251cc2f9b7aa4224814,53,Kobieta,2022-06-11_08h31.26.366,task,2021.1.4,Win32,59.22416346,6299f149e92ead563fba08ef,62a4426628846c6c07142dba,,,,,,,,,,,,,,,,,,,,,,,,,,,,,,,,,,,,,,,,,,,,,,,,,,,,,,,,,,,,,,,,,,,,,,,,,,,,2,0,2,0,1,,,,,,,,,,,,,,,,,,,,,
,,,,,,,,,,,,606c8251cc2f9b7aa4224814,53,Kobieta,2022-06-11_08h31.26.366,task,2021.1.4,Win32,59.22416346,6299f149e92ead563fba08ef,62a4426628846c6c07142dba,,,,,,,,,,,,,,,,,,,,,,,,,,,,,,,,,,,,,,,,,,,,,,,,,,,,,,,,,,,,,,,,,,,,,,,,,,,,,,,,,mjm,"[""m"",""j"",""m""]",0,"[2.758299999952328,2.9954999999999927,3.2103999998569748,4.520500000000027]",1,MJM,1,0,1,0,1,,,,,,,,,,
,,,,,,,,,,,,606c8251cc2f9b7aa4224814,53,Kobieta,2022-06-11_08h31.26.366,task,2021.1.4,Win32,59.22416346,6299f149e92ead563fba08ef,62a4426628846c6c07142dba,,,,,,,,,,,,,7,,,,,,,,,,Task,31,(4/2) + 5,7,,,,,,,,,,,,,,,,,,,1,,,,,,,,,,,,,,,,,,,,,,,"[""7""]",1,0,0,0,30,1,[3.5685999999046203],,,,,,,,,,,,,,,,,,,,,,,,,,
,,,,,,,,,,,X V Q F H G B L J M P D K C T S W R N Z,606c8251cc2f9b7aa4224814,53,Kobieta,2022-06-11_08h31.26.366,task,2021.1.4,Win32,59.22416346,6299f149e92ead563fba08ef,62a4426628846c6c07142dba,,,,,,,,,,,,,,,,,,,,,,,,,,,,,,,,,,,,,,,,,,,,,,,,,,,,,,,,,,,,,,,,,,,,,,,,,,,,0,0,0,0,1,,,,,,,,,,,,,,,,,,,,,
,,,,,,,,,,,,606c8251cc2f9b7aa4224814,53,Kobieta,2022-06-11_08h31.26.366,task,2021.1.4,Win32,59.22416346,6299f149e92ead563fba08ef,62a4426628846c6c07142dba,,,,,,,,,,,,,1,,,,,,,,,,Task,9,(3x7) - 20,1,,,,,,,,,,,,,,,,,,,1,,,,,,,,,,,,,,,,,,,,,,,"[""1""]",1,0,0,0,8,1,[2.4072000000477374],,,,,,,,,,,,,,,,,,,,,,,,,,
,,,,,,,,,,,X V Q F H G B L J M P D K C T S W R N Z,606c8251cc2f9b7aa4224814,53,Kobieta,2022-06-11_08h31.26.366,task,2021.1.4,Win32,59.22416346,6299f149e92ead563fba08ef,62a4426628846c6c07142dba,,,,,,,,,,,,,,,,,,,,,,,,,,,,,,,,,,,,,,,,,,,,,,,,,,,,,,,,,,,,,,,,,,,,,,,,,,,,1,0,1,0,1,,,,,,,,,,,,,,,,,,,,,
,,,,,,,,,,,,606c8251cc2f9b7aa4224814,53,Kobieta,2022-06-11_08h31.26.366,task,2021.1.4,Win32,59.22416346,6299f149e92ead563fba08ef,62a4426628846c6c07142dba,,,,,,,,,,,,,0,,,,,,,,,,Task,8,(1x5) - 5,0,,,,,,,,,,,,,,,,,,,1,,,,,,,,,,,,,,,,,,,,,,,"[""0""]",1,0,0,0,7,1,[2.4535000000000196],,,,,,,,,,,,,,,,,,,,,,,,,,
,,,,,,,,,,,X V Q F H G B L J M P D K C T S W R N Z,606c8251cc2f9b7aa4224814,53,Kobieta,2022-06-11_08h31.26.366,task,2021.1.4,Win32,59.22416346,6299f149e92ead563fba08ef,62a4426628846c6c07142dba,,,,,,,,,,,,,,,,,,,,,,,,,,,,,,,,,,,,,,,,,,,,,,,,,,,,,,,,,,,,,,,,,,,,,,,,,,,,2,0,2,0,1,,,,,,,,,,,,,,,,,,,,,
,,,,,,,,,,,,606c8251cc2f9b7aa4224814,53,Kobieta,2022-06-11_08h31.26.366,task,2021.1.4,Win32,59.22416346,6299f149e92ead563fba08ef,62a4426628846c6c07142dba,,,,,,,,,,,,,1,,,,,,,,,,Task,19,(6/2) - 1,2,,,,,,,,,,,,,,,,,,,0,,,,,,,,,,,,,,,,,,,,,,,"[""1""]",0,0,0,0,18,1,[3.2280000000000086],,,,,,,,,,,,,,,,,,,,,,,,,,
,,,,,,,,,,,,606c8251cc2f9b7aa4224814,53,Kobieta,2022-06-11_08h31.26.366,task,2021.1.4,Win32,59.22416346,6299f149e92ead563fba08ef,62a4426628846c6c07142dba,,,,,,,,,,,,,3,,,,,,,,,,Task,20,(18/9) + 1,3,,,,,,,,,,,,,,,,,,,1,,,,,,,,,,,,,,,,,,,,,,,"[""3""]",1,0,1,1,19,1,[3.6279000000953943],,,,,,,,,,,,,,,,,,,,,,,,,,
,,,,,,,,,,,X V Q F H G B L J M P D K C T S W R N Z,606c8251cc2f9b7aa4224814,53,Kobieta,2022-06-11_08h31.26.366,task,2021.1.4,Win32,59.22416346,6299f149e92ead563fba08ef,62a4426628846c6c07142dba,,,,,,,,,,,,,,,,,,,,,,,,,,,,,,,,,,,,,,,,,,,,,,,,,,,,,,,,,,,,,,,,,,,,,,,,,,,,3,0,3,0,1,,,,,,,,,,,,,,,,,,,,,
,,,,,,,,,,,,606c8251cc2f9b7aa4224814,53,Kobieta,2022-06-11_08h31.26.366,task,2021.1.4,Win32,59.22416346,6299f149e92ead563fba08ef,62a4426628846c6c07142dba,,,,,,,,,,,,,,,,,,,,,,,,,,,,,,,,,,,,,,,,,,,,,,,,,,,,,,,,,,,,,,,,,,,,,,,,,,,,,,,,,kkqp,"[""k"",""k"",""q"",""p""]",0,"[2.962500000000034,3.1918999998569575,3.9477999999523377,4.96739999985698,7.816700000047717]",1,KKQP,2,0,2,0,1,,,,,,,,,,
,,,,,,,,,,,,606c8251cc2f9b7aa4224814,53,Kobieta,2022-06-11_08h31.26.366,task,2021.1.4,Win32,59.22416346,6299f149e92ead563fba08ef,62a4426628846c6c07142dba,,,,,,,,,,,,,9,,,,,,,,,,Task,40,(7x2) - 5,9,,,,,,,,,,,,,,,,,,,1,,,,,,,,,,,,,,,,,,,,,,,"[""9""]",1,0,0,0,39,1,[8.515700000047673],,,,,,,,,,,,,,,,,,,,,,,,,,
,,,,,,,,,,,X V Q F H G B L J M P D K C T S W R N Z,606c8251cc2f9b7aa4224814,53,Kobieta,2022-06-11_08h31.26.366,task,2021.1.4,Win32,59.22416346,6299f149e92ead563fba08ef,62a4426628846c6c07142dba,,,,,,,,,,,,,,,,,,,,,,,,,,,,,,,,,,,,,,,,,,,,,,,,,,,,,,,,,,,,,,,,,,,,,,,,,,,,0,0,0,0,1,,,,,,,,,,,,,,,,,,,,,
,,,,,,,,,,,,606c8251cc2f9b7aa4224814,53,Kobieta,2022-06-11_08h31.26.366,task,2021.1.4,Win32,59.22416346,6299f149e92ead563fba08ef,62a4426628846c6c07142dba,,,,,,,,,,,,,9,,,,,,,,,,Task,7,(3x7) - 12,9,,,,,,,,,,,,,,,,,,,1,,,,,,,,,,,,,,,,,,,,,,,"[""9""]",1,0,0,0,6,1,[4.110700000047643],,,,,,,,,,,,,,,,,,,,,,,,,,
,,,,,,,,,,,X V Q F H G B L J M P D K C T S W R N Z,606c8251cc2f9b7aa4224814,53,Kobieta,2022-06-11_08h31.26.366,task,2021.1.4,Win32,59.22416346,6299f149e92ead563fba08ef,62a4426628846c6c07142dba,,,,,,,,,,,,,,,,,,,,,,,,,,,,,,,,,,,,,,,,,,,,,,,,,,,,,,,,,,,,,,,,,,,,,,,,,,,,1,0,1,0,1,,,,,,,,,,,,,,,,,,,,,
,,,,,,,,,,,,606c8251cc2f9b7aa4224814,53,Kobieta,2022-06-11_08h31.26.366,task,2021.1.4,Win32,59.22416346,6299f149e92ead563fba08ef,62a4426628846c6c07142dba,,,,,,,,,,,,,1,,,,,,,,,,Task,9,(3x7) - 20,1,,,,,,,,,,,,,,,,,,,1,,,,,,,,,,,,,,,,,,,,,,,"[""1""]",1,0,0,0,8,1,[2.3104999999999905],,,,,,,,,,,,,,,,,,,,,,,,,,
,,,,,,,,,,,X V Q F H G B L J M P D K C T S W R N Z,606c8251cc2f9b7aa4224814,53,Kobieta,2022-06-11_08h31.26.366,task,2021.1.4,Win32,59.22416346,6299f149e92ead563fba08ef,62a4426628846c6c07142dba,,,,,,,,,,,,,,,,,,,,,,,,,,,,,,,,,,,,,,,,,,,,,,,,,,,,,,,,,,,,,,,,,,,,,,,,,,,,2,0,2,0,1,,,,,,,,,,,,,,,,,,,,,
,,,,,,,,,,,,606c8251cc2f9b7aa4224814,53,Kobieta,2022-06-11_08h31.26.366,task,2021.1.4,Win32,59.22416346,6299f149e92ead563fba08ef,62a4426628846c6c07142dba,,,,,,,,,,,,,3,,,,,,,,,,Task,27,(3/3) + 2,3,,,,,,,,,,,,,,,,,,,1,,,,,,,,,,,,,,,,,,,,,,,"[""3""]",1,0,0,0,26,1,[3.786099999904593],,,,,,,,,,,,,,,,,,,,,,,,,,
,,,,,,,,,,,X V Q F H G B L J M P D K C T S W R N Z,606c8251cc2f9b7aa4224814,53,Kobieta,2022-06-11_08h31.26.366,task,2021.1.4,Win32,59.22416346,6299f149e92ead563fba08ef,62a4426628846c6c07142dba,,,,,,,,,,,,,,,,,,,,,,,,,,,,,,,,,,,,,,,,,,,,,,,,,,,,,,,,,,,,,,,,,,,,,,,,,,,,3,0,3,0,1,,,,,,,,,,,,,,,,,,,,,
,,,,,,,,,,,,606c8251cc2f9b7aa4224814,53,Kobieta,2022-06-11_08h31.26.366,task,2021.1.4,Win32,59.22416346,6299f149e92ead563fba08ef,62a4426628846c6c07142dba,,,,,,,,,,,,,8,,,,,,,,,,Task,23,(2x3) + 2,8,,,,,,,,,,,,,,,,,,,1,,,,,,,,,,,,,,,,,,,,,,,"[""8""]",1,0,0,0,22,1,[3.688599999904625],,,,,,,,,,,,,,,,,,,,,,,,,,
,,,,,,,,,,,X V Q F H G B L J M P D K C T S W R N Z,606c8251cc2f9b7aa4224814,53,Kobieta,2022-06-11_08h31.26.366,task,2021.1.4,Win32,59.22416346,6299f149e92ead563fba08ef,62a4426628846c6c07142dba,,,,,,,,,,,,,,,,,,,,,,,,,,,,,,,,,,,,,,,,,,,,,,,,,,,,,,,,,,,,,,,,,,,,,,,,,,,,4,0,4,0,1,,,,,,,,,,,,,,,,,,,,,
,,,,,,,,,,,,606c8251cc2f9b7aa4224814,53,Kobieta,2022-06-11_08h31.26.366,task,2021.1.4,Win32,59.22416346,6299f149e92ead563fba08ef,62a4426628846c6c07142dba,,,,,,,,,,,,,,,,,,,,,,,,,,,,,,,,,,,,,,,,,,,,,,,,,,,,,,,,,,,,,,,,,,,,,,,,,,,,,,,,,dbnqs,"[""d"",""b"",""n"",""q"",""s""]",0,"[4.281000000000006,4.8287999999523095,5.777799999952322,6.758899999856908,7.6498999998569275,8.451899999856948]",1,DBNQS,3,0,3,0,1,,,,,,,,,,
,,,,,,,,,,,,606c8251cc2f9b7aa4224814,53,Kobieta,2022-06-11_08h31.26.366,task,2021.1.4,Win32,59.22416346,6299f149e92ead563fba08ef,62a4426628846c6c07142dba,,,,,,,,,,,,,8,,,,,,,,,,Task,39,(5x3) - 7,8,,,,,,,,,,,,,,,,,,,1,,,,,,,,,,,,,,,,,,,,,,,"[""8""]",1,0,0,0,38,1,[5.7197000000476805],,,,,,,,,,,,,,,,,,,,,,,,,,
,,,,,,,,,,,X V Q F H G B L J M P D K C T S W R N Z,606c8251cc2f9b7aa4224814,53,Kobieta,2022-06-11_08h31.26.366,task,2021.1.4,Win32,59.22416346,6299f149e92ead563fba08ef,62a4426628846c6c07142dba,,,,,,,,,,,,,,,,,,,,,,,,,,,,,,,,,,,,,,,,,,,,,,,,,,,,,,,,,,,,,,,,,,,,,,,,,,,,0,0,0,0,1,,,,,,,,,,,,,,,,,,,,,
,,,,,,,,,,,,606c8251cc2f9b7aa4224814,53,Kobieta,2022-06-11_08h31.26.366,task,2021.1.4,Win32,59.22416346,6299f149e92ead563fba08ef,62a4426628846c6c07142dba,,,,,,,,,,,,,9,,,,,,,,,,Task,16,(3x8) - 15,9,,,,,,,,,,,,,,,,,,,1,,,,,,,,,,,,,,,,,,,,,,,"[""9""]",1,0,0,0,15,1,[4.920200000047714],,,,,,,,,,,,,,,,,,,,,,,,,,
,,,,,,,,,,,X V Q F H G B L J M P D K C T S W R N Z,606c8251cc2f9b7aa4224814,53,Kobieta,2022-06-11_08h31.26.366,task,2021.1.4,Win32,59.22416346,6299f149e92ead563fba08ef,62a4426628846c6c07142dba,,,,,,,,,,,,,,,,,,,,,,,,,,,,,,,,,,,,,,,,,,,,,,,,,,,,,,,,,,,,,,,,,,,,,,,,,,,,1,0,1,0,1,,,,,,,,,,,,,,,,,,,,,
,,,,,,,,,,,,606c8251cc2f9b7aa4224814,53,Kobieta,2022-06-11_08h31.26.366,task,2021.1.4,Win32,59.22416346,6299f149e92ead563fba08ef,62a4426628846c6c07142dba,,,,,,,,,,,,,4,,,,,,,,,,Task,11,(18/3) - 2,4,,,,,,,,,,,,,,,,,,,1,,,,,,,,,,,,,,,,,,,,,,,"[""4""]",1,0,0,0,10,1,[5.523900000095352],,,,,,,,,,,,,,,,,,,,,,,,,,
,,,,,,,,,,,X V Q F H G B L J M P D K C T S W R N Z,606c8251cc2f9b7aa4224814,53,Kobieta,2022-06-11_08h31.26.366,task,2021.1.4,Win32,59.22416346,6299f149e92ead563fba08ef,62a4426628846c6c07142dba,,,,,,,,,,,,,,,,,,,,,,,,,,,,,,,,,,,,,,,,,,,,,,,,,,,,,,,,,,,,,,,,,,,,,,,,,,,,2,0,2,0,1,,,,,,,,,,,,,,,,,,,,,
,,,,,,,,,,,,606c8251cc2f9b7aa4224814,53,Kobieta,2022-06-11_08h31.26.366,task,2021.1.4,Win32,59.22416346,6299f149e92ead563fba08ef,62a4426628846c6c07142dba,,,,,,,,,,,,,6,,,,,,,,,,Task,5,(2x3) + 0,6,,,,,,,,,,,,,,,,,,,1,,,,,,,,,,,,,,,,,,,,,,,"[""6""]",1,0,0,0,4,1,[2.8242000000476537],,,,,,,,,,,,,,,,,,,,,,,,,,
,,,,,,,,,,,X V Q F H G B L J M P D K C T S W R N Z,606c8251cc2f9b7aa4224814,53,Kobieta,2022-06-11_08h31.26.366,task,2021.1.4,Win32,59.22416346,6299f149e92ead563fba08ef,62a4426628846c6c07142dba,,,,,,,,,,,,,,,,,,,,,,,,,,,,,,,,,,,,,,,,,,,,,,,,,,,,,,,,,,,,,,,,,,,,,,,,,,,,3,0,3,0,1,,,,,,,,,,,,,,,,,,,,,
,,,,,,,,,,,,606c8251cc2f9b7aa4224814,53,Kobieta,2022-06-11_08h31.26.366,task,2021.1.4,Win32,59.22416346,6299f149e92ead563fba08ef,62a4426628846c6c07142dba,,,,,,,,,,,,,2,,,,,,,,,,Task,19,(6/2) - 1,2,,,,,,,,,,,,,,,,,,,1,,,,,,,,,,,,,,,,,,,,,,,"[""2""]",1,0,0,0,18,1,[3.214899999856982],,,,,,,,,,,,,,,,,,,,,,,,,,
,,,,,,,,,,,X V Q F H G B L J M P D K C T S W R N Z,606c8251cc2f9b7aa4224814,53,Kobieta,2022-06-11_08h31.26.366,task,2021.1.4,Win32,59.22416346,6299f149e92ead563fba08ef,62a4426628846c6c07142dba,,,,,,,,,,,,,,,,,,,,,,,,,,,,,,,,,,,,,,,,,,,,,,,,,,,,,,,,,,,,,,,,,,,,,,,,,,,,4,0,4,0,1,,,,,,,,,,,,,,,,,,,,,
,,,,,,,,,,,,606c8251cc2f9b7aa4224814,53,Kobieta,2022-06-11_08h31.26.366,task,2021.1.4,Win32,59.22416346,6299f149e92ead563fba08ef,62a4426628846c6c07142dba,,,,,,,,,,,,,1,,,,,,,,,,Task,9,(3x7) - 20,1,,,,,,,,,,,,,,,,,,,1,,,,,,,,,,,,,,,,,,,,,,,"[""1""]",1,0,0,0,8,1,[2.3405999999046116],,,,,,,,,,,,,,,,,,,,,,,,,,
,,,,,,,,,,,X V Q F H G B L J M P D K C T S W R N Z,606c8251cc2f9b7aa4224814,53,Kobieta,2022-06-11_08h31.26.366,task,2021.1.4,Win32,59.22416346,6299f149e92ead563fba08ef,62a4426628846c6c07142dba,,,,,,,,,,,,,,,,,,,,,,,,,,,,,,,,,,,,,,,,,,,,,,,,,,,,,,,,,,,,,,,,,,,,,,,,,,,,5,0,5,0,1,,,,,,,,,,,,,,,,,,,,,
,,,,,,,,,,,,606c8251cc2f9b7aa4224814,53,Kobieta,2022-06-11_08h31.26.366,task,2021.1.4,Win32,59.22416346,6299f149e92ead563fba08ef,62a4426628846c6c07142dba,,,,,,,,,,,,,,,,,,,,,,,,,,,,,,,,,,,,,,,,,,,,,,,,,,,,,,,,,,,,,,,,,,,,,,,,,,,,,,,,,pmmfldm,"[""p"",""m"",""m"",""f"",""l"",""d"",""m""]",0,"[4.0484000000953415,4.584299999952293,4.931400000095323,6.07490000009534,7.686999999999955,9.70020000004763,9.712299999952279,10.998900000095318]",0,PMFLDM,4,0,4,0,1,,,,,,,,,,
,,,,,,,,,,,,606c8251cc2f9b7aa4224814,53,Kobieta,2022-06-11_08h31.26.366,task,2021.1.4,Win32,59.22416346,6299f149e92ead563fba08ef,62a4426628846c6c07142dba,,,,,,,,,,,,,1,,,,,,,,,,Task,17,(2x3) - 6,0,,,,,,,,,,,,,,,,,,,0,,,,,,,,,,,,,,,,,,,,,,,"[""1""]",0,0,0,0,16,1,[4.977499999999964],,,,,,,,,,,,,,,,,,,,,,,,,,
,,,,,,,,,,,,606c8251cc2f9b7aa4224814,53,Kobieta,2022-06-11_08h31.26.366,task,2021.1.4,Win32,59.22416346,6299f149e92ead563fba08ef,62a4426628846c6c07142dba,,,,,,,,,,,,,5,,,,,,,,,,Task,22,(3x1) + 2,5,,,,,,,,,,,,,,,,,,,1,,,,,,,,,,,,,,,,,,,,,,,"[""5""]",1,0,1,1,21,1,[2.8980000000000246],,,,,,,,,,,,,,,,,,,,,,,,,,
,,,,,,,,,,,X V Q F H G B L J M P D K C T S W R N Z,606c8251cc2f9b7aa4224814,53,Kobieta,2022-06-11_08h31.26.366,task,2021.1.4,Win32,59.22416346,6299f149e92ead563fba08ef,62a4426628846c6c07142dba,,,,,,,,,,,,,,,,,,,,,,,,,,,,,,,,,,,,,,,,,,,,,,,,,,,,,,,,,,,,,,,,,,,,,,,,,,,,0,0,0,0,1,,,,,,,,,,,,,,,,,,,,,
,,,,,,,,,,,,606c8251cc2f9b7aa4224814,53,Kobieta,2022-06-11_08h31.26.366,task,2021.1.4,Win32,59.22416346,6299f149e92ead563fba08ef,62a4426628846c6c07142dba,,,,,,,,,,,,,6,,,,,,,,,,Task,37,(3/3) + 5,6,,,,,,,,,,,,,,,,,,,1,,,,,,,,,,,,,,,,,,,,,,,"[""6""]",1,0,0,0,36,1,[2.5677999999522854],,,,,,,,,,,,,,,,,,,,,,,,,,
,,,,,,,,,,,X V Q F H G B L J M P D K C T S W R N Z,606c8251cc2f9b7aa4224814,53,Kobieta,2022-06-11_08h31.26.366,task,2021.1.4,Win32,59.22416346,6299f149e92ead563fba08ef,62a4426628846c6c07142dba,,,,,,,,,,,,,,,,,,,,,,,,,,,,,,,,,,,,,,,,,,,,,,,,,,,,,,,,,,,,,,,,,,,,,,,,,,,,1,0,1,0,1,,,,,,,,,,,,,,,,,,,,,
,,,,,,,,,,,,606c8251cc2f9b7aa4224814,53,Kobieta,2022-06-11_08h31.26.366,task,2021.1.4,Win32,59.22416346,6299f149e92ead563fba08ef,62a4426628846c6c07142dba,,,,,,,,,,,,,6,,,,,,,,,,Task,5,(2x3) + 0,6,,,,,,,,,,,,,,,,,,,1,,,,,,,,,,,,,,,,,,,,,,,"[""6""]",1,0,0,0,4,1,[2.6258999998568697],,,,,,,,,,,,,,,,,,,,,,,,,,
,,,,,,,,,,,X V Q F H G B L J M P D K C T S W R N Z,606c8251cc2f9b7aa4224814,53,Kobieta,2022-06-11_08h31.26.366,task,2021.1.4,Win32,59.22416346,6299f149e92ead563fba08ef,62a4426628846c6c07142dba,,,,,,,,,,,,,,,,,,,,,,,,,,,,,,,,,,,,,,,,,,,,,,,,,,,,,,,,,,,,,,,,,,,,,,,,,,,,2,0,2,0,1,,,,,,,,,,,,,,,,,,,,,
,,,,,,,,,,,,606c8251cc2f9b7aa4224814,53,Kobieta,2022-06-11_08h31.26.366,task,2021.1.4,Win32,59.22416346,6299f149e92ead563fba08ef,62a4426628846c6c07142dba,,,,,,,,,,,,,0,,,,,,,,,,Task,25,(10/5) - 2,0,,,,,,,,,,,,,,,,,,,1,,,,,,,,,,,,,,,,,,,,,,,"[""0""]",1,0,0,0,24,1,[2.5922999999522744],,,,,,,,,,,,,,,,,,,,,,,,,,
,,,,,,,,,,,X V Q F H G B L J M P D K C T S W R N Z,606c8251cc2f9b7aa4224814,53,Kobieta,2022-06-11_08h31.26.366,task,2021.1.4,Win32,59.22416346,6299f149e92ead563fba08ef,62a4426628846c6c07142dba,,,,,,,,,,,,,,,,,,,,,,,,,,,,,,,,,,,,,,,,,,,,,,,,,,,,,,,,,,,,,,,,,,,,,,,,,,,,3,0,3,0,1,,,,,,,,,,,,,,,,,,,,,
,,,,,,,,,,,,606c8251cc2f9b7aa4224814,53,Kobieta,2022-06-11_08h31.26.366,task,2021.1.4,Win32,59.22416346,6299f149e92ead563fba08ef,62a4426628846c6c07142dba,,,,,,,,,,,,,6,,,,,,,,,,Task,5,(2x3) + 0,6,,,,,,,,,,,,,,,,,,,1,,,,,,,,,,,,,,,,,,,,,,,"[""6""]",1,0,0,0,4,1,[3.002899999856936],,,,,,,,,,,,,,,,,,,,,,,,,,
,,,,,,,,,,,X V Q F H G B L J M P D K C T S W R N Z,606c8251cc2f9b7aa4224814,53,Kobieta,2022-06-11_08h31.26.366,task,2021.1.4,Win32,59.22416346,6299f149e92ead563fba08ef,62a4426628846c6c07142dba,,,,,,,,,,,,,,,,,,,,,,,,,,,,,,,,,,,,,,,,,,,,,,,,,,,,,,,,,,,,,,,,,,,,,,,,,,,,4,0,4,0,1,,,,,,,,,,,,,,,,,,,,,
,,,,,,,,,,,,606c8251cc2f9b7aa4224814,53,Kobieta,2022-06-11_08h31.26.366,task,2021.1.4,Win32,59.22416346,6299f149e92ead563fba08ef,62a4426628846c6c07142dba,,,,,,,,,,,,,0,,,,,,,,,,Task,33,(1/1) - 1,0,,,,,,,,,,,,,,,,,,,1,,,,,,,,,,,,,,,,,,,,,,,"[""0""]",1,0,0,0,32,1,[4.052400000095304],,,,,,,,,,,,,,,,,,,,,,,,,,
,,,,,,,,,,,X V Q F H G B L J M P D K C T S W R N Z,606c8251cc2f9b7aa4224814,53,Kobieta,2022-06-11_08h31.26.366,task,2021.1.4,Win32,59.22416346,6299f149e92ead563fba08ef,62a4426628846c6c07142dba,,,,,,,,,,,,,,,,,,,,,,,,,,,,,,,,,,,,,,,,,,,,,,,,,,,,,,,,,,,,,,,,,,,,,,,,,,,,5,0,5,0,1,,,,,,,,,,,,,,,,,,,,,
,,,,,,,,,,,,606c8251cc2f9b7aa4224814,53,Kobieta,2022-06-11_08h31.26.366,task,2021.1.4,Win32,59.22416346,6299f149e92ead563fba08ef,62a4426628846c6c07142dba,,,,,,,,,,,,,,,,,,,,,,,,,,,,,,,,,,,,,,,,,,,,,,,,,,,,,,,,,,,,,,,,,,,,,,,,,,,,,,,,,mzpzkq,"[""m"",""z"",""p"",""z"",""k"",""q""]",0,"[4.164700000047674,4.788900000095396,5.660100000143075,8.96140000009541,9.736200000047688,10.343700000047647,11.017700000047626]",1,MZPZKQ,5,0,5,0,1,,,,,,,,,,
,,,,,,,,,,,,606c8251cc2f9b7aa4224814,53,Kobieta,2022-06-11_08h31.26.366,task,2021.1.4,Win32,59.22416346,6299f149e92ead563fba08ef,62a4426628846c6c07142dba,,,,,,,,,,,,,8,,,,,,,,,,Task,39,(5x3) - 7,8,,,,,,,,,,,,,,,,,,,1,,,,,,,,,,,,,,,,,,,,,,,"[""8""]",1,0,0,0,38,1,[4.449100000143062],,,,,,,,,,,,,,,,,,,,,,,,,,
,,,,,,,,,,,X V Q F H G B L J M P D K C T S W R N Z,606c8251cc2f9b7aa4224814,53,Kobieta,2022-06-11_08h31.26.366,task,2021.1.4,Win32,59.22416346,6299f149e92ead563fba08ef,62a4426628846c6c07142dba,,,,,,,,,,,,,,,,,,,,,,,,,,,,,,,,,,,,,,,,,,,,,,,,,,,,,,,,,,,,,,,,,,,,,,,,,,,,0,0,0,0,1,,,,,,,,,,,,,,,,,,,,,
,,,,,,,,,,,,606c8251cc2f9b7aa4224814,53,Kobieta,2022-06-11_08h31.26.366,task,2021.1.4,Win32,59.22416346,6299f149e92ead563fba08ef,62a4426628846c6c07142dba,,,,,,,,,,,,,1,,,,,,,,,,Task,1,(12/6) - 1,1,,,,,,,,,,,,,,,,,,,1,,,,,,,,,,,,,,,,,,,,,,,"[""1""]",1,0,0,0,0,1,[2.3222999999522926],,,,,,,,,,,,,,,,,,,,,,,,,,
,,,,,,,,,,,X V Q F H G B L J M P D K C T S W R N Z,606c8251cc2f9b7aa4224814,53,Kobieta,2022-06-11_08h31.26.366,task,2021.1.4,Win32,59.22416346,6299f149e92ead563fba08ef,62a4426628846c6c07142dba,,,,,,,,,,,,,,,,,,,,,,,,,,,,,,,,,,,,,,,,,,,,,,,,,,,,,,,,,,,,,,,,,,,,,,,,,,,,1,0,1,0,1,,,,,,,,,,,,,,,,,,,,,
,,,,,,,,,,,,606c8251cc2f9b7aa4224814,53,Kobieta,2022-06-11_08h31.26.366,task,2021.1.4,Win32,59.22416346,6299f149e92ead563fba08ef,62a4426628846c6c07142dba,,,,,,,,,,,,,3,,,,,,,,,,Task,16,(3x8) - 15,9,,,,,,,,,,,,,,,,,,,0,,,,,,,,,,,,,,,,,,,,,,,"[""3""]",0,0,0,0,15,1,[3.665299999952367],,,,,,,,,,,,,,,,,,,,,,,,,,
,,,,,,,,,,,,606c8251cc2f9b7aa4224814,53,Kobieta,2022-06-11_08h31.26.366,task,2021.1.4,Win32,59.22416346,6299f149e92ead563fba08ef,62a4426628846c6c07142dba,,,,,,,,,,,,,4,,,,,,,,,,Task,28,(2x5) - 6,4,,,,,,,,,,,,,,,,,,,1,,,,,,,,,,,,,,,,,,,,,,,"[""4""]",1,0,1,1,27,1,[3.080100000143034],,,,,,,,,,,,,,,,,,,,,,,,,,
,,,,,,,,,,,X V Q F H G B L J M P D K C T S W R N Z,606c8251cc2f9b7aa4224814,53,Kobieta,2022-06-11_08h31.26.366,task,2021.1.4,Win32,59.22416346,6299f149e92ead563fba08ef,62a4426628846c6c07142dba,,,,,,,,,,,,,,,,,,,,,,,,,,,,,,,,,,,,,,,,,,,,,,,,,,,,,,,,,,,,,,,,,,,,,,,,,,,,2,0,2,0,1,,,,,,,,,,,,,,,,,,,,,
,,,,,,,,,,,,606c8251cc2f9b7aa4224814,53,Kobieta,2022-06-11_08h31.26.366,task,2021.1.4,Win32,59.22416346,6299f149e92ead563fba08ef,62a4426628846c6c07142dba,,,,,,,,,,,,,0,,,,,,,,,,Task,17,(2x3) - 6,0,,,,,,,,,,,,,,,,,,,1,,,,,,,,,,,,,,,,,,,,,,,"[""0""]",1,0,0,0,16,1,[2.74320000004775],,,,,,,,,,,,,,,,,,,,,,,,,,
,,,,,,,,,,,X V Q F H G B L J M P D K C T S W R N Z,606c8251cc2f9b7aa4224814,53,Kobieta,2022-06-11_08h31.26.366,task,2021.1.4,Win32,59.22416346,6299f149e92ead563fba08ef,62a4426628846c6c07142dba,,,,,,,,,,,,,,,,,,,,,,,,,,,,,,,,,,,,,,,,,,,,,,,,,,,,,,,,,,,,,,,,,,,,,,,,,,,,3,0,3,0,1,,,,,,,,,,,,,,,,,,,,,
,,,,,,,,,,,,606c8251cc2f9b7aa4224814,53,Kobieta,2022-06-11_08h31.26.366,task,2021.1.4,Win32,59.22416346,6299f149e92ead563fba08ef,62a4426628846c6c07142dba,,,,,,,,,,,,,1,,,,,,,,,,Task,34,(9/3) - 2,1,,,,,,,,,,,,,,,,,,,1,,,,,,,,,,,,,,,,,,,,,,,"[""1""]",1,0,0,0,33,1,[3.3870000000000573],,,,,,,,,,,,,,,,,,,,,,,,,,
,,,,,,,,,,,X V Q F H G B L J M P D K C T S W R N Z,606c8251cc2f9b7aa4224814,53,Kobieta,2022-06-11_08h31.26.366,task,2021.1.4,Win32,59.22416346,6299f149e92ead563fba08ef,62a4426628846c6c07142dba,,,,,,,,,,,,,,,,,,,,,,,,,,,,,,,,,,,,,,,,,,,,,,,,,,,,,,,,,,,,,,,,,,,,,,,,,,,,4,0,4,0,1,,,,,,,,,,,,,,,,,,,,,
,,,,,,,,,,,,606c8251cc2f9b7aa4224814,53,Kobieta,2022-06-11_08h31.26.366,task,2021.1.4,Win32,59.22416346,6299f149e92ead563fba08ef,62a4426628846c6c07142dba,,,,,,,,,,,,,5,,,,,,,,,,Task,12,(4x4) - 11,5,,,,,,,,,,,,,,,,,,,1,,,,,,,,,,,,,,,,,,,,,,,"[""5""]",1,0,0,0,11,1,[3.5487000000476883],,,,,,,,,,,,,,,,,,,,,,,,,,
,,,,,,,,,,,X V Q F H G B L J M P D K C T S W R N Z,606c8251cc2f9b7aa4224814,53,Kobieta,2022-06-11_08h31.26.366,task,2021.1.4,Win32,59.22416346,6299f149e92ead563fba08ef,62a4426628846c6c07142dba,,,,,,,,,,,,,,,,,,,,,,,,,,,,,,,,,,,,,,,,,,,,,,,,,,,,,,,,,,,,,,,,,,,,,,,,,,,,5,0,5,0,1,,,,,,,,,,,,,,,,,,,,,
,,,,,,,,,,,,606c8251cc2f9b7aa4224814,53,Kobieta,2022-06-11_08h31.26.366,task,2021.1.4,Win32,59.22416346,6299f149e92ead563fba08ef,62a4426628846c6c07142dba,,,,,,,,,,,,,4,,,,,,,,,,Task,21,(10/2) - 1,4,,,,,,,,,,,,,,,,,,,1,,,,,,,,,,,,,,,,,,,,,,,"[""4""]",1,0,0,0,20,1,[3.0937000000476473],,,,,,,,,,,,,,,,,,,,,,,,,,
,,,,,,,,,,,X V Q F H G B L J M P D K C T S W R N Z,606c8251cc2f9b7aa4224814,53,Kobieta,2022-06-11_08h31.26.366,task,2021.1.4,Win32,59.22416346,6299f149e92ead563fba08ef,62a4426628846c6c07142dba,,,,,,,,,,,,,,,,,,,,,,,,,,,,,,,,,,,,,,,,,,,,,,,,,,,,,,,,,,,,,,,,,,,,,,,,,,,,6,0,6,0,1,,,,,,,,,,,,,,,,,,,,,
,,,,,,,,,,,,606c8251cc2f9b7aa4224814,53,Kobieta,2022-06-11_08h31.26.366,task,2021.1.4,Win32,59.22416346,6299f149e92ead563fba08ef,62a4426628846c6c07142dba,,,,,,,,,,,,,,,,,,,,,,,,,,,,,,,,,,,,,,,,,,,,,,,,,,,,,,,,,,,,,,,,,,,,,,,,,,,,,,,,,brvcnvm,"[""b"",""r"",""v"",""c"",""n"",""v"",""m""]",0,"[3.4953000001908094,4.431900000095425,5.530900000095357,7.151900000095452,8.450100000143038,9.544900000095367,10.655000000000086,14.037400000095431]",1,BRVCNVM,6,0,6,0,1,,,,,,,,,,
,,,,,,,,,,,,606c8251cc2f9b7aa4224814,53,Kobieta,2022-06-11_08h31.26.366,task,2021.1.4,Win32,59.22416346,6299f149e92ead563fba08ef,62a4426628846c6c07142dba,,,,,,,,,,,,,8,,,,,,,,,,Task,32,(8/2) + 4,8,,,,,,,,,,,,,,,,,,,1,,,,,,,,,,,,,,,,,,,,,,,"[""8""]",1,0,0,0,31,1,[4.289500000000089],,,,,,,,,,,,,,,,,,,,,,,,,,
,,,,,,,,,,,X V Q F H G B L J M P D K C T S W R N Z,606c8251cc2f9b7aa4224814,53,Kobieta,2022-06-11_08h31.26.366,task,2021.1.4,Win32,59.22416346,6299f149e92ead563fba08ef,62a4426628846c6c07142dba,,,,,,,,,,,,,,,,,,,,,,,,,,,,,,,,,,,,,,,,,,,,,,,,,,,,,,,,,,,,,,,,,,,,,,,,,,,,0,0,0,0,1,,,,,,,,,,,,,,,,,,,,,
,,,,,,,,,,,,606c8251cc2f9b7aa4224814,53,Kobieta,2022-06-11_08h31.26.366,task,2021.1.4,Win32,59.22416346,6299f149e92ead563fba08ef,62a4426628846c6c07142dba,,,,,,,,,,,,,3,,,,,,,,,,Task,35,(1x2) + 1,3,,,,,,,,,,,,,,,,,,,1,,,,,,,,,,,,,,,,,,,,,,,"[""3""]",1,0,0,0,34,1,[3.402499999999918],,,,,,,,,,,,,,,,,,,,,,,,,,
,,,,,,,,,,,X V Q F H G B L J M P D K C T S W R N Z,606c8251cc2f9b7aa4224814,53,Kobieta,2022-06-11_08h31.26.366,task,2021.1.4,Win32,59.22416346,6299f149e92ead563fba08ef,62a4426628846c6c07142dba,,,,,,,,,,,,,,,,,,,,,,,,,,,,,,,,,,,,,,,,,,,,,,,,,,,,,,,,,,,,,,,,,,,,,,,,,,,,1,0,1,0,1,,,,,,,,,,,,,,,,,,,,,
,,,,,,,,,,,,606c8251cc2f9b7aa4224814,53,Kobieta,2022-06-11_08h31.26.366,task,2021.1.4,Win32,59.22416346,6299f149e92ead563fba08ef,62a4426628846c6c07142dba,,,,,,,,,,,,,6,,,,,,,,,,Task,13,(3x4) - 6,6,,,,,,,,,,,,,,,,,,,1,,,,,,,,,,,,,,,,,,,,,,,"[""6""]",1,0,0,0,12,1,[2.5179000000954375],,,,,,,,,,,,,,,,,,,,,,,,,,
,,,,,,,,,,,X V Q F H G B L J M P D K C T S W R N Z,606c8251cc2f9b7aa4224814,53,Kobieta,2022-06-11_08h31.26.366,task,2021.1.4,Win32,59.22416346,6299f149e92ead563fba08ef,62a4426628846c6c07142dba,,,,,,,,,,,,,,,,,,,,,,,,,,,,,,,,,,,,,,,,,,,,,,,,,,,,,,,,,,,,,,,,,,,,,,,,,,,,2,0,2,0,1,,,,,,,,,,,,,,,,,,,,,
,,,,,,,,,,,,606c8251cc2f9b7aa4224814,53,Kobieta,2022-06-11_08h31.26.366,task,2021.1.4,Win32,59.22416346,6299f149e92ead563fba08ef,62a4426628846c6c07142dba,,,,,,,,,,,,,6,,,,,,,,,,Task,30,(6/3) + 4 ,6,,,,,,,,,,,,,,,,,,,1,,,,,,,,,,,,,,,,,,,,,,,"[""6""]",1,0,0,0,29,1,[4.089700000047742],,,,,,,,,,,,,,,,,,,,,,,,,,
,,,,,,,,,,,X V Q F H G B L J M P D K C T S W R N Z,606c8251cc2f9b7aa4224814,53,Kobieta,2022-06-11_08h31.26.366,task,2021.1.4,Win32,59.22416346,6299f149e92ead563fba08ef,62a4426628846c6c07142dba,,,,,,,,,,,,,,,,,,,,,,,,,,,,,,,,,,,,,,,,,,,,,,,,,,,,,,,,,,,,,,,,,,,,,,,,,,,,3,0,3,0,1,,,,,,,,,,,,,,,,,,,,,
,,,,,,,,,,,,606c8251cc2f9b7aa4224814,53,Kobieta,2022-06-11_08h31.26.366,task,2021.1.4,Win32,59.22416346,6299f149e92ead563fba08ef,62a4426628846c6c07142dba,,,,,,,,,,,,,6,,,,,,,,,,Task,37,(3/3) + 5,6,,,,,,,,,,,,,,,,,,,1,,,,,,,,,,,,,,,,,,,,,,,"[""6""]",1,0,0,0,36,1,[2.600500000000011],,,,,,,,,,,,,,,,,,,,,,,,,,
,,,,,,,,,,,X V Q F H G B L J M P D K C T S W R N Z,606c8251cc2f9b7aa4224814,53,Kobieta,2022-06-11_08h31.26.366,task,2021.1.4,Win32,59.22416346,6299f149e92ead563fba08ef,62a4426628846c6c07142dba,,,,,,,,,,,,,,,,,,,,,,,,,,,,,,,,,,,,,,,,,,,,,,,,,,,,,,,,,,,,,,,,,,,,,,,,,,,,4,0,4,0,1,,,,,,,,,,,,,,,,,,,,,
,,,,,,,,,,,,606c8251cc2f9b7aa4224814,53,Kobieta,2022-06-11_08h31.26.366,task,2021.1.4,Win32,59.22416346,6299f149e92ead563fba08ef,62a4426628846c6c07142dba,,,,,,,,,,,,,0,,,,,,,,,,Task,25,(10/5) - 2,0,,,,,,,,,,,,,,,,,,,1,,,,,,,,,,,,,,,,,,,,,,,"[""0""]",1,0,0,0,24,1,[2.1171000001429547],,,,,,,,,,,,,,,,,,,,,,,,,,
,,,,,,,,,,,X V Q F H G B L J M P D K C T S W R N Z,606c8251cc2f9b7aa4224814,53,Kobieta,2022-06-11_08h31.26.366,task,2021.1.4,Win32,59.22416346,6299f149e92ead563fba08ef,62a4426628846c6c07142dba,,,,,,,,,,,,,,,,,,,,,,,,,,,,,,,,,,,,,,,,,,,,,,,,,,,,,,,,,,,,,,,,,,,,,,,,,,,,5,0,5,0,1,,,,,,,,,,,,,,,,,,,,,
,,,,,,,,,,,,606c8251cc2f9b7aa4224814,53,Kobieta,2022-06-11_08h31.26.366,task,2021.1.4,Win32,59.22416346,6299f149e92ead563fba08ef,62a4426628846c6c07142dba,,,,,,,,,,,,,9,,,,,,,,,,Task,24,(2x2) + 5,9,,,,,,,,,,,,,,,,,,,1,,,,,,,,,,,,,,,,,,,,,,,"[""9""]",1,0,0,0,23,1,[1.908699999809187],,,,,,,,,,,,,,,,,,,,,,,,,,
,,,,,,,,,,,X V Q F H G B L J M P D K C T S W R N Z,606c8251cc2f9b7aa4224814,53,Kobieta,2022-06-11_08h31.26.366,task,2021.1.4,Win32,59.22416346,6299f149e92ead563fba08ef,62a4426628846c6c07142dba,,,,,,,,,,,,,,,,,,,,,,,,,,,,,,,,,,,,,,,,,,,,,,,,,,,,,,,,,,,,,,,,,,,,,,,,,,,,6,0,6,0,1,,,,,,,,,,,,,,,,,,,,,
,,,,,,,,,,,,606c8251cc2f9b7aa4224814,53,Kobieta,2022-06-11_08h31.26.366,task,2021.1.4,Win32,59.22416346,6299f149e92ead563fba08ef,62a4426628846c6c07142dba,,,,,,,,,,,,,2,,,,,,,,,,Task,10,(2x5) - 8,2,,,,,,,,,,,,,,,,,,,1,,,,,,,,,,,,,,,,,,,,,,,"[""2""]",1,0,0,0,9,1,[3.00490000009529],,,,,,,,,,,,,,,,,,,,,,,,,,
,,,,,,,,,,,X V Q F H G B L J M P D K C T S W R N Z,606c8251cc2f9b7aa4224814,53,Kobieta,2022-06-11_08h31.26.366,task,2021.1.4,Win32,59.22416346,6299f149e92ead563fba08ef,62a4426628846c6c07142dba,,,,,,,,,,,,,,,,,,,,,,,,,,,,,,,,,,,,,,,,,,,,,,,,,,,,,,,,,,,,,,,,,,,,,,,,,,,,7,0,7,0,1,,,,,,,,,,,,,,,,,,,,,
,,,,,,,,,,,,606c8251cc2f9b7aa4224814,53,Kobieta,2022-06-11_08h31.26.366,task,2021.1.4,Win32,59.22416346,6299f149e92ead563fba08ef,62a4426628846c6c07142dba,,,,,,,,,,,,,,,,,,,,,,,,,,,,,,,,,,,,,,,,,,,,,,,,,,,,,,,,,,,,,,,,,,,,,,,,,,,,,,,,,mhqksnhj,"[""m"",""h"",""q"",""k"",""s"",""n"",""h"",""j""]",0,"[4.0534999999999854,4.981200000047693,5.668400000095403,8.373900000095318,9.047400000095308,9.294900000095367,12.951900000095407,13.016200000047661,14.184800000190762]",1,MHQKSNHJ,7,0,7,0,1,,,,,,,,,,
,,,,,,,,,,,,606c8251cc2f9b7aa4224814,53,Kobieta,2022-06-11_08h31.26.366,task,2021.1.4,Win32,59.22416346,6299f149e92ead563fba08ef,62a4426628846c6c07142dba,,,,,,,,,,,,,8,,,,,,,,,,Task,39,(5x3) - 7,8,,,,,,,,,,,,,,,,,,,1,,,,,,,,,,,,,,,,,,,,,,,"[""8""]",1,0,0,0,38,1,[3.53509999990456],,,,,,,,,,,,,,,,,,,,,,,,,,
,,,,,,,,,,,X V Q F H G B L J M P D K C T S W R N Z,606c8251cc2f9b7aa4224814,53,Kobieta,2022-06-11_08h31.26.366,task,2021.1.4,Win32,59.22416346,6299f149e92ead563fba08ef,62a4426628846c6c07142dba,,,,,,,,,,,,,,,,,,,,,,,,,,,,,,,,,,,,,,,,,,,,,,,,,,,,,,,,,,,,,,,,,,,,,,,,,,,,0,0,0,0,1,,,,,,,,,,,,,,,,,,,,,
,,,,,,,,,,,,606c8251cc2f9b7aa4224814,53,Kobieta,2022-06-11_08h31.26.366,task,2021.1.4,Win32,59.22416346,6299f149e92ead563fba08ef,62a4426628846c6c07142dba,,,,,,,,,,,,,5,,,,,,,,,,Task,29,(3x8) - 19 ,5,,,,,,,,,,,,,,,,,,,1,,,,,,,,,,,,,,,,,,,,,,,"[""5""]",1,0,0,0,28,1,[5.232799999952363],,,,,,,,,,,,,,,,,,,,,,,,,,
,,,,,,,,,,,X V Q F H G B L J M P D K C T S W R N Z,606c8251cc2f9b7aa4224814,53,Kobieta,2022-06-11_08h31.26.366,task,2021.1.4,Win32,59.22416346,6299f149e92ead563fba08ef,62a4426628846c6c07142dba,,,,,,,,,,,,,,,,,,,,,,,,,,,,,,,,,,,,,,,,,,,,,,,,,,,,,,,,,,,,,,,,,,,,,,,,,,,,1,0,1,0,1,,,,,,,,,,,,,,,,,,,,,
,,,,,,,,,,,,606c8251cc2f9b7aa4224814,53,Kobieta,2022-06-11_08h31.26.366,task,2021.1.4,Win32,59.22416346,6299f149e92ead563fba08ef,62a4426628846c6c07142dba,,,,,,,,,,,,,2,,,,,,,,,,Task,2,(2x2) - 2,2,,,,,,,,,,,,,,,,,,,1,,,,,,,,,,,,,,,,,,,,,,,"[""2""]",1,0,0,0,1,1,[2.405999999999949],,,,,,,,,,,,,,,,,,,,,,,,,,
,,,,,,,,,,,X V Q F H G B L J M P D K C T S W R N Z,606c8251cc2f9b7aa4224814,53,Kobieta,2022-06-11_08h31.26.366,task,2021.1.4,Win32,59.22416346,6299f149e92ead563fba08ef,62a4426628846c6c07142dba,,,,,,,,,,,,,,,,,,,,,,,,,,,,,,,,,,,,,,,,,,,,,,,,,,,,,,,,,,,,,,,,,,,,,,,,,,,,2,0,2,0,1,,,,,,,,,,,,,,,,,,,,,
,,,,,,,,,,,,606c8251cc2f9b7aa4224814,53,Kobieta,2022-06-11_08h31.26.366,task,2021.1.4,Win32,59.22416346,6299f149e92ead563fba08ef,62a4426628846c6c07142dba,,,,,,,,,,,,,3,,,,,,,,,,Task,3,(2x3) - 3,3,,,,,,,,,,,,,,,,,,,1,,,,,,,,,,,,,,,,,,,,,,,"[""3""]",1,0,0,0,2,1,[4.6740999999046835],,,,,,,,,,,,,,,,,,,,,,,,,,
,,,,,,,,,,,X V Q F H G B L J M P D K C T S W R N Z,606c8251cc2f9b7aa4224814,53,Kobieta,2022-06-11_08h31.26.366,task,2021.1.4,Win32,59.22416346,6299f149e92ead563fba08ef,62a4426628846c6c07142dba,,,,,,,,,,,,,,,,,,,,,,,,,,,,,,,,,,,,,,,,,,,,,,,,,,,,,,,,,,,,,,,,,,,,,,,,,,,,3,0,3,0,1,,,,,,,,,,,,,,,,,,,,,
,,,,,,,,,,,,606c8251cc2f9b7aa4224814,53,Kobieta,2022-06-11_08h31.26.366,task,2021.1.4,Win32,59.22416346,6299f149e92ead563fba08ef,62a4426628846c6c07142dba,,,,,,,,,,,,,9,,,,,,,,,,Task,7,(3x7) - 12,9,,,,,,,,,,,,,,,,,,,1,,,,,,,,,,,,,,,,,,,,,,,"[""9""]",1,0,0,0,6,1,[5.051600000143139],,,,,,,,,,,,,,,,,,,,,,,,,,
,,,,,,,,,,,X V Q F H G B L J M P D K C T S W R N Z,606c8251cc2f9b7aa4224814,53,Kobieta,2022-06-11_08h31.26.366,task,2021.1.4,Win32,59.22416346,6299f149e92ead563fba08ef,62a4426628846c6c07142dba,,,,,,,,,,,,,,,,,,,,,,,,,,,,,,,,,,,,,,,,,,,,,,,,,,,,,,,,,,,,,,,,,,,,,,,,,,,,4,0,4,0,1,,,,,,,,,,,,,,,,,,,,,
,,,,,,,,,,,,606c8251cc2f9b7aa4224814,53,Kobieta,2022-06-11_08h31.26.366,task,2021.1.4,Win32,59.22416346,6299f149e92ead563fba08ef,62a4426628846c6c07142dba,,,,,,,,,,,,,3,,,,,,,,,,Task,27,(3/3) + 2,3,,,,,,,,,,,,,,,,,,,1,,,,,,,,,,,,,,,,,,,,,,,"[""3""]",1,0,0,0,26,1,[3.261600000143062],,,,,,,,,,,,,,,,,,,,,,,,,,
,,,,,,,,,,,X V Q F H G B L J M P D K C T S W R N Z,606c8251cc2f9b7aa4224814,53,Kobieta,2022-06-11_08h31.26.366,task,2021.1.4,Win32,59.22416346,6299f149e92ead563fba08ef,62a4426628846c6c07142dba,,,,,,,,,,,,,,,,,,,,,,,,,,,,,,,,,,,,,,,,,,,,,,,,,,,,,,,,,,,,,,,,,,,,,,,,,,,,5,0,5,0,1,,,,,,,,,,,,,,,,,,,,,
,,,,,,,,,,,,606c8251cc2f9b7aa4224814,53,Kobieta,2022-06-11_08h31.26.366,task,2021.1.4,Win32,59.22416346,6299f149e92ead563fba08ef,62a4426628846c6c07142dba,,,,,,,,,,,,,6,,,,,,,,,,Task,13,(3x4) - 6,6,,,,,,,,,,,,,,,,,,,1,,,,,,,,,,,,,,,,,,,,,,,"[""6""]",1,0,0,0,12,1,[2.9115000000000464],,,,,,,,,,,,,,,,,,,,,,,,,,
,,,,,,,,,,,X V Q F H G B L J M P D K C T S W R N Z,606c8251cc2f9b7aa4224814,53,Kobieta,2022-06-11_08h31.26.366,task,2021.1.4,Win32,59.22416346,6299f149e92ead563fba08ef,62a4426628846c6c07142dba,,,,,,,,,,,,,,,,,,,,,,,,,,,,,,,,,,,,,,,,,,,,,,,,,,,,,,,,,,,,,,,,,,,,,,,,,,,,6,0,6,0,1,,,,,,,,,,,,,,,,,,,,,
,,,,,,,,,,,,606c8251cc2f9b7aa4224814,53,Kobieta,2022-06-11_08h31.26.366,task,2021.1.4,Win32,59.22416346,6299f149e92ead563fba08ef,62a4426628846c6c07142dba,,,,,,,,,,,,,7,,,,,,,,,,Task,30,(6/3) + 4 ,6,,,,,,,,,,,,,,,,,,,0,,,,,,,,,,,,,,,,,,,,,,,"[""7""]",0,0,0,0,29,1,[3.660299999952258],,,,,,,,,,,,,,,,,,,,,,,,,,
,,,,,,,,,,,,606c8251cc2f9b7aa4224814,53,Kobieta,2022-06-11_08h31.26.366,task,2021.1.4,Win32,59.22416346,6299f149e92ead563fba08ef,62a4426628846c6c07142dba,,,,,,,,,,,,,1,,,,,,,,,,Task,9,(3x7) - 20,1,,,,,,,,,,,,,,,,,,,1,,,,,,,,,,,,,,,,,,,,,,,"[""1""]",1,0,1,1,8,1,[2.683499999999981],,,,,,,,,,,,,,,,,,,,,,,,,,
,,,,,,,,,,,X V Q F H G B L J M P D K C T S W R N Z,606c8251cc2f9b7aa4224814,53,Kobieta,2022-06-11_08h31.26.366,task,2021.1.4,Win32,59.22416346,6299f149e92ead563fba08ef,62a4426628846c6c07142dba,,,,,,,,,,,,,,,,,,,,,,,,,,,,,,,,,,,,,,,,,,,,,,,,,,,,,,,,,,,,,,,,,,,,,,,,,,,,7,0,7,0,1,,,,,,,,,,,,,,,,,,,,,
,,,,,,,,,,,,606c8251cc2f9b7aa4224814,53,Kobieta,2022-06-11_08h31.26.366,task,2021.1.4,Win32,59.22416346,6299f149e92ead563fba08ef,62a4426628846c6c07142dba,,,,,,,,,,,,,7,,,,,,,,,,Task,30,(6/3) + 4 ,6,,,,,,,,,,,,,,,,,,,0,,,,,,,,,,,,,,,,,,,,,,,"[""7""]",0,0,0,0,29,1,[4.759400000095411],,,,,,,,,,,,,,,,,,,,,,,,,,
,,,,,,,,,,,,606c8251cc2f9b7aa4224814,53,Kobieta,2022-06-11_08h31.26.366,task,2021.1.4,Win32,59.22416346,6299f149e92ead563fba08ef,62a4426628846c6c07142dba,,,,,,,,,,,,,4,,,,,,,,,,Task,28,(2x5) - 6,4,,,,,,,,,,,,,,,,,,,1,,,,,,,,,,,,,,,,,,,,,,,"[""4""]",1,0,1,1,27,1,[3.6469999999999345],,,,,,,,,,,,,,,,,,,,,,,,,,
,,,,,,,,,,,X V Q F H G B L J M P D K C T S W R N Z,606c8251cc2f9b7aa4224814,53,Kobieta,2022-06-11_08h31.26.366,task,2021.1.4,Win32,59.22416346,6299f149e92ead563fba08ef,62a4426628846c6c07142dba,,,,,,,,,,,,,,,,,,,,,,,,,,,,,,,,,,,,,,,,,,,,,,,,,,,,,,,,,,,,,,,,,,,,,,,,,,,,8,0,8,0,1,,,,,,,,,,,,,,,,,,,,,
,,,,,,,,,,,,606c8251cc2f9b7aa4224814,53,Kobieta,2022-06-11_08h31.26.366,task,2021.1.4,Win32,59.22416346,6299f149e92ead563fba08ef,62a4426628846c6c07142dba,,,,,,,,,,,,,,,,,,,,,,,,,,,,,,,,,,,,,,,,,,,,,,,,,,,,,,,,,,,,,,,,,,,,,,,,,,,,,,,,,qcpvwwkdv,"[""q"",""c"",""p"",""v"",""w"",""w"",""k"",""d"",""v""]",0,"[3.485699999809185,4.04229999995232,4.779399999856878,6.780899999856956,8.457299999952284,9.041699999809225,10.586599999904593,11.476899999856869,12.023399999856906,13.07869999980926]",1,QCPVWWKDV,8,0,8,0,1,,,,,,,,,,
,,,,,,,,,,,,606c8251cc2f9b7aa4224814,53,Kobieta,2022-06-11_08h31.26.366,task,2021.1.4,Win32,59.22416346,6299f149e92ead563fba08ef,62a4426628846c6c07142dba,,,,,,,,,,,,,6,,,,,,,,,,Task,30,(6/3) + 4 ,6,,,,,,,,,,,,,,,,,,,1,,,,,,,,,,,,,,,,,,,,,,,"[""6""]",1,0,0,0,29,1,[4.157899999856909],,,,,,,,,,,,,,,,,,,,,,,,,,
,,,,,,,,,,,X V Q F H G B L J M P D K C T S W R N Z,606c8251cc2f9b7aa4224814,53,Kobieta,2022-06-11_08h31.26.366,task,2021.1.4,Win32,59.22416346,6299f149e92ead563fba08ef,62a4426628846c6c07142dba,,,,,,,,,,,,,,,,,,,,,,,,,,,,,,,,,,,,,,,,,,,,,,,,,,,,,,,,,,,,,,,,,,,,,,,,,,,,0,0,0,0,1,,,,,,,,,,,,,,,,,,,,,
,,,,,,,,,,,,606c8251cc2f9b7aa4224814,53,Kobieta,2022-06-11_08h31.26.366,task,2021.1.4,Win32,59.22416346,6299f149e92ead563fba08ef,62a4426628846c6c07142dba,,,,,,,,,,,,,3,,,,,,,,,,Task,16,(3x8) - 15,9,,,,,,,,,,,,,,,,,,,0,,,,,,,,,,,,,,,,,,,,,,,"[""3""]",0,0,0,0,15,1,[2.7877999999523126],,,,,,,,,,,,,,,,,,,,,,,,,,
,,,,,,,,,,,,606c8251cc2f9b7aa4224814,53,Kobieta,2022-06-11_08h31.26.366,task,2021.1.4,Win32,59.22416346,6299f149e92ead563fba08ef,62a4426628846c6c07142dba,,,,,,,,,,,,,2,,,,,,,,,,Task,19,(6/2) - 1,2,,,,,,,,,,,,,,,,,,,1,,,,,,,,,,,,,,,,,,,,,,,"[""2""]",1,0,1,1,18,1,[5.664299999952277],,,,,,,,,,,,,,,,,,,,,,,,,,
,,,,,,,,,,,X V Q F H G B L J M P D K C T S W R N Z,606c8251cc2f9b7aa4224814,53,Kobieta,2022-06-11_08h31.26.366,task,2021.1.4,Win32,59.22416346,6299f149e92ead563fba08ef,62a4426628846c6c07142dba,,,,,,,,,,,,,,,,,,,,,,,,,,,,,,,,,,,,,,,,,,,,,,,,,,,,,,,,,,,,,,,,,,,,,,,,,,,,1,0,1,0,1,,,,,,,,,,,,,,,,,,,,,
,,,,,,,,,,,,606c8251cc2f9b7aa4224814,53,Kobieta,2022-06-11_08h31.26.366,task,2021.1.4,Win32,59.22416346,6299f149e92ead563fba08ef,62a4426628846c6c07142dba,,,,,,,,,,,,,8,,,,,,,,,,Task,39,(5x3) - 7,8,,,,,,,,,,,,,,,,,,,1,,,,,,,,,,,,,,,,,,,,,,,"[""8""]",1,0,0,0,38,1,[2.8189000000953683],,,,,,,,,,,,,,,,,,,,,,,,,,
,,,,,,,,,,,X V Q F H G B L J M P D K C T S W R N Z,606c8251cc2f9b7aa4224814,53,Kobieta,2022-06-11_08h31.26.366,task,2021.1.4,Win32,59.22416346,6299f149e92ead563fba08ef,62a4426628846c6c07142dba,,,,,,,,,,,,,,,,,,,,,,,,,,,,,,,,,,,,,,,,,,,,,,,,,,,,,,,,,,,,,,,,,,,,,,,,,,,,2,0,2,0,1,,,,,,,,,,,,,,,,,,,,,
,,,,,,,,,,,,606c8251cc2f9b7aa4224814,53,Kobieta,2022-06-11_08h31.26.366,task,2021.1.4,Win32,59.22416346,6299f149e92ead563fba08ef,62a4426628846c6c07142dba,,,,,,,,,,,,,2,,,,,,,,,,Task,19,(6/2) - 1,2,,,,,,,,,,,,,,,,,,,1,,,,,,,,,,,,,,,,,,,,,,,"[""2""]",1,0,0,0,18,1,[4.502900000095337],,,,,,,,,,,,,,,,,,,,,,,,,,
,,,,,,,,,,,X V Q F H G B L J M P D K C T S W R N Z,606c8251cc2f9b7aa4224814,53,Kobieta,2022-06-11_08h31.26.366,task,2021.1.4,Win32,59.22416346,6299f149e92ead563fba08ef,62a4426628846c6c07142dba,,,,,,,,,,,,,,,,,,,,,,,,,,,,,,,,,,,,,,,,,,,,,,,,,,,,,,,,,,,,,,,,,,,,,,,,,,,,3,0,3,0,1,,,,,,,,,,,,,,,,,,,,,
,,,,,,,,,,,,606c8251cc2f9b7aa4224814,53,Kobieta,2022-06-11_08h31.26.366,task,2021.1.4,Win32,59.22416346,6299f149e92ead563fba08ef,62a4426628846c6c07142dba,,,,,,,,,,,,,9,,,,,,,,,,Task,7,(3x7) - 12,9,,,,,,,,,,,,,,,,,,,1,,,,,,,,,,,,,,,,,,,,,,,"[""9""]",1,0,0,0,6,1,[3.754199999809316],,,,,,,,,,,,,,,,,,,,,,,,,,
,,,,,,,,,,,X V Q F H G B L J M P D K C T S W R N Z,606c8251cc2f9b7aa4224814,53,Kobieta,2022-06-11_08h31.26.366,task,2021.1.4,Win32,59.22416346,6299f149e92ead563fba08ef,62a4426628846c6c07142dba,,,,,,,,,,,,,,,,,,,,,,,,,,,,,,,,,,,,,,,,,,,,,,,,,,,,,,,,,,,,,,,,,,,,,,,,,,,,4,0,4,0,1,,,,,,,,,,,,,,,,,,,,,
,,,,,,,,,,,,606c8251cc2f9b7aa4224814,53,Kobieta,2022-06-11_08h31.26.366,task,2021.1.4,Win32,59.22416346,6299f149e92ead563fba08ef,62a4426628846c6c07142dba,,,,,,,,,,,,,7,,,,,,,,,,Task,38,(4x6) - 17,7,,,,,,,,,,,,,,,,,,,1,,,,,,,,,,,,,,,,,,,,,,,"[""7""]",1,0,0,0,37,1,[6.601799999952277],,,,,,,,,,,,,,,,,,,,,,,,,,
,,,,,,,,,,,X V Q F H G B L J M P D K C T S W R N Z,606c8251cc2f9b7aa4224814,53,Kobieta,2022-06-11_08h31.26.366,task,2021.1.4,Win32,59.22416346,6299f149e92ead563fba08ef,62a4426628846c6c07142dba,,,,,,,,,,,,,,,,,,,,,,,,,,,,,,,,,,,,,,,,,,,,,,,,,,,,,,,,,,,,,,,,,,,,,,,,,,,,5,0,5,0,1,,,,,,,,,,,,,,,,,,,,,
,,,,,,,,,,,,606c8251cc2f9b7aa4224814,53,Kobieta,2022-06-11_08h31.26.366,task,2021.1.4,Win32,59.22416346,6299f149e92ead563fba08ef,62a4426628846c6c07142dba,,,,,,,,,,,,,2,,,,,,,,,,Task,10,(2x5) - 8,2,,,,,,,,,,,,,,,,,,,1,,,,,,,,,,,,,,,,,,,,,,,"[""2""]",1,0,0,0,9,1,[2.370199999809188],,,,,,,,,,,,,,,,,,,,,,,,,,
,,,,,,,,,,,X V Q F H G B L J M P D K C T S W R N Z,606c8251cc2f9b7aa4224814,53,Kobieta,2022-06-11_08h31.26.366,task,2021.1.4,Win32,59.22416346,6299f149e92ead563fba08ef,62a4426628846c6c07142dba,,,,,,,,,,,,,,,,,,,,,,,,,,,,,,,,,,,,,,,,,,,,,,,,,,,,,,,,,,,,,,,,,,,,,,,,,,,,6,0,6,0,1,,,,,,,,,,,,,,,,,,,,,
,,,,,,,,,,,,606c8251cc2f9b7aa4224814,53,Kobieta,2022-06-11_08h31.26.366,task,2021.1.4,Win32,59.22416346,6299f149e92ead563fba08ef,62a4426628846c6c07142dba,,,,,,,,,,,,,6,,,,,,,,,,Task,37,(3/3) + 5,6,,,,,,,,,,,,,,,,,,,1,,,,,,,,,,,,,,,,,,,,,,,"[""6""]",1,0,0,0,36,1,[2.6630999999046026],,,,,,,,,,,,,,,,,,,,,,,,,,
,,,,,,,,,,,X V Q F H G B L J M P D K C T S W R N Z,606c8251cc2f9b7aa4224814,53,Kobieta,2022-06-11_08h31.26.366,task,2021.1.4,Win32,59.22416346,6299f149e92ead563fba08ef,62a4426628846c6c07142dba,,,,,,,,,,,,,,,,,,,,,,,,,,,,,,,,,,,,,,,,,,,,,,,,,,,,,,,,,,,,,,,,,,,,,,,,,,,,7,0,7,0,1,,,,,,,,,,,,,,,,,,,,,
,,,,,,,,,,,,606c8251cc2f9b7aa4224814,53,Kobieta,2022-06-11_08h31.26.366,task,2021.1.4,Win32,59.22416346,6299f149e92ead563fba08ef,62a4426628846c6c07142dba,,,,,,,,,,,,,4,,,,,,,,,,Task,4,(1x5) - 1,4,,,,,,,,,,,,,,,,,,,1,,,,,,,,,,,,,,,,,,,,,,,"[""4""]",1,0,0,0,3,1,[2.1932999999523872],,,,,,,,,,,,,,,,,,,,,,,,,,
,,,,,,,,,,,X V Q F H G B L J M P D K C T S W R N Z,606c8251cc2f9b7aa4224814,53,Kobieta,2022-06-11_08h31.26.366,task,2021.1.4,Win32,59.22416346,6299f149e92ead563fba08ef,62a4426628846c6c07142dba,,,,,,,,,,,,,,,,,,,,,,,,,,,,,,,,,,,,,,,,,,,,,,,,,,,,,,,,,,,,,,,,,,,,,,,,,,,,8,0,8,0,1,,,,,,,,,,,,,,,,,,,,,
,,,,,,,,,,,,606c8251cc2f9b7aa4224814,53,Kobieta,2022-06-11_08h31.26.366,task,2021.1.4,Win32,59.22416346,6299f149e92ead563fba08ef,62a4426628846c6c07142dba,,,,,,,,,,,,,8,,,,,,,,,,Task,23,(2x3) + 2,8,,,,,,,,,,,,,,,,,,,1,,,,,,,,,,,,,,,,,,,,,,,"[""8""]",1,0,0,0,22,1,[4.086799999952291],,,,,,,,,,,,,,,,,,,,,,,,,,
,,,,,,,,,,,X V Q F H G B L J M P D K C T S W R N Z,606c8251cc2f9b7aa4224814,53,Kobieta,2022-06-11_08h31.26.366,task,2021.1.4,Win32,59.22416346,6299f149e92ead563fba08ef,62a4426628846c6c07142dba,,,,,,,,,,,,,,,,,,,,,,,,,,,,,,,,,,,,,,,,,,,,,,,,,,,,,,,,,,,,,,,,,,,,,,,,,,,,9,0,9,0,1,,,,,,,,,,,,,,,,,,,,,
,,,,,,,,,,,,606c8251cc2f9b7aa4224814,53,Kobieta,2022-06-11_08h31.26.366,task,2021.1.4,Win32,59.22416346,6299f149e92ead563fba08ef,62a4426628846c6c07142dba,,,,,,,,,,,,,,,,,,,,,,,,,,,,,,,,,,,,,,,,,,,,,,,,,,,,,,,,,,,,,,,,,,,,,,,,,,,,,,,,,fdlpclmlgp,"[""f"",""d"",""l"",""p"",""c"",""l"",""m"",""l"",""g"",""p""]",0,"[4.144999999999982,4.560499999999934,5.11749999999995,8.37740000009535,8.859900000095308,9.114400000095316,12.188299999952278,12.689599999904544,13.15570000004766,14.36340000009534,14.974799999952324]",1,FDLPCLMLGP,9,0,9,0,1,,,,,,,,,,
,,,,,,,,,,,,606c8251cc2f9b7aa4224814,53,Kobieta,2022-06-11_08h31.26.366,task,2021.1.4,Win32,59.22416346,6299f149e92ead563fba08ef,62a4426628846c6c07142dba,,,,,,,,,,,,,9,,,,,,,,,,Task,24,(2x2) + 5,9,,,,,,,,,,,,,,,,,,,1,,,,,,,,,,,,,,,,,,,,,,,"[""9""]",1,0,0,0,23,1,[4.56899999999996],,,,,,,,,,,,,,,,,,,,,,,,,,
,,,,,,,,,,,X V Q F H G B L J M P D K C T S W R N Z,606c8251cc2f9b7aa4224814,53,Kobieta,2022-06-11_08h31.26.366,task,2021.1.4,Win32,59.22416346,6299f149e92ead563fba08ef,62a4426628846c6c07142dba,,,,,,,,,,,,,,,,,,,,,,,,,,,,,,,,,,,,,,,,,,,,,,,,,,,,,,,,,,,,,,,,,,,,,,,,,,,,0,0,0,0,1,,,,,,,,,,,,,,,,,,,,,
,,,,,,,,,,,,606c8251cc2f9b7aa4224814,53,Kobieta,2022-06-11_08h31.26.366,task,2021.1.4,Win32,59.22416346,6299f149e92ead563fba08ef,62a4426628846c6c07142dba,,,,,,,,,,,,,4,,,,,,,,,,Task,4,(1x5) - 1,4,,,,,,,,,,,,,,,,,,,1,,,,,,,,,,,,,,,,,,,,,,,"[""4""]",1,0,0,0,3,1,[2.3824999999999363],,,,,,,,,,,,,,,,,,,,,,,,,,
,,,,,,,,,,,X V Q F H G B L J M P D K C T S W R N Z,606c8251cc2f9b7aa4224814,53,Kobieta,2022-06-11_08h31.26.366,task,2021.1.4,Win32,59.22416346,6299f149e92ead563fba08ef,62a4426628846c6c07142dba,,,,,,,,,,,,,,,,,,,,,,,,,,,,,,,,,,,,,,,,,,,,,,,,,,,,,,,,,,,,,,,,,,,,,,,,,,,,1,0,1,0,1,,,,,,,,,,,,,,,,,,,,,
,,,,,,,,,,,,606c8251cc2f9b7aa4224814,53,Kobieta,2022-06-11_08h31.26.366,task,2021.1.4,Win32,59.22416346,6299f149e92ead563fba08ef,62a4426628846c6c07142dba,,,,,,,,,,,,,1,,,,,,,,,,Task,34,(9/3) - 2,1,,,,,,,,,,,,,,,,,,,1,,,,,,,,,,,,,,,,,,,,,,,"[""1""]",1,0,0,0,33,1,[3.55470000004766],,,,,,,,,,,,,,,,,,,,,,,,,,
,,,,,,,,,,,X V Q F H G B L J M P D K C T S W R N Z,606c8251cc2f9b7aa4224814,53,Kobieta,2022-06-11_08h31.26.366,task,2021.1.4,Win32,59.22416346,6299f149e92ead563fba08ef,62a4426628846c6c07142dba,,,,,,,,,,,,,,,,,,,,,,,,,,,,,,,,,,,,,,,,,,,,,,,,,,,,,,,,,,,,,,,,,,,,,,,,,,,,2,0,2,0,1,,,,,,,,,,,,,,,,,,,,,
,,,,,,,,,,,,606c8251cc2f9b7aa4224814,53,Kobieta,2022-06-11_08h31.26.366,task,2021.1.4,Win32,59.22416346,6299f149e92ead563fba08ef,62a4426628846c6c07142dba,,,,,,,,,,,,,4,,,,,,,,,,Task,4,(1x5) - 1,4,,,,,,,,,,,,,,,,,,,1,,,,,,,,,,,,,,,,,,,,,,,"[""4""]",1,0,0,0,3,1,[2.4664999999999964],,,,,,,,,,,,,,,,,,,,,,,,,,
,,,,,,,,,,,X V Q F H G B L J M P D K C T S W R N Z,606c8251cc2f9b7aa4224814,53,Kobieta,2022-06-11_08h31.26.366,task,2021.1.4,Win32,59.22416346,6299f149e92ead563fba08ef,62a4426628846c6c07142dba,,,,,,,,,,,,,,,,,,,,,,,,,,,,,,,,,,,,,,,,,,,,,,,,,,,,,,,,,,,,,,,,,,,,,,,,,,,,3,0,3,0,1,,,,,,,,,,,,,,,,,,,,,
,,,,,,,,,,,,606c8251cc2f9b7aa4224814,53,Kobieta,2022-06-11_08h31.26.366,task,2021.1.4,Win32,59.22416346,6299f149e92ead563fba08ef,62a4426628846c6c07142dba,,,,,,,,,,,,,8,,,,,,,,,,Task,15,(3x7) - 13,8,,,,,,,,,,,,,,,,,,,1,,,,,,,,,,,,,,,,,,,,,,,"[""8""]",1,0,0,0,14,1,[4.194999999999936],,,,,,,,,,,,,,,,,,,,,,,,,,
,,,,,,,,,,,X V Q F H G B L J M P D K C T S W R N Z,606c8251cc2f9b7aa4224814,53,Kobieta,2022-06-11_08h31.26.366,task,2021.1.4,Win32,59.22416346,6299f149e92ead563fba08ef,62a4426628846c6c07142dba,,,,,,,,,,,,,,,,,,,,,,,,,,,,,,,,,,,,,,,,,,,,,,,,,,,,,,,,,,,,,,,,,,,,,,,,,,,,4,0,4,0,1,,,,,,,,,,,,,,,,,,,,,
,,,,,,,,,,,,606c8251cc2f9b7aa4224814,53,Kobieta,2022-06-11_08h31.26.366,task,2021.1.4,Win32,59.22416346,6299f149e92ead563fba08ef,62a4426628846c6c07142dba,,,,,,,,,,,,,2,,,,,,,,,,Task,2,(2x2) - 2,2,,,,,,,,,,,,,,,,,,,1,,,,,,,,,,,,,,,,,,,,,,,"[""2""]",1,0,0,0,1,1,[3.286599999904638],,,,,,,,,,,,,,,,,,,,,,,,,,
,,,,,,,,,,,X V Q F H G B L J M P D K C T S W R N Z,606c8251cc2f9b7aa4224814,53,Kobieta,2022-06-11_08h31.26.366,task,2021.1.4,Win32,59.22416346,6299f149e92ead563fba08ef,62a4426628846c6c07142dba,,,,,,,,,,,,,,,,,,,,,,,,,,,,,,,,,,,,,,,,,,,,,,,,,,,,,,,,,,,,,,,,,,,,,,,,,,,,5,0,5,0,1,,,,,,,,,,,,,,,,,,,,,
,,,,,,,,,,,,606c8251cc2f9b7aa4224814,53,Kobieta,2022-06-11_08h31.26.366,task,2021.1.4,Win32,59.22416346,6299f149e92ead563fba08ef,62a4426628846c6c07142dba,,,,,,,,,,,,,3,,,,,,,,,,Task,20,(18/9) + 1,3,,,,,,,,,,,,,,,,,,,1,,,,,,,,,,,,,,,,,,,,,,,"[""3""]",1,0,0,0,19,1,[3.7067999999522954],,,,,,,,,,,,,,,,,,,,,,,,,,
,,,,,,,,,,,X V Q F H G B L J M P D K C T S W R N Z,606c8251cc2f9b7aa4224814,53,Kobieta,2022-06-11_08h31.26.366,task,2021.1.4,Win32,59.22416346,6299f149e92ead563fba08ef,62a4426628846c6c07142dba,,,,,,,,,,,,,,,,,,,,,,,,,,,,,,,,,,,,,,,,,,,,,,,,,,,,,,,,,,,,,,,,,,,,,,,,,,,,6,0,6,0,1,,,,,,,,,,,,,,,,,,,,,
,,,,,,,,,,,,606c8251cc2f9b7aa4224814,53,Kobieta,2022-06-11_08h31.26.366,task,2021.1.4,Win32,59.22416346,6299f149e92ead563fba08ef,62a4426628846c6c07142dba,,,,,,,,,,,,,3,,,,,,,,,,Task,35,(1x2) + 1,3,,,,,,,,,,,,,,,,,,,1,,,,,,,,,,,,,,,,,,,,,,,"[""3""]",1,0,0,0,34,1,[2.7454999999999927],,,,,,,,,,,,,,,,,,,,,,,,,,
,,,,,,,,,,,X V Q F H G B L J M P D K C T S W R N Z,606c8251cc2f9b7aa4224814,53,Kobieta,2022-06-11_08h31.26.366,task,2021.1.4,Win32,59.22416346,6299f149e92ead563fba08ef,62a4426628846c6c07142dba,,,,,,,,,,,,,,,,,,,,,,,,,,,,,,,,,,,,,,,,,,,,,,,,,,,,,,,,,,,,,,,,,,,,,,,,,,,,7,0,7,0,1,,,,,,,,,,,,,,,,,,,,,
,,,,,,,,,,,,606c8251cc2f9b7aa4224814,53,Kobieta,2022-06-11_08h31.26.366,task,2021.1.4,Win32,59.22416346,6299f149e92ead563fba08ef,62a4426628846c6c07142dba,,,,,,,,,,,,,3,,,,,,,,,,Task,27,(3/3) + 2,3,,,,,,,,,,,,,,,,,,,1,,,,,,,,,,,,,,,,,,,,,,,"[""3""]",1,0,0,0,26,1,[2.8005000000000564],,,,,,,,,,,,,,,,,,,,,,,,,,
,,,,,,,,,,,X V Q F H G B L J M P D K C T S W R N Z,606c8251cc2f9b7aa4224814,53,Kobieta,2022-06-11_08h31.26.366,task,2021.1.4,Win32,59.22416346,6299f149e92ead563fba08ef,62a4426628846c6c07142dba,,,,,,,,,,,,,,,,,,,,,,,,,,,,,,,,,,,,,,,,,,,,,,,,,,,,,,,,,,,,,,,,,,,,,,,,,,,,8,0,8,0,1,,,,,,,,,,,,,,,,,,,,,
,,,,,,,,,,,,606c8251cc2f9b7aa4224814,53,Kobieta,2022-06-11_08h31.26.366,task,2021.1.4,Win32,59.22416346,6299f149e92ead563fba08ef,62a4426628846c6c07142dba,,,,,,,,,,,,,1,,,,,,,,,,Task,9,(3x7) - 20,1,,,,,,,,,,,,,,,,,,,1,,,,,,,,,,,,,,,,,,,,,,,"[""1""]",1,0,0,0,8,1,[2.6200000000000045],,,,,,,,,,,,,,,,,,,,,,,,,,
,,,,,,,,,,,X V Q F H G B L J M P D K C T S W R N Z,606c8251cc2f9b7aa4224814,53,Kobieta,2022-06-11_08h31.26.366,task,2021.1.4,Win32,59.22416346,6299f149e92ead563fba08ef,62a4426628846c6c07142dba,,,,,,,,,,,,,,,,,,,,,,,,,,,,,,,,,,,,,,,,,,,,,,,,,,,,,,,,,,,,,,,,,,,,,,,,,,,,9,0,9,0,1,,,,,,,,,,,,,,,,,,,,,
,,,,,,,,,,,,606c8251cc2f9b7aa4224814,53,Kobieta,2022-06-11_08h31.26.366,task,2021.1.4,Win32,59.22416346,6299f149e92ead563fba08ef,62a4426628846c6c07142dba,,,,,,,,,,,,,5,,,,,,,,,,Task,36,(8/4) + 3,5,,,,,,,,,,,,,,,,,,,1,,,,,,,,,,,,,,,,,,,,,,,"[""5""]",1,0,0,0,35,1,[4.636700000047767],,,,,,,,,,,,,,,,,,,,,,,,,,
,,,,,,,,,,,X V Q F H G B L J M P D K C T S W R N Z,606c8251cc2f9b7aa4224814,53,Kobieta,2022-06-11_08h31.26.366,task,2021.1.4,Win32,59.22416346,6299f149e92ead563fba08ef,62a4426628846c6c07142dba,,,,,,,,,,,,,,,,,,,,,,,,,,,,,,,,,,,,,,,,,,,,,,,,,,,,,,,,,,,,,,,,,,,,,,,,,,,,10,0,10,0,1,,,,,,,,,,,,,,,,,,,,,
,,,,,,,,,,,,606c8251cc2f9b7aa4224814,53,Kobieta,2022-06-11_08h31.26.366,task,2021.1.4,Win32,59.22416346,6299f149e92ead563fba08ef,62a4426628846c6c07142dba,,,,,,,,,,,,,,,,,,,,,,,,,,,,,,,,,,,,,,,,,,,,,,,,,,,,,,,,,,,,,,,,,,,,,,,,,,,,,,,,,svsrznvlhfd,"[""s"",""v"",""s"",""r"",""z"",""n"",""v"",""l"",""h"",""f"",""d""]",0,"[4.031099999904654,4.342200000047683,4.671099999904641,7.910499999999956,8.998799999952325,9.379700000047706,12.98789999985695,13.666599999904633,14.188200000047686,16.00779999995234,16.45559999990462,17.38549999999998]",1,SVSRZNVLHFD,10,0,10,0,1,,,,,,,,,,
,,,,,,,,,,,,606c8251cc2f9b7aa4224814,53,Kobieta,2022-06-11_08h31.26.366,task,2021.1.4,Win32,59.22416346,6299f149e92ead563fba08ef,62a4426628846c6c07142dba,,,,,,,,,,,,,4,,,,,,,,,,Task,28,(2x5) - 6,4,,,,,,,,,,,,,,,,,,,1,,,,,,,,,,,,,,,,,,,,,,,"[""4""]",1,0,0,0,27,1,[3.0410000000000537],,,,,,,,,,,,,,,,,,,,,,,,,,
,,,,,,,,,,,X V Q F H G B L J M P D K C T S W R N Z,606c8251cc2f9b7aa4224814,53,Kobieta,2022-06-11_08h31.26.366,task,2021.1.4,Win32,59.22416346,6299f149e92ead563fba08ef,62a4426628846c6c07142dba,,,,,,,,,,,,,,,,,,,,,,,,,,,,,,,,,,,,,,,,,,,,,,,,,,,,,,,,,,,,,,,,,,,,,,,,,,,,0,0,0,0,1,,,,,,,,,,,,,,,,,,,,,
,,,,,,,,,,,,606c8251cc2f9b7aa4224814,53,Kobieta,2022-06-11_08h31.26.366,task,2021.1.4,Win32,59.22416346,6299f149e92ead563fba08ef,62a4426628846c6c07142dba,,,,,,,,,,,,,3,,,,,,,,,,Task,35,(1x2) + 1,3,,,,,,,,,,,,,,,,,,,1,,,,,,,,,,,,,,,,,,,,,,,"[""3""]",1,0,0,0,34,1,[2.739799999952311],,,,,,,,,,,,,,,,,,,,,,,,,,
,,,,,,,,,,,X V Q F H G B L J M P D K C T S W R N Z,606c8251cc2f9b7aa4224814,53,Kobieta,2022-06-11_08h31.26.366,task,2021.1.4,Win32,59.22416346,6299f149e92ead563fba08ef,62a4426628846c6c07142dba,,,,,,,,,,,,,,,,,,,,,,,,,,,,,,,,,,,,,,,,,,,,,,,,,,,,,,,,,,,,,,,,,,,,,,,,,,,,1,0,1,0,1,,,,,,,,,,,,,,,,,,,,,
,,,,,,,,,,,,606c8251cc2f9b7aa4224814,53,Kobieta,2022-06-11_08h31.26.366,task,2021.1.4,Win32,59.22416346,6299f149e92ead563fba08ef,62a4426628846c6c07142dba,,,,,,,,,,,,,3,,,,,,,,,,Task,3,(2x3) - 3,3,,,,,,,,,,,,,,,,,,,1,,,,,,,,,,,,,,,,,,,,,,,"[""3""]",1,0,0,0,2,1,[4.153200000047718],,,,,,,,,,,,,,,,,,,,,,,,,,
,,,,,,,,,,,X V Q F H G B L J M P D K C T S W R N Z,606c8251cc2f9b7aa4224814,53,Kobieta,2022-06-11_08h31.26.366,task,2021.1.4,Win32,59.22416346,6299f149e92ead563fba08ef,62a4426628846c6c07142dba,,,,,,,,,,,,,,,,,,,,,,,,,,,,,,,,,,,,,,,,,,,,,,,,,,,,,,,,,,,,,,,,,,,,,,,,,,,,2,0,2,0,1,,,,,,,,,,,,,,,,,,,,,
,,,,,,,,,,,,606c8251cc2f9b7aa4224814,53,Kobieta,2022-06-11_08h31.26.366,task,2021.1.4,Win32,59.22416346,6299f149e92ead563fba08ef,62a4426628846c6c07142dba,,,,,,,,,,,,,5,,,,,,,,,,Task,22,(3x1) + 2,5,,,,,,,,,,,,,,,,,,,1,,,,,,,,,,,,,,,,,,,,,,,"[""5""]",1,0,0,0,21,1,[2.625199999809297],,,,,,,,,,,,,,,,,,,,,,,,,,
,,,,,,,,,,,X V Q F H G B L J M P D K C T S W R N Z,606c8251cc2f9b7aa4224814,53,Kobieta,2022-06-11_08h31.26.366,task,2021.1.4,Win32,59.22416346,6299f149e92ead563fba08ef,62a4426628846c6c07142dba,,,,,,,,,,,,,,,,,,,,,,,,,,,,,,,,,,,,,,,,,,,,,,,,,,,,,,,,,,,,,,,,,,,,,,,,,,,,3,0,3,0,1,,,,,,,,,,,,,,,,,,,,,
,,,,,,,,,,,,606c8251cc2f9b7aa4224814,53,Kobieta,2022-06-11_08h31.26.366,task,2021.1.4,Win32,59.22416346,6299f149e92ead563fba08ef,62a4426628846c6c07142dba,,,,,,,,,,,,,7,,,,,,,,,,Task,14,(2x2) + 3,7,,,,,,,,,,,,,,,,,,,1,,,,,,,,,,,,,,,,,,,,,,,"[""7""]",1,0,0,0,13,1,[2.6682000000477046],,,,,,,,,,,,,,,,,,,,,,,,,,
,,,,,,,,,,,X V Q F H G B L J M P D K C T S W R N Z,606c8251cc2f9b7aa4224814,53,Kobieta,2022-06-11_08h31.26.366,task,2021.1.4,Win32,59.22416346,6299f149e92ead563fba08ef,62a4426628846c6c07142dba,,,,,,,,,,,,,,,,,,,,,,,,,,,,,,,,,,,,,,,,,,,,,,,,,,,,,,,,,,,,,,,,,,,,,,,,,,,,4,0,4,0,1,,,,,,,,,,,,,,,,,,,,,
,,,,,,,,,,,,606c8251cc2f9b7aa4224814,53,Kobieta,2022-06-11_08h31.26.366,task,2021.1.4,Win32,59.22416346,6299f149e92ead563fba08ef,62a4426628846c6c07142dba,,,,,,,,,,,,,2,,,,,,,,,,Task,2,(2x2) - 2,2,,,,,,,,,,,,,,,,,,,1,,,,,,,,,,,,,,,,,,,,,,,"[""2""]",1,0,0,0,1,1,[2.3869999999999436],,,,,,,,,,,,,,,,,,,,,,,,,,
,,,,,,,,,,,X V Q F H G B L J M P D K C T S W R N Z,606c8251cc2f9b7aa4224814,53,Kobieta,2022-06-11_08h31.26.366,task,2021.1.4,Win32,59.22416346,6299f149e92ead563fba08ef,62a4426628846c6c07142dba,,,,,,,,,,,,,,,,,,,,,,,,,,,,,,,,,,,,,,,,,,,,,,,,,,,,,,,,,,,,,,,,,,,,,,,,,,,,5,0,5,0,1,,,,,,,,,,,,,,,,,,,,,
,,,,,,,,,,,,606c8251cc2f9b7aa4224814,53,Kobieta,2022-06-11_08h31.26.366,task,2021.1.4,Win32,59.22416346,6299f149e92ead563fba08ef,62a4426628846c6c07142dba,,,,,,,,,,,,,8,,,,,,,,,,Task,23,(2x3) + 2,8,,,,,,,,,,,,,,,,,,,1,,,,,,,,,,,,,,,,,,,,,,,"[""8""]",1,0,0,0,22,1,[3.351600000143094],,,,,,,,,,,,,,,,,,,,,,,,,,
,,,,,,,,,,,X V Q F H G B L J M P D K C T S W R N Z,606c8251cc2f9b7aa4224814,53,Kobieta,2022-06-11_08h31.26.366,task,2021.1.4,Win32,59.22416346,6299f149e92ead563fba08ef,62a4426628846c6c07142dba,,,,,,,,,,,,,,,,,,,,,,,,,,,,,,,,,,,,,,,,,,,,,,,,,,,,,,,,,,,,,,,,,,,,,,,,,,,,6,0,6,0,1,,,,,,,,,,,,,,,,,,,,,
,,,,,,,,,,,,606c8251cc2f9b7aa4224814,53,Kobieta,2022-06-11_08h31.26.366,task,2021.1.4,Win32,59.22416346,6299f149e92ead563fba08ef,62a4426628846c6c07142dba,,,,,,,,,,,,,3,,,,,,,,,,Task,35,(1x2) + 1,3,,,,,,,,,,,,,,,,,,,1,,,,,,,,,,,,,,,,,,,,,,,"[""3""]",1,0,0,0,34,1,[3.1404999999999745],,,,,,,,,,,,,,,,,,,,,,,,,,
,,,,,,,,,,,X V Q F H G B L J M P D K C T S W R N Z,606c8251cc2f9b7aa4224814,53,Kobieta,2022-06-11_08h31.26.366,task,2021.1.4,Win32,59.22416346,6299f149e92ead563fba08ef,62a4426628846c6c07142dba,,,,,,,,,,,,,,,,,,,,,,,,,,,,,,,,,,,,,,,,,,,,,,,,,,,,,,,,,,,,,,,,,,,,,,,,,,,,7,0,7,0,1,,,,,,,,,,,,,,,,,,,,,
,,,,,,,,,,,,606c8251cc2f9b7aa4224814,53,Kobieta,2022-06-11_08h31.26.366,task,2021.1.4,Win32,59.22416346,6299f149e92ead563fba08ef,62a4426628846c6c07142dba,,,,,,,,,,,,,4,,,,,,,,,,Task,11,(18/3) - 2,4,,,,,,,,,,,,,,,,,,,1,,,,,,,,,,,,,,,,,,,,,,,"[""4""]",1,0,0,0,10,1,[3.4948000001907076],,,,,,,,,,,,,,,,,,,,,,,,,,
,,,,,,,,,,,X V Q F H G B L J M P D K C T S W R N Z,606c8251cc2f9b7aa4224814,53,Kobieta,2022-06-11_08h31.26.366,task,2021.1.4,Win32,59.22416346,6299f149e92ead563fba08ef,62a4426628846c6c07142dba,,,,,,,,,,,,,,,,,,,,,,,,,,,,,,,,,,,,,,,,,,,,,,,,,,,,,,,,,,,,,,,,,,,,,,,,,,,,8,0,8,0,1,,,,,,,,,,,,,,,,,,,,,
,,,,,,,,,,,,606c8251cc2f9b7aa4224814,53,Kobieta,2022-06-11_08h31.26.366,task,2021.1.4,Win32,59.22416346,6299f149e92ead563fba08ef,62a4426628846c6c07142dba,,,,,,,,,,,,,7,,,,,,,,,,Task,6,(12/2) + 1,7,,,,,,,,,,,,,,,,,,,1,,,,,,,,,,,,,,,,,,,,,,,"[""7""]",1,0,0,0,5,1,[2.4541999998093615],,,,,,,,,,,,,,,,,,,,,,,,,,
,,,,,,,,,,,X V Q F H G B L J M P D K C T S W R N Z,606c8251cc2f9b7aa4224814,53,Kobieta,2022-06-11_08h31.26.366,task,2021.1.4,Win32,59.22416346,6299f149e92ead563fba08ef,62a4426628846c6c07142dba,,,,,,,,,,,,,,,,,,,,,,,,,,,,,,,,,,,,,,,,,,,,,,,,,,,,,,,,,,,,,,,,,,,,,,,,,,,,9,0,9,0,1,,,,,,,,,,,,,,,,,,,,,
,,,,,,,,,,,,606c8251cc2f9b7aa4224814,53,Kobieta,2022-06-11_08h31.26.366,task,2021.1.4,Win32,59.22416346,6299f149e92ead563fba08ef,62a4426628846c6c07142dba,,,,,,,,,,,,,3,,,,,,,,,,Task,25,(10/5) - 2,0,,,,,,,,,,,,,,,,,,,0,,,,,,,,,,,,,,,,,,,,,,,"[""3""]",0,0,0,0,24,1,[3.4685999999046544],,,,,,,,,,,,,,,,,,,,,,,,,,
,,,,,,,,,,,,606c8251cc2f9b7aa4224814,53,Kobieta,2022-06-11_08h31.26.366,task,2021.1.4,Win32,59.22416346,6299f149e92ead563fba08ef,62a4426628846c6c07142dba,,,,,,,,,,,,,8,,,,,,,,,,Task,32,(8/2) + 4,8,,,,,,,,,,,,,,,,,,,1,,,,,,,,,,,,,,,,,,,,,,,"[""8""]",1,0,1,1,31,1,[4.4662000000477065],,,,,,,,,,,,,,,,,,,,,,,,,,
,,,,,,,,,,,X V Q F H G B L J M P D K C T S W R N Z,606c8251cc2f9b7aa4224814,53,Kobieta,2022-06-11_08h31.26.366,task,2021.1.4,Win32,59.22416346,6299f149e92ead563fba08ef,62a4426628846c6c07142dba,,,,,,,,,,,,,,,,,,,,,,,,,,,,,,,,,,,,,,,,,,,,,,,,,,,,,,,,,,,,,,,,,,,,,,,,,,,,10,0,10,0,1,,,,,,,,,,,,,,,,,,,,,
,,,,,,,,,,,,606c8251cc2f9b7aa4224814,53,Kobieta,2022-06-11_08h31.26.366,task,2021.1.4,Win32,59.22416346,6299f149e92ead563fba08ef,62a4426628846c6c07142dba,,,,,,,,,,,,,0,,,,,,,,,,Task,33,(1/1) - 1,0,,,,,,,,,,,,,,,,,,,1,,,,,,,,,,,,,,,,,,,,,,,"[""0""]",1,0,0,0,32,1,[3.9857000000477],,,,,,,,,,,,,,,,,,,,,,,,,,
,,,,,,,,,,,X V Q F H G B L J M P D K C T S W R N Z,606c8251cc2f9b7aa4224814,53,Kobieta,2022-06-11_08h31.26.366,task,2021.1.4,Win32,59.22416346,6299f149e92ead563fba08ef,62a4426628846c6c07142dba,,,,,,,,,,,,,,,,,,,,,,,,,,,,,,,,,,,,,,,,,,,,,,,,,,,,,,,,,,,,,,,,,,,,,,,,,,,,11,0,11,0,1,,,,,,,,,,,,,,,,,,,,,
,,,,,,,,,,,,606c8251cc2f9b7aa4224814,53,Kobieta,2022-06-11_08h31.26.366,task,2021.1.4,Win32,59.22416346,6299f149e92ead563fba08ef,62a4426628846c6c07142dba,,,,,,,,,,,,,,,,,,,,,,,,,,,,,,,,,,,,,,,,,,,,,,,,,,,,,,,,,,,,,,,,,,,,,,,,,,,,,,,,,rnccqrpmxmhcf,"[""r"",""n"",""c"",""c"",""q"",""r"",""p"",""m"",""x"",""m"",""h"",""c"",""f""]",0,"[4.041900000095438,4.577700000047571,5.222099999904685,5.512299999952347,8.710900000095307,9.226700000047686,9.616999999999962,13.74720000004777,16.72679999995239,16.920599999904653,20.354000000000042,20.88059999990469,21.605099999904724,22.64579999995226]",0,RNCQRPMXMHCF,11,0,11,0,1,,,,,,,,,,
,,,,,,,,,,,,606c8251cc2f9b7aa4224814,53,Kobieta,2022-06-11_08h31.26.366,task,2021.1.4,Win32,59.22416346,6299f149e92ead563fba08ef,62a4426628846c6c07142dba,,,,,,,,,,,,,2,,,,,,,,,,Task,19,(6/2) - 1,2,,,,,,,,,,,,,,,,,,,1,,,,,,,,,,,,,,,,,,,,,,,"[""2""]",1,0,0,0,18,1,[4.087599999904569],,,,,,,,,,,,,,,,,,,,,,,,,,
,,,,,,,,,,,X V Q F H G B L J M P D K C T S W R N Z,606c8251cc2f9b7aa4224814,53,Kobieta,2022-06-11_08h31.26.366,task,2021.1.4,Win32,59.22416346,6299f149e92ead563fba08ef,62a4426628846c6c07142dba,,,,,,,,,,,,,,,,,,,,,,,,,,,,,,,,,,,,,,,,,,,,,,,,,,,,,,,,,,,,,,,,,,,,,,,,,,,,0,0,0,0,1,,,,,,,,,,,,,,,,,,,,,
,,,,,,,,,,,,606c8251cc2f9b7aa4224814,53,Kobieta,2022-06-11_08h31.26.366,task,2021.1.4,Win32,59.22416346,6299f149e92ead563fba08ef,62a4426628846c6c07142dba,,,,,,,,,,,,,4,,,,,,,,,,Task,11,(18/3) - 2,4,,,,,,,,,,,,,,,,,,,1,,,,,,,,,,,,,,,,,,,,,,,"[""4""]",1,0,0,0,10,1,[3.2524000000953492],,,,,,,,,,,,,,,,,,,,,,,,,,
,,,,,,,,,,,X V Q F H G B L J M P D K C T S W R N Z,606c8251cc2f9b7aa4224814,53,Kobieta,2022-06-11_08h31.26.366,task,2021.1.4,Win32,59.22416346,6299f149e92ead563fba08ef,62a4426628846c6c07142dba,,,,,,,,,,,,,,,,,,,,,,,,,,,,,,,,,,,,,,,,,,,,,,,,,,,,,,,,,,,,,,,,,,,,,,,,,,,,1,0,1,0,1,,,,,,,,,,,,,,,,,,,,,
,,,,,,,,,,,,606c8251cc2f9b7aa4224814,53,Kobieta,2022-06-11_08h31.26.366,task,2021.1.4,Win32,59.22416346,6299f149e92ead563fba08ef,62a4426628846c6c07142dba,,,,,,,,,,,,,4,,,,,,,,,,Task,4,(1x5) - 1,4,,,,,,,,,,,,,,,,,,,1,,,,,,,,,,,,,,,,,,,,,,,"[""4""]",1,0,0,0,3,1,[2.456099999904609],,,,,,,,,,,,,,,,,,,,,,,,,,
,,,,,,,,,,,X V Q F H G B L J M P D K C T S W R N Z,606c8251cc2f9b7aa4224814,53,Kobieta,2022-06-11_08h31.26.366,task,2021.1.4,Win32,59.22416346,6299f149e92ead563fba08ef,62a4426628846c6c07142dba,,,,,,,,,,,,,,,,,,,,,,,,,,,,,,,,,,,,,,,,,,,,,,,,,,,,,,,,,,,,,,,,,,,,,,,,,,,,2,0,2,0,1,,,,,,,,,,,,,,,,,,,,,
,,,,,,,,,,,,606c8251cc2f9b7aa4224814,53,Kobieta,2022-06-11_08h31.26.366,task,2021.1.4,Win32,59.22416346,6299f149e92ead563fba08ef,62a4426628846c6c07142dba,,,,,,,,,,,,,9,,,,,,,,,,Task,24,(2x2) + 5,9,,,,,,,,,,,,,,,,,,,1,,,,,,,,,,,,,,,,,,,,,,,"[""9""]",1,0,0,0,23,1,[2.6973000001905802],,,,,,,,,,,,,,,,,,,,,,,,,,
,,,,,,,,,,,X V Q F H G B L J M P D K C T S W R N Z,606c8251cc2f9b7aa4224814,53,Kobieta,2022-06-11_08h31.26.366,task,2021.1.4,Win32,59.22416346,6299f149e92ead563fba08ef,62a4426628846c6c07142dba,,,,,,,,,,,,,,,,,,,,,,,,,,,,,,,,,,,,,,,,,,,,,,,,,,,,,,,,,,,,,,,,,,,,,,,,,,,,3,0,3,0,1,,,,,,,,,,,,,,,,,,,,,
,,,,,,,,,,,,606c8251cc2f9b7aa4224814,53,Kobieta,2022-06-11_08h31.26.366,task,2021.1.4,Win32,59.22416346,6299f149e92ead563fba08ef,62a4426628846c6c07142dba,,,,,,,,,,,,,2,,,,,,,,,,Task,10,(2x5) - 8,2,,,,,,,,,,,,,,,,,,,1,,,,,,,,,,,,,,,,,,,,,,,"[""2""]",1,0,0,0,9,1,[2.807600000143111],,,,,,,,,,,,,,,,,,,,,,,,,,
,,,,,,,,,,,X V Q F H G B L J M P D K C T S W R N Z,606c8251cc2f9b7aa4224814,53,Kobieta,2022-06-11_08h31.26.366,task,2021.1.4,Win32,59.22416346,6299f149e92ead563fba08ef,62a4426628846c6c07142dba,,,,,,,,,,,,,,,,,,,,,,,,,,,,,,,,,,,,,,,,,,,,,,,,,,,,,,,,,,,,,,,,,,,,,,,,,,,,4,0,4,0,1,,,,,,,,,,,,,,,,,,,,,
,,,,,,,,,,,,606c8251cc2f9b7aa4224814,53,Kobieta,2022-06-11_08h31.26.366,task,2021.1.4,Win32,59.22416346,6299f149e92ead563fba08ef,62a4426628846c6c07142dba,,,,,,,,,,,,,8,,,,,,,,,,Task,15,(3x7) - 13,8,,,,,,,,,,,,,,,,,,,1,,,,,,,,,,,,,,,,,,,,,,,"[""8""]",1,0,0,0,14,1,[5.581299999952307],,,,,,,,,,,,,,,,,,,,,,,,,,
,,,,,,,,,,,X V Q F H G B L J M P D K C T S W R N Z,606c8251cc2f9b7aa4224814,53,Kobieta,2022-06-11_08h31.26.366,task,2021.1.4,Win32,59.22416346,6299f149e92ead563fba08ef,62a4426628846c6c07142dba,,,,,,,,,,,,,,,,,,,,,,,,,,,,,,,,,,,,,,,,,,,,,,,,,,,,,,,,,,,,,,,,,,,,,,,,,,,,5,0,5,0,1,,,,,,,,,,,,,,,,,,,,,
,,,,,,,,,,,,606c8251cc2f9b7aa4224814,53,Kobieta,2022-06-11_08h31.26.366,task,2021.1.4,Win32,59.22416346,6299f149e92ead563fba08ef,62a4426628846c6c07142dba,,,,,,,,,,,,,4,,,,,,,,,,Task,28,(2x5) - 6,4,,,,,,,,,,,,,,,,,,,1,,,,,,,,,,,,,,,,,,,,,,,"[""4""]",1,0,0,0,27,1,[2.856499999999869],,,,,,,,,,,,,,,,,,,,,,,,,,
,,,,,,,,,,,X V Q F H G B L J M P D K C T S W R N Z,606c8251cc2f9b7aa4224814,53,Kobieta,2022-06-11_08h31.26.366,task,2021.1.4,Win32,59.22416346,6299f149e92ead563fba08ef,62a4426628846c6c07142dba,,,,,,,,,,,,,,,,,,,,,,,,,,,,,,,,,,,,,,,,,,,,,,,,,,,,,,,,,,,,,,,,,,,,,,,,,,,,6,0,6,0,1,,,,,,,,,,,,,,,,,,,,,
,,,,,,,,,,,,606c8251cc2f9b7aa4224814,53,Kobieta,2022-06-11_08h31.26.366,task,2021.1.4,Win32,59.22416346,6299f149e92ead563fba08ef,62a4426628846c6c07142dba,,,,,,,,,,,,,1,,,,,,,,,,Task,9,(3x7) - 20,1,,,,,,,,,,,,,,,,,,,1,,,,,,,,,,,,,,,,,,,,,,,"[""1""]",1,0,0,0,8,1,[2.035800000190875],,,,,,,,,,,,,,,,,,,,,,,,,,
,,,,,,,,,,,X V Q F H G B L J M P D K C T S W R N Z,606c8251cc2f9b7aa4224814,53,Kobieta,2022-06-11_08h31.26.366,task,2021.1.4,Win32,59.22416346,6299f149e92ead563fba08ef,62a4426628846c6c07142dba,,,,,,,,,,,,,,,,,,,,,,,,,,,,,,,,,,,,,,,,,,,,,,,,,,,,,,,,,,,,,,,,,,,,,,,,,,,,7,0,7,0,1,,,,,,,,,,,,,,,,,,,,,
,,,,,,,,,,,,606c8251cc2f9b7aa4224814,53,Kobieta,2022-06-11_08h31.26.366,task,2021.1.4,Win32,59.22416346,6299f149e92ead563fba08ef,62a4426628846c6c07142dba,,,,,,,,,,,,,1,,,,,,,,,,Task,1,(12/6) - 1,1,,,,,,,,,,,,,,,,,,,1,,,,,,,,,,,,,,,,,,,,,,,"[""1""]",1,0,0,0,0,1,[2.6914999999999054],,,,,,,,,,,,,,,,,,,,,,,,,,
,,,,,,,,,,,X V Q F H G B L J M P D K C T S W R N Z,606c8251cc2f9b7aa4224814,53,Kobieta,2022-06-11_08h31.26.366,task,2021.1.4,Win32,59.22416346,6299f149e92ead563fba08ef,62a4426628846c6c07142dba,,,,,,,,,,,,,,,,,,,,,,,,,,,,,,,,,,,,,,,,,,,,,,,,,,,,,,,,,,,,,,,,,,,,,,,,,,,,8,0,8,0,1,,,,,,,,,,,,,,,,,,,,,
,,,,,,,,,,,,606c8251cc2f9b7aa4224814,53,Kobieta,2022-06-11_08h31.26.366,task,2021.1.4,Win32,59.22416346,6299f149e92ead563fba08ef,62a4426628846c6c07142dba,,,,,,,,,,,,,5,,,,,,,,,,Task,12,(4x4) - 11,5,,,,,,,,,,,,,,,,,,,1,,,,,,,,,,,,,,,,,,,,,,,"[""5""]",1,0,0,0,11,1,[2.5951000001430202],,,,,,,,,,,,,,,,,,,,,,,,,,
,,,,,,,,,,,X V Q F H G B L J M P D K C T S W R N Z,606c8251cc2f9b7aa4224814,53,Kobieta,2022-06-11_08h31.26.366,task,2021.1.4,Win32,59.22416346,6299f149e92ead563fba08ef,62a4426628846c6c07142dba,,,,,,,,,,,,,,,,,,,,,,,,,,,,,,,,,,,,,,,,,,,,,,,,,,,,,,,,,,,,,,,,,,,,,,,,,,,,9,0,9,0,1,,,,,,,,,,,,,,,,,,,,,
,,,,,,,,,,,,606c8251cc2f9b7aa4224814,53,Kobieta,2022-06-11_08h31.26.366,task,2021.1.4,Win32,59.22416346,6299f149e92ead563fba08ef,62a4426628846c6c07142dba,,,,,,,,,,,,,7,,,,,,,,,,Task,31,(4/2) + 5,7,,,,,,,,,,,,,,,,,,,1,,,,,,,,,,,,,,,,,,,,,,,"[""7""]",1,0,0,0,30,1,[3.7355999999044798],,,,,,,,,,,,,,,,,,,,,,,,,,
,,,,,,,,,,,X V Q F H G B L J M P D K C T S W R N Z,606c8251cc2f9b7aa4224814,53,Kobieta,2022-06-11_08h31.26.366,task,2021.1.4,Win32,59.22416346,6299f149e92ead563fba08ef,62a4426628846c6c07142dba,,,,,,,,,,,,,,,,,,,,,,,,,,,,,,,,,,,,,,,,,,,,,,,,,,,,,,,,,,,,,,,,,,,,,,,,,,,,10,0,10,0,1,,,,,,,,,,,,,,,,,,,,,
,,,,,,,,,,,,606c8251cc2f9b7aa4224814,53,Kobieta,2022-06-11_08h31.26.366,task,2021.1.4,Win32,59.22416346,6299f149e92ead563fba08ef,62a4426628846c6c07142dba,,,,,,,,,,,,,8,,,,,,,,,,Task,39,(5x3) - 7,8,,,,,,,,,,,,,,,,,,,1,,,,,,,,,,,,,,,,,,,,,,,"[""8""]",1,0,0,0,38,1,[3.484299999952327],,,,,,,,,,,,,,,,,,,,,,,,,,
,,,,,,,,,,,X V Q F H G B L J M P D K C T S W R N Z,606c8251cc2f9b7aa4224814,53,Kobieta,2022-06-11_08h31.26.366,task,2021.1.4,Win32,59.22416346,6299f149e92ead563fba08ef,62a4426628846c6c07142dba,,,,,,,,,,,,,,,,,,,,,,,,,,,,,,,,,,,,,,,,,,,,,,,,,,,,,,,,,,,,,,,,,,,,,,,,,,,,11,0,11,0,1,,,,,,,,,,,,,,,,,,,,,
,,,,,,,,,,,,606c8251cc2f9b7aa4224814,53,Kobieta,2022-06-11_08h31.26.366,task,2021.1.4,Win32,59.22416346,6299f149e92ead563fba08ef,62a4426628846c6c07142dba,,,,,,,,,,,,,,,,,,,,,,,,,,,,,,,,,,,,,,,,,,,,,,,,,,,,,,,,,,,,,,,,,,,,,,,,,,,,,,,,,ppscmsppsbgpg,"[""p"",""p"",""s"",""c"",""m"",""s"",""p"",""p"",""s"",""b"",""g"",""p"",""g""]",0,"[3.542199999809327,3.8557999999522963,4.5532999999525146,7.16989999985708,8.245099999904824,8.530500000000075,11.396699999809243,11.739699999809318,11.92989999985707,12.637399999857053,17.32229999995252,18.096000000000004,18.56159999990473,19.714299999952345]",0,PPSCMSPSBGPG,12,0,12,0,1,,,,,,,,,,
,,,,,,,,,,,,606c8251cc2f9b7aa4224814,53,Kobieta,2022-06-11_08h31.26.366,task,2021.1.4,Win32,59.22416346,6299f149e92ead563fba08ef,62a4426628846c6c07142dba,,,,,,,,,,,,,,,,,,,,,,,,,,,,,,,,,,,,,,,,,,,,,,,,,,,,,,,,,,,,,,,,,,,,,,,,,,,,,,,,,,,,,,,,,,,,,0,0,0,0,0,1,,,
,,,,,,,,,,,,606c8251cc2f9b7aa4224814,53,Kobieta,2022-06-11_08h31.26.366,task,2021.1.4,Win32,59.22416346,6299f149e92ead563fba08ef,62a4426628846c6c07142dba,,,,,,,,,,,,,,,,,,,,,,,,,,,,,,,,,,,,,,,,,,,,,,,,,,,,,,,,,,,,,,,,,,,,,,,,,,,,,,,,,,,,,,,,,,,,,0,1,0,1,0,1,,,
,,,,,,,,,,,,606c8251cc2f9b7aa4224814,53,Kobieta,2022-06-11_08h31.26.366,task,2021.1.4,Win32,59.22416346,6299f149e92ead563fba08ef,62a4426628846c6c07142dba,,,,,,,,,,,,,,,,,,,,,,,,,,,,,,,,,,,,,,,,,,,,,,,,,,,,,,,,,,,,,,,,,,,,,,,,,,,,,,,,,,,,,,,,,,,,"[""comma""]",0,2,0,2,0,1,[0.7067000000477037],,
,,,,,,,,,,,,606c8251cc2f9b7aa4224814,53,Kobieta,2022-06-11_08h31.26.366,task,2021.1.4,Win32,59.22416346,6299f149e92ead563fba08ef,62a4426628846c6c07142dba,,,,,,,,,,,,,,,,,,,,,,,,,,,,,,,,,,,,,,,,,,,,,,,,,,,,,,,,,,,,,,,,,,,,,,,,,,,,,,,,,,,,,,,,,,,,,0,3,0,3,0,1,,,
,,,,,,,,,,,,606c8251cc2f9b7aa4224814,53,Kobieta,2022-06-11_08h31.26.366,task,2021.1.4,Win32,59.22416346,6299f149e92ead563fba08ef,62a4426628846c6c07142dba,,,,,,,,,,,,,,,,,,,,,,,,,,,,,,,,,,,,,,,,,,,,,,,,,,,,,,,,,,,,,,,,,,,,,,,,,,,,,,,,,,,,,,,,,,,,"[""period""]",0,4,0,4,0,1,[0.5255999999046708],,
,,,,,,,,,,,,606c8251cc2f9b7aa4224814,53,Kobieta,2022-06-11_08h31.26.366,task,2021.1.4,Win32,59.22416346,6299f149e92ead563fba08ef,62a4426628846c6c07142dba,,,,,,,,,,,,,,,,,,,,,,,,,,,,,,,,,,,,,,,,,,,,,,,,,,,,,,,,,,,,,,,,,,,,,,,,,,,,,,,,,,,,,,,,,,,,,0,5,0,5,0,1,,,
,,,,,,,,,,,,606c8251cc2f9b7aa4224814,53,Kobieta,2022-06-11_08h31.26.366,task,2021.1.4,Win32,59.22416346,6299f149e92ead563fba08ef,62a4426628846c6c07142dba,,,,,,,,,,,,,,,,,,,,,,,,,,,,,,,,,,,,,,,,,,,,,,,,,,,,,,,,,,,,,,,,,,,,,,,,,,,,,,,,,,,,,,,,,,,,"[""period""]",0,6,0,6,0,1,[0.38340000009543473],,
,,,,,,,,,,,,606c8251cc2f9b7aa4224814,53,Kobieta,2022-06-11_08h31.26.366,task,2021.1.4,Win32,59.22416346,6299f149e92ead563fba08ef,62a4426628846c6c07142dba,,,,,,,,,,,,,,,,,,,,,,,,,,,,,,,,,,,,,,,,,,,,,,,,,,,,,,,,,,,,,,,,,,,,,,,,,,,,,,,,,,,,,,,,,,,,"[""comma""]",0,7,0,7,0,1,[0.35719999980938155],,
,,,,,,,,,,,,606c8251cc2f9b7aa4224814,53,Kobieta,2022-06-11_08h31.26.366,task,2021.1.4,Win32,59.22416346,6299f149e92ead563fba08ef,62a4426628846c6c07142dba,,,,,,,,,,,,,,,,,,,,,,,,,,,,,,,,,,,,,,,,,,,,,,,,,,,,,,,,,,,,,,,,,,,,,,,,,,,,,,,,,,,,,,,,,,,,"[""comma""]",0,8,0,8,0,1,[0.44329999995215985],,
,,,,,,,,,,,,606c8251cc2f9b7aa4224814,53,Kobieta,2022-06-11_08h31.26.366,task,2021.1.4,Win32,59.22416346,6299f149e92ead563fba08ef,62a4426628846c6c07142dba,,,,,,,,,,,,,,,,,,,,,,,,,,,,,,,,,,,,,,,,,,,,,,,,,,,,,,,,,,,,,,,,,,,,,,,,,,,,,,,,,,,,,,,,,,,,"[""comma""]",0,9,0,9,0,1,[0.3052999999522399],,
,,,,,,,,,,,,606c8251cc2f9b7aa4224814,53,Kobieta,2022-06-11_08h31.26.366,task,2021.1.4,Win32,59.22416346,6299f149e92ead563fba08ef,62a4426628846c6c07142dba,,,,,,,,,,,,,,,,,,,,,,,,,,,,,,,,,,,,,,,,,,,,,,,,,,,,,,,,,,,,,,,,,,,,,,,,,,,,,,,,,,,,,,,,,,,,"[""period""]",0,10,0,10,0,1,[0.2515000000000782],,
,,,,,,,,,,,,606c8251cc2f9b7aa4224814,53,Kobieta,2022-06-11_08h31.26.366,task,2021.1.4,Win32,59.22416346,6299f149e92ead563fba08ef,62a4426628846c6c07142dba,,,,,,,,,,,,,,,,,,,,,,,,,,,,,,,,,,,,,,,,,,,,,,,,,,,,,,,,,,,,,,,,,,,,,,,,,,,,,,,,,,,,,,,,,,,,"[""period""]",0,11,0,11,0,1,[0.28440000009527466],,
,,,,,,,,,,,,606c8251cc2f9b7aa4224814,53,Kobieta,2022-06-11_08h31.26.366,task,2021.1.4,Win32,59.22416346,6299f149e92ead563fba08ef,62a4426628846c6c07142dba,,,,,,,,,,,,,,,,,,,,,,,,,,,,,,,,,,,,,,,,,,,,,,,,,,,,,,,,,,,,,,,,,,,,,,,,,,,,,,,,,,,,,,,,,,,,"[""comma""]",0,12,0,12,0,1,[0.3336000001429511],,
,,,,,,,,,,,,606c8251cc2f9b7aa4224814,53,Kobieta,2022-06-11_08h31.26.366,task,2021.1.4,Win32,59.22416346,6299f149e92ead563fba08ef,62a4426628846c6c07142dba,,,,,,,,,,,,,,,,,,,,,,,,,,,,,,,,,,,,,,,,,,,,,,,,,,,,,,,,,,,,,,,,,,,,,,,,,,,,,,,,,,,,,,,,,,,,"[""period""]",0,13,0,13,0,1,[0.424600000143073],,
,,,,,,,,,,,,606c8251cc2f9b7aa4224814,53,Kobieta,2022-06-11_08h31.26.366,task,2021.1.4,Win32,59.22416346,6299f149e92ead563fba08ef,62a4426628846c6c07142dba,,,,,,,,,,,,,,,,,,,,,,,,,,,,,,,,,,,,,,,,,,,,,,,,,,,,,,,,,,,,,,,,,,,,,,,,,,,,,,,,,,,,,,,,,,,,"[""period""]",0,14,0,14,0,1,[0.38939999985700524],,
,,,,,,,,,,,,606c8251cc2f9b7aa4224814,53,Kobieta,2022-06-11_08h31.26.366,task,2021.1.4,Win32,59.22416346,6299f149e92ead563fba08ef,62a4426628846c6c07142dba,,,,,,,,,,,,,,,,,,,,,,,,,,,,,,,,,,,,,,,,,,,,,,,,,,,,,,,,,,,,,,,,,,,,,,,,,,,,,,,,,,,,,,,,,,,,"[""period""]",0,15,0,15,0,1,[0.398700000047711],,
,,,,,,,,,,,,606c8251cc2f9b7aa4224814,53,Kobieta,2022-06-11_08h31.26.366,task,2021.1.4,Win32,59.22416346,6299f149e92ead563fba08ef,62a4426628846c6c07142dba,,,,,,,,,,,,,,,,,,,,,,,,,,,,,,,,,,,,,,,,,,,,,,,,,,,,,,,,,,,,,,,,,,,,,,,,,,,,,,,,,,,,,,,,,,,,"[""period""]",0,16,0,16,0,1,[0.3865999999045471],,
,,,,,,,,,,,,606c8251cc2f9b7aa4224814,53,Kobieta,2022-06-11_08h31.26.366,task,2021.1.4,Win32,59.22416346,6299f149e92ead563fba08ef,62a4426628846c6c07142dba,,,,,,,,,,,,,,,,,,,,,,,,,,,,,,,,,,,,,,,,,,,,,,,,,,,,,,,,,,,,,,,,,,,,,,,,,,,,,,,,,,,,,,,,,,,,"[""comma""]",0,17,0,17,0,1,[0.29129999995234357],,
,,,,,,,,,,,,606c8251cc2f9b7aa4224814,53,Kobieta,2022-06-11_08h31.26.366,task,2021.1.4,Win32,59.22416346,6299f149e92ead563fba08ef,62a4426628846c6c07142dba,,,,,,,,,,,,,,,,,,,,,,,,,,,,,,,,,,,,,,,,,,,,,,,,,,,,,,,,,,,,,,,,,,,,,,,,,,,,,,,,,,,,,,,,,,,,"[""comma""]",0,18,0,18,0,1,[0.3497999999522108],,
,,,,,,,,,,,,606c8251cc2f9b7aa4224814,53,Kobieta,2022-06-11_08h31.26.366,task,2021.1.4,Win32,59.22416346,6299f149e92ead563fba08ef,62a4426628846c6c07142dba,,,,,,,,,,,,,,,,,,,,,,,,,,,,,,,,,,,,,,,,,,,,,,,,,,,,,,,,,,,,,,,,,,,,,,,,,,,,,,,,,,,,,,,,,,,,"[""comma""]",0,19,0,19,0,1,[0.2834000000952983],,
,,,,,,,,,,,,606c8251cc2f9b7aa4224814,53,Kobieta,2022-06-11_08h31.26.366,task,2021.1.4,Win32,59.22416346,6299f149e92ead563fba08ef,62a4426628846c6c07142dba,,,,,,,,,,,,,,,,,,,,,,,,,,,,,,,,,,,,,,,,,,,,,,,,,,,,,,,,,,,,,,,,,,,,,,,,,,,,,,,,,,,,,,,,,,,,"[""comma"",""period""]",0,20,0,20,0,1,"[0.218899999857058,1.9535000000000764]",,
,,,,,,,,,,,,606c8251cc2f9b7aa4224814,53,Kobieta,2022-06-11_08h31.26.366,task,2021.1.4,Win32,59.22416346,6299f149e92ead563fba08ef,62a4426628846c6c07142dba,,,,,,,,,,,,,,,,,,,,,,,,,,,,,,,,,,,,,,,,,,,,,,,,,,,,,,,,,,,,,,,,,,,,,,,,,,,,,,,,,,,,,,,,,,,,"[""period""]",0,21,0,21,0,1,[1.8992999999522908],,
,,,,,,,,,,,,606c8251cc2f9b7aa4224814,53,Kobieta,2022-06-11_08h31.26.366,task,2021.1.4,Win32,59.22416346,6299f149e92ead563fba08ef,62a4426628846c6c07142dba,,,,,,,,,,,,,,,,,,,,,,,,,,,,,,,,,,,,,,,,,,,,,,,,,,,,,,,,,,,,,,,,,,,,,,,,,,,,,,,,,,,,,,,,,,,,"[""comma""]",0,22,0,22,0,1,[1.8177999999522854],,
,,,,,,,,,,,,606c8251cc2f9b7aa4224814,53,Kobieta,2022-06-11_08h31.26.366,task,2021.1.4,Win32,59.22416346,6299f149e92ead563fba08ef,62a4426628846c6c07142dba,,,,,,,,,,,,,,,,,,,,,,,,,,,,,,,,,,,,,,,,,,,,,,,,,,,,,,,,,,,,,,,,,,,,,,,,,,,,,,,,,,,,,,,,,,,,"[""comma""]",0,23,0,23,0,1,[1.6038999998568215],,
,,,,,,,,,,,,606c8251cc2f9b7aa4224814,53,Kobieta,2022-06-11_08h31.26.366,task,2021.1.4,Win32,59.22416346,6299f149e92ead563fba08ef,62a4426628846c6c07142dba,,,,,,,,,,,,,,,,,,,,,,,,,,,,,,,,,,,,,,,,,,,,,,,,,,,,,,,,,,,,,,,,,,,,,,,,,,,,,,,,,,,,,,,,,,,,"[""comma""]",0,24,0,24,0,1,[1.6195999999044943],,
,,,,,,,,,,,,606c8251cc2f9b7aa4224814,53,Kobieta,2022-06-11_08h31.26.366,task,2021.1.4,Win32,59.22416346,6299f149e92ead563fba08ef,62a4426628846c6c07142dba,,,,,,,,,,,,,,,,,,,,,,,,,,,,,,,,,,,,,,,,,,,,,,,,,,,,,,,,,,,,,,,,,,,,,,,,,,,,,,,,,,,,,,,,,,,,,0,25,0,25,0,1,,,
,,,,,,,,,,,,606c8251cc2f9b7aa4224814,53,Kobieta,2022-06-11_08h31.26.366,task,2021.1.4,Win32,59.22416346,6299f149e92ead563fba08ef,62a4426628846c6c07142dba,,,,,,,,,,,,,,,,,,,,,,,,,,,,,,,,,,,,,,,,,,,,,,,,,,,,,,,,,,,,,,,,,,,,,,,,,,,,,,,,,,,,,,,,,,,,"[""period""]",0,26,0,26,0,1,[0.3053999998569452],,
,,,,,,,,,,,,606c8251cc2f9b7aa4224814,53,Kobieta,2022-06-11_08h31.26.366,task,2021.1.4,Win32,59.22416346,6299f149e92ead563fba08ef,62a4426628846c6c07142dba,,,,,,,,,,,,,,,,,,,,,,,,,,,,,,,,,,,,,,,,,,,,,,,,,,,,,,,,,,,,,,,,,,,,,,,,,,,,,,,,,,,,,,,,,,,,"[""period""]",0,27,0,27,0,1,[0.34979999995243816],,
,,,,,,,,,,,,606c8251cc2f9b7aa4224814,53,Kobieta,2022-06-11_08h31.26.366,task,2021.1.4,Win32,59.22416346,6299f149e92ead563fba08ef,62a4426628846c6c07142dba,,,,,,,,,,,,,,,,,,,,,,,,,,,,,,,,,,,,,,,,,,,,,,,,,,,,,,,,,,,,,,,,,,,,,,,,,,,,,,,,,,,,,,,,,,,,"[""period""]",0,28,0,28,0,1,[0.3497999999522108],,
,,,,,,,,,,,,606c8251cc2f9b7aa4224814,53,Kobieta,2022-06-11_08h31.26.366,task,2021.1.4,Win32,59.22416346,6299f149e92ead563fba08ef,62a4426628846c6c07142dba,,,,,,,,,,,,,,,,,,,,,,,,,,,,,,,,,,,,,,,,,,,,,,,,,,,,,,,,,,,,,,,,,,,,,,,,,,,,,,,,,,,,,,,,,,,,"[""comma""]",0,29,0,29,0,1,[0.34149999999999636],,
,,,,,,,,,,,,606c8251cc2f9b7aa4224814,53,Kobieta,2022-06-11_08h31.26.366,task,2021.1.4,Win32,59.22416346,6299f149e92ead563fba08ef,62a4426628846c6c07142dba,,,,,,,,,,,,,,,,,,,,,,,,,,,,,,,,,,,,,,,,,,,,,,,,,,,,,,,,,,,,,,,,,,,,,,,,,,,,,,,,,,,,,,,,,,,,"[""comma""]",0,30,0,30,0,1,[0.31949999999983447],,
,,,,,,,,,,,,606c8251cc2f9b7aa4224814,53,Kobieta,2022-06-11_08h31.26.366,task,2021.1.4,Win32,59.22416346,6299f149e92ead563fba08ef,62a4426628846c6c07142dba,,,,,,,,,,,,,,,,,,,,,,,,,,,,,,,,,,,,,,,,,,,,,,,,,,,,,,,,,,,,,,,,,,,,,,,,,,,,,,,,,,,,,,,,,,,,"[""period""]",0,31,0,31,0,1,[0.3000000000001819],,
,,,,,,,,,,,,606c8251cc2f9b7aa4224814,53,Kobieta,2022-06-11_08h31.26.366,task,2021.1.4,Win32,59.22416346,6299f149e92ead563fba08ef,62a4426628846c6c07142dba,,,,,,,,,,,,,,,,,,,,,,,,,,,,,,,,,,,,,,,,,,,,,,,,,,,,,,,,,,,,,,,,,,,,,,,,,,,,,,,,,,,,,,,,,,,,"[""comma""]",0,32,0,32,0,1,[0.3198999998569434],,
,,,,,,,,,,,,606c8251cc2f9b7aa4224814,53,Kobieta,2022-06-11_08h31.26.366,task,2021.1.4,Win32,59.22416346,6299f149e92ead563fba08ef,62a4426628846c6c07142dba,,,,,,,,,,,,,,,,,,,,,,,,,,,,,,,,,,,,,,,,,,,,,,,,,,,,,,,,,,,,,,,,,,,,,,,,,,,,,,,,,,,,,,,,,,,,"[""period""]",0,33,0,33,0,1,[0.3208000001907294],,
,,,,,,,,,,,,606c8251cc2f9b7aa4224814,53,Kobieta,2022-06-11_08h31.26.366,task,2021.1.4,Win32,59.22416346,6299f149e92ead563fba08ef,62a4426628846c6c07142dba,,,,,,,,,,,,,,,,,,,,,,,,,,,,,,,,,,,,,,,,,,,,,,,,,,,,,,,,,,,,,,,,,,,,,,,,,,,,,,,,,,,,,,,,,,,,"[""comma""]",0,34,0,34,0,1,[0.015700000047672802],,
,,,,,,,,,,,,606c8251cc2f9b7aa4224814,53,Kobieta,2022-06-11_08h31.26.366,task,2021.1.4,Win32,59.22416346,6299f149e92ead563fba08ef,62a4426628846c6c07142dba,,,,,,,,,,,,,,,,,,,,,,,,,,,,,,,,,,,,,,,,,,,,,,,,,,,,,,,,,,,,,,,,,,,,,,,,,,,,,,,,,,,,,,,,,,,,"[""period""]",0,35,0,35,0,1,[0.35369999980935063],,
,,,,,,,,,,,,606c8251cc2f9b7aa4224814,53,Kobieta,2022-06-11_08h31.26.366,task,2021.1.4,Win32,59.22416346,6299f149e92ead563fba08ef,62a4426628846c6c07142dba,,,,,,,,,,,,,,,,,,,,,,,,,,,,,,,,,,,,,,,,,,,,,,,,,,,,,,,,,,,,,,,,,,,,,,,,,,,,,,,,,,,,,,,,,,,,"[""comma""]",0,36,0,36,0,1,[0.2756999998093761],,
,,,,,,,,,,,,606c8251cc2f9b7aa4224814,53,Kobieta,2022-06-11_08h31.26.366,task,2021.1.4,Win32,59.22416346,6299f149e92ead563fba08ef,62a4426628846c6c07142dba,,,,,,,,,,,,,,,,,,,,,,,,,,,,,,,,,,,,,,,,,,,,,,,,,,,,,,,,,,,,,,,,,,,,,,,,,,,,,,,,,,,,,,,,,,,,"[""period""]",0,37,0,37,0,1,[0.31630000019072213],,
,,,,,,,,,,,,606c8251cc2f9b7aa4224814,53,Kobieta,2022-06-11_08h31.26.366,task,2021.1.4,Win32,59.22416346,6299f149e92ead563fba08ef,62a4426628846c6c07142dba,,,,,,,,,,,,,,,,,,,,,,,,,,,,,,,,,,,,,,,,,,,,,,,,,,,,,,,,,,,,,,,,,,,,,,,,,,,,,,,,,,,,,,,,,,,,"[""period""]",0,38,0,38,0,1,[0.3160999999045089],,
,,,,,,,,,,,,606c8251cc2f9b7aa4224814,53,Kobieta,2022-06-11_08h31.26.366,task,2021.1.4,Win32,59.22416346,6299f149e92ead563fba08ef,62a4426628846c6c07142dba,,,,,,,,,,,,,,,,,,,,,,,,,,,,,,,,,,,,,,,,,,,,,,,,,,,,,,,,,,,,,,,,,,,,,,,,,,,,,,,,,,,,,,,,,,,,"[""period""]",0,39,0,39,0,1,[0.3157000000476273],,
,,,,,,,,,,,,606c8251cc2f9b7aa4224814,53,Kobieta,2022-06-11_08h31.26.366,task,2021.1.4,Win32,59.22416346,6299f149e92ead563fba08ef,62a4426628846c6c07142dba,,,,,,,,,,,,,,,,,,,,,,,,,,,,,,,,,,,,,,,,,,,,,,,,,,,,,,,,,,,,,,,,,,,,,,,,,,,,,,,,,,,,,,,,,,,,"[""period""]",0,40,0,40,0,1,[0.40249999999991815],,
,,,,,,,,,,,,606c8251cc2f9b7aa4224814,53,Kobieta,2022-06-11_08h31.26.366,task,2021.1.4,Win32,59.22416346,6299f149e92ead563fba08ef,62a4426628846c6c07142dba,,,,,,,,,,,,,,,,,,,,,,,,,,,,,,,,,,,,,,,,,,,,,,,,,,,,,,,,,,,,,,,,,,,,,,,,,,,,,,,,,,,,,,,,,,,,"[""comma""]",0,41,0,41,0,1,[0.5013000001906676],,
,,,,,,,,,,,,606c8251cc2f9b7aa4224814,53,Kobieta,2022-06-11_08h31.26.366,task,2021.1.4,Win32,59.22416346,6299f149e92ead563fba08ef,62a4426628846c6c07142dba,,,,,,,,,,,,,,,,,,,,,,,,,,,,,,,,,,,,,,,,,,,,,,,,,,,,,,,,,,,,,,,,,,,,,,,,,,,,,,,,,,,,,,,,,,,,"[""period""]",0,42,0,42,0,1,[0.48730000019077124],,
,,,,,,,,,,,,606c8251cc2f9b7aa4224814,53,Kobieta,2022-06-11_08h31.26.366,task,2021.1.4,Win32,59.22416346,6299f149e92ead563fba08ef,62a4426628846c6c07142dba,,,,,,,,,,,,,,,,,,,,,,,,,,,,,,,,,,,,,,,,,,,,,,,,,,,,,,,,,,,,,,,,,,,,,,,,,,,,,,,,,,,,,,,,,,,,"[""comma""]",0,43,0,43,0,1,[0.4685999999046544],,
,,,,,,,,,,,,606c8251cc2f9b7aa4224814,53,Kobieta,2022-06-11_08h31.26.366,task,2021.1.4,Win32,59.22416346,6299f149e92ead563fba08ef,62a4426628846c6c07142dba,,,,,,,,,,,,,,,,,,,,,,,,,,,,,,,,,,,,,,,,,,,,,,,,,,,,,,,,,,,,,,,,,,,,,,,,,,,,,,,,,,,,,,,,,,,,"[""period""]",0,44,0,44,0,1,[0.2927999999521944],,
,,,,,,,,,,,,606c8251cc2f9b7aa4224814,53,Kobieta,2022-06-11_08h31.26.366,task,2021.1.4,Win32,59.22416346,6299f149e92ead563fba08ef,62a4426628846c6c07142dba,,,,,,,,,,,,,,,,,,,,,,,,,,,,,,,,,,,,,,,,,,,,,,,,,,,,,,,,,,,,,,,,,,,,,,,,,,,,,,,,,,,,,,,,,,,,"[""period"",""comma""]",0,45,0,45,0,1,"[0.17300000000000182,1.9210000000000491]",,
,,,,,,,,,,,,606c8251cc2f9b7aa4224814,53,Kobieta,2022-06-11_08h31.26.366,task,2021.1.4,Win32,59.22416346,6299f149e92ead563fba08ef,62a4426628846c6c07142dba,,,,,,,,,,,,,,,,,,,,,,,,,,,,,,,,,,,,,,,,,,,,,,,,,,,,,,,,,,,,,,,,,,,,,,,,,,,,,,,,,,,,,,,,,,,,"[""comma""]",0,46,0,46,0,1,[1.9035000000001219],,
,,,,,,,,,,,,606c8251cc2f9b7aa4224814,53,Kobieta,2022-06-11_08h31.26.366,task,2021.1.4,Win32,59.22416346,6299f149e92ead563fba08ef,62a4426628846c6c07142dba,,,,,,,,,,,,,,,,,,,,,,,,,,,,,,,,,,,,,,,,,,,,,,,,,,,,,,,,,,,,,,,,,,,,,,,,,,,,,,,,,,,,,,,,,,,,,0,47,0,47,0,1,,,
,,,,,,,,,,,,606c8251cc2f9b7aa4224814,53,Kobieta,2022-06-11_08h31.26.366,task,2021.1.4,Win32,59.22416346,6299f149e92ead563fba08ef,62a4426628846c6c07142dba,,,,,,,,,,,,,,,,,,,,,,,,,,,,,,,,,,,,,,,,,,,,,,,,,,,,,,,,,,,,,,,,,,,,,,,,,,,,,,,,,,,,,,,,,,,,"[""period""]",0,48,0,48,0,1,[-0.010999999999967258],,
,,,,,,,,,,,,606c8251cc2f9b7aa4224814,53,Kobieta,2022-06-11_08h31.26.366,task,2021.1.4,Win32,59.22416346,6299f149e92ead563fba08ef,62a4426628846c6c07142dba,,,,,,,,,,,,,,,,,,,,,,,,,,,,,,,,,,,,,,,,,,,,,,,,,,,,,,,,,,,,,,,,,,,,,,,,,,,,,,,,,,,,,,,,,,,,"[""period""]",0,49,0,49,0,1,[0.0403000001908822],,
,,,,,,,,,,,,606c8251cc2f9b7aa4224814,53,Kobieta,2022-06-11_08h31.26.366,task,2021.1.4,Win32,59.22416346,6299f149e92ead563fba08ef,62a4426628846c6c07142dba,,,,,,,,,,,,,,,,,,,,,,,,,,,,,,,,,,,,,,,,,,,,,,,,,,,,,,,,,,,,,,,,,,,,,,,,,,,,,,,,,,,,,,,,,,,,"[""comma""]",0,50,0,50,0,1,[0.3162000000477292],,
,,,,,,,,,,,,606c8251cc2f9b7aa4224814,53,Kobieta,2022-06-11_08h31.26.366,task,2021.1.4,Win32,59.22416346,6299f149e92ead563fba08ef,62a4426628846c6c07142dba,,,,,,,,,,,,,,,,,,,,,,,,,,,,,,,,,,,,,,,,,,,,,,,,,,,,,,,,,,,,,,,,,,,,,,,,,,,,,,,,,,,,,,,,,,,,"[""comma""]",0,51,0,51,0,1,[0.3168000001905966],,
,,,,,,,,,,,,606c8251cc2f9b7aa4224814,53,Kobieta,2022-06-11_08h31.26.366,task,2021.1.4,Win32,59.22416346,6299f149e92ead563fba08ef,62a4426628846c6c07142dba,,,,,,,,,,,,,,,,,,,,,,,,,,,,,,,,,,,,,,,,,,,,,,,,,,,,,,,,,,,,,,,,,,,,,,,,,,,,,,,,,,,,,,,,,,,,"[""comma""]",0,52,0,52,0,1,[0.242599999904769],,
,,,,,,,,,,,,606c8251cc2f9b7aa4224814,53,Kobieta,2022-06-11_08h31.26.366,task,2021.1.4,Win32,59.22416346,6299f149e92ead563fba08ef,62a4426628846c6c07142dba,,,,,,,,,,,,,,,,,,,,,,,,,,,,,,,,,,,,,,,,,,,,,,,,,,,,,,,,,,,,,,,,,,,,,,,,,,,,,,,,,,,,,,,,,,,,"[""comma""]",0,53,0,53,0,1,[0.2687999999523072],,
,,,,,,,,,,,,606c8251cc2f9b7aa4224814,53,Kobieta,2022-06-11_08h31.26.366,task,2021.1.4,Win32,59.22416346,6299f149e92ead563fba08ef,62a4426628846c6c07142dba,,,,,,,,,,,,,,,,,,,,,,,,,,,,,,,,,,,,,,,,,,,,,,,,,,,,,,,,,,,,,,,,,,,,,,,,,,,,,,,,,,,,,,,,,,,,"[""comma""]",0,54,0,54,0,1,[0.3830000000000382],,
