key_resp_15.keys,key_resp_15.rt,key_resp_13.keys,key_resp_13.corr,key_resp_13.rt,ranodm_loop.thisRepN,ranodm_loop.thisTrialN,ranodm_loop.thisN,ranodm_loop.thisIndex,ranodm_loop.ran,participant,Wiek*,Płeć,date,expName,psychopyVersion,OS,frameRate,study_id,session,key_resp_16.keys,key_resp_16.rt,key_resp_4.keys,key_resp_4.rt,next_letter.thisRepN,next_letter.thisTrialN,next_letter.thisN,next_letter.thisIndex,next_letter.ran,letter,simple_recall,key_resp_5.keys,key_resp_5.rt,simple_recall_corr,simple_recall_corrkeys,next_level.thisRepN,next_level.thisTrialN,next_level.thisN,next_level.thisIndex,next_level.ran,key_resp_2.keys,key_resp_2.rt,digit_answer,key_resp.keys,key_resp.corr,key_resp.rt,RT_list,next_equation.thisRepN,next_equation.thisTrialN,next_equation.thisN,next_equation.thisIndex,next_equation.ran,Task,Trial,Problem,Operation_answer,processing_score,sumRT,meanRT,sumdiff,sd,RT,key_resp_3.keys,key_resp_3.rt,repeat_practice.thisRepN,repeat_practice.thisTrialN,repeat_practice.thisN,repeat_practice.thisIndex,repeat_practice.ran,key_resp_6.keys,key_resp_6.rt,key_resp_11.keys,key_resp_11.corr,key_resp_11.rt,operation_correct,repeat_if_wrong_prac.thisRepN,repeat_if_wrong_prac.thisTrialN,repeat_if_wrong_prac.thisN,repeat_if_wrong_prac.thisIndex,repeat_if_wrong_prac.ran,span_size_prac.thisRepN,span_size_prac.thisTrialN,span_size_prac.thisN,span_size_prac.thisIndex,span_size_prac.ran,complex_recall_practice,key_resp_9.keys,key_resp_9.corr,key_resp_9.rt,complex_prac_corr,span_recall_prac.thisRepN,span_recall_prac.thisTrialN,span_recall_prac.thisN,span_recall_prac.thisIndex,span_recall_prac.ran,key_resp_10.keys,key_resp_10.rt,key_resp_7.keys,key_resp_7.corr,key_resp_7.rt,repeat_if_wrong.thisRepN,repeat_if_wrong.thisTrialN,repeat_if_wrong.thisN,repeat_if_wrong.thisIndex,repeat_if_wrong.ran,span_size.thisRepN,span_size.thisTrialN,span_size.thisN,span_size.thisIndex,span_size.ran,complex_recall,key_resp_8.keys,key_resp_8.corr,key_resp_8.rt,complex_recall_corr,complex_recall_corrkeys,span_recall.thisRepN,span_recall.thisTrialN,span_recall.thisN,span_recall.thisIndex,span_recall.ran,key_resp_12.keys,key_resp_12.rt
space,30.8349,"[""comma""]",0,[0.8740000000000236],0,0,0,0,1,6070c2f8aa9a08d466b86d5c,19,Mężczyzna,2022-06-04_08h09.29.000,task,2021.1.4,Win32,60.04202942,628b806c463b948bc644b84f,629af6ed1c5129617d9f9881,,,,,,,,,,,,,,,,,,,,,,,,,,,,,,,,,,,,,,,,,,,,,,,,,,,,,,,,,,,,,,,,,,,,,,,,,,,,,,,,,,,,,,,,,,,,,,,,,,,,,,,
,,"[""comma""]",0,[0.9991999999955112],1,0,1,0,1,6070c2f8aa9a08d466b86d5c,19,Mężczyzna,2022-06-04_08h09.29.000,task,2021.1.4,Win32,60.04202942,628b806c463b948bc644b84f,629af6ed1c5129617d9f9881,,,,,,,,,,,,,,,,,,,,,,,,,,,,,,,,,,,,,,,,,,,,,,,,,,,,,,,,,,,,,,,,,,,,,,,,,,,,,,,,,,,,,,,,,,,,,,,,,,,,,,,
,,"[""period""]",0,[0.8006000000014808],2,0,2,0,1,6070c2f8aa9a08d466b86d5c,19,Mężczyzna,2022-06-04_08h09.29.000,task,2021.1.4,Win32,60.04202942,628b806c463b948bc644b84f,629af6ed1c5129617d9f9881,,,,,,,,,,,,,,,,,,,,,,,,,,,,,,,,,,,,,,,,,,,,,,,,,,,,,,,,,,,,,,,,,,,,,,,,,,,,,,,,,,,,,,,,,,,,,,,,,,,,,,,
,,"[""period""]",0,[0.3474999999999966],3,0,3,0,1,6070c2f8aa9a08d466b86d5c,19,Mężczyzna,2022-06-04_08h09.29.000,task,2021.1.4,Win32,60.04202942,628b806c463b948bc644b84f,629af6ed1c5129617d9f9881,,,,,,,,,,,,,,,,,,,,,,,,,,,,,,,,,,,,,,,,,,,,,,,,,,,,,,,,,,,,,,,,,,,,,,,,,,,,,,,,,,,,,,,,,,,,,,,,,,,,,,,
,,"[""comma""]",0,[0.2537999999970282],4,0,4,0,1,6070c2f8aa9a08d466b86d5c,19,Mężczyzna,2022-06-04_08h09.29.000,task,2021.1.4,Win32,60.04202942,628b806c463b948bc644b84f,629af6ed1c5129617d9f9881,,,,,,,,,,,,,,,,,,,,,,,,,,,,,,,,,,,,,,,,,,,,,,,,,,,,,,,,,,,,,,,,,,,,,,,,,,,,,,,,,,,,,,,,,,,,,,,,,,,,,,,
,,"[""period""]",0,[0.22539999999850124],5,0,5,0,1,6070c2f8aa9a08d466b86d5c,19,Mężczyzna,2022-06-04_08h09.29.000,task,2021.1.4,Win32,60.04202942,628b806c463b948bc644b84f,629af6ed1c5129617d9f9881,,,,,,,,,,,,,,,,,,,,,,,,,,,,,,,,,,,,,,,,,,,,,,,,,,,,,,,,,,,,,,,,,,,,,,,,,,,,,,,,,,,,,,,,,,,,,,,,,,,,,,,
,,"[""period""]",0,[0.32550000000000523],6,0,6,0,1,6070c2f8aa9a08d466b86d5c,19,Mężczyzna,2022-06-04_08h09.29.000,task,2021.1.4,Win32,60.04202942,628b806c463b948bc644b84f,629af6ed1c5129617d9f9881,,,,,,,,,,,,,,,,,,,,,,,,,,,,,,,,,,,,,,,,,,,,,,,,,,,,,,,,,,,,,,,,,,,,,,,,,,,,,,,,,,,,,,,,,,,,,,,,,,,,,,,
,,"[""period""]",0,[0.45050000000000523],7,0,7,0,1,6070c2f8aa9a08d466b86d5c,19,Mężczyzna,2022-06-04_08h09.29.000,task,2021.1.4,Win32,60.04202942,628b806c463b948bc644b84f,629af6ed1c5129617d9f9881,,,,,,,,,,,,,,,,,,,,,,,,,,,,,,,,,,,,,,,,,,,,,,,,,,,,,,,,,,,,,,,,,,,,,,,,,,,,,,,,,,,,,,,,,,,,,,,,,,,,,,,
,,"[""comma""]",0,[0.38729999999702613],8,0,8,0,1,6070c2f8aa9a08d466b86d5c,19,Mężczyzna,2022-06-04_08h09.29.000,task,2021.1.4,Win32,60.04202942,628b806c463b948bc644b84f,629af6ed1c5129617d9f9881,,,,,,,,,,,,,,,,,,,,,,,,,,,,,,,,,,,,,,,,,,,,,,,,,,,,,,,,,,,,,,,,,,,,,,,,,,,,,,,,,,,,,,,,,,,,,,,,,,,,,,,
,,"[""comma""]",0,[0.3817999999970141],9,0,9,0,1,6070c2f8aa9a08d466b86d5c,19,Mężczyzna,2022-06-04_08h09.29.000,task,2021.1.4,Win32,60.04202942,628b806c463b948bc644b84f,629af6ed1c5129617d9f9881,,,,,,,,,,,,,,,,,,,,,,,,,,,,,,,,,,,,,,,,,,,,,,,,,,,,,,,,,,,,,,,,,,,,,,,,,,,,,,,,,,,,,,,,,,,,,,,,,,,,,,,
,,"[""period""]",0,[0.3413999999985151],10,0,10,0,1,6070c2f8aa9a08d466b86d5c,19,Mężczyzna,2022-06-04_08h09.29.000,task,2021.1.4,Win32,60.04202942,628b806c463b948bc644b84f,629af6ed1c5129617d9f9881,,,,,,,,,,,,,,,,,,,,,,,,,,,,,,,,,,,,,,,,,,,,,,,,,,,,,,,,,,,,,,,,,,,,,,,,,,,,,,,,,,,,,,,,,,,,,,,,,,,,,,,
,,"[""comma""]",0,[0.26760000000149375],11,0,11,0,1,6070c2f8aa9a08d466b86d5c,19,Mężczyzna,2022-06-04_08h09.29.000,task,2021.1.4,Win32,60.04202942,628b806c463b948bc644b84f,629af6ed1c5129617d9f9881,,,,,,,,,,,,,,,,,,,,,,,,,,,,,,,,,,,,,,,,,,,,,,,,,,,,,,,,,,,,,,,,,,,,,,,,,,,,,,,,,,,,,,,,,,,,,,,,,,,,,,,
,,"[""period"",""period""]",0,"[0.1238000000044508,1.5013999999985117]",12,0,12,0,1,6070c2f8aa9a08d466b86d5c,19,Mężczyzna,2022-06-04_08h09.29.000,task,2021.1.4,Win32,60.04202942,628b806c463b948bc644b84f,629af6ed1c5129617d9f9881,,,,,,,,,,,,,,,,,,,,,,,,,,,,,,,,,,,,,,,,,,,,,,,,,,,,,,,,,,,,,,,,,,,,,,,,,,,,,,,,,,,,,,,,,,,,,,,,,,,,,,,
,,,0,,13,0,13,0,1,6070c2f8aa9a08d466b86d5c,19,Mężczyzna,2022-06-04_08h09.29.000,task,2021.1.4,Win32,60.04202942,628b806c463b948bc644b84f,629af6ed1c5129617d9f9881,,,,,,,,,,,,,,,,,,,,,,,,,,,,,,,,,,,,,,,,,,,,,,,,,,,,,,,,,,,,,,,,,,,,,,,,,,,,,,,,,,,,,,,,,,,,,,,,,,,,,,,
,,"[""comma"",""period""]",0,"[0.22560000000149216,1.9325000000000045]",14,0,14,0,1,6070c2f8aa9a08d466b86d5c,19,Mężczyzna,2022-06-04_08h09.29.000,task,2021.1.4,Win32,60.04202942,628b806c463b948bc644b84f,629af6ed1c5129617d9f9881,,,,,,,,,,,,,,,,,,,,,,,,,,,,,,,,,,,,,,,,,,,,,,,,,,,,,,,,,,,,,,,,,,,,,,,,,,,,,,,,,,,,,,,,,,,,,,,,,,,,,,,
,,"[""comma""]",0,[1.7838000000044758],15,0,15,0,1,6070c2f8aa9a08d466b86d5c,19,Mężczyzna,2022-06-04_08h09.29.000,task,2021.1.4,Win32,60.04202942,628b806c463b948bc644b84f,629af6ed1c5129617d9f9881,,,,,,,,,,,,,,,,,,,,,,,,,,,,,,,,,,,,,,,,,,,,,,,,,,,,,,,,,,,,,,,,,,,,,,,,,,,,,,,,,,,,,,,,,,,,,,,,,,,,,,,
,,"[""period""]",0,[1.7453999999985115],16,0,16,0,1,6070c2f8aa9a08d466b86d5c,19,Mężczyzna,2022-06-04_08h09.29.000,task,2021.1.4,Win32,60.04202942,628b806c463b948bc644b84f,629af6ed1c5129617d9f9881,,,,,,,,,,,,,,,,,,,,,,,,,,,,,,,,,,,,,,,,,,,,,,,,,,,,,,,,,,,,,,,,,,,,,,,,,,,,,,,,,,,,,,,,,,,,,,,,,,,,,,,
,,"[""comma""]",0,[1.8414999999999964],17,0,17,0,1,6070c2f8aa9a08d466b86d5c,19,Mężczyzna,2022-06-04_08h09.29.000,task,2021.1.4,Win32,60.04202942,628b806c463b948bc644b84f,629af6ed1c5129617d9f9881,,,,,,,,,,,,,,,,,,,,,,,,,,,,,,,,,,,,,,,,,,,,,,,,,,,,,,,,,,,,,,,,,,,,,,,,,,,,,,,,,,,,,,,,,,,,,,,,,,,,,,,
,,,0,,18,0,18,0,1,6070c2f8aa9a08d466b86d5c,19,Mężczyzna,2022-06-04_08h09.29.000,task,2021.1.4,Win32,60.04202942,628b806c463b948bc644b84f,629af6ed1c5129617d9f9881,,,,,,,,,,,,,,,,,,,,,,,,,,,,,,,,,,,,,,,,,,,,,,,,,,,,,,,,,,,,,,,,,,,,,,,,,,,,,,,,,,,,,,,,,,,,,,,,,,,,,,,
,,"[""comma""]",0,[0.19249999999999545],19,0,19,0,1,6070c2f8aa9a08d466b86d5c,19,Mężczyzna,2022-06-04_08h09.29.000,task,2021.1.4,Win32,60.04202942,628b806c463b948bc644b84f,629af6ed1c5129617d9f9881,,,,,,,,,,,,,,,,,,,,,,,,,,,,,,,,,,,,,,,,,,,,,,,,,,,,,,,,,,,,,,,,,,,,,,,,,,,,,,,,,,,,,,,,,,,,,,,,,,,,,,,
,,"[""comma""]",0,[0.21719999999552897],20,0,20,0,1,6070c2f8aa9a08d466b86d5c,19,Mężczyzna,2022-06-04_08h09.29.000,task,2021.1.4,Win32,60.04202942,628b806c463b948bc644b84f,629af6ed1c5129617d9f9881,,,,,,,,,,,,,,,,,,,,,,,,,,,,,,,,,,,,,,,,,,,,,,,,,,,,,,,,,,,,,,,,,,,,,,,,,,,,,,,,,,,,,,,,,,,,,,,,,,,,,,,
,,"[""period"",""comma""]",0,"[0.041500000000013415,1.9335000000000093]",21,0,21,0,1,6070c2f8aa9a08d466b86d5c,19,Mężczyzna,2022-06-04_08h09.29.000,task,2021.1.4,Win32,60.04202942,628b806c463b948bc644b84f,629af6ed1c5129617d9f9881,,,,,,,,,,,,,,,,,,,,,,,,,,,,,,,,,,,,,,,,,,,,,,,,,,,,,,,,,,,,,,,,,,,,,,,,,,,,,,,,,,,,,,,,,,,,,,,,,,,,,,,
,,"[""period""]",0,[1.907299999997008],22,0,22,0,1,6070c2f8aa9a08d466b86d5c,19,Mężczyzna,2022-06-04_08h09.29.000,task,2021.1.4,Win32,60.04202942,628b806c463b948bc644b84f,629af6ed1c5129617d9f9881,,,,,,,,,,,,,,,,,,,,,,,,,,,,,,,,,,,,,,,,,,,,,,,,,,,,,,,,,,,,,,,,,,,,,,,,,,,,,,,,,,,,,,,,,,,,,,,,,,,,,,,
,,"[""period""]",0,[1.881299999997026],23,0,23,0,1,6070c2f8aa9a08d466b86d5c,19,Mężczyzna,2022-06-04_08h09.29.000,task,2021.1.4,Win32,60.04202942,628b806c463b948bc644b84f,629af6ed1c5129617d9f9881,,,,,,,,,,,,,,,,,,,,,,,,,,,,,,,,,,,,,,,,,,,,,,,,,,,,,,,,,,,,,,,,,,,,,,,,,,,,,,,,,,,,,,,,,,,,,,,,,,,,,,,
,,"[""comma""]",0,[1.9336000000014906],24,0,24,0,1,6070c2f8aa9a08d466b86d5c,19,Mężczyzna,2022-06-04_08h09.29.000,task,2021.1.4,Win32,60.04202942,628b806c463b948bc644b84f,629af6ed1c5129617d9f9881,,,,,,,,,,,,,,,,,,,,,,,,,,,,,,,,,,,,,,,,,,,,,,,,,,,,,,,,,,,,,,,,,,,,,,,,,,,,,,,,,,,,,,,,,,,,,,,,,,,,,,,
,,,0,,25,0,25,0,1,6070c2f8aa9a08d466b86d5c,19,Mężczyzna,2022-06-04_08h09.29.000,task,2021.1.4,Win32,60.04202942,628b806c463b948bc644b84f,629af6ed1c5129617d9f9881,,,,,,,,,,,,,,,,,,,,,,,,,,,,,,,,,,,,,,,,,,,,,,,,,,,,,,,,,,,,,,,,,,,,,,,,,,,,,,,,,,,,,,,,,,,,,,,,,,,,,,,
,,"[""period"",""comma""]",0,"[-0.025199999995550115,1.9173000000044453]",26,0,26,0,1,6070c2f8aa9a08d466b86d5c,19,Mężczyzna,2022-06-04_08h09.29.000,task,2021.1.4,Win32,60.04202942,628b806c463b948bc644b84f,629af6ed1c5129617d9f9881,,,,,,,,,,,,,,,,,,,,,,,,,,,,,,,,,,,,,,,,,,,,,,,,,,,,,,,,,,,,,,,,,,,,,,,,,,,,,,,,,,,,,,,,,,,,,,,,,,,,,,,
,,"[""period""]",0,[1.9513999999985288],27,0,27,0,1,6070c2f8aa9a08d466b86d5c,19,Mężczyzna,2022-06-04_08h09.29.000,task,2021.1.4,Win32,60.04202942,628b806c463b948bc644b84f,629af6ed1c5129617d9f9881,,,,,,,,,,,,,,,,,,,,,,,,,,,,,,,,,,,,,,,,,,,,,,,,,,,,,,,,,,,,,,,,,,,,,,,,,,,,,,,,,,,,,,,,,,,,,,,,,,,,,,,
,,,0,,28,0,28,0,1,6070c2f8aa9a08d466b86d5c,19,Mężczyzna,2022-06-04_08h09.29.000,task,2021.1.4,Win32,60.04202942,628b806c463b948bc644b84f,629af6ed1c5129617d9f9881,,,,,,,,,,,,,,,,,,,,,,,,,,,,,,,,,,,,,,,,,,,,,,,,,,,,,,,,,,,,,,,,,,,,,,,,,,,,,,,,,,,,,,,,,,,,,,,,,,,,,,,
,,"[""period"",""comma""]",0,"[0.010099999994054087,1.9502999999970143]",29,0,29,0,1,6070c2f8aa9a08d466b86d5c,19,Mężczyzna,2022-06-04_08h09.29.000,task,2021.1.4,Win32,60.04202942,628b806c463b948bc644b84f,629af6ed1c5129617d9f9881,,,,,,,,,,,,,,,,,,,,,,,,,,,,,,,,,,,,,,,,,,,,,,,,,,,,,,,,,,,,,,,,,,,,,,,,,,,,,,,,,,,,,,,,,,,,,,,,,,,,,,,
,,,0,,30,0,30,0,1,6070c2f8aa9a08d466b86d5c,19,Mężczyzna,2022-06-04_08h09.29.000,task,2021.1.4,Win32,60.04202942,628b806c463b948bc644b84f,629af6ed1c5129617d9f9881,,,,,,,,,,,,,,,,,,,,,,,,,,,,,,,,,,,,,,,,,,,,,,,,,,,,,,,,,,,,,,,,,,,,,,,,,,,,,,,,,,,,,,,,,,,,,,,,,,,,,,,
,,,0,,31,0,31,0,1,6070c2f8aa9a08d466b86d5c,19,Mężczyzna,2022-06-04_08h09.29.000,task,2021.1.4,Win32,60.04202942,628b806c463b948bc644b84f,629af6ed1c5129617d9f9881,,,,,,,,,,,,,,,,,,,,,,,,,,,,,,,,,,,,,,,,,,,,,,,,,,,,,,,,,,,,,,,,,,,,,,,,,,,,,,,,,,,,,,,,,,,,,,,,,,,,,,,
,,"[""comma""]",0,[0.060199999995546705],32,0,32,0,1,6070c2f8aa9a08d466b86d5c,19,Mężczyzna,2022-06-04_08h09.29.000,task,2021.1.4,Win32,60.04202942,628b806c463b948bc644b84f,629af6ed1c5129617d9f9881,,,,,,,,,,,,,,,,,,,,,,,,,,,,,,,,,,,,,,,,,,,,,,,,,,,,,,,,,,,,,,,,,,,,,,,,,,,,,,,,,,,,,,,,,,,,,,,,,,,,,,,
,,"[""comma""]",0,[0.11890000000596501],33,0,33,0,1,6070c2f8aa9a08d466b86d5c,19,Mężczyzna,2022-06-04_08h09.29.000,task,2021.1.4,Win32,60.04202942,628b806c463b948bc644b84f,629af6ed1c5129617d9f9881,,,,,,,,,,,,,,,,,,,,,,,,,,,,,,,,,,,,,,,,,,,,,,,,,,,,,,,,,,,,,,,,,,,,,,,,,,,,,,,,,,,,,,,,,,,,,,,,,,,,,,,
,,"[""period""]",0,[0.1398999999984767],34,0,34,0,1,6070c2f8aa9a08d466b86d5c,19,Mężczyzna,2022-06-04_08h09.29.000,task,2021.1.4,Win32,60.04202942,628b806c463b948bc644b84f,629af6ed1c5129617d9f9881,,,,,,,,,,,,,,,,,,,,,,,,,,,,,,,,,,,,,,,,,,,,,,,,,,,,,,,,,,,,,,,,,,,,,,,,,,,,,,,,,,,,,,,,,,,,,,,,,,,,,,,
,,"[""period""]",0,[0.09690000000597365],35,0,35,0,1,6070c2f8aa9a08d466b86d5c,19,Mężczyzna,2022-06-04_08h09.29.000,task,2021.1.4,Win32,60.04202942,628b806c463b948bc644b84f,629af6ed1c5129617d9f9881,,,,,,,,,,,,,,,,,,,,,,,,,,,,,,,,,,,,,,,,,,,,,,,,,,,,,,,,,,,,,,,,,,,,,,,,,,,,,,,,,,,,,,,,,,,,,,,,,,,,,,,
,,"[""comma""]",0,[0.19760000000150058],36,0,36,0,1,6070c2f8aa9a08d466b86d5c,19,Mężczyzna,2022-06-04_08h09.29.000,task,2021.1.4,Win32,60.04202942,628b806c463b948bc644b84f,629af6ed1c5129617d9f9881,,,,,,,,,,,,,,,,,,,,,,,,,,,,,,,,,,,,,,,,,,,,,,,,,,,,,,,,,,,,,,,,,,,,,,,,,,,,,,,,,,,,,,,,,,,,,,,,,,,,,,,
,,"[""period""]",0,[0.21999999999997044],37,0,37,0,1,6070c2f8aa9a08d466b86d5c,19,Mężczyzna,2022-06-04_08h09.29.000,task,2021.1.4,Win32,60.04202942,628b806c463b948bc644b84f,629af6ed1c5129617d9f9881,,,,,,,,,,,,,,,,,,,,,,,,,,,,,,,,,,,,,,,,,,,,,,,,,,,,,,,,,,,,,,,,,,,,,,,,,,,,,,,,,,,,,,,,,,,,,,,,,,,,,,,
,,"[""comma""]",0,[0.1506000000014751],38,0,38,0,1,6070c2f8aa9a08d466b86d5c,19,Mężczyzna,2022-06-04_08h09.29.000,task,2021.1.4,Win32,60.04202942,628b806c463b948bc644b84f,629af6ed1c5129617d9f9881,,,,,,,,,,,,,,,,,,,,,,,,,,,,,,,,,,,,,,,,,,,,,,,,,,,,,,,,,,,,,,,,,,,,,,,,,,,,,,,,,,,,,,,,,,,,,,,,,,,,,,,
,,"[""period""]",0,[0.044600000001480566],39,0,39,0,1,6070c2f8aa9a08d466b86d5c,19,Mężczyzna,2022-06-04_08h09.29.000,task,2021.1.4,Win32,60.04202942,628b806c463b948bc644b84f,629af6ed1c5129617d9f9881,,,,,,,,,,,,,,,,,,,,,,,,,,,,,,,,,,,,,,,,,,,,,,,,,,,,,,,,,,,,,,,,,,,,,,,,,,,,,,,,,,,,,,,,,,,,,,,,,,,,,,,
,,"[""period""]",0,[0.09760000000147784],40,0,40,0,1,6070c2f8aa9a08d466b86d5c,19,Mężczyzna,2022-06-04_08h09.29.000,task,2021.1.4,Win32,60.04202942,628b806c463b948bc644b84f,629af6ed1c5129617d9f9881,,,,,,,,,,,,,,,,,,,,,,,,,,,,,,,,,,,,,,,,,,,,,,,,,,,,,,,,,,,,,,,,,,,,,,,,,,,,,,,,,,,,,,,,,,,,,,,,,,,,,,,
,,"[""comma""]",0,[0.06080000000446262],41,0,41,0,1,6070c2f8aa9a08d466b86d5c,19,Mężczyzna,2022-06-04_08h09.29.000,task,2021.1.4,Win32,60.04202942,628b806c463b948bc644b84f,629af6ed1c5129617d9f9881,,,,,,,,,,,,,,,,,,,,,,,,,,,,,,,,,,,,,,,,,,,,,,,,,,,,,,,,,,,,,,,,,,,,,,,,,,,,,,,,,,,,,,,,,,,,,,,,,,,,,,,
,,"[""period""]",0,[0.07030000000446535],42,0,42,0,1,6070c2f8aa9a08d466b86d5c,19,Mężczyzna,2022-06-04_08h09.29.000,task,2021.1.4,Win32,60.04202942,628b806c463b948bc644b84f,629af6ed1c5129617d9f9881,,,,,,,,,,,,,,,,,,,,,,,,,,,,,,,,,,,,,,,,,,,,,,,,,,,,,,,,,,,,,,,,,,,,,,,,,,,,,,,,,,,,,,,,,,,,,,,,,,,,,,,
,,"[""comma"",""period""]",0,"[0.17439999999851352,1.880700000003003]",43,0,43,0,1,6070c2f8aa9a08d466b86d5c,19,Mężczyzna,2022-06-04_08h09.29.000,task,2021.1.4,Win32,60.04202942,628b806c463b948bc644b84f,629af6ed1c5129617d9f9881,,,,,,,,,,,,,,,,,,,,,,,,,,,,,,,,,,,,,,,,,,,,,,,,,,,,,,,,,,,,,,,,,,,,,,,,,,,,,,,,,,,,,,,,,,,,,,,,,,,,,,,
,,,0,,44,0,44,0,1,6070c2f8aa9a08d466b86d5c,19,Mężczyzna,2022-06-04_08h09.29.000,task,2021.1.4,Win32,60.04202942,628b806c463b948bc644b84f,629af6ed1c5129617d9f9881,,,,,,,,,,,,,,,,,,,,,,,,,,,,,,,,,,,,,,,,,,,,,,,,,,,,,,,,,,,,,,,,,,,,,,,,,,,,,,,,,,,,,,,,,,,,,,,,,,,,,,,
,,"[""comma""]",0,[0.37910000000152877],45,0,45,0,1,6070c2f8aa9a08d466b86d5c,19,Mężczyzna,2022-06-04_08h09.29.000,task,2021.1.4,Win32,60.04202942,628b806c463b948bc644b84f,629af6ed1c5129617d9f9881,,,,,,,,,,,,,,,,,,,,,,,,,,,,,,,,,,,,,,,,,,,,,,,,,,,,,,,,,,,,,,,,,,,,,,,,,,,,,,,,,,,,,,,,,,,,,,,,,,,,,,,
,,"[""comma""]",0,[0.3009000000059814],46,0,46,0,1,6070c2f8aa9a08d466b86d5c,19,Mężczyzna,2022-06-04_08h09.29.000,task,2021.1.4,Win32,60.04202942,628b806c463b948bc644b84f,629af6ed1c5129617d9f9881,,,,,,,,,,,,,,,,,,,,,,,,,,,,,,,,,,,,,,,,,,,,,,,,,,,,,,,,,,,,,,,,,,,,,,,,,,,,,,,,,,,,,,,,,,,,,,,,,,,,,,,
,,"[""period""]",0,[0.04229999999699885],47,0,47,0,1,6070c2f8aa9a08d466b86d5c,19,Mężczyzna,2022-06-04_08h09.29.000,task,2021.1.4,Win32,60.04202942,628b806c463b948bc644b84f,629af6ed1c5129617d9f9881,,,,,,,,,,,,,,,,,,,,,,,,,,,,,,,,,,,,,,,,,,,,,,,,,,,,,,,,,,,,,,,,,,,,,,,,,,,,,,,,,,,,,,,,,,,,,,,,,,,,,,,
,,"[""period""]",0,[0.20760000000149148],48,0,48,0,1,6070c2f8aa9a08d466b86d5c,19,Mężczyzna,2022-06-04_08h09.29.000,task,2021.1.4,Win32,60.04202942,628b806c463b948bc644b84f,629af6ed1c5129617d9f9881,,,,,,,,,,,,,,,,,,,,,,,,,,,,,,,,,,,,,,,,,,,,,,,,,,,,,,,,,,,,,,,,,,,,,,,,,,,,,,,,,,,,,,,,,,,,,,,,,,,,,,,
,,"[""period""]",0,[0.2171000000014942],49,0,49,0,1,6070c2f8aa9a08d466b86d5c,19,Mężczyzna,2022-06-04_08h09.29.000,task,2021.1.4,Win32,60.04202942,628b806c463b948bc644b84f,629af6ed1c5129617d9f9881,,,,,,,,,,,,,,,,,,,,,,,,,,,,,,,,,,,,,,,,,,,,,,,,,,,,,,,,,,,,,,,,,,,,,,,,,,,,,,,,,,,,,,,,,,,,,,,,,,,,,,,
,,"[""period""]",0,[0.34610000000145646],50,0,50,0,1,6070c2f8aa9a08d466b86d5c,19,Mężczyzna,2022-06-04_08h09.29.000,task,2021.1.4,Win32,60.04202942,628b806c463b948bc644b84f,629af6ed1c5129617d9f9881,,,,,,,,,,,,,,,,,,,,,,,,,,,,,,,,,,,,,,,,,,,,,,,,,,,,,,,,,,,,,,,,,,,,,,,,,,,,,,,,,,,,,,,,,,,,,,,,,,,,,,,
,,"[""comma"",""comma""]",0,"[0.1791000000014833,1.9382000000030075]",51,0,51,0,1,6070c2f8aa9a08d466b86d5c,19,Mężczyzna,2022-06-04_08h09.29.000,task,2021.1.4,Win32,60.04202942,628b806c463b948bc644b84f,629af6ed1c5129617d9f9881,,,,,,,,,,,,,,,,,,,,,,,,,,,,,,,,,,,,,,,,,,,,,,,,,,,,,,,,,,,,,,,,,,,,,,,,,,,,,,,,,,,,,,,,,,,,,,,,,,,,,,,
,,,0,,52,0,52,0,1,6070c2f8aa9a08d466b86d5c,19,Mężczyzna,2022-06-04_08h09.29.000,task,2021.1.4,Win32,60.04202942,628b806c463b948bc644b84f,629af6ed1c5129617d9f9881,,,,,,,,,,,,,,,,,,,,,,,,,,,,,,,,,,,,,,,,,,,,,,,,,,,,,,,,,,,,,,,,,,,,,,,,,,,,,,,,,,,,,,,,,,,,,,,,,,,,,,,
,,"[""comma""]",0,[0.12039999999848305],53,0,53,0,1,6070c2f8aa9a08d466b86d5c,19,Mężczyzna,2022-06-04_08h09.29.000,task,2021.1.4,Win32,60.04202942,628b806c463b948bc644b84f,629af6ed1c5129617d9f9881,,,,,,,,,,,,,,,,,,,,,,,,,,,,,,,,,,,,,,,,,,,,,,,,,,,,,,,,,,,,,,,,,,,,,,,,,,,,,,,,,,,,,,,,,,,,,,,,,,,,,,,
,,"[""comma""]",0,[0.26779999999700976],54,0,54,0,1,6070c2f8aa9a08d466b86d5c,19,Mężczyzna,2022-06-04_08h09.29.000,task,2021.1.4,Win32,60.04202942,628b806c463b948bc644b84f,629af6ed1c5129617d9f9881,,,,,,,,,,,,,,,,,,,,,,,,,,,,,,,,,,,,,,,,,,,,,,,,,,,,,,,,,,,,,,,,,,,,,,,,,,,,,,,,,,,,,,,,,,,,,,,,,,,,,,,
,,"[""period"",""comma""]",0,"[0.23399999999998045,1.925700000002962]",55,0,55,0,1,6070c2f8aa9a08d466b86d5c,19,Mężczyzna,2022-06-04_08h09.29.000,task,2021.1.4,Win32,60.04202942,628b806c463b948bc644b84f,629af6ed1c5129617d9f9881,,,,,,,,,,,,,,,,,,,,,,,,,,,,,,,,,,,,,,,,,,,,,,,,,,,,,,,,,,,,,,,,,,,,,,,,,,,,,,,,,,,,,,,,,,,,,,,,,,,,,,,
,,"[""comma""]",0,[1.92440000000596],56,0,56,0,1,6070c2f8aa9a08d466b86d5c,19,Mężczyzna,2022-06-04_08h09.29.000,task,2021.1.4,Win32,60.04202942,628b806c463b948bc644b84f,629af6ed1c5129617d9f9881,,,,,,,,,,,,,,,,,,,,,,,,,,,,,,,,,,,,,,,,,,,,,,,,,,,,,,,,,,,,,,,,,,,,,,,,,,,,,,,,,,,,,,,,,,,,,,,,,,,,,,,
,,,0,,57,0,57,0,1,6070c2f8aa9a08d466b86d5c,19,Mężczyzna,2022-06-04_08h09.29.000,task,2021.1.4,Win32,60.04202942,628b806c463b948bc644b84f,629af6ed1c5129617d9f9881,,,,,,,,,,,,,,,,,,,,,,,,,,,,,,,,,,,,,,,,,,,,,,,,,,,,,,,,,,,,,,,,,,,,,,,,,,,,,,,,,,,,,,,,,,,,,,,,,,,,,,,
,,"[""period""]",0,[0.09380000000442124],58,0,58,0,1,6070c2f8aa9a08d466b86d5c,19,Mężczyzna,2022-06-04_08h09.29.000,task,2021.1.4,Win32,60.04202942,628b806c463b948bc644b84f,629af6ed1c5129617d9f9881,,,,,,,,,,,,,,,,,,,,,,,,,,,,,,,,,,,,,,,,,,,,,,,,,,,,,,,,,,,,,,,,,,,,,,,,,,,,,,,,,,,,,,,,,,,,,,,,,,,,,,,
,,"[""period""]",0,[0.13370000000298887],59,0,59,0,1,6070c2f8aa9a08d466b86d5c,19,Mężczyzna,2022-06-04_08h09.29.000,task,2021.1.4,Win32,60.04202942,628b806c463b948bc644b84f,629af6ed1c5129617d9f9881,,,,,,,,,,,,,,,,,,,,,,,,,,,,,,,,,,,,,,,,,,,,,,,,,,,,,,,,,,,,,,,,,,,,,,,,,,,,,,,,,,,,,,,,,,,,,,,,,,,,,,,
,,"[""comma""]",0,[0.283899999998539],60,0,60,0,1,6070c2f8aa9a08d466b86d5c,19,Mężczyzna,2022-06-04_08h09.29.000,task,2021.1.4,Win32,60.04202942,628b806c463b948bc644b84f,629af6ed1c5129617d9f9881,,,,,,,,,,,,,,,,,,,,,,,,,,,,,,,,,,,,,,,,,,,,,,,,,,,,,,,,,,,,,,,,,,,,,,,,,,,,,,,,,,,,,,,,,,,,,,,,,,,,,,,
,,"[""comma""]",0,[0.2761000000014633],61,0,61,0,1,6070c2f8aa9a08d466b86d5c,19,Mężczyzna,2022-06-04_08h09.29.000,task,2021.1.4,Win32,60.04202942,628b806c463b948bc644b84f,629af6ed1c5129617d9f9881,,,,,,,,,,,,,,,,,,,,,,,,,,,,,,,,,,,,,,,,,,,,,,,,,,,,,,,,,,,,,,,,,,,,,,,,,,,,,,,,,,,,,,,,,,,,,,,,,,,,,,,
,,"[""period""]",0,[0.024100000001453736],62,0,62,0,1,6070c2f8aa9a08d466b86d5c,19,Mężczyzna,2022-06-04_08h09.29.000,task,2021.1.4,Win32,60.04202942,628b806c463b948bc644b84f,629af6ed1c5129617d9f9881,,,,,,,,,,,,,,,,,,,,,,,,,,,,,,,,,,,,,,,,,,,,,,,,,,,,,,,,,,,,,,,,,,,,,,,,,,,,,,,,,,,,,,,,,,,,,,,,,,,,,,,
,,"[""period""]",0,[0.0004999999999881766],63,0,63,0,1,6070c2f8aa9a08d466b86d5c,19,Mężczyzna,2022-06-04_08h09.29.000,task,2021.1.4,Win32,60.04202942,628b806c463b948bc644b84f,629af6ed1c5129617d9f9881,,,,,,,,,,,,,,,,,,,,,,,,,,,,,,,,,,,,,,,,,,,,,,,,,,,,,,,,,,,,,,,,,,,,,,,,,,,,,,,,,,,,,,,,,,,,,,,,,,,,,,,
,,"[""comma""]",0,[0.07510000000144146],64,0,64,0,1,6070c2f8aa9a08d466b86d5c,19,Mężczyzna,2022-06-04_08h09.29.000,task,2021.1.4,Win32,60.04202942,628b806c463b948bc644b84f,629af6ed1c5129617d9f9881,,,,,,,,,,,,,,,,,,,,,,,,,,,,,,,,,,,,,,,,,,,,,,,,,,,,,,,,,,,,,,,,,,,,,,,,,,,,,,,,,,,,,,,,,,,,,,,,,,,,,,,
,,"[""period""]",0,[0.16149999999998954],65,0,65,0,1,6070c2f8aa9a08d466b86d5c,19,Mężczyzna,2022-06-04_08h09.29.000,task,2021.1.4,Win32,60.04202942,628b806c463b948bc644b84f,629af6ed1c5129617d9f9881,,,,,,,,,,,,,,,,,,,,,,,,,,,,,,,,,,,,,,,,,,,,,,,,,,,,,,,,,,,,,,,,,,,,,,,,,,,,,,,,,,,,,,,,,,,,,,,,,,,,,,,
,,"[""period""]",0,[0.2647000000029607],66,0,66,0,1,6070c2f8aa9a08d466b86d5c,19,Mężczyzna,2022-06-04_08h09.29.000,task,2021.1.4,Win32,60.04202942,628b806c463b948bc644b84f,629af6ed1c5129617d9f9881,,,,,,,,,,,,,,,,,,,,,,,,,,,,,,,,,,,,,,,,,,,,,,,,,,,,,,,,,,,,,,,,,,,,,,,,,,,,,,,,,,,,,,,,,,,,,,,,,,,,,,,
,,"[""period"",""comma""]",0,"[0.11339999999847805,1.9443000000044321]",67,0,67,0,1,6070c2f8aa9a08d466b86d5c,19,Mężczyzna,2022-06-04_08h09.29.000,task,2021.1.4,Win32,60.04202942,628b806c463b948bc644b84f,629af6ed1c5129617d9f9881,,,,,,,,,,,,,,,,,,,,,,,,,,,,,,,,,,,,,,,,,,,,,,,,,,,,,,,,,,,,,,,,,,,,,,,,,,,,,,,,,,,,,,,,,,,,,,,,,,,,,,,
,,,0,,68,0,68,0,1,6070c2f8aa9a08d466b86d5c,19,Mężczyzna,2022-06-04_08h09.29.000,task,2021.1.4,Win32,60.04202942,628b806c463b948bc644b84f,629af6ed1c5129617d9f9881,,,,,,,,,,,,,,,,,,,,,,,,,,,,,,,,,,,,,,,,,,,,,,,,,,,,,,,,,,,,,,,,,,,,,,,,,,,,,,,,,,,,,,,,,,,,,,,,,,,,,,,
,,"[""period""]",0,[0.6876999999955729],69,0,69,0,1,6070c2f8aa9a08d466b86d5c,19,Mężczyzna,2022-06-04_08h09.29.000,task,2021.1.4,Win32,60.04202942,628b806c463b948bc644b84f,629af6ed1c5129617d9f9881,,,,,,,,,,,,,,,,,,,,,,,,,,,,,,,,,,,,,,,,,,,,,,,,,,,,,,,,,,,,,,,,,,,,,,,,,,,,,,,,,,,,,,,,,,,,,,,,,,,,,,,
,,"[""comma""]",0,[0.29210000000148284],70,0,70,0,1,6070c2f8aa9a08d466b86d5c,19,Mężczyzna,2022-06-04_08h09.29.000,task,2021.1.4,Win32,60.04202942,628b806c463b948bc644b84f,629af6ed1c5129617d9f9881,,,,,,,,,,,,,,,,,,,,,,,,,,,,,,,,,,,,,,,,,,,,,,,,,,,,,,,,,,,,,,,,,,,,,,,,,,,,,,,,,,,,,,,,,,,,,,,,,,,,,,,
,,"[""period""]",0,[0.2603000000044631],71,0,71,0,1,6070c2f8aa9a08d466b86d5c,19,Mężczyzna,2022-06-04_08h09.29.000,task,2021.1.4,Win32,60.04202942,628b806c463b948bc644b84f,629af6ed1c5129617d9f9881,,,,,,,,,,,,,,,,,,,,,,,,,,,,,,,,,,,,,,,,,,,,,,,,,,,,,,,,,,,,,,,,,,,,,,,,,,,,,,,,,,,,,,,,,,,,,,,,,,,,,,,
,,"[""comma""]",0,[0.18360000000149057],72,0,72,0,1,6070c2f8aa9a08d466b86d5c,19,Mężczyzna,2022-06-04_08h09.29.000,task,2021.1.4,Win32,60.04202942,628b806c463b948bc644b84f,629af6ed1c5129617d9f9881,,,,,,,,,,,,,,,,,,,,,,,,,,,,,,,,,,,,,,,,,,,,,,,,,,,,,,,,,,,,,,,,,,,,,,,,,,,,,,,,,,,,,,,,,,,,,,,,,,,,,,,
,,"[""comma""]",0,[0.21260000000148693],73,0,73,0,1,6070c2f8aa9a08d466b86d5c,19,Mężczyzna,2022-06-04_08h09.29.000,task,2021.1.4,Win32,60.04202942,628b806c463b948bc644b84f,629af6ed1c5129617d9f9881,,,,,,,,,,,,,,,,,,,,,,,,,,,,,,,,,,,,,,,,,,,,,,,,,,,,,,,,,,,,,,,,,,,,,,,,,,,,,,,,,,,,,,,,,,,,,,,,,,,,,,,
,,"[""period""]",0,[0.17990000000594364],74,0,74,0,1,6070c2f8aa9a08d466b86d5c,19,Mężczyzna,2022-06-04_08h09.29.000,task,2021.1.4,Win32,60.04202942,628b806c463b948bc644b84f,629af6ed1c5129617d9f9881,,,,,,,,,,,,,,,,,,,,,,,,,,,,,,,,,,,,,,,,,,,,,,,,,,,,,,,,,,,,,,,,,,,,,,,,,,,,,,,,,,,,,,,,,,,,,,,,,,,,,,,
,,"[""comma"",""period""]",0,"[0.011700000002974775,1.8512999999970248]",75,0,75,0,1,6070c2f8aa9a08d466b86d5c,19,Mężczyzna,2022-06-04_08h09.29.000,task,2021.1.4,Win32,60.04202942,628b806c463b948bc644b84f,629af6ed1c5129617d9f9881,,,,,,,,,,,,,,,,,,,,,,,,,,,,,,,,,,,,,,,,,,,,,,,,,,,,,,,,,,,,,,,,,,,,,,,,,,,,,,,,,,,,,,,,,,,,,,,,,,,,,,,
,,,0,,76,0,76,0,1,6070c2f8aa9a08d466b86d5c,19,Mężczyzna,2022-06-04_08h09.29.000,task,2021.1.4,Win32,60.04202942,628b806c463b948bc644b84f,629af6ed1c5129617d9f9881,,,,,,,,,,,,,,,,,,,,,,,,,,,,,,,,,,,,,,,,,,,,,,,,,,,,,,,,,,,,,,,,,,,,,,,,,,,,,,,,,,,,,,,,,,,,,,,,,,,,,,,
,,"[""comma""]",0,[0.35270000000298296],77,0,77,0,1,6070c2f8aa9a08d466b86d5c,19,Mężczyzna,2022-06-04_08h09.29.000,task,2021.1.4,Win32,60.04202942,628b806c463b948bc644b84f,629af6ed1c5129617d9f9881,,,,,,,,,,,,,,,,,,,,,,,,,,,,,,,,,,,,,,,,,,,,,,,,,,,,,,,,,,,,,,,,,,,,,,,,,,,,,,,,,,,,,,,,,,,,,,,,,,,,,,,
,,"[""comma""]",0,[0.3131999999955042],78,0,78,0,1,6070c2f8aa9a08d466b86d5c,19,Mężczyzna,2022-06-04_08h09.29.000,task,2021.1.4,Win32,60.04202942,628b806c463b948bc644b84f,629af6ed1c5129617d9f9881,,,,,,,,,,,,,,,,,,,,,,,,,,,,,,,,,,,,,,,,,,,,,,,,,,,,,,,,,,,,,,,,,,,,,,,,,,,,,,,,,,,,,,,,,,,,,,,,,,,,,,,
,,"[""comma""]",0,[0.3368999999984794],79,0,79,0,1,6070c2f8aa9a08d466b86d5c,19,Mężczyzna,2022-06-04_08h09.29.000,task,2021.1.4,Win32,60.04202942,628b806c463b948bc644b84f,629af6ed1c5129617d9f9881,,,,,,,,,,,,,,,,,,,,,,,,,,,,,,,,,,,,,,,,,,,,,,,,,,,,,,,,,,,,,,,,,,,,,,,,,,,,,,,,,,,,,,,,,,,,,,,,,,,,,,,
,,"[""period""]",0,[0.3241999999955283],80,0,80,0,1,6070c2f8aa9a08d466b86d5c,19,Mężczyzna,2022-06-04_08h09.29.000,task,2021.1.4,Win32,60.04202942,628b806c463b948bc644b84f,629af6ed1c5129617d9f9881,,,,,,,,,,,,,,,,,,,,,,,,,,,,,,,,,,,,,,,,,,,,,,,,,,,,,,,,,,,,,,,,,,,,,,,,,,,,,,,,,,,,,,,,,,,,,,,,,,,,,,,
,,"[""period""]",0,[0.33710000000149876],81,0,81,0,1,6070c2f8aa9a08d466b86d5c,19,Mężczyzna,2022-06-04_08h09.29.000,task,2021.1.4,Win32,60.04202942,628b806c463b948bc644b84f,629af6ed1c5129617d9f9881,,,,,,,,,,,,,,,,,,,,,,,,,,,,,,,,,,,,,,,,,,,,,,,,,,,,,,,,,,,,,,,,,,,,,,,,,,,,,,,,,,,,,,,,,,,,,,,,,,,,,,,
,,"[""comma""]",0,[0.36299999999999955],82,0,82,0,1,6070c2f8aa9a08d466b86d5c,19,Mężczyzna,2022-06-04_08h09.29.000,task,2021.1.4,Win32,60.04202942,628b806c463b948bc644b84f,629af6ed1c5129617d9f9881,,,,,,,,,,,,,,,,,,,,,,,,,,,,,,,,,,,,,,,,,,,,,,,,,,,,,,,,,,,,,,,,,,,,,,,,,,,,,,,,,,,,,,,,,,,,,,,,,,,,,,,
,,"[""period""]",0,[0.34000000000003183],83,0,83,0,1,6070c2f8aa9a08d466b86d5c,19,Mężczyzna,2022-06-04_08h09.29.000,task,2021.1.4,Win32,60.04202942,628b806c463b948bc644b84f,629af6ed1c5129617d9f9881,,,,,,,,,,,,,,,,,,,,,,,,,,,,,,,,,,,,,,,,,,,,,,,,,,,,,,,,,,,,,,,,,,,,,,,,,,,,,,,,,,,,,,,,,,,,,,,,,,,,,,,
,,"[""comma""]",0,[0.33310000000147966],84,0,84,0,1,6070c2f8aa9a08d466b86d5c,19,Mężczyzna,2022-06-04_08h09.29.000,task,2021.1.4,Win32,60.04202942,628b806c463b948bc644b84f,629af6ed1c5129617d9f9881,,,,,,,,,,,,,,,,,,,,,,,,,,,,,,,,,,,,,,,,,,,,,,,,,,,,,,,,,,,,,,,,,,,,,,,,,,,,,,,,,,,,,,,,,,,,,,,,,,,,,,,
,,"[""comma""]",0,[0.40519999999554557],85,0,85,0,1,6070c2f8aa9a08d466b86d5c,19,Mężczyzna,2022-06-04_08h09.29.000,task,2021.1.4,Win32,60.04202942,628b806c463b948bc644b84f,629af6ed1c5129617d9f9881,,,,,,,,,,,,,,,,,,,,,,,,,,,,,,,,,,,,,,,,,,,,,,,,,,,,,,,,,,,,,,,,,,,,,,,,,,,,,,,,,,,,,,,,,,,,,,,,,,,,,,,
,,"[""period""]",0,[0.34529999999705296],86,0,86,0,1,6070c2f8aa9a08d466b86d5c,19,Mężczyzna,2022-06-04_08h09.29.000,task,2021.1.4,Win32,60.04202942,628b806c463b948bc644b84f,629af6ed1c5129617d9f9881,,,,,,,,,,,,,,,,,,,,,,,,,,,,,,,,,,,,,,,,,,,,,,,,,,,,,,,,,,,,,,,,,,,,,,,,,,,,,,,,,,,,,,,,,,,,,,,,,,,,,,,
,,"[""comma""]",0,[0.2787000000029707],87,0,87,0,1,6070c2f8aa9a08d466b86d5c,19,Mężczyzna,2022-06-04_08h09.29.000,task,2021.1.4,Win32,60.04202942,628b806c463b948bc644b84f,629af6ed1c5129617d9f9881,,,,,,,,,,,,,,,,,,,,,,,,,,,,,,,,,,,,,,,,,,,,,,,,,,,,,,,,,,,,,,,,,,,,,,,,,,,,,,,,,,,,,,,,,,,,,,,,,,,,,,,
,,"[""comma"",""period""]",0,"[0.429399999998509,0.4294999999999618]",88,0,88,0,1,6070c2f8aa9a08d466b86d5c,19,Mężczyzna,2022-06-04_08h09.29.000,task,2021.1.4,Win32,60.04202942,628b806c463b948bc644b84f,629af6ed1c5129617d9f9881,,,,,,,,,,,,,,,,,,,,,,,,,,,,,,,,,,,,,,,,,,,,,,,,,,,,,,,,,,,,,,,,,,,,,,,,,,,,,,,,,,,,,,,,,,,,,,,,,,,,,,,
,,"[""period""]",0,[0.6792999999970561],89,0,89,0,1,6070c2f8aa9a08d466b86d5c,19,Mężczyzna,2022-06-04_08h09.29.000,task,2021.1.4,Win32,60.04202942,628b806c463b948bc644b84f,629af6ed1c5129617d9f9881,,,,,,,,,,,,,,,,,,,,,,,,,,,,,,,,,,,,,,,,,,,,,,,,,,,,,,,,,,,,,,,,,,,,,,,,,,,,,,,,,,,,,,,,,,,,,,,,,,,,,,,
,,"[""comma"",""period""]",0,"[0.011100000001476928,0.013399999998512158]",90,0,90,0,1,6070c2f8aa9a08d466b86d5c,19,Mężczyzna,2022-06-04_08h09.29.000,task,2021.1.4,Win32,60.04202942,628b806c463b948bc644b84f,629af6ed1c5129617d9f9881,,,,,,,,,,,,,,,,,,,,,,,,,,,,,,,,,,,,,,,,,,,,,,,,,,,,,,,,,,,,,,,,,,,,,,,,,,,,,,,,,,,,,,,,,,,,,,,,,,,,,,,
,,"[""comma""]",0,[0.21939999999852944],91,0,91,0,1,6070c2f8aa9a08d466b86d5c,19,Mężczyzna,2022-06-04_08h09.29.000,task,2021.1.4,Win32,60.04202942,628b806c463b948bc644b84f,629af6ed1c5129617d9f9881,,,,,,,,,,,,,,,,,,,,,,,,,,,,,,,,,,,,,,,,,,,,,,,,,,,,,,,,,,,,,,,,,,,,,,,,,,,,,,,,,,,,,,,,,,,,,,,,,,,,,,,
,,"[""comma""]",0,[0.4263000000044599],92,0,92,0,1,6070c2f8aa9a08d466b86d5c,19,Mężczyzna,2022-06-04_08h09.29.000,task,2021.1.4,Win32,60.04202942,628b806c463b948bc644b84f,629af6ed1c5129617d9f9881,,,,,,,,,,,,,,,,,,,,,,,,,,,,,,,,,,,,,,,,,,,,,,,,,,,,,,,,,,,,,,,,,,,,,,,,,,,,,,,,,,,,,,,,,,,,,,,,,,,,,,,
,,"[""period""]",0,[0.22419999999550555],93,0,93,0,1,6070c2f8aa9a08d466b86d5c,19,Mężczyzna,2022-06-04_08h09.29.000,task,2021.1.4,Win32,60.04202942,628b806c463b948bc644b84f,629af6ed1c5129617d9f9881,,,,,,,,,,,,,,,,,,,,,,,,,,,,,,,,,,,,,,,,,,,,,,,,,,,,,,,,,,,,,,,,,,,,,,,,,,,,,,,,,,,,,,,,,,,,,,,,,,,,,,,
,,"[""comma""]",0,[0.17950000000001864],94,0,94,0,1,6070c2f8aa9a08d466b86d5c,19,Mężczyzna,2022-06-04_08h09.29.000,task,2021.1.4,Win32,60.04202942,628b806c463b948bc644b84f,629af6ed1c5129617d9f9881,,,,,,,,,,,,,,,,,,,,,,,,,,,,,,,,,,,,,,,,,,,,,,,,,,,,,,,,,,,,,,,,,,,,,,,,,,,,,,,,,,,,,,,,,,,,,,,,,,,,,,,
,,"[""comma""]",0,[0.26900000000000546],95,0,95,0,1,6070c2f8aa9a08d466b86d5c,19,Mężczyzna,2022-06-04_08h09.29.000,task,2021.1.4,Win32,60.04202942,628b806c463b948bc644b84f,629af6ed1c5129617d9f9881,,,,,,,,,,,,,,,,,,,,,,,,,,,,,,,,,,,,,,,,,,,,,,,,,,,,,,,,,,,,,,,,,,,,,,,,,,,,,,,,,,,,,,,,,,,,,,,,,,,,,,,
,,,0,,96,0,96,0,1,6070c2f8aa9a08d466b86d5c,19,Mężczyzna,2022-06-04_08h09.29.000,task,2021.1.4,Win32,60.04202942,628b806c463b948bc644b84f,629af6ed1c5129617d9f9881,,,,,,,,,,,,,,,,,,,,,,,,,,,,,,,,,,,,,,,,,,,,,,,,,,,,,,,,,,,,,,,,,,,,,,,,,,,,,,,,,,,,,,,,,,,,,,,,,,,,,,,
,,"[""period""]",0,[0.2524999999999977],97,0,97,0,1,6070c2f8aa9a08d466b86d5c,19,Mężczyzna,2022-06-04_08h09.29.000,task,2021.1.4,Win32,60.04202942,628b806c463b948bc644b84f,629af6ed1c5129617d9f9881,,,,,,,,,,,,,,,,,,,,,,,,,,,,,,,,,,,,,,,,,,,,,,,,,,,,,,,,,,,,,,,,,,,,,,,,,,,,,,,,,,,,,,,,,,,,,,,,,,,,,,,
,,"[""period""]",0,[0.13849999999996498],98,0,98,0,1,6070c2f8aa9a08d466b86d5c,19,Mężczyzna,2022-06-04_08h09.29.000,task,2021.1.4,Win32,60.04202942,628b806c463b948bc644b84f,629af6ed1c5129617d9f9881,,,,,,,,,,,,,,,,,,,,,,,,,,,,,,,,,,,,,,,,,,,,,,,,,,,,,,,,,,,,,,,,,,,,,,,,,,,,,,,,,,,,,,,,,,,,,,,,,,,,,,,
,,,0,,99,0,99,0,1,6070c2f8aa9a08d466b86d5c,19,Mężczyzna,2022-06-04_08h09.29.000,task,2021.1.4,Win32,60.04202942,628b806c463b948bc644b84f,629af6ed1c5129617d9f9881,,,,,,,,,,,,,,,,,,,,,,,,,,,,,,,,,,,,,,,,,,,,,,,,,,,,,,,,,,,,,,,,,,,,,,,,,,,,,,,,,,,,,,,,,,,,,,,,,,,,,,,
,,,0,,100,0,100,0,1,6070c2f8aa9a08d466b86d5c,19,Mężczyzna,2022-06-04_08h09.29.000,task,2021.1.4,Win32,60.04202942,628b806c463b948bc644b84f,629af6ed1c5129617d9f9881,,,,,,,,,,,,,,,,,,,,,,,,,,,,,,,,,,,,,,,,,,,,,,,,,,,,,,,,,,,,,,,,,,,,,,,,,,,,,,,,,,,,,,,,,,,,,,,,,,,,,,,
,,"[""period""]",0,[0.24039999999854444],101,0,101,0,1,6070c2f8aa9a08d466b86d5c,19,Mężczyzna,2022-06-04_08h09.29.000,task,2021.1.4,Win32,60.04202942,628b806c463b948bc644b84f,629af6ed1c5129617d9f9881,,,,,,,,,,,,,,,,,,,,,,,,,,,,,,,,,,,,,,,,,,,,,,,,,,,,,,,,,,,,,,,,,,,,,,,,,,,,,,,,,,,,,,,,,,,,,,,,,,,,,,,
,,"[""period""]",0,[0.49200000000001864],102,0,102,0,1,6070c2f8aa9a08d466b86d5c,19,Mężczyzna,2022-06-04_08h09.29.000,task,2021.1.4,Win32,60.04202942,628b806c463b948bc644b84f,629af6ed1c5129617d9f9881,,,,,,,,,,,,,,,,,,,,,,,,,,,,,,,,,,,,,,,,,,,,,,,,,,,,,,,,,,,,,,,,,,,,,,,,,,,,,,,,,,,,,,,,,,,,,,,,,,,,,,,
,,"[""period""]",0,[0.5640999999940277],103,0,103,0,1,6070c2f8aa9a08d466b86d5c,19,Mężczyzna,2022-06-04_08h09.29.000,task,2021.1.4,Win32,60.04202942,628b806c463b948bc644b84f,629af6ed1c5129617d9f9881,,,,,,,,,,,,,,,,,,,,,,,,,,,,,,,,,,,,,,,,,,,,,,,,,,,,,,,,,,,,,,,,,,,,,,,,,,,,,,,,,,,,,,,,,,,,,,,,,,,,,,,
,,"[""period""]",0,[0.5336000000015133],104,0,104,0,1,6070c2f8aa9a08d466b86d5c,19,Mężczyzna,2022-06-04_08h09.29.000,task,2021.1.4,Win32,60.04202942,628b806c463b948bc644b84f,629af6ed1c5129617d9f9881,,,,,,,,,,,,,,,,,,,,,,,,,,,,,,,,,,,,,,,,,,,,,,,,,,,,,,,,,,,,,,,,,,,,,,,,,,,,,,,,,,,,,,,,,,,,,,,,,,,,,,,
,,"[""comma""]",0,[0.507000000000005],105,0,105,0,1,6070c2f8aa9a08d466b86d5c,19,Mężczyzna,2022-06-04_08h09.29.000,task,2021.1.4,Win32,60.04202942,628b806c463b948bc644b84f,629af6ed1c5129617d9f9881,,,,,,,,,,,,,,,,,,,,,,,,,,,,,,,,,,,,,,,,,,,,,,,,,,,,,,,,,,,,,,,,,,,,,,,,,,,,,,,,,,,,,,,,,,,,,,,,,,,,,,,
,,"[""comma""]",0,[0.7436000000014928],106,0,106,0,1,6070c2f8aa9a08d466b86d5c,19,Mężczyzna,2022-06-04_08h09.29.000,task,2021.1.4,Win32,60.04202942,628b806c463b948bc644b84f,629af6ed1c5129617d9f9881,,,,,,,,,,,,,,,,,,,,,,,,,,,,,,,,,,,,,,,,,,,,,,,,,,,,,,,,,,,,,,,,,,,,,,,,,,,,,,,,,,,,,,,,,,,,,,,,,,,,,,,
,,"[""comma""]",0,[0.5168999999984862],107,0,107,0,1,6070c2f8aa9a08d466b86d5c,19,Mężczyzna,2022-06-04_08h09.29.000,task,2021.1.4,Win32,60.04202942,628b806c463b948bc644b84f,629af6ed1c5129617d9f9881,,,,,,,,,,,,,,,,,,,,,,,,,,,,,,,,,,,,,,,,,,,,,,,,,,,,,,,,,,,,,,,,,,,,,,,,,,,,,,,,,,,,,,,,,,,,,,,,,,,,,,,
,,"[""period""]",0,[0.41250000000002274],108,0,108,0,1,6070c2f8aa9a08d466b86d5c,19,Mężczyzna,2022-06-04_08h09.29.000,task,2021.1.4,Win32,60.04202942,628b806c463b948bc644b84f,629af6ed1c5129617d9f9881,,,,,,,,,,,,,,,,,,,,,,,,,,,,,,,,,,,,,,,,,,,,,,,,,,,,,,,,,,,,,,,,,,,,,,,,,,,,,,,,,,,,,,,,,,,,,,,,,,,,,,,
,,"[""period""]",0,[0.36719999999553465],109,0,109,0,1,6070c2f8aa9a08d466b86d5c,19,Mężczyzna,2022-06-04_08h09.29.000,task,2021.1.4,Win32,60.04202942,628b806c463b948bc644b84f,629af6ed1c5129617d9f9881,,,,,,,,,,,,,,,,,,,,,,,,,,,,,,,,,,,,,,,,,,,,,,,,,,,,,,,,,,,,,,,,,,,,,,,,,,,,,,,,,,,,,,,,,,,,,,,,,,,,,,,
,,"[""period""]",0,[0.36679999999705615],110,0,110,0,1,6070c2f8aa9a08d466b86d5c,19,Mężczyzna,2022-06-04_08h09.29.000,task,2021.1.4,Win32,60.04202942,628b806c463b948bc644b84f,629af6ed1c5129617d9f9881,,,,,,,,,,,,,,,,,,,,,,,,,,,,,,,,,,,,,,,,,,,,,,,,,,,,,,,,,,,,,,,,,,,,,,,,,,,,,,,,,,,,,,,,,,,,,,,,,,,,,,,
,,"[""comma""]",0,[0.3437999999970316],111,0,111,0,1,6070c2f8aa9a08d466b86d5c,19,Mężczyzna,2022-06-04_08h09.29.000,task,2021.1.4,Win32,60.04202942,628b806c463b948bc644b84f,629af6ed1c5129617d9f9881,,,,,,,,,,,,,,,,,,,,,,,,,,,,,,,,,,,,,,,,,,,,,,,,,,,,,,,,,,,,,,,,,,,,,,,,,,,,,,,,,,,,,,,,,,,,,,,,,,,,,,,
,,"[""period""]",0,[0.27800000000002],112,0,112,0,1,6070c2f8aa9a08d466b86d5c,19,Mężczyzna,2022-06-04_08h09.29.000,task,2021.1.4,Win32,60.04202942,628b806c463b948bc644b84f,629af6ed1c5129617d9f9881,,,,,,,,,,,,,,,,,,,,,,,,,,,,,,,,,,,,,,,,,,,,,,,,,,,,,,,,,,,,,,,,,,,,,,,,,,,,,,,,,,,,,,,,,,,,,,,,,,,,,,,
,,"[""comma""]",0,[0.2967999999970061],113,0,113,0,1,6070c2f8aa9a08d466b86d5c,19,Mężczyzna,2022-06-04_08h09.29.000,task,2021.1.4,Win32,60.04202942,628b806c463b948bc644b84f,629af6ed1c5129617d9f9881,,,,,,,,,,,,,,,,,,,,,,,,,,,,,,,,,,,,,,,,,,,,,,,,,,,,,,,,,,,,,,,,,,,,,,,,,,,,,,,,,,,,,,,,,,,,,,,,,,,,,,,
,,"[""period""]",0,[0.36389999999852307],114,0,114,0,1,6070c2f8aa9a08d466b86d5c,19,Mężczyzna,2022-06-04_08h09.29.000,task,2021.1.4,Win32,60.04202942,628b806c463b948bc644b84f,629af6ed1c5129617d9f9881,,,,,,,,,,,,,,,,,,,,,,,,,,,,,,,,,,,,,,,,,,,,,,,,,,,,,,,,,,,,,,,,,,,,,,,,,,,,,,,,,,,,,,,,,,,,,,,,,,,,,,,
,,"[""period""]",0,[0.31639999999850943],115,0,115,0,1,6070c2f8aa9a08d466b86d5c,19,Mężczyzna,2022-06-04_08h09.29.000,task,2021.1.4,Win32,60.04202942,628b806c463b948bc644b84f,629af6ed1c5129617d9f9881,,,,,,,,,,,,,,,,,,,,,,,,,,,,,,,,,,,,,,,,,,,,,,,,,,,,,,,,,,,,,,,,,,,,,,,,,,,,,,,,,,,,,,,,,,,,,,,,,,,,,,,
,,"[""comma""]",0,[0.2927000000029807],116,0,116,0,1,6070c2f8aa9a08d466b86d5c,19,Mężczyzna,2022-06-04_08h09.29.000,task,2021.1.4,Win32,60.04202942,628b806c463b948bc644b84f,629af6ed1c5129617d9f9881,,,,,,,,,,,,,,,,,,,,,,,,,,,,,,,,,,,,,,,,,,,,,,,,,,,,,,,,,,,,,,,,,,,,,,,,,,,,,,,,,,,,,,,,,,,,,,,,,,,,,,,
,,"[""comma""]",0,[0.58299999999997],117,0,117,0,1,6070c2f8aa9a08d466b86d5c,19,Mężczyzna,2022-06-04_08h09.29.000,task,2021.1.4,Win32,60.04202942,628b806c463b948bc644b84f,629af6ed1c5129617d9f9881,,,,,,,,,,,,,,,,,,,,,,,,,,,,,,,,,,,,,,,,,,,,,,,,,,,,,,,,,,,,,,,,,,,,,,,,,,,,,,,,,,,,,,,,,,,,,,,,,,,,,,,
,,"[""comma""]",0,[0.556600000001481],118,0,118,0,1,6070c2f8aa9a08d466b86d5c,19,Mężczyzna,2022-06-04_08h09.29.000,task,2021.1.4,Win32,60.04202942,628b806c463b948bc644b84f,629af6ed1c5129617d9f9881,,,,,,,,,,,,,,,,,,,,,,,,,,,,,,,,,,,,,,,,,,,,,,,,,,,,,,,,,,,,,,,,,,,,,,,,,,,,,,,,,,,,,,,,,,,,,,,,,,,,,,,
,,"[""period""]",0,[0.5447999999969966],119,0,119,0,1,6070c2f8aa9a08d466b86d5c,19,Mężczyzna,2022-06-04_08h09.29.000,task,2021.1.4,Win32,60.04202942,628b806c463b948bc644b84f,629af6ed1c5129617d9f9881,,,,,,,,,,,,,,,,,,,,,,,,,,,,,,,,,,,,,,,,,,,,,,,,,,,,,,,,,,,,,,,,,,,,,,,,,,,,,,,,,,,,,,,,,,,,,,,,,,,,,,,
,,,,,,,,,,6070c2f8aa9a08d466b86d5c,19,Mężczyzna,2022-06-04_08h09.29.000,task,2021.1.4,Win32,60.04202942,628b806c463b948bc644b84f,629af6ed1c5129617d9f9881,space,13.8231,space,7.9891,0,0,0,0,1,X V Q F H G B L J M P D K C T S W R N Z,,,,,,,,,,,,,,,,,,,,,,,,,,,,,,,,,,,,,,,,,,,,,,,,,,,,,,,,,,,,,,,,,,,,,,,,,,,,,,,,,,,,,,,,,,,,,
,,,,,,,,,,6070c2f8aa9a08d466b86d5c,19,Mężczyzna,2022-06-04_08h09.29.000,task,2021.1.4,Win32,60.04202942,628b806c463b948bc644b84f,629af6ed1c5129617d9f9881,,,,,1,0,1,0,1,X V Q F H G B L J M P D K C T S W R N Z,,,,,,,,,,,,,,,,,,,,,,,,,,,,,,,,,,,,,,,,,,,,,,,,,,,,,,,,,,,,,,,,,,,,,,,,,,,,,,,,,,,,,,,,,,,,,
,,,,,,,,,,6070c2f8aa9a08d466b86d5c,19,Mężczyzna,2022-06-04_08h09.29.000,task,2021.1.4,Win32,60.04202942,628b806c463b948bc644b84f,629af6ed1c5129617d9f9881,,,,,,,,,,,zn,"[""z"",""n""]","[1.8682000000029575,2.0592000000029316,3.5399999999999636]",1,ZN,0,0,0,0,1,,,,,,,,,,,,,,,,,,,,,,,,,,,,,,,,,,,,,,,,,,,,,,,,,,,,,,,,,,,,,,,,,,,,,,,,,,,,,,,,,,,
,,,,,,,,,,6070c2f8aa9a08d466b86d5c,19,Mężczyzna,2022-06-04_08h09.29.000,task,2021.1.4,Win32,60.04202942,628b806c463b948bc644b84f,629af6ed1c5129617d9f9881,,,,,0,0,0,0,1,X V Q F H G B L J M P D K C T S W R N Z,,,,,,,,,,,,,,,,,,,,,,,,,,,,,,,,,,,,,,,,,,,,,,,,,,,,,,,,,,,,,,,,,,,,,,,,,,,,,,,,,,,,,,,,,,,,,
,,,,,,,,,,6070c2f8aa9a08d466b86d5c,19,Mężczyzna,2022-06-04_08h09.29.000,task,2021.1.4,Win32,60.04202942,628b806c463b948bc644b84f,629af6ed1c5129617d9f9881,,,,,1,0,1,0,1,X V Q F H G B L J M P D K C T S W R N Z,,,,,,,,,,,,,,,,,,,,,,,,,,,,,,,,,,,,,,,,,,,,,,,,,,,,,,,,,,,,,,,,,,,,,,,,,,,,,,,,,,,,,,,,,,,,,
,,,,,,,,,,6070c2f8aa9a08d466b86d5c,19,Mężczyzna,2022-06-04_08h09.29.000,task,2021.1.4,Win32,60.04202942,628b806c463b948bc644b84f,629af6ed1c5129617d9f9881,,,,,,,,,,,vh,"[""v"",""h""]","[0.9238000000044622,1.0767000000029725,1.8117000000029861]",1,VH,1,0,1,0,1,,,,,,,,,,,,,,,,,,,,,,,,,,,,,,,,,,,,,,,,,,,,,,,,,,,,,,,,,,,,,,,,,,,,,,,,,,,,,,,,,,,
,,,,,,,,,,6070c2f8aa9a08d466b86d5c,19,Mężczyzna,2022-06-04_08h09.29.000,task,2021.1.4,Win32,60.04202942,628b806c463b948bc644b84f,629af6ed1c5129617d9f9881,,,,,0,0,0,0,1,X V Q F H G B L J M P D K C T S W R N Z,,,,,,,,,,,,,,,,,,,,,,,,,,,,,,,,,,,,,,,,,,,,,,,,,,,,,,,,,,,,,,,,,,,,,,,,,,,,,,,,,,,,,,,,,,,,,
,,,,,,,,,,6070c2f8aa9a08d466b86d5c,19,Mężczyzna,2022-06-04_08h09.29.000,task,2021.1.4,Win32,60.04202942,628b806c463b948bc644b84f,629af6ed1c5129617d9f9881,,,,,1,0,1,0,1,X V Q F H G B L J M P D K C T S W R N Z,,,,,,,,,,,,,,,,,,,,,,,,,,,,,,,,,,,,,,,,,,,,,,,,,,,,,,,,,,,,,,,,,,,,,,,,,,,,,,,,,,,,,,,,,,,,,
,,,,,,,,,,6070c2f8aa9a08d466b86d5c,19,Mężczyzna,2022-06-04_08h09.29.000,task,2021.1.4,Win32,60.04202942,628b806c463b948bc644b84f,629af6ed1c5129617d9f9881,,,,,2,0,2,0,1,X V Q F H G B L J M P D K C T S W R N Z,,,,,,,,,,,,,,,,,,,,,,,,,,,,,,,,,,,,,,,,,,,,,,,,,,,,,,,,,,,,,,,,,,,,,,,,,,,,,,,,,,,,,,,,,,,,,
,,,,,,,,,,6070c2f8aa9a08d466b86d5c,19,Mężczyzna,2022-06-04_08h09.29.000,task,2021.1.4,Win32,60.04202942,628b806c463b948bc644b84f,629af6ed1c5129617d9f9881,,,,,,,,,,,vfs,"[""v"",""f"",""s""]","[0.4449999999999932,0.6287000000029934,0.9593999999985385,1.4447999999970307]",1,VFS,2,0,2,0,1,,,,,,,,,,,,,,,,,,,,,,,,,,,,,,,,,,,,,,,,,,,,,,,,,,,,,,,,,,,,,,,,,,,,,,,,,,,,,,,,,,,
,,,,,,,,,,6070c2f8aa9a08d466b86d5c,19,Mężczyzna,2022-06-04_08h09.29.000,task,2021.1.4,Win32,60.04202942,628b806c463b948bc644b84f,629af6ed1c5129617d9f9881,,,,,0,0,0,0,1,X V Q F H G B L J M P D K C T S W R N Z,,,,,,,,,,,,,,,,,,,,,,,,,,,,,,,,,,,,,,,,,,,,,,,,,,,,,,,,,,,,,,,,,,,,,,,,,,,,,,,,,,,,,,,,,,,,,
,,,,,,,,,,6070c2f8aa9a08d466b86d5c,19,Mężczyzna,2022-06-04_08h09.29.000,task,2021.1.4,Win32,60.04202942,628b806c463b948bc644b84f,629af6ed1c5129617d9f9881,,,,,1,0,1,0,1,X V Q F H G B L J M P D K C T S W R N Z,,,,,,,,,,,,,,,,,,,,,,,,,,,,,,,,,,,,,,,,,,,,,,,,,,,,,,,,,,,,,,,,,,,,,,,,,,,,,,,,,,,,,,,,,,,,,
,,,,,,,,,,6070c2f8aa9a08d466b86d5c,19,Mężczyzna,2022-06-04_08h09.29.000,task,2021.1.4,Win32,60.04202942,628b806c463b948bc644b84f,629af6ed1c5129617d9f9881,,,,,2,0,2,0,1,X V Q F H G B L J M P D K C T S W R N Z,,,,,,,,,,,,,,,,,,,,,,,,,,,,,,,,,,,,,,,,,,,,,,,,,,,,,,,,,,,,,,,,,,,,,,,,,,,,,,,,,,,,,,,,,,,,,
,,,,,,,,,,6070c2f8aa9a08d466b86d5c,19,Mężczyzna,2022-06-04_08h09.29.000,task,2021.1.4,Win32,60.04202942,628b806c463b948bc644b84f,629af6ed1c5129617d9f9881,,,,,,,,,,,hqm,"[""h"",""q"",""m""]","[0.6411000000014724,0.7949000000059527,0.9708000000044876,1.2930000000000064]",1,HQM,3,0,3,0,1,,,,,,,,,,,,,,,,,,,,,,,,,,,,,,,,,,,,,,,,,,,,,,,,,,,,,,,,,,,,,,,,,,,,,,,,,,,,,,,,,,,
,,,,,,,,,,6070c2f8aa9a08d466b86d5c,19,Mężczyzna,2022-06-04_08h09.29.000,task,2021.1.4,Win32,60.04202942,628b806c463b948bc644b84f,629af6ed1c5129617d9f9881,,,,,0,0,0,0,1,X V Q F H G B L J M P D K C T S W R N Z,,,,,,,,,,,,,,,,,,,,,,,,,,,,,,,,,,,,,,,,,,,,,,,,,,,,,,,,,,,,,,,,,,,,,,,,,,,,,,,,,,,,,,,,,,,,,
,,,,,,,,,,6070c2f8aa9a08d466b86d5c,19,Mężczyzna,2022-06-04_08h09.29.000,task,2021.1.4,Win32,60.04202942,628b806c463b948bc644b84f,629af6ed1c5129617d9f9881,,,,,1,0,1,0,1,X V Q F H G B L J M P D K C T S W R N Z,,,,,,,,,,,,,,,,,,,,,,,,,,,,,,,,,,,,,,,,,,,,,,,,,,,,,,,,,,,,,,,,,,,,,,,,,,,,,,,,,,,,,,,,,,,,,
,,,,,,,,,,6070c2f8aa9a08d466b86d5c,19,Mężczyzna,2022-06-04_08h09.29.000,task,2021.1.4,Win32,60.04202942,628b806c463b948bc644b84f,629af6ed1c5129617d9f9881,,,,,2,0,2,0,1,X V Q F H G B L J M P D K C T S W R N Z,,,,,,,,,,,,,,,,,,,,,,,,,,,,,,,,,,,,,,,,,,,,,,,,,,,,,,,,,,,,,,,,,,,,,,,,,,,,,,,,,,,,,,,,,,,,,
,,,,,,,,,,6070c2f8aa9a08d466b86d5c,19,Mężczyzna,2022-06-04_08h09.29.000,task,2021.1.4,Win32,60.04202942,628b806c463b948bc644b84f,629af6ed1c5129617d9f9881,,,,,3,0,3,0,1,X V Q F H G B L J M P D K C T S W R N Z,,,,,,,,,,,,,,,,,,,,,,,,,,,,,,,,,,,,,,,,,,,,,,,,,,,,,,,,,,,,,,,,,,,,,,,,,,,,,,,,,,,,,,,,,,,,,
,,,,,,,,,,6070c2f8aa9a08d466b86d5c,19,Mężczyzna,2022-06-04_08h09.29.000,task,2021.1.4,Win32,60.04202942,628b806c463b948bc644b84f,629af6ed1c5129617d9f9881,,,,,,,,,,,mwmk,"[""m"",""w"",""m"",""k""]","[0.507199999995521,0.6940000000000168,0.9377999999970257,1.172899999998549,1.5538999999985208]",1,MWMK,4,0,4,0,1,,,,,,,,,,,,,,,,,,,,,,,,,,,,,,,,,,,,,,,,,,,,,,,,,,,,,,,,,,,,,,,,,,,,,,,,,,,,,,,,,,,
,,,,,,,,,,6070c2f8aa9a08d466b86d5c,19,Mężczyzna,2022-06-04_08h09.29.000,task,2021.1.4,Win32,60.04202942,628b806c463b948bc644b84f,629af6ed1c5129617d9f9881,,,,,0,0,0,0,1,X V Q F H G B L J M P D K C T S W R N Z,,,,,,,,,,,,,,,,,,,,,,,,,,,,,,,,,,,,,,,,,,,,,,,,,,,,,,,,,,,,,,,,,,,,,,,,,,,,,,,,,,,,,,,,,,,,,
,,,,,,,,,,6070c2f8aa9a08d466b86d5c,19,Mężczyzna,2022-06-04_08h09.29.000,task,2021.1.4,Win32,60.04202942,628b806c463b948bc644b84f,629af6ed1c5129617d9f9881,,,,,1,0,1,0,1,X V Q F H G B L J M P D K C T S W R N Z,,,,,,,,,,,,,,,,,,,,,,,,,,,,,,,,,,,,,,,,,,,,,,,,,,,,,,,,,,,,,,,,,,,,,,,,,,,,,,,,,,,,,,,,,,,,,
,,,,,,,,,,6070c2f8aa9a08d466b86d5c,19,Mężczyzna,2022-06-04_08h09.29.000,task,2021.1.4,Win32,60.04202942,628b806c463b948bc644b84f,629af6ed1c5129617d9f9881,,,,,2,0,2,0,1,X V Q F H G B L J M P D K C T S W R N Z,,,,,,,,,,,,,,,,,,,,,,,,,,,,,,,,,,,,,,,,,,,,,,,,,,,,,,,,,,,,,,,,,,,,,,,,,,,,,,,,,,,,,,,,,,,,,
,,,,,,,,,,6070c2f8aa9a08d466b86d5c,19,Mężczyzna,2022-06-04_08h09.29.000,task,2021.1.4,Win32,60.04202942,628b806c463b948bc644b84f,629af6ed1c5129617d9f9881,,,,,3,0,3,0,1,X V Q F H G B L J M P D K C T S W R N Z,,,,,,,,,,,,,,,,,,,,,,,,,,,,,,,,,,,,,,,,,,,,,,,,,,,,,,,,,,,,,,,,,,,,,,,,,,,,,,,,,,,,,,,,,,,,,
,,,,,,,,,,6070c2f8aa9a08d466b86d5c,19,Mężczyzna,2022-06-04_08h09.29.000,task,2021.1.4,Win32,60.04202942,628b806c463b948bc644b84f,629af6ed1c5129617d9f9881,,,,,,,,,,,nfbd,"[""n"",""f"",""b"",""d""]","[0.7226000000014778,0.9036999999955242,1.388499999999965,1.5673999999984858,1.9093999999984703]",1,NFBD,5,0,5,0,1,,,,,,,,,,,,,,,,,,,,,,,,,,,,,,,,,,,,,,,,,,,,,,,,,,,,,,,,,,,,,,,,,,,,,,,,,,,,,,,,,,,
,,,,,,,,,,6070c2f8aa9a08d466b86d5c,19,Mężczyzna,2022-06-04_08h09.29.000,task,2021.1.4,Win32,60.04202942,628b806c463b948bc644b84f,629af6ed1c5129617d9f9881,,,,,0,0,0,0,1,X V Q F H G B L J M P D K C T S W R N Z,,,,,,,,,,,,,,,,,,,,,,,,,,,,,,,,,,,,,,,,,,,,,,,,,,,,,,,,,,,,,,,,,,,,,,,,,,,,,,,,,,,,,,,,,,,,,
,,,,,,,,,,6070c2f8aa9a08d466b86d5c,19,Mężczyzna,2022-06-04_08h09.29.000,task,2021.1.4,Win32,60.04202942,628b806c463b948bc644b84f,629af6ed1c5129617d9f9881,,,,,1,0,1,0,1,X V Q F H G B L J M P D K C T S W R N Z,,,,,,,,,,,,,,,,,,,,,,,,,,,,,,,,,,,,,,,,,,,,,,,,,,,,,,,,,,,,,,,,,,,,,,,,,,,,,,,,,,,,,,,,,,,,,
,,,,,,,,,,6070c2f8aa9a08d466b86d5c,19,Mężczyzna,2022-06-04_08h09.29.000,task,2021.1.4,Win32,60.04202942,628b806c463b948bc644b84f,629af6ed1c5129617d9f9881,,,,,2,0,2,0,1,X V Q F H G B L J M P D K C T S W R N Z,,,,,,,,,,,,,,,,,,,,,,,,,,,,,,,,,,,,,,,,,,,,,,,,,,,,,,,,,,,,,,,,,,,,,,,,,,,,,,,,,,,,,,,,,,,,,
,,,,,,,,,,6070c2f8aa9a08d466b86d5c,19,Mężczyzna,2022-06-04_08h09.29.000,task,2021.1.4,Win32,60.04202942,628b806c463b948bc644b84f,629af6ed1c5129617d9f9881,,,,,3,0,3,0,1,X V Q F H G B L J M P D K C T S W R N Z,,,,,,,,,,,,,,,,,,,,,,,,,,,,,,,,,,,,,,,,,,,,,,,,,,,,,,,,,,,,,,,,,,,,,,,,,,,,,,,,,,,,,,,,,,,,,
,,,,,,,,,,6070c2f8aa9a08d466b86d5c,19,Mężczyzna,2022-06-04_08h09.29.000,task,2021.1.4,Win32,60.04202942,628b806c463b948bc644b84f,629af6ed1c5129617d9f9881,,,,,4,0,4,0,1,X V Q F H G B L J M P D K C T S W R N Z,,,,,,,,,,,,,,,,,,,,,,,,,,,,,,,,,,,,,,,,,,,,,,,,,,,,,,,,,,,,,,,,,,,,,,,,,,,,,,,,,,,,,,,,,,,,,
,,,,,,,,,,6070c2f8aa9a08d466b86d5c,19,Mężczyzna,2022-06-04_08h09.29.000,task,2021.1.4,Win32,60.04202942,628b806c463b948bc644b84f,629af6ed1c5129617d9f9881,,,,,,,,,,,lbbsh,"[""l"",""b"",""b"",""s"",""h""]","[0.31909999999408,0.7260999999940623,0.8920999999940591,1.1656999999955815,1.3058999999985303,1.7540999999940823]",1,LBBSH,6,0,6,0,1,,,,,,,,,,,,,,,,,,,,,,,,,,,,,,,,,,,,,,,,,,,,,,,,,,,,,,,,,,,,,,,,,,,,,,,,,,,,,,,,,,,
,,,,,,,,,,6070c2f8aa9a08d466b86d5c,19,Mężczyzna,2022-06-04_08h09.29.000,task,2021.1.4,Win32,60.04202942,628b806c463b948bc644b84f,629af6ed1c5129617d9f9881,,,,,0,0,0,0,1,X V Q F H G B L J M P D K C T S W R N Z,,,,,,,,,,,,,,,,,,,,,,,,,,,,,,,,,,,,,,,,,,,,,,,,,,,,,,,,,,,,,,,,,,,,,,,,,,,,,,,,,,,,,,,,,,,,,
,,,,,,,,,,6070c2f8aa9a08d466b86d5c,19,Mężczyzna,2022-06-04_08h09.29.000,task,2021.1.4,Win32,60.04202942,628b806c463b948bc644b84f,629af6ed1c5129617d9f9881,,,,,1,0,1,0,1,X V Q F H G B L J M P D K C T S W R N Z,,,,,,,,,,,,,,,,,,,,,,,,,,,,,,,,,,,,,,,,,,,,,,,,,,,,,,,,,,,,,,,,,,,,,,,,,,,,,,,,,,,,,,,,,,,,,
,,,,,,,,,,6070c2f8aa9a08d466b86d5c,19,Mężczyzna,2022-06-04_08h09.29.000,task,2021.1.4,Win32,60.04202942,628b806c463b948bc644b84f,629af6ed1c5129617d9f9881,,,,,2,0,2,0,1,X V Q F H G B L J M P D K C T S W R N Z,,,,,,,,,,,,,,,,,,,,,,,,,,,,,,,,,,,,,,,,,,,,,,,,,,,,,,,,,,,,,,,,,,,,,,,,,,,,,,,,,,,,,,,,,,,,,
,,,,,,,,,,6070c2f8aa9a08d466b86d5c,19,Mężczyzna,2022-06-04_08h09.29.000,task,2021.1.4,Win32,60.04202942,628b806c463b948bc644b84f,629af6ed1c5129617d9f9881,,,,,3,0,3,0,1,X V Q F H G B L J M P D K C T S W R N Z,,,,,,,,,,,,,,,,,,,,,,,,,,,,,,,,,,,,,,,,,,,,,,,,,,,,,,,,,,,,,,,,,,,,,,,,,,,,,,,,,,,,,,,,,,,,,
,,,,,,,,,,6070c2f8aa9a08d466b86d5c,19,Mężczyzna,2022-06-04_08h09.29.000,task,2021.1.4,Win32,60.04202942,628b806c463b948bc644b84f,629af6ed1c5129617d9f9881,,,,,4,0,4,0,1,X V Q F H G B L J M P D K C T S W R N Z,,,,,,,,,,,,,,,,,,,,,,,,,,,,,,,,,,,,,,,,,,,,,,,,,,,,,,,,,,,,,,,,,,,,,,,,,,,,,,,,,,,,,,,,,,,,,
,,,,,,,,,,6070c2f8aa9a08d466b86d5c,19,Mężczyzna,2022-06-04_08h09.29.000,task,2021.1.4,Win32,60.04202942,628b806c463b948bc644b84f,629af6ed1c5129617d9f9881,,,,,,,,,,,wxrnk,"[""w"",""x"",""r"",""n"",""k""]","[0.8122999999970375,1.3182999999970093,1.6502000000029966,2.0103999999985263,2.2107999999970502,2.7013999999985003]",1,WXRNK,7,0,7,0,1,,,,,,,,,,,,,,,,,,,,,,,,,,,,,,,,,,,,,,,,,,,,,,,,,,,,,,,,,,,,,,,,,,,,,,,,,,,,,,,,,,,
,,,,,,,,,,6070c2f8aa9a08d466b86d5c,19,Mężczyzna,2022-06-04_08h09.29.000,task,2021.1.4,Win32,60.04202942,628b806c463b948bc644b84f,629af6ed1c5129617d9f9881,,,,,0,0,0,0,1,X V Q F H G B L J M P D K C T S W R N Z,,,,,,,,,,,,,,,,,,,,,,,,,,,,,,,,,,,,,,,,,,,,,,,,,,,,,,,,,,,,,,,,,,,,,,,,,,,,,,,,,,,,,,,,,,,,,
,,,,,,,,,,6070c2f8aa9a08d466b86d5c,19,Mężczyzna,2022-06-04_08h09.29.000,task,2021.1.4,Win32,60.04202942,628b806c463b948bc644b84f,629af6ed1c5129617d9f9881,,,,,1,0,1,0,1,X V Q F H G B L J M P D K C T S W R N Z,,,,,,,,,,,,,,,,,,,,,,,,,,,,,,,,,,,,,,,,,,,,,,,,,,,,,,,,,,,,,,,,,,,,,,,,,,,,,,,,,,,,,,,,,,,,,
,,,,,,,,,,6070c2f8aa9a08d466b86d5c,19,Mężczyzna,2022-06-04_08h09.29.000,task,2021.1.4,Win32,60.04202942,628b806c463b948bc644b84f,629af6ed1c5129617d9f9881,,,,,2,0,2,0,1,X V Q F H G B L J M P D K C T S W R N Z,,,,,,,,,,,,,,,,,,,,,,,,,,,,,,,,,,,,,,,,,,,,,,,,,,,,,,,,,,,,,,,,,,,,,,,,,,,,,,,,,,,,,,,,,,,,,
,,,,,,,,,,6070c2f8aa9a08d466b86d5c,19,Mężczyzna,2022-06-04_08h09.29.000,task,2021.1.4,Win32,60.04202942,628b806c463b948bc644b84f,629af6ed1c5129617d9f9881,,,,,3,0,3,0,1,X V Q F H G B L J M P D K C T S W R N Z,,,,,,,,,,,,,,,,,,,,,,,,,,,,,,,,,,,,,,,,,,,,,,,,,,,,,,,,,,,,,,,,,,,,,,,,,,,,,,,,,,,,,,,,,,,,,
,,,,,,,,,,6070c2f8aa9a08d466b86d5c,19,Mężczyzna,2022-06-04_08h09.29.000,task,2021.1.4,Win32,60.04202942,628b806c463b948bc644b84f,629af6ed1c5129617d9f9881,,,,,4,0,4,0,1,X V Q F H G B L J M P D K C T S W R N Z,,,,,,,,,,,,,,,,,,,,,,,,,,,,,,,,,,,,,,,,,,,,,,,,,,,,,,,,,,,,,,,,,,,,,,,,,,,,,,,,,,,,,,,,,,,,,
,,,,,,,,,,6070c2f8aa9a08d466b86d5c,19,Mężczyzna,2022-06-04_08h09.29.000,task,2021.1.4,Win32,60.04202942,628b806c463b948bc644b84f,629af6ed1c5129617d9f9881,,,,,5,0,5,0,1,X V Q F H G B L J M P D K C T S W R N Z,,,,,,,,,,,,,,,,,,,,,,,,,,,,,,,,,,,,,,,,,,,,,,,,,,,,,,,,,,,,,,,,,,,,,,,,,,,,,,,,,,,,,,,,,,,,,
,,,,,,,,,,6070c2f8aa9a08d466b86d5c,19,Mężczyzna,2022-06-04_08h09.29.000,task,2021.1.4,Win32,60.04202942,628b806c463b948bc644b84f,629af6ed1c5129617d9f9881,,,,,,,,,,,scnxgl,"[""s"",""c"",""n"",""x"",""g"",""l""]","[0.36549999999999727,0.6159999999999854,0.9564000000059423,1.233600000001502,1.758100000001491,2.244400000005953,2.6501000000015438]",0,SCXNGL,8,0,8,0,1,,,,,,,,,,,,,,,,,,,,,,,,,,,,,,,,,,,,,,,,,,,,,,,,,,,,,,,,,,,,,,,,,,,,,,,,,,,,,,,,,,,
,,,,,,,,,,6070c2f8aa9a08d466b86d5c,19,Mężczyzna,2022-06-04_08h09.29.000,task,2021.1.4,Win32,60.04202942,628b806c463b948bc644b84f,629af6ed1c5129617d9f9881,,,,,0,0,0,0,1,X V Q F H G B L J M P D K C T S W R N Z,,,,,,,,,,,,,,,,,,,,,,,,,,,,,,,,,,,,,,,,,,,,,,,,,,,,,,,,,,,,,,,,,,,,,,,,,,,,,,,,,,,,,,,,,,,,,
,,,,,,,,,,6070c2f8aa9a08d466b86d5c,19,Mężczyzna,2022-06-04_08h09.29.000,task,2021.1.4,Win32,60.04202942,628b806c463b948bc644b84f,629af6ed1c5129617d9f9881,,,,,1,0,1,0,1,X V Q F H G B L J M P D K C T S W R N Z,,,,,,,,,,,,,,,,,,,,,,,,,,,,,,,,,,,,,,,,,,,,,,,,,,,,,,,,,,,,,,,,,,,,,,,,,,,,,,,,,,,,,,,,,,,,,
,,,,,,,,,,6070c2f8aa9a08d466b86d5c,19,Mężczyzna,2022-06-04_08h09.29.000,task,2021.1.4,Win32,60.04202942,628b806c463b948bc644b84f,629af6ed1c5129617d9f9881,,,,,2,0,2,0,1,X V Q F H G B L J M P D K C T S W R N Z,,,,,,,,,,,,,,,,,,,,,,,,,,,,,,,,,,,,,,,,,,,,,,,,,,,,,,,,,,,,,,,,,,,,,,,,,,,,,,,,,,,,,,,,,,,,,
,,,,,,,,,,6070c2f8aa9a08d466b86d5c,19,Mężczyzna,2022-06-04_08h09.29.000,task,2021.1.4,Win32,60.04202942,628b806c463b948bc644b84f,629af6ed1c5129617d9f9881,,,,,3,0,3,0,1,X V Q F H G B L J M P D K C T S W R N Z,,,,,,,,,,,,,,,,,,,,,,,,,,,,,,,,,,,,,,,,,,,,,,,,,,,,,,,,,,,,,,,,,,,,,,,,,,,,,,,,,,,,,,,,,,,,,
,,,,,,,,,,6070c2f8aa9a08d466b86d5c,19,Mężczyzna,2022-06-04_08h09.29.000,task,2021.1.4,Win32,60.04202942,628b806c463b948bc644b84f,629af6ed1c5129617d9f9881,,,,,4,0,4,0,1,X V Q F H G B L J M P D K C T S W R N Z,,,,,,,,,,,,,,,,,,,,,,,,,,,,,,,,,,,,,,,,,,,,,,,,,,,,,,,,,,,,,,,,,,,,,,,,,,,,,,,,,,,,,,,,,,,,,
,,,,,,,,,,6070c2f8aa9a08d466b86d5c,19,Mężczyzna,2022-06-04_08h09.29.000,task,2021.1.4,Win32,60.04202942,628b806c463b948bc644b84f,629af6ed1c5129617d9f9881,,,,,5,0,5,0,1,X V Q F H G B L J M P D K C T S W R N Z,,,,,,,,,,,,,,,,,,,,,,,,,,,,,,,,,,,,,,,,,,,,,,,,,,,,,,,,,,,,,,,,,,,,,,,,,,,,,,,,,,,,,,,,,,,,,
,,,,,,,,,,6070c2f8aa9a08d466b86d5c,19,Mężczyzna,2022-06-04_08h09.29.000,task,2021.1.4,Win32,60.04202942,628b806c463b948bc644b84f,629af6ed1c5129617d9f9881,,,,,,,,,,,wpzklt,"[""w"",""p"",""z"",""k"",""l"",""t""]","[1.1083999999984826,1.3464999999999918,1.6733999999984235,2.4292999999969425,2.769399999998427,2.9872000000029857,3.3372000000028947]",1,WPZKLT,9,0,9,0,1,,,,,,,,,,,,,,,,,,,,,,,,,,,,,,,,,,,,,,,,,,,,,,,,,,,,,,,,,,,,,,,,,,,,,,,,,,,,,,,,,,,
,,,,,,,,,,6070c2f8aa9a08d466b86d5c,19,Mężczyzna,2022-06-04_08h09.29.000,task,2021.1.4,Win32,60.04202942,628b806c463b948bc644b84f,629af6ed1c5129617d9f9881,,,,,0,0,0,0,1,X V Q F H G B L J M P D K C T S W R N Z,,,,,,,,,,,,,,,,,,,,,,,,,,,,,,,,,,,,,,,,,,,,,,,,,,,,,,,,,,,,,,,,,,,,,,,,,,,,,,,,,,,,,,,,,,,,,
,,,,,,,,,,6070c2f8aa9a08d466b86d5c,19,Mężczyzna,2022-06-04_08h09.29.000,task,2021.1.4,Win32,60.04202942,628b806c463b948bc644b84f,629af6ed1c5129617d9f9881,,,,,1,0,1,0,1,X V Q F H G B L J M P D K C T S W R N Z,,,,,,,,,,,,,,,,,,,,,,,,,,,,,,,,,,,,,,,,,,,,,,,,,,,,,,,,,,,,,,,,,,,,,,,,,,,,,,,,,,,,,,,,,,,,,
,,,,,,,,,,6070c2f8aa9a08d466b86d5c,19,Mężczyzna,2022-06-04_08h09.29.000,task,2021.1.4,Win32,60.04202942,628b806c463b948bc644b84f,629af6ed1c5129617d9f9881,,,,,2,0,2,0,1,X V Q F H G B L J M P D K C T S W R N Z,,,,,,,,,,,,,,,,,,,,,,,,,,,,,,,,,,,,,,,,,,,,,,,,,,,,,,,,,,,,,,,,,,,,,,,,,,,,,,,,,,,,,,,,,,,,,
,,,,,,,,,,6070c2f8aa9a08d466b86d5c,19,Mężczyzna,2022-06-04_08h09.29.000,task,2021.1.4,Win32,60.04202942,628b806c463b948bc644b84f,629af6ed1c5129617d9f9881,,,,,3,0,3,0,1,X V Q F H G B L J M P D K C T S W R N Z,,,,,,,,,,,,,,,,,,,,,,,,,,,,,,,,,,,,,,,,,,,,,,,,,,,,,,,,,,,,,,,,,,,,,,,,,,,,,,,,,,,,,,,,,,,,,
,,,,,,,,,,6070c2f8aa9a08d466b86d5c,19,Mężczyzna,2022-06-04_08h09.29.000,task,2021.1.4,Win32,60.04202942,628b806c463b948bc644b84f,629af6ed1c5129617d9f9881,,,,,4,0,4,0,1,X V Q F H G B L J M P D K C T S W R N Z,,,,,,,,,,,,,,,,,,,,,,,,,,,,,,,,,,,,,,,,,,,,,,,,,,,,,,,,,,,,,,,,,,,,,,,,,,,,,,,,,,,,,,,,,,,,,
,,,,,,,,,,6070c2f8aa9a08d466b86d5c,19,Mężczyzna,2022-06-04_08h09.29.000,task,2021.1.4,Win32,60.04202942,628b806c463b948bc644b84f,629af6ed1c5129617d9f9881,,,,,5,0,5,0,1,X V Q F H G B L J M P D K C T S W R N Z,,,,,,,,,,,,,,,,,,,,,,,,,,,,,,,,,,,,,,,,,,,,,,,,,,,,,,,,,,,,,,,,,,,,,,,,,,,,,,,,,,,,,,,,,,,,,
,,,,,,,,,,6070c2f8aa9a08d466b86d5c,19,Mężczyzna,2022-06-04_08h09.29.000,task,2021.1.4,Win32,60.04202942,628b806c463b948bc644b84f,629af6ed1c5129617d9f9881,,,,,,,,,,,gbtkgt,"[""g"",""b"",""t"",""k"",""g"",""t""]","[1.813699999995606,2.066099999994094,2.328000000000088,2.5495999999940295,3.1265999999940277,3.306699999995544,3.692799999997078]",1,GBTKGT,10,0,10,0,1,,,,,,,,,,,,,,,,,,,,,,,,,,,,,,,,,,,,,,,,,,,,,,,,,,,,,,,,,,,,,,,,,,,,,,,,,,,,,,,,,,,
,,,,,,,,,,6070c2f8aa9a08d466b86d5c,19,Mężczyzna,2022-06-04_08h09.29.000,task,2021.1.4,Win32,60.04202942,628b806c463b948bc644b84f,629af6ed1c5129617d9f9881,,,,,0,0,0,0,1,X V Q F H G B L J M P D K C T S W R N Z,,,,,,,,,,,,,,,,,,,,,,,,,,,,,,,,,,,,,,,,,,,,,,,,,,,,,,,,,,,,,,,,,,,,,,,,,,,,,,,,,,,,,,,,,,,,,
,,,,,,,,,,6070c2f8aa9a08d466b86d5c,19,Mężczyzna,2022-06-04_08h09.29.000,task,2021.1.4,Win32,60.04202942,628b806c463b948bc644b84f,629af6ed1c5129617d9f9881,,,,,1,0,1,0,1,X V Q F H G B L J M P D K C T S W R N Z,,,,,,,,,,,,,,,,,,,,,,,,,,,,,,,,,,,,,,,,,,,,,,,,,,,,,,,,,,,,,,,,,,,,,,,,,,,,,,,,,,,,,,,,,,,,,
,,,,,,,,,,6070c2f8aa9a08d466b86d5c,19,Mężczyzna,2022-06-04_08h09.29.000,task,2021.1.4,Win32,60.04202942,628b806c463b948bc644b84f,629af6ed1c5129617d9f9881,,,,,2,0,2,0,1,X V Q F H G B L J M P D K C T S W R N Z,,,,,,,,,,,,,,,,,,,,,,,,,,,,,,,,,,,,,,,,,,,,,,,,,,,,,,,,,,,,,,,,,,,,,,,,,,,,,,,,,,,,,,,,,,,,,
,,,,,,,,,,6070c2f8aa9a08d466b86d5c,19,Mężczyzna,2022-06-04_08h09.29.000,task,2021.1.4,Win32,60.04202942,628b806c463b948bc644b84f,629af6ed1c5129617d9f9881,,,,,3,0,3,0,1,X V Q F H G B L J M P D K C T S W R N Z,,,,,,,,,,,,,,,,,,,,,,,,,,,,,,,,,,,,,,,,,,,,,,,,,,,,,,,,,,,,,,,,,,,,,,,,,,,,,,,,,,,,,,,,,,,,,
,,,,,,,,,,6070c2f8aa9a08d466b86d5c,19,Mężczyzna,2022-06-04_08h09.29.000,task,2021.1.4,Win32,60.04202942,628b806c463b948bc644b84f,629af6ed1c5129617d9f9881,,,,,4,0,4,0,1,X V Q F H G B L J M P D K C T S W R N Z,,,,,,,,,,,,,,,,,,,,,,,,,,,,,,,,,,,,,,,,,,,,,,,,,,,,,,,,,,,,,,,,,,,,,,,,,,,,,,,,,,,,,,,,,,,,,
,,,,,,,,,,6070c2f8aa9a08d466b86d5c,19,Mężczyzna,2022-06-04_08h09.29.000,task,2021.1.4,Win32,60.04202942,628b806c463b948bc644b84f,629af6ed1c5129617d9f9881,,,,,5,0,5,0,1,X V Q F H G B L J M P D K C T S W R N Z,,,,,,,,,,,,,,,,,,,,,,,,,,,,,,,,,,,,,,,,,,,,,,,,,,,,,,,,,,,,,,,,,,,,,,,,,,,,,,,,,,,,,,,,,,,,,
,,,,,,,,,,6070c2f8aa9a08d466b86d5c,19,Mężczyzna,2022-06-04_08h09.29.000,task,2021.1.4,Win32,60.04202942,628b806c463b948bc644b84f,629af6ed1c5129617d9f9881,,,,,6,0,6,0,1,X V Q F H G B L J M P D K C T S W R N Z,,,,,,,,,,,,,,,,,,,,,,,,,,,,,,,,,,,,,,,,,,,,,,,,,,,,,,,,,,,,,,,,,,,,,,,,,,,,,,,,,,,,,,,,,,,,,
,,,,,,,,,,6070c2f8aa9a08d466b86d5c,19,Mężczyzna,2022-06-04_08h09.29.000,task,2021.1.4,Win32,60.04202942,628b806c463b948bc644b84f,629af6ed1c5129617d9f9881,,,,,,,,,,,xngbbt,"[""x"",""n"",""g"",""b"",""b"",""t""]","[1.1654999999999518,1.6118000000044503,2.2818000000044094,2.582399999998529,3.044200000003002,3.3718000000044412,11.632200000002967]",0,XPPNKTD,11,0,11,0,1,,,,,,,,,,,,,,,,,,,,,,,,,,,,,,,,,,,,,,,,,,,,,,,,,,,,,,,,,,,,,,,,,,,,,,,,,,,,,,,,,,,
,,,,,,,,,,6070c2f8aa9a08d466b86d5c,19,Mężczyzna,2022-06-04_08h09.29.000,task,2021.1.4,Win32,60.04202942,628b806c463b948bc644b84f,629af6ed1c5129617d9f9881,,,,,0,0,0,0,1,X V Q F H G B L J M P D K C T S W R N Z,,,,,,,,,,,,,,,,,,,,,,,,,,,,,,,,,,,,,,,,,,,,,,,,,,,,,,,,,,,,,,,,,,,,,,,,,,,,,,,,,,,,,,,,,,,,,
,,,,,,,,,,6070c2f8aa9a08d466b86d5c,19,Mężczyzna,2022-06-04_08h09.29.000,task,2021.1.4,Win32,60.04202942,628b806c463b948bc644b84f,629af6ed1c5129617d9f9881,,,,,1,0,1,0,1,X V Q F H G B L J M P D K C T S W R N Z,,,,,,,,,,,,,,,,,,,,,,,,,,,,,,,,,,,,,,,,,,,,,,,,,,,,,,,,,,,,,,,,,,,,,,,,,,,,,,,,,,,,,,,,,,,,,
,,,,,,,,,,6070c2f8aa9a08d466b86d5c,19,Mężczyzna,2022-06-04_08h09.29.000,task,2021.1.4,Win32,60.04202942,628b806c463b948bc644b84f,629af6ed1c5129617d9f9881,,,,,2,0,2,0,1,X V Q F H G B L J M P D K C T S W R N Z,,,,,,,,,,,,,,,,,,,,,,,,,,,,,,,,,,,,,,,,,,,,,,,,,,,,,,,,,,,,,,,,,,,,,,,,,,,,,,,,,,,,,,,,,,,,,
,,,,,,,,,,6070c2f8aa9a08d466b86d5c,19,Mężczyzna,2022-06-04_08h09.29.000,task,2021.1.4,Win32,60.04202942,628b806c463b948bc644b84f,629af6ed1c5129617d9f9881,,,,,3,0,3,0,1,X V Q F H G B L J M P D K C T S W R N Z,,,,,,,,,,,,,,,,,,,,,,,,,,,,,,,,,,,,,,,,,,,,,,,,,,,,,,,,,,,,,,,,,,,,,,,,,,,,,,,,,,,,,,,,,,,,,
,,,,,,,,,,6070c2f8aa9a08d466b86d5c,19,Mężczyzna,2022-06-04_08h09.29.000,task,2021.1.4,Win32,60.04202942,628b806c463b948bc644b84f,629af6ed1c5129617d9f9881,,,,,4,0,4,0,1,X V Q F H G B L J M P D K C T S W R N Z,,,,,,,,,,,,,,,,,,,,,,,,,,,,,,,,,,,,,,,,,,,,,,,,,,,,,,,,,,,,,,,,,,,,,,,,,,,,,,,,,,,,,,,,,,,,,
,,,,,,,,,,6070c2f8aa9a08d466b86d5c,19,Mężczyzna,2022-06-04_08h09.29.000,task,2021.1.4,Win32,60.04202942,628b806c463b948bc644b84f,629af6ed1c5129617d9f9881,,,,,5,0,5,0,1,X V Q F H G B L J M P D K C T S W R N Z,,,,,,,,,,,,,,,,,,,,,,,,,,,,,,,,,,,,,,,,,,,,,,,,,,,,,,,,,,,,,,,,,,,,,,,,,,,,,,,,,,,,,,,,,,,,,
,,,,,,,,,,6070c2f8aa9a08d466b86d5c,19,Mężczyzna,2022-06-04_08h09.29.000,task,2021.1.4,Win32,60.04202942,628b806c463b948bc644b84f,629af6ed1c5129617d9f9881,,,,,6,0,6,0,1,X V Q F H G B L J M P D K C T S W R N Z,,,,,,,,,,,,,,,,,,,,,,,,,,,,,,,,,,,,,,,,,,,,,,,,,,,,,,,,,,,,,,,,,,,,,,,,,,,,,,,,,,,,,,,,,,,,,
,,,,,,,,,,6070c2f8aa9a08d466b86d5c,19,Mężczyzna,2022-06-04_08h09.29.000,task,2021.1.4,Win32,60.04202942,628b806c463b948bc644b84f,629af6ed1c5129617d9f9881,,,,,,,,,,,gvxzwqh,"[""g"",""v"",""x"",""z"",""w"",""q"",""h""]","[3.290899999998487,3.820600000001491,5.4453000000044085,6.50839999999846,7.554300000004446,7.792300000004502,7.982100000001537,8.364600000001474]",1,GVXZWQH,12,0,12,0,1,,,,,,,,,,,,,,,,,,,,,,,,,,,,,,,,,,,,,,,,,,,,,,,,,,,,,,,,,,,,,,,,,,,,,,,,,,,,,,,,,,,
,,,,,,,,,,6070c2f8aa9a08d466b86d5c,19,Mężczyzna,2022-06-04_08h09.29.000,task,2021.1.4,Win32,60.04202942,628b806c463b948bc644b84f,629af6ed1c5129617d9f9881,,,,,0,0,0,0,1,X V Q F H G B L J M P D K C T S W R N Z,,,,,,,,,,,,,,,,,,,,,,,,,,,,,,,,,,,,,,,,,,,,,,,,,,,,,,,,,,,,,,,,,,,,,,,,,,,,,,,,,,,,,,,,,,,,,
,,,,,,,,,,6070c2f8aa9a08d466b86d5c,19,Mężczyzna,2022-06-04_08h09.29.000,task,2021.1.4,Win32,60.04202942,628b806c463b948bc644b84f,629af6ed1c5129617d9f9881,,,,,1,0,1,0,1,X V Q F H G B L J M P D K C T S W R N Z,,,,,,,,,,,,,,,,,,,,,,,,,,,,,,,,,,,,,,,,,,,,,,,,,,,,,,,,,,,,,,,,,,,,,,,,,,,,,,,,,,,,,,,,,,,,,
,,,,,,,,,,6070c2f8aa9a08d466b86d5c,19,Mężczyzna,2022-06-04_08h09.29.000,task,2021.1.4,Win32,60.04202942,628b806c463b948bc644b84f,629af6ed1c5129617d9f9881,,,,,2,0,2,0,1,X V Q F H G B L J M P D K C T S W R N Z,,,,,,,,,,,,,,,,,,,,,,,,,,,,,,,,,,,,,,,,,,,,,,,,,,,,,,,,,,,,,,,,,,,,,,,,,,,,,,,,,,,,,,,,,,,,,
,,,,,,,,,,6070c2f8aa9a08d466b86d5c,19,Mężczyzna,2022-06-04_08h09.29.000,task,2021.1.4,Win32,60.04202942,628b806c463b948bc644b84f,629af6ed1c5129617d9f9881,,,,,3,0,3,0,1,X V Q F H G B L J M P D K C T S W R N Z,,,,,,,,,,,,,,,,,,,,,,,,,,,,,,,,,,,,,,,,,,,,,,,,,,,,,,,,,,,,,,,,,,,,,,,,,,,,,,,,,,,,,,,,,,,,,
,,,,,,,,,,6070c2f8aa9a08d466b86d5c,19,Mężczyzna,2022-06-04_08h09.29.000,task,2021.1.4,Win32,60.04202942,628b806c463b948bc644b84f,629af6ed1c5129617d9f9881,,,,,4,0,4,0,1,X V Q F H G B L J M P D K C T S W R N Z,,,,,,,,,,,,,,,,,,,,,,,,,,,,,,,,,,,,,,,,,,,,,,,,,,,,,,,,,,,,,,,,,,,,,,,,,,,,,,,,,,,,,,,,,,,,,
,,,,,,,,,,6070c2f8aa9a08d466b86d5c,19,Mężczyzna,2022-06-04_08h09.29.000,task,2021.1.4,Win32,60.04202942,628b806c463b948bc644b84f,629af6ed1c5129617d9f9881,,,,,5,0,5,0,1,X V Q F H G B L J M P D K C T S W R N Z,,,,,,,,,,,,,,,,,,,,,,,,,,,,,,,,,,,,,,,,,,,,,,,,,,,,,,,,,,,,,,,,,,,,,,,,,,,,,,,,,,,,,,,,,,,,,
,,,,,,,,,,6070c2f8aa9a08d466b86d5c,19,Mężczyzna,2022-06-04_08h09.29.000,task,2021.1.4,Win32,60.04202942,628b806c463b948bc644b84f,629af6ed1c5129617d9f9881,,,,,6,0,6,0,1,X V Q F H G B L J M P D K C T S W R N Z,,,,,,,,,,,,,,,,,,,,,,,,,,,,,,,,,,,,,,,,,,,,,,,,,,,,,,,,,,,,,,,,,,,,,,,,,,,,,,,,,,,,,,,,,,,,,
,,,,,,,,,,6070c2f8aa9a08d466b86d5c,19,Mężczyzna,2022-06-04_08h09.29.000,task,2021.1.4,Win32,60.04202942,628b806c463b948bc644b84f,629af6ed1c5129617d9f9881,,,,,,,,,,,tvpwtbz,"[""t"",""v"",""p"",""w"",""t"",""b"",""z""]","[2.07189999999855,2.713799999997036,3.3303999999985763,3.8331999999955997,4.633299999997007,4.890399999998522,6.836799999997083,7.145500000000084]",1,TVPWTBZ,13,0,13,0,1,,,,,,,,,,,,,,,,,,,,,,,,,,,,,,,,,,,,,,,,,,,,,,,,,,,,,,,,,,,,,,,,,,,,,,,,,,,,,,,,,,,
,,,,,,,,,,6070c2f8aa9a08d466b86d5c,19,Mężczyzna,2022-06-04_08h09.29.000,task,2021.1.4,Win32,60.04202942,628b806c463b948bc644b84f,629af6ed1c5129617d9f9881,,,,,0,0,0,0,1,X V Q F H G B L J M P D K C T S W R N Z,,,,,,,,,,,,,,,,,,,,,,,,,,,,,,,,,,,,,,,,,,,,,,,,,,,,,,,,,,,,,,,,,,,,,,,,,,,,,,,,,,,,,,,,,,,,,
,,,,,,,,,,6070c2f8aa9a08d466b86d5c,19,Mężczyzna,2022-06-04_08h09.29.000,task,2021.1.4,Win32,60.04202942,628b806c463b948bc644b84f,629af6ed1c5129617d9f9881,,,,,1,0,1,0,1,X V Q F H G B L J M P D K C T S W R N Z,,,,,,,,,,,,,,,,,,,,,,,,,,,,,,,,,,,,,,,,,,,,,,,,,,,,,,,,,,,,,,,,,,,,,,,,,,,,,,,,,,,,,,,,,,,,,
,,,,,,,,,,6070c2f8aa9a08d466b86d5c,19,Mężczyzna,2022-06-04_08h09.29.000,task,2021.1.4,Win32,60.04202942,628b806c463b948bc644b84f,629af6ed1c5129617d9f9881,,,,,2,0,2,0,1,X V Q F H G B L J M P D K C T S W R N Z,,,,,,,,,,,,,,,,,,,,,,,,,,,,,,,,,,,,,,,,,,,,,,,,,,,,,,,,,,,,,,,,,,,,,,,,,,,,,,,,,,,,,,,,,,,,,
,,,,,,,,,,6070c2f8aa9a08d466b86d5c,19,Mężczyzna,2022-06-04_08h09.29.000,task,2021.1.4,Win32,60.04202942,628b806c463b948bc644b84f,629af6ed1c5129617d9f9881,,,,,3,0,3,0,1,X V Q F H G B L J M P D K C T S W R N Z,,,,,,,,,,,,,,,,,,,,,,,,,,,,,,,,,,,,,,,,,,,,,,,,,,,,,,,,,,,,,,,,,,,,,,,,,,,,,,,,,,,,,,,,,,,,,
,,,,,,,,,,6070c2f8aa9a08d466b86d5c,19,Mężczyzna,2022-06-04_08h09.29.000,task,2021.1.4,Win32,60.04202942,628b806c463b948bc644b84f,629af6ed1c5129617d9f9881,,,,,4,0,4,0,1,X V Q F H G B L J M P D K C T S W R N Z,,,,,,,,,,,,,,,,,,,,,,,,,,,,,,,,,,,,,,,,,,,,,,,,,,,,,,,,,,,,,,,,,,,,,,,,,,,,,,,,,,,,,,,,,,,,,
,,,,,,,,,,6070c2f8aa9a08d466b86d5c,19,Mężczyzna,2022-06-04_08h09.29.000,task,2021.1.4,Win32,60.04202942,628b806c463b948bc644b84f,629af6ed1c5129617d9f9881,,,,,5,0,5,0,1,X V Q F H G B L J M P D K C T S W R N Z,,,,,,,,,,,,,,,,,,,,,,,,,,,,,,,,,,,,,,,,,,,,,,,,,,,,,,,,,,,,,,,,,,,,,,,,,,,,,,,,,,,,,,,,,,,,,
,,,,,,,,,,6070c2f8aa9a08d466b86d5c,19,Mężczyzna,2022-06-04_08h09.29.000,task,2021.1.4,Win32,60.04202942,628b806c463b948bc644b84f,629af6ed1c5129617d9f9881,,,,,6,0,6,0,1,X V Q F H G B L J M P D K C T S W R N Z,,,,,,,,,,,,,,,,,,,,,,,,,,,,,,,,,,,,,,,,,,,,,,,,,,,,,,,,,,,,,,,,,,,,,,,,,,,,,,,,,,,,,,,,,,,,,
,,,,,,,,,,6070c2f8aa9a08d466b86d5c,19,Mężczyzna,2022-06-04_08h09.29.000,task,2021.1.4,Win32,60.04202942,628b806c463b948bc644b84f,629af6ed1c5129617d9f9881,,,,,7,0,7,0,1,X V Q F H G B L J M P D K C T S W R N Z,,,,,,,,,,,,,,,,,,,,,,,,,,,,,,,,,,,,,,,,,,,,,,,,,,,,,,,,,,,,,,,,,,,,,,,,,,,,,,,,,,,,,,,,,,,,,
,,,,,,,,,,6070c2f8aa9a08d466b86d5c,19,Mężczyzna,2022-06-04_08h09.29.000,task,2021.1.4,Win32,60.04202942,628b806c463b948bc644b84f,629af6ed1c5129617d9f9881,,,,,,,,,,,wnqrfrrb,"[""w"",""n"",""q"",""r"",""f"",""r"",""r"",""b""]","[1.7991999999954942,2.114500000000021,2.45989999999847,2.997799999997028,4.434999999999945,6.0302999999969416,6.200100000001498,6.670499999999947,7.491499999999974]",0,WNQRFRRV,14,0,14,0,1,,,,,,,,,,,,,,,,,,,,,,,,,,,,,,,,,,,,,,,,,,,,,,,,,,,,,,,,,,,,,,,,,,,,,,,,,,,,,,,,,,,
,,,,,,,,,,6070c2f8aa9a08d466b86d5c,19,Mężczyzna,2022-06-04_08h09.29.000,task,2021.1.4,Win32,60.04202942,628b806c463b948bc644b84f,629af6ed1c5129617d9f9881,,,,,0,0,0,0,1,X V Q F H G B L J M P D K C T S W R N Z,,,,,,,,,,,,,,,,,,,,,,,,,,,,,,,,,,,,,,,,,,,,,,,,,,,,,,,,,,,,,,,,,,,,,,,,,,,,,,,,,,,,,,,,,,,,,
,,,,,,,,,,6070c2f8aa9a08d466b86d5c,19,Mężczyzna,2022-06-04_08h09.29.000,task,2021.1.4,Win32,60.04202942,628b806c463b948bc644b84f,629af6ed1c5129617d9f9881,,,,,1,0,1,0,1,X V Q F H G B L J M P D K C T S W R N Z,,,,,,,,,,,,,,,,,,,,,,,,,,,,,,,,,,,,,,,,,,,,,,,,,,,,,,,,,,,,,,,,,,,,,,,,,,,,,,,,,,,,,,,,,,,,,
,,,,,,,,,,6070c2f8aa9a08d466b86d5c,19,Mężczyzna,2022-06-04_08h09.29.000,task,2021.1.4,Win32,60.04202942,628b806c463b948bc644b84f,629af6ed1c5129617d9f9881,,,,,2,0,2,0,1,X V Q F H G B L J M P D K C T S W R N Z,,,,,,,,,,,,,,,,,,,,,,,,,,,,,,,,,,,,,,,,,,,,,,,,,,,,,,,,,,,,,,,,,,,,,,,,,,,,,,,,,,,,,,,,,,,,,
,,,,,,,,,,6070c2f8aa9a08d466b86d5c,19,Mężczyzna,2022-06-04_08h09.29.000,task,2021.1.4,Win32,60.04202942,628b806c463b948bc644b84f,629af6ed1c5129617d9f9881,,,,,3,0,3,0,1,X V Q F H G B L J M P D K C T S W R N Z,,,,,,,,,,,,,,,,,,,,,,,,,,,,,,,,,,,,,,,,,,,,,,,,,,,,,,,,,,,,,,,,,,,,,,,,,,,,,,,,,,,,,,,,,,,,,
,,,,,,,,,,6070c2f8aa9a08d466b86d5c,19,Mężczyzna,2022-06-04_08h09.29.000,task,2021.1.4,Win32,60.04202942,628b806c463b948bc644b84f,629af6ed1c5129617d9f9881,,,,,4,0,4,0,1,X V Q F H G B L J M P D K C T S W R N Z,,,,,,,,,,,,,,,,,,,,,,,,,,,,,,,,,,,,,,,,,,,,,,,,,,,,,,,,,,,,,,,,,,,,,,,,,,,,,,,,,,,,,,,,,,,,,
,,,,,,,,,,6070c2f8aa9a08d466b86d5c,19,Mężczyzna,2022-06-04_08h09.29.000,task,2021.1.4,Win32,60.04202942,628b806c463b948bc644b84f,629af6ed1c5129617d9f9881,,,,,5,0,5,0,1,X V Q F H G B L J M P D K C T S W R N Z,,,,,,,,,,,,,,,,,,,,,,,,,,,,,,,,,,,,,,,,,,,,,,,,,,,,,,,,,,,,,,,,,,,,,,,,,,,,,,,,,,,,,,,,,,,,,
,,,,,,,,,,6070c2f8aa9a08d466b86d5c,19,Mężczyzna,2022-06-04_08h09.29.000,task,2021.1.4,Win32,60.04202942,628b806c463b948bc644b84f,629af6ed1c5129617d9f9881,,,,,6,0,6,0,1,X V Q F H G B L J M P D K C T S W R N Z,,,,,,,,,,,,,,,,,,,,,,,,,,,,,,,,,,,,,,,,,,,,,,,,,,,,,,,,,,,,,,,,,,,,,,,,,,,,,,,,,,,,,,,,,,,,,
,,,,,,,,,,6070c2f8aa9a08d466b86d5c,19,Mężczyzna,2022-06-04_08h09.29.000,task,2021.1.4,Win32,60.04202942,628b806c463b948bc644b84f,629af6ed1c5129617d9f9881,,,,,7,0,7,0,1,X V Q F H G B L J M P D K C T S W R N Z,,,,,,,,,,,,,,,,,,,,,,,,,,,,,,,,,,,,,,,,,,,,,,,,,,,,,,,,,,,,,,,,,,,,,,,,,,,,,,,,,,,,,,,,,,,,,
,,,,,,,,,,6070c2f8aa9a08d466b86d5c,19,Mężczyzna,2022-06-04_08h09.29.000,task,2021.1.4,Win32,60.04202942,628b806c463b948bc644b84f,629af6ed1c5129617d9f9881,,,,,,,,,,,ppdjbkv,"[""p"",""p"",""d"",""j"",""b"",""k"",""v""]","[0.61099999999999,0.7836000000015702,1.0698999999985972,1.2425000000000637,1.588299999997048,2.0433999999985417,2.4290000000000873,2.783899999998539]",0,PPDJBKBV,15,0,15,0,1,,,,,,,,,,,,,,,,,,,,,,,,,,,,,,,,,,,,,,,,,,,,,,,,,,,,,,,,,,,,,,,,,,,,,,,,,,,,,,,,,,,
,,,,,,,,,,6070c2f8aa9a08d466b86d5c,19,Mężczyzna,2022-06-04_08h09.29.000,task,2021.1.4,Win32,60.04202942,628b806c463b948bc644b84f,629af6ed1c5129617d9f9881,,,,,0,0,0,0,1,X V Q F H G B L J M P D K C T S W R N Z,,,,,,,,,,,,,,,,,,,,,,,,,,,,,,,,,,,,,,,,,,,,,,,,,,,,,,,,,,,,,,,,,,,,,,,,,,,,,,,,,,,,,,,,,,,,,
,,,,,,,,,,6070c2f8aa9a08d466b86d5c,19,Mężczyzna,2022-06-04_08h09.29.000,task,2021.1.4,Win32,60.04202942,628b806c463b948bc644b84f,629af6ed1c5129617d9f9881,,,,,1,0,1,0,1,X V Q F H G B L J M P D K C T S W R N Z,,,,,,,,,,,,,,,,,,,,,,,,,,,,,,,,,,,,,,,,,,,,,,,,,,,,,,,,,,,,,,,,,,,,,,,,,,,,,,,,,,,,,,,,,,,,,
,,,,,,,,,,6070c2f8aa9a08d466b86d5c,19,Mężczyzna,2022-06-04_08h09.29.000,task,2021.1.4,Win32,60.04202942,628b806c463b948bc644b84f,629af6ed1c5129617d9f9881,,,,,2,0,2,0,1,X V Q F H G B L J M P D K C T S W R N Z,,,,,,,,,,,,,,,,,,,,,,,,,,,,,,,,,,,,,,,,,,,,,,,,,,,,,,,,,,,,,,,,,,,,,,,,,,,,,,,,,,,,,,,,,,,,,
,,,,,,,,,,6070c2f8aa9a08d466b86d5c,19,Mężczyzna,2022-06-04_08h09.29.000,task,2021.1.4,Win32,60.04202942,628b806c463b948bc644b84f,629af6ed1c5129617d9f9881,,,,,3,0,3,0,1,X V Q F H G B L J M P D K C T S W R N Z,,,,,,,,,,,,,,,,,,,,,,,,,,,,,,,,,,,,,,,,,,,,,,,,,,,,,,,,,,,,,,,,,,,,,,,,,,,,,,,,,,,,,,,,,,,,,
,,,,,,,,,,6070c2f8aa9a08d466b86d5c,19,Mężczyzna,2022-06-04_08h09.29.000,task,2021.1.4,Win32,60.04202942,628b806c463b948bc644b84f,629af6ed1c5129617d9f9881,,,,,4,0,4,0,1,X V Q F H G B L J M P D K C T S W R N Z,,,,,,,,,,,,,,,,,,,,,,,,,,,,,,,,,,,,,,,,,,,,,,,,,,,,,,,,,,,,,,,,,,,,,,,,,,,,,,,,,,,,,,,,,,,,,
,,,,,,,,,,6070c2f8aa9a08d466b86d5c,19,Mężczyzna,2022-06-04_08h09.29.000,task,2021.1.4,Win32,60.04202942,628b806c463b948bc644b84f,629af6ed1c5129617d9f9881,,,,,5,0,5,0,1,X V Q F H G B L J M P D K C T S W R N Z,,,,,,,,,,,,,,,,,,,,,,,,,,,,,,,,,,,,,,,,,,,,,,,,,,,,,,,,,,,,,,,,,,,,,,,,,,,,,,,,,,,,,,,,,,,,,
,,,,,,,,,,6070c2f8aa9a08d466b86d5c,19,Mężczyzna,2022-06-04_08h09.29.000,task,2021.1.4,Win32,60.04202942,628b806c463b948bc644b84f,629af6ed1c5129617d9f9881,,,,,6,0,6,0,1,X V Q F H G B L J M P D K C T S W R N Z,,,,,,,,,,,,,,,,,,,,,,,,,,,,,,,,,,,,,,,,,,,,,,,,,,,,,,,,,,,,,,,,,,,,,,,,,,,,,,,,,,,,,,,,,,,,,
,,,,,,,,,,6070c2f8aa9a08d466b86d5c,19,Mężczyzna,2022-06-04_08h09.29.000,task,2021.1.4,Win32,60.04202942,628b806c463b948bc644b84f,629af6ed1c5129617d9f9881,,,,,7,0,7,0,1,X V Q F H G B L J M P D K C T S W R N Z,,,,,,,,,,,,,,,,,,,,,,,,,,,,,,,,,,,,,,,,,,,,,,,,,,,,,,,,,,,,,,,,,,,,,,,,,,,,,,,,,,,,,,,,,,,,,
,,,,,,,,,,6070c2f8aa9a08d466b86d5c,19,Mężczyzna,2022-06-04_08h09.29.000,task,2021.1.4,Win32,60.04202942,628b806c463b948bc644b84f,629af6ed1c5129617d9f9881,,,,,,,,,,,vptqnxrf,"[""v"",""p"",""t"",""q"",""n"",""x"",""r"",""f""]","[2.4890000000000327,3.539500000000089,5.233399999998596,5.923399999998537,6.754299999997102,7.214399999998591,8.351100000001566,9.057600000001571,9.728100000001518]",0,VPFQNXRT,16,0,16,0,1,,,,,,,,,,,,,,,,,,,,,,,,,,,,,,,,,,,,,,,,,,,,,,,,,,,,,,,,,,,,,,,,,,,,,,,,,,,,,,,,,,,
,,,,,,,,,,6070c2f8aa9a08d466b86d5c,19,Mężczyzna,2022-06-04_08h09.29.000,task,2021.1.4,Win32,60.04202942,628b806c463b948bc644b84f,629af6ed1c5129617d9f9881,,,,,,,,,,,,,,,,,,,,,space,8.0008,1,"[""1""]",1,[7.942200000003027],[7.942200000003027],0,0,0,1,1,Practice,2,(4x4) - 15,1,,,,,,,,,,,,,,,,,,,,,,,,,,,,,,,,,,,,,,,,,,,,,,,,,,,,,,,,,,,,,,,,,,,
,,,,,,,,,,6070c2f8aa9a08d466b86d5c,19,Mężczyzna,2022-06-04_08h09.29.000,task,2021.1.4,Win32,60.04202942,628b806c463b948bc644b84f,629af6ed1c5129617d9f9881,,,,,,,,,,,,,,,,,,,,,,,4,"[""4""]",1,[3.3333999999985053],"[7.942200000003027,3.3333999999985053]",0,1,1,4,1,Practice,5,(2x6) - 8,4,,,,,,,,,,,,,,,,,,,,,,,,,,,,,,,,,,,,,,,,,,,,,,,,,,,,,,,,,,,,,,,,,,,
,,,,,,,,,,6070c2f8aa9a08d466b86d5c,19,Mężczyzna,2022-06-04_08h09.29.000,task,2021.1.4,Win32,60.04202942,628b806c463b948bc644b84f,629af6ed1c5129617d9f9881,,,,,,,,,,,,,,,,,,,,,,,9,"[""9""]",1,[3.5936000000015156],"[7.942200000003027,3.3333999999985053,3.5936000000015156]",0,2,2,9,1,Practice,10,(20/2) - 1,9,,,,,,,,,,,,,,,,,,,,,,,,,,,,,,,,,,,,,,,,,,,,,,,,,,,,,,,,,,,,,,,,,,,
,,,,,,,,,,6070c2f8aa9a08d466b86d5c,19,Mężczyzna,2022-06-04_08h09.29.000,task,2021.1.4,Win32,60.04202942,628b806c463b948bc644b84f,629af6ed1c5129617d9f9881,,,,,,,,,,,,,,,,,,,,,,,6,"[""6""]",1,[3.3262999999971044],"[7.942200000003027,3.3333999999985053,3.5936000000015156,3.3262999999971044]",0,3,3,6,1,Practice,7,(25/5) + 1,6,,,,,,,,,,,,,,,,,,,,,,,,,,,,,,,,,,,,,,,,,,,,,,,,,,,,,,,,,,,,,,,,,,,
,,,,,,,,,,6070c2f8aa9a08d466b86d5c,19,Mężczyzna,2022-06-04_08h09.29.000,task,2021.1.4,Win32,60.04202942,628b806c463b948bc644b84f,629af6ed1c5129617d9f9881,,,,,,,,,,,,,,,,,,,,,,,3,"[""3""]",1,[1.9797000000029357],"[7.942200000003027,3.3333999999985053,3.5936000000015156,3.3262999999971044,1.9797000000029357]",0,4,4,3,1,Practice,4,(8/4) + 1,3,,,,,,,,,,,,,,,,,,,,,,,,,,,,,,,,,,,,,,,,,,,,,,,,,,,,,,,,,,,,,,,,,,,
,,,,,,,,,,6070c2f8aa9a08d466b86d5c,19,Mężczyzna,2022-06-04_08h09.29.000,task,2021.1.4,Win32,60.04202942,628b806c463b948bc644b84f,629af6ed1c5129617d9f9881,,,,,,,,,,,,,,,,,,,,,,,2,"[""2""]",1,[4.464399999998477],"[7.942200000003027,3.3333999999985053,3.5936000000015156,3.3262999999971044,1.9797000000029357,4.464399999998477]",0,5,5,2,1,Practice,3,(4x4) - 14,2,,,,,,,,,,,,,,,,,,,,,,,,,,,,,,,,,,,,,,,,,,,,,,,,,,,,,,,,,,,,,,,,,,,
,,,,,,,,,,6070c2f8aa9a08d466b86d5c,19,Mężczyzna,2022-06-04_08h09.29.000,task,2021.1.4,Win32,60.04202942,628b806c463b948bc644b84f,629af6ed1c5129617d9f9881,,,,,,,,,,,,,,,,,,,,,,,0,"[""0""]",1,[2.050200000002974],"[7.942200000003027,3.3333999999985053,3.5936000000015156,3.3262999999971044,1.9797000000029357,4.464399999998477,2.050200000002974]",0,6,6,0,1,Practice,1,(3x3) -  9,0,,,,,,,,,,,,,,,,,,,,,,,,,,,,,,,,,,,,,,,,,,,,,,,,,,,,,,,,,,,,,,,,,,,
,,,,,,,,,,6070c2f8aa9a08d466b86d5c,19,Mężczyzna,2022-06-04_08h09.29.000,task,2021.1.4,Win32,60.04202942,628b806c463b948bc644b84f,629af6ed1c5129617d9f9881,,,,,,,,,,,,,,,,,,,,,,,7,"[""7""]",1,[5.317899999998531],"[7.942200000003027,3.3333999999985053,3.5936000000015156,3.3262999999971044,1.9797000000029357,4.464399999998477,2.050200000002974,5.317899999998531]",0,7,7,7,1,Practice,8,(5x5) - 18,7,,,,,,,,,,,,,,,,,,,,,,,,,,,,,,,,,,,,,,,,,,,,,,,,,,,,,,,,,,,,,,,,,,,
,,,,,,,,,,6070c2f8aa9a08d466b86d5c,19,Mężczyzna,2022-06-04_08h09.29.000,task,2021.1.4,Win32,60.04202942,628b806c463b948bc644b84f,629af6ed1c5129617d9f9881,,,,,,,,,,,,,,,,,,,,,,,8,"[""8""]",1,[2.3513999999985344],"[7.942200000003027,3.3333999999985053,3.5936000000015156,3.3262999999971044,1.9797000000029357,4.464399999998477,2.050200000002974,5.317899999998531,2.3513999999985344]",0,8,8,8,1,Practice,9,(3x3) - 1,8,,,,,,,,,,,,,,,,,,,,,,,,,,,,,,,,,,,,,,,,,,,,,,,,,,,,,,,,,,,,,,,,,,,
,,,,,,,,,,6070c2f8aa9a08d466b86d5c,19,Mężczyzna,2022-06-04_08h09.29.000,task,2021.1.4,Win32,60.04202942,628b806c463b948bc644b84f,629af6ed1c5129617d9f9881,,,,,,,,,,,,,,,,,,,,,,,5,"[""5""]",1,[2.02049999999997],"[7.942200000003027,3.3333999999985053,3.5936000000015156,3.3262999999971044,1.9797000000029357,4.464399999998477,2.050200000002974,5.317899999998531,2.3513999999985344,2.02049999999997]",0,9,9,5,1,Practice,6,(4/2) + 3,5,,,,,,,,,,,,,,,,,,,,,,,,,,,,,,,,,,,,,,,,,,,,,,,,,,,,,,,,,,,,,,,,,,,
,,,,,,,,,,6070c2f8aa9a08d466b86d5c,19,Mężczyzna,2022-06-04_08h09.29.000,task,2021.1.4,Win32,60.04202942,628b806c463b948bc644b84f,629af6ed1c5129617d9f9881,,,,,,,,,,,,,,,,,,,,,,,,,,,,,,,,,,,,,1,36.3796,2.425306667,46.47104261,1.760133378,6.966450781,space,1.9624,0,0,0,0,1,,,,,,,,,,,,,,,,,,,,,,,,,,,,,,,,,,,,,,,,,,,,,,,,,,,,,,
,,,,,,,,,,6070c2f8aa9a08d466b86d5c,19,Mężczyzna,2022-06-04_08h09.29.000,task,2021.1.4,Win32,60.04202942,628b806c463b948bc644b84f,629af6ed1c5129617d9f9881,,,,,,,,,,,,,,,,,,,,,,,0,,,,,,,,,,Practice,1,(3x3) -  9,0,,,,,,,,,,,,,,space,13.71,"[""0""]",1,[2.8893999999985454],1,0,0,0,0,1,,,,,,,,,,,,,,,,,,,,,,,,,,,,,,,,,,,,,,,,,,,
,,,,,,,,,,6070c2f8aa9a08d466b86d5c,19,Mężczyzna,2022-06-04_08h09.29.000,task,2021.1.4,Win32,60.04202942,628b806c463b948bc644b84f,629af6ed1c5129617d9f9881,,,,,,,,,,X V Q F H G B L J M P D K C T S W R N Z,,,,,,,,,,,,,,,,,,,,,,,,,,,,,,,,,,,,,,,,,,,,,,,,,,,0,0,0,0,1,,,,,,,,,,,,,,,,,,,,,,,,,,,,,,,,,,,,,,
,,,,,,,,,,6070c2f8aa9a08d466b86d5c,19,Mężczyzna,2022-06-04_08h09.29.000,task,2021.1.4,Win32,60.04202942,628b806c463b948bc644b84f,629af6ed1c5129617d9f9881,,,,,,,,,,,,,,,,,,,,,,,7,,,,,,,,,,Practice,8,(5x5) - 18,7,,,,,,,,,,,,,,,,"[""7""]",1,[2.153299999996989],1,0,0,0,7,1,,,,,,,,,,,,,,,,,,,,,,,,,,,,,,,,,,,,,,,,,,,
,,,,,,,,,,6070c2f8aa9a08d466b86d5c,19,Mężczyzna,2022-06-04_08h09.29.000,task,2021.1.4,Win32,60.04202942,628b806c463b948bc644b84f,629af6ed1c5129617d9f9881,,,,,,,,,,X V Q F H G B L J M P D K C T S W R N Z,,,,,,,,,,,,,,,,,,,,,,,,,,,,,,,,,,,,,,,,,,,,,,,,,,,1,0,1,0,1,,,,,,,,,,,,,,,,,,,,,,,,,,,,,,,,,,,,,,
,,,,,,,,,,6070c2f8aa9a08d466b86d5c,19,Mężczyzna,2022-06-04_08h09.29.000,task,2021.1.4,Win32,60.04202942,628b806c463b948bc644b84f,629af6ed1c5129617d9f9881,,,,,,,,,,,,,,,,,,,,,,,,,,,,,,,,,,,,,,,,,,,,,,,,,,,,,,,,,,,,,,,,,,zg,"[""z"",""g""]",0,"[2.1803999999984853,2.8659999999999854,3.3372000000030084]",1,0,0,0,0,1,,,,,,,,,,,,,,,,,,,,,,,,,,,,
,,,,,,,,,,6070c2f8aa9a08d466b86d5c,19,Mężczyzna,2022-06-04_08h09.29.000,task,2021.1.4,Win32,60.04202942,628b806c463b948bc644b84f,629af6ed1c5129617d9f9881,,,,,,,,,,,,,,,,,,,,,,,8,,,,,,,,,,Practice,9,(3x3) - 1,8,,,,,,,,,,,,,,,,"[""8""]",1,[1.4647999999970125],1,0,0,0,8,1,,,,,,,,,,,,,,,,,,,,,,,,,,,,,,,,,,,,,,,,,,,
,,,,,,,,,,6070c2f8aa9a08d466b86d5c,19,Mężczyzna,2022-06-04_08h09.29.000,task,2021.1.4,Win32,60.04202942,628b806c463b948bc644b84f,629af6ed1c5129617d9f9881,,,,,,,,,,X V Q F H G B L J M P D K C T S W R N Z,,,,,,,,,,,,,,,,,,,,,,,,,,,,,,,,,,,,,,,,,,,,,,,,,,,0,0,0,0,1,,,,,,,,,,,,,,,,,,,,,,,,,,,,,,,,,,,,,,
,,,,,,,,,,6070c2f8aa9a08d466b86d5c,19,Mężczyzna,2022-06-04_08h09.29.000,task,2021.1.4,Win32,60.04202942,628b806c463b948bc644b84f,629af6ed1c5129617d9f9881,,,,,,,,,,,,,,,,,,,,,,,2,,,,,,,,,,Practice,3,(4x4) - 14,2,,,,,,,,,,,,,,,,"[""2""]",1,[2.677199999995537],1,0,0,0,2,1,,,,,,,,,,,,,,,,,,,,,,,,,,,,,,,,,,,,,,,,,,,
,,,,,,,,,,6070c2f8aa9a08d466b86d5c,19,Mężczyzna,2022-06-04_08h09.29.000,task,2021.1.4,Win32,60.04202942,628b806c463b948bc644b84f,629af6ed1c5129617d9f9881,,,,,,,,,,X V Q F H G B L J M P D K C T S W R N Z,,,,,,,,,,,,,,,,,,,,,,,,,,,,,,,,,,,,,,,,,,,,,,,,,,,1,0,1,0,1,,,,,,,,,,,,,,,,,,,,,,,,,,,,,,,,,,,,,,
,,,,,,,,,,6070c2f8aa9a08d466b86d5c,19,Mężczyzna,2022-06-04_08h09.29.000,task,2021.1.4,Win32,60.04202942,628b806c463b948bc644b84f,629af6ed1c5129617d9f9881,,,,,,,,,,,,,,,,,,,,,,,,,,,,,,,,,,,,,,,,,,,,,,,,,,,,,,,,,,,,,,,,,,zk,"[""z"",""k""]",0,"[1.2135999999940168,1.370599999994056,1.7621999999954596]",1,1,0,1,0,1,,,,,,,,,,,,,,,,,,,,,,,,,,,,
,,,,,,,,,,6070c2f8aa9a08d466b86d5c,19,Mężczyzna,2022-06-04_08h09.29.000,task,2021.1.4,Win32,60.04202942,628b806c463b948bc644b84f,629af6ed1c5129617d9f9881,,,,,,,,,,,,,,,,,,,,,,,5,,,,,,,,,,Practice,6,(4/2) + 3,5,,,,,,,,,,,,,,,,"[""5""]",1,[1.675299999997037],1,0,0,0,5,1,,,,,,,,,,,,,,,,,,,,,,,,,,,,,,,,,,,,,,,,,,,
,,,,,,,,,,6070c2f8aa9a08d466b86d5c,19,Mężczyzna,2022-06-04_08h09.29.000,task,2021.1.4,Win32,60.04202942,628b806c463b948bc644b84f,629af6ed1c5129617d9f9881,,,,,,,,,,X V Q F H G B L J M P D K C T S W R N Z,,,,,,,,,,,,,,,,,,,,,,,,,,,,,,,,,,,,,,,,,,,,,,,,,,,0,0,0,0,1,,,,,,,,,,,,,,,,,,,,,,,,,,,,,,,,,,,,,,
,,,,,,,,,,6070c2f8aa9a08d466b86d5c,19,Mężczyzna,2022-06-04_08h09.29.000,task,2021.1.4,Win32,60.04202942,628b806c463b948bc644b84f,629af6ed1c5129617d9f9881,,,,,,,,,,,,,,,,,,,,,,,6,,,,,,,,,,Practice,7,(25/5) + 1,6,,,,,,,,,,,,,,,,"[""6""]",1,[2.098400000005995],1,0,0,0,6,1,,,,,,,,,,,,,,,,,,,,,,,,,,,,,,,,,,,,,,,,,,,
,,,,,,,,,,6070c2f8aa9a08d466b86d5c,19,Mężczyzna,2022-06-04_08h09.29.000,task,2021.1.4,Win32,60.04202942,628b806c463b948bc644b84f,629af6ed1c5129617d9f9881,,,,,,,,,,X V Q F H G B L J M P D K C T S W R N Z,,,,,,,,,,,,,,,,,,,,,,,,,,,,,,,,,,,,,,,,,,,,,,,,,,,1,0,1,0,1,,,,,,,,,,,,,,,,,,,,,,,,,,,,,,,,,,,,,,
,,,,,,,,,,6070c2f8aa9a08d466b86d5c,19,Mężczyzna,2022-06-04_08h09.29.000,task,2021.1.4,Win32,60.04202942,628b806c463b948bc644b84f,629af6ed1c5129617d9f9881,,,,,,,,,,,,,,,,,,,,,,,,,,,,,,,,,,,,,,,,,,,,,,,,,,,,,,,,,,,,,,,,,,fp,"[""f"",""p""]",0,"[2.367300000004434,2.546700000002943,3.318800000004444]",1,2,0,2,0,1,,,,,,,,,,,,,,,,,,,,,,,,,,,,
,,,,,,,,,,6070c2f8aa9a08d466b86d5c,19,Mężczyzna,2022-06-04_08h09.29.000,task,2021.1.4,Win32,60.04202942,628b806c463b948bc644b84f,629af6ed1c5129617d9f9881,,,,,,,,,,,,,,,,,,,,,,,6,,,,,,,,,,Task,13,(3x4) - 6,6,,,,,,,,,,,,,,,,,,,1,,,,,,,,,,,,,,,,,,,,,space,11.6279,"[""6""]",1,[4.1043000000044],0,0,0,12,1,,,,,,,,,,,,,,,,,,
,,,,,,,,,,6070c2f8aa9a08d466b86d5c,19,Mężczyzna,2022-06-04_08h09.29.000,task,2021.1.4,Win32,60.04202942,628b806c463b948bc644b84f,629af6ed1c5129617d9f9881,,,,,,,,,,X V Q F H G B L J M P D K C T S W R N Z,,,,,,,,,,,,,,,,,,,,,,,,,,,,,,,,,,,,,,,,,,,,,,,,,,,,,,,,,,,,,,,,,,,,,,,,,,,,0,0,0,0,1,,,,,,,,,,,,,
,,,,,,,,,,6070c2f8aa9a08d466b86d5c,19,Mężczyzna,2022-06-04_08h09.29.000,task,2021.1.4,Win32,60.04202942,628b806c463b948bc644b84f,629af6ed1c5129617d9f9881,,,,,,,,,,,,,,,,,,,,,,,1,,,,,,,,,,Task,1,(12/6) - 1,1,,,,,,,,,,,,,,,,,,,1,,,,,,,,,,,,,,,,,,,,,,,"[""1""]",1,[3.0442999999970652],0,0,0,0,1,,,,,,,,,,,,,,,,,,
,,,,,,,,,,6070c2f8aa9a08d466b86d5c,19,Mężczyzna,2022-06-04_08h09.29.000,task,2021.1.4,Win32,60.04202942,628b806c463b948bc644b84f,629af6ed1c5129617d9f9881,,,,,,,,,,X V Q F H G B L J M P D K C T S W R N Z,,,,,,,,,,,,,,,,,,,,,,,,,,,,,,,,,,,,,,,,,,,,,,,,,,,,,,,,,,,,,,,,,,,,,,,,,,,,1,0,1,0,1,,,,,,,,,,,,,
,,,,,,,,,,6070c2f8aa9a08d466b86d5c,19,Mężczyzna,2022-06-04_08h09.29.000,task,2021.1.4,Win32,60.04202942,628b806c463b948bc644b84f,629af6ed1c5129617d9f9881,,,,,,,,,,,,,,,,,,,,,,,,,,,,,,,,,,,,,,,,,,,,,,,,,,,,,,,,,,,,,,,,,,,,,,,,,,,,,,,,,,,,,,,,,,,zd,"[""z"",""d""]",0,"[1.6762000000029502,2.1471000000013873,2.899499999999989]",1,ZD,0,0,0,0,1,,
,,,,,,,,,,6070c2f8aa9a08d466b86d5c,19,Mężczyzna,2022-06-04_08h09.29.000,task,2021.1.4,Win32,60.04202942,628b806c463b948bc644b84f,629af6ed1c5129617d9f9881,,,,,,,,,,,,,,,,,,,,,,,6,,,,,,,,,,Task,30,(6/3) + 4 ,6,,,,,,,,,,,,,,,,,,,1,,,,,,,,,,,,,,,,,,,,,,,"[""6""]",1,[3.6317999999970425],0,0,0,29,1,,,,,,,,,,,,,,,,,,
,,,,,,,,,,6070c2f8aa9a08d466b86d5c,19,Mężczyzna,2022-06-04_08h09.29.000,task,2021.1.4,Win32,60.04202942,628b806c463b948bc644b84f,629af6ed1c5129617d9f9881,,,,,,,,,,X V Q F H G B L J M P D K C T S W R N Z,,,,,,,,,,,,,,,,,,,,,,,,,,,,,,,,,,,,,,,,,,,,,,,,,,,,,,,,,,,,,,,,,,,,,,,,,,,,0,0,0,0,1,,,,,,,,,,,,,
,,,,,,,,,,6070c2f8aa9a08d466b86d5c,19,Mężczyzna,2022-06-04_08h09.29.000,task,2021.1.4,Win32,60.04202942,628b806c463b948bc644b84f,629af6ed1c5129617d9f9881,,,,,,,,,,,,,,,,,,,,,,,6,,,,,,,,,,Task,5,(2x3) + 0,6,,,,,,,,,,,,,,,,,,,1,,,,,,,,,,,,,,,,,,,,,,,"[""6""]",1,[2.18289999999854],0,0,0,4,1,,,,,,,,,,,,,,,,,,
,,,,,,,,,,6070c2f8aa9a08d466b86d5c,19,Mężczyzna,2022-06-04_08h09.29.000,task,2021.1.4,Win32,60.04202942,628b806c463b948bc644b84f,629af6ed1c5129617d9f9881,,,,,,,,,,X V Q F H G B L J M P D K C T S W R N Z,,,,,,,,,,,,,,,,,,,,,,,,,,,,,,,,,,,,,,,,,,,,,,,,,,,,,,,,,,,,,,,,,,,,,,,,,,,,1,0,1,0,1,,,,,,,,,,,,,
,,,,,,,,,,6070c2f8aa9a08d466b86d5c,19,Mężczyzna,2022-06-04_08h09.29.000,task,2021.1.4,Win32,60.04202942,628b806c463b948bc644b84f,629af6ed1c5129617d9f9881,,,,,,,,,,,,,,,,,,,,,,,,,,,,,,,,,Task,9,(3x7) - 20,1,,,,,,,,,,,,,,,,,,,0,,,,,,,,,,,,,,,,,,,,,,,,0,,0,0,0,8,1,,,,,,,,,,,,,,,,,,
,,,,,,,,,,6070c2f8aa9a08d466b86d5c,19,Mężczyzna,2022-06-04_08h09.29.000,task,2021.1.4,Win32,60.04202942,628b806c463b948bc644b84f,629af6ed1c5129617d9f9881,,,,,,,,,,,,,,,,,,,,,,,1,,,,,,,,,,Task,1,(12/6) - 1,1,,,,,,,,,,,,,,,,,,,1,,,,,,,,,,,,,,,,,,,,,,,"[""1""]",1,[2.911700000002952],0,1,1,0,1,,,,,,,,,,,,,,,,,,
,,,,,,,,,,6070c2f8aa9a08d466b86d5c,19,Mężczyzna,2022-06-04_08h09.29.000,task,2021.1.4,Win32,60.04202942,628b806c463b948bc644b84f,629af6ed1c5129617d9f9881,,,,,,,,,,X V Q F H G B L J M P D K C T S W R N Z,,,,,,,,,,,,,,,,,,,,,,,,,,,,,,,,,,,,,,,,,,,,,,,,,,,,,,,,,,,,,,,,,,,,,,,,,,,,2,0,2,0,1,,,,,,,,,,,,,
,,,,,,,,,,6070c2f8aa9a08d466b86d5c,19,Mężczyzna,2022-06-04_08h09.29.000,task,2021.1.4,Win32,60.04202942,628b806c463b948bc644b84f,629af6ed1c5129617d9f9881,,,,,,,,,,,,,,,,,,,,,,,,,,,,,,,,,,,,,,,,,,,,,,,,,,,,,,,,,,,,,,,,,,,,,,,,,,,,,,,,,,,,,,,,,,,xhz,"[""x"",""h"",""z""]",0,"[1.0812999999969861,1.2578999999984717,1.9812000000029002,2.3701000000014574]",1,XHZ,1,0,1,0,1,,
,,,,,,,,,,6070c2f8aa9a08d466b86d5c,19,Mężczyzna,2022-06-04_08h09.29.000,task,2021.1.4,Win32,60.04202942,628b806c463b948bc644b84f,629af6ed1c5129617d9f9881,,,,,,,,,,,,,,,,,,,,,,,,,,,,,,,,,Task,15,(3x7) - 13,8,,,,,,,,,,,,,,,,,,,0,,,,,,,,,,,,,,,,,,,,,,,,0,,0,0,0,14,1,,,,,,,,,,,,,,,,,,
,,,,,,,,,,6070c2f8aa9a08d466b86d5c,19,Mężczyzna,2022-06-04_08h09.29.000,task,2021.1.4,Win32,60.04202942,628b806c463b948bc644b84f,629af6ed1c5129617d9f9881,,,,,,,,,,,,,,,,,,,,,,,4,,,,,,,,,,Task,21,(10/2) - 1,4,,,,,,,,,,,,,,,,,,,1,,,,,,,,,,,,,,,,,,,,,,,"[""4""]",1,[3.3822999999970307],0,1,1,20,1,,,,,,,,,,,,,,,,,,
,,,,,,,,,,6070c2f8aa9a08d466b86d5c,19,Mężczyzna,2022-06-04_08h09.29.000,task,2021.1.4,Win32,60.04202942,628b806c463b948bc644b84f,629af6ed1c5129617d9f9881,,,,,,,,,,X V Q F H G B L J M P D K C T S W R N Z,,,,,,,,,,,,,,,,,,,,,,,,,,,,,,,,,,,,,,,,,,,,,,,,,,,,,,,,,,,,,,,,,,,,,,,,,,,,0,0,0,0,1,,,,,,,,,,,,,
,,,,,,,,,,6070c2f8aa9a08d466b86d5c,19,Mężczyzna,2022-06-04_08h09.29.000,task,2021.1.4,Win32,60.04202942,628b806c463b948bc644b84f,629af6ed1c5129617d9f9881,,,,,,,,,,,,,,,,,,,,,,,4,,,,,,,,,,Task,4,(1x5) - 1,4,,,,,,,,,,,,,,,,,,,1,,,,,,,,,,,,,,,,,,,,,,,"[""4""]",1,[2.287700000003042],0,0,0,3,1,,,,,,,,,,,,,,,,,,
,,,,,,,,,,6070c2f8aa9a08d466b86d5c,19,Mężczyzna,2022-06-04_08h09.29.000,task,2021.1.4,Win32,60.04202942,628b806c463b948bc644b84f,629af6ed1c5129617d9f9881,,,,,,,,,,X V Q F H G B L J M P D K C T S W R N Z,,,,,,,,,,,,,,,,,,,,,,,,,,,,,,,,,,,,,,,,,,,,,,,,,,,,,,,,,,,,,,,,,,,,,,,,,,,,1,0,1,0,1,,,,,,,,,,,,,
,,,,,,,,,,6070c2f8aa9a08d466b86d5c,19,Mężczyzna,2022-06-04_08h09.29.000,task,2021.1.4,Win32,60.04202942,628b806c463b948bc644b84f,629af6ed1c5129617d9f9881,,,,,,,,,,,,,,,,,,,,,,,6,,,,,,,,,,Task,30,(6/3) + 4 ,6,,,,,,,,,,,,,,,,,,,1,,,,,,,,,,,,,,,,,,,,,,,"[""6""]",1,[2.4067000000030703],0,0,0,29,1,,,,,,,,,,,,,,,,,,
,,,,,,,,,,6070c2f8aa9a08d466b86d5c,19,Mężczyzna,2022-06-04_08h09.29.000,task,2021.1.4,Win32,60.04202942,628b806c463b948bc644b84f,629af6ed1c5129617d9f9881,,,,,,,,,,X V Q F H G B L J M P D K C T S W R N Z,,,,,,,,,,,,,,,,,,,,,,,,,,,,,,,,,,,,,,,,,,,,,,,,,,,,,,,,,,,,,,,,,,,,,,,,,,,,2,0,2,0,1,,,,,,,,,,,,,
,,,,,,,,,,6070c2f8aa9a08d466b86d5c,19,Mężczyzna,2022-06-04_08h09.29.000,task,2021.1.4,Win32,60.04202942,628b806c463b948bc644b84f,629af6ed1c5129617d9f9881,,,,,,,,,,,,,,,,,,,,,,,0,,,,,,,,,,Task,8,(1x5) - 5,0,,,,,,,,,,,,,,,,,,,1,,,,,,,,,,,,,,,,,,,,,,,"[""0""]",1,[2.4049999999999727],0,0,0,7,1,,,,,,,,,,,,,,,,,,
,,,,,,,,,,6070c2f8aa9a08d466b86d5c,19,Mężczyzna,2022-06-04_08h09.29.000,task,2021.1.4,Win32,60.04202942,628b806c463b948bc644b84f,629af6ed1c5129617d9f9881,,,,,,,,,,X V Q F H G B L J M P D K C T S W R N Z,,,,,,,,,,,,,,,,,,,,,,,,,,,,,,,,,,,,,,,,,,,,,,,,,,,,,,,,,,,,,,,,,,,,,,,,,,,,3,0,3,0,1,,,,,,,,,,,,,
,,,,,,,,,,6070c2f8aa9a08d466b86d5c,19,Mężczyzna,2022-06-04_08h09.29.000,task,2021.1.4,Win32,60.04202942,628b806c463b948bc644b84f,629af6ed1c5129617d9f9881,,,,,,,,,,,,,,,,,,,,,,,,,,,,,,,,,,,,,,,,,,,,,,,,,,,,,,,,,,,,,,,,,,,,,,,,,,,,,,,,,,,,,,,,,,,lfhg,"[""l"",""f"",""h"",""g""]",0,"[2.4527000000030057,3.064100000001531,4.566900000005944,4.717900000006011,5.34699999999998]",1,LFHG,2,0,2,0,1,,
,,,,,,,,,,6070c2f8aa9a08d466b86d5c,19,Mężczyzna,2022-06-04_08h09.29.000,task,2021.1.4,Win32,60.04202942,628b806c463b948bc644b84f,629af6ed1c5129617d9f9881,,,,,,,,,,,,,,,,,,,,,,,7,,,,,,,,,,Task,14,(2x2) + 3,7,,,,,,,,,,,,,,,,,,,1,,,,,,,,,,,,,,,,,,,,,,,"[""7""]",1,[3.3880000000000337],0,0,0,13,1,,,,,,,,,,,,,,,,,,
,,,,,,,,,,6070c2f8aa9a08d466b86d5c,19,Mężczyzna,2022-06-04_08h09.29.000,task,2021.1.4,Win32,60.04202942,628b806c463b948bc644b84f,629af6ed1c5129617d9f9881,,,,,,,,,,X V Q F H G B L J M P D K C T S W R N Z,,,,,,,,,,,,,,,,,,,,,,,,,,,,,,,,,,,,,,,,,,,,,,,,,,,,,,,,,,,,,,,,,,,,,,,,,,,,0,0,0,0,1,,,,,,,,,,,,,
,,,,,,,,,,6070c2f8aa9a08d466b86d5c,19,Mężczyzna,2022-06-04_08h09.29.000,task,2021.1.4,Win32,60.04202942,628b806c463b948bc644b84f,629af6ed1c5129617d9f9881,,,,,,,,,,,,,,,,,,,,,,,4,,,,,,,,,,Task,4,(1x5) - 1,4,,,,,,,,,,,,,,,,,,,1,,,,,,,,,,,,,,,,,,,,,,,"[""4""]",1,[2.066400000005956],0,0,0,3,1,,,,,,,,,,,,,,,,,,
,,,,,,,,,,6070c2f8aa9a08d466b86d5c,19,Mężczyzna,2022-06-04_08h09.29.000,task,2021.1.4,Win32,60.04202942,628b806c463b948bc644b84f,629af6ed1c5129617d9f9881,,,,,,,,,,X V Q F H G B L J M P D K C T S W R N Z,,,,,,,,,,,,,,,,,,,,,,,,,,,,,,,,,,,,,,,,,,,,,,,,,,,,,,,,,,,,,,,,,,,,,,,,,,,,1,0,1,0,1,,,,,,,,,,,,,
,,,,,,,,,,6070c2f8aa9a08d466b86d5c,19,Mężczyzna,2022-06-04_08h09.29.000,task,2021.1.4,Win32,60.04202942,628b806c463b948bc644b84f,629af6ed1c5129617d9f9881,,,,,,,,,,,,,,,,,,,,,,,7,,,,,,,,,,Task,6,(12/2) + 1,7,,,,,,,,,,,,,,,,,,,1,,,,,,,,,,,,,,,,,,,,,,,"[""7""]",1,[2.181700000002934],0,0,0,5,1,,,,,,,,,,,,,,,,,,
,,,,,,,,,,6070c2f8aa9a08d466b86d5c,19,Mężczyzna,2022-06-04_08h09.29.000,task,2021.1.4,Win32,60.04202942,628b806c463b948bc644b84f,629af6ed1c5129617d9f9881,,,,,,,,,,X V Q F H G B L J M P D K C T S W R N Z,,,,,,,,,,,,,,,,,,,,,,,,,,,,,,,,,,,,,,,,,,,,,,,,,,,,,,,,,,,,,,,,,,,,,,,,,,,,2,0,2,0,1,,,,,,,,,,,,,
,,,,,,,,,,6070c2f8aa9a08d466b86d5c,19,Mężczyzna,2022-06-04_08h09.29.000,task,2021.1.4,Win32,60.04202942,628b806c463b948bc644b84f,629af6ed1c5129617d9f9881,,,,,,,,,,,,,,,,,,,,,,,1,,,,,,,,,,Task,9,(3x7) - 20,1,,,,,,,,,,,,,,,,,,,1,,,,,,,,,,,,,,,,,,,,,,,"[""1""]",1,[1.8277999999970689],0,0,0,8,1,,,,,,,,,,,,,,,,,,
,,,,,,,,,,6070c2f8aa9a08d466b86d5c,19,Mężczyzna,2022-06-04_08h09.29.000,task,2021.1.4,Win32,60.04202942,628b806c463b948bc644b84f,629af6ed1c5129617d9f9881,,,,,,,,,,X V Q F H G B L J M P D K C T S W R N Z,,,,,,,,,,,,,,,,,,,,,,,,,,,,,,,,,,,,,,,,,,,,,,,,,,,,,,,,,,,,,,,,,,,,,,,,,,,,3,0,3,0,1,,,,,,,,,,,,,
,,,,,,,,,,6070c2f8aa9a08d466b86d5c,19,Mężczyzna,2022-06-04_08h09.29.000,task,2021.1.4,Win32,60.04202942,628b806c463b948bc644b84f,629af6ed1c5129617d9f9881,,,,,,,,,,,,,,,,,,,,,,,0,,,,,,,,,,Task,25,(10/5) - 2,0,,,,,,,,,,,,,,,,,,,1,,,,,,,,,,,,,,,,,,,,,,,"[""0""]",1,[5.399999999999977],0,0,0,24,1,,,,,,,,,,,,,,,,,,
,,,,,,,,,,6070c2f8aa9a08d466b86d5c,19,Mężczyzna,2022-06-04_08h09.29.000,task,2021.1.4,Win32,60.04202942,628b806c463b948bc644b84f,629af6ed1c5129617d9f9881,,,,,,,,,,X V Q F H G B L J M P D K C T S W R N Z,,,,,,,,,,,,,,,,,,,,,,,,,,,,,,,,,,,,,,,,,,,,,,,,,,,,,,,,,,,,,,,,,,,,,,,,,,,,4,0,4,0,1,,,,,,,,,,,,,
,,,,,,,,,,6070c2f8aa9a08d466b86d5c,19,Mężczyzna,2022-06-04_08h09.29.000,task,2021.1.4,Win32,60.04202942,628b806c463b948bc644b84f,629af6ed1c5129617d9f9881,,,,,,,,,,,,,,,,,,,,,,,,,,,,,,,,,,,,,,,,,,,,,,,,,,,,,,,,,,,,,,,,,,,,,,,,,,,,,,,,,,,,,,,,,,,glmdx,"[""g"",""l"",""m"",""d"",""x""]",0,"[2.6748999999985017,3.088799999997036,3.6632999999970934,3.8973999999985836,4.90779999999711,5.067799999997078]",1,GLMDX,3,0,3,0,1,,
,,,,,,,,,,6070c2f8aa9a08d466b86d5c,19,Mężczyzna,2022-06-04_08h09.29.000,task,2021.1.4,Win32,60.04202942,628b806c463b948bc644b84f,629af6ed1c5129617d9f9881,,,,,,,,,,,,,,,,,,,,,,,5,,,,,,,,,,Task,29,(3x8) - 19 ,5,,,,,,,,,,,,,,,,,,,1,,,,,,,,,,,,,,,,,,,,,,,"[""5""]",1,[4.134399999998436],0,0,0,28,1,,,,,,,,,,,,,,,,,,
,,,,,,,,,,6070c2f8aa9a08d466b86d5c,19,Mężczyzna,2022-06-04_08h09.29.000,task,2021.1.4,Win32,60.04202942,628b806c463b948bc644b84f,629af6ed1c5129617d9f9881,,,,,,,,,,X V Q F H G B L J M P D K C T S W R N Z,,,,,,,,,,,,,,,,,,,,,,,,,,,,,,,,,,,,,,,,,,,,,,,,,,,,,,,,,,,,,,,,,,,,,,,,,,,,0,0,0,0,1,,,,,,,,,,,,,
,,,,,,,,,,6070c2f8aa9a08d466b86d5c,19,Mężczyzna,2022-06-04_08h09.29.000,task,2021.1.4,Win32,60.04202942,628b806c463b948bc644b84f,629af6ed1c5129617d9f9881,,,,,,,,,,,,,,,,,,,,,,,5,,,,,,,,,,Task,12,(4x4) - 11,5,,,,,,,,,,,,,,,,,,,1,,,,,,,,,,,,,,,,,,,,,,,"[""5""]",1,[2.9342000000029884],0,0,0,11,1,,,,,,,,,,,,,,,,,,
,,,,,,,,,,6070c2f8aa9a08d466b86d5c,19,Mężczyzna,2022-06-04_08h09.29.000,task,2021.1.4,Win32,60.04202942,628b806c463b948bc644b84f,629af6ed1c5129617d9f9881,,,,,,,,,,X V Q F H G B L J M P D K C T S W R N Z,,,,,,,,,,,,,,,,,,,,,,,,,,,,,,,,,,,,,,,,,,,,,,,,,,,,,,,,,,,,,,,,,,,,,,,,,,,,1,0,1,0,1,,,,,,,,,,,,,
,,,,,,,,,,6070c2f8aa9a08d466b86d5c,19,Mężczyzna,2022-06-04_08h09.29.000,task,2021.1.4,Win32,60.04202942,628b806c463b948bc644b84f,629af6ed1c5129617d9f9881,,,,,,,,,,,,,,,,,,,,,,,7,,,,,,,,,,Task,6,(12/2) + 1,7,,,,,,,,,,,,,,,,,,,1,,,,,,,,,,,,,,,,,,,,,,,"[""7""]",1,[1.97950000000003],0,0,0,5,1,,,,,,,,,,,,,,,,,,
,,,,,,,,,,6070c2f8aa9a08d466b86d5c,19,Mężczyzna,2022-06-04_08h09.29.000,task,2021.1.4,Win32,60.04202942,628b806c463b948bc644b84f,629af6ed1c5129617d9f9881,,,,,,,,,,X V Q F H G B L J M P D K C T S W R N Z,,,,,,,,,,,,,,,,,,,,,,,,,,,,,,,,,,,,,,,,,,,,,,,,,,,,,,,,,,,,,,,,,,,,,,,,,,,,2,0,2,0,1,,,,,,,,,,,,,
,,,,,,,,,,6070c2f8aa9a08d466b86d5c,19,Mężczyzna,2022-06-04_08h09.29.000,task,2021.1.4,Win32,60.04202942,628b806c463b948bc644b84f,629af6ed1c5129617d9f9881,,,,,,,,,,,,,,,,,,,,,,,2,,,,,,,,,,Task,2,(2x2) - 2,2,,,,,,,,,,,,,,,,,,,1,,,,,,,,,,,,,,,,,,,,,,,"[""2""]",1,[1.5567999999971107],0,0,0,1,1,,,,,,,,,,,,,,,,,,
,,,,,,,,,,6070c2f8aa9a08d466b86d5c,19,Mężczyzna,2022-06-04_08h09.29.000,task,2021.1.4,Win32,60.04202942,628b806c463b948bc644b84f,629af6ed1c5129617d9f9881,,,,,,,,,,X V Q F H G B L J M P D K C T S W R N Z,,,,,,,,,,,,,,,,,,,,,,,,,,,,,,,,,,,,,,,,,,,,,,,,,,,,,,,,,,,,,,,,,,,,,,,,,,,,3,0,3,0,1,,,,,,,,,,,,,
,,,,,,,,,,6070c2f8aa9a08d466b86d5c,19,Mężczyzna,2022-06-04_08h09.29.000,task,2021.1.4,Win32,60.04202942,628b806c463b948bc644b84f,629af6ed1c5129617d9f9881,,,,,,,,,,,,,,,,,,,,,,,7,,,,,,,,,,Task,6,(12/2) + 1,7,,,,,,,,,,,,,,,,,,,1,,,,,,,,,,,,,,,,,,,,,,,"[""7""]",1,[4.526599999994119],0,0,0,5,1,,,,,,,,,,,,,,,,,,
,,,,,,,,,,6070c2f8aa9a08d466b86d5c,19,Mężczyzna,2022-06-04_08h09.29.000,task,2021.1.4,Win32,60.04202942,628b806c463b948bc644b84f,629af6ed1c5129617d9f9881,,,,,,,,,,X V Q F H G B L J M P D K C T S W R N Z,,,,,,,,,,,,,,,,,,,,,,,,,,,,,,,,,,,,,,,,,,,,,,,,,,,,,,,,,,,,,,,,,,,,,,,,,,,,4,0,4,0,1,,,,,,,,,,,,,
,,,,,,,,,,6070c2f8aa9a08d466b86d5c,19,Mężczyzna,2022-06-04_08h09.29.000,task,2021.1.4,Win32,60.04202942,628b806c463b948bc644b84f,629af6ed1c5129617d9f9881,,,,,,,,,,,,,,,,,,,,,,,1,,,,,,,,,,Task,21,(10/2) - 1,4,,,,,,,,,,,,,,,,,,,0,,,,,,,,,,,,,,,,,,,,,,,"[""1""]",0,[1.5360999999940077],0,0,0,20,1,,,,,,,,,,,,,,,,,,
,,,,,,,,,,6070c2f8aa9a08d466b86d5c,19,Mężczyzna,2022-06-04_08h09.29.000,task,2021.1.4,Win32,60.04202942,628b806c463b948bc644b84f,629af6ed1c5129617d9f9881,,,,,,,,,,,,,,,,,,,,,,,5,,,,,,,,,,Task,36,(8/4) + 3,5,,,,,,,,,,,,,,,,,,,1,,,,,,,,,,,,,,,,,,,,,,,"[""5""]",1,[3.300899999998478],0,1,1,35,1,,,,,,,,,,,,,,,,,,
,,,,,,,,,,6070c2f8aa9a08d466b86d5c,19,Mężczyzna,2022-06-04_08h09.29.000,task,2021.1.4,Win32,60.04202942,628b806c463b948bc644b84f,629af6ed1c5129617d9f9881,,,,,,,,,,X V Q F H G B L J M P D K C T S W R N Z,,,,,,,,,,,,,,,,,,,,,,,,,,,,,,,,,,,,,,,,,,,,,,,,,,,,,,,,,,,,,,,,,,,,,,,,,,,,5,0,5,0,1,,,,,,,,,,,,,
,,,,,,,,,,6070c2f8aa9a08d466b86d5c,19,Mężczyzna,2022-06-04_08h09.29.000,task,2021.1.4,Win32,60.04202942,628b806c463b948bc644b84f,629af6ed1c5129617d9f9881,,,,,,,,,,,,,,,,,,,,,,,,,,,,,,,,,,,,,,,,,,,,,,,,,,,,,,,,,,,,,,,,,,,,,,,,,,,,,,,,,,,,,,,,,,,kqzhlv,"[""k"",""q"",""z"",""h"",""l"",""v""]",0,"[2.48700000000008,4.130899999998519,4.558200000003012,5.614100000001486,5.980799999997089,6.114000000000033,7.20520000000306]",1,KQZHLV,4,0,4,0,1,,
,,,,,,,,,,6070c2f8aa9a08d466b86d5c,19,Mężczyzna,2022-06-04_08h09.29.000,task,2021.1.4,Win32,60.04202942,628b806c463b948bc644b84f,629af6ed1c5129617d9f9881,,,,,,,,,,,,,,,,,,,,,,,2,,,,,,,,,,Task,19,(6/2) - 1,2,,,,,,,,,,,,,,,,,,,1,,,,,,,,,,,,,,,,,,,,,,,"[""2""]",1,[2.382400000005873],0,0,0,18,1,,,,,,,,,,,,,,,,,,
,,,,,,,,,,6070c2f8aa9a08d466b86d5c,19,Mężczyzna,2022-06-04_08h09.29.000,task,2021.1.4,Win32,60.04202942,628b806c463b948bc644b84f,629af6ed1c5129617d9f9881,,,,,,,,,,X V Q F H G B L J M P D K C T S W R N Z,,,,,,,,,,,,,,,,,,,,,,,,,,,,,,,,,,,,,,,,,,,,,,,,,,,,,,,,,,,,,,,,,,,,,,,,,,,,0,0,0,0,1,,,,,,,,,,,,,
,,,,,,,,,,6070c2f8aa9a08d466b86d5c,19,Mężczyzna,2022-06-04_08h09.29.000,task,2021.1.4,Win32,60.04202942,628b806c463b948bc644b84f,629af6ed1c5129617d9f9881,,,,,,,,,,,,,,,,,,,,,,,6,,,,,,,,,,Task,13,(3x4) - 6,6,,,,,,,,,,,,,,,,,,,1,,,,,,,,,,,,,,,,,,,,,,,"[""6""]",1,[3.7048999999984744],0,0,0,12,1,,,,,,,,,,,,,,,,,,
,,,,,,,,,,6070c2f8aa9a08d466b86d5c,19,Mężczyzna,2022-06-04_08h09.29.000,task,2021.1.4,Win32,60.04202942,628b806c463b948bc644b84f,629af6ed1c5129617d9f9881,,,,,,,,,,X V Q F H G B L J M P D K C T S W R N Z,,,,,,,,,,,,,,,,,,,,,,,,,,,,,,,,,,,,,,,,,,,,,,,,,,,,,,,,,,,,,,,,,,,,,,,,,,,,1,0,1,0,1,,,,,,,,,,,,,
,,,,,,,,,,6070c2f8aa9a08d466b86d5c,19,Mężczyzna,2022-06-04_08h09.29.000,task,2021.1.4,Win32,60.04202942,628b806c463b948bc644b84f,629af6ed1c5129617d9f9881,,,,,,,,,,,,,,,,,,,,,,,2,,,,,,,,,,Task,19,(6/2) - 1,2,,,,,,,,,,,,,,,,,,,1,,,,,,,,,,,,,,,,,,,,,,,"[""2""]",1,[1.9584999999999582],0,0,0,18,1,,,,,,,,,,,,,,,,,,
,,,,,,,,,,6070c2f8aa9a08d466b86d5c,19,Mężczyzna,2022-06-04_08h09.29.000,task,2021.1.4,Win32,60.04202942,628b806c463b948bc644b84f,629af6ed1c5129617d9f9881,,,,,,,,,,X V Q F H G B L J M P D K C T S W R N Z,,,,,,,,,,,,,,,,,,,,,,,,,,,,,,,,,,,,,,,,,,,,,,,,,,,,,,,,,,,,,,,,,,,,,,,,,,,,2,0,2,0,1,,,,,,,,,,,,,
,,,,,,,,,,6070c2f8aa9a08d466b86d5c,19,Mężczyzna,2022-06-04_08h09.29.000,task,2021.1.4,Win32,60.04202942,628b806c463b948bc644b84f,629af6ed1c5129617d9f9881,,,,,,,,,,,,,,,,,,,,,,,5,,,,,,,,,,Task,36,(8/4) + 3,5,,,,,,,,,,,,,,,,,,,1,,,,,,,,,,,,,,,,,,,,,,,"[""5""]",1,[1.6643999999985226],0,0,0,35,1,,,,,,,,,,,,,,,,,,
,,,,,,,,,,6070c2f8aa9a08d466b86d5c,19,Mężczyzna,2022-06-04_08h09.29.000,task,2021.1.4,Win32,60.04202942,628b806c463b948bc644b84f,629af6ed1c5129617d9f9881,,,,,,,,,,X V Q F H G B L J M P D K C T S W R N Z,,,,,,,,,,,,,,,,,,,,,,,,,,,,,,,,,,,,,,,,,,,,,,,,,,,,,,,,,,,,,,,,,,,,,,,,,,,,3,0,3,0,1,,,,,,,,,,,,,
,,,,,,,,,,6070c2f8aa9a08d466b86d5c,19,Mężczyzna,2022-06-04_08h09.29.000,task,2021.1.4,Win32,60.04202942,628b806c463b948bc644b84f,629af6ed1c5129617d9f9881,,,,,,,,,,,,,,,,,,,,,,,3,,,,,,,,,,Task,27,(3/3) + 2,3,,,,,,,,,,,,,,,,,,,1,,,,,,,,,,,,,,,,,,,,,,,"[""3""]",1,[2.167500000000018],0,0,0,26,1,,,,,,,,,,,,,,,,,,
,,,,,,,,,,6070c2f8aa9a08d466b86d5c,19,Mężczyzna,2022-06-04_08h09.29.000,task,2021.1.4,Win32,60.04202942,628b806c463b948bc644b84f,629af6ed1c5129617d9f9881,,,,,,,,,,X V Q F H G B L J M P D K C T S W R N Z,,,,,,,,,,,,,,,,,,,,,,,,,,,,,,,,,,,,,,,,,,,,,,,,,,,,,,,,,,,,,,,,,,,,,,,,,,,,4,0,4,0,1,,,,,,,,,,,,,
