key_resp_15.keys,key_resp_15.rt,key_resp_13.keys,key_resp_13.corr,key_resp_13.rt,ranodm_loop.thisRepN,ranodm_loop.thisTrialN,ranodm_loop.thisN,ranodm_loop.thisIndex,ranodm_loop.ran,participant,Wiek*,Płeć,date,expName,psychopyVersion,OS,frameRate,study_id,session,key_resp_16.keys,key_resp_16.rt,key_resp_4.keys,key_resp_4.rt,next_letter.thisRepN,next_letter.thisTrialN,next_letter.thisN,next_letter.thisIndex,next_letter.ran,letter,simple_recall,key_resp_5.keys,key_resp_5.rt,simple_recall_corr,simple_recall_corrkeys,next_level.thisRepN,next_level.thisTrialN,next_level.thisN,next_level.thisIndex,next_level.ran,key_resp_2.keys,key_resp_2.rt,digit_answer,key_resp.keys,key_resp.corr,key_resp.rt,RT_list,next_equation.thisRepN,next_equation.thisTrialN,next_equation.thisN,next_equation.thisIndex,next_equation.ran,Task,Trial,Problem,Operation_answer,processing_score,sumRT,meanRT,sumdiff,sd,RT,key_resp_3.keys,key_resp_3.rt,repeat_practice.thisRepN,repeat_practice.thisTrialN,repeat_practice.thisN,repeat_practice.thisIndex,repeat_practice.ran,key_resp_6.keys,key_resp_6.rt,key_resp_11.keys,key_resp_11.corr,key_resp_11.rt,operation_correct,repeat_if_wrong_prac.thisRepN,repeat_if_wrong_prac.thisTrialN,repeat_if_wrong_prac.thisN,repeat_if_wrong_prac.thisIndex,repeat_if_wrong_prac.ran,span_size_prac.thisRepN,span_size_prac.thisTrialN,span_size_prac.thisN,span_size_prac.thisIndex,span_size_prac.ran,complex_recall_practice,key_resp_9.keys,key_resp_9.corr,key_resp_9.rt,complex_prac_corr,span_recall_prac.thisRepN,span_recall_prac.thisTrialN,span_recall_prac.thisN,span_recall_prac.thisIndex,span_recall_prac.ran,key_resp_10.keys,key_resp_10.rt,key_resp_7.keys,key_resp_7.corr,key_resp_7.rt,repeat_if_wrong.thisRepN,repeat_if_wrong.thisTrialN,repeat_if_wrong.thisN,repeat_if_wrong.thisIndex,repeat_if_wrong.ran,span_size.thisRepN,span_size.thisTrialN,span_size.thisN,span_size.thisIndex,span_size.ran,complex_recall,key_resp_8.keys,key_resp_8.corr,key_resp_8.rt,complex_recall_corr,complex_recall_corrkeys,span_recall.thisRepN,span_recall.thisTrialN,span_recall.thisN,span_recall.thisIndex,span_recall.ran,key_resp_12.keys,key_resp_12.rt
space,0.683,"[""comma""]",0,[0.48399999999998045],0,0,0,0,1,6071d42438f4fc44ff6b54c5,28,Mężczyzna,2022-06-04_08h30.14.866,task,2021.1.4,Win32,59.95203837,628b806c463b948bc644b84f,629af9aee8e7c623f9da2d12,,,,,,,,,,,,,,,,,,,,,,,,,,,,,,,,,,,,,,,,,,,,,,,,,,,,,,,,,,,,,,,,,,,,,,,,,,,,,,,,,,,,,,,,,,,,,,,,,,,,,,,
,,"[""period"",""period""]",0,"[0.27199999999999136,1.9189999999999827]",1,0,1,0,1,6071d42438f4fc44ff6b54c5,28,Mężczyzna,2022-06-04_08h30.14.866,task,2021.1.4,Win32,59.95203837,628b806c463b948bc644b84f,629af9aee8e7c623f9da2d12,,,,,,,,,,,,,,,,,,,,,,,,,,,,,,,,,,,,,,,,,,,,,,,,,,,,,,,,,,,,,,,,,,,,,,,,,,,,,,,,,,,,,,,,,,,,,,,,,,,,,,,
,,,0,,2,0,2,0,1,6071d42438f4fc44ff6b54c5,28,Mężczyzna,2022-06-04_08h30.14.866,task,2021.1.4,Win32,59.95203837,628b806c463b948bc644b84f,629af9aee8e7c623f9da2d12,,,,,,,,,,,,,,,,,,,,,,,,,,,,,,,,,,,,,,,,,,,,,,,,,,,,,,,,,,,,,,,,,,,,,,,,,,,,,,,,,,,,,,,,,,,,,,,,,,,,,,,
,,"[""comma"",""comma""]",0,"[0.1190000000000282,1.7760000000000105]",3,0,3,0,1,6071d42438f4fc44ff6b54c5,28,Mężczyzna,2022-06-04_08h30.14.866,task,2021.1.4,Win32,59.95203837,628b806c463b948bc644b84f,629af9aee8e7c623f9da2d12,,,,,,,,,,,,,,,,,,,,,,,,,,,,,,,,,,,,,,,,,,,,,,,,,,,,,,,,,,,,,,,,,,,,,,,,,,,,,,,,,,,,,,,,,,,,,,,,,,,,,,,
,,"[""comma""]",0,[1.2159999999999513],4,0,4,0,1,6071d42438f4fc44ff6b54c5,28,Mężczyzna,2022-06-04_08h30.14.866,task,2021.1.4,Win32,59.95203837,628b806c463b948bc644b84f,629af9aee8e7c623f9da2d12,,,,,,,,,,,,,,,,,,,,,,,,,,,,,,,,,,,,,,,,,,,,,,,,,,,,,,,,,,,,,,,,,,,,,,,,,,,,,,,,,,,,,,,,,,,,,,,,,,,,,,,
,,"[""period""]",0,[0.75],5,0,5,0,1,6071d42438f4fc44ff6b54c5,28,Mężczyzna,2022-06-04_08h30.14.866,task,2021.1.4,Win32,59.95203837,628b806c463b948bc644b84f,629af9aee8e7c623f9da2d12,,,,,,,,,,,,,,,,,,,,,,,,,,,,,,,,,,,,,,,,,,,,,,,,,,,,,,,,,,,,,,,,,,,,,,,,,,,,,,,,,,,,,,,,,,,,,,,,,,,,,,,
,,"[""comma""]",0,[0.5190000000000055],6,0,6,0,1,6071d42438f4fc44ff6b54c5,28,Mężczyzna,2022-06-04_08h30.14.866,task,2021.1.4,Win32,59.95203837,628b806c463b948bc644b84f,629af9aee8e7c623f9da2d12,,,,,,,,,,,,,,,,,,,,,,,,,,,,,,,,,,,,,,,,,,,,,,,,,,,,,,,,,,,,,,,,,,,,,,,,,,,,,,,,,,,,,,,,,,,,,,,,,,,,,,,
,,"[""comma""]",0,[0.382000000000005],7,0,7,0,1,6071d42438f4fc44ff6b54c5,28,Mężczyzna,2022-06-04_08h30.14.866,task,2021.1.4,Win32,59.95203837,628b806c463b948bc644b84f,629af9aee8e7c623f9da2d12,,,,,,,,,,,,,,,,,,,,,,,,,,,,,,,,,,,,,,,,,,,,,,,,,,,,,,,,,,,,,,,,,,,,,,,,,,,,,,,,,,,,,,,,,,,,,,,,,,,,,,,
,,"[""comma""]",0,[0.7010000000000218],8,0,8,0,1,6071d42438f4fc44ff6b54c5,28,Mężczyzna,2022-06-04_08h30.14.866,task,2021.1.4,Win32,59.95203837,628b806c463b948bc644b84f,629af9aee8e7c623f9da2d12,,,,,,,,,,,,,,,,,,,,,,,,,,,,,,,,,,,,,,,,,,,,,,,,,,,,,,,,,,,,,,,,,,,,,,,,,,,,,,,,,,,,,,,,,,,,,,,,,,,,,,,
,,"[""period""]",0,[0.7520000000000095],9,0,9,0,1,6071d42438f4fc44ff6b54c5,28,Mężczyzna,2022-06-04_08h30.14.866,task,2021.1.4,Win32,59.95203837,628b806c463b948bc644b84f,629af9aee8e7c623f9da2d12,,,,,,,,,,,,,,,,,,,,,,,,,,,,,,,,,,,,,,,,,,,,,,,,,,,,,,,,,,,,,,,,,,,,,,,,,,,,,,,,,,,,,,,,,,,,,,,,,,,,,,,
,,"[""period""]",0,[1.3950000000000387],10,0,10,0,1,6071d42438f4fc44ff6b54c5,28,Mężczyzna,2022-06-04_08h30.14.866,task,2021.1.4,Win32,59.95203837,628b806c463b948bc644b84f,629af9aee8e7c623f9da2d12,,,,,,,,,,,,,,,,,,,,,,,,,,,,,,,,,,,,,,,,,,,,,,,,,,,,,,,,,,,,,,,,,,,,,,,,,,,,,,,,,,,,,,,,,,,,,,,,,,,,,,,
,,,0,,11,0,11,0,1,6071d42438f4fc44ff6b54c5,28,Mężczyzna,2022-06-04_08h30.14.866,task,2021.1.4,Win32,59.95203837,628b806c463b948bc644b84f,629af9aee8e7c623f9da2d12,,,,,,,,,,,,,,,,,,,,,,,,,,,,,,,,,,,,,,,,,,,,,,,,,,,,,,,,,,,,,,,,,,,,,,,,,,,,,,,,,,,,,,,,,,,,,,,,,,,,,,,
,,"[""period""]",0,[-0.016999999999995907],12,0,12,0,1,6071d42438f4fc44ff6b54c5,28,Mężczyzna,2022-06-04_08h30.14.866,task,2021.1.4,Win32,59.95203837,628b806c463b948bc644b84f,629af9aee8e7c623f9da2d12,,,,,,,,,,,,,,,,,,,,,,,,,,,,,,,,,,,,,,,,,,,,,,,,,,,,,,,,,,,,,,,,,,,,,,,,,,,,,,,,,,,,,,,,,,,,,,,,,,,,,,,
,,"[""comma""]",0,[0.46500000000003183],13,0,13,0,1,6071d42438f4fc44ff6b54c5,28,Mężczyzna,2022-06-04_08h30.14.866,task,2021.1.4,Win32,59.95203837,628b806c463b948bc644b84f,629af9aee8e7c623f9da2d12,,,,,,,,,,,,,,,,,,,,,,,,,,,,,,,,,,,,,,,,,,,,,,,,,,,,,,,,,,,,,,,,,,,,,,,,,,,,,,,,,,,,,,,,,,,,,,,,,,,,,,,
,,"[""comma""]",0,[1.2829999999999586],14,0,14,0,1,6071d42438f4fc44ff6b54c5,28,Mężczyzna,2022-06-04_08h30.14.866,task,2021.1.4,Win32,59.95203837,628b806c463b948bc644b84f,629af9aee8e7c623f9da2d12,,,,,,,,,,,,,,,,,,,,,,,,,,,,,,,,,,,,,,,,,,,,,,,,,,,,,,,,,,,,,,,,,,,,,,,,,,,,,,,,,,,,,,,,,,,,,,,,,,,,,,,
,,"[""comma""]",0,[1.593999999999994],15,0,15,0,1,6071d42438f4fc44ff6b54c5,28,Mężczyzna,2022-06-04_08h30.14.866,task,2021.1.4,Win32,59.95203837,628b806c463b948bc644b84f,629af9aee8e7c623f9da2d12,,,,,,,,,,,,,,,,,,,,,,,,,,,,,,,,,,,,,,,,,,,,,,,,,,,,,,,,,,,,,,,,,,,,,,,,,,,,,,,,,,,,,,,,,,,,,,,,,,,,,,,
,,,0,,16,0,16,0,1,6071d42438f4fc44ff6b54c5,28,Mężczyzna,2022-06-04_08h30.14.866,task,2021.1.4,Win32,59.95203837,628b806c463b948bc644b84f,629af9aee8e7c623f9da2d12,,,,,,,,,,,,,,,,,,,,,,,,,,,,,,,,,,,,,,,,,,,,,,,,,,,,,,,,,,,,,,,,,,,,,,,,,,,,,,,,,,,,,,,,,,,,,,,,,,,,,,,
,,"[""comma""]",0,[0.4309999999999832],17,0,17,0,1,6071d42438f4fc44ff6b54c5,28,Mężczyzna,2022-06-04_08h30.14.866,task,2021.1.4,Win32,59.95203837,628b806c463b948bc644b84f,629af9aee8e7c623f9da2d12,,,,,,,,,,,,,,,,,,,,,,,,,,,,,,,,,,,,,,,,,,,,,,,,,,,,,,,,,,,,,,,,,,,,,,,,,,,,,,,,,,,,,,,,,,,,,,,,,,,,,,,
,,,0,,18,0,18,0,1,6071d42438f4fc44ff6b54c5,28,Mężczyzna,2022-06-04_08h30.14.866,task,2021.1.4,Win32,59.95203837,628b806c463b948bc644b84f,629af9aee8e7c623f9da2d12,,,,,,,,,,,,,,,,,,,,,,,,,,,,,,,,,,,,,,,,,,,,,,,,,,,,,,,,,,,,,,,,,,,,,,,,,,,,,,,,,,,,,,,,,,,,,,,,,,,,,,,
,,"[""comma""]",0,[0.0009999999999763531],19,0,19,0,1,6071d42438f4fc44ff6b54c5,28,Mężczyzna,2022-06-04_08h30.14.866,task,2021.1.4,Win32,59.95203837,628b806c463b948bc644b84f,629af9aee8e7c623f9da2d12,,,,,,,,,,,,,,,,,,,,,,,,,,,,,,,,,,,,,,,,,,,,,,,,,,,,,,,,,,,,,,,,,,,,,,,,,,,,,,,,,,,,,,,,,,,,,,,,,,,,,,,
,,"[""period""]",0,[0.6619999999999777],20,0,20,0,1,6071d42438f4fc44ff6b54c5,28,Mężczyzna,2022-06-04_08h30.14.866,task,2021.1.4,Win32,59.95203837,628b806c463b948bc644b84f,629af9aee8e7c623f9da2d12,,,,,,,,,,,,,,,,,,,,,,,,,,,,,,,,,,,,,,,,,,,,,,,,,,,,,,,,,,,,,,,,,,,,,,,,,,,,,,,,,,,,,,,,,,,,,,,,,,,,,,,
,,"[""period""]",0,[1.4309999999999832],21,0,21,0,1,6071d42438f4fc44ff6b54c5,28,Mężczyzna,2022-06-04_08h30.14.866,task,2021.1.4,Win32,59.95203837,628b806c463b948bc644b84f,629af9aee8e7c623f9da2d12,,,,,,,,,,,,,,,,,,,,,,,,,,,,,,,,,,,,,,,,,,,,,,,,,,,,,,,,,,,,,,,,,,,,,,,,,,,,,,,,,,,,,,,,,,,,,,,,,,,,,,,
,,"[""comma""]",0,[1.934000000000026],22,0,22,0,1,6071d42438f4fc44ff6b54c5,28,Mężczyzna,2022-06-04_08h30.14.866,task,2021.1.4,Win32,59.95203837,628b806c463b948bc644b84f,629af9aee8e7c623f9da2d12,,,,,,,,,,,,,,,,,,,,,,,,,,,,,,,,,,,,,,,,,,,,,,,,,,,,,,,,,,,,,,,,,,,,,,,,,,,,,,,,,,,,,,,,,,,,,,,,,,,,,,,
,,,0,,23,0,23,0,1,6071d42438f4fc44ff6b54c5,28,Mężczyzna,2022-06-04_08h30.14.866,task,2021.1.4,Win32,59.95203837,628b806c463b948bc644b84f,629af9aee8e7c623f9da2d12,,,,,,,,,,,,,,,,,,,,,,,,,,,,,,,,,,,,,,,,,,,,,,,,,,,,,,,,,,,,,,,,,,,,,,,,,,,,,,,,,,,,,,,,,,,,,,,,,,,,,,,
,,,0,,24,0,24,0,1,6071d42438f4fc44ff6b54c5,28,Mężczyzna,2022-06-04_08h30.14.866,task,2021.1.4,Win32,59.95203837,628b806c463b948bc644b84f,629af9aee8e7c623f9da2d12,,,,,,,,,,,,,,,,,,,,,,,,,,,,,,,,,,,,,,,,,,,,,,,,,,,,,,,,,,,,,,,,,,,,,,,,,,,,,,,,,,,,,,,,,,,,,,,,,,,,,,,
,,"[""comma""]",0,[0.5329999999999586],25,0,25,0,1,6071d42438f4fc44ff6b54c5,28,Mężczyzna,2022-06-04_08h30.14.866,task,2021.1.4,Win32,59.95203837,628b806c463b948bc644b84f,629af9aee8e7c623f9da2d12,,,,,,,,,,,,,,,,,,,,,,,,,,,,,,,,,,,,,,,,,,,,,,,,,,,,,,,,,,,,,,,,,,,,,,,,,,,,,,,,,,,,,,,,,,,,,,,,,,,,,,,
,,"[""comma""]",0,[1.2760000000000105],26,0,26,0,1,6071d42438f4fc44ff6b54c5,28,Mężczyzna,2022-06-04_08h30.14.866,task,2021.1.4,Win32,59.95203837,628b806c463b948bc644b84f,629af9aee8e7c623f9da2d12,,,,,,,,,,,,,,,,,,,,,,,,,,,,,,,,,,,,,,,,,,,,,,,,,,,,,,,,,,,,,,,,,,,,,,,,,,,,,,,,,,,,,,,,,,,,,,,,,,,,,,,
,,,0,,27,0,27,0,1,6071d42438f4fc44ff6b54c5,28,Mężczyzna,2022-06-04_08h30.14.866,task,2021.1.4,Win32,59.95203837,628b806c463b948bc644b84f,629af9aee8e7c623f9da2d12,,,,,,,,,,,,,,,,,,,,,,,,,,,,,,,,,,,,,,,,,,,,,,,,,,,,,,,,,,,,,,,,,,,,,,,,,,,,,,,,,,,,,,,,,,,,,,,,,,,,,,,
,,"[""period""]",0,[0.19999999999998863],28,0,28,0,1,6071d42438f4fc44ff6b54c5,28,Mężczyzna,2022-06-04_08h30.14.866,task,2021.1.4,Win32,59.95203837,628b806c463b948bc644b84f,629af9aee8e7c623f9da2d12,,,,,,,,,,,,,,,,,,,,,,,,,,,,,,,,,,,,,,,,,,,,,,,,,,,,,,,,,,,,,,,,,,,,,,,,,,,,,,,,,,,,,,,,,,,,,,,,,,,,,,,
,,"[""comma""]",0,[0.7019999999999982],29,0,29,0,1,6071d42438f4fc44ff6b54c5,28,Mężczyzna,2022-06-04_08h30.14.866,task,2021.1.4,Win32,59.95203837,628b806c463b948bc644b84f,629af9aee8e7c623f9da2d12,,,,,,,,,,,,,,,,,,,,,,,,,,,,,,,,,,,,,,,,,,,,,,,,,,,,,,,,,,,,,,,,,,,,,,,,,,,,,,,,,,,,,,,,,,,,,,,,,,,,,,,
,,"[""comma""]",0,[1.7989999999999782],30,0,30,0,1,6071d42438f4fc44ff6b54c5,28,Mężczyzna,2022-06-04_08h30.14.866,task,2021.1.4,Win32,59.95203837,628b806c463b948bc644b84f,629af9aee8e7c623f9da2d12,,,,,,,,,,,,,,,,,,,,,,,,,,,,,,,,,,,,,,,,,,,,,,,,,,,,,,,,,,,,,,,,,,,,,,,,,,,,,,,,,,,,,,,,,,,,,,,,,,,,,,,
,,,0,,31,0,31,0,1,6071d42438f4fc44ff6b54c5,28,Mężczyzna,2022-06-04_08h30.14.866,task,2021.1.4,Win32,59.95203837,628b806c463b948bc644b84f,629af9aee8e7c623f9da2d12,,,,,,,,,,,,,,,,,,,,,,,,,,,,,,,,,,,,,,,,,,,,,,,,,,,,,,,,,,,,,,,,,,,,,,,,,,,,,,,,,,,,,,,,,,,,,,,,,,,,,,,
,,"[""comma""]",0,[0.5169999999999959],32,0,32,0,1,6071d42438f4fc44ff6b54c5,28,Mężczyzna,2022-06-04_08h30.14.866,task,2021.1.4,Win32,59.95203837,628b806c463b948bc644b84f,629af9aee8e7c623f9da2d12,,,,,,,,,,,,,,,,,,,,,,,,,,,,,,,,,,,,,,,,,,,,,,,,,,,,,,,,,,,,,,,,,,,,,,,,,,,,,,,,,,,,,,,,,,,,,,,,,,,,,,,
,,"[""comma""]",0,[0.8199999999999932],33,0,33,0,1,6071d42438f4fc44ff6b54c5,28,Mężczyzna,2022-06-04_08h30.14.866,task,2021.1.4,Win32,59.95203837,628b806c463b948bc644b84f,629af9aee8e7c623f9da2d12,,,,,,,,,,,,,,,,,,,,,,,,,,,,,,,,,,,,,,,,,,,,,,,,,,,,,,,,,,,,,,,,,,,,,,,,,,,,,,,,,,,,,,,,,,,,,,,,,,,,,,,
,,"[""period""]",0,[0.9059999999999491],34,0,34,0,1,6071d42438f4fc44ff6b54c5,28,Mężczyzna,2022-06-04_08h30.14.866,task,2021.1.4,Win32,59.95203837,628b806c463b948bc644b84f,629af9aee8e7c623f9da2d12,,,,,,,,,,,,,,,,,,,,,,,,,,,,,,,,,,,,,,,,,,,,,,,,,,,,,,,,,,,,,,,,,,,,,,,,,,,,,,,,,,,,,,,,,,,,,,,,,,,,,,,
,,,0,,35,0,35,0,1,6071d42438f4fc44ff6b54c5,28,Mężczyzna,2022-06-04_08h30.14.866,task,2021.1.4,Win32,59.95203837,628b806c463b948bc644b84f,629af9aee8e7c623f9da2d12,,,,,,,,,,,,,,,,,,,,,,,,,,,,,,,,,,,,,,,,,,,,,,,,,,,,,,,,,,,,,,,,,,,,,,,,,,,,,,,,,,,,,,,,,,,,,,,,,,,,,,,
,,"[""period""]",0,[0.367999999999995],36,0,36,0,1,6071d42438f4fc44ff6b54c5,28,Mężczyzna,2022-06-04_08h30.14.866,task,2021.1.4,Win32,59.95203837,628b806c463b948bc644b84f,629af9aee8e7c623f9da2d12,,,,,,,,,,,,,,,,,,,,,,,,,,,,,,,,,,,,,,,,,,,,,,,,,,,,,,,,,,,,,,,,,,,,,,,,,,,,,,,,,,,,,,,,,,,,,,,,,,,,,,,
,,"[""period""]",0,[0.9559999999999604],37,0,37,0,1,6071d42438f4fc44ff6b54c5,28,Mężczyzna,2022-06-04_08h30.14.866,task,2021.1.4,Win32,59.95203837,628b806c463b948bc644b84f,629af9aee8e7c623f9da2d12,,,,,,,,,,,,,,,,,,,,,,,,,,,,,,,,,,,,,,,,,,,,,,,,,,,,,,,,,,,,,,,,,,,,,,,,,,,,,,,,,,,,,,,,,,,,,,,,,,,,,,,
,,"[""period""]",0,[0.5709999999999695],38,0,38,0,1,6071d42438f4fc44ff6b54c5,28,Mężczyzna,2022-06-04_08h30.14.866,task,2021.1.4,Win32,59.95203837,628b806c463b948bc644b84f,629af9aee8e7c623f9da2d12,,,,,,,,,,,,,,,,,,,,,,,,,,,,,,,,,,,,,,,,,,,,,,,,,,,,,,,,,,,,,,,,,,,,,,,,,,,,,,,,,,,,,,,,,,,,,,,,,,,,,,,
,,"[""comma""]",0,[0.7559999999999718],39,0,39,0,1,6071d42438f4fc44ff6b54c5,28,Mężczyzna,2022-06-04_08h30.14.866,task,2021.1.4,Win32,59.95203837,628b806c463b948bc644b84f,629af9aee8e7c623f9da2d12,,,,,,,,,,,,,,,,,,,,,,,,,,,,,,,,,,,,,,,,,,,,,,,,,,,,,,,,,,,,,,,,,,,,,,,,,,,,,,,,,,,,,,,,,,,,,,,,,,,,,,,
,,"[""comma""]",0,[0.7879999999999541],40,0,40,0,1,6071d42438f4fc44ff6b54c5,28,Mężczyzna,2022-06-04_08h30.14.866,task,2021.1.4,Win32,59.95203837,628b806c463b948bc644b84f,629af9aee8e7c623f9da2d12,,,,,,,,,,,,,,,,,,,,,,,,,,,,,,,,,,,,,,,,,,,,,,,,,,,,,,,,,,,,,,,,,,,,,,,,,,,,,,,,,,,,,,,,,,,,,,,,,,,,,,,
,,"[""comma""]",0,[0.7179999999999609],41,0,41,0,1,6071d42438f4fc44ff6b54c5,28,Mężczyzna,2022-06-04_08h30.14.866,task,2021.1.4,Win32,59.95203837,628b806c463b948bc644b84f,629af9aee8e7c623f9da2d12,,,,,,,,,,,,,,,,,,,,,,,,,,,,,,,,,,,,,,,,,,,,,,,,,,,,,,,,,,,,,,,,,,,,,,,,,,,,,,,,,,,,,,,,,,,,,,,,,,,,,,,
,,"[""period""]",0,[1.5669999999999504],42,0,42,0,1,6071d42438f4fc44ff6b54c5,28,Mężczyzna,2022-06-04_08h30.14.866,task,2021.1.4,Win32,59.95203837,628b806c463b948bc644b84f,629af9aee8e7c623f9da2d12,,,,,,,,,,,,,,,,,,,,,,,,,,,,,,,,,,,,,,,,,,,,,,,,,,,,,,,,,,,,,,,,,,,,,,,,,,,,,,,,,,,,,,,,,,,,,,,,,,,,,,,
,,,0,,43,0,43,0,1,6071d42438f4fc44ff6b54c5,28,Mężczyzna,2022-06-04_08h30.14.866,task,2021.1.4,Win32,59.95203837,628b806c463b948bc644b84f,629af9aee8e7c623f9da2d12,,,,,,,,,,,,,,,,,,,,,,,,,,,,,,,,,,,,,,,,,,,,,,,,,,,,,,,,,,,,,,,,,,,,,,,,,,,,,,,,,,,,,,,,,,,,,,,,,,,,,,,
,,"[""comma""]",0,[0.39999999999997726],44,0,44,0,1,6071d42438f4fc44ff6b54c5,28,Mężczyzna,2022-06-04_08h30.14.866,task,2021.1.4,Win32,59.95203837,628b806c463b948bc644b84f,629af9aee8e7c623f9da2d12,,,,,,,,,,,,,,,,,,,,,,,,,,,,,,,,,,,,,,,,,,,,,,,,,,,,,,,,,,,,,,,,,,,,,,,,,,,,,,,,,,,,,,,,,,,,,,,,,,,,,,,
,,"[""period""]",0,[1.8759999999999764],45,0,45,0,1,6071d42438f4fc44ff6b54c5,28,Mężczyzna,2022-06-04_08h30.14.866,task,2021.1.4,Win32,59.95203837,628b806c463b948bc644b84f,629af9aee8e7c623f9da2d12,,,,,,,,,,,,,,,,,,,,,,,,,,,,,,,,,,,,,,,,,,,,,,,,,,,,,,,,,,,,,,,,,,,,,,,,,,,,,,,,,,,,,,,,,,,,,,,,,,,,,,,
,,,0,,46,0,46,0,1,6071d42438f4fc44ff6b54c5,28,Mężczyzna,2022-06-04_08h30.14.866,task,2021.1.4,Win32,59.95203837,628b806c463b948bc644b84f,629af9aee8e7c623f9da2d12,,,,,,,,,,,,,,,,,,,,,,,,,,,,,,,,,,,,,,,,,,,,,,,,,,,,,,,,,,,,,,,,,,,,,,,,,,,,,,,,,,,,,,,,,,,,,,,,,,,,,,,
,,"[""comma""]",0,[0.5819999999999936],47,0,47,0,1,6071d42438f4fc44ff6b54c5,28,Mężczyzna,2022-06-04_08h30.14.866,task,2021.1.4,Win32,59.95203837,628b806c463b948bc644b84f,629af9aee8e7c623f9da2d12,,,,,,,,,,,,,,,,,,,,,,,,,,,,,,,,,,,,,,,,,,,,,,,,,,,,,,,,,,,,,,,,,,,,,,,,,,,,,,,,,,,,,,,,,,,,,,,,,,,,,,,
,,"[""comma""]",0,[0.6690000000000396],48,0,48,0,1,6071d42438f4fc44ff6b54c5,28,Mężczyzna,2022-06-04_08h30.14.866,task,2021.1.4,Win32,59.95203837,628b806c463b948bc644b84f,629af9aee8e7c623f9da2d12,,,,,,,,,,,,,,,,,,,,,,,,,,,,,,,,,,,,,,,,,,,,,,,,,,,,,,,,,,,,,,,,,,,,,,,,,,,,,,,,,,,,,,,,,,,,,,,,,,,,,,,
,,"[""comma""]",0,[0.48399999999998045],49,0,49,0,1,6071d42438f4fc44ff6b54c5,28,Mężczyzna,2022-06-04_08h30.14.866,task,2021.1.4,Win32,59.95203837,628b806c463b948bc644b84f,629af9aee8e7c623f9da2d12,,,,,,,,,,,,,,,,,,,,,,,,,,,,,,,,,,,,,,,,,,,,,,,,,,,,,,,,,,,,,,,,,,,,,,,,,,,,,,,,,,,,,,,,,,,,,,,,,,,,,,,
,,"[""period""]",0,[0.603999999999985],50,0,50,0,1,6071d42438f4fc44ff6b54c5,28,Mężczyzna,2022-06-04_08h30.14.866,task,2021.1.4,Win32,59.95203837,628b806c463b948bc644b84f,629af9aee8e7c623f9da2d12,,,,,,,,,,,,,,,,,,,,,,,,,,,,,,,,,,,,,,,,,,,,,,,,,,,,,,,,,,,,,,,,,,,,,,,,,,,,,,,,,,,,,,,,,,,,,,,,,,,,,,,
,,"[""period""]",0,[0.5649999999999977],51,0,51,0,1,6071d42438f4fc44ff6b54c5,28,Mężczyzna,2022-06-04_08h30.14.866,task,2021.1.4,Win32,59.95203837,628b806c463b948bc644b84f,629af9aee8e7c623f9da2d12,,,,,,,,,,,,,,,,,,,,,,,,,,,,,,,,,,,,,,,,,,,,,,,,,,,,,,,,,,,,,,,,,,,,,,,,,,,,,,,,,,,,,,,,,,,,,,,,,,,,,,,
,,,0,,52,0,52,0,1,6071d42438f4fc44ff6b54c5,28,Mężczyzna,2022-06-04_08h30.14.866,task,2021.1.4,Win32,59.95203837,628b806c463b948bc644b84f,629af9aee8e7c623f9da2d12,,,,,,,,,,,,,,,,,,,,,,,,,,,,,,,,,,,,,,,,,,,,,,,,,,,,,,,,,,,,,,,,,,,,,,,,,,,,,,,,,,,,,,,,,,,,,,,,,,,,,,,
,,"[""comma""]",0,[0.32200000000000273],53,0,53,0,1,6071d42438f4fc44ff6b54c5,28,Mężczyzna,2022-06-04_08h30.14.866,task,2021.1.4,Win32,59.95203837,628b806c463b948bc644b84f,629af9aee8e7c623f9da2d12,,,,,,,,,,,,,,,,,,,,,,,,,,,,,,,,,,,,,,,,,,,,,,,,,,,,,,,,,,,,,,,,,,,,,,,,,,,,,,,,,,,,,,,,,,,,,,,,,,,,,,,
,,"[""comma""]",0,[0.7109999999999559],54,0,54,0,1,6071d42438f4fc44ff6b54c5,28,Mężczyzna,2022-06-04_08h30.14.866,task,2021.1.4,Win32,59.95203837,628b806c463b948bc644b84f,629af9aee8e7c623f9da2d12,,,,,,,,,,,,,,,,,,,,,,,,,,,,,,,,,,,,,,,,,,,,,,,,,,,,,,,,,,,,,,,,,,,,,,,,,,,,,,,,,,,,,,,,,,,,,,,,,,,,,,,
,,"[""period""]",0,[0.6169999999999618],55,0,55,0,1,6071d42438f4fc44ff6b54c5,28,Mężczyzna,2022-06-04_08h30.14.866,task,2021.1.4,Win32,59.95203837,628b806c463b948bc644b84f,629af9aee8e7c623f9da2d12,,,,,,,,,,,,,,,,,,,,,,,,,,,,,,,,,,,,,,,,,,,,,,,,,,,,,,,,,,,,,,,,,,,,,,,,,,,,,,,,,,,,,,,,,,,,,,,,,,,,,,,
,,"[""comma""]",0,[0.5109999999999673],56,0,56,0,1,6071d42438f4fc44ff6b54c5,28,Mężczyzna,2022-06-04_08h30.14.866,task,2021.1.4,Win32,59.95203837,628b806c463b948bc644b84f,629af9aee8e7c623f9da2d12,,,,,,,,,,,,,,,,,,,,,,,,,,,,,,,,,,,,,,,,,,,,,,,,,,,,,,,,,,,,,,,,,,,,,,,,,,,,,,,,,,,,,,,,,,,,,,,,,,,,,,,
,,"[""period""]",0,[0.6389999999999532],57,0,57,0,1,6071d42438f4fc44ff6b54c5,28,Mężczyzna,2022-06-04_08h30.14.866,task,2021.1.4,Win32,59.95203837,628b806c463b948bc644b84f,629af9aee8e7c623f9da2d12,,,,,,,,,,,,,,,,,,,,,,,,,,,,,,,,,,,,,,,,,,,,,,,,,,,,,,,,,,,,,,,,,,,,,,,,,,,,,,,,,,,,,,,,,,,,,,,,,,,,,,,
,,"[""period""]",0,[0.7399999999999523],58,0,58,0,1,6071d42438f4fc44ff6b54c5,28,Mężczyzna,2022-06-04_08h30.14.866,task,2021.1.4,Win32,59.95203837,628b806c463b948bc644b84f,629af9aee8e7c623f9da2d12,,,,,,,,,,,,,,,,,,,,,,,,,,,,,,,,,,,,,,,,,,,,,,,,,,,,,,,,,,,,,,,,,,,,,,,,,,,,,,,,,,,,,,,,,,,,,,,,,,,,,,,
,,"[""comma""]",0,[0.6669999999999732],59,0,59,0,1,6071d42438f4fc44ff6b54c5,28,Mężczyzna,2022-06-04_08h30.14.866,task,2021.1.4,Win32,59.95203837,628b806c463b948bc644b84f,629af9aee8e7c623f9da2d12,,,,,,,,,,,,,,,,,,,,,,,,,,,,,,,,,,,,,,,,,,,,,,,,,,,,,,,,,,,,,,,,,,,,,,,,,,,,,,,,,,,,,,,,,,,,,,,,,,,,,,,
,,"[""comma""]",0,[0.6659999999999968],60,0,60,0,1,6071d42438f4fc44ff6b54c5,28,Mężczyzna,2022-06-04_08h30.14.866,task,2021.1.4,Win32,59.95203837,628b806c463b948bc644b84f,629af9aee8e7c623f9da2d12,,,,,,,,,,,,,,,,,,,,,,,,,,,,,,,,,,,,,,,,,,,,,,,,,,,,,,,,,,,,,,,,,,,,,,,,,,,,,,,,,,,,,,,,,,,,,,,,,,,,,,,
,,"[""period""]",0,[0.5169999999999959],61,0,61,0,1,6071d42438f4fc44ff6b54c5,28,Mężczyzna,2022-06-04_08h30.14.866,task,2021.1.4,Win32,59.95203837,628b806c463b948bc644b84f,629af9aee8e7c623f9da2d12,,,,,,,,,,,,,,,,,,,,,,,,,,,,,,,,,,,,,,,,,,,,,,,,,,,,,,,,,,,,,,,,,,,,,,,,,,,,,,,,,,,,,,,,,,,,,,,,,,,,,,,
,,,0,,62,0,62,0,1,6071d42438f4fc44ff6b54c5,28,Mężczyzna,2022-06-04_08h30.14.866,task,2021.1.4,Win32,59.95203837,628b806c463b948bc644b84f,629af9aee8e7c623f9da2d12,,,,,,,,,,,,,,,,,,,,,,,,,,,,,,,,,,,,,,,,,,,,,,,,,,,,,,,,,,,,,,,,,,,,,,,,,,,,,,,,,,,,,,,,,,,,,,,,,,,,,,,
,,"[""comma""]",0,[0.49500000000000455],63,0,63,0,1,6071d42438f4fc44ff6b54c5,28,Mężczyzna,2022-06-04_08h30.14.866,task,2021.1.4,Win32,59.95203837,628b806c463b948bc644b84f,629af9aee8e7c623f9da2d12,,,,,,,,,,,,,,,,,,,,,,,,,,,,,,,,,,,,,,,,,,,,,,,,,,,,,,,,,,,,,,,,,,,,,,,,,,,,,,,,,,,,,,,,,,,,,,,,,,,,,,,
,,"[""comma""]",0,[0.7460000000000377],64,0,64,0,1,6071d42438f4fc44ff6b54c5,28,Mężczyzna,2022-06-04_08h30.14.866,task,2021.1.4,Win32,59.95203837,628b806c463b948bc644b84f,629af9aee8e7c623f9da2d12,,,,,,,,,,,,,,,,,,,,,,,,,,,,,,,,,,,,,,,,,,,,,,,,,,,,,,,,,,,,,,,,,,,,,,,,,,,,,,,,,,,,,,,,,,,,,,,,,,,,,,,
,,"[""comma""]",0,[0.7509999999999764],65,0,65,0,1,6071d42438f4fc44ff6b54c5,28,Mężczyzna,2022-06-04_08h30.14.866,task,2021.1.4,Win32,59.95203837,628b806c463b948bc644b84f,629af9aee8e7c623f9da2d12,,,,,,,,,,,,,,,,,,,,,,,,,,,,,,,,,,,,,,,,,,,,,,,,,,,,,,,,,,,,,,,,,,,,,,,,,,,,,,,,,,,,,,,,,,,,,,,,,,,,,,,
,,"[""period""]",0,[0.5569999999999595],66,0,66,0,1,6071d42438f4fc44ff6b54c5,28,Mężczyzna,2022-06-04_08h30.14.866,task,2021.1.4,Win32,59.95203837,628b806c463b948bc644b84f,629af9aee8e7c623f9da2d12,,,,,,,,,,,,,,,,,,,,,,,,,,,,,,,,,,,,,,,,,,,,,,,,,,,,,,,,,,,,,,,,,,,,,,,,,,,,,,,,,,,,,,,,,,,,,,,,,,,,,,,
,,"[""period""]",0,[0.7169999999999845],67,0,67,0,1,6071d42438f4fc44ff6b54c5,28,Mężczyzna,2022-06-04_08h30.14.866,task,2021.1.4,Win32,59.95203837,628b806c463b948bc644b84f,629af9aee8e7c623f9da2d12,,,,,,,,,,,,,,,,,,,,,,,,,,,,,,,,,,,,,,,,,,,,,,,,,,,,,,,,,,,,,,,,,,,,,,,,,,,,,,,,,,,,,,,,,,,,,,,,,,,,,,,
,,"[""period""]",0,[0.7830000000000155],68,0,68,0,1,6071d42438f4fc44ff6b54c5,28,Mężczyzna,2022-06-04_08h30.14.866,task,2021.1.4,Win32,59.95203837,628b806c463b948bc644b84f,629af9aee8e7c623f9da2d12,,,,,,,,,,,,,,,,,,,,,,,,,,,,,,,,,,,,,,,,,,,,,,,,,,,,,,,,,,,,,,,,,,,,,,,,,,,,,,,,,,,,,,,,,,,,,,,,,,,,,,,
,,"[""comma""]",0,[0.5659999999999741],69,0,69,0,1,6071d42438f4fc44ff6b54c5,28,Mężczyzna,2022-06-04_08h30.14.866,task,2021.1.4,Win32,59.95203837,628b806c463b948bc644b84f,629af9aee8e7c623f9da2d12,,,,,,,,,,,,,,,,,,,,,,,,,,,,,,,,,,,,,,,,,,,,,,,,,,,,,,,,,,,,,,,,,,,,,,,,,,,,,,,,,,,,,,,,,,,,,,,,,,,,,,,
,,"[""period""]",0,[0.5509999999999877],70,0,70,0,1,6071d42438f4fc44ff6b54c5,28,Mężczyzna,2022-06-04_08h30.14.866,task,2021.1.4,Win32,59.95203837,628b806c463b948bc644b84f,629af9aee8e7c623f9da2d12,,,,,,,,,,,,,,,,,,,,,,,,,,,,,,,,,,,,,,,,,,,,,,,,,,,,,,,,,,,,,,,,,,,,,,,,,,,,,,,,,,,,,,,,,,,,,,,,,,,,,,,
,,"[""period""]",0,[0.5339999999999918],71,0,71,0,1,6071d42438f4fc44ff6b54c5,28,Mężczyzna,2022-06-04_08h30.14.866,task,2021.1.4,Win32,59.95203837,628b806c463b948bc644b84f,629af9aee8e7c623f9da2d12,,,,,,,,,,,,,,,,,,,,,,,,,,,,,,,,,,,,,,,,,,,,,,,,,,,,,,,,,,,,,,,,,,,,,,,,,,,,,,,,,,,,,,,,,,,,,,,,,,,,,,,
,,"[""comma""]",0,[0.5029999999999859],72,0,72,0,1,6071d42438f4fc44ff6b54c5,28,Mężczyzna,2022-06-04_08h30.14.866,task,2021.1.4,Win32,59.95203837,628b806c463b948bc644b84f,629af9aee8e7c623f9da2d12,,,,,,,,,,,,,,,,,,,,,,,,,,,,,,,,,,,,,,,,,,,,,,,,,,,,,,,,,,,,,,,,,,,,,,,,,,,,,,,,,,,,,,,,,,,,,,,,,,,,,,,
,,"[""period""]",0,[0.41299999999995407],73,0,73,0,1,6071d42438f4fc44ff6b54c5,28,Mężczyzna,2022-06-04_08h30.14.866,task,2021.1.4,Win32,59.95203837,628b806c463b948bc644b84f,629af9aee8e7c623f9da2d12,,,,,,,,,,,,,,,,,,,,,,,,,,,,,,,,,,,,,,,,,,,,,,,,,,,,,,,,,,,,,,,,,,,,,,,,,,,,,,,,,,,,,,,,,,,,,,,,,,,,,,,
,,"[""comma""]",0,[0.6140000000000327],74,0,74,0,1,6071d42438f4fc44ff6b54c5,28,Mężczyzna,2022-06-04_08h30.14.866,task,2021.1.4,Win32,59.95203837,628b806c463b948bc644b84f,629af9aee8e7c623f9da2d12,,,,,,,,,,,,,,,,,,,,,,,,,,,,,,,,,,,,,,,,,,,,,,,,,,,,,,,,,,,,,,,,,,,,,,,,,,,,,,,,,,,,,,,,,,,,,,,,,,,,,,,
,,"[""period""]",0,[0.44599999999996953],75,0,75,0,1,6071d42438f4fc44ff6b54c5,28,Mężczyzna,2022-06-04_08h30.14.866,task,2021.1.4,Win32,59.95203837,628b806c463b948bc644b84f,629af9aee8e7c623f9da2d12,,,,,,,,,,,,,,,,,,,,,,,,,,,,,,,,,,,,,,,,,,,,,,,,,,,,,,,,,,,,,,,,,,,,,,,,,,,,,,,,,,,,,,,,,,,,,,,,,,,,,,,
,,"[""comma""]",0,[0.6309999999999718],76,0,76,0,1,6071d42438f4fc44ff6b54c5,28,Mężczyzna,2022-06-04_08h30.14.866,task,2021.1.4,Win32,59.95203837,628b806c463b948bc644b84f,629af9aee8e7c623f9da2d12,,,,,,,,,,,,,,,,,,,,,,,,,,,,,,,,,,,,,,,,,,,,,,,,,,,,,,,,,,,,,,,,,,,,,,,,,,,,,,,,,,,,,,,,,,,,,,,,,,,,,,,
,,"[""comma""]",0,[0.49399999999997135],77,0,77,0,1,6071d42438f4fc44ff6b54c5,28,Mężczyzna,2022-06-04_08h30.14.866,task,2021.1.4,Win32,59.95203837,628b806c463b948bc644b84f,629af9aee8e7c623f9da2d12,,,,,,,,,,,,,,,,,,,,,,,,,,,,,,,,,,,,,,,,,,,,,,,,,,,,,,,,,,,,,,,,,,,,,,,,,,,,,,,,,,,,,,,,,,,,,,,,,,,,,,,
,,"[""comma""]",0,[0.46699999999998454],78,0,78,0,1,6071d42438f4fc44ff6b54c5,28,Mężczyzna,2022-06-04_08h30.14.866,task,2021.1.4,Win32,59.95203837,628b806c463b948bc644b84f,629af9aee8e7c623f9da2d12,,,,,,,,,,,,,,,,,,,,,,,,,,,,,,,,,,,,,,,,,,,,,,,,,,,,,,,,,,,,,,,,,,,,,,,,,,,,,,,,,,,,,,,,,,,,,,,,,,,,,,,
,,"[""period""]",0,[0.6289999999999623],79,0,79,0,1,6071d42438f4fc44ff6b54c5,28,Mężczyzna,2022-06-04_08h30.14.866,task,2021.1.4,Win32,59.95203837,628b806c463b948bc644b84f,629af9aee8e7c623f9da2d12,,,,,,,,,,,,,,,,,,,,,,,,,,,,,,,,,,,,,,,,,,,,,,,,,,,,,,,,,,,,,,,,,,,,,,,,,,,,,,,,,,,,,,,,,,,,,,,,,,,,,,,
,,"[""period""]",0,[0.5960000000000036],80,0,80,0,1,6071d42438f4fc44ff6b54c5,28,Mężczyzna,2022-06-04_08h30.14.866,task,2021.1.4,Win32,59.95203837,628b806c463b948bc644b84f,629af9aee8e7c623f9da2d12,,,,,,,,,,,,,,,,,,,,,,,,,,,,,,,,,,,,,,,,,,,,,,,,,,,,,,,,,,,,,,,,,,,,,,,,,,,,,,,,,,,,,,,,,,,,,,,,,,,,,,,
,,"[""period""]",0,[0.8249999999999886],81,0,81,0,1,6071d42438f4fc44ff6b54c5,28,Mężczyzna,2022-06-04_08h30.14.866,task,2021.1.4,Win32,59.95203837,628b806c463b948bc644b84f,629af9aee8e7c623f9da2d12,,,,,,,,,,,,,,,,,,,,,,,,,,,,,,,,,,,,,,,,,,,,,,,,,,,,,,,,,,,,,,,,,,,,,,,,,,,,,,,,,,,,,,,,,,,,,,,,,,,,,,,
,,"[""comma""]",0,[0.49500000000000455],82,0,82,0,1,6071d42438f4fc44ff6b54c5,28,Mężczyzna,2022-06-04_08h30.14.866,task,2021.1.4,Win32,59.95203837,628b806c463b948bc644b84f,629af9aee8e7c623f9da2d12,,,,,,,,,,,,,,,,,,,,,,,,,,,,,,,,,,,,,,,,,,,,,,,,,,,,,,,,,,,,,,,,,,,,,,,,,,,,,,,,,,,,,,,,,,,,,,,,,,,,,,,
,,"[""period""]",0,[0.646000000000015],83,0,83,0,1,6071d42438f4fc44ff6b54c5,28,Mężczyzna,2022-06-04_08h30.14.866,task,2021.1.4,Win32,59.95203837,628b806c463b948bc644b84f,629af9aee8e7c623f9da2d12,,,,,,,,,,,,,,,,,,,,,,,,,,,,,,,,,,,,,,,,,,,,,,,,,,,,,,,,,,,,,,,,,,,,,,,,,,,,,,,,,,,,,,,,,,,,,,,,,,,,,,,
,,,0,,84,0,84,0,1,6071d42438f4fc44ff6b54c5,28,Mężczyzna,2022-06-04_08h30.14.866,task,2021.1.4,Win32,59.95203837,628b806c463b948bc644b84f,629af9aee8e7c623f9da2d12,,,,,,,,,,,,,,,,,,,,,,,,,,,,,,,,,,,,,,,,,,,,,,,,,,,,,,,,,,,,,,,,,,,,,,,,,,,,,,,,,,,,,,,,,,,,,,,,,,,,,,,
,,"[""comma""]",0,[0.36100000000004684],85,0,85,0,1,6071d42438f4fc44ff6b54c5,28,Mężczyzna,2022-06-04_08h30.14.866,task,2021.1.4,Win32,59.95203837,628b806c463b948bc644b84f,629af9aee8e7c623f9da2d12,,,,,,,,,,,,,,,,,,,,,,,,,,,,,,,,,,,,,,,,,,,,,,,,,,,,,,,,,,,,,,,,,,,,,,,,,,,,,,,,,,,,,,,,,,,,,,,,,,,,,,,
,,"[""comma""]",0,[0.42500000000001137],86,0,86,0,1,6071d42438f4fc44ff6b54c5,28,Mężczyzna,2022-06-04_08h30.14.866,task,2021.1.4,Win32,59.95203837,628b806c463b948bc644b84f,629af9aee8e7c623f9da2d12,,,,,,,,,,,,,,,,,,,,,,,,,,,,,,,,,,,,,,,,,,,,,,,,,,,,,,,,,,,,,,,,,,,,,,,,,,,,,,,,,,,,,,,,,,,,,,,,,,,,,,,
,,"[""period""]",0,[0.35300000000000864],87,0,87,0,1,6071d42438f4fc44ff6b54c5,28,Mężczyzna,2022-06-04_08h30.14.866,task,2021.1.4,Win32,59.95203837,628b806c463b948bc644b84f,629af9aee8e7c623f9da2d12,,,,,,,,,,,,,,,,,,,,,,,,,,,,,,,,,,,,,,,,,,,,,,,,,,,,,,,,,,,,,,,,,,,,,,,,,,,,,,,,,,,,,,,,,,,,,,,,,,,,,,,
,,"[""period""]",0,[0.45100000000002183],88,0,88,0,1,6071d42438f4fc44ff6b54c5,28,Mężczyzna,2022-06-04_08h30.14.866,task,2021.1.4,Win32,59.95203837,628b806c463b948bc644b84f,629af9aee8e7c623f9da2d12,,,,,,,,,,,,,,,,,,,,,,,,,,,,,,,,,,,,,,,,,,,,,,,,,,,,,,,,,,,,,,,,,,,,,,,,,,,,,,,,,,,,,,,,,,,,,,,,,,,,,,,
,,"[""period""]",0,[0.3199999999999932],89,0,89,0,1,6071d42438f4fc44ff6b54c5,28,Mężczyzna,2022-06-04_08h30.14.866,task,2021.1.4,Win32,59.95203837,628b806c463b948bc644b84f,629af9aee8e7c623f9da2d12,,,,,,,,,,,,,,,,,,,,,,,,,,,,,,,,,,,,,,,,,,,,,,,,,,,,,,,,,,,,,,,,,,,,,,,,,,,,,,,,,,,,,,,,,,,,,,,,,,,,,,,
,,"[""comma""]",0,[0.40800000000001546],90,0,90,0,1,6071d42438f4fc44ff6b54c5,28,Mężczyzna,2022-06-04_08h30.14.866,task,2021.1.4,Win32,59.95203837,628b806c463b948bc644b84f,629af9aee8e7c623f9da2d12,,,,,,,,,,,,,,,,,,,,,,,,,,,,,,,,,,,,,,,,,,,,,,,,,,,,,,,,,,,,,,,,,,,,,,,,,,,,,,,,,,,,,,,,,,,,,,,,,,,,,,,
,,"[""comma""]",0,[0.6750000000000114],91,0,91,0,1,6071d42438f4fc44ff6b54c5,28,Mężczyzna,2022-06-04_08h30.14.866,task,2021.1.4,Win32,59.95203837,628b806c463b948bc644b84f,629af9aee8e7c623f9da2d12,,,,,,,,,,,,,,,,,,,,,,,,,,,,,,,,,,,,,,,,,,,,,,,,,,,,,,,,,,,,,,,,,,,,,,,,,,,,,,,,,,,,,,,,,,,,,,,,,,,,,,,
,,"[""period""]",0,[0.8540000000000418],92,0,92,0,1,6071d42438f4fc44ff6b54c5,28,Mężczyzna,2022-06-04_08h30.14.866,task,2021.1.4,Win32,59.95203837,628b806c463b948bc644b84f,629af9aee8e7c623f9da2d12,,,,,,,,,,,,,,,,,,,,,,,,,,,,,,,,,,,,,,,,,,,,,,,,,,,,,,,,,,,,,,,,,,,,,,,,,,,,,,,,,,,,,,,,,,,,,,,,,,,,,,,
,,,0,,93,0,93,0,1,6071d42438f4fc44ff6b54c5,28,Mężczyzna,2022-06-04_08h30.14.866,task,2021.1.4,Win32,59.95203837,628b806c463b948bc644b84f,629af9aee8e7c623f9da2d12,,,,,,,,,,,,,,,,,,,,,,,,,,,,,,,,,,,,,,,,,,,,,,,,,,,,,,,,,,,,,,,,,,,,,,,,,,,,,,,,,,,,,,,,,,,,,,,,,,,,,,,
,,"[""period""]",0,[0.7360000000000468],94,0,94,0,1,6071d42438f4fc44ff6b54c5,28,Mężczyzna,2022-06-04_08h30.14.866,task,2021.1.4,Win32,59.95203837,628b806c463b948bc644b84f,629af9aee8e7c623f9da2d12,,,,,,,,,,,,,,,,,,,,,,,,,,,,,,,,,,,,,,,,,,,,,,,,,,,,,,,,,,,,,,,,,,,,,,,,,,,,,,,,,,,,,,,,,,,,,,,,,,,,,,,
,,"[""comma""]",0,[0.9390000000000214],95,0,95,0,1,6071d42438f4fc44ff6b54c5,28,Mężczyzna,2022-06-04_08h30.14.866,task,2021.1.4,Win32,59.95203837,628b806c463b948bc644b84f,629af9aee8e7c623f9da2d12,,,,,,,,,,,,,,,,,,,,,,,,,,,,,,,,,,,,,,,,,,,,,,,,,,,,,,,,,,,,,,,,,,,,,,,,,,,,,,,,,,,,,,,,,,,,,,,,,,,,,,,
,,"[""period""]",0,[0.4730000000000132],96,0,96,0,1,6071d42438f4fc44ff6b54c5,28,Mężczyzna,2022-06-04_08h30.14.866,task,2021.1.4,Win32,59.95203837,628b806c463b948bc644b84f,629af9aee8e7c623f9da2d12,,,,,,,,,,,,,,,,,,,,,,,,,,,,,,,,,,,,,,,,,,,,,,,,,,,,,,,,,,,,,,,,,,,,,,,,,,,,,,,,,,,,,,,,,,,,,,,,,,,,,,,
,,"[""comma""]",0,[0.46100000000001273],97,0,97,0,1,6071d42438f4fc44ff6b54c5,28,Mężczyzna,2022-06-04_08h30.14.866,task,2021.1.4,Win32,59.95203837,628b806c463b948bc644b84f,629af9aee8e7c623f9da2d12,,,,,,,,,,,,,,,,,,,,,,,,,,,,,,,,,,,,,,,,,,,,,,,,,,,,,,,,,,,,,,,,,,,,,,,,,,,,,,,,,,,,,,,,,,,,,,,,,,,,,,,
,,"[""period""]",0,[0.48399999999998045],98,0,98,0,1,6071d42438f4fc44ff6b54c5,28,Mężczyzna,2022-06-04_08h30.14.866,task,2021.1.4,Win32,59.95203837,628b806c463b948bc644b84f,629af9aee8e7c623f9da2d12,,,,,,,,,,,,,,,,,,,,,,,,,,,,,,,,,,,,,,,,,,,,,,,,,,,,,,,,,,,,,,,,,,,,,,,,,,,,,,,,,,,,,,,,,,,,,,,,,,,,,,,
,,"[""period""]",0,[0.5790000000000077],99,0,99,0,1,6071d42438f4fc44ff6b54c5,28,Mężczyzna,2022-06-04_08h30.14.866,task,2021.1.4,Win32,59.95203837,628b806c463b948bc644b84f,629af9aee8e7c623f9da2d12,,,,,,,,,,,,,,,,,,,,,,,,,,,,,,,,,,,,,,,,,,,,,,,,,,,,,,,,,,,,,,,,,,,,,,,,,,,,,,,,,,,,,,,,,,,,,,,,,,,,,,,
,,"[""comma""]",0,[0.382000000000005],100,0,100,0,1,6071d42438f4fc44ff6b54c5,28,Mężczyzna,2022-06-04_08h30.14.866,task,2021.1.4,Win32,59.95203837,628b806c463b948bc644b84f,629af9aee8e7c623f9da2d12,,,,,,,,,,,,,,,,,,,,,,,,,,,,,,,,,,,,,,,,,,,,,,,,,,,,,,,,,,,,,,,,,,,,,,,,,,,,,,,,,,,,,,,,,,,,,,,,,,,,,,,
,,"[""comma""]",0,[0.4199999999999591],101,0,101,0,1,6071d42438f4fc44ff6b54c5,28,Mężczyzna,2022-06-04_08h30.14.866,task,2021.1.4,Win32,59.95203837,628b806c463b948bc644b84f,629af9aee8e7c623f9da2d12,,,,,,,,,,,,,,,,,,,,,,,,,,,,,,,,,,,,,,,,,,,,,,,,,,,,,,,,,,,,,,,,,,,,,,,,,,,,,,,,,,,,,,,,,,,,,,,,,,,,,,,
,,"[""period""]",0,[0.31500000000005457],102,0,102,0,1,6071d42438f4fc44ff6b54c5,28,Mężczyzna,2022-06-04_08h30.14.866,task,2021.1.4,Win32,59.95203837,628b806c463b948bc644b84f,629af9aee8e7c623f9da2d12,,,,,,,,,,,,,,,,,,,,,,,,,,,,,,,,,,,,,,,,,,,,,,,,,,,,,,,,,,,,,,,,,,,,,,,,,,,,,,,,,,,,,,,,,,,,,,,,,,,,,,,
,,"[""period""]",0,[0.30100000000004457],103,0,103,0,1,6071d42438f4fc44ff6b54c5,28,Mężczyzna,2022-06-04_08h30.14.866,task,2021.1.4,Win32,59.95203837,628b806c463b948bc644b84f,629af9aee8e7c623f9da2d12,,,,,,,,,,,,,,,,,,,,,,,,,,,,,,,,,,,,,,,,,,,,,,,,,,,,,,,,,,,,,,,,,,,,,,,,,,,,,,,,,,,,,,,,,,,,,,,,,,,,,,,
,,"[""comma""]",0,[0.35199999999997544],104,0,104,0,1,6071d42438f4fc44ff6b54c5,28,Mężczyzna,2022-06-04_08h30.14.866,task,2021.1.4,Win32,59.95203837,628b806c463b948bc644b84f,629af9aee8e7c623f9da2d12,,,,,,,,,,,,,,,,,,,,,,,,,,,,,,,,,,,,,,,,,,,,,,,,,,,,,,,,,,,,,,,,,,,,,,,,,,,,,,,,,,,,,,,,,,,,,,,,,,,,,,,
,,"[""period""]",0,[0.21600000000000819],105,0,105,0,1,6071d42438f4fc44ff6b54c5,28,Mężczyzna,2022-06-04_08h30.14.866,task,2021.1.4,Win32,59.95203837,628b806c463b948bc644b84f,629af9aee8e7c623f9da2d12,,,,,,,,,,,,,,,,,,,,,,,,,,,,,,,,,,,,,,,,,,,,,,,,,,,,,,,,,,,,,,,,,,,,,,,,,,,,,,,,,,,,,,,,,,,,,,,,,,,,,,,
,,"[""comma""]",0,[0.6150000000000091],106,0,106,0,1,6071d42438f4fc44ff6b54c5,28,Mężczyzna,2022-06-04_08h30.14.866,task,2021.1.4,Win32,59.95203837,628b806c463b948bc644b84f,629af9aee8e7c623f9da2d12,,,,,,,,,,,,,,,,,,,,,,,,,,,,,,,,,,,,,,,,,,,,,,,,,,,,,,,,,,,,,,,,,,,,,,,,,,,,,,,,,,,,,,,,,,,,,,,,,,,,,,,
,,"[""comma""]",0,[0.6610000000000582],107,0,107,0,1,6071d42438f4fc44ff6b54c5,28,Mężczyzna,2022-06-04_08h30.14.866,task,2021.1.4,Win32,59.95203837,628b806c463b948bc644b84f,629af9aee8e7c623f9da2d12,,,,,,,,,,,,,,,,,,,,,,,,,,,,,,,,,,,,,,,,,,,,,,,,,,,,,,,,,,,,,,,,,,,,,,,,,,,,,,,,,,,,,,,,,,,,,,,,,,,,,,,
,,"[""period""]",0,[0.4329999999999927],108,0,108,0,1,6071d42438f4fc44ff6b54c5,28,Mężczyzna,2022-06-04_08h30.14.866,task,2021.1.4,Win32,59.95203837,628b806c463b948bc644b84f,629af9aee8e7c623f9da2d12,,,,,,,,,,,,,,,,,,,,,,,,,,,,,,,,,,,,,,,,,,,,,,,,,,,,,,,,,,,,,,,,,,,,,,,,,,,,,,,,,,,,,,,,,,,,,,,,,,,,,,,
,,"[""period""]",0,[0.41200000000003456],109,0,109,0,1,6071d42438f4fc44ff6b54c5,28,Mężczyzna,2022-06-04_08h30.14.866,task,2021.1.4,Win32,59.95203837,628b806c463b948bc644b84f,629af9aee8e7c623f9da2d12,,,,,,,,,,,,,,,,,,,,,,,,,,,,,,,,,,,,,,,,,,,,,,,,,,,,,,,,,,,,,,,,,,,,,,,,,,,,,,,,,,,,,,,,,,,,,,,,,,,,,,,
,,"[""period""]",0,[0.7029999999999745],110,0,110,0,1,6071d42438f4fc44ff6b54c5,28,Mężczyzna,2022-06-04_08h30.14.866,task,2021.1.4,Win32,59.95203837,628b806c463b948bc644b84f,629af9aee8e7c623f9da2d12,,,,,,,,,,,,,,,,,,,,,,,,,,,,,,,,,,,,,,,,,,,,,,,,,,,,,,,,,,,,,,,,,,,,,,,,,,,,,,,,,,,,,,,,,,,,,,,,,,,,,,,
,,"[""period""]",0,[0.7630000000000337],111,0,111,0,1,6071d42438f4fc44ff6b54c5,28,Mężczyzna,2022-06-04_08h30.14.866,task,2021.1.4,Win32,59.95203837,628b806c463b948bc644b84f,629af9aee8e7c623f9da2d12,,,,,,,,,,,,,,,,,,,,,,,,,,,,,,,,,,,,,,,,,,,,,,,,,,,,,,,,,,,,,,,,,,,,,,,,,,,,,,,,,,,,,,,,,,,,,,,,,,,,,,,
,,"[""comma""]",0,[0.5270000000000437],112,0,112,0,1,6071d42438f4fc44ff6b54c5,28,Mężczyzna,2022-06-04_08h30.14.866,task,2021.1.4,Win32,59.95203837,628b806c463b948bc644b84f,629af9aee8e7c623f9da2d12,,,,,,,,,,,,,,,,,,,,,,,,,,,,,,,,,,,,,,,,,,,,,,,,,,,,,,,,,,,,,,,,,,,,,,,,,,,,,,,,,,,,,,,,,,,,,,,,,,,,,,,
,,"[""comma""]",0,[0.4189999999999827],113,0,113,0,1,6071d42438f4fc44ff6b54c5,28,Mężczyzna,2022-06-04_08h30.14.866,task,2021.1.4,Win32,59.95203837,628b806c463b948bc644b84f,629af9aee8e7c623f9da2d12,,,,,,,,,,,,,,,,,,,,,,,,,,,,,,,,,,,,,,,,,,,,,,,,,,,,,,,,,,,,,,,,,,,,,,,,,,,,,,,,,,,,,,,,,,,,,,,,,,,,,,,
,,"[""comma""]",0,[0.5729999999999791],114,0,114,0,1,6071d42438f4fc44ff6b54c5,28,Mężczyzna,2022-06-04_08h30.14.866,task,2021.1.4,Win32,59.95203837,628b806c463b948bc644b84f,629af9aee8e7c623f9da2d12,,,,,,,,,,,,,,,,,,,,,,,,,,,,,,,,,,,,,,,,,,,,,,,,,,,,,,,,,,,,,,,,,,,,,,,,,,,,,,,,,,,,,,,,,,,,,,,,,,,,,,,
,,"[""period""]",0,[0.7010000000000218],115,0,115,0,1,6071d42438f4fc44ff6b54c5,28,Mężczyzna,2022-06-04_08h30.14.866,task,2021.1.4,Win32,59.95203837,628b806c463b948bc644b84f,629af9aee8e7c623f9da2d12,,,,,,,,,,,,,,,,,,,,,,,,,,,,,,,,,,,,,,,,,,,,,,,,,,,,,,,,,,,,,,,,,,,,,,,,,,,,,,,,,,,,,,,,,,,,,,,,,,,,,,,
,,"[""comma""]",0,[0.6710000000000491],116,0,116,0,1,6071d42438f4fc44ff6b54c5,28,Mężczyzna,2022-06-04_08h30.14.866,task,2021.1.4,Win32,59.95203837,628b806c463b948bc644b84f,629af9aee8e7c623f9da2d12,,,,,,,,,,,,,,,,,,,,,,,,,,,,,,,,,,,,,,,,,,,,,,,,,,,,,,,,,,,,,,,,,,,,,,,,,,,,,,,,,,,,,,,,,,,,,,,,,,,,,,,
,,"[""comma""]",0,[0.41600000000005366],117,0,117,0,1,6071d42438f4fc44ff6b54c5,28,Mężczyzna,2022-06-04_08h30.14.866,task,2021.1.4,Win32,59.95203837,628b806c463b948bc644b84f,629af9aee8e7c623f9da2d12,,,,,,,,,,,,,,,,,,,,,,,,,,,,,,,,,,,,,,,,,,,,,,,,,,,,,,,,,,,,,,,,,,,,,,,,,,,,,,,,,,,,,,,,,,,,,,,,,,,,,,,
,,"[""comma""]",0,[0.18100000000004002],118,0,118,0,1,6071d42438f4fc44ff6b54c5,28,Mężczyzna,2022-06-04_08h30.14.866,task,2021.1.4,Win32,59.95203837,628b806c463b948bc644b84f,629af9aee8e7c623f9da2d12,,,,,,,,,,,,,,,,,,,,,,,,,,,,,,,,,,,,,,,,,,,,,,,,,,,,,,,,,,,,,,,,,,,,,,,,,,,,,,,,,,,,,,,,,,,,,,,,,,,,,,,
,,"[""period""]",0,[0.3690000000000282],119,0,119,0,1,6071d42438f4fc44ff6b54c5,28,Mężczyzna,2022-06-04_08h30.14.866,task,2021.1.4,Win32,59.95203837,628b806c463b948bc644b84f,629af9aee8e7c623f9da2d12,,,,,,,,,,,,,,,,,,,,,,,,,,,,,,,,,,,,,,,,,,,,,,,,,,,,,,,,,,,,,,,,,,,,,,,,,,,,,,,,,,,,,,,,,,,,,,,,,,,,,,,
,,,,,,,,,,6071d42438f4fc44ff6b54c5,28,Mężczyzna,2022-06-04_08h30.14.866,task,2021.1.4,Win32,59.95203837,628b806c463b948bc644b84f,629af9aee8e7c623f9da2d12,space,110.331,space,155.265,0,0,0,0,1,X V Q F H G B L J M P D K C T S W R N Z,,,,,,,,,,,,,,,,,,,,,,,,,,,,,,,,,,,,,,,,,,,,,,,,,,,,,,,,,,,,,,,,,,,,,,,,,,,,,,,,,,,,,,,,,,,,,
,,,,,,,,,,6071d42438f4fc44ff6b54c5,28,Mężczyzna,2022-06-04_08h30.14.866,task,2021.1.4,Win32,59.95203837,628b806c463b948bc644b84f,629af9aee8e7c623f9da2d12,,,,,1,0,1,0,1,X V Q F H G B L J M P D K C T S W R N Z,,,,,,,,,,,,,,,,,,,,,,,,,,,,,,,,,,,,,,,,,,,,,,,,,,,,,,,,,,,,,,,,,,,,,,,,,,,,,,,,,,,,,,,,,,,,,
,,,,,,,,,,6071d42438f4fc44ff6b54c5,28,Mężczyzna,2022-06-04_08h30.14.866,task,2021.1.4,Win32,59.95203837,628b806c463b948bc644b84f,629af9aee8e7c623f9da2d12,,,,,,,,,,,zd,"[""z"",""d""]","[1.344000000000051,1.7590000000000146,5.119000000000028]",1,ZD,0,0,0,0,1,,,,,,,,,,,,,,,,,,,,,,,,,,,,,,,,,,,,,,,,,,,,,,,,,,,,,,,,,,,,,,,,,,,,,,,,,,,,,,,,,,,
,,,,,,,,,,6071d42438f4fc44ff6b54c5,28,Mężczyzna,2022-06-04_08h30.14.866,task,2021.1.4,Win32,59.95203837,628b806c463b948bc644b84f,629af9aee8e7c623f9da2d12,,,,,0,0,0,0,1,X V Q F H G B L J M P D K C T S W R N Z,,,,,,,,,,,,,,,,,,,,,,,,,,,,,,,,,,,,,,,,,,,,,,,,,,,,,,,,,,,,,,,,,,,,,,,,,,,,,,,,,,,,,,,,,,,,,
,,,,,,,,,,6071d42438f4fc44ff6b54c5,28,Mężczyzna,2022-06-04_08h30.14.866,task,2021.1.4,Win32,59.95203837,628b806c463b948bc644b84f,629af9aee8e7c623f9da2d12,,,,,1,0,1,0,1,X V Q F H G B L J M P D K C T S W R N Z,,,,,,,,,,,,,,,,,,,,,,,,,,,,,,,,,,,,,,,,,,,,,,,,,,,,,,,,,,,,,,,,,,,,,,,,,,,,,,,,,,,,,,,,,,,,,
,,,,,,,,,,6071d42438f4fc44ff6b54c5,28,Mężczyzna,2022-06-04_08h30.14.866,task,2021.1.4,Win32,59.95203837,628b806c463b948bc644b84f,629af9aee8e7c623f9da2d12,,,,,,,,,,,nb,"[""n"",""b""]","[1.615000000000009,2.0149999999999864,3.5]",1,NB,1,0,1,0,1,,,,,,,,,,,,,,,,,,,,,,,,,,,,,,,,,,,,,,,,,,,,,,,,,,,,,,,,,,,,,,,,,,,,,,,,,,,,,,,,,,,
,,,,,,,,,,6071d42438f4fc44ff6b54c5,28,Mężczyzna,2022-06-04_08h30.14.866,task,2021.1.4,Win32,59.95203837,628b806c463b948bc644b84f,629af9aee8e7c623f9da2d12,,,,,0,0,0,0,1,X V Q F H G B L J M P D K C T S W R N Z,,,,,,,,,,,,,,,,,,,,,,,,,,,,,,,,,,,,,,,,,,,,,,,,,,,,,,,,,,,,,,,,,,,,,,,,,,,,,,,,,,,,,,,,,,,,,
,,,,,,,,,,6071d42438f4fc44ff6b54c5,28,Mężczyzna,2022-06-04_08h30.14.866,task,2021.1.4,Win32,59.95203837,628b806c463b948bc644b84f,629af9aee8e7c623f9da2d12,,,,,1,0,1,0,1,X V Q F H G B L J M P D K C T S W R N Z,,,,,,,,,,,,,,,,,,,,,,,,,,,,,,,,,,,,,,,,,,,,,,,,,,,,,,,,,,,,,,,,,,,,,,,,,,,,,,,,,,,,,,,,,,,,,
,,,,,,,,,,6071d42438f4fc44ff6b54c5,28,Mężczyzna,2022-06-04_08h30.14.866,task,2021.1.4,Win32,59.95203837,628b806c463b948bc644b84f,629af9aee8e7c623f9da2d12,,,,,2,0,2,0,1,X V Q F H G B L J M P D K C T S W R N Z,,,,,,,,,,,,,,,,,,,,,,,,,,,,,,,,,,,,,,,,,,,,,,,,,,,,,,,,,,,,,,,,,,,,,,,,,,,,,,,,,,,,,,,,,,,,,
,,,,,,,,,,6071d42438f4fc44ff6b54c5,28,Mężczyzna,2022-06-04_08h30.14.866,task,2021.1.4,Win32,59.95203837,628b806c463b948bc644b84f,629af9aee8e7c623f9da2d12,,,,,,,,,,,pxt,"[""p"",""x"",""t""]","[0.9660000000000082,1.1159999999999854,1.38900000000001,1.941000000000031]",1,PXT,2,0,2,0,1,,,,,,,,,,,,,,,,,,,,,,,,,,,,,,,,,,,,,,,,,,,,,,,,,,,,,,,,,,,,,,,,,,,,,,,,,,,,,,,,,,,
,,,,,,,,,,6071d42438f4fc44ff6b54c5,28,Mężczyzna,2022-06-04_08h30.14.866,task,2021.1.4,Win32,59.95203837,628b806c463b948bc644b84f,629af9aee8e7c623f9da2d12,,,,,0,0,0,0,1,X V Q F H G B L J M P D K C T S W R N Z,,,,,,,,,,,,,,,,,,,,,,,,,,,,,,,,,,,,,,,,,,,,,,,,,,,,,,,,,,,,,,,,,,,,,,,,,,,,,,,,,,,,,,,,,,,,,
,,,,,,,,,,6071d42438f4fc44ff6b54c5,28,Mężczyzna,2022-06-04_08h30.14.866,task,2021.1.4,Win32,59.95203837,628b806c463b948bc644b84f,629af9aee8e7c623f9da2d12,,,,,1,0,1,0,1,X V Q F H G B L J M P D K C T S W R N Z,,,,,,,,,,,,,,,,,,,,,,,,,,,,,,,,,,,,,,,,,,,,,,,,,,,,,,,,,,,,,,,,,,,,,,,,,,,,,,,,,,,,,,,,,,,,,
,,,,,,,,,,6071d42438f4fc44ff6b54c5,28,Mężczyzna,2022-06-04_08h30.14.866,task,2021.1.4,Win32,59.95203837,628b806c463b948bc644b84f,629af9aee8e7c623f9da2d12,,,,,2,0,2,0,1,X V Q F H G B L J M P D K C T S W R N Z,,,,,,,,,,,,,,,,,,,,,,,,,,,,,,,,,,,,,,,,,,,,,,,,,,,,,,,,,,,,,,,,,,,,,,,,,,,,,,,,,,,,,,,,,,,,,
,,,,,,,,,,6071d42438f4fc44ff6b54c5,28,Mężczyzna,2022-06-04_08h30.14.866,task,2021.1.4,Win32,59.95203837,628b806c463b948bc644b84f,629af9aee8e7c623f9da2d12,,,,,,,,,,,tzl,"[""t"",""z"",""l""]","[0.9510000000000218,1.2570000000000618,2.344000000000051,18.230000000000018]",1,TZL,3,0,3,0,1,,,,,,,,,,,,,,,,,,,,,,,,,,,,,,,,,,,,,,,,,,,,,,,,,,,,,,,,,,,,,,,,,,,,,,,,,,,,,,,,,,,
,,,,,,,,,,6071d42438f4fc44ff6b54c5,28,Mężczyzna,2022-06-04_08h30.14.866,task,2021.1.4,Win32,59.95203837,628b806c463b948bc644b84f,629af9aee8e7c623f9da2d12,,,,,0,0,0,0,1,X V Q F H G B L J M P D K C T S W R N Z,,,,,,,,,,,,,,,,,,,,,,,,,,,,,,,,,,,,,,,,,,,,,,,,,,,,,,,,,,,,,,,,,,,,,,,,,,,,,,,,,,,,,,,,,,,,,
,,,,,,,,,,6071d42438f4fc44ff6b54c5,28,Mężczyzna,2022-06-04_08h30.14.866,task,2021.1.4,Win32,59.95203837,628b806c463b948bc644b84f,629af9aee8e7c623f9da2d12,,,,,1,0,1,0,1,X V Q F H G B L J M P D K C T S W R N Z,,,,,,,,,,,,,,,,,,,,,,,,,,,,,,,,,,,,,,,,,,,,,,,,,,,,,,,,,,,,,,,,,,,,,,,,,,,,,,,,,,,,,,,,,,,,,
,,,,,,,,,,6071d42438f4fc44ff6b54c5,28,Mężczyzna,2022-06-04_08h30.14.866,task,2021.1.4,Win32,59.95203837,628b806c463b948bc644b84f,629af9aee8e7c623f9da2d12,,,,,2,0,2,0,1,X V Q F H G B L J M P D K C T S W R N Z,,,,,,,,,,,,,,,,,,,,,,,,,,,,,,,,,,,,,,,,,,,,,,,,,,,,,,,,,,,,,,,,,,,,,,,,,,,,,,,,,,,,,,,,,,,,,
,,,,,,,,,,6071d42438f4fc44ff6b54c5,28,Mężczyzna,2022-06-04_08h30.14.866,task,2021.1.4,Win32,59.95203837,628b806c463b948bc644b84f,629af9aee8e7c623f9da2d12,,,,,3,0,3,0,1,X V Q F H G B L J M P D K C T S W R N Z,,,,,,,,,,,,,,,,,,,,,,,,,,,,,,,,,,,,,,,,,,,,,,,,,,,,,,,,,,,,,,,,,,,,,,,,,,,,,,,,,,,,,,,,,,,,,
,,,,,,,,,,6071d42438f4fc44ff6b54c5,28,Mężczyzna,2022-06-04_08h30.14.866,task,2021.1.4,Win32,59.95203837,628b806c463b948bc644b84f,629af9aee8e7c623f9da2d12,,,,,,,,,,,mtlj,"[""m"",""t"",""l"",""j""]","[0.6299999999999955,1.5020000000000664,1.6589999999999918,1.9180000000000064,2.2380000000000564]",1,MTLJ,4,0,4,0,1,,,,,,,,,,,,,,,,,,,,,,,,,,,,,,,,,,,,,,,,,,,,,,,,,,,,,,,,,,,,,,,,,,,,,,,,,,,,,,,,,,,
,,,,,,,,,,6071d42438f4fc44ff6b54c5,28,Mężczyzna,2022-06-04_08h30.14.866,task,2021.1.4,Win32,59.95203837,628b806c463b948bc644b84f,629af9aee8e7c623f9da2d12,,,,,0,0,0,0,1,X V Q F H G B L J M P D K C T S W R N Z,,,,,,,,,,,,,,,,,,,,,,,,,,,,,,,,,,,,,,,,,,,,,,,,,,,,,,,,,,,,,,,,,,,,,,,,,,,,,,,,,,,,,,,,,,,,,
,,,,,,,,,,6071d42438f4fc44ff6b54c5,28,Mężczyzna,2022-06-04_08h30.14.866,task,2021.1.4,Win32,59.95203837,628b806c463b948bc644b84f,629af9aee8e7c623f9da2d12,,,,,1,0,1,0,1,X V Q F H G B L J M P D K C T S W R N Z,,,,,,,,,,,,,,,,,,,,,,,,,,,,,,,,,,,,,,,,,,,,,,,,,,,,,,,,,,,,,,,,,,,,,,,,,,,,,,,,,,,,,,,,,,,,,
,,,,,,,,,,6071d42438f4fc44ff6b54c5,28,Mężczyzna,2022-06-04_08h30.14.866,task,2021.1.4,Win32,59.95203837,628b806c463b948bc644b84f,629af9aee8e7c623f9da2d12,,,,,2,0,2,0,1,X V Q F H G B L J M P D K C T S W R N Z,,,,,,,,,,,,,,,,,,,,,,,,,,,,,,,,,,,,,,,,,,,,,,,,,,,,,,,,,,,,,,,,,,,,,,,,,,,,,,,,,,,,,,,,,,,,,
,,,,,,,,,,6071d42438f4fc44ff6b54c5,28,Mężczyzna,2022-06-04_08h30.14.866,task,2021.1.4,Win32,59.95203837,628b806c463b948bc644b84f,629af9aee8e7c623f9da2d12,,,,,3,0,3,0,1,X V Q F H G B L J M P D K C T S W R N Z,,,,,,,,,,,,,,,,,,,,,,,,,,,,,,,,,,,,,,,,,,,,,,,,,,,,,,,,,,,,,,,,,,,,,,,,,,,,,,,,,,,,,,,,,,,,,
,,,,,,,,,,6071d42438f4fc44ff6b54c5,28,Mężczyzna,2022-06-04_08h30.14.866,task,2021.1.4,Win32,59.95203837,628b806c463b948bc644b84f,629af9aee8e7c623f9da2d12,,,,,,,,,,,xlss,"[""x"",""l"",""s"",""s""]","[0.46299999999996544,0.8120000000000118,1.1870000000000118,1.36099999999999,2.8740000000000236]",1,XLSS,5,0,5,0,1,,,,,,,,,,,,,,,,,,,,,,,,,,,,,,,,,,,,,,,,,,,,,,,,,,,,,,,,,,,,,,,,,,,,,,,,,,,,,,,,,,,
,,,,,,,,,,6071d42438f4fc44ff6b54c5,28,Mężczyzna,2022-06-04_08h30.14.866,task,2021.1.4,Win32,59.95203837,628b806c463b948bc644b84f,629af9aee8e7c623f9da2d12,,,,,0,0,0,0,1,X V Q F H G B L J M P D K C T S W R N Z,,,,,,,,,,,,,,,,,,,,,,,,,,,,,,,,,,,,,,,,,,,,,,,,,,,,,,,,,,,,,,,,,,,,,,,,,,,,,,,,,,,,,,,,,,,,,
,,,,,,,,,,6071d42438f4fc44ff6b54c5,28,Mężczyzna,2022-06-04_08h30.14.866,task,2021.1.4,Win32,59.95203837,628b806c463b948bc644b84f,629af9aee8e7c623f9da2d12,,,,,1,0,1,0,1,X V Q F H G B L J M P D K C T S W R N Z,,,,,,,,,,,,,,,,,,,,,,,,,,,,,,,,,,,,,,,,,,,,,,,,,,,,,,,,,,,,,,,,,,,,,,,,,,,,,,,,,,,,,,,,,,,,,
,,,,,,,,,,6071d42438f4fc44ff6b54c5,28,Mężczyzna,2022-06-04_08h30.14.866,task,2021.1.4,Win32,59.95203837,628b806c463b948bc644b84f,629af9aee8e7c623f9da2d12,,,,,2,0,2,0,1,X V Q F H G B L J M P D K C T S W R N Z,,,,,,,,,,,,,,,,,,,,,,,,,,,,,,,,,,,,,,,,,,,,,,,,,,,,,,,,,,,,,,,,,,,,,,,,,,,,,,,,,,,,,,,,,,,,,
,,,,,,,,,,6071d42438f4fc44ff6b54c5,28,Mężczyzna,2022-06-04_08h30.14.866,task,2021.1.4,Win32,59.95203837,628b806c463b948bc644b84f,629af9aee8e7c623f9da2d12,,,,,3,0,3,0,1,X V Q F H G B L J M P D K C T S W R N Z,,,,,,,,,,,,,,,,,,,,,,,,,,,,,,,,,,,,,,,,,,,,,,,,,,,,,,,,,,,,,,,,,,,,,,,,,,,,,,,,,,,,,,,,,,,,,
,,,,,,,,,,6071d42438f4fc44ff6b54c5,28,Mężczyzna,2022-06-04_08h30.14.866,task,2021.1.4,Win32,59.95203837,628b806c463b948bc644b84f,629af9aee8e7c623f9da2d12,,,,,4,0,4,0,1,X V Q F H G B L J M P D K C T S W R N Z,,,,,,,,,,,,,,,,,,,,,,,,,,,,,,,,,,,,,,,,,,,,,,,,,,,,,,,,,,,,,,,,,,,,,,,,,,,,,,,,,,,,,,,,,,,,,
,,,,,,,,,,6071d42438f4fc44ff6b54c5,28,Mężczyzna,2022-06-04_08h30.14.866,task,2021.1.4,Win32,59.95203837,628b806c463b948bc644b84f,629af9aee8e7c623f9da2d12,,,,,,,,,,,drzjn,"[""d"",""r"",""z"",""j"",""n""]","[0.4900000000000091,0.9500000000000455,1.1850000000000591,1.5610000000000355,3.0100000000001046,4.129000000000019]",1,DRZJN,6,0,6,0,1,,,,,,,,,,,,,,,,,,,,,,,,,,,,,,,,,,,,,,,,,,,,,,,,,,,,,,,,,,,,,,,,,,,,,,,,,,,,,,,,,,,
,,,,,,,,,,6071d42438f4fc44ff6b54c5,28,Mężczyzna,2022-06-04_08h30.14.866,task,2021.1.4,Win32,59.95203837,628b806c463b948bc644b84f,629af9aee8e7c623f9da2d12,,,,,0,0,0,0,1,X V Q F H G B L J M P D K C T S W R N Z,,,,,,,,,,,,,,,,,,,,,,,,,,,,,,,,,,,,,,,,,,,,,,,,,,,,,,,,,,,,,,,,,,,,,,,,,,,,,,,,,,,,,,,,,,,,,
,,,,,,,,,,6071d42438f4fc44ff6b54c5,28,Mężczyzna,2022-06-04_08h30.14.866,task,2021.1.4,Win32,59.95203837,628b806c463b948bc644b84f,629af9aee8e7c623f9da2d12,,,,,1,0,1,0,1,X V Q F H G B L J M P D K C T S W R N Z,,,,,,,,,,,,,,,,,,,,,,,,,,,,,,,,,,,,,,,,,,,,,,,,,,,,,,,,,,,,,,,,,,,,,,,,,,,,,,,,,,,,,,,,,,,,,
,,,,,,,,,,6071d42438f4fc44ff6b54c5,28,Mężczyzna,2022-06-04_08h30.14.866,task,2021.1.4,Win32,59.95203837,628b806c463b948bc644b84f,629af9aee8e7c623f9da2d12,,,,,2,0,2,0,1,X V Q F H G B L J M P D K C T S W R N Z,,,,,,,,,,,,,,,,,,,,,,,,,,,,,,,,,,,,,,,,,,,,,,,,,,,,,,,,,,,,,,,,,,,,,,,,,,,,,,,,,,,,,,,,,,,,,
,,,,,,,,,,6071d42438f4fc44ff6b54c5,28,Mężczyzna,2022-06-04_08h30.14.866,task,2021.1.4,Win32,59.95203837,628b806c463b948bc644b84f,629af9aee8e7c623f9da2d12,,,,,3,0,3,0,1,X V Q F H G B L J M P D K C T S W R N Z,,,,,,,,,,,,,,,,,,,,,,,,,,,,,,,,,,,,,,,,,,,,,,,,,,,,,,,,,,,,,,,,,,,,,,,,,,,,,,,,,,,,,,,,,,,,,
,,,,,,,,,,6071d42438f4fc44ff6b54c5,28,Mężczyzna,2022-06-04_08h30.14.866,task,2021.1.4,Win32,59.95203837,628b806c463b948bc644b84f,629af9aee8e7c623f9da2d12,,,,,4,0,4,0,1,X V Q F H G B L J M P D K C T S W R N Z,,,,,,,,,,,,,,,,,,,,,,,,,,,,,,,,,,,,,,,,,,,,,,,,,,,,,,,,,,,,,,,,,,,,,,,,,,,,,,,,,,,,,,,,,,,,,
,,,,,,,,,,6071d42438f4fc44ff6b54c5,28,Mężczyzna,2022-06-04_08h30.14.866,task,2021.1.4,Win32,59.95203837,628b806c463b948bc644b84f,629af9aee8e7c623f9da2d12,,,,,,,,,,,wgfr,"[""w"",""g"",""f"",""r""]","[3.758000000000038,4.7590000000000146,4.958999999999946,6.192000000000007,7.553999999999974]",0,WGFRC,7,0,7,0,1,,,,,,,,,,,,,,,,,,,,,,,,,,,,,,,,,,,,,,,,,,,,,,,,,,,,,,,,,,,,,,,,,,,,,,,,,,,,,,,,,,,
,,,,,,,,,,6071d42438f4fc44ff6b54c5,28,Mężczyzna,2022-06-04_08h30.14.866,task,2021.1.4,Win32,59.95203837,628b806c463b948bc644b84f,629af9aee8e7c623f9da2d12,,,,,0,0,0,0,1,X V Q F H G B L J M P D K C T S W R N Z,,,,,,,,,,,,,,,,,,,,,,,,,,,,,,,,,,,,,,,,,,,,,,,,,,,,,,,,,,,,,,,,,,,,,,,,,,,,,,,,,,,,,,,,,,,,,
,,,,,,,,,,6071d42438f4fc44ff6b54c5,28,Mężczyzna,2022-06-04_08h30.14.866,task,2021.1.4,Win32,59.95203837,628b806c463b948bc644b84f,629af9aee8e7c623f9da2d12,,,,,1,0,1,0,1,X V Q F H G B L J M P D K C T S W R N Z,,,,,,,,,,,,,,,,,,,,,,,,,,,,,,,,,,,,,,,,,,,,,,,,,,,,,,,,,,,,,,,,,,,,,,,,,,,,,,,,,,,,,,,,,,,,,
,,,,,,,,,,6071d42438f4fc44ff6b54c5,28,Mężczyzna,2022-06-04_08h30.14.866,task,2021.1.4,Win32,59.95203837,628b806c463b948bc644b84f,629af9aee8e7c623f9da2d12,,,,,2,0,2,0,1,X V Q F H G B L J M P D K C T S W R N Z,,,,,,,,,,,,,,,,,,,,,,,,,,,,,,,,,,,,,,,,,,,,,,,,,,,,,,,,,,,,,,,,,,,,,,,,,,,,,,,,,,,,,,,,,,,,,
,,,,,,,,,,6071d42438f4fc44ff6b54c5,28,Mężczyzna,2022-06-04_08h30.14.866,task,2021.1.4,Win32,59.95203837,628b806c463b948bc644b84f,629af9aee8e7c623f9da2d12,,,,,3,0,3,0,1,X V Q F H G B L J M P D K C T S W R N Z,,,,,,,,,,,,,,,,,,,,,,,,,,,,,,,,,,,,,,,,,,,,,,,,,,,,,,,,,,,,,,,,,,,,,,,,,,,,,,,,,,,,,,,,,,,,,
,,,,,,,,,,6071d42438f4fc44ff6b54c5,28,Mężczyzna,2022-06-04_08h30.14.866,task,2021.1.4,Win32,59.95203837,628b806c463b948bc644b84f,629af9aee8e7c623f9da2d12,,,,,4,0,4,0,1,X V Q F H G B L J M P D K C T S W R N Z,,,,,,,,,,,,,,,,,,,,,,,,,,,,,,,,,,,,,,,,,,,,,,,,,,,,,,,,,,,,,,,,,,,,,,,,,,,,,,,,,,,,,,,,,,,,,
,,,,,,,,,,6071d42438f4fc44ff6b54c5,28,Mężczyzna,2022-06-04_08h30.14.866,task,2021.1.4,Win32,59.95203837,628b806c463b948bc644b84f,629af9aee8e7c623f9da2d12,,,,,,,,,,,pdcvx,"[""p"",""d"",""c"",""v"",""x""]","[0.77800000000002,0.9569999999999936,1.3129999999999882,2.49899999999991,3.4189999999999827,4.6329999999999245]",1,PDCVX,8,0,8,0,1,,,,,,,,,,,,,,,,,,,,,,,,,,,,,,,,,,,,,,,,,,,,,,,,,,,,,,,,,,,,,,,,,,,,,,,,,,,,,,,,,,,
,,,,,,,,,,6071d42438f4fc44ff6b54c5,28,Mężczyzna,2022-06-04_08h30.14.866,task,2021.1.4,Win32,59.95203837,628b806c463b948bc644b84f,629af9aee8e7c623f9da2d12,,,,,0,0,0,0,1,X V Q F H G B L J M P D K C T S W R N Z,,,,,,,,,,,,,,,,,,,,,,,,,,,,,,,,,,,,,,,,,,,,,,,,,,,,,,,,,,,,,,,,,,,,,,,,,,,,,,,,,,,,,,,,,,,,,
,,,,,,,,,,6071d42438f4fc44ff6b54c5,28,Mężczyzna,2022-06-04_08h30.14.866,task,2021.1.4,Win32,59.95203837,628b806c463b948bc644b84f,629af9aee8e7c623f9da2d12,,,,,1,0,1,0,1,X V Q F H G B L J M P D K C T S W R N Z,,,,,,,,,,,,,,,,,,,,,,,,,,,,,,,,,,,,,,,,,,,,,,,,,,,,,,,,,,,,,,,,,,,,,,,,,,,,,,,,,,,,,,,,,,,,,
,,,,,,,,,,6071d42438f4fc44ff6b54c5,28,Mężczyzna,2022-06-04_08h30.14.866,task,2021.1.4,Win32,59.95203837,628b806c463b948bc644b84f,629af9aee8e7c623f9da2d12,,,,,2,0,2,0,1,X V Q F H G B L J M P D K C T S W R N Z,,,,,,,,,,,,,,,,,,,,,,,,,,,,,,,,,,,,,,,,,,,,,,,,,,,,,,,,,,,,,,,,,,,,,,,,,,,,,,,,,,,,,,,,,,,,,
,,,,,,,,,,6071d42438f4fc44ff6b54c5,28,Mężczyzna,2022-06-04_08h30.14.866,task,2021.1.4,Win32,59.95203837,628b806c463b948bc644b84f,629af9aee8e7c623f9da2d12,,,,,3,0,3,0,1,X V Q F H G B L J M P D K C T S W R N Z,,,,,,,,,,,,,,,,,,,,,,,,,,,,,,,,,,,,,,,,,,,,,,,,,,,,,,,,,,,,,,,,,,,,,,,,,,,,,,,,,,,,,,,,,,,,,
,,,,,,,,,,6071d42438f4fc44ff6b54c5,28,Mężczyzna,2022-06-04_08h30.14.866,task,2021.1.4,Win32,59.95203837,628b806c463b948bc644b84f,629af9aee8e7c623f9da2d12,,,,,4,0,4,0,1,X V Q F H G B L J M P D K C T S W R N Z,,,,,,,,,,,,,,,,,,,,,,,,,,,,,,,,,,,,,,,,,,,,,,,,,,,,,,,,,,,,,,,,,,,,,,,,,,,,,,,,,,,,,,,,,,,,,
,,,,,,,,,,6071d42438f4fc44ff6b54c5,28,Mężczyzna,2022-06-04_08h30.14.866,task,2021.1.4,Win32,59.95203837,628b806c463b948bc644b84f,629af9aee8e7c623f9da2d12,,,,,5,0,5,0,1,X V Q F H G B L J M P D K C T S W R N Z,,,,,,,,,,,,,,,,,,,,,,,,,,,,,,,,,,,,,,,,,,,,,,,,,,,,,,,,,,,,,,,,,,,,,,,,,,,,,,,,,,,,,,,,,,,,,
,,,,,,,,,,6071d42438f4fc44ff6b54c5,28,Mężczyzna,2022-06-04_08h30.14.866,task,2021.1.4,Win32,59.95203837,628b806c463b948bc644b84f,629af9aee8e7c623f9da2d12,,,,,,,,,,,gkgxqb,"[""g"",""k"",""g"",""x"",""q"",""b""]","[0.46900000000005093,1.3410000000000082,2.0499999999999545,2.55499999999995,3.780999999999949,6.413000000000011,7.836999999999989]",1,GKGXQB,9,0,9,0,1,,,,,,,,,,,,,,,,,,,,,,,,,,,,,,,,,,,,,,,,,,,,,,,,,,,,,,,,,,,,,,,,,,,,,,,,,,,,,,,,,,,
,,,,,,,,,,6071d42438f4fc44ff6b54c5,28,Mężczyzna,2022-06-04_08h30.14.866,task,2021.1.4,Win32,59.95203837,628b806c463b948bc644b84f,629af9aee8e7c623f9da2d12,,,,,0,0,0,0,1,X V Q F H G B L J M P D K C T S W R N Z,,,,,,,,,,,,,,,,,,,,,,,,,,,,,,,,,,,,,,,,,,,,,,,,,,,,,,,,,,,,,,,,,,,,,,,,,,,,,,,,,,,,,,,,,,,,,
,,,,,,,,,,6071d42438f4fc44ff6b54c5,28,Mężczyzna,2022-06-04_08h30.14.866,task,2021.1.4,Win32,59.95203837,628b806c463b948bc644b84f,629af9aee8e7c623f9da2d12,,,,,1,0,1,0,1,X V Q F H G B L J M P D K C T S W R N Z,,,,,,,,,,,,,,,,,,,,,,,,,,,,,,,,,,,,,,,,,,,,,,,,,,,,,,,,,,,,,,,,,,,,,,,,,,,,,,,,,,,,,,,,,,,,,
,,,,,,,,,,6071d42438f4fc44ff6b54c5,28,Mężczyzna,2022-06-04_08h30.14.866,task,2021.1.4,Win32,59.95203837,628b806c463b948bc644b84f,629af9aee8e7c623f9da2d12,,,,,2,0,2,0,1,X V Q F H G B L J M P D K C T S W R N Z,,,,,,,,,,,,,,,,,,,,,,,,,,,,,,,,,,,,,,,,,,,,,,,,,,,,,,,,,,,,,,,,,,,,,,,,,,,,,,,,,,,,,,,,,,,,,
,,,,,,,,,,6071d42438f4fc44ff6b54c5,28,Mężczyzna,2022-06-04_08h30.14.866,task,2021.1.4,Win32,59.95203837,628b806c463b948bc644b84f,629af9aee8e7c623f9da2d12,,,,,3,0,3,0,1,X V Q F H G B L J M P D K C T S W R N Z,,,,,,,,,,,,,,,,,,,,,,,,,,,,,,,,,,,,,,,,,,,,,,,,,,,,,,,,,,,,,,,,,,,,,,,,,,,,,,,,,,,,,,,,,,,,,
,,,,,,,,,,6071d42438f4fc44ff6b54c5,28,Mężczyzna,2022-06-04_08h30.14.866,task,2021.1.4,Win32,59.95203837,628b806c463b948bc644b84f,629af9aee8e7c623f9da2d12,,,,,4,0,4,0,1,X V Q F H G B L J M P D K C T S W R N Z,,,,,,,,,,,,,,,,,,,,,,,,,,,,,,,,,,,,,,,,,,,,,,,,,,,,,,,,,,,,,,,,,,,,,,,,,,,,,,,,,,,,,,,,,,,,,
,,,,,,,,,,6071d42438f4fc44ff6b54c5,28,Mężczyzna,2022-06-04_08h30.14.866,task,2021.1.4,Win32,59.95203837,628b806c463b948bc644b84f,629af9aee8e7c623f9da2d12,,,,,5,0,5,0,1,X V Q F H G B L J M P D K C T S W R N Z,,,,,,,,,,,,,,,,,,,,,,,,,,,,,,,,,,,,,,,,,,,,,,,,,,,,,,,,,,,,,,,,,,,,,,,,,,,,,,,,,,,,,,,,,,,,,
,,,,,,,,,,6071d42438f4fc44ff6b54c5,28,Mężczyzna,2022-06-04_08h30.14.866,task,2021.1.4,Win32,59.95203837,628b806c463b948bc644b84f,629af9aee8e7c623f9da2d12,,,,,,,,,,,lvbgs,"[""l"",""v"",""b"",""g"",""s""]","[1.20799999999997,1.5810000000000173,1.8640000000000327,2.4560000000000173,4.594000000000051,7.062999999999988]",0,LVBFGS,10,0,10,0,1,,,,,,,,,,,,,,,,,,,,,,,,,,,,,,,,,,,,,,,,,,,,,,,,,,,,,,,,,,,,,,,,,,,,,,,,,,,,,,,,,,,
,,,,,,,,,,6071d42438f4fc44ff6b54c5,28,Mężczyzna,2022-06-04_08h30.14.866,task,2021.1.4,Win32,59.95203837,628b806c463b948bc644b84f,629af9aee8e7c623f9da2d12,,,,,0,0,0,0,1,X V Q F H G B L J M P D K C T S W R N Z,,,,,,,,,,,,,,,,,,,,,,,,,,,,,,,,,,,,,,,,,,,,,,,,,,,,,,,,,,,,,,,,,,,,,,,,,,,,,,,,,,,,,,,,,,,,,
,,,,,,,,,,6071d42438f4fc44ff6b54c5,28,Mężczyzna,2022-06-04_08h30.14.866,task,2021.1.4,Win32,59.95203837,628b806c463b948bc644b84f,629af9aee8e7c623f9da2d12,,,,,1,0,1,0,1,X V Q F H G B L J M P D K C T S W R N Z,,,,,,,,,,,,,,,,,,,,,,,,,,,,,,,,,,,,,,,,,,,,,,,,,,,,,,,,,,,,,,,,,,,,,,,,,,,,,,,,,,,,,,,,,,,,,
,,,,,,,,,,6071d42438f4fc44ff6b54c5,28,Mężczyzna,2022-06-04_08h30.14.866,task,2021.1.4,Win32,59.95203837,628b806c463b948bc644b84f,629af9aee8e7c623f9da2d12,,,,,2,0,2,0,1,X V Q F H G B L J M P D K C T S W R N Z,,,,,,,,,,,,,,,,,,,,,,,,,,,,,,,,,,,,,,,,,,,,,,,,,,,,,,,,,,,,,,,,,,,,,,,,,,,,,,,,,,,,,,,,,,,,,
,,,,,,,,,,6071d42438f4fc44ff6b54c5,28,Mężczyzna,2022-06-04_08h30.14.866,task,2021.1.4,Win32,59.95203837,628b806c463b948bc644b84f,629af9aee8e7c623f9da2d12,,,,,3,0,3,0,1,X V Q F H G B L J M P D K C T S W R N Z,,,,,,,,,,,,,,,,,,,,,,,,,,,,,,,,,,,,,,,,,,,,,,,,,,,,,,,,,,,,,,,,,,,,,,,,,,,,,,,,,,,,,,,,,,,,,
,,,,,,,,,,6071d42438f4fc44ff6b54c5,28,Mężczyzna,2022-06-04_08h30.14.866,task,2021.1.4,Win32,59.95203837,628b806c463b948bc644b84f,629af9aee8e7c623f9da2d12,,,,,4,0,4,0,1,X V Q F H G B L J M P D K C T S W R N Z,,,,,,,,,,,,,,,,,,,,,,,,,,,,,,,,,,,,,,,,,,,,,,,,,,,,,,,,,,,,,,,,,,,,,,,,,,,,,,,,,,,,,,,,,,,,,
,,,,,,,,,,6071d42438f4fc44ff6b54c5,28,Mężczyzna,2022-06-04_08h30.14.866,task,2021.1.4,Win32,59.95203837,628b806c463b948bc644b84f,629af9aee8e7c623f9da2d12,,,,,5,0,5,0,1,X V Q F H G B L J M P D K C T S W R N Z,,,,,,,,,,,,,,,,,,,,,,,,,,,,,,,,,,,,,,,,,,,,,,,,,,,,,,,,,,,,,,,,,,,,,,,,,,,,,,,,,,,,,,,,,,,,,
,,,,,,,,,,6071d42438f4fc44ff6b54c5,28,Mężczyzna,2022-06-04_08h30.14.866,task,2021.1.4,Win32,59.95203837,628b806c463b948bc644b84f,629af9aee8e7c623f9da2d12,,,,,,,,,,,bvghjn,"[""b"",""v"",""g"",""h"",""j"",""n""]","[0.7069999999999936,1.197999999999979,1.7150000000000318,3.035000000000082,4.059000000000083,4.309000000000083,5.355000000000018]",0,BVHGJN,11,0,11,0,1,,,,,,,,,,,,,,,,,,,,,,,,,,,,,,,,,,,,,,,,,,,,,,,,,,,,,,,,,,,,,,,,,,,,,,,,,,,,,,,,,,,
,,,,,,,,,,6071d42438f4fc44ff6b54c5,28,Mężczyzna,2022-06-04_08h30.14.866,task,2021.1.4,Win32,59.95203837,628b806c463b948bc644b84f,629af9aee8e7c623f9da2d12,,,,,0,0,0,0,1,X V Q F H G B L J M P D K C T S W R N Z,,,,,,,,,,,,,,,,,,,,,,,,,,,,,,,,,,,,,,,,,,,,,,,,,,,,,,,,,,,,,,,,,,,,,,,,,,,,,,,,,,,,,,,,,,,,,
,,,,,,,,,,6071d42438f4fc44ff6b54c5,28,Mężczyzna,2022-06-04_08h30.14.866,task,2021.1.4,Win32,59.95203837,628b806c463b948bc644b84f,629af9aee8e7c623f9da2d12,,,,,1,0,1,0,1,X V Q F H G B L J M P D K C T S W R N Z,,,,,,,,,,,,,,,,,,,,,,,,,,,,,,,,,,,,,,,,,,,,,,,,,,,,,,,,,,,,,,,,,,,,,,,,,,,,,,,,,,,,,,,,,,,,,
,,,,,,,,,,6071d42438f4fc44ff6b54c5,28,Mężczyzna,2022-06-04_08h30.14.866,task,2021.1.4,Win32,59.95203837,628b806c463b948bc644b84f,629af9aee8e7c623f9da2d12,,,,,2,0,2,0,1,X V Q F H G B L J M P D K C T S W R N Z,,,,,,,,,,,,,,,,,,,,,,,,,,,,,,,,,,,,,,,,,,,,,,,,,,,,,,,,,,,,,,,,,,,,,,,,,,,,,,,,,,,,,,,,,,,,,
,,,,,,,,,,6071d42438f4fc44ff6b54c5,28,Mężczyzna,2022-06-04_08h30.14.866,task,2021.1.4,Win32,59.95203837,628b806c463b948bc644b84f,629af9aee8e7c623f9da2d12,,,,,3,0,3,0,1,X V Q F H G B L J M P D K C T S W R N Z,,,,,,,,,,,,,,,,,,,,,,,,,,,,,,,,,,,,,,,,,,,,,,,,,,,,,,,,,,,,,,,,,,,,,,,,,,,,,,,,,,,,,,,,,,,,,
,,,,,,,,,,6071d42438f4fc44ff6b54c5,28,Mężczyzna,2022-06-04_08h30.14.866,task,2021.1.4,Win32,59.95203837,628b806c463b948bc644b84f,629af9aee8e7c623f9da2d12,,,,,4,0,4,0,1,X V Q F H G B L J M P D K C T S W R N Z,,,,,,,,,,,,,,,,,,,,,,,,,,,,,,,,,,,,,,,,,,,,,,,,,,,,,,,,,,,,,,,,,,,,,,,,,,,,,,,,,,,,,,,,,,,,,
,,,,,,,,,,6071d42438f4fc44ff6b54c5,28,Mężczyzna,2022-06-04_08h30.14.866,task,2021.1.4,Win32,59.95203837,628b806c463b948bc644b84f,629af9aee8e7c623f9da2d12,,,,,5,0,5,0,1,X V Q F H G B L J M P D K C T S W R N Z,,,,,,,,,,,,,,,,,,,,,,,,,,,,,,,,,,,,,,,,,,,,,,,,,,,,,,,,,,,,,,,,,,,,,,,,,,,,,,,,,,,,,,,,,,,,,
,,,,,,,,,,6071d42438f4fc44ff6b54c5,28,Mężczyzna,2022-06-04_08h30.14.866,task,2021.1.4,Win32,59.95203837,628b806c463b948bc644b84f,629af9aee8e7c623f9da2d12,,,,,,,,,,,ljggq,"[""l"",""j"",""g"",""g"",""q""]","[1.413000000000011,1.8980000000000246,2.27900000000011,2.4580000000000837,6.485000000000014,7.18100000000004]",0,LJGGQW,12,0,12,0,1,,,,,,,,,,,,,,,,,,,,,,,,,,,,,,,,,,,,,,,,,,,,,,,,,,,,,,,,,,,,,,,,,,,,,,,,,,,,,,,,,,,
,,,,,,,,,,6071d42438f4fc44ff6b54c5,28,Mężczyzna,2022-06-04_08h30.14.866,task,2021.1.4,Win32,59.95203837,628b806c463b948bc644b84f,629af9aee8e7c623f9da2d12,,,,,,,,,,,,,,,,,,,,,space,37.689,7,"[""7""]",1,[10.52800000000002],[10.52800000000002],0,0,0,7,1,Practice,8,(5x5) - 18,7,,,,,,,,,,,,,,,,,,,,,,,,,,,,,,,,,,,,,,,,,,,,,,,,,,,,,,,,,,,,,,,,,,,
,,,,,,,,,,6071d42438f4fc44ff6b54c5,28,Mężczyzna,2022-06-04_08h30.14.866,task,2021.1.4,Win32,59.95203837,628b806c463b948bc644b84f,629af9aee8e7c623f9da2d12,,,,,,,,,,,,,,,,,,,,,,,8,"[""8""]",1,[1.6610000000000582],"[10.52800000000002,1.6610000000000582]",0,1,1,8,1,Practice,9,(3x3) - 1,8,,,,,,,,,,,,,,,,,,,,,,,,,,,,,,,,,,,,,,,,,,,,,,,,,,,,,,,,,,,,,,,,,,,
,,,,,,,,,,6071d42438f4fc44ff6b54c5,28,Mężczyzna,2022-06-04_08h30.14.866,task,2021.1.4,Win32,59.95203837,628b806c463b948bc644b84f,629af9aee8e7c623f9da2d12,,,,,,,,,,,,,,,,,,,,,,,2,"[""2""]",1,[2.0750000000000455],"[10.52800000000002,1.6610000000000582,2.0750000000000455]",0,2,2,2,1,Practice,3,(4x4) - 14,2,,,,,,,,,,,,,,,,,,,,,,,,,,,,,,,,,,,,,,,,,,,,,,,,,,,,,,,,,,,,,,,,,,,
,,,,,,,,,,6071d42438f4fc44ff6b54c5,28,Mężczyzna,2022-06-04_08h30.14.866,task,2021.1.4,Win32,59.95203837,628b806c463b948bc644b84f,629af9aee8e7c623f9da2d12,,,,,,,,,,,,,,,,,,,,,,,6,"[""6""]",1,[1.7889999999999873],"[10.52800000000002,1.6610000000000582,2.0750000000000455,1.7889999999999873]",0,3,3,6,1,Practice,7,(25/5) + 1,6,,,,,,,,,,,,,,,,,,,,,,,,,,,,,,,,,,,,,,,,,,,,,,,,,,,,,,,,,,,,,,,,,,,
,,,,,,,,,,6071d42438f4fc44ff6b54c5,28,Mężczyzna,2022-06-04_08h30.14.866,task,2021.1.4,Win32,59.95203837,628b806c463b948bc644b84f,629af9aee8e7c623f9da2d12,,,,,,,,,,,,,,,,,,,,,,,3,"[""3""]",1,[2.5550000000000637],"[10.52800000000002,1.6610000000000582,2.0750000000000455,1.7889999999999873,2.5550000000000637]",0,4,4,3,1,Practice,4,(8/4) + 1,3,,,,,,,,,,,,,,,,,,,,,,,,,,,,,,,,,,,,,,,,,,,,,,,,,,,,,,,,,,,,,,,,,,,
,,,,,,,,,,6071d42438f4fc44ff6b54c5,28,Mężczyzna,2022-06-04_08h30.14.866,task,2021.1.4,Win32,59.95203837,628b806c463b948bc644b84f,629af9aee8e7c623f9da2d12,,,,,,,,,,,,,,,,,,,,,,,4,"[""4""]",1,[2.997000000000071],"[10.52800000000002,1.6610000000000582,2.0750000000000455,1.7889999999999873,2.5550000000000637,2.997000000000071]",0,5,5,4,1,Practice,5,(2x6) - 8,4,,,,,,,,,,,,,,,,,,,,,,,,,,,,,,,,,,,,,,,,,,,,,,,,,,,,,,,,,,,,,,,,,,,
,,,,,,,,,,6071d42438f4fc44ff6b54c5,28,Mężczyzna,2022-06-04_08h30.14.866,task,2021.1.4,Win32,59.95203837,628b806c463b948bc644b84f,629af9aee8e7c623f9da2d12,,,,,,,,,,,,,,,,,,,,,,,9,"[""9""]",1,[1.941000000000031],"[10.52800000000002,1.6610000000000582,2.0750000000000455,1.7889999999999873,2.5550000000000637,2.997000000000071,1.941000000000031]",0,6,6,9,1,Practice,10,(20/2) - 1,9,,,,,,,,,,,,,,,,,,,,,,,,,,,,,,,,,,,,,,,,,,,,,,,,,,,,,,,,,,,,,,,,,,,
,,,,,,,,,,6071d42438f4fc44ff6b54c5,28,Mężczyzna,2022-06-04_08h30.14.866,task,2021.1.4,Win32,59.95203837,628b806c463b948bc644b84f,629af9aee8e7c623f9da2d12,,,,,,,,,,,,,,,,,,,,,,,1,"[""1""]",1,[1.33400000000006],"[10.52800000000002,1.6610000000000582,2.0750000000000455,1.7889999999999873,2.5550000000000637,2.997000000000071,1.941000000000031,1.33400000000006]",0,7,7,1,1,Practice,2,(4x4) - 15,1,,,,,,,,,,,,,,,,,,,,,,,,,,,,,,,,,,,,,,,,,,,,,,,,,,,,,,,,,,,,,,,,,,,
,,,,,,,,,,6071d42438f4fc44ff6b54c5,28,Mężczyzna,2022-06-04_08h30.14.866,task,2021.1.4,Win32,59.95203837,628b806c463b948bc644b84f,629af9aee8e7c623f9da2d12,,,,,,,,,,,,,,,,,,,,,,,0,"[""0""]",1,[1.606999999999971],"[10.52800000000002,1.6610000000000582,2.0750000000000455,1.7889999999999873,2.5550000000000637,2.997000000000071,1.941000000000031,1.33400000000006,1.606999999999971]",0,8,8,0,1,Practice,1,(3x3) -  9,0,,,,,,,,,,,,,,,,,,,,,,,,,,,,,,,,,,,,,,,,,,,,,,,,,,,,,,,,,,,,,,,,,,,
,,,,,,,,,,6071d42438f4fc44ff6b54c5,28,Mężczyzna,2022-06-04_08h30.14.866,task,2021.1.4,Win32,59.95203837,628b806c463b948bc644b84f,629af9aee8e7c623f9da2d12,,,,,,,,,,,,,,,,,,,,,,,5,"[""5""]",1,[4.957000000000107],"[10.52800000000002,1.6610000000000582,2.0750000000000455,1.7889999999999873,2.5550000000000637,2.997000000000071,1.941000000000031,1.33400000000006,1.606999999999971,4.957000000000107]",0,9,9,5,1,Practice,6,(4/2) + 3,5,,,,,,,,,,,,,,,,,,,,,,,,,,,,,,,,,,,,,,,,,,,,,,,,,,,,,,,,,,,,,,,,,,,
,,,,,,,,,,6071d42438f4fc44ff6b54c5,28,Mężczyzna,2022-06-04_08h30.14.866,task,2021.1.4,Win32,59.95203837,628b806c463b948bc644b84f,629af9aee8e7c623f9da2d12,,,,,,,,,,,,,,,,,,,,,,,,,,,,,,,,,,,,,1,31.444,2.096266667,81.42854124,2.329929058,8.107483637,space,1.04,0,0,0,0,1,,,,,,,,,,,,,,,,,,,,,,,,,,,,,,,,,,,,,,,,,,,,,,,,,,,,,,
,,,,,,,,,,6071d42438f4fc44ff6b54c5,28,Mężczyzna,2022-06-04_08h30.14.866,task,2021.1.4,Win32,59.95203837,628b806c463b948bc644b84f,629af9aee8e7c623f9da2d12,,,,,,,,,,,,,,,,,,,,,,,9,,,,,,,,,,Practice,10,(20/2) - 1,9,,,,,,,,,,,,,,space,326.579,"[""9""]",1,[2.62299999999982],1,0,0,0,9,1,,,,,,,,,,,,,,,,,,,,,,,,,,,,,,,,,,,,,,,,,,,
,,,,,,,,,,6071d42438f4fc44ff6b54c5,28,Mężczyzna,2022-06-04_08h30.14.866,task,2021.1.4,Win32,59.95203837,628b806c463b948bc644b84f,629af9aee8e7c623f9da2d12,,,,,,,,,,X V Q F H G B L J M P D K C T S W R N Z,,,,,,,,,,,,,,,,,,,,,,,,,,,,,,,,,,,,,,,,,,,,,,,,,,,0,0,0,0,1,,,,,,,,,,,,,,,,,,,,,,,,,,,,,,,,,,,,,,
,,,,,,,,,,6071d42438f4fc44ff6b54c5,28,Mężczyzna,2022-06-04_08h30.14.866,task,2021.1.4,Win32,59.95203837,628b806c463b948bc644b84f,629af9aee8e7c623f9da2d12,,,,,,,,,,,,,,,,,,,,,,,8,,,,,,,,,,Practice,9,(3x3) - 1,8,,,,,,,,,,,,,,,,"[""8""]",1,[3.7070000000001073],1,0,0,0,8,1,,,,,,,,,,,,,,,,,,,,,,,,,,,,,,,,,,,,,,,,,,,
,,,,,,,,,,6071d42438f4fc44ff6b54c5,28,Mężczyzna,2022-06-04_08h30.14.866,task,2021.1.4,Win32,59.95203837,628b806c463b948bc644b84f,629af9aee8e7c623f9da2d12,,,,,,,,,,X V Q F H G B L J M P D K C T S W R N Z,,,,,,,,,,,,,,,,,,,,,,,,,,,,,,,,,,,,,,,,,,,,,,,,,,,1,0,1,0,1,,,,,,,,,,,,,,,,,,,,,,,,,,,,,,,,,,,,,,
,,,,,,,,,,6071d42438f4fc44ff6b54c5,28,Mężczyzna,2022-06-04_08h30.14.866,task,2021.1.4,Win32,59.95203837,628b806c463b948bc644b84f,629af9aee8e7c623f9da2d12,,,,,,,,,,,,,,,,,,,,,,,,,,,,,,,,,,,,,,,,,,,,,,,,,,,,,,,,,,,,,,,,,,zm,"[""z"",""m""]",0,"[2.0790000000001783,2.2640000000001237,4.913999999999987]",1,0,0,0,0,1,,,,,,,,,,,,,,,,,,,,,,,,,,,,
,,,,,,,,,,6071d42438f4fc44ff6b54c5,28,Mężczyzna,2022-06-04_08h30.14.866,task,2021.1.4,Win32,59.95203837,628b806c463b948bc644b84f,629af9aee8e7c623f9da2d12,,,,,,,,,,,,,,,,,,,,,,,1,,,,,,,,,,Practice,2,(4x4) - 15,1,,,,,,,,,,,,,,,,"[""1""]",1,[1.433999999999969],1,0,0,0,1,1,,,,,,,,,,,,,,,,,,,,,,,,,,,,,,,,,,,,,,,,,,,
,,,,,,,,,,6071d42438f4fc44ff6b54c5,28,Mężczyzna,2022-06-04_08h30.14.866,task,2021.1.4,Win32,59.95203837,628b806c463b948bc644b84f,629af9aee8e7c623f9da2d12,,,,,,,,,,X V Q F H G B L J M P D K C T S W R N Z,,,,,,,,,,,,,,,,,,,,,,,,,,,,,,,,,,,,,,,,,,,,,,,,,,,0,0,0,0,1,,,,,,,,,,,,,,,,,,,,,,,,,,,,,,,,,,,,,,
,,,,,,,,,,6071d42438f4fc44ff6b54c5,28,Mężczyzna,2022-06-04_08h30.14.866,task,2021.1.4,Win32,59.95203837,628b806c463b948bc644b84f,629af9aee8e7c623f9da2d12,,,,,,,,,,,,,,,,,,,,,,,4,,,,,,,,,,Practice,5,(2x6) - 8,4,,,,,,,,,,,,,,,,"[""4""]",1,[2.17899999999986],1,0,0,0,4,1,,,,,,,,,,,,,,,,,,,,,,,,,,,,,,,,,,,,,,,,,,,
,,,,,,,,,,6071d42438f4fc44ff6b54c5,28,Mężczyzna,2022-06-04_08h30.14.866,task,2021.1.4,Win32,59.95203837,628b806c463b948bc644b84f,629af9aee8e7c623f9da2d12,,,,,,,,,,X V Q F H G B L J M P D K C T S W R N Z,,,,,,,,,,,,,,,,,,,,,,,,,,,,,,,,,,,,,,,,,,,,,,,,,,,1,0,1,0,1,,,,,,,,,,,,,,,,,,,,,,,,,,,,,,,,,,,,,,
,,,,,,,,,,6071d42438f4fc44ff6b54c5,28,Mężczyzna,2022-06-04_08h30.14.866,task,2021.1.4,Win32,59.95203837,628b806c463b948bc644b84f,629af9aee8e7c623f9da2d12,,,,,,,,,,,,,,,,,,,,,,,,,,,,,,,,,,,,,,,,,,,,,,,,,,,,,,,,,,,,,,,,,,kg,"[""k"",""g""]",0,"[2.4729999999999563,2.8579999999999472,4.938999999999851]",1,1,0,1,0,1,,,,,,,,,,,,,,,,,,,,,,,,,,,,
,,,,,,,,,,6071d42438f4fc44ff6b54c5,28,Mężczyzna,2022-06-04_08h30.14.866,task,2021.1.4,Win32,59.95203837,628b806c463b948bc644b84f,629af9aee8e7c623f9da2d12,,,,,,,,,,,,,,,,,,,,,,,8,,,,,,,,,,Practice,9,(3x3) - 1,8,,,,,,,,,,,,,,,,"[""8""]",1,[1.4379999999998745],1,0,0,0,8,1,,,,,,,,,,,,,,,,,,,,,,,,,,,,,,,,,,,,,,,,,,,
,,,,,,,,,,6071d42438f4fc44ff6b54c5,28,Mężczyzna,2022-06-04_08h30.14.866,task,2021.1.4,Win32,59.95203837,628b806c463b948bc644b84f,629af9aee8e7c623f9da2d12,,,,,,,,,,X V Q F H G B L J M P D K C T S W R N Z,,,,,,,,,,,,,,,,,,,,,,,,,,,,,,,,,,,,,,,,,,,,,,,,,,,0,0,0,0,1,,,,,,,,,,,,,,,,,,,,,,,,,,,,,,,,,,,,,,
,,,,,,,,,,6071d42438f4fc44ff6b54c5,28,Mężczyzna,2022-06-04_08h30.14.866,task,2021.1.4,Win32,59.95203837,628b806c463b948bc644b84f,629af9aee8e7c623f9da2d12,,,,,,,,,,,,,,,,,,,,,,,1,,,,,,,,,,Practice,2,(4x4) - 15,1,,,,,,,,,,,,,,,,"[""1""]",1,[1.1180000000001655],1,0,0,0,1,1,,,,,,,,,,,,,,,,,,,,,,,,,,,,,,,,,,,,,,,,,,,
,,,,,,,,,,6071d42438f4fc44ff6b54c5,28,Mężczyzna,2022-06-04_08h30.14.866,task,2021.1.4,Win32,59.95203837,628b806c463b948bc644b84f,629af9aee8e7c623f9da2d12,,,,,,,,,,X V Q F H G B L J M P D K C T S W R N Z,,,,,,,,,,,,,,,,,,,,,,,,,,,,,,,,,,,,,,,,,,,,,,,,,,,1,0,1,0,1,,,,,,,,,,,,,,,,,,,,,,,,,,,,,,,,,,,,,,
,,,,,,,,,,6071d42438f4fc44ff6b54c5,28,Mężczyzna,2022-06-04_08h30.14.866,task,2021.1.4,Win32,59.95203837,628b806c463b948bc644b84f,629af9aee8e7c623f9da2d12,,,,,,,,,,,,,,,,,,,,,,,,,,,,,,,,,,,,,,,,,,,,,,,,,,,,,,,,,,,,,,,,,,hg,"[""h"",""g""]",0,"[1.1669999999999163,1.3819999999998345,2.5549999999998363]",1,2,0,2,0,1,,,,,,,,,,,,,,,,,,,,,,,,,,,,
,,,,,,,,,,6071d42438f4fc44ff6b54c5,28,Mężczyzna,2022-06-04_08h30.14.866,task,2021.1.4,Win32,59.95203837,628b806c463b948bc644b84f,629af9aee8e7c623f9da2d12,,,,,,,,,,,,,,,,,,,,,,,8,,,,,,,,,,Task,39,(5x3) - 7,8,,,,,,,,,,,,,,,,,,,1,,,,,,,,,,,,,,,,,,,,,space,23.344,"[""8""]",1,[3.826000000000022],0,0,0,38,1,,,,,,,,,,,,,,,,,,
,,,,,,,,,,6071d42438f4fc44ff6b54c5,28,Mężczyzna,2022-06-04_08h30.14.866,task,2021.1.4,Win32,59.95203837,628b806c463b948bc644b84f,629af9aee8e7c623f9da2d12,,,,,,,,,,X V Q F H G B L J M P D K C T S W R N Z,,,,,,,,,,,,,,,,,,,,,,,,,,,,,,,,,,,,,,,,,,,,,,,,,,,,,,,,,,,,,,,,,,,,,,,,,,,,0,0,0,0,1,,,,,,,,,,,,,
,,,,,,,,,,6071d42438f4fc44ff6b54c5,28,Mężczyzna,2022-06-04_08h30.14.866,task,2021.1.4,Win32,59.95203837,628b806c463b948bc644b84f,629af9aee8e7c623f9da2d12,,,,,,,,,,,,,,,,,,,,,,,2,,,,,,,,,,Task,19,(6/2) - 1,2,,,,,,,,,,,,,,,,,,,1,,,,,,,,,,,,,,,,,,,,,,,"[""2""]",1,[2.16599999999994],0,0,0,18,1,,,,,,,,,,,,,,,,,,
,,,,,,,,,,6071d42438f4fc44ff6b54c5,28,Mężczyzna,2022-06-04_08h30.14.866,task,2021.1.4,Win32,59.95203837,628b806c463b948bc644b84f,629af9aee8e7c623f9da2d12,,,,,,,,,,X V Q F H G B L J M P D K C T S W R N Z,,,,,,,,,,,,,,,,,,,,,,,,,,,,,,,,,,,,,,,,,,,,,,,,,,,,,,,,,,,,,,,,,,,,,,,,,,,,1,0,1,0,1,,,,,,,,,,,,,
,,,,,,,,,,6071d42438f4fc44ff6b54c5,28,Mężczyzna,2022-06-04_08h30.14.866,task,2021.1.4,Win32,59.95203837,628b806c463b948bc644b84f,629af9aee8e7c623f9da2d12,,,,,,,,,,,,,,,,,,,,,,,,,,,,,,,,,,,,,,,,,,,,,,,,,,,,,,,,,,,,,,,,,,,,,,,,,,,,,,,,,,,,,,,,,,,zg,"[""z"",""g""]",0,"[1.0150000000001,3.0720000000001164,3.893000000000029]",1,ZG,0,0,0,0,1,,
,,,,,,,,,,6071d42438f4fc44ff6b54c5,28,Mężczyzna,2022-06-04_08h30.14.866,task,2021.1.4,Win32,59.95203837,628b806c463b948bc644b84f,629af9aee8e7c623f9da2d12,,,,,,,,,,,,,,,,,,,,,,,4,,,,,,,,,,Task,12,(4x4) - 11,5,,,,,,,,,,,,,,,,,,,0,,,,,,,,,,,,,,,,,,,,,,,"[""4""]",0,[3.772999999999911],0,0,0,11,1,,,,,,,,,,,,,,,,,,
,,,,,,,,,,6071d42438f4fc44ff6b54c5,28,Mężczyzna,2022-06-04_08h30.14.866,task,2021.1.4,Win32,59.95203837,628b806c463b948bc644b84f,629af9aee8e7c623f9da2d12,,,,,,,,,,,,,,,,,,,,,,,9,,,,,,,,,,Task,40,(7x2) - 5,9,,,,,,,,,,,,,,,,,,,1,,,,,,,,,,,,,,,,,,,,,,,"[""9""]",1,[5.224999999999909],0,1,1,39,1,,,,,,,,,,,,,,,,,,
,,,,,,,,,,6071d42438f4fc44ff6b54c5,28,Mężczyzna,2022-06-04_08h30.14.866,task,2021.1.4,Win32,59.95203837,628b806c463b948bc644b84f,629af9aee8e7c623f9da2d12,,,,,,,,,,X V Q F H G B L J M P D K C T S W R N Z,,,,,,,,,,,,,,,,,,,,,,,,,,,,,,,,,,,,,,,,,,,,,,,,,,,,,,,,,,,,,,,,,,,,,,,,,,,,0,0,0,0,1,,,,,,,,,,,,,
,,,,,,,,,,6071d42438f4fc44ff6b54c5,28,Mężczyzna,2022-06-04_08h30.14.866,task,2021.1.4,Win32,59.95203837,628b806c463b948bc644b84f,629af9aee8e7c623f9da2d12,,,,,,,,,,,,,,,,,,,,,,,1,,,,,,,,,,Task,20,(18/9) + 1,3,,,,,,,,,,,,,,,,,,,0,,,,,,,,,,,,,,,,,,,,,,,"[""1""]",0,[3.030999999999949],0,0,0,19,1,,,,,,,,,,,,,,,,,,
,,,,,,,,,,6071d42438f4fc44ff6b54c5,28,Mężczyzna,2022-06-04_08h30.14.866,task,2021.1.4,Win32,59.95203837,628b806c463b948bc644b84f,629af9aee8e7c623f9da2d12,,,,,,,,,,,,,,,,,,,,,,,2,,,,,,,,,,Task,19,(6/2) - 1,2,,,,,,,,,,,,,,,,,,,1,,,,,,,,,,,,,,,,,,,,,,,"[""2""]",1,[4.972999999999956],0,1,1,18,1,,,,,,,,,,,,,,,,,,
,,,,,,,,,,6071d42438f4fc44ff6b54c5,28,Mężczyzna,2022-06-04_08h30.14.866,task,2021.1.4,Win32,59.95203837,628b806c463b948bc644b84f,629af9aee8e7c623f9da2d12,,,,,,,,,,X V Q F H G B L J M P D K C T S W R N Z,,,,,,,,,,,,,,,,,,,,,,,,,,,,,,,,,,,,,,,,,,,,,,,,,,,,,,,,,,,,,,,,,,,,,,,,,,,,1,0,1,0,1,,,,,,,,,,,,,
,,,,,,,,,,6071d42438f4fc44ff6b54c5,28,Mężczyzna,2022-06-04_08h30.14.866,task,2021.1.4,Win32,59.95203837,628b806c463b948bc644b84f,629af9aee8e7c623f9da2d12,,,,,,,,,,,,,,,,,,,,,,,1,,,,,,,,,,Task,20,(18/9) + 1,3,,,,,,,,,,,,,,,,,,,0,,,,,,,,,,,,,,,,,,,,,,,"[""1""]",0,[6.4370000000001255],0,0,0,19,1,,,,,,,,,,,,,,,,,,
,,,,,,,,,,6071d42438f4fc44ff6b54c5,28,Mężczyzna,2022-06-04_08h30.14.866,task,2021.1.4,Win32,59.95203837,628b806c463b948bc644b84f,629af9aee8e7c623f9da2d12,,,,,,,,,,,,,,,,,,,,,,,4,,,,,,,,,,Task,11,(18/3) - 2,4,,,,,,,,,,,,,,,,,,,1,,,,,,,,,,,,,,,,,,,,,,,"[""4""]",1,[7.221000000000004],0,1,1,10,1,,,,,,,,,,,,,,,,,,
,,,,,,,,,,6071d42438f4fc44ff6b54c5,28,Mężczyzna,2022-06-04_08h30.14.866,task,2021.1.4,Win32,59.95203837,628b806c463b948bc644b84f,629af9aee8e7c623f9da2d12,,,,,,,,,,X V Q F H G B L J M P D K C T S W R N Z,,,,,,,,,,,,,,,,,,,,,,,,,,,,,,,,,,,,,,,,,,,,,,,,,,,,,,,,,,,,,,,,,,,,,,,,,,,,2,0,2,0,1,,,,,,,,,,,,,
,,,,,,,,,,6071d42438f4fc44ff6b54c5,28,Mężczyzna,2022-06-04_08h30.14.866,task,2021.1.4,Win32,59.95203837,628b806c463b948bc644b84f,629af9aee8e7c623f9da2d12,,,,,,,,,,,,,,,,,,,,,,,,,,,,,,,,,,,,,,,,,,,,,,,,,,,,,,,,,,,,,,,,,,,,,,,,,,,,,,,,,,,,,,,,,,,lx,"[""l"",""x""]",0,"[3.0729999999998654,3.56899999999996,4.354000000000042]",0,LWX,1,0,1,0,1,,
,,,,,,,,,,6071d42438f4fc44ff6b54c5,28,Mężczyzna,2022-06-04_08h30.14.866,task,2021.1.4,Win32,59.95203837,628b806c463b948bc644b84f,629af9aee8e7c623f9da2d12,,,,,,,,,,,,,,,,,,,,,,,8,,,,,,,,,,Task,32,(8/2) + 4,8,,,,,,,,,,,,,,,,,,,1,,,,,,,,,,,,,,,,,,,,,,,"[""8""]",1,[3.928000000000111],0,0,0,31,1,,,,,,,,,,,,,,,,,,
,,,,,,,,,,6071d42438f4fc44ff6b54c5,28,Mężczyzna,2022-06-04_08h30.14.866,task,2021.1.4,Win32,59.95203837,628b806c463b948bc644b84f,629af9aee8e7c623f9da2d12,,,,,,,,,,X V Q F H G B L J M P D K C T S W R N Z,,,,,,,,,,,,,,,,,,,,,,,,,,,,,,,,,,,,,,,,,,,,,,,,,,,,,,,,,,,,,,,,,,,,,,,,,,,,0,0,0,0,1,,,,,,,,,,,,,
,,,,,,,,,,6071d42438f4fc44ff6b54c5,28,Mężczyzna,2022-06-04_08h30.14.866,task,2021.1.4,Win32,59.95203837,628b806c463b948bc644b84f,629af9aee8e7c623f9da2d12,,,,,,,,,,,,,,,,,,,,,,,9,,,,,,,,,,Task,40,(7x2) - 5,9,,,,,,,,,,,,,,,,,,,1,,,,,,,,,,,,,,,,,,,,,,,"[""9""]",1,[4.400000000000091],0,0,0,39,1,,,,,,,,,,,,,,,,,,
,,,,,,,,,,6071d42438f4fc44ff6b54c5,28,Mężczyzna,2022-06-04_08h30.14.866,task,2021.1.4,Win32,59.95203837,628b806c463b948bc644b84f,629af9aee8e7c623f9da2d12,,,,,,,,,,X V Q F H G B L J M P D K C T S W R N Z,,,,,,,,,,,,,,,,,,,,,,,,,,,,,,,,,,,,,,,,,,,,,,,,,,,,,,,,,,,,,,,,,,,,,,,,,,,,1,0,1,0,1,,,,,,,,,,,,,
,,,,,,,,,,6071d42438f4fc44ff6b54c5,28,Mężczyzna,2022-06-04_08h30.14.866,task,2021.1.4,Win32,59.95203837,628b806c463b948bc644b84f,629af9aee8e7c623f9da2d12,,,,,,,,,,,,,,,,,,,,,,,,,,,,,,,,,Task,38,(4x6) - 17,7,,,,,,,,,,,,,,,,,,,0,,,,,,,,,,,,,,,,,,,,,,,,0,,0,0,0,37,1,,,,,,,,,,,,,,,,,,
,,,,,,,,,,6071d42438f4fc44ff6b54c5,28,Mężczyzna,2022-06-04_08h30.14.866,task,2021.1.4,Win32,59.95203837,628b806c463b948bc644b84f,629af9aee8e7c623f9da2d12,,,,,,,,,,,,,,,,,,,,,,,4,,,,,,,,,,Task,11,(18/3) - 2,4,,,,,,,,,,,,,,,,,,,1,,,,,,,,,,,,,,,,,,,,,,,"[""4""]",1,[4.653999999999996],0,1,1,10,1,,,,,,,,,,,,,,,,,,
,,,,,,,,,,6071d42438f4fc44ff6b54c5,28,Mężczyzna,2022-06-04_08h30.14.866,task,2021.1.4,Win32,59.95203837,628b806c463b948bc644b84f,629af9aee8e7c623f9da2d12,,,,,,,,,,X V Q F H G B L J M P D K C T S W R N Z,,,,,,,,,,,,,,,,,,,,,,,,,,,,,,,,,,,,,,,,,,,,,,,,,,,,,,,,,,,,,,,,,,,,,,,,,,,,2,0,2,0,1,,,,,,,,,,,,,
,,,,,,,,,,6071d42438f4fc44ff6b54c5,28,Mężczyzna,2022-06-04_08h30.14.866,task,2021.1.4,Win32,59.95203837,628b806c463b948bc644b84f,629af9aee8e7c623f9da2d12,,,,,,,,,,,,,,,,,,,,,,,,,,,,,,,,,,,,,,,,,,,,,,,,,,,,,,,,,,,,,,,,,,,,,,,,,,,,,,,,,,,,,,,,,,,ck,"[""c"",""k""]",0,"[1.599999999999909,1.7449999999998909,2.6649999999999636]",0,CTK,2,0,2,0,1,,
,,,,,,,,,,6071d42438f4fc44ff6b54c5,28,Mężczyzna,2022-06-04_08h30.14.866,task,2021.1.4,Win32,59.95203837,628b806c463b948bc644b84f,629af9aee8e7c623f9da2d12,,,,,,,,,,,,,,,,,,,,,,,,,,,,,,,,,,,,,,,,,,,,,,,,,,,,,,,,,,,,,,,,,,,,,,,,,,,,,,,,,,,,,,,,,,,,,,,,,,,,,,space,1.994
