key_resp_15.keys,key_resp_15.rt,key_resp_13.keys,key_resp_13.corr,key_resp_13.rt,ranodm_loop.thisRepN,ranodm_loop.thisTrialN,ranodm_loop.thisN,ranodm_loop.thisIndex,ranodm_loop.ran,participant,Wiek*,Płeć,date,expName,psychopyVersion,OS,frameRate,study_id,session,key_resp_16.keys,key_resp_16.rt,key_resp_4.keys,key_resp_4.rt,next_letter.thisRepN,next_letter.thisTrialN,next_letter.thisN,next_letter.thisIndex,next_letter.ran,letter,simple_recall,key_resp_5.keys,key_resp_5.rt,simple_recall_corr,simple_recall_corrkeys,next_level.thisRepN,next_level.thisTrialN,next_level.thisN,next_level.thisIndex,next_level.ran,key_resp_2.keys,key_resp_2.rt,digit_answer,key_resp.keys,key_resp.corr,key_resp.rt,RT_list,next_equation.thisRepN,next_equation.thisTrialN,next_equation.thisN,next_equation.thisIndex,next_equation.ran,Task,Trial,Problem,Operation_answer,processing_score,sumRT,meanRT,sumdiff,sd,RT,key_resp_3.keys,key_resp_3.rt,repeat_practice.thisRepN,repeat_practice.thisTrialN,repeat_practice.thisN,repeat_practice.thisIndex,repeat_practice.ran,key_resp_6.keys,key_resp_6.rt,key_resp_11.keys,key_resp_11.corr,key_resp_11.rt,operation_correct,repeat_if_wrong_prac.thisRepN,repeat_if_wrong_prac.thisTrialN,repeat_if_wrong_prac.thisN,repeat_if_wrong_prac.thisIndex,repeat_if_wrong_prac.ran,span_size_prac.thisRepN,span_size_prac.thisTrialN,span_size_prac.thisN,span_size_prac.thisIndex,span_size_prac.ran,complex_recall_practice,key_resp_9.keys,key_resp_9.corr,key_resp_9.rt,complex_prac_corr,span_recall_prac.thisRepN,span_recall_prac.thisTrialN,span_recall_prac.thisN,span_recall_prac.thisIndex,span_recall_prac.ran,key_resp_10.keys,key_resp_10.rt,key_resp_7.keys,key_resp_7.corr,key_resp_7.rt,repeat_if_wrong.thisRepN,repeat_if_wrong.thisTrialN,repeat_if_wrong.thisN,repeat_if_wrong.thisIndex,repeat_if_wrong.ran,span_size.thisRepN,span_size.thisTrialN,span_size.thisN,span_size.thisIndex,span_size.ran,complex_recall,key_resp_8.keys,key_resp_8.corr,key_resp_8.rt,complex_recall_corr,complex_recall_corrkeys,span_recall.thisRepN,span_recall.thisTrialN,span_recall.thisN,span_recall.thisIndex,span_recall.ran,key_resp_12.keys,key_resp_12.rt
space,18.7304,"[""comma""]",0,[1.5984000000953529],0,0,0,0,1,607176a53e0b57a4f8be7ac9,34,Mężczyzna,2022-06-04_08h11.17.477,task,2021.1.4,Win32,59.95203837,628b806c463b948bc644b84f,629af7335e289bc62307838a,,,,,,,,,,,,,,,,,,,,,,,,,,,,,,,,,,,,,,,,,,,,,,,,,,,,,,,,,,,,,,,,,,,,,,,,,,,,,,,,,,,,,,,,,,,,,,,,,,,,,,,
,,"[""period""]",0,[1.1848000001907337],1,0,1,0,1,607176a53e0b57a4f8be7ac9,34,Mężczyzna,2022-06-04_08h11.17.477,task,2021.1.4,Win32,59.95203837,628b806c463b948bc644b84f,629af7335e289bc62307838a,,,,,,,,,,,,,,,,,,,,,,,,,,,,,,,,,,,,,,,,,,,,,,,,,,,,,,,,,,,,,,,,,,,,,,,,,,,,,,,,,,,,,,,,,,,,,,,,,,,,,,,
,,"[""comma""]",0,[0.48439999985694726],2,0,2,0,1,607176a53e0b57a4f8be7ac9,34,Mężczyzna,2022-06-04_08h11.17.477,task,2021.1.4,Win32,59.95203837,628b806c463b948bc644b84f,629af7335e289bc62307838a,,,,,,,,,,,,,,,,,,,,,,,,,,,,,,,,,,,,,,,,,,,,,,,,,,,,,,,,,,,,,,,,,,,,,,,,,,,,,,,,,,,,,,,,,,,,,,,,,,,,,,,
,,"[""comma""]",0,[0.5163000001907108],3,0,3,0,1,607176a53e0b57a4f8be7ac9,34,Mężczyzna,2022-06-04_08h11.17.477,task,2021.1.4,Win32,59.95203837,628b806c463b948bc644b84f,629af7335e289bc62307838a,,,,,,,,,,,,,,,,,,,,,,,,,,,,,,,,,,,,,,,,,,,,,,,,,,,,,,,,,,,,,,,,,,,,,,,,,,,,,,,,,,,,,,,,,,,,,,,,,,,,,,,
,,"[""period""]",0,[0.6089999999999804],4,0,4,0,1,607176a53e0b57a4f8be7ac9,34,Mężczyzna,2022-06-04_08h11.17.477,task,2021.1.4,Win32,59.95203837,628b806c463b948bc644b84f,629af7335e289bc62307838a,,,,,,,,,,,,,,,,,,,,,,,,,,,,,,,,,,,,,,,,,,,,,,,,,,,,,,,,,,,,,,,,,,,,,,,,,,,,,,,,,,,,,,,,,,,,,,,,,,,,,,,
,,"[""comma""]",0,[0.5083999998569482],5,0,5,0,1,607176a53e0b57a4f8be7ac9,34,Mężczyzna,2022-06-04_08h11.17.477,task,2021.1.4,Win32,59.95203837,628b806c463b948bc644b84f,629af7335e289bc62307838a,,,,,,,,,,,,,,,,,,,,,,,,,,,,,,,,,,,,,,,,,,,,,,,,,,,,,,,,,,,,,,,,,,,,,,,,,,,,,,,,,,,,,,,,,,,,,,,,,,,,,,,
,,"[""comma""]",0,[0.4351999998092708],6,0,6,0,1,607176a53e0b57a4f8be7ac9,34,Mężczyzna,2022-06-04_08h11.17.477,task,2021.1.4,Win32,59.95203837,628b806c463b948bc644b84f,629af7335e289bc62307838a,,,,,,,,,,,,,,,,,,,,,,,,,,,,,,,,,,,,,,,,,,,,,,,,,,,,,,,,,,,,,,,,,,,,,,,,,,,,,,,,,,,,,,,,,,,,,,,,,,,,,,,
,,"[""period""]",0,[0.5184000000953688],7,0,7,0,1,607176a53e0b57a4f8be7ac9,34,Mężczyzna,2022-06-04_08h11.17.477,task,2021.1.4,Win32,59.95203837,628b806c463b948bc644b84f,629af7335e289bc62307838a,,,,,,,,,,,,,,,,,,,,,,,,,,,,,,,,,,,,,,,,,,,,,,,,,,,,,,,,,,,,,,,,,,,,,,,,,,,,,,,,,,,,,,,,,,,,,,,,,,,,,,,
,,"[""comma""]",0,[0.30609999990463166],8,0,8,0,1,607176a53e0b57a4f8be7ac9,34,Mężczyzna,2022-06-04_08h11.17.477,task,2021.1.4,Win32,59.95203837,628b806c463b948bc644b84f,629af7335e289bc62307838a,,,,,,,,,,,,,,,,,,,,,,,,,,,,,,,,,,,,,,,,,,,,,,,,,,,,,,,,,,,,,,,,,,,,,,,,,,,,,,,,,,,,,,,,,,,,,,,,,,,,,,,
,,"[""comma""]",0,[0.29260000014303955],9,0,9,0,1,607176a53e0b57a4f8be7ac9,34,Mężczyzna,2022-06-04_08h11.17.477,task,2021.1.4,Win32,59.95203837,628b806c463b948bc644b84f,629af7335e289bc62307838a,,,,,,,,,,,,,,,,,,,,,,,,,,,,,,,,,,,,,,,,,,,,,,,,,,,,,,,,,,,,,,,,,,,,,,,,,,,,,,,,,,,,,,,,,,,,,,,,,,,,,,,
,,"[""period""]",0,[0.3527000000476619],10,0,10,0,1,607176a53e0b57a4f8be7ac9,34,Mężczyzna,2022-06-04_08h11.17.477,task,2021.1.4,Win32,59.95203837,628b806c463b948bc644b84f,629af7335e289bc62307838a,,,,,,,,,,,,,,,,,,,,,,,,,,,,,,,,,,,,,,,,,,,,,,,,,,,,,,,,,,,,,,,,,,,,,,,,,,,,,,,,,,,,,,,,,,,,,,,,,,,,,,,
,,"[""period""]",0,[0.3430999999046378],11,0,11,0,1,607176a53e0b57a4f8be7ac9,34,Mężczyzna,2022-06-04_08h11.17.477,task,2021.1.4,Win32,59.95203837,628b806c463b948bc644b84f,629af7335e289bc62307838a,,,,,,,,,,,,,,,,,,,,,,,,,,,,,,,,,,,,,,,,,,,,,,,,,,,,,,,,,,,,,,,,,,,,,,,,,,,,,,,,,,,,,,,,,,,,,,,,,,,,,,,
,,"[""period""]",0,[0.33510000014305774],12,0,12,0,1,607176a53e0b57a4f8be7ac9,34,Mężczyzna,2022-06-04_08h11.17.477,task,2021.1.4,Win32,59.95203837,628b806c463b948bc644b84f,629af7335e289bc62307838a,,,,,,,,,,,,,,,,,,,,,,,,,,,,,,,,,,,,,,,,,,,,,,,,,,,,,,,,,,,,,,,,,,,,,,,,,,,,,,,,,,,,,,,,,,,,,,,,,,,,,,,
,,"[""comma""]",0,[0.32020000004769145],13,0,13,0,1,607176a53e0b57a4f8be7ac9,34,Mężczyzna,2022-06-04_08h11.17.477,task,2021.1.4,Win32,59.95203837,628b806c463b948bc644b84f,629af7335e289bc62307838a,,,,,,,,,,,,,,,,,,,,,,,,,,,,,,,,,,,,,,,,,,,,,,,,,,,,,,,,,,,,,,,,,,,,,,,,,,,,,,,,,,,,,,,,,,,,,,,,,,,,,,,
,,"[""period""]",0,[0.33539999985694635],14,0,14,0,1,607176a53e0b57a4f8be7ac9,34,Mężczyzna,2022-06-04_08h11.17.477,task,2021.1.4,Win32,59.95203837,628b806c463b948bc644b84f,629af7335e289bc62307838a,,,,,,,,,,,,,,,,,,,,,,,,,,,,,,,,,,,,,,,,,,,,,,,,,,,,,,,,,,,,,,,,,,,,,,,,,,,,,,,,,,,,,,,,,,,,,,,,,,,,,,,
,,"[""period""]",0,[0.4500999999046371],15,0,15,0,1,607176a53e0b57a4f8be7ac9,34,Mężczyzna,2022-06-04_08h11.17.477,task,2021.1.4,Win32,59.95203837,628b806c463b948bc644b84f,629af7335e289bc62307838a,,,,,,,,,,,,,,,,,,,,,,,,,,,,,,,,,,,,,,,,,,,,,,,,,,,,,,,,,,,,,,,,,,,,,,,,,,,,,,,,,,,,,,,,,,,,,,,,,,,,,,,
,,"[""comma""]",0,[0.40940000009535993],16,0,16,0,1,607176a53e0b57a4f8be7ac9,34,Mężczyzna,2022-06-04_08h11.17.477,task,2021.1.4,Win32,59.95203837,628b806c463b948bc644b84f,629af7335e289bc62307838a,,,,,,,,,,,,,,,,,,,,,,,,,,,,,,,,,,,,,,,,,,,,,,,,,,,,,,,,,,,,,,,,,,,,,,,,,,,,,,,,,,,,,,,,,,,,,,,,,,,,,,,
,,"[""comma""]",0,[0.38440000009538267],17,0,17,0,1,607176a53e0b57a4f8be7ac9,34,Mężczyzna,2022-06-04_08h11.17.477,task,2021.1.4,Win32,59.95203837,628b806c463b948bc644b84f,629af7335e289bc62307838a,,,,,,,,,,,,,,,,,,,,,,,,,,,,,,,,,,,,,,,,,,,,,,,,,,,,,,,,,,,,,,,,,,,,,,,,,,,,,,,,,,,,,,,,,,,,,,,,,,,,,,,
,,"[""comma""]",0,[0.375899999856955],18,0,18,0,1,607176a53e0b57a4f8be7ac9,34,Mężczyzna,2022-06-04_08h11.17.477,task,2021.1.4,Win32,59.95203837,628b806c463b948bc644b84f,629af7335e289bc62307838a,,,,,,,,,,,,,,,,,,,,,,,,,,,,,,,,,,,,,,,,,,,,,,,,,,,,,,,,,,,,,,,,,,,,,,,,,,,,,,,,,,,,,,,,,,,,,,,,,,,,,,,
,,"[""period""]",0,[0.3363999998569511],19,0,19,0,1,607176a53e0b57a4f8be7ac9,34,Mężczyzna,2022-06-04_08h11.17.477,task,2021.1.4,Win32,59.95203837,628b806c463b948bc644b84f,629af7335e289bc62307838a,,,,,,,,,,,,,,,,,,,,,,,,,,,,,,,,,,,,,,,,,,,,,,,,,,,,,,,,,,,,,,,,,,,,,,,,,,,,,,,,,,,,,,,,,,,,,,,,,,,,,,,
,,"[""comma""]",0,[0.3008000001907476],20,0,20,0,1,607176a53e0b57a4f8be7ac9,34,Mężczyzna,2022-06-04_08h11.17.477,task,2021.1.4,Win32,59.95203837,628b806c463b948bc644b84f,629af7335e289bc62307838a,,,,,,,,,,,,,,,,,,,,,,,,,,,,,,,,,,,,,,,,,,,,,,,,,,,,,,,,,,,,,,,,,,,,,,,,,,,,,,,,,,,,,,,,,,,,,,,,,,,,,,,
,,"[""period""]",0,[0.4842000000476787],21,0,21,0,1,607176a53e0b57a4f8be7ac9,34,Mężczyzna,2022-06-04_08h11.17.477,task,2021.1.4,Win32,59.95203837,628b806c463b948bc644b84f,629af7335e289bc62307838a,,,,,,,,,,,,,,,,,,,,,,,,,,,,,,,,,,,,,,,,,,,,,,,,,,,,,,,,,,,,,,,,,,,,,,,,,,,,,,,,,,,,,,,,,,,,,,,,,,,,,,,
,,"[""comma""]",0,[0.352400000095372],22,0,22,0,1,607176a53e0b57a4f8be7ac9,34,Mężczyzna,2022-06-04_08h11.17.477,task,2021.1.4,Win32,59.95203837,628b806c463b948bc644b84f,629af7335e289bc62307838a,,,,,,,,,,,,,,,,,,,,,,,,,,,,,,,,,,,,,,,,,,,,,,,,,,,,,,,,,,,,,,,,,,,,,,,,,,,,,,,,,,,,,,,,,,,,,,,,,,,,,,,
,,"[""comma""]",0,[0.3710000000000093],23,0,23,0,1,607176a53e0b57a4f8be7ac9,34,Mężczyzna,2022-06-04_08h11.17.477,task,2021.1.4,Win32,59.95203837,628b806c463b948bc644b84f,629af7335e289bc62307838a,,,,,,,,,,,,,,,,,,,,,,,,,,,,,,,,,,,,,,,,,,,,,,,,,,,,,,,,,,,,,,,,,,,,,,,,,,,,,,,,,,,,,,,,,,,,,,,,,,,,,,,
,,"[""period""]",0,[0.3656999998092658],24,0,24,0,1,607176a53e0b57a4f8be7ac9,34,Mężczyzna,2022-06-04_08h11.17.477,task,2021.1.4,Win32,59.95203837,628b806c463b948bc644b84f,629af7335e289bc62307838a,,,,,,,,,,,,,,,,,,,,,,,,,,,,,,,,,,,,,,,,,,,,,,,,,,,,,,,,,,,,,,,,,,,,,,,,,,,,,,,,,,,,,,,,,,,,,,,,,,,,,,,
,,"[""comma""]",0,[0.4322999999523063],25,0,25,0,1,607176a53e0b57a4f8be7ac9,34,Mężczyzna,2022-06-04_08h11.17.477,task,2021.1.4,Win32,59.95203837,628b806c463b948bc644b84f,629af7335e289bc62307838a,,,,,,,,,,,,,,,,,,,,,,,,,,,,,,,,,,,,,,,,,,,,,,,,,,,,,,,,,,,,,,,,,,,,,,,,,,,,,,,,,,,,,,,,,,,,,,,,,,,,,,,
,,"[""comma""]",0,[0.3830000000000098],26,0,26,0,1,607176a53e0b57a4f8be7ac9,34,Mężczyzna,2022-06-04_08h11.17.477,task,2021.1.4,Win32,59.95203837,628b806c463b948bc644b84f,629af7335e289bc62307838a,,,,,,,,,,,,,,,,,,,,,,,,,,,,,,,,,,,,,,,,,,,,,,,,,,,,,,,,,,,,,,,,,,,,,,,,,,,,,,,,,,,,,,,,,,,,,,,,,,,,,,,
,,"[""comma""]",0,[0.5652000000476676],27,0,27,0,1,607176a53e0b57a4f8be7ac9,34,Mężczyzna,2022-06-04_08h11.17.477,task,2021.1.4,Win32,59.95203837,628b806c463b948bc644b84f,629af7335e289bc62307838a,,,,,,,,,,,,,,,,,,,,,,,,,,,,,,,,,,,,,,,,,,,,,,,,,,,,,,,,,,,,,,,,,,,,,,,,,,,,,,,,,,,,,,,,,,,,,,,,,,,,,,,
,,"[""period""]",0,[0.5178000001907321],28,0,28,0,1,607176a53e0b57a4f8be7ac9,34,Mężczyzna,2022-06-04_08h11.17.477,task,2021.1.4,Win32,59.95203837,628b806c463b948bc644b84f,629af7335e289bc62307838a,,,,,,,,,,,,,,,,,,,,,,,,,,,,,,,,,,,,,,,,,,,,,,,,,,,,,,,,,,,,,,,,,,,,,,,,,,,,,,,,,,,,,,,,,,,,,,,,,,,,,,,
,,"[""period""]",0,[0.2961999998092608],29,0,29,0,1,607176a53e0b57a4f8be7ac9,34,Mężczyzna,2022-06-04_08h11.17.477,task,2021.1.4,Win32,59.95203837,628b806c463b948bc644b84f,629af7335e289bc62307838a,,,,,,,,,,,,,,,,,,,,,,,,,,,,,,,,,,,,,,,,,,,,,,,,,,,,,,,,,,,,,,,,,,,,,,,,,,,,,,,,,,,,,,,,,,,,,,,,,,,,,,,
,,"[""period""]",0,[0.34149999999999636],30,0,30,0,1,607176a53e0b57a4f8be7ac9,34,Mężczyzna,2022-06-04_08h11.17.477,task,2021.1.4,Win32,59.95203837,628b806c463b948bc644b84f,629af7335e289bc62307838a,,,,,,,,,,,,,,,,,,,,,,,,,,,,,,,,,,,,,,,,,,,,,,,,,,,,,,,,,,,,,,,,,,,,,,,,,,,,,,,,,,,,,,,,,,,,,,,,,,,,,,,
,,"[""comma""]",0,[0.33629999995230264],31,0,31,0,1,607176a53e0b57a4f8be7ac9,34,Mężczyzna,2022-06-04_08h11.17.477,task,2021.1.4,Win32,59.95203837,628b806c463b948bc644b84f,629af7335e289bc62307838a,,,,,,,,,,,,,,,,,,,,,,,,,,,,,,,,,,,,,,,,,,,,,,,,,,,,,,,,,,,,,,,,,,,,,,,,,,,,,,,,,,,,,,,,,,,,,,,,,,,,,,,
,,"[""period""]",0,[0.3287999999523379],32,0,32,0,1,607176a53e0b57a4f8be7ac9,34,Mężczyzna,2022-06-04_08h11.17.477,task,2021.1.4,Win32,59.95203837,628b806c463b948bc644b84f,629af7335e289bc62307838a,,,,,,,,,,,,,,,,,,,,,,,,,,,,,,,,,,,,,,,,,,,,,,,,,,,,,,,,,,,,,,,,,,,,,,,,,,,,,,,,,,,,,,,,,,,,,,,,,,,,,,,
,,"[""comma""]",0,[0.353999999999985],33,0,33,0,1,607176a53e0b57a4f8be7ac9,34,Mężczyzna,2022-06-04_08h11.17.477,task,2021.1.4,Win32,59.95203837,628b806c463b948bc644b84f,629af7335e289bc62307838a,,,,,,,,,,,,,,,,,,,,,,,,,,,,,,,,,,,,,,,,,,,,,,,,,,,,,,,,,,,,,,,,,,,,,,,,,,,,,,,,,,,,,,,,,,,,,,,,,,,,,,,
,,"[""period""]",0,[0.40139999985694885],34,0,34,0,1,607176a53e0b57a4f8be7ac9,34,Mężczyzna,2022-06-04_08h11.17.477,task,2021.1.4,Win32,59.95203837,628b806c463b948bc644b84f,629af7335e289bc62307838a,,,,,,,,,,,,,,,,,,,,,,,,,,,,,,,,,,,,,,,,,,,,,,,,,,,,,,,,,,,,,,,,,,,,,,,,,,,,,,,,,,,,,,,,,,,,,,,,,,,,,,,
,,"[""comma""]",0,[0.32099999999999795],35,0,35,0,1,607176a53e0b57a4f8be7ac9,34,Mężczyzna,2022-06-04_08h11.17.477,task,2021.1.4,Win32,59.95203837,628b806c463b948bc644b84f,629af7335e289bc62307838a,,,,,,,,,,,,,,,,,,,,,,,,,,,,,,,,,,,,,,,,,,,,,,,,,,,,,,,,,,,,,,,,,,,,,,,,,,,,,,,,,,,,,,,,,,,,,,,,,,,,,,,
,,"[""comma""]",0,[0.3437000000477042],36,0,36,0,1,607176a53e0b57a4f8be7ac9,34,Mężczyzna,2022-06-04_08h11.17.477,task,2021.1.4,Win32,59.95203837,628b806c463b948bc644b84f,629af7335e289bc62307838a,,,,,,,,,,,,,,,,,,,,,,,,,,,,,,,,,,,,,,,,,,,,,,,,,,,,,,,,,,,,,,,,,,,,,,,,,,,,,,,,,,,,,,,,,,,,,,,,,,,,,,,
,,"[""period""]",0,[0.3353000001907276],37,0,37,0,1,607176a53e0b57a4f8be7ac9,34,Mężczyzna,2022-06-04_08h11.17.477,task,2021.1.4,Win32,59.95203837,628b806c463b948bc644b84f,629af7335e289bc62307838a,,,,,,,,,,,,,,,,,,,,,,,,,,,,,,,,,,,,,,,,,,,,,,,,,,,,,,,,,,,,,,,,,,,,,,,,,,,,,,,,,,,,,,,,,,,,,,,,,,,,,,,
,,"[""period""]",0,[0.2688000001907369],38,0,38,0,1,607176a53e0b57a4f8be7ac9,34,Mężczyzna,2022-06-04_08h11.17.477,task,2021.1.4,Win32,59.95203837,628b806c463b948bc644b84f,629af7335e289bc62307838a,,,,,,,,,,,,,,,,,,,,,,,,,,,,,,,,,,,,,,,,,,,,,,,,,,,,,,,,,,,,,,,,,,,,,,,,,,,,,,,,,,,,,,,,,,,,,,,,,,,,,,,
,,"[""comma""]",0,[0.3357000000476944],39,0,39,0,1,607176a53e0b57a4f8be7ac9,34,Mężczyzna,2022-06-04_08h11.17.477,task,2021.1.4,Win32,59.95203837,628b806c463b948bc644b84f,629af7335e289bc62307838a,,,,,,,,,,,,,,,,,,,,,,,,,,,,,,,,,,,,,,,,,,,,,,,,,,,,,,,,,,,,,,,,,,,,,,,,,,,,,,,,,,,,,,,,,,,,,,,,,,,,,,,
,,"[""period""]",0,[0.36260000014306115],40,0,40,0,1,607176a53e0b57a4f8be7ac9,34,Mężczyzna,2022-06-04_08h11.17.477,task,2021.1.4,Win32,59.95203837,628b806c463b948bc644b84f,629af7335e289bc62307838a,,,,,,,,,,,,,,,,,,,,,,,,,,,,,,,,,,,,,,,,,,,,,,,,,,,,,,,,,,,,,,,,,,,,,,,,,,,,,,,,,,,,,,,,,,,,,,,,,,,,,,,
,,"[""comma""]",0,[0.5677000000476653],41,0,41,0,1,607176a53e0b57a4f8be7ac9,34,Mężczyzna,2022-06-04_08h11.17.477,task,2021.1.4,Win32,59.95203837,628b806c463b948bc644b84f,629af7335e289bc62307838a,,,,,,,,,,,,,,,,,,,,,,,,,,,,,,,,,,,,,,,,,,,,,,,,,,,,,,,,,,,,,,,,,,,,,,,,,,,,,,,,,,,,,,,,,,,,,,,,,,,,,,,
,,"[""comma""]",0,[0.5366000001430393],42,0,42,0,1,607176a53e0b57a4f8be7ac9,34,Mężczyzna,2022-06-04_08h11.17.477,task,2021.1.4,Win32,59.95203837,628b806c463b948bc644b84f,629af7335e289bc62307838a,,,,,,,,,,,,,,,,,,,,,,,,,,,,,,,,,,,,,,,,,,,,,,,,,,,,,,,,,,,,,,,,,,,,,,,,,,,,,,,,,,,,,,,,,,,,,,,,,,,,,,,
,,"[""period""]",0,[0.3937000000476871],43,0,43,0,1,607176a53e0b57a4f8be7ac9,34,Mężczyzna,2022-06-04_08h11.17.477,task,2021.1.4,Win32,59.95203837,628b806c463b948bc644b84f,629af7335e289bc62307838a,,,,,,,,,,,,,,,,,,,,,,,,,,,,,,,,,,,,,,,,,,,,,,,,,,,,,,,,,,,,,,,,,,,,,,,,,,,,,,,,,,,,,,,,,,,,,,,,,,,,,,,
,,"[""comma""]",0,[0.30520000004767667],44,0,44,0,1,607176a53e0b57a4f8be7ac9,34,Mężczyzna,2022-06-04_08h11.17.477,task,2021.1.4,Win32,59.95203837,628b806c463b948bc644b84f,629af7335e289bc62307838a,,,,,,,,,,,,,,,,,,,,,,,,,,,,,,,,,,,,,,,,,,,,,,,,,,,,,,,,,,,,,,,,,,,,,,,,,,,,,,,,,,,,,,,,,,,,,,,,,,,,,,,
,,"[""period""]",0,[0.40020000004767553],45,0,45,0,1,607176a53e0b57a4f8be7ac9,34,Mężczyzna,2022-06-04_08h11.17.477,task,2021.1.4,Win32,59.95203837,628b806c463b948bc644b84f,629af7335e289bc62307838a,,,,,,,,,,,,,,,,,,,,,,,,,,,,,,,,,,,,,,,,,,,,,,,,,,,,,,,,,,,,,,,,,,,,,,,,,,,,,,,,,,,,,,,,,,,,,,,,,,,,,,,
,,"[""comma""]",0,[0.33540000009537607],46,0,46,0,1,607176a53e0b57a4f8be7ac9,34,Mężczyzna,2022-06-04_08h11.17.477,task,2021.1.4,Win32,59.95203837,628b806c463b948bc644b84f,629af7335e289bc62307838a,,,,,,,,,,,,,,,,,,,,,,,,,,,,,,,,,,,,,,,,,,,,,,,,,,,,,,,,,,,,,,,,,,,,,,,,,,,,,,,,,,,,,,,,,,,,,,,,,,,,,,,
,,"[""period""]",0,[0.4034000000953597],47,0,47,0,1,607176a53e0b57a4f8be7ac9,34,Mężczyzna,2022-06-04_08h11.17.477,task,2021.1.4,Win32,59.95203837,628b806c463b948bc644b84f,629af7335e289bc62307838a,,,,,,,,,,,,,,,,,,,,,,,,,,,,,,,,,,,,,,,,,,,,,,,,,,,,,,,,,,,,,,,,,,,,,,,,,,,,,,,,,,,,,,,,,,,,,,,,,,,,,,,
,,"[""comma""]",0,[0.39229999995231424],48,0,48,0,1,607176a53e0b57a4f8be7ac9,34,Mężczyzna,2022-06-04_08h11.17.477,task,2021.1.4,Win32,59.95203837,628b806c463b948bc644b84f,629af7335e289bc62307838a,,,,,,,,,,,,,,,,,,,,,,,,,,,,,,,,,,,,,,,,,,,,,,,,,,,,,,,,,,,,,,,,,,,,,,,,,,,,,,,,,,,,,,,,,,,,,,,,,,,,,,,
,,"[""period""]",0,[0.45180000019075806],49,0,49,0,1,607176a53e0b57a4f8be7ac9,34,Mężczyzna,2022-06-04_08h11.17.477,task,2021.1.4,Win32,59.95203837,628b806c463b948bc644b84f,629af7335e289bc62307838a,,,,,,,,,,,,,,,,,,,,,,,,,,,,,,,,,,,,,,,,,,,,,,,,,,,,,,,,,,,,,,,,,,,,,,,,,,,,,,,,,,,,,,,,,,,,,,,,,,,,,,,
,,"[""comma""]",0,[0.41590000009537675],50,0,50,0,1,607176a53e0b57a4f8be7ac9,34,Mężczyzna,2022-06-04_08h11.17.477,task,2021.1.4,Win32,59.95203837,628b806c463b948bc644b84f,629af7335e289bc62307838a,,,,,,,,,,,,,,,,,,,,,,,,,,,,,,,,,,,,,,,,,,,,,,,,,,,,,,,,,,,,,,,,,,,,,,,,,,,,,,,,,,,,,,,,,,,,,,,,,,,,,,,
,,"[""comma""]",0,[0.3342999999523215],51,0,51,0,1,607176a53e0b57a4f8be7ac9,34,Mężczyzna,2022-06-04_08h11.17.477,task,2021.1.4,Win32,59.95203837,628b806c463b948bc644b84f,629af7335e289bc62307838a,,,,,,,,,,,,,,,,,,,,,,,,,,,,,,,,,,,,,,,,,,,,,,,,,,,,,,,,,,,,,,,,,,,,,,,,,,,,,,,,,,,,,,,,,,,,,,,,,,,,,,,
,,"[""period""]",0,[0.33260000014306],52,0,52,0,1,607176a53e0b57a4f8be7ac9,34,Mężczyzna,2022-06-04_08h11.17.477,task,2021.1.4,Win32,59.95203837,628b806c463b948bc644b84f,629af7335e289bc62307838a,,,,,,,,,,,,,,,,,,,,,,,,,,,,,,,,,,,,,,,,,,,,,,,,,,,,,,,,,,,,,,,,,,,,,,,,,,,,,,,,,,,,,,,,,,,,,,,,,,,,,,,
,,"[""comma""]",0,[0.3182999999523304],53,0,53,0,1,607176a53e0b57a4f8be7ac9,34,Mężczyzna,2022-06-04_08h11.17.477,task,2021.1.4,Win32,59.95203837,628b806c463b948bc644b84f,629af7335e289bc62307838a,,,,,,,,,,,,,,,,,,,,,,,,,,,,,,,,,,,,,,,,,,,,,,,,,,,,,,,,,,,,,,,,,,,,,,,,,,,,,,,,,,,,,,,,,,,,,,,,,,,,,,,
,,"[""comma""]",0,[0.6182999999522849],54,0,54,0,1,607176a53e0b57a4f8be7ac9,34,Mężczyzna,2022-06-04_08h11.17.477,task,2021.1.4,Win32,59.95203837,628b806c463b948bc644b84f,629af7335e289bc62307838a,,,,,,,,,,,,,,,,,,,,,,,,,,,,,,,,,,,,,,,,,,,,,,,,,,,,,,,,,,,,,,,,,,,,,,,,,,,,,,,,,,,,,,,,,,,,,,,,,,,,,,,
,,"[""period""]",0,[0.5352000000477233],55,0,55,0,1,607176a53e0b57a4f8be7ac9,34,Mężczyzna,2022-06-04_08h11.17.477,task,2021.1.4,Win32,59.95203837,628b806c463b948bc644b84f,629af7335e289bc62307838a,,,,,,,,,,,,,,,,,,,,,,,,,,,,,,,,,,,,,,,,,,,,,,,,,,,,,,,,,,,,,,,,,,,,,,,,,,,,,,,,,,,,,,,,,,,,,,,,,,,,,,,
,,"[""comma""]",0,[0.5932999999523645],56,0,56,0,1,607176a53e0b57a4f8be7ac9,34,Mężczyzna,2022-06-04_08h11.17.477,task,2021.1.4,Win32,59.95203837,628b806c463b948bc644b84f,629af7335e289bc62307838a,,,,,,,,,,,,,,,,,,,,,,,,,,,,,,,,,,,,,,,,,,,,,,,,,,,,,,,,,,,,,,,,,,,,,,,,,,,,,,,,,,,,,,,,,,,,,,,,,,,,,,,
,,"[""period""]",0,[0.5472999999523154],57,0,57,0,1,607176a53e0b57a4f8be7ac9,34,Mężczyzna,2022-06-04_08h11.17.477,task,2021.1.4,Win32,59.95203837,628b806c463b948bc644b84f,629af7335e289bc62307838a,,,,,,,,,,,,,,,,,,,,,,,,,,,,,,,,,,,,,,,,,,,,,,,,,,,,,,,,,,,,,,,,,,,,,,,,,,,,,,,,,,,,,,,,,,,,,,,,,,,,,,,
,,"[""comma""]",0,[0.5645000000000095],58,0,58,0,1,607176a53e0b57a4f8be7ac9,34,Mężczyzna,2022-06-04_08h11.17.477,task,2021.1.4,Win32,59.95203837,628b806c463b948bc644b84f,629af7335e289bc62307838a,,,,,,,,,,,,,,,,,,,,,,,,,,,,,,,,,,,,,,,,,,,,,,,,,,,,,,,,,,,,,,,,,,,,,,,,,,,,,,,,,,,,,,,,,,,,,,,,,,,,,,,
,,"[""period""]",0,[0.6159999999999854],59,0,59,0,1,607176a53e0b57a4f8be7ac9,34,Mężczyzna,2022-06-04_08h11.17.477,task,2021.1.4,Win32,59.95203837,628b806c463b948bc644b84f,629af7335e289bc62307838a,,,,,,,,,,,,,,,,,,,,,,,,,,,,,,,,,,,,,,,,,,,,,,,,,,,,,,,,,,,,,,,,,,,,,,,,,,,,,,,,,,,,,,,,,,,,,,,,,,,,,,,
,,"[""comma""]",0,[1.4339000000953774],60,0,60,0,1,607176a53e0b57a4f8be7ac9,34,Mężczyzna,2022-06-04_08h11.17.477,task,2021.1.4,Win32,59.95203837,628b806c463b948bc644b84f,629af7335e289bc62307838a,,,,,,,,,,,,,,,,,,,,,,,,,,,,,,,,,,,,,,,,,,,,,,,,,,,,,,,,,,,,,,,,,,,,,,,,,,,,,,,,,,,,,,,,,,,,,,,,,,,,,,,
,,"[""comma""]",0,[0.617999999999995],61,0,61,0,1,607176a53e0b57a4f8be7ac9,34,Mężczyzna,2022-06-04_08h11.17.477,task,2021.1.4,Win32,59.95203837,628b806c463b948bc644b84f,629af7335e289bc62307838a,,,,,,,,,,,,,,,,,,,,,,,,,,,,,,,,,,,,,,,,,,,,,,,,,,,,,,,,,,,,,,,,,,,,,,,,,,,,,,,,,,,,,,,,,,,,,,,,,,,,,,,
,,"[""period""]",0,[0.28649999999998954],62,0,62,0,1,607176a53e0b57a4f8be7ac9,34,Mężczyzna,2022-06-04_08h11.17.477,task,2021.1.4,Win32,59.95203837,628b806c463b948bc644b84f,629af7335e289bc62307838a,,,,,,,,,,,,,,,,,,,,,,,,,,,,,,,,,,,,,,,,,,,,,,,,,,,,,,,,,,,,,,,,,,,,,,,,,,,,,,,,,,,,,,,,,,,,,,,,,,,,,,,
,,"[""comma""]",0,[0.26820000004772737],63,0,63,0,1,607176a53e0b57a4f8be7ac9,34,Mężczyzna,2022-06-04_08h11.17.477,task,2021.1.4,Win32,59.95203837,628b806c463b948bc644b84f,629af7335e289bc62307838a,,,,,,,,,,,,,,,,,,,,,,,,,,,,,,,,,,,,,,,,,,,,,,,,,,,,,,,,,,,,,,,,,,,,,,,,,,,,,,,,,,,,,,,,,,,,,,,,,,,,,,,
,,"[""comma""]",0,[0.3343999998569416],64,0,64,0,1,607176a53e0b57a4f8be7ac9,34,Mężczyzna,2022-06-04_08h11.17.477,task,2021.1.4,Win32,59.95203837,628b806c463b948bc644b84f,629af7335e289bc62307838a,,,,,,,,,,,,,,,,,,,,,,,,,,,,,,,,,,,,,,,,,,,,,,,,,,,,,,,,,,,,,,,,,,,,,,,,,,,,,,,,,,,,,,,,,,,,,,,,,,,,,,,
,,"[""period""]",0,[0.29879999995233675],65,0,65,0,1,607176a53e0b57a4f8be7ac9,34,Mężczyzna,2022-06-04_08h11.17.477,task,2021.1.4,Win32,59.95203837,628b806c463b948bc644b84f,629af7335e289bc62307838a,,,,,,,,,,,,,,,,,,,,,,,,,,,,,,,,,,,,,,,,,,,,,,,,,,,,,,,,,,,,,,,,,,,,,,,,,,,,,,,,,,,,,,,,,,,,,,,,,,,,,,,
,,"[""comma""]",0,[0.3230000000000359],66,0,66,0,1,607176a53e0b57a4f8be7ac9,34,Mężczyzna,2022-06-04_08h11.17.477,task,2021.1.4,Win32,59.95203837,628b806c463b948bc644b84f,629af7335e289bc62307838a,,,,,,,,,,,,,,,,,,,,,,,,,,,,,,,,,,,,,,,,,,,,,,,,,,,,,,,,,,,,,,,,,,,,,,,,,,,,,,,,,,,,,,,,,,,,,,,,,,,,,,,
,,"[""period""]",0,[0.31789999985693385],67,0,67,0,1,607176a53e0b57a4f8be7ac9,34,Mężczyzna,2022-06-04_08h11.17.477,task,2021.1.4,Win32,59.95203837,628b806c463b948bc644b84f,629af7335e289bc62307838a,,,,,,,,,,,,,,,,,,,,,,,,,,,,,,,,,,,,,,,,,,,,,,,,,,,,,,,,,,,,,,,,,,,,,,,,,,,,,,,,,,,,,,,,,,,,,,,,,,,,,,,
,,"[""comma""]",0,[0.3849999999999909],68,0,68,0,1,607176a53e0b57a4f8be7ac9,34,Mężczyzna,2022-06-04_08h11.17.477,task,2021.1.4,Win32,59.95203837,628b806c463b948bc644b84f,629af7335e289bc62307838a,,,,,,,,,,,,,,,,,,,,,,,,,,,,,,,,,,,,,,,,,,,,,,,,,,,,,,,,,,,,,,,,,,,,,,,,,,,,,,,,,,,,,,,,,,,,,,,,,,,,,,,
,,"[""comma""]",0,[0.3180999999046321],69,0,69,0,1,607176a53e0b57a4f8be7ac9,34,Mężczyzna,2022-06-04_08h11.17.477,task,2021.1.4,Win32,59.95203837,628b806c463b948bc644b84f,629af7335e289bc62307838a,,,,,,,,,,,,,,,,,,,,,,,,,,,,,,,,,,,,,,,,,,,,,,,,,,,,,,,,,,,,,,,,,,,,,,,,,,,,,,,,,,,,,,,,,,,,,,,,,,,,,,,
,,"[""period""]",0,[0.3033000001907453],70,0,70,0,1,607176a53e0b57a4f8be7ac9,34,Mężczyzna,2022-06-04_08h11.17.477,task,2021.1.4,Win32,59.95203837,628b806c463b948bc644b84f,629af7335e289bc62307838a,,,,,,,,,,,,,,,,,,,,,,,,,,,,,,,,,,,,,,,,,,,,,,,,,,,,,,,,,,,,,,,,,,,,,,,,,,,,,,,,,,,,,,,,,,,,,,,,,,,,,,,
,,"[""comma""]",0,[0.25059999990463666],71,0,71,0,1,607176a53e0b57a4f8be7ac9,34,Mężczyzna,2022-06-04_08h11.17.477,task,2021.1.4,Win32,59.95203837,628b806c463b948bc644b84f,629af7335e289bc62307838a,,,,,,,,,,,,,,,,,,,,,,,,,,,,,,,,,,,,,,,,,,,,,,,,,,,,,,,,,,,,,,,,,,,,,,,,,,,,,,,,,,,,,,,,,,,,,,,,,,,,,,,
,,"[""period""]",0,[0.4029000000953715],72,0,72,0,1,607176a53e0b57a4f8be7ac9,34,Mężczyzna,2022-06-04_08h11.17.477,task,2021.1.4,Win32,59.95203837,628b806c463b948bc644b84f,629af7335e289bc62307838a,,,,,,,,,,,,,,,,,,,,,,,,,,,,,,,,,,,,,,,,,,,,,,,,,,,,,,,,,,,,,,,,,,,,,,,,,,,,,,,,,,,,,,,,,,,,,,,,,,,,,,,
,,"[""period""]",0,[0.31990000009540154],73,0,73,0,1,607176a53e0b57a4f8be7ac9,34,Mężczyzna,2022-06-04_08h11.17.477,task,2021.1.4,Win32,59.95203837,628b806c463b948bc644b84f,629af7335e289bc62307838a,,,,,,,,,,,,,,,,,,,,,,,,,,,,,,,,,,,,,,,,,,,,,,,,,,,,,,,,,,,,,,,,,,,,,,,,,,,,,,,,,,,,,,,,,,,,,,,,,,,,,,,
,,"[""period""]",0,[0.2914000000953365],74,0,74,0,1,607176a53e0b57a4f8be7ac9,34,Mężczyzna,2022-06-04_08h11.17.477,task,2021.1.4,Win32,59.95203837,628b806c463b948bc644b84f,629af7335e289bc62307838a,,,,,,,,,,,,,,,,,,,,,,,,,,,,,,,,,,,,,,,,,,,,,,,,,,,,,,,,,,,,,,,,,,,,,,,,,,,,,,,,,,,,,,,,,,,,,,,,,,,,,,,
,,"[""comma""]",0,[0.3028999998569475],75,0,75,0,1,607176a53e0b57a4f8be7ac9,34,Mężczyzna,2022-06-04_08h11.17.477,task,2021.1.4,Win32,59.95203837,628b806c463b948bc644b84f,629af7335e289bc62307838a,,,,,,,,,,,,,,,,,,,,,,,,,,,,,,,,,,,,,,,,,,,,,,,,,,,,,,,,,,,,,,,,,,,,,,,,,,,,,,,,,,,,,,,,,,,,,,,,,,,,,,,
,,"[""comma""]",0,[0.31620000004767235],76,0,76,0,1,607176a53e0b57a4f8be7ac9,34,Mężczyzna,2022-06-04_08h11.17.477,task,2021.1.4,Win32,59.95203837,628b806c463b948bc644b84f,629af7335e289bc62307838a,,,,,,,,,,,,,,,,,,,,,,,,,,,,,,,,,,,,,,,,,,,,,,,,,,,,,,,,,,,,,,,,,,,,,,,,,,,,,,,,,,,,,,,,,,,,,,,,,,,,,,,
,,"[""period""]",0,[0.3176999998092924],77,0,77,0,1,607176a53e0b57a4f8be7ac9,34,Mężczyzna,2022-06-04_08h11.17.477,task,2021.1.4,Win32,59.95203837,628b806c463b948bc644b84f,629af7335e289bc62307838a,,,,,,,,,,,,,,,,,,,,,,,,,,,,,,,,,,,,,,,,,,,,,,,,,,,,,,,,,,,,,,,,,,,,,,,,,,,,,,,,,,,,,,,,,,,,,,,,,,,,,,,
,,"[""comma""]",0,[0.32009999990464166],78,0,78,0,1,607176a53e0b57a4f8be7ac9,34,Mężczyzna,2022-06-04_08h11.17.477,task,2021.1.4,Win32,59.95203837,628b806c463b948bc644b84f,629af7335e289bc62307838a,,,,,,,,,,,,,,,,,,,,,,,,,,,,,,,,,,,,,,,,,,,,,,,,,,,,,,,,,,,,,,,,,,,,,,,,,,,,,,,,,,,,,,,,,,,,,,,,,,,,,,,
,,"[""period""]",0,[0.3008999998569948],79,0,79,0,1,607176a53e0b57a4f8be7ac9,34,Mężczyzna,2022-06-04_08h11.17.477,task,2021.1.4,Win32,59.95203837,628b806c463b948bc644b84f,629af7335e289bc62307838a,,,,,,,,,,,,,,,,,,,,,,,,,,,,,,,,,,,,,,,,,,,,,,,,,,,,,,,,,,,,,,,,,,,,,,,,,,,,,,,,,,,,,,,,,,,,,,,,,,,,,,,
,,"[""comma""]",0,[0.31989999985700024],80,0,80,0,1,607176a53e0b57a4f8be7ac9,34,Mężczyzna,2022-06-04_08h11.17.477,task,2021.1.4,Win32,59.95203837,628b806c463b948bc644b84f,629af7335e289bc62307838a,,,,,,,,,,,,,,,,,,,,,,,,,,,,,,,,,,,,,,,,,,,,,,,,,,,,,,,,,,,,,,,,,,,,,,,,,,,,,,,,,,,,,,,,,,,,,,,,,,,,,,,
,,"[""comma""]",0,[0.30100000000004457],81,0,81,0,1,607176a53e0b57a4f8be7ac9,34,Mężczyzna,2022-06-04_08h11.17.477,task,2021.1.4,Win32,59.95203837,628b806c463b948bc644b84f,629af7335e289bc62307838a,,,,,,,,,,,,,,,,,,,,,,,,,,,,,,,,,,,,,,,,,,,,,,,,,,,,,,,,,,,,,,,,,,,,,,,,,,,,,,,,,,,,,,,,,,,,,,,,,,,,,,,
,,"[""comma""]",0,[0.3190000000000168],82,0,82,0,1,607176a53e0b57a4f8be7ac9,34,Mężczyzna,2022-06-04_08h11.17.477,task,2021.1.4,Win32,59.95203837,628b806c463b948bc644b84f,629af7335e289bc62307838a,,,,,,,,,,,,,,,,,,,,,,,,,,,,,,,,,,,,,,,,,,,,,,,,,,,,,,,,,,,,,,,,,,,,,,,,,,,,,,,,,,,,,,,,,,,,,,,,,,,,,,,
,,"[""period""]",0,[0.257000000000005],83,0,83,0,1,607176a53e0b57a4f8be7ac9,34,Mężczyzna,2022-06-04_08h11.17.477,task,2021.1.4,Win32,59.95203837,628b806c463b948bc644b84f,629af7335e289bc62307838a,,,,,,,,,,,,,,,,,,,,,,,,,,,,,,,,,,,,,,,,,,,,,,,,,,,,,,,,,,,,,,,,,,,,,,,,,,,,,,,,,,,,,,,,,,,,,,,,,,,,,,,
,,"[""period""]",0,[0.2843999998569302],84,0,84,0,1,607176a53e0b57a4f8be7ac9,34,Mężczyzna,2022-06-04_08h11.17.477,task,2021.1.4,Win32,59.95203837,628b806c463b948bc644b84f,629af7335e289bc62307838a,,,,,,,,,,,,,,,,,,,,,,,,,,,,,,,,,,,,,,,,,,,,,,,,,,,,,,,,,,,,,,,,,,,,,,,,,,,,,,,,,,,,,,,,,,,,,,,,,,,,,,,
,,"[""comma""]",0,[0.23409999990462893],85,0,85,0,1,607176a53e0b57a4f8be7ac9,34,Mężczyzna,2022-06-04_08h11.17.477,task,2021.1.4,Win32,59.95203837,628b806c463b948bc644b84f,629af7335e289bc62307838a,,,,,,,,,,,,,,,,,,,,,,,,,,,,,,,,,,,,,,,,,,,,,,,,,,,,,,,,,,,,,,,,,,,,,,,,,,,,,,,,,,,,,,,,,,,,,,,,,,,,,,,
,,"[""period""]",0,[0.3177000000476369],86,0,86,0,1,607176a53e0b57a4f8be7ac9,34,Mężczyzna,2022-06-04_08h11.17.477,task,2021.1.4,Win32,59.95203837,628b806c463b948bc644b84f,629af7335e289bc62307838a,,,,,,,,,,,,,,,,,,,,,,,,,,,,,,,,,,,,,,,,,,,,,,,,,,,,,,,,,,,,,,,,,,,,,,,,,,,,,,,,,,,,,,,,,,,,,,,,,,,,,,,
,,"[""comma""]",0,[0.28079999995230764],87,0,87,0,1,607176a53e0b57a4f8be7ac9,34,Mężczyzna,2022-06-04_08h11.17.477,task,2021.1.4,Win32,59.95203837,628b806c463b948bc644b84f,629af7335e289bc62307838a,,,,,,,,,,,,,,,,,,,,,,,,,,,,,,,,,,,,,,,,,,,,,,,,,,,,,,,,,,,,,,,,,,,,,,,,,,,,,,,,,,,,,,,,,,,,,,,,,,,,,,,
,,"[""period""]",0,[0.3505000000000109],88,0,88,0,1,607176a53e0b57a4f8be7ac9,34,Mężczyzna,2022-06-04_08h11.17.477,task,2021.1.4,Win32,59.95203837,628b806c463b948bc644b84f,629af7335e289bc62307838a,,,,,,,,,,,,,,,,,,,,,,,,,,,,,,,,,,,,,,,,,,,,,,,,,,,,,,,,,,,,,,,,,,,,,,,,,,,,,,,,,,,,,,,,,,,,,,,,,,,,,,,
,,"[""comma""]",0,[0.40309999990461165],89,0,89,0,1,607176a53e0b57a4f8be7ac9,34,Mężczyzna,2022-06-04_08h11.17.477,task,2021.1.4,Win32,59.95203837,628b806c463b948bc644b84f,629af7335e289bc62307838a,,,,,,,,,,,,,,,,,,,,,,,,,,,,,,,,,,,,,,,,,,,,,,,,,,,,,,,,,,,,,,,,,,,,,,,,,,,,,,,,,,,,,,,,,,,,,,,,,,,,,,,
,,"[""comma""]",0,[0.301200000047686],90,0,90,0,1,607176a53e0b57a4f8be7ac9,34,Mężczyzna,2022-06-04_08h11.17.477,task,2021.1.4,Win32,59.95203837,628b806c463b948bc644b84f,629af7335e289bc62307838a,,,,,,,,,,,,,,,,,,,,,,,,,,,,,,,,,,,,,,,,,,,,,,,,,,,,,,,,,,,,,,,,,,,,,,,,,,,,,,,,,,,,,,,,,,,,,,,,,,,,,,,
,,"[""period""]",0,[0.4851000001430066],91,0,91,0,1,607176a53e0b57a4f8be7ac9,34,Mężczyzna,2022-06-04_08h11.17.477,task,2021.1.4,Win32,59.95203837,628b806c463b948bc644b84f,629af7335e289bc62307838a,,,,,,,,,,,,,,,,,,,,,,,,,,,,,,,,,,,,,,,,,,,,,,,,,,,,,,,,,,,,,,,,,,,,,,,,,,,,,,,,,,,,,,,,,,,,,,,,,,,,,,,
,,"[""comma""]",0,[0.3341999998092433],92,0,92,0,1,607176a53e0b57a4f8be7ac9,34,Mężczyzna,2022-06-04_08h11.17.477,task,2021.1.4,Win32,59.95203837,628b806c463b948bc644b84f,629af7335e289bc62307838a,,,,,,,,,,,,,,,,,,,,,,,,,,,,,,,,,,,,,,,,,,,,,,,,,,,,,,,,,,,,,,,,,,,,,,,,,,,,,,,,,,,,,,,,,,,,,,,,,,,,,,,
,,"[""period""]",0,[0.2695999999046421],93,0,93,0,1,607176a53e0b57a4f8be7ac9,34,Mężczyzna,2022-06-04_08h11.17.477,task,2021.1.4,Win32,59.95203837,628b806c463b948bc644b84f,629af7335e289bc62307838a,,,,,,,,,,,,,,,,,,,,,,,,,,,,,,,,,,,,,,,,,,,,,,,,,,,,,,,,,,,,,,,,,,,,,,,,,,,,,,,,,,,,,,,,,,,,,,,,,,,,,,,
,,"[""comma""]",0,[0.26949999999999363],94,0,94,0,1,607176a53e0b57a4f8be7ac9,34,Mężczyzna,2022-06-04_08h11.17.477,task,2021.1.4,Win32,59.95203837,628b806c463b948bc644b84f,629af7335e289bc62307838a,,,,,,,,,,,,,,,,,,,,,,,,,,,,,,,,,,,,,,,,,,,,,,,,,,,,,,,,,,,,,,,,,,,,,,,,,,,,,,,,,,,,,,,,,,,,,,,,,,,,,,,
,,"[""comma""]",0,[0.35129999995234584],95,0,95,0,1,607176a53e0b57a4f8be7ac9,34,Mężczyzna,2022-06-04_08h11.17.477,task,2021.1.4,Win32,59.95203837,628b806c463b948bc644b84f,629af7335e289bc62307838a,,,,,,,,,,,,,,,,,,,,,,,,,,,,,,,,,,,,,,,,,,,,,,,,,,,,,,,,,,,,,,,,,,,,,,,,,,,,,,,,,,,,,,,,,,,,,,,,,,,,,,,
,,"[""comma""]",0,[0.31790000009533514],96,0,96,0,1,607176a53e0b57a4f8be7ac9,34,Mężczyzna,2022-06-04_08h11.17.477,task,2021.1.4,Win32,59.95203837,628b806c463b948bc644b84f,629af7335e289bc62307838a,,,,,,,,,,,,,,,,,,,,,,,,,,,,,,,,,,,,,,,,,,,,,,,,,,,,,,,,,,,,,,,,,,,,,,,,,,,,,,,,,,,,,,,,,,,,,,,,,,,,,,,
,,"[""comma""]",0,[0.3002999999523013],97,0,97,0,1,607176a53e0b57a4f8be7ac9,34,Mężczyzna,2022-06-04_08h11.17.477,task,2021.1.4,Win32,59.95203837,628b806c463b948bc644b84f,629af7335e289bc62307838a,,,,,,,,,,,,,,,,,,,,,,,,,,,,,,,,,,,,,,,,,,,,,,,,,,,,,,,,,,,,,,,,,,,,,,,,,,,,,,,,,,,,,,,,,,,,,,,,,,,,,,,
,,"[""period""]",0,[0.2830999999046071],98,0,98,0,1,607176a53e0b57a4f8be7ac9,34,Mężczyzna,2022-06-04_08h11.17.477,task,2021.1.4,Win32,59.95203837,628b806c463b948bc644b84f,629af7335e289bc62307838a,,,,,,,,,,,,,,,,,,,,,,,,,,,,,,,,,,,,,,,,,,,,,,,,,,,,,,,,,,,,,,,,,,,,,,,,,,,,,,,,,,,,,,,,,,,,,,,,,,,,,,,
,,"[""comma""]",0,[0.28809999990460256],99,0,99,0,1,607176a53e0b57a4f8be7ac9,34,Mężczyzna,2022-06-04_08h11.17.477,task,2021.1.4,Win32,59.95203837,628b806c463b948bc644b84f,629af7335e289bc62307838a,,,,,,,,,,,,,,,,,,,,,,,,,,,,,,,,,,,,,,,,,,,,,,,,,,,,,,,,,,,,,,,,,,,,,,,,,,,,,,,,,,,,,,,,,,,,,,,,,,,,,,,
,,"[""comma""]",0,[0.3344000000953429],100,0,100,0,1,607176a53e0b57a4f8be7ac9,34,Mężczyzna,2022-06-04_08h11.17.477,task,2021.1.4,Win32,59.95203837,628b806c463b948bc644b84f,629af7335e289bc62307838a,,,,,,,,,,,,,,,,,,,,,,,,,,,,,,,,,,,,,,,,,,,,,,,,,,,,,,,,,,,,,,,,,,,,,,,,,,,,,,,,,,,,,,,,,,,,,,,,,,,,,,,
,,"[""comma""]",0,[0.29939999985691657],101,0,101,0,1,607176a53e0b57a4f8be7ac9,34,Mężczyzna,2022-06-04_08h11.17.477,task,2021.1.4,Win32,59.95203837,628b806c463b948bc644b84f,629af7335e289bc62307838a,,,,,,,,,,,,,,,,,,,,,,,,,,,,,,,,,,,,,,,,,,,,,,,,,,,,,,,,,,,,,,,,,,,,,,,,,,,,,,,,,,,,,,,,,,,,,,,,,,,,,,,
,,"[""period""]",0,[0.23629999995233675],102,0,102,0,1,607176a53e0b57a4f8be7ac9,34,Mężczyzna,2022-06-04_08h11.17.477,task,2021.1.4,Win32,59.95203837,628b806c463b948bc644b84f,629af7335e289bc62307838a,,,,,,,,,,,,,,,,,,,,,,,,,,,,,,,,,,,,,,,,,,,,,,,,,,,,,,,,,,,,,,,,,,,,,,,,,,,,,,,,,,,,,,,,,,,,,,,,,,,,,,,
,,"[""period""]",0,[0.30929999995231583],103,0,103,0,1,607176a53e0b57a4f8be7ac9,34,Mężczyzna,2022-06-04_08h11.17.477,task,2021.1.4,Win32,59.95203837,628b806c463b948bc644b84f,629af7335e289bc62307838a,,,,,,,,,,,,,,,,,,,,,,,,,,,,,,,,,,,,,,,,,,,,,,,,,,,,,,,,,,,,,,,,,,,,,,,,,,,,,,,,,,,,,,,,,,,,,,,,,,,,,,,
,,"[""period""]",0,[0.3182000000476819],104,0,104,0,1,607176a53e0b57a4f8be7ac9,34,Mężczyzna,2022-06-04_08h11.17.477,task,2021.1.4,Win32,59.95203837,628b806c463b948bc644b84f,629af7335e289bc62307838a,,,,,,,,,,,,,,,,,,,,,,,,,,,,,,,,,,,,,,,,,,,,,,,,,,,,,,,,,,,,,,,,,,,,,,,,,,,,,,,,,,,,,,,,,,,,,,,,,,,,,,,
,,"[""comma""]",0,[0.2845999999046285],105,0,105,0,1,607176a53e0b57a4f8be7ac9,34,Mężczyzna,2022-06-04_08h11.17.477,task,2021.1.4,Win32,59.95203837,628b806c463b948bc644b84f,629af7335e289bc62307838a,,,,,,,,,,,,,,,,,,,,,,,,,,,,,,,,,,,,,,,,,,,,,,,,,,,,,,,,,,,,,,,,,,,,,,,,,,,,,,,,,,,,,,,,,,,,,,,,,,,,,,,
,,"[""period""]",0,[0.41770000004771646],106,0,106,0,1,607176a53e0b57a4f8be7ac9,34,Mężczyzna,2022-06-04_08h11.17.477,task,2021.1.4,Win32,59.95203837,628b806c463b948bc644b84f,629af7335e289bc62307838a,,,,,,,,,,,,,,,,,,,,,,,,,,,,,,,,,,,,,,,,,,,,,,,,,,,,,,,,,,,,,,,,,,,,,,,,,,,,,,,,,,,,,,,,,,,,,,,,,,,,,,,
,,"[""comma""]",0,[0.37579999995233493],107,0,107,0,1,607176a53e0b57a4f8be7ac9,34,Mężczyzna,2022-06-04_08h11.17.477,task,2021.1.4,Win32,59.95203837,628b806c463b948bc644b84f,629af7335e289bc62307838a,,,,,,,,,,,,,,,,,,,,,,,,,,,,,,,,,,,,,,,,,,,,,,,,,,,,,,,,,,,,,,,,,,,,,,,,,,,,,,,,,,,,,,,,,,,,,,,,,,,,,,,
,,"[""period""]",0,[0.41800000000000637],108,0,108,0,1,607176a53e0b57a4f8be7ac9,34,Mężczyzna,2022-06-04_08h11.17.477,task,2021.1.4,Win32,59.95203837,628b806c463b948bc644b84f,629af7335e289bc62307838a,,,,,,,,,,,,,,,,,,,,,,,,,,,,,,,,,,,,,,,,,,,,,,,,,,,,,,,,,,,,,,,,,,,,,,,,,,,,,,,,,,,,,,,,,,,,,,,,,,,,,,,
,,"[""comma""]",0,[0.305499999999995],109,0,109,0,1,607176a53e0b57a4f8be7ac9,34,Mężczyzna,2022-06-04_08h11.17.477,task,2021.1.4,Win32,59.95203837,628b806c463b948bc644b84f,629af7335e289bc62307838a,,,,,,,,,,,,,,,,,,,,,,,,,,,,,,,,,,,,,,,,,,,,,,,,,,,,,,,,,,,,,,,,,,,,,,,,,,,,,,,,,,,,,,,,,,,,,,,,,,,,,,,
,,"[""period""]",0,[0.2208000001907635],110,0,110,0,1,607176a53e0b57a4f8be7ac9,34,Mężczyzna,2022-06-04_08h11.17.477,task,2021.1.4,Win32,59.95203837,628b806c463b948bc644b84f,629af7335e289bc62307838a,,,,,,,,,,,,,,,,,,,,,,,,,,,,,,,,,,,,,,,,,,,,,,,,,,,,,,,,,,,,,,,,,,,,,,,,,,,,,,,,,,,,,,,,,,,,,,,,,,,,,,,
,,"[""comma""]",0,[0.2504000000953397],111,0,111,0,1,607176a53e0b57a4f8be7ac9,34,Mężczyzna,2022-06-04_08h11.17.477,task,2021.1.4,Win32,59.95203837,628b806c463b948bc644b84f,629af7335e289bc62307838a,,,,,,,,,,,,,,,,,,,,,,,,,,,,,,,,,,,,,,,,,,,,,,,,,,,,,,,,,,,,,,,,,,,,,,,,,,,,,,,,,,,,,,,,,,,,,,,,,,,,,,,
,,"[""period""]",0,[0.3035000000000423],112,0,112,0,1,607176a53e0b57a4f8be7ac9,34,Mężczyzna,2022-06-04_08h11.17.477,task,2021.1.4,Win32,59.95203837,628b806c463b948bc644b84f,629af7335e289bc62307838a,,,,,,,,,,,,,,,,,,,,,,,,,,,,,,,,,,,,,,,,,,,,,,,,,,,,,,,,,,,,,,,,,,,,,,,,,,,,,,,,,,,,,,,,,,,,,,,,,,,,,,,
,,"[""comma""]",0,[0.3511999998092392],113,0,113,0,1,607176a53e0b57a4f8be7ac9,34,Mężczyzna,2022-06-04_08h11.17.477,task,2021.1.4,Win32,59.95203837,628b806c463b948bc644b84f,629af7335e289bc62307838a,,,,,,,,,,,,,,,,,,,,,,,,,,,,,,,,,,,,,,,,,,,,,,,,,,,,,,,,,,,,,,,,,,,,,,,,,,,,,,,,,,,,,,,,,,,,,,,,,,,,,,,
,,"[""period""]",0,[0.3180999999046321],114,0,114,0,1,607176a53e0b57a4f8be7ac9,34,Mężczyzna,2022-06-04_08h11.17.477,task,2021.1.4,Win32,59.95203837,628b806c463b948bc644b84f,629af7335e289bc62307838a,,,,,,,,,,,,,,,,,,,,,,,,,,,,,,,,,,,,,,,,,,,,,,,,,,,,,,,,,,,,,,,,,,,,,,,,,,,,,,,,,,,,,,,,,,,,,,,,,,,,,,,
,,"[""comma""]",0,[0.30670000004772646],115,0,115,0,1,607176a53e0b57a4f8be7ac9,34,Mężczyzna,2022-06-04_08h11.17.477,task,2021.1.4,Win32,59.95203837,628b806c463b948bc644b84f,629af7335e289bc62307838a,,,,,,,,,,,,,,,,,,,,,,,,,,,,,,,,,,,,,,,,,,,,,,,,,,,,,,,,,,,,,,,,,,,,,,,,,,,,,,,,,,,,,,,,,,,,,,,,,,,,,,,
,,"[""period""]",0,[0.31799999999998363],116,0,116,0,1,607176a53e0b57a4f8be7ac9,34,Mężczyzna,2022-06-04_08h11.17.477,task,2021.1.4,Win32,59.95203837,628b806c463b948bc644b84f,629af7335e289bc62307838a,,,,,,,,,,,,,,,,,,,,,,,,,,,,,,,,,,,,,,,,,,,,,,,,,,,,,,,,,,,,,,,,,,,,,,,,,,,,,,,,,,,,,,,,,,,,,,,,,,,,,,,
,,"[""period""]",0,[0.37000000000000455],117,0,117,0,1,607176a53e0b57a4f8be7ac9,34,Mężczyzna,2022-06-04_08h11.17.477,task,2021.1.4,Win32,59.95203837,628b806c463b948bc644b84f,629af7335e289bc62307838a,,,,,,,,,,,,,,,,,,,,,,,,,,,,,,,,,,,,,,,,,,,,,,,,,,,,,,,,,,,,,,,,,,,,,,,,,,,,,,,,,,,,,,,,,,,,,,,,,,,,,,,
,,"[""period""]",0,[0.3188999998569102],118,0,118,0,1,607176a53e0b57a4f8be7ac9,34,Mężczyzna,2022-06-04_08h11.17.477,task,2021.1.4,Win32,59.95203837,628b806c463b948bc644b84f,629af7335e289bc62307838a,,,,,,,,,,,,,,,,,,,,,,,,,,,,,,,,,,,,,,,,,,,,,,,,,,,,,,,,,,,,,,,,,,,,,,,,,,,,,,,,,,,,,,,,,,,,,,,,,,,,,,,
,,"[""comma""]",0,[0.2842999999522817],119,0,119,0,1,607176a53e0b57a4f8be7ac9,34,Mężczyzna,2022-06-04_08h11.17.477,task,2021.1.4,Win32,59.95203837,628b806c463b948bc644b84f,629af7335e289bc62307838a,,,,,,,,,,,,,,,,,,,,,,,,,,,,,,,,,,,,,,,,,,,,,,,,,,,,,,,,,,,,,,,,,,,,,,,,,,,,,,,,,,,,,,,,,,,,,,,,,,,,,,,
,,,,,,,,,,607176a53e0b57a4f8be7ac9,34,Mężczyzna,2022-06-04_08h11.17.477,task,2021.1.4,Win32,59.95203837,628b806c463b948bc644b84f,629af7335e289bc62307838a,space,15.0049,space,7.7929,0,0,0,0,1,X V Q F H G B L J M P D K C T S W R N Z,,,,,,,,,,,,,,,,,,,,,,,,,,,,,,,,,,,,,,,,,,,,,,,,,,,,,,,,,,,,,,,,,,,,,,,,,,,,,,,,,,,,,,,,,,,,,
,,,,,,,,,,607176a53e0b57a4f8be7ac9,34,Mężczyzna,2022-06-04_08h11.17.477,task,2021.1.4,Win32,59.95203837,628b806c463b948bc644b84f,629af7335e289bc62307838a,,,,,1,0,1,0,1,X V Q F H G B L J M P D K C T S W R N Z,,,,,,,,,,,,,,,,,,,,,,,,,,,,,,,,,,,,,,,,,,,,,,,,,,,,,,,,,,,,,,,,,,,,,,,,,,,,,,,,,,,,,,,,,,,,,
,,,,,,,,,,607176a53e0b57a4f8be7ac9,34,Mężczyzna,2022-06-04_08h11.17.477,task,2021.1.4,Win32,59.95203837,628b806c463b948bc644b84f,629af7335e289bc62307838a,,,,,,,,,,,zz,"[""z"",""z""]","[2.5175999999046326,2.9507999999523236,4.950899999856972]",1,ZZ,0,0,0,0,1,,,,,,,,,,,,,,,,,,,,,,,,,,,,,,,,,,,,,,,,,,,,,,,,,,,,,,,,,,,,,,,,,,,,,,,,,,,,,,,,,,,
,,,,,,,,,,607176a53e0b57a4f8be7ac9,34,Mężczyzna,2022-06-04_08h11.17.477,task,2021.1.4,Win32,59.95203837,628b806c463b948bc644b84f,629af7335e289bc62307838a,,,,,0,0,0,0,1,X V Q F H G B L J M P D K C T S W R N Z,,,,,,,,,,,,,,,,,,,,,,,,,,,,,,,,,,,,,,,,,,,,,,,,,,,,,,,,,,,,,,,,,,,,,,,,,,,,,,,,,,,,,,,,,,,,,
,,,,,,,,,,607176a53e0b57a4f8be7ac9,34,Mężczyzna,2022-06-04_08h11.17.477,task,2021.1.4,Win32,59.95203837,628b806c463b948bc644b84f,629af7335e289bc62307838a,,,,,1,0,1,0,1,X V Q F H G B L J M P D K C T S W R N Z,,,,,,,,,,,,,,,,,,,,,,,,,,,,,,,,,,,,,,,,,,,,,,,,,,,,,,,,,,,,,,,,,,,,,,,,,,,,,,,,,,,,,,,,,,,,,
,,,,,,,,,,607176a53e0b57a4f8be7ac9,34,Mężczyzna,2022-06-04_08h11.17.477,task,2021.1.4,Win32,59.95203837,628b806c463b948bc644b84f,629af7335e289bc62307838a,,,,,,,,,,,qh,"[""q"",""h""]","[1.2357999999522917,1.6322000000476464,2.0165000000000077]",1,QH,1,0,1,0,1,,,,,,,,,,,,,,,,,,,,,,,,,,,,,,,,,,,,,,,,,,,,,,,,,,,,,,,,,,,,,,,,,,,,,,,,,,,,,,,,,,,
,,,,,,,,,,607176a53e0b57a4f8be7ac9,34,Mężczyzna,2022-06-04_08h11.17.477,task,2021.1.4,Win32,59.95203837,628b806c463b948bc644b84f,629af7335e289bc62307838a,,,,,0,0,0,0,1,X V Q F H G B L J M P D K C T S W R N Z,,,,,,,,,,,,,,,,,,,,,,,,,,,,,,,,,,,,,,,,,,,,,,,,,,,,,,,,,,,,,,,,,,,,,,,,,,,,,,,,,,,,,,,,,,,,,
,,,,,,,,,,607176a53e0b57a4f8be7ac9,34,Mężczyzna,2022-06-04_08h11.17.477,task,2021.1.4,Win32,59.95203837,628b806c463b948bc644b84f,629af7335e289bc62307838a,,,,,1,0,1,0,1,X V Q F H G B L J M P D K C T S W R N Z,,,,,,,,,,,,,,,,,,,,,,,,,,,,,,,,,,,,,,,,,,,,,,,,,,,,,,,,,,,,,,,,,,,,,,,,,,,,,,,,,,,,,,,,,,,,,
,,,,,,,,,,607176a53e0b57a4f8be7ac9,34,Mężczyzna,2022-06-04_08h11.17.477,task,2021.1.4,Win32,59.95203837,628b806c463b948bc644b84f,629af7335e289bc62307838a,,,,,2,0,2,0,1,X V Q F H G B L J M P D K C T S W R N Z,,,,,,,,,,,,,,,,,,,,,,,,,,,,,,,,,,,,,,,,,,,,,,,,,,,,,,,,,,,,,,,,,,,,,,,,,,,,,,,,,,,,,,,,,,,,,
,,,,,,,,,,607176a53e0b57a4f8be7ac9,34,Mężczyzna,2022-06-04_08h11.17.477,task,2021.1.4,Win32,59.95203837,628b806c463b948bc644b84f,629af7335e289bc62307838a,,,,,,,,,,,nfv,"[""n"",""f"",""v""]","[1.2999999999999545,2.744299999952318,3.9820999999046194,4.788799999952289]",1,NFV,2,0,2,0,1,,,,,,,,,,,,,,,,,,,,,,,,,,,,,,,,,,,,,,,,,,,,,,,,,,,,,,,,,,,,,,,,,,,,,,,,,,,,,,,,,,,
,,,,,,,,,,607176a53e0b57a4f8be7ac9,34,Mężczyzna,2022-06-04_08h11.17.477,task,2021.1.4,Win32,59.95203837,628b806c463b948bc644b84f,629af7335e289bc62307838a,,,,,0,0,0,0,1,X V Q F H G B L J M P D K C T S W R N Z,,,,,,,,,,,,,,,,,,,,,,,,,,,,,,,,,,,,,,,,,,,,,,,,,,,,,,,,,,,,,,,,,,,,,,,,,,,,,,,,,,,,,,,,,,,,,
,,,,,,,,,,607176a53e0b57a4f8be7ac9,34,Mężczyzna,2022-06-04_08h11.17.477,task,2021.1.4,Win32,59.95203837,628b806c463b948bc644b84f,629af7335e289bc62307838a,,,,,1,0,1,0,1,X V Q F H G B L J M P D K C T S W R N Z,,,,,,,,,,,,,,,,,,,,,,,,,,,,,,,,,,,,,,,,,,,,,,,,,,,,,,,,,,,,,,,,,,,,,,,,,,,,,,,,,,,,,,,,,,,,,
,,,,,,,,,,607176a53e0b57a4f8be7ac9,34,Mężczyzna,2022-06-04_08h11.17.477,task,2021.1.4,Win32,59.95203837,628b806c463b948bc644b84f,629af7335e289bc62307838a,,,,,2,0,2,0,1,X V Q F H G B L J M P D K C T S W R N Z,,,,,,,,,,,,,,,,,,,,,,,,,,,,,,,,,,,,,,,,,,,,,,,,,,,,,,,,,,,,,,,,,,,,,,,,,,,,,,,,,,,,,,,,,,,,,
,,,,,,,,,,607176a53e0b57a4f8be7ac9,34,Mężczyzna,2022-06-04_08h11.17.477,task,2021.1.4,Win32,59.95203837,628b806c463b948bc644b84f,629af7335e289bc62307838a,,,,,,,,,,,rcm,"[""r"",""c"",""m""]","[0.9826000001430657,1.6542000000476946,1.9726000001430748,2.704300000190756]",1,RCM,3,0,3,0,1,,,,,,,,,,,,,,,,,,,,,,,,,,,,,,,,,,,,,,,,,,,,,,,,,,,,,,,,,,,,,,,,,,,,,,,,,,,,,,,,,,,
,,,,,,,,,,607176a53e0b57a4f8be7ac9,34,Mężczyzna,2022-06-04_08h11.17.477,task,2021.1.4,Win32,59.95203837,628b806c463b948bc644b84f,629af7335e289bc62307838a,,,,,0,0,0,0,1,X V Q F H G B L J M P D K C T S W R N Z,,,,,,,,,,,,,,,,,,,,,,,,,,,,,,,,,,,,,,,,,,,,,,,,,,,,,,,,,,,,,,,,,,,,,,,,,,,,,,,,,,,,,,,,,,,,,
,,,,,,,,,,607176a53e0b57a4f8be7ac9,34,Mężczyzna,2022-06-04_08h11.17.477,task,2021.1.4,Win32,59.95203837,628b806c463b948bc644b84f,629af7335e289bc62307838a,,,,,1,0,1,0,1,X V Q F H G B L J M P D K C T S W R N Z,,,,,,,,,,,,,,,,,,,,,,,,,,,,,,,,,,,,,,,,,,,,,,,,,,,,,,,,,,,,,,,,,,,,,,,,,,,,,,,,,,,,,,,,,,,,,
,,,,,,,,,,607176a53e0b57a4f8be7ac9,34,Mężczyzna,2022-06-04_08h11.17.477,task,2021.1.4,Win32,59.95203837,628b806c463b948bc644b84f,629af7335e289bc62307838a,,,,,2,0,2,0,1,X V Q F H G B L J M P D K C T S W R N Z,,,,,,,,,,,,,,,,,,,,,,,,,,,,,,,,,,,,,,,,,,,,,,,,,,,,,,,,,,,,,,,,,,,,,,,,,,,,,,,,,,,,,,,,,,,,,
,,,,,,,,,,607176a53e0b57a4f8be7ac9,34,Mężczyzna,2022-06-04_08h11.17.477,task,2021.1.4,Win32,59.95203837,628b806c463b948bc644b84f,629af7335e289bc62307838a,,,,,3,0,3,0,1,X V Q F H G B L J M P D K C T S W R N Z,,,,,,,,,,,,,,,,,,,,,,,,,,,,,,,,,,,,,,,,,,,,,,,,,,,,,,,,,,,,,,,,,,,,,,,,,,,,,,,,,,,,,,,,,,,,,
,,,,,,,,,,607176a53e0b57a4f8be7ac9,34,Mężczyzna,2022-06-04_08h11.17.477,task,2021.1.4,Win32,59.95203837,628b806c463b948bc644b84f,629af7335e289bc62307838a,,,,,,,,,,,hcsz,"[""h"",""c"",""s"",""z""]","[1.6127000000477096,2.428599999904634,3.3285000000000196,3.645500000000027,4.392700000047682]",1,HCSZ,4,0,4,0,1,,,,,,,,,,,,,,,,,,,,,,,,,,,,,,,,,,,,,,,,,,,,,,,,,,,,,,,,,,,,,,,,,,,,,,,,,,,,,,,,,,,
,,,,,,,,,,607176a53e0b57a4f8be7ac9,34,Mężczyzna,2022-06-04_08h11.17.477,task,2021.1.4,Win32,59.95203837,628b806c463b948bc644b84f,629af7335e289bc62307838a,,,,,0,0,0,0,1,X V Q F H G B L J M P D K C T S W R N Z,,,,,,,,,,,,,,,,,,,,,,,,,,,,,,,,,,,,,,,,,,,,,,,,,,,,,,,,,,,,,,,,,,,,,,,,,,,,,,,,,,,,,,,,,,,,,
,,,,,,,,,,607176a53e0b57a4f8be7ac9,34,Mężczyzna,2022-06-04_08h11.17.477,task,2021.1.4,Win32,59.95203837,628b806c463b948bc644b84f,629af7335e289bc62307838a,,,,,1,0,1,0,1,X V Q F H G B L J M P D K C T S W R N Z,,,,,,,,,,,,,,,,,,,,,,,,,,,,,,,,,,,,,,,,,,,,,,,,,,,,,,,,,,,,,,,,,,,,,,,,,,,,,,,,,,,,,,,,,,,,,
,,,,,,,,,,607176a53e0b57a4f8be7ac9,34,Mężczyzna,2022-06-04_08h11.17.477,task,2021.1.4,Win32,59.95203837,628b806c463b948bc644b84f,629af7335e289bc62307838a,,,,,2,0,2,0,1,X V Q F H G B L J M P D K C T S W R N Z,,,,,,,,,,,,,,,,,,,,,,,,,,,,,,,,,,,,,,,,,,,,,,,,,,,,,,,,,,,,,,,,,,,,,,,,,,,,,,,,,,,,,,,,,,,,,
,,,,,,,,,,607176a53e0b57a4f8be7ac9,34,Mężczyzna,2022-06-04_08h11.17.477,task,2021.1.4,Win32,59.95203837,628b806c463b948bc644b84f,629af7335e289bc62307838a,,,,,3,0,3,0,1,X V Q F H G B L J M P D K C T S W R N Z,,,,,,,,,,,,,,,,,,,,,,,,,,,,,,,,,,,,,,,,,,,,,,,,,,,,,,,,,,,,,,,,,,,,,,,,,,,,,,,,,,,,,,,,,,,,,
,,,,,,,,,,607176a53e0b57a4f8be7ac9,34,Mężczyzna,2022-06-04_08h11.17.477,task,2021.1.4,Win32,59.95203837,628b806c463b948bc644b84f,629af7335e289bc62307838a,,,,,,,,,,,kfkq,"[""k"",""f"",""k"",""q""]","[1.1037999999522867,1.6852999999522922,2.2514999999999645,2.5949999999999704,3.332200000047635]",1,KFKQ,5,0,5,0,1,,,,,,,,,,,,,,,,,,,,,,,,,,,,,,,,,,,,,,,,,,,,,,,,,,,,,,,,,,,,,,,,,,,,,,,,,,,,,,,,,,,
,,,,,,,,,,607176a53e0b57a4f8be7ac9,34,Mężczyzna,2022-06-04_08h11.17.477,task,2021.1.4,Win32,59.95203837,628b806c463b948bc644b84f,629af7335e289bc62307838a,,,,,0,0,0,0,1,X V Q F H G B L J M P D K C T S W R N Z,,,,,,,,,,,,,,,,,,,,,,,,,,,,,,,,,,,,,,,,,,,,,,,,,,,,,,,,,,,,,,,,,,,,,,,,,,,,,,,,,,,,,,,,,,,,,
,,,,,,,,,,607176a53e0b57a4f8be7ac9,34,Mężczyzna,2022-06-04_08h11.17.477,task,2021.1.4,Win32,59.95203837,628b806c463b948bc644b84f,629af7335e289bc62307838a,,,,,1,0,1,0,1,X V Q F H G B L J M P D K C T S W R N Z,,,,,,,,,,,,,,,,,,,,,,,,,,,,,,,,,,,,,,,,,,,,,,,,,,,,,,,,,,,,,,,,,,,,,,,,,,,,,,,,,,,,,,,,,,,,,
,,,,,,,,,,607176a53e0b57a4f8be7ac9,34,Mężczyzna,2022-06-04_08h11.17.477,task,2021.1.4,Win32,59.95203837,628b806c463b948bc644b84f,629af7335e289bc62307838a,,,,,2,0,2,0,1,X V Q F H G B L J M P D K C T S W R N Z,,,,,,,,,,,,,,,,,,,,,,,,,,,,,,,,,,,,,,,,,,,,,,,,,,,,,,,,,,,,,,,,,,,,,,,,,,,,,,,,,,,,,,,,,,,,,
,,,,,,,,,,607176a53e0b57a4f8be7ac9,34,Mężczyzna,2022-06-04_08h11.17.477,task,2021.1.4,Win32,59.95203837,628b806c463b948bc644b84f,629af7335e289bc62307838a,,,,,3,0,3,0,1,X V Q F H G B L J M P D K C T S W R N Z,,,,,,,,,,,,,,,,,,,,,,,,,,,,,,,,,,,,,,,,,,,,,,,,,,,,,,,,,,,,,,,,,,,,,,,,,,,,,,,,,,,,,,,,,,,,,
,,,,,,,,,,607176a53e0b57a4f8be7ac9,34,Mężczyzna,2022-06-04_08h11.17.477,task,2021.1.4,Win32,59.95203837,628b806c463b948bc644b84f,629af7335e289bc62307838a,,,,,4,0,4,0,1,X V Q F H G B L J M P D K C T S W R N Z,,,,,,,,,,,,,,,,,,,,,,,,,,,,,,,,,,,,,,,,,,,,,,,,,,,,,,,,,,,,,,,,,,,,,,,,,,,,,,,,,,,,,,,,,,,,,
,,,,,,,,,,607176a53e0b57a4f8be7ac9,34,Mężczyzna,2022-06-04_08h11.17.477,task,2021.1.4,Win32,59.95203837,628b806c463b948bc644b84f,629af7335e289bc62307838a,,,,,,,,,,,pjqvk,"[""p"",""j"",""q"",""v"",""k""]","[1.4006000001430152,2.237100000143016,3.338400000095362,5.812999999999988,7.016200000047661,7.925300000190703]",0,PJQGV,6,0,6,0,1,,,,,,,,,,,,,,,,,,,,,,,,,,,,,,,,,,,,,,,,,,,,,,,,,,,,,,,,,,,,,,,,,,,,,,,,,,,,,,,,,,,
,,,,,,,,,,607176a53e0b57a4f8be7ac9,34,Mężczyzna,2022-06-04_08h11.17.477,task,2021.1.4,Win32,59.95203837,628b806c463b948bc644b84f,629af7335e289bc62307838a,,,,,0,0,0,0,1,X V Q F H G B L J M P D K C T S W R N Z,,,,,,,,,,,,,,,,,,,,,,,,,,,,,,,,,,,,,,,,,,,,,,,,,,,,,,,,,,,,,,,,,,,,,,,,,,,,,,,,,,,,,,,,,,,,,
,,,,,,,,,,607176a53e0b57a4f8be7ac9,34,Mężczyzna,2022-06-04_08h11.17.477,task,2021.1.4,Win32,59.95203837,628b806c463b948bc644b84f,629af7335e289bc62307838a,,,,,1,0,1,0,1,X V Q F H G B L J M P D K C T S W R N Z,,,,,,,,,,,,,,,,,,,,,,,,,,,,,,,,,,,,,,,,,,,,,,,,,,,,,,,,,,,,,,,,,,,,,,,,,,,,,,,,,,,,,,,,,,,,,
,,,,,,,,,,607176a53e0b57a4f8be7ac9,34,Mężczyzna,2022-06-04_08h11.17.477,task,2021.1.4,Win32,59.95203837,628b806c463b948bc644b84f,629af7335e289bc62307838a,,,,,2,0,2,0,1,X V Q F H G B L J M P D K C T S W R N Z,,,,,,,,,,,,,,,,,,,,,,,,,,,,,,,,,,,,,,,,,,,,,,,,,,,,,,,,,,,,,,,,,,,,,,,,,,,,,,,,,,,,,,,,,,,,,
,,,,,,,,,,607176a53e0b57a4f8be7ac9,34,Mężczyzna,2022-06-04_08h11.17.477,task,2021.1.4,Win32,59.95203837,628b806c463b948bc644b84f,629af7335e289bc62307838a,,,,,3,0,3,0,1,X V Q F H G B L J M P D K C T S W R N Z,,,,,,,,,,,,,,,,,,,,,,,,,,,,,,,,,,,,,,,,,,,,,,,,,,,,,,,,,,,,,,,,,,,,,,,,,,,,,,,,,,,,,,,,,,,,,
,,,,,,,,,,607176a53e0b57a4f8be7ac9,34,Mężczyzna,2022-06-04_08h11.17.477,task,2021.1.4,Win32,59.95203837,628b806c463b948bc644b84f,629af7335e289bc62307838a,,,,,4,0,4,0,1,X V Q F H G B L J M P D K C T S W R N Z,,,,,,,,,,,,,,,,,,,,,,,,,,,,,,,,,,,,,,,,,,,,,,,,,,,,,,,,,,,,,,,,,,,,,,,,,,,,,,,,,,,,,,,,,,,,,
,,,,,,,,,,607176a53e0b57a4f8be7ac9,34,Mężczyzna,2022-06-04_08h11.17.477,task,2021.1.4,Win32,59.95203837,628b806c463b948bc644b84f,629af7335e289bc62307838a,,,,,,,,,,,lqljf,"[""l"",""q"",""l"",""j"",""f""]","[1.1929999999999836,4.805400000095403,5.86080000019075,6.903999999999996,7.820500000000038,8.954300000190756]",0,LQKBJ,7,0,7,0,1,,,,,,,,,,,,,,,,,,,,,,,,,,,,,,,,,,,,,,,,,,,,,,,,,,,,,,,,,,,,,,,,,,,,,,,,,,,,,,,,,,,
,,,,,,,,,,607176a53e0b57a4f8be7ac9,34,Mężczyzna,2022-06-04_08h11.17.477,task,2021.1.4,Win32,59.95203837,628b806c463b948bc644b84f,629af7335e289bc62307838a,,,,,0,0,0,0,1,X V Q F H G B L J M P D K C T S W R N Z,,,,,,,,,,,,,,,,,,,,,,,,,,,,,,,,,,,,,,,,,,,,,,,,,,,,,,,,,,,,,,,,,,,,,,,,,,,,,,,,,,,,,,,,,,,,,
,,,,,,,,,,607176a53e0b57a4f8be7ac9,34,Mężczyzna,2022-06-04_08h11.17.477,task,2021.1.4,Win32,59.95203837,628b806c463b948bc644b84f,629af7335e289bc62307838a,,,,,1,0,1,0,1,X V Q F H G B L J M P D K C T S W R N Z,,,,,,,,,,,,,,,,,,,,,,,,,,,,,,,,,,,,,,,,,,,,,,,,,,,,,,,,,,,,,,,,,,,,,,,,,,,,,,,,,,,,,,,,,,,,,
,,,,,,,,,,607176a53e0b57a4f8be7ac9,34,Mężczyzna,2022-06-04_08h11.17.477,task,2021.1.4,Win32,59.95203837,628b806c463b948bc644b84f,629af7335e289bc62307838a,,,,,2,0,2,0,1,X V Q F H G B L J M P D K C T S W R N Z,,,,,,,,,,,,,,,,,,,,,,,,,,,,,,,,,,,,,,,,,,,,,,,,,,,,,,,,,,,,,,,,,,,,,,,,,,,,,,,,,,,,,,,,,,,,,
,,,,,,,,,,607176a53e0b57a4f8be7ac9,34,Mężczyzna,2022-06-04_08h11.17.477,task,2021.1.4,Win32,59.95203837,628b806c463b948bc644b84f,629af7335e289bc62307838a,,,,,3,0,3,0,1,X V Q F H G B L J M P D K C T S W R N Z,,,,,,,,,,,,,,,,,,,,,,,,,,,,,,,,,,,,,,,,,,,,,,,,,,,,,,,,,,,,,,,,,,,,,,,,,,,,,,,,,,,,,,,,,,,,,
,,,,,,,,,,607176a53e0b57a4f8be7ac9,34,Mężczyzna,2022-06-04_08h11.17.477,task,2021.1.4,Win32,59.95203837,628b806c463b948bc644b84f,629af7335e289bc62307838a,,,,,4,0,4,0,1,X V Q F H G B L J M P D K C T S W R N Z,,,,,,,,,,,,,,,,,,,,,,,,,,,,,,,,,,,,,,,,,,,,,,,,,,,,,,,,,,,,,,,,,,,,,,,,,,,,,,,,,,,,,,,,,,,,,
,,,,,,,,,,607176a53e0b57a4f8be7ac9,34,Mężczyzna,2022-06-04_08h11.17.477,task,2021.1.4,Win32,59.95203837,628b806c463b948bc644b84f,629af7335e289bc62307838a,,,,,,,,,,,bspvs,"[""b"",""s"",""p"",""v"",""s""]","[1.3372999999523358,1.7957999999523508,2.129199999809316,2.7953999998569543,5.563199999809285,6.477599999904669]",0,BSPVF,8,0,8,0,1,,,,,,,,,,,,,,,,,,,,,,,,,,,,,,,,,,,,,,,,,,,,,,,,,,,,,,,,,,,,,,,,,,,,,,,,,,,,,,,,,,,
,,,,,,,,,,607176a53e0b57a4f8be7ac9,34,Mężczyzna,2022-06-04_08h11.17.477,task,2021.1.4,Win32,59.95203837,628b806c463b948bc644b84f,629af7335e289bc62307838a,,,,,,,,,,,,,,,,,,,,,space,9.1182,7,"[""7""]",1,[30.82620000004772],[30.82620000004772],0,0,0,7,1,Practice,8,(5x5) - 18,7,,,,,,,,,,,,,,,,,,,,,,,,,,,,,,,,,,,,,,,,,,,,,,,,,,,,,,,,,,,,,,,,,,,
,,,,,,,,,,607176a53e0b57a4f8be7ac9,34,Mężczyzna,2022-06-04_08h11.17.477,task,2021.1.4,Win32,59.95203837,628b806c463b948bc644b84f,629af7335e289bc62307838a,,,,,,,,,,,,,,,,,,,,,,,6,"[""6""]",1,[8.3321000001431],"[30.82620000004772,8.3321000001431]",0,1,1,6,1,Practice,7,(25/5) + 1,6,,,,,,,,,,,,,,,,,,,,,,,,,,,,,,,,,,,,,,,,,,,,,,,,,,,,,,,,,,,,,,,,,,,
,,,,,,,,,,607176a53e0b57a4f8be7ac9,34,Mężczyzna,2022-06-04_08h11.17.477,task,2021.1.4,Win32,59.95203837,628b806c463b948bc644b84f,629af7335e289bc62307838a,,,,,,,,,,,,,,,,,,,,,,,5,"[""5""]",1,[5.222000000000094],"[30.82620000004772,8.3321000001431,5.222000000000094]",0,2,2,5,1,Practice,6,(4/2) + 3,5,,,,,,,,,,,,,,,,,,,,,,,,,,,,,,,,,,,,,,,,,,,,,,,,,,,,,,,,,,,,,,,,,,,
,,,,,,,,,,607176a53e0b57a4f8be7ac9,34,Mężczyzna,2022-06-04_08h11.17.477,task,2021.1.4,Win32,59.95203837,628b806c463b948bc644b84f,629af7335e289bc62307838a,,,,,,,,,,,,,,,,,,,,,,,2,"[""2""]",1,[4.234700000047724],"[30.82620000004772,8.3321000001431,5.222000000000094,4.234700000047724]",0,3,3,2,1,Practice,3,(4x4) - 14,2,,,,,,,,,,,,,,,,,,,,,,,,,,,,,,,,,,,,,,,,,,,,,,,,,,,,,,,,,,,,,,,,,,,
,,,,,,,,,,607176a53e0b57a4f8be7ac9,34,Mężczyzna,2022-06-04_08h11.17.477,task,2021.1.4,Win32,59.95203837,628b806c463b948bc644b84f,629af7335e289bc62307838a,,,,,,,,,,,,,,,,,,,,,,,5,"[""5""]",0,[2.3141000001429575],"[30.82620000004772,8.3321000001431,5.222000000000094,4.234700000047724,2.3141000001429575]",0,4,4,3,1,Practice,4,(8/4) + 1,3,,,,,,,,,,,,,,,,,,,,,,,,,,,,,,,,,,,,,,,,,,,,,,,,,,,,,,,,,,,,,,,,,,,
,,,,,,,,,,607176a53e0b57a4f8be7ac9,34,Mężczyzna,2022-06-04_08h11.17.477,task,2021.1.4,Win32,59.95203837,628b806c463b948bc644b84f,629af7335e289bc62307838a,,,,,,,,,,,,,,,,,,,,,,,0,"[""0""]",1,[3.2027999999522763],"[30.82620000004772,8.3321000001431,5.222000000000094,4.234700000047724,2.3141000001429575,3.2027999999522763]",0,5,5,0,1,Practice,1,(3x3) -  9,0,,,,,,,,,,,,,,,,,,,,,,,,,,,,,,,,,,,,,,,,,,,,,,,,,,,,,,,,,,,,,,,,,,,
,,,,,,,,,,607176a53e0b57a4f8be7ac9,34,Mężczyzna,2022-06-04_08h11.17.477,task,2021.1.4,Win32,59.95203837,628b806c463b948bc644b84f,629af7335e289bc62307838a,,,,,,,,,,,,,,,,,,,,,,,9,"[""9""]",1,[4.065899999856924],"[30.82620000004772,8.3321000001431,5.222000000000094,4.234700000047724,2.3141000001429575,3.2027999999522763,4.065899999856924]",0,6,6,9,1,Practice,10,(20/2) - 1,9,,,,,,,,,,,,,,,,,,,,,,,,,,,,,,,,,,,,,,,,,,,,,,,,,,,,,,,,,,,,,,,,,,,
,,,,,,,,,,607176a53e0b57a4f8be7ac9,34,Mężczyzna,2022-06-04_08h11.17.477,task,2021.1.4,Win32,59.95203837,628b806c463b948bc644b84f,629af7335e289bc62307838a,,,,,,,,,,,,,,,,,,,,,,,4,"[""4""]",1,[7.765800000190666],"[30.82620000004772,8.3321000001431,5.222000000000094,4.234700000047724,2.3141000001429575,3.2027999999522763,4.065899999856924,7.765800000190666]",0,7,7,4,1,Practice,5,(2x6) - 8,4,,,,,,,,,,,,,,,,,,,,,,,,,,,,,,,,,,,,,,,,,,,,,,,,,,,,,,,,,,,,,,,,,,,
,,,,,,,,,,607176a53e0b57a4f8be7ac9,34,Mężczyzna,2022-06-04_08h11.17.477,task,2021.1.4,Win32,59.95203837,628b806c463b948bc644b84f,629af7335e289bc62307838a,,,,,,,,,,,,,,,,,,,,,,,1,"[""1""]",1,[3.485200000047712],"[30.82620000004772,8.3321000001431,5.222000000000094,4.234700000047724,2.3141000001429575,3.2027999999522763,4.065899999856924,7.765800000190666,3.485200000047712]",0,8,8,1,1,Practice,2,(4x4) - 15,1,,,,,,,,,,,,,,,,,,,,,,,,,,,,,,,,,,,,,,,,,,,,,,,,,,,,,,,,,,,,,,,,,,,
,,,,,,,,,,607176a53e0b57a4f8be7ac9,34,Mężczyzna,2022-06-04_08h11.17.477,task,2021.1.4,Win32,59.95203837,628b806c463b948bc644b84f,629af7335e289bc62307838a,,,,,,,,,,,,,,,,,,,,,,,8,"[""8""]",1,[2.917100000143023],"[30.82620000004772,8.3321000001431,5.222000000000094,4.234700000047724,2.3141000001429575,3.2027999999522763,4.065899999856924,7.765800000190666,3.485200000047712,2.917100000143023]",0,9,9,8,1,Practice,9,(3x3) - 1,8,,,,,,,,,,,,,,,,,,,,,,,,,,,,,,,,,,,,,,,,,,,,,,,,,,,,,,,,,,,,,,,,,,,
,,,,,,,,,,607176a53e0b57a4f8be7ac9,34,Mężczyzna,2022-06-04_08h11.17.477,task,2021.1.4,Win32,59.95203837,628b806c463b948bc644b84f,629af7335e289bc62307838a,,,,,,,,,,,,,,,,,,,,,,,,,,,,,,,,,,,,,0.9,72.3659,4.824393333,712.4933148,6.891992043,22.6057328,space,2.5669,0,0,0,0,1,,,,,,,,,,,,,,,,,,,,,,,,,,,,,,,,,,,,,,,,,,,,,,,,,,,,,,
,,,,,,,,,,607176a53e0b57a4f8be7ac9,34,Mężczyzna,2022-06-04_08h11.17.477,task,2021.1.4,Win32,59.95203837,628b806c463b948bc644b84f,629af7335e289bc62307838a,,,,,,,,,,,,,,,,,,,,,,,2,,,,,,,,,,Practice,3,(4x4) - 14,2,,,,,,,,,,,,,,space,15.1905,"[""2""]",1,[3.373099999904639],1,0,0,0,2,1,,,,,,,,,,,,,,,,,,,,,,,,,,,,,,,,,,,,,,,,,,,
,,,,,,,,,,607176a53e0b57a4f8be7ac9,34,Mężczyzna,2022-06-04_08h11.17.477,task,2021.1.4,Win32,59.95203837,628b806c463b948bc644b84f,629af7335e289bc62307838a,,,,,,,,,,X V Q F H G B L J M P D K C T S W R N Z,,,,,,,,,,,,,,,,,,,,,,,,,,,,,,,,,,,,,,,,,,,,,,,,,,,0,0,0,0,1,,,,,,,,,,,,,,,,,,,,,,,,,,,,,,,,,,,,,,
,,,,,,,,,,607176a53e0b57a4f8be7ac9,34,Mężczyzna,2022-06-04_08h11.17.477,task,2021.1.4,Win32,59.95203837,628b806c463b948bc644b84f,629af7335e289bc62307838a,,,,,,,,,,,,,,,,,,,,,,,8,,,,,,,,,,Practice,9,(3x3) - 1,8,,,,,,,,,,,,,,,,"[""8""]",1,[2.693200000047682],1,0,0,0,8,1,,,,,,,,,,,,,,,,,,,,,,,,,,,,,,,,,,,,,,,,,,,
,,,,,,,,,,607176a53e0b57a4f8be7ac9,34,Mężczyzna,2022-06-04_08h11.17.477,task,2021.1.4,Win32,59.95203837,628b806c463b948bc644b84f,629af7335e289bc62307838a,,,,,,,,,,X V Q F H G B L J M P D K C T S W R N Z,,,,,,,,,,,,,,,,,,,,,,,,,,,,,,,,,,,,,,,,,,,,,,,,,,,1,0,1,0,1,,,,,,,,,,,,,,,,,,,,,,,,,,,,,,,,,,,,,,
,,,,,,,,,,607176a53e0b57a4f8be7ac9,34,Mężczyzna,2022-06-04_08h11.17.477,task,2021.1.4,Win32,59.95203837,628b806c463b948bc644b84f,629af7335e289bc62307838a,,,,,,,,,,,,,,,,,,,,,,,,,,,,,,,,,,,,,,,,,,,,,,,,,,,,,,,,,,,,,,,,,,zq,"[""z"",""q""]",0,"[2.304099999904679,2.614899999857016,3.7136999998092506]",1,0,0,0,0,1,,,,,,,,,,,,,,,,,,,,,,,,,,,,
,,,,,,,,,,607176a53e0b57a4f8be7ac9,34,Mężczyzna,2022-06-04_08h11.17.477,task,2021.1.4,Win32,59.95203837,628b806c463b948bc644b84f,629af7335e289bc62307838a,,,,,,,,,,,,,,,,,,,,,,,8,,,,,,,,,,Practice,9,(3x3) - 1,8,,,,,,,,,,,,,,,,"[""8""]",1,[2.2345000000000255],1,0,0,0,8,1,,,,,,,,,,,,,,,,,,,,,,,,,,,,,,,,,,,,,,,,,,,
,,,,,,,,,,607176a53e0b57a4f8be7ac9,34,Mężczyzna,2022-06-04_08h11.17.477,task,2021.1.4,Win32,59.95203837,628b806c463b948bc644b84f,629af7335e289bc62307838a,,,,,,,,,,X V Q F H G B L J M P D K C T S W R N Z,,,,,,,,,,,,,,,,,,,,,,,,,,,,,,,,,,,,,,,,,,,,,,,,,,,0,0,0,0,1,,,,,,,,,,,,,,,,,,,,,,,,,,,,,,,,,,,,,,
,,,,,,,,,,607176a53e0b57a4f8be7ac9,34,Mężczyzna,2022-06-04_08h11.17.477,task,2021.1.4,Win32,59.95203837,628b806c463b948bc644b84f,629af7335e289bc62307838a,,,,,,,,,,,,,,,,,,,,,,,5,,,,,,,,,,Practice,6,(4/2) + 3,5,,,,,,,,,,,,,,,,"[""5""]",1,[5.6286000001431375],1,0,0,0,5,1,,,,,,,,,,,,,,,,,,,,,,,,,,,,,,,,,,,,,,,,,,,
,,,,,,,,,,607176a53e0b57a4f8be7ac9,34,Mężczyzna,2022-06-04_08h11.17.477,task,2021.1.4,Win32,59.95203837,628b806c463b948bc644b84f,629af7335e289bc62307838a,,,,,,,,,,X V Q F H G B L J M P D K C T S W R N Z,,,,,,,,,,,,,,,,,,,,,,,,,,,,,,,,,,,,,,,,,,,,,,,,,,,1,0,1,0,1,,,,,,,,,,,,,,,,,,,,,,,,,,,,,,,,,,,,,,
,,,,,,,,,,607176a53e0b57a4f8be7ac9,34,Mężczyzna,2022-06-04_08h11.17.477,task,2021.1.4,Win32,59.95203837,628b806c463b948bc644b84f,629af7335e289bc62307838a,,,,,,,,,,,,,,,,,,,,,,,,,,,,,,,,,,,,,,,,,,,,,,,,,,,,,,,,,,,,,,,,,,jq,"[""j"",""q""]",0,"[1.8527999999522535,2.6496999998091724,3.5278999998569134]",1,1,0,1,0,1,,,,,,,,,,,,,,,,,,,,,,,,,,,,
,,,,,,,,,,607176a53e0b57a4f8be7ac9,34,Mężczyzna,2022-06-04_08h11.17.477,task,2021.1.4,Win32,59.95203837,628b806c463b948bc644b84f,629af7335e289bc62307838a,,,,,,,,,,,,,,,,,,,,,,,4,,,,,,,,,,Practice,5,(2x6) - 8,4,,,,,,,,,,,,,,,,"[""4""]",1,[6.902000000000044],1,0,0,0,4,1,,,,,,,,,,,,,,,,,,,,,,,,,,,,,,,,,,,,,,,,,,,
,,,,,,,,,,607176a53e0b57a4f8be7ac9,34,Mężczyzna,2022-06-04_08h11.17.477,task,2021.1.4,Win32,59.95203837,628b806c463b948bc644b84f,629af7335e289bc62307838a,,,,,,,,,,X V Q F H G B L J M P D K C T S W R N Z,,,,,,,,,,,,,,,,,,,,,,,,,,,,,,,,,,,,,,,,,,,,,,,,,,,0,0,0,0,1,,,,,,,,,,,,,,,,,,,,,,,,,,,,,,,,,,,,,,
,,,,,,,,,,607176a53e0b57a4f8be7ac9,34,Mężczyzna,2022-06-04_08h11.17.477,task,2021.1.4,Win32,59.95203837,628b806c463b948bc644b84f,629af7335e289bc62307838a,,,,,,,,,,,,,,,,,,,,,,,6,,,,,,,,,,Practice,7,(25/5) + 1,6,,,,,,,,,,,,,,,,"[""6""]",1,[2.8216999998093115],1,0,0,0,6,1,,,,,,,,,,,,,,,,,,,,,,,,,,,,,,,,,,,,,,,,,,,
,,,,,,,,,,607176a53e0b57a4f8be7ac9,34,Mężczyzna,2022-06-04_08h11.17.477,task,2021.1.4,Win32,59.95203837,628b806c463b948bc644b84f,629af7335e289bc62307838a,,,,,,,,,,X V Q F H G B L J M P D K C T S W R N Z,,,,,,,,,,,,,,,,,,,,,,,,,,,,,,,,,,,,,,,,,,,,,,,,,,,1,0,1,0,1,,,,,,,,,,,,,,,,,,,,,,,,,,,,,,,,,,,,,,
,,,,,,,,,,607176a53e0b57a4f8be7ac9,34,Mężczyzna,2022-06-04_08h11.17.477,task,2021.1.4,Win32,59.95203837,628b806c463b948bc644b84f,629af7335e289bc62307838a,,,,,,,,,,,,,,,,,,,,,,,,,,,,,,,,,,,,,,,,,,,,,,,,,,,,,,,,,,,,,,,,,,zl,"[""z"",""l""]",0,"[2.047099999904617,2.8164000000954275,3.5994000000953292]",1,2,0,2,0,1,,,,,,,,,,,,,,,,,,,,,,,,,,,,
,,,,,,,,,,607176a53e0b57a4f8be7ac9,34,Mężczyzna,2022-06-04_08h11.17.477,task,2021.1.4,Win32,59.95203837,628b806c463b948bc644b84f,629af7335e289bc62307838a,,,,,,,,,,,,,,,,,,,,,,,5,,,,,,,,,,Task,22,(3x1) + 2,5,,,,,,,,,,,,,,,,,,,1,,,,,,,,,,,,,,,,,,,,,space,11.1263,"[""5""]",1,[4.65619999980936],0,0,0,21,1,,,,,,,,,,,,,,,,,,
,,,,,,,,,,607176a53e0b57a4f8be7ac9,34,Mężczyzna,2022-06-04_08h11.17.477,task,2021.1.4,Win32,59.95203837,628b806c463b948bc644b84f,629af7335e289bc62307838a,,,,,,,,,,X V Q F H G B L J M P D K C T S W R N Z,,,,,,,,,,,,,,,,,,,,,,,,,,,,,,,,,,,,,,,,,,,,,,,,,,,,,,,,,,,,,,,,,,,,,,,,,,,,0,0,0,0,1,,,,,,,,,,,,,
,,,,,,,,,,607176a53e0b57a4f8be7ac9,34,Mężczyzna,2022-06-04_08h11.17.477,task,2021.1.4,Win32,59.95203837,628b806c463b948bc644b84f,629af7335e289bc62307838a,,,,,,,,,,,,,,,,,,,,,,,4,,,,,,,,,,Task,11,(18/3) - 2,4,,,,,,,,,,,,,,,,,,,1,,,,,,,,,,,,,,,,,,,,,,,"[""4""]",1,[6.68159999990462],0,0,0,10,1,,,,,,,,,,,,,,,,,,
,,,,,,,,,,607176a53e0b57a4f8be7ac9,34,Mężczyzna,2022-06-04_08h11.17.477,task,2021.1.4,Win32,59.95203837,628b806c463b948bc644b84f,629af7335e289bc62307838a,,,,,,,,,,X V Q F H G B L J M P D K C T S W R N Z,,,,,,,,,,,,,,,,,,,,,,,,,,,,,,,,,,,,,,,,,,,,,,,,,,,,,,,,,,,,,,,,,,,,,,,,,,,,1,0,1,0,1,,,,,,,,,,,,,
,,,,,,,,,,607176a53e0b57a4f8be7ac9,34,Mężczyzna,2022-06-04_08h11.17.477,task,2021.1.4,Win32,59.95203837,628b806c463b948bc644b84f,629af7335e289bc62307838a,,,,,,,,,,,,,,,,,,,,,,,,,,,,,,,,,,,,,,,,,,,,,,,,,,,,,,,,,,,,,,,,,,,,,,,,,,,,,,,,,,,,,,,,,,,zp,"[""z"",""p""]",0,"[1.8668999998569689,2.7549999999999955,3.466299999952298]",1,ZP,0,0,0,0,1,,
,,,,,,,,,,607176a53e0b57a4f8be7ac9,34,Mężczyzna,2022-06-04_08h11.17.477,task,2021.1.4,Win32,59.95203837,628b806c463b948bc644b84f,629af7335e289bc62307838a,,,,,,,,,,,,,,,,,,,,,,,1,,,,,,,,,,Task,15,(3x7) - 13,8,,,,,,,,,,,,,,,,,,,0,,,,,,,,,,,,,,,,,,,,,,,"[""1""]",0,[3.526899999856937],0,0,0,14,1,,,,,,,,,,,,,,,,,,
,,,,,,,,,,607176a53e0b57a4f8be7ac9,34,Mężczyzna,2022-06-04_08h11.17.477,task,2021.1.4,Win32,59.95203837,628b806c463b948bc644b84f,629af7335e289bc62307838a,,,,,,,,,,,,,,,,,,,,,,,0,,,,,,,,,,Task,8,(1x5) - 5,0,,,,,,,,,,,,,,,,,,,1,,,,,,,,,,,,,,,,,,,,,,,"[""0""]",1,[4.568799999952375],0,1,1,7,1,,,,,,,,,,,,,,,,,,
,,,,,,,,,,607176a53e0b57a4f8be7ac9,34,Mężczyzna,2022-06-04_08h11.17.477,task,2021.1.4,Win32,59.95203837,628b806c463b948bc644b84f,629af7335e289bc62307838a,,,,,,,,,,X V Q F H G B L J M P D K C T S W R N Z,,,,,,,,,,,,,,,,,,,,,,,,,,,,,,,,,,,,,,,,,,,,,,,,,,,,,,,,,,,,,,,,,,,,,,,,,,,,0,0,0,0,1,,,,,,,,,,,,,
,,,,,,,,,,607176a53e0b57a4f8be7ac9,34,Mężczyzna,2022-06-04_08h11.17.477,task,2021.1.4,Win32,59.95203837,628b806c463b948bc644b84f,629af7335e289bc62307838a,,,,,,,,,,,,,,,,,,,,,,,1,,,,,,,,,,Task,9,(3x7) - 20,1,,,,,,,,,,,,,,,,,,,1,,,,,,,,,,,,,,,,,,,,,,,"[""1""]",1,[4.366899999856969],0,0,0,8,1,,,,,,,,,,,,,,,,,,
,,,,,,,,,,607176a53e0b57a4f8be7ac9,34,Mężczyzna,2022-06-04_08h11.17.477,task,2021.1.4,Win32,59.95203837,628b806c463b948bc644b84f,629af7335e289bc62307838a,,,,,,,,,,X V Q F H G B L J M P D K C T S W R N Z,,,,,,,,,,,,,,,,,,,,,,,,,,,,,,,,,,,,,,,,,,,,,,,,,,,,,,,,,,,,,,,,,,,,,,,,,,,,1,0,1,0,1,,,,,,,,,,,,,
,,,,,,,,,,607176a53e0b57a4f8be7ac9,34,Mężczyzna,2022-06-04_08h11.17.477,task,2021.1.4,Win32,59.95203837,628b806c463b948bc644b84f,629af7335e289bc62307838a,,,,,,,,,,,,,,,,,,,,,,,8,,,,,,,,,,Task,23,(2x3) + 2,8,,,,,,,,,,,,,,,,,,,1,,,,,,,,,,,,,,,,,,,,,,,"[""8""]",1,[5.511299999952371],0,0,0,22,1,,,,,,,,,,,,,,,,,,
,,,,,,,,,,607176a53e0b57a4f8be7ac9,34,Mężczyzna,2022-06-04_08h11.17.477,task,2021.1.4,Win32,59.95203837,628b806c463b948bc644b84f,629af7335e289bc62307838a,,,,,,,,,,X V Q F H G B L J M P D K C T S W R N Z,,,,,,,,,,,,,,,,,,,,,,,,,,,,,,,,,,,,,,,,,,,,,,,,,,,,,,,,,,,,,,,,,,,,,,,,,,,,2,0,2,0,1,,,,,,,,,,,,,
,,,,,,,,,,607176a53e0b57a4f8be7ac9,34,Mężczyzna,2022-06-04_08h11.17.477,task,2021.1.4,Win32,59.95203837,628b806c463b948bc644b84f,629af7335e289bc62307838a,,,,,,,,,,,,,,,,,,,,,,,,,,,,,,,,,,,,,,,,,,,,,,,,,,,,,,,,,,,,,,,,,,,,,,,,,,,,,,,,,,,,,,,,,,,pxg,"[""p"",""x"",""g""]",0,"[1.8851000001429838,3.61690000009537,4.581600000142998,5.848400000095353]",1,PXG,1,0,1,0,1,,
,,,,,,,,,,607176a53e0b57a4f8be7ac9,34,Mężczyzna,2022-06-04_08h11.17.477,task,2021.1.4,Win32,59.95203837,628b806c463b948bc644b84f,629af7335e289bc62307838a,,,,,,,,,,,,,,,,,,,,,,,5,,,,,,,,,,Task,12,(4x4) - 11,5,,,,,,,,,,,,,,,,,,,1,,,,,,,,,,,,,,,,,,,,,,,"[""5""]",1,[5.518699999809201],0,0,0,11,1,,,,,,,,,,,,,,,,,,
,,,,,,,,,,607176a53e0b57a4f8be7ac9,34,Mężczyzna,2022-06-04_08h11.17.477,task,2021.1.4,Win32,59.95203837,628b806c463b948bc644b84f,629af7335e289bc62307838a,,,,,,,,,,X V Q F H G B L J M P D K C T S W R N Z,,,,,,,,,,,,,,,,,,,,,,,,,,,,,,,,,,,,,,,,,,,,,,,,,,,,,,,,,,,,,,,,,,,,,,,,,,,,0,0,0,0,1,,,,,,,,,,,,,
,,,,,,,,,,607176a53e0b57a4f8be7ac9,34,Mężczyzna,2022-06-04_08h11.17.477,task,2021.1.4,Win32,59.95203837,628b806c463b948bc644b84f,629af7335e289bc62307838a,,,,,,,,,,,,,,,,,,,,,,,1,,,,,,,,,,Task,9,(3x7) - 20,1,,,,,,,,,,,,,,,,,,,1,,,,,,,,,,,,,,,,,,,,,,,"[""1""]",1,[3.5781000001429675],0,0,0,8,1,,,,,,,,,,,,,,,,,,
,,,,,,,,,,607176a53e0b57a4f8be7ac9,34,Mężczyzna,2022-06-04_08h11.17.477,task,2021.1.4,Win32,59.95203837,628b806c463b948bc644b84f,629af7335e289bc62307838a,,,,,,,,,,X V Q F H G B L J M P D K C T S W R N Z,,,,,,,,,,,,,,,,,,,,,,,,,,,,,,,,,,,,,,,,,,,,,,,,,,,,,,,,,,,,,,,,,,,,,,,,,,,,1,0,1,0,1,,,,,,,,,,,,,
,,,,,,,,,,607176a53e0b57a4f8be7ac9,34,Mężczyzna,2022-06-04_08h11.17.477,task,2021.1.4,Win32,59.95203837,628b806c463b948bc644b84f,629af7335e289bc62307838a,,,,,,,,,,,,,,,,,,,,,,,3,,,,,,,,,,Task,35,(1x2) + 1,3,,,,,,,,,,,,,,,,,,,1,,,,,,,,,,,,,,,,,,,,,,,"[""3""]",1,[3.752999999999929],0,0,0,34,1,,,,,,,,,,,,,,,,,,
,,,,,,,,,,607176a53e0b57a4f8be7ac9,34,Mężczyzna,2022-06-04_08h11.17.477,task,2021.1.4,Win32,59.95203837,628b806c463b948bc644b84f,629af7335e289bc62307838a,,,,,,,,,,X V Q F H G B L J M P D K C T S W R N Z,,,,,,,,,,,,,,,,,,,,,,,,,,,,,,,,,,,,,,,,,,,,,,,,,,,,,,,,,,,,,,,,,,,,,,,,,,,,2,0,2,0,1,,,,,,,,,,,,,
,,,,,,,,,,607176a53e0b57a4f8be7ac9,34,Mężczyzna,2022-06-04_08h11.17.477,task,2021.1.4,Win32,59.95203837,628b806c463b948bc644b84f,629af7335e289bc62307838a,,,,,,,,,,,,,,,,,,,,,,,4,,,,,,,,,,Task,11,(18/3) - 2,4,,,,,,,,,,,,,,,,,,,1,,,,,,,,,,,,,,,,,,,,,,,"[""4""]",1,[2.8747999999523017],0,0,0,10,1,,,,,,,,,,,,,,,,,,
,,,,,,,,,,607176a53e0b57a4f8be7ac9,34,Mężczyzna,2022-06-04_08h11.17.477,task,2021.1.4,Win32,59.95203837,628b806c463b948bc644b84f,629af7335e289bc62307838a,,,,,,,,,,X V Q F H G B L J M P D K C T S W R N Z,,,,,,,,,,,,,,,,,,,,,,,,,,,,,,,,,,,,,,,,,,,,,,,,,,,,,,,,,,,,,,,,,,,,,,,,,,,,3,0,3,0,1,,,,,,,,,,,,,
,,,,,,,,,,607176a53e0b57a4f8be7ac9,34,Mężczyzna,2022-06-04_08h11.17.477,task,2021.1.4,Win32,59.95203837,628b806c463b948bc644b84f,629af7335e289bc62307838a,,,,,,,,,,,,,,,,,,,,,,,,,,,,,,,,,,,,,,,,,,,,,,,,,,,,,,,,,,,,,,,,,,,,,,,,,,,,,,,,,,,,,,,,,,,gpbb,"[""g"",""p"",""b"",""b""]",0,"[1.9516999998091933,2.7521999998092497,3.2843999998568734,3.4357999999522235,4.371299999952271]",1,GPBB,2,0,2,0,1,,
,,,,,,,,,,607176a53e0b57a4f8be7ac9,34,Mężczyzna,2022-06-04_08h11.17.477,task,2021.1.4,Win32,59.95203837,628b806c463b948bc644b84f,629af7335e289bc62307838a,,,,,,,,,,,,,,,,,,,,,,,0,,,,,,,,,,Task,33,(1/1) - 1,0,,,,,,,,,,,,,,,,,,,1,,,,,,,,,,,,,,,,,,,,,,,"[""0""]",1,[5.312000000000012],0,0,0,32,1,,,,,,,,,,,,,,,,,,
,,,,,,,,,,607176a53e0b57a4f8be7ac9,34,Mężczyzna,2022-06-04_08h11.17.477,task,2021.1.4,Win32,59.95203837,628b806c463b948bc644b84f,629af7335e289bc62307838a,,,,,,,,,,X V Q F H G B L J M P D K C T S W R N Z,,,,,,,,,,,,,,,,,,,,,,,,,,,,,,,,,,,,,,,,,,,,,,,,,,,,,,,,,,,,,,,,,,,,,,,,,,,,0,0,0,0,1,,,,,,,,,,,,,
,,,,,,,,,,607176a53e0b57a4f8be7ac9,34,Mężczyzna,2022-06-04_08h11.17.477,task,2021.1.4,Win32,59.95203837,628b806c463b948bc644b84f,629af7335e289bc62307838a,,,,,,,,,,,,,,,,,,,,,,,8,,,,,,,,,,Task,23,(2x3) + 2,8,,,,,,,,,,,,,,,,,,,1,,,,,,,,,,,,,,,,,,,,,,,"[""8""]",1,[2.685299999952349],0,0,0,22,1,,,,,,,,,,,,,,,,,,
,,,,,,,,,,607176a53e0b57a4f8be7ac9,34,Mężczyzna,2022-06-04_08h11.17.477,task,2021.1.4,Win32,59.95203837,628b806c463b948bc644b84f,629af7335e289bc62307838a,,,,,,,,,,X V Q F H G B L J M P D K C T S W R N Z,,,,,,,,,,,,,,,,,,,,,,,,,,,,,,,,,,,,,,,,,,,,,,,,,,,,,,,,,,,,,,,,,,,,,,,,,,,,1,0,1,0,1,,,,,,,,,,,,,
,,,,,,,,,,607176a53e0b57a4f8be7ac9,34,Mężczyzna,2022-06-04_08h11.17.477,task,2021.1.4,Win32,59.95203837,628b806c463b948bc644b84f,629af7335e289bc62307838a,,,,,,,,,,,,,,,,,,,,,,,0,,,,,,,,,,Task,8,(1x5) - 5,0,,,,,,,,,,,,,,,,,,,1,,,,,,,,,,,,,,,,,,,,,,,"[""0""]",1,[2.1511000001430602],0,0,0,7,1,,,,,,,,,,,,,,,,,,
,,,,,,,,,,607176a53e0b57a4f8be7ac9,34,Mężczyzna,2022-06-04_08h11.17.477,task,2021.1.4,Win32,59.95203837,628b806c463b948bc644b84f,629af7335e289bc62307838a,,,,,,,,,,X V Q F H G B L J M P D K C T S W R N Z,,,,,,,,,,,,,,,,,,,,,,,,,,,,,,,,,,,,,,,,,,,,,,,,,,,,,,,,,,,,,,,,,,,,,,,,,,,,2,0,2,0,1,,,,,,,,,,,,,
,,,,,,,,,,607176a53e0b57a4f8be7ac9,34,Mężczyzna,2022-06-04_08h11.17.477,task,2021.1.4,Win32,59.95203837,628b806c463b948bc644b84f,629af7335e289bc62307838a,,,,,,,,,,,,,,,,,,,,,,,6,,,,,,,,,,Task,30,(6/3) + 4 ,6,,,,,,,,,,,,,,,,,,,1,,,,,,,,,,,,,,,,,,,,,,,"[""6""]",1,[4.217099999904576],0,0,0,29,1,,,,,,,,,,,,,,,,,,
,,,,,,,,,,607176a53e0b57a4f8be7ac9,34,Mężczyzna,2022-06-04_08h11.17.477,task,2021.1.4,Win32,59.95203837,628b806c463b948bc644b84f,629af7335e289bc62307838a,,,,,,,,,,X V Q F H G B L J M P D K C T S W R N Z,,,,,,,,,,,,,,,,,,,,,,,,,,,,,,,,,,,,,,,,,,,,,,,,,,,,,,,,,,,,,,,,,,,,,,,,,,,,3,0,3,0,1,,,,,,,,,,,,,
,,,,,,,,,,607176a53e0b57a4f8be7ac9,34,Mężczyzna,2022-06-04_08h11.17.477,task,2021.1.4,Win32,59.95203837,628b806c463b948bc644b84f,629af7335e289bc62307838a,,,,,,,,,,,,,,,,,,,,,,,1,,,,,,,,,,Task,18,(16/4) - 3,1,,,,,,,,,,,,,,,,,,,1,,,,,,,,,,,,,,,,,,,,,,,"[""1""]",1,[7.61010000014312],0,0,0,17,1,,,,,,,,,,,,,,,,,,
,,,,,,,,,,607176a53e0b57a4f8be7ac9,34,Mężczyzna,2022-06-04_08h11.17.477,task,2021.1.4,Win32,59.95203837,628b806c463b948bc644b84f,629af7335e289bc62307838a,,,,,,,,,,X V Q F H G B L J M P D K C T S W R N Z,,,,,,,,,,,,,,,,,,,,,,,,,,,,,,,,,,,,,,,,,,,,,,,,,,,,,,,,,,,,,,,,,,,,,,,,,,,,4,0,4,0,1,,,,,,,,,,,,,
,,,,,,,,,,607176a53e0b57a4f8be7ac9,34,Mężczyzna,2022-06-04_08h11.17.477,task,2021.1.4,Win32,59.95203837,628b806c463b948bc644b84f,629af7335e289bc62307838a,,,,,,,,,,,,,,,,,,,,,,,,,,,,,,,,,,,,,,,,,,,,,,,,,,,,,,,,,,,,,,,,,,,,,,,,,,,,,,,,,,,,,,,,,,,vxscd,"[""v"",""x"",""s"",""c"",""d""]",0,"[1.7643000001907012,2.1664000000953365,3.4492000000476537,3.7654999999999745,4.647800000190728,5.465400000095315]",1,VXSCD,3,0,3,0,1,,
,,,,,,,,,,607176a53e0b57a4f8be7ac9,34,Mężczyzna,2022-06-04_08h11.17.477,task,2021.1.4,Win32,59.95203837,628b806c463b948bc644b84f,629af7335e289bc62307838a,,,,,,,,,,,,,,,,,,,,,,,3,,,,,,,,,,Task,27,(3/3) + 2,3,,,,,,,,,,,,,,,,,,,1,,,,,,,,,,,,,,,,,,,,,,,"[""3""]",1,[4.919099999904574],0,0,0,26,1,,,,,,,,,,,,,,,,,,
,,,,,,,,,,607176a53e0b57a4f8be7ac9,34,Mężczyzna,2022-06-04_08h11.17.477,task,2021.1.4,Win32,59.95203837,628b806c463b948bc644b84f,629af7335e289bc62307838a,,,,,,,,,,X V Q F H G B L J M P D K C T S W R N Z,,,,,,,,,,,,,,,,,,,,,,,,,,,,,,,,,,,,,,,,,,,,,,,,,,,,,,,,,,,,,,,,,,,,,,,,,,,,0,0,0,0,1,,,,,,,,,,,,,
,,,,,,,,,,607176a53e0b57a4f8be7ac9,34,Mężczyzna,2022-06-04_08h11.17.477,task,2021.1.4,Win32,59.95203837,628b806c463b948bc644b84f,629af7335e289bc62307838a,,,,,,,,,,,,,,,,,,,,,,,5,,,,,,,,,,Task,29,(3x8) - 19 ,5,,,,,,,,,,,,,,,,,,,1,,,,,,,,,,,,,,,,,,,,,,,"[""5""]",1,[15.605400000095415],0,0,0,28,1,,,,,,,,,,,,,,,,,,
,,,,,,,,,,607176a53e0b57a4f8be7ac9,34,Mężczyzna,2022-06-04_08h11.17.477,task,2021.1.4,Win32,59.95203837,628b806c463b948bc644b84f,629af7335e289bc62307838a,,,,,,,,,,X V Q F H G B L J M P D K C T S W R N Z,,,,,,,,,,,,,,,,,,,,,,,,,,,,,,,,,,,,,,,,,,,,,,,,,,,,,,,,,,,,,,,,,,,,,,,,,,,,1,0,1,0,1,,,,,,,,,,,,,
,,,,,,,,,,607176a53e0b57a4f8be7ac9,34,Mężczyzna,2022-06-04_08h11.17.477,task,2021.1.4,Win32,59.95203837,628b806c463b948bc644b84f,629af7335e289bc62307838a,,,,,,,,,,,,,,,,,,,,,,,9,,,,,,,,,,Task,40,(7x2) - 5,9,,,,,,,,,,,,,,,,,,,1,,,,,,,,,,,,,,,,,,,,,,,"[""9""]",1,[3.550899999856938],0,0,0,39,1,,,,,,,,,,,,,,,,,,
,,,,,,,,,,607176a53e0b57a4f8be7ac9,34,Mężczyzna,2022-06-04_08h11.17.477,task,2021.1.4,Win32,59.95203837,628b806c463b948bc644b84f,629af7335e289bc62307838a,,,,,,,,,,X V Q F H G B L J M P D K C T S W R N Z,,,,,,,,,,,,,,,,,,,,,,,,,,,,,,,,,,,,,,,,,,,,,,,,,,,,,,,,,,,,,,,,,,,,,,,,,,,,2,0,2,0,1,,,,,,,,,,,,,
,,,,,,,,,,607176a53e0b57a4f8be7ac9,34,Mężczyzna,2022-06-04_08h11.17.477,task,2021.1.4,Win32,59.95203837,628b806c463b948bc644b84f,629af7335e289bc62307838a,,,,,,,,,,,,,,,,,,,,,,,1,,,,,,,,,,Task,9,(3x7) - 20,1,,,,,,,,,,,,,,,,,,,1,,,,,,,,,,,,,,,,,,,,,,,"[""1""]",1,[4.8462999999522935],0,0,0,8,1,,,,,,,,,,,,,,,,,,
,,,,,,,,,,607176a53e0b57a4f8be7ac9,34,Mężczyzna,2022-06-04_08h11.17.477,task,2021.1.4,Win32,59.95203837,628b806c463b948bc644b84f,629af7335e289bc62307838a,,,,,,,,,,X V Q F H G B L J M P D K C T S W R N Z,,,,,,,,,,,,,,,,,,,,,,,,,,,,,,,,,,,,,,,,,,,,,,,,,,,,,,,,,,,,,,,,,,,,,,,,,,,,3,0,3,0,1,,,,,,,,,,,,,
,,,,,,,,,,607176a53e0b57a4f8be7ac9,34,Mężczyzna,2022-06-04_08h11.17.477,task,2021.1.4,Win32,59.95203837,628b806c463b948bc644b84f,629af7335e289bc62307838a,,,,,,,,,,,,,,,,,,,,,,,3,,,,,,,,,,Task,27,(3/3) + 2,3,,,,,,,,,,,,,,,,,,,1,,,,,,,,,,,,,,,,,,,,,,,"[""3""]",1,[2.629599999904599],0,0,0,26,1,,,,,,,,,,,,,,,,,,
,,,,,,,,,,607176a53e0b57a4f8be7ac9,34,Mężczyzna,2022-06-04_08h11.17.477,task,2021.1.4,Win32,59.95203837,628b806c463b948bc644b84f,629af7335e289bc62307838a,,,,,,,,,,X V Q F H G B L J M P D K C T S W R N Z,,,,,,,,,,,,,,,,,,,,,,,,,,,,,,,,,,,,,,,,,,,,,,,,,,,,,,,,,,,,,,,,,,,,,,,,,,,,4,0,4,0,1,,,,,,,,,,,,,
,,,,,,,,,,607176a53e0b57a4f8be7ac9,34,Mężczyzna,2022-06-04_08h11.17.477,task,2021.1.4,Win32,59.95203837,628b806c463b948bc644b84f,629af7335e289bc62307838a,,,,,,,,,,,,,,,,,,,,,,,2,,,,,,,,,,Task,2,(2x2) - 2,2,,,,,,,,,,,,,,,,,,,1,,,,,,,,,,,,,,,,,,,,,,,"[""2""]",1,[11.428600000143092],0,0,0,1,1,,,,,,,,,,,,,,,,,,
,,,,,,,,,,607176a53e0b57a4f8be7ac9,34,Mężczyzna,2022-06-04_08h11.17.477,task,2021.1.4,Win32,59.95203837,628b806c463b948bc644b84f,629af7335e289bc62307838a,,,,,,,,,,X V Q F H G B L J M P D K C T S W R N Z,,,,,,,,,,,,,,,,,,,,,,,,,,,,,,,,,,,,,,,,,,,,,,,,,,,,,,,,,,,,,,,,,,,,,,,,,,,,5,0,5,0,1,,,,,,,,,,,,,
,,,,,,,,,,607176a53e0b57a4f8be7ac9,34,Mężczyzna,2022-06-04_08h11.17.477,task,2021.1.4,Win32,59.95203837,628b806c463b948bc644b84f,629af7335e289bc62307838a,,,,,,,,,,,,,,,,,,,,,,,,,,,,,,,,,,,,,,,,,,,,,,,,,,,,,,,,,,,,,,,,,,,,,,,,,,,,,,,,,,,,,,,,,,,nsnzd,"[""n"",""s"",""n"",""z"",""d""]",0,"[3.698300000190784,4.248900000095318,4.914400000095384,7.798300000190693,9.597600000143075,10.396300000190763]",0,MSNSZB,4,0,4,0,1,,
,,,,,,,,,,607176a53e0b57a4f8be7ac9,34,Mężczyzna,2022-06-04_08h11.17.477,task,2021.1.4,Win32,59.95203837,628b806c463b948bc644b84f,629af7335e289bc62307838a,,,,,,,,,,,,,,,,,,,,,,,6,,,,,,,,,,Task,30,(6/3) + 4 ,6,,,,,,,,,,,,,,,,,,,1,,,,,,,,,,,,,,,,,,,,,,,"[""6""]",1,[4.316299999952321],0,0,0,29,1,,,,,,,,,,,,,,,,,,
,,,,,,,,,,607176a53e0b57a4f8be7ac9,34,Mężczyzna,2022-06-04_08h11.17.477,task,2021.1.4,Win32,59.95203837,628b806c463b948bc644b84f,629af7335e289bc62307838a,,,,,,,,,,X V Q F H G B L J M P D K C T S W R N Z,,,,,,,,,,,,,,,,,,,,,,,,,,,,,,,,,,,,,,,,,,,,,,,,,,,,,,,,,,,,,,,,,,,,,,,,,,,,0,0,0,0,1,,,,,,,,,,,,,
,,,,,,,,,,607176a53e0b57a4f8be7ac9,34,Mężczyzna,2022-06-04_08h11.17.477,task,2021.1.4,Win32,59.95203837,628b806c463b948bc644b84f,629af7335e289bc62307838a,,,,,,,,,,,,,,,,,,,,,,,7,,,,,,,,,,Task,31,(4/2) + 5,7,,,,,,,,,,,,,,,,,,,1,,,,,,,,,,,,,,,,,,,,,,,"[""7""]",1,[2.969600000143032],0,0,0,30,1,,,,,,,,,,,,,,,,,,
,,,,,,,,,,607176a53e0b57a4f8be7ac9,34,Mężczyzna,2022-06-04_08h11.17.477,task,2021.1.4,Win32,59.95203837,628b806c463b948bc644b84f,629af7335e289bc62307838a,,,,,,,,,,X V Q F H G B L J M P D K C T S W R N Z,,,,,,,,,,,,,,,,,,,,,,,,,,,,,,,,,,,,,,,,,,,,,,,,,,,,,,,,,,,,,,,,,,,,,,,,,,,,1,0,1,0,1,,,,,,,,,,,,,
,,,,,,,,,,607176a53e0b57a4f8be7ac9,34,Mężczyzna,2022-06-04_08h11.17.477,task,2021.1.4,Win32,59.95203837,628b806c463b948bc644b84f,629af7335e289bc62307838a,,,,,,,,,,,,,,,,,,,,,,,0,,,,,,,,,,Task,17,(2x3) - 6,0,,,,,,,,,,,,,,,,,,,1,,,,,,,,,,,,,,,,,,,,,,,"[""0""]",1,[4.540700000047764],0,0,0,16,1,,,,,,,,,,,,,,,,,,
,,,,,,,,,,607176a53e0b57a4f8be7ac9,34,Mężczyzna,2022-06-04_08h11.17.477,task,2021.1.4,Win32,59.95203837,628b806c463b948bc644b84f,629af7335e289bc62307838a,,,,,,,,,,X V Q F H G B L J M P D K C T S W R N Z,,,,,,,,,,,,,,,,,,,,,,,,,,,,,,,,,,,,,,,,,,,,,,,,,,,,,,,,,,,,,,,,,,,,,,,,,,,,2,0,2,0,1,,,,,,,,,,,,,
,,,,,,,,,,607176a53e0b57a4f8be7ac9,34,Mężczyzna,2022-06-04_08h11.17.477,task,2021.1.4,Win32,59.95203837,628b806c463b948bc644b84f,629af7335e289bc62307838a,,,,,,,,,,,,,,,,,,,,,,,7,,,,,,,,,,Task,14,(2x2) + 3,7,,,,,,,,,,,,,,,,,,,1,,,,,,,,,,,,,,,,,,,,,,,"[""7""]",1,[8.048600000143097],0,0,0,13,1,,,,,,,,,,,,,,,,,,
,,,,,,,,,,607176a53e0b57a4f8be7ac9,34,Mężczyzna,2022-06-04_08h11.17.477,task,2021.1.4,Win32,59.95203837,628b806c463b948bc644b84f,629af7335e289bc62307838a,,,,,,,,,,X V Q F H G B L J M P D K C T S W R N Z,,,,,,,,,,,,,,,,,,,,,,,,,,,,,,,,,,,,,,,,,,,,,,,,,,,,,,,,,,,,,,,,,,,,,,,,,,,,3,0,3,0,1,,,,,,,,,,,,,
,,,,,,,,,,607176a53e0b57a4f8be7ac9,34,Mężczyzna,2022-06-04_08h11.17.477,task,2021.1.4,Win32,59.95203837,628b806c463b948bc644b84f,629af7335e289bc62307838a,,,,,,,,,,,,,,,,,,,,,,,2,,,,,,,,,,Task,10,(2x5) - 8,2,,,,,,,,,,,,,,,,,,,1,,,,,,,,,,,,,,,,,,,,,,,"[""2""]",1,[4.987299999952256],0,0,0,9,1,,,,,,,,,,,,,,,,,,
,,,,,,,,,,607176a53e0b57a4f8be7ac9,34,Mężczyzna,2022-06-04_08h11.17.477,task,2021.1.4,Win32,59.95203837,628b806c463b948bc644b84f,629af7335e289bc62307838a,,,,,,,,,,X V Q F H G B L J M P D K C T S W R N Z,,,,,,,,,,,,,,,,,,,,,,,,,,,,,,,,,,,,,,,,,,,,,,,,,,,,,,,,,,,,,,,,,,,,,,,,,,,,4,0,4,0,1,,,,,,,,,,,,,
,,,,,,,,,,607176a53e0b57a4f8be7ac9,34,Mężczyzna,2022-06-04_08h11.17.477,task,2021.1.4,Win32,59.95203837,628b806c463b948bc644b84f,629af7335e289bc62307838a,,,,,,,,,,,,,,,,,,,,,,,0,,,,,,,,,,Task,25,(10/5) - 2,0,,,,,,,,,,,,,,,,,,,1,,,,,,,,,,,,,,,,,,,,,,,"[""0""]",1,[7.517800000190732],0,0,0,24,1,,,,,,,,,,,,,,,,,,
,,,,,,,,,,607176a53e0b57a4f8be7ac9,34,Mężczyzna,2022-06-04_08h11.17.477,task,2021.1.4,Win32,59.95203837,628b806c463b948bc644b84f,629af7335e289bc62307838a,,,,,,,,,,X V Q F H G B L J M P D K C T S W R N Z,,,,,,,,,,,,,,,,,,,,,,,,,,,,,,,,,,,,,,,,,,,,,,,,,,,,,,,,,,,,,,,,,,,,,,,,,,,,5,0,5,0,1,,,,,,,,,,,,,
,,,,,,,,,,607176a53e0b57a4f8be7ac9,34,Mężczyzna,2022-06-04_08h11.17.477,task,2021.1.4,Win32,59.95203837,628b806c463b948bc644b84f,629af7335e289bc62307838a,,,,,,,,,,,,,,,,,,,,,,,,,,,,,,,,,,,,,,,,,,,,,,,,,,,,,,,,,,,,,,,,,,,,,,,,,,,,,,,,,,,,,,,,,,,zlnhq,"[""z"",""l"",""n"",""h"",""q""]",0,"[1.7347999999523154,2.5357000000476546,5.166099999904645,6.566000000000031,7.831999999999994,8.797899999857009]",0,LZMHRQ,5,0,5,0,1,,
,,,,,,,,,,607176a53e0b57a4f8be7ac9,34,Mężczyzna,2022-06-04_08h11.17.477,task,2021.1.4,Win32,59.95203837,628b806c463b948bc644b84f,629af7335e289bc62307838a,,,,,,,,,,,,,,,,,,,,,,,,,,,,,,,,,,,,,,,,,,,,,,,,,,,,,,,,,,,,,,,,,,,,,,,,,,,,,,,,,,,,,,,,,,,,,,,,,,,,,,space,2.4736
