key_resp_15.keys,key_resp_15.rt,key_resp_13.keys,key_resp_13.corr,key_resp_13.rt,ranodm_loop.thisRepN,ranodm_loop.thisTrialN,ranodm_loop.thisN,ranodm_loop.thisIndex,ranodm_loop.ran,participant,Wiek*,Płeć,date,expName,psychopyVersion,OS,frameRate,study_id,session,key_resp_16.keys,key_resp_16.rt,key_resp_4.keys,key_resp_4.rt,next_letter.thisRepN,next_letter.thisTrialN,next_letter.thisN,next_letter.thisIndex,next_letter.ran,letter,simple_recall,key_resp_5.keys,key_resp_5.rt,simple_recall_corr,simple_recall_corrkeys,next_level.thisRepN,next_level.thisTrialN,next_level.thisN,next_level.thisIndex,next_level.ran,key_resp_2.keys,key_resp_2.rt,digit_answer,key_resp.keys,key_resp.corr,key_resp.rt,RT_list,next_equation.thisRepN,next_equation.thisTrialN,next_equation.thisN,next_equation.thisIndex,next_equation.ran,Task,Trial,Problem,Operation_answer,processing_score,sumRT,meanRT,sumdiff,sd,RT,key_resp_3.keys,key_resp_3.rt,repeat_practice.thisRepN,repeat_practice.thisTrialN,repeat_practice.thisN,repeat_practice.thisIndex,repeat_practice.ran,key_resp_6.keys,key_resp_6.rt,key_resp_11.keys,key_resp_11.corr,key_resp_11.rt,operation_correct,repeat_if_wrong_prac.thisRepN,repeat_if_wrong_prac.thisTrialN,repeat_if_wrong_prac.thisN,repeat_if_wrong_prac.thisIndex,repeat_if_wrong_prac.ran,span_size_prac.thisRepN,span_size_prac.thisTrialN,span_size_prac.thisN,span_size_prac.thisIndex,span_size_prac.ran,complex_recall_practice,key_resp_9.keys,key_resp_9.corr,key_resp_9.rt,complex_prac_corr,span_recall_prac.thisRepN,span_recall_prac.thisTrialN,span_recall_prac.thisN,span_recall_prac.thisIndex,span_recall_prac.ran,key_resp_10.keys,key_resp_10.rt,key_resp_7.keys,key_resp_7.corr,key_resp_7.rt,repeat_if_wrong.thisRepN,repeat_if_wrong.thisTrialN,repeat_if_wrong.thisN,repeat_if_wrong.thisIndex,repeat_if_wrong.ran,span_size.thisRepN,span_size.thisTrialN,span_size.thisN,span_size.thisIndex,span_size.ran,complex_recall,key_resp_8.keys,key_resp_8.corr,key_resp_8.rt,complex_recall_corr,complex_recall_corrkeys,span_recall.thisRepN,span_recall.thisTrialN,span_recall.thisN,span_recall.thisIndex,span_recall.ran,key_resp_12.keys,key_resp_12.rt
space,36.7229,"[""comma""]",0,[0.5037999999523208],0,0,0,0,1,60717e12499498909e4883f1,19,Mężczyzna,2022-05-28_09h29.59.468,task,2021.1.4,Win32,59.86590038,628b806c463b948bc644b84f,6291ccefb1d0fe1734bbd347,,,,,,,,,,,,,,,,,,,,,,,,,,,,,,,,,,,,,,,,,,,,,,,,,,,,,,,,,,,,,,,,,,,,,,,,,,,,,,,,,,,,,,,,,,,,,,,,,,,,,,,
,,"[""period""]",0,[0.7173000000715319],1,0,1,0,1,60717e12499498909e4883f1,19,Mężczyzna,2022-05-28_09h29.59.468,task,2021.1.4,Win32,59.86590038,628b806c463b948bc644b84f,6291ccefb1d0fe1734bbd347,,,,,,,,,,,,,,,,,,,,,,,,,,,,,,,,,,,,,,,,,,,,,,,,,,,,,,,,,,,,,,,,,,,,,,,,,,,,,,,,,,,,,,,,,,,,,,,,,,,,,,,
,,"[""period""]",0,[0.8097000000477124],2,0,2,0,1,60717e12499498909e4883f1,19,Mężczyzna,2022-05-28_09h29.59.468,task,2021.1.4,Win32,59.86590038,628b806c463b948bc644b84f,6291ccefb1d0fe1734bbd347,,,,,,,,,,,,,,,,,,,,,,,,,,,,,,,,,,,,,,,,,,,,,,,,,,,,,,,,,,,,,,,,,,,,,,,,,,,,,,,,,,,,,,,,,,,,,,,,,,,,,,,
,,"[""comma""]",0,[0.4436999999284694],3,0,3,0,1,60717e12499498909e4883f1,19,Mężczyzna,2022-05-28_09h29.59.468,task,2021.1.4,Win32,59.86590038,628b806c463b948bc644b84f,6291ccefb1d0fe1734bbd347,,,,,,,,,,,,,,,,,,,,,,,,,,,,,,,,,,,,,,,,,,,,,,,,,,,,,,,,,,,,,,,,,,,,,,,,,,,,,,,,,,,,,,,,,,,,,,,,,,,,,,,
,,"[""period""]",0,[0.5337999999522935],4,0,4,0,1,60717e12499498909e4883f1,19,Mężczyzna,2022-05-28_09h29.59.468,task,2021.1.4,Win32,59.86590038,628b806c463b948bc644b84f,6291ccefb1d0fe1734bbd347,,,,,,,,,,,,,,,,,,,,,,,,,,,,,,,,,,,,,,,,,,,,,,,,,,,,,,,,,,,,,,,,,,,,,,,,,,,,,,,,,,,,,,,,,,,,,,,,,,,,,,,
,,"[""period""]",0,[0.7176000000238218],5,0,5,0,1,60717e12499498909e4883f1,19,Mężczyzna,2022-05-28_09h29.59.468,task,2021.1.4,Win32,59.86590038,628b806c463b948bc644b84f,6291ccefb1d0fe1734bbd347,,,,,,,,,,,,,,,,,,,,,,,,,,,,,,,,,,,,,,,,,,,,,,,,,,,,,,,,,,,,,,,,,,,,,,,,,,,,,,,,,,,,,,,,,,,,,,,,,,,,,,,
,,"[""comma""]",0,[0.3241000000238614],6,0,6,0,1,60717e12499498909e4883f1,19,Mężczyzna,2022-05-28_09h29.59.468,task,2021.1.4,Win32,59.86590038,628b806c463b948bc644b84f,6291ccefb1d0fe1734bbd347,,,,,,,,,,,,,,,,,,,,,,,,,,,,,,,,,,,,,,,,,,,,,,,,,,,,,,,,,,,,,,,,,,,,,,,,,,,,,,,,,,,,,,,,,,,,,,,,,,,,,,,
,,"[""comma"",""comma""]",0,"[0.08410000002385232,1.9058999999761568]",7,0,7,0,1,60717e12499498909e4883f1,19,Mężczyzna,2022-05-28_09h29.59.468,task,2021.1.4,Win32,59.86590038,628b806c463b948bc644b84f,6291ccefb1d0fe1734bbd347,,,,,,,,,,,,,,,,,,,,,,,,,,,,,,,,,,,,,,,,,,,,,,,,,,,,,,,,,,,,,,,,,,,,,,,,,,,,,,,,,,,,,,,,,,,,,,,,,,,,,,,
,,,0,,8,0,8,0,1,60717e12499498909e4883f1,19,Mężczyzna,2022-05-28_09h29.59.468,task,2021.1.4,Win32,59.86590038,628b806c463b948bc644b84f,6291ccefb1d0fe1734bbd347,,,,,,,,,,,,,,,,,,,,,,,,,,,,,,,,,,,,,,,,,,,,,,,,,,,,,,,,,,,,,,,,,,,,,,,,,,,,,,,,,,,,,,,,,,,,,,,,,,,,,,,
,,"[""period""]",0,[0.13410000002386369],9,0,9,0,1,60717e12499498909e4883f1,19,Mężczyzna,2022-05-28_09h29.59.468,task,2021.1.4,Win32,59.86590038,628b806c463b948bc644b84f,6291ccefb1d0fe1734bbd347,,,,,,,,,,,,,,,,,,,,,,,,,,,,,,,,,,,,,,,,,,,,,,,,,,,,,,,,,,,,,,,,,,,,,,,,,,,,,,,,,,,,,,,,,,,,,,,,,,,,,,,
,,"[""comma""]",0,[0.1748000000715706],10,0,10,0,1,60717e12499498909e4883f1,19,Mężczyzna,2022-05-28_09h29.59.468,task,2021.1.4,Win32,59.86590038,628b806c463b948bc644b84f,6291ccefb1d0fe1734bbd347,,,,,,,,,,,,,,,,,,,,,,,,,,,,,,,,,,,,,,,,,,,,,,,,,,,,,,,,,,,,,,,,,,,,,,,,,,,,,,,,,,,,,,,,,,,,,,,,,,,,,,,
,,"[""comma""]",0,[0.08420000004770145],11,0,11,0,1,60717e12499498909e4883f1,19,Mężczyzna,2022-05-28_09h29.59.468,task,2021.1.4,Win32,59.86590038,628b806c463b948bc644b84f,6291ccefb1d0fe1734bbd347,,,,,,,,,,,,,,,,,,,,,,,,,,,,,,,,,,,,,,,,,,,,,,,,,,,,,,,,,,,,,,,,,,,,,,,,,,,,,,,,,,,,,,,,,,,,,,,,,,,,,,,
,,"[""period""]",0,[0.2838999999761427],12,0,12,0,1,60717e12499498909e4883f1,19,Mężczyzna,2022-05-28_09h29.59.468,task,2021.1.4,Win32,59.86590038,628b806c463b948bc644b84f,6291ccefb1d0fe1734bbd347,,,,,,,,,,,,,,,,,,,,,,,,,,,,,,,,,,,,,,,,,,,,,,,,,,,,,,,,,,,,,,,,,,,,,,,,,,,,,,,,,,,,,,,,,,,,,,,,,,,,,,,
,,"[""period""]",0,[0.25960000002385186],13,0,13,0,1,60717e12499498909e4883f1,19,Mężczyzna,2022-05-28_09h29.59.468,task,2021.1.4,Win32,59.86590038,628b806c463b948bc644b84f,6291ccefb1d0fe1734bbd347,,,,,,,,,,,,,,,,,,,,,,,,,,,,,,,,,,,,,,,,,,,,,,,,,,,,,,,,,,,,,,,,,,,,,,,,,,,,,,,,,,,,,,,,,,,,,,,,,,,,,,,
,,"[""comma""]",0,[0.3511000000238482],14,0,14,0,1,60717e12499498909e4883f1,19,Mężczyzna,2022-05-28_09h29.59.468,task,2021.1.4,Win32,59.86590038,628b806c463b948bc644b84f,6291ccefb1d0fe1734bbd347,,,,,,,,,,,,,,,,,,,,,,,,,,,,,,,,,,,,,,,,,,,,,,,,,,,,,,,,,,,,,,,,,,,,,,,,,,,,,,,,,,,,,,,,,,,,,,,,,,,,,,,
,,"[""period""]",0,[0.18409999990461756],15,0,15,0,1,60717e12499498909e4883f1,19,Mężczyzna,2022-05-28_09h29.59.468,task,2021.1.4,Win32,59.86590038,628b806c463b948bc644b84f,6291ccefb1d0fe1734bbd347,,,,,,,,,,,,,,,,,,,,,,,,,,,,,,,,,,,,,,,,,,,,,,,,,,,,,,,,,,,,,,,,,,,,,,,,,,,,,,,,,,,,,,,,,,,,,,,,,,,,,,,
,,"[""period""]",0,[0.28410000002384095],16,0,16,0,1,60717e12499498909e4883f1,19,Mężczyzna,2022-05-28_09h29.59.468,task,2021.1.4,Win32,59.86590038,628b806c463b948bc644b84f,6291ccefb1d0fe1734bbd347,,,,,,,,,,,,,,,,,,,,,,,,,,,,,,,,,,,,,,,,,,,,,,,,,,,,,,,,,,,,,,,,,,,,,,,,,,,,,,,,,,,,,,,,,,,,,,,,,,,,,,,
,,"[""period""]",0,[0.30470000004766007],17,0,17,0,1,60717e12499498909e4883f1,19,Mężczyzna,2022-05-28_09h29.59.468,task,2021.1.4,Win32,59.86590038,628b806c463b948bc644b84f,6291ccefb1d0fe1734bbd347,,,,,,,,,,,,,,,,,,,,,,,,,,,,,,,,,,,,,,,,,,,,,,,,,,,,,,,,,,,,,,,,,,,,,,,,,,,,,,,,,,,,,,,,,,,,,,,,,,,,,,,
,,"[""comma""]",0,[0.15099999999995362],18,0,18,0,1,60717e12499498909e4883f1,19,Mężczyzna,2022-05-28_09h29.59.468,task,2021.1.4,Win32,59.86590038,628b806c463b948bc644b84f,6291ccefb1d0fe1734bbd347,,,,,,,,,,,,,,,,,,,,,,,,,,,,,,,,,,,,,,,,,,,,,,,,,,,,,,,,,,,,,,,,,,,,,,,,,,,,,,,,,,,,,,,,,,,,,,,,,,,,,,,
,,"[""period"",""comma""]",0,"[0.00050000000004502,1.8836000000238755]",19,0,19,0,1,60717e12499498909e4883f1,19,Mężczyzna,2022-05-28_09h29.59.468,task,2021.1.4,Win32,59.86590038,628b806c463b948bc644b84f,6291ccefb1d0fe1734bbd347,,,,,,,,,,,,,,,,,,,,,,,,,,,,,,,,,,,,,,,,,,,,,,,,,,,,,,,,,,,,,,,,,,,,,,,,,,,,,,,,,,,,,,,,,,,,,,,,,,,,,,,
,,,0,,20,0,20,0,1,60717e12499498909e4883f1,19,Mężczyzna,2022-05-28_09h29.59.468,task,2021.1.4,Win32,59.86590038,628b806c463b948bc644b84f,6291ccefb1d0fe1734bbd347,,,,,,,,,,,,,,,,,,,,,,,,,,,,,,,,,,,,,,,,,,,,,,,,,,,,,,,,,,,,,,,,,,,,,,,,,,,,,,,,,,,,,,,,,,,,,,,,,,,,,,,
,,"[""comma"",""comma""]",0,"[0.026499999999998636,1.021899999976199]",21,0,21,0,1,60717e12499498909e4883f1,19,Mężczyzna,2022-05-28_09h29.59.468,task,2021.1.4,Win32,59.86590038,628b806c463b948bc644b84f,6291ccefb1d0fe1734bbd347,,,,,,,,,,,,,,,,,,,,,,,,,,,,,,,,,,,,,,,,,,,,,,,,,,,,,,,,,,,,,,,,,,,,,,,,,,,,,,,,,,,,,,,,,,,,,,,,,,,,,,,
,,,0,,22,0,22,0,1,60717e12499498909e4883f1,19,Mężczyzna,2022-05-28_09h29.59.468,task,2021.1.4,Win32,59.86590038,628b806c463b948bc644b84f,6291ccefb1d0fe1734bbd347,,,,,,,,,,,,,,,,,,,,,,,,,,,,,,,,,,,,,,,,,,,,,,,,,,,,,,,,,,,,,,,,,,,,,,,,,,,,,,,,,,,,,,,,,,,,,,,,,,,,,,,
,,"[""period""]",0,[0.3928000000715315],23,0,23,0,1,60717e12499498909e4883f1,19,Mężczyzna,2022-05-28_09h29.59.468,task,2021.1.4,Win32,59.86590038,628b806c463b948bc644b84f,6291ccefb1d0fe1734bbd347,,,,,,,,,,,,,,,,,,,,,,,,,,,,,,,,,,,,,,,,,,,,,,,,,,,,,,,,,,,,,,,,,,,,,,,,,,,,,,,,,,,,,,,,,,,,,,,,,,,,,,,
,,"[""period""]",0,[0.2729999999999677],24,0,24,0,1,60717e12499498909e4883f1,19,Mężczyzna,2022-05-28_09h29.59.468,task,2021.1.4,Win32,59.86590038,628b806c463b948bc644b84f,6291ccefb1d0fe1734bbd347,,,,,,,,,,,,,,,,,,,,,,,,,,,,,,,,,,,,,,,,,,,,,,,,,,,,,,,,,,,,,,,,,,,,,,,,,,,,,,,,,,,,,,,,,,,,,,,,,,,,,,,
,,"[""comma""]",0,[0.21019999992847715],25,0,25,0,1,60717e12499498909e4883f1,19,Mężczyzna,2022-05-28_09h29.59.468,task,2021.1.4,Win32,59.86590038,628b806c463b948bc644b84f,6291ccefb1d0fe1734bbd347,,,,,,,,,,,,,,,,,,,,,,,,,,,,,,,,,,,,,,,,,,,,,,,,,,,,,,,,,,,,,,,,,,,,,,,,,,,,,,,,,,,,,,,,,,,,,,,,,,,,,,,
,,"[""period""]",0,[0.23429999995227035],26,0,26,0,1,60717e12499498909e4883f1,19,Mężczyzna,2022-05-28_09h29.59.468,task,2021.1.4,Win32,59.86590038,628b806c463b948bc644b84f,6291ccefb1d0fe1734bbd347,,,,,,,,,,,,,,,,,,,,,,,,,,,,,,,,,,,,,,,,,,,,,,,,,,,,,,,,,,,,,,,,,,,,,,,,,,,,,,,,,,,,,,,,,,,,,,,,,,,,,,,
,,"[""comma""]",0,[0.18359999990468623],27,0,27,0,1,60717e12499498909e4883f1,19,Mężczyzna,2022-05-28_09h29.59.468,task,2021.1.4,Win32,59.86590038,628b806c463b948bc644b84f,6291ccefb1d0fe1734bbd347,,,,,,,,,,,,,,,,,,,,,,,,,,,,,,,,,,,,,,,,,,,,,,,,,,,,,,,,,,,,,,,,,,,,,,,,,,,,,,,,,,,,,,,,,,,,,,,,,,,,,,,
,,"[""comma""]",0,[0.09970000004767599],28,0,28,0,1,60717e12499498909e4883f1,19,Mężczyzna,2022-05-28_09h29.59.468,task,2021.1.4,Win32,59.86590038,628b806c463b948bc644b84f,6291ccefb1d0fe1734bbd347,,,,,,,,,,,,,,,,,,,,,,,,,,,,,,,,,,,,,,,,,,,,,,,,,,,,,,,,,,,,,,,,,,,,,,,,,,,,,,,,,,,,,,,,,,,,,,,,,,,,,,,
,,"[""period""]",0,[0.2839999999999918],29,0,29,0,1,60717e12499498909e4883f1,19,Mężczyzna,2022-05-28_09h29.59.468,task,2021.1.4,Win32,59.86590038,628b806c463b948bc644b84f,6291ccefb1d0fe1734bbd347,,,,,,,,,,,,,,,,,,,,,,,,,,,,,,,,,,,,,,,,,,,,,,,,,,,,,,,,,,,,,,,,,,,,,,,,,,,,,,,,,,,,,,,,,,,,,,,,,,,,,,,
,,"[""period""]",0,[0.038799999952289],30,0,30,0,1,60717e12499498909e4883f1,19,Mężczyzna,2022-05-28_09h29.59.468,task,2021.1.4,Win32,59.86590038,628b806c463b948bc644b84f,6291ccefb1d0fe1734bbd347,,,,,,,,,,,,,,,,,,,,,,,,,,,,,,,,,,,,,,,,,,,,,,,,,,,,,,,,,,,,,,,,,,,,,,,,,,,,,,,,,,,,,,,,,,,,,,,,,,,,,,,
,,"[""period""]",0,[0.26789999997617997],31,0,31,0,1,60717e12499498909e4883f1,19,Mężczyzna,2022-05-28_09h29.59.468,task,2021.1.4,Win32,59.86590038,628b806c463b948bc644b84f,6291ccefb1d0fe1734bbd347,,,,,,,,,,,,,,,,,,,,,,,,,,,,,,,,,,,,,,,,,,,,,,,,,,,,,,,,,,,,,,,,,,,,,,,,,,,,,,,,,,,,,,,,,,,,,,,,,,,,,,,
,,"[""comma""]",0,[0.20069999992847443],32,0,32,0,1,60717e12499498909e4883f1,19,Mężczyzna,2022-05-28_09h29.59.468,task,2021.1.4,Win32,59.86590038,628b806c463b948bc644b84f,6291ccefb1d0fe1734bbd347,,,,,,,,,,,,,,,,,,,,,,,,,,,,,,,,,,,,,,,,,,,,,,,,,,,,,,,,,,,,,,,,,,,,,,,,,,,,,,,,,,,,,,,,,,,,,,,,,,,,,,,
,,"[""comma"",""period""]",0,"[0.47670000004768553,0.48470000004772373]",33,0,33,0,1,60717e12499498909e4883f1,19,Mężczyzna,2022-05-28_09h29.59.468,task,2021.1.4,Win32,59.86590038,628b806c463b948bc644b84f,6291ccefb1d0fe1734bbd347,,,,,,,,,,,,,,,,,,,,,,,,,,,,,,,,,,,,,,,,,,,,,,,,,,,,,,,,,,,,,,,,,,,,,,,,,,,,,,,,,,,,,,,,,,,,,,,,,,,,,,,
,,"[""comma""]",0,[0.7856000000238055],34,0,34,0,1,60717e12499498909e4883f1,19,Mężczyzna,2022-05-28_09h29.59.468,task,2021.1.4,Win32,59.86590038,628b806c463b948bc644b84f,6291ccefb1d0fe1734bbd347,,,,,,,,,,,,,,,,,,,,,,,,,,,,,,,,,,,,,,,,,,,,,,,,,,,,,,,,,,,,,,,,,,,,,,,,,,,,,,,,,,,,,,,,,,,,,,,,,,,,,,,
,,"[""period""]",0,[0.2839000000954002],35,0,35,0,1,60717e12499498909e4883f1,19,Mężczyzna,2022-05-28_09h29.59.468,task,2021.1.4,Win32,59.86590038,628b806c463b948bc644b84f,6291ccefb1d0fe1734bbd347,,,,,,,,,,,,,,,,,,,,,,,,,,,,,,,,,,,,,,,,,,,,,,,,,,,,,,,,,,,,,,,,,,,,,,,,,,,,,,,,,,,,,,,,,,,,,,,,,,,,,,,
,,"[""comma""]",0,[0.3170000000000073],36,0,36,0,1,60717e12499498909e4883f1,19,Mężczyzna,2022-05-28_09h29.59.468,task,2021.1.4,Win32,59.86590038,628b806c463b948bc644b84f,6291ccefb1d0fe1734bbd347,,,,,,,,,,,,,,,,,,,,,,,,,,,,,,,,,,,,,,,,,,,,,,,,,,,,,,,,,,,,,,,,,,,,,,,,,,,,,,,,,,,,,,,,,,,,,,,,,,,,,,,
,,"[""period""]",0,[0.4536000000238687],37,0,37,0,1,60717e12499498909e4883f1,19,Mężczyzna,2022-05-28_09h29.59.468,task,2021.1.4,Win32,59.86590038,628b806c463b948bc644b84f,6291ccefb1d0fe1734bbd347,,,,,,,,,,,,,,,,,,,,,,,,,,,,,,,,,,,,,,,,,,,,,,,,,,,,,,,,,,,,,,,,,,,,,,,,,,,,,,,,,,,,,,,,,,,,,,,,,,,,,,,
,,"[""period""]",0,[0.275299999952324],38,0,38,0,1,60717e12499498909e4883f1,19,Mężczyzna,2022-05-28_09h29.59.468,task,2021.1.4,Win32,59.86590038,628b806c463b948bc644b84f,6291ccefb1d0fe1734bbd347,,,,,,,,,,,,,,,,,,,,,,,,,,,,,,,,,,,,,,,,,,,,,,,,,,,,,,,,,,,,,,,,,,,,,,,,,,,,,,,,,,,,,,,,,,,,,,,,,,,,,,,
,,"[""period""]",0,[0.28410000002384095],39,0,39,0,1,60717e12499498909e4883f1,19,Mężczyzna,2022-05-28_09h29.59.468,task,2021.1.4,Win32,59.86590038,628b806c463b948bc644b84f,6291ccefb1d0fe1734bbd347,,,,,,,,,,,,,,,,,,,,,,,,,,,,,,,,,,,,,,,,,,,,,,,,,,,,,,,,,,,,,,,,,,,,,,,,,,,,,,,,,,,,,,,,,,,,,,,,,,,,,,,
,,"[""comma""]",0,[0.2338999999761313],40,0,40,0,1,60717e12499498909e4883f1,19,Mężczyzna,2022-05-28_09h29.59.468,task,2021.1.4,Win32,59.86590038,628b806c463b948bc644b84f,6291ccefb1d0fe1734bbd347,,,,,,,,,,,,,,,,,,,,,,,,,,,,,,,,,,,,,,,,,,,,,,,,,,,,,,,,,,,,,,,,,,,,,,,,,,,,,,,,,,,,,,,,,,,,,,,,,,,,,,,
,,"[""period""]",0,[0.23389999997618816],41,0,41,0,1,60717e12499498909e4883f1,19,Mężczyzna,2022-05-28_09h29.59.468,task,2021.1.4,Win32,59.86590038,628b806c463b948bc644b84f,6291ccefb1d0fe1734bbd347,,,,,,,,,,,,,,,,,,,,,,,,,,,,,,,,,,,,,,,,,,,,,,,,,,,,,,,,,,,,,,,,,,,,,,,,,,,,,,,,,,,,,,,,,,,,,,,,,,,,,,,
,,"[""period""]",0,[0.22299999999995634],42,0,42,0,1,60717e12499498909e4883f1,19,Mężczyzna,2022-05-28_09h29.59.468,task,2021.1.4,Win32,59.86590038,628b806c463b948bc644b84f,6291ccefb1d0fe1734bbd347,,,,,,,,,,,,,,,,,,,,,,,,,,,,,,,,,,,,,,,,,,,,,,,,,,,,,,,,,,,,,,,,,,,,,,,,,,,,,,,,,,,,,,,,,,,,,,,,,,,,,,,
,,"[""comma""]",0,[0.10629999995228445],43,0,43,0,1,60717e12499498909e4883f1,19,Mężczyzna,2022-05-28_09h29.59.468,task,2021.1.4,Win32,59.86590038,628b806c463b948bc644b84f,6291ccefb1d0fe1734bbd347,,,,,,,,,,,,,,,,,,,,,,,,,,,,,,,,,,,,,,,,,,,,,,,,,,,,,,,,,,,,,,,,,,,,,,,,,,,,,,,,,,,,,,,,,,,,,,,,,,,,,,,
,,"[""comma""]",0,[0.017099999904644392],44,0,44,0,1,60717e12499498909e4883f1,19,Mężczyzna,2022-05-28_09h29.59.468,task,2021.1.4,Win32,59.86590038,628b806c463b948bc644b84f,6291ccefb1d0fe1734bbd347,,,,,,,,,,,,,,,,,,,,,,,,,,,,,,,,,,,,,,,,,,,,,,,,,,,,,,,,,,,,,,,,,,,,,,,,,,,,,,,,,,,,,,,,,,,,,,,,,,,,,,,
,,"[""comma""]",0,[0.18370000004767917],45,0,45,0,1,60717e12499498909e4883f1,19,Mężczyzna,2022-05-28_09h29.59.468,task,2021.1.4,Win32,59.86590038,628b806c463b948bc644b84f,6291ccefb1d0fe1734bbd347,,,,,,,,,,,,,,,,,,,,,,,,,,,,,,,,,,,,,,,,,,,,,,,,,,,,,,,,,,,,,,,,,,,,,,,,,,,,,,,,,,,,,,,,,,,,,,,,,,,,,,,
,,"[""period""]",0,[0.2838999999761995],46,0,46,0,1,60717e12499498909e4883f1,19,Mężczyzna,2022-05-28_09h29.59.468,task,2021.1.4,Win32,59.86590038,628b806c463b948bc644b84f,6291ccefb1d0fe1734bbd347,,,,,,,,,,,,,,,,,,,,,,,,,,,,,,,,,,,,,,,,,,,,,,,,,,,,,,,,,,,,,,,,,,,,,,,,,,,,,,,,,,,,,,,,,,,,,,,,,,,,,,,
,,"[""comma""]",0,[0.2266000000238364],47,0,47,0,1,60717e12499498909e4883f1,19,Mężczyzna,2022-05-28_09h29.59.468,task,2021.1.4,Win32,59.86590038,628b806c463b948bc644b84f,6291ccefb1d0fe1734bbd347,,,,,,,,,,,,,,,,,,,,,,,,,,,,,,,,,,,,,,,,,,,,,,,,,,,,,,,,,,,,,,,,,,,,,,,,,,,,,,,,,,,,,,,,,,,,,,,,,,,,,,,
,,"[""comma""]",0,[0.13789999997618452],48,0,48,0,1,60717e12499498909e4883f1,19,Mężczyzna,2022-05-28_09h29.59.468,task,2021.1.4,Win32,59.86590038,628b806c463b948bc644b84f,6291ccefb1d0fe1734bbd347,,,,,,,,,,,,,,,,,,,,,,,,,,,,,,,,,,,,,,,,,,,,,,,,,,,,,,,,,,,,,,,,,,,,,,,,,,,,,,,,,,,,,,,,,,,,,,,,,,,,,,,
,,"[""comma""]",0,[0.18400000000002592],49,0,49,0,1,60717e12499498909e4883f1,19,Mężczyzna,2022-05-28_09h29.59.468,task,2021.1.4,Win32,59.86590038,628b806c463b948bc644b84f,6291ccefb1d0fe1734bbd347,,,,,,,,,,,,,,,,,,,,,,,,,,,,,,,,,,,,,,,,,,,,,,,,,,,,,,,,,,,,,,,,,,,,,,,,,,,,,,,,,,,,,,,,,,,,,,,,,,,,,,,
,,"[""period""]",0,[0.2506999999284858],50,0,50,0,1,60717e12499498909e4883f1,19,Mężczyzna,2022-05-28_09h29.59.468,task,2021.1.4,Win32,59.86590038,628b806c463b948bc644b84f,6291ccefb1d0fe1734bbd347,,,,,,,,,,,,,,,,,,,,,,,,,,,,,,,,,,,,,,,,,,,,,,,,,,,,,,,,,,,,,,,,,,,,,,,,,,,,,,,,,,,,,,,,,,,,,,,,,,,,,,,
,,"[""period""]",0,[0.5174999999999841],51,0,51,0,1,60717e12499498909e4883f1,19,Mężczyzna,2022-05-28_09h29.59.468,task,2021.1.4,Win32,59.86590038,628b806c463b948bc644b84f,6291ccefb1d0fe1734bbd347,,,,,,,,,,,,,,,,,,,,,,,,,,,,,,,,,,,,,,,,,,,,,,,,,,,,,,,,,,,,,,,,,,,,,,,,,,,,,,,,,,,,,,,,,,,,,,,,,,,,,,,
,,"[""comma""]",0,[0.2504999999999882],52,0,52,0,1,60717e12499498909e4883f1,19,Mężczyzna,2022-05-28_09h29.59.468,task,2021.1.4,Win32,59.86590038,628b806c463b948bc644b84f,6291ccefb1d0fe1734bbd347,,,,,,,,,,,,,,,,,,,,,,,,,,,,,,,,,,,,,,,,,,,,,,,,,,,,,,,,,,,,,,,,,,,,,,,,,,,,,,,,,,,,,,,,,,,,,,,,,,,,,,,
,,"[""period""]",0,[0.3097000000476555],53,0,53,0,1,60717e12499498909e4883f1,19,Mężczyzna,2022-05-28_09h29.59.468,task,2021.1.4,Win32,59.86590038,628b806c463b948bc644b84f,6291ccefb1d0fe1734bbd347,,,,,,,,,,,,,,,,,,,,,,,,,,,,,,,,,,,,,,,,,,,,,,,,,,,,,,,,,,,,,,,,,,,,,,,,,,,,,,,,,,,,,,,,,,,,,,,,,,,,,,,
,,"[""period""]",0,[0.2222999999522699],54,0,54,0,1,60717e12499498909e4883f1,19,Mężczyzna,2022-05-28_09h29.59.468,task,2021.1.4,Win32,59.86590038,628b806c463b948bc644b84f,6291ccefb1d0fe1734bbd347,,,,,,,,,,,,,,,,,,,,,,,,,,,,,,,,,,,,,,,,,,,,,,,,,,,,,,,,,,,,,,,,,,,,,,,,,,,,,,,,,,,,,,,,,,,,,,,,,,,,,,,
,,"[""comma""]",0,[0.22560000002386005],55,0,55,0,1,60717e12499498909e4883f1,19,Mężczyzna,2022-05-28_09h29.59.468,task,2021.1.4,Win32,59.86590038,628b806c463b948bc644b84f,6291ccefb1d0fe1734bbd347,,,,,,,,,,,,,,,,,,,,,,,,,,,,,,,,,,,,,,,,,,,,,,,,,,,,,,,,,,,,,,,,,,,,,,,,,,,,,,,,,,,,,,,,,,,,,,,,,,,,,,,
,,"[""comma""]",0,[0.3006000000238487],56,0,56,0,1,60717e12499498909e4883f1,19,Mężczyzna,2022-05-28_09h29.59.468,task,2021.1.4,Win32,59.86590038,628b806c463b948bc644b84f,6291ccefb1d0fe1734bbd347,,,,,,,,,,,,,,,,,,,,,,,,,,,,,,,,,,,,,,,,,,,,,,,,,,,,,,,,,,,,,,,,,,,,,,,,,,,,,,,,,,,,,,,,,,,,,,,,,,,,,,,
,,"[""comma""]",0,[0.3586000000238414],57,0,57,0,1,60717e12499498909e4883f1,19,Mężczyzna,2022-05-28_09h29.59.468,task,2021.1.4,Win32,59.86590038,628b806c463b948bc644b84f,6291ccefb1d0fe1734bbd347,,,,,,,,,,,,,,,,,,,,,,,,,,,,,,,,,,,,,,,,,,,,,,,,,,,,,,,,,,,,,,,,,,,,,,,,,,,,,,,,,,,,,,,,,,,,,,,,,,,,,,,
,,"[""period""]",0,[0.2702000000476801],58,0,58,0,1,60717e12499498909e4883f1,19,Mężczyzna,2022-05-28_09h29.59.468,task,2021.1.4,Win32,59.86590038,628b806c463b948bc644b84f,6291ccefb1d0fe1734bbd347,,,,,,,,,,,,,,,,,,,,,,,,,,,,,,,,,,,,,,,,,,,,,,,,,,,,,,,,,,,,,,,,,,,,,,,,,,,,,,,,,,,,,,,,,,,,,,,,,,,,,,,
,,"[""comma""]",0,[0.2933999999761454],59,0,59,0,1,60717e12499498909e4883f1,19,Mężczyzna,2022-05-28_09h29.59.468,task,2021.1.4,Win32,59.86590038,628b806c463b948bc644b84f,6291ccefb1d0fe1734bbd347,,,,,,,,,,,,,,,,,,,,,,,,,,,,,,,,,,,,,,,,,,,,,,,,,,,,,,,,,,,,,,,,,,,,,,,,,,,,,,,,,,,,,,,,,,,,,,,,,,,,,,,
,,"[""period""]",0,[0.2904999999999518],60,0,60,0,1,60717e12499498909e4883f1,19,Mężczyzna,2022-05-28_09h29.59.468,task,2021.1.4,Win32,59.86590038,628b806c463b948bc644b84f,6291ccefb1d0fe1734bbd347,,,,,,,,,,,,,,,,,,,,,,,,,,,,,,,,,,,,,,,,,,,,,,,,,,,,,,,,,,,,,,,,,,,,,,,,,,,,,,,,,,,,,,,,,,,,,,,,,,,,,,,
,,"[""period""]",0,[0.25069999992842895],61,0,61,0,1,60717e12499498909e4883f1,19,Mężczyzna,2022-05-28_09h29.59.468,task,2021.1.4,Win32,59.86590038,628b806c463b948bc644b84f,6291ccefb1d0fe1734bbd347,,,,,,,,,,,,,,,,,,,,,,,,,,,,,,,,,,,,,,,,,,,,,,,,,,,,,,,,,,,,,,,,,,,,,,,,,,,,,,,,,,,,,,,,,,,,,,,,,,,,,,,
,,"[""comma""]",0,[0.24929999995231356],62,0,62,0,1,60717e12499498909e4883f1,19,Mężczyzna,2022-05-28_09h29.59.468,task,2021.1.4,Win32,59.86590038,628b806c463b948bc644b84f,6291ccefb1d0fe1734bbd347,,,,,,,,,,,,,,,,,,,,,,,,,,,,,,,,,,,,,,,,,,,,,,,,,,,,,,,,,,,,,,,,,,,,,,,,,,,,,,,,,,,,,,,,,,,,,,,,,,,,,,,
,,"[""comma""]",0,[0.5332999999523054],63,0,63,0,1,60717e12499498909e4883f1,19,Mężczyzna,2022-05-28_09h29.59.468,task,2021.1.4,Win32,59.86590038,628b806c463b948bc644b84f,6291ccefb1d0fe1734bbd347,,,,,,,,,,,,,,,,,,,,,,,,,,,,,,,,,,,,,,,,,,,,,,,,,,,,,,,,,,,,,,,,,,,,,,,,,,,,,,,,,,,,,,,,,,,,,,,,,,,,,,,
,,"[""period""]",0,[0.38309999990462984],64,0,64,0,1,60717e12499498909e4883f1,19,Mężczyzna,2022-05-28_09h29.59.468,task,2021.1.4,Win32,59.86590038,628b806c463b948bc644b84f,6291ccefb1d0fe1734bbd347,,,,,,,,,,,,,,,,,,,,,,,,,,,,,,,,,,,,,,,,,,,,,,,,,,,,,,,,,,,,,,,,,,,,,,,,,,,,,,,,,,,,,,,,,,,,,,,,,,,,,,,
,,"[""period""]",0,[0.3501999999284635],65,0,65,0,1,60717e12499498909e4883f1,19,Mężczyzna,2022-05-28_09h29.59.468,task,2021.1.4,Win32,59.86590038,628b806c463b948bc644b84f,6291ccefb1d0fe1734bbd347,,,,,,,,,,,,,,,,,,,,,,,,,,,,,,,,,,,,,,,,,,,,,,,,,,,,,,,,,,,,,,,,,,,,,,,,,,,,,,,,,,,,,,,,,,,,,,,,,,,,,,,
,,"[""period""]",0,[0.5670000000000073],66,0,66,0,1,60717e12499498909e4883f1,19,Mężczyzna,2022-05-28_09h29.59.468,task,2021.1.4,Win32,59.86590038,628b806c463b948bc644b84f,6291ccefb1d0fe1734bbd347,,,,,,,,,,,,,,,,,,,,,,,,,,,,,,,,,,,,,,,,,,,,,,,,,,,,,,,,,,,,,,,,,,,,,,,,,,,,,,,,,,,,,,,,,,,,,,,,,,,,,,,
,,"[""comma""]",0,[0.36709999990466713],67,0,67,0,1,60717e12499498909e4883f1,19,Mężczyzna,2022-05-28_09h29.59.468,task,2021.1.4,Win32,59.86590038,628b806c463b948bc644b84f,6291ccefb1d0fe1734bbd347,,,,,,,,,,,,,,,,,,,,,,,,,,,,,,,,,,,,,,,,,,,,,,,,,,,,,,,,,,,,,,,,,,,,,,,,,,,,,,,,,,,,,,,,,,,,,,,,,,,,,,,
,,"[""period""]",0,[0.4846000000238746],68,0,68,0,1,60717e12499498909e4883f1,19,Mężczyzna,2022-05-28_09h29.59.468,task,2021.1.4,Win32,59.86590038,628b806c463b948bc644b84f,6291ccefb1d0fe1734bbd347,,,,,,,,,,,,,,,,,,,,,,,,,,,,,,,,,,,,,,,,,,,,,,,,,,,,,,,,,,,,,,,,,,,,,,,,,,,,,,,,,,,,,,,,,,,,,,,,,,,,,,,
,,"[""comma""]",0,[0.36660000002382276],69,0,69,0,1,60717e12499498909e4883f1,19,Mężczyzna,2022-05-28_09h29.59.468,task,2021.1.4,Win32,59.86590038,628b806c463b948bc644b84f,6291ccefb1d0fe1734bbd347,,,,,,,,,,,,,,,,,,,,,,,,,,,,,,,,,,,,,,,,,,,,,,,,,,,,,,,,,,,,,,,,,,,,,,,,,,,,,,,,,,,,,,,,,,,,,,,,,,,,,,,
,,"[""comma""]",0,[0.31729999995235403],70,0,70,0,1,60717e12499498909e4883f1,19,Mężczyzna,2022-05-28_09h29.59.468,task,2021.1.4,Win32,59.86590038,628b806c463b948bc644b84f,6291ccefb1d0fe1734bbd347,,,,,,,,,,,,,,,,,,,,,,,,,,,,,,,,,,,,,,,,,,,,,,,,,,,,,,,,,,,,,,,,,,,,,,,,,,,,,,,,,,,,,,,,,,,,,,,,,,,,,,,
,,"[""period""]",0,[0.40049999999996544],71,0,71,0,1,60717e12499498909e4883f1,19,Mężczyzna,2022-05-28_09h29.59.468,task,2021.1.4,Win32,59.86590038,628b806c463b948bc644b84f,6291ccefb1d0fe1734bbd347,,,,,,,,,,,,,,,,,,,,,,,,,,,,,,,,,,,,,,,,,,,,,,,,,,,,,,,,,,,,,,,,,,,,,,,,,,,,,,,,,,,,,,,,,,,,,,,,,,,,,,,
,,"[""comma""]",0,[0.6674999999999613],72,0,72,0,1,60717e12499498909e4883f1,19,Mężczyzna,2022-05-28_09h29.59.468,task,2021.1.4,Win32,59.86590038,628b806c463b948bc644b84f,6291ccefb1d0fe1734bbd347,,,,,,,,,,,,,,,,,,,,,,,,,,,,,,,,,,,,,,,,,,,,,,,,,,,,,,,,,,,,,,,,,,,,,,,,,,,,,,,,,,,,,,,,,,,,,,,,,,,,,,,
,,"[""period""]",0,[1.0333999999761545],73,0,73,0,1,60717e12499498909e4883f1,19,Mężczyzna,2022-05-28_09h29.59.468,task,2021.1.4,Win32,59.86590038,628b806c463b948bc644b84f,6291ccefb1d0fe1734bbd347,,,,,,,,,,,,,,,,,,,,,,,,,,,,,,,,,,,,,,,,,,,,,,,,,,,,,,,,,,,,,,,,,,,,,,,,,,,,,,,,,,,,,,,,,,,,,,,,,,,,,,,
,,"[""comma""]",0,[0.8170000000000073],74,0,74,0,1,60717e12499498909e4883f1,19,Mężczyzna,2022-05-28_09h29.59.468,task,2021.1.4,Win32,59.86590038,628b806c463b948bc644b84f,6291ccefb1d0fe1734bbd347,,,,,,,,,,,,,,,,,,,,,,,,,,,,,,,,,,,,,,,,,,,,,,,,,,,,,,,,,,,,,,,,,,,,,,,,,,,,,,,,,,,,,,,,,,,,,,,,,,,,,,,
,,"[""period""]",0,[0.8171000000238564],75,0,75,0,1,60717e12499498909e4883f1,19,Mężczyzna,2022-05-28_09h29.59.468,task,2021.1.4,Win32,59.86590038,628b806c463b948bc644b84f,6291ccefb1d0fe1734bbd347,,,,,,,,,,,,,,,,,,,,,,,,,,,,,,,,,,,,,,,,,,,,,,,,,,,,,,,,,,,,,,,,,,,,,,,,,,,,,,,,,,,,,,,,,,,,,,,,,,,,,,,
,,"[""comma""]",0,[0.4359999999999786],76,0,76,0,1,60717e12499498909e4883f1,19,Mężczyzna,2022-05-28_09h29.59.468,task,2021.1.4,Win32,59.86590038,628b806c463b948bc644b84f,6291ccefb1d0fe1734bbd347,,,,,,,,,,,,,,,,,,,,,,,,,,,,,,,,,,,,,,,,,,,,,,,,,,,,,,,,,,,,,,,,,,,,,,,,,,,,,,,,,,,,,,,,,,,,,,,,,,,,,,,
,,"[""comma""]",0,[0.2671999999284935],77,0,77,0,1,60717e12499498909e4883f1,19,Mężczyzna,2022-05-28_09h29.59.468,task,2021.1.4,Win32,59.86590038,628b806c463b948bc644b84f,6291ccefb1d0fe1734bbd347,,,,,,,,,,,,,,,,,,,,,,,,,,,,,,,,,,,,,,,,,,,,,,,,,,,,,,,,,,,,,,,,,,,,,,,,,,,,,,,,,,,,,,,,,,,,,,,,,,,,,,,
,,"[""period""]",0,[0.2669999999999959],78,0,78,0,1,60717e12499498909e4883f1,19,Mężczyzna,2022-05-28_09h29.59.468,task,2021.1.4,Win32,59.86590038,628b806c463b948bc644b84f,6291ccefb1d0fe1734bbd347,,,,,,,,,,,,,,,,,,,,,,,,,,,,,,,,,,,,,,,,,,,,,,,,,,,,,,,,,,,,,,,,,,,,,,,,,,,,,,,,,,,,,,,,,,,,,,,,,,,,,,,
,,"[""comma""]",0,[0.35470000004767144],79,0,79,0,1,60717e12499498909e4883f1,19,Mężczyzna,2022-05-28_09h29.59.468,task,2021.1.4,Win32,59.86590038,628b806c463b948bc644b84f,6291ccefb1d0fe1734bbd347,,,,,,,,,,,,,,,,,,,,,,,,,,,,,,,,,,,,,,,,,,,,,,,,,,,,,,,,,,,,,,,,,,,,,,,,,,,,,,,,,,,,,,,,,,,,,,,,,,,,,,,
,,"[""comma""]",0,[0.26729999995234266],80,0,80,0,1,60717e12499498909e4883f1,19,Mężczyzna,2022-05-28_09h29.59.468,task,2021.1.4,Win32,59.86590038,628b806c463b948bc644b84f,6291ccefb1d0fe1734bbd347,,,,,,,,,,,,,,,,,,,,,,,,,,,,,,,,,,,,,,,,,,,,,,,,,,,,,,,,,,,,,,,,,,,,,,,,,,,,,,,,,,,,,,,,,,,,,,,,,,,,,,,
,,"[""period""]",0,[0.40699999999998226],81,0,81,0,1,60717e12499498909e4883f1,19,Mężczyzna,2022-05-28_09h29.59.468,task,2021.1.4,Win32,59.86590038,628b806c463b948bc644b84f,6291ccefb1d0fe1734bbd347,,,,,,,,,,,,,,,,,,,,,,,,,,,,,,,,,,,,,,,,,,,,,,,,,,,,,,,,,,,,,,,,,,,,,,,,,,,,,,,,,,,,,,,,,,,,,,,,,,,,,,,
,,"[""comma""]",0,[0.3339000000953547],82,0,82,0,1,60717e12499498909e4883f1,19,Mężczyzna,2022-05-28_09h29.59.468,task,2021.1.4,Win32,59.86590038,628b806c463b948bc644b84f,6291ccefb1d0fe1734bbd347,,,,,,,,,,,,,,,,,,,,,,,,,,,,,,,,,,,,,,,,,,,,,,,,,,,,,,,,,,,,,,,,,,,,,,,,,,,,,,,,,,,,,,,,,,,,,,,,,,,,,,,
,,"[""comma""]",0,[0.26730000007148647],83,0,83,0,1,60717e12499498909e4883f1,19,Mężczyzna,2022-05-28_09h29.59.468,task,2021.1.4,Win32,59.86590038,628b806c463b948bc644b84f,6291ccefb1d0fe1734bbd347,,,,,,,,,,,,,,,,,,,,,,,,,,,,,,,,,,,,,,,,,,,,,,,,,,,,,,,,,,,,,,,,,,,,,,,,,,,,,,,,,,,,,,,,,,,,,,,,,,,,,,,
,,"[""comma""]",0,[0.03470000004767826],84,0,84,0,1,60717e12499498909e4883f1,19,Mężczyzna,2022-05-28_09h29.59.468,task,2021.1.4,Win32,59.86590038,628b806c463b948bc644b84f,6291ccefb1d0fe1734bbd347,,,,,,,,,,,,,,,,,,,,,,,,,,,,,,,,,,,,,,,,,,,,,,,,,,,,,,,,,,,,,,,,,,,,,,,,,,,,,,,,,,,,,,,,,,,,,,,,,,,,,,,
,,"[""comma""]",0,[0.2838999999761427],85,0,85,0,1,60717e12499498909e4883f1,19,Mężczyzna,2022-05-28_09h29.59.468,task,2021.1.4,Win32,59.86590038,628b806c463b948bc644b84f,6291ccefb1d0fe1734bbd347,,,,,,,,,,,,,,,,,,,,,,,,,,,,,,,,,,,,,,,,,,,,,,,,,,,,,,,,,,,,,,,,,,,,,,,,,,,,,,,,,,,,,,,,,,,,,,,,,,,,,,,
,,"[""period""]",0,[0.20079999995232356],86,0,86,0,1,60717e12499498909e4883f1,19,Mężczyzna,2022-05-28_09h29.59.468,task,2021.1.4,Win32,59.86590038,628b806c463b948bc644b84f,6291ccefb1d0fe1734bbd347,,,,,,,,,,,,,,,,,,,,,,,,,,,,,,,,,,,,,,,,,,,,,,,,,,,,,,,,,,,,,,,,,,,,,,,,,,,,,,,,,,,,,,,,,,,,,,,,,,,,,,,
,,"[""period""]",0,[0.36720000004766007],87,0,87,0,1,60717e12499498909e4883f1,19,Mężczyzna,2022-05-28_09h29.59.468,task,2021.1.4,Win32,59.86590038,628b806c463b948bc644b84f,6291ccefb1d0fe1734bbd347,,,,,,,,,,,,,,,,,,,,,,,,,,,,,,,,,,,,,,,,,,,,,,,,,,,,,,,,,,,,,,,,,,,,,,,,,,,,,,,,,,,,,,,,,,,,,,,,,,,,,,,
,,"[""comma""]",0,[0.7512000000476746],88,0,88,0,1,60717e12499498909e4883f1,19,Mężczyzna,2022-05-28_09h29.59.468,task,2021.1.4,Win32,59.86590038,628b806c463b948bc644b84f,6291ccefb1d0fe1734bbd347,,,,,,,,,,,,,,,,,,,,,,,,,,,,,,,,,,,,,,,,,,,,,,,,,,,,,,,,,,,,,,,,,,,,,,,,,,,,,,,,,,,,,,,,,,,,,,,,,,,,,,,
,,"[""period""]",0,[0.7836999999285013],89,0,89,0,1,60717e12499498909e4883f1,19,Mężczyzna,2022-05-28_09h29.59.468,task,2021.1.4,Win32,59.86590038,628b806c463b948bc644b84f,6291ccefb1d0fe1734bbd347,,,,,,,,,,,,,,,,,,,,,,,,,,,,,,,,,,,,,,,,,,,,,,,,,,,,,,,,,,,,,,,,,,,,,,,,,,,,,,,,,,,,,,,,,,,,,,,,,,,,,,,
,,"[""comma""]",0,[0.8358000000715151],90,0,90,0,1,60717e12499498909e4883f1,19,Mężczyzna,2022-05-28_09h29.59.468,task,2021.1.4,Win32,59.86590038,628b806c463b948bc644b84f,6291ccefb1d0fe1734bbd347,,,,,,,,,,,,,,,,,,,,,,,,,,,,,,,,,,,,,,,,,,,,,,,,,,,,,,,,,,,,,,,,,,,,,,,,,,,,,,,,,,,,,,,,,,,,,,,,,,,,,,,
,,"[""comma""]",0,[0.7746000000238382],91,0,91,0,1,60717e12499498909e4883f1,19,Mężczyzna,2022-05-28_09h29.59.468,task,2021.1.4,Win32,59.86590038,628b806c463b948bc644b84f,6291ccefb1d0fe1734bbd347,,,,,,,,,,,,,,,,,,,,,,,,,,,,,,,,,,,,,,,,,,,,,,,,,,,,,,,,,,,,,,,,,,,,,,,,,,,,,,,,,,,,,,,,,,,,,,,,,,,,,,,
,,"[""comma""]",0,[0.3387000000477087],92,0,92,0,1,60717e12499498909e4883f1,19,Mężczyzna,2022-05-28_09h29.59.468,task,2021.1.4,Win32,59.86590038,628b806c463b948bc644b84f,6291ccefb1d0fe1734bbd347,,,,,,,,,,,,,,,,,,,,,,,,,,,,,,,,,,,,,,,,,,,,,,,,,,,,,,,,,,,,,,,,,,,,,,,,,,,,,,,,,,,,,,,,,,,,,,,,,,,,,,,
,,"[""comma""]",0,[0.6336999999284672],93,0,93,0,1,60717e12499498909e4883f1,19,Mężczyzna,2022-05-28_09h29.59.468,task,2021.1.4,Win32,59.86590038,628b806c463b948bc644b84f,6291ccefb1d0fe1734bbd347,,,,,,,,,,,,,,,,,,,,,,,,,,,,,,,,,,,,,,,,,,,,,,,,,,,,,,,,,,,,,,,,,,,,,,,,,,,,,,,,,,,,,,,,,,,,,,,,,,,,,,,
,,"[""period""]",0,[0.7507000000476864],94,0,94,0,1,60717e12499498909e4883f1,19,Mężczyzna,2022-05-28_09h29.59.468,task,2021.1.4,Win32,59.86590038,628b806c463b948bc644b84f,6291ccefb1d0fe1734bbd347,,,,,,,,,,,,,,,,,,,,,,,,,,,,,,,,,,,,,,,,,,,,,,,,,,,,,,,,,,,,,,,,,,,,,,,,,,,,,,,,,,,,,,,,,,,,,,,,,,,,,,,
,,"[""period""]",0,[0.4906000000238464],95,0,95,0,1,60717e12499498909e4883f1,19,Mężczyzna,2022-05-28_09h29.59.468,task,2021.1.4,Win32,59.86590038,628b806c463b948bc644b84f,6291ccefb1d0fe1734bbd347,,,,,,,,,,,,,,,,,,,,,,,,,,,,,,,,,,,,,,,,,,,,,,,,,,,,,,,,,,,,,,,,,,,,,,,,,,,,,,,,,,,,,,,,,,,,,,,,,,,,,,,
,,"[""period""]",0,[0.4168999999761809],96,0,96,0,1,60717e12499498909e4883f1,19,Mężczyzna,2022-05-28_09h29.59.468,task,2021.1.4,Win32,59.86590038,628b806c463b948bc644b84f,6291ccefb1d0fe1734bbd347,,,,,,,,,,,,,,,,,,,,,,,,,,,,,,,,,,,,,,,,,,,,,,,,,,,,,,,,,,,,,,,,,,,,,,,,,,,,,,,,,,,,,,,,,,,,,,,,,,,,,,,
,,"[""period""]",0,[0.4171000000238223],97,0,97,0,1,60717e12499498909e4883f1,19,Mężczyzna,2022-05-28_09h29.59.468,task,2021.1.4,Win32,59.86590038,628b806c463b948bc644b84f,6291ccefb1d0fe1734bbd347,,,,,,,,,,,,,,,,,,,,,,,,,,,,,,,,,,,,,,,,,,,,,,,,,,,,,,,,,,,,,,,,,,,,,,,,,,,,,,,,,,,,,,,,,,,,,,,,,,,,,,,
,,"[""comma""]",0,[0.4503999999761845],98,0,98,0,1,60717e12499498909e4883f1,19,Mężczyzna,2022-05-28_09h29.59.468,task,2021.1.4,Win32,59.86590038,628b806c463b948bc644b84f,6291ccefb1d0fe1734bbd347,,,,,,,,,,,,,,,,,,,,,,,,,,,,,,,,,,,,,,,,,,,,,,,,,,,,,,,,,,,,,,,,,,,,,,,,,,,,,,,,,,,,,,,,,,,,,,,,,,,,,,,
,,"[""period""]",0,[0.25070000004768644],99,0,99,0,1,60717e12499498909e4883f1,19,Mężczyzna,2022-05-28_09h29.59.468,task,2021.1.4,Win32,59.86590038,628b806c463b948bc644b84f,6291ccefb1d0fe1734bbd347,,,,,,,,,,,,,,,,,,,,,,,,,,,,,,,,,,,,,,,,,,,,,,,,,,,,,,,,,,,,,,,,,,,,,,,,,,,,,,,,,,,,,,,,,,,,,,,,,,,,,,,
,,"[""period""]",0,[0.1190000000000282],100,0,100,0,1,60717e12499498909e4883f1,19,Mężczyzna,2022-05-28_09h29.59.468,task,2021.1.4,Win32,59.86590038,628b806c463b948bc644b84f,6291ccefb1d0fe1734bbd347,,,,,,,,,,,,,,,,,,,,,,,,,,,,,,,,,,,,,,,,,,,,,,,,,,,,,,,,,,,,,,,,,,,,,,,,,,,,,,,,,,,,,,,,,,,,,,,,,,,,,,,
,,"[""comma""]",0,[0.3503999999761618],101,0,101,0,1,60717e12499498909e4883f1,19,Mężczyzna,2022-05-28_09h29.59.468,task,2021.1.4,Win32,59.86590038,628b806c463b948bc644b84f,6291ccefb1d0fe1734bbd347,,,,,,,,,,,,,,,,,,,,,,,,,,,,,,,,,,,,,,,,,,,,,,,,,,,,,,,,,,,,,,,,,,,,,,,,,,,,,,,,,,,,,,,,,,,,,,,,,,,,,,,
,,"[""period""]",0,[0.6840000000000259],102,0,102,0,1,60717e12499498909e4883f1,19,Mężczyzna,2022-05-28_09h29.59.468,task,2021.1.4,Win32,59.86590038,628b806c463b948bc644b84f,6291ccefb1d0fe1734bbd347,,,,,,,,,,,,,,,,,,,,,,,,,,,,,,,,,,,,,,,,,,,,,,,,,,,,,,,,,,,,,,,,,,,,,,,,,,,,,,,,,,,,,,,,,,,,,,,,,,,,,,,
,,"[""period""]",0,[1.076100000023871],103,0,103,0,1,60717e12499498909e4883f1,19,Mężczyzna,2022-05-28_09h29.59.468,task,2021.1.4,Win32,59.86590038,628b806c463b948bc644b84f,6291ccefb1d0fe1734bbd347,,,,,,,,,,,,,,,,,,,,,,,,,,,,,,,,,,,,,,,,,,,,,,,,,,,,,,,,,,,,,,,,,,,,,,,,,,,,,,,,,,,,,,,,,,,,,,,,,,,,,,,
,,"[""comma""]",0,[0.767100000023845],104,0,104,0,1,60717e12499498909e4883f1,19,Mężczyzna,2022-05-28_09h29.59.468,task,2021.1.4,Win32,59.86590038,628b806c463b948bc644b84f,6291ccefb1d0fe1734bbd347,,,,,,,,,,,,,,,,,,,,,,,,,,,,,,,,,,,,,,,,,,,,,,,,,,,,,,,,,,,,,,,,,,,,,,,,,,,,,,,,,,,,,,,,,,,,,,,,,,,,,,,
,,"[""period""]",0,[0.6671999999284708],105,0,105,0,1,60717e12499498909e4883f1,19,Mężczyzna,2022-05-28_09h29.59.468,task,2021.1.4,Win32,59.86590038,628b806c463b948bc644b84f,6291ccefb1d0fe1734bbd347,,,,,,,,,,,,,,,,,,,,,,,,,,,,,,,,,,,,,,,,,,,,,,,,,,,,,,,,,,,,,,,,,,,,,,,,,,,,,,,,,,,,,,,,,,,,,,,,,,,,,,,
,,"[""comma""]",0,[0.7419000000953702],106,0,106,0,1,60717e12499498909e4883f1,19,Mężczyzna,2022-05-28_09h29.59.468,task,2021.1.4,Win32,59.86590038,628b806c463b948bc644b84f,6291ccefb1d0fe1734bbd347,,,,,,,,,,,,,,,,,,,,,,,,,,,,,,,,,,,,,,,,,,,,,,,,,,,,,,,,,,,,,,,,,,,,,,,,,,,,,,,,,,,,,,,,,,,,,,,,,,,,,,,
,,"[""period""]",0,[0.35070000004765234],107,0,107,0,1,60717e12499498909e4883f1,19,Mężczyzna,2022-05-28_09h29.59.468,task,2021.1.4,Win32,59.86590038,628b806c463b948bc644b84f,6291ccefb1d0fe1734bbd347,,,,,,,,,,,,,,,,,,,,,,,,,,,,,,,,,,,,,,,,,,,,,,,,,,,,,,,,,,,,,,,,,,,,,,,,,,,,,,,,,,,,,,,,,,,,,,,,,,,,,,,
,,"[""period""]",0,[0.18389999997611994],108,0,108,0,1,60717e12499498909e4883f1,19,Mężczyzna,2022-05-28_09h29.59.468,task,2021.1.4,Win32,59.86590038,628b806c463b948bc644b84f,6291ccefb1d0fe1734bbd347,,,,,,,,,,,,,,,,,,,,,,,,,,,,,,,,,,,,,,,,,,,,,,,,,,,,,,,,,,,,,,,,,,,,,,,,,,,,,,,,,,,,,,,,,,,,,,,,,,,,,,,
,,"[""comma""]",0,[0.16699999999991633],109,0,109,0,1,60717e12499498909e4883f1,19,Mężczyzna,2022-05-28_09h29.59.468,task,2021.1.4,Win32,59.86590038,628b806c463b948bc644b84f,6291ccefb1d0fe1734bbd347,,,,,,,,,,,,,,,,,,,,,,,,,,,,,,,,,,,,,,,,,,,,,,,,,,,,,,,,,,,,,,,,,,,,,,,,,,,,,,,,,,,,,,,,,,,,,,,,,,,,,,,
,,"[""period""]",0,[0.20049999999991996],110,0,110,0,1,60717e12499498909e4883f1,19,Mężczyzna,2022-05-28_09h29.59.468,task,2021.1.4,Win32,59.86590038,628b806c463b948bc644b84f,6291ccefb1d0fe1734bbd347,,,,,,,,,,,,,,,,,,,,,,,,,,,,,,,,,,,,,,,,,,,,,,,,,,,,,,,,,,,,,,,,,,,,,,,,,,,,,,,,,,,,,,,,,,,,,,,,,,,,,,,
,,"[""period""]",0,[0.5670999999045989],111,0,111,0,1,60717e12499498909e4883f1,19,Mężczyzna,2022-05-28_09h29.59.468,task,2021.1.4,Win32,59.86590038,628b806c463b948bc644b84f,6291ccefb1d0fe1734bbd347,,,,,,,,,,,,,,,,,,,,,,,,,,,,,,,,,,,,,,,,,,,,,,,,,,,,,,,,,,,,,,,,,,,,,,,,,,,,,,,,,,,,,,,,,,,,,,,,,,,,,,,
,,"[""comma"",""comma""]",0,"[0.267200000047751,1.9668999999761354]",112,0,112,0,1,60717e12499498909e4883f1,19,Mężczyzna,2022-05-28_09h29.59.468,task,2021.1.4,Win32,59.86590038,628b806c463b948bc644b84f,6291ccefb1d0fe1734bbd347,,,,,,,,,,,,,,,,,,,,,,,,,,,,,,,,,,,,,,,,,,,,,,,,,,,,,,,,,,,,,,,,,,,,,,,,,,,,,,,,,,,,,,,,,,,,,,,,,,,,,,,
,,,0,,113,0,113,0,1,60717e12499498909e4883f1,19,Mężczyzna,2022-05-28_09h29.59.468,task,2021.1.4,Win32,59.86590038,628b806c463b948bc644b84f,6291ccefb1d0fe1734bbd347,,,,,,,,,,,,,,,,,,,,,,,,,,,,,,,,,,,,,,,,,,,,,,,,,,,,,,,,,,,,,,,,,,,,,,,,,,,,,,,,,,,,,,,,,,,,,,,,,,,,,,,
,,"[""comma""]",0,[0.26300000000003365],114,0,114,0,1,60717e12499498909e4883f1,19,Mężczyzna,2022-05-28_09h29.59.468,task,2021.1.4,Win32,59.86590038,628b806c463b948bc644b84f,6291ccefb1d0fe1734bbd347,,,,,,,,,,,,,,,,,,,,,,,,,,,,,,,,,,,,,,,,,,,,,,,,,,,,,,,,,,,,,,,,,,,,,,,,,,,,,,,,,,,,,,,,,,,,,,,,,,,,,,,
,,"[""period""]",0,[0.2671000000237882],115,0,115,0,1,60717e12499498909e4883f1,19,Mężczyzna,2022-05-28_09h29.59.468,task,2021.1.4,Win32,59.86590038,628b806c463b948bc644b84f,6291ccefb1d0fe1734bbd347,,,,,,,,,,,,,,,,,,,,,,,,,,,,,,,,,,,,,,,,,,,,,,,,,,,,,,,,,,,,,,,,,,,,,,,,,,,,,,,,,,,,,,,,,,,,,,,,,,,,,,,
,,"[""comma""]",0,[0.25239999997609175],116,0,116,0,1,60717e12499498909e4883f1,19,Mężczyzna,2022-05-28_09h29.59.468,task,2021.1.4,Win32,59.86590038,628b806c463b948bc644b84f,6291ccefb1d0fe1734bbd347,,,,,,,,,,,,,,,,,,,,,,,,,,,,,,,,,,,,,,,,,,,,,,,,,,,,,,,,,,,,,,,,,,,,,,,,,,,,,,,,,,,,,,,,,,,,,,,,,,,,,,,
,,"[""comma""]",0,[0.5004999999999882],117,0,117,0,1,60717e12499498909e4883f1,19,Mężczyzna,2022-05-28_09h29.59.468,task,2021.1.4,Win32,59.86590038,628b806c463b948bc644b84f,6291ccefb1d0fe1734bbd347,,,,,,,,,,,,,,,,,,,,,,,,,,,,,,,,,,,,,,,,,,,,,,,,,,,,,,,,,,,,,,,,,,,,,,,,,,,,,,,,,,,,,,,,,,,,,,,,,,,,,,,
,,"[""period""]",0,[0.48390000009533196],118,0,118,0,1,60717e12499498909e4883f1,19,Mężczyzna,2022-05-28_09h29.59.468,task,2021.1.4,Win32,59.86590038,628b806c463b948bc644b84f,6291ccefb1d0fe1734bbd347,,,,,,,,,,,,,,,,,,,,,,,,,,,,,,,,,,,,,,,,,,,,,,,,,,,,,,,,,,,,,,,,,,,,,,,,,,,,,,,,,,,,,,,,,,,,,,,,,,,,,,,
,,"[""comma""]",0,[0.6006000000237464],119,0,119,0,1,60717e12499498909e4883f1,19,Mężczyzna,2022-05-28_09h29.59.468,task,2021.1.4,Win32,59.86590038,628b806c463b948bc644b84f,6291ccefb1d0fe1734bbd347,,,,,,,,,,,,,,,,,,,,,,,,,,,,,,,,,,,,,,,,,,,,,,,,,,,,,,,,,,,,,,,,,,,,,,,,,,,,,,,,,,,,,,,,,,,,,,,,,,,,,,,
,,,,,,,,,,60717e12499498909e4883f1,19,Mężczyzna,2022-05-28_09h29.59.468,task,2021.1.4,Win32,59.86590038,628b806c463b948bc644b84f,6291ccefb1d0fe1734bbd347,space,24.3845,space,10.6529,0,0,0,0,1,"X V Q F H G B L J M P D K C T S W R N Z
",,,,,,,,,,,,,,,,,,,,,,,,,,,,,,,,,,,,,,,,,,,,,,,,,,,,,,,,,,,,,,,,,,,,,,,,,,,,,,,,,,,,,,,,,,,,,
,,,,,,,,,,60717e12499498909e4883f1,19,Mężczyzna,2022-05-28_09h29.59.468,task,2021.1.4,Win32,59.86590038,628b806c463b948bc644b84f,6291ccefb1d0fe1734bbd347,,,,,1,0,1,0,1,"X V Q F H G B L J M P D K C T S W R N Z
",,,,,,,,,,,,,,,,,,,,,,,,,,,,,,,,,,,,,,,,,,,,,,,,,,,,,,,,,,,,,,,,,,,,,,,,,,,,,,,,,,,,,,,,,,,,,
,,,,,,,,,,60717e12499498909e4883f1,19,Mężczyzna,2022-05-28_09h29.59.468,task,2021.1.4,Win32,59.86590038,628b806c463b948bc644b84f,6291ccefb1d0fe1734bbd347,,,,,,,,,,,zv,"[""z"",""v""]","[2.1075000000000728,2.4075000000000273,4.857899999976212]",1,ZV,0,0,0,0,1,,,,,,,,,,,,,,,,,,,,,,,,,,,,,,,,,,,,,,,,,,,,,,,,,,,,,,,,,,,,,,,,,,,,,,,,,,,,,,,,,,,
,,,,,,,,,,60717e12499498909e4883f1,19,Mężczyzna,2022-05-28_09h29.59.468,task,2021.1.4,Win32,59.86590038,628b806c463b948bc644b84f,6291ccefb1d0fe1734bbd347,,,,,0,0,0,0,1,"X V Q F H G B L J M P D K C T S W R N Z
",,,,,,,,,,,,,,,,,,,,,,,,,,,,,,,,,,,,,,,,,,,,,,,,,,,,,,,,,,,,,,,,,,,,,,,,,,,,,,,,,,,,,,,,,,,,,
,,,,,,,,,,60717e12499498909e4883f1,19,Mężczyzna,2022-05-28_09h29.59.468,task,2021.1.4,Win32,59.86590038,628b806c463b948bc644b84f,6291ccefb1d0fe1734bbd347,,,,,1,0,1,0,1,"X V Q F H G B L J M P D K C T S W R N Z
",,,,,,,,,,,,,,,,,,,,,,,,,,,,,,,,,,,,,,,,,,,,,,,,,,,,,,,,,,,,,,,,,,,,,,,,,,,,,,,,,,,,,,,,,,,,,
,,,,,,,,,,60717e12499498909e4883f1,19,Mężczyzna,2022-05-28_09h29.59.468,task,2021.1.4,Win32,59.86590038,628b806c463b948bc644b84f,6291ccefb1d0fe1734bbd347,,,,,,,,,,,wq,"[""w"",""q""]","[0.6169999999999618,0.7837000000475882,1.5006000000238373]",1,WQ,1,0,1,0,1,,,,,,,,,,,,,,,,,,,,,,,,,,,,,,,,,,,,,,,,,,,,,,,,,,,,,,,,,,,,,,,,,,,,,,,,,,,,,,,,,,,
,,,,,,,,,,60717e12499498909e4883f1,19,Mężczyzna,2022-05-28_09h29.59.468,task,2021.1.4,Win32,59.86590038,628b806c463b948bc644b84f,6291ccefb1d0fe1734bbd347,,,,,0,0,0,0,1,"X V Q F H G B L J M P D K C T S W R N Z
",,,,,,,,,,,,,,,,,,,,,,,,,,,,,,,,,,,,,,,,,,,,,,,,,,,,,,,,,,,,,,,,,,,,,,,,,,,,,,,,,,,,,,,,,,,,,
,,,,,,,,,,60717e12499498909e4883f1,19,Mężczyzna,2022-05-28_09h29.59.468,task,2021.1.4,Win32,59.86590038,628b806c463b948bc644b84f,6291ccefb1d0fe1734bbd347,,,,,1,0,1,0,1,"X V Q F H G B L J M P D K C T S W R N Z
",,,,,,,,,,,,,,,,,,,,,,,,,,,,,,,,,,,,,,,,,,,,,,,,,,,,,,,,,,,,,,,,,,,,,,,,,,,,,,,,,,,,,,,,,,,,,
,,,,,,,,,,60717e12499498909e4883f1,19,Mężczyzna,2022-05-28_09h29.59.468,task,2021.1.4,Win32,59.86590038,628b806c463b948bc644b84f,6291ccefb1d0fe1734bbd347,,,,,2,0,2,0,1,"X V Q F H G B L J M P D K C T S W R N Z
",,,,,,,,,,,,,,,,,,,,,,,,,,,,,,,,,,,,,,,,,,,,,,,,,,,,,,,,,,,,,,,,,,,,,,,,,,,,,,,,,,,,,,,,,,,,,
,,,,,,,,,,60717e12499498909e4883f1,19,Mężczyzna,2022-05-28_09h29.59.468,task,2021.1.4,Win32,59.86590038,628b806c463b948bc644b84f,6291ccefb1d0fe1734bbd347,,,,,,,,,,,pbn,"[""p"",""b"",""n""]","[0.5670000000000073,0.7340000000000373,1.3248000000716047,1.7167000000476946]",1,PBN,2,0,2,0,1,,,,,,,,,,,,,,,,,,,,,,,,,,,,,,,,,,,,,,,,,,,,,,,,,,,,,,,,,,,,,,,,,,,,,,,,,,,,,,,,,,,
,,,,,,,,,,60717e12499498909e4883f1,19,Mężczyzna,2022-05-28_09h29.59.468,task,2021.1.4,Win32,59.86590038,628b806c463b948bc644b84f,6291ccefb1d0fe1734bbd347,,,,,0,0,0,0,1,"X V Q F H G B L J M P D K C T S W R N Z
",,,,,,,,,,,,,,,,,,,,,,,,,,,,,,,,,,,,,,,,,,,,,,,,,,,,,,,,,,,,,,,,,,,,,,,,,,,,,,,,,,,,,,,,,,,,,
,,,,,,,,,,60717e12499498909e4883f1,19,Mężczyzna,2022-05-28_09h29.59.468,task,2021.1.4,Win32,59.86590038,628b806c463b948bc644b84f,6291ccefb1d0fe1734bbd347,,,,,1,0,1,0,1,"X V Q F H G B L J M P D K C T S W R N Z
",,,,,,,,,,,,,,,,,,,,,,,,,,,,,,,,,,,,,,,,,,,,,,,,,,,,,,,,,,,,,,,,,,,,,,,,,,,,,,,,,,,,,,,,,,,,,
,,,,,,,,,,60717e12499498909e4883f1,19,Mężczyzna,2022-05-28_09h29.59.468,task,2021.1.4,Win32,59.86590038,628b806c463b948bc644b84f,6291ccefb1d0fe1734bbd347,,,,,2,0,2,0,1,"X V Q F H G B L J M P D K C T S W R N Z
",,,,,,,,,,,,,,,,,,,,,,,,,,,,,,,,,,,,,,,,,,,,,,,,,,,,,,,,,,,,,,,,,,,,,,,,,,,,,,,,,,,,,,,,,,,,,
,,,,,,,,,,60717e12499498909e4883f1,19,Mężczyzna,2022-05-28_09h29.59.468,task,2021.1.4,Win32,59.86590038,628b806c463b948bc644b84f,6291ccefb1d0fe1734bbd347,,,,,,,,,,,bpc,"[""b"",""p"",""c""]","[1.1506000000238146,1.3513999999761381,1.5673999999761463,2.159100000023841]",1,BPC,3,0,3,0,1,,,,,,,,,,,,,,,,,,,,,,,,,,,,,,,,,,,,,,,,,,,,,,,,,,,,,,,,,,,,,,,,,,,,,,,,,,,,,,,,,,,
,,,,,,,,,,60717e12499498909e4883f1,19,Mężczyzna,2022-05-28_09h29.59.468,task,2021.1.4,Win32,59.86590038,628b806c463b948bc644b84f,6291ccefb1d0fe1734bbd347,,,,,0,0,0,0,1,"X V Q F H G B L J M P D K C T S W R N Z
",,,,,,,,,,,,,,,,,,,,,,,,,,,,,,,,,,,,,,,,,,,,,,,,,,,,,,,,,,,,,,,,,,,,,,,,,,,,,,,,,,,,,,,,,,,,,
,,,,,,,,,,60717e12499498909e4883f1,19,Mężczyzna,2022-05-28_09h29.59.468,task,2021.1.4,Win32,59.86590038,628b806c463b948bc644b84f,6291ccefb1d0fe1734bbd347,,,,,1,0,1,0,1,"X V Q F H G B L J M P D K C T S W R N Z
",,,,,,,,,,,,,,,,,,,,,,,,,,,,,,,,,,,,,,,,,,,,,,,,,,,,,,,,,,,,,,,,,,,,,,,,,,,,,,,,,,,,,,,,,,,,,
,,,,,,,,,,60717e12499498909e4883f1,19,Mężczyzna,2022-05-28_09h29.59.468,task,2021.1.4,Win32,59.86590038,628b806c463b948bc644b84f,6291ccefb1d0fe1734bbd347,,,,,2,0,2,0,1,"X V Q F H G B L J M P D K C T S W R N Z
",,,,,,,,,,,,,,,,,,,,,,,,,,,,,,,,,,,,,,,,,,,,,,,,,,,,,,,,,,,,,,,,,,,,,,,,,,,,,,,,,,,,,,,,,,,,,
,,,,,,,,,,60717e12499498909e4883f1,19,Mężczyzna,2022-05-28_09h29.59.468,task,2021.1.4,Win32,59.86590038,628b806c463b948bc644b84f,6291ccefb1d0fe1734bbd347,,,,,3,0,3,0,1,"X V Q F H G B L J M P D K C T S W R N Z
",,,,,,,,,,,,,,,,,,,,,,,,,,,,,,,,,,,,,,,,,,,,,,,,,,,,,,,,,,,,,,,,,,,,,,,,,,,,,,,,,,,,,,,,,,,,,
,,,,,,,,,,60717e12499498909e4883f1,19,Mężczyzna,2022-05-28_09h29.59.468,task,2021.1.4,Win32,59.86590038,628b806c463b948bc644b84f,6291ccefb1d0fe1734bbd347,,,,,,,,,,,djqg,"[""d"",""j"",""q"",""g""]","[0.5598999999760963,0.834099999904538,0.9837999999522253,1.2174999999999727,1.4500999999046371]",1,DJQG,4,0,4,0,1,,,,,,,,,,,,,,,,,,,,,,,,,,,,,,,,,,,,,,,,,,,,,,,,,,,,,,,,,,,,,,,,,,,,,,,,,,,,,,,,,,,
,,,,,,,,,,60717e12499498909e4883f1,19,Mężczyzna,2022-05-28_09h29.59.468,task,2021.1.4,Win32,59.86590038,628b806c463b948bc644b84f,6291ccefb1d0fe1734bbd347,,,,,0,0,0,0,1,"X V Q F H G B L J M P D K C T S W R N Z
",,,,,,,,,,,,,,,,,,,,,,,,,,,,,,,,,,,,,,,,,,,,,,,,,,,,,,,,,,,,,,,,,,,,,,,,,,,,,,,,,,,,,,,,,,,,,
,,,,,,,,,,60717e12499498909e4883f1,19,Mężczyzna,2022-05-28_09h29.59.468,task,2021.1.4,Win32,59.86590038,628b806c463b948bc644b84f,6291ccefb1d0fe1734bbd347,,,,,1,0,1,0,1,"X V Q F H G B L J M P D K C T S W R N Z
",,,,,,,,,,,,,,,,,,,,,,,,,,,,,,,,,,,,,,,,,,,,,,,,,,,,,,,,,,,,,,,,,,,,,,,,,,,,,,,,,,,,,,,,,,,,,
,,,,,,,,,,60717e12499498909e4883f1,19,Mężczyzna,2022-05-28_09h29.59.468,task,2021.1.4,Win32,59.86590038,628b806c463b948bc644b84f,6291ccefb1d0fe1734bbd347,,,,,2,0,2,0,1,"X V Q F H G B L J M P D K C T S W R N Z
",,,,,,,,,,,,,,,,,,,,,,,,,,,,,,,,,,,,,,,,,,,,,,,,,,,,,,,,,,,,,,,,,,,,,,,,,,,,,,,,,,,,,,,,,,,,,
,,,,,,,,,,60717e12499498909e4883f1,19,Mężczyzna,2022-05-28_09h29.59.468,task,2021.1.4,Win32,59.86590038,628b806c463b948bc644b84f,6291ccefb1d0fe1734bbd347,,,,,3,0,3,0,1,"X V Q F H G B L J M P D K C T S W R N Z
",,,,,,,,,,,,,,,,,,,,,,,,,,,,,,,,,,,,,,,,,,,,,,,,,,,,,,,,,,,,,,,,,,,,,,,,,,,,,,,,,,,,,,,,,,,,,
,,,,,,,,,,60717e12499498909e4883f1,19,Mężczyzna,2022-05-28_09h29.59.468,task,2021.1.4,Win32,59.86590038,628b806c463b948bc644b84f,6291ccefb1d0fe1734bbd347,,,,,,,,,,,snjq,"[""s"",""n"",""j"",""q""]","[1.1342000000477128,1.3002999999523581,1.7017000000477083,1.834399999976199,2.0836000000238073]",1,SNJQ,5,0,5,0,1,,,,,,,,,,,,,,,,,,,,,,,,,,,,,,,,,,,,,,,,,,,,,,,,,,,,,,,,,,,,,,,,,,,,,,,,,,,,,,,,,,,
,,,,,,,,,,60717e12499498909e4883f1,19,Mężczyzna,2022-05-28_09h29.59.468,task,2021.1.4,Win32,59.86590038,628b806c463b948bc644b84f,6291ccefb1d0fe1734bbd347,,,,,0,0,0,0,1,"X V Q F H G B L J M P D K C T S W R N Z
",,,,,,,,,,,,,,,,,,,,,,,,,,,,,,,,,,,,,,,,,,,,,,,,,,,,,,,,,,,,,,,,,,,,,,,,,,,,,,,,,,,,,,,,,,,,,
,,,,,,,,,,60717e12499498909e4883f1,19,Mężczyzna,2022-05-28_09h29.59.468,task,2021.1.4,Win32,59.86590038,628b806c463b948bc644b84f,6291ccefb1d0fe1734bbd347,,,,,1,0,1,0,1,"X V Q F H G B L J M P D K C T S W R N Z
",,,,,,,,,,,,,,,,,,,,,,,,,,,,,,,,,,,,,,,,,,,,,,,,,,,,,,,,,,,,,,,,,,,,,,,,,,,,,,,,,,,,,,,,,,,,,
,,,,,,,,,,60717e12499498909e4883f1,19,Mężczyzna,2022-05-28_09h29.59.468,task,2021.1.4,Win32,59.86590038,628b806c463b948bc644b84f,6291ccefb1d0fe1734bbd347,,,,,2,0,2,0,1,"X V Q F H G B L J M P D K C T S W R N Z
",,,,,,,,,,,,,,,,,,,,,,,,,,,,,,,,,,,,,,,,,,,,,,,,,,,,,,,,,,,,,,,,,,,,,,,,,,,,,,,,,,,,,,,,,,,,,
,,,,,,,,,,60717e12499498909e4883f1,19,Mężczyzna,2022-05-28_09h29.59.468,task,2021.1.4,Win32,59.86590038,628b806c463b948bc644b84f,6291ccefb1d0fe1734bbd347,,,,,3,0,3,0,1,"X V Q F H G B L J M P D K C T S W R N Z
",,,,,,,,,,,,,,,,,,,,,,,,,,,,,,,,,,,,,,,,,,,,,,,,,,,,,,,,,,,,,,,,,,,,,,,,,,,,,,,,,,,,,,,,,,,,,
,,,,,,,,,,60717e12499498909e4883f1,19,Mężczyzna,2022-05-28_09h29.59.468,task,2021.1.4,Win32,59.86590038,628b806c463b948bc644b84f,6291ccefb1d0fe1734bbd347,,,,,4,0,4,0,1,"X V Q F H G B L J M P D K C T S W R N Z
",,,,,,,,,,,,,,,,,,,,,,,,,,,,,,,,,,,,,,,,,,,,,,,,,,,,,,,,,,,,,,,,,,,,,,,,,,,,,,,,,,,,,,,,,,,,,
,,,,,,,,,,60717e12499498909e4883f1,19,Mężczyzna,2022-05-28_09h29.59.468,task,2021.1.4,Win32,59.86590038,628b806c463b948bc644b84f,6291ccefb1d0fe1734bbd347,,,,,,,,,,,slzhj,"[""s"",""l"",""z"",""h"",""j""]","[0.566799999952309,0.9835000000000491,1.283700000047702,1.7170000000000982,2.0338999999762564,2.433700000047679]",0,"SLZ
HJ",6,0,6,0,1,,,,,,,,,,,,,,,,,,,,,,,,,,,,,,,,,,,,,,,,,,,,,,,,,,,,,,,,,,,,,,,,,,,,,,,,,,,,,,,,,,,
,,,,,,,,,,60717e12499498909e4883f1,19,Mężczyzna,2022-05-28_09h29.59.468,task,2021.1.4,Win32,59.86590038,628b806c463b948bc644b84f,6291ccefb1d0fe1734bbd347,,,,,0,0,0,0,1,"X V Q F H G B L J M P D K C T S W R N Z
",,,,,,,,,,,,,,,,,,,,,,,,,,,,,,,,,,,,,,,,,,,,,,,,,,,,,,,,,,,,,,,,,,,,,,,,,,,,,,,,,,,,,,,,,,,,,
,,,,,,,,,,60717e12499498909e4883f1,19,Mężczyzna,2022-05-28_09h29.59.468,task,2021.1.4,Win32,59.86590038,628b806c463b948bc644b84f,6291ccefb1d0fe1734bbd347,,,,,1,0,1,0,1,"X V Q F H G B L J M P D K C T S W R N Z
",,,,,,,,,,,,,,,,,,,,,,,,,,,,,,,,,,,,,,,,,,,,,,,,,,,,,,,,,,,,,,,,,,,,,,,,,,,,,,,,,,,,,,,,,,,,,
,,,,,,,,,,60717e12499498909e4883f1,19,Mężczyzna,2022-05-28_09h29.59.468,task,2021.1.4,Win32,59.86590038,628b806c463b948bc644b84f,6291ccefb1d0fe1734bbd347,,,,,2,0,2,0,1,"X V Q F H G B L J M P D K C T S W R N Z
",,,,,,,,,,,,,,,,,,,,,,,,,,,,,,,,,,,,,,,,,,,,,,,,,,,,,,,,,,,,,,,,,,,,,,,,,,,,,,,,,,,,,,,,,,,,,
,,,,,,,,,,60717e12499498909e4883f1,19,Mężczyzna,2022-05-28_09h29.59.468,task,2021.1.4,Win32,59.86590038,628b806c463b948bc644b84f,6291ccefb1d0fe1734bbd347,,,,,3,0,3,0,1,"X V Q F H G B L J M P D K C T S W R N Z
",,,,,,,,,,,,,,,,,,,,,,,,,,,,,,,,,,,,,,,,,,,,,,,,,,,,,,,,,,,,,,,,,,,,,,,,,,,,,,,,,,,,,,,,,,,,,
,,,,,,,,,,60717e12499498909e4883f1,19,Mężczyzna,2022-05-28_09h29.59.468,task,2021.1.4,Win32,59.86590038,628b806c463b948bc644b84f,6291ccefb1d0fe1734bbd347,,,,,4,0,4,0,1,"X V Q F H G B L J M P D K C T S W R N Z
",,,,,,,,,,,,,,,,,,,,,,,,,,,,,,,,,,,,,,,,,,,,,,,,,,,,,,,,,,,,,,,,,,,,,,,,,,,,,,,,,,,,,,,,,,,,,
,,,,,,,,,,60717e12499498909e4883f1,19,Mężczyzna,2022-05-28_09h29.59.468,task,2021.1.4,Win32,59.86590038,628b806c463b948bc644b84f,6291ccefb1d0fe1734bbd347,,,,,,,,,,,ghgsr,"[""g"",""h"",""g"",""s"",""r""]","[0.45789999997612085,0.8003999999760936,1.4168999999760672,4.570200000047635,4.783899999976143,6.235500000000002]",1,GHGSR,7,0,7,0,1,,,,,,,,,,,,,,,,,,,,,,,,,,,,,,,,,,,,,,,,,,,,,,,,,,,,,,,,,,,,,,,,,,,,,,,,,,,,,,,,,,,
,,,,,,,,,,60717e12499498909e4883f1,19,Mężczyzna,2022-05-28_09h29.59.468,task,2021.1.4,Win32,59.86590038,628b806c463b948bc644b84f,6291ccefb1d0fe1734bbd347,,,,,0,0,0,0,1,"X V Q F H G B L J M P D K C T S W R N Z
",,,,,,,,,,,,,,,,,,,,,,,,,,,,,,,,,,,,,,,,,,,,,,,,,,,,,,,,,,,,,,,,,,,,,,,,,,,,,,,,,,,,,,,,,,,,,
,,,,,,,,,,60717e12499498909e4883f1,19,Mężczyzna,2022-05-28_09h29.59.468,task,2021.1.4,Win32,59.86590038,628b806c463b948bc644b84f,6291ccefb1d0fe1734bbd347,,,,,1,0,1,0,1,"X V Q F H G B L J M P D K C T S W R N Z
",,,,,,,,,,,,,,,,,,,,,,,,,,,,,,,,,,,,,,,,,,,,,,,,,,,,,,,,,,,,,,,,,,,,,,,,,,,,,,,,,,,,,,,,,,,,,
,,,,,,,,,,60717e12499498909e4883f1,19,Mężczyzna,2022-05-28_09h29.59.468,task,2021.1.4,Win32,59.86590038,628b806c463b948bc644b84f,6291ccefb1d0fe1734bbd347,,,,,2,0,2,0,1,"X V Q F H G B L J M P D K C T S W R N Z
",,,,,,,,,,,,,,,,,,,,,,,,,,,,,,,,,,,,,,,,,,,,,,,,,,,,,,,,,,,,,,,,,,,,,,,,,,,,,,,,,,,,,,,,,,,,,
,,,,,,,,,,60717e12499498909e4883f1,19,Mężczyzna,2022-05-28_09h29.59.468,task,2021.1.4,Win32,59.86590038,628b806c463b948bc644b84f,6291ccefb1d0fe1734bbd347,,,,,3,0,3,0,1,"X V Q F H G B L J M P D K C T S W R N Z
",,,,,,,,,,,,,,,,,,,,,,,,,,,,,,,,,,,,,,,,,,,,,,,,,,,,,,,,,,,,,,,,,,,,,,,,,,,,,,,,,,,,,,,,,,,,,
,,,,,,,,,,60717e12499498909e4883f1,19,Mężczyzna,2022-05-28_09h29.59.468,task,2021.1.4,Win32,59.86590038,628b806c463b948bc644b84f,6291ccefb1d0fe1734bbd347,,,,,4,0,4,0,1,"X V Q F H G B L J M P D K C T S W R N Z
",,,,,,,,,,,,,,,,,,,,,,,,,,,,,,,,,,,,,,,,,,,,,,,,,,,,,,,,,,,,,,,,,,,,,,,,,,,,,,,,,,,,,,,,,,,,,
,,,,,,,,,,60717e12499498909e4883f1,19,Mężczyzna,2022-05-28_09h29.59.468,task,2021.1.4,Win32,59.86590038,628b806c463b948bc644b84f,6291ccefb1d0fe1734bbd347,,,,,,,,,,,shnhn,"[""s"",""h"",""n"",""h"",""n""]","[2.1870999999046035,2.6337999999523163,3.1505999999046708,3.8506999999284517,5.93389999997612,6.550799999952346]",0,SHNHH,8,0,8,0,1,,,,,,,,,,,,,,,,,,,,,,,,,,,,,,,,,,,,,,,,,,,,,,,,,,,,,,,,,,,,,,,,,,,,,,,,,,,,,,,,,,,
,,,,,,,,,,60717e12499498909e4883f1,19,Mężczyzna,2022-05-28_09h29.59.468,task,2021.1.4,Win32,59.86590038,628b806c463b948bc644b84f,6291ccefb1d0fe1734bbd347,,,,,0,0,0,0,1,"X V Q F H G B L J M P D K C T S W R N Z
",,,,,,,,,,,,,,,,,,,,,,,,,,,,,,,,,,,,,,,,,,,,,,,,,,,,,,,,,,,,,,,,,,,,,,,,,,,,,,,,,,,,,,,,,,,,,
,,,,,,,,,,60717e12499498909e4883f1,19,Mężczyzna,2022-05-28_09h29.59.468,task,2021.1.4,Win32,59.86590038,628b806c463b948bc644b84f,6291ccefb1d0fe1734bbd347,,,,,1,0,1,0,1,"X V Q F H G B L J M P D K C T S W R N Z
",,,,,,,,,,,,,,,,,,,,,,,,,,,,,,,,,,,,,,,,,,,,,,,,,,,,,,,,,,,,,,,,,,,,,,,,,,,,,,,,,,,,,,,,,,,,,
,,,,,,,,,,60717e12499498909e4883f1,19,Mężczyzna,2022-05-28_09h29.59.468,task,2021.1.4,Win32,59.86590038,628b806c463b948bc644b84f,6291ccefb1d0fe1734bbd347,,,,,2,0,2,0,1,"X V Q F H G B L J M P D K C T S W R N Z
",,,,,,,,,,,,,,,,,,,,,,,,,,,,,,,,,,,,,,,,,,,,,,,,,,,,,,,,,,,,,,,,,,,,,,,,,,,,,,,,,,,,,,,,,,,,,
,,,,,,,,,,60717e12499498909e4883f1,19,Mężczyzna,2022-05-28_09h29.59.468,task,2021.1.4,Win32,59.86590038,628b806c463b948bc644b84f,6291ccefb1d0fe1734bbd347,,,,,3,0,3,0,1,"X V Q F H G B L J M P D K C T S W R N Z
",,,,,,,,,,,,,,,,,,,,,,,,,,,,,,,,,,,,,,,,,,,,,,,,,,,,,,,,,,,,,,,,,,,,,,,,,,,,,,,,,,,,,,,,,,,,,
,,,,,,,,,,60717e12499498909e4883f1,19,Mężczyzna,2022-05-28_09h29.59.468,task,2021.1.4,Win32,59.86590038,628b806c463b948bc644b84f,6291ccefb1d0fe1734bbd347,,,,,4,0,4,0,1,"X V Q F H G B L J M P D K C T S W R N Z
",,,,,,,,,,,,,,,,,,,,,,,,,,,,,,,,,,,,,,,,,,,,,,,,,,,,,,,,,,,,,,,,,,,,,,,,,,,,,,,,,,,,,,,,,,,,,
,,,,,,,,,,60717e12499498909e4883f1,19,Mężczyzna,2022-05-28_09h29.59.468,task,2021.1.4,Win32,59.86590038,628b806c463b948bc644b84f,6291ccefb1d0fe1734bbd347,,,,,,,,,,,tphlj,"[""t"",""p"",""h"",""l"",""j""]","[1.2174999999999727,1.8061000000237755,2.2169999999999845,2.566800000071453,2.93389999997612,3.267100000023788]",1,TPHLJ,9,0,9,0,1,,,,,,,,,,,,,,,,,,,,,,,,,,,,,,,,,,,,,,,,,,,,,,,,,,,,,,,,,,,,,,,,,,,,,,,,,,,,,,,,,,,
,,,,,,,,,,60717e12499498909e4883f1,19,Mężczyzna,2022-05-28_09h29.59.468,task,2021.1.4,Win32,59.86590038,628b806c463b948bc644b84f,6291ccefb1d0fe1734bbd347,,,,,0,0,0,0,1,"X V Q F H G B L J M P D K C T S W R N Z
",,,,,,,,,,,,,,,,,,,,,,,,,,,,,,,,,,,,,,,,,,,,,,,,,,,,,,,,,,,,,,,,,,,,,,,,,,,,,,,,,,,,,,,,,,,,,
,,,,,,,,,,60717e12499498909e4883f1,19,Mężczyzna,2022-05-28_09h29.59.468,task,2021.1.4,Win32,59.86590038,628b806c463b948bc644b84f,6291ccefb1d0fe1734bbd347,,,,,1,0,1,0,1,"X V Q F H G B L J M P D K C T S W R N Z
",,,,,,,,,,,,,,,,,,,,,,,,,,,,,,,,,,,,,,,,,,,,,,,,,,,,,,,,,,,,,,,,,,,,,,,,,,,,,,,,,,,,,,,,,,,,,
,,,,,,,,,,60717e12499498909e4883f1,19,Mężczyzna,2022-05-28_09h29.59.468,task,2021.1.4,Win32,59.86590038,628b806c463b948bc644b84f,6291ccefb1d0fe1734bbd347,,,,,2,0,2,0,1,"X V Q F H G B L J M P D K C T S W R N Z
",,,,,,,,,,,,,,,,,,,,,,,,,,,,,,,,,,,,,,,,,,,,,,,,,,,,,,,,,,,,,,,,,,,,,,,,,,,,,,,,,,,,,,,,,,,,,
,,,,,,,,,,60717e12499498909e4883f1,19,Mężczyzna,2022-05-28_09h29.59.468,task,2021.1.4,Win32,59.86590038,628b806c463b948bc644b84f,6291ccefb1d0fe1734bbd347,,,,,3,0,3,0,1,"X V Q F H G B L J M P D K C T S W R N Z
",,,,,,,,,,,,,,,,,,,,,,,,,,,,,,,,,,,,,,,,,,,,,,,,,,,,,,,,,,,,,,,,,,,,,,,,,,,,,,,,,,,,,,,,,,,,,
,,,,,,,,,,60717e12499498909e4883f1,19,Mężczyzna,2022-05-28_09h29.59.468,task,2021.1.4,Win32,59.86590038,628b806c463b948bc644b84f,6291ccefb1d0fe1734bbd347,,,,,4,0,4,0,1,"X V Q F H G B L J M P D K C T S W R N Z
",,,,,,,,,,,,,,,,,,,,,,,,,,,,,,,,,,,,,,,,,,,,,,,,,,,,,,,,,,,,,,,,,,,,,,,,,,,,,,,,,,,,,,,,,,,,,
,,,,,,,,,,60717e12499498909e4883f1,19,Mężczyzna,2022-05-28_09h29.59.468,task,2021.1.4,Win32,59.86590038,628b806c463b948bc644b84f,6291ccefb1d0fe1734bbd347,,,,,5,0,5,0,1,"X V Q F H G B L J M P D K C T S W R N Z
",,,,,,,,,,,,,,,,,,,,,,,,,,,,,,,,,,,,,,,,,,,,,,,,,,,,,,,,,,,,,,,,,,,,,,,,,,,,,,,,,,,,,,,,,,,,,
,,,,,,,,,,60717e12499498909e4883f1,19,Mężczyzna,2022-05-28_09h29.59.468,task,2021.1.4,Win32,59.86590038,628b806c463b948bc644b84f,6291ccefb1d0fe1734bbd347,,,,,,,,,,,jgclng,"[""j"",""g"",""c"",""l"",""n"",""g""]","[0.7671999999284935,1.2016999999285645,2.233799999952339,2.553299999952401,3.386799999952359,3.81739999997626,4.68489999997621]",0,JGCNLG,10,0,10,0,1,,,,,,,,,,,,,,,,,,,,,,,,,,,,,,,,,,,,,,,,,,,,,,,,,,,,,,,,,,,,,,,,,,,,,,,,,,,,,,,,,,,
,,,,,,,,,,60717e12499498909e4883f1,19,Mężczyzna,2022-05-28_09h29.59.468,task,2021.1.4,Win32,59.86590038,628b806c463b948bc644b84f,6291ccefb1d0fe1734bbd347,,,,,0,0,0,0,1,"X V Q F H G B L J M P D K C T S W R N Z
",,,,,,,,,,,,,,,,,,,,,,,,,,,,,,,,,,,,,,,,,,,,,,,,,,,,,,,,,,,,,,,,,,,,,,,,,,,,,,,,,,,,,,,,,,,,,
,,,,,,,,,,60717e12499498909e4883f1,19,Mężczyzna,2022-05-28_09h29.59.468,task,2021.1.4,Win32,59.86590038,628b806c463b948bc644b84f,6291ccefb1d0fe1734bbd347,,,,,1,0,1,0,1,"X V Q F H G B L J M P D K C T S W R N Z
",,,,,,,,,,,,,,,,,,,,,,,,,,,,,,,,,,,,,,,,,,,,,,,,,,,,,,,,,,,,,,,,,,,,,,,,,,,,,,,,,,,,,,,,,,,,,
,,,,,,,,,,60717e12499498909e4883f1,19,Mężczyzna,2022-05-28_09h29.59.468,task,2021.1.4,Win32,59.86590038,628b806c463b948bc644b84f,6291ccefb1d0fe1734bbd347,,,,,2,0,2,0,1,"X V Q F H G B L J M P D K C T S W R N Z
",,,,,,,,,,,,,,,,,,,,,,,,,,,,,,,,,,,,,,,,,,,,,,,,,,,,,,,,,,,,,,,,,,,,,,,,,,,,,,,,,,,,,,,,,,,,,
,,,,,,,,,,60717e12499498909e4883f1,19,Mężczyzna,2022-05-28_09h29.59.468,task,2021.1.4,Win32,59.86590038,628b806c463b948bc644b84f,6291ccefb1d0fe1734bbd347,,,,,3,0,3,0,1,"X V Q F H G B L J M P D K C T S W R N Z
",,,,,,,,,,,,,,,,,,,,,,,,,,,,,,,,,,,,,,,,,,,,,,,,,,,,,,,,,,,,,,,,,,,,,,,,,,,,,,,,,,,,,,,,,,,,,
,,,,,,,,,,60717e12499498909e4883f1,19,Mężczyzna,2022-05-28_09h29.59.468,task,2021.1.4,Win32,59.86590038,628b806c463b948bc644b84f,6291ccefb1d0fe1734bbd347,,,,,4,0,4,0,1,"X V Q F H G B L J M P D K C T S W R N Z
",,,,,,,,,,,,,,,,,,,,,,,,,,,,,,,,,,,,,,,,,,,,,,,,,,,,,,,,,,,,,,,,,,,,,,,,,,,,,,,,,,,,,,,,,,,,,
,,,,,,,,,,60717e12499498909e4883f1,19,Mężczyzna,2022-05-28_09h29.59.468,task,2021.1.4,Win32,59.86590038,628b806c463b948bc644b84f,6291ccefb1d0fe1734bbd347,,,,,5,0,5,0,1,"X V Q F H G B L J M P D K C T S W R N Z
",,,,,,,,,,,,,,,,,,,,,,,,,,,,,,,,,,,,,,,,,,,,,,,,,,,,,,,,,,,,,,,,,,,,,,,,,,,,,,,,,,,,,,,,,,,,,
,,,,,,,,,,60717e12499498909e4883f1,19,Mężczyzna,2022-05-28_09h29.59.468,task,2021.1.4,Win32,59.86590038,628b806c463b948bc644b84f,6291ccefb1d0fe1734bbd347,,,,,,,,,,,hxqzcg,"[""h"",""x"",""q"",""z"",""c"",""g""]","[1.3503999999761618,3.0671000000237427,3.6337999999523163,4.583699999928399,5.200799999952324,5.739299999952323,7.000600000023837]",0,"HXQZ
DG",11,0,11,0,1,,,,,,,,,,,,,,,,,,,,,,,,,,,,,,,,,,,,,,,,,,,,,,,,,,,,,,,,,,,,,,,,,,,,,,,,,,,,,,,,,,,
,,,,,,,,,,60717e12499498909e4883f1,19,Mężczyzna,2022-05-28_09h29.59.468,task,2021.1.4,Win32,59.86590038,628b806c463b948bc644b84f,6291ccefb1d0fe1734bbd347,,,,,0,0,0,0,1,"X V Q F H G B L J M P D K C T S W R N Z
",,,,,,,,,,,,,,,,,,,,,,,,,,,,,,,,,,,,,,,,,,,,,,,,,,,,,,,,,,,,,,,,,,,,,,,,,,,,,,,,,,,,,,,,,,,,,
,,,,,,,,,,60717e12499498909e4883f1,19,Mężczyzna,2022-05-28_09h29.59.468,task,2021.1.4,Win32,59.86590038,628b806c463b948bc644b84f,6291ccefb1d0fe1734bbd347,,,,,1,0,1,0,1,"X V Q F H G B L J M P D K C T S W R N Z
",,,,,,,,,,,,,,,,,,,,,,,,,,,,,,,,,,,,,,,,,,,,,,,,,,,,,,,,,,,,,,,,,,,,,,,,,,,,,,,,,,,,,,,,,,,,,
,,,,,,,,,,60717e12499498909e4883f1,19,Mężczyzna,2022-05-28_09h29.59.468,task,2021.1.4,Win32,59.86590038,628b806c463b948bc644b84f,6291ccefb1d0fe1734bbd347,,,,,2,0,2,0,1,"X V Q F H G B L J M P D K C T S W R N Z
",,,,,,,,,,,,,,,,,,,,,,,,,,,,,,,,,,,,,,,,,,,,,,,,,,,,,,,,,,,,,,,,,,,,,,,,,,,,,,,,,,,,,,,,,,,,,
,,,,,,,,,,60717e12499498909e4883f1,19,Mężczyzna,2022-05-28_09h29.59.468,task,2021.1.4,Win32,59.86590038,628b806c463b948bc644b84f,6291ccefb1d0fe1734bbd347,,,,,3,0,3,0,1,"X V Q F H G B L J M P D K C T S W R N Z
",,,,,,,,,,,,,,,,,,,,,,,,,,,,,,,,,,,,,,,,,,,,,,,,,,,,,,,,,,,,,,,,,,,,,,,,,,,,,,,,,,,,,,,,,,,,,
,,,,,,,,,,60717e12499498909e4883f1,19,Mężczyzna,2022-05-28_09h29.59.468,task,2021.1.4,Win32,59.86590038,628b806c463b948bc644b84f,6291ccefb1d0fe1734bbd347,,,,,4,0,4,0,1,"X V Q F H G B L J M P D K C T S W R N Z
",,,,,,,,,,,,,,,,,,,,,,,,,,,,,,,,,,,,,,,,,,,,,,,,,,,,,,,,,,,,,,,,,,,,,,,,,,,,,,,,,,,,,,,,,,,,,
,,,,,,,,,,60717e12499498909e4883f1,19,Mężczyzna,2022-05-28_09h29.59.468,task,2021.1.4,Win32,59.86590038,628b806c463b948bc644b84f,6291ccefb1d0fe1734bbd347,,,,,5,0,5,0,1,"X V Q F H G B L J M P D K C T S W R N Z
",,,,,,,,,,,,,,,,,,,,,,,,,,,,,,,,,,,,,,,,,,,,,,,,,,,,,,,,,,,,,,,,,,,,,,,,,,,,,,,,,,,,,,,,,,,,,
,,,,,,,,,,60717e12499498909e4883f1,19,Mężczyzna,2022-05-28_09h29.59.468,task,2021.1.4,Win32,59.86590038,628b806c463b948bc644b84f,6291ccefb1d0fe1734bbd347,,,,,,,,,,,cpflqk,"[""c"",""p"",""f"",""l"",""q"",""k""]","[1.2003000000714792,1.7003000000714792,4.450400000095328,12.667400000095313,13.25249999999994,13.400800000071513,13.751200000047675]",0,CPFQGK,12,0,12,0,1,,,,,,,,,,,,,,,,,,,,,,,,,,,,,,,,,,,,,,,,,,,,,,,,,,,,,,,,,,,,,,,,,,,,,,,,,,,,,,,,,,,
,,,,,,,,,,60717e12499498909e4883f1,19,Mężczyzna,2022-05-28_09h29.59.468,task,2021.1.4,Win32,59.86590038,628b806c463b948bc644b84f,6291ccefb1d0fe1734bbd347,,,,,,,,,,,,,,,,,,,,,space,13.4678,7,"[""7""]",1,[14.225800000071558],[14.225800000071558],0,0,0,7,1,Practice,8,(5x5) - 18,7,,,,,,,,,,,,,,,,,,,,,,,,,,,,,,,,,,,,,,,,,,,,,,,,,,,,,,,,,,,,,,,,,,,
,,,,,,,,,,60717e12499498909e4883f1,19,Mężczyzna,2022-05-28_09h29.59.468,task,2021.1.4,Win32,59.86590038,628b806c463b948bc644b84f,6291ccefb1d0fe1734bbd347,,,,,,,,,,,,,,,,,,,,,,,3,"[""3""]",1,[9.334300000071607],"[14.225800000071558,9.334300000071607]",0,1,1,3,1,Practice,4,(8/4) + 1,3,,,,,,,,,,,,,,,,,,,,,,,,,,,,,,,,,,,,,,,,,,,,,,,,,,,,,,,,,,,,,,,,,,,
,,,,,,,,,,60717e12499498909e4883f1,19,Mężczyzna,2022-05-28_09h29.59.468,task,2021.1.4,Win32,59.86590038,628b806c463b948bc644b84f,6291ccefb1d0fe1734bbd347,,,,,,,,,,,,,,,,,,,,,,,0,"[""0""]",1,[2.4036000000237436],"[14.225800000071558,9.334300000071607,2.4036000000237436]",0,2,2,0,1,Practice,1,(3x3) -  9,0,,,,,,,,,,,,,,,,,,,,,,,,,,,,,,,,,,,,,,,,,,,,,,,,,,,,,,,,,,,,,,,,,,,
,,,,,,,,,,60717e12499498909e4883f1,19,Mężczyzna,2022-05-28_09h29.59.468,task,2021.1.4,Win32,59.86590038,628b806c463b948bc644b84f,6291ccefb1d0fe1734bbd347,,,,,,,,,,,,,,,,,,,,,,,4,"[""4""]",1,[7.284399999976131],"[14.225800000071558,9.334300000071607,2.4036000000237436,7.284399999976131]",0,3,3,4,1,Practice,5,(2x6) - 8,4,,,,,,,,,,,,,,,,,,,,,,,,,,,,,,,,,,,,,,,,,,,,,,,,,,,,,,,,,,,,,,,,,,,
,,,,,,,,,,60717e12499498909e4883f1,19,Mężczyzna,2022-05-28_09h29.59.468,task,2021.1.4,Win32,59.86590038,628b806c463b948bc644b84f,6291ccefb1d0fe1734bbd347,,,,,,,,,,,,,,,,,,,,,,,8,"[""8""]",1,[2.986699999928419],"[14.225800000071558,9.334300000071607,2.4036000000237436,7.284399999976131,2.986699999928419]",0,4,4,8,1,Practice,9,(3x3) - 1,8,,,,,,,,,,,,,,,,,,,,,,,,,,,,,,,,,,,,,,,,,,,,,,,,,,,,,,,,,,,,,,,,,,,
,,,,,,,,,,60717e12499498909e4883f1,19,Mężczyzna,2022-05-28_09h29.59.468,task,2021.1.4,Win32,59.86590038,628b806c463b948bc644b84f,6291ccefb1d0fe1734bbd347,,,,,,,,,,,,,,,,,,,,,,,1,"[""1""]",1,[3.634099999904606],"[14.225800000071558,9.334300000071607,2.4036000000237436,7.284399999976131,2.986699999928419,3.634099999904606]",0,5,5,1,1,Practice,2,(4x4) - 15,1,,,,,,,,,,,,,,,,,,,,,,,,,,,,,,,,,,,,,,,,,,,,,,,,,,,,,,,,,,,,,,,,,,,
,,,,,,,,,,60717e12499498909e4883f1,19,Mężczyzna,2022-05-28_09h29.59.468,task,2021.1.4,Win32,59.86590038,628b806c463b948bc644b84f,6291ccefb1d0fe1734bbd347,,,,,,,,,,,,,,,,,,,,,,,9,"[""9""]",1,[4.466399999976147],"[14.225800000071558,9.334300000071607,2.4036000000237436,7.284399999976131,2.986699999928419,3.634099999904606,4.466399999976147]",0,6,6,9,1,Practice,10,(20/2) - 1,9,,,,,,,,,,,,,,,,,,,,,,,,,,,,,,,,,,,,,,,,,,,,,,,,,,,,,,,,,,,,,,,,,,,
,,,,,,,,,,60717e12499498909e4883f1,19,Mężczyzna,2022-05-28_09h29.59.468,task,2021.1.4,Win32,59.86590038,628b806c463b948bc644b84f,6291ccefb1d0fe1734bbd347,,,,,,,,,,,,,,,,,,,,,,,2,"[""2""]",1,[5.217599999904564],"[14.225800000071558,9.334300000071607,2.4036000000237436,7.284399999976131,2.986699999928419,3.634099999904606,4.466399999976147,5.217599999904564]",0,7,7,2,1,Practice,3,(4x4) - 14,2,,,,,,,,,,,,,,,,,,,,,,,,,,,,,,,,,,,,,,,,,,,,,,,,,,,,,,,,,,,,,,,,,,,
,,,,,,,,,,60717e12499498909e4883f1,19,Mężczyzna,2022-05-28_09h29.59.468,task,2021.1.4,Win32,59.86590038,628b806c463b948bc644b84f,6291ccefb1d0fe1734bbd347,,,,,,,,,,,,,,,,,,,,,,,5,"[""5""]",1,[7.31639999997617],"[14.225800000071558,9.334300000071607,2.4036000000237436,7.284399999976131,2.986699999928419,3.634099999904606,4.466399999976147,5.217599999904564,7.31639999997617]",0,8,8,5,1,Practice,6,(4/2) + 3,5,,,,,,,,,,,,,,,,,,,,,,,,,,,,,,,,,,,,,,,,,,,,,,,,,,,,,,,,,,,,,,,,,,,
,,,,,,,,,,60717e12499498909e4883f1,19,Mężczyzna,2022-05-28_09h29.59.468,task,2021.1.4,Win32,59.86590038,628b806c463b948bc644b84f,6291ccefb1d0fe1734bbd347,,,,,,,,,,,,,,,,,,,,,,,6,"[""6""]",1,[5.207600000023831],"[14.225800000071558,9.334300000071607,2.4036000000237436,7.284399999976131,2.986699999928419,3.634099999904606,4.466399999976147,5.217599999904564,7.31639999997617,5.207600000023831]",0,9,9,6,1,Practice,7,(25/5) + 1,6,,,,,,,,,,,,,,,,,,,,,,,,,,,,,,,,,,,,,,,,,,,,,,,,,,,,,,,,,,,,,,,,,,,
,,,,,,,,,,60717e12499498909e4883f1,19,Mężczyzna,2022-05-28_09h29.59.468,task,2021.1.4,Win32,59.86590038,628b806c463b948bc644b84f,6291ccefb1d0fe1734bbd347,,,,,,,,,,,,,,,,,,,,,,,,,,,,,,,,,,,,,1,62.0769,4.13846,155.7532402,3.222351524,12.45212693,space,2.9581,0,0,0,0,1,,,,,,,,,,,,,,,,,,,,,,,,,,,,,,,,,,,,,,,,,,,,,,,,,,,,,,
,,,,,,,,,,60717e12499498909e4883f1,19,Mężczyzna,2022-05-28_09h29.59.468,task,2021.1.4,Win32,59.86590038,628b806c463b948bc644b84f,6291ccefb1d0fe1734bbd347,,,,,,,,,,,,,,,,,,,,,,,6,,,,,,,,,,Practice,7,(25/5) + 1,6,,,,,,,,,,,,,,space,27.0255,"[""6""]",1,[4.2450000000000045],1,0,0,0,6,1,,,,,,,,,,,,,,,,,,,,,,,,,,,,,,,,,,,,,,,,,,,
,,,,,,,,,,60717e12499498909e4883f1,19,Mężczyzna,2022-05-28_09h29.59.468,task,2021.1.4,Win32,59.86590038,628b806c463b948bc644b84f,6291ccefb1d0fe1734bbd347,,,,,,,,,,"X V Q F H G B L J M P D K C T S W R N Z
",,,,,,,,,,,,,,,,,,,,,,,,,,,,,,,,,,,,,,,,,,,,,,,,,,,0,0,0,0,1,,,,,,,,,,,,,,,,,,,,,,,,,,,,,,,,,,,,,,
,,,,,,,,,,60717e12499498909e4883f1,19,Mężczyzna,2022-05-28_09h29.59.468,task,2021.1.4,Win32,59.86590038,628b806c463b948bc644b84f,6291ccefb1d0fe1734bbd347,,,,,,,,,,,,,,,,,,,,,,,8,,,,,,,,,,Practice,9,(3x3) - 1,8,,,,,,,,,,,,,,,,"[""8""]",1,[7.3276000000238355],1,0,0,0,8,1,,,,,,,,,,,,,,,,,,,,,,,,,,,,,,,,,,,,,,,,,,,
,,,,,,,,,,60717e12499498909e4883f1,19,Mężczyzna,2022-05-28_09h29.59.468,task,2021.1.4,Win32,59.86590038,628b806c463b948bc644b84f,6291ccefb1d0fe1734bbd347,,,,,,,,,,"X V Q F H G B L J M P D K C T S W R N Z
",,,,,,,,,,,,,,,,,,,,,,,,,,,,,,,,,,,,,,,,,,,,,,,,,,,1,0,1,0,1,,,,,,,,,,,,,,,,,,,,,,,,,,,,,,,,,,,,,,
,,,,,,,,,,60717e12499498909e4883f1,19,Mężczyzna,2022-05-28_09h29.59.468,task,2021.1.4,Win32,59.86590038,628b806c463b948bc644b84f,6291ccefb1d0fe1734bbd347,,,,,,,,,,,,,,,,,,,,,,,,,,,,,,,,,,,,,,,,,,,,,,,,,,,,,,,,,,,,,,,,,,zb,"[""z"",""b""]",0,"[2.4007999999522553,2.518399999976168,2.850399999976162]",1,0,0,0,0,1,,,,,,,,,,,,,,,,,,,,,,,,,,,,
,,,,,,,,,,60717e12499498909e4883f1,19,Mężczyzna,2022-05-28_09h29.59.468,task,2021.1.4,Win32,59.86590038,628b806c463b948bc644b84f,6291ccefb1d0fe1734bbd347,,,,,,,,,,,,,,,,,,,,,,,0,,,,,,,,,,Practice,1,(3x3) -  9,0,,,,,,,,,,,,,,,,"[""0""]",1,[2.2833999999761545],1,0,0,0,0,1,,,,,,,,,,,,,,,,,,,,,,,,,,,,,,,,,,,,,,,,,,,
,,,,,,,,,,60717e12499498909e4883f1,19,Mężczyzna,2022-05-28_09h29.59.468,task,2021.1.4,Win32,59.86590038,628b806c463b948bc644b84f,6291ccefb1d0fe1734bbd347,,,,,,,,,,"X V Q F H G B L J M P D K C T S W R N Z
",,,,,,,,,,,,,,,,,,,,,,,,,,,,,,,,,,,,,,,,,,,,,,,,,,,0,0,0,0,1,,,,,,,,,,,,,,,,,,,,,,,,,,,,,,,,,,,,,,
,,,,,,,,,,60717e12499498909e4883f1,19,Mężczyzna,2022-05-28_09h29.59.468,task,2021.1.4,Win32,59.86590038,628b806c463b948bc644b84f,6291ccefb1d0fe1734bbd347,,,,,,,,,,,,,,,,,,,,,,,6,,,,,,,,,,Practice,7,(25/5) + 1,6,,,,,,,,,,,,,,,,"[""6""]",1,[2.7378999999762073],1,0,0,0,6,1,,,,,,,,,,,,,,,,,,,,,,,,,,,,,,,,,,,,,,,,,,,
,,,,,,,,,,60717e12499498909e4883f1,19,Mężczyzna,2022-05-28_09h29.59.468,task,2021.1.4,Win32,59.86590038,628b806c463b948bc644b84f,6291ccefb1d0fe1734bbd347,,,,,,,,,,"X V Q F H G B L J M P D K C T S W R N Z
",,,,,,,,,,,,,,,,,,,,,,,,,,,,,,,,,,,,,,,,,,,,,,,,,,,1,0,1,0,1,,,,,,,,,,,,,,,,,,,,,,,,,,,,,,,,,,,,,,
,,,,,,,,,,60717e12499498909e4883f1,19,Mężczyzna,2022-05-28_09h29.59.468,task,2021.1.4,Win32,59.86590038,628b806c463b948bc644b84f,6291ccefb1d0fe1734bbd347,,,,,,,,,,,,,,,,,,,,,,,,,,,,,,,,,,,,,,,,,,,,,,,,,,,,,,,,,,,,,,,,,,jz,"[""j"",""z""]",0,"[1.0172999999523427,1.15329999995231,1.717999999999961]",0,1,0,1,0,1,,,,,,,,,,,,,,,,,,,,,,,,,,,,
,,,,,,,,,,60717e12499498909e4883f1,19,Mężczyzna,2022-05-28_09h29.59.468,task,2021.1.4,Win32,59.86590038,628b806c463b948bc644b84f,6291ccefb1d0fe1734bbd347,,,,,,,,,,,,,,,,,,,,,,,3,,,,,,,,,,Practice,4,(8/4) + 1,3,,,,,,,,,,,,,,,,"[""3""]",1,[8.483800000071483],1,0,0,0,3,1,,,,,,,,,,,,,,,,,,,,,,,,,,,,,,,,,,,,,,,,,,,
,,,,,,,,,,60717e12499498909e4883f1,19,Mężczyzna,2022-05-28_09h29.59.468,task,2021.1.4,Win32,59.86590038,628b806c463b948bc644b84f,6291ccefb1d0fe1734bbd347,,,,,,,,,,"X V Q F H G B L J M P D K C T S W R N Z
",,,,,,,,,,,,,,,,,,,,,,,,,,,,,,,,,,,,,,,,,,,,,,,,,,,0,0,0,0,1,,,,,,,,,,,,,,,,,,,,,,,,,,,,,,,,,,,,,,
,,,,,,,,,,60717e12499498909e4883f1,19,Mężczyzna,2022-05-28_09h29.59.468,task,2021.1.4,Win32,59.86590038,628b806c463b948bc644b84f,6291ccefb1d0fe1734bbd347,,,,,,,,,,,,,,,,,,,,,,,1,,,,,,,,,,Practice,2,(4x4) - 15,1,,,,,,,,,,,,,,,,"[""1""]",1,[3.0878999999761163],1,0,0,0,1,1,,,,,,,,,,,,,,,,,,,,,,,,,,,,,,,,,,,,,,,,,,,
,,,,,,,,,,60717e12499498909e4883f1,19,Mężczyzna,2022-05-28_09h29.59.468,task,2021.1.4,Win32,59.86590038,628b806c463b948bc644b84f,6291ccefb1d0fe1734bbd347,,,,,,,,,,"X V Q F H G B L J M P D K C T S W R N Z
",,,,,,,,,,,,,,,,,,,,,,,,,,,,,,,,,,,,,,,,,,,,,,,,,,,1,0,1,0,1,,,,,,,,,,,,,,,,,,,,,,,,,,,,,,,,,,,,,,
,,,,,,,,,,60717e12499498909e4883f1,19,Mężczyzna,2022-05-28_09h29.59.468,task,2021.1.4,Win32,59.86590038,628b806c463b948bc644b84f,6291ccefb1d0fe1734bbd347,,,,,,,,,,,,,,,,,,,,,,,,,,,,,,,,,,,,,,,,,,,,,,,,,,,,,,,,,,,,,,,,,,qh,"[""q"",""h""]",0,"[1.3507000000477092,1.5841000000237955,1.8507000000477092]",1,2,0,2,0,1,,,,,,,,,,,,,,,,,,,,,,,,,,,,
,,,,,,,,,,60717e12499498909e4883f1,19,Mężczyzna,2022-05-28_09h29.59.468,task,2021.1.4,Win32,59.86590038,628b806c463b948bc644b84f,6291ccefb1d0fe1734bbd347,,,,,,,,,,,,,,,,,,,,,,,8,,,,,,,,,,Practice,9,(3x3) - 1,8,,,,,,,,,,,,,,,,"[""8""]",1,[1.68389999997612],1,0,0,0,8,1,,,,,,,,,,,,,,,,,,,,,,,,,,,,,,,,,,,,,,,,,,,
,,,,,,,,,,60717e12499498909e4883f1,19,Mężczyzna,2022-05-28_09h29.59.468,task,2021.1.4,Win32,59.86590038,628b806c463b948bc644b84f,6291ccefb1d0fe1734bbd347,,,,,,,,,,"X V Q F H G B L J M P D K C T S W R N Z
",,,,,,,,,,,,,,,,,,,,,,,,,,,,,,,,,,,,,,,,,,,,,,,,,,,0,0,0,0,1,,,,,,,,,,,,,,,,,,,,,,,,,,,,,,,,,,,,,,
,,,,,,,,,,60717e12499498909e4883f1,19,Mężczyzna,2022-05-28_09h29.59.468,task,2021.1.4,Win32,59.86590038,628b806c463b948bc644b84f,6291ccefb1d0fe1734bbd347,,,,,,,,,,,,,,,,,,,,,,,8,,,,,,,,,,Practice,9,(3x3) - 1,8,,,,,,,,,,,,,,,,"[""8""]",1,[1.7843000000715392],1,0,0,0,8,1,,,,,,,,,,,,,,,,,,,,,,,,,,,,,,,,,,,,,,,,,,,
,,,,,,,,,,60717e12499498909e4883f1,19,Mężczyzna,2022-05-28_09h29.59.468,task,2021.1.4,Win32,59.86590038,628b806c463b948bc644b84f,6291ccefb1d0fe1734bbd347,,,,,,,,,,"X V Q F H G B L J M P D K C T S W R N Z
",,,,,,,,,,,,,,,,,,,,,,,,,,,,,,,,,,,,,,,,,,,,,,,,,,,1,0,1,0,1,,,,,,,,,,,,,,,,,,,,,,,,,,,,,,,,,,,,,,
,,,,,,,,,,60717e12499498909e4883f1,19,Mężczyzna,2022-05-28_09h29.59.468,task,2021.1.4,Win32,59.86590038,628b806c463b948bc644b84f,6291ccefb1d0fe1734bbd347,,,,,,,,,,,,,,,,,,,,,,,,,,,,,,,,,,,,,,,,,,,,,,,,,,,,,,,,,,,,,,,,,,sl,"[""s"",""l""]",0,"[0.8842000000477128,0.9893999999761718,1.1558999999762136]",1,3,0,3,0,1,,,,,,,,,,,,,,,,,,,,,,,,,,,,
,,,,,,,,,,60717e12499498909e4883f1,19,Mężczyzna,2022-05-28_09h29.59.468,task,2021.1.4,Win32,59.86590038,628b806c463b948bc644b84f,6291ccefb1d0fe1734bbd347,,,,,,,,,,,,,,,,,,,,,,,5,,,,,,,,,,Practice,6,(4/2) + 3,5,,,,,,,,,,,,,,,,"[""5""]",1,[4.700700000047732],1,0,0,0,5,1,,,,,,,,,,,,,,,,,,,,,,,,,,,,,,,,,,,,,,,,,,,
,,,,,,,,,,60717e12499498909e4883f1,19,Mężczyzna,2022-05-28_09h29.59.468,task,2021.1.4,Win32,59.86590038,628b806c463b948bc644b84f,6291ccefb1d0fe1734bbd347,,,,,,,,,,"X V Q F H G B L J M P D K C T S W R N Z
",,,,,,,,,,,,,,,,,,,,,,,,,,,,,,,,,,,,,,,,,,,,,,,,,,,0,0,0,0,1,,,,,,,,,,,,,,,,,,,,,,,,,,,,,,,,,,,,,,
,,,,,,,,,,60717e12499498909e4883f1,19,Mężczyzna,2022-05-28_09h29.59.468,task,2021.1.4,Win32,59.86590038,628b806c463b948bc644b84f,6291ccefb1d0fe1734bbd347,,,,,,,,,,,,,,,,,,,,,,,3,,,,,,,,,,Practice,4,(8/4) + 1,3,,,,,,,,,,,,,,,,"[""3""]",1,[3.5578999999762573],1,0,0,0,3,1,,,,,,,,,,,,,,,,,,,,,,,,,,,,,,,,,,,,,,,,,,,
,,,,,,,,,,60717e12499498909e4883f1,19,Mężczyzna,2022-05-28_09h29.59.468,task,2021.1.4,Win32,59.86590038,628b806c463b948bc644b84f,6291ccefb1d0fe1734bbd347,,,,,,,,,,"X V Q F H G B L J M P D K C T S W R N Z
",,,,,,,,,,,,,,,,,,,,,,,,,,,,,,,,,,,,,,,,,,,,,,,,,,,1,0,1,0,1,,,,,,,,,,,,,,,,,,,,,,,,,,,,,,,,,,,,,,
,,,,,,,,,,60717e12499498909e4883f1,19,Mężczyzna,2022-05-28_09h29.59.468,task,2021.1.4,Win32,59.86590038,628b806c463b948bc644b84f,6291ccefb1d0fe1734bbd347,,,,,,,,,,,,,,,,,,,,,,,,,,,,,,,,,,,,,,,,,,,,,,,,,,,,,,,,,,,,,,,,,,vg,"[""v"",""g""]",0,"[1.0831999999284108,1.2342999999523272,1.5758999999761727]",1,4,0,4,0,1,,,,,,,,,,,,,,,,,,,,,,,,,,,,
,,,,,,,,,,60717e12499498909e4883f1,19,Mężczyzna,2022-05-28_09h29.59.468,task,2021.1.4,Win32,59.86590038,628b806c463b948bc644b84f,6291ccefb1d0fe1734bbd347,,,,,,,,,,,,,,,,,,,,,,,6,,,,,,,,,,Task,37,(3/3) + 5,6,,,,,,,,,,,,,,,,,,,1,,,,,,,,,,,,,,,,,,,,,space,19.617,"[""6""]",1,[3.417399999976169],0,0,0,36,1,,,,,,,,,,,,,,,,,,
,,,,,,,,,,60717e12499498909e4883f1,19,Mężczyzna,2022-05-28_09h29.59.468,task,2021.1.4,Win32,59.86590038,628b806c463b948bc644b84f,6291ccefb1d0fe1734bbd347,,,,,,,,,,"X V Q F H G B L J M P D K C T S W R N Z
",,,,,,,,,,,,,,,,,,,,,,,,,,,,,,,,,,,,,,,,,,,,,,,,,,,,,,,,,,,,,,,,,,,,,,,,,,,,0,0,0,0,1,,,,,,,,,,,,,
,,,,,,,,,,60717e12499498909e4883f1,19,Mężczyzna,2022-05-28_09h29.59.468,task,2021.1.4,Win32,59.86590038,628b806c463b948bc644b84f,6291ccefb1d0fe1734bbd347,,,,,,,,,,,,,,,,,,,,,,,7,,,,,,,,,,Task,14,(2x2) + 3,7,,,,,,,,,,,,,,,,,,,1,,,,,,,,,,,,,,,,,,,,,,,"[""7""]",1,[6.6013000000715465],0,0,0,13,1,,,,,,,,,,,,,,,,,,
,,,,,,,,,,60717e12499498909e4883f1,19,Mężczyzna,2022-05-28_09h29.59.468,task,2021.1.4,Win32,59.86590038,628b806c463b948bc644b84f,6291ccefb1d0fe1734bbd347,,,,,,,,,,"X V Q F H G B L J M P D K C T S W R N Z
",,,,,,,,,,,,,,,,,,,,,,,,,,,,,,,,,,,,,,,,,,,,,,,,,,,,,,,,,,,,,,,,,,,,,,,,,,,,1,0,1,0,1,,,,,,,,,,,,,
,,,,,,,,,,60717e12499498909e4883f1,19,Mężczyzna,2022-05-28_09h29.59.468,task,2021.1.4,Win32,59.86590038,628b806c463b948bc644b84f,6291ccefb1d0fe1734bbd347,,,,,,,,,,,,,,,,,,,,,,,,,,,,,,,,,,,,,,,,,,,,,,,,,,,,,,,,,,,,,,,,,,,,,,,,,,,,,,,,,,,,,,,,,,,zn,"[""z"",""n""]",0,"[1.6508999999761045,1.9399999999999409,2.2007999999523236]",1,ZN,0,0,0,0,1,,
,,,,,,,,,,60717e12499498909e4883f1,19,Mężczyzna,2022-05-28_09h29.59.468,task,2021.1.4,Win32,59.86590038,628b806c463b948bc644b84f,6291ccefb1d0fe1734bbd347,,,,,,,,,,,,,,,,,,,,,,,3,,,,,,,,,,Task,20,(18/9) + 1,3,,,,,,,,,,,,,,,,,,,1,,,,,,,,,,,,,,,,,,,,,,,"[""3""]",1,[3.038000000000011],0,0,0,19,1,,,,,,,,,,,,,,,,,,
,,,,,,,,,,60717e12499498909e4883f1,19,Mężczyzna,2022-05-28_09h29.59.468,task,2021.1.4,Win32,59.86590038,628b806c463b948bc644b84f,6291ccefb1d0fe1734bbd347,,,,,,,,,,"X V Q F H G B L J M P D K C T S W R N Z
",,,,,,,,,,,,,,,,,,,,,,,,,,,,,,,,,,,,,,,,,,,,,,,,,,,,,,,,,,,,,,,,,,,,,,,,,,,,0,0,0,0,1,,,,,,,,,,,,,
,,,,,,,,,,60717e12499498909e4883f1,19,Mężczyzna,2022-05-28_09h29.59.468,task,2021.1.4,Win32,59.86590038,628b806c463b948bc644b84f,6291ccefb1d0fe1734bbd347,,,,,,,,,,,,,,,,,,,,,,,3,,,,,,,,,,Task,20,(18/9) + 1,3,,,,,,,,,,,,,,,,,,,1,,,,,,,,,,,,,,,,,,,,,,,"[""3""]",1,[1.7251000000238719],0,0,0,19,1,,,,,,,,,,,,,,,,,,
,,,,,,,,,,60717e12499498909e4883f1,19,Mężczyzna,2022-05-28_09h29.59.468,task,2021.1.4,Win32,59.86590038,628b806c463b948bc644b84f,6291ccefb1d0fe1734bbd347,,,,,,,,,,"X V Q F H G B L J M P D K C T S W R N Z
",,,,,,,,,,,,,,,,,,,,,,,,,,,,,,,,,,,,,,,,,,,,,,,,,,,,,,,,,,,,,,,,,,,,,,,,,,,,1,0,1,0,1,,,,,,,,,,,,,
,,,,,,,,,,60717e12499498909e4883f1,19,Mężczyzna,2022-05-28_09h29.59.468,task,2021.1.4,Win32,59.86590038,628b806c463b948bc644b84f,6291ccefb1d0fe1734bbd347,,,,,,,,,,,,,,,,,,,,,,,,,,,,,,,,,Task,7,(3x7) - 12,9,,,,,,,,,,,,,,,,,,,0,,,,,,,,,,,,,,,,,,,,,,,,0,,0,0,0,6,1,,,,,,,,,,,,,,,,,,
,,,,,,,,,,60717e12499498909e4883f1,19,Mężczyzna,2022-05-28_09h29.59.468,task,2021.1.4,Win32,59.86590038,628b806c463b948bc644b84f,6291ccefb1d0fe1734bbd347,,,,,,,,,,,,,,,,,,,,,,,1,,,,,,,,,,Task,9,(3x7) - 20,1,,,,,,,,,,,,,,,,,,,1,,,,,,,,,,,,,,,,,,,,,,,"[""1""]",1,[11.76020000004769],0,1,1,8,1,,,,,,,,,,,,,,,,,,
,,,,,,,,,,60717e12499498909e4883f1,19,Mężczyzna,2022-05-28_09h29.59.468,task,2021.1.4,Win32,59.86590038,628b806c463b948bc644b84f,6291ccefb1d0fe1734bbd347,,,,,,,,,,"X V Q F H G B L J M P D K C T S W R N Z
",,,,,,,,,,,,,,,,,,,,,,,,,,,,,,,,,,,,,,,,,,,,,,,,,,,,,,,,,,,,,,,,,,,,,,,,,,,,2,0,2,0,1,,,,,,,,,,,,,
,,,,,,,,,,60717e12499498909e4883f1,19,Mężczyzna,2022-05-28_09h29.59.468,task,2021.1.4,Win32,59.86590038,628b806c463b948bc644b84f,6291ccefb1d0fe1734bbd347,,,,,,,,,,,,,,,,,,,,,,,,,,,,,,,,,,,,,,,,,,,,,,,,,,,,,,,,,,,,,,,,,,,,,,,,,,,,,,,,,,,,,,,,,,,ljk,"[""l"",""j"",""k""]",0,"[1.7173999999761236,2.0007000000476864,2.2341000000238864,2.517399999976192]",1,LJK,1,0,1,0,1,,
,,,,,,,,,,60717e12499498909e4883f1,19,Mężczyzna,2022-05-28_09h29.59.468,task,2021.1.4,Win32,59.86590038,628b806c463b948bc644b84f,6291ccefb1d0fe1734bbd347,,,,,,,,,,,,,,,,,,,,,,,2,,,,,,,,,,Task,2,(2x2) - 2,2,,,,,,,,,,,,,,,,,,,1,,,,,,,,,,,,,,,,,,,,,,,"[""2""]",1,[2.242600000023799],0,0,0,1,1,,,,,,,,,,,,,,,,,,
,,,,,,,,,,60717e12499498909e4883f1,19,Mężczyzna,2022-05-28_09h29.59.468,task,2021.1.4,Win32,59.86590038,628b806c463b948bc644b84f,6291ccefb1d0fe1734bbd347,,,,,,,,,,"X V Q F H G B L J M P D K C T S W R N Z
",,,,,,,,,,,,,,,,,,,,,,,,,,,,,,,,,,,,,,,,,,,,,,,,,,,,,,,,,,,,,,,,,,,,,,,,,,,,0,0,0,0,1,,,,,,,,,,,,,
,,,,,,,,,,60717e12499498909e4883f1,19,Mężczyzna,2022-05-28_09h29.59.468,task,2021.1.4,Win32,59.86590038,628b806c463b948bc644b84f,6291ccefb1d0fe1734bbd347,,,,,,,,,,,,,,,,,,,,,,,5,,,,,,,,,,Task,12,(4x4) - 11,5,,,,,,,,,,,,,,,,,,,1,,,,,,,,,,,,,,,,,,,,,,,"[""5""]",1,[3.667399999976169],0,0,0,11,1,,,,,,,,,,,,,,,,,,
,,,,,,,,,,60717e12499498909e4883f1,19,Mężczyzna,2022-05-28_09h29.59.468,task,2021.1.4,Win32,59.86590038,628b806c463b948bc644b84f,6291ccefb1d0fe1734bbd347,,,,,,,,,,"X V Q F H G B L J M P D K C T S W R N Z
",,,,,,,,,,,,,,,,,,,,,,,,,,,,,,,,,,,,,,,,,,,,,,,,,,,,,,,,,,,,,,,,,,,,,,,,,,,,1,0,1,0,1,,,,,,,,,,,,,
,,,,,,,,,,60717e12499498909e4883f1,19,Mężczyzna,2022-05-28_09h29.59.468,task,2021.1.4,Win32,59.86590038,628b806c463b948bc644b84f,6291ccefb1d0fe1734bbd347,,,,,,,,,,,,,,,,,,,,,,,,,,,,,,,,,Task,5,(2x3) + 0,6,,,,,,,,,,,,,,,,,,,0,,,,,,,,,,,,,,,,,,,,,,,,0,,0,0,0,4,1,,,,,,,,,,,,,,,,,,
,,,,,,,,,,60717e12499498909e4883f1,19,Mężczyzna,2022-05-28_09h29.59.468,task,2021.1.4,Win32,59.86590038,628b806c463b948bc644b84f,6291ccefb1d0fe1734bbd347,,,,,,,,,,,,,,,,,,,,,,,9,,,,,,,,,,Task,40,(7x2) - 5,9,,,,,,,,,,,,,,,,,,,1,,,,,,,,,,,,,,,,,,,,,,,"[""9""]",1,[9.309299999952486],0,1,1,39,1,,,,,,,,,,,,,,,,,,
,,,,,,,,,,60717e12499498909e4883f1,19,Mężczyzna,2022-05-28_09h29.59.468,task,2021.1.4,Win32,59.86590038,628b806c463b948bc644b84f,6291ccefb1d0fe1734bbd347,,,,,,,,,,"X V Q F H G B L J M P D K C T S W R N Z
",,,,,,,,,,,,,,,,,,,,,,,,,,,,,,,,,,,,,,,,,,,,,,,,,,,,,,,,,,,,,,,,,,,,,,,,,,,,2,0,2,0,1,,,,,,,,,,,,,
,,,,,,,,,,60717e12499498909e4883f1,19,Mężczyzna,2022-05-28_09h29.59.468,task,2021.1.4,Win32,59.86590038,628b806c463b948bc644b84f,6291ccefb1d0fe1734bbd347,,,,,,,,,,,,,,,,,,,,,,,8,,,,,,,,,,Task,23,(2x3) + 2,8,,,,,,,,,,,,,,,,,,,1,,,,,,,,,,,,,,,,,,,,,,,"[""8""]",1,[7.517299999952229],0,0,0,22,1,,,,,,,,,,,,,,,,,,
,,,,,,,,,,60717e12499498909e4883f1,19,Mężczyzna,2022-05-28_09h29.59.468,task,2021.1.4,Win32,59.86590038,628b806c463b948bc644b84f,6291ccefb1d0fe1734bbd347,,,,,,,,,,"X V Q F H G B L J M P D K C T S W R N Z
",,,,,,,,,,,,,,,,,,,,,,,,,,,,,,,,,,,,,,,,,,,,,,,,,,,,,,,,,,,,,,,,,,,,,,,,,,,,3,0,3,0,1,,,,,,,,,,,,,
,,,,,,,,,,60717e12499498909e4883f1,19,Mężczyzna,2022-05-28_09h29.59.468,task,2021.1.4,Win32,59.86590038,628b806c463b948bc644b84f,6291ccefb1d0fe1734bbd347,,,,,,,,,,,,,,,,,,,,,,,,,,,,,,,,,,,,,,,,,,,,,,,,,,,,,,,,,,,,,,,,,,,,,,,,,,,,,,,,,,,,,,,,,,,wjrr,"[""w"",""j"",""r"",""r""]",0,"[1.734000000000151,1.9394999999999527,2.143699999928458,2.3340999999047654,2.6173999999762145]",1,WJRR,2,0,2,0,1,,
,,,,,,,,,,60717e12499498909e4883f1,19,Mężczyzna,2022-05-28_09h29.59.468,task,2021.1.4,Win32,59.86590038,628b806c463b948bc644b84f,6291ccefb1d0fe1734bbd347,,,,,,,,,,,,,,,,,,,,,,,0,,,,,,,,,,Task,33,(1/1) - 1,0,,,,,,,,,,,,,,,,,,,1,,,,,,,,,,,,,,,,,,,,,,,"[""0""]",1,[3.869299999952318],0,0,0,32,1,,,,,,,,,,,,,,,,,,
,,,,,,,,,,60717e12499498909e4883f1,19,Mężczyzna,2022-05-28_09h29.59.468,task,2021.1.4,Win32,59.86590038,628b806c463b948bc644b84f,6291ccefb1d0fe1734bbd347,,,,,,,,,,"X V Q F H G B L J M P D K C T S W R N Z
",,,,,,,,,,,,,,,,,,,,,,,,,,,,,,,,,,,,,,,,,,,,,,,,,,,,,,,,,,,,,,,,,,,,,,,,,,,,0,0,0,0,1,,,,,,,,,,,,,
,,,,,,,,,,60717e12499498909e4883f1,19,Mężczyzna,2022-05-28_09h29.59.468,task,2021.1.4,Win32,59.86590038,628b806c463b948bc644b84f,6291ccefb1d0fe1734bbd347,,,,,,,,,,,,,,,,,,,,,,,4,,,,,,,,,,Task,28,(2x5) - 6,4,,,,,,,,,,,,,,,,,,,1,,,,,,,,,,,,,,,,,,,,,,,"[""4""]",1,[3.4177000000477165],0,0,0,27,1,,,,,,,,,,,,,,,,,,
,,,,,,,,,,60717e12499498909e4883f1,19,Mężczyzna,2022-05-28_09h29.59.468,task,2021.1.4,Win32,59.86590038,628b806c463b948bc644b84f,6291ccefb1d0fe1734bbd347,,,,,,,,,,"X V Q F H G B L J M P D K C T S W R N Z
",,,,,,,,,,,,,,,,,,,,,,,,,,,,,,,,,,,,,,,,,,,,,,,,,,,,,,,,,,,,,,,,,,,,,,,,,,,,1,0,1,0,1,,,,,,,,,,,,,
,,,,,,,,,,60717e12499498909e4883f1,19,Mężczyzna,2022-05-28_09h29.59.468,task,2021.1.4,Win32,59.86590038,628b806c463b948bc644b84f,6291ccefb1d0fe1734bbd347,,,,,,,,,,,,,,,,,,,,,,,0,,,,,,,,,,Task,17,(2x3) - 6,0,,,,,,,,,,,,,,,,,,,1,,,,,,,,,,,,,,,,,,,,,,,"[""0""]",1,[3.1363000000715147],0,0,0,16,1,,,,,,,,,,,,,,,,,,
,,,,,,,,,,60717e12499498909e4883f1,19,Mężczyzna,2022-05-28_09h29.59.468,task,2021.1.4,Win32,59.86590038,628b806c463b948bc644b84f,6291ccefb1d0fe1734bbd347,,,,,,,,,,"X V Q F H G B L J M P D K C T S W R N Z
",,,,,,,,,,,,,,,,,,,,,,,,,,,,,,,,,,,,,,,,,,,,,,,,,,,,,,,,,,,,,,,,,,,,,,,,,,,,2,0,2,0,1,,,,,,,,,,,,,
,,,,,,,,,,60717e12499498909e4883f1,19,Mężczyzna,2022-05-28_09h29.59.468,task,2021.1.4,Win32,59.86590038,628b806c463b948bc644b84f,6291ccefb1d0fe1734bbd347,,,,,,,,,,,,,,,,,,,,,,,4,,,,,,,,,,Task,4,(1x5) - 1,4,,,,,,,,,,,,,,,,,,,1,,,,,,,,,,,,,,,,,,,,,,,"[""4""]",1,[4.349800000071582],0,0,0,3,1,,,,,,,,,,,,,,,,,,
,,,,,,,,,,60717e12499498909e4883f1,19,Mężczyzna,2022-05-28_09h29.59.468,task,2021.1.4,Win32,59.86590038,628b806c463b948bc644b84f,6291ccefb1d0fe1734bbd347,,,,,,,,,,"X V Q F H G B L J M P D K C T S W R N Z
",,,,,,,,,,,,,,,,,,,,,,,,,,,,,,,,,,,,,,,,,,,,,,,,,,,,,,,,,,,,,,,,,,,,,,,,,,,,3,0,3,0,1,,,,,,,,,,,,,
,,,,,,,,,,60717e12499498909e4883f1,19,Mężczyzna,2022-05-28_09h29.59.468,task,2021.1.4,Win32,59.86590038,628b806c463b948bc644b84f,6291ccefb1d0fe1734bbd347,,,,,,,,,,,,,,,,,,,,,,,5,,,,,,,,,,Task,12,(4x4) - 11,5,,,,,,,,,,,,,,,,,,,1,,,,,,,,,,,,,,,,,,,,,,,"[""5""]",1,[3.6043000000715892],0,0,0,11,1,,,,,,,,,,,,,,,,,,
,,,,,,,,,,60717e12499498909e4883f1,19,Mężczyzna,2022-05-28_09h29.59.468,task,2021.1.4,Win32,59.86590038,628b806c463b948bc644b84f,6291ccefb1d0fe1734bbd347,,,,,,,,,,"X V Q F H G B L J M P D K C T S W R N Z
",,,,,,,,,,,,,,,,,,,,,,,,,,,,,,,,,,,,,,,,,,,,,,,,,,,,,,,,,,,,,,,,,,,,,,,,,,,,4,0,4,0,1,,,,,,,,,,,,,
,,,,,,,,,,60717e12499498909e4883f1,19,Mężczyzna,2022-05-28_09h29.59.468,task,2021.1.4,Win32,59.86590038,628b806c463b948bc644b84f,6291ccefb1d0fe1734bbd347,,,,,,,,,,,,,,,,,,,,,,,,,,,,,,,,,,,,,,,,,,,,,,,,,,,,,,,,,,,,,,,,,,,,,,,,,,,,,,,,,,,,,,,,,,,wjsln,"[""w"",""j"",""s"",""l"",""n""]",0,"[1.5164999999999509,1.809500000000071,2.0678999999761345,2.535000000000082,2.9103000000716293,3.283800000071551]",1,WJSLN,3,0,3,0,1,,
,,,,,,,,,,60717e12499498909e4883f1,19,Mężczyzna,2022-05-28_09h29.59.468,task,2021.1.4,Win32,59.86590038,628b806c463b948bc644b84f,6291ccefb1d0fe1734bbd347,,,,,,,,,,,,,,,,,,,,,,,3,,,,,,,,,,Task,35,(1x2) + 1,3,,,,,,,,,,,,,,,,,,,1,,,,,,,,,,,,,,,,,,,,,,,"[""3""]",1,[4.449499999999944],0,0,0,34,1,,,,,,,,,,,,,,,,,,
,,,,,,,,,,60717e12499498909e4883f1,19,Mężczyzna,2022-05-28_09h29.59.468,task,2021.1.4,Win32,59.86590038,628b806c463b948bc644b84f,6291ccefb1d0fe1734bbd347,,,,,,,,,,"X V Q F H G B L J M P D K C T S W R N Z
",,,,,,,,,,,,,,,,,,,,,,,,,,,,,,,,,,,,,,,,,,,,,,,,,,,,,,,,,,,,,,,,,,,,,,,,,,,,0,0,0,0,1,,,,,,,,,,,,,
,,,,,,,,,,60717e12499498909e4883f1,19,Mężczyzna,2022-05-28_09h29.59.468,task,2021.1.4,Win32,59.86590038,628b806c463b948bc644b84f,6291ccefb1d0fe1734bbd347,,,,,,,,,,,,,,,,,,,,,,,9,,,,,,,,,,Task,24,(2x2) + 5,9,,,,,,,,,,,,,,,,,,,1,,,,,,,,,,,,,,,,,,,,,,,"[""9""]",1,[3.783800000071551],0,0,0,23,1,,,,,,,,,,,,,,,,,,
,,,,,,,,,,60717e12499498909e4883f1,19,Mężczyzna,2022-05-28_09h29.59.468,task,2021.1.4,Win32,59.86590038,628b806c463b948bc644b84f,6291ccefb1d0fe1734bbd347,,,,,,,,,,"X V Q F H G B L J M P D K C T S W R N Z
",,,,,,,,,,,,,,,,,,,,,,,,,,,,,,,,,,,,,,,,,,,,,,,,,,,,,,,,,,,,,,,,,,,,,,,,,,,,1,0,1,0,1,,,,,,,,,,,,,
,,,,,,,,,,60717e12499498909e4883f1,19,Mężczyzna,2022-05-28_09h29.59.468,task,2021.1.4,Win32,59.86590038,628b806c463b948bc644b84f,6291ccefb1d0fe1734bbd347,,,,,,,,,,,,,,,,,,,,,,,3,,,,,,,,,,Task,35,(1x2) + 1,3,,,,,,,,,,,,,,,,,,,1,,,,,,,,,,,,,,,,,,,,,,,"[""3""]",1,[4.4702000000477256],0,0,0,34,1,,,,,,,,,,,,,,,,,,
,,,,,,,,,,60717e12499498909e4883f1,19,Mężczyzna,2022-05-28_09h29.59.468,task,2021.1.4,Win32,59.86590038,628b806c463b948bc644b84f,6291ccefb1d0fe1734bbd347,,,,,,,,,,"X V Q F H G B L J M P D K C T S W R N Z
",,,,,,,,,,,,,,,,,,,,,,,,,,,,,,,,,,,,,,,,,,,,,,,,,,,,,,,,,,,,,,,,,,,,,,,,,,,,2,0,2,0,1,,,,,,,,,,,,,
,,,,,,,,,,60717e12499498909e4883f1,19,Mężczyzna,2022-05-28_09h29.59.468,task,2021.1.4,Win32,59.86590038,628b806c463b948bc644b84f,6291ccefb1d0fe1734bbd347,,,,,,,,,,,,,,,,,,,,,,,2,,,,,,,,,,Task,2,(2x2) - 2,2,,,,,,,,,,,,,,,,,,,1,,,,,,,,,,,,,,,,,,,,,,,"[""2""]",1,[6.034100000023955],0,0,0,1,1,,,,,,,,,,,,,,,,,,
,,,,,,,,,,60717e12499498909e4883f1,19,Mężczyzna,2022-05-28_09h29.59.468,task,2021.1.4,Win32,59.86590038,628b806c463b948bc644b84f,6291ccefb1d0fe1734bbd347,,,,,,,,,,"X V Q F H G B L J M P D K C T S W R N Z
",,,,,,,,,,,,,,,,,,,,,,,,,,,,,,,,,,,,,,,,,,,,,,,,,,,,,,,,,,,,,,,,,,,,,,,,,,,,3,0,3,0,1,,,,,,,,,,,,,
,,,,,,,,,,60717e12499498909e4883f1,19,Mężczyzna,2022-05-28_09h29.59.468,task,2021.1.4,Win32,59.86590038,628b806c463b948bc644b84f,6291ccefb1d0fe1734bbd347,,,,,,,,,,,,,,,,,,,,,,,3,,,,,,,,,,Task,35,(1x2) + 1,3,,,,,,,,,,,,,,,,,,,1,,,,,,,,,,,,,,,,,,,,,,,"[""3""]",1,[3.6358999999763455],0,0,0,34,1,,,,,,,,,,,,,,,,,,
,,,,,,,,,,60717e12499498909e4883f1,19,Mężczyzna,2022-05-28_09h29.59.468,task,2021.1.4,Win32,59.86590038,628b806c463b948bc644b84f,6291ccefb1d0fe1734bbd347,,,,,,,,,,"X V Q F H G B L J M P D K C T S W R N Z
",,,,,,,,,,,,,,,,,,,,,,,,,,,,,,,,,,,,,,,,,,,,,,,,,,,,,,,,,,,,,,,,,,,,,,,,,,,,4,0,4,0,1,,,,,,,,,,,,,
,,,,,,,,,,60717e12499498909e4883f1,19,Mężczyzna,2022-05-28_09h29.59.468,task,2021.1.4,Win32,59.86590038,628b806c463b948bc644b84f,6291ccefb1d0fe1734bbd347,,,,,,,,,,,,,,,,,,,,,,,9,,,,,,,,,,Task,40,(7x2) - 5,9,,,,,,,,,,,,,,,,,,,1,,,,,,,,,,,,,,,,,,,,,,,"[""9""]",1,[11.824400000095238],0,0,0,39,1,,,,,,,,,,,,,,,,,,
,,,,,,,,,,60717e12499498909e4883f1,19,Mężczyzna,2022-05-28_09h29.59.468,task,2021.1.4,Win32,59.86590038,628b806c463b948bc644b84f,6291ccefb1d0fe1734bbd347,,,,,,,,,,"X V Q F H G B L J M P D K C T S W R N Z
",,,,,,,,,,,,,,,,,,,,,,,,,,,,,,,,,,,,,,,,,,,,,,,,,,,,,,,,,,,,,,,,,,,,,,,,,,,,5,0,5,0,1,,,,,,,,,,,,,
,,,,,,,,,,60717e12499498909e4883f1,19,Mężczyzna,2022-05-28_09h29.59.468,task,2021.1.4,Win32,59.86590038,628b806c463b948bc644b84f,6291ccefb1d0fe1734bbd347,,,,,,,,,,,,,,,,,,,,,,,,,,,,,,,,,,,,,,,,,,,,,,,,,,,,,,,,,,,,,,,,,,,,,,,,,,,,,,,,,,,,,,,,,,,llxvqb,"[""l"",""l"",""x"",""v"",""q"",""b""]",0,"[1.4676000000238218,1.7174999999999727,2.63510000002384,2.8528999999762163,3.100399999976162,3.50360000002388,3.95049999999992]",1,LLXVQB,4,0,4,0,1,,
,,,,,,,,,,60717e12499498909e4883f1,19,Mężczyzna,2022-05-28_09h29.59.468,task,2021.1.4,Win32,59.86590038,628b806c463b948bc644b84f,6291ccefb1d0fe1734bbd347,,,,,,,,,,,,,,,,,,,,,,,4,,,,,,,,,,Task,21,(10/2) - 1,4,,,,,,,,,,,,,,,,,,,1,,,,,,,,,,,,,,,,,,,,,,,"[""4""]",1,[3.31610000002388],0,0,0,20,1,,,,,,,,,,,,,,,,,,
,,,,,,,,,,60717e12499498909e4883f1,19,Mężczyzna,2022-05-28_09h29.59.468,task,2021.1.4,Win32,59.86590038,628b806c463b948bc644b84f,6291ccefb1d0fe1734bbd347,,,,,,,,,,"X V Q F H G B L J M P D K C T S W R N Z
",,,,,,,,,,,,,,,,,,,,,,,,,,,,,,,,,,,,,,,,,,,,,,,,,,,,,,,,,,,,,,,,,,,,,,,,,,,,0,0,0,0,1,,,,,,,,,,,,,
,,,,,,,,,,60717e12499498909e4883f1,19,Mężczyzna,2022-05-28_09h29.59.468,task,2021.1.4,Win32,59.86590038,628b806c463b948bc644b84f,6291ccefb1d0fe1734bbd347,,,,,,,,,,,,,,,,,,,,,,,7,,,,,,,,,,Task,14,(2x2) + 3,7,,,,,,,,,,,,,,,,,,,1,,,,,,,,,,,,,,,,,,,,,,,"[""7""]",1,[2.8230000000000928],0,0,0,13,1,,,,,,,,,,,,,,,,,,
,,,,,,,,,,60717e12499498909e4883f1,19,Mężczyzna,2022-05-28_09h29.59.468,task,2021.1.4,Win32,59.86590038,628b806c463b948bc644b84f,6291ccefb1d0fe1734bbd347,,,,,,,,,,"X V Q F H G B L J M P D K C T S W R N Z
",,,,,,,,,,,,,,,,,,,,,,,,,,,,,,,,,,,,,,,,,,,,,,,,,,,,,,,,,,,,,,,,,,,,,,,,,,,,1,0,1,0,1,,,,,,,,,,,,,
,,,,,,,,,,60717e12499498909e4883f1,19,Mężczyzna,2022-05-28_09h29.59.468,task,2021.1.4,Win32,59.86590038,628b806c463b948bc644b84f,6291ccefb1d0fe1734bbd347,,,,,,,,,,,,,,,,,,,,,,,4,,,,,,,,,,Task,21,(10/2) - 1,4,,,,,,,,,,,,,,,,,,,1,,,,,,,,,,,,,,,,,,,,,,,"[""4""]",1,[4.9678999999762254],0,0,0,20,1,,,,,,,,,,,,,,,,,,
,,,,,,,,,,60717e12499498909e4883f1,19,Mężczyzna,2022-05-28_09h29.59.468,task,2021.1.4,Win32,59.86590038,628b806c463b948bc644b84f,6291ccefb1d0fe1734bbd347,,,,,,,,,,"X V Q F H G B L J M P D K C T S W R N Z
",,,,,,,,,,,,,,,,,,,,,,,,,,,,,,,,,,,,,,,,,,,,,,,,,,,,,,,,,,,,,,,,,,,,,,,,,,,,2,0,2,0,1,,,,,,,,,,,,,
,,,,,,,,,,60717e12499498909e4883f1,19,Mężczyzna,2022-05-28_09h29.59.468,task,2021.1.4,Win32,59.86590038,628b806c463b948bc644b84f,6291ccefb1d0fe1734bbd347,,,,,,,,,,,,,,,,,,,,,,,,,,,,,,,,,Task,15,(3x7) - 13,8,,,,,,,,,,,,,,,,,,,0,,,,,,,,,,,,,,,,,,,,,,,,0,,0,0,0,14,1,,,,,,,,,,,,,,,,,,
,,,,,,,,,,60717e12499498909e4883f1,19,Mężczyzna,2022-05-28_09h29.59.468,task,2021.1.4,Win32,59.86590038,628b806c463b948bc644b84f,6291ccefb1d0fe1734bbd347,,,,,,,,,,,,,,,,,,,,,,,3,,,,,,,,,,Task,27,(3/3) + 2,3,,,,,,,,,,,,,,,,,,,1,,,,,,,,,,,,,,,,,,,,,,,"[""3""]",1,[3.5671000000238564],0,1,1,26,1,,,,,,,,,,,,,,,,,,
,,,,,,,,,,60717e12499498909e4883f1,19,Mężczyzna,2022-05-28_09h29.59.468,task,2021.1.4,Win32,59.86590038,628b806c463b948bc644b84f,6291ccefb1d0fe1734bbd347,,,,,,,,,,"X V Q F H G B L J M P D K C T S W R N Z
",,,,,,,,,,,,,,,,,,,,,,,,,,,,,,,,,,,,,,,,,,,,,,,,,,,,,,,,,,,,,,,,,,,,,,,,,,,,3,0,3,0,1,,,,,,,,,,,,,
,,,,,,,,,,60717e12499498909e4883f1,19,Mężczyzna,2022-05-28_09h29.59.468,task,2021.1.4,Win32,59.86590038,628b806c463b948bc644b84f,6291ccefb1d0fe1734bbd347,,,,,,,,,,,,,,,,,,,,,,,1,,,,,,,,,,Task,18,(16/4) - 3,1,,,,,,,,,,,,,,,,,,,1,,,,,,,,,,,,,,,,,,,,,,,"[""1""]",1,[5.749699999928453],0,0,0,17,1,,,,,,,,,,,,,,,,,,
,,,,,,,,,,60717e12499498909e4883f1,19,Mężczyzna,2022-05-28_09h29.59.468,task,2021.1.4,Win32,59.86590038,628b806c463b948bc644b84f,6291ccefb1d0fe1734bbd347,,,,,,,,,,"X V Q F H G B L J M P D K C T S W R N Z
",,,,,,,,,,,,,,,,,,,,,,,,,,,,,,,,,,,,,,,,,,,,,,,,,,,,,,,,,,,,,,,,,,,,,,,,,,,,4,0,4,0,1,,,,,,,,,,,,,
,,,,,,,,,,60717e12499498909e4883f1,19,Mężczyzna,2022-05-28_09h29.59.468,task,2021.1.4,Win32,59.86590038,628b806c463b948bc644b84f,6291ccefb1d0fe1734bbd347,,,,,,,,,,,,,,,,,,,,,,,5,,,,,,,,,,Task,22,(3x1) + 2,5,,,,,,,,,,,,,,,,,,,1,,,,,,,,,,,,,,,,,,,,,,,"[""5""]",1,[5.400399999976116],0,0,0,21,1,,,,,,,,,,,,,,,,,,
,,,,,,,,,,60717e12499498909e4883f1,19,Mężczyzna,2022-05-28_09h29.59.468,task,2021.1.4,Win32,59.86590038,628b806c463b948bc644b84f,6291ccefb1d0fe1734bbd347,,,,,,,,,,"X V Q F H G B L J M P D K C T S W R N Z
",,,,,,,,,,,,,,,,,,,,,,,,,,,,,,,,,,,,,,,,,,,,,,,,,,,,,,,,,,,,,,,,,,,,,,,,,,,,5,0,5,0,1,,,,,,,,,,,,,
,,,,,,,,,,60717e12499498909e4883f1,19,Mężczyzna,2022-05-28_09h29.59.468,task,2021.1.4,Win32,59.86590038,628b806c463b948bc644b84f,6291ccefb1d0fe1734bbd347,,,,,,,,,,,,,,,,,,,,,,,2,,,,,,,,,,Task,10,(2x5) - 8,2,,,,,,,,,,,,,,,,,,,1,,,,,,,,,,,,,,,,,,,,,,,"[""2""]",1,[4.809100000024046],0,0,0,9,1,,,,,,,,,,,,,,,,,,
,,,,,,,,,,60717e12499498909e4883f1,19,Mężczyzna,2022-05-28_09h29.59.468,task,2021.1.4,Win32,59.86590038,628b806c463b948bc644b84f,6291ccefb1d0fe1734bbd347,,,,,,,,,,"X V Q F H G B L J M P D K C T S W R N Z
",,,,,,,,,,,,,,,,,,,,,,,,,,,,,,,,,,,,,,,,,,,,,,,,,,,,,,,,,,,,,,,,,,,,,,,,,,,,6,0,6,0,1,,,,,,,,,,,,,
,,,,,,,,,,60717e12499498909e4883f1,19,Mężczyzna,2022-05-28_09h29.59.468,task,2021.1.4,Win32,59.86590038,628b806c463b948bc644b84f,6291ccefb1d0fe1734bbd347,,,,,,,,,,,,,,,,,,,,,,,,,,,,,,,,,,,,,,,,,,,,,,,,,,,,,,,,,,,,,,,,,,,,,,,,,,,,,,,,,,,,,,,,,,,hftvpp,"[""h"",""f"",""t"",""v"",""p"",""p""]",0,"[1.58430000007138,1.9838999999760745,2.4933000000714856,3.8337000000476564,4.623600000023771,5.067499999999882,5.672200000047724]",0,HFTVPJP,5,0,5,0,1,,
,,,,,,,,,,60717e12499498909e4883f1,19,Mężczyzna,2022-05-28_09h29.59.468,task,2021.1.4,Win32,59.86590038,628b806c463b948bc644b84f,6291ccefb1d0fe1734bbd347,,,,,,,,,,,,,,,,,,,,,,,1,,,,,,,,,,Task,1,(12/6) - 1,1,,,,,,,,,,,,,,,,,,,1,,,,,,,,,,,,,,,,,,,,,,,"[""1""]",1,[5.734399999976176],0,0,0,0,1,,,,,,,,,,,,,,,,,,
,,,,,,,,,,60717e12499498909e4883f1,19,Mężczyzna,2022-05-28_09h29.59.468,task,2021.1.4,Win32,59.86590038,628b806c463b948bc644b84f,6291ccefb1d0fe1734bbd347,,,,,,,,,,"X V Q F H G B L J M P D K C T S W R N Z
",,,,,,,,,,,,,,,,,,,,,,,,,,,,,,,,,,,,,,,,,,,,,,,,,,,,,,,,,,,,,,,,,,,,,,,,,,,,0,0,0,0,1,,,,,,,,,,,,,
,,,,,,,,,,60717e12499498909e4883f1,19,Mężczyzna,2022-05-28_09h29.59.468,task,2021.1.4,Win32,59.86590038,628b806c463b948bc644b84f,6291ccefb1d0fe1734bbd347,,,,,,,,,,,,,,,,,,,,,,,,,,,,,,,,,Task,29,(3x8) - 19 ,5,,,,,,,,,,,,,,,,,,,0,,,,,,,,,,,,,,,,,,,,,,,,0,,0,0,0,28,1,,,,,,,,,,,,,,,,,,
,,,,,,,,,,60717e12499498909e4883f1,19,Mężczyzna,2022-05-28_09h29.59.468,task,2021.1.4,Win32,59.86590038,628b806c463b948bc644b84f,6291ccefb1d0fe1734bbd347,,,,,,,,,,,,,,,,,,,,,,,7,,,,,,,,,,Task,6,(12/2) + 1,7,,,,,,,,,,,,,,,,,,,1,,,,,,,,,,,,,,,,,,,,,,,"[""7""]",1,[5.538999999999987],0,1,1,5,1,,,,,,,,,,,,,,,,,,
,,,,,,,,,,60717e12499498909e4883f1,19,Mężczyzna,2022-05-28_09h29.59.468,task,2021.1.4,Win32,59.86590038,628b806c463b948bc644b84f,6291ccefb1d0fe1734bbd347,,,,,,,,,,"X V Q F H G B L J M P D K C T S W R N Z
",,,,,,,,,,,,,,,,,,,,,,,,,,,,,,,,,,,,,,,,,,,,,,,,,,,,,,,,,,,,,,,,,,,,,,,,,,,,1,0,1,0,1,,,,,,,,,,,,,
,,,,,,,,,,60717e12499498909e4883f1,19,Mężczyzna,2022-05-28_09h29.59.468,task,2021.1.4,Win32,59.86590038,628b806c463b948bc644b84f,6291ccefb1d0fe1734bbd347,,,,,,,,,,,,,,,,,,,,,,,2,,,,,,,,,,Task,2,(2x2) - 2,2,,,,,,,,,,,,,,,,,,,1,,,,,,,,,,,,,,,,,,,,,,,"[""2""]",1,[3.9890000000000327],0,0,0,1,1,,,,,,,,,,,,,,,,,,
,,,,,,,,,,60717e12499498909e4883f1,19,Mężczyzna,2022-05-28_09h29.59.468,task,2021.1.4,Win32,59.86590038,628b806c463b948bc644b84f,6291ccefb1d0fe1734bbd347,,,,,,,,,,"X V Q F H G B L J M P D K C T S W R N Z
",,,,,,,,,,,,,,,,,,,,,,,,,,,,,,,,,,,,,,,,,,,,,,,,,,,,,,,,,,,,,,,,,,,,,,,,,,,,2,0,2,0,1,,,,,,,,,,,,,
,,,,,,,,,,60717e12499498909e4883f1,19,Mężczyzna,2022-05-28_09h29.59.468,task,2021.1.4,Win32,59.86590038,628b806c463b948bc644b84f,6291ccefb1d0fe1734bbd347,,,,,,,,,,,,,,,,,,,,,,,2,,,,,,,,,,Task,11,(18/3) - 2,4,,,,,,,,,,,,,,,,,,,0,,,,,,,,,,,,,,,,,,,,,,,"[""2""]",0,[8.323700000047666],0,0,0,10,1,,,,,,,,,,,,,,,,,,
,,,,,,,,,,60717e12499498909e4883f1,19,Mężczyzna,2022-05-28_09h29.59.468,task,2021.1.4,Win32,59.86590038,628b806c463b948bc644b84f,6291ccefb1d0fe1734bbd347,,,,,,,,,,,,,,,,,,,,,,,9,,,,,,,,,,Task,16,(3x8) - 15,9,,,,,,,,,,,,,,,,,,,1,,,,,,,,,,,,,,,,,,,,,,,"[""9""]",1,[6.875700000047573],0,1,1,15,1,,,,,,,,,,,,,,,,,,
,,,,,,,,,,60717e12499498909e4883f1,19,Mężczyzna,2022-05-28_09h29.59.468,task,2021.1.4,Win32,59.86590038,628b806c463b948bc644b84f,6291ccefb1d0fe1734bbd347,,,,,,,,,,"X V Q F H G B L J M P D K C T S W R N Z
",,,,,,,,,,,,,,,,,,,,,,,,,,,,,,,,,,,,,,,,,,,,,,,,,,,,,,,,,,,,,,,,,,,,,,,,,,,,3,0,3,0,1,,,,,,,,,,,,,
,,,,,,,,,,60717e12499498909e4883f1,19,Mężczyzna,2022-05-28_09h29.59.468,task,2021.1.4,Win32,59.86590038,628b806c463b948bc644b84f,6291ccefb1d0fe1734bbd347,,,,,,,,,,,,,,,,,,,,,,,2,,,,,,,,,,Task,10,(2x5) - 8,2,,,,,,,,,,,,,,,,,,,1,,,,,,,,,,,,,,,,,,,,,,,"[""2""]",1,[3.5856999999284653],0,0,0,9,1,,,,,,,,,,,,,,,,,,
,,,,,,,,,,60717e12499498909e4883f1,19,Mężczyzna,2022-05-28_09h29.59.468,task,2021.1.4,Win32,59.86590038,628b806c463b948bc644b84f,6291ccefb1d0fe1734bbd347,,,,,,,,,,"X V Q F H G B L J M P D K C T S W R N Z
",,,,,,,,,,,,,,,,,,,,,,,,,,,,,,,,,,,,,,,,,,,,,,,,,,,,,,,,,,,,,,,,,,,,,,,,,,,,4,0,4,0,1,,,,,,,,,,,,,
,,,,,,,,,,60717e12499498909e4883f1,19,Mężczyzna,2022-05-28_09h29.59.468,task,2021.1.4,Win32,59.86590038,628b806c463b948bc644b84f,6291ccefb1d0fe1734bbd347,,,,,,,,,,,,,,,,,,,,,,,4,,,,,,,,,,Task,21,(10/2) - 1,4,,,,,,,,,,,,,,,,,,,1,,,,,,,,,,,,,,,,,,,,,,,"[""4""]",1,[4.966999999999871],0,0,0,20,1,,,,,,,,,,,,,,,,,,
,,,,,,,,,,60717e12499498909e4883f1,19,Mężczyzna,2022-05-28_09h29.59.468,task,2021.1.4,Win32,59.86590038,628b806c463b948bc644b84f,6291ccefb1d0fe1734bbd347,,,,,,,,,,"X V Q F H G B L J M P D K C T S W R N Z
",,,,,,,,,,,,,,,,,,,,,,,,,,,,,,,,,,,,,,,,,,,,,,,,,,,,,,,,,,,,,,,,,,,,,,,,,,,,5,0,5,0,1,,,,,,,,,,,,,
,,,,,,,,,,60717e12499498909e4883f1,19,Mężczyzna,2022-05-28_09h29.59.468,task,2021.1.4,Win32,59.86590038,628b806c463b948bc644b84f,6291ccefb1d0fe1734bbd347,,,,,,,,,,,,,,,,,,,,,,,2,,,,,,,,,,Task,10,(2x5) - 8,2,,,,,,,,,,,,,,,,,,,1,,,,,,,,,,,,,,,,,,,,,,,"[""2""]",1,[2.655799999952478],0,0,0,9,1,,,,,,,,,,,,,,,,,,
,,,,,,,,,,60717e12499498909e4883f1,19,Mężczyzna,2022-05-28_09h29.59.468,task,2021.1.4,Win32,59.86590038,628b806c463b948bc644b84f,6291ccefb1d0fe1734bbd347,,,,,,,,,,"X V Q F H G B L J M P D K C T S W R N Z
",,,,,,,,,,,,,,,,,,,,,,,,,,,,,,,,,,,,,,,,,,,,,,,,,,,,,,,,,,,,,,,,,,,,,,,,,,,,6,0,6,0,1,,,,,,,,,,,,,
,,,,,,,,,,60717e12499498909e4883f1,19,Mężczyzna,2022-05-28_09h29.59.468,task,2021.1.4,Win32,59.86590038,628b806c463b948bc644b84f,6291ccefb1d0fe1734bbd347,,,,,,,,,,,,,,,,,,,,,,,,,,,,,,,,,,,,,,,,,,,,,,,,,,,,,,,,,,,,,,,,,,,,,,,,,,,,,,,,,,,,,,,,,,,hkklfs,"[""h"",""k"",""k"",""l"",""f"",""s""]",0,"[1.5508999999763091,1.917399999976169,2.33400000000006,3.0066999999285144,4.884199999928569,5.184100000024046,6.401100000023916]",0,LKKLFSX,6,0,6,0,1,,
,,,,,,,,,,60717e12499498909e4883f1,19,Mężczyzna,2022-05-28_09h29.59.468,task,2021.1.4,Win32,59.86590038,628b806c463b948bc644b84f,6291ccefb1d0fe1734bbd347,,,,,,,,,,,,,,,,,,,,,,,,,,,,,,,,,,,,,,,,,,,,,,,,,,,,,,,,,,,,,,,,,,,,,,,,,,,,,,,,,,,,,,,,,,,,,,,,,,,,,,space,1.7533
