key_resp_15.keys,key_resp_15.rt,key_resp_13.keys,key_resp_13.corr,key_resp_13.rt,ranodm_loop.thisRepN,ranodm_loop.thisTrialN,ranodm_loop.thisN,ranodm_loop.thisIndex,ranodm_loop.ran,participant,Wiek*,Płeć,date,expName,psychopyVersion,OS,frameRate,study_id,session,key_resp_16.keys,key_resp_16.rt,key_resp_4.keys,key_resp_4.rt,next_letter.thisRepN,next_letter.thisTrialN,next_letter.thisN,next_letter.thisIndex,next_letter.ran,letter,simple_recall,key_resp_5.keys,key_resp_5.rt,simple_recall_corr,simple_recall_corrkeys,next_level.thisRepN,next_level.thisTrialN,next_level.thisN,next_level.thisIndex,next_level.ran,key_resp_2.keys,key_resp_2.rt,digit_answer,key_resp.keys,key_resp.corr,key_resp.rt,RT_list,next_equation.thisRepN,next_equation.thisTrialN,next_equation.thisN,next_equation.thisIndex,next_equation.ran,Task,Trial,Problem,Operation_answer,processing_score,sumRT,meanRT,sumdiff,sd,RT,key_resp_3.keys,key_resp_3.rt,repeat_practice.thisRepN,repeat_practice.thisTrialN,repeat_practice.thisN,repeat_practice.thisIndex,repeat_practice.ran,key_resp_6.keys,key_resp_6.rt,key_resp_11.keys,key_resp_11.corr,key_resp_11.rt,operation_correct,repeat_if_wrong_prac.thisRepN,repeat_if_wrong_prac.thisTrialN,repeat_if_wrong_prac.thisN,repeat_if_wrong_prac.thisIndex,repeat_if_wrong_prac.ran,span_size_prac.thisRepN,span_size_prac.thisTrialN,span_size_prac.thisN,span_size_prac.thisIndex,span_size_prac.ran,complex_recall_practice,key_resp_9.keys,key_resp_9.corr,key_resp_9.rt,complex_prac_corr,span_recall_prac.thisRepN,span_recall_prac.thisTrialN,span_recall_prac.thisN,span_recall_prac.thisIndex,span_recall_prac.ran,key_resp_10.keys,key_resp_10.rt,key_resp_7.keys,key_resp_7.corr,repeat_if_wrong.thisRepN,repeat_if_wrong.thisTrialN,repeat_if_wrong.thisN,repeat_if_wrong.thisIndex,repeat_if_wrong.ran,key_resp_7.rt,span_size.thisRepN,span_size.thisTrialN,span_size.thisN,span_size.thisIndex,span_size.ran,complex_recall,key_resp_8.keys,key_resp_8.corr,key_resp_8.rt,complex_recall_corr,complex_recall_corrkeys,span_recall.thisRepN,span_recall.thisTrialN,span_recall.thisN,span_recall.thisIndex,span_recall.ran,key_resp_12.keys,key_resp_12.rt
space,4.7031,"[""comma""]",0,[1.9175999999940387],0,0,0,0,1,60726683b225d693c1b6ff86,55,Kobieta,2022-06-04_16h09.16.216,task,2021.1.4,MacIntel,59.97720866,628b806c463b948bc644b84f,629af6fa36416b0872fb45d0,,,,,,,,,,,,,,,,,,,,,,,,,,,,,,,,,,,,,,,,,,,,,,,,,,,,,,,,,,,,,,,,,,,,,,,,,,,,,,,,,,,,,,,,,,,,,,,,,,,,,,,
,,,0,,1,0,1,0,1,60726683b225d693c1b6ff86,55,Kobieta,2022-06-04_16h09.16.216,task,2021.1.4,MacIntel,59.97720866,628b806c463b948bc644b84f,629af6fa36416b0872fb45d0,,,,,,,,,,,,,,,,,,,,,,,,,,,,,,,,,,,,,,,,,,,,,,,,,,,,,,,,,,,,,,,,,,,,,,,,,,,,,,,,,,,,,,,,,,,,,,,,,,,,,,,
,,"[""comma""]",0,[1.538499999999999],2,0,2,0,1,60726683b225d693c1b6ff86,55,Kobieta,2022-06-04_16h09.16.216,task,2021.1.4,MacIntel,59.97720866,628b806c463b948bc644b84f,629af6fa36416b0872fb45d0,,,,,,,,,,,,,,,,,,,,,,,,,,,,,,,,,,,,,,,,,,,,,,,,,,,,,,,,,,,,,,,,,,,,,,,,,,,,,,,,,,,,,,,,,,,,,,,,,,,,,,,
,,"[""comma""]",0,[1.7054000000059517],3,0,3,0,1,60726683b225d693c1b6ff86,55,Kobieta,2022-06-04_16h09.16.216,task,2021.1.4,MacIntel,59.97720866,628b806c463b948bc644b84f,629af6fa36416b0872fb45d0,,,,,,,,,,,,,,,,,,,,,,,,,,,,,,,,,,,,,,,,,,,,,,,,,,,,,,,,,,,,,,,,,,,,,,,,,,,,,,,,,,,,,,,,,,,,,,,,,,,,,,,
,,"[""period""]",0,[1.7589999999999861],4,0,4,0,1,60726683b225d693c1b6ff86,55,Kobieta,2022-06-04_16h09.16.216,task,2021.1.4,MacIntel,59.97720866,628b806c463b948bc644b84f,629af6fa36416b0872fb45d0,,,,,,,,,,,,,,,,,,,,,,,,,,,,,,,,,,,,,,,,,,,,,,,,,,,,,,,,,,,,,,,,,,,,,,,,,,,,,,,,,,,,,,,,,,,,,,,,,,,,,,,
,,"[""comma""]",0,[1.5881999999880776],5,0,5,0,1,60726683b225d693c1b6ff86,55,Kobieta,2022-06-04_16h09.16.216,task,2021.1.4,MacIntel,59.97720866,628b806c463b948bc644b84f,629af6fa36416b0872fb45d0,,,,,,,,,,,,,,,,,,,,,,,,,,,,,,,,,,,,,,,,,,,,,,,,,,,,,,,,,,,,,,,,,,,,,,,,,,,,,,,,,,,,,,,,,,,,,,,,,,,,,,,
,,,0,,6,0,6,0,1,60726683b225d693c1b6ff86,55,Kobieta,2022-06-04_16h09.16.216,task,2021.1.4,MacIntel,59.97720866,628b806c463b948bc644b84f,629af6fa36416b0872fb45d0,,,,,,,,,,,,,,,,,,,,,,,,,,,,,,,,,,,,,,,,,,,,,,,,,,,,,,,,,,,,,,,,,,,,,,,,,,,,,,,,,,,,,,,,,,,,,,,,,,,,,,,
,,"[""period""]",0,[-0.009099999994049313],7,0,7,0,1,60726683b225d693c1b6ff86,55,Kobieta,2022-06-04_16h09.16.216,task,2021.1.4,MacIntel,59.97720866,628b806c463b948bc644b84f,629af6fa36416b0872fb45d0,,,,,,,,,,,,,,,,,,,,,,,,,,,,,,,,,,,,,,,,,,,,,,,,,,,,,,,,,,,,,,,,,,,,,,,,,,,,,,,,,,,,,,,,,,,,,,,,,,,,,,,
,,"[""period""]",0,[0.3001999999880667],8,0,8,0,1,60726683b225d693c1b6ff86,55,Kobieta,2022-06-04_16h09.16.216,task,2021.1.4,MacIntel,59.97720866,628b806c463b948bc644b84f,629af6fa36416b0872fb45d0,,,,,,,,,,,,,,,,,,,,,,,,,,,,,,,,,,,,,,,,,,,,,,,,,,,,,,,,,,,,,,,,,,,,,,,,,,,,,,,,,,,,,,,,,,,,,,,,,,,,,,,
,,"[""period""]",0,[0.5664000000059701],9,0,9,0,1,60726683b225d693c1b6ff86,55,Kobieta,2022-06-04_16h09.16.216,task,2021.1.4,MacIntel,59.97720866,628b806c463b948bc644b84f,629af6fa36416b0872fb45d0,,,,,,,,,,,,,,,,,,,,,,,,,,,,,,,,,,,,,,,,,,,,,,,,,,,,,,,,,,,,,,,,,,,,,,,,,,,,,,,,,,,,,,,,,,,,,,,,,,,,,,,
,,"[""comma""]",0,[1.3107000000178886],10,0,10,0,1,60726683b225d693c1b6ff86,55,Kobieta,2022-06-04_16h09.16.216,task,2021.1.4,MacIntel,59.97720866,628b806c463b948bc644b84f,629af6fa36416b0872fb45d0,,,,,,,,,,,,,,,,,,,,,,,,,,,,,,,,,,,,,,,,,,,,,,,,,,,,,,,,,,,,,,,,,,,,,,,,,,,,,,,,,,,,,,,,,,,,,,,,,,,,,,,
,,"[""period""]",0,[1.2393000000119088],11,0,11,0,1,60726683b225d693c1b6ff86,55,Kobieta,2022-06-04_16h09.16.216,task,2021.1.4,MacIntel,59.97720866,628b806c463b948bc644b84f,629af6fa36416b0872fb45d0,,,,,,,,,,,,,,,,,,,,,,,,,,,,,,,,,,,,,,,,,,,,,,,,,,,,,,,,,,,,,,,,,,,,,,,,,,,,,,,,,,,,,,,,,,,,,,,,,,,,,,,
,,"[""period""]",0,[1.1384000000059586],12,0,12,0,1,60726683b225d693c1b6ff86,55,Kobieta,2022-06-04_16h09.16.216,task,2021.1.4,MacIntel,59.97720866,628b806c463b948bc644b84f,629af6fa36416b0872fb45d0,,,,,,,,,,,,,,,,,,,,,,,,,,,,,,,,,,,,,,,,,,,,,,,,,,,,,,,,,,,,,,,,,,,,,,,,,,,,,,,,,,,,,,,,,,,,,,,,,,,,,,,
,,"[""comma""]",0,[0.8507999999821294],13,0,13,0,1,60726683b225d693c1b6ff86,55,Kobieta,2022-06-04_16h09.16.216,task,2021.1.4,MacIntel,59.97720866,628b806c463b948bc644b84f,629af6fa36416b0872fb45d0,,,,,,,,,,,,,,,,,,,,,,,,,,,,,,,,,,,,,,,,,,,,,,,,,,,,,,,,,,,,,,,,,,,,,,,,,,,,,,,,,,,,,,,,,,,,,,,,,,,,,,,
,,"[""comma""]",0,[1.2107999999821146],14,0,14,0,1,60726683b225d693c1b6ff86,55,Kobieta,2022-06-04_16h09.16.216,task,2021.1.4,MacIntel,59.97720866,628b806c463b948bc644b84f,629af6fa36416b0872fb45d0,,,,,,,,,,,,,,,,,,,,,,,,,,,,,,,,,,,,,,,,,,,,,,,,,,,,,,,,,,,,,,,,,,,,,,,,,,,,,,,,,,,,,,,,,,,,,,,,,,,,,,,
,,"[""period""]",0,[1.0544000000059555],15,0,15,0,1,60726683b225d693c1b6ff86,55,Kobieta,2022-06-04_16h09.16.216,task,2021.1.4,MacIntel,59.97720866,628b806c463b948bc644b84f,629af6fa36416b0872fb45d0,,,,,,,,,,,,,,,,,,,,,,,,,,,,,,,,,,,,,,,,,,,,,,,,,,,,,,,,,,,,,,,,,,,,,,,,,,,,,,,,,,,,,,,,,,,,,,,,,,,,,,,
,,"[""comma""]",0,[0.9966000000238466],16,0,16,0,1,60726683b225d693c1b6ff86,55,Kobieta,2022-06-04_16h09.16.216,task,2021.1.4,MacIntel,59.97720866,628b806c463b948bc644b84f,629af6fa36416b0872fb45d0,,,,,,,,,,,,,,,,,,,,,,,,,,,,,,,,,,,,,,,,,,,,,,,,,,,,,,,,,,,,,,,,,,,,,,,,,,,,,,,,,,,,,,,,,,,,,,,,,,,,,,,
,,"[""comma""]",0,[1.176800000011923],17,0,17,0,1,60726683b225d693c1b6ff86,55,Kobieta,2022-06-04_16h09.16.216,task,2021.1.4,MacIntel,59.97720866,628b806c463b948bc644b84f,629af6fa36416b0872fb45d0,,,,,,,,,,,,,,,,,,,,,,,,,,,,,,,,,,,,,,,,,,,,,,,,,,,,,,,,,,,,,,,,,,,,,,,,,,,,,,,,,,,,,,,,,,,,,,,,,,,,,,,
,,"[""period""]",0,[1.0870000000000033],18,0,18,0,1,60726683b225d693c1b6ff86,55,Kobieta,2022-06-04_16h09.16.216,task,2021.1.4,MacIntel,59.97720866,628b806c463b948bc644b84f,629af6fa36416b0872fb45d0,,,,,,,,,,,,,,,,,,,,,,,,,,,,,,,,,,,,,,,,,,,,,,,,,,,,,,,,,,,,,,,,,,,,,,,,,,,,,,,,,,,,,,,,,,,,,,,,,,,,,,,
,,"[""period""]",0,[1.634099999994035],19,0,19,0,1,60726683b225d693c1b6ff86,55,Kobieta,2022-06-04_16h09.16.216,task,2021.1.4,MacIntel,59.97720866,628b806c463b948bc644b84f,629af6fa36416b0872fb45d0,,,,,,,,,,,,,,,,,,,,,,,,,,,,,,,,,,,,,,,,,,,,,,,,,,,,,,,,,,,,,,,,,,,,,,,,,,,,,,,,,,,,,,,,,,,,,,,,,,,,,,,
,,"[""comma""]",0,[1.1759000000059672],20,0,20,0,1,60726683b225d693c1b6ff86,55,Kobieta,2022-06-04_16h09.16.216,task,2021.1.4,MacIntel,59.97720866,628b806c463b948bc644b84f,629af6fa36416b0872fb45d0,,,,,,,,,,,,,,,,,,,,,,,,,,,,,,,,,,,,,,,,,,,,,,,,,,,,,,,,,,,,,,,,,,,,,,,,,,,,,,,,,,,,,,,,,,,,,,,,,,,,,,,
,,"[""comma""]",0,[1.1526000000238525],21,0,21,0,1,60726683b225d693c1b6ff86,55,Kobieta,2022-06-04_16h09.16.216,task,2021.1.4,MacIntel,59.97720866,628b806c463b948bc644b84f,629af6fa36416b0872fb45d0,,,,,,,,,,,,,,,,,,,,,,,,,,,,,,,,,,,,,,,,,,,,,,,,,,,,,,,,,,,,,,,,,,,,,,,,,,,,,,,,,,,,,,,,,,,,,,,,,,,,,,,
,,"[""period""]",0,[0.6402000000178845],22,0,22,0,1,60726683b225d693c1b6ff86,55,Kobieta,2022-06-04_16h09.16.216,task,2021.1.4,MacIntel,59.97720866,628b806c463b948bc644b84f,629af6fa36416b0872fb45d0,,,,,,,,,,,,,,,,,,,,,,,,,,,,,,,,,,,,,,,,,,,,,,,,,,,,,,,,,,,,,,,,,,,,,,,,,,,,,,,,,,,,,,,,,,,,,,,,,,,,,,,
,,"[""comma""]",0,[0.7408999999761647],23,0,23,0,1,60726683b225d693c1b6ff86,55,Kobieta,2022-06-04_16h09.16.216,task,2021.1.4,MacIntel,59.97720866,628b806c463b948bc644b84f,629af6fa36416b0872fb45d0,,,,,,,,,,,,,,,,,,,,,,,,,,,,,,,,,,,,,,,,,,,,,,,,,,,,,,,,,,,,,,,,,,,,,,,,,,,,,,,,,,,,,,,,,,,,,,,,,,,,,,,
,,"[""period""]",0,[0.4932999999821277],24,0,24,0,1,60726683b225d693c1b6ff86,55,Kobieta,2022-06-04_16h09.16.216,task,2021.1.4,MacIntel,59.97720866,628b806c463b948bc644b84f,629af6fa36416b0872fb45d0,,,,,,,,,,,,,,,,,,,,,,,,,,,,,,,,,,,,,,,,,,,,,,,,,,,,,,,,,,,,,,,,,,,,,,,,,,,,,,,,,,,,,,,,,,,,,,,,,,,,,,,
,,"[""period""]",0,[0.8335000000000008],25,0,25,0,1,60726683b225d693c1b6ff86,55,Kobieta,2022-06-04_16h09.16.216,task,2021.1.4,MacIntel,59.97720866,628b806c463b948bc644b84f,629af6fa36416b0872fb45d0,,,,,,,,,,,,,,,,,,,,,,,,,,,,,,,,,,,,,,,,,,,,,,,,,,,,,,,,,,,,,,,,,,,,,,,,,,,,,,,,,,,,,,,,,,,,,,,,,,,,,,,
,,"[""period""]",0,[0.5527000000178788],26,0,26,0,1,60726683b225d693c1b6ff86,55,Kobieta,2022-06-04_16h09.16.216,task,2021.1.4,MacIntel,59.97720866,628b806c463b948bc644b84f,629af6fa36416b0872fb45d0,,,,,,,,,,,,,,,,,,,,,,,,,,,,,,,,,,,,,,,,,,,,,,,,,,,,,,,,,,,,,,,,,,,,,,,,,,,,,,,,,,,,,,,,,,,,,,,,,,,,,,,
,,"[""comma""]",0,[0.6970999999940375],27,0,27,0,1,60726683b225d693c1b6ff86,55,Kobieta,2022-06-04_16h09.16.216,task,2021.1.4,MacIntel,59.97720866,628b806c463b948bc644b84f,629af6fa36416b0872fb45d0,,,,,,,,,,,,,,,,,,,,,,,,,,,,,,,,,,,,,,,,,,,,,,,,,,,,,,,,,,,,,,,,,,,,,,,,,,,,,,,,,,,,,,,,,,,,,,,,,,,,,,,
,,"[""comma""]",0,[1.0723000000119214],28,0,28,0,1,60726683b225d693c1b6ff86,55,Kobieta,2022-06-04_16h09.16.216,task,2021.1.4,MacIntel,59.97720866,628b806c463b948bc644b84f,629af6fa36416b0872fb45d0,,,,,,,,,,,,,,,,,,,,,,,,,,,,,,,,,,,,,,,,,,,,,,,,,,,,,,,,,,,,,,,,,,,,,,,,,,,,,,,,,,,,,,,,,,,,,,,,,,,,,,,
,,"[""comma""]",0,[0.7315999999940459],29,0,29,0,1,60726683b225d693c1b6ff86,55,Kobieta,2022-06-04_16h09.16.216,task,2021.1.4,MacIntel,59.97720866,628b806c463b948bc644b84f,629af6fa36416b0872fb45d0,,,,,,,,,,,,,,,,,,,,,,,,,,,,,,,,,,,,,,,,,,,,,,,,,,,,,,,,,,,,,,,,,,,,,,,,,,,,,,,,,,,,,,,,,,,,,,,,,,,,,,,
,,"[""period""]",0,[0.7023999999761514],30,0,30,0,1,60726683b225d693c1b6ff86,55,Kobieta,2022-06-04_16h09.16.216,task,2021.1.4,MacIntel,59.97720866,628b806c463b948bc644b84f,629af6fa36416b0872fb45d0,,,,,,,,,,,,,,,,,,,,,,,,,,,,,,,,,,,,,,,,,,,,,,,,,,,,,,,,,,,,,,,,,,,,,,,,,,,,,,,,,,,,,,,,,,,,,,,,,,,,,,,
,,"[""comma""]",0,[0.807200000017886],31,0,31,0,1,60726683b225d693c1b6ff86,55,Kobieta,2022-06-04_16h09.16.216,task,2021.1.4,MacIntel,59.97720866,628b806c463b948bc644b84f,629af6fa36416b0872fb45d0,,,,,,,,,,,,,,,,,,,,,,,,,,,,,,,,,,,,,,,,,,,,,,,,,,,,,,,,,,,,,,,,,,,,,,,,,,,,,,,,,,,,,,,,,,,,,,,,,,,,,,,
,,"[""period""]",0,[0.4837000000178904],32,0,32,0,1,60726683b225d693c1b6ff86,55,Kobieta,2022-06-04_16h09.16.216,task,2021.1.4,MacIntel,59.97720866,628b806c463b948bc644b84f,629af6fa36416b0872fb45d0,,,,,,,,,,,,,,,,,,,,,,,,,,,,,,,,,,,,,,,,,,,,,,,,,,,,,,,,,,,,,,,,,,,,,,,,,,,,,,,,,,,,,,,,,,,,,,,,,,,,,,,
,,"[""comma""]",0,[0.5336000000238528],33,0,33,0,1,60726683b225d693c1b6ff86,55,Kobieta,2022-06-04_16h09.16.216,task,2021.1.4,MacIntel,59.97720866,628b806c463b948bc644b84f,629af6fa36416b0872fb45d0,,,,,,,,,,,,,,,,,,,,,,,,,,,,,,,,,,,,,,,,,,,,,,,,,,,,,,,,,,,,,,,,,,,,,,,,,,,,,,,,,,,,,,,,,,,,,,,,,,,,,,,
,,"[""comma""]",0,[0.6113000000119087],34,0,34,0,1,60726683b225d693c1b6ff86,55,Kobieta,2022-06-04_16h09.16.216,task,2021.1.4,MacIntel,59.97720866,628b806c463b948bc644b84f,629af6fa36416b0872fb45d0,,,,,,,,,,,,,,,,,,,,,,,,,,,,,,,,,,,,,,,,,,,,,,,,,,,,,,,,,,,,,,,,,,,,,,,,,,,,,,,,,,,,,,,,,,,,,,,,,,,,,,,
,,"[""period""]",0,[0.4680999999940525],35,0,35,0,1,60726683b225d693c1b6ff86,55,Kobieta,2022-06-04_16h09.16.216,task,2021.1.4,MacIntel,59.97720866,628b806c463b948bc644b84f,629af6fa36416b0872fb45d0,,,,,,,,,,,,,,,,,,,,,,,,,,,,,,,,,,,,,,,,,,,,,,,,,,,,,,,,,,,,,,,,,,,,,,,,,,,,,,,,,,,,,,,,,,,,,,,,,,,,,,,
,,"[""comma""]",0,[0.5344000000059452],36,0,36,0,1,60726683b225d693c1b6ff86,55,Kobieta,2022-06-04_16h09.16.216,task,2021.1.4,MacIntel,59.97720866,628b806c463b948bc644b84f,629af6fa36416b0872fb45d0,,,,,,,,,,,,,,,,,,,,,,,,,,,,,,,,,,,,,,,,,,,,,,,,,,,,,,,,,,,,,,,,,,,,,,,,,,,,,,,,,,,,,,,,,,,,,,,,,,,,,,,
,,"[""comma""]",0,[0.47540000000594773],37,0,37,0,1,60726683b225d693c1b6ff86,55,Kobieta,2022-06-04_16h09.16.216,task,2021.1.4,MacIntel,59.97720866,628b806c463b948bc644b84f,629af6fa36416b0872fb45d0,,,,,,,,,,,,,,,,,,,,,,,,,,,,,,,,,,,,,,,,,,,,,,,,,,,,,,,,,,,,,,,,,,,,,,,,,,,,,,,,,,,,,,,,,,,,,,,,,,,,,,,
,,"[""period""]",0,[0.3047000000178741],38,0,38,0,1,60726683b225d693c1b6ff86,55,Kobieta,2022-06-04_16h09.16.216,task,2021.1.4,MacIntel,59.97720866,628b806c463b948bc644b84f,629af6fa36416b0872fb45d0,,,,,,,,,,,,,,,,,,,,,,,,,,,,,,,,,,,,,,,,,,,,,,,,,,,,,,,,,,,,,,,,,,,,,,,,,,,,,,,,,,,,,,,,,,,,,,,,,,,,,,,
,,"[""period""]",0,[0.4059999999999775],39,0,39,0,1,60726683b225d693c1b6ff86,55,Kobieta,2022-06-04_16h09.16.216,task,2021.1.4,MacIntel,59.97720866,628b806c463b948bc644b84f,629af6fa36416b0872fb45d0,,,,,,,,,,,,,,,,,,,,,,,,,,,,,,,,,,,,,,,,,,,,,,,,,,,,,,,,,,,,,,,,,,,,,,,,,,,,,,,,,,,,,,,,,,,,,,,,,,,,,,,
,,"[""period""]",0,[0.4421000000238564],40,0,40,0,1,60726683b225d693c1b6ff86,55,Kobieta,2022-06-04_16h09.16.216,task,2021.1.4,MacIntel,59.97720866,628b806c463b948bc644b84f,629af6fa36416b0872fb45d0,,,,,,,,,,,,,,,,,,,,,,,,,,,,,,,,,,,,,,,,,,,,,,,,,,,,,,,,,,,,,,,,,,,,,,,,,,,,,,,,,,,,,,,,,,,,,,,,,,,,,,,
,,"[""comma""]",0,[1.241500000000002],41,0,41,0,1,60726683b225d693c1b6ff86,55,Kobieta,2022-06-04_16h09.16.216,task,2021.1.4,MacIntel,59.97720866,628b806c463b948bc644b84f,629af6fa36416b0872fb45d0,,,,,,,,,,,,,,,,,,,,,,,,,,,,,,,,,,,,,,,,,,,,,,,,,,,,,,,,,,,,,,,,,,,,,,,,,,,,,,,,,,,,,,,,,,,,,,,,,,,,,,,
,,"[""period""]",0,[0.6164000000059389],42,0,42,0,1,60726683b225d693c1b6ff86,55,Kobieta,2022-06-04_16h09.16.216,task,2021.1.4,MacIntel,59.97720866,628b806c463b948bc644b84f,629af6fa36416b0872fb45d0,,,,,,,,,,,,,,,,,,,,,,,,,,,,,,,,,,,,,,,,,,,,,,,,,,,,,,,,,,,,,,,,,,,,,,,,,,,,,,,,,,,,,,,,,,,,,,,,,,,,,,,
,,"[""comma""]",0,[0.5394000000059691],43,0,43,0,1,60726683b225d693c1b6ff86,55,Kobieta,2022-06-04_16h09.16.216,task,2021.1.4,MacIntel,59.97720866,628b806c463b948bc644b84f,629af6fa36416b0872fb45d0,,,,,,,,,,,,,,,,,,,,,,,,,,,,,,,,,,,,,,,,,,,,,,,,,,,,,,,,,,,,,,,,,,,,,,,,,,,,,,,,,,,,,,,,,,,,,,,,,,,,,,,
,,"[""period""]",0,[0.3439000000059593],44,0,44,0,1,60726683b225d693c1b6ff86,55,Kobieta,2022-06-04_16h09.16.216,task,2021.1.4,MacIntel,59.97720866,628b806c463b948bc644b84f,629af6fa36416b0872fb45d0,,,,,,,,,,,,,,,,,,,,,,,,,,,,,,,,,,,,,,,,,,,,,,,,,,,,,,,,,,,,,,,,,,,,,,,,,,,,,,,,,,,,,,,,,,,,,,,,,,,,,,,
,,"[""comma""]",0,[0.6042999999821177],45,0,45,0,1,60726683b225d693c1b6ff86,55,Kobieta,2022-06-04_16h09.16.216,task,2021.1.4,MacIntel,59.97720866,628b806c463b948bc644b84f,629af6fa36416b0872fb45d0,,,,,,,,,,,,,,,,,,,,,,,,,,,,,,,,,,,,,,,,,,,,,,,,,,,,,,,,,,,,,,,,,,,,,,,,,,,,,,,,,,,,,,,,,,,,,,,,,,,,,,,
,,"[""period""]",0,[0.40619999998807543],46,0,46,0,1,60726683b225d693c1b6ff86,55,Kobieta,2022-06-04_16h09.16.216,task,2021.1.4,MacIntel,59.97720866,628b806c463b948bc644b84f,629af6fa36416b0872fb45d0,,,,,,,,,,,,,,,,,,,,,,,,,,,,,,,,,,,,,,,,,,,,,,,,,,,,,,,,,,,,,,,,,,,,,,,,,,,,,,,,,,,,,,,,,,,,,,,,,,,,,,,
,,"[""comma""]",0,[0.488200000017855],47,0,47,0,1,60726683b225d693c1b6ff86,55,Kobieta,2022-06-04_16h09.16.216,task,2021.1.4,MacIntel,59.97720866,628b806c463b948bc644b84f,629af6fa36416b0872fb45d0,,,,,,,,,,,,,,,,,,,,,,,,,,,,,,,,,,,,,,,,,,,,,,,,,,,,,,,,,,,,,,,,,,,,,,,,,,,,,,,,,,,,,,,,,,,,,,,,,,,,,,,
,,"[""period""]",0,[0.6175000000000068],48,0,48,0,1,60726683b225d693c1b6ff86,55,Kobieta,2022-06-04_16h09.16.216,task,2021.1.4,MacIntel,59.97720866,628b806c463b948bc644b84f,629af6fa36416b0872fb45d0,,,,,,,,,,,,,,,,,,,,,,,,,,,,,,,,,,,,,,,,,,,,,,,,,,,,,,,,,,,,,,,,,,,,,,,,,,,,,,,,,,,,,,,,,,,,,,,,,,,,,,,
,,"[""period""]",0,[0.4608000000119148],49,0,49,0,1,60726683b225d693c1b6ff86,55,Kobieta,2022-06-04_16h09.16.216,task,2021.1.4,MacIntel,59.97720866,628b806c463b948bc644b84f,629af6fa36416b0872fb45d0,,,,,,,,,,,,,,,,,,,,,,,,,,,,,,,,,,,,,,,,,,,,,,,,,,,,,,,,,,,,,,,,,,,,,,,,,,,,,,,,,,,,,,,,,,,,,,,,,,,,,,,
,,"[""period""]",0,[0.5875000000000057],50,0,50,0,1,60726683b225d693c1b6ff86,55,Kobieta,2022-06-04_16h09.16.216,task,2021.1.4,MacIntel,59.97720866,628b806c463b948bc644b84f,629af6fa36416b0872fb45d0,,,,,,,,,,,,,,,,,,,,,,,,,,,,,,,,,,,,,,,,,,,,,,,,,,,,,,,,,,,,,,,,,,,,,,,,,,,,,,,,,,,,,,,,,,,,,,,,,,,,,,,
,,"[""comma""]",0,[0.448199999988077],51,0,51,0,1,60726683b225d693c1b6ff86,55,Kobieta,2022-06-04_16h09.16.216,task,2021.1.4,MacIntel,59.97720866,628b806c463b948bc644b84f,629af6fa36416b0872fb45d0,,,,,,,,,,,,,,,,,,,,,,,,,,,,,,,,,,,,,,,,,,,,,,,,,,,,,,,,,,,,,,,,,,,,,,,,,,,,,,,,,,,,,,,,,,,,,,,,,,,,,,,
,,"[""comma""]",0,[0.5068000000119071],52,0,52,0,1,60726683b225d693c1b6ff86,55,Kobieta,2022-06-04_16h09.16.216,task,2021.1.4,MacIntel,59.97720866,628b806c463b948bc644b84f,629af6fa36416b0872fb45d0,,,,,,,,,,,,,,,,,,,,,,,,,,,,,,,,,,,,,,,,,,,,,,,,,,,,,,,,,,,,,,,,,,,,,,,,,,,,,,,,,,,,,,,,,,,,,,,,,,,,,,,
,,"[""period""]",0,[1.044799999982132],53,0,53,0,1,60726683b225d693c1b6ff86,55,Kobieta,2022-06-04_16h09.16.216,task,2021.1.4,MacIntel,59.97720866,628b806c463b948bc644b84f,629af6fa36416b0872fb45d0,,,,,,,,,,,,,,,,,,,,,,,,,,,,,,,,,,,,,,,,,,,,,,,,,,,,,,,,,,,,,,,,,,,,,,,,,,,,,,,,,,,,,,,,,,,,,,,,,,,,,,,
,,,0,,54,0,54,0,1,60726683b225d693c1b6ff86,55,Kobieta,2022-06-04_16h09.16.216,task,2021.1.4,MacIntel,59.97720866,628b806c463b948bc644b84f,629af6fa36416b0872fb45d0,,,,,,,,,,,,,,,,,,,,,,,,,,,,,,,,,,,,,,,,,,,,,,,,,,,,,,,,,,,,,,,,,,,,,,,,,,,,,,,,,,,,,,,,,,,,,,,,,,,,,,,
,,"[""comma""]",0,[0.3637999999821204],55,0,55,0,1,60726683b225d693c1b6ff86,55,Kobieta,2022-06-04_16h09.16.216,task,2021.1.4,MacIntel,59.97720866,628b806c463b948bc644b84f,629af6fa36416b0872fb45d0,,,,,,,,,,,,,,,,,,,,,,,,,,,,,,,,,,,,,,,,,,,,,,,,,,,,,,,,,,,,,,,,,,,,,,,,,,,,,,,,,,,,,,,,,,,,,,,,,,,,,,,
,,"[""period""]",0,[0.48980000001191115],56,0,56,0,1,60726683b225d693c1b6ff86,55,Kobieta,2022-06-04_16h09.16.216,task,2021.1.4,MacIntel,59.97720866,628b806c463b948bc644b84f,629af6fa36416b0872fb45d0,,,,,,,,,,,,,,,,,,,,,,,,,,,,,,,,,,,,,,,,,,,,,,,,,,,,,,,,,,,,,,,,,,,,,,,,,,,,,,,,,,,,,,,,,,,,,,,,,,,,,,,
,,"[""period""]",0,[0.48190000000596456],57,0,57,0,1,60726683b225d693c1b6ff86,55,Kobieta,2022-06-04_16h09.16.216,task,2021.1.4,MacIntel,59.97720866,628b806c463b948bc644b84f,629af6fa36416b0872fb45d0,,,,,,,,,,,,,,,,,,,,,,,,,,,,,,,,,,,,,,,,,,,,,,,,,,,,,,,,,,,,,,,,,,,,,,,,,,,,,,,,,,,,,,,,,,,,,,,,,,,,,,,
,,"[""comma""]",0,[0.4885999999940509],58,0,58,0,1,60726683b225d693c1b6ff86,55,Kobieta,2022-06-04_16h09.16.216,task,2021.1.4,MacIntel,59.97720866,628b806c463b948bc644b84f,629af6fa36416b0872fb45d0,,,,,,,,,,,,,,,,,,,,,,,,,,,,,,,,,,,,,,,,,,,,,,,,,,,,,,,,,,,,,,,,,,,,,,,,,,,,,,,,,,,,,,,,,,,,,,,,,,,,,,,
,,"[""comma""]",0,[0.4561999999880868],59,0,59,0,1,60726683b225d693c1b6ff86,55,Kobieta,2022-06-04_16h09.16.216,task,2021.1.4,MacIntel,59.97720866,628b806c463b948bc644b84f,629af6fa36416b0872fb45d0,,,,,,,,,,,,,,,,,,,,,,,,,,,,,,,,,,,,,,,,,,,,,,,,,,,,,,,,,,,,,,,,,,,,,,,,,,,,,,,,,,,,,,,,,,,,,,,,,,,,,,,
,,"[""comma""]",0,[0.6315999999940232],60,0,60,0,1,60726683b225d693c1b6ff86,55,Kobieta,2022-06-04_16h09.16.216,task,2021.1.4,MacIntel,59.97720866,628b806c463b948bc644b84f,629af6fa36416b0872fb45d0,,,,,,,,,,,,,,,,,,,,,,,,,,,,,,,,,,,,,,,,,,,,,,,,,,,,,,,,,,,,,,,,,,,,,,,,,,,,,,,,,,,,,,,,,,,,,,,,,,,,,,,
,,"[""period""]",0,[0.6233000000119375],61,0,61,0,1,60726683b225d693c1b6ff86,55,Kobieta,2022-06-04_16h09.16.216,task,2021.1.4,MacIntel,59.97720866,628b806c463b948bc644b84f,629af6fa36416b0872fb45d0,,,,,,,,,,,,,,,,,,,,,,,,,,,,,,,,,,,,,,,,,,,,,,,,,,,,,,,,,,,,,,,,,,,,,,,,,,,,,,,,,,,,,,,,,,,,,,,,,,,,,,,
,,"[""comma""]",0,[0.42200000000002547],62,0,62,0,1,60726683b225d693c1b6ff86,55,Kobieta,2022-06-04_16h09.16.216,task,2021.1.4,MacIntel,59.97720866,628b806c463b948bc644b84f,629af6fa36416b0872fb45d0,,,,,,,,,,,,,,,,,,,,,,,,,,,,,,,,,,,,,,,,,,,,,,,,,,,,,,,,,,,,,,,,,,,,,,,,,,,,,,,,,,,,,,,,,,,,,,,,,,,,,,,
,,"[""period""]",0,[1.2463000000118996],63,0,63,0,1,60726683b225d693c1b6ff86,55,Kobieta,2022-06-04_16h09.16.216,task,2021.1.4,MacIntel,59.97720866,628b806c463b948bc644b84f,629af6fa36416b0872fb45d0,,,,,,,,,,,,,,,,,,,,,,,,,,,,,,,,,,,,,,,,,,,,,,,,,,,,,,,,,,,,,,,,,,,,,,,,,,,,,,,,,,,,,,,,,,,,,,,,,,,,,,,
,,"[""comma""]",0,[0.6623000000119248],64,0,64,0,1,60726683b225d693c1b6ff86,55,Kobieta,2022-06-04_16h09.16.216,task,2021.1.4,MacIntel,59.97720866,628b806c463b948bc644b84f,629af6fa36416b0872fb45d0,,,,,,,,,,,,,,,,,,,,,,,,,,,,,,,,,,,,,,,,,,,,,,,,,,,,,,,,,,,,,,,,,,,,,,,,,,,,,,,,,,,,,,,,,,,,,,,,,,,,,,,
,,"[""period""]",0,[0.6196999999880859],65,0,65,0,1,60726683b225d693c1b6ff86,55,Kobieta,2022-06-04_16h09.16.216,task,2021.1.4,MacIntel,59.97720866,628b806c463b948bc644b84f,629af6fa36416b0872fb45d0,,,,,,,,,,,,,,,,,,,,,,,,,,,,,,,,,,,,,,,,,,,,,,,,,,,,,,,,,,,,,,,,,,,,,,,,,,,,,,,,,,,,,,,,,,,,,,,,,,,,,,,
,,"[""comma""]",0,[0.4118000000119082],66,0,66,0,1,60726683b225d693c1b6ff86,55,Kobieta,2022-06-04_16h09.16.216,task,2021.1.4,MacIntel,59.97720866,628b806c463b948bc644b84f,629af6fa36416b0872fb45d0,,,,,,,,,,,,,,,,,,,,,,,,,,,,,,,,,,,,,,,,,,,,,,,,,,,,,,,,,,,,,,,,,,,,,,,,,,,,,,,,,,,,,,,,,,,,,,,,,,,,,,,
,,"[""comma""]",0,[0.40129999998211474],67,0,67,0,1,60726683b225d693c1b6ff86,55,Kobieta,2022-06-04_16h09.16.216,task,2021.1.4,MacIntel,59.97720866,628b806c463b948bc644b84f,629af6fa36416b0872fb45d0,,,,,,,,,,,,,,,,,,,,,,,,,,,,,,,,,,,,,,,,,,,,,,,,,,,,,,,,,,,,,,,,,,,,,,,,,,,,,,,,,,,,,,,,,,,,,,,,,,,,,,,
,,"[""period""]",0,[0.43579999998212315],68,0,68,0,1,60726683b225d693c1b6ff86,55,Kobieta,2022-06-04_16h09.16.216,task,2021.1.4,MacIntel,59.97720866,628b806c463b948bc644b84f,629af6fa36416b0872fb45d0,,,,,,,,,,,,,,,,,,,,,,,,,,,,,,,,,,,,,,,,,,,,,,,,,,,,,,,,,,,,,,,,,,,,,,,,,,,,,,,,,,,,,,,,,,,,,,,,,,,,,,,
,,"[""comma""]",0,[0.32659999999401634],69,0,69,0,1,60726683b225d693c1b6ff86,55,Kobieta,2022-06-04_16h09.16.216,task,2021.1.4,MacIntel,59.97720866,628b806c463b948bc644b84f,629af6fa36416b0872fb45d0,,,,,,,,,,,,,,,,,,,,,,,,,,,,,,,,,,,,,,,,,,,,,,,,,,,,,,,,,,,,,,,,,,,,,,,,,,,,,,,,,,,,,,,,,,,,,,,,,,,,,,,
,,"[""period""]",0,[0.3062999999821159],70,0,70,0,1,60726683b225d693c1b6ff86,55,Kobieta,2022-06-04_16h09.16.216,task,2021.1.4,MacIntel,59.97720866,628b806c463b948bc644b84f,629af6fa36416b0872fb45d0,,,,,,,,,,,,,,,,,,,,,,,,,,,,,,,,,,,,,,,,,,,,,,,,,,,,,,,,,,,,,,,,,,,,,,,,,,,,,,,,,,,,,,,,,,,,,,,,,,,,,,,
,,"[""period""]",0,[0.5021999999880791],71,0,71,0,1,60726683b225d693c1b6ff86,55,Kobieta,2022-06-04_16h09.16.216,task,2021.1.4,MacIntel,59.97720866,628b806c463b948bc644b84f,629af6fa36416b0872fb45d0,,,,,,,,,,,,,,,,,,,,,,,,,,,,,,,,,,,,,,,,,,,,,,,,,,,,,,,,,,,,,,,,,,,,,,,,,,,,,,,,,,,,,,,,,,,,,,,,,,,,,,,
,,"[""period""]",0,[0.5705000000000098],72,0,72,0,1,60726683b225d693c1b6ff86,55,Kobieta,2022-06-04_16h09.16.216,task,2021.1.4,MacIntel,59.97720866,628b806c463b948bc644b84f,629af6fa36416b0872fb45d0,,,,,,,,,,,,,,,,,,,,,,,,,,,,,,,,,,,,,,,,,,,,,,,,,,,,,,,,,,,,,,,,,,,,,,,,,,,,,,,,,,,,,,,,,,,,,,,,,,,,,,,
,,"[""comma""]",0,[0.4827000000178998],73,0,73,0,1,60726683b225d693c1b6ff86,55,Kobieta,2022-06-04_16h09.16.216,task,2021.1.4,MacIntel,59.97720866,628b806c463b948bc644b84f,629af6fa36416b0872fb45d0,,,,,,,,,,,,,,,,,,,,,,,,,,,,,,,,,,,,,,,,,,,,,,,,,,,,,,,,,,,,,,,,,,,,,,,,,,,,,,,,,,,,,,,,,,,,,,,,,,,,,,,
,,"[""period""]",0,[0.33369999998808453],74,0,74,0,1,60726683b225d693c1b6ff86,55,Kobieta,2022-06-04_16h09.16.216,task,2021.1.4,MacIntel,59.97720866,628b806c463b948bc644b84f,629af6fa36416b0872fb45d0,,,,,,,,,,,,,,,,,,,,,,,,,,,,,,,,,,,,,,,,,,,,,,,,,,,,,,,,,,,,,,,,,,,,,,,,,,,,,,,,,,,,,,,,,,,,,,,,,,,,,,,
,,"[""period""]",0,[0.35809999999403885],75,0,75,0,1,60726683b225d693c1b6ff86,55,Kobieta,2022-06-04_16h09.16.216,task,2021.1.4,MacIntel,59.97720866,628b806c463b948bc644b84f,629af6fa36416b0872fb45d0,,,,,,,,,,,,,,,,,,,,,,,,,,,,,,,,,,,,,,,,,,,,,,,,,,,,,,,,,,,,,,,,,,,,,,,,,,,,,,,,,,,,,,,,,,,,,,,,,,,,,,,
,,"[""period""]",0,[0.36609999999404863],76,0,76,0,1,60726683b225d693c1b6ff86,55,Kobieta,2022-06-04_16h09.16.216,task,2021.1.4,MacIntel,59.97720866,628b806c463b948bc644b84f,629af6fa36416b0872fb45d0,,,,,,,,,,,,,,,,,,,,,,,,,,,,,,,,,,,,,,,,,,,,,,,,,,,,,,,,,,,,,,,,,,,,,,,,,,,,,,,,,,,,,,,,,,,,,,,,,,,,,,,
,,"[""comma""]",0,[0.7133000000119125],77,0,77,0,1,60726683b225d693c1b6ff86,55,Kobieta,2022-06-04_16h09.16.216,task,2021.1.4,MacIntel,59.97720866,628b806c463b948bc644b84f,629af6fa36416b0872fb45d0,,,,,,,,,,,,,,,,,,,,,,,,,,,,,,,,,,,,,,,,,,,,,,,,,,,,,,,,,,,,,,,,,,,,,,,,,,,,,,,,,,,,,,,,,,,,,,,,,,,,,,,
,,"[""period""]",0,[0.26539999997618224],78,0,78,0,1,60726683b225d693c1b6ff86,55,Kobieta,2022-06-04_16h09.16.216,task,2021.1.4,MacIntel,59.97720866,628b806c463b948bc644b84f,629af6fa36416b0872fb45d0,,,,,,,,,,,,,,,,,,,,,,,,,,,,,,,,,,,,,,,,,,,,,,,,,,,,,,,,,,,,,,,,,,,,,,,,,,,,,,,,,,,,,,,,,,,,,,,,,,,,,,,
,,"[""comma""]",0,[0.33980000001190547],79,0,79,0,1,60726683b225d693c1b6ff86,55,Kobieta,2022-06-04_16h09.16.216,task,2021.1.4,MacIntel,59.97720866,628b806c463b948bc644b84f,629af6fa36416b0872fb45d0,,,,,,,,,,,,,,,,,,,,,,,,,,,,,,,,,,,,,,,,,,,,,,,,,,,,,,,,,,,,,,,,,,,,,,,,,,,,,,,,,,,,,,,,,,,,,,,,,,,,,,,
,,"[""period""]",0,[0.2689000000059423],80,0,80,0,1,60726683b225d693c1b6ff86,55,Kobieta,2022-06-04_16h09.16.216,task,2021.1.4,MacIntel,59.97720866,628b806c463b948bc644b84f,629af6fa36416b0872fb45d0,,,,,,,,,,,,,,,,,,,,,,,,,,,,,,,,,,,,,,,,,,,,,,,,,,,,,,,,,,,,,,,,,,,,,,,,,,,,,,,,,,,,,,,,,,,,,,,,,,,,,,,
,,"[""comma""]",0,[0.35090000000596433],81,0,81,0,1,60726683b225d693c1b6ff86,55,Kobieta,2022-06-04_16h09.16.216,task,2021.1.4,MacIntel,59.97720866,628b806c463b948bc644b84f,629af6fa36416b0872fb45d0,,,,,,,,,,,,,,,,,,,,,,,,,,,,,,,,,,,,,,,,,,,,,,,,,,,,,,,,,,,,,,,,,,,,,,,,,,,,,,,,,,,,,,,,,,,,,,,,,,,,,,,
,,"[""comma""]",0,[0.441199999988072],82,0,82,0,1,60726683b225d693c1b6ff86,55,Kobieta,2022-06-04_16h09.16.216,task,2021.1.4,MacIntel,59.97720866,628b806c463b948bc644b84f,629af6fa36416b0872fb45d0,,,,,,,,,,,,,,,,,,,,,,,,,,,,,,,,,,,,,,,,,,,,,,,,,,,,,,,,,,,,,,,,,,,,,,,,,,,,,,,,,,,,,,,,,,,,,,,,,,,,,,,
,,"[""period""]",0,[0.5916999999880659],83,0,83,0,1,60726683b225d693c1b6ff86,55,Kobieta,2022-06-04_16h09.16.216,task,2021.1.4,MacIntel,59.97720866,628b806c463b948bc644b84f,629af6fa36416b0872fb45d0,,,,,,,,,,,,,,,,,,,,,,,,,,,,,,,,,,,,,,,,,,,,,,,,,,,,,,,,,,,,,,,,,,,,,,,,,,,,,,,,,,,,,,,,,,,,,,,,,,,,,,,
,,"[""comma""]",0,[0.5416999999880829],84,0,84,0,1,60726683b225d693c1b6ff86,55,Kobieta,2022-06-04_16h09.16.216,task,2021.1.4,MacIntel,59.97720866,628b806c463b948bc644b84f,629af6fa36416b0872fb45d0,,,,,,,,,,,,,,,,,,,,,,,,,,,,,,,,,,,,,,,,,,,,,,,,,,,,,,,,,,,,,,,,,,,,,,,,,,,,,,,,,,,,,,,,,,,,,,,,,,,,,,,
,,"[""comma""]",0,[0.47970000001785706],85,0,85,0,1,60726683b225d693c1b6ff86,55,Kobieta,2022-06-04_16h09.16.216,task,2021.1.4,MacIntel,59.97720866,628b806c463b948bc644b84f,629af6fa36416b0872fb45d0,,,,,,,,,,,,,,,,,,,,,,,,,,,,,,,,,,,,,,,,,,,,,,,,,,,,,,,,,,,,,,,,,,,,,,,,,,,,,,,,,,,,,,,,,,,,,,,,,,,,,,,
,,"[""period""]",0,[0.30469999998808817],86,0,86,0,1,60726683b225d693c1b6ff86,55,Kobieta,2022-06-04_16h09.16.216,task,2021.1.4,MacIntel,59.97720866,628b806c463b948bc644b84f,629af6fa36416b0872fb45d0,,,,,,,,,,,,,,,,,,,,,,,,,,,,,,,,,,,,,,,,,,,,,,,,,,,,,,,,,,,,,,,,,,,,,,,,,,,,,,,,,,,,,,,,,,,,,,,,,,,,,,,
,,"[""period""]",0,[0.2992000000178905],87,0,87,0,1,60726683b225d693c1b6ff86,55,Kobieta,2022-06-04_16h09.16.216,task,2021.1.4,MacIntel,59.97720866,628b806c463b948bc644b84f,629af6fa36416b0872fb45d0,,,,,,,,,,,,,,,,,,,,,,,,,,,,,,,,,,,,,,,,,,,,,,,,,,,,,,,,,,,,,,,,,,,,,,,,,,,,,,,,,,,,,,,,,,,,,,,,,,,,,,,
,,"[""comma""]",0,[0.24500000000000455],88,0,88,0,1,60726683b225d693c1b6ff86,55,Kobieta,2022-06-04_16h09.16.216,task,2021.1.4,MacIntel,59.97720866,628b806c463b948bc644b84f,629af6fa36416b0872fb45d0,,,,,,,,,,,,,,,,,,,,,,,,,,,,,,,,,,,,,,,,,,,,,,,,,,,,,,,,,,,,,,,,,,,,,,,,,,,,,,,,,,,,,,,,,,,,,,,,,,,,,,,
,,"[""period""]",0,[0.28469999998807793],89,0,89,0,1,60726683b225d693c1b6ff86,55,Kobieta,2022-06-04_16h09.16.216,task,2021.1.4,MacIntel,59.97720866,628b806c463b948bc644b84f,629af6fa36416b0872fb45d0,,,,,,,,,,,,,,,,,,,,,,,,,,,,,,,,,,,,,,,,,,,,,,,,,,,,,,,,,,,,,,,,,,,,,,,,,,,,,,,,,,,,,,,,,,,,,,,,,,,,,,,
,,"[""comma""]",0,[0.37979999998214],90,0,90,0,1,60726683b225d693c1b6ff86,55,Kobieta,2022-06-04_16h09.16.216,task,2021.1.4,MacIntel,59.97720866,628b806c463b948bc644b84f,629af6fa36416b0872fb45d0,,,,,,,,,,,,,,,,,,,,,,,,,,,,,,,,,,,,,,,,,,,,,,,,,,,,,,,,,,,,,,,,,,,,,,,,,,,,,,,,,,,,,,,,,,,,,,,,,,,,,,,
,,"[""comma""]",0,[0.41680000001190365],91,0,91,0,1,60726683b225d693c1b6ff86,55,Kobieta,2022-06-04_16h09.16.216,task,2021.1.4,MacIntel,59.97720866,628b806c463b948bc644b84f,629af6fa36416b0872fb45d0,,,,,,,,,,,,,,,,,,,,,,,,,,,,,,,,,,,,,,,,,,,,,,,,,,,,,,,,,,,,,,,,,,,,,,,,,,,,,,,,,,,,,,,,,,,,,,,,,,,,,,,
,,"[""comma""]",0,[0.3943000000119241],92,0,92,0,1,60726683b225d693c1b6ff86,55,Kobieta,2022-06-04_16h09.16.216,task,2021.1.4,MacIntel,59.97720866,628b806c463b948bc644b84f,629af6fa36416b0872fb45d0,,,,,,,,,,,,,,,,,,,,,,,,,,,,,,,,,,,,,,,,,,,,,,,,,,,,,,,,,,,,,,,,,,,,,,,,,,,,,,,,,,,,,,,,,,,,,,,,,,,,,,,
,,"[""period""]",0,[0.33500000000000796],93,0,93,0,1,60726683b225d693c1b6ff86,55,Kobieta,2022-06-04_16h09.16.216,task,2021.1.4,MacIntel,59.97720866,628b806c463b948bc644b84f,629af6fa36416b0872fb45d0,,,,,,,,,,,,,,,,,,,,,,,,,,,,,,,,,,,,,,,,,,,,,,,,,,,,,,,,,,,,,,,,,,,,,,,,,,,,,,,,,,,,,,,,,,,,,,,,,,,,,,,
,,"[""period""]",0,[0.3481999999880827],94,0,94,0,1,60726683b225d693c1b6ff86,55,Kobieta,2022-06-04_16h09.16.216,task,2021.1.4,MacIntel,59.97720866,628b806c463b948bc644b84f,629af6fa36416b0872fb45d0,,,,,,,,,,,,,,,,,,,,,,,,,,,,,,,,,,,,,,,,,,,,,,,,,,,,,,,,,,,,,,,,,,,,,,,,,,,,,,,,,,,,,,,,,,,,,,,,,,,,,,,
,,"[""period""]",0,[0.4699000000059641],95,0,95,0,1,60726683b225d693c1b6ff86,55,Kobieta,2022-06-04_16h09.16.216,task,2021.1.4,MacIntel,59.97720866,628b806c463b948bc644b84f,629af6fa36416b0872fb45d0,,,,,,,,,,,,,,,,,,,,,,,,,,,,,,,,,,,,,,,,,,,,,,,,,,,,,,,,,,,,,,,,,,,,,,,,,,,,,,,,,,,,,,,,,,,,,,,,,,,,,,,
,,"[""period""]",0,[0.4872999999821275],96,0,96,0,1,60726683b225d693c1b6ff86,55,Kobieta,2022-06-04_16h09.16.216,task,2021.1.4,MacIntel,59.97720866,628b806c463b948bc644b84f,629af6fa36416b0872fb45d0,,,,,,,,,,,,,,,,,,,,,,,,,,,,,,,,,,,,,,,,,,,,,,,,,,,,,,,,,,,,,,,,,,,,,,,,,,,,,,,,,,,,,,,,,,,,,,,,,,,,,,,
,,"[""comma""]",0,[0.055200000017890716],97,0,97,0,1,60726683b225d693c1b6ff86,55,Kobieta,2022-06-04_16h09.16.216,task,2021.1.4,MacIntel,59.97720866,628b806c463b948bc644b84f,629af6fa36416b0872fb45d0,,,,,,,,,,,,,,,,,,,,,,,,,,,,,,,,,,,,,,,,,,,,,,,,,,,,,,,,,,,,,,,,,,,,,,,,,,,,,,,,,,,,,,,,,,,,,,,,,,,,,,,
,,"[""period""]",0,[0.3608000000119205],98,0,98,0,1,60726683b225d693c1b6ff86,55,Kobieta,2022-06-04_16h09.16.216,task,2021.1.4,MacIntel,59.97720866,628b806c463b948bc644b84f,629af6fa36416b0872fb45d0,,,,,,,,,,,,,,,,,,,,,,,,,,,,,,,,,,,,,,,,,,,,,,,,,,,,,,,,,,,,,,,,,,,,,,,,,,,,,,,,,,,,,,,,,,,,,,,,,,,,,,,
,,"[""period""]",0,[0.6568999999761331],99,0,99,0,1,60726683b225d693c1b6ff86,55,Kobieta,2022-06-04_16h09.16.216,task,2021.1.4,MacIntel,59.97720866,628b806c463b948bc644b84f,629af6fa36416b0872fb45d0,,,,,,,,,,,,,,,,,,,,,,,,,,,,,,,,,,,,,,,,,,,,,,,,,,,,,,,,,,,,,,,,,,,,,,,,,,,,,,,,,,,,,,,,,,,,,,,,,,,,,,,
,,"[""comma""]",0,[0.63069999998811],100,0,100,0,1,60726683b225d693c1b6ff86,55,Kobieta,2022-06-04_16h09.16.216,task,2021.1.4,MacIntel,59.97720866,628b806c463b948bc644b84f,629af6fa36416b0872fb45d0,,,,,,,,,,,,,,,,,,,,,,,,,,,,,,,,,,,,,,,,,,,,,,,,,,,,,,,,,,,,,,,,,,,,,,,,,,,,,,,,,,,,,,,,,,,,,,,,,,,,,,,
,,"[""comma""]",0,[0.9334999999999809],101,0,101,0,1,60726683b225d693c1b6ff86,55,Kobieta,2022-06-04_16h09.16.216,task,2021.1.4,MacIntel,59.97720866,628b806c463b948bc644b84f,629af6fa36416b0872fb45d0,,,,,,,,,,,,,,,,,,,,,,,,,,,,,,,,,,,,,,,,,,,,,,,,,,,,,,,,,,,,,,,,,,,,,,,,,,,,,,,,,,,,,,,,,,,,,,,,,,,,,,,
,,"[""period""]",0,[0.25619999998809817],102,0,102,0,1,60726683b225d693c1b6ff86,55,Kobieta,2022-06-04_16h09.16.216,task,2021.1.4,MacIntel,59.97720866,628b806c463b948bc644b84f,629af6fa36416b0872fb45d0,,,,,,,,,,,,,,,,,,,,,,,,,,,,,,,,,,,,,,,,,,,,,,,,,,,,,,,,,,,,,,,,,,,,,,,,,,,,,,,,,,,,,,,,,,,,,,,,,,,,,,,
,,"[""comma"",""period""]",0,"[0.18859999999403954,1.9329000000059295]",103,0,103,0,1,60726683b225d693c1b6ff86,55,Kobieta,2022-06-04_16h09.16.216,task,2021.1.4,MacIntel,59.97720866,628b806c463b948bc644b84f,629af6fa36416b0872fb45d0,,,,,,,,,,,,,,,,,,,,,,,,,,,,,,,,,,,,,,,,,,,,,,,,,,,,,,,,,,,,,,,,,,,,,,,,,,,,,,,,,,,,,,,,,,,,,,,,,,,,,,,
,,,0,,104,0,104,0,1,60726683b225d693c1b6ff86,55,Kobieta,2022-06-04_16h09.16.216,task,2021.1.4,MacIntel,59.97720866,628b806c463b948bc644b84f,629af6fa36416b0872fb45d0,,,,,,,,,,,,,,,,,,,,,,,,,,,,,,,,,,,,,,,,,,,,,,,,,,,,,,,,,,,,,,,,,,,,,,,,,,,,,,,,,,,,,,,,,,,,,,,,,,,,,,,
,,"[""comma""]",0,[0.415599999994015],105,0,105,0,1,60726683b225d693c1b6ff86,55,Kobieta,2022-06-04_16h09.16.216,task,2021.1.4,MacIntel,59.97720866,628b806c463b948bc644b84f,629af6fa36416b0872fb45d0,,,,,,,,,,,,,,,,,,,,,,,,,,,,,,,,,,,,,,,,,,,,,,,,,,,,,,,,,,,,,,,,,,,,,,,,,,,,,,,,,,,,,,,,,,,,,,,,,,,,,,,
,,"[""comma""]",0,[0.5504999999999995],106,0,106,0,1,60726683b225d693c1b6ff86,55,Kobieta,2022-06-04_16h09.16.216,task,2021.1.4,MacIntel,59.97720866,628b806c463b948bc644b84f,629af6fa36416b0872fb45d0,,,,,,,,,,,,,,,,,,,,,,,,,,,,,,,,,,,,,,,,,,,,,,,,,,,,,,,,,,,,,,,,,,,,,,,,,,,,,,,,,,,,,,,,,,,,,,,,,,,,,,,
,,"[""period""]",0,[0.32290000000597274],107,0,107,0,1,60726683b225d693c1b6ff86,55,Kobieta,2022-06-04_16h09.16.216,task,2021.1.4,MacIntel,59.97720866,628b806c463b948bc644b84f,629af6fa36416b0872fb45d0,,,,,,,,,,,,,,,,,,,,,,,,,,,,,,,,,,,,,,,,,,,,,,,,,,,,,,,,,,,,,,,,,,,,,,,,,,,,,,,,,,,,,,,,,,,,,,,,,,,,,,,
,,"[""comma""]",0,[0.3446999999880518],108,0,108,0,1,60726683b225d693c1b6ff86,55,Kobieta,2022-06-04_16h09.16.216,task,2021.1.4,MacIntel,59.97720866,628b806c463b948bc644b84f,629af6fa36416b0872fb45d0,,,,,,,,,,,,,,,,,,,,,,,,,,,,,,,,,,,,,,,,,,,,,,,,,,,,,,,,,,,,,,,,,,,,,,,,,,,,,,,,,,,,,,,,,,,,,,,,,,,,,,,
,,"[""period""]",0,[0.35769999998808544],109,0,109,0,1,60726683b225d693c1b6ff86,55,Kobieta,2022-06-04_16h09.16.216,task,2021.1.4,MacIntel,59.97720866,628b806c463b948bc644b84f,629af6fa36416b0872fb45d0,,,,,,,,,,,,,,,,,,,,,,,,,,,,,,,,,,,,,,,,,,,,,,,,,,,,,,,,,,,,,,,,,,,,,,,,,,,,,,,,,,,,,,,,,,,,,,,,,,,,,,,
,,"[""comma""]",0,[0.36759999999401316],110,0,110,0,1,60726683b225d693c1b6ff86,55,Kobieta,2022-06-04_16h09.16.216,task,2021.1.4,MacIntel,59.97720866,628b806c463b948bc644b84f,629af6fa36416b0872fb45d0,,,,,,,,,,,,,,,,,,,,,,,,,,,,,,,,,,,,,,,,,,,,,,,,,,,,,,,,,,,,,,,,,,,,,,,,,,,,,,,,,,,,,,,,,,,,,,,,,,,,,,,
,,"[""comma""]",0,[0.5912000000178637],111,0,111,0,1,60726683b225d693c1b6ff86,55,Kobieta,2022-06-04_16h09.16.216,task,2021.1.4,MacIntel,59.97720866,628b806c463b948bc644b84f,629af6fa36416b0872fb45d0,,,,,,,,,,,,,,,,,,,,,,,,,,,,,,,,,,,,,,,,,,,,,,,,,,,,,,,,,,,,,,,,,,,,,,,,,,,,,,,,,,,,,,,,,,,,,,,,,,,,,,,
,,"[""comma""]",0,[0.6160000000000423],112,0,112,0,1,60726683b225d693c1b6ff86,55,Kobieta,2022-06-04_16h09.16.216,task,2021.1.4,MacIntel,59.97720866,628b806c463b948bc644b84f,629af6fa36416b0872fb45d0,,,,,,,,,,,,,,,,,,,,,,,,,,,,,,,,,,,,,,,,,,,,,,,,,,,,,,,,,,,,,,,,,,,,,,,,,,,,,,,,,,,,,,,,,,,,,,,,,,,,,,,
,,"[""comma""]",0,[0.5754000000059705],113,0,113,0,1,60726683b225d693c1b6ff86,55,Kobieta,2022-06-04_16h09.16.216,task,2021.1.4,MacIntel,59.97720866,628b806c463b948bc644b84f,629af6fa36416b0872fb45d0,,,,,,,,,,,,,,,,,,,,,,,,,,,,,,,,,,,,,,,,,,,,,,,,,,,,,,,,,,,,,,,,,,,,,,,,,,,,,,,,,,,,,,,,,,,,,,,,,,,,,,,
,,"[""comma""]",0,[0.7004999999999768],114,0,114,0,1,60726683b225d693c1b6ff86,55,Kobieta,2022-06-04_16h09.16.216,task,2021.1.4,MacIntel,59.97720866,628b806c463b948bc644b84f,629af6fa36416b0872fb45d0,,,,,,,,,,,,,,,,,,,,,,,,,,,,,,,,,,,,,,,,,,,,,,,,,,,,,,,,,,,,,,,,,,,,,,,,,,,,,,,,,,,,,,,,,,,,,,,,,,,,,,,
,,"[""comma""]",0,[0.34790000000595],115,0,115,0,1,60726683b225d693c1b6ff86,55,Kobieta,2022-06-04_16h09.16.216,task,2021.1.4,MacIntel,59.97720866,628b806c463b948bc644b84f,629af6fa36416b0872fb45d0,,,,,,,,,,,,,,,,,,,,,,,,,,,,,,,,,,,,,,,,,,,,,,,,,,,,,,,,,,,,,,,,,,,,,,,,,,,,,,,,,,,,,,,,,,,,,,,,,,,,,,,
,,"[""period""]",0,[0.32020000001784865],116,0,116,0,1,60726683b225d693c1b6ff86,55,Kobieta,2022-06-04_16h09.16.216,task,2021.1.4,MacIntel,59.97720866,628b806c463b948bc644b84f,629af6fa36416b0872fb45d0,,,,,,,,,,,,,,,,,,,,,,,,,,,,,,,,,,,,,,,,,,,,,,,,,,,,,,,,,,,,,,,,,,,,,,,,,,,,,,,,,,,,,,,,,,,,,,,,,,,,,,,
,,"[""comma""]",0,[1.2694000000059305],117,0,117,0,1,60726683b225d693c1b6ff86,55,Kobieta,2022-06-04_16h09.16.216,task,2021.1.4,MacIntel,59.97720866,628b806c463b948bc644b84f,629af6fa36416b0872fb45d0,,,,,,,,,,,,,,,,,,,,,,,,,,,,,,,,,,,,,,,,,,,,,,,,,,,,,,,,,,,,,,,,,,,,,,,,,,,,,,,,,,,,,,,,,,,,,,,,,,,,,,,
,,"[""period""]",0,[0.4172999999821627],118,0,118,0,1,60726683b225d693c1b6ff86,55,Kobieta,2022-06-04_16h09.16.216,task,2021.1.4,MacIntel,59.97720866,628b806c463b948bc644b84f,629af6fa36416b0872fb45d0,,,,,,,,,,,,,,,,,,,,,,,,,,,,,,,,,,,,,,,,,,,,,,,,,,,,,,,,,,,,,,,,,,,,,,,,,,,,,,,,,,,,,,,,,,,,,,,,,,,,,,,
,,"[""comma""]",0,[0.5187000000179296],119,0,119,0,1,60726683b225d693c1b6ff86,55,Kobieta,2022-06-04_16h09.16.216,task,2021.1.4,MacIntel,59.97720866,628b806c463b948bc644b84f,629af6fa36416b0872fb45d0,,,,,,,,,,,,,,,,,,,,,,,,,,,,,,,,,,,,,,,,,,,,,,,,,,,,,,,,,,,,,,,,,,,,,,,,,,,,,,,,,,,,,,,,,,,,,,,,,,,,,,,
,,,,,,,,,,60726683b225d693c1b6ff86,55,Kobieta,2022-06-04_16h09.16.216,task,2021.1.4,MacIntel,59.97720866,628b806c463b948bc644b84f,629af6fa36416b0872fb45d0,space,44.368,space,5.9195,0,0,0,0,1,X V Q F H G B L J M P D K C T S W R N Z,,,,,,,,,,,,,,,,,,,,,,,,,,,,,,,,,,,,,,,,,,,,,,,,,,,,,,,,,,,,,,,,,,,,,,,,,,,,,,,,,,,,,,,,,,,,,
,,,,,,,,,,60726683b225d693c1b6ff86,55,Kobieta,2022-06-04_16h09.16.216,task,2021.1.4,MacIntel,59.97720866,628b806c463b948bc644b84f,629af6fa36416b0872fb45d0,,,,,1,0,1,0,1,X V Q F H G B L J M P D K C T S W R N Z,,,,,,,,,,,,,,,,,,,,,,,,,,,,,,,,,,,,,,,,,,,,,,,,,,,,,,,,,,,,,,,,,,,,,,,,,,,,,,,,,,,,,,,,,,,,,
,,,,,,,,,,60726683b225d693c1b6ff86,55,Kobieta,2022-06-04_16h09.16.216,task,2021.1.4,MacIntel,59.97720866,628b806c463b948bc644b84f,629af6fa36416b0872fb45d0,,,,,,,,,,,zx,"[""z"",""x""]","[1.7624999999999886,2.6076999999880854,4.507900000005975]",1,ZX,0,0,0,0,1,,,,,,,,,,,,,,,,,,,,,,,,,,,,,,,,,,,,,,,,,,,,,,,,,,,,,,,,,,,,,,,,,,,,,,,,,,,,,,,,,,,
,,,,,,,,,,60726683b225d693c1b6ff86,55,Kobieta,2022-06-04_16h09.16.216,task,2021.1.4,MacIntel,59.97720866,628b806c463b948bc644b84f,629af6fa36416b0872fb45d0,,,,,0,0,0,0,1,X V Q F H G B L J M P D K C T S W R N Z,,,,,,,,,,,,,,,,,,,,,,,,,,,,,,,,,,,,,,,,,,,,,,,,,,,,,,,,,,,,,,,,,,,,,,,,,,,,,,,,,,,,,,,,,,,,,
,,,,,,,,,,60726683b225d693c1b6ff86,55,Kobieta,2022-06-04_16h09.16.216,task,2021.1.4,MacIntel,59.97720866,628b806c463b948bc644b84f,629af6fa36416b0872fb45d0,,,,,1,0,1,0,1,X V Q F H G B L J M P D K C T S W R N Z,,,,,,,,,,,,,,,,,,,,,,,,,,,,,,,,,,,,,,,,,,,,,,,,,,,,,,,,,,,,,,,,,,,,,,,,,,,,,,,,,,,,,,,,,,,,,
,,,,,,,,,,60726683b225d693c1b6ff86,55,Kobieta,2022-06-04_16h09.16.216,task,2021.1.4,MacIntel,59.97720866,628b806c463b948bc644b84f,629af6fa36416b0872fb45d0,,,,,,,,,,,dj,"[""d"",""j""]","[1.3130999999940514,1.9664000000059332,2.388199999988103]",1,DJ,1,0,1,0,1,,,,,,,,,,,,,,,,,,,,,,,,,,,,,,,,,,,,,,,,,,,,,,,,,,,,,,,,,,,,,,,,,,,,,,,,,,,,,,,,,,,
,,,,,,,,,,60726683b225d693c1b6ff86,55,Kobieta,2022-06-04_16h09.16.216,task,2021.1.4,MacIntel,59.97720866,628b806c463b948bc644b84f,629af6fa36416b0872fb45d0,,,,,0,0,0,0,1,X V Q F H G B L J M P D K C T S W R N Z,,,,,,,,,,,,,,,,,,,,,,,,,,,,,,,,,,,,,,,,,,,,,,,,,,,,,,,,,,,,,,,,,,,,,,,,,,,,,,,,,,,,,,,,,,,,,
,,,,,,,,,,60726683b225d693c1b6ff86,55,Kobieta,2022-06-04_16h09.16.216,task,2021.1.4,MacIntel,59.97720866,628b806c463b948bc644b84f,629af6fa36416b0872fb45d0,,,,,1,0,1,0,1,X V Q F H G B L J M P D K C T S W R N Z,,,,,,,,,,,,,,,,,,,,,,,,,,,,,,,,,,,,,,,,,,,,,,,,,,,,,,,,,,,,,,,,,,,,,,,,,,,,,,,,,,,,,,,,,,,,,
,,,,,,,,,,60726683b225d693c1b6ff86,55,Kobieta,2022-06-04_16h09.16.216,task,2021.1.4,MacIntel,59.97720866,628b806c463b948bc644b84f,629af6fa36416b0872fb45d0,,,,,2,0,2,0,1,X V Q F H G B L J M P D K C T S W R N Z,,,,,,,,,,,,,,,,,,,,,,,,,,,,,,,,,,,,,,,,,,,,,,,,,,,,,,,,,,,,,,,,,,,,,,,,,,,,,,,,,,,,,,,,,,,,,
,,,,,,,,,,60726683b225d693c1b6ff86,55,Kobieta,2022-06-04_16h09.16.216,task,2021.1.4,MacIntel,59.97720866,628b806c463b948bc644b84f,629af6fa36416b0872fb45d0,,,,,,,,,,,smc,"[""s"",""m"",""c""]","[0.9678999999761686,1.4835999999940555,1.8328999999761777,2.6491999999881273]",1,SMC,2,0,2,0,1,,,,,,,,,,,,,,,,,,,,,,,,,,,,,,,,,,,,,,,,,,,,,,,,,,,,,,,,,,,,,,,,,,,,,,,,,,,,,,,,,,,
,,,,,,,,,,60726683b225d693c1b6ff86,55,Kobieta,2022-06-04_16h09.16.216,task,2021.1.4,MacIntel,59.97720866,628b806c463b948bc644b84f,629af6fa36416b0872fb45d0,,,,,0,0,0,0,1,X V Q F H G B L J M P D K C T S W R N Z,,,,,,,,,,,,,,,,,,,,,,,,,,,,,,,,,,,,,,,,,,,,,,,,,,,,,,,,,,,,,,,,,,,,,,,,,,,,,,,,,,,,,,,,,,,,,
,,,,,,,,,,60726683b225d693c1b6ff86,55,Kobieta,2022-06-04_16h09.16.216,task,2021.1.4,MacIntel,59.97720866,628b806c463b948bc644b84f,629af6fa36416b0872fb45d0,,,,,1,0,1,0,1,X V Q F H G B L J M P D K C T S W R N Z,,,,,,,,,,,,,,,,,,,,,,,,,,,,,,,,,,,,,,,,,,,,,,,,,,,,,,,,,,,,,,,,,,,,,,,,,,,,,,,,,,,,,,,,,,,,,
,,,,,,,,,,60726683b225d693c1b6ff86,55,Kobieta,2022-06-04_16h09.16.216,task,2021.1.4,MacIntel,59.97720866,628b806c463b948bc644b84f,629af6fa36416b0872fb45d0,,,,,2,0,2,0,1,X V Q F H G B L J M P D K C T S W R N Z,,,,,,,,,,,,,,,,,,,,,,,,,,,,,,,,,,,,,,,,,,,,,,,,,,,,,,,,,,,,,,,,,,,,,,,,,,,,,,,,,,,,,,,,,,,,,
,,,,,,,,,,60726683b225d693c1b6ff86,55,Kobieta,2022-06-04_16h09.16.216,task,2021.1.4,MacIntel,59.97720866,628b806c463b948bc644b84f,629af6fa36416b0872fb45d0,,,,,,,,,,,skb,"[""s"",""k"",""b""]","[1.1700999999940223,1.545900000005929,1.9149999999999636,2.285799999982089]",0,XKB,3,0,3,0,1,,,,,,,,,,,,,,,,,,,,,,,,,,,,,,,,,,,,,,,,,,,,,,,,,,,,,,,,,,,,,,,,,,,,,,,,,,,,,,,,,,,
,,,,,,,,,,60726683b225d693c1b6ff86,55,Kobieta,2022-06-04_16h09.16.216,task,2021.1.4,MacIntel,59.97720866,628b806c463b948bc644b84f,629af6fa36416b0872fb45d0,,,,,0,0,0,0,1,X V Q F H G B L J M P D K C T S W R N Z,,,,,,,,,,,,,,,,,,,,,,,,,,,,,,,,,,,,,,,,,,,,,,,,,,,,,,,,,,,,,,,,,,,,,,,,,,,,,,,,,,,,,,,,,,,,,
,,,,,,,,,,60726683b225d693c1b6ff86,55,Kobieta,2022-06-04_16h09.16.216,task,2021.1.4,MacIntel,59.97720866,628b806c463b948bc644b84f,629af6fa36416b0872fb45d0,,,,,1,0,1,0,1,X V Q F H G B L J M P D K C T S W R N Z,,,,,,,,,,,,,,,,,,,,,,,,,,,,,,,,,,,,,,,,,,,,,,,,,,,,,,,,,,,,,,,,,,,,,,,,,,,,,,,,,,,,,,,,,,,,,
,,,,,,,,,,60726683b225d693c1b6ff86,55,Kobieta,2022-06-04_16h09.16.216,task,2021.1.4,MacIntel,59.97720866,628b806c463b948bc644b84f,629af6fa36416b0872fb45d0,,,,,2,0,2,0,1,X V Q F H G B L J M P D K C T S W R N Z,,,,,,,,,,,,,,,,,,,,,,,,,,,,,,,,,,,,,,,,,,,,,,,,,,,,,,,,,,,,,,,,,,,,,,,,,,,,,,,,,,,,,,,,,,,,,
,,,,,,,,,,60726683b225d693c1b6ff86,55,Kobieta,2022-06-04_16h09.16.216,task,2021.1.4,MacIntel,59.97720866,628b806c463b948bc644b84f,629af6fa36416b0872fb45d0,,,,,,,,,,,hhz,"[""h"",""h"",""z""]","[1.3461999999880732,1.5194000000059873,1.849599999994041,2.4710000000000036]",1,HHZ,4,0,4,0,1,,,,,,,,,,,,,,,,,,,,,,,,,,,,,,,,,,,,,,,,,,,,,,,,,,,,,,,,,,,,,,,,,,,,,,,,,,,,,,,,,,,
,,,,,,,,,,60726683b225d693c1b6ff86,55,Kobieta,2022-06-04_16h09.16.216,task,2021.1.4,MacIntel,59.97720866,628b806c463b948bc644b84f,629af6fa36416b0872fb45d0,,,,,0,0,0,0,1,X V Q F H G B L J M P D K C T S W R N Z,,,,,,,,,,,,,,,,,,,,,,,,,,,,,,,,,,,,,,,,,,,,,,,,,,,,,,,,,,,,,,,,,,,,,,,,,,,,,,,,,,,,,,,,,,,,,
,,,,,,,,,,60726683b225d693c1b6ff86,55,Kobieta,2022-06-04_16h09.16.216,task,2021.1.4,MacIntel,59.97720866,628b806c463b948bc644b84f,629af6fa36416b0872fb45d0,,,,,1,0,1,0,1,X V Q F H G B L J M P D K C T S W R N Z,,,,,,,,,,,,,,,,,,,,,,,,,,,,,,,,,,,,,,,,,,,,,,,,,,,,,,,,,,,,,,,,,,,,,,,,,,,,,,,,,,,,,,,,,,,,,
,,,,,,,,,,60726683b225d693c1b6ff86,55,Kobieta,2022-06-04_16h09.16.216,task,2021.1.4,MacIntel,59.97720866,628b806c463b948bc644b84f,629af6fa36416b0872fb45d0,,,,,2,0,2,0,1,X V Q F H G B L J M P D K C T S W R N Z,,,,,,,,,,,,,,,,,,,,,,,,,,,,,,,,,,,,,,,,,,,,,,,,,,,,,,,,,,,,,,,,,,,,,,,,,,,,,,,,,,,,,,,,,,,,,
,,,,,,,,,,60726683b225d693c1b6ff86,55,Kobieta,2022-06-04_16h09.16.216,task,2021.1.4,MacIntel,59.97720866,628b806c463b948bc644b84f,629af6fa36416b0872fb45d0,,,,,3,0,3,0,1,X V Q F H G B L J M P D K C T S W R N Z,,,,,,,,,,,,,,,,,,,,,,,,,,,,,,,,,,,,,,,,,,,,,,,,,,,,,,,,,,,,,,,,,,,,,,,,,,,,,,,,,,,,,,,,,,,,,
,,,,,,,,,,60726683b225d693c1b6ff86,55,Kobieta,2022-06-04_16h09.16.216,task,2021.1.4,MacIntel,59.97720866,628b806c463b948bc644b84f,629af6fa36416b0872fb45d0,,,,,,,,,,,swzj,"[""s"",""w"",""z"",""j""]","[0.799799999982099,1.1649999999999636,1.5811999999880868,2.182599999994011,2.8821999999880745]",1,SWZJ,5,0,5,0,1,,,,,,,,,,,,,,,,,,,,,,,,,,,,,,,,,,,,,,,,,,,,,,,,,,,,,,,,,,,,,,,,,,,,,,,,,,,,,,,,,,,
,,,,,,,,,,60726683b225d693c1b6ff86,55,Kobieta,2022-06-04_16h09.16.216,task,2021.1.4,MacIntel,59.97720866,628b806c463b948bc644b84f,629af6fa36416b0872fb45d0,,,,,0,0,0,0,1,X V Q F H G B L J M P D K C T S W R N Z,,,,,,,,,,,,,,,,,,,,,,,,,,,,,,,,,,,,,,,,,,,,,,,,,,,,,,,,,,,,,,,,,,,,,,,,,,,,,,,,,,,,,,,,,,,,,
,,,,,,,,,,60726683b225d693c1b6ff86,55,Kobieta,2022-06-04_16h09.16.216,task,2021.1.4,MacIntel,59.97720866,628b806c463b948bc644b84f,629af6fa36416b0872fb45d0,,,,,1,0,1,0,1,X V Q F H G B L J M P D K C T S W R N Z,,,,,,,,,,,,,,,,,,,,,,,,,,,,,,,,,,,,,,,,,,,,,,,,,,,,,,,,,,,,,,,,,,,,,,,,,,,,,,,,,,,,,,,,,,,,,
,,,,,,,,,,60726683b225d693c1b6ff86,55,Kobieta,2022-06-04_16h09.16.216,task,2021.1.4,MacIntel,59.97720866,628b806c463b948bc644b84f,629af6fa36416b0872fb45d0,,,,,2,0,2,0,1,X V Q F H G B L J M P D K C T S W R N Z,,,,,,,,,,,,,,,,,,,,,,,,,,,,,,,,,,,,,,,,,,,,,,,,,,,,,,,,,,,,,,,,,,,,,,,,,,,,,,,,,,,,,,,,,,,,,
,,,,,,,,,,60726683b225d693c1b6ff86,55,Kobieta,2022-06-04_16h09.16.216,task,2021.1.4,MacIntel,59.97720866,628b806c463b948bc644b84f,629af6fa36416b0872fb45d0,,,,,3,0,3,0,1,X V Q F H G B L J M P D K C T S W R N Z,,,,,,,,,,,,,,,,,,,,,,,,,,,,,,,,,,,,,,,,,,,,,,,,,,,,,,,,,,,,,,,,,,,,,,,,,,,,,,,,,,,,,,,,,,,,,
,,,,,,,,,,60726683b225d693c1b6ff86,55,Kobieta,2022-06-04_16h09.16.216,task,2021.1.4,MacIntel,59.97720866,628b806c463b948bc644b84f,629af6fa36416b0872fb45d0,,,,,,,,,,,shst,"[""s"",""h"",""s"",""t""]","[1.4818000000119014,2.0500000000000114,2.6554000000059546,3.0115000000000123,3.831199999988087]",0,HHST,6,0,6,0,1,,,,,,,,,,,,,,,,,,,,,,,,,,,,,,,,,,,,,,,,,,,,,,,,,,,,,,,,,,,,,,,,,,,,,,,,,,,,,,,,,,,
,,,,,,,,,,60726683b225d693c1b6ff86,55,Kobieta,2022-06-04_16h09.16.216,task,2021.1.4,MacIntel,59.97720866,628b806c463b948bc644b84f,629af6fa36416b0872fb45d0,,,,,0,0,0,0,1,X V Q F H G B L J M P D K C T S W R N Z,,,,,,,,,,,,,,,,,,,,,,,,,,,,,,,,,,,,,,,,,,,,,,,,,,,,,,,,,,,,,,,,,,,,,,,,,,,,,,,,,,,,,,,,,,,,,
,,,,,,,,,,60726683b225d693c1b6ff86,55,Kobieta,2022-06-04_16h09.16.216,task,2021.1.4,MacIntel,59.97720866,628b806c463b948bc644b84f,629af6fa36416b0872fb45d0,,,,,1,0,1,0,1,X V Q F H G B L J M P D K C T S W R N Z,,,,,,,,,,,,,,,,,,,,,,,,,,,,,,,,,,,,,,,,,,,,,,,,,,,,,,,,,,,,,,,,,,,,,,,,,,,,,,,,,,,,,,,,,,,,,
,,,,,,,,,,60726683b225d693c1b6ff86,55,Kobieta,2022-06-04_16h09.16.216,task,2021.1.4,MacIntel,59.97720866,628b806c463b948bc644b84f,629af6fa36416b0872fb45d0,,,,,2,0,2,0,1,X V Q F H G B L J M P D K C T S W R N Z,,,,,,,,,,,,,,,,,,,,,,,,,,,,,,,,,,,,,,,,,,,,,,,,,,,,,,,,,,,,,,,,,,,,,,,,,,,,,,,,,,,,,,,,,,,,,
,,,,,,,,,,60726683b225d693c1b6ff86,55,Kobieta,2022-06-04_16h09.16.216,task,2021.1.4,MacIntel,59.97720866,628b806c463b948bc644b84f,629af6fa36416b0872fb45d0,,,,,3,0,3,0,1,X V Q F H G B L J M P D K C T S W R N Z,,,,,,,,,,,,,,,,,,,,,,,,,,,,,,,,,,,,,,,,,,,,,,,,,,,,,,,,,,,,,,,,,,,,,,,,,,,,,,,,,,,,,,,,,,,,,
,,,,,,,,,,60726683b225d693c1b6ff86,55,Kobieta,2022-06-04_16h09.16.216,task,2021.1.4,MacIntel,59.97720866,628b806c463b948bc644b84f,629af6fa36416b0872fb45d0,,,,,,,,,,,vntb,"[""v"",""n"",""t"",""b""]","[1.0166999999880773,1.641599999994014,1.9422999999820831,2.396900000005928,2.950999999999965]",1,VNTB,7,0,7,0,1,,,,,,,,,,,,,,,,,,,,,,,,,,,,,,,,,,,,,,,,,,,,,,,,,,,,,,,,,,,,,,,,,,,,,,,,,,,,,,,,,,,
,,,,,,,,,,60726683b225d693c1b6ff86,55,Kobieta,2022-06-04_16h09.16.216,task,2021.1.4,MacIntel,59.97720866,628b806c463b948bc644b84f,629af6fa36416b0872fb45d0,,,,,0,0,0,0,1,X V Q F H G B L J M P D K C T S W R N Z,,,,,,,,,,,,,,,,,,,,,,,,,,,,,,,,,,,,,,,,,,,,,,,,,,,,,,,,,,,,,,,,,,,,,,,,,,,,,,,,,,,,,,,,,,,,,
,,,,,,,,,,60726683b225d693c1b6ff86,55,Kobieta,2022-06-04_16h09.16.216,task,2021.1.4,MacIntel,59.97720866,628b806c463b948bc644b84f,629af6fa36416b0872fb45d0,,,,,1,0,1,0,1,X V Q F H G B L J M P D K C T S W R N Z,,,,,,,,,,,,,,,,,,,,,,,,,,,,,,,,,,,,,,,,,,,,,,,,,,,,,,,,,,,,,,,,,,,,,,,,,,,,,,,,,,,,,,,,,,,,,
,,,,,,,,,,60726683b225d693c1b6ff86,55,Kobieta,2022-06-04_16h09.16.216,task,2021.1.4,MacIntel,59.97720866,628b806c463b948bc644b84f,629af6fa36416b0872fb45d0,,,,,2,0,2,0,1,X V Q F H G B L J M P D K C T S W R N Z,,,,,,,,,,,,,,,,,,,,,,,,,,,,,,,,,,,,,,,,,,,,,,,,,,,,,,,,,,,,,,,,,,,,,,,,,,,,,,,,,,,,,,,,,,,,,
,,,,,,,,,,60726683b225d693c1b6ff86,55,Kobieta,2022-06-04_16h09.16.216,task,2021.1.4,MacIntel,59.97720866,628b806c463b948bc644b84f,629af6fa36416b0872fb45d0,,,,,3,0,3,0,1,X V Q F H G B L J M P D K C T S W R N Z,,,,,,,,,,,,,,,,,,,,,,,,,,,,,,,,,,,,,,,,,,,,,,,,,,,,,,,,,,,,,,,,,,,,,,,,,,,,,,,,,,,,,,,,,,,,,
,,,,,,,,,,60726683b225d693c1b6ff86,55,Kobieta,2022-06-04_16h09.16.216,task,2021.1.4,MacIntel,59.97720866,628b806c463b948bc644b84f,629af6fa36416b0872fb45d0,,,,,4,0,4,0,1,X V Q F H G B L J M P D K C T S W R N Z,,,,,,,,,,,,,,,,,,,,,,,,,,,,,,,,,,,,,,,,,,,,,,,,,,,,,,,,,,,,,,,,,,,,,,,,,,,,,,,,,,,,,,,,,,,,,
,,,,,,,,,,60726683b225d693c1b6ff86,55,Kobieta,2022-06-04_16h09.16.216,task,2021.1.4,MacIntel,59.97720866,628b806c463b948bc644b84f,629af6fa36416b0872fb45d0,,,,,,,,,,,zhhxs,"[""z"",""h"",""h"",""x"",""s""]","[0.8480000000000132,1.386400000005949,1.6196000000238655,2.1934000000059655,2.497400000005996,2.8992000000179132]",1,ZHHXS,8,0,8,0,1,,,,,,,,,,,,,,,,,,,,,,,,,,,,,,,,,,,,,,,,,,,,,,,,,,,,,,,,,,,,,,,,,,,,,,,,,,,,,,,,,,,
,,,,,,,,,,60726683b225d693c1b6ff86,55,Kobieta,2022-06-04_16h09.16.216,task,2021.1.4,MacIntel,59.97720866,628b806c463b948bc644b84f,629af6fa36416b0872fb45d0,,,,,0,0,0,0,1,X V Q F H G B L J M P D K C T S W R N Z,,,,,,,,,,,,,,,,,,,,,,,,,,,,,,,,,,,,,,,,,,,,,,,,,,,,,,,,,,,,,,,,,,,,,,,,,,,,,,,,,,,,,,,,,,,,,
,,,,,,,,,,60726683b225d693c1b6ff86,55,Kobieta,2022-06-04_16h09.16.216,task,2021.1.4,MacIntel,59.97720866,628b806c463b948bc644b84f,629af6fa36416b0872fb45d0,,,,,1,0,1,0,1,X V Q F H G B L J M P D K C T S W R N Z,,,,,,,,,,,,,,,,,,,,,,,,,,,,,,,,,,,,,,,,,,,,,,,,,,,,,,,,,,,,,,,,,,,,,,,,,,,,,,,,,,,,,,,,,,,,,
,,,,,,,,,,60726683b225d693c1b6ff86,55,Kobieta,2022-06-04_16h09.16.216,task,2021.1.4,MacIntel,59.97720866,628b806c463b948bc644b84f,629af6fa36416b0872fb45d0,,,,,2,0,2,0,1,X V Q F H G B L J M P D K C T S W R N Z,,,,,,,,,,,,,,,,,,,,,,,,,,,,,,,,,,,,,,,,,,,,,,,,,,,,,,,,,,,,,,,,,,,,,,,,,,,,,,,,,,,,,,,,,,,,,
,,,,,,,,,,60726683b225d693c1b6ff86,55,Kobieta,2022-06-04_16h09.16.216,task,2021.1.4,MacIntel,59.97720866,628b806c463b948bc644b84f,629af6fa36416b0872fb45d0,,,,,3,0,3,0,1,X V Q F H G B L J M P D K C T S W R N Z,,,,,,,,,,,,,,,,,,,,,,,,,,,,,,,,,,,,,,,,,,,,,,,,,,,,,,,,,,,,,,,,,,,,,,,,,,,,,,,,,,,,,,,,,,,,,
,,,,,,,,,,60726683b225d693c1b6ff86,55,Kobieta,2022-06-04_16h09.16.216,task,2021.1.4,MacIntel,59.97720866,628b806c463b948bc644b84f,629af6fa36416b0872fb45d0,,,,,4,0,4,0,1,X V Q F H G B L J M P D K C T S W R N Z,,,,,,,,,,,,,,,,,,,,,,,,,,,,,,,,,,,,,,,,,,,,,,,,,,,,,,,,,,,,,,,,,,,,,,,,,,,,,,,,,,,,,,,,,,,,,
,,,,,,,,,,60726683b225d693c1b6ff86,55,Kobieta,2022-06-04_16h09.16.216,task,2021.1.4,MacIntel,59.97720866,628b806c463b948bc644b84f,629af6fa36416b0872fb45d0,,,,,,,,,,,btstb,"[""b"",""t"",""s"",""t"",""b""]","[1.7449000000059414,2.2407000000179096,3.198400000005961,3.680499999999995,3.9662000000178637,5.2446000000238655]",1,BTSTB,9,0,9,0,1,,,,,,,,,,,,,,,,,,,,,,,,,,,,,,,,,,,,,,,,,,,,,,,,,,,,,,,,,,,,,,,,,,,,,,,,,,,,,,,,,,,
,,,,,,,,,,60726683b225d693c1b6ff86,55,Kobieta,2022-06-04_16h09.16.216,task,2021.1.4,MacIntel,59.97720866,628b806c463b948bc644b84f,629af6fa36416b0872fb45d0,,,,,0,0,0,0,1,X V Q F H G B L J M P D K C T S W R N Z,,,,,,,,,,,,,,,,,,,,,,,,,,,,,,,,,,,,,,,,,,,,,,,,,,,,,,,,,,,,,,,,,,,,,,,,,,,,,,,,,,,,,,,,,,,,,
,,,,,,,,,,60726683b225d693c1b6ff86,55,Kobieta,2022-06-04_16h09.16.216,task,2021.1.4,MacIntel,59.97720866,628b806c463b948bc644b84f,629af6fa36416b0872fb45d0,,,,,1,0,1,0,1,X V Q F H G B L J M P D K C T S W R N Z,,,,,,,,,,,,,,,,,,,,,,,,,,,,,,,,,,,,,,,,,,,,,,,,,,,,,,,,,,,,,,,,,,,,,,,,,,,,,,,,,,,,,,,,,,,,,
,,,,,,,,,,60726683b225d693c1b6ff86,55,Kobieta,2022-06-04_16h09.16.216,task,2021.1.4,MacIntel,59.97720866,628b806c463b948bc644b84f,629af6fa36416b0872fb45d0,,,,,2,0,2,0,1,X V Q F H G B L J M P D K C T S W R N Z,,,,,,,,,,,,,,,,,,,,,,,,,,,,,,,,,,,,,,,,,,,,,,,,,,,,,,,,,,,,,,,,,,,,,,,,,,,,,,,,,,,,,,,,,,,,,
,,,,,,,,,,60726683b225d693c1b6ff86,55,Kobieta,2022-06-04_16h09.16.216,task,2021.1.4,MacIntel,59.97720866,628b806c463b948bc644b84f,629af6fa36416b0872fb45d0,,,,,3,0,3,0,1,X V Q F H G B L J M P D K C T S W R N Z,,,,,,,,,,,,,,,,,,,,,,,,,,,,,,,,,,,,,,,,,,,,,,,,,,,,,,,,,,,,,,,,,,,,,,,,,,,,,,,,,,,,,,,,,,,,,
,,,,,,,,,,60726683b225d693c1b6ff86,55,Kobieta,2022-06-04_16h09.16.216,task,2021.1.4,MacIntel,59.97720866,628b806c463b948bc644b84f,629af6fa36416b0872fb45d0,,,,,4,0,4,0,1,X V Q F H G B L J M P D K C T S W R N Z,,,,,,,,,,,,,,,,,,,,,,,,,,,,,,,,,,,,,,,,,,,,,,,,,,,,,,,,,,,,,,,,,,,,,,,,,,,,,,,,,,,,,,,,,,,,,
,,,,,,,,,,60726683b225d693c1b6ff86,55,Kobieta,2022-06-04_16h09.16.216,task,2021.1.4,MacIntel,59.97720866,628b806c463b948bc644b84f,629af6fa36416b0872fb45d0,,,,,5,0,5,0,1,X V Q F H G B L J M P D K C T S W R N Z,,,,,,,,,,,,,,,,,,,,,,,,,,,,,,,,,,,,,,,,,,,,,,,,,,,,,,,,,,,,,,,,,,,,,,,,,,,,,,,,,,,,,,,,,,,,,
,,,,,,,,,,60726683b225d693c1b6ff86,55,Kobieta,2022-06-04_16h09.16.216,task,2021.1.4,MacIntel,59.97720866,628b806c463b948bc644b84f,629af6fa36416b0872fb45d0,,,,,,,,,,,wdhkzw,"[""w"",""d"",""h"",""k"",""z"",""w""]","[1.0781000000238237,1.4297000000178741,1.932300000011935,2.482499999999959,2.8437000000178614,3.4018000000119173,3.81899999999996]",1,WDHKZW,10,0,10,0,1,,,,,,,,,,,,,,,,,,,,,,,,,,,,,,,,,,,,,,,,,,,,,,,,,,,,,,,,,,,,,,,,,,,,,,,,,,,,,,,,,,,
,,,,,,,,,,60726683b225d693c1b6ff86,55,Kobieta,2022-06-04_16h09.16.216,task,2021.1.4,MacIntel,59.97720866,628b806c463b948bc644b84f,629af6fa36416b0872fb45d0,,,,,0,0,0,0,1,X V Q F H G B L J M P D K C T S W R N Z,,,,,,,,,,,,,,,,,,,,,,,,,,,,,,,,,,,,,,,,,,,,,,,,,,,,,,,,,,,,,,,,,,,,,,,,,,,,,,,,,,,,,,,,,,,,,
,,,,,,,,,,60726683b225d693c1b6ff86,55,Kobieta,2022-06-04_16h09.16.216,task,2021.1.4,MacIntel,59.97720866,628b806c463b948bc644b84f,629af6fa36416b0872fb45d0,,,,,1,0,1,0,1,X V Q F H G B L J M P D K C T S W R N Z,,,,,,,,,,,,,,,,,,,,,,,,,,,,,,,,,,,,,,,,,,,,,,,,,,,,,,,,,,,,,,,,,,,,,,,,,,,,,,,,,,,,,,,,,,,,,
,,,,,,,,,,60726683b225d693c1b6ff86,55,Kobieta,2022-06-04_16h09.16.216,task,2021.1.4,MacIntel,59.97720866,628b806c463b948bc644b84f,629af6fa36416b0872fb45d0,,,,,2,0,2,0,1,X V Q F H G B L J M P D K C T S W R N Z,,,,,,,,,,,,,,,,,,,,,,,,,,,,,,,,,,,,,,,,,,,,,,,,,,,,,,,,,,,,,,,,,,,,,,,,,,,,,,,,,,,,,,,,,,,,,
,,,,,,,,,,60726683b225d693c1b6ff86,55,Kobieta,2022-06-04_16h09.16.216,task,2021.1.4,MacIntel,59.97720866,628b806c463b948bc644b84f,629af6fa36416b0872fb45d0,,,,,3,0,3,0,1,X V Q F H G B L J M P D K C T S W R N Z,,,,,,,,,,,,,,,,,,,,,,,,,,,,,,,,,,,,,,,,,,,,,,,,,,,,,,,,,,,,,,,,,,,,,,,,,,,,,,,,,,,,,,,,,,,,,
,,,,,,,,,,60726683b225d693c1b6ff86,55,Kobieta,2022-06-04_16h09.16.216,task,2021.1.4,MacIntel,59.97720866,628b806c463b948bc644b84f,629af6fa36416b0872fb45d0,,,,,4,0,4,0,1,X V Q F H G B L J M P D K C T S W R N Z,,,,,,,,,,,,,,,,,,,,,,,,,,,,,,,,,,,,,,,,,,,,,,,,,,,,,,,,,,,,,,,,,,,,,,,,,,,,,,,,,,,,,,,,,,,,,
,,,,,,,,,,60726683b225d693c1b6ff86,55,Kobieta,2022-06-04_16h09.16.216,task,2021.1.4,MacIntel,59.97720866,628b806c463b948bc644b84f,629af6fa36416b0872fb45d0,,,,,5,0,5,0,1,X V Q F H G B L J M P D K C T S W R N Z,,,,,,,,,,,,,,,,,,,,,,,,,,,,,,,,,,,,,,,,,,,,,,,,,,,,,,,,,,,,,,,,,,,,,,,,,,,,,,,,,,,,,,,,,,,,,
,,,,,,,,,,60726683b225d693c1b6ff86,55,Kobieta,2022-06-04_16h09.16.216,task,2021.1.4,MacIntel,59.97720866,628b806c463b948bc644b84f,629af6fa36416b0872fb45d0,,,,,,,,,,,jznx,"[""j"",""z"",""n"",""x""]","[1.5349999999999682,1.9799999999999613,5.280599999994024,5.915500000000009,11.389400000005935]",0,JNZXTP,11,0,11,0,1,,,,,,,,,,,,,,,,,,,,,,,,,,,,,,,,,,,,,,,,,,,,,,,,,,,,,,,,,,,,,,,,,,,,,,,,,,,,,,,,,,,
,,,,,,,,,,60726683b225d693c1b6ff86,55,Kobieta,2022-06-04_16h09.16.216,task,2021.1.4,MacIntel,59.97720866,628b806c463b948bc644b84f,629af6fa36416b0872fb45d0,,,,,0,0,0,0,1,X V Q F H G B L J M P D K C T S W R N Z,,,,,,,,,,,,,,,,,,,,,,,,,,,,,,,,,,,,,,,,,,,,,,,,,,,,,,,,,,,,,,,,,,,,,,,,,,,,,,,,,,,,,,,,,,,,,
,,,,,,,,,,60726683b225d693c1b6ff86,55,Kobieta,2022-06-04_16h09.16.216,task,2021.1.4,MacIntel,59.97720866,628b806c463b948bc644b84f,629af6fa36416b0872fb45d0,,,,,1,0,1,0,1,X V Q F H G B L J M P D K C T S W R N Z,,,,,,,,,,,,,,,,,,,,,,,,,,,,,,,,,,,,,,,,,,,,,,,,,,,,,,,,,,,,,,,,,,,,,,,,,,,,,,,,,,,,,,,,,,,,,
,,,,,,,,,,60726683b225d693c1b6ff86,55,Kobieta,2022-06-04_16h09.16.216,task,2021.1.4,MacIntel,59.97720866,628b806c463b948bc644b84f,629af6fa36416b0872fb45d0,,,,,2,0,2,0,1,X V Q F H G B L J M P D K C T S W R N Z,,,,,,,,,,,,,,,,,,,,,,,,,,,,,,,,,,,,,,,,,,,,,,,,,,,,,,,,,,,,,,,,,,,,,,,,,,,,,,,,,,,,,,,,,,,,,
,,,,,,,,,,60726683b225d693c1b6ff86,55,Kobieta,2022-06-04_16h09.16.216,task,2021.1.4,MacIntel,59.97720866,628b806c463b948bc644b84f,629af6fa36416b0872fb45d0,,,,,3,0,3,0,1,X V Q F H G B L J M P D K C T S W R N Z,,,,,,,,,,,,,,,,,,,,,,,,,,,,,,,,,,,,,,,,,,,,,,,,,,,,,,,,,,,,,,,,,,,,,,,,,,,,,,,,,,,,,,,,,,,,,
,,,,,,,,,,60726683b225d693c1b6ff86,55,Kobieta,2022-06-04_16h09.16.216,task,2021.1.4,MacIntel,59.97720866,628b806c463b948bc644b84f,629af6fa36416b0872fb45d0,,,,,4,0,4,0,1,X V Q F H G B L J M P D K C T S W R N Z,,,,,,,,,,,,,,,,,,,,,,,,,,,,,,,,,,,,,,,,,,,,,,,,,,,,,,,,,,,,,,,,,,,,,,,,,,,,,,,,,,,,,,,,,,,,,
,,,,,,,,,,60726683b225d693c1b6ff86,55,Kobieta,2022-06-04_16h09.16.216,task,2021.1.4,MacIntel,59.97720866,628b806c463b948bc644b84f,629af6fa36416b0872fb45d0,,,,,5,0,5,0,1,X V Q F H G B L J M P D K C T S W R N Z,,,,,,,,,,,,,,,,,,,,,,,,,,,,,,,,,,,,,,,,,,,,,,,,,,,,,,,,,,,,,,,,,,,,,,,,,,,,,,,,,,,,,,,,,,,,,
,,,,,,,,,,60726683b225d693c1b6ff86,55,Kobieta,2022-06-04_16h09.16.216,task,2021.1.4,MacIntel,59.97720866,628b806c463b948bc644b84f,629af6fa36416b0872fb45d0,,,,,,,,,,,lrtbqr,"[""l"",""r"",""t"",""b"",""q"",""r""]","[1.8300999999940473,2.7428000000119255,3.3350000000000364,3.7711999999880845,4.2475999999940655,4.718199999988087,7.586500000000001]",0,NFBQLR,12,0,12,0,1,,,,,,,,,,,,,,,,,,,,,,,,,,,,,,,,,,,,,,,,,,,,,,,,,,,,,,,,,,,,,,,,,,,,,,,,,,,,,,,,,,,
,,,,,,,,,,60726683b225d693c1b6ff86,55,Kobieta,2022-06-04_16h09.16.216,task,2021.1.4,MacIntel,59.97720866,628b806c463b948bc644b84f,629af6fa36416b0872fb45d0,,,,,0,0,0,0,1,X V Q F H G B L J M P D K C T S W R N Z,,,,,,,,,,,,,,,,,,,,,,,,,,,,,,,,,,,,,,,,,,,,,,,,,,,,,,,,,,,,,,,,,,,,,,,,,,,,,,,,,,,,,,,,,,,,,
,,,,,,,,,,60726683b225d693c1b6ff86,55,Kobieta,2022-06-04_16h09.16.216,task,2021.1.4,MacIntel,59.97720866,628b806c463b948bc644b84f,629af6fa36416b0872fb45d0,,,,,1,0,1,0,1,X V Q F H G B L J M P D K C T S W R N Z,,,,,,,,,,,,,,,,,,,,,,,,,,,,,,,,,,,,,,,,,,,,,,,,,,,,,,,,,,,,,,,,,,,,,,,,,,,,,,,,,,,,,,,,,,,,,
,,,,,,,,,,60726683b225d693c1b6ff86,55,Kobieta,2022-06-04_16h09.16.216,task,2021.1.4,MacIntel,59.97720866,628b806c463b948bc644b84f,629af6fa36416b0872fb45d0,,,,,2,0,2,0,1,X V Q F H G B L J M P D K C T S W R N Z,,,,,,,,,,,,,,,,,,,,,,,,,,,,,,,,,,,,,,,,,,,,,,,,,,,,,,,,,,,,,,,,,,,,,,,,,,,,,,,,,,,,,,,,,,,,,
,,,,,,,,,,60726683b225d693c1b6ff86,55,Kobieta,2022-06-04_16h09.16.216,task,2021.1.4,MacIntel,59.97720866,628b806c463b948bc644b84f,629af6fa36416b0872fb45d0,,,,,3,0,3,0,1,X V Q F H G B L J M P D K C T S W R N Z,,,,,,,,,,,,,,,,,,,,,,,,,,,,,,,,,,,,,,,,,,,,,,,,,,,,,,,,,,,,,,,,,,,,,,,,,,,,,,,,,,,,,,,,,,,,,
,,,,,,,,,,60726683b225d693c1b6ff86,55,Kobieta,2022-06-04_16h09.16.216,task,2021.1.4,MacIntel,59.97720866,628b806c463b948bc644b84f,629af6fa36416b0872fb45d0,,,,,4,0,4,0,1,X V Q F H G B L J M P D K C T S W R N Z,,,,,,,,,,,,,,,,,,,,,,,,,,,,,,,,,,,,,,,,,,,,,,,,,,,,,,,,,,,,,,,,,,,,,,,,,,,,,,,,,,,,,,,,,,,,,
,,,,,,,,,,60726683b225d693c1b6ff86,55,Kobieta,2022-06-04_16h09.16.216,task,2021.1.4,MacIntel,59.97720866,628b806c463b948bc644b84f,629af6fa36416b0872fb45d0,,,,,5,0,5,0,1,X V Q F H G B L J M P D K C T S W R N Z,,,,,,,,,,,,,,,,,,,,,,,,,,,,,,,,,,,,,,,,,,,,,,,,,,,,,,,,,,,,,,,,,,,,,,,,,,,,,,,,,,,,,,,,,,,,,
,,,,,,,,,,60726683b225d693c1b6ff86,55,Kobieta,2022-06-04_16h09.16.216,task,2021.1.4,MacIntel,59.97720866,628b806c463b948bc644b84f,629af6fa36416b0872fb45d0,,,,,,,,,,,jgbzxcb,"[""j"",""g"",""b"",""z"",""x"",""c"",""b""]","[1.280599999994024,2.6198999999761554,3.1180999999940013,3.4704999999999586,4.854899999976112,5.555999999999983,6.438699999988046,9.407099999993989]",0,JGZCSB,13,0,13,0,1,,,,,,,,,,,,,,,,,,,,,,,,,,,,,,,,,,,,,,,,,,,,,,,,,,,,,,,,,,,,,,,,,,,,,,,,,,,,,,,,,,,
,,,,,,,,,,60726683b225d693c1b6ff86,55,Kobieta,2022-06-04_16h09.16.216,task,2021.1.4,MacIntel,59.97720866,628b806c463b948bc644b84f,629af6fa36416b0872fb45d0,,,,,,,,,,,,,,,,,,,,,space,10.5797,0,"[""0""]",1,[3.9712999999820795],[3.9712999999820795],0,0,0,0,1,Practice,1,(3x3) -  9,0,,,,,,,,,,,,,,,,,,,,,,,,,,,,,,,,,,,,,,,,,,,,,,,,,,,,,,,,,,,,,,,,,,,
,,,,,,,,,,60726683b225d693c1b6ff86,55,Kobieta,2022-06-04_16h09.16.216,task,2021.1.4,MacIntel,59.97720866,628b806c463b948bc644b84f,629af6fa36416b0872fb45d0,,,,,,,,,,,,,,,,,,,,,,,4,"[""4""]",1,[13.090300000011894],"[3.9712999999820795,13.090300000011894]",0,1,1,4,1,Practice,5,(2x6) - 8,4,,,,,,,,,,,,,,,,,,,,,,,,,,,,,,,,,,,,,,,,,,,,,,,,,,,,,,,,,,,,,,,,,,,
,,,,,,,,,,60726683b225d693c1b6ff86,55,Kobieta,2022-06-04_16h09.16.216,task,2021.1.4,MacIntel,59.97720866,628b806c463b948bc644b84f,629af6fa36416b0872fb45d0,,,,,,,,,,,,,,,,,,,,,,,1,"[""1""]",1,[8.069200000017872],"[3.9712999999820795,13.090300000011894,8.069200000017872]",0,2,2,1,1,Practice,2,(4x4) - 15,1,,,,,,,,,,,,,,,,,,,,,,,,,,,,,,,,,,,,,,,,,,,,,,,,,,,,,,,,,,,,,,,,,,,
,,,,,,,,,,60726683b225d693c1b6ff86,55,Kobieta,2022-06-04_16h09.16.216,task,2021.1.4,MacIntel,59.97720866,628b806c463b948bc644b84f,629af6fa36416b0872fb45d0,,,,,,,,,,,,,,,,,,,,,,,6,"[""6""]",1,[4.080299999982117],"[3.9712999999820795,13.090300000011894,8.069200000017872,4.080299999982117]",0,3,3,6,1,Practice,7,(25/5) + 1,6,,,,,,,,,,,,,,,,,,,,,,,,,,,,,,,,,,,,,,,,,,,,,,,,,,,,,,,,,,,,,,,,,,,
,,,,,,,,,,60726683b225d693c1b6ff86,55,Kobieta,2022-06-04_16h09.16.216,task,2021.1.4,MacIntel,59.97720866,628b806c463b948bc644b84f,629af6fa36416b0872fb45d0,,,,,,,,,,,,,,,,,,,,,,,3,"[""3""]",1,[6.150900000006004],"[3.9712999999820795,13.090300000011894,8.069200000017872,4.080299999982117,6.150900000006004]",0,4,4,3,1,Practice,4,(8/4) + 1,3,,,,,,,,,,,,,,,,,,,,,,,,,,,,,,,,,,,,,,,,,,,,,,,,,,,,,,,,,,,,,,,,,,,
,,,,,,,,,,60726683b225d693c1b6ff86,55,Kobieta,2022-06-04_16h09.16.216,task,2021.1.4,MacIntel,59.97720866,628b806c463b948bc644b84f,629af6fa36416b0872fb45d0,,,,,,,,,,,,,,,,,,,,,,,7,"[""7""]",1,[6.778199999988033],"[3.9712999999820795,13.090300000011894,8.069200000017872,4.080299999982117,6.150900000006004,6.778199999988033]",0,5,5,7,1,Practice,8,(5x5) - 18,7,,,,,,,,,,,,,,,,,,,,,,,,,,,,,,,,,,,,,,,,,,,,,,,,,,,,,,,,,,,,,,,,,,,
,,,,,,,,,,60726683b225d693c1b6ff86,55,Kobieta,2022-06-04_16h09.16.216,task,2021.1.4,MacIntel,59.97720866,628b806c463b948bc644b84f,629af6fa36416b0872fb45d0,,,,,,,,,,,,,,,,,,,,,,,9,"[""9""]",1,[2.717999999999961],"[3.9712999999820795,13.090300000011894,8.069200000017872,4.080299999982117,6.150900000006004,6.778199999988033,2.717999999999961]",0,6,6,9,1,Practice,10,(20/2) - 1,9,,,,,,,,,,,,,,,,,,,,,,,,,,,,,,,,,,,,,,,,,,,,,,,,,,,,,,,,,,,,,,,,,,,
,,,,,,,,,,60726683b225d693c1b6ff86,55,Kobieta,2022-06-04_16h09.16.216,task,2021.1.4,MacIntel,59.97720866,628b806c463b948bc644b84f,629af6fa36416b0872fb45d0,,,,,,,,,,,,,,,,,,,,,,,2,"[""2""]",1,[2.992400000005887],"[3.9712999999820795,13.090300000011894,8.069200000017872,4.080299999982117,6.150900000006004,6.778199999988033,2.717999999999961,2.992400000005887]",0,7,7,2,1,Practice,3,(4x4) - 14,2,,,,,,,,,,,,,,,,,,,,,,,,,,,,,,,,,,,,,,,,,,,,,,,,,,,,,,,,,,,,,,,,,,,
,,,,,,,,,,60726683b225d693c1b6ff86,55,Kobieta,2022-06-04_16h09.16.216,task,2021.1.4,MacIntel,59.97720866,628b806c463b948bc644b84f,629af6fa36416b0872fb45d0,,,,,,,,,,,,,,,,,,,,,,,8,"[""8""]",1,[2.355799999982196],"[3.9712999999820795,13.090300000011894,8.069200000017872,4.080299999982117,6.150900000006004,6.778199999988033,2.717999999999961,2.992400000005887,2.355799999982196]",0,8,8,8,1,Practice,9,(3x3) - 1,8,,,,,,,,,,,,,,,,,,,,,,,,,,,,,,,,,,,,,,,,,,,,,,,,,,,,,,,,,,,,,,,,,,,
,,,,,,,,,,60726683b225d693c1b6ff86,55,Kobieta,2022-06-04_16h09.16.216,task,2021.1.4,MacIntel,59.97720866,628b806c463b948bc644b84f,629af6fa36416b0872fb45d0,,,,,,,,,,,,,,,,,,,,,,,7,"[""7""]",0,[4.608700000017848],"[3.9712999999820795,13.090300000011894,8.069200000017872,4.080299999982117,6.150900000006004,6.778199999988033,2.717999999999961,2.992400000005887,2.355799999982196,4.608700000017848]",0,9,9,5,1,Practice,6,(4/2) + 3,5,,,,,,,,,,,,,,,,,,,,,,,,,,,,,,,,,,,,,,,,,,,,,,,,,,,,,,,,,,,,,,,,,,,
,,,,,,,,,,60726683b225d693c1b6ff86,55,Kobieta,2022-06-04_16h09.16.216,task,2021.1.4,MacIntel,59.97720866,628b806c463b948bc644b84f,629af6fa36416b0872fb45d0,,,,,,,,,,,,,,,,,,,,,,,,,,,,,,,,,,,,,0.9,54.8151,3.65434,128.7134549,2.929316814,11.21197738,space,2.9257,0,0,0,0,1,,,,,,,,,,,,,,,,,,,,,,,,,,,,,,,,,,,,,,,,,,,,,,,,,,,,,,
,,,,,,,,,,60726683b225d693c1b6ff86,55,Kobieta,2022-06-04_16h09.16.216,task,2021.1.4,MacIntel,59.97720866,628b806c463b948bc644b84f,629af6fa36416b0872fb45d0,,,,,,,,,,,,,,,,,,,,,,,6,,,,,,,,,,Practice,7,(25/5) + 1,6,,,,,,,,,,,,,,space,13.1855,"[""6""]",1,[4.7708000000119455],1,0,0,0,6,1,,,,,,,,,,,,,,,,,,,,,,,,,,,,,,,,,,,,,,,,,,,
,,,,,,,,,,60726683b225d693c1b6ff86,55,Kobieta,2022-06-04_16h09.16.216,task,2021.1.4,MacIntel,59.97720866,628b806c463b948bc644b84f,629af6fa36416b0872fb45d0,,,,,,,,,,X V Q F H G B L J M P D K C T S W R N Z,,,,,,,,,,,,,,,,,,,,,,,,,,,,,,,,,,,,,,,,,,,,,,,,,,,0,0,0,0,1,,,,,,,,,,,,,,,,,,,,,,,,,,,,,,,,,,,,,,
,,,,,,,,,,60726683b225d693c1b6ff86,55,Kobieta,2022-06-04_16h09.16.216,task,2021.1.4,MacIntel,59.97720866,628b806c463b948bc644b84f,629af6fa36416b0872fb45d0,,,,,,,,,,,,,,,,,,,,,,,,,,,,,,,,,Practice,10,(20/2) - 1,9,,,,,,,,,,,,,,,,,0,,0,0,0,0,9,1,,,,,,,,,,,,,,,,,,,,,,,,,,,,,,,,,,,,,,,,,,,
,,,,,,,,,,60726683b225d693c1b6ff86,55,Kobieta,2022-06-04_16h09.16.216,task,2021.1.4,MacIntel,59.97720866,628b806c463b948bc644b84f,629af6fa36416b0872fb45d0,,,,,,,,,,,,,,,,,,,,,,,,,,,,,,,,,Practice,5,(2x6) - 8,4,,,,,,,,,,,,,,,,,0,,0,0,1,1,4,1,,,,,,,,,,,,,,,,,,,,,,,,,,,,,,,,,,,,,,,,,,,
,,,,,,,,,,60726683b225d693c1b6ff86,55,Kobieta,2022-06-04_16h09.16.216,task,2021.1.4,MacIntel,59.97720866,628b806c463b948bc644b84f,629af6fa36416b0872fb45d0,,,,,,,,,,,,,,,,,,,,,,,8,,,,,,,,,,Practice,9,(3x3) - 1,8,,,,,,,,,,,,,,,,"[""8""]",1,[1.8370999999940523],1,0,2,2,8,1,,,,,,,,,,,,,,,,,,,,,,,,,,,,,,,,,,,,,,,,,,,
,,,,,,,,,,60726683b225d693c1b6ff86,55,Kobieta,2022-06-04_16h09.16.216,task,2021.1.4,MacIntel,59.97720866,628b806c463b948bc644b84f,629af6fa36416b0872fb45d0,,,,,,,,,,X V Q F H G B L J M P D K C T S W R N Z,,,,,,,,,,,,,,,,,,,,,,,,,,,,,,,,,,,,,,,,,,,,,,,,,,,1,0,1,0,1,,,,,,,,,,,,,,,,,,,,,,,,,,,,,,,,,,,,,,
,,,,,,,,,,60726683b225d693c1b6ff86,55,Kobieta,2022-06-04_16h09.16.216,task,2021.1.4,MacIntel,59.97720866,628b806c463b948bc644b84f,629af6fa36416b0872fb45d0,,,,,,,,,,,,,,,,,,,,,,,,,,,,,,,,,,,,,,,,,,,,,,,,,,,,,,,,,,,,,,,,,,zt,"[""z"",""t""]",0,"[4.450300000011907,4.963499999999954,8.000999999999976]",1,0,0,0,0,1,,,,,,,,,,,,,,,,,,,,,,,,,,,,
,,,,,,,,,,60726683b225d693c1b6ff86,55,Kobieta,2022-06-04_16h09.16.216,task,2021.1.4,MacIntel,59.97720866,628b806c463b948bc644b84f,629af6fa36416b0872fb45d0,,,,,,,,,,,,,,,,,,,,,,,1,,,,,,,,,,Practice,2,(4x4) - 15,1,,,,,,,,,,,,,,,,"[""1""]",1,[2.9329000000059295],1,0,0,0,1,1,,,,,,,,,,,,,,,,,,,,,,,,,,,,,,,,,,,,,,,,,,,
,,,,,,,,,,60726683b225d693c1b6ff86,55,Kobieta,2022-06-04_16h09.16.216,task,2021.1.4,MacIntel,59.97720866,628b806c463b948bc644b84f,629af6fa36416b0872fb45d0,,,,,,,,,,X V Q F H G B L J M P D K C T S W R N Z,,,,,,,,,,,,,,,,,,,,,,,,,,,,,,,,,,,,,,,,,,,,,,,,,,,0,0,0,0,1,,,,,,,,,,,,,,,,,,,,,,,,,,,,,,,,,,,,,,
,,,,,,,,,,60726683b225d693c1b6ff86,55,Kobieta,2022-06-04_16h09.16.216,task,2021.1.4,MacIntel,59.97720866,628b806c463b948bc644b84f,629af6fa36416b0872fb45d0,,,,,,,,,,,,,,,,,,,,,,,1,,,,,,,,,,Practice,2,(4x4) - 15,1,,,,,,,,,,,,,,,,"[""1""]",1,[5.988699999988057],1,0,0,0,1,1,,,,,,,,,,,,,,,,,,,,,,,,,,,,,,,,,,,,,,,,,,,
,,,,,,,,,,60726683b225d693c1b6ff86,55,Kobieta,2022-06-04_16h09.16.216,task,2021.1.4,MacIntel,59.97720866,628b806c463b948bc644b84f,629af6fa36416b0872fb45d0,,,,,,,,,,X V Q F H G B L J M P D K C T S W R N Z,,,,,,,,,,,,,,,,,,,,,,,,,,,,,,,,,,,,,,,,,,,,,,,,,,,1,0,1,0,1,,,,,,,,,,,,,,,,,,,,,,,,,,,,,,,,,,,,,,
,,,,,,,,,,60726683b225d693c1b6ff86,55,Kobieta,2022-06-04_16h09.16.216,task,2021.1.4,MacIntel,59.97720866,628b806c463b948bc644b84f,629af6fa36416b0872fb45d0,,,,,,,,,,,,,,,,,,,,,,,,,,,,,,,,,,,,,,,,,,,,,,,,,,,,,,,,,,,,,,,,,,dg,"[""d"",""g""]",0,"[3.090900000005945,3.332599999994045,4.388599999994085]",1,1,0,1,0,1,,,,,,,,,,,,,,,,,,,,,,,,,,,,
,,,,,,,,,,60726683b225d693c1b6ff86,55,Kobieta,2022-06-04_16h09.16.216,task,2021.1.4,MacIntel,59.97720866,628b806c463b948bc644b84f,629af6fa36416b0872fb45d0,,,,,,,,,,,,,,,,,,,,,,,0,,,,,,,,,,Practice,1,(3x3) -  9,0,,,,,,,,,,,,,,,,"[""0""]",1,[2.320500000000038],1,0,0,0,0,1,,,,,,,,,,,,,,,,,,,,,,,,,,,,,,,,,,,,,,,,,,,
,,,,,,,,,,60726683b225d693c1b6ff86,55,Kobieta,2022-06-04_16h09.16.216,task,2021.1.4,MacIntel,59.97720866,628b806c463b948bc644b84f,629af6fa36416b0872fb45d0,,,,,,,,,,X V Q F H G B L J M P D K C T S W R N Z,,,,,,,,,,,,,,,,,,,,,,,,,,,,,,,,,,,,,,,,,,,,,,,,,,,0,0,0,0,1,,,,,,,,,,,,,,,,,,,,,,,,,,,,,,,,,,,,,,
,,,,,,,,,,60726683b225d693c1b6ff86,55,Kobieta,2022-06-04_16h09.16.216,task,2021.1.4,MacIntel,59.97720866,628b806c463b948bc644b84f,629af6fa36416b0872fb45d0,,,,,,,,,,,,,,,,,,,,,,,3,,,,,,,,,,Practice,4,(8/4) + 1,3,,,,,,,,,,,,,,,,"[""3""]",1,[4.299299999982168],1,0,0,0,3,1,,,,,,,,,,,,,,,,,,,,,,,,,,,,,,,,,,,,,,,,,,,
,,,,,,,,,,60726683b225d693c1b6ff86,55,Kobieta,2022-06-04_16h09.16.216,task,2021.1.4,MacIntel,59.97720866,628b806c463b948bc644b84f,629af6fa36416b0872fb45d0,,,,,,,,,,X V Q F H G B L J M P D K C T S W R N Z,,,,,,,,,,,,,,,,,,,,,,,,,,,,,,,,,,,,,,,,,,,,,,,,,,,1,0,1,0,1,,,,,,,,,,,,,,,,,,,,,,,,,,,,,,,,,,,,,,
,,,,,,,,,,60726683b225d693c1b6ff86,55,Kobieta,2022-06-04_16h09.16.216,task,2021.1.4,MacIntel,59.97720866,628b806c463b948bc644b84f,629af6fa36416b0872fb45d0,,,,,,,,,,,,,,,,,,,,,,,,,,,,,,,,,,,,,,,,,,,,,,,,,,,,,,,,,,,,,,,,,,qk,"[""q"",""k""]",0,"[3.538400000005936,4.2572000000178605,6.544999999999959]",1,2,0,2,0,1,,,,,,,,,,,,,,,,,,,,,,,,,,,,
,,,,,,,,,,60726683b225d693c1b6ff86,55,Kobieta,2022-06-04_16h09.16.216,task,2021.1.4,MacIntel,59.97720866,628b806c463b948bc644b84f,629af6fa36416b0872fb45d0,,,,,,,,,,,,,,,,,,,,,,,,,,,,,,,,,Task,37,(3/3) + 5,6,,,,,,,,,,,,,,,,,,,0,,,,,,,,,,,,,,,,,,,,,space,11.591,,0,0,0,0,36,1,,,,,,,,,,,,,,,,,,,
,,,,,,,,,,60726683b225d693c1b6ff86,55,Kobieta,2022-06-04_16h09.16.216,task,2021.1.4,MacIntel,59.97720866,628b806c463b948bc644b84f,629af6fa36416b0872fb45d0,,,,,,,,,,,,,,,,,,,,,,,7,,,,,,,,,,Task,14,(2x2) + 3,7,,,,,,,,,,,,,,,,,,,1,,,,,,,,,,,,,,,,,,,,,,,"[""7""]",1,0,1,1,13,1,[3.0723000000118645],,,,,,,,,,,,,,,,,,
,,,,,,,,,,60726683b225d693c1b6ff86,55,Kobieta,2022-06-04_16h09.16.216,task,2021.1.4,MacIntel,59.97720866,628b806c463b948bc644b84f,629af6fa36416b0872fb45d0,,,,,,,,,,X V Q F H G B L J M P D K C T S W R N Z,,,,,,,,,,,,,,,,,,,,,,,,,,,,,,,,,,,,,,,,,,,,,,,,,,,,,,,,,,,,,,,,,,,,,,,,,,,,0,0,0,0,1,,,,,,,,,,,,,
,,,,,,,,,,60726683b225d693c1b6ff86,55,Kobieta,2022-06-04_16h09.16.216,task,2021.1.4,MacIntel,59.97720866,628b806c463b948bc644b84f,629af6fa36416b0872fb45d0,,,,,,,,,,,,,,,,,,,,,,,6,,,,,,,,,,Task,5,(2x3) + 0,6,,,,,,,,,,,,,,,,,,,1,,,,,,,,,,,,,,,,,,,,,,,"[""6""]",1,0,0,0,4,1,[3.372500000000059],,,,,,,,,,,,,,,,,,
,,,,,,,,,,60726683b225d693c1b6ff86,55,Kobieta,2022-06-04_16h09.16.216,task,2021.1.4,MacIntel,59.97720866,628b806c463b948bc644b84f,629af6fa36416b0872fb45d0,,,,,,,,,,X V Q F H G B L J M P D K C T S W R N Z,,,,,,,,,,,,,,,,,,,,,,,,,,,,,,,,,,,,,,,,,,,,,,,,,,,,,,,,,,,,,,,,,,,,,,,,,,,,1,0,1,0,1,,,,,,,,,,,,,
,,,,,,,,,,60726683b225d693c1b6ff86,55,Kobieta,2022-06-04_16h09.16.216,task,2021.1.4,MacIntel,59.97720866,628b806c463b948bc644b84f,629af6fa36416b0872fb45d0,,,,,,,,,,,,,,,,,,,,,,,,,,,,,,,,,,,,,,,,,,,,,,,,,,,,,,,,,,,,,,,,,,,,,,,,,,,,,,,,,,,,,,,,,,,zl,"[""z"",""l""]",0,"[2.9584000000060087,3.526699999988068,6.294599999994034]",1,ZL,0,0,0,0,1,,
,,,,,,,,,,60726683b225d693c1b6ff86,55,Kobieta,2022-06-04_16h09.16.216,task,2021.1.4,MacIntel,59.97720866,628b806c463b948bc644b84f,629af6fa36416b0872fb45d0,,,,,,,,,,,,,,,,,,,,,,,1,,,,,,,,,,Task,9,(3x7) - 20,1,,,,,,,,,,,,,,,,,,,1,,,,,,,,,,,,,,,,,,,,,,,"[""1""]",1,0,0,0,8,1,[2.993900000005965],,,,,,,,,,,,,,,,,,
,,,,,,,,,,60726683b225d693c1b6ff86,55,Kobieta,2022-06-04_16h09.16.216,task,2021.1.4,MacIntel,59.97720866,628b806c463b948bc644b84f,629af6fa36416b0872fb45d0,,,,,,,,,,X V Q F H G B L J M P D K C T S W R N Z,,,,,,,,,,,,,,,,,,,,,,,,,,,,,,,,,,,,,,,,,,,,,,,,,,,,,,,,,,,,,,,,,,,,,,,,,,,,0,0,0,0,1,,,,,,,,,,,,,
,,,,,,,,,,60726683b225d693c1b6ff86,55,Kobieta,2022-06-04_16h09.16.216,task,2021.1.4,MacIntel,59.97720866,628b806c463b948bc644b84f,629af6fa36416b0872fb45d0,,,,,,,,,,,,,,,,,,,,,,,,,,,,,,,,,Task,29,(3x8) - 19 ,5,,,,,,,,,,,,,,,,,,,0,,,,,,,,,,,,,,,,,,,,,,,,0,0,0,0,28,1,,,,,,,,,,,,,,,,,,,
,,,,,,,,,,60726683b225d693c1b6ff86,55,Kobieta,2022-06-04_16h09.16.216,task,2021.1.4,MacIntel,59.97720866,628b806c463b948bc644b84f,629af6fa36416b0872fb45d0,,,,,,,,,,,,,,,,,,,,,,,4,,,,,,,,,,Task,21,(10/2) - 1,4,,,,,,,,,,,,,,,,,,,1,,,,,,,,,,,,,,,,,,,,,,,"[""4""]",1,0,1,1,20,1,[3.929900000005887],,,,,,,,,,,,,,,,,,
,,,,,,,,,,60726683b225d693c1b6ff86,55,Kobieta,2022-06-04_16h09.16.216,task,2021.1.4,MacIntel,59.97720866,628b806c463b948bc644b84f,629af6fa36416b0872fb45d0,,,,,,,,,,X V Q F H G B L J M P D K C T S W R N Z,,,,,,,,,,,,,,,,,,,,,,,,,,,,,,,,,,,,,,,,,,,,,,,,,,,,,,,,,,,,,,,,,,,,,,,,,,,,1,0,1,0,1,,,,,,,,,,,,,
,,,,,,,,,,60726683b225d693c1b6ff86,55,Kobieta,2022-06-04_16h09.16.216,task,2021.1.4,MacIntel,59.97720866,628b806c463b948bc644b84f,629af6fa36416b0872fb45d0,,,,,,,,,,,,,,,,,,,,,,,1,,,,,,,,,,Task,13,(3x4) - 6,6,,,,,,,,,,,,,,,,,,,0,,,,,,,,,,,,,,,,,,,,,,,"[""1""]",0,0,0,0,12,1,[2.5695999999940113],,,,,,,,,,,,,,,,,,
,,,,,,,,,,60726683b225d693c1b6ff86,55,Kobieta,2022-06-04_16h09.16.216,task,2021.1.4,MacIntel,59.97720866,628b806c463b948bc644b84f,629af6fa36416b0872fb45d0,,,,,,,,,,,,,,,,,,,,,,,0,,,,,,,,,,Task,17,(2x3) - 6,0,,,,,,,,,,,,,,,,,,,1,,,,,,,,,,,,,,,,,,,,,,,"[""0""]",1,0,1,1,16,1,[4.954799999982129],,,,,,,,,,,,,,,,,,
,,,,,,,,,,60726683b225d693c1b6ff86,55,Kobieta,2022-06-04_16h09.16.216,task,2021.1.4,MacIntel,59.97720866,628b806c463b948bc644b84f,629af6fa36416b0872fb45d0,,,,,,,,,,X V Q F H G B L J M P D K C T S W R N Z,,,,,,,,,,,,,,,,,,,,,,,,,,,,,,,,,,,,,,,,,,,,,,,,,,,,,,,,,,,,,,,,,,,,,,,,,,,,2,0,2,0,1,,,,,,,,,,,,,
,,,,,,,,,,60726683b225d693c1b6ff86,55,Kobieta,2022-06-04_16h09.16.216,task,2021.1.4,MacIntel,59.97720866,628b806c463b948bc644b84f,629af6fa36416b0872fb45d0,,,,,,,,,,,,,,,,,,,,,,,,,,,,,,,,,,,,,,,,,,,,,,,,,,,,,,,,,,,,,,,,,,,,,,,,,,,,,,,,,,,,,,,,,,,vnl,"[""v"",""n"",""l""]",0,"[3.7520999999941296,4.319099999994137,4.7169999999999845,5.703199999988101]",1,VNL,1,0,1,0,1,,
,,,,,,,,,,60726683b225d693c1b6ff86,55,Kobieta,2022-06-04_16h09.16.216,task,2021.1.4,MacIntel,59.97720866,628b806c463b948bc644b84f,629af6fa36416b0872fb45d0,,,,,,,,,,,,,,,,,,,,,,,3,,,,,,,,,,Task,3,(2x3) - 3,3,,,,,,,,,,,,,,,,,,,1,,,,,,,,,,,,,,,,,,,,,,,"[""3""]",1,0,0,0,2,1,[3.778400000005945],,,,,,,,,,,,,,,,,,
,,,,,,,,,,60726683b225d693c1b6ff86,55,Kobieta,2022-06-04_16h09.16.216,task,2021.1.4,MacIntel,59.97720866,628b806c463b948bc644b84f,629af6fa36416b0872fb45d0,,,,,,,,,,X V Q F H G B L J M P D K C T S W R N Z,,,,,,,,,,,,,,,,,,,,,,,,,,,,,,,,,,,,,,,,,,,,,,,,,,,,,,,,,,,,,,,,,,,,,,,,,,,,0,0,0,0,1,,,,,,,,,,,,,
,,,,,,,,,,60726683b225d693c1b6ff86,55,Kobieta,2022-06-04_16h09.16.216,task,2021.1.4,MacIntel,59.97720866,628b806c463b948bc644b84f,629af6fa36416b0872fb45d0,,,,,,,,,,,,,,,,,,,,,,,,,,,,,,,,,Task,15,(3x7) - 13,8,,,,,,,,,,,,,,,,,,,0,,,,,,,,,,,,,,,,,,,,,,,,0,0,0,0,14,1,,,,,,,,,,,,,,,,,,,
,,,,,,,,,,60726683b225d693c1b6ff86,55,Kobieta,2022-06-04_16h09.16.216,task,2021.1.4,MacIntel,59.97720866,628b806c463b948bc644b84f,629af6fa36416b0872fb45d0,,,,,,,,,,,,,,,,,,,,,,,6,,,,,,,,,,Task,37,(3/3) + 5,6,,,,,,,,,,,,,,,,,,,1,,,,,,,,,,,,,,,,,,,,,,,"[""6""]",1,0,1,1,36,1,[5.422700000017926],,,,,,,,,,,,,,,,,,
,,,,,,,,,,60726683b225d693c1b6ff86,55,Kobieta,2022-06-04_16h09.16.216,task,2021.1.4,MacIntel,59.97720866,628b806c463b948bc644b84f,629af6fa36416b0872fb45d0,,,,,,,,,,X V Q F H G B L J M P D K C T S W R N Z,,,,,,,,,,,,,,,,,,,,,,,,,,,,,,,,,,,,,,,,,,,,,,,,,,,,,,,,,,,,,,,,,,,,,,,,,,,,1,0,1,0,1,,,,,,,,,,,,,
,,,,,,,,,,60726683b225d693c1b6ff86,55,Kobieta,2022-06-04_16h09.16.216,task,2021.1.4,MacIntel,59.97720866,628b806c463b948bc644b84f,629af6fa36416b0872fb45d0,,,,,,,,,,,,,,,,,,,,,,,9,,,,,,,,,,Task,7,(3x7) - 12,9,,,,,,,,,,,,,,,,,,,1,,,,,,,,,,,,,,,,,,,,,,,"[""9""]",1,0,0,0,6,1,[7.595300000011889],,,,,,,,,,,,,,,,,,
,,,,,,,,,,60726683b225d693c1b6ff86,55,Kobieta,2022-06-04_16h09.16.216,task,2021.1.4,MacIntel,59.97720866,628b806c463b948bc644b84f,629af6fa36416b0872fb45d0,,,,,,,,,,X V Q F H G B L J M P D K C T S W R N Z,,,,,,,,,,,,,,,,,,,,,,,,,,,,,,,,,,,,,,,,,,,,,,,,,,,,,,,,,,,,,,,,,,,,,,,,,,,,2,0,2,0,1,,,,,,,,,,,,,
,,,,,,,,,,60726683b225d693c1b6ff86,55,Kobieta,2022-06-04_16h09.16.216,task,2021.1.4,MacIntel,59.97720866,628b806c463b948bc644b84f,629af6fa36416b0872fb45d0,,,,,,,,,,,,,,,,,,,,,,,9,,,,,,,,,,Task,24,(2x2) + 5,9,,,,,,,,,,,,,,,,,,,1,,,,,,,,,,,,,,,,,,,,,,,"[""9""]",1,0,0,0,23,1,[3.0702000000178487],,,,,,,,,,,,,,,,,,
,,,,,,,,,,60726683b225d693c1b6ff86,55,Kobieta,2022-06-04_16h09.16.216,task,2021.1.4,MacIntel,59.97720866,628b806c463b948bc644b84f,629af6fa36416b0872fb45d0,,,,,,,,,,X V Q F H G B L J M P D K C T S W R N Z,,,,,,,,,,,,,,,,,,,,,,,,,,,,,,,,,,,,,,,,,,,,,,,,,,,,,,,,,,,,,,,,,,,,,,,,,,,,3,0,3,0,1,,,,,,,,,,,,,
,,,,,,,,,,60726683b225d693c1b6ff86,55,Kobieta,2022-06-04_16h09.16.216,task,2021.1.4,MacIntel,59.97720866,628b806c463b948bc644b84f,629af6fa36416b0872fb45d0,,,,,,,,,,,,,,,,,,,,,,,,,,,,,,,,,,,,,,,,,,,,,,,,,,,,,,,,,,,,,,,,,,,,,,,,,,,,,,,,,,,,,,,,,,,dhzt,"[""d"",""h"",""z"",""t""]",0,"[3.6028999999762163,4.111899999976117,5.3886999999880345,5.9241999999881045,8.890999999999963]",1,DHZT,2,0,2,0,1,,
,,,,,,,,,,60726683b225d693c1b6ff86,55,Kobieta,2022-06-04_16h09.16.216,task,2021.1.4,MacIntel,59.97720866,628b806c463b948bc644b84f,629af6fa36416b0872fb45d0,,,,,,,,,,,,,,,,,,,,,,,6,,,,,,,,,,Task,5,(2x3) + 0,6,,,,,,,,,,,,,,,,,,,1,,,,,,,,,,,,,,,,,,,,,,,"[""6""]",1,0,0,0,4,1,[2.2300999999940814],,,,,,,,,,,,,,,,,,
,,,,,,,,,,60726683b225d693c1b6ff86,55,Kobieta,2022-06-04_16h09.16.216,task,2021.1.4,MacIntel,59.97720866,628b806c463b948bc644b84f,629af6fa36416b0872fb45d0,,,,,,,,,,X V Q F H G B L J M P D K C T S W R N Z,,,,,,,,,,,,,,,,,,,,,,,,,,,,,,,,,,,,,,,,,,,,,,,,,,,,,,,,,,,,,,,,,,,,,,,,,,,,0,0,0,0,1,,,,,,,,,,,,,
,,,,,,,,,,60726683b225d693c1b6ff86,55,Kobieta,2022-06-04_16h09.16.216,task,2021.1.4,MacIntel,59.97720866,628b806c463b948bc644b84f,629af6fa36416b0872fb45d0,,,,,,,,,,,,,,,,,,,,,,,0,,,,,,,,,,Task,8,(1x5) - 5,0,,,,,,,,,,,,,,,,,,,1,,,,,,,,,,,,,,,,,,,,,,,"[""0""]",1,0,0,0,7,1,[2.7348000000118873],,,,,,,,,,,,,,,,,,
,,,,,,,,,,60726683b225d693c1b6ff86,55,Kobieta,2022-06-04_16h09.16.216,task,2021.1.4,MacIntel,59.97720866,628b806c463b948bc644b84f,629af6fa36416b0872fb45d0,,,,,,,,,,X V Q F H G B L J M P D K C T S W R N Z,,,,,,,,,,,,,,,,,,,,,,,,,,,,,,,,,,,,,,,,,,,,,,,,,,,,,,,,,,,,,,,,,,,,,,,,,,,,1,0,1,0,1,,,,,,,,,,,,,
,,,,,,,,,,60726683b225d693c1b6ff86,55,Kobieta,2022-06-04_16h09.16.216,task,2021.1.4,MacIntel,59.97720866,628b806c463b948bc644b84f,629af6fa36416b0872fb45d0,,,,,,,,,,,,,,,,,,,,,,,3,,,,,,,,,,Task,3,(2x3) - 3,3,,,,,,,,,,,,,,,,,,,1,,,,,,,,,,,,,,,,,,,,,,,"[""3""]",1,0,0,0,2,1,[2.6876999999881264],,,,,,,,,,,,,,,,,,
,,,,,,,,,,60726683b225d693c1b6ff86,55,Kobieta,2022-06-04_16h09.16.216,task,2021.1.4,MacIntel,59.97720866,628b806c463b948bc644b84f,629af6fa36416b0872fb45d0,,,,,,,,,,X V Q F H G B L J M P D K C T S W R N Z,,,,,,,,,,,,,,,,,,,,,,,,,,,,,,,,,,,,,,,,,,,,,,,,,,,,,,,,,,,,,,,,,,,,,,,,,,,,2,0,2,0,1,,,,,,,,,,,,,
,,,,,,,,,,60726683b225d693c1b6ff86,55,Kobieta,2022-06-04_16h09.16.216,task,2021.1.4,MacIntel,59.97720866,628b806c463b948bc644b84f,629af6fa36416b0872fb45d0,,,,,,,,,,,,,,,,,,,,,,,8,,,,,,,,,,Task,39,(5x3) - 7,8,,,,,,,,,,,,,,,,,,,1,,,,,,,,,,,,,,,,,,,,,,,"[""8""]",1,0,0,0,38,1,[4.220900000006054],,,,,,,,,,,,,,,,,,
,,,,,,,,,,60726683b225d693c1b6ff86,55,Kobieta,2022-06-04_16h09.16.216,task,2021.1.4,MacIntel,59.97720866,628b806c463b948bc644b84f,629af6fa36416b0872fb45d0,,,,,,,,,,X V Q F H G B L J M P D K C T S W R N Z,,,,,,,,,,,,,,,,,,,,,,,,,,,,,,,,,,,,,,,,,,,,,,,,,,,,,,,,,,,,,,,,,,,,,,,,,,,,3,0,3,0,1,,,,,,,,,,,,,
,,,,,,,,,,60726683b225d693c1b6ff86,55,Kobieta,2022-06-04_16h09.16.216,task,2021.1.4,MacIntel,59.97720866,628b806c463b948bc644b84f,629af6fa36416b0872fb45d0,,,,,,,,,,,,,,,,,,,,,,,7,,,,,,,,,,Task,16,(3x8) - 15,9,,,,,,,,,,,,,,,,,,,0,,,,,,,,,,,,,,,,,,,,,,,"[""7""]",0,0,0,0,15,1,[7.772199999988061],,,,,,,,,,,,,,,,,,
,,,,,,,,,,60726683b225d693c1b6ff86,55,Kobieta,2022-06-04_16h09.16.216,task,2021.1.4,MacIntel,59.97720866,628b806c463b948bc644b84f,629af6fa36416b0872fb45d0,,,,,,,,,,,,,,,,,,,,,,,5,,,,,,,,,,Task,1,(12/6) - 1,1,,,,,,,,,,,,,,,,,,,0,,,,,,,,,,,,,,,,,,,,,,,"[""5""]",0,0,1,1,0,1,[4.698800000011829],,,,,,,,,,,,,,,,,,
,,,,,,,,,,60726683b225d693c1b6ff86,55,Kobieta,2022-06-04_16h09.16.216,task,2021.1.4,MacIntel,59.97720866,628b806c463b948bc644b84f,629af6fa36416b0872fb45d0,,,,,,,,,,,,,,,,,,,,,,,8,,,,,,,,,,Task,15,(3x7) - 13,8,,,,,,,,,,,,,,,,,,,1,,,,,,,,,,,,,,,,,,,,,,,"[""8""]",1,0,2,2,14,1,[6.34880000001192],,,,,,,,,,,,,,,,,,
,,,,,,,,,,60726683b225d693c1b6ff86,55,Kobieta,2022-06-04_16h09.16.216,task,2021.1.4,MacIntel,59.97720866,628b806c463b948bc644b84f,629af6fa36416b0872fb45d0,,,,,,,,,,X V Q F H G B L J M P D K C T S W R N Z,,,,,,,,,,,,,,,,,,,,,,,,,,,,,,,,,,,,,,,,,,,,,,,,,,,,,,,,,,,,,,,,,,,,,,,,,,,,4,0,4,0,1,,,,,,,,,,,,,
,,,,,,,,,,60726683b225d693c1b6ff86,55,Kobieta,2022-06-04_16h09.16.216,task,2021.1.4,MacIntel,59.97720866,628b806c463b948bc644b84f,629af6fa36416b0872fb45d0,,,,,,,,,,,,,,,,,,,,,,,,,,,,,,,,,,,,,,,,,,,,,,,,,,,,,,,,,,,,,,,,,,,,,,,,,,,,,,,,,,,,,,,,,,,jknjw,"[""j"",""k"",""n"",""j"",""w""]",0,"[3.980000000000018,4.379900000005932,6.130400000006034,6.429599999994025,6.955800000011891,7.907099999994102]",1,JKNJW,3,0,3,0,1,,
,,,,,,,,,,60726683b225d693c1b6ff86,55,Kobieta,2022-06-04_16h09.16.216,task,2021.1.4,MacIntel,59.97720866,628b806c463b948bc644b84f,629af6fa36416b0872fb45d0,,,,,,,,,,,,,,,,,,,,,,,3,,,,,,,,,,Task,27,(3/3) + 2,3,,,,,,,,,,,,,,,,,,,1,,,,,,,,,,,,,,,,,,,,,,,"[""3""]",1,0,0,0,26,1,[5.240000000000009],,,,,,,,,,,,,,,,,,
,,,,,,,,,,60726683b225d693c1b6ff86,55,Kobieta,2022-06-04_16h09.16.216,task,2021.1.4,MacIntel,59.97720866,628b806c463b948bc644b84f,629af6fa36416b0872fb45d0,,,,,,,,,,X V Q F H G B L J M P D K C T S W R N Z,,,,,,,,,,,,,,,,,,,,,,,,,,,,,,,,,,,,,,,,,,,,,,,,,,,,,,,,,,,,,,,,,,,,,,,,,,,,0,0,0,0,1,,,,,,,,,,,,,
,,,,,,,,,,60726683b225d693c1b6ff86,55,Kobieta,2022-06-04_16h09.16.216,task,2021.1.4,MacIntel,59.97720866,628b806c463b948bc644b84f,629af6fa36416b0872fb45d0,,,,,,,,,,,,,,,,,,,,,,,5,,,,,,,,,,Task,29,(3x8) - 19 ,5,,,,,,,,,,,,,,,,,,,1,,,,,,,,,,,,,,,,,,,,,,,"[""5""]",1,0,0,0,28,1,[8.973300000011932],,,,,,,,,,,,,,,,,,
,,,,,,,,,,60726683b225d693c1b6ff86,55,Kobieta,2022-06-04_16h09.16.216,task,2021.1.4,MacIntel,59.97720866,628b806c463b948bc644b84f,629af6fa36416b0872fb45d0,,,,,,,,,,X V Q F H G B L J M P D K C T S W R N Z,,,,,,,,,,,,,,,,,,,,,,,,,,,,,,,,,,,,,,,,,,,,,,,,,,,,,,,,,,,,,,,,,,,,,,,,,,,,1,0,1,0,1,,,,,,,,,,,,,
,,,,,,,,,,60726683b225d693c1b6ff86,55,Kobieta,2022-06-04_16h09.16.216,task,2021.1.4,MacIntel,59.97720866,628b806c463b948bc644b84f,629af6fa36416b0872fb45d0,,,,,,,,,,,,,,,,,,,,,,,5,,,,,,,,,,Task,12,(4x4) - 11,5,,,,,,,,,,,,,,,,,,,1,,,,,,,,,,,,,,,,,,,,,,,"[""5""]",1,0,0,0,11,1,[4.783599999994067],,,,,,,,,,,,,,,,,,
,,,,,,,,,,60726683b225d693c1b6ff86,55,Kobieta,2022-06-04_16h09.16.216,task,2021.1.4,MacIntel,59.97720866,628b806c463b948bc644b84f,629af6fa36416b0872fb45d0,,,,,,,,,,X V Q F H G B L J M P D K C T S W R N Z,,,,,,,,,,,,,,,,,,,,,,,,,,,,,,,,,,,,,,,,,,,,,,,,,,,,,,,,,,,,,,,,,,,,,,,,,,,,2,0,2,0,1,,,,,,,,,,,,,
,,,,,,,,,,60726683b225d693c1b6ff86,55,Kobieta,2022-06-04_16h09.16.216,task,2021.1.4,MacIntel,59.97720866,628b806c463b948bc644b84f,629af6fa36416b0872fb45d0,,,,,,,,,,,,,,,,,,,,,,,5,,,,,,,,,,Task,29,(3x8) - 19 ,5,,,,,,,,,,,,,,,,,,,1,,,,,,,,,,,,,,,,,,,,,,,"[""5""]",1,0,0,0,28,1,[3.801499999999919],,,,,,,,,,,,,,,,,,
,,,,,,,,,,60726683b225d693c1b6ff86,55,Kobieta,2022-06-04_16h09.16.216,task,2021.1.4,MacIntel,59.97720866,628b806c463b948bc644b84f,629af6fa36416b0872fb45d0,,,,,,,,,,X V Q F H G B L J M P D K C T S W R N Z,,,,,,,,,,,,,,,,,,,,,,,,,,,,,,,,,,,,,,,,,,,,,,,,,,,,,,,,,,,,,,,,,,,,,,,,,,,,3,0,3,0,1,,,,,,,,,,,,,
,,,,,,,,,,60726683b225d693c1b6ff86,55,Kobieta,2022-06-04_16h09.16.216,task,2021.1.4,MacIntel,59.97720866,628b806c463b948bc644b84f,629af6fa36416b0872fb45d0,,,,,,,,,,,,,,,,,,,,,,,2,,,,,,,,,,Task,26,(2x9) - 16,2,,,,,,,,,,,,,,,,,,,1,,,,,,,,,,,,,,,,,,,,,,,"[""2""]",1,0,0,0,25,1,[3.2302000000179305],,,,,,,,,,,,,,,,,,
,,,,,,,,,,60726683b225d693c1b6ff86,55,Kobieta,2022-06-04_16h09.16.216,task,2021.1.4,MacIntel,59.97720866,628b806c463b948bc644b84f,629af6fa36416b0872fb45d0,,,,,,,,,,X V Q F H G B L J M P D K C T S W R N Z,,,,,,,,,,,,,,,,,,,,,,,,,,,,,,,,,,,,,,,,,,,,,,,,,,,,,,,,,,,,,,,,,,,,,,,,,,,,4,0,4,0,1,,,,,,,,,,,,,
,,,,,,,,,,60726683b225d693c1b6ff86,55,Kobieta,2022-06-04_16h09.16.216,task,2021.1.4,MacIntel,59.97720866,628b806c463b948bc644b84f,629af6fa36416b0872fb45d0,,,,,,,,,,,,,,,,,,,,,,,9,,,,,,,,,,Task,21,(10/2) - 1,4,,,,,,,,,,,,,,,,,,,0,,,,,,,,,,,,,,,,,,,,,,,"[""9""]",0,0,0,0,20,1,[2.4106999999880827],,,,,,,,,,,,,,,,,,
,,,,,,,,,,60726683b225d693c1b6ff86,55,Kobieta,2022-06-04_16h09.16.216,task,2021.1.4,MacIntel,59.97720866,628b806c463b948bc644b84f,629af6fa36416b0872fb45d0,,,,,,,,,,,,,,,,,,,,,,,3,,,,,,,,,,Task,3,(2x3) - 3,3,,,,,,,,,,,,,,,,,,,1,,,,,,,,,,,,,,,,,,,,,,,"[""3""]",1,0,1,1,2,1,[4.943799999982161],,,,,,,,,,,,,,,,,,
,,,,,,,,,,60726683b225d693c1b6ff86,55,Kobieta,2022-06-04_16h09.16.216,task,2021.1.4,MacIntel,59.97720866,628b806c463b948bc644b84f,629af6fa36416b0872fb45d0,,,,,,,,,,X V Q F H G B L J M P D K C T S W R N Z,,,,,,,,,,,,,,,,,,,,,,,,,,,,,,,,,,,,,,,,,,,,,,,,,,,,,,,,,,,,,,,,,,,,,,,,,,,,5,0,5,0,1,,,,,,,,,,,,,
,,,,,,,,,,60726683b225d693c1b6ff86,55,Kobieta,2022-06-04_16h09.16.216,task,2021.1.4,MacIntel,59.97720866,628b806c463b948bc644b84f,629af6fa36416b0872fb45d0,,,,,,,,,,,,,,,,,,,,,,,,,,,,,,,,,,,,,,,,,,,,,,,,,,,,,,,,,,,,,,,,,,,,,,,,,,,,,,,,,,,,,,,,,,,dmvjg,"[""d"",""m"",""v"",""j"",""g""]",0,"[5.52150000000006,6.923099999994065,8.45829999998216,8.970299999982103,10.156199999988075,11.307999999999993]",0,DMBVJG,4,0,4,0,1,,
,,,,,,,,,,60726683b225d693c1b6ff86,55,Kobieta,2022-06-04_16h09.16.216,task,2021.1.4,MacIntel,59.97720866,628b806c463b948bc644b84f,629af6fa36416b0872fb45d0,,,,,,,,,,,,,,,,,,,,,,,0,,,,,,,,,,Task,8,(1x5) - 5,0,,,,,,,,,,,,,,,,,,,1,,,,,,,,,,,,,,,,,,,,,,,"[""0""]",1,0,0,0,7,1,[2.7422999999821513],,,,,,,,,,,,,,,,,,
,,,,,,,,,,60726683b225d693c1b6ff86,55,Kobieta,2022-06-04_16h09.16.216,task,2021.1.4,MacIntel,59.97720866,628b806c463b948bc644b84f,629af6fa36416b0872fb45d0,,,,,,,,,,X V Q F H G B L J M P D K C T S W R N Z,,,,,,,,,,,,,,,,,,,,,,,,,,,,,,,,,,,,,,,,,,,,,,,,,,,,,,,,,,,,,,,,,,,,,,,,,,,,0,0,0,0,1,,,,,,,,,,,,,
,,,,,,,,,,60726683b225d693c1b6ff86,55,Kobieta,2022-06-04_16h09.16.216,task,2021.1.4,MacIntel,59.97720866,628b806c463b948bc644b84f,629af6fa36416b0872fb45d0,,,,,,,,,,,,,,,,,,,,,,,2,,,,,,,,,,Task,19,(6/2) - 1,2,,,,,,,,,,,,,,,,,,,1,,,,,,,,,,,,,,,,,,,,,,,"[""2""]",1,0,0,0,18,1,[4.065599999993992],,,,,,,,,,,,,,,,,,
,,,,,,,,,,60726683b225d693c1b6ff86,55,Kobieta,2022-06-04_16h09.16.216,task,2021.1.4,MacIntel,59.97720866,628b806c463b948bc644b84f,629af6fa36416b0872fb45d0,,,,,,,,,,X V Q F H G B L J M P D K C T S W R N Z,,,,,,,,,,,,,,,,,,,,,,,,,,,,,,,,,,,,,,,,,,,,,,,,,,,,,,,,,,,,,,,,,,,,,,,,,,,,1,0,1,0,1,,,,,,,,,,,,,
,,,,,,,,,,60726683b225d693c1b6ff86,55,Kobieta,2022-06-04_16h09.16.216,task,2021.1.4,MacIntel,59.97720866,628b806c463b948bc644b84f,629af6fa36416b0872fb45d0,,,,,,,,,,,,,,,,,,,,,,,0,,,,,,,,,,Task,8,(1x5) - 5,0,,,,,,,,,,,,,,,,,,,1,,,,,,,,,,,,,,,,,,,,,,,"[""0""]",1,0,0,0,7,1,[2.145900000005895],,,,,,,,,,,,,,,,,,
,,,,,,,,,,60726683b225d693c1b6ff86,55,Kobieta,2022-06-04_16h09.16.216,task,2021.1.4,MacIntel,59.97720866,628b806c463b948bc644b84f,629af6fa36416b0872fb45d0,,,,,,,,,,X V Q F H G B L J M P D K C T S W R N Z,,,,,,,,,,,,,,,,,,,,,,,,,,,,,,,,,,,,,,,,,,,,,,,,,,,,,,,,,,,,,,,,,,,,,,,,,,,,2,0,2,0,1,,,,,,,,,,,,,
,,,,,,,,,,60726683b225d693c1b6ff86,55,Kobieta,2022-06-04_16h09.16.216,task,2021.1.4,MacIntel,59.97720866,628b806c463b948bc644b84f,629af6fa36416b0872fb45d0,,,,,,,,,,,,,,,,,,,,,,,4,,,,,,,,,,Task,21,(10/2) - 1,4,,,,,,,,,,,,,,,,,,,1,,,,,,,,,,,,,,,,,,,,,,,"[""4""]",1,0,0,0,20,1,[2.5526000000238582],,,,,,,,,,,,,,,,,,
,,,,,,,,,,60726683b225d693c1b6ff86,55,Kobieta,2022-06-04_16h09.16.216,task,2021.1.4,MacIntel,59.97720866,628b806c463b948bc644b84f,629af6fa36416b0872fb45d0,,,,,,,,,,X V Q F H G B L J M P D K C T S W R N Z,,,,,,,,,,,,,,,,,,,,,,,,,,,,,,,,,,,,,,,,,,,,,,,,,,,,,,,,,,,,,,,,,,,,,,,,,,,,3,0,3,0,1,,,,,,,,,,,,,
,,,,,,,,,,60726683b225d693c1b6ff86,55,Kobieta,2022-06-04_16h09.16.216,task,2021.1.4,MacIntel,59.97720866,628b806c463b948bc644b84f,629af6fa36416b0872fb45d0,,,,,,,,,,,,,,,,,,,,,,,7,,,,,,,,,,Task,30,(6/3) + 4 ,6,,,,,,,,,,,,,,,,,,,0,,,,,,,,,,,,,,,,,,,,,,,"[""7""]",0,0,0,0,29,1,[2.3078000000118664],,,,,,,,,,,,,,,,,,
,,,,,,,,,,60726683b225d693c1b6ff86,55,Kobieta,2022-06-04_16h09.16.216,task,2021.1.4,MacIntel,59.97720866,628b806c463b948bc644b84f,629af6fa36416b0872fb45d0,,,,,,,,,,,,,,,,,,,,,,,3,,,,,,,,,,Task,27,(3/3) + 2,3,,,,,,,,,,,,,,,,,,,1,,,,,,,,,,,,,,,,,,,,,,,"[""3""]",1,0,1,1,26,1,[3.0330000000000155],,,,,,,,,,,,,,,,,,
,,,,,,,,,,60726683b225d693c1b6ff86,55,Kobieta,2022-06-04_16h09.16.216,task,2021.1.4,MacIntel,59.97720866,628b806c463b948bc644b84f,629af6fa36416b0872fb45d0,,,,,,,,,,X V Q F H G B L J M P D K C T S W R N Z,,,,,,,,,,,,,,,,,,,,,,,,,,,,,,,,,,,,,,,,,,,,,,,,,,,,,,,,,,,,,,,,,,,,,,,,,,,,4,0,4,0,1,,,,,,,,,,,,,
,,,,,,,,,,60726683b225d693c1b6ff86,55,Kobieta,2022-06-04_16h09.16.216,task,2021.1.4,MacIntel,59.97720866,628b806c463b948bc644b84f,629af6fa36416b0872fb45d0,,,,,,,,,,,,,,,,,,,,,,,5,,,,,,,,,,Task,29,(3x8) - 19 ,5,,,,,,,,,,,,,,,,,,,1,,,,,,,,,,,,,,,,,,,,,,,"[""5""]",1,0,0,0,28,1,[4.278200000017932],,,,,,,,,,,,,,,,,,
,,,,,,,,,,60726683b225d693c1b6ff86,55,Kobieta,2022-06-04_16h09.16.216,task,2021.1.4,MacIntel,59.97720866,628b806c463b948bc644b84f,629af6fa36416b0872fb45d0,,,,,,,,,,X V Q F H G B L J M P D K C T S W R N Z,,,,,,,,,,,,,,,,,,,,,,,,,,,,,,,,,,,,,,,,,,,,,,,,,,,,,,,,,,,,,,,,,,,,,,,,,,,,5,0,5,0,1,,,,,,,,,,,,,
,,,,,,,,,,60726683b225d693c1b6ff86,55,Kobieta,2022-06-04_16h09.16.216,task,2021.1.4,MacIntel,59.97720866,628b806c463b948bc644b84f,629af6fa36416b0872fb45d0,,,,,,,,,,,,,,,,,,,,,,,,,,,,,,,,,,,,,,,,,,,,,,,,,,,,,,,,,,,,,,,,,,,,,,,,,,,,,,,,,,,,,,,,,,,xxczr,"[""x"",""x"",""c"",""z"",""r""]",0,"[6.2970000000000255,7.102700000017876,8.06970000001786,9.511599999994019,10.36209999999403,11.280800000011936]",0,HXXCZR,5,0,5,0,1,,
,,,,,,,,,,60726683b225d693c1b6ff86,55,Kobieta,2022-06-04_16h09.16.216,task,2021.1.4,MacIntel,59.97720866,628b806c463b948bc644b84f,629af6fa36416b0872fb45d0,,,,,,,,,,,,,,,,,,,,,,,,,,,,,,,,,,,,,,,,,,,,,,,,,,,,,,,,,,,,,,,,,,,,,,,,,,,,,,,,,,,,,,,,,,,,,,,,,,,,,,space,2.2287
