key_resp_15.keys,key_resp_15.rt,key_resp_16.keys,key_resp_16.rt,key_resp_4.keys,key_resp_4.rt,next_letter.thisRepN,next_letter.thisTrialN,next_letter.thisN,next_letter.thisIndex,next_letter.ran,letter,participant,Wiek*,Płeć,date,expName,psychopyVersion,OS,frameRate,study_id,session,simple_recall,key_resp_5.keys,key_resp_5.rt,simple_recall_corr,simple_recall_corrkeys,next_level.thisRepN,next_level.thisTrialN,next_level.thisN,next_level.thisIndex,next_level.ran,key_resp_2.keys,key_resp_2.rt,digit_answer,key_resp.keys,key_resp.corr,key_resp.rt,RT_list,next_equation.thisRepN,next_equation.thisTrialN,next_equation.thisN,next_equation.thisIndex,next_equation.ran,Task,Trial,Problem,Operation_answer,processing_score,sumRT,meanRT,sumdiff,sd,RT,key_resp_3.keys,key_resp_3.rt,repeat_practice.thisRepN,repeat_practice.thisTrialN,repeat_practice.thisN,repeat_practice.thisIndex,repeat_practice.ran,key_resp_6.keys,key_resp_6.rt,key_resp_11.keys,key_resp_11.corr,key_resp_11.rt,operation_correct,repeat_if_wrong_prac.thisRepN,repeat_if_wrong_prac.thisTrialN,repeat_if_wrong_prac.thisN,repeat_if_wrong_prac.thisIndex,repeat_if_wrong_prac.ran,span_size_prac.thisRepN,span_size_prac.thisTrialN,span_size_prac.thisN,span_size_prac.thisIndex,span_size_prac.ran,complex_recall_practice,key_resp_9.keys,key_resp_9.corr,key_resp_9.rt,complex_prac_corr,span_recall_prac.thisRepN,span_recall_prac.thisTrialN,span_recall_prac.thisN,span_recall_prac.thisIndex,span_recall_prac.ran,key_resp_10.keys,key_resp_10.rt,key_resp_7.keys,key_resp_7.corr,key_resp_7.rt,repeat_if_wrong.thisRepN,repeat_if_wrong.thisTrialN,repeat_if_wrong.thisN,repeat_if_wrong.thisIndex,repeat_if_wrong.ran,span_size.thisRepN,span_size.thisTrialN,span_size.thisN,span_size.thisIndex,span_size.ran,complex_recall,key_resp_8.keys,key_resp_8.corr,key_resp_8.rt,complex_recall_corr,complex_recall_corrkeys,span_recall.thisRepN,span_recall.thisTrialN,span_recall.thisN,span_recall.thisIndex,span_recall.ran,key_resp_13.keys,key_resp_13.corr,key_resp_13.rt,random_loop.thisRepN,random_loop.thisTrialN,random_loop.thisN,random_loop.thisIndex,random_loop.ran,key_resp_12.keys,key_resp_12.rt
space,14.075,space,13.796,space,6.778,0,0,0,0,1,X V Q F H G B L J M P D K C T S W R N Z,607edd6030f140e8b94d477a,19,Mężczyzna,2022-06-11_09h40.33.672,task,2021.1.4,Win32,60.0240096,6299f149e92ead563fba08ef,62a446cb763199a518959d1d,,,,,,,,,,,,,,,,,,,,,,,,,,,,,,,,,,,,,,,,,,,,,,,,,,,,,,,,,,,,,,,,,,,,,,,,,,,,,,,,,,,,,,,,,,,,,,,,,,,,,
,,,,,,1,0,1,0,1,X V Q F H G B L J M P D K C T S W R N Z,607edd6030f140e8b94d477a,19,Mężczyzna,2022-06-11_09h40.33.672,task,2021.1.4,Win32,60.0240096,6299f149e92ead563fba08ef,62a446cb763199a518959d1d,,,,,,,,,,,,,,,,,,,,,,,,,,,,,,,,,,,,,,,,,,,,,,,,,,,,,,,,,,,,,,,,,,,,,,,,,,,,,,,,,,,,,,,,,,,,,,,,,,,,,
,,,,,,,,,,,,607edd6030f140e8b94d477a,19,Mężczyzna,2022-06-11_09h40.33.672,task,2021.1.4,Win32,60.0240096,6299f149e92ead563fba08ef,62a446cb763199a518959d1d,zg,"[""z"",""g""]","[3.328000000000003,3.5489999999999995,4.301000000000002]",1,ZG,0,0,0,0,1,,,,,,,,,,,,,,,,,,,,,,,,,,,,,,,,,,,,,,,,,,,,,,,,,,,,,,,,,,,,,,,,,,,,,,,,,,,,,,,,,,,,,,,,,,,
,,,,,,0,0,0,0,1,X V Q F H G B L J M P D K C T S W R N Z,607edd6030f140e8b94d477a,19,Mężczyzna,2022-06-11_09h40.33.672,task,2021.1.4,Win32,60.0240096,6299f149e92ead563fba08ef,62a446cb763199a518959d1d,,,,,,,,,,,,,,,,,,,,,,,,,,,,,,,,,,,,,,,,,,,,,,,,,,,,,,,,,,,,,,,,,,,,,,,,,,,,,,,,,,,,,,,,,,,,,,,,,,,,,
,,,,,,1,0,1,0,1,X V Q F H G B L J M P D K C T S W R N Z,607edd6030f140e8b94d477a,19,Mężczyzna,2022-06-11_09h40.33.672,task,2021.1.4,Win32,60.0240096,6299f149e92ead563fba08ef,62a446cb763199a518959d1d,,,,,,,,,,,,,,,,,,,,,,,,,,,,,,,,,,,,,,,,,,,,,,,,,,,,,,,,,,,,,,,,,,,,,,,,,,,,,,,,,,,,,,,,,,,,,,,,,,,,,
,,,,,,,,,,,,607edd6030f140e8b94d477a,19,Mężczyzna,2022-06-11_09h40.33.672,task,2021.1.4,Win32,60.0240096,6299f149e92ead563fba08ef,62a446cb763199a518959d1d,md,"[""m"",""d""]","[1.0689999999999955,1.283999999999999,1.8170000000000002]",1,MD,1,0,1,0,1,,,,,,,,,,,,,,,,,,,,,,,,,,,,,,,,,,,,,,,,,,,,,,,,,,,,,,,,,,,,,,,,,,,,,,,,,,,,,,,,,,,,,,,,,,,
,,,,,,0,0,0,0,1,X V Q F H G B L J M P D K C T S W R N Z,607edd6030f140e8b94d477a,19,Mężczyzna,2022-06-11_09h40.33.672,task,2021.1.4,Win32,60.0240096,6299f149e92ead563fba08ef,62a446cb763199a518959d1d,,,,,,,,,,,,,,,,,,,,,,,,,,,,,,,,,,,,,,,,,,,,,,,,,,,,,,,,,,,,,,,,,,,,,,,,,,,,,,,,,,,,,,,,,,,,,,,,,,,,,
,,,,,,1,0,1,0,1,X V Q F H G B L J M P D K C T S W R N Z,607edd6030f140e8b94d477a,19,Mężczyzna,2022-06-11_09h40.33.672,task,2021.1.4,Win32,60.0240096,6299f149e92ead563fba08ef,62a446cb763199a518959d1d,,,,,,,,,,,,,,,,,,,,,,,,,,,,,,,,,,,,,,,,,,,,,,,,,,,,,,,,,,,,,,,,,,,,,,,,,,,,,,,,,,,,,,,,,,,,,,,,,,,,,
,,,,,,2,0,2,0,1,X V Q F H G B L J M P D K C T S W R N Z,607edd6030f140e8b94d477a,19,Mężczyzna,2022-06-11_09h40.33.672,task,2021.1.4,Win32,60.0240096,6299f149e92ead563fba08ef,62a446cb763199a518959d1d,,,,,,,,,,,,,,,,,,,,,,,,,,,,,,,,,,,,,,,,,,,,,,,,,,,,,,,,,,,,,,,,,,,,,,,,,,,,,,,,,,,,,,,,,,,,,,,,,,,,,
,,,,,,,,,,,,607edd6030f140e8b94d477a,19,Mężczyzna,2022-06-11_09h40.33.672,task,2021.1.4,Win32,60.0240096,6299f149e92ead563fba08ef,62a446cb763199a518959d1d,rcd,"[""r"",""c"",""d""]","[1.2749999999999986,1.5840000000000032,1.8399999999999963,2.567]",1,RCD,2,0,2,0,1,,,,,,,,,,,,,,,,,,,,,,,,,,,,,,,,,,,,,,,,,,,,,,,,,,,,,,,,,,,,,,,,,,,,,,,,,,,,,,,,,,,,,,,,,,,
,,,,,,0,0,0,0,1,X V Q F H G B L J M P D K C T S W R N Z,607edd6030f140e8b94d477a,19,Mężczyzna,2022-06-11_09h40.33.672,task,2021.1.4,Win32,60.0240096,6299f149e92ead563fba08ef,62a446cb763199a518959d1d,,,,,,,,,,,,,,,,,,,,,,,,,,,,,,,,,,,,,,,,,,,,,,,,,,,,,,,,,,,,,,,,,,,,,,,,,,,,,,,,,,,,,,,,,,,,,,,,,,,,,
,,,,,,1,0,1,0,1,X V Q F H G B L J M P D K C T S W R N Z,607edd6030f140e8b94d477a,19,Mężczyzna,2022-06-11_09h40.33.672,task,2021.1.4,Win32,60.0240096,6299f149e92ead563fba08ef,62a446cb763199a518959d1d,,,,,,,,,,,,,,,,,,,,,,,,,,,,,,,,,,,,,,,,,,,,,,,,,,,,,,,,,,,,,,,,,,,,,,,,,,,,,,,,,,,,,,,,,,,,,,,,,,,,,
,,,,,,2,0,2,0,1,X V Q F H G B L J M P D K C T S W R N Z,607edd6030f140e8b94d477a,19,Mężczyzna,2022-06-11_09h40.33.672,task,2021.1.4,Win32,60.0240096,6299f149e92ead563fba08ef,62a446cb763199a518959d1d,,,,,,,,,,,,,,,,,,,,,,,,,,,,,,,,,,,,,,,,,,,,,,,,,,,,,,,,,,,,,,,,,,,,,,,,,,,,,,,,,,,,,,,,,,,,,,,,,,,,,
,,,,,,,,,,,,607edd6030f140e8b94d477a,19,Mężczyzna,2022-06-11_09h40.33.672,task,2021.1.4,Win32,60.0240096,6299f149e92ead563fba08ef,62a446cb763199a518959d1d,zrq,"[""z"",""r"",""q""]","[0.7330000000000041,1.1400000000000006,1.3999999999999915,1.766999999999996]",1,ZRQ,3,0,3,0,1,,,,,,,,,,,,,,,,,,,,,,,,,,,,,,,,,,,,,,,,,,,,,,,,,,,,,,,,,,,,,,,,,,,,,,,,,,,,,,,,,,,,,,,,,,,
,,,,,,0,0,0,0,1,X V Q F H G B L J M P D K C T S W R N Z,607edd6030f140e8b94d477a,19,Mężczyzna,2022-06-11_09h40.33.672,task,2021.1.4,Win32,60.0240096,6299f149e92ead563fba08ef,62a446cb763199a518959d1d,,,,,,,,,,,,,,,,,,,,,,,,,,,,,,,,,,,,,,,,,,,,,,,,,,,,,,,,,,,,,,,,,,,,,,,,,,,,,,,,,,,,,,,,,,,,,,,,,,,,,
,,,,,,1,0,1,0,1,X V Q F H G B L J M P D K C T S W R N Z,607edd6030f140e8b94d477a,19,Mężczyzna,2022-06-11_09h40.33.672,task,2021.1.4,Win32,60.0240096,6299f149e92ead563fba08ef,62a446cb763199a518959d1d,,,,,,,,,,,,,,,,,,,,,,,,,,,,,,,,,,,,,,,,,,,,,,,,,,,,,,,,,,,,,,,,,,,,,,,,,,,,,,,,,,,,,,,,,,,,,,,,,,,,,
,,,,,,2,0,2,0,1,X V Q F H G B L J M P D K C T S W R N Z,607edd6030f140e8b94d477a,19,Mężczyzna,2022-06-11_09h40.33.672,task,2021.1.4,Win32,60.0240096,6299f149e92ead563fba08ef,62a446cb763199a518959d1d,,,,,,,,,,,,,,,,,,,,,,,,,,,,,,,,,,,,,,,,,,,,,,,,,,,,,,,,,,,,,,,,,,,,,,,,,,,,,,,,,,,,,,,,,,,,,,,,,,,,,
,,,,,,3,0,3,0,1,X V Q F H G B L J M P D K C T S W R N Z,607edd6030f140e8b94d477a,19,Mężczyzna,2022-06-11_09h40.33.672,task,2021.1.4,Win32,60.0240096,6299f149e92ead563fba08ef,62a446cb763199a518959d1d,,,,,,,,,,,,,,,,,,,,,,,,,,,,,,,,,,,,,,,,,,,,,,,,,,,,,,,,,,,,,,,,,,,,,,,,,,,,,,,,,,,,,,,,,,,,,,,,,,,,,
,,,,,,,,,,,,607edd6030f140e8b94d477a,19,Mężczyzna,2022-06-11_09h40.33.672,task,2021.1.4,Win32,60.0240096,6299f149e92ead563fba08ef,62a446cb763199a518959d1d,cvsp,"[""c"",""v"",""s"",""p""]","[0.44999999999998863,0.7179999999999893,1.1559999999999917,1.583999999999989,2.8189999999999884]",1,CVSP,4,0,4,0,1,,,,,,,,,,,,,,,,,,,,,,,,,,,,,,,,,,,,,,,,,,,,,,,,,,,,,,,,,,,,,,,,,,,,,,,,,,,,,,,,,,,,,,,,,,,
,,,,,,0,0,0,0,1,X V Q F H G B L J M P D K C T S W R N Z,607edd6030f140e8b94d477a,19,Mężczyzna,2022-06-11_09h40.33.672,task,2021.1.4,Win32,60.0240096,6299f149e92ead563fba08ef,62a446cb763199a518959d1d,,,,,,,,,,,,,,,,,,,,,,,,,,,,,,,,,,,,,,,,,,,,,,,,,,,,,,,,,,,,,,,,,,,,,,,,,,,,,,,,,,,,,,,,,,,,,,,,,,,,,
,,,,,,1,0,1,0,1,X V Q F H G B L J M P D K C T S W R N Z,607edd6030f140e8b94d477a,19,Mężczyzna,2022-06-11_09h40.33.672,task,2021.1.4,Win32,60.0240096,6299f149e92ead563fba08ef,62a446cb763199a518959d1d,,,,,,,,,,,,,,,,,,,,,,,,,,,,,,,,,,,,,,,,,,,,,,,,,,,,,,,,,,,,,,,,,,,,,,,,,,,,,,,,,,,,,,,,,,,,,,,,,,,,,
,,,,,,2,0,2,0,1,X V Q F H G B L J M P D K C T S W R N Z,607edd6030f140e8b94d477a,19,Mężczyzna,2022-06-11_09h40.33.672,task,2021.1.4,Win32,60.0240096,6299f149e92ead563fba08ef,62a446cb763199a518959d1d,,,,,,,,,,,,,,,,,,,,,,,,,,,,,,,,,,,,,,,,,,,,,,,,,,,,,,,,,,,,,,,,,,,,,,,,,,,,,,,,,,,,,,,,,,,,,,,,,,,,,
,,,,,,3,0,3,0,1,X V Q F H G B L J M P D K C T S W R N Z,607edd6030f140e8b94d477a,19,Mężczyzna,2022-06-11_09h40.33.672,task,2021.1.4,Win32,60.0240096,6299f149e92ead563fba08ef,62a446cb763199a518959d1d,,,,,,,,,,,,,,,,,,,,,,,,,,,,,,,,,,,,,,,,,,,,,,,,,,,,,,,,,,,,,,,,,,,,,,,,,,,,,,,,,,,,,,,,,,,,,,,,,,,,,
,,,,,,,,,,,,607edd6030f140e8b94d477a,19,Mężczyzna,2022-06-11_09h40.33.672,task,2021.1.4,Win32,60.0240096,6299f149e92ead563fba08ef,62a446cb763199a518959d1d,pttt,"[""p"",""t"",""t"",""t""]","[0.8349999999999937,1.0529999999999973,1.2999999999999972,1.5849999999999937,1.8419999999999987]",1,PTTT,5,0,5,0,1,,,,,,,,,,,,,,,,,,,,,,,,,,,,,,,,,,,,,,,,,,,,,,,,,,,,,,,,,,,,,,,,,,,,,,,,,,,,,,,,,,,,,,,,,,,
,,,,,,0,0,0,0,1,X V Q F H G B L J M P D K C T S W R N Z,607edd6030f140e8b94d477a,19,Mężczyzna,2022-06-11_09h40.33.672,task,2021.1.4,Win32,60.0240096,6299f149e92ead563fba08ef,62a446cb763199a518959d1d,,,,,,,,,,,,,,,,,,,,,,,,,,,,,,,,,,,,,,,,,,,,,,,,,,,,,,,,,,,,,,,,,,,,,,,,,,,,,,,,,,,,,,,,,,,,,,,,,,,,,
,,,,,,1,0,1,0,1,X V Q F H G B L J M P D K C T S W R N Z,607edd6030f140e8b94d477a,19,Mężczyzna,2022-06-11_09h40.33.672,task,2021.1.4,Win32,60.0240096,6299f149e92ead563fba08ef,62a446cb763199a518959d1d,,,,,,,,,,,,,,,,,,,,,,,,,,,,,,,,,,,,,,,,,,,,,,,,,,,,,,,,,,,,,,,,,,,,,,,,,,,,,,,,,,,,,,,,,,,,,,,,,,,,,
,,,,,,2,0,2,0,1,X V Q F H G B L J M P D K C T S W R N Z,607edd6030f140e8b94d477a,19,Mężczyzna,2022-06-11_09h40.33.672,task,2021.1.4,Win32,60.0240096,6299f149e92ead563fba08ef,62a446cb763199a518959d1d,,,,,,,,,,,,,,,,,,,,,,,,,,,,,,,,,,,,,,,,,,,,,,,,,,,,,,,,,,,,,,,,,,,,,,,,,,,,,,,,,,,,,,,,,,,,,,,,,,,,,
,,,,,,3,0,3,0,1,X V Q F H G B L J M P D K C T S W R N Z,607edd6030f140e8b94d477a,19,Mężczyzna,2022-06-11_09h40.33.672,task,2021.1.4,Win32,60.0240096,6299f149e92ead563fba08ef,62a446cb763199a518959d1d,,,,,,,,,,,,,,,,,,,,,,,,,,,,,,,,,,,,,,,,,,,,,,,,,,,,,,,,,,,,,,,,,,,,,,,,,,,,,,,,,,,,,,,,,,,,,,,,,,,,,
,,,,,,4,0,4,0,1,X V Q F H G B L J M P D K C T S W R N Z,607edd6030f140e8b94d477a,19,Mężczyzna,2022-06-11_09h40.33.672,task,2021.1.4,Win32,60.0240096,6299f149e92ead563fba08ef,62a446cb763199a518959d1d,,,,,,,,,,,,,,,,,,,,,,,,,,,,,,,,,,,,,,,,,,,,,,,,,,,,,,,,,,,,,,,,,,,,,,,,,,,,,,,,,,,,,,,,,,,,,,,,,,,,,
,,,,,,,,,,,,607edd6030f140e8b94d477a,19,Mężczyzna,2022-06-11_09h40.33.672,task,2021.1.4,Win32,60.0240096,6299f149e92ead563fba08ef,62a446cb763199a518959d1d,zzswm,"[""z"",""z"",""s"",""w"",""m""]","[0.5990000000000038,0.8659999999999997,1.218999999999994,1.551000000000002,2.1499999999999915,3.0160000000000053]",1,ZZSWM,6,0,6,0,1,,,,,,,,,,,,,,,,,,,,,,,,,,,,,,,,,,,,,,,,,,,,,,,,,,,,,,,,,,,,,,,,,,,,,,,,,,,,,,,,,,,,,,,,,,,
,,,,,,0,0,0,0,1,X V Q F H G B L J M P D K C T S W R N Z,607edd6030f140e8b94d477a,19,Mężczyzna,2022-06-11_09h40.33.672,task,2021.1.4,Win32,60.0240096,6299f149e92ead563fba08ef,62a446cb763199a518959d1d,,,,,,,,,,,,,,,,,,,,,,,,,,,,,,,,,,,,,,,,,,,,,,,,,,,,,,,,,,,,,,,,,,,,,,,,,,,,,,,,,,,,,,,,,,,,,,,,,,,,,
,,,,,,1,0,1,0,1,X V Q F H G B L J M P D K C T S W R N Z,607edd6030f140e8b94d477a,19,Mężczyzna,2022-06-11_09h40.33.672,task,2021.1.4,Win32,60.0240096,6299f149e92ead563fba08ef,62a446cb763199a518959d1d,,,,,,,,,,,,,,,,,,,,,,,,,,,,,,,,,,,,,,,,,,,,,,,,,,,,,,,,,,,,,,,,,,,,,,,,,,,,,,,,,,,,,,,,,,,,,,,,,,,,,
,,,,,,2,0,2,0,1,X V Q F H G B L J M P D K C T S W R N Z,607edd6030f140e8b94d477a,19,Mężczyzna,2022-06-11_09h40.33.672,task,2021.1.4,Win32,60.0240096,6299f149e92ead563fba08ef,62a446cb763199a518959d1d,,,,,,,,,,,,,,,,,,,,,,,,,,,,,,,,,,,,,,,,,,,,,,,,,,,,,,,,,,,,,,,,,,,,,,,,,,,,,,,,,,,,,,,,,,,,,,,,,,,,,
,,,,,,3,0,3,0,1,X V Q F H G B L J M P D K C T S W R N Z,607edd6030f140e8b94d477a,19,Mężczyzna,2022-06-11_09h40.33.672,task,2021.1.4,Win32,60.0240096,6299f149e92ead563fba08ef,62a446cb763199a518959d1d,,,,,,,,,,,,,,,,,,,,,,,,,,,,,,,,,,,,,,,,,,,,,,,,,,,,,,,,,,,,,,,,,,,,,,,,,,,,,,,,,,,,,,,,,,,,,,,,,,,,,
,,,,,,4,0,4,0,1,X V Q F H G B L J M P D K C T S W R N Z,607edd6030f140e8b94d477a,19,Mężczyzna,2022-06-11_09h40.33.672,task,2021.1.4,Win32,60.0240096,6299f149e92ead563fba08ef,62a446cb763199a518959d1d,,,,,,,,,,,,,,,,,,,,,,,,,,,,,,,,,,,,,,,,,,,,,,,,,,,,,,,,,,,,,,,,,,,,,,,,,,,,,,,,,,,,,,,,,,,,,,,,,,,,,
,,,,,,,,,,,,607edd6030f140e8b94d477a,19,Mężczyzna,2022-06-11_09h40.33.672,task,2021.1.4,Win32,60.0240096,6299f149e92ead563fba08ef,62a446cb763199a518959d1d,lwslh,"[""l"",""w"",""s"",""l"",""h""]","[0.7860000000000014,1.0180000000000007,1.2379999999999995,2.284000000000006,2.4510000000000076,3.3020000000000067]",1,LWSLH,7,0,7,0,1,,,,,,,,,,,,,,,,,,,,,,,,,,,,,,,,,,,,,,,,,,,,,,,,,,,,,,,,,,,,,,,,,,,,,,,,,,,,,,,,,,,,,,,,,,,
,,,,,,0,0,0,0,1,X V Q F H G B L J M P D K C T S W R N Z,607edd6030f140e8b94d477a,19,Mężczyzna,2022-06-11_09h40.33.672,task,2021.1.4,Win32,60.0240096,6299f149e92ead563fba08ef,62a446cb763199a518959d1d,,,,,,,,,,,,,,,,,,,,,,,,,,,,,,,,,,,,,,,,,,,,,,,,,,,,,,,,,,,,,,,,,,,,,,,,,,,,,,,,,,,,,,,,,,,,,,,,,,,,,
,,,,,,1,0,1,0,1,X V Q F H G B L J M P D K C T S W R N Z,607edd6030f140e8b94d477a,19,Mężczyzna,2022-06-11_09h40.33.672,task,2021.1.4,Win32,60.0240096,6299f149e92ead563fba08ef,62a446cb763199a518959d1d,,,,,,,,,,,,,,,,,,,,,,,,,,,,,,,,,,,,,,,,,,,,,,,,,,,,,,,,,,,,,,,,,,,,,,,,,,,,,,,,,,,,,,,,,,,,,,,,,,,,,
,,,,,,2,0,2,0,1,X V Q F H G B L J M P D K C T S W R N Z,607edd6030f140e8b94d477a,19,Mężczyzna,2022-06-11_09h40.33.672,task,2021.1.4,Win32,60.0240096,6299f149e92ead563fba08ef,62a446cb763199a518959d1d,,,,,,,,,,,,,,,,,,,,,,,,,,,,,,,,,,,,,,,,,,,,,,,,,,,,,,,,,,,,,,,,,,,,,,,,,,,,,,,,,,,,,,,,,,,,,,,,,,,,,
,,,,,,3,0,3,0,1,X V Q F H G B L J M P D K C T S W R N Z,607edd6030f140e8b94d477a,19,Mężczyzna,2022-06-11_09h40.33.672,task,2021.1.4,Win32,60.0240096,6299f149e92ead563fba08ef,62a446cb763199a518959d1d,,,,,,,,,,,,,,,,,,,,,,,,,,,,,,,,,,,,,,,,,,,,,,,,,,,,,,,,,,,,,,,,,,,,,,,,,,,,,,,,,,,,,,,,,,,,,,,,,,,,,
,,,,,,4,0,4,0,1,X V Q F H G B L J M P D K C T S W R N Z,607edd6030f140e8b94d477a,19,Mężczyzna,2022-06-11_09h40.33.672,task,2021.1.4,Win32,60.0240096,6299f149e92ead563fba08ef,62a446cb763199a518959d1d,,,,,,,,,,,,,,,,,,,,,,,,,,,,,,,,,,,,,,,,,,,,,,,,,,,,,,,,,,,,,,,,,,,,,,,,,,,,,,,,,,,,,,,,,,,,,,,,,,,,,
,,,,,,5,0,5,0,1,X V Q F H G B L J M P D K C T S W R N Z,607edd6030f140e8b94d477a,19,Mężczyzna,2022-06-11_09h40.33.672,task,2021.1.4,Win32,60.0240096,6299f149e92ead563fba08ef,62a446cb763199a518959d1d,,,,,,,,,,,,,,,,,,,,,,,,,,,,,,,,,,,,,,,,,,,,,,,,,,,,,,,,,,,,,,,,,,,,,,,,,,,,,,,,,,,,,,,,,,,,,,,,,,,,,
,,,,,,,,,,,,607edd6030f140e8b94d477a,19,Mężczyzna,2022-06-11_09h40.33.672,task,2021.1.4,Win32,60.0240096,6299f149e92ead563fba08ef,62a446cb763199a518959d1d,ctwhcx,"[""c"",""t"",""w"",""h"",""c"",""x""]","[0.45300000000000296,3.068000000000012,3.4340000000000117,4.673000000000002,4.951000000000008,5.457000000000008,6.1370000000000005]",1,CTWHCX,8,0,8,0,1,,,,,,,,,,,,,,,,,,,,,,,,,,,,,,,,,,,,,,,,,,,,,,,,,,,,,,,,,,,,,,,,,,,,,,,,,,,,,,,,,,,,,,,,,,,
,,,,,,0,0,0,0,1,X V Q F H G B L J M P D K C T S W R N Z,607edd6030f140e8b94d477a,19,Mężczyzna,2022-06-11_09h40.33.672,task,2021.1.4,Win32,60.0240096,6299f149e92ead563fba08ef,62a446cb763199a518959d1d,,,,,,,,,,,,,,,,,,,,,,,,,,,,,,,,,,,,,,,,,,,,,,,,,,,,,,,,,,,,,,,,,,,,,,,,,,,,,,,,,,,,,,,,,,,,,,,,,,,,,
,,,,,,1,0,1,0,1,X V Q F H G B L J M P D K C T S W R N Z,607edd6030f140e8b94d477a,19,Mężczyzna,2022-06-11_09h40.33.672,task,2021.1.4,Win32,60.0240096,6299f149e92ead563fba08ef,62a446cb763199a518959d1d,,,,,,,,,,,,,,,,,,,,,,,,,,,,,,,,,,,,,,,,,,,,,,,,,,,,,,,,,,,,,,,,,,,,,,,,,,,,,,,,,,,,,,,,,,,,,,,,,,,,,
,,,,,,2,0,2,0,1,X V Q F H G B L J M P D K C T S W R N Z,607edd6030f140e8b94d477a,19,Mężczyzna,2022-06-11_09h40.33.672,task,2021.1.4,Win32,60.0240096,6299f149e92ead563fba08ef,62a446cb763199a518959d1d,,,,,,,,,,,,,,,,,,,,,,,,,,,,,,,,,,,,,,,,,,,,,,,,,,,,,,,,,,,,,,,,,,,,,,,,,,,,,,,,,,,,,,,,,,,,,,,,,,,,,
,,,,,,3,0,3,0,1,X V Q F H G B L J M P D K C T S W R N Z,607edd6030f140e8b94d477a,19,Mężczyzna,2022-06-11_09h40.33.672,task,2021.1.4,Win32,60.0240096,6299f149e92ead563fba08ef,62a446cb763199a518959d1d,,,,,,,,,,,,,,,,,,,,,,,,,,,,,,,,,,,,,,,,,,,,,,,,,,,,,,,,,,,,,,,,,,,,,,,,,,,,,,,,,,,,,,,,,,,,,,,,,,,,,
,,,,,,4,0,4,0,1,X V Q F H G B L J M P D K C T S W R N Z,607edd6030f140e8b94d477a,19,Mężczyzna,2022-06-11_09h40.33.672,task,2021.1.4,Win32,60.0240096,6299f149e92ead563fba08ef,62a446cb763199a518959d1d,,,,,,,,,,,,,,,,,,,,,,,,,,,,,,,,,,,,,,,,,,,,,,,,,,,,,,,,,,,,,,,,,,,,,,,,,,,,,,,,,,,,,,,,,,,,,,,,,,,,,
,,,,,,5,0,5,0,1,X V Q F H G B L J M P D K C T S W R N Z,607edd6030f140e8b94d477a,19,Mężczyzna,2022-06-11_09h40.33.672,task,2021.1.4,Win32,60.0240096,6299f149e92ead563fba08ef,62a446cb763199a518959d1d,,,,,,,,,,,,,,,,,,,,,,,,,,,,,,,,,,,,,,,,,,,,,,,,,,,,,,,,,,,,,,,,,,,,,,,,,,,,,,,,,,,,,,,,,,,,,,,,,,,,,
,,,,,,,,,,,,607edd6030f140e8b94d477a,19,Mężczyzna,2022-06-11_09h40.33.672,task,2021.1.4,Win32,60.0240096,6299f149e92ead563fba08ef,62a446cb763199a518959d1d,flrllq,"[""f"",""l"",""r"",""l"",""l"",""q""]","[0.6800000000000068,1.1809999999999974,1.463000000000008,1.8460000000000036,2.4540000000000077,4.054000000000016,5.680999999999997]",0,FLRLLZ,9,0,9,0,1,,,,,,,,,,,,,,,,,,,,,,,,,,,,,,,,,,,,,,,,,,,,,,,,,,,,,,,,,,,,,,,,,,,,,,,,,,,,,,,,,,,,,,,,,,,
,,,,,,0,0,0,0,1,X V Q F H G B L J M P D K C T S W R N Z,607edd6030f140e8b94d477a,19,Mężczyzna,2022-06-11_09h40.33.672,task,2021.1.4,Win32,60.0240096,6299f149e92ead563fba08ef,62a446cb763199a518959d1d,,,,,,,,,,,,,,,,,,,,,,,,,,,,,,,,,,,,,,,,,,,,,,,,,,,,,,,,,,,,,,,,,,,,,,,,,,,,,,,,,,,,,,,,,,,,,,,,,,,,,
,,,,,,1,0,1,0,1,X V Q F H G B L J M P D K C T S W R N Z,607edd6030f140e8b94d477a,19,Mężczyzna,2022-06-11_09h40.33.672,task,2021.1.4,Win32,60.0240096,6299f149e92ead563fba08ef,62a446cb763199a518959d1d,,,,,,,,,,,,,,,,,,,,,,,,,,,,,,,,,,,,,,,,,,,,,,,,,,,,,,,,,,,,,,,,,,,,,,,,,,,,,,,,,,,,,,,,,,,,,,,,,,,,,
,,,,,,2,0,2,0,1,X V Q F H G B L J M P D K C T S W R N Z,607edd6030f140e8b94d477a,19,Mężczyzna,2022-06-11_09h40.33.672,task,2021.1.4,Win32,60.0240096,6299f149e92ead563fba08ef,62a446cb763199a518959d1d,,,,,,,,,,,,,,,,,,,,,,,,,,,,,,,,,,,,,,,,,,,,,,,,,,,,,,,,,,,,,,,,,,,,,,,,,,,,,,,,,,,,,,,,,,,,,,,,,,,,,
,,,,,,3,0,3,0,1,X V Q F H G B L J M P D K C T S W R N Z,607edd6030f140e8b94d477a,19,Mężczyzna,2022-06-11_09h40.33.672,task,2021.1.4,Win32,60.0240096,6299f149e92ead563fba08ef,62a446cb763199a518959d1d,,,,,,,,,,,,,,,,,,,,,,,,,,,,,,,,,,,,,,,,,,,,,,,,,,,,,,,,,,,,,,,,,,,,,,,,,,,,,,,,,,,,,,,,,,,,,,,,,,,,,
,,,,,,4,0,4,0,1,X V Q F H G B L J M P D K C T S W R N Z,607edd6030f140e8b94d477a,19,Mężczyzna,2022-06-11_09h40.33.672,task,2021.1.4,Win32,60.0240096,6299f149e92ead563fba08ef,62a446cb763199a518959d1d,,,,,,,,,,,,,,,,,,,,,,,,,,,,,,,,,,,,,,,,,,,,,,,,,,,,,,,,,,,,,,,,,,,,,,,,,,,,,,,,,,,,,,,,,,,,,,,,,,,,,
,,,,,,5,0,5,0,1,X V Q F H G B L J M P D K C T S W R N Z,607edd6030f140e8b94d477a,19,Mężczyzna,2022-06-11_09h40.33.672,task,2021.1.4,Win32,60.0240096,6299f149e92ead563fba08ef,62a446cb763199a518959d1d,,,,,,,,,,,,,,,,,,,,,,,,,,,,,,,,,,,,,,,,,,,,,,,,,,,,,,,,,,,,,,,,,,,,,,,,,,,,,,,,,,,,,,,,,,,,,,,,,,,,,
,,,,,,,,,,,,607edd6030f140e8b94d477a,19,Mężczyzna,2022-06-11_09h40.33.672,task,2021.1.4,Win32,60.0240096,6299f149e92ead563fba08ef,62a446cb763199a518959d1d,swcnxf,"[""s"",""w"",""c"",""n"",""x"",""f""]","[0.5900000000000034,0.9210000000000207,1.2549999999999955,1.7680000000000007,2.4000000000000057,2.7560000000000002,3.6520000000000152]",1,SWCNXF,10,0,10,0,1,,,,,,,,,,,,,,,,,,,,,,,,,,,,,,,,,,,,,,,,,,,,,,,,,,,,,,,,,,,,,,,,,,,,,,,,,,,,,,,,,,,,,,,,,,,
,,,,,,0,0,0,0,1,X V Q F H G B L J M P D K C T S W R N Z,607edd6030f140e8b94d477a,19,Mężczyzna,2022-06-11_09h40.33.672,task,2021.1.4,Win32,60.0240096,6299f149e92ead563fba08ef,62a446cb763199a518959d1d,,,,,,,,,,,,,,,,,,,,,,,,,,,,,,,,,,,,,,,,,,,,,,,,,,,,,,,,,,,,,,,,,,,,,,,,,,,,,,,,,,,,,,,,,,,,,,,,,,,,,
,,,,,,1,0,1,0,1,X V Q F H G B L J M P D K C T S W R N Z,607edd6030f140e8b94d477a,19,Mężczyzna,2022-06-11_09h40.33.672,task,2021.1.4,Win32,60.0240096,6299f149e92ead563fba08ef,62a446cb763199a518959d1d,,,,,,,,,,,,,,,,,,,,,,,,,,,,,,,,,,,,,,,,,,,,,,,,,,,,,,,,,,,,,,,,,,,,,,,,,,,,,,,,,,,,,,,,,,,,,,,,,,,,,
,,,,,,2,0,2,0,1,X V Q F H G B L J M P D K C T S W R N Z,607edd6030f140e8b94d477a,19,Mężczyzna,2022-06-11_09h40.33.672,task,2021.1.4,Win32,60.0240096,6299f149e92ead563fba08ef,62a446cb763199a518959d1d,,,,,,,,,,,,,,,,,,,,,,,,,,,,,,,,,,,,,,,,,,,,,,,,,,,,,,,,,,,,,,,,,,,,,,,,,,,,,,,,,,,,,,,,,,,,,,,,,,,,,
,,,,,,3,0,3,0,1,X V Q F H G B L J M P D K C T S W R N Z,607edd6030f140e8b94d477a,19,Mężczyzna,2022-06-11_09h40.33.672,task,2021.1.4,Win32,60.0240096,6299f149e92ead563fba08ef,62a446cb763199a518959d1d,,,,,,,,,,,,,,,,,,,,,,,,,,,,,,,,,,,,,,,,,,,,,,,,,,,,,,,,,,,,,,,,,,,,,,,,,,,,,,,,,,,,,,,,,,,,,,,,,,,,,
,,,,,,4,0,4,0,1,X V Q F H G B L J M P D K C T S W R N Z,607edd6030f140e8b94d477a,19,Mężczyzna,2022-06-11_09h40.33.672,task,2021.1.4,Win32,60.0240096,6299f149e92ead563fba08ef,62a446cb763199a518959d1d,,,,,,,,,,,,,,,,,,,,,,,,,,,,,,,,,,,,,,,,,,,,,,,,,,,,,,,,,,,,,,,,,,,,,,,,,,,,,,,,,,,,,,,,,,,,,,,,,,,,,
,,,,,,5,0,5,0,1,X V Q F H G B L J M P D K C T S W R N Z,607edd6030f140e8b94d477a,19,Mężczyzna,2022-06-11_09h40.33.672,task,2021.1.4,Win32,60.0240096,6299f149e92ead563fba08ef,62a446cb763199a518959d1d,,,,,,,,,,,,,,,,,,,,,,,,,,,,,,,,,,,,,,,,,,,,,,,,,,,,,,,,,,,,,,,,,,,,,,,,,,,,,,,,,,,,,,,,,,,,,,,,,,,,,
,,,,,,6,0,6,0,1,X V Q F H G B L J M P D K C T S W R N Z,607edd6030f140e8b94d477a,19,Mężczyzna,2022-06-11_09h40.33.672,task,2021.1.4,Win32,60.0240096,6299f149e92ead563fba08ef,62a446cb763199a518959d1d,,,,,,,,,,,,,,,,,,,,,,,,,,,,,,,,,,,,,,,,,,,,,,,,,,,,,,,,,,,,,,,,,,,,,,,,,,,,,,,,,,,,,,,,,,,,,,,,,,,,,
,,,,,,,,,,,,607edd6030f140e8b94d477a,19,Mężczyzna,2022-06-11_09h40.33.672,task,2021.1.4,Win32,60.0240096,6299f149e92ead563fba08ef,62a446cb763199a518959d1d,dcgbbrs,"[""d"",""c"",""g"",""b"",""b"",""r"",""s""]","[0.5169999999999959,0.8220000000000027,1.2849999999999966,1.75,2.099000000000018,2.852000000000004,5.668000000000006,6.604000000000013]",0,DCGBBGR,11,0,11,0,1,,,,,,,,,,,,,,,,,,,,,,,,,,,,,,,,,,,,,,,,,,,,,,,,,,,,,,,,,,,,,,,,,,,,,,,,,,,,,,,,,,,,,,,,,,,
,,,,,,0,0,0,0,1,X V Q F H G B L J M P D K C T S W R N Z,607edd6030f140e8b94d477a,19,Mężczyzna,2022-06-11_09h40.33.672,task,2021.1.4,Win32,60.0240096,6299f149e92ead563fba08ef,62a446cb763199a518959d1d,,,,,,,,,,,,,,,,,,,,,,,,,,,,,,,,,,,,,,,,,,,,,,,,,,,,,,,,,,,,,,,,,,,,,,,,,,,,,,,,,,,,,,,,,,,,,,,,,,,,,
,,,,,,1,0,1,0,1,X V Q F H G B L J M P D K C T S W R N Z,607edd6030f140e8b94d477a,19,Mężczyzna,2022-06-11_09h40.33.672,task,2021.1.4,Win32,60.0240096,6299f149e92ead563fba08ef,62a446cb763199a518959d1d,,,,,,,,,,,,,,,,,,,,,,,,,,,,,,,,,,,,,,,,,,,,,,,,,,,,,,,,,,,,,,,,,,,,,,,,,,,,,,,,,,,,,,,,,,,,,,,,,,,,,
,,,,,,2,0,2,0,1,X V Q F H G B L J M P D K C T S W R N Z,607edd6030f140e8b94d477a,19,Mężczyzna,2022-06-11_09h40.33.672,task,2021.1.4,Win32,60.0240096,6299f149e92ead563fba08ef,62a446cb763199a518959d1d,,,,,,,,,,,,,,,,,,,,,,,,,,,,,,,,,,,,,,,,,,,,,,,,,,,,,,,,,,,,,,,,,,,,,,,,,,,,,,,,,,,,,,,,,,,,,,,,,,,,,
,,,,,,3,0,3,0,1,X V Q F H G B L J M P D K C T S W R N Z,607edd6030f140e8b94d477a,19,Mężczyzna,2022-06-11_09h40.33.672,task,2021.1.4,Win32,60.0240096,6299f149e92ead563fba08ef,62a446cb763199a518959d1d,,,,,,,,,,,,,,,,,,,,,,,,,,,,,,,,,,,,,,,,,,,,,,,,,,,,,,,,,,,,,,,,,,,,,,,,,,,,,,,,,,,,,,,,,,,,,,,,,,,,,
,,,,,,4,0,4,0,1,X V Q F H G B L J M P D K C T S W R N Z,607edd6030f140e8b94d477a,19,Mężczyzna,2022-06-11_09h40.33.672,task,2021.1.4,Win32,60.0240096,6299f149e92ead563fba08ef,62a446cb763199a518959d1d,,,,,,,,,,,,,,,,,,,,,,,,,,,,,,,,,,,,,,,,,,,,,,,,,,,,,,,,,,,,,,,,,,,,,,,,,,,,,,,,,,,,,,,,,,,,,,,,,,,,,
,,,,,,5,0,5,0,1,X V Q F H G B L J M P D K C T S W R N Z,607edd6030f140e8b94d477a,19,Mężczyzna,2022-06-11_09h40.33.672,task,2021.1.4,Win32,60.0240096,6299f149e92ead563fba08ef,62a446cb763199a518959d1d,,,,,,,,,,,,,,,,,,,,,,,,,,,,,,,,,,,,,,,,,,,,,,,,,,,,,,,,,,,,,,,,,,,,,,,,,,,,,,,,,,,,,,,,,,,,,,,,,,,,,
,,,,,,6,0,6,0,1,X V Q F H G B L J M P D K C T S W R N Z,607edd6030f140e8b94d477a,19,Mężczyzna,2022-06-11_09h40.33.672,task,2021.1.4,Win32,60.0240096,6299f149e92ead563fba08ef,62a446cb763199a518959d1d,,,,,,,,,,,,,,,,,,,,,,,,,,,,,,,,,,,,,,,,,,,,,,,,,,,,,,,,,,,,,,,,,,,,,,,,,,,,,,,,,,,,,,,,,,,,,,,,,,,,,
,,,,,,,,,,,,607edd6030f140e8b94d477a,19,Mężczyzna,2022-06-11_09h40.33.672,task,2021.1.4,Win32,60.0240096,6299f149e92ead563fba08ef,62a446cb763199a518959d1d,lkpcwpb,"[""l"",""k"",""p"",""c"",""w"",""p"",""b""]","[1.0160000000000196,1.281000000000006,1.5150000000000148,1.8530000000000086,2.2680000000000007,3.3310000000000173,3.5730000000000075,4.314000000000021]",0,LKPBCWP,12,0,12,0,1,,,,,,,,,,,,,,,,,,,,,,,,,,,,,,,,,,,,,,,,,,,,,,,,,,,,,,,,,,,,,,,,,,,,,,,,,,,,,,,,,,,,,,,,,,,
,,,,,,0,0,0,0,1,X V Q F H G B L J M P D K C T S W R N Z,607edd6030f140e8b94d477a,19,Mężczyzna,2022-06-11_09h40.33.672,task,2021.1.4,Win32,60.0240096,6299f149e92ead563fba08ef,62a446cb763199a518959d1d,,,,,,,,,,,,,,,,,,,,,,,,,,,,,,,,,,,,,,,,,,,,,,,,,,,,,,,,,,,,,,,,,,,,,,,,,,,,,,,,,,,,,,,,,,,,,,,,,,,,,
,,,,,,1,0,1,0,1,X V Q F H G B L J M P D K C T S W R N Z,607edd6030f140e8b94d477a,19,Mężczyzna,2022-06-11_09h40.33.672,task,2021.1.4,Win32,60.0240096,6299f149e92ead563fba08ef,62a446cb763199a518959d1d,,,,,,,,,,,,,,,,,,,,,,,,,,,,,,,,,,,,,,,,,,,,,,,,,,,,,,,,,,,,,,,,,,,,,,,,,,,,,,,,,,,,,,,,,,,,,,,,,,,,,
,,,,,,2,0,2,0,1,X V Q F H G B L J M P D K C T S W R N Z,607edd6030f140e8b94d477a,19,Mężczyzna,2022-06-11_09h40.33.672,task,2021.1.4,Win32,60.0240096,6299f149e92ead563fba08ef,62a446cb763199a518959d1d,,,,,,,,,,,,,,,,,,,,,,,,,,,,,,,,,,,,,,,,,,,,,,,,,,,,,,,,,,,,,,,,,,,,,,,,,,,,,,,,,,,,,,,,,,,,,,,,,,,,,
,,,,,,3,0,3,0,1,X V Q F H G B L J M P D K C T S W R N Z,607edd6030f140e8b94d477a,19,Mężczyzna,2022-06-11_09h40.33.672,task,2021.1.4,Win32,60.0240096,6299f149e92ead563fba08ef,62a446cb763199a518959d1d,,,,,,,,,,,,,,,,,,,,,,,,,,,,,,,,,,,,,,,,,,,,,,,,,,,,,,,,,,,,,,,,,,,,,,,,,,,,,,,,,,,,,,,,,,,,,,,,,,,,,
,,,,,,4,0,4,0,1,X V Q F H G B L J M P D K C T S W R N Z,607edd6030f140e8b94d477a,19,Mężczyzna,2022-06-11_09h40.33.672,task,2021.1.4,Win32,60.0240096,6299f149e92ead563fba08ef,62a446cb763199a518959d1d,,,,,,,,,,,,,,,,,,,,,,,,,,,,,,,,,,,,,,,,,,,,,,,,,,,,,,,,,,,,,,,,,,,,,,,,,,,,,,,,,,,,,,,,,,,,,,,,,,,,,
,,,,,,5,0,5,0,1,X V Q F H G B L J M P D K C T S W R N Z,607edd6030f140e8b94d477a,19,Mężczyzna,2022-06-11_09h40.33.672,task,2021.1.4,Win32,60.0240096,6299f149e92ead563fba08ef,62a446cb763199a518959d1d,,,,,,,,,,,,,,,,,,,,,,,,,,,,,,,,,,,,,,,,,,,,,,,,,,,,,,,,,,,,,,,,,,,,,,,,,,,,,,,,,,,,,,,,,,,,,,,,,,,,,
,,,,,,6,0,6,0,1,X V Q F H G B L J M P D K C T S W R N Z,607edd6030f140e8b94d477a,19,Mężczyzna,2022-06-11_09h40.33.672,task,2021.1.4,Win32,60.0240096,6299f149e92ead563fba08ef,62a446cb763199a518959d1d,,,,,,,,,,,,,,,,,,,,,,,,,,,,,,,,,,,,,,,,,,,,,,,,,,,,,,,,,,,,,,,,,,,,,,,,,,,,,,,,,,,,,,,,,,,,,,,,,,,,,
,,,,,,,,,,,,607edd6030f140e8b94d477a,19,Mężczyzna,2022-06-11_09h40.33.672,task,2021.1.4,Win32,60.0240096,6299f149e92ead563fba08ef,62a446cb763199a518959d1d,gvwrdct,"[""g"",""v"",""w"",""r"",""d"",""c"",""t""]","[1.0250000000000057,1.3499999999999943,1.6519999999999868,1.938999999999993,2.8669999999999902,4.032999999999987,4.251000000000005,4.888999999999982]",0,GWVRTCD,13,0,13,0,1,,,,,,,,,,,,,,,,,,,,,,,,,,,,,,,,,,,,,,,,,,,,,,,,,,,,,,,,,,,,,,,,,,,,,,,,,,,,,,,,,,,,,,,,,,,
,,,,,,,,,,,,607edd6030f140e8b94d477a,19,Mężczyzna,2022-06-11_09h40.33.672,task,2021.1.4,Win32,60.0240096,6299f149e92ead563fba08ef,62a446cb763199a518959d1d,,,,,,,,,,,space,7.455,3,"[""3""]",1,[11.477000000000004],[11.477000000000004],0,0,0,3,1,Practice,4,(8/4) + 1,3,,,,,,,,,,,,,,,,,,,,,,,,,,,,,,,,,,,,,,,,,,,,,,,,,,,,,,,,,,,,,,,,,,,,,,,,,,,
,,,,,,,,,,,,607edd6030f140e8b94d477a,19,Mężczyzna,2022-06-11_09h40.33.672,task,2021.1.4,Win32,60.0240096,6299f149e92ead563fba08ef,62a446cb763199a518959d1d,,,,,,,,,,,,,1,"[""1""]",1,[2.516999999999996],"[11.477000000000004,2.516999999999996]",0,1,1,1,1,Practice,2,(4x4) - 15,1,,,,,,,,,,,,,,,,,,,,,,,,,,,,,,,,,,,,,,,,,,,,,,,,,,,,,,,,,,,,,,,,,,,,,,,,,,,
,,,,,,,,,,,,607edd6030f140e8b94d477a,19,Mężczyzna,2022-06-11_09h40.33.672,task,2021.1.4,Win32,60.0240096,6299f149e92ead563fba08ef,62a446cb763199a518959d1d,,,,,,,,,,,,,8,"[""8""]",1,[2.650999999999982],"[11.477000000000004,2.516999999999996,2.650999999999982]",0,2,2,8,1,Practice,9,(3x3) - 1,8,,,,,,,,,,,,,,,,,,,,,,,,,,,,,,,,,,,,,,,,,,,,,,,,,,,,,,,,,,,,,,,,,,,,,,,,,,,
,,,,,,,,,,,,607edd6030f140e8b94d477a,19,Mężczyzna,2022-06-11_09h40.33.672,task,2021.1.4,Win32,60.0240096,6299f149e92ead563fba08ef,62a446cb763199a518959d1d,,,,,,,,,,,,,6,"[""6""]",1,[2.3009999999999877],"[11.477000000000004,2.516999999999996,2.650999999999982,2.3009999999999877]",0,3,3,6,1,Practice,7,(25/5) + 1,6,,,,,,,,,,,,,,,,,,,,,,,,,,,,,,,,,,,,,,,,,,,,,,,,,,,,,,,,,,,,,,,,,,,,,,,,,,,
,,,,,,,,,,,,607edd6030f140e8b94d477a,19,Mężczyzna,2022-06-11_09h40.33.672,task,2021.1.4,Win32,60.0240096,6299f149e92ead563fba08ef,62a446cb763199a518959d1d,,,,,,,,,,,,,4,"[""4""]",1,[2.967000000000013],"[11.477000000000004,2.516999999999996,2.650999999999982,2.3009999999999877,2.967000000000013]",0,4,4,4,1,Practice,5,(2x6) - 8,4,,,,,,,,,,,,,,,,,,,,,,,,,,,,,,,,,,,,,,,,,,,,,,,,,,,,,,,,,,,,,,,,,,,,,,,,,,,
,,,,,,,,,,,,607edd6030f140e8b94d477a,19,Mężczyzna,2022-06-11_09h40.33.672,task,2021.1.4,Win32,60.0240096,6299f149e92ead563fba08ef,62a446cb763199a518959d1d,,,,,,,,,,,,,5,"[""5""]",1,[2.5020000000000095],"[11.477000000000004,2.516999999999996,2.650999999999982,2.3009999999999877,2.967000000000013,2.5020000000000095]",0,5,5,5,1,Practice,6,(4/2) + 3,5,,,,,,,,,,,,,,,,,,,,,,,,,,,,,,,,,,,,,,,,,,,,,,,,,,,,,,,,,,,,,,,,,,,,,,,,,,,
,,,,,,,,,,,,607edd6030f140e8b94d477a,19,Mężczyzna,2022-06-11_09h40.33.672,task,2021.1.4,Win32,60.0240096,6299f149e92ead563fba08ef,62a446cb763199a518959d1d,,,,,,,,,,,,,7,"[""7""]",1,[5.384999999999991],"[11.477000000000004,2.516999999999996,2.650999999999982,2.3009999999999877,2.967000000000013,2.5020000000000095,5.384999999999991]",0,6,6,7,1,Practice,8,(5x5) - 18,7,,,,,,,,,,,,,,,,,,,,,,,,,,,,,,,,,,,,,,,,,,,,,,,,,,,,,,,,,,,,,,,,,,,,,,,,,,,
,,,,,,,,,,,,607edd6030f140e8b94d477a,19,Mężczyzna,2022-06-11_09h40.33.672,task,2021.1.4,Win32,60.0240096,6299f149e92ead563fba08ef,62a446cb763199a518959d1d,,,,,,,,,,,,,9,"[""9""]",1,[2.8830000000000098],"[11.477000000000004,2.516999999999996,2.650999999999982,2.3009999999999877,2.967000000000013,2.5020000000000095,5.384999999999991,2.8830000000000098]",0,7,7,9,1,Practice,10,(20/2) - 1,9,,,,,,,,,,,,,,,,,,,,,,,,,,,,,,,,,,,,,,,,,,,,,,,,,,,,,,,,,,,,,,,,,,,,,,,,,,,
,,,,,,,,,,,,607edd6030f140e8b94d477a,19,Mężczyzna,2022-06-11_09h40.33.672,task,2021.1.4,Win32,60.0240096,6299f149e92ead563fba08ef,62a446cb763199a518959d1d,,,,,,,,,,,,,2,"[""2""]",1,[2.102000000000004],"[11.477000000000004,2.516999999999996,2.650999999999982,2.3009999999999877,2.967000000000013,2.5020000000000095,5.384999999999991,2.8830000000000098,2.102000000000004]",0,8,8,2,1,Practice,3,(4x4) - 14,2,,,,,,,,,,,,,,,,,,,,,,,,,,,,,,,,,,,,,,,,,,,,,,,,,,,,,,,,,,,,,,,,,,,,,,,,,,,
,,,,,,,,,,,,607edd6030f140e8b94d477a,19,Mężczyzna,2022-06-11_09h40.33.672,task,2021.1.4,Win32,60.0240096,6299f149e92ead563fba08ef,62a446cb763199a518959d1d,,,,,,,,,,,,,0,"[""0""]",1,[1.6870000000000118],"[11.477000000000004,2.516999999999996,2.650999999999982,2.3009999999999877,2.967000000000013,2.5020000000000095,5.384999999999991,2.8830000000000098,2.102000000000004,1.6870000000000118]",0,9,9,0,1,Practice,1,(3x3) -  9,0,,,,,,,,,,,,,,,,,,,,,,,,,,,,,,,,,,,,,,,,,,,,,,,,,,,,,,,,,,,,,,,,,,,,,,,,,,,
,,,,,,,,,,,,607edd6030f140e8b94d477a,19,Mężczyzna,2022-06-11_09h40.33.672,task,2021.1.4,Win32,60.0240096,6299f149e92ead563fba08ef,62a446cb763199a518959d1d,,,,,,,,,,,,,,,,,,,,,,,,,,,1,36.472,2.431466667,91.77599698,2.473539933,8.813199693,space,1.507,0,0,0,0,1,,,,,,,,,,,,,,,,,,,,,,,,,,,,,,,,,,,,,,,,,,,,,,,,,,,,,,,,,,,,,,
,,,,,,,,,,,,607edd6030f140e8b94d477a,19,Mężczyzna,2022-06-11_09h40.33.672,task,2021.1.4,Win32,60.0240096,6299f149e92ead563fba08ef,62a446cb763199a518959d1d,,,,,,,,,,,,,7,,,,,,,,,,Practice,8,(5x5) - 18,7,,,,,,,,,,,,,,space,11.204,"[""7""]",1,[2.73599999999999],1,0,0,0,7,1,,,,,,,,,,,,,,,,,,,,,,,,,,,,,,,,,,,,,,,,,,,,,,,,,,,
,,,,,,,,,,,X V Q F H G B L J M P D K C T S W R N Z,607edd6030f140e8b94d477a,19,Mężczyzna,2022-06-11_09h40.33.672,task,2021.1.4,Win32,60.0240096,6299f149e92ead563fba08ef,62a446cb763199a518959d1d,,,,,,,,,,,,,,,,,,,,,,,,,,,,,,,,,,,,,,,,,,,,,,,,,,,0,0,0,0,1,,,,,,,,,,,,,,,,,,,,,,,,,,,,,,,,,,,,,,,,,,,,,,
,,,,,,,,,,,,607edd6030f140e8b94d477a,19,Mężczyzna,2022-06-11_09h40.33.672,task,2021.1.4,Win32,60.0240096,6299f149e92ead563fba08ef,62a446cb763199a518959d1d,,,,,,,,,,,,,1,,,,,,,,,,Practice,2,(4x4) - 15,1,,,,,,,,,,,,,,,,"[""1""]",1,[2.798999999999978],1,0,0,0,1,1,,,,,,,,,,,,,,,,,,,,,,,,,,,,,,,,,,,,,,,,,,,,,,,,,,,
,,,,,,,,,,,X V Q F H G B L J M P D K C T S W R N Z,607edd6030f140e8b94d477a,19,Mężczyzna,2022-06-11_09h40.33.672,task,2021.1.4,Win32,60.0240096,6299f149e92ead563fba08ef,62a446cb763199a518959d1d,,,,,,,,,,,,,,,,,,,,,,,,,,,,,,,,,,,,,,,,,,,,,,,,,,,1,0,1,0,1,,,,,,,,,,,,,,,,,,,,,,,,,,,,,,,,,,,,,,,,,,,,,,
,,,,,,,,,,,,607edd6030f140e8b94d477a,19,Mężczyzna,2022-06-11_09h40.33.672,task,2021.1.4,Win32,60.0240096,6299f149e92ead563fba08ef,62a446cb763199a518959d1d,,,,,,,,,,,,,,,,,,,,,,,,,,,,,,,,,,,,,,,,,,,,,,,,,,,,,,,,zc,"[""z"",""c""]",0,"[1.8340000000000032,2.1580000000000155,3.1089999999999804]",1,0,0,0,0,1,,,,,,,,,,,,,,,,,,,,,,,,,,,,,,,,,,,,
,,,,,,,,,,,,607edd6030f140e8b94d477a,19,Mężczyzna,2022-06-11_09h40.33.672,task,2021.1.4,Win32,60.0240096,6299f149e92ead563fba08ef,62a446cb763199a518959d1d,,,,,,,,,,,,,1,,,,,,,,,,Practice,2,(4x4) - 15,1,,,,,,,,,,,,,,,,"[""1""]",1,[1.941000000000031],1,0,0,0,1,1,,,,,,,,,,,,,,,,,,,,,,,,,,,,,,,,,,,,,,,,,,,,,,,,,,,
,,,,,,,,,,,X V Q F H G B L J M P D K C T S W R N Z,607edd6030f140e8b94d477a,19,Mężczyzna,2022-06-11_09h40.33.672,task,2021.1.4,Win32,60.0240096,6299f149e92ead563fba08ef,62a446cb763199a518959d1d,,,,,,,,,,,,,,,,,,,,,,,,,,,,,,,,,,,,,,,,,,,,,,,,,,,0,0,0,0,1,,,,,,,,,,,,,,,,,,,,,,,,,,,,,,,,,,,,,,,,,,,,,,
,,,,,,,,,,,,607edd6030f140e8b94d477a,19,Mężczyzna,2022-06-11_09h40.33.672,task,2021.1.4,Win32,60.0240096,6299f149e92ead563fba08ef,62a446cb763199a518959d1d,,,,,,,,,,,,,5,,,,,,,,,,Practice,6,(4/2) + 3,5,,,,,,,,,,,,,,,,"[""5""]",1,[2.134999999999991],1,0,0,0,5,1,,,,,,,,,,,,,,,,,,,,,,,,,,,,,,,,,,,,,,,,,,,,,,,,,,,
,,,,,,,,,,,X V Q F H G B L J M P D K C T S W R N Z,607edd6030f140e8b94d477a,19,Mężczyzna,2022-06-11_09h40.33.672,task,2021.1.4,Win32,60.0240096,6299f149e92ead563fba08ef,62a446cb763199a518959d1d,,,,,,,,,,,,,,,,,,,,,,,,,,,,,,,,,,,,,,,,,,,,,,,,,,,1,0,1,0,1,,,,,,,,,,,,,,,,,,,,,,,,,,,,,,,,,,,,,,,,,,,,,,
,,,,,,,,,,,,607edd6030f140e8b94d477a,19,Mężczyzna,2022-06-11_09h40.33.672,task,2021.1.4,Win32,60.0240096,6299f149e92ead563fba08ef,62a446cb763199a518959d1d,,,,,,,,,,,,,,,,,,,,,,,,,,,,,,,,,,,,,,,,,,,,,,,,,,,,,,,,dm,"[""d"",""m""]",0,"[1.2399999999999523,1.884999999999991,2.3999999999999773]",1,1,0,1,0,1,,,,,,,,,,,,,,,,,,,,,,,,,,,,,,,,,,,,
,,,,,,,,,,,,607edd6030f140e8b94d477a,19,Mężczyzna,2022-06-11_09h40.33.672,task,2021.1.4,Win32,60.0240096,6299f149e92ead563fba08ef,62a446cb763199a518959d1d,,,,,,,,,,,,,4,,,,,,,,,,Practice,5,(2x6) - 8,4,,,,,,,,,,,,,,,,"[""4""]",1,[2.2660000000000196],1,0,0,0,4,1,,,,,,,,,,,,,,,,,,,,,,,,,,,,,,,,,,,,,,,,,,,,,,,,,,,
,,,,,,,,,,,X V Q F H G B L J M P D K C T S W R N Z,607edd6030f140e8b94d477a,19,Mężczyzna,2022-06-11_09h40.33.672,task,2021.1.4,Win32,60.0240096,6299f149e92ead563fba08ef,62a446cb763199a518959d1d,,,,,,,,,,,,,,,,,,,,,,,,,,,,,,,,,,,,,,,,,,,,,,,,,,,0,0,0,0,1,,,,,,,,,,,,,,,,,,,,,,,,,,,,,,,,,,,,,,,,,,,,,,
,,,,,,,,,,,,607edd6030f140e8b94d477a,19,Mężczyzna,2022-06-11_09h40.33.672,task,2021.1.4,Win32,60.0240096,6299f149e92ead563fba08ef,62a446cb763199a518959d1d,,,,,,,,,,,,,1,,,,,,,,,,Practice,2,(4x4) - 15,1,,,,,,,,,,,,,,,,"[""1""]",1,[1.5710000000000264],1,0,0,0,1,1,,,,,,,,,,,,,,,,,,,,,,,,,,,,,,,,,,,,,,,,,,,,,,,,,,,
,,,,,,,,,,,X V Q F H G B L J M P D K C T S W R N Z,607edd6030f140e8b94d477a,19,Mężczyzna,2022-06-11_09h40.33.672,task,2021.1.4,Win32,60.0240096,6299f149e92ead563fba08ef,62a446cb763199a518959d1d,,,,,,,,,,,,,,,,,,,,,,,,,,,,,,,,,,,,,,,,,,,,,,,,,,,1,0,1,0,1,,,,,,,,,,,,,,,,,,,,,,,,,,,,,,,,,,,,,,,,,,,,,,
,,,,,,,,,,,,607edd6030f140e8b94d477a,19,Mężczyzna,2022-06-11_09h40.33.672,task,2021.1.4,Win32,60.0240096,6299f149e92ead563fba08ef,62a446cb763199a518959d1d,,,,,,,,,,,,,,,,,,,,,,,,,,,,,,,,,,,,,,,,,,,,,,,,,,,,,,,,kd,"[""k"",""d""]",0,"[1.5179999999999723,1.6269999999999527,2.019999999999982]",1,2,0,2,0,1,,,,,,,,,,,,,,,,,,,,,,,,,,,,,,,,,,,,
,,,,,,,,,,,,607edd6030f140e8b94d477a,19,Mężczyzna,2022-06-11_09h40.33.672,task,2021.1.4,Win32,60.0240096,6299f149e92ead563fba08ef,62a446cb763199a518959d1d,,,,,,,,,,,,,3,,,,,,,,,,Task,27,(3/3) + 2,3,,,,,,,,,,,,,,,,,,,1,,,,,,,,,,,,,,,,,,,,,space,14.161,"[""3""]",1,[3.085999999999956],0,0,0,26,1,,,,,,,,,,,,,,,,,,,,,,,,,,
,,,,,,,,,,,X V Q F H G B L J M P D K C T S W R N Z,607edd6030f140e8b94d477a,19,Mężczyzna,2022-06-11_09h40.33.672,task,2021.1.4,Win32,60.0240096,6299f149e92ead563fba08ef,62a446cb763199a518959d1d,,,,,,,,,,,,,,,,,,,,,,,,,,,,,,,,,,,,,,,,,,,,,,,,,,,,,,,,,,,,,,,,,,,,,,,,,,,,0,0,0,0,1,,,,,,,,,,,,,,,,,,,,,
,,,,,,,,,,,,607edd6030f140e8b94d477a,19,Mężczyzna,2022-06-11_09h40.33.672,task,2021.1.4,Win32,60.0240096,6299f149e92ead563fba08ef,62a446cb763199a518959d1d,,,,,,,,,,,,,7,,,,,,,,,,Task,6,(12/2) + 1,7,,,,,,,,,,,,,,,,,,,1,,,,,,,,,,,,,,,,,,,,,,,"[""7""]",1,[4.531999999999982],0,0,0,5,1,,,,,,,,,,,,,,,,,,,,,,,,,,
,,,,,,,,,,,X V Q F H G B L J M P D K C T S W R N Z,607edd6030f140e8b94d477a,19,Mężczyzna,2022-06-11_09h40.33.672,task,2021.1.4,Win32,60.0240096,6299f149e92ead563fba08ef,62a446cb763199a518959d1d,,,,,,,,,,,,,,,,,,,,,,,,,,,,,,,,,,,,,,,,,,,,,,,,,,,,,,,,,,,,,,,,,,,,,,,,,,,,1,0,1,0,1,,,,,,,,,,,,,,,,,,,,,
,,,,,,,,,,,,607edd6030f140e8b94d477a,19,Mężczyzna,2022-06-11_09h40.33.672,task,2021.1.4,Win32,60.0240096,6299f149e92ead563fba08ef,62a446cb763199a518959d1d,,,,,,,,,,,,,,,,,,,,,,,,,,,,,,,,,,,,,,,,,,,,,,,,,,,,,,,,,,,,,,,,,,,,,,,,,,,,,,,,,zs,"[""z"",""s""]",0,"[1.0190000000000055,1.350999999999999,1.7580000000000382]",1,ZS,0,0,0,0,1,,,,,,,,,,
,,,,,,,,,,,,607edd6030f140e8b94d477a,19,Mężczyzna,2022-06-11_09h40.33.672,task,2021.1.4,Win32,60.0240096,6299f149e92ead563fba08ef,62a446cb763199a518959d1d,,,,,,,,,,,,,6,,,,,,,,,,Task,30,(6/3) + 4 ,6,,,,,,,,,,,,,,,,,,,1,,,,,,,,,,,,,,,,,,,,,,,"[""6""]",1,[2.583000000000027],0,0,0,29,1,,,,,,,,,,,,,,,,,,,,,,,,,,
,,,,,,,,,,,X V Q F H G B L J M P D K C T S W R N Z,607edd6030f140e8b94d477a,19,Mężczyzna,2022-06-11_09h40.33.672,task,2021.1.4,Win32,60.0240096,6299f149e92ead563fba08ef,62a446cb763199a518959d1d,,,,,,,,,,,,,,,,,,,,,,,,,,,,,,,,,,,,,,,,,,,,,,,,,,,,,,,,,,,,,,,,,,,,,,,,,,,,0,0,0,0,1,,,,,,,,,,,,,,,,,,,,,
,,,,,,,,,,,,607edd6030f140e8b94d477a,19,Mężczyzna,2022-06-11_09h40.33.672,task,2021.1.4,Win32,60.0240096,6299f149e92ead563fba08ef,62a446cb763199a518959d1d,,,,,,,,,,,,,7,,,,,,,,,,Task,14,(2x2) + 3,7,,,,,,,,,,,,,,,,,,,1,,,,,,,,,,,,,,,,,,,,,,,"[""7""]",1,[3.56899999999996],0,0,0,13,1,,,,,,,,,,,,,,,,,,,,,,,,,,
,,,,,,,,,,,X V Q F H G B L J M P D K C T S W R N Z,607edd6030f140e8b94d477a,19,Mężczyzna,2022-06-11_09h40.33.672,task,2021.1.4,Win32,60.0240096,6299f149e92ead563fba08ef,62a446cb763199a518959d1d,,,,,,,,,,,,,,,,,,,,,,,,,,,,,,,,,,,,,,,,,,,,,,,,,,,,,,,,,,,,,,,,,,,,,,,,,,,,1,0,1,0,1,,,,,,,,,,,,,,,,,,,,,
,,,,,,,,,,,,607edd6030f140e8b94d477a,19,Mężczyzna,2022-06-11_09h40.33.672,task,2021.1.4,Win32,60.0240096,6299f149e92ead563fba08ef,62a446cb763199a518959d1d,,,,,,,,,,,,,6,,,,,,,,,,Task,30,(6/3) + 4 ,6,,,,,,,,,,,,,,,,,,,1,,,,,,,,,,,,,,,,,,,,,,,"[""6""]",1,[3.2239999999999895],0,0,0,29,1,,,,,,,,,,,,,,,,,,,,,,,,,,
,,,,,,,,,,,X V Q F H G B L J M P D K C T S W R N Z,607edd6030f140e8b94d477a,19,Mężczyzna,2022-06-11_09h40.33.672,task,2021.1.4,Win32,60.0240096,6299f149e92ead563fba08ef,62a446cb763199a518959d1d,,,,,,,,,,,,,,,,,,,,,,,,,,,,,,,,,,,,,,,,,,,,,,,,,,,,,,,,,,,,,,,,,,,,,,,,,,,,2,0,2,0,1,,,,,,,,,,,,,,,,,,,,,
,,,,,,,,,,,,607edd6030f140e8b94d477a,19,Mężczyzna,2022-06-11_09h40.33.672,task,2021.1.4,Win32,60.0240096,6299f149e92ead563fba08ef,62a446cb763199a518959d1d,,,,,,,,,,,,,,,,,,,,,,,,,,,,,,,,,,,,,,,,,,,,,,,,,,,,,,,,,,,,,,,,,,,,,,,,,,,,,,,,,kzn,"[""k"",""z"",""n""]",0,"[1.4359999999999786,1.7900000000000205,1.97199999999998,2.738999999999976]",1,KZN,1,0,1,0,1,,,,,,,,,,
,,,,,,,,,,,,607edd6030f140e8b94d477a,19,Mężczyzna,2022-06-11_09h40.33.672,task,2021.1.4,Win32,60.0240096,6299f149e92ead563fba08ef,62a446cb763199a518959d1d,,,,,,,,,,,,,5,,,,,,,,,,Task,36,(8/4) + 3,5,,,,,,,,,,,,,,,,,,,1,,,,,,,,,,,,,,,,,,,,,,,"[""5""]",1,[1.7889999999999873],0,0,0,35,1,,,,,,,,,,,,,,,,,,,,,,,,,,
,,,,,,,,,,,X V Q F H G B L J M P D K C T S W R N Z,607edd6030f140e8b94d477a,19,Mężczyzna,2022-06-11_09h40.33.672,task,2021.1.4,Win32,60.0240096,6299f149e92ead563fba08ef,62a446cb763199a518959d1d,,,,,,,,,,,,,,,,,,,,,,,,,,,,,,,,,,,,,,,,,,,,,,,,,,,,,,,,,,,,,,,,,,,,,,,,,,,,0,0,0,0,1,,,,,,,,,,,,,,,,,,,,,
,,,,,,,,,,,,607edd6030f140e8b94d477a,19,Mężczyzna,2022-06-11_09h40.33.672,task,2021.1.4,Win32,60.0240096,6299f149e92ead563fba08ef,62a446cb763199a518959d1d,,,,,,,,,,,,,0,,,,,,,,,,Task,8,(1x5) - 5,0,,,,,,,,,,,,,,,,,,,1,,,,,,,,,,,,,,,,,,,,,,,"[""0""]",1,[3.3009999999999877],0,0,0,7,1,,,,,,,,,,,,,,,,,,,,,,,,,,
,,,,,,,,,,,X V Q F H G B L J M P D K C T S W R N Z,607edd6030f140e8b94d477a,19,Mężczyzna,2022-06-11_09h40.33.672,task,2021.1.4,Win32,60.0240096,6299f149e92ead563fba08ef,62a446cb763199a518959d1d,,,,,,,,,,,,,,,,,,,,,,,,,,,,,,,,,,,,,,,,,,,,,,,,,,,,,,,,,,,,,,,,,,,,,,,,,,,,1,0,1,0,1,,,,,,,,,,,,,,,,,,,,,
,,,,,,,,,,,,607edd6030f140e8b94d477a,19,Mężczyzna,2022-06-11_09h40.33.672,task,2021.1.4,Win32,60.0240096,6299f149e92ead563fba08ef,62a446cb763199a518959d1d,,,,,,,,,,,,,4,,,,,,,,,,Task,11,(18/3) - 2,4,,,,,,,,,,,,,,,,,,,1,,,,,,,,,,,,,,,,,,,,,,,"[""4""]",1,[2.8979999999999677],0,0,0,10,1,,,,,,,,,,,,,,,,,,,,,,,,,,
,,,,,,,,,,,X V Q F H G B L J M P D K C T S W R N Z,607edd6030f140e8b94d477a,19,Mężczyzna,2022-06-11_09h40.33.672,task,2021.1.4,Win32,60.0240096,6299f149e92ead563fba08ef,62a446cb763199a518959d1d,,,,,,,,,,,,,,,,,,,,,,,,,,,,,,,,,,,,,,,,,,,,,,,,,,,,,,,,,,,,,,,,,,,,,,,,,,,,2,0,2,0,1,,,,,,,,,,,,,,,,,,,,,
,,,,,,,,,,,,607edd6030f140e8b94d477a,19,Mężczyzna,2022-06-11_09h40.33.672,task,2021.1.4,Win32,60.0240096,6299f149e92ead563fba08ef,62a446cb763199a518959d1d,,,,,,,,,,,,,3,,,,,,,,,,Task,35,(1x2) + 1,3,,,,,,,,,,,,,,,,,,,1,,,,,,,,,,,,,,,,,,,,,,,"[""3""]",1,[2.3170000000000073],0,0,0,34,1,,,,,,,,,,,,,,,,,,,,,,,,,,
,,,,,,,,,,,X V Q F H G B L J M P D K C T S W R N Z,607edd6030f140e8b94d477a,19,Mężczyzna,2022-06-11_09h40.33.672,task,2021.1.4,Win32,60.0240096,6299f149e92ead563fba08ef,62a446cb763199a518959d1d,,,,,,,,,,,,,,,,,,,,,,,,,,,,,,,,,,,,,,,,,,,,,,,,,,,,,,,,,,,,,,,,,,,,,,,,,,,,3,0,3,0,1,,,,,,,,,,,,,,,,,,,,,
,,,,,,,,,,,,607edd6030f140e8b94d477a,19,Mężczyzna,2022-06-11_09h40.33.672,task,2021.1.4,Win32,60.0240096,6299f149e92ead563fba08ef,62a446cb763199a518959d1d,,,,,,,,,,,,,,,,,,,,,,,,,,,,,,,,,,,,,,,,,,,,,,,,,,,,,,,,,,,,,,,,,,,,,,,,,,,,,,,,,pjwx,"[""p"",""j"",""w"",""x""]",0,"[1.367999999999995,1.7509999999999764,2.0860000000000127,2.4350000000000023,2.769999999999982]",1,PJWX,2,0,2,0,1,,,,,,,,,,
,,,,,,,,,,,,607edd6030f140e8b94d477a,19,Mężczyzna,2022-06-11_09h40.33.672,task,2021.1.4,Win32,60.0240096,6299f149e92ead563fba08ef,62a446cb763199a518959d1d,,,,,,,,,,,,,9,,,,,,,,,,Task,7,(3x7) - 12,9,,,,,,,,,,,,,,,,,,,1,,,,,,,,,,,,,,,,,,,,,,,"[""9""]",1,[3.3910000000000196],0,0,0,6,1,,,,,,,,,,,,,,,,,,,,,,,,,,
,,,,,,,,,,,X V Q F H G B L J M P D K C T S W R N Z,607edd6030f140e8b94d477a,19,Mężczyzna,2022-06-11_09h40.33.672,task,2021.1.4,Win32,60.0240096,6299f149e92ead563fba08ef,62a446cb763199a518959d1d,,,,,,,,,,,,,,,,,,,,,,,,,,,,,,,,,,,,,,,,,,,,,,,,,,,,,,,,,,,,,,,,,,,,,,,,,,,,0,0,0,0,1,,,,,,,,,,,,,,,,,,,,,
,,,,,,,,,,,,607edd6030f140e8b94d477a,19,Mężczyzna,2022-06-11_09h40.33.672,task,2021.1.4,Win32,60.0240096,6299f149e92ead563fba08ef,62a446cb763199a518959d1d,,,,,,,,,,,,,1,,,,,,,,,,Task,9,(3x7) - 20,1,,,,,,,,,,,,,,,,,,,1,,,,,,,,,,,,,,,,,,,,,,,"[""1""]",1,[1.7160000000000082],0,0,0,8,1,,,,,,,,,,,,,,,,,,,,,,,,,,
,,,,,,,,,,,X V Q F H G B L J M P D K C T S W R N Z,607edd6030f140e8b94d477a,19,Mężczyzna,2022-06-11_09h40.33.672,task,2021.1.4,Win32,60.0240096,6299f149e92ead563fba08ef,62a446cb763199a518959d1d,,,,,,,,,,,,,,,,,,,,,,,,,,,,,,,,,,,,,,,,,,,,,,,,,,,,,,,,,,,,,,,,,,,,,,,,,,,,1,0,1,0,1,,,,,,,,,,,,,,,,,,,,,
,,,,,,,,,,,,607edd6030f140e8b94d477a,19,Mężczyzna,2022-06-11_09h40.33.672,task,2021.1.4,Win32,60.0240096,6299f149e92ead563fba08ef,62a446cb763199a518959d1d,,,,,,,,,,,,,2,,,,,,,,,,Task,19,(6/2) - 1,2,,,,,,,,,,,,,,,,,,,1,,,,,,,,,,,,,,,,,,,,,,,"[""2""]",1,[2.117999999999995],0,0,0,18,1,,,,,,,,,,,,,,,,,,,,,,,,,,
,,,,,,,,,,,X V Q F H G B L J M P D K C T S W R N Z,607edd6030f140e8b94d477a,19,Mężczyzna,2022-06-11_09h40.33.672,task,2021.1.4,Win32,60.0240096,6299f149e92ead563fba08ef,62a446cb763199a518959d1d,,,,,,,,,,,,,,,,,,,,,,,,,,,,,,,,,,,,,,,,,,,,,,,,,,,,,,,,,,,,,,,,,,,,,,,,,,,,2,0,2,0,1,,,,,,,,,,,,,,,,,,,,,
,,,,,,,,,,,,607edd6030f140e8b94d477a,19,Mężczyzna,2022-06-11_09h40.33.672,task,2021.1.4,Win32,60.0240096,6299f149e92ead563fba08ef,62a446cb763199a518959d1d,,,,,,,,,,,,,2,,,,,,,,,,Task,26,(2x9) - 16,2,,,,,,,,,,,,,,,,,,,1,,,,,,,,,,,,,,,,,,,,,,,"[""2""]",1,[2.6030000000000086],0,0,0,25,1,,,,,,,,,,,,,,,,,,,,,,,,,,
,,,,,,,,,,,X V Q F H G B L J M P D K C T S W R N Z,607edd6030f140e8b94d477a,19,Mężczyzna,2022-06-11_09h40.33.672,task,2021.1.4,Win32,60.0240096,6299f149e92ead563fba08ef,62a446cb763199a518959d1d,,,,,,,,,,,,,,,,,,,,,,,,,,,,,,,,,,,,,,,,,,,,,,,,,,,,,,,,,,,,,,,,,,,,,,,,,,,,3,0,3,0,1,,,,,,,,,,,,,,,,,,,,,
,,,,,,,,,,,,607edd6030f140e8b94d477a,19,Mężczyzna,2022-06-11_09h40.33.672,task,2021.1.4,Win32,60.0240096,6299f149e92ead563fba08ef,62a446cb763199a518959d1d,,,,,,,,,,,,,8,,,,,,,,,,Task,23,(2x3) + 2,8,,,,,,,,,,,,,,,,,,,1,,,,,,,,,,,,,,,,,,,,,,,"[""8""]",1,[2.483000000000004],0,0,0,22,1,,,,,,,,,,,,,,,,,,,,,,,,,,
,,,,,,,,,,,X V Q F H G B L J M P D K C T S W R N Z,607edd6030f140e8b94d477a,19,Mężczyzna,2022-06-11_09h40.33.672,task,2021.1.4,Win32,60.0240096,6299f149e92ead563fba08ef,62a446cb763199a518959d1d,,,,,,,,,,,,,,,,,,,,,,,,,,,,,,,,,,,,,,,,,,,,,,,,,,,,,,,,,,,,,,,,,,,,,,,,,,,,4,0,4,0,1,,,,,,,,,,,,,,,,,,,,,
,,,,,,,,,,,,607edd6030f140e8b94d477a,19,Mężczyzna,2022-06-11_09h40.33.672,task,2021.1.4,Win32,60.0240096,6299f149e92ead563fba08ef,62a446cb763199a518959d1d,,,,,,,,,,,,,,,,,,,,,,,,,,,,,,,,,,,,,,,,,,,,,,,,,,,,,,,,,,,,,,,,,,,,,,,,,,,,,,,,,wfcnh,"[""w"",""f"",""c"",""n"",""h""]",0,"[1.219000000000051,1.5230000000000246,1.8530000000000086,2.867999999999995,3.2520000000000095,4.3700000000000045]",1,WFCNH,3,0,3,0,1,,,,,,,,,,
,,,,,,,,,,,,607edd6030f140e8b94d477a,19,Mężczyzna,2022-06-11_09h40.33.672,task,2021.1.4,Win32,60.0240096,6299f149e92ead563fba08ef,62a446cb763199a518959d1d,,,,,,,,,,,,,6,,,,,,,,,,Task,30,(6/3) + 4 ,6,,,,,,,,,,,,,,,,,,,1,,,,,,,,,,,,,,,,,,,,,,,"[""6""]",1,[1.9820000000000277],0,0,0,29,1,,,,,,,,,,,,,,,,,,,,,,,,,,
,,,,,,,,,,,X V Q F H G B L J M P D K C T S W R N Z,607edd6030f140e8b94d477a,19,Mężczyzna,2022-06-11_09h40.33.672,task,2021.1.4,Win32,60.0240096,6299f149e92ead563fba08ef,62a446cb763199a518959d1d,,,,,,,,,,,,,,,,,,,,,,,,,,,,,,,,,,,,,,,,,,,,,,,,,,,,,,,,,,,,,,,,,,,,,,,,,,,,0,0,0,0,1,,,,,,,,,,,,,,,,,,,,,
,,,,,,,,,,,,607edd6030f140e8b94d477a,19,Mężczyzna,2022-06-11_09h40.33.672,task,2021.1.4,Win32,60.0240096,6299f149e92ead563fba08ef,62a446cb763199a518959d1d,,,,,,,,,,,,,6,,,,,,,,,,Task,37,(3/3) + 5,6,,,,,,,,,,,,,,,,,,,1,,,,,,,,,,,,,,,,,,,,,,,"[""6""]",1,[2.5160000000000196],0,0,0,36,1,,,,,,,,,,,,,,,,,,,,,,,,,,
,,,,,,,,,,,X V Q F H G B L J M P D K C T S W R N Z,607edd6030f140e8b94d477a,19,Mężczyzna,2022-06-11_09h40.33.672,task,2021.1.4,Win32,60.0240096,6299f149e92ead563fba08ef,62a446cb763199a518959d1d,,,,,,,,,,,,,,,,,,,,,,,,,,,,,,,,,,,,,,,,,,,,,,,,,,,,,,,,,,,,,,,,,,,,,,,,,,,,1,0,1,0,1,,,,,,,,,,,,,,,,,,,,,
,,,,,,,,,,,,607edd6030f140e8b94d477a,19,Mężczyzna,2022-06-11_09h40.33.672,task,2021.1.4,Win32,60.0240096,6299f149e92ead563fba08ef,62a446cb763199a518959d1d,,,,,,,,,,,,,0,,,,,,,,,,Task,33,(1/1) - 1,0,,,,,,,,,,,,,,,,,,,1,,,,,,,,,,,,,,,,,,,,,,,"[""0""]",1,[1.8179999999999836],0,0,0,32,1,,,,,,,,,,,,,,,,,,,,,,,,,,
,,,,,,,,,,,X V Q F H G B L J M P D K C T S W R N Z,607edd6030f140e8b94d477a,19,Mężczyzna,2022-06-11_09h40.33.672,task,2021.1.4,Win32,60.0240096,6299f149e92ead563fba08ef,62a446cb763199a518959d1d,,,,,,,,,,,,,,,,,,,,,,,,,,,,,,,,,,,,,,,,,,,,,,,,,,,,,,,,,,,,,,,,,,,,,,,,,,,,2,0,2,0,1,,,,,,,,,,,,,,,,,,,,,
,,,,,,,,,,,,607edd6030f140e8b94d477a,19,Mężczyzna,2022-06-11_09h40.33.672,task,2021.1.4,Win32,60.0240096,6299f149e92ead563fba08ef,62a446cb763199a518959d1d,,,,,,,,,,,,,2,,,,,,,,,,Task,19,(6/2) - 1,2,,,,,,,,,,,,,,,,,,,1,,,,,,,,,,,,,,,,,,,,,,,"[""2""]",1,[2.1720000000000255],0,0,0,18,1,,,,,,,,,,,,,,,,,,,,,,,,,,
,,,,,,,,,,,X V Q F H G B L J M P D K C T S W R N Z,607edd6030f140e8b94d477a,19,Mężczyzna,2022-06-11_09h40.33.672,task,2021.1.4,Win32,60.0240096,6299f149e92ead563fba08ef,62a446cb763199a518959d1d,,,,,,,,,,,,,,,,,,,,,,,,,,,,,,,,,,,,,,,,,,,,,,,,,,,,,,,,,,,,,,,,,,,,,,,,,,,,3,0,3,0,1,,,,,,,,,,,,,,,,,,,,,
,,,,,,,,,,,,607edd6030f140e8b94d477a,19,Mężczyzna,2022-06-11_09h40.33.672,task,2021.1.4,Win32,60.0240096,6299f149e92ead563fba08ef,62a446cb763199a518959d1d,,,,,,,,,,,,,9,,,,,,,,,,Task,40,(7x2) - 5,9,,,,,,,,,,,,,,,,,,,1,,,,,,,,,,,,,,,,,,,,,,,"[""9""]",1,[2.599999999999966],0,0,0,39,1,,,,,,,,,,,,,,,,,,,,,,,,,,
,,,,,,,,,,,X V Q F H G B L J M P D K C T S W R N Z,607edd6030f140e8b94d477a,19,Mężczyzna,2022-06-11_09h40.33.672,task,2021.1.4,Win32,60.0240096,6299f149e92ead563fba08ef,62a446cb763199a518959d1d,,,,,,,,,,,,,,,,,,,,,,,,,,,,,,,,,,,,,,,,,,,,,,,,,,,,,,,,,,,,,,,,,,,,,,,,,,,,4,0,4,0,1,,,,,,,,,,,,,,,,,,,,,
,,,,,,,,,,,,607edd6030f140e8b94d477a,19,Mężczyzna,2022-06-11_09h40.33.672,task,2021.1.4,Win32,60.0240096,6299f149e92ead563fba08ef,62a446cb763199a518959d1d,,,,,,,,,,,,,1,,,,,,,,,,Task,1,(12/6) - 1,1,,,,,,,,,,,,,,,,,,,1,,,,,,,,,,,,,,,,,,,,,,,"[""1""]",1,[2.583000000000027],0,0,0,0,1,,,,,,,,,,,,,,,,,,,,,,,,,,
,,,,,,,,,,,X V Q F H G B L J M P D K C T S W R N Z,607edd6030f140e8b94d477a,19,Mężczyzna,2022-06-11_09h40.33.672,task,2021.1.4,Win32,60.0240096,6299f149e92ead563fba08ef,62a446cb763199a518959d1d,,,,,,,,,,,,,,,,,,,,,,,,,,,,,,,,,,,,,,,,,,,,,,,,,,,,,,,,,,,,,,,,,,,,,,,,,,,,5,0,5,0,1,,,,,,,,,,,,,,,,,,,,,
,,,,,,,,,,,,607edd6030f140e8b94d477a,19,Mężczyzna,2022-06-11_09h40.33.672,task,2021.1.4,Win32,60.0240096,6299f149e92ead563fba08ef,62a446cb763199a518959d1d,,,,,,,,,,,,,,,,,,,,,,,,,,,,,,,,,,,,,,,,,,,,,,,,,,,,,,,,,,,,,,,,,,,,,,,,,,,,,,,,,ccjqwh,"[""c"",""c"",""j"",""q"",""w"",""h""]",0,"[0.9850000000000136,1.2069999999999936,2.105000000000018,2.358000000000004,2.6340000000000146,3.3009999999999877,4.035000000000025]",0,NCQJWH,4,0,4,0,1,,,,,,,,,,
,,,,,,,,,,,,607edd6030f140e8b94d477a,19,Mężczyzna,2022-06-11_09h40.33.672,task,2021.1.4,Win32,60.0240096,6299f149e92ead563fba08ef,62a446cb763199a518959d1d,,,,,,,,,,,,,6,,,,,,,,,,Task,5,(2x3) + 0,6,,,,,,,,,,,,,,,,,,,1,,,,,,,,,,,,,,,,,,,,,,,"[""6""]",1,[4.099999999999966],0,0,0,4,1,,,,,,,,,,,,,,,,,,,,,,,,,,
,,,,,,,,,,,X V Q F H G B L J M P D K C T S W R N Z,607edd6030f140e8b94d477a,19,Mężczyzna,2022-06-11_09h40.33.672,task,2021.1.4,Win32,60.0240096,6299f149e92ead563fba08ef,62a446cb763199a518959d1d,,,,,,,,,,,,,,,,,,,,,,,,,,,,,,,,,,,,,,,,,,,,,,,,,,,,,,,,,,,,,,,,,,,,,,,,,,,,0,0,0,0,1,,,,,,,,,,,,,,,,,,,,,
,,,,,,,,,,,,607edd6030f140e8b94d477a,19,Mężczyzna,2022-06-11_09h40.33.672,task,2021.1.4,Win32,60.0240096,6299f149e92ead563fba08ef,62a446cb763199a518959d1d,,,,,,,,,,,,,3,,,,,,,,,,Task,3,(2x3) - 3,3,,,,,,,,,,,,,,,,,,,1,,,,,,,,,,,,,,,,,,,,,,,"[""3""]",1,[2.464999999999975],0,0,0,2,1,,,,,,,,,,,,,,,,,,,,,,,,,,
,,,,,,,,,,,X V Q F H G B L J M P D K C T S W R N Z,607edd6030f140e8b94d477a,19,Mężczyzna,2022-06-11_09h40.33.672,task,2021.1.4,Win32,60.0240096,6299f149e92ead563fba08ef,62a446cb763199a518959d1d,,,,,,,,,,,,,,,,,,,,,,,,,,,,,,,,,,,,,,,,,,,,,,,,,,,,,,,,,,,,,,,,,,,,,,,,,,,,1,0,1,0,1,,,,,,,,,,,,,,,,,,,,,
,,,,,,,,,,,,607edd6030f140e8b94d477a,19,Mężczyzna,2022-06-11_09h40.33.672,task,2021.1.4,Win32,60.0240096,6299f149e92ead563fba08ef,62a446cb763199a518959d1d,,,,,,,,,,,,,1,,,,,,,,,,Task,1,(12/6) - 1,1,,,,,,,,,,,,,,,,,,,1,,,,,,,,,,,,,,,,,,,,,,,"[""1""]",1,[2.516999999999996],0,0,0,0,1,,,,,,,,,,,,,,,,,,,,,,,,,,
,,,,,,,,,,,X V Q F H G B L J M P D K C T S W R N Z,607edd6030f140e8b94d477a,19,Mężczyzna,2022-06-11_09h40.33.672,task,2021.1.4,Win32,60.0240096,6299f149e92ead563fba08ef,62a446cb763199a518959d1d,,,,,,,,,,,,,,,,,,,,,,,,,,,,,,,,,,,,,,,,,,,,,,,,,,,,,,,,,,,,,,,,,,,,,,,,,,,,2,0,2,0,1,,,,,,,,,,,,,,,,,,,,,
,,,,,,,,,,,,607edd6030f140e8b94d477a,19,Mężczyzna,2022-06-11_09h40.33.672,task,2021.1.4,Win32,60.0240096,6299f149e92ead563fba08ef,62a446cb763199a518959d1d,,,,,,,,,,,,,9,,,,,,,,,,Task,40,(7x2) - 5,9,,,,,,,,,,,,,,,,,,,1,,,,,,,,,,,,,,,,,,,,,,,"[""9""]",1,[3.25],0,0,0,39,1,,,,,,,,,,,,,,,,,,,,,,,,,,
,,,,,,,,,,,X V Q F H G B L J M P D K C T S W R N Z,607edd6030f140e8b94d477a,19,Mężczyzna,2022-06-11_09h40.33.672,task,2021.1.4,Win32,60.0240096,6299f149e92ead563fba08ef,62a446cb763199a518959d1d,,,,,,,,,,,,,,,,,,,,,,,,,,,,,,,,,,,,,,,,,,,,,,,,,,,,,,,,,,,,,,,,,,,,,,,,,,,,3,0,3,0,1,,,,,,,,,,,,,,,,,,,,,
,,,,,,,,,,,,607edd6030f140e8b94d477a,19,Mężczyzna,2022-06-11_09h40.33.672,task,2021.1.4,Win32,60.0240096,6299f149e92ead563fba08ef,62a446cb763199a518959d1d,,,,,,,,,,,,,7,,,,,,,,,,Task,31,(4/2) + 5,7,,,,,,,,,,,,,,,,,,,1,,,,,,,,,,,,,,,,,,,,,,,"[""7""]",1,[3.3009999999999877],0,0,0,30,1,,,,,,,,,,,,,,,,,,,,,,,,,,
,,,,,,,,,,,X V Q F H G B L J M P D K C T S W R N Z,607edd6030f140e8b94d477a,19,Mężczyzna,2022-06-11_09h40.33.672,task,2021.1.4,Win32,60.0240096,6299f149e92ead563fba08ef,62a446cb763199a518959d1d,,,,,,,,,,,,,,,,,,,,,,,,,,,,,,,,,,,,,,,,,,,,,,,,,,,,,,,,,,,,,,,,,,,,,,,,,,,,4,0,4,0,1,,,,,,,,,,,,,,,,,,,,,
,,,,,,,,,,,,607edd6030f140e8b94d477a,19,Mężczyzna,2022-06-11_09h40.33.672,task,2021.1.4,Win32,60.0240096,6299f149e92ead563fba08ef,62a446cb763199a518959d1d,,,,,,,,,,,,,8,,,,,,,,,,Task,32,(8/2) + 4,8,,,,,,,,,,,,,,,,,,,1,,,,,,,,,,,,,,,,,,,,,,,"[""8""]",1,[2.833000000000027],0,0,0,31,1,,,,,,,,,,,,,,,,,,,,,,,,,,
,,,,,,,,,,,X V Q F H G B L J M P D K C T S W R N Z,607edd6030f140e8b94d477a,19,Mężczyzna,2022-06-11_09h40.33.672,task,2021.1.4,Win32,60.0240096,6299f149e92ead563fba08ef,62a446cb763199a518959d1d,,,,,,,,,,,,,,,,,,,,,,,,,,,,,,,,,,,,,,,,,,,,,,,,,,,,,,,,,,,,,,,,,,,,,,,,,,,,5,0,5,0,1,,,,,,,,,,,,,,,,,,,,,
,,,,,,,,,,,,607edd6030f140e8b94d477a,19,Mężczyzna,2022-06-11_09h40.33.672,task,2021.1.4,Win32,60.0240096,6299f149e92ead563fba08ef,62a446cb763199a518959d1d,,,,,,,,,,,,,,,,,,,,,,,,,,,,,,,,,,,,,,,,,,,,,,,,,,,,,,,,,,,,,,,,,,,,,,,,,,,,,,,,,xttxhj,"[""x"",""t"",""t"",""x"",""h"",""j""]",0,"[1.0010000000000332,1.41700000000003,1.634999999999991,2.0090000000000146,4.689999999999998,5.251000000000033,6.685000000000002]",0,XTTXRJ,5,0,5,0,1,,,,,,,,,,
,,,,,,,,,,,,607edd6030f140e8b94d477a,19,Mężczyzna,2022-06-11_09h40.33.672,task,2021.1.4,Win32,60.0240096,6299f149e92ead563fba08ef,62a446cb763199a518959d1d,,,,,,,,,,,,,,,,,,,,,,,,,,,,,,,,,,,,,,,,,,,,,,,,,,,,,,,,,,,,,,,,,,,,,,,,,,,,,,,,,,,,,,,,,,,,"[""comma""]",0,[0.8550000000000182],0,0,0,0,1,,
,,,,,,,,,,,,607edd6030f140e8b94d477a,19,Mężczyzna,2022-06-11_09h40.33.672,task,2021.1.4,Win32,60.0240096,6299f149e92ead563fba08ef,62a446cb763199a518959d1d,,,,,,,,,,,,,,,,,,,,,,,,,,,,,,,,,,,,,,,,,,,,,,,,,,,,,,,,,,,,,,,,,,,,,,,,,,,,,,,,,,,,,,,,,,,,"[""period""]",0,[0.5169999999999391],1,0,1,0,1,,
,,,,,,,,,,,,607edd6030f140e8b94d477a,19,Mężczyzna,2022-06-11_09h40.33.672,task,2021.1.4,Win32,60.0240096,6299f149e92ead563fba08ef,62a446cb763199a518959d1d,,,,,,,,,,,,,,,,,,,,,,,,,,,,,,,,,,,,,,,,,,,,,,,,,,,,,,,,,,,,,,,,,,,,,,,,,,,,,,,,,,,,,,,,,,,,"[""period""]",0,[0.35199999999997544],2,0,2,0,1,,
,,,,,,,,,,,,607edd6030f140e8b94d477a,19,Mężczyzna,2022-06-11_09h40.33.672,task,2021.1.4,Win32,60.0240096,6299f149e92ead563fba08ef,62a446cb763199a518959d1d,,,,,,,,,,,,,,,,,,,,,,,,,,,,,,,,,,,,,,,,,,,,,,,,,,,,,,,,,,,,,,,,,,,,,,,,,,,,,,,,,,,,,,,,,,,,"[""comma""]",0,[0.2580000000000382],3,0,3,0,1,,
,,,,,,,,,,,,607edd6030f140e8b94d477a,19,Mężczyzna,2022-06-11_09h40.33.672,task,2021.1.4,Win32,60.0240096,6299f149e92ead563fba08ef,62a446cb763199a518959d1d,,,,,,,,,,,,,,,,,,,,,,,,,,,,,,,,,,,,,,,,,,,,,,,,,,,,,,,,,,,,,,,,,,,,,,,,,,,,,,,,,,,,,,,,,,,,"[""period""]",0,[0.37399999999990996],4,0,4,0,1,,
,,,,,,,,,,,,607edd6030f140e8b94d477a,19,Mężczyzna,2022-06-11_09h40.33.672,task,2021.1.4,Win32,60.0240096,6299f149e92ead563fba08ef,62a446cb763199a518959d1d,,,,,,,,,,,,,,,,,,,,,,,,,,,,,,,,,,,,,,,,,,,,,,,,,,,,,,,,,,,,,,,,,,,,,,,,,,,,,,,,,,,,,,,,,,,,"[""comma""]",0,[0.3349999999999227],5,0,5,0,1,,
,,,,,,,,,,,,607edd6030f140e8b94d477a,19,Mężczyzna,2022-06-11_09h40.33.672,task,2021.1.4,Win32,60.0240096,6299f149e92ead563fba08ef,62a446cb763199a518959d1d,,,,,,,,,,,,,,,,,,,,,,,,,,,,,,,,,,,,,,,,,,,,,,,,,,,,,,,,,,,,,,,,,,,,,,,,,,,,,,,,,,,,,,,,,,,,"[""comma""]",0,[0.2899999999999636],6,0,6,0,1,,
,,,,,,,,,,,,607edd6030f140e8b94d477a,19,Mężczyzna,2022-06-11_09h40.33.672,task,2021.1.4,Win32,60.0240096,6299f149e92ead563fba08ef,62a446cb763199a518959d1d,,,,,,,,,,,,,,,,,,,,,,,,,,,,,,,,,,,,,,,,,,,,,,,,,,,,,,,,,,,,,,,,,,,,,,,,,,,,,,,,,,,,,,,,,,,,"[""comma""]",0,[0.2379999999999427],7,0,7,0,1,,
,,,,,,,,,,,,607edd6030f140e8b94d477a,19,Mężczyzna,2022-06-11_09h40.33.672,task,2021.1.4,Win32,60.0240096,6299f149e92ead563fba08ef,62a446cb763199a518959d1d,,,,,,,,,,,,,,,,,,,,,,,,,,,,,,,,,,,,,,,,,,,,,,,,,,,,,,,,,,,,,,,,,,,,,,,,,,,,,,,,,,,,,,,,,,,,"[""period""]",0,[0.20899999999994634],8,0,8,0,1,,
,,,,,,,,,,,,607edd6030f140e8b94d477a,19,Mężczyzna,2022-06-11_09h40.33.672,task,2021.1.4,Win32,60.0240096,6299f149e92ead563fba08ef,62a446cb763199a518959d1d,,,,,,,,,,,,,,,,,,,,,,,,,,,,,,,,,,,,,,,,,,,,,,,,,,,,,,,,,,,,,,,,,,,,,,,,,,,,,,,,,,,,,,,,,,,,"[""period""]",0,[0.2259999999999991],9,0,9,0,1,,
,,,,,,,,,,,,607edd6030f140e8b94d477a,19,Mężczyzna,2022-06-11_09h40.33.672,task,2021.1.4,Win32,60.0240096,6299f149e92ead563fba08ef,62a446cb763199a518959d1d,,,,,,,,,,,,,,,,,,,,,,,,,,,,,,,,,,,,,,,,,,,,,,,,,,,,,,,,,,,,,,,,,,,,,,,,,,,,,,,,,,,,,,,,,,,,"[""comma""]",0,[0.2579999999999245],10,0,10,0,1,,
,,,,,,,,,,,,607edd6030f140e8b94d477a,19,Mężczyzna,2022-06-11_09h40.33.672,task,2021.1.4,Win32,60.0240096,6299f149e92ead563fba08ef,62a446cb763199a518959d1d,,,,,,,,,,,,,,,,,,,,,,,,,,,,,,,,,,,,,,,,,,,,,,,,,,,,,,,,,,,,,,,,,,,,,,,,,,,,,,,,,,,,,,,,,,,,"[""comma""]",0,[0.3349999999999227],11,0,11,0,1,,
,,,,,,,,,,,,607edd6030f140e8b94d477a,19,Mężczyzna,2022-06-11_09h40.33.672,task,2021.1.4,Win32,60.0240096,6299f149e92ead563fba08ef,62a446cb763199a518959d1d,,,,,,,,,,,,,,,,,,,,,,,,,,,,,,,,,,,,,,,,,,,,,,,,,,,,,,,,,,,,,,,,,,,,,,,,,,,,,,,,,,,,,,,,,,,,"[""period""]",0,[0.2539999999999054],12,0,12,0,1,,
,,,,,,,,,,,,607edd6030f140e8b94d477a,19,Mężczyzna,2022-06-11_09h40.33.672,task,2021.1.4,Win32,60.0240096,6299f149e92ead563fba08ef,62a446cb763199a518959d1d,,,,,,,,,,,,,,,,,,,,,,,,,,,,,,,,,,,,,,,,,,,,,,,,,,,,,,,,,,,,,,,,,,,,,,,,,,,,,,,,,,,,,,,,,,,,"[""period""]",0,[0.03599999999994452],13,0,13,0,1,,
,,,,,,,,,,,,607edd6030f140e8b94d477a,19,Mężczyzna,2022-06-11_09h40.33.672,task,2021.1.4,Win32,60.0240096,6299f149e92ead563fba08ef,62a446cb763199a518959d1d,,,,,,,,,,,,,,,,,,,,,,,,,,,,,,,,,,,,,,,,,,,,,,,,,,,,,,,,,,,,,,,,,,,,,,,,,,,,,,,,,,,,,,,,,,,,"[""period""]",0,[0.11799999999993815],14,0,14,0,1,,
,,,,,,,,,,,,607edd6030f140e8b94d477a,19,Mężczyzna,2022-06-11_09h40.33.672,task,2021.1.4,Win32,60.0240096,6299f149e92ead563fba08ef,62a446cb763199a518959d1d,,,,,,,,,,,,,,,,,,,,,,,,,,,,,,,,,,,,,,,,,,,,,,,,,,,,,,,,,,,,,,,,,,,,,,,,,,,,,,,,,,,,,,,,,,,,"[""period""]",0,[0.0019999999999527063],15,0,15,0,1,,
,,,,,,,,,,,,607edd6030f140e8b94d477a,19,Mężczyzna,2022-06-11_09h40.33.672,task,2021.1.4,Win32,60.0240096,6299f149e92ead563fba08ef,62a446cb763199a518959d1d,,,,,,,,,,,,,,,,,,,,,,,,,,,,,,,,,,,,,,,,,,,,,,,,,,,,,,,,,,,,,,,,,,,,,,,,,,,,,,,,,,,,,,,,,,,,"[""comma""]",0,[0.19200000000000728],16,0,16,0,1,,
,,,,,,,,,,,,607edd6030f140e8b94d477a,19,Mężczyzna,2022-06-11_09h40.33.672,task,2021.1.4,Win32,60.0240096,6299f149e92ead563fba08ef,62a446cb763199a518959d1d,,,,,,,,,,,,,,,,,,,,,,,,,,,,,,,,,,,,,,,,,,,,,,,,,,,,,,,,,,,,,,,,,,,,,,,,,,,,,,,,,,,,,,,,,,,,"[""period""]",0,[0.20000000000004547],17,0,17,0,1,,
,,,,,,,,,,,,607edd6030f140e8b94d477a,19,Mężczyzna,2022-06-11_09h40.33.672,task,2021.1.4,Win32,60.0240096,6299f149e92ead563fba08ef,62a446cb763199a518959d1d,,,,,,,,,,,,,,,,,,,,,,,,,,,,,,,,,,,,,,,,,,,,,,,,,,,,,,,,,,,,,,,,,,,,,,,,,,,,,,,,,,,,,,,,,,,,"[""period""]",0,[0.2379999999999427],18,0,18,0,1,,
,,,,,,,,,,,,607edd6030f140e8b94d477a,19,Mężczyzna,2022-06-11_09h40.33.672,task,2021.1.4,Win32,60.0240096,6299f149e92ead563fba08ef,62a446cb763199a518959d1d,,,,,,,,,,,,,,,,,,,,,,,,,,,,,,,,,,,,,,,,,,,,,,,,,,,,,,,,,,,,,,,,,,,,,,,,,,,,,,,,,,,,,,,,,,,,"[""comma""]",0,[0.06899999999995998],19,0,19,0,1,,
,,,,,,,,,,,,607edd6030f140e8b94d477a,19,Mężczyzna,2022-06-11_09h40.33.672,task,2021.1.4,Win32,60.0240096,6299f149e92ead563fba08ef,62a446cb763199a518959d1d,,,,,,,,,,,,,,,,,,,,,,,,,,,,,,,,,,,,,,,,,,,,,,,,,,,,,,,,,,,,,,,,,,,,,,,,,,,,,,,,,,,,,,,,,,,,"[""comma"",""period""]",0,"[0.19299999999998363,1.9180000000000064]",20,0,20,0,1,,
,,,,,,,,,,,,607edd6030f140e8b94d477a,19,Mężczyzna,2022-06-11_09h40.33.672,task,2021.1.4,Win32,60.0240096,6299f149e92ead563fba08ef,62a446cb763199a518959d1d,,,,,,,,,,,,,,,,,,,,,,,,,,,,,,,,,,,,,,,,,,,,,,,,,,,,,,,,,,,,,,,,,,,,,,,,,,,,,,,,,,,,,,,,,,,,,0,,21,0,21,0,1,,
,,,,,,,,,,,,607edd6030f140e8b94d477a,19,Mężczyzna,2022-06-11_09h40.33.672,task,2021.1.4,Win32,60.0240096,6299f149e92ead563fba08ef,62a446cb763199a518959d1d,,,,,,,,,,,,,,,,,,,,,,,,,,,,,,,,,,,,,,,,,,,,,,,,,,,,,,,,,,,,,,,,,,,,,,,,,,,,,,,,,,,,,,,,,,,,"[""comma""]",0,[0.25300000000004275],22,0,22,0,1,,
,,,,,,,,,,,,607edd6030f140e8b94d477a,19,Mężczyzna,2022-06-11_09h40.33.672,task,2021.1.4,Win32,60.0240096,6299f149e92ead563fba08ef,62a446cb763199a518959d1d,,,,,,,,,,,,,,,,,,,,,,,,,,,,,,,,,,,,,,,,,,,,,,,,,,,,,,,,,,,,,,,,,,,,,,,,,,,,,,,,,,,,,,,,,,,,"[""period""]",0,[0.2519999999999527],23,0,23,0,1,,
,,,,,,,,,,,,607edd6030f140e8b94d477a,19,Mężczyzna,2022-06-11_09h40.33.672,task,2021.1.4,Win32,60.0240096,6299f149e92ead563fba08ef,62a446cb763199a518959d1d,,,,,,,,,,,,,,,,,,,,,,,,,,,,,,,,,,,,,,,,,,,,,,,,,,,,,,,,,,,,,,,,,,,,,,,,,,,,,,,,,,,,,,,,,,,,"[""period""]",0,[0.2039999999999509],24,0,24,0,1,,
,,,,,,,,,,,,607edd6030f140e8b94d477a,19,Mężczyzna,2022-06-11_09h40.33.672,task,2021.1.4,Win32,60.0240096,6299f149e92ead563fba08ef,62a446cb763199a518959d1d,,,,,,,,,,,,,,,,,,,,,,,,,,,,,,,,,,,,,,,,,,,,,,,,,,,,,,,,,,,,,,,,,,,,,,,,,,,,,,,,,,,,,,,,,,,,"[""period""]",0,[0.18500000000005912],25,0,25,0,1,,
,,,,,,,,,,,,607edd6030f140e8b94d477a,19,Mężczyzna,2022-06-11_09h40.33.672,task,2021.1.4,Win32,60.0240096,6299f149e92ead563fba08ef,62a446cb763199a518959d1d,,,,,,,,,,,,,,,,,,,,,,,,,,,,,,,,,,,,,,,,,,,,,,,,,,,,,,,,,,,,,,,,,,,,,,,,,,,,,,,,,,,,,,,,,,,,"[""period""]",0,[0.22000000000002728],26,0,26,0,1,,
,,,,,,,,,,,,607edd6030f140e8b94d477a,19,Mężczyzna,2022-06-11_09h40.33.672,task,2021.1.4,Win32,60.0240096,6299f149e92ead563fba08ef,62a446cb763199a518959d1d,,,,,,,,,,,,,,,,,,,,,,,,,,,,,,,,,,,,,,,,,,,,,,,,,,,,,,,,,,,,,,,,,,,,,,,,,,,,,,,,,,,,,,,,,,,,"[""comma""]",0,[0.2440000000000282],27,0,27,0,1,,
,,,,,,,,,,,,607edd6030f140e8b94d477a,19,Mężczyzna,2022-06-11_09h40.33.672,task,2021.1.4,Win32,60.0240096,6299f149e92ead563fba08ef,62a446cb763199a518959d1d,,,,,,,,,,,,,,,,,,,,,,,,,,,,,,,,,,,,,,,,,,,,,,,,,,,,,,,,,,,,,,,,,,,,,,,,,,,,,,,,,,,,,,,,,,,,"[""comma""]",0,[0.24099999999998545],28,0,28,0,1,,
,,,,,,,,,,,,607edd6030f140e8b94d477a,19,Mężczyzna,2022-06-11_09h40.33.672,task,2021.1.4,Win32,60.0240096,6299f149e92ead563fba08ef,62a446cb763199a518959d1d,,,,,,,,,,,,,,,,,,,,,,,,,,,,,,,,,,,,,,,,,,,,,,,,,,,,,,,,,,,,,,,,,,,,,,,,,,,,,,,,,,,,,,,,,,,,"[""comma""]",0,[0.24099999999998545],29,0,29,0,1,,
,,,,,,,,,,,,607edd6030f140e8b94d477a,19,Mężczyzna,2022-06-11_09h40.33.672,task,2021.1.4,Win32,60.0240096,6299f149e92ead563fba08ef,62a446cb763199a518959d1d,,,,,,,,,,,,,,,,,,,,,,,,,,,,,,,,,,,,,,,,,,,,,,,,,,,,,,,,,,,,,,,,,,,,,,,,,,,,,,,,,,,,,,,,,,,,"[""period""]",0,[0.19100000000003092],30,0,30,0,1,,
,,,,,,,,,,,,607edd6030f140e8b94d477a,19,Mężczyzna,2022-06-11_09h40.33.672,task,2021.1.4,Win32,60.0240096,6299f149e92ead563fba08ef,62a446cb763199a518959d1d,,,,,,,,,,,,,,,,,,,,,,,,,,,,,,,,,,,,,,,,,,,,,,,,,,,,,,,,,,,,,,,,,,,,,,,,,,,,,,,,,,,,,,,,,,,,"[""comma""]",0,[0.2179999999999609],31,0,31,0,1,,
,,,,,,,,,,,,607edd6030f140e8b94d477a,19,Mężczyzna,2022-06-11_09h40.33.672,task,2021.1.4,Win32,60.0240096,6299f149e92ead563fba08ef,62a446cb763199a518959d1d,,,,,,,,,,,,,,,,,,,,,,,,,,,,,,,,,,,,,,,,,,,,,,,,,,,,,,,,,,,,,,,,,,,,,,,,,,,,,,,,,,,,,,,,,,,,"[""comma""]",0,[0.2580000000000382],32,0,32,0,1,,
,,,,,,,,,,,,607edd6030f140e8b94d477a,19,Mężczyzna,2022-06-11_09h40.33.672,task,2021.1.4,Win32,60.0240096,6299f149e92ead563fba08ef,62a446cb763199a518959d1d,,,,,,,,,,,,,,,,,,,,,,,,,,,,,,,,,,,,,,,,,,,,,,,,,,,,,,,,,,,,,,,,,,,,,,,,,,,,,,,,,,,,,,,,,,,,"[""period""]",0,[0.10000000000002274],33,0,33,0,1,,
,,,,,,,,,,,,607edd6030f140e8b94d477a,19,Mężczyzna,2022-06-11_09h40.33.672,task,2021.1.4,Win32,60.0240096,6299f149e92ead563fba08ef,62a446cb763199a518959d1d,,,,,,,,,,,,,,,,,,,,,,,,,,,,,,,,,,,,,,,,,,,,,,,,,,,,,,,,,,,,,,,,,,,,,,,,,,,,,,,,,,,,,,,,,,,,"[""comma""]",0,[0.2580000000000382],34,0,34,0,1,,
,,,,,,,,,,,,607edd6030f140e8b94d477a,19,Mężczyzna,2022-06-11_09h40.33.672,task,2021.1.4,Win32,60.0240096,6299f149e92ead563fba08ef,62a446cb763199a518959d1d,,,,,,,,,,,,,,,,,,,,,,,,,,,,,,,,,,,,,,,,,,,,,,,,,,,,,,,,,,,,,,,,,,,,,,,,,,,,,,,,,,,,,,,,,,,,"[""period"",""comma""]",0,"[0.2520000000000664,1.88900000000001]",35,0,35,0,1,,
,,,,,,,,,,,,607edd6030f140e8b94d477a,19,Mężczyzna,2022-06-11_09h40.33.672,task,2021.1.4,Win32,60.0240096,6299f149e92ead563fba08ef,62a446cb763199a518959d1d,,,,,,,,,,,,,,,,,,,,,,,,,,,,,,,,,,,,,,,,,,,,,,,,,,,,,,,,,,,,,,,,,,,,,,,,,,,,,,,,,,,,,,,,,,,,,0,,36,0,36,0,1,,
,,,,,,,,,,,,607edd6030f140e8b94d477a,19,Mężczyzna,2022-06-11_09h40.33.672,task,2021.1.4,Win32,60.0240096,6299f149e92ead563fba08ef,62a446cb763199a518959d1d,,,,,,,,,,,,,,,,,,,,,,,,,,,,,,,,,,,,,,,,,,,,,,,,,,,,,,,,,,,,,,,,,,,,,,,,,,,,,,,,,,,,,,,,,,,,"[""comma""]",0,[0.25499999999999545],37,0,37,0,1,,
,,,,,,,,,,,,607edd6030f140e8b94d477a,19,Mężczyzna,2022-06-11_09h40.33.672,task,2021.1.4,Win32,60.0240096,6299f149e92ead563fba08ef,62a446cb763199a518959d1d,,,,,,,,,,,,,,,,,,,,,,,,,,,,,,,,,,,,,,,,,,,,,,,,,,,,,,,,,,,,,,,,,,,,,,,,,,,,,,,,,,,,,,,,,,,,"[""comma""]",0,[0.23900000000003274],38,0,38,0,1,,
,,,,,,,,,,,,607edd6030f140e8b94d477a,19,Mężczyzna,2022-06-11_09h40.33.672,task,2021.1.4,Win32,60.0240096,6299f149e92ead563fba08ef,62a446cb763199a518959d1d,,,,,,,,,,,,,,,,,,,,,,,,,,,,,,,,,,,,,,,,,,,,,,,,,,,,,,,,,,,,,,,,,,,,,,,,,,,,,,,,,,,,,,,,,,,,"[""period""]",0,[0.23900000000003274],39,0,39,0,1,,
,,,,,,,,,,,,607edd6030f140e8b94d477a,19,Mężczyzna,2022-06-11_09h40.33.672,task,2021.1.4,Win32,60.0240096,6299f149e92ead563fba08ef,62a446cb763199a518959d1d,,,,,,,,,,,,,,,,,,,,,,,,,,,,,,,,,,,,,,,,,,,,,,,,,,,,,,,,,,,,,,,,,,,,,,,,,,,,,,,,,,,,,,,,,,,,"[""comma""]",0,[0.2340000000000373],40,0,40,0,1,,
,,,,,,,,,,,,607edd6030f140e8b94d477a,19,Mężczyzna,2022-06-11_09h40.33.672,task,2021.1.4,Win32,60.0240096,6299f149e92ead563fba08ef,62a446cb763199a518959d1d,,,,,,,,,,,,,,,,,,,,,,,,,,,,,,,,,,,,,,,,,,,,,,,,,,,,,,,,,,,,,,,,,,,,,,,,,,,,,,,,,,,,,,,,,,,,"[""period""]",0,[0.2419999999999618],41,0,41,0,1,,
,,,,,,,,,,,,607edd6030f140e8b94d477a,19,Mężczyzna,2022-06-11_09h40.33.672,task,2021.1.4,Win32,60.0240096,6299f149e92ead563fba08ef,62a446cb763199a518959d1d,,,,,,,,,,,,,,,,,,,,,,,,,,,,,,,,,,,,,,,,,,,,,,,,,,,,,,,,,,,,,,,,,,,,,,,,,,,,,,,,,,,,,,,,,,,,"[""period""]",0,[0.3349999999999227],42,0,42,0,1,,
,,,,,,,,,,,,607edd6030f140e8b94d477a,19,Mężczyzna,2022-06-11_09h40.33.672,task,2021.1.4,Win32,60.0240096,6299f149e92ead563fba08ef,62a446cb763199a518959d1d,,,,,,,,,,,,,,,,,,,,,,,,,,,,,,,,,,,,,,,,,,,,,,,,,,,,,,,,,,,,,,,,,,,,,,,,,,,,,,,,,,,,,,,,,,,,"[""comma""]",0,[0.2520000000000664],43,0,43,0,1,,
,,,,,,,,,,,,607edd6030f140e8b94d477a,19,Mężczyzna,2022-06-11_09h40.33.672,task,2021.1.4,Win32,60.0240096,6299f149e92ead563fba08ef,62a446cb763199a518959d1d,,,,,,,,,,,,,,,,,,,,,,,,,,,,,,,,,,,,,,,,,,,,,,,,,,,,,,,,,,,,,,,,,,,,,,,,,,,,,,,,,,,,,,,,,,,,"[""period""]",0,[0.2579999999999245],44,0,44,0,1,,
,,,,,,,,,,,,607edd6030f140e8b94d477a,19,Mężczyzna,2022-06-11_09h40.33.672,task,2021.1.4,Win32,60.0240096,6299f149e92ead563fba08ef,62a446cb763199a518959d1d,,,,,,,,,,,,,,,,,,,,,,,,,,,,,,,,,,,,,,,,,,,,,,,,,,,,,,,,,,,,,,,,,,,,,,,,,,,,,,,,,,,,,,,,,,,,"[""period""]",0,[0.29099999999994],45,0,45,0,1,,
,,,,,,,,,,,,607edd6030f140e8b94d477a,19,Mężczyzna,2022-06-11_09h40.33.672,task,2021.1.4,Win32,60.0240096,6299f149e92ead563fba08ef,62a446cb763199a518959d1d,,,,,,,,,,,,,,,,,,,,,,,,,,,,,,,,,,,,,,,,,,,,,,,,,,,,,,,,,,,,,,,,,,,,,,,,,,,,,,,,,,,,,,,,,,,,"[""period""]",0,[0.2869999999999209],46,0,46,0,1,,
,,,,,,,,,,,,607edd6030f140e8b94d477a,19,Mężczyzna,2022-06-11_09h40.33.672,task,2021.1.4,Win32,60.0240096,6299f149e92ead563fba08ef,62a446cb763199a518959d1d,,,,,,,,,,,,,,,,,,,,,,,,,,,,,,,,,,,,,,,,,,,,,,,,,,,,,,,,,,,,,,,,,,,,,,,,,,,,,,,,,,,,,,,,,,,,"[""comma""]",0,[0.2679999999999154],47,0,47,0,1,,
,,,,,,,,,,,,607edd6030f140e8b94d477a,19,Mężczyzna,2022-06-11_09h40.33.672,task,2021.1.4,Win32,60.0240096,6299f149e92ead563fba08ef,62a446cb763199a518959d1d,,,,,,,,,,,,,,,,,,,,,,,,,,,,,,,,,,,,,,,,,,,,,,,,,,,,,,,,,,,,,,,,,,,,,,,,,,,,,,,,,,,,,,,,,,,,"[""period""]",0,[0.23499999999989996],48,0,48,0,1,,
,,,,,,,,,,,,607edd6030f140e8b94d477a,19,Mężczyzna,2022-06-11_09h40.33.672,task,2021.1.4,Win32,60.0240096,6299f149e92ead563fba08ef,62a446cb763199a518959d1d,,,,,,,,,,,,,,,,,,,,,,,,,,,,,,,,,,,,,,,,,,,,,,,,,,,,,,,,,,,,,,,,,,,,,,,,,,,,,,,,,,,,,,,,,,,,"[""comma""]",0,[0.21899999999993724],49,0,49,0,1,,
,,,,,,,,,,,,607edd6030f140e8b94d477a,19,Mężczyzna,2022-06-11_09h40.33.672,task,2021.1.4,Win32,60.0240096,6299f149e92ead563fba08ef,62a446cb763199a518959d1d,,,,,,,,,,,,,,,,,,,,,,,,,,,,,,,,,,,,,,,,,,,,,,,,,,,,,,,,,,,,,,,,,,,,,,,,,,,,,,,,,,,,,,,,,,,,"[""comma""]",0,[0.23599999999999],50,0,50,0,1,,
,,,,,,,,,,,,607edd6030f140e8b94d477a,19,Mężczyzna,2022-06-11_09h40.33.672,task,2021.1.4,Win32,60.0240096,6299f149e92ead563fba08ef,62a446cb763199a518959d1d,,,,,,,,,,,,,,,,,,,,,,,,,,,,,,,,,,,,,,,,,,,,,,,,,,,,,,,,,,,,,,,,,,,,,,,,,,,,,,,,,,,,,,,,,,,,"[""period""]",0,[0.11899999999991451],51,0,51,0,1,,
,,,,,,,,,,,,607edd6030f140e8b94d477a,19,Mężczyzna,2022-06-11_09h40.33.672,task,2021.1.4,Win32,60.0240096,6299f149e92ead563fba08ef,62a446cb763199a518959d1d,,,,,,,,,,,,,,,,,,,,,,,,,,,,,,,,,,,,,,,,,,,,,,,,,,,,,,,,,,,,,,,,,,,,,,,,,,,,,,,,,,,,,,,,,,,,"[""comma""]",0,[0.20799999999997],52,0,52,0,1,,
,,,,,,,,,,,,607edd6030f140e8b94d477a,19,Mężczyzna,2022-06-11_09h40.33.672,task,2021.1.4,Win32,60.0240096,6299f149e92ead563fba08ef,62a446cb763199a518959d1d,,,,,,,,,,,,,,,,,,,,,,,,,,,,,,,,,,,,,,,,,,,,,,,,,,,,,,,,,,,,,,,,,,,,,,,,,,,,,,,,,,,,,,,,,,,,"[""period""]",0,[0.26900000000000546],53,0,53,0,1,,
,,,,,,,,,,,,607edd6030f140e8b94d477a,19,Mężczyzna,2022-06-11_09h40.33.672,task,2021.1.4,Win32,60.0240096,6299f149e92ead563fba08ef,62a446cb763199a518959d1d,,,,,,,,,,,,,,,,,,,,,,,,,,,,,,,,,,,,,,,,,,,,,,,,,,,,,,,,,,,,,,,,,,,,,,,,,,,,,,,,,,,,,,,,,,,,"[""comma""]",0,[0.22199999999998],54,0,54,0,1,,
,,,,,,,,,,,,607edd6030f140e8b94d477a,19,Mężczyzna,2022-06-11_09h40.33.672,task,2021.1.4,Win32,60.0240096,6299f149e92ead563fba08ef,62a446cb763199a518959d1d,,,,,,,,,,,,,,,,,,,,,,,,,,,,,,,,,,,,,,,,,,,,,,,,,,,,,,,,,,,,,,,,,,,,,,,,,,,,,,,,,,,,,,,,,,,,"[""period""]",0,[0.2680000000000291],55,0,55,0,1,,
,,,,,,,,,,,,607edd6030f140e8b94d477a,19,Mężczyzna,2022-06-11_09h40.33.672,task,2021.1.4,Win32,60.0240096,6299f149e92ead563fba08ef,62a446cb763199a518959d1d,,,,,,,,,,,,,,,,,,,,,,,,,,,,,,,,,,,,,,,,,,,,,,,,,,,,,,,,,,,,,,,,,,,,,,,,,,,,,,,,,,,,,,,,,,,,"[""comma""]",0,[0.2519999999999527],56,0,56,0,1,,
,,,,,,,,,,,,607edd6030f140e8b94d477a,19,Mężczyzna,2022-06-11_09h40.33.672,task,2021.1.4,Win32,60.0240096,6299f149e92ead563fba08ef,62a446cb763199a518959d1d,,,,,,,,,,,,,,,,,,,,,,,,,,,,,,,,,,,,,,,,,,,,,,,,,,,,,,,,,,,,,,,,,,,,,,,,,,,,,,,,,,,,,,,,,,,,"[""comma""]",0,[0.22000000000002728],57,0,57,0,1,,
,,,,,,,,,,,,607edd6030f140e8b94d477a,19,Mężczyzna,2022-06-11_09h40.33.672,task,2021.1.4,Win32,60.0240096,6299f149e92ead563fba08ef,62a446cb763199a518959d1d,,,,,,,,,,,,,,,,,,,,,,,,,,,,,,,,,,,,,,,,,,,,,,,,,,,,,,,,,,,,,,,,,,,,,,,,,,,,,,,,,,,,,,,,,,,,"[""comma""]",0,[0.2340000000000373],58,0,58,0,1,,
,,,,,,,,,,,,607edd6030f140e8b94d477a,19,Mężczyzna,2022-06-11_09h40.33.672,task,2021.1.4,Win32,60.0240096,6299f149e92ead563fba08ef,62a446cb763199a518959d1d,,,,,,,,,,,,,,,,,,,,,,,,,,,,,,,,,,,,,,,,,,,,,,,,,,,,,,,,,,,,,,,,,,,,,,,,,,,,,,,,,,,,,,,,,,,,"[""comma""]",0,[0.2580000000000382],59,0,59,0,1,,
,,,,,,,,,,,,607edd6030f140e8b94d477a,19,Mężczyzna,2022-06-11_09h40.33.672,task,2021.1.4,Win32,60.0240096,6299f149e92ead563fba08ef,62a446cb763199a518959d1d,,,,,,,,,,,,,,,,,,,,,,,,,,,,,,,,,,,,,,,,,,,,,,,,,,,,,,,,,,,,,,,,,,,,,,,,,,,,,,,,,,,,,,,,,,,,"[""period""]",0,[0.10099999999999909],60,0,60,0,1,,
,,,,,,,,,,,,607edd6030f140e8b94d477a,19,Mężczyzna,2022-06-11_09h40.33.672,task,2021.1.4,Win32,60.0240096,6299f149e92ead563fba08ef,62a446cb763199a518959d1d,,,,,,,,,,,,,,,,,,,,,,,,,,,,,,,,,,,,,,,,,,,,,,,,,,,,,,,,,,,,,,,,,,,,,,,,,,,,,,,,,,,,,,,,,,,,"[""period""]",0,[0.28499999999996817],61,0,61,0,1,,
,,,,,,,,,,,,607edd6030f140e8b94d477a,19,Mężczyzna,2022-06-11_09h40.33.672,task,2021.1.4,Win32,60.0240096,6299f149e92ead563fba08ef,62a446cb763199a518959d1d,,,,,,,,,,,,,,,,,,,,,,,,,,,,,,,,,,,,,,,,,,,,,,,,,,,,,,,,,,,,,,,,,,,,,,,,,,,,,,,,,,,,,,,,,,,,"[""comma""]",0,[0.2520000000000664],62,0,62,0,1,,
,,,,,,,,,,,,607edd6030f140e8b94d477a,19,Mężczyzna,2022-06-11_09h40.33.672,task,2021.1.4,Win32,60.0240096,6299f149e92ead563fba08ef,62a446cb763199a518959d1d,,,,,,,,,,,,,,,,,,,,,,,,,,,,,,,,,,,,,,,,,,,,,,,,,,,,,,,,,,,,,,,,,,,,,,,,,,,,,,,,,,,,,,,,,,,,"[""comma""]",0,[0.25700000000006185],63,0,63,0,1,,
,,,,,,,,,,,,607edd6030f140e8b94d477a,19,Mężczyzna,2022-06-11_09h40.33.672,task,2021.1.4,Win32,60.0240096,6299f149e92ead563fba08ef,62a446cb763199a518959d1d,,,,,,,,,,,,,,,,,,,,,,,,,,,,,,,,,,,,,,,,,,,,,,,,,,,,,,,,,,,,,,,,,,,,,,,,,,,,,,,,,,,,,,,,,,,,"[""period""]",0,[0.2759999999999536],64,0,64,0,1,,
,,,,,,,,,,,,607edd6030f140e8b94d477a,19,Mężczyzna,2022-06-11_09h40.33.672,task,2021.1.4,Win32,60.0240096,6299f149e92ead563fba08ef,62a446cb763199a518959d1d,,,,,,,,,,,,,,,,,,,,,,,,,,,,,,,,,,,,,,,,,,,,,,,,,,,,,,,,,,,,,,,,,,,,,,,,,,,,,,,,,,,,,,,,,,,,"[""period""]",0,[0.2759999999999536],65,0,65,0,1,,
,,,,,,,,,,,,607edd6030f140e8b94d477a,19,Mężczyzna,2022-06-11_09h40.33.672,task,2021.1.4,Win32,60.0240096,6299f149e92ead563fba08ef,62a446cb763199a518959d1d,,,,,,,,,,,,,,,,,,,,,,,,,,,,,,,,,,,,,,,,,,,,,,,,,,,,,,,,,,,,,,,,,,,,,,,,,,,,,,,,,,,,,,,,,,,,"[""comma""]",0,[0.25300000000004275],66,0,66,0,1,,
,,,,,,,,,,,,607edd6030f140e8b94d477a,19,Mężczyzna,2022-06-11_09h40.33.672,task,2021.1.4,Win32,60.0240096,6299f149e92ead563fba08ef,62a446cb763199a518959d1d,,,,,,,,,,,,,,,,,,,,,,,,,,,,,,,,,,,,,,,,,,,,,,,,,,,,,,,,,,,,,,,,,,,,,,,,,,,,,,,,,,,,,,,,,,,,"[""period""]",0,[0.23500000000001364],67,0,67,0,1,,
,,,,,,,,,,,,607edd6030f140e8b94d477a,19,Mężczyzna,2022-06-11_09h40.33.672,task,2021.1.4,Win32,60.0240096,6299f149e92ead563fba08ef,62a446cb763199a518959d1d,,,,,,,,,,,,,,,,,,,,,,,,,,,,,,,,,,,,,,,,,,,,,,,,,,,,,,,,,,,,,,,,,,,,,,,,,,,,,,,,,,,,,,,,,,,,"[""comma""]",0,[0.20199999999999818],68,0,68,0,1,,
,,,,,,,,,,,,607edd6030f140e8b94d477a,19,Mężczyzna,2022-06-11_09h40.33.672,task,2021.1.4,Win32,60.0240096,6299f149e92ead563fba08ef,62a446cb763199a518959d1d,,,,,,,,,,,,,,,,,,,,,,,,,,,,,,,,,,,,,,,,,,,,,,,,,,,,,,,,,,,,,,,,,,,,,,,,,,,,,,,,,,,,,,,,,,,,"[""period"",""period""]",0,"[0.0009999999999763531,1.9350000000000591]",69,0,69,0,1,,
,,,,,,,,,,,,607edd6030f140e8b94d477a,19,Mężczyzna,2022-06-11_09h40.33.672,task,2021.1.4,Win32,60.0240096,6299f149e92ead563fba08ef,62a446cb763199a518959d1d,,,,,,,,,,,,,,,,,,,,,,,,,,,,,,,,,,,,,,,,,,,,,,,,,,,,,,,,,,,,,,,,,,,,,,,,,,,,,,,,,,,,,,,,,,,,"[""period""]",0,[1.9340000000000828],70,0,70,0,1,,
,,,,,,,,,,,,607edd6030f140e8b94d477a,19,Mężczyzna,2022-06-11_09h40.33.672,task,2021.1.4,Win32,60.0240096,6299f149e92ead563fba08ef,62a446cb763199a518959d1d,,,,,,,,,,,,,,,,,,,,,,,,,,,,,,,,,,,,,,,,,,,,,,,,,,,,,,,,,,,,,,,,,,,,,,,,,,,,,,,,,,,,,,,,,,,,,0,,71,0,71,0,1,,
,,,,,,,,,,,,607edd6030f140e8b94d477a,19,Mężczyzna,2022-06-11_09h40.33.672,task,2021.1.4,Win32,60.0240096,6299f149e92ead563fba08ef,62a446cb763199a518959d1d,,,,,,,,,,,,,,,,,,,,,,,,,,,,,,,,,,,,,,,,,,,,,,,,,,,,,,,,,,,,,,,,,,,,,,,,,,,,,,,,,,,,,,,,,,,,"[""comma"",""period""]",0,"[0.02400000000000091,1.9050000000000864]",72,0,72,0,1,,
,,,,,,,,,,,,607edd6030f140e8b94d477a,19,Mężczyzna,2022-06-11_09h40.33.672,task,2021.1.4,Win32,60.0240096,6299f149e92ead563fba08ef,62a446cb763199a518959d1d,,,,,,,,,,,,,,,,,,,,,,,,,,,,,,,,,,,,,,,,,,,,,,,,,,,,,,,,,,,,,,,,,,,,,,,,,,,,,,,,,,,,,,,,,,,,,0,,73,0,73,0,1,,
,,,,,,,,,,,,607edd6030f140e8b94d477a,19,Mężczyzna,2022-06-11_09h40.33.672,task,2021.1.4,Win32,60.0240096,6299f149e92ead563fba08ef,62a446cb763199a518959d1d,,,,,,,,,,,,,,,,,,,,,,,,,,,,,,,,,,,,,,,,,,,,,,,,,,,,,,,,,,,,,,,,,,,,,,,,,,,,,,,,,,,,,,,,,,,,"[""comma""]",0,[0.25100000000009004],74,0,74,0,1,,
,,,,,,,,,,,,607edd6030f140e8b94d477a,19,Mężczyzna,2022-06-11_09h40.33.672,task,2021.1.4,Win32,60.0240096,6299f149e92ead563fba08ef,62a446cb763199a518959d1d,,,,,,,,,,,,,,,,,,,,,,,,,,,,,,,,,,,,,,,,,,,,,,,,,,,,,,,,,,,,,,,,,,,,,,,,,,,,,,,,,,,,,,,,,,,,"[""period""]",0,[0.16800000000000637],75,0,75,0,1,,
,,,,,,,,,,,,607edd6030f140e8b94d477a,19,Mężczyzna,2022-06-11_09h40.33.672,task,2021.1.4,Win32,60.0240096,6299f149e92ead563fba08ef,62a446cb763199a518959d1d,,,,,,,,,,,,,,,,,,,,,,,,,,,,,,,,,,,,,,,,,,,,,,,,,,,,,,,,,,,,,,,,,,,,,,,,,,,,,,,,,,,,,,,,,,,,"[""comma""]",0,[0.28500000000008185],76,0,76,0,1,,
,,,,,,,,,,,,607edd6030f140e8b94d477a,19,Mężczyzna,2022-06-11_09h40.33.672,task,2021.1.4,Win32,60.0240096,6299f149e92ead563fba08ef,62a446cb763199a518959d1d,,,,,,,,,,,,,,,,,,,,,,,,,,,,,,,,,,,,,,,,,,,,,,,,,,,,,,,,,,,,,,,,,,,,,,,,,,,,,,,,,,,,,,,,,,,,"[""comma""]",0,[0.2520000000000664],77,0,77,0,1,,
,,,,,,,,,,,,607edd6030f140e8b94d477a,19,Mężczyzna,2022-06-11_09h40.33.672,task,2021.1.4,Win32,60.0240096,6299f149e92ead563fba08ef,62a446cb763199a518959d1d,,,,,,,,,,,,,,,,,,,,,,,,,,,,,,,,,,,,,,,,,,,,,,,,,,,,,,,,,,,,,,,,,,,,,,,,,,,,,,,,,,,,,,,,,,,,"[""period""]",0,[0.3180000000000973],78,0,78,0,1,,
,,,,,,,,,,,,607edd6030f140e8b94d477a,19,Mężczyzna,2022-06-11_09h40.33.672,task,2021.1.4,Win32,60.0240096,6299f149e92ead563fba08ef,62a446cb763199a518959d1d,,,,,,,,,,,,,,,,,,,,,,,,,,,,,,,,,,,,,,,,,,,,,,,,,,,,,,,,,,,,,,,,,,,,,,,,,,,,,,,,,,,,,,,,,,,,"[""comma""]",0,[0.38600000000008095],79,0,79,0,1,,
,,,,,,,,,,,,607edd6030f140e8b94d477a,19,Mężczyzna,2022-06-11_09h40.33.672,task,2021.1.4,Win32,60.0240096,6299f149e92ead563fba08ef,62a446cb763199a518959d1d,,,,,,,,,,,,,,,,,,,,,,,,,,,,,,,,,,,,,,,,,,,,,,,,,,,,,,,,,,,,,,,,,,,,,,,,,,,,,,,,,,,,,,,,,,,,"[""period""]",0,[0.23500000000001364],80,0,80,0,1,,
,,,,,,,,,,,,607edd6030f140e8b94d477a,19,Mężczyzna,2022-06-11_09h40.33.672,task,2021.1.4,Win32,60.0240096,6299f149e92ead563fba08ef,62a446cb763199a518959d1d,,,,,,,,,,,,,,,,,,,,,,,,,,,,,,,,,,,,,,,,,,,,,,,,,,,,,,,,,,,,,,,,,,,,,,,,,,,,,,,,,,,,,,,,,,,,"[""period""]",0,[0.23599999999999],81,0,81,0,1,,
,,,,,,,,,,,,607edd6030f140e8b94d477a,19,Mężczyzna,2022-06-11_09h40.33.672,task,2021.1.4,Win32,60.0240096,6299f149e92ead563fba08ef,62a446cb763199a518959d1d,,,,,,,,,,,,,,,,,,,,,,,,,,,,,,,,,,,,,,,,,,,,,,,,,,,,,,,,,,,,,,,,,,,,,,,,,,,,,,,,,,,,,,,,,,,,"[""period""]",0,[0.31100000000003547],82,0,82,0,1,,
,,,,,,,,,,,,607edd6030f140e8b94d477a,19,Mężczyzna,2022-06-11_09h40.33.672,task,2021.1.4,Win32,60.0240096,6299f149e92ead563fba08ef,62a446cb763199a518959d1d,,,,,,,,,,,,,,,,,,,,,,,,,,,,,,,,,,,,,,,,,,,,,,,,,,,,,,,,,,,,,,,,,,,,,,,,,,,,,,,,,,,,,,,,,,,,"[""period""]",0,[0.2599999999999909],83,0,83,0,1,,
,,,,,,,,,,,,607edd6030f140e8b94d477a,19,Mężczyzna,2022-06-11_09h40.33.672,task,2021.1.4,Win32,60.0240096,6299f149e92ead563fba08ef,62a446cb763199a518959d1d,,,,,,,,,,,,,,,,,,,,,,,,,,,,,,,,,,,,,,,,,,,,,,,,,,,,,,,,,,,,,,,,,,,,,,,,,,,,,,,,,,,,,,,,,,,,"[""comma""]",0,[0.19200000000000728],84,0,84,0,1,,
,,,,,,,,,,,,607edd6030f140e8b94d477a,19,Mężczyzna,2022-06-11_09h40.33.672,task,2021.1.4,Win32,60.0240096,6299f149e92ead563fba08ef,62a446cb763199a518959d1d,,,,,,,,,,,,,,,,,,,,,,,,,,,,,,,,,,,,,,,,,,,,,,,,,,,,,,,,,,,,,,,,,,,,,,,,,,,,,,,,,,,,,,,,,,,,"[""comma""]",0,[0.18399999999996908],85,0,85,0,1,,
,,,,,,,,,,,,607edd6030f140e8b94d477a,19,Mężczyzna,2022-06-11_09h40.33.672,task,2021.1.4,Win32,60.0240096,6299f149e92ead563fba08ef,62a446cb763199a518959d1d,,,,,,,,,,,,,,,,,,,,,,,,,,,,,,,,,,,,,,,,,,,,,,,,,,,,,,,,,,,,,,,,,,,,,,,,,,,,,,,,,,,,,,,,,,,,"[""comma""]",0,[0.2039999999999509],86,0,86,0,1,,
,,,,,,,,,,,,607edd6030f140e8b94d477a,19,Mężczyzna,2022-06-11_09h40.33.672,task,2021.1.4,Win32,60.0240096,6299f149e92ead563fba08ef,62a446cb763199a518959d1d,,,,,,,,,,,,,,,,,,,,,,,,,,,,,,,,,,,,,,,,,,,,,,,,,,,,,,,,,,,,,,,,,,,,,,,,,,,,,,,,,,,,,,,,,,,,"[""period"",""period""]",0,"[0.1209999999999809,1.9699999999999136]",87,0,87,0,1,,
,,,,,,,,,,,,607edd6030f140e8b94d477a,19,Mężczyzna,2022-06-11_09h40.33.672,task,2021.1.4,Win32,60.0240096,6299f149e92ead563fba08ef,62a446cb763199a518959d1d,,,,,,,,,,,,,,,,,,,,,,,,,,,,,,,,,,,,,,,,,,,,,,,,,,,,,,,,,,,,,,,,,,,,,,,,,,,,,,,,,,,,,,,,,,,,,0,,88,0,88,0,1,,
,,,,,,,,,,,,607edd6030f140e8b94d477a,19,Mężczyzna,2022-06-11_09h40.33.672,task,2021.1.4,Win32,60.0240096,6299f149e92ead563fba08ef,62a446cb763199a518959d1d,,,,,,,,,,,,,,,,,,,,,,,,,,,,,,,,,,,,,,,,,,,,,,,,,,,,,,,,,,,,,,,,,,,,,,,,,,,,,,,,,,,,,,,,,,,,"[""comma""]",0,[0.24099999999998545],89,0,89,0,1,,
,,,,,,,,,,,,607edd6030f140e8b94d477a,19,Mężczyzna,2022-06-11_09h40.33.672,task,2021.1.4,Win32,60.0240096,6299f149e92ead563fba08ef,62a446cb763199a518959d1d,,,,,,,,,,,,,,,,,,,,,,,,,,,,,,,,,,,,,,,,,,,,,,,,,,,,,,,,,,,,,,,,,,,,,,,,,,,,,,,,,,,,,,,,,,,,"[""comma""]",0,[0.2680000000000291],90,0,90,0,1,,
,,,,,,,,,,,,607edd6030f140e8b94d477a,19,Mężczyzna,2022-06-11_09h40.33.672,task,2021.1.4,Win32,60.0240096,6299f149e92ead563fba08ef,62a446cb763199a518959d1d,,,,,,,,,,,,,,,,,,,,,,,,,,,,,,,,,,,,,,,,,,,,,,,,,,,,,,,,,,,,,,,,,,,,,,,,,,,,,,,,,,,,,,,,,,,,"[""period""]",0,[0.2579999999999245],91,0,91,0,1,,
,,,,,,,,,,,,607edd6030f140e8b94d477a,19,Mężczyzna,2022-06-11_09h40.33.672,task,2021.1.4,Win32,60.0240096,6299f149e92ead563fba08ef,62a446cb763199a518959d1d,,,,,,,,,,,,,,,,,,,,,,,,,,,,,,,,,,,,,,,,,,,,,,,,,,,,,,,,,,,,,,,,,,,,,,,,,,,,,,,,,,,,,,,,,,,,"[""comma""]",0,[0.2179999999999609],92,0,92,0,1,,
,,,,,,,,,,,,607edd6030f140e8b94d477a,19,Mężczyzna,2022-06-11_09h40.33.672,task,2021.1.4,Win32,60.0240096,6299f149e92ead563fba08ef,62a446cb763199a518959d1d,,,,,,,,,,,,,,,,,,,,,,,,,,,,,,,,,,,,,,,,,,,,,,,,,,,,,,,,,,,,,,,,,,,,,,,,,,,,,,,,,,,,,,,,,,,,"[""period""]",0,[0.2179999999999609],93,0,93,0,1,,
,,,,,,,,,,,,607edd6030f140e8b94d477a,19,Mężczyzna,2022-06-11_09h40.33.672,task,2021.1.4,Win32,60.0240096,6299f149e92ead563fba08ef,62a446cb763199a518959d1d,,,,,,,,,,,,,,,,,,,,,,,,,,,,,,,,,,,,,,,,,,,,,,,,,,,,,,,,,,,,,,,,,,,,,,,,,,,,,,,,,,,,,,,,,,,,"[""period"",""comma""]",0,"[0.018000000000029104,1.9349999999999454]",94,0,94,0,1,,
,,,,,,,,,,,,607edd6030f140e8b94d477a,19,Mężczyzna,2022-06-11_09h40.33.672,task,2021.1.4,Win32,60.0240096,6299f149e92ead563fba08ef,62a446cb763199a518959d1d,,,,,,,,,,,,,,,,,,,,,,,,,,,,,,,,,,,,,,,,,,,,,,,,,,,,,,,,,,,,,,,,,,,,,,,,,,,,,,,,,,,,,,,,,,,,,0,,95,0,95,0,1,,
,,,,,,,,,,,,607edd6030f140e8b94d477a,19,Mężczyzna,2022-06-11_09h40.33.672,task,2021.1.4,Win32,60.0240096,6299f149e92ead563fba08ef,62a446cb763199a518959d1d,,,,,,,,,,,,,,,,,,,,,,,,,,,,,,,,,,,,,,,,,,,,,,,,,,,,,,,,,,,,,,,,,,,,,,,,,,,,,,,,,,,,,,,,,,,,"[""comma""]",0,[0.10700000000008458],96,0,96,0,1,,
,,,,,,,,,,,,607edd6030f140e8b94d477a,19,Mężczyzna,2022-06-11_09h40.33.672,task,2021.1.4,Win32,60.0240096,6299f149e92ead563fba08ef,62a446cb763199a518959d1d,,,,,,,,,,,,,,,,,,,,,,,,,,,,,,,,,,,,,,,,,,,,,,,,,,,,,,,,,,,,,,,,,,,,,,,,,,,,,,,,,,,,,,,,,,,,"[""comma""]",0,[0.23500000000001364],97,0,97,0,1,,
,,,,,,,,,,,,607edd6030f140e8b94d477a,19,Mężczyzna,2022-06-11_09h40.33.672,task,2021.1.4,Win32,60.0240096,6299f149e92ead563fba08ef,62a446cb763199a518959d1d,,,,,,,,,,,,,,,,,,,,,,,,,,,,,,,,,,,,,,,,,,,,,,,,,,,,,,,,,,,,,,,,,,,,,,,,,,,,,,,,,,,,,,,,,,,,"[""period""]",0,[0.26900000000000546],98,0,98,0,1,,
,,,,,,,,,,,,607edd6030f140e8b94d477a,19,Mężczyzna,2022-06-11_09h40.33.672,task,2021.1.4,Win32,60.0240096,6299f149e92ead563fba08ef,62a446cb763199a518959d1d,,,,,,,,,,,,,,,,,,,,,,,,,,,,,,,,,,,,,,,,,,,,,,,,,,,,,,,,,,,,,,,,,,,,,,,,,,,,,,,,,,,,,,,,,,,,"[""comma""]",0,[0.08399999999994634],99,0,99,0,1,,
,,,,,,,,,,,,607edd6030f140e8b94d477a,19,Mężczyzna,2022-06-11_09h40.33.672,task,2021.1.4,Win32,60.0240096,6299f149e92ead563fba08ef,62a446cb763199a518959d1d,,,,,,,,,,,,,,,,,,,,,,,,,,,,,,,,,,,,,,,,,,,,,,,,,,,,,,,,,,,,,,,,,,,,,,,,,,,,,,,,,,,,,,,,,,,,"[""period""]",0,[0.2340000000000373],100,0,100,0,1,,
,,,,,,,,,,,,607edd6030f140e8b94d477a,19,Mężczyzna,2022-06-11_09h40.33.672,task,2021.1.4,Win32,60.0240096,6299f149e92ead563fba08ef,62a446cb763199a518959d1d,,,,,,,,,,,,,,,,,,,,,,,,,,,,,,,,,,,,,,,,,,,,,,,,,,,,,,,,,,,,,,,,,,,,,,,,,,,,,,,,,,,,,,,,,,,,"[""period""]",0,[0.28499999999996817],101,0,101,0,1,,
,,,,,,,,,,,,607edd6030f140e8b94d477a,19,Mężczyzna,2022-06-11_09h40.33.672,task,2021.1.4,Win32,60.0240096,6299f149e92ead563fba08ef,62a446cb763199a518959d1d,,,,,,,,,,,,,,,,,,,,,,,,,,,,,,,,,,,,,,,,,,,,,,,,,,,,,,,,,,,,,,,,,,,,,,,,,,,,,,,,,,,,,,,,,,,,"[""comma""]",0,[0.26900000000000546],102,0,102,0,1,,
,,,,,,,,,,,,607edd6030f140e8b94d477a,19,Mężczyzna,2022-06-11_09h40.33.672,task,2021.1.4,Win32,60.0240096,6299f149e92ead563fba08ef,62a446cb763199a518959d1d,,,,,,,,,,,,,,,,,,,,,,,,,,,,,,,,,,,,,,,,,,,,,,,,,,,,,,,,,,,,,,,,,,,,,,,,,,,,,,,,,,,,,,,,,,,,"[""comma""]",0,[0.29100000000005366],103,0,103,0,1,,
,,,,,,,,,,,,607edd6030f140e8b94d477a,19,Mężczyzna,2022-06-11_09h40.33.672,task,2021.1.4,Win32,60.0240096,6299f149e92ead563fba08ef,62a446cb763199a518959d1d,,,,,,,,,,,,,,,,,,,,,,,,,,,,,,,,,,,,,,,,,,,,,,,,,,,,,,,,,,,,,,,,,,,,,,,,,,,,,,,,,,,,,,,,,,,,"[""period""]",0,[0.20699999999999363],104,0,104,0,1,,
,,,,,,,,,,,,607edd6030f140e8b94d477a,19,Mężczyzna,2022-06-11_09h40.33.672,task,2021.1.4,Win32,60.0240096,6299f149e92ead563fba08ef,62a446cb763199a518959d1d,,,,,,,,,,,,,,,,,,,,,,,,,,,,,,,,,,,,,,,,,,,,,,,,,,,,,,,,,,,,,,,,,,,,,,,,,,,,,,,,,,,,,,,,,,,,"[""comma""]",0,[0.18600000000003547],105,0,105,0,1,,
,,,,,,,,,,,,607edd6030f140e8b94d477a,19,Mężczyzna,2022-06-11_09h40.33.672,task,2021.1.4,Win32,60.0240096,6299f149e92ead563fba08ef,62a446cb763199a518959d1d,,,,,,,,,,,,,,,,,,,,,,,,,,,,,,,,,,,,,,,,,,,,,,,,,,,,,,,,,,,,,,,,,,,,,,,,,,,,,,,,,,,,,,,,,,,,"[""period"",""period""]",0,"[0.18799999999998818,1.9440000000000737]",106,0,106,0,1,,
,,,,,,,,,,,,607edd6030f140e8b94d477a,19,Mężczyzna,2022-06-11_09h40.33.672,task,2021.1.4,Win32,60.0240096,6299f149e92ead563fba08ef,62a446cb763199a518959d1d,,,,,,,,,,,,,,,,,,,,,,,,,,,,,,,,,,,,,,,,,,,,,,,,,,,,,,,,,,,,,,,,,,,,,,,,,,,,,,,,,,,,,,,,,,,,,0,,107,0,107,0,1,,
,,,,,,,,,,,,607edd6030f140e8b94d477a,19,Mężczyzna,2022-06-11_09h40.33.672,task,2021.1.4,Win32,60.0240096,6299f149e92ead563fba08ef,62a446cb763199a518959d1d,,,,,,,,,,,,,,,,,,,,,,,,,,,,,,,,,,,,,,,,,,,,,,,,,,,,,,,,,,,,,,,,,,,,,,,,,,,,,,,,,,,,,,,,,,,,"[""comma""]",0,[0.5009999999999764],108,0,108,0,1,,
,,,,,,,,,,,,607edd6030f140e8b94d477a,19,Mężczyzna,2022-06-11_09h40.33.672,task,2021.1.4,Win32,60.0240096,6299f149e92ead563fba08ef,62a446cb763199a518959d1d,,,,,,,,,,,,,,,,,,,,,,,,,,,,,,,,,,,,,,,,,,,,,,,,,,,,,,,,,,,,,,,,,,,,,,,,,,,,,,,,,,,,,,,,,,,,"[""period""]",0,[0.30500000000006366],109,0,109,0,1,,
,,,,,,,,,,,,607edd6030f140e8b94d477a,19,Mężczyzna,2022-06-11_09h40.33.672,task,2021.1.4,Win32,60.0240096,6299f149e92ead563fba08ef,62a446cb763199a518959d1d,,,,,,,,,,,,,,,,,,,,,,,,,,,,,,,,,,,,,,,,,,,,,,,,,,,,,,,,,,,,,,,,,,,,,,,,,,,,,,,,,,,,,,,,,,,,"[""period""]",0,[0.27700000000004366],110,0,110,0,1,,
,,,,,,,,,,,,607edd6030f140e8b94d477a,19,Mężczyzna,2022-06-11_09h40.33.672,task,2021.1.4,Win32,60.0240096,6299f149e92ead563fba08ef,62a446cb763199a518959d1d,,,,,,,,,,,,,,,,,,,,,,,,,,,,,,,,,,,,,,,,,,,,,,,,,,,,,,,,,,,,,,,,,,,,,,,,,,,,,,,,,,,,,,,,,,,,"[""comma""]",0,[0.23500000000001364],111,0,111,0,1,,
,,,,,,,,,,,,607edd6030f140e8b94d477a,19,Mężczyzna,2022-06-11_09h40.33.672,task,2021.1.4,Win32,60.0240096,6299f149e92ead563fba08ef,62a446cb763199a518959d1d,,,,,,,,,,,,,,,,,,,,,,,,,,,,,,,,,,,,,,,,,,,,,,,,,,,,,,,,,,,,,,,,,,,,,,,,,,,,,,,,,,,,,,,,,,,,"[""period""]",0,[0.19100000000003092],112,0,112,0,1,,
,,,,,,,,,,,,607edd6030f140e8b94d477a,19,Mężczyzna,2022-06-11_09h40.33.672,task,2021.1.4,Win32,60.0240096,6299f149e92ead563fba08ef,62a446cb763199a518959d1d,,,,,,,,,,,,,,,,,,,,,,,,,,,,,,,,,,,,,,,,,,,,,,,,,,,,,,,,,,,,,,,,,,,,,,,,,,,,,,,,,,,,,,,,,,,,"[""comma""]",0,[0.2760000000000673],113,0,113,0,1,,
,,,,,,,,,,,,607edd6030f140e8b94d477a,19,Mężczyzna,2022-06-11_09h40.33.672,task,2021.1.4,Win32,60.0240096,6299f149e92ead563fba08ef,62a446cb763199a518959d1d,,,,,,,,,,,,,,,,,,,,,,,,,,,,,,,,,,,,,,,,,,,,,,,,,,,,,,,,,,,,,,,,,,,,,,,,,,,,,,,,,,,,,,,,,,,,"[""comma""]",0,[0.23500000000001364],114,0,114,0,1,,
,,,,,,,,,,,,607edd6030f140e8b94d477a,19,Mężczyzna,2022-06-11_09h40.33.672,task,2021.1.4,Win32,60.0240096,6299f149e92ead563fba08ef,62a446cb763199a518959d1d,,,,,,,,,,,,,,,,,,,,,,,,,,,,,,,,,,,,,,,,,,,,,,,,,,,,,,,,,,,,,,,,,,,,,,,,,,,,,,,,,,,,,,,,,,,,"[""comma""]",0,[0.25099999999997635],115,0,115,0,1,,
,,,,,,,,,,,,607edd6030f140e8b94d477a,19,Mężczyzna,2022-06-11_09h40.33.672,task,2021.1.4,Win32,60.0240096,6299f149e92ead563fba08ef,62a446cb763199a518959d1d,,,,,,,,,,,,,,,,,,,,,,,,,,,,,,,,,,,,,,,,,,,,,,,,,,,,,,,,,,,,,,,,,,,,,,,,,,,,,,,,,,,,,,,,,,,,"[""period""]",0,[0.41599999999994],116,0,116,0,1,,
,,,,,,,,,,,,607edd6030f140e8b94d477a,19,Mężczyzna,2022-06-11_09h40.33.672,task,2021.1.4,Win32,60.0240096,6299f149e92ead563fba08ef,62a446cb763199a518959d1d,,,,,,,,,,,,,,,,,,,,,,,,,,,,,,,,,,,,,,,,,,,,,,,,,,,,,,,,,,,,,,,,,,,,,,,,,,,,,,,,,,,,,,,,,,,,"[""period""]",0,[0.25300000000004275],117,0,117,0,1,,
,,,,,,,,,,,,607edd6030f140e8b94d477a,19,Mężczyzna,2022-06-11_09h40.33.672,task,2021.1.4,Win32,60.0240096,6299f149e92ead563fba08ef,62a446cb763199a518959d1d,,,,,,,,,,,,,,,,,,,,,,,,,,,,,,,,,,,,,,,,,,,,,,,,,,,,,,,,,,,,,,,,,,,,,,,,,,,,,,,,,,,,,,,,,,,,"[""period""]",0,[0.2860000000000582],118,0,118,0,1,,
,,,,,,,,,,,,607edd6030f140e8b94d477a,19,Mężczyzna,2022-06-11_09h40.33.672,task,2021.1.4,Win32,60.0240096,6299f149e92ead563fba08ef,62a446cb763199a518959d1d,,,,,,,,,,,,,,,,,,,,,,,,,,,,,,,,,,,,,,,,,,,,,,,,,,,,,,,,,,,,,,,,,,,,,,,,,,,,,,,,,,,,,,,,,,,,"[""period"",""comma""]",0,"[0.053999999999973625,1.88799999999992]",119,0,119,0,1,,
,,,,,,,,,,,,607edd6030f140e8b94d477a,19,Mężczyzna,2022-06-11_09h40.33.672,task,2021.1.4,Win32,60.0240096,6299f149e92ead563fba08ef,62a446cb763199a518959d1d,,,,,,,,,,,,,,,,,,,,,,,,,,,,,,,,,,,,,,,,,,,,,,,,,,,,,,,,,,,,,,,,,,,,,,,,,,,,,,,,,,,,,,,,,,,,,,,,,,,,space,2.01
