key_resp_15.keys,key_resp_15.rt,key_resp_16.keys,key_resp_16.rt,key_resp_4.keys,key_resp_4.rt,next_letter.thisRepN,next_letter.thisTrialN,next_letter.thisN,next_letter.thisIndex,next_letter.ran,letter,participant,Wiek*,Płeć,date,expName,psychopyVersion,OS,frameRate,study_id,session,simple_recall,key_resp_5.keys,key_resp_5.rt,simple_recall_corr,simple_recall_corrkeys,next_level.thisRepN,next_level.thisTrialN,next_level.thisN,next_level.thisIndex,next_level.ran,key_resp_2.keys,key_resp_2.rt,digit_answer,key_resp.keys,key_resp.corr,key_resp.rt,RT_list,next_equation.thisRepN,next_equation.thisTrialN,next_equation.thisN,next_equation.thisIndex,next_equation.ran,Task,Trial,Problem,Operation_answer,processing_score,sumRT,meanRT,sumdiff,sd,RT,key_resp_3.keys,key_resp_3.rt,repeat_practice.thisRepN,repeat_practice.thisTrialN,repeat_practice.thisN,repeat_practice.thisIndex,repeat_practice.ran,key_resp_6.keys,key_resp_6.rt,key_resp_11.keys,key_resp_11.corr,operation_correct,repeat_if_wrong_prac.thisRepN,repeat_if_wrong_prac.thisTrialN,repeat_if_wrong_prac.thisN,repeat_if_wrong_prac.thisIndex,repeat_if_wrong_prac.ran,key_resp_11.rt,span_size_prac.thisRepN,span_size_prac.thisTrialN,span_size_prac.thisN,span_size_prac.thisIndex,span_size_prac.ran,complex_recall_practice,key_resp_9.keys,key_resp_9.corr,key_resp_9.rt,complex_prac_corr,span_recall_prac.thisRepN,span_recall_prac.thisTrialN,span_recall_prac.thisN,span_recall_prac.thisIndex,span_recall_prac.ran,key_resp_10.keys,key_resp_10.rt,key_resp_7.keys,key_resp_7.corr,key_resp_7.rt,repeat_if_wrong.thisRepN,repeat_if_wrong.thisTrialN,repeat_if_wrong.thisN,repeat_if_wrong.thisIndex,repeat_if_wrong.ran,span_size.thisRepN,span_size.thisTrialN,span_size.thisN,span_size.thisIndex,span_size.ran,complex_recall,key_resp_8.keys,key_resp_8.corr,key_resp_8.rt,complex_recall_corr,complex_recall_corrkeys,span_recall.thisRepN,span_recall.thisTrialN,span_recall.thisN,span_recall.thisIndex,span_recall.ran,key_resp_13.keys,key_resp_13.corr,random_loop.thisRepN,random_loop.thisTrialN,random_loop.thisN,random_loop.thisIndex,random_loop.ran,key_resp_13.rt,key_resp_12.keys,key_resp_12.rt
space,1.089,space,4.6891,space,1.9894,0,0,0,0,1,X V Q F H G B L J M P D K C T S W R N Z,607f367c60fe33f8f18816d1,25,Kobieta,2022-06-11_09h12.54.267,task,2021.1.4,Win32,60.10699044,6299f149e92ead563fba08ef,62a43f005d2a26aeb3938bdd,,,,,,,,,,,,,,,,,,,,,,,,,,,,,,,,,,,,,,,,,,,,,,,,,,,,,,,,,,,,,,,,,,,,,,,,,,,,,,,,,,,,,,,,,,,,,,,,,,,,,
,,,,,,1,0,1,0,1,X V Q F H G B L J M P D K C T S W R N Z,607f367c60fe33f8f18816d1,25,Kobieta,2022-06-11_09h12.54.267,task,2021.1.4,Win32,60.10699044,6299f149e92ead563fba08ef,62a43f005d2a26aeb3938bdd,,,,,,,,,,,,,,,,,,,,,,,,,,,,,,,,,,,,,,,,,,,,,,,,,,,,,,,,,,,,,,,,,,,,,,,,,,,,,,,,,,,,,,,,,,,,,,,,,,,,,
,,,,,,,,,,,,607f367c60fe33f8f18816d1,25,Kobieta,2022-06-11_09h12.54.267,task,2021.1.4,Win32,60.10699044,6299f149e92ead563fba08ef,62a43f005d2a26aeb3938bdd,cv,"[""c"",""v""]","[1.9823999999761597,2.567199999928473,3.2843999999761593]",0,ZV,0,0,0,0,1,,,,,,,,,,,,,,,,,,,,,,,,,,,,,,,,,,,,,,,,,,,,,,,,,,,,,,,,,,,,,,,,,,,,,,,,,,,,,,,,,,,,,,,,,,,
,,,,,,0,0,0,0,1,X V Q F H G B L J M P D K C T S W R N Z,607f367c60fe33f8f18816d1,25,Kobieta,2022-06-11_09h12.54.267,task,2021.1.4,Win32,60.10699044,6299f149e92ead563fba08ef,62a43f005d2a26aeb3938bdd,,,,,,,,,,,,,,,,,,,,,,,,,,,,,,,,,,,,,,,,,,,,,,,,,,,,,,,,,,,,,,,,,,,,,,,,,,,,,,,,,,,,,,,,,,,,,,,,,,,,,
,,,,,,1,0,1,0,1,X V Q F H G B L J M P D K C T S W R N Z,607f367c60fe33f8f18816d1,25,Kobieta,2022-06-11_09h12.54.267,task,2021.1.4,Win32,60.10699044,6299f149e92ead563fba08ef,62a43f005d2a26aeb3938bdd,,,,,,,,,,,,,,,,,,,,,,,,,,,,,,,,,,,,,,,,,,,,,,,,,,,,,,,,,,,,,,,,,,,,,,,,,,,,,,,,,,,,,,,,,,,,,,,,,,,,,
,,,,,,,,,,,,607f367c60fe33f8f18816d1,25,Kobieta,2022-06-11_09h12.54.267,task,2021.1.4,Win32,60.10699044,6299f149e92ead563fba08ef,62a43f005d2a26aeb3938bdd,wl,"[""w"",""l""]","[1.1981000000238424,1.4881000000238416,4.046100000023841]",1,WL,1,0,1,0,1,,,,,,,,,,,,,,,,,,,,,,,,,,,,,,,,,,,,,,,,,,,,,,,,,,,,,,,,,,,,,,,,,,,,,,,,,,,,,,,,,,,,,,,,,,,
,,,,,,0,0,0,0,1,X V Q F H G B L J M P D K C T S W R N Z,607f367c60fe33f8f18816d1,25,Kobieta,2022-06-11_09h12.54.267,task,2021.1.4,Win32,60.10699044,6299f149e92ead563fba08ef,62a43f005d2a26aeb3938bdd,,,,,,,,,,,,,,,,,,,,,,,,,,,,,,,,,,,,,,,,,,,,,,,,,,,,,,,,,,,,,,,,,,,,,,,,,,,,,,,,,,,,,,,,,,,,,,,,,,,,,
,,,,,,1,0,1,0,1,X V Q F H G B L J M P D K C T S W R N Z,607f367c60fe33f8f18816d1,25,Kobieta,2022-06-11_09h12.54.267,task,2021.1.4,Win32,60.10699044,6299f149e92ead563fba08ef,62a43f005d2a26aeb3938bdd,,,,,,,,,,,,,,,,,,,,,,,,,,,,,,,,,,,,,,,,,,,,,,,,,,,,,,,,,,,,,,,,,,,,,,,,,,,,,,,,,,,,,,,,,,,,,,,,,,,,,
,,,,,,,,,,,,607f367c60fe33f8f18816d1,25,Kobieta,2022-06-11_09h12.54.267,task,2021.1.4,Win32,60.10699044,6299f149e92ead563fba08ef,62a43f005d2a26aeb3938bdd,tg,"[""t"",""g""]","[0.8871000000238425,1.1328000000715264,1.4017000000476827]",1,TG,2,0,2,0,1,,,,,,,,,,,,,,,,,,,,,,,,,,,,,,,,,,,,,,,,,,,,,,,,,,,,,,,,,,,,,,,,,,,,,,,,,,,,,,,,,,,,,,,,,,,
,,,,,,0,0,0,0,1,X V Q F H G B L J M P D K C T S W R N Z,607f367c60fe33f8f18816d1,25,Kobieta,2022-06-11_09h12.54.267,task,2021.1.4,Win32,60.10699044,6299f149e92ead563fba08ef,62a43f005d2a26aeb3938bdd,,,,,,,,,,,,,,,,,,,,,,,,,,,,,,,,,,,,,,,,,,,,,,,,,,,,,,,,,,,,,,,,,,,,,,,,,,,,,,,,,,,,,,,,,,,,,,,,,,,,,
,,,,,,1,0,1,0,1,X V Q F H G B L J M P D K C T S W R N Z,607f367c60fe33f8f18816d1,25,Kobieta,2022-06-11_09h12.54.267,task,2021.1.4,Win32,60.10699044,6299f149e92ead563fba08ef,62a43f005d2a26aeb3938bdd,,,,,,,,,,,,,,,,,,,,,,,,,,,,,,,,,,,,,,,,,,,,,,,,,,,,,,,,,,,,,,,,,,,,,,,,,,,,,,,,,,,,,,,,,,,,,,,,,,,,,
,,,,,,2,0,2,0,1,X V Q F H G B L J M P D K C T S W R N Z,607f367c60fe33f8f18816d1,25,Kobieta,2022-06-11_09h12.54.267,task,2021.1.4,Win32,60.10699044,6299f149e92ead563fba08ef,62a43f005d2a26aeb3938bdd,,,,,,,,,,,,,,,,,,,,,,,,,,,,,,,,,,,,,,,,,,,,,,,,,,,,,,,,,,,,,,,,,,,,,,,,,,,,,,,,,,,,,,,,,,,,,,,,,,,,,
,,,,,,,,,,,,607f367c60fe33f8f18816d1,25,Kobieta,2022-06-11_09h12.54.267,task,2021.1.4,Win32,60.10699044,6299f149e92ead563fba08ef,62a43f005d2a26aeb3938bdd,nxr,"[""n"",""x"",""r""]","[0.6651999999284754,1.3376999999284749,1.72419999992848,1.9360999999046342]",1,NXR,3,0,3,0,1,,,,,,,,,,,,,,,,,,,,,,,,,,,,,,,,,,,,,,,,,,,,,,,,,,,,,,,,,,,,,,,,,,,,,,,,,,,,,,,,,,,,,,,,,,,
,,,,,,0,0,0,0,1,X V Q F H G B L J M P D K C T S W R N Z,607f367c60fe33f8f18816d1,25,Kobieta,2022-06-11_09h12.54.267,task,2021.1.4,Win32,60.10699044,6299f149e92ead563fba08ef,62a43f005d2a26aeb3938bdd,,,,,,,,,,,,,,,,,,,,,,,,,,,,,,,,,,,,,,,,,,,,,,,,,,,,,,,,,,,,,,,,,,,,,,,,,,,,,,,,,,,,,,,,,,,,,,,,,,,,,
,,,,,,1,0,1,0,1,X V Q F H G B L J M P D K C T S W R N Z,607f367c60fe33f8f18816d1,25,Kobieta,2022-06-11_09h12.54.267,task,2021.1.4,Win32,60.10699044,6299f149e92ead563fba08ef,62a43f005d2a26aeb3938bdd,,,,,,,,,,,,,,,,,,,,,,,,,,,,,,,,,,,,,,,,,,,,,,,,,,,,,,,,,,,,,,,,,,,,,,,,,,,,,,,,,,,,,,,,,,,,,,,,,,,,,
,,,,,,2,0,2,0,1,X V Q F H G B L J M P D K C T S W R N Z,607f367c60fe33f8f18816d1,25,Kobieta,2022-06-11_09h12.54.267,task,2021.1.4,Win32,60.10699044,6299f149e92ead563fba08ef,62a43f005d2a26aeb3938bdd,,,,,,,,,,,,,,,,,,,,,,,,,,,,,,,,,,,,,,,,,,,,,,,,,,,,,,,,,,,,,,,,,,,,,,,,,,,,,,,,,,,,,,,,,,,,,,,,,,,,,
,,,,,,,,,,,,607f367c60fe33f8f18816d1,25,Kobieta,2022-06-11_09h12.54.267,task,2021.1.4,Win32,60.10699044,6299f149e92ead563fba08ef,62a43f005d2a26aeb3938bdd,fxx,"[""f"",""x"",""x""]","[0.7798000000715248,1.1766000000238463,1.3428999999761615,1.5322000000476876]",1,FXX,4,0,4,0,1,,,,,,,,,,,,,,,,,,,,,,,,,,,,,,,,,,,,,,,,,,,,,,,,,,,,,,,,,,,,,,,,,,,,,,,,,,,,,,,,,,,,,,,,,,,
,,,,,,0,0,0,0,1,X V Q F H G B L J M P D K C T S W R N Z,607f367c60fe33f8f18816d1,25,Kobieta,2022-06-11_09h12.54.267,task,2021.1.4,Win32,60.10699044,6299f149e92ead563fba08ef,62a43f005d2a26aeb3938bdd,,,,,,,,,,,,,,,,,,,,,,,,,,,,,,,,,,,,,,,,,,,,,,,,,,,,,,,,,,,,,,,,,,,,,,,,,,,,,,,,,,,,,,,,,,,,,,,,,,,,,
,,,,,,1,0,1,0,1,X V Q F H G B L J M P D K C T S W R N Z,607f367c60fe33f8f18816d1,25,Kobieta,2022-06-11_09h12.54.267,task,2021.1.4,Win32,60.10699044,6299f149e92ead563fba08ef,62a43f005d2a26aeb3938bdd,,,,,,,,,,,,,,,,,,,,,,,,,,,,,,,,,,,,,,,,,,,,,,,,,,,,,,,,,,,,,,,,,,,,,,,,,,,,,,,,,,,,,,,,,,,,,,,,,,,,,
,,,,,,2,0,2,0,1,X V Q F H G B L J M P D K C T S W R N Z,607f367c60fe33f8f18816d1,25,Kobieta,2022-06-11_09h12.54.267,task,2021.1.4,Win32,60.10699044,6299f149e92ead563fba08ef,62a43f005d2a26aeb3938bdd,,,,,,,,,,,,,,,,,,,,,,,,,,,,,,,,,,,,,,,,,,,,,,,,,,,,,,,,,,,,,,,,,,,,,,,,,,,,,,,,,,,,,,,,,,,,,,,,,,,,,
,,,,,,3,0,3,0,1,X V Q F H G B L J M P D K C T S W R N Z,607f367c60fe33f8f18816d1,25,Kobieta,2022-06-11_09h12.54.267,task,2021.1.4,Win32,60.10699044,6299f149e92ead563fba08ef,62a43f005d2a26aeb3938bdd,,,,,,,,,,,,,,,,,,,,,,,,,,,,,,,,,,,,,,,,,,,,,,,,,,,,,,,,,,,,,,,,,,,,,,,,,,,,,,,,,,,,,,,,,,,,,,,,,,,,,
,,,,,,,,,,,,607f367c60fe33f8f18816d1,25,Kobieta,2022-06-11_09h12.54.267,task,2021.1.4,Win32,60.10699044,6299f149e92ead563fba08ef,62a43f005d2a26aeb3938bdd,dsrl,"[""d"",""s"",""r"",""l""]","[0.8574000000953674,1.1240000000000023,1.4320000000000022,1.8703000000715306,2.073600000023845]",1,DSRL,5,0,5,0,1,,,,,,,,,,,,,,,,,,,,,,,,,,,,,,,,,,,,,,,,,,,,,,,,,,,,,,,,,,,,,,,,,,,,,,,,,,,,,,,,,,,,,,,,,,,
,,,,,,0,0,0,0,1,X V Q F H G B L J M P D K C T S W R N Z,607f367c60fe33f8f18816d1,25,Kobieta,2022-06-11_09h12.54.267,task,2021.1.4,Win32,60.10699044,6299f149e92ead563fba08ef,62a43f005d2a26aeb3938bdd,,,,,,,,,,,,,,,,,,,,,,,,,,,,,,,,,,,,,,,,,,,,,,,,,,,,,,,,,,,,,,,,,,,,,,,,,,,,,,,,,,,,,,,,,,,,,,,,,,,,,
,,,,,,1,0,1,0,1,X V Q F H G B L J M P D K C T S W R N Z,607f367c60fe33f8f18816d1,25,Kobieta,2022-06-11_09h12.54.267,task,2021.1.4,Win32,60.10699044,6299f149e92ead563fba08ef,62a43f005d2a26aeb3938bdd,,,,,,,,,,,,,,,,,,,,,,,,,,,,,,,,,,,,,,,,,,,,,,,,,,,,,,,,,,,,,,,,,,,,,,,,,,,,,,,,,,,,,,,,,,,,,,,,,,,,,
,,,,,,2,0,2,0,1,X V Q F H G B L J M P D K C T S W R N Z,607f367c60fe33f8f18816d1,25,Kobieta,2022-06-11_09h12.54.267,task,2021.1.4,Win32,60.10699044,6299f149e92ead563fba08ef,62a43f005d2a26aeb3938bdd,,,,,,,,,,,,,,,,,,,,,,,,,,,,,,,,,,,,,,,,,,,,,,,,,,,,,,,,,,,,,,,,,,,,,,,,,,,,,,,,,,,,,,,,,,,,,,,,,,,,,
,,,,,,3,0,3,0,1,X V Q F H G B L J M P D K C T S W R N Z,607f367c60fe33f8f18816d1,25,Kobieta,2022-06-11_09h12.54.267,task,2021.1.4,Win32,60.10699044,6299f149e92ead563fba08ef,62a43f005d2a26aeb3938bdd,,,,,,,,,,,,,,,,,,,,,,,,,,,,,,,,,,,,,,,,,,,,,,,,,,,,,,,,,,,,,,,,,,,,,,,,,,,,,,,,,,,,,,,,,,,,,,,,,,,,,
,,,,,,,,,,,,607f367c60fe33f8f18816d1,25,Kobieta,2022-06-11_09h12.54.267,task,2021.1.4,Win32,60.10699044,6299f149e92ead563fba08ef,62a43f005d2a26aeb3938bdd,jxnp,"[""j"",""x"",""n"",""p""]","[1.2157999999523241,1.88900000000001,2.5567000000476767,2.9061000000238337,3.0634999999999977]",1,JXNP,6,0,6,0,1,,,,,,,,,,,,,,,,,,,,,,,,,,,,,,,,,,,,,,,,,,,,,,,,,,,,,,,,,,,,,,,,,,,,,,,,,,,,,,,,,,,,,,,,,,,
,,,,,,0,0,0,0,1,X V Q F H G B L J M P D K C T S W R N Z,607f367c60fe33f8f18816d1,25,Kobieta,2022-06-11_09h12.54.267,task,2021.1.4,Win32,60.10699044,6299f149e92ead563fba08ef,62a43f005d2a26aeb3938bdd,,,,,,,,,,,,,,,,,,,,,,,,,,,,,,,,,,,,,,,,,,,,,,,,,,,,,,,,,,,,,,,,,,,,,,,,,,,,,,,,,,,,,,,,,,,,,,,,,,,,,
,,,,,,1,0,1,0,1,X V Q F H G B L J M P D K C T S W R N Z,607f367c60fe33f8f18816d1,25,Kobieta,2022-06-11_09h12.54.267,task,2021.1.4,Win32,60.10699044,6299f149e92ead563fba08ef,62a43f005d2a26aeb3938bdd,,,,,,,,,,,,,,,,,,,,,,,,,,,,,,,,,,,,,,,,,,,,,,,,,,,,,,,,,,,,,,,,,,,,,,,,,,,,,,,,,,,,,,,,,,,,,,,,,,,,,
,,,,,,2,0,2,0,1,X V Q F H G B L J M P D K C T S W R N Z,607f367c60fe33f8f18816d1,25,Kobieta,2022-06-11_09h12.54.267,task,2021.1.4,Win32,60.10699044,6299f149e92ead563fba08ef,62a43f005d2a26aeb3938bdd,,,,,,,,,,,,,,,,,,,,,,,,,,,,,,,,,,,,,,,,,,,,,,,,,,,,,,,,,,,,,,,,,,,,,,,,,,,,,,,,,,,,,,,,,,,,,,,,,,,,,
,,,,,,3,0,3,0,1,X V Q F H G B L J M P D K C T S W R N Z,607f367c60fe33f8f18816d1,25,Kobieta,2022-06-11_09h12.54.267,task,2021.1.4,Win32,60.10699044,6299f149e92ead563fba08ef,62a43f005d2a26aeb3938bdd,,,,,,,,,,,,,,,,,,,,,,,,,,,,,,,,,,,,,,,,,,,,,,,,,,,,,,,,,,,,,,,,,,,,,,,,,,,,,,,,,,,,,,,,,,,,,,,,,,,,,
,,,,,,4,0,4,0,1,X V Q F H G B L J M P D K C T S W R N Z,607f367c60fe33f8f18816d1,25,Kobieta,2022-06-11_09h12.54.267,task,2021.1.4,Win32,60.10699044,6299f149e92ead563fba08ef,62a43f005d2a26aeb3938bdd,,,,,,,,,,,,,,,,,,,,,,,,,,,,,,,,,,,,,,,,,,,,,,,,,,,,,,,,,,,,,,,,,,,,,,,,,,,,,,,,,,,,,,,,,,,,,,,,,,,,,
,,,,,,,,,,,,607f367c60fe33f8f18816d1,25,Kobieta,2022-06-11_09h12.54.267,task,2021.1.4,Win32,60.10699044,6299f149e92ead563fba08ef,62a43f005d2a26aeb3938bdd,knxjk,"[""k"",""n"",""x"",""j"",""k""]","[1.5221000000238405,2.3167000000476747,3.2652000000476704,3.7107999999523145,3.9197999999523034,4.127499999999998]",1,KNXJK,7,0,7,0,1,,,,,,,,,,,,,,,,,,,,,,,,,,,,,,,,,,,,,,,,,,,,,,,,,,,,,,,,,,,,,,,,,,,,,,,,,,,,,,,,,,,,,,,,,,,
,,,,,,0,0,0,0,1,X V Q F H G B L J M P D K C T S W R N Z,607f367c60fe33f8f18816d1,25,Kobieta,2022-06-11_09h12.54.267,task,2021.1.4,Win32,60.10699044,6299f149e92ead563fba08ef,62a43f005d2a26aeb3938bdd,,,,,,,,,,,,,,,,,,,,,,,,,,,,,,,,,,,,,,,,,,,,,,,,,,,,,,,,,,,,,,,,,,,,,,,,,,,,,,,,,,,,,,,,,,,,,,,,,,,,,
,,,,,,1,0,1,0,1,X V Q F H G B L J M P D K C T S W R N Z,607f367c60fe33f8f18816d1,25,Kobieta,2022-06-11_09h12.54.267,task,2021.1.4,Win32,60.10699044,6299f149e92ead563fba08ef,62a43f005d2a26aeb3938bdd,,,,,,,,,,,,,,,,,,,,,,,,,,,,,,,,,,,,,,,,,,,,,,,,,,,,,,,,,,,,,,,,,,,,,,,,,,,,,,,,,,,,,,,,,,,,,,,,,,,,,
,,,,,,2,0,2,0,1,X V Q F H G B L J M P D K C T S W R N Z,607f367c60fe33f8f18816d1,25,Kobieta,2022-06-11_09h12.54.267,task,2021.1.4,Win32,60.10699044,6299f149e92ead563fba08ef,62a43f005d2a26aeb3938bdd,,,,,,,,,,,,,,,,,,,,,,,,,,,,,,,,,,,,,,,,,,,,,,,,,,,,,,,,,,,,,,,,,,,,,,,,,,,,,,,,,,,,,,,,,,,,,,,,,,,,,
,,,,,,3,0,3,0,1,X V Q F H G B L J M P D K C T S W R N Z,607f367c60fe33f8f18816d1,25,Kobieta,2022-06-11_09h12.54.267,task,2021.1.4,Win32,60.10699044,6299f149e92ead563fba08ef,62a43f005d2a26aeb3938bdd,,,,,,,,,,,,,,,,,,,,,,,,,,,,,,,,,,,,,,,,,,,,,,,,,,,,,,,,,,,,,,,,,,,,,,,,,,,,,,,,,,,,,,,,,,,,,,,,,,,,,
,,,,,,4,0,4,0,1,X V Q F H G B L J M P D K C T S W R N Z,607f367c60fe33f8f18816d1,25,Kobieta,2022-06-11_09h12.54.267,task,2021.1.4,Win32,60.10699044,6299f149e92ead563fba08ef,62a43f005d2a26aeb3938bdd,,,,,,,,,,,,,,,,,,,,,,,,,,,,,,,,,,,,,,,,,,,,,,,,,,,,,,,,,,,,,,,,,,,,,,,,,,,,,,,,,,,,,,,,,,,,,,,,,,,,,
,,,,,,,,,,,,607f367c60fe33f8f18816d1,25,Kobieta,2022-06-11_09h12.54.267,task,2021.1.4,Win32,60.10699044,6299f149e92ead563fba08ef,62a43f005d2a26aeb3938bdd,xkrxc,"[""x"",""k"",""r"",""x"",""c""]","[0.8537000000476809,1.290899999976162,2.0522000000476908,2.636499999999998,6.450300000071522,6.70060000002384]",0,XKRXB,8,0,8,0,1,,,,,,,,,,,,,,,,,,,,,,,,,,,,,,,,,,,,,,,,,,,,,,,,,,,,,,,,,,,,,,,,,,,,,,,,,,,,,,,,,,,,,,,,,,,
,,,,,,0,0,0,0,1,X V Q F H G B L J M P D K C T S W R N Z,607f367c60fe33f8f18816d1,25,Kobieta,2022-06-11_09h12.54.267,task,2021.1.4,Win32,60.10699044,6299f149e92ead563fba08ef,62a43f005d2a26aeb3938bdd,,,,,,,,,,,,,,,,,,,,,,,,,,,,,,,,,,,,,,,,,,,,,,,,,,,,,,,,,,,,,,,,,,,,,,,,,,,,,,,,,,,,,,,,,,,,,,,,,,,,,
,,,,,,1,0,1,0,1,X V Q F H G B L J M P D K C T S W R N Z,607f367c60fe33f8f18816d1,25,Kobieta,2022-06-11_09h12.54.267,task,2021.1.4,Win32,60.10699044,6299f149e92ead563fba08ef,62a43f005d2a26aeb3938bdd,,,,,,,,,,,,,,,,,,,,,,,,,,,,,,,,,,,,,,,,,,,,,,,,,,,,,,,,,,,,,,,,,,,,,,,,,,,,,,,,,,,,,,,,,,,,,,,,,,,,,
,,,,,,2,0,2,0,1,X V Q F H G B L J M P D K C T S W R N Z,607f367c60fe33f8f18816d1,25,Kobieta,2022-06-11_09h12.54.267,task,2021.1.4,Win32,60.10699044,6299f149e92ead563fba08ef,62a43f005d2a26aeb3938bdd,,,,,,,,,,,,,,,,,,,,,,,,,,,,,,,,,,,,,,,,,,,,,,,,,,,,,,,,,,,,,,,,,,,,,,,,,,,,,,,,,,,,,,,,,,,,,,,,,,,,,
,,,,,,3,0,3,0,1,X V Q F H G B L J M P D K C T S W R N Z,607f367c60fe33f8f18816d1,25,Kobieta,2022-06-11_09h12.54.267,task,2021.1.4,Win32,60.10699044,6299f149e92ead563fba08ef,62a43f005d2a26aeb3938bdd,,,,,,,,,,,,,,,,,,,,,,,,,,,,,,,,,,,,,,,,,,,,,,,,,,,,,,,,,,,,,,,,,,,,,,,,,,,,,,,,,,,,,,,,,,,,,,,,,,,,,
,,,,,,4,0,4,0,1,X V Q F H G B L J M P D K C T S W R N Z,607f367c60fe33f8f18816d1,25,Kobieta,2022-06-11_09h12.54.267,task,2021.1.4,Win32,60.10699044,6299f149e92ead563fba08ef,62a43f005d2a26aeb3938bdd,,,,,,,,,,,,,,,,,,,,,,,,,,,,,,,,,,,,,,,,,,,,,,,,,,,,,,,,,,,,,,,,,,,,,,,,,,,,,,,,,,,,,,,,,,,,,,,,,,,,,
,,,,,,,,,,,,607f367c60fe33f8f18816d1,25,Kobieta,2022-06-11_09h12.54.267,task,2021.1.4,Win32,60.10699044,6299f149e92ead563fba08ef,62a43f005d2a26aeb3938bdd,wkrxl,"[""w"",""k"",""r"",""x"",""l""]","[1.7543000000715239,2.3237000000476797,2.78140000009536,3.3077000000476744,3.713400000095362,3.9923000000715234]",1,WKRXL,9,0,9,0,1,,,,,,,,,,,,,,,,,,,,,,,,,,,,,,,,,,,,,,,,,,,,,,,,,,,,,,,,,,,,,,,,,,,,,,,,,,,,,,,,,,,,,,,,,,,
,,,,,,0,0,0,0,1,X V Q F H G B L J M P D K C T S W R N Z,607f367c60fe33f8f18816d1,25,Kobieta,2022-06-11_09h12.54.267,task,2021.1.4,Win32,60.10699044,6299f149e92ead563fba08ef,62a43f005d2a26aeb3938bdd,,,,,,,,,,,,,,,,,,,,,,,,,,,,,,,,,,,,,,,,,,,,,,,,,,,,,,,,,,,,,,,,,,,,,,,,,,,,,,,,,,,,,,,,,,,,,,,,,,,,,
,,,,,,1,0,1,0,1,X V Q F H G B L J M P D K C T S W R N Z,607f367c60fe33f8f18816d1,25,Kobieta,2022-06-11_09h12.54.267,task,2021.1.4,Win32,60.10699044,6299f149e92ead563fba08ef,62a43f005d2a26aeb3938bdd,,,,,,,,,,,,,,,,,,,,,,,,,,,,,,,,,,,,,,,,,,,,,,,,,,,,,,,,,,,,,,,,,,,,,,,,,,,,,,,,,,,,,,,,,,,,,,,,,,,,,
,,,,,,2,0,2,0,1,X V Q F H G B L J M P D K C T S W R N Z,607f367c60fe33f8f18816d1,25,Kobieta,2022-06-11_09h12.54.267,task,2021.1.4,Win32,60.10699044,6299f149e92ead563fba08ef,62a43f005d2a26aeb3938bdd,,,,,,,,,,,,,,,,,,,,,,,,,,,,,,,,,,,,,,,,,,,,,,,,,,,,,,,,,,,,,,,,,,,,,,,,,,,,,,,,,,,,,,,,,,,,,,,,,,,,,
,,,,,,3,0,3,0,1,X V Q F H G B L J M P D K C T S W R N Z,607f367c60fe33f8f18816d1,25,Kobieta,2022-06-11_09h12.54.267,task,2021.1.4,Win32,60.10699044,6299f149e92ead563fba08ef,62a43f005d2a26aeb3938bdd,,,,,,,,,,,,,,,,,,,,,,,,,,,,,,,,,,,,,,,,,,,,,,,,,,,,,,,,,,,,,,,,,,,,,,,,,,,,,,,,,,,,,,,,,,,,,,,,,,,,,
,,,,,,4,0,4,0,1,X V Q F H G B L J M P D K C T S W R N Z,607f367c60fe33f8f18816d1,25,Kobieta,2022-06-11_09h12.54.267,task,2021.1.4,Win32,60.10699044,6299f149e92ead563fba08ef,62a43f005d2a26aeb3938bdd,,,,,,,,,,,,,,,,,,,,,,,,,,,,,,,,,,,,,,,,,,,,,,,,,,,,,,,,,,,,,,,,,,,,,,,,,,,,,,,,,,,,,,,,,,,,,,,,,,,,,
,,,,,,5,0,5,0,1,X V Q F H G B L J M P D K C T S W R N Z,607f367c60fe33f8f18816d1,25,Kobieta,2022-06-11_09h12.54.267,task,2021.1.4,Win32,60.10699044,6299f149e92ead563fba08ef,62a43f005d2a26aeb3938bdd,,,,,,,,,,,,,,,,,,,,,,,,,,,,,,,,,,,,,,,,,,,,,,,,,,,,,,,,,,,,,,,,,,,,,,,,,,,,,,,,,,,,,,,,,,,,,,,,,,,,,
,,,,,,,,,,,,607f367c60fe33f8f18816d1,25,Kobieta,2022-06-11_09h12.54.267,task,2021.1.4,Win32,60.10699044,6299f149e92ead563fba08ef,62a43f005d2a26aeb3938bdd,xmkpwk,"[""x"",""m"",""k"",""p"",""w"",""k""]","[0.8517999999523198,1.4043999999761638,1.772299999952324,2.156000000000006,2.6202000000476886,3.254000000000005,3.4825000000000017]",1,XMKPWK,10,0,10,0,1,,,,,,,,,,,,,,,,,,,,,,,,,,,,,,,,,,,,,,,,,,,,,,,,,,,,,,,,,,,,,,,,,,,,,,,,,,,,,,,,,,,,,,,,,,,
,,,,,,0,0,0,0,1,X V Q F H G B L J M P D K C T S W R N Z,607f367c60fe33f8f18816d1,25,Kobieta,2022-06-11_09h12.54.267,task,2021.1.4,Win32,60.10699044,6299f149e92ead563fba08ef,62a43f005d2a26aeb3938bdd,,,,,,,,,,,,,,,,,,,,,,,,,,,,,,,,,,,,,,,,,,,,,,,,,,,,,,,,,,,,,,,,,,,,,,,,,,,,,,,,,,,,,,,,,,,,,,,,,,,,,
,,,,,,1,0,1,0,1,X V Q F H G B L J M P D K C T S W R N Z,607f367c60fe33f8f18816d1,25,Kobieta,2022-06-11_09h12.54.267,task,2021.1.4,Win32,60.10699044,6299f149e92ead563fba08ef,62a43f005d2a26aeb3938bdd,,,,,,,,,,,,,,,,,,,,,,,,,,,,,,,,,,,,,,,,,,,,,,,,,,,,,,,,,,,,,,,,,,,,,,,,,,,,,,,,,,,,,,,,,,,,,,,,,,,,,
,,,,,,2,0,2,0,1,X V Q F H G B L J M P D K C T S W R N Z,607f367c60fe33f8f18816d1,25,Kobieta,2022-06-11_09h12.54.267,task,2021.1.4,Win32,60.10699044,6299f149e92ead563fba08ef,62a43f005d2a26aeb3938bdd,,,,,,,,,,,,,,,,,,,,,,,,,,,,,,,,,,,,,,,,,,,,,,,,,,,,,,,,,,,,,,,,,,,,,,,,,,,,,,,,,,,,,,,,,,,,,,,,,,,,,
,,,,,,3,0,3,0,1,X V Q F H G B L J M P D K C T S W R N Z,607f367c60fe33f8f18816d1,25,Kobieta,2022-06-11_09h12.54.267,task,2021.1.4,Win32,60.10699044,6299f149e92ead563fba08ef,62a43f005d2a26aeb3938bdd,,,,,,,,,,,,,,,,,,,,,,,,,,,,,,,,,,,,,,,,,,,,,,,,,,,,,,,,,,,,,,,,,,,,,,,,,,,,,,,,,,,,,,,,,,,,,,,,,,,,,
,,,,,,4,0,4,0,1,X V Q F H G B L J M P D K C T S W R N Z,607f367c60fe33f8f18816d1,25,Kobieta,2022-06-11_09h12.54.267,task,2021.1.4,Win32,60.10699044,6299f149e92ead563fba08ef,62a43f005d2a26aeb3938bdd,,,,,,,,,,,,,,,,,,,,,,,,,,,,,,,,,,,,,,,,,,,,,,,,,,,,,,,,,,,,,,,,,,,,,,,,,,,,,,,,,,,,,,,,,,,,,,,,,,,,,
,,,,,,5,0,5,0,1,X V Q F H G B L J M P D K C T S W R N Z,607f367c60fe33f8f18816d1,25,Kobieta,2022-06-11_09h12.54.267,task,2021.1.4,Win32,60.10699044,6299f149e92ead563fba08ef,62a43f005d2a26aeb3938bdd,,,,,,,,,,,,,,,,,,,,,,,,,,,,,,,,,,,,,,,,,,,,,,,,,,,,,,,,,,,,,,,,,,,,,,,,,,,,,,,,,,,,,,,,,,,,,,,,,,,,,
,,,,,,,,,,,,607f367c60fe33f8f18816d1,25,Kobieta,2022-06-11_09h12.54.267,task,2021.1.4,Win32,60.10699044,6299f149e92ead563fba08ef,62a43f005d2a26aeb3938bdd,jftwcc,"[""j"",""f"",""t"",""w"",""c"",""c""]","[1.3819999999999908,1.8984999999999985,2.231499999999997,2.9581999999284676,3.302699999928464,3.472799999952315,3.6541999999284656]",1,JFTWCC,11,0,11,0,1,,,,,,,,,,,,,,,,,,,,,,,,,,,,,,,,,,,,,,,,,,,,,,,,,,,,,,,,,,,,,,,,,,,,,,,,,,,,,,,,,,,,,,,,,,,
,,,,,,0,0,0,0,1,X V Q F H G B L J M P D K C T S W R N Z,607f367c60fe33f8f18816d1,25,Kobieta,2022-06-11_09h12.54.267,task,2021.1.4,Win32,60.10699044,6299f149e92ead563fba08ef,62a43f005d2a26aeb3938bdd,,,,,,,,,,,,,,,,,,,,,,,,,,,,,,,,,,,,,,,,,,,,,,,,,,,,,,,,,,,,,,,,,,,,,,,,,,,,,,,,,,,,,,,,,,,,,,,,,,,,,
,,,,,,1,0,1,0,1,X V Q F H G B L J M P D K C T S W R N Z,607f367c60fe33f8f18816d1,25,Kobieta,2022-06-11_09h12.54.267,task,2021.1.4,Win32,60.10699044,6299f149e92ead563fba08ef,62a43f005d2a26aeb3938bdd,,,,,,,,,,,,,,,,,,,,,,,,,,,,,,,,,,,,,,,,,,,,,,,,,,,,,,,,,,,,,,,,,,,,,,,,,,,,,,,,,,,,,,,,,,,,,,,,,,,,,
,,,,,,2,0,2,0,1,X V Q F H G B L J M P D K C T S W R N Z,607f367c60fe33f8f18816d1,25,Kobieta,2022-06-11_09h12.54.267,task,2021.1.4,Win32,60.10699044,6299f149e92ead563fba08ef,62a43f005d2a26aeb3938bdd,,,,,,,,,,,,,,,,,,,,,,,,,,,,,,,,,,,,,,,,,,,,,,,,,,,,,,,,,,,,,,,,,,,,,,,,,,,,,,,,,,,,,,,,,,,,,,,,,,,,,
,,,,,,3,0,3,0,1,X V Q F H G B L J M P D K C T S W R N Z,607f367c60fe33f8f18816d1,25,Kobieta,2022-06-11_09h12.54.267,task,2021.1.4,Win32,60.10699044,6299f149e92ead563fba08ef,62a43f005d2a26aeb3938bdd,,,,,,,,,,,,,,,,,,,,,,,,,,,,,,,,,,,,,,,,,,,,,,,,,,,,,,,,,,,,,,,,,,,,,,,,,,,,,,,,,,,,,,,,,,,,,,,,,,,,,
,,,,,,4,0,4,0,1,X V Q F H G B L J M P D K C T S W R N Z,607f367c60fe33f8f18816d1,25,Kobieta,2022-06-11_09h12.54.267,task,2021.1.4,Win32,60.10699044,6299f149e92ead563fba08ef,62a43f005d2a26aeb3938bdd,,,,,,,,,,,,,,,,,,,,,,,,,,,,,,,,,,,,,,,,,,,,,,,,,,,,,,,,,,,,,,,,,,,,,,,,,,,,,,,,,,,,,,,,,,,,,,,,,,,,,
,,,,,,5,0,5,0,1,X V Q F H G B L J M P D K C T S W R N Z,607f367c60fe33f8f18816d1,25,Kobieta,2022-06-11_09h12.54.267,task,2021.1.4,Win32,60.10699044,6299f149e92ead563fba08ef,62a43f005d2a26aeb3938bdd,,,,,,,,,,,,,,,,,,,,,,,,,,,,,,,,,,,,,,,,,,,,,,,,,,,,,,,,,,,,,,,,,,,,,,,,,,,,,,,,,,,,,,,,,,,,,,,,,,,,,
,,,,,,6,0,6,0,1,X V Q F H G B L J M P D K C T S W R N Z,607f367c60fe33f8f18816d1,25,Kobieta,2022-06-11_09h12.54.267,task,2021.1.4,Win32,60.10699044,6299f149e92ead563fba08ef,62a43f005d2a26aeb3938bdd,,,,,,,,,,,,,,,,,,,,,,,,,,,,,,,,,,,,,,,,,,,,,,,,,,,,,,,,,,,,,,,,,,,,,,,,,,,,,,,,,,,,,,,,,,,,,,,,,,,,,
,,,,,,,,,,,,607f367c60fe33f8f18816d1,25,Kobieta,2022-06-11_09h12.54.267,task,2021.1.4,Win32,60.10699044,6299f149e92ead563fba08ef,62a43f005d2a26aeb3938bdd,bqcxphj,"[""b"",""q"",""c"",""x"",""p"",""h"",""j""]","[1.6129999999999995,2.853200000047707,3.4207000000477024,4.320000000000022,5.276899999976166,6.383700000047696,8.032299999952329,8.210899999976164]",0,BQCXGHJ,12,0,12,0,1,,,,,,,,,,,,,,,,,,,,,,,,,,,,,,,,,,,,,,,,,,,,,,,,,,,,,,,,,,,,,,,,,,,,,,,,,,,,,,,,,,,,,,,,,,,
,,,,,,0,0,0,0,1,X V Q F H G B L J M P D K C T S W R N Z,607f367c60fe33f8f18816d1,25,Kobieta,2022-06-11_09h12.54.267,task,2021.1.4,Win32,60.10699044,6299f149e92ead563fba08ef,62a43f005d2a26aeb3938bdd,,,,,,,,,,,,,,,,,,,,,,,,,,,,,,,,,,,,,,,,,,,,,,,,,,,,,,,,,,,,,,,,,,,,,,,,,,,,,,,,,,,,,,,,,,,,,,,,,,,,,
,,,,,,1,0,1,0,1,X V Q F H G B L J M P D K C T S W R N Z,607f367c60fe33f8f18816d1,25,Kobieta,2022-06-11_09h12.54.267,task,2021.1.4,Win32,60.10699044,6299f149e92ead563fba08ef,62a43f005d2a26aeb3938bdd,,,,,,,,,,,,,,,,,,,,,,,,,,,,,,,,,,,,,,,,,,,,,,,,,,,,,,,,,,,,,,,,,,,,,,,,,,,,,,,,,,,,,,,,,,,,,,,,,,,,,
,,,,,,2,0,2,0,1,X V Q F H G B L J M P D K C T S W R N Z,607f367c60fe33f8f18816d1,25,Kobieta,2022-06-11_09h12.54.267,task,2021.1.4,Win32,60.10699044,6299f149e92ead563fba08ef,62a43f005d2a26aeb3938bdd,,,,,,,,,,,,,,,,,,,,,,,,,,,,,,,,,,,,,,,,,,,,,,,,,,,,,,,,,,,,,,,,,,,,,,,,,,,,,,,,,,,,,,,,,,,,,,,,,,,,,
,,,,,,3,0,3,0,1,X V Q F H G B L J M P D K C T S W R N Z,607f367c60fe33f8f18816d1,25,Kobieta,2022-06-11_09h12.54.267,task,2021.1.4,Win32,60.10699044,6299f149e92ead563fba08ef,62a43f005d2a26aeb3938bdd,,,,,,,,,,,,,,,,,,,,,,,,,,,,,,,,,,,,,,,,,,,,,,,,,,,,,,,,,,,,,,,,,,,,,,,,,,,,,,,,,,,,,,,,,,,,,,,,,,,,,
,,,,,,4,0,4,0,1,X V Q F H G B L J M P D K C T S W R N Z,607f367c60fe33f8f18816d1,25,Kobieta,2022-06-11_09h12.54.267,task,2021.1.4,Win32,60.10699044,6299f149e92ead563fba08ef,62a43f005d2a26aeb3938bdd,,,,,,,,,,,,,,,,,,,,,,,,,,,,,,,,,,,,,,,,,,,,,,,,,,,,,,,,,,,,,,,,,,,,,,,,,,,,,,,,,,,,,,,,,,,,,,,,,,,,,
,,,,,,5,0,5,0,1,X V Q F H G B L J M P D K C T S W R N Z,607f367c60fe33f8f18816d1,25,Kobieta,2022-06-11_09h12.54.267,task,2021.1.4,Win32,60.10699044,6299f149e92ead563fba08ef,62a43f005d2a26aeb3938bdd,,,,,,,,,,,,,,,,,,,,,,,,,,,,,,,,,,,,,,,,,,,,,,,,,,,,,,,,,,,,,,,,,,,,,,,,,,,,,,,,,,,,,,,,,,,,,,,,,,,,,
,,,,,,6,0,6,0,1,X V Q F H G B L J M P D K C T S W R N Z,607f367c60fe33f8f18816d1,25,Kobieta,2022-06-11_09h12.54.267,task,2021.1.4,Win32,60.10699044,6299f149e92ead563fba08ef,62a43f005d2a26aeb3938bdd,,,,,,,,,,,,,,,,,,,,,,,,,,,,,,,,,,,,,,,,,,,,,,,,,,,,,,,,,,,,,,,,,,,,,,,,,,,,,,,,,,,,,,,,,,,,,,,,,,,,,
,,,,,,,,,,,,607f367c60fe33f8f18816d1,25,Kobieta,2022-06-11_09h12.54.267,task,2021.1.4,Win32,60.10699044,6299f149e92ead563fba08ef,62a43f005d2a26aeb3938bdd,pmvtmh,"[""p"",""m"",""v"",""t"",""m"",""h""]","[1.541100000023846,1.9827999999523058,2.6314999999999884,2.9423999999761463,3.2887999999523174,4.138100000023826,4.652299999952305]",0,PMVTMHP,13,0,13,0,1,,,,,,,,,,,,,,,,,,,,,,,,,,,,,,,,,,,,,,,,,,,,,,,,,,,,,,,,,,,,,,,,,,,,,,,,,,,,,,,,,,,,,,,,,,,
,,,,,,0,0,0,0,1,X V Q F H G B L J M P D K C T S W R N Z,607f367c60fe33f8f18816d1,25,Kobieta,2022-06-11_09h12.54.267,task,2021.1.4,Win32,60.10699044,6299f149e92ead563fba08ef,62a43f005d2a26aeb3938bdd,,,,,,,,,,,,,,,,,,,,,,,,,,,,,,,,,,,,,,,,,,,,,,,,,,,,,,,,,,,,,,,,,,,,,,,,,,,,,,,,,,,,,,,,,,,,,,,,,,,,,
,,,,,,1,0,1,0,1,X V Q F H G B L J M P D K C T S W R N Z,607f367c60fe33f8f18816d1,25,Kobieta,2022-06-11_09h12.54.267,task,2021.1.4,Win32,60.10699044,6299f149e92ead563fba08ef,62a43f005d2a26aeb3938bdd,,,,,,,,,,,,,,,,,,,,,,,,,,,,,,,,,,,,,,,,,,,,,,,,,,,,,,,,,,,,,,,,,,,,,,,,,,,,,,,,,,,,,,,,,,,,,,,,,,,,,
,,,,,,2,0,2,0,1,X V Q F H G B L J M P D K C T S W R N Z,607f367c60fe33f8f18816d1,25,Kobieta,2022-06-11_09h12.54.267,task,2021.1.4,Win32,60.10699044,6299f149e92ead563fba08ef,62a43f005d2a26aeb3938bdd,,,,,,,,,,,,,,,,,,,,,,,,,,,,,,,,,,,,,,,,,,,,,,,,,,,,,,,,,,,,,,,,,,,,,,,,,,,,,,,,,,,,,,,,,,,,,,,,,,,,,
,,,,,,3,0,3,0,1,X V Q F H G B L J M P D K C T S W R N Z,607f367c60fe33f8f18816d1,25,Kobieta,2022-06-11_09h12.54.267,task,2021.1.4,Win32,60.10699044,6299f149e92ead563fba08ef,62a43f005d2a26aeb3938bdd,,,,,,,,,,,,,,,,,,,,,,,,,,,,,,,,,,,,,,,,,,,,,,,,,,,,,,,,,,,,,,,,,,,,,,,,,,,,,,,,,,,,,,,,,,,,,,,,,,,,,
,,,,,,4,0,4,0,1,X V Q F H G B L J M P D K C T S W R N Z,607f367c60fe33f8f18816d1,25,Kobieta,2022-06-11_09h12.54.267,task,2021.1.4,Win32,60.10699044,6299f149e92ead563fba08ef,62a43f005d2a26aeb3938bdd,,,,,,,,,,,,,,,,,,,,,,,,,,,,,,,,,,,,,,,,,,,,,,,,,,,,,,,,,,,,,,,,,,,,,,,,,,,,,,,,,,,,,,,,,,,,,,,,,,,,,
,,,,,,5,0,5,0,1,X V Q F H G B L J M P D K C T S W R N Z,607f367c60fe33f8f18816d1,25,Kobieta,2022-06-11_09h12.54.267,task,2021.1.4,Win32,60.10699044,6299f149e92ead563fba08ef,62a43f005d2a26aeb3938bdd,,,,,,,,,,,,,,,,,,,,,,,,,,,,,,,,,,,,,,,,,,,,,,,,,,,,,,,,,,,,,,,,,,,,,,,,,,,,,,,,,,,,,,,,,,,,,,,,,,,,,
,,,,,,6,0,6,0,1,X V Q F H G B L J M P D K C T S W R N Z,607f367c60fe33f8f18816d1,25,Kobieta,2022-06-11_09h12.54.267,task,2021.1.4,Win32,60.10699044,6299f149e92ead563fba08ef,62a43f005d2a26aeb3938bdd,,,,,,,,,,,,,,,,,,,,,,,,,,,,,,,,,,,,,,,,,,,,,,,,,,,,,,,,,,,,,,,,,,,,,,,,,,,,,,,,,,,,,,,,,,,,,,,,,,,,,
,,,,,,,,,,,,607f367c60fe33f8f18816d1,25,Kobieta,2022-06-11_09h12.54.267,task,2021.1.4,Win32,60.10699044,6299f149e92ead563fba08ef,62a43f005d2a26aeb3938bdd,jgmfplh,"[""j"",""g"",""m"",""f"",""p"",""l"",""h""]","[0.9988999999761461,1.65329999995231,1.9841000000238296,2.9638999999761495,3.4523999999761656,3.894100000023826,5.408500000000004,6.27620000004768]",0,JGMFPLG,14,0,14,0,1,,,,,,,,,,,,,,,,,,,,,,,,,,,,,,,,,,,,,,,,,,,,,,,,,,,,,,,,,,,,,,,,,,,,,,,,,,,,,,,,,,,,,,,,,,,
,,,,,,,,,,,,607f367c60fe33f8f18816d1,25,Kobieta,2022-06-11_09h12.54.267,task,2021.1.4,Win32,60.10699044,6299f149e92ead563fba08ef,62a43f005d2a26aeb3938bdd,,,,,,,,,,,space,7.1277,3,"[""3""]",1,[3.2086000000238357],[3.2086000000238357],0,0,0,3,1,Practice,4,(8/4) + 1,3,,,,,,,,,,,,,,,,,,,,,,,,,,,,,,,,,,,,,,,,,,,,,,,,,,,,,,,,,,,,,,,,,,,,,,,,,,,
,,,,,,,,,,,,607f367c60fe33f8f18816d1,25,Kobieta,2022-06-11_09h12.54.267,task,2021.1.4,Win32,60.10699044,6299f149e92ead563fba08ef,62a43f005d2a26aeb3938bdd,,,,,,,,,,,,,9,"[""9""]",1,[3.601300000071518],"[3.2086000000238357,3.601300000071518]",0,1,1,9,1,Practice,10,(20/2) - 1,9,,,,,,,,,,,,,,,,,,,,,,,,,,,,,,,,,,,,,,,,,,,,,,,,,,,,,,,,,,,,,,,,,,,,,,,,,,,
,,,,,,,,,,,,607f367c60fe33f8f18816d1,25,Kobieta,2022-06-11_09h12.54.267,task,2021.1.4,Win32,60.10699044,6299f149e92ead563fba08ef,62a43f005d2a26aeb3938bdd,,,,,,,,,,,,,6,"[""6""]",1,[2.4935000000000116],"[3.2086000000238357,3.601300000071518,2.4935000000000116]",0,2,2,6,1,Practice,7,(25/5) + 1,6,,,,,,,,,,,,,,,,,,,,,,,,,,,,,,,,,,,,,,,,,,,,,,,,,,,,,,,,,,,,,,,,,,,,,,,,,,,
,,,,,,,,,,,,607f367c60fe33f8f18816d1,25,Kobieta,2022-06-11_09h12.54.267,task,2021.1.4,Win32,60.10699044,6299f149e92ead563fba08ef,62a43f005d2a26aeb3938bdd,,,,,,,,,,,,,1,"[""1""]",1,[2.1716000000238296],"[3.2086000000238357,3.601300000071518,2.4935000000000116,2.1716000000238296]",0,3,3,1,1,Practice,2,(4x4) - 15,1,,,,,,,,,,,,,,,,,,,,,,,,,,,,,,,,,,,,,,,,,,,,,,,,,,,,,,,,,,,,,,,,,,,,,,,,,,,
,,,,,,,,,,,,607f367c60fe33f8f18816d1,25,Kobieta,2022-06-11_09h12.54.267,task,2021.1.4,Win32,60.10699044,6299f149e92ead563fba08ef,62a43f005d2a26aeb3938bdd,,,,,,,,,,,,,6,"[""6""]",0,[4.385699999928477],"[3.2086000000238357,3.601300000071518,2.4935000000000116,2.1716000000238296,4.385699999928477]",0,4,4,4,1,Practice,5,(2x6) - 8,4,,,,,,,,,,,,,,,,,,,,,,,,,,,,,,,,,,,,,,,,,,,,,,,,,,,,,,,,,,,,,,,,,,,,,,,,,,,
,,,,,,,,,,,,607f367c60fe33f8f18816d1,25,Kobieta,2022-06-11_09h12.54.267,task,2021.1.4,Win32,60.10699044,6299f149e92ead563fba08ef,62a43f005d2a26aeb3938bdd,,,,,,,,,,,,,8,"[""8""]",1,[3.312999999999988],"[3.2086000000238357,3.601300000071518,2.4935000000000116,2.1716000000238296,4.385699999928477,3.312999999999988]",0,5,5,8,1,Practice,9,(3x3) - 1,8,,,,,,,,,,,,,,,,,,,,,,,,,,,,,,,,,,,,,,,,,,,,,,,,,,,,,,,,,,,,,,,,,,,,,,,,,,,
,,,,,,,,,,,,607f367c60fe33f8f18816d1,25,Kobieta,2022-06-11_09h12.54.267,task,2021.1.4,Win32,60.10699044,6299f149e92ead563fba08ef,62a43f005d2a26aeb3938bdd,,,,,,,,,,,,,0,"[""0""]",1,[2.370799999952311],"[3.2086000000238357,3.601300000071518,2.4935000000000116,2.1716000000238296,4.385699999928477,3.312999999999988,2.370799999952311]",0,6,6,0,1,Practice,1,(3x3) -  9,0,,,,,,,,,,,,,,,,,,,,,,,,,,,,,,,,,,,,,,,,,,,,,,,,,,,,,,,,,,,,,,,,,,,,,,,,,,,
,,,,,,,,,,,,607f367c60fe33f8f18816d1,25,Kobieta,2022-06-11_09h12.54.267,task,2021.1.4,Win32,60.10699044,6299f149e92ead563fba08ef,62a43f005d2a26aeb3938bdd,,,,,,,,,,,,,2,"[""2""]",1,[2.631600000023866],"[3.2086000000238357,3.601300000071518,2.4935000000000116,2.1716000000238296,4.385699999928477,3.312999999999988,2.370799999952311,2.631600000023866]",0,7,7,2,1,Practice,3,(4x4) - 14,2,,,,,,,,,,,,,,,,,,,,,,,,,,,,,,,,,,,,,,,,,,,,,,,,,,,,,,,,,,,,,,,,,,,,,,,,,,,
,,,,,,,,,,,,607f367c60fe33f8f18816d1,25,Kobieta,2022-06-11_09h12.54.267,task,2021.1.4,Win32,60.10699044,6299f149e92ead563fba08ef,62a43f005d2a26aeb3938bdd,,,,,,,,,,,,,5,"[""5""]",1,[6.050899999976139],"[3.2086000000238357,3.601300000071518,2.4935000000000116,2.1716000000238296,4.385699999928477,3.312999999999988,2.370799999952311,2.631600000023866,6.050899999976139]",0,8,8,5,1,Practice,6,(4/2) + 3,5,,,,,,,,,,,,,,,,,,,,,,,,,,,,,,,,,,,,,,,,,,,,,,,,,,,,,,,,,,,,,,,,,,,,,,,,,,,
,,,,,,,,,,,,607f367c60fe33f8f18816d1,25,Kobieta,2022-06-11_09h12.54.267,task,2021.1.4,Win32,60.10699044,6299f149e92ead563fba08ef,62a43f005d2a26aeb3938bdd,,,,,,,,,,,,,7,"[""7""]",1,[3.706599999904654],"[3.2086000000238357,3.601300000071518,2.4935000000000116,2.1716000000238296,4.385699999928477,3.312999999999988,2.370799999952311,2.631600000023866,6.050899999976139,3.706599999904654]",0,9,9,7,1,Practice,8,(5x5) - 18,7,,,,,,,,,,,,,,,,,,,,,,,,,,,,,,,,,,,,,,,,,,,,,,,,,,,,,,,,,,,,,,,,,,,,,,,,,,,
,,,,,,,,,,,,607f367c60fe33f8f18816d1,25,Kobieta,2022-06-11_09h12.54.267,task,2021.1.4,Win32,60.10699044,6299f149e92ead563fba08ef,62a43f005d2a26aeb3938bdd,,,,,,,,,,,,,,,,,,,,,,,,,,,0.9,33.9336,2.26224,24.95188717,1.289751582,5.589799083,space,1.1351,0,0,0,0,1,,,,,,,,,,,,,,,,,,,,,,,,,,,,,,,,,,,,,,,,,,,,,,,,,,,,,,,,,,,,,,
,,,,,,,,,,,,607f367c60fe33f8f18816d1,25,Kobieta,2022-06-11_09h12.54.267,task,2021.1.4,Win32,60.10699044,6299f149e92ead563fba08ef,62a43f005d2a26aeb3938bdd,,,,,,,,,,,,,,,,,,,,,,,Practice,5,(2x6) - 8,4,,,,,,,,,,,,,,space,10.8504,,0,0,0,0,0,4,1,,,,,,,,,,,,,,,,,,,,,,,,,,,,,,,,,,,,,,,,,,,,,,,,,,,,
,,,,,,,,,,,,607f367c60fe33f8f18816d1,25,Kobieta,2022-06-11_09h12.54.267,task,2021.1.4,Win32,60.10699044,6299f149e92ead563fba08ef,62a43f005d2a26aeb3938bdd,,,,,,,,,,,,,7,,,,,,,,,,Practice,8,(5x5) - 18,7,,,,,,,,,,,,,,,,"[""7""]",1,1,0,1,1,7,1,[2.2722000000476896],,,,,,,,,,,,,,,,,,,,,,,,,,,,,,,,,,,,,,,,,,,,,,,,,,,
,,,,,,,,,,,X V Q F H G B L J M P D K C T S W R N Z,607f367c60fe33f8f18816d1,25,Kobieta,2022-06-11_09h12.54.267,task,2021.1.4,Win32,60.10699044,6299f149e92ead563fba08ef,62a43f005d2a26aeb3938bdd,,,,,,,,,,,,,,,,,,,,,,,,,,,,,,,,,,,,,,,,,,,,,,,,,,,0,0,0,0,1,,,,,,,,,,,,,,,,,,,,,,,,,,,,,,,,,,,,,,,,,,,,,,
,,,,,,,,,,,,607f367c60fe33f8f18816d1,25,Kobieta,2022-06-11_09h12.54.267,task,2021.1.4,Win32,60.10699044,6299f149e92ead563fba08ef,62a43f005d2a26aeb3938bdd,,,,,,,,,,,,,1,,,,,,,,,,Practice,2,(4x4) - 15,1,,,,,,,,,,,,,,,,"[""1""]",1,1,0,0,0,1,1,[2.2606999999284767],,,,,,,,,,,,,,,,,,,,,,,,,,,,,,,,,,,,,,,,,,,,,,,,,,,
,,,,,,,,,,,X V Q F H G B L J M P D K C T S W R N Z,607f367c60fe33f8f18816d1,25,Kobieta,2022-06-11_09h12.54.267,task,2021.1.4,Win32,60.10699044,6299f149e92ead563fba08ef,62a43f005d2a26aeb3938bdd,,,,,,,,,,,,,,,,,,,,,,,,,,,,,,,,,,,,,,,,,,,,,,,,,,,1,0,1,0,1,,,,,,,,,,,,,,,,,,,,,,,,,,,,,,,,,,,,,,,,,,,,,,
,,,,,,,,,,,,607f367c60fe33f8f18816d1,25,Kobieta,2022-06-11_09h12.54.267,task,2021.1.4,Win32,60.10699044,6299f149e92ead563fba08ef,62a43f005d2a26aeb3938bdd,,,,,,,,,,,,,,,,,,,,,,,,,,,,,,,,,,,,,,,,,,,,,,,,,,,,,,,,zg,"[""z"",""g""]",0,"[1.9783999999761477,2.5262000000477087,2.921399999976188]",1,0,0,0,0,1,,,,,,,,,,,,,,,,,,,,,,,,,,,,,,,,,,,,
,,,,,,,,,,,,607f367c60fe33f8f18816d1,25,Kobieta,2022-06-11_09h12.54.267,task,2021.1.4,Win32,60.10699044,6299f149e92ead563fba08ef,62a43f005d2a26aeb3938bdd,,,,,,,,,,,,,9,,,,,,,,,,Practice,10,(20/2) - 1,9,,,,,,,,,,,,,,,,"[""9""]",1,1,0,0,0,9,1,[2.9706000000238646],,,,,,,,,,,,,,,,,,,,,,,,,,,,,,,,,,,,,,,,,,,,,,,,,,,
,,,,,,,,,,,X V Q F H G B L J M P D K C T S W R N Z,607f367c60fe33f8f18816d1,25,Kobieta,2022-06-11_09h12.54.267,task,2021.1.4,Win32,60.10699044,6299f149e92ead563fba08ef,62a43f005d2a26aeb3938bdd,,,,,,,,,,,,,,,,,,,,,,,,,,,,,,,,,,,,,,,,,,,,,,,,,,,0,0,0,0,1,,,,,,,,,,,,,,,,,,,,,,,,,,,,,,,,,,,,,,,,,,,,,,
,,,,,,,,,,,,607f367c60fe33f8f18816d1,25,Kobieta,2022-06-11_09h12.54.267,task,2021.1.4,Win32,60.10699044,6299f149e92ead563fba08ef,62a43f005d2a26aeb3938bdd,,,,,,,,,,,,,0,,,,,,,,,,Practice,1,(3x3) -  9,0,,,,,,,,,,,,,,,,"[""0""]",1,1,0,0,0,0,1,[2.2443999999761104],,,,,,,,,,,,,,,,,,,,,,,,,,,,,,,,,,,,,,,,,,,,,,,,,,,
,,,,,,,,,,,X V Q F H G B L J M P D K C T S W R N Z,607f367c60fe33f8f18816d1,25,Kobieta,2022-06-11_09h12.54.267,task,2021.1.4,Win32,60.10699044,6299f149e92ead563fba08ef,62a43f005d2a26aeb3938bdd,,,,,,,,,,,,,,,,,,,,,,,,,,,,,,,,,,,,,,,,,,,,,,,,,,,1,0,1,0,1,,,,,,,,,,,,,,,,,,,,,,,,,,,,,,,,,,,,,,,,,,,,,,
,,,,,,,,,,,,607f367c60fe33f8f18816d1,25,Kobieta,2022-06-11_09h12.54.267,task,2021.1.4,Win32,60.10699044,6299f149e92ead563fba08ef,62a43f005d2a26aeb3938bdd,,,,,,,,,,,,,,,,,,,,,,,,,,,,,,,,,,,,,,,,,,,,,,,,,,,,,,,,qh,"[""q"",""h""]",0,"[1.3367000000476992,1.8923000000715433,2.4973000000715047]",1,1,0,1,0,1,,,,,,,,,,,,,,,,,,,,,,,,,,,,,,,,,,,,
,,,,,,,,,,,,607f367c60fe33f8f18816d1,25,Kobieta,2022-06-11_09h12.54.267,task,2021.1.4,Win32,60.10699044,6299f149e92ead563fba08ef,62a43f005d2a26aeb3938bdd,,,,,,,,,,,,,2,,,,,,,,,,Practice,3,(4x4) - 14,2,,,,,,,,,,,,,,,,"[""2""]",1,1,0,0,0,2,1,[1.6801999999285044],,,,,,,,,,,,,,,,,,,,,,,,,,,,,,,,,,,,,,,,,,,,,,,,,,,
,,,,,,,,,,,X V Q F H G B L J M P D K C T S W R N Z,607f367c60fe33f8f18816d1,25,Kobieta,2022-06-11_09h12.54.267,task,2021.1.4,Win32,60.10699044,6299f149e92ead563fba08ef,62a43f005d2a26aeb3938bdd,,,,,,,,,,,,,,,,,,,,,,,,,,,,,,,,,,,,,,,,,,,,,,,,,,,0,0,0,0,1,,,,,,,,,,,,,,,,,,,,,,,,,,,,,,,,,,,,,,,,,,,,,,
,,,,,,,,,,,,607f367c60fe33f8f18816d1,25,Kobieta,2022-06-11_09h12.54.267,task,2021.1.4,Win32,60.10699044,6299f149e92ead563fba08ef,62a43f005d2a26aeb3938bdd,,,,,,,,,,,,,6,,,,,,,,,,Practice,7,(25/5) + 1,6,,,,,,,,,,,,,,,,"[""6""]",1,1,0,0,0,6,1,[1.7466000000238182],,,,,,,,,,,,,,,,,,,,,,,,,,,,,,,,,,,,,,,,,,,,,,,,,,,
,,,,,,,,,,,X V Q F H G B L J M P D K C T S W R N Z,607f367c60fe33f8f18816d1,25,Kobieta,2022-06-11_09h12.54.267,task,2021.1.4,Win32,60.10699044,6299f149e92ead563fba08ef,62a43f005d2a26aeb3938bdd,,,,,,,,,,,,,,,,,,,,,,,,,,,,,,,,,,,,,,,,,,,,,,,,,,,1,0,1,0,1,,,,,,,,,,,,,,,,,,,,,,,,,,,,,,,,,,,,,,,,,,,,,,
,,,,,,,,,,,,607f367c60fe33f8f18816d1,25,Kobieta,2022-06-11_09h12.54.267,task,2021.1.4,Win32,60.10699044,6299f149e92ead563fba08ef,62a43f005d2a26aeb3938bdd,,,,,,,,,,,,,,,,,,,,,,,,,,,,,,,,,,,,,,,,,,,,,,,,,,,,,,,,wv,"[""w"",""v""]",0,"[1.6663999999761359,2.1482999999523145,2.365799999952344]",1,2,0,2,0,1,,,,,,,,,,,,,,,,,,,,,,,,,,,,,,,,,,,,
,,,,,,,,,,,,607f367c60fe33f8f18816d1,25,Kobieta,2022-06-11_09h12.54.267,task,2021.1.4,Win32,60.10699044,6299f149e92ead563fba08ef,62a43f005d2a26aeb3938bdd,,,,,,,,,,,,,5,,,,,,,,,,Task,36,(8/4) + 3,5,,,,,,,,,,,,,,,,,,1,,,,,,,,,,,,,,,,,,,,,,space,6.2797,"[""5""]",1,[2.3518999999761263],0,0,0,35,1,,,,,,,,,,,,,,,,,,,,,,,,,,
,,,,,,,,,,,X V Q F H G B L J M P D K C T S W R N Z,607f367c60fe33f8f18816d1,25,Kobieta,2022-06-11_09h12.54.267,task,2021.1.4,Win32,60.10699044,6299f149e92ead563fba08ef,62a43f005d2a26aeb3938bdd,,,,,,,,,,,,,,,,,,,,,,,,,,,,,,,,,,,,,,,,,,,,,,,,,,,,,,,,,,,,,,,,,,,,,,,,,,,,0,0,0,0,1,,,,,,,,,,,,,,,,,,,,,
,,,,,,,,,,,,607f367c60fe33f8f18816d1,25,Kobieta,2022-06-11_09h12.54.267,task,2021.1.4,Win32,60.10699044,6299f149e92ead563fba08ef,62a43f005d2a26aeb3938bdd,,,,,,,,,,,,,8,,,,,,,,,,Task,38,(4x6) - 17,7,,,,,,,,,,,,,,,,,,0,,,,,,,,,,,,,,,,,,,,,,,,"[""8""]",0,[4.165999999999997],0,0,0,37,1,,,,,,,,,,,,,,,,,,,,,,,,,,
,,,,,,,,,,,,607f367c60fe33f8f18816d1,25,Kobieta,2022-06-11_09h12.54.267,task,2021.1.4,Win32,60.10699044,6299f149e92ead563fba08ef,62a43f005d2a26aeb3938bdd,,,,,,,,,,,,,2,,,,,,,,,,Task,10,(2x5) - 8,2,,,,,,,,,,,,,,,,,,1,,,,,,,,,,,,,,,,,,,,,,,,"[""2""]",1,[4.248800000071526],0,1,1,9,1,,,,,,,,,,,,,,,,,,,,,,,,,,
,,,,,,,,,,,X V Q F H G B L J M P D K C T S W R N Z,607f367c60fe33f8f18816d1,25,Kobieta,2022-06-11_09h12.54.267,task,2021.1.4,Win32,60.10699044,6299f149e92ead563fba08ef,62a43f005d2a26aeb3938bdd,,,,,,,,,,,,,,,,,,,,,,,,,,,,,,,,,,,,,,,,,,,,,,,,,,,,,,,,,,,,,,,,,,,,,,,,,,,,1,0,1,0,1,,,,,,,,,,,,,,,,,,,,,
,,,,,,,,,,,,607f367c60fe33f8f18816d1,25,Kobieta,2022-06-11_09h12.54.267,task,2021.1.4,Win32,60.10699044,6299f149e92ead563fba08ef,62a43f005d2a26aeb3938bdd,,,,,,,,,,,,,,,,,,,,,,,,,,,,,,,,,,,,,,,,,,,,,,,,,,,,,,,,,,,,,,,,,,,,,,,,,,,,,,,,,qp,"[""q"",""p""]",0,"[3.533700000047645,4.21980000007153,4.438499999999976]",0,ZP,0,0,0,0,1,,,,,,,,,,
,,,,,,,,,,,,607f367c60fe33f8f18816d1,25,Kobieta,2022-06-11_09h12.54.267,task,2021.1.4,Win32,60.10699044,6299f149e92ead563fba08ef,62a43f005d2a26aeb3938bdd,,,,,,,,,,,,,4,,,,,,,,,,Task,28,(2x5) - 6,4,,,,,,,,,,,,,,,,,,1,,,,,,,,,,,,,,,,,,,,,,,,"[""4""]",1,[1.825600000023826],0,0,0,27,1,,,,,,,,,,,,,,,,,,,,,,,,,,
,,,,,,,,,,,X V Q F H G B L J M P D K C T S W R N Z,607f367c60fe33f8f18816d1,25,Kobieta,2022-06-11_09h12.54.267,task,2021.1.4,Win32,60.10699044,6299f149e92ead563fba08ef,62a43f005d2a26aeb3938bdd,,,,,,,,,,,,,,,,,,,,,,,,,,,,,,,,,,,,,,,,,,,,,,,,,,,,,,,,,,,,,,,,,,,,,,,,,,,,0,0,0,0,1,,,,,,,,,,,,,,,,,,,,,
,,,,,,,,,,,,607f367c60fe33f8f18816d1,25,Kobieta,2022-06-11_09h12.54.267,task,2021.1.4,Win32,60.10699044,6299f149e92ead563fba08ef,62a43f005d2a26aeb3938bdd,,,,,,,,,,,,,2,,,,,,,,,,Task,26,(2x9) - 16,2,,,,,,,,,,,,,,,,,,1,,,,,,,,,,,,,,,,,,,,,,,,"[""2""]",1,[2.6119000000953747],0,0,0,25,1,,,,,,,,,,,,,,,,,,,,,,,,,,
,,,,,,,,,,,X V Q F H G B L J M P D K C T S W R N Z,607f367c60fe33f8f18816d1,25,Kobieta,2022-06-11_09h12.54.267,task,2021.1.4,Win32,60.10699044,6299f149e92ead563fba08ef,62a43f005d2a26aeb3938bdd,,,,,,,,,,,,,,,,,,,,,,,,,,,,,,,,,,,,,,,,,,,,,,,,,,,,,,,,,,,,,,,,,,,,,,,,,,,,1,0,1,0,1,,,,,,,,,,,,,,,,,,,,,
,,,,,,,,,,,,607f367c60fe33f8f18816d1,25,Kobieta,2022-06-11_09h12.54.267,task,2021.1.4,Win32,60.10699044,6299f149e92ead563fba08ef,62a43f005d2a26aeb3938bdd,,,,,,,,,,,,,,,,,,,,,,,,,,,,,,,,,,,,,,,,,,,,,,,,,,,,,,,,,,,,,,,,,,,,,,,,,,,,,,,,,,[],0,[0.5761000000238141],0,BP,1,0,1,0,1,,,,,,,,,,
,,,,,,,,,,,,607f367c60fe33f8f18816d1,25,Kobieta,2022-06-11_09h12.54.267,task,2021.1.4,Win32,60.10699044,6299f149e92ead563fba08ef,62a43f005d2a26aeb3938bdd,,,,,,,,,,,,,,,,,,,,,,,,,,,,,,,,,,,,,,,,,,,,,,,,,,,,,,,,,,,,,,,,,,,,,,,,,,,,,,,,,,,,,,,,,,,,,0,0,0,0,0,1,,,
,,,,,,,,,,,,607f367c60fe33f8f18816d1,25,Kobieta,2022-06-11_09h12.54.267,task,2021.1.4,Win32,60.10699044,6299f149e92ead563fba08ef,62a43f005d2a26aeb3938bdd,,,,,,,,,,,,,,,,,,,,,,,,,,,,,,,,,,,,,,,,,,,,,,,,,,,,,,,,,,,,,,,,,,,,,,,,,,,,,,,,,,,,,,,,,,,,,0,1,0,1,0,1,,,
,,,,,,,,,,,,607f367c60fe33f8f18816d1,25,Kobieta,2022-06-11_09h12.54.267,task,2021.1.4,Win32,60.10699044,6299f149e92ead563fba08ef,62a43f005d2a26aeb3938bdd,,,,,,,,,,,,,,,,,,,,,,,,,,,,,,,,,,,,,,,,,,,,,,,,,,,,,,,,,,,,,,,,,,,,,,,,,,,,,,,,,,,,,,,,,,,,"[""comma""]",0,2,0,2,0,1,[1.9408000000715333],,
,,,,,,,,,,,,607f367c60fe33f8f18816d1,25,Kobieta,2022-06-11_09h12.54.267,task,2021.1.4,Win32,60.10699044,6299f149e92ead563fba08ef,62a43f005d2a26aeb3938bdd,,,,,,,,,,,,,,,,,,,,,,,,,,,,,,,,,,,,,,,,,,,,,,,,,,,,,,,,,,,,,,,,,,,,,,,,,,,,,,,,,,,,,,,,,,,,,0,3,0,3,0,1,,,
,,,,,,,,,,,,607f367c60fe33f8f18816d1,25,Kobieta,2022-06-11_09h12.54.267,task,2021.1.4,Win32,60.10699044,6299f149e92ead563fba08ef,62a43f005d2a26aeb3938bdd,,,,,,,,,,,,,,,,,,,,,,,,,,,,,,,,,,,,,,,,,,,,,,,,,,,,,,,,,,,,,,,,,,,,,,,,,,,,,,,,,,,,,,,,,,,,"[""comma""]",0,4,0,4,0,1,[0.48389999997618816],,
,,,,,,,,,,,,607f367c60fe33f8f18816d1,25,Kobieta,2022-06-11_09h12.54.267,task,2021.1.4,Win32,60.10699044,6299f149e92ead563fba08ef,62a43f005d2a26aeb3938bdd,,,,,,,,,,,,,,,,,,,,,,,,,,,,,,,,,,,,,,,,,,,,,,,,,,,,,,,,,,,,,,,,,,,,,,,,,,,,,,,,,,,,,,,,,,,,"[""comma""]",0,5,0,5,0,1,[1.6328999999761322],,
,,,,,,,,,,,,607f367c60fe33f8f18816d1,25,Kobieta,2022-06-11_09h12.54.267,task,2021.1.4,Win32,60.10699044,6299f149e92ead563fba08ef,62a43f005d2a26aeb3938bdd,,,,,,,,,,,,,,,,,,,,,,,,,,,,,,,,,,,,,,,,,,,,,,,,,,,,,,,,,,,,,,,,,,,,,,,,,,,,,,,,,,,,,,,,,,,,"[""period""]",0,6,0,6,0,1,[0.6836000000238869],,
,,,,,,,,,,,,607f367c60fe33f8f18816d1,25,Kobieta,2022-06-11_09h12.54.267,task,2021.1.4,Win32,60.10699044,6299f149e92ead563fba08ef,62a43f005d2a26aeb3938bdd,,,,,,,,,,,,,,,,,,,,,,,,,,,,,,,,,,,,,,,,,,,,,,,,,,,,,,,,,,,,,,,,,,,,,,,,,,,,,,,,,,,,,,,,,,,,"[""period""]",0,7,0,7,0,1,[1.0368999999761286],,
,,,,,,,,,,,,607f367c60fe33f8f18816d1,25,Kobieta,2022-06-11_09h12.54.267,task,2021.1.4,Win32,60.10699044,6299f149e92ead563fba08ef,62a43f005d2a26aeb3938bdd,,,,,,,,,,,,,,,,,,,,,,,,,,,,,,,,,,,,,,,,,,,,,,,,,,,,,,,,,,,,,,,,,,,,,,,,,,,,,,,,,,,,,,,,,,,,"[""period""]",0,8,0,8,0,1,[1.0376000000238719],,
,,,,,,,,,,,,607f367c60fe33f8f18816d1,25,Kobieta,2022-06-11_09h12.54.267,task,2021.1.4,Win32,60.10699044,6299f149e92ead563fba08ef,62a43f005d2a26aeb3938bdd,,,,,,,,,,,,,,,,,,,,,,,,,,,,,,,,,,,,,,,,,,,,,,,,,,,,,,,,,,,,,,,,,,,,,,,,,,,,,,,,,,,,,,,,,,,,"[""period""]",0,9,0,9,0,1,[0.8007999999523463],,
,,,,,,,,,,,,607f367c60fe33f8f18816d1,25,Kobieta,2022-06-11_09h12.54.267,task,2021.1.4,Win32,60.10699044,6299f149e92ead563fba08ef,62a43f005d2a26aeb3938bdd,,,,,,,,,,,,,,,,,,,,,,,,,,,,,,,,,,,,,,,,,,,,,,,,,,,,,,,,,,,,,,,,,,,,,,,,,,,,,,,,,,,,,,,,,,,,"[""period""]",0,10,0,10,0,1,[0.308200000047691],,
,,,,,,,,,,,,607f367c60fe33f8f18816d1,25,Kobieta,2022-06-11_09h12.54.267,task,2021.1.4,Win32,60.10699044,6299f149e92ead563fba08ef,62a43f005d2a26aeb3938bdd,,,,,,,,,,,,,,,,,,,,,,,,,,,,,,,,,,,,,,,,,,,,,,,,,,,,,,,,,,,,,,,,,,,,,,,,,,,,,,,,,,,,,,,,,,,,"[""period""]",0,11,0,11,0,1,[0.0020000000000095497],,
,,,,,,,,,,,,607f367c60fe33f8f18816d1,25,Kobieta,2022-06-11_09h12.54.267,task,2021.1.4,Win32,60.10699044,6299f149e92ead563fba08ef,62a43f005d2a26aeb3938bdd,,,,,,,,,,,,,,,,,,,,,,,,,,,,,,,,,,,,,,,,,,,,,,,,,,,,,,,,,,,,,,,,,,,,,,,,,,,,,,,,,,,,,,,,,,,,"[""period"",""period""]",0,12,0,12,0,1,"[0.20240000009539472,1.8704999999999927]",,
,,,,,,,,,,,,607f367c60fe33f8f18816d1,25,Kobieta,2022-06-11_09h12.54.267,task,2021.1.4,Win32,60.10699044,6299f149e92ead563fba08ef,62a43f005d2a26aeb3938bdd,,,,,,,,,,,,,,,,,,,,,,,,,,,,,,,,,,,,,,,,,,,,,,,,,,,,,,,,,,,,,,,,,,,,,,,,,,,,,,,,,,,,,,,,,,,,"[""comma""]",0,13,0,13,0,1,[1.35060000002386],,
,,,,,,,,,,,,607f367c60fe33f8f18816d1,25,Kobieta,2022-06-11_09h12.54.267,task,2021.1.4,Win32,60.10699044,6299f149e92ead563fba08ef,62a43f005d2a26aeb3938bdd,,,,,,,,,,,,,,,,,,,,,,,,,,,,,,,,,,,,,,,,,,,,,,,,,,,,,,,,,,,,,,,,,,,,,,,,,,,,,,,,,,,,,,,,,,,,"[""period""]",0,14,0,14,0,1,[1.159899999976119],,
,,,,,,,,,,,,607f367c60fe33f8f18816d1,25,Kobieta,2022-06-11_09h12.54.267,task,2021.1.4,Win32,60.10699044,6299f149e92ead563fba08ef,62a43f005d2a26aeb3938bdd,,,,,,,,,,,,,,,,,,,,,,,,,,,,,,,,,,,,,,,,,,,,,,,,,,,,,,,,,,,,,,,,,,,,,,,,,,,,,,,,,,,,,,,,,,,,"[""period""]",0,15,0,15,0,1,[0.8502999999523695],,
,,,,,,,,,,,,607f367c60fe33f8f18816d1,25,Kobieta,2022-06-11_09h12.54.267,task,2021.1.4,Win32,60.10699044,6299f149e92ead563fba08ef,62a43f005d2a26aeb3938bdd,,,,,,,,,,,,,,,,,,,,,,,,,,,,,,,,,,,,,,,,,,,,,,,,,,,,,,,,,,,,,,,,,,,,,,,,,,,,,,,,,,,,,,,,,,,,"[""comma""]",0,16,0,16,0,1,[0.3170000000000073],,
,,,,,,,,,,,,607f367c60fe33f8f18816d1,25,Kobieta,2022-06-11_09h12.54.267,task,2021.1.4,Win32,60.10699044,6299f149e92ead563fba08ef,62a43f005d2a26aeb3938bdd,,,,,,,,,,,,,,,,,,,,,,,,,,,,,,,,,,,,,,,,,,,,,,,,,,,,,,,,,,,,,,,,,,,,,,,,,,,,,,,,,,,,,,,,,,,,"[""comma"",""comma""]",0,17,0,17,0,1,"[0.25279999995228764,1.2331999999284449]",,
,,,,,,,,,,,,607f367c60fe33f8f18816d1,25,Kobieta,2022-06-11_09h12.54.267,task,2021.1.4,Win32,60.10699044,6299f149e92ead563fba08ef,62a43f005d2a26aeb3938bdd,,,,,,,,,,,,,,,,,,,,,,,,,,,,,,,,,,,,,,,,,,,,,,,,,,,,,,,,,,,,,,,,,,,,,,,,,,,,,,,,,,,,,,,,,,,,"[""comma"",""period""]",0,18,0,18,0,1,"[0.29369999992849216,1.850999999999999]",,
,,,,,,,,,,,,607f367c60fe33f8f18816d1,25,Kobieta,2022-06-11_09h12.54.267,task,2021.1.4,Win32,60.10699044,6299f149e92ead563fba08ef,62a43f005d2a26aeb3938bdd,,,,,,,,,,,,,,,,,,,,,,,,,,,,,,,,,,,,,,,,,,,,,,,,,,,,,,,,,,,,,,,,,,,,,,,,,,,,,,,,,,,,,,,,,,,,"[""period""]",0,19,0,19,0,1,[1.452699999928484],,
,,,,,,,,,,,,607f367c60fe33f8f18816d1,25,Kobieta,2022-06-11_09h12.54.267,task,2021.1.4,Win32,60.10699044,6299f149e92ead563fba08ef,62a43f005d2a26aeb3938bdd,,,,,,,,,,,,,,,,,,,,,,,,,,,,,,,,,,,,,,,,,,,,,,,,,,,,,,,,,,,,,,,,,,,,,,,,,,,,,,,,,,,,,,,,,,,,"[""period""]",0,20,0,20,0,1,[0.7522000000477078],,
,,,,,,,,,,,,607f367c60fe33f8f18816d1,25,Kobieta,2022-06-11_09h12.54.267,task,2021.1.4,Win32,60.10699044,6299f149e92ead563fba08ef,62a43f005d2a26aeb3938bdd,,,,,,,,,,,,,,,,,,,,,,,,,,,,,,,,,,,,,,,,,,,,,,,,,,,,,,,,,,,,,,,,,,,,,,,,,,,,,,,,,,,,,,,,,,,,"[""comma""]",0,21,0,21,0,1,[0.3596000000238746],,
,,,,,,,,,,,,607f367c60fe33f8f18816d1,25,Kobieta,2022-06-11_09h12.54.267,task,2021.1.4,Win32,60.10699044,6299f149e92ead563fba08ef,62a43f005d2a26aeb3938bdd,,,,,,,,,,,,,,,,,,,,,,,,,,,,,,,,,,,,,,,,,,,,,,,,,,,,,,,,,,,,,,,,,,,,,,,,,,,,,,,,,,,,,,,,,,,,"[""comma"",""comma""]",0,22,0,22,0,1,"[0.2997999999523131,1.9412999999523208]",,
,,,,,,,,,,,,607f367c60fe33f8f18816d1,25,Kobieta,2022-06-11_09h12.54.267,task,2021.1.4,Win32,60.10699044,6299f149e92ead563fba08ef,62a43f005d2a26aeb3938bdd,,,,,,,,,,,,,,,,,,,,,,,,,,,,,,,,,,,,,,,,,,,,,,,,,,,,,,,,,,,,,,,,,,,,,,,,,,,,,,,,,,,,,,,,,,,,,0,23,0,23,0,1,,,
,,,,,,,,,,,,607f367c60fe33f8f18816d1,25,Kobieta,2022-06-11_09h12.54.267,task,2021.1.4,Win32,60.10699044,6299f149e92ead563fba08ef,62a43f005d2a26aeb3938bdd,,,,,,,,,,,,,,,,,,,,,,,,,,,,,,,,,,,,,,,,,,,,,,,,,,,,,,,,,,,,,,,,,,,,,,,,,,,,,,,,,,,,,,,,,,,,"[""comma"",""period""]",0,24,0,24,0,1,"[0.3006999999284403,1.9693999999761331]",,
,,,,,,,,,,,,607f367c60fe33f8f18816d1,25,Kobieta,2022-06-11_09h12.54.267,task,2021.1.4,Win32,60.10699044,6299f149e92ead563fba08ef,62a43f005d2a26aeb3938bdd,,,,,,,,,,,,,,,,,,,,,,,,,,,,,,,,,,,,,,,,,,,,,,,,,,,,,,,,,,,,,,,,,,,,,,,,,,,,,,,,,,,,,,,,,,,,"[""period""]",0,25,0,25,0,1,[1.8656000000238464],,
,,,,,,,,,,,,607f367c60fe33f8f18816d1,25,Kobieta,2022-06-11_09h12.54.267,task,2021.1.4,Win32,60.10699044,6299f149e92ead563fba08ef,62a43f005d2a26aeb3938bdd,,,,,,,,,,,,,,,,,,,,,,,,,,,,,,,,,,,,,,,,,,,,,,,,,,,,,,,,,,,,,,,,,,,,,,,,,,,,,,,,,,,,,,,,,,,,"[""comma""]",0,26,0,26,0,1,[0.7701999999284794],,
,,,,,,,,,,,,607f367c60fe33f8f18816d1,25,Kobieta,2022-06-11_09h12.54.267,task,2021.1.4,Win32,60.10699044,6299f149e92ead563fba08ef,62a43f005d2a26aeb3938bdd,,,,,,,,,,,,,,,,,,,,,,,,,,,,,,,,,,,,,,,,,,,,,,,,,,,,,,,,,,,,,,,,,,,,,,,,,,,,,,,,,,,,,,,,,,,,"[""period""]",0,27,0,27,0,1,[1.5838000000715056],,
,,,,,,,,,,,,607f367c60fe33f8f18816d1,25,Kobieta,2022-06-11_09h12.54.267,task,2021.1.4,Win32,60.10699044,6299f149e92ead563fba08ef,62a43f005d2a26aeb3938bdd,,,,,,,,,,,,,,,,,,,,,,,,,,,,,,,,,,,,,,,,,,,,,,,,,,,,,,,,,,,,,,,,,,,,,,,,,,,,,,,,,,,,,,,,,,,,"[""period""]",0,28,0,28,0,1,[1.8973999999761872],,
,,,,,,,,,,,,607f367c60fe33f8f18816d1,25,Kobieta,2022-06-11_09h12.54.267,task,2021.1.4,Win32,60.10699044,6299f149e92ead563fba08ef,62a43f005d2a26aeb3938bdd,,,,,,,,,,,,,,,,,,,,,,,,,,,,,,,,,,,,,,,,,,,,,,,,,,,,,,,,,,,,,,,,,,,,,,,,,,,,,,,,,,,,,,,,,,,,"[""comma""]",0,29,0,29,0,1,[1.4150000000000205],,
,,,,,,,,,,,,607f367c60fe33f8f18816d1,25,Kobieta,2022-06-11_09h12.54.267,task,2021.1.4,Win32,60.10699044,6299f149e92ead563fba08ef,62a43f005d2a26aeb3938bdd,,,,,,,,,,,,,,,,,,,,,,,,,,,,,,,,,,,,,,,,,,,,,,,,,,,,,,,,,,,,,,,,,,,,,,,,,,,,,,,,,,,,,,,,,,,,"[""period""]",0,30,0,30,0,1,[1.0086000000238755],,
,,,,,,,,,,,,607f367c60fe33f8f18816d1,25,Kobieta,2022-06-11_09h12.54.267,task,2021.1.4,Win32,60.10699044,6299f149e92ead563fba08ef,62a43f005d2a26aeb3938bdd,,,,,,,,,,,,,,,,,,,,,,,,,,,,,,,,,,,,,,,,,,,,,,,,,,,,,,,,,,,,,,,,,,,,,,,,,,,,,,,,,,,,,,,,,,,,"[""comma""]",0,31,0,31,0,1,[1.2912999999522867],,
,,,,,,,,,,,,607f367c60fe33f8f18816d1,25,Kobieta,2022-06-11_09h12.54.267,task,2021.1.4,Win32,60.10699044,6299f149e92ead563fba08ef,62a43f005d2a26aeb3938bdd,,,,,,,,,,,,,,,,,,,,,,,,,,,,,,,,,,,,,,,,,,,,,,,,,,,,,,,,,,,,,,,,,,,,,,,,,,,,,,,,,,,,,,,,,,,,"[""period""]",0,32,0,32,0,1,[1.5166000000238569],,
,,,,,,,,,,,,607f367c60fe33f8f18816d1,25,Kobieta,2022-06-11_09h12.54.267,task,2021.1.4,Win32,60.10699044,6299f149e92ead563fba08ef,62a43f005d2a26aeb3938bdd,,,,,,,,,,,,,,,,,,,,,,,,,,,,,,,,,,,,,,,,,,,,,,,,,,,,,,,,,,,,,,,,,,,,,,,,,,,,,,,,,,,,,,,,,,,,,0,33,0,33,0,1,,,
,,,,,,,,,,,,607f367c60fe33f8f18816d1,25,Kobieta,2022-06-11_09h12.54.267,task,2021.1.4,Win32,60.10699044,6299f149e92ead563fba08ef,62a43f005d2a26aeb3938bdd,,,,,,,,,,,,,,,,,,,,,,,,,,,,,,,,,,,,,,,,,,,,,,,,,,,,,,,,,,,,,,,,,,,,,,,,,,,,,,,,,,,,,,,,,,,,"[""period""]",0,34,0,34,0,1,[0.263499999999965],,
,,,,,,,,,,,,607f367c60fe33f8f18816d1,25,Kobieta,2022-06-11_09h12.54.267,task,2021.1.4,Win32,60.10699044,6299f149e92ead563fba08ef,62a43f005d2a26aeb3938bdd,,,,,,,,,,,,,,,,,,,,,,,,,,,,,,,,,,,,,,,,,,,,,,,,,,,,,,,,,,,,,,,,,,,,,,,,,,,,,,,,,,,,,,,,,,,,"[""period"",""comma""]",0,35,0,35,0,1,"[0.1016000000238364,1.82289999997613]",,
,,,,,,,,,,,,607f367c60fe33f8f18816d1,25,Kobieta,2022-06-11_09h12.54.267,task,2021.1.4,Win32,60.10699044,6299f149e92ead563fba08ef,62a43f005d2a26aeb3938bdd,,,,,,,,,,,,,,,,,,,,,,,,,,,,,,,,,,,,,,,,,,,,,,,,,,,,,,,,,,,,,,,,,,,,,,,,,,,,,,,,,,,,,,,,,,,,"[""period""]",0,36,0,36,0,1,[1.3453999999761663],,
,,,,,,,,,,,,607f367c60fe33f8f18816d1,25,Kobieta,2022-06-11_09h12.54.267,task,2021.1.4,Win32,60.10699044,6299f149e92ead563fba08ef,62a43f005d2a26aeb3938bdd,,,,,,,,,,,,,,,,,,,,,,,,,,,,,,,,,,,,,,,,,,,,,,,,,,,,,,,,,,,,,,,,,,,,,,,,,,,,,,,,,,,,,,,,,,,,"[""comma""]",0,37,0,37,0,1,[0.710700000047666],,
,,,,,,,,,,,,607f367c60fe33f8f18816d1,25,Kobieta,2022-06-11_09h12.54.267,task,2021.1.4,Win32,60.10699044,6299f149e92ead563fba08ef,62a43f005d2a26aeb3938bdd,,,,,,,,,,,,,,,,,,,,,,,,,,,,,,,,,,,,,,,,,,,,,,,,,,,,,,,,,,,,,,,,,,,,,,,,,,,,,,,,,,,,,,,,,,,,"[""period"",""comma""]",0,38,0,38,0,1,"[0.10979999995231537,1.9027999999523217]",,
,,,,,,,,,,,,607f367c60fe33f8f18816d1,25,Kobieta,2022-06-11_09h12.54.267,task,2021.1.4,Win32,60.10699044,6299f149e92ead563fba08ef,62a43f005d2a26aeb3938bdd,,,,,,,,,,,,,,,,,,,,,,,,,,,,,,,,,,,,,,,,,,,,,,,,,,,,,,,,,,,,,,,,,,,,,,,,,,,,,,,,,,,,,,,,,,,,,0,39,0,39,0,1,,,
,,,,,,,,,,,,607f367c60fe33f8f18816d1,25,Kobieta,2022-06-11_09h12.54.267,task,2021.1.4,Win32,60.10699044,6299f149e92ead563fba08ef,62a43f005d2a26aeb3938bdd,,,,,,,,,,,,,,,,,,,,,,,,,,,,,,,,,,,,,,,,,,,,,,,,,,,,,,,,,,,,,,,,,,,,,,,,,,,,,,,,,,,,,,,,,,,,"[""period""]",0,40,0,40,0,1,[0.1343000000715051],,
,,,,,,,,,,,,607f367c60fe33f8f18816d1,25,Kobieta,2022-06-11_09h12.54.267,task,2021.1.4,Win32,60.10699044,6299f149e92ead563fba08ef,62a43f005d2a26aeb3938bdd,,,,,,,,,,,,,,,,,,,,,,,,,,,,,,,,,,,,,,,,,,,,,,,,,,,,,,,,,,,,,,,,,,,,,,,,,,,,,,,,,,,,,,,,,,,,"[""period""]",0,41,0,41,0,1,[0.12199999999995725],,
,,,,,,,,,,,,607f367c60fe33f8f18816d1,25,Kobieta,2022-06-11_09h12.54.267,task,2021.1.4,Win32,60.10699044,6299f149e92ead563fba08ef,62a43f005d2a26aeb3938bdd,,,,,,,,,,,,,,,,,,,,,,,,,,,,,,,,,,,,,,,,,,,,,,,,,,,,,,,,,,,,,,,,,,,,,,,,,,,,,,,,,,,,,,,,,,,,"[""period""]",0,42,0,42,0,1,[0.6199000000954129],,
,,,,,,,,,,,,607f367c60fe33f8f18816d1,25,Kobieta,2022-06-11_09h12.54.267,task,2021.1.4,Win32,60.10699044,6299f149e92ead563fba08ef,62a43f005d2a26aeb3938bdd,,,,,,,,,,,,,,,,,,,,,,,,,,,,,,,,,,,,,,,,,,,,,,,,,,,,,,,,,,,,,,,,,,,,,,,,,,,,,,,,,,,,,,,,,,,,"[""period""]",0,43,0,43,0,1,[0.2672000000476942],,
,,,,,,,,,,,,607f367c60fe33f8f18816d1,25,Kobieta,2022-06-11_09h12.54.267,task,2021.1.4,Win32,60.10699044,6299f149e92ead563fba08ef,62a43f005d2a26aeb3938bdd,,,,,,,,,,,,,,,,,,,,,,,,,,,,,,,,,,,,,,,,,,,,,,,,,,,,,,,,,,,,,,,,,,,,,,,,,,,,,,,,,,,,,,,,,,,,"[""period""]",0,44,0,44,0,1,[0.26770000004768235],,
,,,,,,,,,,,,607f367c60fe33f8f18816d1,25,Kobieta,2022-06-11_09h12.54.267,task,2021.1.4,Win32,60.10699044,6299f149e92ead563fba08ef,62a43f005d2a26aeb3938bdd,,,,,,,,,,,,,,,,,,,,,,,,,,,,,,,,,,,,,,,,,,,,,,,,,,,,,,,,,,,,,,,,,,,,,,,,,,,,,,,,,,,,,,,,,,,,"[""comma""]",0,45,0,45,0,1,[0.26760000002389006],,
,,,,,,,,,,,,607f367c60fe33f8f18816d1,25,Kobieta,2022-06-11_09h12.54.267,task,2021.1.4,Win32,60.10699044,6299f149e92ead563fba08ef,62a43f005d2a26aeb3938bdd,,,,,,,,,,,,,,,,,,,,,,,,,,,,,,,,,,,,,,,,,,,,,,,,,,,,,,,,,,,,,,,,,,,,,,,,,,,,,,,,,,,,,,,,,,,,"[""period"",""period""]",0,46,0,46,0,1,"[0.134700000047701,1.9164000000953934]",,
,,,,,,,,,,,,607f367c60fe33f8f18816d1,25,Kobieta,2022-06-11_09h12.54.267,task,2021.1.4,Win32,60.10699044,6299f149e92ead563fba08ef,62a43f005d2a26aeb3938bdd,,,,,,,,,,,,,,,,,,,,,,,,,,,,,,,,,,,,,,,,,,,,,,,,,,,,,,,,,,,,,,,,,,,,,,,,,,,,,,,,,,,,,,,,,,,,,0,47,0,47,0,1,,,
,,,,,,,,,,,,607f367c60fe33f8f18816d1,25,Kobieta,2022-06-11_09h12.54.267,task,2021.1.4,Win32,60.10699044,6299f149e92ead563fba08ef,62a43f005d2a26aeb3938bdd,,,,,,,,,,,,,,,,,,,,,,,,,,,,,,,,,,,,,,,,,,,,,,,,,,,,,,,,,,,,,,,,,,,,,,,,,,,,,,,,,,,,,,,,,,,,"[""period""]",0,48,0,48,0,1,[0.0014999999999645297],,
,,,,,,,,,,,,607f367c60fe33f8f18816d1,25,Kobieta,2022-06-11_09h12.54.267,task,2021.1.4,Win32,60.10699044,6299f149e92ead563fba08ef,62a43f005d2a26aeb3938bdd,,,,,,,,,,,,,,,,,,,,,,,,,,,,,,,,,,,,,,,,,,,,,,,,,,,,,,,,,,,,,,,,,,,,,,,,,,,,,,,,,,,,,,,,,,,,"[""period""]",0,49,0,49,0,1,[0.27410000002385004],,
,,,,,,,,,,,,607f367c60fe33f8f18816d1,25,Kobieta,2022-06-11_09h12.54.267,task,2021.1.4,Win32,60.10699044,6299f149e92ead563fba08ef,62a43f005d2a26aeb3938bdd,,,,,,,,,,,,,,,,,,,,,,,,,,,,,,,,,,,,,,,,,,,,,,,,,,,,,,,,,,,,,,,,,,,,,,,,,,,,,,,,,,,,,,,,,,,,"[""comma""]",0,50,0,50,0,1,[0.4502999999523354],,
,,,,,,,,,,,,607f367c60fe33f8f18816d1,25,Kobieta,2022-06-11_09h12.54.267,task,2021.1.4,Win32,60.10699044,6299f149e92ead563fba08ef,62a43f005d2a26aeb3938bdd,,,,,,,,,,,,,,,,,,,,,,,,,,,,,,,,,,,,,,,,,,,,,,,,,,,,,,,,,,,,,,,,,,,,,,,,,,,,,,,,,,,,,,,,,,,,"[""period""]",0,51,0,51,0,1,[0.2723999999761304],,
,,,,,,,,,,,,607f367c60fe33f8f18816d1,25,Kobieta,2022-06-11_09h12.54.267,task,2021.1.4,Win32,60.10699044,6299f149e92ead563fba08ef,62a43f005d2a26aeb3938bdd,,,,,,,,,,,,,,,,,,,,,,,,,,,,,,,,,,,,,,,,,,,,,,,,,,,,,,,,,,,,,,,,,,,,,,,,,,,,,,,,,,,,,,,,,,,,"[""comma""]",0,52,0,52,0,1,[0.2785000000000082],,
,,,,,,,,,,,,607f367c60fe33f8f18816d1,25,Kobieta,2022-06-11_09h12.54.267,task,2021.1.4,Win32,60.10699044,6299f149e92ead563fba08ef,62a43f005d2a26aeb3938bdd,,,,,,,,,,,,,,,,,,,,,,,,,,,,,,,,,,,,,,,,,,,,,,,,,,,,,,,,,,,,,,,,,,,,,,,,,,,,,,,,,,,,,,,,,,,,"[""period""]",0,53,0,53,0,1,[0.3337999999523049],,
,,,,,,,,,,,,607f367c60fe33f8f18816d1,25,Kobieta,2022-06-11_09h12.54.267,task,2021.1.4,Win32,60.10699044,6299f149e92ead563fba08ef,62a43f005d2a26aeb3938bdd,,,,,,,,,,,,,,,,,,,,,,,,,,,,,,,,,,,,,,,,,,,,,,,,,,,,,,,,,,,,,,,,,,,,,,,,,,,,,,,,,,,,,,,,,,,,"[""period""]",0,54,0,54,0,1,[0.4908000000715447],,
,,,,,,,,,,,,607f367c60fe33f8f18816d1,25,Kobieta,2022-06-11_09h12.54.267,task,2021.1.4,Win32,60.10699044,6299f149e92ead563fba08ef,62a43f005d2a26aeb3938bdd,,,,,,,,,,,,,,,,,,,,,,,,,,,,,,,,,,,,,,,,,,,,,,,,,,,,,,,,,,,,,,,,,,,,,,,,,,,,,,,,,,,,,,,,,,,,"[""comma""]",0,55,0,55,0,1,[0.5394999999999754],,
,,,,,,,,,,,,607f367c60fe33f8f18816d1,25,Kobieta,2022-06-11_09h12.54.267,task,2021.1.4,Win32,60.10699044,6299f149e92ead563fba08ef,62a43f005d2a26aeb3938bdd,,,,,,,,,,,,,,,,,,,,,,,,,,,,,,,,,,,,,,,,,,,,,,,,,,,,,,,,,,,,,,,,,,,,,,,,,,,,,,,,,,,,,,,,,,,,"[""period""]",0,56,0,56,0,1,[0.238700000047686],,
,,,,,,,,,,,,607f367c60fe33f8f18816d1,25,Kobieta,2022-06-11_09h12.54.267,task,2021.1.4,Win32,60.10699044,6299f149e92ead563fba08ef,62a43f005d2a26aeb3938bdd,,,,,,,,,,,,,,,,,,,,,,,,,,,,,,,,,,,,,,,,,,,,,,,,,,,,,,,,,,,,,,,,,,,,,,,,,,,,,,,,,,,,,,,,,,,,"[""comma""]",0,57,0,57,0,1,[0.13749999999998863],,
,,,,,,,,,,,,607f367c60fe33f8f18816d1,25,Kobieta,2022-06-11_09h12.54.267,task,2021.1.4,Win32,60.10699044,6299f149e92ead563fba08ef,62a43f005d2a26aeb3938bdd,,,,,,,,,,,,,,,,,,,,,,,,,,,,,,,,,,,,,,,,,,,,,,,,,,,,,,,,,,,,,,,,,,,,,,,,,,,,,,,,,,,,,,,,,,,,"[""period"",""period""]",0,58,0,58,0,1,"[0.06800000000004047,1.81639999997617]",,
,,,,,,,,,,,,607f367c60fe33f8f18816d1,25,Kobieta,2022-06-11_09h12.54.267,task,2021.1.4,Win32,60.10699044,6299f149e92ead563fba08ef,62a43f005d2a26aeb3938bdd,,,,,,,,,,,,,,,,,,,,,,,,,,,,,,,,,,,,,,,,,,,,,,,,,,,,,,,,,,,,,,,,,,,,,,,,,,,,,,,,,,,,,,,,,,,,"[""period""]",0,59,0,59,0,1,[1.7982999999523486],,
,,,,,,,,,,,,607f367c60fe33f8f18816d1,25,Kobieta,2022-06-11_09h12.54.267,task,2021.1.4,Win32,60.10699044,6299f149e92ead563fba08ef,62a43f005d2a26aeb3938bdd,,,,,,,,,,,,,,,,,,,,,,,,,,,,,,,,,,,,,,,,,,,,,,,,,,,,,,,,,,,,,,,,,,,,,,,,,,,,,,,,,,,,,,,,,,,,"[""period""]",0,60,0,60,0,1,[1.7968999999761195],,
,,,,,,,,,,,,607f367c60fe33f8f18816d1,25,Kobieta,2022-06-11_09h12.54.267,task,2021.1.4,Win32,60.10699044,6299f149e92ead563fba08ef,62a43f005d2a26aeb3938bdd,,,,,,,,,,,,,,,,,,,,,,,,,,,,,,,,,,,,,,,,,,,,,,,,,,,,,,,,,,,,,,,,,,,,,,,,,,,,,,,,,,,,,,,,,,,,,0,61,0,61,0,1,,,
,,,,,,,,,,,,607f367c60fe33f8f18816d1,25,Kobieta,2022-06-11_09h12.54.267,task,2021.1.4,Win32,60.10699044,6299f149e92ead563fba08ef,62a43f005d2a26aeb3938bdd,,,,,,,,,,,,,,,,,,,,,,,,,,,,,,,,,,,,,,,,,,,,,,,,,,,,,,,,,,,,,,,,,,,,,,,,,,,,,,,,,,,,,,,,,,,,"[""comma""]",0,62,0,62,0,1,[0.8339000000953547],,
,,,,,,,,,,,,607f367c60fe33f8f18816d1,25,Kobieta,2022-06-11_09h12.54.267,task,2021.1.4,Win32,60.10699044,6299f149e92ead563fba08ef,62a43f005d2a26aeb3938bdd,,,,,,,,,,,,,,,,,,,,,,,,,,,,,,,,,,,,,,,,,,,,,,,,,,,,,,,,,,,,,,,,,,,,,,,,,,,,,,,,,,,,,,,,,,,,"[""comma""]",0,63,0,63,0,1,[1.9666000000238455],,
,,,,,,,,,,,,607f367c60fe33f8f18816d1,25,Kobieta,2022-06-11_09h12.54.267,task,2021.1.4,Win32,60.10699044,6299f149e92ead563fba08ef,62a43f005d2a26aeb3938bdd,,,,,,,,,,,,,,,,,,,,,,,,,,,,,,,,,,,,,,,,,,,,,,,,,,,,,,,,,,,,,,,,,,,,,,,,,,,,,,,,,,,,,,,,,,,,,0,64,0,64,0,1,,,
,,,,,,,,,,,,607f367c60fe33f8f18816d1,25,Kobieta,2022-06-11_09h12.54.267,task,2021.1.4,Win32,60.10699044,6299f149e92ead563fba08ef,62a43f005d2a26aeb3938bdd,,,,,,,,,,,,,,,,,,,,,,,,,,,,,,,,,,,,,,,,,,,,,,,,,,,,,,,,,,,,,,,,,,,,,,,,,,,,,,,,,,,,,,,,,,,,"[""period""]",0,65,0,65,0,1,[0.0281000000238123],,
,,,,,,,,,,,,607f367c60fe33f8f18816d1,25,Kobieta,2022-06-11_09h12.54.267,task,2021.1.4,Win32,60.10699044,6299f149e92ead563fba08ef,62a43f005d2a26aeb3938bdd,,,,,,,,,,,,,,,,,,,,,,,,,,,,,,,,,,,,,,,,,,,,,,,,,,,,,,,,,,,,,,,,,,,,,,,,,,,,,,,,,,,,,,,,,,,,"[""period""]",0,66,0,66,0,1,[0.28419999992848943],,
,,,,,,,,,,,,607f367c60fe33f8f18816d1,25,Kobieta,2022-06-11_09h12.54.267,task,2021.1.4,Win32,60.10699044,6299f149e92ead563fba08ef,62a43f005d2a26aeb3938bdd,,,,,,,,,,,,,,,,,,,,,,,,,,,,,,,,,,,,,,,,,,,,,,,,,,,,,,,,,,,,,,,,,,,,,,,,,,,,,,,,,,,,,,,,,,,,"[""period""]",0,67,0,67,0,1,[0.10079999995235767],,
,,,,,,,,,,,,607f367c60fe33f8f18816d1,25,Kobieta,2022-06-11_09h12.54.267,task,2021.1.4,Win32,60.10699044,6299f149e92ead563fba08ef,62a43f005d2a26aeb3938bdd,,,,,,,,,,,,,,,,,,,,,,,,,,,,,,,,,,,,,,,,,,,,,,,,,,,,,,,,,,,,,,,,,,,,,,,,,,,,,,,,,,,,,,,,,,,,,0,68,0,68,0,1,,,
,,,,,,,,,,,,607f367c60fe33f8f18816d1,25,Kobieta,2022-06-11_09h12.54.267,task,2021.1.4,Win32,60.10699044,6299f149e92ead563fba08ef,62a43f005d2a26aeb3938bdd,,,,,,,,,,,,,,,,,,,,,,,,,,,,,,,,,,,,,,,,,,,,,,,,,,,,,,,,,,,,,,,,,,,,,,,,,,,,,,,,,,,,,,,,,,,,"[""period""]",0,69,0,69,0,1,[1.9718999999761309],,
,,,,,,,,,,,,607f367c60fe33f8f18816d1,25,Kobieta,2022-06-11_09h12.54.267,task,2021.1.4,Win32,60.10699044,6299f149e92ead563fba08ef,62a43f005d2a26aeb3938bdd,,,,,,,,,,,,,,,,,,,,,,,,,,,,,,,,,,,,,,,,,,,,,,,,,,,,,,,,,,,,,,,,,,,,,,,,,,,,,,,,,,,,,,,,,,,,"[""period""]",0,70,0,70,0,1,[1.5563000000714737],,
,,,,,,,,,,,,607f367c60fe33f8f18816d1,25,Kobieta,2022-06-11_09h12.54.267,task,2021.1.4,Win32,60.10699044,6299f149e92ead563fba08ef,62a43f005d2a26aeb3938bdd,,,,,,,,,,,,,,,,,,,,,,,,,,,,,,,,,,,,,,,,,,,,,,,,,,,,,,,,,,,,,,,,,,,,,,,,,,,,,,,,,,,,,,,,,,,,"[""comma"",""period""]",0,71,0,71,0,1,"[0.0852000000476778,1.399799999952279]",,
,,,,,,,,,,,,607f367c60fe33f8f18816d1,25,Kobieta,2022-06-11_09h12.54.267,task,2021.1.4,Win32,60.10699044,6299f149e92ead563fba08ef,62a43f005d2a26aeb3938bdd,,,,,,,,,,,,,,,,,,,,,,,,,,,,,,,,,,,,,,,,,,,,,,,,,,,,,,,,,,,,,,,,,,,,,,,,,,,,,,,,,,,,,,,,,,,,"[""comma"",""period"",""period""]",0,72,0,72,0,1,"[0.40279999995232174,0.7412999999523322,1.8525000000000205]",,
,,,,,,,,,,,,607f367c60fe33f8f18816d1,25,Kobieta,2022-06-11_09h12.54.267,task,2021.1.4,Win32,60.10699044,6299f149e92ead563fba08ef,62a43f005d2a26aeb3938bdd,,,,,,,,,,,,,,,,,,,,,,,,,,,,,,,,,,,,,,,,,,,,,,,,,,,,,,,,,,,,,,,,,,,,,,,,,,,,,,,,,,,,,,,,,,,,"[""period""]",0,73,0,73,0,1,[0.4379999999999882],,
,,,,,,,,,,,,607f367c60fe33f8f18816d1,25,Kobieta,2022-06-11_09h12.54.267,task,2021.1.4,Win32,60.10699044,6299f149e92ead563fba08ef,62a43f005d2a26aeb3938bdd,,,,,,,,,,,,,,,,,,,,,,,,,,,,,,,,,,,,,,,,,,,,,,,,,,,,,,,,,,,,,,,,,,,,,,,,,,,,,,,,,,,,,,,,,,,,"[""period"",""period"",""period""]",0,74,0,74,0,1,"[0.18379999995232765,1.6826000000238537,1.9361000000238278]",,
,,,,,,,,,,,,607f367c60fe33f8f18816d1,25,Kobieta,2022-06-11_09h12.54.267,task,2021.1.4,Win32,60.10699044,6299f149e92ead563fba08ef,62a43f005d2a26aeb3938bdd,,,,,,,,,,,,,,,,,,,,,,,,,,,,,,,,,,,,,,,,,,,,,,,,,,,,,,,,,,,,,,,,,,,,,,,,,,,,,,,,,,,,,,,,,,,,"[""comma"",""comma""]",0,75,0,75,0,1,"[1.0501000000238605,1.718500000000006]",,
,,,,,,,,,,,,607f367c60fe33f8f18816d1,25,Kobieta,2022-06-11_09h12.54.267,task,2021.1.4,Win32,60.10699044,6299f149e92ead563fba08ef,62a43f005d2a26aeb3938bdd,,,,,,,,,,,,,,,,,,,,,,,,,,,,,,,,,,,,,,,,,,,,,,,,,,,,,,,,,,,,,,,,,,,,,,,,,,,,,,,,,,,,,,,,,,,,"[""period"",""comma"",""period""]",0,76,0,76,0,1,"[0.6237000000476769,0.9193000000715301,1.7478000000715497]",,
,,,,,,,,,,,,607f367c60fe33f8f18816d1,25,Kobieta,2022-06-11_09h12.54.267,task,2021.1.4,Win32,60.10699044,6299f149e92ead563fba08ef,62a43f005d2a26aeb3938bdd,,,,,,,,,,,,,,,,,,,,,,,,,,,,,,,,,,,,,,,,,,,,,,,,,,,,,,,,,,,,,,,,,,,,,,,,,,,,,,,,,,,,,,,,,,,,"[""period"",""period""]",0,77,0,77,0,1,"[0.6504999999999654,1.8066000000238205]",,
,,,,,,,,,,,,607f367c60fe33f8f18816d1,25,Kobieta,2022-06-11_09h12.54.267,task,2021.1.4,Win32,60.10699044,6299f149e92ead563fba08ef,62a43f005d2a26aeb3938bdd,,,,,,,,,,,,,,,,,,,,,,,,,,,,,,,,,,,,,,,,,,,,,,,,,,,,,,,,,,,,,,,,,,,,,,,,,,,,,,,,,,,,,,,,,,,,"[""comma"",""comma""]",0,78,0,78,0,1,"[0.23390000009544565,1.200400000095442]",,
,,,,,,,,,,,,607f367c60fe33f8f18816d1,25,Kobieta,2022-06-11_09h12.54.267,task,2021.1.4,Win32,60.10699044,6299f149e92ead563fba08ef,62a43f005d2a26aeb3938bdd,,,,,,,,,,,,,,,,,,,,,,,,,,,,,,,,,,,,,,,,,,,,,,,,,,,,,,,,,,,,,,,,,,,,,,,,,,,,,,,,,,,,,,,,,,,,"[""comma"",""comma""]",0,79,0,79,0,1,"[0.2586000000237618,0.5748999999760827]",,
,,,,,,,,,,,,607f367c60fe33f8f18816d1,25,Kobieta,2022-06-11_09h12.54.267,task,2021.1.4,Win32,60.10699044,6299f149e92ead563fba08ef,62a43f005d2a26aeb3938bdd,,,,,,,,,,,,,,,,,,,,,,,,,,,,,,,,,,,,,,,,,,,,,,,,,,,,,,,,,,,,,,,,,,,,,,,,,,,,,,,,,,,,,,,,,,,,"[""comma"",""comma"",""comma""]",0,80,0,80,0,1,"[0.40079999995236903,0.7203999999761663,0.95279999995239]",,
,,,,,,,,,,,,607f367c60fe33f8f18816d1,25,Kobieta,2022-06-11_09h12.54.267,task,2021.1.4,Win32,60.10699044,6299f149e92ead563fba08ef,62a43f005d2a26aeb3938bdd,,,,,,,,,,,,,,,,,,,,,,,,,,,,,,,,,,,,,,,,,,,,,,,,,,,,,,,,,,,,,,,,,,,,,,,,,,,,,,,,,,,,,,,,,,,,"[""period"",""period"",""period"",""period"",""period""]",0,81,0,81,0,1,"[0.1697999999523745,0.866599999904679,1.1162999999522754,1.2994999999999663,1.5832999999523736]",,
,,,,,,,,,,,,607f367c60fe33f8f18816d1,25,Kobieta,2022-06-11_09h12.54.267,task,2021.1.4,Win32,60.10699044,6299f149e92ead563fba08ef,62a43f005d2a26aeb3938bdd,,,,,,,,,,,,,,,,,,,,,,,,,,,,,,,,,,,,,,,,,,,,,,,,,,,,,,,,,,,,,,,,,,,,,,,,,,,,,,,,,,,,,,,,,,,,"[""period"",""comma"",""period"",""comma"",""period"",""comma"",""period"",""period""]",0,82,0,82,0,1,"[0.027500000000031832,0.8432999999522508,1.0914999999999964,1.1662999999523436,1.3327999999522717,1.4357999999523372,1.5024999999999409,1.6779999999999973]",,
,,,,,,,,,,,,607f367c60fe33f8f18816d1,25,Kobieta,2022-06-11_09h12.54.267,task,2021.1.4,Win32,60.10699044,6299f149e92ead563fba08ef,62a43f005d2a26aeb3938bdd,,,,,,,,,,,,,,,,,,,,,,,,,,,,,,,,,,,,,,,,,,,,,,,,,,,,,,,,,,,,,,,,,,,,,,,,,,,,,,,,,,,,,,,,,,,,"[""period"",""period"",""period"",""comma"",""period"",""comma"",""period"",""comma"",""comma"",""period"",""comma"",""comma""]",0,83,0,83,0,1,"[0.2072000000476919,0.45870000004765643,0.5939000000953456,0.7832000000477137,0.9163000000714874,1.0080000000000382,1.1053000000715656,1.28680000007148,1.5272000000476282,1.6397000000476964,1.7482000000476319,1.9154999999999518]",,
,,,,,,,,,,,,607f367c60fe33f8f18816d1,25,Kobieta,2022-06-11_09h12.54.267,task,2021.1.4,Win32,60.10699044,6299f149e92ead563fba08ef,62a43f005d2a26aeb3938bdd,,,,,,,,,,,,,,,,,,,,,,,,,,,,,,,,,,,,,,,,,,,,,,,,,,,,,,,,,,,,,,,,,,,,,,,,,,,,,,,,,,,,,,,,,,,,"[""comma"",""comma"",""comma"",""period"",""comma"",""period"",""period"",""period"",""period"",""comma"",""comma""]",0,84,0,84,0,1,"[0.3670000000000755,0.472600000023931,0.5897000000477419,0.7462999999523845,0.8667999999523772,0.9718999999762445,1.2393999999761718,1.4197999999523745,1.5402999999523672,1.77510000002394,1.97589999997615]",,
,,,,,,,,,,,,607f367c60fe33f8f18816d1,25,Kobieta,2022-06-11_09h12.54.267,task,2021.1.4,Win32,60.10699044,6299f149e92ead563fba08ef,62a43f005d2a26aeb3938bdd,,,,,,,,,,,,,,,,,,,,,,,,,,,,,,,,,,,,,,,,,,,,,,,,,,,,,,,,,,,,,,,,,,,,,,,,,,,,,,,,,,,,,,,,,,,,"[""comma"",""comma"",""comma"",""period"",""comma"",""period"",""period"",""period"",""comma"",""period"",""period""]",0,85,0,85,0,1,"[0.14370000004771555,0.32460000002390643,0.46699999999998454,0.5838000000716193,0.7333000000716083,0.8333000000715174,1.10450000000003,1.2333000000716083,1.3663000000715328,1.547400000095422,1.8000000000000682]",,
,,,,,,,,,,,,607f367c60fe33f8f18816d1,25,Kobieta,2022-06-11_09h12.54.267,task,2021.1.4,Win32,60.10699044,6299f149e92ead563fba08ef,62a43f005d2a26aeb3938bdd,,,,,,,,,,,,,,,,,,,,,,,,,,,,,,,,,,,,,,,,,,,,,,,,,,,,,,,,,,,,,,,,,,,,,,,,,,,,,,,,,,,,,,,,,,,,"[""period"",""period"",""comma"",""comma"",""comma"",""period"",""comma"",""comma"",""period"",""comma""]",0,86,0,86,0,1,"[0.01729999995234266,0.12489999997615087,0.3709999999999809,0.5528999999761481,0.6901999999284953,0.7908999999760908,1.0166000000238,1.3042999999522635,1.483799999952339,1.7277999999522535]",,
,,,,,,,,,,,,607f367c60fe33f8f18816d1,25,Kobieta,2022-06-11_09h12.54.267,task,2021.1.4,Win32,60.10699044,6299f149e92ead563fba08ef,62a43f005d2a26aeb3938bdd,,,,,,,,,,,,,,,,,,,,,,,,,,,,,,,,,,,,,,,,,,,,,,,,,,,,,,,,,,,,,,,,,,,,,,,,,,,,,,,,,,,,,,,,,,,,"[""comma"",""comma"",""period"",""period"",""period"",""comma"",""comma"",""comma"",""period""]",0,87,0,87,0,1,"[0.08430000007149374,0.19180000007145281,0.4353999999760845,0.7586000000237618,0.8762000000476746,1.0033999999761818,1.4241000000238273,1.56639999997617,1.6886000000238255]",,
,,,,,,,,,,,,607f367c60fe33f8f18816d1,25,Kobieta,2022-06-11_09h12.54.267,task,2021.1.4,Win32,60.10699044,6299f149e92ead563fba08ef,62a43f005d2a26aeb3938bdd,,,,,,,,,,,,,,,,,,,,,,,,,,,,,,,,,,,,,,,,,,,,,,,,,,,,,,,,,,,,,,,,,,,,,,,,,,,,,,,,,,,,,,,,,,,,"[""period"",""period"",""comma"",""comma"",""comma"",""period"",""comma"",""period"",""comma"",""comma"",""comma""]",0,88,0,88,0,1,"[0.03260000002387642,0.22010000002387642,0.3556000000238555,0.5673999999761463,0.6841000000239319,0.8161000000238801,1.0891000000239046,1.2366000000238273,1.3756999999285426,1.5827999999523854,1.8363999999761518]",,
,,,,,,,,,,,,607f367c60fe33f8f18816d1,25,Kobieta,2022-06-11_09h12.54.267,task,2021.1.4,Win32,60.10699044,6299f149e92ead563fba08ef,62a43f005d2a26aeb3938bdd,,,,,,,,,,,,,,,,,,,,,,,,,,,,,,,,,,,,,,,,,,,,,,,,,,,,,,,,,,,,,,,,,,,,,,,,,,,,,,,,,,,,,,,,,,,,"[""comma"",""comma"",""comma"",""period"",""comma"",""period"",""period"",""period"",""period""]",0,89,0,89,0,1,"[0.1336000000238755,0.47789999997621635,0.7571000000237973,0.851299999952289,0.9824999999999591,1.3654999999999973,1.61850000000004,1.7490000000000236,1.8820000000000618]",,
,,,,,,,,,,,,607f367c60fe33f8f18816d1,25,Kobieta,2022-06-11_09h12.54.267,task,2021.1.4,Win32,60.10699044,6299f149e92ead563fba08ef,62a43f005d2a26aeb3938bdd,,,,,,,,,,,,,,,,,,,,,,,,,,,,,,,,,,,,,,,,,,,,,,,,,,,,,,,,,,,,,,,,,,,,,,,,,,,,,,,,,,,,,,,,,,,,"[""comma"",""comma"",""period"",""period"",""period"",""comma"",""comma"",""comma""]",0,90,0,90,0,1,"[0.2898999999761145,0.4417000000476037,0.673899999976129,0.9531000000238237,1.0671000000238564,1.3081000000238419,1.6033999999760908,1.80239999997616]",,
,,,,,,,,,,,,607f367c60fe33f8f18816d1,25,Kobieta,2022-06-11_09h12.54.267,task,2021.1.4,Win32,60.10699044,6299f149e92ead563fba08ef,62a43f005d2a26aeb3938bdd,,,,,,,,,,,,,,,,,,,,,,,,,,,,,,,,,,,,,,,,,,,,,,,,,,,,,,,,,,,,,,,,,,,,,,,,,,,,,,,,,,,,,,,,,,,,"[""period"",""period"",""period"",""period"",""period"",""comma"",""period"",""comma"",""period"",""period""]",0,91,0,91,0,1,"[0.017199999928493526,0.2505999999046935,0.3790000000000191,0.5000999999047053,0.6295000000000073,0.8070999999047217,1.0502999999523581,1.2085999999046635,1.6890999999046699,1.96579999995231]",,
,,,,,,,,,,,,607f367c60fe33f8f18816d1,25,Kobieta,2022-06-11_09h12.54.267,task,2021.1.4,Win32,60.10699044,6299f149e92ead563fba08ef,62a43f005d2a26aeb3938bdd,,,,,,,,,,,,,,,,,,,,,,,,,,,,,,,,,,,,,,,,,,,,,,,,,,,,,,,,,,,,,,,,,,,,,,,,,,,,,,,,,,,,,,,,,,,,"[""period"",""period"",""comma"",""comma"",""period"",""period"",""comma"",""comma"",""period""]",0,92,0,92,0,1,"[0.0956000000238646,0.22400000000004638,0.3551000000238673,0.7386000000238937,1.0004999999999882,1.2068999999761445,1.5167000000477628,1.6833999999761318,1.7827000000477256]",,
,,,,,,,,,,,,607f367c60fe33f8f18816d1,25,Kobieta,2022-06-11_09h12.54.267,task,2021.1.4,Win32,60.10699044,6299f149e92ead563fba08ef,62a43f005d2a26aeb3938bdd,,,,,,,,,,,,,,,,,,,,,,,,,,,,,,,,,,,,,,,,,,,,,,,,,,,,,,,,,,,,,,,,,,,,,,,,,,,,,,,,,,,,,,,,,,,,"[""comma"",""period"",""period"",""period"",""period"",""period"",""period"",""period""]",0,93,0,93,0,1,"[0.009100000023863686,0.14339999997616815,0.8732000000477456,1.0443999999761218,1.2163000000715556,1.6991000000238046,1.8245000000000573,1.9776000000238128]",,
,,,,,,,,,,,,607f367c60fe33f8f18816d1,25,Kobieta,2022-06-11_09h12.54.267,task,2021.1.4,Win32,60.10699044,6299f149e92ead563fba08ef,62a43f005d2a26aeb3938bdd,,,,,,,,,,,,,,,,,,,,,,,,,,,,,,,,,,,,,,,,,,,,,,,,,,,,,,,,,,,,,,,,,,,,,,,,,,,,,,,,,,,,,,,,,,,,"[""period"",""period"",""period"",""period"",""period"",""period""]",0,94,0,94,0,1,"[0.10079999995230082,0.3669999999999618,0.5005999999045798,0.6880999999045798,1.2535999999046226,1.8388999999760927]",,
,,,,,,,,,,,,607f367c60fe33f8f18816d1,25,Kobieta,2022-06-11_09h12.54.267,task,2021.1.4,Win32,60.10699044,6299f149e92ead563fba08ef,62a43f005d2a26aeb3938bdd,,,,,,,,,,,,,,,,,,,,,,,,,,,,,,,,,,,,,,,,,,,,,,,,,,,,,,,,,,,,,,,,,,,,,,,,,,,,,,,,,,,,,,,,,,,,"[""period"",""comma"",""period"",""comma"",""period"",""comma"",""period""]",0,95,0,95,0,1,"[0.4199999999999591,0.6577999999522035,0.8023999999760463,0.8956000000238191,1.0328999999760526,1.666100000023789,1.7828999999760526]",,
,,,,,,,,,,,,607f367c60fe33f8f18816d1,25,Kobieta,2022-06-11_09h12.54.267,task,2021.1.4,Win32,60.10699044,6299f149e92ead563fba08ef,62a43f005d2a26aeb3938bdd,,,,,,,,,,,,,,,,,,,,,,,,,,,,,,,,,,,,,,,,,,,,,,,,,,,,,,,,,,,,,,,,,,,,,,,,,,,,,,,,,,,,,,,,,,,,"[""comma"",""comma"",""period""]",0,96,0,96,0,1,"[0.8336999999285126,1.1063999999761336,1.2525999999046462]",,
,,,,,,,,,,,,607f367c60fe33f8f18816d1,25,Kobieta,2022-06-11_09h12.54.267,task,2021.1.4,Win32,60.10699044,6299f149e92ead563fba08ef,62a43f005d2a26aeb3938bdd,,,,,,,,,,,,,,,,,,,,,,,,,,,,,,,,,,,,,,,,,,,,,,,,,,,,,,,,,,,,,,,,,,,,,,,,,,,,,,,,,,,,,,,,,,,,"[""period"",""comma"",""period"",""period"",""comma""]",0,97,0,97,0,1,"[0.7047999999523427,0.774799999952279,1.3497999999523245,1.5521999999284617,1.841299999952298]",,
,,,,,,,,,,,,607f367c60fe33f8f18816d1,25,Kobieta,2022-06-11_09h12.54.267,task,2021.1.4,Win32,60.10699044,6299f149e92ead563fba08ef,62a43f005d2a26aeb3938bdd,,,,,,,,,,,,,,,,,,,,,,,,,,,,,,,,,,,,,,,,,,,,,,,,,,,,,,,,,,,,,,,,,,,,,,,,,,,,,,,,,,,,,,,,,,,,"[""comma"",""comma"",""period"",""comma"",""period"",""period"",""period""]",0,98,0,98,0,1,"[0.1675000000000182,0.3743999999761627,0.5119999999999436,0.6187000000476246,1.1359999999999673,1.3878999999761845,1.6401000000238355]",,
,,,,,,,,,,,,607f367c60fe33f8f18816d1,25,Kobieta,2022-06-11_09h12.54.267,task,2021.1.4,Win32,60.10699044,6299f149e92ead563fba08ef,62a43f005d2a26aeb3938bdd,,,,,,,,,,,,,,,,,,,,,,,,,,,,,,,,,,,,,,,,,,,,,,,,,,,,,,,,,,,,,,,,,,,,,,,,,,,,,,,,,,,,,,,,,,,,"[""period"",""comma"",""period"",""comma"",""comma""]",0,99,0,99,0,1,"[0.8008000000714901,1.0528000000714428,1.290300000071511,1.3613000000714237,1.76920000004759]",,
,,,,,,,,,,,,607f367c60fe33f8f18816d1,25,Kobieta,2022-06-11_09h12.54.267,task,2021.1.4,Win32,60.10699044,6299f149e92ead563fba08ef,62a43f005d2a26aeb3938bdd,,,,,,,,,,,,,,,,,,,,,,,,,,,,,,,,,,,,,,,,,,,,,,,,,,,,,,,,,,,,,,,,,,,,,,,,,,,,,,,,,,,,,,,,,,,,"[""period"",""comma"",""period"",""comma""]",0,100,0,100,0,1,"[-0.01479999995228809,0.9727000000476664,1.6402000000476846,1.7052000000477392]",,
,,,,,,,,,,,,607f367c60fe33f8f18816d1,25,Kobieta,2022-06-11_09h12.54.267,task,2021.1.4,Win32,60.10699044,6299f149e92ead563fba08ef,62a43f005d2a26aeb3938bdd,,,,,,,,,,,,,,,,,,,,,,,,,,,,,,,,,,,,,,,,,,,,,,,,,,,,,,,,,,,,,,,,,,,,,,,,,,,,,,,,,,,,,,,,,,,,"[""comma"",""comma"",""period""]",0,101,0,101,0,1,"[1.333399999976109,1.5498999999761054,1.6514999999999418]",,
,,,,,,,,,,,,607f367c60fe33f8f18816d1,25,Kobieta,2022-06-11_09h12.54.267,task,2021.1.4,Win32,60.10699044,6299f149e92ead563fba08ef,62a43f005d2a26aeb3938bdd,,,,,,,,,,,,,,,,,,,,,,,,,,,,,,,,,,,,,,,,,,,,,,,,,,,,,,,,,,,,,,,,,,,,,,,,,,,,,,,,,,,,,,,,,,,,"[""period"",""comma"",""comma"",""period""]",0,102,0,102,0,1,"[0.2339999999999236,0.5169999999999391,0.7721000000237837,0.9907000000476955]",,
,,,,,,,,,,,,607f367c60fe33f8f18816d1,25,Kobieta,2022-06-11_09h12.54.267,task,2021.1.4,Win32,60.10699044,6299f149e92ead563fba08ef,62a43f005d2a26aeb3938bdd,,,,,,,,,,,,,,,,,,,,,,,,,,,,,,,,,,,,,,,,,,,,,,,,,,,,,,,,,,,,,,,,,,,,,,,,,,,,,,,,,,,,,,,,,,,,"[""comma"",""period"",""comma"",""period"",""period"",""period"",""period"",""period"",""period"",""period""]",0,103,0,103,0,1,"[0.08399999999994634,0.15049999999996544,0.30070000004764097,0.36660000002382276,0.7234000000953529,0.8503000000714565,0.9786000000237891,1.0894000000953383,1.3162000000476155,1.4504000000953283]",,
,,,,,,,,,,,,607f367c60fe33f8f18816d1,25,Kobieta,2022-06-11_09h12.54.267,task,2021.1.4,Win32,60.10699044,6299f149e92ead563fba08ef,62a43f005d2a26aeb3938bdd,,,,,,,,,,,,,,,,,,,,,,,,,,,,,,,,,,,,,,,,,,,,,,,,,,,,,,,,,,,,,,,,,,,,,,,,,,,,,,,,,,,,,,,,,,,,"[""comma"",""comma"",""comma"",""comma"",""comma"",""comma"",""comma""]",0,104,0,104,0,1,"[0.2462999999522708,0.4385999999046817,0.5997999999523245,0.8330999999046753,1.0679999999999836,1.29979999995237,1.788499999999999]",,
,,,,,,,,,,,,607f367c60fe33f8f18816d1,25,Kobieta,2022-06-11_09h12.54.267,task,2021.1.4,Win32,60.10699044,6299f149e92ead563fba08ef,62a43f005d2a26aeb3938bdd,,,,,,,,,,,,,,,,,,,,,,,,,,,,,,,,,,,,,,,,,,,,,,,,,,,,,,,,,,,,,,,,,,,,,,,,,,,,,,,,,,,,,,,,,,,,"[""period"",""period"",""period"",""period"",""period"",""period""]",0,105,0,105,0,1,"[0.11850000000004002,0.33460000002378365,0.5507999999523463,0.7081000000238191,1.792399999976169,1.9587999999523618]",,
,,,,,,,,,,,,607f367c60fe33f8f18816d1,25,Kobieta,2022-06-11_09h12.54.267,task,2021.1.4,Win32,60.10699044,6299f149e92ead563fba08ef,62a43f005d2a26aeb3938bdd,,,,,,,,,,,,,,,,,,,,,,,,,,,,,,,,,,,,,,,,,,,,,,,,,,,,,,,,,,,,,,,,,,,,,,,,,,,,,,,,,,,,,,,,,,,,"[""comma"",""comma"",""comma"",""period"",""comma"",""period""]",0,106,0,106,0,1,"[0.23220000004766916,0.49129999995227536,0.6861000000238846,1.0517000000476173,1.4241000000238273,1.6711000000237846]",,
,,,,,,,,,,,,607f367c60fe33f8f18816d1,25,Kobieta,2022-06-11_09h12.54.267,task,2021.1.4,Win32,60.10699044,6299f149e92ead563fba08ef,62a43f005d2a26aeb3938bdd,,,,,,,,,,,,,,,,,,,,,,,,,,,,,,,,,,,,,,,,,,,,,,,,,,,,,,,,,,,,,,,,,,,,,,,,,,,,,,,,,,,,,,,,,,,,"[""period"",""period"",""comma"",""comma"",""comma"",""comma"",""comma"",""comma"",""comma""]",0,107,0,107,0,1,"[0.23329999995235084,0.6890000000000782,0.9052999999523763,1.2006000000238828,1.4176000000238673,1.5662999999523208,1.6726000000238628,1.8032000000476955,1.934500000000071]",,
,,,,,,,,,,,,607f367c60fe33f8f18816d1,25,Kobieta,2022-06-11_09h12.54.267,task,2021.1.4,Win32,60.10699044,6299f149e92ead563fba08ef,62a43f005d2a26aeb3938bdd,,,,,,,,,,,,,,,,,,,,,,,,,,,,,,,,,,,,,,,,,,,,,,,,,,,,,,,,,,,,,,,,,,,,,,,,,,,,,,,,,,,,,,,,,,,,"[""comma"",""comma"",""comma"",""comma"",""comma"",""comma"",""period"",""comma"",""period"",""period"",""period"",""period"",""comma""]",0,108,0,108,0,1,"[0.0511000000238937,0.20060000002388279,0.30070000004775466,0.4250000000000682,0.5588000000715283,0.70539999997618,1.0253000000715247,1.1388000000715692,1.2951000000238082,1.4998999999761509,1.6237000000477337,1.749600000023861,1.8664999999999736]",,
,,,,,,,,,,,,607f367c60fe33f8f18816d1,25,Kobieta,2022-06-11_09h12.54.267,task,2021.1.4,Win32,60.10699044,6299f149e92ead563fba08ef,62a43f005d2a26aeb3938bdd,,,,,,,,,,,,,,,,,,,,,,,,,,,,,,,,,,,,,,,,,,,,,,,,,,,,,,,,,,,,,,,,,,,,,,,,,,,,,,,,,,,,,,,,,,,,"[""period"",""period"",""period"",""period"",""comma"",""comma"",""comma"",""comma"",""period""]",0,109,0,109,0,1,"[0.3077000000477028,0.5568999999761672,0.7001000000237809,0.8103999999761982,0.9501000000237809,1.3495000000000346,1.499600000023861,1.7221000000238291,1.8051000000237991]",,
,,,,,,,,,,,,607f367c60fe33f8f18816d1,25,Kobieta,2022-06-11_09h12.54.267,task,2021.1.4,Win32,60.10699044,6299f149e92ead563fba08ef,62a43f005d2a26aeb3938bdd,,,,,,,,,,,,,,,,,,,,,,,,,,,,,,,,,,,,,,,,,,,,,,,,,,,,,,,,,,,,,,,,,,,,,,,,,,,,,,,,,,,,,,,,,,,,"[""period"",""period"",""period"",""comma"",""period"",""comma"",""period"",""comma"",""period"",""comma"",""period"",""period""]",0,110,0,110,0,1,"[0.20170000004759459,0.2931000000237418,0.4174999999999045,0.6038000000714874,0.9058999999760999,0.9763000000714328,1.1168999999761127,1.2093999999760854,1.3700000000000045,1.4838999999760745,1.685800000071481,1.8972000000476328]",,
,,,,,,,,,,,,607f367c60fe33f8f18816d1,25,Kobieta,2022-06-11_09h12.54.267,task,2021.1.4,Win32,60.10699044,6299f149e92ead563fba08ef,62a43f005d2a26aeb3938bdd,,,,,,,,,,,,,,,,,,,,,,,,,,,,,,,,,,,,,,,,,,,,,,,,,,,,,,,,,,,,,,,,,,,,,,,,,,,,,,,,,,,,,,,,,,,,"[""period"",""period"",""comma"",""period"",""period"",""comma"",""period"",""comma"",""period""]",0,111,0,111,0,1,"[0.3243000000716165,0.45080000007158105,0.5504000000954647,0.7918000000715892,1.174100000023941,1.3162000000477292,1.4867000000477901,1.5677000000476937,1.6996000000239064]",,
,,,,,,,,,,,,607f367c60fe33f8f18816d1,25,Kobieta,2022-06-11_09h12.54.267,task,2021.1.4,Win32,60.10699044,6299f149e92ead563fba08ef,62a43f005d2a26aeb3938bdd,,,,,,,,,,,,,,,,,,,,,,,,,,,,,,,,,,,,,,,,,,,,,,,,,,,,,,,,,,,,,,,,,,,,,,,,,,,,,,,,,,,,,,,,,,,,"[""comma"",""period"",""period"",""comma"",""period"",""comma"",""period"",""period"",""period"",""period""]",0,112,0,112,0,1,"[-0.01569999992841531,0.14080000007152194,0.5433000000715538,0.7870000000000346,0.9333000000715401,1.0335000000000036,1.1333999999761772,1.666600000023891,1.7888000000715465,1.9048999999761236]",,
,,,,,,,,,,,,607f367c60fe33f8f18816d1,25,Kobieta,2022-06-11_09h12.54.267,task,2021.1.4,Win32,60.10699044,6299f149e92ead563fba08ef,62a43f005d2a26aeb3938bdd,,,,,,,,,,,,,,,,,,,,,,,,,,,,,,,,,,,,,,,,,,,,,,,,,,,,,,,,,,,,,,,,,,,,,,,,,,,,,,,,,,,,,,,,,,,,"[""comma"",""comma"",""period"",""comma"",""period"",""comma"",""period"",""comma"",""period""]",0,113,0,113,0,1,"[0.009999999999990905,0.28629999995223443,0.45849999999995816,0.6577999999523172,0.8502999999523126,0.9849999999999,1.1837999999522708,1.4497999999522335,1.6434999999999036]",,
,,,,,,,,,,,,607f367c60fe33f8f18816d1,25,Kobieta,2022-06-11_09h12.54.267,task,2021.1.4,Win32,60.10699044,6299f149e92ead563fba08ef,62a43f005d2a26aeb3938bdd,,,,,,,,,,,,,,,,,,,,,,,,,,,,,,,,,,,,,,,,,,,,,,,,,,,,,,,,,,,,,,,,,,,,,,,,,,,,,,,,,,,,,,,,,,,,"[""period"",""period"",""comma"",""comma"",""period"",""comma"",""period"",""period""]",0,114,0,114,0,1,"[0.1674999999999045,0.2864999999999327,0.5506000000237918,0.7897000000476737,1.1537000000475928,1.3088000000715283,1.5001000000238491,1.80499999999995]",,
,,,,,,,,,,,,607f367c60fe33f8f18816d1,25,Kobieta,2022-06-11_09h12.54.267,task,2021.1.4,Win32,60.10699044,6299f149e92ead563fba08ef,62a43f005d2a26aeb3938bdd,,,,,,,,,,,,,,,,,,,,,,,,,,,,,,,,,,,,,,,,,,,,,,,,,,,,,,,,,,,,,,,,,,,,,,,,,,,,,,,,,,,,,,,,,,,,"[""comma"",""comma"",""period"",""comma"",""period"",""period"",""period"",""comma"",""comma""]",0,115,0,115,0,1,"[0.19020000004775284,0.37430000007157105,0.45020000004774374,0.5558000000715992,0.700400000095442,1.1183000000715992,1.5372000000477328,1.6673000000715774,1.8659000000953938]",,
,,,,,,,,,,,,607f367c60fe33f8f18816d1,25,Kobieta,2022-06-11_09h12.54.267,task,2021.1.4,Win32,60.10699044,6299f149e92ead563fba08ef,62a43f005d2a26aeb3938bdd,,,,,,,,,,,,,,,,,,,,,,,,,,,,,,,,,,,,,,,,,,,,,,,,,,,,,,,,,,,,,,,,,,,,,,,,,,,,,,,,,,,,,,,,,,,,"[""period"",""period"",""comma"",""comma"",""comma"",""period"",""comma""]",0,116,0,116,0,1,"[0.08389999997621089,0.3533999999762045,0.4367000000477219,1.391200000047661,1.6691000000238319,1.717999999999961,1.8661000000238346]",,
,,,,,,,,,,,,607f367c60fe33f8f18816d1,25,Kobieta,2022-06-11_09h12.54.267,task,2021.1.4,Win32,60.10699044,6299f149e92ead563fba08ef,62a43f005d2a26aeb3938bdd,,,,,,,,,,,,,,,,,,,,,,,,,,,,,,,,,,,,,,,,,,,,,,,,,,,,,,,,,,,,,,,,,,,,,,,,,,,,,,,,,,,,,,,,,,,,"[""period"",""comma"",""comma"",""period"",""comma"",""period"",""period"",""comma""]",0,117,0,117,0,1,"[0.0758999999761727,0.4668999999761354,0.8242000000476537,0.9668999999761354,1.1498000000715365,1.33299999999997,1.5993999999761854,1.7168000000715438]",,
,,,,,,,,,,,,607f367c60fe33f8f18816d1,25,Kobieta,2022-06-11_09h12.54.267,task,2021.1.4,Win32,60.10699044,6299f149e92ead563fba08ef,62a43f005d2a26aeb3938bdd,,,,,,,,,,,,,,,,,,,,,,,,,,,,,,,,,,,,,,,,,,,,,,,,,,,,,,,,,,,,,,,,,,,,,,,,,,,,,,,,,,,,,,,,,,,,"[""period"",""comma"",""period"",""comma"",""comma"",""comma"",""period"",""comma""]",0,118,0,118,0,1,"[0.29639999997607447,0.5172000000476373,0.9684999999999491,0.9728000000715156,1.4331000000238419,1.7164999999999964,1.8662000000476837,1.9496000000237927]",,
,,,,,,,,,,,,607f367c60fe33f8f18816d1,25,Kobieta,2022-06-11_09h12.54.267,task,2021.1.4,Win32,60.10699044,6299f149e92ead563fba08ef,62a43f005d2a26aeb3938bdd,,,,,,,,,,,,,,,,,,,,,,,,,,,,,,,,,,,,,,,,,,,,,,,,,,,,,,,,,,,,,,,,,,,,,,,,,,,,,,,,,,,,,,,,,,,,"[""period"",""comma"",""period"",""period""]",0,119,0,119,0,1,"[0.09000000000003183,0.18739999997615087,0.30380000007153285,1.7218000000715392]",,
,,,,,,,,,,,,607f367c60fe33f8f18816d1,25,Kobieta,2022-06-11_09h12.54.267,task,2021.1.4,Win32,60.10699044,6299f149e92ead563fba08ef,62a43f005d2a26aeb3938bdd,,,,,,,,,,,,,,,,,,,,,,,,,,,,,,,,,,,,,,,,,,,,,,,,,,,,,,,,,,,,,,,,,,,,,,,,,,,,,,,,,,,,,,,,,,,,,,,,,,,,space,0.0553
