key_resp_15.keys,key_resp_15.rt,key_resp_13.keys,key_resp_13.corr,ranodm_loop.thisRepN,ranodm_loop.thisTrialN,ranodm_loop.thisN,ranodm_loop.thisIndex,ranodm_loop.ran,participant,Wiek*,Płeć,date,expName,psychopyVersion,OS,frameRate,study_id,session,key_resp_13.rt,key_resp_16.keys,key_resp_16.rt,key_resp_4.keys,key_resp_4.rt,next_letter.thisRepN,next_letter.thisTrialN,next_letter.thisN,next_letter.thisIndex,next_letter.ran,letter,simple_recall,key_resp_5.keys,key_resp_5.rt,simple_recall_corr,simple_recall_corrkeys,next_level.thisRepN,next_level.thisTrialN,next_level.thisN,next_level.thisIndex,next_level.ran,key_resp_2.keys,key_resp_2.rt,digit_answer,key_resp.keys,key_resp.corr,key_resp.rt,RT_list,next_equation.thisRepN,next_equation.thisTrialN,next_equation.thisN,next_equation.thisIndex,next_equation.ran,Task,Trial,Problem,Operation_answer,processing_score,sumRT,meanRT,sumdiff,sd,RT,key_resp_3.keys,key_resp_3.rt,repeat_practice.thisRepN,repeat_practice.thisTrialN,repeat_practice.thisN,repeat_practice.thisIndex,repeat_practice.ran,key_resp_6.keys,key_resp_6.rt,key_resp_11.keys,key_resp_11.corr,key_resp_11.rt,operation_correct,repeat_if_wrong_prac.thisRepN,repeat_if_wrong_prac.thisTrialN,repeat_if_wrong_prac.thisN,repeat_if_wrong_prac.thisIndex,repeat_if_wrong_prac.ran,span_size_prac.thisRepN,span_size_prac.thisTrialN,span_size_prac.thisN,span_size_prac.thisIndex,span_size_prac.ran,complex_recall_practice,key_resp_9.keys,key_resp_9.corr,key_resp_9.rt,complex_prac_corr,span_recall_prac.thisRepN,span_recall_prac.thisTrialN,span_recall_prac.thisN,span_recall_prac.thisIndex,span_recall_prac.ran,key_resp_10.keys,key_resp_10.rt,key_resp_7.keys,key_resp_7.corr,key_resp_7.rt,repeat_if_wrong.thisRepN,repeat_if_wrong.thisTrialN,repeat_if_wrong.thisN,repeat_if_wrong.thisIndex,repeat_if_wrong.ran,span_size.thisRepN,span_size.thisTrialN,span_size.thisN,span_size.thisIndex,span_size.ran,complex_recall,key_resp_8.keys,key_resp_8.corr,key_resp_8.rt,complex_recall_corr,complex_recall_corrkeys,span_recall.thisRepN,span_recall.thisTrialN,span_recall.thisN,span_recall.thisIndex,span_recall.ran,key_resp_12.keys,key_resp_12.rt
space,31.6628,,0,0,0,0,0,1,60866f8615f854acc11700cf,24,Mężczyzna,2022-06-04_08h34.06.704,task,2021.1.4,Win32,60.21919788,628b806c463b948bc644b84f,629afc187da580b72ee631a2,,,,,,,,,,,,,,,,,,,,,,,,,,,,,,,,,,,,,,,,,,,,,,,,,,,,,,,,,,,,,,,,,,,,,,,,,,,,,,,,,,,,,,,,,,,,,,,,,,,,,,,,
,,"[""comma""]",0,1,0,1,0,1,60866f8615f854acc11700cf,24,Mężczyzna,2022-06-04_08h34.06.704,task,2021.1.4,Win32,60.21919788,628b806c463b948bc644b84f,629afc187da580b72ee631a2,[1.18419999999972],,,,,,,,,,,,,,,,,,,,,,,,,,,,,,,,,,,,,,,,,,,,,,,,,,,,,,,,,,,,,,,,,,,,,,,,,,,,,,,,,,,,,,,,,,,,,,,,,,,,,,,
,,"[""period""]",0,2,0,2,0,1,60866f8615f854acc11700cf,24,Mężczyzna,2022-06-04_08h34.06.704,task,2021.1.4,Win32,60.21919788,628b806c463b948bc644b84f,629afc187da580b72ee631a2,[0.48450000000001125],,,,,,,,,,,,,,,,,,,,,,,,,,,,,,,,,,,,,,,,,,,,,,,,,,,,,,,,,,,,,,,,,,,,,,,,,,,,,,,,,,,,,,,,,,,,,,,,,,,,,,,
,,"[""period""]",0,3,0,3,0,1,60866f8615f854acc11700cf,24,Mężczyzna,2022-06-04_08h34.06.704,task,2021.1.4,Win32,60.21919788,628b806c463b948bc644b84f,629afc187da580b72ee631a2,[0.7838999999999032],,,,,,,,,,,,,,,,,,,,,,,,,,,,,,,,,,,,,,,,,,,,,,,,,,,,,,,,,,,,,,,,,,,,,,,,,,,,,,,,,,,,,,,,,,,,,,,,,,,,,,,
,,"[""period""]",0,4,0,4,0,1,60866f8615f854acc11700cf,24,Mężczyzna,2022-06-04_08h34.06.704,task,2021.1.4,Win32,60.21919788,628b806c463b948bc644b84f,629afc187da580b72ee631a2,[0.7666000000000821],,,,,,,,,,,,,,,,,,,,,,,,,,,,,,,,,,,,,,,,,,,,,,,,,,,,,,,,,,,,,,,,,,,,,,,,,,,,,,,,,,,,,,,,,,,,,,,,,,,,,,,
,,"[""comma""]",0,5,0,5,0,1,60866f8615f854acc11700cf,24,Mężczyzna,2022-06-04_08h34.06.704,task,2021.1.4,Win32,60.21919788,628b806c463b948bc644b84f,629afc187da580b72ee631a2,[0.5841999999997114],,,,,,,,,,,,,,,,,,,,,,,,,,,,,,,,,,,,,,,,,,,,,,,,,,,,,,,,,,,,,,,,,,,,,,,,,,,,,,,,,,,,,,,,,,,,,,,,,,,,,,,
,,"[""comma""]",0,6,0,6,0,1,60866f8615f854acc11700cf,24,Mężczyzna,2022-06-04_08h34.06.704,task,2021.1.4,Win32,60.21919788,628b806c463b948bc644b84f,629afc187da580b72ee631a2,[0.4998000000002776],,,,,,,,,,,,,,,,,,,,,,,,,,,,,,,,,,,,,,,,,,,,,,,,,,,,,,,,,,,,,,,,,,,,,,,,,,,,,,,,,,,,,,,,,,,,,,,,,,,,,,,
,,"[""comma""]",0,7,0,7,0,1,60866f8615f854acc11700cf,24,Mężczyzna,2022-06-04_08h34.06.704,task,2021.1.4,Win32,60.21919788,628b806c463b948bc644b84f,629afc187da580b72ee631a2,[0.6512000000001876],,,,,,,,,,,,,,,,,,,,,,,,,,,,,,,,,,,,,,,,,,,,,,,,,,,,,,,,,,,,,,,,,,,,,,,,,,,,,,,,,,,,,,,,,,,,,,,,,,,,,,,
,,"[""comma""]",0,8,0,8,0,1,60866f8615f854acc11700cf,24,Mężczyzna,2022-06-04_08h34.06.704,task,2021.1.4,Win32,60.21919788,628b806c463b948bc644b84f,629afc187da580b72ee631a2,[0.4183000000002721],,,,,,,,,,,,,,,,,,,,,,,,,,,,,,,,,,,,,,,,,,,,,,,,,,,,,,,,,,,,,,,,,,,,,,,,,,,,,,,,,,,,,,,,,,,,,,,,,,,,,,,
,,"[""comma""]",0,9,0,9,0,1,60866f8615f854acc11700cf,24,Mężczyzna,2022-06-04_08h34.06.704,task,2021.1.4,Win32,60.21919788,628b806c463b948bc644b84f,629afc187da580b72ee631a2,[0.3186000000000888],,,,,,,,,,,,,,,,,,,,,,,,,,,,,,,,,,,,,,,,,,,,,,,,,,,,,,,,,,,,,,,,,,,,,,,,,,,,,,,,,,,,,,,,,,,,,,,,,,,,,,,
,,"[""period""]",0,10,0,10,0,1,60866f8615f854acc11700cf,24,Mężczyzna,2022-06-04_08h34.06.704,task,2021.1.4,Win32,60.21919788,628b806c463b948bc644b84f,629afc187da580b72ee631a2,[0.41820000000018354],,,,,,,,,,,,,,,,,,,,,,,,,,,,,,,,,,,,,,,,,,,,,,,,,,,,,,,,,,,,,,,,,,,,,,,,,,,,,,,,,,,,,,,,,,,,,,,,,,,,,,,
,,"[""comma""]",0,11,0,11,0,1,60866f8615f854acc11700cf,24,Mężczyzna,2022-06-04_08h34.06.704,task,2021.1.4,Win32,60.21919788,628b806c463b948bc644b84f,629afc187da580b72ee631a2,[0.2844999999999942],,,,,,,,,,,,,,,,,,,,,,,,,,,,,,,,,,,,,,,,,,,,,,,,,,,,,,,,,,,,,,,,,,,,,,,,,,,,,,,,,,,,,,,,,,,,,,,,,,,,,,,
,,"[""comma""]",0,12,0,12,0,1,60866f8615f854acc11700cf,24,Mężczyzna,2022-06-04_08h34.06.704,task,2021.1.4,Win32,60.21919788,628b806c463b948bc644b84f,629afc187da580b72ee631a2,[0.25139999999990437],,,,,,,,,,,,,,,,,,,,,,,,,,,,,,,,,,,,,,,,,,,,,,,,,,,,,,,,,,,,,,,,,,,,,,,,,,,,,,,,,,,,,,,,,,,,,,,,,,,,,,,
,,"[""period""]",0,13,0,13,0,1,60866f8615f854acc11700cf,24,Mężczyzna,2022-06-04_08h34.06.704,task,2021.1.4,Win32,60.21919788,628b806c463b948bc644b84f,629afc187da580b72ee631a2,[0.2687999999998283],,,,,,,,,,,,,,,,,,,,,,,,,,,,,,,,,,,,,,,,,,,,,,,,,,,,,,,,,,,,,,,,,,,,,,,,,,,,,,,,,,,,,,,,,,,,,,,,,,,,,,,
,,"[""period""]",0,14,0,14,0,1,60866f8615f854acc11700cf,24,Mężczyzna,2022-06-04_08h34.06.704,task,2021.1.4,Win32,60.21919788,628b806c463b948bc644b84f,629afc187da580b72ee631a2,[0.26740000000037867],,,,,,,,,,,,,,,,,,,,,,,,,,,,,,,,,,,,,,,,,,,,,,,,,,,,,,,,,,,,,,,,,,,,,,,,,,,,,,,,,,,,,,,,,,,,,,,,,,,,,,,
,,"[""period""]",0,15,0,15,0,1,60866f8615f854acc11700cf,24,Mężczyzna,2022-06-04_08h34.06.704,task,2021.1.4,Win32,60.21919788,628b806c463b948bc644b84f,629afc187da580b72ee631a2,[0.9004999999999939],,,,,,,,,,,,,,,,,,,,,,,,,,,,,,,,,,,,,,,,,,,,,,,,,,,,,,,,,,,,,,,,,,,,,,,,,,,,,,,,,,,,,,,,,,,,,,,,,,,,,,,
,,"[""period""]",0,16,0,16,0,1,60866f8615f854acc11700cf,24,Mężczyzna,2022-06-04_08h34.06.704,task,2021.1.4,Win32,60.21919788,628b806c463b948bc644b84f,629afc187da580b72ee631a2,[1.0338999999999032],,,,,,,,,,,,,,,,,,,,,,,,,,,,,,,,,,,,,,,,,,,,,,,,,,,,,,,,,,,,,,,,,,,,,,,,,,,,,,,,,,,,,,,,,,,,,,,,,,,,,,,
,,"[""period""]",0,17,0,17,0,1,60866f8615f854acc11700cf,24,Mężczyzna,2022-06-04_08h34.06.704,task,2021.1.4,Win32,60.21919788,628b806c463b948bc644b84f,629afc187da580b72ee631a2,[0.7667999999998187],,,,,,,,,,,,,,,,,,,,,,,,,,,,,,,,,,,,,,,,,,,,,,,,,,,,,,,,,,,,,,,,,,,,,,,,,,,,,,,,,,,,,,,,,,,,,,,,,,,,,,,
,,"[""comma""]",0,18,0,18,0,1,60866f8615f854acc11700cf,24,Mężczyzna,2022-06-04_08h34.06.704,task,2021.1.4,Win32,60.21919788,628b806c463b948bc644b84f,629afc187da580b72ee631a2,[0.860800000000296],,,,,,,,,,,,,,,,,,,,,,,,,,,,,,,,,,,,,,,,,,,,,,,,,,,,,,,,,,,,,,,,,,,,,,,,,,,,,,,,,,,,,,,,,,,,,,,,,,,,,,,
,,"[""comma""]",0,19,0,19,0,1,60866f8615f854acc11700cf,24,Mężczyzna,2022-06-04_08h34.06.704,task,2021.1.4,Win32,60.21919788,628b806c463b948bc644b84f,629afc187da580b72ee631a2,[0.9843999999999085],,,,,,,,,,,,,,,,,,,,,,,,,,,,,,,,,,,,,,,,,,,,,,,,,,,,,,,,,,,,,,,,,,,,,,,,,,,,,,,,,,,,,,,,,,,,,,,,,,,,,,,
,,"[""comma""]",0,20,0,20,0,1,60866f8615f854acc11700cf,24,Mężczyzna,2022-06-04_08h34.06.704,task,2021.1.4,Win32,60.21919788,628b806c463b948bc644b84f,629afc187da580b72ee631a2,[0.6509000000003482],,,,,,,,,,,,,,,,,,,,,,,,,,,,,,,,,,,,,,,,,,,,,,,,,,,,,,,,,,,,,,,,,,,,,,,,,,,,,,,,,,,,,,,,,,,,,,,,,,,,,,,
,,"[""period""]",0,21,0,21,0,1,60866f8615f854acc11700cf,24,Mężczyzna,2022-06-04_08h34.06.704,task,2021.1.4,Win32,60.21919788,628b806c463b948bc644b84f,629afc187da580b72ee631a2,[0.48410000000009745],,,,,,,,,,,,,,,,,,,,,,,,,,,,,,,,,,,,,,,,,,,,,,,,,,,,,,,,,,,,,,,,,,,,,,,,,,,,,,,,,,,,,,,,,,,,,,,,,,,,,,,
,,"[""period""]",0,22,0,22,0,1,60866f8615f854acc11700cf,24,Mężczyzna,2022-06-04_08h34.06.704,task,2021.1.4,Win32,60.21919788,628b806c463b948bc644b84f,629afc187da580b72ee631a2,[0.39219999999971833],,,,,,,,,,,,,,,,,,,,,,,,,,,,,,,,,,,,,,,,,,,,,,,,,,,,,,,,,,,,,,,,,,,,,,,,,,,,,,,,,,,,,,,,,,,,,,,,,,,,,,,
,,"[""comma""]",0,23,0,23,0,1,60866f8615f854acc11700cf,24,Mężczyzna,2022-06-04_08h34.06.704,task,2021.1.4,Win32,60.21919788,628b806c463b948bc644b84f,629afc187da580b72ee631a2,[0.26669999999973015],,,,,,,,,,,,,,,,,,,,,,,,,,,,,,,,,,,,,,,,,,,,,,,,,,,,,,,,,,,,,,,,,,,,,,,,,,,,,,,,,,,,,,,,,,,,,,,,,,,,,,,
,,"[""comma""]",0,24,0,24,0,1,60866f8615f854acc11700cf,24,Mężczyzna,2022-06-04_08h34.06.704,task,2021.1.4,Win32,60.21919788,628b806c463b948bc644b84f,629afc187da580b72ee631a2,[0.22689999999991528],,,,,,,,,,,,,,,,,,,,,,,,,,,,,,,,,,,,,,,,,,,,,,,,,,,,,,,,,,,,,,,,,,,,,,,,,,,,,,,,,,,,,,,,,,,,,,,,,,,,,,,
,,"[""comma""]",0,25,0,25,0,1,60866f8615f854acc11700cf,24,Mężczyzna,2022-06-04_08h34.06.704,task,2021.1.4,Win32,60.21919788,628b806c463b948bc644b84f,629afc187da580b72ee631a2,[0.24979999999982283],,,,,,,,,,,,,,,,,,,,,,,,,,,,,,,,,,,,,,,,,,,,,,,,,,,,,,,,,,,,,,,,,,,,,,,,,,,,,,,,,,,,,,,,,,,,,,,,,,,,,,,
,,"[""comma"",""period""]",0,26,0,26,0,1,60866f8615f854acc11700cf,24,Mężczyzna,2022-06-04_08h34.06.704,task,2021.1.4,Win32,60.21919788,628b806c463b948bc644b84f,629afc187da580b72ee631a2,"[0.2876000000000829,1.9675000000000011]",,,,,,,,,,,,,,,,,,,,,,,,,,,,,,,,,,,,,,,,,,,,,,,,,,,,,,,,,,,,,,,,,,,,,,,,,,,,,,,,,,,,,,,,,,,,,,,,,,,,,,,
,,,0,27,0,27,0,1,60866f8615f854acc11700cf,24,Mężczyzna,2022-06-04_08h34.06.704,task,2021.1.4,Win32,60.21919788,628b806c463b948bc644b84f,629afc187da580b72ee631a2,,,,,,,,,,,,,,,,,,,,,,,,,,,,,,,,,,,,,,,,,,,,,,,,,,,,,,,,,,,,,,,,,,,,,,,,,,,,,,,,,,,,,,,,,,,,,,,,,,,,,,,,
,,"[""comma""]",0,28,0,28,0,1,60866f8615f854acc11700cf,24,Mężczyzna,2022-06-04_08h34.06.704,task,2021.1.4,Win32,60.21919788,628b806c463b948bc644b84f,629afc187da580b72ee631a2,[0.2561000000000888],,,,,,,,,,,,,,,,,,,,,,,,,,,,,,,,,,,,,,,,,,,,,,,,,,,,,,,,,,,,,,,,,,,,,,,,,,,,,,,,,,,,,,,,,,,,,,,,,,,,,,,
,,"[""comma""]",0,29,0,29,0,1,60866f8615f854acc11700cf,24,Mężczyzna,2022-06-04_08h34.06.704,task,2021.1.4,Win32,60.21919788,628b806c463b948bc644b84f,629afc187da580b72ee631a2,[0.2673999999999239],,,,,,,,,,,,,,,,,,,,,,,,,,,,,,,,,,,,,,,,,,,,,,,,,,,,,,,,,,,,,,,,,,,,,,,,,,,,,,,,,,,,,,,,,,,,,,,,,,,,,,,
,,"[""period""]",0,30,0,30,0,1,60866f8615f854acc11700cf,24,Mężczyzna,2022-06-04_08h34.06.704,task,2021.1.4,Win32,60.21919788,628b806c463b948bc644b84f,629afc187da580b72ee631a2,[0.2671000000001129],,,,,,,,,,,,,,,,,,,,,,,,,,,,,,,,,,,,,,,,,,,,,,,,,,,,,,,,,,,,,,,,,,,,,,,,,,,,,,,,,,,,,,,,,,,,,,,,,,,,,,,
,,"[""period""]",0,31,0,31,0,1,60866f8615f854acc11700cf,24,Mężczyzna,2022-06-04_08h34.06.704,task,2021.1.4,Win32,60.21919788,628b806c463b948bc644b84f,629afc187da580b72ee631a2,[0.30010000000007153],,,,,,,,,,,,,,,,,,,,,,,,,,,,,,,,,,,,,,,,,,,,,,,,,,,,,,,,,,,,,,,,,,,,,,,,,,,,,,,,,,,,,,,,,,,,,,,,,,,,,,,
,,"[""period""]",0,32,0,32,0,1,60866f8615f854acc11700cf,24,Mężczyzna,2022-06-04_08h34.06.704,task,2021.1.4,Win32,60.21919788,628b806c463b948bc644b84f,629afc187da580b72ee631a2,[0.23400000000000887],,,,,,,,,,,,,,,,,,,,,,,,,,,,,,,,,,,,,,,,,,,,,,,,,,,,,,,,,,,,,,,,,,,,,,,,,,,,,,,,,,,,,,,,,,,,,,,,,,,,,,,
,,"[""comma""]",0,33,0,33,0,1,60866f8615f854acc11700cf,24,Mężczyzna,2022-06-04_08h34.06.704,task,2021.1.4,Win32,60.21919788,628b806c463b948bc644b84f,629afc187da580b72ee631a2,[0.28299999999998704],,,,,,,,,,,,,,,,,,,,,,,,,,,,,,,,,,,,,,,,,,,,,,,,,,,,,,,,,,,,,,,,,,,,,,,,,,,,,,,,,,,,,,,,,,,,,,,,,,,,,,,
,,"[""period""]",0,34,0,34,0,1,60866f8615f854acc11700cf,24,Mężczyzna,2022-06-04_08h34.06.704,task,2021.1.4,Win32,60.21919788,628b806c463b948bc644b84f,629afc187da580b72ee631a2,[0.6256000000001052],,,,,,,,,,,,,,,,,,,,,,,,,,,,,,,,,,,,,,,,,,,,,,,,,,,,,,,,,,,,,,,,,,,,,,,,,,,,,,,,,,,,,,,,,,,,,,,,,,,,,,,
,,"[""comma""]",0,35,0,35,0,1,60866f8615f854acc11700cf,24,Mężczyzna,2022-06-04_08h34.06.704,task,2021.1.4,Win32,60.21919788,628b806c463b948bc644b84f,629afc187da580b72ee631a2,[1.084400000000386],,,,,,,,,,,,,,,,,,,,,,,,,,,,,,,,,,,,,,,,,,,,,,,,,,,,,,,,,,,,,,,,,,,,,,,,,,,,,,,,,,,,,,,,,,,,,,,,,,,,,,,
,,"[""period""]",0,36,0,36,0,1,60866f8615f854acc11700cf,24,Mężczyzna,2022-06-04_08h34.06.704,task,2021.1.4,Win32,60.21919788,628b806c463b948bc644b84f,629afc187da580b72ee631a2,[1.183899999999909],,,,,,,,,,,,,,,,,,,,,,,,,,,,,,,,,,,,,,,,,,,,,,,,,,,,,,,,,,,,,,,,,,,,,,,,,,,,,,,,,,,,,,,,,,,,,,,,,,,,,,,
,,"[""period""]",0,37,0,37,0,1,60866f8615f854acc11700cf,24,Mężczyzna,2022-06-04_08h34.06.704,task,2021.1.4,Win32,60.21919788,628b806c463b948bc644b84f,629afc187da580b72ee631a2,[1.184399999999897],,,,,,,,,,,,,,,,,,,,,,,,,,,,,,,,,,,,,,,,,,,,,,,,,,,,,,,,,,,,,,,,,,,,,,,,,,,,,,,,,,,,,,,,,,,,,,,,,,,,,,,
,,"[""comma""]",0,38,0,38,0,1,60866f8615f854acc11700cf,24,Mężczyzna,2022-06-04_08h34.06.704,task,2021.1.4,Win32,60.21919788,628b806c463b948bc644b84f,629afc187da580b72ee631a2,[1.0671999999997297],,,,,,,,,,,,,,,,,,,,,,,,,,,,,,,,,,,,,,,,,,,,,,,,,,,,,,,,,,,,,,,,,,,,,,,,,,,,,,,,,,,,,,,,,,,,,,,,,,,,,,,
,,"[""comma""]",0,39,0,39,0,1,60866f8615f854acc11700cf,24,Mężczyzna,2022-06-04_08h34.06.704,task,2021.1.4,Win32,60.21919788,628b806c463b948bc644b84f,629afc187da580b72ee631a2,[1.1673999999999012],,,,,,,,,,,,,,,,,,,,,,,,,,,,,,,,,,,,,,,,,,,,,,,,,,,,,,,,,,,,,,,,,,,,,,,,,,,,,,,,,,,,,,,,,,,,,,,,,,,,,,,
,,"[""comma""]",0,40,0,40,0,1,60866f8615f854acc11700cf,24,Mężczyzna,2022-06-04_08h34.06.704,task,2021.1.4,Win32,60.21919788,628b806c463b948bc644b84f,629afc187da580b72ee631a2,[1.0332999999998265],,,,,,,,,,,,,,,,,,,,,,,,,,,,,,,,,,,,,,,,,,,,,,,,,,,,,,,,,,,,,,,,,,,,,,,,,,,,,,,,,,,,,,,,,,,,,,,,,,,,,,,
,,"[""period""]",0,41,0,41,0,1,60866f8615f854acc11700cf,24,Mężczyzna,2022-06-04_08h34.06.704,task,2021.1.4,Win32,60.21919788,628b806c463b948bc644b84f,629afc187da580b72ee631a2,[1.0167999999998187],,,,,,,,,,,,,,,,,,,,,,,,,,,,,,,,,,,,,,,,,,,,,,,,,,,,,,,,,,,,,,,,,,,,,,,,,,,,,,,,,,,,,,,,,,,,,,,,,,,,,,,
,,"[""period""]",0,42,0,42,0,1,60866f8615f854acc11700cf,24,Mężczyzna,2022-06-04_08h34.06.704,task,2021.1.4,Win32,60.21919788,628b806c463b948bc644b84f,629afc187da580b72ee631a2,[0.9001000000000943],,,,,,,,,,,,,,,,,,,,,,,,,,,,,,,,,,,,,,,,,,,,,,,,,,,,,,,,,,,,,,,,,,,,,,,,,,,,,,,,,,,,,,,,,,,,,,,,,,,,,,,
,,"[""period""]",0,43,0,43,0,1,60866f8615f854acc11700cf,24,Mężczyzna,2022-06-04_08h34.06.704,task,2021.1.4,Win32,60.21919788,628b806c463b948bc644b84f,629afc187da580b72ee631a2,[1.0070999999996388],,,,,,,,,,,,,,,,,,,,,,,,,,,,,,,,,,,,,,,,,,,,,,,,,,,,,,,,,,,,,,,,,,,,,,,,,,,,,,,,,,,,,,,,,,,,,,,,,,,,,,,
,,"[""period""]",0,44,0,44,0,1,60866f8615f854acc11700cf,24,Mężczyzna,2022-06-04_08h34.06.704,task,2021.1.4,Win32,60.21919788,628b806c463b948bc644b84f,629afc187da580b72ee631a2,[0.7834999999999752],,,,,,,,,,,,,,,,,,,,,,,,,,,,,,,,,,,,,,,,,,,,,,,,,,,,,,,,,,,,,,,,,,,,,,,,,,,,,,,,,,,,,,,,,,,,,,,,,,,,,,,
,,"[""period""]",0,45,0,45,0,1,60866f8615f854acc11700cf,24,Mężczyzna,2022-06-04_08h34.06.704,task,2021.1.4,Win32,60.21919788,628b806c463b948bc644b84f,629afc187da580b72ee631a2,[0.8506000000000995],,,,,,,,,,,,,,,,,,,,,,,,,,,,,,,,,,,,,,,,,,,,,,,,,,,,,,,,,,,,,,,,,,,,,,,,,,,,,,,,,,,,,,,,,,,,,,,,,,,,,,,
,,"[""comma""]",0,46,0,46,0,1,60866f8615f854acc11700cf,24,Mężczyzna,2022-06-04_08h34.06.704,task,2021.1.4,Win32,60.21919788,628b806c463b948bc644b84f,629afc187da580b72ee631a2,[0.9728999999999246],,,,,,,,,,,,,,,,,,,,,,,,,,,,,,,,,,,,,,,,,,,,,,,,,,,,,,,,,,,,,,,,,,,,,,,,,,,,,,,,,,,,,,,,,,,,,,,,,,,,,,,
,,"[""comma""]",0,47,0,47,0,1,60866f8615f854acc11700cf,24,Mężczyzna,2022-06-04_08h34.06.704,task,2021.1.4,Win32,60.21919788,628b806c463b948bc644b84f,629afc187da580b72ee631a2,[0.7506000000000768],,,,,,,,,,,,,,,,,,,,,,,,,,,,,,,,,,,,,,,,,,,,,,,,,,,,,,,,,,,,,,,,,,,,,,,,,,,,,,,,,,,,,,,,,,,,,,,,,,,,,,,
,,"[""comma""]",0,48,0,48,0,1,60866f8615f854acc11700cf,24,Mężczyzna,2022-06-04_08h34.06.704,task,2021.1.4,Win32,60.21919788,628b806c463b948bc644b84f,629afc187da580b72ee631a2,[0.9691999999997449],,,,,,,,,,,,,,,,,,,,,,,,,,,,,,,,,,,,,,,,,,,,,,,,,,,,,,,,,,,,,,,,,,,,,,,,,,,,,,,,,,,,,,,,,,,,,,,,,,,,,,,
,,"[""comma""]",0,49,0,49,0,1,60866f8615f854acc11700cf,24,Mężczyzna,2022-06-04_08h34.06.704,task,2021.1.4,Win32,60.21919788,628b806c463b948bc644b84f,629afc187da580b72ee631a2,[0.9705000000000155],,,,,,,,,,,,,,,,,,,,,,,,,,,,,,,,,,,,,,,,,,,,,,,,,,,,,,,,,,,,,,,,,,,,,,,,,,,,,,,,,,,,,,,,,,,,,,,,,,,,,,,
,,"[""comma""]",0,50,0,50,0,1,60866f8615f854acc11700cf,24,Mężczyzna,2022-06-04_08h34.06.704,task,2021.1.4,Win32,60.21919788,628b806c463b948bc644b84f,629afc187da580b72ee631a2,[0.9823999999999273],,,,,,,,,,,,,,,,,,,,,,,,,,,,,,,,,,,,,,,,,,,,,,,,,,,,,,,,,,,,,,,,,,,,,,,,,,,,,,,,,,,,,,,,,,,,,,,,,,,,,,,
,,"[""comma""]",0,51,0,51,0,1,60866f8615f854acc11700cf,24,Mężczyzna,2022-06-04_08h34.06.704,task,2021.1.4,Win32,60.21919788,628b806c463b948bc644b84f,629afc187da580b72ee631a2,[1.0001999999997224],,,,,,,,,,,,,,,,,,,,,,,,,,,,,,,,,,,,,,,,,,,,,,,,,,,,,,,,,,,,,,,,,,,,,,,,,,,,,,,,,,,,,,,,,,,,,,,,,,,,,,,
,,"[""comma""]",0,52,0,52,0,1,60866f8615f854acc11700cf,24,Mężczyzna,2022-06-04_08h34.06.704,task,2021.1.4,Win32,60.21919788,628b806c463b948bc644b84f,629afc187da580b72ee631a2,[1.050299999999794],,,,,,,,,,,,,,,,,,,,,,,,,,,,,,,,,,,,,,,,,,,,,,,,,,,,,,,,,,,,,,,,,,,,,,,,,,,,,,,,,,,,,,,,,,,,,,,,,,,,,,,
,,"[""period""]",0,53,0,53,0,1,60866f8615f854acc11700cf,24,Mężczyzna,2022-06-04_08h34.06.704,task,2021.1.4,Win32,60.21919788,628b806c463b948bc644b84f,629afc187da580b72ee631a2,[0.8003000000002771],,,,,,,,,,,,,,,,,,,,,,,,,,,,,,,,,,,,,,,,,,,,,,,,,,,,,,,,,,,,,,,,,,,,,,,,,,,,,,,,,,,,,,,,,,,,,,,,,,,,,,,
,,"[""comma""]",0,54,0,54,0,1,60866f8615f854acc11700cf,24,Mężczyzna,2022-06-04_08h34.06.704,task,2021.1.4,Win32,60.21919788,628b806c463b948bc644b84f,629afc187da580b72ee631a2,[0.6894999999999811],,,,,,,,,,,,,,,,,,,,,,,,,,,,,,,,,,,,,,,,,,,,,,,,,,,,,,,,,,,,,,,,,,,,,,,,,,,,,,,,,,,,,,,,,,,,,,,,,,,,,,,
,,"[""comma""]",0,55,0,55,0,1,60866f8615f854acc11700cf,24,Mężczyzna,2022-06-04_08h34.06.704,task,2021.1.4,Win32,60.21919788,628b806c463b948bc644b84f,629afc187da580b72ee631a2,[0.9086000000000922],,,,,,,,,,,,,,,,,,,,,,,,,,,,,,,,,,,,,,,,,,,,,,,,,,,,,,,,,,,,,,,,,,,,,,,,,,,,,,,,,,,,,,,,,,,,,,,,,,,,,,,
,,"[""comma""]",0,56,0,56,0,1,60866f8615f854acc11700cf,24,Mężczyzna,2022-06-04_08h34.06.704,task,2021.1.4,Win32,60.21919788,628b806c463b948bc644b84f,629afc187da580b72ee631a2,[0.7838999999999317],,,,,,,,,,,,,,,,,,,,,,,,,,,,,,,,,,,,,,,,,,,,,,,,,,,,,,,,,,,,,,,,,,,,,,,,,,,,,,,,,,,,,,,,,,,,,,,,,,,,,,,
,,"[""period""]",0,57,0,57,0,1,60866f8615f854acc11700cf,24,Mężczyzna,2022-06-04_08h34.06.704,task,2021.1.4,Win32,60.21919788,628b806c463b948bc644b84f,629afc187da580b72ee631a2,[1.0001999999997224],,,,,,,,,,,,,,,,,,,,,,,,,,,,,,,,,,,,,,,,,,,,,,,,,,,,,,,,,,,,,,,,,,,,,,,,,,,,,,,,,,,,,,,,,,,,,,,,,,,,,,,
,,"[""period""]",0,58,0,58,0,1,60866f8615f854acc11700cf,24,Mężczyzna,2022-06-04_08h34.06.704,task,2021.1.4,Win32,60.21919788,628b806c463b948bc644b84f,629afc187da580b72ee631a2,[0.4757999999997935],,,,,,,,,,,,,,,,,,,,,,,,,,,,,,,,,,,,,,,,,,,,,,,,,,,,,,,,,,,,,,,,,,,,,,,,,,,,,,,,,,,,,,,,,,,,,,,,,,,,,,,
,,"[""period""]",0,59,0,59,0,1,60866f8615f854acc11700cf,24,Mężczyzna,2022-06-04_08h34.06.704,task,2021.1.4,Win32,60.21919788,628b806c463b948bc644b84f,629afc187da580b72ee631a2,[1.0674999999999955],,,,,,,,,,,,,,,,,,,,,,,,,,,,,,,,,,,,,,,,,,,,,,,,,,,,,,,,,,,,,,,,,,,,,,,,,,,,,,,,,,,,,,,,,,,,,,,,,,,,,,,
,,,0,60,0,60,0,1,60866f8615f854acc11700cf,24,Mężczyzna,2022-06-04_08h34.06.704,task,2021.1.4,Win32,60.21919788,628b806c463b948bc644b84f,629afc187da580b72ee631a2,,,,,,,,,,,,,,,,,,,,,,,,,,,,,,,,,,,,,,,,,,,,,,,,,,,,,,,,,,,,,,,,,,,,,,,,,,,,,,,,,,,,,,,,,,,,,,,,,,,,,,,,
,,"[""period""]",0,61,0,61,0,1,60866f8615f854acc11700cf,24,Mężczyzna,2022-06-04_08h34.06.704,task,2021.1.4,Win32,60.21919788,628b806c463b948bc644b84f,629afc187da580b72ee631a2,[0.2678999999999121],,,,,,,,,,,,,,,,,,,,,,,,,,,,,,,,,,,,,,,,,,,,,,,,,,,,,,,,,,,,,,,,,,,,,,,,,,,,,,,,,,,,,,,,,,,,,,,,,,,,,,,
,,"[""period""]",0,62,0,62,0,1,60866f8615f854acc11700cf,24,Mężczyzna,2022-06-04_08h34.06.704,task,2021.1.4,Win32,60.21919788,628b806c463b948bc644b84f,629afc187da580b72ee631a2,[0.9502999999997996],,,,,,,,,,,,,,,,,,,,,,,,,,,,,,,,,,,,,,,,,,,,,,,,,,,,,,,,,,,,,,,,,,,,,,,,,,,,,,,,,,,,,,,,,,,,,,,,,,,,,,,
,,"[""comma""]",0,63,0,63,0,1,60866f8615f854acc11700cf,24,Mężczyzna,2022-06-04_08h34.06.704,task,2021.1.4,Win32,60.21919788,628b806c463b948bc644b84f,629afc187da580b72ee631a2,[1.016700000000185],,,,,,,,,,,,,,,,,,,,,,,,,,,,,,,,,,,,,,,,,,,,,,,,,,,,,,,,,,,,,,,,,,,,,,,,,,,,,,,,,,,,,,,,,,,,,,,,,,,,,,,
,,"[""comma""]",0,64,0,64,0,1,60866f8615f854acc11700cf,24,Mężczyzna,2022-06-04_08h34.06.704,task,2021.1.4,Win32,60.21919788,628b806c463b948bc644b84f,629afc187da580b72ee631a2,[1.132599999999627],,,,,,,,,,,,,,,,,,,,,,,,,,,,,,,,,,,,,,,,,,,,,,,,,,,,,,,,,,,,,,,,,,,,,,,,,,,,,,,,,,,,,,,,,,,,,,,,,,,,,,,
,,"[""period""]",0,65,0,65,0,1,60866f8615f854acc11700cf,24,Mężczyzna,2022-06-04_08h34.06.704,task,2021.1.4,Win32,60.21919788,628b806c463b948bc644b84f,629afc187da580b72ee631a2,[1.183499999999981],,,,,,,,,,,,,,,,,,,,,,,,,,,,,,,,,,,,,,,,,,,,,,,,,,,,,,,,,,,,,,,,,,,,,,,,,,,,,,,,,,,,,,,,,,,,,,,,,,,,,,,
,,"[""period""]",0,66,0,66,0,1,60866f8615f854acc11700cf,24,Mężczyzna,2022-06-04_08h34.06.704,task,2021.1.4,Win32,60.21919788,628b806c463b948bc644b84f,629afc187da580b72ee631a2,[1.0341000000000804],,,,,,,,,,,,,,,,,,,,,,,,,,,,,,,,,,,,,,,,,,,,,,,,,,,,,,,,,,,,,,,,,,,,,,,,,,,,,,,,,,,,,,,,,,,,,,,,,,,,,,,
,,"[""comma""]",0,67,0,67,0,1,60866f8615f854acc11700cf,24,Mężczyzna,2022-06-04_08h34.06.704,task,2021.1.4,Win32,60.21919788,628b806c463b948bc644b84f,629afc187da580b72ee631a2,[0.717199999999707],,,,,,,,,,,,,,,,,,,,,,,,,,,,,,,,,,,,,,,,,,,,,,,,,,,,,,,,,,,,,,,,,,,,,,,,,,,,,,,,,,,,,,,,,,,,,,,,,,,,,,,
,,"[""period""]",0,68,0,68,0,1,60866f8615f854acc11700cf,24,Mężczyzna,2022-06-04_08h34.06.704,task,2021.1.4,Win32,60.21919788,628b806c463b948bc644b84f,629afc187da580b72ee631a2,[0.7668999999999073],,,,,,,,,,,,,,,,,,,,,,,,,,,,,,,,,,,,,,,,,,,,,,,,,,,,,,,,,,,,,,,,,,,,,,,,,,,,,,,,,,,,,,,,,,,,,,,,,,,,,,,
,,"[""period""]",0,69,0,69,0,1,60866f8615f854acc11700cf,24,Mężczyzna,2022-06-04_08h34.06.704,task,2021.1.4,Win32,60.21919788,628b806c463b948bc644b84f,629afc187da580b72ee631a2,[0.8833000000002755],,,,,,,,,,,,,,,,,,,,,,,,,,,,,,,,,,,,,,,,,,,,,,,,,,,,,,,,,,,,,,,,,,,,,,,,,,,,,,,,,,,,,,,,,,,,,,,,,,,,,,,
,,"[""period""]",0,70,0,70,0,1,60866f8615f854acc11700cf,24,Mężczyzna,2022-06-04_08h34.06.704,task,2021.1.4,Win32,60.21919788,628b806c463b948bc644b84f,629afc187da580b72ee631a2,[1.0671000000000959],,,,,,,,,,,,,,,,,,,,,,,,,,,,,,,,,,,,,,,,,,,,,,,,,,,,,,,,,,,,,,,,,,,,,,,,,,,,,,,,,,,,,,,,,,,,,,,,,,,,,,,
,,"[""comma""]",0,71,0,71,0,1,60866f8615f854acc11700cf,24,Mężczyzna,2022-06-04_08h34.06.704,task,2021.1.4,Win32,60.21919788,628b806c463b948bc644b84f,629afc187da580b72ee631a2,[0.7347000000002026],,,,,,,,,,,,,,,,,,,,,,,,,,,,,,,,,,,,,,,,,,,,,,,,,,,,,,,,,,,,,,,,,,,,,,,,,,,,,,,,,,,,,,,,,,,,,,,,,,,,,,,
,,"[""comma""]",0,72,0,72,0,1,60866f8615f854acc11700cf,24,Mężczyzna,2022-06-04_08h34.06.704,task,2021.1.4,Win32,60.21919788,628b806c463b948bc644b84f,629afc187da580b72ee631a2,[0.8007999999998106],,,,,,,,,,,,,,,,,,,,,,,,,,,,,,,,,,,,,,,,,,,,,,,,,,,,,,,,,,,,,,,,,,,,,,,,,,,,,,,,,,,,,,,,,,,,,,,,,,,,,,,
,,"[""comma""]",0,73,0,73,0,1,60866f8615f854acc11700cf,24,Mężczyzna,2022-06-04_08h34.06.704,task,2021.1.4,Win32,60.21919788,628b806c463b948bc644b84f,629afc187da580b72ee631a2,[1.0171000000000845],,,,,,,,,,,,,,,,,,,,,,,,,,,,,,,,,,,,,,,,,,,,,,,,,,,,,,,,,,,,,,,,,,,,,,,,,,,,,,,,,,,,,,,,,,,,,,,,,,,,,,,
,,"[""comma""]",0,74,0,74,0,1,60866f8615f854acc11700cf,24,Mężczyzna,2022-06-04_08h34.06.704,task,2021.1.4,Win32,60.21919788,628b806c463b948bc644b84f,629afc187da580b72ee631a2,[0.9835999999996261],,,,,,,,,,,,,,,,,,,,,,,,,,,,,,,,,,,,,,,,,,,,,,,,,,,,,,,,,,,,,,,,,,,,,,,,,,,,,,,,,,,,,,,,,,,,,,,,,,,,,,,
,,"[""comma""]",0,75,0,75,0,1,60866f8615f854acc11700cf,24,Mężczyzna,2022-06-04_08h34.06.704,task,2021.1.4,Win32,60.21919788,628b806c463b948bc644b84f,629afc187da580b72ee631a2,[0.9337000000001865],,,,,,,,,,,,,,,,,,,,,,,,,,,,,,,,,,,,,,,,,,,,,,,,,,,,,,,,,,,,,,,,,,,,,,,,,,,,,,,,,,,,,,,,,,,,,,,,,,,,,,,
,,"[""comma""]",0,76,0,76,0,1,60866f8615f854acc11700cf,24,Mężczyzna,2022-06-04_08h34.06.704,task,2021.1.4,Win32,60.21919788,628b806c463b948bc644b84f,629afc187da580b72ee631a2,[0.9329999999999927],,,,,,,,,,,,,,,,,,,,,,,,,,,,,,,,,,,,,,,,,,,,,,,,,,,,,,,,,,,,,,,,,,,,,,,,,,,,,,,,,,,,,,,,,,,,,,,,,,,,,,,
,,"[""period""]",0,77,0,77,0,1,60866f8615f854acc11700cf,24,Mężczyzna,2022-06-04_08h34.06.704,task,2021.1.4,Win32,60.21919788,628b806c463b948bc644b84f,629afc187da580b72ee631a2,[0.8339999999999748],,,,,,,,,,,,,,,,,,,,,,,,,,,,,,,,,,,,,,,,,,,,,,,,,,,,,,,,,,,,,,,,,,,,,,,,,,,,,,,,,,,,,,,,,,,,,,,,,,,,,,,
,,"[""period""]",0,78,0,78,0,1,60866f8615f854acc11700cf,24,Mężczyzna,2022-06-04_08h34.06.704,task,2021.1.4,Win32,60.21919788,628b806c463b948bc644b84f,629afc187da580b72ee631a2,[0.8171999999997297],,,,,,,,,,,,,,,,,,,,,,,,,,,,,,,,,,,,,,,,,,,,,,,,,,,,,,,,,,,,,,,,,,,,,,,,,,,,,,,,,,,,,,,,,,,,,,,,,,,,,,,
,,"[""comma""]",0,79,0,79,0,1,60866f8615f854acc11700cf,24,Mężczyzna,2022-06-04_08h34.06.704,task,2021.1.4,Win32,60.21919788,628b806c463b948bc644b84f,629afc187da580b72ee631a2,[0.7727000000001567],,,,,,,,,,,,,,,,,,,,,,,,,,,,,,,,,,,,,,,,,,,,,,,,,,,,,,,,,,,,,,,,,,,,,,,,,,,,,,,,,,,,,,,,,,,,,,,,,,,,,,,
,,"[""comma""]",0,80,0,80,0,1,60866f8615f854acc11700cf,24,Mężczyzna,2022-06-04_08h34.06.704,task,2021.1.4,Win32,60.21919788,628b806c463b948bc644b84f,629afc187da580b72ee631a2,[0.9837000000001694],,,,,,,,,,,,,,,,,,,,,,,,,,,,,,,,,,,,,,,,,,,,,,,,,,,,,,,,,,,,,,,,,,,,,,,,,,,,,,,,,,,,,,,,,,,,,,,,,,,,,,,
,,"[""comma""]",0,81,0,81,0,1,60866f8615f854acc11700cf,24,Mężczyzna,2022-06-04_08h34.06.704,task,2021.1.4,Win32,60.21919788,628b806c463b948bc644b84f,629afc187da580b72ee631a2,[0.8507999999998219],,,,,,,,,,,,,,,,,,,,,,,,,,,,,,,,,,,,,,,,,,,,,,,,,,,,,,,,,,,,,,,,,,,,,,,,,,,,,,,,,,,,,,,,,,,,,,,,,,,,,,,
,,"[""period""]",0,82,0,82,0,1,60866f8615f854acc11700cf,24,Mężczyzna,2022-06-04_08h34.06.704,task,2021.1.4,Win32,60.21919788,628b806c463b948bc644b84f,629afc187da580b72ee631a2,[0.8001000000001],,,,,,,,,,,,,,,,,,,,,,,,,,,,,,,,,,,,,,,,,,,,,,,,,,,,,,,,,,,,,,,,,,,,,,,,,,,,,,,,,,,,,,,,,,,,,,,,,,,,,,,
,,"[""period""]",0,83,0,83,0,1,60866f8615f854acc11700cf,24,Mężczyzna,2022-06-04_08h34.06.704,task,2021.1.4,Win32,60.21919788,628b806c463b948bc644b84f,629afc187da580b72ee631a2,[0.8423999999998841],,,,,,,,,,,,,,,,,,,,,,,,,,,,,,,,,,,,,,,,,,,,,,,,,,,,,,,,,,,,,,,,,,,,,,,,,,,,,,,,,,,,,,,,,,,,,,,,,,,,,,,
,,"[""period""]",0,84,0,84,0,1,60866f8615f854acc11700cf,24,Mężczyzna,2022-06-04_08h34.06.704,task,2021.1.4,Win32,60.21919788,628b806c463b948bc644b84f,629afc187da580b72ee631a2,[0.6820000000000164],,,,,,,,,,,,,,,,,,,,,,,,,,,,,,,,,,,,,,,,,,,,,,,,,,,,,,,,,,,,,,,,,,,,,,,,,,,,,,,,,,,,,,,,,,,,,,,,,,,,,,,
,,"[""comma""]",0,85,0,85,0,1,60866f8615f854acc11700cf,24,Mężczyzna,2022-06-04_08h34.06.704,task,2021.1.4,Win32,60.21919788,628b806c463b948bc644b84f,629afc187da580b72ee631a2,[0.5162999999997737],,,,,,,,,,,,,,,,,,,,,,,,,,,,,,,,,,,,,,,,,,,,,,,,,,,,,,,,,,,,,,,,,,,,,,,,,,,,,,,,,,,,,,,,,,,,,,,,,,,,,,,
,,"[""comma""]",0,86,0,86,0,1,60866f8615f854acc11700cf,24,Mężczyzna,2022-06-04_08h34.06.704,task,2021.1.4,Win32,60.21919788,628b806c463b948bc644b84f,629afc187da580b72ee631a2,[0.7608999999999355],,,,,,,,,,,,,,,,,,,,,,,,,,,,,,,,,,,,,,,,,,,,,,,,,,,,,,,,,,,,,,,,,,,,,,,,,,,,,,,,,,,,,,,,,,,,,,,,,,,,,,,
,,"[""period""]",0,87,0,87,0,1,60866f8615f854acc11700cf,24,Mężczyzna,2022-06-04_08h34.06.704,task,2021.1.4,Win32,60.21919788,628b806c463b948bc644b84f,629afc187da580b72ee631a2,[0.5438999999998941],,,,,,,,,,,,,,,,,,,,,,,,,,,,,,,,,,,,,,,,,,,,,,,,,,,,,,,,,,,,,,,,,,,,,,,,,,,,,,,,,,,,,,,,,,,,,,,,,,,,,,,
,,"[""comma""]",0,88,0,88,0,1,60866f8615f854acc11700cf,24,Mężczyzna,2022-06-04_08h34.06.704,task,2021.1.4,Win32,60.21919788,628b806c463b948bc644b84f,629afc187da580b72ee631a2,[0.583799999999826],,,,,,,,,,,,,,,,,,,,,,,,,,,,,,,,,,,,,,,,,,,,,,,,,,,,,,,,,,,,,,,,,,,,,,,,,,,,,,,,,,,,,,,,,,,,,,,,,,,,,,,
,,"[""period""]",0,89,0,89,0,1,60866f8615f854acc11700cf,24,Mężczyzna,2022-06-04_08h34.06.704,task,2021.1.4,Win32,60.21919788,628b806c463b948bc644b84f,629afc187da580b72ee631a2,[0.7161999999997306],,,,,,,,,,,,,,,,,,,,,,,,,,,,,,,,,,,,,,,,,,,,,,,,,,,,,,,,,,,,,,,,,,,,,,,,,,,,,,,,,,,,,,,,,,,,,,,,,,,,,,,
,,"[""period""]",0,90,0,90,0,1,60866f8615f854acc11700cf,24,Mężczyzna,2022-06-04_08h34.06.704,task,2021.1.4,Win32,60.21919788,628b806c463b948bc644b84f,629afc187da580b72ee631a2,[0.6505999999996561],,,,,,,,,,,,,,,,,,,,,,,,,,,,,,,,,,,,,,,,,,,,,,,,,,,,,,,,,,,,,,,,,,,,,,,,,,,,,,,,,,,,,,,,,,,,,,,,,,,,,,,
,,"[""period""]",0,91,0,91,0,1,60866f8615f854acc11700cf,24,Mężczyzna,2022-06-04_08h34.06.704,task,2021.1.4,Win32,60.21919788,628b806c463b948bc644b84f,629afc187da580b72ee631a2,[0.8001000000001],,,,,,,,,,,,,,,,,,,,,,,,,,,,,,,,,,,,,,,,,,,,,,,,,,,,,,,,,,,,,,,,,,,,,,,,,,,,,,,,,,,,,,,,,,,,,,,,,,,,,,,
,,"[""period""]",0,92,0,92,0,1,60866f8615f854acc11700cf,24,Mężczyzna,2022-06-04_08h34.06.704,task,2021.1.4,Win32,60.21919788,628b806c463b948bc644b84f,629afc187da580b72ee631a2,[0.8002999999998224],,,,,,,,,,,,,,,,,,,,,,,,,,,,,,,,,,,,,,,,,,,,,,,,,,,,,,,,,,,,,,,,,,,,,,,,,,,,,,,,,,,,,,,,,,,,,,,,,,,,,,,
,,"[""period""]",0,93,0,93,0,1,60866f8615f854acc11700cf,24,Mężczyzna,2022-06-04_08h34.06.704,task,2021.1.4,Win32,60.21919788,628b806c463b948bc644b84f,629afc187da580b72ee631a2,[0.7511000000001218],,,,,,,,,,,,,,,,,,,,,,,,,,,,,,,,,,,,,,,,,,,,,,,,,,,,,,,,,,,,,,,,,,,,,,,,,,,,,,,,,,,,,,,,,,,,,,,,,,,,,,,
,,"[""period""]",0,94,0,94,0,1,60866f8615f854acc11700cf,24,Mężczyzna,2022-06-04_08h34.06.704,task,2021.1.4,Win32,60.21919788,628b806c463b948bc644b84f,629afc187da580b72ee631a2,[0.6342000000001917],,,,,,,,,,,,,,,,,,,,,,,,,,,,,,,,,,,,,,,,,,,,,,,,,,,,,,,,,,,,,,,,,,,,,,,,,,,,,,,,,,,,,,,,,,,,,,,,,,,,,,,
,,"[""comma""]",0,95,0,95,0,1,60866f8615f854acc11700cf,24,Mężczyzna,2022-06-04_08h34.06.704,task,2021.1.4,Win32,60.21919788,628b806c463b948bc644b84f,629afc187da580b72ee631a2,[0.4835999999996261],,,,,,,,,,,,,,,,,,,,,,,,,,,,,,,,,,,,,,,,,,,,,,,,,,,,,,,,,,,,,,,,,,,,,,,,,,,,,,,,,,,,,,,,,,,,,,,,,,,,,,,
,,"[""comma""]",0,96,0,96,0,1,60866f8615f854acc11700cf,24,Mężczyzna,2022-06-04_08h34.06.704,task,2021.1.4,Win32,60.21919788,628b806c463b948bc644b84f,629afc187da580b72ee631a2,[0.6504000000003316],,,,,,,,,,,,,,,,,,,,,,,,,,,,,,,,,,,,,,,,,,,,,,,,,,,,,,,,,,,,,,,,,,,,,,,,,,,,,,,,,,,,,,,,,,,,,,,,,,,,,,,
,,"[""comma""]",0,97,0,97,0,1,60866f8615f854acc11700cf,24,Mężczyzna,2022-06-04_08h34.06.704,task,2021.1.4,Win32,60.21919788,628b806c463b948bc644b84f,629afc187da580b72ee631a2,[0.5500000000000114],,,,,,,,,,,,,,,,,,,,,,,,,,,,,,,,,,,,,,,,,,,,,,,,,,,,,,,,,,,,,,,,,,,,,,,,,,,,,,,,,,,,,,,,,,,,,,,,,,,,,,,
,,"[""comma""]",0,98,0,98,0,1,60866f8615f854acc11700cf,24,Mężczyzna,2022-06-04_08h34.06.704,task,2021.1.4,Win32,60.21919788,628b806c463b948bc644b84f,629afc187da580b72ee631a2,[0.6841000000000577],,,,,,,,,,,,,,,,,,,,,,,,,,,,,,,,,,,,,,,,,,,,,,,,,,,,,,,,,,,,,,,,,,,,,,,,,,,,,,,,,,,,,,,,,,,,,,,,,,,,,,,
,,"[""period""]",0,99,0,99,0,1,60866f8615f854acc11700cf,24,Mężczyzna,2022-06-04_08h34.06.704,task,2021.1.4,Win32,60.21919788,628b806c463b948bc644b84f,629afc187da580b72ee631a2,[0.5172999999998069],,,,,,,,,,,,,,,,,,,,,,,,,,,,,,,,,,,,,,,,,,,,,,,,,,,,,,,,,,,,,,,,,,,,,,,,,,,,,,,,,,,,,,,,,,,,,,,,,,,,,,,
,,"[""comma""]",0,100,0,100,0,1,60866f8615f854acc11700cf,24,Mężczyzna,2022-06-04_08h34.06.704,task,2021.1.4,Win32,60.21919788,628b806c463b948bc644b84f,629afc187da580b72ee631a2,[0.5673999999999069],,,,,,,,,,,,,,,,,,,,,,,,,,,,,,,,,,,,,,,,,,,,,,,,,,,,,,,,,,,,,,,,,,,,,,,,,,,,,,,,,,,,,,,,,,,,,,,,,,,,,,,
,,"[""comma""]",0,101,0,101,0,1,60866f8615f854acc11700cf,24,Mężczyzna,2022-06-04_08h34.06.704,task,2021.1.4,Win32,60.21919788,628b806c463b948bc644b84f,629afc187da580b72ee631a2,[0.7667999999998187],,,,,,,,,,,,,,,,,,,,,,,,,,,,,,,,,,,,,,,,,,,,,,,,,,,,,,,,,,,,,,,,,,,,,,,,,,,,,,,,,,,,,,,,,,,,,,,,,,,,,,,
,,"[""comma""]",0,102,0,102,0,1,60866f8615f854acc11700cf,24,Mężczyzna,2022-06-04_08h34.06.704,task,2021.1.4,Win32,60.21919788,628b806c463b948bc644b84f,629afc187da580b72ee631a2,[0.7178000000002953],,,,,,,,,,,,,,,,,,,,,,,,,,,,,,,,,,,,,,,,,,,,,,,,,,,,,,,,,,,,,,,,,,,,,,,,,,,,,,,,,,,,,,,,,,,,,,,,,,,,,,,
,,"[""comma""]",0,103,0,103,0,1,60866f8615f854acc11700cf,24,Mężczyzna,2022-06-04_08h34.06.704,task,2021.1.4,Win32,60.21919788,628b806c463b948bc644b84f,629afc187da580b72ee631a2,[0.5841000000000918],,,,,,,,,,,,,,,,,,,,,,,,,,,,,,,,,,,,,,,,,,,,,,,,,,,,,,,,,,,,,,,,,,,,,,,,,,,,,,,,,,,,,,,,,,,,,,,,,,,,,,,
,,"[""period""]",0,104,0,104,0,1,60866f8615f854acc11700cf,24,Mężczyzna,2022-06-04_08h34.06.704,task,2021.1.4,Win32,60.21919788,628b806c463b948bc644b84f,629afc187da580b72ee631a2,[0.6258000000002539],,,,,,,,,,,,,,,,,,,,,,,,,,,,,,,,,,,,,,,,,,,,,,,,,,,,,,,,,,,,,,,,,,,,,,,,,,,,,,,,,,,,,,,,,,,,,,,,,,,,,,,
,,"[""period""]",0,105,0,105,0,1,60866f8615f854acc11700cf,24,Mężczyzna,2022-06-04_08h34.06.704,task,2021.1.4,Win32,60.21919788,628b806c463b948bc644b84f,629afc187da580b72ee631a2,[0.5674000000003616],,,,,,,,,,,,,,,,,,,,,,,,,,,,,,,,,,,,,,,,,,,,,,,,,,,,,,,,,,,,,,,,,,,,,,,,,,,,,,,,,,,,,,,,,,,,,,,,,,,,,,,
,,"[""period""]",0,106,0,106,0,1,60866f8615f854acc11700cf,24,Mężczyzna,2022-06-04_08h34.06.704,task,2021.1.4,Win32,60.21919788,628b806c463b948bc644b84f,629afc187da580b72ee631a2,[0.8840000000000146],,,,,,,,,,,,,,,,,,,,,,,,,,,,,,,,,,,,,,,,,,,,,,,,,,,,,,,,,,,,,,,,,,,,,,,,,,,,,,,,,,,,,,,,,,,,,,,,,,,,,,,
,,"[""period""]",0,107,0,107,0,1,60866f8615f854acc11700cf,24,Mężczyzna,2022-06-04_08h34.06.704,task,2021.1.4,Win32,60.21919788,628b806c463b948bc644b84f,629afc187da580b72ee631a2,[0.6521000000000754],,,,,,,,,,,,,,,,,,,,,,,,,,,,,,,,,,,,,,,,,,,,,,,,,,,,,,,,,,,,,,,,,,,,,,,,,,,,,,,,,,,,,,,,,,,,,,,,,,,,,,,
,,"[""period""]",0,108,0,108,0,1,60866f8615f854acc11700cf,24,Mężczyzna,2022-06-04_08h34.06.704,task,2021.1.4,Win32,60.21919788,628b806c463b948bc644b84f,629afc187da580b72ee631a2,[0.6746000000001118],,,,,,,,,,,,,,,,,,,,,,,,,,,,,,,,,,,,,,,,,,,,,,,,,,,,,,,,,,,,,,,,,,,,,,,,,,,,,,,,,,,,,,,,,,,,,,,,,,,,,,,
,,"[""period""]",0,109,0,109,0,1,60866f8615f854acc11700cf,24,Mężczyzna,2022-06-04_08h34.06.704,task,2021.1.4,Win32,60.21919788,628b806c463b948bc644b84f,629afc187da580b72ee631a2,[0.5666000000001077],,,,,,,,,,,,,,,,,,,,,,,,,,,,,,,,,,,,,,,,,,,,,,,,,,,,,,,,,,,,,,,,,,,,,,,,,,,,,,,,,,,,,,,,,,,,,,,,,,,,,,,
,,"[""period""]",0,110,0,110,0,1,60866f8615f854acc11700cf,24,Mężczyzna,2022-06-04_08h34.06.704,task,2021.1.4,Win32,60.21919788,628b806c463b948bc644b84f,629afc187da580b72ee631a2,[0.5838999999999146],,,,,,,,,,,,,,,,,,,,,,,,,,,,,,,,,,,,,,,,,,,,,,,,,,,,,,,,,,,,,,,,,,,,,,,,,,,,,,,,,,,,,,,,,,,,,,,,,,,,,,,
,,"[""period""]",0,111,0,111,0,1,60866f8615f854acc11700cf,24,Mężczyzna,2022-06-04_08h34.06.704,task,2021.1.4,Win32,60.21919788,628b806c463b948bc644b84f,629afc187da580b72ee631a2,[0.6904999999999859],,,,,,,,,,,,,,,,,,,,,,,,,,,,,,,,,,,,,,,,,,,,,,,,,,,,,,,,,,,,,,,,,,,,,,,,,,,,,,,,,,,,,,,,,,,,,,,,,,,,,,,
,,"[""period""]",0,112,0,112,0,1,60866f8615f854acc11700cf,24,Mężczyzna,2022-06-04_08h34.06.704,task,2021.1.4,Win32,60.21919788,628b806c463b948bc644b84f,629afc187da580b72ee631a2,[0.5502999999997655],,,,,,,,,,,,,,,,,,,,,,,,,,,,,,,,,,,,,,,,,,,,,,,,,,,,,,,,,,,,,,,,,,,,,,,,,,,,,,,,,,,,,,,,,,,,,,,,,,,,,,,
,,"[""comma""]",0,113,0,113,0,1,60866f8615f854acc11700cf,24,Mężczyzna,2022-06-04_08h34.06.704,task,2021.1.4,Win32,60.21919788,628b806c463b948bc644b84f,629afc187da580b72ee631a2,[0.5336000000000922],,,,,,,,,,,,,,,,,,,,,,,,,,,,,,,,,,,,,,,,,,,,,,,,,,,,,,,,,,,,,,,,,,,,,,,,,,,,,,,,,,,,,,,,,,,,,,,,,,,,,,,
,,"[""comma""]",0,114,0,114,0,1,60866f8615f854acc11700cf,24,Mężczyzna,2022-06-04_08h34.06.704,task,2021.1.4,Win32,60.21919788,628b806c463b948bc644b84f,629afc187da580b72ee631a2,[0.43420000000014625],,,,,,,,,,,,,,,,,,,,,,,,,,,,,,,,,,,,,,,,,,,,,,,,,,,,,,,,,,,,,,,,,,,,,,,,,,,,,,,,,,,,,,,,,,,,,,,,,,,,,,,
,,"[""period""]",0,115,0,115,0,1,60866f8615f854acc11700cf,24,Mężczyzna,2022-06-04_08h34.06.704,task,2021.1.4,Win32,60.21919788,628b806c463b948bc644b84f,629afc187da580b72ee631a2,[0.5676999999997179],,,,,,,,,,,,,,,,,,,,,,,,,,,,,,,,,,,,,,,,,,,,,,,,,,,,,,,,,,,,,,,,,,,,,,,,,,,,,,,,,,,,,,,,,,,,,,,,,,,,,,,
,,"[""period""]",0,116,0,116,0,1,60866f8615f854acc11700cf,24,Mężczyzna,2022-06-04_08h34.06.704,task,2021.1.4,Win32,60.21919788,628b806c463b948bc644b84f,629afc187da580b72ee631a2,[0.6022000000001526],,,,,,,,,,,,,,,,,,,,,,,,,,,,,,,,,,,,,,,,,,,,,,,,,,,,,,,,,,,,,,,,,,,,,,,,,,,,,,,,,,,,,,,,,,,,,,,,,,,,,,,
,,"[""period""]",0,117,0,117,0,1,60866f8615f854acc11700cf,24,Mężczyzna,2022-06-04_08h34.06.704,task,2021.1.4,Win32,60.21919788,628b806c463b948bc644b84f,629afc187da580b72ee631a2,[0.6327000000001703],,,,,,,,,,,,,,,,,,,,,,,,,,,,,,,,,,,,,,,,,,,,,,,,,,,,,,,,,,,,,,,,,,,,,,,,,,,,,,,,,,,,,,,,,,,,,,,,,,,,,,,
,,"[""period""]",0,118,0,118,0,1,60866f8615f854acc11700cf,24,Mężczyzna,2022-06-04_08h34.06.704,task,2021.1.4,Win32,60.21919788,628b806c463b948bc644b84f,629afc187da580b72ee631a2,[0.6173999999999182],,,,,,,,,,,,,,,,,,,,,,,,,,,,,,,,,,,,,,,,,,,,,,,,,,,,,,,,,,,,,,,,,,,,,,,,,,,,,,,,,,,,,,,,,,,,,,,,,,,,,,,
,,"[""comma""]",0,119,0,119,0,1,60866f8615f854acc11700cf,24,Mężczyzna,2022-06-04_08h34.06.704,task,2021.1.4,Win32,60.21919788,628b806c463b948bc644b84f,629afc187da580b72ee631a2,[0.6511000000000422],,,,,,,,,,,,,,,,,,,,,,,,,,,,,,,,,,,,,,,,,,,,,,,,,,,,,,,,,,,,,,,,,,,,,,,,,,,,,,,,,,,,,,,,,,,,,,,,,,,,,,,
,,,,,,,,,60866f8615f854acc11700cf,24,Mężczyzna,2022-06-04_08h34.06.704,task,2021.1.4,Win32,60.21919788,628b806c463b948bc644b84f,629afc187da580b72ee631a2,,space,77.6961,space,13.952,0,0,0,0,1,X V Q F H G B L J M P D K C T S W R N Z,,,,,,,,,,,,,,,,,,,,,,,,,,,,,,,,,,,,,,,,,,,,,,,,,,,,,,,,,,,,,,,,,,,,,,,,,,,,,,,,,,,,,,,,,,,,,
,,,,,,,,,60866f8615f854acc11700cf,24,Mężczyzna,2022-06-04_08h34.06.704,task,2021.1.4,Win32,60.21919788,628b806c463b948bc644b84f,629afc187da580b72ee631a2,,,,,,1,0,1,0,1,X V Q F H G B L J M P D K C T S W R N Z,,,,,,,,,,,,,,,,,,,,,,,,,,,,,,,,,,,,,,,,,,,,,,,,,,,,,,,,,,,,,,,,,,,,,,,,,,,,,,,,,,,,,,,,,,,,,
,,,,,,,,,60866f8615f854acc11700cf,24,Mężczyzna,2022-06-04_08h34.06.704,task,2021.1.4,Win32,60.21919788,628b806c463b948bc644b84f,629afc187da580b72ee631a2,,,,,,,,,,,,zq,"[""z"",""q""]","[2.6671000000001186,2.9056000000001063,3.7905000000000086]",1,ZQ,0,0,0,0,1,,,,,,,,,,,,,,,,,,,,,,,,,,,,,,,,,,,,,,,,,,,,,,,,,,,,,,,,,,,,,,,,,,,,,,,,,,,,,,,,,,,
,,,,,,,,,60866f8615f854acc11700cf,24,Mężczyzna,2022-06-04_08h34.06.704,task,2021.1.4,Win32,60.21919788,628b806c463b948bc644b84f,629afc187da580b72ee631a2,,,,,,0,0,0,0,1,X V Q F H G B L J M P D K C T S W R N Z,,,,,,,,,,,,,,,,,,,,,,,,,,,,,,,,,,,,,,,,,,,,,,,,,,,,,,,,,,,,,,,,,,,,,,,,,,,,,,,,,,,,,,,,,,,,,
,,,,,,,,,60866f8615f854acc11700cf,24,Mężczyzna,2022-06-04_08h34.06.704,task,2021.1.4,Win32,60.21919788,628b806c463b948bc644b84f,629afc187da580b72ee631a2,,,,,,1,0,1,0,1,X V Q F H G B L J M P D K C T S W R N Z,,,,,,,,,,,,,,,,,,,,,,,,,,,,,,,,,,,,,,,,,,,,,,,,,,,,,,,,,,,,,,,,,,,,,,,,,,,,,,,,,,,,,,,,,,,,,
,,,,,,,,,60866f8615f854acc11700cf,24,Mężczyzna,2022-06-04_08h34.06.704,task,2021.1.4,Win32,60.21919788,628b806c463b948bc644b84f,629afc187da580b72ee631a2,,,,,,,,,,,,zx,"[""z"",""x""]","[1.7662000000001967,2.051100000000133,5.1496000000001345]",1,ZX,1,0,1,0,1,,,,,,,,,,,,,,,,,,,,,,,,,,,,,,,,,,,,,,,,,,,,,,,,,,,,,,,,,,,,,,,,,,,,,,,,,,,,,,,,,,,
,,,,,,,,,60866f8615f854acc11700cf,24,Mężczyzna,2022-06-04_08h34.06.704,task,2021.1.4,Win32,60.21919788,628b806c463b948bc644b84f,629afc187da580b72ee631a2,,,,,,0,0,0,0,1,X V Q F H G B L J M P D K C T S W R N Z,,,,,,,,,,,,,,,,,,,,,,,,,,,,,,,,,,,,,,,,,,,,,,,,,,,,,,,,,,,,,,,,,,,,,,,,,,,,,,,,,,,,,,,,,,,,,
,,,,,,,,,60866f8615f854acc11700cf,24,Mężczyzna,2022-06-04_08h34.06.704,task,2021.1.4,Win32,60.21919788,628b806c463b948bc644b84f,629afc187da580b72ee631a2,,,,,,1,0,1,0,1,X V Q F H G B L J M P D K C T S W R N Z,,,,,,,,,,,,,,,,,,,,,,,,,,,,,,,,,,,,,,,,,,,,,,,,,,,,,,,,,,,,,,,,,,,,,,,,,,,,,,,,,,,,,,,,,,,,,
,,,,,,,,,60866f8615f854acc11700cf,24,Mężczyzna,2022-06-04_08h34.06.704,task,2021.1.4,Win32,60.21919788,628b806c463b948bc644b84f,629afc187da580b72ee631a2,,,,,,2,0,2,0,1,X V Q F H G B L J M P D K C T S W R N Z,,,,,,,,,,,,,,,,,,,,,,,,,,,,,,,,,,,,,,,,,,,,,,,,,,,,,,,,,,,,,,,,,,,,,,,,,,,,,,,,,,,,,,,,,,,,,
,,,,,,,,,60866f8615f854acc11700cf,24,Mężczyzna,2022-06-04_08h34.06.704,task,2021.1.4,Win32,60.21919788,628b806c463b948bc644b84f,629afc187da580b72ee631a2,,,,,,,,,,,,mxh,"[""m"",""x"",""h""]","[1.0006000000001336,1.3495000000000346,1.4705000000000155,2.5090000000000146]",1,MXH,2,0,2,0,1,,,,,,,,,,,,,,,,,,,,,,,,,,,,,,,,,,,,,,,,,,,,,,,,,,,,,,,,,,,,,,,,,,,,,,,,,,,,,,,,,,,
,,,,,,,,,60866f8615f854acc11700cf,24,Mężczyzna,2022-06-04_08h34.06.704,task,2021.1.4,Win32,60.21919788,628b806c463b948bc644b84f,629afc187da580b72ee631a2,,,,,,0,0,0,0,1,X V Q F H G B L J M P D K C T S W R N Z,,,,,,,,,,,,,,,,,,,,,,,,,,,,,,,,,,,,,,,,,,,,,,,,,,,,,,,,,,,,,,,,,,,,,,,,,,,,,,,,,,,,,,,,,,,,,
,,,,,,,,,60866f8615f854acc11700cf,24,Mężczyzna,2022-06-04_08h34.06.704,task,2021.1.4,Win32,60.21919788,628b806c463b948bc644b84f,629afc187da580b72ee631a2,,,,,,1,0,1,0,1,X V Q F H G B L J M P D K C T S W R N Z,,,,,,,,,,,,,,,,,,,,,,,,,,,,,,,,,,,,,,,,,,,,,,,,,,,,,,,,,,,,,,,,,,,,,,,,,,,,,,,,,,,,,,,,,,,,,
,,,,,,,,,60866f8615f854acc11700cf,24,Mężczyzna,2022-06-04_08h34.06.704,task,2021.1.4,Win32,60.21919788,628b806c463b948bc644b84f,629afc187da580b72ee631a2,,,,,,2,0,2,0,1,X V Q F H G B L J M P D K C T S W R N Z,,,,,,,,,,,,,,,,,,,,,,,,,,,,,,,,,,,,,,,,,,,,,,,,,,,,,,,,,,,,,,,,,,,,,,,,,,,,,,,,,,,,,,,,,,,,,
,,,,,,,,,60866f8615f854acc11700cf,24,Mężczyzna,2022-06-04_08h34.06.704,task,2021.1.4,Win32,60.21919788,628b806c463b948bc644b84f,629afc187da580b72ee631a2,,,,,,,,,,,,jlq,"[""j"",""l"",""q""]","[1.7215999999996257,1.834899999999891,2.041799999999796,3.534299999999803]",1,JLQ,3,0,3,0,1,,,,,,,,,,,,,,,,,,,,,,,,,,,,,,,,,,,,,,,,,,,,,,,,,,,,,,,,,,,,,,,,,,,,,,,,,,,,,,,,,,,
,,,,,,,,,60866f8615f854acc11700cf,24,Mężczyzna,2022-06-04_08h34.06.704,task,2021.1.4,Win32,60.21919788,628b806c463b948bc644b84f,629afc187da580b72ee631a2,,,,,,0,0,0,0,1,X V Q F H G B L J M P D K C T S W R N Z,,,,,,,,,,,,,,,,,,,,,,,,,,,,,,,,,,,,,,,,,,,,,,,,,,,,,,,,,,,,,,,,,,,,,,,,,,,,,,,,,,,,,,,,,,,,,
,,,,,,,,,60866f8615f854acc11700cf,24,Mężczyzna,2022-06-04_08h34.06.704,task,2021.1.4,Win32,60.21919788,628b806c463b948bc644b84f,629afc187da580b72ee631a2,,,,,,1,0,1,0,1,X V Q F H G B L J M P D K C T S W R N Z,,,,,,,,,,,,,,,,,,,,,,,,,,,,,,,,,,,,,,,,,,,,,,,,,,,,,,,,,,,,,,,,,,,,,,,,,,,,,,,,,,,,,,,,,,,,,
,,,,,,,,,60866f8615f854acc11700cf,24,Mężczyzna,2022-06-04_08h34.06.704,task,2021.1.4,Win32,60.21919788,628b806c463b948bc644b84f,629afc187da580b72ee631a2,,,,,,2,0,2,0,1,X V Q F H G B L J M P D K C T S W R N Z,,,,,,,,,,,,,,,,,,,,,,,,,,,,,,,,,,,,,,,,,,,,,,,,,,,,,,,,,,,,,,,,,,,,,,,,,,,,,,,,,,,,,,,,,,,,,
,,,,,,,,,60866f8615f854acc11700cf,24,Mężczyzna,2022-06-04_08h34.06.704,task,2021.1.4,Win32,60.21919788,628b806c463b948bc644b84f,629afc187da580b72ee631a2,,,,,,3,0,3,0,1,X V Q F H G B L J M P D K C T S W R N Z,,,,,,,,,,,,,,,,,,,,,,,,,,,,,,,,,,,,,,,,,,,,,,,,,,,,,,,,,,,,,,,,,,,,,,,,,,,,,,,,,,,,,,,,,,,,,
,,,,,,,,,60866f8615f854acc11700cf,24,Mężczyzna,2022-06-04_08h34.06.704,task,2021.1.4,Win32,60.21919788,628b806c463b948bc644b84f,629afc187da580b72ee631a2,,,,,,,,,,,,rsxh,"[""r"",""s"",""x"",""h""]","[1.4732000000001904,1.9673000000002503,2.57220000000018,2.951200000000199,7.721800000000258]",1,RSXH,4,0,4,0,1,,,,,,,,,,,,,,,,,,,,,,,,,,,,,,,,,,,,,,,,,,,,,,,,,,,,,,,,,,,,,,,,,,,,,,,,,,,,,,,,,,,
,,,,,,,,,60866f8615f854acc11700cf,24,Mężczyzna,2022-06-04_08h34.06.704,task,2021.1.4,Win32,60.21919788,628b806c463b948bc644b84f,629afc187da580b72ee631a2,,,,,,0,0,0,0,1,X V Q F H G B L J M P D K C T S W R N Z,,,,,,,,,,,,,,,,,,,,,,,,,,,,,,,,,,,,,,,,,,,,,,,,,,,,,,,,,,,,,,,,,,,,,,,,,,,,,,,,,,,,,,,,,,,,,
,,,,,,,,,60866f8615f854acc11700cf,24,Mężczyzna,2022-06-04_08h34.06.704,task,2021.1.4,Win32,60.21919788,628b806c463b948bc644b84f,629afc187da580b72ee631a2,,,,,,1,0,1,0,1,X V Q F H G B L J M P D K C T S W R N Z,,,,,,,,,,,,,,,,,,,,,,,,,,,,,,,,,,,,,,,,,,,,,,,,,,,,,,,,,,,,,,,,,,,,,,,,,,,,,,,,,,,,,,,,,,,,,
,,,,,,,,,60866f8615f854acc11700cf,24,Mężczyzna,2022-06-04_08h34.06.704,task,2021.1.4,Win32,60.21919788,628b806c463b948bc644b84f,629afc187da580b72ee631a2,,,,,,2,0,2,0,1,X V Q F H G B L J M P D K C T S W R N Z,,,,,,,,,,,,,,,,,,,,,,,,,,,,,,,,,,,,,,,,,,,,,,,,,,,,,,,,,,,,,,,,,,,,,,,,,,,,,,,,,,,,,,,,,,,,,
,,,,,,,,,60866f8615f854acc11700cf,24,Mężczyzna,2022-06-04_08h34.06.704,task,2021.1.4,Win32,60.21919788,628b806c463b948bc644b84f,629afc187da580b72ee631a2,,,,,,3,0,3,0,1,X V Q F H G B L J M P D K C T S W R N Z,,,,,,,,,,,,,,,,,,,,,,,,,,,,,,,,,,,,,,,,,,,,,,,,,,,,,,,,,,,,,,,,,,,,,,,,,,,,,,,,,,,,,,,,,,,,,
,,,,,,,,,60866f8615f854acc11700cf,24,Mężczyzna,2022-06-04_08h34.06.704,task,2021.1.4,Win32,60.21919788,628b806c463b948bc644b84f,629afc187da580b72ee631a2,,,,,,,,,,,,dhkp,"[""d"",""h"",""k"",""p""]","[1.5176999999997065,1.9227999999997678,2.4715999999996257,2.5593999999998687,6.684499999999957]",1,DHKP,5,0,5,0,1,,,,,,,,,,,,,,,,,,,,,,,,,,,,,,,,,,,,,,,,,,,,,,,,,,,,,,,,,,,,,,,,,,,,,,,,,,,,,,,,,,,
,,,,,,,,,60866f8615f854acc11700cf,24,Mężczyzna,2022-06-04_08h34.06.704,task,2021.1.4,Win32,60.21919788,628b806c463b948bc644b84f,629afc187da580b72ee631a2,,,,,,0,0,0,0,1,X V Q F H G B L J M P D K C T S W R N Z,,,,,,,,,,,,,,,,,,,,,,,,,,,,,,,,,,,,,,,,,,,,,,,,,,,,,,,,,,,,,,,,,,,,,,,,,,,,,,,,,,,,,,,,,,,,,
,,,,,,,,,60866f8615f854acc11700cf,24,Mężczyzna,2022-06-04_08h34.06.704,task,2021.1.4,Win32,60.21919788,628b806c463b948bc644b84f,629afc187da580b72ee631a2,,,,,,1,0,1,0,1,X V Q F H G B L J M P D K C T S W R N Z,,,,,,,,,,,,,,,,,,,,,,,,,,,,,,,,,,,,,,,,,,,,,,,,,,,,,,,,,,,,,,,,,,,,,,,,,,,,,,,,,,,,,,,,,,,,,
,,,,,,,,,60866f8615f854acc11700cf,24,Mężczyzna,2022-06-04_08h34.06.704,task,2021.1.4,Win32,60.21919788,628b806c463b948bc644b84f,629afc187da580b72ee631a2,,,,,,2,0,2,0,1,X V Q F H G B L J M P D K C T S W R N Z,,,,,,,,,,,,,,,,,,,,,,,,,,,,,,,,,,,,,,,,,,,,,,,,,,,,,,,,,,,,,,,,,,,,,,,,,,,,,,,,,,,,,,,,,,,,,
,,,,,,,,,60866f8615f854acc11700cf,24,Mężczyzna,2022-06-04_08h34.06.704,task,2021.1.4,Win32,60.21919788,628b806c463b948bc644b84f,629afc187da580b72ee631a2,,,,,,3,0,3,0,1,X V Q F H G B L J M P D K C T S W R N Z,,,,,,,,,,,,,,,,,,,,,,,,,,,,,,,,,,,,,,,,,,,,,,,,,,,,,,,,,,,,,,,,,,,,,,,,,,,,,,,,,,,,,,,,,,,,,
,,,,,,,,,60866f8615f854acc11700cf,24,Mężczyzna,2022-06-04_08h34.06.704,task,2021.1.4,Win32,60.21919788,628b806c463b948bc644b84f,629afc187da580b72ee631a2,,,,,,4,0,4,0,1,X V Q F H G B L J M P D K C T S W R N Z,,,,,,,,,,,,,,,,,,,,,,,,,,,,,,,,,,,,,,,,,,,,,,,,,,,,,,,,,,,,,,,,,,,,,,,,,,,,,,,,,,,,,,,,,,,,,
,,,,,,,,,60866f8615f854acc11700cf,24,Mężczyzna,2022-06-04_08h34.06.704,task,2021.1.4,Win32,60.21919788,628b806c463b948bc644b84f,629afc187da580b72ee631a2,,,,,,,,,,,,ldfjd,"[""l"",""d"",""f"",""j"",""d""]","[0.8109999999999786,1.2006999999996992,3.73439999999988,4.127899999999897,5.704499999999996,7.384799999999814]",1,LDFJD,6,0,6,0,1,,,,,,,,,,,,,,,,,,,,,,,,,,,,,,,,,,,,,,,,,,,,,,,,,,,,,,,,,,,,,,,,,,,,,,,,,,,,,,,,,,,
,,,,,,,,,60866f8615f854acc11700cf,24,Mężczyzna,2022-06-04_08h34.06.704,task,2021.1.4,Win32,60.21919788,628b806c463b948bc644b84f,629afc187da580b72ee631a2,,,,,,0,0,0,0,1,X V Q F H G B L J M P D K C T S W R N Z,,,,,,,,,,,,,,,,,,,,,,,,,,,,,,,,,,,,,,,,,,,,,,,,,,,,,,,,,,,,,,,,,,,,,,,,,,,,,,,,,,,,,,,,,,,,,
,,,,,,,,,60866f8615f854acc11700cf,24,Mężczyzna,2022-06-04_08h34.06.704,task,2021.1.4,Win32,60.21919788,628b806c463b948bc644b84f,629afc187da580b72ee631a2,,,,,,1,0,1,0,1,X V Q F H G B L J M P D K C T S W R N Z,,,,,,,,,,,,,,,,,,,,,,,,,,,,,,,,,,,,,,,,,,,,,,,,,,,,,,,,,,,,,,,,,,,,,,,,,,,,,,,,,,,,,,,,,,,,,
,,,,,,,,,60866f8615f854acc11700cf,24,Mężczyzna,2022-06-04_08h34.06.704,task,2021.1.4,Win32,60.21919788,628b806c463b948bc644b84f,629afc187da580b72ee631a2,,,,,,2,0,2,0,1,X V Q F H G B L J M P D K C T S W R N Z,,,,,,,,,,,,,,,,,,,,,,,,,,,,,,,,,,,,,,,,,,,,,,,,,,,,,,,,,,,,,,,,,,,,,,,,,,,,,,,,,,,,,,,,,,,,,
,,,,,,,,,60866f8615f854acc11700cf,24,Mężczyzna,2022-06-04_08h34.06.704,task,2021.1.4,Win32,60.21919788,628b806c463b948bc644b84f,629afc187da580b72ee631a2,,,,,,3,0,3,0,1,X V Q F H G B L J M P D K C T S W R N Z,,,,,,,,,,,,,,,,,,,,,,,,,,,,,,,,,,,,,,,,,,,,,,,,,,,,,,,,,,,,,,,,,,,,,,,,,,,,,,,,,,,,,,,,,,,,,
,,,,,,,,,60866f8615f854acc11700cf,24,Mężczyzna,2022-06-04_08h34.06.704,task,2021.1.4,Win32,60.21919788,628b806c463b948bc644b84f,629afc187da580b72ee631a2,,,,,,4,0,4,0,1,X V Q F H G B L J M P D K C T S W R N Z,,,,,,,,,,,,,,,,,,,,,,,,,,,,,,,,,,,,,,,,,,,,,,,,,,,,,,,,,,,,,,,,,,,,,,,,,,,,,,,,,,,,,,,,,,,,,
,,,,,,,,,60866f8615f854acc11700cf,24,Mężczyzna,2022-06-04_08h34.06.704,task,2021.1.4,Win32,60.21919788,628b806c463b948bc644b84f,629afc187da580b72ee631a2,,,,,,,,,,,,smjfp,"[""s"",""m"",""j"",""f"",""p""]","[0.6927000000001726,1.1574999999999704,1.5677999999998065,1.8567999999997937,2.6173999999998614,3.894399999999905]",1,SMJFP,7,0,7,0,1,,,,,,,,,,,,,,,,,,,,,,,,,,,,,,,,,,,,,,,,,,,,,,,,,,,,,,,,,,,,,,,,,,,,,,,,,,,,,,,,,,,
,,,,,,,,,60866f8615f854acc11700cf,24,Mężczyzna,2022-06-04_08h34.06.704,task,2021.1.4,Win32,60.21919788,628b806c463b948bc644b84f,629afc187da580b72ee631a2,,,,,,0,0,0,0,1,X V Q F H G B L J M P D K C T S W R N Z,,,,,,,,,,,,,,,,,,,,,,,,,,,,,,,,,,,,,,,,,,,,,,,,,,,,,,,,,,,,,,,,,,,,,,,,,,,,,,,,,,,,,,,,,,,,,
,,,,,,,,,60866f8615f854acc11700cf,24,Mężczyzna,2022-06-04_08h34.06.704,task,2021.1.4,Win32,60.21919788,628b806c463b948bc644b84f,629afc187da580b72ee631a2,,,,,,1,0,1,0,1,X V Q F H G B L J M P D K C T S W R N Z,,,,,,,,,,,,,,,,,,,,,,,,,,,,,,,,,,,,,,,,,,,,,,,,,,,,,,,,,,,,,,,,,,,,,,,,,,,,,,,,,,,,,,,,,,,,,
,,,,,,,,,60866f8615f854acc11700cf,24,Mężczyzna,2022-06-04_08h34.06.704,task,2021.1.4,Win32,60.21919788,628b806c463b948bc644b84f,629afc187da580b72ee631a2,,,,,,2,0,2,0,1,X V Q F H G B L J M P D K C T S W R N Z,,,,,,,,,,,,,,,,,,,,,,,,,,,,,,,,,,,,,,,,,,,,,,,,,,,,,,,,,,,,,,,,,,,,,,,,,,,,,,,,,,,,,,,,,,,,,
,,,,,,,,,60866f8615f854acc11700cf,24,Mężczyzna,2022-06-04_08h34.06.704,task,2021.1.4,Win32,60.21919788,628b806c463b948bc644b84f,629afc187da580b72ee631a2,,,,,,3,0,3,0,1,X V Q F H G B L J M P D K C T S W R N Z,,,,,,,,,,,,,,,,,,,,,,,,,,,,,,,,,,,,,,,,,,,,,,,,,,,,,,,,,,,,,,,,,,,,,,,,,,,,,,,,,,,,,,,,,,,,,
,,,,,,,,,60866f8615f854acc11700cf,24,Mężczyzna,2022-06-04_08h34.06.704,task,2021.1.4,Win32,60.21919788,628b806c463b948bc644b84f,629afc187da580b72ee631a2,,,,,,4,0,4,0,1,X V Q F H G B L J M P D K C T S W R N Z,,,,,,,,,,,,,,,,,,,,,,,,,,,,,,,,,,,,,,,,,,,,,,,,,,,,,,,,,,,,,,,,,,,,,,,,,,,,,,,,,,,,,,,,,,,,,
,,,,,,,,,60866f8615f854acc11700cf,24,Mężczyzna,2022-06-04_08h34.06.704,task,2021.1.4,Win32,60.21919788,628b806c463b948bc644b84f,629afc187da580b72ee631a2,,,,,,5,0,5,0,1,X V Q F H G B L J M P D K C T S W R N Z,,,,,,,,,,,,,,,,,,,,,,,,,,,,,,,,,,,,,,,,,,,,,,,,,,,,,,,,,,,,,,,,,,,,,,,,,,,,,,,,,,,,,,,,,,,,,
,,,,,,,,,60866f8615f854acc11700cf,24,Mężczyzna,2022-06-04_08h34.06.704,task,2021.1.4,Win32,60.21919788,628b806c463b948bc644b84f,629afc187da580b72ee631a2,,,,,,,,,,,,wbhfgx,"[""w"",""b"",""h"",""f"",""g"",""x""]","[0.40029999999978827,0.9243999999998778,1.7506999999997106,2.2218999999998914,2.506999999999948,2.9704999999999018,4.86710000000005]",1,WBHFGX,8,0,8,0,1,,,,,,,,,,,,,,,,,,,,,,,,,,,,,,,,,,,,,,,,,,,,,,,,,,,,,,,,,,,,,,,,,,,,,,,,,,,,,,,,,,,
,,,,,,,,,60866f8615f854acc11700cf,24,Mężczyzna,2022-06-04_08h34.06.704,task,2021.1.4,Win32,60.21919788,628b806c463b948bc644b84f,629afc187da580b72ee631a2,,,,,,0,0,0,0,1,X V Q F H G B L J M P D K C T S W R N Z,,,,,,,,,,,,,,,,,,,,,,,,,,,,,,,,,,,,,,,,,,,,,,,,,,,,,,,,,,,,,,,,,,,,,,,,,,,,,,,,,,,,,,,,,,,,,
,,,,,,,,,60866f8615f854acc11700cf,24,Mężczyzna,2022-06-04_08h34.06.704,task,2021.1.4,Win32,60.21919788,628b806c463b948bc644b84f,629afc187da580b72ee631a2,,,,,,1,0,1,0,1,X V Q F H G B L J M P D K C T S W R N Z,,,,,,,,,,,,,,,,,,,,,,,,,,,,,,,,,,,,,,,,,,,,,,,,,,,,,,,,,,,,,,,,,,,,,,,,,,,,,,,,,,,,,,,,,,,,,
,,,,,,,,,60866f8615f854acc11700cf,24,Mężczyzna,2022-06-04_08h34.06.704,task,2021.1.4,Win32,60.21919788,628b806c463b948bc644b84f,629afc187da580b72ee631a2,,,,,,2,0,2,0,1,X V Q F H G B L J M P D K C T S W R N Z,,,,,,,,,,,,,,,,,,,,,,,,,,,,,,,,,,,,,,,,,,,,,,,,,,,,,,,,,,,,,,,,,,,,,,,,,,,,,,,,,,,,,,,,,,,,,
,,,,,,,,,60866f8615f854acc11700cf,24,Mężczyzna,2022-06-04_08h34.06.704,task,2021.1.4,Win32,60.21919788,628b806c463b948bc644b84f,629afc187da580b72ee631a2,,,,,,3,0,3,0,1,X V Q F H G B L J M P D K C T S W R N Z,,,,,,,,,,,,,,,,,,,,,,,,,,,,,,,,,,,,,,,,,,,,,,,,,,,,,,,,,,,,,,,,,,,,,,,,,,,,,,,,,,,,,,,,,,,,,
,,,,,,,,,60866f8615f854acc11700cf,24,Mężczyzna,2022-06-04_08h34.06.704,task,2021.1.4,Win32,60.21919788,628b806c463b948bc644b84f,629afc187da580b72ee631a2,,,,,,4,0,4,0,1,X V Q F H G B L J M P D K C T S W R N Z,,,,,,,,,,,,,,,,,,,,,,,,,,,,,,,,,,,,,,,,,,,,,,,,,,,,,,,,,,,,,,,,,,,,,,,,,,,,,,,,,,,,,,,,,,,,,
,,,,,,,,,60866f8615f854acc11700cf,24,Mężczyzna,2022-06-04_08h34.06.704,task,2021.1.4,Win32,60.21919788,628b806c463b948bc644b84f,629afc187da580b72ee631a2,,,,,,5,0,5,0,1,X V Q F H G B L J M P D K C T S W R N Z,,,,,,,,,,,,,,,,,,,,,,,,,,,,,,,,,,,,,,,,,,,,,,,,,,,,,,,,,,,,,,,,,,,,,,,,,,,,,,,,,,,,,,,,,,,,,
,,,,,,,,,60866f8615f854acc11700cf,24,Mężczyzna,2022-06-04_08h34.06.704,task,2021.1.4,Win32,60.21919788,628b806c463b948bc644b84f,629afc187da580b72ee631a2,,,,,,,,,,,,gwvxgm,"[""g"",""w"",""v"",""x"",""g"",""m""]","[0.46519999999975425,0.8057999999998628,1.7806000000000495,2.3323999999998932,3.2345000000000255,9.89910000000009,12.164399999999887]",0,GWVXMG,9,0,9,0,1,,,,,,,,,,,,,,,,,,,,,,,,,,,,,,,,,,,,,,,,,,,,,,,,,,,,,,,,,,,,,,,,,,,,,,,,,,,,,,,,,,,
,,,,,,,,,60866f8615f854acc11700cf,24,Mężczyzna,2022-06-04_08h34.06.704,task,2021.1.4,Win32,60.21919788,628b806c463b948bc644b84f,629afc187da580b72ee631a2,,,,,,0,0,0,0,1,X V Q F H G B L J M P D K C T S W R N Z,,,,,,,,,,,,,,,,,,,,,,,,,,,,,,,,,,,,,,,,,,,,,,,,,,,,,,,,,,,,,,,,,,,,,,,,,,,,,,,,,,,,,,,,,,,,,
,,,,,,,,,60866f8615f854acc11700cf,24,Mężczyzna,2022-06-04_08h34.06.704,task,2021.1.4,Win32,60.21919788,628b806c463b948bc644b84f,629afc187da580b72ee631a2,,,,,,1,0,1,0,1,X V Q F H G B L J M P D K C T S W R N Z,,,,,,,,,,,,,,,,,,,,,,,,,,,,,,,,,,,,,,,,,,,,,,,,,,,,,,,,,,,,,,,,,,,,,,,,,,,,,,,,,,,,,,,,,,,,,
,,,,,,,,,60866f8615f854acc11700cf,24,Mężczyzna,2022-06-04_08h34.06.704,task,2021.1.4,Win32,60.21919788,628b806c463b948bc644b84f,629afc187da580b72ee631a2,,,,,,2,0,2,0,1,X V Q F H G B L J M P D K C T S W R N Z,,,,,,,,,,,,,,,,,,,,,,,,,,,,,,,,,,,,,,,,,,,,,,,,,,,,,,,,,,,,,,,,,,,,,,,,,,,,,,,,,,,,,,,,,,,,,
,,,,,,,,,60866f8615f854acc11700cf,24,Mężczyzna,2022-06-04_08h34.06.704,task,2021.1.4,Win32,60.21919788,628b806c463b948bc644b84f,629afc187da580b72ee631a2,,,,,,3,0,3,0,1,X V Q F H G B L J M P D K C T S W R N Z,,,,,,,,,,,,,,,,,,,,,,,,,,,,,,,,,,,,,,,,,,,,,,,,,,,,,,,,,,,,,,,,,,,,,,,,,,,,,,,,,,,,,,,,,,,,,
,,,,,,,,,60866f8615f854acc11700cf,24,Mężczyzna,2022-06-04_08h34.06.704,task,2021.1.4,Win32,60.21919788,628b806c463b948bc644b84f,629afc187da580b72ee631a2,,,,,,4,0,4,0,1,X V Q F H G B L J M P D K C T S W R N Z,,,,,,,,,,,,,,,,,,,,,,,,,,,,,,,,,,,,,,,,,,,,,,,,,,,,,,,,,,,,,,,,,,,,,,,,,,,,,,,,,,,,,,,,,,,,,
,,,,,,,,,60866f8615f854acc11700cf,24,Mężczyzna,2022-06-04_08h34.06.704,task,2021.1.4,Win32,60.21919788,628b806c463b948bc644b84f,629afc187da580b72ee631a2,,,,,,5,0,5,0,1,X V Q F H G B L J M P D K C T S W R N Z,,,,,,,,,,,,,,,,,,,,,,,,,,,,,,,,,,,,,,,,,,,,,,,,,,,,,,,,,,,,,,,,,,,,,,,,,,,,,,,,,,,,,,,,,,,,,
,,,,,,,,,60866f8615f854acc11700cf,24,Mężczyzna,2022-06-04_08h34.06.704,task,2021.1.4,Win32,60.21919788,628b806c463b948bc644b84f,629afc187da580b72ee631a2,,,,,,,,,,,,bkfxgm,"[""b"",""k"",""f"",""x"",""g"",""m""]","[1.3659999999999854,1.927500000000009,2.384100000000103,2.6575000000000273,3.144100000000094,3.2496000000001004,3.9337000000002718]",1,BKFXGM,10,0,10,0,1,,,,,,,,,,,,,,,,,,,,,,,,,,,,,,,,,,,,,,,,,,,,,,,,,,,,,,,,,,,,,,,,,,,,,,,,,,,,,,,,,,,
,,,,,,,,,60866f8615f854acc11700cf,24,Mężczyzna,2022-06-04_08h34.06.704,task,2021.1.4,Win32,60.21919788,628b806c463b948bc644b84f,629afc187da580b72ee631a2,,,,,,0,0,0,0,1,X V Q F H G B L J M P D K C T S W R N Z,,,,,,,,,,,,,,,,,,,,,,,,,,,,,,,,,,,,,,,,,,,,,,,,,,,,,,,,,,,,,,,,,,,,,,,,,,,,,,,,,,,,,,,,,,,,,
,,,,,,,,,60866f8615f854acc11700cf,24,Mężczyzna,2022-06-04_08h34.06.704,task,2021.1.4,Win32,60.21919788,628b806c463b948bc644b84f,629afc187da580b72ee631a2,,,,,,1,0,1,0,1,X V Q F H G B L J M P D K C T S W R N Z,,,,,,,,,,,,,,,,,,,,,,,,,,,,,,,,,,,,,,,,,,,,,,,,,,,,,,,,,,,,,,,,,,,,,,,,,,,,,,,,,,,,,,,,,,,,,
,,,,,,,,,60866f8615f854acc11700cf,24,Mężczyzna,2022-06-04_08h34.06.704,task,2021.1.4,Win32,60.21919788,628b806c463b948bc644b84f,629afc187da580b72ee631a2,,,,,,2,0,2,0,1,X V Q F H G B L J M P D K C T S W R N Z,,,,,,,,,,,,,,,,,,,,,,,,,,,,,,,,,,,,,,,,,,,,,,,,,,,,,,,,,,,,,,,,,,,,,,,,,,,,,,,,,,,,,,,,,,,,,
,,,,,,,,,60866f8615f854acc11700cf,24,Mężczyzna,2022-06-04_08h34.06.704,task,2021.1.4,Win32,60.21919788,628b806c463b948bc644b84f,629afc187da580b72ee631a2,,,,,,3,0,3,0,1,X V Q F H G B L J M P D K C T S W R N Z,,,,,,,,,,,,,,,,,,,,,,,,,,,,,,,,,,,,,,,,,,,,,,,,,,,,,,,,,,,,,,,,,,,,,,,,,,,,,,,,,,,,,,,,,,,,,
,,,,,,,,,60866f8615f854acc11700cf,24,Mężczyzna,2022-06-04_08h34.06.704,task,2021.1.4,Win32,60.21919788,628b806c463b948bc644b84f,629afc187da580b72ee631a2,,,,,,4,0,4,0,1,X V Q F H G B L J M P D K C T S W R N Z,,,,,,,,,,,,,,,,,,,,,,,,,,,,,,,,,,,,,,,,,,,,,,,,,,,,,,,,,,,,,,,,,,,,,,,,,,,,,,,,,,,,,,,,,,,,,
,,,,,,,,,60866f8615f854acc11700cf,24,Mężczyzna,2022-06-04_08h34.06.704,task,2021.1.4,Win32,60.21919788,628b806c463b948bc644b84f,629afc187da580b72ee631a2,,,,,,5,0,5,0,1,X V Q F H G B L J M P D K C T S W R N Z,,,,,,,,,,,,,,,,,,,,,,,,,,,,,,,,,,,,,,,,,,,,,,,,,,,,,,,,,,,,,,,,,,,,,,,,,,,,,,,,,,,,,,,,,,,,,
,,,,,,,,,60866f8615f854acc11700cf,24,Mężczyzna,2022-06-04_08h34.06.704,task,2021.1.4,Win32,60.21919788,628b806c463b948bc644b84f,629afc187da580b72ee631a2,,,,,,6,0,6,0,1,X V Q F H G B L J M P D K C T S W R N Z,,,,,,,,,,,,,,,,,,,,,,,,,,,,,,,,,,,,,,,,,,,,,,,,,,,,,,,,,,,,,,,,,,,,,,,,,,,,,,,,,,,,,,,,,,,,,
,,,,,,,,,60866f8615f854acc11700cf,24,Mężczyzna,2022-06-04_08h34.06.704,task,2021.1.4,Win32,60.21919788,628b806c463b948bc644b84f,629afc187da580b72ee631a2,,,,,,,,,,,,xpglmkn,"[""x"",""p"",""g"",""l"",""m"",""k"",""n""]","[9.082799999999793,9.473299999999767,11.551100000000133,11.692100000000096,24.98719999999969,25.051699999999755,25.42069999999967,26.325100000000134]",0,XPGLGKN,11,0,11,0,1,,,,,,,,,,,,,,,,,,,,,,,,,,,,,,,,,,,,,,,,,,,,,,,,,,,,,,,,,,,,,,,,,,,,,,,,,,,,,,,,,,,
,,,,,,,,,60866f8615f854acc11700cf,24,Mężczyzna,2022-06-04_08h34.06.704,task,2021.1.4,Win32,60.21919788,628b806c463b948bc644b84f,629afc187da580b72ee631a2,,,,,,0,0,0,0,1,X V Q F H G B L J M P D K C T S W R N Z,,,,,,,,,,,,,,,,,,,,,,,,,,,,,,,,,,,,,,,,,,,,,,,,,,,,,,,,,,,,,,,,,,,,,,,,,,,,,,,,,,,,,,,,,,,,,
,,,,,,,,,60866f8615f854acc11700cf,24,Mężczyzna,2022-06-04_08h34.06.704,task,2021.1.4,Win32,60.21919788,628b806c463b948bc644b84f,629afc187da580b72ee631a2,,,,,,1,0,1,0,1,X V Q F H G B L J M P D K C T S W R N Z,,,,,,,,,,,,,,,,,,,,,,,,,,,,,,,,,,,,,,,,,,,,,,,,,,,,,,,,,,,,,,,,,,,,,,,,,,,,,,,,,,,,,,,,,,,,,
,,,,,,,,,60866f8615f854acc11700cf,24,Mężczyzna,2022-06-04_08h34.06.704,task,2021.1.4,Win32,60.21919788,628b806c463b948bc644b84f,629afc187da580b72ee631a2,,,,,,2,0,2,0,1,X V Q F H G B L J M P D K C T S W R N Z,,,,,,,,,,,,,,,,,,,,,,,,,,,,,,,,,,,,,,,,,,,,,,,,,,,,,,,,,,,,,,,,,,,,,,,,,,,,,,,,,,,,,,,,,,,,,
,,,,,,,,,60866f8615f854acc11700cf,24,Mężczyzna,2022-06-04_08h34.06.704,task,2021.1.4,Win32,60.21919788,628b806c463b948bc644b84f,629afc187da580b72ee631a2,,,,,,3,0,3,0,1,X V Q F H G B L J M P D K C T S W R N Z,,,,,,,,,,,,,,,,,,,,,,,,,,,,,,,,,,,,,,,,,,,,,,,,,,,,,,,,,,,,,,,,,,,,,,,,,,,,,,,,,,,,,,,,,,,,,
,,,,,,,,,60866f8615f854acc11700cf,24,Mężczyzna,2022-06-04_08h34.06.704,task,2021.1.4,Win32,60.21919788,628b806c463b948bc644b84f,629afc187da580b72ee631a2,,,,,,4,0,4,0,1,X V Q F H G B L J M P D K C T S W R N Z,,,,,,,,,,,,,,,,,,,,,,,,,,,,,,,,,,,,,,,,,,,,,,,,,,,,,,,,,,,,,,,,,,,,,,,,,,,,,,,,,,,,,,,,,,,,,
,,,,,,,,,60866f8615f854acc11700cf,24,Mężczyzna,2022-06-04_08h34.06.704,task,2021.1.4,Win32,60.21919788,628b806c463b948bc644b84f,629afc187da580b72ee631a2,,,,,,5,0,5,0,1,X V Q F H G B L J M P D K C T S W R N Z,,,,,,,,,,,,,,,,,,,,,,,,,,,,,,,,,,,,,,,,,,,,,,,,,,,,,,,,,,,,,,,,,,,,,,,,,,,,,,,,,,,,,,,,,,,,,
,,,,,,,,,60866f8615f854acc11700cf,24,Mężczyzna,2022-06-04_08h34.06.704,task,2021.1.4,Win32,60.21919788,628b806c463b948bc644b84f,629afc187da580b72ee631a2,,,,,,6,0,6,0,1,X V Q F H G B L J M P D K C T S W R N Z,,,,,,,,,,,,,,,,,,,,,,,,,,,,,,,,,,,,,,,,,,,,,,,,,,,,,,,,,,,,,,,,,,,,,,,,,,,,,,,,,,,,,,,,,,,,,
,,,,,,,,,60866f8615f854acc11700cf,24,Mężczyzna,2022-06-04_08h34.06.704,task,2021.1.4,Win32,60.21919788,628b806c463b948bc644b84f,629afc187da580b72ee631a2,,,,,,,,,,,,psrkjls,"[""p"",""s"",""r"",""k"",""j"",""l"",""s""]","[1.0072999999998729,1.35120000000029,1.8653999999999087,2.0267000000002326,2.5038999999999305,2.8002000000002454,3.6401000000001886,7.217500000000086]",0,PSRJLKC,12,0,12,0,1,,,,,,,,,,,,,,,,,,,,,,,,,,,,,,,,,,,,,,,,,,,,,,,,,,,,,,,,,,,,,,,,,,,,,,,,,,,,,,,,,,,
,,,,,,,,,60866f8615f854acc11700cf,24,Mężczyzna,2022-06-04_08h34.06.704,task,2021.1.4,Win32,60.21919788,628b806c463b948bc644b84f,629afc187da580b72ee631a2,,,,,,0,0,0,0,1,X V Q F H G B L J M P D K C T S W R N Z,,,,,,,,,,,,,,,,,,,,,,,,,,,,,,,,,,,,,,,,,,,,,,,,,,,,,,,,,,,,,,,,,,,,,,,,,,,,,,,,,,,,,,,,,,,,,
,,,,,,,,,60866f8615f854acc11700cf,24,Mężczyzna,2022-06-04_08h34.06.704,task,2021.1.4,Win32,60.21919788,628b806c463b948bc644b84f,629afc187da580b72ee631a2,,,,,,1,0,1,0,1,X V Q F H G B L J M P D K C T S W R N Z,,,,,,,,,,,,,,,,,,,,,,,,,,,,,,,,,,,,,,,,,,,,,,,,,,,,,,,,,,,,,,,,,,,,,,,,,,,,,,,,,,,,,,,,,,,,,
,,,,,,,,,60866f8615f854acc11700cf,24,Mężczyzna,2022-06-04_08h34.06.704,task,2021.1.4,Win32,60.21919788,628b806c463b948bc644b84f,629afc187da580b72ee631a2,,,,,,2,0,2,0,1,X V Q F H G B L J M P D K C T S W R N Z,,,,,,,,,,,,,,,,,,,,,,,,,,,,,,,,,,,,,,,,,,,,,,,,,,,,,,,,,,,,,,,,,,,,,,,,,,,,,,,,,,,,,,,,,,,,,
,,,,,,,,,60866f8615f854acc11700cf,24,Mężczyzna,2022-06-04_08h34.06.704,task,2021.1.4,Win32,60.21919788,628b806c463b948bc644b84f,629afc187da580b72ee631a2,,,,,,3,0,3,0,1,X V Q F H G B L J M P D K C T S W R N Z,,,,,,,,,,,,,,,,,,,,,,,,,,,,,,,,,,,,,,,,,,,,,,,,,,,,,,,,,,,,,,,,,,,,,,,,,,,,,,,,,,,,,,,,,,,,,
,,,,,,,,,60866f8615f854acc11700cf,24,Mężczyzna,2022-06-04_08h34.06.704,task,2021.1.4,Win32,60.21919788,628b806c463b948bc644b84f,629afc187da580b72ee631a2,,,,,,4,0,4,0,1,X V Q F H G B L J M P D K C T S W R N Z,,,,,,,,,,,,,,,,,,,,,,,,,,,,,,,,,,,,,,,,,,,,,,,,,,,,,,,,,,,,,,,,,,,,,,,,,,,,,,,,,,,,,,,,,,,,,
,,,,,,,,,60866f8615f854acc11700cf,24,Mężczyzna,2022-06-04_08h34.06.704,task,2021.1.4,Win32,60.21919788,628b806c463b948bc644b84f,629afc187da580b72ee631a2,,,,,,5,0,5,0,1,X V Q F H G B L J M P D K C T S W R N Z,,,,,,,,,,,,,,,,,,,,,,,,,,,,,,,,,,,,,,,,,,,,,,,,,,,,,,,,,,,,,,,,,,,,,,,,,,,,,,,,,,,,,,,,,,,,,
,,,,,,,,,60866f8615f854acc11700cf,24,Mężczyzna,2022-06-04_08h34.06.704,task,2021.1.4,Win32,60.21919788,628b806c463b948bc644b84f,629afc187da580b72ee631a2,,,,,,6,0,6,0,1,X V Q F H G B L J M P D K C T S W R N Z,,,,,,,,,,,,,,,,,,,,,,,,,,,,,,,,,,,,,,,,,,,,,,,,,,,,,,,,,,,,,,,,,,,,,,,,,,,,,,,,,,,,,,,,,,,,,
,,,,,,,,,60866f8615f854acc11700cf,24,Mężczyzna,2022-06-04_08h34.06.704,task,2021.1.4,Win32,60.21919788,628b806c463b948bc644b84f,629afc187da580b72ee631a2,,,,,,,,,,,,ggztlts,"[""g"",""g"",""z"",""t"",""l"",""t"",""s""]","[1.520799999999781,1.6778999999999087,10.90629999999976,11.20110000000011,13.300899999999842,13.492600000000039,15.803899999999885,16.72189999999989]",0,GGZTCLG,13,0,13,0,1,,,,,,,,,,,,,,,,,,,,,,,,,,,,,,,,,,,,,,,,,,,,,,,,,,,,,,,,,,,,,,,,,,,,,,,,,,,,,,,,,,,
,,,,,,,,,60866f8615f854acc11700cf,24,Mężczyzna,2022-06-04_08h34.06.704,task,2021.1.4,Win32,60.21919788,628b806c463b948bc644b84f,629afc187da580b72ee631a2,,,,,,,,,,,,,,,,,,,,,,space,15.8497,4,"[""4""]",1,[3.2876000000001113],[3.2876000000001113],0,0,0,4,1,Practice,5,(2x6) - 8,4,,,,,,,,,,,,,,,,,,,,,,,,,,,,,,,,,,,,,,,,,,,,,,,,,,,,,,,,,,,,,,,,,,,
,,,,,,,,,60866f8615f854acc11700cf,24,Mężczyzna,2022-06-04_08h34.06.704,task,2021.1.4,Win32,60.21919788,628b806c463b948bc644b84f,629afc187da580b72ee631a2,,,,,,,,,,,,,,,,,,,,,,,,9,"[""9""]",1,[3.6340000000000146],"[3.2876000000001113,3.6340000000000146]",0,1,1,9,1,Practice,10,(20/2) - 1,9,,,,,,,,,,,,,,,,,,,,,,,,,,,,,,,,,,,,,,,,,,,,,,,,,,,,,,,,,,,,,,,,,,,
,,,,,,,,,60866f8615f854acc11700cf,24,Mężczyzna,2022-06-04_08h34.06.704,task,2021.1.4,Win32,60.21919788,628b806c463b948bc644b84f,629afc187da580b72ee631a2,,,,,,,,,,,,,,,,,,,,,,,,3,"[""3""]",1,[3.9071000000001277],"[3.2876000000001113,3.6340000000000146,3.9071000000001277]",0,2,2,3,1,Practice,4,(8/4) + 1,3,,,,,,,,,,,,,,,,,,,,,,,,,,,,,,,,,,,,,,,,,,,,,,,,,,,,,,,,,,,,,,,,,,,
,,,,,,,,,60866f8615f854acc11700cf,24,Mężczyzna,2022-06-04_08h34.06.704,task,2021.1.4,Win32,60.21919788,628b806c463b948bc644b84f,629afc187da580b72ee631a2,,,,,,,,,,,,,,,,,,,,,,,,0,"[""0""]",1,[2.0017000000001417],"[3.2876000000001113,3.6340000000000146,3.9071000000001277,2.0017000000001417]",0,3,3,0,1,Practice,1,(3x3) -  9,0,,,,,,,,,,,,,,,,,,,,,,,,,,,,,,,,,,,,,,,,,,,,,,,,,,,,,,,,,,,,,,,,,,,
,,,,,,,,,60866f8615f854acc11700cf,24,Mężczyzna,2022-06-04_08h34.06.704,task,2021.1.4,Win32,60.21919788,628b806c463b948bc644b84f,629afc187da580b72ee631a2,,,,,,,,,,,,,,,,,,,,,,,,1,"[""1""]",1,[2.866199999999708],"[3.2876000000001113,3.6340000000000146,3.9071000000001277,2.0017000000001417,2.866199999999708]",0,4,4,1,1,Practice,2,(4x4) - 15,1,,,,,,,,,,,,,,,,,,,,,,,,,,,,,,,,,,,,,,,,,,,,,,,,,,,,,,,,,,,,,,,,,,,
,,,,,,,,,60866f8615f854acc11700cf,24,Mężczyzna,2022-06-04_08h34.06.704,task,2021.1.4,Win32,60.21919788,628b806c463b948bc644b84f,629afc187da580b72ee631a2,,,,,,,,,,,,,,,,,,,,,,,,8,"[""8""]",1,[3.0839999999999463],"[3.2876000000001113,3.6340000000000146,3.9071000000001277,2.0017000000001417,2.866199999999708,3.0839999999999463]",0,5,5,8,1,Practice,9,(3x3) - 1,8,,,,,,,,,,,,,,,,,,,,,,,,,,,,,,,,,,,,,,,,,,,,,,,,,,,,,,,,,,,,,,,,,,,
,,,,,,,,,60866f8615f854acc11700cf,24,Mężczyzna,2022-06-04_08h34.06.704,task,2021.1.4,Win32,60.21919788,628b806c463b948bc644b84f,629afc187da580b72ee631a2,,,,,,,,,,,,,,,,,,,,,,,,2,"[""2""]",1,[2.25109999999961],"[3.2876000000001113,3.6340000000000146,3.9071000000001277,2.0017000000001417,2.866199999999708,3.0839999999999463,2.25109999999961]",0,6,6,2,1,Practice,3,(4x4) - 14,2,,,,,,,,,,,,,,,,,,,,,,,,,,,,,,,,,,,,,,,,,,,,,,,,,,,,,,,,,,,,,,,,,,,
,,,,,,,,,60866f8615f854acc11700cf,24,Mężczyzna,2022-06-04_08h34.06.704,task,2021.1.4,Win32,60.21919788,628b806c463b948bc644b84f,629afc187da580b72ee631a2,,,,,,,,,,,,,,,,,,,,,,,,7,"[""7""]",1,[2.7173000000002503],"[3.2876000000001113,3.6340000000000146,3.9071000000001277,2.0017000000001417,2.866199999999708,3.0839999999999463,2.25109999999961,2.7173000000002503]",0,7,7,7,1,Practice,8,(5x5) - 18,7,,,,,,,,,,,,,,,,,,,,,,,,,,,,,,,,,,,,,,,,,,,,,,,,,,,,,,,,,,,,,,,,,,,
,,,,,,,,,60866f8615f854acc11700cf,24,Mężczyzna,2022-06-04_08h34.06.704,task,2021.1.4,Win32,60.21919788,628b806c463b948bc644b84f,629afc187da580b72ee631a2,,,,,,,,,,,,,,,,,,,,,,,,5,"[""5""]",1,[3.9333000000002585],"[3.2876000000001113,3.6340000000000146,3.9071000000001277,2.0017000000001417,2.866199999999708,3.0839999999999463,2.25109999999961,2.7173000000002503,3.9333000000002585]",0,8,8,5,1,Practice,6,(4/2) + 3,5,,,,,,,,,,,,,,,,,,,,,,,,,,,,,,,,,,,,,,,,,,,,,,,,,,,,,,,,,,,,,,,,,,,
,,,,,,,,,60866f8615f854acc11700cf,24,Mężczyzna,2022-06-04_08h34.06.704,task,2021.1.4,Win32,60.21919788,628b806c463b948bc644b84f,629afc187da580b72ee631a2,,,,,,,,,,,,,,,,,,,,,,,,6,"[""6""]",1,[2.9273999999999205],"[3.2876000000001113,3.6340000000000146,3.9071000000001277,2.0017000000001417,2.866199999999708,3.0839999999999463,2.25109999999961,2.7173000000002503,3.9333000000002585,2.9273999999999205]",0,9,9,6,1,Practice,7,(25/5) + 1,6,,,,,,,,,,,,,,,,,,,,,,,,,,,,,,,,,,,,,,,,,,,,,,,,,,,,,,,,,,,,,,,,,,,
,,,,,,,,,60866f8615f854acc11700cf,24,Mężczyzna,2022-06-04_08h34.06.704,task,2021.1.4,Win32,60.21919788,628b806c463b948bc644b84f,629afc187da580b72ee631a2,,,,,,,,,,,,,,,,,,,,,,,,,,,,,,,,,,,,,,1,30.6097,2.040646667,14.21957529,0.973638375,4.552633675,space,2.8349,0,0,0,0,1,,,,,,,,,,,,,,,,,,,,,,,,,,,,,,,,,,,,,,,,,,,,,,,,,,,,,,
,,,,,,,,,60866f8615f854acc11700cf,24,Mężczyzna,2022-06-04_08h34.06.704,task,2021.1.4,Win32,60.21919788,628b806c463b948bc644b84f,629afc187da580b72ee631a2,,,,,,,,,,,,,,,,,,,,,,,,2,,,,,,,,,,Practice,3,(4x4) - 14,2,,,,,,,,,,,,,,space,21.0217,"[""2""]",1,[2.376299999999901],1,0,0,0,2,1,,,,,,,,,,,,,,,,,,,,,,,,,,,,,,,,,,,,,,,,,,,
,,,,,,,,,60866f8615f854acc11700cf,24,Mężczyzna,2022-06-04_08h34.06.704,task,2021.1.4,Win32,60.21919788,628b806c463b948bc644b84f,629afc187da580b72ee631a2,,,,,,,,,,,X V Q F H G B L J M P D K C T S W R N Z,,,,,,,,,,,,,,,,,,,,,,,,,,,,,,,,,,,,,,,,,,,,,,,,,,,0,0,0,0,1,,,,,,,,,,,,,,,,,,,,,,,,,,,,,,,,,,,,,,
,,,,,,,,,60866f8615f854acc11700cf,24,Mężczyzna,2022-06-04_08h34.06.704,task,2021.1.4,Win32,60.21919788,628b806c463b948bc644b84f,629afc187da580b72ee631a2,,,,,,,,,,,,,,,,,,,,,,,,7,,,,,,,,,,Practice,8,(5x5) - 18,7,,,,,,,,,,,,,,,,"[""7""]",1,[3.0508000000002085],1,0,0,0,7,1,,,,,,,,,,,,,,,,,,,,,,,,,,,,,,,,,,,,,,,,,,,
,,,,,,,,,60866f8615f854acc11700cf,24,Mężczyzna,2022-06-04_08h34.06.704,task,2021.1.4,Win32,60.21919788,628b806c463b948bc644b84f,629afc187da580b72ee631a2,,,,,,,,,,,X V Q F H G B L J M P D K C T S W R N Z,,,,,,,,,,,,,,,,,,,,,,,,,,,,,,,,,,,,,,,,,,,,,,,,,,,1,0,1,0,1,,,,,,,,,,,,,,,,,,,,,,,,,,,,,,,,,,,,,,
,,,,,,,,,60866f8615f854acc11700cf,24,Mężczyzna,2022-06-04_08h34.06.704,task,2021.1.4,Win32,60.21919788,628b806c463b948bc644b84f,629afc187da580b72ee631a2,,,,,,,,,,,,,,,,,,,,,,,,,,,,,,,,,,,,,,,,,,,,,,,,,,,,,,,,,,,,,,,,,,,zt,"[""z"",""t""]",0,"[1.7224999999999682,2.4677999999997837,3.3935000000000173]",1,0,0,0,0,1,,,,,,,,,,,,,,,,,,,,,,,,,,,,
,,,,,,,,,60866f8615f854acc11700cf,24,Mężczyzna,2022-06-04_08h34.06.704,task,2021.1.4,Win32,60.21919788,628b806c463b948bc644b84f,629afc187da580b72ee631a2,,,,,,,,,,,,,,,,,,,,,,,,8,,,,,,,,,,Practice,9,(3x3) - 1,8,,,,,,,,,,,,,,,,"[""8""]",1,[3.9341999999996915],1,0,0,0,8,1,,,,,,,,,,,,,,,,,,,,,,,,,,,,,,,,,,,,,,,,,,,
,,,,,,,,,60866f8615f854acc11700cf,24,Mężczyzna,2022-06-04_08h34.06.704,task,2021.1.4,Win32,60.21919788,628b806c463b948bc644b84f,629afc187da580b72ee631a2,,,,,,,,,,,X V Q F H G B L J M P D K C T S W R N Z,,,,,,,,,,,,,,,,,,,,,,,,,,,,,,,,,,,,,,,,,,,,,,,,,,,0,0,0,0,1,,,,,,,,,,,,,,,,,,,,,,,,,,,,,,,,,,,,,,
,,,,,,,,,60866f8615f854acc11700cf,24,Mężczyzna,2022-06-04_08h34.06.704,task,2021.1.4,Win32,60.21919788,628b806c463b948bc644b84f,629afc187da580b72ee631a2,,,,,,,,,,,,,,,,,,,,,,,,1,,,,,,,,,,Practice,2,(4x4) - 15,1,,,,,,,,,,,,,,,,"[""1""]",1,[2.7532000000001062],1,0,0,0,1,1,,,,,,,,,,,,,,,,,,,,,,,,,,,,,,,,,,,,,,,,,,,
,,,,,,,,,60866f8615f854acc11700cf,24,Mężczyzna,2022-06-04_08h34.06.704,task,2021.1.4,Win32,60.21919788,628b806c463b948bc644b84f,629afc187da580b72ee631a2,,,,,,,,,,,X V Q F H G B L J M P D K C T S W R N Z,,,,,,,,,,,,,,,,,,,,,,,,,,,,,,,,,,,,,,,,,,,,,,,,,,,1,0,1,0,1,,,,,,,,,,,,,,,,,,,,,,,,,,,,,,,,,,,,,,
,,,,,,,,,60866f8615f854acc11700cf,24,Mężczyzna,2022-06-04_08h34.06.704,task,2021.1.4,Win32,60.21919788,628b806c463b948bc644b84f,629afc187da580b72ee631a2,,,,,,,,,,,,,,,,,,,,,,,,,,,,,,,,,,,,,,,,,,,,,,,,,,,,,,,,,,,,,,,,,,,xk,"[""x"",""k""]",0,"[1.3179000000000087,1.4110000000000582,2.1673999999999296]",1,1,0,1,0,1,,,,,,,,,,,,,,,,,,,,,,,,,,,,
,,,,,,,,,60866f8615f854acc11700cf,24,Mężczyzna,2022-06-04_08h34.06.704,task,2021.1.4,Win32,60.21919788,628b806c463b948bc644b84f,629afc187da580b72ee631a2,,,,,,,,,,,,,,,,,,,,,,,,,,,,,,,,,,Practice,10,(20/2) - 1,9,,,,,,,,,,,,,,,,,0,,0,0,0,0,9,1,,,,,,,,,,,,,,,,,,,,,,,,,,,,,,,,,,,,,,,,,,,
,,,,,,,,,60866f8615f854acc11700cf,24,Mężczyzna,2022-06-04_08h34.06.704,task,2021.1.4,Win32,60.21919788,628b806c463b948bc644b84f,629afc187da580b72ee631a2,,,,,,,,,,,,,,,,,,,,,,,,7,,,,,,,,,,Practice,8,(5x5) - 18,7,,,,,,,,,,,,,,,,"[""7""]",1,[1.5047000000001844],1,0,1,1,7,1,,,,,,,,,,,,,,,,,,,,,,,,,,,,,,,,,,,,,,,,,,,
,,,,,,,,,60866f8615f854acc11700cf,24,Mężczyzna,2022-06-04_08h34.06.704,task,2021.1.4,Win32,60.21919788,628b806c463b948bc644b84f,629afc187da580b72ee631a2,,,,,,,,,,,X V Q F H G B L J M P D K C T S W R N Z,,,,,,,,,,,,,,,,,,,,,,,,,,,,,,,,,,,,,,,,,,,,,,,,,,,0,0,0,0,1,,,,,,,,,,,,,,,,,,,,,,,,,,,,,,,,,,,,,,
,,,,,,,,,60866f8615f854acc11700cf,24,Mężczyzna,2022-06-04_08h34.06.704,task,2021.1.4,Win32,60.21919788,628b806c463b948bc644b84f,629afc187da580b72ee631a2,,,,,,,,,,,,,,,,,,,,,,,,5,,,,,,,,,,Practice,6,(4/2) + 3,5,,,,,,,,,,,,,,,,"[""5""]",1,[3.2169999999999845],1,0,0,0,5,1,,,,,,,,,,,,,,,,,,,,,,,,,,,,,,,,,,,,,,,,,,,
,,,,,,,,,60866f8615f854acc11700cf,24,Mężczyzna,2022-06-04_08h34.06.704,task,2021.1.4,Win32,60.21919788,628b806c463b948bc644b84f,629afc187da580b72ee631a2,,,,,,,,,,,X V Q F H G B L J M P D K C T S W R N Z,,,,,,,,,,,,,,,,,,,,,,,,,,,,,,,,,,,,,,,,,,,,,,,,,,,1,0,1,0,1,,,,,,,,,,,,,,,,,,,,,,,,,,,,,,,,,,,,,,
,,,,,,,,,60866f8615f854acc11700cf,24,Mężczyzna,2022-06-04_08h34.06.704,task,2021.1.4,Win32,60.21919788,628b806c463b948bc644b84f,629afc187da580b72ee631a2,,,,,,,,,,,,,,,,,,,,,,,,,,,,,,,,,,,,,,,,,,,,,,,,,,,,,,,,,,,,,,,,,,,sz,"[""s"",""z""]",0,"[1.2207999999998265,1.4341000000000577,2.1008999999999105]",1,2,0,2,0,1,,,,,,,,,,,,,,,,,,,,,,,,,,,,
,,,,,,,,,60866f8615f854acc11700cf,24,Mężczyzna,2022-06-04_08h34.06.704,task,2021.1.4,Win32,60.21919788,628b806c463b948bc644b84f,629afc187da580b72ee631a2,,,,,,,,,,,,,,,,,,,,,,,,0,,,,,,,,,,Task,17,(2x3) - 6,0,,,,,,,,,,,,,,,,,,,1,,,,,,,,,,,,,,,,,,,,,space,13.2724,"[""0""]",1,[2.038000000000011],0,0,0,16,1,,,,,,,,,,,,,,,,,,
,,,,,,,,,60866f8615f854acc11700cf,24,Mężczyzna,2022-06-04_08h34.06.704,task,2021.1.4,Win32,60.21919788,628b806c463b948bc644b84f,629afc187da580b72ee631a2,,,,,,,,,,,X V Q F H G B L J M P D K C T S W R N Z,,,,,,,,,,,,,,,,,,,,,,,,,,,,,,,,,,,,,,,,,,,,,,,,,,,,,,,,,,,,,,,,,,,,,,,,,,,,0,0,0,0,1,,,,,,,,,,,,,
,,,,,,,,,60866f8615f854acc11700cf,24,Mężczyzna,2022-06-04_08h34.06.704,task,2021.1.4,Win32,60.21919788,628b806c463b948bc644b84f,629afc187da580b72ee631a2,,,,,,,,,,,,,,,,,,,,,,,,4,,,,,,,,,,Task,11,(18/3) - 2,4,,,,,,,,,,,,,,,,,,,1,,,,,,,,,,,,,,,,,,,,,,,"[""4""]",1,[3.9836999999997715],0,0,0,10,1,,,,,,,,,,,,,,,,,,
,,,,,,,,,60866f8615f854acc11700cf,24,Mężczyzna,2022-06-04_08h34.06.704,task,2021.1.4,Win32,60.21919788,628b806c463b948bc644b84f,629afc187da580b72ee631a2,,,,,,,,,,,X V Q F H G B L J M P D K C T S W R N Z,,,,,,,,,,,,,,,,,,,,,,,,,,,,,,,,,,,,,,,,,,,,,,,,,,,,,,,,,,,,,,,,,,,,,,,,,,,,1,0,1,0,1,,,,,,,,,,,,,
,,,,,,,,,60866f8615f854acc11700cf,24,Mężczyzna,2022-06-04_08h34.06.704,task,2021.1.4,Win32,60.21919788,628b806c463b948bc644b84f,629afc187da580b72ee631a2,,,,,,,,,,,,,,,,,,,,,,,,,,,,,,,,,,,,,,,,,,,,,,,,,,,,,,,,,,,,,,,,,,,,,,,,,,,,,,,,,,,,,,,,,,,,zf,"[""z"",""f""]",0,"[2.0009999999999764,2.21770000000015,2.8878000000001975]",1,ZF,0,0,0,0,1,,
,,,,,,,,,60866f8615f854acc11700cf,24,Mężczyzna,2022-06-04_08h34.06.704,task,2021.1.4,Win32,60.21919788,628b806c463b948bc644b84f,629afc187da580b72ee631a2,,,,,,,,,,,,,,,,,,,,,,,,4,,,,,,,,,,Task,4,(1x5) - 1,4,,,,,,,,,,,,,,,,,,,1,,,,,,,,,,,,,,,,,,,,,,,"[""4""]",1,[2.6032999999998765],0,0,0,3,1,,,,,,,,,,,,,,,,,,
,,,,,,,,,60866f8615f854acc11700cf,24,Mężczyzna,2022-06-04_08h34.06.704,task,2021.1.4,Win32,60.21919788,628b806c463b948bc644b84f,629afc187da580b72ee631a2,,,,,,,,,,,X V Q F H G B L J M P D K C T S W R N Z,,,,,,,,,,,,,,,,,,,,,,,,,,,,,,,,,,,,,,,,,,,,,,,,,,,,,,,,,,,,,,,,,,,,,,,,,,,,0,0,0,0,1,,,,,,,,,,,,,
,,,,,,,,,60866f8615f854acc11700cf,24,Mężczyzna,2022-06-04_08h34.06.704,task,2021.1.4,Win32,60.21919788,628b806c463b948bc644b84f,629afc187da580b72ee631a2,,,,,,,,,,,,,,,,,,,,,,,,1,,,,,,,,,,Task,18,(16/4) - 3,1,,,,,,,,,,,,,,,,,,,1,,,,,,,,,,,,,,,,,,,,,,,"[""1""]",1,[3.633999999999901],0,0,0,17,1,,,,,,,,,,,,,,,,,,
,,,,,,,,,60866f8615f854acc11700cf,24,Mężczyzna,2022-06-04_08h34.06.704,task,2021.1.4,Win32,60.21919788,628b806c463b948bc644b84f,629afc187da580b72ee631a2,,,,,,,,,,,X V Q F H G B L J M P D K C T S W R N Z,,,,,,,,,,,,,,,,,,,,,,,,,,,,,,,,,,,,,,,,,,,,,,,,,,,,,,,,,,,,,,,,,,,,,,,,,,,,1,0,1,0,1,,,,,,,,,,,,,
,,,,,,,,,60866f8615f854acc11700cf,24,Mężczyzna,2022-06-04_08h34.06.704,task,2021.1.4,Win32,60.21919788,628b806c463b948bc644b84f,629afc187da580b72ee631a2,,,,,,,,,,,,,,,,,,,,,,,,9,,,,,,,,,,Task,24,(2x2) + 5,9,,,,,,,,,,,,,,,,,,,1,,,,,,,,,,,,,,,,,,,,,,,"[""9""]",1,[3.869000000000028],0,0,0,23,1,,,,,,,,,,,,,,,,,,
,,,,,,,,,60866f8615f854acc11700cf,24,Mężczyzna,2022-06-04_08h34.06.704,task,2021.1.4,Win32,60.21919788,628b806c463b948bc644b84f,629afc187da580b72ee631a2,,,,,,,,,,,X V Q F H G B L J M P D K C T S W R N Z,,,,,,,,,,,,,,,,,,,,,,,,,,,,,,,,,,,,,,,,,,,,,,,,,,,,,,,,,,,,,,,,,,,,,,,,,,,,2,0,2,0,1,,,,,,,,,,,,,
,,,,,,,,,60866f8615f854acc11700cf,24,Mężczyzna,2022-06-04_08h34.06.704,task,2021.1.4,Win32,60.21919788,628b806c463b948bc644b84f,629afc187da580b72ee631a2,,,,,,,,,,,,,,,,,,,,,,,,,,,,,,,,,,,,,,,,,,,,,,,,,,,,,,,,,,,,,,,,,,,,,,,,,,,,,,,,,,,,,,,,,,,,dtq,"[""d"",""t"",""q""]",0,"[1.9511000000001104,2.084300000000326,2.172300000000291,3.9177000000001954]",1,DTQ,1,0,1,0,1,,
,,,,,,,,,60866f8615f854acc11700cf,24,Mężczyzna,2022-06-04_08h34.06.704,task,2021.1.4,Win32,60.21919788,628b806c463b948bc644b84f,629afc187da580b72ee631a2,,,,,,,,,,,,,,,,,,,,,,,,2,,,,,,,,,,Task,10,(2x5) - 8,2,,,,,,,,,,,,,,,,,,,1,,,,,,,,,,,,,,,,,,,,,,,"[""2""]",1,[2.583700000000249],0,0,0,9,1,,,,,,,,,,,,,,,,,,
,,,,,,,,,60866f8615f854acc11700cf,24,Mężczyzna,2022-06-04_08h34.06.704,task,2021.1.4,Win32,60.21919788,628b806c463b948bc644b84f,629afc187da580b72ee631a2,,,,,,,,,,,X V Q F H G B L J M P D K C T S W R N Z,,,,,,,,,,,,,,,,,,,,,,,,,,,,,,,,,,,,,,,,,,,,,,,,,,,,,,,,,,,,,,,,,,,,,,,,,,,,0,0,0,0,1,,,,,,,,,,,,,
,,,,,,,,,60866f8615f854acc11700cf,24,Mężczyzna,2022-06-04_08h34.06.704,task,2021.1.4,Win32,60.21919788,628b806c463b948bc644b84f,629afc187da580b72ee631a2,,,,,,,,,,,,,,,,,,,,,,,,9,,,,,,,,,,Task,24,(2x2) + 5,9,,,,,,,,,,,,,,,,,,,1,,,,,,,,,,,,,,,,,,,,,,,"[""9""]",1,[1.9028999999999314],0,0,0,23,1,,,,,,,,,,,,,,,,,,
,,,,,,,,,60866f8615f854acc11700cf,24,Mężczyzna,2022-06-04_08h34.06.704,task,2021.1.4,Win32,60.21919788,628b806c463b948bc644b84f,629afc187da580b72ee631a2,,,,,,,,,,,X V Q F H G B L J M P D K C T S W R N Z,,,,,,,,,,,,,,,,,,,,,,,,,,,,,,,,,,,,,,,,,,,,,,,,,,,,,,,,,,,,,,,,,,,,,,,,,,,,1,0,1,0,1,,,,,,,,,,,,,
,,,,,,,,,60866f8615f854acc11700cf,24,Mężczyzna,2022-06-04_08h34.06.704,task,2021.1.4,Win32,60.21919788,628b806c463b948bc644b84f,629afc187da580b72ee631a2,,,,,,,,,,,,,,,,,,,,,,,,8,,,,,,,,,,Task,32,(8/2) + 4,8,,,,,,,,,,,,,,,,,,,1,,,,,,,,,,,,,,,,,,,,,,,"[""8""]",1,[2.7442000000002054],0,0,0,31,1,,,,,,,,,,,,,,,,,,
,,,,,,,,,60866f8615f854acc11700cf,24,Mężczyzna,2022-06-04_08h34.06.704,task,2021.1.4,Win32,60.21919788,628b806c463b948bc644b84f,629afc187da580b72ee631a2,,,,,,,,,,,X V Q F H G B L J M P D K C T S W R N Z,,,,,,,,,,,,,,,,,,,,,,,,,,,,,,,,,,,,,,,,,,,,,,,,,,,,,,,,,,,,,,,,,,,,,,,,,,,,2,0,2,0,1,,,,,,,,,,,,,
,,,,,,,,,60866f8615f854acc11700cf,24,Mężczyzna,2022-06-04_08h34.06.704,task,2021.1.4,Win32,60.21919788,628b806c463b948bc644b84f,629afc187da580b72ee631a2,,,,,,,,,,,,,,,,,,,,,,,,,,,,,,,,,,Task,29,(3x8) - 19 ,5,,,,,,,,,,,,,,,,,,,0,,,,,,,,,,,,,,,,,,,,,,,,0,,0,0,0,28,1,,,,,,,,,,,,,,,,,,
,,,,,,,,,60866f8615f854acc11700cf,24,Mężczyzna,2022-06-04_08h34.06.704,task,2021.1.4,Win32,60.21919788,628b806c463b948bc644b84f,629afc187da580b72ee631a2,,,,,,,,,,,,,,,,,,,,,,,,2,,,,,,,,,,Task,26,(2x9) - 16,2,,,,,,,,,,,,,,,,,,,1,,,,,,,,,,,,,,,,,,,,,,,"[""2""]",1,[2.5341000000000804],0,1,1,25,1,,,,,,,,,,,,,,,,,,
,,,,,,,,,60866f8615f854acc11700cf,24,Mężczyzna,2022-06-04_08h34.06.704,task,2021.1.4,Win32,60.21919788,628b806c463b948bc644b84f,629afc187da580b72ee631a2,,,,,,,,,,,X V Q F H G B L J M P D K C T S W R N Z,,,,,,,,,,,,,,,,,,,,,,,,,,,,,,,,,,,,,,,,,,,,,,,,,,,,,,,,,,,,,,,,,,,,,,,,,,,,3,0,3,0,1,,,,,,,,,,,,,
,,,,,,,,,60866f8615f854acc11700cf,24,Mężczyzna,2022-06-04_08h34.06.704,task,2021.1.4,Win32,60.21919788,628b806c463b948bc644b84f,629afc187da580b72ee631a2,,,,,,,,,,,,,,,,,,,,,,,,,,,,,,,,,,,,,,,,,,,,,,,,,,,,,,,,,,,,,,,,,,,,,,,,,,,,,,,,,,,,,,,,,,,,jmbb,"[""j"",""m"",""b"",""b""]",0,"[1.2841999999997142,1.6412999999997737,2.09059999999954,2.411199999999667,5.017899999999827]",1,JMBB,2,0,2,0,1,,
,,,,,,,,,60866f8615f854acc11700cf,24,Mężczyzna,2022-06-04_08h34.06.704,task,2021.1.4,Win32,60.21919788,628b806c463b948bc644b84f,629afc187da580b72ee631a2,,,,,,,,,,,,,,,,,,,,,,,,1,,,,,,,,,,Task,16,(3x8) - 15,9,,,,,,,,,,,,,,,,,,,0,,,,,,,,,,,,,,,,,,,,,,,"[""1""]",0,[1.9111000000001468],0,0,0,15,1,,,,,,,,,,,,,,,,,,
,,,,,,,,,60866f8615f854acc11700cf,24,Mężczyzna,2022-06-04_08h34.06.704,task,2021.1.4,Win32,60.21919788,628b806c463b948bc644b84f,629afc187da580b72ee631a2,,,,,,,,,,,,,,,,,,,,,,,,5,,,,,,,,,,Task,29,(3x8) - 19 ,5,,,,,,,,,,,,,,,,,,,1,,,,,,,,,,,,,,,,,,,,,,,"[""5""]",1,[3.3274999999999864],0,1,1,28,1,,,,,,,,,,,,,,,,,,
,,,,,,,,,60866f8615f854acc11700cf,24,Mężczyzna,2022-06-04_08h34.06.704,task,2021.1.4,Win32,60.21919788,628b806c463b948bc644b84f,629afc187da580b72ee631a2,,,,,,,,,,,X V Q F H G B L J M P D K C T S W R N Z,,,,,,,,,,,,,,,,,,,,,,,,,,,,,,,,,,,,,,,,,,,,,,,,,,,,,,,,,,,,,,,,,,,,,,,,,,,,0,0,0,0,1,,,,,,,,,,,,,
,,,,,,,,,60866f8615f854acc11700cf,24,Mężczyzna,2022-06-04_08h34.06.704,task,2021.1.4,Win32,60.21919788,628b806c463b948bc644b84f,629afc187da580b72ee631a2,,,,,,,,,,,,,,,,,,,,,,,,6,,,,,,,,,,Task,37,(3/3) + 5,6,,,,,,,,,,,,,,,,,,,1,,,,,,,,,,,,,,,,,,,,,,,"[""6""]",1,[3.673200000000179],0,0,0,36,1,,,,,,,,,,,,,,,,,,
,,,,,,,,,60866f8615f854acc11700cf,24,Mężczyzna,2022-06-04_08h34.06.704,task,2021.1.4,Win32,60.21919788,628b806c463b948bc644b84f,629afc187da580b72ee631a2,,,,,,,,,,,X V Q F H G B L J M P D K C T S W R N Z,,,,,,,,,,,,,,,,,,,,,,,,,,,,,,,,,,,,,,,,,,,,,,,,,,,,,,,,,,,,,,,,,,,,,,,,,,,,1,0,1,0,1,,,,,,,,,,,,,
,,,,,,,,,60866f8615f854acc11700cf,24,Mężczyzna,2022-06-04_08h34.06.704,task,2021.1.4,Win32,60.21919788,628b806c463b948bc644b84f,629afc187da580b72ee631a2,,,,,,,,,,,,,,,,,,,,,,,,1,,,,,,,,,,Task,1,(12/6) - 1,1,,,,,,,,,,,,,,,,,,,1,,,,,,,,,,,,,,,,,,,,,,,"[""1""]",1,[4.258899999999926],0,0,0,0,1,,,,,,,,,,,,,,,,,,
,,,,,,,,,60866f8615f854acc11700cf,24,Mężczyzna,2022-06-04_08h34.06.704,task,2021.1.4,Win32,60.21919788,628b806c463b948bc644b84f,629afc187da580b72ee631a2,,,,,,,,,,,X V Q F H G B L J M P D K C T S W R N Z,,,,,,,,,,,,,,,,,,,,,,,,,,,,,,,,,,,,,,,,,,,,,,,,,,,,,,,,,,,,,,,,,,,,,,,,,,,,2,0,2,0,1,,,,,,,,,,,,,
,,,,,,,,,60866f8615f854acc11700cf,24,Mężczyzna,2022-06-04_08h34.06.704,task,2021.1.4,Win32,60.21919788,628b806c463b948bc644b84f,629afc187da580b72ee631a2,,,,,,,,,,,,,,,,,,,,,,,,3,,,,,,,,,,Task,20,(18/9) + 1,3,,,,,,,,,,,,,,,,,,,1,,,,,,,,,,,,,,,,,,,,,,,"[""3""]",1,[1.6672000000002072],0,0,0,19,1,,,,,,,,,,,,,,,,,,
,,,,,,,,,60866f8615f854acc11700cf,24,Mężczyzna,2022-06-04_08h34.06.704,task,2021.1.4,Win32,60.21919788,628b806c463b948bc644b84f,629afc187da580b72ee631a2,,,,,,,,,,,X V Q F H G B L J M P D K C T S W R N Z,,,,,,,,,,,,,,,,,,,,,,,,,,,,,,,,,,,,,,,,,,,,,,,,,,,,,,,,,,,,,,,,,,,,,,,,,,,,3,0,3,0,1,,,,,,,,,,,,,
,,,,,,,,,60866f8615f854acc11700cf,24,Mężczyzna,2022-06-04_08h34.06.704,task,2021.1.4,Win32,60.21919788,628b806c463b948bc644b84f,629afc187da580b72ee631a2,,,,,,,,,,,,,,,,,,,,,,,,7,,,,,,,,,,Task,14,(2x2) + 3,7,,,,,,,,,,,,,,,,,,,1,,,,,,,,,,,,,,,,,,,,,,,"[""7""]",1,[3.0008999999998878],0,0,0,13,1,,,,,,,,,,,,,,,,,,
,,,,,,,,,60866f8615f854acc11700cf,24,Mężczyzna,2022-06-04_08h34.06.704,task,2021.1.4,Win32,60.21919788,628b806c463b948bc644b84f,629afc187da580b72ee631a2,,,,,,,,,,,X V Q F H G B L J M P D K C T S W R N Z,,,,,,,,,,,,,,,,,,,,,,,,,,,,,,,,,,,,,,,,,,,,,,,,,,,,,,,,,,,,,,,,,,,,,,,,,,,,4,0,4,0,1,,,,,,,,,,,,,
,,,,,,,,,60866f8615f854acc11700cf,24,Mężczyzna,2022-06-04_08h34.06.704,task,2021.1.4,Win32,60.21919788,628b806c463b948bc644b84f,629afc187da580b72ee631a2,,,,,,,,,,,,,,,,,,,,,,,,,,,,,,,,,,,,,,,,,,,,,,,,,,,,,,,,,,,,,,,,,,,,,,,,,,,,,,,,,,,,,,,,,,,,jwrgf,"[""j"",""w"",""r"",""g"",""f""]",0,"[1.3006999999996651,1.70799999999997,2.0066000000000486,3.2677999999997382,3.494399999999814,4.867699999999672]",1,JWRGF,3,0,3,0,1,,
,,,,,,,,,60866f8615f854acc11700cf,24,Mężczyzna,2022-06-04_08h34.06.704,task,2021.1.4,Win32,60.21919788,628b806c463b948bc644b84f,629afc187da580b72ee631a2,,,,,,,,,,,,,,,,,,,,,,,,7,,,,,,,,,,Task,36,(8/4) + 3,5,,,,,,,,,,,,,,,,,,,0,,,,,,,,,,,,,,,,,,,,,,,"[""7""]",0,[2.8387000000002445],0,0,0,35,1,,,,,,,,,,,,,,,,,,
,,,,,,,,,60866f8615f854acc11700cf,24,Mężczyzna,2022-06-04_08h34.06.704,task,2021.1.4,Win32,60.21919788,628b806c463b948bc644b84f,629afc187da580b72ee631a2,,,,,,,,,,,,,,,,,,,,,,,,2,,,,,,,,,,Task,2,(2x2) - 2,2,,,,,,,,,,,,,,,,,,,1,,,,,,,,,,,,,,,,,,,,,,,"[""2""]",1,[2.256700000000251],0,1,1,1,1,,,,,,,,,,,,,,,,,,
,,,,,,,,,60866f8615f854acc11700cf,24,Mężczyzna,2022-06-04_08h34.06.704,task,2021.1.4,Win32,60.21919788,628b806c463b948bc644b84f,629afc187da580b72ee631a2,,,,,,,,,,,X V Q F H G B L J M P D K C T S W R N Z,,,,,,,,,,,,,,,,,,,,,,,,,,,,,,,,,,,,,,,,,,,,,,,,,,,,,,,,,,,,,,,,,,,,,,,,,,,,0,0,0,0,1,,,,,,,,,,,,,
,,,,,,,,,60866f8615f854acc11700cf,24,Mężczyzna,2022-06-04_08h34.06.704,task,2021.1.4,Win32,60.21919788,628b806c463b948bc644b84f,629afc187da580b72ee631a2,,,,,,,,,,,,,,,,,,,,,,,,6,,,,,,,,,,Task,5,(2x3) + 0,6,,,,,,,,,,,,,,,,,,,1,,,,,,,,,,,,,,,,,,,,,,,"[""6""]",1,[2.3773000000002185],0,0,0,4,1,,,,,,,,,,,,,,,,,,
,,,,,,,,,60866f8615f854acc11700cf,24,Mężczyzna,2022-06-04_08h34.06.704,task,2021.1.4,Win32,60.21919788,628b806c463b948bc644b84f,629afc187da580b72ee631a2,,,,,,,,,,,X V Q F H G B L J M P D K C T S W R N Z,,,,,,,,,,,,,,,,,,,,,,,,,,,,,,,,,,,,,,,,,,,,,,,,,,,,,,,,,,,,,,,,,,,,,,,,,,,,1,0,1,0,1,,,,,,,,,,,,,
,,,,,,,,,60866f8615f854acc11700cf,24,Mężczyzna,2022-06-04_08h34.06.704,task,2021.1.4,Win32,60.21919788,628b806c463b948bc644b84f,629afc187da580b72ee631a2,,,,,,,,,,,,,,,,,,,,,,,,4,,,,,,,,,,Task,4,(1x5) - 1,4,,,,,,,,,,,,,,,,,,,1,,,,,,,,,,,,,,,,,,,,,,,"[""4""]",1,[2.167800000000284],0,0,0,3,1,,,,,,,,,,,,,,,,,,
,,,,,,,,,60866f8615f854acc11700cf,24,Mężczyzna,2022-06-04_08h34.06.704,task,2021.1.4,Win32,60.21919788,628b806c463b948bc644b84f,629afc187da580b72ee631a2,,,,,,,,,,,X V Q F H G B L J M P D K C T S W R N Z,,,,,,,,,,,,,,,,,,,,,,,,,,,,,,,,,,,,,,,,,,,,,,,,,,,,,,,,,,,,,,,,,,,,,,,,,,,,2,0,2,0,1,,,,,,,,,,,,,
,,,,,,,,,60866f8615f854acc11700cf,24,Mężczyzna,2022-06-04_08h34.06.704,task,2021.1.4,Win32,60.21919788,628b806c463b948bc644b84f,629afc187da580b72ee631a2,,,,,,,,,,,,,,,,,,,,,,,,4,,,,,,,,,,Task,32,(8/2) + 4,8,,,,,,,,,,,,,,,,,,,0,,,,,,,,,,,,,,,,,,,,,,,"[""4""]",0,[2.9173999999999296],0,0,0,31,1,,,,,,,,,,,,,,,,,,
,,,,,,,,,60866f8615f854acc11700cf,24,Mężczyzna,2022-06-04_08h34.06.704,task,2021.1.4,Win32,60.21919788,628b806c463b948bc644b84f,629afc187da580b72ee631a2,,,,,,,,,,,,,,,,,,,,,,,,2,,,,,,,,,,Task,19,(6/2) - 1,2,,,,,,,,,,,,,,,,,,,1,,,,,,,,,,,,,,,,,,,,,,,"[""2""]",1,[2.7511999999998125],0,1,1,18,1,,,,,,,,,,,,,,,,,,
,,,,,,,,,60866f8615f854acc11700cf,24,Mężczyzna,2022-06-04_08h34.06.704,task,2021.1.4,Win32,60.21919788,628b806c463b948bc644b84f,629afc187da580b72ee631a2,,,,,,,,,,,X V Q F H G B L J M P D K C T S W R N Z,,,,,,,,,,,,,,,,,,,,,,,,,,,,,,,,,,,,,,,,,,,,,,,,,,,,,,,,,,,,,,,,,,,,,,,,,,,,3,0,3,0,1,,,,,,,,,,,,,
,,,,,,,,,60866f8615f854acc11700cf,24,Mężczyzna,2022-06-04_08h34.06.704,task,2021.1.4,Win32,60.21919788,628b806c463b948bc644b84f,629afc187da580b72ee631a2,,,,,,,,,,,,,,,,,,,,,,,,5,,,,,,,,,,Task,1,(12/6) - 1,1,,,,,,,,,,,,,,,,,,,0,,,,,,,,,,,,,,,,,,,,,,,"[""5""]",0,[3.7172000000001617],0,0,0,0,1,,,,,,,,,,,,,,,,,,
,,,,,,,,,60866f8615f854acc11700cf,24,Mężczyzna,2022-06-04_08h34.06.704,task,2021.1.4,Win32,60.21919788,628b806c463b948bc644b84f,629afc187da580b72ee631a2,,,,,,,,,,,,,,,,,,,,,,,,9,,,,,,,,,,Task,16,(3x8) - 15,9,,,,,,,,,,,,,,,,,,,1,,,,,,,,,,,,,,,,,,,,,,,"[""9""]",1,[2.7907000000002427],0,1,1,15,1,,,,,,,,,,,,,,,,,,
,,,,,,,,,60866f8615f854acc11700cf,24,Mężczyzna,2022-06-04_08h34.06.704,task,2021.1.4,Win32,60.21919788,628b806c463b948bc644b84f,629afc187da580b72ee631a2,,,,,,,,,,,X V Q F H G B L J M P D K C T S W R N Z,,,,,,,,,,,,,,,,,,,,,,,,,,,,,,,,,,,,,,,,,,,,,,,,,,,,,,,,,,,,,,,,,,,,,,,,,,,,4,0,4,0,1,,,,,,,,,,,,,
,,,,,,,,,60866f8615f854acc11700cf,24,Mężczyzna,2022-06-04_08h34.06.704,task,2021.1.4,Win32,60.21919788,628b806c463b948bc644b84f,629afc187da580b72ee631a2,,,,,,,,,,,,,,,,,,,,,,,,4,,,,,,,,,,Task,21,(10/2) - 1,4,,,,,,,,,,,,,,,,,,,1,,,,,,,,,,,,,,,,,,,,,,,"[""4""]",1,[1.7896999999996979],0,0,0,20,1,,,,,,,,,,,,,,,,,,
,,,,,,,,,60866f8615f854acc11700cf,24,Mężczyzna,2022-06-04_08h34.06.704,task,2021.1.4,Win32,60.21919788,628b806c463b948bc644b84f,629afc187da580b72ee631a2,,,,,,,,,,,X V Q F H G B L J M P D K C T S W R N Z,,,,,,,,,,,,,,,,,,,,,,,,,,,,,,,,,,,,,,,,,,,,,,,,,,,,,,,,,,,,,,,,,,,,,,,,,,,,5,0,5,0,1,,,,,,,,,,,,,
,,,,,,,,,60866f8615f854acc11700cf,24,Mężczyzna,2022-06-04_08h34.06.704,task,2021.1.4,Win32,60.21919788,628b806c463b948bc644b84f,629afc187da580b72ee631a2,,,,,,,,,,,,,,,,,,,,,,,,,,,,,,,,,,,,,,,,,,,,,,,,,,,,,,,,,,,,,,,,,,,,,,,,,,,,,,,,,,,,,,,,,,,,czbmhx,"[""c"",""z"",""b"",""m"",""h"",""x""]",0,"[1.272199999999657,1.6041999999997643,2.356999999999971,2.774499999999989,3.6391000000000986,3.817600000000084,7.70110000000011]",1,CZBMHX,4,0,4,0,1,,
,,,,,,,,,60866f8615f854acc11700cf,24,Mężczyzna,2022-06-04_08h34.06.704,task,2021.1.4,Win32,60.21919788,628b806c463b948bc644b84f,629afc187da580b72ee631a2,,,,,,,,,,,,,,,,,,,,,,,,5,,,,,,,,,,Task,22,(3x1) + 2,5,,,,,,,,,,,,,,,,,,,1,,,,,,,,,,,,,,,,,,,,,,,"[""5""]",1,[2.1417999999998756],0,0,0,21,1,,,,,,,,,,,,,,,,,,
,,,,,,,,,60866f8615f854acc11700cf,24,Mężczyzna,2022-06-04_08h34.06.704,task,2021.1.4,Win32,60.21919788,628b806c463b948bc644b84f,629afc187da580b72ee631a2,,,,,,,,,,,X V Q F H G B L J M P D K C T S W R N Z,,,,,,,,,,,,,,,,,,,,,,,,,,,,,,,,,,,,,,,,,,,,,,,,,,,,,,,,,,,,,,,,,,,,,,,,,,,,0,0,0,0,1,,,,,,,,,,,,,
,,,,,,,,,60866f8615f854acc11700cf,24,Mężczyzna,2022-06-04_08h34.06.704,task,2021.1.4,Win32,60.21919788,628b806c463b948bc644b84f,629afc187da580b72ee631a2,,,,,,,,,,,,,,,,,,,,,,,,5,,,,,,,,,,Task,22,(3x1) + 2,5,,,,,,,,,,,,,,,,,,,1,,,,,,,,,,,,,,,,,,,,,,,"[""5""]",1,[1.4841000000000122],0,0,0,21,1,,,,,,,,,,,,,,,,,,
,,,,,,,,,60866f8615f854acc11700cf,24,Mężczyzna,2022-06-04_08h34.06.704,task,2021.1.4,Win32,60.21919788,628b806c463b948bc644b84f,629afc187da580b72ee631a2,,,,,,,,,,,X V Q F H G B L J M P D K C T S W R N Z,,,,,,,,,,,,,,,,,,,,,,,,,,,,,,,,,,,,,,,,,,,,,,,,,,,,,,,,,,,,,,,,,,,,,,,,,,,,1,0,1,0,1,,,,,,,,,,,,,
,,,,,,,,,60866f8615f854acc11700cf,24,Mężczyzna,2022-06-04_08h34.06.704,task,2021.1.4,Win32,60.21919788,628b806c463b948bc644b84f,629afc187da580b72ee631a2,,,,,,,,,,,,,,,,,,,,,,,,9,,,,,,,,,,Task,16,(3x8) - 15,9,,,,,,,,,,,,,,,,,,,1,,,,,,,,,,,,,,,,,,,,,,,"[""9""]",1,[2.000200000000177],0,0,0,15,1,,,,,,,,,,,,,,,,,,
,,,,,,,,,60866f8615f854acc11700cf,24,Mężczyzna,2022-06-04_08h34.06.704,task,2021.1.4,Win32,60.21919788,628b806c463b948bc644b84f,629afc187da580b72ee631a2,,,,,,,,,,,X V Q F H G B L J M P D K C T S W R N Z,,,,,,,,,,,,,,,,,,,,,,,,,,,,,,,,,,,,,,,,,,,,,,,,,,,,,,,,,,,,,,,,,,,,,,,,,,,,2,0,2,0,1,,,,,,,,,,,,,
,,,,,,,,,60866f8615f854acc11700cf,24,Mężczyzna,2022-06-04_08h34.06.704,task,2021.1.4,Win32,60.21919788,628b806c463b948bc644b84f,629afc187da580b72ee631a2,,,,,,,,,,,,,,,,,,,,,,,,9,,,,,,,,,,Task,24,(2x2) + 5,9,,,,,,,,,,,,,,,,,,,1,,,,,,,,,,,,,,,,,,,,,,,"[""9""]",1,[2.7592000000001917],0,0,0,23,1,,,,,,,,,,,,,,,,,,
,,,,,,,,,60866f8615f854acc11700cf,24,Mężczyzna,2022-06-04_08h34.06.704,task,2021.1.4,Win32,60.21919788,628b806c463b948bc644b84f,629afc187da580b72ee631a2,,,,,,,,,,,X V Q F H G B L J M P D K C T S W R N Z,,,,,,,,,,,,,,,,,,,,,,,,,,,,,,,,,,,,,,,,,,,,,,,,,,,,,,,,,,,,,,,,,,,,,,,,,,,,3,0,3,0,1,,,,,,,,,,,,,
,,,,,,,,,60866f8615f854acc11700cf,24,Mężczyzna,2022-06-04_08h34.06.704,task,2021.1.4,Win32,60.21919788,628b806c463b948bc644b84f,629afc187da580b72ee631a2,,,,,,,,,,,,,,,,,,,,,,,,6,,,,,,,,,,Task,5,(2x3) + 0,6,,,,,,,,,,,,,,,,,,,1,,,,,,,,,,,,,,,,,,,,,,,"[""6""]",1,[2.2421000000000504],0,0,0,4,1,,,,,,,,,,,,,,,,,,
,,,,,,,,,60866f8615f854acc11700cf,24,Mężczyzna,2022-06-04_08h34.06.704,task,2021.1.4,Win32,60.21919788,628b806c463b948bc644b84f,629afc187da580b72ee631a2,,,,,,,,,,,X V Q F H G B L J M P D K C T S W R N Z,,,,,,,,,,,,,,,,,,,,,,,,,,,,,,,,,,,,,,,,,,,,,,,,,,,,,,,,,,,,,,,,,,,,,,,,,,,,4,0,4,0,1,,,,,,,,,,,,,
,,,,,,,,,60866f8615f854acc11700cf,24,Mężczyzna,2022-06-04_08h34.06.704,task,2021.1.4,Win32,60.21919788,628b806c463b948bc644b84f,629afc187da580b72ee631a2,,,,,,,,,,,,,,,,,,,,,,,,9,,,,,,,,,,Task,37,(3/3) + 5,6,,,,,,,,,,,,,,,,,,,0,,,,,,,,,,,,,,,,,,,,,,,"[""9""]",0,[2.3005000000000564],0,0,0,36,1,,,,,,,,,,,,,,,,,,
,,,,,,,,,60866f8615f854acc11700cf,24,Mężczyzna,2022-06-04_08h34.06.704,task,2021.1.4,Win32,60.21919788,628b806c463b948bc644b84f,629afc187da580b72ee631a2,,,,,,,,,,,,,,,,,,,,,,,,7,,,,,,,,,,Task,6,(12/2) + 1,7,,,,,,,,,,,,,,,,,,,1,,,,,,,,,,,,,,,,,,,,,,,"[""7""]",1,[3.117200000000139],0,1,1,5,1,,,,,,,,,,,,,,,,,,
,,,,,,,,,60866f8615f854acc11700cf,24,Mężczyzna,2022-06-04_08h34.06.704,task,2021.1.4,Win32,60.21919788,628b806c463b948bc644b84f,629afc187da580b72ee631a2,,,,,,,,,,,X V Q F H G B L J M P D K C T S W R N Z,,,,,,,,,,,,,,,,,,,,,,,,,,,,,,,,,,,,,,,,,,,,,,,,,,,,,,,,,,,,,,,,,,,,,,,,,,,,5,0,5,0,1,,,,,,,,,,,,,
,,,,,,,,,60866f8615f854acc11700cf,24,Mężczyzna,2022-06-04_08h34.06.704,task,2021.1.4,Win32,60.21919788,628b806c463b948bc644b84f,629afc187da580b72ee631a2,,,,,,,,,,,,,,,,,,,,,,,,9,,,,,,,,,,Task,31,(4/2) + 5,7,,,,,,,,,,,,,,,,,,,0,,,,,,,,,,,,,,,,,,,,,,,"[""9""]",0,[3.366800000000353],0,0,0,30,1,,,,,,,,,,,,,,,,,,
,,,,,,,,,60866f8615f854acc11700cf,24,Mężczyzna,2022-06-04_08h34.06.704,task,2021.1.4,Win32,60.21919788,628b806c463b948bc644b84f,629afc187da580b72ee631a2,,,,,,,,,,,,,,,,,,,,,,,,7,,,,,,,,,,Task,14,(2x2) + 3,7,,,,,,,,,,,,,,,,,,,1,,,,,,,,,,,,,,,,,,,,,,,"[""7""]",1,[2.883999999999901],0,1,1,13,1,,,,,,,,,,,,,,,,,,
,,,,,,,,,60866f8615f854acc11700cf,24,Mężczyzna,2022-06-04_08h34.06.704,task,2021.1.4,Win32,60.21919788,628b806c463b948bc644b84f,629afc187da580b72ee631a2,,,,,,,,,,,X V Q F H G B L J M P D K C T S W R N Z,,,,,,,,,,,,,,,,,,,,,,,,,,,,,,,,,,,,,,,,,,,,,,,,,,,,,,,,,,,,,,,,,,,,,,,,,,,,6,0,6,0,1,,,,,,,,,,,,,
,,,,,,,,,60866f8615f854acc11700cf,24,Mężczyzna,2022-06-04_08h34.06.704,task,2021.1.4,Win32,60.21919788,628b806c463b948bc644b84f,629afc187da580b72ee631a2,,,,,,,,,,,,,,,,,,,,,,,,,,,,,,,,,,,,,,,,,,,,,,,,,,,,,,,,,,,,,,,,,,,,,,,,,,,,,,,,,,,,,,,,,,,,kwxdkl,"[""k"",""w"",""x"",""d"",""k"",""l""]",0,"[1.5844999999999345,2.7342999999997346,4.18429999999978,7.017999999999915,8.35129999999981,8.61829999999975,11.21810000000005]",0,KWQDKBL,5,0,5,0,1,,
,,,,,,,,,60866f8615f854acc11700cf,24,Mężczyzna,2022-06-04_08h34.06.704,task,2021.1.4,Win32,60.21919788,628b806c463b948bc644b84f,629afc187da580b72ee631a2,,,,,,,,,,,,,,,,,,,,,,,,6,,,,,,,,,,Task,30,(6/3) + 4 ,6,,,,,,,,,,,,,,,,,,,1,,,,,,,,,,,,,,,,,,,,,,,"[""6""]",1,[2.8668000000002394],0,0,0,29,1,,,,,,,,,,,,,,,,,,
,,,,,,,,,60866f8615f854acc11700cf,24,Mężczyzna,2022-06-04_08h34.06.704,task,2021.1.4,Win32,60.21919788,628b806c463b948bc644b84f,629afc187da580b72ee631a2,,,,,,,,,,,X V Q F H G B L J M P D K C T S W R N Z,,,,,,,,,,,,,,,,,,,,,,,,,,,,,,,,,,,,,,,,,,,,,,,,,,,,,,,,,,,,,,,,,,,,,,,,,,,,0,0,0,0,1,,,,,,,,,,,,,
,,,,,,,,,60866f8615f854acc11700cf,24,Mężczyzna,2022-06-04_08h34.06.704,task,2021.1.4,Win32,60.21919788,628b806c463b948bc644b84f,629afc187da580b72ee631a2,,,,,,,,,,,,,,,,,,,,,,,,1,,,,,,,,,,Task,9,(3x7) - 20,1,,,,,,,,,,,,,,,,,,,1,,,,,,,,,,,,,,,,,,,,,,,"[""1""]",1,[2.305499999999938],0,0,0,8,1,,,,,,,,,,,,,,,,,,
,,,,,,,,,60866f8615f854acc11700cf,24,Mężczyzna,2022-06-04_08h34.06.704,task,2021.1.4,Win32,60.21919788,628b806c463b948bc644b84f,629afc187da580b72ee631a2,,,,,,,,,,,X V Q F H G B L J M P D K C T S W R N Z,,,,,,,,,,,,,,,,,,,,,,,,,,,,,,,,,,,,,,,,,,,,,,,,,,,,,,,,,,,,,,,,,,,,,,,,,,,,1,0,1,0,1,,,,,,,,,,,,,
,,,,,,,,,60866f8615f854acc11700cf,24,Mężczyzna,2022-06-04_08h34.06.704,task,2021.1.4,Win32,60.21919788,628b806c463b948bc644b84f,629afc187da580b72ee631a2,,,,,,,,,,,,,,,,,,,,,,,,7,,,,,,,,,,Task,31,(4/2) + 5,7,,,,,,,,,,,,,,,,,,,1,,,,,,,,,,,,,,,,,,,,,,,"[""7""]",1,[2.417299999999841],0,0,0,30,1,,,,,,,,,,,,,,,,,,
,,,,,,,,,60866f8615f854acc11700cf,24,Mężczyzna,2022-06-04_08h34.06.704,task,2021.1.4,Win32,60.21919788,628b806c463b948bc644b84f,629afc187da580b72ee631a2,,,,,,,,,,,X V Q F H G B L J M P D K C T S W R N Z,,,,,,,,,,,,,,,,,,,,,,,,,,,,,,,,,,,,,,,,,,,,,,,,,,,,,,,,,,,,,,,,,,,,,,,,,,,,2,0,2,0,1,,,,,,,,,,,,,
,,,,,,,,,60866f8615f854acc11700cf,24,Mężczyzna,2022-06-04_08h34.06.704,task,2021.1.4,Win32,60.21919788,628b806c463b948bc644b84f,629afc187da580b72ee631a2,,,,,,,,,,,,,,,,,,,,,,,,2,,,,,,,,,,Task,19,(6/2) - 1,2,,,,,,,,,,,,,,,,,,,1,,,,,,,,,,,,,,,,,,,,,,,"[""2""]",1,[2.168900000000349],0,0,0,18,1,,,,,,,,,,,,,,,,,,
,,,,,,,,,60866f8615f854acc11700cf,24,Mężczyzna,2022-06-04_08h34.06.704,task,2021.1.4,Win32,60.21919788,628b806c463b948bc644b84f,629afc187da580b72ee631a2,,,,,,,,,,,X V Q F H G B L J M P D K C T S W R N Z,,,,,,,,,,,,,,,,,,,,,,,,,,,,,,,,,,,,,,,,,,,,,,,,,,,,,,,,,,,,,,,,,,,,,,,,,,,,3,0,3,0,1,,,,,,,,,,,,,
,,,,,,,,,60866f8615f854acc11700cf,24,Mężczyzna,2022-06-04_08h34.06.704,task,2021.1.4,Win32,60.21919788,628b806c463b948bc644b84f,629afc187da580b72ee631a2,,,,,,,,,,,,,,,,,,,,,,,,0,,,,,,,,,,Task,17,(2x3) - 6,0,,,,,,,,,,,,,,,,,,,1,,,,,,,,,,,,,,,,,,,,,,,"[""0""]",1,[2.325299999999743],0,0,0,16,1,,,,,,,,,,,,,,,,,,
,,,,,,,,,60866f8615f854acc11700cf,24,Mężczyzna,2022-06-04_08h34.06.704,task,2021.1.4,Win32,60.21919788,628b806c463b948bc644b84f,629afc187da580b72ee631a2,,,,,,,,,,,X V Q F H G B L J M P D K C T S W R N Z,,,,,,,,,,,,,,,,,,,,,,,,,,,,,,,,,,,,,,,,,,,,,,,,,,,,,,,,,,,,,,,,,,,,,,,,,,,,4,0,4,0,1,,,,,,,,,,,,,
,,,,,,,,,60866f8615f854acc11700cf,24,Mężczyzna,2022-06-04_08h34.06.704,task,2021.1.4,Win32,60.21919788,628b806c463b948bc644b84f,629afc187da580b72ee631a2,,,,,,,,,,,,,,,,,,,,,,,,2,,,,,,,,,,Task,2,(2x2) - 2,2,,,,,,,,,,,,,,,,,,,1,,,,,,,,,,,,,,,,,,,,,,,"[""2""]",1,[1.8336000000001604],0,0,0,1,1,,,,,,,,,,,,,,,,,,
,,,,,,,,,60866f8615f854acc11700cf,24,Mężczyzna,2022-06-04_08h34.06.704,task,2021.1.4,Win32,60.21919788,628b806c463b948bc644b84f,629afc187da580b72ee631a2,,,,,,,,,,,X V Q F H G B L J M P D K C T S W R N Z,,,,,,,,,,,,,,,,,,,,,,,,,,,,,,,,,,,,,,,,,,,,,,,,,,,,,,,,,,,,,,,,,,,,,,,,,,,,5,0,5,0,1,,,,,,,,,,,,,
,,,,,,,,,60866f8615f854acc11700cf,24,Mężczyzna,2022-06-04_08h34.06.704,task,2021.1.4,Win32,60.21919788,628b806c463b948bc644b84f,629afc187da580b72ee631a2,,,,,,,,,,,,,,,,,,,,,,,,1,,,,,,,,,,Task,27,(3/3) + 2,3,,,,,,,,,,,,,,,,,,,0,,,,,,,,,,,,,,,,,,,,,,,"[""1""]",0,[3.2838999999999032],0,0,0,26,1,,,,,,,,,,,,,,,,,,
,,,,,,,,,60866f8615f854acc11700cf,24,Mężczyzna,2022-06-04_08h34.06.704,task,2021.1.4,Win32,60.21919788,628b806c463b948bc644b84f,629afc187da580b72ee631a2,,,,,,,,,,,,,,,,,,,,,,,,3,,,,,,,,,,Task,3,(2x3) - 3,3,,,,,,,,,,,,,,,,,,,1,,,,,,,,,,,,,,,,,,,,,,,"[""3""]",1,[3.3172000000001844],0,1,1,2,1,,,,,,,,,,,,,,,,,,
,,,,,,,,,60866f8615f854acc11700cf,24,Mężczyzna,2022-06-04_08h34.06.704,task,2021.1.4,Win32,60.21919788,628b806c463b948bc644b84f,629afc187da580b72ee631a2,,,,,,,,,,,X V Q F H G B L J M P D K C T S W R N Z,,,,,,,,,,,,,,,,,,,,,,,,,,,,,,,,,,,,,,,,,,,,,,,,,,,,,,,,,,,,,,,,,,,,,,,,,,,,6,0,6,0,1,,,,,,,,,,,,,
,,,,,,,,,60866f8615f854acc11700cf,24,Mężczyzna,2022-06-04_08h34.06.704,task,2021.1.4,Win32,60.21919788,628b806c463b948bc644b84f,629afc187da580b72ee631a2,,,,,,,,,,,,,,,,,,,,,,,,,,,,,,,,,,,,,,,,,,,,,,,,,,,,,,,,,,,,,,,,,,,,,,,,,,,,,,,,,,,,,,,,,,,,lmvdkp,"[""l"",""m"",""v"",""d"",""k"",""p""]",0,"[1.2006000000001222,1.53449999999998,2.9503999999997177,3.2851000000000568,4.45089999999982,5.08629999999971,7.3163999999999305]",0,LMVDKDP,6,0,6,0,1,,
,,,,,,,,,60866f8615f854acc11700cf,24,Mężczyzna,2022-06-04_08h34.06.704,task,2021.1.4,Win32,60.21919788,628b806c463b948bc644b84f,629afc187da580b72ee631a2,,,,,,,,,,,,,,,,,,,,,,,,,,,,,,,,,,,,,,,,,,,,,,,,,,,,,,,,,,,,,,,,,,,,,,,,,,,,,,,,,,,,,,,,,,,,,,,,,,,,,,,space,3.2679
