key_resp_15.keys,key_resp_15.rt,key_resp_16.keys,key_resp_16.rt,key_resp_4.keys,key_resp_4.rt,next_letter.thisRepN,next_letter.thisTrialN,next_letter.thisN,next_letter.thisIndex,next_letter.ran,letter,participant,Wiek*,Płeć,date,expName,psychopyVersion,OS,frameRate,study_id,session,simple_recall,key_resp_5.keys,key_resp_5.rt,simple_recall_corr,simple_recall_corrkeys,next_level.thisRepN,next_level.thisTrialN,next_level.thisN,next_level.thisIndex,next_level.ran,key_resp_2.keys,key_resp_2.rt,digit_answer,key_resp.keys,key_resp.corr,key_resp.rt,RT_list,next_equation.thisRepN,next_equation.thisTrialN,next_equation.thisN,next_equation.thisIndex,next_equation.ran,Task,Trial,Problem,Operation_answer,processing_score,sumRT,meanRT,sumdiff,sd,RT,key_resp_3.keys,key_resp_3.rt,repeat_practice.thisRepN,repeat_practice.thisTrialN,repeat_practice.thisN,repeat_practice.thisIndex,repeat_practice.ran,key_resp_6.keys,key_resp_6.rt,key_resp_11.keys,key_resp_11.corr,key_resp_11.rt,operation_correct,repeat_if_wrong_prac.thisRepN,repeat_if_wrong_prac.thisTrialN,repeat_if_wrong_prac.thisN,repeat_if_wrong_prac.thisIndex,repeat_if_wrong_prac.ran,span_size_prac.thisRepN,span_size_prac.thisTrialN,span_size_prac.thisN,span_size_prac.thisIndex,span_size_prac.ran,complex_recall_practice,key_resp_9.keys,key_resp_9.corr,key_resp_9.rt,complex_prac_corr,span_recall_prac.thisRepN,span_recall_prac.thisTrialN,span_recall_prac.thisN,span_recall_prac.thisIndex,span_recall_prac.ran,key_resp_10.keys,key_resp_10.rt,key_resp_7.keys,key_resp_7.corr,key_resp_7.rt,repeat_if_wrong.thisRepN,repeat_if_wrong.thisTrialN,repeat_if_wrong.thisN,repeat_if_wrong.thisIndex,repeat_if_wrong.ran,span_size.thisRepN,span_size.thisTrialN,span_size.thisN,span_size.thisIndex,span_size.ran,complex_recall,key_resp_8.keys,key_resp_8.corr,key_resp_8.rt,complex_recall_corr,complex_recall_corrkeys,span_recall.thisRepN,span_recall.thisTrialN,span_recall.thisN,span_recall.thisIndex,span_recall.ran,key_resp_13.keys,key_resp_13.corr,key_resp_13.rt,random_loop.thisRepN,random_loop.thisTrialN,random_loop.thisN,random_loop.thisIndex,random_loop.ran,key_resp_12.keys,key_resp_12.rt
space,14.3237,space,23.7952,space,6.9264,0,0,0,0,1,X V Q F H G B L J M P D K C T S W R N Z,609949e684aaf8787044e7ce,19,Mężczyzna,2022-06-11_09h18.33.819,task,2021.1.4,Win32,74.96251874,6299f149e92ead563fba08ef,62a441afeb3f3ad7f439daba,,,,,,,,,,,,,,,,,,,,,,,,,,,,,,,,,,,,,,,,,,,,,,,,,,,,,,,,,,,,,,,,,,,,,,,,,,,,,,,,,,,,,,,,,,,,,,,,,,,,,
,,,,,,1,0,1,0,1,X V Q F H G B L J M P D K C T S W R N Z,609949e684aaf8787044e7ce,19,Mężczyzna,2022-06-11_09h18.33.819,task,2021.1.4,Win32,74.96251874,6299f149e92ead563fba08ef,62a441afeb3f3ad7f439daba,,,,,,,,,,,,,,,,,,,,,,,,,,,,,,,,,,,,,,,,,,,,,,,,,,,,,,,,,,,,,,,,,,,,,,,,,,,,,,,,,,,,,,,,,,,,,,,,,,,,,
,,,,,,,,,,,,609949e684aaf8787044e7ce,19,Mężczyzna,2022-06-11_09h18.33.819,task,2021.1.4,Win32,74.96251874,6299f149e92ead563fba08ef,62a441afeb3f3ad7f439daba,zs,"[""z"",""s""]","[2.2056999999999505,2.3880999999998664,3.5090000000000003]",1,ZS,0,0,0,0,1,,,,,,,,,,,,,,,,,,,,,,,,,,,,,,,,,,,,,,,,,,,,,,,,,,,,,,,,,,,,,,,,,,,,,,,,,,,,,,,,,,,,,,,,,,,
,,,,,,0,0,0,0,1,X V Q F H G B L J M P D K C T S W R N Z,609949e684aaf8787044e7ce,19,Mężczyzna,2022-06-11_09h18.33.819,task,2021.1.4,Win32,74.96251874,6299f149e92ead563fba08ef,62a441afeb3f3ad7f439daba,,,,,,,,,,,,,,,,,,,,,,,,,,,,,,,,,,,,,,,,,,,,,,,,,,,,,,,,,,,,,,,,,,,,,,,,,,,,,,,,,,,,,,,,,,,,,,,,,,,,,
,,,,,,1,0,1,0,1,X V Q F H G B L J M P D K C T S W R N Z,609949e684aaf8787044e7ce,19,Mężczyzna,2022-06-11_09h18.33.819,task,2021.1.4,Win32,74.96251874,6299f149e92ead563fba08ef,62a441afeb3f3ad7f439daba,,,,,,,,,,,,,,,,,,,,,,,,,,,,,,,,,,,,,,,,,,,,,,,,,,,,,,,,,,,,,,,,,,,,,,,,,,,,,,,,,,,,,,,,,,,,,,,,,,,,,
,,,,,,,,,,,,609949e684aaf8787044e7ce,19,Mężczyzna,2022-06-11_09h18.33.819,task,2021.1.4,Win32,74.96251874,6299f149e92ead563fba08ef,62a441afeb3f3ad7f439daba,kr,"[""k"",""r""]","[0.4958999999999065,0.5748999999999,0.9289999999999878]",1,KR,1,0,1,0,1,,,,,,,,,,,,,,,,,,,,,,,,,,,,,,,,,,,,,,,,,,,,,,,,,,,,,,,,,,,,,,,,,,,,,,,,,,,,,,,,,,,,,,,,,,,
,,,,,,0,0,0,0,1,X V Q F H G B L J M P D K C T S W R N Z,609949e684aaf8787044e7ce,19,Mężczyzna,2022-06-11_09h18.33.819,task,2021.1.4,Win32,74.96251874,6299f149e92ead563fba08ef,62a441afeb3f3ad7f439daba,,,,,,,,,,,,,,,,,,,,,,,,,,,,,,,,,,,,,,,,,,,,,,,,,,,,,,,,,,,,,,,,,,,,,,,,,,,,,,,,,,,,,,,,,,,,,,,,,,,,,
,,,,,,1,0,1,0,1,X V Q F H G B L J M P D K C T S W R N Z,609949e684aaf8787044e7ce,19,Mężczyzna,2022-06-11_09h18.33.819,task,2021.1.4,Win32,74.96251874,6299f149e92ead563fba08ef,62a441afeb3f3ad7f439daba,,,,,,,,,,,,,,,,,,,,,,,,,,,,,,,,,,,,,,,,,,,,,,,,,,,,,,,,,,,,,,,,,,,,,,,,,,,,,,,,,,,,,,,,,,,,,,,,,,,,,
,,,,,,2,0,2,0,1,X V Q F H G B L J M P D K C T S W R N Z,609949e684aaf8787044e7ce,19,Mężczyzna,2022-06-11_09h18.33.819,task,2021.1.4,Win32,74.96251874,6299f149e92ead563fba08ef,62a441afeb3f3ad7f439daba,,,,,,,,,,,,,,,,,,,,,,,,,,,,,,,,,,,,,,,,,,,,,,,,,,,,,,,,,,,,,,,,,,,,,,,,,,,,,,,,,,,,,,,,,,,,,,,,,,,,,
,,,,,,,,,,,,609949e684aaf8787044e7ce,19,Mężczyzna,2022-06-11_09h18.33.819,task,2021.1.4,Win32,74.96251874,6299f149e92ead563fba08ef,62a441afeb3f3ad7f439daba,fmx,"[""f"",""m"",""x""]","[0.5461999999999563,0.7018999999999096,0.7963999999999061,1.6495000000000033]",1,FMX,2,0,2,0,1,,,,,,,,,,,,,,,,,,,,,,,,,,,,,,,,,,,,,,,,,,,,,,,,,,,,,,,,,,,,,,,,,,,,,,,,,,,,,,,,,,,,,,,,,,,
,,,,,,0,0,0,0,1,X V Q F H G B L J M P D K C T S W R N Z,609949e684aaf8787044e7ce,19,Mężczyzna,2022-06-11_09h18.33.819,task,2021.1.4,Win32,74.96251874,6299f149e92ead563fba08ef,62a441afeb3f3ad7f439daba,,,,,,,,,,,,,,,,,,,,,,,,,,,,,,,,,,,,,,,,,,,,,,,,,,,,,,,,,,,,,,,,,,,,,,,,,,,,,,,,,,,,,,,,,,,,,,,,,,,,,
,,,,,,1,0,1,0,1,X V Q F H G B L J M P D K C T S W R N Z,609949e684aaf8787044e7ce,19,Mężczyzna,2022-06-11_09h18.33.819,task,2021.1.4,Win32,74.96251874,6299f149e92ead563fba08ef,62a441afeb3f3ad7f439daba,,,,,,,,,,,,,,,,,,,,,,,,,,,,,,,,,,,,,,,,,,,,,,,,,,,,,,,,,,,,,,,,,,,,,,,,,,,,,,,,,,,,,,,,,,,,,,,,,,,,,
,,,,,,2,0,2,0,1,X V Q F H G B L J M P D K C T S W R N Z,609949e684aaf8787044e7ce,19,Mężczyzna,2022-06-11_09h18.33.819,task,2021.1.4,Win32,74.96251874,6299f149e92ead563fba08ef,62a441afeb3f3ad7f439daba,,,,,,,,,,,,,,,,,,,,,,,,,,,,,,,,,,,,,,,,,,,,,,,,,,,,,,,,,,,,,,,,,,,,,,,,,,,,,,,,,,,,,,,,,,,,,,,,,,,,,
,,,,,,,,,,,,609949e684aaf8787044e7ce,19,Mężczyzna,2022-06-11_09h18.33.819,task,2021.1.4,Win32,74.96251874,6299f149e92ead563fba08ef,62a441afeb3f3ad7f439daba,klq,"[""k"",""l"",""q""]","[0.6108000000000402,0.6794999999999902,0.8426000000000897,2.070199999999943]",1,KLQ,3,0,3,0,1,,,,,,,,,,,,,,,,,,,,,,,,,,,,,,,,,,,,,,,,,,,,,,,,,,,,,,,,,,,,,,,,,,,,,,,,,,,,,,,,,,,,,,,,,,,
,,,,,,0,0,0,0,1,X V Q F H G B L J M P D K C T S W R N Z,609949e684aaf8787044e7ce,19,Mężczyzna,2022-06-11_09h18.33.819,task,2021.1.4,Win32,74.96251874,6299f149e92ead563fba08ef,62a441afeb3f3ad7f439daba,,,,,,,,,,,,,,,,,,,,,,,,,,,,,,,,,,,,,,,,,,,,,,,,,,,,,,,,,,,,,,,,,,,,,,,,,,,,,,,,,,,,,,,,,,,,,,,,,,,,,
,,,,,,1,0,1,0,1,X V Q F H G B L J M P D K C T S W R N Z,609949e684aaf8787044e7ce,19,Mężczyzna,2022-06-11_09h18.33.819,task,2021.1.4,Win32,74.96251874,6299f149e92ead563fba08ef,62a441afeb3f3ad7f439daba,,,,,,,,,,,,,,,,,,,,,,,,,,,,,,,,,,,,,,,,,,,,,,,,,,,,,,,,,,,,,,,,,,,,,,,,,,,,,,,,,,,,,,,,,,,,,,,,,,,,,
,,,,,,2,0,2,0,1,X V Q F H G B L J M P D K C T S W R N Z,609949e684aaf8787044e7ce,19,Mężczyzna,2022-06-11_09h18.33.819,task,2021.1.4,Win32,74.96251874,6299f149e92ead563fba08ef,62a441afeb3f3ad7f439daba,,,,,,,,,,,,,,,,,,,,,,,,,,,,,,,,,,,,,,,,,,,,,,,,,,,,,,,,,,,,,,,,,,,,,,,,,,,,,,,,,,,,,,,,,,,,,,,,,,,,,
,,,,,,3,0,3,0,1,X V Q F H G B L J M P D K C T S W R N Z,609949e684aaf8787044e7ce,19,Mężczyzna,2022-06-11_09h18.33.819,task,2021.1.4,Win32,74.96251874,6299f149e92ead563fba08ef,62a441afeb3f3ad7f439daba,,,,,,,,,,,,,,,,,,,,,,,,,,,,,,,,,,,,,,,,,,,,,,,,,,,,,,,,,,,,,,,,,,,,,,,,,,,,,,,,,,,,,,,,,,,,,,,,,,,,,
,,,,,,,,,,,,609949e684aaf8787044e7ce,19,Mężczyzna,2022-06-11_09h18.33.819,task,2021.1.4,Win32,74.96251874,6299f149e92ead563fba08ef,62a441afeb3f3ad7f439daba,zszw,"[""z"",""s"",""z"",""w""]","[3.010800000000046,3.2038000000000437,3.409000000000006,3.7224999999999966,4.170500000000004]",0,SZSW,4,0,4,0,1,,,,,,,,,,,,,,,,,,,,,,,,,,,,,,,,,,,,,,,,,,,,,,,,,,,,,,,,,,,,,,,,,,,,,,,,,,,,,,,,,,,,,,,,,,,
,,,,,,0,0,0,0,1,X V Q F H G B L J M P D K C T S W R N Z,609949e684aaf8787044e7ce,19,Mężczyzna,2022-06-11_09h18.33.819,task,2021.1.4,Win32,74.96251874,6299f149e92ead563fba08ef,62a441afeb3f3ad7f439daba,,,,,,,,,,,,,,,,,,,,,,,,,,,,,,,,,,,,,,,,,,,,,,,,,,,,,,,,,,,,,,,,,,,,,,,,,,,,,,,,,,,,,,,,,,,,,,,,,,,,,
,,,,,,1,0,1,0,1,X V Q F H G B L J M P D K C T S W R N Z,609949e684aaf8787044e7ce,19,Mężczyzna,2022-06-11_09h18.33.819,task,2021.1.4,Win32,74.96251874,6299f149e92ead563fba08ef,62a441afeb3f3ad7f439daba,,,,,,,,,,,,,,,,,,,,,,,,,,,,,,,,,,,,,,,,,,,,,,,,,,,,,,,,,,,,,,,,,,,,,,,,,,,,,,,,,,,,,,,,,,,,,,,,,,,,,
,,,,,,2,0,2,0,1,X V Q F H G B L J M P D K C T S W R N Z,609949e684aaf8787044e7ce,19,Mężczyzna,2022-06-11_09h18.33.819,task,2021.1.4,Win32,74.96251874,6299f149e92ead563fba08ef,62a441afeb3f3ad7f439daba,,,,,,,,,,,,,,,,,,,,,,,,,,,,,,,,,,,,,,,,,,,,,,,,,,,,,,,,,,,,,,,,,,,,,,,,,,,,,,,,,,,,,,,,,,,,,,,,,,,,,
,,,,,,3,0,3,0,1,X V Q F H G B L J M P D K C T S W R N Z,609949e684aaf8787044e7ce,19,Mężczyzna,2022-06-11_09h18.33.819,task,2021.1.4,Win32,74.96251874,6299f149e92ead563fba08ef,62a441afeb3f3ad7f439daba,,,,,,,,,,,,,,,,,,,,,,,,,,,,,,,,,,,,,,,,,,,,,,,,,,,,,,,,,,,,,,,,,,,,,,,,,,,,,,,,,,,,,,,,,,,,,,,,,,,,,
,,,,,,,,,,,,609949e684aaf8787044e7ce,19,Mężczyzna,2022-06-11_09h18.33.819,task,2021.1.4,Win32,74.96251874,6299f149e92ead563fba08ef,62a441afeb3f3ad7f439daba,sscn,"[""s"",""s"",""c"",""n""]","[0.40060000000009666,0.5764999999999958,0.7689000000001442,1.1670000000000016,1.5361999999999512]",1,SSCN,5,0,5,0,1,,,,,,,,,,,,,,,,,,,,,,,,,,,,,,,,,,,,,,,,,,,,,,,,,,,,,,,,,,,,,,,,,,,,,,,,,,,,,,,,,,,,,,,,,,,
,,,,,,0,0,0,0,1,X V Q F H G B L J M P D K C T S W R N Z,609949e684aaf8787044e7ce,19,Mężczyzna,2022-06-11_09h18.33.819,task,2021.1.4,Win32,74.96251874,6299f149e92ead563fba08ef,62a441afeb3f3ad7f439daba,,,,,,,,,,,,,,,,,,,,,,,,,,,,,,,,,,,,,,,,,,,,,,,,,,,,,,,,,,,,,,,,,,,,,,,,,,,,,,,,,,,,,,,,,,,,,,,,,,,,,
,,,,,,1,0,1,0,1,X V Q F H G B L J M P D K C T S W R N Z,609949e684aaf8787044e7ce,19,Mężczyzna,2022-06-11_09h18.33.819,task,2021.1.4,Win32,74.96251874,6299f149e92ead563fba08ef,62a441afeb3f3ad7f439daba,,,,,,,,,,,,,,,,,,,,,,,,,,,,,,,,,,,,,,,,,,,,,,,,,,,,,,,,,,,,,,,,,,,,,,,,,,,,,,,,,,,,,,,,,,,,,,,,,,,,,
,,,,,,2,0,2,0,1,X V Q F H G B L J M P D K C T S W R N Z,609949e684aaf8787044e7ce,19,Mężczyzna,2022-06-11_09h18.33.819,task,2021.1.4,Win32,74.96251874,6299f149e92ead563fba08ef,62a441afeb3f3ad7f439daba,,,,,,,,,,,,,,,,,,,,,,,,,,,,,,,,,,,,,,,,,,,,,,,,,,,,,,,,,,,,,,,,,,,,,,,,,,,,,,,,,,,,,,,,,,,,,,,,,,,,,
,,,,,,3,0,3,0,1,X V Q F H G B L J M P D K C T S W R N Z,609949e684aaf8787044e7ce,19,Mężczyzna,2022-06-11_09h18.33.819,task,2021.1.4,Win32,74.96251874,6299f149e92ead563fba08ef,62a441afeb3f3ad7f439daba,,,,,,,,,,,,,,,,,,,,,,,,,,,,,,,,,,,,,,,,,,,,,,,,,,,,,,,,,,,,,,,,,,,,,,,,,,,,,,,,,,,,,,,,,,,,,,,,,,,,,
,,,,,,,,,,,,609949e684aaf8787044e7ce,19,Mężczyzna,2022-06-11_09h18.33.819,task,2021.1.4,Win32,74.96251874,6299f149e92ead563fba08ef,62a441afeb3f3ad7f439daba,tfwk,"[""t"",""f"",""w"",""k""]","[0.7675999999998595,1.0141999999999456,1.3568000000000353,1.6704999999999899,2.347300000000047]",1,TFWK,6,0,6,0,1,,,,,,,,,,,,,,,,,,,,,,,,,,,,,,,,,,,,,,,,,,,,,,,,,,,,,,,,,,,,,,,,,,,,,,,,,,,,,,,,,,,,,,,,,,,
,,,,,,0,0,0,0,1,X V Q F H G B L J M P D K C T S W R N Z,609949e684aaf8787044e7ce,19,Mężczyzna,2022-06-11_09h18.33.819,task,2021.1.4,Win32,74.96251874,6299f149e92ead563fba08ef,62a441afeb3f3ad7f439daba,,,,,,,,,,,,,,,,,,,,,,,,,,,,,,,,,,,,,,,,,,,,,,,,,,,,,,,,,,,,,,,,,,,,,,,,,,,,,,,,,,,,,,,,,,,,,,,,,,,,,
,,,,,,1,0,1,0,1,X V Q F H G B L J M P D K C T S W R N Z,609949e684aaf8787044e7ce,19,Mężczyzna,2022-06-11_09h18.33.819,task,2021.1.4,Win32,74.96251874,6299f149e92ead563fba08ef,62a441afeb3f3ad7f439daba,,,,,,,,,,,,,,,,,,,,,,,,,,,,,,,,,,,,,,,,,,,,,,,,,,,,,,,,,,,,,,,,,,,,,,,,,,,,,,,,,,,,,,,,,,,,,,,,,,,,,
,,,,,,2,0,2,0,1,X V Q F H G B L J M P D K C T S W R N Z,609949e684aaf8787044e7ce,19,Mężczyzna,2022-06-11_09h18.33.819,task,2021.1.4,Win32,74.96251874,6299f149e92ead563fba08ef,62a441afeb3f3ad7f439daba,,,,,,,,,,,,,,,,,,,,,,,,,,,,,,,,,,,,,,,,,,,,,,,,,,,,,,,,,,,,,,,,,,,,,,,,,,,,,,,,,,,,,,,,,,,,,,,,,,,,,
,,,,,,3,0,3,0,1,X V Q F H G B L J M P D K C T S W R N Z,609949e684aaf8787044e7ce,19,Mężczyzna,2022-06-11_09h18.33.819,task,2021.1.4,Win32,74.96251874,6299f149e92ead563fba08ef,62a441afeb3f3ad7f439daba,,,,,,,,,,,,,,,,,,,,,,,,,,,,,,,,,,,,,,,,,,,,,,,,,,,,,,,,,,,,,,,,,,,,,,,,,,,,,,,,,,,,,,,,,,,,,,,,,,,,,
,,,,,,4,0,4,0,1,X V Q F H G B L J M P D K C T S W R N Z,609949e684aaf8787044e7ce,19,Mężczyzna,2022-06-11_09h18.33.819,task,2021.1.4,Win32,74.96251874,6299f149e92ead563fba08ef,62a441afeb3f3ad7f439daba,,,,,,,,,,,,,,,,,,,,,,,,,,,,,,,,,,,,,,,,,,,,,,,,,,,,,,,,,,,,,,,,,,,,,,,,,,,,,,,,,,,,,,,,,,,,,,,,,,,,,
,,,,,,,,,,,,609949e684aaf8787044e7ce,19,Mężczyzna,2022-06-11_09h18.33.819,task,2021.1.4,Win32,74.96251874,6299f149e92ead563fba08ef,62a441afeb3f3ad7f439daba,dpwxr,"[""d"",""p"",""w"",""x"",""r""]","[3.1131000000001023,3.2093000000000558,3.4038000000000466,4.296699999999959,4.511800000000051,4.955699999999965]",1,DPWXR,7,0,7,0,1,,,,,,,,,,,,,,,,,,,,,,,,,,,,,,,,,,,,,,,,,,,,,,,,,,,,,,,,,,,,,,,,,,,,,,,,,,,,,,,,,,,,,,,,,,,
,,,,,,0,0,0,0,1,X V Q F H G B L J M P D K C T S W R N Z,609949e684aaf8787044e7ce,19,Mężczyzna,2022-06-11_09h18.33.819,task,2021.1.4,Win32,74.96251874,6299f149e92ead563fba08ef,62a441afeb3f3ad7f439daba,,,,,,,,,,,,,,,,,,,,,,,,,,,,,,,,,,,,,,,,,,,,,,,,,,,,,,,,,,,,,,,,,,,,,,,,,,,,,,,,,,,,,,,,,,,,,,,,,,,,,
,,,,,,1,0,1,0,1,X V Q F H G B L J M P D K C T S W R N Z,609949e684aaf8787044e7ce,19,Mężczyzna,2022-06-11_09h18.33.819,task,2021.1.4,Win32,74.96251874,6299f149e92ead563fba08ef,62a441afeb3f3ad7f439daba,,,,,,,,,,,,,,,,,,,,,,,,,,,,,,,,,,,,,,,,,,,,,,,,,,,,,,,,,,,,,,,,,,,,,,,,,,,,,,,,,,,,,,,,,,,,,,,,,,,,,
,,,,,,2,0,2,0,1,X V Q F H G B L J M P D K C T S W R N Z,609949e684aaf8787044e7ce,19,Mężczyzna,2022-06-11_09h18.33.819,task,2021.1.4,Win32,74.96251874,6299f149e92ead563fba08ef,62a441afeb3f3ad7f439daba,,,,,,,,,,,,,,,,,,,,,,,,,,,,,,,,,,,,,,,,,,,,,,,,,,,,,,,,,,,,,,,,,,,,,,,,,,,,,,,,,,,,,,,,,,,,,,,,,,,,,
,,,,,,3,0,3,0,1,X V Q F H G B L J M P D K C T S W R N Z,609949e684aaf8787044e7ce,19,Mężczyzna,2022-06-11_09h18.33.819,task,2021.1.4,Win32,74.96251874,6299f149e92ead563fba08ef,62a441afeb3f3ad7f439daba,,,,,,,,,,,,,,,,,,,,,,,,,,,,,,,,,,,,,,,,,,,,,,,,,,,,,,,,,,,,,,,,,,,,,,,,,,,,,,,,,,,,,,,,,,,,,,,,,,,,,
,,,,,,4,0,4,0,1,X V Q F H G B L J M P D K C T S W R N Z,609949e684aaf8787044e7ce,19,Mężczyzna,2022-06-11_09h18.33.819,task,2021.1.4,Win32,74.96251874,6299f149e92ead563fba08ef,62a441afeb3f3ad7f439daba,,,,,,,,,,,,,,,,,,,,,,,,,,,,,,,,,,,,,,,,,,,,,,,,,,,,,,,,,,,,,,,,,,,,,,,,,,,,,,,,,,,,,,,,,,,,,,,,,,,,,
,,,,,,,,,,,,609949e684aaf8787044e7ce,19,Mężczyzna,2022-06-11_09h18.33.819,task,2021.1.4,Win32,74.96251874,6299f149e92ead563fba08ef,62a441afeb3f3ad7f439daba,wlrkp,"[""w"",""l"",""r"",""k"",""p""]","[0.741500000000002,1.0678000000000623,1.6411000000001081,1.920800000000071,2.0818000000000723,2.5555000000000234]",0,QLRKP,8,0,8,0,1,,,,,,,,,,,,,,,,,,,,,,,,,,,,,,,,,,,,,,,,,,,,,,,,,,,,,,,,,,,,,,,,,,,,,,,,,,,,,,,,,,,,,,,,,,,
,,,,,,0,0,0,0,1,X V Q F H G B L J M P D K C T S W R N Z,609949e684aaf8787044e7ce,19,Mężczyzna,2022-06-11_09h18.33.819,task,2021.1.4,Win32,74.96251874,6299f149e92ead563fba08ef,62a441afeb3f3ad7f439daba,,,,,,,,,,,,,,,,,,,,,,,,,,,,,,,,,,,,,,,,,,,,,,,,,,,,,,,,,,,,,,,,,,,,,,,,,,,,,,,,,,,,,,,,,,,,,,,,,,,,,
,,,,,,1,0,1,0,1,X V Q F H G B L J M P D K C T S W R N Z,609949e684aaf8787044e7ce,19,Mężczyzna,2022-06-11_09h18.33.819,task,2021.1.4,Win32,74.96251874,6299f149e92ead563fba08ef,62a441afeb3f3ad7f439daba,,,,,,,,,,,,,,,,,,,,,,,,,,,,,,,,,,,,,,,,,,,,,,,,,,,,,,,,,,,,,,,,,,,,,,,,,,,,,,,,,,,,,,,,,,,,,,,,,,,,,
,,,,,,2,0,2,0,1,X V Q F H G B L J M P D K C T S W R N Z,609949e684aaf8787044e7ce,19,Mężczyzna,2022-06-11_09h18.33.819,task,2021.1.4,Win32,74.96251874,6299f149e92ead563fba08ef,62a441afeb3f3ad7f439daba,,,,,,,,,,,,,,,,,,,,,,,,,,,,,,,,,,,,,,,,,,,,,,,,,,,,,,,,,,,,,,,,,,,,,,,,,,,,,,,,,,,,,,,,,,,,,,,,,,,,,
,,,,,,3,0,3,0,1,X V Q F H G B L J M P D K C T S W R N Z,609949e684aaf8787044e7ce,19,Mężczyzna,2022-06-11_09h18.33.819,task,2021.1.4,Win32,74.96251874,6299f149e92ead563fba08ef,62a441afeb3f3ad7f439daba,,,,,,,,,,,,,,,,,,,,,,,,,,,,,,,,,,,,,,,,,,,,,,,,,,,,,,,,,,,,,,,,,,,,,,,,,,,,,,,,,,,,,,,,,,,,,,,,,,,,,
,,,,,,4,0,4,0,1,X V Q F H G B L J M P D K C T S W R N Z,609949e684aaf8787044e7ce,19,Mężczyzna,2022-06-11_09h18.33.819,task,2021.1.4,Win32,74.96251874,6299f149e92ead563fba08ef,62a441afeb3f3ad7f439daba,,,,,,,,,,,,,,,,,,,,,,,,,,,,,,,,,,,,,,,,,,,,,,,,,,,,,,,,,,,,,,,,,,,,,,,,,,,,,,,,,,,,,,,,,,,,,,,,,,,,,
,,,,,,,,,,,,609949e684aaf8787044e7ce,19,Mężczyzna,2022-06-11_09h18.33.819,task,2021.1.4,Win32,74.96251874,6299f149e92ead563fba08ef,62a441afeb3f3ad7f439daba,jsgrd,"[""j"",""s"",""g"",""r"",""d""]","[0.6151000000000977,1.0647000000001867,1.453000000000003,1.8007000000001767,2.063100000000105,2.4856000000000904]",1,JSGRD,9,0,9,0,1,,,,,,,,,,,,,,,,,,,,,,,,,,,,,,,,,,,,,,,,,,,,,,,,,,,,,,,,,,,,,,,,,,,,,,,,,,,,,,,,,,,,,,,,,,,
,,,,,,0,0,0,0,1,X V Q F H G B L J M P D K C T S W R N Z,609949e684aaf8787044e7ce,19,Mężczyzna,2022-06-11_09h18.33.819,task,2021.1.4,Win32,74.96251874,6299f149e92ead563fba08ef,62a441afeb3f3ad7f439daba,,,,,,,,,,,,,,,,,,,,,,,,,,,,,,,,,,,,,,,,,,,,,,,,,,,,,,,,,,,,,,,,,,,,,,,,,,,,,,,,,,,,,,,,,,,,,,,,,,,,,
,,,,,,1,0,1,0,1,X V Q F H G B L J M P D K C T S W R N Z,609949e684aaf8787044e7ce,19,Mężczyzna,2022-06-11_09h18.33.819,task,2021.1.4,Win32,74.96251874,6299f149e92ead563fba08ef,62a441afeb3f3ad7f439daba,,,,,,,,,,,,,,,,,,,,,,,,,,,,,,,,,,,,,,,,,,,,,,,,,,,,,,,,,,,,,,,,,,,,,,,,,,,,,,,,,,,,,,,,,,,,,,,,,,,,,
,,,,,,2,0,2,0,1,X V Q F H G B L J M P D K C T S W R N Z,609949e684aaf8787044e7ce,19,Mężczyzna,2022-06-11_09h18.33.819,task,2021.1.4,Win32,74.96251874,6299f149e92ead563fba08ef,62a441afeb3f3ad7f439daba,,,,,,,,,,,,,,,,,,,,,,,,,,,,,,,,,,,,,,,,,,,,,,,,,,,,,,,,,,,,,,,,,,,,,,,,,,,,,,,,,,,,,,,,,,,,,,,,,,,,,
,,,,,,3,0,3,0,1,X V Q F H G B L J M P D K C T S W R N Z,609949e684aaf8787044e7ce,19,Mężczyzna,2022-06-11_09h18.33.819,task,2021.1.4,Win32,74.96251874,6299f149e92ead563fba08ef,62a441afeb3f3ad7f439daba,,,,,,,,,,,,,,,,,,,,,,,,,,,,,,,,,,,,,,,,,,,,,,,,,,,,,,,,,,,,,,,,,,,,,,,,,,,,,,,,,,,,,,,,,,,,,,,,,,,,,
,,,,,,4,0,4,0,1,X V Q F H G B L J M P D K C T S W R N Z,609949e684aaf8787044e7ce,19,Mężczyzna,2022-06-11_09h18.33.819,task,2021.1.4,Win32,74.96251874,6299f149e92ead563fba08ef,62a441afeb3f3ad7f439daba,,,,,,,,,,,,,,,,,,,,,,,,,,,,,,,,,,,,,,,,,,,,,,,,,,,,,,,,,,,,,,,,,,,,,,,,,,,,,,,,,,,,,,,,,,,,,,,,,,,,,
,,,,,,5,0,5,0,1,X V Q F H G B L J M P D K C T S W R N Z,609949e684aaf8787044e7ce,19,Mężczyzna,2022-06-11_09h18.33.819,task,2021.1.4,Win32,74.96251874,6299f149e92ead563fba08ef,62a441afeb3f3ad7f439daba,,,,,,,,,,,,,,,,,,,,,,,,,,,,,,,,,,,,,,,,,,,,,,,,,,,,,,,,,,,,,,,,,,,,,,,,,,,,,,,,,,,,,,,,,,,,,,,,,,,,,
,,,,,,,,,,,,609949e684aaf8787044e7ce,19,Mężczyzna,2022-06-11_09h18.33.819,task,2021.1.4,Win32,74.96251874,6299f149e92ead563fba08ef,62a441afeb3f3ad7f439daba,fjscrg,"[""f"",""j"",""s"",""c"",""r"",""g""]","[3.0630000000000166,3.4090000000000202,3.8456999999999653,4.992500000000007,5.256800000000055,5.465199999999953,5.916699999999963]",0,FJZSCG,10,0,10,0,1,,,,,,,,,,,,,,,,,,,,,,,,,,,,,,,,,,,,,,,,,,,,,,,,,,,,,,,,,,,,,,,,,,,,,,,,,,,,,,,,,,,,,,,,,,,
,,,,,,0,0,0,0,1,X V Q F H G B L J M P D K C T S W R N Z,609949e684aaf8787044e7ce,19,Mężczyzna,2022-06-11_09h18.33.819,task,2021.1.4,Win32,74.96251874,6299f149e92ead563fba08ef,62a441afeb3f3ad7f439daba,,,,,,,,,,,,,,,,,,,,,,,,,,,,,,,,,,,,,,,,,,,,,,,,,,,,,,,,,,,,,,,,,,,,,,,,,,,,,,,,,,,,,,,,,,,,,,,,,,,,,
,,,,,,1,0,1,0,1,X V Q F H G B L J M P D K C T S W R N Z,609949e684aaf8787044e7ce,19,Mężczyzna,2022-06-11_09h18.33.819,task,2021.1.4,Win32,74.96251874,6299f149e92ead563fba08ef,62a441afeb3f3ad7f439daba,,,,,,,,,,,,,,,,,,,,,,,,,,,,,,,,,,,,,,,,,,,,,,,,,,,,,,,,,,,,,,,,,,,,,,,,,,,,,,,,,,,,,,,,,,,,,,,,,,,,,
,,,,,,2,0,2,0,1,X V Q F H G B L J M P D K C T S W R N Z,609949e684aaf8787044e7ce,19,Mężczyzna,2022-06-11_09h18.33.819,task,2021.1.4,Win32,74.96251874,6299f149e92ead563fba08ef,62a441afeb3f3ad7f439daba,,,,,,,,,,,,,,,,,,,,,,,,,,,,,,,,,,,,,,,,,,,,,,,,,,,,,,,,,,,,,,,,,,,,,,,,,,,,,,,,,,,,,,,,,,,,,,,,,,,,,
,,,,,,3,0,3,0,1,X V Q F H G B L J M P D K C T S W R N Z,609949e684aaf8787044e7ce,19,Mężczyzna,2022-06-11_09h18.33.819,task,2021.1.4,Win32,74.96251874,6299f149e92ead563fba08ef,62a441afeb3f3ad7f439daba,,,,,,,,,,,,,,,,,,,,,,,,,,,,,,,,,,,,,,,,,,,,,,,,,,,,,,,,,,,,,,,,,,,,,,,,,,,,,,,,,,,,,,,,,,,,,,,,,,,,,
,,,,,,4,0,4,0,1,X V Q F H G B L J M P D K C T S W R N Z,609949e684aaf8787044e7ce,19,Mężczyzna,2022-06-11_09h18.33.819,task,2021.1.4,Win32,74.96251874,6299f149e92ead563fba08ef,62a441afeb3f3ad7f439daba,,,,,,,,,,,,,,,,,,,,,,,,,,,,,,,,,,,,,,,,,,,,,,,,,,,,,,,,,,,,,,,,,,,,,,,,,,,,,,,,,,,,,,,,,,,,,,,,,,,,,
,,,,,,5,0,5,0,1,X V Q F H G B L J M P D K C T S W R N Z,609949e684aaf8787044e7ce,19,Mężczyzna,2022-06-11_09h18.33.819,task,2021.1.4,Win32,74.96251874,6299f149e92ead563fba08ef,62a441afeb3f3ad7f439daba,,,,,,,,,,,,,,,,,,,,,,,,,,,,,,,,,,,,,,,,,,,,,,,,,,,,,,,,,,,,,,,,,,,,,,,,,,,,,,,,,,,,,,,,,,,,,,,,,,,,,
,,,,,,,,,,,,609949e684aaf8787044e7ce,19,Mężczyzna,2022-06-11_09h18.33.819,task,2021.1.4,Win32,74.96251874,6299f149e92ead563fba08ef,62a441afeb3f3ad7f439daba,qnwstj,"[""q"",""n"",""w"",""s"",""t"",""j""]","[1.2302999999998292,1.8147999999998206,2.1918999999999187,2.60929999999982,5.239000000000004,5.411099999999863,6.042899999999918]",0,QSWNTJ,11,0,11,0,1,,,,,,,,,,,,,,,,,,,,,,,,,,,,,,,,,,,,,,,,,,,,,,,,,,,,,,,,,,,,,,,,,,,,,,,,,,,,,,,,,,,,,,,,,,,
,,,,,,0,0,0,0,1,X V Q F H G B L J M P D K C T S W R N Z,609949e684aaf8787044e7ce,19,Mężczyzna,2022-06-11_09h18.33.819,task,2021.1.4,Win32,74.96251874,6299f149e92ead563fba08ef,62a441afeb3f3ad7f439daba,,,,,,,,,,,,,,,,,,,,,,,,,,,,,,,,,,,,,,,,,,,,,,,,,,,,,,,,,,,,,,,,,,,,,,,,,,,,,,,,,,,,,,,,,,,,,,,,,,,,,
,,,,,,1,0,1,0,1,X V Q F H G B L J M P D K C T S W R N Z,609949e684aaf8787044e7ce,19,Mężczyzna,2022-06-11_09h18.33.819,task,2021.1.4,Win32,74.96251874,6299f149e92ead563fba08ef,62a441afeb3f3ad7f439daba,,,,,,,,,,,,,,,,,,,,,,,,,,,,,,,,,,,,,,,,,,,,,,,,,,,,,,,,,,,,,,,,,,,,,,,,,,,,,,,,,,,,,,,,,,,,,,,,,,,,,
,,,,,,2,0,2,0,1,X V Q F H G B L J M P D K C T S W R N Z,609949e684aaf8787044e7ce,19,Mężczyzna,2022-06-11_09h18.33.819,task,2021.1.4,Win32,74.96251874,6299f149e92ead563fba08ef,62a441afeb3f3ad7f439daba,,,,,,,,,,,,,,,,,,,,,,,,,,,,,,,,,,,,,,,,,,,,,,,,,,,,,,,,,,,,,,,,,,,,,,,,,,,,,,,,,,,,,,,,,,,,,,,,,,,,,
,,,,,,3,0,3,0,1,X V Q F H G B L J M P D K C T S W R N Z,609949e684aaf8787044e7ce,19,Mężczyzna,2022-06-11_09h18.33.819,task,2021.1.4,Win32,74.96251874,6299f149e92ead563fba08ef,62a441afeb3f3ad7f439daba,,,,,,,,,,,,,,,,,,,,,,,,,,,,,,,,,,,,,,,,,,,,,,,,,,,,,,,,,,,,,,,,,,,,,,,,,,,,,,,,,,,,,,,,,,,,,,,,,,,,,
,,,,,,4,0,4,0,1,X V Q F H G B L J M P D K C T S W R N Z,609949e684aaf8787044e7ce,19,Mężczyzna,2022-06-11_09h18.33.819,task,2021.1.4,Win32,74.96251874,6299f149e92ead563fba08ef,62a441afeb3f3ad7f439daba,,,,,,,,,,,,,,,,,,,,,,,,,,,,,,,,,,,,,,,,,,,,,,,,,,,,,,,,,,,,,,,,,,,,,,,,,,,,,,,,,,,,,,,,,,,,,,,,,,,,,
,,,,,,5,0,5,0,1,X V Q F H G B L J M P D K C T S W R N Z,609949e684aaf8787044e7ce,19,Mężczyzna,2022-06-11_09h18.33.819,task,2021.1.4,Win32,74.96251874,6299f149e92ead563fba08ef,62a441afeb3f3ad7f439daba,,,,,,,,,,,,,,,,,,,,,,,,,,,,,,,,,,,,,,,,,,,,,,,,,,,,,,,,,,,,,,,,,,,,,,,,,,,,,,,,,,,,,,,,,,,,,,,,,,,,,
,,,,,,,,,,,,609949e684aaf8787044e7ce,19,Mężczyzna,2022-06-11_09h18.33.819,task,2021.1.4,Win32,74.96251874,6299f149e92ead563fba08ef,62a441afeb3f3ad7f439daba,jthvvp,"[""j"",""t"",""h"",""v"",""v"",""p""]","[1.5326999999999487,1.9758999999999105,2.2898999999999035,3.0345999999998696,3.22789999999992,3.590399999999903,4.123999999999995]",1,JTHVVP,12,0,12,0,1,,,,,,,,,,,,,,,,,,,,,,,,,,,,,,,,,,,,,,,,,,,,,,,,,,,,,,,,,,,,,,,,,,,,,,,,,,,,,,,,,,,,,,,,,,,
,,,,,,0,0,0,0,1,X V Q F H G B L J M P D K C T S W R N Z,609949e684aaf8787044e7ce,19,Mężczyzna,2022-06-11_09h18.33.819,task,2021.1.4,Win32,74.96251874,6299f149e92ead563fba08ef,62a441afeb3f3ad7f439daba,,,,,,,,,,,,,,,,,,,,,,,,,,,,,,,,,,,,,,,,,,,,,,,,,,,,,,,,,,,,,,,,,,,,,,,,,,,,,,,,,,,,,,,,,,,,,,,,,,,,,
,,,,,,1,0,1,0,1,X V Q F H G B L J M P D K C T S W R N Z,609949e684aaf8787044e7ce,19,Mężczyzna,2022-06-11_09h18.33.819,task,2021.1.4,Win32,74.96251874,6299f149e92ead563fba08ef,62a441afeb3f3ad7f439daba,,,,,,,,,,,,,,,,,,,,,,,,,,,,,,,,,,,,,,,,,,,,,,,,,,,,,,,,,,,,,,,,,,,,,,,,,,,,,,,,,,,,,,,,,,,,,,,,,,,,,
,,,,,,2,0,2,0,1,X V Q F H G B L J M P D K C T S W R N Z,609949e684aaf8787044e7ce,19,Mężczyzna,2022-06-11_09h18.33.819,task,2021.1.4,Win32,74.96251874,6299f149e92ead563fba08ef,62a441afeb3f3ad7f439daba,,,,,,,,,,,,,,,,,,,,,,,,,,,,,,,,,,,,,,,,,,,,,,,,,,,,,,,,,,,,,,,,,,,,,,,,,,,,,,,,,,,,,,,,,,,,,,,,,,,,,
,,,,,,3,0,3,0,1,X V Q F H G B L J M P D K C T S W R N Z,609949e684aaf8787044e7ce,19,Mężczyzna,2022-06-11_09h18.33.819,task,2021.1.4,Win32,74.96251874,6299f149e92ead563fba08ef,62a441afeb3f3ad7f439daba,,,,,,,,,,,,,,,,,,,,,,,,,,,,,,,,,,,,,,,,,,,,,,,,,,,,,,,,,,,,,,,,,,,,,,,,,,,,,,,,,,,,,,,,,,,,,,,,,,,,,
,,,,,,4,0,4,0,1,X V Q F H G B L J M P D K C T S W R N Z,609949e684aaf8787044e7ce,19,Mężczyzna,2022-06-11_09h18.33.819,task,2021.1.4,Win32,74.96251874,6299f149e92ead563fba08ef,62a441afeb3f3ad7f439daba,,,,,,,,,,,,,,,,,,,,,,,,,,,,,,,,,,,,,,,,,,,,,,,,,,,,,,,,,,,,,,,,,,,,,,,,,,,,,,,,,,,,,,,,,,,,,,,,,,,,,
,,,,,,5,0,5,0,1,X V Q F H G B L J M P D K C T S W R N Z,609949e684aaf8787044e7ce,19,Mężczyzna,2022-06-11_09h18.33.819,task,2021.1.4,Win32,74.96251874,6299f149e92ead563fba08ef,62a441afeb3f3ad7f439daba,,,,,,,,,,,,,,,,,,,,,,,,,,,,,,,,,,,,,,,,,,,,,,,,,,,,,,,,,,,,,,,,,,,,,,,,,,,,,,,,,,,,,,,,,,,,,,,,,,,,,
,,,,,,,,,,,,609949e684aaf8787044e7ce,19,Mężczyzna,2022-06-11_09h18.33.819,task,2021.1.4,Win32,74.96251874,6299f149e92ead563fba08ef,62a441afeb3f3ad7f439daba,pjcbqr,"[""p"",""j"",""c"",""b"",""q"",""r""]","[1.287600000000083,1.5859999999999843,1.975999999999999,2.345499999999987,2.615000000000009,2.8211000000000865,3.0713000000000363]",1,PJCBQR,13,0,13,0,1,,,,,,,,,,,,,,,,,,,,,,,,,,,,,,,,,,,,,,,,,,,,,,,,,,,,,,,,,,,,,,,,,,,,,,,,,,,,,,,,,,,,,,,,,,,
,,,,,,0,0,0,0,1,X V Q F H G B L J M P D K C T S W R N Z,609949e684aaf8787044e7ce,19,Mężczyzna,2022-06-11_09h18.33.819,task,2021.1.4,Win32,74.96251874,6299f149e92ead563fba08ef,62a441afeb3f3ad7f439daba,,,,,,,,,,,,,,,,,,,,,,,,,,,,,,,,,,,,,,,,,,,,,,,,,,,,,,,,,,,,,,,,,,,,,,,,,,,,,,,,,,,,,,,,,,,,,,,,,,,,,
,,,,,,1,0,1,0,1,X V Q F H G B L J M P D K C T S W R N Z,609949e684aaf8787044e7ce,19,Mężczyzna,2022-06-11_09h18.33.819,task,2021.1.4,Win32,74.96251874,6299f149e92ead563fba08ef,62a441afeb3f3ad7f439daba,,,,,,,,,,,,,,,,,,,,,,,,,,,,,,,,,,,,,,,,,,,,,,,,,,,,,,,,,,,,,,,,,,,,,,,,,,,,,,,,,,,,,,,,,,,,,,,,,,,,,
,,,,,,2,0,2,0,1,X V Q F H G B L J M P D K C T S W R N Z,609949e684aaf8787044e7ce,19,Mężczyzna,2022-06-11_09h18.33.819,task,2021.1.4,Win32,74.96251874,6299f149e92ead563fba08ef,62a441afeb3f3ad7f439daba,,,,,,,,,,,,,,,,,,,,,,,,,,,,,,,,,,,,,,,,,,,,,,,,,,,,,,,,,,,,,,,,,,,,,,,,,,,,,,,,,,,,,,,,,,,,,,,,,,,,,
,,,,,,3,0,3,0,1,X V Q F H G B L J M P D K C T S W R N Z,609949e684aaf8787044e7ce,19,Mężczyzna,2022-06-11_09h18.33.819,task,2021.1.4,Win32,74.96251874,6299f149e92ead563fba08ef,62a441afeb3f3ad7f439daba,,,,,,,,,,,,,,,,,,,,,,,,,,,,,,,,,,,,,,,,,,,,,,,,,,,,,,,,,,,,,,,,,,,,,,,,,,,,,,,,,,,,,,,,,,,,,,,,,,,,,
,,,,,,4,0,4,0,1,X V Q F H G B L J M P D K C T S W R N Z,609949e684aaf8787044e7ce,19,Mężczyzna,2022-06-11_09h18.33.819,task,2021.1.4,Win32,74.96251874,6299f149e92ead563fba08ef,62a441afeb3f3ad7f439daba,,,,,,,,,,,,,,,,,,,,,,,,,,,,,,,,,,,,,,,,,,,,,,,,,,,,,,,,,,,,,,,,,,,,,,,,,,,,,,,,,,,,,,,,,,,,,,,,,,,,,
,,,,,,5,0,5,0,1,X V Q F H G B L J M P D K C T S W R N Z,609949e684aaf8787044e7ce,19,Mężczyzna,2022-06-11_09h18.33.819,task,2021.1.4,Win32,74.96251874,6299f149e92ead563fba08ef,62a441afeb3f3ad7f439daba,,,,,,,,,,,,,,,,,,,,,,,,,,,,,,,,,,,,,,,,,,,,,,,,,,,,,,,,,,,,,,,,,,,,,,,,,,,,,,,,,,,,,,,,,,,,,,,,,,,,,
,,,,,,6,0,6,0,1,X V Q F H G B L J M P D K C T S W R N Z,609949e684aaf8787044e7ce,19,Mężczyzna,2022-06-11_09h18.33.819,task,2021.1.4,Win32,74.96251874,6299f149e92ead563fba08ef,62a441afeb3f3ad7f439daba,,,,,,,,,,,,,,,,,,,,,,,,,,,,,,,,,,,,,,,,,,,,,,,,,,,,,,,,,,,,,,,,,,,,,,,,,,,,,,,,,,,,,,,,,,,,,,,,,,,,,
,,,,,,,,,,,,609949e684aaf8787044e7ce,19,Mężczyzna,2022-06-11_09h18.33.819,task,2021.1.4,Win32,74.96251874,6299f149e92ead563fba08ef,62a441afeb3f3ad7f439daba,xvjkrwq,"[""x"",""v"",""j"",""k"",""r"",""w"",""q""]","[1.0966999999999416,1.7989999999999782,2.2952999999997985,7.646799999999814,9.323199999999929,9.866199999999935,10.032199999999932,12.472099999999841]",0,XVJVRQS,14,0,14,0,1,,,,,,,,,,,,,,,,,,,,,,,,,,,,,,,,,,,,,,,,,,,,,,,,,,,,,,,,,,,,,,,,,,,,,,,,,,,,,,,,,,,,,,,,,,,
,,,,,,0,0,0,0,1,X V Q F H G B L J M P D K C T S W R N Z,609949e684aaf8787044e7ce,19,Mężczyzna,2022-06-11_09h18.33.819,task,2021.1.4,Win32,74.96251874,6299f149e92ead563fba08ef,62a441afeb3f3ad7f439daba,,,,,,,,,,,,,,,,,,,,,,,,,,,,,,,,,,,,,,,,,,,,,,,,,,,,,,,,,,,,,,,,,,,,,,,,,,,,,,,,,,,,,,,,,,,,,,,,,,,,,
,,,,,,1,0,1,0,1,X V Q F H G B L J M P D K C T S W R N Z,609949e684aaf8787044e7ce,19,Mężczyzna,2022-06-11_09h18.33.819,task,2021.1.4,Win32,74.96251874,6299f149e92ead563fba08ef,62a441afeb3f3ad7f439daba,,,,,,,,,,,,,,,,,,,,,,,,,,,,,,,,,,,,,,,,,,,,,,,,,,,,,,,,,,,,,,,,,,,,,,,,,,,,,,,,,,,,,,,,,,,,,,,,,,,,,
,,,,,,2,0,2,0,1,X V Q F H G B L J M P D K C T S W R N Z,609949e684aaf8787044e7ce,19,Mężczyzna,2022-06-11_09h18.33.819,task,2021.1.4,Win32,74.96251874,6299f149e92ead563fba08ef,62a441afeb3f3ad7f439daba,,,,,,,,,,,,,,,,,,,,,,,,,,,,,,,,,,,,,,,,,,,,,,,,,,,,,,,,,,,,,,,,,,,,,,,,,,,,,,,,,,,,,,,,,,,,,,,,,,,,,
,,,,,,3,0,3,0,1,X V Q F H G B L J M P D K C T S W R N Z,609949e684aaf8787044e7ce,19,Mężczyzna,2022-06-11_09h18.33.819,task,2021.1.4,Win32,74.96251874,6299f149e92ead563fba08ef,62a441afeb3f3ad7f439daba,,,,,,,,,,,,,,,,,,,,,,,,,,,,,,,,,,,,,,,,,,,,,,,,,,,,,,,,,,,,,,,,,,,,,,,,,,,,,,,,,,,,,,,,,,,,,,,,,,,,,
,,,,,,4,0,4,0,1,X V Q F H G B L J M P D K C T S W R N Z,609949e684aaf8787044e7ce,19,Mężczyzna,2022-06-11_09h18.33.819,task,2021.1.4,Win32,74.96251874,6299f149e92ead563fba08ef,62a441afeb3f3ad7f439daba,,,,,,,,,,,,,,,,,,,,,,,,,,,,,,,,,,,,,,,,,,,,,,,,,,,,,,,,,,,,,,,,,,,,,,,,,,,,,,,,,,,,,,,,,,,,,,,,,,,,,
,,,,,,5,0,5,0,1,X V Q F H G B L J M P D K C T S W R N Z,609949e684aaf8787044e7ce,19,Mężczyzna,2022-06-11_09h18.33.819,task,2021.1.4,Win32,74.96251874,6299f149e92ead563fba08ef,62a441afeb3f3ad7f439daba,,,,,,,,,,,,,,,,,,,,,,,,,,,,,,,,,,,,,,,,,,,,,,,,,,,,,,,,,,,,,,,,,,,,,,,,,,,,,,,,,,,,,,,,,,,,,,,,,,,,,
,,,,,,6,0,6,0,1,X V Q F H G B L J M P D K C T S W R N Z,609949e684aaf8787044e7ce,19,Mężczyzna,2022-06-11_09h18.33.819,task,2021.1.4,Win32,74.96251874,6299f149e92ead563fba08ef,62a441afeb3f3ad7f439daba,,,,,,,,,,,,,,,,,,,,,,,,,,,,,,,,,,,,,,,,,,,,,,,,,,,,,,,,,,,,,,,,,,,,,,,,,,,,,,,,,,,,,,,,,,,,,,,,,,,,,
,,,,,,,,,,,,609949e684aaf8787044e7ce,19,Mężczyzna,2022-06-11_09h18.33.819,task,2021.1.4,Win32,74.96251874,6299f149e92ead563fba08ef,62a441afeb3f3ad7f439daba,tvtlzn,"[""t"",""v"",""t"",""l"",""z"",""n""]","[1.9498999999999,2.4593999999999028,2.762300000000039,3.4631999999999437,4.1198999999998875,5.10480000000004,5.502099999999842]",0,TVTLNZF,15,0,15,0,1,,,,,,,,,,,,,,,,,,,,,,,,,,,,,,,,,,,,,,,,,,,,,,,,,,,,,,,,,,,,,,,,,,,,,,,,,,,,,,,,,,,,,,,,,,,
,,,,,,0,0,0,0,1,X V Q F H G B L J M P D K C T S W R N Z,609949e684aaf8787044e7ce,19,Mężczyzna,2022-06-11_09h18.33.819,task,2021.1.4,Win32,74.96251874,6299f149e92ead563fba08ef,62a441afeb3f3ad7f439daba,,,,,,,,,,,,,,,,,,,,,,,,,,,,,,,,,,,,,,,,,,,,,,,,,,,,,,,,,,,,,,,,,,,,,,,,,,,,,,,,,,,,,,,,,,,,,,,,,,,,,
,,,,,,1,0,1,0,1,X V Q F H G B L J M P D K C T S W R N Z,609949e684aaf8787044e7ce,19,Mężczyzna,2022-06-11_09h18.33.819,task,2021.1.4,Win32,74.96251874,6299f149e92ead563fba08ef,62a441afeb3f3ad7f439daba,,,,,,,,,,,,,,,,,,,,,,,,,,,,,,,,,,,,,,,,,,,,,,,,,,,,,,,,,,,,,,,,,,,,,,,,,,,,,,,,,,,,,,,,,,,,,,,,,,,,,
,,,,,,2,0,2,0,1,X V Q F H G B L J M P D K C T S W R N Z,609949e684aaf8787044e7ce,19,Mężczyzna,2022-06-11_09h18.33.819,task,2021.1.4,Win32,74.96251874,6299f149e92ead563fba08ef,62a441afeb3f3ad7f439daba,,,,,,,,,,,,,,,,,,,,,,,,,,,,,,,,,,,,,,,,,,,,,,,,,,,,,,,,,,,,,,,,,,,,,,,,,,,,,,,,,,,,,,,,,,,,,,,,,,,,,
,,,,,,3,0,3,0,1,X V Q F H G B L J M P D K C T S W R N Z,609949e684aaf8787044e7ce,19,Mężczyzna,2022-06-11_09h18.33.819,task,2021.1.4,Win32,74.96251874,6299f149e92ead563fba08ef,62a441afeb3f3ad7f439daba,,,,,,,,,,,,,,,,,,,,,,,,,,,,,,,,,,,,,,,,,,,,,,,,,,,,,,,,,,,,,,,,,,,,,,,,,,,,,,,,,,,,,,,,,,,,,,,,,,,,,
,,,,,,4,0,4,0,1,X V Q F H G B L J M P D K C T S W R N Z,609949e684aaf8787044e7ce,19,Mężczyzna,2022-06-11_09h18.33.819,task,2021.1.4,Win32,74.96251874,6299f149e92ead563fba08ef,62a441afeb3f3ad7f439daba,,,,,,,,,,,,,,,,,,,,,,,,,,,,,,,,,,,,,,,,,,,,,,,,,,,,,,,,,,,,,,,,,,,,,,,,,,,,,,,,,,,,,,,,,,,,,,,,,,,,,
,,,,,,5,0,5,0,1,X V Q F H G B L J M P D K C T S W R N Z,609949e684aaf8787044e7ce,19,Mężczyzna,2022-06-11_09h18.33.819,task,2021.1.4,Win32,74.96251874,6299f149e92ead563fba08ef,62a441afeb3f3ad7f439daba,,,,,,,,,,,,,,,,,,,,,,,,,,,,,,,,,,,,,,,,,,,,,,,,,,,,,,,,,,,,,,,,,,,,,,,,,,,,,,,,,,,,,,,,,,,,,,,,,,,,,
,,,,,,6,0,6,0,1,X V Q F H G B L J M P D K C T S W R N Z,609949e684aaf8787044e7ce,19,Mężczyzna,2022-06-11_09h18.33.819,task,2021.1.4,Win32,74.96251874,6299f149e92ead563fba08ef,62a441afeb3f3ad7f439daba,,,,,,,,,,,,,,,,,,,,,,,,,,,,,,,,,,,,,,,,,,,,,,,,,,,,,,,,,,,,,,,,,,,,,,,,,,,,,,,,,,,,,,,,,,,,,,,,,,,,,
,,,,,,,,,,,,609949e684aaf8787044e7ce,19,Mężczyzna,2022-06-11_09h18.33.819,task,2021.1.4,Win32,74.96251874,6299f149e92ead563fba08ef,62a441afeb3f3ad7f439daba,mmvhgnq,"[""m"",""m"",""v"",""h"",""g"",""n"",""q""]","[2.1852999999998133,2.4295999999998514,3.045799999999815,4.112799999999822,4.700599999999866,9.459499999999991,9.571799999999797,10.312099999999845]",1,MMVHGNQ,16,0,16,0,1,,,,,,,,,,,,,,,,,,,,,,,,,,,,,,,,,,,,,,,,,,,,,,,,,,,,,,,,,,,,,,,,,,,,,,,,,,,,,,,,,,,,,,,,,,,
,,,,,,0,0,0,0,1,X V Q F H G B L J M P D K C T S W R N Z,609949e684aaf8787044e7ce,19,Mężczyzna,2022-06-11_09h18.33.819,task,2021.1.4,Win32,74.96251874,6299f149e92ead563fba08ef,62a441afeb3f3ad7f439daba,,,,,,,,,,,,,,,,,,,,,,,,,,,,,,,,,,,,,,,,,,,,,,,,,,,,,,,,,,,,,,,,,,,,,,,,,,,,,,,,,,,,,,,,,,,,,,,,,,,,,
,,,,,,1,0,1,0,1,X V Q F H G B L J M P D K C T S W R N Z,609949e684aaf8787044e7ce,19,Mężczyzna,2022-06-11_09h18.33.819,task,2021.1.4,Win32,74.96251874,6299f149e92ead563fba08ef,62a441afeb3f3ad7f439daba,,,,,,,,,,,,,,,,,,,,,,,,,,,,,,,,,,,,,,,,,,,,,,,,,,,,,,,,,,,,,,,,,,,,,,,,,,,,,,,,,,,,,,,,,,,,,,,,,,,,,
,,,,,,2,0,2,0,1,X V Q F H G B L J M P D K C T S W R N Z,609949e684aaf8787044e7ce,19,Mężczyzna,2022-06-11_09h18.33.819,task,2021.1.4,Win32,74.96251874,6299f149e92ead563fba08ef,62a441afeb3f3ad7f439daba,,,,,,,,,,,,,,,,,,,,,,,,,,,,,,,,,,,,,,,,,,,,,,,,,,,,,,,,,,,,,,,,,,,,,,,,,,,,,,,,,,,,,,,,,,,,,,,,,,,,,
,,,,,,3,0,3,0,1,X V Q F H G B L J M P D K C T S W R N Z,609949e684aaf8787044e7ce,19,Mężczyzna,2022-06-11_09h18.33.819,task,2021.1.4,Win32,74.96251874,6299f149e92ead563fba08ef,62a441afeb3f3ad7f439daba,,,,,,,,,,,,,,,,,,,,,,,,,,,,,,,,,,,,,,,,,,,,,,,,,,,,,,,,,,,,,,,,,,,,,,,,,,,,,,,,,,,,,,,,,,,,,,,,,,,,,
,,,,,,4,0,4,0,1,X V Q F H G B L J M P D K C T S W R N Z,609949e684aaf8787044e7ce,19,Mężczyzna,2022-06-11_09h18.33.819,task,2021.1.4,Win32,74.96251874,6299f149e92ead563fba08ef,62a441afeb3f3ad7f439daba,,,,,,,,,,,,,,,,,,,,,,,,,,,,,,,,,,,,,,,,,,,,,,,,,,,,,,,,,,,,,,,,,,,,,,,,,,,,,,,,,,,,,,,,,,,,,,,,,,,,,
,,,,,,5,0,5,0,1,X V Q F H G B L J M P D K C T S W R N Z,609949e684aaf8787044e7ce,19,Mężczyzna,2022-06-11_09h18.33.819,task,2021.1.4,Win32,74.96251874,6299f149e92ead563fba08ef,62a441afeb3f3ad7f439daba,,,,,,,,,,,,,,,,,,,,,,,,,,,,,,,,,,,,,,,,,,,,,,,,,,,,,,,,,,,,,,,,,,,,,,,,,,,,,,,,,,,,,,,,,,,,,,,,,,,,,
,,,,,,6,0,6,0,1,X V Q F H G B L J M P D K C T S W R N Z,609949e684aaf8787044e7ce,19,Mężczyzna,2022-06-11_09h18.33.819,task,2021.1.4,Win32,74.96251874,6299f149e92ead563fba08ef,62a441afeb3f3ad7f439daba,,,,,,,,,,,,,,,,,,,,,,,,,,,,,,,,,,,,,,,,,,,,,,,,,,,,,,,,,,,,,,,,,,,,,,,,,,,,,,,,,,,,,,,,,,,,,,,,,,,,,
,,,,,,,,,,,,609949e684aaf8787044e7ce,19,Mężczyzna,2022-06-11_09h18.33.819,task,2021.1.4,Win32,74.96251874,6299f149e92ead563fba08ef,62a441afeb3f3ad7f439daba,zgjjnvp,"[""z"",""g"",""j"",""j"",""n"",""v"",""p""]","[2.755399999999895,3.4399999999999977,3.8058999999998946,4.109199999999987,6.247500000000002,6.388899999999921,7.162199999999984,8.337300000000084]",1,ZGJJNVP,17,0,17,0,1,,,,,,,,,,,,,,,,,,,,,,,,,,,,,,,,,,,,,,,,,,,,,,,,,,,,,,,,,,,,,,,,,,,,,,,,,,,,,,,,,,,,,,,,,,,
,,,,,,0,0,0,0,1,X V Q F H G B L J M P D K C T S W R N Z,609949e684aaf8787044e7ce,19,Mężczyzna,2022-06-11_09h18.33.819,task,2021.1.4,Win32,74.96251874,6299f149e92ead563fba08ef,62a441afeb3f3ad7f439daba,,,,,,,,,,,,,,,,,,,,,,,,,,,,,,,,,,,,,,,,,,,,,,,,,,,,,,,,,,,,,,,,,,,,,,,,,,,,,,,,,,,,,,,,,,,,,,,,,,,,,
,,,,,,1,0,1,0,1,X V Q F H G B L J M P D K C T S W R N Z,609949e684aaf8787044e7ce,19,Mężczyzna,2022-06-11_09h18.33.819,task,2021.1.4,Win32,74.96251874,6299f149e92ead563fba08ef,62a441afeb3f3ad7f439daba,,,,,,,,,,,,,,,,,,,,,,,,,,,,,,,,,,,,,,,,,,,,,,,,,,,,,,,,,,,,,,,,,,,,,,,,,,,,,,,,,,,,,,,,,,,,,,,,,,,,,
,,,,,,2,0,2,0,1,X V Q F H G B L J M P D K C T S W R N Z,609949e684aaf8787044e7ce,19,Mężczyzna,2022-06-11_09h18.33.819,task,2021.1.4,Win32,74.96251874,6299f149e92ead563fba08ef,62a441afeb3f3ad7f439daba,,,,,,,,,,,,,,,,,,,,,,,,,,,,,,,,,,,,,,,,,,,,,,,,,,,,,,,,,,,,,,,,,,,,,,,,,,,,,,,,,,,,,,,,,,,,,,,,,,,,,
,,,,,,3,0,3,0,1,X V Q F H G B L J M P D K C T S W R N Z,609949e684aaf8787044e7ce,19,Mężczyzna,2022-06-11_09h18.33.819,task,2021.1.4,Win32,74.96251874,6299f149e92ead563fba08ef,62a441afeb3f3ad7f439daba,,,,,,,,,,,,,,,,,,,,,,,,,,,,,,,,,,,,,,,,,,,,,,,,,,,,,,,,,,,,,,,,,,,,,,,,,,,,,,,,,,,,,,,,,,,,,,,,,,,,,
,,,,,,4,0,4,0,1,X V Q F H G B L J M P D K C T S W R N Z,609949e684aaf8787044e7ce,19,Mężczyzna,2022-06-11_09h18.33.819,task,2021.1.4,Win32,74.96251874,6299f149e92ead563fba08ef,62a441afeb3f3ad7f439daba,,,,,,,,,,,,,,,,,,,,,,,,,,,,,,,,,,,,,,,,,,,,,,,,,,,,,,,,,,,,,,,,,,,,,,,,,,,,,,,,,,,,,,,,,,,,,,,,,,,,,
,,,,,,5,0,5,0,1,X V Q F H G B L J M P D K C T S W R N Z,609949e684aaf8787044e7ce,19,Mężczyzna,2022-06-11_09h18.33.819,task,2021.1.4,Win32,74.96251874,6299f149e92ead563fba08ef,62a441afeb3f3ad7f439daba,,,,,,,,,,,,,,,,,,,,,,,,,,,,,,,,,,,,,,,,,,,,,,,,,,,,,,,,,,,,,,,,,,,,,,,,,,,,,,,,,,,,,,,,,,,,,,,,,,,,,
,,,,,,6,0,6,0,1,X V Q F H G B L J M P D K C T S W R N Z,609949e684aaf8787044e7ce,19,Mężczyzna,2022-06-11_09h18.33.819,task,2021.1.4,Win32,74.96251874,6299f149e92ead563fba08ef,62a441afeb3f3ad7f439daba,,,,,,,,,,,,,,,,,,,,,,,,,,,,,,,,,,,,,,,,,,,,,,,,,,,,,,,,,,,,,,,,,,,,,,,,,,,,,,,,,,,,,,,,,,,,,,,,,,,,,
,,,,,,7,0,7,0,1,X V Q F H G B L J M P D K C T S W R N Z,609949e684aaf8787044e7ce,19,Mężczyzna,2022-06-11_09h18.33.819,task,2021.1.4,Win32,74.96251874,6299f149e92ead563fba08ef,62a441afeb3f3ad7f439daba,,,,,,,,,,,,,,,,,,,,,,,,,,,,,,,,,,,,,,,,,,,,,,,,,,,,,,,,,,,,,,,,,,,,,,,,,,,,,,,,,,,,,,,,,,,,,,,,,,,,,
,,,,,,,,,,,,609949e684aaf8787044e7ce,19,Mężczyzna,2022-06-11_09h18.33.819,task,2021.1.4,Win32,74.96251874,6299f149e92ead563fba08ef,62a441afeb3f3ad7f439daba,fvlgdld,"[""f"",""v"",""l"",""g"",""d"",""l"",""d""]","[2.215400000000102,2.8796999999999002,3.494600000000048,3.8699000000000865,4.4464000000000965,10.982499999999959,11.544199999999933,12.106400000000122]",0,FVLNGDLD,18,0,18,0,1,,,,,,,,,,,,,,,,,,,,,,,,,,,,,,,,,,,,,,,,,,,,,,,,,,,,,,,,,,,,,,,,,,,,,,,,,,,,,,,,,,,,,,,,,,,
,,,,,,0,0,0,0,1,X V Q F H G B L J M P D K C T S W R N Z,609949e684aaf8787044e7ce,19,Mężczyzna,2022-06-11_09h18.33.819,task,2021.1.4,Win32,74.96251874,6299f149e92ead563fba08ef,62a441afeb3f3ad7f439daba,,,,,,,,,,,,,,,,,,,,,,,,,,,,,,,,,,,,,,,,,,,,,,,,,,,,,,,,,,,,,,,,,,,,,,,,,,,,,,,,,,,,,,,,,,,,,,,,,,,,,
,,,,,,1,0,1,0,1,X V Q F H G B L J M P D K C T S W R N Z,609949e684aaf8787044e7ce,19,Mężczyzna,2022-06-11_09h18.33.819,task,2021.1.4,Win32,74.96251874,6299f149e92ead563fba08ef,62a441afeb3f3ad7f439daba,,,,,,,,,,,,,,,,,,,,,,,,,,,,,,,,,,,,,,,,,,,,,,,,,,,,,,,,,,,,,,,,,,,,,,,,,,,,,,,,,,,,,,,,,,,,,,,,,,,,,
,,,,,,2,0,2,0,1,X V Q F H G B L J M P D K C T S W R N Z,609949e684aaf8787044e7ce,19,Mężczyzna,2022-06-11_09h18.33.819,task,2021.1.4,Win32,74.96251874,6299f149e92ead563fba08ef,62a441afeb3f3ad7f439daba,,,,,,,,,,,,,,,,,,,,,,,,,,,,,,,,,,,,,,,,,,,,,,,,,,,,,,,,,,,,,,,,,,,,,,,,,,,,,,,,,,,,,,,,,,,,,,,,,,,,,
,,,,,,3,0,3,0,1,X V Q F H G B L J M P D K C T S W R N Z,609949e684aaf8787044e7ce,19,Mężczyzna,2022-06-11_09h18.33.819,task,2021.1.4,Win32,74.96251874,6299f149e92ead563fba08ef,62a441afeb3f3ad7f439daba,,,,,,,,,,,,,,,,,,,,,,,,,,,,,,,,,,,,,,,,,,,,,,,,,,,,,,,,,,,,,,,,,,,,,,,,,,,,,,,,,,,,,,,,,,,,,,,,,,,,,
,,,,,,4,0,4,0,1,X V Q F H G B L J M P D K C T S W R N Z,609949e684aaf8787044e7ce,19,Mężczyzna,2022-06-11_09h18.33.819,task,2021.1.4,Win32,74.96251874,6299f149e92ead563fba08ef,62a441afeb3f3ad7f439daba,,,,,,,,,,,,,,,,,,,,,,,,,,,,,,,,,,,,,,,,,,,,,,,,,,,,,,,,,,,,,,,,,,,,,,,,,,,,,,,,,,,,,,,,,,,,,,,,,,,,,
,,,,,,5,0,5,0,1,X V Q F H G B L J M P D K C T S W R N Z,609949e684aaf8787044e7ce,19,Mężczyzna,2022-06-11_09h18.33.819,task,2021.1.4,Win32,74.96251874,6299f149e92ead563fba08ef,62a441afeb3f3ad7f439daba,,,,,,,,,,,,,,,,,,,,,,,,,,,,,,,,,,,,,,,,,,,,,,,,,,,,,,,,,,,,,,,,,,,,,,,,,,,,,,,,,,,,,,,,,,,,,,,,,,,,,
,,,,,,6,0,6,0,1,X V Q F H G B L J M P D K C T S W R N Z,609949e684aaf8787044e7ce,19,Mężczyzna,2022-06-11_09h18.33.819,task,2021.1.4,Win32,74.96251874,6299f149e92ead563fba08ef,62a441afeb3f3ad7f439daba,,,,,,,,,,,,,,,,,,,,,,,,,,,,,,,,,,,,,,,,,,,,,,,,,,,,,,,,,,,,,,,,,,,,,,,,,,,,,,,,,,,,,,,,,,,,,,,,,,,,,
,,,,,,7,0,7,0,1,X V Q F H G B L J M P D K C T S W R N Z,609949e684aaf8787044e7ce,19,Mężczyzna,2022-06-11_09h18.33.819,task,2021.1.4,Win32,74.96251874,6299f149e92ead563fba08ef,62a441afeb3f3ad7f439daba,,,,,,,,,,,,,,,,,,,,,,,,,,,,,,,,,,,,,,,,,,,,,,,,,,,,,,,,,,,,,,,,,,,,,,,,,,,,,,,,,,,,,,,,,,,,,,,,,,,,,
,,,,,,,,,,,,609949e684aaf8787044e7ce,19,Mężczyzna,2022-06-11_09h18.33.819,task,2021.1.4,Win32,74.96251874,6299f149e92ead563fba08ef,62a441afeb3f3ad7f439daba,qbcxbrk,"[""q"",""b"",""c"",""x"",""b"",""r"",""k""]","[1.8682000000001722,2.36080000000004,2.722900000000152,3.259100000000103,3.932600000000093,4.245800000000031,4.439700000000187,4.667499999999961]",0,QBCXBLRK,19,0,19,0,1,,,,,,,,,,,,,,,,,,,,,,,,,,,,,,,,,,,,,,,,,,,,,,,,,,,,,,,,,,,,,,,,,,,,,,,,,,,,,,,,,,,,,,,,,,,
,,,,,,0,0,0,0,1,X V Q F H G B L J M P D K C T S W R N Z,609949e684aaf8787044e7ce,19,Mężczyzna,2022-06-11_09h18.33.819,task,2021.1.4,Win32,74.96251874,6299f149e92ead563fba08ef,62a441afeb3f3ad7f439daba,,,,,,,,,,,,,,,,,,,,,,,,,,,,,,,,,,,,,,,,,,,,,,,,,,,,,,,,,,,,,,,,,,,,,,,,,,,,,,,,,,,,,,,,,,,,,,,,,,,,,
,,,,,,1,0,1,0,1,X V Q F H G B L J M P D K C T S W R N Z,609949e684aaf8787044e7ce,19,Mężczyzna,2022-06-11_09h18.33.819,task,2021.1.4,Win32,74.96251874,6299f149e92ead563fba08ef,62a441afeb3f3ad7f439daba,,,,,,,,,,,,,,,,,,,,,,,,,,,,,,,,,,,,,,,,,,,,,,,,,,,,,,,,,,,,,,,,,,,,,,,,,,,,,,,,,,,,,,,,,,,,,,,,,,,,,
,,,,,,2,0,2,0,1,X V Q F H G B L J M P D K C T S W R N Z,609949e684aaf8787044e7ce,19,Mężczyzna,2022-06-11_09h18.33.819,task,2021.1.4,Win32,74.96251874,6299f149e92ead563fba08ef,62a441afeb3f3ad7f439daba,,,,,,,,,,,,,,,,,,,,,,,,,,,,,,,,,,,,,,,,,,,,,,,,,,,,,,,,,,,,,,,,,,,,,,,,,,,,,,,,,,,,,,,,,,,,,,,,,,,,,
,,,,,,3,0,3,0,1,X V Q F H G B L J M P D K C T S W R N Z,609949e684aaf8787044e7ce,19,Mężczyzna,2022-06-11_09h18.33.819,task,2021.1.4,Win32,74.96251874,6299f149e92ead563fba08ef,62a441afeb3f3ad7f439daba,,,,,,,,,,,,,,,,,,,,,,,,,,,,,,,,,,,,,,,,,,,,,,,,,,,,,,,,,,,,,,,,,,,,,,,,,,,,,,,,,,,,,,,,,,,,,,,,,,,,,
,,,,,,4,0,4,0,1,X V Q F H G B L J M P D K C T S W R N Z,609949e684aaf8787044e7ce,19,Mężczyzna,2022-06-11_09h18.33.819,task,2021.1.4,Win32,74.96251874,6299f149e92ead563fba08ef,62a441afeb3f3ad7f439daba,,,,,,,,,,,,,,,,,,,,,,,,,,,,,,,,,,,,,,,,,,,,,,,,,,,,,,,,,,,,,,,,,,,,,,,,,,,,,,,,,,,,,,,,,,,,,,,,,,,,,
,,,,,,5,0,5,0,1,X V Q F H G B L J M P D K C T S W R N Z,609949e684aaf8787044e7ce,19,Mężczyzna,2022-06-11_09h18.33.819,task,2021.1.4,Win32,74.96251874,6299f149e92ead563fba08ef,62a441afeb3f3ad7f439daba,,,,,,,,,,,,,,,,,,,,,,,,,,,,,,,,,,,,,,,,,,,,,,,,,,,,,,,,,,,,,,,,,,,,,,,,,,,,,,,,,,,,,,,,,,,,,,,,,,,,,
,,,,,,6,0,6,0,1,X V Q F H G B L J M P D K C T S W R N Z,609949e684aaf8787044e7ce,19,Mężczyzna,2022-06-11_09h18.33.819,task,2021.1.4,Win32,74.96251874,6299f149e92ead563fba08ef,62a441afeb3f3ad7f439daba,,,,,,,,,,,,,,,,,,,,,,,,,,,,,,,,,,,,,,,,,,,,,,,,,,,,,,,,,,,,,,,,,,,,,,,,,,,,,,,,,,,,,,,,,,,,,,,,,,,,,
,,,,,,7,0,7,0,1,X V Q F H G B L J M P D K C T S W R N Z,609949e684aaf8787044e7ce,19,Mężczyzna,2022-06-11_09h18.33.819,task,2021.1.4,Win32,74.96251874,6299f149e92ead563fba08ef,62a441afeb3f3ad7f439daba,,,,,,,,,,,,,,,,,,,,,,,,,,,,,,,,,,,,,,,,,,,,,,,,,,,,,,,,,,,,,,,,,,,,,,,,,,,,,,,,,,,,,,,,,,,,,,,,,,,,,
,,,,,,,,,,,,609949e684aaf8787044e7ce,19,Mężczyzna,2022-06-11_09h18.33.819,task,2021.1.4,Win32,74.96251874,6299f149e92ead563fba08ef,62a441afeb3f3ad7f439daba,,[],[1.4470000000000027],0,TXHCCMWL,20,0,20,0,1,,,,,,,,,,,,,,,,,,,,,,,,,,,,,,,,,,,,,,,,,,,,,,,,,,,,,,,,,,,,,,,,,,,,,,,,,,,,,,,,,,,,,,,,,,,
,,,,,,,,,,,,609949e684aaf8787044e7ce,19,Mężczyzna,2022-06-11_09h18.33.819,task,2021.1.4,Win32,74.96251874,6299f149e92ead563fba08ef,62a441afeb3f3ad7f439daba,,,,,,,,,,,space,18.5054,7,"[""7""]",1,[11.115900000000124],[11.115900000000124],0,0,0,7,1,Practice,8,(5x5) - 18,7,,,,,,,,,,,,,,,,,,,,,,,,,,,,,,,,,,,,,,,,,,,,,,,,,,,,,,,,,,,,,,,,,,,,,,,,,,,
,,,,,,,,,,,,609949e684aaf8787044e7ce,19,Mężczyzna,2022-06-11_09h18.33.819,task,2021.1.4,Win32,74.96251874,6299f149e92ead563fba08ef,62a441afeb3f3ad7f439daba,,,,,,,,,,,,,0,"[""0""]",1,[2.730600000000095],"[11.115900000000124,2.730600000000095]",0,1,1,0,1,Practice,1,(3x3) -  9,0,,,,,,,,,,,,,,,,,,,,,,,,,,,,,,,,,,,,,,,,,,,,,,,,,,,,,,,,,,,,,,,,,,,,,,,,,,,
,,,,,,,,,,,,609949e684aaf8787044e7ce,19,Mężczyzna,2022-06-11_09h18.33.819,task,2021.1.4,Win32,74.96251874,6299f149e92ead563fba08ef,62a441afeb3f3ad7f439daba,,,,,,,,,,,,,6,"[""6""]",1,[2.956800000000044],"[11.115900000000124,2.730600000000095,2.956800000000044]",0,2,2,6,1,Practice,7,(25/5) + 1,6,,,,,,,,,,,,,,,,,,,,,,,,,,,,,,,,,,,,,,,,,,,,,,,,,,,,,,,,,,,,,,,,,,,,,,,,,,,
,,,,,,,,,,,,609949e684aaf8787044e7ce,19,Mężczyzna,2022-06-11_09h18.33.819,task,2021.1.4,Win32,74.96251874,6299f149e92ead563fba08ef,62a441afeb3f3ad7f439daba,,,,,,,,,,,,,5,"[""5""]",1,[2.888099999999895],"[11.115900000000124,2.730600000000095,2.956800000000044,2.888099999999895]",0,3,3,5,1,Practice,6,(4/2) + 3,5,,,,,,,,,,,,,,,,,,,,,,,,,,,,,,,,,,,,,,,,,,,,,,,,,,,,,,,,,,,,,,,,,,,,,,,,,,,
,,,,,,,,,,,,609949e684aaf8787044e7ce,19,Mężczyzna,2022-06-11_09h18.33.819,task,2021.1.4,Win32,74.96251874,6299f149e92ead563fba08ef,62a441afeb3f3ad7f439daba,,,,,,,,,,,,,4,"[""4""]",1,[10.436999999999955],"[11.115900000000124,2.730600000000095,2.956800000000044,2.888099999999895,10.436999999999955]",0,4,4,4,1,Practice,5,(2x6) - 8,4,,,,,,,,,,,,,,,,,,,,,,,,,,,,,,,,,,,,,,,,,,,,,,,,,,,,,,,,,,,,,,,,,,,,,,,,,,,
,,,,,,,,,,,,609949e684aaf8787044e7ce,19,Mężczyzna,2022-06-11_09h18.33.819,task,2021.1.4,Win32,74.96251874,6299f149e92ead563fba08ef,62a441afeb3f3ad7f439daba,,,,,,,,,,,,,8,"[""8""]",1,[2.009800000000041],"[11.115900000000124,2.730600000000095,2.956800000000044,2.888099999999895,10.436999999999955,2.009800000000041]",0,5,5,8,1,Practice,9,(3x3) - 1,8,,,,,,,,,,,,,,,,,,,,,,,,,,,,,,,,,,,,,,,,,,,,,,,,,,,,,,,,,,,,,,,,,,,,,,,,,,,
,,,,,,,,,,,,609949e684aaf8787044e7ce,19,Mężczyzna,2022-06-11_09h18.33.819,task,2021.1.4,Win32,74.96251874,6299f149e92ead563fba08ef,62a441afeb3f3ad7f439daba,,,,,,,,,,,,,2,"[""2""]",1,[5.27639999999991],"[11.115900000000124,2.730600000000095,2.956800000000044,2.888099999999895,10.436999999999955,2.009800000000041,5.27639999999991]",0,6,6,2,1,Practice,3,(4x4) - 14,2,,,,,,,,,,,,,,,,,,,,,,,,,,,,,,,,,,,,,,,,,,,,,,,,,,,,,,,,,,,,,,,,,,,,,,,,,,,
,,,,,,,,,,,,609949e684aaf8787044e7ce,19,Mężczyzna,2022-06-11_09h18.33.819,task,2021.1.4,Win32,74.96251874,6299f149e92ead563fba08ef,62a441afeb3f3ad7f439daba,,,,,,,,,,,,,1,"[""1""]",1,[4.088599999999872],"[11.115900000000124,2.730600000000095,2.956800000000044,2.888099999999895,10.436999999999955,2.009800000000041,5.27639999999991,4.088599999999872]",0,7,7,1,1,Practice,2,(4x4) - 15,1,,,,,,,,,,,,,,,,,,,,,,,,,,,,,,,,,,,,,,,,,,,,,,,,,,,,,,,,,,,,,,,,,,,,,,,,,,,
,,,,,,,,,,,,609949e684aaf8787044e7ce,19,Mężczyzna,2022-06-11_09h18.33.819,task,2021.1.4,Win32,74.96251874,6299f149e92ead563fba08ef,62a441afeb3f3ad7f439daba,,,,,,,,,,,,,3,"[""3""]",1,[3.007000000000005],"[11.115900000000124,2.730600000000095,2.956800000000044,2.888099999999895,10.436999999999955,2.009800000000041,5.27639999999991,4.088599999999872,3.007000000000005]",0,8,8,3,1,Practice,4,(8/4) + 1,3,,,,,,,,,,,,,,,,,,,,,,,,,,,,,,,,,,,,,,,,,,,,,,,,,,,,,,,,,,,,,,,,,,,,,,,,,,,
,,,,,,,,,,,,609949e684aaf8787044e7ce,19,Mężczyzna,2022-06-11_09h18.33.819,task,2021.1.4,Win32,74.96251874,6299f149e92ead563fba08ef,62a441afeb3f3ad7f439daba,,,,,,,,,,,,,9,"[""9""]",1,[2.8084000000001765],"[11.115900000000124,2.730600000000095,2.956800000000044,2.888099999999895,10.436999999999955,2.009800000000041,5.27639999999991,4.088599999999872,3.007000000000005,2.8084000000001765]",0,9,9,9,1,Practice,10,(20/2) - 1,9,,,,,,,,,,,,,,,,,,,,,,,,,,,,,,,,,,,,,,,,,,,,,,,,,,,,,,,,,,,,,,,,,,,,,,,,,,,
,,,,,,,,,,,,609949e684aaf8787044e7ce,19,Mężczyzna,2022-06-11_09h18.33.819,task,2021.1.4,Win32,74.96251874,6299f149e92ead563fba08ef,62a441afeb3f3ad7f439daba,,,,,,,,,,,,,,,,,,,,,,,,,,,1,47.3186,3.154573333,123.5330102,2.869762014,10.55855933,space,1.5001,0,0,0,0,1,,,,,,,,,,,,,,,,,,,,,,,,,,,,,,,,,,,,,,,,,,,,,,,,,,,,,,,,,,,,,,
,,,,,,,,,,,,609949e684aaf8787044e7ce,19,Mężczyzna,2022-06-11_09h18.33.819,task,2021.1.4,Win32,74.96251874,6299f149e92ead563fba08ef,62a441afeb3f3ad7f439daba,,,,,,,,,,,,,8,,,,,,,,,,Practice,9,(3x3) - 1,8,,,,,,,,,,,,,,space,12.4773,"[""8""]",1,[3.0504999999999995],1,0,0,0,8,1,,,,,,,,,,,,,,,,,,,,,,,,,,,,,,,,,,,,,,,,,,,,,,,,,,,
,,,,,,,,,,,X V Q F H G B L J M P D K C T S W R N Z,609949e684aaf8787044e7ce,19,Mężczyzna,2022-06-11_09h18.33.819,task,2021.1.4,Win32,74.96251874,6299f149e92ead563fba08ef,62a441afeb3f3ad7f439daba,,,,,,,,,,,,,,,,,,,,,,,,,,,,,,,,,,,,,,,,,,,,,,,,,,,0,0,0,0,1,,,,,,,,,,,,,,,,,,,,,,,,,,,,,,,,,,,,,,,,,,,,,,
,,,,,,,,,,,,609949e684aaf8787044e7ce,19,Mężczyzna,2022-06-11_09h18.33.819,task,2021.1.4,Win32,74.96251874,6299f149e92ead563fba08ef,62a441afeb3f3ad7f439daba,,,,,,,,,,,,,0,,,,,,,,,,Practice,1,(3x3) -  9,0,,,,,,,,,,,,,,,,"[""0""]",1,[2.24679999999978],1,0,0,0,0,1,,,,,,,,,,,,,,,,,,,,,,,,,,,,,,,,,,,,,,,,,,,,,,,,,,,
,,,,,,,,,,,X V Q F H G B L J M P D K C T S W R N Z,609949e684aaf8787044e7ce,19,Mężczyzna,2022-06-11_09h18.33.819,task,2021.1.4,Win32,74.96251874,6299f149e92ead563fba08ef,62a441afeb3f3ad7f439daba,,,,,,,,,,,,,,,,,,,,,,,,,,,,,,,,,,,,,,,,,,,,,,,,,,,1,0,1,0,1,,,,,,,,,,,,,,,,,,,,,,,,,,,,,,,,,,,,,,,,,,,,,,
,,,,,,,,,,,,609949e684aaf8787044e7ce,19,Mężczyzna,2022-06-11_09h18.33.819,task,2021.1.4,Win32,74.96251874,6299f149e92ead563fba08ef,62a441afeb3f3ad7f439daba,,,,,,,,,,,,,,,,,,,,,,,,,,,,,,,,,,,,,,,,,,,,,,,,,,,,,,,,zx,"[""z"",""x""]",0,"[2.22219999999993,2.3428999999998723,3.144800000000032]",1,0,0,0,0,1,,,,,,,,,,,,,,,,,,,,,,,,,,,,,,,,,,,,
,,,,,,,,,,,,609949e684aaf8787044e7ce,19,Mężczyzna,2022-06-11_09h18.33.819,task,2021.1.4,Win32,74.96251874,6299f149e92ead563fba08ef,62a441afeb3f3ad7f439daba,,,,,,,,,,,,,6,,,,,,,,,,Practice,7,(25/5) + 1,6,,,,,,,,,,,,,,,,"[""6""]",1,[4.060800000000029],1,0,0,0,6,1,,,,,,,,,,,,,,,,,,,,,,,,,,,,,,,,,,,,,,,,,,,,,,,,,,,
,,,,,,,,,,,X V Q F H G B L J M P D K C T S W R N Z,609949e684aaf8787044e7ce,19,Mężczyzna,2022-06-11_09h18.33.819,task,2021.1.4,Win32,74.96251874,6299f149e92ead563fba08ef,62a441afeb3f3ad7f439daba,,,,,,,,,,,,,,,,,,,,,,,,,,,,,,,,,,,,,,,,,,,,,,,,,,,0,0,0,0,1,,,,,,,,,,,,,,,,,,,,,,,,,,,,,,,,,,,,,,,,,,,,,,
,,,,,,,,,,,,609949e684aaf8787044e7ce,19,Mężczyzna,2022-06-11_09h18.33.819,task,2021.1.4,Win32,74.96251874,6299f149e92ead563fba08ef,62a441afeb3f3ad7f439daba,,,,,,,,,,,,,6,,,,,,,,,,Practice,7,(25/5) + 1,6,,,,,,,,,,,,,,,,"[""6""]",1,[3.5402000000001976],1,0,0,0,6,1,,,,,,,,,,,,,,,,,,,,,,,,,,,,,,,,,,,,,,,,,,,,,,,,,,,
,,,,,,,,,,,X V Q F H G B L J M P D K C T S W R N Z,609949e684aaf8787044e7ce,19,Mężczyzna,2022-06-11_09h18.33.819,task,2021.1.4,Win32,74.96251874,6299f149e92ead563fba08ef,62a441afeb3f3ad7f439daba,,,,,,,,,,,,,,,,,,,,,,,,,,,,,,,,,,,,,,,,,,,,,,,,,,,1,0,1,0,1,,,,,,,,,,,,,,,,,,,,,,,,,,,,,,,,,,,,,,,,,,,,,,
,,,,,,,,,,,,609949e684aaf8787044e7ce,19,Mężczyzna,2022-06-11_09h18.33.819,task,2021.1.4,Win32,74.96251874,6299f149e92ead563fba08ef,62a441afeb3f3ad7f439daba,,,,,,,,,,,,,,,,,,,,,,,,,,,,,,,,,,,,,,,,,,,,,,,,,,,,,,,,vw,"[""v"",""w""]",0,"[1.3566000000001281,1.5888000000000488,2.1645000000000323]",1,1,0,1,0,1,,,,,,,,,,,,,,,,,,,,,,,,,,,,,,,,,,,,
,,,,,,,,,,,,609949e684aaf8787044e7ce,19,Mężczyzna,2022-06-11_09h18.33.819,task,2021.1.4,Win32,74.96251874,6299f149e92ead563fba08ef,62a441afeb3f3ad7f439daba,,,,,,,,,,,,,6,,,,,,,,,,Practice,7,(25/5) + 1,6,,,,,,,,,,,,,,,,"[""6""]",1,[2.8216999999999075],1,0,0,0,6,1,,,,,,,,,,,,,,,,,,,,,,,,,,,,,,,,,,,,,,,,,,,,,,,,,,,
,,,,,,,,,,,X V Q F H G B L J M P D K C T S W R N Z,609949e684aaf8787044e7ce,19,Mężczyzna,2022-06-11_09h18.33.819,task,2021.1.4,Win32,74.96251874,6299f149e92ead563fba08ef,62a441afeb3f3ad7f439daba,,,,,,,,,,,,,,,,,,,,,,,,,,,,,,,,,,,,,,,,,,,,,,,,,,,0,0,0,0,1,,,,,,,,,,,,,,,,,,,,,,,,,,,,,,,,,,,,,,,,,,,,,,
,,,,,,,,,,,,609949e684aaf8787044e7ce,19,Mężczyzna,2022-06-11_09h18.33.819,task,2021.1.4,Win32,74.96251874,6299f149e92ead563fba08ef,62a441afeb3f3ad7f439daba,,,,,,,,,,,,,6,,,,,,,,,,Practice,7,(25/5) + 1,6,,,,,,,,,,,,,,,,"[""6""]",1,[1.12660000000011],1,0,0,0,6,1,,,,,,,,,,,,,,,,,,,,,,,,,,,,,,,,,,,,,,,,,,,,,,,,,,,
,,,,,,,,,,,X V Q F H G B L J M P D K C T S W R N Z,609949e684aaf8787044e7ce,19,Mężczyzna,2022-06-11_09h18.33.819,task,2021.1.4,Win32,74.96251874,6299f149e92ead563fba08ef,62a441afeb3f3ad7f439daba,,,,,,,,,,,,,,,,,,,,,,,,,,,,,,,,,,,,,,,,,,,,,,,,,,,1,0,1,0,1,,,,,,,,,,,,,,,,,,,,,,,,,,,,,,,,,,,,,,,,,,,,,,
,,,,,,,,,,,,609949e684aaf8787044e7ce,19,Mężczyzna,2022-06-11_09h18.33.819,task,2021.1.4,Win32,74.96251874,6299f149e92ead563fba08ef,62a441afeb3f3ad7f439daba,,,,,,,,,,,,,,,,,,,,,,,,,,,,,,,,,,,,,,,,,,,,,,,,,,,,,,,,hz,"[""h"",""z""]",0,"[2.0086999999999193,2.3981000000000563,2.7733999999998673]",1,2,0,2,0,1,,,,,,,,,,,,,,,,,,,,,,,,,,,,,,,,,,,,
,,,,,,,,,,,,609949e684aaf8787044e7ce,19,Mężczyzna,2022-06-11_09h18.33.819,task,2021.1.4,Win32,74.96251874,6299f149e92ead563fba08ef,62a441afeb3f3ad7f439daba,,,,,,,,,,,,,3,,,,,,,,,,Task,35,(1x2) + 1,3,,,,,,,,,,,,,,,,,,,1,,,,,,,,,,,,,,,,,,,,,space,3.6502,"[""3""]",1,[2.17999999999995],0,0,0,34,1,,,,,,,,,,,,,,,,,,,,,,,,,,
,,,,,,,,,,,X V Q F H G B L J M P D K C T S W R N Z,609949e684aaf8787044e7ce,19,Mężczyzna,2022-06-11_09h18.33.819,task,2021.1.4,Win32,74.96251874,6299f149e92ead563fba08ef,62a441afeb3f3ad7f439daba,,,,,,,,,,,,,,,,,,,,,,,,,,,,,,,,,,,,,,,,,,,,,,,,,,,,,,,,,,,,,,,,,,,,,,,,,,,,0,0,0,0,1,,,,,,,,,,,,,,,,,,,,,
,,,,,,,,,,,,609949e684aaf8787044e7ce,19,Mężczyzna,2022-06-11_09h18.33.819,task,2021.1.4,Win32,74.96251874,6299f149e92ead563fba08ef,62a441afeb3f3ad7f439daba,,,,,,,,,,,,,3,,,,,,,,,,Task,27,(3/3) + 2,3,,,,,,,,,,,,,,,,,,,1,,,,,,,,,,,,,,,,,,,,,,,"[""3""]",1,[1.9144999999999754],0,0,0,26,1,,,,,,,,,,,,,,,,,,,,,,,,,,
,,,,,,,,,,,X V Q F H G B L J M P D K C T S W R N Z,609949e684aaf8787044e7ce,19,Mężczyzna,2022-06-11_09h18.33.819,task,2021.1.4,Win32,74.96251874,6299f149e92ead563fba08ef,62a441afeb3f3ad7f439daba,,,,,,,,,,,,,,,,,,,,,,,,,,,,,,,,,,,,,,,,,,,,,,,,,,,,,,,,,,,,,,,,,,,,,,,,,,,,1,0,1,0,1,,,,,,,,,,,,,,,,,,,,,
,,,,,,,,,,,,609949e684aaf8787044e7ce,19,Mężczyzna,2022-06-11_09h18.33.819,task,2021.1.4,Win32,74.96251874,6299f149e92ead563fba08ef,62a441afeb3f3ad7f439daba,,,,,,,,,,,,,,,,,,,,,,,,,,,,,,,,,,,,,,,,,,,,,,,,,,,,,,,,,,,,,,,,,,,,,,,,,,,,,,,,,zz,"[""z"",""z""]",0,"[1.0061999999999784,1.1848999999999137,1.4320999999998776]",1,ZZ,0,0,0,0,1,,,,,,,,,,
,,,,,,,,,,,,609949e684aaf8787044e7ce,19,Mężczyzna,2022-06-11_09h18.33.819,task,2021.1.4,Win32,74.96251874,6299f149e92ead563fba08ef,62a441afeb3f3ad7f439daba,,,,,,,,,,,,,3,,,,,,,,,,Task,20,(18/9) + 1,3,,,,,,,,,,,,,,,,,,,1,,,,,,,,,,,,,,,,,,,,,,,"[""3""]",1,[3.0222000000002254],0,0,0,19,1,,,,,,,,,,,,,,,,,,,,,,,,,,
,,,,,,,,,,,X V Q F H G B L J M P D K C T S W R N Z,609949e684aaf8787044e7ce,19,Mężczyzna,2022-06-11_09h18.33.819,task,2021.1.4,Win32,74.96251874,6299f149e92ead563fba08ef,62a441afeb3f3ad7f439daba,,,,,,,,,,,,,,,,,,,,,,,,,,,,,,,,,,,,,,,,,,,,,,,,,,,,,,,,,,,,,,,,,,,,,,,,,,,,0,0,0,0,1,,,,,,,,,,,,,,,,,,,,,
,,,,,,,,,,,,609949e684aaf8787044e7ce,19,Mężczyzna,2022-06-11_09h18.33.819,task,2021.1.4,Win32,74.96251874,6299f149e92ead563fba08ef,62a441afeb3f3ad7f439daba,,,,,,,,,,,,,8,,,,,,,,,,Task,32,(8/2) + 4,8,,,,,,,,,,,,,,,,,,,1,,,,,,,,,,,,,,,,,,,,,,,"[""8""]",1,[2.338799999999992],0,0,0,31,1,,,,,,,,,,,,,,,,,,,,,,,,,,
,,,,,,,,,,,X V Q F H G B L J M P D K C T S W R N Z,609949e684aaf8787044e7ce,19,Mężczyzna,2022-06-11_09h18.33.819,task,2021.1.4,Win32,74.96251874,6299f149e92ead563fba08ef,62a441afeb3f3ad7f439daba,,,,,,,,,,,,,,,,,,,,,,,,,,,,,,,,,,,,,,,,,,,,,,,,,,,,,,,,,,,,,,,,,,,,,,,,,,,,1,0,1,0,1,,,,,,,,,,,,,,,,,,,,,
,,,,,,,,,,,,609949e684aaf8787044e7ce,19,Mężczyzna,2022-06-11_09h18.33.819,task,2021.1.4,Win32,74.96251874,6299f149e92ead563fba08ef,62a441afeb3f3ad7f439daba,,,,,,,,,,,,,2,,,,,,,,,,Task,10,(2x5) - 8,2,,,,,,,,,,,,,,,,,,,1,,,,,,,,,,,,,,,,,,,,,,,"[""2""]",1,[6.490899999999897],0,0,0,9,1,,,,,,,,,,,,,,,,,,,,,,,,,,
,,,,,,,,,,,X V Q F H G B L J M P D K C T S W R N Z,609949e684aaf8787044e7ce,19,Mężczyzna,2022-06-11_09h18.33.819,task,2021.1.4,Win32,74.96251874,6299f149e92ead563fba08ef,62a441afeb3f3ad7f439daba,,,,,,,,,,,,,,,,,,,,,,,,,,,,,,,,,,,,,,,,,,,,,,,,,,,,,,,,,,,,,,,,,,,,,,,,,,,,2,0,2,0,1,,,,,,,,,,,,,,,,,,,,,
,,,,,,,,,,,,609949e684aaf8787044e7ce,19,Mężczyzna,2022-06-11_09h18.33.819,task,2021.1.4,Win32,74.96251874,6299f149e92ead563fba08ef,62a441afeb3f3ad7f439daba,,,,,,,,,,,,,,,,,,,,,,,,,,,,,,,,,,,,,,,,,,,,,,,,,,,,,,,,,,,,,,,,,,,,,,,,,,,,,,,,,jcv,"[""j"",""c"",""v""]",0,"[1.3785999999998353,1.7144999999999868,1.9329999999999927,2.4278000000000475]",1,JCV,1,0,1,0,1,,,,,,,,,,
,,,,,,,,,,,,609949e684aaf8787044e7ce,19,Mężczyzna,2022-06-11_09h18.33.819,task,2021.1.4,Win32,74.96251874,6299f149e92ead563fba08ef,62a441afeb3f3ad7f439daba,,,,,,,,,,,,,6,,,,,,,,,,Task,37,(3/3) + 5,6,,,,,,,,,,,,,,,,,,,1,,,,,,,,,,,,,,,,,,,,,,,"[""6""]",1,[3.718900000000133],0,0,0,36,1,,,,,,,,,,,,,,,,,,,,,,,,,,
,,,,,,,,,,,X V Q F H G B L J M P D K C T S W R N Z,609949e684aaf8787044e7ce,19,Mężczyzna,2022-06-11_09h18.33.819,task,2021.1.4,Win32,74.96251874,6299f149e92ead563fba08ef,62a441afeb3f3ad7f439daba,,,,,,,,,,,,,,,,,,,,,,,,,,,,,,,,,,,,,,,,,,,,,,,,,,,,,,,,,,,,,,,,,,,,,,,,,,,,0,0,0,0,1,,,,,,,,,,,,,,,,,,,,,
,,,,,,,,,,,,609949e684aaf8787044e7ce,19,Mężczyzna,2022-06-11_09h18.33.819,task,2021.1.4,Win32,74.96251874,6299f149e92ead563fba08ef,62a441afeb3f3ad7f439daba,,,,,,,,,,,,,9,,,,,,,,,,Task,40,(7x2) - 5,9,,,,,,,,,,,,,,,,,,,1,,,,,,,,,,,,,,,,,,,,,,,"[""9""]",1,[6.395500000000027],0,0,0,39,1,,,,,,,,,,,,,,,,,,,,,,,,,,
,,,,,,,,,,,X V Q F H G B L J M P D K C T S W R N Z,609949e684aaf8787044e7ce,19,Mężczyzna,2022-06-11_09h18.33.819,task,2021.1.4,Win32,74.96251874,6299f149e92ead563fba08ef,62a441afeb3f3ad7f439daba,,,,,,,,,,,,,,,,,,,,,,,,,,,,,,,,,,,,,,,,,,,,,,,,,,,,,,,,,,,,,,,,,,,,,,,,,,,,1,0,1,0,1,,,,,,,,,,,,,,,,,,,,,
,,,,,,,,,,,,609949e684aaf8787044e7ce,19,Mężczyzna,2022-06-11_09h18.33.819,task,2021.1.4,Win32,74.96251874,6299f149e92ead563fba08ef,62a441afeb3f3ad7f439daba,,,,,,,,,,,,,1,,,,,,,,,,Task,9,(3x7) - 20,1,,,,,,,,,,,,,,,,,,,1,,,,,,,,,,,,,,,,,,,,,,,"[""1""]",1,[10.10450000000003],0,0,0,8,1,,,,,,,,,,,,,,,,,,,,,,,,,,
,,,,,,,,,,,X V Q F H G B L J M P D K C T S W R N Z,609949e684aaf8787044e7ce,19,Mężczyzna,2022-06-11_09h18.33.819,task,2021.1.4,Win32,74.96251874,6299f149e92ead563fba08ef,62a441afeb3f3ad7f439daba,,,,,,,,,,,,,,,,,,,,,,,,,,,,,,,,,,,,,,,,,,,,,,,,,,,,,,,,,,,,,,,,,,,,,,,,,,,,2,0,2,0,1,,,,,,,,,,,,,,,,,,,,,
,,,,,,,,,,,,609949e684aaf8787044e7ce,19,Mężczyzna,2022-06-11_09h18.33.819,task,2021.1.4,Win32,74.96251874,6299f149e92ead563fba08ef,62a441afeb3f3ad7f439daba,,,,,,,,,,,,,6,,,,,,,,,,Task,30,(6/3) + 4 ,6,,,,,,,,,,,,,,,,,,,1,,,,,,,,,,,,,,,,,,,,,,,"[""6""]",1,[4.033200000000193],0,0,0,29,1,,,,,,,,,,,,,,,,,,,,,,,,,,
,,,,,,,,,,,X V Q F H G B L J M P D K C T S W R N Z,609949e684aaf8787044e7ce,19,Mężczyzna,2022-06-11_09h18.33.819,task,2021.1.4,Win32,74.96251874,6299f149e92ead563fba08ef,62a441afeb3f3ad7f439daba,,,,,,,,,,,,,,,,,,,,,,,,,,,,,,,,,,,,,,,,,,,,,,,,,,,,,,,,,,,,,,,,,,,,,,,,,,,,3,0,3,0,1,,,,,,,,,,,,,,,,,,,,,
,,,,,,,,,,,,609949e684aaf8787044e7ce,19,Mężczyzna,2022-06-11_09h18.33.819,task,2021.1.4,Win32,74.96251874,6299f149e92ead563fba08ef,62a441afeb3f3ad7f439daba,,,,,,,,,,,,,,,,,,,,,,,,,,,,,,,,,,,,,,,,,,,,,,,,,,,,,,,,,,,,,,,,,,,,,,,,,,,,,,,,,dxsz,"[""d"",""x"",""s"",""z""]",0,"[1.574399999999855,2.165799999999763,2.4800999999998794,2.7051999999999907,3.3123999999999114]",1,DXSZ,2,0,2,0,1,,,,,,,,,,
,,,,,,,,,,,,609949e684aaf8787044e7ce,19,Mężczyzna,2022-06-11_09h18.33.819,task,2021.1.4,Win32,74.96251874,6299f149e92ead563fba08ef,62a441afeb3f3ad7f439daba,,,,,,,,,,,,,0,,,,,,,,,,Task,17,(2x3) - 6,0,,,,,,,,,,,,,,,,,,,1,,,,,,,,,,,,,,,,,,,,,,,"[""0""]",1,[5.384999999999991],0,0,0,16,1,,,,,,,,,,,,,,,,,,,,,,,,,,
,,,,,,,,,,,X V Q F H G B L J M P D K C T S W R N Z,609949e684aaf8787044e7ce,19,Mężczyzna,2022-06-11_09h18.33.819,task,2021.1.4,Win32,74.96251874,6299f149e92ead563fba08ef,62a441afeb3f3ad7f439daba,,,,,,,,,,,,,,,,,,,,,,,,,,,,,,,,,,,,,,,,,,,,,,,,,,,,,,,,,,,,,,,,,,,,,,,,,,,,0,0,0,0,1,,,,,,,,,,,,,,,,,,,,,
,,,,,,,,,,,,609949e684aaf8787044e7ce,19,Mężczyzna,2022-06-11_09h18.33.819,task,2021.1.4,Win32,74.96251874,6299f149e92ead563fba08ef,62a441afeb3f3ad7f439daba,,,,,,,,,,,,,7,,,,,,,,,,Task,6,(12/2) + 1,7,,,,,,,,,,,,,,,,,,,1,,,,,,,,,,,,,,,,,,,,,,,"[""7""]",1,[4.5271999999999935],0,0,0,5,1,,,,,,,,,,,,,,,,,,,,,,,,,,
,,,,,,,,,,,X V Q F H G B L J M P D K C T S W R N Z,609949e684aaf8787044e7ce,19,Mężczyzna,2022-06-11_09h18.33.819,task,2021.1.4,Win32,74.96251874,6299f149e92ead563fba08ef,62a441afeb3f3ad7f439daba,,,,,,,,,,,,,,,,,,,,,,,,,,,,,,,,,,,,,,,,,,,,,,,,,,,,,,,,,,,,,,,,,,,,,,,,,,,,1,0,1,0,1,,,,,,,,,,,,,,,,,,,,,
,,,,,,,,,,,,609949e684aaf8787044e7ce,19,Mężczyzna,2022-06-11_09h18.33.819,task,2021.1.4,Win32,74.96251874,6299f149e92ead563fba08ef,62a441afeb3f3ad7f439daba,,,,,,,,,,,,,5,,,,,,,,,,Task,36,(8/4) + 3,5,,,,,,,,,,,,,,,,,,,1,,,,,,,,,,,,,,,,,,,,,,,"[""5""]",1,[7.369599999999991],0,0,0,35,1,,,,,,,,,,,,,,,,,,,,,,,,,,
,,,,,,,,,,,X V Q F H G B L J M P D K C T S W R N Z,609949e684aaf8787044e7ce,19,Mężczyzna,2022-06-11_09h18.33.819,task,2021.1.4,Win32,74.96251874,6299f149e92ead563fba08ef,62a441afeb3f3ad7f439daba,,,,,,,,,,,,,,,,,,,,,,,,,,,,,,,,,,,,,,,,,,,,,,,,,,,,,,,,,,,,,,,,,,,,,,,,,,,,2,0,2,0,1,,,,,,,,,,,,,,,,,,,,,
,,,,,,,,,,,,609949e684aaf8787044e7ce,19,Mężczyzna,2022-06-11_09h18.33.819,task,2021.1.4,Win32,74.96251874,6299f149e92ead563fba08ef,62a441afeb3f3ad7f439daba,,,,,,,,,,,,,2,,,,,,,,,,Task,19,(6/2) - 1,2,,,,,,,,,,,,,,,,,,,1,,,,,,,,,,,,,,,,,,,,,,,"[""2""]",1,[5.100000000000023],0,0,0,18,1,,,,,,,,,,,,,,,,,,,,,,,,,,
,,,,,,,,,,,X V Q F H G B L J M P D K C T S W R N Z,609949e684aaf8787044e7ce,19,Mężczyzna,2022-06-11_09h18.33.819,task,2021.1.4,Win32,74.96251874,6299f149e92ead563fba08ef,62a441afeb3f3ad7f439daba,,,,,,,,,,,,,,,,,,,,,,,,,,,,,,,,,,,,,,,,,,,,,,,,,,,,,,,,,,,,,,,,,,,,,,,,,,,,3,0,3,0,1,,,,,,,,,,,,,,,,,,,,,
,,,,,,,,,,,,609949e684aaf8787044e7ce,19,Mężczyzna,2022-06-11_09h18.33.819,task,2021.1.4,Win32,74.96251874,6299f149e92ead563fba08ef,62a441afeb3f3ad7f439daba,,,,,,,,,,,,,3,,,,,,,,,,Task,35,(1x2) + 1,3,,,,,,,,,,,,,,,,,,,1,,,,,,,,,,,,,,,,,,,,,,,"[""3""]",1,[7.288300000000049],0,0,0,34,1,,,,,,,,,,,,,,,,,,,,,,,,,,
,,,,,,,,,,,X V Q F H G B L J M P D K C T S W R N Z,609949e684aaf8787044e7ce,19,Mężczyzna,2022-06-11_09h18.33.819,task,2021.1.4,Win32,74.96251874,6299f149e92ead563fba08ef,62a441afeb3f3ad7f439daba,,,,,,,,,,,,,,,,,,,,,,,,,,,,,,,,,,,,,,,,,,,,,,,,,,,,,,,,,,,,,,,,,,,,,,,,,,,,4,0,4,0,1,,,,,,,,,,,,,,,,,,,,,
,,,,,,,,,,,,609949e684aaf8787044e7ce,19,Mężczyzna,2022-06-11_09h18.33.819,task,2021.1.4,Win32,74.96251874,6299f149e92ead563fba08ef,62a441afeb3f3ad7f439daba,,,,,,,,,,,,,,,,,,,,,,,,,,,,,,,,,,,,,,,,,,,,,,,,,,,,,,,,,,,,,,,,,,,,,,,,,,,,,,,,,fhsjw,"[""f"",""h"",""s"",""j"",""w""]",0,"[1.683499999999981,1.969500000000039,3.39220000000023,3.655300000000011,4.126900000000205,4.613000000000056]",1,FHSJW,3,0,3,0,1,,,,,,,,,,
,,,,,,,,,,,,609949e684aaf8787044e7ce,19,Mężczyzna,2022-06-11_09h18.33.819,task,2021.1.4,Win32,74.96251874,6299f149e92ead563fba08ef,62a441afeb3f3ad7f439daba,,,,,,,,,,,,,5,,,,,,,,,,Task,36,(8/4) + 3,5,,,,,,,,,,,,,,,,,,,1,,,,,,,,,,,,,,,,,,,,,,,"[""5""]",1,[3.6876000000000886],0,0,0,35,1,,,,,,,,,,,,,,,,,,,,,,,,,,
,,,,,,,,,,,X V Q F H G B L J M P D K C T S W R N Z,609949e684aaf8787044e7ce,19,Mężczyzna,2022-06-11_09h18.33.819,task,2021.1.4,Win32,74.96251874,6299f149e92ead563fba08ef,62a441afeb3f3ad7f439daba,,,,,,,,,,,,,,,,,,,,,,,,,,,,,,,,,,,,,,,,,,,,,,,,,,,,,,,,,,,,,,,,,,,,,,,,,,,,0,0,0,0,1,,,,,,,,,,,,,,,,,,,,,
,,,,,,,,,,,,609949e684aaf8787044e7ce,19,Mężczyzna,2022-06-11_09h18.33.819,task,2021.1.4,Win32,74.96251874,6299f149e92ead563fba08ef,62a441afeb3f3ad7f439daba,,,,,,,,,,,,,1,,,,,,,,,,Task,34,(9/3) - 2,1,,,,,,,,,,,,,,,,,,,1,,,,,,,,,,,,,,,,,,,,,,,"[""1""]",1,[5.487899999999968],0,0,0,33,1,,,,,,,,,,,,,,,,,,,,,,,,,,
,,,,,,,,,,,X V Q F H G B L J M P D K C T S W R N Z,609949e684aaf8787044e7ce,19,Mężczyzna,2022-06-11_09h18.33.819,task,2021.1.4,Win32,74.96251874,6299f149e92ead563fba08ef,62a441afeb3f3ad7f439daba,,,,,,,,,,,,,,,,,,,,,,,,,,,,,,,,,,,,,,,,,,,,,,,,,,,,,,,,,,,,,,,,,,,,,,,,,,,,1,0,1,0,1,,,,,,,,,,,,,,,,,,,,,
,,,,,,,,,,,,609949e684aaf8787044e7ce,19,Mężczyzna,2022-06-11_09h18.33.819,task,2021.1.4,Win32,74.96251874,6299f149e92ead563fba08ef,62a441afeb3f3ad7f439daba,,,,,,,,,,,,,0,,,,,,,,,,Task,34,(9/3) - 2,1,,,,,,,,,,,,,,,,,,,0,,,,,,,,,,,,,,,,,,,,,,,"[""0""]",0,[5.92999999999995],0,0,0,33,1,,,,,,,,,,,,,,,,,,,,,,,,,,
,,,,,,,,,,,,609949e684aaf8787044e7ce,19,Mężczyzna,2022-06-11_09h18.33.819,task,2021.1.4,Win32,74.96251874,6299f149e92ead563fba08ef,62a441afeb3f3ad7f439daba,,,,,,,,,,,,,9,,,,,,,,,,Task,40,(7x2) - 5,9,,,,,,,,,,,,,,,,,,,1,,,,,,,,,,,,,,,,,,,,,,,"[""9""]",1,[8.42109999999991],0,1,1,39,1,,,,,,,,,,,,,,,,,,,,,,,,,,
,,,,,,,,,,,X V Q F H G B L J M P D K C T S W R N Z,609949e684aaf8787044e7ce,19,Mężczyzna,2022-06-11_09h18.33.819,task,2021.1.4,Win32,74.96251874,6299f149e92ead563fba08ef,62a441afeb3f3ad7f439daba,,,,,,,,,,,,,,,,,,,,,,,,,,,,,,,,,,,,,,,,,,,,,,,,,,,,,,,,,,,,,,,,,,,,,,,,,,,,2,0,2,0,1,,,,,,,,,,,,,,,,,,,,,
,,,,,,,,,,,,609949e684aaf8787044e7ce,19,Mężczyzna,2022-06-11_09h18.33.819,task,2021.1.4,Win32,74.96251874,6299f149e92ead563fba08ef,62a441afeb3f3ad7f439daba,,,,,,,,,,,,,3,,,,,,,,,,Task,20,(18/9) + 1,3,,,,,,,,,,,,,,,,,,,1,,,,,,,,,,,,,,,,,,,,,,,"[""3""]",1,[3.6609000000000833],0,0,0,19,1,,,,,,,,,,,,,,,,,,,,,,,,,,
,,,,,,,,,,,X V Q F H G B L J M P D K C T S W R N Z,609949e684aaf8787044e7ce,19,Mężczyzna,2022-06-11_09h18.33.819,task,2021.1.4,Win32,74.96251874,6299f149e92ead563fba08ef,62a441afeb3f3ad7f439daba,,,,,,,,,,,,,,,,,,,,,,,,,,,,,,,,,,,,,,,,,,,,,,,,,,,,,,,,,,,,,,,,,,,,,,,,,,,,3,0,3,0,1,,,,,,,,,,,,,,,,,,,,,
,,,,,,,,,,,,609949e684aaf8787044e7ce,19,Mężczyzna,2022-06-11_09h18.33.819,task,2021.1.4,Win32,74.96251874,6299f149e92ead563fba08ef,62a441afeb3f3ad7f439daba,,,,,,,,,,,,,2,,,,,,,,,,Task,2,(2x2) - 2,2,,,,,,,,,,,,,,,,,,,1,,,,,,,,,,,,,,,,,,,,,,,"[""2""]",1,[6.914200000000164],0,0,0,1,1,,,,,,,,,,,,,,,,,,,,,,,,,,
,,,,,,,,,,,X V Q F H G B L J M P D K C T S W R N Z,609949e684aaf8787044e7ce,19,Mężczyzna,2022-06-11_09h18.33.819,task,2021.1.4,Win32,74.96251874,6299f149e92ead563fba08ef,62a441afeb3f3ad7f439daba,,,,,,,,,,,,,,,,,,,,,,,,,,,,,,,,,,,,,,,,,,,,,,,,,,,,,,,,,,,,,,,,,,,,,,,,,,,,4,0,4,0,1,,,,,,,,,,,,,,,,,,,,,
,,,,,,,,,,,,609949e684aaf8787044e7ce,19,Mężczyzna,2022-06-11_09h18.33.819,task,2021.1.4,Win32,74.96251874,6299f149e92ead563fba08ef,62a441afeb3f3ad7f439daba,,,,,,,,,,,,,3,,,,,,,,,,Task,35,(1x2) + 1,3,,,,,,,,,,,,,,,,,,,1,,,,,,,,,,,,,,,,,,,,,,,"[""3""]",1,[3.047300000000064],0,0,0,34,1,,,,,,,,,,,,,,,,,,,,,,,,,,
,,,,,,,,,,,X V Q F H G B L J M P D K C T S W R N Z,609949e684aaf8787044e7ce,19,Mężczyzna,2022-06-11_09h18.33.819,task,2021.1.4,Win32,74.96251874,6299f149e92ead563fba08ef,62a441afeb3f3ad7f439daba,,,,,,,,,,,,,,,,,,,,,,,,,,,,,,,,,,,,,,,,,,,,,,,,,,,,,,,,,,,,,,,,,,,,,,,,,,,,5,0,5,0,1,,,,,,,,,,,,,,,,,,,,,
,,,,,,,,,,,,609949e684aaf8787044e7ce,19,Mężczyzna,2022-06-11_09h18.33.819,task,2021.1.4,Win32,74.96251874,6299f149e92ead563fba08ef,62a441afeb3f3ad7f439daba,,,,,,,,,,,,,,,,,,,,,,,,,,,,,,,,,,,,,,,,,,,,,,,,,,,,,,,,,,,,,,,,,,,,,,,,,,,,,,,,,hlqxzn,"[""h"",""l"",""q"",""x"",""z"",""n""]",0,"[1.531500000000051,1.955000000000041,2.3143000000001166,6.1802000000000135,6.423199999999952,6.580500000000029,7.418199999999956]",0,HLQXNZ,4,0,4,0,1,,,,,,,,,,
,,,,,,,,,,,,609949e684aaf8787044e7ce,19,Mężczyzna,2022-06-11_09h18.33.819,task,2021.1.4,Win32,74.96251874,6299f149e92ead563fba08ef,62a441afeb3f3ad7f439daba,,,,,,,,,,,,,2,,,,,,,,,,Task,19,(6/2) - 1,2,,,,,,,,,,,,,,,,,,,1,,,,,,,,,,,,,,,,,,,,,,,"[""2""]",1,[6.194299999999771],0,0,0,18,1,,,,,,,,,,,,,,,,,,,,,,,,,,
,,,,,,,,,,,X V Q F H G B L J M P D K C T S W R N Z,609949e684aaf8787044e7ce,19,Mężczyzna,2022-06-11_09h18.33.819,task,2021.1.4,Win32,74.96251874,6299f149e92ead563fba08ef,62a441afeb3f3ad7f439daba,,,,,,,,,,,,,,,,,,,,,,,,,,,,,,,,,,,,,,,,,,,,,,,,,,,,,,,,,,,,,,,,,,,,,,,,,,,,0,0,0,0,1,,,,,,,,,,,,,,,,,,,,,
,,,,,,,,,,,,609949e684aaf8787044e7ce,19,Mężczyzna,2022-06-11_09h18.33.819,task,2021.1.4,Win32,74.96251874,6299f149e92ead563fba08ef,62a441afeb3f3ad7f439daba,,,,,,,,,,,,,2,,,,,,,,,,Task,10,(2x5) - 8,2,,,,,,,,,,,,,,,,,,,1,,,,,,,,,,,,,,,,,,,,,,,"[""2""]",1,[4.51360000000011],0,0,0,9,1,,,,,,,,,,,,,,,,,,,,,,,,,,
,,,,,,,,,,,X V Q F H G B L J M P D K C T S W R N Z,609949e684aaf8787044e7ce,19,Mężczyzna,2022-06-11_09h18.33.819,task,2021.1.4,Win32,74.96251874,6299f149e92ead563fba08ef,62a441afeb3f3ad7f439daba,,,,,,,,,,,,,,,,,,,,,,,,,,,,,,,,,,,,,,,,,,,,,,,,,,,,,,,,,,,,,,,,,,,,,,,,,,,,1,0,1,0,1,,,,,,,,,,,,,,,,,,,,,
,,,,,,,,,,,,609949e684aaf8787044e7ce,19,Mężczyzna,2022-06-11_09h18.33.819,task,2021.1.4,Win32,74.96251874,6299f149e92ead563fba08ef,62a441afeb3f3ad7f439daba,,,,,,,,,,,,,0,,,,,,,,,,Task,8,(1x5) - 5,0,,,,,,,,,,,,,,,,,,,1,,,,,,,,,,,,,,,,,,,,,,,"[""0""]",1,[2.4721000000000686],0,0,0,7,1,,,,,,,,,,,,,,,,,,,,,,,,,,
,,,,,,,,,,,X V Q F H G B L J M P D K C T S W R N Z,609949e684aaf8787044e7ce,19,Mężczyzna,2022-06-11_09h18.33.819,task,2021.1.4,Win32,74.96251874,6299f149e92ead563fba08ef,62a441afeb3f3ad7f439daba,,,,,,,,,,,,,,,,,,,,,,,,,,,,,,,,,,,,,,,,,,,,,,,,,,,,,,,,,,,,,,,,,,,,,,,,,,,,2,0,2,0,1,,,,,,,,,,,,,,,,,,,,,
,,,,,,,,,,,,609949e684aaf8787044e7ce,19,Mężczyzna,2022-06-11_09h18.33.819,task,2021.1.4,Win32,74.96251874,6299f149e92ead563fba08ef,62a441afeb3f3ad7f439daba,,,,,,,,,,,,,0,,,,,,,,,,Task,8,(1x5) - 5,0,,,,,,,,,,,,,,,,,,,1,,,,,,,,,,,,,,,,,,,,,,,"[""0""]",1,[2.754000000000019],0,0,0,7,1,,,,,,,,,,,,,,,,,,,,,,,,,,
,,,,,,,,,,,X V Q F H G B L J M P D K C T S W R N Z,609949e684aaf8787044e7ce,19,Mężczyzna,2022-06-11_09h18.33.819,task,2021.1.4,Win32,74.96251874,6299f149e92ead563fba08ef,62a441afeb3f3ad7f439daba,,,,,,,,,,,,,,,,,,,,,,,,,,,,,,,,,,,,,,,,,,,,,,,,,,,,,,,,,,,,,,,,,,,,,,,,,,,,3,0,3,0,1,,,,,,,,,,,,,,,,,,,,,
,,,,,,,,,,,,609949e684aaf8787044e7ce,19,Mężczyzna,2022-06-11_09h18.33.819,task,2021.1.4,Win32,74.96251874,6299f149e92ead563fba08ef,62a441afeb3f3ad7f439daba,,,,,,,,,,,,,,,,,,,,,,,Task,29,(3x8) - 19 ,5,,,,,,,,,,,,,,,,,,,0,,,,,,,,,,,,,,,,,,,,,,,,0,,0,0,0,28,1,,,,,,,,,,,,,,,,,,,,,,,,,,
,,,,,,,,,,,,609949e684aaf8787044e7ce,19,Mężczyzna,2022-06-11_09h18.33.819,task,2021.1.4,Win32,74.96251874,6299f149e92ead563fba08ef,62a441afeb3f3ad7f439daba,,,,,,,,,,,,,4,,,,,,,,,,Task,21,(10/2) - 1,4,,,,,,,,,,,,,,,,,,,1,,,,,,,,,,,,,,,,,,,,,,,"[""4""]",1,[4.073800000000006],0,1,1,20,1,,,,,,,,,,,,,,,,,,,,,,,,,,
,,,,,,,,,,,X V Q F H G B L J M P D K C T S W R N Z,609949e684aaf8787044e7ce,19,Mężczyzna,2022-06-11_09h18.33.819,task,2021.1.4,Win32,74.96251874,6299f149e92ead563fba08ef,62a441afeb3f3ad7f439daba,,,,,,,,,,,,,,,,,,,,,,,,,,,,,,,,,,,,,,,,,,,,,,,,,,,,,,,,,,,,,,,,,,,,,,,,,,,,4,0,4,0,1,,,,,,,,,,,,,,,,,,,,,
,,,,,,,,,,,,609949e684aaf8787044e7ce,19,Mężczyzna,2022-06-11_09h18.33.819,task,2021.1.4,Win32,74.96251874,6299f149e92ead563fba08ef,62a441afeb3f3ad7f439daba,,,,,,,,,,,,,,,,,,,,,,,Task,16,(3x8) - 15,9,,,,,,,,,,,,,,,,,,,0,,,,,,,,,,,,,,,,,,,,,,,,0,,0,0,0,15,1,,,,,,,,,,,,,,,,,,,,,,,,,,
,,,,,,,,,,,,609949e684aaf8787044e7ce,19,Mężczyzna,2022-06-11_09h18.33.819,task,2021.1.4,Win32,74.96251874,6299f149e92ead563fba08ef,62a441afeb3f3ad7f439daba,,,,,,,,,,,,,7,,,,,,,,,,Task,6,(12/2) + 1,7,,,,,,,,,,,,,,,,,,,1,,,,,,,,,,,,,,,,,,,,,,,"[""7""]",1,[3.8454999999999018],0,1,1,5,1,,,,,,,,,,,,,,,,,,,,,,,,,,
,,,,,,,,,,,X V Q F H G B L J M P D K C T S W R N Z,609949e684aaf8787044e7ce,19,Mężczyzna,2022-06-11_09h18.33.819,task,2021.1.4,Win32,74.96251874,6299f149e92ead563fba08ef,62a441afeb3f3ad7f439daba,,,,,,,,,,,,,,,,,,,,,,,,,,,,,,,,,,,,,,,,,,,,,,,,,,,,,,,,,,,,,,,,,,,,,,,,,,,,5,0,5,0,1,,,,,,,,,,,,,,,,,,,,,
,,,,,,,,,,,,609949e684aaf8787044e7ce,19,Mężczyzna,2022-06-11_09h18.33.819,task,2021.1.4,Win32,74.96251874,6299f149e92ead563fba08ef,62a441afeb3f3ad7f439daba,,,,,,,,,,,,,,,,,,,,,,,,,,,,,,,,,,,,,,,,,,,,,,,,,,,,,,,,,,,,,,,,,,,,,,,,,,,,,,,,,cghzvd,"[""c"",""g"",""h"",""z"",""v"",""d""]",0,"[2.7136999999999034,3.8521999999999252,4.182300000000055,8.230099999999993,8.636300000000006,8.942699999999945,9.467699999999923]",1,CGHZVD,5,0,5,0,1,,,,,,,,,,
,,,,,,,,,,,,609949e684aaf8787044e7ce,19,Mężczyzna,2022-06-11_09h18.33.819,task,2021.1.4,Win32,74.96251874,6299f149e92ead563fba08ef,62a441afeb3f3ad7f439daba,,,,,,,,,,,,,0,,,,,,,,,,Task,8,(1x5) - 5,0,,,,,,,,,,,,,,,,,,,1,,,,,,,,,,,,,,,,,,,,,,,"[""0""]",1,[1.8455999999998767],0,0,0,7,1,,,,,,,,,,,,,,,,,,,,,,,,,,
,,,,,,,,,,,X V Q F H G B L J M P D K C T S W R N Z,609949e684aaf8787044e7ce,19,Mężczyzna,2022-06-11_09h18.33.819,task,2021.1.4,Win32,74.96251874,6299f149e92ead563fba08ef,62a441afeb3f3ad7f439daba,,,,,,,,,,,,,,,,,,,,,,,,,,,,,,,,,,,,,,,,,,,,,,,,,,,,,,,,,,,,,,,,,,,,,,,,,,,,0,0,0,0,1,,,,,,,,,,,,,,,,,,,,,
,,,,,,,,,,,,609949e684aaf8787044e7ce,19,Mężczyzna,2022-06-11_09h18.33.819,task,2021.1.4,Win32,74.96251874,6299f149e92ead563fba08ef,62a441afeb3f3ad7f439daba,,,,,,,,,,,,,0,,,,,,,,,,Task,25,(10/5) - 2,0,,,,,,,,,,,,,,,,,,,1,,,,,,,,,,,,,,,,,,,,,,,"[""0""]",1,[3.352600000000166],0,0,0,24,1,,,,,,,,,,,,,,,,,,,,,,,,,,
,,,,,,,,,,,X V Q F H G B L J M P D K C T S W R N Z,609949e684aaf8787044e7ce,19,Mężczyzna,2022-06-11_09h18.33.819,task,2021.1.4,Win32,74.96251874,6299f149e92ead563fba08ef,62a441afeb3f3ad7f439daba,,,,,,,,,,,,,,,,,,,,,,,,,,,,,,,,,,,,,,,,,,,,,,,,,,,,,,,,,,,,,,,,,,,,,,,,,,,,1,0,1,0,1,,,,,,,,,,,,,,,,,,,,,
,,,,,,,,,,,,609949e684aaf8787044e7ce,19,Mężczyzna,2022-06-11_09h18.33.819,task,2021.1.4,Win32,74.96251874,6299f149e92ead563fba08ef,62a441afeb3f3ad7f439daba,,,,,,,,,,,,,8,,,,,,,,,,Task,15,(3x7) - 13,8,,,,,,,,,,,,,,,,,,,1,,,,,,,,,,,,,,,,,,,,,,,"[""8""]",1,[7.221699999999942],0,0,0,14,1,,,,,,,,,,,,,,,,,,,,,,,,,,
,,,,,,,,,,,X V Q F H G B L J M P D K C T S W R N Z,609949e684aaf8787044e7ce,19,Mężczyzna,2022-06-11_09h18.33.819,task,2021.1.4,Win32,74.96251874,6299f149e92ead563fba08ef,62a441afeb3f3ad7f439daba,,,,,,,,,,,,,,,,,,,,,,,,,,,,,,,,,,,,,,,,,,,,,,,,,,,,,,,,,,,,,,,,,,,,,,,,,,,,2,0,2,0,1,,,,,,,,,,,,,,,,,,,,,
,,,,,,,,,,,,609949e684aaf8787044e7ce,19,Mężczyzna,2022-06-11_09h18.33.819,task,2021.1.4,Win32,74.96251874,6299f149e92ead563fba08ef,62a441afeb3f3ad7f439daba,,,,,,,,,,,,,5,,,,,,,,,,Task,22,(3x1) + 2,5,,,,,,,,,,,,,,,,,,,1,,,,,,,,,,,,,,,,,,,,,,,"[""5""]",1,[3.9938999999999396],0,0,0,21,1,,,,,,,,,,,,,,,,,,,,,,,,,,
,,,,,,,,,,,X V Q F H G B L J M P D K C T S W R N Z,609949e684aaf8787044e7ce,19,Mężczyzna,2022-06-11_09h18.33.819,task,2021.1.4,Win32,74.96251874,6299f149e92ead563fba08ef,62a441afeb3f3ad7f439daba,,,,,,,,,,,,,,,,,,,,,,,,,,,,,,,,,,,,,,,,,,,,,,,,,,,,,,,,,,,,,,,,,,,,,,,,,,,,3,0,3,0,1,,,,,,,,,,,,,,,,,,,,,
,,,,,,,,,,,,609949e684aaf8787044e7ce,19,Mężczyzna,2022-06-11_09h18.33.819,task,2021.1.4,Win32,74.96251874,6299f149e92ead563fba08ef,62a441afeb3f3ad7f439daba,,,,,,,,,,,,,2,,,,,,,,,,Task,26,(2x9) - 16,2,,,,,,,,,,,,,,,,,,,1,,,,,,,,,,,,,,,,,,,,,,,"[""2""]",1,[4.873599999999783],0,0,0,25,1,,,,,,,,,,,,,,,,,,,,,,,,,,
,,,,,,,,,,,X V Q F H G B L J M P D K C T S W R N Z,609949e684aaf8787044e7ce,19,Mężczyzna,2022-06-11_09h18.33.819,task,2021.1.4,Win32,74.96251874,6299f149e92ead563fba08ef,62a441afeb3f3ad7f439daba,,,,,,,,,,,,,,,,,,,,,,,,,,,,,,,,,,,,,,,,,,,,,,,,,,,,,,,,,,,,,,,,,,,,,,,,,,,,4,0,4,0,1,,,,,,,,,,,,,,,,,,,,,
,,,,,,,,,,,,609949e684aaf8787044e7ce,19,Mężczyzna,2022-06-11_09h18.33.819,task,2021.1.4,Win32,74.96251874,6299f149e92ead563fba08ef,62a441afeb3f3ad7f439daba,,,,,,,,,,,,,7,,,,,,,,,,Task,31,(4/2) + 5,7,,,,,,,,,,,,,,,,,,,1,,,,,,,,,,,,,,,,,,,,,,,"[""7""]",1,[2.6046000000001186],0,0,0,30,1,,,,,,,,,,,,,,,,,,,,,,,,,,
,,,,,,,,,,,X V Q F H G B L J M P D K C T S W R N Z,609949e684aaf8787044e7ce,19,Mężczyzna,2022-06-11_09h18.33.819,task,2021.1.4,Win32,74.96251874,6299f149e92ead563fba08ef,62a441afeb3f3ad7f439daba,,,,,,,,,,,,,,,,,,,,,,,,,,,,,,,,,,,,,,,,,,,,,,,,,,,,,,,,,,,,,,,,,,,,,,,,,,,,5,0,5,0,1,,,,,,,,,,,,,,,,,,,,,
,,,,,,,,,,,,609949e684aaf8787044e7ce,19,Mężczyzna,2022-06-11_09h18.33.819,task,2021.1.4,Win32,74.96251874,6299f149e92ead563fba08ef,62a441afeb3f3ad7f439daba,,,,,,,,,,,,,3,,,,,,,,,,Task,20,(18/9) + 1,3,,,,,,,,,,,,,,,,,,,1,,,,,,,,,,,,,,,,,,,,,,,"[""3""]",1,[2.5016999999999143],0,0,0,19,1,,,,,,,,,,,,,,,,,,,,,,,,,,
,,,,,,,,,,,X V Q F H G B L J M P D K C T S W R N Z,609949e684aaf8787044e7ce,19,Mężczyzna,2022-06-11_09h18.33.819,task,2021.1.4,Win32,74.96251874,6299f149e92ead563fba08ef,62a441afeb3f3ad7f439daba,,,,,,,,,,,,,,,,,,,,,,,,,,,,,,,,,,,,,,,,,,,,,,,,,,,,,,,,,,,,,,,,,,,,,,,,,,,,6,0,6,0,1,,,,,,,,,,,,,,,,,,,,,
,,,,,,,,,,,,609949e684aaf8787044e7ce,19,Mężczyzna,2022-06-11_09h18.33.819,task,2021.1.4,Win32,74.96251874,6299f149e92ead563fba08ef,62a441afeb3f3ad7f439daba,,,,,,,,,,,,,,,,,,,,,,,,,,,,,,,,,,,,,,,,,,,,,,,,,,,,,,,,,,,,,,,,,,,,,,,,,,,,,,,,,gspvglc,"[""g"",""s"",""p"",""v"",""g"",""l"",""c""]",0,"[2.40319999999997,3.0463999999999487,3.404800000000023,4.445699999999988,5.28859999999986,5.451199999999972,5.595699999999965,6.29200000000003]",0,QSPVGLC,6,0,6,0,1,,,,,,,,,,
,,,,,,,,,,,,609949e684aaf8787044e7ce,19,Mężczyzna,2022-06-11_09h18.33.819,task,2021.1.4,Win32,74.96251874,6299f149e92ead563fba08ef,62a441afeb3f3ad7f439daba,,,,,,,,,,,,,8,,,,,,,,,,Task,32,(8/2) + 4,8,,,,,,,,,,,,,,,,,,,1,,,,,,,,,,,,,,,,,,,,,,,"[""8""]",1,[4.609599999999773],0,0,0,31,1,,,,,,,,,,,,,,,,,,,,,,,,,,
,,,,,,,,,,,X V Q F H G B L J M P D K C T S W R N Z,609949e684aaf8787044e7ce,19,Mężczyzna,2022-06-11_09h18.33.819,task,2021.1.4,Win32,74.96251874,6299f149e92ead563fba08ef,62a441afeb3f3ad7f439daba,,,,,,,,,,,,,,,,,,,,,,,,,,,,,,,,,,,,,,,,,,,,,,,,,,,,,,,,,,,,,,,,,,,,,,,,,,,,0,0,0,0,1,,,,,,,,,,,,,,,,,,,,,
,,,,,,,,,,,,609949e684aaf8787044e7ce,19,Mężczyzna,2022-06-11_09h18.33.819,task,2021.1.4,Win32,74.96251874,6299f149e92ead563fba08ef,62a441afeb3f3ad7f439daba,,,,,,,,,,,,,9,,,,,,,,,,Task,7,(3x7) - 12,9,,,,,,,,,,,,,,,,,,,1,,,,,,,,,,,,,,,,,,,,,,,"[""9""]",1,[5.809499999999957],0,0,0,6,1,,,,,,,,,,,,,,,,,,,,,,,,,,
,,,,,,,,,,,X V Q F H G B L J M P D K C T S W R N Z,609949e684aaf8787044e7ce,19,Mężczyzna,2022-06-11_09h18.33.819,task,2021.1.4,Win32,74.96251874,6299f149e92ead563fba08ef,62a441afeb3f3ad7f439daba,,,,,,,,,,,,,,,,,,,,,,,,,,,,,,,,,,,,,,,,,,,,,,,,,,,,,,,,,,,,,,,,,,,,,,,,,,,,1,0,1,0,1,,,,,,,,,,,,,,,,,,,,,
,,,,,,,,,,,,609949e684aaf8787044e7ce,19,Mężczyzna,2022-06-11_09h18.33.819,task,2021.1.4,Win32,74.96251874,6299f149e92ead563fba08ef,62a441afeb3f3ad7f439daba,,,,,,,,,,,,,2,,,,,,,,,,Task,19,(6/2) - 1,2,,,,,,,,,,,,,,,,,,,1,,,,,,,,,,,,,,,,,,,,,,,"[""2""]",1,[3.647399999999948],0,0,0,18,1,,,,,,,,,,,,,,,,,,,,,,,,,,
,,,,,,,,,,,X V Q F H G B L J M P D K C T S W R N Z,609949e684aaf8787044e7ce,19,Mężczyzna,2022-06-11_09h18.33.819,task,2021.1.4,Win32,74.96251874,6299f149e92ead563fba08ef,62a441afeb3f3ad7f439daba,,,,,,,,,,,,,,,,,,,,,,,,,,,,,,,,,,,,,,,,,,,,,,,,,,,,,,,,,,,,,,,,,,,,,,,,,,,,2,0,2,0,1,,,,,,,,,,,,,,,,,,,,,
,,,,,,,,,,,,609949e684aaf8787044e7ce,19,Mężczyzna,2022-06-11_09h18.33.819,task,2021.1.4,Win32,74.96251874,6299f149e92ead563fba08ef,62a441afeb3f3ad7f439daba,,,,,,,,,,,,,4,,,,,,,,,,Task,4,(1x5) - 1,4,,,,,,,,,,,,,,,,,,,1,,,,,,,,,,,,,,,,,,,,,,,"[""4""]",1,[2.312999999999988],0,0,0,3,1,,,,,,,,,,,,,,,,,,,,,,,,,,
,,,,,,,,,,,X V Q F H G B L J M P D K C T S W R N Z,609949e684aaf8787044e7ce,19,Mężczyzna,2022-06-11_09h18.33.819,task,2021.1.4,Win32,74.96251874,6299f149e92ead563fba08ef,62a441afeb3f3ad7f439daba,,,,,,,,,,,,,,,,,,,,,,,,,,,,,,,,,,,,,,,,,,,,,,,,,,,,,,,,,,,,,,,,,,,,,,,,,,,,3,0,3,0,1,,,,,,,,,,,,,,,,,,,,,
,,,,,,,,,,,,609949e684aaf8787044e7ce,19,Mężczyzna,2022-06-11_09h18.33.819,task,2021.1.4,Win32,74.96251874,6299f149e92ead563fba08ef,62a441afeb3f3ad7f439daba,,,,,,,,,,,,,7,,,,,,,,,,Task,6,(12/2) + 1,7,,,,,,,,,,,,,,,,,,,1,,,,,,,,,,,,,,,,,,,,,,,"[""7""]",1,[2.7679999999999154],0,0,0,5,1,,,,,,,,,,,,,,,,,,,,,,,,,,
,,,,,,,,,,,X V Q F H G B L J M P D K C T S W R N Z,609949e684aaf8787044e7ce,19,Mężczyzna,2022-06-11_09h18.33.819,task,2021.1.4,Win32,74.96251874,6299f149e92ead563fba08ef,62a441afeb3f3ad7f439daba,,,,,,,,,,,,,,,,,,,,,,,,,,,,,,,,,,,,,,,,,,,,,,,,,,,,,,,,,,,,,,,,,,,,,,,,,,,,4,0,4,0,1,,,,,,,,,,,,,,,,,,,,,
,,,,,,,,,,,,609949e684aaf8787044e7ce,19,Mężczyzna,2022-06-11_09h18.33.819,task,2021.1.4,Win32,74.96251874,6299f149e92ead563fba08ef,62a441afeb3f3ad7f439daba,,,,,,,,,,,,,3,,,,,,,,,,Task,27,(3/3) + 2,3,,,,,,,,,,,,,,,,,,,1,,,,,,,,,,,,,,,,,,,,,,,"[""3""]",1,[4.5031999999999925],0,0,0,26,1,,,,,,,,,,,,,,,,,,,,,,,,,,
,,,,,,,,,,,X V Q F H G B L J M P D K C T S W R N Z,609949e684aaf8787044e7ce,19,Mężczyzna,2022-06-11_09h18.33.819,task,2021.1.4,Win32,74.96251874,6299f149e92ead563fba08ef,62a441afeb3f3ad7f439daba,,,,,,,,,,,,,,,,,,,,,,,,,,,,,,,,,,,,,,,,,,,,,,,,,,,,,,,,,,,,,,,,,,,,,,,,,,,,5,0,5,0,1,,,,,,,,,,,,,,,,,,,,,
,,,,,,,,,,,,609949e684aaf8787044e7ce,19,Mężczyzna,2022-06-11_09h18.33.819,task,2021.1.4,Win32,74.96251874,6299f149e92ead563fba08ef,62a441afeb3f3ad7f439daba,,,,,,,,,,,,,7,,,,,,,,,,Task,14,(2x2) + 3,7,,,,,,,,,,,,,,,,,,,1,,,,,,,,,,,,,,,,,,,,,,,"[""7""]",1,[5.006399999999871],0,0,0,13,1,,,,,,,,,,,,,,,,,,,,,,,,,,
,,,,,,,,,,,X V Q F H G B L J M P D K C T S W R N Z,609949e684aaf8787044e7ce,19,Mężczyzna,2022-06-11_09h18.33.819,task,2021.1.4,Win32,74.96251874,6299f149e92ead563fba08ef,62a441afeb3f3ad7f439daba,,,,,,,,,,,,,,,,,,,,,,,,,,,,,,,,,,,,,,,,,,,,,,,,,,,,,,,,,,,,,,,,,,,,,,,,,,,,6,0,6,0,1,,,,,,,,,,,,,,,,,,,,,
,,,,,,,,,,,,609949e684aaf8787044e7ce,19,Mężczyzna,2022-06-11_09h18.33.819,task,2021.1.4,Win32,74.96251874,6299f149e92ead563fba08ef,62a441afeb3f3ad7f439daba,,,,,,,,,,,,,,,,,,,,,,,,,,,,,,,,,,,,,,,,,,,,,,,,,,,,,,,,,,,,,,,,,,,,,,,,,,,,,,,,,ghtplnz,"[""g"",""h"",""t"",""p"",""l"",""n"",""z""]",0,"[1.4935999999999012,1.7630999999998949,2.012800000000084,2.390199999999936,2.619000000000028,2.8510999999998603,3.0573000000000548,3.4429999999999836]",1,GHTPLNZ,7,0,7,0,1,,,,,,,,,,
,,,,,,,,,,,,609949e684aaf8787044e7ce,19,Mężczyzna,2022-06-11_09h18.33.819,task,2021.1.4,Win32,74.96251874,6299f149e92ead563fba08ef,62a441afeb3f3ad7f439daba,,,,,,,,,,,,,7,,,,,,,,,,Task,31,(4/2) + 5,7,,,,,,,,,,,,,,,,,,,1,,,,,,,,,,,,,,,,,,,,,,,"[""7""]",1,[3.10329999999999],0,0,0,30,1,,,,,,,,,,,,,,,,,,,,,,,,,,
,,,,,,,,,,,X V Q F H G B L J M P D K C T S W R N Z,609949e684aaf8787044e7ce,19,Mężczyzna,2022-06-11_09h18.33.819,task,2021.1.4,Win32,74.96251874,6299f149e92ead563fba08ef,62a441afeb3f3ad7f439daba,,,,,,,,,,,,,,,,,,,,,,,,,,,,,,,,,,,,,,,,,,,,,,,,,,,,,,,,,,,,,,,,,,,,,,,,,,,,0,0,0,0,1,,,,,,,,,,,,,,,,,,,,,
,,,,,,,,,,,,609949e684aaf8787044e7ce,19,Mężczyzna,2022-06-11_09h18.33.819,task,2021.1.4,Win32,74.96251874,6299f149e92ead563fba08ef,62a441afeb3f3ad7f439daba,,,,,,,,,,,,,8,,,,,,,,,,Task,16,(3x8) - 15,9,,,,,,,,,,,,,,,,,,,0,,,,,,,,,,,,,,,,,,,,,,,"[""8""]",0,[5.742099999999823],0,0,0,15,1,,,,,,,,,,,,,,,,,,,,,,,,,,
,,,,,,,,,,,,609949e684aaf8787044e7ce,19,Mężczyzna,2022-06-11_09h18.33.819,task,2021.1.4,Win32,74.96251874,6299f149e92ead563fba08ef,62a441afeb3f3ad7f439daba,,,,,,,,,,,,,2,,,,,,,,,,Task,10,(2x5) - 8,2,,,,,,,,,,,,,,,,,,,1,,,,,,,,,,,,,,,,,,,,,,,"[""2""]",1,[3.9668000000000347],0,1,1,9,1,,,,,,,,,,,,,,,,,,,,,,,,,,
,,,,,,,,,,,X V Q F H G B L J M P D K C T S W R N Z,609949e684aaf8787044e7ce,19,Mężczyzna,2022-06-11_09h18.33.819,task,2021.1.4,Win32,74.96251874,6299f149e92ead563fba08ef,62a441afeb3f3ad7f439daba,,,,,,,,,,,,,,,,,,,,,,,,,,,,,,,,,,,,,,,,,,,,,,,,,,,,,,,,,,,,,,,,,,,,,,,,,,,,1,0,1,0,1,,,,,,,,,,,,,,,,,,,,,
,,,,,,,,,,,,609949e684aaf8787044e7ce,19,Mężczyzna,2022-06-11_09h18.33.819,task,2021.1.4,Win32,74.96251874,6299f149e92ead563fba08ef,62a441afeb3f3ad7f439daba,,,,,,,,,,,,,1,,,,,,,,,,Task,1,(12/6) - 1,1,,,,,,,,,,,,,,,,,,,1,,,,,,,,,,,,,,,,,,,,,,,"[""1""]",1,[4.233799999999974],0,0,0,0,1,,,,,,,,,,,,,,,,,,,,,,,,,,
,,,,,,,,,,,X V Q F H G B L J M P D K C T S W R N Z,609949e684aaf8787044e7ce,19,Mężczyzna,2022-06-11_09h18.33.819,task,2021.1.4,Win32,74.96251874,6299f149e92ead563fba08ef,62a441afeb3f3ad7f439daba,,,,,,,,,,,,,,,,,,,,,,,,,,,,,,,,,,,,,,,,,,,,,,,,,,,,,,,,,,,,,,,,,,,,,,,,,,,,2,0,2,0,1,,,,,,,,,,,,,,,,,,,,,
,,,,,,,,,,,,609949e684aaf8787044e7ce,19,Mężczyzna,2022-06-11_09h18.33.819,task,2021.1.4,Win32,74.96251874,6299f149e92ead563fba08ef,62a441afeb3f3ad7f439daba,,,,,,,,,,,,,9,,,,,,,,,,Task,40,(7x2) - 5,9,,,,,,,,,,,,,,,,,,,1,,,,,,,,,,,,,,,,,,,,,,,"[""9""]",1,[5.823399999999879],0,0,0,39,1,,,,,,,,,,,,,,,,,,,,,,,,,,
,,,,,,,,,,,X V Q F H G B L J M P D K C T S W R N Z,609949e684aaf8787044e7ce,19,Mężczyzna,2022-06-11_09h18.33.819,task,2021.1.4,Win32,74.96251874,6299f149e92ead563fba08ef,62a441afeb3f3ad7f439daba,,,,,,,,,,,,,,,,,,,,,,,,,,,,,,,,,,,,,,,,,,,,,,,,,,,,,,,,,,,,,,,,,,,,,,,,,,,,3,0,3,0,1,,,,,,,,,,,,,,,,,,,,,
,,,,,,,,,,,,609949e684aaf8787044e7ce,19,Mężczyzna,2022-06-11_09h18.33.819,task,2021.1.4,Win32,74.96251874,6299f149e92ead563fba08ef,62a441afeb3f3ad7f439daba,,,,,,,,,,,,,1,,,,,,,,,,Task,1,(12/6) - 1,1,,,,,,,,,,,,,,,,,,,1,,,,,,,,,,,,,,,,,,,,,,,"[""1""]",1,[5.448100000000068],0,0,0,0,1,,,,,,,,,,,,,,,,,,,,,,,,,,
,,,,,,,,,,,X V Q F H G B L J M P D K C T S W R N Z,609949e684aaf8787044e7ce,19,Mężczyzna,2022-06-11_09h18.33.819,task,2021.1.4,Win32,74.96251874,6299f149e92ead563fba08ef,62a441afeb3f3ad7f439daba,,,,,,,,,,,,,,,,,,,,,,,,,,,,,,,,,,,,,,,,,,,,,,,,,,,,,,,,,,,,,,,,,,,,,,,,,,,,4,0,4,0,1,,,,,,,,,,,,,,,,,,,,,
,,,,,,,,,,,,609949e684aaf8787044e7ce,19,Mężczyzna,2022-06-11_09h18.33.819,task,2021.1.4,Win32,74.96251874,6299f149e92ead563fba08ef,62a441afeb3f3ad7f439daba,,,,,,,,,,,,,3,,,,,,,,,,Task,3,(2x3) - 3,3,,,,,,,,,,,,,,,,,,,1,,,,,,,,,,,,,,,,,,,,,,,"[""3""]",1,[5.314999999999941],0,0,0,2,1,,,,,,,,,,,,,,,,,,,,,,,,,,
,,,,,,,,,,,X V Q F H G B L J M P D K C T S W R N Z,609949e684aaf8787044e7ce,19,Mężczyzna,2022-06-11_09h18.33.819,task,2021.1.4,Win32,74.96251874,6299f149e92ead563fba08ef,62a441afeb3f3ad7f439daba,,,,,,,,,,,,,,,,,,,,,,,,,,,,,,,,,,,,,,,,,,,,,,,,,,,,,,,,,,,,,,,,,,,,,,,,,,,,5,0,5,0,1,,,,,,,,,,,,,,,,,,,,,
,,,,,,,,,,,,609949e684aaf8787044e7ce,19,Mężczyzna,2022-06-11_09h18.33.819,task,2021.1.4,Win32,74.96251874,6299f149e92ead563fba08ef,62a441afeb3f3ad7f439daba,,,,,,,,,,,,,4,,,,,,,,,,Task,28,(2x5) - 6,4,,,,,,,,,,,,,,,,,,,1,,,,,,,,,,,,,,,,,,,,,,,"[""4""]",1,[4.7668999999998505],0,0,0,27,1,,,,,,,,,,,,,,,,,,,,,,,,,,
,,,,,,,,,,,X V Q F H G B L J M P D K C T S W R N Z,609949e684aaf8787044e7ce,19,Mężczyzna,2022-06-11_09h18.33.819,task,2021.1.4,Win32,74.96251874,6299f149e92ead563fba08ef,62a441afeb3f3ad7f439daba,,,,,,,,,,,,,,,,,,,,,,,,,,,,,,,,,,,,,,,,,,,,,,,,,,,,,,,,,,,,,,,,,,,,,,,,,,,,6,0,6,0,1,,,,,,,,,,,,,,,,,,,,,
,,,,,,,,,,,,609949e684aaf8787044e7ce,19,Mężczyzna,2022-06-11_09h18.33.819,task,2021.1.4,Win32,74.96251874,6299f149e92ead563fba08ef,62a441afeb3f3ad7f439daba,,,,,,,,,,,,,1,,,,,,,,,,Task,9,(3x7) - 20,1,,,,,,,,,,,,,,,,,,,1,,,,,,,,,,,,,,,,,,,,,,,"[""1""]",1,[5.755199999999945],0,0,0,8,1,,,,,,,,,,,,,,,,,,,,,,,,,,
,,,,,,,,,,,X V Q F H G B L J M P D K C T S W R N Z,609949e684aaf8787044e7ce,19,Mężczyzna,2022-06-11_09h18.33.819,task,2021.1.4,Win32,74.96251874,6299f149e92ead563fba08ef,62a441afeb3f3ad7f439daba,,,,,,,,,,,,,,,,,,,,,,,,,,,,,,,,,,,,,,,,,,,,,,,,,,,,,,,,,,,,,,,,,,,,,,,,,,,,7,0,7,0,1,,,,,,,,,,,,,,,,,,,,,
,,,,,,,,,,,,609949e684aaf8787044e7ce,19,Mężczyzna,2022-06-11_09h18.33.819,task,2021.1.4,Win32,74.96251874,6299f149e92ead563fba08ef,62a441afeb3f3ad7f439daba,,,,,,,,,,,,,,,,,,,,,,,,,,,,,,,,,,,,,,,,,,,,,,,,,,,,,,,,,,,,,,,,,,,,,,,,,,,,,,,,,hzfljzz,"[""h"",""z"",""f"",""l"",""j"",""z"",""z""]",0,"[2.646200000000249,6.0456000000001495,6.458400000000211,7.125300000000038,7.7683000000000675,9.802600000000098,9.987900000000195,10.482400000000212]",0,NHZFLJZZ,8,0,8,0,1,,,,,,,,,,
,,,,,,,,,,,,609949e684aaf8787044e7ce,19,Mężczyzna,2022-06-11_09h18.33.819,task,2021.1.4,Win32,74.96251874,6299f149e92ead563fba08ef,62a441afeb3f3ad7f439daba,,,,,,,,,,,,,5,,,,,,,,,,Task,36,(8/4) + 3,5,,,,,,,,,,,,,,,,,,,1,,,,,,,,,,,,,,,,,,,,,,,"[""5""]",1,[4.380200000000173],0,0,0,35,1,,,,,,,,,,,,,,,,,,,,,,,,,,
,,,,,,,,,,,X V Q F H G B L J M P D K C T S W R N Z,609949e684aaf8787044e7ce,19,Mężczyzna,2022-06-11_09h18.33.819,task,2021.1.4,Win32,74.96251874,6299f149e92ead563fba08ef,62a441afeb3f3ad7f439daba,,,,,,,,,,,,,,,,,,,,,,,,,,,,,,,,,,,,,,,,,,,,,,,,,,,,,,,,,,,,,,,,,,,,,,,,,,,,0,0,0,0,1,,,,,,,,,,,,,,,,,,,,,
,,,,,,,,,,,,609949e684aaf8787044e7ce,19,Mężczyzna,2022-06-11_09h18.33.819,task,2021.1.4,Win32,74.96251874,6299f149e92ead563fba08ef,62a441afeb3f3ad7f439daba,,,,,,,,,,,,,6,,,,,,,,,,Task,5,(2x3) + 0,6,,,,,,,,,,,,,,,,,,,1,,,,,,,,,,,,,,,,,,,,,,,"[""6""]",1,[2.7957999999999856],0,0,0,4,1,,,,,,,,,,,,,,,,,,,,,,,,,,
,,,,,,,,,,,X V Q F H G B L J M P D K C T S W R N Z,609949e684aaf8787044e7ce,19,Mężczyzna,2022-06-11_09h18.33.819,task,2021.1.4,Win32,74.96251874,6299f149e92ead563fba08ef,62a441afeb3f3ad7f439daba,,,,,,,,,,,,,,,,,,,,,,,,,,,,,,,,,,,,,,,,,,,,,,,,,,,,,,,,,,,,,,,,,,,,,,,,,,,,1,0,1,0,1,,,,,,,,,,,,,,,,,,,,,
,,,,,,,,,,,,609949e684aaf8787044e7ce,19,Mężczyzna,2022-06-11_09h18.33.819,task,2021.1.4,Win32,74.96251874,6299f149e92ead563fba08ef,62a441afeb3f3ad7f439daba,,,,,,,,,,,,,2,,,,,,,,,,Task,10,(2x5) - 8,2,,,,,,,,,,,,,,,,,,,1,,,,,,,,,,,,,,,,,,,,,,,"[""2""]",1,[2.7831999999999653],0,0,0,9,1,,,,,,,,,,,,,,,,,,,,,,,,,,
,,,,,,,,,,,X V Q F H G B L J M P D K C T S W R N Z,609949e684aaf8787044e7ce,19,Mężczyzna,2022-06-11_09h18.33.819,task,2021.1.4,Win32,74.96251874,6299f149e92ead563fba08ef,62a441afeb3f3ad7f439daba,,,,,,,,,,,,,,,,,,,,,,,,,,,,,,,,,,,,,,,,,,,,,,,,,,,,,,,,,,,,,,,,,,,,,,,,,,,,2,0,2,0,1,,,,,,,,,,,,,,,,,,,,,
,,,,,,,,,,,,609949e684aaf8787044e7ce,19,Mężczyzna,2022-06-11_09h18.33.819,task,2021.1.4,Win32,74.96251874,6299f149e92ead563fba08ef,62a441afeb3f3ad7f439daba,,,,,,,,,,,,,4,,,,,,,,,,Task,4,(1x5) - 1,4,,,,,,,,,,,,,,,,,,,1,,,,,,,,,,,,,,,,,,,,,,,"[""4""]",1,[4.899700000000053],0,0,0,3,1,,,,,,,,,,,,,,,,,,,,,,,,,,
,,,,,,,,,,,X V Q F H G B L J M P D K C T S W R N Z,609949e684aaf8787044e7ce,19,Mężczyzna,2022-06-11_09h18.33.819,task,2021.1.4,Win32,74.96251874,6299f149e92ead563fba08ef,62a441afeb3f3ad7f439daba,,,,,,,,,,,,,,,,,,,,,,,,,,,,,,,,,,,,,,,,,,,,,,,,,,,,,,,,,,,,,,,,,,,,,,,,,,,,3,0,3,0,1,,,,,,,,,,,,,,,,,,,,,
,,,,,,,,,,,,609949e684aaf8787044e7ce,19,Mężczyzna,2022-06-11_09h18.33.819,task,2021.1.4,Win32,74.96251874,6299f149e92ead563fba08ef,62a441afeb3f3ad7f439daba,,,,,,,,,,,,,4,,,,,,,,,,Task,4,(1x5) - 1,4,,,,,,,,,,,,,,,,,,,1,,,,,,,,,,,,,,,,,,,,,,,"[""4""]",1,[3.260699999999929],0,0,0,3,1,,,,,,,,,,,,,,,,,,,,,,,,,,
,,,,,,,,,,,X V Q F H G B L J M P D K C T S W R N Z,609949e684aaf8787044e7ce,19,Mężczyzna,2022-06-11_09h18.33.819,task,2021.1.4,Win32,74.96251874,6299f149e92ead563fba08ef,62a441afeb3f3ad7f439daba,,,,,,,,,,,,,,,,,,,,,,,,,,,,,,,,,,,,,,,,,,,,,,,,,,,,,,,,,,,,,,,,,,,,,,,,,,,,4,0,4,0,1,,,,,,,,,,,,,,,,,,,,,
,,,,,,,,,,,,609949e684aaf8787044e7ce,19,Mężczyzna,2022-06-11_09h18.33.819,task,2021.1.4,Win32,74.96251874,6299f149e92ead563fba08ef,62a441afeb3f3ad7f439daba,,,,,,,,,,,,,1,,,,,,,,,,Task,18,(16/4) - 3,1,,,,,,,,,,,,,,,,,,,1,,,,,,,,,,,,,,,,,,,,,,,"[""1""]",1,[5.820500000000038],0,0,0,17,1,,,,,,,,,,,,,,,,,,,,,,,,,,
,,,,,,,,,,,X V Q F H G B L J M P D K C T S W R N Z,609949e684aaf8787044e7ce,19,Mężczyzna,2022-06-11_09h18.33.819,task,2021.1.4,Win32,74.96251874,6299f149e92ead563fba08ef,62a441afeb3f3ad7f439daba,,,,,,,,,,,,,,,,,,,,,,,,,,,,,,,,,,,,,,,,,,,,,,,,,,,,,,,,,,,,,,,,,,,,,,,,,,,,5,0,5,0,1,,,,,,,,,,,,,,,,,,,,,
,,,,,,,,,,,,609949e684aaf8787044e7ce,19,Mężczyzna,2022-06-11_09h18.33.819,task,2021.1.4,Win32,74.96251874,6299f149e92ead563fba08ef,62a441afeb3f3ad7f439daba,,,,,,,,,,,,,9,,,,,,,,,,Task,7,(3x7) - 12,9,,,,,,,,,,,,,,,,,,,1,,,,,,,,,,,,,,,,,,,,,,,"[""9""]",1,[8.64910000000009],0,0,0,6,1,,,,,,,,,,,,,,,,,,,,,,,,,,
,,,,,,,,,,,X V Q F H G B L J M P D K C T S W R N Z,609949e684aaf8787044e7ce,19,Mężczyzna,2022-06-11_09h18.33.819,task,2021.1.4,Win32,74.96251874,6299f149e92ead563fba08ef,62a441afeb3f3ad7f439daba,,,,,,,,,,,,,,,,,,,,,,,,,,,,,,,,,,,,,,,,,,,,,,,,,,,,,,,,,,,,,,,,,,,,,,,,,,,,6,0,6,0,1,,,,,,,,,,,,,,,,,,,,,
,,,,,,,,,,,,609949e684aaf8787044e7ce,19,Mężczyzna,2022-06-11_09h18.33.819,task,2021.1.4,Win32,74.96251874,6299f149e92ead563fba08ef,62a441afeb3f3ad7f439daba,,,,,,,,,,,,,3,,,,,,,,,,Task,3,(2x3) - 3,3,,,,,,,,,,,,,,,,,,,1,,,,,,,,,,,,,,,,,,,,,,,"[""3""]",1,[4.100299999999834],0,0,0,2,1,,,,,,,,,,,,,,,,,,,,,,,,,,
,,,,,,,,,,,X V Q F H G B L J M P D K C T S W R N Z,609949e684aaf8787044e7ce,19,Mężczyzna,2022-06-11_09h18.33.819,task,2021.1.4,Win32,74.96251874,6299f149e92ead563fba08ef,62a441afeb3f3ad7f439daba,,,,,,,,,,,,,,,,,,,,,,,,,,,,,,,,,,,,,,,,,,,,,,,,,,,,,,,,,,,,,,,,,,,,,,,,,,,,7,0,7,0,1,,,,,,,,,,,,,,,,,,,,,
,,,,,,,,,,,,609949e684aaf8787044e7ce,19,Mężczyzna,2022-06-11_09h18.33.819,task,2021.1.4,Win32,74.96251874,6299f149e92ead563fba08ef,62a441afeb3f3ad7f439daba,,,,,,,,,,,,,,,,,,,,,,,,,,,,,,,,,,,,,,,,,,,,,,,,,,,,,,,,,,,,,,,,,,,,,,,,,,,,,,,,,gtlcvtbb,"[""g"",""t"",""l"",""c"",""v"",""t"",""b"",""b""]",0,"[2.743200000000229,3.4547999999998638,3.8853999999998905,4.469500000000039,4.79420000000016,5.080299999999852,5.343600000000038,5.453799999999774,5.843499999999949]",1,GTLCVTBB,9,0,9,0,1,,,,,,,,,,
,,,,,,,,,,,,609949e684aaf8787044e7ce,19,Mężczyzna,2022-06-11_09h18.33.819,task,2021.1.4,Win32,74.96251874,6299f149e92ead563fba08ef,62a441afeb3f3ad7f439daba,,,,,,,,,,,,,8,,,,,,,,,,Task,16,(3x8) - 15,9,,,,,,,,,,,,,,,,,,,0,,,,,,,,,,,,,,,,,,,,,,,"[""8""]",0,[5.3945999999996275],0,0,0,15,1,,,,,,,,,,,,,,,,,,,,,,,,,,
,,,,,,,,,,,,609949e684aaf8787044e7ce,19,Mężczyzna,2022-06-11_09h18.33.819,task,2021.1.4,Win32,74.96251874,6299f149e92ead563fba08ef,62a441afeb3f3ad7f439daba,,,,,,,,,,,,,,,,,,,,,,,Task,38,(4x6) - 17,7,,,,,,,,,,,,,,,,,,,0,,,,,,,,,,,,,,,,,,,,,,,,0,,0,1,1,37,1,,,,,,,,,,,,,,,,,,,,,,,,,,
,,,,,,,,,,,,609949e684aaf8787044e7ce,19,Mężczyzna,2022-06-11_09h18.33.819,task,2021.1.4,Win32,74.96251874,6299f149e92ead563fba08ef,62a441afeb3f3ad7f439daba,,,,,,,,,,,,,3,,,,,,,,,,Task,20,(18/9) + 1,3,,,,,,,,,,,,,,,,,,,1,,,,,,,,,,,,,,,,,,,,,,,"[""3""]",1,[5.836099999999647],0,2,2,19,1,,,,,,,,,,,,,,,,,,,,,,,,,,
,,,,,,,,,,,X V Q F H G B L J M P D K C T S W R N Z,609949e684aaf8787044e7ce,19,Mężczyzna,2022-06-11_09h18.33.819,task,2021.1.4,Win32,74.96251874,6299f149e92ead563fba08ef,62a441afeb3f3ad7f439daba,,,,,,,,,,,,,,,,,,,,,,,,,,,,,,,,,,,,,,,,,,,,,,,,,,,,,,,,,,,,,,,,,,,,,,,,,,,,0,0,0,0,1,,,,,,,,,,,,,,,,,,,,,
,,,,,,,,,,,,609949e684aaf8787044e7ce,19,Mężczyzna,2022-06-11_09h18.33.819,task,2021.1.4,Win32,74.96251874,6299f149e92ead563fba08ef,62a441afeb3f3ad7f439daba,,,,,,,,,,,,,2,,,,,,,,,,Task,26,(2x9) - 16,2,,,,,,,,,,,,,,,,,,,1,,,,,,,,,,,,,,,,,,,,,,,"[""2""]",1,[5.780900000000315],0,0,0,25,1,,,,,,,,,,,,,,,,,,,,,,,,,,
,,,,,,,,,,,X V Q F H G B L J M P D K C T S W R N Z,609949e684aaf8787044e7ce,19,Mężczyzna,2022-06-11_09h18.33.819,task,2021.1.4,Win32,74.96251874,6299f149e92ead563fba08ef,62a441afeb3f3ad7f439daba,,,,,,,,,,,,,,,,,,,,,,,,,,,,,,,,,,,,,,,,,,,,,,,,,,,,,,,,,,,,,,,,,,,,,,,,,,,,1,0,1,0,1,,,,,,,,,,,,,,,,,,,,,
,,,,,,,,,,,,609949e684aaf8787044e7ce,19,Mężczyzna,2022-06-11_09h18.33.819,task,2021.1.4,Win32,74.96251874,6299f149e92ead563fba08ef,62a441afeb3f3ad7f439daba,,,,,,,,,,,,,6,,,,,,,,,,Task,13,(3x4) - 6,6,,,,,,,,,,,,,,,,,,,1,,,,,,,,,,,,,,,,,,,,,,,"[""6""]",1,[3.878500000000031],0,0,0,12,1,,,,,,,,,,,,,,,,,,,,,,,,,,
,,,,,,,,,,,X V Q F H G B L J M P D K C T S W R N Z,609949e684aaf8787044e7ce,19,Mężczyzna,2022-06-11_09h18.33.819,task,2021.1.4,Win32,74.96251874,6299f149e92ead563fba08ef,62a441afeb3f3ad7f439daba,,,,,,,,,,,,,,,,,,,,,,,,,,,,,,,,,,,,,,,,,,,,,,,,,,,,,,,,,,,,,,,,,,,,,,,,,,,,2,0,2,0,1,,,,,,,,,,,,,,,,,,,,,
,,,,,,,,,,,,609949e684aaf8787044e7ce,19,Mężczyzna,2022-06-11_09h18.33.819,task,2021.1.4,Win32,74.96251874,6299f149e92ead563fba08ef,62a441afeb3f3ad7f439daba,,,,,,,,,,,,,1,,,,,,,,,,Task,9,(3x7) - 20,1,,,,,,,,,,,,,,,,,,,1,,,,,,,,,,,,,,,,,,,,,,,"[""1""]",1,[3.1168999999997595],0,0,0,8,1,,,,,,,,,,,,,,,,,,,,,,,,,,
,,,,,,,,,,,X V Q F H G B L J M P D K C T S W R N Z,609949e684aaf8787044e7ce,19,Mężczyzna,2022-06-11_09h18.33.819,task,2021.1.4,Win32,74.96251874,6299f149e92ead563fba08ef,62a441afeb3f3ad7f439daba,,,,,,,,,,,,,,,,,,,,,,,,,,,,,,,,,,,,,,,,,,,,,,,,,,,,,,,,,,,,,,,,,,,,,,,,,,,,3,0,3,0,1,,,,,,,,,,,,,,,,,,,,,
,,,,,,,,,,,,609949e684aaf8787044e7ce,19,Mężczyzna,2022-06-11_09h18.33.819,task,2021.1.4,Win32,74.96251874,6299f149e92ead563fba08ef,62a441afeb3f3ad7f439daba,,,,,,,,,,,,,5,,,,,,,,,,Task,36,(8/4) + 3,5,,,,,,,,,,,,,,,,,,,1,,,,,,,,,,,,,,,,,,,,,,,"[""5""]",1,[5.515200000000277],0,0,0,35,1,,,,,,,,,,,,,,,,,,,,,,,,,,
,,,,,,,,,,,X V Q F H G B L J M P D K C T S W R N Z,609949e684aaf8787044e7ce,19,Mężczyzna,2022-06-11_09h18.33.819,task,2021.1.4,Win32,74.96251874,6299f149e92ead563fba08ef,62a441afeb3f3ad7f439daba,,,,,,,,,,,,,,,,,,,,,,,,,,,,,,,,,,,,,,,,,,,,,,,,,,,,,,,,,,,,,,,,,,,,,,,,,,,,4,0,4,0,1,,,,,,,,,,,,,,,,,,,,,
,,,,,,,,,,,,609949e684aaf8787044e7ce,19,Mężczyzna,2022-06-11_09h18.33.819,task,2021.1.4,Win32,74.96251874,6299f149e92ead563fba08ef,62a441afeb3f3ad7f439daba,,,,,,,,,,,,,0,,,,,,,,,,Task,25,(10/5) - 2,0,,,,,,,,,,,,,,,,,,,1,,,,,,,,,,,,,,,,,,,,,,,"[""0""]",1,[2.152900000000045],0,0,0,24,1,,,,,,,,,,,,,,,,,,,,,,,,,,
,,,,,,,,,,,X V Q F H G B L J M P D K C T S W R N Z,609949e684aaf8787044e7ce,19,Mężczyzna,2022-06-11_09h18.33.819,task,2021.1.4,Win32,74.96251874,6299f149e92ead563fba08ef,62a441afeb3f3ad7f439daba,,,,,,,,,,,,,,,,,,,,,,,,,,,,,,,,,,,,,,,,,,,,,,,,,,,,,,,,,,,,,,,,,,,,,,,,,,,,5,0,5,0,1,,,,,,,,,,,,,,,,,,,,,
,,,,,,,,,,,,609949e684aaf8787044e7ce,19,Mężczyzna,2022-06-11_09h18.33.819,task,2021.1.4,Win32,74.96251874,6299f149e92ead563fba08ef,62a441afeb3f3ad7f439daba,,,,,,,,,,,,,7,,,,,,,,,,Task,14,(2x2) + 3,7,,,,,,,,,,,,,,,,,,,1,,,,,,,,,,,,,,,,,,,,,,,"[""7""]",1,[4.6370999999999185],0,0,0,13,1,,,,,,,,,,,,,,,,,,,,,,,,,,
,,,,,,,,,,,X V Q F H G B L J M P D K C T S W R N Z,609949e684aaf8787044e7ce,19,Mężczyzna,2022-06-11_09h18.33.819,task,2021.1.4,Win32,74.96251874,6299f149e92ead563fba08ef,62a441afeb3f3ad7f439daba,,,,,,,,,,,,,,,,,,,,,,,,,,,,,,,,,,,,,,,,,,,,,,,,,,,,,,,,,,,,,,,,,,,,,,,,,,,,6,0,6,0,1,,,,,,,,,,,,,,,,,,,,,
,,,,,,,,,,,,609949e684aaf8787044e7ce,19,Mężczyzna,2022-06-11_09h18.33.819,task,2021.1.4,Win32,74.96251874,6299f149e92ead563fba08ef,62a441afeb3f3ad7f439daba,,,,,,,,,,,,,0,,,,,,,,,,Task,25,(10/5) - 2,0,,,,,,,,,,,,,,,,,,,1,,,,,,,,,,,,,,,,,,,,,,,"[""0""]",1,[4.0353999999999814],0,0,0,24,1,,,,,,,,,,,,,,,,,,,,,,,,,,
,,,,,,,,,,,X V Q F H G B L J M P D K C T S W R N Z,609949e684aaf8787044e7ce,19,Mężczyzna,2022-06-11_09h18.33.819,task,2021.1.4,Win32,74.96251874,6299f149e92ead563fba08ef,62a441afeb3f3ad7f439daba,,,,,,,,,,,,,,,,,,,,,,,,,,,,,,,,,,,,,,,,,,,,,,,,,,,,,,,,,,,,,,,,,,,,,,,,,,,,7,0,7,0,1,,,,,,,,,,,,,,,,,,,,,
,,,,,,,,,,,,609949e684aaf8787044e7ce,19,Mężczyzna,2022-06-11_09h18.33.819,task,2021.1.4,Win32,74.96251874,6299f149e92ead563fba08ef,62a441afeb3f3ad7f439daba,,,,,,,,,,,,,6,,,,,,,,,,Task,13,(3x4) - 6,6,,,,,,,,,,,,,,,,,,,1,,,,,,,,,,,,,,,,,,,,,,,"[""6""]",1,[5.979900000000043],0,0,0,12,1,,,,,,,,,,,,,,,,,,,,,,,,,,
,,,,,,,,,,,X V Q F H G B L J M P D K C T S W R N Z,609949e684aaf8787044e7ce,19,Mężczyzna,2022-06-11_09h18.33.819,task,2021.1.4,Win32,74.96251874,6299f149e92ead563fba08ef,62a441afeb3f3ad7f439daba,,,,,,,,,,,,,,,,,,,,,,,,,,,,,,,,,,,,,,,,,,,,,,,,,,,,,,,,,,,,,,,,,,,,,,,,,,,,8,0,8,0,1,,,,,,,,,,,,,,,,,,,,,
