key_resp_15.keys,key_resp_15.rt,key_resp_13.keys,key_resp_13.corr,ranodm_loop.thisRepN,ranodm_loop.thisTrialN,ranodm_loop.thisN,ranodm_loop.thisIndex,ranodm_loop.ran,participant,Wiek*,Płeć,date,expName,psychopyVersion,OS,frameRate,study_id,session,key_resp_13.rt,key_resp_16.keys,key_resp_16.rt,key_resp_4.keys,key_resp_4.rt,next_letter.thisRepN,next_letter.thisTrialN,next_letter.thisN,next_letter.thisIndex,next_letter.ran,letter,simple_recall,key_resp_5.keys,key_resp_5.rt,simple_recall_corr,simple_recall_corrkeys,next_level.thisRepN,next_level.thisTrialN,next_level.thisN,next_level.thisIndex,next_level.ran,key_resp_2.keys,key_resp_2.rt,digit_answer,key_resp.keys,key_resp.corr,key_resp.rt,RT_list,next_equation.thisRepN,next_equation.thisTrialN,next_equation.thisN,next_equation.thisIndex,next_equation.ran,Task,Trial,Problem,Operation_answer,processing_score,sumRT,meanRT,sumdiff,sd,RT,key_resp_3.keys,key_resp_3.rt,repeat_practice.thisRepN,repeat_practice.thisTrialN,repeat_practice.thisN,repeat_practice.thisIndex,repeat_practice.ran,key_resp_6.keys,key_resp_6.rt,key_resp_11.keys,key_resp_11.corr,key_resp_11.rt,operation_correct,repeat_if_wrong_prac.thisRepN,repeat_if_wrong_prac.thisTrialN,repeat_if_wrong_prac.thisN,repeat_if_wrong_prac.thisIndex,repeat_if_wrong_prac.ran,span_size_prac.thisRepN,span_size_prac.thisTrialN,span_size_prac.thisN,span_size_prac.thisIndex,span_size_prac.ran,complex_recall_practice,key_resp_9.keys,key_resp_9.corr,key_resp_9.rt,complex_prac_corr,span_recall_prac.thisRepN,span_recall_prac.thisTrialN,span_recall_prac.thisN,span_recall_prac.thisIndex,span_recall_prac.ran,key_resp_10.keys,key_resp_10.rt,key_resp_7.keys,key_resp_7.corr,key_resp_7.rt,repeat_if_wrong.thisRepN,repeat_if_wrong.thisTrialN,repeat_if_wrong.thisN,repeat_if_wrong.thisIndex,repeat_if_wrong.ran,span_size.thisRepN,span_size.thisTrialN,span_size.thisN,span_size.thisIndex,span_size.ran,complex_recall,key_resp_8.keys,key_resp_8.corr,key_resp_8.rt,complex_recall_corr,complex_recall_corrkeys,span_recall.thisRepN,span_recall.thisTrialN,span_recall.thisN,span_recall.thisIndex,span_recall.ran,key_resp_12.keys,key_resp_12.rt
space,17.3333,,0,0,0,0,0,1,609eecb4c271bc10c8a0ed4d,23,Mężczyzna,2022-06-04_08h40.30.943,task,2021.1.4,Win32,144.0507058,628b806c463b948bc644b84f,629afd2aca11e57e234c6f57,,,,,,,,,,,,,,,,,,,,,,,,,,,,,,,,,,,,,,,,,,,,,,,,,,,,,,,,,,,,,,,,,,,,,,,,,,,,,,,,,,,,,,,,,,,,,,,,,,,,,,,,
,,"[""comma""]",0,1,0,1,0,1,609eecb4c271bc10c8a0ed4d,23,Mężczyzna,2022-06-04_08h40.30.943,task,2021.1.4,Win32,144.0507058,628b806c463b948bc644b84f,629afd2aca11e57e234c6f57,[0.1489000000357521],,,,,,,,,,,,,,,,,,,,,,,,,,,,,,,,,,,,,,,,,,,,,,,,,,,,,,,,,,,,,,,,,,,,,,,,,,,,,,,,,,,,,,,,,,,,,,,,,,,,,,,
,,"[""comma""]",0,2,0,2,0,1,609eecb4c271bc10c8a0ed4d,23,Mężczyzna,2022-06-04_08h40.30.943,task,2021.1.4,Win32,144.0507058,628b806c463b948bc644b84f,629afd2aca11e57e234c6f57,[0.21689999997614962],,,,,,,,,,,,,,,,,,,,,,,,,,,,,,,,,,,,,,,,,,,,,,,,,,,,,,,,,,,,,,,,,,,,,,,,,,,,,,,,,,,,,,,,,,,,,,,,,,,,,,,
,,"[""period""]",0,3,0,3,0,1,609eecb4c271bc10c8a0ed4d,23,Mężczyzna,2022-06-04_08h40.30.943,task,2021.1.4,Win32,144.0507058,628b806c463b948bc644b84f,629afd2aca11e57e234c6f57,[0.2411999999880834],,,,,,,,,,,,,,,,,,,,,,,,,,,,,,,,,,,,,,,,,,,,,,,,,,,,,,,,,,,,,,,,,,,,,,,,,,,,,,,,,,,,,,,,,,,,,,,,,,,,,,,
,,"[""comma""]",0,4,0,4,0,1,609eecb4c271bc10c8a0ed4d,23,Mężczyzna,2022-06-04_08h40.30.943,task,2021.1.4,Win32,144.0507058,628b806c463b948bc644b84f,629afd2aca11e57e234c6f57,[0.2651000000238497],,,,,,,,,,,,,,,,,,,,,,,,,,,,,,,,,,,,,,,,,,,,,,,,,,,,,,,,,,,,,,,,,,,,,,,,,,,,,,,,,,,,,,,,,,,,,,,,,,,,,,,
,,"[""period""]",0,5,0,5,0,1,609eecb4c271bc10c8a0ed4d,23,Mężczyzna,2022-06-04_08h40.30.943,task,2021.1.4,Win32,144.0507058,628b806c463b948bc644b84f,629afd2aca11e57e234c6f57,[0.2673000000119288],,,,,,,,,,,,,,,,,,,,,,,,,,,,,,,,,,,,,,,,,,,,,,,,,,,,,,,,,,,,,,,,,,,,,,,,,,,,,,,,,,,,,,,,,,,,,,,,,,,,,,,
,,"[""comma""]",0,6,0,6,0,1,609eecb4c271bc10c8a0ed4d,23,Mężczyzna,2022-06-04_08h40.30.943,task,2021.1.4,Win32,144.0507058,628b806c463b948bc644b84f,629afd2aca11e57e234c6f57,[0.34610000002383856],,,,,,,,,,,,,,,,,,,,,,,,,,,,,,,,,,,,,,,,,,,,,,,,,,,,,,,,,,,,,,,,,,,,,,,,,,,,,,,,,,,,,,,,,,,,,,,,,,,,,,,
,,"[""period""]",0,7,0,7,0,1,609eecb4c271bc10c8a0ed4d,23,Mężczyzna,2022-06-04_08h40.30.943,task,2021.1.4,Win32,144.0507058,628b806c463b948bc644b84f,629afd2aca11e57e234c6f57,[1.3058000000119279],,,,,,,,,,,,,,,,,,,,,,,,,,,,,,,,,,,,,,,,,,,,,,,,,,,,,,,,,,,,,,,,,,,,,,,,,,,,,,,,,,,,,,,,,,,,,,,,,,,,,,,
,,"[""comma""]",0,8,0,8,0,1,609eecb4c271bc10c8a0ed4d,23,Mężczyzna,2022-06-04_08h40.30.943,task,2021.1.4,Win32,144.0507058,628b806c463b948bc644b84f,629afd2aca11e57e234c6f57,[0.4380000000000024],,,,,,,,,,,,,,,,,,,,,,,,,,,,,,,,,,,,,,,,,,,,,,,,,,,,,,,,,,,,,,,,,,,,,,,,,,,,,,,,,,,,,,,,,,,,,,,,,,,,,,,
,,"[""comma""]",0,9,0,9,0,1,609eecb4c271bc10c8a0ed4d,23,Mężczyzna,2022-06-04_08h40.30.943,task,2021.1.4,Win32,144.0507058,628b806c463b948bc644b84f,629afd2aca11e57e234c6f57,[0.36299999999999955],,,,,,,,,,,,,,,,,,,,,,,,,,,,,,,,,,,,,,,,,,,,,,,,,,,,,,,,,,,,,,,,,,,,,,,,,,,,,,,,,,,,,,,,,,,,,,,,,,,,,,,
,,"[""comma""]",0,10,0,10,0,1,609eecb4c271bc10c8a0ed4d,23,Mężczyzna,2022-06-04_08h40.30.943,task,2021.1.4,Win32,144.0507058,628b806c463b948bc644b84f,629afd2aca11e57e234c6f57,[0.5853000000119266],,,,,,,,,,,,,,,,,,,,,,,,,,,,,,,,,,,,,,,,,,,,,,,,,,,,,,,,,,,,,,,,,,,,,,,,,,,,,,,,,,,,,,,,,,,,,,,,,,,,,,,
,,"[""period""]",0,11,0,11,0,1,609eecb4c271bc10c8a0ed4d,23,Mężczyzna,2022-06-04_08h40.30.943,task,2021.1.4,Win32,144.0507058,628b806c463b948bc644b84f,629afd2aca11e57e234c6f57,[0.027800000011922066],,,,,,,,,,,,,,,,,,,,,,,,,,,,,,,,,,,,,,,,,,,,,,,,,,,,,,,,,,,,,,,,,,,,,,,,,,,,,,,,,,,,,,,,,,,,,,,,,,,,,,,
,,"[""period""]",0,12,0,12,0,1,609eecb4c271bc10c8a0ed4d,23,Mężczyzna,2022-06-04_08h40.30.943,task,2021.1.4,Win32,144.0507058,628b806c463b948bc644b84f,629afd2aca11e57e234c6f57,[0.5347999999523125],,,,,,,,,,,,,,,,,,,,,,,,,,,,,,,,,,,,,,,,,,,,,,,,,,,,,,,,,,,,,,,,,,,,,,,,,,,,,,,,,,,,,,,,,,,,,,,,,,,,,,,
,,"[""period"",""comma""]",0,13,0,13,0,1,609eecb4c271bc10c8a0ed4d,23,Mężczyzna,2022-06-04_08h40.30.943,task,2021.1.4,Win32,144.0507058,628b806c463b948bc644b84f,629afd2aca11e57e234c6f57,"[0.13009999996423005,1.7571999999880745]",,,,,,,,,,,,,,,,,,,,,,,,,,,,,,,,,,,,,,,,,,,,,,,,,,,,,,,,,,,,,,,,,,,,,,,,,,,,,,,,,,,,,,,,,,,,,,,,,,,,,,,
,,,0,14,0,14,0,1,609eecb4c271bc10c8a0ed4d,23,Mężczyzna,2022-06-04_08h40.30.943,task,2021.1.4,Win32,144.0507058,628b806c463b948bc644b84f,629afd2aca11e57e234c6f57,,,,,,,,,,,,,,,,,,,,,,,,,,,,,,,,,,,,,,,,,,,,,,,,,,,,,,,,,,,,,,,,,,,,,,,,,,,,,,,,,,,,,,,,,,,,,,,,,,,,,,,,
,,"[""comma""]",0,15,0,15,0,1,609eecb4c271bc10c8a0ed4d,23,Mężczyzna,2022-06-04_08h40.30.943,task,2021.1.4,Win32,144.0507058,628b806c463b948bc644b84f,629afd2aca11e57e234c6f57,[0.4420000000000073],,,,,,,,,,,,,,,,,,,,,,,,,,,,,,,,,,,,,,,,,,,,,,,,,,,,,,,,,,,,,,,,,,,,,,,,,,,,,,,,,,,,,,,,,,,,,,,,,,,,,,,
,,"[""period""]",0,16,0,16,0,1,609eecb4c271bc10c8a0ed4d,23,Mężczyzna,2022-06-04_08h40.30.943,task,2021.1.4,Win32,144.0507058,628b806c463b948bc644b84f,629afd2aca11e57e234c6f57,[0.6532999999523099],,,,,,,,,,,,,,,,,,,,,,,,,,,,,,,,,,,,,,,,,,,,,,,,,,,,,,,,,,,,,,,,,,,,,,,,,,,,,,,,,,,,,,,,,,,,,,,,,,,,,,,
,,"[""comma""]",0,17,0,17,0,1,609eecb4c271bc10c8a0ed4d,23,Mężczyzna,2022-06-04_08h40.30.943,task,2021.1.4,Win32,144.0507058,628b806c463b948bc644b84f,629afd2aca11e57e234c6f57,[0.31409999996424176],,,,,,,,,,,,,,,,,,,,,,,,,,,,,,,,,,,,,,,,,,,,,,,,,,,,,,,,,,,,,,,,,,,,,,,,,,,,,,,,,,,,,,,,,,,,,,,,,,,,,,,
,,"[""comma""]",0,18,0,18,0,1,609eecb4c271bc10c8a0ed4d,23,Mężczyzna,2022-06-04_08h40.30.943,task,2021.1.4,Win32,144.0507058,628b806c463b948bc644b84f,629afd2aca11e57e234c6f57,[0.48109999996422914],,,,,,,,,,,,,,,,,,,,,,,,,,,,,,,,,,,,,,,,,,,,,,,,,,,,,,,,,,,,,,,,,,,,,,,,,,,,,,,,,,,,,,,,,,,,,,,,,,,,,,,
,,"[""period"",""comma""]",0,19,0,19,0,1,609eecb4c271bc10c8a0ed4d,23,Mężczyzna,2022-06-04_08h40.30.943,task,2021.1.4,Win32,144.0507058,628b806c463b948bc644b84f,629afd2aca11e57e234c6f57,"[0.2189999999999941,1.858100000023839]",,,,,,,,,,,,,,,,,,,,,,,,,,,,,,,,,,,,,,,,,,,,,,,,,,,,,,,,,,,,,,,,,,,,,,,,,,,,,,,,,,,,,,,,,,,,,,,,,,,,,,,
,,,0,20,0,20,0,1,609eecb4c271bc10c8a0ed4d,23,Mężczyzna,2022-06-04_08h40.30.943,task,2021.1.4,Win32,144.0507058,628b806c463b948bc644b84f,629afd2aca11e57e234c6f57,,,,,,,,,,,,,,,,,,,,,,,,,,,,,,,,,,,,,,,,,,,,,,,,,,,,,,,,,,,,,,,,,,,,,,,,,,,,,,,,,,,,,,,,,,,,,,,,,,,,,,,,
,,"[""period""]",0,21,0,21,0,1,609eecb4c271bc10c8a0ed4d,23,Mężczyzna,2022-06-04_08h40.30.943,task,2021.1.4,Win32,144.0507058,628b806c463b948bc644b84f,629afd2aca11e57e234c6f57,[0.25619999998808396],,,,,,,,,,,,,,,,,,,,,,,,,,,,,,,,,,,,,,,,,,,,,,,,,,,,,,,,,,,,,,,,,,,,,,,,,,,,,,,,,,,,,,,,,,,,,,,,,,,,,,,
,,"[""comma""]",0,22,0,22,0,1,609eecb4c271bc10c8a0ed4d,23,Mężczyzna,2022-06-04_08h40.30.943,task,2021.1.4,Win32,144.0507058,628b806c463b948bc644b84f,629afd2aca11e57e234c6f57,[0.36829999995231333],,,,,,,,,,,,,,,,,,,,,,,,,,,,,,,,,,,,,,,,,,,,,,,,,,,,,,,,,,,,,,,,,,,,,,,,,,,,,,,,,,,,,,,,,,,,,,,,,,,,,,,
,,"[""period""]",0,23,0,23,0,1,609eecb4c271bc10c8a0ed4d,23,Mężczyzna,2022-06-04_08h40.30.943,task,2021.1.4,Win32,144.0507058,628b806c463b948bc644b84f,629afd2aca11e57e234c6f57,[0.24869999998807657],,,,,,,,,,,,,,,,,,,,,,,,,,,,,,,,,,,,,,,,,,,,,,,,,,,,,,,,,,,,,,,,,,,,,,,,,,,,,,,,,,,,,,,,,,,,,,,,,,,,,,,
,,"[""period""]",0,24,0,24,0,1,609eecb4c271bc10c8a0ed4d,23,Mężczyzna,2022-06-04_08h40.30.943,task,2021.1.4,Win32,144.0507058,628b806c463b948bc644b84f,629afd2aca11e57e234c6f57,[0.2511999999880885],,,,,,,,,,,,,,,,,,,,,,,,,,,,,,,,,,,,,,,,,,,,,,,,,,,,,,,,,,,,,,,,,,,,,,,,,,,,,,,,,,,,,,,,,,,,,,,,,,,,,,,
,,"[""comma""]",0,25,0,25,0,1,609eecb4c271bc10c8a0ed4d,23,Mężczyzna,2022-06-04_08h40.30.943,task,2021.1.4,Win32,144.0507058,628b806c463b948bc644b84f,629afd2aca11e57e234c6f57,[0.3521999999880876],,,,,,,,,,,,,,,,,,,,,,,,,,,,,,,,,,,,,,,,,,,,,,,,,,,,,,,,,,,,,,,,,,,,,,,,,,,,,,,,,,,,,,,,,,,,,,,,,,,,,,,
,,"[""period""]",0,26,0,26,0,1,609eecb4c271bc10c8a0ed4d,23,Mężczyzna,2022-06-04_08h40.30.943,task,2021.1.4,Win32,144.0507058,628b806c463b948bc644b84f,629afd2aca11e57e234c6f57,[0.2663999999761586],,,,,,,,,,,,,,,,,,,,,,,,,,,,,,,,,,,,,,,,,,,,,,,,,,,,,,,,,,,,,,,,,,,,,,,,,,,,,,,,,,,,,,,,,,,,,,,,,,,,,,,
,,"[""period""]",0,27,0,27,0,1,609eecb4c271bc10c8a0ed4d,23,Mężczyzna,2022-06-04_08h40.30.943,task,2021.1.4,Win32,144.0507058,628b806c463b948bc644b84f,629afd2aca11e57e234c6f57,[0.25710000002385414],,,,,,,,,,,,,,,,,,,,,,,,,,,,,,,,,,,,,,,,,,,,,,,,,,,,,,,,,,,,,,,,,,,,,,,,,,,,,,,,,,,,,,,,,,,,,,,,,,,,,,,
,,"[""comma"",""period""]",0,28,0,28,0,1,609eecb4c271bc10c8a0ed4d,23,Mężczyzna,2022-06-04_08h40.30.943,task,2021.1.4,Win32,144.0507058,628b806c463b948bc644b84f,629afd2aca11e57e234c6f57,"[0.23739999997616223,1.9201999999880854]",,,,,,,,,,,,,,,,,,,,,,,,,,,,,,,,,,,,,,,,,,,,,,,,,,,,,,,,,,,,,,,,,,,,,,,,,,,,,,,,,,,,,,,,,,,,,,,,,,,,,,,
,,,0,29,0,29,0,1,609eecb4c271bc10c8a0ed4d,23,Mężczyzna,2022-06-04_08h40.30.943,task,2021.1.4,Win32,144.0507058,628b806c463b948bc644b84f,629afd2aca11e57e234c6f57,,,,,,,,,,,,,,,,,,,,,,,,,,,,,,,,,,,,,,,,,,,,,,,,,,,,,,,,,,,,,,,,,,,,,,,,,,,,,,,,,,,,,,,,,,,,,,,,,,,,,,,,
,,"[""period""]",0,30,0,30,0,1,609eecb4c271bc10c8a0ed4d,23,Mężczyzna,2022-06-04_08h40.30.943,task,2021.1.4,Win32,144.0507058,628b806c463b948bc644b84f,629afd2aca11e57e234c6f57,[0.29630000001192514],,,,,,,,,,,,,,,,,,,,,,,,,,,,,,,,,,,,,,,,,,,,,,,,,,,,,,,,,,,,,,,,,,,,,,,,,,,,,,,,,,,,,,,,,,,,,,,,,,,,,,,
,,"[""period""]",0,31,0,31,0,1,609eecb4c271bc10c8a0ed4d,23,Mężczyzna,2022-06-04_08h40.30.943,task,2021.1.4,Win32,144.0507058,628b806c463b948bc644b84f,629afd2aca11e57e234c6f57,[0.35319999998807816],,,,,,,,,,,,,,,,,,,,,,,,,,,,,,,,,,,,,,,,,,,,,,,,,,,,,,,,,,,,,,,,,,,,,,,,,,,,,,,,,,,,,,,,,,,,,,,,,,,,,,,
,,"[""comma""]",0,32,0,32,0,1,609eecb4c271bc10c8a0ed4d,23,Mężczyzna,2022-06-04_08h40.30.943,task,2021.1.4,Win32,144.0507058,628b806c463b948bc644b84f,629afd2aca11e57e234c6f57,[0.9933000000119421],,,,,,,,,,,,,,,,,,,,,,,,,,,,,,,,,,,,,,,,,,,,,,,,,,,,,,,,,,,,,,,,,,,,,,,,,,,,,,,,,,,,,,,,,,,,,,,,,,,,,,,
,,"[""period""]",0,33,0,33,0,1,609eecb4c271bc10c8a0ed4d,23,Mężczyzna,2022-06-04_08h40.30.943,task,2021.1.4,Win32,144.0507058,628b806c463b948bc644b84f,629afd2aca11e57e234c6f57,[0.28050000000001774],,,,,,,,,,,,,,,,,,,,,,,,,,,,,,,,,,,,,,,,,,,,,,,,,,,,,,,,,,,,,,,,,,,,,,,,,,,,,,,,,,,,,,,,,,,,,,,,,,,,,,,
,,"[""comma""]",0,34,0,34,0,1,609eecb4c271bc10c8a0ed4d,23,Mężczyzna,2022-06-04_08h40.30.943,task,2021.1.4,Win32,144.0507058,628b806c463b948bc644b84f,629afd2aca11e57e234c6f57,[0.260300000011938],,,,,,,,,,,,,,,,,,,,,,,,,,,,,,,,,,,,,,,,,,,,,,,,,,,,,,,,,,,,,,,,,,,,,,,,,,,,,,,,,,,,,,,,,,,,,,,,,,,,,,,
,,"[""period""]",0,35,0,35,0,1,609eecb4c271bc10c8a0ed4d,23,Mężczyzna,2022-06-04_08h40.30.943,task,2021.1.4,Win32,144.0507058,628b806c463b948bc644b84f,629afd2aca11e57e234c6f57,[0.2845999999642288],,,,,,,,,,,,,,,,,,,,,,,,,,,,,,,,,,,,,,,,,,,,,,,,,,,,,,,,,,,,,,,,,,,,,,,,,,,,,,,,,,,,,,,,,,,,,,,,,,,,,,,
,,"[""period""]",0,36,0,36,0,1,609eecb4c271bc10c8a0ed4d,23,Mężczyzna,2022-06-04_08h40.30.943,task,2021.1.4,Win32,144.0507058,628b806c463b948bc644b84f,629afd2aca11e57e234c6f57,[0.3410000000000082],,,,,,,,,,,,,,,,,,,,,,,,,,,,,,,,,,,,,,,,,,,,,,,,,,,,,,,,,,,,,,,,,,,,,,,,,,,,,,,,,,,,,,,,,,,,,,,,,,,,,,,
,,"[""comma""]",0,37,0,37,0,1,609eecb4c271bc10c8a0ed4d,23,Mężczyzna,2022-06-04_08h40.30.943,task,2021.1.4,Win32,144.0507058,628b806c463b948bc644b84f,629afd2aca11e57e234c6f57,[0.2551000000238446],,,,,,,,,,,,,,,,,,,,,,,,,,,,,,,,,,,,,,,,,,,,,,,,,,,,,,,,,,,,,,,,,,,,,,,,,,,,,,,,,,,,,,,,,,,,,,,,,,,,,,,
,,"[""period"",""period""]",0,38,0,38,0,1,609eecb4c271bc10c8a0ed4d,23,Mężczyzna,2022-06-04_08h40.30.943,task,2021.1.4,Win32,144.0507058,628b806c463b948bc644b84f,629afd2aca11e57e234c6f57,"[0.2462000000477076,1.9294000000357698]",,,,,,,,,,,,,,,,,,,,,,,,,,,,,,,,,,,,,,,,,,,,,,,,,,,,,,,,,,,,,,,,,,,,,,,,,,,,,,,,,,,,,,,,,,,,,,,,,,,,,,,
,,,0,39,0,39,0,1,609eecb4c271bc10c8a0ed4d,23,Mężczyzna,2022-06-04_08h40.30.943,task,2021.1.4,Win32,144.0507058,628b806c463b948bc644b84f,629afd2aca11e57e234c6f57,,,,,,,,,,,,,,,,,,,,,,,,,,,,,,,,,,,,,,,,,,,,,,,,,,,,,,,,,,,,,,,,,,,,,,,,,,,,,,,,,,,,,,,,,,,,,,,,,,,,,,,,
,,"[""comma""]",0,40,0,40,0,1,609eecb4c271bc10c8a0ed4d,23,Mężczyzna,2022-06-04_08h40.30.943,task,2021.1.4,Win32,144.0507058,628b806c463b948bc644b84f,629afd2aca11e57e234c6f57,[0.10710000002384845],,,,,,,,,,,,,,,,,,,,,,,,,,,,,,,,,,,,,,,,,,,,,,,,,,,,,,,,,,,,,,,,,,,,,,,,,,,,,,,,,,,,,,,,,,,,,,,,,,,,,,,
,,"[""period""]",0,41,0,41,0,1,609eecb4c271bc10c8a0ed4d,23,Mężczyzna,2022-06-04_08h40.30.943,task,2021.1.4,Win32,144.0507058,628b806c463b948bc644b84f,629afd2aca11e57e234c6f57,[0.13179999995230673],,,,,,,,,,,,,,,,,,,,,,,,,,,,,,,,,,,,,,,,,,,,,,,,,,,,,,,,,,,,,,,,,,,,,,,,,,,,,,,,,,,,,,,,,,,,,,,,,,,,,,,
,,"[""period""]",0,42,0,42,0,1,609eecb4c271bc10c8a0ed4d,23,Mężczyzna,2022-06-04_08h40.30.943,task,2021.1.4,Win32,144.0507058,628b806c463b948bc644b84f,629afd2aca11e57e234c6f57,[0.2762000000477087],,,,,,,,,,,,,,,,,,,,,,,,,,,,,,,,,,,,,,,,,,,,,,,,,,,,,,,,,,,,,,,,,,,,,,,,,,,,,,,,,,,,,,,,,,,,,,,,,,,,,,,
,,"[""period""]",0,43,0,43,0,1,609eecb4c271bc10c8a0ed4d,23,Mężczyzna,2022-06-04_08h40.30.943,task,2021.1.4,Win32,144.0507058,628b806c463b948bc644b84f,629afd2aca11e57e234c6f57,[0.28920000004768553],,,,,,,,,,,,,,,,,,,,,,,,,,,,,,,,,,,,,,,,,,,,,,,,,,,,,,,,,,,,,,,,,,,,,,,,,,,,,,,,,,,,,,,,,,,,,,,,,,,,,,,
,,"[""comma""]",0,44,0,44,0,1,609eecb4c271bc10c8a0ed4d,23,Mężczyzna,2022-06-04_08h40.30.943,task,2021.1.4,Win32,144.0507058,628b806c463b948bc644b84f,629afd2aca11e57e234c6f57,[0.29170000004768326],,,,,,,,,,,,,,,,,,,,,,,,,,,,,,,,,,,,,,,,,,,,,,,,,,,,,,,,,,,,,,,,,,,,,,,,,,,,,,,,,,,,,,,,,,,,,,,,,,,,,,,
,,"[""period""]",0,45,0,45,0,1,609eecb4c271bc10c8a0ed4d,23,Mężczyzna,2022-06-04_08h40.30.943,task,2021.1.4,Win32,144.0507058,628b806c463b948bc644b84f,629afd2aca11e57e234c6f57,[0.2931999999880759],,,,,,,,,,,,,,,,,,,,,,,,,,,,,,,,,,,,,,,,,,,,,,,,,,,,,,,,,,,,,,,,,,,,,,,,,,,,,,,,,,,,,,,,,,,,,,,,,,,,,,,
,,"[""comma""]",0,46,0,46,0,1,609eecb4c271bc10c8a0ed4d,23,Mężczyzna,2022-06-04_08h40.30.943,task,2021.1.4,Win32,144.0507058,628b806c463b948bc644b84f,629afd2aca11e57e234c6f57,[0.27310000002384527],,,,,,,,,,,,,,,,,,,,,,,,,,,,,,,,,,,,,,,,,,,,,,,,,,,,,,,,,,,,,,,,,,,,,,,,,,,,,,,,,,,,,,,,,,,,,,,,,,,,,,,
,,"[""period""]",0,47,0,47,0,1,609eecb4c271bc10c8a0ed4d,23,Mężczyzna,2022-06-04_08h40.30.943,task,2021.1.4,Win32,144.0507058,628b806c463b948bc644b84f,629afd2aca11e57e234c6f57,[0.19810000002385664],,,,,,,,,,,,,,,,,,,,,,,,,,,,,,,,,,,,,,,,,,,,,,,,,,,,,,,,,,,,,,,,,,,,,,,,,,,,,,,,,,,,,,,,,,,,,,,,,,,,,,,
,,"[""period"",""comma""]",0,48,0,48,0,1,609eecb4c271bc10c8a0ed4d,23,Mężczyzna,2022-06-04_08h40.30.943,task,2021.1.4,Win32,144.0507058,628b806c463b948bc644b84f,629afd2aca11e57e234c6f57,"[0.08039999997615155,1.916699999988083]",,,,,,,,,,,,,,,,,,,,,,,,,,,,,,,,,,,,,,,,,,,,,,,,,,,,,,,,,,,,,,,,,,,,,,,,,,,,,,,,,,,,,,,,,,,,,,,,,,,,,,,
,,"[""comma""]",0,49,0,49,0,1,609eecb4c271bc10c8a0ed4d,23,Mężczyzna,2022-06-04_08h40.30.943,task,2021.1.4,Win32,144.0507058,628b806c463b948bc644b84f,629afd2aca11e57e234c6f57,[1.9294000000357698],,,,,,,,,,,,,,,,,,,,,,,,,,,,,,,,,,,,,,,,,,,,,,,,,,,,,,,,,,,,,,,,,,,,,,,,,,,,,,,,,,,,,,,,,,,,,,,,,,,,,,,
,,"[""period""]",0,50,0,50,0,1,609eecb4c271bc10c8a0ed4d,23,Mężczyzna,2022-06-04_08h40.30.943,task,2021.1.4,Win32,144.0507058,628b806c463b948bc644b84f,629afd2aca11e57e234c6f57,[1.965300000011922],,,,,,,,,,,,,,,,,,,,,,,,,,,,,,,,,,,,,,,,,,,,,,,,,,,,,,,,,,,,,,,,,,,,,,,,,,,,,,,,,,,,,,,,,,,,,,,,,,,,,,,
,,"[""period""]",0,51,0,51,0,1,609eecb4c271bc10c8a0ed4d,23,Mężczyzna,2022-06-04_08h40.30.943,task,2021.1.4,Win32,144.0507058,628b806c463b948bc644b84f,629afd2aca11e57e234c6f57,[1.7915999999642338],,,,,,,,,,,,,,,,,,,,,,,,,,,,,,,,,,,,,,,,,,,,,,,,,,,,,,,,,,,,,,,,,,,,,,,,,,,,,,,,,,,,,,,,,,,,,,,,,,,,,,,
,,,0,52,0,52,0,1,609eecb4c271bc10c8a0ed4d,23,Mężczyzna,2022-06-04_08h40.30.943,task,2021.1.4,Win32,144.0507058,628b806c463b948bc644b84f,629afd2aca11e57e234c6f57,,,,,,,,,,,,,,,,,,,,,,,,,,,,,,,,,,,,,,,,,,,,,,,,,,,,,,,,,,,,,,,,,,,,,,,,,,,,,,,,,,,,,,,,,,,,,,,,,,,,,,,,
,,"[""period""]",0,53,0,53,0,1,609eecb4c271bc10c8a0ed4d,23,Mężczyzna,2022-06-04_08h40.30.943,task,2021.1.4,Win32,144.0507058,628b806c463b948bc644b84f,629afd2aca11e57e234c6f57,[0.27780000001192207],,,,,,,,,,,,,,,,,,,,,,,,,,,,,,,,,,,,,,,,,,,,,,,,,,,,,,,,,,,,,,,,,,,,,,,,,,,,,,,,,,,,,,,,,,,,,,,,,,,,,,,
,,"[""comma""]",0,54,0,54,0,1,609eecb4c271bc10c8a0ed4d,23,Mężczyzna,2022-06-04_08h40.30.943,task,2021.1.4,Win32,144.0507058,628b806c463b948bc644b84f,629afd2aca11e57e234c6f57,[0.2791999999880659],,,,,,,,,,,,,,,,,,,,,,,,,,,,,,,,,,,,,,,,,,,,,,,,,,,,,,,,,,,,,,,,,,,,,,,,,,,,,,,,,,,,,,,,,,,,,,,,,,,,,,,
,,"[""period""]",0,55,0,55,0,1,609eecb4c271bc10c8a0ed4d,23,Mężczyzna,2022-06-04_08h40.30.943,task,2021.1.4,Win32,144.0507058,628b806c463b948bc644b84f,629afd2aca11e57e234c6f57,[0.30349999999998545],,,,,,,,,,,,,,,,,,,,,,,,,,,,,,,,,,,,,,,,,,,,,,,,,,,,,,,,,,,,,,,,,,,,,,,,,,,,,,,,,,,,,,,,,,,,,,,,,,,,,,,
,,"[""comma""]",0,56,0,56,0,1,609eecb4c271bc10c8a0ed4d,23,Mężczyzna,2022-06-04_08h40.30.943,task,2021.1.4,Win32,144.0507058,628b806c463b948bc644b84f,629afd2aca11e57e234c6f57,[0.2943000000119298],,,,,,,,,,,,,,,,,,,,,,,,,,,,,,,,,,,,,,,,,,,,,,,,,,,,,,,,,,,,,,,,,,,,,,,,,,,,,,,,,,,,,,,,,,,,,,,,,,,,,,,
,,"[""comma""]",0,57,0,57,0,1,609eecb4c271bc10c8a0ed4d,23,Mężczyzna,2022-06-04_08h40.30.943,task,2021.1.4,Win32,144.0507058,628b806c463b948bc644b84f,629afd2aca11e57e234c6f57,[0.25219999998807907],,,,,,,,,,,,,,,,,,,,,,,,,,,,,,,,,,,,,,,,,,,,,,,,,,,,,,,,,,,,,,,,,,,,,,,,,,,,,,,,,,,,,,,,,,,,,,,,,,,,,,,
,,"[""period""]",0,58,0,58,0,1,609eecb4c271bc10c8a0ed4d,23,Mężczyzna,2022-06-04_08h40.30.943,task,2021.1.4,Win32,144.0507058,628b806c463b948bc644b84f,629afd2aca11e57e234c6f57,[0.12230000001190433],,,,,,,,,,,,,,,,,,,,,,,,,,,,,,,,,,,,,,,,,,,,,,,,,,,,,,,,,,,,,,,,,,,,,,,,,,,,,,,,,,,,,,,,,,,,,,,,,,,,,,,
,,"[""period""]",0,59,0,59,0,1,609eecb4c271bc10c8a0ed4d,23,Mężczyzna,2022-06-04_08h40.30.943,task,2021.1.4,Win32,144.0507058,628b806c463b948bc644b84f,629afd2aca11e57e234c6f57,[0.20139999997616087],,,,,,,,,,,,,,,,,,,,,,,,,,,,,,,,,,,,,,,,,,,,,,,,,,,,,,,,,,,,,,,,,,,,,,,,,,,,,,,,,,,,,,,,,,,,,,,,,,,,,,,
,,"[""comma""]",0,60,0,60,0,1,609eecb4c271bc10c8a0ed4d,23,Mężczyzna,2022-06-04_08h40.30.943,task,2021.1.4,Win32,144.0507058,628b806c463b948bc644b84f,629afd2aca11e57e234c6f57,[0.1812999999523015],,,,,,,,,,,,,,,,,,,,,,,,,,,,,,,,,,,,,,,,,,,,,,,,,,,,,,,,,,,,,,,,,,,,,,,,,,,,,,,,,,,,,,,,,,,,,,,,,,,,,,,
,,"[""period"",""period""]",0,61,0,61,0,1,609eecb4c271bc10c8a0ed4d,23,Mężczyzna,2022-06-04_08h40.30.943,task,2021.1.4,Win32,144.0507058,628b806c463b948bc644b84f,629afd2aca11e57e234c6f57,"[0.007399999976144045,1.932199999988086]",,,,,,,,,,,,,,,,,,,,,,,,,,,,,,,,,,,,,,,,,,,,,,,,,,,,,,,,,,,,,,,,,,,,,,,,,,,,,,,,,,,,,,,,,,,,,,,,,,,,,,,
,,"[""comma""]",0,62,0,62,0,1,609eecb4c271bc10c8a0ed4d,23,Mężczyzna,2022-06-04_08h40.30.943,task,2021.1.4,Win32,144.0507058,628b806c463b948bc644b84f,629afd2aca11e57e234c6f57,[1.989300000011923],,,,,,,,,,,,,,,,,,,,,,,,,,,,,,,,,,,,,,,,,,,,,,,,,,,,,,,,,,,,,,,,,,,,,,,,,,,,,,,,,,,,,,,,,,,,,,,,,,,,,,,
,,,0,63,0,63,0,1,609eecb4c271bc10c8a0ed4d,23,Mężczyzna,2022-06-04_08h40.30.943,task,2021.1.4,Win32,144.0507058,628b806c463b948bc644b84f,629afd2aca11e57e234c6f57,,,,,,,,,,,,,,,,,,,,,,,,,,,,,,,,,,,,,,,,,,,,,,,,,,,,,,,,,,,,,,,,,,,,,,,,,,,,,,,,,,,,,,,,,,,,,,,,,,,,,,,,
,,"[""period""]",0,64,0,64,0,1,609eecb4c271bc10c8a0ed4d,23,Mężczyzna,2022-06-04_08h40.30.943,task,2021.1.4,Win32,144.0507058,628b806c463b948bc644b84f,629afd2aca11e57e234c6f57,[0.014199999988079526],,,,,,,,,,,,,,,,,,,,,,,,,,,,,,,,,,,,,,,,,,,,,,,,,,,,,,,,,,,,,,,,,,,,,,,,,,,,,,,,,,,,,,,,,,,,,,,,,,,,,,,
,,"[""comma""]",0,65,0,65,0,1,609eecb4c271bc10c8a0ed4d,23,Mężczyzna,2022-06-04_08h40.30.943,task,2021.1.4,Win32,144.0507058,628b806c463b948bc644b84f,629afd2aca11e57e234c6f57,[0.14689999997617065],,,,,,,,,,,,,,,,,,,,,,,,,,,,,,,,,,,,,,,,,,,,,,,,,,,,,,,,,,,,,,,,,,,,,,,,,,,,,,,,,,,,,,,,,,,,,,,,,,,,,,,
,,"[""period""]",0,66,0,66,0,1,609eecb4c271bc10c8a0ed4d,23,Mężczyzna,2022-06-04_08h40.30.943,task,2021.1.4,Win32,144.0507058,628b806c463b948bc644b84f,629afd2aca11e57e234c6f57,[0.017500000000012506],,,,,,,,,,,,,,,,,,,,,,,,,,,,,,,,,,,,,,,,,,,,,,,,,,,,,,,,,,,,,,,,,,,,,,,,,,,,,,,,,,,,,,,,,,,,,,,,,,,,,,,
,,"[""comma""]",0,67,0,67,0,1,609eecb4c271bc10c8a0ed4d,23,Mężczyzna,2022-06-04_08h40.30.943,task,2021.1.4,Win32,144.0507058,628b806c463b948bc644b84f,629afd2aca11e57e234c6f57,[0.06319999998808612],,,,,,,,,,,,,,,,,,,,,,,,,,,,,,,,,,,,,,,,,,,,,,,,,,,,,,,,,,,,,,,,,,,,,,,,,,,,,,,,,,,,,,,,,,,,,,,,,,,,,,,
,,"[""period""]",0,68,0,68,0,1,609eecb4c271bc10c8a0ed4d,23,Mężczyzna,2022-06-04_08h40.30.943,task,2021.1.4,Win32,144.0507058,628b806c463b948bc644b84f,629afd2aca11e57e234c6f57,[0.09839999997615223],,,,,,,,,,,,,,,,,,,,,,,,,,,,,,,,,,,,,,,,,,,,,,,,,,,,,,,,,,,,,,,,,,,,,,,,,,,,,,,,,,,,,,,,,,,,,,,,,,,,,,,
,,"[""period""]",0,69,0,69,0,1,609eecb4c271bc10c8a0ed4d,23,Mężczyzna,2022-06-04_08h40.30.943,task,2021.1.4,Win32,144.0507058,628b806c463b948bc644b84f,629afd2aca11e57e234c6f57,[0.36439999997614336],,,,,,,,,,,,,,,,,,,,,,,,,,,,,,,,,,,,,,,,,,,,,,,,,,,,,,,,,,,,,,,,,,,,,,,,,,,,,,,,,,,,,,,,,,,,,,,,,,,,,,,
,,"[""comma""]",0,70,0,70,0,1,609eecb4c271bc10c8a0ed4d,23,Mężczyzna,2022-06-04_08h40.30.943,task,2021.1.4,Win32,144.0507058,628b806c463b948bc644b84f,629afd2aca11e57e234c6f57,[0.2570999999642254],,,,,,,,,,,,,,,,,,,,,,,,,,,,,,,,,,,,,,,,,,,,,,,,,,,,,,,,,,,,,,,,,,,,,,,,,,,,,,,,,,,,,,,,,,,,,,,,,,,,,,,
,,"[""period""]",0,71,0,71,0,1,609eecb4c271bc10c8a0ed4d,23,Mężczyzna,2022-06-04_08h40.30.943,task,2021.1.4,Win32,144.0507058,628b806c463b948bc644b84f,629afd2aca11e57e234c6f57,[0.18149999999999977],,,,,,,,,,,,,,,,,,,,,,,,,,,,,,,,,,,,,,,,,,,,,,,,,,,,,,,,,,,,,,,,,,,,,,,,,,,,,,,,,,,,,,,,,,,,,,,,,,,,,,,
,,"[""period""]",0,72,0,72,0,1,609eecb4c271bc10c8a0ed4d,23,Mężczyzna,2022-06-04_08h40.30.943,task,2021.1.4,Win32,144.0507058,628b806c463b948bc644b84f,629afd2aca11e57e234c6f57,[0.10629999995231287],,,,,,,,,,,,,,,,,,,,,,,,,,,,,,,,,,,,,,,,,,,,,,,,,,,,,,,,,,,,,,,,,,,,,,,,,,,,,,,,,,,,,,,,,,,,,,,,,,,,,,,
,,"[""comma""]",0,73,0,73,0,1,609eecb4c271bc10c8a0ed4d,23,Mężczyzna,2022-06-04_08h40.30.943,task,2021.1.4,Win32,144.0507058,628b806c463b948bc644b84f,629afd2aca11e57e234c6f57,[0.0422999999522915],,,,,,,,,,,,,,,,,,,,,,,,,,,,,,,,,,,,,,,,,,,,,,,,,,,,,,,,,,,,,,,,,,,,,,,,,,,,,,,,,,,,,,,,,,,,,,,,,,,,,,,
,,"[""comma""]",0,74,0,74,0,1,609eecb4c271bc10c8a0ed4d,23,Mężczyzna,2022-06-04_08h40.30.943,task,2021.1.4,Win32,144.0507058,628b806c463b948bc644b84f,629afd2aca11e57e234c6f57,[0.41849999999999454],,,,,,,,,,,,,,,,,,,,,,,,,,,,,,,,,,,,,,,,,,,,,,,,,,,,,,,,,,,,,,,,,,,,,,,,,,,,,,,,,,,,,,,,,,,,,,,,,,,,,,,
,,"[""period""]",0,75,0,75,0,1,609eecb4c271bc10c8a0ed4d,23,Mężczyzna,2022-06-04_08h40.30.943,task,2021.1.4,Win32,144.0507058,628b806c463b948bc644b84f,629afd2aca11e57e234c6f57,[0.24429999995228968],,,,,,,,,,,,,,,,,,,,,,,,,,,,,,,,,,,,,,,,,,,,,,,,,,,,,,,,,,,,,,,,,,,,,,,,,,,,,,,,,,,,,,,,,,,,,,,,,,,,,,,
,,"[""period"",""period""]",0,76,0,76,0,1,609eecb4c271bc10c8a0ed4d,23,Mężczyzna,2022-06-04_08h40.30.943,task,2021.1.4,Win32,144.0507058,628b806c463b948bc644b84f,629afd2aca11e57e234c6f57,"[0.05939999997616496,0.6536000000238289]",,,,,,,,,,,,,,,,,,,,,,,,,,,,,,,,,,,,,,,,,,,,,,,,,,,,,,,,,,,,,,,,,,,,,,,,,,,,,,,,,,,,,,,,,,,,,,,,,,,,,,,
,,"[""comma""]",0,77,0,77,0,1,609eecb4c271bc10c8a0ed4d,23,Mężczyzna,2022-06-04_08h40.30.943,task,2021.1.4,Win32,144.0507058,628b806c463b948bc644b84f,629afd2aca11e57e234c6f57,[0.226299999952289],,,,,,,,,,,,,,,,,,,,,,,,,,,,,,,,,,,,,,,,,,,,,,,,,,,,,,,,,,,,,,,,,,,,,,,,,,,,,,,,,,,,,,,,,,,,,,,,,,,,,,,
,,"[""period""]",0,78,0,78,0,1,609eecb4c271bc10c8a0ed4d,23,Mężczyzna,2022-06-04_08h40.30.943,task,2021.1.4,Win32,144.0507058,628b806c463b948bc644b84f,629afd2aca11e57e234c6f57,[0.37139999997614837],,,,,,,,,,,,,,,,,,,,,,,,,,,,,,,,,,,,,,,,,,,,,,,,,,,,,,,,,,,,,,,,,,,,,,,,,,,,,,,,,,,,,,,,,,,,,,,,,,,,,,,
,,"[""comma""]",0,79,0,79,0,1,609eecb4c271bc10c8a0ed4d,23,Mężczyzna,2022-06-04_08h40.30.943,task,2021.1.4,Win32,144.0507058,628b806c463b948bc644b84f,629afd2aca11e57e234c6f57,[0.03230000001192934],,,,,,,,,,,,,,,,,,,,,,,,,,,,,,,,,,,,,,,,,,,,,,,,,,,,,,,,,,,,,,,,,,,,,,,,,,,,,,,,,,,,,,,,,,,,,,,,,,,,,,,
,,"[""comma""]",0,80,0,80,0,1,609eecb4c271bc10c8a0ed4d,23,Mężczyzna,2022-06-04_08h40.30.943,task,2021.1.4,Win32,144.0507058,628b806c463b948bc644b84f,629afd2aca11e57e234c6f57,[0.012399999976139497],,,,,,,,,,,,,,,,,,,,,,,,,,,,,,,,,,,,,,,,,,,,,,,,,,,,,,,,,,,,,,,,,,,,,,,,,,,,,,,,,,,,,,,,,,,,,,,,,,,,,,,
,,"[""comma""]",0,81,0,81,0,1,609eecb4c271bc10c8a0ed4d,23,Mężczyzna,2022-06-04_08h40.30.943,task,2021.1.4,Win32,144.0507058,628b806c463b948bc644b84f,629afd2aca11e57e234c6f57,[0.20139999997616087],,,,,,,,,,,,,,,,,,,,,,,,,,,,,,,,,,,,,,,,,,,,,,,,,,,,,,,,,,,,,,,,,,,,,,,,,,,,,,,,,,,,,,,,,,,,,,,,,,,,,,,
,,"[""period""]",0,82,0,82,0,1,609eecb4c271bc10c8a0ed4d,23,Mężczyzna,2022-06-04_08h40.30.943,task,2021.1.4,Win32,144.0507058,628b806c463b948bc644b84f,629afd2aca11e57e234c6f57,[0.22539999997613336],,,,,,,,,,,,,,,,,,,,,,,,,,,,,,,,,,,,,,,,,,,,,,,,,,,,,,,,,,,,,,,,,,,,,,,,,,,,,,,,,,,,,,,,,,,,,,,,,,,,,,,
,,"[""period"",""period""]",0,83,0,83,0,1,609eecb4c271bc10c8a0ed4d,23,Mężczyzna,2022-06-04_08h40.30.943,task,2021.1.4,Win32,144.0507058,628b806c463b948bc644b84f,629afd2aca11e57e234c6f57,"[0.28239999997614973,1.646399999976154]",,,,,,,,,,,,,,,,,,,,,,,,,,,,,,,,,,,,,,,,,,,,,,,,,,,,,,,,,,,,,,,,,,,,,,,,,,,,,,,,,,,,,,,,,,,,,,,,,,,,,,,
,,,0,84,0,84,0,1,609eecb4c271bc10c8a0ed4d,23,Mężczyzna,2022-06-04_08h40.30.943,task,2021.1.4,Win32,144.0507058,628b806c463b948bc644b84f,629afd2aca11e57e234c6f57,,,,,,,,,,,,,,,,,,,,,,,,,,,,,,,,,,,,,,,,,,,,,,,,,,,,,,,,,,,,,,,,,,,,,,,,,,,,,,,,,,,,,,,,,,,,,,,,,,,,,,,,
,,"[""period"",""comma""]",0,85,0,85,0,1,609eecb4c271bc10c8a0ed4d,23,Mężczyzna,2022-06-04_08h40.30.943,task,2021.1.4,Win32,144.0507058,628b806c463b948bc644b84f,629afd2aca11e57e234c6f57,"[0.11099999999999,1.849399999976157]",,,,,,,,,,,,,,,,,,,,,,,,,,,,,,,,,,,,,,,,,,,,,,,,,,,,,,,,,,,,,,,,,,,,,,,,,,,,,,,,,,,,,,,,,,,,,,,,,,,,,,,
,,,0,86,0,86,0,1,609eecb4c271bc10c8a0ed4d,23,Mężczyzna,2022-06-04_08h40.30.943,task,2021.1.4,Win32,144.0507058,628b806c463b948bc644b84f,629afd2aca11e57e234c6f57,,,,,,,,,,,,,,,,,,,,,,,,,,,,,,,,,,,,,,,,,,,,,,,,,,,,,,,,,,,,,,,,,,,,,,,,,,,,,,,,,,,,,,,,,,,,,,,,,,,,,,,,
,,"[""period""]",0,87,0,87,0,1,609eecb4c271bc10c8a0ed4d,23,Mężczyzna,2022-06-04_08h40.30.943,task,2021.1.4,Win32,144.0507058,628b806c463b948bc644b84f,629afd2aca11e57e234c6f57,[0.20340000003577074],,,,,,,,,,,,,,,,,,,,,,,,,,,,,,,,,,,,,,,,,,,,,,,,,,,,,,,,,,,,,,,,,,,,,,,,,,,,,,,,,,,,,,,,,,,,,,,,,,,,,,,
,,"[""comma""]",0,88,0,88,0,1,609eecb4c271bc10c8a0ed4d,23,Mężczyzna,2022-06-04_08h40.30.943,task,2021.1.4,Win32,144.0507058,628b806c463b948bc644b84f,629afd2aca11e57e234c6f57,[0.23849999999998772],,,,,,,,,,,,,,,,,,,,,,,,,,,,,,,,,,,,,,,,,,,,,,,,,,,,,,,,,,,,,,,,,,,,,,,,,,,,,,,,,,,,,,,,,,,,,,,,,,,,,,,
,,"[""comma""]",0,89,0,89,0,1,609eecb4c271bc10c8a0ed4d,23,Mężczyzna,2022-06-04_08h40.30.943,task,2021.1.4,Win32,144.0507058,628b806c463b948bc644b84f,629afd2aca11e57e234c6f57,[0.26139999997616314],,,,,,,,,,,,,,,,,,,,,,,,,,,,,,,,,,,,,,,,,,,,,,,,,,,,,,,,,,,,,,,,,,,,,,,,,,,,,,,,,,,,,,,,,,,,,,,,,,,,,,,
,,"[""period""]",0,90,0,90,0,1,609eecb4c271bc10c8a0ed4d,23,Mężczyzna,2022-06-04_08h40.30.943,task,2021.1.4,Win32,144.0507058,628b806c463b948bc644b84f,629afd2aca11e57e234c6f57,[0.23039999997615723],,,,,,,,,,,,,,,,,,,,,,,,,,,,,,,,,,,,,,,,,,,,,,,,,,,,,,,,,,,,,,,,,,,,,,,,,,,,,,,,,,,,,,,,,,,,,,,,,,,,,,,
,,"[""comma""]",0,91,0,91,0,1,609eecb4c271bc10c8a0ed4d,23,Mężczyzna,2022-06-04_08h40.30.943,task,2021.1.4,Win32,144.0507058,628b806c463b948bc644b84f,629afd2aca11e57e234c6f57,[0.24449999999998795],,,,,,,,,,,,,,,,,,,,,,,,,,,,,,,,,,,,,,,,,,,,,,,,,,,,,,,,,,,,,,,,,,,,,,,,,,,,,,,,,,,,,,,,,,,,,,,,,,,,,,,
,,"[""period""]",0,92,0,92,0,1,609eecb4c271bc10c8a0ed4d,23,Mężczyzna,2022-06-04_08h40.30.943,task,2021.1.4,Win32,144.0507058,628b806c463b948bc644b84f,629afd2aca11e57e234c6f57,[0.22440000003575733],,,,,,,,,,,,,,,,,,,,,,,,,,,,,,,,,,,,,,,,,,,,,,,,,,,,,,,,,,,,,,,,,,,,,,,,,,,,,,,,,,,,,,,,,,,,,,,,,,,,,,,
,,"[""period""]",0,93,0,93,0,1,609eecb4c271bc10c8a0ed4d,23,Mężczyzna,2022-06-04_08h40.30.943,task,2021.1.4,Win32,144.0507058,628b806c463b948bc644b84f,629afd2aca11e57e234c6f57,[0.0946000000238314],,,,,,,,,,,,,,,,,,,,,,,,,,,,,,,,,,,,,,,,,,,,,,,,,,,,,,,,,,,,,,,,,,,,,,,,,,,,,,,,,,,,,,,,,,,,,,,,,,,,,,,
,,"[""period""]",0,94,0,94,0,1,609eecb4c271bc10c8a0ed4d,23,Mężczyzna,2022-06-04_08h40.30.943,task,2021.1.4,Win32,144.0507058,628b806c463b948bc644b84f,629afd2aca11e57e234c6f57,[0.2947000000476976],,,,,,,,,,,,,,,,,,,,,,,,,,,,,,,,,,,,,,,,,,,,,,,,,,,,,,,,,,,,,,,,,,,,,,,,,,,,,,,,,,,,,,,,,,,,,,,,,,,,,,,
,,"[""comma"",""period""]",0,95,0,95,0,1,609eecb4c271bc10c8a0ed4d,23,Mężczyzna,2022-06-04_08h40.30.943,task,2021.1.4,Win32,144.0507058,628b806c463b948bc644b84f,629afd2aca11e57e234c6f57,"[0.0766000000238023,1.9794999999999732]",,,,,,,,,,,,,,,,,,,,,,,,,,,,,,,,,,,,,,,,,,,,,,,,,,,,,,,,,,,,,,,,,,,,,,,,,,,,,,,,,,,,,,,,,,,,,,,,,,,,,,,
,,"[""period""]",0,96,0,96,0,1,609eecb4c271bc10c8a0ed4d,23,Mężczyzna,2022-06-04_08h40.30.943,task,2021.1.4,Win32,144.0507058,628b806c463b948bc644b84f,629afd2aca11e57e234c6f57,[1.903400000035731],,,,,,,,,,,,,,,,,,,,,,,,,,,,,,,,,,,,,,,,,,,,,,,,,,,,,,,,,,,,,,,,,,,,,,,,,,,,,,,,,,,,,,,,,,,,,,,,,,,,,,,
,,,0,97,0,97,0,1,609eecb4c271bc10c8a0ed4d,23,Mężczyzna,2022-06-04_08h40.30.943,task,2021.1.4,Win32,144.0507058,628b806c463b948bc644b84f,629afd2aca11e57e234c6f57,,,,,,,,,,,,,,,,,,,,,,,,,,,,,,,,,,,,,,,,,,,,,,,,,,,,,,,,,,,,,,,,,,,,,,,,,,,,,,,,,,,,,,,,,,,,,,,,,,,,,,,,
,,"[""comma""]",0,98,0,98,0,1,609eecb4c271bc10c8a0ed4d,23,Mężczyzna,2022-06-04_08h40.30.943,task,2021.1.4,Win32,144.0507058,628b806c463b948bc644b84f,629afd2aca11e57e234c6f57,[0.19249999999999545],,,,,,,,,,,,,,,,,,,,,,,,,,,,,,,,,,,,,,,,,,,,,,,,,,,,,,,,,,,,,,,,,,,,,,,,,,,,,,,,,,,,,,,,,,,,,,,,,,,,,,,
,,"[""comma""]",0,99,0,99,0,1,609eecb4c271bc10c8a0ed4d,23,Mężczyzna,2022-06-04_08h40.30.943,task,2021.1.4,Win32,144.0507058,628b806c463b948bc644b84f,629afd2aca11e57e234c6f57,[0.22749999999996362],,,,,,,,,,,,,,,,,,,,,,,,,,,,,,,,,,,,,,,,,,,,,,,,,,,,,,,,,,,,,,,,,,,,,,,,,,,,,,,,,,,,,,,,,,,,,,,,,,,,,,,
,,"[""comma"",""period""]",0,100,0,100,0,1,609eecb4c271bc10c8a0ed4d,23,Mężczyzna,2022-06-04_08h40.30.943,task,2021.1.4,Win32,144.0507058,628b806c463b948bc644b84f,629afd2aca11e57e234c6f57,"[0.24060000002378956,1.8904000000357541]",,,,,,,,,,,,,,,,,,,,,,,,,,,,,,,,,,,,,,,,,,,,,,,,,,,,,,,,,,,,,,,,,,,,,,,,,,,,,,,,,,,,,,,,,,,,,,,,,,,,,,,
,,"[""period""]",0,101,0,101,0,1,609eecb4c271bc10c8a0ed4d,23,Mężczyzna,2022-06-04_08h40.30.943,task,2021.1.4,Win32,144.0507058,628b806c463b948bc644b84f,629afd2aca11e57e234c6f57,[1.947499999999991],,,,,,,,,,,,,,,,,,,,,,,,,,,,,,,,,,,,,,,,,,,,,,,,,,,,,,,,,,,,,,,,,,,,,,,,,,,,,,,,,,,,,,,,,,,,,,,,,,,,,,,
,,,0,102,0,102,0,1,609eecb4c271bc10c8a0ed4d,23,Mężczyzna,2022-06-04_08h40.30.943,task,2021.1.4,Win32,144.0507058,628b806c463b948bc644b84f,629afd2aca11e57e234c6f57,,,,,,,,,,,,,,,,,,,,,,,,,,,,,,,,,,,,,,,,,,,,,,,,,,,,,,,,,,,,,,,,,,,,,,,,,,,,,,,,,,,,,,,,,,,,,,,,,,,,,,,,
,,"[""period""]",0,103,0,103,0,1,609eecb4c271bc10c8a0ed4d,23,Mężczyzna,2022-06-04_08h40.30.943,task,2021.1.4,Win32,144.0507058,628b806c463b948bc644b84f,629afd2aca11e57e234c6f57,[0.12549999999998818],,,,,,,,,,,,,,,,,,,,,,,,,,,,,,,,,,,,,,,,,,,,,,,,,,,,,,,,,,,,,,,,,,,,,,,,,,,,,,,,,,,,,,,,,,,,,,,,,,,,,,,
,,"[""comma""]",0,104,0,104,0,1,609eecb4c271bc10c8a0ed4d,23,Mężczyzna,2022-06-04_08h40.30.943,task,2021.1.4,Win32,144.0507058,628b806c463b948bc644b84f,629afd2aca11e57e234c6f57,[0.23750000000001137],,,,,,,,,,,,,,,,,,,,,,,,,,,,,,,,,,,,,,,,,,,,,,,,,,,,,,,,,,,,,,,,,,,,,,,,,,,,,,,,,,,,,,,,,,,,,,,,,,,,,,,
,,"[""period"",""period""]",0,105,0,105,0,1,609eecb4c271bc10c8a0ed4d,23,Mężczyzna,2022-06-04_08h40.30.943,task,2021.1.4,Win32,144.0507058,628b806c463b948bc644b84f,629afd2aca11e57e234c6f57,"[0.2616999999880818,1.8565000000000396]",,,,,,,,,,,,,,,,,,,,,,,,,,,,,,,,,,,,,,,,,,,,,,,,,,,,,,,,,,,,,,,,,,,,,,,,,,,,,,,,,,,,,,,,,,,,,,,,,,,,,,,
,,,0,106,0,106,0,1,609eecb4c271bc10c8a0ed4d,23,Mężczyzna,2022-06-04_08h40.30.943,task,2021.1.4,Win32,144.0507058,628b806c463b948bc644b84f,629afd2aca11e57e234c6f57,,,,,,,,,,,,,,,,,,,,,,,,,,,,,,,,,,,,,,,,,,,,,,,,,,,,,,,,,,,,,,,,,,,,,,,,,,,,,,,,,,,,,,,,,,,,,,,,,,,,,,,,
,,"[""comma""]",0,107,0,107,0,1,609eecb4c271bc10c8a0ed4d,23,Mężczyzna,2022-06-04_08h40.30.943,task,2021.1.4,Win32,144.0507058,628b806c463b948bc644b84f,629afd2aca11e57e234c6f57,[0.03480000001195549],,,,,,,,,,,,,,,,,,,,,,,,,,,,,,,,,,,,,,,,,,,,,,,,,,,,,,,,,,,,,,,,,,,,,,,,,,,,,,,,,,,,,,,,,,,,,,,,,,,,,,,
,,"[""comma""]",0,108,0,108,0,1,609eecb4c271bc10c8a0ed4d,23,Mężczyzna,2022-06-04_08h40.30.943,task,2021.1.4,Win32,144.0507058,628b806c463b948bc644b84f,629afd2aca11e57e234c6f57,[0.33369999998808453],,,,,,,,,,,,,,,,,,,,,,,,,,,,,,,,,,,,,,,,,,,,,,,,,,,,,,,,,,,,,,,,,,,,,,,,,,,,,,,,,,,,,,,,,,,,,,,,,,,,,,,
,,"[""period""]",0,109,0,109,0,1,609eecb4c271bc10c8a0ed4d,23,Mężczyzna,2022-06-04_08h40.30.943,task,2021.1.4,Win32,144.0507058,628b806c463b948bc644b84f,629afd2aca11e57e234c6f57,[0.17060000002385323],,,,,,,,,,,,,,,,,,,,,,,,,,,,,,,,,,,,,,,,,,,,,,,,,,,,,,,,,,,,,,,,,,,,,,,,,,,,,,,,,,,,,,,,,,,,,,,,,,,,,,,
,,"[""comma""]",0,110,0,110,0,1,609eecb4c271bc10c8a0ed4d,23,Mężczyzna,2022-06-04_08h40.30.943,task,2021.1.4,Win32,144.0507058,628b806c463b948bc644b84f,629afd2aca11e57e234c6f57,[0.16119999998807089],,,,,,,,,,,,,,,,,,,,,,,,,,,,,,,,,,,,,,,,,,,,,,,,,,,,,,,,,,,,,,,,,,,,,,,,,,,,,,,,,,,,,,,,,,,,,,,,,,,,,,,
,,"[""period"",""comma""]",0,111,0,111,0,1,609eecb4c271bc10c8a0ed4d,23,Mężczyzna,2022-06-04_08h40.30.943,task,2021.1.4,Win32,144.0507058,628b806c463b948bc644b84f,629afd2aca11e57e234c6f57,"[0.18590000003575824,1.8473000000119555]",,,,,,,,,,,,,,,,,,,,,,,,,,,,,,,,,,,,,,,,,,,,,,,,,,,,,,,,,,,,,,,,,,,,,,,,,,,,,,,,,,,,,,,,,,,,,,,,,,,,,,,
,,,0,112,0,112,0,1,609eecb4c271bc10c8a0ed4d,23,Mężczyzna,2022-06-04_08h40.30.943,task,2021.1.4,Win32,144.0507058,628b806c463b948bc644b84f,629afd2aca11e57e234c6f57,,,,,,,,,,,,,,,,,,,,,,,,,,,,,,,,,,,,,,,,,,,,,,,,,,,,,,,,,,,,,,,,,,,,,,,,,,,,,,,,,,,,,,,,,,,,,,,,,,,,,,,,
,,"[""period"",""period""]",0,113,0,113,0,1,609eecb4c271bc10c8a0ed4d,23,Mężczyzna,2022-06-04_08h40.30.943,task,2021.1.4,Win32,144.0507058,628b806c463b948bc644b84f,629afd2aca11e57e234c6f57,"[0.013900000035789617,1.9166999999881114]",,,,,,,,,,,,,,,,,,,,,,,,,,,,,,,,,,,,,,,,,,,,,,,,,,,,,,,,,,,,,,,,,,,,,,,,,,,,,,,,,,,,,,,,,,,,,,,,,,,,,,,
,,"[""period""]",0,114,0,114,0,1,609eecb4c271bc10c8a0ed4d,23,Mężczyzna,2022-06-04_08h40.30.943,task,2021.1.4,Win32,144.0507058,628b806c463b948bc644b84f,629afd2aca11e57e234c6f57,[1.9405000000000427],,,,,,,,,,,,,,,,,,,,,,,,,,,,,,,,,,,,,,,,,,,,,,,,,,,,,,,,,,,,,,,,,,,,,,,,,,,,,,,,,,,,,,,,,,,,,,,,,,,,,,,
,,,0,115,0,115,0,1,609eecb4c271bc10c8a0ed4d,23,Mężczyzna,2022-06-04_08h40.30.943,task,2021.1.4,Win32,144.0507058,628b806c463b948bc644b84f,629afd2aca11e57e234c6f57,,,,,,,,,,,,,,,,,,,,,,,,,,,,,,,,,,,,,,,,,,,,,,,,,,,,,,,,,,,,,,,,,,,,,,,,,,,,,,,,,,,,,,,,,,,,,,,,,,,,,,,,
,,"[""comma"",""period""]",0,116,0,116,0,1,609eecb4c271bc10c8a0ed4d,23,Mężczyzna,2022-06-04_08h40.30.943,task,2021.1.4,Win32,144.0507058,628b806c463b948bc644b84f,629afd2aca11e57e234c6f57,"[0.052500000000009095,1.823900000035792]",,,,,,,,,,,,,,,,,,,,,,,,,,,,,,,,,,,,,,,,,,,,,,,,,,,,,,,,,,,,,,,,,,,,,,,,,,,,,,,,,,,,,,,,,,,,,,,,,,,,,,,
,,"[""comma""]",0,117,0,117,0,1,609eecb4c271bc10c8a0ed4d,23,Mężczyzna,2022-06-04_08h40.30.943,task,2021.1.4,Win32,144.0507058,628b806c463b948bc644b84f,629afd2aca11e57e234c6f57,[1.9355999999642677],,,,,,,,,,,,,,,,,,,,,,,,,,,,,,,,,,,,,,,,,,,,,,,,,,,,,,,,,,,,,,,,,,,,,,,,,,,,,,,,,,,,,,,,,,,,,,,,,,,,,,,
,,"[""period""]",0,118,0,118,0,1,609eecb4c271bc10c8a0ed4d,23,Mężczyzna,2022-06-04_08h40.30.943,task,2021.1.4,Win32,144.0507058,628b806c463b948bc644b84f,629afd2aca11e57e234c6f57,[1.73960000002387],,,,,,,,,,,,,,,,,,,,,,,,,,,,,,,,,,,,,,,,,,,,,,,,,,,,,,,,,,,,,,,,,,,,,,,,,,,,,,,,,,,,,,,,,,,,,,,,,,,,,,,
,,"[""period""]",0,119,0,119,0,1,609eecb4c271bc10c8a0ed4d,23,Mężczyzna,2022-06-04_08h40.30.943,task,2021.1.4,Win32,144.0507058,628b806c463b948bc644b84f,629afd2aca11e57e234c6f57,[1.84050000000002],,,,,,,,,,,,,,,,,,,,,,,,,,,,,,,,,,,,,,,,,,,,,,,,,,,,,,,,,,,,,,,,,,,,,,,,,,,,,,,,,,,,,,,,,,,,,,,,,,,,,,,
,,,,,,,,,609eecb4c271bc10c8a0ed4d,23,Mężczyzna,2022-06-04_08h40.30.943,task,2021.1.4,Win32,144.0507058,628b806c463b948bc644b84f,629afd2aca11e57e234c6f57,,space,37.1632,space,4.8673,0,0,0,0,1,X V Q F H G B L J M P D K C T S W R N Z,,,,,,,,,,,,,,,,,,,,,,,,,,,,,,,,,,,,,,,,,,,,,,,,,,,,,,,,,,,,,,,,,,,,,,,,,,,,,,,,,,,,,,,,,,,,,
,,,,,,,,,609eecb4c271bc10c8a0ed4d,23,Mężczyzna,2022-06-04_08h40.30.943,task,2021.1.4,Win32,144.0507058,628b806c463b948bc644b84f,629afd2aca11e57e234c6f57,,,,,,1,0,1,0,1,X V Q F H G B L J M P D K C T S W R N Z,,,,,,,,,,,,,,,,,,,,,,,,,,,,,,,,,,,,,,,,,,,,,,,,,,,,,,,,,,,,,,,,,,,,,,,,,,,,,,,,,,,,,,,,,,,,,
,,,,,,,,,609eecb4c271bc10c8a0ed4d,23,Mężczyzna,2022-06-04_08h40.30.943,task,2021.1.4,Win32,144.0507058,628b806c463b948bc644b84f,629afd2aca11e57e234c6f57,,,,,,,,,,,,zl,"[""z"",""l""]","[1.754300000011881,2.16159999996421,2.8983000000118864]",1,ZL,0,0,0,0,1,,,,,,,,,,,,,,,,,,,,,,,,,,,,,,,,,,,,,,,,,,,,,,,,,,,,,,,,,,,,,,,,,,,,,,,,,,,,,,,,,,,
,,,,,,,,,609eecb4c271bc10c8a0ed4d,23,Mężczyzna,2022-06-04_08h40.30.943,task,2021.1.4,Win32,144.0507058,628b806c463b948bc644b84f,629afd2aca11e57e234c6f57,,,,,,0,0,0,0,1,X V Q F H G B L J M P D K C T S W R N Z,,,,,,,,,,,,,,,,,,,,,,,,,,,,,,,,,,,,,,,,,,,,,,,,,,,,,,,,,,,,,,,,,,,,,,,,,,,,,,,,,,,,,,,,,,,,,
,,,,,,,,,609eecb4c271bc10c8a0ed4d,23,Mężczyzna,2022-06-04_08h40.30.943,task,2021.1.4,Win32,144.0507058,628b806c463b948bc644b84f,629afd2aca11e57e234c6f57,,,,,,1,0,1,0,1,X V Q F H G B L J M P D K C T S W R N Z,,,,,,,,,,,,,,,,,,,,,,,,,,,,,,,,,,,,,,,,,,,,,,,,,,,,,,,,,,,,,,,,,,,,,,,,,,,,,,,,,,,,,,,,,,,,,
,,,,,,,,,609eecb4c271bc10c8a0ed4d,23,Mężczyzna,2022-06-04_08h40.30.943,task,2021.1.4,Win32,144.0507058,628b806c463b948bc644b84f,629afd2aca11e57e234c6f57,,,,,,,,,,,,wj,"[""w"",""j""]","[1.0502000000477096,1.2372000000476646,1.5012000000476746]",1,WJ,1,0,1,0,1,,,,,,,,,,,,,,,,,,,,,,,,,,,,,,,,,,,,,,,,,,,,,,,,,,,,,,,,,,,,,,,,,,,,,,,,,,,,,,,,,,,
,,,,,,,,,609eecb4c271bc10c8a0ed4d,23,Mężczyzna,2022-06-04_08h40.30.943,task,2021.1.4,Win32,144.0507058,628b806c463b948bc644b84f,629afd2aca11e57e234c6f57,,,,,,0,0,0,0,1,X V Q F H G B L J M P D K C T S W R N Z,,,,,,,,,,,,,,,,,,,,,,,,,,,,,,,,,,,,,,,,,,,,,,,,,,,,,,,,,,,,,,,,,,,,,,,,,,,,,,,,,,,,,,,,,,,,,
,,,,,,,,,609eecb4c271bc10c8a0ed4d,23,Mężczyzna,2022-06-04_08h40.30.943,task,2021.1.4,Win32,144.0507058,628b806c463b948bc644b84f,629afd2aca11e57e234c6f57,,,,,,1,0,1,0,1,X V Q F H G B L J M P D K C T S W R N Z,,,,,,,,,,,,,,,,,,,,,,,,,,,,,,,,,,,,,,,,,,,,,,,,,,,,,,,,,,,,,,,,,,,,,,,,,,,,,,,,,,,,,,,,,,,,,
,,,,,,,,,609eecb4c271bc10c8a0ed4d,23,Mężczyzna,2022-06-04_08h40.30.943,task,2021.1.4,Win32,144.0507058,628b806c463b948bc644b84f,629afd2aca11e57e234c6f57,,,,,,2,0,2,0,1,X V Q F H G B L J M P D K C T S W R N Z,,,,,,,,,,,,,,,,,,,,,,,,,,,,,,,,,,,,,,,,,,,,,,,,,,,,,,,,,,,,,,,,,,,,,,,,,,,,,,,,,,,,,,,,,,,,,
,,,,,,,,,609eecb4c271bc10c8a0ed4d,23,Mężczyzna,2022-06-04_08h40.30.943,task,2021.1.4,Win32,144.0507058,628b806c463b948bc644b84f,629afd2aca11e57e234c6f57,,,,,,,,,,,,llh,"[""l"",""l"",""h""]","[0.905700000047716,1.0817000000477037,1.2026000000238923,1.4449000000357728]",1,LLH,2,0,2,0,1,,,,,,,,,,,,,,,,,,,,,,,,,,,,,,,,,,,,,,,,,,,,,,,,,,,,,,,,,,,,,,,,,,,,,,,,,,,,,,,,,,,
,,,,,,,,,609eecb4c271bc10c8a0ed4d,23,Mężczyzna,2022-06-04_08h40.30.943,task,2021.1.4,Win32,144.0507058,628b806c463b948bc644b84f,629afd2aca11e57e234c6f57,,,,,,0,0,0,0,1,X V Q F H G B L J M P D K C T S W R N Z,,,,,,,,,,,,,,,,,,,,,,,,,,,,,,,,,,,,,,,,,,,,,,,,,,,,,,,,,,,,,,,,,,,,,,,,,,,,,,,,,,,,,,,,,,,,,
,,,,,,,,,609eecb4c271bc10c8a0ed4d,23,Mężczyzna,2022-06-04_08h40.30.943,task,2021.1.4,Win32,144.0507058,628b806c463b948bc644b84f,629afd2aca11e57e234c6f57,,,,,,1,0,1,0,1,X V Q F H G B L J M P D K C T S W R N Z,,,,,,,,,,,,,,,,,,,,,,,,,,,,,,,,,,,,,,,,,,,,,,,,,,,,,,,,,,,,,,,,,,,,,,,,,,,,,,,,,,,,,,,,,,,,,
,,,,,,,,,609eecb4c271bc10c8a0ed4d,23,Mężczyzna,2022-06-04_08h40.30.943,task,2021.1.4,Win32,144.0507058,628b806c463b948bc644b84f,629afd2aca11e57e234c6f57,,,,,,2,0,2,0,1,X V Q F H G B L J M P D K C T S W R N Z,,,,,,,,,,,,,,,,,,,,,,,,,,,,,,,,,,,,,,,,,,,,,,,,,,,,,,,,,,,,,,,,,,,,,,,,,,,,,,,,,,,,,,,,,,,,,
,,,,,,,,,609eecb4c271bc10c8a0ed4d,23,Mężczyzna,2022-06-04_08h40.30.943,task,2021.1.4,Win32,144.0507058,628b806c463b948bc644b84f,629afd2aca11e57e234c6f57,,,,,,,,,,,,zrn,"[""z"",""r"",""n""]","[1.2896999999881018,1.9168000000119605,2.136800000011931,2.7086999999880845]",1,ZRN,3,0,3,0,1,,,,,,,,,,,,,,,,,,,,,,,,,,,,,,,,,,,,,,,,,,,,,,,,,,,,,,,,,,,,,,,,,,,,,,,,,,,,,,,,,,,
,,,,,,,,,609eecb4c271bc10c8a0ed4d,23,Mężczyzna,2022-06-04_08h40.30.943,task,2021.1.4,Win32,144.0507058,628b806c463b948bc644b84f,629afd2aca11e57e234c6f57,,,,,,0,0,0,0,1,X V Q F H G B L J M P D K C T S W R N Z,,,,,,,,,,,,,,,,,,,,,,,,,,,,,,,,,,,,,,,,,,,,,,,,,,,,,,,,,,,,,,,,,,,,,,,,,,,,,,,,,,,,,,,,,,,,,
,,,,,,,,,609eecb4c271bc10c8a0ed4d,23,Mężczyzna,2022-06-04_08h40.30.943,task,2021.1.4,Win32,144.0507058,628b806c463b948bc644b84f,629afd2aca11e57e234c6f57,,,,,,1,0,1,0,1,X V Q F H G B L J M P D K C T S W R N Z,,,,,,,,,,,,,,,,,,,,,,,,,,,,,,,,,,,,,,,,,,,,,,,,,,,,,,,,,,,,,,,,,,,,,,,,,,,,,,,,,,,,,,,,,,,,,
,,,,,,,,,609eecb4c271bc10c8a0ed4d,23,Mężczyzna,2022-06-04_08h40.30.943,task,2021.1.4,Win32,144.0507058,628b806c463b948bc644b84f,629afd2aca11e57e234c6f57,,,,,,2,0,2,0,1,X V Q F H G B L J M P D K C T S W R N Z,,,,,,,,,,,,,,,,,,,,,,,,,,,,,,,,,,,,,,,,,,,,,,,,,,,,,,,,,,,,,,,,,,,,,,,,,,,,,,,,,,,,,,,,,,,,,
,,,,,,,,,609eecb4c271bc10c8a0ed4d,23,Mężczyzna,2022-06-04_08h40.30.943,task,2021.1.4,Win32,144.0507058,628b806c463b948bc644b84f,629afd2aca11e57e234c6f57,,,,,,3,0,3,0,1,X V Q F H G B L J M P D K C T S W R N Z,,,,,,,,,,,,,,,,,,,,,,,,,,,,,,,,,,,,,,,,,,,,,,,,,,,,,,,,,,,,,,,,,,,,,,,,,,,,,,,,,,,,,,,,,,,,,
,,,,,,,,,609eecb4c271bc10c8a0ed4d,23,Mężczyzna,2022-06-04_08h40.30.943,task,2021.1.4,Win32,144.0507058,628b806c463b948bc644b84f,629afd2aca11e57e234c6f57,,,,,,,,,,,,fpvv,"[""f"",""p"",""v"",""v""]","[0.8485999999642218,1.02439999997614,1.3215000000000146,1.4753999999761618,1.816500000000019]",1,FPVV,4,0,4,0,1,,,,,,,,,,,,,,,,,,,,,,,,,,,,,,,,,,,,,,,,,,,,,,,,,,,,,,,,,,,,,,,,,,,,,,,,,,,,,,,,,,,
,,,,,,,,,609eecb4c271bc10c8a0ed4d,23,Mężczyzna,2022-06-04_08h40.30.943,task,2021.1.4,Win32,144.0507058,628b806c463b948bc644b84f,629afd2aca11e57e234c6f57,,,,,,0,0,0,0,1,X V Q F H G B L J M P D K C T S W R N Z,,,,,,,,,,,,,,,,,,,,,,,,,,,,,,,,,,,,,,,,,,,,,,,,,,,,,,,,,,,,,,,,,,,,,,,,,,,,,,,,,,,,,,,,,,,,,
,,,,,,,,,609eecb4c271bc10c8a0ed4d,23,Mężczyzna,2022-06-04_08h40.30.943,task,2021.1.4,Win32,144.0507058,628b806c463b948bc644b84f,629afd2aca11e57e234c6f57,,,,,,1,0,1,0,1,X V Q F H G B L J M P D K C T S W R N Z,,,,,,,,,,,,,,,,,,,,,,,,,,,,,,,,,,,,,,,,,,,,,,,,,,,,,,,,,,,,,,,,,,,,,,,,,,,,,,,,,,,,,,,,,,,,,
,,,,,,,,,609eecb4c271bc10c8a0ed4d,23,Mężczyzna,2022-06-04_08h40.30.943,task,2021.1.4,Win32,144.0507058,628b806c463b948bc644b84f,629afd2aca11e57e234c6f57,,,,,,2,0,2,0,1,X V Q F H G B L J M P D K C T S W R N Z,,,,,,,,,,,,,,,,,,,,,,,,,,,,,,,,,,,,,,,,,,,,,,,,,,,,,,,,,,,,,,,,,,,,,,,,,,,,,,,,,,,,,,,,,,,,,
,,,,,,,,,609eecb4c271bc10c8a0ed4d,23,Mężczyzna,2022-06-04_08h40.30.943,task,2021.1.4,Win32,144.0507058,628b806c463b948bc644b84f,629afd2aca11e57e234c6f57,,,,,,3,0,3,0,1,X V Q F H G B L J M P D K C T S W R N Z,,,,,,,,,,,,,,,,,,,,,,,,,,,,,,,,,,,,,,,,,,,,,,,,,,,,,,,,,,,,,,,,,,,,,,,,,,,,,,,,,,,,,,,,,,,,,
,,,,,,,,,609eecb4c271bc10c8a0ed4d,23,Mężczyzna,2022-06-04_08h40.30.943,task,2021.1.4,Win32,144.0507058,628b806c463b948bc644b84f,629afd2aca11e57e234c6f57,,,,,,,,,,,,zptb,"[""z"",""p"",""t"",""b""]","[1.325700000047675,2.117700000047705,2.4587000000477133,2.7227000000476664,3.55860000002383]",1,ZPTB,5,0,5,0,1,,,,,,,,,,,,,,,,,,,,,,,,,,,,,,,,,,,,,,,,,,,,,,,,,,,,,,,,,,,,,,,,,,,,,,,,,,,,,,,,,,,
,,,,,,,,,609eecb4c271bc10c8a0ed4d,23,Mężczyzna,2022-06-04_08h40.30.943,task,2021.1.4,Win32,144.0507058,628b806c463b948bc644b84f,629afd2aca11e57e234c6f57,,,,,,0,0,0,0,1,X V Q F H G B L J M P D K C T S W R N Z,,,,,,,,,,,,,,,,,,,,,,,,,,,,,,,,,,,,,,,,,,,,,,,,,,,,,,,,,,,,,,,,,,,,,,,,,,,,,,,,,,,,,,,,,,,,,
,,,,,,,,,609eecb4c271bc10c8a0ed4d,23,Mężczyzna,2022-06-04_08h40.30.943,task,2021.1.4,Win32,144.0507058,628b806c463b948bc644b84f,629afd2aca11e57e234c6f57,,,,,,1,0,1,0,1,X V Q F H G B L J M P D K C T S W R N Z,,,,,,,,,,,,,,,,,,,,,,,,,,,,,,,,,,,,,,,,,,,,,,,,,,,,,,,,,,,,,,,,,,,,,,,,,,,,,,,,,,,,,,,,,,,,,
,,,,,,,,,609eecb4c271bc10c8a0ed4d,23,Mężczyzna,2022-06-04_08h40.30.943,task,2021.1.4,Win32,144.0507058,628b806c463b948bc644b84f,629afd2aca11e57e234c6f57,,,,,,2,0,2,0,1,X V Q F H G B L J M P D K C T S W R N Z,,,,,,,,,,,,,,,,,,,,,,,,,,,,,,,,,,,,,,,,,,,,,,,,,,,,,,,,,,,,,,,,,,,,,,,,,,,,,,,,,,,,,,,,,,,,,
,,,,,,,,,609eecb4c271bc10c8a0ed4d,23,Mężczyzna,2022-06-04_08h40.30.943,task,2021.1.4,Win32,144.0507058,628b806c463b948bc644b84f,629afd2aca11e57e234c6f57,,,,,,3,0,3,0,1,X V Q F H G B L J M P D K C T S W R N Z,,,,,,,,,,,,,,,,,,,,,,,,,,,,,,,,,,,,,,,,,,,,,,,,,,,,,,,,,,,,,,,,,,,,,,,,,,,,,,,,,,,,,,,,,,,,,
,,,,,,,,,609eecb4c271bc10c8a0ed4d,23,Mężczyzna,2022-06-04_08h40.30.943,task,2021.1.4,Win32,144.0507058,628b806c463b948bc644b84f,629afd2aca11e57e234c6f57,,,,,,4,0,4,0,1,X V Q F H G B L J M P D K C T S W R N Z,,,,,,,,,,,,,,,,,,,,,,,,,,,,,,,,,,,,,,,,,,,,,,,,,,,,,,,,,,,,,,,,,,,,,,,,,,,,,,,,,,,,,,,,,,,,,
,,,,,,,,,609eecb4c271bc10c8a0ed4d,23,Mężczyzna,2022-06-04_08h40.30.943,task,2021.1.4,Win32,144.0507058,628b806c463b948bc644b84f,629afd2aca11e57e234c6f57,,,,,,,,,,,,rpnjr,"[""r"",""p"",""n"",""j"",""r""]","[0.9833000000119227,1.2358999999761409,1.5330000000000155,1.7976999999880832,2.016999999999996,2.6000000000000227]",1,RPNJR,6,0,6,0,1,,,,,,,,,,,,,,,,,,,,,,,,,,,,,,,,,,,,,,,,,,,,,,,,,,,,,,,,,,,,,,,,,,,,,,,,,,,,,,,,,,,
,,,,,,,,,609eecb4c271bc10c8a0ed4d,23,Mężczyzna,2022-06-04_08h40.30.943,task,2021.1.4,Win32,144.0507058,628b806c463b948bc644b84f,629afd2aca11e57e234c6f57,,,,,,0,0,0,0,1,X V Q F H G B L J M P D K C T S W R N Z,,,,,,,,,,,,,,,,,,,,,,,,,,,,,,,,,,,,,,,,,,,,,,,,,,,,,,,,,,,,,,,,,,,,,,,,,,,,,,,,,,,,,,,,,,,,,
,,,,,,,,,609eecb4c271bc10c8a0ed4d,23,Mężczyzna,2022-06-04_08h40.30.943,task,2021.1.4,Win32,144.0507058,628b806c463b948bc644b84f,629afd2aca11e57e234c6f57,,,,,,1,0,1,0,1,X V Q F H G B L J M P D K C T S W R N Z,,,,,,,,,,,,,,,,,,,,,,,,,,,,,,,,,,,,,,,,,,,,,,,,,,,,,,,,,,,,,,,,,,,,,,,,,,,,,,,,,,,,,,,,,,,,,
,,,,,,,,,609eecb4c271bc10c8a0ed4d,23,Mężczyzna,2022-06-04_08h40.30.943,task,2021.1.4,Win32,144.0507058,628b806c463b948bc644b84f,629afd2aca11e57e234c6f57,,,,,,2,0,2,0,1,X V Q F H G B L J M P D K C T S W R N Z,,,,,,,,,,,,,,,,,,,,,,,,,,,,,,,,,,,,,,,,,,,,,,,,,,,,,,,,,,,,,,,,,,,,,,,,,,,,,,,,,,,,,,,,,,,,,
,,,,,,,,,609eecb4c271bc10c8a0ed4d,23,Mężczyzna,2022-06-04_08h40.30.943,task,2021.1.4,Win32,144.0507058,628b806c463b948bc644b84f,629afd2aca11e57e234c6f57,,,,,,3,0,3,0,1,X V Q F H G B L J M P D K C T S W R N Z,,,,,,,,,,,,,,,,,,,,,,,,,,,,,,,,,,,,,,,,,,,,,,,,,,,,,,,,,,,,,,,,,,,,,,,,,,,,,,,,,,,,,,,,,,,,,
,,,,,,,,,609eecb4c271bc10c8a0ed4d,23,Mężczyzna,2022-06-04_08h40.30.943,task,2021.1.4,Win32,144.0507058,628b806c463b948bc644b84f,629afd2aca11e57e234c6f57,,,,,,4,0,4,0,1,X V Q F H G B L J M P D K C T S W R N Z,,,,,,,,,,,,,,,,,,,,,,,,,,,,,,,,,,,,,,,,,,,,,,,,,,,,,,,,,,,,,,,,,,,,,,,,,,,,,,,,,,,,,,,,,,,,,
,,,,,,,,,609eecb4c271bc10c8a0ed4d,23,Mężczyzna,2022-06-04_08h40.30.943,task,2021.1.4,Win32,144.0507058,628b806c463b948bc644b84f,629afd2aca11e57e234c6f57,,,,,,,,,,,,ztbsl,"[""z"",""t"",""b"",""s"",""l""]","[0.9510000000000218,1.257899999976189,1.4890000000000327,1.853600000023846,2.0623000000119305,2.479000000000042]",1,ZTBSL,7,0,7,0,1,,,,,,,,,,,,,,,,,,,,,,,,,,,,,,,,,,,,,,,,,,,,,,,,,,,,,,,,,,,,,,,,,,,,,,,,,,,,,,,,,,,
,,,,,,,,,609eecb4c271bc10c8a0ed4d,23,Mężczyzna,2022-06-04_08h40.30.943,task,2021.1.4,Win32,144.0507058,628b806c463b948bc644b84f,629afd2aca11e57e234c6f57,,,,,,0,0,0,0,1,X V Q F H G B L J M P D K C T S W R N Z,,,,,,,,,,,,,,,,,,,,,,,,,,,,,,,,,,,,,,,,,,,,,,,,,,,,,,,,,,,,,,,,,,,,,,,,,,,,,,,,,,,,,,,,,,,,,
,,,,,,,,,609eecb4c271bc10c8a0ed4d,23,Mężczyzna,2022-06-04_08h40.30.943,task,2021.1.4,Win32,144.0507058,628b806c463b948bc644b84f,629afd2aca11e57e234c6f57,,,,,,1,0,1,0,1,X V Q F H G B L J M P D K C T S W R N Z,,,,,,,,,,,,,,,,,,,,,,,,,,,,,,,,,,,,,,,,,,,,,,,,,,,,,,,,,,,,,,,,,,,,,,,,,,,,,,,,,,,,,,,,,,,,,
,,,,,,,,,609eecb4c271bc10c8a0ed4d,23,Mężczyzna,2022-06-04_08h40.30.943,task,2021.1.4,Win32,144.0507058,628b806c463b948bc644b84f,629afd2aca11e57e234c6f57,,,,,,2,0,2,0,1,X V Q F H G B L J M P D K C T S W R N Z,,,,,,,,,,,,,,,,,,,,,,,,,,,,,,,,,,,,,,,,,,,,,,,,,,,,,,,,,,,,,,,,,,,,,,,,,,,,,,,,,,,,,,,,,,,,,
,,,,,,,,,609eecb4c271bc10c8a0ed4d,23,Mężczyzna,2022-06-04_08h40.30.943,task,2021.1.4,Win32,144.0507058,628b806c463b948bc644b84f,629afd2aca11e57e234c6f57,,,,,,3,0,3,0,1,X V Q F H G B L J M P D K C T S W R N Z,,,,,,,,,,,,,,,,,,,,,,,,,,,,,,,,,,,,,,,,,,,,,,,,,,,,,,,,,,,,,,,,,,,,,,,,,,,,,,,,,,,,,,,,,,,,,
,,,,,,,,,609eecb4c271bc10c8a0ed4d,23,Mężczyzna,2022-06-04_08h40.30.943,task,2021.1.4,Win32,144.0507058,628b806c463b948bc644b84f,629afd2aca11e57e234c6f57,,,,,,4,0,4,0,1,X V Q F H G B L J M P D K C T S W R N Z,,,,,,,,,,,,,,,,,,,,,,,,,,,,,,,,,,,,,,,,,,,,,,,,,,,,,,,,,,,,,,,,,,,,,,,,,,,,,,,,,,,,,,,,,,,,,
,,,,,,,,,609eecb4c271bc10c8a0ed4d,23,Mężczyzna,2022-06-04_08h40.30.943,task,2021.1.4,Win32,144.0507058,628b806c463b948bc644b84f,629afd2aca11e57e234c6f57,,,,,,5,0,5,0,1,X V Q F H G B L J M P D K C T S W R N Z,,,,,,,,,,,,,,,,,,,,,,,,,,,,,,,,,,,,,,,,,,,,,,,,,,,,,,,,,,,,,,,,,,,,,,,,,,,,,,,,,,,,,,,,,,,,,
,,,,,,,,,609eecb4c271bc10c8a0ed4d,23,Mężczyzna,2022-06-04_08h40.30.943,task,2021.1.4,Win32,144.0507058,628b806c463b948bc644b84f,629afd2aca11e57e234c6f57,,,,,,,,,,,,kmdhrd,"[""k"",""m"",""d"",""h"",""r"",""d""]","[3.4879999999999995,3.6970000000000027,4.742100000023868,5.204100000023857,5.468100000023867,5.710100000023829,6.194000000000017]",1,KMDHRD,8,0,8,0,1,,,,,,,,,,,,,,,,,,,,,,,,,,,,,,,,,,,,,,,,,,,,,,,,,,,,,,,,,,,,,,,,,,,,,,,,,,,,,,,,,,,
,,,,,,,,,609eecb4c271bc10c8a0ed4d,23,Mężczyzna,2022-06-04_08h40.30.943,task,2021.1.4,Win32,144.0507058,628b806c463b948bc644b84f,629afd2aca11e57e234c6f57,,,,,,0,0,0,0,1,X V Q F H G B L J M P D K C T S W R N Z,,,,,,,,,,,,,,,,,,,,,,,,,,,,,,,,,,,,,,,,,,,,,,,,,,,,,,,,,,,,,,,,,,,,,,,,,,,,,,,,,,,,,,,,,,,,,
,,,,,,,,,609eecb4c271bc10c8a0ed4d,23,Mężczyzna,2022-06-04_08h40.30.943,task,2021.1.4,Win32,144.0507058,628b806c463b948bc644b84f,629afd2aca11e57e234c6f57,,,,,,1,0,1,0,1,X V Q F H G B L J M P D K C T S W R N Z,,,,,,,,,,,,,,,,,,,,,,,,,,,,,,,,,,,,,,,,,,,,,,,,,,,,,,,,,,,,,,,,,,,,,,,,,,,,,,,,,,,,,,,,,,,,,
,,,,,,,,,609eecb4c271bc10c8a0ed4d,23,Mężczyzna,2022-06-04_08h40.30.943,task,2021.1.4,Win32,144.0507058,628b806c463b948bc644b84f,629afd2aca11e57e234c6f57,,,,,,2,0,2,0,1,X V Q F H G B L J M P D K C T S W R N Z,,,,,,,,,,,,,,,,,,,,,,,,,,,,,,,,,,,,,,,,,,,,,,,,,,,,,,,,,,,,,,,,,,,,,,,,,,,,,,,,,,,,,,,,,,,,,
,,,,,,,,,609eecb4c271bc10c8a0ed4d,23,Mężczyzna,2022-06-04_08h40.30.943,task,2021.1.4,Win32,144.0507058,628b806c463b948bc644b84f,629afd2aca11e57e234c6f57,,,,,,3,0,3,0,1,X V Q F H G B L J M P D K C T S W R N Z,,,,,,,,,,,,,,,,,,,,,,,,,,,,,,,,,,,,,,,,,,,,,,,,,,,,,,,,,,,,,,,,,,,,,,,,,,,,,,,,,,,,,,,,,,,,,
,,,,,,,,,609eecb4c271bc10c8a0ed4d,23,Mężczyzna,2022-06-04_08h40.30.943,task,2021.1.4,Win32,144.0507058,628b806c463b948bc644b84f,629afd2aca11e57e234c6f57,,,,,,4,0,4,0,1,X V Q F H G B L J M P D K C T S W R N Z,,,,,,,,,,,,,,,,,,,,,,,,,,,,,,,,,,,,,,,,,,,,,,,,,,,,,,,,,,,,,,,,,,,,,,,,,,,,,,,,,,,,,,,,,,,,,
,,,,,,,,,609eecb4c271bc10c8a0ed4d,23,Mężczyzna,2022-06-04_08h40.30.943,task,2021.1.4,Win32,144.0507058,628b806c463b948bc644b84f,629afd2aca11e57e234c6f57,,,,,,5,0,5,0,1,X V Q F H G B L J M P D K C T S W R N Z,,,,,,,,,,,,,,,,,,,,,,,,,,,,,,,,,,,,,,,,,,,,,,,,,,,,,,,,,,,,,,,,,,,,,,,,,,,,,,,,,,,,,,,,,,,,,
,,,,,,,,,609eecb4c271bc10c8a0ed4d,23,Mężczyzna,2022-06-04_08h40.30.943,task,2021.1.4,Win32,144.0507058,628b806c463b948bc644b84f,629afd2aca11e57e234c6f57,,,,,,,,,,,,vgmzqf,"[""v"",""g"",""m"",""z"",""q"",""f""]","[1.4413000000119496,1.7160000000000082,2.376000000000033,3.3441000000238432,3.883000000000038,4.158700000047702,4.818500000000029]",1,VGMZQF,9,0,9,0,1,,,,,,,,,,,,,,,,,,,,,,,,,,,,,,,,,,,,,,,,,,,,,,,,,,,,,,,,,,,,,,,,,,,,,,,,,,,,,,,,,,,
,,,,,,,,,609eecb4c271bc10c8a0ed4d,23,Mężczyzna,2022-06-04_08h40.30.943,task,2021.1.4,Win32,144.0507058,628b806c463b948bc644b84f,629afd2aca11e57e234c6f57,,,,,,0,0,0,0,1,X V Q F H G B L J M P D K C T S W R N Z,,,,,,,,,,,,,,,,,,,,,,,,,,,,,,,,,,,,,,,,,,,,,,,,,,,,,,,,,,,,,,,,,,,,,,,,,,,,,,,,,,,,,,,,,,,,,
,,,,,,,,,609eecb4c271bc10c8a0ed4d,23,Mężczyzna,2022-06-04_08h40.30.943,task,2021.1.4,Win32,144.0507058,628b806c463b948bc644b84f,629afd2aca11e57e234c6f57,,,,,,1,0,1,0,1,X V Q F H G B L J M P D K C T S W R N Z,,,,,,,,,,,,,,,,,,,,,,,,,,,,,,,,,,,,,,,,,,,,,,,,,,,,,,,,,,,,,,,,,,,,,,,,,,,,,,,,,,,,,,,,,,,,,
,,,,,,,,,609eecb4c271bc10c8a0ed4d,23,Mężczyzna,2022-06-04_08h40.30.943,task,2021.1.4,Win32,144.0507058,628b806c463b948bc644b84f,629afd2aca11e57e234c6f57,,,,,,2,0,2,0,1,X V Q F H G B L J M P D K C T S W R N Z,,,,,,,,,,,,,,,,,,,,,,,,,,,,,,,,,,,,,,,,,,,,,,,,,,,,,,,,,,,,,,,,,,,,,,,,,,,,,,,,,,,,,,,,,,,,,
,,,,,,,,,609eecb4c271bc10c8a0ed4d,23,Mężczyzna,2022-06-04_08h40.30.943,task,2021.1.4,Win32,144.0507058,628b806c463b948bc644b84f,629afd2aca11e57e234c6f57,,,,,,3,0,3,0,1,X V Q F H G B L J M P D K C T S W R N Z,,,,,,,,,,,,,,,,,,,,,,,,,,,,,,,,,,,,,,,,,,,,,,,,,,,,,,,,,,,,,,,,,,,,,,,,,,,,,,,,,,,,,,,,,,,,,
,,,,,,,,,609eecb4c271bc10c8a0ed4d,23,Mężczyzna,2022-06-04_08h40.30.943,task,2021.1.4,Win32,144.0507058,628b806c463b948bc644b84f,629afd2aca11e57e234c6f57,,,,,,4,0,4,0,1,X V Q F H G B L J M P D K C T S W R N Z,,,,,,,,,,,,,,,,,,,,,,,,,,,,,,,,,,,,,,,,,,,,,,,,,,,,,,,,,,,,,,,,,,,,,,,,,,,,,,,,,,,,,,,,,,,,,
,,,,,,,,,609eecb4c271bc10c8a0ed4d,23,Mężczyzna,2022-06-04_08h40.30.943,task,2021.1.4,Win32,144.0507058,628b806c463b948bc644b84f,629afd2aca11e57e234c6f57,,,,,,5,0,5,0,1,X V Q F H G B L J M P D K C T S W R N Z,,,,,,,,,,,,,,,,,,,,,,,,,,,,,,,,,,,,,,,,,,,,,,,,,,,,,,,,,,,,,,,,,,,,,,,,,,,,,,,,,,,,,,,,,,,,,
,,,,,,,,,609eecb4c271bc10c8a0ed4d,23,Mężczyzna,2022-06-04_08h40.30.943,task,2021.1.4,Win32,144.0507058,628b806c463b948bc644b84f,629afd2aca11e57e234c6f57,,,,,,6,0,6,0,1,X V Q F H G B L J M P D K C T S W R N Z,,,,,,,,,,,,,,,,,,,,,,,,,,,,,,,,,,,,,,,,,,,,,,,,,,,,,,,,,,,,,,,,,,,,,,,,,,,,,,,,,,,,,,,,,,,,,
,,,,,,,,,609eecb4c271bc10c8a0ed4d,23,Mężczyzna,2022-06-04_08h40.30.943,task,2021.1.4,Win32,144.0507058,628b806c463b948bc644b84f,629afd2aca11e57e234c6f57,,,,,,,,,,,,dwrjfb,"[""d"",""w"",""r"",""j"",""f"",""b""]","[1.6708000000119227,2.0005999999642654,2.836599999964278,3.0674999999999955,6.1915999999642395,6.433699999988107,8.67759999996423]",0,DWRJFLB,10,0,10,0,1,,,,,,,,,,,,,,,,,,,,,,,,,,,,,,,,,,,,,,,,,,,,,,,,,,,,,,,,,,,,,,,,,,,,,,,,,,,,,,,,,,,
,,,,,,,,,609eecb4c271bc10c8a0ed4d,23,Mężczyzna,2022-06-04_08h40.30.943,task,2021.1.4,Win32,144.0507058,628b806c463b948bc644b84f,629afd2aca11e57e234c6f57,,,,,,0,0,0,0,1,X V Q F H G B L J M P D K C T S W R N Z,,,,,,,,,,,,,,,,,,,,,,,,,,,,,,,,,,,,,,,,,,,,,,,,,,,,,,,,,,,,,,,,,,,,,,,,,,,,,,,,,,,,,,,,,,,,,
,,,,,,,,,609eecb4c271bc10c8a0ed4d,23,Mężczyzna,2022-06-04_08h40.30.943,task,2021.1.4,Win32,144.0507058,628b806c463b948bc644b84f,629afd2aca11e57e234c6f57,,,,,,1,0,1,0,1,X V Q F H G B L J M P D K C T S W R N Z,,,,,,,,,,,,,,,,,,,,,,,,,,,,,,,,,,,,,,,,,,,,,,,,,,,,,,,,,,,,,,,,,,,,,,,,,,,,,,,,,,,,,,,,,,,,,
,,,,,,,,,609eecb4c271bc10c8a0ed4d,23,Mężczyzna,2022-06-04_08h40.30.943,task,2021.1.4,Win32,144.0507058,628b806c463b948bc644b84f,629afd2aca11e57e234c6f57,,,,,,2,0,2,0,1,X V Q F H G B L J M P D K C T S W R N Z,,,,,,,,,,,,,,,,,,,,,,,,,,,,,,,,,,,,,,,,,,,,,,,,,,,,,,,,,,,,,,,,,,,,,,,,,,,,,,,,,,,,,,,,,,,,,
,,,,,,,,,609eecb4c271bc10c8a0ed4d,23,Mężczyzna,2022-06-04_08h40.30.943,task,2021.1.4,Win32,144.0507058,628b806c463b948bc644b84f,629afd2aca11e57e234c6f57,,,,,,3,0,3,0,1,X V Q F H G B L J M P D K C T S W R N Z,,,,,,,,,,,,,,,,,,,,,,,,,,,,,,,,,,,,,,,,,,,,,,,,,,,,,,,,,,,,,,,,,,,,,,,,,,,,,,,,,,,,,,,,,,,,,
,,,,,,,,,609eecb4c271bc10c8a0ed4d,23,Mężczyzna,2022-06-04_08h40.30.943,task,2021.1.4,Win32,144.0507058,628b806c463b948bc644b84f,629afd2aca11e57e234c6f57,,,,,,4,0,4,0,1,X V Q F H G B L J M P D K C T S W R N Z,,,,,,,,,,,,,,,,,,,,,,,,,,,,,,,,,,,,,,,,,,,,,,,,,,,,,,,,,,,,,,,,,,,,,,,,,,,,,,,,,,,,,,,,,,,,,
,,,,,,,,,609eecb4c271bc10c8a0ed4d,23,Mężczyzna,2022-06-04_08h40.30.943,task,2021.1.4,Win32,144.0507058,628b806c463b948bc644b84f,629afd2aca11e57e234c6f57,,,,,,5,0,5,0,1,X V Q F H G B L J M P D K C T S W R N Z,,,,,,,,,,,,,,,,,,,,,,,,,,,,,,,,,,,,,,,,,,,,,,,,,,,,,,,,,,,,,,,,,,,,,,,,,,,,,,,,,,,,,,,,,,,,,
,,,,,,,,,609eecb4c271bc10c8a0ed4d,23,Mężczyzna,2022-06-04_08h40.30.943,task,2021.1.4,Win32,144.0507058,628b806c463b948bc644b84f,629afd2aca11e57e234c6f57,,,,,,6,0,6,0,1,X V Q F H G B L J M P D K C T S W R N Z,,,,,,,,,,,,,,,,,,,,,,,,,,,,,,,,,,,,,,,,,,,,,,,,,,,,,,,,,,,,,,,,,,,,,,,,,,,,,,,,,,,,,,,,,,,,,
,,,,,,,,,609eecb4c271bc10c8a0ed4d,23,Mężczyzna,2022-06-04_08h40.30.943,task,2021.1.4,Win32,144.0507058,628b806c463b948bc644b84f,629afd2aca11e57e234c6f57,,,,,,,,,,,,lzhrgwz,"[""l"",""z"",""h"",""r"",""g"",""w"",""z""]","[1.1038000000119155,1.5434999999999945,3.996500000000026,4.1614999999999895,4.392499999999984,5.1404999999999745,5.371500000000026,6.394699999988063]",0,LZHNGRW,11,0,11,0,1,,,,,,,,,,,,,,,,,,,,,,,,,,,,,,,,,,,,,,,,,,,,,,,,,,,,,,,,,,,,,,,,,,,,,,,,,,,,,,,,,,,
,,,,,,,,,609eecb4c271bc10c8a0ed4d,23,Mężczyzna,2022-06-04_08h40.30.943,task,2021.1.4,Win32,144.0507058,628b806c463b948bc644b84f,629afd2aca11e57e234c6f57,,,,,,0,0,0,0,1,X V Q F H G B L J M P D K C T S W R N Z,,,,,,,,,,,,,,,,,,,,,,,,,,,,,,,,,,,,,,,,,,,,,,,,,,,,,,,,,,,,,,,,,,,,,,,,,,,,,,,,,,,,,,,,,,,,,
,,,,,,,,,609eecb4c271bc10c8a0ed4d,23,Mężczyzna,2022-06-04_08h40.30.943,task,2021.1.4,Win32,144.0507058,628b806c463b948bc644b84f,629afd2aca11e57e234c6f57,,,,,,1,0,1,0,1,X V Q F H G B L J M P D K C T S W R N Z,,,,,,,,,,,,,,,,,,,,,,,,,,,,,,,,,,,,,,,,,,,,,,,,,,,,,,,,,,,,,,,,,,,,,,,,,,,,,,,,,,,,,,,,,,,,,
,,,,,,,,,609eecb4c271bc10c8a0ed4d,23,Mężczyzna,2022-06-04_08h40.30.943,task,2021.1.4,Win32,144.0507058,628b806c463b948bc644b84f,629afd2aca11e57e234c6f57,,,,,,2,0,2,0,1,X V Q F H G B L J M P D K C T S W R N Z,,,,,,,,,,,,,,,,,,,,,,,,,,,,,,,,,,,,,,,,,,,,,,,,,,,,,,,,,,,,,,,,,,,,,,,,,,,,,,,,,,,,,,,,,,,,,
,,,,,,,,,609eecb4c271bc10c8a0ed4d,23,Mężczyzna,2022-06-04_08h40.30.943,task,2021.1.4,Win32,144.0507058,628b806c463b948bc644b84f,629afd2aca11e57e234c6f57,,,,,,3,0,3,0,1,X V Q F H G B L J M P D K C T S W R N Z,,,,,,,,,,,,,,,,,,,,,,,,,,,,,,,,,,,,,,,,,,,,,,,,,,,,,,,,,,,,,,,,,,,,,,,,,,,,,,,,,,,,,,,,,,,,,
,,,,,,,,,609eecb4c271bc10c8a0ed4d,23,Mężczyzna,2022-06-04_08h40.30.943,task,2021.1.4,Win32,144.0507058,628b806c463b948bc644b84f,629afd2aca11e57e234c6f57,,,,,,4,0,4,0,1,X V Q F H G B L J M P D K C T S W R N Z,,,,,,,,,,,,,,,,,,,,,,,,,,,,,,,,,,,,,,,,,,,,,,,,,,,,,,,,,,,,,,,,,,,,,,,,,,,,,,,,,,,,,,,,,,,,,
,,,,,,,,,609eecb4c271bc10c8a0ed4d,23,Mężczyzna,2022-06-04_08h40.30.943,task,2021.1.4,Win32,144.0507058,628b806c463b948bc644b84f,629afd2aca11e57e234c6f57,,,,,,5,0,5,0,1,X V Q F H G B L J M P D K C T S W R N Z,,,,,,,,,,,,,,,,,,,,,,,,,,,,,,,,,,,,,,,,,,,,,,,,,,,,,,,,,,,,,,,,,,,,,,,,,,,,,,,,,,,,,,,,,,,,,
,,,,,,,,,609eecb4c271bc10c8a0ed4d,23,Mężczyzna,2022-06-04_08h40.30.943,task,2021.1.4,Win32,144.0507058,628b806c463b948bc644b84f,629afd2aca11e57e234c6f57,,,,,,6,0,6,0,1,X V Q F H G B L J M P D K C T S W R N Z,,,,,,,,,,,,,,,,,,,,,,,,,,,,,,,,,,,,,,,,,,,,,,,,,,,,,,,,,,,,,,,,,,,,,,,,,,,,,,,,,,,,,,,,,,,,,
,,,,,,,,,609eecb4c271bc10c8a0ed4d,23,Mężczyzna,2022-06-04_08h40.30.943,task,2021.1.4,Win32,144.0507058,628b806c463b948bc644b84f,629afd2aca11e57e234c6f57,,,,,,,,,,,,wmsjbq,"[""w"",""m"",""s"",""j"",""b"",""q""]","[1.3958999999761659,1.626699999988091,1.82469999998807,2.3636999999880572,2.671799999952327,2.990699999988067,6.246699999988095]",0,WMSJBQJ,12,0,12,0,1,,,,,,,,,,,,,,,,,,,,,,,,,,,,,,,,,,,,,,,,,,,,,,,,,,,,,,,,,,,,,,,,,,,,,,,,,,,,,,,,,,,
,,,,,,,,,609eecb4c271bc10c8a0ed4d,23,Mężczyzna,2022-06-04_08h40.30.943,task,2021.1.4,Win32,144.0507058,628b806c463b948bc644b84f,629afd2aca11e57e234c6f57,,,,,,,,,,,,,,,,,,,,,,space,6.4989,3,"[""3""]",1,[13.635800000011955],[13.635800000011955],0,0,0,3,1,Practice,4,(8/4) + 1,3,,,,,,,,,,,,,,,,,,,,,,,,,,,,,,,,,,,,,,,,,,,,,,,,,,,,,,,,,,,,,,,,,,,
,,,,,,,,,609eecb4c271bc10c8a0ed4d,23,Mężczyzna,2022-06-04_08h40.30.943,task,2021.1.4,Win32,144.0507058,628b806c463b948bc644b84f,629afd2aca11e57e234c6f57,,,,,,,,,,,,,,,,,,,,,,,,6,"[""6""]",1,[2.770500000000027],"[13.635800000011955,2.770500000000027]",0,1,1,6,1,Practice,7,(25/5) + 1,6,,,,,,,,,,,,,,,,,,,,,,,,,,,,,,,,,,,,,,,,,,,,,,,,,,,,,,,,,,,,,,,,,,,
,,,,,,,,,609eecb4c271bc10c8a0ed4d,23,Mężczyzna,2022-06-04_08h40.30.943,task,2021.1.4,Win32,144.0507058,628b806c463b948bc644b84f,629afd2aca11e57e234c6f57,,,,,,,,,,,,,,,,,,,,,,,,4,"[""4""]",1,[2.7271000000238246],"[13.635800000011955,2.770500000000027,2.7271000000238246]",0,2,2,4,1,Practice,5,(2x6) - 8,4,,,,,,,,,,,,,,,,,,,,,,,,,,,,,,,,,,,,,,,,,,,,,,,,,,,,,,,,,,,,,,,,,,,
,,,,,,,,,609eecb4c271bc10c8a0ed4d,23,Mężczyzna,2022-06-04_08h40.30.943,task,2021.1.4,Win32,144.0507058,628b806c463b948bc644b84f,629afd2aca11e57e234c6f57,,,,,,,,,,,,,,,,,,,,,,,,0,"[""0""]",1,[1.8743999999761058],"[13.635800000011955,2.770500000000027,2.7271000000238246,1.8743999999761058]",0,3,3,0,1,Practice,1,(3x3) -  9,0,,,,,,,,,,,,,,,,,,,,,,,,,,,,,,,,,,,,,,,,,,,,,,,,,,,,,,,,,,,,,,,,,,,
,,,,,,,,,609eecb4c271bc10c8a0ed4d,23,Mężczyzna,2022-06-04_08h40.30.943,task,2021.1.4,Win32,144.0507058,628b806c463b948bc644b84f,629afd2aca11e57e234c6f57,,,,,,,,,,,,,,,,,,,,,,,,1,"[""1""]",1,[1.8240999999642327],"[13.635800000011955,2.770500000000027,2.7271000000238246,1.8743999999761058,1.8240999999642327]",0,4,4,1,1,Practice,2,(4x4) - 15,1,,,,,,,,,,,,,,,,,,,,,,,,,,,,,,,,,,,,,,,,,,,,,,,,,,,,,,,,,,,,,,,,,,,
,,,,,,,,,609eecb4c271bc10c8a0ed4d,23,Mężczyzna,2022-06-04_08h40.30.943,task,2021.1.4,Win32,144.0507058,628b806c463b948bc644b84f,629afd2aca11e57e234c6f57,,,,,,,,,,,,,,,,,,,,,,,,2,"[""2""]",1,[1.6210999999642581],"[13.635800000011955,2.770500000000027,2.7271000000238246,1.8743999999761058,1.8240999999642327,1.6210999999642581]",0,5,5,2,1,Practice,3,(4x4) - 14,2,,,,,,,,,,,,,,,,,,,,,,,,,,,,,,,,,,,,,,,,,,,,,,,,,,,,,,,,,,,,,,,,,,,
,,,,,,,,,609eecb4c271bc10c8a0ed4d,23,Mężczyzna,2022-06-04_08h40.30.943,task,2021.1.4,Win32,144.0507058,628b806c463b948bc644b84f,629afd2aca11e57e234c6f57,,,,,,,,,,,,,,,,,,,,,,,,8,"[""8""]",1,[1.8608999999762545],"[13.635800000011955,2.770500000000027,2.7271000000238246,1.8743999999761058,1.8240999999642327,1.6210999999642581,1.8608999999762545]",0,6,6,8,1,Practice,9,(3x3) - 1,8,,,,,,,,,,,,,,,,,,,,,,,,,,,,,,,,,,,,,,,,,,,,,,,,,,,,,,,,,,,,,,,,,,,
,,,,,,,,,609eecb4c271bc10c8a0ed4d,23,Mężczyzna,2022-06-04_08h40.30.943,task,2021.1.4,Win32,144.0507058,628b806c463b948bc644b84f,629afd2aca11e57e234c6f57,,,,,,,,,,,,,,,,,,,,,,,,5,"[""5""]",1,[2.5838000000119337],"[13.635800000011955,2.770500000000027,2.7271000000238246,1.8743999999761058,1.8240999999642327,1.6210999999642581,1.8608999999762545,2.5838000000119337]",0,7,7,5,1,Practice,6,(4/2) + 3,5,,,,,,,,,,,,,,,,,,,,,,,,,,,,,,,,,,,,,,,,,,,,,,,,,,,,,,,,,,,,,,,,,,,
,,,,,,,,,609eecb4c271bc10c8a0ed4d,23,Mężczyzna,2022-06-04_08h40.30.943,task,2021.1.4,Win32,144.0507058,628b806c463b948bc644b84f,629afd2aca11e57e234c6f57,,,,,,,,,,,,,,,,,,,,,,,,9,"[""9""]",1,[2.309799999952361],"[13.635800000011955,2.770500000000027,2.7271000000238246,1.8743999999761058,1.8240999999642327,1.6210999999642581,1.8608999999762545,2.5838000000119337,2.309799999952361]",0,8,8,9,1,Practice,10,(20/2) - 1,9,,,,,,,,,,,,,,,,,,,,,,,,,,,,,,,,,,,,,,,,,,,,,,,,,,,,,,,,,,,,,,,,,,,
,,,,,,,,,609eecb4c271bc10c8a0ed4d,23,Mężczyzna,2022-06-04_08h40.30.943,task,2021.1.4,Win32,144.0507058,628b806c463b948bc644b84f,629afd2aca11e57e234c6f57,,,,,,,,,,,,,,,,,,,,,,,,7,"[""7""]",1,[1.8841999999880272],"[13.635800000011955,2.770500000000027,2.7271000000238246,1.8743999999761058,1.8240999999642327,1.6210999999642581,1.8608999999762545,2.5838000000119337,2.309799999952361,1.8841999999880272]",0,9,9,7,1,Practice,8,(5x5) - 18,7,,,,,,,,,,,,,,,,,,,,,,,,,,,,,,,,,,,,,,,,,,,,,,,,,,,,,,,,,,,,,,,,,,,
,,,,,,,,,609eecb4c271bc10c8a0ed4d,23,Mężczyzna,2022-06-04_08h40.30.943,task,2021.1.4,Win32,144.0507058,628b806c463b948bc644b84f,629afd2aca11e57e234c6f57,,,,,,,,,,,,,,,,,,,,,,,,,,,,,,,,,,,,,,1,33.0917,2.206113333,132.2021038,2.968749499,9.865487041,space,1.4868,0,0,0,0,1,,,,,,,,,,,,,,,,,,,,,,,,,,,,,,,,,,,,,,,,,,,,,,,,,,,,,,
,,,,,,,,,609eecb4c271bc10c8a0ed4d,23,Mężczyzna,2022-06-04_08h40.30.943,task,2021.1.4,Win32,144.0507058,628b806c463b948bc644b84f,629afd2aca11e57e234c6f57,,,,,,,,,,,,,,,,,,,,,,,,0,,,,,,,,,,Practice,1,(3x3) -  9,0,,,,,,,,,,,,,,space,21.0811,"[""0""]",1,[2.5296000000238337],1,0,0,0,0,1,,,,,,,,,,,,,,,,,,,,,,,,,,,,,,,,,,,,,,,,,,,
,,,,,,,,,609eecb4c271bc10c8a0ed4d,23,Mężczyzna,2022-06-04_08h40.30.943,task,2021.1.4,Win32,144.0507058,628b806c463b948bc644b84f,629afd2aca11e57e234c6f57,,,,,,,,,,,X V Q F H G B L J M P D K C T S W R N Z,,,,,,,,,,,,,,,,,,,,,,,,,,,,,,,,,,,,,,,,,,,,,,,,,,,0,0,0,0,1,,,,,,,,,,,,,,,,,,,,,,,,,,,,,,,,,,,,,,
,,,,,,,,,609eecb4c271bc10c8a0ed4d,23,Mężczyzna,2022-06-04_08h40.30.943,task,2021.1.4,Win32,144.0507058,628b806c463b948bc644b84f,629afd2aca11e57e234c6f57,,,,,,,,,,,,,,,,,,,,,,,,1,,,,,,,,,,Practice,2,(4x4) - 15,1,,,,,,,,,,,,,,,,"[""1""]",1,[1.8326999999881082],1,0,0,0,1,1,,,,,,,,,,,,,,,,,,,,,,,,,,,,,,,,,,,,,,,,,,,
,,,,,,,,,609eecb4c271bc10c8a0ed4d,23,Mężczyzna,2022-06-04_08h40.30.943,task,2021.1.4,Win32,144.0507058,628b806c463b948bc644b84f,629afd2aca11e57e234c6f57,,,,,,,,,,,X V Q F H G B L J M P D K C T S W R N Z,,,,,,,,,,,,,,,,,,,,,,,,,,,,,,,,,,,,,,,,,,,,,,,,,,,1,0,1,0,1,,,,,,,,,,,,,,,,,,,,,,,,,,,,,,,,,,,,,,
,,,,,,,,,609eecb4c271bc10c8a0ed4d,23,Mężczyzna,2022-06-04_08h40.30.943,task,2021.1.4,Win32,144.0507058,628b806c463b948bc644b84f,629afd2aca11e57e234c6f57,,,,,,,,,,,,,,,,,,,,,,,,,,,,,,,,,,,,,,,,,,,,,,,,,,,,,,,,,,,,,,,,,,,zw,"[""z"",""w""]",0,"[2.2040000000000646,2.4679000000357973,3.1948000000119237]",1,0,0,0,0,1,,,,,,,,,,,,,,,,,,,,,,,,,,,,
,,,,,,,,,609eecb4c271bc10c8a0ed4d,23,Mężczyzna,2022-06-04_08h40.30.943,task,2021.1.4,Win32,144.0507058,628b806c463b948bc644b84f,629afd2aca11e57e234c6f57,,,,,,,,,,,,,,,,,,,,,,,,3,,,,,,,,,,Practice,4,(8/4) + 1,3,,,,,,,,,,,,,,,,"[""3""]",1,[1.6270000000000664],1,0,0,0,3,1,,,,,,,,,,,,,,,,,,,,,,,,,,,,,,,,,,,,,,,,,,,
,,,,,,,,,609eecb4c271bc10c8a0ed4d,23,Mężczyzna,2022-06-04_08h40.30.943,task,2021.1.4,Win32,144.0507058,628b806c463b948bc644b84f,629afd2aca11e57e234c6f57,,,,,,,,,,,X V Q F H G B L J M P D K C T S W R N Z,,,,,,,,,,,,,,,,,,,,,,,,,,,,,,,,,,,,,,,,,,,,,,,,,,,0,0,0,0,1,,,,,,,,,,,,,,,,,,,,,,,,,,,,,,,,,,,,,,
,,,,,,,,,609eecb4c271bc10c8a0ed4d,23,Mężczyzna,2022-06-04_08h40.30.943,task,2021.1.4,Win32,144.0507058,628b806c463b948bc644b84f,629afd2aca11e57e234c6f57,,,,,,,,,,,,,,,,,,,,,,,,1,,,,,,,,,,Practice,2,(4x4) - 15,1,,,,,,,,,,,,,,,,"[""1""]",1,[2.0275999999641954],1,0,0,0,1,1,,,,,,,,,,,,,,,,,,,,,,,,,,,,,,,,,,,,,,,,,,,
,,,,,,,,,609eecb4c271bc10c8a0ed4d,23,Mężczyzna,2022-06-04_08h40.30.943,task,2021.1.4,Win32,144.0507058,628b806c463b948bc644b84f,629afd2aca11e57e234c6f57,,,,,,,,,,,X V Q F H G B L J M P D K C T S W R N Z,,,,,,,,,,,,,,,,,,,,,,,,,,,,,,,,,,,,,,,,,,,,,,,,,,,1,0,1,0,1,,,,,,,,,,,,,,,,,,,,,,,,,,,,,,,,,,,,,,
,,,,,,,,,609eecb4c271bc10c8a0ed4d,23,Mężczyzna,2022-06-04_08h40.30.943,task,2021.1.4,Win32,144.0507058,628b806c463b948bc644b84f,629afd2aca11e57e234c6f57,,,,,,,,,,,,,,,,,,,,,,,,,,,,,,,,,,,,,,,,,,,,,,,,,,,,,,,,,,,,,,,,,,,xm,"[""x"",""m""]",0,"[1.7093000000119218,2.017100000023788,2.64420000004759]",1,1,0,1,0,1,,,,,,,,,,,,,,,,,,,,,,,,,,,,
,,,,,,,,,609eecb4c271bc10c8a0ed4d,23,Mężczyzna,2022-06-04_08h40.30.943,task,2021.1.4,Win32,144.0507058,628b806c463b948bc644b84f,629afd2aca11e57e234c6f57,,,,,,,,,,,,,,,,,,,,,,,,3,,,,,,,,,,Practice,4,(8/4) + 1,3,,,,,,,,,,,,,,,,"[""3""]",1,[3.080800000011891],1,0,0,0,3,1,,,,,,,,,,,,,,,,,,,,,,,,,,,,,,,,,,,,,,,,,,,
,,,,,,,,,609eecb4c271bc10c8a0ed4d,23,Mężczyzna,2022-06-04_08h40.30.943,task,2021.1.4,Win32,144.0507058,628b806c463b948bc644b84f,629afd2aca11e57e234c6f57,,,,,,,,,,,X V Q F H G B L J M P D K C T S W R N Z,,,,,,,,,,,,,,,,,,,,,,,,,,,,,,,,,,,,,,,,,,,,,,,,,,,0,0,0,0,1,,,,,,,,,,,,,,,,,,,,,,,,,,,,,,,,,,,,,,
,,,,,,,,,609eecb4c271bc10c8a0ed4d,23,Mężczyzna,2022-06-04_08h40.30.943,task,2021.1.4,Win32,144.0507058,628b806c463b948bc644b84f,629afd2aca11e57e234c6f57,,,,,,,,,,,,,,,,,,,,,,,,7,,,,,,,,,,Practice,8,(5x5) - 18,7,,,,,,,,,,,,,,,,"[""7""]",1,[4.5146999999881245],1,0,0,0,7,1,,,,,,,,,,,,,,,,,,,,,,,,,,,,,,,,,,,,,,,,,,,
,,,,,,,,,609eecb4c271bc10c8a0ed4d,23,Mężczyzna,2022-06-04_08h40.30.943,task,2021.1.4,Win32,144.0507058,628b806c463b948bc644b84f,629afd2aca11e57e234c6f57,,,,,,,,,,,X V Q F H G B L J M P D K C T S W R N Z,,,,,,,,,,,,,,,,,,,,,,,,,,,,,,,,,,,,,,,,,,,,,,,,,,,1,0,1,0,1,,,,,,,,,,,,,,,,,,,,,,,,,,,,,,,,,,,,,,
,,,,,,,,,609eecb4c271bc10c8a0ed4d,23,Mężczyzna,2022-06-04_08h40.30.943,task,2021.1.4,Win32,144.0507058,628b806c463b948bc644b84f,629afd2aca11e57e234c6f57,,,,,,,,,,,,,,,,,,,,,,,,,,,,,,,,,,,,,,,,,,,,,,,,,,,,,,,,,,,,,,,,,,,gm,"[""g"",""m""]",0,"[1.535399999976221,1.7113999999761518,2.250399999976139]",1,2,0,2,0,1,,,,,,,,,,,,,,,,,,,,,,,,,,,,
,,,,,,,,,609eecb4c271bc10c8a0ed4d,23,Mężczyzna,2022-06-04_08h40.30.943,task,2021.1.4,Win32,144.0507058,628b806c463b948bc644b84f,629afd2aca11e57e234c6f57,,,,,,,,,,,,,,,,,,,,,,,,6,,,,,,,,,,Task,37,(3/3) + 5,6,,,,,,,,,,,,,,,,,,,1,,,,,,,,,,,,,,,,,,,,,space,13.1116,"[""6""]",1,[7.216800000011858],0,0,0,36,1,,,,,,,,,,,,,,,,,,
,,,,,,,,,609eecb4c271bc10c8a0ed4d,23,Mężczyzna,2022-06-04_08h40.30.943,task,2021.1.4,Win32,144.0507058,628b806c463b948bc644b84f,629afd2aca11e57e234c6f57,,,,,,,,,,,X V Q F H G B L J M P D K C T S W R N Z,,,,,,,,,,,,,,,,,,,,,,,,,,,,,,,,,,,,,,,,,,,,,,,,,,,,,,,,,,,,,,,,,,,,,,,,,,,,0,0,0,0,1,,,,,,,,,,,,,
,,,,,,,,,609eecb4c271bc10c8a0ed4d,23,Mężczyzna,2022-06-04_08h40.30.943,task,2021.1.4,Win32,144.0507058,628b806c463b948bc644b84f,629afd2aca11e57e234c6f57,,,,,,,,,,,,,,,,,,,,,,,,1,,,,,,,,,,Task,34,(9/3) - 2,1,,,,,,,,,,,,,,,,,,,1,,,,,,,,,,,,,,,,,,,,,,,"[""1""]",1,[3.068699999988098],0,0,0,33,1,,,,,,,,,,,,,,,,,,
,,,,,,,,,609eecb4c271bc10c8a0ed4d,23,Mężczyzna,2022-06-04_08h40.30.943,task,2021.1.4,Win32,144.0507058,628b806c463b948bc644b84f,629afd2aca11e57e234c6f57,,,,,,,,,,,X V Q F H G B L J M P D K C T S W R N Z,,,,,,,,,,,,,,,,,,,,,,,,,,,,,,,,,,,,,,,,,,,,,,,,,,,,,,,,,,,,,,,,,,,,,,,,,,,,1,0,1,0,1,,,,,,,,,,,,,
,,,,,,,,,609eecb4c271bc10c8a0ed4d,23,Mężczyzna,2022-06-04_08h40.30.943,task,2021.1.4,Win32,144.0507058,628b806c463b948bc644b84f,629afd2aca11e57e234c6f57,,,,,,,,,,,,,,,,,,,,,,,,,,,,,,,,,,,,,,,,,,,,,,,,,,,,,,,,,,,,,,,,,,,,,,,,,,,,,,,,,,,,,,,,,,,,zl,"[""z"",""l""]",0,"[1.8306999999881555,2.0605999999643245,2.6885999999642536]",1,ZL,0,0,0,0,1,,
,,,,,,,,,609eecb4c271bc10c8a0ed4d,23,Mężczyzna,2022-06-04_08h40.30.943,task,2021.1.4,Win32,144.0507058,628b806c463b948bc644b84f,629afd2aca11e57e234c6f57,,,,,,,,,,,,,,,,,,,,,,,,2,,,,,,,,,,Task,26,(2x9) - 16,2,,,,,,,,,,,,,,,,,,,1,,,,,,,,,,,,,,,,,,,,,,,"[""2""]",1,[4.314199999988091],0,0,0,25,1,,,,,,,,,,,,,,,,,,
,,,,,,,,,609eecb4c271bc10c8a0ed4d,23,Mężczyzna,2022-06-04_08h40.30.943,task,2021.1.4,Win32,144.0507058,628b806c463b948bc644b84f,629afd2aca11e57e234c6f57,,,,,,,,,,,X V Q F H G B L J M P D K C T S W R N Z,,,,,,,,,,,,,,,,,,,,,,,,,,,,,,,,,,,,,,,,,,,,,,,,,,,,,,,,,,,,,,,,,,,,,,,,,,,,0,0,0,0,1,,,,,,,,,,,,,
,,,,,,,,,609eecb4c271bc10c8a0ed4d,23,Mężczyzna,2022-06-04_08h40.30.943,task,2021.1.4,Win32,144.0507058,628b806c463b948bc644b84f,629afd2aca11e57e234c6f57,,,,,,,,,,,,,,,,,,,,,,,,2,,,,,,,,,,Task,10,(2x5) - 8,2,,,,,,,,,,,,,,,,,,,1,,,,,,,,,,,,,,,,,,,,,,,"[""2""]",1,[2.149400000035712],0,0,0,9,1,,,,,,,,,,,,,,,,,,
,,,,,,,,,609eecb4c271bc10c8a0ed4d,23,Mężczyzna,2022-06-04_08h40.30.943,task,2021.1.4,Win32,144.0507058,628b806c463b948bc644b84f,629afd2aca11e57e234c6f57,,,,,,,,,,,X V Q F H G B L J M P D K C T S W R N Z,,,,,,,,,,,,,,,,,,,,,,,,,,,,,,,,,,,,,,,,,,,,,,,,,,,,,,,,,,,,,,,,,,,,,,,,,,,,1,0,1,0,1,,,,,,,,,,,,,
,,,,,,,,,609eecb4c271bc10c8a0ed4d,23,Mężczyzna,2022-06-04_08h40.30.943,task,2021.1.4,Win32,144.0507058,628b806c463b948bc644b84f,629afd2aca11e57e234c6f57,,,,,,,,,,,,,,,,,,,,,,,,3,,,,,,,,,,Task,20,(18/9) + 1,3,,,,,,,,,,,,,,,,,,,1,,,,,,,,,,,,,,,,,,,,,,,"[""3""]",1,[3.0434999999999945],0,0,0,19,1,,,,,,,,,,,,,,,,,,
,,,,,,,,,609eecb4c271bc10c8a0ed4d,23,Mężczyzna,2022-06-04_08h40.30.943,task,2021.1.4,Win32,144.0507058,628b806c463b948bc644b84f,629afd2aca11e57e234c6f57,,,,,,,,,,,X V Q F H G B L J M P D K C T S W R N Z,,,,,,,,,,,,,,,,,,,,,,,,,,,,,,,,,,,,,,,,,,,,,,,,,,,,,,,,,,,,,,,,,,,,,,,,,,,,2,0,2,0,1,,,,,,,,,,,,,
,,,,,,,,,609eecb4c271bc10c8a0ed4d,23,Mężczyzna,2022-06-04_08h40.30.943,task,2021.1.4,Win32,144.0507058,628b806c463b948bc644b84f,629afd2aca11e57e234c6f57,,,,,,,,,,,,,,,,,,,,,,,,,,,,,,,,,,,,,,,,,,,,,,,,,,,,,,,,,,,,,,,,,,,,,,,,,,,,,,,,,,,,,,,,,,,,crn,"[""c"",""r"",""n""]",0,"[1.2502999999524036,1.5032999999523327,1.72329999995236,2.108500000000049]",1,CRN,1,0,1,0,1,,
,,,,,,,,,609eecb4c271bc10c8a0ed4d,23,Mężczyzna,2022-06-04_08h40.30.943,task,2021.1.4,Win32,144.0507058,628b806c463b948bc644b84f,629afd2aca11e57e234c6f57,,,,,,,,,,,,,,,,,,,,,,,,0,,,,,,,,,,Task,25,(10/5) - 2,0,,,,,,,,,,,,,,,,,,,1,,,,,,,,,,,,,,,,,,,,,,,"[""0""]",1,[2.8131999999881145],0,0,0,24,1,,,,,,,,,,,,,,,,,,
,,,,,,,,,609eecb4c271bc10c8a0ed4d,23,Mężczyzna,2022-06-04_08h40.30.943,task,2021.1.4,Win32,144.0507058,628b806c463b948bc644b84f,629afd2aca11e57e234c6f57,,,,,,,,,,,X V Q F H G B L J M P D K C T S W R N Z,,,,,,,,,,,,,,,,,,,,,,,,,,,,,,,,,,,,,,,,,,,,,,,,,,,,,,,,,,,,,,,,,,,,,,,,,,,,0,0,0,0,1,,,,,,,,,,,,,
,,,,,,,,,609eecb4c271bc10c8a0ed4d,23,Mężczyzna,2022-06-04_08h40.30.943,task,2021.1.4,Win32,144.0507058,628b806c463b948bc644b84f,629afd2aca11e57e234c6f57,,,,,,,,,,,,,,,,,,,,,,,,2,,,,,,,,,,Task,10,(2x5) - 8,2,,,,,,,,,,,,,,,,,,,1,,,,,,,,,,,,,,,,,,,,,,,"[""2""]",1,[1.504800000011869],0,0,0,9,1,,,,,,,,,,,,,,,,,,
,,,,,,,,,609eecb4c271bc10c8a0ed4d,23,Mężczyzna,2022-06-04_08h40.30.943,task,2021.1.4,Win32,144.0507058,628b806c463b948bc644b84f,629afd2aca11e57e234c6f57,,,,,,,,,,,X V Q F H G B L J M P D K C T S W R N Z,,,,,,,,,,,,,,,,,,,,,,,,,,,,,,,,,,,,,,,,,,,,,,,,,,,,,,,,,,,,,,,,,,,,,,,,,,,,1,0,1,0,1,,,,,,,,,,,,,
,,,,,,,,,609eecb4c271bc10c8a0ed4d,23,Mężczyzna,2022-06-04_08h40.30.943,task,2021.1.4,Win32,144.0507058,628b806c463b948bc644b84f,629afd2aca11e57e234c6f57,,,,,,,,,,,,,,,,,,,,,,,,8,,,,,,,,,,Task,39,(5x3) - 7,8,,,,,,,,,,,,,,,,,,,1,,,,,,,,,,,,,,,,,,,,,,,"[""8""]",1,[2.2271000000238246],0,0,0,38,1,,,,,,,,,,,,,,,,,,
,,,,,,,,,609eecb4c271bc10c8a0ed4d,23,Mężczyzna,2022-06-04_08h40.30.943,task,2021.1.4,Win32,144.0507058,628b806c463b948bc644b84f,629afd2aca11e57e234c6f57,,,,,,,,,,,X V Q F H G B L J M P D K C T S W R N Z,,,,,,,,,,,,,,,,,,,,,,,,,,,,,,,,,,,,,,,,,,,,,,,,,,,,,,,,,,,,,,,,,,,,,,,,,,,,2,0,2,0,1,,,,,,,,,,,,,
,,,,,,,,,609eecb4c271bc10c8a0ed4d,23,Mężczyzna,2022-06-04_08h40.30.943,task,2021.1.4,Win32,144.0507058,628b806c463b948bc644b84f,629afd2aca11e57e234c6f57,,,,,,,,,,,,,,,,,,,,,,,,0,,,,,,,,,,Task,33,(1/1) - 1,0,,,,,,,,,,,,,,,,,,,1,,,,,,,,,,,,,,,,,,,,,,,"[""0""]",1,[2.908999999999992],0,0,0,32,1,,,,,,,,,,,,,,,,,,
,,,,,,,,,609eecb4c271bc10c8a0ed4d,23,Mężczyzna,2022-06-04_08h40.30.943,task,2021.1.4,Win32,144.0507058,628b806c463b948bc644b84f,629afd2aca11e57e234c6f57,,,,,,,,,,,X V Q F H G B L J M P D K C T S W R N Z,,,,,,,,,,,,,,,,,,,,,,,,,,,,,,,,,,,,,,,,,,,,,,,,,,,,,,,,,,,,,,,,,,,,,,,,,,,,3,0,3,0,1,,,,,,,,,,,,,
,,,,,,,,,609eecb4c271bc10c8a0ed4d,23,Mężczyzna,2022-06-04_08h40.30.943,task,2021.1.4,Win32,144.0507058,628b806c463b948bc644b84f,629afd2aca11e57e234c6f57,,,,,,,,,,,,,,,,,,,,,,,,,,,,,,,,,,,,,,,,,,,,,,,,,,,,,,,,,,,,,,,,,,,,,,,,,,,,,,,,,,,,,,,,,,,,xqvf,"[""x"",""q"",""v"",""f""]",0,"[2.0506000000239055,2.6003000000119982,3.007399999976201,3.2713000000119337,4.096300000011979]",1,XQVF,2,0,2,0,1,,
,,,,,,,,,609eecb4c271bc10c8a0ed4d,23,Mężczyzna,2022-06-04_08h40.30.943,task,2021.1.4,Win32,144.0507058,628b806c463b948bc644b84f,629afd2aca11e57e234c6f57,,,,,,,,,,,,,,,,,,,,,,,,9,,,,,,,,,,Task,24,(2x2) + 5,9,,,,,,,,,,,,,,,,,,,1,,,,,,,,,,,,,,,,,,,,,,,"[""9""]",1,[2.3271000000238473],0,0,0,23,1,,,,,,,,,,,,,,,,,,
,,,,,,,,,609eecb4c271bc10c8a0ed4d,23,Mężczyzna,2022-06-04_08h40.30.943,task,2021.1.4,Win32,144.0507058,628b806c463b948bc644b84f,629afd2aca11e57e234c6f57,,,,,,,,,,,X V Q F H G B L J M P D K C T S W R N Z,,,,,,,,,,,,,,,,,,,,,,,,,,,,,,,,,,,,,,,,,,,,,,,,,,,,,,,,,,,,,,,,,,,,,,,,,,,,0,0,0,0,1,,,,,,,,,,,,,
,,,,,,,,,609eecb4c271bc10c8a0ed4d,23,Mężczyzna,2022-06-04_08h40.30.943,task,2021.1.4,Win32,144.0507058,628b806c463b948bc644b84f,629afd2aca11e57e234c6f57,,,,,,,,,,,,,,,,,,,,,,,,7,,,,,,,,,,Task,31,(4/2) + 5,7,,,,,,,,,,,,,,,,,,,1,,,,,,,,,,,,,,,,,,,,,,,"[""7""]",1,[2.43280000001198],0,0,0,30,1,,,,,,,,,,,,,,,,,,
,,,,,,,,,609eecb4c271bc10c8a0ed4d,23,Mężczyzna,2022-06-04_08h40.30.943,task,2021.1.4,Win32,144.0507058,628b806c463b948bc644b84f,629afd2aca11e57e234c6f57,,,,,,,,,,,X V Q F H G B L J M P D K C T S W R N Z,,,,,,,,,,,,,,,,,,,,,,,,,,,,,,,,,,,,,,,,,,,,,,,,,,,,,,,,,,,,,,,,,,,,,,,,,,,,1,0,1,0,1,,,,,,,,,,,,,
,,,,,,,,,609eecb4c271bc10c8a0ed4d,23,Mężczyzna,2022-06-04_08h40.30.943,task,2021.1.4,Win32,144.0507058,628b806c463b948bc644b84f,629afd2aca11e57e234c6f57,,,,,,,,,,,,,,,,,,,,,,,,8,,,,,,,,,,Task,23,(2x3) + 2,8,,,,,,,,,,,,,,,,,,,1,,,,,,,,,,,,,,,,,,,,,,,"[""8""]",1,[1.7853000000119437],0,0,0,22,1,,,,,,,,,,,,,,,,,,
,,,,,,,,,609eecb4c271bc10c8a0ed4d,23,Mężczyzna,2022-06-04_08h40.30.943,task,2021.1.4,Win32,144.0507058,628b806c463b948bc644b84f,629afd2aca11e57e234c6f57,,,,,,,,,,,X V Q F H G B L J M P D K C T S W R N Z,,,,,,,,,,,,,,,,,,,,,,,,,,,,,,,,,,,,,,,,,,,,,,,,,,,,,,,,,,,,,,,,,,,,,,,,,,,,2,0,2,0,1,,,,,,,,,,,,,
,,,,,,,,,609eecb4c271bc10c8a0ed4d,23,Mężczyzna,2022-06-04_08h40.30.943,task,2021.1.4,Win32,144.0507058,628b806c463b948bc644b84f,629afd2aca11e57e234c6f57,,,,,,,,,,,,,,,,,,,,,,,,0,,,,,,,,,,Task,33,(1/1) - 1,0,,,,,,,,,,,,,,,,,,,1,,,,,,,,,,,,,,,,,,,,,,,"[""0""]",1,[1.243900000035751],0,0,0,32,1,,,,,,,,,,,,,,,,,,
,,,,,,,,,609eecb4c271bc10c8a0ed4d,23,Mężczyzna,2022-06-04_08h40.30.943,task,2021.1.4,Win32,144.0507058,628b806c463b948bc644b84f,629afd2aca11e57e234c6f57,,,,,,,,,,,X V Q F H G B L J M P D K C T S W R N Z,,,,,,,,,,,,,,,,,,,,,,,,,,,,,,,,,,,,,,,,,,,,,,,,,,,,,,,,,,,,,,,,,,,,,,,,,,,,3,0,3,0,1,,,,,,,,,,,,,
,,,,,,,,,609eecb4c271bc10c8a0ed4d,23,Mężczyzna,2022-06-04_08h40.30.943,task,2021.1.4,Win32,144.0507058,628b806c463b948bc644b84f,629afd2aca11e57e234c6f57,,,,,,,,,,,,,,,,,,,,,,,,6,,,,,,,,,,Task,13,(3x4) - 6,6,,,,,,,,,,,,,,,,,,,1,,,,,,,,,,,,,,,,,,,,,,,"[""6""]",1,[1.8381000000238146],0,0,0,12,1,,,,,,,,,,,,,,,,,,
,,,,,,,,,609eecb4c271bc10c8a0ed4d,23,Mężczyzna,2022-06-04_08h40.30.943,task,2021.1.4,Win32,144.0507058,628b806c463b948bc644b84f,629afd2aca11e57e234c6f57,,,,,,,,,,,X V Q F H G B L J M P D K C T S W R N Z,,,,,,,,,,,,,,,,,,,,,,,,,,,,,,,,,,,,,,,,,,,,,,,,,,,,,,,,,,,,,,,,,,,,,,,,,,,,4,0,4,0,1,,,,,,,,,,,,,
,,,,,,,,,609eecb4c271bc10c8a0ed4d,23,Mężczyzna,2022-06-04_08h40.30.943,task,2021.1.4,Win32,144.0507058,628b806c463b948bc644b84f,629afd2aca11e57e234c6f57,,,,,,,,,,,,,,,,,,,,,,,,,,,,,,,,,,,,,,,,,,,,,,,,,,,,,,,,,,,,,,,,,,,,,,,,,,,,,,,,,,,,,,,,,,,,fxqvq,"[""f"",""x"",""q"",""v"",""q""]",0,"[1.43959999996423,2.0446999999880973,2.5946999999881655,2.902699999988158,3.210699999988151,4.299599999964244]",1,FXQVQ,3,0,3,0,1,,
,,,,,,,,,609eecb4c271bc10c8a0ed4d,23,Mężczyzna,2022-06-04_08h40.30.943,task,2021.1.4,Win32,144.0507058,628b806c463b948bc644b84f,629afd2aca11e57e234c6f57,,,,,,,,,,,,,,,,,,,,,,,,5,,,,,,,,,,Task,22,(3x1) + 2,5,,,,,,,,,,,,,,,,,,,1,,,,,,,,,,,,,,,,,,,,,,,"[""5""]",1,[3.212100000023838],0,0,0,21,1,,,,,,,,,,,,,,,,,,
,,,,,,,,,609eecb4c271bc10c8a0ed4d,23,Mężczyzna,2022-06-04_08h40.30.943,task,2021.1.4,Win32,144.0507058,628b806c463b948bc644b84f,629afd2aca11e57e234c6f57,,,,,,,,,,,X V Q F H G B L J M P D K C T S W R N Z,,,,,,,,,,,,,,,,,,,,,,,,,,,,,,,,,,,,,,,,,,,,,,,,,,,,,,,,,,,,,,,,,,,,,,,,,,,,0,0,0,0,1,,,,,,,,,,,,,
,,,,,,,,,609eecb4c271bc10c8a0ed4d,23,Mężczyzna,2022-06-04_08h40.30.943,task,2021.1.4,Win32,144.0507058,628b806c463b948bc644b84f,629afd2aca11e57e234c6f57,,,,,,,,,,,,,,,,,,,,,,,,,,,,,,,,,,Task,38,(4x6) - 17,7,,,,,,,,,,,,,,,,,,,0,,,,,,,,,,,,,,,,,,,,,,,,0,,0,0,0,37,1,,,,,,,,,,,,,,,,,,
,,,,,,,,,609eecb4c271bc10c8a0ed4d,23,Mężczyzna,2022-06-04_08h40.30.943,task,2021.1.4,Win32,144.0507058,628b806c463b948bc644b84f,629afd2aca11e57e234c6f57,,,,,,,,,,,,,,,,,,,,,,,,5,,,,,,,,,,Task,12,(4x4) - 11,5,,,,,,,,,,,,,,,,,,,1,,,,,,,,,,,,,,,,,,,,,,,"[""5""]",1,[2.189999999999941],0,1,1,11,1,,,,,,,,,,,,,,,,,,
,,,,,,,,,609eecb4c271bc10c8a0ed4d,23,Mężczyzna,2022-06-04_08h40.30.943,task,2021.1.4,Win32,144.0507058,628b806c463b948bc644b84f,629afd2aca11e57e234c6f57,,,,,,,,,,,X V Q F H G B L J M P D K C T S W R N Z,,,,,,,,,,,,,,,,,,,,,,,,,,,,,,,,,,,,,,,,,,,,,,,,,,,,,,,,,,,,,,,,,,,,,,,,,,,,1,0,1,0,1,,,,,,,,,,,,,
,,,,,,,,,609eecb4c271bc10c8a0ed4d,23,Mężczyzna,2022-06-04_08h40.30.943,task,2021.1.4,Win32,144.0507058,628b806c463b948bc644b84f,629afd2aca11e57e234c6f57,,,,,,,,,,,,,,,,,,,,,,,,8,,,,,,,,,,Task,39,(5x3) - 7,8,,,,,,,,,,,,,,,,,,,1,,,,,,,,,,,,,,,,,,,,,,,"[""8""]",1,[1.6855999999642108],0,0,0,38,1,,,,,,,,,,,,,,,,,,
,,,,,,,,,609eecb4c271bc10c8a0ed4d,23,Mężczyzna,2022-06-04_08h40.30.943,task,2021.1.4,Win32,144.0507058,628b806c463b948bc644b84f,629afd2aca11e57e234c6f57,,,,,,,,,,,X V Q F H G B L J M P D K C T S W R N Z,,,,,,,,,,,,,,,,,,,,,,,,,,,,,,,,,,,,,,,,,,,,,,,,,,,,,,,,,,,,,,,,,,,,,,,,,,,,2,0,2,0,1,,,,,,,,,,,,,
,,,,,,,,,609eecb4c271bc10c8a0ed4d,23,Mężczyzna,2022-06-04_08h40.30.943,task,2021.1.4,Win32,144.0507058,628b806c463b948bc644b84f,629afd2aca11e57e234c6f57,,,,,,,,,,,,,,,,,,,,,,,,9,,,,,,,,,,Task,40,(7x2) - 5,9,,,,,,,,,,,,,,,,,,,1,,,,,,,,,,,,,,,,,,,,,,,"[""9""]",1,[2.1610999999642218],0,0,0,39,1,,,,,,,,,,,,,,,,,,
,,,,,,,,,609eecb4c271bc10c8a0ed4d,23,Mężczyzna,2022-06-04_08h40.30.943,task,2021.1.4,Win32,144.0507058,628b806c463b948bc644b84f,629afd2aca11e57e234c6f57,,,,,,,,,,,X V Q F H G B L J M P D K C T S W R N Z,,,,,,,,,,,,,,,,,,,,,,,,,,,,,,,,,,,,,,,,,,,,,,,,,,,,,,,,,,,,,,,,,,,,,,,,,,,,3,0,3,0,1,,,,,,,,,,,,,
,,,,,,,,,609eecb4c271bc10c8a0ed4d,23,Mężczyzna,2022-06-04_08h40.30.943,task,2021.1.4,Win32,144.0507058,628b806c463b948bc644b84f,629afd2aca11e57e234c6f57,,,,,,,,,,,,,,,,,,,,,,,,1,,,,,,,,,,Task,34,(9/3) - 2,1,,,,,,,,,,,,,,,,,,,1,,,,,,,,,,,,,,,,,,,,,,,"[""1""]",1,[2.2076999999879945],0,0,0,33,1,,,,,,,,,,,,,,,,,,
,,,,,,,,,609eecb4c271bc10c8a0ed4d,23,Mężczyzna,2022-06-04_08h40.30.943,task,2021.1.4,Win32,144.0507058,628b806c463b948bc644b84f,629afd2aca11e57e234c6f57,,,,,,,,,,,X V Q F H G B L J M P D K C T S W R N Z,,,,,,,,,,,,,,,,,,,,,,,,,,,,,,,,,,,,,,,,,,,,,,,,,,,,,,,,,,,,,,,,,,,,,,,,,,,,4,0,4,0,1,,,,,,,,,,,,,
,,,,,,,,,609eecb4c271bc10c8a0ed4d,23,Mężczyzna,2022-06-04_08h40.30.943,task,2021.1.4,Win32,144.0507058,628b806c463b948bc644b84f,629afd2aca11e57e234c6f57,,,,,,,,,,,,,,,,,,,,,,,,1,,,,,,,,,,Task,34,(9/3) - 2,1,,,,,,,,,,,,,,,,,,,1,,,,,,,,,,,,,,,,,,,,,,,"[""1""]",1,[1.693600000023821],0,0,0,33,1,,,,,,,,,,,,,,,,,,
,,,,,,,,,609eecb4c271bc10c8a0ed4d,23,Mężczyzna,2022-06-04_08h40.30.943,task,2021.1.4,Win32,144.0507058,628b806c463b948bc644b84f,629afd2aca11e57e234c6f57,,,,,,,,,,,X V Q F H G B L J M P D K C T S W R N Z,,,,,,,,,,,,,,,,,,,,,,,,,,,,,,,,,,,,,,,,,,,,,,,,,,,,,,,,,,,,,,,,,,,,,,,,,,,,5,0,5,0,1,,,,,,,,,,,,,
,,,,,,,,,609eecb4c271bc10c8a0ed4d,23,Mężczyzna,2022-06-04_08h40.30.943,task,2021.1.4,Win32,144.0507058,628b806c463b948bc644b84f,629afd2aca11e57e234c6f57,,,,,,,,,,,,,,,,,,,,,,,,,,,,,,,,,,,,,,,,,,,,,,,,,,,,,,,,,,,,,,,,,,,,,,,,,,,,,,,,,,,,,,,,,,,,fkjflc,"[""f"",""k"",""j"",""f"",""l"",""c""]",0,"[1.8140999999642418,2.1770999999641845,2.451999999999998,2.881099999964249,3.100999999999999,3.5415999999642054,3.8930999999641926]",0,GKJFLC,4,0,4,0,1,,
,,,,,,,,,609eecb4c271bc10c8a0ed4d,23,Mężczyzna,2022-06-04_08h40.30.943,task,2021.1.4,Win32,144.0507058,628b806c463b948bc644b84f,629afd2aca11e57e234c6f57,,,,,,,,,,,,,,,,,,,,,,,,9,,,,,,,,,,Task,24,(2x2) + 5,9,,,,,,,,,,,,,,,,,,,1,,,,,,,,,,,,,,,,,,,,,,,"[""9""]",1,[1.6420000000000528],0,0,0,23,1,,,,,,,,,,,,,,,,,,
,,,,,,,,,609eecb4c271bc10c8a0ed4d,23,Mężczyzna,2022-06-04_08h40.30.943,task,2021.1.4,Win32,144.0507058,628b806c463b948bc644b84f,629afd2aca11e57e234c6f57,,,,,,,,,,,X V Q F H G B L J M P D K C T S W R N Z,,,,,,,,,,,,,,,,,,,,,,,,,,,,,,,,,,,,,,,,,,,,,,,,,,,,,,,,,,,,,,,,,,,,,,,,,,,,0,0,0,0,1,,,,,,,,,,,,,
,,,,,,,,,609eecb4c271bc10c8a0ed4d,23,Mężczyzna,2022-06-04_08h40.30.943,task,2021.1.4,Win32,144.0507058,628b806c463b948bc644b84f,629afd2aca11e57e234c6f57,,,,,,,,,,,,,,,,,,,,,,,,4,,,,,,,,,,Task,4,(1x5) - 1,4,,,,,,,,,,,,,,,,,,,1,,,,,,,,,,,,,,,,,,,,,,,"[""4""]",1,[2.1152000000475937],0,0,0,3,1,,,,,,,,,,,,,,,,,,
,,,,,,,,,609eecb4c271bc10c8a0ed4d,23,Mężczyzna,2022-06-04_08h40.30.943,task,2021.1.4,Win32,144.0507058,628b806c463b948bc644b84f,629afd2aca11e57e234c6f57,,,,,,,,,,,X V Q F H G B L J M P D K C T S W R N Z,,,,,,,,,,,,,,,,,,,,,,,,,,,,,,,,,,,,,,,,,,,,,,,,,,,,,,,,,,,,,,,,,,,,,,,,,,,,1,0,1,0,1,,,,,,,,,,,,,
,,,,,,,,,609eecb4c271bc10c8a0ed4d,23,Mężczyzna,2022-06-04_08h40.30.943,task,2021.1.4,Win32,144.0507058,628b806c463b948bc644b84f,629afd2aca11e57e234c6f57,,,,,,,,,,,,,,,,,,,,,,,,7,,,,,,,,,,Task,38,(4x6) - 17,7,,,,,,,,,,,,,,,,,,,1,,,,,,,,,,,,,,,,,,,,,,,"[""7""]",1,[2.1215000000000828],0,0,0,37,1,,,,,,,,,,,,,,,,,,
,,,,,,,,,609eecb4c271bc10c8a0ed4d,23,Mężczyzna,2022-06-04_08h40.30.943,task,2021.1.4,Win32,144.0507058,628b806c463b948bc644b84f,629afd2aca11e57e234c6f57,,,,,,,,,,,X V Q F H G B L J M P D K C T S W R N Z,,,,,,,,,,,,,,,,,,,,,,,,,,,,,,,,,,,,,,,,,,,,,,,,,,,,,,,,,,,,,,,,,,,,,,,,,,,,2,0,2,0,1,,,,,,,,,,,,,
,,,,,,,,,609eecb4c271bc10c8a0ed4d,23,Mężczyzna,2022-06-04_08h40.30.943,task,2021.1.4,Win32,144.0507058,628b806c463b948bc644b84f,629afd2aca11e57e234c6f57,,,,,,,,,,,,,,,,,,,,,,,,7,,,,,,,,,,Task,6,(12/2) + 1,7,,,,,,,,,,,,,,,,,,,1,,,,,,,,,,,,,,,,,,,,,,,"[""7""]",1,[3.513099999964197],0,0,0,5,1,,,,,,,,,,,,,,,,,,
,,,,,,,,,609eecb4c271bc10c8a0ed4d,23,Mężczyzna,2022-06-04_08h40.30.943,task,2021.1.4,Win32,144.0507058,628b806c463b948bc644b84f,629afd2aca11e57e234c6f57,,,,,,,,,,,X V Q F H G B L J M P D K C T S W R N Z,,,,,,,,,,,,,,,,,,,,,,,,,,,,,,,,,,,,,,,,,,,,,,,,,,,,,,,,,,,,,,,,,,,,,,,,,,,,3,0,3,0,1,,,,,,,,,,,,,
,,,,,,,,,609eecb4c271bc10c8a0ed4d,23,Mężczyzna,2022-06-04_08h40.30.943,task,2021.1.4,Win32,144.0507058,628b806c463b948bc644b84f,629afd2aca11e57e234c6f57,,,,,,,,,,,,,,,,,,,,,,,,2,,,,,,,,,,Task,26,(2x9) - 16,2,,,,,,,,,,,,,,,,,,,1,,,,,,,,,,,,,,,,,,,,,,,"[""2""]",1,[1.93540000003577],0,0,0,25,1,,,,,,,,,,,,,,,,,,
,,,,,,,,,609eecb4c271bc10c8a0ed4d,23,Mężczyzna,2022-06-04_08h40.30.943,task,2021.1.4,Win32,144.0507058,628b806c463b948bc644b84f,629afd2aca11e57e234c6f57,,,,,,,,,,,X V Q F H G B L J M P D K C T S W R N Z,,,,,,,,,,,,,,,,,,,,,,,,,,,,,,,,,,,,,,,,,,,,,,,,,,,,,,,,,,,,,,,,,,,,,,,,,,,,4,0,4,0,1,,,,,,,,,,,,,
,,,,,,,,,609eecb4c271bc10c8a0ed4d,23,Mężczyzna,2022-06-04_08h40.30.943,task,2021.1.4,Win32,144.0507058,628b806c463b948bc644b84f,629afd2aca11e57e234c6f57,,,,,,,,,,,,,,,,,,,,,,,,2,,,,,,,,,,Task,10,(2x5) - 8,2,,,,,,,,,,,,,,,,,,,1,,,,,,,,,,,,,,,,,,,,,,,"[""2""]",1,[2.0720000000000027],0,0,0,9,1,,,,,,,,,,,,,,,,,,
,,,,,,,,,609eecb4c271bc10c8a0ed4d,23,Mężczyzna,2022-06-04_08h40.30.943,task,2021.1.4,Win32,144.0507058,628b806c463b948bc644b84f,629afd2aca11e57e234c6f57,,,,,,,,,,,X V Q F H G B L J M P D K C T S W R N Z,,,,,,,,,,,,,,,,,,,,,,,,,,,,,,,,,,,,,,,,,,,,,,,,,,,,,,,,,,,,,,,,,,,,,,,,,,,,5,0,5,0,1,,,,,,,,,,,,,
,,,,,,,,,609eecb4c271bc10c8a0ed4d,23,Mężczyzna,2022-06-04_08h40.30.943,task,2021.1.4,Win32,144.0507058,628b806c463b948bc644b84f,629afd2aca11e57e234c6f57,,,,,,,,,,,,,,,,,,,,,,,,,,,,,,,,,,,,,,,,,,,,,,,,,,,,,,,,,,,,,,,,,,,,,,,,,,,,,,,,,,,,,,,,,,,,hzzfmck,"[""h"",""z"",""z"",""f"",""m"",""c"",""k""]",0,"[1.8559999999999945,2.0539999999999736,2.218899999976088,2.4610000000000127,2.8461999999880163,2.9668999999761354,4.331000000000017,5.386999999999944]",0,HZZMCK,5,0,5,0,1,,
,,,,,,,,,609eecb4c271bc10c8a0ed4d,23,Mężczyzna,2022-06-04_08h40.30.943,task,2021.1.4,Win32,144.0507058,628b806c463b948bc644b84f,629afd2aca11e57e234c6f57,,,,,,,,,,,,,,,,,,,,,,,,,,,,,,,,,,,,,,,,,,,,,,,,,,,,,,,,,,,,,,,,,,,,,,,,,,,,,,,,,,,,,,,,,,,,,,,,,,,,,,,space,1.2368
