key_resp_15.keys,key_resp_15.rt,key_resp_16.keys,key_resp_16.rt,key_resp_4.keys,key_resp_4.rt,next_letter.thisRepN,next_letter.thisTrialN,next_letter.thisN,next_letter.thisIndex,next_letter.ran,letter,participant,Wiek*,Płeć,date,expName,psychopyVersion,OS,frameRate,study_id,session,simple_recall,key_resp_5.keys,key_resp_5.rt,simple_recall_corr,simple_recall_corrkeys,next_level.thisRepN,next_level.thisTrialN,next_level.thisN,next_level.thisIndex,next_level.ran,key_resp_2.keys,key_resp_2.rt,digit_answer,key_resp.keys,key_resp.corr,key_resp.rt,RT_list,next_equation.thisRepN,next_equation.thisTrialN,next_equation.thisN,next_equation.thisIndex,next_equation.ran,Task,Trial,Problem,Operation_answer,processing_score,sumRT,meanRT,sumdiff,sd,RT,key_resp_3.keys,key_resp_3.rt,repeat_practice.thisRepN,repeat_practice.thisTrialN,repeat_practice.thisN,repeat_practice.thisIndex,repeat_practice.ran,key_resp_6.keys,key_resp_6.rt,key_resp_11.keys,key_resp_11.corr,key_resp_11.rt,operation_correct,repeat_if_wrong_prac.thisRepN,repeat_if_wrong_prac.thisTrialN,repeat_if_wrong_prac.thisN,repeat_if_wrong_prac.thisIndex,repeat_if_wrong_prac.ran,span_size_prac.thisRepN,span_size_prac.thisTrialN,span_size_prac.thisN,span_size_prac.thisIndex,span_size_prac.ran,complex_recall_practice,key_resp_9.keys,key_resp_9.corr,key_resp_9.rt,complex_prac_corr,span_recall_prac.thisRepN,span_recall_prac.thisTrialN,span_recall_prac.thisN,span_recall_prac.thisIndex,span_recall_prac.ran,key_resp_10.keys,key_resp_10.rt,key_resp_7.keys,key_resp_7.corr,repeat_if_wrong.thisRepN,repeat_if_wrong.thisTrialN,repeat_if_wrong.thisN,repeat_if_wrong.thisIndex,repeat_if_wrong.ran,key_resp_7.rt,span_size.thisRepN,span_size.thisTrialN,span_size.thisN,span_size.thisIndex,span_size.ran,complex_recall,key_resp_8.keys,key_resp_8.corr,key_resp_8.rt,complex_recall_corr,complex_recall_corrkeys,span_recall.thisRepN,span_recall.thisTrialN,span_recall.thisN,span_recall.thisIndex,span_recall.ran,key_resp_13.keys,key_resp_13.corr,key_resp_13.rt,random_loop.thisRepN,random_loop.thisTrialN,random_loop.thisN,random_loop.thisIndex,random_loop.ran,key_resp_12.keys,key_resp_12.rt
space,476.0044,space,17.106,space,9.1709,0,0,0,0,1,X V Q F H G B L J M P D K C T S W R N Z,609ea6976e377c8f9f77759a,22,Kobieta,2022-06-11_09h21.28.237,task,2021.1.4,Win32,60.37918126,6299f149e92ead563fba08ef,62a4424ba1a5d54b64e81f2d,,,,,,,,,,,,,,,,,,,,,,,,,,,,,,,,,,,,,,,,,,,,,,,,,,,,,,,,,,,,,,,,,,,,,,,,,,,,,,,,,,,,,,,,,,,,,,,,,,,,,
,,,,,,1,0,1,0,1,X V Q F H G B L J M P D K C T S W R N Z,609ea6976e377c8f9f77759a,22,Kobieta,2022-06-11_09h21.28.237,task,2021.1.4,Win32,60.37918126,6299f149e92ead563fba08ef,62a4424ba1a5d54b64e81f2d,,,,,,,,,,,,,,,,,,,,,,,,,,,,,,,,,,,,,,,,,,,,,,,,,,,,,,,,,,,,,,,,,,,,,,,,,,,,,,,,,,,,,,,,,,,,,,,,,,,,,
,,,,,,,,,,,,609ea6976e377c8f9f77759a,22,Kobieta,2022-06-11_09h21.28.237,task,2021.1.4,Win32,60.37918126,6299f149e92ead563fba08ef,62a4424ba1a5d54b64e81f2d,zd,"[""z"",""d""]","[1.171299999997018,1.496400000005906,3.1010999999940623]",1,ZD,0,0,0,0,1,,,,,,,,,,,,,,,,,,,,,,,,,,,,,,,,,,,,,,,,,,,,,,,,,,,,,,,,,,,,,,,,,,,,,,,,,,,,,,,,,,,,,,,,,,,
,,,,,,0,0,0,0,1,X V Q F H G B L J M P D K C T S W R N Z,609ea6976e377c8f9f77759a,22,Kobieta,2022-06-11_09h21.28.237,task,2021.1.4,Win32,60.37918126,6299f149e92ead563fba08ef,62a4424ba1a5d54b64e81f2d,,,,,,,,,,,,,,,,,,,,,,,,,,,,,,,,,,,,,,,,,,,,,,,,,,,,,,,,,,,,,,,,,,,,,,,,,,,,,,,,,,,,,,,,,,,,,,,,,,,,,
,,,,,,1,0,1,0,1,X V Q F H G B L J M P D K C T S W R N Z,609ea6976e377c8f9f77759a,22,Kobieta,2022-06-11_09h21.28.237,task,2021.1.4,Win32,60.37918126,6299f149e92ead563fba08ef,62a4424ba1a5d54b64e81f2d,,,,,,,,,,,,,,,,,,,,,,,,,,,,,,,,,,,,,,,,,,,,,,,,,,,,,,,,,,,,,,,,,,,,,,,,,,,,,,,,,,,,,,,,,,,,,,,,,,,,,
,,,,,,,,,,,,609ea6976e377c8f9f77759a,22,Kobieta,2022-06-11_09h21.28.237,task,2021.1.4,Win32,60.37918126,6299f149e92ead563fba08ef,62a4424ba1a5d54b64e81f2d,vr,"[""v"",""r""]","[1.1701999999880854,1.3100000000000591,1.7501999999881264]",1,VR,1,0,1,0,1,,,,,,,,,,,,,,,,,,,,,,,,,,,,,,,,,,,,,,,,,,,,,,,,,,,,,,,,,,,,,,,,,,,,,,,,,,,,,,,,,,,,,,,,,,,
,,,,,,0,0,0,0,1,X V Q F H G B L J M P D K C T S W R N Z,609ea6976e377c8f9f77759a,22,Kobieta,2022-06-11_09h21.28.237,task,2021.1.4,Win32,60.37918126,6299f149e92ead563fba08ef,62a4424ba1a5d54b64e81f2d,,,,,,,,,,,,,,,,,,,,,,,,,,,,,,,,,,,,,,,,,,,,,,,,,,,,,,,,,,,,,,,,,,,,,,,,,,,,,,,,,,,,,,,,,,,,,,,,,,,,,
,,,,,,1,0,1,0,1,X V Q F H G B L J M P D K C T S W R N Z,609ea6976e377c8f9f77759a,22,Kobieta,2022-06-11_09h21.28.237,task,2021.1.4,Win32,60.37918126,6299f149e92ead563fba08ef,62a4424ba1a5d54b64e81f2d,,,,,,,,,,,,,,,,,,,,,,,,,,,,,,,,,,,,,,,,,,,,,,,,,,,,,,,,,,,,,,,,,,,,,,,,,,,,,,,,,,,,,,,,,,,,,,,,,,,,,
,,,,,,2,0,2,0,1,X V Q F H G B L J M P D K C T S W R N Z,609ea6976e377c8f9f77759a,22,Kobieta,2022-06-11_09h21.28.237,task,2021.1.4,Win32,60.37918126,6299f149e92ead563fba08ef,62a4424ba1a5d54b64e81f2d,,,,,,,,,,,,,,,,,,,,,,,,,,,,,,,,,,,,,,,,,,,,,,,,,,,,,,,,,,,,,,,,,,,,,,,,,,,,,,,,,,,,,,,,,,,,,,,,,,,,,
,,,,,,,,,,,,609ea6976e377c8f9f77759a,22,Kobieta,2022-06-11_09h21.28.237,task,2021.1.4,Win32,60.37918126,6299f149e92ead563fba08ef,62a4424ba1a5d54b64e81f2d,spj,"[""s"",""p"",""j""]","[0.4980999999939968,0.6982999999970616,0.8896999999881245,1.0385999999940623]",1,SPJ,2,0,2,0,1,,,,,,,,,,,,,,,,,,,,,,,,,,,,,,,,,,,,,,,,,,,,,,,,,,,,,,,,,,,,,,,,,,,,,,,,,,,,,,,,,,,,,,,,,,,
,,,,,,0,0,0,0,1,X V Q F H G B L J M P D K C T S W R N Z,609ea6976e377c8f9f77759a,22,Kobieta,2022-06-11_09h21.28.237,task,2021.1.4,Win32,60.37918126,6299f149e92ead563fba08ef,62a4424ba1a5d54b64e81f2d,,,,,,,,,,,,,,,,,,,,,,,,,,,,,,,,,,,,,,,,,,,,,,,,,,,,,,,,,,,,,,,,,,,,,,,,,,,,,,,,,,,,,,,,,,,,,,,,,,,,,
,,,,,,1,0,1,0,1,X V Q F H G B L J M P D K C T S W R N Z,609ea6976e377c8f9f77759a,22,Kobieta,2022-06-11_09h21.28.237,task,2021.1.4,Win32,60.37918126,6299f149e92ead563fba08ef,62a4424ba1a5d54b64e81f2d,,,,,,,,,,,,,,,,,,,,,,,,,,,,,,,,,,,,,,,,,,,,,,,,,,,,,,,,,,,,,,,,,,,,,,,,,,,,,,,,,,,,,,,,,,,,,,,,,,,,,
,,,,,,2,0,2,0,1,X V Q F H G B L J M P D K C T S W R N Z,609ea6976e377c8f9f77759a,22,Kobieta,2022-06-11_09h21.28.237,task,2021.1.4,Win32,60.37918126,6299f149e92ead563fba08ef,62a4424ba1a5d54b64e81f2d,,,,,,,,,,,,,,,,,,,,,,,,,,,,,,,,,,,,,,,,,,,,,,,,,,,,,,,,,,,,,,,,,,,,,,,,,,,,,,,,,,,,,,,,,,,,,,,,,,,,,
,,,,,,,,,,,,609ea6976e377c8f9f77759a,22,Kobieta,2022-06-11_09h21.28.237,task,2021.1.4,Win32,60.37918126,6299f149e92ead563fba08ef,62a4424ba1a5d54b64e81f2d,zht,"[""z"",""h"",""t""]","[0.5544999999999618,0.7987999999969588,0.935700000002953,1.4310999999939895]",1,ZHT,3,0,3,0,1,,,,,,,,,,,,,,,,,,,,,,,,,,,,,,,,,,,,,,,,,,,,,,,,,,,,,,,,,,,,,,,,,,,,,,,,,,,,,,,,,,,,,,,,,,,
,,,,,,0,0,0,0,1,X V Q F H G B L J M P D K C T S W R N Z,609ea6976e377c8f9f77759a,22,Kobieta,2022-06-11_09h21.28.237,task,2021.1.4,Win32,60.37918126,6299f149e92ead563fba08ef,62a4424ba1a5d54b64e81f2d,,,,,,,,,,,,,,,,,,,,,,,,,,,,,,,,,,,,,,,,,,,,,,,,,,,,,,,,,,,,,,,,,,,,,,,,,,,,,,,,,,,,,,,,,,,,,,,,,,,,,
,,,,,,1,0,1,0,1,X V Q F H G B L J M P D K C T S W R N Z,609ea6976e377c8f9f77759a,22,Kobieta,2022-06-11_09h21.28.237,task,2021.1.4,Win32,60.37918126,6299f149e92ead563fba08ef,62a4424ba1a5d54b64e81f2d,,,,,,,,,,,,,,,,,,,,,,,,,,,,,,,,,,,,,,,,,,,,,,,,,,,,,,,,,,,,,,,,,,,,,,,,,,,,,,,,,,,,,,,,,,,,,,,,,,,,,
,,,,,,2,0,2,0,1,X V Q F H G B L J M P D K C T S W R N Z,609ea6976e377c8f9f77759a,22,Kobieta,2022-06-11_09h21.28.237,task,2021.1.4,Win32,60.37918126,6299f149e92ead563fba08ef,62a4424ba1a5d54b64e81f2d,,,,,,,,,,,,,,,,,,,,,,,,,,,,,,,,,,,,,,,,,,,,,,,,,,,,,,,,,,,,,,,,,,,,,,,,,,,,,,,,,,,,,,,,,,,,,,,,,,,,,
,,,,,,3,0,3,0,1,X V Q F H G B L J M P D K C T S W R N Z,609ea6976e377c8f9f77759a,22,Kobieta,2022-06-11_09h21.28.237,task,2021.1.4,Win32,60.37918126,6299f149e92ead563fba08ef,62a4424ba1a5d54b64e81f2d,,,,,,,,,,,,,,,,,,,,,,,,,,,,,,,,,,,,,,,,,,,,,,,,,,,,,,,,,,,,,,,,,,,,,,,,,,,,,,,,,,,,,,,,,,,,,,,,,,,,,
,,,,,,,,,,,,609ea6976e377c8f9f77759a,22,Kobieta,2022-06-11_09h21.28.237,task,2021.1.4,Win32,60.37918126,6299f149e92ead563fba08ef,62a4424ba1a5d54b64e81f2d,dwlq,"[""d"",""w"",""l"",""q""]","[0.6496999999881155,0.8672999999970443,1.0248999999911348,1.1670999999940932,1.4083999999910475]",1,DWLQ,4,0,4,0,1,,,,,,,,,,,,,,,,,,,,,,,,,,,,,,,,,,,,,,,,,,,,,,,,,,,,,,,,,,,,,,,,,,,,,,,,,,,,,,,,,,,,,,,,,,,
,,,,,,0,0,0,0,1,X V Q F H G B L J M P D K C T S W R N Z,609ea6976e377c8f9f77759a,22,Kobieta,2022-06-11_09h21.28.237,task,2021.1.4,Win32,60.37918126,6299f149e92ead563fba08ef,62a4424ba1a5d54b64e81f2d,,,,,,,,,,,,,,,,,,,,,,,,,,,,,,,,,,,,,,,,,,,,,,,,,,,,,,,,,,,,,,,,,,,,,,,,,,,,,,,,,,,,,,,,,,,,,,,,,,,,,
,,,,,,1,0,1,0,1,X V Q F H G B L J M P D K C T S W R N Z,609ea6976e377c8f9f77759a,22,Kobieta,2022-06-11_09h21.28.237,task,2021.1.4,Win32,60.37918126,6299f149e92ead563fba08ef,62a4424ba1a5d54b64e81f2d,,,,,,,,,,,,,,,,,,,,,,,,,,,,,,,,,,,,,,,,,,,,,,,,,,,,,,,,,,,,,,,,,,,,,,,,,,,,,,,,,,,,,,,,,,,,,,,,,,,,,
,,,,,,2,0,2,0,1,X V Q F H G B L J M P D K C T S W R N Z,609ea6976e377c8f9f77759a,22,Kobieta,2022-06-11_09h21.28.237,task,2021.1.4,Win32,60.37918126,6299f149e92ead563fba08ef,62a4424ba1a5d54b64e81f2d,,,,,,,,,,,,,,,,,,,,,,,,,,,,,,,,,,,,,,,,,,,,,,,,,,,,,,,,,,,,,,,,,,,,,,,,,,,,,,,,,,,,,,,,,,,,,,,,,,,,,
,,,,,,3,0,3,0,1,X V Q F H G B L J M P D K C T S W R N Z,609ea6976e377c8f9f77759a,22,Kobieta,2022-06-11_09h21.28.237,task,2021.1.4,Win32,60.37918126,6299f149e92ead563fba08ef,62a4424ba1a5d54b64e81f2d,,,,,,,,,,,,,,,,,,,,,,,,,,,,,,,,,,,,,,,,,,,,,,,,,,,,,,,,,,,,,,,,,,,,,,,,,,,,,,,,,,,,,,,,,,,,,,,,,,,,,
,,,,,,,,,,,,609ea6976e377c8f9f77759a,22,Kobieta,2022-06-11_09h21.28.237,task,2021.1.4,Win32,60.37918126,6299f149e92ead563fba08ef,62a4424ba1a5d54b64e81f2d,hrlc,"[""h"",""r"",""l"",""c""]","[1.0979999999999563,2.6317000000029793,3.224100000008889,3.548100000008958,4.317000000000007]",1,HRLC,5,0,5,0,1,,,,,,,,,,,,,,,,,,,,,,,,,,,,,,,,,,,,,,,,,,,,,,,,,,,,,,,,,,,,,,,,,,,,,,,,,,,,,,,,,,,,,,,,,,,
,,,,,,0,0,0,0,1,X V Q F H G B L J M P D K C T S W R N Z,609ea6976e377c8f9f77759a,22,Kobieta,2022-06-11_09h21.28.237,task,2021.1.4,Win32,60.37918126,6299f149e92ead563fba08ef,62a4424ba1a5d54b64e81f2d,,,,,,,,,,,,,,,,,,,,,,,,,,,,,,,,,,,,,,,,,,,,,,,,,,,,,,,,,,,,,,,,,,,,,,,,,,,,,,,,,,,,,,,,,,,,,,,,,,,,,
,,,,,,1,0,1,0,1,X V Q F H G B L J M P D K C T S W R N Z,609ea6976e377c8f9f77759a,22,Kobieta,2022-06-11_09h21.28.237,task,2021.1.4,Win32,60.37918126,6299f149e92ead563fba08ef,62a4424ba1a5d54b64e81f2d,,,,,,,,,,,,,,,,,,,,,,,,,,,,,,,,,,,,,,,,,,,,,,,,,,,,,,,,,,,,,,,,,,,,,,,,,,,,,,,,,,,,,,,,,,,,,,,,,,,,,
,,,,,,2,0,2,0,1,X V Q F H G B L J M P D K C T S W R N Z,609ea6976e377c8f9f77759a,22,Kobieta,2022-06-11_09h21.28.237,task,2021.1.4,Win32,60.37918126,6299f149e92ead563fba08ef,62a4424ba1a5d54b64e81f2d,,,,,,,,,,,,,,,,,,,,,,,,,,,,,,,,,,,,,,,,,,,,,,,,,,,,,,,,,,,,,,,,,,,,,,,,,,,,,,,,,,,,,,,,,,,,,,,,,,,,,
,,,,,,3,0,3,0,1,X V Q F H G B L J M P D K C T S W R N Z,609ea6976e377c8f9f77759a,22,Kobieta,2022-06-11_09h21.28.237,task,2021.1.4,Win32,60.37918126,6299f149e92ead563fba08ef,62a4424ba1a5d54b64e81f2d,,,,,,,,,,,,,,,,,,,,,,,,,,,,,,,,,,,,,,,,,,,,,,,,,,,,,,,,,,,,,,,,,,,,,,,,,,,,,,,,,,,,,,,,,,,,,,,,,,,,,
,,,,,,4,0,4,0,1,X V Q F H G B L J M P D K C T S W R N Z,609ea6976e377c8f9f77759a,22,Kobieta,2022-06-11_09h21.28.237,task,2021.1.4,Win32,60.37918126,6299f149e92ead563fba08ef,62a4424ba1a5d54b64e81f2d,,,,,,,,,,,,,,,,,,,,,,,,,,,,,,,,,,,,,,,,,,,,,,,,,,,,,,,,,,,,,,,,,,,,,,,,,,,,,,,,,,,,,,,,,,,,,,,,,,,,,
,,,,,,,,,,,,609ea6976e377c8f9f77759a,22,Kobieta,2022-06-11_09h21.28.237,task,2021.1.4,Win32,60.37918126,6299f149e92ead563fba08ef,62a4424ba1a5d54b64e81f2d,qcnwh,"[""q"",""c"",""n"",""w"",""h""]","[1.2838999999910357,1.6585999999940668,2.1002000000029284,2.537099999993984,2.9039999999999964,3.3170000000000073]",1,QCNWH,6,0,6,0,1,,,,,,,,,,,,,,,,,,,,,,,,,,,,,,,,,,,,,,,,,,,,,,,,,,,,,,,,,,,,,,,,,,,,,,,,,,,,,,,,,,,,,,,,,,,
,,,,,,0,0,0,0,1,X V Q F H G B L J M P D K C T S W R N Z,609ea6976e377c8f9f77759a,22,Kobieta,2022-06-11_09h21.28.237,task,2021.1.4,Win32,60.37918126,6299f149e92ead563fba08ef,62a4424ba1a5d54b64e81f2d,,,,,,,,,,,,,,,,,,,,,,,,,,,,,,,,,,,,,,,,,,,,,,,,,,,,,,,,,,,,,,,,,,,,,,,,,,,,,,,,,,,,,,,,,,,,,,,,,,,,,
,,,,,,1,0,1,0,1,X V Q F H G B L J M P D K C T S W R N Z,609ea6976e377c8f9f77759a,22,Kobieta,2022-06-11_09h21.28.237,task,2021.1.4,Win32,60.37918126,6299f149e92ead563fba08ef,62a4424ba1a5d54b64e81f2d,,,,,,,,,,,,,,,,,,,,,,,,,,,,,,,,,,,,,,,,,,,,,,,,,,,,,,,,,,,,,,,,,,,,,,,,,,,,,,,,,,,,,,,,,,,,,,,,,,,,,
,,,,,,2,0,2,0,1,X V Q F H G B L J M P D K C T S W R N Z,609ea6976e377c8f9f77759a,22,Kobieta,2022-06-11_09h21.28.237,task,2021.1.4,Win32,60.37918126,6299f149e92ead563fba08ef,62a4424ba1a5d54b64e81f2d,,,,,,,,,,,,,,,,,,,,,,,,,,,,,,,,,,,,,,,,,,,,,,,,,,,,,,,,,,,,,,,,,,,,,,,,,,,,,,,,,,,,,,,,,,,,,,,,,,,,,
,,,,,,3,0,3,0,1,X V Q F H G B L J M P D K C T S W R N Z,609ea6976e377c8f9f77759a,22,Kobieta,2022-06-11_09h21.28.237,task,2021.1.4,Win32,60.37918126,6299f149e92ead563fba08ef,62a4424ba1a5d54b64e81f2d,,,,,,,,,,,,,,,,,,,,,,,,,,,,,,,,,,,,,,,,,,,,,,,,,,,,,,,,,,,,,,,,,,,,,,,,,,,,,,,,,,,,,,,,,,,,,,,,,,,,,
,,,,,,4,0,4,0,1,X V Q F H G B L J M P D K C T S W R N Z,609ea6976e377c8f9f77759a,22,Kobieta,2022-06-11_09h21.28.237,task,2021.1.4,Win32,60.37918126,6299f149e92ead563fba08ef,62a4424ba1a5d54b64e81f2d,,,,,,,,,,,,,,,,,,,,,,,,,,,,,,,,,,,,,,,,,,,,,,,,,,,,,,,,,,,,,,,,,,,,,,,,,,,,,,,,,,,,,,,,,,,,,,,,,,,,,
,,,,,,,,,,,,609ea6976e377c8f9f77759a,22,Kobieta,2022-06-11_09h21.28.237,task,2021.1.4,Win32,60.37918126,6299f149e92ead563fba08ef,62a4424ba1a5d54b64e81f2d,rqxjp,"[""r"",""q"",""x"",""j"",""p""]","[1.4834999999999354,2.348700000002964,4.483700000002955,4.836700000002907,5.120999999999981,5.482400000005896]",1,RQXJP,7,0,7,0,1,,,,,,,,,,,,,,,,,,,,,,,,,,,,,,,,,,,,,,,,,,,,,,,,,,,,,,,,,,,,,,,,,,,,,,,,,,,,,,,,,,,,,,,,,,,
,,,,,,0,0,0,0,1,X V Q F H G B L J M P D K C T S W R N Z,609ea6976e377c8f9f77759a,22,Kobieta,2022-06-11_09h21.28.237,task,2021.1.4,Win32,60.37918126,6299f149e92ead563fba08ef,62a4424ba1a5d54b64e81f2d,,,,,,,,,,,,,,,,,,,,,,,,,,,,,,,,,,,,,,,,,,,,,,,,,,,,,,,,,,,,,,,,,,,,,,,,,,,,,,,,,,,,,,,,,,,,,,,,,,,,,
,,,,,,1,0,1,0,1,X V Q F H G B L J M P D K C T S W R N Z,609ea6976e377c8f9f77759a,22,Kobieta,2022-06-11_09h21.28.237,task,2021.1.4,Win32,60.37918126,6299f149e92ead563fba08ef,62a4424ba1a5d54b64e81f2d,,,,,,,,,,,,,,,,,,,,,,,,,,,,,,,,,,,,,,,,,,,,,,,,,,,,,,,,,,,,,,,,,,,,,,,,,,,,,,,,,,,,,,,,,,,,,,,,,,,,,
,,,,,,2,0,2,0,1,X V Q F H G B L J M P D K C T S W R N Z,609ea6976e377c8f9f77759a,22,Kobieta,2022-06-11_09h21.28.237,task,2021.1.4,Win32,60.37918126,6299f149e92ead563fba08ef,62a4424ba1a5d54b64e81f2d,,,,,,,,,,,,,,,,,,,,,,,,,,,,,,,,,,,,,,,,,,,,,,,,,,,,,,,,,,,,,,,,,,,,,,,,,,,,,,,,,,,,,,,,,,,,,,,,,,,,,
,,,,,,3,0,3,0,1,X V Q F H G B L J M P D K C T S W R N Z,609ea6976e377c8f9f77759a,22,Kobieta,2022-06-11_09h21.28.237,task,2021.1.4,Win32,60.37918126,6299f149e92ead563fba08ef,62a4424ba1a5d54b64e81f2d,,,,,,,,,,,,,,,,,,,,,,,,,,,,,,,,,,,,,,,,,,,,,,,,,,,,,,,,,,,,,,,,,,,,,,,,,,,,,,,,,,,,,,,,,,,,,,,,,,,,,
,,,,,,4,0,4,0,1,X V Q F H G B L J M P D K C T S W R N Z,609ea6976e377c8f9f77759a,22,Kobieta,2022-06-11_09h21.28.237,task,2021.1.4,Win32,60.37918126,6299f149e92ead563fba08ef,62a4424ba1a5d54b64e81f2d,,,,,,,,,,,,,,,,,,,,,,,,,,,,,,,,,,,,,,,,,,,,,,,,,,,,,,,,,,,,,,,,,,,,,,,,,,,,,,,,,,,,,,,,,,,,,,,,,,,,,
,,,,,,5,0,5,0,1,X V Q F H G B L J M P D K C T S W R N Z,609ea6976e377c8f9f77759a,22,Kobieta,2022-06-11_09h21.28.237,task,2021.1.4,Win32,60.37918126,6299f149e92ead563fba08ef,62a4424ba1a5d54b64e81f2d,,,,,,,,,,,,,,,,,,,,,,,,,,,,,,,,,,,,,,,,,,,,,,,,,,,,,,,,,,,,,,,,,,,,,,,,,,,,,,,,,,,,,,,,,,,,,,,,,,,,,
,,,,,,,,,,,,609ea6976e377c8f9f77759a,22,Kobieta,2022-06-11_09h21.28.237,task,2021.1.4,Win32,60.37918126,6299f149e92ead563fba08ef,62a4424ba1a5d54b64e81f2d,bzsvqa,"[""b"",""z"",""s"",""v"",""q"",""a""]","[1.3427999999970552,1.8022000000030403,2.598700000002964,5.940299999997023,6.815500000000043,7.232799999997042,8.233700000003068]",0,BZSVQK,8,0,8,0,1,,,,,,,,,,,,,,,,,,,,,,,,,,,,,,,,,,,,,,,,,,,,,,,,,,,,,,,,,,,,,,,,,,,,,,,,,,,,,,,,,,,,,,,,,,,
,,,,,,0,0,0,0,1,X V Q F H G B L J M P D K C T S W R N Z,609ea6976e377c8f9f77759a,22,Kobieta,2022-06-11_09h21.28.237,task,2021.1.4,Win32,60.37918126,6299f149e92ead563fba08ef,62a4424ba1a5d54b64e81f2d,,,,,,,,,,,,,,,,,,,,,,,,,,,,,,,,,,,,,,,,,,,,,,,,,,,,,,,,,,,,,,,,,,,,,,,,,,,,,,,,,,,,,,,,,,,,,,,,,,,,,
,,,,,,1,0,1,0,1,X V Q F H G B L J M P D K C T S W R N Z,609ea6976e377c8f9f77759a,22,Kobieta,2022-06-11_09h21.28.237,task,2021.1.4,Win32,60.37918126,6299f149e92ead563fba08ef,62a4424ba1a5d54b64e81f2d,,,,,,,,,,,,,,,,,,,,,,,,,,,,,,,,,,,,,,,,,,,,,,,,,,,,,,,,,,,,,,,,,,,,,,,,,,,,,,,,,,,,,,,,,,,,,,,,,,,,,
,,,,,,2,0,2,0,1,X V Q F H G B L J M P D K C T S W R N Z,609ea6976e377c8f9f77759a,22,Kobieta,2022-06-11_09h21.28.237,task,2021.1.4,Win32,60.37918126,6299f149e92ead563fba08ef,62a4424ba1a5d54b64e81f2d,,,,,,,,,,,,,,,,,,,,,,,,,,,,,,,,,,,,,,,,,,,,,,,,,,,,,,,,,,,,,,,,,,,,,,,,,,,,,,,,,,,,,,,,,,,,,,,,,,,,,
,,,,,,3,0,3,0,1,X V Q F H G B L J M P D K C T S W R N Z,609ea6976e377c8f9f77759a,22,Kobieta,2022-06-11_09h21.28.237,task,2021.1.4,Win32,60.37918126,6299f149e92ead563fba08ef,62a4424ba1a5d54b64e81f2d,,,,,,,,,,,,,,,,,,,,,,,,,,,,,,,,,,,,,,,,,,,,,,,,,,,,,,,,,,,,,,,,,,,,,,,,,,,,,,,,,,,,,,,,,,,,,,,,,,,,,
,,,,,,4,0,4,0,1,X V Q F H G B L J M P D K C T S W R N Z,609ea6976e377c8f9f77759a,22,Kobieta,2022-06-11_09h21.28.237,task,2021.1.4,Win32,60.37918126,6299f149e92ead563fba08ef,62a4424ba1a5d54b64e81f2d,,,,,,,,,,,,,,,,,,,,,,,,,,,,,,,,,,,,,,,,,,,,,,,,,,,,,,,,,,,,,,,,,,,,,,,,,,,,,,,,,,,,,,,,,,,,,,,,,,,,,
,,,,,,5,0,5,0,1,X V Q F H G B L J M P D K C T S W R N Z,609ea6976e377c8f9f77759a,22,Kobieta,2022-06-11_09h21.28.237,task,2021.1.4,Win32,60.37918126,6299f149e92ead563fba08ef,62a4424ba1a5d54b64e81f2d,,,,,,,,,,,,,,,,,,,,,,,,,,,,,,,,,,,,,,,,,,,,,,,,,,,,,,,,,,,,,,,,,,,,,,,,,,,,,,,,,,,,,,,,,,,,,,,,,,,,,
,,,,,,,,,,,,609ea6976e377c8f9f77759a,22,Kobieta,2022-06-11_09h21.28.237,task,2021.1.4,Win32,60.37918126,6299f149e92ead563fba08ef,62a4424ba1a5d54b64e81f2d,lgjggj,"[""l"",""g"",""j"",""g"",""g"",""j""]","[1.1207999999969616,1.7318999999910147,2.169899999991003,2.5481999999880145,2.9070999999939886,3.607799999996928,4.0988999999909765]",0,LGXGGJ,9,0,9,0,1,,,,,,,,,,,,,,,,,,,,,,,,,,,,,,,,,,,,,,,,,,,,,,,,,,,,,,,,,,,,,,,,,,,,,,,,,,,,,,,,,,,,,,,,,,,
,,,,,,0,0,0,0,1,X V Q F H G B L J M P D K C T S W R N Z,609ea6976e377c8f9f77759a,22,Kobieta,2022-06-11_09h21.28.237,task,2021.1.4,Win32,60.37918126,6299f149e92ead563fba08ef,62a4424ba1a5d54b64e81f2d,,,,,,,,,,,,,,,,,,,,,,,,,,,,,,,,,,,,,,,,,,,,,,,,,,,,,,,,,,,,,,,,,,,,,,,,,,,,,,,,,,,,,,,,,,,,,,,,,,,,,
,,,,,,1,0,1,0,1,X V Q F H G B L J M P D K C T S W R N Z,609ea6976e377c8f9f77759a,22,Kobieta,2022-06-11_09h21.28.237,task,2021.1.4,Win32,60.37918126,6299f149e92ead563fba08ef,62a4424ba1a5d54b64e81f2d,,,,,,,,,,,,,,,,,,,,,,,,,,,,,,,,,,,,,,,,,,,,,,,,,,,,,,,,,,,,,,,,,,,,,,,,,,,,,,,,,,,,,,,,,,,,,,,,,,,,,
,,,,,,2,0,2,0,1,X V Q F H G B L J M P D K C T S W R N Z,609ea6976e377c8f9f77759a,22,Kobieta,2022-06-11_09h21.28.237,task,2021.1.4,Win32,60.37918126,6299f149e92ead563fba08ef,62a4424ba1a5d54b64e81f2d,,,,,,,,,,,,,,,,,,,,,,,,,,,,,,,,,,,,,,,,,,,,,,,,,,,,,,,,,,,,,,,,,,,,,,,,,,,,,,,,,,,,,,,,,,,,,,,,,,,,,
,,,,,,3,0,3,0,1,X V Q F H G B L J M P D K C T S W R N Z,609ea6976e377c8f9f77759a,22,Kobieta,2022-06-11_09h21.28.237,task,2021.1.4,Win32,60.37918126,6299f149e92ead563fba08ef,62a4424ba1a5d54b64e81f2d,,,,,,,,,,,,,,,,,,,,,,,,,,,,,,,,,,,,,,,,,,,,,,,,,,,,,,,,,,,,,,,,,,,,,,,,,,,,,,,,,,,,,,,,,,,,,,,,,,,,,
,,,,,,4,0,4,0,1,X V Q F H G B L J M P D K C T S W R N Z,609ea6976e377c8f9f77759a,22,Kobieta,2022-06-11_09h21.28.237,task,2021.1.4,Win32,60.37918126,6299f149e92ead563fba08ef,62a4424ba1a5d54b64e81f2d,,,,,,,,,,,,,,,,,,,,,,,,,,,,,,,,,,,,,,,,,,,,,,,,,,,,,,,,,,,,,,,,,,,,,,,,,,,,,,,,,,,,,,,,,,,,,,,,,,,,,
,,,,,,5,0,5,0,1,X V Q F H G B L J M P D K C T S W R N Z,609ea6976e377c8f9f77759a,22,Kobieta,2022-06-11_09h21.28.237,task,2021.1.4,Win32,60.37918126,6299f149e92ead563fba08ef,62a4424ba1a5d54b64e81f2d,,,,,,,,,,,,,,,,,,,,,,,,,,,,,,,,,,,,,,,,,,,,,,,,,,,,,,,,,,,,,,,,,,,,,,,,,,,,,,,,,,,,,,,,,,,,,,,,,,,,,
,,,,,,,,,,,,609ea6976e377c8f9f77759a,22,Kobieta,2022-06-11_09h21.28.237,task,2021.1.4,Win32,60.37918126,6299f149e92ead563fba08ef,62a4424ba1a5d54b64e81f2d,njjhcb,"[""n"",""j"",""j"",""h"",""c"",""b""]","[1.3071000000089725,1.7495000000000118,1.9591000000090162,2.632200000003081,3.1166000000090435,3.334400000005985,3.8328000000119573]",0,JNNHCB,10,0,10,0,1,,,,,,,,,,,,,,,,,,,,,,,,,,,,,,,,,,,,,,,,,,,,,,,,,,,,,,,,,,,,,,,,,,,,,,,,,,,,,,,,,,,,,,,,,,,
,,,,,,,,,,,,609ea6976e377c8f9f77759a,22,Kobieta,2022-06-11_09h21.28.237,task,2021.1.4,Win32,60.37918126,6299f149e92ead563fba08ef,62a4424ba1a5d54b64e81f2d,,,,,,,,,,,space,62.1748,5,"[""5""]",1,[5.3132000000030075],[5.3132000000030075],0,0,0,5,1,Practice,6,(4/2) + 3,5,,,,,,,,,,,,,,,,,,,,,,,,,,,,,,,,,,,,,,,,,,,,,,,,,,,,,,,,,,,,,,,,,,,,,,,,,,,
,,,,,,,,,,,,609ea6976e377c8f9f77759a,22,Kobieta,2022-06-11_09h21.28.237,task,2021.1.4,Win32,60.37918126,6299f149e92ead563fba08ef,62a4424ba1a5d54b64e81f2d,,,,,,,,,,,,,4,"[""4""]",1,[3.7828999999910593],"[5.3132000000030075,3.7828999999910593]",0,1,1,4,1,Practice,5,(2x6) - 8,4,,,,,,,,,,,,,,,,,,,,,,,,,,,,,,,,,,,,,,,,,,,,,,,,,,,,,,,,,,,,,,,,,,,,,,,,,,,
,,,,,,,,,,,,609ea6976e377c8f9f77759a,22,Kobieta,2022-06-11_09h21.28.237,task,2021.1.4,Win32,60.37918126,6299f149e92ead563fba08ef,62a4424ba1a5d54b64e81f2d,,,,,,,,,,,,,1,"[""1""]",1,[3.0159999999999627],"[5.3132000000030075,3.7828999999910593,3.0159999999999627]",0,2,2,1,1,Practice,2,(4x4) - 15,1,,,,,,,,,,,,,,,,,,,,,,,,,,,,,,,,,,,,,,,,,,,,,,,,,,,,,,,,,,,,,,,,,,,,,,,,,,,
,,,,,,,,,,,,609ea6976e377c8f9f77759a,22,Kobieta,2022-06-11_09h21.28.237,task,2021.1.4,Win32,60.37918126,6299f149e92ead563fba08ef,62a4424ba1a5d54b64e81f2d,,,,,,,,,,,,,2,"[""2""]",1,[4.731999999999971],"[5.3132000000030075,3.7828999999910593,3.0159999999999627,4.731999999999971]",0,3,3,2,1,Practice,3,(4x4) - 14,2,,,,,,,,,,,,,,,,,,,,,,,,,,,,,,,,,,,,,,,,,,,,,,,,,,,,,,,,,,,,,,,,,,,,,,,,,,,
,,,,,,,,,,,,609ea6976e377c8f9f77759a,22,Kobieta,2022-06-11_09h21.28.237,task,2021.1.4,Win32,60.37918126,6299f149e92ead563fba08ef,62a4424ba1a5d54b64e81f2d,,,,,,,,,,,,,7,"[""7""]",1,[4.400800000011827],"[5.3132000000030075,3.7828999999910593,3.0159999999999627,4.731999999999971,4.400800000011827]",0,4,4,7,1,Practice,8,(5x5) - 18,7,,,,,,,,,,,,,,,,,,,,,,,,,,,,,,,,,,,,,,,,,,,,,,,,,,,,,,,,,,,,,,,,,,,,,,,,,,,
,,,,,,,,,,,,609ea6976e377c8f9f77759a,22,Kobieta,2022-06-11_09h21.28.237,task,2021.1.4,Win32,60.37918126,6299f149e92ead563fba08ef,62a4424ba1a5d54b64e81f2d,,,,,,,,,,,,,6,"[""6""]",1,[3.0214999999999463],"[5.3132000000030075,3.7828999999910593,3.0159999999999627,4.731999999999971,4.400800000011827,3.0214999999999463]",0,5,5,6,1,Practice,7,(25/5) + 1,6,,,,,,,,,,,,,,,,,,,,,,,,,,,,,,,,,,,,,,,,,,,,,,,,,,,,,,,,,,,,,,,,,,,,,,,,,,,
,,,,,,,,,,,,609ea6976e377c8f9f77759a,22,Kobieta,2022-06-11_09h21.28.237,task,2021.1.4,Win32,60.37918126,6299f149e92ead563fba08ef,62a4424ba1a5d54b64e81f2d,,,,,,,,,,,,,9,"[""9""]",1,[4.08210000000895],"[5.3132000000030075,3.7828999999910593,3.0159999999999627,4.731999999999971,4.400800000011827,3.0214999999999463,4.08210000000895]",0,6,6,9,1,Practice,10,(20/2) - 1,9,,,,,,,,,,,,,,,,,,,,,,,,,,,,,,,,,,,,,,,,,,,,,,,,,,,,,,,,,,,,,,,,,,,,,,,,,,,
,,,,,,,,,,,,609ea6976e377c8f9f77759a,22,Kobieta,2022-06-11_09h21.28.237,task,2021.1.4,Win32,60.37918126,6299f149e92ead563fba08ef,62a4424ba1a5d54b64e81f2d,,,,,,,,,,,,,0,"[""0""]",1,[2.3193000000119355],"[5.3132000000030075,3.7828999999910593,3.0159999999999627,4.731999999999971,4.400800000011827,3.0214999999999463,4.08210000000895,2.3193000000119355]",0,7,7,0,1,Practice,1,(3x3) -  9,0,,,,,,,,,,,,,,,,,,,,,,,,,,,,,,,,,,,,,,,,,,,,,,,,,,,,,,,,,,,,,,,,,,,,,,,,,,,
,,,,,,,,,,,,609ea6976e377c8f9f77759a,22,Kobieta,2022-06-11_09h21.28.237,task,2021.1.4,Win32,60.37918126,6299f149e92ead563fba08ef,62a4424ba1a5d54b64e81f2d,,,,,,,,,,,,,3,"[""3""]",1,[2.034099999994055],"[5.3132000000030075,3.7828999999910593,3.0159999999999627,4.731999999999971,4.400800000011827,3.0214999999999463,4.08210000000895,2.3193000000119355,2.034099999994055]",0,8,8,3,1,Practice,4,(8/4) + 1,3,,,,,,,,,,,,,,,,,,,,,,,,,,,,,,,,,,,,,,,,,,,,,,,,,,,,,,,,,,,,,,,,,,,,,,,,,,,
,,,,,,,,,,,,609ea6976e377c8f9f77759a,22,Kobieta,2022-06-11_09h21.28.237,task,2021.1.4,Win32,60.37918126,6299f149e92ead563fba08ef,62a4424ba1a5d54b64e81f2d,,,,,,,,,,,,,5,"[""5""]",0,[1.949700000002963],"[5.3132000000030075,3.7828999999910593,3.0159999999999627,4.731999999999971,4.400800000011827,3.0214999999999463,4.08210000000895,2.3193000000119355,2.034099999994055,1.949700000002963]",0,9,9,8,1,Practice,9,(3x3) - 1,8,,,,,,,,,,,,,,,,,,,,,,,,,,,,,,,,,,,,,,,,,,,,,,,,,,,,,,,,,,,,,,,,,,,,,,,,,,,
,,,,,,,,,,,,609ea6976e377c8f9f77759a,22,Kobieta,2022-06-11_09h21.28.237,task,2021.1.4,Win32,60.37918126,6299f149e92ead563fba08ef,62a4424ba1a5d54b64e81f2d,,,,,,,,,,,,,,,,,,,,,,,,,,,0.9,34.6516,2.310106667,25.77473911,1.310845506,5.692088072,space,4.9535,0,0,0,0,1,,,,,,,,,,,,,,,,,,,,,,,,,,,,,,,,,,,,,,,,,,,,,,,,,,,,,,,,,,,,,,
,,,,,,,,,,,,609ea6976e377c8f9f77759a,22,Kobieta,2022-06-11_09h21.28.237,task,2021.1.4,Win32,60.37918126,6299f149e92ead563fba08ef,62a4424ba1a5d54b64e81f2d,,,,,,,,,,,,,0,,,,,,,,,,Practice,1,(3x3) -  9,0,,,,,,,,,,,,,,space,23.1395,"[""0""]",1,[2.8185999999941487],1,0,0,0,0,1,,,,,,,,,,,,,,,,,,,,,,,,,,,,,,,,,,,,,,,,,,,,,,,,,,,
,,,,,,,,,,,X V Q F H G B L J M P D K C T S W R N Z,609ea6976e377c8f9f77759a,22,Kobieta,2022-06-11_09h21.28.237,task,2021.1.4,Win32,60.37918126,6299f149e92ead563fba08ef,62a4424ba1a5d54b64e81f2d,,,,,,,,,,,,,,,,,,,,,,,,,,,,,,,,,,,,,,,,,,,,,,,,,,,0,0,0,0,1,,,,,,,,,,,,,,,,,,,,,,,,,,,,,,,,,,,,,,,,,,,,,,
,,,,,,,,,,,,609ea6976e377c8f9f77759a,22,Kobieta,2022-06-11_09h21.28.237,task,2021.1.4,Win32,60.37918126,6299f149e92ead563fba08ef,62a4424ba1a5d54b64e81f2d,,,,,,,,,,,,,3,,,,,,,,,,Practice,4,(8/4) + 1,3,,,,,,,,,,,,,,,,"[""3""]",1,[3.2837000000029093],1,0,0,0,3,1,,,,,,,,,,,,,,,,,,,,,,,,,,,,,,,,,,,,,,,,,,,,,,,,,,,
,,,,,,,,,,,X V Q F H G B L J M P D K C T S W R N Z,609ea6976e377c8f9f77759a,22,Kobieta,2022-06-11_09h21.28.237,task,2021.1.4,Win32,60.37918126,6299f149e92ead563fba08ef,62a4424ba1a5d54b64e81f2d,,,,,,,,,,,,,,,,,,,,,,,,,,,,,,,,,,,,,,,,,,,,,,,,,,,1,0,1,0,1,,,,,,,,,,,,,,,,,,,,,,,,,,,,,,,,,,,,,,,,,,,,,,
,,,,,,,,,,,,609ea6976e377c8f9f77759a,22,Kobieta,2022-06-11_09h21.28.237,task,2021.1.4,Win32,60.37918126,6299f149e92ead563fba08ef,62a4424ba1a5d54b64e81f2d,,,,,,,,,,,,,,,,,,,,,,,,,,,,,,,,,,,,,,,,,,,,,,,,,,,,,,,,zz,"[""z"",""z""]",0,"[2.2995999999940295,2.4329000000059295,3.1890999999940277]",1,0,0,0,0,1,,,,,,,,,,,,,,,,,,,,,,,,,,,,,,,,,,,,
,,,,,,,,,,,,609ea6976e377c8f9f77759a,22,Kobieta,2022-06-11_09h21.28.237,task,2021.1.4,Win32,60.37918126,6299f149e92ead563fba08ef,62a4424ba1a5d54b64e81f2d,,,,,,,,,,,,,7,,,,,,,,,,Practice,8,(5x5) - 18,7,,,,,,,,,,,,,,,,"[""7""]",1,[5.23329999999703],1,0,0,0,7,1,,,,,,,,,,,,,,,,,,,,,,,,,,,,,,,,,,,,,,,,,,,,,,,,,,,
,,,,,,,,,,,X V Q F H G B L J M P D K C T S W R N Z,609ea6976e377c8f9f77759a,22,Kobieta,2022-06-11_09h21.28.237,task,2021.1.4,Win32,60.37918126,6299f149e92ead563fba08ef,62a4424ba1a5d54b64e81f2d,,,,,,,,,,,,,,,,,,,,,,,,,,,,,,,,,,,,,,,,,,,,,,,,,,,0,0,0,0,1,,,,,,,,,,,,,,,,,,,,,,,,,,,,,,,,,,,,,,,,,,,,,,
,,,,,,,,,,,,609ea6976e377c8f9f77759a,22,Kobieta,2022-06-11_09h21.28.237,task,2021.1.4,Win32,60.37918126,6299f149e92ead563fba08ef,62a4424ba1a5d54b64e81f2d,,,,,,,,,,,,,5,,,,,,,,,,Practice,6,(4/2) + 3,5,,,,,,,,,,,,,,,,"[""5""]",1,[3.165700000002971],1,0,0,0,5,1,,,,,,,,,,,,,,,,,,,,,,,,,,,,,,,,,,,,,,,,,,,,,,,,,,,
,,,,,,,,,,,X V Q F H G B L J M P D K C T S W R N Z,609ea6976e377c8f9f77759a,22,Kobieta,2022-06-11_09h21.28.237,task,2021.1.4,Win32,60.37918126,6299f149e92ead563fba08ef,62a4424ba1a5d54b64e81f2d,,,,,,,,,,,,,,,,,,,,,,,,,,,,,,,,,,,,,,,,,,,,,,,,,,,1,0,1,0,1,,,,,,,,,,,,,,,,,,,,,,,,,,,,,,,,,,,,,,,,,,,,,,
,,,,,,,,,,,,609ea6976e377c8f9f77759a,22,Kobieta,2022-06-11_09h21.28.237,task,2021.1.4,Win32,60.37918126,6299f149e92ead563fba08ef,62a4424ba1a5d54b64e81f2d,,,,,,,,,,,,,,,,,,,,,,,,,,,,,,,,,,,,,,,,,,,,,,,,,,,,,,,,lq,"[""l"",""q""]",0,"[1.8006000000088989,2.2337000000029548,2.817200000002913]",1,1,0,1,0,1,,,,,,,,,,,,,,,,,,,,,,,,,,,,,,,,,,,,
,,,,,,,,,,,,609ea6976e377c8f9f77759a,22,Kobieta,2022-06-11_09h21.28.237,task,2021.1.4,Win32,60.37918126,6299f149e92ead563fba08ef,62a4424ba1a5d54b64e81f2d,,,,,,,,,,,,,4,,,,,,,,,,Practice,5,(2x6) - 8,4,,,,,,,,,,,,,,,,"[""4""]",1,[2.783200000002921],1,0,0,0,4,1,,,,,,,,,,,,,,,,,,,,,,,,,,,,,,,,,,,,,,,,,,,,,,,,,,,
,,,,,,,,,,,X V Q F H G B L J M P D K C T S W R N Z,609ea6976e377c8f9f77759a,22,Kobieta,2022-06-11_09h21.28.237,task,2021.1.4,Win32,60.37918126,6299f149e92ead563fba08ef,62a4424ba1a5d54b64e81f2d,,,,,,,,,,,,,,,,,,,,,,,,,,,,,,,,,,,,,,,,,,,,,,,,,,,0,0,0,0,1,,,,,,,,,,,,,,,,,,,,,,,,,,,,,,,,,,,,,,,,,,,,,,
,,,,,,,,,,,,609ea6976e377c8f9f77759a,22,Kobieta,2022-06-11_09h21.28.237,task,2021.1.4,Win32,60.37918126,6299f149e92ead563fba08ef,62a4424ba1a5d54b64e81f2d,,,,,,,,,,,,,0,,,,,,,,,,Practice,1,(3x3) -  9,0,,,,,,,,,,,,,,,,"[""0""]",1,[2.034200000003011],1,0,0,0,0,1,,,,,,,,,,,,,,,,,,,,,,,,,,,,,,,,,,,,,,,,,,,,,,,,,,,
,,,,,,,,,,,X V Q F H G B L J M P D K C T S W R N Z,609ea6976e377c8f9f77759a,22,Kobieta,2022-06-11_09h21.28.237,task,2021.1.4,Win32,60.37918126,6299f149e92ead563fba08ef,62a4424ba1a5d54b64e81f2d,,,,,,,,,,,,,,,,,,,,,,,,,,,,,,,,,,,,,,,,,,,,,,,,,,,1,0,1,0,1,,,,,,,,,,,,,,,,,,,,,,,,,,,,,,,,,,,,,,,,,,,,,,
,,,,,,,,,,,,609ea6976e377c8f9f77759a,22,Kobieta,2022-06-11_09h21.28.237,task,2021.1.4,Win32,60.37918126,6299f149e92ead563fba08ef,62a4424ba1a5d54b64e81f2d,,,,,,,,,,,,,,,,,,,,,,,,,,,,,,,,,,,,,,,,,,,,,,,,,,,,,,,,mv,"[""m"",""v""]",0,"[1.5157000000028802,1.75080000001185,2.7061000000088598]",1,2,0,2,0,1,,,,,,,,,,,,,,,,,,,,,,,,,,,,,,,,,,,,
,,,,,,,,,,,,609ea6976e377c8f9f77759a,22,Kobieta,2022-06-11_09h21.28.237,task,2021.1.4,Win32,60.37918126,6299f149e92ead563fba08ef,62a4424ba1a5d54b64e81f2d,,,,,,,,,,,,,,,,,,,,,,,Task,40,(7x2) - 5,9,,,,,,,,,,,,,,,,,,,0,,,,,,,,,,,,,,,,,,,,,space,12.381,,0,0,0,0,39,1,,,,,,,,,,,,,,,,,,,,,,,,,,,
,,,,,,,,,,,,609ea6976e377c8f9f77759a,22,Kobieta,2022-06-11_09h21.28.237,task,2021.1.4,Win32,60.37918126,6299f149e92ead563fba08ef,62a4424ba1a5d54b64e81f2d,,,,,,,,,,,,,7,,,,,,,,,,Task,6,(12/2) + 1,7,,,,,,,,,,,,,,,,,,,1,,,,,,,,,,,,,,,,,,,,,,,"[""7""]",1,0,1,1,5,1,[2.3119000000060623],,,,,,,,,,,,,,,,,,,,,,,,,,
,,,,,,,,,,,X V Q F H G B L J M P D K C T S W R N Z,609ea6976e377c8f9f77759a,22,Kobieta,2022-06-11_09h21.28.237,task,2021.1.4,Win32,60.37918126,6299f149e92ead563fba08ef,62a4424ba1a5d54b64e81f2d,,,,,,,,,,,,,,,,,,,,,,,,,,,,,,,,,,,,,,,,,,,,,,,,,,,,,,,,,,,,,,,,,,,,,,,,,,,,0,0,0,0,1,,,,,,,,,,,,,,,,,,,,,
,,,,,,,,,,,,609ea6976e377c8f9f77759a,22,Kobieta,2022-06-11_09h21.28.237,task,2021.1.4,Win32,60.37918126,6299f149e92ead563fba08ef,62a4424ba1a5d54b64e81f2d,,,,,,,,,,,,,3,,,,,,,,,,Task,20,(18/9) + 1,3,,,,,,,,,,,,,,,,,,,1,,,,,,,,,,,,,,,,,,,,,,,"[""3""]",1,0,0,0,19,1,[2.9980999999941105],,,,,,,,,,,,,,,,,,,,,,,,,,
,,,,,,,,,,,X V Q F H G B L J M P D K C T S W R N Z,609ea6976e377c8f9f77759a,22,Kobieta,2022-06-11_09h21.28.237,task,2021.1.4,Win32,60.37918126,6299f149e92ead563fba08ef,62a4424ba1a5d54b64e81f2d,,,,,,,,,,,,,,,,,,,,,,,,,,,,,,,,,,,,,,,,,,,,,,,,,,,,,,,,,,,,,,,,,,,,,,,,,,,,1,0,1,0,1,,,,,,,,,,,,,,,,,,,,,
,,,,,,,,,,,,609ea6976e377c8f9f77759a,22,Kobieta,2022-06-11_09h21.28.237,task,2021.1.4,Win32,60.37918126,6299f149e92ead563fba08ef,62a4424ba1a5d54b64e81f2d,,,,,,,,,,,,,,,,,,,,,,,,,,,,,,,,,,,,,,,,,,,,,,,,,,,,,,,,,,,,,,,,,,,,,,,,,,,,,,,,,zj,"[""z"",""j""]",0,"[2.1837999999970634,2.283400000006054,2.9359000000059723]",1,ZJ,0,0,0,0,1,,,,,,,,,,
,,,,,,,,,,,,609ea6976e377c8f9f77759a,22,Kobieta,2022-06-11_09h21.28.237,task,2021.1.4,Win32,60.37918126,6299f149e92ead563fba08ef,62a4424ba1a5d54b64e81f2d,,,,,,,,,,,,,6,,,,,,,,,,Task,13,(3x4) - 6,6,,,,,,,,,,,,,,,,,,,1,,,,,,,,,,,,,,,,,,,,,,,"[""6""]",1,0,0,0,12,1,[3.5348000000119555],,,,,,,,,,,,,,,,,,,,,,,,,,
,,,,,,,,,,,X V Q F H G B L J M P D K C T S W R N Z,609ea6976e377c8f9f77759a,22,Kobieta,2022-06-11_09h21.28.237,task,2021.1.4,Win32,60.37918126,6299f149e92ead563fba08ef,62a4424ba1a5d54b64e81f2d,,,,,,,,,,,,,,,,,,,,,,,,,,,,,,,,,,,,,,,,,,,,,,,,,,,,,,,,,,,,,,,,,,,,,,,,,,,,0,0,0,0,1,,,,,,,,,,,,,,,,,,,,,
,,,,,,,,,,,,609ea6976e377c8f9f77759a,22,Kobieta,2022-06-11_09h21.28.237,task,2021.1.4,Win32,60.37918126,6299f149e92ead563fba08ef,62a4424ba1a5d54b64e81f2d,,,,,,,,,,,,,5,,,,,,,,,,Task,36,(8/4) + 3,5,,,,,,,,,,,,,,,,,,,1,,,,,,,,,,,,,,,,,,,,,,,"[""5""]",1,0,0,0,35,1,[2.1571000000089953],,,,,,,,,,,,,,,,,,,,,,,,,,
,,,,,,,,,,,X V Q F H G B L J M P D K C T S W R N Z,609ea6976e377c8f9f77759a,22,Kobieta,2022-06-11_09h21.28.237,task,2021.1.4,Win32,60.37918126,6299f149e92ead563fba08ef,62a4424ba1a5d54b64e81f2d,,,,,,,,,,,,,,,,,,,,,,,,,,,,,,,,,,,,,,,,,,,,,,,,,,,,,,,,,,,,,,,,,,,,,,,,,,,,1,0,1,0,1,,,,,,,,,,,,,,,,,,,,,
,,,,,,,,,,,,609ea6976e377c8f9f77759a,22,Kobieta,2022-06-11_09h21.28.237,task,2021.1.4,Win32,60.37918126,6299f149e92ead563fba08ef,62a4424ba1a5d54b64e81f2d,,,,,,,,,,,,,6,,,,,,,,,,Task,5,(2x3) + 0,6,,,,,,,,,,,,,,,,,,,1,,,,,,,,,,,,,,,,,,,,,,,"[""6""]",1,0,0,0,4,1,[2.8977000000030557],,,,,,,,,,,,,,,,,,,,,,,,,,
,,,,,,,,,,,X V Q F H G B L J M P D K C T S W R N Z,609ea6976e377c8f9f77759a,22,Kobieta,2022-06-11_09h21.28.237,task,2021.1.4,Win32,60.37918126,6299f149e92ead563fba08ef,62a4424ba1a5d54b64e81f2d,,,,,,,,,,,,,,,,,,,,,,,,,,,,,,,,,,,,,,,,,,,,,,,,,,,,,,,,,,,,,,,,,,,,,,,,,,,,2,0,2,0,1,,,,,,,,,,,,,,,,,,,,,
,,,,,,,,,,,,609ea6976e377c8f9f77759a,22,Kobieta,2022-06-11_09h21.28.237,task,2021.1.4,Win32,60.37918126,6299f149e92ead563fba08ef,62a4424ba1a5d54b64e81f2d,,,,,,,,,,,,,,,,,,,,,,,,,,,,,,,,,,,,,,,,,,,,,,,,,,,,,,,,,,,,,,,,,,,,,,,,,,,,,,,,,vfx,"[""v"",""f"",""x""]",0,"[1.9858999999910338,2.285399999991,2.5421999999880427,3.1585000000000036]",1,VFX,1,0,1,0,1,,,,,,,,,,
,,,,,,,,,,,,609ea6976e377c8f9f77759a,22,Kobieta,2022-06-11_09h21.28.237,task,2021.1.4,Win32,60.37918126,6299f149e92ead563fba08ef,62a4424ba1a5d54b64e81f2d,,,,,,,,,,,,,3,,,,,,,,,,Task,20,(18/9) + 1,3,,,,,,,,,,,,,,,,,,,1,,,,,,,,,,,,,,,,,,,,,,,"[""3""]",1,0,0,0,19,1,[2.5417000000029475],,,,,,,,,,,,,,,,,,,,,,,,,,
,,,,,,,,,,,X V Q F H G B L J M P D K C T S W R N Z,609ea6976e377c8f9f77759a,22,Kobieta,2022-06-11_09h21.28.237,task,2021.1.4,Win32,60.37918126,6299f149e92ead563fba08ef,62a4424ba1a5d54b64e81f2d,,,,,,,,,,,,,,,,,,,,,,,,,,,,,,,,,,,,,,,,,,,,,,,,,,,,,,,,,,,,,,,,,,,,,,,,,,,,0,0,0,0,1,,,,,,,,,,,,,,,,,,,,,
,,,,,,,,,,,,609ea6976e377c8f9f77759a,22,Kobieta,2022-06-11_09h21.28.237,task,2021.1.4,Win32,60.37918126,6299f149e92ead563fba08ef,62a4424ba1a5d54b64e81f2d,,,,,,,,,,,,,7,,,,,,,,,,Task,14,(2x2) + 3,7,,,,,,,,,,,,,,,,,,,1,,,,,,,,,,,,,,,,,,,,,,,"[""7""]",1,0,0,0,13,1,[2.6892999999969334],,,,,,,,,,,,,,,,,,,,,,,,,,
,,,,,,,,,,,X V Q F H G B L J M P D K C T S W R N Z,609ea6976e377c8f9f77759a,22,Kobieta,2022-06-11_09h21.28.237,task,2021.1.4,Win32,60.37918126,6299f149e92ead563fba08ef,62a4424ba1a5d54b64e81f2d,,,,,,,,,,,,,,,,,,,,,,,,,,,,,,,,,,,,,,,,,,,,,,,,,,,,,,,,,,,,,,,,,,,,,,,,,,,,1,0,1,0,1,,,,,,,,,,,,,,,,,,,,,
,,,,,,,,,,,,609ea6976e377c8f9f77759a,22,Kobieta,2022-06-11_09h21.28.237,task,2021.1.4,Win32,60.37918126,6299f149e92ead563fba08ef,62a4424ba1a5d54b64e81f2d,,,,,,,,,,,,,3,,,,,,,,,,Task,35,(1x2) + 1,3,,,,,,,,,,,,,,,,,,,1,,,,,,,,,,,,,,,,,,,,,,,"[""3""]",1,0,0,0,34,1,[2.3558999999910384],,,,,,,,,,,,,,,,,,,,,,,,,,
,,,,,,,,,,,X V Q F H G B L J M P D K C T S W R N Z,609ea6976e377c8f9f77759a,22,Kobieta,2022-06-11_09h21.28.237,task,2021.1.4,Win32,60.37918126,6299f149e92ead563fba08ef,62a4424ba1a5d54b64e81f2d,,,,,,,,,,,,,,,,,,,,,,,,,,,,,,,,,,,,,,,,,,,,,,,,,,,,,,,,,,,,,,,,,,,,,,,,,,,,2,0,2,0,1,,,,,,,,,,,,,,,,,,,,,
,,,,,,,,,,,,609ea6976e377c8f9f77759a,22,Kobieta,2022-06-11_09h21.28.237,task,2021.1.4,Win32,60.37918126,6299f149e92ead563fba08ef,62a4424ba1a5d54b64e81f2d,,,,,,,,,,,,,3,,,,,,,,,,Task,35,(1x2) + 1,3,,,,,,,,,,,,,,,,,,,1,,,,,,,,,,,,,,,,,,,,,,,"[""3""]",1,0,0,0,34,1,[2.8789000000060696],,,,,,,,,,,,,,,,,,,,,,,,,,
,,,,,,,,,,,X V Q F H G B L J M P D K C T S W R N Z,609ea6976e377c8f9f77759a,22,Kobieta,2022-06-11_09h21.28.237,task,2021.1.4,Win32,60.37918126,6299f149e92ead563fba08ef,62a4424ba1a5d54b64e81f2d,,,,,,,,,,,,,,,,,,,,,,,,,,,,,,,,,,,,,,,,,,,,,,,,,,,,,,,,,,,,,,,,,,,,,,,,,,,,3,0,3,0,1,,,,,,,,,,,,,,,,,,,,,
,,,,,,,,,,,,609ea6976e377c8f9f77759a,22,Kobieta,2022-06-11_09h21.28.237,task,2021.1.4,Win32,60.37918126,6299f149e92ead563fba08ef,62a4424ba1a5d54b64e81f2d,,,,,,,,,,,,,,,,,,,,,,,,,,,,,,,,,,,,,,,,,,,,,,,,,,,,,,,,,,,,,,,,,,,,,,,,,,,,,,,,,vpxc,"[""v"",""p"",""x"",""c""]",0,"[4.797799999997096,5.6874000000060505,7.213900000005992,7.351700000003007,8.218299999997043]",0,BPMC,2,0,2,0,1,,,,,,,,,,
,,,,,,,,,,,,609ea6976e377c8f9f77759a,22,Kobieta,2022-06-11_09h21.28.237,task,2021.1.4,Win32,60.37918126,6299f149e92ead563fba08ef,62a4424ba1a5d54b64e81f2d,,,,,,,,,,,,,4,,,,,,,,,,Task,21,(10/2) - 1,4,,,,,,,,,,,,,,,,,,,1,,,,,,,,,,,,,,,,,,,,,,,"[""4""]",1,0,0,0,20,1,[2.6684000000059314],,,,,,,,,,,,,,,,,,,,,,,,,,
,,,,,,,,,,,X V Q F H G B L J M P D K C T S W R N Z,609ea6976e377c8f9f77759a,22,Kobieta,2022-06-11_09h21.28.237,task,2021.1.4,Win32,60.37918126,6299f149e92ead563fba08ef,62a4424ba1a5d54b64e81f2d,,,,,,,,,,,,,,,,,,,,,,,,,,,,,,,,,,,,,,,,,,,,,,,,,,,,,,,,,,,,,,,,,,,,,,,,,,,,0,0,0,0,1,,,,,,,,,,,,,,,,,,,,,
,,,,,,,,,,,,609ea6976e377c8f9f77759a,22,Kobieta,2022-06-11_09h21.28.237,task,2021.1.4,Win32,60.37918126,6299f149e92ead563fba08ef,62a4424ba1a5d54b64e81f2d,,,,,,,,,,,,,9,,,,,,,,,,Task,40,(7x2) - 5,9,,,,,,,,,,,,,,,,,,,1,,,,,,,,,,,,,,,,,,,,,,,"[""9""]",1,0,0,0,39,1,[3.4687999999970316],,,,,,,,,,,,,,,,,,,,,,,,,,
,,,,,,,,,,,X V Q F H G B L J M P D K C T S W R N Z,609ea6976e377c8f9f77759a,22,Kobieta,2022-06-11_09h21.28.237,task,2021.1.4,Win32,60.37918126,6299f149e92ead563fba08ef,62a4424ba1a5d54b64e81f2d,,,,,,,,,,,,,,,,,,,,,,,,,,,,,,,,,,,,,,,,,,,,,,,,,,,,,,,,,,,,,,,,,,,,,,,,,,,,1,0,1,0,1,,,,,,,,,,,,,,,,,,,,,
,,,,,,,,,,,,609ea6976e377c8f9f77759a,22,Kobieta,2022-06-11_09h21.28.237,task,2021.1.4,Win32,60.37918126,6299f149e92ead563fba08ef,62a4424ba1a5d54b64e81f2d,,,,,,,,,,,,,9,,,,,,,,,,Task,40,(7x2) - 5,9,,,,,,,,,,,,,,,,,,,1,,,,,,,,,,,,,,,,,,,,,,,"[""9""]",1,0,0,0,39,1,[2.334500000000048],,,,,,,,,,,,,,,,,,,,,,,,,,
,,,,,,,,,,,X V Q F H G B L J M P D K C T S W R N Z,609ea6976e377c8f9f77759a,22,Kobieta,2022-06-11_09h21.28.237,task,2021.1.4,Win32,60.37918126,6299f149e92ead563fba08ef,62a4424ba1a5d54b64e81f2d,,,,,,,,,,,,,,,,,,,,,,,,,,,,,,,,,,,,,,,,,,,,,,,,,,,,,,,,,,,,,,,,,,,,,,,,,,,,2,0,2,0,1,,,,,,,,,,,,,,,,,,,,,
,,,,,,,,,,,,609ea6976e377c8f9f77759a,22,Kobieta,2022-06-11_09h21.28.237,task,2021.1.4,Win32,60.37918126,6299f149e92ead563fba08ef,62a4424ba1a5d54b64e81f2d,,,,,,,,,,,,,0,,,,,,,,,,Task,25,(10/5) - 2,0,,,,,,,,,,,,,,,,,,,1,,,,,,,,,,,,,,,,,,,,,,,"[""0""]",1,0,0,0,24,1,[4.106400000006033],,,,,,,,,,,,,,,,,,,,,,,,,,
,,,,,,,,,,,X V Q F H G B L J M P D K C T S W R N Z,609ea6976e377c8f9f77759a,22,Kobieta,2022-06-11_09h21.28.237,task,2021.1.4,Win32,60.37918126,6299f149e92ead563fba08ef,62a4424ba1a5d54b64e81f2d,,,,,,,,,,,,,,,,,,,,,,,,,,,,,,,,,,,,,,,,,,,,,,,,,,,,,,,,,,,,,,,,,,,,,,,,,,,,3,0,3,0,1,,,,,,,,,,,,,,,,,,,,,
,,,,,,,,,,,,609ea6976e377c8f9f77759a,22,Kobieta,2022-06-11_09h21.28.237,task,2021.1.4,Win32,60.37918126,6299f149e92ead563fba08ef,62a4424ba1a5d54b64e81f2d,,,,,,,,,,,,,,,,,,,,,,,,,,,,,,,,,,,,,,,,,,,,,,,,,,,,,,,,,,,,,,,,,,,,,,,,,,,,,,,,,jhqv,"[""j"",""h"",""q"",""v""]",0,"[1.9843999999910693,2.717599999994036,3.252499999999941,3.74249999999995,4.53269999998804]",1,JHQV,3,0,3,0,1,,,,,,,,,,
,,,,,,,,,,,,609ea6976e377c8f9f77759a,22,Kobieta,2022-06-11_09h21.28.237,task,2021.1.4,Win32,60.37918126,6299f149e92ead563fba08ef,62a4424ba1a5d54b64e81f2d,,,,,,,,,,,,,9,,,,,,,,,,Task,40,(7x2) - 5,9,,,,,,,,,,,,,,,,,,,1,,,,,,,,,,,,,,,,,,,,,,,"[""9""]",1,0,0,0,39,1,[3.586100000008969],,,,,,,,,,,,,,,,,,,,,,,,,,
,,,,,,,,,,,X V Q F H G B L J M P D K C T S W R N Z,609ea6976e377c8f9f77759a,22,Kobieta,2022-06-11_09h21.28.237,task,2021.1.4,Win32,60.37918126,6299f149e92ead563fba08ef,62a4424ba1a5d54b64e81f2d,,,,,,,,,,,,,,,,,,,,,,,,,,,,,,,,,,,,,,,,,,,,,,,,,,,,,,,,,,,,,,,,,,,,,,,,,,,,0,0,0,0,1,,,,,,,,,,,,,,,,,,,,,
,,,,,,,,,,,,609ea6976e377c8f9f77759a,22,Kobieta,2022-06-11_09h21.28.237,task,2021.1.4,Win32,60.37918126,6299f149e92ead563fba08ef,62a4424ba1a5d54b64e81f2d,,,,,,,,,,,,,,,,,,,,,,,Task,11,(18/3) - 2,4,,,,,,,,,,,,,,,,,,,0,,,,,,,,,,,,,,,,,,,,,,,,0,0,0,0,10,1,,,,,,,,,,,,,,,,,,,,,,,,,,,
,,,,,,,,,,,,609ea6976e377c8f9f77759a,22,Kobieta,2022-06-11_09h21.28.237,task,2021.1.4,Win32,60.37918126,6299f149e92ead563fba08ef,62a4424ba1a5d54b64e81f2d,,,,,,,,,,,,,5,,,,,,,,,,Task,29,(3x8) - 19 ,5,,,,,,,,,,,,,,,,,,,1,,,,,,,,,,,,,,,,,,,,,,,"[""5""]",1,0,1,1,28,1,[5.349599999994098],,,,,,,,,,,,,,,,,,,,,,,,,,
,,,,,,,,,,,X V Q F H G B L J M P D K C T S W R N Z,609ea6976e377c8f9f77759a,22,Kobieta,2022-06-11_09h21.28.237,task,2021.1.4,Win32,60.37918126,6299f149e92ead563fba08ef,62a4424ba1a5d54b64e81f2d,,,,,,,,,,,,,,,,,,,,,,,,,,,,,,,,,,,,,,,,,,,,,,,,,,,,,,,,,,,,,,,,,,,,,,,,,,,,1,0,1,0,1,,,,,,,,,,,,,,,,,,,,,
,,,,,,,,,,,,609ea6976e377c8f9f77759a,22,Kobieta,2022-06-11_09h21.28.237,task,2021.1.4,Win32,60.37918126,6299f149e92ead563fba08ef,62a4424ba1a5d54b64e81f2d,,,,,,,,,,,,,1,,,,,,,,,,Task,34,(9/3) - 2,1,,,,,,,,,,,,,,,,,,,1,,,,,,,,,,,,,,,,,,,,,,,"[""1""]",1,0,0,0,33,1,[3.101799999996956],,,,,,,,,,,,,,,,,,,,,,,,,,
,,,,,,,,,,,X V Q F H G B L J M P D K C T S W R N Z,609ea6976e377c8f9f77759a,22,Kobieta,2022-06-11_09h21.28.237,task,2021.1.4,Win32,60.37918126,6299f149e92ead563fba08ef,62a4424ba1a5d54b64e81f2d,,,,,,,,,,,,,,,,,,,,,,,,,,,,,,,,,,,,,,,,,,,,,,,,,,,,,,,,,,,,,,,,,,,,,,,,,,,,2,0,2,0,1,,,,,,,,,,,,,,,,,,,,,
,,,,,,,,,,,,609ea6976e377c8f9f77759a,22,Kobieta,2022-06-11_09h21.28.237,task,2021.1.4,Win32,60.37918126,6299f149e92ead563fba08ef,62a4424ba1a5d54b64e81f2d,,,,,,,,,,,,,2,,,,,,,,,,Task,26,(2x9) - 16,2,,,,,,,,,,,,,,,,,,,1,,,,,,,,,,,,,,,,,,,,,,,"[""2""]",1,0,0,0,25,1,[2.9929000000059887],,,,,,,,,,,,,,,,,,,,,,,,,,
,,,,,,,,,,,X V Q F H G B L J M P D K C T S W R N Z,609ea6976e377c8f9f77759a,22,Kobieta,2022-06-11_09h21.28.237,task,2021.1.4,Win32,60.37918126,6299f149e92ead563fba08ef,62a4424ba1a5d54b64e81f2d,,,,,,,,,,,,,,,,,,,,,,,,,,,,,,,,,,,,,,,,,,,,,,,,,,,,,,,,,,,,,,,,,,,,,,,,,,,,3,0,3,0,1,,,,,,,,,,,,,,,,,,,,,
,,,,,,,,,,,,609ea6976e377c8f9f77759a,22,Kobieta,2022-06-11_09h21.28.237,task,2021.1.4,Win32,60.37918126,6299f149e92ead563fba08ef,62a4424ba1a5d54b64e81f2d,,,,,,,,,,,,,,,,,,,,,,,Task,16,(3x8) - 15,9,,,,,,,,,,,,,,,,,,,0,,,,,,,,,,,,,,,,,,,,,,,,0,0,0,0,15,1,,,,,,,,,,,,,,,,,,,,,,,,,,,
,,,,,,,,,,,,609ea6976e377c8f9f77759a,22,Kobieta,2022-06-11_09h21.28.237,task,2021.1.4,Win32,60.37918126,6299f149e92ead563fba08ef,62a4424ba1a5d54b64e81f2d,,,,,,,,,,,,,6,,,,,,,,,,Task,37,(3/3) + 5,6,,,,,,,,,,,,,,,,,,,1,,,,,,,,,,,,,,,,,,,,,,,"[""6""]",1,0,1,1,36,1,[3.5163999999909947],,,,,,,,,,,,,,,,,,,,,,,,,,
,,,,,,,,,,,X V Q F H G B L J M P D K C T S W R N Z,609ea6976e377c8f9f77759a,22,Kobieta,2022-06-11_09h21.28.237,task,2021.1.4,Win32,60.37918126,6299f149e92ead563fba08ef,62a4424ba1a5d54b64e81f2d,,,,,,,,,,,,,,,,,,,,,,,,,,,,,,,,,,,,,,,,,,,,,,,,,,,,,,,,,,,,,,,,,,,,,,,,,,,,4,0,4,0,1,,,,,,,,,,,,,,,,,,,,,
,,,,,,,,,,,,609ea6976e377c8f9f77759a,22,Kobieta,2022-06-11_09h21.28.237,task,2021.1.4,Win32,60.37918126,6299f149e92ead563fba08ef,62a4424ba1a5d54b64e81f2d,,,,,,,,,,,,,,,,,,,,,,,,,,,,,,,,,,,,,,,,,,,,,,,,,,,,,,,,,,,,,,,,,,,,,,,,,,,,,,,,,tswt,"[""t"",""s"",""w"",""t""]",0,"[1.667799999996987,2.067599999993945,3.124899999991044,3.3348999999909665,5.619299999996997]",0,BTSWT,4,0,4,0,1,,,,,,,,,,
,,,,,,,,,,,,609ea6976e377c8f9f77759a,22,Kobieta,2022-06-11_09h21.28.237,task,2021.1.4,Win32,60.37918126,6299f149e92ead563fba08ef,62a4424ba1a5d54b64e81f2d,,,,,,,,,,,,,1,,,,,,,,,,Task,18,(16/4) - 3,1,,,,,,,,,,,,,,,,,,,1,,,,,,,,,,,,,,,,,,,,,,,"[""1""]",1,0,0,0,17,1,[4.571000000000026],,,,,,,,,,,,,,,,,,,,,,,,,,
,,,,,,,,,,,X V Q F H G B L J M P D K C T S W R N Z,609ea6976e377c8f9f77759a,22,Kobieta,2022-06-11_09h21.28.237,task,2021.1.4,Win32,60.37918126,6299f149e92ead563fba08ef,62a4424ba1a5d54b64e81f2d,,,,,,,,,,,,,,,,,,,,,,,,,,,,,,,,,,,,,,,,,,,,,,,,,,,,,,,,,,,,,,,,,,,,,,,,,,,,0,0,0,0,1,,,,,,,,,,,,,,,,,,,,,
,,,,,,,,,,,,609ea6976e377c8f9f77759a,22,Kobieta,2022-06-11_09h21.28.237,task,2021.1.4,Win32,60.37918126,6299f149e92ead563fba08ef,62a4424ba1a5d54b64e81f2d,,,,,,,,,,,,,,,,,,,,,,,Task,11,(18/3) - 2,4,,,,,,,,,,,,,,,,,,,0,,,,,,,,,,,,,,,,,,,,,,,,0,0,0,0,10,1,,,,,,,,,,,,,,,,,,,,,,,,,,,
,,,,,,,,,,,,609ea6976e377c8f9f77759a,22,Kobieta,2022-06-11_09h21.28.237,task,2021.1.4,Win32,60.37918126,6299f149e92ead563fba08ef,62a4424ba1a5d54b64e81f2d,,,,,,,,,,,,,1,,,,,,,,,,Task,18,(16/4) - 3,1,,,,,,,,,,,,,,,,,,,1,,,,,,,,,,,,,,,,,,,,,,,"[""1""]",1,0,1,1,17,1,[3.2692000000031385],,,,,,,,,,,,,,,,,,,,,,,,,,
,,,,,,,,,,,X V Q F H G B L J M P D K C T S W R N Z,609ea6976e377c8f9f77759a,22,Kobieta,2022-06-11_09h21.28.237,task,2021.1.4,Win32,60.37918126,6299f149e92ead563fba08ef,62a4424ba1a5d54b64e81f2d,,,,,,,,,,,,,,,,,,,,,,,,,,,,,,,,,,,,,,,,,,,,,,,,,,,,,,,,,,,,,,,,,,,,,,,,,,,,1,0,1,0,1,,,,,,,,,,,,,,,,,,,,,
,,,,,,,,,,,,609ea6976e377c8f9f77759a,22,Kobieta,2022-06-11_09h21.28.237,task,2021.1.4,Win32,60.37918126,6299f149e92ead563fba08ef,62a4424ba1a5d54b64e81f2d,,,,,,,,,,,,,2,,,,,,,,,,Task,26,(2x9) - 16,2,,,,,,,,,,,,,,,,,,,1,,,,,,,,,,,,,,,,,,,,,,,"[""2""]",1,0,0,0,25,1,[3.052100000008977],,,,,,,,,,,,,,,,,,,,,,,,,,
,,,,,,,,,,,X V Q F H G B L J M P D K C T S W R N Z,609ea6976e377c8f9f77759a,22,Kobieta,2022-06-11_09h21.28.237,task,2021.1.4,Win32,60.37918126,6299f149e92ead563fba08ef,62a4424ba1a5d54b64e81f2d,,,,,,,,,,,,,,,,,,,,,,,,,,,,,,,,,,,,,,,,,,,,,,,,,,,,,,,,,,,,,,,,,,,,,,,,,,,,2,0,2,0,1,,,,,,,,,,,,,,,,,,,,,
,,,,,,,,,,,,609ea6976e377c8f9f77759a,22,Kobieta,2022-06-11_09h21.28.237,task,2021.1.4,Win32,60.37918126,6299f149e92ead563fba08ef,62a4424ba1a5d54b64e81f2d,,,,,,,,,,,,,0,,,,,,,,,,Task,25,(10/5) - 2,0,,,,,,,,,,,,,,,,,,,1,,,,,,,,,,,,,,,,,,,,,,,"[""0""]",1,0,0,0,24,1,[3.7537000000029366],,,,,,,,,,,,,,,,,,,,,,,,,,
,,,,,,,,,,,X V Q F H G B L J M P D K C T S W R N Z,609ea6976e377c8f9f77759a,22,Kobieta,2022-06-11_09h21.28.237,task,2021.1.4,Win32,60.37918126,6299f149e92ead563fba08ef,62a4424ba1a5d54b64e81f2d,,,,,,,,,,,,,,,,,,,,,,,,,,,,,,,,,,,,,,,,,,,,,,,,,,,,,,,,,,,,,,,,,,,,,,,,,,,,3,0,3,0,1,,,,,,,,,,,,,,,,,,,,,
,,,,,,,,,,,,609ea6976e377c8f9f77759a,22,Kobieta,2022-06-11_09h21.28.237,task,2021.1.4,Win32,60.37918126,6299f149e92ead563fba08ef,62a4424ba1a5d54b64e81f2d,,,,,,,,,,,,,2,,,,,,,,,,Task,26,(2x9) - 16,2,,,,,,,,,,,,,,,,,,,1,,,,,,,,,,,,,,,,,,,,,,,"[""2""]",1,0,0,0,25,1,[2.1313000000118336],,,,,,,,,,,,,,,,,,,,,,,,,,
,,,,,,,,,,,X V Q F H G B L J M P D K C T S W R N Z,609ea6976e377c8f9f77759a,22,Kobieta,2022-06-11_09h21.28.237,task,2021.1.4,Win32,60.37918126,6299f149e92ead563fba08ef,62a4424ba1a5d54b64e81f2d,,,,,,,,,,,,,,,,,,,,,,,,,,,,,,,,,,,,,,,,,,,,,,,,,,,,,,,,,,,,,,,,,,,,,,,,,,,,4,0,4,0,1,,,,,,,,,,,,,,,,,,,,,
,,,,,,,,,,,,609ea6976e377c8f9f77759a,22,Kobieta,2022-06-11_09h21.28.237,task,2021.1.4,Win32,60.37918126,6299f149e92ead563fba08ef,62a4424ba1a5d54b64e81f2d,,,,,,,,,,,,,,,,,,,,,,,,,,,,,,,,,,,,,,,,,,,,,,,,,,,,,,,,,,,,,,,,,,,,,,,,,,,,,,,,,twjst,"[""t"",""w"",""j"",""s"",""t""]",0,"[1.3379999999999654,3.4724000000060187,4.222200000002886,4.648799999996982,5.419200000003002,7.234700000002931]",0,FWJZJ,5,0,5,0,1,,,,,,,,,,
,,,,,,,,,,,,609ea6976e377c8f9f77759a,22,Kobieta,2022-06-11_09h21.28.237,task,2021.1.4,Win32,60.37918126,6299f149e92ead563fba08ef,62a4424ba1a5d54b64e81f2d,,,,,,,,,,,,,,,,,,,,,,,,,,,,,,,,,,,,,,,,,,,,,,,,,,,,,,,,,,,,,,,,,,,,,,,,,,,,,,,,,,,,,,,,,,,,"[""comma""]",0,[1.3775000000000546],0,0,0,0,1,,
,,,,,,,,,,,,609ea6976e377c8f9f77759a,22,Kobieta,2022-06-11_09h21.28.237,task,2021.1.4,Win32,60.37918126,6299f149e92ead563fba08ef,62a4424ba1a5d54b64e81f2d,,,,,,,,,,,,,,,,,,,,,,,,,,,,,,,,,,,,,,,,,,,,,,,,,,,,,,,,,,,,,,,,,,,,,,,,,,,,,,,,,,,,,,,,,,,,"[""comma""]",0,[0.8433999999911066],1,0,1,0,1,,
,,,,,,,,,,,,609ea6976e377c8f9f77759a,22,Kobieta,2022-06-11_09h21.28.237,task,2021.1.4,Win32,60.37918126,6299f149e92ead563fba08ef,62a4424ba1a5d54b64e81f2d,,,,,,,,,,,,,,,,,,,,,,,,,,,,,,,,,,,,,,,,,,,,,,,,,,,,,,,,,,,,,,,,,,,,,,,,,,,,,,,,,,,,,,,,,,,,"[""period""]",0,[0.4568999999910375],2,0,2,0,1,,
,,,,,,,,,,,,609ea6976e377c8f9f77759a,22,Kobieta,2022-06-11_09h21.28.237,task,2021.1.4,Win32,60.37918126,6299f149e92ead563fba08ef,62a4424ba1a5d54b64e81f2d,,,,,,,,,,,,,,,,,,,,,,,,,,,,,,,,,,,,,,,,,,,,,,,,,,,,,,,,,,,,,,,,,,,,,,,,,,,,,,,,,,,,,,,,,,,,"[""comma""]",0,[0.4099999999998545],3,0,3,0,1,,
,,,,,,,,,,,,609ea6976e377c8f9f77759a,22,Kobieta,2022-06-11_09h21.28.237,task,2021.1.4,Win32,60.37918126,6299f149e92ead563fba08ef,62a4424ba1a5d54b64e81f2d,,,,,,,,,,,,,,,,,,,,,,,,,,,,,,,,,,,,,,,,,,,,,,,,,,,,,,,,,,,,,,,,,,,,,,,,,,,,,,,,,,,,,,,,,,,,"[""period""]",0,[0.46770000000310574],4,0,4,0,1,,
,,,,,,,,,,,,609ea6976e377c8f9f77759a,22,Kobieta,2022-06-11_09h21.28.237,task,2021.1.4,Win32,60.37918126,6299f149e92ead563fba08ef,62a4424ba1a5d54b64e81f2d,,,,,,,,,,,,,,,,,,,,,,,,,,,,,,,,,,,,,,,,,,,,,,,,,,,,,,,,,,,,,,,,,,,,,,,,,,,,,,,,,,,,,,,,,,,,"[""period""]",0,[0.33409999999389584],5,0,5,0,1,,
,,,,,,,,,,,,609ea6976e377c8f9f77759a,22,Kobieta,2022-06-11_09h21.28.237,task,2021.1.4,Win32,60.37918126,6299f149e92ead563fba08ef,62a4424ba1a5d54b64e81f2d,,,,,,,,,,,,,,,,,,,,,,,,,,,,,,,,,,,,,,,,,,,,,,,,,,,,,,,,,,,,,,,,,,,,,,,,,,,,,,,,,,,,,,,,,,,,"[""period""]",0,[0.3842999999969834],6,0,6,0,1,,
,,,,,,,,,,,,609ea6976e377c8f9f77759a,22,Kobieta,2022-06-11_09h21.28.237,task,2021.1.4,Win32,60.37918126,6299f149e92ead563fba08ef,62a4424ba1a5d54b64e81f2d,,,,,,,,,,,,,,,,,,,,,,,,,,,,,,,,,,,,,,,,,,,,,,,,,,,,,,,,,,,,,,,,,,,,,,,,,,,,,,,,,,,,,,,,,,,,"[""comma""]",0,[0.35729999999693973],7,0,7,0,1,,
,,,,,,,,,,,,609ea6976e377c8f9f77759a,22,Kobieta,2022-06-11_09h21.28.237,task,2021.1.4,Win32,60.37918126,6299f149e92ead563fba08ef,62a4424ba1a5d54b64e81f2d,,,,,,,,,,,,,,,,,,,,,,,,,,,,,,,,,,,,,,,,,,,,,,,,,,,,,,,,,,,,,,,,,,,,,,,,,,,,,,,,,,,,,,,,,,,,"[""period""]",0,[0.38599999999996726],8,0,8,0,1,,
,,,,,,,,,,,,609ea6976e377c8f9f77759a,22,Kobieta,2022-06-11_09h21.28.237,task,2021.1.4,Win32,60.37918126,6299f149e92ead563fba08ef,62a4424ba1a5d54b64e81f2d,,,,,,,,,,,,,,,,,,,,,,,,,,,,,,,,,,,,,,,,,,,,,,,,,,,,,,,,,,,,,,,,,,,,,,,,,,,,,,,,,,,,,,,,,,,,"[""period""]",0,[0.3505000000000109],9,0,9,0,1,,
,,,,,,,,,,,,609ea6976e377c8f9f77759a,22,Kobieta,2022-06-11_09h21.28.237,task,2021.1.4,Win32,60.37918126,6299f149e92ead563fba08ef,62a4424ba1a5d54b64e81f2d,,,,,,,,,,,,,,,,,,,,,,,,,,,,,,,,,,,,,,,,,,,,,,,,,,,,,,,,,,,,,,,,,,,,,,,,,,,,,,,,,,,,,,,,,,,,"[""comma""]",0,[0.2836000000088461],10,0,10,0,1,,
,,,,,,,,,,,,609ea6976e377c8f9f77759a,22,Kobieta,2022-06-11_09h21.28.237,task,2021.1.4,Win32,60.37918126,6299f149e92ead563fba08ef,62a4424ba1a5d54b64e81f2d,,,,,,,,,,,,,,,,,,,,,,,,,,,,,,,,,,,,,,,,,,,,,,,,,,,,,,,,,,,,,,,,,,,,,,,,,,,,,,,,,,,,,,,,,,,,"[""comma""]",0,[0.3910000000000764],11,0,11,0,1,,
,,,,,,,,,,,,609ea6976e377c8f9f77759a,22,Kobieta,2022-06-11_09h21.28.237,task,2021.1.4,Win32,60.37918126,6299f149e92ead563fba08ef,62a4424ba1a5d54b64e81f2d,,,,,,,,,,,,,,,,,,,,,,,,,,,,,,,,,,,,,,,,,,,,,,,,,,,,,,,,,,,,,,,,,,,,,,,,,,,,,,,,,,,,,,,,,,,,"[""comma""]",0,[0.2984000000058131],12,0,12,0,1,,
,,,,,,,,,,,,609ea6976e377c8f9f77759a,22,Kobieta,2022-06-11_09h21.28.237,task,2021.1.4,Win32,60.37918126,6299f149e92ead563fba08ef,62a4424ba1a5d54b64e81f2d,,,,,,,,,,,,,,,,,,,,,,,,,,,,,,,,,,,,,,,,,,,,,,,,,,,,,,,,,,,,,,,,,,,,,,,,,,,,,,,,,,,,,,,,,,,,"[""period""]",0,[0.33950000000004366],13,0,13,0,1,,
,,,,,,,,,,,,609ea6976e377c8f9f77759a,22,Kobieta,2022-06-11_09h21.28.237,task,2021.1.4,Win32,60.37918126,6299f149e92ead563fba08ef,62a4424ba1a5d54b64e81f2d,,,,,,,,,,,,,,,,,,,,,,,,,,,,,,,,,,,,,,,,,,,,,,,,,,,,,,,,,,,,,,,,,,,,,,,,,,,,,,,,,,,,,,,,,,,,"[""period""]",0,[0.38400000000001455],14,0,14,0,1,,
,,,,,,,,,,,,609ea6976e377c8f9f77759a,22,Kobieta,2022-06-11_09h21.28.237,task,2021.1.4,Win32,60.37918126,6299f149e92ead563fba08ef,62a4424ba1a5d54b64e81f2d,,,,,,,,,,,,,,,,,,,,,,,,,,,,,,,,,,,,,,,,,,,,,,,,,,,,,,,,,,,,,,,,,,,,,,,,,,,,,,,,,,,,,,,,,,,,"[""comma""]",0,[0.3227999999971871],15,0,15,0,1,,
,,,,,,,,,,,,609ea6976e377c8f9f77759a,22,Kobieta,2022-06-11_09h21.28.237,task,2021.1.4,Win32,60.37918126,6299f149e92ead563fba08ef,62a4424ba1a5d54b64e81f2d,,,,,,,,,,,,,,,,,,,,,,,,,,,,,,,,,,,,,,,,,,,,,,,,,,,,,,,,,,,,,,,,,,,,,,,,,,,,,,,,,,,,,,,,,,,,"[""comma""]",0,[0.45849999999995816],16,0,16,0,1,,
,,,,,,,,,,,,609ea6976e377c8f9f77759a,22,Kobieta,2022-06-11_09h21.28.237,task,2021.1.4,Win32,60.37918126,6299f149e92ead563fba08ef,62a4424ba1a5d54b64e81f2d,,,,,,,,,,,,,,,,,,,,,,,,,,,,,,,,,,,,,,,,,,,,,,,,,,,,,,,,,,,,,,,,,,,,,,,,,,,,,,,,,,,,,,,,,,,,"[""comma""]",0,[0.3876000000091153],17,0,17,0,1,,
,,,,,,,,,,,,609ea6976e377c8f9f77759a,22,Kobieta,2022-06-11_09h21.28.237,task,2021.1.4,Win32,60.37918126,6299f149e92ead563fba08ef,62a4424ba1a5d54b64e81f2d,,,,,,,,,,,,,,,,,,,,,,,,,,,,,,,,,,,,,,,,,,,,,,,,,,,,,,,,,,,,,,,,,,,,,,,,,,,,,,,,,,,,,,,,,,,,"[""period""]",0,[0.2487000000030548],18,0,18,0,1,,
,,,,,,,,,,,,609ea6976e377c8f9f77759a,22,Kobieta,2022-06-11_09h21.28.237,task,2021.1.4,Win32,60.37918126,6299f149e92ead563fba08ef,62a4424ba1a5d54b64e81f2d,,,,,,,,,,,,,,,,,,,,,,,,,,,,,,,,,,,,,,,,,,,,,,,,,,,,,,,,,,,,,,,,,,,,,,,,,,,,,,,,,,,,,,,,,,,,"[""comma""]",0,[0.3577999999970416],19,0,19,0,1,,
,,,,,,,,,,,,609ea6976e377c8f9f77759a,22,Kobieta,2022-06-11_09h21.28.237,task,2021.1.4,Win32,60.37918126,6299f149e92ead563fba08ef,62a4424ba1a5d54b64e81f2d,,,,,,,,,,,,,,,,,,,,,,,,,,,,,,,,,,,,,,,,,,,,,,,,,,,,,,,,,,,,,,,,,,,,,,,,,,,,,,,,,,,,,,,,,,,,"[""period""]",0,[0.25210000000902255],20,0,20,0,1,,
,,,,,,,,,,,,609ea6976e377c8f9f77759a,22,Kobieta,2022-06-11_09h21.28.237,task,2021.1.4,Win32,60.37918126,6299f149e92ead563fba08ef,62a4424ba1a5d54b64e81f2d,,,,,,,,,,,,,,,,,,,,,,,,,,,,,,,,,,,,,,,,,,,,,,,,,,,,,,,,,,,,,,,,,,,,,,,,,,,,,,,,,,,,,,,,,,,,"[""period""]",0,[0.27899999999999636],21,0,21,0,1,,
,,,,,,,,,,,,609ea6976e377c8f9f77759a,22,Kobieta,2022-06-11_09h21.28.237,task,2021.1.4,Win32,60.37918126,6299f149e92ead563fba08ef,62a4424ba1a5d54b64e81f2d,,,,,,,,,,,,,,,,,,,,,,,,,,,,,,,,,,,,,,,,,,,,,,,,,,,,,,,,,,,,,,,,,,,,,,,,,,,,,,,,,,,,,,,,,,,,"[""comma""]",0,[0.2664000000058877],22,0,22,0,1,,
,,,,,,,,,,,,609ea6976e377c8f9f77759a,22,Kobieta,2022-06-11_09h21.28.237,task,2021.1.4,Win32,60.37918126,6299f149e92ead563fba08ef,62a4424ba1a5d54b64e81f2d,,,,,,,,,,,,,,,,,,,,,,,,,,,,,,,,,,,,,,,,,,,,,,,,,,,,,,,,,,,,,,,,,,,,,,,,,,,,,,,,,,,,,,,,,,,,"[""comma""]",0,[0.29239999999094834],23,0,23,0,1,,
,,,,,,,,,,,,609ea6976e377c8f9f77759a,22,Kobieta,2022-06-11_09h21.28.237,task,2021.1.4,Win32,60.37918126,6299f149e92ead563fba08ef,62a4424ba1a5d54b64e81f2d,,,,,,,,,,,,,,,,,,,,,,,,,,,,,,,,,,,,,,,,,,,,,,,,,,,,,,,,,,,,,,,,,,,,,,,,,,,,,,,,,,,,,,,,,,,,"[""comma""]",0,[0.25629999999705433],24,0,24,0,1,,
,,,,,,,,,,,,609ea6976e377c8f9f77759a,22,Kobieta,2022-06-11_09h21.28.237,task,2021.1.4,Win32,60.37918126,6299f149e92ead563fba08ef,62a4424ba1a5d54b64e81f2d,,,,,,,,,,,,,,,,,,,,,,,,,,,,,,,,,,,,,,,,,,,,,,,,,,,,,,,,,,,,,,,,,,,,,,,,,,,,,,,,,,,,,,,,,,,,"[""comma""]",0,[0.2880999999940741],25,0,25,0,1,,
,,,,,,,,,,,,609ea6976e377c8f9f77759a,22,Kobieta,2022-06-11_09h21.28.237,task,2021.1.4,Win32,60.37918126,6299f149e92ead563fba08ef,62a4424ba1a5d54b64e81f2d,,,,,,,,,,,,,,,,,,,,,,,,,,,,,,,,,,,,,,,,,,,,,,,,,,,,,,,,,,,,,,,,,,,,,,,,,,,,,,,,,,,,,,,,,,,,"[""comma""]",0,[0.30029999999715073],26,0,26,0,1,,
,,,,,,,,,,,,609ea6976e377c8f9f77759a,22,Kobieta,2022-06-11_09h21.28.237,task,2021.1.4,Win32,60.37918126,6299f149e92ead563fba08ef,62a4424ba1a5d54b64e81f2d,,,,,,,,,,,,,,,,,,,,,,,,,,,,,,,,,,,,,,,,,,,,,,,,,,,,,,,,,,,,,,,,,,,,,,,,,,,,,,,,,,,,,,,,,,,,"[""comma""]",0,[0.27159999999389584],27,0,27,0,1,,
,,,,,,,,,,,,609ea6976e377c8f9f77759a,22,Kobieta,2022-06-11_09h21.28.237,task,2021.1.4,Win32,60.37918126,6299f149e92ead563fba08ef,62a4424ba1a5d54b64e81f2d,,,,,,,,,,,,,,,,,,,,,,,,,,,,,,,,,,,,,,,,,,,,,,,,,,,,,,,,,,,,,,,,,,,,,,,,,,,,,,,,,,,,,,,,,,,,"[""period"",""period""]",0,"[0.25549999999998363,0.618899999991072]",28,0,28,0,1,,
,,,,,,,,,,,,609ea6976e377c8f9f77759a,22,Kobieta,2022-06-11_09h21.28.237,task,2021.1.4,Win32,60.37918126,6299f149e92ead563fba08ef,62a4424ba1a5d54b64e81f2d,,,,,,,,,,,,,,,,,,,,,,,,,,,,,,,,,,,,,,,,,,,,,,,,,,,,,,,,,,,,,,,,,,,,,,,,,,,,,,,,,,,,,,,,,,,,"[""period""]",0,[0.2661999999879754],29,0,29,0,1,,
,,,,,,,,,,,,609ea6976e377c8f9f77759a,22,Kobieta,2022-06-11_09h21.28.237,task,2021.1.4,Win32,60.37918126,6299f149e92ead563fba08ef,62a4424ba1a5d54b64e81f2d,,,,,,,,,,,,,,,,,,,,,,,,,,,,,,,,,,,,,,,,,,,,,,,,,,,,,,,,,,,,,,,,,,,,,,,,,,,,,,,,,,,,,,,,,,,,,0,,30,0,30,0,1,,
,,,,,,,,,,,,609ea6976e377c8f9f77759a,22,Kobieta,2022-06-11_09h21.28.237,task,2021.1.4,Win32,60.37918126,6299f149e92ead563fba08ef,62a4424ba1a5d54b64e81f2d,,,,,,,,,,,,,,,,,,,,,,,,,,,,,,,,,,,,,,,,,,,,,,,,,,,,,,,,,,,,,,,,,,,,,,,,,,,,,,,,,,,,,,,,,,,,"[""period""]",0,[0.2697000000027856],31,0,31,0,1,,
,,,,,,,,,,,,609ea6976e377c8f9f77759a,22,Kobieta,2022-06-11_09h21.28.237,task,2021.1.4,Win32,60.37918126,6299f149e92ead563fba08ef,62a4424ba1a5d54b64e81f2d,,,,,,,,,,,,,,,,,,,,,,,,,,,,,,,,,,,,,,,,,,,,,,,,,,,,,,,,,,,,,,,,,,,,,,,,,,,,,,,,,,,,,,,,,,,,"[""comma""]",0,[0.2532000000028347],32,0,32,0,1,,
,,,,,,,,,,,,609ea6976e377c8f9f77759a,22,Kobieta,2022-06-11_09h21.28.237,task,2021.1.4,Win32,60.37918126,6299f149e92ead563fba08ef,62a4424ba1a5d54b64e81f2d,,,,,,,,,,,,,,,,,,,,,,,,,,,,,,,,,,,,,,,,,,,,,,,,,,,,,,,,,,,,,,,,,,,,,,,,,,,,,,,,,,,,,,,,,,,,"[""comma""]",0,[0.2513000000117245],33,0,33,0,1,,
,,,,,,,,,,,,609ea6976e377c8f9f77759a,22,Kobieta,2022-06-11_09h21.28.237,task,2021.1.4,Win32,60.37918126,6299f149e92ead563fba08ef,62a4424ba1a5d54b64e81f2d,,,,,,,,,,,,,,,,,,,,,,,,,,,,,,,,,,,,,,,,,,,,,,,,,,,,,,,,,,,,,,,,,,,,,,,,,,,,,,,,,,,,,,,,,,,,"[""period""]",0,[0.25080000001185],34,0,34,0,1,,
,,,,,,,,,,,,609ea6976e377c8f9f77759a,22,Kobieta,2022-06-11_09h21.28.237,task,2021.1.4,Win32,60.37918126,6299f149e92ead563fba08ef,62a4424ba1a5d54b64e81f2d,,,,,,,,,,,,,,,,,,,,,,,,,,,,,,,,,,,,,,,,,,,,,,,,,,,,,,,,,,,,,,,,,,,,,,,,,,,,,,,,,,,,,,,,,,,,"[""comma""]",0,[0.3342000000029657],35,0,35,0,1,,
,,,,,,,,,,,,609ea6976e377c8f9f77759a,22,Kobieta,2022-06-11_09h21.28.237,task,2021.1.4,Win32,60.37918126,6299f149e92ead563fba08ef,62a4424ba1a5d54b64e81f2d,,,,,,,,,,,,,,,,,,,,,,,,,,,,,,,,,,,,,,,,,,,,,,,,,,,,,,,,,,,,,,,,,,,,,,,,,,,,,,,,,,,,,,,,,,,,"[""comma""]",0,[0.3037999999969543],36,0,36,0,1,,
,,,,,,,,,,,,609ea6976e377c8f9f77759a,22,Kobieta,2022-06-11_09h21.28.237,task,2021.1.4,Win32,60.37918126,6299f149e92ead563fba08ef,62a4424ba1a5d54b64e81f2d,,,,,,,,,,,,,,,,,,,,,,,,,,,,,,,,,,,,,,,,,,,,,,,,,,,,,,,,,,,,,,,,,,,,,,,,,,,,,,,,,,,,,,,,,,,,"[""comma""]",0,[0.28350000000000364],37,0,37,0,1,,
,,,,,,,,,,,,609ea6976e377c8f9f77759a,22,Kobieta,2022-06-11_09h21.28.237,task,2021.1.4,Win32,60.37918126,6299f149e92ead563fba08ef,62a4424ba1a5d54b64e81f2d,,,,,,,,,,,,,,,,,,,,,,,,,,,,,,,,,,,,,,,,,,,,,,,,,,,,,,,,,,,,,,,,,,,,,,,,,,,,,,,,,,,,,,,,,,,,"[""period""]",0,[0.24059999999394677],38,0,38,0,1,,
,,,,,,,,,,,,609ea6976e377c8f9f77759a,22,Kobieta,2022-06-11_09h21.28.237,task,2021.1.4,Win32,60.37918126,6299f149e92ead563fba08ef,62a4424ba1a5d54b64e81f2d,,,,,,,,,,,,,,,,,,,,,,,,,,,,,,,,,,,,,,,,,,,,,,,,,,,,,,,,,,,,,,,,,,,,,,,,,,,,,,,,,,,,,,,,,,,,"[""period""]",0,[0.3169000000059441],39,0,39,0,1,,
,,,,,,,,,,,,609ea6976e377c8f9f77759a,22,Kobieta,2022-06-11_09h21.28.237,task,2021.1.4,Win32,60.37918126,6299f149e92ead563fba08ef,62a4424ba1a5d54b64e81f2d,,,,,,,,,,,,,,,,,,,,,,,,,,,,,,,,,,,,,,,,,,,,,,,,,,,,,,,,,,,,,,,,,,,,,,,,,,,,,,,,,,,,,,,,,,,,"[""comma""]",0,[0.33359999999402135],40,0,40,0,1,,
,,,,,,,,,,,,609ea6976e377c8f9f77759a,22,Kobieta,2022-06-11_09h21.28.237,task,2021.1.4,Win32,60.37918126,6299f149e92ead563fba08ef,62a4424ba1a5d54b64e81f2d,,,,,,,,,,,,,,,,,,,,,,,,,,,,,,,,,,,,,,,,,,,,,,,,,,,,,,,,,,,,,,,,,,,,,,,,,,,,,,,,,,,,,,,,,,,,"[""comma""]",0,[0.30429999999705615],41,0,41,0,1,,
,,,,,,,,,,,,609ea6976e377c8f9f77759a,22,Kobieta,2022-06-11_09h21.28.237,task,2021.1.4,Win32,60.37918126,6299f149e92ead563fba08ef,62a4424ba1a5d54b64e81f2d,,,,,,,,,,,,,,,,,,,,,,,,,,,,,,,,,,,,,,,,,,,,,,,,,,,,,,,,,,,,,,,,,,,,,,,,,,,,,,,,,,,,,,,,,,,,"[""period""]",0,[0.35759999999413594],42,0,42,0,1,,
,,,,,,,,,,,,609ea6976e377c8f9f77759a,22,Kobieta,2022-06-11_09h21.28.237,task,2021.1.4,Win32,60.37918126,6299f149e92ead563fba08ef,62a4424ba1a5d54b64e81f2d,,,,,,,,,,,,,,,,,,,,,,,,,,,,,,,,,,,,,,,,,,,,,,,,,,,,,,,,,,,,,,,,,,,,,,,,,,,,,,,,,,,,,,,,,,,,"[""period""]",0,[0.4857000000029075],43,0,43,0,1,,
,,,,,,,,,,,,609ea6976e377c8f9f77759a,22,Kobieta,2022-06-11_09h21.28.237,task,2021.1.4,Win32,60.37918126,6299f149e92ead563fba08ef,62a4424ba1a5d54b64e81f2d,,,,,,,,,,,,,,,,,,,,,,,,,,,,,,,,,,,,,,,,,,,,,,,,,,,,,,,,,,,,,,,,,,,,,,,,,,,,,,,,,,,,,,,,,,,,"[""period""]",0,[0.35269999998809],44,0,44,0,1,,
,,,,,,,,,,,,609ea6976e377c8f9f77759a,22,Kobieta,2022-06-11_09h21.28.237,task,2021.1.4,Win32,60.37918126,6299f149e92ead563fba08ef,62a4424ba1a5d54b64e81f2d,,,,,,,,,,,,,,,,,,,,,,,,,,,,,,,,,,,,,,,,,,,,,,,,,,,,,,,,,,,,,,,,,,,,,,,,,,,,,,,,,,,,,,,,,,,,"[""period""]",0,[0.33670000000302025],45,0,45,0,1,,
,,,,,,,,,,,,609ea6976e377c8f9f77759a,22,Kobieta,2022-06-11_09h21.28.237,task,2021.1.4,Win32,60.37918126,6299f149e92ead563fba08ef,62a4424ba1a5d54b64e81f2d,,,,,,,,,,,,,,,,,,,,,,,,,,,,,,,,,,,,,,,,,,,,,,,,,,,,,,,,,,,,,,,,,,,,,,,,,,,,,,,,,,,,,,,,,,,,"[""comma""]",0,[0.3000999999940177],46,0,46,0,1,,
,,,,,,,,,,,,609ea6976e377c8f9f77759a,22,Kobieta,2022-06-11_09h21.28.237,task,2021.1.4,Win32,60.37918126,6299f149e92ead563fba08ef,62a4424ba1a5d54b64e81f2d,,,,,,,,,,,,,,,,,,,,,,,,,,,,,,,,,,,,,,,,,,,,,,,,,,,,,,,,,,,,,,,,,,,,,,,,,,,,,,,,,,,,,,,,,,,,"[""comma""]",0,[0.28839999999104293],47,0,47,0,1,,
,,,,,,,,,,,,609ea6976e377c8f9f77759a,22,Kobieta,2022-06-11_09h21.28.237,task,2021.1.4,Win32,60.37918126,6299f149e92ead563fba08ef,62a4424ba1a5d54b64e81f2d,,,,,,,,,,,,,,,,,,,,,,,,,,,,,,,,,,,,,,,,,,,,,,,,,,,,,,,,,,,,,,,,,,,,,,,,,,,,,,,,,,,,,,,,,,,,"[""comma""]",0,[0.29899999999997817],48,0,48,0,1,,
,,,,,,,,,,,,609ea6976e377c8f9f77759a,22,Kobieta,2022-06-11_09h21.28.237,task,2021.1.4,Win32,60.37918126,6299f149e92ead563fba08ef,62a4424ba1a5d54b64e81f2d,,,,,,,,,,,,,,,,,,,,,,,,,,,,,,,,,,,,,,,,,,,,,,,,,,,,,,,,,,,,,,,,,,,,,,,,,,,,,,,,,,,,,,,,,,,,"[""comma""]",0,[0.45020000000295113],49,0,49,0,1,,
,,,,,,,,,,,,609ea6976e377c8f9f77759a,22,Kobieta,2022-06-11_09h21.28.237,task,2021.1.4,Win32,60.37918126,6299f149e92ead563fba08ef,62a4424ba1a5d54b64e81f2d,,,,,,,,,,,,,,,,,,,,,,,,,,,,,,,,,,,,,,,,,,,,,,,,,,,,,,,,,,,,,,,,,,,,,,,,,,,,,,,,,,,,,,,,,,,,"[""period""]",0,[0.3174000000058186],50,0,50,0,1,,
,,,,,,,,,,,,609ea6976e377c8f9f77759a,22,Kobieta,2022-06-11_09h21.28.237,task,2021.1.4,Win32,60.37918126,6299f149e92ead563fba08ef,62a4424ba1a5d54b64e81f2d,,,,,,,,,,,,,,,,,,,,,,,,,,,,,,,,,,,,,,,,,,,,,,,,,,,,,,,,,,,,,,,,,,,,,,,,,,,,,,,,,,,,,,,,,,,,"[""period""]",0,[0.28670000000283835],51,0,51,0,1,,
,,,,,,,,,,,,609ea6976e377c8f9f77759a,22,Kobieta,2022-06-11_09h21.28.237,task,2021.1.4,Win32,60.37918126,6299f149e92ead563fba08ef,62a4424ba1a5d54b64e81f2d,,,,,,,,,,,,,,,,,,,,,,,,,,,,,,,,,,,,,,,,,,,,,,,,,,,,,,,,,,,,,,,,,,,,,,,,,,,,,,,,,,,,,,,,,,,,"[""period""]",0,[0.28909999999405045],52,0,52,0,1,,
,,,,,,,,,,,,609ea6976e377c8f9f77759a,22,Kobieta,2022-06-11_09h21.28.237,task,2021.1.4,Win32,60.37918126,6299f149e92ead563fba08ef,62a4424ba1a5d54b64e81f2d,,,,,,,,,,,,,,,,,,,,,,,,,,,,,,,,,,,,,,,,,,,,,,,,,,,,,,,,,,,,,,,,,,,,,,,,,,,,,,,,,,,,,,,,,,,,"[""period""]",0,[0.2667000000030839],53,0,53,0,1,,
,,,,,,,,,,,,609ea6976e377c8f9f77759a,22,Kobieta,2022-06-11_09h21.28.237,task,2021.1.4,Win32,60.37918126,6299f149e92ead563fba08ef,62a4424ba1a5d54b64e81f2d,,,,,,,,,,,,,,,,,,,,,,,,,,,,,,,,,,,,,,,,,,,,,,,,,,,,,,,,,,,,,,,,,,,,,,,,,,,,,,,,,,,,,,,,,,,,"[""comma""]",0,[0.3068999999909465],54,0,54,0,1,,
,,,,,,,,,,,,609ea6976e377c8f9f77759a,22,Kobieta,2022-06-11_09h21.28.237,task,2021.1.4,Win32,60.37918126,6299f149e92ead563fba08ef,62a4424ba1a5d54b64e81f2d,,,,,,,,,,,,,,,,,,,,,,,,,,,,,,,,,,,,,,,,,,,,,,,,,,,,,,,,,,,,,,,,,,,,,,,,,,,,,,,,,,,,,,,,,,,,"[""comma""]",0,[0.31790000000592045],55,0,55,0,1,,
,,,,,,,,,,,,609ea6976e377c8f9f77759a,22,Kobieta,2022-06-11_09h21.28.237,task,2021.1.4,Win32,60.37918126,6299f149e92ead563fba08ef,62a4424ba1a5d54b64e81f2d,,,,,,,,,,,,,,,,,,,,,,,,,,,,,,,,,,,,,,,,,,,,,,,,,,,,,,,,,,,,,,,,,,,,,,,,,,,,,,,,,,,,,,,,,,,,"[""comma""]",0,[0.26660000000879336],56,0,56,0,1,,
,,,,,,,,,,,,609ea6976e377c8f9f77759a,22,Kobieta,2022-06-11_09h21.28.237,task,2021.1.4,Win32,60.37918126,6299f149e92ead563fba08ef,62a4424ba1a5d54b64e81f2d,,,,,,,,,,,,,,,,,,,,,,,,,,,,,,,,,,,,,,,,,,,,,,,,,,,,,,,,,,,,,,,,,,,,,,,,,,,,,,,,,,,,,,,,,,,,"[""period""]",0,[0.46779999999694155],57,0,57,0,1,,
,,,,,,,,,,,,609ea6976e377c8f9f77759a,22,Kobieta,2022-06-11_09h21.28.237,task,2021.1.4,Win32,60.37918126,6299f149e92ead563fba08ef,62a4424ba1a5d54b64e81f2d,,,,,,,,,,,,,,,,,,,,,,,,,,,,,,,,,,,,,,,,,,,,,,,,,,,,,,,,,,,,,,,,,,,,,,,,,,,,,,,,,,,,,,,,,,,,"[""period""]",0,[0.3554999999998927],58,0,58,0,1,,
,,,,,,,,,,,,609ea6976e377c8f9f77759a,22,Kobieta,2022-06-11_09h21.28.237,task,2021.1.4,Win32,60.37918126,6299f149e92ead563fba08ef,62a4424ba1a5d54b64e81f2d,,,,,,,,,,,,,,,,,,,,,,,,,,,,,,,,,,,,,,,,,,,,,,,,,,,,,,,,,,,,,,,,,,,,,,,,,,,,,,,,,,,,,,,,,,,,"[""period""]",0,[0.4820999999940341],59,0,59,0,1,,
,,,,,,,,,,,,609ea6976e377c8f9f77759a,22,Kobieta,2022-06-11_09h21.28.237,task,2021.1.4,Win32,60.37918126,6299f149e92ead563fba08ef,62a4424ba1a5d54b64e81f2d,,,,,,,,,,,,,,,,,,,,,,,,,,,,,,,,,,,,,,,,,,,,,,,,,,,,,,,,,,,,,,,,,,,,,,,,,,,,,,,,,,,,,,,,,,,,"[""comma""]",0,[0.284899999991012],60,0,60,0,1,,
,,,,,,,,,,,,609ea6976e377c8f9f77759a,22,Kobieta,2022-06-11_09h21.28.237,task,2021.1.4,Win32,60.37918126,6299f149e92ead563fba08ef,62a4424ba1a5d54b64e81f2d,,,,,,,,,,,,,,,,,,,,,,,,,,,,,,,,,,,,,,,,,,,,,,,,,,,,,,,,,,,,,,,,,,,,,,,,,,,,,,,,,,,,,,,,,,,,"[""comma""]",0,[0.24069999998800995],61,0,61,0,1,,
,,,,,,,,,,,,609ea6976e377c8f9f77759a,22,Kobieta,2022-06-11_09h21.28.237,task,2021.1.4,Win32,60.37918126,6299f149e92ead563fba08ef,62a4424ba1a5d54b64e81f2d,,,,,,,,,,,,,,,,,,,,,,,,,,,,,,,,,,,,,,,,,,,,,,,,,,,,,,,,,,,,,,,,,,,,,,,,,,,,,,,,,,,,,,,,,,,,"[""comma""]",0,[0.3917000000030839],62,0,62,0,1,,
,,,,,,,,,,,,609ea6976e377c8f9f77759a,22,Kobieta,2022-06-11_09h21.28.237,task,2021.1.4,Win32,60.37918126,6299f149e92ead563fba08ef,62a4424ba1a5d54b64e81f2d,,,,,,,,,,,,,,,,,,,,,,,,,,,,,,,,,,,,,,,,,,,,,,,,,,,,,,,,,,,,,,,,,,,,,,,,,,,,,,,,,,,,,,,,,,,,"[""period""]",0,[0.2500999999940632],63,0,63,0,1,,
,,,,,,,,,,,,609ea6976e377c8f9f77759a,22,Kobieta,2022-06-11_09h21.28.237,task,2021.1.4,Win32,60.37918126,6299f149e92ead563fba08ef,62a4424ba1a5d54b64e81f2d,,,,,,,,,,,,,,,,,,,,,,,,,,,,,,,,,,,,,,,,,,,,,,,,,,,,,,,,,,,,,,,,,,,,,,,,,,,,,,,,,,,,,,,,,,,,"[""comma""]",0,[0.2508999999911339],64,0,64,0,1,,
,,,,,,,,,,,,609ea6976e377c8f9f77759a,22,Kobieta,2022-06-11_09h21.28.237,task,2021.1.4,Win32,60.37918126,6299f149e92ead563fba08ef,62a4424ba1a5d54b64e81f2d,,,,,,,,,,,,,,,,,,,,,,,,,,,,,,,,,,,,,,,,,,,,,,,,,,,,,,,,,,,,,,,,,,,,,,,,,,,,,,,,,,,,,,,,,,,,"[""period""]",0,[0.2655999999940377],65,0,65,0,1,,
,,,,,,,,,,,,609ea6976e377c8f9f77759a,22,Kobieta,2022-06-11_09h21.28.237,task,2021.1.4,Win32,60.37918126,6299f149e92ead563fba08ef,62a4424ba1a5d54b64e81f2d,,,,,,,,,,,,,,,,,,,,,,,,,,,,,,,,,,,,,,,,,,,,,,,,,,,,,,,,,,,,,,,,,,,,,,,,,,,,,,,,,,,,,,,,,,,,"[""comma""]",0,[0.43560000000911714],66,0,66,0,1,,
,,,,,,,,,,,,609ea6976e377c8f9f77759a,22,Kobieta,2022-06-11_09h21.28.237,task,2021.1.4,Win32,60.37918126,6299f149e92ead563fba08ef,62a4424ba1a5d54b64e81f2d,,,,,,,,,,,,,,,,,,,,,,,,,,,,,,,,,,,,,,,,,,,,,,,,,,,,,,,,,,,,,,,,,,,,,,,,,,,,,,,,,,,,,,,,,,,,"[""comma""]",0,[0.2884999999998854],67,0,67,0,1,,
,,,,,,,,,,,,609ea6976e377c8f9f77759a,22,Kobieta,2022-06-11_09h21.28.237,task,2021.1.4,Win32,60.37918126,6299f149e92ead563fba08ef,62a4424ba1a5d54b64e81f2d,,,,,,,,,,,,,,,,,,,,,,,,,,,,,,,,,,,,,,,,,,,,,,,,,,,,,,,,,,,,,,,,,,,,,,,,,,,,,,,,,,,,,,,,,,,,"[""period""]",0,[0.28150000000005093],68,0,68,0,1,,
,,,,,,,,,,,,609ea6976e377c8f9f77759a,22,Kobieta,2022-06-11_09h21.28.237,task,2021.1.4,Win32,60.37918126,6299f149e92ead563fba08ef,62a4424ba1a5d54b64e81f2d,,,,,,,,,,,,,,,,,,,,,,,,,,,,,,,,,,,,,,,,,,,,,,,,,,,,,,,,,,,,,,,,,,,,,,,,,,,,,,,,,,,,,,,,,,,,"[""period""]",0,[0.3505000000000109],69,0,69,0,1,,
,,,,,,,,,,,,609ea6976e377c8f9f77759a,22,Kobieta,2022-06-11_09h21.28.237,task,2021.1.4,Win32,60.37918126,6299f149e92ead563fba08ef,62a4424ba1a5d54b64e81f2d,,,,,,,,,,,,,,,,,,,,,,,,,,,,,,,,,,,,,,,,,,,,,,,,,,,,,,,,,,,,,,,,,,,,,,,,,,,,,,,,,,,,,,,,,,,,"[""comma""]",0,[0.33549999999991087],70,0,70,0,1,,
,,,,,,,,,,,,609ea6976e377c8f9f77759a,22,Kobieta,2022-06-11_09h21.28.237,task,2021.1.4,Win32,60.37918126,6299f149e92ead563fba08ef,62a4424ba1a5d54b64e81f2d,,,,,,,,,,,,,,,,,,,,,,,,,,,,,,,,,,,,,,,,,,,,,,,,,,,,,,,,,,,,,,,,,,,,,,,,,,,,,,,,,,,,,,,,,,,,"[""comma""]",0,[0.3017999999970016],71,0,71,0,1,,
,,,,,,,,,,,,609ea6976e377c8f9f77759a,22,Kobieta,2022-06-11_09h21.28.237,task,2021.1.4,Win32,60.37918126,6299f149e92ead563fba08ef,62a4424ba1a5d54b64e81f2d,,,,,,,,,,,,,,,,,,,,,,,,,,,,,,,,,,,,,,,,,,,,,,,,,,,,,,,,,,,,,,,,,,,,,,,,,,,,,,,,,,,,,,,,,,,,"[""period""]",0,[0.28570000000308937],72,0,72,0,1,,
,,,,,,,,,,,,609ea6976e377c8f9f77759a,22,Kobieta,2022-06-11_09h21.28.237,task,2021.1.4,Win32,60.37918126,6299f149e92ead563fba08ef,62a4424ba1a5d54b64e81f2d,,,,,,,,,,,,,,,,,,,,,,,,,,,,,,,,,,,,,,,,,,,,,,,,,,,,,,,,,,,,,,,,,,,,,,,,,,,,,,,,,,,,,,,,,,,,"[""comma""]",0,[0.25109999999403954],73,0,73,0,1,,
,,,,,,,,,,,,609ea6976e377c8f9f77759a,22,Kobieta,2022-06-11_09h21.28.237,task,2021.1.4,Win32,60.37918126,6299f149e92ead563fba08ef,62a4424ba1a5d54b64e81f2d,,,,,,,,,,,,,,,,,,,,,,,,,,,,,,,,,,,,,,,,,,,,,,,,,,,,,,,,,,,,,,,,,,,,,,,,,,,,,,,,,,,,,,,,,,,,"[""comma""]",0,[0.21720000000300388],74,0,74,0,1,,
,,,,,,,,,,,,609ea6976e377c8f9f77759a,22,Kobieta,2022-06-11_09h21.28.237,task,2021.1.4,Win32,60.37918126,6299f149e92ead563fba08ef,62a4424ba1a5d54b64e81f2d,,,,,,,,,,,,,,,,,,,,,,,,,,,,,,,,,,,,,,,,,,,,,,,,,,,,,,,,,,,,,,,,,,,,,,,,,,,,,,,,,,,,,,,,,,,,"[""comma""]",0,[0.11000000000012733],75,0,75,0,1,,
,,,,,,,,,,,,609ea6976e377c8f9f77759a,22,Kobieta,2022-06-11_09h21.28.237,task,2021.1.4,Win32,60.37918126,6299f149e92ead563fba08ef,62a4424ba1a5d54b64e81f2d,,,,,,,,,,,,,,,,,,,,,,,,,,,,,,,,,,,,,,,,,,,,,,,,,,,,,,,,,,,,,,,,,,,,,,,,,,,,,,,,,,,,,,,,,,,,"[""period""]",0,[0.2476000000087879],76,0,76,0,1,,
,,,,,,,,,,,,609ea6976e377c8f9f77759a,22,Kobieta,2022-06-11_09h21.28.237,task,2021.1.4,Win32,60.37918126,6299f149e92ead563fba08ef,62a4424ba1a5d54b64e81f2d,,,,,,,,,,,,,,,,,,,,,,,,,,,,,,,,,,,,,,,,,,,,,,,,,,,,,,,,,,,,,,,,,,,,,,,,,,,,,,,,,,,,,,,,,,,,"[""period""]",0,[0.1994999999999436],77,0,77,0,1,,
,,,,,,,,,,,,609ea6976e377c8f9f77759a,22,Kobieta,2022-06-11_09h21.28.237,task,2021.1.4,Win32,60.37918126,6299f149e92ead563fba08ef,62a4424ba1a5d54b64e81f2d,,,,,,,,,,,,,,,,,,,,,,,,,,,,,,,,,,,,,,,,,,,,,,,,,,,,,,,,,,,,,,,,,,,,,,,,,,,,,,,,,,,,,,,,,,,,"[""period""]",0,[0.15279999999711436],78,0,78,0,1,,
,,,,,,,,,,,,609ea6976e377c8f9f77759a,22,Kobieta,2022-06-11_09h21.28.237,task,2021.1.4,Win32,60.37918126,6299f149e92ead563fba08ef,62a4424ba1a5d54b64e81f2d,,,,,,,,,,,,,,,,,,,,,,,,,,,,,,,,,,,,,,,,,,,,,,,,,,,,,,,,,,,,,,,,,,,,,,,,,,,,,,,,,,,,,,,,,,,,"[""comma""]",0,[0.19100000000003092],79,0,79,0,1,,
,,,,,,,,,,,,609ea6976e377c8f9f77759a,22,Kobieta,2022-06-11_09h21.28.237,task,2021.1.4,Win32,60.37918126,6299f149e92ead563fba08ef,62a4424ba1a5d54b64e81f2d,,,,,,,,,,,,,,,,,,,,,,,,,,,,,,,,,,,,,,,,,,,,,,,,,,,,,,,,,,,,,,,,,,,,,,,,,,,,,,,,,,,,,,,,,,,,"[""period""]",0,[0.24080000001185908],80,0,80,0,1,,
,,,,,,,,,,,,609ea6976e377c8f9f77759a,22,Kobieta,2022-06-11_09h21.28.237,task,2021.1.4,Win32,60.37918126,6299f149e92ead563fba08ef,62a4424ba1a5d54b64e81f2d,,,,,,,,,,,,,,,,,,,,,,,,,,,,,,,,,,,,,,,,,,,,,,,,,,,,,,,,,,,,,,,,,,,,,,,,,,,,,,,,,,,,,,,,,,,,"[""period"",""comma""]",0,"[0.11029999999686879,1.9237000000030093]",81,0,81,0,1,,
,,,,,,,,,,,,609ea6976e377c8f9f77759a,22,Kobieta,2022-06-11_09h21.28.237,task,2021.1.4,Win32,60.37918126,6299f149e92ead563fba08ef,62a4424ba1a5d54b64e81f2d,,,,,,,,,,,,,,,,,,,,,,,,,,,,,,,,,,,,,,,,,,,,,,,,,,,,,,,,,,,,,,,,,,,,,,,,,,,,,,,,,,,,,,,,,,,,,0,,82,0,82,0,1,,
,,,,,,,,,,,,609ea6976e377c8f9f77759a,22,Kobieta,2022-06-11_09h21.28.237,task,2021.1.4,Win32,60.37918126,6299f149e92ead563fba08ef,62a4424ba1a5d54b64e81f2d,,,,,,,,,,,,,,,,,,,,,,,,,,,,,,,,,,,,,,,,,,,,,,,,,,,,,,,,,,,,,,,,,,,,,,,,,,,,,,,,,,,,,,,,,,,,"[""comma""]",0,[0.2541000000087479],83,0,83,0,1,,
,,,,,,,,,,,,609ea6976e377c8f9f77759a,22,Kobieta,2022-06-11_09h21.28.237,task,2021.1.4,Win32,60.37918126,6299f149e92ead563fba08ef,62a4424ba1a5d54b64e81f2d,,,,,,,,,,,,,,,,,,,,,,,,,,,,,,,,,,,,,,,,,,,,,,,,,,,,,,,,,,,,,,,,,,,,,,,,,,,,,,,,,,,,,,,,,,,,"[""period""]",0,[0.23659999999404135],84,0,84,0,1,,
,,,,,,,,,,,,609ea6976e377c8f9f77759a,22,Kobieta,2022-06-11_09h21.28.237,task,2021.1.4,Win32,60.37918126,6299f149e92ead563fba08ef,62a4424ba1a5d54b64e81f2d,,,,,,,,,,,,,,,,,,,,,,,,,,,,,,,,,,,,,,,,,,,,,,,,,,,,,,,,,,,,,,,,,,,,,,,,,,,,,,,,,,,,,,,,,,,,"[""period""]",0,[0.12039999999092288],85,0,85,0,1,,
,,,,,,,,,,,,609ea6976e377c8f9f77759a,22,Kobieta,2022-06-11_09h21.28.237,task,2021.1.4,Win32,60.37918126,6299f149e92ead563fba08ef,62a4424ba1a5d54b64e81f2d,,,,,,,,,,,,,,,,,,,,,,,,,,,,,,,,,,,,,,,,,,,,,,,,,,,,,,,,,,,,,,,,,,,,,,,,,,,,,,,,,,,,,,,,,,,,"[""comma""]",0,[0.3537999999971362],86,0,86,0,1,,
,,,,,,,,,,,,609ea6976e377c8f9f77759a,22,Kobieta,2022-06-11_09h21.28.237,task,2021.1.4,Win32,60.37918126,6299f149e92ead563fba08ef,62a4424ba1a5d54b64e81f2d,,,,,,,,,,,,,,,,,,,,,,,,,,,,,,,,,,,,,,,,,,,,,,,,,,,,,,,,,,,,,,,,,,,,,,,,,,,,,,,,,,,,,,,,,,,,"[""period""]",0,[0.3525999999940268],87,0,87,0,1,,
,,,,,,,,,,,,609ea6976e377c8f9f77759a,22,Kobieta,2022-06-11_09h21.28.237,task,2021.1.4,Win32,60.37918126,6299f149e92ead563fba08ef,62a4424ba1a5d54b64e81f2d,,,,,,,,,,,,,,,,,,,,,,,,,,,,,,,,,,,,,,,,,,,,,,,,,,,,,,,,,,,,,,,,,,,,,,,,,,,,,,,,,,,,,,,,,,,,"[""comma""]",0,[0.23749999999995453],88,0,88,0,1,,
,,,,,,,,,,,,609ea6976e377c8f9f77759a,22,Kobieta,2022-06-11_09h21.28.237,task,2021.1.4,Win32,60.37918126,6299f149e92ead563fba08ef,62a4424ba1a5d54b64e81f2d,,,,,,,,,,,,,,,,,,,,,,,,,,,,,,,,,,,,,,,,,,,,,,,,,,,,,,,,,,,,,,,,,,,,,,,,,,,,,,,,,,,,,,,,,,,,"[""comma""]",0,[0.18570000000295295],89,0,89,0,1,,
,,,,,,,,,,,,609ea6976e377c8f9f77759a,22,Kobieta,2022-06-11_09h21.28.237,task,2021.1.4,Win32,60.37918126,6299f149e92ead563fba08ef,62a4424ba1a5d54b64e81f2d,,,,,,,,,,,,,,,,,,,,,,,,,,,,,,,,,,,,,,,,,,,,,,,,,,,,,,,,,,,,,,,,,,,,,,,,,,,,,,,,,,,,,,,,,,,,"[""comma""]",0,[0.1218999999910011],90,0,90,0,1,,
,,,,,,,,,,,,609ea6976e377c8f9f77759a,22,Kobieta,2022-06-11_09h21.28.237,task,2021.1.4,Win32,60.37918126,6299f149e92ead563fba08ef,62a4424ba1a5d54b64e81f2d,,,,,,,,,,,,,,,,,,,,,,,,,,,,,,,,,,,,,,,,,,,,,,,,,,,,,,,,,,,,,,,,,,,,,,,,,,,,,,,,,,,,,,,,,,,,"[""comma""]",0,[0.18290000000615692],91,0,91,0,1,,
,,,,,,,,,,,,609ea6976e377c8f9f77759a,22,Kobieta,2022-06-11_09h21.28.237,task,2021.1.4,Win32,60.37918126,6299f149e92ead563fba08ef,62a4424ba1a5d54b64e81f2d,,,,,,,,,,,,,,,,,,,,,,,,,,,,,,,,,,,,,,,,,,,,,,,,,,,,,,,,,,,,,,,,,,,,,,,,,,,,,,,,,,,,,,,,,,,,"[""period""]",0,[0.2083000000118318],92,0,92,0,1,,
,,,,,,,,,,,,609ea6976e377c8f9f77759a,22,Kobieta,2022-06-11_09h21.28.237,task,2021.1.4,Win32,60.37918126,6299f149e92ead563fba08ef,62a4424ba1a5d54b64e81f2d,,,,,,,,,,,,,,,,,,,,,,,,,,,,,,,,,,,,,,,,,,,,,,,,,,,,,,,,,,,,,,,,,,,,,,,,,,,,,,,,,,,,,,,,,,,,"[""period""]",0,[0.23140000000603322],93,0,93,0,1,,
,,,,,,,,,,,,609ea6976e377c8f9f77759a,22,Kobieta,2022-06-11_09h21.28.237,task,2021.1.4,Win32,60.37918126,6299f149e92ead563fba08ef,62a4424ba1a5d54b64e81f2d,,,,,,,,,,,,,,,,,,,,,,,,,,,,,,,,,,,,,,,,,,,,,,,,,,,,,,,,,,,,,,,,,,,,,,,,,,,,,,,,,,,,,,,,,,,,"[""comma""]",0,[0.25210000000902255],94,0,94,0,1,,
,,,,,,,,,,,,609ea6976e377c8f9f77759a,22,Kobieta,2022-06-11_09h21.28.237,task,2021.1.4,Win32,60.37918126,6299f149e92ead563fba08ef,62a4424ba1a5d54b64e81f2d,,,,,,,,,,,,,,,,,,,,,,,,,,,,,,,,,,,,,,,,,,,,,,,,,,,,,,,,,,,,,,,,,,,,,,,,,,,,,,,,,,,,,,,,,,,,"[""comma""]",0,[0.1923999999910393],95,0,95,0,1,,
,,,,,,,,,,,,609ea6976e377c8f9f77759a,22,Kobieta,2022-06-11_09h21.28.237,task,2021.1.4,Win32,60.37918126,6299f149e92ead563fba08ef,62a4424ba1a5d54b64e81f2d,,,,,,,,,,,,,,,,,,,,,,,,,,,,,,,,,,,,,,,,,,,,,,,,,,,,,,,,,,,,,,,,,,,,,,,,,,,,,,,,,,,,,,,,,,,,"[""comma""]",0,[0.14400000000000546],96,0,96,0,1,,
,,,,,,,,,,,,609ea6976e377c8f9f77759a,22,Kobieta,2022-06-11_09h21.28.237,task,2021.1.4,Win32,60.37918126,6299f149e92ead563fba08ef,62a4424ba1a5d54b64e81f2d,,,,,,,,,,,,,,,,,,,,,,,,,,,,,,,,,,,,,,,,,,,,,,,,,,,,,,,,,,,,,,,,,,,,,,,,,,,,,,,,,,,,,,,,,,,,"[""period""]",0,[0.25069999998822823],97,0,97,0,1,,
,,,,,,,,,,,,609ea6976e377c8f9f77759a,22,Kobieta,2022-06-11_09h21.28.237,task,2021.1.4,Win32,60.37918126,6299f149e92ead563fba08ef,62a4424ba1a5d54b64e81f2d,,,,,,,,,,,,,,,,,,,,,,,,,,,,,,,,,,,,,,,,,,,,,,,,,,,,,,,,,,,,,,,,,,,,,,,,,,,,,,,,,,,,,,,,,,,,"[""comma""]",0,[0.23669999998810454],98,0,98,0,1,,
,,,,,,,,,,,,609ea6976e377c8f9f77759a,22,Kobieta,2022-06-11_09h21.28.237,task,2021.1.4,Win32,60.37918126,6299f149e92ead563fba08ef,62a4424ba1a5d54b64e81f2d,,,,,,,,,,,,,,,,,,,,,,,,,,,,,,,,,,,,,,,,,,,,,,,,,,,,,,,,,,,,,,,,,,,,,,,,,,,,,,,,,,,,,,,,,,,,"[""period""]",0,[0.18379999999683605],99,0,99,0,1,,
,,,,,,,,,,,,609ea6976e377c8f9f77759a,22,Kobieta,2022-06-11_09h21.28.237,task,2021.1.4,Win32,60.37918126,6299f149e92ead563fba08ef,62a4424ba1a5d54b64e81f2d,,,,,,,,,,,,,,,,,,,,,,,,,,,,,,,,,,,,,,,,,,,,,,,,,,,,,,,,,,,,,,,,,,,,,,,,,,,,,,,,,,,,,,,,,,,,"[""comma""]",0,[0.23700000000008004],100,0,100,0,1,,
,,,,,,,,,,,,609ea6976e377c8f9f77759a,22,Kobieta,2022-06-11_09h21.28.237,task,2021.1.4,Win32,60.37918126,6299f149e92ead563fba08ef,62a4424ba1a5d54b64e81f2d,,,,,,,,,,,,,,,,,,,,,,,,,,,,,,,,,,,,,,,,,,,,,,,,,,,,,,,,,,,,,,,,,,,,,,,,,,,,,,,,,,,,,,,,,,,,"[""comma""]",0,[0.12129999999706342],101,0,101,0,1,,
,,,,,,,,,,,,609ea6976e377c8f9f77759a,22,Kobieta,2022-06-11_09h21.28.237,task,2021.1.4,Win32,60.37918126,6299f149e92ead563fba08ef,62a4424ba1a5d54b64e81f2d,,,,,,,,,,,,,,,,,,,,,,,,,,,,,,,,,,,,,,,,,,,,,,,,,,,,,,,,,,,,,,,,,,,,,,,,,,,,,,,,,,,,,,,,,,,,"[""period""]",0,[0.1830999999940559],102,0,102,0,1,,
,,,,,,,,,,,,609ea6976e377c8f9f77759a,22,Kobieta,2022-06-11_09h21.28.237,task,2021.1.4,Win32,60.37918126,6299f149e92ead563fba08ef,62a4424ba1a5d54b64e81f2d,,,,,,,,,,,,,,,,,,,,,,,,,,,,,,,,,,,,,,,,,,,,,,,,,,,,,,,,,,,,,,,,,,,,,,,,,,,,,,,,,,,,,,,,,,,,"[""period""]",0,[0.2827999999969961],103,0,103,0,1,,
,,,,,,,,,,,,609ea6976e377c8f9f77759a,22,Kobieta,2022-06-11_09h21.28.237,task,2021.1.4,Win32,60.37918126,6299f149e92ead563fba08ef,62a4424ba1a5d54b64e81f2d,,,,,,,,,,,,,,,,,,,,,,,,,,,,,,,,,,,,,,,,,,,,,,,,,,,,,,,,,,,,,,,,,,,,,,,,,,,,,,,,,,,,,,,,,,,,"[""comma""]",0,[0.2872000000029402],104,0,104,0,1,,
,,,,,,,,,,,,609ea6976e377c8f9f77759a,22,Kobieta,2022-06-11_09h21.28.237,task,2021.1.4,Win32,60.37918126,6299f149e92ead563fba08ef,62a4424ba1a5d54b64e81f2d,,,,,,,,,,,,,,,,,,,,,,,,,,,,,,,,,,,,,,,,,,,,,,,,,,,,,,,,,,,,,,,,,,,,,,,,,,,,,,,,,,,,,,,,,,,,"[""period""]",0,[0.26389999999105385],105,0,105,0,1,,
,,,,,,,,,,,,609ea6976e377c8f9f77759a,22,Kobieta,2022-06-11_09h21.28.237,task,2021.1.4,Win32,60.37918126,6299f149e92ead563fba08ef,62a4424ba1a5d54b64e81f2d,,,,,,,,,,,,,,,,,,,,,,,,,,,,,,,,,,,,,,,,,,,,,,,,,,,,,,,,,,,,,,,,,,,,,,,,,,,,,,,,,,,,,,,,,,,,"[""comma""]",0,[0.25860000000875516],106,0,106,0,1,,
,,,,,,,,,,,,609ea6976e377c8f9f77759a,22,Kobieta,2022-06-11_09h21.28.237,task,2021.1.4,Win32,60.37918126,6299f149e92ead563fba08ef,62a4424ba1a5d54b64e81f2d,,,,,,,,,,,,,,,,,,,,,,,,,,,,,,,,,,,,,,,,,,,,,,,,,,,,,,,,,,,,,,,,,,,,,,,,,,,,,,,,,,,,,,,,,,,,"[""period""]",0,[0.21569999998814637],107,0,107,0,1,,
,,,,,,,,,,,,609ea6976e377c8f9f77759a,22,Kobieta,2022-06-11_09h21.28.237,task,2021.1.4,Win32,60.37918126,6299f149e92ead563fba08ef,62a4424ba1a5d54b64e81f2d,,,,,,,,,,,,,,,,,,,,,,,,,,,,,,,,,,,,,,,,,,,,,,,,,,,,,,,,,,,,,,,,,,,,,,,,,,,,,,,,,,,,,,,,,,,,"[""comma""]",0,[0.2740000000001146],108,0,108,0,1,,
,,,,,,,,,,,,609ea6976e377c8f9f77759a,22,Kobieta,2022-06-11_09h21.28.237,task,2021.1.4,Win32,60.37918126,6299f149e92ead563fba08ef,62a4424ba1a5d54b64e81f2d,,,,,,,,,,,,,,,,,,,,,,,,,,,,,,,,,,,,,,,,,,,,,,,,,,,,,,,,,,,,,,,,,,,,,,,,,,,,,,,,,,,,,,,,,,,,"[""period""]",0,[0.26719999998795174],109,0,109,0,1,,
,,,,,,,,,,,,609ea6976e377c8f9f77759a,22,Kobieta,2022-06-11_09h21.28.237,task,2021.1.4,Win32,60.37918126,6299f149e92ead563fba08ef,62a4424ba1a5d54b64e81f2d,,,,,,,,,,,,,,,,,,,,,,,,,,,,,,,,,,,,,,,,,,,,,,,,,,,,,,,,,,,,,,,,,,,,,,,,,,,,,,,,,,,,,,,,,,,,"[""comma""]",0,[0.2871999999881609],110,0,110,0,1,,
,,,,,,,,,,,,609ea6976e377c8f9f77759a,22,Kobieta,2022-06-11_09h21.28.237,task,2021.1.4,Win32,60.37918126,6299f149e92ead563fba08ef,62a4424ba1a5d54b64e81f2d,,,,,,,,,,,,,,,,,,,,,,,,,,,,,,,,,,,,,,,,,,,,,,,,,,,,,,,,,,,,,,,,,,,,,,,,,,,,,,,,,,,,,,,,,,,,"[""period""]",0,[0.1974999999999909],111,0,111,0,1,,
,,,,,,,,,,,,609ea6976e377c8f9f77759a,22,Kobieta,2022-06-11_09h21.28.237,task,2021.1.4,Win32,60.37918126,6299f149e92ead563fba08ef,62a4424ba1a5d54b64e81f2d,,,,,,,,,,,,,,,,,,,,,,,,,,,,,,,,,,,,,,,,,,,,,,,,,,,,,,,,,,,,,,,,,,,,,,,,,,,,,,,,,,,,,,,,,,,,"[""comma""]",0,[0.2705000000000837],112,0,112,0,1,,
,,,,,,,,,,,,609ea6976e377c8f9f77759a,22,Kobieta,2022-06-11_09h21.28.237,task,2021.1.4,Win32,60.37918126,6299f149e92ead563fba08ef,62a4424ba1a5d54b64e81f2d,,,,,,,,,,,,,,,,,,,,,,,,,,,,,,,,,,,,,,,,,,,,,,,,,,,,,,,,,,,,,,,,,,,,,,,,,,,,,,,,,,,,,,,,,,,,"[""period""]",0,[0.23379999999701795],113,0,113,0,1,,
,,,,,,,,,,,,609ea6976e377c8f9f77759a,22,Kobieta,2022-06-11_09h21.28.237,task,2021.1.4,Win32,60.37918126,6299f149e92ead563fba08ef,62a4424ba1a5d54b64e81f2d,,,,,,,,,,,,,,,,,,,,,,,,,,,,,,,,,,,,,,,,,,,,,,,,,,,,,,,,,,,,,,,,,,,,,,,,,,,,,,,,,,,,,,,,,,,,"[""period""]",0,[0.27159999999389584],114,0,114,0,1,,
,,,,,,,,,,,,609ea6976e377c8f9f77759a,22,Kobieta,2022-06-11_09h21.28.237,task,2021.1.4,Win32,60.37918126,6299f149e92ead563fba08ef,62a4424ba1a5d54b64e81f2d,,,,,,,,,,,,,,,,,,,,,,,,,,,,,,,,,,,,,,,,,,,,,,,,,,,,,,,,,,,,,,,,,,,,,,,,,,,,,,,,,,,,,,,,,,,,"[""period""]",0,[0.2519999999999527],115,0,115,0,1,,
,,,,,,,,,,,,609ea6976e377c8f9f77759a,22,Kobieta,2022-06-11_09h21.28.237,task,2021.1.4,Win32,60.37918126,6299f149e92ead563fba08ef,62a4424ba1a5d54b64e81f2d,,,,,,,,,,,,,,,,,,,,,,,,,,,,,,,,,,,,,,,,,,,,,,,,,,,,,,,,,,,,,,,,,,,,,,,,,,,,,,,,,,,,,,,,,,,,"[""period""]",0,[0.7224000000060187],116,0,116,0,1,,
,,,,,,,,,,,,609ea6976e377c8f9f77759a,22,Kobieta,2022-06-11_09h21.28.237,task,2021.1.4,Win32,60.37918126,6299f149e92ead563fba08ef,62a4424ba1a5d54b64e81f2d,,,,,,,,,,,,,,,,,,,,,,,,,,,,,,,,,,,,,,,,,,,,,,,,,,,,,,,,,,,,,,,,,,,,,,,,,,,,,,,,,,,,,,,,,,,,"[""comma""]",0,[0.36529999999697793],117,0,117,0,1,,
,,,,,,,,,,,,609ea6976e377c8f9f77759a,22,Kobieta,2022-06-11_09h21.28.237,task,2021.1.4,Win32,60.37918126,6299f149e92ead563fba08ef,62a4424ba1a5d54b64e81f2d,,,,,,,,,,,,,,,,,,,,,,,,,,,,,,,,,,,,,,,,,,,,,,,,,,,,,,,,,,,,,,,,,,,,,,,,,,,,,,,,,,,,,,,,,,,,"[""comma""]",0,[0.1834999999998672],118,0,118,0,1,,
,,,,,,,,,,,,609ea6976e377c8f9f77759a,22,Kobieta,2022-06-11_09h21.28.237,task,2021.1.4,Win32,60.37918126,6299f149e92ead563fba08ef,62a4424ba1a5d54b64e81f2d,,,,,,,,,,,,,,,,,,,,,,,,,,,,,,,,,,,,,,,,,,,,,,,,,,,,,,,,,,,,,,,,,,,,,,,,,,,,,,,,,,,,,,,,,,,,"[""comma""]",0,[0.23179999999706524],119,0,119,0,1,,
,,,,,,,,,,,,609ea6976e377c8f9f77759a,22,Kobieta,2022-06-11_09h21.28.237,task,2021.1.4,Win32,60.37918126,6299f149e92ead563fba08ef,62a4424ba1a5d54b64e81f2d,,,,,,,,,,,,,,,,,,,,,,,,,,,,,,,,,,,,,,,,,,,,,,,,,,,,,,,,,,,,,,,,,,,,,,,,,,,,,,,,,,,,,,,,,,,,,,,,,,,,space,1.4355
