key_resp_15.keys,key_resp_15.rt,key_resp_13.keys,key_resp_13.corr,ranodm_loop.thisRepN,ranodm_loop.thisTrialN,ranodm_loop.thisN,ranodm_loop.thisIndex,ranodm_loop.ran,participant,Wiek*,Płeć,date,expName,psychopyVersion,OS,frameRate,study_id,session,key_resp_13.rt,key_resp_16.keys,key_resp_16.rt,key_resp_4.keys,key_resp_4.rt,next_letter.thisRepN,next_letter.thisTrialN,next_letter.thisN,next_letter.thisIndex,next_letter.ran,letter,simple_recall,key_resp_5.keys,key_resp_5.rt,simple_recall_corr,simple_recall_corrkeys,next_level.thisRepN,next_level.thisTrialN,next_level.thisN,next_level.thisIndex,next_level.ran,key_resp_2.keys,key_resp_2.rt,digit_answer,key_resp.keys,key_resp.corr,key_resp.rt,RT_list,next_equation.thisRepN,next_equation.thisTrialN,next_equation.thisN,next_equation.thisIndex,next_equation.ran,Task,Trial,Problem,Operation_answer,processing_score,sumRT,meanRT,sumdiff,sd,RT,key_resp_3.keys,key_resp_3.rt,repeat_practice.thisRepN,repeat_practice.thisTrialN,repeat_practice.thisN,repeat_practice.thisIndex,repeat_practice.ran,key_resp_6.keys,key_resp_6.rt,key_resp_11.keys,key_resp_11.corr,key_resp_11.rt,operation_correct,repeat_if_wrong_prac.thisRepN,repeat_if_wrong_prac.thisTrialN,repeat_if_wrong_prac.thisN,repeat_if_wrong_prac.thisIndex,repeat_if_wrong_prac.ran,span_size_prac.thisRepN,span_size_prac.thisTrialN,span_size_prac.thisN,span_size_prac.thisIndex,span_size_prac.ran,complex_recall_practice,key_resp_9.keys,key_resp_9.corr,key_resp_9.rt,complex_prac_corr,span_recall_prac.thisRepN,span_recall_prac.thisTrialN,span_recall_prac.thisN,span_recall_prac.thisIndex,span_recall_prac.ran,key_resp_10.keys,key_resp_10.rt,key_resp_7.keys,key_resp_7.corr,key_resp_7.rt,repeat_if_wrong.thisRepN,repeat_if_wrong.thisTrialN,repeat_if_wrong.thisN,repeat_if_wrong.thisIndex,repeat_if_wrong.ran,span_size.thisRepN,span_size.thisTrialN,span_size.thisN,span_size.thisIndex,span_size.ran,complex_recall,key_resp_8.keys,key_resp_8.corr,key_resp_8.rt,complex_recall_corr,complex_recall_corrkeys,span_recall.thisRepN,span_recall.thisTrialN,span_recall.thisN,span_recall.thisIndex,span_recall.ran,key_resp_12.keys,key_resp_12.rt
space,20.318,,0,0,0,0,0,1,609ee5fbaa3b177503e2ca88,21,Mężczyzna,2022-06-04_08h10.14.571,task,2021.1.4,Win32,59.95203837,628b806c463b948bc644b84f,629af70116b475111776c9eb,,,,,,,,,,,,,,,,,,,,,,,,,,,,,,,,,,,,,,,,,,,,,,,,,,,,,,,,,,,,,,,,,,,,,,,,,,,,,,,,,,,,,,,,,,,,,,,,,,,,,,,,
,,"[""comma""]",0,1,0,1,0,1,609ee5fbaa3b177503e2ca88,21,Mężczyzna,2022-06-04_08h10.14.571,task,2021.1.4,Win32,59.95203837,628b806c463b948bc644b84f,629af70116b475111776c9eb,[0.3100000000000023],,,,,,,,,,,,,,,,,,,,,,,,,,,,,,,,,,,,,,,,,,,,,,,,,,,,,,,,,,,,,,,,,,,,,,,,,,,,,,,,,,,,,,,,,,,,,,,,,,,,,,,
,,"[""period""]",0,2,0,2,0,1,609ee5fbaa3b177503e2ca88,21,Mężczyzna,2022-06-04_08h10.14.571,task,2021.1.4,Win32,59.95203837,628b806c463b948bc644b84f,629af70116b475111776c9eb,[0.4579999999999984],,,,,,,,,,,,,,,,,,,,,,,,,,,,,,,,,,,,,,,,,,,,,,,,,,,,,,,,,,,,,,,,,,,,,,,,,,,,,,,,,,,,,,,,,,,,,,,,,,,,,,,
,,"[""period""]",0,3,0,3,0,1,609ee5fbaa3b177503e2ca88,21,Mężczyzna,2022-06-04_08h10.14.571,task,2021.1.4,Win32,59.95203837,628b806c463b948bc644b84f,629af70116b475111776c9eb,[0.4060000000000059],,,,,,,,,,,,,,,,,,,,,,,,,,,,,,,,,,,,,,,,,,,,,,,,,,,,,,,,,,,,,,,,,,,,,,,,,,,,,,,,,,,,,,,,,,,,,,,,,,,,,,,
,,"[""period""]",0,4,0,4,0,1,609ee5fbaa3b177503e2ca88,21,Mężczyzna,2022-06-04_08h10.14.571,task,2021.1.4,Win32,59.95203837,628b806c463b948bc644b84f,629af70116b475111776c9eb,[0.4369999999999976],,,,,,,,,,,,,,,,,,,,,,,,,,,,,,,,,,,,,,,,,,,,,,,,,,,,,,,,,,,,,,,,,,,,,,,,,,,,,,,,,,,,,,,,,,,,,,,,,,,,,,,
,,"[""period""]",0,5,0,5,0,1,609ee5fbaa3b177503e2ca88,21,Mężczyzna,2022-06-04_08h10.14.571,task,2021.1.4,Win32,59.95203837,628b806c463b948bc644b84f,629af70116b475111776c9eb,[0.3370000000000033],,,,,,,,,,,,,,,,,,,,,,,,,,,,,,,,,,,,,,,,,,,,,,,,,,,,,,,,,,,,,,,,,,,,,,,,,,,,,,,,,,,,,,,,,,,,,,,,,,,,,,,
,,"[""comma""]",0,6,0,6,0,1,609ee5fbaa3b177503e2ca88,21,Mężczyzna,2022-06-04_08h10.14.571,task,2021.1.4,Win32,59.95203837,628b806c463b948bc644b84f,629af70116b475111776c9eb,[0.28699999999999193],,,,,,,,,,,,,,,,,,,,,,,,,,,,,,,,,,,,,,,,,,,,,,,,,,,,,,,,,,,,,,,,,,,,,,,,,,,,,,,,,,,,,,,,,,,,,,,,,,,,,,,
,,"[""period""]",0,7,0,7,0,1,609ee5fbaa3b177503e2ca88,21,Mężczyzna,2022-06-04_08h10.14.571,task,2021.1.4,Win32,59.95203837,628b806c463b948bc644b84f,629af70116b475111776c9eb,[0.24200000000000443],,,,,,,,,,,,,,,,,,,,,,,,,,,,,,,,,,,,,,,,,,,,,,,,,,,,,,,,,,,,,,,,,,,,,,,,,,,,,,,,,,,,,,,,,,,,,,,,,,,,,,,
,,"[""comma""]",0,8,0,8,0,1,609ee5fbaa3b177503e2ca88,21,Mężczyzna,2022-06-04_08h10.14.571,task,2021.1.4,Win32,59.95203837,628b806c463b948bc644b84f,629af70116b475111776c9eb,[0.31699999999999307],,,,,,,,,,,,,,,,,,,,,,,,,,,,,,,,,,,,,,,,,,,,,,,,,,,,,,,,,,,,,,,,,,,,,,,,,,,,,,,,,,,,,,,,,,,,,,,,,,,,,,,
,,"[""comma""]",0,9,0,9,0,1,609ee5fbaa3b177503e2ca88,21,Mężczyzna,2022-06-04_08h10.14.571,task,2021.1.4,Win32,59.95203837,628b806c463b948bc644b84f,629af70116b475111776c9eb,[0.30100000000000193],,,,,,,,,,,,,,,,,,,,,,,,,,,,,,,,,,,,,,,,,,,,,,,,,,,,,,,,,,,,,,,,,,,,,,,,,,,,,,,,,,,,,,,,,,,,,,,,,,,,,,,
,,"[""comma""]",0,10,0,10,0,1,609ee5fbaa3b177503e2ca88,21,Mężczyzna,2022-06-04_08h10.14.571,task,2021.1.4,Win32,59.95203837,628b806c463b948bc644b84f,629af70116b475111776c9eb,[0.2879999999999967],,,,,,,,,,,,,,,,,,,,,,,,,,,,,,,,,,,,,,,,,,,,,,,,,,,,,,,,,,,,,,,,,,,,,,,,,,,,,,,,,,,,,,,,,,,,,,,,,,,,,,,
,,"[""period""]",0,11,0,11,0,1,609ee5fbaa3b177503e2ca88,21,Mężczyzna,2022-06-04_08h10.14.571,task,2021.1.4,Win32,59.95203837,628b806c463b948bc644b84f,629af70116b475111776c9eb,[0.28299999999998704],,,,,,,,,,,,,,,,,,,,,,,,,,,,,,,,,,,,,,,,,,,,,,,,,,,,,,,,,,,,,,,,,,,,,,,,,,,,,,,,,,,,,,,,,,,,,,,,,,,,,,,
,,"[""period""]",0,12,0,12,0,1,609ee5fbaa3b177503e2ca88,21,Mężczyzna,2022-06-04_08h10.14.571,task,2021.1.4,Win32,59.95203837,628b806c463b948bc644b84f,629af70116b475111776c9eb,[0.2669999999999959],,,,,,,,,,,,,,,,,,,,,,,,,,,,,,,,,,,,,,,,,,,,,,,,,,,,,,,,,,,,,,,,,,,,,,,,,,,,,,,,,,,,,,,,,,,,,,,,,,,,,,,
,,"[""comma""]",0,13,0,13,0,1,609ee5fbaa3b177503e2ca88,21,Mężczyzna,2022-06-04_08h10.14.571,task,2021.1.4,Win32,59.95203837,628b806c463b948bc644b84f,629af70116b475111776c9eb,[0.29999999999999716],,,,,,,,,,,,,,,,,,,,,,,,,,,,,,,,,,,,,,,,,,,,,,,,,,,,,,,,,,,,,,,,,,,,,,,,,,,,,,,,,,,,,,,,,,,,,,,,,,,,,,,
,,"[""comma""]",0,14,0,14,0,1,609ee5fbaa3b177503e2ca88,21,Mężczyzna,2022-06-04_08h10.14.571,task,2021.1.4,Win32,59.95203837,628b806c463b948bc644b84f,629af70116b475111776c9eb,[0.31799999999999784],,,,,,,,,,,,,,,,,,,,,,,,,,,,,,,,,,,,,,,,,,,,,,,,,,,,,,,,,,,,,,,,,,,,,,,,,,,,,,,,,,,,,,,,,,,,,,,,,,,,,,,
,,"[""period""]",0,15,0,15,0,1,609ee5fbaa3b177503e2ca88,21,Mężczyzna,2022-06-04_08h10.14.571,task,2021.1.4,Win32,59.95203837,628b806c463b948bc644b84f,629af70116b475111776c9eb,[0.3009999999999877],,,,,,,,,,,,,,,,,,,,,,,,,,,,,,,,,,,,,,,,,,,,,,,,,,,,,,,,,,,,,,,,,,,,,,,,,,,,,,,,,,,,,,,,,,,,,,,,,,,,,,,
,,"[""period"",""period""]",0,16,0,16,0,1,609ee5fbaa3b177503e2ca88,21,Mężczyzna,2022-06-04_08h10.14.571,task,2021.1.4,Win32,59.95203837,628b806c463b948bc644b84f,629af70116b475111776c9eb,"[0.3669999999999902,0.9289999999999878]",,,,,,,,,,,,,,,,,,,,,,,,,,,,,,,,,,,,,,,,,,,,,,,,,,,,,,,,,,,,,,,,,,,,,,,,,,,,,,,,,,,,,,,,,,,,,,,,,,,,,,,
,,,0,17,0,17,0,1,609ee5fbaa3b177503e2ca88,21,Mężczyzna,2022-06-04_08h10.14.571,task,2021.1.4,Win32,59.95203837,628b806c463b948bc644b84f,629af70116b475111776c9eb,,,,,,,,,,,,,,,,,,,,,,,,,,,,,,,,,,,,,,,,,,,,,,,,,,,,,,,,,,,,,,,,,,,,,,,,,,,,,,,,,,,,,,,,,,,,,,,,,,,,,,,,
,,"[""comma""]",0,18,0,18,0,1,609ee5fbaa3b177503e2ca88,21,Mężczyzna,2022-06-04_08h10.14.571,task,2021.1.4,Win32,59.95203837,628b806c463b948bc644b84f,629af70116b475111776c9eb,[0.30800000000000693],,,,,,,,,,,,,,,,,,,,,,,,,,,,,,,,,,,,,,,,,,,,,,,,,,,,,,,,,,,,,,,,,,,,,,,,,,,,,,,,,,,,,,,,,,,,,,,,,,,,,,,
,,"[""comma""]",0,19,0,19,0,1,609ee5fbaa3b177503e2ca88,21,Mężczyzna,2022-06-04_08h10.14.571,task,2021.1.4,Win32,59.95203837,628b806c463b948bc644b84f,629af70116b475111776c9eb,[0.2849999999999966],,,,,,,,,,,,,,,,,,,,,,,,,,,,,,,,,,,,,,,,,,,,,,,,,,,,,,,,,,,,,,,,,,,,,,,,,,,,,,,,,,,,,,,,,,,,,,,,,,,,,,,
,,"[""comma""]",0,20,0,20,0,1,609ee5fbaa3b177503e2ca88,21,Mężczyzna,2022-06-04_08h10.14.571,task,2021.1.4,Win32,59.95203837,628b806c463b948bc644b84f,629af70116b475111776c9eb,[0.3719999999999999],,,,,,,,,,,,,,,,,,,,,,,,,,,,,,,,,,,,,,,,,,,,,,,,,,,,,,,,,,,,,,,,,,,,,,,,,,,,,,,,,,,,,,,,,,,,,,,,,,,,,,,
,,"[""comma""]",0,21,0,21,0,1,609ee5fbaa3b177503e2ca88,21,Mężczyzna,2022-06-04_08h10.14.571,task,2021.1.4,Win32,59.95203837,628b806c463b948bc644b84f,629af70116b475111776c9eb,[0.4159999999999968],,,,,,,,,,,,,,,,,,,,,,,,,,,,,,,,,,,,,,,,,,,,,,,,,,,,,,,,,,,,,,,,,,,,,,,,,,,,,,,,,,,,,,,,,,,,,,,,,,,,,,,
,,"[""period""]",0,22,0,22,0,1,609ee5fbaa3b177503e2ca88,21,Mężczyzna,2022-06-04_08h10.14.571,task,2021.1.4,Win32,59.95203837,628b806c463b948bc644b84f,629af70116b475111776c9eb,[0.33500000000000796],,,,,,,,,,,,,,,,,,,,,,,,,,,,,,,,,,,,,,,,,,,,,,,,,,,,,,,,,,,,,,,,,,,,,,,,,,,,,,,,,,,,,,,,,,,,,,,,,,,,,,,
,,"[""period""]",0,23,0,23,0,1,609ee5fbaa3b177503e2ca88,21,Mężczyzna,2022-06-04_08h10.14.571,task,2021.1.4,Win32,59.95203837,628b806c463b948bc644b84f,629af70116b475111776c9eb,[0.4939999999999998],,,,,,,,,,,,,,,,,,,,,,,,,,,,,,,,,,,,,,,,,,,,,,,,,,,,,,,,,,,,,,,,,,,,,,,,,,,,,,,,,,,,,,,,,,,,,,,,,,,,,,,
,,"[""comma""]",0,24,0,24,0,1,609ee5fbaa3b177503e2ca88,21,Mężczyzna,2022-06-04_08h10.14.571,task,2021.1.4,Win32,59.95203837,628b806c463b948bc644b84f,629af70116b475111776c9eb,[0.3780000000000001],,,,,,,,,,,,,,,,,,,,,,,,,,,,,,,,,,,,,,,,,,,,,,,,,,,,,,,,,,,,,,,,,,,,,,,,,,,,,,,,,,,,,,,,,,,,,,,,,,,,,,,
,,"[""comma""]",0,25,0,25,0,1,609ee5fbaa3b177503e2ca88,21,Mężczyzna,2022-06-04_08h10.14.571,task,2021.1.4,Win32,59.95203837,628b806c463b948bc644b84f,629af70116b475111776c9eb,[0.5630000000000024],,,,,,,,,,,,,,,,,,,,,,,,,,,,,,,,,,,,,,,,,,,,,,,,,,,,,,,,,,,,,,,,,,,,,,,,,,,,,,,,,,,,,,,,,,,,,,,,,,,,,,,
,,"[""comma""]",0,26,0,26,0,1,609ee5fbaa3b177503e2ca88,21,Mężczyzna,2022-06-04_08h10.14.571,task,2021.1.4,Win32,59.95203837,628b806c463b948bc644b84f,629af70116b475111776c9eb,[0.5409999999999968],,,,,,,,,,,,,,,,,,,,,,,,,,,,,,,,,,,,,,,,,,,,,,,,,,,,,,,,,,,,,,,,,,,,,,,,,,,,,,,,,,,,,,,,,,,,,,,,,,,,,,,
,,"[""comma""]",0,27,0,27,0,1,609ee5fbaa3b177503e2ca88,21,Mężczyzna,2022-06-04_08h10.14.571,task,2021.1.4,Win32,59.95203837,628b806c463b948bc644b84f,629af70116b475111776c9eb,[0.5229999999999961],,,,,,,,,,,,,,,,,,,,,,,,,,,,,,,,,,,,,,,,,,,,,,,,,,,,,,,,,,,,,,,,,,,,,,,,,,,,,,,,,,,,,,,,,,,,,,,,,,,,,,,
,,"[""period""]",0,28,0,28,0,1,609ee5fbaa3b177503e2ca88,21,Mężczyzna,2022-06-04_08h10.14.571,task,2021.1.4,Win32,59.95203837,628b806c463b948bc644b84f,629af70116b475111776c9eb,[0.31799999999999784],,,,,,,,,,,,,,,,,,,,,,,,,,,,,,,,,,,,,,,,,,,,,,,,,,,,,,,,,,,,,,,,,,,,,,,,,,,,,,,,,,,,,,,,,,,,,,,,,,,,,,,
,,"[""comma""]",0,29,0,29,0,1,609ee5fbaa3b177503e2ca88,21,Mężczyzna,2022-06-04_08h10.14.571,task,2021.1.4,Win32,59.95203837,628b806c463b948bc644b84f,629af70116b475111776c9eb,[0.3340000000000032],,,,,,,,,,,,,,,,,,,,,,,,,,,,,,,,,,,,,,,,,,,,,,,,,,,,,,,,,,,,,,,,,,,,,,,,,,,,,,,,,,,,,,,,,,,,,,,,,,,,,,,
,,"[""period""]",0,30,0,30,0,1,609ee5fbaa3b177503e2ca88,21,Mężczyzna,2022-06-04_08h10.14.571,task,2021.1.4,Win32,59.95203837,628b806c463b948bc644b84f,629af70116b475111776c9eb,[0.31099999999999284],,,,,,,,,,,,,,,,,,,,,,,,,,,,,,,,,,,,,,,,,,,,,,,,,,,,,,,,,,,,,,,,,,,,,,,,,,,,,,,,,,,,,,,,,,,,,,,,,,,,,,,
,,"[""comma""]",0,31,0,31,0,1,609ee5fbaa3b177503e2ca88,21,Mężczyzna,2022-06-04_08h10.14.571,task,2021.1.4,Win32,59.95203837,628b806c463b948bc644b84f,629af70116b475111776c9eb,[0.3810000000000002],,,,,,,,,,,,,,,,,,,,,,,,,,,,,,,,,,,,,,,,,,,,,,,,,,,,,,,,,,,,,,,,,,,,,,,,,,,,,,,,,,,,,,,,,,,,,,,,,,,,,,,
,,"[""comma""]",0,32,0,32,0,1,609ee5fbaa3b177503e2ca88,21,Mężczyzna,2022-06-04_08h10.14.571,task,2021.1.4,Win32,59.95203837,628b806c463b948bc644b84f,629af70116b475111776c9eb,[0.5759999999999934],,,,,,,,,,,,,,,,,,,,,,,,,,,,,,,,,,,,,,,,,,,,,,,,,,,,,,,,,,,,,,,,,,,,,,,,,,,,,,,,,,,,,,,,,,,,,,,,,,,,,,,
,,"[""period""]",0,33,0,33,0,1,609ee5fbaa3b177503e2ca88,21,Mężczyzna,2022-06-04_08h10.14.571,task,2021.1.4,Win32,59.95203837,628b806c463b948bc644b84f,629af70116b475111776c9eb,[0.3930000000000007],,,,,,,,,,,,,,,,,,,,,,,,,,,,,,,,,,,,,,,,,,,,,,,,,,,,,,,,,,,,,,,,,,,,,,,,,,,,,,,,,,,,,,,,,,,,,,,,,,,,,,,
,,"[""period""]",0,34,0,34,0,1,609ee5fbaa3b177503e2ca88,21,Mężczyzna,2022-06-04_08h10.14.571,task,2021.1.4,Win32,59.95203837,628b806c463b948bc644b84f,629af70116b475111776c9eb,[0.38800000000000523],,,,,,,,,,,,,,,,,,,,,,,,,,,,,,,,,,,,,,,,,,,,,,,,,,,,,,,,,,,,,,,,,,,,,,,,,,,,,,,,,,,,,,,,,,,,,,,,,,,,,,,
,,"[""period""]",0,35,0,35,0,1,609ee5fbaa3b177503e2ca88,21,Mężczyzna,2022-06-04_08h10.14.571,task,2021.1.4,Win32,59.95203837,628b806c463b948bc644b84f,629af70116b475111776c9eb,[0.31100000000000705],,,,,,,,,,,,,,,,,,,,,,,,,,,,,,,,,,,,,,,,,,,,,,,,,,,,,,,,,,,,,,,,,,,,,,,,,,,,,,,,,,,,,,,,,,,,,,,,,,,,,,,
,,"[""period""]",0,36,0,36,0,1,609ee5fbaa3b177503e2ca88,21,Mężczyzna,2022-06-04_08h10.14.571,task,2021.1.4,Win32,59.95203837,628b806c463b948bc644b84f,629af70116b475111776c9eb,[0.38400000000001455],,,,,,,,,,,,,,,,,,,,,,,,,,,,,,,,,,,,,,,,,,,,,,,,,,,,,,,,,,,,,,,,,,,,,,,,,,,,,,,,,,,,,,,,,,,,,,,,,,,,,,,
,,"[""comma""]",0,37,0,37,0,1,609ee5fbaa3b177503e2ca88,21,Mężczyzna,2022-06-04_08h10.14.571,task,2021.1.4,Win32,59.95203837,628b806c463b948bc644b84f,629af70116b475111776c9eb,[0.30100000000001614],,,,,,,,,,,,,,,,,,,,,,,,,,,,,,,,,,,,,,,,,,,,,,,,,,,,,,,,,,,,,,,,,,,,,,,,,,,,,,,,,,,,,,,,,,,,,,,,,,,,,,,
,,"[""comma""]",0,38,0,38,0,1,609ee5fbaa3b177503e2ca88,21,Mężczyzna,2022-06-04_08h10.14.571,task,2021.1.4,Win32,59.95203837,628b806c463b948bc644b84f,629af70116b475111776c9eb,[0.43899999999999295],,,,,,,,,,,,,,,,,,,,,,,,,,,,,,,,,,,,,,,,,,,,,,,,,,,,,,,,,,,,,,,,,,,,,,,,,,,,,,,,,,,,,,,,,,,,,,,,,,,,,,,
,,"[""period""]",0,39,0,39,0,1,609ee5fbaa3b177503e2ca88,21,Mężczyzna,2022-06-04_08h10.14.571,task,2021.1.4,Win32,59.95203837,628b806c463b948bc644b84f,629af70116b475111776c9eb,[0.30400000000000205],,,,,,,,,,,,,,,,,,,,,,,,,,,,,,,,,,,,,,,,,,,,,,,,,,,,,,,,,,,,,,,,,,,,,,,,,,,,,,,,,,,,,,,,,,,,,,,,,,,,,,,
,,"[""comma""]",0,40,0,40,0,1,609ee5fbaa3b177503e2ca88,21,Mężczyzna,2022-06-04_08h10.14.571,task,2021.1.4,Win32,59.95203837,628b806c463b948bc644b84f,629af70116b475111776c9eb,[0.4449999999999932],,,,,,,,,,,,,,,,,,,,,,,,,,,,,,,,,,,,,,,,,,,,,,,,,,,,,,,,,,,,,,,,,,,,,,,,,,,,,,,,,,,,,,,,,,,,,,,,,,,,,,,
,,"[""comma""]",0,41,0,41,0,1,609ee5fbaa3b177503e2ca88,21,Mężczyzna,2022-06-04_08h10.14.571,task,2021.1.4,Win32,59.95203837,628b806c463b948bc644b84f,629af70116b475111776c9eb,[0.7210000000000036],,,,,,,,,,,,,,,,,,,,,,,,,,,,,,,,,,,,,,,,,,,,,,,,,,,,,,,,,,,,,,,,,,,,,,,,,,,,,,,,,,,,,,,,,,,,,,,,,,,,,,,
,,"[""period""]",0,42,0,42,0,1,609ee5fbaa3b177503e2ca88,21,Mężczyzna,2022-06-04_08h10.14.571,task,2021.1.4,Win32,59.95203837,628b806c463b948bc644b84f,629af70116b475111776c9eb,[0.3119999999999834],,,,,,,,,,,,,,,,,,,,,,,,,,,,,,,,,,,,,,,,,,,,,,,,,,,,,,,,,,,,,,,,,,,,,,,,,,,,,,,,,,,,,,,,,,,,,,,,,,,,,,,
,,"[""period""]",0,43,0,43,0,1,609ee5fbaa3b177503e2ca88,21,Mężczyzna,2022-06-04_08h10.14.571,task,2021.1.4,Win32,59.95203837,628b806c463b948bc644b84f,629af70116b475111776c9eb,[0.34099999999997976],,,,,,,,,,,,,,,,,,,,,,,,,,,,,,,,,,,,,,,,,,,,,,,,,,,,,,,,,,,,,,,,,,,,,,,,,,,,,,,,,,,,,,,,,,,,,,,,,,,,,,,
,,"[""comma""]",0,44,0,44,0,1,609ee5fbaa3b177503e2ca88,21,Mężczyzna,2022-06-04_08h10.14.571,task,2021.1.4,Win32,59.95203837,628b806c463b948bc644b84f,629af70116b475111776c9eb,[0.35599999999999454],,,,,,,,,,,,,,,,,,,,,,,,,,,,,,,,,,,,,,,,,,,,,,,,,,,,,,,,,,,,,,,,,,,,,,,,,,,,,,,,,,,,,,,,,,,,,,,,,,,,,,,
,,"[""comma""]",0,45,0,45,0,1,609ee5fbaa3b177503e2ca88,21,Mężczyzna,2022-06-04_08h10.14.571,task,2021.1.4,Win32,59.95203837,628b806c463b948bc644b84f,629af70116b475111776c9eb,[0.29999999999998295],,,,,,,,,,,,,,,,,,,,,,,,,,,,,,,,,,,,,,,,,,,,,,,,,,,,,,,,,,,,,,,,,,,,,,,,,,,,,,,,,,,,,,,,,,,,,,,,,,,,,,,
,,"[""period""]",0,46,0,46,0,1,609ee5fbaa3b177503e2ca88,21,Mężczyzna,2022-06-04_08h10.14.571,task,2021.1.4,Win32,59.95203837,628b806c463b948bc644b84f,629af70116b475111776c9eb,[0.3340000000000032],,,,,,,,,,,,,,,,,,,,,,,,,,,,,,,,,,,,,,,,,,,,,,,,,,,,,,,,,,,,,,,,,,,,,,,,,,,,,,,,,,,,,,,,,,,,,,,,,,,,,,,
,,"[""comma""]",0,47,0,47,0,1,609ee5fbaa3b177503e2ca88,21,Mężczyzna,2022-06-04_08h10.14.571,task,2021.1.4,Win32,59.95203837,628b806c463b948bc644b84f,629af70116b475111776c9eb,[0.578000000000003],,,,,,,,,,,,,,,,,,,,,,,,,,,,,,,,,,,,,,,,,,,,,,,,,,,,,,,,,,,,,,,,,,,,,,,,,,,,,,,,,,,,,,,,,,,,,,,,,,,,,,,
,,"[""period""]",0,48,0,48,0,1,609ee5fbaa3b177503e2ca88,21,Mężczyzna,2022-06-04_08h10.14.571,task,2021.1.4,Win32,59.95203837,628b806c463b948bc644b84f,629af70116b475111776c9eb,[0.35499999999998977],,,,,,,,,,,,,,,,,,,,,,,,,,,,,,,,,,,,,,,,,,,,,,,,,,,,,,,,,,,,,,,,,,,,,,,,,,,,,,,,,,,,,,,,,,,,,,,,,,,,,,,
,,"[""comma""]",0,49,0,49,0,1,609ee5fbaa3b177503e2ca88,21,Mężczyzna,2022-06-04_08h10.14.571,task,2021.1.4,Win32,59.95203837,628b806c463b948bc644b84f,629af70116b475111776c9eb,[0.38399999999998613],,,,,,,,,,,,,,,,,,,,,,,,,,,,,,,,,,,,,,,,,,,,,,,,,,,,,,,,,,,,,,,,,,,,,,,,,,,,,,,,,,,,,,,,,,,,,,,,,,,,,,,
,,"[""period""]",0,50,0,50,0,1,609ee5fbaa3b177503e2ca88,21,Mężczyzna,2022-06-04_08h10.14.571,task,2021.1.4,Win32,59.95203837,628b806c463b948bc644b84f,629af70116b475111776c9eb,[0.32800000000000296],,,,,,,,,,,,,,,,,,,,,,,,,,,,,,,,,,,,,,,,,,,,,,,,,,,,,,,,,,,,,,,,,,,,,,,,,,,,,,,,,,,,,,,,,,,,,,,,,,,,,,,
,,"[""period""]",0,51,0,51,0,1,609ee5fbaa3b177503e2ca88,21,Mężczyzna,2022-06-04_08h10.14.571,task,2021.1.4,Win32,59.95203837,628b806c463b948bc644b84f,629af70116b475111776c9eb,[0.3919999999999959],,,,,,,,,,,,,,,,,,,,,,,,,,,,,,,,,,,,,,,,,,,,,,,,,,,,,,,,,,,,,,,,,,,,,,,,,,,,,,,,,,,,,,,,,,,,,,,,,,,,,,,
,,"[""comma""]",0,52,0,52,0,1,609ee5fbaa3b177503e2ca88,21,Mężczyzna,2022-06-04_08h10.14.571,task,2021.1.4,Win32,59.95203837,628b806c463b948bc644b84f,629af70116b475111776c9eb,[0.2909999999999968],,,,,,,,,,,,,,,,,,,,,,,,,,,,,,,,,,,,,,,,,,,,,,,,,,,,,,,,,,,,,,,,,,,,,,,,,,,,,,,,,,,,,,,,,,,,,,,,,,,,,,,
,,"[""period""]",0,53,0,53,0,1,609ee5fbaa3b177503e2ca88,21,Mężczyzna,2022-06-04_08h10.14.571,task,2021.1.4,Win32,59.95203837,628b806c463b948bc644b84f,629af70116b475111776c9eb,[1.554000000000002],,,,,,,,,,,,,,,,,,,,,,,,,,,,,,,,,,,,,,,,,,,,,,,,,,,,,,,,,,,,,,,,,,,,,,,,,,,,,,,,,,,,,,,,,,,,,,,,,,,,,,,
,,"[""comma""]",0,54,0,54,0,1,609ee5fbaa3b177503e2ca88,21,Mężczyzna,2022-06-04_08h10.14.571,task,2021.1.4,Win32,59.95203837,628b806c463b948bc644b84f,629af70116b475111776c9eb,[0.4899999999999807],,,,,,,,,,,,,,,,,,,,,,,,,,,,,,,,,,,,,,,,,,,,,,,,,,,,,,,,,,,,,,,,,,,,,,,,,,,,,,,,,,,,,,,,,,,,,,,,,,,,,,,
,,"[""comma""]",0,55,0,55,0,1,609ee5fbaa3b177503e2ca88,21,Mężczyzna,2022-06-04_08h10.14.571,task,2021.1.4,Win32,59.95203837,628b806c463b948bc644b84f,629af70116b475111776c9eb,[0.33399999999997476],,,,,,,,,,,,,,,,,,,,,,,,,,,,,,,,,,,,,,,,,,,,,,,,,,,,,,,,,,,,,,,,,,,,,,,,,,,,,,,,,,,,,,,,,,,,,,,,,,,,,,,
,,"[""comma""]",0,56,0,56,0,1,609ee5fbaa3b177503e2ca88,21,Mężczyzna,2022-06-04_08h10.14.571,task,2021.1.4,Win32,59.95203837,628b806c463b948bc644b84f,629af70116b475111776c9eb,[0.42499999999998295],,,,,,,,,,,,,,,,,,,,,,,,,,,,,,,,,,,,,,,,,,,,,,,,,,,,,,,,,,,,,,,,,,,,,,,,,,,,,,,,,,,,,,,,,,,,,,,,,,,,,,,
,,"[""period""]",0,57,0,57,0,1,609ee5fbaa3b177503e2ca88,21,Mężczyzna,2022-06-04_08h10.14.571,task,2021.1.4,Win32,59.95203837,628b806c463b948bc644b84f,629af70116b475111776c9eb,[0.32900000000000773],,,,,,,,,,,,,,,,,,,,,,,,,,,,,,,,,,,,,,,,,,,,,,,,,,,,,,,,,,,,,,,,,,,,,,,,,,,,,,,,,,,,,,,,,,,,,,,,,,,,,,,
,,"[""period""]",0,58,0,58,0,1,609ee5fbaa3b177503e2ca88,21,Mężczyzna,2022-06-04_08h10.14.571,task,2021.1.4,Win32,59.95203837,628b806c463b948bc644b84f,629af70116b475111776c9eb,[0.2790000000000248],,,,,,,,,,,,,,,,,,,,,,,,,,,,,,,,,,,,,,,,,,,,,,,,,,,,,,,,,,,,,,,,,,,,,,,,,,,,,,,,,,,,,,,,,,,,,,,,,,,,,,,
,,"[""comma""]",0,59,0,59,0,1,609ee5fbaa3b177503e2ca88,21,Mężczyzna,2022-06-04_08h10.14.571,task,2021.1.4,Win32,59.95203837,628b806c463b948bc644b84f,629af70116b475111776c9eb,[0.617999999999995],,,,,,,,,,,,,,,,,,,,,,,,,,,,,,,,,,,,,,,,,,,,,,,,,,,,,,,,,,,,,,,,,,,,,,,,,,,,,,,,,,,,,,,,,,,,,,,,,,,,,,,
,,"[""period""]",0,60,0,60,0,1,609ee5fbaa3b177503e2ca88,21,Mężczyzna,2022-06-04_08h10.14.571,task,2021.1.4,Win32,59.95203837,628b806c463b948bc644b84f,629af70116b475111776c9eb,[0.33899999999999864],,,,,,,,,,,,,,,,,,,,,,,,,,,,,,,,,,,,,,,,,,,,,,,,,,,,,,,,,,,,,,,,,,,,,,,,,,,,,,,,,,,,,,,,,,,,,,,,,,,,,,,
,,"[""period""]",0,61,0,61,0,1,609ee5fbaa3b177503e2ca88,21,Mężczyzna,2022-06-04_08h10.14.571,task,2021.1.4,Win32,59.95203837,628b806c463b948bc644b84f,629af70116b475111776c9eb,[0.3760000000000048],,,,,,,,,,,,,,,,,,,,,,,,,,,,,,,,,,,,,,,,,,,,,,,,,,,,,,,,,,,,,,,,,,,,,,,,,,,,,,,,,,,,,,,,,,,,,,,,,,,,,,,
,,"[""period""]",0,62,0,62,0,1,609ee5fbaa3b177503e2ca88,21,Mężczyzna,2022-06-04_08h10.14.571,task,2021.1.4,Win32,59.95203837,628b806c463b948bc644b84f,629af70116b475111776c9eb,[0.3199999999999932],,,,,,,,,,,,,,,,,,,,,,,,,,,,,,,,,,,,,,,,,,,,,,,,,,,,,,,,,,,,,,,,,,,,,,,,,,,,,,,,,,,,,,,,,,,,,,,,,,,,,,,
,,"[""period""]",0,63,0,63,0,1,609ee5fbaa3b177503e2ca88,21,Mężczyzna,2022-06-04_08h10.14.571,task,2021.1.4,Win32,59.95203837,628b806c463b948bc644b84f,629af70116b475111776c9eb,[0.30700000000001637],,,,,,,,,,,,,,,,,,,,,,,,,,,,,,,,,,,,,,,,,,,,,,,,,,,,,,,,,,,,,,,,,,,,,,,,,,,,,,,,,,,,,,,,,,,,,,,,,,,,,,,
,,"[""period""]",0,64,0,64,0,1,609ee5fbaa3b177503e2ca88,21,Mężczyzna,2022-06-04_08h10.14.571,task,2021.1.4,Win32,59.95203837,628b806c463b948bc644b84f,629af70116b475111776c9eb,[0.33500000000000796],,,,,,,,,,,,,,,,,,,,,,,,,,,,,,,,,,,,,,,,,,,,,,,,,,,,,,,,,,,,,,,,,,,,,,,,,,,,,,,,,,,,,,,,,,,,,,,,,,,,,,,
,,"[""period""]",0,65,0,65,0,1,609ee5fbaa3b177503e2ca88,21,Mężczyzna,2022-06-04_08h10.14.571,task,2021.1.4,Win32,59.95203837,628b806c463b948bc644b84f,629af70116b475111776c9eb,[0.30100000000001614],,,,,,,,,,,,,,,,,,,,,,,,,,,,,,,,,,,,,,,,,,,,,,,,,,,,,,,,,,,,,,,,,,,,,,,,,,,,,,,,,,,,,,,,,,,,,,,,,,,,,,,
,,"[""comma""]",0,66,0,66,0,1,609ee5fbaa3b177503e2ca88,21,Mężczyzna,2022-06-04_08h10.14.571,task,2021.1.4,Win32,59.95203837,628b806c463b948bc644b84f,629af70116b475111776c9eb,[0.28600000000000136],,,,,,,,,,,,,,,,,,,,,,,,,,,,,,,,,,,,,,,,,,,,,,,,,,,,,,,,,,,,,,,,,,,,,,,,,,,,,,,,,,,,,,,,,,,,,,,,,,,,,,,
,,"[""period""]",0,67,0,67,0,1,609ee5fbaa3b177503e2ca88,21,Mężczyzna,2022-06-04_08h10.14.571,task,2021.1.4,Win32,59.95203837,628b806c463b948bc644b84f,629af70116b475111776c9eb,[0.3509999999999991],,,,,,,,,,,,,,,,,,,,,,,,,,,,,,,,,,,,,,,,,,,,,,,,,,,,,,,,,,,,,,,,,,,,,,,,,,,,,,,,,,,,,,,,,,,,,,,,,,,,,,,
,,"[""comma""]",0,68,0,68,0,1,609ee5fbaa3b177503e2ca88,21,Mężczyzna,2022-06-04_08h10.14.571,task,2021.1.4,Win32,59.95203837,628b806c463b948bc644b84f,629af70116b475111776c9eb,[0.4350000000000023],,,,,,,,,,,,,,,,,,,,,,,,,,,,,,,,,,,,,,,,,,,,,,,,,,,,,,,,,,,,,,,,,,,,,,,,,,,,,,,,,,,,,,,,,,,,,,,,,,,,,,,
,,"[""comma""]",0,69,0,69,0,1,609ee5fbaa3b177503e2ca88,21,Mężczyzna,2022-06-04_08h10.14.571,task,2021.1.4,Win32,59.95203837,628b806c463b948bc644b84f,629af70116b475111776c9eb,[0.38400000000001455],,,,,,,,,,,,,,,,,,,,,,,,,,,,,,,,,,,,,,,,,,,,,,,,,,,,,,,,,,,,,,,,,,,,,,,,,,,,,,,,,,,,,,,,,,,,,,,,,,,,,,,
,,"[""comma""]",0,70,0,70,0,1,609ee5fbaa3b177503e2ca88,21,Mężczyzna,2022-06-04_08h10.14.571,task,2021.1.4,Win32,59.95203837,628b806c463b948bc644b84f,629af70116b475111776c9eb,[0.3509999999999991],,,,,,,,,,,,,,,,,,,,,,,,,,,,,,,,,,,,,,,,,,,,,,,,,,,,,,,,,,,,,,,,,,,,,,,,,,,,,,,,,,,,,,,,,,,,,,,,,,,,,,,
,,"[""comma""]",0,71,0,71,0,1,609ee5fbaa3b177503e2ca88,21,Mężczyzna,2022-06-04_08h10.14.571,task,2021.1.4,Win32,59.95203837,628b806c463b948bc644b84f,629af70116b475111776c9eb,[0.44599999999999795],,,,,,,,,,,,,,,,,,,,,,,,,,,,,,,,,,,,,,,,,,,,,,,,,,,,,,,,,,,,,,,,,,,,,,,,,,,,,,,,,,,,,,,,,,,,,,,,,,,,,,,
,,"[""period""]",0,72,0,72,0,1,609ee5fbaa3b177503e2ca88,21,Mężczyzna,2022-06-04_08h10.14.571,task,2021.1.4,Win32,59.95203837,628b806c463b948bc644b84f,629af70116b475111776c9eb,[0.5840000000000032],,,,,,,,,,,,,,,,,,,,,,,,,,,,,,,,,,,,,,,,,,,,,,,,,,,,,,,,,,,,,,,,,,,,,,,,,,,,,,,,,,,,,,,,,,,,,,,,,,,,,,,
,,"[""comma""]",0,73,0,73,0,1,609ee5fbaa3b177503e2ca88,21,Mężczyzna,2022-06-04_08h10.14.571,task,2021.1.4,Win32,59.95203837,628b806c463b948bc644b84f,629af70116b475111776c9eb,[0.4240000000000066],,,,,,,,,,,,,,,,,,,,,,,,,,,,,,,,,,,,,,,,,,,,,,,,,,,,,,,,,,,,,,,,,,,,,,,,,,,,,,,,,,,,,,,,,,,,,,,,,,,,,,,
,,"[""period""]",0,74,0,74,0,1,609ee5fbaa3b177503e2ca88,21,Mężczyzna,2022-06-04_08h10.14.571,task,2021.1.4,Win32,59.95203837,628b806c463b948bc644b84f,629af70116b475111776c9eb,[0.2849999999999966],,,,,,,,,,,,,,,,,,,,,,,,,,,,,,,,,,,,,,,,,,,,,,,,,,,,,,,,,,,,,,,,,,,,,,,,,,,,,,,,,,,,,,,,,,,,,,,,,,,,,,,
,,"[""comma""]",0,75,0,75,0,1,609ee5fbaa3b177503e2ca88,21,Mężczyzna,2022-06-04_08h10.14.571,task,2021.1.4,Win32,59.95203837,628b806c463b948bc644b84f,629af70116b475111776c9eb,[0.27600000000001046],,,,,,,,,,,,,,,,,,,,,,,,,,,,,,,,,,,,,,,,,,,,,,,,,,,,,,,,,,,,,,,,,,,,,,,,,,,,,,,,,,,,,,,,,,,,,,,,,,,,,,,
,,"[""comma""]",0,76,0,76,0,1,609ee5fbaa3b177503e2ca88,21,Mężczyzna,2022-06-04_08h10.14.571,task,2021.1.4,Win32,59.95203837,628b806c463b948bc644b84f,629af70116b475111776c9eb,[0.27600000000001046],,,,,,,,,,,,,,,,,,,,,,,,,,,,,,,,,,,,,,,,,,,,,,,,,,,,,,,,,,,,,,,,,,,,,,,,,,,,,,,,,,,,,,,,,,,,,,,,,,,,,,,
,,"[""period""]",0,77,0,77,0,1,609ee5fbaa3b177503e2ca88,21,Mężczyzna,2022-06-04_08h10.14.571,task,2021.1.4,Win32,59.95203837,628b806c463b948bc644b84f,629af70116b475111776c9eb,[0.2529999999999859],,,,,,,,,,,,,,,,,,,,,,,,,,,,,,,,,,,,,,,,,,,,,,,,,,,,,,,,,,,,,,,,,,,,,,,,,,,,,,,,,,,,,,,,,,,,,,,,,,,,,,,
,,"[""comma""]",0,78,0,78,0,1,609ee5fbaa3b177503e2ca88,21,Mężczyzna,2022-06-04_08h10.14.571,task,2021.1.4,Win32,59.95203837,628b806c463b948bc644b84f,629af70116b475111776c9eb,[0.4549999999999841],,,,,,,,,,,,,,,,,,,,,,,,,,,,,,,,,,,,,,,,,,,,,,,,,,,,,,,,,,,,,,,,,,,,,,,,,,,,,,,,,,,,,,,,,,,,,,,,,,,,,,,
,,"[""comma""]",0,79,0,79,0,1,609ee5fbaa3b177503e2ca88,21,Mężczyzna,2022-06-04_08h10.14.571,task,2021.1.4,Win32,59.95203837,628b806c463b948bc644b84f,629af70116b475111776c9eb,[0.8729999999999905],,,,,,,,,,,,,,,,,,,,,,,,,,,,,,,,,,,,,,,,,,,,,,,,,,,,,,,,,,,,,,,,,,,,,,,,,,,,,,,,,,,,,,,,,,,,,,,,,,,,,,,
,,"[""comma""]",0,80,0,80,0,1,609ee5fbaa3b177503e2ca88,21,Mężczyzna,2022-06-04_08h10.14.571,task,2021.1.4,Win32,59.95203837,628b806c463b948bc644b84f,629af70116b475111776c9eb,[0.6359999999999957],,,,,,,,,,,,,,,,,,,,,,,,,,,,,,,,,,,,,,,,,,,,,,,,,,,,,,,,,,,,,,,,,,,,,,,,,,,,,,,,,,,,,,,,,,,,,,,,,,,,,,,
,,"[""period""]",0,81,0,81,0,1,609ee5fbaa3b177503e2ca88,21,Mężczyzna,2022-06-04_08h10.14.571,task,2021.1.4,Win32,59.95203837,628b806c463b948bc644b84f,629af70116b475111776c9eb,[0.3229999999999791],,,,,,,,,,,,,,,,,,,,,,,,,,,,,,,,,,,,,,,,,,,,,,,,,,,,,,,,,,,,,,,,,,,,,,,,,,,,,,,,,,,,,,,,,,,,,,,,,,,,,,,
,,"[""period""]",0,82,0,82,0,1,609ee5fbaa3b177503e2ca88,21,Mężczyzna,2022-06-04_08h10.14.571,task,2021.1.4,Win32,59.95203837,628b806c463b948bc644b84f,629af70116b475111776c9eb,[0.5049999999999955],,,,,,,,,,,,,,,,,,,,,,,,,,,,,,,,,,,,,,,,,,,,,,,,,,,,,,,,,,,,,,,,,,,,,,,,,,,,,,,,,,,,,,,,,,,,,,,,,,,,,,,
,,"[""period"",""comma""]",0,83,0,83,0,1,609ee5fbaa3b177503e2ca88,21,Mężczyzna,2022-06-04_08h10.14.571,task,2021.1.4,Win32,59.95203837,628b806c463b948bc644b84f,629af70116b475111776c9eb,"[0.3930000000000007,0.867999999999995]",,,,,,,,,,,,,,,,,,,,,,,,,,,,,,,,,,,,,,,,,,,,,,,,,,,,,,,,,,,,,,,,,,,,,,,,,,,,,,,,,,,,,,,,,,,,,,,,,,,,,,,
,,"[""period""]",0,84,0,84,0,1,609ee5fbaa3b177503e2ca88,21,Mężczyzna,2022-06-04_08h10.14.571,task,2021.1.4,Win32,59.95203837,628b806c463b948bc644b84f,629af70116b475111776c9eb,[0.7009999999999934],,,,,,,,,,,,,,,,,,,,,,,,,,,,,,,,,,,,,,,,,,,,,,,,,,,,,,,,,,,,,,,,,,,,,,,,,,,,,,,,,,,,,,,,,,,,,,,,,,,,,,,
,,"[""period""]",0,85,0,85,0,1,609ee5fbaa3b177503e2ca88,21,Mężczyzna,2022-06-04_08h10.14.571,task,2021.1.4,Win32,59.95203837,628b806c463b948bc644b84f,629af70116b475111776c9eb,[0.5349999999999966],,,,,,,,,,,,,,,,,,,,,,,,,,,,,,,,,,,,,,,,,,,,,,,,,,,,,,,,,,,,,,,,,,,,,,,,,,,,,,,,,,,,,,,,,,,,,,,,,,,,,,,
,,"[""comma""]",0,86,0,86,0,1,609ee5fbaa3b177503e2ca88,21,Mężczyzna,2022-06-04_08h10.14.571,task,2021.1.4,Win32,59.95203837,628b806c463b948bc644b84f,629af70116b475111776c9eb,[0.3189999999999884],,,,,,,,,,,,,,,,,,,,,,,,,,,,,,,,,,,,,,,,,,,,,,,,,,,,,,,,,,,,,,,,,,,,,,,,,,,,,,,,,,,,,,,,,,,,,,,,,,,,,,,
,,"[""period""]",0,87,0,87,0,1,609ee5fbaa3b177503e2ca88,21,Mężczyzna,2022-06-04_08h10.14.571,task,2021.1.4,Win32,59.95203837,628b806c463b948bc644b84f,629af70116b475111776c9eb,[0.28999999999999204],,,,,,,,,,,,,,,,,,,,,,,,,,,,,,,,,,,,,,,,,,,,,,,,,,,,,,,,,,,,,,,,,,,,,,,,,,,,,,,,,,,,,,,,,,,,,,,,,,,,,,,
,,"[""period""]",0,88,0,88,0,1,609ee5fbaa3b177503e2ca88,21,Mężczyzna,2022-06-04_08h10.14.571,task,2021.1.4,Win32,59.95203837,628b806c463b948bc644b84f,629af70116b475111776c9eb,[0.3719999999999857],,,,,,,,,,,,,,,,,,,,,,,,,,,,,,,,,,,,,,,,,,,,,,,,,,,,,,,,,,,,,,,,,,,,,,,,,,,,,,,,,,,,,,,,,,,,,,,,,,,,,,,
,,"[""period""]",0,89,0,89,0,1,609ee5fbaa3b177503e2ca88,21,Mężczyzna,2022-06-04_08h10.14.571,task,2021.1.4,Win32,59.95203837,628b806c463b948bc644b84f,629af70116b475111776c9eb,[0.367999999999995],,,,,,,,,,,,,,,,,,,,,,,,,,,,,,,,,,,,,,,,,,,,,,,,,,,,,,,,,,,,,,,,,,,,,,,,,,,,,,,,,,,,,,,,,,,,,,,,,,,,,,,
,,"[""comma""]",0,90,0,90,0,1,609ee5fbaa3b177503e2ca88,21,Mężczyzna,2022-06-04_08h10.14.571,task,2021.1.4,Win32,59.95203837,628b806c463b948bc644b84f,629af70116b475111776c9eb,[0.17900000000000205],,,,,,,,,,,,,,,,,,,,,,,,,,,,,,,,,,,,,,,,,,,,,,,,,,,,,,,,,,,,,,,,,,,,,,,,,,,,,,,,,,,,,,,,,,,,,,,,,,,,,,,
,,"[""comma""]",0,91,0,91,0,1,609ee5fbaa3b177503e2ca88,21,Mężczyzna,2022-06-04_08h10.14.571,task,2021.1.4,Win32,59.95203837,628b806c463b948bc644b84f,629af70116b475111776c9eb,[0.2839999999999918],,,,,,,,,,,,,,,,,,,,,,,,,,,,,,,,,,,,,,,,,,,,,,,,,,,,,,,,,,,,,,,,,,,,,,,,,,,,,,,,,,,,,,,,,,,,,,,,,,,,,,,
,,"[""period""]",0,92,0,92,0,1,609ee5fbaa3b177503e2ca88,21,Mężczyzna,2022-06-04_08h10.14.571,task,2021.1.4,Win32,59.95203837,628b806c463b948bc644b84f,629af70116b475111776c9eb,[0.26200000000000045],,,,,,,,,,,,,,,,,,,,,,,,,,,,,,,,,,,,,,,,,,,,,,,,,,,,,,,,,,,,,,,,,,,,,,,,,,,,,,,,,,,,,,,,,,,,,,,,,,,,,,,
,,"[""comma""]",0,93,0,93,0,1,609ee5fbaa3b177503e2ca88,21,Mężczyzna,2022-06-04_08h10.14.571,task,2021.1.4,Win32,59.95203837,628b806c463b948bc644b84f,629af70116b475111776c9eb,[0.3850000000000193],,,,,,,,,,,,,,,,,,,,,,,,,,,,,,,,,,,,,,,,,,,,,,,,,,,,,,,,,,,,,,,,,,,,,,,,,,,,,,,,,,,,,,,,,,,,,,,,,,,,,,,
,,"[""comma""]",0,94,0,94,0,1,609ee5fbaa3b177503e2ca88,21,Mężczyzna,2022-06-04_08h10.14.571,task,2021.1.4,Win32,59.95203837,628b806c463b948bc644b84f,629af70116b475111776c9eb,[0.3329999999999984],,,,,,,,,,,,,,,,,,,,,,,,,,,,,,,,,,,,,,,,,,,,,,,,,,,,,,,,,,,,,,,,,,,,,,,,,,,,,,,,,,,,,,,,,,,,,,,,,,,,,,,
,,"[""period""]",0,95,0,95,0,1,609ee5fbaa3b177503e2ca88,21,Mężczyzna,2022-06-04_08h10.14.571,task,2021.1.4,Win32,59.95203837,628b806c463b948bc644b84f,629af70116b475111776c9eb,[0.3040000000000589],,,,,,,,,,,,,,,,,,,,,,,,,,,,,,,,,,,,,,,,,,,,,,,,,,,,,,,,,,,,,,,,,,,,,,,,,,,,,,,,,,,,,,,,,,,,,,,,,,,,,,,
,,"[""period""]",0,96,0,96,0,1,609ee5fbaa3b177503e2ca88,21,Mężczyzna,2022-06-04_08h10.14.571,task,2021.1.4,Win32,59.95203837,628b806c463b948bc644b84f,629af70116b475111776c9eb,[0.2629999999999768],,,,,,,,,,,,,,,,,,,,,,,,,,,,,,,,,,,,,,,,,,,,,,,,,,,,,,,,,,,,,,,,,,,,,,,,,,,,,,,,,,,,,,,,,,,,,,,,,,,,,,,
,,"[""comma""]",0,97,0,97,0,1,609ee5fbaa3b177503e2ca88,21,Mężczyzna,2022-06-04_08h10.14.571,task,2021.1.4,Win32,59.95203837,628b806c463b948bc644b84f,629af70116b475111776c9eb,[0.29199999999997317],,,,,,,,,,,,,,,,,,,,,,,,,,,,,,,,,,,,,,,,,,,,,,,,,,,,,,,,,,,,,,,,,,,,,,,,,,,,,,,,,,,,,,,,,,,,,,,,,,,,,,,
,,"[""period""]",0,98,0,98,0,1,609ee5fbaa3b177503e2ca88,21,Mężczyzna,2022-06-04_08h10.14.571,task,2021.1.4,Win32,59.95203837,628b806c463b948bc644b84f,629af70116b475111776c9eb,[0.22199999999998],,,,,,,,,,,,,,,,,,,,,,,,,,,,,,,,,,,,,,,,,,,,,,,,,,,,,,,,,,,,,,,,,,,,,,,,,,,,,,,,,,,,,,,,,,,,,,,,,,,,,,,
,,"[""period"",""comma""]",0,99,0,99,0,1,609ee5fbaa3b177503e2ca88,21,Mężczyzna,2022-06-04_08h10.14.571,task,2021.1.4,Win32,59.95203837,628b806c463b948bc644b84f,629af70116b475111776c9eb,"[0.09499999999997044,1.8349999999999795]",,,,,,,,,,,,,,,,,,,,,,,,,,,,,,,,,,,,,,,,,,,,,,,,,,,,,,,,,,,,,,,,,,,,,,,,,,,,,,,,,,,,,,,,,,,,,,,,,,,,,,,
,,,0,100,0,100,0,1,609ee5fbaa3b177503e2ca88,21,Mężczyzna,2022-06-04_08h10.14.571,task,2021.1.4,Win32,59.95203837,628b806c463b948bc644b84f,629af70116b475111776c9eb,,,,,,,,,,,,,,,,,,,,,,,,,,,,,,,,,,,,,,,,,,,,,,,,,,,,,,,,,,,,,,,,,,,,,,,,,,,,,,,,,,,,,,,,,,,,,,,,,,,,,,,,
,,"[""period""]",0,101,0,101,0,1,609ee5fbaa3b177503e2ca88,21,Mężczyzna,2022-06-04_08h10.14.571,task,2021.1.4,Win32,59.95203837,628b806c463b948bc644b84f,629af70116b475111776c9eb,[0.002999999999985903],,,,,,,,,,,,,,,,,,,,,,,,,,,,,,,,,,,,,,,,,,,,,,,,,,,,,,,,,,,,,,,,,,,,,,,,,,,,,,,,,,,,,,,,,,,,,,,,,,,,,,,
,,"[""comma""]",0,102,0,102,0,1,609ee5fbaa3b177503e2ca88,21,Mężczyzna,2022-06-04_08h10.14.571,task,2021.1.4,Win32,59.95203837,628b806c463b948bc644b84f,629af70116b475111776c9eb,[0.03899999999998727],,,,,,,,,,,,,,,,,,,,,,,,,,,,,,,,,,,,,,,,,,,,,,,,,,,,,,,,,,,,,,,,,,,,,,,,,,,,,,,,,,,,,,,,,,,,,,,,,,,,,,,
,,"[""period""]",0,103,0,103,0,1,609ee5fbaa3b177503e2ca88,21,Mężczyzna,2022-06-04_08h10.14.571,task,2021.1.4,Win32,59.95203837,628b806c463b948bc644b84f,629af70116b475111776c9eb,[0.2459999999999809],,,,,,,,,,,,,,,,,,,,,,,,,,,,,,,,,,,,,,,,,,,,,,,,,,,,,,,,,,,,,,,,,,,,,,,,,,,,,,,,,,,,,,,,,,,,,,,,,,,,,,,
,,"[""comma""]",0,104,0,104,0,1,609ee5fbaa3b177503e2ca88,21,Mężczyzna,2022-06-04_08h10.14.571,task,2021.1.4,Win32,59.95203837,628b806c463b948bc644b84f,629af70116b475111776c9eb,[0.3299999999999841],,,,,,,,,,,,,,,,,,,,,,,,,,,,,,,,,,,,,,,,,,,,,,,,,,,,,,,,,,,,,,,,,,,,,,,,,,,,,,,,,,,,,,,,,,,,,,,,,,,,,,,
,,"[""period""]",0,105,0,105,0,1,609ee5fbaa3b177503e2ca88,21,Mężczyzna,2022-06-04_08h10.14.571,task,2021.1.4,Win32,59.95203837,628b806c463b948bc644b84f,629af70116b475111776c9eb,[0.23600000000004684],,,,,,,,,,,,,,,,,,,,,,,,,,,,,,,,,,,,,,,,,,,,,,,,,,,,,,,,,,,,,,,,,,,,,,,,,,,,,,,,,,,,,,,,,,,,,,,,,,,,,,,
,,"[""period""]",0,106,0,106,0,1,609ee5fbaa3b177503e2ca88,21,Mężczyzna,2022-06-04_08h10.14.571,task,2021.1.4,Win32,59.95203837,628b806c463b948bc644b84f,629af70116b475111776c9eb,[0.28400000000004866],,,,,,,,,,,,,,,,,,,,,,,,,,,,,,,,,,,,,,,,,,,,,,,,,,,,,,,,,,,,,,,,,,,,,,,,,,,,,,,,,,,,,,,,,,,,,,,,,,,,,,,
,,"[""comma""]",0,107,0,107,0,1,609ee5fbaa3b177503e2ca88,21,Mężczyzna,2022-06-04_08h10.14.571,task,2021.1.4,Win32,59.95203837,628b806c463b948bc644b84f,629af70116b475111776c9eb,[0.26200000000000045],,,,,,,,,,,,,,,,,,,,,,,,,,,,,,,,,,,,,,,,,,,,,,,,,,,,,,,,,,,,,,,,,,,,,,,,,,,,,,,,,,,,,,,,,,,,,,,,,,,,,,,
,,"[""period""]",0,108,0,108,0,1,609ee5fbaa3b177503e2ca88,21,Mężczyzna,2022-06-04_08h10.14.571,task,2021.1.4,Win32,59.95203837,628b806c463b948bc644b84f,629af70116b475111776c9eb,[0.3100000000000023],,,,,,,,,,,,,,,,,,,,,,,,,,,,,,,,,,,,,,,,,,,,,,,,,,,,,,,,,,,,,,,,,,,,,,,,,,,,,,,,,,,,,,,,,,,,,,,,,,,,,,,
,,"[""comma""]",0,109,0,109,0,1,609ee5fbaa3b177503e2ca88,21,Mężczyzna,2022-06-04_08h10.14.571,task,2021.1.4,Win32,59.95203837,628b806c463b948bc644b84f,629af70116b475111776c9eb,[0.30700000000001637],,,,,,,,,,,,,,,,,,,,,,,,,,,,,,,,,,,,,,,,,,,,,,,,,,,,,,,,,,,,,,,,,,,,,,,,,,,,,,,,,,,,,,,,,,,,,,,,,,,,,,,
,,"[""comma""]",0,110,0,110,0,1,609ee5fbaa3b177503e2ca88,21,Mężczyzna,2022-06-04_08h10.14.571,task,2021.1.4,Win32,59.95203837,628b806c463b948bc644b84f,629af70116b475111776c9eb,[0.2909999999999968],,,,,,,,,,,,,,,,,,,,,,,,,,,,,,,,,,,,,,,,,,,,,,,,,,,,,,,,,,,,,,,,,,,,,,,,,,,,,,,,,,,,,,,,,,,,,,,,,,,,,,,
,,"[""period""]",0,111,0,111,0,1,609ee5fbaa3b177503e2ca88,21,Mężczyzna,2022-06-04_08h10.14.571,task,2021.1.4,Win32,59.95203837,628b806c463b948bc644b84f,629af70116b475111776c9eb,[0.20100000000002183],,,,,,,,,,,,,,,,,,,,,,,,,,,,,,,,,,,,,,,,,,,,,,,,,,,,,,,,,,,,,,,,,,,,,,,,,,,,,,,,,,,,,,,,,,,,,,,,,,,,,,,
,,"[""period""]",0,112,0,112,0,1,609ee5fbaa3b177503e2ca88,21,Mężczyzna,2022-06-04_08h10.14.571,task,2021.1.4,Win32,59.95203837,628b806c463b948bc644b84f,629af70116b475111776c9eb,[0.25],,,,,,,,,,,,,,,,,,,,,,,,,,,,,,,,,,,,,,,,,,,,,,,,,,,,,,,,,,,,,,,,,,,,,,,,,,,,,,,,,,,,,,,,,,,,,,,,,,,,,,,
,,"[""period""]",0,113,0,113,0,1,609ee5fbaa3b177503e2ca88,21,Mężczyzna,2022-06-04_08h10.14.571,task,2021.1.4,Win32,59.95203837,628b806c463b948bc644b84f,629af70116b475111776c9eb,[0.26799999999997226],,,,,,,,,,,,,,,,,,,,,,,,,,,,,,,,,,,,,,,,,,,,,,,,,,,,,,,,,,,,,,,,,,,,,,,,,,,,,,,,,,,,,,,,,,,,,,,,,,,,,,,
,,"[""period""]",0,114,0,114,0,1,609ee5fbaa3b177503e2ca88,21,Mężczyzna,2022-06-04_08h10.14.571,task,2021.1.4,Win32,59.95203837,628b806c463b948bc644b84f,629af70116b475111776c9eb,[0.3009999999999877],,,,,,,,,,,,,,,,,,,,,,,,,,,,,,,,,,,,,,,,,,,,,,,,,,,,,,,,,,,,,,,,,,,,,,,,,,,,,,,,,,,,,,,,,,,,,,,,,,,,,,,
,,"[""period""]",0,115,0,115,0,1,609ee5fbaa3b177503e2ca88,21,Mężczyzna,2022-06-04_08h10.14.571,task,2021.1.4,Win32,59.95203837,628b806c463b948bc644b84f,629af70116b475111776c9eb,[0.35199999999997544],,,,,,,,,,,,,,,,,,,,,,,,,,,,,,,,,,,,,,,,,,,,,,,,,,,,,,,,,,,,,,,,,,,,,,,,,,,,,,,,,,,,,,,,,,,,,,,,,,,,,,,
,,"[""period""]",0,116,0,116,0,1,609ee5fbaa3b177503e2ca88,21,Mężczyzna,2022-06-04_08h10.14.571,task,2021.1.4,Win32,59.95203837,628b806c463b948bc644b84f,629af70116b475111776c9eb,[0.2999999999999545],,,,,,,,,,,,,,,,,,,,,,,,,,,,,,,,,,,,,,,,,,,,,,,,,,,,,,,,,,,,,,,,,,,,,,,,,,,,,,,,,,,,,,,,,,,,,,,,,,,,,,,
,,"[""period""]",0,117,0,117,0,1,609ee5fbaa3b177503e2ca88,21,Mężczyzna,2022-06-04_08h10.14.571,task,2021.1.4,Win32,59.95203837,628b806c463b948bc644b84f,629af70116b475111776c9eb,[0.28700000000003456],,,,,,,,,,,,,,,,,,,,,,,,,,,,,,,,,,,,,,,,,,,,,,,,,,,,,,,,,,,,,,,,,,,,,,,,,,,,,,,,,,,,,,,,,,,,,,,,,,,,,,,
,,"[""period""]",0,118,0,118,0,1,609ee5fbaa3b177503e2ca88,21,Mężczyzna,2022-06-04_08h10.14.571,task,2021.1.4,Win32,59.95203837,628b806c463b948bc644b84f,629af70116b475111776c9eb,[0.053999999999973625],,,,,,,,,,,,,,,,,,,,,,,,,,,,,,,,,,,,,,,,,,,,,,,,,,,,,,,,,,,,,,,,,,,,,,,,,,,,,,,,,,,,,,,,,,,,,,,,,,,,,,,
,,"[""period""]",0,119,0,119,0,1,609ee5fbaa3b177503e2ca88,21,Mężczyzna,2022-06-04_08h10.14.571,task,2021.1.4,Win32,59.95203837,628b806c463b948bc644b84f,629af70116b475111776c9eb,[0.22100000000000364],,,,,,,,,,,,,,,,,,,,,,,,,,,,,,,,,,,,,,,,,,,,,,,,,,,,,,,,,,,,,,,,,,,,,,,,,,,,,,,,,,,,,,,,,,,,,,,,,,,,,,,
,,,,,,,,,609ee5fbaa3b177503e2ca88,21,Mężczyzna,2022-06-04_08h10.14.571,task,2021.1.4,Win32,59.95203837,628b806c463b948bc644b84f,629af70116b475111776c9eb,,space,24.882,space,12.249,0,0,0,0,1,X V Q F H G B L J M P D K C T S W R N Z,,,,,,,,,,,,,,,,,,,,,,,,,,,,,,,,,,,,,,,,,,,,,,,,,,,,,,,,,,,,,,,,,,,,,,,,,,,,,,,,,,,,,,,,,,,,,
,,,,,,,,,609ee5fbaa3b177503e2ca88,21,Mężczyzna,2022-06-04_08h10.14.571,task,2021.1.4,Win32,59.95203837,628b806c463b948bc644b84f,629af70116b475111776c9eb,,,,,,1,0,1,0,1,X V Q F H G B L J M P D K C T S W R N Z,,,,,,,,,,,,,,,,,,,,,,,,,,,,,,,,,,,,,,,,,,,,,,,,,,,,,,,,,,,,,,,,,,,,,,,,,,,,,,,,,,,,,,,,,,,,,
,,,,,,,,,609ee5fbaa3b177503e2ca88,21,Mężczyzna,2022-06-04_08h10.14.571,task,2021.1.4,Win32,59.95203837,628b806c463b948bc644b84f,629af70116b475111776c9eb,,,,,,,,,,,,zv,"[""z"",""v""]","[1.7919999999999732,2.1709999999999923,3.3460000000000036]",1,ZV,0,0,0,0,1,,,,,,,,,,,,,,,,,,,,,,,,,,,,,,,,,,,,,,,,,,,,,,,,,,,,,,,,,,,,,,,,,,,,,,,,,,,,,,,,,,,
,,,,,,,,,609ee5fbaa3b177503e2ca88,21,Mężczyzna,2022-06-04_08h10.14.571,task,2021.1.4,Win32,59.95203837,628b806c463b948bc644b84f,629af70116b475111776c9eb,,,,,,0,0,0,0,1,X V Q F H G B L J M P D K C T S W R N Z,,,,,,,,,,,,,,,,,,,,,,,,,,,,,,,,,,,,,,,,,,,,,,,,,,,,,,,,,,,,,,,,,,,,,,,,,,,,,,,,,,,,,,,,,,,,,
,,,,,,,,,609ee5fbaa3b177503e2ca88,21,Mężczyzna,2022-06-04_08h10.14.571,task,2021.1.4,Win32,59.95203837,628b806c463b948bc644b84f,629af70116b475111776c9eb,,,,,,1,0,1,0,1,X V Q F H G B L J M P D K C T S W R N Z,,,,,,,,,,,,,,,,,,,,,,,,,,,,,,,,,,,,,,,,,,,,,,,,,,,,,,,,,,,,,,,,,,,,,,,,,,,,,,,,,,,,,,,,,,,,,
,,,,,,,,,609ee5fbaa3b177503e2ca88,21,Mężczyzna,2022-06-04_08h10.14.571,task,2021.1.4,Win32,59.95203837,628b806c463b948bc644b84f,629af70116b475111776c9eb,,,,,,,,,,,,zv,"[""z"",""v""]","[2.686999999999955,3.05499999999995,3.7539999999999623]",1,ZV,1,0,1,0,1,,,,,,,,,,,,,,,,,,,,,,,,,,,,,,,,,,,,,,,,,,,,,,,,,,,,,,,,,,,,,,,,,,,,,,,,,,,,,,,,,,,
,,,,,,,,,609ee5fbaa3b177503e2ca88,21,Mężczyzna,2022-06-04_08h10.14.571,task,2021.1.4,Win32,59.95203837,628b806c463b948bc644b84f,629af70116b475111776c9eb,,,,,,0,0,0,0,1,X V Q F H G B L J M P D K C T S W R N Z,,,,,,,,,,,,,,,,,,,,,,,,,,,,,,,,,,,,,,,,,,,,,,,,,,,,,,,,,,,,,,,,,,,,,,,,,,,,,,,,,,,,,,,,,,,,,
,,,,,,,,,609ee5fbaa3b177503e2ca88,21,Mężczyzna,2022-06-04_08h10.14.571,task,2021.1.4,Win32,59.95203837,628b806c463b948bc644b84f,629af70116b475111776c9eb,,,,,,1,0,1,0,1,X V Q F H G B L J M P D K C T S W R N Z,,,,,,,,,,,,,,,,,,,,,,,,,,,,,,,,,,,,,,,,,,,,,,,,,,,,,,,,,,,,,,,,,,,,,,,,,,,,,,,,,,,,,,,,,,,,,
,,,,,,,,,609ee5fbaa3b177503e2ca88,21,Mężczyzna,2022-06-04_08h10.14.571,task,2021.1.4,Win32,59.95203837,628b806c463b948bc644b84f,629af70116b475111776c9eb,,,,,,2,0,2,0,1,X V Q F H G B L J M P D K C T S W R N Z,,,,,,,,,,,,,,,,,,,,,,,,,,,,,,,,,,,,,,,,,,,,,,,,,,,,,,,,,,,,,,,,,,,,,,,,,,,,,,,,,,,,,,,,,,,,,
,,,,,,,,,609ee5fbaa3b177503e2ca88,21,Mężczyzna,2022-06-04_08h10.14.571,task,2021.1.4,Win32,59.95203837,628b806c463b948bc644b84f,629af70116b475111776c9eb,,,,,,,,,,,,hsk,"[""h"",""s"",""k""]","[1.3430000000000177,1.488999999999976,1.684000000000026,2.165999999999997]",1,HSK,2,0,2,0,1,,,,,,,,,,,,,,,,,,,,,,,,,,,,,,,,,,,,,,,,,,,,,,,,,,,,,,,,,,,,,,,,,,,,,,,,,,,,,,,,,,,
,,,,,,,,,609ee5fbaa3b177503e2ca88,21,Mężczyzna,2022-06-04_08h10.14.571,task,2021.1.4,Win32,59.95203837,628b806c463b948bc644b84f,629af70116b475111776c9eb,,,,,,0,0,0,0,1,X V Q F H G B L J M P D K C T S W R N Z,,,,,,,,,,,,,,,,,,,,,,,,,,,,,,,,,,,,,,,,,,,,,,,,,,,,,,,,,,,,,,,,,,,,,,,,,,,,,,,,,,,,,,,,,,,,,
,,,,,,,,,609ee5fbaa3b177503e2ca88,21,Mężczyzna,2022-06-04_08h10.14.571,task,2021.1.4,Win32,59.95203837,628b806c463b948bc644b84f,629af70116b475111776c9eb,,,,,,1,0,1,0,1,X V Q F H G B L J M P D K C T S W R N Z,,,,,,,,,,,,,,,,,,,,,,,,,,,,,,,,,,,,,,,,,,,,,,,,,,,,,,,,,,,,,,,,,,,,,,,,,,,,,,,,,,,,,,,,,,,,,
,,,,,,,,,609ee5fbaa3b177503e2ca88,21,Mężczyzna,2022-06-04_08h10.14.571,task,2021.1.4,Win32,59.95203837,628b806c463b948bc644b84f,629af70116b475111776c9eb,,,,,,2,0,2,0,1,X V Q F H G B L J M P D K C T S W R N Z,,,,,,,,,,,,,,,,,,,,,,,,,,,,,,,,,,,,,,,,,,,,,,,,,,,,,,,,,,,,,,,,,,,,,,,,,,,,,,,,,,,,,,,,,,,,,
,,,,,,,,,609ee5fbaa3b177503e2ca88,21,Mężczyzna,2022-06-04_08h10.14.571,task,2021.1.4,Win32,59.95203837,628b806c463b948bc644b84f,629af70116b475111776c9eb,,,,,,,,,,,,hcj,"[""h"",""c"",""j""]","[1.0790000000000077,1.23599999999999,1.396000000000015,1.8050000000000068]",1,HCJ,3,0,3,0,1,,,,,,,,,,,,,,,,,,,,,,,,,,,,,,,,,,,,,,,,,,,,,,,,,,,,,,,,,,,,,,,,,,,,,,,,,,,,,,,,,,,
,,,,,,,,,609ee5fbaa3b177503e2ca88,21,Mężczyzna,2022-06-04_08h10.14.571,task,2021.1.4,Win32,59.95203837,628b806c463b948bc644b84f,629af70116b475111776c9eb,,,,,,0,0,0,0,1,X V Q F H G B L J M P D K C T S W R N Z,,,,,,,,,,,,,,,,,,,,,,,,,,,,,,,,,,,,,,,,,,,,,,,,,,,,,,,,,,,,,,,,,,,,,,,,,,,,,,,,,,,,,,,,,,,,,
,,,,,,,,,609ee5fbaa3b177503e2ca88,21,Mężczyzna,2022-06-04_08h10.14.571,task,2021.1.4,Win32,59.95203837,628b806c463b948bc644b84f,629af70116b475111776c9eb,,,,,,1,0,1,0,1,X V Q F H G B L J M P D K C T S W R N Z,,,,,,,,,,,,,,,,,,,,,,,,,,,,,,,,,,,,,,,,,,,,,,,,,,,,,,,,,,,,,,,,,,,,,,,,,,,,,,,,,,,,,,,,,,,,,
,,,,,,,,,609ee5fbaa3b177503e2ca88,21,Mężczyzna,2022-06-04_08h10.14.571,task,2021.1.4,Win32,59.95203837,628b806c463b948bc644b84f,629af70116b475111776c9eb,,,,,,2,0,2,0,1,X V Q F H G B L J M P D K C T S W R N Z,,,,,,,,,,,,,,,,,,,,,,,,,,,,,,,,,,,,,,,,,,,,,,,,,,,,,,,,,,,,,,,,,,,,,,,,,,,,,,,,,,,,,,,,,,,,,
,,,,,,,,,609ee5fbaa3b177503e2ca88,21,Mężczyzna,2022-06-04_08h10.14.571,task,2021.1.4,Win32,59.95203837,628b806c463b948bc644b84f,629af70116b475111776c9eb,,,,,,3,0,3,0,1,X V Q F H G B L J M P D K C T S W R N Z,,,,,,,,,,,,,,,,,,,,,,,,,,,,,,,,,,,,,,,,,,,,,,,,,,,,,,,,,,,,,,,,,,,,,,,,,,,,,,,,,,,,,,,,,,,,,
,,,,,,,,,609ee5fbaa3b177503e2ca88,21,Mężczyzna,2022-06-04_08h10.14.571,task,2021.1.4,Win32,59.95203837,628b806c463b948bc644b84f,629af70116b475111776c9eb,,,,,,,,,,,,sblt,"[""s"",""b"",""l"",""t""]","[0.8000000000000114,1.0539999999999736,1.4669999999999845,1.9279999999999973,2.173000000000002]",1,SBLT,4,0,4,0,1,,,,,,,,,,,,,,,,,,,,,,,,,,,,,,,,,,,,,,,,,,,,,,,,,,,,,,,,,,,,,,,,,,,,,,,,,,,,,,,,,,,
,,,,,,,,,609ee5fbaa3b177503e2ca88,21,Mężczyzna,2022-06-04_08h10.14.571,task,2021.1.4,Win32,59.95203837,628b806c463b948bc644b84f,629af70116b475111776c9eb,,,,,,0,0,0,0,1,X V Q F H G B L J M P D K C T S W R N Z,,,,,,,,,,,,,,,,,,,,,,,,,,,,,,,,,,,,,,,,,,,,,,,,,,,,,,,,,,,,,,,,,,,,,,,,,,,,,,,,,,,,,,,,,,,,,
,,,,,,,,,609ee5fbaa3b177503e2ca88,21,Mężczyzna,2022-06-04_08h10.14.571,task,2021.1.4,Win32,59.95203837,628b806c463b948bc644b84f,629af70116b475111776c9eb,,,,,,1,0,1,0,1,X V Q F H G B L J M P D K C T S W R N Z,,,,,,,,,,,,,,,,,,,,,,,,,,,,,,,,,,,,,,,,,,,,,,,,,,,,,,,,,,,,,,,,,,,,,,,,,,,,,,,,,,,,,,,,,,,,,
,,,,,,,,,609ee5fbaa3b177503e2ca88,21,Mężczyzna,2022-06-04_08h10.14.571,task,2021.1.4,Win32,59.95203837,628b806c463b948bc644b84f,629af70116b475111776c9eb,,,,,,2,0,2,0,1,X V Q F H G B L J M P D K C T S W R N Z,,,,,,,,,,,,,,,,,,,,,,,,,,,,,,,,,,,,,,,,,,,,,,,,,,,,,,,,,,,,,,,,,,,,,,,,,,,,,,,,,,,,,,,,,,,,,
,,,,,,,,,609ee5fbaa3b177503e2ca88,21,Mężczyzna,2022-06-04_08h10.14.571,task,2021.1.4,Win32,59.95203837,628b806c463b948bc644b84f,629af70116b475111776c9eb,,,,,,3,0,3,0,1,X V Q F H G B L J M P D K C T S W R N Z,,,,,,,,,,,,,,,,,,,,,,,,,,,,,,,,,,,,,,,,,,,,,,,,,,,,,,,,,,,,,,,,,,,,,,,,,,,,,,,,,,,,,,,,,,,,,
,,,,,,,,,609ee5fbaa3b177503e2ca88,21,Mężczyzna,2022-06-04_08h10.14.571,task,2021.1.4,Win32,59.95203837,628b806c463b948bc644b84f,629af70116b475111776c9eb,,,,,,,,,,,,pkxk,"[""p"",""k"",""x"",""k""]","[1.4019999999999868,1.6549999999999727,2.091000000000008,4.133999999999958,4.9010000000000105]",0,PKXD,5,0,5,0,1,,,,,,,,,,,,,,,,,,,,,,,,,,,,,,,,,,,,,,,,,,,,,,,,,,,,,,,,,,,,,,,,,,,,,,,,,,,,,,,,,,,
,,,,,,,,,609ee5fbaa3b177503e2ca88,21,Mężczyzna,2022-06-04_08h10.14.571,task,2021.1.4,Win32,59.95203837,628b806c463b948bc644b84f,629af70116b475111776c9eb,,,,,,0,0,0,0,1,X V Q F H G B L J M P D K C T S W R N Z,,,,,,,,,,,,,,,,,,,,,,,,,,,,,,,,,,,,,,,,,,,,,,,,,,,,,,,,,,,,,,,,,,,,,,,,,,,,,,,,,,,,,,,,,,,,,
,,,,,,,,,609ee5fbaa3b177503e2ca88,21,Mężczyzna,2022-06-04_08h10.14.571,task,2021.1.4,Win32,59.95203837,628b806c463b948bc644b84f,629af70116b475111776c9eb,,,,,,1,0,1,0,1,X V Q F H G B L J M P D K C T S W R N Z,,,,,,,,,,,,,,,,,,,,,,,,,,,,,,,,,,,,,,,,,,,,,,,,,,,,,,,,,,,,,,,,,,,,,,,,,,,,,,,,,,,,,,,,,,,,,
,,,,,,,,,609ee5fbaa3b177503e2ca88,21,Mężczyzna,2022-06-04_08h10.14.571,task,2021.1.4,Win32,59.95203837,628b806c463b948bc644b84f,629af70116b475111776c9eb,,,,,,2,0,2,0,1,X V Q F H G B L J M P D K C T S W R N Z,,,,,,,,,,,,,,,,,,,,,,,,,,,,,,,,,,,,,,,,,,,,,,,,,,,,,,,,,,,,,,,,,,,,,,,,,,,,,,,,,,,,,,,,,,,,,
,,,,,,,,,609ee5fbaa3b177503e2ca88,21,Mężczyzna,2022-06-04_08h10.14.571,task,2021.1.4,Win32,59.95203837,628b806c463b948bc644b84f,629af70116b475111776c9eb,,,,,,3,0,3,0,1,X V Q F H G B L J M P D K C T S W R N Z,,,,,,,,,,,,,,,,,,,,,,,,,,,,,,,,,,,,,,,,,,,,,,,,,,,,,,,,,,,,,,,,,,,,,,,,,,,,,,,,,,,,,,,,,,,,,
,,,,,,,,,609ee5fbaa3b177503e2ca88,21,Mężczyzna,2022-06-04_08h10.14.571,task,2021.1.4,Win32,59.95203837,628b806c463b948bc644b84f,629af70116b475111776c9eb,,,,,,,,,,,,hkbl,"[""h"",""k"",""b"",""l""]","[1.9099999999999682,2.204999999999984,2.7280000000000086,3.0369999999999777,3.4780000000000086]",1,HKBL,6,0,6,0,1,,,,,,,,,,,,,,,,,,,,,,,,,,,,,,,,,,,,,,,,,,,,,,,,,,,,,,,,,,,,,,,,,,,,,,,,,,,,,,,,,,,
,,,,,,,,,609ee5fbaa3b177503e2ca88,21,Mężczyzna,2022-06-04_08h10.14.571,task,2021.1.4,Win32,59.95203837,628b806c463b948bc644b84f,629af70116b475111776c9eb,,,,,,0,0,0,0,1,X V Q F H G B L J M P D K C T S W R N Z,,,,,,,,,,,,,,,,,,,,,,,,,,,,,,,,,,,,,,,,,,,,,,,,,,,,,,,,,,,,,,,,,,,,,,,,,,,,,,,,,,,,,,,,,,,,,
,,,,,,,,,609ee5fbaa3b177503e2ca88,21,Mężczyzna,2022-06-04_08h10.14.571,task,2021.1.4,Win32,59.95203837,628b806c463b948bc644b84f,629af70116b475111776c9eb,,,,,,1,0,1,0,1,X V Q F H G B L J M P D K C T S W R N Z,,,,,,,,,,,,,,,,,,,,,,,,,,,,,,,,,,,,,,,,,,,,,,,,,,,,,,,,,,,,,,,,,,,,,,,,,,,,,,,,,,,,,,,,,,,,,
,,,,,,,,,609ee5fbaa3b177503e2ca88,21,Mężczyzna,2022-06-04_08h10.14.571,task,2021.1.4,Win32,59.95203837,628b806c463b948bc644b84f,629af70116b475111776c9eb,,,,,,2,0,2,0,1,X V Q F H G B L J M P D K C T S W R N Z,,,,,,,,,,,,,,,,,,,,,,,,,,,,,,,,,,,,,,,,,,,,,,,,,,,,,,,,,,,,,,,,,,,,,,,,,,,,,,,,,,,,,,,,,,,,,
,,,,,,,,,609ee5fbaa3b177503e2ca88,21,Mężczyzna,2022-06-04_08h10.14.571,task,2021.1.4,Win32,59.95203837,628b806c463b948bc644b84f,629af70116b475111776c9eb,,,,,,3,0,3,0,1,X V Q F H G B L J M P D K C T S W R N Z,,,,,,,,,,,,,,,,,,,,,,,,,,,,,,,,,,,,,,,,,,,,,,,,,,,,,,,,,,,,,,,,,,,,,,,,,,,,,,,,,,,,,,,,,,,,,
,,,,,,,,,609ee5fbaa3b177503e2ca88,21,Mężczyzna,2022-06-04_08h10.14.571,task,2021.1.4,Win32,59.95203837,628b806c463b948bc644b84f,629af70116b475111776c9eb,,,,,,4,0,4,0,1,X V Q F H G B L J M P D K C T S W R N Z,,,,,,,,,,,,,,,,,,,,,,,,,,,,,,,,,,,,,,,,,,,,,,,,,,,,,,,,,,,,,,,,,,,,,,,,,,,,,,,,,,,,,,,,,,,,,
,,,,,,,,,609ee5fbaa3b177503e2ca88,21,Mężczyzna,2022-06-04_08h10.14.571,task,2021.1.4,Win32,59.95203837,628b806c463b948bc644b84f,629af70116b475111776c9eb,,,,,,,,,,,,vhkbs,"[""v"",""h"",""k"",""b"",""s""]","[2.415999999999997,2.8729999999999905,3.472000000000037,4.016999999999996,4.4669999999999845,4.920999999999992]",0,VKGHS,7,0,7,0,1,,,,,,,,,,,,,,,,,,,,,,,,,,,,,,,,,,,,,,,,,,,,,,,,,,,,,,,,,,,,,,,,,,,,,,,,,,,,,,,,,,,
,,,,,,,,,609ee5fbaa3b177503e2ca88,21,Mężczyzna,2022-06-04_08h10.14.571,task,2021.1.4,Win32,59.95203837,628b806c463b948bc644b84f,629af70116b475111776c9eb,,,,,,0,0,0,0,1,X V Q F H G B L J M P D K C T S W R N Z,,,,,,,,,,,,,,,,,,,,,,,,,,,,,,,,,,,,,,,,,,,,,,,,,,,,,,,,,,,,,,,,,,,,,,,,,,,,,,,,,,,,,,,,,,,,,
,,,,,,,,,609ee5fbaa3b177503e2ca88,21,Mężczyzna,2022-06-04_08h10.14.571,task,2021.1.4,Win32,59.95203837,628b806c463b948bc644b84f,629af70116b475111776c9eb,,,,,,1,0,1,0,1,X V Q F H G B L J M P D K C T S W R N Z,,,,,,,,,,,,,,,,,,,,,,,,,,,,,,,,,,,,,,,,,,,,,,,,,,,,,,,,,,,,,,,,,,,,,,,,,,,,,,,,,,,,,,,,,,,,,
,,,,,,,,,609ee5fbaa3b177503e2ca88,21,Mężczyzna,2022-06-04_08h10.14.571,task,2021.1.4,Win32,59.95203837,628b806c463b948bc644b84f,629af70116b475111776c9eb,,,,,,2,0,2,0,1,X V Q F H G B L J M P D K C T S W R N Z,,,,,,,,,,,,,,,,,,,,,,,,,,,,,,,,,,,,,,,,,,,,,,,,,,,,,,,,,,,,,,,,,,,,,,,,,,,,,,,,,,,,,,,,,,,,,
,,,,,,,,,609ee5fbaa3b177503e2ca88,21,Mężczyzna,2022-06-04_08h10.14.571,task,2021.1.4,Win32,59.95203837,628b806c463b948bc644b84f,629af70116b475111776c9eb,,,,,,3,0,3,0,1,X V Q F H G B L J M P D K C T S W R N Z,,,,,,,,,,,,,,,,,,,,,,,,,,,,,,,,,,,,,,,,,,,,,,,,,,,,,,,,,,,,,,,,,,,,,,,,,,,,,,,,,,,,,,,,,,,,,
,,,,,,,,,609ee5fbaa3b177503e2ca88,21,Mężczyzna,2022-06-04_08h10.14.571,task,2021.1.4,Win32,59.95203837,628b806c463b948bc644b84f,629af70116b475111776c9eb,,,,,,4,0,4,0,1,X V Q F H G B L J M P D K C T S W R N Z,,,,,,,,,,,,,,,,,,,,,,,,,,,,,,,,,,,,,,,,,,,,,,,,,,,,,,,,,,,,,,,,,,,,,,,,,,,,,,,,,,,,,,,,,,,,,
,,,,,,,,,609ee5fbaa3b177503e2ca88,21,Mężczyzna,2022-06-04_08h10.14.571,task,2021.1.4,Win32,59.95203837,628b806c463b948bc644b84f,629af70116b475111776c9eb,,,,,,,,,,,,jzsjt,"[""j"",""z"",""s"",""j"",""t""]","[1.259999999999991,1.5339999999999918,2.1189999999999714,2.47199999999998,2.8170000000000073,3.335999999999956]",1,JZSJT,8,0,8,0,1,,,,,,,,,,,,,,,,,,,,,,,,,,,,,,,,,,,,,,,,,,,,,,,,,,,,,,,,,,,,,,,,,,,,,,,,,,,,,,,,,,,
,,,,,,,,,609ee5fbaa3b177503e2ca88,21,Mężczyzna,2022-06-04_08h10.14.571,task,2021.1.4,Win32,59.95203837,628b806c463b948bc644b84f,629af70116b475111776c9eb,,,,,,0,0,0,0,1,X V Q F H G B L J M P D K C T S W R N Z,,,,,,,,,,,,,,,,,,,,,,,,,,,,,,,,,,,,,,,,,,,,,,,,,,,,,,,,,,,,,,,,,,,,,,,,,,,,,,,,,,,,,,,,,,,,,
,,,,,,,,,609ee5fbaa3b177503e2ca88,21,Mężczyzna,2022-06-04_08h10.14.571,task,2021.1.4,Win32,59.95203837,628b806c463b948bc644b84f,629af70116b475111776c9eb,,,,,,1,0,1,0,1,X V Q F H G B L J M P D K C T S W R N Z,,,,,,,,,,,,,,,,,,,,,,,,,,,,,,,,,,,,,,,,,,,,,,,,,,,,,,,,,,,,,,,,,,,,,,,,,,,,,,,,,,,,,,,,,,,,,
,,,,,,,,,609ee5fbaa3b177503e2ca88,21,Mężczyzna,2022-06-04_08h10.14.571,task,2021.1.4,Win32,59.95203837,628b806c463b948bc644b84f,629af70116b475111776c9eb,,,,,,2,0,2,0,1,X V Q F H G B L J M P D K C T S W R N Z,,,,,,,,,,,,,,,,,,,,,,,,,,,,,,,,,,,,,,,,,,,,,,,,,,,,,,,,,,,,,,,,,,,,,,,,,,,,,,,,,,,,,,,,,,,,,
,,,,,,,,,609ee5fbaa3b177503e2ca88,21,Mężczyzna,2022-06-04_08h10.14.571,task,2021.1.4,Win32,59.95203837,628b806c463b948bc644b84f,629af70116b475111776c9eb,,,,,,3,0,3,0,1,X V Q F H G B L J M P D K C T S W R N Z,,,,,,,,,,,,,,,,,,,,,,,,,,,,,,,,,,,,,,,,,,,,,,,,,,,,,,,,,,,,,,,,,,,,,,,,,,,,,,,,,,,,,,,,,,,,,
,,,,,,,,,609ee5fbaa3b177503e2ca88,21,Mężczyzna,2022-06-04_08h10.14.571,task,2021.1.4,Win32,59.95203837,628b806c463b948bc644b84f,629af70116b475111776c9eb,,,,,,4,0,4,0,1,X V Q F H G B L J M P D K C T S W R N Z,,,,,,,,,,,,,,,,,,,,,,,,,,,,,,,,,,,,,,,,,,,,,,,,,,,,,,,,,,,,,,,,,,,,,,,,,,,,,,,,,,,,,,,,,,,,,
,,,,,,,,,609ee5fbaa3b177503e2ca88,21,Mężczyzna,2022-06-04_08h10.14.571,task,2021.1.4,Win32,59.95203837,628b806c463b948bc644b84f,629af70116b475111776c9eb,,,,,,,,,,,,jnjnb,"[""j"",""n"",""j"",""n"",""b""]","[1.4180000000000064,1.738999999999976,2.099999999999966,2.4540000000000077,3.1409999999999627,3.8999999999999773]",1,JNJNB,9,0,9,0,1,,,,,,,,,,,,,,,,,,,,,,,,,,,,,,,,,,,,,,,,,,,,,,,,,,,,,,,,,,,,,,,,,,,,,,,,,,,,,,,,,,,
,,,,,,,,,609ee5fbaa3b177503e2ca88,21,Mężczyzna,2022-06-04_08h10.14.571,task,2021.1.4,Win32,59.95203837,628b806c463b948bc644b84f,629af70116b475111776c9eb,,,,,,0,0,0,0,1,X V Q F H G B L J M P D K C T S W R N Z,,,,,,,,,,,,,,,,,,,,,,,,,,,,,,,,,,,,,,,,,,,,,,,,,,,,,,,,,,,,,,,,,,,,,,,,,,,,,,,,,,,,,,,,,,,,,
,,,,,,,,,609ee5fbaa3b177503e2ca88,21,Mężczyzna,2022-06-04_08h10.14.571,task,2021.1.4,Win32,59.95203837,628b806c463b948bc644b84f,629af70116b475111776c9eb,,,,,,1,0,1,0,1,X V Q F H G B L J M P D K C T S W R N Z,,,,,,,,,,,,,,,,,,,,,,,,,,,,,,,,,,,,,,,,,,,,,,,,,,,,,,,,,,,,,,,,,,,,,,,,,,,,,,,,,,,,,,,,,,,,,
,,,,,,,,,609ee5fbaa3b177503e2ca88,21,Mężczyzna,2022-06-04_08h10.14.571,task,2021.1.4,Win32,59.95203837,628b806c463b948bc644b84f,629af70116b475111776c9eb,,,,,,2,0,2,0,1,X V Q F H G B L J M P D K C T S W R N Z,,,,,,,,,,,,,,,,,,,,,,,,,,,,,,,,,,,,,,,,,,,,,,,,,,,,,,,,,,,,,,,,,,,,,,,,,,,,,,,,,,,,,,,,,,,,,
,,,,,,,,,609ee5fbaa3b177503e2ca88,21,Mężczyzna,2022-06-04_08h10.14.571,task,2021.1.4,Win32,59.95203837,628b806c463b948bc644b84f,629af70116b475111776c9eb,,,,,,3,0,3,0,1,X V Q F H G B L J M P D K C T S W R N Z,,,,,,,,,,,,,,,,,,,,,,,,,,,,,,,,,,,,,,,,,,,,,,,,,,,,,,,,,,,,,,,,,,,,,,,,,,,,,,,,,,,,,,,,,,,,,
,,,,,,,,,609ee5fbaa3b177503e2ca88,21,Mężczyzna,2022-06-04_08h10.14.571,task,2021.1.4,Win32,59.95203837,628b806c463b948bc644b84f,629af70116b475111776c9eb,,,,,,4,0,4,0,1,X V Q F H G B L J M P D K C T S W R N Z,,,,,,,,,,,,,,,,,,,,,,,,,,,,,,,,,,,,,,,,,,,,,,,,,,,,,,,,,,,,,,,,,,,,,,,,,,,,,,,,,,,,,,,,,,,,,
,,,,,,,,,609ee5fbaa3b177503e2ca88,21,Mężczyzna,2022-06-04_08h10.14.571,task,2021.1.4,Win32,59.95203837,628b806c463b948bc644b84f,629af70116b475111776c9eb,,,,,,5,0,5,0,1,X V Q F H G B L J M P D K C T S W R N Z,,,,,,,,,,,,,,,,,,,,,,,,,,,,,,,,,,,,,,,,,,,,,,,,,,,,,,,,,,,,,,,,,,,,,,,,,,,,,,,,,,,,,,,,,,,,,
,,,,,,,,,609ee5fbaa3b177503e2ca88,21,Mężczyzna,2022-06-04_08h10.14.571,task,2021.1.4,Win32,59.95203837,628b806c463b948bc644b84f,629af70116b475111776c9eb,,,,,,,,,,,,bwgtnw,"[""b"",""w"",""g"",""t"",""n"",""w""]","[1.5830000000000268,1.8700000000000045,2.1410000000000196,2.4220000000000255,2.91700000000003,3.108000000000004,3.4390000000000214]",1,BWGTNW,10,0,10,0,1,,,,,,,,,,,,,,,,,,,,,,,,,,,,,,,,,,,,,,,,,,,,,,,,,,,,,,,,,,,,,,,,,,,,,,,,,,,,,,,,,,,
,,,,,,,,,609ee5fbaa3b177503e2ca88,21,Mężczyzna,2022-06-04_08h10.14.571,task,2021.1.4,Win32,59.95203837,628b806c463b948bc644b84f,629af70116b475111776c9eb,,,,,,0,0,0,0,1,X V Q F H G B L J M P D K C T S W R N Z,,,,,,,,,,,,,,,,,,,,,,,,,,,,,,,,,,,,,,,,,,,,,,,,,,,,,,,,,,,,,,,,,,,,,,,,,,,,,,,,,,,,,,,,,,,,,
,,,,,,,,,609ee5fbaa3b177503e2ca88,21,Mężczyzna,2022-06-04_08h10.14.571,task,2021.1.4,Win32,59.95203837,628b806c463b948bc644b84f,629af70116b475111776c9eb,,,,,,1,0,1,0,1,X V Q F H G B L J M P D K C T S W R N Z,,,,,,,,,,,,,,,,,,,,,,,,,,,,,,,,,,,,,,,,,,,,,,,,,,,,,,,,,,,,,,,,,,,,,,,,,,,,,,,,,,,,,,,,,,,,,
,,,,,,,,,609ee5fbaa3b177503e2ca88,21,Mężczyzna,2022-06-04_08h10.14.571,task,2021.1.4,Win32,59.95203837,628b806c463b948bc644b84f,629af70116b475111776c9eb,,,,,,2,0,2,0,1,X V Q F H G B L J M P D K C T S W R N Z,,,,,,,,,,,,,,,,,,,,,,,,,,,,,,,,,,,,,,,,,,,,,,,,,,,,,,,,,,,,,,,,,,,,,,,,,,,,,,,,,,,,,,,,,,,,,
,,,,,,,,,609ee5fbaa3b177503e2ca88,21,Mężczyzna,2022-06-04_08h10.14.571,task,2021.1.4,Win32,59.95203837,628b806c463b948bc644b84f,629af70116b475111776c9eb,,,,,,3,0,3,0,1,X V Q F H G B L J M P D K C T S W R N Z,,,,,,,,,,,,,,,,,,,,,,,,,,,,,,,,,,,,,,,,,,,,,,,,,,,,,,,,,,,,,,,,,,,,,,,,,,,,,,,,,,,,,,,,,,,,,
,,,,,,,,,609ee5fbaa3b177503e2ca88,21,Mężczyzna,2022-06-04_08h10.14.571,task,2021.1.4,Win32,59.95203837,628b806c463b948bc644b84f,629af70116b475111776c9eb,,,,,,4,0,4,0,1,X V Q F H G B L J M P D K C T S W R N Z,,,,,,,,,,,,,,,,,,,,,,,,,,,,,,,,,,,,,,,,,,,,,,,,,,,,,,,,,,,,,,,,,,,,,,,,,,,,,,,,,,,,,,,,,,,,,
,,,,,,,,,609ee5fbaa3b177503e2ca88,21,Mężczyzna,2022-06-04_08h10.14.571,task,2021.1.4,Win32,59.95203837,628b806c463b948bc644b84f,629af70116b475111776c9eb,,,,,,5,0,5,0,1,X V Q F H G B L J M P D K C T S W R N Z,,,,,,,,,,,,,,,,,,,,,,,,,,,,,,,,,,,,,,,,,,,,,,,,,,,,,,,,,,,,,,,,,,,,,,,,,,,,,,,,,,,,,,,,,,,,,
,,,,,,,,,609ee5fbaa3b177503e2ca88,21,Mężczyzna,2022-06-04_08h10.14.571,task,2021.1.4,Win32,59.95203837,628b806c463b948bc644b84f,629af70116b475111776c9eb,,,,,,,,,,,,kwgxrl,"[""k"",""w"",""g"",""x"",""r"",""l""]","[2.599999999999966,2.877999999999986,3.166999999999973,3.7169999999999845,4.250999999999976,4.4669999999999845,4.911000000000001]",1,KWGXRL,11,0,11,0,1,,,,,,,,,,,,,,,,,,,,,,,,,,,,,,,,,,,,,,,,,,,,,,,,,,,,,,,,,,,,,,,,,,,,,,,,,,,,,,,,,,,
,,,,,,,,,609ee5fbaa3b177503e2ca88,21,Mężczyzna,2022-06-04_08h10.14.571,task,2021.1.4,Win32,59.95203837,628b806c463b948bc644b84f,629af70116b475111776c9eb,,,,,,0,0,0,0,1,X V Q F H G B L J M P D K C T S W R N Z,,,,,,,,,,,,,,,,,,,,,,,,,,,,,,,,,,,,,,,,,,,,,,,,,,,,,,,,,,,,,,,,,,,,,,,,,,,,,,,,,,,,,,,,,,,,,
,,,,,,,,,609ee5fbaa3b177503e2ca88,21,Mężczyzna,2022-06-04_08h10.14.571,task,2021.1.4,Win32,59.95203837,628b806c463b948bc644b84f,629af70116b475111776c9eb,,,,,,1,0,1,0,1,X V Q F H G B L J M P D K C T S W R N Z,,,,,,,,,,,,,,,,,,,,,,,,,,,,,,,,,,,,,,,,,,,,,,,,,,,,,,,,,,,,,,,,,,,,,,,,,,,,,,,,,,,,,,,,,,,,,
,,,,,,,,,609ee5fbaa3b177503e2ca88,21,Mężczyzna,2022-06-04_08h10.14.571,task,2021.1.4,Win32,59.95203837,628b806c463b948bc644b84f,629af70116b475111776c9eb,,,,,,2,0,2,0,1,X V Q F H G B L J M P D K C T S W R N Z,,,,,,,,,,,,,,,,,,,,,,,,,,,,,,,,,,,,,,,,,,,,,,,,,,,,,,,,,,,,,,,,,,,,,,,,,,,,,,,,,,,,,,,,,,,,,
,,,,,,,,,609ee5fbaa3b177503e2ca88,21,Mężczyzna,2022-06-04_08h10.14.571,task,2021.1.4,Win32,59.95203837,628b806c463b948bc644b84f,629af70116b475111776c9eb,,,,,,3,0,3,0,1,X V Q F H G B L J M P D K C T S W R N Z,,,,,,,,,,,,,,,,,,,,,,,,,,,,,,,,,,,,,,,,,,,,,,,,,,,,,,,,,,,,,,,,,,,,,,,,,,,,,,,,,,,,,,,,,,,,,
,,,,,,,,,609ee5fbaa3b177503e2ca88,21,Mężczyzna,2022-06-04_08h10.14.571,task,2021.1.4,Win32,59.95203837,628b806c463b948bc644b84f,629af70116b475111776c9eb,,,,,,4,0,4,0,1,X V Q F H G B L J M P D K C T S W R N Z,,,,,,,,,,,,,,,,,,,,,,,,,,,,,,,,,,,,,,,,,,,,,,,,,,,,,,,,,,,,,,,,,,,,,,,,,,,,,,,,,,,,,,,,,,,,,
,,,,,,,,,609ee5fbaa3b177503e2ca88,21,Mężczyzna,2022-06-04_08h10.14.571,task,2021.1.4,Win32,59.95203837,628b806c463b948bc644b84f,629af70116b475111776c9eb,,,,,,5,0,5,0,1,X V Q F H G B L J M P D K C T S W R N Z,,,,,,,,,,,,,,,,,,,,,,,,,,,,,,,,,,,,,,,,,,,,,,,,,,,,,,,,,,,,,,,,,,,,,,,,,,,,,,,,,,,,,,,,,,,,,
,,,,,,,,,609ee5fbaa3b177503e2ca88,21,Mężczyzna,2022-06-04_08h10.14.571,task,2021.1.4,Win32,59.95203837,628b806c463b948bc644b84f,629af70116b475111776c9eb,,,,,,6,0,6,0,1,X V Q F H G B L J M P D K C T S W R N Z,,,,,,,,,,,,,,,,,,,,,,,,,,,,,,,,,,,,,,,,,,,,,,,,,,,,,,,,,,,,,,,,,,,,,,,,,,,,,,,,,,,,,,,,,,,,,
,,,,,,,,,609ee5fbaa3b177503e2ca88,21,Mężczyzna,2022-06-04_08h10.14.571,task,2021.1.4,Win32,59.95203837,628b806c463b948bc644b84f,629af70116b475111776c9eb,,,,,,,,,,,,swxwstj,"[""s"",""w"",""x"",""w"",""s"",""t"",""j""]","[2.475999999999999,2.8700000000000045,3.2770000000000437,4.173000000000002,4.453000000000031,4.735000000000014,5.1580000000000155,5.584000000000003]",0,SFXWSTJ,12,0,12,0,1,,,,,,,,,,,,,,,,,,,,,,,,,,,,,,,,,,,,,,,,,,,,,,,,,,,,,,,,,,,,,,,,,,,,,,,,,,,,,,,,,,,
,,,,,,,,,609ee5fbaa3b177503e2ca88,21,Mężczyzna,2022-06-04_08h10.14.571,task,2021.1.4,Win32,59.95203837,628b806c463b948bc644b84f,629af70116b475111776c9eb,,,,,,0,0,0,0,1,X V Q F H G B L J M P D K C T S W R N Z,,,,,,,,,,,,,,,,,,,,,,,,,,,,,,,,,,,,,,,,,,,,,,,,,,,,,,,,,,,,,,,,,,,,,,,,,,,,,,,,,,,,,,,,,,,,,
,,,,,,,,,609ee5fbaa3b177503e2ca88,21,Mężczyzna,2022-06-04_08h10.14.571,task,2021.1.4,Win32,59.95203837,628b806c463b948bc644b84f,629af70116b475111776c9eb,,,,,,1,0,1,0,1,X V Q F H G B L J M P D K C T S W R N Z,,,,,,,,,,,,,,,,,,,,,,,,,,,,,,,,,,,,,,,,,,,,,,,,,,,,,,,,,,,,,,,,,,,,,,,,,,,,,,,,,,,,,,,,,,,,,
,,,,,,,,,609ee5fbaa3b177503e2ca88,21,Mężczyzna,2022-06-04_08h10.14.571,task,2021.1.4,Win32,59.95203837,628b806c463b948bc644b84f,629af70116b475111776c9eb,,,,,,2,0,2,0,1,X V Q F H G B L J M P D K C T S W R N Z,,,,,,,,,,,,,,,,,,,,,,,,,,,,,,,,,,,,,,,,,,,,,,,,,,,,,,,,,,,,,,,,,,,,,,,,,,,,,,,,,,,,,,,,,,,,,
,,,,,,,,,609ee5fbaa3b177503e2ca88,21,Mężczyzna,2022-06-04_08h10.14.571,task,2021.1.4,Win32,59.95203837,628b806c463b948bc644b84f,629af70116b475111776c9eb,,,,,,3,0,3,0,1,X V Q F H G B L J M P D K C T S W R N Z,,,,,,,,,,,,,,,,,,,,,,,,,,,,,,,,,,,,,,,,,,,,,,,,,,,,,,,,,,,,,,,,,,,,,,,,,,,,,,,,,,,,,,,,,,,,,
,,,,,,,,,609ee5fbaa3b177503e2ca88,21,Mężczyzna,2022-06-04_08h10.14.571,task,2021.1.4,Win32,59.95203837,628b806c463b948bc644b84f,629af70116b475111776c9eb,,,,,,4,0,4,0,1,X V Q F H G B L J M P D K C T S W R N Z,,,,,,,,,,,,,,,,,,,,,,,,,,,,,,,,,,,,,,,,,,,,,,,,,,,,,,,,,,,,,,,,,,,,,,,,,,,,,,,,,,,,,,,,,,,,,
,,,,,,,,,609ee5fbaa3b177503e2ca88,21,Mężczyzna,2022-06-04_08h10.14.571,task,2021.1.4,Win32,59.95203837,628b806c463b948bc644b84f,629af70116b475111776c9eb,,,,,,5,0,5,0,1,X V Q F H G B L J M P D K C T S W R N Z,,,,,,,,,,,,,,,,,,,,,,,,,,,,,,,,,,,,,,,,,,,,,,,,,,,,,,,,,,,,,,,,,,,,,,,,,,,,,,,,,,,,,,,,,,,,,
,,,,,,,,,609ee5fbaa3b177503e2ca88,21,Mężczyzna,2022-06-04_08h10.14.571,task,2021.1.4,Win32,59.95203837,628b806c463b948bc644b84f,629af70116b475111776c9eb,,,,,,6,0,6,0,1,X V Q F H G B L J M P D K C T S W R N Z,,,,,,,,,,,,,,,,,,,,,,,,,,,,,,,,,,,,,,,,,,,,,,,,,,,,,,,,,,,,,,,,,,,,,,,,,,,,,,,,,,,,,,,,,,,,,
,,,,,,,,,609ee5fbaa3b177503e2ca88,21,Mężczyzna,2022-06-04_08h10.14.571,task,2021.1.4,Win32,59.95203837,628b806c463b948bc644b84f,629af70116b475111776c9eb,,,,,,,,,,,,qfktlb,"[""q"",""f"",""k"",""t"",""l"",""b""]","[1.1270000000000095,1.4350000000000023,1.77800000000002,3.812000000000012,4.817000000000007,5.324999999999989,5.774999999999977]",0,QFKTBLD,13,0,13,0,1,,,,,,,,,,,,,,,,,,,,,,,,,,,,,,,,,,,,,,,,,,,,,,,,,,,,,,,,,,,,,,,,,,,,,,,,,,,,,,,,,,,
,,,,,,,,,609ee5fbaa3b177503e2ca88,21,Mężczyzna,2022-06-04_08h10.14.571,task,2021.1.4,Win32,59.95203837,628b806c463b948bc644b84f,629af70116b475111776c9eb,,,,,,0,0,0,0,1,X V Q F H G B L J M P D K C T S W R N Z,,,,,,,,,,,,,,,,,,,,,,,,,,,,,,,,,,,,,,,,,,,,,,,,,,,,,,,,,,,,,,,,,,,,,,,,,,,,,,,,,,,,,,,,,,,,,
,,,,,,,,,609ee5fbaa3b177503e2ca88,21,Mężczyzna,2022-06-04_08h10.14.571,task,2021.1.4,Win32,59.95203837,628b806c463b948bc644b84f,629af70116b475111776c9eb,,,,,,1,0,1,0,1,X V Q F H G B L J M P D K C T S W R N Z,,,,,,,,,,,,,,,,,,,,,,,,,,,,,,,,,,,,,,,,,,,,,,,,,,,,,,,,,,,,,,,,,,,,,,,,,,,,,,,,,,,,,,,,,,,,,
,,,,,,,,,609ee5fbaa3b177503e2ca88,21,Mężczyzna,2022-06-04_08h10.14.571,task,2021.1.4,Win32,59.95203837,628b806c463b948bc644b84f,629af70116b475111776c9eb,,,,,,2,0,2,0,1,X V Q F H G B L J M P D K C T S W R N Z,,,,,,,,,,,,,,,,,,,,,,,,,,,,,,,,,,,,,,,,,,,,,,,,,,,,,,,,,,,,,,,,,,,,,,,,,,,,,,,,,,,,,,,,,,,,,
,,,,,,,,,609ee5fbaa3b177503e2ca88,21,Mężczyzna,2022-06-04_08h10.14.571,task,2021.1.4,Win32,59.95203837,628b806c463b948bc644b84f,629af70116b475111776c9eb,,,,,,3,0,3,0,1,X V Q F H G B L J M P D K C T S W R N Z,,,,,,,,,,,,,,,,,,,,,,,,,,,,,,,,,,,,,,,,,,,,,,,,,,,,,,,,,,,,,,,,,,,,,,,,,,,,,,,,,,,,,,,,,,,,,
,,,,,,,,,609ee5fbaa3b177503e2ca88,21,Mężczyzna,2022-06-04_08h10.14.571,task,2021.1.4,Win32,59.95203837,628b806c463b948bc644b84f,629af70116b475111776c9eb,,,,,,4,0,4,0,1,X V Q F H G B L J M P D K C T S W R N Z,,,,,,,,,,,,,,,,,,,,,,,,,,,,,,,,,,,,,,,,,,,,,,,,,,,,,,,,,,,,,,,,,,,,,,,,,,,,,,,,,,,,,,,,,,,,,
,,,,,,,,,609ee5fbaa3b177503e2ca88,21,Mężczyzna,2022-06-04_08h10.14.571,task,2021.1.4,Win32,59.95203837,628b806c463b948bc644b84f,629af70116b475111776c9eb,,,,,,5,0,5,0,1,X V Q F H G B L J M P D K C T S W R N Z,,,,,,,,,,,,,,,,,,,,,,,,,,,,,,,,,,,,,,,,,,,,,,,,,,,,,,,,,,,,,,,,,,,,,,,,,,,,,,,,,,,,,,,,,,,,,
,,,,,,,,,609ee5fbaa3b177503e2ca88,21,Mężczyzna,2022-06-04_08h10.14.571,task,2021.1.4,Win32,59.95203837,628b806c463b948bc644b84f,629af70116b475111776c9eb,,,,,,6,0,6,0,1,X V Q F H G B L J M P D K C T S W R N Z,,,,,,,,,,,,,,,,,,,,,,,,,,,,,,,,,,,,,,,,,,,,,,,,,,,,,,,,,,,,,,,,,,,,,,,,,,,,,,,,,,,,,,,,,,,,,
,,,,,,,,,609ee5fbaa3b177503e2ca88,21,Mężczyzna,2022-06-04_08h10.14.571,task,2021.1.4,Win32,59.95203837,628b806c463b948bc644b84f,629af70116b475111776c9eb,,,,,,,,,,,,vvqnstv,"[""v"",""v"",""q"",""n"",""s"",""t"",""v""]","[1.0339999999999918,1.3109999999999786,1.7440000000000282,2.1510000000000105,2.5509999999999877,2.9259999999999877,3.319999999999993,3.8349999999999795]",0,VVQNSDV,14,0,14,0,1,,,,,,,,,,,,,,,,,,,,,,,,,,,,,,,,,,,,,,,,,,,,,,,,,,,,,,,,,,,,,,,,,,,,,,,,,,,,,,,,,,,
,,,,,,,,,609ee5fbaa3b177503e2ca88,21,Mężczyzna,2022-06-04_08h10.14.571,task,2021.1.4,Win32,59.95203837,628b806c463b948bc644b84f,629af70116b475111776c9eb,,,,,,,,,,,,,,,,,,,,,,space,5.92,9,"[""9""]",1,[7.140999999999963],[7.140999999999963],0,0,0,9,1,Practice,10,(20/2) - 1,9,,,,,,,,,,,,,,,,,,,,,,,,,,,,,,,,,,,,,,,,,,,,,,,,,,,,,,,,,,,,,,,,,,,
,,,,,,,,,609ee5fbaa3b177503e2ca88,21,Mężczyzna,2022-06-04_08h10.14.571,task,2021.1.4,Win32,59.95203837,628b806c463b948bc644b84f,629af70116b475111776c9eb,,,,,,,,,,,,,,,,,,,,,,,,2,"[""2""]",1,[4.639999999999986],"[7.140999999999963,4.639999999999986]",0,1,1,2,1,Practice,3,(4x4) - 14,2,,,,,,,,,,,,,,,,,,,,,,,,,,,,,,,,,,,,,,,,,,,,,,,,,,,,,,,,,,,,,,,,,,,
,,,,,,,,,609ee5fbaa3b177503e2ca88,21,Mężczyzna,2022-06-04_08h10.14.571,task,2021.1.4,Win32,59.95203837,628b806c463b948bc644b84f,629af70116b475111776c9eb,,,,,,,,,,,,,,,,,,,,,,,,5,"[""5""]",1,[3.7509999999999764],"[7.140999999999963,4.639999999999986,3.7509999999999764]",0,2,2,5,1,Practice,6,(4/2) + 3,5,,,,,,,,,,,,,,,,,,,,,,,,,,,,,,,,,,,,,,,,,,,,,,,,,,,,,,,,,,,,,,,,,,,
,,,,,,,,,609ee5fbaa3b177503e2ca88,21,Mężczyzna,2022-06-04_08h10.14.571,task,2021.1.4,Win32,59.95203837,628b806c463b948bc644b84f,629af70116b475111776c9eb,,,,,,,,,,,,,,,,,,,,,,,,0,"[""0""]",1,[2.3419999999999845],"[7.140999999999963,4.639999999999986,3.7509999999999764,2.3419999999999845]",0,3,3,0,1,Practice,1,(3x3) -  9,0,,,,,,,,,,,,,,,,,,,,,,,,,,,,,,,,,,,,,,,,,,,,,,,,,,,,,,,,,,,,,,,,,,,
,,,,,,,,,609ee5fbaa3b177503e2ca88,21,Mężczyzna,2022-06-04_08h10.14.571,task,2021.1.4,Win32,59.95203837,628b806c463b948bc644b84f,629af70116b475111776c9eb,,,,,,,,,,,,,,,,,,,,,,,,4,"[""4""]",1,[9.037000000000035],"[7.140999999999963,4.639999999999986,3.7509999999999764,2.3419999999999845,9.037000000000035]",0,4,4,4,1,Practice,5,(2x6) - 8,4,,,,,,,,,,,,,,,,,,,,,,,,,,,,,,,,,,,,,,,,,,,,,,,,,,,,,,,,,,,,,,,,,,,
,,,,,,,,,609ee5fbaa3b177503e2ca88,21,Mężczyzna,2022-06-04_08h10.14.571,task,2021.1.4,Win32,59.95203837,628b806c463b948bc644b84f,629af70116b475111776c9eb,,,,,,,,,,,,,,,,,,,,,,,,3,"[""3""]",1,[3.125],"[7.140999999999963,4.639999999999986,3.7509999999999764,2.3419999999999845,9.037000000000035,3.125]",0,5,5,3,1,Practice,4,(8/4) + 1,3,,,,,,,,,,,,,,,,,,,,,,,,,,,,,,,,,,,,,,,,,,,,,,,,,,,,,,,,,,,,,,,,,,,
,,,,,,,,,609ee5fbaa3b177503e2ca88,21,Mężczyzna,2022-06-04_08h10.14.571,task,2021.1.4,Win32,59.95203837,628b806c463b948bc644b84f,629af70116b475111776c9eb,,,,,,,,,,,,,,,,,,,,,,,,1,"[""1""]",1,[1.8339999999999463],"[7.140999999999963,4.639999999999986,3.7509999999999764,2.3419999999999845,9.037000000000035,3.125,1.8339999999999463]",0,6,6,1,1,Practice,2,(4x4) - 15,1,,,,,,,,,,,,,,,,,,,,,,,,,,,,,,,,,,,,,,,,,,,,,,,,,,,,,,,,,,,,,,,,,,,
,,,,,,,,,609ee5fbaa3b177503e2ca88,21,Mężczyzna,2022-06-04_08h10.14.571,task,2021.1.4,Win32,59.95203837,628b806c463b948bc644b84f,629af70116b475111776c9eb,,,,,,,,,,,,,,,,,,,,,,,,8,"[""8""]",1,[4.191000000000031],"[7.140999999999963,4.639999999999986,3.7509999999999764,2.3419999999999845,9.037000000000035,3.125,1.8339999999999463,4.191000000000031]",0,7,7,8,1,Practice,9,(3x3) - 1,8,,,,,,,,,,,,,,,,,,,,,,,,,,,,,,,,,,,,,,,,,,,,,,,,,,,,,,,,,,,,,,,,,,,
,,,,,,,,,609ee5fbaa3b177503e2ca88,21,Mężczyzna,2022-06-04_08h10.14.571,task,2021.1.4,Win32,59.95203837,628b806c463b948bc644b84f,629af70116b475111776c9eb,,,,,,,,,,,,,,,,,,,,,,,,6,"[""6""]",1,[3.355000000000018],"[7.140999999999963,4.639999999999986,3.7509999999999764,2.3419999999999845,9.037000000000035,3.125,1.8339999999999463,4.191000000000031,3.355000000000018]",0,8,8,6,1,Practice,7,(25/5) + 1,6,,,,,,,,,,,,,,,,,,,,,,,,,,,,,,,,,,,,,,,,,,,,,,,,,,,,,,,,,,,,,,,,,,,
,,,,,,,,,609ee5fbaa3b177503e2ca88,21,Mężczyzna,2022-06-04_08h10.14.571,task,2021.1.4,Win32,59.95203837,628b806c463b948bc644b84f,629af70116b475111776c9eb,,,,,,,,,,,,,,,,,,,,,,,,7,"[""7""]",1,[15.896000000000072],"[7.140999999999963,4.639999999999986,3.7509999999999764,2.3419999999999845,9.037000000000035,3.125,1.8339999999999463,4.191000000000031,3.355000000000018,15.896000000000072]",0,9,9,7,1,Practice,8,(5x5) - 18,7,,,,,,,,,,,,,,,,,,,,,,,,,,,,,,,,,,,,,,,,,,,,,,,,,,,,,,,,,,,,,,,,,,,
,,,,,,,,,609ee5fbaa3b177503e2ca88,21,Mężczyzna,2022-06-04_08h10.14.571,task,2021.1.4,Win32,59.95203837,628b806c463b948bc644b84f,629af70116b475111776c9eb,,,,,,,,,,,,,,,,,,,,,,,,,,,,,,,,,,,,,,1,55.312,3.687466667,196.4301096,3.618748491,13.02383777,space,1.318,0,0,0,0,1,,,,,,,,,,,,,,,,,,,,,,,,,,,,,,,,,,,,,,,,,,,,,,,,,,,,,,
,,,,,,,,,609ee5fbaa3b177503e2ca88,21,Mężczyzna,2022-06-04_08h10.14.571,task,2021.1.4,Win32,59.95203837,628b806c463b948bc644b84f,629af70116b475111776c9eb,,,,,,,,,,,,,,,,,,,,,,,,3,,,,,,,,,,Practice,4,(8/4) + 1,3,,,,,,,,,,,,,,space,25.865,"[""3""]",1,[3.018000000000029],1,0,0,0,3,1,,,,,,,,,,,,,,,,,,,,,,,,,,,,,,,,,,,,,,,,,,,
,,,,,,,,,609ee5fbaa3b177503e2ca88,21,Mężczyzna,2022-06-04_08h10.14.571,task,2021.1.4,Win32,59.95203837,628b806c463b948bc644b84f,629af70116b475111776c9eb,,,,,,,,,,,X V Q F H G B L J M P D K C T S W R N Z,,,,,,,,,,,,,,,,,,,,,,,,,,,,,,,,,,,,,,,,,,,,,,,,,,,0,0,0,0,1,,,,,,,,,,,,,,,,,,,,,,,,,,,,,,,,,,,,,,
,,,,,,,,,609ee5fbaa3b177503e2ca88,21,Mężczyzna,2022-06-04_08h10.14.571,task,2021.1.4,Win32,59.95203837,628b806c463b948bc644b84f,629af70116b475111776c9eb,,,,,,,,,,,,,,,,,,,,,,,,1,,,,,,,,,,Practice,2,(4x4) - 15,1,,,,,,,,,,,,,,,,"[""1""]",1,[1.7099999999999227],1,0,0,0,1,1,,,,,,,,,,,,,,,,,,,,,,,,,,,,,,,,,,,,,,,,,,,
,,,,,,,,,609ee5fbaa3b177503e2ca88,21,Mężczyzna,2022-06-04_08h10.14.571,task,2021.1.4,Win32,59.95203837,628b806c463b948bc644b84f,629af70116b475111776c9eb,,,,,,,,,,,X V Q F H G B L J M P D K C T S W R N Z,,,,,,,,,,,,,,,,,,,,,,,,,,,,,,,,,,,,,,,,,,,,,,,,,,,1,0,1,0,1,,,,,,,,,,,,,,,,,,,,,,,,,,,,,,,,,,,,,,
,,,,,,,,,609ee5fbaa3b177503e2ca88,21,Mężczyzna,2022-06-04_08h10.14.571,task,2021.1.4,Win32,59.95203837,628b806c463b948bc644b84f,629af70116b475111776c9eb,,,,,,,,,,,,,,,,,,,,,,,,,,,,,,,,,,,,,,,,,,,,,,,,,,,,,,,,,,,,,,,,,,,zq,"[""z"",""q""]",0,"[2.4669999999999845,3.353999999999928,3.7509999999999764]",1,0,0,0,0,1,,,,,,,,,,,,,,,,,,,,,,,,,,,,
,,,,,,,,,609ee5fbaa3b177503e2ca88,21,Mężczyzna,2022-06-04_08h10.14.571,task,2021.1.4,Win32,59.95203837,628b806c463b948bc644b84f,629af70116b475111776c9eb,,,,,,,,,,,,,,,,,,,,,,,,4,,,,,,,,,,Practice,5,(2x6) - 8,4,,,,,,,,,,,,,,,,"[""4""]",1,[3.7649999999999864],1,0,0,0,4,1,,,,,,,,,,,,,,,,,,,,,,,,,,,,,,,,,,,,,,,,,,,
,,,,,,,,,609ee5fbaa3b177503e2ca88,21,Mężczyzna,2022-06-04_08h10.14.571,task,2021.1.4,Win32,59.95203837,628b806c463b948bc644b84f,629af70116b475111776c9eb,,,,,,,,,,,X V Q F H G B L J M P D K C T S W R N Z,,,,,,,,,,,,,,,,,,,,,,,,,,,,,,,,,,,,,,,,,,,,,,,,,,,0,0,0,0,1,,,,,,,,,,,,,,,,,,,,,,,,,,,,,,,,,,,,,,
,,,,,,,,,609ee5fbaa3b177503e2ca88,21,Mężczyzna,2022-06-04_08h10.14.571,task,2021.1.4,Win32,59.95203837,628b806c463b948bc644b84f,629af70116b475111776c9eb,,,,,,,,,,,,,,,,,,,,,,,,0,,,,,,,,,,Practice,1,(3x3) -  9,0,,,,,,,,,,,,,,,,"[""0""]",1,[1.7380000000000564],1,0,0,0,0,1,,,,,,,,,,,,,,,,,,,,,,,,,,,,,,,,,,,,,,,,,,,
,,,,,,,,,609ee5fbaa3b177503e2ca88,21,Mężczyzna,2022-06-04_08h10.14.571,task,2021.1.4,Win32,59.95203837,628b806c463b948bc644b84f,629af70116b475111776c9eb,,,,,,,,,,,X V Q F H G B L J M P D K C T S W R N Z,,,,,,,,,,,,,,,,,,,,,,,,,,,,,,,,,,,,,,,,,,,,,,,,,,,1,0,1,0,1,,,,,,,,,,,,,,,,,,,,,,,,,,,,,,,,,,,,,,
,,,,,,,,,609ee5fbaa3b177503e2ca88,21,Mężczyzna,2022-06-04_08h10.14.571,task,2021.1.4,Win32,59.95203837,628b806c463b948bc644b84f,629af70116b475111776c9eb,,,,,,,,,,,,,,,,,,,,,,,,,,,,,,,,,,,,,,,,,,,,,,,,,,,,,,,,,,,,,,,,,,,xb,"[""x"",""b""]",0,"[2.4289999999999736,2.7250000000000227,3.47199999999998]",1,1,0,1,0,1,,,,,,,,,,,,,,,,,,,,,,,,,,,,
,,,,,,,,,609ee5fbaa3b177503e2ca88,21,Mężczyzna,2022-06-04_08h10.14.571,task,2021.1.4,Win32,59.95203837,628b806c463b948bc644b84f,629af70116b475111776c9eb,,,,,,,,,,,,,,,,,,,,,,,,0,,,,,,,,,,Practice,1,(3x3) -  9,0,,,,,,,,,,,,,,,,"[""0""]",1,[1.7200000000000273],1,0,0,0,0,1,,,,,,,,,,,,,,,,,,,,,,,,,,,,,,,,,,,,,,,,,,,
,,,,,,,,,609ee5fbaa3b177503e2ca88,21,Mężczyzna,2022-06-04_08h10.14.571,task,2021.1.4,Win32,59.95203837,628b806c463b948bc644b84f,629af70116b475111776c9eb,,,,,,,,,,,X V Q F H G B L J M P D K C T S W R N Z,,,,,,,,,,,,,,,,,,,,,,,,,,,,,,,,,,,,,,,,,,,,,,,,,,,0,0,0,0,1,,,,,,,,,,,,,,,,,,,,,,,,,,,,,,,,,,,,,,
,,,,,,,,,609ee5fbaa3b177503e2ca88,21,Mężczyzna,2022-06-04_08h10.14.571,task,2021.1.4,Win32,59.95203837,628b806c463b948bc644b84f,629af70116b475111776c9eb,,,,,,,,,,,,,,,,,,,,,,,,6,,,,,,,,,,Practice,7,(25/5) + 1,6,,,,,,,,,,,,,,,,"[""6""]",1,[2.907000000000039],1,0,0,0,6,1,,,,,,,,,,,,,,,,,,,,,,,,,,,,,,,,,,,,,,,,,,,
,,,,,,,,,609ee5fbaa3b177503e2ca88,21,Mężczyzna,2022-06-04_08h10.14.571,task,2021.1.4,Win32,59.95203837,628b806c463b948bc644b84f,629af70116b475111776c9eb,,,,,,,,,,,X V Q F H G B L J M P D K C T S W R N Z,,,,,,,,,,,,,,,,,,,,,,,,,,,,,,,,,,,,,,,,,,,,,,,,,,,1,0,1,0,1,,,,,,,,,,,,,,,,,,,,,,,,,,,,,,,,,,,,,,
,,,,,,,,,609ee5fbaa3b177503e2ca88,21,Mężczyzna,2022-06-04_08h10.14.571,task,2021.1.4,Win32,59.95203837,628b806c463b948bc644b84f,629af70116b475111776c9eb,,,,,,,,,,,,,,,,,,,,,,,,,,,,,,,,,,,,,,,,,,,,,,,,,,,,,,,,,,,,,,,,,,,cq,"[""c"",""q""]",0,"[2.283999999999992,2.55499999999995,3.2519999999999527]",1,2,0,2,0,1,,,,,,,,,,,,,,,,,,,,,,,,,,,,
,,,,,,,,,609ee5fbaa3b177503e2ca88,21,Mężczyzna,2022-06-04_08h10.14.571,task,2021.1.4,Win32,59.95203837,628b806c463b948bc644b84f,629af70116b475111776c9eb,,,,,,,,,,,,,,,,,,,,,,,,0,,,,,,,,,,Task,33,(1/1) - 1,0,,,,,,,,,,,,,,,,,,,1,,,,,,,,,,,,,,,,,,,,,space,27.788,"[""0""]",1,[3.268000000000029],0,0,0,32,1,,,,,,,,,,,,,,,,,,
,,,,,,,,,609ee5fbaa3b177503e2ca88,21,Mężczyzna,2022-06-04_08h10.14.571,task,2021.1.4,Win32,59.95203837,628b806c463b948bc644b84f,629af70116b475111776c9eb,,,,,,,,,,,X V Q F H G B L J M P D K C T S W R N Z,,,,,,,,,,,,,,,,,,,,,,,,,,,,,,,,,,,,,,,,,,,,,,,,,,,,,,,,,,,,,,,,,,,,,,,,,,,,0,0,0,0,1,,,,,,,,,,,,,
,,,,,,,,,609ee5fbaa3b177503e2ca88,21,Mężczyzna,2022-06-04_08h10.14.571,task,2021.1.4,Win32,59.95203837,628b806c463b948bc644b84f,629af70116b475111776c9eb,,,,,,,,,,,,,,,,,,,,,,,,6,,,,,,,,,,Task,13,(3x4) - 6,6,,,,,,,,,,,,,,,,,,,1,,,,,,,,,,,,,,,,,,,,,,,"[""6""]",1,[3.3360000000000127],0,0,0,12,1,,,,,,,,,,,,,,,,,,
,,,,,,,,,609ee5fbaa3b177503e2ca88,21,Mężczyzna,2022-06-04_08h10.14.571,task,2021.1.4,Win32,59.95203837,628b806c463b948bc644b84f,629af70116b475111776c9eb,,,,,,,,,,,X V Q F H G B L J M P D K C T S W R N Z,,,,,,,,,,,,,,,,,,,,,,,,,,,,,,,,,,,,,,,,,,,,,,,,,,,,,,,,,,,,,,,,,,,,,,,,,,,,1,0,1,0,1,,,,,,,,,,,,,
,,,,,,,,,609ee5fbaa3b177503e2ca88,21,Mężczyzna,2022-06-04_08h10.14.571,task,2021.1.4,Win32,59.95203837,628b806c463b948bc644b84f,629af70116b475111776c9eb,,,,,,,,,,,,,,,,,,,,,,,,,,,,,,,,,,,,,,,,,,,,,,,,,,,,,,,,,,,,,,,,,,,,,,,,,,,,,,,,,,,,,,,,,,,,zq,"[""z"",""q""]",0,"[1.65199999999993,1.884999999999991,2.506999999999948]",1,ZQ,0,0,0,0,1,,
,,,,,,,,,609ee5fbaa3b177503e2ca88,21,Mężczyzna,2022-06-04_08h10.14.571,task,2021.1.4,Win32,59.95203837,628b806c463b948bc644b84f,629af70116b475111776c9eb,,,,,,,,,,,,,,,,,,,,,,,,9,,,,,,,,,,Task,40,(7x2) - 5,9,,,,,,,,,,,,,,,,,,,1,,,,,,,,,,,,,,,,,,,,,,,"[""9""]",1,[2.97199999999998],0,0,0,39,1,,,,,,,,,,,,,,,,,,
,,,,,,,,,609ee5fbaa3b177503e2ca88,21,Mężczyzna,2022-06-04_08h10.14.571,task,2021.1.4,Win32,59.95203837,628b806c463b948bc644b84f,629af70116b475111776c9eb,,,,,,,,,,,X V Q F H G B L J M P D K C T S W R N Z,,,,,,,,,,,,,,,,,,,,,,,,,,,,,,,,,,,,,,,,,,,,,,,,,,,,,,,,,,,,,,,,,,,,,,,,,,,,0,0,0,0,1,,,,,,,,,,,,,
,,,,,,,,,609ee5fbaa3b177503e2ca88,21,Mężczyzna,2022-06-04_08h10.14.571,task,2021.1.4,Win32,59.95203837,628b806c463b948bc644b84f,629af70116b475111776c9eb,,,,,,,,,,,,,,,,,,,,,,,,4,,,,,,,,,,Task,28,(2x5) - 6,4,,,,,,,,,,,,,,,,,,,1,,,,,,,,,,,,,,,,,,,,,,,"[""4""]",1,[3.425999999999931],0,0,0,27,1,,,,,,,,,,,,,,,,,,
,,,,,,,,,609ee5fbaa3b177503e2ca88,21,Mężczyzna,2022-06-04_08h10.14.571,task,2021.1.4,Win32,59.95203837,628b806c463b948bc644b84f,629af70116b475111776c9eb,,,,,,,,,,,X V Q F H G B L J M P D K C T S W R N Z,,,,,,,,,,,,,,,,,,,,,,,,,,,,,,,,,,,,,,,,,,,,,,,,,,,,,,,,,,,,,,,,,,,,,,,,,,,,1,0,1,0,1,,,,,,,,,,,,,
,,,,,,,,,609ee5fbaa3b177503e2ca88,21,Mężczyzna,2022-06-04_08h10.14.571,task,2021.1.4,Win32,59.95203837,628b806c463b948bc644b84f,629af70116b475111776c9eb,,,,,,,,,,,,,,,,,,,,,,,,8,,,,,,,,,,Task,32,(8/2) + 4,8,,,,,,,,,,,,,,,,,,,1,,,,,,,,,,,,,,,,,,,,,,,"[""8""]",1,[5.022000000000048],0,0,0,31,1,,,,,,,,,,,,,,,,,,
,,,,,,,,,609ee5fbaa3b177503e2ca88,21,Mężczyzna,2022-06-04_08h10.14.571,task,2021.1.4,Win32,59.95203837,628b806c463b948bc644b84f,629af70116b475111776c9eb,,,,,,,,,,,X V Q F H G B L J M P D K C T S W R N Z,,,,,,,,,,,,,,,,,,,,,,,,,,,,,,,,,,,,,,,,,,,,,,,,,,,,,,,,,,,,,,,,,,,,,,,,,,,,2,0,2,0,1,,,,,,,,,,,,,
,,,,,,,,,609ee5fbaa3b177503e2ca88,21,Mężczyzna,2022-06-04_08h10.14.571,task,2021.1.4,Win32,59.95203837,628b806c463b948bc644b84f,629af70116b475111776c9eb,,,,,,,,,,,,,,,,,,,,,,,,,,,,,,,,,,,,,,,,,,,,,,,,,,,,,,,,,,,,,,,,,,,,,,,,,,,,,,,,,,,,,,,,,,,,zsp,"[""z"",""s"",""p""]",0,"[1.9510000000000218,2.2089999999999463,2.7970000000000255,3.1849999999999454]",0,TSP,1,0,1,0,1,,
,,,,,,,,,609ee5fbaa3b177503e2ca88,21,Mężczyzna,2022-06-04_08h10.14.571,task,2021.1.4,Win32,59.95203837,628b806c463b948bc644b84f,629af70116b475111776c9eb,,,,,,,,,,,,,,,,,,,,,,,,2,,,,,,,,,,Task,19,(6/2) - 1,2,,,,,,,,,,,,,,,,,,,1,,,,,,,,,,,,,,,,,,,,,,,"[""2""]",1,[2.7329999999999472],0,0,0,18,1,,,,,,,,,,,,,,,,,,
,,,,,,,,,609ee5fbaa3b177503e2ca88,21,Mężczyzna,2022-06-04_08h10.14.571,task,2021.1.4,Win32,59.95203837,628b806c463b948bc644b84f,629af70116b475111776c9eb,,,,,,,,,,,X V Q F H G B L J M P D K C T S W R N Z,,,,,,,,,,,,,,,,,,,,,,,,,,,,,,,,,,,,,,,,,,,,,,,,,,,,,,,,,,,,,,,,,,,,,,,,,,,,0,0,0,0,1,,,,,,,,,,,,,
,,,,,,,,,609ee5fbaa3b177503e2ca88,21,Mężczyzna,2022-06-04_08h10.14.571,task,2021.1.4,Win32,59.95203837,628b806c463b948bc644b84f,629af70116b475111776c9eb,,,,,,,,,,,,,,,,,,,,,,,,3,,,,,,,,,,Task,20,(18/9) + 1,3,,,,,,,,,,,,,,,,,,,1,,,,,,,,,,,,,,,,,,,,,,,"[""3""]",1,[3.3310000000000173],0,0,0,19,1,,,,,,,,,,,,,,,,,,
,,,,,,,,,609ee5fbaa3b177503e2ca88,21,Mężczyzna,2022-06-04_08h10.14.571,task,2021.1.4,Win32,59.95203837,628b806c463b948bc644b84f,629af70116b475111776c9eb,,,,,,,,,,,X V Q F H G B L J M P D K C T S W R N Z,,,,,,,,,,,,,,,,,,,,,,,,,,,,,,,,,,,,,,,,,,,,,,,,,,,,,,,,,,,,,,,,,,,,,,,,,,,,1,0,1,0,1,,,,,,,,,,,,,
,,,,,,,,,609ee5fbaa3b177503e2ca88,21,Mężczyzna,2022-06-04_08h10.14.571,task,2021.1.4,Win32,59.95203837,628b806c463b948bc644b84f,629af70116b475111776c9eb,,,,,,,,,,,,,,,,,,,,,,,,8,,,,,,,,,,Task,15,(3x7) - 13,8,,,,,,,,,,,,,,,,,,,1,,,,,,,,,,,,,,,,,,,,,,,"[""8""]",1,[11.987999999999943],0,0,0,14,1,,,,,,,,,,,,,,,,,,
,,,,,,,,,609ee5fbaa3b177503e2ca88,21,Mężczyzna,2022-06-04_08h10.14.571,task,2021.1.4,Win32,59.95203837,628b806c463b948bc644b84f,629af70116b475111776c9eb,,,,,,,,,,,X V Q F H G B L J M P D K C T S W R N Z,,,,,,,,,,,,,,,,,,,,,,,,,,,,,,,,,,,,,,,,,,,,,,,,,,,,,,,,,,,,,,,,,,,,,,,,,,,,2,0,2,0,1,,,,,,,,,,,,,
,,,,,,,,,609ee5fbaa3b177503e2ca88,21,Mężczyzna,2022-06-04_08h10.14.571,task,2021.1.4,Win32,59.95203837,628b806c463b948bc644b84f,629af70116b475111776c9eb,,,,,,,,,,,,,,,,,,,,,,,,,,,,,,,,,,,,,,,,,,,,,,,,,,,,,,,,,,,,,,,,,,,,,,,,,,,,,,,,,,,,,,,,,,,,gcz,"[""g"",""c"",""z""]",0,"[2.2679999999999154,2.713999999999942,2.9869999999999663,3.935999999999922]",1,GCZ,2,0,2,0,1,,
,,,,,,,,,609ee5fbaa3b177503e2ca88,21,Mężczyzna,2022-06-04_08h10.14.571,task,2021.1.4,Win32,59.95203837,628b806c463b948bc644b84f,629af70116b475111776c9eb,,,,,,,,,,,,,,,,,,,,,,,,7,,,,,,,,,,Task,6,(12/2) + 1,7,,,,,,,,,,,,,,,,,,,1,,,,,,,,,,,,,,,,,,,,,,,"[""7""]",1,[2.4569999999999936],0,0,0,5,1,,,,,,,,,,,,,,,,,,
,,,,,,,,,609ee5fbaa3b177503e2ca88,21,Mężczyzna,2022-06-04_08h10.14.571,task,2021.1.4,Win32,59.95203837,628b806c463b948bc644b84f,629af70116b475111776c9eb,,,,,,,,,,,X V Q F H G B L J M P D K C T S W R N Z,,,,,,,,,,,,,,,,,,,,,,,,,,,,,,,,,,,,,,,,,,,,,,,,,,,,,,,,,,,,,,,,,,,,,,,,,,,,0,0,0,0,1,,,,,,,,,,,,,
,,,,,,,,,609ee5fbaa3b177503e2ca88,21,Mężczyzna,2022-06-04_08h10.14.571,task,2021.1.4,Win32,59.95203837,628b806c463b948bc644b84f,629af70116b475111776c9eb,,,,,,,,,,,,,,,,,,,,,,,,3,,,,,,,,,,Task,3,(2x3) - 3,3,,,,,,,,,,,,,,,,,,,1,,,,,,,,,,,,,,,,,,,,,,,"[""3""]",1,[2.23599999999999],0,0,0,2,1,,,,,,,,,,,,,,,,,,
,,,,,,,,,609ee5fbaa3b177503e2ca88,21,Mężczyzna,2022-06-04_08h10.14.571,task,2021.1.4,Win32,59.95203837,628b806c463b948bc644b84f,629af70116b475111776c9eb,,,,,,,,,,,X V Q F H G B L J M P D K C T S W R N Z,,,,,,,,,,,,,,,,,,,,,,,,,,,,,,,,,,,,,,,,,,,,,,,,,,,,,,,,,,,,,,,,,,,,,,,,,,,,1,0,1,0,1,,,,,,,,,,,,,
,,,,,,,,,609ee5fbaa3b177503e2ca88,21,Mężczyzna,2022-06-04_08h10.14.571,task,2021.1.4,Win32,59.95203837,628b806c463b948bc644b84f,629af70116b475111776c9eb,,,,,,,,,,,,,,,,,,,,,,,,1,,,,,,,,,,Task,1,(12/6) - 1,1,,,,,,,,,,,,,,,,,,,1,,,,,,,,,,,,,,,,,,,,,,,"[""1""]",1,[3.572999999999979],0,0,0,0,1,,,,,,,,,,,,,,,,,,
,,,,,,,,,609ee5fbaa3b177503e2ca88,21,Mężczyzna,2022-06-04_08h10.14.571,task,2021.1.4,Win32,59.95203837,628b806c463b948bc644b84f,629af70116b475111776c9eb,,,,,,,,,,,X V Q F H G B L J M P D K C T S W R N Z,,,,,,,,,,,,,,,,,,,,,,,,,,,,,,,,,,,,,,,,,,,,,,,,,,,,,,,,,,,,,,,,,,,,,,,,,,,,2,0,2,0,1,,,,,,,,,,,,,
,,,,,,,,,609ee5fbaa3b177503e2ca88,21,Mężczyzna,2022-06-04_08h10.14.571,task,2021.1.4,Win32,59.95203837,628b806c463b948bc644b84f,629af70116b475111776c9eb,,,,,,,,,,,,,,,,,,,,,,,,5,,,,,,,,,,Task,22,(3x1) + 2,5,,,,,,,,,,,,,,,,,,,1,,,,,,,,,,,,,,,,,,,,,,,"[""5""]",1,[3.4139999999999873],0,0,0,21,1,,,,,,,,,,,,,,,,,,
,,,,,,,,,609ee5fbaa3b177503e2ca88,21,Mężczyzna,2022-06-04_08h10.14.571,task,2021.1.4,Win32,59.95203837,628b806c463b948bc644b84f,629af70116b475111776c9eb,,,,,,,,,,,X V Q F H G B L J M P D K C T S W R N Z,,,,,,,,,,,,,,,,,,,,,,,,,,,,,,,,,,,,,,,,,,,,,,,,,,,,,,,,,,,,,,,,,,,,,,,,,,,,3,0,3,0,1,,,,,,,,,,,,,
,,,,,,,,,609ee5fbaa3b177503e2ca88,21,Mężczyzna,2022-06-04_08h10.14.571,task,2021.1.4,Win32,59.95203837,628b806c463b948bc644b84f,629af70116b475111776c9eb,,,,,,,,,,,,,,,,,,,,,,,,,,,,,,,,,,,,,,,,,,,,,,,,,,,,,,,,,,,,,,,,,,,,,,,,,,,,,,,,,,,,,,,,,,,,cjql,"[""c"",""j"",""q"",""l""]",0,"[2.006999999999948,2.63900000000001,3.1769999999999072,3.4689999999999372,4.221000000000004]",1,CJQL,3,0,3,0,1,,
,,,,,,,,,609ee5fbaa3b177503e2ca88,21,Mężczyzna,2022-06-04_08h10.14.571,task,2021.1.4,Win32,59.95203837,628b806c463b948bc644b84f,629af70116b475111776c9eb,,,,,,,,,,,,,,,,,,,,,,,,9,,,,,,,,,,Task,16,(3x8) - 15,9,,,,,,,,,,,,,,,,,,,1,,,,,,,,,,,,,,,,,,,,,,,"[""9""]",1,[7.572000000000003],0,0,0,15,1,,,,,,,,,,,,,,,,,,
,,,,,,,,,609ee5fbaa3b177503e2ca88,21,Mężczyzna,2022-06-04_08h10.14.571,task,2021.1.4,Win32,59.95203837,628b806c463b948bc644b84f,629af70116b475111776c9eb,,,,,,,,,,,X V Q F H G B L J M P D K C T S W R N Z,,,,,,,,,,,,,,,,,,,,,,,,,,,,,,,,,,,,,,,,,,,,,,,,,,,,,,,,,,,,,,,,,,,,,,,,,,,,0,0,0,0,1,,,,,,,,,,,,,
,,,,,,,,,609ee5fbaa3b177503e2ca88,21,Mężczyzna,2022-06-04_08h10.14.571,task,2021.1.4,Win32,59.95203837,628b806c463b948bc644b84f,629af70116b475111776c9eb,,,,,,,,,,,,,,,,,,,,,,,,8,,,,,,,,,,Task,32,(8/2) + 4,8,,,,,,,,,,,,,,,,,,,1,,,,,,,,,,,,,,,,,,,,,,,"[""8""]",1,[2.73700000000008],0,0,0,31,1,,,,,,,,,,,,,,,,,,
,,,,,,,,,609ee5fbaa3b177503e2ca88,21,Mężczyzna,2022-06-04_08h10.14.571,task,2021.1.4,Win32,59.95203837,628b806c463b948bc644b84f,629af70116b475111776c9eb,,,,,,,,,,,X V Q F H G B L J M P D K C T S W R N Z,,,,,,,,,,,,,,,,,,,,,,,,,,,,,,,,,,,,,,,,,,,,,,,,,,,,,,,,,,,,,,,,,,,,,,,,,,,,1,0,1,0,1,,,,,,,,,,,,,
,,,,,,,,,609ee5fbaa3b177503e2ca88,21,Mężczyzna,2022-06-04_08h10.14.571,task,2021.1.4,Win32,59.95203837,628b806c463b948bc644b84f,629af70116b475111776c9eb,,,,,,,,,,,,,,,,,,,,,,,,5,,,,,,,,,,Task,22,(3x1) + 2,5,,,,,,,,,,,,,,,,,,,1,,,,,,,,,,,,,,,,,,,,,,,"[""5""]",1,[1.919999999999959],0,0,0,21,1,,,,,,,,,,,,,,,,,,
,,,,,,,,,609ee5fbaa3b177503e2ca88,21,Mężczyzna,2022-06-04_08h10.14.571,task,2021.1.4,Win32,59.95203837,628b806c463b948bc644b84f,629af70116b475111776c9eb,,,,,,,,,,,X V Q F H G B L J M P D K C T S W R N Z,,,,,,,,,,,,,,,,,,,,,,,,,,,,,,,,,,,,,,,,,,,,,,,,,,,,,,,,,,,,,,,,,,,,,,,,,,,,2,0,2,0,1,,,,,,,,,,,,,
,,,,,,,,,609ee5fbaa3b177503e2ca88,21,Mężczyzna,2022-06-04_08h10.14.571,task,2021.1.4,Win32,59.95203837,628b806c463b948bc644b84f,629af70116b475111776c9eb,,,,,,,,,,,,,,,,,,,,,,,,1,,,,,,,,,,Task,9,(3x7) - 20,1,,,,,,,,,,,,,,,,,,,1,,,,,,,,,,,,,,,,,,,,,,,"[""1""]",1,[2.9470000000000027],0,0,0,8,1,,,,,,,,,,,,,,,,,,
,,,,,,,,,609ee5fbaa3b177503e2ca88,21,Mężczyzna,2022-06-04_08h10.14.571,task,2021.1.4,Win32,59.95203837,628b806c463b948bc644b84f,629af70116b475111776c9eb,,,,,,,,,,,X V Q F H G B L J M P D K C T S W R N Z,,,,,,,,,,,,,,,,,,,,,,,,,,,,,,,,,,,,,,,,,,,,,,,,,,,,,,,,,,,,,,,,,,,,,,,,,,,,3,0,3,0,1,,,,,,,,,,,,,
,,,,,,,,,609ee5fbaa3b177503e2ca88,21,Mężczyzna,2022-06-04_08h10.14.571,task,2021.1.4,Win32,59.95203837,628b806c463b948bc644b84f,629af70116b475111776c9eb,,,,,,,,,,,,,,,,,,,,,,,,4,,,,,,,,,,Task,11,(18/3) - 2,4,,,,,,,,,,,,,,,,,,,1,,,,,,,,,,,,,,,,,,,,,,,"[""4""]",1,[7.826000000000022],0,0,0,10,1,,,,,,,,,,,,,,,,,,
,,,,,,,,,609ee5fbaa3b177503e2ca88,21,Mężczyzna,2022-06-04_08h10.14.571,task,2021.1.4,Win32,59.95203837,628b806c463b948bc644b84f,629af70116b475111776c9eb,,,,,,,,,,,X V Q F H G B L J M P D K C T S W R N Z,,,,,,,,,,,,,,,,,,,,,,,,,,,,,,,,,,,,,,,,,,,,,,,,,,,,,,,,,,,,,,,,,,,,,,,,,,,,4,0,4,0,1,,,,,,,,,,,,,
,,,,,,,,,609ee5fbaa3b177503e2ca88,21,Mężczyzna,2022-06-04_08h10.14.571,task,2021.1.4,Win32,59.95203837,628b806c463b948bc644b84f,629af70116b475111776c9eb,,,,,,,,,,,,,,,,,,,,,,,,,,,,,,,,,,,,,,,,,,,,,,,,,,,,,,,,,,,,,,,,,,,,,,,,,,,,,,,,,,,,,,,,,,,,pcnbx,"[""p"",""c"",""n"",""b"",""x""]",0,"[1.9329999999999927,2.244000000000028,2.58400000000006,2.872000000000071,3.1240000000000236,3.7420000000000755]",1,PCNBX,4,0,4,0,1,,
,,,,,,,,,609ee5fbaa3b177503e2ca88,21,Mężczyzna,2022-06-04_08h10.14.571,task,2021.1.4,Win32,59.95203837,628b806c463b948bc644b84f,629af70116b475111776c9eb,,,,,,,,,,,,,,,,,,,,,,,,6,,,,,,,,,,Task,13,(3x4) - 6,6,,,,,,,,,,,,,,,,,,,1,,,,,,,,,,,,,,,,,,,,,,,"[""6""]",1,[2.7759999999999536],0,0,0,12,1,,,,,,,,,,,,,,,,,,
,,,,,,,,,609ee5fbaa3b177503e2ca88,21,Mężczyzna,2022-06-04_08h10.14.571,task,2021.1.4,Win32,59.95203837,628b806c463b948bc644b84f,629af70116b475111776c9eb,,,,,,,,,,,X V Q F H G B L J M P D K C T S W R N Z,,,,,,,,,,,,,,,,,,,,,,,,,,,,,,,,,,,,,,,,,,,,,,,,,,,,,,,,,,,,,,,,,,,,,,,,,,,,0,0,0,0,1,,,,,,,,,,,,,
,,,,,,,,,609ee5fbaa3b177503e2ca88,21,Mężczyzna,2022-06-04_08h10.14.571,task,2021.1.4,Win32,59.95203837,628b806c463b948bc644b84f,629af70116b475111776c9eb,,,,,,,,,,,,,,,,,,,,,,,,2,,,,,,,,,,Task,10,(2x5) - 8,2,,,,,,,,,,,,,,,,,,,1,,,,,,,,,,,,,,,,,,,,,,,"[""2""]",1,[2.0259999999999536],0,0,0,9,1,,,,,,,,,,,,,,,,,,
,,,,,,,,,609ee5fbaa3b177503e2ca88,21,Mężczyzna,2022-06-04_08h10.14.571,task,2021.1.4,Win32,59.95203837,628b806c463b948bc644b84f,629af70116b475111776c9eb,,,,,,,,,,,X V Q F H G B L J M P D K C T S W R N Z,,,,,,,,,,,,,,,,,,,,,,,,,,,,,,,,,,,,,,,,,,,,,,,,,,,,,,,,,,,,,,,,,,,,,,,,,,,,1,0,1,0,1,,,,,,,,,,,,,
,,,,,,,,,609ee5fbaa3b177503e2ca88,21,Mężczyzna,2022-06-04_08h10.14.571,task,2021.1.4,Win32,59.95203837,628b806c463b948bc644b84f,629af70116b475111776c9eb,,,,,,,,,,,,,,,,,,,,,,,,2,,,,,,,,,,Task,19,(6/2) - 1,2,,,,,,,,,,,,,,,,,,,1,,,,,,,,,,,,,,,,,,,,,,,"[""2""]",1,[2.2549999999999955],0,0,0,18,1,,,,,,,,,,,,,,,,,,
,,,,,,,,,609ee5fbaa3b177503e2ca88,21,Mężczyzna,2022-06-04_08h10.14.571,task,2021.1.4,Win32,59.95203837,628b806c463b948bc644b84f,629af70116b475111776c9eb,,,,,,,,,,,X V Q F H G B L J M P D K C T S W R N Z,,,,,,,,,,,,,,,,,,,,,,,,,,,,,,,,,,,,,,,,,,,,,,,,,,,,,,,,,,,,,,,,,,,,,,,,,,,,2,0,2,0,1,,,,,,,,,,,,,
,,,,,,,,,609ee5fbaa3b177503e2ca88,21,Mężczyzna,2022-06-04_08h10.14.571,task,2021.1.4,Win32,59.95203837,628b806c463b948bc644b84f,629af70116b475111776c9eb,,,,,,,,,,,,,,,,,,,,,,,,3,,,,,,,,,,Task,35,(1x2) + 1,3,,,,,,,,,,,,,,,,,,,1,,,,,,,,,,,,,,,,,,,,,,,"[""3""]",1,[2.1159999999999854],0,0,0,34,1,,,,,,,,,,,,,,,,,,
,,,,,,,,,609ee5fbaa3b177503e2ca88,21,Mężczyzna,2022-06-04_08h10.14.571,task,2021.1.4,Win32,59.95203837,628b806c463b948bc644b84f,629af70116b475111776c9eb,,,,,,,,,,,X V Q F H G B L J M P D K C T S W R N Z,,,,,,,,,,,,,,,,,,,,,,,,,,,,,,,,,,,,,,,,,,,,,,,,,,,,,,,,,,,,,,,,,,,,,,,,,,,,3,0,3,0,1,,,,,,,,,,,,,
,,,,,,,,,609ee5fbaa3b177503e2ca88,21,Mężczyzna,2022-06-04_08h10.14.571,task,2021.1.4,Win32,59.95203837,628b806c463b948bc644b84f,629af70116b475111776c9eb,,,,,,,,,,,,,,,,,,,,,,,,4,,,,,,,,,,Task,21,(10/2) - 1,4,,,,,,,,,,,,,,,,,,,1,,,,,,,,,,,,,,,,,,,,,,,"[""4""]",1,[2.465000000000032],0,0,0,20,1,,,,,,,,,,,,,,,,,,
,,,,,,,,,609ee5fbaa3b177503e2ca88,21,Mężczyzna,2022-06-04_08h10.14.571,task,2021.1.4,Win32,59.95203837,628b806c463b948bc644b84f,629af70116b475111776c9eb,,,,,,,,,,,X V Q F H G B L J M P D K C T S W R N Z,,,,,,,,,,,,,,,,,,,,,,,,,,,,,,,,,,,,,,,,,,,,,,,,,,,,,,,,,,,,,,,,,,,,,,,,,,,,4,0,4,0,1,,,,,,,,,,,,,
,,,,,,,,,609ee5fbaa3b177503e2ca88,21,Mężczyzna,2022-06-04_08h10.14.571,task,2021.1.4,Win32,59.95203837,628b806c463b948bc644b84f,629af70116b475111776c9eb,,,,,,,,,,,,,,,,,,,,,,,,6,,,,,,,,,,Task,13,(3x4) - 6,6,,,,,,,,,,,,,,,,,,,1,,,,,,,,,,,,,,,,,,,,,,,"[""6""]",1,[4.240000000000009],0,0,0,12,1,,,,,,,,,,,,,,,,,,
,,,,,,,,,609ee5fbaa3b177503e2ca88,21,Mężczyzna,2022-06-04_08h10.14.571,task,2021.1.4,Win32,59.95203837,628b806c463b948bc644b84f,629af70116b475111776c9eb,,,,,,,,,,,X V Q F H G B L J M P D K C T S W R N Z,,,,,,,,,,,,,,,,,,,,,,,,,,,,,,,,,,,,,,,,,,,,,,,,,,,,,,,,,,,,,,,,,,,,,,,,,,,,5,0,5,0,1,,,,,,,,,,,,,
,,,,,,,,,609ee5fbaa3b177503e2ca88,21,Mężczyzna,2022-06-04_08h10.14.571,task,2021.1.4,Win32,59.95203837,628b806c463b948bc644b84f,629af70116b475111776c9eb,,,,,,,,,,,,,,,,,,,,,,,,,,,,,,,,,,,,,,,,,,,,,,,,,,,,,,,,,,,,,,,,,,,,,,,,,,,,,,,,,,,,,,,,,,,,kpjqkn,"[""k"",""p"",""j"",""q"",""k"",""n""]",0,"[2.1469999999999345,2.4589999999999463,2.86099999999999,3.3039999999999736,3.6219999999999573,4.427999999999997,5.06899999999996]",1,KPJQKN,5,0,5,0,1,,
,,,,,,,,,609ee5fbaa3b177503e2ca88,21,Mężczyzna,2022-06-04_08h10.14.571,task,2021.1.4,Win32,59.95203837,628b806c463b948bc644b84f,629af70116b475111776c9eb,,,,,,,,,,,,,,,,,,,,,,,,3,,,,,,,,,,Task,3,(2x3) - 3,3,,,,,,,,,,,,,,,,,,,1,,,,,,,,,,,,,,,,,,,,,,,"[""3""]",1,[2.590000000000032],0,0,0,2,1,,,,,,,,,,,,,,,,,,
,,,,,,,,,609ee5fbaa3b177503e2ca88,21,Mężczyzna,2022-06-04_08h10.14.571,task,2021.1.4,Win32,59.95203837,628b806c463b948bc644b84f,629af70116b475111776c9eb,,,,,,,,,,,X V Q F H G B L J M P D K C T S W R N Z,,,,,,,,,,,,,,,,,,,,,,,,,,,,,,,,,,,,,,,,,,,,,,,,,,,,,,,,,,,,,,,,,,,,,,,,,,,,0,0,0,0,1,,,,,,,,,,,,,
,,,,,,,,,609ee5fbaa3b177503e2ca88,21,Mężczyzna,2022-06-04_08h10.14.571,task,2021.1.4,Win32,59.95203837,628b806c463b948bc644b84f,629af70116b475111776c9eb,,,,,,,,,,,,,,,,,,,,,,,,3,,,,,,,,,,Task,27,(3/3) + 2,3,,,,,,,,,,,,,,,,,,,1,,,,,,,,,,,,,,,,,,,,,,,"[""3""]",1,[2.3179999999999836],0,0,0,26,1,,,,,,,,,,,,,,,,,,
,,,,,,,,,609ee5fbaa3b177503e2ca88,21,Mężczyzna,2022-06-04_08h10.14.571,task,2021.1.4,Win32,59.95203837,628b806c463b948bc644b84f,629af70116b475111776c9eb,,,,,,,,,,,X V Q F H G B L J M P D K C T S W R N Z,,,,,,,,,,,,,,,,,,,,,,,,,,,,,,,,,,,,,,,,,,,,,,,,,,,,,,,,,,,,,,,,,,,,,,,,,,,,1,0,1,0,1,,,,,,,,,,,,,
,,,,,,,,,609ee5fbaa3b177503e2ca88,21,Mężczyzna,2022-06-04_08h10.14.571,task,2021.1.4,Win32,59.95203837,628b806c463b948bc644b84f,629af70116b475111776c9eb,,,,,,,,,,,,,,,,,,,,,,,,5,,,,,,,,,,Task,29,(3x8) - 19 ,5,,,,,,,,,,,,,,,,,,,1,,,,,,,,,,,,,,,,,,,,,,,"[""5""]",1,[5.6310000000000855],0,0,0,28,1,,,,,,,,,,,,,,,,,,
,,,,,,,,,609ee5fbaa3b177503e2ca88,21,Mężczyzna,2022-06-04_08h10.14.571,task,2021.1.4,Win32,59.95203837,628b806c463b948bc644b84f,629af70116b475111776c9eb,,,,,,,,,,,X V Q F H G B L J M P D K C T S W R N Z,,,,,,,,,,,,,,,,,,,,,,,,,,,,,,,,,,,,,,,,,,,,,,,,,,,,,,,,,,,,,,,,,,,,,,,,,,,,2,0,2,0,1,,,,,,,,,,,,,
,,,,,,,,,609ee5fbaa3b177503e2ca88,21,Mężczyzna,2022-06-04_08h10.14.571,task,2021.1.4,Win32,59.95203837,628b806c463b948bc644b84f,629af70116b475111776c9eb,,,,,,,,,,,,,,,,,,,,,,,,7,,,,,,,,,,Task,20,(18/9) + 1,3,,,,,,,,,,,,,,,,,,,0,,,,,,,,,,,,,,,,,,,,,,,"[""7""]",0,[3.225999999999999],0,0,0,19,1,,,,,,,,,,,,,,,,,,
,,,,,,,,,609ee5fbaa3b177503e2ca88,21,Mężczyzna,2022-06-04_08h10.14.571,task,2021.1.4,Win32,59.95203837,628b806c463b948bc644b84f,629af70116b475111776c9eb,,,,,,,,,,,,,,,,,,,,,,,,1,,,,,,,,,,Task,9,(3x7) - 20,1,,,,,,,,,,,,,,,,,,,1,,,,,,,,,,,,,,,,,,,,,,,"[""1""]",1,[4.892000000000053],0,1,1,8,1,,,,,,,,,,,,,,,,,,
,,,,,,,,,609ee5fbaa3b177503e2ca88,21,Mężczyzna,2022-06-04_08h10.14.571,task,2021.1.4,Win32,59.95203837,628b806c463b948bc644b84f,629af70116b475111776c9eb,,,,,,,,,,,X V Q F H G B L J M P D K C T S W R N Z,,,,,,,,,,,,,,,,,,,,,,,,,,,,,,,,,,,,,,,,,,,,,,,,,,,,,,,,,,,,,,,,,,,,,,,,,,,,3,0,3,0,1,,,,,,,,,,,,,
,,,,,,,,,609ee5fbaa3b177503e2ca88,21,Mężczyzna,2022-06-04_08h10.14.571,task,2021.1.4,Win32,59.95203837,628b806c463b948bc644b84f,629af70116b475111776c9eb,,,,,,,,,,,,,,,,,,,,,,,,8,,,,,,,,,,Task,15,(3x7) - 13,8,,,,,,,,,,,,,,,,,,,1,,,,,,,,,,,,,,,,,,,,,,,"[""8""]",1,[9.547000000000025],0,0,0,14,1,,,,,,,,,,,,,,,,,,
,,,,,,,,,609ee5fbaa3b177503e2ca88,21,Mężczyzna,2022-06-04_08h10.14.571,task,2021.1.4,Win32,59.95203837,628b806c463b948bc644b84f,629af70116b475111776c9eb,,,,,,,,,,,X V Q F H G B L J M P D K C T S W R N Z,,,,,,,,,,,,,,,,,,,,,,,,,,,,,,,,,,,,,,,,,,,,,,,,,,,,,,,,,,,,,,,,,,,,,,,,,,,,4,0,4,0,1,,,,,,,,,,,,,
,,,,,,,,,609ee5fbaa3b177503e2ca88,21,Mężczyzna,2022-06-04_08h10.14.571,task,2021.1.4,Win32,59.95203837,628b806c463b948bc644b84f,629af70116b475111776c9eb,,,,,,,,,,,,,,,,,,,,,,,,7,,,,,,,,,,Task,14,(2x2) + 3,7,,,,,,,,,,,,,,,,,,,1,,,,,,,,,,,,,,,,,,,,,,,"[""7""]",1,[2.4480000000000928],0,0,0,13,1,,,,,,,,,,,,,,,,,,
,,,,,,,,,609ee5fbaa3b177503e2ca88,21,Mężczyzna,2022-06-04_08h10.14.571,task,2021.1.4,Win32,59.95203837,628b806c463b948bc644b84f,629af70116b475111776c9eb,,,,,,,,,,,X V Q F H G B L J M P D K C T S W R N Z,,,,,,,,,,,,,,,,,,,,,,,,,,,,,,,,,,,,,,,,,,,,,,,,,,,,,,,,,,,,,,,,,,,,,,,,,,,,5,0,5,0,1,,,,,,,,,,,,,
,,,,,,,,,609ee5fbaa3b177503e2ca88,21,Mężczyzna,2022-06-04_08h10.14.571,task,2021.1.4,Win32,59.95203837,628b806c463b948bc644b84f,629af70116b475111776c9eb,,,,,,,,,,,,,,,,,,,,,,,,5,,,,,,,,,,Task,22,(3x1) + 2,5,,,,,,,,,,,,,,,,,,,1,,,,,,,,,,,,,,,,,,,,,,,"[""5""]",1,[8.466000000000008],0,0,0,21,1,,,,,,,,,,,,,,,,,,
,,,,,,,,,609ee5fbaa3b177503e2ca88,21,Mężczyzna,2022-06-04_08h10.14.571,task,2021.1.4,Win32,59.95203837,628b806c463b948bc644b84f,629af70116b475111776c9eb,,,,,,,,,,,X V Q F H G B L J M P D K C T S W R N Z,,,,,,,,,,,,,,,,,,,,,,,,,,,,,,,,,,,,,,,,,,,,,,,,,,,,,,,,,,,,,,,,,,,,,,,,,,,,6,0,6,0,1,,,,,,,,,,,,,
,,,,,,,,,609ee5fbaa3b177503e2ca88,21,Mężczyzna,2022-06-04_08h10.14.571,task,2021.1.4,Win32,59.95203837,628b806c463b948bc644b84f,629af70116b475111776c9eb,,,,,,,,,,,,,,,,,,,,,,,,,,,,,,,,,,,,,,,,,,,,,,,,,,,,,,,,,,,,,,,,,,,,,,,,,,,,,,,,,,,,,,,,,,,,tznjnzm,"[""t"",""z"",""n"",""j"",""n"",""z"",""m""]",0,"[2.146000000000072,2.7450000000000045,3.0570000000000164,3.48599999999999,5.123000000000047,6.739000000000033,7.518000000000029,8.163000000000011]",0,TMZJNSM,6,0,6,0,1,,
,,,,,,,,,609ee5fbaa3b177503e2ca88,21,Mężczyzna,2022-06-04_08h10.14.571,task,2021.1.4,Win32,59.95203837,628b806c463b948bc644b84f,629af70116b475111776c9eb,,,,,,,,,,,,,,,,,,,,,,,,9,,,,,,,,,,Task,24,(2x2) + 5,9,,,,,,,,,,,,,,,,,,,1,,,,,,,,,,,,,,,,,,,,,,,"[""9""]",1,[2.5529999999999973],0,0,0,23,1,,,,,,,,,,,,,,,,,,
,,,,,,,,,609ee5fbaa3b177503e2ca88,21,Mężczyzna,2022-06-04_08h10.14.571,task,2021.1.4,Win32,59.95203837,628b806c463b948bc644b84f,629af70116b475111776c9eb,,,,,,,,,,,X V Q F H G B L J M P D K C T S W R N Z,,,,,,,,,,,,,,,,,,,,,,,,,,,,,,,,,,,,,,,,,,,,,,,,,,,,,,,,,,,,,,,,,,,,,,,,,,,,0,0,0,0,1,,,,,,,,,,,,,
,,,,,,,,,609ee5fbaa3b177503e2ca88,21,Mężczyzna,2022-06-04_08h10.14.571,task,2021.1.4,Win32,59.95203837,628b806c463b948bc644b84f,629af70116b475111776c9eb,,,,,,,,,,,,,,,,,,,,,,,,2,,,,,,,,,,Task,2,(2x2) - 2,2,,,,,,,,,,,,,,,,,,,1,,,,,,,,,,,,,,,,,,,,,,,"[""2""]",1,[1.9249999999999545],0,0,0,1,1,,,,,,,,,,,,,,,,,,
,,,,,,,,,609ee5fbaa3b177503e2ca88,21,Mężczyzna,2022-06-04_08h10.14.571,task,2021.1.4,Win32,59.95203837,628b806c463b948bc644b84f,629af70116b475111776c9eb,,,,,,,,,,,X V Q F H G B L J M P D K C T S W R N Z,,,,,,,,,,,,,,,,,,,,,,,,,,,,,,,,,,,,,,,,,,,,,,,,,,,,,,,,,,,,,,,,,,,,,,,,,,,,1,0,1,0,1,,,,,,,,,,,,,
,,,,,,,,,609ee5fbaa3b177503e2ca88,21,Mężczyzna,2022-06-04_08h10.14.571,task,2021.1.4,Win32,59.95203837,628b806c463b948bc644b84f,629af70116b475111776c9eb,,,,,,,,,,,,,,,,,,,,,,,,1,,,,,,,,,,Task,18,(16/4) - 3,1,,,,,,,,,,,,,,,,,,,1,,,,,,,,,,,,,,,,,,,,,,,"[""1""]",1,[5.981999999999971],0,0,0,17,1,,,,,,,,,,,,,,,,,,
,,,,,,,,,609ee5fbaa3b177503e2ca88,21,Mężczyzna,2022-06-04_08h10.14.571,task,2021.1.4,Win32,59.95203837,628b806c463b948bc644b84f,629af70116b475111776c9eb,,,,,,,,,,,X V Q F H G B L J M P D K C T S W R N Z,,,,,,,,,,,,,,,,,,,,,,,,,,,,,,,,,,,,,,,,,,,,,,,,,,,,,,,,,,,,,,,,,,,,,,,,,,,,2,0,2,0,1,,,,,,,,,,,,,
,,,,,,,,,609ee5fbaa3b177503e2ca88,21,Mężczyzna,2022-06-04_08h10.14.571,task,2021.1.4,Win32,59.95203837,628b806c463b948bc644b84f,629af70116b475111776c9eb,,,,,,,,,,,,,,,,,,,,,,,,0,,,,,,,,,,Task,33,(1/1) - 1,0,,,,,,,,,,,,,,,,,,,1,,,,,,,,,,,,,,,,,,,,,,,"[""0""]",1,[2.691000000000031],0,0,0,32,1,,,,,,,,,,,,,,,,,,
,,,,,,,,,609ee5fbaa3b177503e2ca88,21,Mężczyzna,2022-06-04_08h10.14.571,task,2021.1.4,Win32,59.95203837,628b806c463b948bc644b84f,629af70116b475111776c9eb,,,,,,,,,,,X V Q F H G B L J M P D K C T S W R N Z,,,,,,,,,,,,,,,,,,,,,,,,,,,,,,,,,,,,,,,,,,,,,,,,,,,,,,,,,,,,,,,,,,,,,,,,,,,,3,0,3,0,1,,,,,,,,,,,,,
,,,,,,,,,609ee5fbaa3b177503e2ca88,21,Mężczyzna,2022-06-04_08h10.14.571,task,2021.1.4,Win32,59.95203837,628b806c463b948bc644b84f,629af70116b475111776c9eb,,,,,,,,,,,,,,,,,,,,,,,,8,,,,,,,,,,Task,23,(2x3) + 2,8,,,,,,,,,,,,,,,,,,,1,,,,,,,,,,,,,,,,,,,,,,,"[""8""]",1,[6.203999999999951],0,0,0,22,1,,,,,,,,,,,,,,,,,,
,,,,,,,,,609ee5fbaa3b177503e2ca88,21,Mężczyzna,2022-06-04_08h10.14.571,task,2021.1.4,Win32,59.95203837,628b806c463b948bc644b84f,629af70116b475111776c9eb,,,,,,,,,,,X V Q F H G B L J M P D K C T S W R N Z,,,,,,,,,,,,,,,,,,,,,,,,,,,,,,,,,,,,,,,,,,,,,,,,,,,,,,,,,,,,,,,,,,,,,,,,,,,,4,0,4,0,1,,,,,,,,,,,,,
,,,,,,,,,609ee5fbaa3b177503e2ca88,21,Mężczyzna,2022-06-04_08h10.14.571,task,2021.1.4,Win32,59.95203837,628b806c463b948bc644b84f,629af70116b475111776c9eb,,,,,,,,,,,,,,,,,,,,,,,,1,,,,,,,,,,Task,34,(9/3) - 2,1,,,,,,,,,,,,,,,,,,,1,,,,,,,,,,,,,,,,,,,,,,,"[""1""]",1,[3.6689999999999827],0,0,0,33,1,,,,,,,,,,,,,,,,,,
,,,,,,,,,609ee5fbaa3b177503e2ca88,21,Mężczyzna,2022-06-04_08h10.14.571,task,2021.1.4,Win32,59.95203837,628b806c463b948bc644b84f,629af70116b475111776c9eb,,,,,,,,,,,X V Q F H G B L J M P D K C T S W R N Z,,,,,,,,,,,,,,,,,,,,,,,,,,,,,,,,,,,,,,,,,,,,,,,,,,,,,,,,,,,,,,,,,,,,,,,,,,,,5,0,5,0,1,,,,,,,,,,,,,
,,,,,,,,,609ee5fbaa3b177503e2ca88,21,Mężczyzna,2022-06-04_08h10.14.571,task,2021.1.4,Win32,59.95203837,628b806c463b948bc644b84f,629af70116b475111776c9eb,,,,,,,,,,,,,,,,,,,,,,,,0,,,,,,,,,,Task,33,(1/1) - 1,0,,,,,,,,,,,,,,,,,,,1,,,,,,,,,,,,,,,,,,,,,,,"[""0""]",1,[2.04099999999994],0,0,0,32,1,,,,,,,,,,,,,,,,,,
