key_resp_15.keys,key_resp_15.rt,key_resp_16.keys,key_resp_16.rt,key_resp_4.keys,key_resp_4.rt,next_letter.thisRepN,next_letter.thisTrialN,next_letter.thisN,next_letter.thisIndex,next_letter.ran,letter,participant,Wiek*,Płeć,date,expName,psychopyVersion,OS,frameRate,study_id,session,simple_recall,key_resp_5.keys,key_resp_5.rt,simple_recall_corr,simple_recall_corrkeys,next_level.thisRepN,next_level.thisTrialN,next_level.thisN,next_level.thisIndex,next_level.ran,key_resp_2.keys,key_resp_2.rt,digit_answer,key_resp.keys,key_resp.corr,key_resp.rt,RT_list,next_equation.thisRepN,next_equation.thisTrialN,next_equation.thisN,next_equation.thisIndex,next_equation.ran,Task,Trial,Problem,Operation_answer,processing_score,sumRT,meanRT,sumdiff,sd,RT,key_resp_3.keys,key_resp_3.rt,repeat_practice.thisRepN,repeat_practice.thisTrialN,repeat_practice.thisN,repeat_practice.thisIndex,repeat_practice.ran,key_resp_6.keys,key_resp_6.rt,key_resp_11.keys,key_resp_11.corr,operation_correct,repeat_if_wrong_prac.thisRepN,repeat_if_wrong_prac.thisTrialN,repeat_if_wrong_prac.thisN,repeat_if_wrong_prac.thisIndex,repeat_if_wrong_prac.ran,key_resp_11.rt,span_size_prac.thisRepN,span_size_prac.thisTrialN,span_size_prac.thisN,span_size_prac.thisIndex,span_size_prac.ran,complex_recall_practice,key_resp_9.keys,key_resp_9.corr,key_resp_9.rt,complex_prac_corr,span_recall_prac.thisRepN,span_recall_prac.thisTrialN,span_recall_prac.thisN,span_recall_prac.thisIndex,span_recall_prac.ran,key_resp_10.keys,key_resp_10.rt,key_resp_7.keys,key_resp_7.corr,key_resp_7.rt,repeat_if_wrong.thisRepN,repeat_if_wrong.thisTrialN,repeat_if_wrong.thisN,repeat_if_wrong.thisIndex,repeat_if_wrong.ran,span_size.thisRepN,span_size.thisTrialN,span_size.thisN,span_size.thisIndex,span_size.ran,complex_recall,key_resp_8.keys,key_resp_8.corr,key_resp_8.rt,complex_recall_corr,complex_recall_corrkeys,span_recall.thisRepN,span_recall.thisTrialN,span_recall.thisN,span_recall.thisIndex,span_recall.ran,key_resp_13.keys,key_resp_13.corr,key_resp_13.rt,random_loop.thisRepN,random_loop.thisTrialN,random_loop.thisN,random_loop.thisIndex,random_loop.ran,key_resp_12.keys,key_resp_12.rt
space,14.485,space,40.081,space,5.304,0,0,0,0,1,X V Q F H G B L J M P D K C T S W R N Z,60aa7fb5c44ce529d3cfc4ce,20,Kobieta,2022-06-11_09h30.31.594,task,2021.1.4,Win32,60.0240096,6299f149e92ead563fba08ef,62a443d29eac3206907b01bd,,,,,,,,,,,,,,,,,,,,,,,,,,,,,,,,,,,,,,,,,,,,,,,,,,,,,,,,,,,,,,,,,,,,,,,,,,,,,,,,,,,,,,,,,,,,,,,,,,,,,
,,,,,,1,0,1,0,1,X V Q F H G B L J M P D K C T S W R N Z,60aa7fb5c44ce529d3cfc4ce,20,Kobieta,2022-06-11_09h30.31.594,task,2021.1.4,Win32,60.0240096,6299f149e92ead563fba08ef,62a443d29eac3206907b01bd,,,,,,,,,,,,,,,,,,,,,,,,,,,,,,,,,,,,,,,,,,,,,,,,,,,,,,,,,,,,,,,,,,,,,,,,,,,,,,,,,,,,,,,,,,,,,,,,,,,,,
,,,,,,,,,,,,60aa7fb5c44ce529d3cfc4ce,20,Kobieta,2022-06-11_09h30.31.594,task,2021.1.4,Win32,60.0240096,6299f149e92ead563fba08ef,62a443d29eac3206907b01bd,zd,"[""z"",""d""]","[4.441999999999979,5.2809999999999775,6.046999999999997]",1,ZD,0,0,0,0,1,,,,,,,,,,,,,,,,,,,,,,,,,,,,,,,,,,,,,,,,,,,,,,,,,,,,,,,,,,,,,,,,,,,,,,,,,,,,,,,,,,,,,,,,,,,
,,,,,,0,0,0,0,1,X V Q F H G B L J M P D K C T S W R N Z,60aa7fb5c44ce529d3cfc4ce,20,Kobieta,2022-06-11_09h30.31.594,task,2021.1.4,Win32,60.0240096,6299f149e92ead563fba08ef,62a443d29eac3206907b01bd,,,,,,,,,,,,,,,,,,,,,,,,,,,,,,,,,,,,,,,,,,,,,,,,,,,,,,,,,,,,,,,,,,,,,,,,,,,,,,,,,,,,,,,,,,,,,,,,,,,,,
,,,,,,1,0,1,0,1,X V Q F H G B L J M P D K C T S W R N Z,60aa7fb5c44ce529d3cfc4ce,20,Kobieta,2022-06-11_09h30.31.594,task,2021.1.4,Win32,60.0240096,6299f149e92ead563fba08ef,62a443d29eac3206907b01bd,,,,,,,,,,,,,,,,,,,,,,,,,,,,,,,,,,,,,,,,,,,,,,,,,,,,,,,,,,,,,,,,,,,,,,,,,,,,,,,,,,,,,,,,,,,,,,,,,,,,,
,,,,,,,,,,,,60aa7fb5c44ce529d3cfc4ce,20,Kobieta,2022-06-11_09h30.31.594,task,2021.1.4,Win32,60.0240096,6299f149e92ead563fba08ef,62a443d29eac3206907b01bd,zp,"[""z"",""p""]","[1.3909999999999911,1.5699999999999932,2.225999999999999]",1,ZP,1,0,1,0,1,,,,,,,,,,,,,,,,,,,,,,,,,,,,,,,,,,,,,,,,,,,,,,,,,,,,,,,,,,,,,,,,,,,,,,,,,,,,,,,,,,,,,,,,,,,
,,,,,,0,0,0,0,1,X V Q F H G B L J M P D K C T S W R N Z,60aa7fb5c44ce529d3cfc4ce,20,Kobieta,2022-06-11_09h30.31.594,task,2021.1.4,Win32,60.0240096,6299f149e92ead563fba08ef,62a443d29eac3206907b01bd,,,,,,,,,,,,,,,,,,,,,,,,,,,,,,,,,,,,,,,,,,,,,,,,,,,,,,,,,,,,,,,,,,,,,,,,,,,,,,,,,,,,,,,,,,,,,,,,,,,,,
,,,,,,1,0,1,0,1,X V Q F H G B L J M P D K C T S W R N Z,60aa7fb5c44ce529d3cfc4ce,20,Kobieta,2022-06-11_09h30.31.594,task,2021.1.4,Win32,60.0240096,6299f149e92ead563fba08ef,62a443d29eac3206907b01bd,,,,,,,,,,,,,,,,,,,,,,,,,,,,,,,,,,,,,,,,,,,,,,,,,,,,,,,,,,,,,,,,,,,,,,,,,,,,,,,,,,,,,,,,,,,,,,,,,,,,,
,,,,,,2,0,2,0,1,X V Q F H G B L J M P D K C T S W R N Z,60aa7fb5c44ce529d3cfc4ce,20,Kobieta,2022-06-11_09h30.31.594,task,2021.1.4,Win32,60.0240096,6299f149e92ead563fba08ef,62a443d29eac3206907b01bd,,,,,,,,,,,,,,,,,,,,,,,,,,,,,,,,,,,,,,,,,,,,,,,,,,,,,,,,,,,,,,,,,,,,,,,,,,,,,,,,,,,,,,,,,,,,,,,,,,,,,
,,,,,,,,,,,,60aa7fb5c44ce529d3cfc4ce,20,Kobieta,2022-06-11_09h30.31.594,task,2021.1.4,Win32,60.0240096,6299f149e92ead563fba08ef,62a443d29eac3206907b01bd,njx,"[""n"",""j"",""x""]","[1.0409999999999968,1.2700000000000102,1.4420000000000073,2.2760000000000105]",1,NJX,2,0,2,0,1,,,,,,,,,,,,,,,,,,,,,,,,,,,,,,,,,,,,,,,,,,,,,,,,,,,,,,,,,,,,,,,,,,,,,,,,,,,,,,,,,,,,,,,,,,,
,,,,,,0,0,0,0,1,X V Q F H G B L J M P D K C T S W R N Z,60aa7fb5c44ce529d3cfc4ce,20,Kobieta,2022-06-11_09h30.31.594,task,2021.1.4,Win32,60.0240096,6299f149e92ead563fba08ef,62a443d29eac3206907b01bd,,,,,,,,,,,,,,,,,,,,,,,,,,,,,,,,,,,,,,,,,,,,,,,,,,,,,,,,,,,,,,,,,,,,,,,,,,,,,,,,,,,,,,,,,,,,,,,,,,,,,
,,,,,,1,0,1,0,1,X V Q F H G B L J M P D K C T S W R N Z,60aa7fb5c44ce529d3cfc4ce,20,Kobieta,2022-06-11_09h30.31.594,task,2021.1.4,Win32,60.0240096,6299f149e92ead563fba08ef,62a443d29eac3206907b01bd,,,,,,,,,,,,,,,,,,,,,,,,,,,,,,,,,,,,,,,,,,,,,,,,,,,,,,,,,,,,,,,,,,,,,,,,,,,,,,,,,,,,,,,,,,,,,,,,,,,,,
,,,,,,2,0,2,0,1,X V Q F H G B L J M P D K C T S W R N Z,60aa7fb5c44ce529d3cfc4ce,20,Kobieta,2022-06-11_09h30.31.594,task,2021.1.4,Win32,60.0240096,6299f149e92ead563fba08ef,62a443d29eac3206907b01bd,,,,,,,,,,,,,,,,,,,,,,,,,,,,,,,,,,,,,,,,,,,,,,,,,,,,,,,,,,,,,,,,,,,,,,,,,,,,,,,,,,,,,,,,,,,,,,,,,,,,,
,,,,,,,,,,,,60aa7fb5c44ce529d3cfc4ce,20,Kobieta,2022-06-11_09h30.31.594,task,2021.1.4,Win32,60.0240096,6299f149e92ead563fba08ef,62a443d29eac3206907b01bd,vzc,"[""v"",""z"",""c""]","[2.387999999999977,2.7879999999999825,3.022999999999996,3.673999999999978]",1,VZC,3,0,3,0,1,,,,,,,,,,,,,,,,,,,,,,,,,,,,,,,,,,,,,,,,,,,,,,,,,,,,,,,,,,,,,,,,,,,,,,,,,,,,,,,,,,,,,,,,,,,
,,,,,,0,0,0,0,1,X V Q F H G B L J M P D K C T S W R N Z,60aa7fb5c44ce529d3cfc4ce,20,Kobieta,2022-06-11_09h30.31.594,task,2021.1.4,Win32,60.0240096,6299f149e92ead563fba08ef,62a443d29eac3206907b01bd,,,,,,,,,,,,,,,,,,,,,,,,,,,,,,,,,,,,,,,,,,,,,,,,,,,,,,,,,,,,,,,,,,,,,,,,,,,,,,,,,,,,,,,,,,,,,,,,,,,,,
,,,,,,1,0,1,0,1,X V Q F H G B L J M P D K C T S W R N Z,60aa7fb5c44ce529d3cfc4ce,20,Kobieta,2022-06-11_09h30.31.594,task,2021.1.4,Win32,60.0240096,6299f149e92ead563fba08ef,62a443d29eac3206907b01bd,,,,,,,,,,,,,,,,,,,,,,,,,,,,,,,,,,,,,,,,,,,,,,,,,,,,,,,,,,,,,,,,,,,,,,,,,,,,,,,,,,,,,,,,,,,,,,,,,,,,,
,,,,,,2,0,2,0,1,X V Q F H G B L J M P D K C T S W R N Z,60aa7fb5c44ce529d3cfc4ce,20,Kobieta,2022-06-11_09h30.31.594,task,2021.1.4,Win32,60.0240096,6299f149e92ead563fba08ef,62a443d29eac3206907b01bd,,,,,,,,,,,,,,,,,,,,,,,,,,,,,,,,,,,,,,,,,,,,,,,,,,,,,,,,,,,,,,,,,,,,,,,,,,,,,,,,,,,,,,,,,,,,,,,,,,,,,
,,,,,,3,0,3,0,1,X V Q F H G B L J M P D K C T S W R N Z,60aa7fb5c44ce529d3cfc4ce,20,Kobieta,2022-06-11_09h30.31.594,task,2021.1.4,Win32,60.0240096,6299f149e92ead563fba08ef,62a443d29eac3206907b01bd,,,,,,,,,,,,,,,,,,,,,,,,,,,,,,,,,,,,,,,,,,,,,,,,,,,,,,,,,,,,,,,,,,,,,,,,,,,,,,,,,,,,,,,,,,,,,,,,,,,,,
,,,,,,,,,,,,60aa7fb5c44ce529d3cfc4ce,20,Kobieta,2022-06-11_09h30.31.594,task,2021.1.4,Win32,60.0240096,6299f149e92ead563fba08ef,62a443d29eac3206907b01bd,kznc,"[""k"",""z"",""n"",""c""]","[1.1599999999999966,1.7319999999999993,2.265999999999991,2.787000000000006,3.436000000000007]",1,KZNC,4,0,4,0,1,,,,,,,,,,,,,,,,,,,,,,,,,,,,,,,,,,,,,,,,,,,,,,,,,,,,,,,,,,,,,,,,,,,,,,,,,,,,,,,,,,,,,,,,,,,
,,,,,,0,0,0,0,1,X V Q F H G B L J M P D K C T S W R N Z,60aa7fb5c44ce529d3cfc4ce,20,Kobieta,2022-06-11_09h30.31.594,task,2021.1.4,Win32,60.0240096,6299f149e92ead563fba08ef,62a443d29eac3206907b01bd,,,,,,,,,,,,,,,,,,,,,,,,,,,,,,,,,,,,,,,,,,,,,,,,,,,,,,,,,,,,,,,,,,,,,,,,,,,,,,,,,,,,,,,,,,,,,,,,,,,,,
,,,,,,1,0,1,0,1,X V Q F H G B L J M P D K C T S W R N Z,60aa7fb5c44ce529d3cfc4ce,20,Kobieta,2022-06-11_09h30.31.594,task,2021.1.4,Win32,60.0240096,6299f149e92ead563fba08ef,62a443d29eac3206907b01bd,,,,,,,,,,,,,,,,,,,,,,,,,,,,,,,,,,,,,,,,,,,,,,,,,,,,,,,,,,,,,,,,,,,,,,,,,,,,,,,,,,,,,,,,,,,,,,,,,,,,,
,,,,,,2,0,2,0,1,X V Q F H G B L J M P D K C T S W R N Z,60aa7fb5c44ce529d3cfc4ce,20,Kobieta,2022-06-11_09h30.31.594,task,2021.1.4,Win32,60.0240096,6299f149e92ead563fba08ef,62a443d29eac3206907b01bd,,,,,,,,,,,,,,,,,,,,,,,,,,,,,,,,,,,,,,,,,,,,,,,,,,,,,,,,,,,,,,,,,,,,,,,,,,,,,,,,,,,,,,,,,,,,,,,,,,,,,
,,,,,,3,0,3,0,1,X V Q F H G B L J M P D K C T S W R N Z,60aa7fb5c44ce529d3cfc4ce,20,Kobieta,2022-06-11_09h30.31.594,task,2021.1.4,Win32,60.0240096,6299f149e92ead563fba08ef,62a443d29eac3206907b01bd,,,,,,,,,,,,,,,,,,,,,,,,,,,,,,,,,,,,,,,,,,,,,,,,,,,,,,,,,,,,,,,,,,,,,,,,,,,,,,,,,,,,,,,,,,,,,,,,,,,,,
,,,,,,,,,,,,60aa7fb5c44ce529d3cfc4ce,20,Kobieta,2022-06-11_09h30.31.594,task,2021.1.4,Win32,60.0240096,6299f149e92ead563fba08ef,62a443d29eac3206907b01bd,mvpz,"[""m"",""v"",""p"",""z""]","[1.193000000000012,1.7620000000000005,2.234000000000009,2.7319999999999993,3.4010000000000105]",1,MVPZ,5,0,5,0,1,,,,,,,,,,,,,,,,,,,,,,,,,,,,,,,,,,,,,,,,,,,,,,,,,,,,,,,,,,,,,,,,,,,,,,,,,,,,,,,,,,,,,,,,,,,
,,,,,,0,0,0,0,1,X V Q F H G B L J M P D K C T S W R N Z,60aa7fb5c44ce529d3cfc4ce,20,Kobieta,2022-06-11_09h30.31.594,task,2021.1.4,Win32,60.0240096,6299f149e92ead563fba08ef,62a443d29eac3206907b01bd,,,,,,,,,,,,,,,,,,,,,,,,,,,,,,,,,,,,,,,,,,,,,,,,,,,,,,,,,,,,,,,,,,,,,,,,,,,,,,,,,,,,,,,,,,,,,,,,,,,,,
,,,,,,1,0,1,0,1,X V Q F H G B L J M P D K C T S W R N Z,60aa7fb5c44ce529d3cfc4ce,20,Kobieta,2022-06-11_09h30.31.594,task,2021.1.4,Win32,60.0240096,6299f149e92ead563fba08ef,62a443d29eac3206907b01bd,,,,,,,,,,,,,,,,,,,,,,,,,,,,,,,,,,,,,,,,,,,,,,,,,,,,,,,,,,,,,,,,,,,,,,,,,,,,,,,,,,,,,,,,,,,,,,,,,,,,,
,,,,,,2,0,2,0,1,X V Q F H G B L J M P D K C T S W R N Z,60aa7fb5c44ce529d3cfc4ce,20,Kobieta,2022-06-11_09h30.31.594,task,2021.1.4,Win32,60.0240096,6299f149e92ead563fba08ef,62a443d29eac3206907b01bd,,,,,,,,,,,,,,,,,,,,,,,,,,,,,,,,,,,,,,,,,,,,,,,,,,,,,,,,,,,,,,,,,,,,,,,,,,,,,,,,,,,,,,,,,,,,,,,,,,,,,
,,,,,,3,0,3,0,1,X V Q F H G B L J M P D K C T S W R N Z,60aa7fb5c44ce529d3cfc4ce,20,Kobieta,2022-06-11_09h30.31.594,task,2021.1.4,Win32,60.0240096,6299f149e92ead563fba08ef,62a443d29eac3206907b01bd,,,,,,,,,,,,,,,,,,,,,,,,,,,,,,,,,,,,,,,,,,,,,,,,,,,,,,,,,,,,,,,,,,,,,,,,,,,,,,,,,,,,,,,,,,,,,,,,,,,,,
,,,,,,4,0,4,0,1,X V Q F H G B L J M P D K C T S W R N Z,60aa7fb5c44ce529d3cfc4ce,20,Kobieta,2022-06-11_09h30.31.594,task,2021.1.4,Win32,60.0240096,6299f149e92ead563fba08ef,62a443d29eac3206907b01bd,,,,,,,,,,,,,,,,,,,,,,,,,,,,,,,,,,,,,,,,,,,,,,,,,,,,,,,,,,,,,,,,,,,,,,,,,,,,,,,,,,,,,,,,,,,,,,,,,,,,,
,,,,,,,,,,,,60aa7fb5c44ce529d3cfc4ce,20,Kobieta,2022-06-11_09h30.31.594,task,2021.1.4,Win32,60.0240096,6299f149e92ead563fba08ef,62a443d29eac3206907b01bd,lhmtm,"[""l"",""h"",""m"",""t"",""m""]","[1.0250000000000057,1.3050000000000068,1.556999999999988,1.875,2.2139999999999986,2.75]",1,LHMTM,6,0,6,0,1,,,,,,,,,,,,,,,,,,,,,,,,,,,,,,,,,,,,,,,,,,,,,,,,,,,,,,,,,,,,,,,,,,,,,,,,,,,,,,,,,,,,,,,,,,,
,,,,,,0,0,0,0,1,X V Q F H G B L J M P D K C T S W R N Z,60aa7fb5c44ce529d3cfc4ce,20,Kobieta,2022-06-11_09h30.31.594,task,2021.1.4,Win32,60.0240096,6299f149e92ead563fba08ef,62a443d29eac3206907b01bd,,,,,,,,,,,,,,,,,,,,,,,,,,,,,,,,,,,,,,,,,,,,,,,,,,,,,,,,,,,,,,,,,,,,,,,,,,,,,,,,,,,,,,,,,,,,,,,,,,,,,
,,,,,,1,0,1,0,1,X V Q F H G B L J M P D K C T S W R N Z,60aa7fb5c44ce529d3cfc4ce,20,Kobieta,2022-06-11_09h30.31.594,task,2021.1.4,Win32,60.0240096,6299f149e92ead563fba08ef,62a443d29eac3206907b01bd,,,,,,,,,,,,,,,,,,,,,,,,,,,,,,,,,,,,,,,,,,,,,,,,,,,,,,,,,,,,,,,,,,,,,,,,,,,,,,,,,,,,,,,,,,,,,,,,,,,,,
,,,,,,2,0,2,0,1,X V Q F H G B L J M P D K C T S W R N Z,60aa7fb5c44ce529d3cfc4ce,20,Kobieta,2022-06-11_09h30.31.594,task,2021.1.4,Win32,60.0240096,6299f149e92ead563fba08ef,62a443d29eac3206907b01bd,,,,,,,,,,,,,,,,,,,,,,,,,,,,,,,,,,,,,,,,,,,,,,,,,,,,,,,,,,,,,,,,,,,,,,,,,,,,,,,,,,,,,,,,,,,,,,,,,,,,,
,,,,,,3,0,3,0,1,X V Q F H G B L J M P D K C T S W R N Z,60aa7fb5c44ce529d3cfc4ce,20,Kobieta,2022-06-11_09h30.31.594,task,2021.1.4,Win32,60.0240096,6299f149e92ead563fba08ef,62a443d29eac3206907b01bd,,,,,,,,,,,,,,,,,,,,,,,,,,,,,,,,,,,,,,,,,,,,,,,,,,,,,,,,,,,,,,,,,,,,,,,,,,,,,,,,,,,,,,,,,,,,,,,,,,,,,
,,,,,,4,0,4,0,1,X V Q F H G B L J M P D K C T S W R N Z,60aa7fb5c44ce529d3cfc4ce,20,Kobieta,2022-06-11_09h30.31.594,task,2021.1.4,Win32,60.0240096,6299f149e92ead563fba08ef,62a443d29eac3206907b01bd,,,,,,,,,,,,,,,,,,,,,,,,,,,,,,,,,,,,,,,,,,,,,,,,,,,,,,,,,,,,,,,,,,,,,,,,,,,,,,,,,,,,,,,,,,,,,,,,,,,,,
,,,,,,,,,,,,60aa7fb5c44ce529d3cfc4ce,20,Kobieta,2022-06-11_09h30.31.594,task,2021.1.4,Win32,60.0240096,6299f149e92ead563fba08ef,62a443d29eac3206907b01bd,tkmlp,"[""t"",""k"",""m"",""l"",""p""]","[1.4770000000000039,1.8640000000000043,2.1639999999999873,2.3950000000000102,2.6140000000000043,3.252999999999986]",1,TKMLP,7,0,7,0,1,,,,,,,,,,,,,,,,,,,,,,,,,,,,,,,,,,,,,,,,,,,,,,,,,,,,,,,,,,,,,,,,,,,,,,,,,,,,,,,,,,,,,,,,,,,
,,,,,,0,0,0,0,1,X V Q F H G B L J M P D K C T S W R N Z,60aa7fb5c44ce529d3cfc4ce,20,Kobieta,2022-06-11_09h30.31.594,task,2021.1.4,Win32,60.0240096,6299f149e92ead563fba08ef,62a443d29eac3206907b01bd,,,,,,,,,,,,,,,,,,,,,,,,,,,,,,,,,,,,,,,,,,,,,,,,,,,,,,,,,,,,,,,,,,,,,,,,,,,,,,,,,,,,,,,,,,,,,,,,,,,,,
,,,,,,1,0,1,0,1,X V Q F H G B L J M P D K C T S W R N Z,60aa7fb5c44ce529d3cfc4ce,20,Kobieta,2022-06-11_09h30.31.594,task,2021.1.4,Win32,60.0240096,6299f149e92ead563fba08ef,62a443d29eac3206907b01bd,,,,,,,,,,,,,,,,,,,,,,,,,,,,,,,,,,,,,,,,,,,,,,,,,,,,,,,,,,,,,,,,,,,,,,,,,,,,,,,,,,,,,,,,,,,,,,,,,,,,,
,,,,,,2,0,2,0,1,X V Q F H G B L J M P D K C T S W R N Z,60aa7fb5c44ce529d3cfc4ce,20,Kobieta,2022-06-11_09h30.31.594,task,2021.1.4,Win32,60.0240096,6299f149e92ead563fba08ef,62a443d29eac3206907b01bd,,,,,,,,,,,,,,,,,,,,,,,,,,,,,,,,,,,,,,,,,,,,,,,,,,,,,,,,,,,,,,,,,,,,,,,,,,,,,,,,,,,,,,,,,,,,,,,,,,,,,
,,,,,,3,0,3,0,1,X V Q F H G B L J M P D K C T S W R N Z,60aa7fb5c44ce529d3cfc4ce,20,Kobieta,2022-06-11_09h30.31.594,task,2021.1.4,Win32,60.0240096,6299f149e92ead563fba08ef,62a443d29eac3206907b01bd,,,,,,,,,,,,,,,,,,,,,,,,,,,,,,,,,,,,,,,,,,,,,,,,,,,,,,,,,,,,,,,,,,,,,,,,,,,,,,,,,,,,,,,,,,,,,,,,,,,,,
,,,,,,4,0,4,0,1,X V Q F H G B L J M P D K C T S W R N Z,60aa7fb5c44ce529d3cfc4ce,20,Kobieta,2022-06-11_09h30.31.594,task,2021.1.4,Win32,60.0240096,6299f149e92ead563fba08ef,62a443d29eac3206907b01bd,,,,,,,,,,,,,,,,,,,,,,,,,,,,,,,,,,,,,,,,,,,,,,,,,,,,,,,,,,,,,,,,,,,,,,,,,,,,,,,,,,,,,,,,,,,,,,,,,,,,,
,,,,,,5,0,5,0,1,X V Q F H G B L J M P D K C T S W R N Z,60aa7fb5c44ce529d3cfc4ce,20,Kobieta,2022-06-11_09h30.31.594,task,2021.1.4,Win32,60.0240096,6299f149e92ead563fba08ef,62a443d29eac3206907b01bd,,,,,,,,,,,,,,,,,,,,,,,,,,,,,,,,,,,,,,,,,,,,,,,,,,,,,,,,,,,,,,,,,,,,,,,,,,,,,,,,,,,,,,,,,,,,,,,,,,,,,
,,,,,,,,,,,,60aa7fb5c44ce529d3cfc4ce,20,Kobieta,2022-06-11_09h30.31.594,task,2021.1.4,Win32,60.0240096,6299f149e92ead563fba08ef,62a443d29eac3206907b01bd,tmcxxw,"[""t"",""m"",""c"",""x"",""x"",""w""]","[0.9689999999999941,1.3669999999999902,1.9529999999999745,2.289999999999992,2.6310000000000002,3.126999999999981,3.969999999999999]",1,TMCXXW,8,0,8,0,1,,,,,,,,,,,,,,,,,,,,,,,,,,,,,,,,,,,,,,,,,,,,,,,,,,,,,,,,,,,,,,,,,,,,,,,,,,,,,,,,,,,,,,,,,,,
,,,,,,0,0,0,0,1,X V Q F H G B L J M P D K C T S W R N Z,60aa7fb5c44ce529d3cfc4ce,20,Kobieta,2022-06-11_09h30.31.594,task,2021.1.4,Win32,60.0240096,6299f149e92ead563fba08ef,62a443d29eac3206907b01bd,,,,,,,,,,,,,,,,,,,,,,,,,,,,,,,,,,,,,,,,,,,,,,,,,,,,,,,,,,,,,,,,,,,,,,,,,,,,,,,,,,,,,,,,,,,,,,,,,,,,,
,,,,,,1,0,1,0,1,X V Q F H G B L J M P D K C T S W R N Z,60aa7fb5c44ce529d3cfc4ce,20,Kobieta,2022-06-11_09h30.31.594,task,2021.1.4,Win32,60.0240096,6299f149e92ead563fba08ef,62a443d29eac3206907b01bd,,,,,,,,,,,,,,,,,,,,,,,,,,,,,,,,,,,,,,,,,,,,,,,,,,,,,,,,,,,,,,,,,,,,,,,,,,,,,,,,,,,,,,,,,,,,,,,,,,,,,
,,,,,,2,0,2,0,1,X V Q F H G B L J M P D K C T S W R N Z,60aa7fb5c44ce529d3cfc4ce,20,Kobieta,2022-06-11_09h30.31.594,task,2021.1.4,Win32,60.0240096,6299f149e92ead563fba08ef,62a443d29eac3206907b01bd,,,,,,,,,,,,,,,,,,,,,,,,,,,,,,,,,,,,,,,,,,,,,,,,,,,,,,,,,,,,,,,,,,,,,,,,,,,,,,,,,,,,,,,,,,,,,,,,,,,,,
,,,,,,3,0,3,0,1,X V Q F H G B L J M P D K C T S W R N Z,60aa7fb5c44ce529d3cfc4ce,20,Kobieta,2022-06-11_09h30.31.594,task,2021.1.4,Win32,60.0240096,6299f149e92ead563fba08ef,62a443d29eac3206907b01bd,,,,,,,,,,,,,,,,,,,,,,,,,,,,,,,,,,,,,,,,,,,,,,,,,,,,,,,,,,,,,,,,,,,,,,,,,,,,,,,,,,,,,,,,,,,,,,,,,,,,,
,,,,,,4,0,4,0,1,X V Q F H G B L J M P D K C T S W R N Z,60aa7fb5c44ce529d3cfc4ce,20,Kobieta,2022-06-11_09h30.31.594,task,2021.1.4,Win32,60.0240096,6299f149e92ead563fba08ef,62a443d29eac3206907b01bd,,,,,,,,,,,,,,,,,,,,,,,,,,,,,,,,,,,,,,,,,,,,,,,,,,,,,,,,,,,,,,,,,,,,,,,,,,,,,,,,,,,,,,,,,,,,,,,,,,,,,
,,,,,,5,0,5,0,1,X V Q F H G B L J M P D K C T S W R N Z,60aa7fb5c44ce529d3cfc4ce,20,Kobieta,2022-06-11_09h30.31.594,task,2021.1.4,Win32,60.0240096,6299f149e92ead563fba08ef,62a443d29eac3206907b01bd,,,,,,,,,,,,,,,,,,,,,,,,,,,,,,,,,,,,,,,,,,,,,,,,,,,,,,,,,,,,,,,,,,,,,,,,,,,,,,,,,,,,,,,,,,,,,,,,,,,,,
,,,,,,,,,,,,60aa7fb5c44ce529d3cfc4ce,20,Kobieta,2022-06-11_09h30.31.594,task,2021.1.4,Win32,60.0240096,6299f149e92ead563fba08ef,62a443d29eac3206907b01bd,mptnqn,"[""m"",""p"",""t"",""n"",""q"",""n""]","[1.2419999999999902,1.3269999999999982,1.7949999999999875,2.6839999999999975,3.924999999999983,8.180999999999983,9.801999999999992]",0,NPTMQN,9,0,9,0,1,,,,,,,,,,,,,,,,,,,,,,,,,,,,,,,,,,,,,,,,,,,,,,,,,,,,,,,,,,,,,,,,,,,,,,,,,,,,,,,,,,,,,,,,,,,
,,,,,,0,0,0,0,1,X V Q F H G B L J M P D K C T S W R N Z,60aa7fb5c44ce529d3cfc4ce,20,Kobieta,2022-06-11_09h30.31.594,task,2021.1.4,Win32,60.0240096,6299f149e92ead563fba08ef,62a443d29eac3206907b01bd,,,,,,,,,,,,,,,,,,,,,,,,,,,,,,,,,,,,,,,,,,,,,,,,,,,,,,,,,,,,,,,,,,,,,,,,,,,,,,,,,,,,,,,,,,,,,,,,,,,,,
,,,,,,1,0,1,0,1,X V Q F H G B L J M P D K C T S W R N Z,60aa7fb5c44ce529d3cfc4ce,20,Kobieta,2022-06-11_09h30.31.594,task,2021.1.4,Win32,60.0240096,6299f149e92ead563fba08ef,62a443d29eac3206907b01bd,,,,,,,,,,,,,,,,,,,,,,,,,,,,,,,,,,,,,,,,,,,,,,,,,,,,,,,,,,,,,,,,,,,,,,,,,,,,,,,,,,,,,,,,,,,,,,,,,,,,,
,,,,,,2,0,2,0,1,X V Q F H G B L J M P D K C T S W R N Z,60aa7fb5c44ce529d3cfc4ce,20,Kobieta,2022-06-11_09h30.31.594,task,2021.1.4,Win32,60.0240096,6299f149e92ead563fba08ef,62a443d29eac3206907b01bd,,,,,,,,,,,,,,,,,,,,,,,,,,,,,,,,,,,,,,,,,,,,,,,,,,,,,,,,,,,,,,,,,,,,,,,,,,,,,,,,,,,,,,,,,,,,,,,,,,,,,
,,,,,,3,0,3,0,1,X V Q F H G B L J M P D K C T S W R N Z,60aa7fb5c44ce529d3cfc4ce,20,Kobieta,2022-06-11_09h30.31.594,task,2021.1.4,Win32,60.0240096,6299f149e92ead563fba08ef,62a443d29eac3206907b01bd,,,,,,,,,,,,,,,,,,,,,,,,,,,,,,,,,,,,,,,,,,,,,,,,,,,,,,,,,,,,,,,,,,,,,,,,,,,,,,,,,,,,,,,,,,,,,,,,,,,,,
,,,,,,4,0,4,0,1,X V Q F H G B L J M P D K C T S W R N Z,60aa7fb5c44ce529d3cfc4ce,20,Kobieta,2022-06-11_09h30.31.594,task,2021.1.4,Win32,60.0240096,6299f149e92ead563fba08ef,62a443d29eac3206907b01bd,,,,,,,,,,,,,,,,,,,,,,,,,,,,,,,,,,,,,,,,,,,,,,,,,,,,,,,,,,,,,,,,,,,,,,,,,,,,,,,,,,,,,,,,,,,,,,,,,,,,,
,,,,,,5,0,5,0,1,X V Q F H G B L J M P D K C T S W R N Z,60aa7fb5c44ce529d3cfc4ce,20,Kobieta,2022-06-11_09h30.31.594,task,2021.1.4,Win32,60.0240096,6299f149e92ead563fba08ef,62a443d29eac3206907b01bd,,,,,,,,,,,,,,,,,,,,,,,,,,,,,,,,,,,,,,,,,,,,,,,,,,,,,,,,,,,,,,,,,,,,,,,,,,,,,,,,,,,,,,,,,,,,,,,,,,,,,
,,,,,,,,,,,,60aa7fb5c44ce529d3cfc4ce,20,Kobieta,2022-06-11_09h30.31.594,task,2021.1.4,Win32,60.0240096,6299f149e92ead563fba08ef,62a443d29eac3206907b01bd,cpfrhk,"[""c"",""p"",""f"",""r"",""h"",""k""]","[1.210000000000008,1.6759999999999877,2.1459999999999866,3.087999999999994,3.5929999999999893,3.8569999999999993,5.51400000000001]",1,CPFRHK,10,0,10,0,1,,,,,,,,,,,,,,,,,,,,,,,,,,,,,,,,,,,,,,,,,,,,,,,,,,,,,,,,,,,,,,,,,,,,,,,,,,,,,,,,,,,,,,,,,,,
,,,,,,0,0,0,0,1,X V Q F H G B L J M P D K C T S W R N Z,60aa7fb5c44ce529d3cfc4ce,20,Kobieta,2022-06-11_09h30.31.594,task,2021.1.4,Win32,60.0240096,6299f149e92ead563fba08ef,62a443d29eac3206907b01bd,,,,,,,,,,,,,,,,,,,,,,,,,,,,,,,,,,,,,,,,,,,,,,,,,,,,,,,,,,,,,,,,,,,,,,,,,,,,,,,,,,,,,,,,,,,,,,,,,,,,,
,,,,,,1,0,1,0,1,X V Q F H G B L J M P D K C T S W R N Z,60aa7fb5c44ce529d3cfc4ce,20,Kobieta,2022-06-11_09h30.31.594,task,2021.1.4,Win32,60.0240096,6299f149e92ead563fba08ef,62a443d29eac3206907b01bd,,,,,,,,,,,,,,,,,,,,,,,,,,,,,,,,,,,,,,,,,,,,,,,,,,,,,,,,,,,,,,,,,,,,,,,,,,,,,,,,,,,,,,,,,,,,,,,,,,,,,
,,,,,,2,0,2,0,1,X V Q F H G B L J M P D K C T S W R N Z,60aa7fb5c44ce529d3cfc4ce,20,Kobieta,2022-06-11_09h30.31.594,task,2021.1.4,Win32,60.0240096,6299f149e92ead563fba08ef,62a443d29eac3206907b01bd,,,,,,,,,,,,,,,,,,,,,,,,,,,,,,,,,,,,,,,,,,,,,,,,,,,,,,,,,,,,,,,,,,,,,,,,,,,,,,,,,,,,,,,,,,,,,,,,,,,,,
,,,,,,3,0,3,0,1,X V Q F H G B L J M P D K C T S W R N Z,60aa7fb5c44ce529d3cfc4ce,20,Kobieta,2022-06-11_09h30.31.594,task,2021.1.4,Win32,60.0240096,6299f149e92ead563fba08ef,62a443d29eac3206907b01bd,,,,,,,,,,,,,,,,,,,,,,,,,,,,,,,,,,,,,,,,,,,,,,,,,,,,,,,,,,,,,,,,,,,,,,,,,,,,,,,,,,,,,,,,,,,,,,,,,,,,,
,,,,,,4,0,4,0,1,X V Q F H G B L J M P D K C T S W R N Z,60aa7fb5c44ce529d3cfc4ce,20,Kobieta,2022-06-11_09h30.31.594,task,2021.1.4,Win32,60.0240096,6299f149e92ead563fba08ef,62a443d29eac3206907b01bd,,,,,,,,,,,,,,,,,,,,,,,,,,,,,,,,,,,,,,,,,,,,,,,,,,,,,,,,,,,,,,,,,,,,,,,,,,,,,,,,,,,,,,,,,,,,,,,,,,,,,
,,,,,,5,0,5,0,1,X V Q F H G B L J M P D K C T S W R N Z,60aa7fb5c44ce529d3cfc4ce,20,Kobieta,2022-06-11_09h30.31.594,task,2021.1.4,Win32,60.0240096,6299f149e92ead563fba08ef,62a443d29eac3206907b01bd,,,,,,,,,,,,,,,,,,,,,,,,,,,,,,,,,,,,,,,,,,,,,,,,,,,,,,,,,,,,,,,,,,,,,,,,,,,,,,,,,,,,,,,,,,,,,,,,,,,,,
,,,,,,6,0,6,0,1,X V Q F H G B L J M P D K C T S W R N Z,60aa7fb5c44ce529d3cfc4ce,20,Kobieta,2022-06-11_09h30.31.594,task,2021.1.4,Win32,60.0240096,6299f149e92ead563fba08ef,62a443d29eac3206907b01bd,,,,,,,,,,,,,,,,,,,,,,,,,,,,,,,,,,,,,,,,,,,,,,,,,,,,,,,,,,,,,,,,,,,,,,,,,,,,,,,,,,,,,,,,,,,,,,,,,,,,,
,,,,,,,,,,,,60aa7fb5c44ce529d3cfc4ce,20,Kobieta,2022-06-11_09h30.31.594,task,2021.1.4,Win32,60.0240096,6299f149e92ead563fba08ef,62a443d29eac3206907b01bd,lqdlfkt,"[""l"",""q"",""d"",""l"",""f"",""k"",""t""]","[0.8060000000000116,1.4260000000000161,2.179000000000002,4.024000000000001,4.709000000000003,5.15900000000002,5.599000000000018,6.469999999999999]",1,LQDLFKT,11,0,11,0,1,,,,,,,,,,,,,,,,,,,,,,,,,,,,,,,,,,,,,,,,,,,,,,,,,,,,,,,,,,,,,,,,,,,,,,,,,,,,,,,,,,,,,,,,,,,
,,,,,,0,0,0,0,1,X V Q F H G B L J M P D K C T S W R N Z,60aa7fb5c44ce529d3cfc4ce,20,Kobieta,2022-06-11_09h30.31.594,task,2021.1.4,Win32,60.0240096,6299f149e92ead563fba08ef,62a443d29eac3206907b01bd,,,,,,,,,,,,,,,,,,,,,,,,,,,,,,,,,,,,,,,,,,,,,,,,,,,,,,,,,,,,,,,,,,,,,,,,,,,,,,,,,,,,,,,,,,,,,,,,,,,,,
,,,,,,1,0,1,0,1,X V Q F H G B L J M P D K C T S W R N Z,60aa7fb5c44ce529d3cfc4ce,20,Kobieta,2022-06-11_09h30.31.594,task,2021.1.4,Win32,60.0240096,6299f149e92ead563fba08ef,62a443d29eac3206907b01bd,,,,,,,,,,,,,,,,,,,,,,,,,,,,,,,,,,,,,,,,,,,,,,,,,,,,,,,,,,,,,,,,,,,,,,,,,,,,,,,,,,,,,,,,,,,,,,,,,,,,,
,,,,,,2,0,2,0,1,X V Q F H G B L J M P D K C T S W R N Z,60aa7fb5c44ce529d3cfc4ce,20,Kobieta,2022-06-11_09h30.31.594,task,2021.1.4,Win32,60.0240096,6299f149e92ead563fba08ef,62a443d29eac3206907b01bd,,,,,,,,,,,,,,,,,,,,,,,,,,,,,,,,,,,,,,,,,,,,,,,,,,,,,,,,,,,,,,,,,,,,,,,,,,,,,,,,,,,,,,,,,,,,,,,,,,,,,
,,,,,,3,0,3,0,1,X V Q F H G B L J M P D K C T S W R N Z,60aa7fb5c44ce529d3cfc4ce,20,Kobieta,2022-06-11_09h30.31.594,task,2021.1.4,Win32,60.0240096,6299f149e92ead563fba08ef,62a443d29eac3206907b01bd,,,,,,,,,,,,,,,,,,,,,,,,,,,,,,,,,,,,,,,,,,,,,,,,,,,,,,,,,,,,,,,,,,,,,,,,,,,,,,,,,,,,,,,,,,,,,,,,,,,,,
,,,,,,4,0,4,0,1,X V Q F H G B L J M P D K C T S W R N Z,60aa7fb5c44ce529d3cfc4ce,20,Kobieta,2022-06-11_09h30.31.594,task,2021.1.4,Win32,60.0240096,6299f149e92ead563fba08ef,62a443d29eac3206907b01bd,,,,,,,,,,,,,,,,,,,,,,,,,,,,,,,,,,,,,,,,,,,,,,,,,,,,,,,,,,,,,,,,,,,,,,,,,,,,,,,,,,,,,,,,,,,,,,,,,,,,,
,,,,,,5,0,5,0,1,X V Q F H G B L J M P D K C T S W R N Z,60aa7fb5c44ce529d3cfc4ce,20,Kobieta,2022-06-11_09h30.31.594,task,2021.1.4,Win32,60.0240096,6299f149e92ead563fba08ef,62a443d29eac3206907b01bd,,,,,,,,,,,,,,,,,,,,,,,,,,,,,,,,,,,,,,,,,,,,,,,,,,,,,,,,,,,,,,,,,,,,,,,,,,,,,,,,,,,,,,,,,,,,,,,,,,,,,
,,,,,,6,0,6,0,1,X V Q F H G B L J M P D K C T S W R N Z,60aa7fb5c44ce529d3cfc4ce,20,Kobieta,2022-06-11_09h30.31.594,task,2021.1.4,Win32,60.0240096,6299f149e92ead563fba08ef,62a443d29eac3206907b01bd,,,,,,,,,,,,,,,,,,,,,,,,,,,,,,,,,,,,,,,,,,,,,,,,,,,,,,,,,,,,,,,,,,,,,,,,,,,,,,,,,,,,,,,,,,,,,,,,,,,,,
,,,,,,,,,,,,60aa7fb5c44ce529d3cfc4ce,20,Kobieta,2022-06-11_09h30.31.594,task,2021.1.4,Win32,60.0240096,6299f149e92ead563fba08ef,62a443d29eac3206907b01bd,cnkzrxp,"[""c"",""n"",""k"",""z"",""r"",""x"",""p""]","[0.5570000000000164,0.9080000000000155,1.3290000000000077,1.9120000000000346,2.382000000000005,3.035000000000025,3.555000000000007,4.391999999999996]",1,CNKZRXP,12,0,12,0,1,,,,,,,,,,,,,,,,,,,,,,,,,,,,,,,,,,,,,,,,,,,,,,,,,,,,,,,,,,,,,,,,,,,,,,,,,,,,,,,,,,,,,,,,,,,
,,,,,,0,0,0,0,1,X V Q F H G B L J M P D K C T S W R N Z,60aa7fb5c44ce529d3cfc4ce,20,Kobieta,2022-06-11_09h30.31.594,task,2021.1.4,Win32,60.0240096,6299f149e92ead563fba08ef,62a443d29eac3206907b01bd,,,,,,,,,,,,,,,,,,,,,,,,,,,,,,,,,,,,,,,,,,,,,,,,,,,,,,,,,,,,,,,,,,,,,,,,,,,,,,,,,,,,,,,,,,,,,,,,,,,,,
,,,,,,1,0,1,0,1,X V Q F H G B L J M P D K C T S W R N Z,60aa7fb5c44ce529d3cfc4ce,20,Kobieta,2022-06-11_09h30.31.594,task,2021.1.4,Win32,60.0240096,6299f149e92ead563fba08ef,62a443d29eac3206907b01bd,,,,,,,,,,,,,,,,,,,,,,,,,,,,,,,,,,,,,,,,,,,,,,,,,,,,,,,,,,,,,,,,,,,,,,,,,,,,,,,,,,,,,,,,,,,,,,,,,,,,,
,,,,,,2,0,2,0,1,X V Q F H G B L J M P D K C T S W R N Z,60aa7fb5c44ce529d3cfc4ce,20,Kobieta,2022-06-11_09h30.31.594,task,2021.1.4,Win32,60.0240096,6299f149e92ead563fba08ef,62a443d29eac3206907b01bd,,,,,,,,,,,,,,,,,,,,,,,,,,,,,,,,,,,,,,,,,,,,,,,,,,,,,,,,,,,,,,,,,,,,,,,,,,,,,,,,,,,,,,,,,,,,,,,,,,,,,
,,,,,,3,0,3,0,1,X V Q F H G B L J M P D K C T S W R N Z,60aa7fb5c44ce529d3cfc4ce,20,Kobieta,2022-06-11_09h30.31.594,task,2021.1.4,Win32,60.0240096,6299f149e92ead563fba08ef,62a443d29eac3206907b01bd,,,,,,,,,,,,,,,,,,,,,,,,,,,,,,,,,,,,,,,,,,,,,,,,,,,,,,,,,,,,,,,,,,,,,,,,,,,,,,,,,,,,,,,,,,,,,,,,,,,,,
,,,,,,4,0,4,0,1,X V Q F H G B L J M P D K C T S W R N Z,60aa7fb5c44ce529d3cfc4ce,20,Kobieta,2022-06-11_09h30.31.594,task,2021.1.4,Win32,60.0240096,6299f149e92ead563fba08ef,62a443d29eac3206907b01bd,,,,,,,,,,,,,,,,,,,,,,,,,,,,,,,,,,,,,,,,,,,,,,,,,,,,,,,,,,,,,,,,,,,,,,,,,,,,,,,,,,,,,,,,,,,,,,,,,,,,,
,,,,,,5,0,5,0,1,X V Q F H G B L J M P D K C T S W R N Z,60aa7fb5c44ce529d3cfc4ce,20,Kobieta,2022-06-11_09h30.31.594,task,2021.1.4,Win32,60.0240096,6299f149e92ead563fba08ef,62a443d29eac3206907b01bd,,,,,,,,,,,,,,,,,,,,,,,,,,,,,,,,,,,,,,,,,,,,,,,,,,,,,,,,,,,,,,,,,,,,,,,,,,,,,,,,,,,,,,,,,,,,,,,,,,,,,
,,,,,,6,0,6,0,1,X V Q F H G B L J M P D K C T S W R N Z,60aa7fb5c44ce529d3cfc4ce,20,Kobieta,2022-06-11_09h30.31.594,task,2021.1.4,Win32,60.0240096,6299f149e92ead563fba08ef,62a443d29eac3206907b01bd,,,,,,,,,,,,,,,,,,,,,,,,,,,,,,,,,,,,,,,,,,,,,,,,,,,,,,,,,,,,,,,,,,,,,,,,,,,,,,,,,,,,,,,,,,,,,,,,,,,,,
,,,,,,7,0,7,0,1,X V Q F H G B L J M P D K C T S W R N Z,60aa7fb5c44ce529d3cfc4ce,20,Kobieta,2022-06-11_09h30.31.594,task,2021.1.4,Win32,60.0240096,6299f149e92ead563fba08ef,62a443d29eac3206907b01bd,,,,,,,,,,,,,,,,,,,,,,,,,,,,,,,,,,,,,,,,,,,,,,,,,,,,,,,,,,,,,,,,,,,,,,,,,,,,,,,,,,,,,,,,,,,,,,,,,,,,,
,,,,,,,,,,,,60aa7fb5c44ce529d3cfc4ce,20,Kobieta,2022-06-11_09h30.31.594,task,2021.1.4,Win32,60.0240096,6299f149e92ead563fba08ef,62a443d29eac3206907b01bd,kvwknpq,"[""k"",""v"",""w"",""k"",""n"",""p"",""q""]","[0.9059999999999491,1.4899999999999523,2.061999999999955,3.166999999999973,7.507999999999981,8.66799999999995,10.055999999999983,10.787999999999954]",0,KVWHFPQB,13,0,13,0,1,,,,,,,,,,,,,,,,,,,,,,,,,,,,,,,,,,,,,,,,,,,,,,,,,,,,,,,,,,,,,,,,,,,,,,,,,,,,,,,,,,,,,,,,,,,
,,,,,,0,0,0,0,1,X V Q F H G B L J M P D K C T S W R N Z,60aa7fb5c44ce529d3cfc4ce,20,Kobieta,2022-06-11_09h30.31.594,task,2021.1.4,Win32,60.0240096,6299f149e92ead563fba08ef,62a443d29eac3206907b01bd,,,,,,,,,,,,,,,,,,,,,,,,,,,,,,,,,,,,,,,,,,,,,,,,,,,,,,,,,,,,,,,,,,,,,,,,,,,,,,,,,,,,,,,,,,,,,,,,,,,,,
,,,,,,1,0,1,0,1,X V Q F H G B L J M P D K C T S W R N Z,60aa7fb5c44ce529d3cfc4ce,20,Kobieta,2022-06-11_09h30.31.594,task,2021.1.4,Win32,60.0240096,6299f149e92ead563fba08ef,62a443d29eac3206907b01bd,,,,,,,,,,,,,,,,,,,,,,,,,,,,,,,,,,,,,,,,,,,,,,,,,,,,,,,,,,,,,,,,,,,,,,,,,,,,,,,,,,,,,,,,,,,,,,,,,,,,,
,,,,,,2,0,2,0,1,X V Q F H G B L J M P D K C T S W R N Z,60aa7fb5c44ce529d3cfc4ce,20,Kobieta,2022-06-11_09h30.31.594,task,2021.1.4,Win32,60.0240096,6299f149e92ead563fba08ef,62a443d29eac3206907b01bd,,,,,,,,,,,,,,,,,,,,,,,,,,,,,,,,,,,,,,,,,,,,,,,,,,,,,,,,,,,,,,,,,,,,,,,,,,,,,,,,,,,,,,,,,,,,,,,,,,,,,
,,,,,,3,0,3,0,1,X V Q F H G B L J M P D K C T S W R N Z,60aa7fb5c44ce529d3cfc4ce,20,Kobieta,2022-06-11_09h30.31.594,task,2021.1.4,Win32,60.0240096,6299f149e92ead563fba08ef,62a443d29eac3206907b01bd,,,,,,,,,,,,,,,,,,,,,,,,,,,,,,,,,,,,,,,,,,,,,,,,,,,,,,,,,,,,,,,,,,,,,,,,,,,,,,,,,,,,,,,,,,,,,,,,,,,,,
,,,,,,4,0,4,0,1,X V Q F H G B L J M P D K C T S W R N Z,60aa7fb5c44ce529d3cfc4ce,20,Kobieta,2022-06-11_09h30.31.594,task,2021.1.4,Win32,60.0240096,6299f149e92ead563fba08ef,62a443d29eac3206907b01bd,,,,,,,,,,,,,,,,,,,,,,,,,,,,,,,,,,,,,,,,,,,,,,,,,,,,,,,,,,,,,,,,,,,,,,,,,,,,,,,,,,,,,,,,,,,,,,,,,,,,,
,,,,,,5,0,5,0,1,X V Q F H G B L J M P D K C T S W R N Z,60aa7fb5c44ce529d3cfc4ce,20,Kobieta,2022-06-11_09h30.31.594,task,2021.1.4,Win32,60.0240096,6299f149e92ead563fba08ef,62a443d29eac3206907b01bd,,,,,,,,,,,,,,,,,,,,,,,,,,,,,,,,,,,,,,,,,,,,,,,,,,,,,,,,,,,,,,,,,,,,,,,,,,,,,,,,,,,,,,,,,,,,,,,,,,,,,
,,,,,,6,0,6,0,1,X V Q F H G B L J M P D K C T S W R N Z,60aa7fb5c44ce529d3cfc4ce,20,Kobieta,2022-06-11_09h30.31.594,task,2021.1.4,Win32,60.0240096,6299f149e92ead563fba08ef,62a443d29eac3206907b01bd,,,,,,,,,,,,,,,,,,,,,,,,,,,,,,,,,,,,,,,,,,,,,,,,,,,,,,,,,,,,,,,,,,,,,,,,,,,,,,,,,,,,,,,,,,,,,,,,,,,,,
,,,,,,7,0,7,0,1,X V Q F H G B L J M P D K C T S W R N Z,60aa7fb5c44ce529d3cfc4ce,20,Kobieta,2022-06-11_09h30.31.594,task,2021.1.4,Win32,60.0240096,6299f149e92ead563fba08ef,62a443d29eac3206907b01bd,,,,,,,,,,,,,,,,,,,,,,,,,,,,,,,,,,,,,,,,,,,,,,,,,,,,,,,,,,,,,,,,,,,,,,,,,,,,,,,,,,,,,,,,,,,,,,,,,,,,,
,,,,,,,,,,,,60aa7fb5c44ce529d3cfc4ce,20,Kobieta,2022-06-11_09h30.31.594,task,2021.1.4,Win32,60.0240096,6299f149e92ead563fba08ef,62a443d29eac3206907b01bd,ddqdclh,"[""d"",""d"",""q"",""d"",""c"",""l"",""h""]","[1.6779999999999973,1.9110000000000014,2.2649999999999864,3.424000000000035,10.915999999999997,11.900000000000034,12.191000000000031,19.49799999999999]",0,DDQDCDLH,14,0,14,0,1,,,,,,,,,,,,,,,,,,,,,,,,,,,,,,,,,,,,,,,,,,,,,,,,,,,,,,,,,,,,,,,,,,,,,,,,,,,,,,,,,,,,,,,,,,,
,,,,,,0,0,0,0,1,X V Q F H G B L J M P D K C T S W R N Z,60aa7fb5c44ce529d3cfc4ce,20,Kobieta,2022-06-11_09h30.31.594,task,2021.1.4,Win32,60.0240096,6299f149e92ead563fba08ef,62a443d29eac3206907b01bd,,,,,,,,,,,,,,,,,,,,,,,,,,,,,,,,,,,,,,,,,,,,,,,,,,,,,,,,,,,,,,,,,,,,,,,,,,,,,,,,,,,,,,,,,,,,,,,,,,,,,
,,,,,,1,0,1,0,1,X V Q F H G B L J M P D K C T S W R N Z,60aa7fb5c44ce529d3cfc4ce,20,Kobieta,2022-06-11_09h30.31.594,task,2021.1.4,Win32,60.0240096,6299f149e92ead563fba08ef,62a443d29eac3206907b01bd,,,,,,,,,,,,,,,,,,,,,,,,,,,,,,,,,,,,,,,,,,,,,,,,,,,,,,,,,,,,,,,,,,,,,,,,,,,,,,,,,,,,,,,,,,,,,,,,,,,,,
,,,,,,2,0,2,0,1,X V Q F H G B L J M P D K C T S W R N Z,60aa7fb5c44ce529d3cfc4ce,20,Kobieta,2022-06-11_09h30.31.594,task,2021.1.4,Win32,60.0240096,6299f149e92ead563fba08ef,62a443d29eac3206907b01bd,,,,,,,,,,,,,,,,,,,,,,,,,,,,,,,,,,,,,,,,,,,,,,,,,,,,,,,,,,,,,,,,,,,,,,,,,,,,,,,,,,,,,,,,,,,,,,,,,,,,,
,,,,,,3,0,3,0,1,X V Q F H G B L J M P D K C T S W R N Z,60aa7fb5c44ce529d3cfc4ce,20,Kobieta,2022-06-11_09h30.31.594,task,2021.1.4,Win32,60.0240096,6299f149e92ead563fba08ef,62a443d29eac3206907b01bd,,,,,,,,,,,,,,,,,,,,,,,,,,,,,,,,,,,,,,,,,,,,,,,,,,,,,,,,,,,,,,,,,,,,,,,,,,,,,,,,,,,,,,,,,,,,,,,,,,,,,
,,,,,,4,0,4,0,1,X V Q F H G B L J M P D K C T S W R N Z,60aa7fb5c44ce529d3cfc4ce,20,Kobieta,2022-06-11_09h30.31.594,task,2021.1.4,Win32,60.0240096,6299f149e92ead563fba08ef,62a443d29eac3206907b01bd,,,,,,,,,,,,,,,,,,,,,,,,,,,,,,,,,,,,,,,,,,,,,,,,,,,,,,,,,,,,,,,,,,,,,,,,,,,,,,,,,,,,,,,,,,,,,,,,,,,,,
,,,,,,5,0,5,0,1,X V Q F H G B L J M P D K C T S W R N Z,60aa7fb5c44ce529d3cfc4ce,20,Kobieta,2022-06-11_09h30.31.594,task,2021.1.4,Win32,60.0240096,6299f149e92ead563fba08ef,62a443d29eac3206907b01bd,,,,,,,,,,,,,,,,,,,,,,,,,,,,,,,,,,,,,,,,,,,,,,,,,,,,,,,,,,,,,,,,,,,,,,,,,,,,,,,,,,,,,,,,,,,,,,,,,,,,,
,,,,,,6,0,6,0,1,X V Q F H G B L J M P D K C T S W R N Z,60aa7fb5c44ce529d3cfc4ce,20,Kobieta,2022-06-11_09h30.31.594,task,2021.1.4,Win32,60.0240096,6299f149e92ead563fba08ef,62a443d29eac3206907b01bd,,,,,,,,,,,,,,,,,,,,,,,,,,,,,,,,,,,,,,,,,,,,,,,,,,,,,,,,,,,,,,,,,,,,,,,,,,,,,,,,,,,,,,,,,,,,,,,,,,,,,
,,,,,,7,0,7,0,1,X V Q F H G B L J M P D K C T S W R N Z,60aa7fb5c44ce529d3cfc4ce,20,Kobieta,2022-06-11_09h30.31.594,task,2021.1.4,Win32,60.0240096,6299f149e92ead563fba08ef,62a443d29eac3206907b01bd,,,,,,,,,,,,,,,,,,,,,,,,,,,,,,,,,,,,,,,,,,,,,,,,,,,,,,,,,,,,,,,,,,,,,,,,,,,,,,,,,,,,,,,,,,,,,,,,,,,,,
,,,,,,,,,,,,60aa7fb5c44ce529d3cfc4ce,20,Kobieta,2022-06-11_09h30.31.594,task,2021.1.4,Win32,60.0240096,6299f149e92ead563fba08ef,62a443d29eac3206907b01bd,vzpqdkkj,"[""v"",""z"",""p"",""q"",""d"",""k"",""k"",""j""]","[2.2799999999999727,3.350999999999999,3.6200000000000045,4.197000000000003,5.985000000000014,6.353999999999985,6.504000000000019,7.341000000000008,9.072999999999979]",1,VZPQDKKJ,15,0,15,0,1,,,,,,,,,,,,,,,,,,,,,,,,,,,,,,,,,,,,,,,,,,,,,,,,,,,,,,,,,,,,,,,,,,,,,,,,,,,,,,,,,,,,,,,,,,,
,,,,,,0,0,0,0,1,X V Q F H G B L J M P D K C T S W R N Z,60aa7fb5c44ce529d3cfc4ce,20,Kobieta,2022-06-11_09h30.31.594,task,2021.1.4,Win32,60.0240096,6299f149e92ead563fba08ef,62a443d29eac3206907b01bd,,,,,,,,,,,,,,,,,,,,,,,,,,,,,,,,,,,,,,,,,,,,,,,,,,,,,,,,,,,,,,,,,,,,,,,,,,,,,,,,,,,,,,,,,,,,,,,,,,,,,
,,,,,,1,0,1,0,1,X V Q F H G B L J M P D K C T S W R N Z,60aa7fb5c44ce529d3cfc4ce,20,Kobieta,2022-06-11_09h30.31.594,task,2021.1.4,Win32,60.0240096,6299f149e92ead563fba08ef,62a443d29eac3206907b01bd,,,,,,,,,,,,,,,,,,,,,,,,,,,,,,,,,,,,,,,,,,,,,,,,,,,,,,,,,,,,,,,,,,,,,,,,,,,,,,,,,,,,,,,,,,,,,,,,,,,,,
,,,,,,2,0,2,0,1,X V Q F H G B L J M P D K C T S W R N Z,60aa7fb5c44ce529d3cfc4ce,20,Kobieta,2022-06-11_09h30.31.594,task,2021.1.4,Win32,60.0240096,6299f149e92ead563fba08ef,62a443d29eac3206907b01bd,,,,,,,,,,,,,,,,,,,,,,,,,,,,,,,,,,,,,,,,,,,,,,,,,,,,,,,,,,,,,,,,,,,,,,,,,,,,,,,,,,,,,,,,,,,,,,,,,,,,,
,,,,,,3,0,3,0,1,X V Q F H G B L J M P D K C T S W R N Z,60aa7fb5c44ce529d3cfc4ce,20,Kobieta,2022-06-11_09h30.31.594,task,2021.1.4,Win32,60.0240096,6299f149e92ead563fba08ef,62a443d29eac3206907b01bd,,,,,,,,,,,,,,,,,,,,,,,,,,,,,,,,,,,,,,,,,,,,,,,,,,,,,,,,,,,,,,,,,,,,,,,,,,,,,,,,,,,,,,,,,,,,,,,,,,,,,
,,,,,,4,0,4,0,1,X V Q F H G B L J M P D K C T S W R N Z,60aa7fb5c44ce529d3cfc4ce,20,Kobieta,2022-06-11_09h30.31.594,task,2021.1.4,Win32,60.0240096,6299f149e92ead563fba08ef,62a443d29eac3206907b01bd,,,,,,,,,,,,,,,,,,,,,,,,,,,,,,,,,,,,,,,,,,,,,,,,,,,,,,,,,,,,,,,,,,,,,,,,,,,,,,,,,,,,,,,,,,,,,,,,,,,,,
,,,,,,5,0,5,0,1,X V Q F H G B L J M P D K C T S W R N Z,60aa7fb5c44ce529d3cfc4ce,20,Kobieta,2022-06-11_09h30.31.594,task,2021.1.4,Win32,60.0240096,6299f149e92ead563fba08ef,62a443d29eac3206907b01bd,,,,,,,,,,,,,,,,,,,,,,,,,,,,,,,,,,,,,,,,,,,,,,,,,,,,,,,,,,,,,,,,,,,,,,,,,,,,,,,,,,,,,,,,,,,,,,,,,,,,,
,,,,,,6,0,6,0,1,X V Q F H G B L J M P D K C T S W R N Z,60aa7fb5c44ce529d3cfc4ce,20,Kobieta,2022-06-11_09h30.31.594,task,2021.1.4,Win32,60.0240096,6299f149e92ead563fba08ef,62a443d29eac3206907b01bd,,,,,,,,,,,,,,,,,,,,,,,,,,,,,,,,,,,,,,,,,,,,,,,,,,,,,,,,,,,,,,,,,,,,,,,,,,,,,,,,,,,,,,,,,,,,,,,,,,,,,
,,,,,,7,0,7,0,1,X V Q F H G B L J M P D K C T S W R N Z,60aa7fb5c44ce529d3cfc4ce,20,Kobieta,2022-06-11_09h30.31.594,task,2021.1.4,Win32,60.0240096,6299f149e92ead563fba08ef,62a443d29eac3206907b01bd,,,,,,,,,,,,,,,,,,,,,,,,,,,,,,,,,,,,,,,,,,,,,,,,,,,,,,,,,,,,,,,,,,,,,,,,,,,,,,,,,,,,,,,,,,,,,,,,,,,,,
,,,,,,,,,,,,60aa7fb5c44ce529d3cfc4ce,20,Kobieta,2022-06-11_09h30.31.594,task,2021.1.4,Win32,60.0240096,6299f149e92ead563fba08ef,62a443d29eac3206907b01bd,bfljbqdw,"[""b"",""f"",""l"",""j"",""b"",""q"",""d"",""w""]","[3.3220000000000027,3.4820000000000277,3.8570000000000277,4.310000000000002,5.314000000000021,5.567000000000007,6.003000000000043,6.810000000000002,8.365000000000009]",0,DFJSBQDW,16,0,16,0,1,,,,,,,,,,,,,,,,,,,,,,,,,,,,,,,,,,,,,,,,,,,,,,,,,,,,,,,,,,,,,,,,,,,,,,,,,,,,,,,,,,,,,,,,,,,
,,,,,,,,,,,,60aa7fb5c44ce529d3cfc4ce,20,Kobieta,2022-06-11_09h30.31.594,task,2021.1.4,Win32,60.0240096,6299f149e92ead563fba08ef,62a443d29eac3206907b01bd,,,,,,,,,,,space,14.286,0,"[""0""]",1,[6.909999999999968],[6.909999999999968],0,0,0,0,1,Practice,1,(3x3) -  9,0,,,,,,,,,,,,,,,,,,,,,,,,,,,,,,,,,,,,,,,,,,,,,,,,,,,,,,,,,,,,,,,,,,,,,,,,,,,
,,,,,,,,,,,,60aa7fb5c44ce529d3cfc4ce,20,Kobieta,2022-06-11_09h30.31.594,task,2021.1.4,Win32,60.0240096,6299f149e92ead563fba08ef,62a443d29eac3206907b01bd,,,,,,,,,,,,,6,"[""6""]",1,[2.900000000000034],"[6.909999999999968,2.900000000000034]",0,1,1,6,1,Practice,7,(25/5) + 1,6,,,,,,,,,,,,,,,,,,,,,,,,,,,,,,,,,,,,,,,,,,,,,,,,,,,,,,,,,,,,,,,,,,,,,,,,,,,
,,,,,,,,,,,,60aa7fb5c44ce529d3cfc4ce,20,Kobieta,2022-06-11_09h30.31.594,task,2021.1.4,Win32,60.0240096,6299f149e92ead563fba08ef,62a443d29eac3206907b01bd,,,,,,,,,,,,,5,"[""5""]",1,[3.0020000000000095],"[6.909999999999968,2.900000000000034,3.0020000000000095]",0,2,2,5,1,Practice,6,(4/2) + 3,5,,,,,,,,,,,,,,,,,,,,,,,,,,,,,,,,,,,,,,,,,,,,,,,,,,,,,,,,,,,,,,,,,,,,,,,,,,,
,,,,,,,,,,,,60aa7fb5c44ce529d3cfc4ce,20,Kobieta,2022-06-11_09h30.31.594,task,2021.1.4,Win32,60.0240096,6299f149e92ead563fba08ef,62a443d29eac3206907b01bd,,,,,,,,,,,,,1,"[""1""]",1,[2.34699999999998],"[6.909999999999968,2.900000000000034,3.0020000000000095,2.34699999999998]",0,3,3,1,1,Practice,2,(4x4) - 15,1,,,,,,,,,,,,,,,,,,,,,,,,,,,,,,,,,,,,,,,,,,,,,,,,,,,,,,,,,,,,,,,,,,,,,,,,,,,
,,,,,,,,,,,,60aa7fb5c44ce529d3cfc4ce,20,Kobieta,2022-06-11_09h30.31.594,task,2021.1.4,Win32,60.0240096,6299f149e92ead563fba08ef,62a443d29eac3206907b01bd,,,,,,,,,,,,,7,"[""7""]",1,[3.45799999999997],"[6.909999999999968,2.900000000000034,3.0020000000000095,2.34699999999998,3.45799999999997]",0,4,4,7,1,Practice,8,(5x5) - 18,7,,,,,,,,,,,,,,,,,,,,,,,,,,,,,,,,,,,,,,,,,,,,,,,,,,,,,,,,,,,,,,,,,,,,,,,,,,,
,,,,,,,,,,,,60aa7fb5c44ce529d3cfc4ce,20,Kobieta,2022-06-11_09h30.31.594,task,2021.1.4,Win32,60.0240096,6299f149e92ead563fba08ef,62a443d29eac3206907b01bd,,,,,,,,,,,,,2,"[""2""]",1,[1.6990000000000123],"[6.909999999999968,2.900000000000034,3.0020000000000095,2.34699999999998,3.45799999999997,1.6990000000000123]",0,5,5,2,1,Practice,3,(4x4) - 14,2,,,,,,,,,,,,,,,,,,,,,,,,,,,,,,,,,,,,,,,,,,,,,,,,,,,,,,,,,,,,,,,,,,,,,,,,,,,
,,,,,,,,,,,,60aa7fb5c44ce529d3cfc4ce,20,Kobieta,2022-06-11_09h30.31.594,task,2021.1.4,Win32,60.0240096,6299f149e92ead563fba08ef,62a443d29eac3206907b01bd,,,,,,,,,,,,,3,"[""3""]",1,[2.2509999999999764],"[6.909999999999968,2.900000000000034,3.0020000000000095,2.34699999999998,3.45799999999997,1.6990000000000123,2.2509999999999764]",0,6,6,3,1,Practice,4,(8/4) + 1,3,,,,,,,,,,,,,,,,,,,,,,,,,,,,,,,,,,,,,,,,,,,,,,,,,,,,,,,,,,,,,,,,,,,,,,,,,,,
,,,,,,,,,,,,60aa7fb5c44ce529d3cfc4ce,20,Kobieta,2022-06-11_09h30.31.594,task,2021.1.4,Win32,60.0240096,6299f149e92ead563fba08ef,62a443d29eac3206907b01bd,,,,,,,,,,,,,8,"[""8""]",1,[2.413000000000011],"[6.909999999999968,2.900000000000034,3.0020000000000095,2.34699999999998,3.45799999999997,1.6990000000000123,2.2509999999999764,2.413000000000011]",0,7,7,8,1,Practice,9,(3x3) - 1,8,,,,,,,,,,,,,,,,,,,,,,,,,,,,,,,,,,,,,,,,,,,,,,,,,,,,,,,,,,,,,,,,,,,,,,,,,,,
,,,,,,,,,,,,60aa7fb5c44ce529d3cfc4ce,20,Kobieta,2022-06-11_09h30.31.594,task,2021.1.4,Win32,60.0240096,6299f149e92ead563fba08ef,62a443d29eac3206907b01bd,,,,,,,,,,,,,9,"[""9""]",1,[2.3789999999999623],"[6.909999999999968,2.900000000000034,3.0020000000000095,2.34699999999998,3.45799999999997,1.6990000000000123,2.2509999999999764,2.413000000000011,2.3789999999999623]",0,8,8,9,1,Practice,10,(20/2) - 1,9,,,,,,,,,,,,,,,,,,,,,,,,,,,,,,,,,,,,,,,,,,,,,,,,,,,,,,,,,,,,,,,,,,,,,,,,,,,
,,,,,,,,,,,,60aa7fb5c44ce529d3cfc4ce,20,Kobieta,2022-06-11_09h30.31.594,task,2021.1.4,Win32,60.0240096,6299f149e92ead563fba08ef,62a443d29eac3206907b01bd,,,,,,,,,,,,,4,"[""4""]",1,[2.130999999999972],"[6.909999999999968,2.900000000000034,3.0020000000000095,2.34699999999998,3.45799999999997,1.6990000000000123,2.2509999999999764,2.413000000000011,2.3789999999999623,2.130999999999972]",0,9,9,4,1,Practice,5,(2x6) - 8,4,,,,,,,,,,,,,,,,,,,,,,,,,,,,,,,,,,,,,,,,,,,,,,,,,,,,,,,,,,,,,,,,,,,,,,,,,,,
,,,,,,,,,,,,60aa7fb5c44ce529d3cfc4ce,20,Kobieta,2022-06-11_09h30.31.594,task,2021.1.4,Win32,60.0240096,6299f149e92ead563fba08ef,62a443d29eac3206907b01bd,,,,,,,,,,,,,,,,,,,,,,,,,,,1,29.49,1.966,29.31013,1.3978586,5.572475189,space,1.197,0,0,0,0,1,,,,,,,,,,,,,,,,,,,,,,,,,,,,,,,,,,,,,,,,,,,,,,,,,,,,,,,,,,,,,,
,,,,,,,,,,,,60aa7fb5c44ce529d3cfc4ce,20,Kobieta,2022-06-11_09h30.31.594,task,2021.1.4,Win32,60.0240096,6299f149e92ead563fba08ef,62a443d29eac3206907b01bd,,,,,,,,,,,,,,,,,,,,,,,Practice,10,(20/2) - 1,9,,,,,,,,,,,,,,space,13.247,,0,0,0,0,0,9,1,,,,,,,,,,,,,,,,,,,,,,,,,,,,,,,,,,,,,,,,,,,,,,,,,,,,
,,,,,,,,,,,,60aa7fb5c44ce529d3cfc4ce,20,Kobieta,2022-06-11_09h30.31.594,task,2021.1.4,Win32,60.0240096,6299f149e92ead563fba08ef,62a443d29eac3206907b01bd,,,,,,,,,,,,,4,,,,,,,,,,Practice,5,(2x6) - 8,4,,,,,,,,,,,,,,,,"[""4""]",1,1,0,1,1,4,1,[1.7210000000000036],,,,,,,,,,,,,,,,,,,,,,,,,,,,,,,,,,,,,,,,,,,,,,,,,,,
,,,,,,,,,,,X V Q F H G B L J M P D K C T S W R N Z,60aa7fb5c44ce529d3cfc4ce,20,Kobieta,2022-06-11_09h30.31.594,task,2021.1.4,Win32,60.0240096,6299f149e92ead563fba08ef,62a443d29eac3206907b01bd,,,,,,,,,,,,,,,,,,,,,,,,,,,,,,,,,,,,,,,,,,,,,,,,,,,0,0,0,0,1,,,,,,,,,,,,,,,,,,,,,,,,,,,,,,,,,,,,,,,,,,,,,,
,,,,,,,,,,,,60aa7fb5c44ce529d3cfc4ce,20,Kobieta,2022-06-11_09h30.31.594,task,2021.1.4,Win32,60.0240096,6299f149e92ead563fba08ef,62a443d29eac3206907b01bd,,,,,,,,,,,,,0,,,,,,,,,,Practice,1,(3x3) -  9,0,,,,,,,,,,,,,,,,"[""0""]",1,1,0,0,0,0,1,[1.1750000000000114],,,,,,,,,,,,,,,,,,,,,,,,,,,,,,,,,,,,,,,,,,,,,,,,,,,
,,,,,,,,,,,X V Q F H G B L J M P D K C T S W R N Z,60aa7fb5c44ce529d3cfc4ce,20,Kobieta,2022-06-11_09h30.31.594,task,2021.1.4,Win32,60.0240096,6299f149e92ead563fba08ef,62a443d29eac3206907b01bd,,,,,,,,,,,,,,,,,,,,,,,,,,,,,,,,,,,,,,,,,,,,,,,,,,,1,0,1,0,1,,,,,,,,,,,,,,,,,,,,,,,,,,,,,,,,,,,,,,,,,,,,,,
,,,,,,,,,,,,60aa7fb5c44ce529d3cfc4ce,20,Kobieta,2022-06-11_09h30.31.594,task,2021.1.4,Win32,60.0240096,6299f149e92ead563fba08ef,62a443d29eac3206907b01bd,,,,,,,,,,,,,,,,,,,,,,,,,,,,,,,,,,,,,,,,,,,,,,,,,,,,,,,,zl,"[""z"",""l""]",0,"[2.7229999999999563,2.873999999999967,4.027999999999963]",1,0,0,0,0,1,,,,,,,,,,,,,,,,,,,,,,,,,,,,,,,,,,,,
,,,,,,,,,,,,60aa7fb5c44ce529d3cfc4ce,20,Kobieta,2022-06-11_09h30.31.594,task,2021.1.4,Win32,60.0240096,6299f149e92ead563fba08ef,62a443d29eac3206907b01bd,,,,,,,,,,,,,9,,,,,,,,,,Practice,10,(20/2) - 1,9,,,,,,,,,,,,,,,,"[""9""]",1,1,0,0,0,9,1,[1.6429999999999723],,,,,,,,,,,,,,,,,,,,,,,,,,,,,,,,,,,,,,,,,,,,,,,,,,,
,,,,,,,,,,,X V Q F H G B L J M P D K C T S W R N Z,60aa7fb5c44ce529d3cfc4ce,20,Kobieta,2022-06-11_09h30.31.594,task,2021.1.4,Win32,60.0240096,6299f149e92ead563fba08ef,62a443d29eac3206907b01bd,,,,,,,,,,,,,,,,,,,,,,,,,,,,,,,,,,,,,,,,,,,,,,,,,,,0,0,0,0,1,,,,,,,,,,,,,,,,,,,,,,,,,,,,,,,,,,,,,,,,,,,,,,
,,,,,,,,,,,,60aa7fb5c44ce529d3cfc4ce,20,Kobieta,2022-06-11_09h30.31.594,task,2021.1.4,Win32,60.0240096,6299f149e92ead563fba08ef,62a443d29eac3206907b01bd,,,,,,,,,,,,,4,,,,,,,,,,Practice,5,(2x6) - 8,4,,,,,,,,,,,,,,,,"[""4""]",1,1,0,0,0,4,1,[2.663000000000011],,,,,,,,,,,,,,,,,,,,,,,,,,,,,,,,,,,,,,,,,,,,,,,,,,,
,,,,,,,,,,,X V Q F H G B L J M P D K C T S W R N Z,60aa7fb5c44ce529d3cfc4ce,20,Kobieta,2022-06-11_09h30.31.594,task,2021.1.4,Win32,60.0240096,6299f149e92ead563fba08ef,62a443d29eac3206907b01bd,,,,,,,,,,,,,,,,,,,,,,,,,,,,,,,,,,,,,,,,,,,,,,,,,,,1,0,1,0,1,,,,,,,,,,,,,,,,,,,,,,,,,,,,,,,,,,,,,,,,,,,,,,
,,,,,,,,,,,,60aa7fb5c44ce529d3cfc4ce,20,Kobieta,2022-06-11_09h30.31.594,task,2021.1.4,Win32,60.0240096,6299f149e92ead563fba08ef,62a443d29eac3206907b01bd,,,,,,,,,,,,,,,,,,,,,,,,,,,,,,,,,,,,,,,,,,,,,,,,,,,,,,,,vz,"[""v"",""z""]",0,"[2.3810000000000286,2.751000000000033,3.6890000000000214]",1,1,0,1,0,1,,,,,,,,,,,,,,,,,,,,,,,,,,,,,,,,,,,,
,,,,,,,,,,,,60aa7fb5c44ce529d3cfc4ce,20,Kobieta,2022-06-11_09h30.31.594,task,2021.1.4,Win32,60.0240096,6299f149e92ead563fba08ef,62a443d29eac3206907b01bd,,,,,,,,,,,,,6,,,,,,,,,,Practice,7,(25/5) + 1,6,,,,,,,,,,,,,,,,"[""6""]",1,1,0,0,0,6,1,[1.829999999999984],,,,,,,,,,,,,,,,,,,,,,,,,,,,,,,,,,,,,,,,,,,,,,,,,,,
,,,,,,,,,,,X V Q F H G B L J M P D K C T S W R N Z,60aa7fb5c44ce529d3cfc4ce,20,Kobieta,2022-06-11_09h30.31.594,task,2021.1.4,Win32,60.0240096,6299f149e92ead563fba08ef,62a443d29eac3206907b01bd,,,,,,,,,,,,,,,,,,,,,,,,,,,,,,,,,,,,,,,,,,,,,,,,,,,0,0,0,0,1,,,,,,,,,,,,,,,,,,,,,,,,,,,,,,,,,,,,,,,,,,,,,,
,,,,,,,,,,,,60aa7fb5c44ce529d3cfc4ce,20,Kobieta,2022-06-11_09h30.31.594,task,2021.1.4,Win32,60.0240096,6299f149e92ead563fba08ef,62a443d29eac3206907b01bd,,,,,,,,,,,,,0,,,,,,,,,,Practice,1,(3x3) -  9,0,,,,,,,,,,,,,,,,"[""0""]",1,1,0,0,0,0,1,[1.2250000000000227],,,,,,,,,,,,,,,,,,,,,,,,,,,,,,,,,,,,,,,,,,,,,,,,,,,
,,,,,,,,,,,X V Q F H G B L J M P D K C T S W R N Z,60aa7fb5c44ce529d3cfc4ce,20,Kobieta,2022-06-11_09h30.31.594,task,2021.1.4,Win32,60.0240096,6299f149e92ead563fba08ef,62a443d29eac3206907b01bd,,,,,,,,,,,,,,,,,,,,,,,,,,,,,,,,,,,,,,,,,,,,,,,,,,,1,0,1,0,1,,,,,,,,,,,,,,,,,,,,,,,,,,,,,,,,,,,,,,,,,,,,,,
,,,,,,,,,,,,60aa7fb5c44ce529d3cfc4ce,20,Kobieta,2022-06-11_09h30.31.594,task,2021.1.4,Win32,60.0240096,6299f149e92ead563fba08ef,62a443d29eac3206907b01bd,,,,,,,,,,,,,,,,,,,,,,,,,,,,,,,,,,,,,,,,,,,,,,,,,,,,,,,,km,"[""k"",""m""]",0,"[1.579999999999984,1.7490000000000236,2.4820000000000277]",1,2,0,2,0,1,,,,,,,,,,,,,,,,,,,,,,,,,,,,,,,,,,,,
,,,,,,,,,,,,60aa7fb5c44ce529d3cfc4ce,20,Kobieta,2022-06-11_09h30.31.594,task,2021.1.4,Win32,60.0240096,6299f149e92ead563fba08ef,62a443d29eac3206907b01bd,,,,,,,,,,,,,2,,,,,,,,,,Task,2,(2x2) - 2,2,,,,,,,,,,,,,,,,,,1,,,,,,,,,,,,,,,,,,,,,,space,17.902,"[""2""]",1,[2.2509999999999764],0,0,0,1,1,,,,,,,,,,,,,,,,,,,,,,,,,,
,,,,,,,,,,,X V Q F H G B L J M P D K C T S W R N Z,60aa7fb5c44ce529d3cfc4ce,20,Kobieta,2022-06-11_09h30.31.594,task,2021.1.4,Win32,60.0240096,6299f149e92ead563fba08ef,62a443d29eac3206907b01bd,,,,,,,,,,,,,,,,,,,,,,,,,,,,,,,,,,,,,,,,,,,,,,,,,,,,,,,,,,,,,,,,,,,,,,,,,,,,0,0,0,0,1,,,,,,,,,,,,,,,,,,,,,
,,,,,,,,,,,,60aa7fb5c44ce529d3cfc4ce,20,Kobieta,2022-06-11_09h30.31.594,task,2021.1.4,Win32,60.0240096,6299f149e92ead563fba08ef,62a443d29eac3206907b01bd,,,,,,,,,,,,,7,,,,,,,,,,Task,31,(4/2) + 5,7,,,,,,,,,,,,,,,,,,1,,,,,,,,,,,,,,,,,,,,,,,,"[""7""]",1,[2.312000000000012],0,0,0,30,1,,,,,,,,,,,,,,,,,,,,,,,,,,
,,,,,,,,,,,X V Q F H G B L J M P D K C T S W R N Z,60aa7fb5c44ce529d3cfc4ce,20,Kobieta,2022-06-11_09h30.31.594,task,2021.1.4,Win32,60.0240096,6299f149e92ead563fba08ef,62a443d29eac3206907b01bd,,,,,,,,,,,,,,,,,,,,,,,,,,,,,,,,,,,,,,,,,,,,,,,,,,,,,,,,,,,,,,,,,,,,,,,,,,,,1,0,1,0,1,,,,,,,,,,,,,,,,,,,,,
,,,,,,,,,,,,60aa7fb5c44ce529d3cfc4ce,20,Kobieta,2022-06-11_09h30.31.594,task,2021.1.4,Win32,60.0240096,6299f149e92ead563fba08ef,62a443d29eac3206907b01bd,,,,,,,,,,,,,,,,,,,,,,,,,,,,,,,,,,,,,,,,,,,,,,,,,,,,,,,,,,,,,,,,,,,,,,,,,,,,,,,,,zp,"[""z"",""p""]",0,"[2.354000000000042,2.4920000000000755,7.505999999999972]",1,ZP,0,0,0,0,1,,,,,,,,,,
,,,,,,,,,,,,60aa7fb5c44ce529d3cfc4ce,20,Kobieta,2022-06-11_09h30.31.594,task,2021.1.4,Win32,60.0240096,6299f149e92ead563fba08ef,62a443d29eac3206907b01bd,,,,,,,,,,,,,1,,,,,,,,,,Task,9,(3x7) - 20,1,,,,,,,,,,,,,,,,,,1,,,,,,,,,,,,,,,,,,,,,,,,"[""1""]",1,[2.078000000000088],0,0,0,8,1,,,,,,,,,,,,,,,,,,,,,,,,,,
,,,,,,,,,,,X V Q F H G B L J M P D K C T S W R N Z,60aa7fb5c44ce529d3cfc4ce,20,Kobieta,2022-06-11_09h30.31.594,task,2021.1.4,Win32,60.0240096,6299f149e92ead563fba08ef,62a443d29eac3206907b01bd,,,,,,,,,,,,,,,,,,,,,,,,,,,,,,,,,,,,,,,,,,,,,,,,,,,,,,,,,,,,,,,,,,,,,,,,,,,,0,0,0,0,1,,,,,,,,,,,,,,,,,,,,,
,,,,,,,,,,,,60aa7fb5c44ce529d3cfc4ce,20,Kobieta,2022-06-11_09h30.31.594,task,2021.1.4,Win32,60.0240096,6299f149e92ead563fba08ef,62a443d29eac3206907b01bd,,,,,,,,,,,,,5,,,,,,,,,,Task,12,(4x4) - 11,5,,,,,,,,,,,,,,,,,,1,,,,,,,,,,,,,,,,,,,,,,,,"[""5""]",1,[2.4640000000000555],0,0,0,11,1,,,,,,,,,,,,,,,,,,,,,,,,,,
,,,,,,,,,,,X V Q F H G B L J M P D K C T S W R N Z,60aa7fb5c44ce529d3cfc4ce,20,Kobieta,2022-06-11_09h30.31.594,task,2021.1.4,Win32,60.0240096,6299f149e92ead563fba08ef,62a443d29eac3206907b01bd,,,,,,,,,,,,,,,,,,,,,,,,,,,,,,,,,,,,,,,,,,,,,,,,,,,,,,,,,,,,,,,,,,,,,,,,,,,,1,0,1,0,1,,,,,,,,,,,,,,,,,,,,,
,,,,,,,,,,,,60aa7fb5c44ce529d3cfc4ce,20,Kobieta,2022-06-11_09h30.31.594,task,2021.1.4,Win32,60.0240096,6299f149e92ead563fba08ef,62a443d29eac3206907b01bd,,,,,,,,,,,,,5,,,,,,,,,,Task,22,(3x1) + 2,5,,,,,,,,,,,,,,,,,,1,,,,,,,,,,,,,,,,,,,,,,,,"[""5""]",1,[2.4669999999999845],0,0,0,21,1,,,,,,,,,,,,,,,,,,,,,,,,,,
,,,,,,,,,,,X V Q F H G B L J M P D K C T S W R N Z,60aa7fb5c44ce529d3cfc4ce,20,Kobieta,2022-06-11_09h30.31.594,task,2021.1.4,Win32,60.0240096,6299f149e92ead563fba08ef,62a443d29eac3206907b01bd,,,,,,,,,,,,,,,,,,,,,,,,,,,,,,,,,,,,,,,,,,,,,,,,,,,,,,,,,,,,,,,,,,,,,,,,,,,,2,0,2,0,1,,,,,,,,,,,,,,,,,,,,,
,,,,,,,,,,,,60aa7fb5c44ce529d3cfc4ce,20,Kobieta,2022-06-11_09h30.31.594,task,2021.1.4,Win32,60.0240096,6299f149e92ead563fba08ef,62a443d29eac3206907b01bd,,,,,,,,,,,,,,,,,,,,,,,,,,,,,,,,,,,,,,,,,,,,,,,,,,,,,,,,,,,,,,,,,,,,,,,,,,,,,,,,,mcj,"[""m"",""c"",""j""]",0,"[1.5680000000000973,1.8690000000000282,1.9880000000000564,3.5430000000000064]",1,MCJ,1,0,1,0,1,,,,,,,,,,
,,,,,,,,,,,,60aa7fb5c44ce529d3cfc4ce,20,Kobieta,2022-06-11_09h30.31.594,task,2021.1.4,Win32,60.0240096,6299f149e92ead563fba08ef,62a443d29eac3206907b01bd,,,,,,,,,,,,,9,,,,,,,,,,Task,16,(3x8) - 15,9,,,,,,,,,,,,,,,,,,1,,,,,,,,,,,,,,,,,,,,,,,,"[""9""]",1,[4.923999999999978],0,0,0,15,1,,,,,,,,,,,,,,,,,,,,,,,,,,
,,,,,,,,,,,X V Q F H G B L J M P D K C T S W R N Z,60aa7fb5c44ce529d3cfc4ce,20,Kobieta,2022-06-11_09h30.31.594,task,2021.1.4,Win32,60.0240096,6299f149e92ead563fba08ef,62a443d29eac3206907b01bd,,,,,,,,,,,,,,,,,,,,,,,,,,,,,,,,,,,,,,,,,,,,,,,,,,,,,,,,,,,,,,,,,,,,,,,,,,,,0,0,0,0,1,,,,,,,,,,,,,,,,,,,,,
,,,,,,,,,,,,60aa7fb5c44ce529d3cfc4ce,20,Kobieta,2022-06-11_09h30.31.594,task,2021.1.4,Win32,60.0240096,6299f149e92ead563fba08ef,62a443d29eac3206907b01bd,,,,,,,,,,,,,9,,,,,,,,,,Task,24,(2x2) + 5,9,,,,,,,,,,,,,,,,,,1,,,,,,,,,,,,,,,,,,,,,,,,"[""9""]",1,[1.70799999999997],0,0,0,23,1,,,,,,,,,,,,,,,,,,,,,,,,,,
,,,,,,,,,,,X V Q F H G B L J M P D K C T S W R N Z,60aa7fb5c44ce529d3cfc4ce,20,Kobieta,2022-06-11_09h30.31.594,task,2021.1.4,Win32,60.0240096,6299f149e92ead563fba08ef,62a443d29eac3206907b01bd,,,,,,,,,,,,,,,,,,,,,,,,,,,,,,,,,,,,,,,,,,,,,,,,,,,,,,,,,,,,,,,,,,,,,,,,,,,,1,0,1,0,1,,,,,,,,,,,,,,,,,,,,,
,,,,,,,,,,,,60aa7fb5c44ce529d3cfc4ce,20,Kobieta,2022-06-11_09h30.31.594,task,2021.1.4,Win32,60.0240096,6299f149e92ead563fba08ef,62a443d29eac3206907b01bd,,,,,,,,,,,,,3,,,,,,,,,,Task,35,(1x2) + 1,3,,,,,,,,,,,,,,,,,,1,,,,,,,,,,,,,,,,,,,,,,,,"[""3""]",1,[1.6920000000000073],0,0,0,34,1,,,,,,,,,,,,,,,,,,,,,,,,,,
,,,,,,,,,,,X V Q F H G B L J M P D K C T S W R N Z,60aa7fb5c44ce529d3cfc4ce,20,Kobieta,2022-06-11_09h30.31.594,task,2021.1.4,Win32,60.0240096,6299f149e92ead563fba08ef,62a443d29eac3206907b01bd,,,,,,,,,,,,,,,,,,,,,,,,,,,,,,,,,,,,,,,,,,,,,,,,,,,,,,,,,,,,,,,,,,,,,,,,,,,,2,0,2,0,1,,,,,,,,,,,,,,,,,,,,,
,,,,,,,,,,,,60aa7fb5c44ce529d3cfc4ce,20,Kobieta,2022-06-11_09h30.31.594,task,2021.1.4,Win32,60.0240096,6299f149e92ead563fba08ef,62a443d29eac3206907b01bd,,,,,,,,,,,,,3,,,,,,,,,,Task,20,(18/9) + 1,3,,,,,,,,,,,,,,,,,,1,,,,,,,,,,,,,,,,,,,,,,,,"[""3""]",1,[2.3110000000000355],0,0,0,19,1,,,,,,,,,,,,,,,,,,,,,,,,,,
,,,,,,,,,,,X V Q F H G B L J M P D K C T S W R N Z,60aa7fb5c44ce529d3cfc4ce,20,Kobieta,2022-06-11_09h30.31.594,task,2021.1.4,Win32,60.0240096,6299f149e92ead563fba08ef,62a443d29eac3206907b01bd,,,,,,,,,,,,,,,,,,,,,,,,,,,,,,,,,,,,,,,,,,,,,,,,,,,,,,,,,,,,,,,,,,,,,,,,,,,,3,0,3,0,1,,,,,,,,,,,,,,,,,,,,,
,,,,,,,,,,,,60aa7fb5c44ce529d3cfc4ce,20,Kobieta,2022-06-11_09h30.31.594,task,2021.1.4,Win32,60.0240096,6299f149e92ead563fba08ef,62a443d29eac3206907b01bd,,,,,,,,,,,,,,,,,,,,,,,,,,,,,,,,,,,,,,,,,,,,,,,,,,,,,,,,,,,,,,,,,,,,,,,,,,,,,,,,,qtsd,"[""q"",""t"",""s"",""d""]",0,"[1.8130000000001019,2.118000000000052,2.5370000000000346,3.0270000000000437,17.331999999999994]",1,QTSD,2,0,2,0,1,,,,,,,,,,
,,,,,,,,,,,,60aa7fb5c44ce529d3cfc4ce,20,Kobieta,2022-06-11_09h30.31.594,task,2021.1.4,Win32,60.0240096,6299f149e92ead563fba08ef,62a443d29eac3206907b01bd,,,,,,,,,,,,,5,,,,,,,,,,Task,29,(3x8) - 19 ,5,,,,,,,,,,,,,,,,,,1,,,,,,,,,,,,,,,,,,,,,,,,"[""5""]",1,[3.3379999999999654],0,0,0,28,1,,,,,,,,,,,,,,,,,,,,,,,,,,
,,,,,,,,,,,X V Q F H G B L J M P D K C T S W R N Z,60aa7fb5c44ce529d3cfc4ce,20,Kobieta,2022-06-11_09h30.31.594,task,2021.1.4,Win32,60.0240096,6299f149e92ead563fba08ef,62a443d29eac3206907b01bd,,,,,,,,,,,,,,,,,,,,,,,,,,,,,,,,,,,,,,,,,,,,,,,,,,,,,,,,,,,,,,,,,,,,,,,,,,,,0,0,0,0,1,,,,,,,,,,,,,,,,,,,,,
,,,,,,,,,,,,60aa7fb5c44ce529d3cfc4ce,20,Kobieta,2022-06-11_09h30.31.594,task,2021.1.4,Win32,60.0240096,6299f149e92ead563fba08ef,62a443d29eac3206907b01bd,,,,,,,,,,,,,4,,,,,,,,,,Task,21,(10/2) - 1,4,,,,,,,,,,,,,,,,,,1,,,,,,,,,,,,,,,,,,,,,,,,"[""4""]",1,[2.066000000000031],0,0,0,20,1,,,,,,,,,,,,,,,,,,,,,,,,,,
,,,,,,,,,,,X V Q F H G B L J M P D K C T S W R N Z,60aa7fb5c44ce529d3cfc4ce,20,Kobieta,2022-06-11_09h30.31.594,task,2021.1.4,Win32,60.0240096,6299f149e92ead563fba08ef,62a443d29eac3206907b01bd,,,,,,,,,,,,,,,,,,,,,,,,,,,,,,,,,,,,,,,,,,,,,,,,,,,,,,,,,,,,,,,,,,,,,,,,,,,,1,0,1,0,1,,,,,,,,,,,,,,,,,,,,,
,,,,,,,,,,,,60aa7fb5c44ce529d3cfc4ce,20,Kobieta,2022-06-11_09h30.31.594,task,2021.1.4,Win32,60.0240096,6299f149e92ead563fba08ef,62a443d29eac3206907b01bd,,,,,,,,,,,,,6,,,,,,,,,,Task,13,(3x4) - 6,6,,,,,,,,,,,,,,,,,,1,,,,,,,,,,,,,,,,,,,,,,,,"[""6""]",1,[2.757000000000062],0,0,0,12,1,,,,,,,,,,,,,,,,,,,,,,,,,,
,,,,,,,,,,,X V Q F H G B L J M P D K C T S W R N Z,60aa7fb5c44ce529d3cfc4ce,20,Kobieta,2022-06-11_09h30.31.594,task,2021.1.4,Win32,60.0240096,6299f149e92ead563fba08ef,62a443d29eac3206907b01bd,,,,,,,,,,,,,,,,,,,,,,,,,,,,,,,,,,,,,,,,,,,,,,,,,,,,,,,,,,,,,,,,,,,,,,,,,,,,2,0,2,0,1,,,,,,,,,,,,,,,,,,,,,
,,,,,,,,,,,,60aa7fb5c44ce529d3cfc4ce,20,Kobieta,2022-06-11_09h30.31.594,task,2021.1.4,Win32,60.0240096,6299f149e92ead563fba08ef,62a443d29eac3206907b01bd,,,,,,,,,,,,,1,,,,,,,,,,Task,34,(9/3) - 2,1,,,,,,,,,,,,,,,,,,1,,,,,,,,,,,,,,,,,,,,,,,,"[""1""]",1,[3.32000000000005],0,0,0,33,1,,,,,,,,,,,,,,,,,,,,,,,,,,
,,,,,,,,,,,X V Q F H G B L J M P D K C T S W R N Z,60aa7fb5c44ce529d3cfc4ce,20,Kobieta,2022-06-11_09h30.31.594,task,2021.1.4,Win32,60.0240096,6299f149e92ead563fba08ef,62a443d29eac3206907b01bd,,,,,,,,,,,,,,,,,,,,,,,,,,,,,,,,,,,,,,,,,,,,,,,,,,,,,,,,,,,,,,,,,,,,,,,,,,,,3,0,3,0,1,,,,,,,,,,,,,,,,,,,,,
,,,,,,,,,,,,60aa7fb5c44ce529d3cfc4ce,20,Kobieta,2022-06-11_09h30.31.594,task,2021.1.4,Win32,60.0240096,6299f149e92ead563fba08ef,62a443d29eac3206907b01bd,,,,,,,,,,,,,6,,,,,,,,,,Task,5,(2x3) + 0,6,,,,,,,,,,,,,,,,,,1,,,,,,,,,,,,,,,,,,,,,,,,"[""6""]",1,[2.8870000000000573],0,0,0,4,1,,,,,,,,,,,,,,,,,,,,,,,,,,
,,,,,,,,,,,X V Q F H G B L J M P D K C T S W R N Z,60aa7fb5c44ce529d3cfc4ce,20,Kobieta,2022-06-11_09h30.31.594,task,2021.1.4,Win32,60.0240096,6299f149e92ead563fba08ef,62a443d29eac3206907b01bd,,,,,,,,,,,,,,,,,,,,,,,,,,,,,,,,,,,,,,,,,,,,,,,,,,,,,,,,,,,,,,,,,,,,,,,,,,,,4,0,4,0,1,,,,,,,,,,,,,,,,,,,,,
,,,,,,,,,,,,60aa7fb5c44ce529d3cfc4ce,20,Kobieta,2022-06-11_09h30.31.594,task,2021.1.4,Win32,60.0240096,6299f149e92ead563fba08ef,62a443d29eac3206907b01bd,,,,,,,,,,,,,,,,,,,,,,,,,,,,,,,,,,,,,,,,,,,,,,,,,,,,,,,,,,,,,,,,,,,,,,,,,,,,,,,,,cgxhc,"[""c"",""g"",""x"",""h"",""c""]",0,"[1.816000000000031,1.9660000000000082,3.1100000000000136,3.2620000000000573,3.5810000000000173,4.747000000000071]",1,CGXHC,3,0,3,0,1,,,,,,,,,,
,,,,,,,,,,,,60aa7fb5c44ce529d3cfc4ce,20,Kobieta,2022-06-11_09h30.31.594,task,2021.1.4,Win32,60.0240096,6299f149e92ead563fba08ef,62a443d29eac3206907b01bd,,,,,,,,,,,,,9,,,,,,,,,,Task,7,(3x7) - 12,9,,,,,,,,,,,,,,,,,,1,,,,,,,,,,,,,,,,,,,,,,,,"[""9""]",1,[4.578000000000088],0,0,0,6,1,,,,,,,,,,,,,,,,,,,,,,,,,,
,,,,,,,,,,,X V Q F H G B L J M P D K C T S W R N Z,60aa7fb5c44ce529d3cfc4ce,20,Kobieta,2022-06-11_09h30.31.594,task,2021.1.4,Win32,60.0240096,6299f149e92ead563fba08ef,62a443d29eac3206907b01bd,,,,,,,,,,,,,,,,,,,,,,,,,,,,,,,,,,,,,,,,,,,,,,,,,,,,,,,,,,,,,,,,,,,,,,,,,,,,0,0,0,0,1,,,,,,,,,,,,,,,,,,,,,
,,,,,,,,,,,,60aa7fb5c44ce529d3cfc4ce,20,Kobieta,2022-06-11_09h30.31.594,task,2021.1.4,Win32,60.0240096,6299f149e92ead563fba08ef,62a443d29eac3206907b01bd,,,,,,,,,,,,,7,,,,,,,,,,Task,6,(12/2) + 1,7,,,,,,,,,,,,,,,,,,1,,,,,,,,,,,,,,,,,,,,,,,,"[""7""]",1,[1.8809999999999718],0,0,0,5,1,,,,,,,,,,,,,,,,,,,,,,,,,,
,,,,,,,,,,,X V Q F H G B L J M P D K C T S W R N Z,60aa7fb5c44ce529d3cfc4ce,20,Kobieta,2022-06-11_09h30.31.594,task,2021.1.4,Win32,60.0240096,6299f149e92ead563fba08ef,62a443d29eac3206907b01bd,,,,,,,,,,,,,,,,,,,,,,,,,,,,,,,,,,,,,,,,,,,,,,,,,,,,,,,,,,,,,,,,,,,,,,,,,,,,1,0,1,0,1,,,,,,,,,,,,,,,,,,,,,
,,,,,,,,,,,,60aa7fb5c44ce529d3cfc4ce,20,Kobieta,2022-06-11_09h30.31.594,task,2021.1.4,Win32,60.0240096,6299f149e92ead563fba08ef,62a443d29eac3206907b01bd,,,,,,,,,,,,,2,,,,,,,,,,Task,26,(2x9) - 16,2,,,,,,,,,,,,,,,,,,1,,,,,,,,,,,,,,,,,,,,,,,,"[""2""]",1,[2.1280000000000427],0,0,0,25,1,,,,,,,,,,,,,,,,,,,,,,,,,,
,,,,,,,,,,,X V Q F H G B L J M P D K C T S W R N Z,60aa7fb5c44ce529d3cfc4ce,20,Kobieta,2022-06-11_09h30.31.594,task,2021.1.4,Win32,60.0240096,6299f149e92ead563fba08ef,62a443d29eac3206907b01bd,,,,,,,,,,,,,,,,,,,,,,,,,,,,,,,,,,,,,,,,,,,,,,,,,,,,,,,,,,,,,,,,,,,,,,,,,,,,2,0,2,0,1,,,,,,,,,,,,,,,,,,,,,
,,,,,,,,,,,,60aa7fb5c44ce529d3cfc4ce,20,Kobieta,2022-06-11_09h30.31.594,task,2021.1.4,Win32,60.0240096,6299f149e92ead563fba08ef,62a443d29eac3206907b01bd,,,,,,,,,,,,,1,,,,,,,,,,Task,18,(16/4) - 3,1,,,,,,,,,,,,,,,,,,1,,,,,,,,,,,,,,,,,,,,,,,,"[""1""]",1,[4.672999999999888],0,0,0,17,1,,,,,,,,,,,,,,,,,,,,,,,,,,
,,,,,,,,,,,X V Q F H G B L J M P D K C T S W R N Z,60aa7fb5c44ce529d3cfc4ce,20,Kobieta,2022-06-11_09h30.31.594,task,2021.1.4,Win32,60.0240096,6299f149e92ead563fba08ef,62a443d29eac3206907b01bd,,,,,,,,,,,,,,,,,,,,,,,,,,,,,,,,,,,,,,,,,,,,,,,,,,,,,,,,,,,,,,,,,,,,,,,,,,,,3,0,3,0,1,,,,,,,,,,,,,,,,,,,,,
,,,,,,,,,,,,60aa7fb5c44ce529d3cfc4ce,20,Kobieta,2022-06-11_09h30.31.594,task,2021.1.4,Win32,60.0240096,6299f149e92ead563fba08ef,62a443d29eac3206907b01bd,,,,,,,,,,,,,9,,,,,,,,,,Task,16,(3x8) - 15,9,,,,,,,,,,,,,,,,,,1,,,,,,,,,,,,,,,,,,,,,,,,"[""9""]",1,[2.9990000000000236],0,0,0,15,1,,,,,,,,,,,,,,,,,,,,,,,,,,
,,,,,,,,,,,X V Q F H G B L J M P D K C T S W R N Z,60aa7fb5c44ce529d3cfc4ce,20,Kobieta,2022-06-11_09h30.31.594,task,2021.1.4,Win32,60.0240096,6299f149e92ead563fba08ef,62a443d29eac3206907b01bd,,,,,,,,,,,,,,,,,,,,,,,,,,,,,,,,,,,,,,,,,,,,,,,,,,,,,,,,,,,,,,,,,,,,,,,,,,,,4,0,4,0,1,,,,,,,,,,,,,,,,,,,,,
,,,,,,,,,,,,60aa7fb5c44ce529d3cfc4ce,20,Kobieta,2022-06-11_09h30.31.594,task,2021.1.4,Win32,60.0240096,6299f149e92ead563fba08ef,62a443d29eac3206907b01bd,,,,,,,,,,,,,8,,,,,,,,,,Task,23,(2x3) + 2,8,,,,,,,,,,,,,,,,,,1,,,,,,,,,,,,,,,,,,,,,,,,"[""8""]",1,[2.7859999999999445],0,0,0,22,1,,,,,,,,,,,,,,,,,,,,,,,,,,
,,,,,,,,,,,X V Q F H G B L J M P D K C T S W R N Z,60aa7fb5c44ce529d3cfc4ce,20,Kobieta,2022-06-11_09h30.31.594,task,2021.1.4,Win32,60.0240096,6299f149e92ead563fba08ef,62a443d29eac3206907b01bd,,,,,,,,,,,,,,,,,,,,,,,,,,,,,,,,,,,,,,,,,,,,,,,,,,,,,,,,,,,,,,,,,,,,,,,,,,,,5,0,5,0,1,,,,,,,,,,,,,,,,,,,,,
,,,,,,,,,,,,60aa7fb5c44ce529d3cfc4ce,20,Kobieta,2022-06-11_09h30.31.594,task,2021.1.4,Win32,60.0240096,6299f149e92ead563fba08ef,62a443d29eac3206907b01bd,,,,,,,,,,,,,,,,,,,,,,,,,,,,,,,,,,,,,,,,,,,,,,,,,,,,,,,,,,,,,,,,,,,,,,,,,,,,,,,,,qwfcfd,"[""q"",""w"",""f"",""c"",""f"",""d""]",0,"[1.6999999999999318,2.0329999999999018,2.3169999999998936,2.602999999999952,2.8719999999999573,3.127999999999929,28.977999999999952]",1,QWFCFD,4,0,4,0,1,,,,,,,,,,
,,,,,,,,,,,,60aa7fb5c44ce529d3cfc4ce,20,Kobieta,2022-06-11_09h30.31.594,task,2021.1.4,Win32,60.0240096,6299f149e92ead563fba08ef,62a443d29eac3206907b01bd,,,,,,,,,,,,,7,,,,,,,,,,Task,31,(4/2) + 5,7,,,,,,,,,,,,,,,,,,1,,,,,,,,,,,,,,,,,,,,,,,,"[""7""]",1,[2.247000000000071],0,0,0,30,1,,,,,,,,,,,,,,,,,,,,,,,,,,
,,,,,,,,,,,X V Q F H G B L J M P D K C T S W R N Z,60aa7fb5c44ce529d3cfc4ce,20,Kobieta,2022-06-11_09h30.31.594,task,2021.1.4,Win32,60.0240096,6299f149e92ead563fba08ef,62a443d29eac3206907b01bd,,,,,,,,,,,,,,,,,,,,,,,,,,,,,,,,,,,,,,,,,,,,,,,,,,,,,,,,,,,,,,,,,,,,,,,,,,,,0,0,0,0,1,,,,,,,,,,,,,,,,,,,,,
,,,,,,,,,,,,60aa7fb5c44ce529d3cfc4ce,20,Kobieta,2022-06-11_09h30.31.594,task,2021.1.4,Win32,60.0240096,6299f149e92ead563fba08ef,62a443d29eac3206907b01bd,,,,,,,,,,,,,9,,,,,,,,,,Task,7,(3x7) - 12,9,,,,,,,,,,,,,,,,,,1,,,,,,,,,,,,,,,,,,,,,,,,"[""9""]",1,[4.47199999999998],0,0,0,6,1,,,,,,,,,,,,,,,,,,,,,,,,,,
,,,,,,,,,,,X V Q F H G B L J M P D K C T S W R N Z,60aa7fb5c44ce529d3cfc4ce,20,Kobieta,2022-06-11_09h30.31.594,task,2021.1.4,Win32,60.0240096,6299f149e92ead563fba08ef,62a443d29eac3206907b01bd,,,,,,,,,,,,,,,,,,,,,,,,,,,,,,,,,,,,,,,,,,,,,,,,,,,,,,,,,,,,,,,,,,,,,,,,,,,,1,0,1,0,1,,,,,,,,,,,,,,,,,,,,,
,,,,,,,,,,,,60aa7fb5c44ce529d3cfc4ce,20,Kobieta,2022-06-11_09h30.31.594,task,2021.1.4,Win32,60.0240096,6299f149e92ead563fba08ef,62a443d29eac3206907b01bd,,,,,,,,,,,,,8,,,,,,,,,,Task,23,(2x3) + 2,8,,,,,,,,,,,,,,,,,,1,,,,,,,,,,,,,,,,,,,,,,,,"[""8""]",1,[1.947999999999979],0,0,0,22,1,,,,,,,,,,,,,,,,,,,,,,,,,,
,,,,,,,,,,,X V Q F H G B L J M P D K C T S W R N Z,60aa7fb5c44ce529d3cfc4ce,20,Kobieta,2022-06-11_09h30.31.594,task,2021.1.4,Win32,60.0240096,6299f149e92ead563fba08ef,62a443d29eac3206907b01bd,,,,,,,,,,,,,,,,,,,,,,,,,,,,,,,,,,,,,,,,,,,,,,,,,,,,,,,,,,,,,,,,,,,,,,,,,,,,2,0,2,0,1,,,,,,,,,,,,,,,,,,,,,
,,,,,,,,,,,,60aa7fb5c44ce529d3cfc4ce,20,Kobieta,2022-06-11_09h30.31.594,task,2021.1.4,Win32,60.0240096,6299f149e92ead563fba08ef,62a443d29eac3206907b01bd,,,,,,,,,,,,,4,,,,,,,,,,Task,4,(1x5) - 1,4,,,,,,,,,,,,,,,,,,1,,,,,,,,,,,,,,,,,,,,,,,,"[""4""]",1,[1.9010000000000673],0,0,0,3,1,,,,,,,,,,,,,,,,,,,,,,,,,,
,,,,,,,,,,,X V Q F H G B L J M P D K C T S W R N Z,60aa7fb5c44ce529d3cfc4ce,20,Kobieta,2022-06-11_09h30.31.594,task,2021.1.4,Win32,60.0240096,6299f149e92ead563fba08ef,62a443d29eac3206907b01bd,,,,,,,,,,,,,,,,,,,,,,,,,,,,,,,,,,,,,,,,,,,,,,,,,,,,,,,,,,,,,,,,,,,,,,,,,,,,3,0,3,0,1,,,,,,,,,,,,,,,,,,,,,
,,,,,,,,,,,,60aa7fb5c44ce529d3cfc4ce,20,Kobieta,2022-06-11_09h30.31.594,task,2021.1.4,Win32,60.0240096,6299f149e92ead563fba08ef,62a443d29eac3206907b01bd,,,,,,,,,,,,,3,,,,,,,,,,Task,25,(10/5) - 2,0,,,,,,,,,,,,,,,,,,0,,,,,,,,,,,,,,,,,,,,,,,,"[""3""]",0,[3.2690000000000055],0,0,0,24,1,,,,,,,,,,,,,,,,,,,,,,,,,,
,,,,,,,,,,,,60aa7fb5c44ce529d3cfc4ce,20,Kobieta,2022-06-11_09h30.31.594,task,2021.1.4,Win32,60.0240096,6299f149e92ead563fba08ef,62a443d29eac3206907b01bd,,,,,,,,,,,,,,,,,,,,,,,Task,21,(10/2) - 1,4,,,,,,,,,,,,,,,,,,0,,,,,,,,,,,,,,,,,,,,,,,,,0,,0,1,1,20,1,,,,,,,,,,,,,,,,,,,,,,,,,,
,,,,,,,,,,,,60aa7fb5c44ce529d3cfc4ce,20,Kobieta,2022-06-11_09h30.31.594,task,2021.1.4,Win32,60.0240096,6299f149e92ead563fba08ef,62a443d29eac3206907b01bd,,,,,,,,,,,,,9,,,,,,,,,,Task,7,(3x7) - 12,9,,,,,,,,,,,,,,,,,,1,,,,,,,,,,,,,,,,,,,,,,,,"[""9""]",1,[2.0970000000000937],0,2,2,6,1,,,,,,,,,,,,,,,,,,,,,,,,,,
,,,,,,,,,,,X V Q F H G B L J M P D K C T S W R N Z,60aa7fb5c44ce529d3cfc4ce,20,Kobieta,2022-06-11_09h30.31.594,task,2021.1.4,Win32,60.0240096,6299f149e92ead563fba08ef,62a443d29eac3206907b01bd,,,,,,,,,,,,,,,,,,,,,,,,,,,,,,,,,,,,,,,,,,,,,,,,,,,,,,,,,,,,,,,,,,,,,,,,,,,,4,0,4,0,1,,,,,,,,,,,,,,,,,,,,,
,,,,,,,,,,,,60aa7fb5c44ce529d3cfc4ce,20,Kobieta,2022-06-11_09h30.31.594,task,2021.1.4,Win32,60.0240096,6299f149e92ead563fba08ef,62a443d29eac3206907b01bd,,,,,,,,,,,,,9,,,,,,,,,,Task,16,(3x8) - 15,9,,,,,,,,,,,,,,,,,,1,,,,,,,,,,,,,,,,,,,,,,,,"[""9""]",1,[2.145999999999958],0,0,0,15,1,,,,,,,,,,,,,,,,,,,,,,,,,,
,,,,,,,,,,,X V Q F H G B L J M P D K C T S W R N Z,60aa7fb5c44ce529d3cfc4ce,20,Kobieta,2022-06-11_09h30.31.594,task,2021.1.4,Win32,60.0240096,6299f149e92ead563fba08ef,62a443d29eac3206907b01bd,,,,,,,,,,,,,,,,,,,,,,,,,,,,,,,,,,,,,,,,,,,,,,,,,,,,,,,,,,,,,,,,,,,,,,,,,,,,5,0,5,0,1,,,,,,,,,,,,,,,,,,,,,
,,,,,,,,,,,,60aa7fb5c44ce529d3cfc4ce,20,Kobieta,2022-06-11_09h30.31.594,task,2021.1.4,Win32,60.0240096,6299f149e92ead563fba08ef,62a443d29eac3206907b01bd,,,,,,,,,,,,,8,,,,,,,,,,Task,39,(5x3) - 7,8,,,,,,,,,,,,,,,,,,1,,,,,,,,,,,,,,,,,,,,,,,,"[""8""]",1,[2.3079999999999927],0,0,0,38,1,,,,,,,,,,,,,,,,,,,,,,,,,,
,,,,,,,,,,,X V Q F H G B L J M P D K C T S W R N Z,60aa7fb5c44ce529d3cfc4ce,20,Kobieta,2022-06-11_09h30.31.594,task,2021.1.4,Win32,60.0240096,6299f149e92ead563fba08ef,62a443d29eac3206907b01bd,,,,,,,,,,,,,,,,,,,,,,,,,,,,,,,,,,,,,,,,,,,,,,,,,,,,,,,,,,,,,,,,,,,,,,,,,,,,6,0,6,0,1,,,,,,,,,,,,,,,,,,,,,
,,,,,,,,,,,,60aa7fb5c44ce529d3cfc4ce,20,Kobieta,2022-06-11_09h30.31.594,task,2021.1.4,Win32,60.0240096,6299f149e92ead563fba08ef,62a443d29eac3206907b01bd,,,,,,,,,,,,,,,,,,,,,,,,,,,,,,,,,,,,,,,,,,,,,,,,,,,,,,,,,,,,,,,,,,,,,,,,,,,,,,,,,psshzcd,"[""p"",""s"",""s"",""h"",""z"",""c"",""d""]",0,"[1.91700000000003,2.2509999999999764,2.4879999999999427,2.8379999999999654,3.2409999999999854,4.8659999999999854,5.053999999999974,7.934999999999945]",1,PSSHZCD,5,0,5,0,1,,,,,,,,,,
,,,,,,,,,,,,60aa7fb5c44ce529d3cfc4ce,20,Kobieta,2022-06-11_09h30.31.594,task,2021.1.4,Win32,60.0240096,6299f149e92ead563fba08ef,62a443d29eac3206907b01bd,,,,,,,,,,,,,8,,,,,,,,,,Task,23,(2x3) + 2,8,,,,,,,,,,,,,,,,,,1,,,,,,,,,,,,,,,,,,,,,,,,"[""8""]",1,[1.3970000000000482],0,0,0,22,1,,,,,,,,,,,,,,,,,,,,,,,,,,
,,,,,,,,,,,X V Q F H G B L J M P D K C T S W R N Z,60aa7fb5c44ce529d3cfc4ce,20,Kobieta,2022-06-11_09h30.31.594,task,2021.1.4,Win32,60.0240096,6299f149e92ead563fba08ef,62a443d29eac3206907b01bd,,,,,,,,,,,,,,,,,,,,,,,,,,,,,,,,,,,,,,,,,,,,,,,,,,,,,,,,,,,,,,,,,,,,,,,,,,,,0,0,0,0,1,,,,,,,,,,,,,,,,,,,,,
,,,,,,,,,,,,60aa7fb5c44ce529d3cfc4ce,20,Kobieta,2022-06-11_09h30.31.594,task,2021.1.4,Win32,60.0240096,6299f149e92ead563fba08ef,62a443d29eac3206907b01bd,,,,,,,,,,,,,6,,,,,,,,,,Task,5,(2x3) + 0,6,,,,,,,,,,,,,,,,,,1,,,,,,,,,,,,,,,,,,,,,,,,"[""6""]",1,[1.5889999999999418],0,0,0,4,1,,,,,,,,,,,,,,,,,,,,,,,,,,
,,,,,,,,,,,X V Q F H G B L J M P D K C T S W R N Z,60aa7fb5c44ce529d3cfc4ce,20,Kobieta,2022-06-11_09h30.31.594,task,2021.1.4,Win32,60.0240096,6299f149e92ead563fba08ef,62a443d29eac3206907b01bd,,,,,,,,,,,,,,,,,,,,,,,,,,,,,,,,,,,,,,,,,,,,,,,,,,,,,,,,,,,,,,,,,,,,,,,,,,,,1,0,1,0,1,,,,,,,,,,,,,,,,,,,,,
,,,,,,,,,,,,60aa7fb5c44ce529d3cfc4ce,20,Kobieta,2022-06-11_09h30.31.594,task,2021.1.4,Win32,60.0240096,6299f149e92ead563fba08ef,62a443d29eac3206907b01bd,,,,,,,,,,,,,8,,,,,,,,,,Task,23,(2x3) + 2,8,,,,,,,,,,,,,,,,,,1,,,,,,,,,,,,,,,,,,,,,,,,"[""8""]",1,[1.8100000000000591],0,0,0,22,1,,,,,,,,,,,,,,,,,,,,,,,,,,
,,,,,,,,,,,X V Q F H G B L J M P D K C T S W R N Z,60aa7fb5c44ce529d3cfc4ce,20,Kobieta,2022-06-11_09h30.31.594,task,2021.1.4,Win32,60.0240096,6299f149e92ead563fba08ef,62a443d29eac3206907b01bd,,,,,,,,,,,,,,,,,,,,,,,,,,,,,,,,,,,,,,,,,,,,,,,,,,,,,,,,,,,,,,,,,,,,,,,,,,,,2,0,2,0,1,,,,,,,,,,,,,,,,,,,,,
,,,,,,,,,,,,60aa7fb5c44ce529d3cfc4ce,20,Kobieta,2022-06-11_09h30.31.594,task,2021.1.4,Win32,60.0240096,6299f149e92ead563fba08ef,62a443d29eac3206907b01bd,,,,,,,,,,,,,5,,,,,,,,,,Task,3,(2x3) - 3,3,,,,,,,,,,,,,,,,,,0,,,,,,,,,,,,,,,,,,,,,,,,"[""5""]",0,[2.6299999999999955],0,0,0,2,1,,,,,,,,,,,,,,,,,,,,,,,,,,
,,,,,,,,,,,,60aa7fb5c44ce529d3cfc4ce,20,Kobieta,2022-06-11_09h30.31.594,task,2021.1.4,Win32,60.0240096,6299f149e92ead563fba08ef,62a443d29eac3206907b01bd,,,,,,,,,,,,,9,,,,,,,,,,Task,7,(3x7) - 12,9,,,,,,,,,,,,,,,,,,1,,,,,,,,,,,,,,,,,,,,,,,,"[""9""]",1,[3.82000000000005],0,1,1,6,1,,,,,,,,,,,,,,,,,,,,,,,,,,
,,,,,,,,,,,X V Q F H G B L J M P D K C T S W R N Z,60aa7fb5c44ce529d3cfc4ce,20,Kobieta,2022-06-11_09h30.31.594,task,2021.1.4,Win32,60.0240096,6299f149e92ead563fba08ef,62a443d29eac3206907b01bd,,,,,,,,,,,,,,,,,,,,,,,,,,,,,,,,,,,,,,,,,,,,,,,,,,,,,,,,,,,,,,,,,,,,,,,,,,,,3,0,3,0,1,,,,,,,,,,,,,,,,,,,,,
,,,,,,,,,,,,60aa7fb5c44ce529d3cfc4ce,20,Kobieta,2022-06-11_09h30.31.594,task,2021.1.4,Win32,60.0240096,6299f149e92ead563fba08ef,62a443d29eac3206907b01bd,,,,,,,,,,,,,3,,,,,,,,,,Task,20,(18/9) + 1,3,,,,,,,,,,,,,,,,,,1,,,,,,,,,,,,,,,,,,,,,,,,"[""3""]",1,[2.366999999999962],0,0,0,19,1,,,,,,,,,,,,,,,,,,,,,,,,,,
,,,,,,,,,,,X V Q F H G B L J M P D K C T S W R N Z,60aa7fb5c44ce529d3cfc4ce,20,Kobieta,2022-06-11_09h30.31.594,task,2021.1.4,Win32,60.0240096,6299f149e92ead563fba08ef,62a443d29eac3206907b01bd,,,,,,,,,,,,,,,,,,,,,,,,,,,,,,,,,,,,,,,,,,,,,,,,,,,,,,,,,,,,,,,,,,,,,,,,,,,,4,0,4,0,1,,,,,,,,,,,,,,,,,,,,,
,,,,,,,,,,,,60aa7fb5c44ce529d3cfc4ce,20,Kobieta,2022-06-11_09h30.31.594,task,2021.1.4,Win32,60.0240096,6299f149e92ead563fba08ef,62a443d29eac3206907b01bd,,,,,,,,,,,,,5,,,,,,,,,,Task,36,(8/4) + 3,5,,,,,,,,,,,,,,,,,,1,,,,,,,,,,,,,,,,,,,,,,,,"[""5""]",1,[2.810999999999922],0,0,0,35,1,,,,,,,,,,,,,,,,,,,,,,,,,,
,,,,,,,,,,,X V Q F H G B L J M P D K C T S W R N Z,60aa7fb5c44ce529d3cfc4ce,20,Kobieta,2022-06-11_09h30.31.594,task,2021.1.4,Win32,60.0240096,6299f149e92ead563fba08ef,62a443d29eac3206907b01bd,,,,,,,,,,,,,,,,,,,,,,,,,,,,,,,,,,,,,,,,,,,,,,,,,,,,,,,,,,,,,,,,,,,,,,,,,,,,5,0,5,0,1,,,,,,,,,,,,,,,,,,,,,
,,,,,,,,,,,,60aa7fb5c44ce529d3cfc4ce,20,Kobieta,2022-06-11_09h30.31.594,task,2021.1.4,Win32,60.0240096,6299f149e92ead563fba08ef,62a443d29eac3206907b01bd,,,,,,,,,,,,,1,,,,,,,,,,Task,9,(3x7) - 20,1,,,,,,,,,,,,,,,,,,1,,,,,,,,,,,,,,,,,,,,,,,,"[""1""]",1,[2.299000000000092],0,0,0,8,1,,,,,,,,,,,,,,,,,,,,,,,,,,
,,,,,,,,,,,X V Q F H G B L J M P D K C T S W R N Z,60aa7fb5c44ce529d3cfc4ce,20,Kobieta,2022-06-11_09h30.31.594,task,2021.1.4,Win32,60.0240096,6299f149e92ead563fba08ef,62a443d29eac3206907b01bd,,,,,,,,,,,,,,,,,,,,,,,,,,,,,,,,,,,,,,,,,,,,,,,,,,,,,,,,,,,,,,,,,,,,,,,,,,,,6,0,6,0,1,,,,,,,,,,,,,,,,,,,,,
,,,,,,,,,,,,60aa7fb5c44ce529d3cfc4ce,20,Kobieta,2022-06-11_09h30.31.594,task,2021.1.4,Win32,60.0240096,6299f149e92ead563fba08ef,62a443d29eac3206907b01bd,,,,,,,,,,,,,8,,,,,,,,,,Task,23,(2x3) + 2,8,,,,,,,,,,,,,,,,,,1,,,,,,,,,,,,,,,,,,,,,,,,"[""8""]",1,[4.092999999999961],0,0,0,22,1,,,,,,,,,,,,,,,,,,,,,,,,,,
,,,,,,,,,,,X V Q F H G B L J M P D K C T S W R N Z,60aa7fb5c44ce529d3cfc4ce,20,Kobieta,2022-06-11_09h30.31.594,task,2021.1.4,Win32,60.0240096,6299f149e92ead563fba08ef,62a443d29eac3206907b01bd,,,,,,,,,,,,,,,,,,,,,,,,,,,,,,,,,,,,,,,,,,,,,,,,,,,,,,,,,,,,,,,,,,,,,,,,,,,,7,0,7,0,1,,,,,,,,,,,,,,,,,,,,,
,,,,,,,,,,,,60aa7fb5c44ce529d3cfc4ce,20,Kobieta,2022-06-11_09h30.31.594,task,2021.1.4,Win32,60.0240096,6299f149e92ead563fba08ef,62a443d29eac3206907b01bd,,,,,,,,,,,,,,,,,,,,,,,,,,,,,,,,,,,,,,,,,,,,,,,,,,,,,,,,,,,,,,,,,,,,,,,,,,,,,,,,,lqhbqlb,"[""l"",""q"",""h"",""b"",""q"",""l"",""b""]",0,"[2.1680000000000064,2.3519999999999754,2.7899999999999636,3.7619999999999436,4.628999999999905,5.856999999999971,9.544999999999959,10.459999999999923]",0,LQHBKBQN,6,0,6,0,1,,,,,,,,,,
,,,,,,,,,,,,60aa7fb5c44ce529d3cfc4ce,20,Kobieta,2022-06-11_09h30.31.594,task,2021.1.4,Win32,60.0240096,6299f149e92ead563fba08ef,62a443d29eac3206907b01bd,,,,,,,,,,,,,9,,,,,,,,,,Task,16,(3x8) - 15,9,,,,,,,,,,,,,,,,,,1,,,,,,,,,,,,,,,,,,,,,,,,"[""9""]",1,[2.5149999999999864],0,0,0,15,1,,,,,,,,,,,,,,,,,,,,,,,,,,
,,,,,,,,,,,X V Q F H G B L J M P D K C T S W R N Z,60aa7fb5c44ce529d3cfc4ce,20,Kobieta,2022-06-11_09h30.31.594,task,2021.1.4,Win32,60.0240096,6299f149e92ead563fba08ef,62a443d29eac3206907b01bd,,,,,,,,,,,,,,,,,,,,,,,,,,,,,,,,,,,,,,,,,,,,,,,,,,,,,,,,,,,,,,,,,,,,,,,,,,,,0,0,0,0,1,,,,,,,,,,,,,,,,,,,,,
,,,,,,,,,,,,60aa7fb5c44ce529d3cfc4ce,20,Kobieta,2022-06-11_09h30.31.594,task,2021.1.4,Win32,60.0240096,6299f149e92ead563fba08ef,62a443d29eac3206907b01bd,,,,,,,,,,,,,7,,,,,,,,,,Task,31,(4/2) + 5,7,,,,,,,,,,,,,,,,,,1,,,,,,,,,,,,,,,,,,,,,,,,"[""7""]",1,[2.479000000000042],0,0,0,30,1,,,,,,,,,,,,,,,,,,,,,,,,,,
,,,,,,,,,,,X V Q F H G B L J M P D K C T S W R N Z,60aa7fb5c44ce529d3cfc4ce,20,Kobieta,2022-06-11_09h30.31.594,task,2021.1.4,Win32,60.0240096,6299f149e92ead563fba08ef,62a443d29eac3206907b01bd,,,,,,,,,,,,,,,,,,,,,,,,,,,,,,,,,,,,,,,,,,,,,,,,,,,,,,,,,,,,,,,,,,,,,,,,,,,,1,0,1,0,1,,,,,,,,,,,,,,,,,,,,,
,,,,,,,,,,,,60aa7fb5c44ce529d3cfc4ce,20,Kobieta,2022-06-11_09h30.31.594,task,2021.1.4,Win32,60.0240096,6299f149e92ead563fba08ef,62a443d29eac3206907b01bd,,,,,,,,,,,,,8,,,,,,,,,,Task,32,(8/2) + 4,8,,,,,,,,,,,,,,,,,,1,,,,,,,,,,,,,,,,,,,,,,,,"[""8""]",1,[2.717999999999961],0,0,0,31,1,,,,,,,,,,,,,,,,,,,,,,,,,,
,,,,,,,,,,,X V Q F H G B L J M P D K C T S W R N Z,60aa7fb5c44ce529d3cfc4ce,20,Kobieta,2022-06-11_09h30.31.594,task,2021.1.4,Win32,60.0240096,6299f149e92ead563fba08ef,62a443d29eac3206907b01bd,,,,,,,,,,,,,,,,,,,,,,,,,,,,,,,,,,,,,,,,,,,,,,,,,,,,,,,,,,,,,,,,,,,,,,,,,,,,2,0,2,0,1,,,,,,,,,,,,,,,,,,,,,
,,,,,,,,,,,,60aa7fb5c44ce529d3cfc4ce,20,Kobieta,2022-06-11_09h30.31.594,task,2021.1.4,Win32,60.0240096,6299f149e92ead563fba08ef,62a443d29eac3206907b01bd,,,,,,,,,,,,,5,,,,,,,,,,Task,29,(3x8) - 19 ,5,,,,,,,,,,,,,,,,,,1,,,,,,,,,,,,,,,,,,,,,,,,"[""5""]",1,[3.4700000000000273],0,0,0,28,1,,,,,,,,,,,,,,,,,,,,,,,,,,
,,,,,,,,,,,X V Q F H G B L J M P D K C T S W R N Z,60aa7fb5c44ce529d3cfc4ce,20,Kobieta,2022-06-11_09h30.31.594,task,2021.1.4,Win32,60.0240096,6299f149e92ead563fba08ef,62a443d29eac3206907b01bd,,,,,,,,,,,,,,,,,,,,,,,,,,,,,,,,,,,,,,,,,,,,,,,,,,,,,,,,,,,,,,,,,,,,,,,,,,,,3,0,3,0,1,,,,,,,,,,,,,,,,,,,,,
,,,,,,,,,,,,60aa7fb5c44ce529d3cfc4ce,20,Kobieta,2022-06-11_09h30.31.594,task,2021.1.4,Win32,60.0240096,6299f149e92ead563fba08ef,62a443d29eac3206907b01bd,,,,,,,,,,,,,9,,,,,,,,,,Task,7,(3x7) - 12,9,,,,,,,,,,,,,,,,,,1,,,,,,,,,,,,,,,,,,,,,,,,"[""9""]",1,[3.8290000000000646],0,0,0,6,1,,,,,,,,,,,,,,,,,,,,,,,,,,
,,,,,,,,,,,X V Q F H G B L J M P D K C T S W R N Z,60aa7fb5c44ce529d3cfc4ce,20,Kobieta,2022-06-11_09h30.31.594,task,2021.1.4,Win32,60.0240096,6299f149e92ead563fba08ef,62a443d29eac3206907b01bd,,,,,,,,,,,,,,,,,,,,,,,,,,,,,,,,,,,,,,,,,,,,,,,,,,,,,,,,,,,,,,,,,,,,,,,,,,,,4,0,4,0,1,,,,,,,,,,,,,,,,,,,,,
,,,,,,,,,,,,60aa7fb5c44ce529d3cfc4ce,20,Kobieta,2022-06-11_09h30.31.594,task,2021.1.4,Win32,60.0240096,6299f149e92ead563fba08ef,62a443d29eac3206907b01bd,,,,,,,,,,,,,,,,,,,,,,,Task,18,(16/4) - 3,1,,,,,,,,,,,,,,,,,,0,,,,,,,,,,,,,,,,,,,,,,,,,0,,0,0,0,17,1,,,,,,,,,,,,,,,,,,,,,,,,,,
,,,,,,,,,,,,60aa7fb5c44ce529d3cfc4ce,20,Kobieta,2022-06-11_09h30.31.594,task,2021.1.4,Win32,60.0240096,6299f149e92ead563fba08ef,62a443d29eac3206907b01bd,,,,,,,,,,,,,9,,,,,,,,,,Task,16,(3x8) - 15,9,,,,,,,,,,,,,,,,,,1,,,,,,,,,,,,,,,,,,,,,,,,"[""9""]",1,[3.173999999999978],0,1,1,15,1,,,,,,,,,,,,,,,,,,,,,,,,,,
,,,,,,,,,,,X V Q F H G B L J M P D K C T S W R N Z,60aa7fb5c44ce529d3cfc4ce,20,Kobieta,2022-06-11_09h30.31.594,task,2021.1.4,Win32,60.0240096,6299f149e92ead563fba08ef,62a443d29eac3206907b01bd,,,,,,,,,,,,,,,,,,,,,,,,,,,,,,,,,,,,,,,,,,,,,,,,,,,,,,,,,,,,,,,,,,,,,,,,,,,,5,0,5,0,1,,,,,,,,,,,,,,,,,,,,,
,,,,,,,,,,,,60aa7fb5c44ce529d3cfc4ce,20,Kobieta,2022-06-11_09h30.31.594,task,2021.1.4,Win32,60.0240096,6299f149e92ead563fba08ef,62a443d29eac3206907b01bd,,,,,,,,,,,,,9,,,,,,,,,,Task,40,(7x2) - 5,9,,,,,,,,,,,,,,,,,,1,,,,,,,,,,,,,,,,,,,,,,,,"[""9""]",1,[2.875],0,0,0,39,1,,,,,,,,,,,,,,,,,,,,,,,,,,
,,,,,,,,,,,X V Q F H G B L J M P D K C T S W R N Z,60aa7fb5c44ce529d3cfc4ce,20,Kobieta,2022-06-11_09h30.31.594,task,2021.1.4,Win32,60.0240096,6299f149e92ead563fba08ef,62a443d29eac3206907b01bd,,,,,,,,,,,,,,,,,,,,,,,,,,,,,,,,,,,,,,,,,,,,,,,,,,,,,,,,,,,,,,,,,,,,,,,,,,,,6,0,6,0,1,,,,,,,,,,,,,,,,,,,,,
,,,,,,,,,,,,60aa7fb5c44ce529d3cfc4ce,20,Kobieta,2022-06-11_09h30.31.594,task,2021.1.4,Win32,60.0240096,6299f149e92ead563fba08ef,62a443d29eac3206907b01bd,,,,,,,,,,,,,7,,,,,,,,,,Task,36,(8/4) + 3,5,,,,,,,,,,,,,,,,,,0,,,,,,,,,,,,,,,,,,,,,,,,"[""7""]",0,[3.7390000000000327],0,0,0,35,1,,,,,,,,,,,,,,,,,,,,,,,,,,
,,,,,,,,,,,,60aa7fb5c44ce529d3cfc4ce,20,Kobieta,2022-06-11_09h30.31.594,task,2021.1.4,Win32,60.0240096,6299f149e92ead563fba08ef,62a443d29eac3206907b01bd,,,,,,,,,,,,,5,,,,,,,,,,Task,37,(3/3) + 5,6,,,,,,,,,,,,,,,,,,0,,,,,,,,,,,,,,,,,,,,,,,,"[""5""]",0,[2.800999999999931],0,1,1,36,1,,,,,,,,,,,,,,,,,,,,,,,,,,
,,,,,,,,,,,,60aa7fb5c44ce529d3cfc4ce,20,Kobieta,2022-06-11_09h30.31.594,task,2021.1.4,Win32,60.0240096,6299f149e92ead563fba08ef,62a443d29eac3206907b01bd,,,,,,,,,,,,,7,,,,,,,,,,Task,14,(2x2) + 3,7,,,,,,,,,,,,,,,,,,1,,,,,,,,,,,,,,,,,,,,,,,,"[""7""]",1,[1.7490000000000236],0,2,2,13,1,,,,,,,,,,,,,,,,,,,,,,,,,,
,,,,,,,,,,,X V Q F H G B L J M P D K C T S W R N Z,60aa7fb5c44ce529d3cfc4ce,20,Kobieta,2022-06-11_09h30.31.594,task,2021.1.4,Win32,60.0240096,6299f149e92ead563fba08ef,62a443d29eac3206907b01bd,,,,,,,,,,,,,,,,,,,,,,,,,,,,,,,,,,,,,,,,,,,,,,,,,,,,,,,,,,,,,,,,,,,,,,,,,,,,7,0,7,0,1,,,,,,,,,,,,,,,,,,,,,
,,,,,,,,,,,,60aa7fb5c44ce529d3cfc4ce,20,Kobieta,2022-06-11_09h30.31.594,task,2021.1.4,Win32,60.0240096,6299f149e92ead563fba08ef,62a443d29eac3206907b01bd,,,,,,,,,,,,,,,,,,,,,,,,,,,,,,,,,,,,,,,,,,,,,,,,,,,,,,,,,,,,,,,,,,,,,,,,,,,,,,,,,wvcbkcb,"[""w"",""v"",""c"",""b"",""k"",""c"",""b""]",0,"[1.7719999999999345,2.2390000000000327,3.6019999999999754,3.798000000000002,4.779999999999973,5.718999999999937,5.9360000000000355,18.323999999999955]",0,WVCPKCBD,7,0,7,0,1,,,,,,,,,,
,,,,,,,,,,,,60aa7fb5c44ce529d3cfc4ce,20,Kobieta,2022-06-11_09h30.31.594,task,2021.1.4,Win32,60.0240096,6299f149e92ead563fba08ef,62a443d29eac3206907b01bd,,,,,,,,,,,,,,,,,,,,,,,,,,,,,,,,,,,,,,,,,,,,,,,,,,,,,,,,,,,,,,,,,,,,,,,,,,,,,,,,,,,,,,,,,,,,"[""comma""]",0,[1.509999999999991],0,0,0,0,1,,
,,,,,,,,,,,,60aa7fb5c44ce529d3cfc4ce,20,Kobieta,2022-06-11_09h30.31.594,task,2021.1.4,Win32,60.0240096,6299f149e92ead563fba08ef,62a443d29eac3206907b01bd,,,,,,,,,,,,,,,,,,,,,,,,,,,,,,,,,,,,,,,,,,,,,,,,,,,,,,,,,,,,,,,,,,,,,,,,,,,,,,,,,,,,,,,,,,,,"[""period""]",0,[0.9129999999998972],1,0,1,0,1,,
,,,,,,,,,,,,60aa7fb5c44ce529d3cfc4ce,20,Kobieta,2022-06-11_09h30.31.594,task,2021.1.4,Win32,60.0240096,6299f149e92ead563fba08ef,62a443d29eac3206907b01bd,,,,,,,,,,,,,,,,,,,,,,,,,,,,,,,,,,,,,,,,,,,,,,,,,,,,,,,,,,,,,,,,,,,,,,,,,,,,,,,,,,,,,,,,,,,,"[""comma""]",0,[0.3390000000000555],2,0,2,0,1,,
,,,,,,,,,,,,60aa7fb5c44ce529d3cfc4ce,20,Kobieta,2022-06-11_09h30.31.594,task,2021.1.4,Win32,60.0240096,6299f149e92ead563fba08ef,62a443d29eac3206907b01bd,,,,,,,,,,,,,,,,,,,,,,,,,,,,,,,,,,,,,,,,,,,,,,,,,,,,,,,,,,,,,,,,,,,,,,,,,,,,,,,,,,,,,,,,,,,,"[""period""]",0,[0.4049999999999727],3,0,3,0,1,,
,,,,,,,,,,,,60aa7fb5c44ce529d3cfc4ce,20,Kobieta,2022-06-11_09h30.31.594,task,2021.1.4,Win32,60.0240096,6299f149e92ead563fba08ef,62a443d29eac3206907b01bd,,,,,,,,,,,,,,,,,,,,,,,,,,,,,,,,,,,,,,,,,,,,,,,,,,,,,,,,,,,,,,,,,,,,,,,,,,,,,,,,,,,,,,,,,,,,"[""comma""]",0,[0.30499999999995],4,0,4,0,1,,
,,,,,,,,,,,,60aa7fb5c44ce529d3cfc4ce,20,Kobieta,2022-06-11_09h30.31.594,task,2021.1.4,Win32,60.0240096,6299f149e92ead563fba08ef,62a443d29eac3206907b01bd,,,,,,,,,,,,,,,,,,,,,,,,,,,,,,,,,,,,,,,,,,,,,,,,,,,,,,,,,,,,,,,,,,,,,,,,,,,,,,,,,,,,,,,,,,,,"[""period""]",0,[0.2759999999999536],5,0,5,0,1,,
,,,,,,,,,,,,60aa7fb5c44ce529d3cfc4ce,20,Kobieta,2022-06-11_09h30.31.594,task,2021.1.4,Win32,60.0240096,6299f149e92ead563fba08ef,62a443d29eac3206907b01bd,,,,,,,,,,,,,,,,,,,,,,,,,,,,,,,,,,,,,,,,,,,,,,,,,,,,,,,,,,,,,,,,,,,,,,,,,,,,,,,,,,,,,,,,,,,,"[""comma""]",0,[0.3169999999998936],6,0,6,0,1,,
,,,,,,,,,,,,60aa7fb5c44ce529d3cfc4ce,20,Kobieta,2022-06-11_09h30.31.594,task,2021.1.4,Win32,60.0240096,6299f149e92ead563fba08ef,62a443d29eac3206907b01bd,,,,,,,,,,,,,,,,,,,,,,,,,,,,,,,,,,,,,,,,,,,,,,,,,,,,,,,,,,,,,,,,,,,,,,,,,,,,,,,,,,,,,,,,,,,,"[""period""]",0,[0.2379999999999427],7,0,7,0,1,,
,,,,,,,,,,,,60aa7fb5c44ce529d3cfc4ce,20,Kobieta,2022-06-11_09h30.31.594,task,2021.1.4,Win32,60.0240096,6299f149e92ead563fba08ef,62a443d29eac3206907b01bd,,,,,,,,,,,,,,,,,,,,,,,,,,,,,,,,,,,,,,,,,,,,,,,,,,,,,,,,,,,,,,,,,,,,,,,,,,,,,,,,,,,,,,,,,,,,"[""comma""]",0,[0.30500000000006366],8,0,8,0,1,,
,,,,,,,,,,,,60aa7fb5c44ce529d3cfc4ce,20,Kobieta,2022-06-11_09h30.31.594,task,2021.1.4,Win32,60.0240096,6299f149e92ead563fba08ef,62a443d29eac3206907b01bd,,,,,,,,,,,,,,,,,,,,,,,,,,,,,,,,,,,,,,,,,,,,,,,,,,,,,,,,,,,,,,,,,,,,,,,,,,,,,,,,,,,,,,,,,,,,"[""period""]",0,[0.2599999999999909],9,0,9,0,1,,
,,,,,,,,,,,,60aa7fb5c44ce529d3cfc4ce,20,Kobieta,2022-06-11_09h30.31.594,task,2021.1.4,Win32,60.0240096,6299f149e92ead563fba08ef,62a443d29eac3206907b01bd,,,,,,,,,,,,,,,,,,,,,,,,,,,,,,,,,,,,,,,,,,,,,,,,,,,,,,,,,,,,,,,,,,,,,,,,,,,,,,,,,,,,,,,,,,,,"[""comma""]",0,[0.2540000000000191],10,0,10,0,1,,
,,,,,,,,,,,,60aa7fb5c44ce529d3cfc4ce,20,Kobieta,2022-06-11_09h30.31.594,task,2021.1.4,Win32,60.0240096,6299f149e92ead563fba08ef,62a443d29eac3206907b01bd,,,,,,,,,,,,,,,,,,,,,,,,,,,,,,,,,,,,,,,,,,,,,,,,,,,,,,,,,,,,,,,,,,,,,,,,,,,,,,,,,,,,,,,,,,,,"[""period""]",0,[0.52699999999993],11,0,11,0,1,,
,,,,,,,,,,,,60aa7fb5c44ce529d3cfc4ce,20,Kobieta,2022-06-11_09h30.31.594,task,2021.1.4,Win32,60.0240096,6299f149e92ead563fba08ef,62a443d29eac3206907b01bd,,,,,,,,,,,,,,,,,,,,,,,,,,,,,,,,,,,,,,,,,,,,,,,,,,,,,,,,,,,,,,,,,,,,,,,,,,,,,,,,,,,,,,,,,,,,"[""comma""]",0,[0.5910000000000082],12,0,12,0,1,,
,,,,,,,,,,,,60aa7fb5c44ce529d3cfc4ce,20,Kobieta,2022-06-11_09h30.31.594,task,2021.1.4,Win32,60.0240096,6299f149e92ead563fba08ef,62a443d29eac3206907b01bd,,,,,,,,,,,,,,,,,,,,,,,,,,,,,,,,,,,,,,,,,,,,,,,,,,,,,,,,,,,,,,,,,,,,,,,,,,,,,,,,,,,,,,,,,,,,"[""period""]",0,[0.41200000000003456],13,0,13,0,1,,
,,,,,,,,,,,,60aa7fb5c44ce529d3cfc4ce,20,Kobieta,2022-06-11_09h30.31.594,task,2021.1.4,Win32,60.0240096,6299f149e92ead563fba08ef,62a443d29eac3206907b01bd,,,,,,,,,,,,,,,,,,,,,,,,,,,,,,,,,,,,,,,,,,,,,,,,,,,,,,,,,,,,,,,,,,,,,,,,,,,,,,,,,,,,,,,,,,,,"[""comma""]",0,[0.47500000000002274],14,0,14,0,1,,
,,,,,,,,,,,,60aa7fb5c44ce529d3cfc4ce,20,Kobieta,2022-06-11_09h30.31.594,task,2021.1.4,Win32,60.0240096,6299f149e92ead563fba08ef,62a443d29eac3206907b01bd,,,,,,,,,,,,,,,,,,,,,,,,,,,,,,,,,,,,,,,,,,,,,,,,,,,,,,,,,,,,,,,,,,,,,,,,,,,,,,,,,,,,,,,,,,,,"[""period""]",0,[0.30499999999995],15,0,15,0,1,,
,,,,,,,,,,,,60aa7fb5c44ce529d3cfc4ce,20,Kobieta,2022-06-11_09h30.31.594,task,2021.1.4,Win32,60.0240096,6299f149e92ead563fba08ef,62a443d29eac3206907b01bd,,,,,,,,,,,,,,,,,,,,,,,,,,,,,,,,,,,,,,,,,,,,,,,,,,,,,,,,,,,,,,,,,,,,,,,,,,,,,,,,,,,,,,,,,,,,"[""comma""]",0,[0.3289999999999509],16,0,16,0,1,,
,,,,,,,,,,,,60aa7fb5c44ce529d3cfc4ce,20,Kobieta,2022-06-11_09h30.31.594,task,2021.1.4,Win32,60.0240096,6299f149e92ead563fba08ef,62a443d29eac3206907b01bd,,,,,,,,,,,,,,,,,,,,,,,,,,,,,,,,,,,,,,,,,,,,,,,,,,,,,,,,,,,,,,,,,,,,,,,,,,,,,,,,,,,,,,,,,,,,"[""period""]",0,[0.29099999999994],17,0,17,0,1,,
,,,,,,,,,,,,60aa7fb5c44ce529d3cfc4ce,20,Kobieta,2022-06-11_09h30.31.594,task,2021.1.4,Win32,60.0240096,6299f149e92ead563fba08ef,62a443d29eac3206907b01bd,,,,,,,,,,,,,,,,,,,,,,,,,,,,,,,,,,,,,,,,,,,,,,,,,,,,,,,,,,,,,,,,,,,,,,,,,,,,,,,,,,,,,,,,,,,,"[""comma""]",0,[0.3380000000000791],18,0,18,0,1,,
,,,,,,,,,,,,60aa7fb5c44ce529d3cfc4ce,20,Kobieta,2022-06-11_09h30.31.594,task,2021.1.4,Win32,60.0240096,6299f149e92ead563fba08ef,62a443d29eac3206907b01bd,,,,,,,,,,,,,,,,,,,,,,,,,,,,,,,,,,,,,,,,,,,,,,,,,,,,,,,,,,,,,,,,,,,,,,,,,,,,,,,,,,,,,,,,,,,,"[""period""]",0,[0.3709999999999809],19,0,19,0,1,,
,,,,,,,,,,,,60aa7fb5c44ce529d3cfc4ce,20,Kobieta,2022-06-11_09h30.31.594,task,2021.1.4,Win32,60.0240096,6299f149e92ead563fba08ef,62a443d29eac3206907b01bd,,,,,,,,,,,,,,,,,,,,,,,,,,,,,,,,,,,,,,,,,,,,,,,,,,,,,,,,,,,,,,,,,,,,,,,,,,,,,,,,,,,,,,,,,,,,"[""period""]",0,[0.2759999999999536],20,0,20,0,1,,
,,,,,,,,,,,,60aa7fb5c44ce529d3cfc4ce,20,Kobieta,2022-06-11_09h30.31.594,task,2021.1.4,Win32,60.0240096,6299f149e92ead563fba08ef,62a443d29eac3206907b01bd,,,,,,,,,,,,,,,,,,,,,,,,,,,,,,,,,,,,,,,,,,,,,,,,,,,,,,,,,,,,,,,,,,,,,,,,,,,,,,,,,,,,,,,,,,,,"[""comma""]",0,[0.27899999999999636],21,0,21,0,1,,
,,,,,,,,,,,,60aa7fb5c44ce529d3cfc4ce,20,Kobieta,2022-06-11_09h30.31.594,task,2021.1.4,Win32,60.0240096,6299f149e92ead563fba08ef,62a443d29eac3206907b01bd,,,,,,,,,,,,,,,,,,,,,,,,,,,,,,,,,,,,,,,,,,,,,,,,,,,,,,,,,,,,,,,,,,,,,,,,,,,,,,,,,,,,,,,,,,,,"[""comma""]",0,[0.27099999999995816],22,0,22,0,1,,
,,,,,,,,,,,,60aa7fb5c44ce529d3cfc4ce,20,Kobieta,2022-06-11_09h30.31.594,task,2021.1.4,Win32,60.0240096,6299f149e92ead563fba08ef,62a443d29eac3206907b01bd,,,,,,,,,,,,,,,,,,,,,,,,,,,,,,,,,,,,,,,,,,,,,,,,,,,,,,,,,,,,,,,,,,,,,,,,,,,,,,,,,,,,,,,,,,,,"[""period""]",0,[0.3569999999999709],23,0,23,0,1,,
,,,,,,,,,,,,60aa7fb5c44ce529d3cfc4ce,20,Kobieta,2022-06-11_09h30.31.594,task,2021.1.4,Win32,60.0240096,6299f149e92ead563fba08ef,62a443d29eac3206907b01bd,,,,,,,,,,,,,,,,,,,,,,,,,,,,,,,,,,,,,,,,,,,,,,,,,,,,,,,,,,,,,,,,,,,,,,,,,,,,,,,,,,,,,,,,,,,,"[""period""]",0,[0.24500000000000455],24,0,24,0,1,,
,,,,,,,,,,,,60aa7fb5c44ce529d3cfc4ce,20,Kobieta,2022-06-11_09h30.31.594,task,2021.1.4,Win32,60.0240096,6299f149e92ead563fba08ef,62a443d29eac3206907b01bd,,,,,,,,,,,,,,,,,,,,,,,,,,,,,,,,,,,,,,,,,,,,,,,,,,,,,,,,,,,,,,,,,,,,,,,,,,,,,,,,,,,,,,,,,,,,"[""comma""]",0,[0.25700000000006185],25,0,25,0,1,,
,,,,,,,,,,,,60aa7fb5c44ce529d3cfc4ce,20,Kobieta,2022-06-11_09h30.31.594,task,2021.1.4,Win32,60.0240096,6299f149e92ead563fba08ef,62a443d29eac3206907b01bd,,,,,,,,,,,,,,,,,,,,,,,,,,,,,,,,,,,,,,,,,,,,,,,,,,,,,,,,,,,,,,,,,,,,,,,,,,,,,,,,,,,,,,,,,,,,"[""comma""]",0,[0.24299999999993815],26,0,26,0,1,,
,,,,,,,,,,,,60aa7fb5c44ce529d3cfc4ce,20,Kobieta,2022-06-11_09h30.31.594,task,2021.1.4,Win32,60.0240096,6299f149e92ead563fba08ef,62a443d29eac3206907b01bd,,,,,,,,,,,,,,,,,,,,,,,,,,,,,,,,,,,,,,,,,,,,,,,,,,,,,,,,,,,,,,,,,,,,,,,,,,,,,,,,,,,,,,,,,,,,"[""period""]",0,[0.2880000000000109],27,0,27,0,1,,
,,,,,,,,,,,,60aa7fb5c44ce529d3cfc4ce,20,Kobieta,2022-06-11_09h30.31.594,task,2021.1.4,Win32,60.0240096,6299f149e92ead563fba08ef,62a443d29eac3206907b01bd,,,,,,,,,,,,,,,,,,,,,,,,,,,,,,,,,,,,,,,,,,,,,,,,,,,,,,,,,,,,,,,,,,,,,,,,,,,,,,,,,,,,,,,,,,,,"[""comma""]",0,[0.3209999999999127],28,0,28,0,1,,
,,,,,,,,,,,,60aa7fb5c44ce529d3cfc4ce,20,Kobieta,2022-06-11_09h30.31.594,task,2021.1.4,Win32,60.0240096,6299f149e92ead563fba08ef,62a443d29eac3206907b01bd,,,,,,,,,,,,,,,,,,,,,,,,,,,,,,,,,,,,,,,,,,,,,,,,,,,,,,,,,,,,,,,,,,,,,,,,,,,,,,,,,,,,,,,,,,,,"[""period"",""period""]",0,"[0.27700000000004366,1.8680000000000518]",29,0,29,0,1,,
,,,,,,,,,,,,60aa7fb5c44ce529d3cfc4ce,20,Kobieta,2022-06-11_09h30.31.594,task,2021.1.4,Win32,60.0240096,6299f149e92ead563fba08ef,62a443d29eac3206907b01bd,,,,,,,,,,,,,,,,,,,,,,,,,,,,,,,,,,,,,,,,,,,,,,,,,,,,,,,,,,,,,,,,,,,,,,,,,,,,,,,,,,,,,,,,,,,,,0,,30,0,30,0,1,,
,,,,,,,,,,,,60aa7fb5c44ce529d3cfc4ce,20,Kobieta,2022-06-11_09h30.31.594,task,2021.1.4,Win32,60.0240096,6299f149e92ead563fba08ef,62a443d29eac3206907b01bd,,,,,,,,,,,,,,,,,,,,,,,,,,,,,,,,,,,,,,,,,,,,,,,,,,,,,,,,,,,,,,,,,,,,,,,,,,,,,,,,,,,,,,,,,,,,"[""period""]",0,[0.2619999999999436],31,0,31,0,1,,
,,,,,,,,,,,,60aa7fb5c44ce529d3cfc4ce,20,Kobieta,2022-06-11_09h30.31.594,task,2021.1.4,Win32,60.0240096,6299f149e92ead563fba08ef,62a443d29eac3206907b01bd,,,,,,,,,,,,,,,,,,,,,,,,,,,,,,,,,,,,,,,,,,,,,,,,,,,,,,,,,,,,,,,,,,,,,,,,,,,,,,,,,,,,,,,,,,,,"[""comma""]",0,[0.2760000000000673],32,0,32,0,1,,
,,,,,,,,,,,,60aa7fb5c44ce529d3cfc4ce,20,Kobieta,2022-06-11_09h30.31.594,task,2021.1.4,Win32,60.0240096,6299f149e92ead563fba08ef,62a443d29eac3206907b01bd,,,,,,,,,,,,,,,,,,,,,,,,,,,,,,,,,,,,,,,,,,,,,,,,,,,,,,,,,,,,,,,,,,,,,,,,,,,,,,,,,,,,,,,,,,,,"[""comma""]",0,[0.27099999999995816],33,0,33,0,1,,
,,,,,,,,,,,,60aa7fb5c44ce529d3cfc4ce,20,Kobieta,2022-06-11_09h30.31.594,task,2021.1.4,Win32,60.0240096,6299f149e92ead563fba08ef,62a443d29eac3206907b01bd,,,,,,,,,,,,,,,,,,,,,,,,,,,,,,,,,,,,,,,,,,,,,,,,,,,,,,,,,,,,,,,,,,,,,,,,,,,,,,,,,,,,,,,,,,,,"[""comma""]",0,[0.2720000000000482],34,0,34,0,1,,
,,,,,,,,,,,,60aa7fb5c44ce529d3cfc4ce,20,Kobieta,2022-06-11_09h30.31.594,task,2021.1.4,Win32,60.0240096,6299f149e92ead563fba08ef,62a443d29eac3206907b01bd,,,,,,,,,,,,,,,,,,,,,,,,,,,,,,,,,,,,,,,,,,,,,,,,,,,,,,,,,,,,,,,,,,,,,,,,,,,,,,,,,,,,,,,,,,,,"[""period""]",0,[0.28899999999998727],35,0,35,0,1,,
,,,,,,,,,,,,60aa7fb5c44ce529d3cfc4ce,20,Kobieta,2022-06-11_09h30.31.594,task,2021.1.4,Win32,60.0240096,6299f149e92ead563fba08ef,62a443d29eac3206907b01bd,,,,,,,,,,,,,,,,,,,,,,,,,,,,,,,,,,,,,,,,,,,,,,,,,,,,,,,,,,,,,,,,,,,,,,,,,,,,,,,,,,,,,,,,,,,,"[""comma""]",0,[0.2669999999998254],36,0,36,0,1,,
,,,,,,,,,,,,60aa7fb5c44ce529d3cfc4ce,20,Kobieta,2022-06-11_09h30.31.594,task,2021.1.4,Win32,60.0240096,6299f149e92ead563fba08ef,62a443d29eac3206907b01bd,,,,,,,,,,,,,,,,,,,,,,,,,,,,,,,,,,,,,,,,,,,,,,,,,,,,,,,,,,,,,,,,,,,,,,,,,,,,,,,,,,,,,,,,,,,,"[""period""]",0,[0.3789999999999054],37,0,37,0,1,,
,,,,,,,,,,,,60aa7fb5c44ce529d3cfc4ce,20,Kobieta,2022-06-11_09h30.31.594,task,2021.1.4,Win32,60.0240096,6299f149e92ead563fba08ef,62a443d29eac3206907b01bd,,,,,,,,,,,,,,,,,,,,,,,,,,,,,,,,,,,,,,,,,,,,,,,,,,,,,,,,,,,,,,,,,,,,,,,,,,,,,,,,,,,,,,,,,,,,"[""comma""]",0,[0.4390000000000782],38,0,38,0,1,,
,,,,,,,,,,,,60aa7fb5c44ce529d3cfc4ce,20,Kobieta,2022-06-11_09h30.31.594,task,2021.1.4,Win32,60.0240096,6299f149e92ead563fba08ef,62a443d29eac3206907b01bd,,,,,,,,,,,,,,,,,,,,,,,,,,,,,,,,,,,,,,,,,,,,,,,,,,,,,,,,,,,,,,,,,,,,,,,,,,,,,,,,,,,,,,,,,,,,"[""period""]",0,[0.27599999999983993],39,0,39,0,1,,
,,,,,,,,,,,,60aa7fb5c44ce529d3cfc4ce,20,Kobieta,2022-06-11_09h30.31.594,task,2021.1.4,Win32,60.0240096,6299f149e92ead563fba08ef,62a443d29eac3206907b01bd,,,,,,,,,,,,,,,,,,,,,,,,,,,,,,,,,,,,,,,,,,,,,,,,,,,,,,,,,,,,,,,,,,,,,,,,,,,,,,,,,,,,,,,,,,,,"[""comma""]",0,[0.1369999999999436],40,0,40,0,1,,
,,,,,,,,,,,,60aa7fb5c44ce529d3cfc4ce,20,Kobieta,2022-06-11_09h30.31.594,task,2021.1.4,Win32,60.0240096,6299f149e92ead563fba08ef,62a443d29eac3206907b01bd,,,,,,,,,,,,,,,,,,,,,,,,,,,,,,,,,,,,,,,,,,,,,,,,,,,,,,,,,,,,,,,,,,,,,,,,,,,,,,,,,,,,,,,,,,,,"[""period""]",0,[0.15799999999990177],41,0,41,0,1,,
,,,,,,,,,,,,60aa7fb5c44ce529d3cfc4ce,20,Kobieta,2022-06-11_09h30.31.594,task,2021.1.4,Win32,60.0240096,6299f149e92ead563fba08ef,62a443d29eac3206907b01bd,,,,,,,,,,,,,,,,,,,,,,,,,,,,,,,,,,,,,,,,,,,,,,,,,,,,,,,,,,,,,,,,,,,,,,,,,,,,,,,,,,,,,,,,,,,,"[""comma""]",0,[0.12599999999997635],42,0,42,0,1,,
,,,,,,,,,,,,60aa7fb5c44ce529d3cfc4ce,20,Kobieta,2022-06-11_09h30.31.594,task,2021.1.4,Win32,60.0240096,6299f149e92ead563fba08ef,62a443d29eac3206907b01bd,,,,,,,,,,,,,,,,,,,,,,,,,,,,,,,,,,,,,,,,,,,,,,,,,,,,,,,,,,,,,,,,,,,,,,,,,,,,,,,,,,,,,,,,,,,,"[""period""]",0,[0.25500000000010914],43,0,43,0,1,,
,,,,,,,,,,,,60aa7fb5c44ce529d3cfc4ce,20,Kobieta,2022-06-11_09h30.31.594,task,2021.1.4,Win32,60.0240096,6299f149e92ead563fba08ef,62a443d29eac3206907b01bd,,,,,,,,,,,,,,,,,,,,,,,,,,,,,,,,,,,,,,,,,,,,,,,,,,,,,,,,,,,,,,,,,,,,,,,,,,,,,,,,,,,,,,,,,,,,"[""comma""]",0,[0.32199999999988904],44,0,44,0,1,,
,,,,,,,,,,,,60aa7fb5c44ce529d3cfc4ce,20,Kobieta,2022-06-11_09h30.31.594,task,2021.1.4,Win32,60.0240096,6299f149e92ead563fba08ef,62a443d29eac3206907b01bd,,,,,,,,,,,,,,,,,,,,,,,,,,,,,,,,,,,,,,,,,,,,,,,,,,,,,,,,,,,,,,,,,,,,,,,,,,,,,,,,,,,,,,,,,,,,"[""comma""]",0,[0.2880000000000109],45,0,45,0,1,,
,,,,,,,,,,,,60aa7fb5c44ce529d3cfc4ce,20,Kobieta,2022-06-11_09h30.31.594,task,2021.1.4,Win32,60.0240096,6299f149e92ead563fba08ef,62a443d29eac3206907b01bd,,,,,,,,,,,,,,,,,,,,,,,,,,,,,,,,,,,,,,,,,,,,,,,,,,,,,,,,,,,,,,,,,,,,,,,,,,,,,,,,,,,,,,,,,,,,"[""period"",""period""]",0,"[-0.05999999999994543,1.7710000000001855]",46,0,46,0,1,,
,,,,,,,,,,,,60aa7fb5c44ce529d3cfc4ce,20,Kobieta,2022-06-11_09h30.31.594,task,2021.1.4,Win32,60.0240096,6299f149e92ead563fba08ef,62a443d29eac3206907b01bd,,,,,,,,,,,,,,,,,,,,,,,,,,,,,,,,,,,,,,,,,,,,,,,,,,,,,,,,,,,,,,,,,,,,,,,,,,,,,,,,,,,,,,,,,,,,,0,,47,0,47,0,1,,
,,,,,,,,,,,,60aa7fb5c44ce529d3cfc4ce,20,Kobieta,2022-06-11_09h30.31.594,task,2021.1.4,Win32,60.0240096,6299f149e92ead563fba08ef,62a443d29eac3206907b01bd,,,,,,,,,,,,,,,,,,,,,,,,,,,,,,,,,,,,,,,,,,,,,,,,,,,,,,,,,,,,,,,,,,,,,,,,,,,,,,,,,,,,,,,,,,,,"[""comma""]",0,[0.27700000000004366],48,0,48,0,1,,
,,,,,,,,,,,,60aa7fb5c44ce529d3cfc4ce,20,Kobieta,2022-06-11_09h30.31.594,task,2021.1.4,Win32,60.0240096,6299f149e92ead563fba08ef,62a443d29eac3206907b01bd,,,,,,,,,,,,,,,,,,,,,,,,,,,,,,,,,,,,,,,,,,,,,,,,,,,,,,,,,,,,,,,,,,,,,,,,,,,,,,,,,,,,,,,,,,,,"[""period""]",0,[0.3020000000001346],49,0,49,0,1,,
,,,,,,,,,,,,60aa7fb5c44ce529d3cfc4ce,20,Kobieta,2022-06-11_09h30.31.594,task,2021.1.4,Win32,60.0240096,6299f149e92ead563fba08ef,62a443d29eac3206907b01bd,,,,,,,,,,,,,,,,,,,,,,,,,,,,,,,,,,,,,,,,,,,,,,,,,,,,,,,,,,,,,,,,,,,,,,,,,,,,,,,,,,,,,,,,,,,,"[""comma""]",0,[0.2559999999998581],50,0,50,0,1,,
,,,,,,,,,,,,60aa7fb5c44ce529d3cfc4ce,20,Kobieta,2022-06-11_09h30.31.594,task,2021.1.4,Win32,60.0240096,6299f149e92ead563fba08ef,62a443d29eac3206907b01bd,,,,,,,,,,,,,,,,,,,,,,,,,,,,,,,,,,,,,,,,,,,,,,,,,,,,,,,,,,,,,,,,,,,,,,,,,,,,,,,,,,,,,,,,,,,,"[""period""]",0,[0.25700000000006185],51,0,51,0,1,,
,,,,,,,,,,,,60aa7fb5c44ce529d3cfc4ce,20,Kobieta,2022-06-11_09h30.31.594,task,2021.1.4,Win32,60.0240096,6299f149e92ead563fba08ef,62a443d29eac3206907b01bd,,,,,,,,,,,,,,,,,,,,,,,,,,,,,,,,,,,,,,,,,,,,,,,,,,,,,,,,,,,,,,,,,,,,,,,,,,,,,,,,,,,,,,,,,,,,"[""comma""]",0,[0.7239999999999327],52,0,52,0,1,,
,,,,,,,,,,,,60aa7fb5c44ce529d3cfc4ce,20,Kobieta,2022-06-11_09h30.31.594,task,2021.1.4,Win32,60.0240096,6299f149e92ead563fba08ef,62a443d29eac3206907b01bd,,,,,,,,,,,,,,,,,,,,,,,,,,,,,,,,,,,,,,,,,,,,,,,,,,,,,,,,,,,,,,,,,,,,,,,,,,,,,,,,,,,,,,,,,,,,"[""period""]",0,[0.8910000000000764],53,0,53,0,1,,
,,,,,,,,,,,,60aa7fb5c44ce529d3cfc4ce,20,Kobieta,2022-06-11_09h30.31.594,task,2021.1.4,Win32,60.0240096,6299f149e92ead563fba08ef,62a443d29eac3206907b01bd,,,,,,,,,,,,,,,,,,,,,,,,,,,,,,,,,,,,,,,,,,,,,,,,,,,,,,,,,,,,,,,,,,,,,,,,,,,,,,,,,,,,,,,,,,,,"[""comma""]",0,[0.8230000000000928],54,0,54,0,1,,
,,,,,,,,,,,,60aa7fb5c44ce529d3cfc4ce,20,Kobieta,2022-06-11_09h30.31.594,task,2021.1.4,Win32,60.0240096,6299f149e92ead563fba08ef,62a443d29eac3206907b01bd,,,,,,,,,,,,,,,,,,,,,,,,,,,,,,,,,,,,,,,,,,,,,,,,,,,,,,,,,,,,,,,,,,,,,,,,,,,,,,,,,,,,,,,,,,,,"[""period""]",0,[0.3709999999998672],55,0,55,0,1,,
,,,,,,,,,,,,60aa7fb5c44ce529d3cfc4ce,20,Kobieta,2022-06-11_09h30.31.594,task,2021.1.4,Win32,60.0240096,6299f149e92ead563fba08ef,62a443d29eac3206907b01bd,,,,,,,,,,,,,,,,,,,,,,,,,,,,,,,,,,,,,,,,,,,,,,,,,,,,,,,,,,,,,,,,,,,,,,,,,,,,,,,,,,,,,,,,,,,,"[""comma""]",0,[0.40599999999994907],56,0,56,0,1,,
,,,,,,,,,,,,60aa7fb5c44ce529d3cfc4ce,20,Kobieta,2022-06-11_09h30.31.594,task,2021.1.4,Win32,60.0240096,6299f149e92ead563fba08ef,62a443d29eac3206907b01bd,,,,,,,,,,,,,,,,,,,,,,,,,,,,,,,,,,,,,,,,,,,,,,,,,,,,,,,,,,,,,,,,,,,,,,,,,,,,,,,,,,,,,,,,,,,,"[""period""]",0,[0.3389999999999418],57,0,57,0,1,,
,,,,,,,,,,,,60aa7fb5c44ce529d3cfc4ce,20,Kobieta,2022-06-11_09h30.31.594,task,2021.1.4,Win32,60.0240096,6299f149e92ead563fba08ef,62a443d29eac3206907b01bd,,,,,,,,,,,,,,,,,,,,,,,,,,,,,,,,,,,,,,,,,,,,,,,,,,,,,,,,,,,,,,,,,,,,,,,,,,,,,,,,,,,,,,,,,,,,"[""comma"",""period""]",0,"[0.3220000000001164,1.9320000000000164]",58,0,58,0,1,,
,,,,,,,,,,,,60aa7fb5c44ce529d3cfc4ce,20,Kobieta,2022-06-11_09h30.31.594,task,2021.1.4,Win32,60.0240096,6299f149e92ead563fba08ef,62a443d29eac3206907b01bd,,,,,,,,,,,,,,,,,,,,,,,,,,,,,,,,,,,,,,,,,,,,,,,,,,,,,,,,,,,,,,,,,,,,,,,,,,,,,,,,,,,,,,,,,,,,,0,,59,0,59,0,1,,
,,,,,,,,,,,,60aa7fb5c44ce529d3cfc4ce,20,Kobieta,2022-06-11_09h30.31.594,task,2021.1.4,Win32,60.0240096,6299f149e92ead563fba08ef,62a443d29eac3206907b01bd,,,,,,,,,,,,,,,,,,,,,,,,,,,,,,,,,,,,,,,,,,,,,,,,,,,,,,,,,,,,,,,,,,,,,,,,,,,,,,,,,,,,,,,,,,,,"[""comma""]",0,[-0.010999999999967258],60,0,60,0,1,,
,,,,,,,,,,,,60aa7fb5c44ce529d3cfc4ce,20,Kobieta,2022-06-11_09h30.31.594,task,2021.1.4,Win32,60.0240096,6299f149e92ead563fba08ef,62a443d29eac3206907b01bd,,,,,,,,,,,,,,,,,,,,,,,,,,,,,,,,,,,,,,,,,,,,,,,,,,,,,,,,,,,,,,,,,,,,,,,,,,,,,,,,,,,,,,,,,,,,"[""period""]",0,[0.47699999999986176],61,0,61,0,1,,
,,,,,,,,,,,,60aa7fb5c44ce529d3cfc4ce,20,Kobieta,2022-06-11_09h30.31.594,task,2021.1.4,Win32,60.0240096,6299f149e92ead563fba08ef,62a443d29eac3206907b01bd,,,,,,,,,,,,,,,,,,,,,,,,,,,,,,,,,,,,,,,,,,,,,,,,,,,,,,,,,,,,,,,,,,,,,,,,,,,,,,,,,,,,,,,,,,,,"[""comma""]",0,[0.6600000000000819],62,0,62,0,1,,
,,,,,,,,,,,,60aa7fb5c44ce529d3cfc4ce,20,Kobieta,2022-06-11_09h30.31.594,task,2021.1.4,Win32,60.0240096,6299f149e92ead563fba08ef,62a443d29eac3206907b01bd,,,,,,,,,,,,,,,,,,,,,,,,,,,,,,,,,,,,,,,,,,,,,,,,,,,,,,,,,,,,,,,,,,,,,,,,,,,,,,,,,,,,,,,,,,,,"[""period""]",0,[0.43899999999985084],63,0,63,0,1,,
,,,,,,,,,,,,60aa7fb5c44ce529d3cfc4ce,20,Kobieta,2022-06-11_09h30.31.594,task,2021.1.4,Win32,60.0240096,6299f149e92ead563fba08ef,62a443d29eac3206907b01bd,,,,,,,,,,,,,,,,,,,,,,,,,,,,,,,,,,,,,,,,,,,,,,,,,,,,,,,,,,,,,,,,,,,,,,,,,,,,,,,,,,,,,,,,,,,,"[""comma""]",0,[0.4570000000001073],64,0,64,0,1,,
,,,,,,,,,,,,60aa7fb5c44ce529d3cfc4ce,20,Kobieta,2022-06-11_09h30.31.594,task,2021.1.4,Win32,60.0240096,6299f149e92ead563fba08ef,62a443d29eac3206907b01bd,,,,,,,,,,,,,,,,,,,,,,,,,,,,,,,,,,,,,,,,,,,,,,,,,,,,,,,,,,,,,,,,,,,,,,,,,,,,,,,,,,,,,,,,,,,,"[""period""]",0,[0.3250000000000455],65,0,65,0,1,,
,,,,,,,,,,,,60aa7fb5c44ce529d3cfc4ce,20,Kobieta,2022-06-11_09h30.31.594,task,2021.1.4,Win32,60.0240096,6299f149e92ead563fba08ef,62a443d29eac3206907b01bd,,,,,,,,,,,,,,,,,,,,,,,,,,,,,,,,,,,,,,,,,,,,,,,,,,,,,,,,,,,,,,,,,,,,,,,,,,,,,,,,,,,,,,,,,,,,"[""comma""]",0,[0.3289999999999509],66,0,66,0,1,,
,,,,,,,,,,,,60aa7fb5c44ce529d3cfc4ce,20,Kobieta,2022-06-11_09h30.31.594,task,2021.1.4,Win32,60.0240096,6299f149e92ead563fba08ef,62a443d29eac3206907b01bd,,,,,,,,,,,,,,,,,,,,,,,,,,,,,,,,,,,,,,,,,,,,,,,,,,,,,,,,,,,,,,,,,,,,,,,,,,,,,,,,,,,,,,,,,,,,"[""period""]",0,[0.30600000000004],67,0,67,0,1,,
,,,,,,,,,,,,60aa7fb5c44ce529d3cfc4ce,20,Kobieta,2022-06-11_09h30.31.594,task,2021.1.4,Win32,60.0240096,6299f149e92ead563fba08ef,62a443d29eac3206907b01bd,,,,,,,,,,,,,,,,,,,,,,,,,,,,,,,,,,,,,,,,,,,,,,,,,,,,,,,,,,,,,,,,,,,,,,,,,,,,,,,,,,,,,,,,,,,,"[""comma""]",0,[0.3930000000000291],68,0,68,0,1,,
,,,,,,,,,,,,60aa7fb5c44ce529d3cfc4ce,20,Kobieta,2022-06-11_09h30.31.594,task,2021.1.4,Win32,60.0240096,6299f149e92ead563fba08ef,62a443d29eac3206907b01bd,,,,,,,,,,,,,,,,,,,,,,,,,,,,,,,,,,,,,,,,,,,,,,,,,,,,,,,,,,,,,,,,,,,,,,,,,,,,,,,,,,,,,,,,,,,,"[""period""]",0,[0.37599999999997635],69,0,69,0,1,,
,,,,,,,,,,,,60aa7fb5c44ce529d3cfc4ce,20,Kobieta,2022-06-11_09h30.31.594,task,2021.1.4,Win32,60.0240096,6299f149e92ead563fba08ef,62a443d29eac3206907b01bd,,,,,,,,,,,,,,,,,,,,,,,,,,,,,,,,,,,,,,,,,,,,,,,,,,,,,,,,,,,,,,,,,,,,,,,,,,,,,,,,,,,,,,,,,,,,"[""comma""]",0,[0.30600000000004],70,0,70,0,1,,
,,,,,,,,,,,,60aa7fb5c44ce529d3cfc4ce,20,Kobieta,2022-06-11_09h30.31.594,task,2021.1.4,Win32,60.0240096,6299f149e92ead563fba08ef,62a443d29eac3206907b01bd,,,,,,,,,,,,,,,,,,,,,,,,,,,,,,,,,,,,,,,,,,,,,,,,,,,,,,,,,,,,,,,,,,,,,,,,,,,,,,,,,,,,,,,,,,,,"[""period""]",0,[0.30500000000006366],71,0,71,0,1,,
,,,,,,,,,,,,60aa7fb5c44ce529d3cfc4ce,20,Kobieta,2022-06-11_09h30.31.594,task,2021.1.4,Win32,60.0240096,6299f149e92ead563fba08ef,62a443d29eac3206907b01bd,,,,,,,,,,,,,,,,,,,,,,,,,,,,,,,,,,,,,,,,,,,,,,,,,,,,,,,,,,,,,,,,,,,,,,,,,,,,,,,,,,,,,,,,,,,,"[""comma""]",0,[0.3240000000000691],72,0,72,0,1,,
,,,,,,,,,,,,60aa7fb5c44ce529d3cfc4ce,20,Kobieta,2022-06-11_09h30.31.594,task,2021.1.4,Win32,60.0240096,6299f149e92ead563fba08ef,62a443d29eac3206907b01bd,,,,,,,,,,,,,,,,,,,,,,,,,,,,,,,,,,,,,,,,,,,,,,,,,,,,,,,,,,,,,,,,,,,,,,,,,,,,,,,,,,,,,,,,,,,,"[""period""]",0,[0.23900000000003274],73,0,73,0,1,,
,,,,,,,,,,,,60aa7fb5c44ce529d3cfc4ce,20,Kobieta,2022-06-11_09h30.31.594,task,2021.1.4,Win32,60.0240096,6299f149e92ead563fba08ef,62a443d29eac3206907b01bd,,,,,,,,,,,,,,,,,,,,,,,,,,,,,,,,,,,,,,,,,,,,,,,,,,,,,,,,,,,,,,,,,,,,,,,,,,,,,,,,,,,,,,,,,,,,"[""comma""]",0,[0.5249999999998636],74,0,74,0,1,,
,,,,,,,,,,,,60aa7fb5c44ce529d3cfc4ce,20,Kobieta,2022-06-11_09h30.31.594,task,2021.1.4,Win32,60.0240096,6299f149e92ead563fba08ef,62a443d29eac3206907b01bd,,,,,,,,,,,,,,,,,,,,,,,,,,,,,,,,,,,,,,,,,,,,,,,,,,,,,,,,,,,,,,,,,,,,,,,,,,,,,,,,,,,,,,,,,,,,"[""period""]",0,[0.2760000000000673],75,0,75,0,1,,
