key_resp_15.keys,key_resp_15.rt,key_resp_13.keys,key_resp_13.corr,ranodm_loop.thisRepN,ranodm_loop.thisTrialN,ranodm_loop.thisN,ranodm_loop.thisIndex,ranodm_loop.ran,participant,Wiek*,Płeć,date,expName,psychopyVersion,OS,frameRate,study_id,session,key_resp_13.rt,key_resp_16.keys,key_resp_16.rt,key_resp_4.keys,key_resp_4.rt,next_letter.thisRepN,next_letter.thisTrialN,next_letter.thisN,next_letter.thisIndex,next_letter.ran,letter,simple_recall,key_resp_5.keys,key_resp_5.rt,simple_recall_corr,simple_recall_corrkeys,next_level.thisRepN,next_level.thisTrialN,next_level.thisN,next_level.thisIndex,next_level.ran,key_resp_2.keys,key_resp_2.rt,digit_answer,key_resp.keys,key_resp.corr,key_resp.rt,RT_list,next_equation.thisRepN,next_equation.thisTrialN,next_equation.thisN,next_equation.thisIndex,next_equation.ran,Task,Trial,Problem,Operation_answer,processing_score,sumRT,meanRT,sumdiff,sd,RT,key_resp_3.keys,key_resp_3.rt,repeat_practice.thisRepN,repeat_practice.thisTrialN,repeat_practice.thisN,repeat_practice.thisIndex,repeat_practice.ran,key_resp_6.keys,key_resp_6.rt,key_resp_11.keys,key_resp_11.corr,key_resp_11.rt,operation_correct,repeat_if_wrong_prac.thisRepN,repeat_if_wrong_prac.thisTrialN,repeat_if_wrong_prac.thisN,repeat_if_wrong_prac.thisIndex,repeat_if_wrong_prac.ran,span_size_prac.thisRepN,span_size_prac.thisTrialN,span_size_prac.thisN,span_size_prac.thisIndex,span_size_prac.ran,complex_recall_practice,key_resp_9.keys,key_resp_9.corr,key_resp_9.rt,complex_prac_corr,span_recall_prac.thisRepN,span_recall_prac.thisTrialN,span_recall_prac.thisN,span_recall_prac.thisIndex,span_recall_prac.ran,key_resp_10.keys,key_resp_10.rt,key_resp_7.keys,key_resp_7.corr,key_resp_7.rt,repeat_if_wrong.thisRepN,repeat_if_wrong.thisTrialN,repeat_if_wrong.thisN,repeat_if_wrong.thisIndex,repeat_if_wrong.ran,span_size.thisRepN,span_size.thisTrialN,span_size.thisN,span_size.thisIndex,span_size.ran,complex_recall,key_resp_8.keys,key_resp_8.corr,key_resp_8.rt,complex_recall_corr,complex_recall_corrkeys,span_recall.thisRepN,span_recall.thisTrialN,span_recall.thisN,span_recall.thisIndex,span_recall.ran,key_resp_12.keys,key_resp_12.rt
space,4.2348,,0,0,0,0,0,1,60ab320c7942de077d57299a,20,Mężczyzna,2022-06-04_10h12.16.727,task,2021.1.4,Win32,119.3887297,628b806c463b948bc644b84f,629b0d84c8779603b71301c9,,,,,,,,,,,,,,,,,,,,,,,,,,,,,,,,,,,,,,,,,,,,,,,,,,,,,,,,,,,,,,,,,,,,,,,,,,,,,,,,,,,,,,,,,,,,,,,,,,,,,,,,
,,"[""comma""]",0,1,0,1,0,1,60ab320c7942de077d57299a,20,Mężczyzna,2022-06-04_10h12.16.727,task,2021.1.4,Win32,119.3887297,628b806c463b948bc644b84f,629b0d84c8779603b71301c9,[0.18180000001191843],,,,,,,,,,,,,,,,,,,,,,,,,,,,,,,,,,,,,,,,,,,,,,,,,,,,,,,,,,,,,,,,,,,,,,,,,,,,,,,,,,,,,,,,,,,,,,,,,,,,,,,
,,"[""period""]",0,2,0,2,0,1,60ab320c7942de077d57299a,20,Mężczyzna,2022-06-04_10h12.16.727,task,2021.1.4,Win32,119.3887297,628b806c463b948bc644b84f,629b0d84c8779603b71301c9,[0.29119999998808055],,,,,,,,,,,,,,,,,,,,,,,,,,,,,,,,,,,,,,,,,,,,,,,,,,,,,,,,,,,,,,,,,,,,,,,,,,,,,,,,,,,,,,,,,,,,,,,,,,,,,,,
,,"[""period""]",0,3,0,3,0,1,60ab320c7942de077d57299a,20,Mężczyzna,2022-06-04_10h12.16.727,task,2021.1.4,Win32,119.3887297,628b806c463b948bc644b84f,629b0d84c8779603b71301c9,[0.220800000011927],,,,,,,,,,,,,,,,,,,,,,,,,,,,,,,,,,,,,,,,,,,,,,,,,,,,,,,,,,,,,,,,,,,,,,,,,,,,,,,,,,,,,,,,,,,,,,,,,,,,,,,
,,"[""comma""]",0,4,0,4,0,1,60ab320c7942de077d57299a,20,Mężczyzna,2022-06-04_10h12.16.727,task,2021.1.4,Win32,119.3887297,628b806c463b948bc644b84f,629b0d84c8779603b71301c9,[0.2721000000238405],,,,,,,,,,,,,,,,,,,,,,,,,,,,,,,,,,,,,,,,,,,,,,,,,,,,,,,,,,,,,,,,,,,,,,,,,,,,,,,,,,,,,,,,,,,,,,,,,,,,,,,
,,"[""period"",""comma""]",0,5,0,5,0,1,60ab320c7942de077d57299a,20,Mężczyzna,2022-06-04_10h12.16.727,task,2021.1.4,Win32,119.3887297,628b806c463b948bc644b84f,629b0d84c8779603b71301c9,"[0.06610000002384453,1.9231999999880784]",,,,,,,,,,,,,,,,,,,,,,,,,,,,,,,,,,,,,,,,,,,,,,,,,,,,,,,,,,,,,,,,,,,,,,,,,,,,,,,,,,,,,,,,,,,,,,,,,,,,,,,
,,,0,6,0,6,0,1,60ab320c7942de077d57299a,20,Mężczyzna,2022-06-04_10h12.16.727,task,2021.1.4,Win32,119.3887297,628b806c463b948bc644b84f,629b0d84c8779603b71301c9,,,,,,,,,,,,,,,,,,,,,,,,,,,,,,,,,,,,,,,,,,,,,,,,,,,,,,,,,,,,,,,,,,,,,,,,,,,,,,,,,,,,,,,,,,,,,,,,,,,,,,,,
,,"[""period"",""comma"",""comma""]",0,7,0,7,0,1,60ab320c7942de077d57299a,20,Mężczyzna,2022-06-04_10h12.16.727,task,2021.1.4,Win32,119.3887297,628b806c463b948bc644b84f,629b0d84c8779603b71301c9,"[0.230100000023846,0.2482000000476816,1.9178000000119226]",,,,,,,,,,,,,,,,,,,,,,,,,,,,,,,,,,,,,,,,,,,,,,,,,,,,,,,,,,,,,,,,,,,,,,,,,,,,,,,,,,,,,,,,,,,,,,,,,,,,,,,
,,,0,8,0,8,0,1,60ab320c7942de077d57299a,20,Mężczyzna,2022-06-04_10h12.16.727,task,2021.1.4,Win32,119.3887297,628b806c463b948bc644b84f,629b0d84c8779603b71301c9,,,,,,,,,,,,,,,,,,,,,,,,,,,,,,,,,,,,,,,,,,,,,,,,,,,,,,,,,,,,,,,,,,,,,,,,,,,,,,,,,,,,,,,,,,,,,,,,,,,,,,,,
,,"[""comma""]",0,9,0,9,0,1,60ab320c7942de077d57299a,20,Mężczyzna,2022-06-04_10h12.16.727,task,2021.1.4,Win32,119.3887297,628b806c463b948bc644b84f,629b0d84c8779603b71301c9,[0.16130000001192712],,,,,,,,,,,,,,,,,,,,,,,,,,,,,,,,,,,,,,,,,,,,,,,,,,,,,,,,,,,,,,,,,,,,,,,,,,,,,,,,,,,,,,,,,,,,,,,,,,,,,,,
,,"[""period""]",0,10,0,10,0,1,60ab320c7942de077d57299a,20,Mężczyzna,2022-06-04_10h12.16.727,task,2021.1.4,Win32,119.3887297,628b806c463b948bc644b84f,629b0d84c8779603b71301c9,[0.1939999999999955],,,,,,,,,,,,,,,,,,,,,,,,,,,,,,,,,,,,,,,,,,,,,,,,,,,,,,,,,,,,,,,,,,,,,,,,,,,,,,,,,,,,,,,,,,,,,,,,,,,,,,,
,,"[""comma""]",0,11,0,11,0,1,60ab320c7942de077d57299a,20,Mężczyzna,2022-06-04_10h12.16.727,task,2021.1.4,Win32,119.3887297,628b806c463b948bc644b84f,629b0d84c8779603b71301c9,[0.2511000000238397],,,,,,,,,,,,,,,,,,,,,,,,,,,,,,,,,,,,,,,,,,,,,,,,,,,,,,,,,,,,,,,,,,,,,,,,,,,,,,,,,,,,,,,,,,,,,,,,,,,,,,,
,,"[""period""]",0,12,0,12,0,1,60ab320c7942de077d57299a,20,Mężczyzna,2022-06-04_10h12.16.727,task,2021.1.4,Win32,119.3887297,628b806c463b948bc644b84f,629b0d84c8779603b71301c9,[0.1763999999761552],,,,,,,,,,,,,,,,,,,,,,,,,,,,,,,,,,,,,,,,,,,,,,,,,,,,,,,,,,,,,,,,,,,,,,,,,,,,,,,,,,,,,,,,,,,,,,,,,,,,,,,
,,"[""period""]",0,13,0,13,0,1,60ab320c7942de077d57299a,20,Mężczyzna,2022-06-04_10h12.16.727,task,2021.1.4,Win32,119.3887297,628b806c463b948bc644b84f,629b0d84c8779603b71301c9,[0.042199999988085324],,,,,,,,,,,,,,,,,,,,,,,,,,,,,,,,,,,,,,,,,,,,,,,,,,,,,,,,,,,,,,,,,,,,,,,,,,,,,,,,,,,,,,,,,,,,,,,,,,,,,,,
,,"[""period""]",0,14,0,14,0,1,60ab320c7942de077d57299a,20,Mężczyzna,2022-06-04_10h12.16.727,task,2021.1.4,Win32,119.3887297,628b806c463b948bc644b84f,629b0d84c8779603b71301c9,[0.09360000002384083],,,,,,,,,,,,,,,,,,,,,,,,,,,,,,,,,,,,,,,,,,,,,,,,,,,,,,,,,,,,,,,,,,,,,,,,,,,,,,,,,,,,,,,,,,,,,,,,,,,,,,,
,,"[""period""]",0,15,0,15,0,1,60ab320c7942de077d57299a,20,Mężczyzna,2022-06-04_10h12.16.727,task,2021.1.4,Win32,119.3887297,628b806c463b948bc644b84f,629b0d84c8779603b71301c9,[0.10729999995230344],,,,,,,,,,,,,,,,,,,,,,,,,,,,,,,,,,,,,,,,,,,,,,,,,,,,,,,,,,,,,,,,,,,,,,,,,,,,,,,,,,,,,,,,,,,,,,,,,,,,,,,
,,"[""comma"",""period""]",0,16,0,16,0,1,60ab320c7942de077d57299a,20,Mężczyzna,2022-06-04_10h12.16.727,task,2021.1.4,Win32,119.3887297,628b806c463b948bc644b84f,629b0d84c8779603b71301c9,"[0.03120000004768997,1.9421000000238422]",,,,,,,,,,,,,,,,,,,,,,,,,,,,,,,,,,,,,,,,,,,,,,,,,,,,,,,,,,,,,,,,,,,,,,,,,,,,,,,,,,,,,,,,,,,,,,,,,,,,,,,
,,"[""comma""]",0,17,0,17,0,1,60ab320c7942de077d57299a,20,Mężczyzna,2022-06-04_10h12.16.727,task,2021.1.4,Win32,119.3887297,628b806c463b948bc644b84f,629b0d84c8779603b71301c9,[1.8539000000357646],,,,,,,,,,,,,,,,,,,,,,,,,,,,,,,,,,,,,,,,,,,,,,,,,,,,,,,,,,,,,,,,,,,,,,,,,,,,,,,,,,,,,,,,,,,,,,,,,,,,,,,
,,,0,18,0,18,0,1,60ab320c7942de077d57299a,20,Mężczyzna,2022-06-04_10h12.16.727,task,2021.1.4,Win32,119.3887297,628b806c463b948bc644b84f,629b0d84c8779603b71301c9,,,,,,,,,,,,,,,,,,,,,,,,,,,,,,,,,,,,,,,,,,,,,,,,,,,,,,,,,,,,,,,,,,,,,,,,,,,,,,,,,,,,,,,,,,,,,,,,,,,,,,,,
,,"[""period""]",0,19,0,19,0,1,60ab320c7942de077d57299a,20,Mężczyzna,2022-06-04_10h12.16.727,task,2021.1.4,Win32,119.3887297,628b806c463b948bc644b84f,629b0d84c8779603b71301c9,[0.21320000004767792],,,,,,,,,,,,,,,,,,,,,,,,,,,,,,,,,,,,,,,,,,,,,,,,,,,,,,,,,,,,,,,,,,,,,,,,,,,,,,,,,,,,,,,,,,,,,,,,,,,,,,,
,,"[""comma"",""comma""]",0,20,0,20,0,1,60ab320c7942de077d57299a,20,Mężczyzna,2022-06-04_10h12.16.727,task,2021.1.4,Win32,119.3887297,628b806c463b948bc644b84f,629b0d84c8779603b71301c9,"[0.10910000002382958,1.8679000000357604]",,,,,,,,,,,,,,,,,,,,,,,,,,,,,,,,,,,,,,,,,,,,,,,,,,,,,,,,,,,,,,,,,,,,,,,,,,,,,,,,,,,,,,,,,,,,,,,,,,,,,,,
,,,0,21,0,21,0,1,60ab320c7942de077d57299a,20,Mężczyzna,2022-06-04_10h12.16.727,task,2021.1.4,Win32,119.3887297,628b806c463b948bc644b84f,629b0d84c8779603b71301c9,,,,,,,,,,,,,,,,,,,,,,,,,,,,,,,,,,,,,,,,,,,,,,,,,,,,,,,,,,,,,,,,,,,,,,,,,,,,,,,,,,,,,,,,,,,,,,,,,,,,,,,,
,,"[""comma""]",0,22,0,22,0,1,60ab320c7942de077d57299a,20,Mężczyzna,2022-06-04_10h12.16.727,task,2021.1.4,Win32,119.3887297,628b806c463b948bc644b84f,629b0d84c8779603b71301c9,[0.25090000003575597],,,,,,,,,,,,,,,,,,,,,,,,,,,,,,,,,,,,,,,,,,,,,,,,,,,,,,,,,,,,,,,,,,,,,,,,,,,,,,,,,,,,,,,,,,,,,,,,,,,,,,,
,,"[""comma""]",0,23,0,23,0,1,60ab320c7942de077d57299a,20,Mężczyzna,2022-06-04_10h12.16.727,task,2021.1.4,Win32,119.3887297,628b806c463b948bc644b84f,629b0d84c8779603b71301c9,[0.22840000003576222],,,,,,,,,,,,,,,,,,,,,,,,,,,,,,,,,,,,,,,,,,,,,,,,,,,,,,,,,,,,,,,,,,,,,,,,,,,,,,,,,,,,,,,,,,,,,,,,,,,,,,,
,,"[""period""]",0,24,0,24,0,1,60ab320c7942de077d57299a,20,Mężczyzna,2022-06-04_10h12.16.727,task,2021.1.4,Win32,119.3887297,628b806c463b948bc644b84f,629b0d84c8779603b71301c9,[0.22580000001192957],,,,,,,,,,,,,,,,,,,,,,,,,,,,,,,,,,,,,,,,,,,,,,,,,,,,,,,,,,,,,,,,,,,,,,,,,,,,,,,,,,,,,,,,,,,,,,,,,,,,,,,
,,"[""period""]",0,25,0,25,0,1,60ab320c7942de077d57299a,20,Mężczyzna,2022-06-04_10h12.16.727,task,2021.1.4,Win32,119.3887297,628b806c463b948bc644b84f,629b0d84c8779603b71301c9,[0.22589999997614996],,,,,,,,,,,,,,,,,,,,,,,,,,,,,,,,,,,,,,,,,,,,,,,,,,,,,,,,,,,,,,,,,,,,,,,,,,,,,,,,,,,,,,,,,,,,,,,,,,,,,,,
,,"[""comma""]",0,26,0,26,0,1,60ab320c7942de077d57299a,20,Mężczyzna,2022-06-04_10h12.16.727,task,2021.1.4,Win32,119.3887297,628b806c463b948bc644b84f,629b0d84c8779603b71301c9,[0.15519999998807066],,,,,,,,,,,,,,,,,,,,,,,,,,,,,,,,,,,,,,,,,,,,,,,,,,,,,,,,,,,,,,,,,,,,,,,,,,,,,,,,,,,,,,,,,,,,,,,,,,,,,,,
,,"[""period""]",0,27,0,27,0,1,60ab320c7942de077d57299a,20,Mężczyzna,2022-06-04_10h12.16.727,task,2021.1.4,Win32,119.3887297,628b806c463b948bc644b84f,629b0d84c8779603b71301c9,[0.21050000000001035],,,,,,,,,,,,,,,,,,,,,,,,,,,,,,,,,,,,,,,,,,,,,,,,,,,,,,,,,,,,,,,,,,,,,,,,,,,,,,,,,,,,,,,,,,,,,,,,,,,,,,,
,,"[""comma""]",0,28,0,28,0,1,60ab320c7942de077d57299a,20,Mężczyzna,2022-06-04_10h12.16.727,task,2021.1.4,Win32,119.3887297,628b806c463b948bc644b84f,629b0d84c8779603b71301c9,[0.03390000003577143],,,,,,,,,,,,,,,,,,,,,,,,,,,,,,,,,,,,,,,,,,,,,,,,,,,,,,,,,,,,,,,,,,,,,,,,,,,,,,,,,,,,,,,,,,,,,,,,,,,,,,,
,,"[""period""]",0,29,0,29,0,1,60ab320c7942de077d57299a,20,Mężczyzna,2022-06-04_10h12.16.727,task,2021.1.4,Win32,119.3887297,628b806c463b948bc644b84f,629b0d84c8779603b71301c9,[0.1273999999761628],,,,,,,,,,,,,,,,,,,,,,,,,,,,,,,,,,,,,,,,,,,,,,,,,,,,,,,,,,,,,,,,,,,,,,,,,,,,,,,,,,,,,,,,,,,,,,,,,,,,,,,
,,"[""period""]",0,30,0,30,0,1,60ab320c7942de077d57299a,20,Mężczyzna,2022-06-04_10h12.16.727,task,2021.1.4,Win32,119.3887297,628b806c463b948bc644b84f,629b0d84c8779603b71301c9,[0.10870000004769054],,,,,,,,,,,,,,,,,,,,,,,,,,,,,,,,,,,,,,,,,,,,,,,,,,,,,,,,,,,,,,,,,,,,,,,,,,,,,,,,,,,,,,,,,,,,,,,,,,,,,,,
,,"[""period""]",0,31,0,31,0,1,60ab320c7942de077d57299a,20,Mężczyzna,2022-06-04_10h12.16.727,task,2021.1.4,Win32,119.3887297,628b806c463b948bc644b84f,629b0d84c8779603b71301c9,[0.27430000001191956],,,,,,,,,,,,,,,,,,,,,,,,,,,,,,,,,,,,,,,,,,,,,,,,,,,,,,,,,,,,,,,,,,,,,,,,,,,,,,,,,,,,,,,,,,,,,,,,,,,,,,,
,,"[""comma""]",0,32,0,32,0,1,60ab320c7942de077d57299a,20,Mężczyzna,2022-06-04_10h12.16.727,task,2021.1.4,Win32,119.3887297,628b806c463b948bc644b84f,629b0d84c8779603b71301c9,[0.20749999999999602],,,,,,,,,,,,,,,,,,,,,,,,,,,,,,,,,,,,,,,,,,,,,,,,,,,,,,,,,,,,,,,,,,,,,,,,,,,,,,,,,,,,,,,,,,,,,,,,,,,,,,,
,,"[""comma""]",0,33,0,33,0,1,60ab320c7942de077d57299a,20,Mężczyzna,2022-06-04_10h12.16.727,task,2021.1.4,Win32,119.3887297,628b806c463b948bc644b84f,629b0d84c8779603b71301c9,[0.3347000000476754],,,,,,,,,,,,,,,,,,,,,,,,,,,,,,,,,,,,,,,,,,,,,,,,,,,,,,,,,,,,,,,,,,,,,,,,,,,,,,,,,,,,,,,,,,,,,,,,,,,,,,,
,,"[""period""]",0,34,0,34,0,1,60ab320c7942de077d57299a,20,Mężczyzna,2022-06-04_10h12.16.727,task,2021.1.4,Win32,119.3887297,628b806c463b948bc644b84f,629b0d84c8779603b71301c9,[0.24019999998807862],,,,,,,,,,,,,,,,,,,,,,,,,,,,,,,,,,,,,,,,,,,,,,,,,,,,,,,,,,,,,,,,,,,,,,,,,,,,,,,,,,,,,,,,,,,,,,,,,,,,,,,
,,"[""comma""]",0,35,0,35,0,1,60ab320c7942de077d57299a,20,Mężczyzna,2022-06-04_10h12.16.727,task,2021.1.4,Win32,119.3887297,628b806c463b948bc644b84f,629b0d84c8779603b71301c9,[0.2903000000119249],,,,,,,,,,,,,,,,,,,,,,,,,,,,,,,,,,,,,,,,,,,,,,,,,,,,,,,,,,,,,,,,,,,,,,,,,,,,,,,,,,,,,,,,,,,,,,,,,,,,,,,
,,"[""comma"",""comma""]",0,36,0,36,0,1,60ab320c7942de077d57299a,20,Mężczyzna,2022-06-04_10h12.16.727,task,2021.1.4,Win32,119.3887297,628b806c463b948bc644b84f,629b0d84c8779603b71301c9,"[0.2518000000119116,1.9398999999761486]",,,,,,,,,,,,,,,,,,,,,,,,,,,,,,,,,,,,,,,,,,,,,,,,,,,,,,,,,,,,,,,,,,,,,,,,,,,,,,,,,,,,,,,,,,,,,,,,,,,,,,,
,,,0,37,0,37,0,1,60ab320c7942de077d57299a,20,Mężczyzna,2022-06-04_10h12.16.727,task,2021.1.4,Win32,119.3887297,628b806c463b948bc644b84f,629b0d84c8779603b71301c9,,,,,,,,,,,,,,,,,,,,,,,,,,,,,,,,,,,,,,,,,,,,,,,,,,,,,,,,,,,,,,,,,,,,,,,,,,,,,,,,,,,,,,,,,,,,,,,,,,,,,,,,
,,"[""period""]",0,38,0,38,0,1,60ab320c7942de077d57299a,20,Mężczyzna,2022-06-04_10h12.16.727,task,2021.1.4,Win32,119.3887297,628b806c463b948bc644b84f,629b0d84c8779603b71301c9,[0.2079999999999984],,,,,,,,,,,,,,,,,,,,,,,,,,,,,,,,,,,,,,,,,,,,,,,,,,,,,,,,,,,,,,,,,,,,,,,,,,,,,,,,,,,,,,,,,,,,,,,,,,,,,,,
,,"[""period"",""comma""]",0,39,0,39,0,1,60ab320c7942de077d57299a,20,Mężczyzna,2022-06-04_10h12.16.727,task,2021.1.4,Win32,119.3887297,628b806c463b948bc644b84f,629b0d84c8779603b71301c9,"[0.09669999998807555,1.9495000000000005]",,,,,,,,,,,,,,,,,,,,,,,,,,,,,,,,,,,,,,,,,,,,,,,,,,,,,,,,,,,,,,,,,,,,,,,,,,,,,,,,,,,,,,,,,,,,,,,,,,,,,,,
,,,0,40,0,40,0,1,60ab320c7942de077d57299a,20,Mężczyzna,2022-06-04_10h12.16.727,task,2021.1.4,Win32,119.3887297,628b806c463b948bc644b84f,629b0d84c8779603b71301c9,,,,,,,,,,,,,,,,,,,,,,,,,,,,,,,,,,,,,,,,,,,,,,,,,,,,,,,,,,,,,,,,,,,,,,,,,,,,,,,,,,,,,,,,,,,,,,,,,,,,,,,,
,,"[""period""]",0,41,0,41,0,1,60ab320c7942de077d57299a,20,Mężczyzna,2022-06-04_10h12.16.727,task,2021.1.4,Win32,119.3887297,628b806c463b948bc644b84f,629b0d84c8779603b71301c9,[0.20890000003576858],,,,,,,,,,,,,,,,,,,,,,,,,,,,,,,,,,,,,,,,,,,,,,,,,,,,,,,,,,,,,,,,,,,,,,,,,,,,,,,,,,,,,,,,,,,,,,,,,,,,,,,
,,"[""period""]",0,42,0,42,0,1,60ab320c7942de077d57299a,20,Mężczyzna,2022-06-04_10h12.16.727,task,2021.1.4,Win32,119.3887297,628b806c463b948bc644b84f,629b0d84c8779603b71301c9,[0.1366999999880818],,,,,,,,,,,,,,,,,,,,,,,,,,,,,,,,,,,,,,,,,,,,,,,,,,,,,,,,,,,,,,,,,,,,,,,,,,,,,,,,,,,,,,,,,,,,,,,,,,,,,,,
,,"[""period""]",0,43,0,43,0,1,60ab320c7942de077d57299a,20,Mężczyzna,2022-06-04_10h12.16.727,task,2021.1.4,Win32,119.3887297,628b806c463b948bc644b84f,629b0d84c8779603b71301c9,[0.2675999999642329],,,,,,,,,,,,,,,,,,,,,,,,,,,,,,,,,,,,,,,,,,,,,,,,,,,,,,,,,,,,,,,,,,,,,,,,,,,,,,,,,,,,,,,,,,,,,,,,,,,,,,,
,,"[""comma""]",0,44,0,44,0,1,60ab320c7942de077d57299a,20,Mężczyzna,2022-06-04_10h12.16.727,task,2021.1.4,Win32,119.3887297,628b806c463b948bc644b84f,629b0d84c8779603b71301c9,[0.27499999999997726],,,,,,,,,,,,,,,,,,,,,,,,,,,,,,,,,,,,,,,,,,,,,,,,,,,,,,,,,,,,,,,,,,,,,,,,,,,,,,,,,,,,,,,,,,,,,,,,,,,,,,,
,,"[""period""]",0,45,0,45,0,1,60ab320c7942de077d57299a,20,Mężczyzna,2022-06-04_10h12.16.727,task,2021.1.4,Win32,119.3887297,628b806c463b948bc644b84f,629b0d84c8779603b71301c9,[0.2845999999642288],,,,,,,,,,,,,,,,,,,,,,,,,,,,,,,,,,,,,,,,,,,,,,,,,,,,,,,,,,,,,,,,,,,,,,,,,,,,,,,,,,,,,,,,,,,,,,,,,,,,,,,
,,"[""period""]",0,46,0,46,0,1,60ab320c7942de077d57299a,20,Mężczyzna,2022-06-04_10h12.16.727,task,2021.1.4,Win32,119.3887297,628b806c463b948bc644b84f,629b0d84c8779603b71301c9,[0.18279999995232288],,,,,,,,,,,,,,,,,,,,,,,,,,,,,,,,,,,,,,,,,,,,,,,,,,,,,,,,,,,,,,,,,,,,,,,,,,,,,,,,,,,,,,,,,,,,,,,,,,,,,,,
,,"[""comma""]",0,47,0,47,0,1,60ab320c7942de077d57299a,20,Mężczyzna,2022-06-04_10h12.16.727,task,2021.1.4,Win32,119.3887297,628b806c463b948bc644b84f,629b0d84c8779603b71301c9,[0.16169999998808748],,,,,,,,,,,,,,,,,,,,,,,,,,,,,,,,,,,,,,,,,,,,,,,,,,,,,,,,,,,,,,,,,,,,,,,,,,,,,,,,,,,,,,,,,,,,,,,,,,,,,,,
,,"[""comma"",""period""]",0,48,0,48,0,1,60ab320c7942de077d57299a,20,Mężczyzna,2022-06-04_10h12.16.727,task,2021.1.4,Win32,119.3887297,628b806c463b948bc644b84f,629b0d84c8779603b71301c9,"[0.21459999996423562,1.9244999999999948]",,,,,,,,,,,,,,,,,,,,,,,,,,,,,,,,,,,,,,,,,,,,,,,,,,,,,,,,,,,,,,,,,,,,,,,,,,,,,,,,,,,,,,,,,,,,,,,,,,,,,,,
,,,0,49,0,49,0,1,60ab320c7942de077d57299a,20,Mężczyzna,2022-06-04_10h12.16.727,task,2021.1.4,Win32,119.3887297,628b806c463b948bc644b84f,629b0d84c8779603b71301c9,,,,,,,,,,,,,,,,,,,,,,,,,,,,,,,,,,,,,,,,,,,,,,,,,,,,,,,,,,,,,,,,,,,,,,,,,,,,,,,,,,,,,,,,,,,,,,,,,,,,,,,,
,,"[""comma"",""period""]",0,50,0,50,0,1,60ab320c7942de077d57299a,20,Mężczyzna,2022-06-04_10h12.16.727,task,2021.1.4,Win32,119.3887297,628b806c463b948bc644b84f,629b0d84c8779603b71301c9,"[0.0008000000119068318,1.9361999999880766]",,,,,,,,,,,,,,,,,,,,,,,,,,,,,,,,,,,,,,,,,,,,,,,,,,,,,,,,,,,,,,,,,,,,,,,,,,,,,,,,,,,,,,,,,,,,,,,,,,,,,,,
,,"[""period""]",0,51,0,51,0,1,60ab320c7942de077d57299a,20,Mężczyzna,2022-06-04_10h12.16.727,task,2021.1.4,Win32,119.3887297,628b806c463b948bc644b84f,629b0d84c8779603b71301c9,[1.9072999999523006],,,,,,,,,,,,,,,,,,,,,,,,,,,,,,,,,,,,,,,,,,,,,,,,,,,,,,,,,,,,,,,,,,,,,,,,,,,,,,,,,,,,,,,,,,,,,,,,,,,,,,,
,,,0,52,0,52,0,1,60ab320c7942de077d57299a,20,Mężczyzna,2022-06-04_10h12.16.727,task,2021.1.4,Win32,119.3887297,628b806c463b948bc644b84f,629b0d84c8779603b71301c9,,,,,,,,,,,,,,,,,,,,,,,,,,,,,,,,,,,,,,,,,,,,,,,,,,,,,,,,,,,,,,,,,,,,,,,,,,,,,,,,,,,,,,,,,,,,,,,,,,,,,,,,
,,"[""period""]",0,53,0,53,0,1,60ab320c7942de077d57299a,20,Mężczyzna,2022-06-04_10h12.16.727,task,2021.1.4,Win32,119.3887297,628b806c463b948bc644b84f,629b0d84c8779603b71301c9,[0.06180000001191388],,,,,,,,,,,,,,,,,,,,,,,,,,,,,,,,,,,,,,,,,,,,,,,,,,,,,,,,,,,,,,,,,,,,,,,,,,,,,,,,,,,,,,,,,,,,,,,,,,,,,,,
,,"[""comma""]",0,54,0,54,0,1,60ab320c7942de077d57299a,20,Mężczyzna,2022-06-04_10h12.16.727,task,2021.1.4,Win32,119.3887297,628b806c463b948bc644b84f,629b0d84c8779603b71301c9,[0.26060000002385664],,,,,,,,,,,,,,,,,,,,,,,,,,,,,,,,,,,,,,,,,,,,,,,,,,,,,,,,,,,,,,,,,,,,,,,,,,,,,,,,,,,,,,,,,,,,,,,,,,,,,,,
,,"[""comma""]",0,55,0,55,0,1,60ab320c7942de077d57299a,20,Mężczyzna,2022-06-04_10h12.16.727,task,2021.1.4,Win32,119.3887297,628b806c463b948bc644b84f,629b0d84c8779603b71301c9,[0.18710000002383254],,,,,,,,,,,,,,,,,,,,,,,,,,,,,,,,,,,,,,,,,,,,,,,,,,,,,,,,,,,,,,,,,,,,,,,,,,,,,,,,,,,,,,,,,,,,,,,,,,,,,,,
,,"[""period""]",0,56,0,56,0,1,60ab320c7942de077d57299a,20,Mężczyzna,2022-06-04_10h12.16.727,task,2021.1.4,Win32,119.3887297,628b806c463b948bc644b84f,629b0d84c8779603b71301c9,[0.25790000003576097],,,,,,,,,,,,,,,,,,,,,,,,,,,,,,,,,,,,,,,,,,,,,,,,,,,,,,,,,,,,,,,,,,,,,,,,,,,,,,,,,,,,,,,,,,,,,,,,,,,,,,,
,,"[""comma""]",0,57,0,57,0,1,60ab320c7942de077d57299a,20,Mężczyzna,2022-06-04_10h12.16.727,task,2021.1.4,Win32,119.3887297,628b806c463b948bc644b84f,629b0d84c8779603b71301c9,[0.23309999996422448],,,,,,,,,,,,,,,,,,,,,,,,,,,,,,,,,,,,,,,,,,,,,,,,,,,,,,,,,,,,,,,,,,,,,,,,,,,,,,,,,,,,,,,,,,,,,,,,,,,,,,,
,,"[""period""]",0,58,0,58,0,1,60ab320c7942de077d57299a,20,Mężczyzna,2022-06-04_10h12.16.727,task,2021.1.4,Win32,119.3887297,628b806c463b948bc644b84f,629b0d84c8779603b71301c9,[0.29060000002382935],,,,,,,,,,,,,,,,,,,,,,,,,,,,,,,,,,,,,,,,,,,,,,,,,,,,,,,,,,,,,,,,,,,,,,,,,,,,,,,,,,,,,,,,,,,,,,,,,,,,,,,
,,"[""comma""]",0,59,0,59,0,1,60ab320c7942de077d57299a,20,Mężczyzna,2022-06-04_10h12.16.727,task,2021.1.4,Win32,119.3887297,628b806c463b948bc644b84f,629b0d84c8779603b71301c9,[0.21920000004769236],,,,,,,,,,,,,,,,,,,,,,,,,,,,,,,,,,,,,,,,,,,,,,,,,,,,,,,,,,,,,,,,,,,,,,,,,,,,,,,,,,,,,,,,,,,,,,,,,,,,,,,
,,"[""comma""]",0,60,0,60,0,1,60ab320c7942de077d57299a,20,Mężczyzna,2022-06-04_10h12.16.727,task,2021.1.4,Win32,119.3887297,628b806c463b948bc644b84f,629b0d84c8779603b71301c9,[0.12109999996422971],,,,,,,,,,,,,,,,,,,,,,,,,,,,,,,,,,,,,,,,,,,,,,,,,,,,,,,,,,,,,,,,,,,,,,,,,,,,,,,,,,,,,,,,,,,,,,,,,,,,,,,
,,"[""period""]",0,61,0,61,0,1,60ab320c7942de077d57299a,20,Mężczyzna,2022-06-04_10h12.16.727,task,2021.1.4,Win32,119.3887297,628b806c463b948bc644b84f,629b0d84c8779603b71301c9,[0.05830000001191138],,,,,,,,,,,,,,,,,,,,,,,,,,,,,,,,,,,,,,,,,,,,,,,,,,,,,,,,,,,,,,,,,,,,,,,,,,,,,,,,,,,,,,,,,,,,,,,,,,,,,,,
,,"[""comma""]",0,62,0,62,0,1,60ab320c7942de077d57299a,20,Mężczyzna,2022-06-04_10h12.16.727,task,2021.1.4,Win32,119.3887297,628b806c463b948bc644b84f,629b0d84c8779603b71301c9,[0.22749999999999204],,,,,,,,,,,,,,,,,,,,,,,,,,,,,,,,,,,,,,,,,,,,,,,,,,,,,,,,,,,,,,,,,,,,,,,,,,,,,,,,,,,,,,,,,,,,,,,,,,,,,,,
,,"[""comma""]",0,63,0,63,0,1,60ab320c7942de077d57299a,20,Mężczyzna,2022-06-04_10h12.16.727,task,2021.1.4,Win32,119.3887297,628b806c463b948bc644b84f,629b0d84c8779603b71301c9,[0.22330000001190342],,,,,,,,,,,,,,,,,,,,,,,,,,,,,,,,,,,,,,,,,,,,,,,,,,,,,,,,,,,,,,,,,,,,,,,,,,,,,,,,,,,,,,,,,,,,,,,,,,,,,,,
,,"[""comma""]",0,64,0,64,0,1,60ab320c7942de077d57299a,20,Mężczyzna,2022-06-04_10h12.16.727,task,2021.1.4,Win32,119.3887297,628b806c463b948bc644b84f,629b0d84c8779603b71301c9,[0.06889999997616769],,,,,,,,,,,,,,,,,,,,,,,,,,,,,,,,,,,,,,,,,,,,,,,,,,,,,,,,,,,,,,,,,,,,,,,,,,,,,,,,,,,,,,,,,,,,,,,,,,,,,,,
,,"[""period""]",0,65,0,65,0,1,60ab320c7942de077d57299a,20,Mężczyzna,2022-06-04_10h12.16.727,task,2021.1.4,Win32,119.3887297,628b806c463b948bc644b84f,629b0d84c8779603b71301c9,[0.17470000004766462],,,,,,,,,,,,,,,,,,,,,,,,,,,,,,,,,,,,,,,,,,,,,,,,,,,,,,,,,,,,,,,,,,,,,,,,,,,,,,,,,,,,,,,,,,,,,,,,,,,,,,,
,,"[""comma""]",0,66,0,66,0,1,60ab320c7942de077d57299a,20,Mężczyzna,2022-06-04_10h12.16.727,task,2021.1.4,Win32,119.3887297,628b806c463b948bc644b84f,629b0d84c8779603b71301c9,[0.03519999998806611],,,,,,,,,,,,,,,,,,,,,,,,,,,,,,,,,,,,,,,,,,,,,,,,,,,,,,,,,,,,,,,,,,,,,,,,,,,,,,,,,,,,,,,,,,,,,,,,,,,,,,,
,,"[""period""]",0,67,0,67,0,1,60ab320c7942de077d57299a,20,Mężczyzna,2022-06-04_10h12.16.727,task,2021.1.4,Win32,119.3887297,628b806c463b948bc644b84f,629b0d84c8779603b71301c9,[0.24250000000000682],,,,,,,,,,,,,,,,,,,,,,,,,,,,,,,,,,,,,,,,,,,,,,,,,,,,,,,,,,,,,,,,,,,,,,,,,,,,,,,,,,,,,,,,,,,,,,,,,,,,,,,
,,"[""period""]",0,68,0,68,0,1,60ab320c7942de077d57299a,20,Mężczyzna,2022-06-04_10h12.16.727,task,2021.1.4,Win32,119.3887297,628b806c463b948bc644b84f,629b0d84c8779603b71301c9,[0.17670000004767417],,,,,,,,,,,,,,,,,,,,,,,,,,,,,,,,,,,,,,,,,,,,,,,,,,,,,,,,,,,,,,,,,,,,,,,,,,,,,,,,,,,,,,,,,,,,,,,,,,,,,,,
,,"[""comma""]",0,69,0,69,0,1,60ab320c7942de077d57299a,20,Mężczyzna,2022-06-04_10h12.16.727,task,2021.1.4,Win32,119.3887297,628b806c463b948bc644b84f,629b0d84c8779603b71301c9,[0.2423000000119373],,,,,,,,,,,,,,,,,,,,,,,,,,,,,,,,,,,,,,,,,,,,,,,,,,,,,,,,,,,,,,,,,,,,,,,,,,,,,,,,,,,,,,,,,,,,,,,,,,,,,,,
,,"[""period"",""comma""]",0,70,0,70,0,1,60ab320c7942de077d57299a,20,Mężczyzna,2022-06-04_10h12.16.727,task,2021.1.4,Win32,119.3887297,628b806c463b948bc644b84f,629b0d84c8779603b71301c9,"[0.09910000002383867,1.682699999988074]",,,,,,,,,,,,,,,,,,,,,,,,,,,,,,,,,,,,,,,,,,,,,,,,,,,,,,,,,,,,,,,,,,,,,,,,,,,,,,,,,,,,,,,,,,,,,,,,,,,,,,,
,,"[""comma""]",0,71,0,71,0,1,60ab320c7942de077d57299a,20,Mężczyzna,2022-06-04_10h12.16.727,task,2021.1.4,Win32,119.3887297,628b806c463b948bc644b84f,629b0d84c8779603b71301c9,[0.3196000000238257],,,,,,,,,,,,,,,,,,,,,,,,,,,,,,,,,,,,,,,,,,,,,,,,,,,,,,,,,,,,,,,,,,,,,,,,,,,,,,,,,,,,,,,,,,,,,,,,,,,,,,,
,,"[""comma""]",0,72,0,72,0,1,60ab320c7942de077d57299a,20,Mężczyzna,2022-06-04_10h12.16.727,task,2021.1.4,Win32,119.3887297,628b806c463b948bc644b84f,629b0d84c8779603b71301c9,[0.3324999999999818],,,,,,,,,,,,,,,,,,,,,,,,,,,,,,,,,,,,,,,,,,,,,,,,,,,,,,,,,,,,,,,,,,,,,,,,,,,,,,,,,,,,,,,,,,,,,,,,,,,,,,,
,,"[""comma""]",0,73,0,73,0,1,60ab320c7942de077d57299a,20,Mężczyzna,2022-06-04_10h12.16.727,task,2021.1.4,Win32,119.3887297,628b806c463b948bc644b84f,629b0d84c8779603b71301c9,[0.36419999998807384],,,,,,,,,,,,,,,,,,,,,,,,,,,,,,,,,,,,,,,,,,,,,,,,,,,,,,,,,,,,,,,,,,,,,,,,,,,,,,,,,,,,,,,,,,,,,,,,,,,,,,,
,,"[""period""]",0,74,0,74,0,1,60ab320c7942de077d57299a,20,Mężczyzna,2022-06-04_10h12.16.727,task,2021.1.4,Win32,119.3887297,628b806c463b948bc644b84f,629b0d84c8779603b71301c9,[0.27379999995233106],,,,,,,,,,,,,,,,,,,,,,,,,,,,,,,,,,,,,,,,,,,,,,,,,,,,,,,,,,,,,,,,,,,,,,,,,,,,,,,,,,,,,,,,,,,,,,,,,,,,,,,
,,"[""comma""]",0,75,0,75,0,1,60ab320c7942de077d57299a,20,Mężczyzna,2022-06-04_10h12.16.727,task,2021.1.4,Win32,119.3887297,628b806c463b948bc644b84f,629b0d84c8779603b71301c9,[0.2897999999522938],,,,,,,,,,,,,,,,,,,,,,,,,,,,,,,,,,,,,,,,,,,,,,,,,,,,,,,,,,,,,,,,,,,,,,,,,,,,,,,,,,,,,,,,,,,,,,,,,,,,,,,
,,"[""period""]",0,76,0,76,0,1,60ab320c7942de077d57299a,20,Mężczyzna,2022-06-04_10h12.16.727,task,2021.1.4,Win32,119.3887297,628b806c463b948bc644b84f,629b0d84c8779603b71301c9,[0.35599999999999454],,,,,,,,,,,,,,,,,,,,,,,,,,,,,,,,,,,,,,,,,,,,,,,,,,,,,,,,,,,,,,,,,,,,,,,,,,,,,,,,,,,,,,,,,,,,,,,,,,,,,,,
,,"[""period""]",0,77,0,77,0,1,60ab320c7942de077d57299a,20,Mężczyzna,2022-06-04_10h12.16.727,task,2021.1.4,Win32,119.3887297,628b806c463b948bc644b84f,629b0d84c8779603b71301c9,[0.30690000003576756],,,,,,,,,,,,,,,,,,,,,,,,,,,,,,,,,,,,,,,,,,,,,,,,,,,,,,,,,,,,,,,,,,,,,,,,,,,,,,,,,,,,,,,,,,,,,,,,,,,,,,,
,,"[""period""]",0,78,0,78,0,1,60ab320c7942de077d57299a,20,Mężczyzna,2022-06-04_10h12.16.727,task,2021.1.4,Win32,119.3887297,628b806c463b948bc644b84f,629b0d84c8779603b71301c9,[0.3739999999999952],,,,,,,,,,,,,,,,,,,,,,,,,,,,,,,,,,,,,,,,,,,,,,,,,,,,,,,,,,,,,,,,,,,,,,,,,,,,,,,,,,,,,,,,,,,,,,,,,,,,,,,
,,"[""comma""]",0,79,0,79,0,1,60ab320c7942de077d57299a,20,Mężczyzna,2022-06-04_10h12.16.727,task,2021.1.4,Win32,119.3887297,628b806c463b948bc644b84f,629b0d84c8779603b71301c9,[0.3423000000119316],,,,,,,,,,,,,,,,,,,,,,,,,,,,,,,,,,,,,,,,,,,,,,,,,,,,,,,,,,,,,,,,,,,,,,,,,,,,,,,,,,,,,,,,,,,,,,,,,,,,,,,
,,"[""period""]",0,80,0,80,0,1,60ab320c7942de077d57299a,20,Mężczyzna,2022-06-04_10h12.16.727,task,2021.1.4,Win32,119.3887297,628b806c463b948bc644b84f,629b0d84c8779603b71301c9,[0.32289999997615837],,,,,,,,,,,,,,,,,,,,,,,,,,,,,,,,,,,,,,,,,,,,,,,,,,,,,,,,,,,,,,,,,,,,,,,,,,,,,,,,,,,,,,,,,,,,,,,,,,,,,,,
,,"[""comma""]",0,81,0,81,0,1,60ab320c7942de077d57299a,20,Mężczyzna,2022-06-04_10h12.16.727,task,2021.1.4,Win32,119.3887297,628b806c463b948bc644b84f,629b0d84c8779603b71301c9,[0.28940000003575506],,,,,,,,,,,,,,,,,,,,,,,,,,,,,,,,,,,,,,,,,,,,,,,,,,,,,,,,,,,,,,,,,,,,,,,,,,,,,,,,,,,,,,,,,,,,,,,,,,,,,,,
,,"[""comma""]",0,82,0,82,0,1,60ab320c7942de077d57299a,20,Mężczyzna,2022-06-04_10h12.16.727,task,2021.1.4,Win32,119.3887297,628b806c463b948bc644b84f,629b0d84c8779603b71301c9,[0.2936999999880925],,,,,,,,,,,,,,,,,,,,,,,,,,,,,,,,,,,,,,,,,,,,,,,,,,,,,,,,,,,,,,,,,,,,,,,,,,,,,,,,,,,,,,,,,,,,,,,,,,,,,,,
,,"[""comma""]",0,83,0,83,0,1,60ab320c7942de077d57299a,20,Mężczyzna,2022-06-04_10h12.16.727,task,2021.1.4,Win32,119.3887297,628b806c463b948bc644b84f,629b0d84c8779603b71301c9,[0.29239999997614063],,,,,,,,,,,,,,,,,,,,,,,,,,,,,,,,,,,,,,,,,,,,,,,,,,,,,,,,,,,,,,,,,,,,,,,,,,,,,,,,,,,,,,,,,,,,,,,,,,,,,,,
,,"[""period""]",0,84,0,84,0,1,60ab320c7942de077d57299a,20,Mężczyzna,2022-06-04_10h12.16.727,task,2021.1.4,Win32,119.3887297,628b806c463b948bc644b84f,629b0d84c8779603b71301c9,[0.32610000002384254],,,,,,,,,,,,,,,,,,,,,,,,,,,,,,,,,,,,,,,,,,,,,,,,,,,,,,,,,,,,,,,,,,,,,,,,,,,,,,,,,,,,,,,,,,,,,,,,,,,,,,,
,,"[""comma""]",0,85,0,85,0,1,60ab320c7942de077d57299a,20,Mężczyzna,2022-06-04_10h12.16.727,task,2021.1.4,Win32,119.3887297,628b806c463b948bc644b84f,629b0d84c8779603b71301c9,[0.2207000000476853],,,,,,,,,,,,,,,,,,,,,,,,,,,,,,,,,,,,,,,,,,,,,,,,,,,,,,,,,,,,,,,,,,,,,,,,,,,,,,,,,,,,,,,,,,,,,,,,,,,,,,,
,,"[""comma""]",0,86,0,86,0,1,60ab320c7942de077d57299a,20,Mężczyzna,2022-06-04_10h12.16.727,task,2021.1.4,Win32,119.3887297,628b806c463b948bc644b84f,629b0d84c8779603b71301c9,[0.2308999999761454],,,,,,,,,,,,,,,,,,,,,,,,,,,,,,,,,,,,,,,,,,,,,,,,,,,,,,,,,,,,,,,,,,,,,,,,,,,,,,,,,,,,,,,,,,,,,,,,,,,,,,,
,,"[""period""]",0,87,0,87,0,1,60ab320c7942de077d57299a,20,Mężczyzna,2022-06-04_10h12.16.727,task,2021.1.4,Win32,119.3887297,628b806c463b948bc644b84f,629b0d84c8779603b71301c9,[0.27080000001191706],,,,,,,,,,,,,,,,,,,,,,,,,,,,,,,,,,,,,,,,,,,,,,,,,,,,,,,,,,,,,,,,,,,,,,,,,,,,,,,,,,,,,,,,,,,,,,,,,,,,,,,
,,"[""period""]",0,88,0,88,0,1,60ab320c7942de077d57299a,20,Mężczyzna,2022-06-04_10h12.16.727,task,2021.1.4,Win32,119.3887297,628b806c463b948bc644b84f,629b0d84c8779603b71301c9,[0.4118000000119082],,,,,,,,,,,,,,,,,,,,,,,,,,,,,,,,,,,,,,,,,,,,,,,,,,,,,,,,,,,,,,,,,,,,,,,,,,,,,,,,,,,,,,,,,,,,,,,,,,,,,,,
,,"[""period""]",0,89,0,89,0,1,60ab320c7942de077d57299a,20,Mężczyzna,2022-06-04_10h12.16.727,task,2021.1.4,Win32,119.3887297,628b806c463b948bc644b84f,629b0d84c8779603b71301c9,[0.26130000001191434],,,,,,,,,,,,,,,,,,,,,,,,,,,,,,,,,,,,,,,,,,,,,,,,,,,,,,,,,,,,,,,,,,,,,,,,,,,,,,,,,,,,,,,,,,,,,,,,,,,,,,,
,,"[""period""]",0,90,0,90,0,1,60ab320c7942de077d57299a,20,Mężczyzna,2022-06-04_10h12.16.727,task,2021.1.4,Win32,119.3887297,628b806c463b948bc644b84f,629b0d84c8779603b71301c9,[0.23910000002385345],,,,,,,,,,,,,,,,,,,,,,,,,,,,,,,,,,,,,,,,,,,,,,,,,,,,,,,,,,,,,,,,,,,,,,,,,,,,,,,,,,,,,,,,,,,,,,,,,,,,,,,
,,"[""comma""]",0,91,0,91,0,1,60ab320c7942de077d57299a,20,Mężczyzna,2022-06-04_10h12.16.727,task,2021.1.4,Win32,119.3887297,628b806c463b948bc644b84f,629b0d84c8779603b71301c9,[0.3026999999880786],,,,,,,,,,,,,,,,,,,,,,,,,,,,,,,,,,,,,,,,,,,,,,,,,,,,,,,,,,,,,,,,,,,,,,,,,,,,,,,,,,,,,,,,,,,,,,,,,,,,,,,
,,"[""comma""]",0,92,0,92,0,1,60ab320c7942de077d57299a,20,Mężczyzna,2022-06-04_10h12.16.727,task,2021.1.4,Win32,119.3887297,628b806c463b948bc644b84f,629b0d84c8779603b71301c9,[0.291499999999985],,,,,,,,,,,,,,,,,,,,,,,,,,,,,,,,,,,,,,,,,,,,,,,,,,,,,,,,,,,,,,,,,,,,,,,,,,,,,,,,,,,,,,,,,,,,,,,,,,,,,,,
,,"[""period""]",0,93,0,93,0,1,60ab320c7942de077d57299a,20,Mężczyzna,2022-06-04_10h12.16.727,task,2021.1.4,Win32,119.3887297,628b806c463b948bc644b84f,629b0d84c8779603b71301c9,[0.31009999996422266],,,,,,,,,,,,,,,,,,,,,,,,,,,,,,,,,,,,,,,,,,,,,,,,,,,,,,,,,,,,,,,,,,,,,,,,,,,,,,,,,,,,,,,,,,,,,,,,,,,,,,,
,,"[""period""]",0,94,0,94,0,1,60ab320c7942de077d57299a,20,Mężczyzna,2022-06-04_10h12.16.727,task,2021.1.4,Win32,119.3887297,628b806c463b948bc644b84f,629b0d84c8779603b71301c9,[0.44489999997617247],,,,,,,,,,,,,,,,,,,,,,,,,,,,,,,,,,,,,,,,,,,,,,,,,,,,,,,,,,,,,,,,,,,,,,,,,,,,,,,,,,,,,,,,,,,,,,,,,,,,,,,
,,"[""comma""]",0,95,0,95,0,1,60ab320c7942de077d57299a,20,Mężczyzna,2022-06-04_10h12.16.727,task,2021.1.4,Win32,119.3887297,628b806c463b948bc644b84f,629b0d84c8779603b71301c9,[0.4205000000000041],,,,,,,,,,,,,,,,,,,,,,,,,,,,,,,,,,,,,,,,,,,,,,,,,,,,,,,,,,,,,,,,,,,,,,,,,,,,,,,,,,,,,,,,,,,,,,,,,,,,,,,
,,"[""comma""]",0,96,0,96,0,1,60ab320c7942de077d57299a,20,Mężczyzna,2022-06-04_10h12.16.727,task,2021.1.4,Win32,119.3887297,628b806c463b948bc644b84f,629b0d84c8779603b71301c9,[0.3015000000000043],,,,,,,,,,,,,,,,,,,,,,,,,,,,,,,,,,,,,,,,,,,,,,,,,,,,,,,,,,,,,,,,,,,,,,,,,,,,,,,,,,,,,,,,,,,,,,,,,,,,,,,
,,"[""comma""]",0,97,0,97,0,1,60ab320c7942de077d57299a,20,Mężczyzna,2022-06-04_10h12.16.727,task,2021.1.4,Win32,119.3887297,628b806c463b948bc644b84f,629b0d84c8779603b71301c9,[0.2570999999642254],,,,,,,,,,,,,,,,,,,,,,,,,,,,,,,,,,,,,,,,,,,,,,,,,,,,,,,,,,,,,,,,,,,,,,,,,,,,,,,,,,,,,,,,,,,,,,,,,,,,,,,
,,"[""period""]",0,98,0,98,0,1,60ab320c7942de077d57299a,20,Mężczyzna,2022-06-04_10h12.16.727,task,2021.1.4,Win32,119.3887297,628b806c463b948bc644b84f,629b0d84c8779603b71301c9,[0.31989999997617247],,,,,,,,,,,,,,,,,,,,,,,,,,,,,,,,,,,,,,,,,,,,,,,,,,,,,,,,,,,,,,,,,,,,,,,,,,,,,,,,,,,,,,,,,,,,,,,,,,,,,,,
,,"[""period""]",0,99,0,99,0,1,60ab320c7942de077d57299a,20,Mężczyzna,2022-06-04_10h12.16.727,task,2021.1.4,Win32,119.3887297,628b806c463b948bc644b84f,629b0d84c8779603b71301c9,[0.3096999999880836],,,,,,,,,,,,,,,,,,,,,,,,,,,,,,,,,,,,,,,,,,,,,,,,,,,,,,,,,,,,,,,,,,,,,,,,,,,,,,,,,,,,,,,,,,,,,,,,,,,,,,,
,,"[""comma""]",0,100,0,100,0,1,60ab320c7942de077d57299a,20,Mężczyzna,2022-06-04_10h12.16.727,task,2021.1.4,Win32,119.3887297,628b806c463b948bc644b84f,629b0d84c8779603b71301c9,[0.24260000002385596],,,,,,,,,,,,,,,,,,,,,,,,,,,,,,,,,,,,,,,,,,,,,,,,,,,,,,,,,,,,,,,,,,,,,,,,,,,,,,,,,,,,,,,,,,,,,,,,,,,,,,,
,,"[""period"",""comma""]",0,101,0,101,0,1,60ab320c7942de077d57299a,20,Mężczyzna,2022-06-04_10h12.16.727,task,2021.1.4,Win32,119.3887297,628b806c463b948bc644b84f,629b0d84c8779603b71301c9,"[0.2260999999642479,1.9502999999523354]",,,,,,,,,,,,,,,,,,,,,,,,,,,,,,,,,,,,,,,,,,,,,,,,,,,,,,,,,,,,,,,,,,,,,,,,,,,,,,,,,,,,,,,,,,,,,,,,,,,,,,,
,,,0,102,0,102,0,1,60ab320c7942de077d57299a,20,Mężczyzna,2022-06-04_10h12.16.727,task,2021.1.4,Win32,119.3887297,628b806c463b948bc644b84f,629b0d84c8779603b71301c9,,,,,,,,,,,,,,,,,,,,,,,,,,,,,,,,,,,,,,,,,,,,,,,,,,,,,,,,,,,,,,,,,,,,,,,,,,,,,,,,,,,,,,,,,,,,,,,,,,,,,,,,
,,"[""comma""]",0,103,0,103,0,1,60ab320c7942de077d57299a,20,Mężczyzna,2022-06-04_10h12.16.727,task,2021.1.4,Win32,119.3887297,628b806c463b948bc644b84f,629b0d84c8779603b71301c9,[0.24730000001190433],,,,,,,,,,,,,,,,,,,,,,,,,,,,,,,,,,,,,,,,,,,,,,,,,,,,,,,,,,,,,,,,,,,,,,,,,,,,,,,,,,,,,,,,,,,,,,,,,,,,,,,
,,"[""comma""]",0,104,0,104,0,1,60ab320c7942de077d57299a,20,Mężczyzna,2022-06-04_10h12.16.727,task,2021.1.4,Win32,119.3887297,628b806c463b948bc644b84f,629b0d84c8779603b71301c9,[0.2360999999642388],,,,,,,,,,,,,,,,,,,,,,,,,,,,,,,,,,,,,,,,,,,,,,,,,,,,,,,,,,,,,,,,,,,,,,,,,,,,,,,,,,,,,,,,,,,,,,,,,,,,,,,
,,"[""period"",""period""]",0,105,0,105,0,1,60ab320c7942de077d57299a,20,Mężczyzna,2022-06-04_10h12.16.727,task,2021.1.4,Win32,119.3887297,628b806c463b948bc644b84f,629b0d84c8779603b71301c9,"[0.2167000000476662,1.9109000000357526]",,,,,,,,,,,,,,,,,,,,,,,,,,,,,,,,,,,,,,,,,,,,,,,,,,,,,,,,,,,,,,,,,,,,,,,,,,,,,,,,,,,,,,,,,,,,,,,,,,,,,,,
,,,0,106,0,106,0,1,60ab320c7942de077d57299a,20,Mężczyzna,2022-06-04_10h12.16.727,task,2021.1.4,Win32,119.3887297,628b806c463b948bc644b84f,629b0d84c8779603b71301c9,,,,,,,,,,,,,,,,,,,,,,,,,,,,,,,,,,,,,,,,,,,,,,,,,,,,,,,,,,,,,,,,,,,,,,,,,,,,,,,,,,,,,,,,,,,,,,,,,,,,,,,,
,,"[""period""]",0,107,0,107,0,1,60ab320c7942de077d57299a,20,Mężczyzna,2022-06-04_10h12.16.727,task,2021.1.4,Win32,119.3887297,628b806c463b948bc644b84f,629b0d84c8779603b71301c9,[0.2394000000357437],,,,,,,,,,,,,,,,,,,,,,,,,,,,,,,,,,,,,,,,,,,,,,,,,,,,,,,,,,,,,,,,,,,,,,,,,,,,,,,,,,,,,,,,,,,,,,,,,,,,,,,
,,"[""period""]",0,108,0,108,0,1,60ab320c7942de077d57299a,20,Mężczyzna,2022-06-04_10h12.16.727,task,2021.1.4,Win32,119.3887297,628b806c463b948bc644b84f,629b0d84c8779603b71301c9,[0.25830000001195685],,,,,,,,,,,,,,,,,,,,,,,,,,,,,,,,,,,,,,,,,,,,,,,,,,,,,,,,,,,,,,,,,,,,,,,,,,,,,,,,,,,,,,,,,,,,,,,,,,,,,,,
,,"[""comma""]",0,109,0,109,0,1,60ab320c7942de077d57299a,20,Mężczyzna,2022-06-04_10h12.16.727,task,2021.1.4,Win32,119.3887297,628b806c463b948bc644b84f,629b0d84c8779603b71301c9,[0.27480000001190774],,,,,,,,,,,,,,,,,,,,,,,,,,,,,,,,,,,,,,,,,,,,,,,,,,,,,,,,,,,,,,,,,,,,,,,,,,,,,,,,,,,,,,,,,,,,,,,,,,,,,,,
,,"[""comma""]",0,110,0,110,0,1,60ab320c7942de077d57299a,20,Mężczyzna,2022-06-04_10h12.16.727,task,2021.1.4,Win32,119.3887297,628b806c463b948bc644b84f,629b0d84c8779603b71301c9,[0.34959999996425495],,,,,,,,,,,,,,,,,,,,,,,,,,,,,,,,,,,,,,,,,,,,,,,,,,,,,,,,,,,,,,,,,,,,,,,,,,,,,,,,,,,,,,,,,,,,,,,,,,,,,,,
,,"[""period""]",0,111,0,111,0,1,60ab320c7942de077d57299a,20,Mężczyzna,2022-06-04_10h12.16.727,task,2021.1.4,Win32,119.3887297,628b806c463b948bc644b84f,629b0d84c8779603b71301c9,[0.2986999999880595],,,,,,,,,,,,,,,,,,,,,,,,,,,,,,,,,,,,,,,,,,,,,,,,,,,,,,,,,,,,,,,,,,,,,,,,,,,,,,,,,,,,,,,,,,,,,,,,,,,,,,,
,,"[""comma""]",0,112,0,112,0,1,60ab320c7942de077d57299a,20,Mężczyzna,2022-06-04_10h12.16.727,task,2021.1.4,Win32,119.3887297,628b806c463b948bc644b84f,629b0d84c8779603b71301c9,[0.2686000000238664],,,,,,,,,,,,,,,,,,,,,,,,,,,,,,,,,,,,,,,,,,,,,,,,,,,,,,,,,,,,,,,,,,,,,,,,,,,,,,,,,,,,,,,,,,,,,,,,,,,,,,,
,,"[""period""]",0,113,0,113,0,1,60ab320c7942de077d57299a,20,Mężczyzna,2022-06-04_10h12.16.727,task,2021.1.4,Win32,119.3887297,628b806c463b948bc644b84f,629b0d84c8779603b71301c9,[0.25849999999996953],,,,,,,,,,,,,,,,,,,,,,,,,,,,,,,,,,,,,,,,,,,,,,,,,,,,,,,,,,,,,,,,,,,,,,,,,,,,,,,,,,,,,,,,,,,,,,,,,,,,,,,
,,"[""comma""]",0,114,0,114,0,1,60ab320c7942de077d57299a,20,Mężczyzna,2022-06-04_10h12.16.727,task,2021.1.4,Win32,119.3887297,628b806c463b948bc644b84f,629b0d84c8779603b71301c9,[0.4123000000118964],,,,,,,,,,,,,,,,,,,,,,,,,,,,,,,,,,,,,,,,,,,,,,,,,,,,,,,,,,,,,,,,,,,,,,,,,,,,,,,,,,,,,,,,,,,,,,,,,,,,,,,
,,"[""comma""]",0,115,0,115,0,1,60ab320c7942de077d57299a,20,Mężczyzna,2022-06-04_10h12.16.727,task,2021.1.4,Win32,119.3887297,628b806c463b948bc644b84f,629b0d84c8779603b71301c9,[0.3796999999880768],,,,,,,,,,,,,,,,,,,,,,,,,,,,,,,,,,,,,,,,,,,,,,,,,,,,,,,,,,,,,,,,,,,,,,,,,,,,,,,,,,,,,,,,,,,,,,,,,,,,,,,
,,"[""period""]",0,116,0,116,0,1,60ab320c7942de077d57299a,20,Mężczyzna,2022-06-04_10h12.16.727,task,2021.1.4,Win32,119.3887297,628b806c463b948bc644b84f,629b0d84c8779603b71301c9,[0.28449999999998],,,,,,,,,,,,,,,,,,,,,,,,,,,,,,,,,,,,,,,,,,,,,,,,,,,,,,,,,,,,,,,,,,,,,,,,,,,,,,,,,,,,,,,,,,,,,,,,,,,,,,,
,,"[""period""]",0,117,0,117,0,1,60ab320c7942de077d57299a,20,Mężczyzna,2022-06-04_10h12.16.727,task,2021.1.4,Win32,119.3887297,628b806c463b948bc644b84f,629b0d84c8779603b71301c9,[0.28750000000002274],,,,,,,,,,,,,,,,,,,,,,,,,,,,,,,,,,,,,,,,,,,,,,,,,,,,,,,,,,,,,,,,,,,,,,,,,,,,,,,,,,,,,,,,,,,,,,,,,,,,,,,
,,"[""comma""]",0,118,0,118,0,1,60ab320c7942de077d57299a,20,Mężczyzna,2022-06-04_10h12.16.727,task,2021.1.4,Win32,119.3887297,628b806c463b948bc644b84f,629b0d84c8779603b71301c9,[0.3031999999880668],,,,,,,,,,,,,,,,,,,,,,,,,,,,,,,,,,,,,,,,,,,,,,,,,,,,,,,,,,,,,,,,,,,,,,,,,,,,,,,,,,,,,,,,,,,,,,,,,,,,,,,
,,"[""period""]",0,119,0,119,0,1,60ab320c7942de077d57299a,20,Mężczyzna,2022-06-04_10h12.16.727,task,2021.1.4,Win32,119.3887297,628b806c463b948bc644b84f,629b0d84c8779603b71301c9,[0.3254000000357564],,,,,,,,,,,,,,,,,,,,,,,,,,,,,,,,,,,,,,,,,,,,,,,,,,,,,,,,,,,,,,,,,,,,,,,,,,,,,,,,,,,,,,,,,,,,,,,,,,,,,,,
,,,,,,,,,60ab320c7942de077d57299a,20,Mężczyzna,2022-06-04_10h12.16.727,task,2021.1.4,Win32,119.3887297,628b806c463b948bc644b84f,629b0d84c8779603b71301c9,,space,14.5243,space,7.9793,0,0,0,0,1,X V Q F H G B L J M P D K C T S W R N Z,,,,,,,,,,,,,,,,,,,,,,,,,,,,,,,,,,,,,,,,,,,,,,,,,,,,,,,,,,,,,,,,,,,,,,,,,,,,,,,,,,,,,,,,,,,,,
,,,,,,,,,60ab320c7942de077d57299a,20,Mężczyzna,2022-06-04_10h12.16.727,task,2021.1.4,Win32,119.3887297,628b806c463b948bc644b84f,629b0d84c8779603b71301c9,,,,,,1,0,1,0,1,X V Q F H G B L J M P D K C T S W R N Z,,,,,,,,,,,,,,,,,,,,,,,,,,,,,,,,,,,,,,,,,,,,,,,,,,,,,,,,,,,,,,,,,,,,,,,,,,,,,,,,,,,,,,,,,,,,,
,,,,,,,,,60ab320c7942de077d57299a,20,Mężczyzna,2022-06-04_10h12.16.727,task,2021.1.4,Win32,119.3887297,628b806c463b948bc644b84f,629b0d84c8779603b71301c9,,,,,,,,,,,,zl,"[""z"",""l""]","[1.698399999976175,2.460699999988094,3.501000000000033]",1,ZL,0,0,0,0,1,,,,,,,,,,,,,,,,,,,,,,,,,,,,,,,,,,,,,,,,,,,,,,,,,,,,,,,,,,,,,,,,,,,,,,,,,,,,,,,,,,,
,,,,,,,,,60ab320c7942de077d57299a,20,Mężczyzna,2022-06-04_10h12.16.727,task,2021.1.4,Win32,119.3887297,628b806c463b948bc644b84f,629b0d84c8779603b71301c9,,,,,,0,0,0,0,1,X V Q F H G B L J M P D K C T S W R N Z,,,,,,,,,,,,,,,,,,,,,,,,,,,,,,,,,,,,,,,,,,,,,,,,,,,,,,,,,,,,,,,,,,,,,,,,,,,,,,,,,,,,,,,,,,,,,
,,,,,,,,,60ab320c7942de077d57299a,20,Mężczyzna,2022-06-04_10h12.16.727,task,2021.1.4,Win32,119.3887297,628b806c463b948bc644b84f,629b0d84c8779603b71301c9,,,,,,1,0,1,0,1,X V Q F H G B L J M P D K C T S W R N Z,,,,,,,,,,,,,,,,,,,,,,,,,,,,,,,,,,,,,,,,,,,,,,,,,,,,,,,,,,,,,,,,,,,,,,,,,,,,,,,,,,,,,,,,,,,,,
,,,,,,,,,60ab320c7942de077d57299a,20,Mężczyzna,2022-06-04_10h12.16.727,task,2021.1.4,Win32,119.3887297,628b806c463b948bc644b84f,629b0d84c8779603b71301c9,,,,,,,,,,,,gr,"[""g"",""r""]","[1.2145999999642072,1.430799999952285,2.058599999964258]",1,GR,1,0,1,0,1,,,,,,,,,,,,,,,,,,,,,,,,,,,,,,,,,,,,,,,,,,,,,,,,,,,,,,,,,,,,,,,,,,,,,,,,,,,,,,,,,,,
,,,,,,,,,60ab320c7942de077d57299a,20,Mężczyzna,2022-06-04_10h12.16.727,task,2021.1.4,Win32,119.3887297,628b806c463b948bc644b84f,629b0d84c8779603b71301c9,,,,,,0,0,0,0,1,X V Q F H G B L J M P D K C T S W R N Z,,,,,,,,,,,,,,,,,,,,,,,,,,,,,,,,,,,,,,,,,,,,,,,,,,,,,,,,,,,,,,,,,,,,,,,,,,,,,,,,,,,,,,,,,,,,,
,,,,,,,,,60ab320c7942de077d57299a,20,Mężczyzna,2022-06-04_10h12.16.727,task,2021.1.4,Win32,119.3887297,628b806c463b948bc644b84f,629b0d84c8779603b71301c9,,,,,,1,0,1,0,1,X V Q F H G B L J M P D K C T S W R N Z,,,,,,,,,,,,,,,,,,,,,,,,,,,,,,,,,,,,,,,,,,,,,,,,,,,,,,,,,,,,,,,,,,,,,,,,,,,,,,,,,,,,,,,,,,,,,
,,,,,,,,,60ab320c7942de077d57299a,20,Mężczyzna,2022-06-04_10h12.16.727,task,2021.1.4,Win32,119.3887297,628b806c463b948bc644b84f,629b0d84c8779603b71301c9,,,,,,2,0,2,0,1,X V Q F H G B L J M P D K C T S W R N Z,,,,,,,,,,,,,,,,,,,,,,,,,,,,,,,,,,,,,,,,,,,,,,,,,,,,,,,,,,,,,,,,,,,,,,,,,,,,,,,,,,,,,,,,,,,,,
,,,,,,,,,60ab320c7942de077d57299a,20,Mężczyzna,2022-06-04_10h12.16.727,task,2021.1.4,Win32,119.3887297,628b806c463b948bc644b84f,629b0d84c8779603b71301c9,,,,,,,,,,,,css,"[""c"",""s"",""s""]","[0.44810000002388506,0.7019999999999982,0.9064999999999941,1.5968000000119105]",1,CSS,2,0,2,0,1,,,,,,,,,,,,,,,,,,,,,,,,,,,,,,,,,,,,,,,,,,,,,,,,,,,,,,,,,,,,,,,,,,,,,,,,,,,,,,,,,,,
,,,,,,,,,60ab320c7942de077d57299a,20,Mężczyzna,2022-06-04_10h12.16.727,task,2021.1.4,Win32,119.3887297,628b806c463b948bc644b84f,629b0d84c8779603b71301c9,,,,,,0,0,0,0,1,X V Q F H G B L J M P D K C T S W R N Z,,,,,,,,,,,,,,,,,,,,,,,,,,,,,,,,,,,,,,,,,,,,,,,,,,,,,,,,,,,,,,,,,,,,,,,,,,,,,,,,,,,,,,,,,,,,,
,,,,,,,,,60ab320c7942de077d57299a,20,Mężczyzna,2022-06-04_10h12.16.727,task,2021.1.4,Win32,119.3887297,628b806c463b948bc644b84f,629b0d84c8779603b71301c9,,,,,,1,0,1,0,1,X V Q F H G B L J M P D K C T S W R N Z,,,,,,,,,,,,,,,,,,,,,,,,,,,,,,,,,,,,,,,,,,,,,,,,,,,,,,,,,,,,,,,,,,,,,,,,,,,,,,,,,,,,,,,,,,,,,
,,,,,,,,,60ab320c7942de077d57299a,20,Mężczyzna,2022-06-04_10h12.16.727,task,2021.1.4,Win32,119.3887297,628b806c463b948bc644b84f,629b0d84c8779603b71301c9,,,,,,2,0,2,0,1,X V Q F H G B L J M P D K C T S W R N Z,,,,,,,,,,,,,,,,,,,,,,,,,,,,,,,,,,,,,,,,,,,,,,,,,,,,,,,,,,,,,,,,,,,,,,,,,,,,,,,,,,,,,,,,,,,,,
,,,,,,,,,60ab320c7942de077d57299a,20,Mężczyzna,2022-06-04_10h12.16.727,task,2021.1.4,Win32,119.3887297,628b806c463b948bc644b84f,629b0d84c8779603b71301c9,,,,,,,,,,,,jct,"[""j"",""c"",""t""]","[1.1046000000238223,1.5289999999999964,1.8538000000119155,2.398200000047666]",1,JCT,3,0,3,0,1,,,,,,,,,,,,,,,,,,,,,,,,,,,,,,,,,,,,,,,,,,,,,,,,,,,,,,,,,,,,,,,,,,,,,,,,,,,,,,,,,,,
,,,,,,,,,60ab320c7942de077d57299a,20,Mężczyzna,2022-06-04_10h12.16.727,task,2021.1.4,Win32,119.3887297,628b806c463b948bc644b84f,629b0d84c8779603b71301c9,,,,,,0,0,0,0,1,X V Q F H G B L J M P D K C T S W R N Z,,,,,,,,,,,,,,,,,,,,,,,,,,,,,,,,,,,,,,,,,,,,,,,,,,,,,,,,,,,,,,,,,,,,,,,,,,,,,,,,,,,,,,,,,,,,,
,,,,,,,,,60ab320c7942de077d57299a,20,Mężczyzna,2022-06-04_10h12.16.727,task,2021.1.4,Win32,119.3887297,628b806c463b948bc644b84f,629b0d84c8779603b71301c9,,,,,,1,0,1,0,1,X V Q F H G B L J M P D K C T S W R N Z,,,,,,,,,,,,,,,,,,,,,,,,,,,,,,,,,,,,,,,,,,,,,,,,,,,,,,,,,,,,,,,,,,,,,,,,,,,,,,,,,,,,,,,,,,,,,
,,,,,,,,,60ab320c7942de077d57299a,20,Mężczyzna,2022-06-04_10h12.16.727,task,2021.1.4,Win32,119.3887297,628b806c463b948bc644b84f,629b0d84c8779603b71301c9,,,,,,2,0,2,0,1,X V Q F H G B L J M P D K C T S W R N Z,,,,,,,,,,,,,,,,,,,,,,,,,,,,,,,,,,,,,,,,,,,,,,,,,,,,,,,,,,,,,,,,,,,,,,,,,,,,,,,,,,,,,,,,,,,,,
,,,,,,,,,60ab320c7942de077d57299a,20,Mężczyzna,2022-06-04_10h12.16.727,task,2021.1.4,Win32,119.3887297,628b806c463b948bc644b84f,629b0d84c8779603b71301c9,,,,,,3,0,3,0,1,X V Q F H G B L J M P D K C T S W R N Z,,,,,,,,,,,,,,,,,,,,,,,,,,,,,,,,,,,,,,,,,,,,,,,,,,,,,,,,,,,,,,,,,,,,,,,,,,,,,,,,,,,,,,,,,,,,,
,,,,,,,,,60ab320c7942de077d57299a,20,Mężczyzna,2022-06-04_10h12.16.727,task,2021.1.4,Win32,119.3887297,628b806c463b948bc644b84f,629b0d84c8779603b71301c9,,,,,,,,,,,,mwrw,"[""m"",""w"",""r"",""w""]","[1.0422000000476714,4.867500000000007,5.236300000011909,5.386500000000012,6.101100000023848]",1,MWRW,4,0,4,0,1,,,,,,,,,,,,,,,,,,,,,,,,,,,,,,,,,,,,,,,,,,,,,,,,,,,,,,,,,,,,,,,,,,,,,,,,,,,,,,,,,,,
,,,,,,,,,60ab320c7942de077d57299a,20,Mężczyzna,2022-06-04_10h12.16.727,task,2021.1.4,Win32,119.3887297,628b806c463b948bc644b84f,629b0d84c8779603b71301c9,,,,,,0,0,0,0,1,X V Q F H G B L J M P D K C T S W R N Z,,,,,,,,,,,,,,,,,,,,,,,,,,,,,,,,,,,,,,,,,,,,,,,,,,,,,,,,,,,,,,,,,,,,,,,,,,,,,,,,,,,,,,,,,,,,,
,,,,,,,,,60ab320c7942de077d57299a,20,Mężczyzna,2022-06-04_10h12.16.727,task,2021.1.4,Win32,119.3887297,628b806c463b948bc644b84f,629b0d84c8779603b71301c9,,,,,,1,0,1,0,1,X V Q F H G B L J M P D K C T S W R N Z,,,,,,,,,,,,,,,,,,,,,,,,,,,,,,,,,,,,,,,,,,,,,,,,,,,,,,,,,,,,,,,,,,,,,,,,,,,,,,,,,,,,,,,,,,,,,
,,,,,,,,,60ab320c7942de077d57299a,20,Mężczyzna,2022-06-04_10h12.16.727,task,2021.1.4,Win32,119.3887297,628b806c463b948bc644b84f,629b0d84c8779603b71301c9,,,,,,2,0,2,0,1,X V Q F H G B L J M P D K C T S W R N Z,,,,,,,,,,,,,,,,,,,,,,,,,,,,,,,,,,,,,,,,,,,,,,,,,,,,,,,,,,,,,,,,,,,,,,,,,,,,,,,,,,,,,,,,,,,,,
,,,,,,,,,60ab320c7942de077d57299a,20,Mężczyzna,2022-06-04_10h12.16.727,task,2021.1.4,Win32,119.3887297,628b806c463b948bc644b84f,629b0d84c8779603b71301c9,,,,,,3,0,3,0,1,X V Q F H G B L J M P D K C T S W R N Z,,,,,,,,,,,,,,,,,,,,,,,,,,,,,,,,,,,,,,,,,,,,,,,,,,,,,,,,,,,,,,,,,,,,,,,,,,,,,,,,,,,,,,,,,,,,,
,,,,,,,,,60ab320c7942de077d57299a,20,Mężczyzna,2022-06-04_10h12.16.727,task,2021.1.4,Win32,119.3887297,628b806c463b948bc644b84f,629b0d84c8779603b71301c9,,,,,,,,,,,,bqfr,"[""b"",""q"",""f"",""r""]","[1.1099000000357364,1.7622000000476987,2.1524000000357546,2.351900000035755,3.06690000003573]",1,BQFR,5,0,5,0,1,,,,,,,,,,,,,,,,,,,,,,,,,,,,,,,,,,,,,,,,,,,,,,,,,,,,,,,,,,,,,,,,,,,,,,,,,,,,,,,,,,,
,,,,,,,,,60ab320c7942de077d57299a,20,Mężczyzna,2022-06-04_10h12.16.727,task,2021.1.4,Win32,119.3887297,628b806c463b948bc644b84f,629b0d84c8779603b71301c9,,,,,,0,0,0,0,1,X V Q F H G B L J M P D K C T S W R N Z,,,,,,,,,,,,,,,,,,,,,,,,,,,,,,,,,,,,,,,,,,,,,,,,,,,,,,,,,,,,,,,,,,,,,,,,,,,,,,,,,,,,,,,,,,,,,
,,,,,,,,,60ab320c7942de077d57299a,20,Mężczyzna,2022-06-04_10h12.16.727,task,2021.1.4,Win32,119.3887297,628b806c463b948bc644b84f,629b0d84c8779603b71301c9,,,,,,1,0,1,0,1,X V Q F H G B L J M P D K C T S W R N Z,,,,,,,,,,,,,,,,,,,,,,,,,,,,,,,,,,,,,,,,,,,,,,,,,,,,,,,,,,,,,,,,,,,,,,,,,,,,,,,,,,,,,,,,,,,,,
,,,,,,,,,60ab320c7942de077d57299a,20,Mężczyzna,2022-06-04_10h12.16.727,task,2021.1.4,Win32,119.3887297,628b806c463b948bc644b84f,629b0d84c8779603b71301c9,,,,,,2,0,2,0,1,X V Q F H G B L J M P D K C T S W R N Z,,,,,,,,,,,,,,,,,,,,,,,,,,,,,,,,,,,,,,,,,,,,,,,,,,,,,,,,,,,,,,,,,,,,,,,,,,,,,,,,,,,,,,,,,,,,,
,,,,,,,,,60ab320c7942de077d57299a,20,Mężczyzna,2022-06-04_10h12.16.727,task,2021.1.4,Win32,119.3887297,628b806c463b948bc644b84f,629b0d84c8779603b71301c9,,,,,,3,0,3,0,1,X V Q F H G B L J M P D K C T S W R N Z,,,,,,,,,,,,,,,,,,,,,,,,,,,,,,,,,,,,,,,,,,,,,,,,,,,,,,,,,,,,,,,,,,,,,,,,,,,,,,,,,,,,,,,,,,,,,
,,,,,,,,,60ab320c7942de077d57299a,20,Mężczyzna,2022-06-04_10h12.16.727,task,2021.1.4,Win32,119.3887297,628b806c463b948bc644b84f,629b0d84c8779603b71301c9,,,,,,4,0,4,0,1,X V Q F H G B L J M P D K C T S W R N Z,,,,,,,,,,,,,,,,,,,,,,,,,,,,,,,,,,,,,,,,,,,,,,,,,,,,,,,,,,,,,,,,,,,,,,,,,,,,,,,,,,,,,,,,,,,,,
,,,,,,,,,60ab320c7942de077d57299a,20,Mężczyzna,2022-06-04_10h12.16.727,task,2021.1.4,Win32,119.3887297,628b806c463b948bc644b84f,629b0d84c8779603b71301c9,,,,,,,,,,,,lbptm,"[""l"",""b"",""p"",""t"",""m""]","[1.4281999999880668,1.768800000011879,2.1473999999761304,2.658699999988073,2.9613999999761518,3.5953999999761095]",0,LDPTM,6,0,6,0,1,,,,,,,,,,,,,,,,,,,,,,,,,,,,,,,,,,,,,,,,,,,,,,,,,,,,,,,,,,,,,,,,,,,,,,,,,,,,,,,,,,,
,,,,,,,,,60ab320c7942de077d57299a,20,Mężczyzna,2022-06-04_10h12.16.727,task,2021.1.4,Win32,119.3887297,628b806c463b948bc644b84f,629b0d84c8779603b71301c9,,,,,,0,0,0,0,1,X V Q F H G B L J M P D K C T S W R N Z,,,,,,,,,,,,,,,,,,,,,,,,,,,,,,,,,,,,,,,,,,,,,,,,,,,,,,,,,,,,,,,,,,,,,,,,,,,,,,,,,,,,,,,,,,,,,
,,,,,,,,,60ab320c7942de077d57299a,20,Mężczyzna,2022-06-04_10h12.16.727,task,2021.1.4,Win32,119.3887297,628b806c463b948bc644b84f,629b0d84c8779603b71301c9,,,,,,1,0,1,0,1,X V Q F H G B L J M P D K C T S W R N Z,,,,,,,,,,,,,,,,,,,,,,,,,,,,,,,,,,,,,,,,,,,,,,,,,,,,,,,,,,,,,,,,,,,,,,,,,,,,,,,,,,,,,,,,,,,,,
,,,,,,,,,60ab320c7942de077d57299a,20,Mężczyzna,2022-06-04_10h12.16.727,task,2021.1.4,Win32,119.3887297,628b806c463b948bc644b84f,629b0d84c8779603b71301c9,,,,,,2,0,2,0,1,X V Q F H G B L J M P D K C T S W R N Z,,,,,,,,,,,,,,,,,,,,,,,,,,,,,,,,,,,,,,,,,,,,,,,,,,,,,,,,,,,,,,,,,,,,,,,,,,,,,,,,,,,,,,,,,,,,,
,,,,,,,,,60ab320c7942de077d57299a,20,Mężczyzna,2022-06-04_10h12.16.727,task,2021.1.4,Win32,119.3887297,628b806c463b948bc644b84f,629b0d84c8779603b71301c9,,,,,,3,0,3,0,1,X V Q F H G B L J M P D K C T S W R N Z,,,,,,,,,,,,,,,,,,,,,,,,,,,,,,,,,,,,,,,,,,,,,,,,,,,,,,,,,,,,,,,,,,,,,,,,,,,,,,,,,,,,,,,,,,,,,
,,,,,,,,,60ab320c7942de077d57299a,20,Mężczyzna,2022-06-04_10h12.16.727,task,2021.1.4,Win32,119.3887297,628b806c463b948bc644b84f,629b0d84c8779603b71301c9,,,,,,4,0,4,0,1,X V Q F H G B L J M P D K C T S W R N Z,,,,,,,,,,,,,,,,,,,,,,,,,,,,,,,,,,,,,,,,,,,,,,,,,,,,,,,,,,,,,,,,,,,,,,,,,,,,,,,,,,,,,,,,,,,,,
,,,,,,,,,60ab320c7942de077d57299a,20,Mężczyzna,2022-06-04_10h12.16.727,task,2021.1.4,Win32,119.3887297,628b806c463b948bc644b84f,629b0d84c8779603b71301c9,,,,,,,,,,,,cpkxl,"[""c"",""p"",""k"",""x"",""l""]","[1.9276999999880786,2.4590999999642236,2.77049999999997,3.3868999999761513,3.7391999999880454,4.352899999976103]",1,CPKXL,7,0,7,0,1,,,,,,,,,,,,,,,,,,,,,,,,,,,,,,,,,,,,,,,,,,,,,,,,,,,,,,,,,,,,,,,,,,,,,,,,,,,,,,,,,,,
,,,,,,,,,60ab320c7942de077d57299a,20,Mężczyzna,2022-06-04_10h12.16.727,task,2021.1.4,Win32,119.3887297,628b806c463b948bc644b84f,629b0d84c8779603b71301c9,,,,,,0,0,0,0,1,X V Q F H G B L J M P D K C T S W R N Z,,,,,,,,,,,,,,,,,,,,,,,,,,,,,,,,,,,,,,,,,,,,,,,,,,,,,,,,,,,,,,,,,,,,,,,,,,,,,,,,,,,,,,,,,,,,,
,,,,,,,,,60ab320c7942de077d57299a,20,Mężczyzna,2022-06-04_10h12.16.727,task,2021.1.4,Win32,119.3887297,628b806c463b948bc644b84f,629b0d84c8779603b71301c9,,,,,,1,0,1,0,1,X V Q F H G B L J M P D K C T S W R N Z,,,,,,,,,,,,,,,,,,,,,,,,,,,,,,,,,,,,,,,,,,,,,,,,,,,,,,,,,,,,,,,,,,,,,,,,,,,,,,,,,,,,,,,,,,,,,
,,,,,,,,,60ab320c7942de077d57299a,20,Mężczyzna,2022-06-04_10h12.16.727,task,2021.1.4,Win32,119.3887297,628b806c463b948bc644b84f,629b0d84c8779603b71301c9,,,,,,2,0,2,0,1,X V Q F H G B L J M P D K C T S W R N Z,,,,,,,,,,,,,,,,,,,,,,,,,,,,,,,,,,,,,,,,,,,,,,,,,,,,,,,,,,,,,,,,,,,,,,,,,,,,,,,,,,,,,,,,,,,,,
,,,,,,,,,60ab320c7942de077d57299a,20,Mężczyzna,2022-06-04_10h12.16.727,task,2021.1.4,Win32,119.3887297,628b806c463b948bc644b84f,629b0d84c8779603b71301c9,,,,,,3,0,3,0,1,X V Q F H G B L J M P D K C T S W R N Z,,,,,,,,,,,,,,,,,,,,,,,,,,,,,,,,,,,,,,,,,,,,,,,,,,,,,,,,,,,,,,,,,,,,,,,,,,,,,,,,,,,,,,,,,,,,,
,,,,,,,,,60ab320c7942de077d57299a,20,Mężczyzna,2022-06-04_10h12.16.727,task,2021.1.4,Win32,119.3887297,628b806c463b948bc644b84f,629b0d84c8779603b71301c9,,,,,,4,0,4,0,1,X V Q F H G B L J M P D K C T S W R N Z,,,,,,,,,,,,,,,,,,,,,,,,,,,,,,,,,,,,,,,,,,,,,,,,,,,,,,,,,,,,,,,,,,,,,,,,,,,,,,,,,,,,,,,,,,,,,
,,,,,,,,,60ab320c7942de077d57299a,20,Mężczyzna,2022-06-04_10h12.16.727,task,2021.1.4,Win32,119.3887297,628b806c463b948bc644b84f,629b0d84c8779603b71301c9,,,,,,,,,,,,zgthp,"[""z"",""g"",""t"",""h"",""p""]","[1.2281999999880782,1.532000000000039,2.0764000000357896,2.2914000000357646,2.6564000000357737,3.2411000000238914]",1,ZGTHP,8,0,8,0,1,,,,,,,,,,,,,,,,,,,,,,,,,,,,,,,,,,,,,,,,,,,,,,,,,,,,,,,,,,,,,,,,,,,,,,,,,,,,,,,,,,,
,,,,,,,,,60ab320c7942de077d57299a,20,Mężczyzna,2022-06-04_10h12.16.727,task,2021.1.4,Win32,119.3887297,628b806c463b948bc644b84f,629b0d84c8779603b71301c9,,,,,,0,0,0,0,1,X V Q F H G B L J M P D K C T S W R N Z,,,,,,,,,,,,,,,,,,,,,,,,,,,,,,,,,,,,,,,,,,,,,,,,,,,,,,,,,,,,,,,,,,,,,,,,,,,,,,,,,,,,,,,,,,,,,
,,,,,,,,,60ab320c7942de077d57299a,20,Mężczyzna,2022-06-04_10h12.16.727,task,2021.1.4,Win32,119.3887297,628b806c463b948bc644b84f,629b0d84c8779603b71301c9,,,,,,1,0,1,0,1,X V Q F H G B L J M P D K C T S W R N Z,,,,,,,,,,,,,,,,,,,,,,,,,,,,,,,,,,,,,,,,,,,,,,,,,,,,,,,,,,,,,,,,,,,,,,,,,,,,,,,,,,,,,,,,,,,,,
,,,,,,,,,60ab320c7942de077d57299a,20,Mężczyzna,2022-06-04_10h12.16.727,task,2021.1.4,Win32,119.3887297,628b806c463b948bc644b84f,629b0d84c8779603b71301c9,,,,,,2,0,2,0,1,X V Q F H G B L J M P D K C T S W R N Z,,,,,,,,,,,,,,,,,,,,,,,,,,,,,,,,,,,,,,,,,,,,,,,,,,,,,,,,,,,,,,,,,,,,,,,,,,,,,,,,,,,,,,,,,,,,,
,,,,,,,,,60ab320c7942de077d57299a,20,Mężczyzna,2022-06-04_10h12.16.727,task,2021.1.4,Win32,119.3887297,628b806c463b948bc644b84f,629b0d84c8779603b71301c9,,,,,,3,0,3,0,1,X V Q F H G B L J M P D K C T S W R N Z,,,,,,,,,,,,,,,,,,,,,,,,,,,,,,,,,,,,,,,,,,,,,,,,,,,,,,,,,,,,,,,,,,,,,,,,,,,,,,,,,,,,,,,,,,,,,
,,,,,,,,,60ab320c7942de077d57299a,20,Mężczyzna,2022-06-04_10h12.16.727,task,2021.1.4,Win32,119.3887297,628b806c463b948bc644b84f,629b0d84c8779603b71301c9,,,,,,4,0,4,0,1,X V Q F H G B L J M P D K C T S W R N Z,,,,,,,,,,,,,,,,,,,,,,,,,,,,,,,,,,,,,,,,,,,,,,,,,,,,,,,,,,,,,,,,,,,,,,,,,,,,,,,,,,,,,,,,,,,,,
,,,,,,,,,60ab320c7942de077d57299a,20,Mężczyzna,2022-06-04_10h12.16.727,task,2021.1.4,Win32,119.3887297,628b806c463b948bc644b84f,629b0d84c8779603b71301c9,,,,,,5,0,5,0,1,X V Q F H G B L J M P D K C T S W R N Z,,,,,,,,,,,,,,,,,,,,,,,,,,,,,,,,,,,,,,,,,,,,,,,,,,,,,,,,,,,,,,,,,,,,,,,,,,,,,,,,,,,,,,,,,,,,,
,,,,,,,,,60ab320c7942de077d57299a,20,Mężczyzna,2022-06-04_10h12.16.727,task,2021.1.4,Win32,119.3887297,628b806c463b948bc644b84f,629b0d84c8779603b71301c9,,,,,,,,,,,,cqnhpf,"[""c"",""q"",""n"",""h"",""p"",""f""]","[4.426699999988102,5.1046999999880995,8.981100000023844,9.57650000000001,13.281300000011925,13.770699999988096,14.301100000023837]",0,PQNHNF,9,0,9,0,1,,,,,,,,,,,,,,,,,,,,,,,,,,,,,,,,,,,,,,,,,,,,,,,,,,,,,,,,,,,,,,,,,,,,,,,,,,,,,,,,,,,
,,,,,,,,,60ab320c7942de077d57299a,20,Mężczyzna,2022-06-04_10h12.16.727,task,2021.1.4,Win32,119.3887297,628b806c463b948bc644b84f,629b0d84c8779603b71301c9,,,,,,0,0,0,0,1,X V Q F H G B L J M P D K C T S W R N Z,,,,,,,,,,,,,,,,,,,,,,,,,,,,,,,,,,,,,,,,,,,,,,,,,,,,,,,,,,,,,,,,,,,,,,,,,,,,,,,,,,,,,,,,,,,,,
,,,,,,,,,60ab320c7942de077d57299a,20,Mężczyzna,2022-06-04_10h12.16.727,task,2021.1.4,Win32,119.3887297,628b806c463b948bc644b84f,629b0d84c8779603b71301c9,,,,,,1,0,1,0,1,X V Q F H G B L J M P D K C T S W R N Z,,,,,,,,,,,,,,,,,,,,,,,,,,,,,,,,,,,,,,,,,,,,,,,,,,,,,,,,,,,,,,,,,,,,,,,,,,,,,,,,,,,,,,,,,,,,,
,,,,,,,,,60ab320c7942de077d57299a,20,Mężczyzna,2022-06-04_10h12.16.727,task,2021.1.4,Win32,119.3887297,628b806c463b948bc644b84f,629b0d84c8779603b71301c9,,,,,,2,0,2,0,1,X V Q F H G B L J M P D K C T S W R N Z,,,,,,,,,,,,,,,,,,,,,,,,,,,,,,,,,,,,,,,,,,,,,,,,,,,,,,,,,,,,,,,,,,,,,,,,,,,,,,,,,,,,,,,,,,,,,
,,,,,,,,,60ab320c7942de077d57299a,20,Mężczyzna,2022-06-04_10h12.16.727,task,2021.1.4,Win32,119.3887297,628b806c463b948bc644b84f,629b0d84c8779603b71301c9,,,,,,3,0,3,0,1,X V Q F H G B L J M P D K C T S W R N Z,,,,,,,,,,,,,,,,,,,,,,,,,,,,,,,,,,,,,,,,,,,,,,,,,,,,,,,,,,,,,,,,,,,,,,,,,,,,,,,,,,,,,,,,,,,,,
,,,,,,,,,60ab320c7942de077d57299a,20,Mężczyzna,2022-06-04_10h12.16.727,task,2021.1.4,Win32,119.3887297,628b806c463b948bc644b84f,629b0d84c8779603b71301c9,,,,,,4,0,4,0,1,X V Q F H G B L J M P D K C T S W R N Z,,,,,,,,,,,,,,,,,,,,,,,,,,,,,,,,,,,,,,,,,,,,,,,,,,,,,,,,,,,,,,,,,,,,,,,,,,,,,,,,,,,,,,,,,,,,,
,,,,,,,,,60ab320c7942de077d57299a,20,Mężczyzna,2022-06-04_10h12.16.727,task,2021.1.4,Win32,119.3887297,628b806c463b948bc644b84f,629b0d84c8779603b71301c9,,,,,,5,0,5,0,1,X V Q F H G B L J M P D K C T S W R N Z,,,,,,,,,,,,,,,,,,,,,,,,,,,,,,,,,,,,,,,,,,,,,,,,,,,,,,,,,,,,,,,,,,,,,,,,,,,,,,,,,,,,,,,,,,,,,
,,,,,,,,,60ab320c7942de077d57299a,20,Mężczyzna,2022-06-04_10h12.16.727,task,2021.1.4,Win32,119.3887297,628b806c463b948bc644b84f,629b0d84c8779603b71301c9,,,,,,,,,,,,kkkwzk,"[""k"",""k"",""k"",""w"",""z"",""k""]","[1.3859999999999673,1.5949999999999704,1.7671999999880654,2.545500000000004,2.8786999999880436,3.2483999999761295,3.8625000000000114]",1,KKKWZK,10,0,10,0,1,,,,,,,,,,,,,,,,,,,,,,,,,,,,,,,,,,,,,,,,,,,,,,,,,,,,,,,,,,,,,,,,,,,,,,,,,,,,,,,,,,,
,,,,,,,,,60ab320c7942de077d57299a,20,Mężczyzna,2022-06-04_10h12.16.727,task,2021.1.4,Win32,119.3887297,628b806c463b948bc644b84f,629b0d84c8779603b71301c9,,,,,,0,0,0,0,1,X V Q F H G B L J M P D K C T S W R N Z,,,,,,,,,,,,,,,,,,,,,,,,,,,,,,,,,,,,,,,,,,,,,,,,,,,,,,,,,,,,,,,,,,,,,,,,,,,,,,,,,,,,,,,,,,,,,
,,,,,,,,,60ab320c7942de077d57299a,20,Mężczyzna,2022-06-04_10h12.16.727,task,2021.1.4,Win32,119.3887297,628b806c463b948bc644b84f,629b0d84c8779603b71301c9,,,,,,1,0,1,0,1,X V Q F H G B L J M P D K C T S W R N Z,,,,,,,,,,,,,,,,,,,,,,,,,,,,,,,,,,,,,,,,,,,,,,,,,,,,,,,,,,,,,,,,,,,,,,,,,,,,,,,,,,,,,,,,,,,,,
,,,,,,,,,60ab320c7942de077d57299a,20,Mężczyzna,2022-06-04_10h12.16.727,task,2021.1.4,Win32,119.3887297,628b806c463b948bc644b84f,629b0d84c8779603b71301c9,,,,,,2,0,2,0,1,X V Q F H G B L J M P D K C T S W R N Z,,,,,,,,,,,,,,,,,,,,,,,,,,,,,,,,,,,,,,,,,,,,,,,,,,,,,,,,,,,,,,,,,,,,,,,,,,,,,,,,,,,,,,,,,,,,,
,,,,,,,,,60ab320c7942de077d57299a,20,Mężczyzna,2022-06-04_10h12.16.727,task,2021.1.4,Win32,119.3887297,628b806c463b948bc644b84f,629b0d84c8779603b71301c9,,,,,,3,0,3,0,1,X V Q F H G B L J M P D K C T S W R N Z,,,,,,,,,,,,,,,,,,,,,,,,,,,,,,,,,,,,,,,,,,,,,,,,,,,,,,,,,,,,,,,,,,,,,,,,,,,,,,,,,,,,,,,,,,,,,
,,,,,,,,,60ab320c7942de077d57299a,20,Mężczyzna,2022-06-04_10h12.16.727,task,2021.1.4,Win32,119.3887297,628b806c463b948bc644b84f,629b0d84c8779603b71301c9,,,,,,4,0,4,0,1,X V Q F H G B L J M P D K C T S W R N Z,,,,,,,,,,,,,,,,,,,,,,,,,,,,,,,,,,,,,,,,,,,,,,,,,,,,,,,,,,,,,,,,,,,,,,,,,,,,,,,,,,,,,,,,,,,,,
,,,,,,,,,60ab320c7942de077d57299a,20,Mężczyzna,2022-06-04_10h12.16.727,task,2021.1.4,Win32,119.3887297,628b806c463b948bc644b84f,629b0d84c8779603b71301c9,,,,,,5,0,5,0,1,X V Q F H G B L J M P D K C T S W R N Z,,,,,,,,,,,,,,,,,,,,,,,,,,,,,,,,,,,,,,,,,,,,,,,,,,,,,,,,,,,,,,,,,,,,,,,,,,,,,,,,,,,,,,,,,,,,,
,,,,,,,,,60ab320c7942de077d57299a,20,Mężczyzna,2022-06-04_10h12.16.727,task,2021.1.4,Win32,119.3887297,628b806c463b948bc644b84f,629b0d84c8779603b71301c9,,,,,,,,,,,,nspzqg,"[""n"",""s"",""p"",""z"",""q"",""g""]","[1.4603999999761754,1.9644999999999868,2.2505999999642086,2.8433999999761568,8.692699999988065,12.976699999988057,13.283899999976143]",0,NSPZPG,11,0,11,0,1,,,,,,,,,,,,,,,,,,,,,,,,,,,,,,,,,,,,,,,,,,,,,,,,,,,,,,,,,,,,,,,,,,,,,,,,,,,,,,,,,,,
,,,,,,,,,60ab320c7942de077d57299a,20,Mężczyzna,2022-06-04_10h12.16.727,task,2021.1.4,Win32,119.3887297,628b806c463b948bc644b84f,629b0d84c8779603b71301c9,,,,,,0,0,0,0,1,X V Q F H G B L J M P D K C T S W R N Z,,,,,,,,,,,,,,,,,,,,,,,,,,,,,,,,,,,,,,,,,,,,,,,,,,,,,,,,,,,,,,,,,,,,,,,,,,,,,,,,,,,,,,,,,,,,,
,,,,,,,,,60ab320c7942de077d57299a,20,Mężczyzna,2022-06-04_10h12.16.727,task,2021.1.4,Win32,119.3887297,628b806c463b948bc644b84f,629b0d84c8779603b71301c9,,,,,,1,0,1,0,1,X V Q F H G B L J M P D K C T S W R N Z,,,,,,,,,,,,,,,,,,,,,,,,,,,,,,,,,,,,,,,,,,,,,,,,,,,,,,,,,,,,,,,,,,,,,,,,,,,,,,,,,,,,,,,,,,,,,
,,,,,,,,,60ab320c7942de077d57299a,20,Mężczyzna,2022-06-04_10h12.16.727,task,2021.1.4,Win32,119.3887297,628b806c463b948bc644b84f,629b0d84c8779603b71301c9,,,,,,2,0,2,0,1,X V Q F H G B L J M P D K C T S W R N Z,,,,,,,,,,,,,,,,,,,,,,,,,,,,,,,,,,,,,,,,,,,,,,,,,,,,,,,,,,,,,,,,,,,,,,,,,,,,,,,,,,,,,,,,,,,,,
,,,,,,,,,60ab320c7942de077d57299a,20,Mężczyzna,2022-06-04_10h12.16.727,task,2021.1.4,Win32,119.3887297,628b806c463b948bc644b84f,629b0d84c8779603b71301c9,,,,,,3,0,3,0,1,X V Q F H G B L J M P D K C T S W R N Z,,,,,,,,,,,,,,,,,,,,,,,,,,,,,,,,,,,,,,,,,,,,,,,,,,,,,,,,,,,,,,,,,,,,,,,,,,,,,,,,,,,,,,,,,,,,,
,,,,,,,,,60ab320c7942de077d57299a,20,Mężczyzna,2022-06-04_10h12.16.727,task,2021.1.4,Win32,119.3887297,628b806c463b948bc644b84f,629b0d84c8779603b71301c9,,,,,,4,0,4,0,1,X V Q F H G B L J M P D K C T S W R N Z,,,,,,,,,,,,,,,,,,,,,,,,,,,,,,,,,,,,,,,,,,,,,,,,,,,,,,,,,,,,,,,,,,,,,,,,,,,,,,,,,,,,,,,,,,,,,
,,,,,,,,,60ab320c7942de077d57299a,20,Mężczyzna,2022-06-04_10h12.16.727,task,2021.1.4,Win32,119.3887297,628b806c463b948bc644b84f,629b0d84c8779603b71301c9,,,,,,5,0,5,0,1,X V Q F H G B L J M P D K C T S W R N Z,,,,,,,,,,,,,,,,,,,,,,,,,,,,,,,,,,,,,,,,,,,,,,,,,,,,,,,,,,,,,,,,,,,,,,,,,,,,,,,,,,,,,,,,,,,,,
,,,,,,,,,60ab320c7942de077d57299a,20,Mężczyzna,2022-06-04_10h12.16.727,task,2021.1.4,Win32,119.3887297,628b806c463b948bc644b84f,629b0d84c8779603b71301c9,,,,,,,,,,,,whbztk,"[""w"",""h"",""b"",""z"",""t"",""k""]","[1.6310000000000286,1.78420000004769,2.1008000000119296,2.3450000000000273,4.451100000023871,5.650600000023871,5.90300000000002]",0,WHBZTG,12,0,12,0,1,,,,,,,,,,,,,,,,,,,,,,,,,,,,,,,,,,,,,,,,,,,,,,,,,,,,,,,,,,,,,,,,,,,,,,,,,,,,,,,,,,,
,,,,,,,,,60ab320c7942de077d57299a,20,Mężczyzna,2022-06-04_10h12.16.727,task,2021.1.4,Win32,119.3887297,628b806c463b948bc644b84f,629b0d84c8779603b71301c9,,,,,,,,,,,,,,,,,,,,,,space,5.1925,0,"[""0""]",1,[1.696199999988039],[1.696199999988039],0,0,0,0,1,Practice,1,(3x3) -  9,0,,,,,,,,,,,,,,,,,,,,,,,,,,,,,,,,,,,,,,,,,,,,,,,,,,,,,,,,,,,,,,,,,,,
,,,,,,,,,60ab320c7942de077d57299a,20,Mężczyzna,2022-06-04_10h12.16.727,task,2021.1.4,Win32,119.3887297,628b806c463b948bc644b84f,629b0d84c8779603b71301c9,,,,,,,,,,,,,,,,,,,,,,,,5,"[""5""]",1,[2.038299999952301],"[1.696199999988039,2.038299999952301]",0,1,1,5,1,Practice,6,(4/2) + 3,5,,,,,,,,,,,,,,,,,,,,,,,,,,,,,,,,,,,,,,,,,,,,,,,,,,,,,,,,,,,,,,,,,,,
,,,,,,,,,60ab320c7942de077d57299a,20,Mężczyzna,2022-06-04_10h12.16.727,task,2021.1.4,Win32,119.3887297,628b806c463b948bc644b84f,629b0d84c8779603b71301c9,,,,,,,,,,,,,,,,,,,,,,,,1,"[""1""]",1,[1.2811999999881323],"[1.696199999988039,2.038299999952301,1.2811999999881323]",0,2,2,1,1,Practice,2,(4x4) - 15,1,,,,,,,,,,,,,,,,,,,,,,,,,,,,,,,,,,,,,,,,,,,,,,,,,,,,,,,,,,,,,,,,,,,
,,,,,,,,,60ab320c7942de077d57299a,20,Mężczyzna,2022-06-04_10h12.16.727,task,2021.1.4,Win32,119.3887297,628b806c463b948bc644b84f,629b0d84c8779603b71301c9,,,,,,,,,,,,,,,,,,,,,,,,4,"[""4""]",1,[2.085599999964245],"[1.696199999988039,2.038299999952301,1.2811999999881323,2.085599999964245]",0,3,3,4,1,Practice,5,(2x6) - 8,4,,,,,,,,,,,,,,,,,,,,,,,,,,,,,,,,,,,,,,,,,,,,,,,,,,,,,,,,,,,,,,,,,,,
,,,,,,,,,60ab320c7942de077d57299a,20,Mężczyzna,2022-06-04_10h12.16.727,task,2021.1.4,Win32,119.3887297,628b806c463b948bc644b84f,629b0d84c8779603b71301c9,,,,,,,,,,,,,,,,,,,,,,,,3,"[""3""]",1,[2.13539999997613],"[1.696199999988039,2.038299999952301,1.2811999999881323,2.085599999964245,2.13539999997613]",0,4,4,3,1,Practice,4,(8/4) + 1,3,,,,,,,,,,,,,,,,,,,,,,,,,,,,,,,,,,,,,,,,,,,,,,,,,,,,,,,,,,,,,,,,,,,
,,,,,,,,,60ab320c7942de077d57299a,20,Mężczyzna,2022-06-04_10h12.16.727,task,2021.1.4,Win32,119.3887297,628b806c463b948bc644b84f,629b0d84c8779603b71301c9,,,,,,,,,,,,,,,,,,,,,,,,7,"[""7""]",1,[3.89939999997614],"[1.696199999988039,2.038299999952301,1.2811999999881323,2.085599999964245,2.13539999997613,3.89939999997614]",0,5,5,7,1,Practice,8,(5x5) - 18,7,,,,,,,,,,,,,,,,,,,,,,,,,,,,,,,,,,,,,,,,,,,,,,,,,,,,,,,,,,,,,,,,,,,
,,,,,,,,,60ab320c7942de077d57299a,20,Mężczyzna,2022-06-04_10h12.16.727,task,2021.1.4,Win32,119.3887297,628b806c463b948bc644b84f,629b0d84c8779603b71301c9,,,,,,,,,,,,,,,,,,,,,,,,2,"[""2""]",1,[1.5250999999642545],"[1.696199999988039,2.038299999952301,1.2811999999881323,2.085599999964245,2.13539999997613,3.89939999997614,1.5250999999642545]",0,6,6,2,1,Practice,3,(4x4) - 14,2,,,,,,,,,,,,,,,,,,,,,,,,,,,,,,,,,,,,,,,,,,,,,,,,,,,,,,,,,,,,,,,,,,,
,,,,,,,,,60ab320c7942de077d57299a,20,Mężczyzna,2022-06-04_10h12.16.727,task,2021.1.4,Win32,119.3887297,628b806c463b948bc644b84f,629b0d84c8779603b71301c9,,,,,,,,,,,,,,,,,,,,,,,,8,"[""8""]",1,[1.5392999999522772],"[1.696199999988039,2.038299999952301,1.2811999999881323,2.085599999964245,2.13539999997613,3.89939999997614,1.5250999999642545,1.5392999999522772]",0,7,7,8,1,Practice,9,(3x3) - 1,8,,,,,,,,,,,,,,,,,,,,,,,,,,,,,,,,,,,,,,,,,,,,,,,,,,,,,,,,,,,,,,,,,,,
,,,,,,,,,60ab320c7942de077d57299a,20,Mężczyzna,2022-06-04_10h12.16.727,task,2021.1.4,Win32,119.3887297,628b806c463b948bc644b84f,629b0d84c8779603b71301c9,,,,,,,,,,,,,,,,,,,,,,,,9,"[""9""]",1,[1.5439000000357623],"[1.696199999988039,2.038299999952301,1.2811999999881323,2.085599999964245,2.13539999997613,3.89939999997614,1.5250999999642545,1.5392999999522772,1.5439000000357623]",0,8,8,9,1,Practice,10,(20/2) - 1,9,,,,,,,,,,,,,,,,,,,,,,,,,,,,,,,,,,,,,,,,,,,,,,,,,,,,,,,,,,,,,,,,,,,
,,,,,,,,,60ab320c7942de077d57299a,20,Mężczyzna,2022-06-04_10h12.16.727,task,2021.1.4,Win32,119.3887297,628b806c463b948bc644b84f,629b0d84c8779603b71301c9,,,,,,,,,,,,,,,,,,,,,,,,6,"[""6""]",1,[1.81040000003577],"[1.696199999988039,2.038299999952301,1.2811999999881323,2.085599999964245,2.13539999997613,3.89939999997614,1.5250999999642545,1.5392999999522772,1.5439000000357623,1.81040000003577]",0,9,9,6,1,Practice,7,(25/5) + 1,6,,,,,,,,,,,,,,,,,,,,,,,,,,,,,,,,,,,,,,,,,,,,,,,,,,,,,,,,,,,,,,,,,,,
,,,,,,,,,60ab320c7942de077d57299a,20,Mężczyzna,2022-06-04_10h12.16.727,task,2021.1.4,Win32,119.3887297,628b806c463b948bc644b84f,629b0d84c8779603b71301c9,,,,,,,,,,,,,,,,,,,,,,,,,,,,,,,,,,,,,,1,19.5548,1.303653333,9.15452525,0.781218077,3.319195971,space,1.3851,0,0,0,0,1,,,,,,,,,,,,,,,,,,,,,,,,,,,,,,,,,,,,,,,,,,,,,,,,,,,,,,
,,,,,,,,,60ab320c7942de077d57299a,20,Mężczyzna,2022-06-04_10h12.16.727,task,2021.1.4,Win32,119.3887297,628b806c463b948bc644b84f,629b0d84c8779603b71301c9,,,,,,,,,,,,,,,,,,,,,,,,9,,,,,,,,,,Practice,10,(20/2) - 1,9,,,,,,,,,,,,,,space,15.9715,"[""9""]",1,[2.02619999998808],1,0,0,0,9,1,,,,,,,,,,,,,,,,,,,,,,,,,,,,,,,,,,,,,,,,,,,
,,,,,,,,,60ab320c7942de077d57299a,20,Mężczyzna,2022-06-04_10h12.16.727,task,2021.1.4,Win32,119.3887297,628b806c463b948bc644b84f,629b0d84c8779603b71301c9,,,,,,,,,,,X V Q F H G B L J M P D K C T S W R N Z,,,,,,,,,,,,,,,,,,,,,,,,,,,,,,,,,,,,,,,,,,,,,,,,,,,0,0,0,0,1,,,,,,,,,,,,,,,,,,,,,,,,,,,,,,,,,,,,,,
,,,,,,,,,60ab320c7942de077d57299a,20,Mężczyzna,2022-06-04_10h12.16.727,task,2021.1.4,Win32,119.3887297,628b806c463b948bc644b84f,629b0d84c8779603b71301c9,,,,,,,,,,,,,,,,,,,,,,,,0,,,,,,,,,,Practice,1,(3x3) -  9,0,,,,,,,,,,,,,,,,"[""0""]",1,[1.3348999999761872],1,0,0,0,0,1,,,,,,,,,,,,,,,,,,,,,,,,,,,,,,,,,,,,,,,,,,,
,,,,,,,,,60ab320c7942de077d57299a,20,Mężczyzna,2022-06-04_10h12.16.727,task,2021.1.4,Win32,119.3887297,628b806c463b948bc644b84f,629b0d84c8779603b71301c9,,,,,,,,,,,X V Q F H G B L J M P D K C T S W R N Z,,,,,,,,,,,,,,,,,,,,,,,,,,,,,,,,,,,,,,,,,,,,,,,,,,,1,0,1,0,1,,,,,,,,,,,,,,,,,,,,,,,,,,,,,,,,,,,,,,
,,,,,,,,,60ab320c7942de077d57299a,20,Mężczyzna,2022-06-04_10h12.16.727,task,2021.1.4,Win32,119.3887297,628b806c463b948bc644b84f,629b0d84c8779603b71301c9,,,,,,,,,,,,,,,,,,,,,,,,,,,,,,,,,,,,,,,,,,,,,,,,,,,,,,,,,,,,,,,,,,,zm,"[""z"",""m""]",0,"[1.6750000000000682,1.8223999999761418,3.9901999999881355]",1,0,0,0,0,1,,,,,,,,,,,,,,,,,,,,,,,,,,,,
,,,,,,,,,60ab320c7942de077d57299a,20,Mężczyzna,2022-06-04_10h12.16.727,task,2021.1.4,Win32,119.3887297,628b806c463b948bc644b84f,629b0d84c8779603b71301c9,,,,,,,,,,,,,,,,,,,,,,,,2,,,,,,,,,,Practice,3,(4x4) - 14,2,,,,,,,,,,,,,,,,"[""2""]",1,[1.9600999999643136],1,0,0,0,2,1,,,,,,,,,,,,,,,,,,,,,,,,,,,,,,,,,,,,,,,,,,,
,,,,,,,,,60ab320c7942de077d57299a,20,Mężczyzna,2022-06-04_10h12.16.727,task,2021.1.4,Win32,119.3887297,628b806c463b948bc644b84f,629b0d84c8779603b71301c9,,,,,,,,,,,X V Q F H G B L J M P D K C T S W R N Z,,,,,,,,,,,,,,,,,,,,,,,,,,,,,,,,,,,,,,,,,,,,,,,,,,,0,0,0,0,1,,,,,,,,,,,,,,,,,,,,,,,,,,,,,,,,,,,,,,
,,,,,,,,,60ab320c7942de077d57299a,20,Mężczyzna,2022-06-04_10h12.16.727,task,2021.1.4,Win32,119.3887297,628b806c463b948bc644b84f,629b0d84c8779603b71301c9,,,,,,,,,,,,,,,,,,,,,,,,6,,,,,,,,,,Practice,7,(25/5) + 1,6,,,,,,,,,,,,,,,,"[""6""]",1,[1.5163000000118245],1,0,0,0,6,1,,,,,,,,,,,,,,,,,,,,,,,,,,,,,,,,,,,,,,,,,,,
,,,,,,,,,60ab320c7942de077d57299a,20,Mężczyzna,2022-06-04_10h12.16.727,task,2021.1.4,Win32,119.3887297,628b806c463b948bc644b84f,629b0d84c8779603b71301c9,,,,,,,,,,,X V Q F H G B L J M P D K C T S W R N Z,,,,,,,,,,,,,,,,,,,,,,,,,,,,,,,,,,,,,,,,,,,,,,,,,,,1,0,1,0,1,,,,,,,,,,,,,,,,,,,,,,,,,,,,,,,,,,,,,,
,,,,,,,,,60ab320c7942de077d57299a,20,Mężczyzna,2022-06-04_10h12.16.727,task,2021.1.4,Win32,119.3887297,628b806c463b948bc644b84f,629b0d84c8779603b71301c9,,,,,,,,,,,,,,,,,,,,,,,,,,,,,,,,,,,,,,,,,,,,,,,,,,,,,,,,,,,,,,,,,,,jr,"[""j"",""r""]",0,"[1.6003999999761618,1.7350000000000136,2.0748999999761963]",1,1,0,1,0,1,,,,,,,,,,,,,,,,,,,,,,,,,,,,
,,,,,,,,,60ab320c7942de077d57299a,20,Mężczyzna,2022-06-04_10h12.16.727,task,2021.1.4,Win32,119.3887297,628b806c463b948bc644b84f,629b0d84c8779603b71301c9,,,,,,,,,,,,,,,,,,,,,,,,8,,,,,,,,,,Practice,9,(3x3) - 1,8,,,,,,,,,,,,,,,,"[""8""]",1,[1.9486999999880936],1,0,0,0,8,1,,,,,,,,,,,,,,,,,,,,,,,,,,,,,,,,,,,,,,,,,,,
,,,,,,,,,60ab320c7942de077d57299a,20,Mężczyzna,2022-06-04_10h12.16.727,task,2021.1.4,Win32,119.3887297,628b806c463b948bc644b84f,629b0d84c8779603b71301c9,,,,,,,,,,,X V Q F H G B L J M P D K C T S W R N Z,,,,,,,,,,,,,,,,,,,,,,,,,,,,,,,,,,,,,,,,,,,,,,,,,,,0,0,0,0,1,,,,,,,,,,,,,,,,,,,,,,,,,,,,,,,,,,,,,,
,,,,,,,,,60ab320c7942de077d57299a,20,Mężczyzna,2022-06-04_10h12.16.727,task,2021.1.4,Win32,119.3887297,628b806c463b948bc644b84f,629b0d84c8779603b71301c9,,,,,,,,,,,,,,,,,,,,,,,,1,,,,,,,,,,Practice,2,(4x4) - 15,1,,,,,,,,,,,,,,,,"[""1""]",1,[1.3803000000118573],1,0,0,0,1,1,,,,,,,,,,,,,,,,,,,,,,,,,,,,,,,,,,,,,,,,,,,
,,,,,,,,,60ab320c7942de077d57299a,20,Mężczyzna,2022-06-04_10h12.16.727,task,2021.1.4,Win32,119.3887297,628b806c463b948bc644b84f,629b0d84c8779603b71301c9,,,,,,,,,,,X V Q F H G B L J M P D K C T S W R N Z,,,,,,,,,,,,,,,,,,,,,,,,,,,,,,,,,,,,,,,,,,,,,,,,,,,1,0,1,0,1,,,,,,,,,,,,,,,,,,,,,,,,,,,,,,,,,,,,,,
,,,,,,,,,60ab320c7942de077d57299a,20,Mężczyzna,2022-06-04_10h12.16.727,task,2021.1.4,Win32,119.3887297,628b806c463b948bc644b84f,629b0d84c8779603b71301c9,,,,,,,,,,,,,,,,,,,,,,,,,,,,,,,,,,,,,,,,,,,,,,,,,,,,,,,,,,,,,,,,,,,kf,"[""k"",""f""]",0,"[1.5514000000357555,1.6864000000357464,1.9416000000238682]",1,2,0,2,0,1,,,,,,,,,,,,,,,,,,,,,,,,,,,,
,,,,,,,,,60ab320c7942de077d57299a,20,Mężczyzna,2022-06-04_10h12.16.727,task,2021.1.4,Win32,119.3887297,628b806c463b948bc644b84f,629b0d84c8779603b71301c9,,,,,,,,,,,,,,,,,,,,,,,,2,,,,,,,,,,Task,19,(6/2) - 1,2,,,,,,,,,,,,,,,,,,,1,,,,,,,,,,,,,,,,,,,,,space,182.5645,"[""2""]",1,[3.060199999988072],0,0,0,18,1,,,,,,,,,,,,,,,,,,
,,,,,,,,,60ab320c7942de077d57299a,20,Mężczyzna,2022-06-04_10h12.16.727,task,2021.1.4,Win32,119.3887297,628b806c463b948bc644b84f,629b0d84c8779603b71301c9,,,,,,,,,,,X V Q F H G B L J M P D K C T S W R N Z,,,,,,,,,,,,,,,,,,,,,,,,,,,,,,,,,,,,,,,,,,,,,,,,,,,,,,,,,,,,,,,,,,,,,,,,,,,,0,0,0,0,1,,,,,,,,,,,,,
,,,,,,,,,60ab320c7942de077d57299a,20,Mężczyzna,2022-06-04_10h12.16.727,task,2021.1.4,Win32,119.3887297,628b806c463b948bc644b84f,629b0d84c8779603b71301c9,,,,,,,,,,,,,,,,,,,,,,,,8,,,,,,,,,,Task,23,(2x3) + 2,8,,,,,,,,,,,,,,,,,,,1,,,,,,,,,,,,,,,,,,,,,,,"[""8""]",1,[2.4543000000119264],0,0,0,22,1,,,,,,,,,,,,,,,,,,
,,,,,,,,,60ab320c7942de077d57299a,20,Mężczyzna,2022-06-04_10h12.16.727,task,2021.1.4,Win32,119.3887297,628b806c463b948bc644b84f,629b0d84c8779603b71301c9,,,,,,,,,,,X V Q F H G B L J M P D K C T S W R N Z,,,,,,,,,,,,,,,,,,,,,,,,,,,,,,,,,,,,,,,,,,,,,,,,,,,,,,,,,,,,,,,,,,,,,,,,,,,,1,0,1,0,1,,,,,,,,,,,,,
,,,,,,,,,60ab320c7942de077d57299a,20,Mężczyzna,2022-06-04_10h12.16.727,task,2021.1.4,Win32,119.3887297,628b806c463b948bc644b84f,629b0d84c8779603b71301c9,,,,,,,,,,,,,,,,,,,,,,,,,,,,,,,,,,,,,,,,,,,,,,,,,,,,,,,,,,,,,,,,,,,,,,,,,,,,,,,,,,,,,,,,,,,,zm,"[""z"",""m""]",0,"[1.4046000000238337,1.533300000011991,1.8138000000119519]",1,ZM,0,0,0,0,1,,
,,,,,,,,,60ab320c7942de077d57299a,20,Mężczyzna,2022-06-04_10h12.16.727,task,2021.1.4,Win32,119.3887297,628b806c463b948bc644b84f,629b0d84c8779603b71301c9,,,,,,,,,,,,,,,,,,,,,,,,3,,,,,,,,,,Task,35,(1x2) + 1,3,,,,,,,,,,,,,,,,,,,1,,,,,,,,,,,,,,,,,,,,,,,"[""3""]",1,[1.6471999999880609],0,0,0,34,1,,,,,,,,,,,,,,,,,,
,,,,,,,,,60ab320c7942de077d57299a,20,Mężczyzna,2022-06-04_10h12.16.727,task,2021.1.4,Win32,119.3887297,628b806c463b948bc644b84f,629b0d84c8779603b71301c9,,,,,,,,,,,X V Q F H G B L J M P D K C T S W R N Z,,,,,,,,,,,,,,,,,,,,,,,,,,,,,,,,,,,,,,,,,,,,,,,,,,,,,,,,,,,,,,,,,,,,,,,,,,,,0,0,0,0,1,,,,,,,,,,,,,
,,,,,,,,,60ab320c7942de077d57299a,20,Mężczyzna,2022-06-04_10h12.16.727,task,2021.1.4,Win32,119.3887297,628b806c463b948bc644b84f,629b0d84c8779603b71301c9,,,,,,,,,,,,,,,,,,,,,,,,3,,,,,,,,,,Task,27,(3/3) + 2,3,,,,,,,,,,,,,,,,,,,1,,,,,,,,,,,,,,,,,,,,,,,"[""3""]",1,[1.671300000011911],0,0,0,26,1,,,,,,,,,,,,,,,,,,
,,,,,,,,,60ab320c7942de077d57299a,20,Mężczyzna,2022-06-04_10h12.16.727,task,2021.1.4,Win32,119.3887297,628b806c463b948bc644b84f,629b0d84c8779603b71301c9,,,,,,,,,,,X V Q F H G B L J M P D K C T S W R N Z,,,,,,,,,,,,,,,,,,,,,,,,,,,,,,,,,,,,,,,,,,,,,,,,,,,,,,,,,,,,,,,,,,,,,,,,,,,,1,0,1,0,1,,,,,,,,,,,,,
,,,,,,,,,60ab320c7942de077d57299a,20,Mężczyzna,2022-06-04_10h12.16.727,task,2021.1.4,Win32,119.3887297,628b806c463b948bc644b84f,629b0d84c8779603b71301c9,,,,,,,,,,,,,,,,,,,,,,,,,,,,,,,,,,Task,11,(18/3) - 2,4,,,,,,,,,,,,,,,,,,,0,,,,,,,,,,,,,,,,,,,,,,,,0,,0,0,0,10,1,,,,,,,,,,,,,,,,,,
,,,,,,,,,60ab320c7942de077d57299a,20,Mężczyzna,2022-06-04_10h12.16.727,task,2021.1.4,Win32,119.3887297,628b806c463b948bc644b84f,629b0d84c8779603b71301c9,,,,,,,,,,,,,,,,,,,,,,,,4,,,,,,,,,,Task,28,(2x5) - 6,4,,,,,,,,,,,,,,,,,,,1,,,,,,,,,,,,,,,,,,,,,,,"[""4""]",1,[2.346099999964281],0,1,1,27,1,,,,,,,,,,,,,,,,,,
,,,,,,,,,60ab320c7942de077d57299a,20,Mężczyzna,2022-06-04_10h12.16.727,task,2021.1.4,Win32,119.3887297,628b806c463b948bc644b84f,629b0d84c8779603b71301c9,,,,,,,,,,,X V Q F H G B L J M P D K C T S W R N Z,,,,,,,,,,,,,,,,,,,,,,,,,,,,,,,,,,,,,,,,,,,,,,,,,,,,,,,,,,,,,,,,,,,,,,,,,,,,2,0,2,0,1,,,,,,,,,,,,,
,,,,,,,,,60ab320c7942de077d57299a,20,Mężczyzna,2022-06-04_10h12.16.727,task,2021.1.4,Win32,119.3887297,628b806c463b948bc644b84f,629b0d84c8779603b71301c9,,,,,,,,,,,,,,,,,,,,,,,,,,,,,,,,,,,,,,,,,,,,,,,,,,,,,,,,,,,,,,,,,,,,,,,,,,,,,,,,,,,,,,,,,,,,fpw,"[""f"",""p"",""w""]",0,"[1.3170000000000073,1.6016999999881136,1.7266999999881136,1.9578999999761209]",1,FPW,1,0,1,0,1,,
,,,,,,,,,60ab320c7942de077d57299a,20,Mężczyzna,2022-06-04_10h12.16.727,task,2021.1.4,Win32,119.3887297,628b806c463b948bc644b84f,629b0d84c8779603b71301c9,,,,,,,,,,,,,,,,,,,,,,,,,,,,,,,,,,Task,38,(4x6) - 17,7,,,,,,,,,,,,,,,,,,,0,,,,,,,,,,,,,,,,,,,,,,,,0,,0,0,0,37,1,,,,,,,,,,,,,,,,,,
,,,,,,,,,60ab320c7942de077d57299a,20,Mężczyzna,2022-06-04_10h12.16.727,task,2021.1.4,Win32,119.3887297,628b806c463b948bc644b84f,629b0d84c8779603b71301c9,,,,,,,,,,,,,,,,,,,,,,,,0,,,,,,,,,,Task,8,(1x5) - 5,0,,,,,,,,,,,,,,,,,,,1,,,,,,,,,,,,,,,,,,,,,,,"[""0""]",1,[2.0389999999999873],0,1,1,7,1,,,,,,,,,,,,,,,,,,
,,,,,,,,,60ab320c7942de077d57299a,20,Mężczyzna,2022-06-04_10h12.16.727,task,2021.1.4,Win32,119.3887297,628b806c463b948bc644b84f,629b0d84c8779603b71301c9,,,,,,,,,,,X V Q F H G B L J M P D K C T S W R N Z,,,,,,,,,,,,,,,,,,,,,,,,,,,,,,,,,,,,,,,,,,,,,,,,,,,,,,,,,,,,,,,,,,,,,,,,,,,,0,0,0,0,1,,,,,,,,,,,,,
,,,,,,,,,60ab320c7942de077d57299a,20,Mężczyzna,2022-06-04_10h12.16.727,task,2021.1.4,Win32,119.3887297,628b806c463b948bc644b84f,629b0d84c8779603b71301c9,,,,,,,,,,,,,,,,,,,,,,,,,,,,,,,,,,Task,38,(4x6) - 17,7,,,,,,,,,,,,,,,,,,,0,,,,,,,,,,,,,,,,,,,,,,,,0,,0,0,0,37,1,,,,,,,,,,,,,,,,,,
,,,,,,,,,60ab320c7942de077d57299a,20,Mężczyzna,2022-06-04_10h12.16.727,task,2021.1.4,Win32,119.3887297,628b806c463b948bc644b84f,629b0d84c8779603b71301c9,,,,,,,,,,,,,,,,,,,,,,,,7,,,,,,,,,,Task,31,(4/2) + 5,7,,,,,,,,,,,,,,,,,,,1,,,,,,,,,,,,,,,,,,,,,,,"[""7""]",1,[2.157199999988052],0,1,1,30,1,,,,,,,,,,,,,,,,,,
,,,,,,,,,60ab320c7942de077d57299a,20,Mężczyzna,2022-06-04_10h12.16.727,task,2021.1.4,Win32,119.3887297,628b806c463b948bc644b84f,629b0d84c8779603b71301c9,,,,,,,,,,,X V Q F H G B L J M P D K C T S W R N Z,,,,,,,,,,,,,,,,,,,,,,,,,,,,,,,,,,,,,,,,,,,,,,,,,,,,,,,,,,,,,,,,,,,,,,,,,,,,1,0,1,0,1,,,,,,,,,,,,,
,,,,,,,,,60ab320c7942de077d57299a,20,Mężczyzna,2022-06-04_10h12.16.727,task,2021.1.4,Win32,119.3887297,628b806c463b948bc644b84f,629b0d84c8779603b71301c9,,,,,,,,,,,,,,,,,,,,,,,,4,,,,,,,,,,Task,28,(2x5) - 6,4,,,,,,,,,,,,,,,,,,,1,,,,,,,,,,,,,,,,,,,,,,,"[""4""]",1,[1.7954000000357837],0,0,0,27,1,,,,,,,,,,,,,,,,,,
,,,,,,,,,60ab320c7942de077d57299a,20,Mężczyzna,2022-06-04_10h12.16.727,task,2021.1.4,Win32,119.3887297,628b806c463b948bc644b84f,629b0d84c8779603b71301c9,,,,,,,,,,,X V Q F H G B L J M P D K C T S W R N Z,,,,,,,,,,,,,,,,,,,,,,,,,,,,,,,,,,,,,,,,,,,,,,,,,,,,,,,,,,,,,,,,,,,,,,,,,,,,2,0,2,0,1,,,,,,,,,,,,,
,,,,,,,,,60ab320c7942de077d57299a,20,Mężczyzna,2022-06-04_10h12.16.727,task,2021.1.4,Win32,119.3887297,628b806c463b948bc644b84f,629b0d84c8779603b71301c9,,,,,,,,,,,,,,,,,,,,,,,,6,,,,,,,,,,Task,5,(2x3) + 0,6,,,,,,,,,,,,,,,,,,,1,,,,,,,,,,,,,,,,,,,,,,,"[""6""]",1,[1.965899999976159],0,0,0,4,1,,,,,,,,,,,,,,,,,,
,,,,,,,,,60ab320c7942de077d57299a,20,Mężczyzna,2022-06-04_10h12.16.727,task,2021.1.4,Win32,119.3887297,628b806c463b948bc644b84f,629b0d84c8779603b71301c9,,,,,,,,,,,X V Q F H G B L J M P D K C T S W R N Z,,,,,,,,,,,,,,,,,,,,,,,,,,,,,,,,,,,,,,,,,,,,,,,,,,,,,,,,,,,,,,,,,,,,,,,,,,,,3,0,3,0,1,,,,,,,,,,,,,
,,,,,,,,,60ab320c7942de077d57299a,20,Mężczyzna,2022-06-04_10h12.16.727,task,2021.1.4,Win32,119.3887297,628b806c463b948bc644b84f,629b0d84c8779603b71301c9,,,,,,,,,,,,,,,,,,,,,,,,,,,,,,,,,,,,,,,,,,,,,,,,,,,,,,,,,,,,,,,,,,,,,,,,,,,,,,,,,,,,,,,,,,,,mcbt,"[""m"",""c"",""b"",""t""]",0,"[1.4488000000119428,1.7171000000238337,1.8759000000358128,2.0575000000000045,2.675800000011918]",1,MCBT,2,0,2,0,1,,
,,,,,,,,,60ab320c7942de077d57299a,20,Mężczyzna,2022-06-04_10h12.16.727,task,2021.1.4,Win32,119.3887297,628b806c463b948bc644b84f,629b0d84c8779603b71301c9,,,,,,,,,,,,,,,,,,,,,,,,4,,,,,,,,,,Task,32,(8/2) + 4,8,,,,,,,,,,,,,,,,,,,0,,,,,,,,,,,,,,,,,,,,,,,"[""4""]",0,[1.7024999999999864],0,0,0,31,1,,,,,,,,,,,,,,,,,,
,,,,,,,,,60ab320c7942de077d57299a,20,Mężczyzna,2022-06-04_10h12.16.727,task,2021.1.4,Win32,119.3887297,628b806c463b948bc644b84f,629b0d84c8779603b71301c9,,,,,,,,,,,,,,,,,,,,,,,,4,,,,,,,,,,Task,28,(2x5) - 6,4,,,,,,,,,,,,,,,,,,,1,,,,,,,,,,,,,,,,,,,,,,,"[""4""]",1,[1.4656999999880327],0,1,1,27,1,,,,,,,,,,,,,,,,,,
,,,,,,,,,60ab320c7942de077d57299a,20,Mężczyzna,2022-06-04_10h12.16.727,task,2021.1.4,Win32,119.3887297,628b806c463b948bc644b84f,629b0d84c8779603b71301c9,,,,,,,,,,,X V Q F H G B L J M P D K C T S W R N Z,,,,,,,,,,,,,,,,,,,,,,,,,,,,,,,,,,,,,,,,,,,,,,,,,,,,,,,,,,,,,,,,,,,,,,,,,,,,0,0,0,0,1,,,,,,,,,,,,,
,,,,,,,,,60ab320c7942de077d57299a,20,Mężczyzna,2022-06-04_10h12.16.727,task,2021.1.4,Win32,119.3887297,628b806c463b948bc644b84f,629b0d84c8779603b71301c9,,,,,,,,,,,,,,,,,,,,,,,,1,,,,,,,,,,Task,9,(3x7) - 20,1,,,,,,,,,,,,,,,,,,,1,,,,,,,,,,,,,,,,,,,,,,,"[""1""]",1,[2.250499999999988],0,0,0,8,1,,,,,,,,,,,,,,,,,,
,,,,,,,,,60ab320c7942de077d57299a,20,Mężczyzna,2022-06-04_10h12.16.727,task,2021.1.4,Win32,119.3887297,628b806c463b948bc644b84f,629b0d84c8779603b71301c9,,,,,,,,,,,X V Q F H G B L J M P D K C T S W R N Z,,,,,,,,,,,,,,,,,,,,,,,,,,,,,,,,,,,,,,,,,,,,,,,,,,,,,,,,,,,,,,,,,,,,,,,,,,,,1,0,1,0,1,,,,,,,,,,,,,
,,,,,,,,,60ab320c7942de077d57299a,20,Mężczyzna,2022-06-04_10h12.16.727,task,2021.1.4,Win32,119.3887297,628b806c463b948bc644b84f,629b0d84c8779603b71301c9,,,,,,,,,,,,,,,,,,,,,,,,3,,,,,,,,,,Task,35,(1x2) + 1,3,,,,,,,,,,,,,,,,,,,1,,,,,,,,,,,,,,,,,,,,,,,"[""3""]",1,[1.189099999964128],0,0,0,34,1,,,,,,,,,,,,,,,,,,
,,,,,,,,,60ab320c7942de077d57299a,20,Mężczyzna,2022-06-04_10h12.16.727,task,2021.1.4,Win32,119.3887297,628b806c463b948bc644b84f,629b0d84c8779603b71301c9,,,,,,,,,,,X V Q F H G B L J M P D K C T S W R N Z,,,,,,,,,,,,,,,,,,,,,,,,,,,,,,,,,,,,,,,,,,,,,,,,,,,,,,,,,,,,,,,,,,,,,,,,,,,,2,0,2,0,1,,,,,,,,,,,,,
,,,,,,,,,60ab320c7942de077d57299a,20,Mężczyzna,2022-06-04_10h12.16.727,task,2021.1.4,Win32,119.3887297,628b806c463b948bc644b84f,629b0d84c8779603b71301c9,,,,,,,,,,,,,,,,,,,,,,,,1,,,,,,,,,,Task,9,(3x7) - 20,1,,,,,,,,,,,,,,,,,,,1,,,,,,,,,,,,,,,,,,,,,,,"[""1""]",1,[1.4209000000357719],0,0,0,8,1,,,,,,,,,,,,,,,,,,
,,,,,,,,,60ab320c7942de077d57299a,20,Mężczyzna,2022-06-04_10h12.16.727,task,2021.1.4,Win32,119.3887297,628b806c463b948bc644b84f,629b0d84c8779603b71301c9,,,,,,,,,,,X V Q F H G B L J M P D K C T S W R N Z,,,,,,,,,,,,,,,,,,,,,,,,,,,,,,,,,,,,,,,,,,,,,,,,,,,,,,,,,,,,,,,,,,,,,,,,,,,,3,0,3,0,1,,,,,,,,,,,,,
,,,,,,,,,60ab320c7942de077d57299a,20,Mężczyzna,2022-06-04_10h12.16.727,task,2021.1.4,Win32,119.3887297,628b806c463b948bc644b84f,629b0d84c8779603b71301c9,,,,,,,,,,,,,,,,,,,,,,,,0,,,,,,,,,,Task,2,(2x2) - 2,2,,,,,,,,,,,,,,,,,,,0,,,,,,,,,,,,,,,,,,,,,,,"[""0""]",0,[1.4284999999999854],0,0,0,1,1,,,,,,,,,,,,,,,,,,
,,,,,,,,,60ab320c7942de077d57299a,20,Mężczyzna,2022-06-04_10h12.16.727,task,2021.1.4,Win32,119.3887297,628b806c463b948bc644b84f,629b0d84c8779603b71301c9,,,,,,,,,,,,,,,,,,,,,,,,5,,,,,,,,,,Task,36,(8/4) + 3,5,,,,,,,,,,,,,,,,,,,1,,,,,,,,,,,,,,,,,,,,,,,"[""5""]",1,[1.5713999999761654],0,1,1,35,1,,,,,,,,,,,,,,,,,,
,,,,,,,,,60ab320c7942de077d57299a,20,Mężczyzna,2022-06-04_10h12.16.727,task,2021.1.4,Win32,119.3887297,628b806c463b948bc644b84f,629b0d84c8779603b71301c9,,,,,,,,,,,X V Q F H G B L J M P D K C T S W R N Z,,,,,,,,,,,,,,,,,,,,,,,,,,,,,,,,,,,,,,,,,,,,,,,,,,,,,,,,,,,,,,,,,,,,,,,,,,,,4,0,4,0,1,,,,,,,,,,,,,
,,,,,,,,,60ab320c7942de077d57299a,20,Mężczyzna,2022-06-04_10h12.16.727,task,2021.1.4,Win32,119.3887297,628b806c463b948bc644b84f,629b0d84c8779603b71301c9,,,,,,,,,,,,,,,,,,,,,,,,,,,,,,,,,,,,,,,,,,,,,,,,,,,,,,,,,,,,,,,,,,,,,,,,,,,,,,,,,,,,,,,,,,,,clslw,"[""c"",""l"",""s"",""l"",""w""]",0,"[1.41519999998809,1.5358000000119318,1.6496999999880018,1.774800000011851,2.1693999999761218,2.5398999999761145]",1,CLSLW,3,0,3,0,1,,
,,,,,,,,,60ab320c7942de077d57299a,20,Mężczyzna,2022-06-04_10h12.16.727,task,2021.1.4,Win32,119.3887297,628b806c463b948bc644b84f,629b0d84c8779603b71301c9,,,,,,,,,,,,,,,,,,,,,,,,0,,,,,,,,,,Task,17,(2x3) - 6,0,,,,,,,,,,,,,,,,,,,1,,,,,,,,,,,,,,,,,,,,,,,"[""0""]",1,[1.50750000000005],0,0,0,16,1,,,,,,,,,,,,,,,,,,
,,,,,,,,,60ab320c7942de077d57299a,20,Mężczyzna,2022-06-04_10h12.16.727,task,2021.1.4,Win32,119.3887297,628b806c463b948bc644b84f,629b0d84c8779603b71301c9,,,,,,,,,,,X V Q F H G B L J M P D K C T S W R N Z,,,,,,,,,,,,,,,,,,,,,,,,,,,,,,,,,,,,,,,,,,,,,,,,,,,,,,,,,,,,,,,,,,,,,,,,,,,,0,0,0,0,1,,,,,,,,,,,,,
,,,,,,,,,60ab320c7942de077d57299a,20,Mężczyzna,2022-06-04_10h12.16.727,task,2021.1.4,Win32,119.3887297,628b806c463b948bc644b84f,629b0d84c8779603b71301c9,,,,,,,,,,,,,,,,,,,,,,,,7,,,,,,,,,,Task,6,(12/2) + 1,7,,,,,,,,,,,,,,,,,,,1,,,,,,,,,,,,,,,,,,,,,,,"[""7""]",1,[2.197900000035702],0,0,0,5,1,,,,,,,,,,,,,,,,,,
,,,,,,,,,60ab320c7942de077d57299a,20,Mężczyzna,2022-06-04_10h12.16.727,task,2021.1.4,Win32,119.3887297,628b806c463b948bc644b84f,629b0d84c8779603b71301c9,,,,,,,,,,,X V Q F H G B L J M P D K C T S W R N Z,,,,,,,,,,,,,,,,,,,,,,,,,,,,,,,,,,,,,,,,,,,,,,,,,,,,,,,,,,,,,,,,,,,,,,,,,,,,1,0,1,0,1,,,,,,,,,,,,,
,,,,,,,,,60ab320c7942de077d57299a,20,Mężczyzna,2022-06-04_10h12.16.727,task,2021.1.4,Win32,119.3887297,628b806c463b948bc644b84f,629b0d84c8779603b71301c9,,,,,,,,,,,,,,,,,,,,,,,,2,,,,,,,,,,Task,2,(2x2) - 2,2,,,,,,,,,,,,,,,,,,,1,,,,,,,,,,,,,,,,,,,,,,,"[""2""]",1,[1.4371999999880245],0,0,0,1,1,,,,,,,,,,,,,,,,,,
,,,,,,,,,60ab320c7942de077d57299a,20,Mężczyzna,2022-06-04_10h12.16.727,task,2021.1.4,Win32,119.3887297,628b806c463b948bc644b84f,629b0d84c8779603b71301c9,,,,,,,,,,,X V Q F H G B L J M P D K C T S W R N Z,,,,,,,,,,,,,,,,,,,,,,,,,,,,,,,,,,,,,,,,,,,,,,,,,,,,,,,,,,,,,,,,,,,,,,,,,,,,2,0,2,0,1,,,,,,,,,,,,,
,,,,,,,,,60ab320c7942de077d57299a,20,Mężczyzna,2022-06-04_10h12.16.727,task,2021.1.4,Win32,119.3887297,628b806c463b948bc644b84f,629b0d84c8779603b71301c9,,,,,,,,,,,,,,,,,,,,,,,,6,,,,,,,,,,Task,37,(3/3) + 5,6,,,,,,,,,,,,,,,,,,,1,,,,,,,,,,,,,,,,,,,,,,,"[""6""]",1,[2.2580999999642017],0,0,0,36,1,,,,,,,,,,,,,,,,,,
,,,,,,,,,60ab320c7942de077d57299a,20,Mężczyzna,2022-06-04_10h12.16.727,task,2021.1.4,Win32,119.3887297,628b806c463b948bc644b84f,629b0d84c8779603b71301c9,,,,,,,,,,,X V Q F H G B L J M P D K C T S W R N Z,,,,,,,,,,,,,,,,,,,,,,,,,,,,,,,,,,,,,,,,,,,,,,,,,,,,,,,,,,,,,,,,,,,,,,,,,,,,3,0,3,0,1,,,,,,,,,,,,,
,,,,,,,,,60ab320c7942de077d57299a,20,Mężczyzna,2022-06-04_10h12.16.727,task,2021.1.4,Win32,119.3887297,628b806c463b948bc644b84f,629b0d84c8779603b71301c9,,,,,,,,,,,,,,,,,,,,,,,,8,,,,,,,,,,Task,30,(6/3) + 4 ,6,,,,,,,,,,,,,,,,,,,0,,,,,,,,,,,,,,,,,,,,,,,"[""8""]",0,[3.1876999999880127],0,0,0,29,1,,,,,,,,,,,,,,,,,,
,,,,,,,,,60ab320c7942de077d57299a,20,Mężczyzna,2022-06-04_10h12.16.727,task,2021.1.4,Win32,119.3887297,628b806c463b948bc644b84f,629b0d84c8779603b71301c9,,,,,,,,,,,,,,,,,,,,,,,,7,,,,,,,,,,Task,38,(4x6) - 17,7,,,,,,,,,,,,,,,,,,,1,,,,,,,,,,,,,,,,,,,,,,,"[""7""]",1,[2.759099999964178],0,1,1,37,1,,,,,,,,,,,,,,,,,,
,,,,,,,,,60ab320c7942de077d57299a,20,Mężczyzna,2022-06-04_10h12.16.727,task,2021.1.4,Win32,119.3887297,628b806c463b948bc644b84f,629b0d84c8779603b71301c9,,,,,,,,,,,X V Q F H G B L J M P D K C T S W R N Z,,,,,,,,,,,,,,,,,,,,,,,,,,,,,,,,,,,,,,,,,,,,,,,,,,,,,,,,,,,,,,,,,,,,,,,,,,,,4,0,4,0,1,,,,,,,,,,,,,
,,,,,,,,,60ab320c7942de077d57299a,20,Mężczyzna,2022-06-04_10h12.16.727,task,2021.1.4,Win32,119.3887297,628b806c463b948bc644b84f,629b0d84c8779603b71301c9,,,,,,,,,,,,,,,,,,,,,,,,0,,,,,,,,,,Task,25,(10/5) - 2,0,,,,,,,,,,,,,,,,,,,1,,,,,,,,,,,,,,,,,,,,,,,"[""0""]",1,[2.805100000023799],0,0,0,24,1,,,,,,,,,,,,,,,,,,
,,,,,,,,,60ab320c7942de077d57299a,20,Mężczyzna,2022-06-04_10h12.16.727,task,2021.1.4,Win32,119.3887297,628b806c463b948bc644b84f,629b0d84c8779603b71301c9,,,,,,,,,,,X V Q F H G B L J M P D K C T S W R N Z,,,,,,,,,,,,,,,,,,,,,,,,,,,,,,,,,,,,,,,,,,,,,,,,,,,,,,,,,,,,,,,,,,,,,,,,,,,,5,0,5,0,1,,,,,,,,,,,,,
,,,,,,,,,60ab320c7942de077d57299a,20,Mężczyzna,2022-06-04_10h12.16.727,task,2021.1.4,Win32,119.3887297,628b806c463b948bc644b84f,629b0d84c8779603b71301c9,,,,,,,,,,,,,,,,,,,,,,,,,,,,,,,,,,,,,,,,,,,,,,,,,,,,,,,,,,,,,,,,,,,,,,,,,,,,,,,,,,,,,,,,,,,,mrhhzh,"[""m"",""r"",""h"",""h"",""z"",""h""]",0,"[1.6513000000119291,1.93720000004771,2.22560000002386,2.383800000011888,2.6388000000118836,2.7508000000119637,3.4408000000119046]",1,MRHHZH,4,0,4,0,1,,
,,,,,,,,,60ab320c7942de077d57299a,20,Mężczyzna,2022-06-04_10h12.16.727,task,2021.1.4,Win32,119.3887297,628b806c463b948bc644b84f,629b0d84c8779603b71301c9,,,,,,,,,,,,,,,,,,,,,,,,2,,,,,,,,,,Task,10,(2x5) - 8,2,,,,,,,,,,,,,,,,,,,1,,,,,,,,,,,,,,,,,,,,,,,"[""2""]",1,[1.3419999999999845],0,0,0,9,1,,,,,,,,,,,,,,,,,,
,,,,,,,,,60ab320c7942de077d57299a,20,Mężczyzna,2022-06-04_10h12.16.727,task,2021.1.4,Win32,119.3887297,628b806c463b948bc644b84f,629b0d84c8779603b71301c9,,,,,,,,,,,X V Q F H G B L J M P D K C T S W R N Z,,,,,,,,,,,,,,,,,,,,,,,,,,,,,,,,,,,,,,,,,,,,,,,,,,,,,,,,,,,,,,,,,,,,,,,,,,,,0,0,0,0,1,,,,,,,,,,,,,
,,,,,,,,,60ab320c7942de077d57299a,20,Mężczyzna,2022-06-04_10h12.16.727,task,2021.1.4,Win32,119.3887297,628b806c463b948bc644b84f,629b0d84c8779603b71301c9,,,,,,,,,,,,,,,,,,,,,,,,7,,,,,,,,,,Task,14,(2x2) + 3,7,,,,,,,,,,,,,,,,,,,1,,,,,,,,,,,,,,,,,,,,,,,"[""7""]",1,[2.0835999999642354],0,0,0,13,1,,,,,,,,,,,,,,,,,,
,,,,,,,,,60ab320c7942de077d57299a,20,Mężczyzna,2022-06-04_10h12.16.727,task,2021.1.4,Win32,119.3887297,628b806c463b948bc644b84f,629b0d84c8779603b71301c9,,,,,,,,,,,X V Q F H G B L J M P D K C T S W R N Z,,,,,,,,,,,,,,,,,,,,,,,,,,,,,,,,,,,,,,,,,,,,,,,,,,,,,,,,,,,,,,,,,,,,,,,,,,,,1,0,1,0,1,,,,,,,,,,,,,
,,,,,,,,,60ab320c7942de077d57299a,20,Mężczyzna,2022-06-04_10h12.16.727,task,2021.1.4,Win32,119.3887297,628b806c463b948bc644b84f,629b0d84c8779603b71301c9,,,,,,,,,,,,,,,,,,,,,,,,0,,,,,,,,,,Task,17,(2x3) - 6,0,,,,,,,,,,,,,,,,,,,1,,,,,,,,,,,,,,,,,,,,,,,"[""0""]",1,[1.9206999999880736],0,0,0,16,1,,,,,,,,,,,,,,,,,,
,,,,,,,,,60ab320c7942de077d57299a,20,Mężczyzna,2022-06-04_10h12.16.727,task,2021.1.4,Win32,119.3887297,628b806c463b948bc644b84f,629b0d84c8779603b71301c9,,,,,,,,,,,X V Q F H G B L J M P D K C T S W R N Z,,,,,,,,,,,,,,,,,,,,,,,,,,,,,,,,,,,,,,,,,,,,,,,,,,,,,,,,,,,,,,,,,,,,,,,,,,,,2,0,2,0,1,,,,,,,,,,,,,
,,,,,,,,,60ab320c7942de077d57299a,20,Mężczyzna,2022-06-04_10h12.16.727,task,2021.1.4,Win32,119.3887297,628b806c463b948bc644b84f,629b0d84c8779603b71301c9,,,,,,,,,,,,,,,,,,,,,,,,7,,,,,,,,,,Task,6,(12/2) + 1,7,,,,,,,,,,,,,,,,,,,1,,,,,,,,,,,,,,,,,,,,,,,"[""7""]",1,[1.8559999999999945],0,0,0,5,1,,,,,,,,,,,,,,,,,,
,,,,,,,,,60ab320c7942de077d57299a,20,Mężczyzna,2022-06-04_10h12.16.727,task,2021.1.4,Win32,119.3887297,628b806c463b948bc644b84f,629b0d84c8779603b71301c9,,,,,,,,,,,X V Q F H G B L J M P D K C T S W R N Z,,,,,,,,,,,,,,,,,,,,,,,,,,,,,,,,,,,,,,,,,,,,,,,,,,,,,,,,,,,,,,,,,,,,,,,,,,,,3,0,3,0,1,,,,,,,,,,,,,
,,,,,,,,,60ab320c7942de077d57299a,20,Mężczyzna,2022-06-04_10h12.16.727,task,2021.1.4,Win32,119.3887297,628b806c463b948bc644b84f,629b0d84c8779603b71301c9,,,,,,,,,,,,,,,,,,,,,,,,3,,,,,,,,,,Task,27,(3/3) + 2,3,,,,,,,,,,,,,,,,,,,1,,,,,,,,,,,,,,,,,,,,,,,"[""3""]",1,[1.7970000000000255],0,0,0,26,1,,,,,,,,,,,,,,,,,,
,,,,,,,,,60ab320c7942de077d57299a,20,Mężczyzna,2022-06-04_10h12.16.727,task,2021.1.4,Win32,119.3887297,628b806c463b948bc644b84f,629b0d84c8779603b71301c9,,,,,,,,,,,X V Q F H G B L J M P D K C T S W R N Z,,,,,,,,,,,,,,,,,,,,,,,,,,,,,,,,,,,,,,,,,,,,,,,,,,,,,,,,,,,,,,,,,,,,,,,,,,,,4,0,4,0,1,,,,,,,,,,,,,
,,,,,,,,,60ab320c7942de077d57299a,20,Mężczyzna,2022-06-04_10h12.16.727,task,2021.1.4,Win32,119.3887297,628b806c463b948bc644b84f,629b0d84c8779603b71301c9,,,,,,,,,,,,,,,,,,,,,,,,1,,,,,,,,,,Task,18,(16/4) - 3,1,,,,,,,,,,,,,,,,,,,1,,,,,,,,,,,,,,,,,,,,,,,"[""1""]",1,[2.2484000000357582],0,0,0,17,1,,,,,,,,,,,,,,,,,,
,,,,,,,,,60ab320c7942de077d57299a,20,Mężczyzna,2022-06-04_10h12.16.727,task,2021.1.4,Win32,119.3887297,628b806c463b948bc644b84f,629b0d84c8779603b71301c9,,,,,,,,,,,X V Q F H G B L J M P D K C T S W R N Z,,,,,,,,,,,,,,,,,,,,,,,,,,,,,,,,,,,,,,,,,,,,,,,,,,,,,,,,,,,,,,,,,,,,,,,,,,,,5,0,5,0,1,,,,,,,,,,,,,
,,,,,,,,,60ab320c7942de077d57299a,20,Mężczyzna,2022-06-04_10h12.16.727,task,2021.1.4,Win32,119.3887297,628b806c463b948bc644b84f,629b0d84c8779603b71301c9,,,,,,,,,,,,,,,,,,,,,,,,,,,,,,,,,,Task,24,(2x2) + 5,9,,,,,,,,,,,,,,,,,,,0,,,,,,,,,,,,,,,,,,,,,,,,0,,0,0,0,23,1,,,,,,,,,,,,,,,,,,
,,,,,,,,,60ab320c7942de077d57299a,20,Mężczyzna,2022-06-04_10h12.16.727,task,2021.1.4,Win32,119.3887297,628b806c463b948bc644b84f,629b0d84c8779603b71301c9,,,,,,,,,,,,,,,,,,,,,,,,0,,,,,,,,,,Task,33,(1/1) - 1,0,,,,,,,,,,,,,,,,,,,1,,,,,,,,,,,,,,,,,,,,,,,"[""0""]",1,[1.4669000000357073],0,1,1,32,1,,,,,,,,,,,,,,,,,,
,,,,,,,,,60ab320c7942de077d57299a,20,Mężczyzna,2022-06-04_10h12.16.727,task,2021.1.4,Win32,119.3887297,628b806c463b948bc644b84f,629b0d84c8779603b71301c9,,,,,,,,,,,X V Q F H G B L J M P D K C T S W R N Z,,,,,,,,,,,,,,,,,,,,,,,,,,,,,,,,,,,,,,,,,,,,,,,,,,,,,,,,,,,,,,,,,,,,,,,,,,,,6,0,6,0,1,,,,,,,,,,,,,
,,,,,,,,,60ab320c7942de077d57299a,20,Mężczyzna,2022-06-04_10h12.16.727,task,2021.1.4,Win32,119.3887297,628b806c463b948bc644b84f,629b0d84c8779603b71301c9,,,,,,,,,,,,,,,,,,,,,,,,,,,,,,,,,,,,,,,,,,,,,,,,,,,,,,,,,,,,,,,,,,,,,,,,,,,,,,,,,,,,,,,,,,,,qbhhnbd,"[""q"",""b"",""h"",""h"",""n"",""b"",""d""]",0,"[2.158999999999992,2.5292000000476946,2.993400000035763,3.1538000000119837,3.415200000047662,3.6741000000238273,4.0869000000358255,5.640900000035799]",1,QBHHNBD,5,0,5,0,1,,
,,,,,,,,,60ab320c7942de077d57299a,20,Mężczyzna,2022-06-04_10h12.16.727,task,2021.1.4,Win32,119.3887297,628b806c463b948bc644b84f,629b0d84c8779603b71301c9,,,,,,,,,,,,,,,,,,,,,,,,8,,,,,,,,,,Task,39,(5x3) - 7,8,,,,,,,,,,,,,,,,,,,1,,,,,,,,,,,,,,,,,,,,,,,"[""8""]",1,[2.464899999976069],0,0,0,38,1,,,,,,,,,,,,,,,,,,
,,,,,,,,,60ab320c7942de077d57299a,20,Mężczyzna,2022-06-04_10h12.16.727,task,2021.1.4,Win32,119.3887297,628b806c463b948bc644b84f,629b0d84c8779603b71301c9,,,,,,,,,,,X V Q F H G B L J M P D K C T S W R N Z,,,,,,,,,,,,,,,,,,,,,,,,,,,,,,,,,,,,,,,,,,,,,,,,,,,,,,,,,,,,,,,,,,,,,,,,,,,,0,0,0,0,1,,,,,,,,,,,,,
,,,,,,,,,60ab320c7942de077d57299a,20,Mężczyzna,2022-06-04_10h12.16.727,task,2021.1.4,Win32,119.3887297,628b806c463b948bc644b84f,629b0d84c8779603b71301c9,,,,,,,,,,,,,,,,,,,,,,,,7,,,,,,,,,,Task,6,(12/2) + 1,7,,,,,,,,,,,,,,,,,,,1,,,,,,,,,,,,,,,,,,,,,,,"[""7""]",1,[1.6603000000119437],0,0,0,5,1,,,,,,,,,,,,,,,,,,
,,,,,,,,,60ab320c7942de077d57299a,20,Mężczyzna,2022-06-04_10h12.16.727,task,2021.1.4,Win32,119.3887297,628b806c463b948bc644b84f,629b0d84c8779603b71301c9,,,,,,,,,,,X V Q F H G B L J M P D K C T S W R N Z,,,,,,,,,,,,,,,,,,,,,,,,,,,,,,,,,,,,,,,,,,,,,,,,,,,,,,,,,,,,,,,,,,,,,,,,,,,,1,0,1,0,1,,,,,,,,,,,,,
,,,,,,,,,60ab320c7942de077d57299a,20,Mężczyzna,2022-06-04_10h12.16.727,task,2021.1.4,Win32,119.3887297,628b806c463b948bc644b84f,629b0d84c8779603b71301c9,,,,,,,,,,,,,,,,,,,,,,,,2,,,,,,,,,,Task,26,(2x9) - 16,2,,,,,,,,,,,,,,,,,,,1,,,,,,,,,,,,,,,,,,,,,,,"[""2""]",1,[2.7449000000357273],0,0,0,25,1,,,,,,,,,,,,,,,,,,
,,,,,,,,,60ab320c7942de077d57299a,20,Mężczyzna,2022-06-04_10h12.16.727,task,2021.1.4,Win32,119.3887297,628b806c463b948bc644b84f,629b0d84c8779603b71301c9,,,,,,,,,,,X V Q F H G B L J M P D K C T S W R N Z,,,,,,,,,,,,,,,,,,,,,,,,,,,,,,,,,,,,,,,,,,,,,,,,,,,,,,,,,,,,,,,,,,,,,,,,,,,,2,0,2,0,1,,,,,,,,,,,,,
,,,,,,,,,60ab320c7942de077d57299a,20,Mężczyzna,2022-06-04_10h12.16.727,task,2021.1.4,Win32,119.3887297,628b806c463b948bc644b84f,629b0d84c8779603b71301c9,,,,,,,,,,,,,,,,,,,,,,,,2,,,,,,,,,,Task,26,(2x9) - 16,2,,,,,,,,,,,,,,,,,,,1,,,,,,,,,,,,,,,,,,,,,,,"[""2""]",1,[1.3435999999642263],0,0,0,25,1,,,,,,,,,,,,,,,,,,
,,,,,,,,,60ab320c7942de077d57299a,20,Mężczyzna,2022-06-04_10h12.16.727,task,2021.1.4,Win32,119.3887297,628b806c463b948bc644b84f,629b0d84c8779603b71301c9,,,,,,,,,,,X V Q F H G B L J M P D K C T S W R N Z,,,,,,,,,,,,,,,,,,,,,,,,,,,,,,,,,,,,,,,,,,,,,,,,,,,,,,,,,,,,,,,,,,,,,,,,,,,,3,0,3,0,1,,,,,,,,,,,,,
,,,,,,,,,60ab320c7942de077d57299a,20,Mężczyzna,2022-06-04_10h12.16.727,task,2021.1.4,Win32,119.3887297,628b806c463b948bc644b84f,629b0d84c8779603b71301c9,,,,,,,,,,,,,,,,,,,,,,,,1,,,,,,,,,,Task,18,(16/4) - 3,1,,,,,,,,,,,,,,,,,,,1,,,,,,,,,,,,,,,,,,,,,,,"[""1""]",1,[1.76609999996424],0,0,0,17,1,,,,,,,,,,,,,,,,,,
,,,,,,,,,60ab320c7942de077d57299a,20,Mężczyzna,2022-06-04_10h12.16.727,task,2021.1.4,Win32,119.3887297,628b806c463b948bc644b84f,629b0d84c8779603b71301c9,,,,,,,,,,,X V Q F H G B L J M P D K C T S W R N Z,,,,,,,,,,,,,,,,,,,,,,,,,,,,,,,,,,,,,,,,,,,,,,,,,,,,,,,,,,,,,,,,,,,,,,,,,,,,4,0,4,0,1,,,,,,,,,,,,,
,,,,,,,,,60ab320c7942de077d57299a,20,Mężczyzna,2022-06-04_10h12.16.727,task,2021.1.4,Win32,119.3887297,628b806c463b948bc644b84f,629b0d84c8779603b71301c9,,,,,,,,,,,,,,,,,,,,,,,,7,,,,,,,,,,Task,38,(4x6) - 17,7,,,,,,,,,,,,,,,,,,,1,,,,,,,,,,,,,,,,,,,,,,,"[""7""]",1,[2.1491999999881273],0,0,0,37,1,,,,,,,,,,,,,,,,,,
,,,,,,,,,60ab320c7942de077d57299a,20,Mężczyzna,2022-06-04_10h12.16.727,task,2021.1.4,Win32,119.3887297,628b806c463b948bc644b84f,629b0d84c8779603b71301c9,,,,,,,,,,,X V Q F H G B L J M P D K C T S W R N Z,,,,,,,,,,,,,,,,,,,,,,,,,,,,,,,,,,,,,,,,,,,,,,,,,,,,,,,,,,,,,,,,,,,,,,,,,,,,5,0,5,0,1,,,,,,,,,,,,,
,,,,,,,,,60ab320c7942de077d57299a,20,Mężczyzna,2022-06-04_10h12.16.727,task,2021.1.4,Win32,119.3887297,628b806c463b948bc644b84f,629b0d84c8779603b71301c9,,,,,,,,,,,,,,,,,,,,,,,,8,,,,,,,,,,Task,32,(8/2) + 4,8,,,,,,,,,,,,,,,,,,,1,,,,,,,,,,,,,,,,,,,,,,,"[""8""]",1,[1.9713999999761427],0,0,0,31,1,,,,,,,,,,,,,,,,,,
,,,,,,,,,60ab320c7942de077d57299a,20,Mężczyzna,2022-06-04_10h12.16.727,task,2021.1.4,Win32,119.3887297,628b806c463b948bc644b84f,629b0d84c8779603b71301c9,,,,,,,,,,,X V Q F H G B L J M P D K C T S W R N Z,,,,,,,,,,,,,,,,,,,,,,,,,,,,,,,,,,,,,,,,,,,,,,,,,,,,,,,,,,,,,,,,,,,,,,,,,,,,6,0,6,0,1,,,,,,,,,,,,,
,,,,,,,,,60ab320c7942de077d57299a,20,Mężczyzna,2022-06-04_10h12.16.727,task,2021.1.4,Win32,119.3887297,628b806c463b948bc644b84f,629b0d84c8779603b71301c9,,,,,,,,,,,,,,,,,,,,,,,,7,,,,,,,,,,Task,6,(12/2) + 1,7,,,,,,,,,,,,,,,,,,,1,,,,,,,,,,,,,,,,,,,,,,,"[""7""]",1,[2.442099999964171],0,0,0,5,1,,,,,,,,,,,,,,,,,,
,,,,,,,,,60ab320c7942de077d57299a,20,Mężczyzna,2022-06-04_10h12.16.727,task,2021.1.4,Win32,119.3887297,628b806c463b948bc644b84f,629b0d84c8779603b71301c9,,,,,,,,,,,X V Q F H G B L J M P D K C T S W R N Z,,,,,,,,,,,,,,,,,,,,,,,,,,,,,,,,,,,,,,,,,,,,,,,,,,,,,,,,,,,,,,,,,,,,,,,,,,,,7,0,7,0,1,,,,,,,,,,,,,
,,,,,,,,,60ab320c7942de077d57299a,20,Mężczyzna,2022-06-04_10h12.16.727,task,2021.1.4,Win32,119.3887297,628b806c463b948bc644b84f,629b0d84c8779603b71301c9,,,,,,,,,,,,,,,,,,,,,,,,,,,,,,,,,,,,,,,,,,,,,,,,,,,,,,,,,,,,,,,,,,,,,,,,,,,,,,,,,,,,,,,,,,,,qzmgkglk,"[""q"",""z"",""m"",""g"",""k"",""g"",""l"",""k""]",0,"[2.290099999964241,2.6166999999881,3.0128000000119073,3.6370000000000573,4.12680000001194,4.707099999964271,5.604699999988043,6.633699999988153,8.449399999976208]",1,QZMGKGLK,6,0,6,0,1,,
,,,,,,,,,60ab320c7942de077d57299a,20,Mężczyzna,2022-06-04_10h12.16.727,task,2021.1.4,Win32,119.3887297,628b806c463b948bc644b84f,629b0d84c8779603b71301c9,,,,,,,,,,,,,,,,,,,,,,,,6,,,,,,,,,,Task,37,(3/3) + 5,6,,,,,,,,,,,,,,,,,,,1,,,,,,,,,,,,,,,,,,,,,,,"[""6""]",1,[2.2968999999761763],0,0,0,36,1,,,,,,,,,,,,,,,,,,
,,,,,,,,,60ab320c7942de077d57299a,20,Mężczyzna,2022-06-04_10h12.16.727,task,2021.1.4,Win32,119.3887297,628b806c463b948bc644b84f,629b0d84c8779603b71301c9,,,,,,,,,,,X V Q F H G B L J M P D K C T S W R N Z,,,,,,,,,,,,,,,,,,,,,,,,,,,,,,,,,,,,,,,,,,,,,,,,,,,,,,,,,,,,,,,,,,,,,,,,,,,,0,0,0,0,1,,,,,,,,,,,,,
,,,,,,,,,60ab320c7942de077d57299a,20,Mężczyzna,2022-06-04_10h12.16.727,task,2021.1.4,Win32,119.3887297,628b806c463b948bc644b84f,629b0d84c8779603b71301c9,,,,,,,,,,,,,,,,,,,,,,,,8,,,,,,,,,,Task,23,(2x3) + 2,8,,,,,,,,,,,,,,,,,,,1,,,,,,,,,,,,,,,,,,,,,,,"[""8""]",1,[1.946599999964178],0,0,0,22,1,,,,,,,,,,,,,,,,,,
,,,,,,,,,60ab320c7942de077d57299a,20,Mężczyzna,2022-06-04_10h12.16.727,task,2021.1.4,Win32,119.3887297,628b806c463b948bc644b84f,629b0d84c8779603b71301c9,,,,,,,,,,,X V Q F H G B L J M P D K C T S W R N Z,,,,,,,,,,,,,,,,,,,,,,,,,,,,,,,,,,,,,,,,,,,,,,,,,,,,,,,,,,,,,,,,,,,,,,,,,,,,1,0,1,0,1,,,,,,,,,,,,,
,,,,,,,,,60ab320c7942de077d57299a,20,Mężczyzna,2022-06-04_10h12.16.727,task,2021.1.4,Win32,119.3887297,628b806c463b948bc644b84f,629b0d84c8779603b71301c9,,,,,,,,,,,,,,,,,,,,,,,,1,,,,,,,,,,Task,9,(3x7) - 20,1,,,,,,,,,,,,,,,,,,,1,,,,,,,,,,,,,,,,,,,,,,,"[""1""]",1,[1.3317000000477037],0,0,0,8,1,,,,,,,,,,,,,,,,,,
,,,,,,,,,60ab320c7942de077d57299a,20,Mężczyzna,2022-06-04_10h12.16.727,task,2021.1.4,Win32,119.3887297,628b806c463b948bc644b84f,629b0d84c8779603b71301c9,,,,,,,,,,,X V Q F H G B L J M P D K C T S W R N Z,,,,,,,,,,,,,,,,,,,,,,,,,,,,,,,,,,,,,,,,,,,,,,,,,,,,,,,,,,,,,,,,,,,,,,,,,,,,2,0,2,0,1,,,,,,,,,,,,,
,,,,,,,,,60ab320c7942de077d57299a,20,Mężczyzna,2022-06-04_10h12.16.727,task,2021.1.4,Win32,119.3887297,628b806c463b948bc644b84f,629b0d84c8779603b71301c9,,,,,,,,,,,,,,,,,,,,,,,,6,,,,,,,,,,Task,11,(18/3) - 2,4,,,,,,,,,,,,,,,,,,,0,,,,,,,,,,,,,,,,,,,,,,,"[""6""]",0,[2.4831000000237964],0,0,0,10,1,,,,,,,,,,,,,,,,,,
,,,,,,,,,60ab320c7942de077d57299a,20,Mężczyzna,2022-06-04_10h12.16.727,task,2021.1.4,Win32,119.3887297,628b806c463b948bc644b84f,629b0d84c8779603b71301c9,,,,,,,,,,,,,,,,,,,,,,,,9,,,,,,,,,,Task,31,(4/2) + 5,7,,,,,,,,,,,,,,,,,,,0,,,,,,,,,,,,,,,,,,,,,,,"[""9""]",0,[3.291399999976079],0,1,1,30,1,,,,,,,,,,,,,,,,,,
,,,,,,,,,60ab320c7942de077d57299a,20,Mężczyzna,2022-06-04_10h12.16.727,task,2021.1.4,Win32,119.3887297,628b806c463b948bc644b84f,629b0d84c8779603b71301c9,,,,,,,,,,,,,,,,,,,,,,,,5,,,,,,,,,,Task,1,(12/6) - 1,1,,,,,,,,,,,,,,,,,,,0,,,,,,,,,,,,,,,,,,,,,,,"[""5""]",0,[2.202900000035811],0,2,2,0,1,,,,,,,,,,,,,,,,,,
,,,,,,,,,60ab320c7942de077d57299a,20,Mężczyzna,2022-06-04_10h12.16.727,task,2021.1.4,Win32,119.3887297,628b806c463b948bc644b84f,629b0d84c8779603b71301c9,,,,,,,,,,,,,,,,,,,,,,,,4,,,,,,,,,,Task,4,(1x5) - 1,4,,,,,,,,,,,,,,,,,,,1,,,,,,,,,,,,,,,,,,,,,,,"[""4""]",1,[2.8225999999641544],0,3,3,3,1,,,,,,,,,,,,,,,,,,
,,,,,,,,,60ab320c7942de077d57299a,20,Mężczyzna,2022-06-04_10h12.16.727,task,2021.1.4,Win32,119.3887297,628b806c463b948bc644b84f,629b0d84c8779603b71301c9,,,,,,,,,,,X V Q F H G B L J M P D K C T S W R N Z,,,,,,,,,,,,,,,,,,,,,,,,,,,,,,,,,,,,,,,,,,,,,,,,,,,,,,,,,,,,,,,,,,,,,,,,,,,,3,0,3,0,1,,,,,,,,,,,,,
,,,,,,,,,60ab320c7942de077d57299a,20,Mężczyzna,2022-06-04_10h12.16.727,task,2021.1.4,Win32,119.3887297,628b806c463b948bc644b84f,629b0d84c8779603b71301c9,,,,,,,,,,,,,,,,,,,,,,,,1,,,,,,,,,,Task,1,(12/6) - 1,1,,,,,,,,,,,,,,,,,,,1,,,,,,,,,,,,,,,,,,,,,,,"[""1""]",1,[2.2398000000118827],0,0,0,0,1,,,,,,,,,,,,,,,,,,
