key_resp_15.keys,key_resp_15.rt,key_resp_13.keys,key_resp_13.corr,ranodm_loop.thisRepN,ranodm_loop.thisTrialN,ranodm_loop.thisN,ranodm_loop.thisIndex,ranodm_loop.ran,participant,Wiek*,Płeć,date,expName,psychopyVersion,OS,frameRate,study_id,session,key_resp_13.rt,key_resp_16.keys,key_resp_16.rt,key_resp_4.keys,key_resp_4.rt,next_letter.thisRepN,next_letter.thisTrialN,next_letter.thisN,next_letter.thisIndex,next_letter.ran,letter,simple_recall,key_resp_5.keys,key_resp_5.rt,simple_recall_corr,simple_recall_corrkeys,next_level.thisRepN,next_level.thisTrialN,next_level.thisN,next_level.thisIndex,next_level.ran,key_resp_2.keys,key_resp_2.rt,digit_answer,key_resp.keys,key_resp.corr,key_resp.rt,RT_list,next_equation.thisRepN,next_equation.thisTrialN,next_equation.thisN,next_equation.thisIndex,next_equation.ran,Task,Trial,Problem,Operation_answer,processing_score,sumRT,meanRT,sumdiff,sd,RT,key_resp_3.keys,key_resp_3.rt,repeat_practice.thisRepN,repeat_practice.thisTrialN,repeat_practice.thisN,repeat_practice.thisIndex,repeat_practice.ran,key_resp_6.keys,key_resp_6.rt,key_resp_11.keys,key_resp_11.corr,key_resp_11.rt,operation_correct,repeat_if_wrong_prac.thisRepN,repeat_if_wrong_prac.thisTrialN,repeat_if_wrong_prac.thisN,repeat_if_wrong_prac.thisIndex,repeat_if_wrong_prac.ran,span_size_prac.thisRepN,span_size_prac.thisTrialN,span_size_prac.thisN,span_size_prac.thisIndex,span_size_prac.ran,complex_recall_practice,key_resp_9.keys,key_resp_9.corr,key_resp_9.rt,complex_prac_corr,span_recall_prac.thisRepN,span_recall_prac.thisTrialN,span_recall_prac.thisN,span_recall_prac.thisIndex,span_recall_prac.ran,key_resp_10.keys,key_resp_10.rt,key_resp_7.keys,key_resp_7.corr,key_resp_7.rt,repeat_if_wrong.thisRepN,repeat_if_wrong.thisTrialN,repeat_if_wrong.thisN,repeat_if_wrong.thisIndex,repeat_if_wrong.ran,span_size.thisRepN,span_size.thisTrialN,span_size.thisN,span_size.thisIndex,span_size.ran,complex_recall,key_resp_8.keys,key_resp_8.corr,key_resp_8.rt,complex_recall_corr,complex_recall_corrkeys,span_recall.thisRepN,span_recall.thisTrialN,span_recall.thisN,span_recall.thisIndex,span_recall.ran,key_resp_12.keys,key_resp_12.rt
space,3.848,,0,0,0,0,0,1,60accfb2fbc5535b37a90903,24,Mężczyzna,2022-06-04_08h50.25.201,task,2021.1.4,Win32,59.95203837,628b806c463b948bc644b84f,629b00900f64a7544c597aee,,,,,,,,,,,,,,,,,,,,,,,,,,,,,,,,,,,,,,,,,,,,,,,,,,,,,,,,,,,,,,,,,,,,,,,,,,,,,,,,,,,,,,,,,,,,,,,,,,,,,,,,
,,"[""period""]",0,1,0,1,0,1,60accfb2fbc5535b37a90903,24,Mężczyzna,2022-06-04_08h50.25.201,task,2021.1.4,Win32,59.95203837,628b806c463b948bc644b84f,629b00900f64a7544c597aee,[1.1039999999999992],,,,,,,,,,,,,,,,,,,,,,,,,,,,,,,,,,,,,,,,,,,,,,,,,,,,,,,,,,,,,,,,,,,,,,,,,,,,,,,,,,,,,,,,,,,,,,,,,,,,,,,
,,"[""comma"",""comma"",""period""]",0,2,0,2,0,1,60accfb2fbc5535b37a90903,24,Mężczyzna,2022-06-04_08h50.25.201,task,2021.1.4,Win32,59.95203837,628b806c463b948bc644b84f,629b00900f64a7544c597aee,"[0.3230000000000004,1.7349999999999994,1.75]",,,,,,,,,,,,,,,,,,,,,,,,,,,,,,,,,,,,,,,,,,,,,,,,,,,,,,,,,,,,,,,,,,,,,,,,,,,,,,,,,,,,,,,,,,,,,,,,,,,,,,,
,,"[""comma"",""period""]",0,3,0,3,0,1,60accfb2fbc5535b37a90903,24,Mężczyzna,2022-06-04_08h50.25.201,task,2021.1.4,Win32,59.95203837,628b806c463b948bc644b84f,629b00900f64a7544c597aee,"[0.5700000000000003,0.570999999999998]",,,,,,,,,,,,,,,,,,,,,,,,,,,,,,,,,,,,,,,,,,,,,,,,,,,,,,,,,,,,,,,,,,,,,,,,,,,,,,,,,,,,,,,,,,,,,,,,,,,,,,,
,,"[""comma"",""period""]",0,4,0,4,0,1,60accfb2fbc5535b37a90903,24,Mężczyzna,2022-06-04_08h50.25.201,task,2021.1.4,Win32,59.95203837,628b806c463b948bc644b84f,629b00900f64a7544c597aee,"[0.3159999999999954,0.31700000000000017]",,,,,,,,,,,,,,,,,,,,,,,,,,,,,,,,,,,,,,,,,,,,,,,,,,,,,,,,,,,,,,,,,,,,,,,,,,,,,,,,,,,,,,,,,,,,,,,,,,,,,,,
,,"[""comma"",""period""]",0,5,0,5,0,1,60accfb2fbc5535b37a90903,24,Mężczyzna,2022-06-04_08h50.25.201,task,2021.1.4,Win32,59.95203837,628b806c463b948bc644b84f,629b00900f64a7544c597aee,"[0.3359999999999985,0.3359999999999985]",,,,,,,,,,,,,,,,,,,,,,,,,,,,,,,,,,,,,,,,,,,,,,,,,,,,,,,,,,,,,,,,,,,,,,,,,,,,,,,,,,,,,,,,,,,,,,,,,,,,,,,
,,"[""comma"",""period""]",0,6,0,6,0,1,60accfb2fbc5535b37a90903,24,Mężczyzna,2022-06-04_08h50.25.201,task,2021.1.4,Win32,59.95203837,628b806c463b948bc644b84f,629b00900f64a7544c597aee,"[0.3020000000000067,0.3190000000000026]",,,,,,,,,,,,,,,,,,,,,,,,,,,,,,,,,,,,,,,,,,,,,,,,,,,,,,,,,,,,,,,,,,,,,,,,,,,,,,,,,,,,,,,,,,,,,,,,,,,,,,,
,,"[""comma"",""period""]",0,7,0,7,0,1,60accfb2fbc5535b37a90903,24,Mężczyzna,2022-06-04_08h50.25.201,task,2021.1.4,Win32,59.95203837,628b806c463b948bc644b84f,629b00900f64a7544c597aee,"[0.27199999999999136,0.29699999999999704]",,,,,,,,,,,,,,,,,,,,,,,,,,,,,,,,,,,,,,,,,,,,,,,,,,,,,,,,,,,,,,,,,,,,,,,,,,,,,,,,,,,,,,,,,,,,,,,,,,,,,,,
,,"[""comma""]",0,8,0,8,0,1,60accfb2fbc5535b37a90903,24,Mężczyzna,2022-06-04_08h50.25.201,task,2021.1.4,Win32,59.95203837,628b806c463b948bc644b84f,629b00900f64a7544c597aee,[0.23100000000000875],,,,,,,,,,,,,,,,,,,,,,,,,,,,,,,,,,,,,,,,,,,,,,,,,,,,,,,,,,,,,,,,,,,,,,,,,,,,,,,,,,,,,,,,,,,,,,,,,,,,,,,
,,"[""period""]",0,9,0,9,0,1,60accfb2fbc5535b37a90903,24,Mężczyzna,2022-06-04_08h50.25.201,task,2021.1.4,Win32,59.95203837,628b806c463b948bc644b84f,629b00900f64a7544c597aee,[0.21699999999999875],,,,,,,,,,,,,,,,,,,,,,,,,,,,,,,,,,,,,,,,,,,,,,,,,,,,,,,,,,,,,,,,,,,,,,,,,,,,,,,,,,,,,,,,,,,,,,,,,,,,,,,
,,"[""comma""]",0,10,0,10,0,1,60accfb2fbc5535b37a90903,24,Mężczyzna,2022-06-04_08h50.25.201,task,2021.1.4,Win32,59.95203837,628b806c463b948bc644b84f,629b00900f64a7544c597aee,[0.13700000000000045],,,,,,,,,,,,,,,,,,,,,,,,,,,,,,,,,,,,,,,,,,,,,,,,,,,,,,,,,,,,,,,,,,,,,,,,,,,,,,,,,,,,,,,,,,,,,,,,,,,,,,,
,,"[""period"",""comma""]",0,11,0,11,0,1,60accfb2fbc5535b37a90903,24,Mężczyzna,2022-06-04_08h50.25.201,task,2021.1.4,Win32,59.95203837,628b806c463b948bc644b84f,629b00900f64a7544c597aee,"[0.12199999999999989,0.12300000000000466]",,,,,,,,,,,,,,,,,,,,,,,,,,,,,,,,,,,,,,,,,,,,,,,,,,,,,,,,,,,,,,,,,,,,,,,,,,,,,,,,,,,,,,,,,,,,,,,,,,,,,,,
,,"[""period"",""comma""]",0,12,0,12,0,1,60accfb2fbc5535b37a90903,24,Mężczyzna,2022-06-04_08h50.25.201,task,2021.1.4,Win32,59.95203837,628b806c463b948bc644b84f,629b00900f64a7544c597aee,"[0.05299999999999727,0.07099999999999795]",,,,,,,,,,,,,,,,,,,,,,,,,,,,,,,,,,,,,,,,,,,,,,,,,,,,,,,,,,,,,,,,,,,,,,,,,,,,,,,,,,,,,,,,,,,,,,,,,,,,,,,
,,"[""period""]",0,13,0,13,0,1,60accfb2fbc5535b37a90903,24,Mężczyzna,2022-06-04_08h50.25.201,task,2021.1.4,Win32,59.95203837,628b806c463b948bc644b84f,629b00900f64a7544c597aee,[0.21600000000000819],,,,,,,,,,,,,,,,,,,,,,,,,,,,,,,,,,,,,,,,,,,,,,,,,,,,,,,,,,,,,,,,,,,,,,,,,,,,,,,,,,,,,,,,,,,,,,,,,,,,,,,
,,"[""period""]",0,14,0,14,0,1,60accfb2fbc5535b37a90903,24,Mężczyzna,2022-06-04_08h50.25.201,task,2021.1.4,Win32,59.95203837,628b806c463b948bc644b84f,629b00900f64a7544c597aee,[0.21399999999999864],,,,,,,,,,,,,,,,,,,,,,,,,,,,,,,,,,,,,,,,,,,,,,,,,,,,,,,,,,,,,,,,,,,,,,,,,,,,,,,,,,,,,,,,,,,,,,,,,,,,,,,
,,"[""period""]",0,15,0,15,0,1,60accfb2fbc5535b37a90903,24,Mężczyzna,2022-06-04_08h50.25.201,task,2021.1.4,Win32,59.95203837,628b806c463b948bc644b84f,629b00900f64a7544c597aee,[0.20399999999999352],,,,,,,,,,,,,,,,,,,,,,,,,,,,,,,,,,,,,,,,,,,,,,,,,,,,,,,,,,,,,,,,,,,,,,,,,,,,,,,,,,,,,,,,,,,,,,,,,,,,,,,
,,"[""period""]",0,16,0,16,0,1,60accfb2fbc5535b37a90903,24,Mężczyzna,2022-06-04_08h50.25.201,task,2021.1.4,Win32,59.95203837,628b806c463b948bc644b84f,629b00900f64a7544c597aee,[0.16800000000000637],,,,,,,,,,,,,,,,,,,,,,,,,,,,,,,,,,,,,,,,,,,,,,,,,,,,,,,,,,,,,,,,,,,,,,,,,,,,,,,,,,,,,,,,,,,,,,,,,,,,,,,
,,"[""comma""]",0,17,0,17,0,1,60accfb2fbc5535b37a90903,24,Mężczyzna,2022-06-04_08h50.25.201,task,2021.1.4,Win32,59.95203837,628b806c463b948bc644b84f,629b00900f64a7544c597aee,[0.1880000000000024],,,,,,,,,,,,,,,,,,,,,,,,,,,,,,,,,,,,,,,,,,,,,,,,,,,,,,,,,,,,,,,,,,,,,,,,,,,,,,,,,,,,,,,,,,,,,,,,,,,,,,,
,,"[""comma""]",0,18,0,18,0,1,60accfb2fbc5535b37a90903,24,Mężczyzna,2022-06-04_08h50.25.201,task,2021.1.4,Win32,59.95203837,628b806c463b948bc644b84f,629b00900f64a7544c597aee,[0.10300000000000864],,,,,,,,,,,,,,,,,,,,,,,,,,,,,,,,,,,,,,,,,,,,,,,,,,,,,,,,,,,,,,,,,,,,,,,,,,,,,,,,,,,,,,,,,,,,,,,,,,,,,,,
,,"[""comma"",""period""]",0,19,0,19,0,1,60accfb2fbc5535b37a90903,24,Mężczyzna,2022-06-04_08h50.25.201,task,2021.1.4,Win32,59.95203837,628b806c463b948bc644b84f,629b00900f64a7544c597aee,"[1.2190000000000083,1.2190000000000083]",,,,,,,,,,,,,,,,,,,,,,,,,,,,,,,,,,,,,,,,,,,,,,,,,,,,,,,,,,,,,,,,,,,,,,,,,,,,,,,,,,,,,,,,,,,,,,,,,,,,,,,
,,"[""comma""]",0,20,0,20,0,1,60accfb2fbc5535b37a90903,24,Mężczyzna,2022-06-04_08h50.25.201,task,2021.1.4,Win32,59.95203837,628b806c463b948bc644b84f,629b00900f64a7544c597aee,[0.5150000000000006],,,,,,,,,,,,,,,,,,,,,,,,,,,,,,,,,,,,,,,,,,,,,,,,,,,,,,,,,,,,,,,,,,,,,,,,,,,,,,,,,,,,,,,,,,,,,,,,,,,,,,,
,,"[""period""]",0,21,0,21,0,1,60accfb2fbc5535b37a90903,24,Mężczyzna,2022-06-04_08h50.25.201,task,2021.1.4,Win32,59.95203837,628b806c463b948bc644b84f,629b00900f64a7544c597aee,[0.27300000000001035],,,,,,,,,,,,,,,,,,,,,,,,,,,,,,,,,,,,,,,,,,,,,,,,,,,,,,,,,,,,,,,,,,,,,,,,,,,,,,,,,,,,,,,,,,,,,,,,,,,,,,,
,,"[""period""]",0,22,0,22,0,1,60accfb2fbc5535b37a90903,24,Mężczyzna,2022-06-04_08h50.25.201,task,2021.1.4,Win32,59.95203837,628b806c463b948bc644b84f,629b00900f64a7544c597aee,[0.22999999999998977],,,,,,,,,,,,,,,,,,,,,,,,,,,,,,,,,,,,,,,,,,,,,,,,,,,,,,,,,,,,,,,,,,,,,,,,,,,,,,,,,,,,,,,,,,,,,,,,,,,,,,,
,,"[""comma"",""comma""]",0,23,0,23,0,1,60accfb2fbc5535b37a90903,24,Mężczyzna,2022-06-04_08h50.25.201,task,2021.1.4,Win32,59.95203837,628b806c463b948bc644b84f,629b00900f64a7544c597aee,"[0.2990000000000066,1.7190000000000083]",,,,,,,,,,,,,,,,,,,,,,,,,,,,,,,,,,,,,,,,,,,,,,,,,,,,,,,,,,,,,,,,,,,,,,,,,,,,,,,,,,,,,,,,,,,,,,,,,,,,,,,
,,,0,24,0,24,0,1,60accfb2fbc5535b37a90903,24,Mężczyzna,2022-06-04_08h50.25.201,task,2021.1.4,Win32,59.95203837,628b806c463b948bc644b84f,629b00900f64a7544c597aee,,,,,,,,,,,,,,,,,,,,,,,,,,,,,,,,,,,,,,,,,,,,,,,,,,,,,,,,,,,,,,,,,,,,,,,,,,,,,,,,,,,,,,,,,,,,,,,,,,,,,,,,
,,"[""comma""]",0,25,0,25,0,1,60accfb2fbc5535b37a90903,24,Mężczyzna,2022-06-04_08h50.25.201,task,2021.1.4,Win32,59.95203837,628b806c463b948bc644b84f,629b00900f64a7544c597aee,[0.0379999999999967],,,,,,,,,,,,,,,,,,,,,,,,,,,,,,,,,,,,,,,,,,,,,,,,,,,,,,,,,,,,,,,,,,,,,,,,,,,,,,,,,,,,,,,,,,,,,,,,,,,,,,,
,,"[""comma""]",0,26,0,26,0,1,60accfb2fbc5535b37a90903,24,Mężczyzna,2022-06-04_08h50.25.201,task,2021.1.4,Win32,59.95203837,628b806c463b948bc644b84f,629b00900f64a7544c597aee,[0.26900000000000546],,,,,,,,,,,,,,,,,,,,,,,,,,,,,,,,,,,,,,,,,,,,,,,,,,,,,,,,,,,,,,,,,,,,,,,,,,,,,,,,,,,,,,,,,,,,,,,,,,,,,,,
,,"[""comma""]",0,27,0,27,0,1,60accfb2fbc5535b37a90903,24,Mężczyzna,2022-06-04_08h50.25.201,task,2021.1.4,Win32,59.95203837,628b806c463b948bc644b84f,629b00900f64a7544c597aee,[0.2710000000000008],,,,,,,,,,,,,,,,,,,,,,,,,,,,,,,,,,,,,,,,,,,,,,,,,,,,,,,,,,,,,,,,,,,,,,,,,,,,,,,,,,,,,,,,,,,,,,,,,,,,,,,
,,"[""comma""]",0,28,0,28,0,1,60accfb2fbc5535b37a90903,24,Mężczyzna,2022-06-04_08h50.25.201,task,2021.1.4,Win32,59.95203837,628b806c463b948bc644b84f,629b00900f64a7544c597aee,[0.30100000000000193],,,,,,,,,,,,,,,,,,,,,,,,,,,,,,,,,,,,,,,,,,,,,,,,,,,,,,,,,,,,,,,,,,,,,,,,,,,,,,,,,,,,,,,,,,,,,,,,,,,,,,,
,,"[""comma""]",0,29,0,29,0,1,60accfb2fbc5535b37a90903,24,Mężczyzna,2022-06-04_08h50.25.201,task,2021.1.4,Win32,59.95203837,628b806c463b948bc644b84f,629b00900f64a7544c597aee,[0.2710000000000008],,,,,,,,,,,,,,,,,,,,,,,,,,,,,,,,,,,,,,,,,,,,,,,,,,,,,,,,,,,,,,,,,,,,,,,,,,,,,,,,,,,,,,,,,,,,,,,,,,,,,,,
,,"[""comma""]",0,30,0,30,0,1,60accfb2fbc5535b37a90903,24,Mężczyzna,2022-06-04_08h50.25.201,task,2021.1.4,Win32,59.95203837,628b806c463b948bc644b84f,629b00900f64a7544c597aee,[0.34900000000000375],,,,,,,,,,,,,,,,,,,,,,,,,,,,,,,,,,,,,,,,,,,,,,,,,,,,,,,,,,,,,,,,,,,,,,,,,,,,,,,,,,,,,,,,,,,,,,,,,,,,,,,
,,"[""comma""]",0,31,0,31,0,1,60accfb2fbc5535b37a90903,24,Mężczyzna,2022-06-04_08h50.25.201,task,2021.1.4,Win32,59.95203837,628b806c463b948bc644b84f,629b00900f64a7544c597aee,[0.45400000000000773],,,,,,,,,,,,,,,,,,,,,,,,,,,,,,,,,,,,,,,,,,,,,,,,,,,,,,,,,,,,,,,,,,,,,,,,,,,,,,,,,,,,,,,,,,,,,,,,,,,,,,,
,,"[""comma""]",0,32,0,32,0,1,60accfb2fbc5535b37a90903,24,Mężczyzna,2022-06-04_08h50.25.201,task,2021.1.4,Win32,59.95203837,628b806c463b948bc644b84f,629b00900f64a7544c597aee,[0.2879999999999967],,,,,,,,,,,,,,,,,,,,,,,,,,,,,,,,,,,,,,,,,,,,,,,,,,,,,,,,,,,,,,,,,,,,,,,,,,,,,,,,,,,,,,,,,,,,,,,,,,,,,,,
,,"[""comma""]",0,33,0,33,0,1,60accfb2fbc5535b37a90903,24,Mężczyzna,2022-06-04_08h50.25.201,task,2021.1.4,Win32,59.95203837,628b806c463b948bc644b84f,629b00900f64a7544c597aee,[0.671999999999997],,,,,,,,,,,,,,,,,,,,,,,,,,,,,,,,,,,,,,,,,,,,,,,,,,,,,,,,,,,,,,,,,,,,,,,,,,,,,,,,,,,,,,,,,,,,,,,,,,,,,,,
,,"[""comma""]",0,34,0,34,0,1,60accfb2fbc5535b37a90903,24,Mężczyzna,2022-06-04_08h50.25.201,task,2021.1.4,Win32,59.95203837,628b806c463b948bc644b84f,629b00900f64a7544c597aee,[0.36700000000000443],,,,,,,,,,,,,,,,,,,,,,,,,,,,,,,,,,,,,,,,,,,,,,,,,,,,,,,,,,,,,,,,,,,,,,,,,,,,,,,,,,,,,,,,,,,,,,,,,,,,,,,
,,"[""comma""]",0,35,0,35,0,1,60accfb2fbc5535b37a90903,24,Mężczyzna,2022-06-04_08h50.25.201,task,2021.1.4,Win32,59.95203837,628b806c463b948bc644b84f,629b00900f64a7544c597aee,[0.2360000000000042],,,,,,,,,,,,,,,,,,,,,,,,,,,,,,,,,,,,,,,,,,,,,,,,,,,,,,,,,,,,,,,,,,,,,,,,,,,,,,,,,,,,,,,,,,,,,,,,,,,,,,,
,,"[""comma""]",0,36,0,36,0,1,60accfb2fbc5535b37a90903,24,Mężczyzna,2022-06-04_08h50.25.201,task,2021.1.4,Win32,59.95203837,628b806c463b948bc644b84f,629b00900f64a7544c597aee,[0.2560000000000002],,,,,,,,,,,,,,,,,,,,,,,,,,,,,,,,,,,,,,,,,,,,,,,,,,,,,,,,,,,,,,,,,,,,,,,,,,,,,,,,,,,,,,,,,,,,,,,,,,,,,,,
,,"[""comma""]",0,37,0,37,0,1,60accfb2fbc5535b37a90903,24,Mężczyzna,2022-06-04_08h50.25.201,task,2021.1.4,Win32,59.95203837,628b806c463b948bc644b84f,629b00900f64a7544c597aee,[0.24500000000000455],,,,,,,,,,,,,,,,,,,,,,,,,,,,,,,,,,,,,,,,,,,,,,,,,,,,,,,,,,,,,,,,,,,,,,,,,,,,,,,,,,,,,,,,,,,,,,,,,,,,,,,
,,"[""comma""]",0,38,0,38,0,1,60accfb2fbc5535b37a90903,24,Mężczyzna,2022-06-04_08h50.25.201,task,2021.1.4,Win32,59.95203837,628b806c463b948bc644b84f,629b00900f64a7544c597aee,[0.2530000000000143],,,,,,,,,,,,,,,,,,,,,,,,,,,,,,,,,,,,,,,,,,,,,,,,,,,,,,,,,,,,,,,,,,,,,,,,,,,,,,,,,,,,,,,,,,,,,,,,,,,,,,,
,,"[""comma""]",0,39,0,39,0,1,60accfb2fbc5535b37a90903,24,Mężczyzna,2022-06-04_08h50.25.201,task,2021.1.4,Win32,59.95203837,628b806c463b948bc644b84f,629b00900f64a7544c597aee,[0.2839999999999918],,,,,,,,,,,,,,,,,,,,,,,,,,,,,,,,,,,,,,,,,,,,,,,,,,,,,,,,,,,,,,,,,,,,,,,,,,,,,,,,,,,,,,,,,,,,,,,,,,,,,,,
,,"[""comma""]",0,40,0,40,0,1,60accfb2fbc5535b37a90903,24,Mężczyzna,2022-06-04_08h50.25.201,task,2021.1.4,Win32,59.95203837,628b806c463b948bc644b84f,629b00900f64a7544c597aee,[0.23600000000001842],,,,,,,,,,,,,,,,,,,,,,,,,,,,,,,,,,,,,,,,,,,,,,,,,,,,,,,,,,,,,,,,,,,,,,,,,,,,,,,,,,,,,,,,,,,,,,,,,,,,,,,
,,"[""comma""]",0,41,0,41,0,1,60accfb2fbc5535b37a90903,24,Mężczyzna,2022-06-04_08h50.25.201,task,2021.1.4,Win32,59.95203837,628b806c463b948bc644b84f,629b00900f64a7544c597aee,[0.40100000000001046],,,,,,,,,,,,,,,,,,,,,,,,,,,,,,,,,,,,,,,,,,,,,,,,,,,,,,,,,,,,,,,,,,,,,,,,,,,,,,,,,,,,,,,,,,,,,,,,,,,,,,,
,,"[""comma""]",0,42,0,42,0,1,60accfb2fbc5535b37a90903,24,Mężczyzna,2022-06-04_08h50.25.201,task,2021.1.4,Win32,59.95203837,628b806c463b948bc644b84f,629b00900f64a7544c597aee,[0.3170000000000073],,,,,,,,,,,,,,,,,,,,,,,,,,,,,,,,,,,,,,,,,,,,,,,,,,,,,,,,,,,,,,,,,,,,,,,,,,,,,,,,,,,,,,,,,,,,,,,,,,,,,,,
,,"[""comma""]",0,43,0,43,0,1,60accfb2fbc5535b37a90903,24,Mężczyzna,2022-06-04_08h50.25.201,task,2021.1.4,Win32,59.95203837,628b806c463b948bc644b84f,629b00900f64a7544c597aee,[0.28700000000000614],,,,,,,,,,,,,,,,,,,,,,,,,,,,,,,,,,,,,,,,,,,,,,,,,,,,,,,,,,,,,,,,,,,,,,,,,,,,,,,,,,,,,,,,,,,,,,,,,,,,,,,
,,"[""comma""]",0,44,0,44,0,1,60accfb2fbc5535b37a90903,24,Mężczyzna,2022-06-04_08h50.25.201,task,2021.1.4,Win32,59.95203837,628b806c463b948bc644b84f,629b00900f64a7544c597aee,[0.27299999999999613],,,,,,,,,,,,,,,,,,,,,,,,,,,,,,,,,,,,,,,,,,,,,,,,,,,,,,,,,,,,,,,,,,,,,,,,,,,,,,,,,,,,,,,,,,,,,,,,,,,,,,,
,,"[""comma""]",0,45,0,45,0,1,60accfb2fbc5535b37a90903,24,Mężczyzna,2022-06-04_08h50.25.201,task,2021.1.4,Win32,59.95203837,628b806c463b948bc644b84f,629b00900f64a7544c597aee,[0.27000000000001023],,,,,,,,,,,,,,,,,,,,,,,,,,,,,,,,,,,,,,,,,,,,,,,,,,,,,,,,,,,,,,,,,,,,,,,,,,,,,,,,,,,,,,,,,,,,,,,,,,,,,,,
,,"[""comma""]",0,46,0,46,0,1,60accfb2fbc5535b37a90903,24,Mężczyzna,2022-06-04_08h50.25.201,task,2021.1.4,Win32,59.95203837,628b806c463b948bc644b84f,629b00900f64a7544c597aee,[0.26900000000000546],,,,,,,,,,,,,,,,,,,,,,,,,,,,,,,,,,,,,,,,,,,,,,,,,,,,,,,,,,,,,,,,,,,,,,,,,,,,,,,,,,,,,,,,,,,,,,,,,,,,,,,
,,"[""comma""]",0,47,0,47,0,1,60accfb2fbc5535b37a90903,24,Mężczyzna,2022-06-04_08h50.25.201,task,2021.1.4,Win32,59.95203837,628b806c463b948bc644b84f,629b00900f64a7544c597aee,[0.05500000000000682],,,,,,,,,,,,,,,,,,,,,,,,,,,,,,,,,,,,,,,,,,,,,,,,,,,,,,,,,,,,,,,,,,,,,,,,,,,,,,,,,,,,,,,,,,,,,,,,,,,,,,,
,,"[""comma""]",0,48,0,48,0,1,60accfb2fbc5535b37a90903,24,Mężczyzna,2022-06-04_08h50.25.201,task,2021.1.4,Win32,59.95203837,628b806c463b948bc644b84f,629b00900f64a7544c597aee,[0.33500000000000796],,,,,,,,,,,,,,,,,,,,,,,,,,,,,,,,,,,,,,,,,,,,,,,,,,,,,,,,,,,,,,,,,,,,,,,,,,,,,,,,,,,,,,,,,,,,,,,,,,,,,,,
,,"[""comma""]",0,49,0,49,0,1,60accfb2fbc5535b37a90903,24,Mężczyzna,2022-06-04_08h50.25.201,task,2021.1.4,Win32,59.95203837,628b806c463b948bc644b84f,629b00900f64a7544c597aee,[0.016999999999995907],,,,,,,,,,,,,,,,,,,,,,,,,,,,,,,,,,,,,,,,,,,,,,,,,,,,,,,,,,,,,,,,,,,,,,,,,,,,,,,,,,,,,,,,,,,,,,,,,,,,,,,
,,"[""comma""]",0,50,0,50,0,1,60accfb2fbc5535b37a90903,24,Mężczyzna,2022-06-04_08h50.25.201,task,2021.1.4,Win32,59.95203837,628b806c463b948bc644b84f,629b00900f64a7544c597aee,[0.2669999999999959],,,,,,,,,,,,,,,,,,,,,,,,,,,,,,,,,,,,,,,,,,,,,,,,,,,,,,,,,,,,,,,,,,,,,,,,,,,,,,,,,,,,,,,,,,,,,,,,,,,,,,,
,,"[""comma""]",0,51,0,51,0,1,60accfb2fbc5535b37a90903,24,Mężczyzna,2022-06-04_08h50.25.201,task,2021.1.4,Win32,59.95203837,628b806c463b948bc644b84f,629b00900f64a7544c597aee,[0.4519999999999982],,,,,,,,,,,,,,,,,,,,,,,,,,,,,,,,,,,,,,,,,,,,,,,,,,,,,,,,,,,,,,,,,,,,,,,,,,,,,,,,,,,,,,,,,,,,,,,,,,,,,,,
,,"[""comma""]",0,52,0,52,0,1,60accfb2fbc5535b37a90903,24,Mężczyzna,2022-06-04_08h50.25.201,task,2021.1.4,Win32,59.95203837,628b806c463b948bc644b84f,629b00900f64a7544c597aee,[0.26900000000000546],,,,,,,,,,,,,,,,,,,,,,,,,,,,,,,,,,,,,,,,,,,,,,,,,,,,,,,,,,,,,,,,,,,,,,,,,,,,,,,,,,,,,,,,,,,,,,,,,,,,,,,
,,"[""comma""]",0,53,0,53,0,1,60accfb2fbc5535b37a90903,24,Mężczyzna,2022-06-04_08h50.25.201,task,2021.1.4,Win32,59.95203837,628b806c463b948bc644b84f,629b00900f64a7544c597aee,[0.6700000000000159],,,,,,,,,,,,,,,,,,,,,,,,,,,,,,,,,,,,,,,,,,,,,,,,,,,,,,,,,,,,,,,,,,,,,,,,,,,,,,,,,,,,,,,,,,,,,,,,,,,,,,,
,,"[""comma""]",0,54,0,54,0,1,60accfb2fbc5535b37a90903,24,Mężczyzna,2022-06-04_08h50.25.201,task,2021.1.4,Win32,59.95203837,628b806c463b948bc644b84f,629b00900f64a7544c597aee,[0.5520000000000209],,,,,,,,,,,,,,,,,,,,,,,,,,,,,,,,,,,,,,,,,,,,,,,,,,,,,,,,,,,,,,,,,,,,,,,,,,,,,,,,,,,,,,,,,,,,,,,,,,,,,,,
,,"[""comma""]",0,55,0,55,0,1,60accfb2fbc5535b37a90903,24,Mężczyzna,2022-06-04_08h50.25.201,task,2021.1.4,Win32,59.95203837,628b806c463b948bc644b84f,629b00900f64a7544c597aee,[0.3060000000000116],,,,,,,,,,,,,,,,,,,,,,,,,,,,,,,,,,,,,,,,,,,,,,,,,,,,,,,,,,,,,,,,,,,,,,,,,,,,,,,,,,,,,,,,,,,,,,,,,,,,,,,
,,"[""comma""]",0,56,0,56,0,1,60accfb2fbc5535b37a90903,24,Mężczyzna,2022-06-04_08h50.25.201,task,2021.1.4,Win32,59.95203837,628b806c463b948bc644b84f,629b00900f64a7544c597aee,[0.30100000000001614],,,,,,,,,,,,,,,,,,,,,,,,,,,,,,,,,,,,,,,,,,,,,,,,,,,,,,,,,,,,,,,,,,,,,,,,,,,,,,,,,,,,,,,,,,,,,,,,,,,,,,,
,,"[""comma""]",0,57,0,57,0,1,60accfb2fbc5535b37a90903,24,Mężczyzna,2022-06-04_08h50.25.201,task,2021.1.4,Win32,59.95203837,628b806c463b948bc644b84f,629b00900f64a7544c597aee,[0.2150000000000034],,,,,,,,,,,,,,,,,,,,,,,,,,,,,,,,,,,,,,,,,,,,,,,,,,,,,,,,,,,,,,,,,,,,,,,,,,,,,,,,,,,,,,,,,,,,,,,,,,,,,,,
,,"[""comma""]",0,58,0,58,0,1,60accfb2fbc5535b37a90903,24,Mężczyzna,2022-06-04_08h50.25.201,task,2021.1.4,Win32,59.95203837,628b806c463b948bc644b84f,629b00900f64a7544c597aee,[0.4159999999999968],,,,,,,,,,,,,,,,,,,,,,,,,,,,,,,,,,,,,,,,,,,,,,,,,,,,,,,,,,,,,,,,,,,,,,,,,,,,,,,,,,,,,,,,,,,,,,,,,,,,,,,
,,"[""comma""]",0,59,0,59,0,1,60accfb2fbc5535b37a90903,24,Mężczyzna,2022-06-04_08h50.25.201,task,2021.1.4,Win32,59.95203837,628b806c463b948bc644b84f,629b00900f64a7544c597aee,[0.2530000000000143],,,,,,,,,,,,,,,,,,,,,,,,,,,,,,,,,,,,,,,,,,,,,,,,,,,,,,,,,,,,,,,,,,,,,,,,,,,,,,,,,,,,,,,,,,,,,,,,,,,,,,,
,,"[""period"",""comma""]",0,60,0,60,0,1,60accfb2fbc5535b37a90903,24,Mężczyzna,2022-06-04_08h50.25.201,task,2021.1.4,Win32,59.95203837,628b806c463b948bc644b84f,629b00900f64a7544c597aee,"[0.2839999999999918,1.4339999999999975]",,,,,,,,,,,,,,,,,,,,,,,,,,,,,,,,,,,,,,,,,,,,,,,,,,,,,,,,,,,,,,,,,,,,,,,,,,,,,,,,,,,,,,,,,,,,,,,,,,,,,,,
,,"[""comma""]",0,61,0,61,0,1,60accfb2fbc5535b37a90903,24,Mężczyzna,2022-06-04_08h50.25.201,task,2021.1.4,Win32,59.95203837,628b806c463b948bc644b84f,629b00900f64a7544c597aee,[0.5180000000000007],,,,,,,,,,,,,,,,,,,,,,,,,,,,,,,,,,,,,,,,,,,,,,,,,,,,,,,,,,,,,,,,,,,,,,,,,,,,,,,,,,,,,,,,,,,,,,,,,,,,,,,
,,"[""comma""]",0,62,0,62,0,1,60accfb2fbc5535b37a90903,24,Mężczyzna,2022-06-04_08h50.25.201,task,2021.1.4,Win32,59.95203837,628b806c463b948bc644b84f,629b00900f64a7544c597aee,[0.2669999999999959],,,,,,,,,,,,,,,,,,,,,,,,,,,,,,,,,,,,,,,,,,,,,,,,,,,,,,,,,,,,,,,,,,,,,,,,,,,,,,,,,,,,,,,,,,,,,,,,,,,,,,,
,,"[""period""]",0,63,0,63,0,1,60accfb2fbc5535b37a90903,24,Mężczyzna,2022-06-04_08h50.25.201,task,2021.1.4,Win32,59.95203837,628b806c463b948bc644b84f,629b00900f64a7544c597aee,[0.28600000000000136],,,,,,,,,,,,,,,,,,,,,,,,,,,,,,,,,,,,,,,,,,,,,,,,,,,,,,,,,,,,,,,,,,,,,,,,,,,,,,,,,,,,,,,,,,,,,,,,,,,,,,,
,,"[""period""]",0,64,0,64,0,1,60accfb2fbc5535b37a90903,24,Mężczyzna,2022-06-04_08h50.25.201,task,2021.1.4,Win32,59.95203837,628b806c463b948bc644b84f,629b00900f64a7544c597aee,[0.33500000000000796],,,,,,,,,,,,,,,,,,,,,,,,,,,,,,,,,,,,,,,,,,,,,,,,,,,,,,,,,,,,,,,,,,,,,,,,,,,,,,,,,,,,,,,,,,,,,,,,,,,,,,,
,,"[""period""]",0,65,0,65,0,1,60accfb2fbc5535b37a90903,24,Mężczyzna,2022-06-04_08h50.25.201,task,2021.1.4,Win32,59.95203837,628b806c463b948bc644b84f,629b00900f64a7544c597aee,[0.3019999999999925],,,,,,,,,,,,,,,,,,,,,,,,,,,,,,,,,,,,,,,,,,,,,,,,,,,,,,,,,,,,,,,,,,,,,,,,,,,,,,,,,,,,,,,,,,,,,,,,,,,,,,,
,,"[""period""]",0,66,0,66,0,1,60accfb2fbc5535b37a90903,24,Mężczyzna,2022-06-04_08h50.25.201,task,2021.1.4,Win32,59.95203837,628b806c463b948bc644b84f,629b00900f64a7544c597aee,[0.30100000000001614],,,,,,,,,,,,,,,,,,,,,,,,,,,,,,,,,,,,,,,,,,,,,,,,,,,,,,,,,,,,,,,,,,,,,,,,,,,,,,,,,,,,,,,,,,,,,,,,,,,,,,,
,,"[""period""]",0,67,0,67,0,1,60accfb2fbc5535b37a90903,24,Mężczyzna,2022-06-04_08h50.25.201,task,2021.1.4,Win32,59.95203837,628b806c463b948bc644b84f,629b00900f64a7544c597aee,[0.40200000000001523],,,,,,,,,,,,,,,,,,,,,,,,,,,,,,,,,,,,,,,,,,,,,,,,,,,,,,,,,,,,,,,,,,,,,,,,,,,,,,,,,,,,,,,,,,,,,,,,,,,,,,,
,,"[""period""]",0,68,0,68,0,1,60accfb2fbc5535b37a90903,24,Mężczyzna,2022-06-04_08h50.25.201,task,2021.1.4,Win32,59.95203837,628b806c463b948bc644b84f,629b00900f64a7544c597aee,[0.35200000000000387],,,,,,,,,,,,,,,,,,,,,,,,,,,,,,,,,,,,,,,,,,,,,,,,,,,,,,,,,,,,,,,,,,,,,,,,,,,,,,,,,,,,,,,,,,,,,,,,,,,,,,,
,,"[""period""]",0,69,0,69,0,1,60accfb2fbc5535b37a90903,24,Mężczyzna,2022-06-04_08h50.25.201,task,2021.1.4,Win32,59.95203837,628b806c463b948bc644b84f,629b00900f64a7544c597aee,[0.3060000000000116],,,,,,,,,,,,,,,,,,,,,,,,,,,,,,,,,,,,,,,,,,,,,,,,,,,,,,,,,,,,,,,,,,,,,,,,,,,,,,,,,,,,,,,,,,,,,,,,,,,,,,,
,,"[""period""]",0,70,0,70,0,1,60accfb2fbc5535b37a90903,24,Mężczyzna,2022-06-04_08h50.25.201,task,2021.1.4,Win32,59.95203837,628b806c463b948bc644b84f,629b00900f64a7544c597aee,[0.3509999999999991],,,,,,,,,,,,,,,,,,,,,,,,,,,,,,,,,,,,,,,,,,,,,,,,,,,,,,,,,,,,,,,,,,,,,,,,,,,,,,,,,,,,,,,,,,,,,,,,,,,,,,,
,,"[""period""]",0,71,0,71,0,1,60accfb2fbc5535b37a90903,24,Mężczyzna,2022-06-04_08h50.25.201,task,2021.1.4,Win32,59.95203837,628b806c463b948bc644b84f,629b00900f64a7544c597aee,[0.6189999999999998],,,,,,,,,,,,,,,,,,,,,,,,,,,,,,,,,,,,,,,,,,,,,,,,,,,,,,,,,,,,,,,,,,,,,,,,,,,,,,,,,,,,,,,,,,,,,,,,,,,,,,,
,,,0,72,0,72,0,1,60accfb2fbc5535b37a90903,24,Mężczyzna,2022-06-04_08h50.25.201,task,2021.1.4,Win32,59.95203837,628b806c463b948bc644b84f,629b00900f64a7544c597aee,,,,,,,,,,,,,,,,,,,,,,,,,,,,,,,,,,,,,,,,,,,,,,,,,,,,,,,,,,,,,,,,,,,,,,,,,,,,,,,,,,,,,,,,,,,,,,,,,,,,,,,,
,,"[""period""]",0,73,0,73,0,1,60accfb2fbc5535b37a90903,24,Mężczyzna,2022-06-04_08h50.25.201,task,2021.1.4,Win32,59.95203837,628b806c463b948bc644b84f,629b00900f64a7544c597aee,[0.3060000000000116],,,,,,,,,,,,,,,,,,,,,,,,,,,,,,,,,,,,,,,,,,,,,,,,,,,,,,,,,,,,,,,,,,,,,,,,,,,,,,,,,,,,,,,,,,,,,,,,,,,,,,,
,,"[""period""]",0,74,0,74,0,1,60accfb2fbc5535b37a90903,24,Mężczyzna,2022-06-04_08h50.25.201,task,2021.1.4,Win32,59.95203837,628b806c463b948bc644b84f,629b00900f64a7544c597aee,[0.29699999999999704],,,,,,,,,,,,,,,,,,,,,,,,,,,,,,,,,,,,,,,,,,,,,,,,,,,,,,,,,,,,,,,,,,,,,,,,,,,,,,,,,,,,,,,,,,,,,,,,,,,,,,,
,,"[""comma""]",0,75,0,75,0,1,60accfb2fbc5535b37a90903,24,Mężczyzna,2022-06-04_08h50.25.201,task,2021.1.4,Win32,59.95203837,628b806c463b948bc644b84f,629b00900f64a7544c597aee,[0.24899999999999523],,,,,,,,,,,,,,,,,,,,,,,,,,,,,,,,,,,,,,,,,,,,,,,,,,,,,,,,,,,,,,,,,,,,,,,,,,,,,,,,,,,,,,,,,,,,,,,,,,,,,,,
,,"[""comma""]",0,76,0,76,0,1,60accfb2fbc5535b37a90903,24,Mężczyzna,2022-06-04_08h50.25.201,task,2021.1.4,Win32,59.95203837,628b806c463b948bc644b84f,629b00900f64a7544c597aee,[0.2849999999999966],,,,,,,,,,,,,,,,,,,,,,,,,,,,,,,,,,,,,,,,,,,,,,,,,,,,,,,,,,,,,,,,,,,,,,,,,,,,,,,,,,,,,,,,,,,,,,,,,,,,,,,
,,"[""period""]",0,77,0,77,0,1,60accfb2fbc5535b37a90903,24,Mężczyzna,2022-06-04_08h50.25.201,task,2021.1.4,Win32,59.95203837,628b806c463b948bc644b84f,629b00900f64a7544c597aee,[0.38400000000001455],,,,,,,,,,,,,,,,,,,,,,,,,,,,,,,,,,,,,,,,,,,,,,,,,,,,,,,,,,,,,,,,,,,,,,,,,,,,,,,,,,,,,,,,,,,,,,,,,,,,,,,
,,"[""comma""]",0,78,0,78,0,1,60accfb2fbc5535b37a90903,24,Mężczyzna,2022-06-04_08h50.25.201,task,2021.1.4,Win32,59.95203837,628b806c463b948bc644b84f,629b00900f64a7544c597aee,[0.11700000000001864],,,,,,,,,,,,,,,,,,,,,,,,,,,,,,,,,,,,,,,,,,,,,,,,,,,,,,,,,,,,,,,,,,,,,,,,,,,,,,,,,,,,,,,,,,,,,,,,,,,,,,,
,,"[""period""]",0,79,0,79,0,1,60accfb2fbc5535b37a90903,24,Mężczyzna,2022-06-04_08h50.25.201,task,2021.1.4,Win32,59.95203837,628b806c463b948bc644b84f,629b00900f64a7544c597aee,[0.3859999999999957],,,,,,,,,,,,,,,,,,,,,,,,,,,,,,,,,,,,,,,,,,,,,,,,,,,,,,,,,,,,,,,,,,,,,,,,,,,,,,,,,,,,,,,,,,,,,,,,,,,,,,,
,,"[""comma""]",0,80,0,80,0,1,60accfb2fbc5535b37a90903,24,Mężczyzna,2022-06-04_08h50.25.201,task,2021.1.4,Win32,59.95203837,628b806c463b948bc644b84f,629b00900f64a7544c597aee,[0.27299999999999613],,,,,,,,,,,,,,,,,,,,,,,,,,,,,,,,,,,,,,,,,,,,,,,,,,,,,,,,,,,,,,,,,,,,,,,,,,,,,,,,,,,,,,,,,,,,,,,,,,,,,,,
,,"[""period""]",0,81,0,81,0,1,60accfb2fbc5535b37a90903,24,Mężczyzna,2022-06-04_08h50.25.201,task,2021.1.4,Win32,59.95203837,628b806c463b948bc644b84f,629b00900f64a7544c597aee,[0.2880000000000109],,,,,,,,,,,,,,,,,,,,,,,,,,,,,,,,,,,,,,,,,,,,,,,,,,,,,,,,,,,,,,,,,,,,,,,,,,,,,,,,,,,,,,,,,,,,,,,,,,,,,,,
,,"[""comma""]",0,82,0,82,0,1,60accfb2fbc5535b37a90903,24,Mężczyzna,2022-06-04_08h50.25.201,task,2021.1.4,Win32,59.95203837,628b806c463b948bc644b84f,629b00900f64a7544c597aee,[0.2510000000000048],,,,,,,,,,,,,,,,,,,,,,,,,,,,,,,,,,,,,,,,,,,,,,,,,,,,,,,,,,,,,,,,,,,,,,,,,,,,,,,,,,,,,,,,,,,,,,,,,,,,,,,
,,"[""period""]",0,83,0,83,0,1,60accfb2fbc5535b37a90903,24,Mężczyzna,2022-06-04_08h50.25.201,task,2021.1.4,Win32,59.95203837,628b806c463b948bc644b84f,629b00900f64a7544c597aee,[0.4350000000000023],,,,,,,,,,,,,,,,,,,,,,,,,,,,,,,,,,,,,,,,,,,,,,,,,,,,,,,,,,,,,,,,,,,,,,,,,,,,,,,,,,,,,,,,,,,,,,,,,,,,,,,
,,"[""comma""]",0,84,0,84,0,1,60accfb2fbc5535b37a90903,24,Mężczyzna,2022-06-04_08h50.25.201,task,2021.1.4,Win32,59.95203837,628b806c463b948bc644b84f,629b00900f64a7544c597aee,[0.7349999999999852],,,,,,,,,,,,,,,,,,,,,,,,,,,,,,,,,,,,,,,,,,,,,,,,,,,,,,,,,,,,,,,,,,,,,,,,,,,,,,,,,,,,,,,,,,,,,,,,,,,,,,,
,,,0,85,0,85,0,1,60accfb2fbc5535b37a90903,24,Mężczyzna,2022-06-04_08h50.25.201,task,2021.1.4,Win32,59.95203837,628b806c463b948bc644b84f,629b00900f64a7544c597aee,,,,,,,,,,,,,,,,,,,,,,,,,,,,,,,,,,,,,,,,,,,,,,,,,,,,,,,,,,,,,,,,,,,,,,,,,,,,,,,,,,,,,,,,,,,,,,,,,,,,,,,,
,,"[""comma""]",0,86,0,86,0,1,60accfb2fbc5535b37a90903,24,Mężczyzna,2022-06-04_08h50.25.201,task,2021.1.4,Win32,59.95203837,628b806c463b948bc644b84f,629b00900f64a7544c597aee,[0.72199999999998],,,,,,,,,,,,,,,,,,,,,,,,,,,,,,,,,,,,,,,,,,,,,,,,,,,,,,,,,,,,,,,,,,,,,,,,,,,,,,,,,,,,,,,,,,,,,,,,,,,,,,,
,,"[""comma""]",0,87,0,87,0,1,60accfb2fbc5535b37a90903,24,Mężczyzna,2022-06-04_08h50.25.201,task,2021.1.4,Win32,59.95203837,628b806c463b948bc644b84f,629b00900f64a7544c597aee,[0.5379999999999825],,,,,,,,,,,,,,,,,,,,,,,,,,,,,,,,,,,,,,,,,,,,,,,,,,,,,,,,,,,,,,,,,,,,,,,,,,,,,,,,,,,,,,,,,,,,,,,,,,,,,,,
,,"[""comma""]",0,88,0,88,0,1,60accfb2fbc5535b37a90903,24,Mężczyzna,2022-06-04_08h50.25.201,task,2021.1.4,Win32,59.95203837,628b806c463b948bc644b84f,629b00900f64a7544c597aee,[0.30299999999999727],,,,,,,,,,,,,,,,,,,,,,,,,,,,,,,,,,,,,,,,,,,,,,,,,,,,,,,,,,,,,,,,,,,,,,,,,,,,,,,,,,,,,,,,,,,,,,,,,,,,,,,
,,"[""period""]",0,89,0,89,0,1,60accfb2fbc5535b37a90903,24,Mężczyzna,2022-06-04_08h50.25.201,task,2021.1.4,Win32,59.95203837,628b806c463b948bc644b84f,629b00900f64a7544c597aee,[0.2179999999999893],,,,,,,,,,,,,,,,,,,,,,,,,,,,,,,,,,,,,,,,,,,,,,,,,,,,,,,,,,,,,,,,,,,,,,,,,,,,,,,,,,,,,,,,,,,,,,,,,,,,,,,
,,"[""period""]",0,90,0,90,0,1,60accfb2fbc5535b37a90903,24,Mężczyzna,2022-06-04_08h50.25.201,task,2021.1.4,Win32,59.95203837,628b806c463b948bc644b84f,629b00900f64a7544c597aee,[0.3850000000000193],,,,,,,,,,,,,,,,,,,,,,,,,,,,,,,,,,,,,,,,,,,,,,,,,,,,,,,,,,,,,,,,,,,,,,,,,,,,,,,,,,,,,,,,,,,,,,,,,,,,,,,
,,"[""period""]",0,91,0,91,0,1,60accfb2fbc5535b37a90903,24,Mężczyzna,2022-06-04_08h50.25.201,task,2021.1.4,Win32,59.95203837,628b806c463b948bc644b84f,629b00900f64a7544c597aee,[0.26900000000000546],,,,,,,,,,,,,,,,,,,,,,,,,,,,,,,,,,,,,,,,,,,,,,,,,,,,,,,,,,,,,,,,,,,,,,,,,,,,,,,,,,,,,,,,,,,,,,,,,,,,,,,
,,"[""period""]",0,92,0,92,0,1,60accfb2fbc5535b37a90903,24,Mężczyzna,2022-06-04_08h50.25.201,task,2021.1.4,Win32,59.95203837,628b806c463b948bc644b84f,629b00900f64a7544c597aee,[0.30299999999999727],,,,,,,,,,,,,,,,,,,,,,,,,,,,,,,,,,,,,,,,,,,,,,,,,,,,,,,,,,,,,,,,,,,,,,,,,,,,,,,,,,,,,,,,,,,,,,,,,,,,,,,
,,"[""period""]",0,93,0,93,0,1,60accfb2fbc5535b37a90903,24,Mężczyzna,2022-06-04_08h50.25.201,task,2021.1.4,Win32,59.95203837,628b806c463b948bc644b84f,629b00900f64a7544c597aee,[0.7039999999999793],,,,,,,,,,,,,,,,,,,,,,,,,,,,,,,,,,,,,,,,,,,,,,,,,,,,,,,,,,,,,,,,,,,,,,,,,,,,,,,,,,,,,,,,,,,,,,,,,,,,,,,
,,"[""period""]",0,94,0,94,0,1,60accfb2fbc5535b37a90903,24,Mężczyzna,2022-06-04_08h50.25.201,task,2021.1.4,Win32,59.95203837,628b806c463b948bc644b84f,629b00900f64a7544c597aee,[0.804000000000002],,,,,,,,,,,,,,,,,,,,,,,,,,,,,,,,,,,,,,,,,,,,,,,,,,,,,,,,,,,,,,,,,,,,,,,,,,,,,,,,,,,,,,,,,,,,,,,,,,,,,,,
,,"[""period""]",0,95,0,95,0,1,60accfb2fbc5535b37a90903,24,Mężczyzna,2022-06-04_08h50.25.201,task,2021.1.4,Win32,59.95203837,628b806c463b948bc644b84f,629b00900f64a7544c597aee,[0.4849999999999852],,,,,,,,,,,,,,,,,,,,,,,,,,,,,,,,,,,,,,,,,,,,,,,,,,,,,,,,,,,,,,,,,,,,,,,,,,,,,,,,,,,,,,,,,,,,,,,,,,,,,,,
,,"[""period""]",0,96,0,96,0,1,60accfb2fbc5535b37a90903,24,Mężczyzna,2022-06-04_08h50.25.201,task,2021.1.4,Win32,59.95203837,628b806c463b948bc644b84f,629b00900f64a7544c597aee,[0.23799999999999955],,,,,,,,,,,,,,,,,,,,,,,,,,,,,,,,,,,,,,,,,,,,,,,,,,,,,,,,,,,,,,,,,,,,,,,,,,,,,,,,,,,,,,,,,,,,,,,,,,,,,,,
,,"[""period""]",0,97,0,97,0,1,60accfb2fbc5535b37a90903,24,Mężczyzna,2022-06-04_08h50.25.201,task,2021.1.4,Win32,59.95203837,628b806c463b948bc644b84f,629b00900f64a7544c597aee,[0.43600000000000705],,,,,,,,,,,,,,,,,,,,,,,,,,,,,,,,,,,,,,,,,,,,,,,,,,,,,,,,,,,,,,,,,,,,,,,,,,,,,,,,,,,,,,,,,,,,,,,,,,,,,,,
,,"[""period""]",0,98,0,98,0,1,60accfb2fbc5535b37a90903,24,Mężczyzna,2022-06-04_08h50.25.201,task,2021.1.4,Win32,59.95203837,628b806c463b948bc644b84f,629b00900f64a7544c597aee,[0.28300000000001546],,,,,,,,,,,,,,,,,,,,,,,,,,,,,,,,,,,,,,,,,,,,,,,,,,,,,,,,,,,,,,,,,,,,,,,,,,,,,,,,,,,,,,,,,,,,,,,,,,,,,,,
,,"[""period""]",0,99,0,99,0,1,60accfb2fbc5535b37a90903,24,Mężczyzna,2022-06-04_08h50.25.201,task,2021.1.4,Win32,59.95203837,628b806c463b948bc644b84f,629b00900f64a7544c597aee,[0.2820000000000107],,,,,,,,,,,,,,,,,,,,,,,,,,,,,,,,,,,,,,,,,,,,,,,,,,,,,,,,,,,,,,,,,,,,,,,,,,,,,,,,,,,,,,,,,,,,,,,,,,,,,,,
,,"[""period""]",0,100,0,100,0,1,60accfb2fbc5535b37a90903,24,Mężczyzna,2022-06-04_08h50.25.201,task,2021.1.4,Win32,59.95203837,628b806c463b948bc644b84f,629b00900f64a7544c597aee,[0.35300000000000864],,,,,,,,,,,,,,,,,,,,,,,,,,,,,,,,,,,,,,,,,,,,,,,,,,,,,,,,,,,,,,,,,,,,,,,,,,,,,,,,,,,,,,,,,,,,,,,,,,,,,,,
,,"[""period""]",0,101,0,101,0,1,60accfb2fbc5535b37a90903,24,Mężczyzna,2022-06-04_08h50.25.201,task,2021.1.4,Win32,59.95203837,628b806c463b948bc644b84f,629b00900f64a7544c597aee,[0.3049999999999784],,,,,,,,,,,,,,,,,,,,,,,,,,,,,,,,,,,,,,,,,,,,,,,,,,,,,,,,,,,,,,,,,,,,,,,,,,,,,,,,,,,,,,,,,,,,,,,,,,,,,,,
,,"[""comma""]",0,102,0,102,0,1,60accfb2fbc5535b37a90903,24,Mężczyzna,2022-06-04_08h50.25.201,task,2021.1.4,Win32,59.95203837,628b806c463b948bc644b84f,629b00900f64a7544c597aee,[0.2869999999999777],,,,,,,,,,,,,,,,,,,,,,,,,,,,,,,,,,,,,,,,,,,,,,,,,,,,,,,,,,,,,,,,,,,,,,,,,,,,,,,,,,,,,,,,,,,,,,,,,,,,,,,
,,"[""comma""]",0,103,0,103,0,1,60accfb2fbc5535b37a90903,24,Mężczyzna,2022-06-04_08h50.25.201,task,2021.1.4,Win32,59.95203837,628b806c463b948bc644b84f,629b00900f64a7544c597aee,[0.2880000000000109],,,,,,,,,,,,,,,,,,,,,,,,,,,,,,,,,,,,,,,,,,,,,,,,,,,,,,,,,,,,,,,,,,,,,,,,,,,,,,,,,,,,,,,,,,,,,,,,,,,,,,,
,,"[""period""]",0,104,0,104,0,1,60accfb2fbc5535b37a90903,24,Mężczyzna,2022-06-04_08h50.25.201,task,2021.1.4,Win32,59.95203837,628b806c463b948bc644b84f,629b00900f64a7544c597aee,[0.28700000000003456],,,,,,,,,,,,,,,,,,,,,,,,,,,,,,,,,,,,,,,,,,,,,,,,,,,,,,,,,,,,,,,,,,,,,,,,,,,,,,,,,,,,,,,,,,,,,,,,,,,,,,,
,,"[""comma""]",0,105,0,105,0,1,60accfb2fbc5535b37a90903,24,Mężczyzna,2022-06-04_08h50.25.201,task,2021.1.4,Win32,59.95203837,628b806c463b948bc644b84f,629b00900f64a7544c597aee,[0.08600000000001273],,,,,,,,,,,,,,,,,,,,,,,,,,,,,,,,,,,,,,,,,,,,,,,,,,,,,,,,,,,,,,,,,,,,,,,,,,,,,,,,,,,,,,,,,,,,,,,,,,,,,,,
,,"[""comma""]",0,106,0,106,0,1,60accfb2fbc5535b37a90903,24,Mężczyzna,2022-06-04_08h50.25.201,task,2021.1.4,Win32,59.95203837,628b806c463b948bc644b84f,629b00900f64a7544c597aee,[0.25399999999996226],,,,,,,,,,,,,,,,,,,,,,,,,,,,,,,,,,,,,,,,,,,,,,,,,,,,,,,,,,,,,,,,,,,,,,,,,,,,,,,,,,,,,,,,,,,,,,,,,,,,,,,
,,"[""comma""]",0,107,0,107,0,1,60accfb2fbc5535b37a90903,24,Mężczyzna,2022-06-04_08h50.25.201,task,2021.1.4,Win32,59.95203837,628b806c463b948bc644b84f,629b00900f64a7544c597aee,[0.3509999999999991],,,,,,,,,,,,,,,,,,,,,,,,,,,,,,,,,,,,,,,,,,,,,,,,,,,,,,,,,,,,,,,,,,,,,,,,,,,,,,,,,,,,,,,,,,,,,,,,,,,,,,,
,,"[""period""]",0,108,0,108,0,1,60accfb2fbc5535b37a90903,24,Mężczyzna,2022-06-04_08h50.25.201,task,2021.1.4,Win32,59.95203837,628b806c463b948bc644b84f,629b00900f64a7544c597aee,[0.4179999999999495],,,,,,,,,,,,,,,,,,,,,,,,,,,,,,,,,,,,,,,,,,,,,,,,,,,,,,,,,,,,,,,,,,,,,,,,,,,,,,,,,,,,,,,,,,,,,,,,,,,,,,,
,,"[""comma""]",0,109,0,109,0,1,60accfb2fbc5535b37a90903,24,Mężczyzna,2022-06-04_08h50.25.201,task,2021.1.4,Win32,59.95203837,628b806c463b948bc644b84f,629b00900f64a7544c597aee,[0.7029999999999745],,,,,,,,,,,,,,,,,,,,,,,,,,,,,,,,,,,,,,,,,,,,,,,,,,,,,,,,,,,,,,,,,,,,,,,,,,,,,,,,,,,,,,,,,,,,,,,,,,,,,,,
,,"[""comma""]",0,110,0,110,0,1,60accfb2fbc5535b37a90903,24,Mężczyzna,2022-06-04_08h50.25.201,task,2021.1.4,Win32,59.95203837,628b806c463b948bc644b84f,629b00900f64a7544c597aee,[0.32900000000000773],,,,,,,,,,,,,,,,,,,,,,,,,,,,,,,,,,,,,,,,,,,,,,,,,,,,,,,,,,,,,,,,,,,,,,,,,,,,,,,,,,,,,,,,,,,,,,,,,,,,,,,
,,"[""comma""]",0,111,0,111,0,1,60accfb2fbc5535b37a90903,24,Mężczyzna,2022-06-04_08h50.25.201,task,2021.1.4,Win32,59.95203837,628b806c463b948bc644b84f,629b00900f64a7544c597aee,[0.2699999999999818],,,,,,,,,,,,,,,,,,,,,,,,,,,,,,,,,,,,,,,,,,,,,,,,,,,,,,,,,,,,,,,,,,,,,,,,,,,,,,,,,,,,,,,,,,,,,,,,,,,,,,,
,,"[""comma""]",0,112,0,112,0,1,60accfb2fbc5535b37a90903,24,Mężczyzna,2022-06-04_08h50.25.201,task,2021.1.4,Win32,59.95203837,628b806c463b948bc644b84f,629b00900f64a7544c597aee,[0.382000000000005],,,,,,,,,,,,,,,,,,,,,,,,,,,,,,,,,,,,,,,,,,,,,,,,,,,,,,,,,,,,,,,,,,,,,,,,,,,,,,,,,,,,,,,,,,,,,,,,,,,,,,,
,,"[""comma""]",0,113,0,113,0,1,60accfb2fbc5535b37a90903,24,Mężczyzna,2022-06-04_08h50.25.201,task,2021.1.4,Win32,59.95203837,628b806c463b948bc644b84f,629b00900f64a7544c597aee,[0.21800000000001774],,,,,,,,,,,,,,,,,,,,,,,,,,,,,,,,,,,,,,,,,,,,,,,,,,,,,,,,,,,,,,,,,,,,,,,,,,,,,,,,,,,,,,,,,,,,,,,,,,,,,,,
,,,0,114,0,114,0,1,60accfb2fbc5535b37a90903,24,Mężczyzna,2022-06-04_08h50.25.201,task,2021.1.4,Win32,59.95203837,628b806c463b948bc644b84f,629b00900f64a7544c597aee,,,,,,,,,,,,,,,,,,,,,,,,,,,,,,,,,,,,,,,,,,,,,,,,,,,,,,,,,,,,,,,,,,,,,,,,,,,,,,,,,,,,,,,,,,,,,,,,,,,,,,,,
,,,0,115,0,115,0,1,60accfb2fbc5535b37a90903,24,Mężczyzna,2022-06-04_08h50.25.201,task,2021.1.4,Win32,59.95203837,628b806c463b948bc644b84f,629b00900f64a7544c597aee,,,,,,,,,,,,,,,,,,,,,,,,,,,,,,,,,,,,,,,,,,,,,,,,,,,,,,,,,,,,,,,,,,,,,,,,,,,,,,,,,,,,,,,,,,,,,,,,,,,,,,,,
,,,0,116,0,116,0,1,60accfb2fbc5535b37a90903,24,Mężczyzna,2022-06-04_08h50.25.201,task,2021.1.4,Win32,59.95203837,628b806c463b948bc644b84f,629b00900f64a7544c597aee,,,,,,,,,,,,,,,,,,,,,,,,,,,,,,,,,,,,,,,,,,,,,,,,,,,,,,,,,,,,,,,,,,,,,,,,,,,,,,,,,,,,,,,,,,,,,,,,,,,,,,,,
,,,0,117,0,117,0,1,60accfb2fbc5535b37a90903,24,Mężczyzna,2022-06-04_08h50.25.201,task,2021.1.4,Win32,59.95203837,628b806c463b948bc644b84f,629b00900f64a7544c597aee,,,,,,,,,,,,,,,,,,,,,,,,,,,,,,,,,,,,,,,,,,,,,,,,,,,,,,,,,,,,,,,,,,,,,,,,,,,,,,,,,,,,,,,,,,,,,,,,,,,,,,,,
,,"[""period""]",0,118,0,118,0,1,60accfb2fbc5535b37a90903,24,Mężczyzna,2022-06-04_08h50.25.201,task,2021.1.4,Win32,59.95203837,628b806c463b948bc644b84f,629b00900f64a7544c597aee,[1.0699999999999932],,,,,,,,,,,,,,,,,,,,,,,,,,,,,,,,,,,,,,,,,,,,,,,,,,,,,,,,,,,,,,,,,,,,,,,,,,,,,,,,,,,,,,,,,,,,,,,,,,,,,,,
,,"[""comma""]",0,119,0,119,0,1,60accfb2fbc5535b37a90903,24,Mężczyzna,2022-06-04_08h50.25.201,task,2021.1.4,Win32,59.95203837,628b806c463b948bc644b84f,629b00900f64a7544c597aee,[0.33799999999996544],,,,,,,,,,,,,,,,,,,,,,,,,,,,,,,,,,,,,,,,,,,,,,,,,,,,,,,,,,,,,,,,,,,,,,,,,,,,,,,,,,,,,,,,,,,,,,,,,,,,,,,
,,,,,,,,,60accfb2fbc5535b37a90903,24,Mężczyzna,2022-06-04_08h50.25.201,task,2021.1.4,Win32,59.95203837,628b806c463b948bc644b84f,629b00900f64a7544c597aee,,space,12.708,space,3.053,0,0,0,0,1,X V Q F H G B L J M P D K C T S W R N Z,,,,,,,,,,,,,,,,,,,,,,,,,,,,,,,,,,,,,,,,,,,,,,,,,,,,,,,,,,,,,,,,,,,,,,,,,,,,,,,,,,,,,,,,,,,,,
,,,,,,,,,60accfb2fbc5535b37a90903,24,Mężczyzna,2022-06-04_08h50.25.201,task,2021.1.4,Win32,59.95203837,628b806c463b948bc644b84f,629b00900f64a7544c597aee,,,,,,1,0,1,0,1,X V Q F H G B L J M P D K C T S W R N Z,,,,,,,,,,,,,,,,,,,,,,,,,,,,,,,,,,,,,,,,,,,,,,,,,,,,,,,,,,,,,,,,,,,,,,,,,,,,,,,,,,,,,,,,,,,,,
,,,,,,,,,60accfb2fbc5535b37a90903,24,Mężczyzna,2022-06-04_08h50.25.201,task,2021.1.4,Win32,59.95203837,628b806c463b948bc644b84f,629b00900f64a7544c597aee,,,,,,,,,,,,zr,"[""z"",""r""]","[1.4390000000000214,1.6750000000000114,1.9250000000000114]",1,ZR,0,0,0,0,1,,,,,,,,,,,,,,,,,,,,,,,,,,,,,,,,,,,,,,,,,,,,,,,,,,,,,,,,,,,,,,,,,,,,,,,,,,,,,,,,,,,
,,,,,,,,,60accfb2fbc5535b37a90903,24,Mężczyzna,2022-06-04_08h50.25.201,task,2021.1.4,Win32,59.95203837,628b806c463b948bc644b84f,629b00900f64a7544c597aee,,,,,,0,0,0,0,1,X V Q F H G B L J M P D K C T S W R N Z,,,,,,,,,,,,,,,,,,,,,,,,,,,,,,,,,,,,,,,,,,,,,,,,,,,,,,,,,,,,,,,,,,,,,,,,,,,,,,,,,,,,,,,,,,,,,
,,,,,,,,,60accfb2fbc5535b37a90903,24,Mężczyzna,2022-06-04_08h50.25.201,task,2021.1.4,Win32,59.95203837,628b806c463b948bc644b84f,629b00900f64a7544c597aee,,,,,,1,0,1,0,1,X V Q F H G B L J M P D K C T S W R N Z,,,,,,,,,,,,,,,,,,,,,,,,,,,,,,,,,,,,,,,,,,,,,,,,,,,,,,,,,,,,,,,,,,,,,,,,,,,,,,,,,,,,,,,,,,,,,
,,,,,,,,,60accfb2fbc5535b37a90903,24,Mężczyzna,2022-06-04_08h50.25.201,task,2021.1.4,Win32,59.95203837,628b806c463b948bc644b84f,629b00900f64a7544c597aee,,,,,,,,,,,,ls,"[""l"",""s""]","[0.4679999999999609,0.58299999999997,0.7350000000000136]",1,LS,1,0,1,0,1,,,,,,,,,,,,,,,,,,,,,,,,,,,,,,,,,,,,,,,,,,,,,,,,,,,,,,,,,,,,,,,,,,,,,,,,,,,,,,,,,,,
,,,,,,,,,60accfb2fbc5535b37a90903,24,Mężczyzna,2022-06-04_08h50.25.201,task,2021.1.4,Win32,59.95203837,628b806c463b948bc644b84f,629b00900f64a7544c597aee,,,,,,0,0,0,0,1,X V Q F H G B L J M P D K C T S W R N Z,,,,,,,,,,,,,,,,,,,,,,,,,,,,,,,,,,,,,,,,,,,,,,,,,,,,,,,,,,,,,,,,,,,,,,,,,,,,,,,,,,,,,,,,,,,,,
,,,,,,,,,60accfb2fbc5535b37a90903,24,Mężczyzna,2022-06-04_08h50.25.201,task,2021.1.4,Win32,59.95203837,628b806c463b948bc644b84f,629b00900f64a7544c597aee,,,,,,1,0,1,0,1,X V Q F H G B L J M P D K C T S W R N Z,,,,,,,,,,,,,,,,,,,,,,,,,,,,,,,,,,,,,,,,,,,,,,,,,,,,,,,,,,,,,,,,,,,,,,,,,,,,,,,,,,,,,,,,,,,,,
,,,,,,,,,60accfb2fbc5535b37a90903,24,Mężczyzna,2022-06-04_08h50.25.201,task,2021.1.4,Win32,59.95203837,628b806c463b948bc644b84f,629b00900f64a7544c597aee,,,,,,2,0,2,0,1,X V Q F H G B L J M P D K C T S W R N Z,,,,,,,,,,,,,,,,,,,,,,,,,,,,,,,,,,,,,,,,,,,,,,,,,,,,,,,,,,,,,,,,,,,,,,,,,,,,,,,,,,,,,,,,,,,,,
,,,,,,,,,60accfb2fbc5535b37a90903,24,Mężczyzna,2022-06-04_08h50.25.201,task,2021.1.4,Win32,59.95203837,628b806c463b948bc644b84f,629b00900f64a7544c597aee,,,,,,,,,,,,nns,"[""n"",""n"",""s""]","[0.40300000000002,0.5370000000000346,0.6680000000000064,0.8020000000000209]",1,NNS,2,0,2,0,1,,,,,,,,,,,,,,,,,,,,,,,,,,,,,,,,,,,,,,,,,,,,,,,,,,,,,,,,,,,,,,,,,,,,,,,,,,,,,,,,,,,
,,,,,,,,,60accfb2fbc5535b37a90903,24,Mężczyzna,2022-06-04_08h50.25.201,task,2021.1.4,Win32,59.95203837,628b806c463b948bc644b84f,629b00900f64a7544c597aee,,,,,,0,0,0,0,1,X V Q F H G B L J M P D K C T S W R N Z,,,,,,,,,,,,,,,,,,,,,,,,,,,,,,,,,,,,,,,,,,,,,,,,,,,,,,,,,,,,,,,,,,,,,,,,,,,,,,,,,,,,,,,,,,,,,
,,,,,,,,,60accfb2fbc5535b37a90903,24,Mężczyzna,2022-06-04_08h50.25.201,task,2021.1.4,Win32,59.95203837,628b806c463b948bc644b84f,629b00900f64a7544c597aee,,,,,,1,0,1,0,1,X V Q F H G B L J M P D K C T S W R N Z,,,,,,,,,,,,,,,,,,,,,,,,,,,,,,,,,,,,,,,,,,,,,,,,,,,,,,,,,,,,,,,,,,,,,,,,,,,,,,,,,,,,,,,,,,,,,
,,,,,,,,,60accfb2fbc5535b37a90903,24,Mężczyzna,2022-06-04_08h50.25.201,task,2021.1.4,Win32,59.95203837,628b806c463b948bc644b84f,629b00900f64a7544c597aee,,,,,,2,0,2,0,1,X V Q F H G B L J M P D K C T S W R N Z,,,,,,,,,,,,,,,,,,,,,,,,,,,,,,,,,,,,,,,,,,,,,,,,,,,,,,,,,,,,,,,,,,,,,,,,,,,,,,,,,,,,,,,,,,,,,
,,,,,,,,,60accfb2fbc5535b37a90903,24,Mężczyzna,2022-06-04_08h50.25.201,task,2021.1.4,Win32,59.95203837,628b806c463b948bc644b84f,629b00900f64a7544c597aee,,,,,,,,,,,,vmk,"[""v"",""m"",""k""]","[0.5349999999999682,0.6649999999999636,0.7849999999999682,1.0009999999999764]",1,VMK,3,0,3,0,1,,,,,,,,,,,,,,,,,,,,,,,,,,,,,,,,,,,,,,,,,,,,,,,,,,,,,,,,,,,,,,,,,,,,,,,,,,,,,,,,,,,
,,,,,,,,,60accfb2fbc5535b37a90903,24,Mężczyzna,2022-06-04_08h50.25.201,task,2021.1.4,Win32,59.95203837,628b806c463b948bc644b84f,629b00900f64a7544c597aee,,,,,,0,0,0,0,1,X V Q F H G B L J M P D K C T S W R N Z,,,,,,,,,,,,,,,,,,,,,,,,,,,,,,,,,,,,,,,,,,,,,,,,,,,,,,,,,,,,,,,,,,,,,,,,,,,,,,,,,,,,,,,,,,,,,
,,,,,,,,,60accfb2fbc5535b37a90903,24,Mężczyzna,2022-06-04_08h50.25.201,task,2021.1.4,Win32,59.95203837,628b806c463b948bc644b84f,629b00900f64a7544c597aee,,,,,,1,0,1,0,1,X V Q F H G B L J M P D K C T S W R N Z,,,,,,,,,,,,,,,,,,,,,,,,,,,,,,,,,,,,,,,,,,,,,,,,,,,,,,,,,,,,,,,,,,,,,,,,,,,,,,,,,,,,,,,,,,,,,
,,,,,,,,,60accfb2fbc5535b37a90903,24,Mężczyzna,2022-06-04_08h50.25.201,task,2021.1.4,Win32,59.95203837,628b806c463b948bc644b84f,629b00900f64a7544c597aee,,,,,,2,0,2,0,1,X V Q F H G B L J M P D K C T S W R N Z,,,,,,,,,,,,,,,,,,,,,,,,,,,,,,,,,,,,,,,,,,,,,,,,,,,,,,,,,,,,,,,,,,,,,,,,,,,,,,,,,,,,,,,,,,,,,
,,,,,,,,,60accfb2fbc5535b37a90903,24,Mężczyzna,2022-06-04_08h50.25.201,task,2021.1.4,Win32,59.95203837,628b806c463b948bc644b84f,629b00900f64a7544c597aee,,,,,,3,0,3,0,1,X V Q F H G B L J M P D K C T S W R N Z,,,,,,,,,,,,,,,,,,,,,,,,,,,,,,,,,,,,,,,,,,,,,,,,,,,,,,,,,,,,,,,,,,,,,,,,,,,,,,,,,,,,,,,,,,,,,
,,,,,,,,,60accfb2fbc5535b37a90903,24,Mężczyzna,2022-06-04_08h50.25.201,task,2021.1.4,Win32,59.95203837,628b806c463b948bc644b84f,629b00900f64a7544c597aee,,,,,,,,,,,,ssjn,"[""s"",""s"",""j"",""n""]","[0.38700000000000045,0.5519999999999641,0.7040000000000077,0.867999999999995,1.0709999999999695]",1,SSJN,4,0,4,0,1,,,,,,,,,,,,,,,,,,,,,,,,,,,,,,,,,,,,,,,,,,,,,,,,,,,,,,,,,,,,,,,,,,,,,,,,,,,,,,,,,,,
,,,,,,,,,60accfb2fbc5535b37a90903,24,Mężczyzna,2022-06-04_08h50.25.201,task,2021.1.4,Win32,59.95203837,628b806c463b948bc644b84f,629b00900f64a7544c597aee,,,,,,0,0,0,0,1,X V Q F H G B L J M P D K C T S W R N Z,,,,,,,,,,,,,,,,,,,,,,,,,,,,,,,,,,,,,,,,,,,,,,,,,,,,,,,,,,,,,,,,,,,,,,,,,,,,,,,,,,,,,,,,,,,,,
,,,,,,,,,60accfb2fbc5535b37a90903,24,Mężczyzna,2022-06-04_08h50.25.201,task,2021.1.4,Win32,59.95203837,628b806c463b948bc644b84f,629b00900f64a7544c597aee,,,,,,1,0,1,0,1,X V Q F H G B L J M P D K C T S W R N Z,,,,,,,,,,,,,,,,,,,,,,,,,,,,,,,,,,,,,,,,,,,,,,,,,,,,,,,,,,,,,,,,,,,,,,,,,,,,,,,,,,,,,,,,,,,,,
,,,,,,,,,60accfb2fbc5535b37a90903,24,Mężczyzna,2022-06-04_08h50.25.201,task,2021.1.4,Win32,59.95203837,628b806c463b948bc644b84f,629b00900f64a7544c597aee,,,,,,2,0,2,0,1,X V Q F H G B L J M P D K C T S W R N Z,,,,,,,,,,,,,,,,,,,,,,,,,,,,,,,,,,,,,,,,,,,,,,,,,,,,,,,,,,,,,,,,,,,,,,,,,,,,,,,,,,,,,,,,,,,,,
,,,,,,,,,60accfb2fbc5535b37a90903,24,Mężczyzna,2022-06-04_08h50.25.201,task,2021.1.4,Win32,59.95203837,628b806c463b948bc644b84f,629b00900f64a7544c597aee,,,,,,3,0,3,0,1,X V Q F H G B L J M P D K C T S W R N Z,,,,,,,,,,,,,,,,,,,,,,,,,,,,,,,,,,,,,,,,,,,,,,,,,,,,,,,,,,,,,,,,,,,,,,,,,,,,,,,,,,,,,,,,,,,,,
,,,,,,,,,60accfb2fbc5535b37a90903,24,Mężczyzna,2022-06-04_08h50.25.201,task,2021.1.4,Win32,59.95203837,628b806c463b948bc644b84f,629b00900f64a7544c597aee,,,,,,,,,,,,jlbl,"[""j"",""l"",""b"",""l""]","[0.5190000000000055,0.771000000000015,1.1659999999999968,1.4019999999999868,1.65300000000002]",1,JLBL,5,0,5,0,1,,,,,,,,,,,,,,,,,,,,,,,,,,,,,,,,,,,,,,,,,,,,,,,,,,,,,,,,,,,,,,,,,,,,,,,,,,,,,,,,,,,
,,,,,,,,,60accfb2fbc5535b37a90903,24,Mężczyzna,2022-06-04_08h50.25.201,task,2021.1.4,Win32,59.95203837,628b806c463b948bc644b84f,629b00900f64a7544c597aee,,,,,,0,0,0,0,1,X V Q F H G B L J M P D K C T S W R N Z,,,,,,,,,,,,,,,,,,,,,,,,,,,,,,,,,,,,,,,,,,,,,,,,,,,,,,,,,,,,,,,,,,,,,,,,,,,,,,,,,,,,,,,,,,,,,
,,,,,,,,,60accfb2fbc5535b37a90903,24,Mężczyzna,2022-06-04_08h50.25.201,task,2021.1.4,Win32,59.95203837,628b806c463b948bc644b84f,629b00900f64a7544c597aee,,,,,,1,0,1,0,1,X V Q F H G B L J M P D K C T S W R N Z,,,,,,,,,,,,,,,,,,,,,,,,,,,,,,,,,,,,,,,,,,,,,,,,,,,,,,,,,,,,,,,,,,,,,,,,,,,,,,,,,,,,,,,,,,,,,
,,,,,,,,,60accfb2fbc5535b37a90903,24,Mężczyzna,2022-06-04_08h50.25.201,task,2021.1.4,Win32,59.95203837,628b806c463b948bc644b84f,629b00900f64a7544c597aee,,,,,,2,0,2,0,1,X V Q F H G B L J M P D K C T S W R N Z,,,,,,,,,,,,,,,,,,,,,,,,,,,,,,,,,,,,,,,,,,,,,,,,,,,,,,,,,,,,,,,,,,,,,,,,,,,,,,,,,,,,,,,,,,,,,
,,,,,,,,,60accfb2fbc5535b37a90903,24,Mężczyzna,2022-06-04_08h50.25.201,task,2021.1.4,Win32,59.95203837,628b806c463b948bc644b84f,629b00900f64a7544c597aee,,,,,,3,0,3,0,1,X V Q F H G B L J M P D K C T S W R N Z,,,,,,,,,,,,,,,,,,,,,,,,,,,,,,,,,,,,,,,,,,,,,,,,,,,,,,,,,,,,,,,,,,,,,,,,,,,,,,,,,,,,,,,,,,,,,
,,,,,,,,,60accfb2fbc5535b37a90903,24,Mężczyzna,2022-06-04_08h50.25.201,task,2021.1.4,Win32,59.95203837,628b806c463b948bc644b84f,629b00900f64a7544c597aee,,,,,,4,0,4,0,1,X V Q F H G B L J M P D K C T S W R N Z,,,,,,,,,,,,,,,,,,,,,,,,,,,,,,,,,,,,,,,,,,,,,,,,,,,,,,,,,,,,,,,,,,,,,,,,,,,,,,,,,,,,,,,,,,,,,
,,,,,,,,,60accfb2fbc5535b37a90903,24,Mężczyzna,2022-06-04_08h50.25.201,task,2021.1.4,Win32,59.95203837,628b806c463b948bc644b84f,629b00900f64a7544c597aee,,,,,,,,,,,,kddrz,"[""k"",""d"",""d"",""r"",""z""]","[0.3849999999999909,0.6019999999999754,0.7339999999999804,0.9449999999999932,1.1199999999999477,1.3649999999999523]",1,KDDRZ,6,0,6,0,1,,,,,,,,,,,,,,,,,,,,,,,,,,,,,,,,,,,,,,,,,,,,,,,,,,,,,,,,,,,,,,,,,,,,,,,,,,,,,,,,,,,
,,,,,,,,,60accfb2fbc5535b37a90903,24,Mężczyzna,2022-06-04_08h50.25.201,task,2021.1.4,Win32,59.95203837,628b806c463b948bc644b84f,629b00900f64a7544c597aee,,,,,,0,0,0,0,1,X V Q F H G B L J M P D K C T S W R N Z,,,,,,,,,,,,,,,,,,,,,,,,,,,,,,,,,,,,,,,,,,,,,,,,,,,,,,,,,,,,,,,,,,,,,,,,,,,,,,,,,,,,,,,,,,,,,
,,,,,,,,,60accfb2fbc5535b37a90903,24,Mężczyzna,2022-06-04_08h50.25.201,task,2021.1.4,Win32,59.95203837,628b806c463b948bc644b84f,629b00900f64a7544c597aee,,,,,,1,0,1,0,1,X V Q F H G B L J M P D K C T S W R N Z,,,,,,,,,,,,,,,,,,,,,,,,,,,,,,,,,,,,,,,,,,,,,,,,,,,,,,,,,,,,,,,,,,,,,,,,,,,,,,,,,,,,,,,,,,,,,
,,,,,,,,,60accfb2fbc5535b37a90903,24,Mężczyzna,2022-06-04_08h50.25.201,task,2021.1.4,Win32,59.95203837,628b806c463b948bc644b84f,629b00900f64a7544c597aee,,,,,,2,0,2,0,1,X V Q F H G B L J M P D K C T S W R N Z,,,,,,,,,,,,,,,,,,,,,,,,,,,,,,,,,,,,,,,,,,,,,,,,,,,,,,,,,,,,,,,,,,,,,,,,,,,,,,,,,,,,,,,,,,,,,
,,,,,,,,,60accfb2fbc5535b37a90903,24,Mężczyzna,2022-06-04_08h50.25.201,task,2021.1.4,Win32,59.95203837,628b806c463b948bc644b84f,629b00900f64a7544c597aee,,,,,,3,0,3,0,1,X V Q F H G B L J M P D K C T S W R N Z,,,,,,,,,,,,,,,,,,,,,,,,,,,,,,,,,,,,,,,,,,,,,,,,,,,,,,,,,,,,,,,,,,,,,,,,,,,,,,,,,,,,,,,,,,,,,
,,,,,,,,,60accfb2fbc5535b37a90903,24,Mężczyzna,2022-06-04_08h50.25.201,task,2021.1.4,Win32,59.95203837,628b806c463b948bc644b84f,629b00900f64a7544c597aee,,,,,,4,0,4,0,1,X V Q F H G B L J M P D K C T S W R N Z,,,,,,,,,,,,,,,,,,,,,,,,,,,,,,,,,,,,,,,,,,,,,,,,,,,,,,,,,,,,,,,,,,,,,,,,,,,,,,,,,,,,,,,,,,,,,
,,,,,,,,,60accfb2fbc5535b37a90903,24,Mężczyzna,2022-06-04_08h50.25.201,task,2021.1.4,Win32,59.95203837,628b806c463b948bc644b84f,629b00900f64a7544c597aee,,,,,,,,,,,,wkclh,"[""w"",""k"",""c"",""l"",""h""]","[0.4319999999999595,0.6319999999999482,1.030999999999949,1.2159999999999513,1.829999999999984,1.9809999999999945]",1,WKCLH,7,0,7,0,1,,,,,,,,,,,,,,,,,,,,,,,,,,,,,,,,,,,,,,,,,,,,,,,,,,,,,,,,,,,,,,,,,,,,,,,,,,,,,,,,,,,
,,,,,,,,,60accfb2fbc5535b37a90903,24,Mężczyzna,2022-06-04_08h50.25.201,task,2021.1.4,Win32,59.95203837,628b806c463b948bc644b84f,629b00900f64a7544c597aee,,,,,,0,0,0,0,1,X V Q F H G B L J M P D K C T S W R N Z,,,,,,,,,,,,,,,,,,,,,,,,,,,,,,,,,,,,,,,,,,,,,,,,,,,,,,,,,,,,,,,,,,,,,,,,,,,,,,,,,,,,,,,,,,,,,
,,,,,,,,,60accfb2fbc5535b37a90903,24,Mężczyzna,2022-06-04_08h50.25.201,task,2021.1.4,Win32,59.95203837,628b806c463b948bc644b84f,629b00900f64a7544c597aee,,,,,,1,0,1,0,1,X V Q F H G B L J M P D K C T S W R N Z,,,,,,,,,,,,,,,,,,,,,,,,,,,,,,,,,,,,,,,,,,,,,,,,,,,,,,,,,,,,,,,,,,,,,,,,,,,,,,,,,,,,,,,,,,,,,
,,,,,,,,,60accfb2fbc5535b37a90903,24,Mężczyzna,2022-06-04_08h50.25.201,task,2021.1.4,Win32,59.95203837,628b806c463b948bc644b84f,629b00900f64a7544c597aee,,,,,,2,0,2,0,1,X V Q F H G B L J M P D K C T S W R N Z,,,,,,,,,,,,,,,,,,,,,,,,,,,,,,,,,,,,,,,,,,,,,,,,,,,,,,,,,,,,,,,,,,,,,,,,,,,,,,,,,,,,,,,,,,,,,
,,,,,,,,,60accfb2fbc5535b37a90903,24,Mężczyzna,2022-06-04_08h50.25.201,task,2021.1.4,Win32,59.95203837,628b806c463b948bc644b84f,629b00900f64a7544c597aee,,,,,,3,0,3,0,1,X V Q F H G B L J M P D K C T S W R N Z,,,,,,,,,,,,,,,,,,,,,,,,,,,,,,,,,,,,,,,,,,,,,,,,,,,,,,,,,,,,,,,,,,,,,,,,,,,,,,,,,,,,,,,,,,,,,
,,,,,,,,,60accfb2fbc5535b37a90903,24,Mężczyzna,2022-06-04_08h50.25.201,task,2021.1.4,Win32,59.95203837,628b806c463b948bc644b84f,629b00900f64a7544c597aee,,,,,,4,0,4,0,1,X V Q F H G B L J M P D K C T S W R N Z,,,,,,,,,,,,,,,,,,,,,,,,,,,,,,,,,,,,,,,,,,,,,,,,,,,,,,,,,,,,,,,,,,,,,,,,,,,,,,,,,,,,,,,,,,,,,
,,,,,,,,,60accfb2fbc5535b37a90903,24,Mężczyzna,2022-06-04_08h50.25.201,task,2021.1.4,Win32,59.95203837,628b806c463b948bc644b84f,629b00900f64a7544c597aee,,,,,,5,0,5,0,1,X V Q F H G B L J M P D K C T S W R N Z,,,,,,,,,,,,,,,,,,,,,,,,,,,,,,,,,,,,,,,,,,,,,,,,,,,,,,,,,,,,,,,,,,,,,,,,,,,,,,,,,,,,,,,,,,,,,
,,,,,,,,,60accfb2fbc5535b37a90903,24,Mężczyzna,2022-06-04_08h50.25.201,task,2021.1.4,Win32,59.95203837,628b806c463b948bc644b84f,629b00900f64a7544c597aee,,,,,,,,,,,,zppllt,"[""z"",""p"",""p"",""l"",""l"",""t""]","[0.37100000000003774,0.6370000000000005,0.7860000000000014,1.1160000000000423,1.26400000000001,1.4370000000000118,1.586999999999989]",1,ZPPLLT,8,0,8,0,1,,,,,,,,,,,,,,,,,,,,,,,,,,,,,,,,,,,,,,,,,,,,,,,,,,,,,,,,,,,,,,,,,,,,,,,,,,,,,,,,,,,
,,,,,,,,,60accfb2fbc5535b37a90903,24,Mężczyzna,2022-06-04_08h50.25.201,task,2021.1.4,Win32,59.95203837,628b806c463b948bc644b84f,629b00900f64a7544c597aee,,,,,,0,0,0,0,1,X V Q F H G B L J M P D K C T S W R N Z,,,,,,,,,,,,,,,,,,,,,,,,,,,,,,,,,,,,,,,,,,,,,,,,,,,,,,,,,,,,,,,,,,,,,,,,,,,,,,,,,,,,,,,,,,,,,
,,,,,,,,,60accfb2fbc5535b37a90903,24,Mężczyzna,2022-06-04_08h50.25.201,task,2021.1.4,Win32,59.95203837,628b806c463b948bc644b84f,629b00900f64a7544c597aee,,,,,,1,0,1,0,1,X V Q F H G B L J M P D K C T S W R N Z,,,,,,,,,,,,,,,,,,,,,,,,,,,,,,,,,,,,,,,,,,,,,,,,,,,,,,,,,,,,,,,,,,,,,,,,,,,,,,,,,,,,,,,,,,,,,
,,,,,,,,,60accfb2fbc5535b37a90903,24,Mężczyzna,2022-06-04_08h50.25.201,task,2021.1.4,Win32,59.95203837,628b806c463b948bc644b84f,629b00900f64a7544c597aee,,,,,,2,0,2,0,1,X V Q F H G B L J M P D K C T S W R N Z,,,,,,,,,,,,,,,,,,,,,,,,,,,,,,,,,,,,,,,,,,,,,,,,,,,,,,,,,,,,,,,,,,,,,,,,,,,,,,,,,,,,,,,,,,,,,
,,,,,,,,,60accfb2fbc5535b37a90903,24,Mężczyzna,2022-06-04_08h50.25.201,task,2021.1.4,Win32,59.95203837,628b806c463b948bc644b84f,629b00900f64a7544c597aee,,,,,,3,0,3,0,1,X V Q F H G B L J M P D K C T S W R N Z,,,,,,,,,,,,,,,,,,,,,,,,,,,,,,,,,,,,,,,,,,,,,,,,,,,,,,,,,,,,,,,,,,,,,,,,,,,,,,,,,,,,,,,,,,,,,
,,,,,,,,,60accfb2fbc5535b37a90903,24,Mężczyzna,2022-06-04_08h50.25.201,task,2021.1.4,Win32,59.95203837,628b806c463b948bc644b84f,629b00900f64a7544c597aee,,,,,,4,0,4,0,1,X V Q F H G B L J M P D K C T S W R N Z,,,,,,,,,,,,,,,,,,,,,,,,,,,,,,,,,,,,,,,,,,,,,,,,,,,,,,,,,,,,,,,,,,,,,,,,,,,,,,,,,,,,,,,,,,,,,
,,,,,,,,,60accfb2fbc5535b37a90903,24,Mężczyzna,2022-06-04_08h50.25.201,task,2021.1.4,Win32,59.95203837,628b806c463b948bc644b84f,629b00900f64a7544c597aee,,,,,,5,0,5,0,1,X V Q F H G B L J M P D K C T S W R N Z,,,,,,,,,,,,,,,,,,,,,,,,,,,,,,,,,,,,,,,,,,,,,,,,,,,,,,,,,,,,,,,,,,,,,,,,,,,,,,,,,,,,,,,,,,,,,
,,,,,,,,,60accfb2fbc5535b37a90903,24,Mężczyzna,2022-06-04_08h50.25.201,task,2021.1.4,Win32,59.95203837,628b806c463b948bc644b84f,629b00900f64a7544c597aee,,,,,,,,,,,,xcmkgd,"[""x"",""c"",""m"",""k"",""g"",""d""]","[0.6829999999999927,1.197999999999979,1.4319999999999595,2.0679999999999836,2.466000000000008,2.748999999999967,3.116999999999962]",1,XCMKGD,9,0,9,0,1,,,,,,,,,,,,,,,,,,,,,,,,,,,,,,,,,,,,,,,,,,,,,,,,,,,,,,,,,,,,,,,,,,,,,,,,,,,,,,,,,,,
,,,,,,,,,60accfb2fbc5535b37a90903,24,Mężczyzna,2022-06-04_08h50.25.201,task,2021.1.4,Win32,59.95203837,628b806c463b948bc644b84f,629b00900f64a7544c597aee,,,,,,0,0,0,0,1,X V Q F H G B L J M P D K C T S W R N Z,,,,,,,,,,,,,,,,,,,,,,,,,,,,,,,,,,,,,,,,,,,,,,,,,,,,,,,,,,,,,,,,,,,,,,,,,,,,,,,,,,,,,,,,,,,,,
,,,,,,,,,60accfb2fbc5535b37a90903,24,Mężczyzna,2022-06-04_08h50.25.201,task,2021.1.4,Win32,59.95203837,628b806c463b948bc644b84f,629b00900f64a7544c597aee,,,,,,1,0,1,0,1,X V Q F H G B L J M P D K C T S W R N Z,,,,,,,,,,,,,,,,,,,,,,,,,,,,,,,,,,,,,,,,,,,,,,,,,,,,,,,,,,,,,,,,,,,,,,,,,,,,,,,,,,,,,,,,,,,,,
,,,,,,,,,60accfb2fbc5535b37a90903,24,Mężczyzna,2022-06-04_08h50.25.201,task,2021.1.4,Win32,59.95203837,628b806c463b948bc644b84f,629b00900f64a7544c597aee,,,,,,2,0,2,0,1,X V Q F H G B L J M P D K C T S W R N Z,,,,,,,,,,,,,,,,,,,,,,,,,,,,,,,,,,,,,,,,,,,,,,,,,,,,,,,,,,,,,,,,,,,,,,,,,,,,,,,,,,,,,,,,,,,,,
,,,,,,,,,60accfb2fbc5535b37a90903,24,Mężczyzna,2022-06-04_08h50.25.201,task,2021.1.4,Win32,59.95203837,628b806c463b948bc644b84f,629b00900f64a7544c597aee,,,,,,3,0,3,0,1,X V Q F H G B L J M P D K C T S W R N Z,,,,,,,,,,,,,,,,,,,,,,,,,,,,,,,,,,,,,,,,,,,,,,,,,,,,,,,,,,,,,,,,,,,,,,,,,,,,,,,,,,,,,,,,,,,,,
,,,,,,,,,60accfb2fbc5535b37a90903,24,Mężczyzna,2022-06-04_08h50.25.201,task,2021.1.4,Win32,59.95203837,628b806c463b948bc644b84f,629b00900f64a7544c597aee,,,,,,4,0,4,0,1,X V Q F H G B L J M P D K C T S W R N Z,,,,,,,,,,,,,,,,,,,,,,,,,,,,,,,,,,,,,,,,,,,,,,,,,,,,,,,,,,,,,,,,,,,,,,,,,,,,,,,,,,,,,,,,,,,,,
,,,,,,,,,60accfb2fbc5535b37a90903,24,Mężczyzna,2022-06-04_08h50.25.201,task,2021.1.4,Win32,59.95203837,628b806c463b948bc644b84f,629b00900f64a7544c597aee,,,,,,5,0,5,0,1,X V Q F H G B L J M P D K C T S W R N Z,,,,,,,,,,,,,,,,,,,,,,,,,,,,,,,,,,,,,,,,,,,,,,,,,,,,,,,,,,,,,,,,,,,,,,,,,,,,,,,,,,,,,,,,,,,,,
,,,,,,,,,60accfb2fbc5535b37a90903,24,Mężczyzna,2022-06-04_08h50.25.201,task,2021.1.4,Win32,59.95203837,628b806c463b948bc644b84f,629b00900f64a7544c597aee,,,,,,6,0,6,0,1,X V Q F H G B L J M P D K C T S W R N Z,,,,,,,,,,,,,,,,,,,,,,,,,,,,,,,,,,,,,,,,,,,,,,,,,,,,,,,,,,,,,,,,,,,,,,,,,,,,,,,,,,,,,,,,,,,,,
,,,,,,,,,60accfb2fbc5535b37a90903,24,Mężczyzna,2022-06-04_08h50.25.201,task,2021.1.4,Win32,59.95203837,628b806c463b948bc644b84f,629b00900f64a7544c597aee,,,,,,,,,,,,vnzvrwh,"[""v"",""n"",""z"",""v"",""r"",""w"",""h""]","[0.34699999999998,0.5629999999999882,0.7789999999999964,1.3809999999999718,1.6469999999999914,3.09699999999998,3.447999999999979,3.7620000000000005]",1,VNZVRWH,10,0,10,0,1,,,,,,,,,,,,,,,,,,,,,,,,,,,,,,,,,,,,,,,,,,,,,,,,,,,,,,,,,,,,,,,,,,,,,,,,,,,,,,,,,,,
,,,,,,,,,60accfb2fbc5535b37a90903,24,Mężczyzna,2022-06-04_08h50.25.201,task,2021.1.4,Win32,59.95203837,628b806c463b948bc644b84f,629b00900f64a7544c597aee,,,,,,0,0,0,0,1,X V Q F H G B L J M P D K C T S W R N Z,,,,,,,,,,,,,,,,,,,,,,,,,,,,,,,,,,,,,,,,,,,,,,,,,,,,,,,,,,,,,,,,,,,,,,,,,,,,,,,,,,,,,,,,,,,,,
,,,,,,,,,60accfb2fbc5535b37a90903,24,Mężczyzna,2022-06-04_08h50.25.201,task,2021.1.4,Win32,59.95203837,628b806c463b948bc644b84f,629b00900f64a7544c597aee,,,,,,1,0,1,0,1,X V Q F H G B L J M P D K C T S W R N Z,,,,,,,,,,,,,,,,,,,,,,,,,,,,,,,,,,,,,,,,,,,,,,,,,,,,,,,,,,,,,,,,,,,,,,,,,,,,,,,,,,,,,,,,,,,,,
,,,,,,,,,60accfb2fbc5535b37a90903,24,Mężczyzna,2022-06-04_08h50.25.201,task,2021.1.4,Win32,59.95203837,628b806c463b948bc644b84f,629b00900f64a7544c597aee,,,,,,2,0,2,0,1,X V Q F H G B L J M P D K C T S W R N Z,,,,,,,,,,,,,,,,,,,,,,,,,,,,,,,,,,,,,,,,,,,,,,,,,,,,,,,,,,,,,,,,,,,,,,,,,,,,,,,,,,,,,,,,,,,,,
,,,,,,,,,60accfb2fbc5535b37a90903,24,Mężczyzna,2022-06-04_08h50.25.201,task,2021.1.4,Win32,59.95203837,628b806c463b948bc644b84f,629b00900f64a7544c597aee,,,,,,3,0,3,0,1,X V Q F H G B L J M P D K C T S W R N Z,,,,,,,,,,,,,,,,,,,,,,,,,,,,,,,,,,,,,,,,,,,,,,,,,,,,,,,,,,,,,,,,,,,,,,,,,,,,,,,,,,,,,,,,,,,,,
,,,,,,,,,60accfb2fbc5535b37a90903,24,Mężczyzna,2022-06-04_08h50.25.201,task,2021.1.4,Win32,59.95203837,628b806c463b948bc644b84f,629b00900f64a7544c597aee,,,,,,4,0,4,0,1,X V Q F H G B L J M P D K C T S W R N Z,,,,,,,,,,,,,,,,,,,,,,,,,,,,,,,,,,,,,,,,,,,,,,,,,,,,,,,,,,,,,,,,,,,,,,,,,,,,,,,,,,,,,,,,,,,,,
,,,,,,,,,60accfb2fbc5535b37a90903,24,Mężczyzna,2022-06-04_08h50.25.201,task,2021.1.4,Win32,59.95203837,628b806c463b948bc644b84f,629b00900f64a7544c597aee,,,,,,5,0,5,0,1,X V Q F H G B L J M P D K C T S W R N Z,,,,,,,,,,,,,,,,,,,,,,,,,,,,,,,,,,,,,,,,,,,,,,,,,,,,,,,,,,,,,,,,,,,,,,,,,,,,,,,,,,,,,,,,,,,,,
,,,,,,,,,60accfb2fbc5535b37a90903,24,Mężczyzna,2022-06-04_08h50.25.201,task,2021.1.4,Win32,59.95203837,628b806c463b948bc644b84f,629b00900f64a7544c597aee,,,,,,6,0,6,0,1,X V Q F H G B L J M P D K C T S W R N Z,,,,,,,,,,,,,,,,,,,,,,,,,,,,,,,,,,,,,,,,,,,,,,,,,,,,,,,,,,,,,,,,,,,,,,,,,,,,,,,,,,,,,,,,,,,,,
,,,,,,,,,60accfb2fbc5535b37a90903,24,Mężczyzna,2022-06-04_08h50.25.201,task,2021.1.4,Win32,59.95203837,628b806c463b948bc644b84f,629b00900f64a7544c597aee,,,,,,,,,,,,vwzlkhg,"[""v"",""w"",""z"",""l"",""k"",""h"",""g""]","[0.48099999999999454,0.7340000000000373,0.9940000000000282,1.3000000000000114,1.7150000000000318,1.9800000000000182,2.1820000000000164,2.466000000000008]",1,VWZLKHG,11,0,11,0,1,,,,,,,,,,,,,,,,,,,,,,,,,,,,,,,,,,,,,,,,,,,,,,,,,,,,,,,,,,,,,,,,,,,,,,,,,,,,,,,,,,,
,,,,,,,,,60accfb2fbc5535b37a90903,24,Mężczyzna,2022-06-04_08h50.25.201,task,2021.1.4,Win32,59.95203837,628b806c463b948bc644b84f,629b00900f64a7544c597aee,,,,,,0,0,0,0,1,X V Q F H G B L J M P D K C T S W R N Z,,,,,,,,,,,,,,,,,,,,,,,,,,,,,,,,,,,,,,,,,,,,,,,,,,,,,,,,,,,,,,,,,,,,,,,,,,,,,,,,,,,,,,,,,,,,,
,,,,,,,,,60accfb2fbc5535b37a90903,24,Mężczyzna,2022-06-04_08h50.25.201,task,2021.1.4,Win32,59.95203837,628b806c463b948bc644b84f,629b00900f64a7544c597aee,,,,,,1,0,1,0,1,X V Q F H G B L J M P D K C T S W R N Z,,,,,,,,,,,,,,,,,,,,,,,,,,,,,,,,,,,,,,,,,,,,,,,,,,,,,,,,,,,,,,,,,,,,,,,,,,,,,,,,,,,,,,,,,,,,,
,,,,,,,,,60accfb2fbc5535b37a90903,24,Mężczyzna,2022-06-04_08h50.25.201,task,2021.1.4,Win32,59.95203837,628b806c463b948bc644b84f,629b00900f64a7544c597aee,,,,,,2,0,2,0,1,X V Q F H G B L J M P D K C T S W R N Z,,,,,,,,,,,,,,,,,,,,,,,,,,,,,,,,,,,,,,,,,,,,,,,,,,,,,,,,,,,,,,,,,,,,,,,,,,,,,,,,,,,,,,,,,,,,,
,,,,,,,,,60accfb2fbc5535b37a90903,24,Mężczyzna,2022-06-04_08h50.25.201,task,2021.1.4,Win32,59.95203837,628b806c463b948bc644b84f,629b00900f64a7544c597aee,,,,,,3,0,3,0,1,X V Q F H G B L J M P D K C T S W R N Z,,,,,,,,,,,,,,,,,,,,,,,,,,,,,,,,,,,,,,,,,,,,,,,,,,,,,,,,,,,,,,,,,,,,,,,,,,,,,,,,,,,,,,,,,,,,,
,,,,,,,,,60accfb2fbc5535b37a90903,24,Mężczyzna,2022-06-04_08h50.25.201,task,2021.1.4,Win32,59.95203837,628b806c463b948bc644b84f,629b00900f64a7544c597aee,,,,,,4,0,4,0,1,X V Q F H G B L J M P D K C T S W R N Z,,,,,,,,,,,,,,,,,,,,,,,,,,,,,,,,,,,,,,,,,,,,,,,,,,,,,,,,,,,,,,,,,,,,,,,,,,,,,,,,,,,,,,,,,,,,,
,,,,,,,,,60accfb2fbc5535b37a90903,24,Mężczyzna,2022-06-04_08h50.25.201,task,2021.1.4,Win32,59.95203837,628b806c463b948bc644b84f,629b00900f64a7544c597aee,,,,,,5,0,5,0,1,X V Q F H G B L J M P D K C T S W R N Z,,,,,,,,,,,,,,,,,,,,,,,,,,,,,,,,,,,,,,,,,,,,,,,,,,,,,,,,,,,,,,,,,,,,,,,,,,,,,,,,,,,,,,,,,,,,,
,,,,,,,,,60accfb2fbc5535b37a90903,24,Mężczyzna,2022-06-04_08h50.25.201,task,2021.1.4,Win32,59.95203837,628b806c463b948bc644b84f,629b00900f64a7544c597aee,,,,,,6,0,6,0,1,X V Q F H G B L J M P D K C T S W R N Z,,,,,,,,,,,,,,,,,,,,,,,,,,,,,,,,,,,,,,,,,,,,,,,,,,,,,,,,,,,,,,,,,,,,,,,,,,,,,,,,,,,,,,,,,,,,,
,,,,,,,,,60accfb2fbc5535b37a90903,24,Mężczyzna,2022-06-04_08h50.25.201,task,2021.1.4,Win32,59.95203837,628b806c463b948bc644b84f,629b00900f64a7544c597aee,,,,,,7,0,7,0,1,X V Q F H G B L J M P D K C T S W R N Z,,,,,,,,,,,,,,,,,,,,,,,,,,,,,,,,,,,,,,,,,,,,,,,,,,,,,,,,,,,,,,,,,,,,,,,,,,,,,,,,,,,,,,,,,,,,,
,,,,,,,,,60accfb2fbc5535b37a90903,24,Mężczyzna,2022-06-04_08h50.25.201,task,2021.1.4,Win32,59.95203837,628b806c463b948bc644b84f,629b00900f64a7544c597aee,,,,,,,,,,,,lwjjczzd,"[""l"",""w"",""j"",""j"",""c"",""z"",""z"",""d""]","[0.6020000000000323,0.82000000000005,1.1000000000000227,1.2510000000000332,1.5529999999999973,2.4020000000000437,2.5860000000000127,2.719000000000051,3.069000000000017]",0,LDJJCDZD,12,0,12,0,1,,,,,,,,,,,,,,,,,,,,,,,,,,,,,,,,,,,,,,,,,,,,,,,,,,,,,,,,,,,,,,,,,,,,,,,,,,,,,,,,,,,
,,,,,,,,,60accfb2fbc5535b37a90903,24,Mężczyzna,2022-06-04_08h50.25.201,task,2021.1.4,Win32,59.95203837,628b806c463b948bc644b84f,629b00900f64a7544c597aee,,,,,,0,0,0,0,1,X V Q F H G B L J M P D K C T S W R N Z,,,,,,,,,,,,,,,,,,,,,,,,,,,,,,,,,,,,,,,,,,,,,,,,,,,,,,,,,,,,,,,,,,,,,,,,,,,,,,,,,,,,,,,,,,,,,
,,,,,,,,,60accfb2fbc5535b37a90903,24,Mężczyzna,2022-06-04_08h50.25.201,task,2021.1.4,Win32,59.95203837,628b806c463b948bc644b84f,629b00900f64a7544c597aee,,,,,,1,0,1,0,1,X V Q F H G B L J M P D K C T S W R N Z,,,,,,,,,,,,,,,,,,,,,,,,,,,,,,,,,,,,,,,,,,,,,,,,,,,,,,,,,,,,,,,,,,,,,,,,,,,,,,,,,,,,,,,,,,,,,
,,,,,,,,,60accfb2fbc5535b37a90903,24,Mężczyzna,2022-06-04_08h50.25.201,task,2021.1.4,Win32,59.95203837,628b806c463b948bc644b84f,629b00900f64a7544c597aee,,,,,,2,0,2,0,1,X V Q F H G B L J M P D K C T S W R N Z,,,,,,,,,,,,,,,,,,,,,,,,,,,,,,,,,,,,,,,,,,,,,,,,,,,,,,,,,,,,,,,,,,,,,,,,,,,,,,,,,,,,,,,,,,,,,
,,,,,,,,,60accfb2fbc5535b37a90903,24,Mężczyzna,2022-06-04_08h50.25.201,task,2021.1.4,Win32,59.95203837,628b806c463b948bc644b84f,629b00900f64a7544c597aee,,,,,,3,0,3,0,1,X V Q F H G B L J M P D K C T S W R N Z,,,,,,,,,,,,,,,,,,,,,,,,,,,,,,,,,,,,,,,,,,,,,,,,,,,,,,,,,,,,,,,,,,,,,,,,,,,,,,,,,,,,,,,,,,,,,
,,,,,,,,,60accfb2fbc5535b37a90903,24,Mężczyzna,2022-06-04_08h50.25.201,task,2021.1.4,Win32,59.95203837,628b806c463b948bc644b84f,629b00900f64a7544c597aee,,,,,,4,0,4,0,1,X V Q F H G B L J M P D K C T S W R N Z,,,,,,,,,,,,,,,,,,,,,,,,,,,,,,,,,,,,,,,,,,,,,,,,,,,,,,,,,,,,,,,,,,,,,,,,,,,,,,,,,,,,,,,,,,,,,
,,,,,,,,,60accfb2fbc5535b37a90903,24,Mężczyzna,2022-06-04_08h50.25.201,task,2021.1.4,Win32,59.95203837,628b806c463b948bc644b84f,629b00900f64a7544c597aee,,,,,,5,0,5,0,1,X V Q F H G B L J M P D K C T S W R N Z,,,,,,,,,,,,,,,,,,,,,,,,,,,,,,,,,,,,,,,,,,,,,,,,,,,,,,,,,,,,,,,,,,,,,,,,,,,,,,,,,,,,,,,,,,,,,
,,,,,,,,,60accfb2fbc5535b37a90903,24,Mężczyzna,2022-06-04_08h50.25.201,task,2021.1.4,Win32,59.95203837,628b806c463b948bc644b84f,629b00900f64a7544c597aee,,,,,,6,0,6,0,1,X V Q F H G B L J M P D K C T S W R N Z,,,,,,,,,,,,,,,,,,,,,,,,,,,,,,,,,,,,,,,,,,,,,,,,,,,,,,,,,,,,,,,,,,,,,,,,,,,,,,,,,,,,,,,,,,,,,
,,,,,,,,,60accfb2fbc5535b37a90903,24,Mężczyzna,2022-06-04_08h50.25.201,task,2021.1.4,Win32,59.95203837,628b806c463b948bc644b84f,629b00900f64a7544c597aee,,,,,,7,0,7,0,1,X V Q F H G B L J M P D K C T S W R N Z,,,,,,,,,,,,,,,,,,,,,,,,,,,,,,,,,,,,,,,,,,,,,,,,,,,,,,,,,,,,,,,,,,,,,,,,,,,,,,,,,,,,,,,,,,,,,
,,,,,,,,,60accfb2fbc5535b37a90903,24,Mężczyzna,2022-06-04_08h50.25.201,task,2021.1.4,Win32,59.95203837,628b806c463b948bc644b84f,629b00900f64a7544c597aee,,,,,,,,,,,,fcrhqljs,"[""f"",""c"",""r"",""h"",""q"",""l"",""j"",""s""]","[1.2999999999999545,2.211999999999989,2.599999999999966,3.483000000000004,3.6829999999999927,3.9329999999999927,4.264999999999986,5.33099999999996,52.11899999999997]",0,FCRHQLHC,13,0,13,0,1,,,,,,,,,,,,,,,,,,,,,,,,,,,,,,,,,,,,,,,,,,,,,,,,,,,,,,,,,,,,,,,,,,,,,,,,,,,,,,,,,,,
,,,,,,,,,60accfb2fbc5535b37a90903,24,Mężczyzna,2022-06-04_08h50.25.201,task,2021.1.4,Win32,59.95203837,628b806c463b948bc644b84f,629b00900f64a7544c597aee,,,,,,0,0,0,0,1,X V Q F H G B L J M P D K C T S W R N Z,,,,,,,,,,,,,,,,,,,,,,,,,,,,,,,,,,,,,,,,,,,,,,,,,,,,,,,,,,,,,,,,,,,,,,,,,,,,,,,,,,,,,,,,,,,,,
,,,,,,,,,60accfb2fbc5535b37a90903,24,Mężczyzna,2022-06-04_08h50.25.201,task,2021.1.4,Win32,59.95203837,628b806c463b948bc644b84f,629b00900f64a7544c597aee,,,,,,1,0,1,0,1,X V Q F H G B L J M P D K C T S W R N Z,,,,,,,,,,,,,,,,,,,,,,,,,,,,,,,,,,,,,,,,,,,,,,,,,,,,,,,,,,,,,,,,,,,,,,,,,,,,,,,,,,,,,,,,,,,,,
,,,,,,,,,60accfb2fbc5535b37a90903,24,Mężczyzna,2022-06-04_08h50.25.201,task,2021.1.4,Win32,59.95203837,628b806c463b948bc644b84f,629b00900f64a7544c597aee,,,,,,2,0,2,0,1,X V Q F H G B L J M P D K C T S W R N Z,,,,,,,,,,,,,,,,,,,,,,,,,,,,,,,,,,,,,,,,,,,,,,,,,,,,,,,,,,,,,,,,,,,,,,,,,,,,,,,,,,,,,,,,,,,,,
,,,,,,,,,60accfb2fbc5535b37a90903,24,Mężczyzna,2022-06-04_08h50.25.201,task,2021.1.4,Win32,59.95203837,628b806c463b948bc644b84f,629b00900f64a7544c597aee,,,,,,3,0,3,0,1,X V Q F H G B L J M P D K C T S W R N Z,,,,,,,,,,,,,,,,,,,,,,,,,,,,,,,,,,,,,,,,,,,,,,,,,,,,,,,,,,,,,,,,,,,,,,,,,,,,,,,,,,,,,,,,,,,,,
,,,,,,,,,60accfb2fbc5535b37a90903,24,Mężczyzna,2022-06-04_08h50.25.201,task,2021.1.4,Win32,59.95203837,628b806c463b948bc644b84f,629b00900f64a7544c597aee,,,,,,4,0,4,0,1,X V Q F H G B L J M P D K C T S W R N Z,,,,,,,,,,,,,,,,,,,,,,,,,,,,,,,,,,,,,,,,,,,,,,,,,,,,,,,,,,,,,,,,,,,,,,,,,,,,,,,,,,,,,,,,,,,,,
,,,,,,,,,60accfb2fbc5535b37a90903,24,Mężczyzna,2022-06-04_08h50.25.201,task,2021.1.4,Win32,59.95203837,628b806c463b948bc644b84f,629b00900f64a7544c597aee,,,,,,5,0,5,0,1,X V Q F H G B L J M P D K C T S W R N Z,,,,,,,,,,,,,,,,,,,,,,,,,,,,,,,,,,,,,,,,,,,,,,,,,,,,,,,,,,,,,,,,,,,,,,,,,,,,,,,,,,,,,,,,,,,,,
,,,,,,,,,60accfb2fbc5535b37a90903,24,Mężczyzna,2022-06-04_08h50.25.201,task,2021.1.4,Win32,59.95203837,628b806c463b948bc644b84f,629b00900f64a7544c597aee,,,,,,6,0,6,0,1,X V Q F H G B L J M P D K C T S W R N Z,,,,,,,,,,,,,,,,,,,,,,,,,,,,,,,,,,,,,,,,,,,,,,,,,,,,,,,,,,,,,,,,,,,,,,,,,,,,,,,,,,,,,,,,,,,,,
,,,,,,,,,60accfb2fbc5535b37a90903,24,Mężczyzna,2022-06-04_08h50.25.201,task,2021.1.4,Win32,59.95203837,628b806c463b948bc644b84f,629b00900f64a7544c597aee,,,,,,7,0,7,0,1,X V Q F H G B L J M P D K C T S W R N Z,,,,,,,,,,,,,,,,,,,,,,,,,,,,,,,,,,,,,,,,,,,,,,,,,,,,,,,,,,,,,,,,,,,,,,,,,,,,,,,,,,,,,,,,,,,,,
,,,,,,,,,60accfb2fbc5535b37a90903,24,Mężczyzna,2022-06-04_08h50.25.201,task,2021.1.4,Win32,59.95203837,628b806c463b948bc644b84f,629b00900f64a7544c597aee,,,,,,,,,,,,cpzdqzbc,"[""c"",""p"",""z"",""d"",""q"",""z"",""b"",""c""]","[0.9519999999999982,1.1499999999999773,1.492999999999995,2.1539999999999964,2.382000000000005,2.791999999999973,3.2860000000000014,3.4710000000000036,3.7029999999999745]",1,CPZDQZBC,14,0,14,0,1,,,,,,,,,,,,,,,,,,,,,,,,,,,,,,,,,,,,,,,,,,,,,,,,,,,,,,,,,,,,,,,,,,,,,,,,,,,,,,,,,,,
,,,,,,,,,60accfb2fbc5535b37a90903,24,Mężczyzna,2022-06-04_08h50.25.201,task,2021.1.4,Win32,59.95203837,628b806c463b948bc644b84f,629b00900f64a7544c597aee,,,,,,0,0,0,0,1,X V Q F H G B L J M P D K C T S W R N Z,,,,,,,,,,,,,,,,,,,,,,,,,,,,,,,,,,,,,,,,,,,,,,,,,,,,,,,,,,,,,,,,,,,,,,,,,,,,,,,,,,,,,,,,,,,,,
,,,,,,,,,60accfb2fbc5535b37a90903,24,Mężczyzna,2022-06-04_08h50.25.201,task,2021.1.4,Win32,59.95203837,628b806c463b948bc644b84f,629b00900f64a7544c597aee,,,,,,1,0,1,0,1,X V Q F H G B L J M P D K C T S W R N Z,,,,,,,,,,,,,,,,,,,,,,,,,,,,,,,,,,,,,,,,,,,,,,,,,,,,,,,,,,,,,,,,,,,,,,,,,,,,,,,,,,,,,,,,,,,,,
,,,,,,,,,60accfb2fbc5535b37a90903,24,Mężczyzna,2022-06-04_08h50.25.201,task,2021.1.4,Win32,59.95203837,628b806c463b948bc644b84f,629b00900f64a7544c597aee,,,,,,2,0,2,0,1,X V Q F H G B L J M P D K C T S W R N Z,,,,,,,,,,,,,,,,,,,,,,,,,,,,,,,,,,,,,,,,,,,,,,,,,,,,,,,,,,,,,,,,,,,,,,,,,,,,,,,,,,,,,,,,,,,,,
,,,,,,,,,60accfb2fbc5535b37a90903,24,Mężczyzna,2022-06-04_08h50.25.201,task,2021.1.4,Win32,59.95203837,628b806c463b948bc644b84f,629b00900f64a7544c597aee,,,,,,3,0,3,0,1,X V Q F H G B L J M P D K C T S W R N Z,,,,,,,,,,,,,,,,,,,,,,,,,,,,,,,,,,,,,,,,,,,,,,,,,,,,,,,,,,,,,,,,,,,,,,,,,,,,,,,,,,,,,,,,,,,,,
,,,,,,,,,60accfb2fbc5535b37a90903,24,Mężczyzna,2022-06-04_08h50.25.201,task,2021.1.4,Win32,59.95203837,628b806c463b948bc644b84f,629b00900f64a7544c597aee,,,,,,4,0,4,0,1,X V Q F H G B L J M P D K C T S W R N Z,,,,,,,,,,,,,,,,,,,,,,,,,,,,,,,,,,,,,,,,,,,,,,,,,,,,,,,,,,,,,,,,,,,,,,,,,,,,,,,,,,,,,,,,,,,,,
,,,,,,,,,60accfb2fbc5535b37a90903,24,Mężczyzna,2022-06-04_08h50.25.201,task,2021.1.4,Win32,59.95203837,628b806c463b948bc644b84f,629b00900f64a7544c597aee,,,,,,5,0,5,0,1,X V Q F H G B L J M P D K C T S W R N Z,,,,,,,,,,,,,,,,,,,,,,,,,,,,,,,,,,,,,,,,,,,,,,,,,,,,,,,,,,,,,,,,,,,,,,,,,,,,,,,,,,,,,,,,,,,,,
,,,,,,,,,60accfb2fbc5535b37a90903,24,Mężczyzna,2022-06-04_08h50.25.201,task,2021.1.4,Win32,59.95203837,628b806c463b948bc644b84f,629b00900f64a7544c597aee,,,,,,6,0,6,0,1,X V Q F H G B L J M P D K C T S W R N Z,,,,,,,,,,,,,,,,,,,,,,,,,,,,,,,,,,,,,,,,,,,,,,,,,,,,,,,,,,,,,,,,,,,,,,,,,,,,,,,,,,,,,,,,,,,,,
,,,,,,,,,60accfb2fbc5535b37a90903,24,Mężczyzna,2022-06-04_08h50.25.201,task,2021.1.4,Win32,59.95203837,628b806c463b948bc644b84f,629b00900f64a7544c597aee,,,,,,7,0,7,0,1,X V Q F H G B L J M P D K C T S W R N Z,,,,,,,,,,,,,,,,,,,,,,,,,,,,,,,,,,,,,,,,,,,,,,,,,,,,,,,,,,,,,,,,,,,,,,,,,,,,,,,,,,,,,,,,,,,,,
,,,,,,,,,60accfb2fbc5535b37a90903,24,Mężczyzna,2022-06-04_08h50.25.201,task,2021.1.4,Win32,59.95203837,628b806c463b948bc644b84f,629b00900f64a7544c597aee,,,,,,,,,,,,kkkkkkkk,"[""k"",""k"",""k"",""k"",""k"",""k"",""k"",""k""]","[9.846000000000004,10.048000000000002,10.197000000000003,10.348999999999933,10.497999999999934,10.645999999999958,10.797000000000025,11.046999999999969,11.230999999999938]",0,NRWCVPGG,15,0,15,0,1,,,,,,,,,,,,,,,,,,,,,,,,,,,,,,,,,,,,,,,,,,,,,,,,,,,,,,,,,,,,,,,,,,,,,,,,,,,,,,,,,,,
,,,,,,,,,60accfb2fbc5535b37a90903,24,Mężczyzna,2022-06-04_08h50.25.201,task,2021.1.4,Win32,59.95203837,628b806c463b948bc644b84f,629b00900f64a7544c597aee,,,,,,,,,,,,,,,,,,,,,,space,36.385,0,"[""0""]",1,[2.813000000000102],[2.813000000000102],0,0,0,0,1,Practice,1,(3x3) -  9,0,,,,,,,,,,,,,,,,,,,,,,,,,,,,,,,,,,,,,,,,,,,,,,,,,,,,,,,,,,,,,,,,,,,
,,,,,,,,,60accfb2fbc5535b37a90903,24,Mężczyzna,2022-06-04_08h50.25.201,task,2021.1.4,Win32,59.95203837,628b806c463b948bc644b84f,629b00900f64a7544c597aee,,,,,,,,,,,,,,,,,,,,,,,,5,"[""5""]",1,[2.132000000000062],"[2.813000000000102,2.132000000000062]",0,1,1,5,1,Practice,6,(4/2) + 3,5,,,,,,,,,,,,,,,,,,,,,,,,,,,,,,,,,,,,,,,,,,,,,,,,,,,,,,,,,,,,,,,,,,,
,,,,,,,,,60accfb2fbc5535b37a90903,24,Mężczyzna,2022-06-04_08h50.25.201,task,2021.1.4,Win32,59.95203837,628b806c463b948bc644b84f,629b00900f64a7544c597aee,,,,,,,,,,,,,,,,,,,,,,,,3,"[""3""]",1,[2.881999999999948],"[2.813000000000102,2.132000000000062,2.881999999999948]",0,2,2,3,1,Practice,4,(8/4) + 1,3,,,,,,,,,,,,,,,,,,,,,,,,,,,,,,,,,,,,,,,,,,,,,,,,,,,,,,,,,,,,,,,,,,,
,,,,,,,,,60accfb2fbc5535b37a90903,24,Mężczyzna,2022-06-04_08h50.25.201,task,2021.1.4,Win32,59.95203837,628b806c463b948bc644b84f,629b00900f64a7544c597aee,,,,,,,,,,,,,,,,,,,,,,,,7,"[""7""]",1,[7.526000000000067],"[2.813000000000102,2.132000000000062,2.881999999999948,7.526000000000067]",0,3,3,7,1,Practice,8,(5x5) - 18,7,,,,,,,,,,,,,,,,,,,,,,,,,,,,,,,,,,,,,,,,,,,,,,,,,,,,,,,,,,,,,,,,,,,
,,,,,,,,,60accfb2fbc5535b37a90903,24,Mężczyzna,2022-06-04_08h50.25.201,task,2021.1.4,Win32,59.95203837,628b806c463b948bc644b84f,629b00900f64a7544c597aee,,,,,,,,,,,,,,,,,,,,,,,,1,"[""1""]",1,[1.6190000000000282],"[2.813000000000102,2.132000000000062,2.881999999999948,7.526000000000067,1.6190000000000282]",0,4,4,1,1,Practice,2,(4x4) - 15,1,,,,,,,,,,,,,,,,,,,,,,,,,,,,,,,,,,,,,,,,,,,,,,,,,,,,,,,,,,,,,,,,,,,
,,,,,,,,,60accfb2fbc5535b37a90903,24,Mężczyzna,2022-06-04_08h50.25.201,task,2021.1.4,Win32,59.95203837,628b806c463b948bc644b84f,629b00900f64a7544c597aee,,,,,,,,,,,,,,,,,,,,,,,,8,"[""8""]",1,[1.7160000000000082],"[2.813000000000102,2.132000000000062,2.881999999999948,7.526000000000067,1.6190000000000282,1.7160000000000082]",0,5,5,8,1,Practice,9,(3x3) - 1,8,,,,,,,,,,,,,,,,,,,,,,,,,,,,,,,,,,,,,,,,,,,,,,,,,,,,,,,,,,,,,,,,,,,
,,,,,,,,,60accfb2fbc5535b37a90903,24,Mężczyzna,2022-06-04_08h50.25.201,task,2021.1.4,Win32,59.95203837,628b806c463b948bc644b84f,629b00900f64a7544c597aee,,,,,,,,,,,,,,,,,,,,,,,,2,"[""2""]",1,[1.51400000000001],"[2.813000000000102,2.132000000000062,2.881999999999948,7.526000000000067,1.6190000000000282,1.7160000000000082,1.51400000000001]",0,6,6,2,1,Practice,3,(4x4) - 14,2,,,,,,,,,,,,,,,,,,,,,,,,,,,,,,,,,,,,,,,,,,,,,,,,,,,,,,,,,,,,,,,,,,,
,,,,,,,,,60accfb2fbc5535b37a90903,24,Mężczyzna,2022-06-04_08h50.25.201,task,2021.1.4,Win32,59.95203837,628b806c463b948bc644b84f,629b00900f64a7544c597aee,,,,,,,,,,,,,,,,,,,,,,,,4,"[""4""]",1,[2.5810000000000173],"[2.813000000000102,2.132000000000062,2.881999999999948,7.526000000000067,1.6190000000000282,1.7160000000000082,1.51400000000001,2.5810000000000173]",0,7,7,4,1,Practice,5,(2x6) - 8,4,,,,,,,,,,,,,,,,,,,,,,,,,,,,,,,,,,,,,,,,,,,,,,,,,,,,,,,,,,,,,,,,,,,
,,,,,,,,,60accfb2fbc5535b37a90903,24,Mężczyzna,2022-06-04_08h50.25.201,task,2021.1.4,Win32,59.95203837,628b806c463b948bc644b84f,629b00900f64a7544c597aee,,,,,,,,,,,,,,,,,,,,,,,,9,"[""9""]",1,[1.6330000000000382],"[2.813000000000102,2.132000000000062,2.881999999999948,7.526000000000067,1.6190000000000282,1.7160000000000082,1.51400000000001,2.5810000000000173,1.6330000000000382]",0,8,8,9,1,Practice,10,(20/2) - 1,9,,,,,,,,,,,,,,,,,,,,,,,,,,,,,,,,,,,,,,,,,,,,,,,,,,,,,,,,,,,,,,,,,,,
,,,,,,,,,60accfb2fbc5535b37a90903,24,Mężczyzna,2022-06-04_08h50.25.201,task,2021.1.4,Win32,59.95203837,628b806c463b948bc644b84f,629b00900f64a7544c597aee,,,,,,,,,,,,,,,,,,,,,,,,6,"[""6""]",1,[1.6329999999999245],"[2.813000000000102,2.132000000000062,2.881999999999948,7.526000000000067,1.6190000000000282,1.7160000000000082,1.51400000000001,2.5810000000000173,1.6330000000000382,1.6329999999999245]",0,9,9,6,1,Practice,7,(25/5) + 1,6,,,,,,,,,,,,,,,,,,,,,,,,,,,,,,,,,,,,,,,,,,,,,,,,,,,,,,,,,,,,,,,,,,,
,,,,,,,,,60accfb2fbc5535b37a90903,24,Mężczyzna,2022-06-04_08h50.25.201,task,2021.1.4,Win32,59.95203837,628b806c463b948bc644b84f,629b00900f64a7544c597aee,,,,,,,,,,,,,,,,,,,,,,,,,,,,,,,,,,,,,,1,26.049,1.7366,36.9423538,1.569338583,5.785493543,space,0.569,0,0,0,0,1,,,,,,,,,,,,,,,,,,,,,,,,,,,,,,,,,,,,,,,,,,,,,,,,,,,,,,
,,,,,,,,,60accfb2fbc5535b37a90903,24,Mężczyzna,2022-06-04_08h50.25.201,task,2021.1.4,Win32,59.95203837,628b806c463b948bc644b84f,629b00900f64a7544c597aee,,,,,,,,,,,,,,,,,,,,,,,,4,,,,,,,,,,Practice,5,(2x6) - 8,4,,,,,,,,,,,,,,space,42.336,"[""4""]",1,[2.6340000000000146],1,0,0,0,4,1,,,,,,,,,,,,,,,,,,,,,,,,,,,,,,,,,,,,,,,,,,,
,,,,,,,,,60accfb2fbc5535b37a90903,24,Mężczyzna,2022-06-04_08h50.25.201,task,2021.1.4,Win32,59.95203837,628b806c463b948bc644b84f,629b00900f64a7544c597aee,,,,,,,,,,,X V Q F H G B L J M P D K C T S W R N Z,,,,,,,,,,,,,,,,,,,,,,,,,,,,,,,,,,,,,,,,,,,,,,,,,,,0,0,0,0,1,,,,,,,,,,,,,,,,,,,,,,,,,,,,,,,,,,,,,,
,,,,,,,,,60accfb2fbc5535b37a90903,24,Mężczyzna,2022-06-04_08h50.25.201,task,2021.1.4,Win32,59.95203837,628b806c463b948bc644b84f,629b00900f64a7544c597aee,,,,,,,,,,,,,,,,,,,,,,,,6,,,,,,,,,,Practice,7,(25/5) + 1,6,,,,,,,,,,,,,,,,"[""6""]",1,[1.9320000000000164],1,0,0,0,6,1,,,,,,,,,,,,,,,,,,,,,,,,,,,,,,,,,,,,,,,,,,,
,,,,,,,,,60accfb2fbc5535b37a90903,24,Mężczyzna,2022-06-04_08h50.25.201,task,2021.1.4,Win32,59.95203837,628b806c463b948bc644b84f,629b00900f64a7544c597aee,,,,,,,,,,,X V Q F H G B L J M P D K C T S W R N Z,,,,,,,,,,,,,,,,,,,,,,,,,,,,,,,,,,,,,,,,,,,,,,,,,,,1,0,1,0,1,,,,,,,,,,,,,,,,,,,,,,,,,,,,,,,,,,,,,,
,,,,,,,,,60accfb2fbc5535b37a90903,24,Mężczyzna,2022-06-04_08h50.25.201,task,2021.1.4,Win32,59.95203837,628b806c463b948bc644b84f,629b00900f64a7544c597aee,,,,,,,,,,,,,,,,,,,,,,,,,,,,,,,,,,,,,,,,,,,,,,,,,,,,,,,,,,,,,,,,,,,zv,"[""z"",""v""]",0,"[2.048999999999978,2.252999999999929,2.550999999999931]",1,0,0,0,0,1,,,,,,,,,,,,,,,,,,,,,,,,,,,,
,,,,,,,,,60accfb2fbc5535b37a90903,24,Mężczyzna,2022-06-04_08h50.25.201,task,2021.1.4,Win32,59.95203837,628b806c463b948bc644b84f,629b00900f64a7544c597aee,,,,,,,,,,,,,,,,,,,,,,,,9,,,,,,,,,,Practice,10,(20/2) - 1,9,,,,,,,,,,,,,,,,"[""9""]",1,[2.02699999999993],1,0,0,0,9,1,,,,,,,,,,,,,,,,,,,,,,,,,,,,,,,,,,,,,,,,,,,
,,,,,,,,,60accfb2fbc5535b37a90903,24,Mężczyzna,2022-06-04_08h50.25.201,task,2021.1.4,Win32,59.95203837,628b806c463b948bc644b84f,629b00900f64a7544c597aee,,,,,,,,,,,X V Q F H G B L J M P D K C T S W R N Z,,,,,,,,,,,,,,,,,,,,,,,,,,,,,,,,,,,,,,,,,,,,,,,,,,,0,0,0,0,1,,,,,,,,,,,,,,,,,,,,,,,,,,,,,,,,,,,,,,
,,,,,,,,,60accfb2fbc5535b37a90903,24,Mężczyzna,2022-06-04_08h50.25.201,task,2021.1.4,Win32,59.95203837,628b806c463b948bc644b84f,629b00900f64a7544c597aee,,,,,,,,,,,,,,,,,,,,,,,,8,,,,,,,,,,Practice,9,(3x3) - 1,8,,,,,,,,,,,,,,,,"[""8""]",1,[1.7989999999999782],1,0,0,0,8,1,,,,,,,,,,,,,,,,,,,,,,,,,,,,,,,,,,,,,,,,,,,
,,,,,,,,,60accfb2fbc5535b37a90903,24,Mężczyzna,2022-06-04_08h50.25.201,task,2021.1.4,Win32,59.95203837,628b806c463b948bc644b84f,629b00900f64a7544c597aee,,,,,,,,,,,X V Q F H G B L J M P D K C T S W R N Z,,,,,,,,,,,,,,,,,,,,,,,,,,,,,,,,,,,,,,,,,,,,,,,,,,,1,0,1,0,1,,,,,,,,,,,,,,,,,,,,,,,,,,,,,,,,,,,,,,
,,,,,,,,,60accfb2fbc5535b37a90903,24,Mężczyzna,2022-06-04_08h50.25.201,task,2021.1.4,Win32,59.95203837,628b806c463b948bc644b84f,629b00900f64a7544c597aee,,,,,,,,,,,,,,,,,,,,,,,,,,,,,,,,,,,,,,,,,,,,,,,,,,,,,,,,,,,,,,,,,,,hm,"[""h"",""m""]",0,"[0.9210000000000491,1.0370000000000346,1.2530000000000427]",1,1,0,1,0,1,,,,,,,,,,,,,,,,,,,,,,,,,,,,
,,,,,,,,,60accfb2fbc5535b37a90903,24,Mężczyzna,2022-06-04_08h50.25.201,task,2021.1.4,Win32,59.95203837,628b806c463b948bc644b84f,629b00900f64a7544c597aee,,,,,,,,,,,,,,,,,,,,,,,,6,,,,,,,,,,Practice,7,(25/5) + 1,6,,,,,,,,,,,,,,,,"[""6""]",1,[1.4809999999999945],1,0,0,0,6,1,,,,,,,,,,,,,,,,,,,,,,,,,,,,,,,,,,,,,,,,,,,
,,,,,,,,,60accfb2fbc5535b37a90903,24,Mężczyzna,2022-06-04_08h50.25.201,task,2021.1.4,Win32,59.95203837,628b806c463b948bc644b84f,629b00900f64a7544c597aee,,,,,,,,,,,X V Q F H G B L J M P D K C T S W R N Z,,,,,,,,,,,,,,,,,,,,,,,,,,,,,,,,,,,,,,,,,,,,,,,,,,,0,0,0,0,1,,,,,,,,,,,,,,,,,,,,,,,,,,,,,,,,,,,,,,
,,,,,,,,,60accfb2fbc5535b37a90903,24,Mężczyzna,2022-06-04_08h50.25.201,task,2021.1.4,Win32,59.95203837,628b806c463b948bc644b84f,629b00900f64a7544c597aee,,,,,,,,,,,,,,,,,,,,,,,,6,,,,,,,,,,Practice,7,(25/5) + 1,6,,,,,,,,,,,,,,,,"[""6""]",1,[3.021000000000072],1,0,0,0,6,1,,,,,,,,,,,,,,,,,,,,,,,,,,,,,,,,,,,,,,,,,,,
,,,,,,,,,60accfb2fbc5535b37a90903,24,Mężczyzna,2022-06-04_08h50.25.201,task,2021.1.4,Win32,59.95203837,628b806c463b948bc644b84f,629b00900f64a7544c597aee,,,,,,,,,,,X V Q F H G B L J M P D K C T S W R N Z,,,,,,,,,,,,,,,,,,,,,,,,,,,,,,,,,,,,,,,,,,,,,,,,,,,1,0,1,0,1,,,,,,,,,,,,,,,,,,,,,,,,,,,,,,,,,,,,,,
,,,,,,,,,60accfb2fbc5535b37a90903,24,Mężczyzna,2022-06-04_08h50.25.201,task,2021.1.4,Win32,59.95203837,628b806c463b948bc644b84f,629b00900f64a7544c597aee,,,,,,,,,,,,,,,,,,,,,,,,,,,,,,,,,,,,,,,,,,,,,,,,,,,,,,,,,,,,,,,,,,,tk,"[""t"",""k""]",0,"[1.5329999999999018,1.7019999999999982,7.0359999999999445]",1,2,0,2,0,1,,,,,,,,,,,,,,,,,,,,,,,,,,,,
,,,,,,,,,60accfb2fbc5535b37a90903,24,Mężczyzna,2022-06-04_08h50.25.201,task,2021.1.4,Win32,59.95203837,628b806c463b948bc644b84f,629b00900f64a7544c597aee,,,,,,,,,,,,,,,,,,,,,,,,1,,,,,,,,,,Task,37,(3/3) + 5,6,,,,,,,,,,,,,,,,,,,0,,,,,,,,,,,,,,,,,,,,,space,6.035,"[""1""]",0,[3.56899999999996],0,0,0,36,1,,,,,,,,,,,,,,,,,,
,,,,,,,,,60accfb2fbc5535b37a90903,24,Mężczyzna,2022-06-04_08h50.25.201,task,2021.1.4,Win32,59.95203837,628b806c463b948bc644b84f,629b00900f64a7544c597aee,,,,,,,,,,,,,,,,,,,,,,,,3,,,,,,,,,,Task,26,(2x9) - 16,2,,,,,,,,,,,,,,,,,,,0,,,,,,,,,,,,,,,,,,,,,,,"[""3""]",0,[3.6480000000000246],0,1,1,25,1,,,,,,,,,,,,,,,,,,
,,,,,,,,,60accfb2fbc5535b37a90903,24,Mężczyzna,2022-06-04_08h50.25.201,task,2021.1.4,Win32,59.95203837,628b806c463b948bc644b84f,629b00900f64a7544c597aee,,,,,,,,,,,,,,,,,,,,,,,,8,,,,,,,,,,Task,32,(8/2) + 4,8,,,,,,,,,,,,,,,,,,,1,,,,,,,,,,,,,,,,,,,,,,,"[""8""]",1,[2.034999999999968],0,2,2,31,1,,,,,,,,,,,,,,,,,,
,,,,,,,,,60accfb2fbc5535b37a90903,24,Mężczyzna,2022-06-04_08h50.25.201,task,2021.1.4,Win32,59.95203837,628b806c463b948bc644b84f,629b00900f64a7544c597aee,,,,,,,,,,,X V Q F H G B L J M P D K C T S W R N Z,,,,,,,,,,,,,,,,,,,,,,,,,,,,,,,,,,,,,,,,,,,,,,,,,,,,,,,,,,,,,,,,,,,,,,,,,,,,0,0,0,0,1,,,,,,,,,,,,,
,,,,,,,,,60accfb2fbc5535b37a90903,24,Mężczyzna,2022-06-04_08h50.25.201,task,2021.1.4,Win32,59.95203837,628b806c463b948bc644b84f,629b00900f64a7544c597aee,,,,,,,,,,,,,,,,,,,,,,,,5,,,,,,,,,,Task,36,(8/4) + 3,5,,,,,,,,,,,,,,,,,,,1,,,,,,,,,,,,,,,,,,,,,,,"[""5""]",1,[4.011999999999944],0,0,0,35,1,,,,,,,,,,,,,,,,,,
,,,,,,,,,60accfb2fbc5535b37a90903,24,Mężczyzna,2022-06-04_08h50.25.201,task,2021.1.4,Win32,59.95203837,628b806c463b948bc644b84f,629b00900f64a7544c597aee,,,,,,,,,,,X V Q F H G B L J M P D K C T S W R N Z,,,,,,,,,,,,,,,,,,,,,,,,,,,,,,,,,,,,,,,,,,,,,,,,,,,,,,,,,,,,,,,,,,,,,,,,,,,,1,0,1,0,1,,,,,,,,,,,,,
,,,,,,,,,60accfb2fbc5535b37a90903,24,Mężczyzna,2022-06-04_08h50.25.201,task,2021.1.4,Win32,59.95203837,628b806c463b948bc644b84f,629b00900f64a7544c597aee,,,,,,,,,,,,,,,,,,,,,,,,,,,,,,,,,,,,,,,,,,,,,,,,,,,,,,,,,,,,,,,,,,,,,,,,,,,,,,,,,,,,,,,,,,,,zf,"[""z"",""f""]",0,"[1.0220000000000482,1.1539999999999964,1.4540000000000646]",1,ZF,0,0,0,0,1,,
,,,,,,,,,60accfb2fbc5535b37a90903,24,Mężczyzna,2022-06-04_08h50.25.201,task,2021.1.4,Win32,59.95203837,628b806c463b948bc644b84f,629b00900f64a7544c597aee,,,,,,,,,,,,,,,,,,,,,,,,1,,,,,,,,,,Task,18,(16/4) - 3,1,,,,,,,,,,,,,,,,,,,1,,,,,,,,,,,,,,,,,,,,,,,"[""1""]",1,[2.116999999999962],0,0,0,17,1,,,,,,,,,,,,,,,,,,
,,,,,,,,,60accfb2fbc5535b37a90903,24,Mężczyzna,2022-06-04_08h50.25.201,task,2021.1.4,Win32,59.95203837,628b806c463b948bc644b84f,629b00900f64a7544c597aee,,,,,,,,,,,X V Q F H G B L J M P D K C T S W R N Z,,,,,,,,,,,,,,,,,,,,,,,,,,,,,,,,,,,,,,,,,,,,,,,,,,,,,,,,,,,,,,,,,,,,,,,,,,,,0,0,0,0,1,,,,,,,,,,,,,
,,,,,,,,,60accfb2fbc5535b37a90903,24,Mężczyzna,2022-06-04_08h50.25.201,task,2021.1.4,Win32,59.95203837,628b806c463b948bc644b84f,629b00900f64a7544c597aee,,,,,,,,,,,,,,,,,,,,,,,,1,,,,,,,,,,Task,1,(12/6) - 1,1,,,,,,,,,,,,,,,,,,,1,,,,,,,,,,,,,,,,,,,,,,,"[""1""]",1,[1.865000000000009],0,0,0,0,1,,,,,,,,,,,,,,,,,,
,,,,,,,,,60accfb2fbc5535b37a90903,24,Mężczyzna,2022-06-04_08h50.25.201,task,2021.1.4,Win32,59.95203837,628b806c463b948bc644b84f,629b00900f64a7544c597aee,,,,,,,,,,,X V Q F H G B L J M P D K C T S W R N Z,,,,,,,,,,,,,,,,,,,,,,,,,,,,,,,,,,,,,,,,,,,,,,,,,,,,,,,,,,,,,,,,,,,,,,,,,,,,1,0,1,0,1,,,,,,,,,,,,,
,,,,,,,,,60accfb2fbc5535b37a90903,24,Mężczyzna,2022-06-04_08h50.25.201,task,2021.1.4,Win32,59.95203837,628b806c463b948bc644b84f,629b00900f64a7544c597aee,,,,,,,,,,,,,,,,,,,,,,,,5,,,,,,,,,,Task,36,(8/4) + 3,5,,,,,,,,,,,,,,,,,,,1,,,,,,,,,,,,,,,,,,,,,,,"[""5""]",1,[1.6470000000000482],0,0,0,35,1,,,,,,,,,,,,,,,,,,
,,,,,,,,,60accfb2fbc5535b37a90903,24,Mężczyzna,2022-06-04_08h50.25.201,task,2021.1.4,Win32,59.95203837,628b806c463b948bc644b84f,629b00900f64a7544c597aee,,,,,,,,,,,X V Q F H G B L J M P D K C T S W R N Z,,,,,,,,,,,,,,,,,,,,,,,,,,,,,,,,,,,,,,,,,,,,,,,,,,,,,,,,,,,,,,,,,,,,,,,,,,,,2,0,2,0,1,,,,,,,,,,,,,
,,,,,,,,,60accfb2fbc5535b37a90903,24,Mężczyzna,2022-06-04_08h50.25.201,task,2021.1.4,Win32,59.95203837,628b806c463b948bc644b84f,629b00900f64a7544c597aee,,,,,,,,,,,,,,,,,,,,,,,,,,,,,,,,,,,,,,,,,,,,,,,,,,,,,,,,,,,,,,,,,,,,,,,,,,,,,,,,,,,,,,,,,,,,rbk,"[""r"",""b"",""k""]",0,"[0.8949999999999818,1.0720000000000027,1.22199999999998,1.467999999999961]",1,RBK,1,0,1,0,1,,
,,,,,,,,,60accfb2fbc5535b37a90903,24,Mężczyzna,2022-06-04_08h50.25.201,task,2021.1.4,Win32,59.95203837,628b806c463b948bc644b84f,629b00900f64a7544c597aee,,,,,,,,,,,,,,,,,,,,,,,,1,,,,,,,,,,Task,37,(3/3) + 5,6,,,,,,,,,,,,,,,,,,,0,,,,,,,,,,,,,,,,,,,,,,,"[""1""]",0,[2.016999999999939],0,0,0,36,1,,,,,,,,,,,,,,,,,,
,,,,,,,,,60accfb2fbc5535b37a90903,24,Mężczyzna,2022-06-04_08h50.25.201,task,2021.1.4,Win32,59.95203837,628b806c463b948bc644b84f,629b00900f64a7544c597aee,,,,,,,,,,,,,,,,,,,,,,,,1,,,,,,,,,,Task,9,(3x7) - 20,1,,,,,,,,,,,,,,,,,,,1,,,,,,,,,,,,,,,,,,,,,,,"[""1""]",1,[2.8579999999999472],0,1,1,8,1,,,,,,,,,,,,,,,,,,
,,,,,,,,,60accfb2fbc5535b37a90903,24,Mężczyzna,2022-06-04_08h50.25.201,task,2021.1.4,Win32,59.95203837,628b806c463b948bc644b84f,629b00900f64a7544c597aee,,,,,,,,,,,X V Q F H G B L J M P D K C T S W R N Z,,,,,,,,,,,,,,,,,,,,,,,,,,,,,,,,,,,,,,,,,,,,,,,,,,,,,,,,,,,,,,,,,,,,,,,,,,,,0,0,0,0,1,,,,,,,,,,,,,
,,,,,,,,,60accfb2fbc5535b37a90903,24,Mężczyzna,2022-06-04_08h50.25.201,task,2021.1.4,Win32,59.95203837,628b806c463b948bc644b84f,629b00900f64a7544c597aee,,,,,,,,,,,,,,,,,,,,,,,,1,,,,,,,,,,Task,9,(3x7) - 20,1,,,,,,,,,,,,,,,,,,,1,,,,,,,,,,,,,,,,,,,,,,,"[""1""]",1,[1.7350000000000136],0,0,0,8,1,,,,,,,,,,,,,,,,,,
,,,,,,,,,60accfb2fbc5535b37a90903,24,Mężczyzna,2022-06-04_08h50.25.201,task,2021.1.4,Win32,59.95203837,628b806c463b948bc644b84f,629b00900f64a7544c597aee,,,,,,,,,,,X V Q F H G B L J M P D K C T S W R N Z,,,,,,,,,,,,,,,,,,,,,,,,,,,,,,,,,,,,,,,,,,,,,,,,,,,,,,,,,,,,,,,,,,,,,,,,,,,,1,0,1,0,1,,,,,,,,,,,,,
,,,,,,,,,60accfb2fbc5535b37a90903,24,Mężczyzna,2022-06-04_08h50.25.201,task,2021.1.4,Win32,59.95203837,628b806c463b948bc644b84f,629b00900f64a7544c597aee,,,,,,,,,,,,,,,,,,,,,,,,9,,,,,,,,,,Task,16,(3x8) - 15,9,,,,,,,,,,,,,,,,,,,1,,,,,,,,,,,,,,,,,,,,,,,"[""9""]",1,[3.67999999999995],0,0,0,15,1,,,,,,,,,,,,,,,,,,
,,,,,,,,,60accfb2fbc5535b37a90903,24,Mężczyzna,2022-06-04_08h50.25.201,task,2021.1.4,Win32,59.95203837,628b806c463b948bc644b84f,629b00900f64a7544c597aee,,,,,,,,,,,X V Q F H G B L J M P D K C T S W R N Z,,,,,,,,,,,,,,,,,,,,,,,,,,,,,,,,,,,,,,,,,,,,,,,,,,,,,,,,,,,,,,,,,,,,,,,,,,,,2,0,2,0,1,,,,,,,,,,,,,
,,,,,,,,,60accfb2fbc5535b37a90903,24,Mężczyzna,2022-06-04_08h50.25.201,task,2021.1.4,Win32,59.95203837,628b806c463b948bc644b84f,629b00900f64a7544c597aee,,,,,,,,,,,,,,,,,,,,,,,,7,,,,,,,,,,Task,15,(3x7) - 13,8,,,,,,,,,,,,,,,,,,,0,,,,,,,,,,,,,,,,,,,,,,,"[""7""]",0,[2.8619999999999663],0,0,0,14,1,,,,,,,,,,,,,,,,,,
,,,,,,,,,60accfb2fbc5535b37a90903,24,Mężczyzna,2022-06-04_08h50.25.201,task,2021.1.4,Win32,59.95203837,628b806c463b948bc644b84f,629b00900f64a7544c597aee,,,,,,,,,,,,,,,,,,,,,,,,9,,,,,,,,,,Task,7,(3x7) - 12,9,,,,,,,,,,,,,,,,,,,1,,,,,,,,,,,,,,,,,,,,,,,"[""9""]",1,[3.6639999999999873],0,1,1,6,1,,,,,,,,,,,,,,,,,,
,,,,,,,,,60accfb2fbc5535b37a90903,24,Mężczyzna,2022-06-04_08h50.25.201,task,2021.1.4,Win32,59.95203837,628b806c463b948bc644b84f,629b00900f64a7544c597aee,,,,,,,,,,,X V Q F H G B L J M P D K C T S W R N Z,,,,,,,,,,,,,,,,,,,,,,,,,,,,,,,,,,,,,,,,,,,,,,,,,,,,,,,,,,,,,,,,,,,,,,,,,,,,3,0,3,0,1,,,,,,,,,,,,,
,,,,,,,,,60accfb2fbc5535b37a90903,24,Mężczyzna,2022-06-04_08h50.25.201,task,2021.1.4,Win32,59.95203837,628b806c463b948bc644b84f,629b00900f64a7544c597aee,,,,,,,,,,,,,,,,,,,,,,,,,,,,,,,,,,,,,,,,,,,,,,,,,,,,,,,,,,,,,,,,,,,,,,,,,,,,,,,,,,,,,,,,,,,,fkh,"[""f"",""k"",""h""]",0,"[0.9519999999999982,1.1459999999999582,1.3170000000000073,1.6680000000000064]",0,FCKH,2,0,2,0,1,,
,,,,,,,,,60accfb2fbc5535b37a90903,24,Mężczyzna,2022-06-04_08h50.25.201,task,2021.1.4,Win32,59.95203837,628b806c463b948bc644b84f,629b00900f64a7544c597aee,,,,,,,,,,,,,,,,,,,,,,,,9,,,,,,,,,,Task,24,(2x2) + 5,9,,,,,,,,,,,,,,,,,,,1,,,,,,,,,,,,,,,,,,,,,,,"[""9""]",1,[1.7019999999999982],0,0,0,23,1,,,,,,,,,,,,,,,,,,
,,,,,,,,,60accfb2fbc5535b37a90903,24,Mężczyzna,2022-06-04_08h50.25.201,task,2021.1.4,Win32,59.95203837,628b806c463b948bc644b84f,629b00900f64a7544c597aee,,,,,,,,,,,X V Q F H G B L J M P D K C T S W R N Z,,,,,,,,,,,,,,,,,,,,,,,,,,,,,,,,,,,,,,,,,,,,,,,,,,,,,,,,,,,,,,,,,,,,,,,,,,,,0,0,0,0,1,,,,,,,,,,,,,
,,,,,,,,,60accfb2fbc5535b37a90903,24,Mężczyzna,2022-06-04_08h50.25.201,task,2021.1.4,Win32,59.95203837,628b806c463b948bc644b84f,629b00900f64a7544c597aee,,,,,,,,,,,,,,,,,,,,,,,,6,,,,,,,,,,Task,37,(3/3) + 5,6,,,,,,,,,,,,,,,,,,,1,,,,,,,,,,,,,,,,,,,,,,,"[""6""]",1,[3.134999999999991],0,0,0,36,1,,,,,,,,,,,,,,,,,,
,,,,,,,,,60accfb2fbc5535b37a90903,24,Mężczyzna,2022-06-04_08h50.25.201,task,2021.1.4,Win32,59.95203837,628b806c463b948bc644b84f,629b00900f64a7544c597aee,,,,,,,,,,,X V Q F H G B L J M P D K C T S W R N Z,,,,,,,,,,,,,,,,,,,,,,,,,,,,,,,,,,,,,,,,,,,,,,,,,,,,,,,,,,,,,,,,,,,,,,,,,,,,1,0,1,0,1,,,,,,,,,,,,,
,,,,,,,,,60accfb2fbc5535b37a90903,24,Mężczyzna,2022-06-04_08h50.25.201,task,2021.1.4,Win32,59.95203837,628b806c463b948bc644b84f,629b00900f64a7544c597aee,,,,,,,,,,,,,,,,,,,,,,,,7,,,,,,,,,,Task,38,(4x6) - 17,7,,,,,,,,,,,,,,,,,,,1,,,,,,,,,,,,,,,,,,,,,,,"[""7""]",1,[2.375],0,0,0,37,1,,,,,,,,,,,,,,,,,,
,,,,,,,,,60accfb2fbc5535b37a90903,24,Mężczyzna,2022-06-04_08h50.25.201,task,2021.1.4,Win32,59.95203837,628b806c463b948bc644b84f,629b00900f64a7544c597aee,,,,,,,,,,,X V Q F H G B L J M P D K C T S W R N Z,,,,,,,,,,,,,,,,,,,,,,,,,,,,,,,,,,,,,,,,,,,,,,,,,,,,,,,,,,,,,,,,,,,,,,,,,,,,2,0,2,0,1,,,,,,,,,,,,,
,,,,,,,,,60accfb2fbc5535b37a90903,24,Mężczyzna,2022-06-04_08h50.25.201,task,2021.1.4,Win32,59.95203837,628b806c463b948bc644b84f,629b00900f64a7544c597aee,,,,,,,,,,,,,,,,,,,,,,,,7,,,,,,,,,,Task,6,(12/2) + 1,7,,,,,,,,,,,,,,,,,,,1,,,,,,,,,,,,,,,,,,,,,,,"[""7""]",1,[4.5],0,0,0,5,1,,,,,,,,,,,,,,,,,,
,,,,,,,,,60accfb2fbc5535b37a90903,24,Mężczyzna,2022-06-04_08h50.25.201,task,2021.1.4,Win32,59.95203837,628b806c463b948bc644b84f,629b00900f64a7544c597aee,,,,,,,,,,,X V Q F H G B L J M P D K C T S W R N Z,,,,,,,,,,,,,,,,,,,,,,,,,,,,,,,,,,,,,,,,,,,,,,,,,,,,,,,,,,,,,,,,,,,,,,,,,,,,3,0,3,0,1,,,,,,,,,,,,,
,,,,,,,,,60accfb2fbc5535b37a90903,24,Mężczyzna,2022-06-04_08h50.25.201,task,2021.1.4,Win32,59.95203837,628b806c463b948bc644b84f,629b00900f64a7544c597aee,,,,,,,,,,,,,,,,,,,,,,,,,,,,,,,,,,,,,,,,,,,,,,,,,,,,,,,,,,,,,,,,,,,,,,,,,,,,,,,,,,,,,,,,,,,,qztn,"[""q"",""z"",""t"",""n""]",0,"[0.9049999999999727,1.2199999999999136,1.7199999999999136,2.019999999999982,2.353999999999928]",1,QZTN,3,0,3,0,1,,
,,,,,,,,,60accfb2fbc5535b37a90903,24,Mężczyzna,2022-06-04_08h50.25.201,task,2021.1.4,Win32,59.95203837,628b806c463b948bc644b84f,629b00900f64a7544c597aee,,,,,,,,,,,,,,,,,,,,,,,,4,,,,,,,,,,Task,19,(6/2) - 1,2,,,,,,,,,,,,,,,,,,,0,,,,,,,,,,,,,,,,,,,,,,,"[""4""]",0,[1.8689999999999145],0,0,0,18,1,,,,,,,,,,,,,,,,,,
,,,,,,,,,60accfb2fbc5535b37a90903,24,Mężczyzna,2022-06-04_08h50.25.201,task,2021.1.4,Win32,59.95203837,628b806c463b948bc644b84f,629b00900f64a7544c597aee,,,,,,,,,,,,,,,,,,,,,,,,8,,,,,,,,,,Task,23,(2x3) + 2,8,,,,,,,,,,,,,,,,,,,1,,,,,,,,,,,,,,,,,,,,,,,"[""8""]",1,[1.9349999999999454],0,1,1,22,1,,,,,,,,,,,,,,,,,,
,,,,,,,,,60accfb2fbc5535b37a90903,24,Mężczyzna,2022-06-04_08h50.25.201,task,2021.1.4,Win32,59.95203837,628b806c463b948bc644b84f,629b00900f64a7544c597aee,,,,,,,,,,,X V Q F H G B L J M P D K C T S W R N Z,,,,,,,,,,,,,,,,,,,,,,,,,,,,,,,,,,,,,,,,,,,,,,,,,,,,,,,,,,,,,,,,,,,,,,,,,,,,0,0,0,0,1,,,,,,,,,,,,,
,,,,,,,,,60accfb2fbc5535b37a90903,24,Mężczyzna,2022-06-04_08h50.25.201,task,2021.1.4,Win32,59.95203837,628b806c463b948bc644b84f,629b00900f64a7544c597aee,,,,,,,,,,,,,,,,,,,,,,,,3,,,,,,,,,,Task,35,(1x2) + 1,3,,,,,,,,,,,,,,,,,,,1,,,,,,,,,,,,,,,,,,,,,,,"[""3""]",1,[1.7149999999999181],0,0,0,34,1,,,,,,,,,,,,,,,,,,
,,,,,,,,,60accfb2fbc5535b37a90903,24,Mężczyzna,2022-06-04_08h50.25.201,task,2021.1.4,Win32,59.95203837,628b806c463b948bc644b84f,629b00900f64a7544c597aee,,,,,,,,,,,X V Q F H G B L J M P D K C T S W R N Z,,,,,,,,,,,,,,,,,,,,,,,,,,,,,,,,,,,,,,,,,,,,,,,,,,,,,,,,,,,,,,,,,,,,,,,,,,,,1,0,1,0,1,,,,,,,,,,,,,
,,,,,,,,,60accfb2fbc5535b37a90903,24,Mężczyzna,2022-06-04_08h50.25.201,task,2021.1.4,Win32,59.95203837,628b806c463b948bc644b84f,629b00900f64a7544c597aee,,,,,,,,,,,,,,,,,,,,,,,,5,,,,,,,,,,Task,22,(3x1) + 2,5,,,,,,,,,,,,,,,,,,,1,,,,,,,,,,,,,,,,,,,,,,,"[""5""]",1,[2.479000000000042],0,0,0,21,1,,,,,,,,,,,,,,,,,,
,,,,,,,,,60accfb2fbc5535b37a90903,24,Mężczyzna,2022-06-04_08h50.25.201,task,2021.1.4,Win32,59.95203837,628b806c463b948bc644b84f,629b00900f64a7544c597aee,,,,,,,,,,,X V Q F H G B L J M P D K C T S W R N Z,,,,,,,,,,,,,,,,,,,,,,,,,,,,,,,,,,,,,,,,,,,,,,,,,,,,,,,,,,,,,,,,,,,,,,,,,,,,2,0,2,0,1,,,,,,,,,,,,,
,,,,,,,,,60accfb2fbc5535b37a90903,24,Mężczyzna,2022-06-04_08h50.25.201,task,2021.1.4,Win32,59.95203837,628b806c463b948bc644b84f,629b00900f64a7544c597aee,,,,,,,,,,,,,,,,,,,,,,,,0,,,,,,,,,,Task,8,(1x5) - 5,0,,,,,,,,,,,,,,,,,,,1,,,,,,,,,,,,,,,,,,,,,,,"[""0""]",1,[3.130999999999972],0,0,0,7,1,,,,,,,,,,,,,,,,,,
,,,,,,,,,60accfb2fbc5535b37a90903,24,Mężczyzna,2022-06-04_08h50.25.201,task,2021.1.4,Win32,59.95203837,628b806c463b948bc644b84f,629b00900f64a7544c597aee,,,,,,,,,,,X V Q F H G B L J M P D K C T S W R N Z,,,,,,,,,,,,,,,,,,,,,,,,,,,,,,,,,,,,,,,,,,,,,,,,,,,,,,,,,,,,,,,,,,,,,,,,,,,,3,0,3,0,1,,,,,,,,,,,,,
,,,,,,,,,60accfb2fbc5535b37a90903,24,Mężczyzna,2022-06-04_08h50.25.201,task,2021.1.4,Win32,59.95203837,628b806c463b948bc644b84f,629b00900f64a7544c597aee,,,,,,,,,,,,,,,,,,,,,,,,8,,,,,,,,,,Task,23,(2x3) + 2,8,,,,,,,,,,,,,,,,,,,1,,,,,,,,,,,,,,,,,,,,,,,"[""8""]",1,[4.66700000000003],0,0,0,22,1,,,,,,,,,,,,,,,,,,
,,,,,,,,,60accfb2fbc5535b37a90903,24,Mężczyzna,2022-06-04_08h50.25.201,task,2021.1.4,Win32,59.95203837,628b806c463b948bc644b84f,629b00900f64a7544c597aee,,,,,,,,,,,X V Q F H G B L J M P D K C T S W R N Z,,,,,,,,,,,,,,,,,,,,,,,,,,,,,,,,,,,,,,,,,,,,,,,,,,,,,,,,,,,,,,,,,,,,,,,,,,,,4,0,4,0,1,,,,,,,,,,,,,
,,,,,,,,,60accfb2fbc5535b37a90903,24,Mężczyzna,2022-06-04_08h50.25.201,task,2021.1.4,Win32,59.95203837,628b806c463b948bc644b84f,629b00900f64a7544c597aee,,,,,,,,,,,,,,,,,,,,,,,,,,,,,,,,,,,,,,,,,,,,,,,,,,,,,,,,,,,,,,,,,,,,,,,,,,,,,,,,,,,,,,,,,,,,ndvfv,"[""n"",""d"",""v"",""f"",""v""]",0,"[1.0209999999999582,2.2229999999999563,2.6989999999999554,3.038000000000011,3.355000000000018,3.6889999999999645]",1,NDVFV,4,0,4,0,1,,
,,,,,,,,,60accfb2fbc5535b37a90903,24,Mężczyzna,2022-06-04_08h50.25.201,task,2021.1.4,Win32,59.95203837,628b806c463b948bc644b84f,629b00900f64a7544c597aee,,,,,,,,,,,,,,,,,,,,,,,,8,,,,,,,,,,Task,15,(3x7) - 13,8,,,,,,,,,,,,,,,,,,,1,,,,,,,,,,,,,,,,,,,,,,,"[""8""]",1,[3.4300000000000637],0,0,0,14,1,,,,,,,,,,,,,,,,,,
,,,,,,,,,60accfb2fbc5535b37a90903,24,Mężczyzna,2022-06-04_08h50.25.201,task,2021.1.4,Win32,59.95203837,628b806c463b948bc644b84f,629b00900f64a7544c597aee,,,,,,,,,,,X V Q F H G B L J M P D K C T S W R N Z,,,,,,,,,,,,,,,,,,,,,,,,,,,,,,,,,,,,,,,,,,,,,,,,,,,,,,,,,,,,,,,,,,,,,,,,,,,,0,0,0,0,1,,,,,,,,,,,,,
,,,,,,,,,60accfb2fbc5535b37a90903,24,Mężczyzna,2022-06-04_08h50.25.201,task,2021.1.4,Win32,59.95203837,628b806c463b948bc644b84f,629b00900f64a7544c597aee,,,,,,,,,,,,,,,,,,,,,,,,8,,,,,,,,,,Task,32,(8/2) + 4,8,,,,,,,,,,,,,,,,,,,1,,,,,,,,,,,,,,,,,,,,,,,"[""8""]",1,[1.469000000000051],0,0,0,31,1,,,,,,,,,,,,,,,,,,
,,,,,,,,,60accfb2fbc5535b37a90903,24,Mężczyzna,2022-06-04_08h50.25.201,task,2021.1.4,Win32,59.95203837,628b806c463b948bc644b84f,629b00900f64a7544c597aee,,,,,,,,,,,X V Q F H G B L J M P D K C T S W R N Z,,,,,,,,,,,,,,,,,,,,,,,,,,,,,,,,,,,,,,,,,,,,,,,,,,,,,,,,,,,,,,,,,,,,,,,,,,,,1,0,1,0,1,,,,,,,,,,,,,
,,,,,,,,,60accfb2fbc5535b37a90903,24,Mężczyzna,2022-06-04_08h50.25.201,task,2021.1.4,Win32,59.95203837,628b806c463b948bc644b84f,629b00900f64a7544c597aee,,,,,,,,,,,,,,,,,,,,,,,,5,,,,,,,,,,Task,12,(4x4) - 11,5,,,,,,,,,,,,,,,,,,,1,,,,,,,,,,,,,,,,,,,,,,,"[""5""]",1,[1.8550000000000182],0,0,0,11,1,,,,,,,,,,,,,,,,,,
,,,,,,,,,60accfb2fbc5535b37a90903,24,Mężczyzna,2022-06-04_08h50.25.201,task,2021.1.4,Win32,59.95203837,628b806c463b948bc644b84f,629b00900f64a7544c597aee,,,,,,,,,,,X V Q F H G B L J M P D K C T S W R N Z,,,,,,,,,,,,,,,,,,,,,,,,,,,,,,,,,,,,,,,,,,,,,,,,,,,,,,,,,,,,,,,,,,,,,,,,,,,,2,0,2,0,1,,,,,,,,,,,,,
,,,,,,,,,60accfb2fbc5535b37a90903,24,Mężczyzna,2022-06-04_08h50.25.201,task,2021.1.4,Win32,59.95203837,628b806c463b948bc644b84f,629b00900f64a7544c597aee,,,,,,,,,,,,,,,,,,,,,,,,2,,,,,,,,,,Task,19,(6/2) - 1,2,,,,,,,,,,,,,,,,,,,1,,,,,,,,,,,,,,,,,,,,,,,"[""2""]",1,[4.211000000000013],0,0,0,18,1,,,,,,,,,,,,,,,,,,
,,,,,,,,,60accfb2fbc5535b37a90903,24,Mężczyzna,2022-06-04_08h50.25.201,task,2021.1.4,Win32,59.95203837,628b806c463b948bc644b84f,629b00900f64a7544c597aee,,,,,,,,,,,X V Q F H G B L J M P D K C T S W R N Z,,,,,,,,,,,,,,,,,,,,,,,,,,,,,,,,,,,,,,,,,,,,,,,,,,,,,,,,,,,,,,,,,,,,,,,,,,,,3,0,3,0,1,,,,,,,,,,,,,
,,,,,,,,,60accfb2fbc5535b37a90903,24,Mężczyzna,2022-06-04_08h50.25.201,task,2021.1.4,Win32,59.95203837,628b806c463b948bc644b84f,629b00900f64a7544c597aee,,,,,,,,,,,,,,,,,,,,,,,,8,,,,,,,,,,Task,39,(5x3) - 7,8,,,,,,,,,,,,,,,,,,,1,,,,,,,,,,,,,,,,,,,,,,,"[""8""]",1,[5.569000000000074],0,0,0,38,1,,,,,,,,,,,,,,,,,,
,,,,,,,,,60accfb2fbc5535b37a90903,24,Mężczyzna,2022-06-04_08h50.25.201,task,2021.1.4,Win32,59.95203837,628b806c463b948bc644b84f,629b00900f64a7544c597aee,,,,,,,,,,,X V Q F H G B L J M P D K C T S W R N Z,,,,,,,,,,,,,,,,,,,,,,,,,,,,,,,,,,,,,,,,,,,,,,,,,,,,,,,,,,,,,,,,,,,,,,,,,,,,4,0,4,0,1,,,,,,,,,,,,,
,,,,,,,,,60accfb2fbc5535b37a90903,24,Mężczyzna,2022-06-04_08h50.25.201,task,2021.1.4,Win32,59.95203837,628b806c463b948bc644b84f,629b00900f64a7544c597aee,,,,,,,,,,,,,,,,,,,,,,,,7,,,,,,,,,,Task,30,(6/3) + 4 ,6,,,,,,,,,,,,,,,,,,,0,,,,,,,,,,,,,,,,,,,,,,,"[""7""]",0,[2.566000000000031],0,0,0,29,1,,,,,,,,,,,,,,,,,,
,,,,,,,,,60accfb2fbc5535b37a90903,24,Mężczyzna,2022-06-04_08h50.25.201,task,2021.1.4,Win32,59.95203837,628b806c463b948bc644b84f,629b00900f64a7544c597aee,,,,,,,,,,,,,,,,,,,,,,,,0,,,,,,,,,,Task,17,(2x3) - 6,0,,,,,,,,,,,,,,,,,,,1,,,,,,,,,,,,,,,,,,,,,,,"[""0""]",1,[1.3920000000000528],0,1,1,16,1,,,,,,,,,,,,,,,,,,
,,,,,,,,,60accfb2fbc5535b37a90903,24,Mężczyzna,2022-06-04_08h50.25.201,task,2021.1.4,Win32,59.95203837,628b806c463b948bc644b84f,629b00900f64a7544c597aee,,,,,,,,,,,X V Q F H G B L J M P D K C T S W R N Z,,,,,,,,,,,,,,,,,,,,,,,,,,,,,,,,,,,,,,,,,,,,,,,,,,,,,,,,,,,,,,,,,,,,,,,,,,,,5,0,5,0,1,,,,,,,,,,,,,
,,,,,,,,,60accfb2fbc5535b37a90903,24,Mężczyzna,2022-06-04_08h50.25.201,task,2021.1.4,Win32,59.95203837,628b806c463b948bc644b84f,629b00900f64a7544c597aee,,,,,,,,,,,,,,,,,,,,,,,,,,,,,,,,,,,,,,,,,,,,,,,,,,,,,,,,,,,,,,,,,,,,,,,,,,,,,,,,,,,,,,,,,,,,jqrqvm,"[""j"",""q"",""r"",""q"",""v"",""m""]",0,"[0.9020000000000437,1.2570000000000618,1.620999999999981,2.0879999999999654,2.4809999999999945,4.086999999999989,4.288000000000011]",0,QRJVQM,5,0,5,0,1,,
,,,,,,,,,60accfb2fbc5535b37a90903,24,Mężczyzna,2022-06-04_08h50.25.201,task,2021.1.4,Win32,59.95203837,628b806c463b948bc644b84f,629b00900f64a7544c597aee,,,,,,,,,,,,,,,,,,,,,,,,6,,,,,,,,,,Task,21,(10/2) - 1,4,,,,,,,,,,,,,,,,,,,0,,,,,,,,,,,,,,,,,,,,,,,"[""6""]",0,[1.288000000000011],0,0,0,20,1,,,,,,,,,,,,,,,,,,
,,,,,,,,,60accfb2fbc5535b37a90903,24,Mężczyzna,2022-06-04_08h50.25.201,task,2021.1.4,Win32,59.95203837,628b806c463b948bc644b84f,629b00900f64a7544c597aee,,,,,,,,,,,,,,,,,,,,,,,,7,,,,,,,,,,Task,14,(2x2) + 3,7,,,,,,,,,,,,,,,,,,,1,,,,,,,,,,,,,,,,,,,,,,,"[""7""]",1,[1.9809999999999945],0,1,1,13,1,,,,,,,,,,,,,,,,,,
,,,,,,,,,60accfb2fbc5535b37a90903,24,Mężczyzna,2022-06-04_08h50.25.201,task,2021.1.4,Win32,59.95203837,628b806c463b948bc644b84f,629b00900f64a7544c597aee,,,,,,,,,,,X V Q F H G B L J M P D K C T S W R N Z,,,,,,,,,,,,,,,,,,,,,,,,,,,,,,,,,,,,,,,,,,,,,,,,,,,,,,,,,,,,,,,,,,,,,,,,,,,,0,0,0,0,1,,,,,,,,,,,,,
