key_resp_15.keys,key_resp_15.rt,key_resp_16.keys,key_resp_16.rt,key_resp_4.keys,key_resp_4.rt,next_letter.thisRepN,next_letter.thisTrialN,next_letter.thisN,next_letter.thisIndex,next_letter.ran,letter,participant,Wiek*,Płeć,date,expName,psychopyVersion,OS,frameRate,study_id,session,simple_recall,key_resp_5.keys,key_resp_5.rt,simple_recall_corr,simple_recall_corrkeys,next_level.thisRepN,next_level.thisTrialN,next_level.thisN,next_level.thisIndex,next_level.ran,key_resp_2.keys,key_resp_2.rt,digit_answer,key_resp.keys,key_resp.corr,key_resp.rt,RT_list,next_equation.thisRepN,next_equation.thisTrialN,next_equation.thisN,next_equation.thisIndex,next_equation.ran,Task,Trial,Problem,Operation_answer,processing_score,sumRT,meanRT,sumdiff,sd,RT,key_resp_3.keys,key_resp_3.rt,repeat_practice.thisRepN,repeat_practice.thisTrialN,repeat_practice.thisN,repeat_practice.thisIndex,repeat_practice.ran,key_resp_6.keys,key_resp_6.rt,key_resp_11.keys,key_resp_11.corr,key_resp_11.rt,operation_correct,repeat_if_wrong_prac.thisRepN,repeat_if_wrong_prac.thisTrialN,repeat_if_wrong_prac.thisN,repeat_if_wrong_prac.thisIndex,repeat_if_wrong_prac.ran,span_size_prac.thisRepN,span_size_prac.thisTrialN,span_size_prac.thisN,span_size_prac.thisIndex,span_size_prac.ran,complex_recall_practice,key_resp_9.keys,key_resp_9.corr,key_resp_9.rt,complex_prac_corr,span_recall_prac.thisRepN,span_recall_prac.thisTrialN,span_recall_prac.thisN,span_recall_prac.thisIndex,span_recall_prac.ran,key_resp_10.keys,key_resp_10.rt,key_resp_7.keys,key_resp_7.corr,key_resp_7.rt,repeat_if_wrong.thisRepN,repeat_if_wrong.thisTrialN,repeat_if_wrong.thisN,repeat_if_wrong.thisIndex,repeat_if_wrong.ran,span_size.thisRepN,span_size.thisTrialN,span_size.thisN,span_size.thisIndex,span_size.ran,complex_recall,key_resp_8.keys,key_resp_8.corr,key_resp_8.rt,complex_recall_corr,complex_recall_corrkeys,span_recall.thisRepN,span_recall.thisTrialN,span_recall.thisN,span_recall.thisIndex,span_recall.ran,key_resp_13.keys,key_resp_13.corr,key_resp_13.rt,random_loop.thisRepN,random_loop.thisTrialN,random_loop.thisN,random_loop.thisIndex,random_loop.ran,key_resp_12.keys,key_resp_12.rt
space,16.4986,space,13.9693,space,7.2327,0,0,0,0,1,X V Q F H G B L J M P D K C T S W R N Z,60b52fd8e153e8239639775a,21,Kobieta,2022-06-11_09h06.00.675,task,2021.1.4,Win32,59.97361161,6299f149e92ead563fba08ef,62a43ecd4ed8e0f1179ce562,,,,,,,,,,,,,,,,,,,,,,,,,,,,,,,,,,,,,,,,,,,,,,,,,,,,,,,,,,,,,,,,,,,,,,,,,,,,,,,,,,,,,,,,,,,,,,,,,,,,,
,,,,,,1,0,1,0,1,X V Q F H G B L J M P D K C T S W R N Z,60b52fd8e153e8239639775a,21,Kobieta,2022-06-11_09h06.00.675,task,2021.1.4,Win32,59.97361161,6299f149e92ead563fba08ef,62a43ecd4ed8e0f1179ce562,,,,,,,,,,,,,,,,,,,,,,,,,,,,,,,,,,,,,,,,,,,,,,,,,,,,,,,,,,,,,,,,,,,,,,,,,,,,,,,,,,,,,,,,,,,,,,,,,,,,,
,,,,,,,,,,,,60b52fd8e153e8239639775a,21,Kobieta,2022-06-11_09h06.00.675,task,2021.1.4,Win32,59.97361161,6299f149e92ead563fba08ef,62a43ecd4ed8e0f1179ce562,zf,"[""z"",""f""]","[2.5595,3.1437999997138917,4.805400000095368]",1,ZF,0,0,0,0,1,,,,,,,,,,,,,,,,,,,,,,,,,,,,,,,,,,,,,,,,,,,,,,,,,,,,,,,,,,,,,,,,,,,,,,,,,,,,,,,,,,,,,,,,,,,
,,,,,,0,0,0,0,1,X V Q F H G B L J M P D K C T S W R N Z,60b52fd8e153e8239639775a,21,Kobieta,2022-06-11_09h06.00.675,task,2021.1.4,Win32,59.97361161,6299f149e92ead563fba08ef,62a43ecd4ed8e0f1179ce562,,,,,,,,,,,,,,,,,,,,,,,,,,,,,,,,,,,,,,,,,,,,,,,,,,,,,,,,,,,,,,,,,,,,,,,,,,,,,,,,,,,,,,,,,,,,,,,,,,,,,
,,,,,,1,0,1,0,1,X V Q F H G B L J M P D K C T S W R N Z,60b52fd8e153e8239639775a,21,Kobieta,2022-06-11_09h06.00.675,task,2021.1.4,Win32,59.97361161,6299f149e92ead563fba08ef,62a43ecd4ed8e0f1179ce562,,,,,,,,,,,,,,,,,,,,,,,,,,,,,,,,,,,,,,,,,,,,,,,,,,,,,,,,,,,,,,,,,,,,,,,,,,,,,,,,,,,,,,,,,,,,,,,,,,,,,
,,,,,,,,,,,,60b52fd8e153e8239639775a,21,Kobieta,2022-06-11_09h06.00.675,task,2021.1.4,Win32,59.97361161,6299f149e92ead563fba08ef,62a43ecd4ed8e0f1179ce562,vk,"[""v"",""k""]","[1.1126000003814696,1.509600000381468,2.063900000095366]",1,VK,1,0,1,0,1,,,,,,,,,,,,,,,,,,,,,,,,,,,,,,,,,,,,,,,,,,,,,,,,,,,,,,,,,,,,,,,,,,,,,,,,,,,,,,,,,,,,,,,,,,,
,,,,,,0,0,0,0,1,X V Q F H G B L J M P D K C T S W R N Z,60b52fd8e153e8239639775a,21,Kobieta,2022-06-11_09h06.00.675,task,2021.1.4,Win32,59.97361161,6299f149e92ead563fba08ef,62a43ecd4ed8e0f1179ce562,,,,,,,,,,,,,,,,,,,,,,,,,,,,,,,,,,,,,,,,,,,,,,,,,,,,,,,,,,,,,,,,,,,,,,,,,,,,,,,,,,,,,,,,,,,,,,,,,,,,,
,,,,,,1,0,1,0,1,X V Q F H G B L J M P D K C T S W R N Z,60b52fd8e153e8239639775a,21,Kobieta,2022-06-11_09h06.00.675,task,2021.1.4,Win32,59.97361161,6299f149e92ead563fba08ef,62a43ecd4ed8e0f1179ce562,,,,,,,,,,,,,,,,,,,,,,,,,,,,,,,,,,,,,,,,,,,,,,,,,,,,,,,,,,,,,,,,,,,,,,,,,,,,,,,,,,,,,,,,,,,,,,,,,,,,,
,,,,,,2,0,2,0,1,X V Q F H G B L J M P D K C T S W R N Z,60b52fd8e153e8239639775a,21,Kobieta,2022-06-11_09h06.00.675,task,2021.1.4,Win32,59.97361161,6299f149e92ead563fba08ef,62a43ecd4ed8e0f1179ce562,,,,,,,,,,,,,,,,,,,,,,,,,,,,,,,,,,,,,,,,,,,,,,,,,,,,,,,,,,,,,,,,,,,,,,,,,,,,,,,,,,,,,,,,,,,,,,,,,,,,,
,,,,,,,,,,,,60b52fd8e153e8239639775a,21,Kobieta,2022-06-11_09h06.00.675,task,2021.1.4,Win32,59.97361161,6299f149e92ead563fba08ef,62a43ecd4ed8e0f1179ce562,kzc,"[""k"",""z"",""c""]","[0.947099999904637,1.3134000000953705,1.5614000000953752,2.2849999999999966]",1,KZC,2,0,2,0,1,,,,,,,,,,,,,,,,,,,,,,,,,,,,,,,,,,,,,,,,,,,,,,,,,,,,,,,,,,,,,,,,,,,,,,,,,,,,,,,,,,,,,,,,,,,
,,,,,,0,0,0,0,1,X V Q F H G B L J M P D K C T S W R N Z,60b52fd8e153e8239639775a,21,Kobieta,2022-06-11_09h06.00.675,task,2021.1.4,Win32,59.97361161,6299f149e92ead563fba08ef,62a43ecd4ed8e0f1179ce562,,,,,,,,,,,,,,,,,,,,,,,,,,,,,,,,,,,,,,,,,,,,,,,,,,,,,,,,,,,,,,,,,,,,,,,,,,,,,,,,,,,,,,,,,,,,,,,,,,,,,
,,,,,,1,0,1,0,1,X V Q F H G B L J M P D K C T S W R N Z,60b52fd8e153e8239639775a,21,Kobieta,2022-06-11_09h06.00.675,task,2021.1.4,Win32,59.97361161,6299f149e92ead563fba08ef,62a43ecd4ed8e0f1179ce562,,,,,,,,,,,,,,,,,,,,,,,,,,,,,,,,,,,,,,,,,,,,,,,,,,,,,,,,,,,,,,,,,,,,,,,,,,,,,,,,,,,,,,,,,,,,,,,,,,,,,
,,,,,,2,0,2,0,1,X V Q F H G B L J M P D K C T S W R N Z,60b52fd8e153e8239639775a,21,Kobieta,2022-06-11_09h06.00.675,task,2021.1.4,Win32,59.97361161,6299f149e92ead563fba08ef,62a43ecd4ed8e0f1179ce562,,,,,,,,,,,,,,,,,,,,,,,,,,,,,,,,,,,,,,,,,,,,,,,,,,,,,,,,,,,,,,,,,,,,,,,,,,,,,,,,,,,,,,,,,,,,,,,,,,,,,
,,,,,,,,,,,,60b52fd8e153e8239639775a,21,Kobieta,2022-06-11_09h06.00.675,task,2021.1.4,Win32,59.97361161,6299f149e92ead563fba08ef,62a43ecd4ed8e0f1179ce562,knm,"[""k"",""n"",""m""]","[4.518800000190723,5.6282000002861,5.829300000190727,6.243700000286097]",0,NMN,3,0,3,0,1,,,,,,,,,,,,,,,,,,,,,,,,,,,,,,,,,,,,,,,,,,,,,,,,,,,,,,,,,,,,,,,,,,,,,,,,,,,,,,,,,,,,,,,,,,,
,,,,,,0,0,0,0,1,X V Q F H G B L J M P D K C T S W R N Z,60b52fd8e153e8239639775a,21,Kobieta,2022-06-11_09h06.00.675,task,2021.1.4,Win32,59.97361161,6299f149e92ead563fba08ef,62a43ecd4ed8e0f1179ce562,,,,,,,,,,,,,,,,,,,,,,,,,,,,,,,,,,,,,,,,,,,,,,,,,,,,,,,,,,,,,,,,,,,,,,,,,,,,,,,,,,,,,,,,,,,,,,,,,,,,,
,,,,,,1,0,1,0,1,X V Q F H G B L J M P D K C T S W R N Z,60b52fd8e153e8239639775a,21,Kobieta,2022-06-11_09h06.00.675,task,2021.1.4,Win32,59.97361161,6299f149e92ead563fba08ef,62a43ecd4ed8e0f1179ce562,,,,,,,,,,,,,,,,,,,,,,,,,,,,,,,,,,,,,,,,,,,,,,,,,,,,,,,,,,,,,,,,,,,,,,,,,,,,,,,,,,,,,,,,,,,,,,,,,,,,,
,,,,,,2,0,2,0,1,X V Q F H G B L J M P D K C T S W R N Z,60b52fd8e153e8239639775a,21,Kobieta,2022-06-11_09h06.00.675,task,2021.1.4,Win32,59.97361161,6299f149e92ead563fba08ef,62a43ecd4ed8e0f1179ce562,,,,,,,,,,,,,,,,,,,,,,,,,,,,,,,,,,,,,,,,,,,,,,,,,,,,,,,,,,,,,,,,,,,,,,,,,,,,,,,,,,,,,,,,,,,,,,,,,,,,,
,,,,,,,,,,,,60b52fd8e153e8239639775a,21,Kobieta,2022-06-11_09h06.00.675,task,2021.1.4,Win32,59.97361161,6299f149e92ead563fba08ef,62a43ecd4ed8e0f1179ce562,hks,"[""h"",""k"",""s""]","[1.3417000002861101,1.683400000095375,2.0767000002861096,2.8278000001907344]",1,HKS,4,0,4,0,1,,,,,,,,,,,,,,,,,,,,,,,,,,,,,,,,,,,,,,,,,,,,,,,,,,,,,,,,,,,,,,,,,,,,,,,,,,,,,,,,,,,,,,,,,,,
,,,,,,0,0,0,0,1,X V Q F H G B L J M P D K C T S W R N Z,60b52fd8e153e8239639775a,21,Kobieta,2022-06-11_09h06.00.675,task,2021.1.4,Win32,59.97361161,6299f149e92ead563fba08ef,62a43ecd4ed8e0f1179ce562,,,,,,,,,,,,,,,,,,,,,,,,,,,,,,,,,,,,,,,,,,,,,,,,,,,,,,,,,,,,,,,,,,,,,,,,,,,,,,,,,,,,,,,,,,,,,,,,,,,,,
,,,,,,1,0,1,0,1,X V Q F H G B L J M P D K C T S W R N Z,60b52fd8e153e8239639775a,21,Kobieta,2022-06-11_09h06.00.675,task,2021.1.4,Win32,59.97361161,6299f149e92ead563fba08ef,62a43ecd4ed8e0f1179ce562,,,,,,,,,,,,,,,,,,,,,,,,,,,,,,,,,,,,,,,,,,,,,,,,,,,,,,,,,,,,,,,,,,,,,,,,,,,,,,,,,,,,,,,,,,,,,,,,,,,,,
,,,,,,2,0,2,0,1,X V Q F H G B L J M P D K C T S W R N Z,60b52fd8e153e8239639775a,21,Kobieta,2022-06-11_09h06.00.675,task,2021.1.4,Win32,59.97361161,6299f149e92ead563fba08ef,62a43ecd4ed8e0f1179ce562,,,,,,,,,,,,,,,,,,,,,,,,,,,,,,,,,,,,,,,,,,,,,,,,,,,,,,,,,,,,,,,,,,,,,,,,,,,,,,,,,,,,,,,,,,,,,,,,,,,,,
,,,,,,3,0,3,0,1,X V Q F H G B L J M P D K C T S W R N Z,60b52fd8e153e8239639775a,21,Kobieta,2022-06-11_09h06.00.675,task,2021.1.4,Win32,59.97361161,6299f149e92ead563fba08ef,62a43ecd4ed8e0f1179ce562,,,,,,,,,,,,,,,,,,,,,,,,,,,,,,,,,,,,,,,,,,,,,,,,,,,,,,,,,,,,,,,,,,,,,,,,,,,,,,,,,,,,,,,,,,,,,,,,,,,,,
,,,,,,,,,,,,60b52fd8e153e8239639775a,21,Kobieta,2022-06-11_09h06.00.675,task,2021.1.4,Win32,59.97361161,6299f149e92ead563fba08ef,62a43ecd4ed8e0f1179ce562,xkmz,"[""x"",""k"",""m"",""z""]","[0.9976000003814676,1.3482000002860985,1.7517000002860925,2.125,2.6492000002861005]",1,XKMZ,5,0,5,0,1,,,,,,,,,,,,,,,,,,,,,,,,,,,,,,,,,,,,,,,,,,,,,,,,,,,,,,,,,,,,,,,,,,,,,,,,,,,,,,,,,,,,,,,,,,,
,,,,,,0,0,0,0,1,X V Q F H G B L J M P D K C T S W R N Z,60b52fd8e153e8239639775a,21,Kobieta,2022-06-11_09h06.00.675,task,2021.1.4,Win32,59.97361161,6299f149e92ead563fba08ef,62a43ecd4ed8e0f1179ce562,,,,,,,,,,,,,,,,,,,,,,,,,,,,,,,,,,,,,,,,,,,,,,,,,,,,,,,,,,,,,,,,,,,,,,,,,,,,,,,,,,,,,,,,,,,,,,,,,,,,,
,,,,,,1,0,1,0,1,X V Q F H G B L J M P D K C T S W R N Z,60b52fd8e153e8239639775a,21,Kobieta,2022-06-11_09h06.00.675,task,2021.1.4,Win32,59.97361161,6299f149e92ead563fba08ef,62a43ecd4ed8e0f1179ce562,,,,,,,,,,,,,,,,,,,,,,,,,,,,,,,,,,,,,,,,,,,,,,,,,,,,,,,,,,,,,,,,,,,,,,,,,,,,,,,,,,,,,,,,,,,,,,,,,,,,,
,,,,,,2,0,2,0,1,X V Q F H G B L J M P D K C T S W R N Z,60b52fd8e153e8239639775a,21,Kobieta,2022-06-11_09h06.00.675,task,2021.1.4,Win32,59.97361161,6299f149e92ead563fba08ef,62a43ecd4ed8e0f1179ce562,,,,,,,,,,,,,,,,,,,,,,,,,,,,,,,,,,,,,,,,,,,,,,,,,,,,,,,,,,,,,,,,,,,,,,,,,,,,,,,,,,,,,,,,,,,,,,,,,,,,,
,,,,,,3,0,3,0,1,X V Q F H G B L J M P D K C T S W R N Z,60b52fd8e153e8239639775a,21,Kobieta,2022-06-11_09h06.00.675,task,2021.1.4,Win32,59.97361161,6299f149e92ead563fba08ef,62a43ecd4ed8e0f1179ce562,,,,,,,,,,,,,,,,,,,,,,,,,,,,,,,,,,,,,,,,,,,,,,,,,,,,,,,,,,,,,,,,,,,,,,,,,,,,,,,,,,,,,,,,,,,,,,,,,,,,,
,,,,,,,,,,,,60b52fd8e153e8239639775a,21,Kobieta,2022-06-11_09h06.00.675,task,2021.1.4,Win32,59.97361161,6299f149e92ead563fba08ef,62a43ecd4ed8e0f1179ce562,kbjt,"[""k"",""b"",""j"",""t""]","[1.0218000001907228,1.3708000001907266,1.6044000000953673,1.8490999999046238,2.2968000001907285]",1,KBJT,6,0,6,0,1,,,,,,,,,,,,,,,,,,,,,,,,,,,,,,,,,,,,,,,,,,,,,,,,,,,,,,,,,,,,,,,,,,,,,,,,,,,,,,,,,,,,,,,,,,,
,,,,,,0,0,0,0,1,X V Q F H G B L J M P D K C T S W R N Z,60b52fd8e153e8239639775a,21,Kobieta,2022-06-11_09h06.00.675,task,2021.1.4,Win32,59.97361161,6299f149e92ead563fba08ef,62a43ecd4ed8e0f1179ce562,,,,,,,,,,,,,,,,,,,,,,,,,,,,,,,,,,,,,,,,,,,,,,,,,,,,,,,,,,,,,,,,,,,,,,,,,,,,,,,,,,,,,,,,,,,,,,,,,,,,,
,,,,,,1,0,1,0,1,X V Q F H G B L J M P D K C T S W R N Z,60b52fd8e153e8239639775a,21,Kobieta,2022-06-11_09h06.00.675,task,2021.1.4,Win32,59.97361161,6299f149e92ead563fba08ef,62a43ecd4ed8e0f1179ce562,,,,,,,,,,,,,,,,,,,,,,,,,,,,,,,,,,,,,,,,,,,,,,,,,,,,,,,,,,,,,,,,,,,,,,,,,,,,,,,,,,,,,,,,,,,,,,,,,,,,,
,,,,,,2,0,2,0,1,X V Q F H G B L J M P D K C T S W R N Z,60b52fd8e153e8239639775a,21,Kobieta,2022-06-11_09h06.00.675,task,2021.1.4,Win32,59.97361161,6299f149e92ead563fba08ef,62a43ecd4ed8e0f1179ce562,,,,,,,,,,,,,,,,,,,,,,,,,,,,,,,,,,,,,,,,,,,,,,,,,,,,,,,,,,,,,,,,,,,,,,,,,,,,,,,,,,,,,,,,,,,,,,,,,,,,,
,,,,,,3,0,3,0,1,X V Q F H G B L J M P D K C T S W R N Z,60b52fd8e153e8239639775a,21,Kobieta,2022-06-11_09h06.00.675,task,2021.1.4,Win32,59.97361161,6299f149e92ead563fba08ef,62a43ecd4ed8e0f1179ce562,,,,,,,,,,,,,,,,,,,,,,,,,,,,,,,,,,,,,,,,,,,,,,,,,,,,,,,,,,,,,,,,,,,,,,,,,,,,,,,,,,,,,,,,,,,,,,,,,,,,,
,,,,,,4,0,4,0,1,X V Q F H G B L J M P D K C T S W R N Z,60b52fd8e153e8239639775a,21,Kobieta,2022-06-11_09h06.00.675,task,2021.1.4,Win32,59.97361161,6299f149e92ead563fba08ef,62a43ecd4ed8e0f1179ce562,,,,,,,,,,,,,,,,,,,,,,,,,,,,,,,,,,,,,,,,,,,,,,,,,,,,,,,,,,,,,,,,,,,,,,,,,,,,,,,,,,,,,,,,,,,,,,,,,,,,,
,,,,,,,,,,,,60b52fd8e153e8239639775a,21,Kobieta,2022-06-11_09h06.00.675,task,2021.1.4,Win32,59.97361161,6299f149e92ead563fba08ef,62a43ecd4ed8e0f1179ce562,vwmdn,"[""v"",""w"",""m"",""d"",""n""]","[1.11390000009537,2.2194999999999965,2.731499999999997,3.248499999999993,3.736400000095358,4.1503000001907395]",1,VWMDN,7,0,7,0,1,,,,,,,,,,,,,,,,,,,,,,,,,,,,,,,,,,,,,,,,,,,,,,,,,,,,,,,,,,,,,,,,,,,,,,,,,,,,,,,,,,,,,,,,,,,
,,,,,,0,0,0,0,1,X V Q F H G B L J M P D K C T S W R N Z,60b52fd8e153e8239639775a,21,Kobieta,2022-06-11_09h06.00.675,task,2021.1.4,Win32,59.97361161,6299f149e92ead563fba08ef,62a43ecd4ed8e0f1179ce562,,,,,,,,,,,,,,,,,,,,,,,,,,,,,,,,,,,,,,,,,,,,,,,,,,,,,,,,,,,,,,,,,,,,,,,,,,,,,,,,,,,,,,,,,,,,,,,,,,,,,
,,,,,,1,0,1,0,1,X V Q F H G B L J M P D K C T S W R N Z,60b52fd8e153e8239639775a,21,Kobieta,2022-06-11_09h06.00.675,task,2021.1.4,Win32,59.97361161,6299f149e92ead563fba08ef,62a43ecd4ed8e0f1179ce562,,,,,,,,,,,,,,,,,,,,,,,,,,,,,,,,,,,,,,,,,,,,,,,,,,,,,,,,,,,,,,,,,,,,,,,,,,,,,,,,,,,,,,,,,,,,,,,,,,,,,
,,,,,,2,0,2,0,1,X V Q F H G B L J M P D K C T S W R N Z,60b52fd8e153e8239639775a,21,Kobieta,2022-06-11_09h06.00.675,task,2021.1.4,Win32,59.97361161,6299f149e92ead563fba08ef,62a43ecd4ed8e0f1179ce562,,,,,,,,,,,,,,,,,,,,,,,,,,,,,,,,,,,,,,,,,,,,,,,,,,,,,,,,,,,,,,,,,,,,,,,,,,,,,,,,,,,,,,,,,,,,,,,,,,,,,
,,,,,,3,0,3,0,1,X V Q F H G B L J M P D K C T S W R N Z,60b52fd8e153e8239639775a,21,Kobieta,2022-06-11_09h06.00.675,task,2021.1.4,Win32,59.97361161,6299f149e92ead563fba08ef,62a43ecd4ed8e0f1179ce562,,,,,,,,,,,,,,,,,,,,,,,,,,,,,,,,,,,,,,,,,,,,,,,,,,,,,,,,,,,,,,,,,,,,,,,,,,,,,,,,,,,,,,,,,,,,,,,,,,,,,
,,,,,,4,0,4,0,1,X V Q F H G B L J M P D K C T S W R N Z,60b52fd8e153e8239639775a,21,Kobieta,2022-06-11_09h06.00.675,task,2021.1.4,Win32,59.97361161,6299f149e92ead563fba08ef,62a43ecd4ed8e0f1179ce562,,,,,,,,,,,,,,,,,,,,,,,,,,,,,,,,,,,,,,,,,,,,,,,,,,,,,,,,,,,,,,,,,,,,,,,,,,,,,,,,,,,,,,,,,,,,,,,,,,,,,
,,,,,,,,,,,,60b52fd8e153e8239639775a,21,Kobieta,2022-06-11_09h06.00.675,task,2021.1.4,Win32,59.97361161,6299f149e92ead563fba08ef,62a43ecd4ed8e0f1179ce562,tlhkv,"[""t"",""l"",""h"",""k"",""v""]","[1.0465000000000089,1.5785000000000053,1.9636999998092648,2.228800000190745,2.5466999998092774,2.9295999999046387]",1,TLHKV,8,0,8,0,1,,,,,,,,,,,,,,,,,,,,,,,,,,,,,,,,,,,,,,,,,,,,,,,,,,,,,,,,,,,,,,,,,,,,,,,,,,,,,,,,,,,,,,,,,,,
,,,,,,0,0,0,0,1,X V Q F H G B L J M P D K C T S W R N Z,60b52fd8e153e8239639775a,21,Kobieta,2022-06-11_09h06.00.675,task,2021.1.4,Win32,59.97361161,6299f149e92ead563fba08ef,62a43ecd4ed8e0f1179ce562,,,,,,,,,,,,,,,,,,,,,,,,,,,,,,,,,,,,,,,,,,,,,,,,,,,,,,,,,,,,,,,,,,,,,,,,,,,,,,,,,,,,,,,,,,,,,,,,,,,,,
,,,,,,1,0,1,0,1,X V Q F H G B L J M P D K C T S W R N Z,60b52fd8e153e8239639775a,21,Kobieta,2022-06-11_09h06.00.675,task,2021.1.4,Win32,59.97361161,6299f149e92ead563fba08ef,62a43ecd4ed8e0f1179ce562,,,,,,,,,,,,,,,,,,,,,,,,,,,,,,,,,,,,,,,,,,,,,,,,,,,,,,,,,,,,,,,,,,,,,,,,,,,,,,,,,,,,,,,,,,,,,,,,,,,,,
,,,,,,2,0,2,0,1,X V Q F H G B L J M P D K C T S W R N Z,60b52fd8e153e8239639775a,21,Kobieta,2022-06-11_09h06.00.675,task,2021.1.4,Win32,59.97361161,6299f149e92ead563fba08ef,62a43ecd4ed8e0f1179ce562,,,,,,,,,,,,,,,,,,,,,,,,,,,,,,,,,,,,,,,,,,,,,,,,,,,,,,,,,,,,,,,,,,,,,,,,,,,,,,,,,,,,,,,,,,,,,,,,,,,,,
,,,,,,3,0,3,0,1,X V Q F H G B L J M P D K C T S W R N Z,60b52fd8e153e8239639775a,21,Kobieta,2022-06-11_09h06.00.675,task,2021.1.4,Win32,59.97361161,6299f149e92ead563fba08ef,62a43ecd4ed8e0f1179ce562,,,,,,,,,,,,,,,,,,,,,,,,,,,,,,,,,,,,,,,,,,,,,,,,,,,,,,,,,,,,,,,,,,,,,,,,,,,,,,,,,,,,,,,,,,,,,,,,,,,,,
,,,,,,4,0,4,0,1,X V Q F H G B L J M P D K C T S W R N Z,60b52fd8e153e8239639775a,21,Kobieta,2022-06-11_09h06.00.675,task,2021.1.4,Win32,59.97361161,6299f149e92ead563fba08ef,62a43ecd4ed8e0f1179ce562,,,,,,,,,,,,,,,,,,,,,,,,,,,,,,,,,,,,,,,,,,,,,,,,,,,,,,,,,,,,,,,,,,,,,,,,,,,,,,,,,,,,,,,,,,,,,,,,,,,,,
,,,,,,5,0,5,0,1,X V Q F H G B L J M P D K C T S W R N Z,60b52fd8e153e8239639775a,21,Kobieta,2022-06-11_09h06.00.675,task,2021.1.4,Win32,59.97361161,6299f149e92ead563fba08ef,62a43ecd4ed8e0f1179ce562,,,,,,,,,,,,,,,,,,,,,,,,,,,,,,,,,,,,,,,,,,,,,,,,,,,,,,,,,,,,,,,,,,,,,,,,,,,,,,,,,,,,,,,,,,,,,,,,,,,,,
,,,,,,,,,,,,60b52fd8e153e8239639775a,21,Kobieta,2022-06-11_09h06.00.675,task,2021.1.4,Win32,59.97361161,6299f149e92ead563fba08ef,62a43ecd4ed8e0f1179ce562,kjwvlh,"[""k"",""j"",""w"",""v"",""l"",""h""]","[0.9834999999999923,1.3264000000953615,3.99220000028609,7.989800000190712,9.514900000095366,9.759900000095342,10.089499999999987]",1,KJWVLH,9,0,9,0,1,,,,,,,,,,,,,,,,,,,,,,,,,,,,,,,,,,,,,,,,,,,,,,,,,,,,,,,,,,,,,,,,,,,,,,,,,,,,,,,,,,,,,,,,,,,
,,,,,,0,0,0,0,1,X V Q F H G B L J M P D K C T S W R N Z,60b52fd8e153e8239639775a,21,Kobieta,2022-06-11_09h06.00.675,task,2021.1.4,Win32,59.97361161,6299f149e92ead563fba08ef,62a43ecd4ed8e0f1179ce562,,,,,,,,,,,,,,,,,,,,,,,,,,,,,,,,,,,,,,,,,,,,,,,,,,,,,,,,,,,,,,,,,,,,,,,,,,,,,,,,,,,,,,,,,,,,,,,,,,,,,
,,,,,,1,0,1,0,1,X V Q F H G B L J M P D K C T S W R N Z,60b52fd8e153e8239639775a,21,Kobieta,2022-06-11_09h06.00.675,task,2021.1.4,Win32,59.97361161,6299f149e92ead563fba08ef,62a43ecd4ed8e0f1179ce562,,,,,,,,,,,,,,,,,,,,,,,,,,,,,,,,,,,,,,,,,,,,,,,,,,,,,,,,,,,,,,,,,,,,,,,,,,,,,,,,,,,,,,,,,,,,,,,,,,,,,
,,,,,,2,0,2,0,1,X V Q F H G B L J M P D K C T S W R N Z,60b52fd8e153e8239639775a,21,Kobieta,2022-06-11_09h06.00.675,task,2021.1.4,Win32,59.97361161,6299f149e92ead563fba08ef,62a43ecd4ed8e0f1179ce562,,,,,,,,,,,,,,,,,,,,,,,,,,,,,,,,,,,,,,,,,,,,,,,,,,,,,,,,,,,,,,,,,,,,,,,,,,,,,,,,,,,,,,,,,,,,,,,,,,,,,
,,,,,,3,0,3,0,1,X V Q F H G B L J M P D K C T S W R N Z,60b52fd8e153e8239639775a,21,Kobieta,2022-06-11_09h06.00.675,task,2021.1.4,Win32,59.97361161,6299f149e92ead563fba08ef,62a43ecd4ed8e0f1179ce562,,,,,,,,,,,,,,,,,,,,,,,,,,,,,,,,,,,,,,,,,,,,,,,,,,,,,,,,,,,,,,,,,,,,,,,,,,,,,,,,,,,,,,,,,,,,,,,,,,,,,
,,,,,,4,0,4,0,1,X V Q F H G B L J M P D K C T S W R N Z,60b52fd8e153e8239639775a,21,Kobieta,2022-06-11_09h06.00.675,task,2021.1.4,Win32,59.97361161,6299f149e92ead563fba08ef,62a43ecd4ed8e0f1179ce562,,,,,,,,,,,,,,,,,,,,,,,,,,,,,,,,,,,,,,,,,,,,,,,,,,,,,,,,,,,,,,,,,,,,,,,,,,,,,,,,,,,,,,,,,,,,,,,,,,,,,
,,,,,,5,0,5,0,1,X V Q F H G B L J M P D K C T S W R N Z,60b52fd8e153e8239639775a,21,Kobieta,2022-06-11_09h06.00.675,task,2021.1.4,Win32,59.97361161,6299f149e92ead563fba08ef,62a43ecd4ed8e0f1179ce562,,,,,,,,,,,,,,,,,,,,,,,,,,,,,,,,,,,,,,,,,,,,,,,,,,,,,,,,,,,,,,,,,,,,,,,,,,,,,,,,,,,,,,,,,,,,,,,,,,,,,
,,,,,,,,,,,,60b52fd8e153e8239639775a,21,Kobieta,2022-06-11_09h06.00.675,task,2021.1.4,Win32,59.97361161,6299f149e92ead563fba08ef,62a43ecd4ed8e0f1179ce562,frrbjz,"[""f"",""r"",""r"",""b"",""j"",""z""]","[1.048900000095358,1.3168000001907387,1.4832000002861037,2.214100000381478,2.4047000002861125,2.7316000003814622,3.2982000002861014]",1,FRRBJZ,10,0,10,0,1,,,,,,,,,,,,,,,,,,,,,,,,,,,,,,,,,,,,,,,,,,,,,,,,,,,,,,,,,,,,,,,,,,,,,,,,,,,,,,,,,,,,,,,,,,,
,,,,,,0,0,0,0,1,X V Q F H G B L J M P D K C T S W R N Z,60b52fd8e153e8239639775a,21,Kobieta,2022-06-11_09h06.00.675,task,2021.1.4,Win32,59.97361161,6299f149e92ead563fba08ef,62a43ecd4ed8e0f1179ce562,,,,,,,,,,,,,,,,,,,,,,,,,,,,,,,,,,,,,,,,,,,,,,,,,,,,,,,,,,,,,,,,,,,,,,,,,,,,,,,,,,,,,,,,,,,,,,,,,,,,,
,,,,,,1,0,1,0,1,X V Q F H G B L J M P D K C T S W R N Z,60b52fd8e153e8239639775a,21,Kobieta,2022-06-11_09h06.00.675,task,2021.1.4,Win32,59.97361161,6299f149e92ead563fba08ef,62a43ecd4ed8e0f1179ce562,,,,,,,,,,,,,,,,,,,,,,,,,,,,,,,,,,,,,,,,,,,,,,,,,,,,,,,,,,,,,,,,,,,,,,,,,,,,,,,,,,,,,,,,,,,,,,,,,,,,,
,,,,,,2,0,2,0,1,X V Q F H G B L J M P D K C T S W R N Z,60b52fd8e153e8239639775a,21,Kobieta,2022-06-11_09h06.00.675,task,2021.1.4,Win32,59.97361161,6299f149e92ead563fba08ef,62a43ecd4ed8e0f1179ce562,,,,,,,,,,,,,,,,,,,,,,,,,,,,,,,,,,,,,,,,,,,,,,,,,,,,,,,,,,,,,,,,,,,,,,,,,,,,,,,,,,,,,,,,,,,,,,,,,,,,,
,,,,,,3,0,3,0,1,X V Q F H G B L J M P D K C T S W R N Z,60b52fd8e153e8239639775a,21,Kobieta,2022-06-11_09h06.00.675,task,2021.1.4,Win32,59.97361161,6299f149e92ead563fba08ef,62a43ecd4ed8e0f1179ce562,,,,,,,,,,,,,,,,,,,,,,,,,,,,,,,,,,,,,,,,,,,,,,,,,,,,,,,,,,,,,,,,,,,,,,,,,,,,,,,,,,,,,,,,,,,,,,,,,,,,,
,,,,,,4,0,4,0,1,X V Q F H G B L J M P D K C T S W R N Z,60b52fd8e153e8239639775a,21,Kobieta,2022-06-11_09h06.00.675,task,2021.1.4,Win32,59.97361161,6299f149e92ead563fba08ef,62a43ecd4ed8e0f1179ce562,,,,,,,,,,,,,,,,,,,,,,,,,,,,,,,,,,,,,,,,,,,,,,,,,,,,,,,,,,,,,,,,,,,,,,,,,,,,,,,,,,,,,,,,,,,,,,,,,,,,,
,,,,,,5,0,5,0,1,X V Q F H G B L J M P D K C T S W R N Z,60b52fd8e153e8239639775a,21,Kobieta,2022-06-11_09h06.00.675,task,2021.1.4,Win32,59.97361161,6299f149e92ead563fba08ef,62a43ecd4ed8e0f1179ce562,,,,,,,,,,,,,,,,,,,,,,,,,,,,,,,,,,,,,,,,,,,,,,,,,,,,,,,,,,,,,,,,,,,,,,,,,,,,,,,,,,,,,,,,,,,,,,,,,,,,,
,,,,,,6,0,6,0,1,X V Q F H G B L J M P D K C T S W R N Z,60b52fd8e153e8239639775a,21,Kobieta,2022-06-11_09h06.00.675,task,2021.1.4,Win32,59.97361161,6299f149e92ead563fba08ef,62a43ecd4ed8e0f1179ce562,,,,,,,,,,,,,,,,,,,,,,,,,,,,,,,,,,,,,,,,,,,,,,,,,,,,,,,,,,,,,,,,,,,,,,,,,,,,,,,,,,,,,,,,,,,,,,,,,,,,,
,,,,,,,,,,,,60b52fd8e153e8239639775a,21,Kobieta,2022-06-11_09h06.00.675,task,2021.1.4,Win32,59.97361161,6299f149e92ead563fba08ef,62a43ecd4ed8e0f1179ce562,vfbj,"[""v"",""f"",""b"",""j""]","[2.774900000095357,3.467099999904633,5.152299999713904,5.61309999990462,7.783500000000004]",0,VMWBNJV,11,0,11,0,1,,,,,,,,,,,,,,,,,,,,,,,,,,,,,,,,,,,,,,,,,,,,,,,,,,,,,,,,,,,,,,,,,,,,,,,,,,,,,,,,,,,,,,,,,,,
,,,,,,0,0,0,0,1,X V Q F H G B L J M P D K C T S W R N Z,60b52fd8e153e8239639775a,21,Kobieta,2022-06-11_09h06.00.675,task,2021.1.4,Win32,59.97361161,6299f149e92ead563fba08ef,62a43ecd4ed8e0f1179ce562,,,,,,,,,,,,,,,,,,,,,,,,,,,,,,,,,,,,,,,,,,,,,,,,,,,,,,,,,,,,,,,,,,,,,,,,,,,,,,,,,,,,,,,,,,,,,,,,,,,,,
,,,,,,1,0,1,0,1,X V Q F H G B L J M P D K C T S W R N Z,60b52fd8e153e8239639775a,21,Kobieta,2022-06-11_09h06.00.675,task,2021.1.4,Win32,59.97361161,6299f149e92ead563fba08ef,62a43ecd4ed8e0f1179ce562,,,,,,,,,,,,,,,,,,,,,,,,,,,,,,,,,,,,,,,,,,,,,,,,,,,,,,,,,,,,,,,,,,,,,,,,,,,,,,,,,,,,,,,,,,,,,,,,,,,,,
,,,,,,2,0,2,0,1,X V Q F H G B L J M P D K C T S W R N Z,60b52fd8e153e8239639775a,21,Kobieta,2022-06-11_09h06.00.675,task,2021.1.4,Win32,59.97361161,6299f149e92ead563fba08ef,62a43ecd4ed8e0f1179ce562,,,,,,,,,,,,,,,,,,,,,,,,,,,,,,,,,,,,,,,,,,,,,,,,,,,,,,,,,,,,,,,,,,,,,,,,,,,,,,,,,,,,,,,,,,,,,,,,,,,,,
,,,,,,3,0,3,0,1,X V Q F H G B L J M P D K C T S W R N Z,60b52fd8e153e8239639775a,21,Kobieta,2022-06-11_09h06.00.675,task,2021.1.4,Win32,59.97361161,6299f149e92ead563fba08ef,62a43ecd4ed8e0f1179ce562,,,,,,,,,,,,,,,,,,,,,,,,,,,,,,,,,,,,,,,,,,,,,,,,,,,,,,,,,,,,,,,,,,,,,,,,,,,,,,,,,,,,,,,,,,,,,,,,,,,,,
,,,,,,4,0,4,0,1,X V Q F H G B L J M P D K C T S W R N Z,60b52fd8e153e8239639775a,21,Kobieta,2022-06-11_09h06.00.675,task,2021.1.4,Win32,59.97361161,6299f149e92ead563fba08ef,62a43ecd4ed8e0f1179ce562,,,,,,,,,,,,,,,,,,,,,,,,,,,,,,,,,,,,,,,,,,,,,,,,,,,,,,,,,,,,,,,,,,,,,,,,,,,,,,,,,,,,,,,,,,,,,,,,,,,,,
,,,,,,5,0,5,0,1,X V Q F H G B L J M P D K C T S W R N Z,60b52fd8e153e8239639775a,21,Kobieta,2022-06-11_09h06.00.675,task,2021.1.4,Win32,59.97361161,6299f149e92ead563fba08ef,62a43ecd4ed8e0f1179ce562,,,,,,,,,,,,,,,,,,,,,,,,,,,,,,,,,,,,,,,,,,,,,,,,,,,,,,,,,,,,,,,,,,,,,,,,,,,,,,,,,,,,,,,,,,,,,,,,,,,,,
,,,,,,6,0,6,0,1,X V Q F H G B L J M P D K C T S W R N Z,60b52fd8e153e8239639775a,21,Kobieta,2022-06-11_09h06.00.675,task,2021.1.4,Win32,59.97361161,6299f149e92ead563fba08ef,62a43ecd4ed8e0f1179ce562,,,,,,,,,,,,,,,,,,,,,,,,,,,,,,,,,,,,,,,,,,,,,,,,,,,,,,,,,,,,,,,,,,,,,,,,,,,,,,,,,,,,,,,,,,,,,,,,,,,,,
,,,,,,,,,,,,60b52fd8e153e8239639775a,21,Kobieta,2022-06-11_09h06.00.675,task,2021.1.4,Win32,59.97361161,6299f149e92ead563fba08ef,62a43ecd4ed8e0f1179ce562,nkrtvvx,"[""n"",""k"",""r"",""t"",""v"",""v"",""x""]","[1.0342999997139088,1.2299999999999898,1.5824000000953617,1.763599999904642,2.213400000095362,2.3692999997138884,3.2542999997139077,3.9369000000953633]",1,NKRTVVX,12,0,12,0,1,,,,,,,,,,,,,,,,,,,,,,,,,,,,,,,,,,,,,,,,,,,,,,,,,,,,,,,,,,,,,,,,,,,,,,,,,,,,,,,,,,,,,,,,,,,
,,,,,,0,0,0,0,1,X V Q F H G B L J M P D K C T S W R N Z,60b52fd8e153e8239639775a,21,Kobieta,2022-06-11_09h06.00.675,task,2021.1.4,Win32,59.97361161,6299f149e92ead563fba08ef,62a43ecd4ed8e0f1179ce562,,,,,,,,,,,,,,,,,,,,,,,,,,,,,,,,,,,,,,,,,,,,,,,,,,,,,,,,,,,,,,,,,,,,,,,,,,,,,,,,,,,,,,,,,,,,,,,,,,,,,
,,,,,,1,0,1,0,1,X V Q F H G B L J M P D K C T S W R N Z,60b52fd8e153e8239639775a,21,Kobieta,2022-06-11_09h06.00.675,task,2021.1.4,Win32,59.97361161,6299f149e92ead563fba08ef,62a43ecd4ed8e0f1179ce562,,,,,,,,,,,,,,,,,,,,,,,,,,,,,,,,,,,,,,,,,,,,,,,,,,,,,,,,,,,,,,,,,,,,,,,,,,,,,,,,,,,,,,,,,,,,,,,,,,,,,
,,,,,,2,0,2,0,1,X V Q F H G B L J M P D K C T S W R N Z,60b52fd8e153e8239639775a,21,Kobieta,2022-06-11_09h06.00.675,task,2021.1.4,Win32,59.97361161,6299f149e92ead563fba08ef,62a43ecd4ed8e0f1179ce562,,,,,,,,,,,,,,,,,,,,,,,,,,,,,,,,,,,,,,,,,,,,,,,,,,,,,,,,,,,,,,,,,,,,,,,,,,,,,,,,,,,,,,,,,,,,,,,,,,,,,
,,,,,,3,0,3,0,1,X V Q F H G B L J M P D K C T S W R N Z,60b52fd8e153e8239639775a,21,Kobieta,2022-06-11_09h06.00.675,task,2021.1.4,Win32,59.97361161,6299f149e92ead563fba08ef,62a43ecd4ed8e0f1179ce562,,,,,,,,,,,,,,,,,,,,,,,,,,,,,,,,,,,,,,,,,,,,,,,,,,,,,,,,,,,,,,,,,,,,,,,,,,,,,,,,,,,,,,,,,,,,,,,,,,,,,
,,,,,,4,0,4,0,1,X V Q F H G B L J M P D K C T S W R N Z,60b52fd8e153e8239639775a,21,Kobieta,2022-06-11_09h06.00.675,task,2021.1.4,Win32,59.97361161,6299f149e92ead563fba08ef,62a43ecd4ed8e0f1179ce562,,,,,,,,,,,,,,,,,,,,,,,,,,,,,,,,,,,,,,,,,,,,,,,,,,,,,,,,,,,,,,,,,,,,,,,,,,,,,,,,,,,,,,,,,,,,,,,,,,,,,
,,,,,,5,0,5,0,1,X V Q F H G B L J M P D K C T S W R N Z,60b52fd8e153e8239639775a,21,Kobieta,2022-06-11_09h06.00.675,task,2021.1.4,Win32,59.97361161,6299f149e92ead563fba08ef,62a43ecd4ed8e0f1179ce562,,,,,,,,,,,,,,,,,,,,,,,,,,,,,,,,,,,,,,,,,,,,,,,,,,,,,,,,,,,,,,,,,,,,,,,,,,,,,,,,,,,,,,,,,,,,,,,,,,,,,
,,,,,,6,0,6,0,1,X V Q F H G B L J M P D K C T S W R N Z,60b52fd8e153e8239639775a,21,Kobieta,2022-06-11_09h06.00.675,task,2021.1.4,Win32,59.97361161,6299f149e92ead563fba08ef,62a43ecd4ed8e0f1179ce562,,,,,,,,,,,,,,,,,,,,,,,,,,,,,,,,,,,,,,,,,,,,,,,,,,,,,,,,,,,,,,,,,,,,,,,,,,,,,,,,,,,,,,,,,,,,,,,,,,,,,
,,,,,,,,,,,,60b52fd8e153e8239639775a,21,Kobieta,2022-06-11_09h06.00.675,task,2021.1.4,Win32,59.97361161,6299f149e92ead563fba08ef,62a43ecd4ed8e0f1179ce562,snwcvt,"[""s"",""n"",""w"",""c"",""v"",""t""]","[1.1987999997138843,1.6166999998092706,1.9834999999999923,2.4177999997138784,2.9000000000000057,3.2173999996185216,3.9781999998092488]",0,LSNWCTV,13,0,13,0,1,,,,,,,,,,,,,,,,,,,,,,,,,,,,,,,,,,,,,,,,,,,,,,,,,,,,,,,,,,,,,,,,,,,,,,,,,,,,,,,,,,,,,,,,,,,
,,,,,,0,0,0,0,1,X V Q F H G B L J M P D K C T S W R N Z,60b52fd8e153e8239639775a,21,Kobieta,2022-06-11_09h06.00.675,task,2021.1.4,Win32,59.97361161,6299f149e92ead563fba08ef,62a43ecd4ed8e0f1179ce562,,,,,,,,,,,,,,,,,,,,,,,,,,,,,,,,,,,,,,,,,,,,,,,,,,,,,,,,,,,,,,,,,,,,,,,,,,,,,,,,,,,,,,,,,,,,,,,,,,,,,
,,,,,,1,0,1,0,1,X V Q F H G B L J M P D K C T S W R N Z,60b52fd8e153e8239639775a,21,Kobieta,2022-06-11_09h06.00.675,task,2021.1.4,Win32,59.97361161,6299f149e92ead563fba08ef,62a43ecd4ed8e0f1179ce562,,,,,,,,,,,,,,,,,,,,,,,,,,,,,,,,,,,,,,,,,,,,,,,,,,,,,,,,,,,,,,,,,,,,,,,,,,,,,,,,,,,,,,,,,,,,,,,,,,,,,
,,,,,,2,0,2,0,1,X V Q F H G B L J M P D K C T S W R N Z,60b52fd8e153e8239639775a,21,Kobieta,2022-06-11_09h06.00.675,task,2021.1.4,Win32,59.97361161,6299f149e92ead563fba08ef,62a43ecd4ed8e0f1179ce562,,,,,,,,,,,,,,,,,,,,,,,,,,,,,,,,,,,,,,,,,,,,,,,,,,,,,,,,,,,,,,,,,,,,,,,,,,,,,,,,,,,,,,,,,,,,,,,,,,,,,
,,,,,,3,0,3,0,1,X V Q F H G B L J M P D K C T S W R N Z,60b52fd8e153e8239639775a,21,Kobieta,2022-06-11_09h06.00.675,task,2021.1.4,Win32,59.97361161,6299f149e92ead563fba08ef,62a43ecd4ed8e0f1179ce562,,,,,,,,,,,,,,,,,,,,,,,,,,,,,,,,,,,,,,,,,,,,,,,,,,,,,,,,,,,,,,,,,,,,,,,,,,,,,,,,,,,,,,,,,,,,,,,,,,,,,
,,,,,,4,0,4,0,1,X V Q F H G B L J M P D K C T S W R N Z,60b52fd8e153e8239639775a,21,Kobieta,2022-06-11_09h06.00.675,task,2021.1.4,Win32,59.97361161,6299f149e92ead563fba08ef,62a43ecd4ed8e0f1179ce562,,,,,,,,,,,,,,,,,,,,,,,,,,,,,,,,,,,,,,,,,,,,,,,,,,,,,,,,,,,,,,,,,,,,,,,,,,,,,,,,,,,,,,,,,,,,,,,,,,,,,
,,,,,,5,0,5,0,1,X V Q F H G B L J M P D K C T S W R N Z,60b52fd8e153e8239639775a,21,Kobieta,2022-06-11_09h06.00.675,task,2021.1.4,Win32,59.97361161,6299f149e92ead563fba08ef,62a43ecd4ed8e0f1179ce562,,,,,,,,,,,,,,,,,,,,,,,,,,,,,,,,,,,,,,,,,,,,,,,,,,,,,,,,,,,,,,,,,,,,,,,,,,,,,,,,,,,,,,,,,,,,,,,,,,,,,
,,,,,,6,0,6,0,1,X V Q F H G B L J M P D K C T S W R N Z,60b52fd8e153e8239639775a,21,Kobieta,2022-06-11_09h06.00.675,task,2021.1.4,Win32,59.97361161,6299f149e92ead563fba08ef,62a43ecd4ed8e0f1179ce562,,,,,,,,,,,,,,,,,,,,,,,,,,,,,,,,,,,,,,,,,,,,,,,,,,,,,,,,,,,,,,,,,,,,,,,,,,,,,,,,,,,,,,,,,,,,,,,,,,,,,
,,,,,,,,,,,,60b52fd8e153e8239639775a,21,Kobieta,2022-06-11_09h06.00.675,task,2021.1.4,Win32,59.97361161,6299f149e92ead563fba08ef,62a43ecd4ed8e0f1179ce562,vqbpt,"[""v"",""q"",""b"",""p"",""t""]","[2.085400000095376,2.598600000381481,3.771100000381466,3.9957000002861207,4.268800000190737,4.652100000381466]",0,WQBPVJC,14,0,14,0,1,,,,,,,,,,,,,,,,,,,,,,,,,,,,,,,,,,,,,,,,,,,,,,,,,,,,,,,,,,,,,,,,,,,,,,,,,,,,,,,,,,,,,,,,,,,
,,,,,,,,,,,,60b52fd8e153e8239639775a,21,Kobieta,2022-06-11_09h06.00.675,task,2021.1.4,Win32,59.97361161,6299f149e92ead563fba08ef,62a43ecd4ed8e0f1179ce562,,,,,,,,,,,space,31.2065,7,"[""7""]",1,[5.31880000019072],[5.31880000019072],0,0,0,7,1,Practice,8,(5x5) - 18,7,,,,,,,,,,,,,,,,,,,,,,,,,,,,,,,,,,,,,,,,,,,,,,,,,,,,,,,,,,,,,,,,,,,,,,,,,,,
,,,,,,,,,,,,60b52fd8e153e8239639775a,21,Kobieta,2022-06-11_09h06.00.675,task,2021.1.4,Win32,59.97361161,6299f149e92ead563fba08ef,62a43ecd4ed8e0f1179ce562,,,,,,,,,,,,,2,"[""2""]",1,[2.782999999999987],"[5.31880000019072,2.782999999999987]",0,1,1,2,1,Practice,3,(4x4) - 14,2,,,,,,,,,,,,,,,,,,,,,,,,,,,,,,,,,,,,,,,,,,,,,,,,,,,,,,,,,,,,,,,,,,,,,,,,,,,
,,,,,,,,,,,,60b52fd8e153e8239639775a,21,Kobieta,2022-06-11_09h06.00.675,task,2021.1.4,Win32,59.97361161,6299f149e92ead563fba08ef,62a43ecd4ed8e0f1179ce562,,,,,,,,,,,,,0,"[""0""]",1,[2.230300000190738],"[5.31880000019072,2.782999999999987,2.230300000190738]",0,2,2,0,1,Practice,1,(3x3) -  9,0,,,,,,,,,,,,,,,,,,,,,,,,,,,,,,,,,,,,,,,,,,,,,,,,,,,,,,,,,,,,,,,,,,,,,,,,,,,
,,,,,,,,,,,,60b52fd8e153e8239639775a,21,Kobieta,2022-06-11_09h06.00.675,task,2021.1.4,Win32,59.97361161,6299f149e92ead563fba08ef,62a43ecd4ed8e0f1179ce562,,,,,,,,,,,,,1,"[""1""]",1,[2.0784000000953426],"[5.31880000019072,2.782999999999987,2.230300000190738,2.0784000000953426]",0,3,3,1,1,Practice,2,(4x4) - 15,1,,,,,,,,,,,,,,,,,,,,,,,,,,,,,,,,,,,,,,,,,,,,,,,,,,,,,,,,,,,,,,,,,,,,,,,,,,,
,,,,,,,,,,,,60b52fd8e153e8239639775a,21,Kobieta,2022-06-11_09h06.00.675,task,2021.1.4,Win32,59.97361161,6299f149e92ead563fba08ef,62a43ecd4ed8e0f1179ce562,,,,,,,,,,,,,4,"[""4""]",1,[4.37719999980925],"[5.31880000019072,2.782999999999987,2.230300000190738,2.0784000000953426,4.37719999980925]",0,4,4,4,1,Practice,5,(2x6) - 8,4,,,,,,,,,,,,,,,,,,,,,,,,,,,,,,,,,,,,,,,,,,,,,,,,,,,,,,,,,,,,,,,,,,,,,,,,,,,
,,,,,,,,,,,,60b52fd8e153e8239639775a,21,Kobieta,2022-06-11_09h06.00.675,task,2021.1.4,Win32,59.97361161,6299f149e92ead563fba08ef,62a43ecd4ed8e0f1179ce562,,,,,,,,,,,,,6,"[""6""]",1,[3.4526999998092265],"[5.31880000019072,2.782999999999987,2.230300000190738,2.0784000000953426,4.37719999980925,3.4526999998092265]",0,5,5,6,1,Practice,7,(25/5) + 1,6,,,,,,,,,,,,,,,,,,,,,,,,,,,,,,,,,,,,,,,,,,,,,,,,,,,,,,,,,,,,,,,,,,,,,,,,,,,
,,,,,,,,,,,,60b52fd8e153e8239639775a,21,Kobieta,2022-06-11_09h06.00.675,task,2021.1.4,Win32,59.97361161,6299f149e92ead563fba08ef,62a43ecd4ed8e0f1179ce562,,,,,,,,,,,,,5,"[""5""]",1,[2.5820000000000505],"[5.31880000019072,2.782999999999987,2.230300000190738,2.0784000000953426,4.37719999980925,3.4526999998092265,2.5820000000000505]",0,6,6,5,1,Practice,6,(4/2) + 3,5,,,,,,,,,,,,,,,,,,,,,,,,,,,,,,,,,,,,,,,,,,,,,,,,,,,,,,,,,,,,,,,,,,,,,,,,,,,
,,,,,,,,,,,,60b52fd8e153e8239639775a,21,Kobieta,2022-06-11_09h06.00.675,task,2021.1.4,Win32,59.97361161,6299f149e92ead563fba08ef,62a43ecd4ed8e0f1179ce562,,,,,,,,,,,,,8,"[""8""]",1,[2.545800000190752],"[5.31880000019072,2.782999999999987,2.230300000190738,2.0784000000953426,4.37719999980925,3.4526999998092265,2.5820000000000505,2.545800000190752]",0,7,7,8,1,Practice,9,(3x3) - 1,8,,,,,,,,,,,,,,,,,,,,,,,,,,,,,,,,,,,,,,,,,,,,,,,,,,,,,,,,,,,,,,,,,,,,,,,,,,,
,,,,,,,,,,,,60b52fd8e153e8239639775a,21,Kobieta,2022-06-11_09h06.00.675,task,2021.1.4,Win32,59.97361161,6299f149e92ead563fba08ef,62a43ecd4ed8e0f1179ce562,,,,,,,,,,,,,3,"[""3""]",1,[2.9314999999999714],"[5.31880000019072,2.782999999999987,2.230300000190738,2.0784000000953426,4.37719999980925,3.4526999998092265,2.5820000000000505,2.545800000190752,2.9314999999999714]",0,8,8,3,1,Practice,4,(8/4) + 1,3,,,,,,,,,,,,,,,,,,,,,,,,,,,,,,,,,,,,,,,,,,,,,,,,,,,,,,,,,,,,,,,,,,,,,,,,,,,
,,,,,,,,,,,,60b52fd8e153e8239639775a,21,Kobieta,2022-06-11_09h06.00.675,task,2021.1.4,Win32,59.97361161,6299f149e92ead563fba08ef,62a43ecd4ed8e0f1179ce562,,,,,,,,,,,,,9,"[""9""]",1,[2.0340999999045835],"[5.31880000019072,2.782999999999987,2.230300000190738,2.0784000000953426,4.37719999980925,3.4526999998092265,2.5820000000000505,2.545800000190752,2.9314999999999714,2.0340999999045835]",0,9,9,9,1,Practice,10,(20/2) - 1,9,,,,,,,,,,,,,,,,,,,,,,,,,,,,,,,,,,,,,,,,,,,,,,,,,,,,,,,,,,,,,,,,,,,,,,,,,,,
,,,,,,,,,,,,60b52fd8e153e8239639775a,21,Kobieta,2022-06-11_09h06.00.675,task,2021.1.4,Win32,59.97361161,6299f149e92ead563fba08ef,62a43ecd4ed8e0f1179ce562,,,,,,,,,,,,,,,,,,,,,,,,,,,1,30.3338,2.022253333,20.49863004,1.169006132,5.038289153,space,2.3394,0,0,0,0,1,,,,,,,,,,,,,,,,,,,,,,,,,,,,,,,,,,,,,,,,,,,,,,,,,,,,,,,,,,,,,,
,,,,,,,,,,,,60b52fd8e153e8239639775a,21,Kobieta,2022-06-11_09h06.00.675,task,2021.1.4,Win32,59.97361161,6299f149e92ead563fba08ef,62a43ecd4ed8e0f1179ce562,,,,,,,,,,,,,0,,,,,,,,,,Practice,1,(3x3) -  9,0,,,,,,,,,,,,,,space,19.9134,"[""0""]",1,[1.95150000000001],1,0,0,0,0,1,,,,,,,,,,,,,,,,,,,,,,,,,,,,,,,,,,,,,,,,,,,,,,,,,,,
,,,,,,,,,,,X V Q F H G B L J M P D K C T S W R N Z,60b52fd8e153e8239639775a,21,Kobieta,2022-06-11_09h06.00.675,task,2021.1.4,Win32,59.97361161,6299f149e92ead563fba08ef,62a43ecd4ed8e0f1179ce562,,,,,,,,,,,,,,,,,,,,,,,,,,,,,,,,,,,,,,,,,,,,,,,,,,,0,0,0,0,1,,,,,,,,,,,,,,,,,,,,,,,,,,,,,,,,,,,,,,,,,,,,,,
,,,,,,,,,,,,60b52fd8e153e8239639775a,21,Kobieta,2022-06-11_09h06.00.675,task,2021.1.4,Win32,59.97361161,6299f149e92ead563fba08ef,62a43ecd4ed8e0f1179ce562,,,,,,,,,,,,,,,,,,,,,,,Practice,2,(4x4) - 15,1,,,,,,,,,,,,,,,,,0,,0,0,0,0,1,1,,,,,,,,,,,,,,,,,,,,,,,,,,,,,,,,,,,,,,,,,,,,,,,,,,,
,,,,,,,,,,,,60b52fd8e153e8239639775a,21,Kobieta,2022-06-11_09h06.00.675,task,2021.1.4,Win32,59.97361161,6299f149e92ead563fba08ef,62a43ecd4ed8e0f1179ce562,,,,,,,,,,,,,2,,,,,,,,,,Practice,3,(4x4) - 14,2,,,,,,,,,,,,,,,,"[""2""]",1,[1.9814000000953342],1,0,1,1,2,1,,,,,,,,,,,,,,,,,,,,,,,,,,,,,,,,,,,,,,,,,,,,,,,,,,,
,,,,,,,,,,,X V Q F H G B L J M P D K C T S W R N Z,60b52fd8e153e8239639775a,21,Kobieta,2022-06-11_09h06.00.675,task,2021.1.4,Win32,59.97361161,6299f149e92ead563fba08ef,62a43ecd4ed8e0f1179ce562,,,,,,,,,,,,,,,,,,,,,,,,,,,,,,,,,,,,,,,,,,,,,,,,,,,1,0,1,0,1,,,,,,,,,,,,,,,,,,,,,,,,,,,,,,,,,,,,,,,,,,,,,,
,,,,,,,,,,,,60b52fd8e153e8239639775a,21,Kobieta,2022-06-11_09h06.00.675,task,2021.1.4,Win32,59.97361161,6299f149e92ead563fba08ef,62a43ecd4ed8e0f1179ce562,,,,,,,,,,,,,,,,,,,,,,,,,,,,,,,,,,,,,,,,,,,,,,,,,,,,,,,,zb,"[""z"",""b""]",0,"[2.3712000002860805,2.7553000001907435,3.985500000000002]",1,0,0,0,0,1,,,,,,,,,,,,,,,,,,,,,,,,,,,,,,,,,,,,
,,,,,,,,,,,,60b52fd8e153e8239639775a,21,Kobieta,2022-06-11_09h06.00.675,task,2021.1.4,Win32,59.97361161,6299f149e92ead563fba08ef,62a43ecd4ed8e0f1179ce562,,,,,,,,,,,,,7,,,,,,,,,,Practice,8,(5x5) - 18,7,,,,,,,,,,,,,,,,"[""7""]",1,[3.8313000001907085],1,0,0,0,7,1,,,,,,,,,,,,,,,,,,,,,,,,,,,,,,,,,,,,,,,,,,,,,,,,,,,
,,,,,,,,,,,X V Q F H G B L J M P D K C T S W R N Z,60b52fd8e153e8239639775a,21,Kobieta,2022-06-11_09h06.00.675,task,2021.1.4,Win32,59.97361161,6299f149e92ead563fba08ef,62a43ecd4ed8e0f1179ce562,,,,,,,,,,,,,,,,,,,,,,,,,,,,,,,,,,,,,,,,,,,,,,,,,,,0,0,0,0,1,,,,,,,,,,,,,,,,,,,,,,,,,,,,,,,,,,,,,,,,,,,,,,
,,,,,,,,,,,,60b52fd8e153e8239639775a,21,Kobieta,2022-06-11_09h06.00.675,task,2021.1.4,Win32,59.97361161,6299f149e92ead563fba08ef,62a43ecd4ed8e0f1179ce562,,,,,,,,,,,,,2,,,,,,,,,,Practice,3,(4x4) - 14,2,,,,,,,,,,,,,,,,"[""2""]",1,[1.6075999999046644],1,0,0,0,2,1,,,,,,,,,,,,,,,,,,,,,,,,,,,,,,,,,,,,,,,,,,,,,,,,,,,
,,,,,,,,,,,X V Q F H G B L J M P D K C T S W R N Z,60b52fd8e153e8239639775a,21,Kobieta,2022-06-11_09h06.00.675,task,2021.1.4,Win32,59.97361161,6299f149e92ead563fba08ef,62a43ecd4ed8e0f1179ce562,,,,,,,,,,,,,,,,,,,,,,,,,,,,,,,,,,,,,,,,,,,,,,,,,,,1,0,1,0,1,,,,,,,,,,,,,,,,,,,,,,,,,,,,,,,,,,,,,,,,,,,,,,
,,,,,,,,,,,,60b52fd8e153e8239639775a,21,Kobieta,2022-06-11_09h06.00.675,task,2021.1.4,Win32,59.97361161,6299f149e92ead563fba08ef,62a43ecd4ed8e0f1179ce562,,,,,,,,,,,,,,,,,,,,,,,,,,,,,,,,,,,,,,,,,,,,,,,,,,,,,,,,mp,"[""m"",""p""]",0,"[1.8100000000000023,2.1359999999999673,2.5808000001907203]",1,1,0,1,0,1,,,,,,,,,,,,,,,,,,,,,,,,,,,,,,,,,,,,
,,,,,,,,,,,,60b52fd8e153e8239639775a,21,Kobieta,2022-06-11_09h06.00.675,task,2021.1.4,Win32,59.97361161,6299f149e92ead563fba08ef,62a43ecd4ed8e0f1179ce562,,,,,,,,,,,,,5,,,,,,,,,,Practice,6,(4/2) + 3,5,,,,,,,,,,,,,,,,"[""5""]",1,[1.6361999998092642],1,0,0,0,5,1,,,,,,,,,,,,,,,,,,,,,,,,,,,,,,,,,,,,,,,,,,,,,,,,,,,
,,,,,,,,,,,X V Q F H G B L J M P D K C T S W R N Z,60b52fd8e153e8239639775a,21,Kobieta,2022-06-11_09h06.00.675,task,2021.1.4,Win32,59.97361161,6299f149e92ead563fba08ef,62a43ecd4ed8e0f1179ce562,,,,,,,,,,,,,,,,,,,,,,,,,,,,,,,,,,,,,,,,,,,,,,,,,,,0,0,0,0,1,,,,,,,,,,,,,,,,,,,,,,,,,,,,,,,,,,,,,,,,,,,,,,
,,,,,,,,,,,,60b52fd8e153e8239639775a,21,Kobieta,2022-06-11_09h06.00.675,task,2021.1.4,Win32,59.97361161,6299f149e92ead563fba08ef,62a43ecd4ed8e0f1179ce562,,,,,,,,,,,,,5,,,,,,,,,,Practice,6,(4/2) + 3,5,,,,,,,,,,,,,,,,"[""5""]",1,[2.08459999990464],1,0,0,0,5,1,,,,,,,,,,,,,,,,,,,,,,,,,,,,,,,,,,,,,,,,,,,,,,,,,,,
,,,,,,,,,,,X V Q F H G B L J M P D K C T S W R N Z,60b52fd8e153e8239639775a,21,Kobieta,2022-06-11_09h06.00.675,task,2021.1.4,Win32,59.97361161,6299f149e92ead563fba08ef,62a43ecd4ed8e0f1179ce562,,,,,,,,,,,,,,,,,,,,,,,,,,,,,,,,,,,,,,,,,,,,,,,,,,,1,0,1,0,1,,,,,,,,,,,,,,,,,,,,,,,,,,,,,,,,,,,,,,,,,,,,,,
,,,,,,,,,,,,60b52fd8e153e8239639775a,21,Kobieta,2022-06-11_09h06.00.675,task,2021.1.4,Win32,59.97361161,6299f149e92ead563fba08ef,62a43ecd4ed8e0f1179ce562,,,,,,,,,,,,,,,,,,,,,,,,,,,,,,,,,,,,,,,,,,,,,,,,,,,,,,,,hp,"[""h"",""p""]",0,"[1.4188999996185316,1.7995000000000232,2.2648999996185353]",1,2,0,2,0,1,,,,,,,,,,,,,,,,,,,,,,,,,,,,,,,,,,,,
,,,,,,,,,,,,60b52fd8e153e8239639775a,21,Kobieta,2022-06-11_09h06.00.675,task,2021.1.4,Win32,59.97361161,6299f149e92ead563fba08ef,62a43ecd4ed8e0f1179ce562,,,,,,,,,,,,,9,,,,,,,,,,Task,7,(3x7) - 12,9,,,,,,,,,,,,,,,,,,,1,,,,,,,,,,,,,,,,,,,,,space,14.4522,"[""9""]",1,[4.454200000286107],0,0,0,6,1,,,,,,,,,,,,,,,,,,,,,,,,,,
,,,,,,,,,,,X V Q F H G B L J M P D K C T S W R N Z,60b52fd8e153e8239639775a,21,Kobieta,2022-06-11_09h06.00.675,task,2021.1.4,Win32,59.97361161,6299f149e92ead563fba08ef,62a43ecd4ed8e0f1179ce562,,,,,,,,,,,,,,,,,,,,,,,,,,,,,,,,,,,,,,,,,,,,,,,,,,,,,,,,,,,,,,,,,,,,,,,,,,,,0,0,0,0,1,,,,,,,,,,,,,,,,,,,,,
,,,,,,,,,,,,60b52fd8e153e8239639775a,21,Kobieta,2022-06-11_09h06.00.675,task,2021.1.4,Win32,59.97361161,6299f149e92ead563fba08ef,62a43ecd4ed8e0f1179ce562,,,,,,,,,,,,,1,,,,,,,,,,Task,34,(9/3) - 2,1,,,,,,,,,,,,,,,,,,,1,,,,,,,,,,,,,,,,,,,,,,,"[""1""]",1,[2.6621000003814856],0,0,0,33,1,,,,,,,,,,,,,,,,,,,,,,,,,,
,,,,,,,,,,,X V Q F H G B L J M P D K C T S W R N Z,60b52fd8e153e8239639775a,21,Kobieta,2022-06-11_09h06.00.675,task,2021.1.4,Win32,59.97361161,6299f149e92ead563fba08ef,62a43ecd4ed8e0f1179ce562,,,,,,,,,,,,,,,,,,,,,,,,,,,,,,,,,,,,,,,,,,,,,,,,,,,,,,,,,,,,,,,,,,,,,,,,,,,,1,0,1,0,1,,,,,,,,,,,,,,,,,,,,,
,,,,,,,,,,,,60b52fd8e153e8239639775a,21,Kobieta,2022-06-11_09h06.00.675,task,2021.1.4,Win32,59.97361161,6299f149e92ead563fba08ef,62a43ecd4ed8e0f1179ce562,,,,,,,,,,,,,,,,,,,,,,,,,,,,,,,,,,,,,,,,,,,,,,,,,,,,,,,,,,,,,,,,,,,,,,,,,,,,,,,,,zj,"[""z"",""j""]",0,"[1.5215000000000032,1.8930999999046207,2.2578000001906844]",1,ZJ,0,0,0,0,1,,,,,,,,,,
,,,,,,,,,,,,60b52fd8e153e8239639775a,21,Kobieta,2022-06-11_09h06.00.675,task,2021.1.4,Win32,59.97361161,6299f149e92ead563fba08ef,62a43ecd4ed8e0f1179ce562,,,,,,,,,,,,,8,,,,,,,,,,Task,32,(8/2) + 4,8,,,,,,,,,,,,,,,,,,,1,,,,,,,,,,,,,,,,,,,,,,,"[""8""]",1,[2.1159999999999854],0,0,0,31,1,,,,,,,,,,,,,,,,,,,,,,,,,,
,,,,,,,,,,,X V Q F H G B L J M P D K C T S W R N Z,60b52fd8e153e8239639775a,21,Kobieta,2022-06-11_09h06.00.675,task,2021.1.4,Win32,59.97361161,6299f149e92ead563fba08ef,62a43ecd4ed8e0f1179ce562,,,,,,,,,,,,,,,,,,,,,,,,,,,,,,,,,,,,,,,,,,,,,,,,,,,,,,,,,,,,,,,,,,,,,,,,,,,,0,0,0,0,1,,,,,,,,,,,,,,,,,,,,,
,,,,,,,,,,,,60b52fd8e153e8239639775a,21,Kobieta,2022-06-11_09h06.00.675,task,2021.1.4,Win32,59.97361161,6299f149e92ead563fba08ef,62a43ecd4ed8e0f1179ce562,,,,,,,,,,,,,1,,,,,,,,,,Task,9,(3x7) - 20,1,,,,,,,,,,,,,,,,,,,1,,,,,,,,,,,,,,,,,,,,,,,"[""1""]",1,[2.1429000000953806],0,0,0,8,1,,,,,,,,,,,,,,,,,,,,,,,,,,
,,,,,,,,,,,X V Q F H G B L J M P D K C T S W R N Z,60b52fd8e153e8239639775a,21,Kobieta,2022-06-11_09h06.00.675,task,2021.1.4,Win32,59.97361161,6299f149e92ead563fba08ef,62a43ecd4ed8e0f1179ce562,,,,,,,,,,,,,,,,,,,,,,,,,,,,,,,,,,,,,,,,,,,,,,,,,,,,,,,,,,,,,,,,,,,,,,,,,,,,1,0,1,0,1,,,,,,,,,,,,,,,,,,,,,
,,,,,,,,,,,,60b52fd8e153e8239639775a,21,Kobieta,2022-06-11_09h06.00.675,task,2021.1.4,Win32,59.97361161,6299f149e92ead563fba08ef,62a43ecd4ed8e0f1179ce562,,,,,,,,,,,,,8,,,,,,,,,,Task,32,(8/2) + 4,8,,,,,,,,,,,,,,,,,,,1,,,,,,,,,,,,,,,,,,,,,,,"[""8""]",1,[3.1481999998092647],0,0,0,31,1,,,,,,,,,,,,,,,,,,,,,,,,,,
,,,,,,,,,,,X V Q F H G B L J M P D K C T S W R N Z,60b52fd8e153e8239639775a,21,Kobieta,2022-06-11_09h06.00.675,task,2021.1.4,Win32,59.97361161,6299f149e92ead563fba08ef,62a43ecd4ed8e0f1179ce562,,,,,,,,,,,,,,,,,,,,,,,,,,,,,,,,,,,,,,,,,,,,,,,,,,,,,,,,,,,,,,,,,,,,,,,,,,,,2,0,2,0,1,,,,,,,,,,,,,,,,,,,,,
,,,,,,,,,,,,60b52fd8e153e8239639775a,21,Kobieta,2022-06-11_09h06.00.675,task,2021.1.4,Win32,59.97361161,6299f149e92ead563fba08ef,62a43ecd4ed8e0f1179ce562,,,,,,,,,,,,,,,,,,,,,,,,,,,,,,,,,,,,,,,,,,,,,,,,,,,,,,,,,,,,,,,,,,,,,,,,,,,,,,,,,pvh,"[""p"",""v"",""h""]",0,"[1.4555999999046207,1.8380000000000223,2.2537999997139195,2.823899999618561]",1,PVH,1,0,1,0,1,,,,,,,,,,
,,,,,,,,,,,,60b52fd8e153e8239639775a,21,Kobieta,2022-06-11_09h06.00.675,task,2021.1.4,Win32,59.97361161,6299f149e92ead563fba08ef,62a43ecd4ed8e0f1179ce562,,,,,,,,,,,,,9,,,,,,,,,,Task,24,(2x2) + 5,9,,,,,,,,,,,,,,,,,,,1,,,,,,,,,,,,,,,,,,,,,,,"[""9""]",1,[2.1135999999045794],0,0,0,23,1,,,,,,,,,,,,,,,,,,,,,,,,,,
,,,,,,,,,,,X V Q F H G B L J M P D K C T S W R N Z,60b52fd8e153e8239639775a,21,Kobieta,2022-06-11_09h06.00.675,task,2021.1.4,Win32,59.97361161,6299f149e92ead563fba08ef,62a43ecd4ed8e0f1179ce562,,,,,,,,,,,,,,,,,,,,,,,,,,,,,,,,,,,,,,,,,,,,,,,,,,,,,,,,,,,,,,,,,,,,,,,,,,,,0,0,0,0,1,,,,,,,,,,,,,,,,,,,,,
,,,,,,,,,,,,60b52fd8e153e8239639775a,21,Kobieta,2022-06-11_09h06.00.675,task,2021.1.4,Win32,59.97361161,6299f149e92ead563fba08ef,62a43ecd4ed8e0f1179ce562,,,,,,,,,,,,,6,,,,,,,,,,Task,5,(2x3) + 0,6,,,,,,,,,,,,,,,,,,,1,,,,,,,,,,,,,,,,,,,,,,,"[""6""]",1,[3.3822000002861046],0,0,0,4,1,,,,,,,,,,,,,,,,,,,,,,,,,,
,,,,,,,,,,,X V Q F H G B L J M P D K C T S W R N Z,60b52fd8e153e8239639775a,21,Kobieta,2022-06-11_09h06.00.675,task,2021.1.4,Win32,59.97361161,6299f149e92ead563fba08ef,62a43ecd4ed8e0f1179ce562,,,,,,,,,,,,,,,,,,,,,,,,,,,,,,,,,,,,,,,,,,,,,,,,,,,,,,,,,,,,,,,,,,,,,,,,,,,,1,0,1,0,1,,,,,,,,,,,,,,,,,,,,,
,,,,,,,,,,,,60b52fd8e153e8239639775a,21,Kobieta,2022-06-11_09h06.00.675,task,2021.1.4,Win32,59.97361161,6299f149e92ead563fba08ef,62a43ecd4ed8e0f1179ce562,,,,,,,,,,,,,8,,,,,,,,,,Task,23,(2x3) + 2,8,,,,,,,,,,,,,,,,,,,1,,,,,,,,,,,,,,,,,,,,,,,"[""8""]",1,[1.932900000095401],0,0,0,22,1,,,,,,,,,,,,,,,,,,,,,,,,,,
,,,,,,,,,,,X V Q F H G B L J M P D K C T S W R N Z,60b52fd8e153e8239639775a,21,Kobieta,2022-06-11_09h06.00.675,task,2021.1.4,Win32,59.97361161,6299f149e92ead563fba08ef,62a43ecd4ed8e0f1179ce562,,,,,,,,,,,,,,,,,,,,,,,,,,,,,,,,,,,,,,,,,,,,,,,,,,,,,,,,,,,,,,,,,,,,,,,,,,,,2,0,2,0,1,,,,,,,,,,,,,,,,,,,,,
,,,,,,,,,,,,60b52fd8e153e8239639775a,21,Kobieta,2022-06-11_09h06.00.675,task,2021.1.4,Win32,59.97361161,6299f149e92ead563fba08ef,62a43ecd4ed8e0f1179ce562,,,,,,,,,,,,,6,,,,,,,,,,Task,5,(2x3) + 0,6,,,,,,,,,,,,,,,,,,,1,,,,,,,,,,,,,,,,,,,,,,,"[""6""]",1,[2.570400000095333],0,0,0,4,1,,,,,,,,,,,,,,,,,,,,,,,,,,
,,,,,,,,,,,X V Q F H G B L J M P D K C T S W R N Z,60b52fd8e153e8239639775a,21,Kobieta,2022-06-11_09h06.00.675,task,2021.1.4,Win32,59.97361161,6299f149e92ead563fba08ef,62a43ecd4ed8e0f1179ce562,,,,,,,,,,,,,,,,,,,,,,,,,,,,,,,,,,,,,,,,,,,,,,,,,,,,,,,,,,,,,,,,,,,,,,,,,,,,3,0,3,0,1,,,,,,,,,,,,,,,,,,,,,
,,,,,,,,,,,,60b52fd8e153e8239639775a,21,Kobieta,2022-06-11_09h06.00.675,task,2021.1.4,Win32,59.97361161,6299f149e92ead563fba08ef,62a43ecd4ed8e0f1179ce562,,,,,,,,,,,,,,,,,,,,,,,,,,,,,,,,,,,,,,,,,,,,,,,,,,,,,,,,,,,,,,,,,,,,,,,,,,,,,,,,,hhxw,"[""h"",""h"",""x"",""w""]",0,"[1.5361999998092983,1.8170999999046558,2.2335999999046408,4.070800000190729,4.753000000000043]",1,HHXW,2,0,2,0,1,,,,,,,,,,
,,,,,,,,,,,,60b52fd8e153e8239639775a,21,Kobieta,2022-06-11_09h06.00.675,task,2021.1.4,Win32,59.97361161,6299f149e92ead563fba08ef,62a43ecd4ed8e0f1179ce562,,,,,,,,,,,,,1,,,,,,,,,,Task,1,(12/6) - 1,1,,,,,,,,,,,,,,,,,,,1,,,,,,,,,,,,,,,,,,,,,,,"[""1""]",1,[2.1150999999046576],0,0,0,0,1,,,,,,,,,,,,,,,,,,,,,,,,,,
,,,,,,,,,,,X V Q F H G B L J M P D K C T S W R N Z,60b52fd8e153e8239639775a,21,Kobieta,2022-06-11_09h06.00.675,task,2021.1.4,Win32,59.97361161,6299f149e92ead563fba08ef,62a43ecd4ed8e0f1179ce562,,,,,,,,,,,,,,,,,,,,,,,,,,,,,,,,,,,,,,,,,,,,,,,,,,,,,,,,,,,,,,,,,,,,,,,,,,,,0,0,0,0,1,,,,,,,,,,,,,,,,,,,,,
,,,,,,,,,,,,60b52fd8e153e8239639775a,21,Kobieta,2022-06-11_09h06.00.675,task,2021.1.4,Win32,59.97361161,6299f149e92ead563fba08ef,62a43ecd4ed8e0f1179ce562,,,,,,,,,,,,,7,,,,,,,,,,Task,31,(4/2) + 5,7,,,,,,,,,,,,,,,,,,,1,,,,,,,,,,,,,,,,,,,,,,,"[""7""]",1,[2.5534999999999854],0,0,0,30,1,,,,,,,,,,,,,,,,,,,,,,,,,,
,,,,,,,,,,,X V Q F H G B L J M P D K C T S W R N Z,60b52fd8e153e8239639775a,21,Kobieta,2022-06-11_09h06.00.675,task,2021.1.4,Win32,59.97361161,6299f149e92ead563fba08ef,62a43ecd4ed8e0f1179ce562,,,,,,,,,,,,,,,,,,,,,,,,,,,,,,,,,,,,,,,,,,,,,,,,,,,,,,,,,,,,,,,,,,,,,,,,,,,,1,0,1,0,1,,,,,,,,,,,,,,,,,,,,,
,,,,,,,,,,,,60b52fd8e153e8239639775a,21,Kobieta,2022-06-11_09h06.00.675,task,2021.1.4,Win32,59.97361161,6299f149e92ead563fba08ef,62a43ecd4ed8e0f1179ce562,,,,,,,,,,,,,3,,,,,,,,,,Task,35,(1x2) + 1,3,,,,,,,,,,,,,,,,,,,1,,,,,,,,,,,,,,,,,,,,,,,"[""3""]",1,[1.7694000000953451],0,0,0,34,1,,,,,,,,,,,,,,,,,,,,,,,,,,
,,,,,,,,,,,X V Q F H G B L J M P D K C T S W R N Z,60b52fd8e153e8239639775a,21,Kobieta,2022-06-11_09h06.00.675,task,2021.1.4,Win32,59.97361161,6299f149e92ead563fba08ef,62a43ecd4ed8e0f1179ce562,,,,,,,,,,,,,,,,,,,,,,,,,,,,,,,,,,,,,,,,,,,,,,,,,,,,,,,,,,,,,,,,,,,,,,,,,,,,2,0,2,0,1,,,,,,,,,,,,,,,,,,,,,
,,,,,,,,,,,,60b52fd8e153e8239639775a,21,Kobieta,2022-06-11_09h06.00.675,task,2021.1.4,Win32,59.97361161,6299f149e92ead563fba08ef,62a43ecd4ed8e0f1179ce562,,,,,,,,,,,,,1,,,,,,,,,,Task,34,(9/3) - 2,1,,,,,,,,,,,,,,,,,,,1,,,,,,,,,,,,,,,,,,,,,,,"[""1""]",1,[2.5111999998092642],0,0,0,33,1,,,,,,,,,,,,,,,,,,,,,,,,,,
,,,,,,,,,,,X V Q F H G B L J M P D K C T S W R N Z,60b52fd8e153e8239639775a,21,Kobieta,2022-06-11_09h06.00.675,task,2021.1.4,Win32,59.97361161,6299f149e92ead563fba08ef,62a43ecd4ed8e0f1179ce562,,,,,,,,,,,,,,,,,,,,,,,,,,,,,,,,,,,,,,,,,,,,,,,,,,,,,,,,,,,,,,,,,,,,,,,,,,,,3,0,3,0,1,,,,,,,,,,,,,,,,,,,,,
,,,,,,,,,,,,60b52fd8e153e8239639775a,21,Kobieta,2022-06-11_09h06.00.675,task,2021.1.4,Win32,59.97361161,6299f149e92ead563fba08ef,62a43ecd4ed8e0f1179ce562,,,,,,,,,,,,,,,,,,,,,,,Task,38,(4x6) - 17,7,,,,,,,,,,,,,,,,,,,0,,,,,,,,,,,,,,,,,,,,,,,,0,,0,0,0,37,1,,,,,,,,,,,,,,,,,,,,,,,,,,
,,,,,,,,,,,,60b52fd8e153e8239639775a,21,Kobieta,2022-06-11_09h06.00.675,task,2021.1.4,Win32,59.97361161,6299f149e92ead563fba08ef,62a43ecd4ed8e0f1179ce562,,,,,,,,,,,,,2,,,,,,,,,,Task,19,(6/2) - 1,2,,,,,,,,,,,,,,,,,,,1,,,,,,,,,,,,,,,,,,,,,,,"[""2""]",1,[3.481099999904643],0,1,1,18,1,,,,,,,,,,,,,,,,,,,,,,,,,,
,,,,,,,,,,,X V Q F H G B L J M P D K C T S W R N Z,60b52fd8e153e8239639775a,21,Kobieta,2022-06-11_09h06.00.675,task,2021.1.4,Win32,59.97361161,6299f149e92ead563fba08ef,62a43ecd4ed8e0f1179ce562,,,,,,,,,,,,,,,,,,,,,,,,,,,,,,,,,,,,,,,,,,,,,,,,,,,,,,,,,,,,,,,,,,,,,,,,,,,,4,0,4,0,1,,,,,,,,,,,,,,,,,,,,,
,,,,,,,,,,,,60b52fd8e153e8239639775a,21,Kobieta,2022-06-11_09h06.00.675,task,2021.1.4,Win32,59.97361161,6299f149e92ead563fba08ef,62a43ecd4ed8e0f1179ce562,,,,,,,,,,,,,,,,,,,,,,,,,,,,,,,,,,,,,,,,,,,,,,,,,,,,,,,,,,,,,,,,,,,,,,,,,,,,,,,,,khvzj,"[""k"",""h"",""v"",""z"",""j""]",0,"[2.102599999904612,2.5179000000953806,2.884800000190751,3.191199999809271,4.835900000095364,5.448699999809264]",1,KHVZJ,3,0,3,0,1,,,,,,,,,,
,,,,,,,,,,,,60b52fd8e153e8239639775a,21,Kobieta,2022-06-11_09h06.00.675,task,2021.1.4,Win32,59.97361161,6299f149e92ead563fba08ef,62a43ecd4ed8e0f1179ce562,,,,,,,,,,,,,9,,,,,,,,,,Task,16,(3x8) - 15,9,,,,,,,,,,,,,,,,,,,1,,,,,,,,,,,,,,,,,,,,,,,"[""9""]",1,[4.316699999809259],0,0,0,15,1,,,,,,,,,,,,,,,,,,,,,,,,,,
,,,,,,,,,,,X V Q F H G B L J M P D K C T S W R N Z,60b52fd8e153e8239639775a,21,Kobieta,2022-06-11_09h06.00.675,task,2021.1.4,Win32,59.97361161,6299f149e92ead563fba08ef,62a43ecd4ed8e0f1179ce562,,,,,,,,,,,,,,,,,,,,,,,,,,,,,,,,,,,,,,,,,,,,,,,,,,,,,,,,,,,,,,,,,,,,,,,,,,,,0,0,0,0,1,,,,,,,,,,,,,,,,,,,,,
,,,,,,,,,,,,60b52fd8e153e8239639775a,21,Kobieta,2022-06-11_09h06.00.675,task,2021.1.4,Win32,59.97361161,6299f149e92ead563fba08ef,62a43ecd4ed8e0f1179ce562,,,,,,,,,,,,,4,,,,,,,,,,Task,35,(1x2) + 1,3,,,,,,,,,,,,,,,,,,,0,,,,,,,,,,,,,,,,,,,,,,,"[""4""]",0,[2.7615000000000123],0,0,0,34,1,,,,,,,,,,,,,,,,,,,,,,,,,,
,,,,,,,,,,,,60b52fd8e153e8239639775a,21,Kobieta,2022-06-11_09h06.00.675,task,2021.1.4,Win32,59.97361161,6299f149e92ead563fba08ef,62a43ecd4ed8e0f1179ce562,,,,,,,,,,,,,2,,,,,,,,,,Task,19,(6/2) - 1,2,,,,,,,,,,,,,,,,,,,1,,,,,,,,,,,,,,,,,,,,,,,"[""2""]",1,[2.0970999999046285],0,1,1,18,1,,,,,,,,,,,,,,,,,,,,,,,,,,
,,,,,,,,,,,X V Q F H G B L J M P D K C T S W R N Z,60b52fd8e153e8239639775a,21,Kobieta,2022-06-11_09h06.00.675,task,2021.1.4,Win32,59.97361161,6299f149e92ead563fba08ef,62a43ecd4ed8e0f1179ce562,,,,,,,,,,,,,,,,,,,,,,,,,,,,,,,,,,,,,,,,,,,,,,,,,,,,,,,,,,,,,,,,,,,,,,,,,,,,1,0,1,0,1,,,,,,,,,,,,,,,,,,,,,
,,,,,,,,,,,,60b52fd8e153e8239639775a,21,Kobieta,2022-06-11_09h06.00.675,task,2021.1.4,Win32,59.97361161,6299f149e92ead563fba08ef,62a43ecd4ed8e0f1179ce562,,,,,,,,,,,,,7,,,,,,,,,,Task,14,(2x2) + 3,7,,,,,,,,,,,,,,,,,,,1,,,,,,,,,,,,,,,,,,,,,,,"[""7""]",1,[1.8848000001907508],0,0,0,13,1,,,,,,,,,,,,,,,,,,,,,,,,,,
,,,,,,,,,,,X V Q F H G B L J M P D K C T S W R N Z,60b52fd8e153e8239639775a,21,Kobieta,2022-06-11_09h06.00.675,task,2021.1.4,Win32,59.97361161,6299f149e92ead563fba08ef,62a43ecd4ed8e0f1179ce562,,,,,,,,,,,,,,,,,,,,,,,,,,,,,,,,,,,,,,,,,,,,,,,,,,,,,,,,,,,,,,,,,,,,,,,,,,,,2,0,2,0,1,,,,,,,,,,,,,,,,,,,,,
,,,,,,,,,,,,60b52fd8e153e8239639775a,21,Kobieta,2022-06-11_09h06.00.675,task,2021.1.4,Win32,59.97361161,6299f149e92ead563fba08ef,62a43ecd4ed8e0f1179ce562,,,,,,,,,,,,,8,,,,,,,,,,Task,15,(3x7) - 13,8,,,,,,,,,,,,,,,,,,,1,,,,,,,,,,,,,,,,,,,,,,,"[""8""]",1,[3.248799999713924],0,0,0,14,1,,,,,,,,,,,,,,,,,,,,,,,,,,
,,,,,,,,,,,X V Q F H G B L J M P D K C T S W R N Z,60b52fd8e153e8239639775a,21,Kobieta,2022-06-11_09h06.00.675,task,2021.1.4,Win32,59.97361161,6299f149e92ead563fba08ef,62a43ecd4ed8e0f1179ce562,,,,,,,,,,,,,,,,,,,,,,,,,,,,,,,,,,,,,,,,,,,,,,,,,,,,,,,,,,,,,,,,,,,,,,,,,,,,3,0,3,0,1,,,,,,,,,,,,,,,,,,,,,
,,,,,,,,,,,,60b52fd8e153e8239639775a,21,Kobieta,2022-06-11_09h06.00.675,task,2021.1.4,Win32,59.97361161,6299f149e92ead563fba08ef,62a43ecd4ed8e0f1179ce562,,,,,,,,,,,,,0,,,,,,,,,,Task,33,(1/1) - 1,0,,,,,,,,,,,,,,,,,,,1,,,,,,,,,,,,,,,,,,,,,,,"[""0""]",1,[2.3189000000953683],0,0,0,32,1,,,,,,,,,,,,,,,,,,,,,,,,,,
,,,,,,,,,,,X V Q F H G B L J M P D K C T S W R N Z,60b52fd8e153e8239639775a,21,Kobieta,2022-06-11_09h06.00.675,task,2021.1.4,Win32,59.97361161,6299f149e92ead563fba08ef,62a43ecd4ed8e0f1179ce562,,,,,,,,,,,,,,,,,,,,,,,,,,,,,,,,,,,,,,,,,,,,,,,,,,,,,,,,,,,,,,,,,,,,,,,,,,,,4,0,4,0,1,,,,,,,,,,,,,,,,,,,,,
,,,,,,,,,,,,60b52fd8e153e8239639775a,21,Kobieta,2022-06-11_09h06.00.675,task,2021.1.4,Win32,59.97361161,6299f149e92ead563fba08ef,62a43ecd4ed8e0f1179ce562,,,,,,,,,,,,,2,,,,,,,,,,Task,19,(6/2) - 1,2,,,,,,,,,,,,,,,,,,,1,,,,,,,,,,,,,,,,,,,,,,,"[""2""]",1,[1.6134000000953392],0,0,0,18,1,,,,,,,,,,,,,,,,,,,,,,,,,,
,,,,,,,,,,,X V Q F H G B L J M P D K C T S W R N Z,60b52fd8e153e8239639775a,21,Kobieta,2022-06-11_09h06.00.675,task,2021.1.4,Win32,59.97361161,6299f149e92ead563fba08ef,62a43ecd4ed8e0f1179ce562,,,,,,,,,,,,,,,,,,,,,,,,,,,,,,,,,,,,,,,,,,,,,,,,,,,,,,,,,,,,,,,,,,,,,,,,,,,,5,0,5,0,1,,,,,,,,,,,,,,,,,,,,,
,,,,,,,,,,,,60b52fd8e153e8239639775a,21,Kobieta,2022-06-11_09h06.00.675,task,2021.1.4,Win32,59.97361161,6299f149e92ead563fba08ef,62a43ecd4ed8e0f1179ce562,,,,,,,,,,,,,,,,,,,,,,,,,,,,,,,,,,,,,,,,,,,,,,,,,,,,,,,,,,,,,,,,,,,,,,,,,,,,,,,,,tczhz,"[""t"",""c"",""z"",""h"",""z""]",0,"[1.782199999809336,2.1974000000953993,2.4843000001907285,2.9318000001907194,3.237400000095363,3.8974000000954447]",0,TCZZHZ,4,0,4,0,1,,,,,,,,,,
,,,,,,,,,,,,60b52fd8e153e8239639775a,21,Kobieta,2022-06-11_09h06.00.675,task,2021.1.4,Win32,59.97361161,6299f149e92ead563fba08ef,62a43ecd4ed8e0f1179ce562,,,,,,,,,,,,,7,,,,,,,,,,Task,14,(2x2) + 3,7,,,,,,,,,,,,,,,,,,,1,,,,,,,,,,,,,,,,,,,,,,,"[""7""]",1,[1.7570999999046535],0,0,0,13,1,,,,,,,,,,,,,,,,,,,,,,,,,,
,,,,,,,,,,,X V Q F H G B L J M P D K C T S W R N Z,60b52fd8e153e8239639775a,21,Kobieta,2022-06-11_09h06.00.675,task,2021.1.4,Win32,59.97361161,6299f149e92ead563fba08ef,62a43ecd4ed8e0f1179ce562,,,,,,,,,,,,,,,,,,,,,,,,,,,,,,,,,,,,,,,,,,,,,,,,,,,,,,,,,,,,,,,,,,,,,,,,,,,,0,0,0,0,1,,,,,,,,,,,,,,,,,,,,,
,,,,,,,,,,,,60b52fd8e153e8239639775a,21,Kobieta,2022-06-11_09h06.00.675,task,2021.1.4,Win32,59.97361161,6299f149e92ead563fba08ef,62a43ecd4ed8e0f1179ce562,,,,,,,,,,,,,1,,,,,,,,,,Task,18,(16/4) - 3,1,,,,,,,,,,,,,,,,,,,1,,,,,,,,,,,,,,,,,,,,,,,"[""1""]",1,[4.944699999809245],0,0,0,17,1,,,,,,,,,,,,,,,,,,,,,,,,,,
,,,,,,,,,,,X V Q F H G B L J M P D K C T S W R N Z,60b52fd8e153e8239639775a,21,Kobieta,2022-06-11_09h06.00.675,task,2021.1.4,Win32,59.97361161,6299f149e92ead563fba08ef,62a43ecd4ed8e0f1179ce562,,,,,,,,,,,,,,,,,,,,,,,,,,,,,,,,,,,,,,,,,,,,,,,,,,,,,,,,,,,,,,,,,,,,,,,,,,,,1,0,1,0,1,,,,,,,,,,,,,,,,,,,,,
,,,,,,,,,,,,60b52fd8e153e8239639775a,21,Kobieta,2022-06-11_09h06.00.675,task,2021.1.4,Win32,59.97361161,6299f149e92ead563fba08ef,62a43ecd4ed8e0f1179ce562,,,,,,,,,,,,,8,,,,,,,,,,Task,23,(2x3) + 2,8,,,,,,,,,,,,,,,,,,,1,,,,,,,,,,,,,,,,,,,,,,,"[""8""]",1,[1.8476999998092651],0,0,0,22,1,,,,,,,,,,,,,,,,,,,,,,,,,,
,,,,,,,,,,,X V Q F H G B L J M P D K C T S W R N Z,60b52fd8e153e8239639775a,21,Kobieta,2022-06-11_09h06.00.675,task,2021.1.4,Win32,59.97361161,6299f149e92ead563fba08ef,62a43ecd4ed8e0f1179ce562,,,,,,,,,,,,,,,,,,,,,,,,,,,,,,,,,,,,,,,,,,,,,,,,,,,,,,,,,,,,,,,,,,,,,,,,,,,,2,0,2,0,1,,,,,,,,,,,,,,,,,,,,,
,,,,,,,,,,,,60b52fd8e153e8239639775a,21,Kobieta,2022-06-11_09h06.00.675,task,2021.1.4,Win32,59.97361161,6299f149e92ead563fba08ef,62a43ecd4ed8e0f1179ce562,,,,,,,,,,,,,9,,,,,,,,,,Task,40,(7x2) - 5,9,,,,,,,,,,,,,,,,,,,1,,,,,,,,,,,,,,,,,,,,,,,"[""9""]",1,[2.3983000001907158],0,0,0,39,1,,,,,,,,,,,,,,,,,,,,,,,,,,
,,,,,,,,,,,X V Q F H G B L J M P D K C T S W R N Z,60b52fd8e153e8239639775a,21,Kobieta,2022-06-11_09h06.00.675,task,2021.1.4,Win32,59.97361161,6299f149e92ead563fba08ef,62a43ecd4ed8e0f1179ce562,,,,,,,,,,,,,,,,,,,,,,,,,,,,,,,,,,,,,,,,,,,,,,,,,,,,,,,,,,,,,,,,,,,,,,,,,,,,3,0,3,0,1,,,,,,,,,,,,,,,,,,,,,
,,,,,,,,,,,,60b52fd8e153e8239639775a,21,Kobieta,2022-06-11_09h06.00.675,task,2021.1.4,Win32,59.97361161,6299f149e92ead563fba08ef,62a43ecd4ed8e0f1179ce562,,,,,,,,,,,,,7,,,,,,,,,,Task,6,(12/2) + 1,7,,,,,,,,,,,,,,,,,,,1,,,,,,,,,,,,,,,,,,,,,,,"[""7""]",1,[1.7971999998093224],0,0,0,5,1,,,,,,,,,,,,,,,,,,,,,,,,,,
,,,,,,,,,,,X V Q F H G B L J M P D K C T S W R N Z,60b52fd8e153e8239639775a,21,Kobieta,2022-06-11_09h06.00.675,task,2021.1.4,Win32,59.97361161,6299f149e92ead563fba08ef,62a43ecd4ed8e0f1179ce562,,,,,,,,,,,,,,,,,,,,,,,,,,,,,,,,,,,,,,,,,,,,,,,,,,,,,,,,,,,,,,,,,,,,,,,,,,,,4,0,4,0,1,,,,,,,,,,,,,,,,,,,,,
,,,,,,,,,,,,60b52fd8e153e8239639775a,21,Kobieta,2022-06-11_09h06.00.675,task,2021.1.4,Win32,59.97361161,6299f149e92ead563fba08ef,62a43ecd4ed8e0f1179ce562,,,,,,,,,,,,,0,,,,,,,,,,Task,33,(1/1) - 1,0,,,,,,,,,,,,,,,,,,,1,,,,,,,,,,,,,,,,,,,,,,,"[""0""]",1,[1.3840000000000146],0,0,0,32,1,,,,,,,,,,,,,,,,,,,,,,,,,,
,,,,,,,,,,,X V Q F H G B L J M P D K C T S W R N Z,60b52fd8e153e8239639775a,21,Kobieta,2022-06-11_09h06.00.675,task,2021.1.4,Win32,59.97361161,6299f149e92ead563fba08ef,62a43ecd4ed8e0f1179ce562,,,,,,,,,,,,,,,,,,,,,,,,,,,,,,,,,,,,,,,,,,,,,,,,,,,,,,,,,,,,,,,,,,,,,,,,,,,,5,0,5,0,1,,,,,,,,,,,,,,,,,,,,,
,,,,,,,,,,,,60b52fd8e153e8239639775a,21,Kobieta,2022-06-11_09h06.00.675,task,2021.1.4,Win32,59.97361161,6299f149e92ead563fba08ef,62a43ecd4ed8e0f1179ce562,,,,,,,,,,,,,,,,,,,,,,,,,,,,,,,,,,,,,,,,,,,,,,,,,,,,,,,,,,,,,,,,,,,,,,,,,,,,,,,,,ttwcsv,"[""t"",""t"",""w"",""c"",""s"",""v""]",0,"[1.571200000286126,1.7750999999046826,2.29950000000008,2.6392000002861096,2.9027000002861314,3.4020000000000437,4.8670000000000755]",1,TTWCSV,5,0,5,0,1,,,,,,,,,,
,,,,,,,,,,,,60b52fd8e153e8239639775a,21,Kobieta,2022-06-11_09h06.00.675,task,2021.1.4,Win32,59.97361161,6299f149e92ead563fba08ef,62a43ecd4ed8e0f1179ce562,,,,,,,,,,,,,2,,,,,,,,,,Task,2,(2x2) - 2,2,,,,,,,,,,,,,,,,,,,1,,,,,,,,,,,,,,,,,,,,,,,"[""2""]",1,[2.1893000001906557],0,0,0,1,1,,,,,,,,,,,,,,,,,,,,,,,,,,
,,,,,,,,,,,X V Q F H G B L J M P D K C T S W R N Z,60b52fd8e153e8239639775a,21,Kobieta,2022-06-11_09h06.00.675,task,2021.1.4,Win32,59.97361161,6299f149e92ead563fba08ef,62a43ecd4ed8e0f1179ce562,,,,,,,,,,,,,,,,,,,,,,,,,,,,,,,,,,,,,,,,,,,,,,,,,,,,,,,,,,,,,,,,,,,,,,,,,,,,0,0,0,0,1,,,,,,,,,,,,,,,,,,,,,
,,,,,,,,,,,,60b52fd8e153e8239639775a,21,Kobieta,2022-06-11_09h06.00.675,task,2021.1.4,Win32,59.97361161,6299f149e92ead563fba08ef,62a43ecd4ed8e0f1179ce562,,,,,,,,,,,,,8,,,,,,,,,,Task,23,(2x3) + 2,8,,,,,,,,,,,,,,,,,,,1,,,,,,,,,,,,,,,,,,,,,,,"[""8""]",1,[1.6976999998091742],0,0,0,22,1,,,,,,,,,,,,,,,,,,,,,,,,,,
,,,,,,,,,,,X V Q F H G B L J M P D K C T S W R N Z,60b52fd8e153e8239639775a,21,Kobieta,2022-06-11_09h06.00.675,task,2021.1.4,Win32,59.97361161,6299f149e92ead563fba08ef,62a43ecd4ed8e0f1179ce562,,,,,,,,,,,,,,,,,,,,,,,,,,,,,,,,,,,,,,,,,,,,,,,,,,,,,,,,,,,,,,,,,,,,,,,,,,,,1,0,1,0,1,,,,,,,,,,,,,,,,,,,,,
,,,,,,,,,,,,60b52fd8e153e8239639775a,21,Kobieta,2022-06-11_09h06.00.675,task,2021.1.4,Win32,59.97361161,6299f149e92ead563fba08ef,62a43ecd4ed8e0f1179ce562,,,,,,,,,,,,,0,,,,,,,,,,Task,33,(1/1) - 1,0,,,,,,,,,,,,,,,,,,,1,,,,,,,,,,,,,,,,,,,,,,,"[""0""]",1,[1.0764000000953047],0,0,0,32,1,,,,,,,,,,,,,,,,,,,,,,,,,,
,,,,,,,,,,,X V Q F H G B L J M P D K C T S W R N Z,60b52fd8e153e8239639775a,21,Kobieta,2022-06-11_09h06.00.675,task,2021.1.4,Win32,59.97361161,6299f149e92ead563fba08ef,62a43ecd4ed8e0f1179ce562,,,,,,,,,,,,,,,,,,,,,,,,,,,,,,,,,,,,,,,,,,,,,,,,,,,,,,,,,,,,,,,,,,,,,,,,,,,,2,0,2,0,1,,,,,,,,,,,,,,,,,,,,,
,,,,,,,,,,,,60b52fd8e153e8239639775a,21,Kobieta,2022-06-11_09h06.00.675,task,2021.1.4,Win32,59.97361161,6299f149e92ead563fba08ef,62a43ecd4ed8e0f1179ce562,,,,,,,,,,,,,5,,,,,,,,,,Task,36,(8/4) + 3,5,,,,,,,,,,,,,,,,,,,1,,,,,,,,,,,,,,,,,,,,,,,"[""5""]",1,[2.0020000000000664],0,0,0,35,1,,,,,,,,,,,,,,,,,,,,,,,,,,
,,,,,,,,,,,X V Q F H G B L J M P D K C T S W R N Z,60b52fd8e153e8239639775a,21,Kobieta,2022-06-11_09h06.00.675,task,2021.1.4,Win32,59.97361161,6299f149e92ead563fba08ef,62a43ecd4ed8e0f1179ce562,,,,,,,,,,,,,,,,,,,,,,,,,,,,,,,,,,,,,,,,,,,,,,,,,,,,,,,,,,,,,,,,,,,,,,,,,,,,3,0,3,0,1,,,,,,,,,,,,,,,,,,,,,
,,,,,,,,,,,,60b52fd8e153e8239639775a,21,Kobieta,2022-06-11_09h06.00.675,task,2021.1.4,Win32,59.97361161,6299f149e92ead563fba08ef,62a43ecd4ed8e0f1179ce562,,,,,,,,,,,,,2,,,,,,,,,,Task,26,(2x9) - 16,2,,,,,,,,,,,,,,,,,,,1,,,,,,,,,,,,,,,,,,,,,,,"[""2""]",1,[1.9781000003814597],0,0,0,25,1,,,,,,,,,,,,,,,,,,,,,,,,,,
,,,,,,,,,,,X V Q F H G B L J M P D K C T S W R N Z,60b52fd8e153e8239639775a,21,Kobieta,2022-06-11_09h06.00.675,task,2021.1.4,Win32,59.97361161,6299f149e92ead563fba08ef,62a43ecd4ed8e0f1179ce562,,,,,,,,,,,,,,,,,,,,,,,,,,,,,,,,,,,,,,,,,,,,,,,,,,,,,,,,,,,,,,,,,,,,,,,,,,,,4,0,4,0,1,,,,,,,,,,,,,,,,,,,,,
,,,,,,,,,,,,60b52fd8e153e8239639775a,21,Kobieta,2022-06-11_09h06.00.675,task,2021.1.4,Win32,59.97361161,6299f149e92ead563fba08ef,62a43ecd4ed8e0f1179ce562,,,,,,,,,,,,,8,,,,,,,,,,Task,32,(8/2) + 4,8,,,,,,,,,,,,,,,,,,,1,,,,,,,,,,,,,,,,,,,,,,,"[""8""]",1,[1.7789999999999964],0,0,0,31,1,,,,,,,,,,,,,,,,,,,,,,,,,,
,,,,,,,,,,,X V Q F H G B L J M P D K C T S W R N Z,60b52fd8e153e8239639775a,21,Kobieta,2022-06-11_09h06.00.675,task,2021.1.4,Win32,59.97361161,6299f149e92ead563fba08ef,62a43ecd4ed8e0f1179ce562,,,,,,,,,,,,,,,,,,,,,,,,,,,,,,,,,,,,,,,,,,,,,,,,,,,,,,,,,,,,,,,,,,,,,,,,,,,,5,0,5,0,1,,,,,,,,,,,,,,,,,,,,,
,,,,,,,,,,,,60b52fd8e153e8239639775a,21,Kobieta,2022-06-11_09h06.00.675,task,2021.1.4,Win32,59.97361161,6299f149e92ead563fba08ef,62a43ecd4ed8e0f1179ce562,,,,,,,,,,,,,2,,,,,,,,,,Task,2,(2x2) - 2,2,,,,,,,,,,,,,,,,,,,1,,,,,,,,,,,,,,,,,,,,,,,"[""2""]",1,[2.1121999998092633],0,0,0,1,1,,,,,,,,,,,,,,,,,,,,,,,,,,
,,,,,,,,,,,X V Q F H G B L J M P D K C T S W R N Z,60b52fd8e153e8239639775a,21,Kobieta,2022-06-11_09h06.00.675,task,2021.1.4,Win32,59.97361161,6299f149e92ead563fba08ef,62a43ecd4ed8e0f1179ce562,,,,,,,,,,,,,,,,,,,,,,,,,,,,,,,,,,,,,,,,,,,,,,,,,,,,,,,,,,,,,,,,,,,,,,,,,,,,6,0,6,0,1,,,,,,,,,,,,,,,,,,,,,
,,,,,,,,,,,,60b52fd8e153e8239639775a,21,Kobieta,2022-06-11_09h06.00.675,task,2021.1.4,Win32,59.97361161,6299f149e92ead563fba08ef,62a43ecd4ed8e0f1179ce562,,,,,,,,,,,,,,,,,,,,,,,,,,,,,,,,,,,,,,,,,,,,,,,,,,,,,,,,,,,,,,,,,,,,,,,,,,,,,,,,,xvwwcx,"[""x"",""v"",""w"",""w"",""c"",""x""]",0,"[2.352599999904669,2.9002999997139796,3.3640999999046244,3.532599999904619,3.964099999904647,4.39689999961854,5.484899999618506]",0,XVWWCXB,6,0,6,0,1,,,,,,,,,,
,,,,,,,,,,,,60b52fd8e153e8239639775a,21,Kobieta,2022-06-11_09h06.00.675,task,2021.1.4,Win32,59.97361161,6299f149e92ead563fba08ef,62a43ecd4ed8e0f1179ce562,,,,,,,,,,,,,3,,,,,,,,,,Task,3,(2x3) - 3,3,,,,,,,,,,,,,,,,,,,1,,,,,,,,,,,,,,,,,,,,,,,"[""3""]",1,[2.6662999997138286],0,0,0,2,1,,,,,,,,,,,,,,,,,,,,,,,,,,
,,,,,,,,,,,X V Q F H G B L J M P D K C T S W R N Z,60b52fd8e153e8239639775a,21,Kobieta,2022-06-11_09h06.00.675,task,2021.1.4,Win32,59.97361161,6299f149e92ead563fba08ef,62a43ecd4ed8e0f1179ce562,,,,,,,,,,,,,,,,,,,,,,,,,,,,,,,,,,,,,,,,,,,,,,,,,,,,,,,,,,,,,,,,,,,,,,,,,,,,0,0,0,0,1,,,,,,,,,,,,,,,,,,,,,
,,,,,,,,,,,,60b52fd8e153e8239639775a,21,Kobieta,2022-06-11_09h06.00.675,task,2021.1.4,Win32,59.97361161,6299f149e92ead563fba08ef,62a43ecd4ed8e0f1179ce562,,,,,,,,,,,,,6,,,,,,,,,,Task,21,(10/2) - 1,4,,,,,,,,,,,,,,,,,,,0,,,,,,,,,,,,,,,,,,,,,,,"[""6""]",0,[2.198300000190784],0,0,0,20,1,,,,,,,,,,,,,,,,,,,,,,,,,,
,,,,,,,,,,,,60b52fd8e153e8239639775a,21,Kobieta,2022-06-11_09h06.00.675,task,2021.1.4,Win32,59.97361161,6299f149e92ead563fba08ef,62a43ecd4ed8e0f1179ce562,,,,,,,,,,,,,6,,,,,,,,,,Task,5,(2x3) + 0,6,,,,,,,,,,,,,,,,,,,1,,,,,,,,,,,,,,,,,,,,,,,"[""6""]",1,[1.8974000000954447],0,1,1,4,1,,,,,,,,,,,,,,,,,,,,,,,,,,
,,,,,,,,,,,X V Q F H G B L J M P D K C T S W R N Z,60b52fd8e153e8239639775a,21,Kobieta,2022-06-11_09h06.00.675,task,2021.1.4,Win32,59.97361161,6299f149e92ead563fba08ef,62a43ecd4ed8e0f1179ce562,,,,,,,,,,,,,,,,,,,,,,,,,,,,,,,,,,,,,,,,,,,,,,,,,,,,,,,,,,,,,,,,,,,,,,,,,,,,1,0,1,0,1,,,,,,,,,,,,,,,,,,,,,
,,,,,,,,,,,,60b52fd8e153e8239639775a,21,Kobieta,2022-06-11_09h06.00.675,task,2021.1.4,Win32,59.97361161,6299f149e92ead563fba08ef,62a43ecd4ed8e0f1179ce562,,,,,,,,,,,,,3,,,,,,,,,,Task,35,(1x2) + 1,3,,,,,,,,,,,,,,,,,,,1,,,,,,,,,,,,,,,,,,,,,,,"[""3""]",1,[2.0485999999045816],0,0,0,34,1,,,,,,,,,,,,,,,,,,,,,,,,,,
,,,,,,,,,,,X V Q F H G B L J M P D K C T S W R N Z,60b52fd8e153e8239639775a,21,Kobieta,2022-06-11_09h06.00.675,task,2021.1.4,Win32,59.97361161,6299f149e92ead563fba08ef,62a43ecd4ed8e0f1179ce562,,,,,,,,,,,,,,,,,,,,,,,,,,,,,,,,,,,,,,,,,,,,,,,,,,,,,,,,,,,,,,,,,,,,,,,,,,,,2,0,2,0,1,,,,,,,,,,,,,,,,,,,,,
,,,,,,,,,,,,60b52fd8e153e8239639775a,21,Kobieta,2022-06-11_09h06.00.675,task,2021.1.4,Win32,59.97361161,6299f149e92ead563fba08ef,62a43ecd4ed8e0f1179ce562,,,,,,,,,,,,,2,,,,,,,,,,Task,10,(2x5) - 8,2,,,,,,,,,,,,,,,,,,,1,,,,,,,,,,,,,,,,,,,,,,,"[""2""]",1,[2.236100000381498],0,0,0,9,1,,,,,,,,,,,,,,,,,,,,,,,,,,
,,,,,,,,,,,X V Q F H G B L J M P D K C T S W R N Z,60b52fd8e153e8239639775a,21,Kobieta,2022-06-11_09h06.00.675,task,2021.1.4,Win32,59.97361161,6299f149e92ead563fba08ef,62a43ecd4ed8e0f1179ce562,,,,,,,,,,,,,,,,,,,,,,,,,,,,,,,,,,,,,,,,,,,,,,,,,,,,,,,,,,,,,,,,,,,,,,,,,,,,3,0,3,0,1,,,,,,,,,,,,,,,,,,,,,
,,,,,,,,,,,,60b52fd8e153e8239639775a,21,Kobieta,2022-06-11_09h06.00.675,task,2021.1.4,Win32,59.97361161,6299f149e92ead563fba08ef,62a43ecd4ed8e0f1179ce562,,,,,,,,,,,,,7,,,,,,,,,,Task,6,(12/2) + 1,7,,,,,,,,,,,,,,,,,,,1,,,,,,,,,,,,,,,,,,,,,,,"[""7""]",1,[1.8514999999999873],0,0,0,5,1,,,,,,,,,,,,,,,,,,,,,,,,,,
,,,,,,,,,,,X V Q F H G B L J M P D K C T S W R N Z,60b52fd8e153e8239639775a,21,Kobieta,2022-06-11_09h06.00.675,task,2021.1.4,Win32,59.97361161,6299f149e92ead563fba08ef,62a43ecd4ed8e0f1179ce562,,,,,,,,,,,,,,,,,,,,,,,,,,,,,,,,,,,,,,,,,,,,,,,,,,,,,,,,,,,,,,,,,,,,,,,,,,,,4,0,4,0,1,,,,,,,,,,,,,,,,,,,,,
,,,,,,,,,,,,60b52fd8e153e8239639775a,21,Kobieta,2022-06-11_09h06.00.675,task,2021.1.4,Win32,59.97361161,6299f149e92ead563fba08ef,62a43ecd4ed8e0f1179ce562,,,,,,,,,,,,,8,,,,,,,,,,Task,32,(8/2) + 4,8,,,,,,,,,,,,,,,,,,,1,,,,,,,,,,,,,,,,,,,,,,,"[""8""]",1,[1.8105000000000473],0,0,0,31,1,,,,,,,,,,,,,,,,,,,,,,,,,,
,,,,,,,,,,,X V Q F H G B L J M P D K C T S W R N Z,60b52fd8e153e8239639775a,21,Kobieta,2022-06-11_09h06.00.675,task,2021.1.4,Win32,59.97361161,6299f149e92ead563fba08ef,62a43ecd4ed8e0f1179ce562,,,,,,,,,,,,,,,,,,,,,,,,,,,,,,,,,,,,,,,,,,,,,,,,,,,,,,,,,,,,,,,,,,,,,,,,,,,,5,0,5,0,1,,,,,,,,,,,,,,,,,,,,,
,,,,,,,,,,,,60b52fd8e153e8239639775a,21,Kobieta,2022-06-11_09h06.00.675,task,2021.1.4,Win32,59.97361161,6299f149e92ead563fba08ef,62a43ecd4ed8e0f1179ce562,,,,,,,,,,,,,1,,,,,,,,,,Task,18,(16/4) - 3,1,,,,,,,,,,,,,,,,,,,1,,,,,,,,,,,,,,,,,,,,,,,"[""1""]",1,[3.298399999618482],0,0,0,17,1,,,,,,,,,,,,,,,,,,,,,,,,,,
,,,,,,,,,,,X V Q F H G B L J M P D K C T S W R N Z,60b52fd8e153e8239639775a,21,Kobieta,2022-06-11_09h06.00.675,task,2021.1.4,Win32,59.97361161,6299f149e92ead563fba08ef,62a43ecd4ed8e0f1179ce562,,,,,,,,,,,,,,,,,,,,,,,,,,,,,,,,,,,,,,,,,,,,,,,,,,,,,,,,,,,,,,,,,,,,,,,,,,,,6,0,6,0,1,,,,,,,,,,,,,,,,,,,,,
,,,,,,,,,,,,60b52fd8e153e8239639775a,21,Kobieta,2022-06-11_09h06.00.675,task,2021.1.4,Win32,59.97361161,6299f149e92ead563fba08ef,62a43ecd4ed8e0f1179ce562,,,,,,,,,,,,,,,,,,,,,,,,,,,,,,,,,,,,,,,,,,,,,,,,,,,,,,,,,,,,,,,,,,,,,,,,,,,,,,,,,qxglnc,"[""q"",""x"",""g"",""l"",""n"",""c""]",0,"[1.7334999999999354,2.3705999999045844,3.1053999996184984,3.507199999809245,3.7998999996185603,6.599499999999921,7.4465000000000146]",0,QXGLNRC,7,0,7,0,1,,,,,,,,,,
,,,,,,,,,,,,60b52fd8e153e8239639775a,21,Kobieta,2022-06-11_09h06.00.675,task,2021.1.4,Win32,59.97361161,6299f149e92ead563fba08ef,62a43ecd4ed8e0f1179ce562,,,,,,,,,,,,,,,,,,,,,,,,,,,,,,,,,,,,,,,,,,,,,,,,,,,,,,,,,,,,,,,,,,,,,,,,,,,,,,,,,,,,,,,,,,,,"[""comma""]",0,[1.3724999999999454],0,0,0,0,1,,
,,,,,,,,,,,,60b52fd8e153e8239639775a,21,Kobieta,2022-06-11_09h06.00.675,task,2021.1.4,Win32,59.97361161,6299f149e92ead563fba08ef,62a43ecd4ed8e0f1179ce562,,,,,,,,,,,,,,,,,,,,,,,,,,,,,,,,,,,,,,,,,,,,,,,,,,,,,,,,,,,,,,,,,,,,,,,,,,,,,,,,,,,,,,,,,,,,"[""period""]",0,[0.9508999996185139],1,0,1,0,1,,
,,,,,,,,,,,,60b52fd8e153e8239639775a,21,Kobieta,2022-06-11_09h06.00.675,task,2021.1.4,Win32,59.97361161,6299f149e92ead563fba08ef,62a43ecd4ed8e0f1179ce562,,,,,,,,,,,,,,,,,,,,,,,,,,,,,,,,,,,,,,,,,,,,,,,,,,,,,,,,,,,,,,,,,,,,,,,,,,,,,,,,,,,,,,,,,,,,"[""comma""]",0,[0.30040000009535106],2,0,2,0,1,,
,,,,,,,,,,,,60b52fd8e153e8239639775a,21,Kobieta,2022-06-11_09h06.00.675,task,2021.1.4,Win32,59.97361161,6299f149e92ead563fba08ef,62a43ecd4ed8e0f1179ce562,,,,,,,,,,,,,,,,,,,,,,,,,,,,,,,,,,,,,,,,,,,,,,,,,,,,,,,,,,,,,,,,,,,,,,,,,,,,,,,,,,,,,,,,,,,,"[""comma""]",0,[0.4737000002861578],3,0,3,0,1,,
,,,,,,,,,,,,60b52fd8e153e8239639775a,21,Kobieta,2022-06-11_09h06.00.675,task,2021.1.4,Win32,59.97361161,6299f149e92ead563fba08ef,62a43ecd4ed8e0f1179ce562,,,,,,,,,,,,,,,,,,,,,,,,,,,,,,,,,,,,,,,,,,,,,,,,,,,,,,,,,,,,,,,,,,,,,,,,,,,,,,,,,,,,,,,,,,,,"[""comma""]",0,[0.915700000286165],4,0,4,0,1,,
,,,,,,,,,,,,60b52fd8e153e8239639775a,21,Kobieta,2022-06-11_09h06.00.675,task,2021.1.4,Win32,59.97361161,6299f149e92ead563fba08ef,62a43ecd4ed8e0f1179ce562,,,,,,,,,,,,,,,,,,,,,,,,,,,,,,,,,,,,,,,,,,,,,,,,,,,,,,,,,,,,,,,,,,,,,,,,,,,,,,,,,,,,,,,,,,,,"[""period""]",0,[0.2875999999046144],5,0,5,0,1,,
,,,,,,,,,,,,60b52fd8e153e8239639775a,21,Kobieta,2022-06-11_09h06.00.675,task,2021.1.4,Win32,59.97361161,6299f149e92ead563fba08ef,62a43ecd4ed8e0f1179ce562,,,,,,,,,,,,,,,,,,,,,,,,,,,,,,,,,,,,,,,,,,,,,,,,,,,,,,,,,,,,,,,,,,,,,,,,,,,,,,,,,,,,,,,,,,,,"[""period""]",0,[0.41449999999997544],6,0,6,0,1,,
,,,,,,,,,,,,60b52fd8e153e8239639775a,21,Kobieta,2022-06-11_09h06.00.675,task,2021.1.4,Win32,59.97361161,6299f149e92ead563fba08ef,62a43ecd4ed8e0f1179ce562,,,,,,,,,,,,,,,,,,,,,,,,,,,,,,,,,,,,,,,,,,,,,,,,,,,,,,,,,,,,,,,,,,,,,,,,,,,,,,,,,,,,,,,,,,,,"[""comma""]",0,[0.5875999999045689],7,0,7,0,1,,
,,,,,,,,,,,,60b52fd8e153e8239639775a,21,Kobieta,2022-06-11_09h06.00.675,task,2021.1.4,Win32,59.97361161,6299f149e92ead563fba08ef,62a43ecd4ed8e0f1179ce562,,,,,,,,,,,,,,,,,,,,,,,,,,,,,,,,,,,,,,,,,,,,,,,,,,,,,,,,,,,,,,,,,,,,,,,,,,,,,,,,,,,,,,,,,,,,"[""comma""]",0,[0.6847000002860568],8,0,8,0,1,,
,,,,,,,,,,,,60b52fd8e153e8239639775a,21,Kobieta,2022-06-11_09h06.00.675,task,2021.1.4,Win32,59.97361161,6299f149e92ead563fba08ef,62a43ecd4ed8e0f1179ce562,,,,,,,,,,,,,,,,,,,,,,,,,,,,,,,,,,,,,,,,,,,,,,,,,,,,,,,,,,,,,,,,,,,,,,,,,,,,,,,,,,,,,,,,,,,,"[""comma""]",0,[0.8372999997138777],9,0,9,0,1,,
,,,,,,,,,,,,60b52fd8e153e8239639775a,21,Kobieta,2022-06-11_09h06.00.675,task,2021.1.4,Win32,59.97361161,6299f149e92ead563fba08ef,62a43ecd4ed8e0f1179ce562,,,,,,,,,,,,,,,,,,,,,,,,,,,,,,,,,,,,,,,,,,,,,,,,,,,,,,,,,,,,,,,,,,,,,,,,,,,,,,,,,,,,,,,,,,,,"[""period""]",0,[0.6624000000954311],10,0,10,0,1,,
,,,,,,,,,,,,60b52fd8e153e8239639775a,21,Kobieta,2022-06-11_09h06.00.675,task,2021.1.4,Win32,59.97361161,6299f149e92ead563fba08ef,62a43ecd4ed8e0f1179ce562,,,,,,,,,,,,,,,,,,,,,,,,,,,,,,,,,,,,,,,,,,,,,,,,,,,,,,,,,,,,,,,,,,,,,,,,,,,,,,,,,,,,,,,,,,,,"[""period""]",0,[0.583199999809267],11,0,11,0,1,,
,,,,,,,,,,,,60b52fd8e153e8239639775a,21,Kobieta,2022-06-11_09h06.00.675,task,2021.1.4,Win32,59.97361161,6299f149e92ead563fba08ef,62a43ecd4ed8e0f1179ce562,,,,,,,,,,,,,,,,,,,,,,,,,,,,,,,,,,,,,,,,,,,,,,,,,,,,,,,,,,,,,,,,,,,,,,,,,,,,,,,,,,,,,,,,,,,,"[""period""]",0,[0.5177999997139295],12,0,12,0,1,,
,,,,,,,,,,,,60b52fd8e153e8239639775a,21,Kobieta,2022-06-11_09h06.00.675,task,2021.1.4,Win32,59.97361161,6299f149e92ead563fba08ef,62a43ecd4ed8e0f1179ce562,,,,,,,,,,,,,,,,,,,,,,,,,,,,,,,,,,,,,,,,,,,,,,,,,,,,,,,,,,,,,,,,,,,,,,,,,,,,,,,,,,,,,,,,,,,,"[""comma""]",0,[0.6679000000954147],13,0,13,0,1,,
,,,,,,,,,,,,60b52fd8e153e8239639775a,21,Kobieta,2022-06-11_09h06.00.675,task,2021.1.4,Win32,59.97361161,6299f149e92ead563fba08ef,62a43ecd4ed8e0f1179ce562,,,,,,,,,,,,,,,,,,,,,,,,,,,,,,,,,,,,,,,,,,,,,,,,,,,,,,,,,,,,,,,,,,,,,,,,,,,,,,,,,,,,,,,,,,,,"[""period""]",0,[0.5347000002860796],14,0,14,0,1,,
,,,,,,,,,,,,60b52fd8e153e8239639775a,21,Kobieta,2022-06-11_09h06.00.675,task,2021.1.4,Win32,59.97361161,6299f149e92ead563fba08ef,62a43ecd4ed8e0f1179ce562,,,,,,,,,,,,,,,,,,,,,,,,,,,,,,,,,,,,,,,,,,,,,,,,,,,,,,,,,,,,,,,,,,,,,,,,,,,,,,,,,,,,,,,,,,,,"[""comma""]",0,[0.32180000019081945],15,0,15,0,1,,
,,,,,,,,,,,,60b52fd8e153e8239639775a,21,Kobieta,2022-06-11_09h06.00.675,task,2021.1.4,Win32,59.97361161,6299f149e92ead563fba08ef,62a43ecd4ed8e0f1179ce562,,,,,,,,,,,,,,,,,,,,,,,,,,,,,,,,,,,,,,,,,,,,,,,,,,,,,,,,,,,,,,,,,,,,,,,,,,,,,,,,,,,,,,,,,,,,"[""period"",""period""]",0,"[0.48759999990465985,0.6071999998092679]",16,0,16,0,1,,
,,,,,,,,,,,,60b52fd8e153e8239639775a,21,Kobieta,2022-06-11_09h06.00.675,task,2021.1.4,Win32,59.97361161,6299f149e92ead563fba08ef,62a43ecd4ed8e0f1179ce562,,,,,,,,,,,,,,,,,,,,,,,,,,,,,,,,,,,,,,,,,,,,,,,,,,,,,,,,,,,,,,,,,,,,,,,,,,,,,,,,,,,,,,,,,,,,"[""comma""]",0,[0.4726000003814761],17,0,17,0,1,,
,,,,,,,,,,,,60b52fd8e153e8239639775a,21,Kobieta,2022-06-11_09h06.00.675,task,2021.1.4,Win32,59.97361161,6299f149e92ead563fba08ef,62a43ecd4ed8e0f1179ce562,,,,,,,,,,,,,,,,,,,,,,,,,,,,,,,,,,,,,,,,,,,,,,,,,,,,,,,,,,,,,,,,,,,,,,,,,,,,,,,,,,,,,,,,,,,,"[""period""]",0,[0.29900000000009186],18,0,18,0,1,,
,,,,,,,,,,,,60b52fd8e153e8239639775a,21,Kobieta,2022-06-11_09h06.00.675,task,2021.1.4,Win32,59.97361161,6299f149e92ead563fba08ef,62a43ecd4ed8e0f1179ce562,,,,,,,,,,,,,,,,,,,,,,,,,,,,,,,,,,,,,,,,,,,,,,,,,,,,,,,,,,,,,,,,,,,,,,,,,,,,,,,,,,,,,,,,,,,,"[""comma""]",0,[0.2741999998091842],19,0,19,0,1,,
,,,,,,,,,,,,60b52fd8e153e8239639775a,21,Kobieta,2022-06-11_09h06.00.675,task,2021.1.4,Win32,59.97361161,6299f149e92ead563fba08ef,62a43ecd4ed8e0f1179ce562,,,,,,,,,,,,,,,,,,,,,,,,,,,,,,,,,,,,,,,,,,,,,,,,,,,,,,,,,,,,,,,,,,,,,,,,,,,,,,,,,,,,,,,,,,,,"[""period""]",0,[0.29980000019065756],20,0,20,0,1,,
,,,,,,,,,,,,60b52fd8e153e8239639775a,21,Kobieta,2022-06-11_09h06.00.675,task,2021.1.4,Win32,59.97361161,6299f149e92ead563fba08ef,62a43ecd4ed8e0f1179ce562,,,,,,,,,,,,,,,,,,,,,,,,,,,,,,,,,,,,,,,,,,,,,,,,,,,,,,,,,,,,,,,,,,,,,,,,,,,,,,,,,,,,,,,,,,,,"[""comma""]",0,[0.31780000019080035],21,0,21,0,1,,
,,,,,,,,,,,,60b52fd8e153e8239639775a,21,Kobieta,2022-06-11_09h06.00.675,task,2021.1.4,Win32,59.97361161,6299f149e92ead563fba08ef,62a43ecd4ed8e0f1179ce562,,,,,,,,,,,,,,,,,,,,,,,,,,,,,,,,,,,,,,,,,,,,,,,,,,,,,,,,,,,,,,,,,,,,,,,,,,,,,,,,,,,,,,,,,,,,"[""period""]",0,[0.2992999997138668],22,0,22,0,1,,
,,,,,,,,,,,,60b52fd8e153e8239639775a,21,Kobieta,2022-06-11_09h06.00.675,task,2021.1.4,Win32,59.97361161,6299f149e92ead563fba08ef,62a43ecd4ed8e0f1179ce562,,,,,,,,,,,,,,,,,,,,,,,,,,,,,,,,,,,,,,,,,,,,,,,,,,,,,,,,,,,,,,,,,,,,,,,,,,,,,,,,,,,,,,,,,,,,"[""comma""]",0,[0.35520000028600407],23,0,23,0,1,,
,,,,,,,,,,,,60b52fd8e153e8239639775a,21,Kobieta,2022-06-11_09h06.00.675,task,2021.1.4,Win32,59.97361161,6299f149e92ead563fba08ef,62a43ecd4ed8e0f1179ce562,,,,,,,,,,,,,,,,,,,,,,,,,,,,,,,,,,,,,,,,,,,,,,,,,,,,,,,,,,,,,,,,,,,,,,,,,,,,,,,,,,,,,,,,,,,,"[""period""]",0,[0.3030999999047026],24,0,24,0,1,,
,,,,,,,,,,,,60b52fd8e153e8239639775a,21,Kobieta,2022-06-11_09h06.00.675,task,2021.1.4,Win32,59.97361161,6299f149e92ead563fba08ef,62a43ecd4ed8e0f1179ce562,,,,,,,,,,,,,,,,,,,,,,,,,,,,,,,,,,,,,,,,,,,,,,,,,,,,,,,,,,,,,,,,,,,,,,,,,,,,,,,,,,,,,,,,,,,,"[""comma""]",0,[0.5892999997139441],25,0,25,0,1,,
,,,,,,,,,,,,60b52fd8e153e8239639775a,21,Kobieta,2022-06-11_09h06.00.675,task,2021.1.4,Win32,59.97361161,6299f149e92ead563fba08ef,62a43ecd4ed8e0f1179ce562,,,,,,,,,,,,,,,,,,,,,,,,,,,,,,,,,,,,,,,,,,,,,,,,,,,,,,,,,,,,,,,,,,,,,,,,,,,,,,,,,,,,,,,,,,,,"[""period""]",0,[0.4519999999999982],26,0,26,0,1,,
,,,,,,,,,,,,60b52fd8e153e8239639775a,21,Kobieta,2022-06-11_09h06.00.675,task,2021.1.4,Win32,59.97361161,6299f149e92ead563fba08ef,62a43ecd4ed8e0f1179ce562,,,,,,,,,,,,,,,,,,,,,,,,,,,,,,,,,,,,,,,,,,,,,,,,,,,,,,,,,,,,,,,,,,,,,,,,,,,,,,,,,,,,,,,,,,,,"[""comma""]",0,[0.618300000190743],27,0,27,0,1,,
,,,,,,,,,,,,60b52fd8e153e8239639775a,21,Kobieta,2022-06-11_09h06.00.675,task,2021.1.4,Win32,59.97361161,6299f149e92ead563fba08ef,62a43ecd4ed8e0f1179ce562,,,,,,,,,,,,,,,,,,,,,,,,,,,,,,,,,,,,,,,,,,,,,,,,,,,,,,,,,,,,,,,,,,,,,,,,,,,,,,,,,,,,,,,,,,,,"[""period""]",0,[0.517300000190744],28,0,28,0,1,,
,,,,,,,,,,,,60b52fd8e153e8239639775a,21,Kobieta,2022-06-11_09h06.00.675,task,2021.1.4,Win32,59.97361161,6299f149e92ead563fba08ef,62a43ecd4ed8e0f1179ce562,,,,,,,,,,,,,,,,,,,,,,,,,,,,,,,,,,,,,,,,,,,,,,,,,,,,,,,,,,,,,,,,,,,,,,,,,,,,,,,,,,,,,,,,,,,,"[""comma""]",0,[0.684199999809266],29,0,29,0,1,,
,,,,,,,,,,,,60b52fd8e153e8239639775a,21,Kobieta,2022-06-11_09h06.00.675,task,2021.1.4,Win32,59.97361161,6299f149e92ead563fba08ef,62a43ecd4ed8e0f1179ce562,,,,,,,,,,,,,,,,,,,,,,,,,,,,,,,,,,,,,,,,,,,,,,,,,,,,,,,,,,,,,,,,,,,,,,,,,,,,,,,,,,,,,,,,,,,,"[""period""]",0,[0.3526999998092606],30,0,30,0,1,,
,,,,,,,,,,,,60b52fd8e153e8239639775a,21,Kobieta,2022-06-11_09h06.00.675,task,2021.1.4,Win32,59.97361161,6299f149e92ead563fba08ef,62a43ecd4ed8e0f1179ce562,,,,,,,,,,,,,,,,,,,,,,,,,,,,,,,,,,,,,,,,,,,,,,,,,,,,,,,,,,,,,,,,,,,,,,,,,,,,,,,,,,,,,,,,,,,,"[""period""]",0,[0.48510000038152157],31,0,31,0,1,,
,,,,,,,,,,,,60b52fd8e153e8239639775a,21,Kobieta,2022-06-11_09h06.00.675,task,2021.1.4,Win32,59.97361161,6299f149e92ead563fba08ef,62a43ecd4ed8e0f1179ce562,,,,,,,,,,,,,,,,,,,,,,,,,,,,,,,,,,,,,,,,,,,,,,,,,,,,,,,,,,,,,,,,,,,,,,,,,,,,,,,,,,,,,,,,,,,,"[""comma""]",0,[0.3009000000954529],32,0,32,0,1,,
,,,,,,,,,,,,60b52fd8e153e8239639775a,21,Kobieta,2022-06-11_09h06.00.675,task,2021.1.4,Win32,59.97361161,6299f149e92ead563fba08ef,62a43ecd4ed8e0f1179ce562,,,,,,,,,,,,,,,,,,,,,,,,,,,,,,,,,,,,,,,,,,,,,,,,,,,,,,,,,,,,,,,,,,,,,,,,,,,,,,,,,,,,,,,,,,,,"[""comma""]",0,[0.31690000009541563],33,0,33,0,1,,
,,,,,,,,,,,,60b52fd8e153e8239639775a,21,Kobieta,2022-06-11_09h06.00.675,task,2021.1.4,Win32,59.97361161,6299f149e92ead563fba08ef,62a43ecd4ed8e0f1179ce562,,,,,,,,,,,,,,,,,,,,,,,,,,,,,,,,,,,,,,,,,,,,,,,,,,,,,,,,,,,,,,,,,,,,,,,,,,,,,,,,,,,,,,,,,,,,"[""period""]",0,[0.45740000009539017],34,0,34,0,1,,
,,,,,,,,,,,,60b52fd8e153e8239639775a,21,Kobieta,2022-06-11_09h06.00.675,task,2021.1.4,Win32,59.97361161,6299f149e92ead563fba08ef,62a43ecd4ed8e0f1179ce562,,,,,,,,,,,,,,,,,,,,,,,,,,,,,,,,,,,,,,,,,,,,,,,,,,,,,,,,,,,,,,,,,,,,,,,,,,,,,,,,,,,,,,,,,,,,"[""comma""]",0,[0.3380999999045571],35,0,35,0,1,,
,,,,,,,,,,,,60b52fd8e153e8239639775a,21,Kobieta,2022-06-11_09h06.00.675,task,2021.1.4,Win32,59.97361161,6299f149e92ead563fba08ef,62a43ecd4ed8e0f1179ce562,,,,,,,,,,,,,,,,,,,,,,,,,,,,,,,,,,,,,,,,,,,,,,,,,,,,,,,,,,,,,,,,,,,,,,,,,,,,,,,,,,,,,,,,,,,,"[""period""]",0,[0.338400000095362],36,0,36,0,1,,
,,,,,,,,,,,,60b52fd8e153e8239639775a,21,Kobieta,2022-06-11_09h06.00.675,task,2021.1.4,Win32,59.97361161,6299f149e92ead563fba08ef,62a43ecd4ed8e0f1179ce562,,,,,,,,,,,,,,,,,,,,,,,,,,,,,,,,,,,,,,,,,,,,,,,,,,,,,,,,,,,,,,,,,,,,,,,,,,,,,,,,,,,,,,,,,,,,"[""comma""]",0,[0.4018000001907467],37,0,37,0,1,,
,,,,,,,,,,,,60b52fd8e153e8239639775a,21,Kobieta,2022-06-11_09h06.00.675,task,2021.1.4,Win32,59.97361161,6299f149e92ead563fba08ef,62a43ecd4ed8e0f1179ce562,,,,,,,,,,,,,,,,,,,,,,,,,,,,,,,,,,,,,,,,,,,,,,,,,,,,,,,,,,,,,,,,,,,,,,,,,,,,,,,,,,,,,,,,,,,,"[""comma""]",0,[0.2661999998092597],38,0,38,0,1,,
,,,,,,,,,,,,60b52fd8e153e8239639775a,21,Kobieta,2022-06-11_09h06.00.675,task,2021.1.4,Win32,59.97361161,6299f149e92ead563fba08ef,62a43ecd4ed8e0f1179ce562,,,,,,,,,,,,,,,,,,,,,,,,,,,,,,,,,,,,,,,,,,,,,,,,,,,,,,,,,,,,,,,,,,,,,,,,,,,,,,,,,,,,,,,,,,,,"[""period""]",0,[0.25809999990462984],39,0,39,0,1,,
,,,,,,,,,,,,60b52fd8e153e8239639775a,21,Kobieta,2022-06-11_09h06.00.675,task,2021.1.4,Win32,59.97361161,6299f149e92ead563fba08ef,62a43ecd4ed8e0f1179ce562,,,,,,,,,,,,,,,,,,,,,,,,,,,,,,,,,,,,,,,,,,,,,,,,,,,,,,,,,,,,,,,,,,,,,,,,,,,,,,,,,,,,,,,,,,,,"[""period""]",0,[0.4584000000953665],40,0,40,0,1,,
,,,,,,,,,,,,60b52fd8e153e8239639775a,21,Kobieta,2022-06-11_09h06.00.675,task,2021.1.4,Win32,59.97361161,6299f149e92ead563fba08ef,62a43ecd4ed8e0f1179ce562,,,,,,,,,,,,,,,,,,,,,,,,,,,,,,,,,,,,,,,,,,,,,,,,,,,,,,,,,,,,,,,,,,,,,,,,,,,,,,,,,,,,,,,,,,,,"[""comma""]",0,[0.6870999999046035],41,0,41,0,1,,
,,,,,,,,,,,,60b52fd8e153e8239639775a,21,Kobieta,2022-06-11_09h06.00.675,task,2021.1.4,Win32,59.97361161,6299f149e92ead563fba08ef,62a43ecd4ed8e0f1179ce562,,,,,,,,,,,,,,,,,,,,,,,,,,,,,,,,,,,,,,,,,,,,,,,,,,,,,,,,,,,,,,,,,,,,,,,,,,,,,,,,,,,,,,,,,,,,"[""period""]",0,[0.3352999997138113],42,0,42,0,1,,
,,,,,,,,,,,,60b52fd8e153e8239639775a,21,Kobieta,2022-06-11_09h06.00.675,task,2021.1.4,Win32,59.97361161,6299f149e92ead563fba08ef,62a43ecd4ed8e0f1179ce562,,,,,,,,,,,,,,,,,,,,,,,,,,,,,,,,,,,,,,,,,,,,,,,,,,,,,,,,,,,,,,,,,,,,,,,,,,,,,,,,,,,,,,,,,,,,"[""comma""]",0,[0.5181000003814233],43,0,43,0,1,,
,,,,,,,,,,,,60b52fd8e153e8239639775a,21,Kobieta,2022-06-11_09h06.00.675,task,2021.1.4,Win32,59.97361161,6299f149e92ead563fba08ef,62a43ecd4ed8e0f1179ce562,,,,,,,,,,,,,,,,,,,,,,,,,,,,,,,,,,,,,,,,,,,,,,,,,,,,,,,,,,,,,,,,,,,,,,,,,,,,,,,,,,,,,,,,,,,,"[""comma""]",0,[0.4998999996184921],44,0,44,0,1,,
,,,,,,,,,,,,60b52fd8e153e8239639775a,21,Kobieta,2022-06-11_09h06.00.675,task,2021.1.4,Win32,59.97361161,6299f149e92ead563fba08ef,62a43ecd4ed8e0f1179ce562,,,,,,,,,,,,,,,,,,,,,,,,,,,,,,,,,,,,,,,,,,,,,,,,,,,,,,,,,,,,,,,,,,,,,,,,,,,,,,,,,,,,,,,,,,,,"[""period""]",0,[0.4166000003814361],45,0,45,0,1,,
,,,,,,,,,,,,60b52fd8e153e8239639775a,21,Kobieta,2022-06-11_09h06.00.675,task,2021.1.4,Win32,59.97361161,6299f149e92ead563fba08ef,62a43ecd4ed8e0f1179ce562,,,,,,,,,,,,,,,,,,,,,,,,,,,,,,,,,,,,,,,,,,,,,,,,,,,,,,,,,,,,,,,,,,,,,,,,,,,,,,,,,,,,,,,,,,,,"[""period""]",0,[0.43389999961857484],46,0,46,0,1,,
,,,,,,,,,,,,60b52fd8e153e8239639775a,21,Kobieta,2022-06-11_09h06.00.675,task,2021.1.4,Win32,59.97361161,6299f149e92ead563fba08ef,62a43ecd4ed8e0f1179ce562,,,,,,,,,,,,,,,,,,,,,,,,,,,,,,,,,,,,,,,,,,,,,,,,,,,,,,,,,,,,,,,,,,,,,,,,,,,,,,,,,,,,,,,,,,,,"[""comma""]",0,[0.10810000038145517],47,0,47,0,1,,
,,,,,,,,,,,,60b52fd8e153e8239639775a,21,Kobieta,2022-06-11_09h06.00.675,task,2021.1.4,Win32,59.97361161,6299f149e92ead563fba08ef,62a43ecd4ed8e0f1179ce562,,,,,,,,,,,,,,,,,,,,,,,,,,,,,,,,,,,,,,,,,,,,,,,,,,,,,,,,,,,,,,,,,,,,,,,,,,,,,,,,,,,,,,,,,,,,"[""comma""]",0,[0.06790000009539199],48,0,48,0,1,,
,,,,,,,,,,,,60b52fd8e153e8239639775a,21,Kobieta,2022-06-11_09h06.00.675,task,2021.1.4,Win32,59.97361161,6299f149e92ead563fba08ef,62a43ecd4ed8e0f1179ce562,,,,,,,,,,,,,,,,,,,,,,,,,,,,,,,,,,,,,,,,,,,,,,,,,,,,,,,,,,,,,,,,,,,,,,,,,,,,,,,,,,,,,,,,,,,,"[""period""]",0,[0.016599999904656215],49,0,49,0,1,,
,,,,,,,,,,,,60b52fd8e153e8239639775a,21,Kobieta,2022-06-11_09h06.00.675,task,2021.1.4,Win32,59.97361161,6299f149e92ead563fba08ef,62a43ecd4ed8e0f1179ce562,,,,,,,,,,,,,,,,,,,,,,,,,,,,,,,,,,,,,,,,,,,,,,,,,,,,,,,,,,,,,,,,,,,,,,,,,,,,,,,,,,,,,,,,,,,,"[""comma""]",0,[0.29240000009542655],50,0,50,0,1,,
,,,,,,,,,,,,60b52fd8e153e8239639775a,21,Kobieta,2022-06-11_09h06.00.675,task,2021.1.4,Win32,59.97361161,6299f149e92ead563fba08ef,62a43ecd4ed8e0f1179ce562,,,,,,,,,,,,,,,,,,,,,,,,,,,,,,,,,,,,,,,,,,,,,,,,,,,,,,,,,,,,,,,,,,,,,,,,,,,,,,,,,,,,,,,,,,,,"[""period""]",0,[0.3076999998093015],51,0,51,0,1,,
,,,,,,,,,,,,60b52fd8e153e8239639775a,21,Kobieta,2022-06-11_09h06.00.675,task,2021.1.4,Win32,59.97361161,6299f149e92ead563fba08ef,62a43ecd4ed8e0f1179ce562,,,,,,,,,,,,,,,,,,,,,,,,,,,,,,,,,,,,,,,,,,,,,,,,,,,,,,,,,,,,,,,,,,,,,,,,,,,,,,,,,,,,,,,,,,,,"[""comma""]",0,[0.23609999990469532],52,0,52,0,1,,
,,,,,,,,,,,,60b52fd8e153e8239639775a,21,Kobieta,2022-06-11_09h06.00.675,task,2021.1.4,Win32,59.97361161,6299f149e92ead563fba08ef,62a43ecd4ed8e0f1179ce562,,,,,,,,,,,,,,,,,,,,,,,,,,,,,,,,,,,,,,,,,,,,,,,,,,,,,,,,,,,,,,,,,,,,,,,,,,,,,,,,,,,,,,,,,,,,"[""period""]",0,[0.26580000019077943],53,0,53,0,1,,
,,,,,,,,,,,,60b52fd8e153e8239639775a,21,Kobieta,2022-06-11_09h06.00.675,task,2021.1.4,Win32,59.97361161,6299f149e92ead563fba08ef,62a43ecd4ed8e0f1179ce562,,,,,,,,,,,,,,,,,,,,,,,,,,,,,,,,,,,,,,,,,,,,,,,,,,,,,,,,,,,,,,,,,,,,,,,,,,,,,,,,,,,,,,,,,,,,"[""comma""]",0,[0.28549999999995634],54,0,54,0,1,,
,,,,,,,,,,,,60b52fd8e153e8239639775a,21,Kobieta,2022-06-11_09h06.00.675,task,2021.1.4,Win32,59.97361161,6299f149e92ead563fba08ef,62a43ecd4ed8e0f1179ce562,,,,,,,,,,,,,,,,,,,,,,,,,,,,,,,,,,,,,,,,,,,,,,,,,,,,,,,,,,,,,,,,,,,,,,,,,,,,,,,,,,,,,,,,,,,,"[""period""]",0,[0.25099999999997635],55,0,55,0,1,,
,,,,,,,,,,,,60b52fd8e153e8239639775a,21,Kobieta,2022-06-11_09h06.00.675,task,2021.1.4,Win32,59.97361161,6299f149e92ead563fba08ef,62a43ecd4ed8e0f1179ce562,,,,,,,,,,,,,,,,,,,,,,,,,,,,,,,,,,,,,,,,,,,,,,,,,,,,,,,,,,,,,,,,,,,,,,,,,,,,,,,,,,,,,,,,,,,,"[""comma""]",0,[0.5850000000000364],56,0,56,0,1,,
,,,,,,,,,,,,60b52fd8e153e8239639775a,21,Kobieta,2022-06-11_09h06.00.675,task,2021.1.4,Win32,59.97361161,6299f149e92ead563fba08ef,62a43ecd4ed8e0f1179ce562,,,,,,,,,,,,,,,,,,,,,,,,,,,,,,,,,,,,,,,,,,,,,,,,,,,,,,,,,,,,,,,,,,,,,,,,,,,,,,,,,,,,,,,,,,,,"[""period""]",0,[0.2655999999045662],57,0,57,0,1,,
,,,,,,,,,,,,60b52fd8e153e8239639775a,21,Kobieta,2022-06-11_09h06.00.675,task,2021.1.4,Win32,59.97361161,6299f149e92ead563fba08ef,62a43ecd4ed8e0f1179ce562,,,,,,,,,,,,,,,,,,,,,,,,,,,,,,,,,,,,,,,,,,,,,,,,,,,,,,,,,,,,,,,,,,,,,,,,,,,,,,,,,,,,,,,,,,,,"[""comma""]",0,[0.3325000000000955],58,0,58,0,1,,
,,,,,,,,,,,,60b52fd8e153e8239639775a,21,Kobieta,2022-06-11_09h06.00.675,task,2021.1.4,Win32,59.97361161,6299f149e92ead563fba08ef,62a43ecd4ed8e0f1179ce562,,,,,,,,,,,,,,,,,,,,,,,,,,,,,,,,,,,,,,,,,,,,,,,,,,,,,,,,,,,,,,,,,,,,,,,,,,,,,,,,,,,,,,,,,,,,"[""period""]",0,[0.6181999998092351],59,0,59,0,1,,
,,,,,,,,,,,,60b52fd8e153e8239639775a,21,Kobieta,2022-06-11_09h06.00.675,task,2021.1.4,Win32,59.97361161,6299f149e92ead563fba08ef,62a43ecd4ed8e0f1179ce562,,,,,,,,,,,,,,,,,,,,,,,,,,,,,,,,,,,,,,,,,,,,,,,,,,,,,,,,,,,,,,,,,,,,,,,,,,,,,,,,,,,,,,,,,,,,"[""period""]",0,[0.2699999999999818],60,0,60,0,1,,
,,,,,,,,,,,,60b52fd8e153e8239639775a,21,Kobieta,2022-06-11_09h06.00.675,task,2021.1.4,Win32,59.97361161,6299f149e92ead563fba08ef,62a43ecd4ed8e0f1179ce562,,,,,,,,,,,,,,,,,,,,,,,,,,,,,,,,,,,,,,,,,,,,,,,,,,,,,,,,,,,,,,,,,,,,,,,,,,,,,,,,,,,,,,,,,,,,"[""comma""]",0,[0.24910000038153157],61,0,61,0,1,,
,,,,,,,,,,,,60b52fd8e153e8239639775a,21,Kobieta,2022-06-11_09h06.00.675,task,2021.1.4,Win32,59.97361161,6299f149e92ead563fba08ef,62a43ecd4ed8e0f1179ce562,,,,,,,,,,,,,,,,,,,,,,,,,,,,,,,,,,,,,,,,,,,,,,,,,,,,,,,,,,,,,,,,,,,,,,,,,,,,,,,,,,,,,,,,,,,,"[""comma""]",0,[0.27240000009533105],62,0,62,0,1,,
,,,,,,,,,,,,60b52fd8e153e8239639775a,21,Kobieta,2022-06-11_09h06.00.675,task,2021.1.4,Win32,59.97361161,6299f149e92ead563fba08ef,62a43ecd4ed8e0f1179ce562,,,,,,,,,,,,,,,,,,,,,,,,,,,,,,,,,,,,,,,,,,,,,,,,,,,,,,,,,,,,,,,,,,,,,,,,,,,,,,,,,,,,,,,,,,,,"[""period""]",0,[0.30240000009541745],63,0,63,0,1,,
,,,,,,,,,,,,60b52fd8e153e8239639775a,21,Kobieta,2022-06-11_09h06.00.675,task,2021.1.4,Win32,59.97361161,6299f149e92ead563fba08ef,62a43ecd4ed8e0f1179ce562,,,,,,,,,,,,,,,,,,,,,,,,,,,,,,,,,,,,,,,,,,,,,,,,,,,,,,,,,,,,,,,,,,,,,,,,,,,,,,,,,,,,,,,,,,,,"[""comma""]",0,[0.28380000019080853],64,0,64,0,1,,
,,,,,,,,,,,,60b52fd8e153e8239639775a,21,Kobieta,2022-06-11_09h06.00.675,task,2021.1.4,Win32,59.97361161,6299f149e92ead563fba08ef,62a43ecd4ed8e0f1179ce562,,,,,,,,,,,,,,,,,,,,,,,,,,,,,,,,,,,,,,,,,,,,,,,,,,,,,,,,,,,,,,,,,,,,,,,,,,,,,,,,,,,,,,,,,,,,"[""period""]",0,[0.24159999990467895],65,0,65,0,1,,
,,,,,,,,,,,,60b52fd8e153e8239639775a,21,Kobieta,2022-06-11_09h06.00.675,task,2021.1.4,Win32,59.97361161,6299f149e92ead563fba08ef,62a43ecd4ed8e0f1179ce562,,,,,,,,,,,,,,,,,,,,,,,,,,,,,,,,,,,,,,,,,,,,,,,,,,,,,,,,,,,,,,,,,,,,,,,,,,,,,,,,,,,,,,,,,,,,"[""comma""]",0,[0.14170000028605045],66,0,66,0,1,,
,,,,,,,,,,,,60b52fd8e153e8239639775a,21,Kobieta,2022-06-11_09h06.00.675,task,2021.1.4,Win32,59.97361161,6299f149e92ead563fba08ef,62a43ecd4ed8e0f1179ce562,,,,,,,,,,,,,,,,,,,,,,,,,,,,,,,,,,,,,,,,,,,,,,,,,,,,,,,,,,,,,,,,,,,,,,,,,,,,,,,,,,,,,,,,,,,,"[""period"",""comma""]",0,"[0.20790000009537835,1.9506999998093306]",67,0,67,0,1,,
,,,,,,,,,,,,60b52fd8e153e8239639775a,21,Kobieta,2022-06-11_09h06.00.675,task,2021.1.4,Win32,59.97361161,6299f149e92ead563fba08ef,62a43ecd4ed8e0f1179ce562,,,,,,,,,,,,,,,,,,,,,,,,,,,,,,,,,,,,,,,,,,,,,,,,,,,,,,,,,,,,,,,,,,,,,,,,,,,,,,,,,,,,,,,,,,,,,0,,68,0,68,0,1,,
,,,,,,,,,,,,60b52fd8e153e8239639775a,21,Kobieta,2022-06-11_09h06.00.675,task,2021.1.4,Win32,59.97361161,6299f149e92ead563fba08ef,62a43ecd4ed8e0f1179ce562,,,,,,,,,,,,,,,,,,,,,,,,,,,,,,,,,,,,,,,,,,,,,,,,,,,,,,,,,,,,,,,,,,,,,,,,,,,,,,,,,,,,,,,,,,,,"[""period""]",0,[0.22609999990470442],69,0,69,0,1,,
,,,,,,,,,,,,60b52fd8e153e8239639775a,21,Kobieta,2022-06-11_09h06.00.675,task,2021.1.4,Win32,59.97361161,6299f149e92ead563fba08ef,62a43ecd4ed8e0f1179ce562,,,,,,,,,,,,,,,,,,,,,,,,,,,,,,,,,,,,,,,,,,,,,,,,,,,,,,,,,,,,,,,,,,,,,,,,,,,,,,,,,,,,,,,,,,,,"[""comma""]",0,[0.28350000000000364],70,0,70,0,1,,
,,,,,,,,,,,,60b52fd8e153e8239639775a,21,Kobieta,2022-06-11_09h06.00.675,task,2021.1.4,Win32,59.97361161,6299f149e92ead563fba08ef,62a43ecd4ed8e0f1179ce562,,,,,,,,,,,,,,,,,,,,,,,,,,,,,,,,,,,,,,,,,,,,,,,,,,,,,,,,,,,,,,,,,,,,,,,,,,,,,,,,,,,,,,,,,,,,"[""period""]",0,[0.3123999996184921],71,0,71,0,1,,
,,,,,,,,,,,,60b52fd8e153e8239639775a,21,Kobieta,2022-06-11_09h06.00.675,task,2021.1.4,Win32,59.97361161,6299f149e92ead563fba08ef,62a43ecd4ed8e0f1179ce562,,,,,,,,,,,,,,,,,,,,,,,,,,,,,,,,,,,,,,,,,,,,,,,,,,,,,,,,,,,,,,,,,,,,,,,,,,,,,,,,,,,,,,,,,,,,"[""comma""]",0,[0.3144999999999527],72,0,72,0,1,,
,,,,,,,,,,,,60b52fd8e153e8239639775a,21,Kobieta,2022-06-11_09h06.00.675,task,2021.1.4,Win32,59.97361161,6299f149e92ead563fba08ef,62a43ecd4ed8e0f1179ce562,,,,,,,,,,,,,,,,,,,,,,,,,,,,,,,,,,,,,,,,,,,,,,,,,,,,,,,,,,,,,,,,,,,,,,,,,,,,,,,,,,,,,,,,,,,,"[""period""]",0,[0.26670000028605045],73,0,73,0,1,,
,,,,,,,,,,,,60b52fd8e153e8239639775a,21,Kobieta,2022-06-11_09h06.00.675,task,2021.1.4,Win32,59.97361161,6299f149e92ead563fba08ef,62a43ecd4ed8e0f1179ce562,,,,,,,,,,,,,,,,,,,,,,,,,,,,,,,,,,,,,,,,,,,,,,,,,,,,,,,,,,,,,,,,,,,,,,,,,,,,,,,,,,,,,,,,,,,,"[""comma""]",0,[0.30240000009541745],74,0,74,0,1,,
,,,,,,,,,,,,60b52fd8e153e8239639775a,21,Kobieta,2022-06-11_09h06.00.675,task,2021.1.4,Win32,59.97361161,6299f149e92ead563fba08ef,62a43ecd4ed8e0f1179ce562,,,,,,,,,,,,,,,,,,,,,,,,,,,,,,,,,,,,,,,,,,,,,,,,,,,,,,,,,,,,,,,,,,,,,,,,,,,,,,,,,,,,,,,,,,,,"[""period""]",0,[0.30059999990464803],75,0,75,0,1,,
,,,,,,,,,,,,60b52fd8e153e8239639775a,21,Kobieta,2022-06-11_09h06.00.675,task,2021.1.4,Win32,59.97361161,6299f149e92ead563fba08ef,62a43ecd4ed8e0f1179ce562,,,,,,,,,,,,,,,,,,,,,,,,,,,,,,,,,,,,,,,,,,,,,,,,,,,,,,,,,,,,,,,,,,,,,,,,,,,,,,,,,,,,,,,,,,,,"[""comma""]",0,[0.29930000019078307],76,0,76,0,1,,
,,,,,,,,,,,,60b52fd8e153e8239639775a,21,Kobieta,2022-06-11_09h06.00.675,task,2021.1.4,Win32,59.97361161,6299f149e92ead563fba08ef,62a43ecd4ed8e0f1179ce562,,,,,,,,,,,,,,,,,,,,,,,,,,,,,,,,,,,,,,,,,,,,,,,,,,,,,,,,,,,,,,,,,,,,,,,,,,,,,,,,,,,,,,,,,,,,"[""period""]",0,[0.2817000002861505],77,0,77,0,1,,
,,,,,,,,,,,,60b52fd8e153e8239639775a,21,Kobieta,2022-06-11_09h06.00.675,task,2021.1.4,Win32,59.97361161,6299f149e92ead563fba08ef,62a43ecd4ed8e0f1179ce562,,,,,,,,,,,,,,,,,,,,,,,,,,,,,,,,,,,,,,,,,,,,,,,,,,,,,,,,,,,,,,,,,,,,,,,,,,,,,,,,,,,,,,,,,,,,"[""comma""]",0,[0.29119999980923694],78,0,78,0,1,,
,,,,,,,,,,,,60b52fd8e153e8239639775a,21,Kobieta,2022-06-11_09h06.00.675,task,2021.1.4,Win32,59.97361161,6299f149e92ead563fba08ef,62a43ecd4ed8e0f1179ce562,,,,,,,,,,,,,,,,,,,,,,,,,,,,,,,,,,,,,,,,,,,,,,,,,,,,,,,,,,,,,,,,,,,,,,,,,,,,,,,,,,,,,,,,,,,,"[""period""]",0,[0.2346000003814197],79,0,79,0,1,,
,,,,,,,,,,,,60b52fd8e153e8239639775a,21,Kobieta,2022-06-11_09h06.00.675,task,2021.1.4,Win32,59.97361161,6299f149e92ead563fba08ef,62a43ecd4ed8e0f1179ce562,,,,,,,,,,,,,,,,,,,,,,,,,,,,,,,,,,,,,,,,,,,,,,,,,,,,,,,,,,,,,,,,,,,,,,,,,,,,,,,,,,,,,,,,,,,,"[""comma""]",0,[0.27040000009537835],80,0,80,0,1,,
,,,,,,,,,,,,60b52fd8e153e8239639775a,21,Kobieta,2022-06-11_09h06.00.675,task,2021.1.4,Win32,59.97361161,6299f149e92ead563fba08ef,62a43ecd4ed8e0f1179ce562,,,,,,,,,,,,,,,,,,,,,,,,,,,,,,,,,,,,,,,,,,,,,,,,,,,,,,,,,,,,,,,,,,,,,,,,,,,,,,,,,,,,,,,,,,,,"[""period""]",0,[0.3014000000954411],81,0,81,0,1,,
,,,,,,,,,,,,60b52fd8e153e8239639775a,21,Kobieta,2022-06-11_09h06.00.675,task,2021.1.4,Win32,59.97361161,6299f149e92ead563fba08ef,62a43ecd4ed8e0f1179ce562,,,,,,,,,,,,,,,,,,,,,,,,,,,,,,,,,,,,,,,,,,,,,,,,,,,,,,,,,,,,,,,,,,,,,,,,,,,,,,,,,,,,,,,,,,,,"[""comma""]",0,[0.5336999998091869],82,0,82,0,1,,
,,,,,,,,,,,,60b52fd8e153e8239639775a,21,Kobieta,2022-06-11_09h06.00.675,task,2021.1.4,Win32,59.97361161,6299f149e92ead563fba08ef,62a43ecd4ed8e0f1179ce562,,,,,,,,,,,,,,,,,,,,,,,,,,,,,,,,,,,,,,,,,,,,,,,,,,,,,,,,,,,,,,,,,,,,,,,,,,,,,,,,,,,,,,,,,,,,"[""comma""]",0,[0.5153999996184666],83,0,83,0,1,,
,,,,,,,,,,,,60b52fd8e153e8239639775a,21,Kobieta,2022-06-11_09h06.00.675,task,2021.1.4,Win32,59.97361161,6299f149e92ead563fba08ef,62a43ecd4ed8e0f1179ce562,,,,,,,,,,,,,,,,,,,,,,,,,,,,,,,,,,,,,,,,,,,,,,,,,,,,,,,,,,,,,,,,,,,,,,,,,,,,,,,,,,,,,,,,,,,,"[""period""]",0,[0.2907999997138404],84,0,84,0,1,,
,,,,,,,,,,,,60b52fd8e153e8239639775a,21,Kobieta,2022-06-11_09h06.00.675,task,2021.1.4,Win32,59.97361161,6299f149e92ead563fba08ef,62a43ecd4ed8e0f1179ce562,,,,,,,,,,,,,,,,,,,,,,,,,,,,,,,,,,,,,,,,,,,,,,,,,,,,,,,,,,,,,,,,,,,,,,,,,,,,,,,,,,,,,,,,,,,,"[""period""]",0,[0.17399999999997817],85,0,85,0,1,,
,,,,,,,,,,,,60b52fd8e153e8239639775a,21,Kobieta,2022-06-11_09h06.00.675,task,2021.1.4,Win32,59.97361161,6299f149e92ead563fba08ef,62a43ecd4ed8e0f1179ce562,,,,,,,,,,,,,,,,,,,,,,,,,,,,,,,,,,,,,,,,,,,,,,,,,,,,,,,,,,,,,,,,,,,,,,,,,,,,,,,,,,,,,,,,,,,,"[""comma""]",0,[0.2824999999999136],86,0,86,0,1,,
,,,,,,,,,,,,60b52fd8e153e8239639775a,21,Kobieta,2022-06-11_09h06.00.675,task,2021.1.4,Win32,59.97361161,6299f149e92ead563fba08ef,62a43ecd4ed8e0f1179ce562,,,,,,,,,,,,,,,,,,,,,,,,,,,,,,,,,,,,,,,,,,,,,,,,,,,,,,,,,,,,,,,,,,,,,,,,,,,,,,,,,,,,,,,,,,,,"[""period""]",0,[0.49990000009529467],87,0,87,0,1,,
,,,,,,,,,,,,60b52fd8e153e8239639775a,21,Kobieta,2022-06-11_09h06.00.675,task,2021.1.4,Win32,59.97361161,6299f149e92ead563fba08ef,62a43ecd4ed8e0f1179ce562,,,,,,,,,,,,,,,,,,,,,,,,,,,,,,,,,,,,,,,,,,,,,,,,,,,,,,,,,,,,,,,,,,,,,,,,,,,,,,,,,,,,,,,,,,,,"[""comma""]",0,[0.3416000003815043],88,0,88,0,1,,
,,,,,,,,,,,,60b52fd8e153e8239639775a,21,Kobieta,2022-06-11_09h06.00.675,task,2021.1.4,Win32,59.97361161,6299f149e92ead563fba08ef,62a43ecd4ed8e0f1179ce562,,,,,,,,,,,,,,,,,,,,,,,,,,,,,,,,,,,,,,,,,,,,,,,,,,,,,,,,,,,,,,,,,,,,,,,,,,,,,,,,,,,,,,,,,,,,"[""period""]",0,[0.2323000001906621],89,0,89,0,1,,
,,,,,,,,,,,,60b52fd8e153e8239639775a,21,Kobieta,2022-06-11_09h06.00.675,task,2021.1.4,Win32,59.97361161,6299f149e92ead563fba08ef,62a43ecd4ed8e0f1179ce562,,,,,,,,,,,,,,,,,,,,,,,,,,,,,,,,,,,,,,,,,,,,,,,,,,,,,,,,,,,,,,,,,,,,,,,,,,,,,,,,,,,,,,,,,,,,"[""comma""]",0,[0.4831999998093579],90,0,90,0,1,,
,,,,,,,,,,,,60b52fd8e153e8239639775a,21,Kobieta,2022-06-11_09h06.00.675,task,2021.1.4,Win32,59.97361161,6299f149e92ead563fba08ef,62a43ecd4ed8e0f1179ce562,,,,,,,,,,,,,,,,,,,,,,,,,,,,,,,,,,,,,,,,,,,,,,,,,,,,,,,,,,,,,,,,,,,,,,,,,,,,,,,,,,,,,,,,,,,,"[""comma""]",0,[0.36770000028616323],91,0,91,0,1,,
,,,,,,,,,,,,60b52fd8e153e8239639775a,21,Kobieta,2022-06-11_09h06.00.675,task,2021.1.4,Win32,59.97361161,6299f149e92ead563fba08ef,62a43ecd4ed8e0f1179ce562,,,,,,,,,,,,,,,,,,,,,,,,,,,,,,,,,,,,,,,,,,,,,,,,,,,,,,,,,,,,,,,,,,,,,,,,,,,,,,,,,,,,,,,,,,,,"[""period""]",0,[0.2156999998092033],92,0,92,0,1,,
,,,,,,,,,,,,60b52fd8e153e8239639775a,21,Kobieta,2022-06-11_09h06.00.675,task,2021.1.4,Win32,59.97361161,6299f149e92ead563fba08ef,62a43ecd4ed8e0f1179ce562,,,,,,,,,,,,,,,,,,,,,,,,,,,,,,,,,,,,,,,,,,,,,,,,,,,,,,,,,,,,,,,,,,,,,,,,,,,,,,,,,,,,,,,,,,,,"[""comma""]",0,[0.32259999990469623],93,0,93,0,1,,
,,,,,,,,,,,,60b52fd8e153e8239639775a,21,Kobieta,2022-06-11_09h06.00.675,task,2021.1.4,Win32,59.97361161,6299f149e92ead563fba08ef,62a43ecd4ed8e0f1179ce562,,,,,,,,,,,,,,,,,,,,,,,,,,,,,,,,,,,,,,,,,,,,,,,,,,,,,,,,,,,,,,,,,,,,,,,,,,,,,,,,,,,,,,,,,,,,"[""comma""]",0,[0.3594999999999118],94,0,94,0,1,,
,,,,,,,,,,,,60b52fd8e153e8239639775a,21,Kobieta,2022-06-11_09h06.00.675,task,2021.1.4,Win32,59.97361161,6299f149e92ead563fba08ef,62a43ecd4ed8e0f1179ce562,,,,,,,,,,,,,,,,,,,,,,,,,,,,,,,,,,,,,,,,,,,,,,,,,,,,,,,,,,,,,,,,,,,,,,,,,,,,,,,,,,,,,,,,,,,,"[""period""]",0,[0.3073000001907076],95,0,95,0,1,,
,,,,,,,,,,,,60b52fd8e153e8239639775a,21,Kobieta,2022-06-11_09h06.00.675,task,2021.1.4,Win32,59.97361161,6299f149e92ead563fba08ef,62a43ecd4ed8e0f1179ce562,,,,,,,,,,,,,,,,,,,,,,,,,,,,,,,,,,,,,,,,,,,,,,,,,,,,,,,,,,,,,,,,,,,,,,,,,,,,,,,,,,,,,,,,,,,,"[""period""]",0,[0.2585000000000264],96,0,96,0,1,,
,,,,,,,,,,,,60b52fd8e153e8239639775a,21,Kobieta,2022-06-11_09h06.00.675,task,2021.1.4,Win32,59.97361161,6299f149e92ead563fba08ef,62a43ecd4ed8e0f1179ce562,,,,,,,,,,,,,,,,,,,,,,,,,,,,,,,,,,,,,,,,,,,,,,,,,,,,,,,,,,,,,,,,,,,,,,,,,,,,,,,,,,,,,,,,,,,,"[""period""]",0,[0.31840000009538016],97,0,97,0,1,,
,,,,,,,,,,,,60b52fd8e153e8239639775a,21,Kobieta,2022-06-11_09h06.00.675,task,2021.1.4,Win32,59.97361161,6299f149e92ead563fba08ef,62a43ecd4ed8e0f1179ce562,,,,,,,,,,,,,,,,,,,,,,,,,,,,,,,,,,,,,,,,,,,,,,,,,,,,,,,,,,,,,,,,,,,,,,,,,,,,,,,,,,,,,,,,,,,,"[""comma""]",0,[0.21550000000002],98,0,98,0,1,,
,,,,,,,,,,,,60b52fd8e153e8239639775a,21,Kobieta,2022-06-11_09h06.00.675,task,2021.1.4,Win32,59.97361161,6299f149e92ead563fba08ef,62a43ecd4ed8e0f1179ce562,,,,,,,,,,,,,,,,,,,,,,,,,,,,,,,,,,,,,,,,,,,,,,,,,,,,,,,,,,,,,,,,,,,,,,,,,,,,,,,,,,,,,,,,,,,,"[""comma""]",0,[0.36720000028606137],99,0,99,0,1,,
,,,,,,,,,,,,60b52fd8e153e8239639775a,21,Kobieta,2022-06-11_09h06.00.675,task,2021.1.4,Win32,59.97361161,6299f149e92ead563fba08ef,62a43ecd4ed8e0f1179ce562,,,,,,,,,,,,,,,,,,,,,,,,,,,,,,,,,,,,,,,,,,,,,,,,,,,,,,,,,,,,,,,,,,,,,,,,,,,,,,,,,,,,,,,,,,,,"[""period""]",0,[0.25730000019075305],100,0,100,0,1,,
,,,,,,,,,,,,60b52fd8e153e8239639775a,21,Kobieta,2022-06-11_09h06.00.675,task,2021.1.4,Win32,59.97361161,6299f149e92ead563fba08ef,62a43ecd4ed8e0f1179ce562,,,,,,,,,,,,,,,,,,,,,,,,,,,,,,,,,,,,,,,,,,,,,,,,,,,,,,,,,,,,,,,,,,,,,,,,,,,,,,,,,,,,,,,,,,,,"[""comma""]",0,[0.3663999996184657],101,0,101,0,1,,
,,,,,,,,,,,,60b52fd8e153e8239639775a,21,Kobieta,2022-06-11_09h06.00.675,task,2021.1.4,Win32,59.97361161,6299f149e92ead563fba08ef,62a43ecd4ed8e0f1179ce562,,,,,,,,,,,,,,,,,,,,,,,,,,,,,,,,,,,,,,,,,,,,,,,,,,,,,,,,,,,,,,,,,,,,,,,,,,,,,,,,,,,,,,,,,,,,"[""period""]",0,[0.2882000002861105],102,0,102,0,1,,
,,,,,,,,,,,,60b52fd8e153e8239639775a,21,Kobieta,2022-06-11_09h06.00.675,task,2021.1.4,Win32,59.97361161,6299f149e92ead563fba08ef,62a43ecd4ed8e0f1179ce562,,,,,,,,,,,,,,,,,,,,,,,,,,,,,,,,,,,,,,,,,,,,,,,,,,,,,,,,,,,,,,,,,,,,,,,,,,,,,,,,,,,,,,,,,,,,"[""comma""]",0,[0.13740000009534015],103,0,103,0,1,,
,,,,,,,,,,,,60b52fd8e153e8239639775a,21,Kobieta,2022-06-11_09h06.00.675,task,2021.1.4,Win32,59.97361161,6299f149e92ead563fba08ef,62a43ecd4ed8e0f1179ce562,,,,,,,,,,,,,,,,,,,,,,,,,,,,,,,,,,,,,,,,,,,,,,,,,,,,,,,,,,,,,,,,,,,,,,,,,,,,,,,,,,,,,,,,,,,,"[""period""]",0,[-0.007400000095458381],104,0,104,0,1,,
,,,,,,,,,,,,60b52fd8e153e8239639775a,21,Kobieta,2022-06-11_09h06.00.675,task,2021.1.4,Win32,59.97361161,6299f149e92ead563fba08ef,62a43ecd4ed8e0f1179ce562,,,,,,,,,,,,,,,,,,,,,,,,,,,,,,,,,,,,,,,,,,,,,,,,,,,,,,,,,,,,,,,,,,,,,,,,,,,,,,,,,,,,,,,,,,,,"[""comma""]",0,[0.005300000190800347],105,0,105,0,1,,
,,,,,,,,,,,,60b52fd8e153e8239639775a,21,Kobieta,2022-06-11_09h06.00.675,task,2021.1.4,Win32,59.97361161,6299f149e92ead563fba08ef,62a43ecd4ed8e0f1179ce562,,,,,,,,,,,,,,,,,,,,,,,,,,,,,,,,,,,,,,,,,,,,,,,,,,,,,,,,,,,,,,,,,,,,,,,,,,,,,,,,,,,,,,,,,,,,"[""period""]",0,[0.2559000000952665],106,0,106,0,1,,
,,,,,,,,,,,,60b52fd8e153e8239639775a,21,Kobieta,2022-06-11_09h06.00.675,task,2021.1.4,Win32,59.97361161,6299f149e92ead563fba08ef,62a43ecd4ed8e0f1179ce562,,,,,,,,,,,,,,,,,,,,,,,,,,,,,,,,,,,,,,,,,,,,,,,,,,,,,,,,,,,,,,,,,,,,,,,,,,,,,,,,,,,,,,,,,,,,"[""period""]",0,[0.23220000028607046],107,0,107,0,1,,
,,,,,,,,,,,,60b52fd8e153e8239639775a,21,Kobieta,2022-06-11_09h06.00.675,task,2021.1.4,Win32,59.97361161,6299f149e92ead563fba08ef,62a43ecd4ed8e0f1179ce562,,,,,,,,,,,,,,,,,,,,,,,,,,,,,,,,,,,,,,,,,,,,,,,,,,,,,,,,,,,,,,,,,,,,,,,,,,,,,,,,,,,,,,,,,,,,"[""comma"",""comma""]",0,"[0.14999999999997726,1.7187999997138377]",108,0,108,0,1,,
,,,,,,,,,,,,60b52fd8e153e8239639775a,21,Kobieta,2022-06-11_09h06.00.675,task,2021.1.4,Win32,59.97361161,6299f149e92ead563fba08ef,62a43ecd4ed8e0f1179ce562,,,,,,,,,,,,,,,,,,,,,,,,,,,,,,,,,,,,,,,,,,,,,,,,,,,,,,,,,,,,,,,,,,,,,,,,,,,,,,,,,,,,,,,,,,,,,0,,109,0,109,0,1,,
