key_resp_15.keys,key_resp_15.rt,key_resp_16.keys,key_resp_16.rt,key_resp_4.keys,key_resp_4.rt,next_letter.thisRepN,next_letter.thisTrialN,next_letter.thisN,next_letter.thisIndex,next_letter.ran,letter,participant,Wiek*,Płeć,date,expName,psychopyVersion,OS,frameRate,study_id,session,simple_recall,key_resp_5.keys,key_resp_5.rt,simple_recall_corr,simple_recall_corrkeys,next_level.thisRepN,next_level.thisTrialN,next_level.thisN,next_level.thisIndex,next_level.ran,key_resp_2.keys,key_resp_2.rt,digit_answer,key_resp.keys,key_resp.corr,key_resp.rt,RT_list,next_equation.thisRepN,next_equation.thisTrialN,next_equation.thisN,next_equation.thisIndex,next_equation.ran,Task,Trial,Problem,Operation_answer,processing_score,sumRT,meanRT,sumdiff,sd,RT,key_resp_3.keys,key_resp_3.rt,repeat_practice.thisRepN,repeat_practice.thisTrialN,repeat_practice.thisN,repeat_practice.thisIndex,repeat_practice.ran,key_resp_6.keys,key_resp_6.rt,key_resp_11.keys,key_resp_11.corr,key_resp_11.rt,operation_correct,repeat_if_wrong_prac.thisRepN,repeat_if_wrong_prac.thisTrialN,repeat_if_wrong_prac.thisN,repeat_if_wrong_prac.thisIndex,repeat_if_wrong_prac.ran,span_size_prac.thisRepN,span_size_prac.thisTrialN,span_size_prac.thisN,span_size_prac.thisIndex,span_size_prac.ran,complex_recall_practice,key_resp_9.keys,key_resp_9.corr,key_resp_9.rt,complex_prac_corr,span_recall_prac.thisRepN,span_recall_prac.thisTrialN,span_recall_prac.thisN,span_recall_prac.thisIndex,span_recall_prac.ran,key_resp_10.keys,key_resp_10.rt,key_resp_7.keys,key_resp_7.corr,repeat_if_wrong.thisRepN,repeat_if_wrong.thisTrialN,repeat_if_wrong.thisN,repeat_if_wrong.thisIndex,repeat_if_wrong.ran,key_resp_7.rt,span_size.thisRepN,span_size.thisTrialN,span_size.thisN,span_size.thisIndex,span_size.ran,complex_recall,key_resp_8.keys,key_resp_8.corr,key_resp_8.rt,complex_recall_corr,complex_recall_corrkeys,span_recall.thisRepN,span_recall.thisTrialN,span_recall.thisN,span_recall.thisIndex,span_recall.ran,key_resp_13.keys,key_resp_13.corr,key_resp_13.rt,random_loop.thisRepN,random_loop.thisTrialN,random_loop.thisN,random_loop.thisIndex,random_loop.ran,key_resp_12.keys,key_resp_12.rt
space,11.5914,space,16.065,space,51.0752,0,0,0,0,1,X V Q F H G B L J M P D K C T S W R N Z,60b7bb77c573c1a28d072811,23,Mężczyzna,2022-06-25_15h32.00.470,task,2021.1.4,Win32,60.0348202,6299f149e92ead563fba08ef,62b70e46f66b8c0ed63fc260,,,,,,,,,,,,,,,,,,,,,,,,,,,,,,,,,,,,,,,,,,,,,,,,,,,,,,,,,,,,,,,,,,,,,,,,,,,,,,,,,,,,,,,,,,,,,,,,,,,,,
,,,,,,1,0,1,0,1,X V Q F H G B L J M P D K C T S W R N Z,60b7bb77c573c1a28d072811,23,Mężczyzna,2022-06-25_15h32.00.470,task,2021.1.4,Win32,60.0348202,6299f149e92ead563fba08ef,62b70e46f66b8c0ed63fc260,,,,,,,,,,,,,,,,,,,,,,,,,,,,,,,,,,,,,,,,,,,,,,,,,,,,,,,,,,,,,,,,,,,,,,,,,,,,,,,,,,,,,,,,,,,,,,,,,,,,,
,,,,,,,,,,,,60b7bb77c573c1a28d072811,23,Mężczyzna,2022-06-25_15h32.00.470,task,2021.1.4,Win32,60.0348202,6299f149e92ead563fba08ef,62b70e46f66b8c0ed63fc260,zc,"[""z"",""c""]","[1.4867000000029833,1.9027000000029801,3.838599999994045]",1,ZC,0,0,0,0,1,,,,,,,,,,,,,,,,,,,,,,,,,,,,,,,,,,,,,,,,,,,,,,,,,,,,,,,,,,,,,,,,,,,,,,,,,,,,,,,,,,,,,,,,,,,
,,,,,,0,0,0,0,1,X V Q F H G B L J M P D K C T S W R N Z,60b7bb77c573c1a28d072811,23,Mężczyzna,2022-06-25_15h32.00.470,task,2021.1.4,Win32,60.0348202,6299f149e92ead563fba08ef,62b70e46f66b8c0ed63fc260,,,,,,,,,,,,,,,,,,,,,,,,,,,,,,,,,,,,,,,,,,,,,,,,,,,,,,,,,,,,,,,,,,,,,,,,,,,,,,,,,,,,,,,,,,,,,,,,,,,,,
,,,,,,1,0,1,0,1,X V Q F H G B L J M P D K C T S W R N Z,60b7bb77c573c1a28d072811,23,Mężczyzna,2022-06-25_15h32.00.470,task,2021.1.4,Win32,60.0348202,6299f149e92ead563fba08ef,62b70e46f66b8c0ed63fc260,,,,,,,,,,,,,,,,,,,,,,,,,,,,,,,,,,,,,,,,,,,,,,,,,,,,,,,,,,,,,,,,,,,,,,,,,,,,,,,,,,,,,,,,,,,,,,,,,,,,,
,,,,,,,,,,,,60b7bb77c573c1a28d072811,23,Mężczyzna,2022-06-25_15h32.00.470,task,2021.1.4,Win32,60.0348202,6299f149e92ead563fba08ef,62b70e46f66b8c0ed63fc260,kb,"[""k"",""b""]","[0.6745999999940295,0.8025999999940296,1.1153999999910553]",1,KB,1,0,1,0,1,,,,,,,,,,,,,,,,,,,,,,,,,,,,,,,,,,,,,,,,,,,,,,,,,,,,,,,,,,,,,,,,,,,,,,,,,,,,,,,,,,,,,,,,,,,
,,,,,,0,0,0,0,1,X V Q F H G B L J M P D K C T S W R N Z,60b7bb77c573c1a28d072811,23,Mężczyzna,2022-06-25_15h32.00.470,task,2021.1.4,Win32,60.0348202,6299f149e92ead563fba08ef,62b70e46f66b8c0ed63fc260,,,,,,,,,,,,,,,,,,,,,,,,,,,,,,,,,,,,,,,,,,,,,,,,,,,,,,,,,,,,,,,,,,,,,,,,,,,,,,,,,,,,,,,,,,,,,,,,,,,,,
,,,,,,1,0,1,0,1,X V Q F H G B L J M P D K C T S W R N Z,60b7bb77c573c1a28d072811,23,Mężczyzna,2022-06-25_15h32.00.470,task,2021.1.4,Win32,60.0348202,6299f149e92ead563fba08ef,62b70e46f66b8c0ed63fc260,,,,,,,,,,,,,,,,,,,,,,,,,,,,,,,,,,,,,,,,,,,,,,,,,,,,,,,,,,,,,,,,,,,,,,,,,,,,,,,,,,,,,,,,,,,,,,,,,,,,,
,,,,,,2,0,2,0,1,X V Q F H G B L J M P D K C T S W R N Z,60b7bb77c573c1a28d072811,23,Mężczyzna,2022-06-25_15h32.00.470,task,2021.1.4,Win32,60.0348202,6299f149e92ead563fba08ef,62b70e46f66b8c0ed63fc260,,,,,,,,,,,,,,,,,,,,,,,,,,,,,,,,,,,,,,,,,,,,,,,,,,,,,,,,,,,,,,,,,,,,,,,,,,,,,,,,,,,,,,,,,,,,,,,,,,,,,
,,,,,,,,,,,,60b7bb77c573c1a28d072811,23,Mężczyzna,2022-06-25_15h32.00.470,task,2021.1.4,Win32,60.0348202,6299f149e92ead563fba08ef,62b70e46f66b8c0ed63fc260,ssp,"[""s"",""s"",""p""]","[0.5692999999970283,0.745299999997016,0.9610999999940475,1.1694000000059646]",1,SSP,2,0,2,0,1,,,,,,,,,,,,,,,,,,,,,,,,,,,,,,,,,,,,,,,,,,,,,,,,,,,,,,,,,,,,,,,,,,,,,,,,,,,,,,,,,,,,,,,,,,,
,,,,,,0,0,0,0,1,X V Q F H G B L J M P D K C T S W R N Z,60b7bb77c573c1a28d072811,23,Mężczyzna,2022-06-25_15h32.00.470,task,2021.1.4,Win32,60.0348202,6299f149e92ead563fba08ef,62b70e46f66b8c0ed63fc260,,,,,,,,,,,,,,,,,,,,,,,,,,,,,,,,,,,,,,,,,,,,,,,,,,,,,,,,,,,,,,,,,,,,,,,,,,,,,,,,,,,,,,,,,,,,,,,,,,,,,
,,,,,,1,0,1,0,1,X V Q F H G B L J M P D K C T S W R N Z,60b7bb77c573c1a28d072811,23,Mężczyzna,2022-06-25_15h32.00.470,task,2021.1.4,Win32,60.0348202,6299f149e92ead563fba08ef,62b70e46f66b8c0ed63fc260,,,,,,,,,,,,,,,,,,,,,,,,,,,,,,,,,,,,,,,,,,,,,,,,,,,,,,,,,,,,,,,,,,,,,,,,,,,,,,,,,,,,,,,,,,,,,,,,,,,,,
,,,,,,2,0,2,0,1,X V Q F H G B L J M P D K C T S W R N Z,60b7bb77c573c1a28d072811,23,Mężczyzna,2022-06-25_15h32.00.470,task,2021.1.4,Win32,60.0348202,6299f149e92ead563fba08ef,62b70e46f66b8c0ed63fc260,,,,,,,,,,,,,,,,,,,,,,,,,,,,,,,,,,,,,,,,,,,,,,,,,,,,,,,,,,,,,,,,,,,,,,,,,,,,,,,,,,,,,,,,,,,,,,,,,,,,,
,,,,,,,,,,,,60b7bb77c573c1a28d072811,23,Mężczyzna,2022-06-25_15h32.00.470,task,2021.1.4,Win32,60.0348202,6299f149e92ead563fba08ef,62b70e46f66b8c0ed63fc260,lvm,"[""l"",""v"",""m""]","[0.6291000000089468,0.9659000000059592,1.1824000000059698,1.6291000000089468]",1,LVM,3,0,3,0,1,,,,,,,,,,,,,,,,,,,,,,,,,,,,,,,,,,,,,,,,,,,,,,,,,,,,,,,,,,,,,,,,,,,,,,,,,,,,,,,,,,,,,,,,,,,
,,,,,,0,0,0,0,1,X V Q F H G B L J M P D K C T S W R N Z,60b7bb77c573c1a28d072811,23,Mężczyzna,2022-06-25_15h32.00.470,task,2021.1.4,Win32,60.0348202,6299f149e92ead563fba08ef,62b70e46f66b8c0ed63fc260,,,,,,,,,,,,,,,,,,,,,,,,,,,,,,,,,,,,,,,,,,,,,,,,,,,,,,,,,,,,,,,,,,,,,,,,,,,,,,,,,,,,,,,,,,,,,,,,,,,,,
,,,,,,1,0,1,0,1,X V Q F H G B L J M P D K C T S W R N Z,60b7bb77c573c1a28d072811,23,Mężczyzna,2022-06-25_15h32.00.470,task,2021.1.4,Win32,60.0348202,6299f149e92ead563fba08ef,62b70e46f66b8c0ed63fc260,,,,,,,,,,,,,,,,,,,,,,,,,,,,,,,,,,,,,,,,,,,,,,,,,,,,,,,,,,,,,,,,,,,,,,,,,,,,,,,,,,,,,,,,,,,,,,,,,,,,,
,,,,,,2,0,2,0,1,X V Q F H G B L J M P D K C T S W R N Z,60b7bb77c573c1a28d072811,23,Mężczyzna,2022-06-25_15h32.00.470,task,2021.1.4,Win32,60.0348202,6299f149e92ead563fba08ef,62b70e46f66b8c0ed63fc260,,,,,,,,,,,,,,,,,,,,,,,,,,,,,,,,,,,,,,,,,,,,,,,,,,,,,,,,,,,,,,,,,,,,,,,,,,,,,,,,,,,,,,,,,,,,,,,,,,,,,
,,,,,,3,0,3,0,1,X V Q F H G B L J M P D K C T S W R N Z,60b7bb77c573c1a28d072811,23,Mężczyzna,2022-06-25_15h32.00.470,task,2021.1.4,Win32,60.0348202,6299f149e92ead563fba08ef,62b70e46f66b8c0ed63fc260,,,,,,,,,,,,,,,,,,,,,,,,,,,,,,,,,,,,,,,,,,,,,,,,,,,,,,,,,,,,,,,,,,,,,,,,,,,,,,,,,,,,,,,,,,,,,,,,,,,,,
,,,,,,,,,,,,60b7bb77c573c1a28d072811,23,Mężczyzna,2022-06-25_15h32.00.470,task,2021.1.4,Win32,60.0348202,6299f149e92ead563fba08ef,62b70e46f66b8c0ed63fc260,xqzb,"[""x"",""q"",""z"",""b""]","[0.515299999997012,0.563999999999993,0.8430999999940383,1.2670999999940307,1.61099999999999]",1,XQZB,4,0,4,0,1,,,,,,,,,,,,,,,,,,,,,,,,,,,,,,,,,,,,,,,,,,,,,,,,,,,,,,,,,,,,,,,,,,,,,,,,,,,,,,,,,,,,,,,,,,,
,,,,,,0,0,0,0,1,X V Q F H G B L J M P D K C T S W R N Z,60b7bb77c573c1a28d072811,23,Mężczyzna,2022-06-25_15h32.00.470,task,2021.1.4,Win32,60.0348202,6299f149e92ead563fba08ef,62b70e46f66b8c0ed63fc260,,,,,,,,,,,,,,,,,,,,,,,,,,,,,,,,,,,,,,,,,,,,,,,,,,,,,,,,,,,,,,,,,,,,,,,,,,,,,,,,,,,,,,,,,,,,,,,,,,,,,
,,,,,,1,0,1,0,1,X V Q F H G B L J M P D K C T S W R N Z,60b7bb77c573c1a28d072811,23,Mężczyzna,2022-06-25_15h32.00.470,task,2021.1.4,Win32,60.0348202,6299f149e92ead563fba08ef,62b70e46f66b8c0ed63fc260,,,,,,,,,,,,,,,,,,,,,,,,,,,,,,,,,,,,,,,,,,,,,,,,,,,,,,,,,,,,,,,,,,,,,,,,,,,,,,,,,,,,,,,,,,,,,,,,,,,,,
,,,,,,2,0,2,0,1,X V Q F H G B L J M P D K C T S W R N Z,60b7bb77c573c1a28d072811,23,Mężczyzna,2022-06-25_15h32.00.470,task,2021.1.4,Win32,60.0348202,6299f149e92ead563fba08ef,62b70e46f66b8c0ed63fc260,,,,,,,,,,,,,,,,,,,,,,,,,,,,,,,,,,,,,,,,,,,,,,,,,,,,,,,,,,,,,,,,,,,,,,,,,,,,,,,,,,,,,,,,,,,,,,,,,,,,,
,,,,,,3,0,3,0,1,X V Q F H G B L J M P D K C T S W R N Z,60b7bb77c573c1a28d072811,23,Mężczyzna,2022-06-25_15h32.00.470,task,2021.1.4,Win32,60.0348202,6299f149e92ead563fba08ef,62b70e46f66b8c0ed63fc260,,,,,,,,,,,,,,,,,,,,,,,,,,,,,,,,,,,,,,,,,,,,,,,,,,,,,,,,,,,,,,,,,,,,,,,,,,,,,,,,,,,,,,,,,,,,,,,,,,,,,
,,,,,,,,,,,,60b7bb77c573c1a28d072811,23,Mężczyzna,2022-06-25_15h32.00.470,task,2021.1.4,Win32,60.0348202,6299f149e92ead563fba08ef,62b70e46f66b8c0ed63fc260,rlpz,"[""r"",""l"",""p"",""z""]","[1.195999999999998,1.523100000008938,1.731499999999997,1.8991000000089429,2.0992000000029805]",1,RLPZ,5,0,5,0,1,,,,,,,,,,,,,,,,,,,,,,,,,,,,,,,,,,,,,,,,,,,,,,,,,,,,,,,,,,,,,,,,,,,,,,,,,,,,,,,,,,,,,,,,,,,
,,,,,,0,0,0,0,1,X V Q F H G B L J M P D K C T S W R N Z,60b7bb77c573c1a28d072811,23,Mężczyzna,2022-06-25_15h32.00.470,task,2021.1.4,Win32,60.0348202,6299f149e92ead563fba08ef,62b70e46f66b8c0ed63fc260,,,,,,,,,,,,,,,,,,,,,,,,,,,,,,,,,,,,,,,,,,,,,,,,,,,,,,,,,,,,,,,,,,,,,,,,,,,,,,,,,,,,,,,,,,,,,,,,,,,,,
,,,,,,1,0,1,0,1,X V Q F H G B L J M P D K C T S W R N Z,60b7bb77c573c1a28d072811,23,Mężczyzna,2022-06-25_15h32.00.470,task,2021.1.4,Win32,60.0348202,6299f149e92ead563fba08ef,62b70e46f66b8c0ed63fc260,,,,,,,,,,,,,,,,,,,,,,,,,,,,,,,,,,,,,,,,,,,,,,,,,,,,,,,,,,,,,,,,,,,,,,,,,,,,,,,,,,,,,,,,,,,,,,,,,,,,,
,,,,,,2,0,2,0,1,X V Q F H G B L J M P D K C T S W R N Z,60b7bb77c573c1a28d072811,23,Mężczyzna,2022-06-25_15h32.00.470,task,2021.1.4,Win32,60.0348202,6299f149e92ead563fba08ef,62b70e46f66b8c0ed63fc260,,,,,,,,,,,,,,,,,,,,,,,,,,,,,,,,,,,,,,,,,,,,,,,,,,,,,,,,,,,,,,,,,,,,,,,,,,,,,,,,,,,,,,,,,,,,,,,,,,,,,
,,,,,,3,0,3,0,1,X V Q F H G B L J M P D K C T S W R N Z,60b7bb77c573c1a28d072811,23,Mężczyzna,2022-06-25_15h32.00.470,task,2021.1.4,Win32,60.0348202,6299f149e92ead563fba08ef,62b70e46f66b8c0ed63fc260,,,,,,,,,,,,,,,,,,,,,,,,,,,,,,,,,,,,,,,,,,,,,,,,,,,,,,,,,,,,,,,,,,,,,,,,,,,,,,,,,,,,,,,,,,,,,,,,,,,,,
,,,,,,4,0,4,0,1,X V Q F H G B L J M P D K C T S W R N Z,60b7bb77c573c1a28d072811,23,Mężczyzna,2022-06-25_15h32.00.470,task,2021.1.4,Win32,60.0348202,6299f149e92ead563fba08ef,62b70e46f66b8c0ed63fc260,,,,,,,,,,,,,,,,,,,,,,,,,,,,,,,,,,,,,,,,,,,,,,,,,,,,,,,,,,,,,,,,,,,,,,,,,,,,,,,,,,,,,,,,,,,,,,,,,,,,,
,,,,,,,,,,,,60b7bb77c573c1a28d072811,23,Mężczyzna,2022-06-25_15h32.00.470,task,2021.1.4,Win32,60.0348202,6299f149e92ead563fba08ef,62b70e46f66b8c0ed63fc260,mmhxd,"[""m"",""m"",""h"",""x"",""d""]","[0.6184000000059626,0.7622000000030056,0.9862000000029951,1.4182999999970463,1.5782999999970428,1.715600000008962]",1,MMHXD,6,0,6,0,1,,,,,,,,,,,,,,,,,,,,,,,,,,,,,,,,,,,,,,,,,,,,,,,,,,,,,,,,,,,,,,,,,,,,,,,,,,,,,,,,,,,,,,,,,,,
,,,,,,0,0,0,0,1,X V Q F H G B L J M P D K C T S W R N Z,60b7bb77c573c1a28d072811,23,Mężczyzna,2022-06-25_15h32.00.470,task,2021.1.4,Win32,60.0348202,6299f149e92ead563fba08ef,62b70e46f66b8c0ed63fc260,,,,,,,,,,,,,,,,,,,,,,,,,,,,,,,,,,,,,,,,,,,,,,,,,,,,,,,,,,,,,,,,,,,,,,,,,,,,,,,,,,,,,,,,,,,,,,,,,,,,,
,,,,,,1,0,1,0,1,X V Q F H G B L J M P D K C T S W R N Z,60b7bb77c573c1a28d072811,23,Mężczyzna,2022-06-25_15h32.00.470,task,2021.1.4,Win32,60.0348202,6299f149e92ead563fba08ef,62b70e46f66b8c0ed63fc260,,,,,,,,,,,,,,,,,,,,,,,,,,,,,,,,,,,,,,,,,,,,,,,,,,,,,,,,,,,,,,,,,,,,,,,,,,,,,,,,,,,,,,,,,,,,,,,,,,,,,
,,,,,,2,0,2,0,1,X V Q F H G B L J M P D K C T S W R N Z,60b7bb77c573c1a28d072811,23,Mężczyzna,2022-06-25_15h32.00.470,task,2021.1.4,Win32,60.0348202,6299f149e92ead563fba08ef,62b70e46f66b8c0ed63fc260,,,,,,,,,,,,,,,,,,,,,,,,,,,,,,,,,,,,,,,,,,,,,,,,,,,,,,,,,,,,,,,,,,,,,,,,,,,,,,,,,,,,,,,,,,,,,,,,,,,,,
,,,,,,3,0,3,0,1,X V Q F H G B L J M P D K C T S W R N Z,60b7bb77c573c1a28d072811,23,Mężczyzna,2022-06-25_15h32.00.470,task,2021.1.4,Win32,60.0348202,6299f149e92ead563fba08ef,62b70e46f66b8c0ed63fc260,,,,,,,,,,,,,,,,,,,,,,,,,,,,,,,,,,,,,,,,,,,,,,,,,,,,,,,,,,,,,,,,,,,,,,,,,,,,,,,,,,,,,,,,,,,,,,,,,,,,,
,,,,,,4,0,4,0,1,X V Q F H G B L J M P D K C T S W R N Z,60b7bb77c573c1a28d072811,23,Mężczyzna,2022-06-25_15h32.00.470,task,2021.1.4,Win32,60.0348202,6299f149e92ead563fba08ef,62b70e46f66b8c0ed63fc260,,,,,,,,,,,,,,,,,,,,,,,,,,,,,,,,,,,,,,,,,,,,,,,,,,,,,,,,,,,,,,,,,,,,,,,,,,,,,,,,,,,,,,,,,,,,,,,,,,,,,
,,,,,,,,,,,,60b7bb77c573c1a28d072811,23,Mężczyzna,2022-06-25_15h32.00.470,task,2021.1.4,Win32,60.0348202,6299f149e92ead563fba08ef,62b70e46f66b8c0ed63fc260,ctwzz,"[""c"",""t"",""w"",""z"",""z""]","[4.024799999997015,4.489000000000004,4.657000000000011,4.913000000000011,5.082700000002973,5.304899999991051]",1,CTWZZ,7,0,7,0,1,,,,,,,,,,,,,,,,,,,,,,,,,,,,,,,,,,,,,,,,,,,,,,,,,,,,,,,,,,,,,,,,,,,,,,,,,,,,,,,,,,,,,,,,,,,
,,,,,,0,0,0,0,1,X V Q F H G B L J M P D K C T S W R N Z,60b7bb77c573c1a28d072811,23,Mężczyzna,2022-06-25_15h32.00.470,task,2021.1.4,Win32,60.0348202,6299f149e92ead563fba08ef,62b70e46f66b8c0ed63fc260,,,,,,,,,,,,,,,,,,,,,,,,,,,,,,,,,,,,,,,,,,,,,,,,,,,,,,,,,,,,,,,,,,,,,,,,,,,,,,,,,,,,,,,,,,,,,,,,,,,,,
,,,,,,1,0,1,0,1,X V Q F H G B L J M P D K C T S W R N Z,60b7bb77c573c1a28d072811,23,Mężczyzna,2022-06-25_15h32.00.470,task,2021.1.4,Win32,60.0348202,6299f149e92ead563fba08ef,62b70e46f66b8c0ed63fc260,,,,,,,,,,,,,,,,,,,,,,,,,,,,,,,,,,,,,,,,,,,,,,,,,,,,,,,,,,,,,,,,,,,,,,,,,,,,,,,,,,,,,,,,,,,,,,,,,,,,,
,,,,,,2,0,2,0,1,X V Q F H G B L J M P D K C T S W R N Z,60b7bb77c573c1a28d072811,23,Mężczyzna,2022-06-25_15h32.00.470,task,2021.1.4,Win32,60.0348202,6299f149e92ead563fba08ef,62b70e46f66b8c0ed63fc260,,,,,,,,,,,,,,,,,,,,,,,,,,,,,,,,,,,,,,,,,,,,,,,,,,,,,,,,,,,,,,,,,,,,,,,,,,,,,,,,,,,,,,,,,,,,,,,,,,,,,
,,,,,,3,0,3,0,1,X V Q F H G B L J M P D K C T S W R N Z,60b7bb77c573c1a28d072811,23,Mężczyzna,2022-06-25_15h32.00.470,task,2021.1.4,Win32,60.0348202,6299f149e92ead563fba08ef,62b70e46f66b8c0ed63fc260,,,,,,,,,,,,,,,,,,,,,,,,,,,,,,,,,,,,,,,,,,,,,,,,,,,,,,,,,,,,,,,,,,,,,,,,,,,,,,,,,,,,,,,,,,,,,,,,,,,,,
,,,,,,4,0,4,0,1,X V Q F H G B L J M P D K C T S W R N Z,60b7bb77c573c1a28d072811,23,Mężczyzna,2022-06-25_15h32.00.470,task,2021.1.4,Win32,60.0348202,6299f149e92ead563fba08ef,62b70e46f66b8c0ed63fc260,,,,,,,,,,,,,,,,,,,,,,,,,,,,,,,,,,,,,,,,,,,,,,,,,,,,,,,,,,,,,,,,,,,,,,,,,,,,,,,,,,,,,,,,,,,,,,,,,,,,,
,,,,,,5,0,5,0,1,X V Q F H G B L J M P D K C T S W R N Z,60b7bb77c573c1a28d072811,23,Mężczyzna,2022-06-25_15h32.00.470,task,2021.1.4,Win32,60.0348202,6299f149e92ead563fba08ef,62b70e46f66b8c0ed63fc260,,,,,,,,,,,,,,,,,,,,,,,,,,,,,,,,,,,,,,,,,,,,,,,,,,,,,,,,,,,,,,,,,,,,,,,,,,,,,,,,,,,,,,,,,,,,,,,,,,,,,
,,,,,,,,,,,,60b7bb77c573c1a28d072811,23,Mężczyzna,2022-06-25_15h32.00.470,task,2021.1.4,Win32,60.0348202,6299f149e92ead563fba08ef,62b70e46f66b8c0ed63fc260,nbxgtx,"[""n"",""b"",""x"",""g"",""t"",""x""]","[1.6169999999999902,2.125799999997014,2.3504000000059477,2.6694999999999993,2.829499999999996,3.0004000000059534,3.4375]",1,NBXGTX,8,0,8,0,1,,,,,,,,,,,,,,,,,,,,,,,,,,,,,,,,,,,,,,,,,,,,,,,,,,,,,,,,,,,,,,,,,,,,,,,,,,,,,,,,,,,,,,,,,,,
,,,,,,0,0,0,0,1,X V Q F H G B L J M P D K C T S W R N Z,60b7bb77c573c1a28d072811,23,Mężczyzna,2022-06-25_15h32.00.470,task,2021.1.4,Win32,60.0348202,6299f149e92ead563fba08ef,62b70e46f66b8c0ed63fc260,,,,,,,,,,,,,,,,,,,,,,,,,,,,,,,,,,,,,,,,,,,,,,,,,,,,,,,,,,,,,,,,,,,,,,,,,,,,,,,,,,,,,,,,,,,,,,,,,,,,,
,,,,,,1,0,1,0,1,X V Q F H G B L J M P D K C T S W R N Z,60b7bb77c573c1a28d072811,23,Mężczyzna,2022-06-25_15h32.00.470,task,2021.1.4,Win32,60.0348202,6299f149e92ead563fba08ef,62b70e46f66b8c0ed63fc260,,,,,,,,,,,,,,,,,,,,,,,,,,,,,,,,,,,,,,,,,,,,,,,,,,,,,,,,,,,,,,,,,,,,,,,,,,,,,,,,,,,,,,,,,,,,,,,,,,,,,
,,,,,,2,0,2,0,1,X V Q F H G B L J M P D K C T S W R N Z,60b7bb77c573c1a28d072811,23,Mężczyzna,2022-06-25_15h32.00.470,task,2021.1.4,Win32,60.0348202,6299f149e92ead563fba08ef,62b70e46f66b8c0ed63fc260,,,,,,,,,,,,,,,,,,,,,,,,,,,,,,,,,,,,,,,,,,,,,,,,,,,,,,,,,,,,,,,,,,,,,,,,,,,,,,,,,,,,,,,,,,,,,,,,,,,,,
,,,,,,3,0,3,0,1,X V Q F H G B L J M P D K C T S W R N Z,60b7bb77c573c1a28d072811,23,Mężczyzna,2022-06-25_15h32.00.470,task,2021.1.4,Win32,60.0348202,6299f149e92ead563fba08ef,62b70e46f66b8c0ed63fc260,,,,,,,,,,,,,,,,,,,,,,,,,,,,,,,,,,,,,,,,,,,,,,,,,,,,,,,,,,,,,,,,,,,,,,,,,,,,,,,,,,,,,,,,,,,,,,,,,,,,,
,,,,,,4,0,4,0,1,X V Q F H G B L J M P D K C T S W R N Z,60b7bb77c573c1a28d072811,23,Mężczyzna,2022-06-25_15h32.00.470,task,2021.1.4,Win32,60.0348202,6299f149e92ead563fba08ef,62b70e46f66b8c0ed63fc260,,,,,,,,,,,,,,,,,,,,,,,,,,,,,,,,,,,,,,,,,,,,,,,,,,,,,,,,,,,,,,,,,,,,,,,,,,,,,,,,,,,,,,,,,,,,,,,,,,,,,
,,,,,,5,0,5,0,1,X V Q F H G B L J M P D K C T S W R N Z,60b7bb77c573c1a28d072811,23,Mężczyzna,2022-06-25_15h32.00.470,task,2021.1.4,Win32,60.0348202,6299f149e92ead563fba08ef,62b70e46f66b8c0ed63fc260,,,,,,,,,,,,,,,,,,,,,,,,,,,,,,,,,,,,,,,,,,,,,,,,,,,,,,,,,,,,,,,,,,,,,,,,,,,,,,,,,,,,,,,,,,,,,,,,,,,,,
,,,,,,,,,,,,60b7bb77c573c1a28d072811,23,Mężczyzna,2022-06-25_15h32.00.470,task,2021.1.4,Win32,60.0348202,6299f149e92ead563fba08ef,62b70e46f66b8c0ed63fc260,cclnqj,"[""c"",""c"",""l"",""n"",""q"",""j""]","[0.9002999999970314,1.0510000000000161,2.40300000000002,2.78360000000896,3.1171000000089464,3.2336000000089484,3.5002999999970257]",1,CCLNQJ,9,0,9,0,1,,,,,,,,,,,,,,,,,,,,,,,,,,,,,,,,,,,,,,,,,,,,,,,,,,,,,,,,,,,,,,,,,,,,,,,,,,,,,,,,,,,,,,,,,,,
,,,,,,0,0,0,0,1,X V Q F H G B L J M P D K C T S W R N Z,60b7bb77c573c1a28d072811,23,Mężczyzna,2022-06-25_15h32.00.470,task,2021.1.4,Win32,60.0348202,6299f149e92ead563fba08ef,62b70e46f66b8c0ed63fc260,,,,,,,,,,,,,,,,,,,,,,,,,,,,,,,,,,,,,,,,,,,,,,,,,,,,,,,,,,,,,,,,,,,,,,,,,,,,,,,,,,,,,,,,,,,,,,,,,,,,,
,,,,,,1,0,1,0,1,X V Q F H G B L J M P D K C T S W R N Z,60b7bb77c573c1a28d072811,23,Mężczyzna,2022-06-25_15h32.00.470,task,2021.1.4,Win32,60.0348202,6299f149e92ead563fba08ef,62b70e46f66b8c0ed63fc260,,,,,,,,,,,,,,,,,,,,,,,,,,,,,,,,,,,,,,,,,,,,,,,,,,,,,,,,,,,,,,,,,,,,,,,,,,,,,,,,,,,,,,,,,,,,,,,,,,,,,
,,,,,,2,0,2,0,1,X V Q F H G B L J M P D K C T S W R N Z,60b7bb77c573c1a28d072811,23,Mężczyzna,2022-06-25_15h32.00.470,task,2021.1.4,Win32,60.0348202,6299f149e92ead563fba08ef,62b70e46f66b8c0ed63fc260,,,,,,,,,,,,,,,,,,,,,,,,,,,,,,,,,,,,,,,,,,,,,,,,,,,,,,,,,,,,,,,,,,,,,,,,,,,,,,,,,,,,,,,,,,,,,,,,,,,,,
,,,,,,3,0,3,0,1,X V Q F H G B L J M P D K C T S W R N Z,60b7bb77c573c1a28d072811,23,Mężczyzna,2022-06-25_15h32.00.470,task,2021.1.4,Win32,60.0348202,6299f149e92ead563fba08ef,62b70e46f66b8c0ed63fc260,,,,,,,,,,,,,,,,,,,,,,,,,,,,,,,,,,,,,,,,,,,,,,,,,,,,,,,,,,,,,,,,,,,,,,,,,,,,,,,,,,,,,,,,,,,,,,,,,,,,,
,,,,,,4,0,4,0,1,X V Q F H G B L J M P D K C T S W R N Z,60b7bb77c573c1a28d072811,23,Mężczyzna,2022-06-25_15h32.00.470,task,2021.1.4,Win32,60.0348202,6299f149e92ead563fba08ef,62b70e46f66b8c0ed63fc260,,,,,,,,,,,,,,,,,,,,,,,,,,,,,,,,,,,,,,,,,,,,,,,,,,,,,,,,,,,,,,,,,,,,,,,,,,,,,,,,,,,,,,,,,,,,,,,,,,,,,
,,,,,,5,0,5,0,1,X V Q F H G B L J M P D K C T S W R N Z,60b7bb77c573c1a28d072811,23,Mężczyzna,2022-06-25_15h32.00.470,task,2021.1.4,Win32,60.0348202,6299f149e92ead563fba08ef,62b70e46f66b8c0ed63fc260,,,,,,,,,,,,,,,,,,,,,,,,,,,,,,,,,,,,,,,,,,,,,,,,,,,,,,,,,,,,,,,,,,,,,,,,,,,,,,,,,,,,,,,,,,,,,,,,,,,,,
,,,,,,6,0,6,0,1,X V Q F H G B L J M P D K C T S W R N Z,60b7bb77c573c1a28d072811,23,Mężczyzna,2022-06-25_15h32.00.470,task,2021.1.4,Win32,60.0348202,6299f149e92ead563fba08ef,62b70e46f66b8c0ed63fc260,,,,,,,,,,,,,,,,,,,,,,,,,,,,,,,,,,,,,,,,,,,,,,,,,,,,,,,,,,,,,,,,,,,,,,,,,,,,,,,,,,,,,,,,,,,,,,,,,,,,,
,,,,,,,,,,,,60b7bb77c573c1a28d072811,23,Mężczyzna,2022-06-25_15h32.00.470,task,2021.1.4,Win32,60.0348202,6299f149e92ead563fba08ef,62b70e46f66b8c0ed63fc260,hmgnrms,"[""h"",""m"",""g"",""n"",""r"",""m"",""s""]","[0.9169000000059668,1.1220999999940489,2.5060000000000002,2.8337000000029775,3.967000000000013,4.133700000002989,4.322000000000003,4.889900000005952]",1,HMGNRMS,10,0,10,0,1,,,,,,,,,,,,,,,,,,,,,,,,,,,,,,,,,,,,,,,,,,,,,,,,,,,,,,,,,,,,,,,,,,,,,,,,,,,,,,,,,,,,,,,,,,,
,,,,,,0,0,0,0,1,X V Q F H G B L J M P D K C T S W R N Z,60b7bb77c573c1a28d072811,23,Mężczyzna,2022-06-25_15h32.00.470,task,2021.1.4,Win32,60.0348202,6299f149e92ead563fba08ef,62b70e46f66b8c0ed63fc260,,,,,,,,,,,,,,,,,,,,,,,,,,,,,,,,,,,,,,,,,,,,,,,,,,,,,,,,,,,,,,,,,,,,,,,,,,,,,,,,,,,,,,,,,,,,,,,,,,,,,
,,,,,,1,0,1,0,1,X V Q F H G B L J M P D K C T S W R N Z,60b7bb77c573c1a28d072811,23,Mężczyzna,2022-06-25_15h32.00.470,task,2021.1.4,Win32,60.0348202,6299f149e92ead563fba08ef,62b70e46f66b8c0ed63fc260,,,,,,,,,,,,,,,,,,,,,,,,,,,,,,,,,,,,,,,,,,,,,,,,,,,,,,,,,,,,,,,,,,,,,,,,,,,,,,,,,,,,,,,,,,,,,,,,,,,,,
,,,,,,2,0,2,0,1,X V Q F H G B L J M P D K C T S W R N Z,60b7bb77c573c1a28d072811,23,Mężczyzna,2022-06-25_15h32.00.470,task,2021.1.4,Win32,60.0348202,6299f149e92ead563fba08ef,62b70e46f66b8c0ed63fc260,,,,,,,,,,,,,,,,,,,,,,,,,,,,,,,,,,,,,,,,,,,,,,,,,,,,,,,,,,,,,,,,,,,,,,,,,,,,,,,,,,,,,,,,,,,,,,,,,,,,,
,,,,,,3,0,3,0,1,X V Q F H G B L J M P D K C T S W R N Z,60b7bb77c573c1a28d072811,23,Mężczyzna,2022-06-25_15h32.00.470,task,2021.1.4,Win32,60.0348202,6299f149e92ead563fba08ef,62b70e46f66b8c0ed63fc260,,,,,,,,,,,,,,,,,,,,,,,,,,,,,,,,,,,,,,,,,,,,,,,,,,,,,,,,,,,,,,,,,,,,,,,,,,,,,,,,,,,,,,,,,,,,,,,,,,,,,
,,,,,,4,0,4,0,1,X V Q F H G B L J M P D K C T S W R N Z,60b7bb77c573c1a28d072811,23,Mężczyzna,2022-06-25_15h32.00.470,task,2021.1.4,Win32,60.0348202,6299f149e92ead563fba08ef,62b70e46f66b8c0ed63fc260,,,,,,,,,,,,,,,,,,,,,,,,,,,,,,,,,,,,,,,,,,,,,,,,,,,,,,,,,,,,,,,,,,,,,,,,,,,,,,,,,,,,,,,,,,,,,,,,,,,,,
,,,,,,5,0,5,0,1,X V Q F H G B L J M P D K C T S W R N Z,60b7bb77c573c1a28d072811,23,Mężczyzna,2022-06-25_15h32.00.470,task,2021.1.4,Win32,60.0348202,6299f149e92ead563fba08ef,62b70e46f66b8c0ed63fc260,,,,,,,,,,,,,,,,,,,,,,,,,,,,,,,,,,,,,,,,,,,,,,,,,,,,,,,,,,,,,,,,,,,,,,,,,,,,,,,,,,,,,,,,,,,,,,,,,,,,,
,,,,,,6,0,6,0,1,X V Q F H G B L J M P D K C T S W R N Z,60b7bb77c573c1a28d072811,23,Mężczyzna,2022-06-25_15h32.00.470,task,2021.1.4,Win32,60.0348202,6299f149e92ead563fba08ef,62b70e46f66b8c0ed63fc260,,,,,,,,,,,,,,,,,,,,,,,,,,,,,,,,,,,,,,,,,,,,,,,,,,,,,,,,,,,,,,,,,,,,,,,,,,,,,,,,,,,,,,,,,,,,,,,,,,,,,
,,,,,,,,,,,,60b7bb77c573c1a28d072811,23,Mężczyzna,2022-06-25_15h32.00.470,task,2021.1.4,Win32,60.0348202,6299f149e92ead563fba08ef,62b70e46f66b8c0ed63fc260,npflwsk,"[""n"",""p"",""f"",""l"",""w"",""s"",""k""]","[1.0002999999970257,1.4014999999999986,1.5854999999999961,2.150399999991066,2.329499999999996,2.6337999999970236,2.8170000000000073,3.2892999999970414]",1,NPFLWSK,11,0,11,0,1,,,,,,,,,,,,,,,,,,,,,,,,,,,,,,,,,,,,,,,,,,,,,,,,,,,,,,,,,,,,,,,,,,,,,,,,,,,,,,,,,,,,,,,,,,,
,,,,,,0,0,0,0,1,X V Q F H G B L J M P D K C T S W R N Z,60b7bb77c573c1a28d072811,23,Mężczyzna,2022-06-25_15h32.00.470,task,2021.1.4,Win32,60.0348202,6299f149e92ead563fba08ef,62b70e46f66b8c0ed63fc260,,,,,,,,,,,,,,,,,,,,,,,,,,,,,,,,,,,,,,,,,,,,,,,,,,,,,,,,,,,,,,,,,,,,,,,,,,,,,,,,,,,,,,,,,,,,,,,,,,,,,
,,,,,,1,0,1,0,1,X V Q F H G B L J M P D K C T S W R N Z,60b7bb77c573c1a28d072811,23,Mężczyzna,2022-06-25_15h32.00.470,task,2021.1.4,Win32,60.0348202,6299f149e92ead563fba08ef,62b70e46f66b8c0ed63fc260,,,,,,,,,,,,,,,,,,,,,,,,,,,,,,,,,,,,,,,,,,,,,,,,,,,,,,,,,,,,,,,,,,,,,,,,,,,,,,,,,,,,,,,,,,,,,,,,,,,,,
,,,,,,2,0,2,0,1,X V Q F H G B L J M P D K C T S W R N Z,60b7bb77c573c1a28d072811,23,Mężczyzna,2022-06-25_15h32.00.470,task,2021.1.4,Win32,60.0348202,6299f149e92ead563fba08ef,62b70e46f66b8c0ed63fc260,,,,,,,,,,,,,,,,,,,,,,,,,,,,,,,,,,,,,,,,,,,,,,,,,,,,,,,,,,,,,,,,,,,,,,,,,,,,,,,,,,,,,,,,,,,,,,,,,,,,,
,,,,,,3,0,3,0,1,X V Q F H G B L J M P D K C T S W R N Z,60b7bb77c573c1a28d072811,23,Mężczyzna,2022-06-25_15h32.00.470,task,2021.1.4,Win32,60.0348202,6299f149e92ead563fba08ef,62b70e46f66b8c0ed63fc260,,,,,,,,,,,,,,,,,,,,,,,,,,,,,,,,,,,,,,,,,,,,,,,,,,,,,,,,,,,,,,,,,,,,,,,,,,,,,,,,,,,,,,,,,,,,,,,,,,,,,
,,,,,,4,0,4,0,1,X V Q F H G B L J M P D K C T S W R N Z,60b7bb77c573c1a28d072811,23,Mężczyzna,2022-06-25_15h32.00.470,task,2021.1.4,Win32,60.0348202,6299f149e92ead563fba08ef,62b70e46f66b8c0ed63fc260,,,,,,,,,,,,,,,,,,,,,,,,,,,,,,,,,,,,,,,,,,,,,,,,,,,,,,,,,,,,,,,,,,,,,,,,,,,,,,,,,,,,,,,,,,,,,,,,,,,,,
,,,,,,5,0,5,0,1,X V Q F H G B L J M P D K C T S W R N Z,60b7bb77c573c1a28d072811,23,Mężczyzna,2022-06-25_15h32.00.470,task,2021.1.4,Win32,60.0348202,6299f149e92ead563fba08ef,62b70e46f66b8c0ed63fc260,,,,,,,,,,,,,,,,,,,,,,,,,,,,,,,,,,,,,,,,,,,,,,,,,,,,,,,,,,,,,,,,,,,,,,,,,,,,,,,,,,,,,,,,,,,,,,,,,,,,,
,,,,,,6,0,6,0,1,X V Q F H G B L J M P D K C T S W R N Z,60b7bb77c573c1a28d072811,23,Mężczyzna,2022-06-25_15h32.00.470,task,2021.1.4,Win32,60.0348202,6299f149e92ead563fba08ef,62b70e46f66b8c0ed63fc260,,,,,,,,,,,,,,,,,,,,,,,,,,,,,,,,,,,,,,,,,,,,,,,,,,,,,,,,,,,,,,,,,,,,,,,,,,,,,,,,,,,,,,,,,,,,,,,,,,,,,
,,,,,,7,0,7,0,1,X V Q F H G B L J M P D K C T S W R N Z,60b7bb77c573c1a28d072811,23,Mężczyzna,2022-06-25_15h32.00.470,task,2021.1.4,Win32,60.0348202,6299f149e92ead563fba08ef,62b70e46f66b8c0ed63fc260,,,,,,,,,,,,,,,,,,,,,,,,,,,,,,,,,,,,,,,,,,,,,,,,,,,,,,,,,,,,,,,,,,,,,,,,,,,,,,,,,,,,,,,,,,,,,,,,,,,,,
,,,,,,,,,,,,60b7bb77c573c1a28d072811,23,Mężczyzna,2022-06-25_15h32.00.470,task,2021.1.4,Win32,60.0348202,6299f149e92ead563fba08ef,62b70e46f66b8c0ed63fc260,htzvfrzk,"[""h"",""t"",""z"",""v"",""f"",""r"",""z"",""k""]","[0.9808999999910668,1.1645999999940386,1.433799999997035,2.3335999999940498,2.96459999999405,3.1335999999940327,3.3645999999940273,3.4925999999940416,3.6205999999940275]",0,HTZVFRHL,12,0,12,0,1,,,,,,,,,,,,,,,,,,,,,,,,,,,,,,,,,,,,,,,,,,,,,,,,,,,,,,,,,,,,,,,,,,,,,,,,,,,,,,,,,,,,,,,,,,,
,,,,,,0,0,0,0,1,X V Q F H G B L J M P D K C T S W R N Z,60b7bb77c573c1a28d072811,23,Mężczyzna,2022-06-25_15h32.00.470,task,2021.1.4,Win32,60.0348202,6299f149e92ead563fba08ef,62b70e46f66b8c0ed63fc260,,,,,,,,,,,,,,,,,,,,,,,,,,,,,,,,,,,,,,,,,,,,,,,,,,,,,,,,,,,,,,,,,,,,,,,,,,,,,,,,,,,,,,,,,,,,,,,,,,,,,
,,,,,,1,0,1,0,1,X V Q F H G B L J M P D K C T S W R N Z,60b7bb77c573c1a28d072811,23,Mężczyzna,2022-06-25_15h32.00.470,task,2021.1.4,Win32,60.0348202,6299f149e92ead563fba08ef,62b70e46f66b8c0ed63fc260,,,,,,,,,,,,,,,,,,,,,,,,,,,,,,,,,,,,,,,,,,,,,,,,,,,,,,,,,,,,,,,,,,,,,,,,,,,,,,,,,,,,,,,,,,,,,,,,,,,,,
,,,,,,2,0,2,0,1,X V Q F H G B L J M P D K C T S W R N Z,60b7bb77c573c1a28d072811,23,Mężczyzna,2022-06-25_15h32.00.470,task,2021.1.4,Win32,60.0348202,6299f149e92ead563fba08ef,62b70e46f66b8c0ed63fc260,,,,,,,,,,,,,,,,,,,,,,,,,,,,,,,,,,,,,,,,,,,,,,,,,,,,,,,,,,,,,,,,,,,,,,,,,,,,,,,,,,,,,,,,,,,,,,,,,,,,,
,,,,,,3,0,3,0,1,X V Q F H G B L J M P D K C T S W R N Z,60b7bb77c573c1a28d072811,23,Mężczyzna,2022-06-25_15h32.00.470,task,2021.1.4,Win32,60.0348202,6299f149e92ead563fba08ef,62b70e46f66b8c0ed63fc260,,,,,,,,,,,,,,,,,,,,,,,,,,,,,,,,,,,,,,,,,,,,,,,,,,,,,,,,,,,,,,,,,,,,,,,,,,,,,,,,,,,,,,,,,,,,,,,,,,,,,
,,,,,,4,0,4,0,1,X V Q F H G B L J M P D K C T S W R N Z,60b7bb77c573c1a28d072811,23,Mężczyzna,2022-06-25_15h32.00.470,task,2021.1.4,Win32,60.0348202,6299f149e92ead563fba08ef,62b70e46f66b8c0ed63fc260,,,,,,,,,,,,,,,,,,,,,,,,,,,,,,,,,,,,,,,,,,,,,,,,,,,,,,,,,,,,,,,,,,,,,,,,,,,,,,,,,,,,,,,,,,,,,,,,,,,,,
,,,,,,5,0,5,0,1,X V Q F H G B L J M P D K C T S W R N Z,60b7bb77c573c1a28d072811,23,Mężczyzna,2022-06-25_15h32.00.470,task,2021.1.4,Win32,60.0348202,6299f149e92ead563fba08ef,62b70e46f66b8c0ed63fc260,,,,,,,,,,,,,,,,,,,,,,,,,,,,,,,,,,,,,,,,,,,,,,,,,,,,,,,,,,,,,,,,,,,,,,,,,,,,,,,,,,,,,,,,,,,,,,,,,,,,,
,,,,,,6,0,6,0,1,X V Q F H G B L J M P D K C T S W R N Z,60b7bb77c573c1a28d072811,23,Mężczyzna,2022-06-25_15h32.00.470,task,2021.1.4,Win32,60.0348202,6299f149e92ead563fba08ef,62b70e46f66b8c0ed63fc260,,,,,,,,,,,,,,,,,,,,,,,,,,,,,,,,,,,,,,,,,,,,,,,,,,,,,,,,,,,,,,,,,,,,,,,,,,,,,,,,,,,,,,,,,,,,,,,,,,,,,
,,,,,,7,0,7,0,1,X V Q F H G B L J M P D K C T S W R N Z,60b7bb77c573c1a28d072811,23,Mężczyzna,2022-06-25_15h32.00.470,task,2021.1.4,Win32,60.0348202,6299f149e92ead563fba08ef,62b70e46f66b8c0ed63fc260,,,,,,,,,,,,,,,,,,,,,,,,,,,,,,,,,,,,,,,,,,,,,,,,,,,,,,,,,,,,,,,,,,,,,,,,,,,,,,,,,,,,,,,,,,,,,,,,,,,,,
,,,,,,,,,,,,60b7bb77c573c1a28d072811,23,Mężczyzna,2022-06-25_15h32.00.470,task,2021.1.4,Win32,60.0348202,6299f149e92ead563fba08ef,62b70e46f66b8c0ed63fc260,vdgxxfjg,"[""v"",""d"",""g"",""x"",""x"",""f"",""j"",""g""]","[1.3300000000000125,1.9777999999970177,2.5777999999970405,3.625700000002979,4.769799999997019,5.465799999997017,5.633700000002989,5.825999999999993,6.089799999997041]",0,VDGXXFJH,13,0,13,0,1,,,,,,,,,,,,,,,,,,,,,,,,,,,,,,,,,,,,,,,,,,,,,,,,,,,,,,,,,,,,,,,,,,,,,,,,,,,,,,,,,,,,,,,,,,,
,,,,,,0,0,0,0,1,X V Q F H G B L J M P D K C T S W R N Z,60b7bb77c573c1a28d072811,23,Mężczyzna,2022-06-25_15h32.00.470,task,2021.1.4,Win32,60.0348202,6299f149e92ead563fba08ef,62b70e46f66b8c0ed63fc260,,,,,,,,,,,,,,,,,,,,,,,,,,,,,,,,,,,,,,,,,,,,,,,,,,,,,,,,,,,,,,,,,,,,,,,,,,,,,,,,,,,,,,,,,,,,,,,,,,,,,
,,,,,,1,0,1,0,1,X V Q F H G B L J M P D K C T S W R N Z,60b7bb77c573c1a28d072811,23,Mężczyzna,2022-06-25_15h32.00.470,task,2021.1.4,Win32,60.0348202,6299f149e92ead563fba08ef,62b70e46f66b8c0ed63fc260,,,,,,,,,,,,,,,,,,,,,,,,,,,,,,,,,,,,,,,,,,,,,,,,,,,,,,,,,,,,,,,,,,,,,,,,,,,,,,,,,,,,,,,,,,,,,,,,,,,,,
,,,,,,2,0,2,0,1,X V Q F H G B L J M P D K C T S W R N Z,60b7bb77c573c1a28d072811,23,Mężczyzna,2022-06-25_15h32.00.470,task,2021.1.4,Win32,60.0348202,6299f149e92ead563fba08ef,62b70e46f66b8c0ed63fc260,,,,,,,,,,,,,,,,,,,,,,,,,,,,,,,,,,,,,,,,,,,,,,,,,,,,,,,,,,,,,,,,,,,,,,,,,,,,,,,,,,,,,,,,,,,,,,,,,,,,,
,,,,,,3,0,3,0,1,X V Q F H G B L J M P D K C T S W R N Z,60b7bb77c573c1a28d072811,23,Mężczyzna,2022-06-25_15h32.00.470,task,2021.1.4,Win32,60.0348202,6299f149e92ead563fba08ef,62b70e46f66b8c0ed63fc260,,,,,,,,,,,,,,,,,,,,,,,,,,,,,,,,,,,,,,,,,,,,,,,,,,,,,,,,,,,,,,,,,,,,,,,,,,,,,,,,,,,,,,,,,,,,,,,,,,,,,
,,,,,,4,0,4,0,1,X V Q F H G B L J M P D K C T S W R N Z,60b7bb77c573c1a28d072811,23,Mężczyzna,2022-06-25_15h32.00.470,task,2021.1.4,Win32,60.0348202,6299f149e92ead563fba08ef,62b70e46f66b8c0ed63fc260,,,,,,,,,,,,,,,,,,,,,,,,,,,,,,,,,,,,,,,,,,,,,,,,,,,,,,,,,,,,,,,,,,,,,,,,,,,,,,,,,,,,,,,,,,,,,,,,,,,,,
,,,,,,5,0,5,0,1,X V Q F H G B L J M P D K C T S W R N Z,60b7bb77c573c1a28d072811,23,Mężczyzna,2022-06-25_15h32.00.470,task,2021.1.4,Win32,60.0348202,6299f149e92ead563fba08ef,62b70e46f66b8c0ed63fc260,,,,,,,,,,,,,,,,,,,,,,,,,,,,,,,,,,,,,,,,,,,,,,,,,,,,,,,,,,,,,,,,,,,,,,,,,,,,,,,,,,,,,,,,,,,,,,,,,,,,,
,,,,,,6,0,6,0,1,X V Q F H G B L J M P D K C T S W R N Z,60b7bb77c573c1a28d072811,23,Mężczyzna,2022-06-25_15h32.00.470,task,2021.1.4,Win32,60.0348202,6299f149e92ead563fba08ef,62b70e46f66b8c0ed63fc260,,,,,,,,,,,,,,,,,,,,,,,,,,,,,,,,,,,,,,,,,,,,,,,,,,,,,,,,,,,,,,,,,,,,,,,,,,,,,,,,,,,,,,,,,,,,,,,,,,,,,
,,,,,,7,0,7,0,1,X V Q F H G B L J M P D K C T S W R N Z,60b7bb77c573c1a28d072811,23,Mężczyzna,2022-06-25_15h32.00.470,task,2021.1.4,Win32,60.0348202,6299f149e92ead563fba08ef,62b70e46f66b8c0ed63fc260,,,,,,,,,,,,,,,,,,,,,,,,,,,,,,,,,,,,,,,,,,,,,,,,,,,,,,,,,,,,,,,,,,,,,,,,,,,,,,,,,,,,,,,,,,,,,,,,,,,,,
,,,,,,,,,,,,60b7bb77c573c1a28d072811,23,Mężczyzna,2022-06-25_15h32.00.470,task,2021.1.4,Win32,60.0348202,6299f149e92ead563fba08ef,62b70e46f66b8c0ed63fc260,bxzpqwsb,"[""b"",""x"",""z"",""p"",""q"",""w"",""s"",""b""]","[1.0541000000089298,2.3899000000059516,3.0699000000059584,3.253800000011921,4.133800000011917,4.437800000011919,4.693800000011919,5.293900000005948,5.445700000002972]",0,BXZBQWSP,14,0,14,0,1,,,,,,,,,,,,,,,,,,,,,,,,,,,,,,,,,,,,,,,,,,,,,,,,,,,,,,,,,,,,,,,,,,,,,,,,,,,,,,,,,,,,,,,,,,,
,,,,,,,,,,,,60b7bb77c573c1a28d072811,23,Mężczyzna,2022-06-25_15h32.00.470,task,2021.1.4,Win32,60.0348202,6299f149e92ead563fba08ef,62b70e46f66b8c0ed63fc260,,,,,,,,,,,space,6.7364,5,"[""5""]",1,[2.648900000005966],[2.648900000005966],0,0,0,5,1,Practice,6,(4/2) + 3,5,,,,,,,,,,,,,,,,,,,,,,,,,,,,,,,,,,,,,,,,,,,,,,,,,,,,,,,,,,,,,,,,,,,,,,,,,,,
,,,,,,,,,,,,60b7bb77c573c1a28d072811,23,Mężczyzna,2022-06-25_15h32.00.470,task,2021.1.4,Win32,60.0348202,6299f149e92ead563fba08ef,62b70e46f66b8c0ed63fc260,,,,,,,,,,,,,4,"[""4""]",1,[1.8490999999940527],"[2.648900000005966,1.8490999999940527]",0,1,1,4,1,Practice,5,(2x6) - 8,4,,,,,,,,,,,,,,,,,,,,,,,,,,,,,,,,,,,,,,,,,,,,,,,,,,,,,,,,,,,,,,,,,,,,,,,,,,,
,,,,,,,,,,,,60b7bb77c573c1a28d072811,23,Mężczyzna,2022-06-25_15h32.00.470,task,2021.1.4,Win32,60.0348202,6299f149e92ead563fba08ef,62b70e46f66b8c0ed63fc260,,,,,,,,,,,,,1,"[""1""]",1,[1.0749999999999886],"[2.648900000005966,1.8490999999940527,1.0749999999999886]",0,2,2,1,1,Practice,2,(4x4) - 15,1,,,,,,,,,,,,,,,,,,,,,,,,,,,,,,,,,,,,,,,,,,,,,,,,,,,,,,,,,,,,,,,,,,,,,,,,,,,
,,,,,,,,,,,,60b7bb77c573c1a28d072811,23,Mężczyzna,2022-06-25_15h32.00.470,task,2021.1.4,Win32,60.0348202,6299f149e92ead563fba08ef,62b70e46f66b8c0ed63fc260,,,,,,,,,,,,,9,"[""9""]",1,[1.4665999999940595],"[2.648900000005966,1.8490999999940527,1.0749999999999886,1.4665999999940595]",0,3,3,9,1,Practice,10,(20/2) - 1,9,,,,,,,,,,,,,,,,,,,,,,,,,,,,,,,,,,,,,,,,,,,,,,,,,,,,,,,,,,,,,,,,,,,,,,,,,,,
,,,,,,,,,,,,60b7bb77c573c1a28d072811,23,Mężczyzna,2022-06-25_15h32.00.470,task,2021.1.4,Win32,60.0348202,6299f149e92ead563fba08ef,62b70e46f66b8c0ed63fc260,,,,,,,,,,,,,7,"[""7""]",1,[1.5414000000059787],"[2.648900000005966,1.8490999999940527,1.0749999999999886,1.4665999999940595,1.5414000000059787]",0,4,4,7,1,Practice,8,(5x5) - 18,7,,,,,,,,,,,,,,,,,,,,,,,,,,,,,,,,,,,,,,,,,,,,,,,,,,,,,,,,,,,,,,,,,,,,,,,,,,,
,,,,,,,,,,,,60b7bb77c573c1a28d072811,23,Mężczyzna,2022-06-25_15h32.00.470,task,2021.1.4,Win32,60.0348202,6299f149e92ead563fba08ef,62b70e46f66b8c0ed63fc260,,,,,,,,,,,,,6,"[""6""]",1,[1.5342999999970175],"[2.648900000005966,1.8490999999940527,1.0749999999999886,1.4665999999940595,1.5414000000059787,1.5342999999970175]",0,5,5,6,1,Practice,7,(25/5) + 1,6,,,,,,,,,,,,,,,,,,,,,,,,,,,,,,,,,,,,,,,,,,,,,,,,,,,,,,,,,,,,,,,,,,,,,,,,,,,
,,,,,,,,,,,,60b7bb77c573c1a28d072811,23,Mężczyzna,2022-06-25_15h32.00.470,task,2021.1.4,Win32,60.0348202,6299f149e92ead563fba08ef,62b70e46f66b8c0ed63fc260,,,,,,,,,,,,,0,"[""0""]",1,[1.3352000000029989],"[2.648900000005966,1.8490999999940527,1.0749999999999886,1.4665999999940595,1.5414000000059787,1.5342999999970175,1.3352000000029989]",0,6,6,0,1,Practice,1,(3x3) -  9,0,,,,,,,,,,,,,,,,,,,,,,,,,,,,,,,,,,,,,,,,,,,,,,,,,,,,,,,,,,,,,,,,,,,,,,,,,,,
,,,,,,,,,,,,60b7bb77c573c1a28d072811,23,Mężczyzna,2022-06-25_15h32.00.470,task,2021.1.4,Win32,60.0348202,6299f149e92ead563fba08ef,62b70e46f66b8c0ed63fc260,,,,,,,,,,,,,8,"[""8""]",1,[1.3690999999940345],"[2.648900000005966,1.8490999999940527,1.0749999999999886,1.4665999999940595,1.5414000000059787,1.5342999999970175,1.3352000000029989,1.3690999999940345]",0,7,7,8,1,Practice,9,(3x3) - 1,8,,,,,,,,,,,,,,,,,,,,,,,,,,,,,,,,,,,,,,,,,,,,,,,,,,,,,,,,,,,,,,,,,,,,,,,,,,,
,,,,,,,,,,,,60b7bb77c573c1a28d072811,23,Mężczyzna,2022-06-25_15h32.00.470,task,2021.1.4,Win32,60.0348202,6299f149e92ead563fba08ef,62b70e46f66b8c0ed63fc260,,,,,,,,,,,,,3,"[""3""]",1,[1.7930999999940127],"[2.648900000005966,1.8490999999940527,1.0749999999999886,1.4665999999940595,1.5414000000059787,1.5342999999970175,1.3352000000029989,1.3690999999940345,1.7930999999940127]",0,8,8,3,1,Practice,4,(8/4) + 1,3,,,,,,,,,,,,,,,,,,,,,,,,,,,,,,,,,,,,,,,,,,,,,,,,,,,,,,,,,,,,,,,,,,,,,,,,,,,
,,,,,,,,,,,,60b7bb77c573c1a28d072811,23,Mężczyzna,2022-06-25_15h32.00.470,task,2021.1.4,Win32,60.0348202,6299f149e92ead563fba08ef,62b70e46f66b8c0ed63fc260,,,,,,,,,,,,,2,"[""2""]",1,[1.4723000000118986],"[2.648900000005966,1.8490999999940527,1.0749999999999886,1.4665999999940595,1.5414000000059787,1.5342999999970175,1.3352000000029989,1.3690999999940345,1.7930999999940127,1.4723000000118986]",0,9,9,2,1,Practice,3,(4x4) - 14,2,,,,,,,,,,,,,,,,,,,,,,,,,,,,,,,,,,,,,,,,,,,,,,,,,,,,,,,,,,,,,,,,,,,,,,,,,,,
,,,,,,,,,,,,60b7bb77c573c1a28d072811,23,Mężczyzna,2022-06-25_15h32.00.470,task,2021.1.4,Win32,60.0348202,6299f149e92ead563fba08ef,62b70e46f66b8c0ed63fc260,,,,,,,,,,,,,,,,,,,,,,,,,,,1,16.085,1.072333333,4.514466224,0.548602237,2.487727106,space,1.0376,0,0,0,0,1,,,,,,,,,,,,,,,,,,,,,,,,,,,,,,,,,,,,,,,,,,,,,,,,,,,,,,,,,,,,,,
,,,,,,,,,,,,60b7bb77c573c1a28d072811,23,Mężczyzna,2022-06-25_15h32.00.470,task,2021.1.4,Win32,60.0348202,6299f149e92ead563fba08ef,62b70e46f66b8c0ed63fc260,,,,,,,,,,,,,3,,,,,,,,,,Practice,4,(8/4) + 1,3,,,,,,,,,,,,,,space,32.7355,"[""3""]",1,[1.5065999999940232],1,0,0,0,3,1,,,,,,,,,,,,,,,,,,,,,,,,,,,,,,,,,,,,,,,,,,,,,,,,,,,
,,,,,,,,,,,X V Q F H G B L J M P D K C T S W R N Z,60b7bb77c573c1a28d072811,23,Mężczyzna,2022-06-25_15h32.00.470,task,2021.1.4,Win32,60.0348202,6299f149e92ead563fba08ef,62b70e46f66b8c0ed63fc260,,,,,,,,,,,,,,,,,,,,,,,,,,,,,,,,,,,,,,,,,,,,,,,,,,,0,0,0,0,1,,,,,,,,,,,,,,,,,,,,,,,,,,,,,,,,,,,,,,,,,,,,,,
,,,,,,,,,,,,60b7bb77c573c1a28d072811,23,Mężczyzna,2022-06-25_15h32.00.470,task,2021.1.4,Win32,60.0348202,6299f149e92ead563fba08ef,62b70e46f66b8c0ed63fc260,,,,,,,,,,,,,,,,,,,,,,,Practice,5,(2x6) - 8,4,,,,,,,,,,,,,,,,,0,,0,0,0,0,4,1,,,,,,,,,,,,,,,,,,,,,,,,,,,,,,,,,,,,,,,,,,,,,,,,,,,
,,,,,,,,,,,,60b7bb77c573c1a28d072811,23,Mężczyzna,2022-06-25_15h32.00.470,task,2021.1.4,Win32,60.0348202,6299f149e92ead563fba08ef,62b70e46f66b8c0ed63fc260,,,,,,,,,,,,,7,,,,,,,,,,Practice,8,(5x5) - 18,7,,,,,,,,,,,,,,,,"[""7""]",1,[1.3919000000059327],1,0,1,1,7,1,,,,,,,,,,,,,,,,,,,,,,,,,,,,,,,,,,,,,,,,,,,,,,,,,,,
,,,,,,,,,,,X V Q F H G B L J M P D K C T S W R N Z,60b7bb77c573c1a28d072811,23,Mężczyzna,2022-06-25_15h32.00.470,task,2021.1.4,Win32,60.0348202,6299f149e92ead563fba08ef,62b70e46f66b8c0ed63fc260,,,,,,,,,,,,,,,,,,,,,,,,,,,,,,,,,,,,,,,,,,,,,,,,,,,1,0,1,0,1,,,,,,,,,,,,,,,,,,,,,,,,,,,,,,,,,,,,,,,,,,,,,,
,,,,,,,,,,,,60b7bb77c573c1a28d072811,23,Mężczyzna,2022-06-25_15h32.00.470,task,2021.1.4,Win32,60.0348202,6299f149e92ead563fba08ef,62b70e46f66b8c0ed63fc260,,,,,,,,,,,,,,,,,,,,,,,,,,,,,,,,,,,,,,,,,,,,,,,,,,,,,,,,zv,"[""z"",""v""]",0,"[1.7725999999940427,2.060700000002953,4.5084999999999695]",1,0,0,0,0,1,,,,,,,,,,,,,,,,,,,,,,,,,,,,,,,,,,,,
,,,,,,,,,,,,60b7bb77c573c1a28d072811,23,Mężczyzna,2022-06-25_15h32.00.470,task,2021.1.4,Win32,60.0348202,6299f149e92ead563fba08ef,62b70e46f66b8c0ed63fc260,,,,,,,,,,,,,,,,,,,,,,,Practice,6,(4/2) + 3,5,,,,,,,,,,,,,,,,,0,,0,0,0,0,5,1,,,,,,,,,,,,,,,,,,,,,,,,,,,,,,,,,,,,,,,,,,,,,,,,,,,
,,,,,,,,,,,,60b7bb77c573c1a28d072811,23,Mężczyzna,2022-06-25_15h32.00.470,task,2021.1.4,Win32,60.0348202,6299f149e92ead563fba08ef,62b70e46f66b8c0ed63fc260,,,,,,,,,,,,,4,,,,,,,,,,Practice,5,(2x6) - 8,4,,,,,,,,,,,,,,,,"[""4""]",1,[1.4442999999970425],1,0,1,1,4,1,,,,,,,,,,,,,,,,,,,,,,,,,,,,,,,,,,,,,,,,,,,,,,,,,,,
,,,,,,,,,,,X V Q F H G B L J M P D K C T S W R N Z,60b7bb77c573c1a28d072811,23,Mężczyzna,2022-06-25_15h32.00.470,task,2021.1.4,Win32,60.0348202,6299f149e92ead563fba08ef,62b70e46f66b8c0ed63fc260,,,,,,,,,,,,,,,,,,,,,,,,,,,,,,,,,,,,,,,,,,,,,,,,,,,0,0,0,0,1,,,,,,,,,,,,,,,,,,,,,,,,,,,,,,,,,,,,,,,,,,,,,,
,,,,,,,,,,,,60b7bb77c573c1a28d072811,23,Mężczyzna,2022-06-25_15h32.00.470,task,2021.1.4,Win32,60.0348202,6299f149e92ead563fba08ef,62b70e46f66b8c0ed63fc260,,,,,,,,,,,,,4,,,,,,,,,,Practice,5,(2x6) - 8,4,,,,,,,,,,,,,,,,"[""4""]",1,[1.3773999999910984],1,0,0,0,4,1,,,,,,,,,,,,,,,,,,,,,,,,,,,,,,,,,,,,,,,,,,,,,,,,,,,
,,,,,,,,,,,X V Q F H G B L J M P D K C T S W R N Z,60b7bb77c573c1a28d072811,23,Mężczyzna,2022-06-25_15h32.00.470,task,2021.1.4,Win32,60.0348202,6299f149e92ead563fba08ef,62b70e46f66b8c0ed63fc260,,,,,,,,,,,,,,,,,,,,,,,,,,,,,,,,,,,,,,,,,,,,,,,,,,,1,0,1,0,1,,,,,,,,,,,,,,,,,,,,,,,,,,,,,,,,,,,,,,,,,,,,,,
,,,,,,,,,,,,60b7bb77c573c1a28d072811,23,Mężczyzna,2022-06-25_15h32.00.470,task,2021.1.4,Win32,60.0348202,6299f149e92ead563fba08ef,62b70e46f66b8c0ed63fc260,,,,,,,,,,,,,,,,,,,,,,,,,,,,,,,,,,,,,,,,,,,,,,,,,,,,,,,,lt,"[""l"",""t""]",0,"[1.2139999999999986,1.3977999999970052,1.7670999999940022]",1,1,0,1,0,1,,,,,,,,,,,,,,,,,,,,,,,,,,,,,,,,,,,,
,,,,,,,,,,,,60b7bb77c573c1a28d072811,23,Mężczyzna,2022-06-25_15h32.00.470,task,2021.1.4,Win32,60.0348202,6299f149e92ead563fba08ef,62b70e46f66b8c0ed63fc260,,,,,,,,,,,,,4,,,,,,,,,,Practice,5,(2x6) - 8,4,,,,,,,,,,,,,,,,"[""4""]",1,[1.0361000000089575],1,0,0,0,4,1,,,,,,,,,,,,,,,,,,,,,,,,,,,,,,,,,,,,,,,,,,,,,,,,,,,
,,,,,,,,,,,X V Q F H G B L J M P D K C T S W R N Z,60b7bb77c573c1a28d072811,23,Mężczyzna,2022-06-25_15h32.00.470,task,2021.1.4,Win32,60.0348202,6299f149e92ead563fba08ef,62b70e46f66b8c0ed63fc260,,,,,,,,,,,,,,,,,,,,,,,,,,,,,,,,,,,,,,,,,,,,,,,,,,,0,0,0,0,1,,,,,,,,,,,,,,,,,,,,,,,,,,,,,,,,,,,,,,,,,,,,,,
,,,,,,,,,,,,60b7bb77c573c1a28d072811,23,Mężczyzna,2022-06-25_15h32.00.470,task,2021.1.4,Win32,60.0348202,6299f149e92ead563fba08ef,62b70e46f66b8c0ed63fc260,,,,,,,,,,,,,4,,,,,,,,,,Practice,5,(2x6) - 8,4,,,,,,,,,,,,,,,,"[""4""]",1,[0.9592999999970289],1,0,0,0,4,1,,,,,,,,,,,,,,,,,,,,,,,,,,,,,,,,,,,,,,,,,,,,,,,,,,,
,,,,,,,,,,,X V Q F H G B L J M P D K C T S W R N Z,60b7bb77c573c1a28d072811,23,Mężczyzna,2022-06-25_15h32.00.470,task,2021.1.4,Win32,60.0348202,6299f149e92ead563fba08ef,62b70e46f66b8c0ed63fc260,,,,,,,,,,,,,,,,,,,,,,,,,,,,,,,,,,,,,,,,,,,,,,,,,,,1,0,1,0,1,,,,,,,,,,,,,,,,,,,,,,,,,,,,,,,,,,,,,,,,,,,,,,
,,,,,,,,,,,,60b7bb77c573c1a28d072811,23,Mężczyzna,2022-06-25_15h32.00.470,task,2021.1.4,Win32,60.0348202,6299f149e92ead563fba08ef,62b70e46f66b8c0ed63fc260,,,,,,,,,,,,,,,,,,,,,,,,,,,,,,,,,,,,,,,,,,,,,,,,,,,,,,,,wt,"[""w"",""t""]",0,"[1.3887000000029843,1.6287000000029934,1.86850000000004]",1,2,0,2,0,1,,,,,,,,,,,,,,,,,,,,,,,,,,,,,,,,,,,,
,,,,,,,,,,,,60b7bb77c573c1a28d072811,23,Mężczyzna,2022-06-25_15h32.00.470,task,2021.1.4,Win32,60.0348202,6299f149e92ead563fba08ef,62b70e46f66b8c0ed63fc260,,,,,,,,,,,,,,,,,,,,,,,Task,11,(18/3) - 2,4,,,,,,,,,,,,,,,,,,,0,,,,,,,,,,,,,,,,,,,,,space,15.2506,,0,0,0,0,10,1,,,,,,,,,,,,,,,,,,,,,,,,,,,
,,,,,,,,,,,,60b7bb77c573c1a28d072811,23,Mężczyzna,2022-06-25_15h32.00.470,task,2021.1.4,Win32,60.0348202,6299f149e92ead563fba08ef,62b70e46f66b8c0ed63fc260,,,,,,,,,,,,,6,,,,,,,,,,Task,13,(3x4) - 6,6,,,,,,,,,,,,,,,,,,,1,,,,,,,,,,,,,,,,,,,,,,,"[""6""]",1,0,1,1,12,1,[1.5020000000000095],,,,,,,,,,,,,,,,,,,,,,,,,,
,,,,,,,,,,,X V Q F H G B L J M P D K C T S W R N Z,60b7bb77c573c1a28d072811,23,Mężczyzna,2022-06-25_15h32.00.470,task,2021.1.4,Win32,60.0348202,6299f149e92ead563fba08ef,62b70e46f66b8c0ed63fc260,,,,,,,,,,,,,,,,,,,,,,,,,,,,,,,,,,,,,,,,,,,,,,,,,,,,,,,,,,,,,,,,,,,,,,,,,,,,0,0,0,0,1,,,,,,,,,,,,,,,,,,,,,
,,,,,,,,,,,,60b7bb77c573c1a28d072811,23,Mężczyzna,2022-06-25_15h32.00.470,task,2021.1.4,Win32,60.0348202,6299f149e92ead563fba08ef,62b70e46f66b8c0ed63fc260,,,,,,,,,,,,,3,,,,,,,,,,Task,27,(3/3) + 2,3,,,,,,,,,,,,,,,,,,,1,,,,,,,,,,,,,,,,,,,,,,,"[""3""]",1,0,0,0,26,1,[1.5537999999970111],,,,,,,,,,,,,,,,,,,,,,,,,,
,,,,,,,,,,,X V Q F H G B L J M P D K C T S W R N Z,60b7bb77c573c1a28d072811,23,Mężczyzna,2022-06-25_15h32.00.470,task,2021.1.4,Win32,60.0348202,6299f149e92ead563fba08ef,62b70e46f66b8c0ed63fc260,,,,,,,,,,,,,,,,,,,,,,,,,,,,,,,,,,,,,,,,,,,,,,,,,,,,,,,,,,,,,,,,,,,,,,,,,,,,1,0,1,0,1,,,,,,,,,,,,,,,,,,,,,
,,,,,,,,,,,,60b7bb77c573c1a28d072811,23,Mężczyzna,2022-06-25_15h32.00.470,task,2021.1.4,Win32,60.0348202,6299f149e92ead563fba08ef,62b70e46f66b8c0ed63fc260,,,,,,,,,,,,,,,,,,,,,,,,,,,,,,,,,,,,,,,,,,,,,,,,,,,,,,,,,,,,,,,,,,,,,,,,,,,,,,,,,zq,"[""z"",""q""]",0,"[1.0004000000059818,1.040200000002983,1.400400000006016]",1,ZQ,0,0,0,0,1,,,,,,,,,,
,,,,,,,,,,,,60b7bb77c573c1a28d072811,23,Mężczyzna,2022-06-25_15h32.00.470,task,2021.1.4,Win32,60.0348202,6299f149e92ead563fba08ef,62b70e46f66b8c0ed63fc260,,,,,,,,,,,,,,,,,,,,,,,Task,38,(4x6) - 17,7,,,,,,,,,,,,,,,,,,,0,,,,,,,,,,,,,,,,,,,,,,,,0,0,0,0,37,1,,,,,,,,,,,,,,,,,,,,,,,,,,,
,,,,,,,,,,,,60b7bb77c573c1a28d072811,23,Mężczyzna,2022-06-25_15h32.00.470,task,2021.1.4,Win32,60.0348202,6299f149e92ead563fba08ef,62b70e46f66b8c0ed63fc260,,,,,,,,,,,,,3,,,,,,,,,,Task,20,(18/9) + 1,3,,,,,,,,,,,,,,,,,,,1,,,,,,,,,,,,,,,,,,,,,,,"[""3""]",1,0,1,1,19,1,[1.586999999999989],,,,,,,,,,,,,,,,,,,,,,,,,,
,,,,,,,,,,,X V Q F H G B L J M P D K C T S W R N Z,60b7bb77c573c1a28d072811,23,Mężczyzna,2022-06-25_15h32.00.470,task,2021.1.4,Win32,60.0348202,6299f149e92ead563fba08ef,62b70e46f66b8c0ed63fc260,,,,,,,,,,,,,,,,,,,,,,,,,,,,,,,,,,,,,,,,,,,,,,,,,,,,,,,,,,,,,,,,,,,,,,,,,,,,0,0,0,0,1,,,,,,,,,,,,,,,,,,,,,
,,,,,,,,,,,,60b7bb77c573c1a28d072811,23,Mężczyzna,2022-06-25_15h32.00.470,task,2021.1.4,Win32,60.0348202,6299f149e92ead563fba08ef,62b70e46f66b8c0ed63fc260,,,,,,,,,,,,,8,,,,,,,,,,Task,38,(4x6) - 17,7,,,,,,,,,,,,,,,,,,,0,,,,,,,,,,,,,,,,,,,,,,,"[""8""]",0,0,0,0,37,1,[1.9793999999910739],,,,,,,,,,,,,,,,,,,,,,,,,,
,,,,,,,,,,,,60b7bb77c573c1a28d072811,23,Mężczyzna,2022-06-25_15h32.00.470,task,2021.1.4,Win32,60.0348202,6299f149e92ead563fba08ef,62b70e46f66b8c0ed63fc260,,,,,,,,,,,,,3,,,,,,,,,,Task,20,(18/9) + 1,3,,,,,,,,,,,,,,,,,,,1,,,,,,,,,,,,,,,,,,,,,,,"[""3""]",1,0,1,1,19,1,[1.6532999999969888],,,,,,,,,,,,,,,,,,,,,,,,,,
,,,,,,,,,,,X V Q F H G B L J M P D K C T S W R N Z,60b7bb77c573c1a28d072811,23,Mężczyzna,2022-06-25_15h32.00.470,task,2021.1.4,Win32,60.0348202,6299f149e92ead563fba08ef,62b70e46f66b8c0ed63fc260,,,,,,,,,,,,,,,,,,,,,,,,,,,,,,,,,,,,,,,,,,,,,,,,,,,,,,,,,,,,,,,,,,,,,,,,,,,,1,0,1,0,1,,,,,,,,,,,,,,,,,,,,,
,,,,,,,,,,,,60b7bb77c573c1a28d072811,23,Mężczyzna,2022-06-25_15h32.00.470,task,2021.1.4,Win32,60.0348202,6299f149e92ead563fba08ef,62b70e46f66b8c0ed63fc260,,,,,,,,,,,,,0,,,,,,,,,,Task,17,(2x3) - 6,0,,,,,,,,,,,,,,,,,,,1,,,,,,,,,,,,,,,,,,,,,,,"[""0""]",1,0,0,0,16,1,[1.3977000000029989],,,,,,,,,,,,,,,,,,,,,,,,,,
,,,,,,,,,,,X V Q F H G B L J M P D K C T S W R N Z,60b7bb77c573c1a28d072811,23,Mężczyzna,2022-06-25_15h32.00.470,task,2021.1.4,Win32,60.0348202,6299f149e92ead563fba08ef,62b70e46f66b8c0ed63fc260,,,,,,,,,,,,,,,,,,,,,,,,,,,,,,,,,,,,,,,,,,,,,,,,,,,,,,,,,,,,,,,,,,,,,,,,,,,,2,0,2,0,1,,,,,,,,,,,,,,,,,,,,,
,,,,,,,,,,,,60b7bb77c573c1a28d072811,23,Mężczyzna,2022-06-25_15h32.00.470,task,2021.1.4,Win32,60.0348202,6299f149e92ead563fba08ef,62b70e46f66b8c0ed63fc260,,,,,,,,,,,,,,,,,,,,,,,,,,,,,,,,,,,,,,,,,,,,,,,,,,,,,,,,,,,,,,,,,,,,,,,,,,,,,,,,,zwl,"[""z"",""w"",""l""]",0,"[1.6750999999940746,1.7467999999970516,2.2747999999970148,6.122799999997028]",1,ZWL,1,0,1,0,1,,,,,,,,,,
,,,,,,,,,,,,60b7bb77c573c1a28d072811,23,Mężczyzna,2022-06-25_15h32.00.470,task,2021.1.4,Win32,60.0348202,6299f149e92ead563fba08ef,62b70e46f66b8c0ed63fc260,,,,,,,,,,,,,6,,,,,,,,,,Task,13,(3x4) - 6,6,,,,,,,,,,,,,,,,,,,1,,,,,,,,,,,,,,,,,,,,,,,"[""6""]",1,0,0,0,12,1,[2.1352000000029534],,,,,,,,,,,,,,,,,,,,,,,,,,
,,,,,,,,,,,X V Q F H G B L J M P D K C T S W R N Z,60b7bb77c573c1a28d072811,23,Mężczyzna,2022-06-25_15h32.00.470,task,2021.1.4,Win32,60.0348202,6299f149e92ead563fba08ef,62b70e46f66b8c0ed63fc260,,,,,,,,,,,,,,,,,,,,,,,,,,,,,,,,,,,,,,,,,,,,,,,,,,,,,,,,,,,,,,,,,,,,,,,,,,,,0,0,0,0,1,,,,,,,,,,,,,,,,,,,,,
,,,,,,,,,,,,60b7bb77c573c1a28d072811,23,Mężczyzna,2022-06-25_15h32.00.470,task,2021.1.4,Win32,60.0348202,6299f149e92ead563fba08ef,62b70e46f66b8c0ed63fc260,,,,,,,,,,,,,3,,,,,,,,,,Task,3,(2x3) - 3,3,,,,,,,,,,,,,,,,,,,1,,,,,,,,,,,,,,,,,,,,,,,"[""3""]",1,0,0,0,2,1,[1.7247999999970034],,,,,,,,,,,,,,,,,,,,,,,,,,
,,,,,,,,,,,X V Q F H G B L J M P D K C T S W R N Z,60b7bb77c573c1a28d072811,23,Mężczyzna,2022-06-25_15h32.00.470,task,2021.1.4,Win32,60.0348202,6299f149e92ead563fba08ef,62b70e46f66b8c0ed63fc260,,,,,,,,,,,,,,,,,,,,,,,,,,,,,,,,,,,,,,,,,,,,,,,,,,,,,,,,,,,,,,,,,,,,,,,,,,,,1,0,1,0,1,,,,,,,,,,,,,,,,,,,,,
,,,,,,,,,,,,60b7bb77c573c1a28d072811,23,Mężczyzna,2022-06-25_15h32.00.470,task,2021.1.4,Win32,60.0348202,6299f149e92ead563fba08ef,62b70e46f66b8c0ed63fc260,,,,,,,,,,,,,9,,,,,,,,,,Task,40,(7x2) - 5,9,,,,,,,,,,,,,,,,,,,1,,,,,,,,,,,,,,,,,,,,,,,"[""9""]",1,0,0,0,39,1,[1.6893999999910534],,,,,,,,,,,,,,,,,,,,,,,,,,
,,,,,,,,,,,X V Q F H G B L J M P D K C T S W R N Z,60b7bb77c573c1a28d072811,23,Mężczyzna,2022-06-25_15h32.00.470,task,2021.1.4,Win32,60.0348202,6299f149e92ead563fba08ef,62b70e46f66b8c0ed63fc260,,,,,,,,,,,,,,,,,,,,,,,,,,,,,,,,,,,,,,,,,,,,,,,,,,,,,,,,,,,,,,,,,,,,,,,,,,,,2,0,2,0,1,,,,,,,,,,,,,,,,,,,,,
,,,,,,,,,,,,60b7bb77c573c1a28d072811,23,Mężczyzna,2022-06-25_15h32.00.470,task,2021.1.4,Win32,60.0348202,6299f149e92ead563fba08ef,62b70e46f66b8c0ed63fc260,,,,,,,,,,,,,8,,,,,,,,,,Task,32,(8/2) + 4,8,,,,,,,,,,,,,,,,,,,1,,,,,,,,,,,,,,,,,,,,,,,"[""8""]",1,0,0,0,31,1,[2.143400000005954],,,,,,,,,,,,,,,,,,,,,,,,,,
,,,,,,,,,,,X V Q F H G B L J M P D K C T S W R N Z,60b7bb77c573c1a28d072811,23,Mężczyzna,2022-06-25_15h32.00.470,task,2021.1.4,Win32,60.0348202,6299f149e92ead563fba08ef,62b70e46f66b8c0ed63fc260,,,,,,,,,,,,,,,,,,,,,,,,,,,,,,,,,,,,,,,,,,,,,,,,,,,,,,,,,,,,,,,,,,,,,,,,,,,,3,0,3,0,1,,,,,,,,,,,,,,,,,,,,,
,,,,,,,,,,,,60b7bb77c573c1a28d072811,23,Mężczyzna,2022-06-25_15h32.00.470,task,2021.1.4,Win32,60.0348202,6299f149e92ead563fba08ef,62b70e46f66b8c0ed63fc260,,,,,,,,,,,,,,,,,,,,,,,,,,,,,,,,,,,,,,,,,,,,,,,,,,,,,,,,,,,,,,,,,,,,,,,,,,,,,,,,,hkvl,"[""h"",""k"",""v"",""l""]",0,"[1.4950999999940677,1.7909999999999968,2.326999999999998,2.6469999999999914,2.8550999999940245]",1,HKVL,2,0,2,0,1,,,,,,,,,,
,,,,,,,,,,,,60b7bb77c573c1a28d072811,23,Mężczyzna,2022-06-25_15h32.00.470,task,2021.1.4,Win32,60.0348202,6299f149e92ead563fba08ef,62b70e46f66b8c0ed63fc260,,,,,,,,,,,,,0,,,,,,,,,,Task,33,(1/1) - 1,0,,,,,,,,,,,,,,,,,,,1,,,,,,,,,,,,,,,,,,,,,,,"[""0""]",1,0,0,0,32,1,[2.0988999999910902],,,,,,,,,,,,,,,,,,,,,,,,,,
,,,,,,,,,,,X V Q F H G B L J M P D K C T S W R N Z,60b7bb77c573c1a28d072811,23,Mężczyzna,2022-06-25_15h32.00.470,task,2021.1.4,Win32,60.0348202,6299f149e92ead563fba08ef,62b70e46f66b8c0ed63fc260,,,,,,,,,,,,,,,,,,,,,,,,,,,,,,,,,,,,,,,,,,,,,,,,,,,,,,,,,,,,,,,,,,,,,,,,,,,,0,0,0,0,1,,,,,,,,,,,,,,,,,,,,,
,,,,,,,,,,,,60b7bb77c573c1a28d072811,23,Mężczyzna,2022-06-25_15h32.00.470,task,2021.1.4,Win32,60.0348202,6299f149e92ead563fba08ef,62b70e46f66b8c0ed63fc260,,,,,,,,,,,,,3,,,,,,,,,,Task,27,(3/3) + 2,3,,,,,,,,,,,,,,,,,,,1,,,,,,,,,,,,,,,,,,,,,,,"[""3""]",1,0,0,0,26,1,[1.482500000000016],,,,,,,,,,,,,,,,,,,,,,,,,,
,,,,,,,,,,,X V Q F H G B L J M P D K C T S W R N Z,60b7bb77c573c1a28d072811,23,Mężczyzna,2022-06-25_15h32.00.470,task,2021.1.4,Win32,60.0348202,6299f149e92ead563fba08ef,62b70e46f66b8c0ed63fc260,,,,,,,,,,,,,,,,,,,,,,,,,,,,,,,,,,,,,,,,,,,,,,,,,,,,,,,,,,,,,,,,,,,,,,,,,,,,1,0,1,0,1,,,,,,,,,,,,,,,,,,,,,
,,,,,,,,,,,,60b7bb77c573c1a28d072811,23,Mężczyzna,2022-06-25_15h32.00.470,task,2021.1.4,Win32,60.0348202,6299f149e92ead563fba08ef,62b70e46f66b8c0ed63fc260,,,,,,,,,,,,,8,,,,,,,,,,Task,39,(5x3) - 7,8,,,,,,,,,,,,,,,,,,,1,,,,,,,,,,,,,,,,,,,,,,,"[""8""]",1,0,0,0,38,1,[1.4809999999999945],,,,,,,,,,,,,,,,,,,,,,,,,,
,,,,,,,,,,,X V Q F H G B L J M P D K C T S W R N Z,60b7bb77c573c1a28d072811,23,Mężczyzna,2022-06-25_15h32.00.470,task,2021.1.4,Win32,60.0348202,6299f149e92ead563fba08ef,62b70e46f66b8c0ed63fc260,,,,,,,,,,,,,,,,,,,,,,,,,,,,,,,,,,,,,,,,,,,,,,,,,,,,,,,,,,,,,,,,,,,,,,,,,,,,2,0,2,0,1,,,,,,,,,,,,,,,,,,,,,
,,,,,,,,,,,,60b7bb77c573c1a28d072811,23,Mężczyzna,2022-06-25_15h32.00.470,task,2021.1.4,Win32,60.0348202,6299f149e92ead563fba08ef,62b70e46f66b8c0ed63fc260,,,,,,,,,,,,,0,,,,,,,,,,Task,33,(1/1) - 1,0,,,,,,,,,,,,,,,,,,,1,,,,,,,,,,,,,,,,,,,,,,,"[""0""]",1,0,0,0,32,1,[1.1739000000059718],,,,,,,,,,,,,,,,,,,,,,,,,,
,,,,,,,,,,,X V Q F H G B L J M P D K C T S W R N Z,60b7bb77c573c1a28d072811,23,Mężczyzna,2022-06-25_15h32.00.470,task,2021.1.4,Win32,60.0348202,6299f149e92ead563fba08ef,62b70e46f66b8c0ed63fc260,,,,,,,,,,,,,,,,,,,,,,,,,,,,,,,,,,,,,,,,,,,,,,,,,,,,,,,,,,,,,,,,,,,,,,,,,,,,3,0,3,0,1,,,,,,,,,,,,,,,,,,,,,
,,,,,,,,,,,,60b7bb77c573c1a28d072811,23,Mężczyzna,2022-06-25_15h32.00.470,task,2021.1.4,Win32,60.0348202,6299f149e92ead563fba08ef,62b70e46f66b8c0ed63fc260,,,,,,,,,,,,,8,,,,,,,,,,Task,23,(2x3) + 2,8,,,,,,,,,,,,,,,,,,,1,,,,,,,,,,,,,,,,,,,,,,,"[""8""]",1,0,0,0,22,1,[1.9171999999880995],,,,,,,,,,,,,,,,,,,,,,,,,,
,,,,,,,,,,,X V Q F H G B L J M P D K C T S W R N Z,60b7bb77c573c1a28d072811,23,Mężczyzna,2022-06-25_15h32.00.470,task,2021.1.4,Win32,60.0348202,6299f149e92ead563fba08ef,62b70e46f66b8c0ed63fc260,,,,,,,,,,,,,,,,,,,,,,,,,,,,,,,,,,,,,,,,,,,,,,,,,,,,,,,,,,,,,,,,,,,,,,,,,,,,4,0,4,0,1,,,,,,,,,,,,,,,,,,,,,
,,,,,,,,,,,,60b7bb77c573c1a28d072811,23,Mężczyzna,2022-06-25_15h32.00.470,task,2021.1.4,Win32,60.0348202,6299f149e92ead563fba08ef,62b70e46f66b8c0ed63fc260,,,,,,,,,,,,,,,,,,,,,,,,,,,,,,,,,,,,,,,,,,,,,,,,,,,,,,,,,,,,,,,,,,,,,,,,,,,,,,,,,xqfhl,"[""x"",""q"",""f"",""h"",""l""]",0,"[1.410000000000025,1.6837999999970634,2.4820000000000277,2.6898999999910984,3.0172000000030152,3.6003999999910548]",1,XQFHL,3,0,3,0,1,,,,,,,,,,
,,,,,,,,,,,,60b7bb77c573c1a28d072811,23,Mężczyzna,2022-06-25_15h32.00.470,task,2021.1.4,Win32,60.0348202,6299f149e92ead563fba08ef,62b70e46f66b8c0ed63fc260,,,,,,,,,,,,,3,,,,,,,,,,Task,35,(1x2) + 1,3,,,,,,,,,,,,,,,,,,,1,,,,,,,,,,,,,,,,,,,,,,,"[""3""]",1,0,0,0,34,1,[1.3265999999940163],,,,,,,,,,,,,,,,,,,,,,,,,,
,,,,,,,,,,,X V Q F H G B L J M P D K C T S W R N Z,60b7bb77c573c1a28d072811,23,Mężczyzna,2022-06-25_15h32.00.470,task,2021.1.4,Win32,60.0348202,6299f149e92ead563fba08ef,62b70e46f66b8c0ed63fc260,,,,,,,,,,,,,,,,,,,,,,,,,,,,,,,,,,,,,,,,,,,,,,,,,,,,,,,,,,,,,,,,,,,,,,,,,,,,0,0,0,0,1,,,,,,,,,,,,,,,,,,,,,
,,,,,,,,,,,,60b7bb77c573c1a28d072811,23,Mężczyzna,2022-06-25_15h32.00.470,task,2021.1.4,Win32,60.0348202,6299f149e92ead563fba08ef,62b70e46f66b8c0ed63fc260,,,,,,,,,,,,,2,,,,,,,,,,Task,10,(2x5) - 8,2,,,,,,,,,,,,,,,,,,,1,,,,,,,,,,,,,,,,,,,,,,,"[""2""]",1,0,0,0,9,1,[1.268000000000029],,,,,,,,,,,,,,,,,,,,,,,,,,
,,,,,,,,,,,X V Q F H G B L J M P D K C T S W R N Z,60b7bb77c573c1a28d072811,23,Mężczyzna,2022-06-25_15h32.00.470,task,2021.1.4,Win32,60.0348202,6299f149e92ead563fba08ef,62b70e46f66b8c0ed63fc260,,,,,,,,,,,,,,,,,,,,,,,,,,,,,,,,,,,,,,,,,,,,,,,,,,,,,,,,,,,,,,,,,,,,,,,,,,,,1,0,1,0,1,,,,,,,,,,,,,,,,,,,,,
,,,,,,,,,,,,60b7bb77c573c1a28d072811,23,Mężczyzna,2022-06-25_15h32.00.470,task,2021.1.4,Win32,60.0348202,6299f149e92ead563fba08ef,62b70e46f66b8c0ed63fc260,,,,,,,,,,,,,8,,,,,,,,,,Task,7,(3x7) - 12,9,,,,,,,,,,,,,,,,,,,0,,,,,,,,,,,,,,,,,,,,,,,"[""8""]",0,0,0,0,6,1,[1.8032000000029598],,,,,,,,,,,,,,,,,,,,,,,,,,
,,,,,,,,,,,,60b7bb77c573c1a28d072811,23,Mężczyzna,2022-06-25_15h32.00.470,task,2021.1.4,Win32,60.0348202,6299f149e92ead563fba08ef,62b70e46f66b8c0ed63fc260,,,,,,,,,,,,,,,,,,,,,,,Task,2,(2x2) - 2,2,,,,,,,,,,,,,,,,,,,0,,,,,,,,,,,,,,,,,,,,,,,,0,0,1,1,1,1,,,,,,,,,,,,,,,,,,,,,,,,,,,
,,,,,,,,,,,,60b7bb77c573c1a28d072811,23,Mężczyzna,2022-06-25_15h32.00.470,task,2021.1.4,Win32,60.0348202,6299f149e92ead563fba08ef,62b70e46f66b8c0ed63fc260,,,,,,,,,,,,,0,,,,,,,,,,Task,17,(2x3) - 6,0,,,,,,,,,,,,,,,,,,,1,,,,,,,,,,,,,,,,,,,,,,,"[""0""]",1,0,2,2,16,1,[1.5337999999970293],,,,,,,,,,,,,,,,,,,,,,,,,,
,,,,,,,,,,,X V Q F H G B L J M P D K C T S W R N Z,60b7bb77c573c1a28d072811,23,Mężczyzna,2022-06-25_15h32.00.470,task,2021.1.4,Win32,60.0348202,6299f149e92ead563fba08ef,62b70e46f66b8c0ed63fc260,,,,,,,,,,,,,,,,,,,,,,,,,,,,,,,,,,,,,,,,,,,,,,,,,,,,,,,,,,,,,,,,,,,,,,,,,,,,2,0,2,0,1,,,,,,,,,,,,,,,,,,,,,
,,,,,,,,,,,,60b7bb77c573c1a28d072811,23,Mężczyzna,2022-06-25_15h32.00.470,task,2021.1.4,Win32,60.0348202,6299f149e92ead563fba08ef,62b70e46f66b8c0ed63fc260,,,,,,,,,,,,,5,,,,,,,,,,Task,36,(8/4) + 3,5,,,,,,,,,,,,,,,,,,,1,,,,,,,,,,,,,,,,,,,,,,,"[""5""]",1,0,0,0,35,1,[1.2910999999940032],,,,,,,,,,,,,,,,,,,,,,,,,,
,,,,,,,,,,,X V Q F H G B L J M P D K C T S W R N Z,60b7bb77c573c1a28d072811,23,Mężczyzna,2022-06-25_15h32.00.470,task,2021.1.4,Win32,60.0348202,6299f149e92ead563fba08ef,62b70e46f66b8c0ed63fc260,,,,,,,,,,,,,,,,,,,,,,,,,,,,,,,,,,,,,,,,,,,,,,,,,,,,,,,,,,,,,,,,,,,,,,,,,,,,3,0,3,0,1,,,,,,,,,,,,,,,,,,,,,
,,,,,,,,,,,,60b7bb77c573c1a28d072811,23,Mężczyzna,2022-06-25_15h32.00.470,task,2021.1.4,Win32,60.0348202,6299f149e92ead563fba08ef,62b70e46f66b8c0ed63fc260,,,,,,,,,,,,,3,,,,,,,,,,Task,35,(1x2) + 1,3,,,,,,,,,,,,,,,,,,,1,,,,,,,,,,,,,,,,,,,,,,,"[""3""]",1,0,0,0,34,1,[0.9764999999999873],,,,,,,,,,,,,,,,,,,,,,,,,,
,,,,,,,,,,,X V Q F H G B L J M P D K C T S W R N Z,60b7bb77c573c1a28d072811,23,Mężczyzna,2022-06-25_15h32.00.470,task,2021.1.4,Win32,60.0348202,6299f149e92ead563fba08ef,62b70e46f66b8c0ed63fc260,,,,,,,,,,,,,,,,,,,,,,,,,,,,,,,,,,,,,,,,,,,,,,,,,,,,,,,,,,,,,,,,,,,,,,,,,,,,4,0,4,0,1,,,,,,,,,,,,,,,,,,,,,
,,,,,,,,,,,,60b7bb77c573c1a28d072811,23,Mężczyzna,2022-06-25_15h32.00.470,task,2021.1.4,Win32,60.0348202,6299f149e92ead563fba08ef,62b70e46f66b8c0ed63fc260,,,,,,,,,,,,,5,,,,,,,,,,Task,29,(3x8) - 19 ,5,,,,,,,,,,,,,,,,,,,1,,,,,,,,,,,,,,,,,,,,,,,"[""5""]",1,0,0,0,28,1,[1.7162000000029707],,,,,,,,,,,,,,,,,,,,,,,,,,
,,,,,,,,,,,X V Q F H G B L J M P D K C T S W R N Z,60b7bb77c573c1a28d072811,23,Mężczyzna,2022-06-25_15h32.00.470,task,2021.1.4,Win32,60.0348202,6299f149e92ead563fba08ef,62b70e46f66b8c0ed63fc260,,,,,,,,,,,,,,,,,,,,,,,,,,,,,,,,,,,,,,,,,,,,,,,,,,,,,,,,,,,,,,,,,,,,,,,,,,,,5,0,5,0,1,,,,,,,,,,,,,,,,,,,,,
,,,,,,,,,,,,60b7bb77c573c1a28d072811,23,Mężczyzna,2022-06-25_15h32.00.470,task,2021.1.4,Win32,60.0348202,6299f149e92ead563fba08ef,62b70e46f66b8c0ed63fc260,,,,,,,,,,,,,,,,,,,,,,,,,,,,,,,,,,,,,,,,,,,,,,,,,,,,,,,,,,,,,,,,,,,,,,,,,,,,,,,,,fwkkkh,"[""f"",""w"",""k"",""k"",""k"",""h""]",0,"[1.2842000000030112,1.4840000000000373,1.8840000000000146,2.048600000008946,2.2117000000029634,2.8197999999970307,3.203700000002982]",1,FWKKKH,4,0,4,0,1,,,,,,,,,,
,,,,,,,,,,,,60b7bb77c573c1a28d072811,23,Mężczyzna,2022-06-25_15h32.00.470,task,2021.1.4,Win32,60.0348202,6299f149e92ead563fba08ef,62b70e46f66b8c0ed63fc260,,,,,,,,,,,,,5,,,,,,,,,,Task,36,(8/4) + 3,5,,,,,,,,,,,,,,,,,,,1,,,,,,,,,,,,,,,,,,,,,,,"[""5""]",1,0,0,0,35,1,[1.393000000000029],,,,,,,,,,,,,,,,,,,,,,,,,,
,,,,,,,,,,,X V Q F H G B L J M P D K C T S W R N Z,60b7bb77c573c1a28d072811,23,Mężczyzna,2022-06-25_15h32.00.470,task,2021.1.4,Win32,60.0348202,6299f149e92ead563fba08ef,62b70e46f66b8c0ed63fc260,,,,,,,,,,,,,,,,,,,,,,,,,,,,,,,,,,,,,,,,,,,,,,,,,,,,,,,,,,,,,,,,,,,,,,,,,,,,0,0,0,0,1,,,,,,,,,,,,,,,,,,,,,
,,,,,,,,,,,,60b7bb77c573c1a28d072811,23,Mężczyzna,2022-06-25_15h32.00.470,task,2021.1.4,Win32,60.0348202,6299f149e92ead563fba08ef,62b70e46f66b8c0ed63fc260,,,,,,,,,,,,,4,,,,,,,,,,Task,4,(1x5) - 1,4,,,,,,,,,,,,,,,,,,,1,,,,,,,,,,,,,,,,,,,,,,,"[""4""]",1,0,0,0,3,1,[1.266600000008907],,,,,,,,,,,,,,,,,,,,,,,,,,
,,,,,,,,,,,X V Q F H G B L J M P D K C T S W R N Z,60b7bb77c573c1a28d072811,23,Mężczyzna,2022-06-25_15h32.00.470,task,2021.1.4,Win32,60.0348202,6299f149e92ead563fba08ef,62b70e46f66b8c0ed63fc260,,,,,,,,,,,,,,,,,,,,,,,,,,,,,,,,,,,,,,,,,,,,,,,,,,,,,,,,,,,,,,,,,,,,,,,,,,,,1,0,1,0,1,,,,,,,,,,,,,,,,,,,,,
,,,,,,,,,,,,60b7bb77c573c1a28d072811,23,Mężczyzna,2022-06-25_15h32.00.470,task,2021.1.4,Win32,60.0348202,6299f149e92ead563fba08ef,62b70e46f66b8c0ed63fc260,,,,,,,,,,,,,6,,,,,,,,,,Task,13,(3x4) - 6,6,,,,,,,,,,,,,,,,,,,1,,,,,,,,,,,,,,,,,,,,,,,"[""6""]",1,0,0,0,12,1,[1.0824999999999818],,,,,,,,,,,,,,,,,,,,,,,,,,
,,,,,,,,,,,X V Q F H G B L J M P D K C T S W R N Z,60b7bb77c573c1a28d072811,23,Mężczyzna,2022-06-25_15h32.00.470,task,2021.1.4,Win32,60.0348202,6299f149e92ead563fba08ef,62b70e46f66b8c0ed63fc260,,,,,,,,,,,,,,,,,,,,,,,,,,,,,,,,,,,,,,,,,,,,,,,,,,,,,,,,,,,,,,,,,,,,,,,,,,,,2,0,2,0,1,,,,,,,,,,,,,,,,,,,,,
,,,,,,,,,,,,60b7bb77c573c1a28d072811,23,Mężczyzna,2022-06-25_15h32.00.470,task,2021.1.4,Win32,60.0348202,6299f149e92ead563fba08ef,62b70e46f66b8c0ed63fc260,,,,,,,,,,,,,0,,,,,,,,,,Task,17,(2x3) - 6,0,,,,,,,,,,,,,,,,,,,1,,,,,,,,,,,,,,,,,,,,,,,"[""0""]",1,0,0,0,16,1,[1.095599999993965],,,,,,,,,,,,,,,,,,,,,,,,,,
,,,,,,,,,,,X V Q F H G B L J M P D K C T S W R N Z,60b7bb77c573c1a28d072811,23,Mężczyzna,2022-06-25_15h32.00.470,task,2021.1.4,Win32,60.0348202,6299f149e92ead563fba08ef,62b70e46f66b8c0ed63fc260,,,,,,,,,,,,,,,,,,,,,,,,,,,,,,,,,,,,,,,,,,,,,,,,,,,,,,,,,,,,,,,,,,,,,,,,,,,,3,0,3,0,1,,,,,,,,,,,,,,,,,,,,,
,,,,,,,,,,,,60b7bb77c573c1a28d072811,23,Mężczyzna,2022-06-25_15h32.00.470,task,2021.1.4,Win32,60.0348202,6299f149e92ead563fba08ef,62b70e46f66b8c0ed63fc260,,,,,,,,,,,,,1,,,,,,,,,,Task,9,(3x7) - 20,1,,,,,,,,,,,,,,,,,,,1,,,,,,,,,,,,,,,,,,,,,,,"[""1""]",1,0,0,0,8,1,[1.1036999999880663],,,,,,,,,,,,,,,,,,,,,,,,,,
,,,,,,,,,,,X V Q F H G B L J M P D K C T S W R N Z,60b7bb77c573c1a28d072811,23,Mężczyzna,2022-06-25_15h32.00.470,task,2021.1.4,Win32,60.0348202,6299f149e92ead563fba08ef,62b70e46f66b8c0ed63fc260,,,,,,,,,,,,,,,,,,,,,,,,,,,,,,,,,,,,,,,,,,,,,,,,,,,,,,,,,,,,,,,,,,,,,,,,,,,,4,0,4,0,1,,,,,,,,,,,,,,,,,,,,,
,,,,,,,,,,,,60b7bb77c573c1a28d072811,23,Mężczyzna,2022-06-25_15h32.00.470,task,2021.1.4,Win32,60.0348202,6299f149e92ead563fba08ef,62b70e46f66b8c0ed63fc260,,,,,,,,,,,,,5,,,,,,,,,,Task,29,(3x8) - 19 ,5,,,,,,,,,,,,,,,,,,,1,,,,,,,,,,,,,,,,,,,,,,,"[""5""]",1,0,0,0,28,1,[1.4591000000089025],,,,,,,,,,,,,,,,,,,,,,,,,,
,,,,,,,,,,,X V Q F H G B L J M P D K C T S W R N Z,60b7bb77c573c1a28d072811,23,Mężczyzna,2022-06-25_15h32.00.470,task,2021.1.4,Win32,60.0348202,6299f149e92ead563fba08ef,62b70e46f66b8c0ed63fc260,,,,,,,,,,,,,,,,,,,,,,,,,,,,,,,,,,,,,,,,,,,,,,,,,,,,,,,,,,,,,,,,,,,,,,,,,,,,5,0,5,0,1,,,,,,,,,,,,,,,,,,,,,
,,,,,,,,,,,,60b7bb77c573c1a28d072811,23,Mężczyzna,2022-06-25_15h32.00.470,task,2021.1.4,Win32,60.0348202,6299f149e92ead563fba08ef,62b70e46f66b8c0ed63fc260,,,,,,,,,,,,,0,,,,,,,,,,Task,25,(10/5) - 2,0,,,,,,,,,,,,,,,,,,,1,,,,,,,,,,,,,,,,,,,,,,,"[""0""]",1,0,0,0,24,1,[1.4022999999970125],,,,,,,,,,,,,,,,,,,,,,,,,,
,,,,,,,,,,,X V Q F H G B L J M P D K C T S W R N Z,60b7bb77c573c1a28d072811,23,Mężczyzna,2022-06-25_15h32.00.470,task,2021.1.4,Win32,60.0348202,6299f149e92ead563fba08ef,62b70e46f66b8c0ed63fc260,,,,,,,,,,,,,,,,,,,,,,,,,,,,,,,,,,,,,,,,,,,,,,,,,,,,,,,,,,,,,,,,,,,,,,,,,,,,6,0,6,0,1,,,,,,,,,,,,,,,,,,,,,
,,,,,,,,,,,,60b7bb77c573c1a28d072811,23,Mężczyzna,2022-06-25_15h32.00.470,task,2021.1.4,Win32,60.0348202,6299f149e92ead563fba08ef,62b70e46f66b8c0ed63fc260,,,,,,,,,,,,,,,,,,,,,,,,,,,,,,,,,,,,,,,,,,,,,,,,,,,,,,,,,,,,,,,,,,,,,,,,,,,,,,,,,gdbzgkz,"[""g"",""d"",""b"",""z"",""g"",""k"",""z""]",0,"[2.0389999999999873,2.367200000002981,2.551200000003064,2.90300000000002,3.679099999994037,4.183700000003,4.535000000000082,4.894900000006032]",1,GDBZGKZ,5,0,5,0,1,,,,,,,,,,
,,,,,,,,,,,,60b7bb77c573c1a28d072811,23,Mężczyzna,2022-06-25_15h32.00.470,task,2021.1.4,Win32,60.0348202,6299f149e92ead563fba08ef,62b70e46f66b8c0ed63fc260,,,,,,,,,,,,,7,,,,,,,,,,Task,6,(12/2) + 1,7,,,,,,,,,,,,,,,,,,,1,,,,,,,,,,,,,,,,,,,,,,,"[""7""]",1,0,0,0,5,1,[1.4717000000030112],,,,,,,,,,,,,,,,,,,,,,,,,,
,,,,,,,,,,,X V Q F H G B L J M P D K C T S W R N Z,60b7bb77c573c1a28d072811,23,Mężczyzna,2022-06-25_15h32.00.470,task,2021.1.4,Win32,60.0348202,6299f149e92ead563fba08ef,62b70e46f66b8c0ed63fc260,,,,,,,,,,,,,,,,,,,,,,,,,,,,,,,,,,,,,,,,,,,,,,,,,,,,,,,,,,,,,,,,,,,,,,,,,,,,0,0,0,0,1,,,,,,,,,,,,,,,,,,,,,
,,,,,,,,,,,,60b7bb77c573c1a28d072811,23,Mężczyzna,2022-06-25_15h32.00.470,task,2021.1.4,Win32,60.0348202,6299f149e92ead563fba08ef,62b70e46f66b8c0ed63fc260,,,,,,,,,,,,,1,,,,,,,,,,Task,18,(16/4) - 3,1,,,,,,,,,,,,,,,,,,,1,,,,,,,,,,,,,,,,,,,,,,,"[""1""]",1,0,0,0,17,1,[1.2327999999970416],,,,,,,,,,,,,,,,,,,,,,,,,,
,,,,,,,,,,,X V Q F H G B L J M P D K C T S W R N Z,60b7bb77c573c1a28d072811,23,Mężczyzna,2022-06-25_15h32.00.470,task,2021.1.4,Win32,60.0348202,6299f149e92ead563fba08ef,62b70e46f66b8c0ed63fc260,,,,,,,,,,,,,,,,,,,,,,,,,,,,,,,,,,,,,,,,,,,,,,,,,,,,,,,,,,,,,,,,,,,,,,,,,,,,1,0,1,0,1,,,,,,,,,,,,,,,,,,,,,
,,,,,,,,,,,,60b7bb77c573c1a28d072811,23,Mężczyzna,2022-06-25_15h32.00.470,task,2021.1.4,Win32,60.0348202,6299f149e92ead563fba08ef,62b70e46f66b8c0ed63fc260,,,,,,,,,,,,,3,,,,,,,,,,Task,35,(1x2) + 1,3,,,,,,,,,,,,,,,,,,,1,,,,,,,,,,,,,,,,,,,,,,,"[""3""]",1,0,0,0,34,1,[0.7545999999940705],,,,,,,,,,,,,,,,,,,,,,,,,,
,,,,,,,,,,,X V Q F H G B L J M P D K C T S W R N Z,60b7bb77c573c1a28d072811,23,Mężczyzna,2022-06-25_15h32.00.470,task,2021.1.4,Win32,60.0348202,6299f149e92ead563fba08ef,62b70e46f66b8c0ed63fc260,,,,,,,,,,,,,,,,,,,,,,,,,,,,,,,,,,,,,,,,,,,,,,,,,,,,,,,,,,,,,,,,,,,,,,,,,,,,2,0,2,0,1,,,,,,,,,,,,,,,,,,,,,
,,,,,,,,,,,,60b7bb77c573c1a28d072811,23,Mężczyzna,2022-06-25_15h32.00.470,task,2021.1.4,Win32,60.0348202,6299f149e92ead563fba08ef,62b70e46f66b8c0ed63fc260,,,,,,,,,,,,,4,,,,,,,,,,Task,21,(10/2) - 1,4,,,,,,,,,,,,,,,,,,,1,,,,,,,,,,,,,,,,,,,,,,,"[""4""]",1,0,0,0,20,1,[1.399499999999989],,,,,,,,,,,,,,,,,,,,,,,,,,
,,,,,,,,,,,X V Q F H G B L J M P D K C T S W R N Z,60b7bb77c573c1a28d072811,23,Mężczyzna,2022-06-25_15h32.00.470,task,2021.1.4,Win32,60.0348202,6299f149e92ead563fba08ef,62b70e46f66b8c0ed63fc260,,,,,,,,,,,,,,,,,,,,,,,,,,,,,,,,,,,,,,,,,,,,,,,,,,,,,,,,,,,,,,,,,,,,,,,,,,,,3,0,3,0,1,,,,,,,,,,,,,,,,,,,,,
,,,,,,,,,,,,60b7bb77c573c1a28d072811,23,Mężczyzna,2022-06-25_15h32.00.470,task,2021.1.4,Win32,60.0348202,6299f149e92ead563fba08ef,62b70e46f66b8c0ed63fc260,,,,,,,,,,,,,3,,,,,,,,,,Task,20,(18/9) + 1,3,,,,,,,,,,,,,,,,,,,1,,,,,,,,,,,,,,,,,,,,,,,"[""3""]",1,0,0,0,19,1,[1.0077999999970189],,,,,,,,,,,,,,,,,,,,,,,,,,
,,,,,,,,,,,X V Q F H G B L J M P D K C T S W R N Z,60b7bb77c573c1a28d072811,23,Mężczyzna,2022-06-25_15h32.00.470,task,2021.1.4,Win32,60.0348202,6299f149e92ead563fba08ef,62b70e46f66b8c0ed63fc260,,,,,,,,,,,,,,,,,,,,,,,,,,,,,,,,,,,,,,,,,,,,,,,,,,,,,,,,,,,,,,,,,,,,,,,,,,,,4,0,4,0,1,,,,,,,,,,,,,,,,,,,,,
,,,,,,,,,,,,60b7bb77c573c1a28d072811,23,Mężczyzna,2022-06-25_15h32.00.470,task,2021.1.4,Win32,60.0348202,6299f149e92ead563fba08ef,62b70e46f66b8c0ed63fc260,,,,,,,,,,,,,5,,,,,,,,,,Task,22,(3x1) + 2,5,,,,,,,,,,,,,,,,,,,1,,,,,,,,,,,,,,,,,,,,,,,"[""5""]",1,0,0,0,21,1,[1.4492999999969243],,,,,,,,,,,,,,,,,,,,,,,,,,
,,,,,,,,,,,X V Q F H G B L J M P D K C T S W R N Z,60b7bb77c573c1a28d072811,23,Mężczyzna,2022-06-25_15h32.00.470,task,2021.1.4,Win32,60.0348202,6299f149e92ead563fba08ef,62b70e46f66b8c0ed63fc260,,,,,,,,,,,,,,,,,,,,,,,,,,,,,,,,,,,,,,,,,,,,,,,,,,,,,,,,,,,,,,,,,,,,,,,,,,,,5,0,5,0,1,,,,,,,,,,,,,,,,,,,,,
,,,,,,,,,,,,60b7bb77c573c1a28d072811,23,Mężczyzna,2022-06-25_15h32.00.470,task,2021.1.4,Win32,60.0348202,6299f149e92ead563fba08ef,62b70e46f66b8c0ed63fc260,,,,,,,,,,,,,5,,,,,,,,,,Task,36,(8/4) + 3,5,,,,,,,,,,,,,,,,,,,1,,,,,,,,,,,,,,,,,,,,,,,"[""5""]",1,0,0,0,35,1,[1.0324999999999136],,,,,,,,,,,,,,,,,,,,,,,,,,
,,,,,,,,,,,X V Q F H G B L J M P D K C T S W R N Z,60b7bb77c573c1a28d072811,23,Mężczyzna,2022-06-25_15h32.00.470,task,2021.1.4,Win32,60.0348202,6299f149e92ead563fba08ef,62b70e46f66b8c0ed63fc260,,,,,,,,,,,,,,,,,,,,,,,,,,,,,,,,,,,,,,,,,,,,,,,,,,,,,,,,,,,,,,,,,,,,,,,,,,,,6,0,6,0,1,,,,,,,,,,,,,,,,,,,,,
,,,,,,,,,,,,60b7bb77c573c1a28d072811,23,Mężczyzna,2022-06-25_15h32.00.470,task,2021.1.4,Win32,60.0348202,6299f149e92ead563fba08ef,62b70e46f66b8c0ed63fc260,,,,,,,,,,,,,1,,,,,,,,,,Task,9,(3x7) - 20,1,,,,,,,,,,,,,,,,,,,1,,,,,,,,,,,,,,,,,,,,,,,"[""1""]",1,0,0,0,8,1,[0.9993999999910557],,,,,,,,,,,,,,,,,,,,,,,,,,
,,,,,,,,,,,X V Q F H G B L J M P D K C T S W R N Z,60b7bb77c573c1a28d072811,23,Mężczyzna,2022-06-25_15h32.00.470,task,2021.1.4,Win32,60.0348202,6299f149e92ead563fba08ef,62b70e46f66b8c0ed63fc260,,,,,,,,,,,,,,,,,,,,,,,,,,,,,,,,,,,,,,,,,,,,,,,,,,,,,,,,,,,,,,,,,,,,,,,,,,,,7,0,7,0,1,,,,,,,,,,,,,,,,,,,,,
,,,,,,,,,,,,60b7bb77c573c1a28d072811,23,Mężczyzna,2022-06-25_15h32.00.470,task,2021.1.4,Win32,60.0348202,6299f149e92ead563fba08ef,62b70e46f66b8c0ed63fc260,,,,,,,,,,,,,,,,,,,,,,,,,,,,,,,,,,,,,,,,,,,,,,,,,,,,,,,,,,,,,,,,,,,,,,,,,,,,,,,,,qbtrvcvcq,"[""q"",""b"",""t"",""r"",""v"",""c"",""v"",""c"",""q""]",0,"[1.1640999999940504,1.524000000000001,1.7240000000000464,2.0439999999999827,2.668299999997089,3.0199000000060323,3.236099999994053,3.372000000000071,3.796000000000049,4.2359000000060405]",0,QBTRCVCQ,6,0,6,0,1,,,,,,,,,,
,,,,,,,,,,,,60b7bb77c573c1a28d072811,23,Mężczyzna,2022-06-25_15h32.00.470,task,2021.1.4,Win32,60.0348202,6299f149e92ead563fba08ef,62b70e46f66b8c0ed63fc260,,,,,,,,,,,,,5,,,,,,,,,,Task,22,(3x1) + 2,5,,,,,,,,,,,,,,,,,,,1,,,,,,,,,,,,,,,,,,,,,,,"[""5""]",1,0,0,0,21,1,[1.1034000000059905],,,,,,,,,,,,,,,,,,,,,,,,,,
,,,,,,,,,,,X V Q F H G B L J M P D K C T S W R N Z,60b7bb77c573c1a28d072811,23,Mężczyzna,2022-06-25_15h32.00.470,task,2021.1.4,Win32,60.0348202,6299f149e92ead563fba08ef,62b70e46f66b8c0ed63fc260,,,,,,,,,,,,,,,,,,,,,,,,,,,,,,,,,,,,,,,,,,,,,,,,,,,,,,,,,,,,,,,,,,,,,,,,,,,,0,0,0,0,1,,,,,,,,,,,,,,,,,,,,,
,,,,,,,,,,,,60b7bb77c573c1a28d072811,23,Mężczyzna,2022-06-25_15h32.00.470,task,2021.1.4,Win32,60.0348202,6299f149e92ead563fba08ef,62b70e46f66b8c0ed63fc260,,,,,,,,,,,,,4,,,,,,,,,,Task,2,(2x2) - 2,2,,,,,,,,,,,,,,,,,,,0,,,,,,,,,,,,,,,,,,,,,,,"[""4""]",0,0,0,0,1,1,[1.4079000000059523],,,,,,,,,,,,,,,,,,,,,,,,,,
,,,,,,,,,,,,60b7bb77c573c1a28d072811,23,Mężczyzna,2022-06-25_15h32.00.470,task,2021.1.4,Win32,60.0348202,6299f149e92ead563fba08ef,62b70e46f66b8c0ed63fc260,,,,,,,,,,,,,7,,,,,,,,,,Task,6,(12/2) + 1,7,,,,,,,,,,,,,,,,,,,1,,,,,,,,,,,,,,,,,,,,,,,"[""7""]",1,0,1,1,5,1,[1.322099999994066],,,,,,,,,,,,,,,,,,,,,,,,,,
,,,,,,,,,,,X V Q F H G B L J M P D K C T S W R N Z,60b7bb77c573c1a28d072811,23,Mężczyzna,2022-06-25_15h32.00.470,task,2021.1.4,Win32,60.0348202,6299f149e92ead563fba08ef,62b70e46f66b8c0ed63fc260,,,,,,,,,,,,,,,,,,,,,,,,,,,,,,,,,,,,,,,,,,,,,,,,,,,,,,,,,,,,,,,,,,,,,,,,,,,,1,0,1,0,1,,,,,,,,,,,,,,,,,,,,,
,,,,,,,,,,,,60b7bb77c573c1a28d072811,23,Mężczyzna,2022-06-25_15h32.00.470,task,2021.1.4,Win32,60.0348202,6299f149e92ead563fba08ef,62b70e46f66b8c0ed63fc260,,,,,,,,,,,,,8,,,,,,,,,,Task,15,(3x7) - 13,8,,,,,,,,,,,,,,,,,,,1,,,,,,,,,,,,,,,,,,,,,,,"[""8""]",1,0,0,0,14,1,[1.4764000000060378],,,,,,,,,,,,,,,,,,,,,,,,,,
,,,,,,,,,,,X V Q F H G B L J M P D K C T S W R N Z,60b7bb77c573c1a28d072811,23,Mężczyzna,2022-06-25_15h32.00.470,task,2021.1.4,Win32,60.0348202,6299f149e92ead563fba08ef,62b70e46f66b8c0ed63fc260,,,,,,,,,,,,,,,,,,,,,,,,,,,,,,,,,,,,,,,,,,,,,,,,,,,,,,,,,,,,,,,,,,,,,,,,,,,,2,0,2,0,1,,,,,,,,,,,,,,,,,,,,,
,,,,,,,,,,,,60b7bb77c573c1a28d072811,23,Mężczyzna,2022-06-25_15h32.00.470,task,2021.1.4,Win32,60.0348202,6299f149e92ead563fba08ef,62b70e46f66b8c0ed63fc260,,,,,,,,,,,,,5,,,,,,,,,,Task,36,(8/4) + 3,5,,,,,,,,,,,,,,,,,,,1,,,,,,,,,,,,,,,,,,,,,,,"[""5""]",1,0,0,0,35,1,[1.0757999999970025],,,,,,,,,,,,,,,,,,,,,,,,,,
,,,,,,,,,,,X V Q F H G B L J M P D K C T S W R N Z,60b7bb77c573c1a28d072811,23,Mężczyzna,2022-06-25_15h32.00.470,task,2021.1.4,Win32,60.0348202,6299f149e92ead563fba08ef,62b70e46f66b8c0ed63fc260,,,,,,,,,,,,,,,,,,,,,,,,,,,,,,,,,,,,,,,,,,,,,,,,,,,,,,,,,,,,,,,,,,,,,,,,,,,,3,0,3,0,1,,,,,,,,,,,,,,,,,,,,,
,,,,,,,,,,,,60b7bb77c573c1a28d072811,23,Mężczyzna,2022-06-25_15h32.00.470,task,2021.1.4,Win32,60.0348202,6299f149e92ead563fba08ef,62b70e46f66b8c0ed63fc260,,,,,,,,,,,,,6,,,,,,,,,,Task,30,(6/3) + 4 ,6,,,,,,,,,,,,,,,,,,,1,,,,,,,,,,,,,,,,,,,,,,,"[""6""]",1,0,0,0,29,1,[1.6111000000089462],,,,,,,,,,,,,,,,,,,,,,,,,,
,,,,,,,,,,,X V Q F H G B L J M P D K C T S W R N Z,60b7bb77c573c1a28d072811,23,Mężczyzna,2022-06-25_15h32.00.470,task,2021.1.4,Win32,60.0348202,6299f149e92ead563fba08ef,62b70e46f66b8c0ed63fc260,,,,,,,,,,,,,,,,,,,,,,,,,,,,,,,,,,,,,,,,,,,,,,,,,,,,,,,,,,,,,,,,,,,,,,,,,,,,4,0,4,0,1,,,,,,,,,,,,,,,,,,,,,
,,,,,,,,,,,,60b7bb77c573c1a28d072811,23,Mężczyzna,2022-06-25_15h32.00.470,task,2021.1.4,Win32,60.0348202,6299f149e92ead563fba08ef,62b70e46f66b8c0ed63fc260,,,,,,,,,,,,,2,,,,,,,,,,Task,10,(2x5) - 8,2,,,,,,,,,,,,,,,,,,,1,,,,,,,,,,,,,,,,,,,,,,,"[""2""]",1,0,0,0,9,1,[1.3962000000029775],,,,,,,,,,,,,,,,,,,,,,,,,,
,,,,,,,,,,,X V Q F H G B L J M P D K C T S W R N Z,60b7bb77c573c1a28d072811,23,Mężczyzna,2022-06-25_15h32.00.470,task,2021.1.4,Win32,60.0348202,6299f149e92ead563fba08ef,62b70e46f66b8c0ed63fc260,,,,,,,,,,,,,,,,,,,,,,,,,,,,,,,,,,,,,,,,,,,,,,,,,,,,,,,,,,,,,,,,,,,,,,,,,,,,5,0,5,0,1,,,,,,,,,,,,,,,,,,,,,
,,,,,,,,,,,,60b7bb77c573c1a28d072811,23,Mężczyzna,2022-06-25_15h32.00.470,task,2021.1.4,Win32,60.0348202,6299f149e92ead563fba08ef,62b70e46f66b8c0ed63fc260,,,,,,,,,,,,,2,,,,,,,,,,Task,25,(10/5) - 2,0,,,,,,,,,,,,,,,,,,,0,,,,,,,,,,,,,,,,,,,,,,,"[""2""]",0,0,0,0,24,1,[2.2704000000060205],,,,,,,,,,,,,,,,,,,,,,,,,,
,,,,,,,,,,,,60b7bb77c573c1a28d072811,23,Mężczyzna,2022-06-25_15h32.00.470,task,2021.1.4,Win32,60.0348202,6299f149e92ead563fba08ef,62b70e46f66b8c0ed63fc260,,,,,,,,,,,,,6,,,,,,,,,,Task,5,(2x3) + 0,6,,,,,,,,,,,,,,,,,,,1,,,,,,,,,,,,,,,,,,,,,,,"[""6""]",1,0,1,1,4,1,[2.1744999999999663],,,,,,,,,,,,,,,,,,,,,,,,,,
,,,,,,,,,,,X V Q F H G B L J M P D K C T S W R N Z,60b7bb77c573c1a28d072811,23,Mężczyzna,2022-06-25_15h32.00.470,task,2021.1.4,Win32,60.0348202,6299f149e92ead563fba08ef,62b70e46f66b8c0ed63fc260,,,,,,,,,,,,,,,,,,,,,,,,,,,,,,,,,,,,,,,,,,,,,,,,,,,,,,,,,,,,,,,,,,,,,,,,,,,,6,0,6,0,1,,,,,,,,,,,,,,,,,,,,,
,,,,,,,,,,,,60b7bb77c573c1a28d072811,23,Mężczyzna,2022-06-25_15h32.00.470,task,2021.1.4,Win32,60.0348202,6299f149e92ead563fba08ef,62b70e46f66b8c0ed63fc260,,,,,,,,,,,,,8,,,,,,,,,,Task,15,(3x7) - 13,8,,,,,,,,,,,,,,,,,,,1,,,,,,,,,,,,,,,,,,,,,,,"[""8""]",1,0,0,0,14,1,[1.3219000000059395],,,,,,,,,,,,,,,,,,,,,,,,,,
,,,,,,,,,,,X V Q F H G B L J M P D K C T S W R N Z,60b7bb77c573c1a28d072811,23,Mężczyzna,2022-06-25_15h32.00.470,task,2021.1.4,Win32,60.0348202,6299f149e92ead563fba08ef,62b70e46f66b8c0ed63fc260,,,,,,,,,,,,,,,,,,,,,,,,,,,,,,,,,,,,,,,,,,,,,,,,,,,,,,,,,,,,,,,,,,,,,,,,,,,,7,0,7,0,1,,,,,,,,,,,,,,,,,,,,,
,,,,,,,,,,,,60b7bb77c573c1a28d072811,23,Mężczyzna,2022-06-25_15h32.00.470,task,2021.1.4,Win32,60.0348202,6299f149e92ead563fba08ef,62b70e46f66b8c0ed63fc260,,,,,,,,,,,,,,,,,,,,,,,,,,,,,,,,,,,,,,,,,,,,,,,,,,,,,,,,,,,,,,,,,,,,,,,,,,,,,,,,,hktvzgzf,"[""h"",""k"",""t"",""v"",""z"",""g"",""z"",""f""]",0,"[2.025800000011941,3.489900000005946,3.7139000000059923,4.545900000005986,4.833999999999946,5.050600000008899,6.721900000005917,6.953900000006001,7.250999999999976]",0,HKVGTZFN,7,0,7,0,1,,,,,,,,,,
,,,,,,,,,,,,60b7bb77c573c1a28d072811,23,Mężczyzna,2022-06-25_15h32.00.470,task,2021.1.4,Win32,60.0348202,6299f149e92ead563fba08ef,62b70e46f66b8c0ed63fc260,,,,,,,,,,,,,,,,,,,,,,,,,,,,,,,,,,,,,,,,,,,,,,,,,,,,,,,,,,,,,,,,,,,,,,,,,,,,,,,,,,,,,,,,,,,,"[""period""]",0,[0.8997000000030084],0,0,0,0,1,,
,,,,,,,,,,,,60b7bb77c573c1a28d072811,23,Mężczyzna,2022-06-25_15h32.00.470,task,2021.1.4,Win32,60.0348202,6299f149e92ead563fba08ef,62b70e46f66b8c0ed63fc260,,,,,,,,,,,,,,,,,,,,,,,,,,,,,,,,,,,,,,,,,,,,,,,,,,,,,,,,,,,,,,,,,,,,,,,,,,,,,,,,,,,,,,,,,,,,"[""comma""]",0,[1.5361000000089007],1,0,1,0,1,,
,,,,,,,,,,,,60b7bb77c573c1a28d072811,23,Mężczyzna,2022-06-25_15h32.00.470,task,2021.1.4,Win32,60.0348202,6299f149e92ead563fba08ef,62b70e46f66b8c0ed63fc260,,,,,,,,,,,,,,,,,,,,,,,,,,,,,,,,,,,,,,,,,,,,,,,,,,,,,,,,,,,,,,,,,,,,,,,,,,,,,,,,,,,,,,,,,,,,"[""comma""]",0,[0.7200999999940905],2,0,2,0,1,,
,,,,,,,,,,,,60b7bb77c573c1a28d072811,23,Mężczyzna,2022-06-25_15h32.00.470,task,2021.1.4,Win32,60.0348202,6299f149e92ead563fba08ef,62b70e46f66b8c0ed63fc260,,,,,,,,,,,,,,,,,,,,,,,,,,,,,,,,,,,,,,,,,,,,,,,,,,,,,,,,,,,,,,,,,,,,,,,,,,,,,,,,,,,,,,,,,,,,"[""period""]",0,[0.7921000000088725],3,0,3,0,1,,
,,,,,,,,,,,,60b7bb77c573c1a28d072811,23,Mężczyzna,2022-06-25_15h32.00.470,task,2021.1.4,Win32,60.0348202,6299f149e92ead563fba08ef,62b70e46f66b8c0ed63fc260,,,,,,,,,,,,,,,,,,,,,,,,,,,,,,,,,,,,,,,,,,,,,,,,,,,,,,,,,,,,,,,,,,,,,,,,,,,,,,,,,,,,,,,,,,,,"[""period""]",0,[0.7279999999999518],4,0,4,0,1,,
,,,,,,,,,,,,60b7bb77c573c1a28d072811,23,Mężczyzna,2022-06-25_15h32.00.470,task,2021.1.4,Win32,60.0348202,6299f149e92ead563fba08ef,62b70e46f66b8c0ed63fc260,,,,,,,,,,,,,,,,,,,,,,,,,,,,,,,,,,,,,,,,,,,,,,,,,,,,,,,,,,,,,,,,,,,,,,,,,,,,,,,,,,,,,,,,,,,,"[""period""]",0,[0.4242000000029975],5,0,5,0,1,,
,,,,,,,,,,,,60b7bb77c573c1a28d072811,23,Mężczyzna,2022-06-25_15h32.00.470,task,2021.1.4,Win32,60.0348202,6299f149e92ead563fba08ef,62b70e46f66b8c0ed63fc260,,,,,,,,,,,,,,,,,,,,,,,,,,,,,,,,,,,,,,,,,,,,,,,,,,,,,,,,,,,,,,,,,,,,,,,,,,,,,,,,,,,,,,,,,,,,"[""comma""]",0,[0.767899999991073],6,0,6,0,1,,
,,,,,,,,,,,,60b7bb77c573c1a28d072811,23,Mężczyzna,2022-06-25_15h32.00.470,task,2021.1.4,Win32,60.0348202,6299f149e92ead563fba08ef,62b70e46f66b8c0ed63fc260,,,,,,,,,,,,,,,,,,,,,,,,,,,,,,,,,,,,,,,,,,,,,,,,,,,,,,,,,,,,,,,,,,,,,,,,,,,,,,,,,,,,,,,,,,,,"[""period""]",0,[0.7842000000030112],7,0,7,0,1,,
,,,,,,,,,,,,60b7bb77c573c1a28d072811,23,Mężczyzna,2022-06-25_15h32.00.470,task,2021.1.4,Win32,60.0348202,6299f149e92ead563fba08ef,62b70e46f66b8c0ed63fc260,,,,,,,,,,,,,,,,,,,,,,,,,,,,,,,,,,,,,,,,,,,,,,,,,,,,,,,,,,,,,,,,,,,,,,,,,,,,,,,,,,,,,,,,,,,,"[""comma""]",0,[0.3842000000029202],8,0,8,0,1,,
,,,,,,,,,,,,60b7bb77c573c1a28d072811,23,Mężczyzna,2022-06-25_15h32.00.470,task,2021.1.4,Win32,60.0348202,6299f149e92ead563fba08ef,62b70e46f66b8c0ed63fc260,,,,,,,,,,,,,,,,,,,,,,,,,,,,,,,,,,,,,,,,,,,,,,,,,,,,,,,,,,,,,,,,,,,,,,,,,,,,,,,,,,,,,,,,,,,,"[""period""]",0,[0.6479999999999109],9,0,9,0,1,,
,,,,,,,,,,,,60b7bb77c573c1a28d072811,23,Mężczyzna,2022-06-25_15h32.00.470,task,2021.1.4,Win32,60.0348202,6299f149e92ead563fba08ef,62b70e46f66b8c0ed63fc260,,,,,,,,,,,,,,,,,,,,,,,,,,,,,,,,,,,,,,,,,,,,,,,,,,,,,,,,,,,,,,,,,,,,,,,,,,,,,,,,,,,,,,,,,,,,"[""period""]",0,[0.47220000000299933],10,0,10,0,1,,
,,,,,,,,,,,,60b7bb77c573c1a28d072811,23,Mężczyzna,2022-06-25_15h32.00.470,task,2021.1.4,Win32,60.0348202,6299f149e92ead563fba08ef,62b70e46f66b8c0ed63fc260,,,,,,,,,,,,,,,,,,,,,,,,,,,,,,,,,,,,,,,,,,,,,,,,,,,,,,,,,,,,,,,,,,,,,,,,,,,,,,,,,,,,,,,,,,,,"[""comma""]",0,[0.5119999999999436],11,0,11,0,1,,
,,,,,,,,,,,,60b7bb77c573c1a28d072811,23,Mężczyzna,2022-06-25_15h32.00.470,task,2021.1.4,Win32,60.0348202,6299f149e92ead563fba08ef,62b70e46f66b8c0ed63fc260,,,,,,,,,,,,,,,,,,,,,,,,,,,,,,,,,,,,,,,,,,,,,,,,,,,,,,,,,,,,,,,,,,,,,,,,,,,,,,,,,,,,,,,,,,,,"[""period"",""comma""]",0,"[0.023799999997095256,1.5037999999971134]",12,0,12,0,1,,
,,,,,,,,,,,,60b7bb77c573c1a28d072811,23,Mężczyzna,2022-06-25_15h32.00.470,task,2021.1.4,Win32,60.0348202,6299f149e92ead563fba08ef,62b70e46f66b8c0ed63fc260,,,,,,,,,,,,,,,,,,,,,,,,,,,,,,,,,,,,,,,,,,,,,,,,,,,,,,,,,,,,,,,,,,,,,,,,,,,,,,,,,,,,,,,,,,,,"[""period""]",0,[0.4078999999910593],13,0,13,0,1,,
,,,,,,,,,,,,60b7bb77c573c1a28d072811,23,Mężczyzna,2022-06-25_15h32.00.470,task,2021.1.4,Win32,60.0348202,6299f149e92ead563fba08ef,62b70e46f66b8c0ed63fc260,,,,,,,,,,,,,,,,,,,,,,,,,,,,,,,,,,,,,,,,,,,,,,,,,,,,,,,,,,,,,,,,,,,,,,,,,,,,,,,,,,,,,,,,,,,,"[""period""]",0,[0.3281000000089307],14,0,14,0,1,,
,,,,,,,,,,,,60b7bb77c573c1a28d072811,23,Mężczyzna,2022-06-25_15h32.00.470,task,2021.1.4,Win32,60.0348202,6299f149e92ead563fba08ef,62b70e46f66b8c0ed63fc260,,,,,,,,,,,,,,,,,,,,,,,,,,,,,,,,,,,,,,,,,,,,,,,,,,,,,,,,,,,,,,,,,,,,,,,,,,,,,,,,,,,,,,,,,,,,,0,,15,0,15,0,1,,
,,,,,,,,,,,,60b7bb77c573c1a28d072811,23,Mężczyzna,2022-06-25_15h32.00.470,task,2021.1.4,Win32,60.0348202,6299f149e92ead563fba08ef,62b70e46f66b8c0ed63fc260,,,,,,,,,,,,,,,,,,,,,,,,,,,,,,,,,,,,,,,,,,,,,,,,,,,,,,,,,,,,,,,,,,,,,,,,,,,,,,,,,,,,,,,,,,,,"[""period""]",0,[0.2483000000119091],16,0,16,0,1,,
,,,,,,,,,,,,60b7bb77c573c1a28d072811,23,Mężczyzna,2022-06-25_15h32.00.470,task,2021.1.4,Win32,60.0348202,6299f149e92ead563fba08ef,62b70e46f66b8c0ed63fc260,,,,,,,,,,,,,,,,,,,,,,,,,,,,,,,,,,,,,,,,,,,,,,,,,,,,,,,,,,,,,,,,,,,,,,,,,,,,,,,,,,,,,,,,,,,,"[""comma""]",0,[0.3201000000088925],17,0,17,0,1,,
,,,,,,,,,,,,60b7bb77c573c1a28d072811,23,Mężczyzna,2022-06-25_15h32.00.470,task,2021.1.4,Win32,60.0348202,6299f149e92ead563fba08ef,62b70e46f66b8c0ed63fc260,,,,,,,,,,,,,,,,,,,,,,,,,,,,,,,,,,,,,,,,,,,,,,,,,,,,,,,,,,,,,,,,,,,,,,,,,,,,,,,,,,,,,,,,,,,,"[""period""]",0,[0.5116000000089116],18,0,18,0,1,,
,,,,,,,,,,,,60b7bb77c573c1a28d072811,23,Mężczyzna,2022-06-25_15h32.00.470,task,2021.1.4,Win32,60.0348202,6299f149e92ead563fba08ef,62b70e46f66b8c0ed63fc260,,,,,,,,,,,,,,,,,,,,,,,,,,,,,,,,,,,,,,,,,,,,,,,,,,,,,,,,,,,,,,,,,,,,,,,,,,,,,,,,,,,,,,,,,,,,"[""comma""]",0,[0.29589999999097927],19,0,19,0,1,,
,,,,,,,,,,,,60b7bb77c573c1a28d072811,23,Mężczyzna,2022-06-25_15h32.00.470,task,2021.1.4,Win32,60.0348202,6299f149e92ead563fba08ef,62b70e46f66b8c0ed63fc260,,,,,,,,,,,,,,,,,,,,,,,,,,,,,,,,,,,,,,,,,,,,,,,,,,,,,,,,,,,,,,,,,,,,,,,,,,,,,,,,,,,,,,,,,,,,"[""period""]",0,[0.31189999999105567],20,0,20,0,1,,
,,,,,,,,,,,,60b7bb77c573c1a28d072811,23,Mężczyzna,2022-06-25_15h32.00.470,task,2021.1.4,Win32,60.0348202,6299f149e92ead563fba08ef,62b70e46f66b8c0ed63fc260,,,,,,,,,,,,,,,,,,,,,,,,,,,,,,,,,,,,,,,,,,,,,,,,,,,,,,,,,,,,,,,,,,,,,,,,,,,,,,,,,,,,,,,,,,,,"[""comma""]",0,[0.29620000000295477],21,0,21,0,1,,
,,,,,,,,,,,,60b7bb77c573c1a28d072811,23,Mężczyzna,2022-06-25_15h32.00.470,task,2021.1.4,Win32,60.0348202,6299f149e92ead563fba08ef,62b70e46f66b8c0ed63fc260,,,,,,,,,,,,,,,,,,,,,,,,,,,,,,,,,,,,,,,,,,,,,,,,,,,,,,,,,,,,,,,,,,,,,,,,,,,,,,,,,,,,,,,,,,,,"[""comma""]",0,[0.200299999997128],22,0,22,0,1,,
,,,,,,,,,,,,60b7bb77c573c1a28d072811,23,Mężczyzna,2022-06-25_15h32.00.470,task,2021.1.4,Win32,60.0348202,6299f149e92ead563fba08ef,62b70e46f66b8c0ed63fc260,,,,,,,,,,,,,,,,,,,,,,,,,,,,,,,,,,,,,,,,,,,,,,,,,,,,,,,,,,,,,,,,,,,,,,,,,,,,,,,,,,,,,,,,,,,,"[""period""]",0,[0.2479000000059841],23,0,23,0,1,,
,,,,,,,,,,,,60b7bb77c573c1a28d072811,23,Mężczyzna,2022-06-25_15h32.00.470,task,2021.1.4,Win32,60.0348202,6299f149e92ead563fba08ef,62b70e46f66b8c0ed63fc260,,,,,,,,,,,,,,,,,,,,,,,,,,,,,,,,,,,,,,,,,,,,,,,,,,,,,,,,,,,,,,,,,,,,,,,,,,,,,,,,,,,,,,,,,,,,"[""comma""]",0,[0.5038999999910629],24,0,24,0,1,,
,,,,,,,,,,,,60b7bb77c573c1a28d072811,23,Mężczyzna,2022-06-25_15h32.00.470,task,2021.1.4,Win32,60.0348202,6299f149e92ead563fba08ef,62b70e46f66b8c0ed63fc260,,,,,,,,,,,,,,,,,,,,,,,,,,,,,,,,,,,,,,,,,,,,,,,,,,,,,,,,,,,,,,,,,,,,,,,,,,,,,,,,,,,,,,,,,,,,"[""period""]",0,[0.3918999999909829],25,0,25,0,1,,
,,,,,,,,,,,,60b7bb77c573c1a28d072811,23,Mężczyzna,2022-06-25_15h32.00.470,task,2021.1.4,Win32,60.0348202,6299f149e92ead563fba08ef,62b70e46f66b8c0ed63fc260,,,,,,,,,,,,,,,,,,,,,,,,,,,,,,,,,,,,,,,,,,,,,,,,,,,,,,,,,,,,,,,,,,,,,,,,,,,,,,,,,,,,,,,,,,,,"[""period""]",0,[0.49570000000301206],26,0,26,0,1,,
,,,,,,,,,,,,60b7bb77c573c1a28d072811,23,Mężczyzna,2022-06-25_15h32.00.470,task,2021.1.4,Win32,60.0348202,6299f149e92ead563fba08ef,62b70e46f66b8c0ed63fc260,,,,,,,,,,,,,,,,,,,,,,,,,,,,,,,,,,,,,,,,,,,,,,,,,,,,,,,,,,,,,,,,,,,,,,,,,,,,,,,,,,,,,,,,,,,,"[""comma""]",0,[0.4005999999940286],27,0,27,0,1,,
,,,,,,,,,,,,60b7bb77c573c1a28d072811,23,Mężczyzna,2022-06-25_15h32.00.470,task,2021.1.4,Win32,60.0348202,6299f149e92ead563fba08ef,62b70e46f66b8c0ed63fc260,,,,,,,,,,,,,,,,,,,,,,,,,,,,,,,,,,,,,,,,,,,,,,,,,,,,,,,,,,,,,,,,,,,,,,,,,,,,,,,,,,,,,,,,,,,,"[""period""]",0,[0.023700000003032073],28,0,28,0,1,,
,,,,,,,,,,,,60b7bb77c573c1a28d072811,23,Mężczyzna,2022-06-25_15h32.00.470,task,2021.1.4,Win32,60.0348202,6299f149e92ead563fba08ef,62b70e46f66b8c0ed63fc260,,,,,,,,,,,,,,,,,,,,,,,,,,,,,,,,,,,,,,,,,,,,,,,,,,,,,,,,,,,,,,,,,,,,,,,,,,,,,,,,,,,,,,,,,,,,"[""period""]",0,[0.1675000000000182],29,0,29,0,1,,
,,,,,,,,,,,,60b7bb77c573c1a28d072811,23,Mężczyzna,2022-06-25_15h32.00.470,task,2021.1.4,Win32,60.0348202,6299f149e92ead563fba08ef,62b70e46f66b8c0ed63fc260,,,,,,,,,,,,,,,,,,,,,,,,,,,,,,,,,,,,,,,,,,,,,,,,,,,,,,,,,,,,,,,,,,,,,,,,,,,,,,,,,,,,,,,,,,,,"[""period""]",0,[0.2319000000060214],30,0,30,0,1,,
,,,,,,,,,,,,60b7bb77c573c1a28d072811,23,Mężczyzna,2022-06-25_15h32.00.470,task,2021.1.4,Win32,60.0348202,6299f149e92ead563fba08ef,62b70e46f66b8c0ed63fc260,,,,,,,,,,,,,,,,,,,,,,,,,,,,,,,,,,,,,,,,,,,,,,,,,,,,,,,,,,,,,,,,,,,,,,,,,,,,,,,,,,,,,,,,,,,,"[""comma"",""comma""]",0,"[0.26379999999710435,1.9439000000060105]",31,0,31,0,1,,
,,,,,,,,,,,,60b7bb77c573c1a28d072811,23,Mężczyzna,2022-06-25_15h32.00.470,task,2021.1.4,Win32,60.0348202,6299f149e92ead563fba08ef,62b70e46f66b8c0ed63fc260,,,,,,,,,,,,,,,,,,,,,,,,,,,,,,,,,,,,,,,,,,,,,,,,,,,,,,,,,,,,,,,,,,,,,,,,,,,,,,,,,,,,,,,,,,,,,0,,32,0,32,0,1,,
,,,,,,,,,,,,60b7bb77c573c1a28d072811,23,Mężczyzna,2022-06-25_15h32.00.470,task,2021.1.4,Win32,60.0348202,6299f149e92ead563fba08ef,62b70e46f66b8c0ed63fc260,,,,,,,,,,,,,,,,,,,,,,,,,,,,,,,,,,,,,,,,,,,,,,,,,,,,,,,,,,,,,,,,,,,,,,,,,,,,,,,,,,,,,,,,,,,,"[""comma""]",0,[0.22360000000901437],33,0,33,0,1,,
,,,,,,,,,,,,60b7bb77c573c1a28d072811,23,Mężczyzna,2022-06-25_15h32.00.470,task,2021.1.4,Win32,60.0348202,6299f149e92ead563fba08ef,62b70e46f66b8c0ed63fc260,,,,,,,,,,,,,,,,,,,,,,,,,,,,,,,,,,,,,,,,,,,,,,,,,,,,,,,,,,,,,,,,,,,,,,,,,,,,,,,,,,,,,,,,,,,,"[""period""]",0,[0.1438999999910493],34,0,34,0,1,,
,,,,,,,,,,,,60b7bb77c573c1a28d072811,23,Mężczyzna,2022-06-25_15h32.00.470,task,2021.1.4,Win32,60.0348202,6299f149e92ead563fba08ef,62b70e46f66b8c0ed63fc260,,,,,,,,,,,,,,,,,,,,,,,,,,,,,,,,,,,,,,,,,,,,,,,,,,,,,,,,,,,,,,,,,,,,,,,,,,,,,,,,,,,,,,,,,,,,"[""comma""]",0,[0.2876000000089789],35,0,35,0,1,,
,,,,,,,,,,,,60b7bb77c573c1a28d072811,23,Mężczyzna,2022-06-25_15h32.00.470,task,2021.1.4,Win32,60.0348202,6299f149e92ead563fba08ef,62b70e46f66b8c0ed63fc260,,,,,,,,,,,,,,,,,,,,,,,,,,,,,,,,,,,,,,,,,,,,,,,,,,,,,,,,,,,,,,,,,,,,,,,,,,,,,,,,,,,,,,,,,,,,"[""period""]",0,[0.3352999999970052],36,0,36,0,1,,
,,,,,,,,,,,,60b7bb77c573c1a28d072811,23,Mężczyzna,2022-06-25_15h32.00.470,task,2021.1.4,Win32,60.0348202,6299f149e92ead563fba08ef,62b70e46f66b8c0ed63fc260,,,,,,,,,,,,,,,,,,,,,,,,,,,,,,,,,,,,,,,,,,,,,,,,,,,,,,,,,,,,,,,,,,,,,,,,,,,,,,,,,,,,,,,,,,,,"[""comma""]",0,[0.31990000000598684],37,0,37,0,1,,
,,,,,,,,,,,,60b7bb77c573c1a28d072811,23,Mężczyzna,2022-06-25_15h32.00.470,task,2021.1.4,Win32,60.0348202,6299f149e92ead563fba08ef,62b70e46f66b8c0ed63fc260,,,,,,,,,,,,,,,,,,,,,,,,,,,,,,,,,,,,,,,,,,,,,,,,,,,,,,,,,,,,,,,,,,,,,,,,,,,,,,,,,,,,,,,,,,,,"[""period""]",0,[0.31959999999401134],38,0,38,0,1,,
,,,,,,,,,,,,60b7bb77c573c1a28d072811,23,Mężczyzna,2022-06-25_15h32.00.470,task,2021.1.4,Win32,60.0348202,6299f149e92ead563fba08ef,62b70e46f66b8c0ed63fc260,,,,,,,,,,,,,,,,,,,,,,,,,,,,,,,,,,,,,,,,,,,,,,,,,,,,,,,,,,,,,,,,,,,,,,,,,,,,,,,,,,,,,,,,,,,,"[""comma""]",0,[0.6397000000030175],39,0,39,0,1,,
,,,,,,,,,,,,60b7bb77c573c1a28d072811,23,Mężczyzna,2022-06-25_15h32.00.470,task,2021.1.4,Win32,60.0348202,6299f149e92ead563fba08ef,62b70e46f66b8c0ed63fc260,,,,,,,,,,,,,,,,,,,,,,,,,,,,,,,,,,,,,,,,,,,,,,,,,,,,,,,,,,,,,,,,,,,,,,,,,,,,,,,,,,,,,,,,,,,,"[""period""]",0,[0.8955999999940332],40,0,40,0,1,,
,,,,,,,,,,,,60b7bb77c573c1a28d072811,23,Mężczyzna,2022-06-25_15h32.00.470,task,2021.1.4,Win32,60.0348202,6299f149e92ead563fba08ef,62b70e46f66b8c0ed63fc260,,,,,,,,,,,,,,,,,,,,,,,,,,,,,,,,,,,,,,,,,,,,,,,,,,,,,,,,,,,,,,,,,,,,,,,,,,,,,,,,,,,,,,,,,,,,"[""period""]",0,[0.54380000001197],41,0,41,0,1,,
,,,,,,,,,,,,60b7bb77c573c1a28d072811,23,Mężczyzna,2022-06-25_15h32.00.470,task,2021.1.4,Win32,60.0348202,6299f149e92ead563fba08ef,62b70e46f66b8c0ed63fc260,,,,,,,,,,,,,,,,,,,,,,,,,,,,,,,,,,,,,,,,,,,,,,,,,,,,,,,,,,,,,,,,,,,,,,,,,,,,,,,,,,,,,,,,,,,,"[""comma""]",0,[0.5842000000030794],42,0,42,0,1,,
,,,,,,,,,,,,60b7bb77c573c1a28d072811,23,Mężczyzna,2022-06-25_15h32.00.470,task,2021.1.4,Win32,60.0348202,6299f149e92ead563fba08ef,62b70e46f66b8c0ed63fc260,,,,,,,,,,,,,,,,,,,,,,,,,,,,,,,,,,,,,,,,,,,,,,,,,,,,,,,,,,,,,,,,,,,,,,,,,,,,,,,,,,,,,,,,,,,,"[""comma""]",0,[0.5347000000029993],43,0,43,0,1,,
,,,,,,,,,,,,60b7bb77c573c1a28d072811,23,Mężczyzna,2022-06-25_15h32.00.470,task,2021.1.4,Win32,60.0348202,6299f149e92ead563fba08ef,62b70e46f66b8c0ed63fc260,,,,,,,,,,,,,,,,,,,,,,,,,,,,,,,,,,,,,,,,,,,,,,,,,,,,,,,,,,,,,,,,,,,,,,,,,,,,,,,,,,,,,,,,,,,,"[""period""]",0,[0.35149999999998727],44,0,44,0,1,,
,,,,,,,,,,,,60b7bb77c573c1a28d072811,23,Mężczyzna,2022-06-25_15h32.00.470,task,2021.1.4,Win32,60.0348202,6299f149e92ead563fba08ef,62b70e46f66b8c0ed63fc260,,,,,,,,,,,,,,,,,,,,,,,,,,,,,,,,,,,,,,,,,,,,,,,,,,,,,,,,,,,,,,,,,,,,,,,,,,,,,,,,,,,,,,,,,,,,"[""comma""]",0,[0.7115999999940641],45,0,45,0,1,,
,,,,,,,,,,,,60b7bb77c573c1a28d072811,23,Mężczyzna,2022-06-25_15h32.00.470,task,2021.1.4,Win32,60.0348202,6299f149e92ead563fba08ef,62b70e46f66b8c0ed63fc260,,,,,,,,,,,,,,,,,,,,,,,,,,,,,,,,,,,,,,,,,,,,,,,,,,,,,,,,,,,,,,,,,,,,,,,,,,,,,,,,,,,,,,,,,,,,"[""period""]",0,[0.775799999997048],46,0,46,0,1,,
,,,,,,,,,,,,60b7bb77c573c1a28d072811,23,Mężczyzna,2022-06-25_15h32.00.470,task,2021.1.4,Win32,60.0348202,6299f149e92ead563fba08ef,62b70e46f66b8c0ed63fc260,,,,,,,,,,,,,,,,,,,,,,,,,,,,,,,,,,,,,,,,,,,,,,,,,,,,,,,,,,,,,,,,,,,,,,,,,,,,,,,,,,,,,,,,,,,,"[""comma""]",0,[0.7117999999970834],47,0,47,0,1,,
,,,,,,,,,,,,60b7bb77c573c1a28d072811,23,Mężczyzna,2022-06-25_15h32.00.470,task,2021.1.4,Win32,60.0348202,6299f149e92ead563fba08ef,62b70e46f66b8c0ed63fc260,,,,,,,,,,,,,,,,,,,,,,,,,,,,,,,,,,,,,,,,,,,,,,,,,,,,,,,,,,,,,,,,,,,,,,,,,,,,,,,,,,,,,,,,,,,,"[""period""]",0,[0.4555999999940923],48,0,48,0,1,,
,,,,,,,,,,,,60b7bb77c573c1a28d072811,23,Mężczyzna,2022-06-25_15h32.00.470,task,2021.1.4,Win32,60.0348202,6299f149e92ead563fba08ef,62b70e46f66b8c0ed63fc260,,,,,,,,,,,,,,,,,,,,,,,,,,,,,,,,,,,,,,,,,,,,,,,,,,,,,,,,,,,,,,,,,,,,,,,,,,,,,,,,,,,,,,,,,,,,"[""period""]",0,[0.6875],49,0,49,0,1,,
,,,,,,,,,,,,60b7bb77c573c1a28d072811,23,Mężczyzna,2022-06-25_15h32.00.470,task,2021.1.4,Win32,60.0348202,6299f149e92ead563fba08ef,62b70e46f66b8c0ed63fc260,,,,,,,,,,,,,,,,,,,,,,,,,,,,,,,,,,,,,,,,,,,,,,,,,,,,,,,,,,,,,,,,,,,,,,,,,,,,,,,,,,,,,,,,,,,,"[""comma""]",0,[0.3596000000089816],50,0,50,0,1,,
,,,,,,,,,,,,60b7bb77c573c1a28d072811,23,Mężczyzna,2022-06-25_15h32.00.470,task,2021.1.4,Win32,60.0348202,6299f149e92ead563fba08ef,62b70e46f66b8c0ed63fc260,,,,,,,,,,,,,,,,,,,,,,,,,,,,,,,,,,,,,,,,,,,,,,,,,,,,,,,,,,,,,,,,,,,,,,,,,,,,,,,,,,,,,,,,,,,,"[""comma""]",0,[0.6637999999970816],51,0,51,0,1,,
,,,,,,,,,,,,60b7bb77c573c1a28d072811,23,Mężczyzna,2022-06-25_15h32.00.470,task,2021.1.4,Win32,60.0348202,6299f149e92ead563fba08ef,62b70e46f66b8c0ed63fc260,,,,,,,,,,,,,,,,,,,,,,,,,,,,,,,,,,,,,,,,,,,,,,,,,,,,,,,,,,,,,,,,,,,,,,,,,,,,,,,,,,,,,,,,,,,,"[""period""]",0,[0.6005000000000109],52,0,52,0,1,,
,,,,,,,,,,,,60b7bb77c573c1a28d072811,23,Mężczyzna,2022-06-25_15h32.00.470,task,2021.1.4,Win32,60.0348202,6299f149e92ead563fba08ef,62b70e46f66b8c0ed63fc260,,,,,,,,,,,,,,,,,,,,,,,,,,,,,,,,,,,,,,,,,,,,,,,,,,,,,,,,,,,,,,,,,,,,,,,,,,,,,,,,,,,,,,,,,,,,"[""period""]",0,[0.5353999999910002],53,0,53,0,1,,
,,,,,,,,,,,,60b7bb77c573c1a28d072811,23,Mężczyzna,2022-06-25_15h32.00.470,task,2021.1.4,Win32,60.0348202,6299f149e92ead563fba08ef,62b70e46f66b8c0ed63fc260,,,,,,,,,,,,,,,,,,,,,,,,,,,,,,,,,,,,,,,,,,,,,,,,,,,,,,,,,,,,,,,,,,,,,,,,,,,,,,,,,,,,,,,,,,,,"[""period""]",0,[0.6235000000000355],54,0,54,0,1,,
,,,,,,,,,,,,60b7bb77c573c1a28d072811,23,Mężczyzna,2022-06-25_15h32.00.470,task,2021.1.4,Win32,60.0348202,6299f149e92ead563fba08ef,62b70e46f66b8c0ed63fc260,,,,,,,,,,,,,,,,,,,,,,,,,,,,,,,,,,,,,,,,,,,,,,,,,,,,,,,,,,,,,,,,,,,,,,,,,,,,,,,,,,,,,,,,,,,,"[""comma""]",0,[0.4474999999999909],55,0,55,0,1,,
,,,,,,,,,,,,60b7bb77c573c1a28d072811,23,Mężczyzna,2022-06-25_15h32.00.470,task,2021.1.4,Win32,60.0348202,6299f149e92ead563fba08ef,62b70e46f66b8c0ed63fc260,,,,,,,,,,,,,,,,,,,,,,,,,,,,,,,,,,,,,,,,,,,,,,,,,,,,,,,,,,,,,,,,,,,,,,,,,,,,,,,,,,,,,,,,,,,,"[""comma""]",0,[0.655600000008917],56,0,56,0,1,,
,,,,,,,,,,,,60b7bb77c573c1a28d072811,23,Mężczyzna,2022-06-25_15h32.00.470,task,2021.1.4,Win32,60.0348202,6299f149e92ead563fba08ef,62b70e46f66b8c0ed63fc260,,,,,,,,,,,,,,,,,,,,,,,,,,,,,,,,,,,,,,,,,,,,,,,,,,,,,,,,,,,,,,,,,,,,,,,,,,,,,,,,,,,,,,,,,,,,"[""period""]",0,[0.4234000000059268],57,0,57,0,1,,
,,,,,,,,,,,,60b7bb77c573c1a28d072811,23,Mężczyzna,2022-06-25_15h32.00.470,task,2021.1.4,Win32,60.0348202,6299f149e92ead563fba08ef,62b70e46f66b8c0ed63fc260,,,,,,,,,,,,,,,,,,,,,,,,,,,,,,,,,,,,,,,,,,,,,,,,,,,,,,,,,,,,,,,,,,,,,,,,,,,,,,,,,,,,,,,,,,,,"[""period""]",0,[0.41720000000304935],58,0,58,0,1,,
,,,,,,,,,,,,60b7bb77c573c1a28d072811,23,Mężczyzna,2022-06-25_15h32.00.470,task,2021.1.4,Win32,60.0348202,6299f149e92ead563fba08ef,62b70e46f66b8c0ed63fc260,,,,,,,,,,,,,,,,,,,,,,,,,,,,,,,,,,,,,,,,,,,,,,,,,,,,,,,,,,,,,,,,,,,,,,,,,,,,,,,,,,,,,,,,,,,,"[""comma""]",0,[0.83949999999993],59,0,59,0,1,,
,,,,,,,,,,,,60b7bb77c573c1a28d072811,23,Mężczyzna,2022-06-25_15h32.00.470,task,2021.1.4,Win32,60.0348202,6299f149e92ead563fba08ef,62b70e46f66b8c0ed63fc260,,,,,,,,,,,,,,,,,,,,,,,,,,,,,,,,,,,,,,,,,,,,,,,,,,,,,,,,,,,,,,,,,,,,,,,,,,,,,,,,,,,,,,,,,,,,"[""period""]",0,[0.8394000000059805],60,0,60,0,1,,
,,,,,,,,,,,,60b7bb77c573c1a28d072811,23,Mężczyzna,2022-06-25_15h32.00.470,task,2021.1.4,Win32,60.0348202,6299f149e92ead563fba08ef,62b70e46f66b8c0ed63fc260,,,,,,,,,,,,,,,,,,,,,,,,,,,,,,,,,,,,,,,,,,,,,,,,,,,,,,,,,,,,,,,,,,,,,,,,,,,,,,,,,,,,,,,,,,,,"[""comma""]",0,[0.5596000000089134],61,0,61,0,1,,
,,,,,,,,,,,,60b7bb77c573c1a28d072811,23,Mężczyzna,2022-06-25_15h32.00.470,task,2021.1.4,Win32,60.0348202,6299f149e92ead563fba08ef,62b70e46f66b8c0ed63fc260,,,,,,,,,,,,,,,,,,,,,,,,,,,,,,,,,,,,,,,,,,,,,,,,,,,,,,,,,,,,,,,,,,,,,,,,,,,,,,,,,,,,,,,,,,,,"[""comma""]",0,[0.5034000000059677],62,0,62,0,1,,
,,,,,,,,,,,,60b7bb77c573c1a28d072811,23,Mężczyzna,2022-06-25_15h32.00.470,task,2021.1.4,Win32,60.0348202,6299f149e92ead563fba08ef,62b70e46f66b8c0ed63fc260,,,,,,,,,,,,,,,,,,,,,,,,,,,,,,,,,,,,,,,,,,,,,,,,,,,,,,,,,,,,,,,,,,,,,,,,,,,,,,,,,,,,,,,,,,,,"[""comma""]",0,[0.679600000008918],63,0,63,0,1,,
,,,,,,,,,,,,60b7bb77c573c1a28d072811,23,Mężczyzna,2022-06-25_15h32.00.470,task,2021.1.4,Win32,60.0348202,6299f149e92ead563fba08ef,62b70e46f66b8c0ed63fc260,,,,,,,,,,,,,,,,,,,,,,,,,,,,,,,,,,,,,,,,,,,,,,,,,,,,,,,,,,,,,,,,,,,,,,,,,,,,,,,,,,,,,,,,,,,,"[""period""]",0,[0.4078999999910593],64,0,64,0,1,,
,,,,,,,,,,,,60b7bb77c573c1a28d072811,23,Mężczyzna,2022-06-25_15h32.00.470,task,2021.1.4,Win32,60.0348202,6299f149e92ead563fba08ef,62b70e46f66b8c0ed63fc260,,,,,,,,,,,,,,,,,,,,,,,,,,,,,,,,,,,,,,,,,,,,,,,,,,,,,,,,,,,,,,,,,,,,,,,,,,,,,,,,,,,,,,,,,,,,"[""period""]",0,[0.6873999999910438],65,0,65,0,1,,
,,,,,,,,,,,,60b7bb77c573c1a28d072811,23,Mężczyzna,2022-06-25_15h32.00.470,task,2021.1.4,Win32,60.0348202,6299f149e92ead563fba08ef,62b70e46f66b8c0ed63fc260,,,,,,,,,,,,,,,,,,,,,,,,,,,,,,,,,,,,,,,,,,,,,,,,,,,,,,,,,,,,,,,,,,,,,,,,,,,,,,,,,,,,,,,,,,,,"[""period""]",0,[0.3513999999910311],66,0,66,0,1,,
,,,,,,,,,,,,60b7bb77c573c1a28d072811,23,Mężczyzna,2022-06-25_15h32.00.470,task,2021.1.4,Win32,60.0348202,6299f149e92ead563fba08ef,62b70e46f66b8c0ed63fc260,,,,,,,,,,,,,,,,,,,,,,,,,,,,,,,,,,,,,,,,,,,,,,,,,,,,,,,,,,,,,,,,,,,,,,,,,,,,,,,,,,,,,,,,,,,,"[""comma""]",0,[0.38369999998803905],67,0,67,0,1,,
,,,,,,,,,,,,60b7bb77c573c1a28d072811,23,Mężczyzna,2022-06-25_15h32.00.470,task,2021.1.4,Win32,60.0348202,6299f149e92ead563fba08ef,62b70e46f66b8c0ed63fc260,,,,,,,,,,,,,,,,,,,,,,,,,,,,,,,,,,,,,,,,,,,,,,,,,,,,,,,,,,,,,,,,,,,,,,,,,,,,,,,,,,,,,,,,,,,,"[""period""]",0,[0.375400000005925],68,0,68,0,1,,
,,,,,,,,,,,,60b7bb77c573c1a28d072811,23,Mężczyzna,2022-06-25_15h32.00.470,task,2021.1.4,Win32,60.0348202,6299f149e92ead563fba08ef,62b70e46f66b8c0ed63fc260,,,,,,,,,,,,,,,,,,,,,,,,,,,,,,,,,,,,,,,,,,,,,,,,,,,,,,,,,,,,,,,,,,,,,,,,,,,,,,,,,,,,,,,,,,,,"[""comma""]",0,[0.4712000000029093],69,0,69,0,1,,
,,,,,,,,,,,,60b7bb77c573c1a28d072811,23,Mężczyzna,2022-06-25_15h32.00.470,task,2021.1.4,Win32,60.0348202,6299f149e92ead563fba08ef,62b70e46f66b8c0ed63fc260,,,,,,,,,,,,,,,,,,,,,,,,,,,,,,,,,,,,,,,,,,,,,,,,,,,,,,,,,,,,,,,,,,,,,,,,,,,,,,,,,,,,,,,,,,,,"[""period""]",0,[0.44700000000000273],70,0,70,0,1,,
,,,,,,,,,,,,60b7bb77c573c1a28d072811,23,Mężczyzna,2022-06-25_15h32.00.470,task,2021.1.4,Win32,60.0348202,6299f149e92ead563fba08ef,62b70e46f66b8c0ed63fc260,,,,,,,,,,,,,,,,,,,,,,,,,,,,,,,,,,,,,,,,,,,,,,,,,,,,,,,,,,,,,,,,,,,,,,,,,,,,,,,,,,,,,,,,,,,,"[""period""]",0,[0.7514999999999645],71,0,71,0,1,,
,,,,,,,,,,,,60b7bb77c573c1a28d072811,23,Mężczyzna,2022-06-25_15h32.00.470,task,2021.1.4,Win32,60.0348202,6299f149e92ead563fba08ef,62b70e46f66b8c0ed63fc260,,,,,,,,,,,,,,,,,,,,,,,,,,,,,,,,,,,,,,,,,,,,,,,,,,,,,,,,,,,,,,,,,,,,,,,,,,,,,,,,,,,,,,,,,,,,"[""comma""]",0,[0.6955000000000382],72,0,72,0,1,,
,,,,,,,,,,,,60b7bb77c573c1a28d072811,23,Mężczyzna,2022-06-25_15h32.00.470,task,2021.1.4,Win32,60.0348202,6299f149e92ead563fba08ef,62b70e46f66b8c0ed63fc260,,,,,,,,,,,,,,,,,,,,,,,,,,,,,,,,,,,,,,,,,,,,,,,,,,,,,,,,,,,,,,,,,,,,,,,,,,,,,,,,,,,,,,,,,,,,"[""period""]",0,[0.7914000000059787],73,0,73,0,1,,
,,,,,,,,,,,,60b7bb77c573c1a28d072811,23,Mężczyzna,2022-06-25_15h32.00.470,task,2021.1.4,Win32,60.0348202,6299f149e92ead563fba08ef,62b70e46f66b8c0ed63fc260,,,,,,,,,,,,,,,,,,,,,,,,,,,,,,,,,,,,,,,,,,,,,,,,,,,,,,,,,,,,,,,,,,,,,,,,,,,,,,,,,,,,,,,,,,,,"[""period""]",0,[0.81719999998802],74,0,74,0,1,,
,,,,,,,,,,,,60b7bb77c573c1a28d072811,23,Mężczyzna,2022-06-25_15h32.00.470,task,2021.1.4,Win32,60.0348202,6299f149e92ead563fba08ef,62b70e46f66b8c0ed63fc260,,,,,,,,,,,,,,,,,,,,,,,,,,,,,,,,,,,,,,,,,,,,,,,,,,,,,,,,,,,,,,,,,,,,,,,,,,,,,,,,,,,,,,,,,,,,"[""comma""]",0,[0.3192999999970425],75,0,75,0,1,,
,,,,,,,,,,,,60b7bb77c573c1a28d072811,23,Mężczyzna,2022-06-25_15h32.00.470,task,2021.1.4,Win32,60.0348202,6299f149e92ead563fba08ef,62b70e46f66b8c0ed63fc260,,,,,,,,,,,,,,,,,,,,,,,,,,,,,,,,,,,,,,,,,,,,,,,,,,,,,,,,,,,,,,,,,,,,,,,,,,,,,,,,,,,,,,,,,,,,"[""comma""]",0,[0.2952999999970416],76,0,76,0,1,,
,,,,,,,,,,,,60b7bb77c573c1a28d072811,23,Mężczyzna,2022-06-25_15h32.00.470,task,2021.1.4,Win32,60.0348202,6299f149e92ead563fba08ef,62b70e46f66b8c0ed63fc260,,,,,,,,,,,,,,,,,,,,,,,,,,,,,,,,,,,,,,,,,,,,,,,,,,,,,,,,,,,,,,,,,,,,,,,,,,,,,,,,,,,,,,,,,,,,"[""comma""]",0,[0.319399999990992],77,0,77,0,1,,
,,,,,,,,,,,,60b7bb77c573c1a28d072811,23,Mężczyzna,2022-06-25_15h32.00.470,task,2021.1.4,Win32,60.0348202,6299f149e92ead563fba08ef,62b70e46f66b8c0ed63fc260,,,,,,,,,,,,,,,,,,,,,,,,,,,,,,,,,,,,,,,,,,,,,,,,,,,,,,,,,,,,,,,,,,,,,,,,,,,,,,,,,,,,,,,,,,,,"[""comma""]",0,[0.27140000000599684],78,0,78,0,1,,
,,,,,,,,,,,,60b7bb77c573c1a28d072811,23,Mężczyzna,2022-06-25_15h32.00.470,task,2021.1.4,Win32,60.0348202,6299f149e92ead563fba08ef,62b70e46f66b8c0ed63fc260,,,,,,,,,,,,,,,,,,,,,,,,,,,,,,,,,,,,,,,,,,,,,,,,,,,,,,,,,,,,,,,,,,,,,,,,,,,,,,,,,,,,,,,,,,,,"[""period""]",0,[0.2716000000089025],79,0,79,0,1,,
,,,,,,,,,,,,60b7bb77c573c1a28d072811,23,Mężczyzna,2022-06-25_15h32.00.470,task,2021.1.4,Win32,60.0348202,6299f149e92ead563fba08ef,62b70e46f66b8c0ed63fc260,,,,,,,,,,,,,,,,,,,,,,,,,,,,,,,,,,,,,,,,,,,,,,,,,,,,,,,,,,,,,,,,,,,,,,,,,,,,,,,,,,,,,,,,,,,,"[""period""]",0,[0.3834999999999127],80,0,80,0,1,,
,,,,,,,,,,,,60b7bb77c573c1a28d072811,23,Mężczyzna,2022-06-25_15h32.00.470,task,2021.1.4,Win32,60.0348202,6299f149e92ead563fba08ef,62b70e46f66b8c0ed63fc260,,,,,,,,,,,,,,,,,,,,,,,,,,,,,,,,,,,,,,,,,,,,,,,,,,,,,,,,,,,,,,,,,,,,,,,,,,,,,,,,,,,,,,,,,,,,"[""comma""]",0,[0.4635999999940168],81,0,81,0,1,,
,,,,,,,,,,,,60b7bb77c573c1a28d072811,23,Mężczyzna,2022-06-25_15h32.00.470,task,2021.1.4,Win32,60.0348202,6299f149e92ead563fba08ef,62b70e46f66b8c0ed63fc260,,,,,,,,,,,,,,,,,,,,,,,,,,,,,,,,,,,,,,,,,,,,,,,,,,,,,,,,,,,,,,,,,,,,,,,,,,,,,,,,,,,,,,,,,,,,"[""comma""]",0,[0.3032999999969661],82,0,82,0,1,,
,,,,,,,,,,,,60b7bb77c573c1a28d072811,23,Mężczyzna,2022-06-25_15h32.00.470,task,2021.1.4,Win32,60.0348202,6299f149e92ead563fba08ef,62b70e46f66b8c0ed63fc260,,,,,,,,,,,,,,,,,,,,,,,,,,,,,,,,,,,,,,,,,,,,,,,,,,,,,,,,,,,,,,,,,,,,,,,,,,,,,,,,,,,,,,,,,,,,"[""comma""]",0,[0.2953999999909911],83,0,83,0,1,,
,,,,,,,,,,,,60b7bb77c573c1a28d072811,23,Mężczyzna,2022-06-25_15h32.00.470,task,2021.1.4,Win32,60.0348202,6299f149e92ead563fba08ef,62b70e46f66b8c0ed63fc260,,,,,,,,,,,,,,,,,,,,,,,,,,,,,,,,,,,,,,,,,,,,,,,,,,,,,,,,,,,,,,,,,,,,,,,,,,,,,,,,,,,,,,,,,,,,"[""period""]",0,[0.3354000000059614],84,0,84,0,1,,
,,,,,,,,,,,,60b7bb77c573c1a28d072811,23,Mężczyzna,2022-06-25_15h32.00.470,task,2021.1.4,Win32,60.0348202,6299f149e92ead563fba08ef,62b70e46f66b8c0ed63fc260,,,,,,,,,,,,,,,,,,,,,,,,,,,,,,,,,,,,,,,,,,,,,,,,,,,,,,,,,,,,,,,,,,,,,,,,,,,,,,,,,,,,,,,,,,,,"[""comma""]",0,[0.5432999999969752],85,0,85,0,1,,
,,,,,,,,,,,,60b7bb77c573c1a28d072811,23,Mężczyzna,2022-06-25_15h32.00.470,task,2021.1.4,Win32,60.0348202,6299f149e92ead563fba08ef,62b70e46f66b8c0ed63fc260,,,,,,,,,,,,,,,,,,,,,,,,,,,,,,,,,,,,,,,,,,,,,,,,,,,,,,,,,,,,,,,,,,,,,,,,,,,,,,,,,,,,,,,,,,,,"[""period""]",0,[0.40079999999704796],86,0,86,0,1,,
,,,,,,,,,,,,60b7bb77c573c1a28d072811,23,Mężczyzna,2022-06-25_15h32.00.470,task,2021.1.4,Win32,60.0348202,6299f149e92ead563fba08ef,62b70e46f66b8c0ed63fc260,,,,,,,,,,,,,,,,,,,,,,,,,,,,,,,,,,,,,,,,,,,,,,,,,,,,,,,,,,,,,,,,,,,,,,,,,,,,,,,,,,,,,,,,,,,,"[""comma""]",0,[0.29509999999402226],87,0,87,0,1,,
,,,,,,,,,,,,60b7bb77c573c1a28d072811,23,Mężczyzna,2022-06-25_15h32.00.470,task,2021.1.4,Win32,60.0348202,6299f149e92ead563fba08ef,62b70e46f66b8c0ed63fc260,,,,,,,,,,,,,,,,,,,,,,,,,,,,,,,,,,,,,,,,,,,,,,,,,,,,,,,,,,,,,,,,,,,,,,,,,,,,,,,,,,,,,,,,,,,,"[""comma""]",0,[0.36760000000890614],88,0,88,0,1,,
