key_resp_15.keys,key_resp_15.rt,key_resp_16.keys,key_resp_16.rt,key_resp_4.keys,key_resp_4.rt,next_letter.thisRepN,next_letter.thisTrialN,next_letter.thisN,next_letter.thisIndex,next_letter.ran,letter,participant,Wiek*,Płeć,date,expName,psychopyVersion,OS,frameRate,study_id,session,simple_recall,key_resp_5.keys,key_resp_5.rt,simple_recall_corr,simple_recall_corrkeys,next_level.thisRepN,next_level.thisTrialN,next_level.thisN,next_level.thisIndex,next_level.ran,key_resp_2.keys,key_resp_2.rt,digit_answer,key_resp.keys,key_resp.corr,key_resp.rt,RT_list,next_equation.thisRepN,next_equation.thisTrialN,next_equation.thisN,next_equation.thisIndex,next_equation.ran,Task,Trial,Problem,Operation_answer,processing_score,sumRT,meanRT,sumdiff,sd,RT,key_resp_3.keys,key_resp_3.rt,repeat_practice.thisRepN,repeat_practice.thisTrialN,repeat_practice.thisN,repeat_practice.thisIndex,repeat_practice.ran,key_resp_6.keys,key_resp_6.rt,key_resp_11.keys,key_resp_11.corr,key_resp_11.rt,operation_correct,repeat_if_wrong_prac.thisRepN,repeat_if_wrong_prac.thisTrialN,repeat_if_wrong_prac.thisN,repeat_if_wrong_prac.thisIndex,repeat_if_wrong_prac.ran,span_size_prac.thisRepN,span_size_prac.thisTrialN,span_size_prac.thisN,span_size_prac.thisIndex,span_size_prac.ran,complex_recall_practice,key_resp_9.keys,key_resp_9.corr,key_resp_9.rt,complex_prac_corr,span_recall_prac.thisRepN,span_recall_prac.thisTrialN,span_recall_prac.thisN,span_recall_prac.thisIndex,span_recall_prac.ran,key_resp_10.keys,key_resp_10.rt,key_resp_7.keys,key_resp_7.corr,key_resp_7.rt,repeat_if_wrong.thisRepN,repeat_if_wrong.thisTrialN,repeat_if_wrong.thisN,repeat_if_wrong.thisIndex,repeat_if_wrong.ran,span_size.thisRepN,span_size.thisTrialN,span_size.thisN,span_size.thisIndex,span_size.ran,complex_recall,key_resp_8.keys,key_resp_8.corr,key_resp_8.rt,complex_recall_corr,complex_recall_corrkeys,span_recall.thisRepN,span_recall.thisTrialN,span_recall.thisN,span_recall.thisIndex,span_recall.ran,key_resp_13.keys,key_resp_13.corr,key_resp_13.rt,random_loop.thisRepN,random_loop.thisTrialN,random_loop.thisN,random_loop.thisIndex,random_loop.ran,key_resp_12.keys,key_resp_12.rt
space,1.5678,space,11.8216,space,3.7114,0,0,0,0,1,X V Q F H G B L J M P D K C T S W R N Z,60bfd7f41bbb4ec7b94d0414,20,Mężczyzna,2022-06-11_10h36.04.654,task,2021.1.4,Win32,59.44596362,6299f149e92ead563fba08ef,62a453eb3651cd7f728ce8fa,,,,,,,,,,,,,,,,,,,,,,,,,,,,,,,,,,,,,,,,,,,,,,,,,,,,,,,,,,,,,,,,,,,,,,,,,,,,,,,,,,,,,,,,,,,,,,,,,,,,,
,,,,,,1,0,1,0,1,X V Q F H G B L J M P D K C T S W R N Z,60bfd7f41bbb4ec7b94d0414,20,Mężczyzna,2022-06-11_10h36.04.654,task,2021.1.4,Win32,59.44596362,6299f149e92ead563fba08ef,62a453eb3651cd7f728ce8fa,,,,,,,,,,,,,,,,,,,,,,,,,,,,,,,,,,,,,,,,,,,,,,,,,,,,,,,,,,,,,,,,,,,,,,,,,,,,,,,,,,,,,,,,,,,,,,,,,,,,,
,,,,,,,,,,,,60bfd7f41bbb4ec7b94d0414,20,Mężczyzna,2022-06-11_10h36.04.654,task,2021.1.4,Win32,59.44596362,6299f149e92ead563fba08ef,62a453eb3651cd7f728ce8fa,zm,"[""z"",""m""]","[1.4060999999046295,1.6202000000476815,2.639499999999998]",1,ZM,0,0,0,0,1,,,,,,,,,,,,,,,,,,,,,,,,,,,,,,,,,,,,,,,,,,,,,,,,,,,,,,,,,,,,,,,,,,,,,,,,,,,,,,,,,,,,,,,,,,,
,,,,,,0,0,0,0,1,X V Q F H G B L J M P D K C T S W R N Z,60bfd7f41bbb4ec7b94d0414,20,Mężczyzna,2022-06-11_10h36.04.654,task,2021.1.4,Win32,59.44596362,6299f149e92ead563fba08ef,62a453eb3651cd7f728ce8fa,,,,,,,,,,,,,,,,,,,,,,,,,,,,,,,,,,,,,,,,,,,,,,,,,,,,,,,,,,,,,,,,,,,,,,,,,,,,,,,,,,,,,,,,,,,,,,,,,,,,,
,,,,,,1,0,1,0,1,X V Q F H G B L J M P D K C T S W R N Z,60bfd7f41bbb4ec7b94d0414,20,Mężczyzna,2022-06-11_10h36.04.654,task,2021.1.4,Win32,59.44596362,6299f149e92ead563fba08ef,62a453eb3651cd7f728ce8fa,,,,,,,,,,,,,,,,,,,,,,,,,,,,,,,,,,,,,,,,,,,,,,,,,,,,,,,,,,,,,,,,,,,,,,,,,,,,,,,,,,,,,,,,,,,,,,,,,,,,,
,,,,,,,,,,,,60bfd7f41bbb4ec7b94d0414,20,Mężczyzna,2022-06-11_10h36.04.654,task,2021.1.4,Win32,59.44596362,6299f149e92ead563fba08ef,62a453eb3651cd7f728ce8fa,vl,"[""v"",""l""]","[0.5335000000000036,0.7190999999046355,1.0275999999046377]",1,VL,1,0,1,0,1,,,,,,,,,,,,,,,,,,,,,,,,,,,,,,,,,,,,,,,,,,,,,,,,,,,,,,,,,,,,,,,,,,,,,,,,,,,,,,,,,,,,,,,,,,,
,,,,,,0,0,0,0,1,X V Q F H G B L J M P D K C T S W R N Z,60bfd7f41bbb4ec7b94d0414,20,Mężczyzna,2022-06-11_10h36.04.654,task,2021.1.4,Win32,59.44596362,6299f149e92ead563fba08ef,62a453eb3651cd7f728ce8fa,,,,,,,,,,,,,,,,,,,,,,,,,,,,,,,,,,,,,,,,,,,,,,,,,,,,,,,,,,,,,,,,,,,,,,,,,,,,,,,,,,,,,,,,,,,,,,,,,,,,,
,,,,,,1,0,1,0,1,X V Q F H G B L J M P D K C T S W R N Z,60bfd7f41bbb4ec7b94d0414,20,Mężczyzna,2022-06-11_10h36.04.654,task,2021.1.4,Win32,59.44596362,6299f149e92ead563fba08ef,62a453eb3651cd7f728ce8fa,,,,,,,,,,,,,,,,,,,,,,,,,,,,,,,,,,,,,,,,,,,,,,,,,,,,,,,,,,,,,,,,,,,,,,,,,,,,,,,,,,,,,,,,,,,,,,,,,,,,,
,,,,,,2,0,2,0,1,X V Q F H G B L J M P D K C T S W R N Z,60bfd7f41bbb4ec7b94d0414,20,Mężczyzna,2022-06-11_10h36.04.654,task,2021.1.4,Win32,59.44596362,6299f149e92ead563fba08ef,62a453eb3651cd7f728ce8fa,,,,,,,,,,,,,,,,,,,,,,,,,,,,,,,,,,,,,,,,,,,,,,,,,,,,,,,,,,,,,,,,,,,,,,,,,,,,,,,,,,,,,,,,,,,,,,,,,,,,,
,,,,,,,,,,,,60bfd7f41bbb4ec7b94d0414,20,Mężczyzna,2022-06-11_10h36.04.654,task,2021.1.4,Win32,59.44596362,6299f149e92ead563fba08ef,62a453eb3651cd7f728ce8fa,vhk,"[""v"",""h"",""k""]","[0.4839000000953675,0.6422000000476871,1.0060000000000002,1.1852999999523135]",1,VHK,2,0,2,0,1,,,,,,,,,,,,,,,,,,,,,,,,,,,,,,,,,,,,,,,,,,,,,,,,,,,,,,,,,,,,,,,,,,,,,,,,,,,,,,,,,,,,,,,,,,,
,,,,,,0,0,0,0,1,X V Q F H G B L J M P D K C T S W R N Z,60bfd7f41bbb4ec7b94d0414,20,Mężczyzna,2022-06-11_10h36.04.654,task,2021.1.4,Win32,59.44596362,6299f149e92ead563fba08ef,62a453eb3651cd7f728ce8fa,,,,,,,,,,,,,,,,,,,,,,,,,,,,,,,,,,,,,,,,,,,,,,,,,,,,,,,,,,,,,,,,,,,,,,,,,,,,,,,,,,,,,,,,,,,,,,,,,,,,,
,,,,,,1,0,1,0,1,X V Q F H G B L J M P D K C T S W R N Z,60bfd7f41bbb4ec7b94d0414,20,Mężczyzna,2022-06-11_10h36.04.654,task,2021.1.4,Win32,59.44596362,6299f149e92ead563fba08ef,62a453eb3651cd7f728ce8fa,,,,,,,,,,,,,,,,,,,,,,,,,,,,,,,,,,,,,,,,,,,,,,,,,,,,,,,,,,,,,,,,,,,,,,,,,,,,,,,,,,,,,,,,,,,,,,,,,,,,,
,,,,,,2,0,2,0,1,X V Q F H G B L J M P D K C T S W R N Z,60bfd7f41bbb4ec7b94d0414,20,Mężczyzna,2022-06-11_10h36.04.654,task,2021.1.4,Win32,59.44596362,6299f149e92ead563fba08ef,62a453eb3651cd7f728ce8fa,,,,,,,,,,,,,,,,,,,,,,,,,,,,,,,,,,,,,,,,,,,,,,,,,,,,,,,,,,,,,,,,,,,,,,,,,,,,,,,,,,,,,,,,,,,,,,,,,,,,,
,,,,,,,,,,,,60bfd7f41bbb4ec7b94d0414,20,Mężczyzna,2022-06-11_10h36.04.654,task,2021.1.4,Win32,59.44596362,6299f149e92ead563fba08ef,62a453eb3651cd7f728ce8fa,bqn,"[""b"",""q"",""n""]","[1.0802000000476895,1.450200000047687,1.6333000001907365,1.8336000001430577]",1,BQN,3,0,3,0,1,,,,,,,,,,,,,,,,,,,,,,,,,,,,,,,,,,,,,,,,,,,,,,,,,,,,,,,,,,,,,,,,,,,,,,,,,,,,,,,,,,,,,,,,,,,
,,,,,,0,0,0,0,1,X V Q F H G B L J M P D K C T S W R N Z,60bfd7f41bbb4ec7b94d0414,20,Mężczyzna,2022-06-11_10h36.04.654,task,2021.1.4,Win32,59.44596362,6299f149e92ead563fba08ef,62a453eb3651cd7f728ce8fa,,,,,,,,,,,,,,,,,,,,,,,,,,,,,,,,,,,,,,,,,,,,,,,,,,,,,,,,,,,,,,,,,,,,,,,,,,,,,,,,,,,,,,,,,,,,,,,,,,,,,
,,,,,,1,0,1,0,1,X V Q F H G B L J M P D K C T S W R N Z,60bfd7f41bbb4ec7b94d0414,20,Mężczyzna,2022-06-11_10h36.04.654,task,2021.1.4,Win32,59.44596362,6299f149e92ead563fba08ef,62a453eb3651cd7f728ce8fa,,,,,,,,,,,,,,,,,,,,,,,,,,,,,,,,,,,,,,,,,,,,,,,,,,,,,,,,,,,,,,,,,,,,,,,,,,,,,,,,,,,,,,,,,,,,,,,,,,,,,
,,,,,,2,0,2,0,1,X V Q F H G B L J M P D K C T S W R N Z,60bfd7f41bbb4ec7b94d0414,20,Mężczyzna,2022-06-11_10h36.04.654,task,2021.1.4,Win32,59.44596362,6299f149e92ead563fba08ef,62a453eb3651cd7f728ce8fa,,,,,,,,,,,,,,,,,,,,,,,,,,,,,,,,,,,,,,,,,,,,,,,,,,,,,,,,,,,,,,,,,,,,,,,,,,,,,,,,,,,,,,,,,,,,,,,,,,,,,
,,,,,,3,0,3,0,1,X V Q F H G B L J M P D K C T S W R N Z,60bfd7f41bbb4ec7b94d0414,20,Mężczyzna,2022-06-11_10h36.04.654,task,2021.1.4,Win32,59.44596362,6299f149e92ead563fba08ef,62a453eb3651cd7f728ce8fa,,,,,,,,,,,,,,,,,,,,,,,,,,,,,,,,,,,,,,,,,,,,,,,,,,,,,,,,,,,,,,,,,,,,,,,,,,,,,,,,,,,,,,,,,,,,,,,,,,,,,
,,,,,,,,,,,,60bfd7f41bbb4ec7b94d0414,20,Mężczyzna,2022-06-11_10h36.04.654,task,2021.1.4,Win32,59.44596362,6299f149e92ead563fba08ef,62a453eb3651cd7f728ce8fa,wvff,"[""w"",""v"",""f"",""f""]","[1.7895000000000039,2.1170000000000044,2.2879000000953695,2.429600000143054,2.617100000143054]",1,WVFF,4,0,4,0,1,,,,,,,,,,,,,,,,,,,,,,,,,,,,,,,,,,,,,,,,,,,,,,,,,,,,,,,,,,,,,,,,,,,,,,,,,,,,,,,,,,,,,,,,,,,
,,,,,,0,0,0,0,1,X V Q F H G B L J M P D K C T S W R N Z,60bfd7f41bbb4ec7b94d0414,20,Mężczyzna,2022-06-11_10h36.04.654,task,2021.1.4,Win32,59.44596362,6299f149e92ead563fba08ef,62a453eb3651cd7f728ce8fa,,,,,,,,,,,,,,,,,,,,,,,,,,,,,,,,,,,,,,,,,,,,,,,,,,,,,,,,,,,,,,,,,,,,,,,,,,,,,,,,,,,,,,,,,,,,,,,,,,,,,
,,,,,,1,0,1,0,1,X V Q F H G B L J M P D K C T S W R N Z,60bfd7f41bbb4ec7b94d0414,20,Mężczyzna,2022-06-11_10h36.04.654,task,2021.1.4,Win32,59.44596362,6299f149e92ead563fba08ef,62a453eb3651cd7f728ce8fa,,,,,,,,,,,,,,,,,,,,,,,,,,,,,,,,,,,,,,,,,,,,,,,,,,,,,,,,,,,,,,,,,,,,,,,,,,,,,,,,,,,,,,,,,,,,,,,,,,,,,
,,,,,,2,0,2,0,1,X V Q F H G B L J M P D K C T S W R N Z,60bfd7f41bbb4ec7b94d0414,20,Mężczyzna,2022-06-11_10h36.04.654,task,2021.1.4,Win32,59.44596362,6299f149e92ead563fba08ef,62a453eb3651cd7f728ce8fa,,,,,,,,,,,,,,,,,,,,,,,,,,,,,,,,,,,,,,,,,,,,,,,,,,,,,,,,,,,,,,,,,,,,,,,,,,,,,,,,,,,,,,,,,,,,,,,,,,,,,
,,,,,,3,0,3,0,1,X V Q F H G B L J M P D K C T S W R N Z,60bfd7f41bbb4ec7b94d0414,20,Mężczyzna,2022-06-11_10h36.04.654,task,2021.1.4,Win32,59.44596362,6299f149e92ead563fba08ef,62a453eb3651cd7f728ce8fa,,,,,,,,,,,,,,,,,,,,,,,,,,,,,,,,,,,,,,,,,,,,,,,,,,,,,,,,,,,,,,,,,,,,,,,,,,,,,,,,,,,,,,,,,,,,,,,,,,,,,
,,,,,,,,,,,,60bfd7f41bbb4ec7b94d0414,20,Mężczyzna,2022-06-11_10h36.04.654,task,2021.1.4,Win32,59.44596362,6299f149e92ead563fba08ef,62a453eb3651cd7f728ce8fa,qzll,"[""q"",""z"",""l"",""l""]","[1.109299999952313,1.3502000000476784,1.4597999999523168,1.6189000000953655,1.7335999999046336]",1,QZLL,5,0,5,0,1,,,,,,,,,,,,,,,,,,,,,,,,,,,,,,,,,,,,,,,,,,,,,,,,,,,,,,,,,,,,,,,,,,,,,,,,,,,,,,,,,,,,,,,,,,,
,,,,,,0,0,0,0,1,X V Q F H G B L J M P D K C T S W R N Z,60bfd7f41bbb4ec7b94d0414,20,Mężczyzna,2022-06-11_10h36.04.654,task,2021.1.4,Win32,59.44596362,6299f149e92ead563fba08ef,62a453eb3651cd7f728ce8fa,,,,,,,,,,,,,,,,,,,,,,,,,,,,,,,,,,,,,,,,,,,,,,,,,,,,,,,,,,,,,,,,,,,,,,,,,,,,,,,,,,,,,,,,,,,,,,,,,,,,,
,,,,,,1,0,1,0,1,X V Q F H G B L J M P D K C T S W R N Z,60bfd7f41bbb4ec7b94d0414,20,Mężczyzna,2022-06-11_10h36.04.654,task,2021.1.4,Win32,59.44596362,6299f149e92ead563fba08ef,62a453eb3651cd7f728ce8fa,,,,,,,,,,,,,,,,,,,,,,,,,,,,,,,,,,,,,,,,,,,,,,,,,,,,,,,,,,,,,,,,,,,,,,,,,,,,,,,,,,,,,,,,,,,,,,,,,,,,,
,,,,,,2,0,2,0,1,X V Q F H G B L J M P D K C T S W R N Z,60bfd7f41bbb4ec7b94d0414,20,Mężczyzna,2022-06-11_10h36.04.654,task,2021.1.4,Win32,59.44596362,6299f149e92ead563fba08ef,62a453eb3651cd7f728ce8fa,,,,,,,,,,,,,,,,,,,,,,,,,,,,,,,,,,,,,,,,,,,,,,,,,,,,,,,,,,,,,,,,,,,,,,,,,,,,,,,,,,,,,,,,,,,,,,,,,,,,,
,,,,,,3,0,3,0,1,X V Q F H G B L J M P D K C T S W R N Z,60bfd7f41bbb4ec7b94d0414,20,Mężczyzna,2022-06-11_10h36.04.654,task,2021.1.4,Win32,59.44596362,6299f149e92ead563fba08ef,62a453eb3651cd7f728ce8fa,,,,,,,,,,,,,,,,,,,,,,,,,,,,,,,,,,,,,,,,,,,,,,,,,,,,,,,,,,,,,,,,,,,,,,,,,,,,,,,,,,,,,,,,,,,,,,,,,,,,,
,,,,,,4,0,4,0,1,X V Q F H G B L J M P D K C T S W R N Z,60bfd7f41bbb4ec7b94d0414,20,Mężczyzna,2022-06-11_10h36.04.654,task,2021.1.4,Win32,59.44596362,6299f149e92ead563fba08ef,62a453eb3651cd7f728ce8fa,,,,,,,,,,,,,,,,,,,,,,,,,,,,,,,,,,,,,,,,,,,,,,,,,,,,,,,,,,,,,,,,,,,,,,,,,,,,,,,,,,,,,,,,,,,,,,,,,,,,,
,,,,,,,,,,,,60bfd7f41bbb4ec7b94d0414,20,Mężczyzna,2022-06-11_10h36.04.654,task,2021.1.4,Win32,59.44596362,6299f149e92ead563fba08ef,62a453eb3651cd7f728ce8fa,ljtsz,"[""l"",""j"",""t"",""s"",""z""]","[0.6239999999999952,0.8511000001430489,1.0532000000476813,1.4172000000476856,1.6704000000953698,1.842600000143051]",1,LJTSZ,6,0,6,0,1,,,,,,,,,,,,,,,,,,,,,,,,,,,,,,,,,,,,,,,,,,,,,,,,,,,,,,,,,,,,,,,,,,,,,,,,,,,,,,,,,,,,,,,,,,,
,,,,,,0,0,0,0,1,X V Q F H G B L J M P D K C T S W R N Z,60bfd7f41bbb4ec7b94d0414,20,Mężczyzna,2022-06-11_10h36.04.654,task,2021.1.4,Win32,59.44596362,6299f149e92ead563fba08ef,62a453eb3651cd7f728ce8fa,,,,,,,,,,,,,,,,,,,,,,,,,,,,,,,,,,,,,,,,,,,,,,,,,,,,,,,,,,,,,,,,,,,,,,,,,,,,,,,,,,,,,,,,,,,,,,,,,,,,,
,,,,,,1,0,1,0,1,X V Q F H G B L J M P D K C T S W R N Z,60bfd7f41bbb4ec7b94d0414,20,Mężczyzna,2022-06-11_10h36.04.654,task,2021.1.4,Win32,59.44596362,6299f149e92ead563fba08ef,62a453eb3651cd7f728ce8fa,,,,,,,,,,,,,,,,,,,,,,,,,,,,,,,,,,,,,,,,,,,,,,,,,,,,,,,,,,,,,,,,,,,,,,,,,,,,,,,,,,,,,,,,,,,,,,,,,,,,,
,,,,,,2,0,2,0,1,X V Q F H G B L J M P D K C T S W R N Z,60bfd7f41bbb4ec7b94d0414,20,Mężczyzna,2022-06-11_10h36.04.654,task,2021.1.4,Win32,59.44596362,6299f149e92ead563fba08ef,62a453eb3651cd7f728ce8fa,,,,,,,,,,,,,,,,,,,,,,,,,,,,,,,,,,,,,,,,,,,,,,,,,,,,,,,,,,,,,,,,,,,,,,,,,,,,,,,,,,,,,,,,,,,,,,,,,,,,,
,,,,,,3,0,3,0,1,X V Q F H G B L J M P D K C T S W R N Z,60bfd7f41bbb4ec7b94d0414,20,Mężczyzna,2022-06-11_10h36.04.654,task,2021.1.4,Win32,59.44596362,6299f149e92ead563fba08ef,62a453eb3651cd7f728ce8fa,,,,,,,,,,,,,,,,,,,,,,,,,,,,,,,,,,,,,,,,,,,,,,,,,,,,,,,,,,,,,,,,,,,,,,,,,,,,,,,,,,,,,,,,,,,,,,,,,,,,,
,,,,,,4,0,4,0,1,X V Q F H G B L J M P D K C T S W R N Z,60bfd7f41bbb4ec7b94d0414,20,Mężczyzna,2022-06-11_10h36.04.654,task,2021.1.4,Win32,59.44596362,6299f149e92ead563fba08ef,62a453eb3651cd7f728ce8fa,,,,,,,,,,,,,,,,,,,,,,,,,,,,,,,,,,,,,,,,,,,,,,,,,,,,,,,,,,,,,,,,,,,,,,,,,,,,,,,,,,,,,,,,,,,,,,,,,,,,,
,,,,,,,,,,,,60bfd7f41bbb4ec7b94d0414,20,Mężczyzna,2022-06-11_10h36.04.654,task,2021.1.4,Win32,59.44596362,6299f149e92ead563fba08ef,62a453eb3651cd7f728ce8fa,nfldw,"[""n"",""f"",""l"",""d"",""w""]","[1.4337999999523134,1.6342999999523187,1.8765999999046272,2.150499999999994,2.383499999999998,2.5842000000476872]",1,NFLDW,7,0,7,0,1,,,,,,,,,,,,,,,,,,,,,,,,,,,,,,,,,,,,,,,,,,,,,,,,,,,,,,,,,,,,,,,,,,,,,,,,,,,,,,,,,,,,,,,,,,,
,,,,,,0,0,0,0,1,X V Q F H G B L J M P D K C T S W R N Z,60bfd7f41bbb4ec7b94d0414,20,Mężczyzna,2022-06-11_10h36.04.654,task,2021.1.4,Win32,59.44596362,6299f149e92ead563fba08ef,62a453eb3651cd7f728ce8fa,,,,,,,,,,,,,,,,,,,,,,,,,,,,,,,,,,,,,,,,,,,,,,,,,,,,,,,,,,,,,,,,,,,,,,,,,,,,,,,,,,,,,,,,,,,,,,,,,,,,,
,,,,,,1,0,1,0,1,X V Q F H G B L J M P D K C T S W R N Z,60bfd7f41bbb4ec7b94d0414,20,Mężczyzna,2022-06-11_10h36.04.654,task,2021.1.4,Win32,59.44596362,6299f149e92ead563fba08ef,62a453eb3651cd7f728ce8fa,,,,,,,,,,,,,,,,,,,,,,,,,,,,,,,,,,,,,,,,,,,,,,,,,,,,,,,,,,,,,,,,,,,,,,,,,,,,,,,,,,,,,,,,,,,,,,,,,,,,,
,,,,,,2,0,2,0,1,X V Q F H G B L J M P D K C T S W R N Z,60bfd7f41bbb4ec7b94d0414,20,Mężczyzna,2022-06-11_10h36.04.654,task,2021.1.4,Win32,59.44596362,6299f149e92ead563fba08ef,62a453eb3651cd7f728ce8fa,,,,,,,,,,,,,,,,,,,,,,,,,,,,,,,,,,,,,,,,,,,,,,,,,,,,,,,,,,,,,,,,,,,,,,,,,,,,,,,,,,,,,,,,,,,,,,,,,,,,,
,,,,,,3,0,3,0,1,X V Q F H G B L J M P D K C T S W R N Z,60bfd7f41bbb4ec7b94d0414,20,Mężczyzna,2022-06-11_10h36.04.654,task,2021.1.4,Win32,59.44596362,6299f149e92ead563fba08ef,62a453eb3651cd7f728ce8fa,,,,,,,,,,,,,,,,,,,,,,,,,,,,,,,,,,,,,,,,,,,,,,,,,,,,,,,,,,,,,,,,,,,,,,,,,,,,,,,,,,,,,,,,,,,,,,,,,,,,,
,,,,,,4,0,4,0,1,X V Q F H G B L J M P D K C T S W R N Z,60bfd7f41bbb4ec7b94d0414,20,Mężczyzna,2022-06-11_10h36.04.654,task,2021.1.4,Win32,59.44596362,6299f149e92ead563fba08ef,62a453eb3651cd7f728ce8fa,,,,,,,,,,,,,,,,,,,,,,,,,,,,,,,,,,,,,,,,,,,,,,,,,,,,,,,,,,,,,,,,,,,,,,,,,,,,,,,,,,,,,,,,,,,,,,,,,,,,,
,,,,,,5,0,5,0,1,X V Q F H G B L J M P D K C T S W R N Z,60bfd7f41bbb4ec7b94d0414,20,Mężczyzna,2022-06-11_10h36.04.654,task,2021.1.4,Win32,59.44596362,6299f149e92ead563fba08ef,62a453eb3651cd7f728ce8fa,,,,,,,,,,,,,,,,,,,,,,,,,,,,,,,,,,,,,,,,,,,,,,,,,,,,,,,,,,,,,,,,,,,,,,,,,,,,,,,,,,,,,,,,,,,,,,,,,,,,,
,,,,,,,,,,,,60bfd7f41bbb4ec7b94d0414,20,Mężczyzna,2022-06-11_10h36.04.654,task,2021.1.4,Win32,59.44596362,6299f149e92ead563fba08ef,62a453eb3651cd7f728ce8fa,vtjckr,"[""v"",""t"",""j"",""c"",""k"",""r""]","[1.0172999999523142,1.2507999999523207,1.500899999856955,1.800699999809268,1.969699999809265,2.284000000000006,2.500899999856955]",1,VTJCKR,8,0,8,0,1,,,,,,,,,,,,,,,,,,,,,,,,,,,,,,,,,,,,,,,,,,,,,,,,,,,,,,,,,,,,,,,,,,,,,,,,,,,,,,,,,,,,,,,,,,,
,,,,,,0,0,0,0,1,X V Q F H G B L J M P D K C T S W R N Z,60bfd7f41bbb4ec7b94d0414,20,Mężczyzna,2022-06-11_10h36.04.654,task,2021.1.4,Win32,59.44596362,6299f149e92ead563fba08ef,62a453eb3651cd7f728ce8fa,,,,,,,,,,,,,,,,,,,,,,,,,,,,,,,,,,,,,,,,,,,,,,,,,,,,,,,,,,,,,,,,,,,,,,,,,,,,,,,,,,,,,,,,,,,,,,,,,,,,,
,,,,,,1,0,1,0,1,X V Q F H G B L J M P D K C T S W R N Z,60bfd7f41bbb4ec7b94d0414,20,Mężczyzna,2022-06-11_10h36.04.654,task,2021.1.4,Win32,59.44596362,6299f149e92ead563fba08ef,62a453eb3651cd7f728ce8fa,,,,,,,,,,,,,,,,,,,,,,,,,,,,,,,,,,,,,,,,,,,,,,,,,,,,,,,,,,,,,,,,,,,,,,,,,,,,,,,,,,,,,,,,,,,,,,,,,,,,,
,,,,,,2,0,2,0,1,X V Q F H G B L J M P D K C T S W R N Z,60bfd7f41bbb4ec7b94d0414,20,Mężczyzna,2022-06-11_10h36.04.654,task,2021.1.4,Win32,59.44596362,6299f149e92ead563fba08ef,62a453eb3651cd7f728ce8fa,,,,,,,,,,,,,,,,,,,,,,,,,,,,,,,,,,,,,,,,,,,,,,,,,,,,,,,,,,,,,,,,,,,,,,,,,,,,,,,,,,,,,,,,,,,,,,,,,,,,,
,,,,,,3,0,3,0,1,X V Q F H G B L J M P D K C T S W R N Z,60bfd7f41bbb4ec7b94d0414,20,Mężczyzna,2022-06-11_10h36.04.654,task,2021.1.4,Win32,59.44596362,6299f149e92ead563fba08ef,62a453eb3651cd7f728ce8fa,,,,,,,,,,,,,,,,,,,,,,,,,,,,,,,,,,,,,,,,,,,,,,,,,,,,,,,,,,,,,,,,,,,,,,,,,,,,,,,,,,,,,,,,,,,,,,,,,,,,,
,,,,,,4,0,4,0,1,X V Q F H G B L J M P D K C T S W R N Z,60bfd7f41bbb4ec7b94d0414,20,Mężczyzna,2022-06-11_10h36.04.654,task,2021.1.4,Win32,59.44596362,6299f149e92ead563fba08ef,62a453eb3651cd7f728ce8fa,,,,,,,,,,,,,,,,,,,,,,,,,,,,,,,,,,,,,,,,,,,,,,,,,,,,,,,,,,,,,,,,,,,,,,,,,,,,,,,,,,,,,,,,,,,,,,,,,,,,,
,,,,,,5,0,5,0,1,X V Q F H G B L J M P D K C T S W R N Z,60bfd7f41bbb4ec7b94d0414,20,Mężczyzna,2022-06-11_10h36.04.654,task,2021.1.4,Win32,59.44596362,6299f149e92ead563fba08ef,62a453eb3651cd7f728ce8fa,,,,,,,,,,,,,,,,,,,,,,,,,,,,,,,,,,,,,,,,,,,,,,,,,,,,,,,,,,,,,,,,,,,,,,,,,,,,,,,,,,,,,,,,,,,,,,,,,,,,,
,,,,,,,,,,,,60bfd7f41bbb4ec7b94d0414,20,Mężczyzna,2022-06-11_10h36.04.654,task,2021.1.4,Win32,59.44596362,6299f149e92ead563fba08ef,62a453eb3651cd7f728ce8fa,bxdnhv,"[""b"",""x"",""d"",""n"",""h"",""v""]","[1.2837999999523078,1.6259000000953705,1.8667999999523204,2.035700000047683,2.7167999999523147,3.0391000001430513,3.6689000000953627]",1,BXDNHV,9,0,9,0,1,,,,,,,,,,,,,,,,,,,,,,,,,,,,,,,,,,,,,,,,,,,,,,,,,,,,,,,,,,,,,,,,,,,,,,,,,,,,,,,,,,,,,,,,,,,
,,,,,,0,0,0,0,1,X V Q F H G B L J M P D K C T S W R N Z,60bfd7f41bbb4ec7b94d0414,20,Mężczyzna,2022-06-11_10h36.04.654,task,2021.1.4,Win32,59.44596362,6299f149e92ead563fba08ef,62a453eb3651cd7f728ce8fa,,,,,,,,,,,,,,,,,,,,,,,,,,,,,,,,,,,,,,,,,,,,,,,,,,,,,,,,,,,,,,,,,,,,,,,,,,,,,,,,,,,,,,,,,,,,,,,,,,,,,
,,,,,,1,0,1,0,1,X V Q F H G B L J M P D K C T S W R N Z,60bfd7f41bbb4ec7b94d0414,20,Mężczyzna,2022-06-11_10h36.04.654,task,2021.1.4,Win32,59.44596362,6299f149e92ead563fba08ef,62a453eb3651cd7f728ce8fa,,,,,,,,,,,,,,,,,,,,,,,,,,,,,,,,,,,,,,,,,,,,,,,,,,,,,,,,,,,,,,,,,,,,,,,,,,,,,,,,,,,,,,,,,,,,,,,,,,,,,
,,,,,,2,0,2,0,1,X V Q F H G B L J M P D K C T S W R N Z,60bfd7f41bbb4ec7b94d0414,20,Mężczyzna,2022-06-11_10h36.04.654,task,2021.1.4,Win32,59.44596362,6299f149e92ead563fba08ef,62a453eb3651cd7f728ce8fa,,,,,,,,,,,,,,,,,,,,,,,,,,,,,,,,,,,,,,,,,,,,,,,,,,,,,,,,,,,,,,,,,,,,,,,,,,,,,,,,,,,,,,,,,,,,,,,,,,,,,
,,,,,,3,0,3,0,1,X V Q F H G B L J M P D K C T S W R N Z,60bfd7f41bbb4ec7b94d0414,20,Mężczyzna,2022-06-11_10h36.04.654,task,2021.1.4,Win32,59.44596362,6299f149e92ead563fba08ef,62a453eb3651cd7f728ce8fa,,,,,,,,,,,,,,,,,,,,,,,,,,,,,,,,,,,,,,,,,,,,,,,,,,,,,,,,,,,,,,,,,,,,,,,,,,,,,,,,,,,,,,,,,,,,,,,,,,,,,
,,,,,,4,0,4,0,1,X V Q F H G B L J M P D K C T S W R N Z,60bfd7f41bbb4ec7b94d0414,20,Mężczyzna,2022-06-11_10h36.04.654,task,2021.1.4,Win32,59.44596362,6299f149e92ead563fba08ef,62a453eb3651cd7f728ce8fa,,,,,,,,,,,,,,,,,,,,,,,,,,,,,,,,,,,,,,,,,,,,,,,,,,,,,,,,,,,,,,,,,,,,,,,,,,,,,,,,,,,,,,,,,,,,,,,,,,,,,
,,,,,,5,0,5,0,1,X V Q F H G B L J M P D K C T S W R N Z,60bfd7f41bbb4ec7b94d0414,20,Mężczyzna,2022-06-11_10h36.04.654,task,2021.1.4,Win32,59.44596362,6299f149e92ead563fba08ef,62a453eb3651cd7f728ce8fa,,,,,,,,,,,,,,,,,,,,,,,,,,,,,,,,,,,,,,,,,,,,,,,,,,,,,,,,,,,,,,,,,,,,,,,,,,,,,,,,,,,,,,,,,,,,,,,,,,,,,
,,,,,,6,0,6,0,1,X V Q F H G B L J M P D K C T S W R N Z,60bfd7f41bbb4ec7b94d0414,20,Mężczyzna,2022-06-11_10h36.04.654,task,2021.1.4,Win32,59.44596362,6299f149e92ead563fba08ef,62a453eb3651cd7f728ce8fa,,,,,,,,,,,,,,,,,,,,,,,,,,,,,,,,,,,,,,,,,,,,,,,,,,,,,,,,,,,,,,,,,,,,,,,,,,,,,,,,,,,,,,,,,,,,,,,,,,,,,
,,,,,,,,,,,,60bfd7f41bbb4ec7b94d0414,20,Mężczyzna,2022-06-11_10h36.04.654,task,2021.1.4,Win32,59.44596362,6299f149e92ead563fba08ef,62a453eb3651cd7f728ce8fa,kvgqgtb,"[""k"",""v"",""g"",""q"",""g"",""t"",""b""]","[0.7919999999999874,1.1879000000953681,1.6504999999999939,2.050200000047681,7.186400000095361,7.373900000095361,7.587200000047673,7.73899999999999]",0,KVDQGTB,10,0,10,0,1,,,,,,,,,,,,,,,,,,,,,,,,,,,,,,,,,,,,,,,,,,,,,,,,,,,,,,,,,,,,,,,,,,,,,,,,,,,,,,,,,,,,,,,,,,,
,,,,,,0,0,0,0,1,X V Q F H G B L J M P D K C T S W R N Z,60bfd7f41bbb4ec7b94d0414,20,Mężczyzna,2022-06-11_10h36.04.654,task,2021.1.4,Win32,59.44596362,6299f149e92ead563fba08ef,62a453eb3651cd7f728ce8fa,,,,,,,,,,,,,,,,,,,,,,,,,,,,,,,,,,,,,,,,,,,,,,,,,,,,,,,,,,,,,,,,,,,,,,,,,,,,,,,,,,,,,,,,,,,,,,,,,,,,,
,,,,,,1,0,1,0,1,X V Q F H G B L J M P D K C T S W R N Z,60bfd7f41bbb4ec7b94d0414,20,Mężczyzna,2022-06-11_10h36.04.654,task,2021.1.4,Win32,59.44596362,6299f149e92ead563fba08ef,62a453eb3651cd7f728ce8fa,,,,,,,,,,,,,,,,,,,,,,,,,,,,,,,,,,,,,,,,,,,,,,,,,,,,,,,,,,,,,,,,,,,,,,,,,,,,,,,,,,,,,,,,,,,,,,,,,,,,,
,,,,,,2,0,2,0,1,X V Q F H G B L J M P D K C T S W R N Z,60bfd7f41bbb4ec7b94d0414,20,Mężczyzna,2022-06-11_10h36.04.654,task,2021.1.4,Win32,59.44596362,6299f149e92ead563fba08ef,62a453eb3651cd7f728ce8fa,,,,,,,,,,,,,,,,,,,,,,,,,,,,,,,,,,,,,,,,,,,,,,,,,,,,,,,,,,,,,,,,,,,,,,,,,,,,,,,,,,,,,,,,,,,,,,,,,,,,,
,,,,,,3,0,3,0,1,X V Q F H G B L J M P D K C T S W R N Z,60bfd7f41bbb4ec7b94d0414,20,Mężczyzna,2022-06-11_10h36.04.654,task,2021.1.4,Win32,59.44596362,6299f149e92ead563fba08ef,62a453eb3651cd7f728ce8fa,,,,,,,,,,,,,,,,,,,,,,,,,,,,,,,,,,,,,,,,,,,,,,,,,,,,,,,,,,,,,,,,,,,,,,,,,,,,,,,,,,,,,,,,,,,,,,,,,,,,,
,,,,,,4,0,4,0,1,X V Q F H G B L J M P D K C T S W R N Z,60bfd7f41bbb4ec7b94d0414,20,Mężczyzna,2022-06-11_10h36.04.654,task,2021.1.4,Win32,59.44596362,6299f149e92ead563fba08ef,62a453eb3651cd7f728ce8fa,,,,,,,,,,,,,,,,,,,,,,,,,,,,,,,,,,,,,,,,,,,,,,,,,,,,,,,,,,,,,,,,,,,,,,,,,,,,,,,,,,,,,,,,,,,,,,,,,,,,,
,,,,,,5,0,5,0,1,X V Q F H G B L J M P D K C T S W R N Z,60bfd7f41bbb4ec7b94d0414,20,Mężczyzna,2022-06-11_10h36.04.654,task,2021.1.4,Win32,59.44596362,6299f149e92ead563fba08ef,62a453eb3651cd7f728ce8fa,,,,,,,,,,,,,,,,,,,,,,,,,,,,,,,,,,,,,,,,,,,,,,,,,,,,,,,,,,,,,,,,,,,,,,,,,,,,,,,,,,,,,,,,,,,,,,,,,,,,,
,,,,,,6,0,6,0,1,X V Q F H G B L J M P D K C T S W R N Z,60bfd7f41bbb4ec7b94d0414,20,Mężczyzna,2022-06-11_10h36.04.654,task,2021.1.4,Win32,59.44596362,6299f149e92ead563fba08ef,62a453eb3651cd7f728ce8fa,,,,,,,,,,,,,,,,,,,,,,,,,,,,,,,,,,,,,,,,,,,,,,,,,,,,,,,,,,,,,,,,,,,,,,,,,,,,,,,,,,,,,,,,,,,,,,,,,,,,,
,,,,,,,,,,,,60bfd7f41bbb4ec7b94d0414,20,Mężczyzna,2022-06-11_10h36.04.654,task,2021.1.4,Win32,59.44596362,6299f149e92ead563fba08ef,62a453eb3651cd7f728ce8fa,qgvdzkc,"[""q"",""g"",""v"",""d"",""z"",""k"",""c""]","[2.1996000001430644,2.552299999952325,2.906299999952296,3.4302000000476767,3.7494999999999834,4.24190000009537,4.999700000047682,5.582999999999998]",1,QGVDZKC,11,0,11,0,1,,,,,,,,,,,,,,,,,,,,,,,,,,,,,,,,,,,,,,,,,,,,,,,,,,,,,,,,,,,,,,,,,,,,,,,,,,,,,,,,,,,,,,,,,,,
,,,,,,0,0,0,0,1,X V Q F H G B L J M P D K C T S W R N Z,60bfd7f41bbb4ec7b94d0414,20,Mężczyzna,2022-06-11_10h36.04.654,task,2021.1.4,Win32,59.44596362,6299f149e92ead563fba08ef,62a453eb3651cd7f728ce8fa,,,,,,,,,,,,,,,,,,,,,,,,,,,,,,,,,,,,,,,,,,,,,,,,,,,,,,,,,,,,,,,,,,,,,,,,,,,,,,,,,,,,,,,,,,,,,,,,,,,,,
,,,,,,1,0,1,0,1,X V Q F H G B L J M P D K C T S W R N Z,60bfd7f41bbb4ec7b94d0414,20,Mężczyzna,2022-06-11_10h36.04.654,task,2021.1.4,Win32,59.44596362,6299f149e92ead563fba08ef,62a453eb3651cd7f728ce8fa,,,,,,,,,,,,,,,,,,,,,,,,,,,,,,,,,,,,,,,,,,,,,,,,,,,,,,,,,,,,,,,,,,,,,,,,,,,,,,,,,,,,,,,,,,,,,,,,,,,,,
,,,,,,2,0,2,0,1,X V Q F H G B L J M P D K C T S W R N Z,60bfd7f41bbb4ec7b94d0414,20,Mężczyzna,2022-06-11_10h36.04.654,task,2021.1.4,Win32,59.44596362,6299f149e92ead563fba08ef,62a453eb3651cd7f728ce8fa,,,,,,,,,,,,,,,,,,,,,,,,,,,,,,,,,,,,,,,,,,,,,,,,,,,,,,,,,,,,,,,,,,,,,,,,,,,,,,,,,,,,,,,,,,,,,,,,,,,,,
,,,,,,3,0,3,0,1,X V Q F H G B L J M P D K C T S W R N Z,60bfd7f41bbb4ec7b94d0414,20,Mężczyzna,2022-06-11_10h36.04.654,task,2021.1.4,Win32,59.44596362,6299f149e92ead563fba08ef,62a453eb3651cd7f728ce8fa,,,,,,,,,,,,,,,,,,,,,,,,,,,,,,,,,,,,,,,,,,,,,,,,,,,,,,,,,,,,,,,,,,,,,,,,,,,,,,,,,,,,,,,,,,,,,,,,,,,,,
,,,,,,4,0,4,0,1,X V Q F H G B L J M P D K C T S W R N Z,60bfd7f41bbb4ec7b94d0414,20,Mężczyzna,2022-06-11_10h36.04.654,task,2021.1.4,Win32,59.44596362,6299f149e92ead563fba08ef,62a453eb3651cd7f728ce8fa,,,,,,,,,,,,,,,,,,,,,,,,,,,,,,,,,,,,,,,,,,,,,,,,,,,,,,,,,,,,,,,,,,,,,,,,,,,,,,,,,,,,,,,,,,,,,,,,,,,,,
,,,,,,5,0,5,0,1,X V Q F H G B L J M P D K C T S W R N Z,60bfd7f41bbb4ec7b94d0414,20,Mężczyzna,2022-06-11_10h36.04.654,task,2021.1.4,Win32,59.44596362,6299f149e92ead563fba08ef,62a453eb3651cd7f728ce8fa,,,,,,,,,,,,,,,,,,,,,,,,,,,,,,,,,,,,,,,,,,,,,,,,,,,,,,,,,,,,,,,,,,,,,,,,,,,,,,,,,,,,,,,,,,,,,,,,,,,,,
,,,,,,6,0,6,0,1,X V Q F H G B L J M P D K C T S W R N Z,60bfd7f41bbb4ec7b94d0414,20,Mężczyzna,2022-06-11_10h36.04.654,task,2021.1.4,Win32,59.44596362,6299f149e92ead563fba08ef,62a453eb3651cd7f728ce8fa,,,,,,,,,,,,,,,,,,,,,,,,,,,,,,,,,,,,,,,,,,,,,,,,,,,,,,,,,,,,,,,,,,,,,,,,,,,,,,,,,,,,,,,,,,,,,,,,,,,,,
,,,,,,,,,,,,60bfd7f41bbb4ec7b94d0414,20,Mężczyzna,2022-06-11_10h36.04.654,task,2021.1.4,Win32,59.44596362,6299f149e92ead563fba08ef,62a453eb3651cd7f728ce8fa,tkfkrxm,"[""t"",""k"",""f"",""k"",""r"",""x"",""m""]","[1.1918000001907387,1.5584000000953608,1.9000000000000057,2.116600000143052,2.3832000000476796,2.6802000000476767,2.850100000143044,3.0289000000953763]",1,TKFKRXM,12,0,12,0,1,,,,,,,,,,,,,,,,,,,,,,,,,,,,,,,,,,,,,,,,,,,,,,,,,,,,,,,,,,,,,,,,,,,,,,,,,,,,,,,,,,,,,,,,,,,
,,,,,,0,0,0,0,1,X V Q F H G B L J M P D K C T S W R N Z,60bfd7f41bbb4ec7b94d0414,20,Mężczyzna,2022-06-11_10h36.04.654,task,2021.1.4,Win32,59.44596362,6299f149e92ead563fba08ef,62a453eb3651cd7f728ce8fa,,,,,,,,,,,,,,,,,,,,,,,,,,,,,,,,,,,,,,,,,,,,,,,,,,,,,,,,,,,,,,,,,,,,,,,,,,,,,,,,,,,,,,,,,,,,,,,,,,,,,
,,,,,,1,0,1,0,1,X V Q F H G B L J M P D K C T S W R N Z,60bfd7f41bbb4ec7b94d0414,20,Mężczyzna,2022-06-11_10h36.04.654,task,2021.1.4,Win32,59.44596362,6299f149e92ead563fba08ef,62a453eb3651cd7f728ce8fa,,,,,,,,,,,,,,,,,,,,,,,,,,,,,,,,,,,,,,,,,,,,,,,,,,,,,,,,,,,,,,,,,,,,,,,,,,,,,,,,,,,,,,,,,,,,,,,,,,,,,
,,,,,,2,0,2,0,1,X V Q F H G B L J M P D K C T S W R N Z,60bfd7f41bbb4ec7b94d0414,20,Mężczyzna,2022-06-11_10h36.04.654,task,2021.1.4,Win32,59.44596362,6299f149e92ead563fba08ef,62a453eb3651cd7f728ce8fa,,,,,,,,,,,,,,,,,,,,,,,,,,,,,,,,,,,,,,,,,,,,,,,,,,,,,,,,,,,,,,,,,,,,,,,,,,,,,,,,,,,,,,,,,,,,,,,,,,,,,
,,,,,,3,0,3,0,1,X V Q F H G B L J M P D K C T S W R N Z,60bfd7f41bbb4ec7b94d0414,20,Mężczyzna,2022-06-11_10h36.04.654,task,2021.1.4,Win32,59.44596362,6299f149e92ead563fba08ef,62a453eb3651cd7f728ce8fa,,,,,,,,,,,,,,,,,,,,,,,,,,,,,,,,,,,,,,,,,,,,,,,,,,,,,,,,,,,,,,,,,,,,,,,,,,,,,,,,,,,,,,,,,,,,,,,,,,,,,
,,,,,,4,0,4,0,1,X V Q F H G B L J M P D K C T S W R N Z,60bfd7f41bbb4ec7b94d0414,20,Mężczyzna,2022-06-11_10h36.04.654,task,2021.1.4,Win32,59.44596362,6299f149e92ead563fba08ef,62a453eb3651cd7f728ce8fa,,,,,,,,,,,,,,,,,,,,,,,,,,,,,,,,,,,,,,,,,,,,,,,,,,,,,,,,,,,,,,,,,,,,,,,,,,,,,,,,,,,,,,,,,,,,,,,,,,,,,
,,,,,,5,0,5,0,1,X V Q F H G B L J M P D K C T S W R N Z,60bfd7f41bbb4ec7b94d0414,20,Mężczyzna,2022-06-11_10h36.04.654,task,2021.1.4,Win32,59.44596362,6299f149e92ead563fba08ef,62a453eb3651cd7f728ce8fa,,,,,,,,,,,,,,,,,,,,,,,,,,,,,,,,,,,,,,,,,,,,,,,,,,,,,,,,,,,,,,,,,,,,,,,,,,,,,,,,,,,,,,,,,,,,,,,,,,,,,
,,,,,,6,0,6,0,1,X V Q F H G B L J M P D K C T S W R N Z,60bfd7f41bbb4ec7b94d0414,20,Mężczyzna,2022-06-11_10h36.04.654,task,2021.1.4,Win32,59.44596362,6299f149e92ead563fba08ef,62a453eb3651cd7f728ce8fa,,,,,,,,,,,,,,,,,,,,,,,,,,,,,,,,,,,,,,,,,,,,,,,,,,,,,,,,,,,,,,,,,,,,,,,,,,,,,,,,,,,,,,,,,,,,,,,,,,,,,
,,,,,,7,0,7,0,1,X V Q F H G B L J M P D K C T S W R N Z,60bfd7f41bbb4ec7b94d0414,20,Mężczyzna,2022-06-11_10h36.04.654,task,2021.1.4,Win32,59.44596362,6299f149e92ead563fba08ef,62a453eb3651cd7f728ce8fa,,,,,,,,,,,,,,,,,,,,,,,,,,,,,,,,,,,,,,,,,,,,,,,,,,,,,,,,,,,,,,,,,,,,,,,,,,,,,,,,,,,,,,,,,,,,,,,,,,,,,
,,,,,,,,,,,,60bfd7f41bbb4ec7b94d0414,20,Mężczyzna,2022-06-11_10h36.04.654,task,2021.1.4,Win32,59.44596362,6299f149e92ead563fba08ef,62a453eb3651cd7f728ce8fa,zzcwdsbq,"[""z"",""z"",""c"",""w"",""d"",""s"",""b"",""q""]","[0.6367000000476821,0.8333999998569368,1.2567999999523067,2.613399999856938,2.942799999952314,3.3710999999046294,4.154700000047683,4.559599999904634,4.917700000047688]",1,ZZCWDSBQ,13,0,13,0,1,,,,,,,,,,,,,,,,,,,,,,,,,,,,,,,,,,,,,,,,,,,,,,,,,,,,,,,,,,,,,,,,,,,,,,,,,,,,,,,,,,,,,,,,,,,
,,,,,,0,0,0,0,1,X V Q F H G B L J M P D K C T S W R N Z,60bfd7f41bbb4ec7b94d0414,20,Mężczyzna,2022-06-11_10h36.04.654,task,2021.1.4,Win32,59.44596362,6299f149e92ead563fba08ef,62a453eb3651cd7f728ce8fa,,,,,,,,,,,,,,,,,,,,,,,,,,,,,,,,,,,,,,,,,,,,,,,,,,,,,,,,,,,,,,,,,,,,,,,,,,,,,,,,,,,,,,,,,,,,,,,,,,,,,
,,,,,,1,0,1,0,1,X V Q F H G B L J M P D K C T S W R N Z,60bfd7f41bbb4ec7b94d0414,20,Mężczyzna,2022-06-11_10h36.04.654,task,2021.1.4,Win32,59.44596362,6299f149e92ead563fba08ef,62a453eb3651cd7f728ce8fa,,,,,,,,,,,,,,,,,,,,,,,,,,,,,,,,,,,,,,,,,,,,,,,,,,,,,,,,,,,,,,,,,,,,,,,,,,,,,,,,,,,,,,,,,,,,,,,,,,,,,
,,,,,,2,0,2,0,1,X V Q F H G B L J M P D K C T S W R N Z,60bfd7f41bbb4ec7b94d0414,20,Mężczyzna,2022-06-11_10h36.04.654,task,2021.1.4,Win32,59.44596362,6299f149e92ead563fba08ef,62a453eb3651cd7f728ce8fa,,,,,,,,,,,,,,,,,,,,,,,,,,,,,,,,,,,,,,,,,,,,,,,,,,,,,,,,,,,,,,,,,,,,,,,,,,,,,,,,,,,,,,,,,,,,,,,,,,,,,
,,,,,,3,0,3,0,1,X V Q F H G B L J M P D K C T S W R N Z,60bfd7f41bbb4ec7b94d0414,20,Mężczyzna,2022-06-11_10h36.04.654,task,2021.1.4,Win32,59.44596362,6299f149e92ead563fba08ef,62a453eb3651cd7f728ce8fa,,,,,,,,,,,,,,,,,,,,,,,,,,,,,,,,,,,,,,,,,,,,,,,,,,,,,,,,,,,,,,,,,,,,,,,,,,,,,,,,,,,,,,,,,,,,,,,,,,,,,
,,,,,,4,0,4,0,1,X V Q F H G B L J M P D K C T S W R N Z,60bfd7f41bbb4ec7b94d0414,20,Mężczyzna,2022-06-11_10h36.04.654,task,2021.1.4,Win32,59.44596362,6299f149e92ead563fba08ef,62a453eb3651cd7f728ce8fa,,,,,,,,,,,,,,,,,,,,,,,,,,,,,,,,,,,,,,,,,,,,,,,,,,,,,,,,,,,,,,,,,,,,,,,,,,,,,,,,,,,,,,,,,,,,,,,,,,,,,
,,,,,,5,0,5,0,1,X V Q F H G B L J M P D K C T S W R N Z,60bfd7f41bbb4ec7b94d0414,20,Mężczyzna,2022-06-11_10h36.04.654,task,2021.1.4,Win32,59.44596362,6299f149e92ead563fba08ef,62a453eb3651cd7f728ce8fa,,,,,,,,,,,,,,,,,,,,,,,,,,,,,,,,,,,,,,,,,,,,,,,,,,,,,,,,,,,,,,,,,,,,,,,,,,,,,,,,,,,,,,,,,,,,,,,,,,,,,
,,,,,,6,0,6,0,1,X V Q F H G B L J M P D K C T S W R N Z,60bfd7f41bbb4ec7b94d0414,20,Mężczyzna,2022-06-11_10h36.04.654,task,2021.1.4,Win32,59.44596362,6299f149e92ead563fba08ef,62a453eb3651cd7f728ce8fa,,,,,,,,,,,,,,,,,,,,,,,,,,,,,,,,,,,,,,,,,,,,,,,,,,,,,,,,,,,,,,,,,,,,,,,,,,,,,,,,,,,,,,,,,,,,,,,,,,,,,
,,,,,,7,0,7,0,1,X V Q F H G B L J M P D K C T S W R N Z,60bfd7f41bbb4ec7b94d0414,20,Mężczyzna,2022-06-11_10h36.04.654,task,2021.1.4,Win32,59.44596362,6299f149e92ead563fba08ef,62a453eb3651cd7f728ce8fa,,,,,,,,,,,,,,,,,,,,,,,,,,,,,,,,,,,,,,,,,,,,,,,,,,,,,,,,,,,,,,,,,,,,,,,,,,,,,,,,,,,,,,,,,,,,,,,,,,,,,
,,,,,,,,,,,,60bfd7f41bbb4ec7b94d0414,20,Mężczyzna,2022-06-11_10h36.04.654,task,2021.1.4,Win32,59.44596362,6299f149e92ead563fba08ef,62a453eb3651cd7f728ce8fa,fgfdvttl,"[""f"",""g"",""f"",""d"",""v"",""t"",""t"",""l""]","[0.8899999999999864,1.1751999998092515,1.4665999999046448,1.9281999998092658,2.233000000000004,2.532599999904619,2.883299999952328,3.1087999999523106,3.3992999999523192]",1,FGFDVTTL,14,0,14,0,1,,,,,,,,,,,,,,,,,,,,,,,,,,,,,,,,,,,,,,,,,,,,,,,,,,,,,,,,,,,,,,,,,,,,,,,,,,,,,,,,,,,,,,,,,,,
,,,,,,0,0,0,0,1,X V Q F H G B L J M P D K C T S W R N Z,60bfd7f41bbb4ec7b94d0414,20,Mężczyzna,2022-06-11_10h36.04.654,task,2021.1.4,Win32,59.44596362,6299f149e92ead563fba08ef,62a453eb3651cd7f728ce8fa,,,,,,,,,,,,,,,,,,,,,,,,,,,,,,,,,,,,,,,,,,,,,,,,,,,,,,,,,,,,,,,,,,,,,,,,,,,,,,,,,,,,,,,,,,,,,,,,,,,,,
,,,,,,1,0,1,0,1,X V Q F H G B L J M P D K C T S W R N Z,60bfd7f41bbb4ec7b94d0414,20,Mężczyzna,2022-06-11_10h36.04.654,task,2021.1.4,Win32,59.44596362,6299f149e92ead563fba08ef,62a453eb3651cd7f728ce8fa,,,,,,,,,,,,,,,,,,,,,,,,,,,,,,,,,,,,,,,,,,,,,,,,,,,,,,,,,,,,,,,,,,,,,,,,,,,,,,,,,,,,,,,,,,,,,,,,,,,,,
,,,,,,2,0,2,0,1,X V Q F H G B L J M P D K C T S W R N Z,60bfd7f41bbb4ec7b94d0414,20,Mężczyzna,2022-06-11_10h36.04.654,task,2021.1.4,Win32,59.44596362,6299f149e92ead563fba08ef,62a453eb3651cd7f728ce8fa,,,,,,,,,,,,,,,,,,,,,,,,,,,,,,,,,,,,,,,,,,,,,,,,,,,,,,,,,,,,,,,,,,,,,,,,,,,,,,,,,,,,,,,,,,,,,,,,,,,,,
,,,,,,3,0,3,0,1,X V Q F H G B L J M P D K C T S W R N Z,60bfd7f41bbb4ec7b94d0414,20,Mężczyzna,2022-06-11_10h36.04.654,task,2021.1.4,Win32,59.44596362,6299f149e92ead563fba08ef,62a453eb3651cd7f728ce8fa,,,,,,,,,,,,,,,,,,,,,,,,,,,,,,,,,,,,,,,,,,,,,,,,,,,,,,,,,,,,,,,,,,,,,,,,,,,,,,,,,,,,,,,,,,,,,,,,,,,,,
,,,,,,4,0,4,0,1,X V Q F H G B L J M P D K C T S W R N Z,60bfd7f41bbb4ec7b94d0414,20,Mężczyzna,2022-06-11_10h36.04.654,task,2021.1.4,Win32,59.44596362,6299f149e92ead563fba08ef,62a453eb3651cd7f728ce8fa,,,,,,,,,,,,,,,,,,,,,,,,,,,,,,,,,,,,,,,,,,,,,,,,,,,,,,,,,,,,,,,,,,,,,,,,,,,,,,,,,,,,,,,,,,,,,,,,,,,,,
,,,,,,5,0,5,0,1,X V Q F H G B L J M P D K C T S W R N Z,60bfd7f41bbb4ec7b94d0414,20,Mężczyzna,2022-06-11_10h36.04.654,task,2021.1.4,Win32,59.44596362,6299f149e92ead563fba08ef,62a453eb3651cd7f728ce8fa,,,,,,,,,,,,,,,,,,,,,,,,,,,,,,,,,,,,,,,,,,,,,,,,,,,,,,,,,,,,,,,,,,,,,,,,,,,,,,,,,,,,,,,,,,,,,,,,,,,,,
,,,,,,6,0,6,0,1,X V Q F H G B L J M P D K C T S W R N Z,60bfd7f41bbb4ec7b94d0414,20,Mężczyzna,2022-06-11_10h36.04.654,task,2021.1.4,Win32,59.44596362,6299f149e92ead563fba08ef,62a453eb3651cd7f728ce8fa,,,,,,,,,,,,,,,,,,,,,,,,,,,,,,,,,,,,,,,,,,,,,,,,,,,,,,,,,,,,,,,,,,,,,,,,,,,,,,,,,,,,,,,,,,,,,,,,,,,,,
,,,,,,7,0,7,0,1,X V Q F H G B L J M P D K C T S W R N Z,60bfd7f41bbb4ec7b94d0414,20,Mężczyzna,2022-06-11_10h36.04.654,task,2021.1.4,Win32,59.44596362,6299f149e92ead563fba08ef,62a453eb3651cd7f728ce8fa,,,,,,,,,,,,,,,,,,,,,,,,,,,,,,,,,,,,,,,,,,,,,,,,,,,,,,,,,,,,,,,,,,,,,,,,,,,,,,,,,,,,,,,,,,,,,,,,,,,,,
,,,,,,8,0,8,0,1,X V Q F H G B L J M P D K C T S W R N Z,60bfd7f41bbb4ec7b94d0414,20,Mężczyzna,2022-06-11_10h36.04.654,task,2021.1.4,Win32,59.44596362,6299f149e92ead563fba08ef,62a453eb3651cd7f728ce8fa,,,,,,,,,,,,,,,,,,,,,,,,,,,,,,,,,,,,,,,,,,,,,,,,,,,,,,,,,,,,,,,,,,,,,,,,,,,,,,,,,,,,,,,,,,,,,,,,,,,,,
,,,,,,,,,,,,60bfd7f41bbb4ec7b94d0414,20,Mężczyzna,2022-06-11_10h36.04.654,task,2021.1.4,Win32,59.44596362,6299f149e92ead563fba08ef,62a453eb3651cd7f728ce8fa,ncnwnnstv,"[""n"",""c"",""n"",""w"",""n"",""n"",""s"",""t"",""v""]","[1.272900000095376,1.7943000001907592,2.032499999999999,3.0338000001907517,3.6844000000953656,3.8211000001430477,3.9383000001907362,4.233100000143054,4.486700000047705,4.700400000095385]",0,NCNWNNSTM,15,0,15,0,1,,,,,,,,,,,,,,,,,,,,,,,,,,,,,,,,,,,,,,,,,,,,,,,,,,,,,,,,,,,,,,,,,,,,,,,,,,,,,,,,,,,,,,,,,,,
,,,,,,0,0,0,0,1,X V Q F H G B L J M P D K C T S W R N Z,60bfd7f41bbb4ec7b94d0414,20,Mężczyzna,2022-06-11_10h36.04.654,task,2021.1.4,Win32,59.44596362,6299f149e92ead563fba08ef,62a453eb3651cd7f728ce8fa,,,,,,,,,,,,,,,,,,,,,,,,,,,,,,,,,,,,,,,,,,,,,,,,,,,,,,,,,,,,,,,,,,,,,,,,,,,,,,,,,,,,,,,,,,,,,,,,,,,,,
,,,,,,1,0,1,0,1,X V Q F H G B L J M P D K C T S W R N Z,60bfd7f41bbb4ec7b94d0414,20,Mężczyzna,2022-06-11_10h36.04.654,task,2021.1.4,Win32,59.44596362,6299f149e92ead563fba08ef,62a453eb3651cd7f728ce8fa,,,,,,,,,,,,,,,,,,,,,,,,,,,,,,,,,,,,,,,,,,,,,,,,,,,,,,,,,,,,,,,,,,,,,,,,,,,,,,,,,,,,,,,,,,,,,,,,,,,,,
,,,,,,2,0,2,0,1,X V Q F H G B L J M P D K C T S W R N Z,60bfd7f41bbb4ec7b94d0414,20,Mężczyzna,2022-06-11_10h36.04.654,task,2021.1.4,Win32,59.44596362,6299f149e92ead563fba08ef,62a453eb3651cd7f728ce8fa,,,,,,,,,,,,,,,,,,,,,,,,,,,,,,,,,,,,,,,,,,,,,,,,,,,,,,,,,,,,,,,,,,,,,,,,,,,,,,,,,,,,,,,,,,,,,,,,,,,,,
,,,,,,3,0,3,0,1,X V Q F H G B L J M P D K C T S W R N Z,60bfd7f41bbb4ec7b94d0414,20,Mężczyzna,2022-06-11_10h36.04.654,task,2021.1.4,Win32,59.44596362,6299f149e92ead563fba08ef,62a453eb3651cd7f728ce8fa,,,,,,,,,,,,,,,,,,,,,,,,,,,,,,,,,,,,,,,,,,,,,,,,,,,,,,,,,,,,,,,,,,,,,,,,,,,,,,,,,,,,,,,,,,,,,,,,,,,,,
,,,,,,4,0,4,0,1,X V Q F H G B L J M P D K C T S W R N Z,60bfd7f41bbb4ec7b94d0414,20,Mężczyzna,2022-06-11_10h36.04.654,task,2021.1.4,Win32,59.44596362,6299f149e92ead563fba08ef,62a453eb3651cd7f728ce8fa,,,,,,,,,,,,,,,,,,,,,,,,,,,,,,,,,,,,,,,,,,,,,,,,,,,,,,,,,,,,,,,,,,,,,,,,,,,,,,,,,,,,,,,,,,,,,,,,,,,,,
,,,,,,5,0,5,0,1,X V Q F H G B L J M P D K C T S W R N Z,60bfd7f41bbb4ec7b94d0414,20,Mężczyzna,2022-06-11_10h36.04.654,task,2021.1.4,Win32,59.44596362,6299f149e92ead563fba08ef,62a453eb3651cd7f728ce8fa,,,,,,,,,,,,,,,,,,,,,,,,,,,,,,,,,,,,,,,,,,,,,,,,,,,,,,,,,,,,,,,,,,,,,,,,,,,,,,,,,,,,,,,,,,,,,,,,,,,,,
,,,,,,6,0,6,0,1,X V Q F H G B L J M P D K C T S W R N Z,60bfd7f41bbb4ec7b94d0414,20,Mężczyzna,2022-06-11_10h36.04.654,task,2021.1.4,Win32,59.44596362,6299f149e92ead563fba08ef,62a453eb3651cd7f728ce8fa,,,,,,,,,,,,,,,,,,,,,,,,,,,,,,,,,,,,,,,,,,,,,,,,,,,,,,,,,,,,,,,,,,,,,,,,,,,,,,,,,,,,,,,,,,,,,,,,,,,,,
,,,,,,7,0,7,0,1,X V Q F H G B L J M P D K C T S W R N Z,60bfd7f41bbb4ec7b94d0414,20,Mężczyzna,2022-06-11_10h36.04.654,task,2021.1.4,Win32,59.44596362,6299f149e92ead563fba08ef,62a453eb3651cd7f728ce8fa,,,,,,,,,,,,,,,,,,,,,,,,,,,,,,,,,,,,,,,,,,,,,,,,,,,,,,,,,,,,,,,,,,,,,,,,,,,,,,,,,,,,,,,,,,,,,,,,,,,,,
,,,,,,8,0,8,0,1,X V Q F H G B L J M P D K C T S W R N Z,60bfd7f41bbb4ec7b94d0414,20,Mężczyzna,2022-06-11_10h36.04.654,task,2021.1.4,Win32,59.44596362,6299f149e92ead563fba08ef,62a453eb3651cd7f728ce8fa,,,,,,,,,,,,,,,,,,,,,,,,,,,,,,,,,,,,,,,,,,,,,,,,,,,,,,,,,,,,,,,,,,,,,,,,,,,,,,,,,,,,,,,,,,,,,,,,,,,,,
,,,,,,,,,,,,60bfd7f41bbb4ec7b94d0414,20,Mężczyzna,2022-06-11_10h36.04.654,task,2021.1.4,Win32,59.44596362,6299f149e92ead563fba08ef,62a453eb3651cd7f728ce8fa,fkckadsk,"[""f"",""k"",""c"",""k"",""a"",""d"",""s"",""k""]","[1.7497999999523017,2.140099999904635,2.255199999809264,2.3170000000000073,2.3245000000000005,2.4509999999999934,2.5181999998092692,2.519999999999982,2.768299999952319]",0,FQMLHJDBN,16,0,16,0,1,,,,,,,,,,,,,,,,,,,,,,,,,,,,,,,,,,,,,,,,,,,,,,,,,,,,,,,,,,,,,,,,,,,,,,,,,,,,,,,,,,,,,,,,,,,
,,,,,,0,0,0,0,1,X V Q F H G B L J M P D K C T S W R N Z,60bfd7f41bbb4ec7b94d0414,20,Mężczyzna,2022-06-11_10h36.04.654,task,2021.1.4,Win32,59.44596362,6299f149e92ead563fba08ef,62a453eb3651cd7f728ce8fa,,,,,,,,,,,,,,,,,,,,,,,,,,,,,,,,,,,,,,,,,,,,,,,,,,,,,,,,,,,,,,,,,,,,,,,,,,,,,,,,,,,,,,,,,,,,,,,,,,,,,
,,,,,,1,0,1,0,1,X V Q F H G B L J M P D K C T S W R N Z,60bfd7f41bbb4ec7b94d0414,20,Mężczyzna,2022-06-11_10h36.04.654,task,2021.1.4,Win32,59.44596362,6299f149e92ead563fba08ef,62a453eb3651cd7f728ce8fa,,,,,,,,,,,,,,,,,,,,,,,,,,,,,,,,,,,,,,,,,,,,,,,,,,,,,,,,,,,,,,,,,,,,,,,,,,,,,,,,,,,,,,,,,,,,,,,,,,,,,
,,,,,,2,0,2,0,1,X V Q F H G B L J M P D K C T S W R N Z,60bfd7f41bbb4ec7b94d0414,20,Mężczyzna,2022-06-11_10h36.04.654,task,2021.1.4,Win32,59.44596362,6299f149e92ead563fba08ef,62a453eb3651cd7f728ce8fa,,,,,,,,,,,,,,,,,,,,,,,,,,,,,,,,,,,,,,,,,,,,,,,,,,,,,,,,,,,,,,,,,,,,,,,,,,,,,,,,,,,,,,,,,,,,,,,,,,,,,
,,,,,,3,0,3,0,1,X V Q F H G B L J M P D K C T S W R N Z,60bfd7f41bbb4ec7b94d0414,20,Mężczyzna,2022-06-11_10h36.04.654,task,2021.1.4,Win32,59.44596362,6299f149e92ead563fba08ef,62a453eb3651cd7f728ce8fa,,,,,,,,,,,,,,,,,,,,,,,,,,,,,,,,,,,,,,,,,,,,,,,,,,,,,,,,,,,,,,,,,,,,,,,,,,,,,,,,,,,,,,,,,,,,,,,,,,,,,
,,,,,,4,0,4,0,1,X V Q F H G B L J M P D K C T S W R N Z,60bfd7f41bbb4ec7b94d0414,20,Mężczyzna,2022-06-11_10h36.04.654,task,2021.1.4,Win32,59.44596362,6299f149e92ead563fba08ef,62a453eb3651cd7f728ce8fa,,,,,,,,,,,,,,,,,,,,,,,,,,,,,,,,,,,,,,,,,,,,,,,,,,,,,,,,,,,,,,,,,,,,,,,,,,,,,,,,,,,,,,,,,,,,,,,,,,,,,
,,,,,,5,0,5,0,1,X V Q F H G B L J M P D K C T S W R N Z,60bfd7f41bbb4ec7b94d0414,20,Mężczyzna,2022-06-11_10h36.04.654,task,2021.1.4,Win32,59.44596362,6299f149e92ead563fba08ef,62a453eb3651cd7f728ce8fa,,,,,,,,,,,,,,,,,,,,,,,,,,,,,,,,,,,,,,,,,,,,,,,,,,,,,,,,,,,,,,,,,,,,,,,,,,,,,,,,,,,,,,,,,,,,,,,,,,,,,
,,,,,,6,0,6,0,1,X V Q F H G B L J M P D K C T S W R N Z,60bfd7f41bbb4ec7b94d0414,20,Mężczyzna,2022-06-11_10h36.04.654,task,2021.1.4,Win32,59.44596362,6299f149e92ead563fba08ef,62a453eb3651cd7f728ce8fa,,,,,,,,,,,,,,,,,,,,,,,,,,,,,,,,,,,,,,,,,,,,,,,,,,,,,,,,,,,,,,,,,,,,,,,,,,,,,,,,,,,,,,,,,,,,,,,,,,,,,
,,,,,,7,0,7,0,1,X V Q F H G B L J M P D K C T S W R N Z,60bfd7f41bbb4ec7b94d0414,20,Mężczyzna,2022-06-11_10h36.04.654,task,2021.1.4,Win32,59.44596362,6299f149e92ead563fba08ef,62a453eb3651cd7f728ce8fa,,,,,,,,,,,,,,,,,,,,,,,,,,,,,,,,,,,,,,,,,,,,,,,,,,,,,,,,,,,,,,,,,,,,,,,,,,,,,,,,,,,,,,,,,,,,,,,,,,,,,
,,,,,,8,0,8,0,1,X V Q F H G B L J M P D K C T S W R N Z,60bfd7f41bbb4ec7b94d0414,20,Mężczyzna,2022-06-11_10h36.04.654,task,2021.1.4,Win32,59.44596362,6299f149e92ead563fba08ef,62a453eb3651cd7f728ce8fa,,,,,,,,,,,,,,,,,,,,,,,,,,,,,,,,,,,,,,,,,,,,,,,,,,,,,,,,,,,,,,,,,,,,,,,,,,,,,,,,,,,,,,,,,,,,,,,,,,,,,
,,,,,,,,,,,,60bfd7f41bbb4ec7b94d0414,20,Mężczyzna,2022-06-11_10h36.04.654,task,2021.1.4,Win32,59.44596362,6299f149e92ead563fba08ef,62a453eb3651cd7f728ce8fa,czgvbfcv,"[""c"",""z"",""g"",""v"",""b"",""f"",""c"",""v""]","[2.2264999999999873,2.6389000000953615,2.9375,3.434700000047684,4.522599999904628,5.095200000047669,5.390700000047673,5.9002000000476755,6.137400000095369]",0,CZHGBFCQV,17,0,17,0,1,,,,,,,,,,,,,,,,,,,,,,,,,,,,,,,,,,,,,,,,,,,,,,,,,,,,,,,,,,,,,,,,,,,,,,,,,,,,,,,,,,,,,,,,,,,
,,,,,,,,,,,,60bfd7f41bbb4ec7b94d0414,20,Mężczyzna,2022-06-11_10h36.04.654,task,2021.1.4,Win32,59.44596362,6299f149e92ead563fba08ef,62a453eb3651cd7f728ce8fa,,,,,,,,,,,space,6.0112,2,"[""2""]",1,[2.7703999998569486],[2.7703999998569486],0,0,0,2,1,Practice,3,(4x4) - 14,2,,,,,,,,,,,,,,,,,,,,,,,,,,,,,,,,,,,,,,,,,,,,,,,,,,,,,,,,,,,,,,,,,,,,,,,,,,,
,,,,,,,,,,,,60bfd7f41bbb4ec7b94d0414,20,Mężczyzna,2022-06-11_10h36.04.654,task,2021.1.4,Win32,59.44596362,6299f149e92ead563fba08ef,62a453eb3651cd7f728ce8fa,,,,,,,,,,,,,4,"[""4""]",1,[1.6325999999046417],"[2.7703999998569486,1.6325999999046417]",0,1,1,4,1,Practice,5,(2x6) - 8,4,,,,,,,,,,,,,,,,,,,,,,,,,,,,,,,,,,,,,,,,,,,,,,,,,,,,,,,,,,,,,,,,,,,,,,,,,,,
,,,,,,,,,,,,60bfd7f41bbb4ec7b94d0414,20,Mężczyzna,2022-06-11_10h36.04.654,task,2021.1.4,Win32,59.44596362,6299f149e92ead563fba08ef,62a453eb3651cd7f728ce8fa,,,,,,,,,,,,,0,"[""0""]",1,[1.2699000000953617],"[2.7703999998569486,1.6325999999046417,1.2699000000953617]",0,2,2,0,1,Practice,1,(3x3) -  9,0,,,,,,,,,,,,,,,,,,,,,,,,,,,,,,,,,,,,,,,,,,,,,,,,,,,,,,,,,,,,,,,,,,,,,,,,,,,
,,,,,,,,,,,,60bfd7f41bbb4ec7b94d0414,20,Mężczyzna,2022-06-11_10h36.04.654,task,2021.1.4,Win32,59.44596362,6299f149e92ead563fba08ef,62a453eb3651cd7f728ce8fa,,,,,,,,,,,,,1,"[""1""]",1,[1.1500000000000057],"[2.7703999998569486,1.6325999999046417,1.2699000000953617,1.1500000000000057]",0,3,3,1,1,Practice,2,(4x4) - 15,1,,,,,,,,,,,,,,,,,,,,,,,,,,,,,,,,,,,,,,,,,,,,,,,,,,,,,,,,,,,,,,,,,,,,,,,,,,,
,,,,,,,,,,,,60bfd7f41bbb4ec7b94d0414,20,Mężczyzna,2022-06-11_10h36.04.654,task,2021.1.4,Win32,59.44596362,6299f149e92ead563fba08ef,62a453eb3651cd7f728ce8fa,,,,,,,,,,,,,9,"[""9""]",1,[1.7035000000000196],"[2.7703999998569486,1.6325999999046417,1.2699000000953617,1.1500000000000057,1.7035000000000196]",0,4,4,9,1,Practice,10,(20/2) - 1,9,,,,,,,,,,,,,,,,,,,,,,,,,,,,,,,,,,,,,,,,,,,,,,,,,,,,,,,,,,,,,,,,,,,,,,,,,,,
,,,,,,,,,,,,60bfd7f41bbb4ec7b94d0414,20,Mężczyzna,2022-06-11_10h36.04.654,task,2021.1.4,Win32,59.44596362,6299f149e92ead563fba08ef,62a453eb3651cd7f728ce8fa,,,,,,,,,,,,,7,"[""7""]",1,[2.551099999904636],"[2.7703999998569486,1.6325999999046417,1.2699000000953617,1.1500000000000057,1.7035000000000196,2.551099999904636]",0,5,5,7,1,Practice,8,(5x5) - 18,7,,,,,,,,,,,,,,,,,,,,,,,,,,,,,,,,,,,,,,,,,,,,,,,,,,,,,,,,,,,,,,,,,,,,,,,,,,,
,,,,,,,,,,,,60bfd7f41bbb4ec7b94d0414,20,Mężczyzna,2022-06-11_10h36.04.654,task,2021.1.4,Win32,59.44596362,6299f149e92ead563fba08ef,62a453eb3651cd7f728ce8fa,,,,,,,,,,,,,3,"[""3""]",1,[2.0002999999523183],"[2.7703999998569486,1.6325999999046417,1.2699000000953617,1.1500000000000057,1.7035000000000196,2.551099999904636,2.0002999999523183]",0,6,6,3,1,Practice,4,(8/4) + 1,3,,,,,,,,,,,,,,,,,,,,,,,,,,,,,,,,,,,,,,,,,,,,,,,,,,,,,,,,,,,,,,,,,,,,,,,,,,,
,,,,,,,,,,,,60bfd7f41bbb4ec7b94d0414,20,Mężczyzna,2022-06-11_10h36.04.654,task,2021.1.4,Win32,59.44596362,6299f149e92ead563fba08ef,62a453eb3651cd7f728ce8fa,,,,,,,,,,,,,6,"[""6""]",1,[1.5501000001430896],"[2.7703999998569486,1.6325999999046417,1.2699000000953617,1.1500000000000057,1.7035000000000196,2.551099999904636,2.0002999999523183,1.5501000001430896]",0,7,7,6,1,Practice,7,(25/5) + 1,6,,,,,,,,,,,,,,,,,,,,,,,,,,,,,,,,,,,,,,,,,,,,,,,,,,,,,,,,,,,,,,,,,,,,,,,,,,,
,,,,,,,,,,,,60bfd7f41bbb4ec7b94d0414,20,Mężczyzna,2022-06-11_10h36.04.654,task,2021.1.4,Win32,59.44596362,6299f149e92ead563fba08ef,62a453eb3651cd7f728ce8fa,,,,,,,,,,,,,8,"[""8""]",1,[0.9917999999523204],"[2.7703999998569486,1.6325999999046417,1.2699000000953617,1.1500000000000057,1.7035000000000196,2.551099999904636,2.0002999999523183,1.5501000001430896,0.9917999999523204]",0,8,8,8,1,Practice,9,(3x3) - 1,8,,,,,,,,,,,,,,,,,,,,,,,,,,,,,,,,,,,,,,,,,,,,,,,,,,,,,,,,,,,,,,,,,,,,,,,,,,,
,,,,,,,,,,,,60bfd7f41bbb4ec7b94d0414,20,Mężczyzna,2022-06-11_10h36.04.654,task,2021.1.4,Win32,59.44596362,6299f149e92ead563fba08ef,62a453eb3651cd7f728ce8fa,,,,,,,,,,,,,5,"[""5""]",1,[2.3570999999046194],"[2.7703999998569486,1.6325999999046417,1.2699000000953617,1.1500000000000057,1.7035000000000196,2.551099999904636,2.0002999999523183,1.5501000001430896,0.9917999999523204,2.3570999999046194]",0,9,9,5,1,Practice,6,(4/2) + 3,5,,,,,,,,,,,,,,,,,,,,,,,,,,,,,,,,,,,,,,,,,,,,,,,,,,,,,,,,,,,,,,,,,,,,,,,,,,,
,,,,,,,,,,,,60bfd7f41bbb4ec7b94d0414,20,Mężczyzna,2022-06-11_10h36.04.654,task,2021.1.4,Win32,59.44596362,6299f149e92ead563fba08ef,62a453eb3651cd7f728ce8fa,,,,,,,,,,,,,,,,,,,,,,,,,,,1,17.9768,1.198453333,6.903458296,0.678402943,2.948732926,space,1.003,0,0,0,0,1,,,,,,,,,,,,,,,,,,,,,,,,,,,,,,,,,,,,,,,,,,,,,,,,,,,,,,,,,,,,,,
,,,,,,,,,,,,60bfd7f41bbb4ec7b94d0414,20,Mężczyzna,2022-06-11_10h36.04.654,task,2021.1.4,Win32,59.44596362,6299f149e92ead563fba08ef,62a453eb3651cd7f728ce8fa,,,,,,,,,,,,,3,,,,,,,,,,Practice,4,(8/4) + 1,3,,,,,,,,,,,,,,space,8.8739,"[""3""]",1,[2.265099999904635],1,0,0,0,3,1,,,,,,,,,,,,,,,,,,,,,,,,,,,,,,,,,,,,,,,,,,,,,,,,,,,
,,,,,,,,,,,X V Q F H G B L J M P D K C T S W R N Z,60bfd7f41bbb4ec7b94d0414,20,Mężczyzna,2022-06-11_10h36.04.654,task,2021.1.4,Win32,59.44596362,6299f149e92ead563fba08ef,62a453eb3651cd7f728ce8fa,,,,,,,,,,,,,,,,,,,,,,,,,,,,,,,,,,,,,,,,,,,,,,,,,,,0,0,0,0,1,,,,,,,,,,,,,,,,,,,,,,,,,,,,,,,,,,,,,,,,,,,,,,
,,,,,,,,,,,,60bfd7f41bbb4ec7b94d0414,20,Mężczyzna,2022-06-11_10h36.04.654,task,2021.1.4,Win32,59.44596362,6299f149e92ead563fba08ef,62a453eb3651cd7f728ce8fa,,,,,,,,,,,,,1,,,,,,,,,,Practice,2,(4x4) - 15,1,,,,,,,,,,,,,,,,"[""1""]",1,[1.0870999999046376],1,0,0,0,1,1,,,,,,,,,,,,,,,,,,,,,,,,,,,,,,,,,,,,,,,,,,,,,,,,,,,
,,,,,,,,,,,X V Q F H G B L J M P D K C T S W R N Z,60bfd7f41bbb4ec7b94d0414,20,Mężczyzna,2022-06-11_10h36.04.654,task,2021.1.4,Win32,59.44596362,6299f149e92ead563fba08ef,62a453eb3651cd7f728ce8fa,,,,,,,,,,,,,,,,,,,,,,,,,,,,,,,,,,,,,,,,,,,,,,,,,,,1,0,1,0,1,,,,,,,,,,,,,,,,,,,,,,,,,,,,,,,,,,,,,,,,,,,,,,
,,,,,,,,,,,,60bfd7f41bbb4ec7b94d0414,20,Mężczyzna,2022-06-11_10h36.04.654,task,2021.1.4,Win32,59.44596362,6299f149e92ead563fba08ef,62a453eb3651cd7f728ce8fa,,,,,,,,,,,,,,,,,,,,,,,,,,,,,,,,,,,,,,,,,,,,,,,,,,,,,,,,zf,"[""z"",""f""]",0,"[2.1605999999046617,2.4445999999046535,3.5402000000477187]",1,0,0,0,0,1,,,,,,,,,,,,,,,,,,,,,,,,,,,,,,,,,,,,
,,,,,,,,,,,,60bfd7f41bbb4ec7b94d0414,20,Mężczyzna,2022-06-11_10h36.04.654,task,2021.1.4,Win32,59.44596362,6299f149e92ead563fba08ef,62a453eb3651cd7f728ce8fa,,,,,,,,,,,,,8,,,,,,,,,,Practice,9,(3x3) - 1,8,,,,,,,,,,,,,,,,"[""8""]",1,[1.9101999998092651],1,0,0,0,8,1,,,,,,,,,,,,,,,,,,,,,,,,,,,,,,,,,,,,,,,,,,,,,,,,,,,
,,,,,,,,,,,X V Q F H G B L J M P D K C T S W R N Z,60bfd7f41bbb4ec7b94d0414,20,Mężczyzna,2022-06-11_10h36.04.654,task,2021.1.4,Win32,59.44596362,6299f149e92ead563fba08ef,62a453eb3651cd7f728ce8fa,,,,,,,,,,,,,,,,,,,,,,,,,,,,,,,,,,,,,,,,,,,,,,,,,,,0,0,0,0,1,,,,,,,,,,,,,,,,,,,,,,,,,,,,,,,,,,,,,,,,,,,,,,
,,,,,,,,,,,,60bfd7f41bbb4ec7b94d0414,20,Mężczyzna,2022-06-11_10h36.04.654,task,2021.1.4,Win32,59.44596362,6299f149e92ead563fba08ef,62a453eb3651cd7f728ce8fa,,,,,,,,,,,,,2,,,,,,,,,,Practice,3,(4x4) - 14,2,,,,,,,,,,,,,,,,"[""2""]",1,[1.7163000001906994],1,0,0,0,2,1,,,,,,,,,,,,,,,,,,,,,,,,,,,,,,,,,,,,,,,,,,,,,,,,,,,
,,,,,,,,,,,X V Q F H G B L J M P D K C T S W R N Z,60bfd7f41bbb4ec7b94d0414,20,Mężczyzna,2022-06-11_10h36.04.654,task,2021.1.4,Win32,59.44596362,6299f149e92ead563fba08ef,62a453eb3651cd7f728ce8fa,,,,,,,,,,,,,,,,,,,,,,,,,,,,,,,,,,,,,,,,,,,,,,,,,,,1,0,1,0,1,,,,,,,,,,,,,,,,,,,,,,,,,,,,,,,,,,,,,,,,,,,,,,
,,,,,,,,,,,,60bfd7f41bbb4ec7b94d0414,20,Mężczyzna,2022-06-11_10h36.04.654,task,2021.1.4,Win32,59.44596362,6299f149e92ead563fba08ef,62a453eb3651cd7f728ce8fa,,,,,,,,,,,,,,,,,,,,,,,,,,,,,,,,,,,,,,,,,,,,,,,,,,,,,,,,rn,"[""r"",""n""]",0,"[1.2210000000000036,1.379900000095347,1.6472000000476896]",1,1,0,1,0,1,,,,,,,,,,,,,,,,,,,,,,,,,,,,,,,,,,,,
,,,,,,,,,,,,60bfd7f41bbb4ec7b94d0414,20,Mężczyzna,2022-06-11_10h36.04.654,task,2021.1.4,Win32,59.44596362,6299f149e92ead563fba08ef,62a453eb3651cd7f728ce8fa,,,,,,,,,,,,,3,,,,,,,,,,Practice,4,(8/4) + 1,3,,,,,,,,,,,,,,,,"[""3""]",1,[1.3672999999523086],1,0,0,0,3,1,,,,,,,,,,,,,,,,,,,,,,,,,,,,,,,,,,,,,,,,,,,,,,,,,,,
,,,,,,,,,,,X V Q F H G B L J M P D K C T S W R N Z,60bfd7f41bbb4ec7b94d0414,20,Mężczyzna,2022-06-11_10h36.04.654,task,2021.1.4,Win32,59.44596362,6299f149e92ead563fba08ef,62a453eb3651cd7f728ce8fa,,,,,,,,,,,,,,,,,,,,,,,,,,,,,,,,,,,,,,,,,,,,,,,,,,,0,0,0,0,1,,,,,,,,,,,,,,,,,,,,,,,,,,,,,,,,,,,,,,,,,,,,,,
,,,,,,,,,,,,60bfd7f41bbb4ec7b94d0414,20,Mężczyzna,2022-06-11_10h36.04.654,task,2021.1.4,Win32,59.44596362,6299f149e92ead563fba08ef,62a453eb3651cd7f728ce8fa,,,,,,,,,,,,,7,,,,,,,,,,Practice,8,(5x5) - 18,7,,,,,,,,,,,,,,,,"[""7""]",1,[1.207399999856932],1,0,0,0,7,1,,,,,,,,,,,,,,,,,,,,,,,,,,,,,,,,,,,,,,,,,,,,,,,,,,,
,,,,,,,,,,,X V Q F H G B L J M P D K C T S W R N Z,60bfd7f41bbb4ec7b94d0414,20,Mężczyzna,2022-06-11_10h36.04.654,task,2021.1.4,Win32,59.44596362,6299f149e92ead563fba08ef,62a453eb3651cd7f728ce8fa,,,,,,,,,,,,,,,,,,,,,,,,,,,,,,,,,,,,,,,,,,,,,,,,,,,1,0,1,0,1,,,,,,,,,,,,,,,,,,,,,,,,,,,,,,,,,,,,,,,,,,,,,,
,,,,,,,,,,,,60bfd7f41bbb4ec7b94d0414,20,Mężczyzna,2022-06-11_10h36.04.654,task,2021.1.4,Win32,59.44596362,6299f149e92ead563fba08ef,62a453eb3651cd7f728ce8fa,,,,,,,,,,,,,,,,,,,,,,,,,,,,,,,,,,,,,,,,,,,,,,,,,,,,,,,,tc,"[""t"",""c""]",0,"[1.4498999998569388,1.7020999999046467,1.8370999999046376]",1,2,0,2,0,1,,,,,,,,,,,,,,,,,,,,,,,,,,,,,,,,,,,,
,,,,,,,,,,,,60bfd7f41bbb4ec7b94d0414,20,Mężczyzna,2022-06-11_10h36.04.654,task,2021.1.4,Win32,59.44596362,6299f149e92ead563fba08ef,62a453eb3651cd7f728ce8fa,,,,,,,,,,,,,9,,,,,,,,,,Task,24,(2x2) + 5,9,,,,,,,,,,,,,,,,,,,1,,,,,,,,,,,,,,,,,,,,,space,5.446,"[""9""]",1,[2.7192000000476924],0,0,0,23,1,,,,,,,,,,,,,,,,,,,,,,,,,,
,,,,,,,,,,,X V Q F H G B L J M P D K C T S W R N Z,60bfd7f41bbb4ec7b94d0414,20,Mężczyzna,2022-06-11_10h36.04.654,task,2021.1.4,Win32,59.44596362,6299f149e92ead563fba08ef,62a453eb3651cd7f728ce8fa,,,,,,,,,,,,,,,,,,,,,,,,,,,,,,,,,,,,,,,,,,,,,,,,,,,,,,,,,,,,,,,,,,,,,,,,,,,,0,0,0,0,1,,,,,,,,,,,,,,,,,,,,,
,,,,,,,,,,,,60bfd7f41bbb4ec7b94d0414,20,Mężczyzna,2022-06-11_10h36.04.654,task,2021.1.4,Win32,59.44596362,6299f149e92ead563fba08ef,62a453eb3651cd7f728ce8fa,,,,,,,,,,,,,,,,,,,,,,,Task,36,(8/4) + 3,5,,,,,,,,,,,,,,,,,,,0,,,,,,,,,,,,,,,,,,,,,,,,0,,0,0,0,35,1,,,,,,,,,,,,,,,,,,,,,,,,,,
,,,,,,,,,,,,60bfd7f41bbb4ec7b94d0414,20,Mężczyzna,2022-06-11_10h36.04.654,task,2021.1.4,Win32,59.44596362,6299f149e92ead563fba08ef,62a453eb3651cd7f728ce8fa,,,,,,,,,,,,,,,,,,,,,,,Task,38,(4x6) - 17,7,,,,,,,,,,,,,,,,,,,0,,,,,,,,,,,,,,,,,,,,,,,,0,,0,1,1,37,1,,,,,,,,,,,,,,,,,,,,,,,,,,
,,,,,,,,,,,,60bfd7f41bbb4ec7b94d0414,20,Mężczyzna,2022-06-11_10h36.04.654,task,2021.1.4,Win32,59.44596362,6299f149e92ead563fba08ef,62a453eb3651cd7f728ce8fa,,,,,,,,,,,,,5,,,,,,,,,,Task,22,(3x1) + 2,5,,,,,,,,,,,,,,,,,,,1,,,,,,,,,,,,,,,,,,,,,,,"[""5""]",1,[1.501900000095361],0,2,2,21,1,,,,,,,,,,,,,,,,,,,,,,,,,,
,,,,,,,,,,,X V Q F H G B L J M P D K C T S W R N Z,60bfd7f41bbb4ec7b94d0414,20,Mężczyzna,2022-06-11_10h36.04.654,task,2021.1.4,Win32,59.44596362,6299f149e92ead563fba08ef,62a453eb3651cd7f728ce8fa,,,,,,,,,,,,,,,,,,,,,,,,,,,,,,,,,,,,,,,,,,,,,,,,,,,,,,,,,,,,,,,,,,,,,,,,,,,,1,0,1,0,1,,,,,,,,,,,,,,,,,,,,,
,,,,,,,,,,,,60bfd7f41bbb4ec7b94d0414,20,Mężczyzna,2022-06-11_10h36.04.654,task,2021.1.4,Win32,59.44596362,6299f149e92ead563fba08ef,62a453eb3651cd7f728ce8fa,,,,,,,,,,,,,,,,,,,,,,,,,,,,,,,,,,,,,,,,,,,,,,,,,,,,,,,,,,,,,,,,,,,,,,,,,,,,,,,,,tp,"[""t"",""p""]",0,"[1.2023999998569366,1.4890000000000327,1.69529999995234]",0,ZP,0,0,0,0,1,,,,,,,,,,
,,,,,,,,,,,,60bfd7f41bbb4ec7b94d0414,20,Mężczyzna,2022-06-11_10h36.04.654,task,2021.1.4,Win32,59.44596362,6299f149e92ead563fba08ef,62a453eb3651cd7f728ce8fa,,,,,,,,,,,,,3,,,,,,,,,,Task,3,(2x3) - 3,3,,,,,,,,,,,,,,,,,,,1,,,,,,,,,,,,,,,,,,,,,,,"[""3""]",1,[1.4924000000953583],0,0,0,2,1,,,,,,,,,,,,,,,,,,,,,,,,,,
,,,,,,,,,,,X V Q F H G B L J M P D K C T S W R N Z,60bfd7f41bbb4ec7b94d0414,20,Mężczyzna,2022-06-11_10h36.04.654,task,2021.1.4,Win32,59.44596362,6299f149e92ead563fba08ef,62a453eb3651cd7f728ce8fa,,,,,,,,,,,,,,,,,,,,,,,,,,,,,,,,,,,,,,,,,,,,,,,,,,,,,,,,,,,,,,,,,,,,,,,,,,,,0,0,0,0,1,,,,,,,,,,,,,,,,,,,,,
,,,,,,,,,,,,60bfd7f41bbb4ec7b94d0414,20,Mężczyzna,2022-06-11_10h36.04.654,task,2021.1.4,Win32,59.44596362,6299f149e92ead563fba08ef,62a453eb3651cd7f728ce8fa,,,,,,,,,,,,,3,,,,,,,,,,Task,35,(1x2) + 1,3,,,,,,,,,,,,,,,,,,,1,,,,,,,,,,,,,,,,,,,,,,,"[""3""]",1,[1.089700000047685],0,0,0,34,1,,,,,,,,,,,,,,,,,,,,,,,,,,
,,,,,,,,,,,X V Q F H G B L J M P D K C T S W R N Z,60bfd7f41bbb4ec7b94d0414,20,Mężczyzna,2022-06-11_10h36.04.654,task,2021.1.4,Win32,59.44596362,6299f149e92ead563fba08ef,62a453eb3651cd7f728ce8fa,,,,,,,,,,,,,,,,,,,,,,,,,,,,,,,,,,,,,,,,,,,,,,,,,,,,,,,,,,,,,,,,,,,,,,,,,,,,1,0,1,0,1,,,,,,,,,,,,,,,,,,,,,
,,,,,,,,,,,,60bfd7f41bbb4ec7b94d0414,20,Mężczyzna,2022-06-11_10h36.04.654,task,2021.1.4,Win32,59.44596362,6299f149e92ead563fba08ef,62a453eb3651cd7f728ce8fa,,,,,,,,,,,,,,,,,,,,,,,,,,,,,,,,,,,,,,,,,,,,,,,,,,,,,,,,,,,,,,,,,,,,,,,,,,,,,,,,,kz,"[""k"",""z""]",0,"[2.2666000001430575,2.4554999999999723,2.6691000001430325]",1,KZ,1,0,1,0,1,,,,,,,,,,
,,,,,,,,,,,,60bfd7f41bbb4ec7b94d0414,20,Mężczyzna,2022-06-11_10h36.04.654,task,2021.1.4,Win32,59.44596362,6299f149e92ead563fba08ef,62a453eb3651cd7f728ce8fa,,,,,,,,,,,,,9,,,,,,,,,,Task,24,(2x2) + 5,9,,,,,,,,,,,,,,,,,,,1,,,,,,,,,,,,,,,,,,,,,,,"[""9""]",1,[1.538799999952289],0,0,0,23,1,,,,,,,,,,,,,,,,,,,,,,,,,,
,,,,,,,,,,,X V Q F H G B L J M P D K C T S W R N Z,60bfd7f41bbb4ec7b94d0414,20,Mężczyzna,2022-06-11_10h36.04.654,task,2021.1.4,Win32,59.44596362,6299f149e92ead563fba08ef,62a453eb3651cd7f728ce8fa,,,,,,,,,,,,,,,,,,,,,,,,,,,,,,,,,,,,,,,,,,,,,,,,,,,,,,,,,,,,,,,,,,,,,,,,,,,,0,0,0,0,1,,,,,,,,,,,,,,,,,,,,,
,,,,,,,,,,,,60bfd7f41bbb4ec7b94d0414,20,Mężczyzna,2022-06-11_10h36.04.654,task,2021.1.4,Win32,59.44596362,6299f149e92ead563fba08ef,62a453eb3651cd7f728ce8fa,,,,,,,,,,,,,0,,,,,,,,,,Task,33,(1/1) - 1,0,,,,,,,,,,,,,,,,,,,1,,,,,,,,,,,,,,,,,,,,,,,"[""0""]",1,[1.253499999999974],0,0,0,32,1,,,,,,,,,,,,,,,,,,,,,,,,,,
,,,,,,,,,,,X V Q F H G B L J M P D K C T S W R N Z,60bfd7f41bbb4ec7b94d0414,20,Mężczyzna,2022-06-11_10h36.04.654,task,2021.1.4,Win32,59.44596362,6299f149e92ead563fba08ef,62a453eb3651cd7f728ce8fa,,,,,,,,,,,,,,,,,,,,,,,,,,,,,,,,,,,,,,,,,,,,,,,,,,,,,,,,,,,,,,,,,,,,,,,,,,,,1,0,1,0,1,,,,,,,,,,,,,,,,,,,,,
,,,,,,,,,,,,60bfd7f41bbb4ec7b94d0414,20,Mężczyzna,2022-06-11_10h36.04.654,task,2021.1.4,Win32,59.44596362,6299f149e92ead563fba08ef,62a453eb3651cd7f728ce8fa,,,,,,,,,,,,,7,,,,,,,,,,Task,6,(12/2) + 1,7,,,,,,,,,,,,,,,,,,,1,,,,,,,,,,,,,,,,,,,,,,,"[""7""]",1,[1.6955999999046298],0,0,0,5,1,,,,,,,,,,,,,,,,,,,,,,,,,,
,,,,,,,,,,,X V Q F H G B L J M P D K C T S W R N Z,60bfd7f41bbb4ec7b94d0414,20,Mężczyzna,2022-06-11_10h36.04.654,task,2021.1.4,Win32,59.44596362,6299f149e92ead563fba08ef,62a453eb3651cd7f728ce8fa,,,,,,,,,,,,,,,,,,,,,,,,,,,,,,,,,,,,,,,,,,,,,,,,,,,,,,,,,,,,,,,,,,,,,,,,,,,,2,0,2,0,1,,,,,,,,,,,,,,,,,,,,,
,,,,,,,,,,,,60bfd7f41bbb4ec7b94d0414,20,Mężczyzna,2022-06-11_10h36.04.654,task,2021.1.4,Win32,59.44596362,6299f149e92ead563fba08ef,62a453eb3651cd7f728ce8fa,,,,,,,,,,,,,,,,,,,,,,,,,,,,,,,,,,,,,,,,,,,,,,,,,,,,,,,,,,,,,,,,,,,,,,,,,,,,,,,,,hlf,"[""h"",""l"",""f""]",0,"[1.1170000000000186,1.2332000000477024,1.5187000000476587,1.6502000000476755]",1,HLF,2,0,2,0,1,,,,,,,,,,
,,,,,,,,,,,,60bfd7f41bbb4ec7b94d0414,20,Mężczyzna,2022-06-11_10h36.04.654,task,2021.1.4,Win32,59.44596362,6299f149e92ead563fba08ef,62a453eb3651cd7f728ce8fa,,,,,,,,,,,,,5,,,,,,,,,,Task,36,(8/4) + 3,5,,,,,,,,,,,,,,,,,,,1,,,,,,,,,,,,,,,,,,,,,,,"[""5""]",1,[1.1782000000476955],0,0,0,35,1,,,,,,,,,,,,,,,,,,,,,,,,,,
,,,,,,,,,,,X V Q F H G B L J M P D K C T S W R N Z,60bfd7f41bbb4ec7b94d0414,20,Mężczyzna,2022-06-11_10h36.04.654,task,2021.1.4,Win32,59.44596362,6299f149e92ead563fba08ef,62a453eb3651cd7f728ce8fa,,,,,,,,,,,,,,,,,,,,,,,,,,,,,,,,,,,,,,,,,,,,,,,,,,,,,,,,,,,,,,,,,,,,,,,,,,,,0,0,0,0,1,,,,,,,,,,,,,,,,,,,,,
,,,,,,,,,,,,60bfd7f41bbb4ec7b94d0414,20,Mężczyzna,2022-06-11_10h36.04.654,task,2021.1.4,Win32,59.44596362,6299f149e92ead563fba08ef,62a453eb3651cd7f728ce8fa,,,,,,,,,,,,,6,,,,,,,,,,Task,13,(3x4) - 6,6,,,,,,,,,,,,,,,,,,,1,,,,,,,,,,,,,,,,,,,,,,,"[""6""]",1,[1.261799999952359],0,0,0,12,1,,,,,,,,,,,,,,,,,,,,,,,,,,
,,,,,,,,,,,X V Q F H G B L J M P D K C T S W R N Z,60bfd7f41bbb4ec7b94d0414,20,Mężczyzna,2022-06-11_10h36.04.654,task,2021.1.4,Win32,59.44596362,6299f149e92ead563fba08ef,62a453eb3651cd7f728ce8fa,,,,,,,,,,,,,,,,,,,,,,,,,,,,,,,,,,,,,,,,,,,,,,,,,,,,,,,,,,,,,,,,,,,,,,,,,,,,1,0,1,0,1,,,,,,,,,,,,,,,,,,,,,
,,,,,,,,,,,,60bfd7f41bbb4ec7b94d0414,20,Mężczyzna,2022-06-11_10h36.04.654,task,2021.1.4,Win32,59.44596362,6299f149e92ead563fba08ef,62a453eb3651cd7f728ce8fa,,,,,,,,,,,,,5,,,,,,,,,,Task,1,(12/6) - 1,1,,,,,,,,,,,,,,,,,,,0,,,,,,,,,,,,,,,,,,,,,,,"[""5""]",0,[1.6342999999523045],0,0,0,0,1,,,,,,,,,,,,,,,,,,,,,,,,,,
,,,,,,,,,,,,60bfd7f41bbb4ec7b94d0414,20,Mężczyzna,2022-06-11_10h36.04.654,task,2021.1.4,Win32,59.44596362,6299f149e92ead563fba08ef,62a453eb3651cd7f728ce8fa,,,,,,,,,,,,,5,,,,,,,,,,Task,36,(8/4) + 3,5,,,,,,,,,,,,,,,,,,,1,,,,,,,,,,,,,,,,,,,,,,,"[""5""]",1,[1.2595000000000027],0,1,1,35,1,,,,,,,,,,,,,,,,,,,,,,,,,,
,,,,,,,,,,,X V Q F H G B L J M P D K C T S W R N Z,60bfd7f41bbb4ec7b94d0414,20,Mężczyzna,2022-06-11_10h36.04.654,task,2021.1.4,Win32,59.44596362,6299f149e92ead563fba08ef,62a453eb3651cd7f728ce8fa,,,,,,,,,,,,,,,,,,,,,,,,,,,,,,,,,,,,,,,,,,,,,,,,,,,,,,,,,,,,,,,,,,,,,,,,,,,,2,0,2,0,1,,,,,,,,,,,,,,,,,,,,,
,,,,,,,,,,,,60bfd7f41bbb4ec7b94d0414,20,Mężczyzna,2022-06-11_10h36.04.654,task,2021.1.4,Win32,59.44596362,6299f149e92ead563fba08ef,62a453eb3651cd7f728ce8fa,,,,,,,,,,,,,3,,,,,,,,,,Task,20,(18/9) + 1,3,,,,,,,,,,,,,,,,,,,1,,,,,,,,,,,,,,,,,,,,,,,"[""3""]",1,[1.4323000001907076],0,0,0,19,1,,,,,,,,,,,,,,,,,,,,,,,,,,
,,,,,,,,,,,X V Q F H G B L J M P D K C T S W R N Z,60bfd7f41bbb4ec7b94d0414,20,Mężczyzna,2022-06-11_10h36.04.654,task,2021.1.4,Win32,59.44596362,6299f149e92ead563fba08ef,62a453eb3651cd7f728ce8fa,,,,,,,,,,,,,,,,,,,,,,,,,,,,,,,,,,,,,,,,,,,,,,,,,,,,,,,,,,,,,,,,,,,,,,,,,,,,3,0,3,0,1,,,,,,,,,,,,,,,,,,,,,
,,,,,,,,,,,,60bfd7f41bbb4ec7b94d0414,20,Mężczyzna,2022-06-11_10h36.04.654,task,2021.1.4,Win32,59.44596362,6299f149e92ead563fba08ef,62a453eb3651cd7f728ce8fa,,,,,,,,,,,,,,,,,,,,,,,,,,,,,,,,,,,,,,,,,,,,,,,,,,,,,,,,,,,,,,,,,,,,,,,,,,,,,,,,,tcwf,"[""t"",""c"",""w"",""f""]",0,"[1.38900000000001,2.2848999998569184,3.0517999999523227,3.5095999999045944,3.733799999952282]",1,TCWF,3,0,3,0,1,,,,,,,,,,
,,,,,,,,,,,,60bfd7f41bbb4ec7b94d0414,20,Mężczyzna,2022-06-11_10h36.04.654,task,2021.1.4,Win32,59.44596362,6299f149e92ead563fba08ef,62a453eb3651cd7f728ce8fa,,,,,,,,,,,,,7,,,,,,,,,,Task,14,(2x2) + 3,7,,,,,,,,,,,,,,,,,,,1,,,,,,,,,,,,,,,,,,,,,,,"[""7""]",1,[1.664100000143037],0,0,0,13,1,,,,,,,,,,,,,,,,,,,,,,,,,,
,,,,,,,,,,,X V Q F H G B L J M P D K C T S W R N Z,60bfd7f41bbb4ec7b94d0414,20,Mężczyzna,2022-06-11_10h36.04.654,task,2021.1.4,Win32,59.44596362,6299f149e92ead563fba08ef,62a453eb3651cd7f728ce8fa,,,,,,,,,,,,,,,,,,,,,,,,,,,,,,,,,,,,,,,,,,,,,,,,,,,,,,,,,,,,,,,,,,,,,,,,,,,,0,0,0,0,1,,,,,,,,,,,,,,,,,,,,,
,,,,,,,,,,,,60bfd7f41bbb4ec7b94d0414,20,Mężczyzna,2022-06-11_10h36.04.654,task,2021.1.4,Win32,59.44596362,6299f149e92ead563fba08ef,62a453eb3651cd7f728ce8fa,,,,,,,,,,,,,6,,,,,,,,,,Task,5,(2x3) + 0,6,,,,,,,,,,,,,,,,,,,1,,,,,,,,,,,,,,,,,,,,,,,"[""6""]",1,[1.8493999998569848],0,0,0,4,1,,,,,,,,,,,,,,,,,,,,,,,,,,
,,,,,,,,,,,X V Q F H G B L J M P D K C T S W R N Z,60bfd7f41bbb4ec7b94d0414,20,Mężczyzna,2022-06-11_10h36.04.654,task,2021.1.4,Win32,59.44596362,6299f149e92ead563fba08ef,62a453eb3651cd7f728ce8fa,,,,,,,,,,,,,,,,,,,,,,,,,,,,,,,,,,,,,,,,,,,,,,,,,,,,,,,,,,,,,,,,,,,,,,,,,,,,1,0,1,0,1,,,,,,,,,,,,,,,,,,,,,
,,,,,,,,,,,,60bfd7f41bbb4ec7b94d0414,20,Mężczyzna,2022-06-11_10h36.04.654,task,2021.1.4,Win32,59.44596362,6299f149e92ead563fba08ef,62a453eb3651cd7f728ce8fa,,,,,,,,,,,,,2,,,,,,,,,,Task,2,(2x2) - 2,2,,,,,,,,,,,,,,,,,,,1,,,,,,,,,,,,,,,,,,,,,,,"[""2""]",1,[1.4427999999522854],0,0,0,1,1,,,,,,,,,,,,,,,,,,,,,,,,,,
,,,,,,,,,,,X V Q F H G B L J M P D K C T S W R N Z,60bfd7f41bbb4ec7b94d0414,20,Mężczyzna,2022-06-11_10h36.04.654,task,2021.1.4,Win32,59.44596362,6299f149e92ead563fba08ef,62a453eb3651cd7f728ce8fa,,,,,,,,,,,,,,,,,,,,,,,,,,,,,,,,,,,,,,,,,,,,,,,,,,,,,,,,,,,,,,,,,,,,,,,,,,,,2,0,2,0,1,,,,,,,,,,,,,,,,,,,,,
,,,,,,,,,,,,60bfd7f41bbb4ec7b94d0414,20,Mężczyzna,2022-06-11_10h36.04.654,task,2021.1.4,Win32,59.44596362,6299f149e92ead563fba08ef,62a453eb3651cd7f728ce8fa,,,,,,,,,,,,,2,,,,,,,,,,Task,19,(6/2) - 1,2,,,,,,,,,,,,,,,,,,,1,,,,,,,,,,,,,,,,,,,,,,,"[""2""]",1,[1.3824999999999932],0,0,0,18,1,,,,,,,,,,,,,,,,,,,,,,,,,,
,,,,,,,,,,,X V Q F H G B L J M P D K C T S W R N Z,60bfd7f41bbb4ec7b94d0414,20,Mężczyzna,2022-06-11_10h36.04.654,task,2021.1.4,Win32,59.44596362,6299f149e92ead563fba08ef,62a453eb3651cd7f728ce8fa,,,,,,,,,,,,,,,,,,,,,,,,,,,,,,,,,,,,,,,,,,,,,,,,,,,,,,,,,,,,,,,,,,,,,,,,,,,,3,0,3,0,1,,,,,,,,,,,,,,,,,,,,,
,,,,,,,,,,,,60bfd7f41bbb4ec7b94d0414,20,Mężczyzna,2022-06-11_10h36.04.654,task,2021.1.4,Win32,59.44596362,6299f149e92ead563fba08ef,62a453eb3651cd7f728ce8fa,,,,,,,,,,,,,1,,,,,,,,,,Task,31,(4/2) + 5,7,,,,,,,,,,,,,,,,,,,0,,,,,,,,,,,,,,,,,,,,,,,"[""1""]",0,[1.7508000001907362],0,0,0,30,1,,,,,,,,,,,,,,,,,,,,,,,,,,
,,,,,,,,,,,,60bfd7f41bbb4ec7b94d0414,20,Mężczyzna,2022-06-11_10h36.04.654,task,2021.1.4,Win32,59.44596362,6299f149e92ead563fba08ef,62a453eb3651cd7f728ce8fa,,,,,,,,,,,,,7,,,,,,,,,,Task,15,(3x7) - 13,8,,,,,,,,,,,,,,,,,,,0,,,,,,,,,,,,,,,,,,,,,,,"[""7""]",0,[2.404099999904645],0,1,1,14,1,,,,,,,,,,,,,,,,,,,,,,,,,,
,,,,,,,,,,,,60bfd7f41bbb4ec7b94d0414,20,Mężczyzna,2022-06-11_10h36.04.654,task,2021.1.4,Win32,59.44596362,6299f149e92ead563fba08ef,62a453eb3651cd7f728ce8fa,,,,,,,,,,,,,5,,,,,,,,,,Task,29,(3x8) - 19 ,5,,,,,,,,,,,,,,,,,,,1,,,,,,,,,,,,,,,,,,,,,,,"[""5""]",1,[2.198900000095364],0,2,2,28,1,,,,,,,,,,,,,,,,,,,,,,,,,,
,,,,,,,,,,,X V Q F H G B L J M P D K C T S W R N Z,60bfd7f41bbb4ec7b94d0414,20,Mężczyzna,2022-06-11_10h36.04.654,task,2021.1.4,Win32,59.44596362,6299f149e92ead563fba08ef,62a453eb3651cd7f728ce8fa,,,,,,,,,,,,,,,,,,,,,,,,,,,,,,,,,,,,,,,,,,,,,,,,,,,,,,,,,,,,,,,,,,,,,,,,,,,,4,0,4,0,1,,,,,,,,,,,,,,,,,,,,,
,,,,,,,,,,,,60bfd7f41bbb4ec7b94d0414,20,Mężczyzna,2022-06-11_10h36.04.654,task,2021.1.4,Win32,59.44596362,6299f149e92ead563fba08ef,62a453eb3651cd7f728ce8fa,,,,,,,,,,,,,,,,,,,,,,,,,,,,,,,,,,,,,,,,,,,,,,,,,,,,,,,,,,,,,,,,,,,,,,,,,,,,,,,,,zxnck,"[""z"",""x"",""n"",""c"",""k""]",0,"[1.6258999998569266,1.935099999904594,2.206099999904609,2.6078999998568975,2.8522999999522654,3.1538999998569466]",1,ZXNCK,4,0,4,0,1,,,,,,,,,,
,,,,,,,,,,,,60bfd7f41bbb4ec7b94d0414,20,Mężczyzna,2022-06-11_10h36.04.654,task,2021.1.4,Win32,59.44596362,6299f149e92ead563fba08ef,62a453eb3651cd7f728ce8fa,,,,,,,,,,,,,5,,,,,,,,,,Task,22,(3x1) + 2,5,,,,,,,,,,,,,,,,,,,1,,,,,,,,,,,,,,,,,,,,,,,"[""5""]",1,[1.3773000001907576],0,0,0,21,1,,,,,,,,,,,,,,,,,,,,,,,,,,
,,,,,,,,,,,X V Q F H G B L J M P D K C T S W R N Z,60bfd7f41bbb4ec7b94d0414,20,Mężczyzna,2022-06-11_10h36.04.654,task,2021.1.4,Win32,59.44596362,6299f149e92ead563fba08ef,62a453eb3651cd7f728ce8fa,,,,,,,,,,,,,,,,,,,,,,,,,,,,,,,,,,,,,,,,,,,,,,,,,,,,,,,,,,,,,,,,,,,,,,,,,,,,0,0,0,0,1,,,,,,,,,,,,,,,,,,,,,
,,,,,,,,,,,,60bfd7f41bbb4ec7b94d0414,20,Mężczyzna,2022-06-11_10h36.04.654,task,2021.1.4,Win32,59.44596362,6299f149e92ead563fba08ef,62a453eb3651cd7f728ce8fa,,,,,,,,,,,,,9,,,,,,,,,,Task,24,(2x2) + 5,9,,,,,,,,,,,,,,,,,,,1,,,,,,,,,,,,,,,,,,,,,,,"[""9""]",1,[1.1089999999999804],0,0,0,23,1,,,,,,,,,,,,,,,,,,,,,,,,,,
,,,,,,,,,,,X V Q F H G B L J M P D K C T S W R N Z,60bfd7f41bbb4ec7b94d0414,20,Mężczyzna,2022-06-11_10h36.04.654,task,2021.1.4,Win32,59.44596362,6299f149e92ead563fba08ef,62a453eb3651cd7f728ce8fa,,,,,,,,,,,,,,,,,,,,,,,,,,,,,,,,,,,,,,,,,,,,,,,,,,,,,,,,,,,,,,,,,,,,,,,,,,,,1,0,1,0,1,,,,,,,,,,,,,,,,,,,,,
,,,,,,,,,,,,60bfd7f41bbb4ec7b94d0414,20,Mężczyzna,2022-06-11_10h36.04.654,task,2021.1.4,Win32,59.44596362,6299f149e92ead563fba08ef,62a453eb3651cd7f728ce8fa,,,,,,,,,,,,,6,,,,,,,,,,Task,37,(3/3) + 5,6,,,,,,,,,,,,,,,,,,,1,,,,,,,,,,,,,,,,,,,,,,,"[""6""]",1,[1.932400000095356],0,0,0,36,1,,,,,,,,,,,,,,,,,,,,,,,,,,
,,,,,,,,,,,X V Q F H G B L J M P D K C T S W R N Z,60bfd7f41bbb4ec7b94d0414,20,Mężczyzna,2022-06-11_10h36.04.654,task,2021.1.4,Win32,59.44596362,6299f149e92ead563fba08ef,62a453eb3651cd7f728ce8fa,,,,,,,,,,,,,,,,,,,,,,,,,,,,,,,,,,,,,,,,,,,,,,,,,,,,,,,,,,,,,,,,,,,,,,,,,,,,2,0,2,0,1,,,,,,,,,,,,,,,,,,,,,
,,,,,,,,,,,,60bfd7f41bbb4ec7b94d0414,20,Mężczyzna,2022-06-11_10h36.04.654,task,2021.1.4,Win32,59.44596362,6299f149e92ead563fba08ef,62a453eb3651cd7f728ce8fa,,,,,,,,,,,,,4,,,,,,,,,,Task,21,(10/2) - 1,4,,,,,,,,,,,,,,,,,,,1,,,,,,,,,,,,,,,,,,,,,,,"[""4""]",1,[1.6842000000477242],0,0,0,20,1,,,,,,,,,,,,,,,,,,,,,,,,,,
,,,,,,,,,,,X V Q F H G B L J M P D K C T S W R N Z,60bfd7f41bbb4ec7b94d0414,20,Mężczyzna,2022-06-11_10h36.04.654,task,2021.1.4,Win32,59.44596362,6299f149e92ead563fba08ef,62a453eb3651cd7f728ce8fa,,,,,,,,,,,,,,,,,,,,,,,,,,,,,,,,,,,,,,,,,,,,,,,,,,,,,,,,,,,,,,,,,,,,,,,,,,,,3,0,3,0,1,,,,,,,,,,,,,,,,,,,,,
,,,,,,,,,,,,60bfd7f41bbb4ec7b94d0414,20,Mężczyzna,2022-06-11_10h36.04.654,task,2021.1.4,Win32,59.44596362,6299f149e92ead563fba08ef,62a453eb3651cd7f728ce8fa,,,,,,,,,,,,,9,,,,,,,,,,Task,40,(7x2) - 5,9,,,,,,,,,,,,,,,,,,,1,,,,,,,,,,,,,,,,,,,,,,,"[""9""]",1,[2.1948999998569434],0,0,0,39,1,,,,,,,,,,,,,,,,,,,,,,,,,,
,,,,,,,,,,,X V Q F H G B L J M P D K C T S W R N Z,60bfd7f41bbb4ec7b94d0414,20,Mężczyzna,2022-06-11_10h36.04.654,task,2021.1.4,Win32,59.44596362,6299f149e92ead563fba08ef,62a453eb3651cd7f728ce8fa,,,,,,,,,,,,,,,,,,,,,,,,,,,,,,,,,,,,,,,,,,,,,,,,,,,,,,,,,,,,,,,,,,,,,,,,,,,,4,0,4,0,1,,,,,,,,,,,,,,,,,,,,,
,,,,,,,,,,,,60bfd7f41bbb4ec7b94d0414,20,Mężczyzna,2022-06-11_10h36.04.654,task,2021.1.4,Win32,59.44596362,6299f149e92ead563fba08ef,62a453eb3651cd7f728ce8fa,,,,,,,,,,,,,2,,,,,,,,,,Task,10,(2x5) - 8,2,,,,,,,,,,,,,,,,,,,1,,,,,,,,,,,,,,,,,,,,,,,"[""2""]",1,[1.554200000047672],0,0,0,9,1,,,,,,,,,,,,,,,,,,,,,,,,,,
,,,,,,,,,,,X V Q F H G B L J M P D K C T S W R N Z,60bfd7f41bbb4ec7b94d0414,20,Mężczyzna,2022-06-11_10h36.04.654,task,2021.1.4,Win32,59.44596362,6299f149e92ead563fba08ef,62a453eb3651cd7f728ce8fa,,,,,,,,,,,,,,,,,,,,,,,,,,,,,,,,,,,,,,,,,,,,,,,,,,,,,,,,,,,,,,,,,,,,,,,,,,,,5,0,5,0,1,,,,,,,,,,,,,,,,,,,,,
,,,,,,,,,,,,60bfd7f41bbb4ec7b94d0414,20,Mężczyzna,2022-06-11_10h36.04.654,task,2021.1.4,Win32,59.44596362,6299f149e92ead563fba08ef,62a453eb3651cd7f728ce8fa,,,,,,,,,,,,,,,,,,,,,,,,,,,,,,,,,,,,,,,,,,,,,,,,,,,,,,,,,,,,,,,,,,,,,,,,,,,,,,,,,zbrwvz,"[""z"",""b"",""r"",""w"",""v"",""z""]",0,"[1.6187000000477383,1.8732000000476887,2.124200000047722,3.5597000000477124,4.1494000000953974,4.5400000000000205,4.912100000143084]",1,ZBRWVZ,5,0,5,0,1,,,,,,,,,,
,,,,,,,,,,,,60bfd7f41bbb4ec7b94d0414,20,Mężczyzna,2022-06-11_10h36.04.654,task,2021.1.4,Win32,59.44596362,6299f149e92ead563fba08ef,62a453eb3651cd7f728ce8fa,,,,,,,,,,,,,0,,,,,,,,,,Task,33,(1/1) - 1,0,,,,,,,,,,,,,,,,,,,1,,,,,,,,,,,,,,,,,,,,,,,"[""0""]",1,[1.4263999998569261],0,0,0,32,1,,,,,,,,,,,,,,,,,,,,,,,,,,
,,,,,,,,,,,X V Q F H G B L J M P D K C T S W R N Z,60bfd7f41bbb4ec7b94d0414,20,Mężczyzna,2022-06-11_10h36.04.654,task,2021.1.4,Win32,59.44596362,6299f149e92ead563fba08ef,62a453eb3651cd7f728ce8fa,,,,,,,,,,,,,,,,,,,,,,,,,,,,,,,,,,,,,,,,,,,,,,,,,,,,,,,,,,,,,,,,,,,,,,,,,,,,0,0,0,0,1,,,,,,,,,,,,,,,,,,,,,
,,,,,,,,,,,,60bfd7f41bbb4ec7b94d0414,20,Mężczyzna,2022-06-11_10h36.04.654,task,2021.1.4,Win32,59.44596362,6299f149e92ead563fba08ef,62a453eb3651cd7f728ce8fa,,,,,,,,,,,,,9,,,,,,,,,,Task,40,(7x2) - 5,9,,,,,,,,,,,,,,,,,,,1,,,,,,,,,,,,,,,,,,,,,,,"[""9""]",1,[1.310299999952349],0,0,0,39,1,,,,,,,,,,,,,,,,,,,,,,,,,,
,,,,,,,,,,,X V Q F H G B L J M P D K C T S W R N Z,60bfd7f41bbb4ec7b94d0414,20,Mężczyzna,2022-06-11_10h36.04.654,task,2021.1.4,Win32,59.44596362,6299f149e92ead563fba08ef,62a453eb3651cd7f728ce8fa,,,,,,,,,,,,,,,,,,,,,,,,,,,,,,,,,,,,,,,,,,,,,,,,,,,,,,,,,,,,,,,,,,,,,,,,,,,,1,0,1,0,1,,,,,,,,,,,,,,,,,,,,,
,,,,,,,,,,,,60bfd7f41bbb4ec7b94d0414,20,Mężczyzna,2022-06-11_10h36.04.654,task,2021.1.4,Win32,59.44596362,6299f149e92ead563fba08ef,62a453eb3651cd7f728ce8fa,,,,,,,,,,,,,6,,,,,,,,,,Task,37,(3/3) + 5,6,,,,,,,,,,,,,,,,,,,1,,,,,,,,,,,,,,,,,,,,,,,"[""6""]",1,[2.272599999904628],0,0,0,36,1,,,,,,,,,,,,,,,,,,,,,,,,,,
,,,,,,,,,,,X V Q F H G B L J M P D K C T S W R N Z,60bfd7f41bbb4ec7b94d0414,20,Mężczyzna,2022-06-11_10h36.04.654,task,2021.1.4,Win32,59.44596362,6299f149e92ead563fba08ef,62a453eb3651cd7f728ce8fa,,,,,,,,,,,,,,,,,,,,,,,,,,,,,,,,,,,,,,,,,,,,,,,,,,,,,,,,,,,,,,,,,,,,,,,,,,,,2,0,2,0,1,,,,,,,,,,,,,,,,,,,,,
,,,,,,,,,,,,60bfd7f41bbb4ec7b94d0414,20,Mężczyzna,2022-06-11_10h36.04.654,task,2021.1.4,Win32,59.44596362,6299f149e92ead563fba08ef,62a453eb3651cd7f728ce8fa,,,,,,,,,,,,,9,,,,,,,,,,Task,40,(7x2) - 5,9,,,,,,,,,,,,,,,,,,,1,,,,,,,,,,,,,,,,,,,,,,,"[""9""]",1,[1.9272000000476623],0,0,0,39,1,,,,,,,,,,,,,,,,,,,,,,,,,,
,,,,,,,,,,,X V Q F H G B L J M P D K C T S W R N Z,60bfd7f41bbb4ec7b94d0414,20,Mężczyzna,2022-06-11_10h36.04.654,task,2021.1.4,Win32,59.44596362,6299f149e92ead563fba08ef,62a453eb3651cd7f728ce8fa,,,,,,,,,,,,,,,,,,,,,,,,,,,,,,,,,,,,,,,,,,,,,,,,,,,,,,,,,,,,,,,,,,,,,,,,,,,,3,0,3,0,1,,,,,,,,,,,,,,,,,,,,,
,,,,,,,,,,,,60bfd7f41bbb4ec7b94d0414,20,Mężczyzna,2022-06-11_10h36.04.654,task,2021.1.4,Win32,59.44596362,6299f149e92ead563fba08ef,62a453eb3651cd7f728ce8fa,,,,,,,,,,,,,3,,,,,,,,,,Task,3,(2x3) - 3,3,,,,,,,,,,,,,,,,,,,1,,,,,,,,,,,,,,,,,,,,,,,"[""3""]",1,[1.8538999998569352],0,0,0,2,1,,,,,,,,,,,,,,,,,,,,,,,,,,
,,,,,,,,,,,X V Q F H G B L J M P D K C T S W R N Z,60bfd7f41bbb4ec7b94d0414,20,Mężczyzna,2022-06-11_10h36.04.654,task,2021.1.4,Win32,59.44596362,6299f149e92ead563fba08ef,62a453eb3651cd7f728ce8fa,,,,,,,,,,,,,,,,,,,,,,,,,,,,,,,,,,,,,,,,,,,,,,,,,,,,,,,,,,,,,,,,,,,,,,,,,,,,4,0,4,0,1,,,,,,,,,,,,,,,,,,,,,
,,,,,,,,,,,,60bfd7f41bbb4ec7b94d0414,20,Mężczyzna,2022-06-11_10h36.04.654,task,2021.1.4,Win32,59.44596362,6299f149e92ead563fba08ef,62a453eb3651cd7f728ce8fa,,,,,,,,,,,,,7,,,,,,,,,,Task,31,(4/2) + 5,7,,,,,,,,,,,,,,,,,,,1,,,,,,,,,,,,,,,,,,,,,,,"[""7""]",1,[1.7656000001430243],0,0,0,30,1,,,,,,,,,,,,,,,,,,,,,,,,,,
,,,,,,,,,,,X V Q F H G B L J M P D K C T S W R N Z,60bfd7f41bbb4ec7b94d0414,20,Mężczyzna,2022-06-11_10h36.04.654,task,2021.1.4,Win32,59.44596362,6299f149e92ead563fba08ef,62a453eb3651cd7f728ce8fa,,,,,,,,,,,,,,,,,,,,,,,,,,,,,,,,,,,,,,,,,,,,,,,,,,,,,,,,,,,,,,,,,,,,,,,,,,,,5,0,5,0,1,,,,,,,,,,,,,,,,,,,,,
,,,,,,,,,,,,60bfd7f41bbb4ec7b94d0414,20,Mężczyzna,2022-06-11_10h36.04.654,task,2021.1.4,Win32,59.44596362,6299f149e92ead563fba08ef,62a453eb3651cd7f728ce8fa,,,,,,,,,,,,,2,,,,,,,,,,Task,19,(6/2) - 1,2,,,,,,,,,,,,,,,,,,,1,,,,,,,,,,,,,,,,,,,,,,,"[""2""]",1,[1.1586000001430534],0,0,0,18,1,,,,,,,,,,,,,,,,,,,,,,,,,,
,,,,,,,,,,,X V Q F H G B L J M P D K C T S W R N Z,60bfd7f41bbb4ec7b94d0414,20,Mężczyzna,2022-06-11_10h36.04.654,task,2021.1.4,Win32,59.44596362,6299f149e92ead563fba08ef,62a453eb3651cd7f728ce8fa,,,,,,,,,,,,,,,,,,,,,,,,,,,,,,,,,,,,,,,,,,,,,,,,,,,,,,,,,,,,,,,,,,,,,,,,,,,,6,0,6,0,1,,,,,,,,,,,,,,,,,,,,,
,,,,,,,,,,,,60bfd7f41bbb4ec7b94d0414,20,Mężczyzna,2022-06-11_10h36.04.654,task,2021.1.4,Win32,59.44596362,6299f149e92ead563fba08ef,62a453eb3651cd7f728ce8fa,,,,,,,,,,,,,,,,,,,,,,,,,,,,,,,,,,,,,,,,,,,,,,,,,,,,,,,,,,,,,,,,,,,,,,,,,,,,,,,,,hhcmjxc,"[""h"",""h"",""c"",""m"",""j"",""x"",""c""]",0,"[2.356700000047681,2.5382000000476523,2.8566000001430325,3.0497000000476646,3.7004000000953283,3.970700000047657,4.172100000143018,4.384200000047656]",1,HHCMJXC,6,0,6,0,1,,,,,,,,,,
,,,,,,,,,,,,60bfd7f41bbb4ec7b94d0414,20,Mężczyzna,2022-06-11_10h36.04.654,task,2021.1.4,Win32,59.44596362,6299f149e92ead563fba08ef,62a453eb3651cd7f728ce8fa,,,,,,,,,,,,,3,,,,,,,,,,Task,27,(3/3) + 2,3,,,,,,,,,,,,,,,,,,,1,,,,,,,,,,,,,,,,,,,,,,,"[""3""]",1,[1.3701000001430543],0,0,0,26,1,,,,,,,,,,,,,,,,,,,,,,,,,,
,,,,,,,,,,,X V Q F H G B L J M P D K C T S W R N Z,60bfd7f41bbb4ec7b94d0414,20,Mężczyzna,2022-06-11_10h36.04.654,task,2021.1.4,Win32,59.44596362,6299f149e92ead563fba08ef,62a453eb3651cd7f728ce8fa,,,,,,,,,,,,,,,,,,,,,,,,,,,,,,,,,,,,,,,,,,,,,,,,,,,,,,,,,,,,,,,,,,,,,,,,,,,,0,0,0,0,1,,,,,,,,,,,,,,,,,,,,,
,,,,,,,,,,,,60bfd7f41bbb4ec7b94d0414,20,Mężczyzna,2022-06-11_10h36.04.654,task,2021.1.4,Win32,59.44596362,6299f149e92ead563fba08ef,62a453eb3651cd7f728ce8fa,,,,,,,,,,,,,3,,,,,,,,,,Task,3,(2x3) - 3,3,,,,,,,,,,,,,,,,,,,1,,,,,,,,,,,,,,,,,,,,,,,"[""3""]",1,[1.4230000000000018],0,0,0,2,1,,,,,,,,,,,,,,,,,,,,,,,,,,
,,,,,,,,,,,X V Q F H G B L J M P D K C T S W R N Z,60bfd7f41bbb4ec7b94d0414,20,Mężczyzna,2022-06-11_10h36.04.654,task,2021.1.4,Win32,59.44596362,6299f149e92ead563fba08ef,62a453eb3651cd7f728ce8fa,,,,,,,,,,,,,,,,,,,,,,,,,,,,,,,,,,,,,,,,,,,,,,,,,,,,,,,,,,,,,,,,,,,,,,,,,,,,1,0,1,0,1,,,,,,,,,,,,,,,,,,,,,
,,,,,,,,,,,,60bfd7f41bbb4ec7b94d0414,20,Mężczyzna,2022-06-11_10h36.04.654,task,2021.1.4,Win32,59.44596362,6299f149e92ead563fba08ef,62a453eb3651cd7f728ce8fa,,,,,,,,,,,,,7,,,,,,,,,,Task,38,(4x6) - 17,7,,,,,,,,,,,,,,,,,,,1,,,,,,,,,,,,,,,,,,,,,,,"[""7""]",1,[1.6050000000000182],0,0,0,37,1,,,,,,,,,,,,,,,,,,,,,,,,,,
,,,,,,,,,,,X V Q F H G B L J M P D K C T S W R N Z,60bfd7f41bbb4ec7b94d0414,20,Mężczyzna,2022-06-11_10h36.04.654,task,2021.1.4,Win32,59.44596362,6299f149e92ead563fba08ef,62a453eb3651cd7f728ce8fa,,,,,,,,,,,,,,,,,,,,,,,,,,,,,,,,,,,,,,,,,,,,,,,,,,,,,,,,,,,,,,,,,,,,,,,,,,,,2,0,2,0,1,,,,,,,,,,,,,,,,,,,,,
,,,,,,,,,,,,60bfd7f41bbb4ec7b94d0414,20,Mężczyzna,2022-06-11_10h36.04.654,task,2021.1.4,Win32,59.44596362,6299f149e92ead563fba08ef,62a453eb3651cd7f728ce8fa,,,,,,,,,,,,,2,,,,,,,,,,Task,34,(9/3) - 2,1,,,,,,,,,,,,,,,,,,,0,,,,,,,,,,,,,,,,,,,,,,,"[""2""]",0,[1.5395999999046808],0,0,0,33,1,,,,,,,,,,,,,,,,,,,,,,,,,,
,,,,,,,,,,,,60bfd7f41bbb4ec7b94d0414,20,Mężczyzna,2022-06-11_10h36.04.654,task,2021.1.4,Win32,59.44596362,6299f149e92ead563fba08ef,62a453eb3651cd7f728ce8fa,,,,,,,,,,,,,9,,,,,,,,,,Task,7,(3x7) - 12,9,,,,,,,,,,,,,,,,,,,1,,,,,,,,,,,,,,,,,,,,,,,"[""9""]",1,[2.048999999999978],0,1,1,6,1,,,,,,,,,,,,,,,,,,,,,,,,,,
,,,,,,,,,,,X V Q F H G B L J M P D K C T S W R N Z,60bfd7f41bbb4ec7b94d0414,20,Mężczyzna,2022-06-11_10h36.04.654,task,2021.1.4,Win32,59.44596362,6299f149e92ead563fba08ef,62a453eb3651cd7f728ce8fa,,,,,,,,,,,,,,,,,,,,,,,,,,,,,,,,,,,,,,,,,,,,,,,,,,,,,,,,,,,,,,,,,,,,,,,,,,,,3,0,3,0,1,,,,,,,,,,,,,,,,,,,,,
,,,,,,,,,,,,60bfd7f41bbb4ec7b94d0414,20,Mężczyzna,2022-06-11_10h36.04.654,task,2021.1.4,Win32,59.44596362,6299f149e92ead563fba08ef,62a453eb3651cd7f728ce8fa,,,,,,,,,,,,,2,,,,,,,,,,Task,26,(2x9) - 16,2,,,,,,,,,,,,,,,,,,,1,,,,,,,,,,,,,,,,,,,,,,,"[""2""]",1,[2.377499999999941],0,0,0,25,1,,,,,,,,,,,,,,,,,,,,,,,,,,
,,,,,,,,,,,X V Q F H G B L J M P D K C T S W R N Z,60bfd7f41bbb4ec7b94d0414,20,Mężczyzna,2022-06-11_10h36.04.654,task,2021.1.4,Win32,59.44596362,6299f149e92ead563fba08ef,62a453eb3651cd7f728ce8fa,,,,,,,,,,,,,,,,,,,,,,,,,,,,,,,,,,,,,,,,,,,,,,,,,,,,,,,,,,,,,,,,,,,,,,,,,,,,4,0,4,0,1,,,,,,,,,,,,,,,,,,,,,
,,,,,,,,,,,,60bfd7f41bbb4ec7b94d0414,20,Mężczyzna,2022-06-11_10h36.04.654,task,2021.1.4,Win32,59.44596362,6299f149e92ead563fba08ef,62a453eb3651cd7f728ce8fa,,,,,,,,,,,,,3,,,,,,,,,,Task,35,(1x2) + 1,3,,,,,,,,,,,,,,,,,,,1,,,,,,,,,,,,,,,,,,,,,,,"[""3""]",1,[1.2042999999523545],0,0,0,34,1,,,,,,,,,,,,,,,,,,,,,,,,,,
,,,,,,,,,,,X V Q F H G B L J M P D K C T S W R N Z,60bfd7f41bbb4ec7b94d0414,20,Mężczyzna,2022-06-11_10h36.04.654,task,2021.1.4,Win32,59.44596362,6299f149e92ead563fba08ef,62a453eb3651cd7f728ce8fa,,,,,,,,,,,,,,,,,,,,,,,,,,,,,,,,,,,,,,,,,,,,,,,,,,,,,,,,,,,,,,,,,,,,,,,,,,,,5,0,5,0,1,,,,,,,,,,,,,,,,,,,,,
,,,,,,,,,,,,60bfd7f41bbb4ec7b94d0414,20,Mężczyzna,2022-06-11_10h36.04.654,task,2021.1.4,Win32,59.44596362,6299f149e92ead563fba08ef,62a453eb3651cd7f728ce8fa,,,,,,,,,,,,,7,,,,,,,,,,Task,6,(12/2) + 1,7,,,,,,,,,,,,,,,,,,,1,,,,,,,,,,,,,,,,,,,,,,,"[""7""]",1,[1.677600000143002],0,0,0,5,1,,,,,,,,,,,,,,,,,,,,,,,,,,
,,,,,,,,,,,X V Q F H G B L J M P D K C T S W R N Z,60bfd7f41bbb4ec7b94d0414,20,Mężczyzna,2022-06-11_10h36.04.654,task,2021.1.4,Win32,59.44596362,6299f149e92ead563fba08ef,62a453eb3651cd7f728ce8fa,,,,,,,,,,,,,,,,,,,,,,,,,,,,,,,,,,,,,,,,,,,,,,,,,,,,,,,,,,,,,,,,,,,,,,,,,,,,6,0,6,0,1,,,,,,,,,,,,,,,,,,,,,
,,,,,,,,,,,,60bfd7f41bbb4ec7b94d0414,20,Mężczyzna,2022-06-11_10h36.04.654,task,2021.1.4,Win32,59.44596362,6299f149e92ead563fba08ef,62a453eb3651cd7f728ce8fa,,,,,,,,,,,,,9,,,,,,,,,,Task,16,(3x8) - 15,9,,,,,,,,,,,,,,,,,,,1,,,,,,,,,,,,,,,,,,,,,,,"[""9""]",1,[2.1079000000953556],0,0,0,15,1,,,,,,,,,,,,,,,,,,,,,,,,,,
,,,,,,,,,,,X V Q F H G B L J M P D K C T S W R N Z,60bfd7f41bbb4ec7b94d0414,20,Mężczyzna,2022-06-11_10h36.04.654,task,2021.1.4,Win32,59.44596362,6299f149e92ead563fba08ef,62a453eb3651cd7f728ce8fa,,,,,,,,,,,,,,,,,,,,,,,,,,,,,,,,,,,,,,,,,,,,,,,,,,,,,,,,,,,,,,,,,,,,,,,,,,,,7,0,7,0,1,,,,,,,,,,,,,,,,,,,,,
,,,,,,,,,,,,60bfd7f41bbb4ec7b94d0414,20,Mężczyzna,2022-06-11_10h36.04.654,task,2021.1.4,Win32,59.44596362,6299f149e92ead563fba08ef,62a453eb3651cd7f728ce8fa,,,,,,,,,,,,,,,,,,,,,,,,,,,,,,,,,,,,,,,,,,,,,,,,,,,,,,,,,,,,,,,,,,,,,,,,,,,,,,,,,zxtlnwzq,"[""z"",""x"",""t"",""l"",""n"",""w"",""z"",""q""]",0,"[1.5544999999999618,2.222799999952258,2.6525999999046235,2.8955999999045616,3.1847000000476555,3.5334000000952983,3.8774000000953492,6.6392999999523,7.149999999999977]",1,ZXTLNWZQ,7,0,7,0,1,,,,,,,,,,
,,,,,,,,,,,,60bfd7f41bbb4ec7b94d0414,20,Mężczyzna,2022-06-11_10h36.04.654,task,2021.1.4,Win32,59.44596362,6299f149e92ead563fba08ef,62a453eb3651cd7f728ce8fa,,,,,,,,,,,,,3,,,,,,,,,,Task,25,(10/5) - 2,0,,,,,,,,,,,,,,,,,,,0,,,,,,,,,,,,,,,,,,,,,,,"[""3""]",0,[1.5994999999999209],0,0,0,24,1,,,,,,,,,,,,,,,,,,,,,,,,,,
,,,,,,,,,,,,60bfd7f41bbb4ec7b94d0414,20,Mężczyzna,2022-06-11_10h36.04.654,task,2021.1.4,Win32,59.44596362,6299f149e92ead563fba08ef,62a453eb3651cd7f728ce8fa,,,,,,,,,,,,,9,,,,,,,,,,Task,7,(3x7) - 12,9,,,,,,,,,,,,,,,,,,,1,,,,,,,,,,,,,,,,,,,,,,,"[""9""]",1,[2.0497000000476646],0,1,1,6,1,,,,,,,,,,,,,,,,,,,,,,,,,,
,,,,,,,,,,,X V Q F H G B L J M P D K C T S W R N Z,60bfd7f41bbb4ec7b94d0414,20,Mężczyzna,2022-06-11_10h36.04.654,task,2021.1.4,Win32,59.44596362,6299f149e92ead563fba08ef,62a453eb3651cd7f728ce8fa,,,,,,,,,,,,,,,,,,,,,,,,,,,,,,,,,,,,,,,,,,,,,,,,,,,,,,,,,,,,,,,,,,,,,,,,,,,,0,0,0,0,1,,,,,,,,,,,,,,,,,,,,,
,,,,,,,,,,,,60bfd7f41bbb4ec7b94d0414,20,Mężczyzna,2022-06-11_10h36.04.654,task,2021.1.4,Win32,59.44596362,6299f149e92ead563fba08ef,62a453eb3651cd7f728ce8fa,,,,,,,,,,,,,4,,,,,,,,,,Task,11,(18/3) - 2,4,,,,,,,,,,,,,,,,,,,1,,,,,,,,,,,,,,,,,,,,,,,"[""4""]",1,[2.1118999998569734],0,0,0,10,1,,,,,,,,,,,,,,,,,,,,,,,,,,
,,,,,,,,,,,X V Q F H G B L J M P D K C T S W R N Z,60bfd7f41bbb4ec7b94d0414,20,Mężczyzna,2022-06-11_10h36.04.654,task,2021.1.4,Win32,59.44596362,6299f149e92ead563fba08ef,62a453eb3651cd7f728ce8fa,,,,,,,,,,,,,,,,,,,,,,,,,,,,,,,,,,,,,,,,,,,,,,,,,,,,,,,,,,,,,,,,,,,,,,,,,,,,1,0,1,0,1,,,,,,,,,,,,,,,,,,,,,
,,,,,,,,,,,,60bfd7f41bbb4ec7b94d0414,20,Mężczyzna,2022-06-11_10h36.04.654,task,2021.1.4,Win32,59.44596362,6299f149e92ead563fba08ef,62a453eb3651cd7f728ce8fa,,,,,,,,,,,,,9,,,,,,,,,,Task,40,(7x2) - 5,9,,,,,,,,,,,,,,,,,,,1,,,,,,,,,,,,,,,,,,,,,,,"[""9""]",1,[1.4926000001430566],0,0,0,39,1,,,,,,,,,,,,,,,,,,,,,,,,,,
,,,,,,,,,,,X V Q F H G B L J M P D K C T S W R N Z,60bfd7f41bbb4ec7b94d0414,20,Mężczyzna,2022-06-11_10h36.04.654,task,2021.1.4,Win32,59.44596362,6299f149e92ead563fba08ef,62a453eb3651cd7f728ce8fa,,,,,,,,,,,,,,,,,,,,,,,,,,,,,,,,,,,,,,,,,,,,,,,,,,,,,,,,,,,,,,,,,,,,,,,,,,,,2,0,2,0,1,,,,,,,,,,,,,,,,,,,,,
,,,,,,,,,,,,60bfd7f41bbb4ec7b94d0414,20,Mężczyzna,2022-06-11_10h36.04.654,task,2021.1.4,Win32,59.44596362,6299f149e92ead563fba08ef,62a453eb3651cd7f728ce8fa,,,,,,,,,,,,,9,,,,,,,,,,Task,40,(7x2) - 5,9,,,,,,,,,,,,,,,,,,,1,,,,,,,,,,,,,,,,,,,,,,,"[""9""]",1,[1.133900000095423],0,0,0,39,1,,,,,,,,,,,,,,,,,,,,,,,,,,
,,,,,,,,,,,X V Q F H G B L J M P D K C T S W R N Z,60bfd7f41bbb4ec7b94d0414,20,Mężczyzna,2022-06-11_10h36.04.654,task,2021.1.4,Win32,59.44596362,6299f149e92ead563fba08ef,62a453eb3651cd7f728ce8fa,,,,,,,,,,,,,,,,,,,,,,,,,,,,,,,,,,,,,,,,,,,,,,,,,,,,,,,,,,,,,,,,,,,,,,,,,,,,3,0,3,0,1,,,,,,,,,,,,,,,,,,,,,
,,,,,,,,,,,,60bfd7f41bbb4ec7b94d0414,20,Mężczyzna,2022-06-11_10h36.04.654,task,2021.1.4,Win32,59.44596362,6299f149e92ead563fba08ef,62a453eb3651cd7f728ce8fa,,,,,,,,,,,,,7,,,,,,,,,,Task,38,(4x6) - 17,7,,,,,,,,,,,,,,,,,,,1,,,,,,,,,,,,,,,,,,,,,,,"[""7""]",1,[1.9008000001907703],0,0,0,37,1,,,,,,,,,,,,,,,,,,,,,,,,,,
,,,,,,,,,,,X V Q F H G B L J M P D K C T S W R N Z,60bfd7f41bbb4ec7b94d0414,20,Mężczyzna,2022-06-11_10h36.04.654,task,2021.1.4,Win32,59.44596362,6299f149e92ead563fba08ef,62a453eb3651cd7f728ce8fa,,,,,,,,,,,,,,,,,,,,,,,,,,,,,,,,,,,,,,,,,,,,,,,,,,,,,,,,,,,,,,,,,,,,,,,,,,,,4,0,4,0,1,,,,,,,,,,,,,,,,,,,,,
,,,,,,,,,,,,60bfd7f41bbb4ec7b94d0414,20,Mężczyzna,2022-06-11_10h36.04.654,task,2021.1.4,Win32,59.44596362,6299f149e92ead563fba08ef,62a453eb3651cd7f728ce8fa,,,,,,,,,,,,,1,,,,,,,,,,Task,34,(9/3) - 2,1,,,,,,,,,,,,,,,,,,,1,,,,,,,,,,,,,,,,,,,,,,,"[""1""]",1,[1.2909000000953483],0,0,0,33,1,,,,,,,,,,,,,,,,,,,,,,,,,,
,,,,,,,,,,,X V Q F H G B L J M P D K C T S W R N Z,60bfd7f41bbb4ec7b94d0414,20,Mężczyzna,2022-06-11_10h36.04.654,task,2021.1.4,Win32,59.44596362,6299f149e92ead563fba08ef,62a453eb3651cd7f728ce8fa,,,,,,,,,,,,,,,,,,,,,,,,,,,,,,,,,,,,,,,,,,,,,,,,,,,,,,,,,,,,,,,,,,,,,,,,,,,,5,0,5,0,1,,,,,,,,,,,,,,,,,,,,,
,,,,,,,,,,,,60bfd7f41bbb4ec7b94d0414,20,Mężczyzna,2022-06-11_10h36.04.654,task,2021.1.4,Win32,59.44596362,6299f149e92ead563fba08ef,62a453eb3651cd7f728ce8fa,,,,,,,,,,,,,0,,,,,,,,,,Task,17,(2x3) - 6,0,,,,,,,,,,,,,,,,,,,1,,,,,,,,,,,,,,,,,,,,,,,"[""0""]",1,[1.2042000000476492],0,0,0,16,1,,,,,,,,,,,,,,,,,,,,,,,,,,
,,,,,,,,,,,X V Q F H G B L J M P D K C T S W R N Z,60bfd7f41bbb4ec7b94d0414,20,Mężczyzna,2022-06-11_10h36.04.654,task,2021.1.4,Win32,59.44596362,6299f149e92ead563fba08ef,62a453eb3651cd7f728ce8fa,,,,,,,,,,,,,,,,,,,,,,,,,,,,,,,,,,,,,,,,,,,,,,,,,,,,,,,,,,,,,,,,,,,,,,,,,,,,6,0,6,0,1,,,,,,,,,,,,,,,,,,,,,
,,,,,,,,,,,,60bfd7f41bbb4ec7b94d0414,20,Mężczyzna,2022-06-11_10h36.04.654,task,2021.1.4,Win32,59.44596362,6299f149e92ead563fba08ef,62a453eb3651cd7f728ce8fa,,,,,,,,,,,,,5,,,,,,,,,,Task,4,(1x5) - 1,4,,,,,,,,,,,,,,,,,,,0,,,,,,,,,,,,,,,,,,,,,,,"[""5""]",0,[2.095299999952317],0,0,0,3,1,,,,,,,,,,,,,,,,,,,,,,,,,,
,,,,,,,,,,,,60bfd7f41bbb4ec7b94d0414,20,Mężczyzna,2022-06-11_10h36.04.654,task,2021.1.4,Win32,59.44596362,6299f149e92ead563fba08ef,62a453eb3651cd7f728ce8fa,,,,,,,,,,,,,9,,,,,,,,,,Task,15,(3x7) - 13,8,,,,,,,,,,,,,,,,,,,0,,,,,,,,,,,,,,,,,,,,,,,"[""9""]",0,[1.3820000000000618],0,1,1,14,1,,,,,,,,,,,,,,,,,,,,,,,,,,
,,,,,,,,,,,,60bfd7f41bbb4ec7b94d0414,20,Mężczyzna,2022-06-11_10h36.04.654,task,2021.1.4,Win32,59.44596362,6299f149e92ead563fba08ef,62a453eb3651cd7f728ce8fa,,,,,,,,,,,,,9,,,,,,,,,,Task,40,(7x2) - 5,9,,,,,,,,,,,,,,,,,,,1,,,,,,,,,,,,,,,,,,,,,,,"[""9""]",1,[1.049299999952268],0,2,2,39,1,,,,,,,,,,,,,,,,,,,,,,,,,,
,,,,,,,,,,,X V Q F H G B L J M P D K C T S W R N Z,60bfd7f41bbb4ec7b94d0414,20,Mężczyzna,2022-06-11_10h36.04.654,task,2021.1.4,Win32,59.44596362,6299f149e92ead563fba08ef,62a453eb3651cd7f728ce8fa,,,,,,,,,,,,,,,,,,,,,,,,,,,,,,,,,,,,,,,,,,,,,,,,,,,,,,,,,,,,,,,,,,,,,,,,,,,,7,0,7,0,1,,,,,,,,,,,,,,,,,,,,,
,,,,,,,,,,,,60bfd7f41bbb4ec7b94d0414,20,Mężczyzna,2022-06-11_10h36.04.654,task,2021.1.4,Win32,59.44596362,6299f149e92ead563fba08ef,62a453eb3651cd7f728ce8fa,,,,,,,,,,,,,6,,,,,,,,,,Task,13,(3x4) - 6,6,,,,,,,,,,,,,,,,,,,1,,,,,,,,,,,,,,,,,,,,,,,"[""6""]",1,[1.8884999999999081],0,0,0,12,1,,,,,,,,,,,,,,,,,,,,,,,,,,
,,,,,,,,,,,X V Q F H G B L J M P D K C T S W R N Z,60bfd7f41bbb4ec7b94d0414,20,Mężczyzna,2022-06-11_10h36.04.654,task,2021.1.4,Win32,59.44596362,6299f149e92ead563fba08ef,62a453eb3651cd7f728ce8fa,,,,,,,,,,,,,,,,,,,,,,,,,,,,,,,,,,,,,,,,,,,,,,,,,,,,,,,,,,,,,,,,,,,,,,,,,,,,8,0,8,0,1,,,,,,,,,,,,,,,,,,,,,
,,,,,,,,,,,,60bfd7f41bbb4ec7b94d0414,20,Mężczyzna,2022-06-11_10h36.04.654,task,2021.1.4,Win32,59.44596362,6299f149e92ead563fba08ef,62a453eb3651cd7f728ce8fa,,,,,,,,,,,,,,,,,,,,,,,,,,,,,,,,,,,,,,,,,,,,,,,,,,,,,,,,,,,,,,,,,,,,,,,,,,,,,,,,,xdwhzdxbt,"[""x"",""d"",""w"",""h"",""z"",""d"",""x"",""b"",""t""]",0,"[1.4104000000954784,1.8586000001431557,2.190200000047753,3.188000000000102,3.6669000000954384,5.36200000000008,6.057900000095401,6.47950000000003,6.756100000143078,6.992299999952365]",0,XDWHZBXST,8,0,8,0,1,,,,,,,,,,
,,,,,,,,,,,,60bfd7f41bbb4ec7b94d0414,20,Mężczyzna,2022-06-11_10h36.04.654,task,2021.1.4,Win32,59.44596362,6299f149e92ead563fba08ef,62a453eb3651cd7f728ce8fa,,,,,,,,,,,,,0,,,,,,,,,,Task,8,(1x5) - 5,0,,,,,,,,,,,,,,,,,,,1,,,,,,,,,,,,,,,,,,,,,,,"[""0""]",1,[1.5157000000476728],0,0,0,7,1,,,,,,,,,,,,,,,,,,,,,,,,,,
,,,,,,,,,,,X V Q F H G B L J M P D K C T S W R N Z,60bfd7f41bbb4ec7b94d0414,20,Mężczyzna,2022-06-11_10h36.04.654,task,2021.1.4,Win32,59.44596362,6299f149e92ead563fba08ef,62a453eb3651cd7f728ce8fa,,,,,,,,,,,,,,,,,,,,,,,,,,,,,,,,,,,,,,,,,,,,,,,,,,,,,,,,,,,,,,,,,,,,,,,,,,,,0,0,0,0,1,,,,,,,,,,,,,,,,,,,,,
,,,,,,,,,,,,60bfd7f41bbb4ec7b94d0414,20,Mężczyzna,2022-06-11_10h36.04.654,task,2021.1.4,Win32,59.44596362,6299f149e92ead563fba08ef,62a453eb3651cd7f728ce8fa,,,,,,,,,,,,,3,,,,,,,,,,Task,20,(18/9) + 1,3,,,,,,,,,,,,,,,,,,,1,,,,,,,,,,,,,,,,,,,,,,,"[""3""]",1,[1.8104999999999336],0,0,0,19,1,,,,,,,,,,,,,,,,,,,,,,,,,,
,,,,,,,,,,,X V Q F H G B L J M P D K C T S W R N Z,60bfd7f41bbb4ec7b94d0414,20,Mężczyzna,2022-06-11_10h36.04.654,task,2021.1.4,Win32,59.44596362,6299f149e92ead563fba08ef,62a453eb3651cd7f728ce8fa,,,,,,,,,,,,,,,,,,,,,,,,,,,,,,,,,,,,,,,,,,,,,,,,,,,,,,,,,,,,,,,,,,,,,,,,,,,,1,0,1,0,1,,,,,,,,,,,,,,,,,,,,,
,,,,,,,,,,,,60bfd7f41bbb4ec7b94d0414,20,Mężczyzna,2022-06-11_10h36.04.654,task,2021.1.4,Win32,59.44596362,6299f149e92ead563fba08ef,62a453eb3651cd7f728ce8fa,,,,,,,,,,,,,4,,,,,,,,,,Task,4,(1x5) - 1,4,,,,,,,,,,,,,,,,,,,1,,,,,,,,,,,,,,,,,,,,,,,"[""4""]",1,[1.6827000000477028],0,0,0,3,1,,,,,,,,,,,,,,,,,,,,,,,,,,
,,,,,,,,,,,X V Q F H G B L J M P D K C T S W R N Z,60bfd7f41bbb4ec7b94d0414,20,Mężczyzna,2022-06-11_10h36.04.654,task,2021.1.4,Win32,59.44596362,6299f149e92ead563fba08ef,62a453eb3651cd7f728ce8fa,,,,,,,,,,,,,,,,,,,,,,,,,,,,,,,,,,,,,,,,,,,,,,,,,,,,,,,,,,,,,,,,,,,,,,,,,,,,2,0,2,0,1,,,,,,,,,,,,,,,,,,,,,
,,,,,,,,,,,,60bfd7f41bbb4ec7b94d0414,20,Mężczyzna,2022-06-11_10h36.04.654,task,2021.1.4,Win32,59.44596362,6299f149e92ead563fba08ef,62a453eb3651cd7f728ce8fa,,,,,,,,,,,,,8,,,,,,,,,,Task,15,(3x7) - 13,8,,,,,,,,,,,,,,,,,,,1,,,,,,,,,,,,,,,,,,,,,,,"[""8""]",1,[2.4859000000953984],0,0,0,14,1,,,,,,,,,,,,,,,,,,,,,,,,,,
,,,,,,,,,,,X V Q F H G B L J M P D K C T S W R N Z,60bfd7f41bbb4ec7b94d0414,20,Mężczyzna,2022-06-11_10h36.04.654,task,2021.1.4,Win32,59.44596362,6299f149e92ead563fba08ef,62a453eb3651cd7f728ce8fa,,,,,,,,,,,,,,,,,,,,,,,,,,,,,,,,,,,,,,,,,,,,,,,,,,,,,,,,,,,,,,,,,,,,,,,,,,,,3,0,3,0,1,,,,,,,,,,,,,,,,,,,,,
,,,,,,,,,,,,60bfd7f41bbb4ec7b94d0414,20,Mężczyzna,2022-06-11_10h36.04.654,task,2021.1.4,Win32,59.44596362,6299f149e92ead563fba08ef,62a453eb3651cd7f728ce8fa,,,,,,,,,,,,,8,,,,,,,,,,Task,15,(3x7) - 13,8,,,,,,,,,,,,,,,,,,,1,,,,,,,,,,,,,,,,,,,,,,,"[""8""]",1,[1.1059999999999945],0,0,0,14,1,,,,,,,,,,,,,,,,,,,,,,,,,,
,,,,,,,,,,,X V Q F H G B L J M P D K C T S W R N Z,60bfd7f41bbb4ec7b94d0414,20,Mężczyzna,2022-06-11_10h36.04.654,task,2021.1.4,Win32,59.44596362,6299f149e92ead563fba08ef,62a453eb3651cd7f728ce8fa,,,,,,,,,,,,,,,,,,,,,,,,,,,,,,,,,,,,,,,,,,,,,,,,,,,,,,,,,,,,,,,,,,,,,,,,,,,,4,0,4,0,1,,,,,,,,,,,,,,,,,,,,,
,,,,,,,,,,,,60bfd7f41bbb4ec7b94d0414,20,Mężczyzna,2022-06-11_10h36.04.654,task,2021.1.4,Win32,59.44596362,6299f149e92ead563fba08ef,62a453eb3651cd7f728ce8fa,,,,,,,,,,,,,9,,,,,,,,,,Task,7,(3x7) - 12,9,,,,,,,,,,,,,,,,,,,1,,,,,,,,,,,,,,,,,,,,,,,"[""9""]",1,[1.8157999999523327],0,0,0,6,1,,,,,,,,,,,,,,,,,,,,,,,,,,
,,,,,,,,,,,X V Q F H G B L J M P D K C T S W R N Z,60bfd7f41bbb4ec7b94d0414,20,Mężczyzna,2022-06-11_10h36.04.654,task,2021.1.4,Win32,59.44596362,6299f149e92ead563fba08ef,62a453eb3651cd7f728ce8fa,,,,,,,,,,,,,,,,,,,,,,,,,,,,,,,,,,,,,,,,,,,,,,,,,,,,,,,,,,,,,,,,,,,,,,,,,,,,5,0,5,0,1,,,,,,,,,,,,,,,,,,,,,
,,,,,,,,,,,,60bfd7f41bbb4ec7b94d0414,20,Mężczyzna,2022-06-11_10h36.04.654,task,2021.1.4,Win32,59.44596362,6299f149e92ead563fba08ef,62a453eb3651cd7f728ce8fa,,,,,,,,,,,,,2,,,,,,,,,,Task,10,(2x5) - 8,2,,,,,,,,,,,,,,,,,,,1,,,,,,,,,,,,,,,,,,,,,,,"[""2""]",1,[1.4074999999999136],0,0,0,9,1,,,,,,,,,,,,,,,,,,,,,,,,,,
,,,,,,,,,,,X V Q F H G B L J M P D K C T S W R N Z,60bfd7f41bbb4ec7b94d0414,20,Mężczyzna,2022-06-11_10h36.04.654,task,2021.1.4,Win32,59.44596362,6299f149e92ead563fba08ef,62a453eb3651cd7f728ce8fa,,,,,,,,,,,,,,,,,,,,,,,,,,,,,,,,,,,,,,,,,,,,,,,,,,,,,,,,,,,,,,,,,,,,,,,,,,,,6,0,6,0,1,,,,,,,,,,,,,,,,,,,,,
,,,,,,,,,,,,60bfd7f41bbb4ec7b94d0414,20,Mężczyzna,2022-06-11_10h36.04.654,task,2021.1.4,Win32,59.44596362,6299f149e92ead563fba08ef,62a453eb3651cd7f728ce8fa,,,,,,,,,,,,,3,,,,,,,,,,Task,3,(2x3) - 3,3,,,,,,,,,,,,,,,,,,,1,,,,,,,,,,,,,,,,,,,,,,,"[""3""]",1,[1.6028999998569589],0,0,0,2,1,,,,,,,,,,,,,,,,,,,,,,,,,,
,,,,,,,,,,,X V Q F H G B L J M P D K C T S W R N Z,60bfd7f41bbb4ec7b94d0414,20,Mężczyzna,2022-06-11_10h36.04.654,task,2021.1.4,Win32,59.44596362,6299f149e92ead563fba08ef,62a453eb3651cd7f728ce8fa,,,,,,,,,,,,,,,,,,,,,,,,,,,,,,,,,,,,,,,,,,,,,,,,,,,,,,,,,,,,,,,,,,,,,,,,,,,,7,0,7,0,1,,,,,,,,,,,,,,,,,,,,,
,,,,,,,,,,,,60bfd7f41bbb4ec7b94d0414,20,Mężczyzna,2022-06-11_10h36.04.654,task,2021.1.4,Win32,59.44596362,6299f149e92ead563fba08ef,62a453eb3651cd7f728ce8fa,,,,,,,,,,,,,5,,,,,,,,,,Task,12,(4x4) - 11,5,,,,,,,,,,,,,,,,,,,1,,,,,,,,,,,,,,,,,,,,,,,"[""5""]",1,[2.4266000001430257],0,0,0,11,1,,,,,,,,,,,,,,,,,,,,,,,,,,
,,,,,,,,,,,X V Q F H G B L J M P D K C T S W R N Z,60bfd7f41bbb4ec7b94d0414,20,Mężczyzna,2022-06-11_10h36.04.654,task,2021.1.4,Win32,59.44596362,6299f149e92ead563fba08ef,62a453eb3651cd7f728ce8fa,,,,,,,,,,,,,,,,,,,,,,,,,,,,,,,,,,,,,,,,,,,,,,,,,,,,,,,,,,,,,,,,,,,,,,,,,,,,8,0,8,0,1,,,,,,,,,,,,,,,,,,,,,
,,,,,,,,,,,,60bfd7f41bbb4ec7b94d0414,20,Mężczyzna,2022-06-11_10h36.04.654,task,2021.1.4,Win32,59.44596362,6299f149e92ead563fba08ef,62a453eb3651cd7f728ce8fa,,,,,,,,,,,,,,,,,,,,,,,,,,,,,,,,,,,,,,,,,,,,,,,,,,,,,,,,,,,,,,,,,,,,,,,,,,,,,,,,,xwfxxbxdf,"[""x"",""w"",""f"",""x"",""x"",""b"",""x"",""d"",""f""]",0,"[2.468499999999949,3.0347000000476783,3.425200000047653,3.800099999904546,4.001400000095259,4.295900000095344,4.508999999999901,5.579400000095347,5.766999999999939,5.900299999952267]",0,FWMXXFXMB,9,0,9,0,1,,,,,,,,,,
,,,,,,,,,,,,60bfd7f41bbb4ec7b94d0414,20,Mężczyzna,2022-06-11_10h36.04.654,task,2021.1.4,Win32,59.44596362,6299f149e92ead563fba08ef,62a453eb3651cd7f728ce8fa,,,,,,,,,,,,,,,,,,,,,,,,,,,,,,,,,,,,,,,,,,,,,,,,,,,,,,,,,,,,,,,,,,,,,,,,,,,,,,,,,,,,,,,,,,,,"[""comma""]",0,[0.9334000000953893],0,0,0,0,1,,
,,,,,,,,,,,,60bfd7f41bbb4ec7b94d0414,20,Mężczyzna,2022-06-11_10h36.04.654,task,2021.1.4,Win32,59.44596362,6299f149e92ead563fba08ef,62a453eb3651cd7f728ce8fa,,,,,,,,,,,,,,,,,,,,,,,,,,,,,,,,,,,,,,,,,,,,,,,,,,,,,,,,,,,,,,,,,,,,,,,,,,,,,,,,,,,,,,,,,,,,"[""comma""]",0,[1.3002000000476528],1,0,1,0,1,,
,,,,,,,,,,,,60bfd7f41bbb4ec7b94d0414,20,Mężczyzna,2022-06-11_10h36.04.654,task,2021.1.4,Win32,59.44596362,6299f149e92ead563fba08ef,62a453eb3651cd7f728ce8fa,,,,,,,,,,,,,,,,,,,,,,,,,,,,,,,,,,,,,,,,,,,,,,,,,,,,,,,,,,,,,,,,,,,,,,,,,,,,,,,,,,,,,,,,,,,,"[""period""]",0,[1.000300000190805],2,0,2,0,1,,
,,,,,,,,,,,,60bfd7f41bbb4ec7b94d0414,20,Mężczyzna,2022-06-11_10h36.04.654,task,2021.1.4,Win32,59.44596362,6299f149e92ead563fba08ef,62a453eb3651cd7f728ce8fa,,,,,,,,,,,,,,,,,,,,,,,,,,,,,,,,,,,,,,,,,,,,,,,,,,,,,,,,,,,,,,,,,,,,,,,,,,,,,,,,,,,,,,,,,,,,"[""comma""]",0,[1.0997999999522108],3,0,3,0,1,,
,,,,,,,,,,,,60bfd7f41bbb4ec7b94d0414,20,Mężczyzna,2022-06-11_10h36.04.654,task,2021.1.4,Win32,59.44596362,6299f149e92ead563fba08ef,62a453eb3651cd7f728ce8fa,,,,,,,,,,,,,,,,,,,,,,,,,,,,,,,,,,,,,,,,,,,,,,,,,,,,,,,,,,,,,,,,,,,,,,,,,,,,,,,,,,,,,,,,,,,,"[""period""]",0,[0.31689999985690065],4,0,4,0,1,,
,,,,,,,,,,,,60bfd7f41bbb4ec7b94d0414,20,Mężczyzna,2022-06-11_10h36.04.654,task,2021.1.4,Win32,59.44596362,6299f149e92ead563fba08ef,62a453eb3651cd7f728ce8fa,,,,,,,,,,,,,,,,,,,,,,,,,,,,,,,,,,,,,,,,,,,,,,,,,,,,,,,,,,,,,,,,,,,,,,,,,,,,,,,,,,,,,,,,,,,,"[""comma""]",0,[0.316799999952309],5,0,5,0,1,,
,,,,,,,,,,,,60bfd7f41bbb4ec7b94d0414,20,Mężczyzna,2022-06-11_10h36.04.654,task,2021.1.4,Win32,59.44596362,6299f149e92ead563fba08ef,62a453eb3651cd7f728ce8fa,,,,,,,,,,,,,,,,,,,,,,,,,,,,,,,,,,,,,,,,,,,,,,,,,,,,,,,,,,,,,,,,,,,,,,,,,,,,,,,,,,,,,,,,,,,,"[""comma""]",0,[0.40199999999992997],6,0,6,0,1,,
,,,,,,,,,,,,60bfd7f41bbb4ec7b94d0414,20,Mężczyzna,2022-06-11_10h36.04.654,task,2021.1.4,Win32,59.44596362,6299f149e92ead563fba08ef,62a453eb3651cd7f728ce8fa,,,,,,,,,,,,,,,,,,,,,,,,,,,,,,,,,,,,,,,,,,,,,,,,,,,,,,,,,,,,,,,,,,,,,,,,,,,,,,,,,,,,,,,,,,,,"[""comma""]",0,[0.40710000014303205],7,0,7,0,1,,
,,,,,,,,,,,,60bfd7f41bbb4ec7b94d0414,20,Mężczyzna,2022-06-11_10h36.04.654,task,2021.1.4,Win32,59.44596362,6299f149e92ead563fba08ef,62a453eb3651cd7f728ce8fa,,,,,,,,,,,,,,,,,,,,,,,,,,,,,,,,,,,,,,,,,,,,,,,,,,,,,,,,,,,,,,,,,,,,,,,,,,,,,,,,,,,,,,,,,,,,"[""period""]",0,[0.31690000009541563],8,0,8,0,1,,
,,,,,,,,,,,,60bfd7f41bbb4ec7b94d0414,20,Mężczyzna,2022-06-11_10h36.04.654,task,2021.1.4,Win32,59.44596362,6299f149e92ead563fba08ef,62a453eb3651cd7f728ce8fa,,,,,,,,,,,,,,,,,,,,,,,,,,,,,,,,,,,,,,,,,,,,,,,,,,,,,,,,,,,,,,,,,,,,,,,,,,,,,,,,,,,,,,,,,,,,"[""comma""]",0,[0.3170999999045989],9,0,9,0,1,,
,,,,,,,,,,,,60bfd7f41bbb4ec7b94d0414,20,Mężczyzna,2022-06-11_10h36.04.654,task,2021.1.4,Win32,59.44596362,6299f149e92ead563fba08ef,62a453eb3651cd7f728ce8fa,,,,,,,,,,,,,,,,,,,,,,,,,,,,,,,,,,,,,,,,,,,,,,,,,,,,,,,,,,,,,,,,,,,,,,,,,,,,,,,,,,,,,,,,,,,,"[""period""]",0,[0.28379999995229355],10,0,10,0,1,,
,,,,,,,,,,,,60bfd7f41bbb4ec7b94d0414,20,Mężczyzna,2022-06-11_10h36.04.654,task,2021.1.4,Win32,59.44596362,6299f149e92ead563fba08ef,62a453eb3651cd7f728ce8fa,,,,,,,,,,,,,,,,,,,,,,,,,,,,,,,,,,,,,,,,,,,,,,,,,,,,,,,,,,,,,,,,,,,,,,,,,,,,,,,,,,,,,,,,,,,,"[""comma""]",0,[0.31690000009541563],11,0,11,0,1,,
,,,,,,,,,,,,60bfd7f41bbb4ec7b94d0414,20,Mężczyzna,2022-06-11_10h36.04.654,task,2021.1.4,Win32,59.44596362,6299f149e92ead563fba08ef,62a453eb3651cd7f728ce8fa,,,,,,,,,,,,,,,,,,,,,,,,,,,,,,,,,,,,,,,,,,,,,,,,,,,,,,,,,,,,,,,,,,,,,,,,,,,,,,,,,,,,,,,,,,,,"[""comma""]",0,[0.2996999998092633],12,0,12,0,1,,
,,,,,,,,,,,,60bfd7f41bbb4ec7b94d0414,20,Mężczyzna,2022-06-11_10h36.04.654,task,2021.1.4,Win32,59.44596362,6299f149e92ead563fba08ef,62a453eb3651cd7f728ce8fa,,,,,,,,,,,,,,,,,,,,,,,,,,,,,,,,,,,,,,,,,,,,,,,,,,,,,,,,,,,,,,,,,,,,,,,,,,,,,,,,,,,,,,,,,,,,"[""period""]",0,[0.2839999999999918],13,0,13,0,1,,
,,,,,,,,,,,,60bfd7f41bbb4ec7b94d0414,20,Mężczyzna,2022-06-11_10h36.04.654,task,2021.1.4,Win32,59.44596362,6299f149e92ead563fba08ef,62a453eb3651cd7f728ce8fa,,,,,,,,,,,,,,,,,,,,,,,,,,,,,,,,,,,,,,,,,,,,,,,,,,,,,,,,,,,,,,,,,,,,,,,,,,,,,,,,,,,,,,,,,,,,"[""comma""]",0,[0.33429999995234994],14,0,14,0,1,,
,,,,,,,,,,,,60bfd7f41bbb4ec7b94d0414,20,Mężczyzna,2022-06-11_10h36.04.654,task,2021.1.4,Win32,59.44596362,6299f149e92ead563fba08ef,62a453eb3651cd7f728ce8fa,,,,,,,,,,,,,,,,,,,,,,,,,,,,,,,,,,,,,,,,,,,,,,,,,,,,,,,,,,,,,,,,,,,,,,,,,,,,,,,,,,,,,,,,,,,,"[""comma""]",0,[0.2858999998569516],15,0,15,0,1,,
,,,,,,,,,,,,60bfd7f41bbb4ec7b94d0414,20,Mężczyzna,2022-06-11_10h36.04.654,task,2021.1.4,Win32,59.44596362,6299f149e92ead563fba08ef,62a453eb3651cd7f728ce8fa,,,,,,,,,,,,,,,,,,,,,,,,,,,,,,,,,,,,,,,,,,,,,,,,,,,,,,,,,,,,,,,,,,,,,,,,,,,,,,,,,,,,,,,,,,,,"[""comma""]",0,[0.3502000000476073],16,0,16,0,1,,
,,,,,,,,,,,,60bfd7f41bbb4ec7b94d0414,20,Mężczyzna,2022-06-11_10h36.04.654,task,2021.1.4,Win32,59.44596362,6299f149e92ead563fba08ef,62a453eb3651cd7f728ce8fa,,,,,,,,,,,,,,,,,,,,,,,,,,,,,,,,,,,,,,,,,,,,,,,,,,,,,,,,,,,,,,,,,,,,,,,,,,,,,,,,,,,,,,,,,,,,"[""period""]",0,[0.30009999990465985],17,0,17,0,1,,
,,,,,,,,,,,,60bfd7f41bbb4ec7b94d0414,20,Mężczyzna,2022-06-11_10h36.04.654,task,2021.1.4,Win32,59.44596362,6299f149e92ead563fba08ef,62a453eb3651cd7f728ce8fa,,,,,,,,,,,,,,,,,,,,,,,,,,,,,,,,,,,,,,,,,,,,,,,,,,,,,,,,,,,,,,,,,,,,,,,,,,,,,,,,,,,,,,,,,,,,"[""period""]",0,[0.43340000009538926],18,0,18,0,1,,
,,,,,,,,,,,,60bfd7f41bbb4ec7b94d0414,20,Mężczyzna,2022-06-11_10h36.04.654,task,2021.1.4,Win32,59.44596362,6299f149e92ead563fba08ef,62a453eb3651cd7f728ce8fa,,,,,,,,,,,,,,,,,,,,,,,,,,,,,,,,,,,,,,,,,,,,,,,,,,,,,,,,,,,,,,,,,,,,,,,,,,,,,,,,,,,,,,,,,,,,"[""comma""]",0,[0.3507999999523008],19,0,19,0,1,,
,,,,,,,,,,,,60bfd7f41bbb4ec7b94d0414,20,Mężczyzna,2022-06-11_10h36.04.654,task,2021.1.4,Win32,59.44596362,6299f149e92ead563fba08ef,62a453eb3651cd7f728ce8fa,,,,,,,,,,,,,,,,,,,,,,,,,,,,,,,,,,,,,,,,,,,,,,,,,,,,,,,,,,,,,,,,,,,,,,,,,,,,,,,,,,,,,,,,,,,,"[""period""]",0,[0.36920000004772646],20,0,20,0,1,,
,,,,,,,,,,,,60bfd7f41bbb4ec7b94d0414,20,Mężczyzna,2022-06-11_10h36.04.654,task,2021.1.4,Win32,59.44596362,6299f149e92ead563fba08ef,62a453eb3651cd7f728ce8fa,,,,,,,,,,,,,,,,,,,,,,,,,,,,,,,,,,,,,,,,,,,,,,,,,,,,,,,,,,,,,,,,,,,,,,,,,,,,,,,,,,,,,,,,,,,,"[""period""]",0,[0.3353000001907276],21,0,21,0,1,,
,,,,,,,,,,,,60bfd7f41bbb4ec7b94d0414,20,Mężczyzna,2022-06-11_10h36.04.654,task,2021.1.4,Win32,59.44596362,6299f149e92ead563fba08ef,62a453eb3651cd7f728ce8fa,,,,,,,,,,,,,,,,,,,,,,,,,,,,,,,,,,,,,,,,,,,,,,,,,,,,,,,,,,,,,,,,,,,,,,,,,,,,,,,,,,,,,,,,,,,,"[""comma""]",0,[0.40029999995238086],22,0,22,0,1,,
,,,,,,,,,,,,60bfd7f41bbb4ec7b94d0414,20,Mężczyzna,2022-06-11_10h36.04.654,task,2021.1.4,Win32,59.44596362,6299f149e92ead563fba08ef,62a453eb3651cd7f728ce8fa,,,,,,,,,,,,,,,,,,,,,,,,,,,,,,,,,,,,,,,,,,,,,,,,,,,,,,,,,,,,,,,,,,,,,,,,,,,,,,,,,,,,,,,,,,,,"[""period""]",0,[0.31920000004777194],23,0,23,0,1,,
,,,,,,,,,,,,60bfd7f41bbb4ec7b94d0414,20,Mężczyzna,2022-06-11_10h36.04.654,task,2021.1.4,Win32,59.44596362,6299f149e92ead563fba08ef,62a453eb3651cd7f728ce8fa,,,,,,,,,,,,,,,,,,,,,,,,,,,,,,,,,,,,,,,,,,,,,,,,,,,,,,,,,,,,,,,,,,,,,,,,,,,,,,,,,,,,,,,,,,,,"[""comma""]",0,[0.3000000000000682],24,0,24,0,1,,
,,,,,,,,,,,,60bfd7f41bbb4ec7b94d0414,20,Mężczyzna,2022-06-11_10h36.04.654,task,2021.1.4,Win32,59.44596362,6299f149e92ead563fba08ef,62a453eb3651cd7f728ce8fa,,,,,,,,,,,,,,,,,,,,,,,,,,,,,,,,,,,,,,,,,,,,,,,,,,,,,,,,,,,,,,,,,,,,,,,,,,,,,,,,,,,,,,,,,,,,"[""comma""]",0,[0.3139000000953729],25,0,25,0,1,,
,,,,,,,,,,,,60bfd7f41bbb4ec7b94d0414,20,Mężczyzna,2022-06-11_10h36.04.654,task,2021.1.4,Win32,59.44596362,6299f149e92ead563fba08ef,62a453eb3651cd7f728ce8fa,,,,,,,,,,,,,,,,,,,,,,,,,,,,,,,,,,,,,,,,,,,,,,,,,,,,,,,,,,,,,,,,,,,,,,,,,,,,,,,,,,,,,,,,,,,,"[""comma""]",0,[0.5370000000000346],26,0,26,0,1,,
,,,,,,,,,,,,60bfd7f41bbb4ec7b94d0414,20,Mężczyzna,2022-06-11_10h36.04.654,task,2021.1.4,Win32,59.44596362,6299f149e92ead563fba08ef,62a453eb3651cd7f728ce8fa,,,,,,,,,,,,,,,,,,,,,,,,,,,,,,,,,,,,,,,,,,,,,,,,,,,,,,,,,,,,,,,,,,,,,,,,,,,,,,,,,,,,,,,,,,,,"[""comma""]",0,[0.40020000004767553],27,0,27,0,1,,
,,,,,,,,,,,,60bfd7f41bbb4ec7b94d0414,20,Mężczyzna,2022-06-11_10h36.04.654,task,2021.1.4,Win32,59.44596362,6299f149e92ead563fba08ef,62a453eb3651cd7f728ce8fa,,,,,,,,,,,,,,,,,,,,,,,,,,,,,,,,,,,,,,,,,,,,,,,,,,,,,,,,,,,,,,,,,,,,,,,,,,,,,,,,,,,,,,,,,,,,"[""period""]",0,[0.28609999990464985],28,0,28,0,1,,
