key_resp_15.keys,key_resp_15.rt,key_resp_13.keys,key_resp_13.corr,key_resp_13.rt,ranodm_loop.thisRepN,ranodm_loop.thisTrialN,ranodm_loop.thisN,ranodm_loop.thisIndex,ranodm_loop.ran,participant,Wiek*,Płeć,date,expName,psychopyVersion,OS,frameRate,study_id,session,key_resp_16.keys,key_resp_16.rt,key_resp_4.keys,key_resp_4.rt,next_letter.thisRepN,next_letter.thisTrialN,next_letter.thisN,next_letter.thisIndex,next_letter.ran,letter,simple_recall,key_resp_5.keys,key_resp_5.rt,simple_recall_corr,simple_recall_corrkeys,next_level.thisRepN,next_level.thisTrialN,next_level.thisN,next_level.thisIndex,next_level.ran,key_resp_2.keys,key_resp_2.rt,digit_answer,key_resp.keys,key_resp.corr,key_resp.rt,RT_list,next_equation.thisRepN,next_equation.thisTrialN,next_equation.thisN,next_equation.thisIndex,next_equation.ran,Task,Trial,Problem,Operation_answer,processing_score,sumRT,meanRT,sumdiff,sd,RT,key_resp_3.keys,key_resp_3.rt,repeat_practice.thisRepN,repeat_practice.thisTrialN,repeat_practice.thisN,repeat_practice.thisIndex,repeat_practice.ran,key_resp_6.keys,key_resp_6.rt,key_resp_11.keys,key_resp_11.corr,key_resp_11.rt,operation_correct,repeat_if_wrong_prac.thisRepN,repeat_if_wrong_prac.thisTrialN,repeat_if_wrong_prac.thisN,repeat_if_wrong_prac.thisIndex,repeat_if_wrong_prac.ran,span_size_prac.thisRepN,span_size_prac.thisTrialN,span_size_prac.thisN,span_size_prac.thisIndex,span_size_prac.ran,complex_recall_practice,key_resp_9.keys,key_resp_9.corr,key_resp_9.rt,complex_prac_corr,span_recall_prac.thisRepN,span_recall_prac.thisTrialN,span_recall_prac.thisN,span_recall_prac.thisIndex,span_recall_prac.ran,key_resp_10.keys,key_resp_10.rt,key_resp_7.keys,key_resp_7.corr,key_resp_7.rt,repeat_if_wrong.thisRepN,repeat_if_wrong.thisTrialN,repeat_if_wrong.thisN,repeat_if_wrong.thisIndex,repeat_if_wrong.ran,span_size.thisRepN,span_size.thisTrialN,span_size.thisN,span_size.thisIndex,span_size.ran,complex_recall,key_resp_8.keys,key_resp_8.corr,key_resp_8.rt,complex_recall_corr,complex_recall_corrkeys,span_recall.thisRepN,span_recall.thisTrialN,span_recall.thisN,span_recall.thisIndex,span_recall.ran,key_resp_12.keys,key_resp_12.rt
space,32.8097,"[""comma""]",0,[0.9783000000044666],0,0,0,0,1,60c8f96ddb749ea0361c1ae8,19,Mężczyzna,2022-06-04_08h13.35.288,task,2021.1.4,Win32,60.0060006,628b806c463b948bc644b84f,629af7fb2c22a39f62674c69,,,,,,,,,,,,,,,,,,,,,,,,,,,,,,,,,,,,,,,,,,,,,,,,,,,,,,,,,,,,,,,,,,,,,,,,,,,,,,,,,,,,,,,,,,,,,,,,,,,,,,,
,,"[""comma""]",0,[0.4334999999999951],1,0,1,0,1,60c8f96ddb749ea0361c1ae8,19,Mężczyzna,2022-06-04_08h13.35.288,task,2021.1.4,Win32,60.0060006,628b806c463b948bc644b84f,629af7fb2c22a39f62674c69,,,,,,,,,,,,,,,,,,,,,,,,,,,,,,,,,,,,,,,,,,,,,,,,,,,,,,,,,,,,,,,,,,,,,,,,,,,,,,,,,,,,,,,,,,,,,,,,,,,,,,,
,,"[""period""]",0,[0.3489000000059548],2,0,2,0,1,60c8f96ddb749ea0361c1ae8,19,Mężczyzna,2022-06-04_08h13.35.288,task,2021.1.4,Win32,60.0060006,628b806c463b948bc644b84f,629af7fb2c22a39f62674c69,,,,,,,,,,,,,,,,,,,,,,,,,,,,,,,,,,,,,,,,,,,,,,,,,,,,,,,,,,,,,,,,,,,,,,,,,,,,,,,,,,,,,,,,,,,,,,,,,,,,,,,
,,"[""comma""]",0,[0.6169999999999902],3,0,3,0,1,60c8f96ddb749ea0361c1ae8,19,Mężczyzna,2022-06-04_08h13.35.288,task,2021.1.4,Win32,60.0060006,628b806c463b948bc644b84f,629af7fb2c22a39f62674c69,,,,,,,,,,,,,,,,,,,,,,,,,,,,,,,,,,,,,,,,,,,,,,,,,,,,,,,,,,,,,,,,,,,,,,,,,,,,,,,,,,,,,,,,,,,,,,,,,,,,,,,
,,"[""period""]",0,[0.3333000000044706],4,0,4,0,1,60c8f96ddb749ea0361c1ae8,19,Mężczyzna,2022-06-04_08h13.35.288,task,2021.1.4,Win32,60.0060006,628b806c463b948bc644b84f,629af7fb2c22a39f62674c69,,,,,,,,,,,,,,,,,,,,,,,,,,,,,,,,,,,,,,,,,,,,,,,,,,,,,,,,,,,,,,,,,,,,,,,,,,,,,,,,,,,,,,,,,,,,,,,,,,,,,,,
,,"[""period""]",0,[0.3230000000000075],5,0,5,0,1,60c8f96ddb749ea0361c1ae8,19,Mężczyzna,2022-06-04_08h13.35.288,task,2021.1.4,Win32,60.0060006,628b806c463b948bc644b84f,629af7fb2c22a39f62674c69,,,,,,,,,,,,,,,,,,,,,,,,,,,,,,,,,,,,,,,,,,,,,,,,,,,,,,,,,,,,,,,,,,,,,,,,,,,,,,,,,,,,,,,,,,,,,,,,,,,,,,,
,,"[""comma""]",0,[0.533200000002978],6,0,6,0,1,60c8f96ddb749ea0361c1ae8,19,Mężczyzna,2022-06-04_08h13.35.288,task,2021.1.4,Win32,60.0060006,628b806c463b948bc644b84f,629af7fb2c22a39f62674c69,,,,,,,,,,,,,,,,,,,,,,,,,,,,,,,,,,,,,,,,,,,,,,,,,,,,,,,,,,,,,,,,,,,,,,,,,,,,,,,,,,,,,,,,,,,,,,,,,,,,,,,
,,"[""period""]",0,[0.52379999999701],7,0,7,0,1,60c8f96ddb749ea0361c1ae8,19,Mężczyzna,2022-06-04_08h13.35.288,task,2021.1.4,Win32,60.0060006,628b806c463b948bc644b84f,629af7fb2c22a39f62674c69,,,,,,,,,,,,,,,,,,,,,,,,,,,,,,,,,,,,,,,,,,,,,,,,,,,,,,,,,,,,,,,,,,,,,,,,,,,,,,,,,,,,,,,,,,,,,,,,,,,,,,,
,,"[""comma""]",0,[0.3663999999985066],8,0,8,0,1,60c8f96ddb749ea0361c1ae8,19,Mężczyzna,2022-06-04_08h13.35.288,task,2021.1.4,Win32,60.0060006,628b806c463b948bc644b84f,629af7fb2c22a39f62674c69,,,,,,,,,,,,,,,,,,,,,,,,,,,,,,,,,,,,,,,,,,,,,,,,,,,,,,,,,,,,,,,,,,,,,,,,,,,,,,,,,,,,,,,,,,,,,,,,,,,,,,,
,,"[""comma""]",0,[0.29349999999999454],9,0,9,0,1,60c8f96ddb749ea0361c1ae8,19,Mężczyzna,2022-06-04_08h13.35.288,task,2021.1.4,Win32,60.0060006,628b806c463b948bc644b84f,629af7fb2c22a39f62674c69,,,,,,,,,,,,,,,,,,,,,,,,,,,,,,,,,,,,,,,,,,,,,,,,,,,,,,,,,,,,,,,,,,,,,,,,,,,,,,,,,,,,,,,,,,,,,,,,,,,,,,,
,,"[""comma""]",0,[0.3580000000000041],10,0,10,0,1,60c8f96ddb749ea0361c1ae8,19,Mężczyzna,2022-06-04_08h13.35.288,task,2021.1.4,Win32,60.0060006,628b806c463b948bc644b84f,629af7fb2c22a39f62674c69,,,,,,,,,,,,,,,,,,,,,,,,,,,,,,,,,,,,,,,,,,,,,,,,,,,,,,,,,,,,,,,,,,,,,,,,,,,,,,,,,,,,,,,,,,,,,,,,,,,,,,,
,,"[""period""]",0,[0.5669999999999931],11,0,11,0,1,60c8f96ddb749ea0361c1ae8,19,Mężczyzna,2022-06-04_08h13.35.288,task,2021.1.4,Win32,60.0060006,628b806c463b948bc644b84f,629af7fb2c22a39f62674c69,,,,,,,,,,,,,,,,,,,,,,,,,,,,,,,,,,,,,,,,,,,,,,,,,,,,,,,,,,,,,,,,,,,,,,,,,,,,,,,,,,,,,,,,,,,,,,,,,,,,,,,
,,"[""period""]",0,[0.37529999999701147],12,0,12,0,1,60c8f96ddb749ea0361c1ae8,19,Mężczyzna,2022-06-04_08h13.35.288,task,2021.1.4,Win32,60.0060006,628b806c463b948bc644b84f,629af7fb2c22a39f62674c69,,,,,,,,,,,,,,,,,,,,,,,,,,,,,,,,,,,,,,,,,,,,,,,,,,,,,,,,,,,,,,,,,,,,,,,,,,,,,,,,,,,,,,,,,,,,,,,,,,,,,,,
,,"[""comma""]",0,[0.3001999999955274],13,0,13,0,1,60c8f96ddb749ea0361c1ae8,19,Mężczyzna,2022-06-04_08h13.35.288,task,2021.1.4,Win32,60.0060006,628b806c463b948bc644b84f,629af7fb2c22a39f62674c69,,,,,,,,,,,,,,,,,,,,,,,,,,,,,,,,,,,,,,,,,,,,,,,,,,,,,,,,,,,,,,,,,,,,,,,,,,,,,,,,,,,,,,,,,,,,,,,,,,,,,,,
,,"[""period""]",0,[0.2728999999985149],14,0,14,0,1,60c8f96ddb749ea0361c1ae8,19,Mężczyzna,2022-06-04_08h13.35.288,task,2021.1.4,Win32,60.0060006,628b806c463b948bc644b84f,629af7fb2c22a39f62674c69,,,,,,,,,,,,,,,,,,,,,,,,,,,,,,,,,,,,,,,,,,,,,,,,,,,,,,,,,,,,,,,,,,,,,,,,,,,,,,,,,,,,,,,,,,,,,,,,,,,,,,,
,,"[""comma""]",0,[0.26689999999851466],15,0,15,0,1,60c8f96ddb749ea0361c1ae8,19,Mężczyzna,2022-06-04_08h13.35.288,task,2021.1.4,Win32,60.0060006,628b806c463b948bc644b84f,629af7fb2c22a39f62674c69,,,,,,,,,,,,,,,,,,,,,,,,,,,,,,,,,,,,,,,,,,,,,,,,,,,,,,,,,,,,,,,,,,,,,,,,,,,,,,,,,,,,,,,,,,,,,,,,,,,,,,,
,,"[""period""]",0,[0.25039999999850693],16,0,16,0,1,60c8f96ddb749ea0361c1ae8,19,Mężczyzna,2022-06-04_08h13.35.288,task,2021.1.4,Win32,60.0060006,628b806c463b948bc644b84f,629af7fb2c22a39f62674c69,,,,,,,,,,,,,,,,,,,,,,,,,,,,,,,,,,,,,,,,,,,,,,,,,,,,,,,,,,,,,,,,,,,,,,,,,,,,,,,,,,,,,,,,,,,,,,,,,,,,,,,
,,"[""period"",""period""]",0,"[0.18210000000149762,0.7662999999970168]",17,0,17,0,1,60c8f96ddb749ea0361c1ae8,19,Mężczyzna,2022-06-04_08h13.35.288,task,2021.1.4,Win32,60.0060006,628b806c463b948bc644b84f,629af7fb2c22a39f62674c69,,,,,,,,,,,,,,,,,,,,,,,,,,,,,,,,,,,,,,,,,,,,,,,,,,,,,,,,,,,,,,,,,,,,,,,,,,,,,,,,,,,,,,,,,,,,,,,,,,,,,,,
,,"[""comma""]",0,[0.3998999999985102],18,0,18,0,1,60c8f96ddb749ea0361c1ae8,19,Mężczyzna,2022-06-04_08h13.35.288,task,2021.1.4,Win32,60.0060006,628b806c463b948bc644b84f,629af7fb2c22a39f62674c69,,,,,,,,,,,,,,,,,,,,,,,,,,,,,,,,,,,,,,,,,,,,,,,,,,,,,,,,,,,,,,,,,,,,,,,,,,,,,,,,,,,,,,,,,,,,,,,,,,,,,,,
,,"[""comma""]",0,[0.5245000000000033],19,0,19,0,1,60c8f96ddb749ea0361c1ae8,19,Mężczyzna,2022-06-04_08h13.35.288,task,2021.1.4,Win32,60.0060006,628b806c463b948bc644b84f,629af7fb2c22a39f62674c69,,,,,,,,,,,,,,,,,,,,,,,,,,,,,,,,,,,,,,,,,,,,,,,,,,,,,,,,,,,,,,,,,,,,,,,,,,,,,,,,,,,,,,,,,,,,,,,,,,,,,,,
,,"[""period""]",0,[0.5667999999970164],20,0,20,0,1,60c8f96ddb749ea0361c1ae8,19,Mężczyzna,2022-06-04_08h13.35.288,task,2021.1.4,Win32,60.0060006,628b806c463b948bc644b84f,629af7fb2c22a39f62674c69,,,,,,,,,,,,,,,,,,,,,,,,,,,,,,,,,,,,,,,,,,,,,,,,,,,,,,,,,,,,,,,,,,,,,,,,,,,,,,,,,,,,,,,,,,,,,,,,,,,,,,,
,,"[""comma""]",0,[0.5901000000014989],21,0,21,0,1,60c8f96ddb749ea0361c1ae8,19,Mężczyzna,2022-06-04_08h13.35.288,task,2021.1.4,Win32,60.0060006,628b806c463b948bc644b84f,629af7fb2c22a39f62674c69,,,,,,,,,,,,,,,,,,,,,,,,,,,,,,,,,,,,,,,,,,,,,,,,,,,,,,,,,,,,,,,,,,,,,,,,,,,,,,,,,,,,,,,,,,,,,,,,,,,,,,,
,,"[""comma""]",0,[0.4064999999999941],22,0,22,0,1,60c8f96ddb749ea0361c1ae8,19,Mężczyzna,2022-06-04_08h13.35.288,task,2021.1.4,Win32,60.0060006,628b806c463b948bc644b84f,629af7fb2c22a39f62674c69,,,,,,,,,,,,,,,,,,,,,,,,,,,,,,,,,,,,,,,,,,,,,,,,,,,,,,,,,,,,,,,,,,,,,,,,,,,,,,,,,,,,,,,,,,,,,,,,,,,,,,,
,,"[""period""]",0,[0.3168999999985118],23,0,23,0,1,60c8f96ddb749ea0361c1ae8,19,Mężczyzna,2022-06-04_08h13.35.288,task,2021.1.4,Win32,60.0060006,628b806c463b948bc644b84f,629af7fb2c22a39f62674c69,,,,,,,,,,,,,,,,,,,,,,,,,,,,,,,,,,,,,,,,,,,,,,,,,,,,,,,,,,,,,,,,,,,,,,,,,,,,,,,,,,,,,,,,,,,,,,,,,,,,,,,
,,"[""comma""]",0,[0.3332000000029893],24,0,24,0,1,60c8f96ddb749ea0361c1ae8,19,Mężczyzna,2022-06-04_08h13.35.288,task,2021.1.4,Win32,60.0060006,628b806c463b948bc644b84f,629af7fb2c22a39f62674c69,,,,,,,,,,,,,,,,,,,,,,,,,,,,,,,,,,,,,,,,,,,,,,,,,,,,,,,,,,,,,,,,,,,,,,,,,,,,,,,,,,,,,,,,,,,,,,,,,,,,,,,
,,"[""comma""]",0,[0.2821999999955267],25,0,25,0,1,60c8f96ddb749ea0361c1ae8,19,Mężczyzna,2022-06-04_08h13.35.288,task,2021.1.4,Win32,60.0060006,628b806c463b948bc644b84f,629af7fb2c22a39f62674c69,,,,,,,,,,,,,,,,,,,,,,,,,,,,,,,,,,,,,,,,,,,,,,,,,,,,,,,,,,,,,,,,,,,,,,,,,,,,,,,,,,,,,,,,,,,,,,,,,,,,,,,
,,"[""comma""]",0,[0.2658000000044751],26,0,26,0,1,60c8f96ddb749ea0361c1ae8,19,Mężczyzna,2022-06-04_08h13.35.288,task,2021.1.4,Win32,60.0060006,628b806c463b948bc644b84f,629af7fb2c22a39f62674c69,,,,,,,,,,,,,,,,,,,,,,,,,,,,,,,,,,,,,,,,,,,,,,,,,,,,,,,,,,,,,,,,,,,,,,,,,,,,,,,,,,,,,,,,,,,,,,,,,,,,,,,
,,"[""comma""]",0,[0.0023999999985164777],27,0,27,0,1,60c8f96ddb749ea0361c1ae8,19,Mężczyzna,2022-06-04_08h13.35.288,task,2021.1.4,Win32,60.0060006,628b806c463b948bc644b84f,629af7fb2c22a39f62674c69,,,,,,,,,,,,,,,,,,,,,,,,,,,,,,,,,,,,,,,,,,,,,,,,,,,,,,,,,,,,,,,,,,,,,,,,,,,,,,,,,,,,,,,,,,,,,,,,,,,,,,,
,,"[""period""]",0,[0.25079999999701386],28,0,28,0,1,60c8f96ddb749ea0361c1ae8,19,Mężczyzna,2022-06-04_08h13.35.288,task,2021.1.4,Win32,60.0060006,628b806c463b948bc644b84f,629af7fb2c22a39f62674c69,,,,,,,,,,,,,,,,,,,,,,,,,,,,,,,,,,,,,,,,,,,,,,,,,,,,,,,,,,,,,,,,,,,,,,,,,,,,,,,,,,,,,,,,,,,,,,,,,,,,,,,
,,"[""period""]",0,[0.5000999999940632],29,0,29,0,1,60c8f96ddb749ea0361c1ae8,19,Mężczyzna,2022-06-04_08h13.35.288,task,2021.1.4,Win32,60.0060006,628b806c463b948bc644b84f,629af7fb2c22a39f62674c69,,,,,,,,,,,,,,,,,,,,,,,,,,,,,,,,,,,,,,,,,,,,,,,,,,,,,,,,,,,,,,,,,,,,,,,,,,,,,,,,,,,,,,,,,,,,,,,,,,,,,,,
,,"[""comma""]",0,[0.34900000000001796],30,0,30,0,1,60c8f96ddb749ea0361c1ae8,19,Mężczyzna,2022-06-04_08h13.35.288,task,2021.1.4,Win32,60.0060006,628b806c463b948bc644b84f,629af7fb2c22a39f62674c69,,,,,,,,,,,,,,,,,,,,,,,,,,,,,,,,,,,,,,,,,,,,,,,,,,,,,,,,,,,,,,,,,,,,,,,,,,,,,,,,,,,,,,,,,,,,,,,,,,,,,,,
,,"[""period""]",0,[0.28510000000147784],31,0,31,0,1,60c8f96ddb749ea0361c1ae8,19,Mężczyzna,2022-06-04_08h13.35.288,task,2021.1.4,Win32,60.0060006,628b806c463b948bc644b84f,629af7fb2c22a39f62674c69,,,,,,,,,,,,,,,,,,,,,,,,,,,,,,,,,,,,,,,,,,,,,,,,,,,,,,,,,,,,,,,,,,,,,,,,,,,,,,,,,,,,,,,,,,,,,,,,,,,,,,,
,,"[""period""]",0,[0.2672999999970216],32,0,32,0,1,60c8f96ddb749ea0361c1ae8,19,Mężczyzna,2022-06-04_08h13.35.288,task,2021.1.4,Win32,60.0060006,628b806c463b948bc644b84f,629af7fb2c22a39f62674c69,,,,,,,,,,,,,,,,,,,,,,,,,,,,,,,,,,,,,,,,,,,,,,,,,,,,,,,,,,,,,,,,,,,,,,,,,,,,,,,,,,,,,,,,,,,,,,,,,,,,,,,
,,"[""period""]",0,[0.2545000000000073],33,0,33,0,1,60c8f96ddb749ea0361c1ae8,19,Mężczyzna,2022-06-04_08h13.35.288,task,2021.1.4,Win32,60.0060006,628b806c463b948bc644b84f,629af7fb2c22a39f62674c69,,,,,,,,,,,,,,,,,,,,,,,,,,,,,,,,,,,,,,,,,,,,,,,,,,,,,,,,,,,,,,,,,,,,,,,,,,,,,,,,,,,,,,,,,,,,,,,,,,,,,,,
,,"[""comma""]",0,[0.21700000000001296],34,0,34,0,1,60c8f96ddb749ea0361c1ae8,19,Mężczyzna,2022-06-04_08h13.35.288,task,2021.1.4,Win32,60.0060006,628b806c463b948bc644b84f,629af7fb2c22a39f62674c69,,,,,,,,,,,,,,,,,,,,,,,,,,,,,,,,,,,,,,,,,,,,,,,,,,,,,,,,,,,,,,,,,,,,,,,,,,,,,,,,,,,,,,,,,,,,,,,,,,,,,,,
,,"[""comma""]",0,[0.2833999999985224],35,0,35,0,1,60c8f96ddb749ea0361c1ae8,19,Mężczyzna,2022-06-04_08h13.35.288,task,2021.1.4,Win32,60.0060006,628b806c463b948bc644b84f,629af7fb2c22a39f62674c69,,,,,,,,,,,,,,,,,,,,,,,,,,,,,,,,,,,,,,,,,,,,,,,,,,,,,,,,,,,,,,,,,,,,,,,,,,,,,,,,,,,,,,,,,,,,,,,,,,,,,,,
,,"[""period""]",0,[0.38489999999850966],36,0,36,0,1,60c8f96ddb749ea0361c1ae8,19,Mężczyzna,2022-06-04_08h13.35.288,task,2021.1.4,Win32,60.0060006,628b806c463b948bc644b84f,629af7fb2c22a39f62674c69,,,,,,,,,,,,,,,,,,,,,,,,,,,,,,,,,,,,,,,,,,,,,,,,,,,,,,,,,,,,,,,,,,,,,,,,,,,,,,,,,,,,,,,,,,,,,,,,,,,,,,,
,,"[""period""]",0,[0.4096999999955244],37,0,37,0,1,60c8f96ddb749ea0361c1ae8,19,Mężczyzna,2022-06-04_08h13.35.288,task,2021.1.4,Win32,60.0060006,628b806c463b948bc644b84f,629af7fb2c22a39f62674c69,,,,,,,,,,,,,,,,,,,,,,,,,,,,,,,,,,,,,,,,,,,,,,,,,,,,,,,,,,,,,,,,,,,,,,,,,,,,,,,,,,,,,,,,,,,,,,,,,,,,,,,
,,"[""period""]",0,[0.2663000000044633],38,0,38,0,1,60c8f96ddb749ea0361c1ae8,19,Mężczyzna,2022-06-04_08h13.35.288,task,2021.1.4,Win32,60.0060006,628b806c463b948bc644b84f,629af7fb2c22a39f62674c69,,,,,,,,,,,,,,,,,,,,,,,,,,,,,,,,,,,,,,,,,,,,,,,,,,,,,,,,,,,,,,,,,,,,,,,,,,,,,,,,,,,,,,,,,,,,,,,,,,,,,,,
,,"[""period""]",0,[0.3868999999985192],39,0,39,0,1,60c8f96ddb749ea0361c1ae8,19,Mężczyzna,2022-06-04_08h13.35.288,task,2021.1.4,Win32,60.0060006,628b806c463b948bc644b84f,629af7fb2c22a39f62674c69,,,,,,,,,,,,,,,,,,,,,,,,,,,,,,,,,,,,,,,,,,,,,,,,,,,,,,,,,,,,,,,,,,,,,,,,,,,,,,,,,,,,,,,,,,,,,,,,,,,,,,,
,,"[""comma""]",0,[0.3876000000014983],40,0,40,0,1,60c8f96ddb749ea0361c1ae8,19,Mężczyzna,2022-06-04_08h13.35.288,task,2021.1.4,Win32,60.0060006,628b806c463b948bc644b84f,629af7fb2c22a39f62674c69,,,,,,,,,,,,,,,,,,,,,,,,,,,,,,,,,,,,,,,,,,,,,,,,,,,,,,,,,,,,,,,,,,,,,,,,,,,,,,,,,,,,,,,,,,,,,,,,,,,,,,,
,,"[""period""]",0,[0.3667999999970277],41,0,41,0,1,60c8f96ddb749ea0361c1ae8,19,Mężczyzna,2022-06-04_08h13.35.288,task,2021.1.4,Win32,60.0060006,628b806c463b948bc644b84f,629af7fb2c22a39f62674c69,,,,,,,,,,,,,,,,,,,,,,,,,,,,,,,,,,,,,,,,,,,,,,,,,,,,,,,,,,,,,,,,,,,,,,,,,,,,,,,,,,,,,,,,,,,,,,,,,,,,,,,
,,"[""comma""]",0,[0.04910000000148784],42,0,42,0,1,60c8f96ddb749ea0361c1ae8,19,Mężczyzna,2022-06-04_08h13.35.288,task,2021.1.4,Win32,60.0060006,628b806c463b948bc644b84f,629af7fb2c22a39f62674c69,,,,,,,,,,,,,,,,,,,,,,,,,,,,,,,,,,,,,,,,,,,,,,,,,,,,,,,,,,,,,,,,,,,,,,,,,,,,,,,,,,,,,,,,,,,,,,,,,,,,,,,
,,"[""comma""]",0,[0.3182999999970093],43,0,43,0,1,60c8f96ddb749ea0361c1ae8,19,Mężczyzna,2022-06-04_08h13.35.288,task,2021.1.4,Win32,60.0060006,628b806c463b948bc644b84f,629af7fb2c22a39f62674c69,,,,,,,,,,,,,,,,,,,,,,,,,,,,,,,,,,,,,,,,,,,,,,,,,,,,,,,,,,,,,,,,,,,,,,,,,,,,,,,,,,,,,,,,,,,,,,,,,,,,,,,
,,"[""comma""]",0,[0.44879999999702136],44,0,44,0,1,60c8f96ddb749ea0361c1ae8,19,Mężczyzna,2022-06-04_08h13.35.288,task,2021.1.4,Win32,60.0060006,628b806c463b948bc644b84f,629af7fb2c22a39f62674c69,,,,,,,,,,,,,,,,,,,,,,,,,,,,,,,,,,,,,,,,,,,,,,,,,,,,,,,,,,,,,,,,,,,,,,,,,,,,,,,,,,,,,,,,,,,,,,,,,,,,,,,
,,"[""period""]",0,[0.5509999999999877],45,0,45,0,1,60c8f96ddb749ea0361c1ae8,19,Mężczyzna,2022-06-04_08h13.35.288,task,2021.1.4,Win32,60.0060006,628b806c463b948bc644b84f,629af7fb2c22a39f62674c69,,,,,,,,,,,,,,,,,,,,,,,,,,,,,,,,,,,,,,,,,,,,,,,,,,,,,,,,,,,,,,,,,,,,,,,,,,,,,,,,,,,,,,,,,,,,,,,,,,,,,,,
,,"[""comma""]",0,[0.3491000000014992],46,0,46,0,1,60c8f96ddb749ea0361c1ae8,19,Mężczyzna,2022-06-04_08h13.35.288,task,2021.1.4,Win32,60.0060006,628b806c463b948bc644b84f,629af7fb2c22a39f62674c69,,,,,,,,,,,,,,,,,,,,,,,,,,,,,,,,,,,,,,,,,,,,,,,,,,,,,,,,,,,,,,,,,,,,,,,,,,,,,,,,,,,,,,,,,,,,,,,,,,,,,,,
,,"[""period""]",0,[0.30030000000448354],47,0,47,0,1,60c8f96ddb749ea0361c1ae8,19,Mężczyzna,2022-06-04_08h13.35.288,task,2021.1.4,Win32,60.0060006,628b806c463b948bc644b84f,629af7fb2c22a39f62674c69,,,,,,,,,,,,,,,,,,,,,,,,,,,,,,,,,,,,,,,,,,,,,,,,,,,,,,,,,,,,,,,,,,,,,,,,,,,,,,,,,,,,,,,,,,,,,,,,,,,,,,,
,,"[""comma""]",0,[0.36959999999405113],48,0,48,0,1,60c8f96ddb749ea0361c1ae8,19,Mężczyzna,2022-06-04_08h13.35.288,task,2021.1.4,Win32,60.0060006,628b806c463b948bc644b84f,629af7fb2c22a39f62674c69,,,,,,,,,,,,,,,,,,,,,,,,,,,,,,,,,,,,,,,,,,,,,,,,,,,,,,,,,,,,,,,,,,,,,,,,,,,,,,,,,,,,,,,,,,,,,,,,,,,,,,,
,,"[""period""]",0,[0.30610000000149284],49,0,49,0,1,60c8f96ddb749ea0361c1ae8,19,Mężczyzna,2022-06-04_08h13.35.288,task,2021.1.4,Win32,60.0060006,628b806c463b948bc644b84f,629af7fb2c22a39f62674c69,,,,,,,,,,,,,,,,,,,,,,,,,,,,,,,,,,,,,,,,,,,,,,,,,,,,,,,,,,,,,,,,,,,,,,,,,,,,,,,,,,,,,,,,,,,,,,,,,,,,,,,
,,"[""period""]",0,[0.2835999999940384],50,0,50,0,1,60c8f96ddb749ea0361c1ae8,19,Mężczyzna,2022-06-04_08h13.35.288,task,2021.1.4,Win32,60.0060006,628b806c463b948bc644b84f,629af7fb2c22a39f62674c69,,,,,,,,,,,,,,,,,,,,,,,,,,,,,,,,,,,,,,,,,,,,,,,,,,,,,,,,,,,,,,,,,,,,,,,,,,,,,,,,,,,,,,,,,,,,,,,,,,,,,,,
,,"[""comma""]",0,[0.3001999999955274],51,0,51,0,1,60c8f96ddb749ea0361c1ae8,19,Mężczyzna,2022-06-04_08h13.35.288,task,2021.1.4,Win32,60.0060006,628b806c463b948bc644b84f,629af7fb2c22a39f62674c69,,,,,,,,,,,,,,,,,,,,,,,,,,,,,,,,,,,,,,,,,,,,,,,,,,,,,,,,,,,,,,,,,,,,,,,,,,,,,,,,,,,,,,,,,,,,,,,,,,,,,,,
,,"[""comma""]",0,[0.1882000000029791],52,0,52,0,1,60c8f96ddb749ea0361c1ae8,19,Mężczyzna,2022-06-04_08h13.35.288,task,2021.1.4,Win32,60.0060006,628b806c463b948bc644b84f,629af7fb2c22a39f62674c69,,,,,,,,,,,,,,,,,,,,,,,,,,,,,,,,,,,,,,,,,,,,,,,,,,,,,,,,,,,,,,,,,,,,,,,,,,,,,,,,,,,,,,,,,,,,,,,,,,,,,,,
,,"[""comma""]",0,[0.27720000000297773],53,0,53,0,1,60c8f96ddb749ea0361c1ae8,19,Mężczyzna,2022-06-04_08h13.35.288,task,2021.1.4,Win32,60.0060006,628b806c463b948bc644b84f,629af7fb2c22a39f62674c69,,,,,,,,,,,,,,,,,,,,,,,,,,,,,,,,,,,,,,,,,,,,,,,,,,,,,,,,,,,,,,,,,,,,,,,,,,,,,,,,,,,,,,,,,,,,,,,,,,,,,,,
,,"[""period""]",0,[0.3097000000029766],54,0,54,0,1,60c8f96ddb749ea0361c1ae8,19,Mężczyzna,2022-06-04_08h13.35.288,task,2021.1.4,Win32,60.0060006,628b806c463b948bc644b84f,629af7fb2c22a39f62674c69,,,,,,,,,,,,,,,,,,,,,,,,,,,,,,,,,,,,,,,,,,,,,,,,,,,,,,,,,,,,,,,,,,,,,,,,,,,,,,,,,,,,,,,,,,,,,,,,,,,,,,,
,,"[""period""]",0,[0.46560000000147284],55,0,55,0,1,60c8f96ddb749ea0361c1ae8,19,Mężczyzna,2022-06-04_08h13.35.288,task,2021.1.4,Win32,60.0060006,628b806c463b948bc644b84f,629af7fb2c22a39f62674c69,,,,,,,,,,,,,,,,,,,,,,,,,,,,,,,,,,,,,,,,,,,,,,,,,,,,,,,,,,,,,,,,,,,,,,,,,,,,,,,,,,,,,,,,,,,,,,,,,,,,,,,
,,"[""comma""]",0,[0.5272000000029777],56,0,56,0,1,60c8f96ddb749ea0361c1ae8,19,Mężczyzna,2022-06-04_08h13.35.288,task,2021.1.4,Win32,60.0060006,628b806c463b948bc644b84f,629af7fb2c22a39f62674c69,,,,,,,,,,,,,,,,,,,,,,,,,,,,,,,,,,,,,,,,,,,,,,,,,,,,,,,,,,,,,,,,,,,,,,,,,,,,,,,,,,,,,,,,,,,,,,,,,,,,,,,
,,"[""period""]",0,[0.4238999999984969],57,0,57,0,1,60c8f96ddb749ea0361c1ae8,19,Mężczyzna,2022-06-04_08h13.35.288,task,2021.1.4,Win32,60.0060006,628b806c463b948bc644b84f,629af7fb2c22a39f62674c69,,,,,,,,,,,,,,,,,,,,,,,,,,,,,,,,,,,,,,,,,,,,,,,,,,,,,,,,,,,,,,,,,,,,,,,,,,,,,,,,,,,,,,,,,,,,,,,,,,,,,,,
,,"[""comma""]",0,[0.45000000000001705],58,0,58,0,1,60c8f96ddb749ea0361c1ae8,19,Mężczyzna,2022-06-04_08h13.35.288,task,2021.1.4,Win32,60.0060006,628b806c463b948bc644b84f,629af7fb2c22a39f62674c69,,,,,,,,,,,,,,,,,,,,,,,,,,,,,,,,,,,,,,,,,,,,,,,,,,,,,,,,,,,,,,,,,,,,,,,,,,,,,,,,,,,,,,,,,,,,,,,,,,,,,,,
,,"[""period""]",0,[0.3533000000044808],59,0,59,0,1,60c8f96ddb749ea0361c1ae8,19,Mężczyzna,2022-06-04_08h13.35.288,task,2021.1.4,Win32,60.0060006,628b806c463b948bc644b84f,629af7fb2c22a39f62674c69,,,,,,,,,,,,,,,,,,,,,,,,,,,,,,,,,,,,,,,,,,,,,,,,,,,,,,,,,,,,,,,,,,,,,,,,,,,,,,,,,,,,,,,,,,,,,,,,,,,,,,,
,,"[""comma""]",0,[0.28999999999999204],60,0,60,0,1,60c8f96ddb749ea0361c1ae8,19,Mężczyzna,2022-06-04_08h13.35.288,task,2021.1.4,Win32,60.0060006,628b806c463b948bc644b84f,629af7fb2c22a39f62674c69,,,,,,,,,,,,,,,,,,,,,,,,,,,,,,,,,,,,,,,,,,,,,,,,,,,,,,,,,,,,,,,,,,,,,,,,,,,,,,,,,,,,,,,,,,,,,,,,,,,,,,,
,,"[""period""]",0,[0.2836000000014849],61,0,61,0,1,60c8f96ddb749ea0361c1ae8,19,Mężczyzna,2022-06-04_08h13.35.288,task,2021.1.4,Win32,60.0060006,628b806c463b948bc644b84f,629af7fb2c22a39f62674c69,,,,,,,,,,,,,,,,,,,,,,,,,,,,,,,,,,,,,,,,,,,,,,,,,,,,,,,,,,,,,,,,,,,,,,,,,,,,,,,,,,,,,,,,,,,,,,,,,,,,,,,
,,"[""comma""]",0,[0.29139999999850374],62,0,62,0,1,60c8f96ddb749ea0361c1ae8,19,Mężczyzna,2022-06-04_08h13.35.288,task,2021.1.4,Win32,60.0060006,628b806c463b948bc644b84f,629af7fb2c22a39f62674c69,,,,,,,,,,,,,,,,,,,,,,,,,,,,,,,,,,,,,,,,,,,,,,,,,,,,,,,,,,,,,,,,,,,,,,,,,,,,,,,,,,,,,,,,,,,,,,,,,,,,,,,
,,"[""comma""]",0,[0.23349999999999227],63,0,63,0,1,60c8f96ddb749ea0361c1ae8,19,Mężczyzna,2022-06-04_08h13.35.288,task,2021.1.4,Win32,60.0060006,628b806c463b948bc644b84f,629af7fb2c22a39f62674c69,,,,,,,,,,,,,,,,,,,,,,,,,,,,,,,,,,,,,,,,,,,,,,,,,,,,,,,,,,,,,,,,,,,,,,,,,,,,,,,,,,,,,,,,,,,,,,,,,,,,,,,
,,"[""comma""]",0,[0.2927000000029807],64,0,64,0,1,60c8f96ddb749ea0361c1ae8,19,Mężczyzna,2022-06-04_08h13.35.288,task,2021.1.4,Win32,60.0060006,628b806c463b948bc644b84f,629af7fb2c22a39f62674c69,,,,,,,,,,,,,,,,,,,,,,,,,,,,,,,,,,,,,,,,,,,,,,,,,,,,,,,,,,,,,,,,,,,,,,,,,,,,,,,,,,,,,,,,,,,,,,,,,,,,,,,
,,"[""period""]",0,[0.23360000000147352],65,0,65,0,1,60c8f96ddb749ea0361c1ae8,19,Mężczyzna,2022-06-04_08h13.35.288,task,2021.1.4,Win32,60.0060006,628b806c463b948bc644b84f,629af7fb2c22a39f62674c69,,,,,,,,,,,,,,,,,,,,,,,,,,,,,,,,,,,,,,,,,,,,,,,,,,,,,,,,,,,,,,,,,,,,,,,,,,,,,,,,,,,,,,,,,,,,,,,,,,,,,,,
,,"[""period""]",0,[0.26550000000000296],66,0,66,0,1,60c8f96ddb749ea0361c1ae8,19,Mężczyzna,2022-06-04_08h13.35.288,task,2021.1.4,Win32,60.0060006,628b806c463b948bc644b84f,629af7fb2c22a39f62674c69,,,,,,,,,,,,,,,,,,,,,,,,,,,,,,,,,,,,,,,,,,,,,,,,,,,,,,,,,,,,,,,,,,,,,,,,,,,,,,,,,,,,,,,,,,,,,,,,,,,,,,,
,,"[""period""]",0,[0.11719999999550623],67,0,67,0,1,60c8f96ddb749ea0361c1ae8,19,Mężczyzna,2022-06-04_08h13.35.288,task,2021.1.4,Win32,60.0060006,628b806c463b948bc644b84f,629af7fb2c22a39f62674c69,,,,,,,,,,,,,,,,,,,,,,,,,,,,,,,,,,,,,,,,,,,,,,,,,,,,,,,,,,,,,,,,,,,,,,,,,,,,,,,,,,,,,,,,,,,,,,,,,,,,,,,
,,"[""comma""]",0,[0.11580000000446944],68,0,68,0,1,60c8f96ddb749ea0361c1ae8,19,Mężczyzna,2022-06-04_08h13.35.288,task,2021.1.4,Win32,60.0060006,628b806c463b948bc644b84f,629af7fb2c22a39f62674c69,,,,,,,,,,,,,,,,,,,,,,,,,,,,,,,,,,,,,,,,,,,,,,,,,,,,,,,,,,,,,,,,,,,,,,,,,,,,,,,,,,,,,,,,,,,,,,,,,,,,,,,
,,"[""period""]",0,[0.016100000001500803],69,0,69,0,1,60c8f96ddb749ea0361c1ae8,19,Mężczyzna,2022-06-04_08h13.35.288,task,2021.1.4,Win32,60.0060006,628b806c463b948bc644b84f,629af7fb2c22a39f62674c69,,,,,,,,,,,,,,,,,,,,,,,,,,,,,,,,,,,,,,,,,,,,,,,,,,,,,,,,,,,,,,,,,,,,,,,,,,,,,,,,,,,,,,,,,,,,,,,,,,,,,,,
,,"[""comma""]",0,[0.27320000000295863],70,0,70,0,1,60c8f96ddb749ea0361c1ae8,19,Mężczyzna,2022-06-04_08h13.35.288,task,2021.1.4,Win32,60.0060006,628b806c463b948bc644b84f,629af7fb2c22a39f62674c69,,,,,,,,,,,,,,,,,,,,,,,,,,,,,,,,,,,,,,,,,,,,,,,,,,,,,,,,,,,,,,,,,,,,,,,,,,,,,,,,,,,,,,,,,,,,,,,,,,,,,,,
,,"[""period""]",0,[0.017799999997038185],71,0,71,0,1,60c8f96ddb749ea0361c1ae8,19,Mężczyzna,2022-06-04_08h13.35.288,task,2021.1.4,Win32,60.0060006,628b806c463b948bc644b84f,629af7fb2c22a39f62674c69,,,,,,,,,,,,,,,,,,,,,,,,,,,,,,,,,,,,,,,,,,,,,,,,,,,,,,,,,,,,,,,,,,,,,,,,,,,,,,,,,,,,,,,,,,,,,,,,,,,,,,,
,,"[""comma""]",0,[0.3001000000014926],72,0,72,0,1,60c8f96ddb749ea0361c1ae8,19,Mężczyzna,2022-06-04_08h13.35.288,task,2021.1.4,Win32,60.0060006,628b806c463b948bc644b84f,629af7fb2c22a39f62674c69,,,,,,,,,,,,,,,,,,,,,,,,,,,,,,,,,,,,,,,,,,,,,,,,,,,,,,,,,,,,,,,,,,,,,,,,,,,,,,,,,,,,,,,,,,,,,,,,,,,,,,,
,,"[""period""]",0,[0.6317999999970141],73,0,73,0,1,60c8f96ddb749ea0361c1ae8,19,Mężczyzna,2022-06-04_08h13.35.288,task,2021.1.4,Win32,60.0060006,628b806c463b948bc644b84f,629af7fb2c22a39f62674c69,,,,,,,,,,,,,,,,,,,,,,,,,,,,,,,,,,,,,,,,,,,,,,,,,,,,,,,,,,,,,,,,,,,,,,,,,,,,,,,,,,,,,,,,,,,,,,,,,,,,,,,
,,"[""period""]",0,[0.5331000000014683],74,0,74,0,1,60c8f96ddb749ea0361c1ae8,19,Mężczyzna,2022-06-04_08h13.35.288,task,2021.1.4,Win32,60.0060006,628b806c463b948bc644b84f,629af7fb2c22a39f62674c69,,,,,,,,,,,,,,,,,,,,,,,,,,,,,,,,,,,,,,,,,,,,,,,,,,,,,,,,,,,,,,,,,,,,,,,,,,,,,,,,,,,,,,,,,,,,,,,,,,,,,,,
,,"[""period"",""period""]",0,"[0.49289999999851375,1.4848000000044692]",75,0,75,0,1,60c8f96ddb749ea0361c1ae8,19,Mężczyzna,2022-06-04_08h13.35.288,task,2021.1.4,Win32,60.0060006,628b806c463b948bc644b84f,629af7fb2c22a39f62674c69,,,,,,,,,,,,,,,,,,,,,,,,,,,,,,,,,,,,,,,,,,,,,,,,,,,,,,,,,,,,,,,,,,,,,,,,,,,,,,,,,,,,,,,,,,,,,,,,,,,,,,,
,,,0,,76,0,76,0,1,60c8f96ddb749ea0361c1ae8,19,Mężczyzna,2022-06-04_08h13.35.288,task,2021.1.4,Win32,60.0060006,628b806c463b948bc644b84f,629af7fb2c22a39f62674c69,,,,,,,,,,,,,,,,,,,,,,,,,,,,,,,,,,,,,,,,,,,,,,,,,,,,,,,,,,,,,,,,,,,,,,,,,,,,,,,,,,,,,,,,,,,,,,,,,,,,,,,
,,,0,,77,0,77,0,1,60c8f96ddb749ea0361c1ae8,19,Mężczyzna,2022-06-04_08h13.35.288,task,2021.1.4,Win32,60.0060006,628b806c463b948bc644b84f,629af7fb2c22a39f62674c69,,,,,,,,,,,,,,,,,,,,,,,,,,,,,,,,,,,,,,,,,,,,,,,,,,,,,,,,,,,,,,,,,,,,,,,,,,,,,,,,,,,,,,,,,,,,,,,,,,,,,,,
,,"[""comma""]",0,[0.3027999999970348],78,0,78,0,1,60c8f96ddb749ea0361c1ae8,19,Mężczyzna,2022-06-04_08h13.35.288,task,2021.1.4,Win32,60.0060006,628b806c463b948bc644b84f,629af7fb2c22a39f62674c69,,,,,,,,,,,,,,,,,,,,,,,,,,,,,,,,,,,,,,,,,,,,,,,,,,,,,,,,,,,,,,,,,,,,,,,,,,,,,,,,,,,,,,,,,,,,,,,,,,,,,,,
,,"[""comma""]",0,[0.391600000001489],79,0,79,0,1,60c8f96ddb749ea0361c1ae8,19,Mężczyzna,2022-06-04_08h13.35.288,task,2021.1.4,Win32,60.0060006,628b806c463b948bc644b84f,629af7fb2c22a39f62674c69,,,,,,,,,,,,,,,,,,,,,,,,,,,,,,,,,,,,,,,,,,,,,,,,,,,,,,,,,,,,,,,,,,,,,,,,,,,,,,,,,,,,,,,,,,,,,,,,,,,,,,,
,,"[""period""]",0,[0.3039999999999736],80,0,80,0,1,60c8f96ddb749ea0361c1ae8,19,Mężczyzna,2022-06-04_08h13.35.288,task,2021.1.4,Win32,60.0060006,628b806c463b948bc644b84f,629af7fb2c22a39f62674c69,,,,,,,,,,,,,,,,,,,,,,,,,,,,,,,,,,,,,,,,,,,,,,,,,,,,,,,,,,,,,,,,,,,,,,,,,,,,,,,,,,,,,,,,,,,,,,,,,,,,,,,
,,"[""comma""]",0,[0.44109999999403726],81,0,81,0,1,60c8f96ddb749ea0361c1ae8,19,Mężczyzna,2022-06-04_08h13.35.288,task,2021.1.4,Win32,60.0060006,628b806c463b948bc644b84f,629af7fb2c22a39f62674c69,,,,,,,,,,,,,,,,,,,,,,,,,,,,,,,,,,,,,,,,,,,,,,,,,,,,,,,,,,,,,,,,,,,,,,,,,,,,,,,,,,,,,,,,,,,,,,,,,,,,,,,
,,"[""period""]",0,[0.29910000000148784],82,0,82,0,1,60c8f96ddb749ea0361c1ae8,19,Mężczyzna,2022-06-04_08h13.35.288,task,2021.1.4,Win32,60.0060006,628b806c463b948bc644b84f,629af7fb2c22a39f62674c69,,,,,,,,,,,,,,,,,,,,,,,,,,,,,,,,,,,,,,,,,,,,,,,,,,,,,,,,,,,,,,,,,,,,,,,,,,,,,,,,,,,,,,,,,,,,,,,,,,,,,,,
,,"[""comma""]",0,[0.32239999999850966],83,0,83,0,1,60c8f96ddb749ea0361c1ae8,19,Mężczyzna,2022-06-04_08h13.35.288,task,2021.1.4,Win32,60.0060006,628b806c463b948bc644b84f,629af7fb2c22a39f62674c69,,,,,,,,,,,,,,,,,,,,,,,,,,,,,,,,,,,,,,,,,,,,,,,,,,,,,,,,,,,,,,,,,,,,,,,,,,,,,,,,,,,,,,,,,,,,,,,,,,,,,,,
,,"[""comma""]",0,[0.274899999998496],84,0,84,0,1,60c8f96ddb749ea0361c1ae8,19,Mężczyzna,2022-06-04_08h13.35.288,task,2021.1.4,Win32,60.0060006,628b806c463b948bc644b84f,629af7fb2c22a39f62674c69,,,,,,,,,,,,,,,,,,,,,,,,,,,,,,,,,,,,,,,,,,,,,,,,,,,,,,,,,,,,,,,,,,,,,,,,,,,,,,,,,,,,,,,,,,,,,,,,,,,,,,,
,,"[""period""]",0,[0.24880000000447922],85,0,85,0,1,60c8f96ddb749ea0361c1ae8,19,Mężczyzna,2022-06-04_08h13.35.288,task,2021.1.4,Win32,60.0060006,628b806c463b948bc644b84f,629af7fb2c22a39f62674c69,,,,,,,,,,,,,,,,,,,,,,,,,,,,,,,,,,,,,,,,,,,,,,,,,,,,,,,,,,,,,,,,,,,,,,,,,,,,,,,,,,,,,,,,,,,,,,,,,,,,,,,
,,"[""comma""]",0,[0.23360000000150194],86,0,86,0,1,60c8f96ddb749ea0361c1ae8,19,Mężczyzna,2022-06-04_08h13.35.288,task,2021.1.4,Win32,60.0060006,628b806c463b948bc644b84f,629af7fb2c22a39f62674c69,,,,,,,,,,,,,,,,,,,,,,,,,,,,,,,,,,,,,,,,,,,,,,,,,,,,,,,,,,,,,,,,,,,,,,,,,,,,,,,,,,,,,,,,,,,,,,,,,,,,,,,
,,"[""period""]",0,[0.3413999999985151],87,0,87,0,1,60c8f96ddb749ea0361c1ae8,19,Mężczyzna,2022-06-04_08h13.35.288,task,2021.1.4,Win32,60.0060006,628b806c463b948bc644b84f,629af7fb2c22a39f62674c69,,,,,,,,,,,,,,,,,,,,,,,,,,,,,,,,,,,,,,,,,,,,,,,,,,,,,,,,,,,,,,,,,,,,,,,,,,,,,,,,,,,,,,,,,,,,,,,,,,,,,,,
,,"[""period""]",0,[0.33389999999855036],88,0,88,0,1,60c8f96ddb749ea0361c1ae8,19,Mężczyzna,2022-06-04_08h13.35.288,task,2021.1.4,Win32,60.0060006,628b806c463b948bc644b84f,629af7fb2c22a39f62674c69,,,,,,,,,,,,,,,,,,,,,,,,,,,,,,,,,,,,,,,,,,,,,,,,,,,,,,,,,,,,,,,,,,,,,,,,,,,,,,,,,,,,,,,,,,,,,,,,,,,,,,,
,,"[""comma""]",0,[0.3833999999985167],89,0,89,0,1,60c8f96ddb749ea0361c1ae8,19,Mężczyzna,2022-06-04_08h13.35.288,task,2021.1.4,Win32,60.0060006,628b806c463b948bc644b84f,629af7fb2c22a39f62674c69,,,,,,,,,,,,,,,,,,,,,,,,,,,,,,,,,,,,,,,,,,,,,,,,,,,,,,,,,,,,,,,,,,,,,,,,,,,,,,,,,,,,,,,,,,,,,,,,,,,,,,,
,,"[""period""]",0,[0.28720000000299706],90,0,90,0,1,60c8f96ddb749ea0361c1ae8,19,Mężczyzna,2022-06-04_08h13.35.288,task,2021.1.4,Win32,60.0060006,628b806c463b948bc644b84f,629af7fb2c22a39f62674c69,,,,,,,,,,,,,,,,,,,,,,,,,,,,,,,,,,,,,,,,,,,,,,,,,,,,,,,,,,,,,,,,,,,,,,,,,,,,,,,,,,,,,,,,,,,,,,,,,,,,,,,
,,"[""period""]",0,[0.5038999999985094],91,0,91,0,1,60c8f96ddb749ea0361c1ae8,19,Mężczyzna,2022-06-04_08h13.35.288,task,2021.1.4,Win32,60.0060006,628b806c463b948bc644b84f,629af7fb2c22a39f62674c69,,,,,,,,,,,,,,,,,,,,,,,,,,,,,,,,,,,,,,,,,,,,,,,,,,,,,,,,,,,,,,,,,,,,,,,,,,,,,,,,,,,,,,,,,,,,,,,,,,,,,,,
,,"[""comma""]",0,[0.33349999999995816],92,0,92,0,1,60c8f96ddb749ea0361c1ae8,19,Mężczyzna,2022-06-04_08h13.35.288,task,2021.1.4,Win32,60.0060006,628b806c463b948bc644b84f,629af7fb2c22a39f62674c69,,,,,,,,,,,,,,,,,,,,,,,,,,,,,,,,,,,,,,,,,,,,,,,,,,,,,,,,,,,,,,,,,,,,,,,,,,,,,,,,,,,,,,,,,,,,,,,,,,,,,,,
,,"[""period""]",0,[0.2737000000030321],93,0,93,0,1,60c8f96ddb749ea0361c1ae8,19,Mężczyzna,2022-06-04_08h13.35.288,task,2021.1.4,Win32,60.0060006,628b806c463b948bc644b84f,629af7fb2c22a39f62674c69,,,,,,,,,,,,,,,,,,,,,,,,,,,,,,,,,,,,,,,,,,,,,,,,,,,,,,,,,,,,,,,,,,,,,,,,,,,,,,,,,,,,,,,,,,,,,,,,,,,,,,,
,,"[""comma"",""comma""]",0,"[0.2663000000044349,1.8502000000029852]",94,0,94,0,1,60c8f96ddb749ea0361c1ae8,19,Mężczyzna,2022-06-04_08h13.35.288,task,2021.1.4,Win32,60.0060006,628b806c463b948bc644b84f,629af7fb2c22a39f62674c69,,,,,,,,,,,,,,,,,,,,,,,,,,,,,,,,,,,,,,,,,,,,,,,,,,,,,,,,,,,,,,,,,,,,,,,,,,,,,,,,,,,,,,,,,,,,,,,,,,,,,,,
,,,0,,95,0,95,0,1,60c8f96ddb749ea0361c1ae8,19,Mężczyzna,2022-06-04_08h13.35.288,task,2021.1.4,Win32,60.0060006,628b806c463b948bc644b84f,629af7fb2c22a39f62674c69,,,,,,,,,,,,,,,,,,,,,,,,,,,,,,,,,,,,,,,,,,,,,,,,,,,,,,,,,,,,,,,,,,,,,,,,,,,,,,,,,,,,,,,,,,,,,,,,,,,,,,,
,,"[""period""]",0,[0.2757000000029848],96,0,96,0,1,60c8f96ddb749ea0361c1ae8,19,Mężczyzna,2022-06-04_08h13.35.288,task,2021.1.4,Win32,60.0060006,628b806c463b948bc644b84f,629af7fb2c22a39f62674c69,,,,,,,,,,,,,,,,,,,,,,,,,,,,,,,,,,,,,,,,,,,,,,,,,,,,,,,,,,,,,,,,,,,,,,,,,,,,,,,,,,,,,,,,,,,,,,,,,,,,,,,
,,"[""comma""]",0,[0.46839999999849624],97,0,97,0,1,60c8f96ddb749ea0361c1ae8,19,Mężczyzna,2022-06-04_08h13.35.288,task,2021.1.4,Win32,60.0060006,628b806c463b948bc644b84f,629af7fb2c22a39f62674c69,,,,,,,,,,,,,,,,,,,,,,,,,,,,,,,,,,,,,,,,,,,,,,,,,,,,,,,,,,,,,,,,,,,,,,,,,,,,,,,,,,,,,,,,,,,,,,,,,,,,,,,
,,"[""period""]",0,[0.5092999999970402],98,0,98,0,1,60c8f96ddb749ea0361c1ae8,19,Mężczyzna,2022-06-04_08h13.35.288,task,2021.1.4,Win32,60.0060006,628b806c463b948bc644b84f,629af7fb2c22a39f62674c69,,,,,,,,,,,,,,,,,,,,,,,,,,,,,,,,,,,,,,,,,,,,,,,,,,,,,,,,,,,,,,,,,,,,,,,,,,,,,,,,,,,,,,,,,,,,,,,,,,,,,,,
,,"[""period""]",0,[0.3021000000015306],99,0,99,0,1,60c8f96ddb749ea0361c1ae8,19,Mężczyzna,2022-06-04_08h13.35.288,task,2021.1.4,Win32,60.0060006,628b806c463b948bc644b84f,629af7fb2c22a39f62674c69,,,,,,,,,,,,,,,,,,,,,,,,,,,,,,,,,,,,,,,,,,,,,,,,,,,,,,,,,,,,,,,,,,,,,,,,,,,,,,,,,,,,,,,,,,,,,,,,,,,,,,,
,,"[""comma""]",0,[0.30260000000151877],100,0,100,0,1,60c8f96ddb749ea0361c1ae8,19,Mężczyzna,2022-06-04_08h13.35.288,task,2021.1.4,Win32,60.0060006,628b806c463b948bc644b84f,629af7fb2c22a39f62674c69,,,,,,,,,,,,,,,,,,,,,,,,,,,,,,,,,,,,,,,,,,,,,,,,,,,,,,,,,,,,,,,,,,,,,,,,,,,,,,,,,,,,,,,,,,,,,,,,,,,,,,,
,,"[""comma""]",0,[0.28220000000294476],101,0,101,0,1,60c8f96ddb749ea0361c1ae8,19,Mężczyzna,2022-06-04_08h13.35.288,task,2021.1.4,Win32,60.0060006,628b806c463b948bc644b84f,629af7fb2c22a39f62674c69,,,,,,,,,,,,,,,,,,,,,,,,,,,,,,,,,,,,,,,,,,,,,,,,,,,,,,,,,,,,,,,,,,,,,,,,,,,,,,,,,,,,,,,,,,,,,,,,,,,,,,,
,,"[""period""]",0,[0.18389999999851625],102,0,102,0,1,60c8f96ddb749ea0361c1ae8,19,Mężczyzna,2022-06-04_08h13.35.288,task,2021.1.4,Win32,60.0060006,628b806c463b948bc644b84f,629af7fb2c22a39f62674c69,,,,,,,,,,,,,,,,,,,,,,,,,,,,,,,,,,,,,,,,,,,,,,,,,,,,,,,,,,,,,,,,,,,,,,,,,,,,,,,,,,,,,,,,,,,,,,,,,,,,,,,
,,"[""comma""]",0,[0.2834999999999468],103,0,103,0,1,60c8f96ddb749ea0361c1ae8,19,Mężczyzna,2022-06-04_08h13.35.288,task,2021.1.4,Win32,60.0060006,628b806c463b948bc644b84f,629af7fb2c22a39f62674c69,,,,,,,,,,,,,,,,,,,,,,,,,,,,,,,,,,,,,,,,,,,,,,,,,,,,,,,,,,,,,,,,,,,,,,,,,,,,,,,,,,,,,,,,,,,,,,,,,,,,,,,
,,"[""comma""]",0,[0.3822999999970307],104,0,104,0,1,60c8f96ddb749ea0361c1ae8,19,Mężczyzna,2022-06-04_08h13.35.288,task,2021.1.4,Win32,60.0060006,628b806c463b948bc644b84f,629af7fb2c22a39f62674c69,,,,,,,,,,,,,,,,,,,,,,,,,,,,,,,,,,,,,,,,,,,,,,,,,,,,,,,,,,,,,,,,,,,,,,,,,,,,,,,,,,,,,,,,,,,,,,,,,,,,,,,
,,"[""period""]",0,[0.3001999999955274],105,0,105,0,1,60c8f96ddb749ea0361c1ae8,19,Mężczyzna,2022-06-04_08h13.35.288,task,2021.1.4,Win32,60.0060006,628b806c463b948bc644b84f,629af7fb2c22a39f62674c69,,,,,,,,,,,,,,,,,,,,,,,,,,,,,,,,,,,,,,,,,,,,,,,,,,,,,,,,,,,,,,,,,,,,,,,,,,,,,,,,,,,,,,,,,,,,,,,,,,,,,,,
,,"[""period""]",0,[0.30690000000601003],106,0,106,0,1,60c8f96ddb749ea0361c1ae8,19,Mężczyzna,2022-06-04_08h13.35.288,task,2021.1.4,Win32,60.0060006,628b806c463b948bc644b84f,629af7fb2c22a39f62674c69,,,,,,,,,,,,,,,,,,,,,,,,,,,,,,,,,,,,,,,,,,,,,,,,,,,,,,,,,,,,,,,,,,,,,,,,,,,,,,,,,,,,,,,,,,,,,,,,,,,,,,,
,,"[""comma""]",0,[0.283700000003023],107,0,107,0,1,60c8f96ddb749ea0361c1ae8,19,Mężczyzna,2022-06-04_08h13.35.288,task,2021.1.4,Win32,60.0060006,628b806c463b948bc644b84f,629af7fb2c22a39f62674c69,,,,,,,,,,,,,,,,,,,,,,,,,,,,,,,,,,,,,,,,,,,,,,,,,,,,,,,,,,,,,,,,,,,,,,,,,,,,,,,,,,,,,,,,,,,,,,,,,,,,,,,
,,"[""comma""]",0,[0.2763000000044826],108,0,108,0,1,60c8f96ddb749ea0361c1ae8,19,Mężczyzna,2022-06-04_08h13.35.288,task,2021.1.4,Win32,60.0060006,628b806c463b948bc644b84f,629af7fb2c22a39f62674c69,,,,,,,,,,,,,,,,,,,,,,,,,,,,,,,,,,,,,,,,,,,,,,,,,,,,,,,,,,,,,,,,,,,,,,,,,,,,,,,,,,,,,,,,,,,,,,,,,,,,,,,
,,"[""comma""]",0,[0.06879999999699749],109,0,109,0,1,60c8f96ddb749ea0361c1ae8,19,Mężczyzna,2022-06-04_08h13.35.288,task,2021.1.4,Win32,60.0060006,628b806c463b948bc644b84f,629af7fb2c22a39f62674c69,,,,,,,,,,,,,,,,,,,,,,,,,,,,,,,,,,,,,,,,,,,,,,,,,,,,,,,,,,,,,,,,,,,,,,,,,,,,,,,,,,,,,,,,,,,,,,,,,,,,,,,
,,"[""period""]",0,[0.2698000000044658],110,0,110,0,1,60c8f96ddb749ea0361c1ae8,19,Mężczyzna,2022-06-04_08h13.35.288,task,2021.1.4,Win32,60.0060006,628b806c463b948bc644b84f,629af7fb2c22a39f62674c69,,,,,,,,,,,,,,,,,,,,,,,,,,,,,,,,,,,,,,,,,,,,,,,,,,,,,,,,,,,,,,,,,,,,,,,,,,,,,,,,,,,,,,,,,,,,,,,,,,,,,,,
,,"[""comma""]",0,[0.2545000000000073],111,0,111,0,1,60c8f96ddb749ea0361c1ae8,19,Mężczyzna,2022-06-04_08h13.35.288,task,2021.1.4,Win32,60.0060006,628b806c463b948bc644b84f,629af7fb2c22a39f62674c69,,,,,,,,,,,,,,,,,,,,,,,,,,,,,,,,,,,,,,,,,,,,,,,,,,,,,,,,,,,,,,,,,,,,,,,,,,,,,,,,,,,,,,,,,,,,,,,,,,,,,,,
,,"[""period""]",0,[0.19940000000593727],112,0,112,0,1,60c8f96ddb749ea0361c1ae8,19,Mężczyzna,2022-06-04_08h13.35.288,task,2021.1.4,Win32,60.0060006,628b806c463b948bc644b84f,629af7fb2c22a39f62674c69,,,,,,,,,,,,,,,,,,,,,,,,,,,,,,,,,,,,,,,,,,,,,,,,,,,,,,,,,,,,,,,,,,,,,,,,,,,,,,,,,,,,,,,,,,,,,,,,,,,,,,,
,,"[""comma""]",0,[0.2837999999970293],113,0,113,0,1,60c8f96ddb749ea0361c1ae8,19,Mężczyzna,2022-06-04_08h13.35.288,task,2021.1.4,Win32,60.0060006,628b806c463b948bc644b84f,629af7fb2c22a39f62674c69,,,,,,,,,,,,,,,,,,,,,,,,,,,,,,,,,,,,,,,,,,,,,,,,,,,,,,,,,,,,,,,,,,,,,,,,,,,,,,,,,,,,,,,,,,,,,,,,,,,,,,,
,,"[""period""]",0,[0.3047999999970443],114,0,114,0,1,60c8f96ddb749ea0361c1ae8,19,Mężczyzna,2022-06-04_08h13.35.288,task,2021.1.4,Win32,60.0060006,628b806c463b948bc644b84f,629af7fb2c22a39f62674c69,,,,,,,,,,,,,,,,,,,,,,,,,,,,,,,,,,,,,,,,,,,,,,,,,,,,,,,,,,,,,,,,,,,,,,,,,,,,,,,,,,,,,,,,,,,,,,,,,,,,,,,
,,"[""comma""]",0,[0.3373000000045181],115,0,115,0,1,60c8f96ddb749ea0361c1ae8,19,Mężczyzna,2022-06-04_08h13.35.288,task,2021.1.4,Win32,60.0060006,628b806c463b948bc644b84f,629af7fb2c22a39f62674c69,,,,,,,,,,,,,,,,,,,,,,,,,,,,,,,,,,,,,,,,,,,,,,,,,,,,,,,,,,,,,,,,,,,,,,,,,,,,,,,,,,,,,,,,,,,,,,,,,,,,,,,
,,"[""comma""]",0,[0.30610000000149284],116,0,116,0,1,60c8f96ddb749ea0361c1ae8,19,Mężczyzna,2022-06-04_08h13.35.288,task,2021.1.4,Win32,60.0060006,628b806c463b948bc644b84f,629af7fb2c22a39f62674c69,,,,,,,,,,,,,,,,,,,,,,,,,,,,,,,,,,,,,,,,,,,,,,,,,,,,,,,,,,,,,,,,,,,,,,,,,,,,,,,,,,,,,,,,,,,,,,,,,,,,,,,
,,"[""period""]",0,[0.26689999999848624],117,0,117,0,1,60c8f96ddb749ea0361c1ae8,19,Mężczyzna,2022-06-04_08h13.35.288,task,2021.1.4,Win32,60.0060006,628b806c463b948bc644b84f,629af7fb2c22a39f62674c69,,,,,,,,,,,,,,,,,,,,,,,,,,,,,,,,,,,,,,,,,,,,,,,,,,,,,,,,,,,,,,,,,,,,,,,,,,,,,,,,,,,,,,,,,,,,,,,,,,,,,,,
,,"[""period""]",0,[0.3157999999970116],118,0,118,0,1,60c8f96ddb749ea0361c1ae8,19,Mężczyzna,2022-06-04_08h13.35.288,task,2021.1.4,Win32,60.0060006,628b806c463b948bc644b84f,629af7fb2c22a39f62674c69,,,,,,,,,,,,,,,,,,,,,,,,,,,,,,,,,,,,,,,,,,,,,,,,,,,,,,,,,,,,,,,,,,,,,,,,,,,,,,,,,,,,,,,,,,,,,,,,,,,,,,,
,,"[""period""]",0,[0.3170000000000073],119,0,119,0,1,60c8f96ddb749ea0361c1ae8,19,Mężczyzna,2022-06-04_08h13.35.288,task,2021.1.4,Win32,60.0060006,628b806c463b948bc644b84f,629af7fb2c22a39f62674c69,,,,,,,,,,,,,,,,,,,,,,,,,,,,,,,,,,,,,,,,,,,,,,,,,,,,,,,,,,,,,,,,,,,,,,,,,,,,,,,,,,,,,,,,,,,,,,,,,,,,,,,
,,,,,,,,,,60c8f96ddb749ea0361c1ae8,19,Mężczyzna,2022-06-04_08h13.35.288,task,2021.1.4,Win32,60.0060006,628b806c463b948bc644b84f,629af7fb2c22a39f62674c69,space,10.5957,space,5.6373,0,0,0,0,1,X V Q F H G B L J M P D K C T S W R N Z,,,,,,,,,,,,,,,,,,,,,,,,,,,,,,,,,,,,,,,,,,,,,,,,,,,,,,,,,,,,,,,,,,,,,,,,,,,,,,,,,,,,,,,,,,,,,
,,,,,,,,,,60c8f96ddb749ea0361c1ae8,19,Mężczyzna,2022-06-04_08h13.35.288,task,2021.1.4,Win32,60.0060006,628b806c463b948bc644b84f,629af7fb2c22a39f62674c69,,,,,1,0,1,0,1,X V Q F H G B L J M P D K C T S W R N Z,,,,,,,,,,,,,,,,,,,,,,,,,,,,,,,,,,,,,,,,,,,,,,,,,,,,,,,,,,,,,,,,,,,,,,,,,,,,,,,,,,,,,,,,,,,,,
,,,,,,,,,,60c8f96ddb749ea0361c1ae8,19,Mężczyzna,2022-06-04_08h13.35.288,task,2021.1.4,Win32,60.0060006,628b806c463b948bc644b84f,629af7fb2c22a39f62674c69,,,,,,,,,,,zm,"[""z"",""m""]","[1.6875,2.311300000004451,3.295300000004488]",1,ZM,0,0,0,0,1,,,,,,,,,,,,,,,,,,,,,,,,,,,,,,,,,,,,,,,,,,,,,,,,,,,,,,,,,,,,,,,,,,,,,,,,,,,,,,,,,,,
,,,,,,,,,,60c8f96ddb749ea0361c1ae8,19,Mężczyzna,2022-06-04_08h13.35.288,task,2021.1.4,Win32,60.0060006,628b806c463b948bc644b84f,629af7fb2c22a39f62674c69,,,,,0,0,0,0,1,X V Q F H G B L J M P D K C T S W R N Z,,,,,,,,,,,,,,,,,,,,,,,,,,,,,,,,,,,,,,,,,,,,,,,,,,,,,,,,,,,,,,,,,,,,,,,,,,,,,,,,,,,,,,,,,,,,,
,,,,,,,,,,60c8f96ddb749ea0361c1ae8,19,Mężczyzna,2022-06-04_08h13.35.288,task,2021.1.4,Win32,60.0060006,628b806c463b948bc644b84f,629af7fb2c22a39f62674c69,,,,,1,0,1,0,1,X V Q F H G B L J M P D K C T S W R N Z,,,,,,,,,,,,,,,,,,,,,,,,,,,,,,,,,,,,,,,,,,,,,,,,,,,,,,,,,,,,,,,,,,,,,,,,,,,,,,,,,,,,,,,,,,,,,
,,,,,,,,,,60c8f96ddb749ea0361c1ae8,19,Mężczyzna,2022-06-04_08h13.35.288,task,2021.1.4,Win32,60.0060006,628b806c463b948bc644b84f,629af7fb2c22a39f62674c69,,,,,,,,,,,mp,"[""m"",""p""]","[1.3836999999954855,1.8475999999940314,2.503499999999974]",1,MP,1,0,1,0,1,,,,,,,,,,,,,,,,,,,,,,,,,,,,,,,,,,,,,,,,,,,,,,,,,,,,,,,,,,,,,,,,,,,,,,,,,,,,,,,,,,,
,,,,,,,,,,60c8f96ddb749ea0361c1ae8,19,Mężczyzna,2022-06-04_08h13.35.288,task,2021.1.4,Win32,60.0060006,628b806c463b948bc644b84f,629af7fb2c22a39f62674c69,,,,,0,0,0,0,1,X V Q F H G B L J M P D K C T S W R N Z,,,,,,,,,,,,,,,,,,,,,,,,,,,,,,,,,,,,,,,,,,,,,,,,,,,,,,,,,,,,,,,,,,,,,,,,,,,,,,,,,,,,,,,,,,,,,
,,,,,,,,,,60c8f96ddb749ea0361c1ae8,19,Mężczyzna,2022-06-04_08h13.35.288,task,2021.1.4,Win32,60.0060006,628b806c463b948bc644b84f,629af7fb2c22a39f62674c69,,,,,1,0,1,0,1,X V Q F H G B L J M P D K C T S W R N Z,,,,,,,,,,,,,,,,,,,,,,,,,,,,,,,,,,,,,,,,,,,,,,,,,,,,,,,,,,,,,,,,,,,,,,,,,,,,,,,,,,,,,,,,,,,,,
,,,,,,,,,,60c8f96ddb749ea0361c1ae8,19,Mężczyzna,2022-06-04_08h13.35.288,task,2021.1.4,Win32,60.0060006,628b806c463b948bc644b84f,629af7fb2c22a39f62674c69,,,,,2,0,2,0,1,X V Q F H G B L J M P D K C T S W R N Z,,,,,,,,,,,,,,,,,,,,,,,,,,,,,,,,,,,,,,,,,,,,,,,,,,,,,,,,,,,,,,,,,,,,,,,,,,,,,,,,,,,,,,,,,,,,,
,,,,,,,,,,60c8f96ddb749ea0361c1ae8,19,Mężczyzna,2022-06-04_08h13.35.288,task,2021.1.4,Win32,60.0060006,628b806c463b948bc644b84f,629af7fb2c22a39f62674c69,,,,,,,,,,,wtn,"[""w"",""t"",""n""]","[1.0167000000029702,1.3653999999984876,1.665399999998499,2.4086000000015133]",1,WTN,2,0,2,0,1,,,,,,,,,,,,,,,,,,,,,,,,,,,,,,,,,,,,,,,,,,,,,,,,,,,,,,,,,,,,,,,,,,,,,,,,,,,,,,,,,,,
,,,,,,,,,,60c8f96ddb749ea0361c1ae8,19,Mężczyzna,2022-06-04_08h13.35.288,task,2021.1.4,Win32,60.0060006,628b806c463b948bc644b84f,629af7fb2c22a39f62674c69,,,,,0,0,0,0,1,X V Q F H G B L J M P D K C T S W R N Z,,,,,,,,,,,,,,,,,,,,,,,,,,,,,,,,,,,,,,,,,,,,,,,,,,,,,,,,,,,,,,,,,,,,,,,,,,,,,,,,,,,,,,,,,,,,,
,,,,,,,,,,60c8f96ddb749ea0361c1ae8,19,Mężczyzna,2022-06-04_08h13.35.288,task,2021.1.4,Win32,60.0060006,628b806c463b948bc644b84f,629af7fb2c22a39f62674c69,,,,,1,0,1,0,1,X V Q F H G B L J M P D K C T S W R N Z,,,,,,,,,,,,,,,,,,,,,,,,,,,,,,,,,,,,,,,,,,,,,,,,,,,,,,,,,,,,,,,,,,,,,,,,,,,,,,,,,,,,,,,,,,,,,
,,,,,,,,,,60c8f96ddb749ea0361c1ae8,19,Mężczyzna,2022-06-04_08h13.35.288,task,2021.1.4,Win32,60.0060006,628b806c463b948bc644b84f,629af7fb2c22a39f62674c69,,,,,2,0,2,0,1,X V Q F H G B L J M P D K C T S W R N Z,,,,,,,,,,,,,,,,,,,,,,,,,,,,,,,,,,,,,,,,,,,,,,,,,,,,,,,,,,,,,,,,,,,,,,,,,,,,,,,,,,,,,,,,,,,,,
,,,,,,,,,,60c8f96ddb749ea0361c1ae8,19,Mężczyzna,2022-06-04_08h13.35.288,task,2021.1.4,Win32,60.0060006,628b806c463b948bc644b84f,629af7fb2c22a39f62674c69,,,,,,,,,,,whb,"[""w"",""h"",""b""]","[1.0322000000030016,1.5155000000000314,1.8382000000029848,2.3472000000029993]",1,WHB,3,0,3,0,1,,,,,,,,,,,,,,,,,,,,,,,,,,,,,,,,,,,,,,,,,,,,,,,,,,,,,,,,,,,,,,,,,,,,,,,,,,,,,,,,,,,
,,,,,,,,,,60c8f96ddb749ea0361c1ae8,19,Mężczyzna,2022-06-04_08h13.35.288,task,2021.1.4,Win32,60.0060006,628b806c463b948bc644b84f,629af7fb2c22a39f62674c69,,,,,0,0,0,0,1,X V Q F H G B L J M P D K C T S W R N Z,,,,,,,,,,,,,,,,,,,,,,,,,,,,,,,,,,,,,,,,,,,,,,,,,,,,,,,,,,,,,,,,,,,,,,,,,,,,,,,,,,,,,,,,,,,,,
,,,,,,,,,,60c8f96ddb749ea0361c1ae8,19,Mężczyzna,2022-06-04_08h13.35.288,task,2021.1.4,Win32,60.0060006,628b806c463b948bc644b84f,629af7fb2c22a39f62674c69,,,,,1,0,1,0,1,X V Q F H G B L J M P D K C T S W R N Z,,,,,,,,,,,,,,,,,,,,,,,,,,,,,,,,,,,,,,,,,,,,,,,,,,,,,,,,,,,,,,,,,,,,,,,,,,,,,,,,,,,,,,,,,,,,,
,,,,,,,,,,60c8f96ddb749ea0361c1ae8,19,Mężczyzna,2022-06-04_08h13.35.288,task,2021.1.4,Win32,60.0060006,628b806c463b948bc644b84f,629af7fb2c22a39f62674c69,,,,,2,0,2,0,1,X V Q F H G B L J M P D K C T S W R N Z,,,,,,,,,,,,,,,,,,,,,,,,,,,,,,,,,,,,,,,,,,,,,,,,,,,,,,,,,,,,,,,,,,,,,,,,,,,,,,,,,,,,,,,,,,,,,
,,,,,,,,,,60c8f96ddb749ea0361c1ae8,19,Mężczyzna,2022-06-04_08h13.35.288,task,2021.1.4,Win32,60.0060006,628b806c463b948bc644b84f,629af7fb2c22a39f62674c69,,,,,3,0,3,0,1,X V Q F H G B L J M P D K C T S W R N Z,,,,,,,,,,,,,,,,,,,,,,,,,,,,,,,,,,,,,,,,,,,,,,,,,,,,,,,,,,,,,,,,,,,,,,,,,,,,,,,,,,,,,,,,,,,,,
,,,,,,,,,,60c8f96ddb749ea0361c1ae8,19,Mężczyzna,2022-06-04_08h13.35.288,task,2021.1.4,Win32,60.0060006,628b806c463b948bc644b84f,629af7fb2c22a39f62674c69,,,,,,,,,,,rsgx,"[""r"",""s"",""g"",""x""]","[1.165599999994015,1.4583999999985053,1.7806999999955337,2.250499999999988,2.7309999999999945]",1,RSGX,4,0,4,0,1,,,,,,,,,,,,,,,,,,,,,,,,,,,,,,,,,,,,,,,,,,,,,,,,,,,,,,,,,,,,,,,,,,,,,,,,,,,,,,,,,,,
,,,,,,,,,,60c8f96ddb749ea0361c1ae8,19,Mężczyzna,2022-06-04_08h13.35.288,task,2021.1.4,Win32,60.0060006,628b806c463b948bc644b84f,629af7fb2c22a39f62674c69,,,,,0,0,0,0,1,X V Q F H G B L J M P D K C T S W R N Z,,,,,,,,,,,,,,,,,,,,,,,,,,,,,,,,,,,,,,,,,,,,,,,,,,,,,,,,,,,,,,,,,,,,,,,,,,,,,,,,,,,,,,,,,,,,,
,,,,,,,,,,60c8f96ddb749ea0361c1ae8,19,Mężczyzna,2022-06-04_08h13.35.288,task,2021.1.4,Win32,60.0060006,628b806c463b948bc644b84f,629af7fb2c22a39f62674c69,,,,,1,0,1,0,1,X V Q F H G B L J M P D K C T S W R N Z,,,,,,,,,,,,,,,,,,,,,,,,,,,,,,,,,,,,,,,,,,,,,,,,,,,,,,,,,,,,,,,,,,,,,,,,,,,,,,,,,,,,,,,,,,,,,
,,,,,,,,,,60c8f96ddb749ea0361c1ae8,19,Mężczyzna,2022-06-04_08h13.35.288,task,2021.1.4,Win32,60.0060006,628b806c463b948bc644b84f,629af7fb2c22a39f62674c69,,,,,2,0,2,0,1,X V Q F H G B L J M P D K C T S W R N Z,,,,,,,,,,,,,,,,,,,,,,,,,,,,,,,,,,,,,,,,,,,,,,,,,,,,,,,,,,,,,,,,,,,,,,,,,,,,,,,,,,,,,,,,,,,,,
,,,,,,,,,,60c8f96ddb749ea0361c1ae8,19,Mężczyzna,2022-06-04_08h13.35.288,task,2021.1.4,Win32,60.0060006,628b806c463b948bc644b84f,629af7fb2c22a39f62674c69,,,,,3,0,3,0,1,X V Q F H G B L J M P D K C T S W R N Z,,,,,,,,,,,,,,,,,,,,,,,,,,,,,,,,,,,,,,,,,,,,,,,,,,,,,,,,,,,,,,,,,,,,,,,,,,,,,,,,,,,,,,,,,,,,,
,,,,,,,,,,60c8f96ddb749ea0361c1ae8,19,Mężczyzna,2022-06-04_08h13.35.288,task,2021.1.4,Win32,60.0060006,628b806c463b948bc644b84f,629af7fb2c22a39f62674c69,,,,,,,,,,,kgqr,"[""k"",""g"",""q"",""r""]","[0.9031000000015297,1.564100000001531,2.6072000000029902,3.1351000000015006,4.1673999999985085]",1,KGQR,5,0,5,0,1,,,,,,,,,,,,,,,,,,,,,,,,,,,,,,,,,,,,,,,,,,,,,,,,,,,,,,,,,,,,,,,,,,,,,,,,,,,,,,,,,,,
,,,,,,,,,,60c8f96ddb749ea0361c1ae8,19,Mężczyzna,2022-06-04_08h13.35.288,task,2021.1.4,Win32,60.0060006,628b806c463b948bc644b84f,629af7fb2c22a39f62674c69,,,,,0,0,0,0,1,X V Q F H G B L J M P D K C T S W R N Z,,,,,,,,,,,,,,,,,,,,,,,,,,,,,,,,,,,,,,,,,,,,,,,,,,,,,,,,,,,,,,,,,,,,,,,,,,,,,,,,,,,,,,,,,,,,,
,,,,,,,,,,60c8f96ddb749ea0361c1ae8,19,Mężczyzna,2022-06-04_08h13.35.288,task,2021.1.4,Win32,60.0060006,628b806c463b948bc644b84f,629af7fb2c22a39f62674c69,,,,,1,0,1,0,1,X V Q F H G B L J M P D K C T S W R N Z,,,,,,,,,,,,,,,,,,,,,,,,,,,,,,,,,,,,,,,,,,,,,,,,,,,,,,,,,,,,,,,,,,,,,,,,,,,,,,,,,,,,,,,,,,,,,
,,,,,,,,,,60c8f96ddb749ea0361c1ae8,19,Mężczyzna,2022-06-04_08h13.35.288,task,2021.1.4,Win32,60.0060006,628b806c463b948bc644b84f,629af7fb2c22a39f62674c69,,,,,2,0,2,0,1,X V Q F H G B L J M P D K C T S W R N Z,,,,,,,,,,,,,,,,,,,,,,,,,,,,,,,,,,,,,,,,,,,,,,,,,,,,,,,,,,,,,,,,,,,,,,,,,,,,,,,,,,,,,,,,,,,,,
,,,,,,,,,,60c8f96ddb749ea0361c1ae8,19,Mężczyzna,2022-06-04_08h13.35.288,task,2021.1.4,Win32,60.0060006,628b806c463b948bc644b84f,629af7fb2c22a39f62674c69,,,,,3,0,3,0,1,X V Q F H G B L J M P D K C T S W R N Z,,,,,,,,,,,,,,,,,,,,,,,,,,,,,,,,,,,,,,,,,,,,,,,,,,,,,,,,,,,,,,,,,,,,,,,,,,,,,,,,,,,,,,,,,,,,,
,,,,,,,,,,60c8f96ddb749ea0361c1ae8,19,Mężczyzna,2022-06-04_08h13.35.288,task,2021.1.4,Win32,60.0060006,628b806c463b948bc644b84f,629af7fb2c22a39f62674c69,,,,,4,0,4,0,1,X V Q F H G B L J M P D K C T S W R N Z,,,,,,,,,,,,,,,,,,,,,,,,,,,,,,,,,,,,,,,,,,,,,,,,,,,,,,,,,,,,,,,,,,,,,,,,,,,,,,,,,,,,,,,,,,,,,
,,,,,,,,,,60c8f96ddb749ea0361c1ae8,19,Mężczyzna,2022-06-04_08h13.35.288,task,2021.1.4,Win32,60.0060006,628b806c463b948bc644b84f,629af7fb2c22a39f62674c69,,,,,,,,,,,wpbcl,"[""w"",""p"",""b"",""c"",""l""]","[2.231999999999971,3.265100000001496,4.400100000001487,5.729499999999973,6.180600000001505,6.9803000000044335]",0,WBPCL,6,0,6,0,1,,,,,,,,,,,,,,,,,,,,,,,,,,,,,,,,,,,,,,,,,,,,,,,,,,,,,,,,,,,,,,,,,,,,,,,,,,,,,,,,,,,
,,,,,,,,,,60c8f96ddb749ea0361c1ae8,19,Mężczyzna,2022-06-04_08h13.35.288,task,2021.1.4,Win32,60.0060006,628b806c463b948bc644b84f,629af7fb2c22a39f62674c69,,,,,0,0,0,0,1,X V Q F H G B L J M P D K C T S W R N Z,,,,,,,,,,,,,,,,,,,,,,,,,,,,,,,,,,,,,,,,,,,,,,,,,,,,,,,,,,,,,,,,,,,,,,,,,,,,,,,,,,,,,,,,,,,,,
,,,,,,,,,,60c8f96ddb749ea0361c1ae8,19,Mężczyzna,2022-06-04_08h13.35.288,task,2021.1.4,Win32,60.0060006,628b806c463b948bc644b84f,629af7fb2c22a39f62674c69,,,,,1,0,1,0,1,X V Q F H G B L J M P D K C T S W R N Z,,,,,,,,,,,,,,,,,,,,,,,,,,,,,,,,,,,,,,,,,,,,,,,,,,,,,,,,,,,,,,,,,,,,,,,,,,,,,,,,,,,,,,,,,,,,,
,,,,,,,,,,60c8f96ddb749ea0361c1ae8,19,Mężczyzna,2022-06-04_08h13.35.288,task,2021.1.4,Win32,60.0060006,628b806c463b948bc644b84f,629af7fb2c22a39f62674c69,,,,,2,0,2,0,1,X V Q F H G B L J M P D K C T S W R N Z,,,,,,,,,,,,,,,,,,,,,,,,,,,,,,,,,,,,,,,,,,,,,,,,,,,,,,,,,,,,,,,,,,,,,,,,,,,,,,,,,,,,,,,,,,,,,
,,,,,,,,,,60c8f96ddb749ea0361c1ae8,19,Mężczyzna,2022-06-04_08h13.35.288,task,2021.1.4,Win32,60.0060006,628b806c463b948bc644b84f,629af7fb2c22a39f62674c69,,,,,3,0,3,0,1,X V Q F H G B L J M P D K C T S W R N Z,,,,,,,,,,,,,,,,,,,,,,,,,,,,,,,,,,,,,,,,,,,,,,,,,,,,,,,,,,,,,,,,,,,,,,,,,,,,,,,,,,,,,,,,,,,,,
,,,,,,,,,,60c8f96ddb749ea0361c1ae8,19,Mężczyzna,2022-06-04_08h13.35.288,task,2021.1.4,Win32,60.0060006,628b806c463b948bc644b84f,629af7fb2c22a39f62674c69,,,,,4,0,4,0,1,X V Q F H G B L J M P D K C T S W R N Z,,,,,,,,,,,,,,,,,,,,,,,,,,,,,,,,,,,,,,,,,,,,,,,,,,,,,,,,,,,,,,,,,,,,,,,,,,,,,,,,,,,,,,,,,,,,,
,,,,,,,,,,60c8f96ddb749ea0361c1ae8,19,Mężczyzna,2022-06-04_08h13.35.288,task,2021.1.4,Win32,60.0060006,628b806c463b948bc644b84f,629af7fb2c22a39f62674c69,,,,,,,,,,,kjwst,"[""k"",""j"",""w"",""s"",""t""]","[1.704699999995512,2.7151000000014847,4.536600000001499,5.0326999999954865,5.4646000000014965,5.840600000001473]",0,KJVWT,7,0,7,0,1,,,,,,,,,,,,,,,,,,,,,,,,,,,,,,,,,,,,,,,,,,,,,,,,,,,,,,,,,,,,,,,,,,,,,,,,,,,,,,,,,,,
,,,,,,,,,,60c8f96ddb749ea0361c1ae8,19,Mężczyzna,2022-06-04_08h13.35.288,task,2021.1.4,Win32,60.0060006,628b806c463b948bc644b84f,629af7fb2c22a39f62674c69,,,,,0,0,0,0,1,X V Q F H G B L J M P D K C T S W R N Z,,,,,,,,,,,,,,,,,,,,,,,,,,,,,,,,,,,,,,,,,,,,,,,,,,,,,,,,,,,,,,,,,,,,,,,,,,,,,,,,,,,,,,,,,,,,,
,,,,,,,,,,60c8f96ddb749ea0361c1ae8,19,Mężczyzna,2022-06-04_08h13.35.288,task,2021.1.4,Win32,60.0060006,628b806c463b948bc644b84f,629af7fb2c22a39f62674c69,,,,,1,0,1,0,1,X V Q F H G B L J M P D K C T S W R N Z,,,,,,,,,,,,,,,,,,,,,,,,,,,,,,,,,,,,,,,,,,,,,,,,,,,,,,,,,,,,,,,,,,,,,,,,,,,,,,,,,,,,,,,,,,,,,
,,,,,,,,,,60c8f96ddb749ea0361c1ae8,19,Mężczyzna,2022-06-04_08h13.35.288,task,2021.1.4,Win32,60.0060006,628b806c463b948bc644b84f,629af7fb2c22a39f62674c69,,,,,2,0,2,0,1,X V Q F H G B L J M P D K C T S W R N Z,,,,,,,,,,,,,,,,,,,,,,,,,,,,,,,,,,,,,,,,,,,,,,,,,,,,,,,,,,,,,,,,,,,,,,,,,,,,,,,,,,,,,,,,,,,,,
,,,,,,,,,,60c8f96ddb749ea0361c1ae8,19,Mężczyzna,2022-06-04_08h13.35.288,task,2021.1.4,Win32,60.0060006,628b806c463b948bc644b84f,629af7fb2c22a39f62674c69,,,,,3,0,3,0,1,X V Q F H G B L J M P D K C T S W R N Z,,,,,,,,,,,,,,,,,,,,,,,,,,,,,,,,,,,,,,,,,,,,,,,,,,,,,,,,,,,,,,,,,,,,,,,,,,,,,,,,,,,,,,,,,,,,,
,,,,,,,,,,60c8f96ddb749ea0361c1ae8,19,Mężczyzna,2022-06-04_08h13.35.288,task,2021.1.4,Win32,60.0060006,628b806c463b948bc644b84f,629af7fb2c22a39f62674c69,,,,,4,0,4,0,1,X V Q F H G B L J M P D K C T S W R N Z,,,,,,,,,,,,,,,,,,,,,,,,,,,,,,,,,,,,,,,,,,,,,,,,,,,,,,,,,,,,,,,,,,,,,,,,,,,,,,,,,,,,,,,,,,,,,
,,,,,,,,,,60c8f96ddb749ea0361c1ae8,19,Mężczyzna,2022-06-04_08h13.35.288,task,2021.1.4,Win32,60.0060006,628b806c463b948bc644b84f,629af7fb2c22a39f62674c69,,,,,,,,,,,tnmlt,"[""t"",""n"",""m"",""l"",""t""]","[1.2976000000015233,2.66510000000153,3.039000000000044,3.63900000000001,3.91889999999853,4.729799999997056]",1,TNMLT,8,0,8,0,1,,,,,,,,,,,,,,,,,,,,,,,,,,,,,,,,,,,,,,,,,,,,,,,,,,,,,,,,,,,,,,,,,,,,,,,,,,,,,,,,,,,
,,,,,,,,,,60c8f96ddb749ea0361c1ae8,19,Mężczyzna,2022-06-04_08h13.35.288,task,2021.1.4,Win32,60.0060006,628b806c463b948bc644b84f,629af7fb2c22a39f62674c69,,,,,0,0,0,0,1,X V Q F H G B L J M P D K C T S W R N Z,,,,,,,,,,,,,,,,,,,,,,,,,,,,,,,,,,,,,,,,,,,,,,,,,,,,,,,,,,,,,,,,,,,,,,,,,,,,,,,,,,,,,,,,,,,,,
,,,,,,,,,,60c8f96ddb749ea0361c1ae8,19,Mężczyzna,2022-06-04_08h13.35.288,task,2021.1.4,Win32,60.0060006,628b806c463b948bc644b84f,629af7fb2c22a39f62674c69,,,,,1,0,1,0,1,X V Q F H G B L J M P D K C T S W R N Z,,,,,,,,,,,,,,,,,,,,,,,,,,,,,,,,,,,,,,,,,,,,,,,,,,,,,,,,,,,,,,,,,,,,,,,,,,,,,,,,,,,,,,,,,,,,,
,,,,,,,,,,60c8f96ddb749ea0361c1ae8,19,Mężczyzna,2022-06-04_08h13.35.288,task,2021.1.4,Win32,60.0060006,628b806c463b948bc644b84f,629af7fb2c22a39f62674c69,,,,,2,0,2,0,1,X V Q F H G B L J M P D K C T S W R N Z,,,,,,,,,,,,,,,,,,,,,,,,,,,,,,,,,,,,,,,,,,,,,,,,,,,,,,,,,,,,,,,,,,,,,,,,,,,,,,,,,,,,,,,,,,,,,
,,,,,,,,,,60c8f96ddb749ea0361c1ae8,19,Mężczyzna,2022-06-04_08h13.35.288,task,2021.1.4,Win32,60.0060006,628b806c463b948bc644b84f,629af7fb2c22a39f62674c69,,,,,3,0,3,0,1,X V Q F H G B L J M P D K C T S W R N Z,,,,,,,,,,,,,,,,,,,,,,,,,,,,,,,,,,,,,,,,,,,,,,,,,,,,,,,,,,,,,,,,,,,,,,,,,,,,,,,,,,,,,,,,,,,,,
,,,,,,,,,,60c8f96ddb749ea0361c1ae8,19,Mężczyzna,2022-06-04_08h13.35.288,task,2021.1.4,Win32,60.0060006,628b806c463b948bc644b84f,629af7fb2c22a39f62674c69,,,,,4,0,4,0,1,X V Q F H G B L J M P D K C T S W R N Z,,,,,,,,,,,,,,,,,,,,,,,,,,,,,,,,,,,,,,,,,,,,,,,,,,,,,,,,,,,,,,,,,,,,,,,,,,,,,,,,,,,,,,,,,,,,,
,,,,,,,,,,60c8f96ddb749ea0361c1ae8,19,Mężczyzna,2022-06-04_08h13.35.288,task,2021.1.4,Win32,60.0060006,628b806c463b948bc644b84f,629af7fb2c22a39f62674c69,,,,,,,,,,,mrrtj,"[""m"",""r"",""r"",""t"",""j""]","[1.1371999999955733,1.600999999999999,1.8248999999985358,3.8728999999985376,4.016899999998543,4.952899999998522]",0,MRRJT,9,0,9,0,1,,,,,,,,,,,,,,,,,,,,,,,,,,,,,,,,,,,,,,,,,,,,,,,,,,,,,,,,,,,,,,,,,,,,,,,,,,,,,,,,,,,
,,,,,,,,,,60c8f96ddb749ea0361c1ae8,19,Mężczyzna,2022-06-04_08h13.35.288,task,2021.1.4,Win32,60.0060006,628b806c463b948bc644b84f,629af7fb2c22a39f62674c69,,,,,,,,,,,,,,,,,,,,,space,5.347,1,"[""1""]",1,[29.340499999999963],[29.340499999999963],0,0,0,1,1,Practice,2,(4x4) - 15,1,,,,,,,,,,,,,,,,,,,,,,,,,,,,,,,,,,,,,,,,,,,,,,,,,,,,,,,,,,,,,,,,,,,
,,,,,,,,,,60c8f96ddb749ea0361c1ae8,19,Mężczyzna,2022-06-04_08h13.35.288,task,2021.1.4,Win32,60.0060006,628b806c463b948bc644b84f,629af7fb2c22a39f62674c69,,,,,,,,,,,,,,,,,,,,,,,2,"[""2""]",1,[7.90749999999997],"[29.340499999999963,7.90749999999997]",0,1,1,2,1,Practice,3,(4x4) - 14,2,,,,,,,,,,,,,,,,,,,,,,,,,,,,,,,,,,,,,,,,,,,,,,,,,,,,,,,,,,,,,,,,,,,
,,,,,,,,,,60c8f96ddb749ea0361c1ae8,19,Mężczyzna,2022-06-04_08h13.35.288,task,2021.1.4,Win32,60.0060006,628b806c463b948bc644b84f,629af7fb2c22a39f62674c69,,,,,,,,,,,,,,,,,,,,,,,8,"[""8""]",1,[10.312799999997026],"[29.340499999999963,7.90749999999997,10.312799999997026]",0,2,2,8,1,Practice,9,(3x3) - 1,8,,,,,,,,,,,,,,,,,,,,,,,,,,,,,,,,,,,,,,,,,,,,,,,,,,,,,,,,,,,,,,,,,,,
,,,,,,,,,,60c8f96ddb749ea0361c1ae8,19,Mężczyzna,2022-06-04_08h13.35.288,task,2021.1.4,Win32,60.0060006,628b806c463b948bc644b84f,629af7fb2c22a39f62674c69,,,,,,,,,,,,,,,,,,,,,,,3,"[""3""]",1,[7.081700000002968],"[29.340499999999963,7.90749999999997,10.312799999997026,7.081700000002968]",0,3,3,3,1,Practice,4,(8/4) + 1,3,,,,,,,,,,,,,,,,,,,,,,,,,,,,,,,,,,,,,,,,,,,,,,,,,,,,,,,,,,,,,,,,,,,
,,,,,,,,,,60c8f96ddb749ea0361c1ae8,19,Mężczyzna,2022-06-04_08h13.35.288,task,2021.1.4,Win32,60.0060006,628b806c463b948bc644b84f,629af7fb2c22a39f62674c69,,,,,,,,,,,,,,,,,,,,,,,7,"[""7""]",1,[14.3106000000015],"[29.340499999999963,7.90749999999997,10.312799999997026,7.081700000002968,14.3106000000015]",0,4,4,7,1,Practice,8,(5x5) - 18,7,,,,,,,,,,,,,,,,,,,,,,,,,,,,,,,,,,,,,,,,,,,,,,,,,,,,,,,,,,,,,,,,,,,
,,,,,,,,,,60c8f96ddb749ea0361c1ae8,19,Mężczyzna,2022-06-04_08h13.35.288,task,2021.1.4,Win32,60.0060006,628b806c463b948bc644b84f,629af7fb2c22a39f62674c69,,,,,,,,,,,,,,,,,,,,,,,8,"[""8""]",0,[3.0827999999969506],"[29.340499999999963,7.90749999999997,10.312799999997026,7.081700000002968,14.3106000000015,3.0827999999969506]",0,5,5,4,1,Practice,5,(2x6) - 8,4,,,,,,,,,,,,,,,,,,,,,,,,,,,,,,,,,,,,,,,,,,,,,,,,,,,,,,,,,,,,,,,,,,,
,,,,,,,,,,60c8f96ddb749ea0361c1ae8,19,Mężczyzna,2022-06-04_08h13.35.288,task,2021.1.4,Win32,60.0060006,628b806c463b948bc644b84f,629af7fb2c22a39f62674c69,,,,,,,,,,,,,,,,,,,,,,,6,"[""6""]",1,[19.310100000001512],"[29.340499999999963,7.90749999999997,10.312799999997026,7.081700000002968,14.3106000000015,3.0827999999969506,19.310100000001512]",0,6,6,6,1,Practice,7,(25/5) + 1,6,,,,,,,,,,,,,,,,,,,,,,,,,,,,,,,,,,,,,,,,,,,,,,,,,,,,,,,,,,,,,,,,,,,
,,,,,,,,,,60c8f96ddb749ea0361c1ae8,19,Mężczyzna,2022-06-04_08h13.35.288,task,2021.1.4,Win32,60.0060006,628b806c463b948bc644b84f,629af7fb2c22a39f62674c69,,,,,,,,,,,,,,,,,,,,,,,9,"[""9""]",1,[17.25400000000002],"[29.340499999999963,7.90749999999997,10.312799999997026,7.081700000002968,14.3106000000015,3.0827999999969506,19.310100000001512,17.25400000000002]",0,7,7,9,1,Practice,10,(20/2) - 1,9,,,,,,,,,,,,,,,,,,,,,,,,,,,,,,,,,,,,,,,,,,,,,,,,,,,,,,,,,,,,,,,,,,,
,,,,,,,,,,60c8f96ddb749ea0361c1ae8,19,Mężczyzna,2022-06-04_08h13.35.288,task,2021.1.4,Win32,60.0060006,628b806c463b948bc644b84f,629af7fb2c22a39f62674c69,,,,,,,,,,,,,,,,,,,,,,,5,"[""5""]",1,[9.213299999997048],"[29.340499999999963,7.90749999999997,10.312799999997026,7.081700000002968,14.3106000000015,3.0827999999969506,19.310100000001512,17.25400000000002,9.213299999997048]",0,8,8,5,1,Practice,6,(4/2) + 3,5,,,,,,,,,,,,,,,,,,,,,,,,,,,,,,,,,,,,,,,,,,,,,,,,,,,,,,,,,,,,,,,,,,,
,,,,,,,,,,60c8f96ddb749ea0361c1ae8,19,Mężczyzna,2022-06-04_08h13.35.288,task,2021.1.4,Win32,60.0060006,628b806c463b948bc644b84f,629af7fb2c22a39f62674c69,,,,,,,,,,,,,,,,,,,,,,,0,"[""0""]",1,[14.24519999999552],"[29.340499999999963,7.90749999999997,10.312799999997026,7.081700000002968,14.3106000000015,3.0827999999969506,19.310100000001512,17.25400000000002,9.213299999997048,14.24519999999552]",0,9,9,0,1,Practice,1,(3x3) -  9,0,,,,,,,,,,,,,,,,,,,,,,,,,,,,,,,,,,,,,,,,,,,,,,,,,,,,,,,,,,,,,,,,,,,
,,,,,,,,,,60c8f96ddb749ea0361c1ae8,19,Mężczyzna,2022-06-04_08h13.35.288,task,2021.1.4,Win32,60.0060006,628b806c463b948bc644b84f,629af7fb2c22a39f62674c69,,,,,,,,,,,,,,,,,,,,,,,,,,,,,,,,,,,,,0.9,132.0585,8.8039,702.4127372,6.843063335,26.45900341,space,2.4315,0,0,0,0,1,,,,,,,,,,,,,,,,,,,,,,,,,,,,,,,,,,,,,,,,,,,,,,,,,,,,,,
,,,,,,,,,,60c8f96ddb749ea0361c1ae8,19,Mężczyzna,2022-06-04_08h13.35.288,task,2021.1.4,Win32,60.0060006,628b806c463b948bc644b84f,629af7fb2c22a39f62674c69,,,,,,,,,,,,,,,,,,,,,,,0,,,,,,,,,,Practice,1,(3x3) -  9,0,,,,,,,,,,,,,,space,146.7533,"[""0""]",1,[2.991899999998509],1,0,0,0,0,1,,,,,,,,,,,,,,,,,,,,,,,,,,,,,,,,,,,,,,,,,,,
,,,,,,,,,,60c8f96ddb749ea0361c1ae8,19,Mężczyzna,2022-06-04_08h13.35.288,task,2021.1.4,Win32,60.0060006,628b806c463b948bc644b84f,629af7fb2c22a39f62674c69,,,,,,,,,,X V Q F H G B L J M P D K C T S W R N Z,,,,,,,,,,,,,,,,,,,,,,,,,,,,,,,,,,,,,,,,,,,,,,,,,,,0,0,0,0,1,,,,,,,,,,,,,,,,,,,,,,,,,,,,,,,,,,,,,,
,,,,,,,,,,60c8f96ddb749ea0361c1ae8,19,Mężczyzna,2022-06-04_08h13.35.288,task,2021.1.4,Win32,60.0060006,628b806c463b948bc644b84f,629af7fb2c22a39f62674c69,,,,,,,,,,,,,,,,,,,,,,,9,,,,,,,,,,Practice,5,(2x6) - 8,4,,,,,,,,,,,,,,,,"[""9""]",0,[5.26690000000599],0,0,0,0,4,1,,,,,,,,,,,,,,,,,,,,,,,,,,,,,,,,,,,,,,,,,,,
,,,,,,,,,,60c8f96ddb749ea0361c1ae8,19,Mężczyzna,2022-06-04_08h13.35.288,task,2021.1.4,Win32,60.0060006,628b806c463b948bc644b84f,629af7fb2c22a39f62674c69,,,,,,,,,,,,,,,,,,,,,,,0,,,,,,,,,,Practice,10,(20/2) - 1,9,,,,,,,,,,,,,,,,"[""0""]",0,[4.963299999997048],0,0,1,1,9,1,,,,,,,,,,,,,,,,,,,,,,,,,,,,,,,,,,,,,,,,,,,
,,,,,,,,,,60c8f96ddb749ea0361c1ae8,19,Mężczyzna,2022-06-04_08h13.35.288,task,2021.1.4,Win32,60.0060006,628b806c463b948bc644b84f,629af7fb2c22a39f62674c69,,,,,,,,,,,,,,,,,,,,,,,7,,,,,,,,,,Practice,8,(5x5) - 18,7,,,,,,,,,,,,,,,,"[""7""]",1,[21.302799999996978],1,0,2,2,7,1,,,,,,,,,,,,,,,,,,,,,,,,,,,,,,,,,,,,,,,,,,,
,,,,,,,,,,60c8f96ddb749ea0361c1ae8,19,Mężczyzna,2022-06-04_08h13.35.288,task,2021.1.4,Win32,60.0060006,628b806c463b948bc644b84f,629af7fb2c22a39f62674c69,,,,,,,,,,X V Q F H G B L J M P D K C T S W R N Z,,,,,,,,,,,,,,,,,,,,,,,,,,,,,,,,,,,,,,,,,,,,,,,,,,,1,0,1,0,1,,,,,,,,,,,,,,,,,,,,,,,,,,,,,,,,,,,,,,
,,,,,,,,,,60c8f96ddb749ea0361c1ae8,19,Mężczyzna,2022-06-04_08h13.35.288,task,2021.1.4,Win32,60.0060006,628b806c463b948bc644b84f,629af7fb2c22a39f62674c69,,,,,,,,,,,,,,,,,,,,,,,,,,,,,,,,,,,,,,,,,,,,,,,,,,,,,,,,,,,,,,,,,,zm,"[""z"",""m""]",0,"[4.031199999995579,4.421699999995553,4.957699999995498]",1,0,0,0,0,1,,,,,,,,,,,,,,,,,,,,,,,,,,,,
,,,,,,,,,,60c8f96ddb749ea0361c1ae8,19,Mężczyzna,2022-06-04_08h13.35.288,task,2021.1.4,Win32,60.0060006,628b806c463b948bc644b84f,629af7fb2c22a39f62674c69,,,,,,,,,,,,,,,,,,,,,,,1,,,,,,,,,,Practice,2,(4x4) - 15,1,,,,,,,,,,,,,,,,"[""1""]",1,[12.429299999996942],1,0,0,0,1,1,,,,,,,,,,,,,,,,,,,,,,,,,,,,,,,,,,,,,,,,,,,
,,,,,,,,,,60c8f96ddb749ea0361c1ae8,19,Mężczyzna,2022-06-04_08h13.35.288,task,2021.1.4,Win32,60.0060006,628b806c463b948bc644b84f,629af7fb2c22a39f62674c69,,,,,,,,,,X V Q F H G B L J M P D K C T S W R N Z,,,,,,,,,,,,,,,,,,,,,,,,,,,,,,,,,,,,,,,,,,,,,,,,,,,0,0,0,0,1,,,,,,,,,,,,,,,,,,,,,,,,,,,,,,,,,,,,,,
,,,,,,,,,,60c8f96ddb749ea0361c1ae8,19,Mężczyzna,2022-06-04_08h13.35.288,task,2021.1.4,Win32,60.0060006,628b806c463b948bc644b84f,629af7fb2c22a39f62674c69,,,,,,,,,,,,,,,,,,,,,,,2,,,,,,,,,,Practice,3,(4x4) - 14,2,,,,,,,,,,,,,,,,"[""2""]",1,[7.7631000000014865],1,0,0,0,2,1,,,,,,,,,,,,,,,,,,,,,,,,,,,,,,,,,,,,,,,,,,,
,,,,,,,,,,60c8f96ddb749ea0361c1ae8,19,Mężczyzna,2022-06-04_08h13.35.288,task,2021.1.4,Win32,60.0060006,628b806c463b948bc644b84f,629af7fb2c22a39f62674c69,,,,,,,,,,X V Q F H G B L J M P D K C T S W R N Z,,,,,,,,,,,,,,,,,,,,,,,,,,,,,,,,,,,,,,,,,,,,,,,,,,,1,0,1,0,1,,,,,,,,,,,,,,,,,,,,,,,,,,,,,,,,,,,,,,
,,,,,,,,,,60c8f96ddb749ea0361c1ae8,19,Mężczyzna,2022-06-04_08h13.35.288,task,2021.1.4,Win32,60.0060006,628b806c463b948bc644b84f,629af7fb2c22a39f62674c69,,,,,,,,,,,,,,,,,,,,,,,,,,,,,,,,,,,,,,,,,,,,,,,,,,,,,,,,,,,,,,,,,,vn,"[""v"",""n""]",0,"[2.0833999999985053,2.43289999999854,3.0161000000015292]",1,1,0,1,0,1,,,,,,,,,,,,,,,,,,,,,,,,,,,,
,,,,,,,,,,60c8f96ddb749ea0361c1ae8,19,Mężczyzna,2022-06-04_08h13.35.288,task,2021.1.4,Win32,60.0060006,628b806c463b948bc644b84f,629af7fb2c22a39f62674c69,,,,,,,,,,,,,,,,,,,,,,,8,,,,,,,,,,Practice,9,(3x3) - 1,8,,,,,,,,,,,,,,,,"[""8""]",1,[3.833499999999958],1,0,0,0,8,1,,,,,,,,,,,,,,,,,,,,,,,,,,,,,,,,,,,,,,,,,,,
,,,,,,,,,,60c8f96ddb749ea0361c1ae8,19,Mężczyzna,2022-06-04_08h13.35.288,task,2021.1.4,Win32,60.0060006,628b806c463b948bc644b84f,629af7fb2c22a39f62674c69,,,,,,,,,,X V Q F H G B L J M P D K C T S W R N Z,,,,,,,,,,,,,,,,,,,,,,,,,,,,,,,,,,,,,,,,,,,,,,,,,,,0,0,0,0,1,,,,,,,,,,,,,,,,,,,,,,,,,,,,,,,,,,,,,,
,,,,,,,,,,60c8f96ddb749ea0361c1ae8,19,Mężczyzna,2022-06-04_08h13.35.288,task,2021.1.4,Win32,60.0060006,628b806c463b948bc644b84f,629af7fb2c22a39f62674c69,,,,,,,,,,,,,,,,,,,,,,,8,,,,,,,,,,Practice,9,(3x3) - 1,8,,,,,,,,,,,,,,,,"[""8""]",1,[6.303899999998521],1,0,0,0,8,1,,,,,,,,,,,,,,,,,,,,,,,,,,,,,,,,,,,,,,,,,,,
,,,,,,,,,,60c8f96ddb749ea0361c1ae8,19,Mężczyzna,2022-06-04_08h13.35.288,task,2021.1.4,Win32,60.0060006,628b806c463b948bc644b84f,629af7fb2c22a39f62674c69,,,,,,,,,,X V Q F H G B L J M P D K C T S W R N Z,,,,,,,,,,,,,,,,,,,,,,,,,,,,,,,,,,,,,,,,,,,,,,,,,,,1,0,1,0,1,,,,,,,,,,,,,,,,,,,,,,,,,,,,,,,,,,,,,,
,,,,,,,,,,60c8f96ddb749ea0361c1ae8,19,Mężczyzna,2022-06-04_08h13.35.288,task,2021.1.4,Win32,60.0060006,628b806c463b948bc644b84f,629af7fb2c22a39f62674c69,,,,,,,,,,,,,,,,,,,,,,,,,,,,,,,,,,,,,,,,,,,,,,,,,,,,,,,,,,,,,,,,,,zt,"[""z"",""t""]",0,"[1.5166000000014037,1.7997999999969352,2.385199999995507]",1,2,0,2,0,1,,,,,,,,,,,,,,,,,,,,,,,,,,,,
,,,,,,,,,,60c8f96ddb749ea0361c1ae8,19,Mężczyzna,2022-06-04_08h13.35.288,task,2021.1.4,Win32,60.0060006,628b806c463b948bc644b84f,629af7fb2c22a39f62674c69,,,,,,,,,,,,,,,,,,,,,,,5,,,,,,,,,,Task,36,(8/4) + 3,5,,,,,,,,,,,,,,,,,,,1,,,,,,,,,,,,,,,,,,,,,space,12.4958,"[""5""]",1,[14.682999999999993],0,0,0,35,1,,,,,,,,,,,,,,,,,,
,,,,,,,,,,60c8f96ddb749ea0361c1ae8,19,Mężczyzna,2022-06-04_08h13.35.288,task,2021.1.4,Win32,60.0060006,628b806c463b948bc644b84f,629af7fb2c22a39f62674c69,,,,,,,,,,X V Q F H G B L J M P D K C T S W R N Z,,,,,,,,,,,,,,,,,,,,,,,,,,,,,,,,,,,,,,,,,,,,,,,,,,,,,,,,,,,,,,,,,,,,,,,,,,,,0,0,0,0,1,,,,,,,,,,,,,
,,,,,,,,,,60c8f96ddb749ea0361c1ae8,19,Mężczyzna,2022-06-04_08h13.35.288,task,2021.1.4,Win32,60.0060006,628b806c463b948bc644b84f,629af7fb2c22a39f62674c69,,,,,,,,,,,,,,,,,,,,,,,6,,,,,,,,,,Task,5,(2x3) + 0,6,,,,,,,,,,,,,,,,,,,1,,,,,,,,,,,,,,,,,,,,,,,"[""6""]",1,[6.168399999998428],0,0,0,4,1,,,,,,,,,,,,,,,,,,
,,,,,,,,,,60c8f96ddb749ea0361c1ae8,19,Mężczyzna,2022-06-04_08h13.35.288,task,2021.1.4,Win32,60.0060006,628b806c463b948bc644b84f,629af7fb2c22a39f62674c69,,,,,,,,,,X V Q F H G B L J M P D K C T S W R N Z,,,,,,,,,,,,,,,,,,,,,,,,,,,,,,,,,,,,,,,,,,,,,,,,,,,,,,,,,,,,,,,,,,,,,,,,,,,,1,0,1,0,1,,,,,,,,,,,,,
,,,,,,,,,,60c8f96ddb749ea0361c1ae8,19,Mężczyzna,2022-06-04_08h13.35.288,task,2021.1.4,Win32,60.0060006,628b806c463b948bc644b84f,629af7fb2c22a39f62674c69,,,,,,,,,,,,,,,,,,,,,,,,,,,,,,,,,,,,,,,,,,,,,,,,,,,,,,,,,,,,,,,,,,,,,,,,,,,,,,,,,,,,,,,,,,,zk,"[""z"",""k""]",0,"[1.6248999999984335,2.040899999998487,2.377399999998488]",1,ZK,0,0,0,0,1,,
,,,,,,,,,,60c8f96ddb749ea0361c1ae8,19,Mężczyzna,2022-06-04_08h13.35.288,task,2021.1.4,Win32,60.0060006,628b806c463b948bc644b84f,629af7fb2c22a39f62674c69,,,,,,,,,,,,,,,,,,,,,,,4,,,,,,,,,,Task,4,(1x5) - 1,4,,,,,,,,,,,,,,,,,,,1,,,,,,,,,,,,,,,,,,,,,,,"[""4""]",1,[3.080799999996998],0,0,0,3,1,,,,,,,,,,,,,,,,,,
,,,,,,,,,,60c8f96ddb749ea0361c1ae8,19,Mężczyzna,2022-06-04_08h13.35.288,task,2021.1.4,Win32,60.0060006,628b806c463b948bc644b84f,629af7fb2c22a39f62674c69,,,,,,,,,,X V Q F H G B L J M P D K C T S W R N Z,,,,,,,,,,,,,,,,,,,,,,,,,,,,,,,,,,,,,,,,,,,,,,,,,,,,,,,,,,,,,,,,,,,,,,,,,,,,0,0,0,0,1,,,,,,,,,,,,,
,,,,,,,,,,60c8f96ddb749ea0361c1ae8,19,Mężczyzna,2022-06-04_08h13.35.288,task,2021.1.4,Win32,60.0060006,628b806c463b948bc644b84f,629af7fb2c22a39f62674c69,,,,,,,,,,,,,,,,,,,,,,,4,,,,,,,,,,Task,11,(18/3) - 2,4,,,,,,,,,,,,,,,,,,,1,,,,,,,,,,,,,,,,,,,,,,,"[""4""]",1,[13.876800000004437],0,0,0,10,1,,,,,,,,,,,,,,,,,,
,,,,,,,,,,60c8f96ddb749ea0361c1ae8,19,Mężczyzna,2022-06-04_08h13.35.288,task,2021.1.4,Win32,60.0060006,628b806c463b948bc644b84f,629af7fb2c22a39f62674c69,,,,,,,,,,X V Q F H G B L J M P D K C T S W R N Z,,,,,,,,,,,,,,,,,,,,,,,,,,,,,,,,,,,,,,,,,,,,,,,,,,,,,,,,,,,,,,,,,,,,,,,,,,,,1,0,1,0,1,,,,,,,,,,,,,
,,,,,,,,,,60c8f96ddb749ea0361c1ae8,19,Mężczyzna,2022-06-04_08h13.35.288,task,2021.1.4,Win32,60.0060006,628b806c463b948bc644b84f,629af7fb2c22a39f62674c69,,,,,,,,,,,,,,,,,,,,,,,6,,,,,,,,,,Task,5,(2x3) + 0,6,,,,,,,,,,,,,,,,,,,1,,,,,,,,,,,,,,,,,,,,,,,"[""6""]",1,[6.998399999998469],0,0,0,4,1,,,,,,,,,,,,,,,,,,
,,,,,,,,,,60c8f96ddb749ea0361c1ae8,19,Mężczyzna,2022-06-04_08h13.35.288,task,2021.1.4,Win32,60.0060006,628b806c463b948bc644b84f,629af7fb2c22a39f62674c69,,,,,,,,,,X V Q F H G B L J M P D K C T S W R N Z,,,,,,,,,,,,,,,,,,,,,,,,,,,,,,,,,,,,,,,,,,,,,,,,,,,,,,,,,,,,,,,,,,,,,,,,,,,,2,0,2,0,1,,,,,,,,,,,,,
,,,,,,,,,,60c8f96ddb749ea0361c1ae8,19,Mężczyzna,2022-06-04_08h13.35.288,task,2021.1.4,Win32,60.0060006,628b806c463b948bc644b84f,629af7fb2c22a39f62674c69,,,,,,,,,,,,,,,,,,,,,,,,,,,,,,,,,,,,,,,,,,,,,,,,,,,,,,,,,,,,,,,,,,,,,,,,,,,,,,,,,,,,,,,,,,,zdk,"[""z"",""d"",""k""]",0,"[1.4495999999941205,1.6331999999955542,1.9995000000000118,2.489599999994084]",0,LDK,1,0,1,0,1,,
,,,,,,,,,,60c8f96ddb749ea0361c1ae8,19,Mężczyzna,2022-06-04_08h13.35.288,task,2021.1.4,Win32,60.0060006,628b806c463b948bc644b84f,629af7fb2c22a39f62674c69,,,,,,,,,,,,,,,,,,,,,,,9,,,,,,,,,,Task,16,(3x8) - 15,9,,,,,,,,,,,,,,,,,,,1,,,,,,,,,,,,,,,,,,,,,,,"[""9""]",1,[15.891699999995467],0,0,0,15,1,,,,,,,,,,,,,,,,,,
,,,,,,,,,,60c8f96ddb749ea0361c1ae8,19,Mężczyzna,2022-06-04_08h13.35.288,task,2021.1.4,Win32,60.0060006,628b806c463b948bc644b84f,629af7fb2c22a39f62674c69,,,,,,,,,,X V Q F H G B L J M P D K C T S W R N Z,,,,,,,,,,,,,,,,,,,,,,,,,,,,,,,,,,,,,,,,,,,,,,,,,,,,,,,,,,,,,,,,,,,,,,,,,,,,0,0,0,0,1,,,,,,,,,,,,,
,,,,,,,,,,60c8f96ddb749ea0361c1ae8,19,Mężczyzna,2022-06-04_08h13.35.288,task,2021.1.4,Win32,60.0060006,628b806c463b948bc644b84f,629af7fb2c22a39f62674c69,,,,,,,,,,,,,,,,,,,,,,,3,,,,,,,,,,Task,35,(1x2) + 1,3,,,,,,,,,,,,,,,,,,,1,,,,,,,,,,,,,,,,,,,,,,,"[""3""]",1,[2.2013000000043803],0,0,0,34,1,,,,,,,,,,,,,,,,,,
,,,,,,,,,,60c8f96ddb749ea0361c1ae8,19,Mężczyzna,2022-06-04_08h13.35.288,task,2021.1.4,Win32,60.0060006,628b806c463b948bc644b84f,629af7fb2c22a39f62674c69,,,,,,,,,,X V Q F H G B L J M P D K C T S W R N Z,,,,,,,,,,,,,,,,,,,,,,,,,,,,,,,,,,,,,,,,,,,,,,,,,,,,,,,,,,,,,,,,,,,,,,,,,,,,1,0,1,0,1,,,,,,,,,,,,,
,,,,,,,,,,60c8f96ddb749ea0361c1ae8,19,Mężczyzna,2022-06-04_08h13.35.288,task,2021.1.4,Win32,60.0060006,628b806c463b948bc644b84f,629af7fb2c22a39f62674c69,,,,,,,,,,,,,,,,,,,,,,,1,,,,,,,,,,Task,34,(9/3) - 2,1,,,,,,,,,,,,,,,,,,,1,,,,,,,,,,,,,,,,,,,,,,,"[""1""]",1,[5.164999999999964],0,0,0,33,1,,,,,,,,,,,,,,,,,,
,,,,,,,,,,60c8f96ddb749ea0361c1ae8,19,Mężczyzna,2022-06-04_08h13.35.288,task,2021.1.4,Win32,60.0060006,628b806c463b948bc644b84f,629af7fb2c22a39f62674c69,,,,,,,,,,X V Q F H G B L J M P D K C T S W R N Z,,,,,,,,,,,,,,,,,,,,,,,,,,,,,,,,,,,,,,,,,,,,,,,,,,,,,,,,,,,,,,,,,,,,,,,,,,,,2,0,2,0,1,,,,,,,,,,,,,
,,,,,,,,,,60c8f96ddb749ea0361c1ae8,19,Mężczyzna,2022-06-04_08h13.35.288,task,2021.1.4,Win32,60.0060006,628b806c463b948bc644b84f,629af7fb2c22a39f62674c69,,,,,,,,,,,,,,,,,,,,,,,,,,,,,,,,,,,,,,,,,,,,,,,,,,,,,,,,,,,,,,,,,,,,,,,,,,,,,,,,,,,,,,,,,,,zkd,"[""z"",""k"",""d""]",0,"[7.96550000000002,8.264499999999998,8.497499999999945,8.957299999996962]",0,ZLH,2,0,2,0,1,,
,,,,,,,,,,60c8f96ddb749ea0361c1ae8,19,Mężczyzna,2022-06-04_08h13.35.288,task,2021.1.4,Win32,60.0060006,628b806c463b948bc644b84f,629af7fb2c22a39f62674c69,,,,,,,,,,,,,,,,,,,,,,,,,,,,,,,,,,,,,,,,,,,,,,,,,,,,,,,,,,,,,,,,,,,,,,,,,,,,,,,,,,,,,,,,,,,,,,,,,,,,,,space,1.8823
