key_resp_15.keys,key_resp_15.rt,key_resp_16.keys,key_resp_16.rt,key_resp_4.keys,key_resp_4.rt,next_letter.thisRepN,next_letter.thisTrialN,next_letter.thisN,next_letter.thisIndex,next_letter.ran,letter,participant,Wiek*,Płeć,date,expName,psychopyVersion,OS,frameRate,study_id,session,simple_recall,key_resp_5.keys,key_resp_5.rt,simple_recall_corr,simple_recall_corrkeys,next_level.thisRepN,next_level.thisTrialN,next_level.thisN,next_level.thisIndex,next_level.ran,key_resp_2.keys,key_resp_2.rt,digit_answer,key_resp.keys,key_resp.corr,key_resp.rt,RT_list,next_equation.thisRepN,next_equation.thisTrialN,next_equation.thisN,next_equation.thisIndex,next_equation.ran,Task,Trial,Problem,Operation_answer,processing_score,sumRT,meanRT,sumdiff,sd,RT,key_resp_3.keys,key_resp_3.rt,repeat_practice.thisRepN,repeat_practice.thisTrialN,repeat_practice.thisN,repeat_practice.thisIndex,repeat_practice.ran,key_resp_6.keys,key_resp_6.rt,key_resp_11.keys,key_resp_11.corr,key_resp_11.rt,operation_correct,repeat_if_wrong_prac.thisRepN,repeat_if_wrong_prac.thisTrialN,repeat_if_wrong_prac.thisN,repeat_if_wrong_prac.thisIndex,repeat_if_wrong_prac.ran,span_size_prac.thisRepN,span_size_prac.thisTrialN,span_size_prac.thisN,span_size_prac.thisIndex,span_size_prac.ran,complex_recall_practice,key_resp_9.keys,key_resp_9.corr,key_resp_9.rt,complex_prac_corr,span_recall_prac.thisRepN,span_recall_prac.thisTrialN,span_recall_prac.thisN,span_recall_prac.thisIndex,span_recall_prac.ran,key_resp_10.keys,key_resp_10.rt,key_resp_7.keys,key_resp_7.corr,key_resp_7.rt,repeat_if_wrong.thisRepN,repeat_if_wrong.thisTrialN,repeat_if_wrong.thisN,repeat_if_wrong.thisIndex,repeat_if_wrong.ran,span_size.thisRepN,span_size.thisTrialN,span_size.thisN,span_size.thisIndex,span_size.ran,complex_recall,key_resp_8.keys,key_resp_8.corr,key_resp_8.rt,complex_recall_corr,complex_recall_corrkeys,span_recall.thisRepN,span_recall.thisTrialN,span_recall.thisN,span_recall.thisIndex,span_recall.ran,key_resp_13.keys,key_resp_13.corr,key_resp_13.rt,random_loop.thisRepN,random_loop.thisTrialN,random_loop.thisN,random_loop.thisIndex,random_loop.ran,key_resp_12.keys,key_resp_12.rt
space,125.736,space,12.8759,space,6.4155,0,0,0,0,1,X V Q F H G B L J M P D K C T S W R N Z,60cb82b9065703e89e7211a0,19,Mężczyzna,2022-06-11_09h40.05.766,task,2021.1.4,Win32,74.97375918,6299f149e92ead563fba08ef,62a441d5f8ca17fcfab2d5b1,,,,,,,,,,,,,,,,,,,,,,,,,,,,,,,,,,,,,,,,,,,,,,,,,,,,,,,,,,,,,,,,,,,,,,,,,,,,,,,,,,,,,,,,,,,,,,,,,,,,,
,,,,,,1,0,1,0,1,X V Q F H G B L J M P D K C T S W R N Z,60cb82b9065703e89e7211a0,19,Mężczyzna,2022-06-11_09h40.05.766,task,2021.1.4,Win32,74.97375918,6299f149e92ead563fba08ef,62a441d5f8ca17fcfab2d5b1,,,,,,,,,,,,,,,,,,,,,,,,,,,,,,,,,,,,,,,,,,,,,,,,,,,,,,,,,,,,,,,,,,,,,,,,,,,,,,,,,,,,,,,,,,,,,,,,,,,,,
,,,,,,,,,,,,60cb82b9065703e89e7211a0,19,Mężczyzna,2022-06-11_09h40.05.766,task,2021.1.4,Win32,74.97375918,6299f149e92ead563fba08ef,62a441d5f8ca17fcfab2d5b1,zk,"[""z"",""k""]","[2.3172000000179196,2.768700000017816,3.6432000000179414]",1,ZK,0,0,0,0,1,,,,,,,,,,,,,,,,,,,,,,,,,,,,,,,,,,,,,,,,,,,,,,,,,,,,,,,,,,,,,,,,,,,,,,,,,,,,,,,,,,,,,,,,,,,
,,,,,,0,0,0,0,1,X V Q F H G B L J M P D K C T S W R N Z,60cb82b9065703e89e7211a0,19,Mężczyzna,2022-06-11_09h40.05.766,task,2021.1.4,Win32,74.97375918,6299f149e92ead563fba08ef,62a441d5f8ca17fcfab2d5b1,,,,,,,,,,,,,,,,,,,,,,,,,,,,,,,,,,,,,,,,,,,,,,,,,,,,,,,,,,,,,,,,,,,,,,,,,,,,,,,,,,,,,,,,,,,,,,,,,,,,,
,,,,,,1,0,1,0,1,X V Q F H G B L J M P D K C T S W R N Z,60cb82b9065703e89e7211a0,19,Mężczyzna,2022-06-11_09h40.05.766,task,2021.1.4,Win32,74.97375918,6299f149e92ead563fba08ef,62a441d5f8ca17fcfab2d5b1,,,,,,,,,,,,,,,,,,,,,,,,,,,,,,,,,,,,,,,,,,,,,,,,,,,,,,,,,,,,,,,,,,,,,,,,,,,,,,,,,,,,,,,,,,,,,,,,,,,,,
,,,,,,,,,,,,60cb82b9065703e89e7211a0,19,Mężczyzna,2022-06-11_09h40.05.766,task,2021.1.4,Win32,74.97375918,6299f149e92ead563fba08ef,62a441d5f8ca17fcfab2d5b1,mn,"[""m"",""n""]","[11.303499999999985,11.354499999999916,11.848800000011806]",1,MN,1,0,1,0,1,,,,,,,,,,,,,,,,,,,,,,,,,,,,,,,,,,,,,,,,,,,,,,,,,,,,,,,,,,,,,,,,,,,,,,,,,,,,,,,,,,,,,,,,,,,
,,,,,,0,0,0,0,1,X V Q F H G B L J M P D K C T S W R N Z,60cb82b9065703e89e7211a0,19,Mężczyzna,2022-06-11_09h40.05.766,task,2021.1.4,Win32,74.97375918,6299f149e92ead563fba08ef,62a441d5f8ca17fcfab2d5b1,,,,,,,,,,,,,,,,,,,,,,,,,,,,,,,,,,,,,,,,,,,,,,,,,,,,,,,,,,,,,,,,,,,,,,,,,,,,,,,,,,,,,,,,,,,,,,,,,,,,,
,,,,,,1,0,1,0,1,X V Q F H G B L J M P D K C T S W R N Z,60cb82b9065703e89e7211a0,19,Mężczyzna,2022-06-11_09h40.05.766,task,2021.1.4,Win32,74.97375918,6299f149e92ead563fba08ef,62a441d5f8ca17fcfab2d5b1,,,,,,,,,,,,,,,,,,,,,,,,,,,,,,,,,,,,,,,,,,,,,,,,,,,,,,,,,,,,,,,,,,,,,,,,,,,,,,,,,,,,,,,,,,,,,,,,,,,,,
,,,,,,2,0,2,0,1,X V Q F H G B L J M P D K C T S W R N Z,60cb82b9065703e89e7211a0,19,Mężczyzna,2022-06-11_09h40.05.766,task,2021.1.4,Win32,74.97375918,6299f149e92ead563fba08ef,62a441d5f8ca17fcfab2d5b1,,,,,,,,,,,,,,,,,,,,,,,,,,,,,,,,,,,,,,,,,,,,,,,,,,,,,,,,,,,,,,,,,,,,,,,,,,,,,,,,,,,,,,,,,,,,,,,,,,,,,
,,,,,,,,,,,,60cb82b9065703e89e7211a0,19,Mężczyzna,2022-06-11_09h40.05.766,task,2021.1.4,Win32,74.97375918,6299f149e92ead563fba08ef,62a441d5f8ca17fcfab2d5b1,wpx,"[""w"",""p"",""x""]","[0.5136999999881482,1.581799999982195,4.356000000000222,5.1676999999881446]",1,WPX,2,0,2,0,1,,,,,,,,,,,,,,,,,,,,,,,,,,,,,,,,,,,,,,,,,,,,,,,,,,,,,,,,,,,,,,,,,,,,,,,,,,,,,,,,,,,,,,,,,,,
,,,,,,0,0,0,0,1,X V Q F H G B L J M P D K C T S W R N Z,60cb82b9065703e89e7211a0,19,Mężczyzna,2022-06-11_09h40.05.766,task,2021.1.4,Win32,74.97375918,6299f149e92ead563fba08ef,62a441d5f8ca17fcfab2d5b1,,,,,,,,,,,,,,,,,,,,,,,,,,,,,,,,,,,,,,,,,,,,,,,,,,,,,,,,,,,,,,,,,,,,,,,,,,,,,,,,,,,,,,,,,,,,,,,,,,,,,
,,,,,,1,0,1,0,1,X V Q F H G B L J M P D K C T S W R N Z,60cb82b9065703e89e7211a0,19,Mężczyzna,2022-06-11_09h40.05.766,task,2021.1.4,Win32,74.97375918,6299f149e92ead563fba08ef,62a441d5f8ca17fcfab2d5b1,,,,,,,,,,,,,,,,,,,,,,,,,,,,,,,,,,,,,,,,,,,,,,,,,,,,,,,,,,,,,,,,,,,,,,,,,,,,,,,,,,,,,,,,,,,,,,,,,,,,,
,,,,,,2,0,2,0,1,X V Q F H G B L J M P D K C T S W R N Z,60cb82b9065703e89e7211a0,19,Mężczyzna,2022-06-11_09h40.05.766,task,2021.1.4,Win32,74.97375918,6299f149e92ead563fba08ef,62a441d5f8ca17fcfab2d5b1,,,,,,,,,,,,,,,,,,,,,,,,,,,,,,,,,,,,,,,,,,,,,,,,,,,,,,,,,,,,,,,,,,,,,,,,,,,,,,,,,,,,,,,,,,,,,,,,,,,,,
,,,,,,,,,,,,60cb82b9065703e89e7211a0,19,Mężczyzna,2022-06-11_09h40.05.766,task,2021.1.4,Win32,74.97375918,6299f149e92ead563fba08ef,62a441d5f8ca17fcfab2d5b1,zsf,"[""z"",""s"",""f""]","[0.5242999999820768,0.630899999976009,1.2995999999939158,2.4183999999761454]",1,ZSF,3,0,3,0,1,,,,,,,,,,,,,,,,,,,,,,,,,,,,,,,,,,,,,,,,,,,,,,,,,,,,,,,,,,,,,,,,,,,,,,,,,,,,,,,,,,,,,,,,,,,
,,,,,,0,0,0,0,1,X V Q F H G B L J M P D K C T S W R N Z,60cb82b9065703e89e7211a0,19,Mężczyzna,2022-06-11_09h40.05.766,task,2021.1.4,Win32,74.97375918,6299f149e92ead563fba08ef,62a441d5f8ca17fcfab2d5b1,,,,,,,,,,,,,,,,,,,,,,,,,,,,,,,,,,,,,,,,,,,,,,,,,,,,,,,,,,,,,,,,,,,,,,,,,,,,,,,,,,,,,,,,,,,,,,,,,,,,,
,,,,,,1,0,1,0,1,X V Q F H G B L J M P D K C T S W R N Z,60cb82b9065703e89e7211a0,19,Mężczyzna,2022-06-11_09h40.05.766,task,2021.1.4,Win32,74.97375918,6299f149e92ead563fba08ef,62a441d5f8ca17fcfab2d5b1,,,,,,,,,,,,,,,,,,,,,,,,,,,,,,,,,,,,,,,,,,,,,,,,,,,,,,,,,,,,,,,,,,,,,,,,,,,,,,,,,,,,,,,,,,,,,,,,,,,,,
,,,,,,2,0,2,0,1,X V Q F H G B L J M P D K C T S W R N Z,60cb82b9065703e89e7211a0,19,Mężczyzna,2022-06-11_09h40.05.766,task,2021.1.4,Win32,74.97375918,6299f149e92ead563fba08ef,62a441d5f8ca17fcfab2d5b1,,,,,,,,,,,,,,,,,,,,,,,,,,,,,,,,,,,,,,,,,,,,,,,,,,,,,,,,,,,,,,,,,,,,,,,,,,,,,,,,,,,,,,,,,,,,,,,,,,,,,
,,,,,,3,0,3,0,1,X V Q F H G B L J M P D K C T S W R N Z,60cb82b9065703e89e7211a0,19,Mężczyzna,2022-06-11_09h40.05.766,task,2021.1.4,Win32,74.97375918,6299f149e92ead563fba08ef,62a441d5f8ca17fcfab2d5b1,,,,,,,,,,,,,,,,,,,,,,,,,,,,,,,,,,,,,,,,,,,,,,,,,,,,,,,,,,,,,,,,,,,,,,,,,,,,,,,,,,,,,,,,,,,,,,,,,,,,,
,,,,,,,,,,,,60cb82b9065703e89e7211a0,19,Mężczyzna,2022-06-11_09h40.05.766,task,2021.1.4,Win32,74.97375918,6299f149e92ead563fba08ef,62a441d5f8ca17fcfab2d5b1,qqcm,"[""q"",""q"",""c"",""m""]","[0.5202000000178941,0.6839999999999691,0.9004999999999654,1.6054000000058295,2.0570999999940796]",1,QQCM,4,0,4,0,1,,,,,,,,,,,,,,,,,,,,,,,,,,,,,,,,,,,,,,,,,,,,,,,,,,,,,,,,,,,,,,,,,,,,,,,,,,,,,,,,,,,,,,,,,,,
,,,,,,0,0,0,0,1,X V Q F H G B L J M P D K C T S W R N Z,60cb82b9065703e89e7211a0,19,Mężczyzna,2022-06-11_09h40.05.766,task,2021.1.4,Win32,74.97375918,6299f149e92ead563fba08ef,62a441d5f8ca17fcfab2d5b1,,,,,,,,,,,,,,,,,,,,,,,,,,,,,,,,,,,,,,,,,,,,,,,,,,,,,,,,,,,,,,,,,,,,,,,,,,,,,,,,,,,,,,,,,,,,,,,,,,,,,
,,,,,,1,0,1,0,1,X V Q F H G B L J M P D K C T S W R N Z,60cb82b9065703e89e7211a0,19,Mężczyzna,2022-06-11_09h40.05.766,task,2021.1.4,Win32,74.97375918,6299f149e92ead563fba08ef,62a441d5f8ca17fcfab2d5b1,,,,,,,,,,,,,,,,,,,,,,,,,,,,,,,,,,,,,,,,,,,,,,,,,,,,,,,,,,,,,,,,,,,,,,,,,,,,,,,,,,,,,,,,,,,,,,,,,,,,,
,,,,,,2,0,2,0,1,X V Q F H G B L J M P D K C T S W R N Z,60cb82b9065703e89e7211a0,19,Mężczyzna,2022-06-11_09h40.05.766,task,2021.1.4,Win32,74.97375918,6299f149e92ead563fba08ef,62a441d5f8ca17fcfab2d5b1,,,,,,,,,,,,,,,,,,,,,,,,,,,,,,,,,,,,,,,,,,,,,,,,,,,,,,,,,,,,,,,,,,,,,,,,,,,,,,,,,,,,,,,,,,,,,,,,,,,,,
,,,,,,3,0,3,0,1,X V Q F H G B L J M P D K C T S W R N Z,60cb82b9065703e89e7211a0,19,Mężczyzna,2022-06-11_09h40.05.766,task,2021.1.4,Win32,74.97375918,6299f149e92ead563fba08ef,62a441d5f8ca17fcfab2d5b1,,,,,,,,,,,,,,,,,,,,,,,,,,,,,,,,,,,,,,,,,,,,,,,,,,,,,,,,,,,,,,,,,,,,,,,,,,,,,,,,,,,,,,,,,,,,,,,,,,,,,
,,,,,,,,,,,,60cb82b9065703e89e7211a0,19,Mężczyzna,2022-06-11_09h40.05.766,task,2021.1.4,Win32,74.97375918,6299f149e92ead563fba08ef,62a441d5f8ca17fcfab2d5b1,pstc,"[""p"",""s"",""t"",""c""]","[1.044599999994034,1.1296999999881336,1.2206999999882555,1.4599000000059732,1.698099999994156]",1,PSTC,5,0,5,0,1,,,,,,,,,,,,,,,,,,,,,,,,,,,,,,,,,,,,,,,,,,,,,,,,,,,,,,,,,,,,,,,,,,,,,,,,,,,,,,,,,,,,,,,,,,,
,,,,,,0,0,0,0,1,X V Q F H G B L J M P D K C T S W R N Z,60cb82b9065703e89e7211a0,19,Mężczyzna,2022-06-11_09h40.05.766,task,2021.1.4,Win32,74.97375918,6299f149e92ead563fba08ef,62a441d5f8ca17fcfab2d5b1,,,,,,,,,,,,,,,,,,,,,,,,,,,,,,,,,,,,,,,,,,,,,,,,,,,,,,,,,,,,,,,,,,,,,,,,,,,,,,,,,,,,,,,,,,,,,,,,,,,,,
,,,,,,1,0,1,0,1,X V Q F H G B L J M P D K C T S W R N Z,60cb82b9065703e89e7211a0,19,Mężczyzna,2022-06-11_09h40.05.766,task,2021.1.4,Win32,74.97375918,6299f149e92ead563fba08ef,62a441d5f8ca17fcfab2d5b1,,,,,,,,,,,,,,,,,,,,,,,,,,,,,,,,,,,,,,,,,,,,,,,,,,,,,,,,,,,,,,,,,,,,,,,,,,,,,,,,,,,,,,,,,,,,,,,,,,,,,
,,,,,,2,0,2,0,1,X V Q F H G B L J M P D K C T S W R N Z,60cb82b9065703e89e7211a0,19,Mężczyzna,2022-06-11_09h40.05.766,task,2021.1.4,Win32,74.97375918,6299f149e92ead563fba08ef,62a441d5f8ca17fcfab2d5b1,,,,,,,,,,,,,,,,,,,,,,,,,,,,,,,,,,,,,,,,,,,,,,,,,,,,,,,,,,,,,,,,,,,,,,,,,,,,,,,,,,,,,,,,,,,,,,,,,,,,,
,,,,,,3,0,3,0,1,X V Q F H G B L J M P D K C T S W R N Z,60cb82b9065703e89e7211a0,19,Mężczyzna,2022-06-11_09h40.05.766,task,2021.1.4,Win32,74.97375918,6299f149e92ead563fba08ef,62a441d5f8ca17fcfab2d5b1,,,,,,,,,,,,,,,,,,,,,,,,,,,,,,,,,,,,,,,,,,,,,,,,,,,,,,,,,,,,,,,,,,,,,,,,,,,,,,,,,,,,,,,,,,,,,,,,,,,,,
,,,,,,4,0,4,0,1,X V Q F H G B L J M P D K C T S W R N Z,60cb82b9065703e89e7211a0,19,Mężczyzna,2022-06-11_09h40.05.766,task,2021.1.4,Win32,74.97375918,6299f149e92ead563fba08ef,62a441d5f8ca17fcfab2d5b1,,,,,,,,,,,,,,,,,,,,,,,,,,,,,,,,,,,,,,,,,,,,,,,,,,,,,,,,,,,,,,,,,,,,,,,,,,,,,,,,,,,,,,,,,,,,,,,,,,,,,
,,,,,,,,,,,,60cb82b9065703e89e7211a0,19,Mężczyzna,2022-06-11_09h40.05.766,task,2021.1.4,Win32,74.97375918,6299f149e92ead563fba08ef,62a441d5f8ca17fcfab2d5b1,wpccm,"[""w"",""p"",""c"",""c"",""m""]","[0.8490999999939959,1.2121999999881155,1.58319999998821,1.7005999999942105,2.6990999999941323,3.3144999999999527]",1,WPCCM,6,0,6,0,1,,,,,,,,,,,,,,,,,,,,,,,,,,,,,,,,,,,,,,,,,,,,,,,,,,,,,,,,,,,,,,,,,,,,,,,,,,,,,,,,,,,,,,,,,,,
,,,,,,0,0,0,0,1,X V Q F H G B L J M P D K C T S W R N Z,60cb82b9065703e89e7211a0,19,Mężczyzna,2022-06-11_09h40.05.766,task,2021.1.4,Win32,74.97375918,6299f149e92ead563fba08ef,62a441d5f8ca17fcfab2d5b1,,,,,,,,,,,,,,,,,,,,,,,,,,,,,,,,,,,,,,,,,,,,,,,,,,,,,,,,,,,,,,,,,,,,,,,,,,,,,,,,,,,,,,,,,,,,,,,,,,,,,
,,,,,,1,0,1,0,1,X V Q F H G B L J M P D K C T S W R N Z,60cb82b9065703e89e7211a0,19,Mężczyzna,2022-06-11_09h40.05.766,task,2021.1.4,Win32,74.97375918,6299f149e92ead563fba08ef,62a441d5f8ca17fcfab2d5b1,,,,,,,,,,,,,,,,,,,,,,,,,,,,,,,,,,,,,,,,,,,,,,,,,,,,,,,,,,,,,,,,,,,,,,,,,,,,,,,,,,,,,,,,,,,,,,,,,,,,,
,,,,,,2,0,2,0,1,X V Q F H G B L J M P D K C T S W R N Z,60cb82b9065703e89e7211a0,19,Mężczyzna,2022-06-11_09h40.05.766,task,2021.1.4,Win32,74.97375918,6299f149e92ead563fba08ef,62a441d5f8ca17fcfab2d5b1,,,,,,,,,,,,,,,,,,,,,,,,,,,,,,,,,,,,,,,,,,,,,,,,,,,,,,,,,,,,,,,,,,,,,,,,,,,,,,,,,,,,,,,,,,,,,,,,,,,,,
,,,,,,3,0,3,0,1,X V Q F H G B L J M P D K C T S W R N Z,60cb82b9065703e89e7211a0,19,Mężczyzna,2022-06-11_09h40.05.766,task,2021.1.4,Win32,74.97375918,6299f149e92ead563fba08ef,62a441d5f8ca17fcfab2d5b1,,,,,,,,,,,,,,,,,,,,,,,,,,,,,,,,,,,,,,,,,,,,,,,,,,,,,,,,,,,,,,,,,,,,,,,,,,,,,,,,,,,,,,,,,,,,,,,,,,,,,
,,,,,,4,0,4,0,1,X V Q F H G B L J M P D K C T S W R N Z,60cb82b9065703e89e7211a0,19,Mężczyzna,2022-06-11_09h40.05.766,task,2021.1.4,Win32,74.97375918,6299f149e92ead563fba08ef,62a441d5f8ca17fcfab2d5b1,,,,,,,,,,,,,,,,,,,,,,,,,,,,,,,,,,,,,,,,,,,,,,,,,,,,,,,,,,,,,,,,,,,,,,,,,,,,,,,,,,,,,,,,,,,,,,,,,,,,,
,,,,,,,,,,,,60cb82b9065703e89e7211a0,19,Mężczyzna,2022-06-11_09h40.05.766,task,2021.1.4,Win32,74.97375918,6299f149e92ead563fba08ef,62a441d5f8ca17fcfab2d5b1,nbfdk,"[""n"",""b"",""f"",""d"",""k""]","[1.0092000000179269,1.3788000000120064,2.153900000005933,2.430200000017976,2.877700000017967,3.9451000000237855]",1,NBFDK,7,0,7,0,1,,,,,,,,,,,,,,,,,,,,,,,,,,,,,,,,,,,,,,,,,,,,,,,,,,,,,,,,,,,,,,,,,,,,,,,,,,,,,,,,,,,,,,,,,,,
,,,,,,0,0,0,0,1,X V Q F H G B L J M P D K C T S W R N Z,60cb82b9065703e89e7211a0,19,Mężczyzna,2022-06-11_09h40.05.766,task,2021.1.4,Win32,74.97375918,6299f149e92ead563fba08ef,62a441d5f8ca17fcfab2d5b1,,,,,,,,,,,,,,,,,,,,,,,,,,,,,,,,,,,,,,,,,,,,,,,,,,,,,,,,,,,,,,,,,,,,,,,,,,,,,,,,,,,,,,,,,,,,,,,,,,,,,
,,,,,,1,0,1,0,1,X V Q F H G B L J M P D K C T S W R N Z,60cb82b9065703e89e7211a0,19,Mężczyzna,2022-06-11_09h40.05.766,task,2021.1.4,Win32,74.97375918,6299f149e92ead563fba08ef,62a441d5f8ca17fcfab2d5b1,,,,,,,,,,,,,,,,,,,,,,,,,,,,,,,,,,,,,,,,,,,,,,,,,,,,,,,,,,,,,,,,,,,,,,,,,,,,,,,,,,,,,,,,,,,,,,,,,,,,,
,,,,,,2,0,2,0,1,X V Q F H G B L J M P D K C T S W R N Z,60cb82b9065703e89e7211a0,19,Mężczyzna,2022-06-11_09h40.05.766,task,2021.1.4,Win32,74.97375918,6299f149e92ead563fba08ef,62a441d5f8ca17fcfab2d5b1,,,,,,,,,,,,,,,,,,,,,,,,,,,,,,,,,,,,,,,,,,,,,,,,,,,,,,,,,,,,,,,,,,,,,,,,,,,,,,,,,,,,,,,,,,,,,,,,,,,,,
,,,,,,3,0,3,0,1,X V Q F H G B L J M P D K C T S W R N Z,60cb82b9065703e89e7211a0,19,Mężczyzna,2022-06-11_09h40.05.766,task,2021.1.4,Win32,74.97375918,6299f149e92ead563fba08ef,62a441d5f8ca17fcfab2d5b1,,,,,,,,,,,,,,,,,,,,,,,,,,,,,,,,,,,,,,,,,,,,,,,,,,,,,,,,,,,,,,,,,,,,,,,,,,,,,,,,,,,,,,,,,,,,,,,,,,,,,
,,,,,,4,0,4,0,1,X V Q F H G B L J M P D K C T S W R N Z,60cb82b9065703e89e7211a0,19,Mężczyzna,2022-06-11_09h40.05.766,task,2021.1.4,Win32,74.97375918,6299f149e92ead563fba08ef,62a441d5f8ca17fcfab2d5b1,,,,,,,,,,,,,,,,,,,,,,,,,,,,,,,,,,,,,,,,,,,,,,,,,,,,,,,,,,,,,,,,,,,,,,,,,,,,,,,,,,,,,,,,,,,,,,,,,,,,,
,,,,,,5,0,5,0,1,X V Q F H G B L J M P D K C T S W R N Z,60cb82b9065703e89e7211a0,19,Mężczyzna,2022-06-11_09h40.05.766,task,2021.1.4,Win32,74.97375918,6299f149e92ead563fba08ef,62a441d5f8ca17fcfab2d5b1,,,,,,,,,,,,,,,,,,,,,,,,,,,,,,,,,,,,,,,,,,,,,,,,,,,,,,,,,,,,,,,,,,,,,,,,,,,,,,,,,,,,,,,,,,,,,,,,,,,,,
,,,,,,,,,,,,60cb82b9065703e89e7211a0,19,Mężczyzna,2022-06-11_09h40.05.766,task,2021.1.4,Win32,74.97375918,6299f149e92ead563fba08ef,62a441d5f8ca17fcfab2d5b1,gglrcx,"[""g"",""g"",""l"",""r"",""c"",""x""]","[1.7503000000117481,1.8574999999998454,2.0041999999880318,2.338300000011941,2.7914000000059787,3.044499999999971,3.6333000000117863]",1,GGLRCX,8,0,8,0,1,,,,,,,,,,,,,,,,,,,,,,,,,,,,,,,,,,,,,,,,,,,,,,,,,,,,,,,,,,,,,,,,,,,,,,,,,,,,,,,,,,,,,,,,,,,
,,,,,,0,0,0,0,1,X V Q F H G B L J M P D K C T S W R N Z,60cb82b9065703e89e7211a0,19,Mężczyzna,2022-06-11_09h40.05.766,task,2021.1.4,Win32,74.97375918,6299f149e92ead563fba08ef,62a441d5f8ca17fcfab2d5b1,,,,,,,,,,,,,,,,,,,,,,,,,,,,,,,,,,,,,,,,,,,,,,,,,,,,,,,,,,,,,,,,,,,,,,,,,,,,,,,,,,,,,,,,,,,,,,,,,,,,,
,,,,,,1,0,1,0,1,X V Q F H G B L J M P D K C T S W R N Z,60cb82b9065703e89e7211a0,19,Mężczyzna,2022-06-11_09h40.05.766,task,2021.1.4,Win32,74.97375918,6299f149e92ead563fba08ef,62a441d5f8ca17fcfab2d5b1,,,,,,,,,,,,,,,,,,,,,,,,,,,,,,,,,,,,,,,,,,,,,,,,,,,,,,,,,,,,,,,,,,,,,,,,,,,,,,,,,,,,,,,,,,,,,,,,,,,,,
,,,,,,2,0,2,0,1,X V Q F H G B L J M P D K C T S W R N Z,60cb82b9065703e89e7211a0,19,Mężczyzna,2022-06-11_09h40.05.766,task,2021.1.4,Win32,74.97375918,6299f149e92ead563fba08ef,62a441d5f8ca17fcfab2d5b1,,,,,,,,,,,,,,,,,,,,,,,,,,,,,,,,,,,,,,,,,,,,,,,,,,,,,,,,,,,,,,,,,,,,,,,,,,,,,,,,,,,,,,,,,,,,,,,,,,,,,
,,,,,,3,0,3,0,1,X V Q F H G B L J M P D K C T S W R N Z,60cb82b9065703e89e7211a0,19,Mężczyzna,2022-06-11_09h40.05.766,task,2021.1.4,Win32,74.97375918,6299f149e92ead563fba08ef,62a441d5f8ca17fcfab2d5b1,,,,,,,,,,,,,,,,,,,,,,,,,,,,,,,,,,,,,,,,,,,,,,,,,,,,,,,,,,,,,,,,,,,,,,,,,,,,,,,,,,,,,,,,,,,,,,,,,,,,,
,,,,,,4,0,4,0,1,X V Q F H G B L J M P D K C T S W R N Z,60cb82b9065703e89e7211a0,19,Mężczyzna,2022-06-11_09h40.05.766,task,2021.1.4,Win32,74.97375918,6299f149e92ead563fba08ef,62a441d5f8ca17fcfab2d5b1,,,,,,,,,,,,,,,,,,,,,,,,,,,,,,,,,,,,,,,,,,,,,,,,,,,,,,,,,,,,,,,,,,,,,,,,,,,,,,,,,,,,,,,,,,,,,,,,,,,,,
,,,,,,5,0,5,0,1,X V Q F H G B L J M P D K C T S W R N Z,60cb82b9065703e89e7211a0,19,Mężczyzna,2022-06-11_09h40.05.766,task,2021.1.4,Win32,74.97375918,6299f149e92ead563fba08ef,62a441d5f8ca17fcfab2d5b1,,,,,,,,,,,,,,,,,,,,,,,,,,,,,,,,,,,,,,,,,,,,,,,,,,,,,,,,,,,,,,,,,,,,,,,,,,,,,,,,,,,,,,,,,,,,,,,,,,,,,
,,,,,,,,,,,,60cb82b9065703e89e7211a0,19,Mężczyzna,2022-06-11_09h40.05.766,task,2021.1.4,Win32,74.97375918,6299f149e92ead563fba08ef,62a441d5f8ca17fcfab2d5b1,lqhwwx,"[""l"",""q"",""h"",""w"",""w"",""x""]","[0.7518000000118263,0.8232000000177777,2.3113000000118973,2.55030000001193,2.6744000000057895,2.9774000000059004,3.3668000000118354]",1,LQHWWX,9,0,9,0,1,,,,,,,,,,,,,,,,,,,,,,,,,,,,,,,,,,,,,,,,,,,,,,,,,,,,,,,,,,,,,,,,,,,,,,,,,,,,,,,,,,,,,,,,,,,
,,,,,,0,0,0,0,1,X V Q F H G B L J M P D K C T S W R N Z,60cb82b9065703e89e7211a0,19,Mężczyzna,2022-06-11_09h40.05.766,task,2021.1.4,Win32,74.97375918,6299f149e92ead563fba08ef,62a441d5f8ca17fcfab2d5b1,,,,,,,,,,,,,,,,,,,,,,,,,,,,,,,,,,,,,,,,,,,,,,,,,,,,,,,,,,,,,,,,,,,,,,,,,,,,,,,,,,,,,,,,,,,,,,,,,,,,,
,,,,,,1,0,1,0,1,X V Q F H G B L J M P D K C T S W R N Z,60cb82b9065703e89e7211a0,19,Mężczyzna,2022-06-11_09h40.05.766,task,2021.1.4,Win32,74.97375918,6299f149e92ead563fba08ef,62a441d5f8ca17fcfab2d5b1,,,,,,,,,,,,,,,,,,,,,,,,,,,,,,,,,,,,,,,,,,,,,,,,,,,,,,,,,,,,,,,,,,,,,,,,,,,,,,,,,,,,,,,,,,,,,,,,,,,,,
,,,,,,2,0,2,0,1,X V Q F H G B L J M P D K C T S W R N Z,60cb82b9065703e89e7211a0,19,Mężczyzna,2022-06-11_09h40.05.766,task,2021.1.4,Win32,74.97375918,6299f149e92ead563fba08ef,62a441d5f8ca17fcfab2d5b1,,,,,,,,,,,,,,,,,,,,,,,,,,,,,,,,,,,,,,,,,,,,,,,,,,,,,,,,,,,,,,,,,,,,,,,,,,,,,,,,,,,,,,,,,,,,,,,,,,,,,
,,,,,,3,0,3,0,1,X V Q F H G B L J M P D K C T S W R N Z,60cb82b9065703e89e7211a0,19,Mężczyzna,2022-06-11_09h40.05.766,task,2021.1.4,Win32,74.97375918,6299f149e92ead563fba08ef,62a441d5f8ca17fcfab2d5b1,,,,,,,,,,,,,,,,,,,,,,,,,,,,,,,,,,,,,,,,,,,,,,,,,,,,,,,,,,,,,,,,,,,,,,,,,,,,,,,,,,,,,,,,,,,,,,,,,,,,,
,,,,,,4,0,4,0,1,X V Q F H G B L J M P D K C T S W R N Z,60cb82b9065703e89e7211a0,19,Mężczyzna,2022-06-11_09h40.05.766,task,2021.1.4,Win32,74.97375918,6299f149e92ead563fba08ef,62a441d5f8ca17fcfab2d5b1,,,,,,,,,,,,,,,,,,,,,,,,,,,,,,,,,,,,,,,,,,,,,,,,,,,,,,,,,,,,,,,,,,,,,,,,,,,,,,,,,,,,,,,,,,,,,,,,,,,,,
,,,,,,5,0,5,0,1,X V Q F H G B L J M P D K C T S W R N Z,60cb82b9065703e89e7211a0,19,Mężczyzna,2022-06-11_09h40.05.766,task,2021.1.4,Win32,74.97375918,6299f149e92ead563fba08ef,62a441d5f8ca17fcfab2d5b1,,,,,,,,,,,,,,,,,,,,,,,,,,,,,,,,,,,,,,,,,,,,,,,,,,,,,,,,,,,,,,,,,,,,,,,,,,,,,,,,,,,,,,,,,,,,,,,,,,,,,
,,,,,,6,0,6,0,1,X V Q F H G B L J M P D K C T S W R N Z,60cb82b9065703e89e7211a0,19,Mężczyzna,2022-06-11_09h40.05.766,task,2021.1.4,Win32,74.97375918,6299f149e92ead563fba08ef,62a441d5f8ca17fcfab2d5b1,,,,,,,,,,,,,,,,,,,,,,,,,,,,,,,,,,,,,,,,,,,,,,,,,,,,,,,,,,,,,,,,,,,,,,,,,,,,,,,,,,,,,,,,,,,,,,,,,,,,,
,,,,,,,,,,,,60cb82b9065703e89e7211a0,19,Mężczyzna,2022-06-11_09h40.05.766,task,2021.1.4,Win32,74.97375918,6299f149e92ead563fba08ef,62a441d5f8ca17fcfab2d5b1,zmjqjv,"[""z"",""m"",""j"",""q"",""j"",""v""]","[0.45120000001793414,1.0230999999942014,1.4184000000059314,1.9139999999999873,2.5030999999942196,2.94030000001203,3.9684000000061133]",0,ZMQJQMV,10,0,10,0,1,,,,,,,,,,,,,,,,,,,,,,,,,,,,,,,,,,,,,,,,,,,,,,,,,,,,,,,,,,,,,,,,,,,,,,,,,,,,,,,,,,,,,,,,,,,
,,,,,,0,0,0,0,1,X V Q F H G B L J M P D K C T S W R N Z,60cb82b9065703e89e7211a0,19,Mężczyzna,2022-06-11_09h40.05.766,task,2021.1.4,Win32,74.97375918,6299f149e92ead563fba08ef,62a441d5f8ca17fcfab2d5b1,,,,,,,,,,,,,,,,,,,,,,,,,,,,,,,,,,,,,,,,,,,,,,,,,,,,,,,,,,,,,,,,,,,,,,,,,,,,,,,,,,,,,,,,,,,,,,,,,,,,,
,,,,,,1,0,1,0,1,X V Q F H G B L J M P D K C T S W R N Z,60cb82b9065703e89e7211a0,19,Mężczyzna,2022-06-11_09h40.05.766,task,2021.1.4,Win32,74.97375918,6299f149e92ead563fba08ef,62a441d5f8ca17fcfab2d5b1,,,,,,,,,,,,,,,,,,,,,,,,,,,,,,,,,,,,,,,,,,,,,,,,,,,,,,,,,,,,,,,,,,,,,,,,,,,,,,,,,,,,,,,,,,,,,,,,,,,,,
,,,,,,2,0,2,0,1,X V Q F H G B L J M P D K C T S W R N Z,60cb82b9065703e89e7211a0,19,Mężczyzna,2022-06-11_09h40.05.766,task,2021.1.4,Win32,74.97375918,6299f149e92ead563fba08ef,62a441d5f8ca17fcfab2d5b1,,,,,,,,,,,,,,,,,,,,,,,,,,,,,,,,,,,,,,,,,,,,,,,,,,,,,,,,,,,,,,,,,,,,,,,,,,,,,,,,,,,,,,,,,,,,,,,,,,,,,
,,,,,,3,0,3,0,1,X V Q F H G B L J M P D K C T S W R N Z,60cb82b9065703e89e7211a0,19,Mężczyzna,2022-06-11_09h40.05.766,task,2021.1.4,Win32,74.97375918,6299f149e92ead563fba08ef,62a441d5f8ca17fcfab2d5b1,,,,,,,,,,,,,,,,,,,,,,,,,,,,,,,,,,,,,,,,,,,,,,,,,,,,,,,,,,,,,,,,,,,,,,,,,,,,,,,,,,,,,,,,,,,,,,,,,,,,,
,,,,,,4,0,4,0,1,X V Q F H G B L J M P D K C T S W R N Z,60cb82b9065703e89e7211a0,19,Mężczyzna,2022-06-11_09h40.05.766,task,2021.1.4,Win32,74.97375918,6299f149e92ead563fba08ef,62a441d5f8ca17fcfab2d5b1,,,,,,,,,,,,,,,,,,,,,,,,,,,,,,,,,,,,,,,,,,,,,,,,,,,,,,,,,,,,,,,,,,,,,,,,,,,,,,,,,,,,,,,,,,,,,,,,,,,,,
,,,,,,5,0,5,0,1,X V Q F H G B L J M P D K C T S W R N Z,60cb82b9065703e89e7211a0,19,Mężczyzna,2022-06-11_09h40.05.766,task,2021.1.4,Win32,74.97375918,6299f149e92ead563fba08ef,62a441d5f8ca17fcfab2d5b1,,,,,,,,,,,,,,,,,,,,,,,,,,,,,,,,,,,,,,,,,,,,,,,,,,,,,,,,,,,,,,,,,,,,,,,,,,,,,,,,,,,,,,,,,,,,,,,,,,,,,
,,,,,,6,0,6,0,1,X V Q F H G B L J M P D K C T S W R N Z,60cb82b9065703e89e7211a0,19,Mężczyzna,2022-06-11_09h40.05.766,task,2021.1.4,Win32,74.97375918,6299f149e92ead563fba08ef,62a441d5f8ca17fcfab2d5b1,,,,,,,,,,,,,,,,,,,,,,,,,,,,,,,,,,,,,,,,,,,,,,,,,,,,,,,,,,,,,,,,,,,,,,,,,,,,,,,,,,,,,,,,,,,,,,,,,,,,,
,,,,,,,,,,,,60cb82b9065703e89e7211a0,19,Mężczyzna,2022-06-11_09h40.05.766,task,2021.1.4,Win32,74.97375918,6299f149e92ead563fba08ef,62a441d5f8ca17fcfab2d5b1,bnknvc,"[""b"",""n"",""k"",""n"",""v"",""c""]","[1.2208000000118773,1.4197000000178832,1.7964999999999236,4.717900000006011,4.940800000011905,5.130499999999984,5.666800000012017]",0,BNKBCVC,11,0,11,0,1,,,,,,,,,,,,,,,,,,,,,,,,,,,,,,,,,,,,,,,,,,,,,,,,,,,,,,,,,,,,,,,,,,,,,,,,,,,,,,,,,,,,,,,,,,,
,,,,,,0,0,0,0,1,X V Q F H G B L J M P D K C T S W R N Z,60cb82b9065703e89e7211a0,19,Mężczyzna,2022-06-11_09h40.05.766,task,2021.1.4,Win32,74.97375918,6299f149e92ead563fba08ef,62a441d5f8ca17fcfab2d5b1,,,,,,,,,,,,,,,,,,,,,,,,,,,,,,,,,,,,,,,,,,,,,,,,,,,,,,,,,,,,,,,,,,,,,,,,,,,,,,,,,,,,,,,,,,,,,,,,,,,,,
,,,,,,1,0,1,0,1,X V Q F H G B L J M P D K C T S W R N Z,60cb82b9065703e89e7211a0,19,Mężczyzna,2022-06-11_09h40.05.766,task,2021.1.4,Win32,74.97375918,6299f149e92ead563fba08ef,62a441d5f8ca17fcfab2d5b1,,,,,,,,,,,,,,,,,,,,,,,,,,,,,,,,,,,,,,,,,,,,,,,,,,,,,,,,,,,,,,,,,,,,,,,,,,,,,,,,,,,,,,,,,,,,,,,,,,,,,
,,,,,,2,0,2,0,1,X V Q F H G B L J M P D K C T S W R N Z,60cb82b9065703e89e7211a0,19,Mężczyzna,2022-06-11_09h40.05.766,task,2021.1.4,Win32,74.97375918,6299f149e92ead563fba08ef,62a441d5f8ca17fcfab2d5b1,,,,,,,,,,,,,,,,,,,,,,,,,,,,,,,,,,,,,,,,,,,,,,,,,,,,,,,,,,,,,,,,,,,,,,,,,,,,,,,,,,,,,,,,,,,,,,,,,,,,,
,,,,,,3,0,3,0,1,X V Q F H G B L J M P D K C T S W R N Z,60cb82b9065703e89e7211a0,19,Mężczyzna,2022-06-11_09h40.05.766,task,2021.1.4,Win32,74.97375918,6299f149e92ead563fba08ef,62a441d5f8ca17fcfab2d5b1,,,,,,,,,,,,,,,,,,,,,,,,,,,,,,,,,,,,,,,,,,,,,,,,,,,,,,,,,,,,,,,,,,,,,,,,,,,,,,,,,,,,,,,,,,,,,,,,,,,,,
,,,,,,4,0,4,0,1,X V Q F H G B L J M P D K C T S W R N Z,60cb82b9065703e89e7211a0,19,Mężczyzna,2022-06-11_09h40.05.766,task,2021.1.4,Win32,74.97375918,6299f149e92ead563fba08ef,62a441d5f8ca17fcfab2d5b1,,,,,,,,,,,,,,,,,,,,,,,,,,,,,,,,,,,,,,,,,,,,,,,,,,,,,,,,,,,,,,,,,,,,,,,,,,,,,,,,,,,,,,,,,,,,,,,,,,,,,
,,,,,,5,0,5,0,1,X V Q F H G B L J M P D K C T S W R N Z,60cb82b9065703e89e7211a0,19,Mężczyzna,2022-06-11_09h40.05.766,task,2021.1.4,Win32,74.97375918,6299f149e92ead563fba08ef,62a441d5f8ca17fcfab2d5b1,,,,,,,,,,,,,,,,,,,,,,,,,,,,,,,,,,,,,,,,,,,,,,,,,,,,,,,,,,,,,,,,,,,,,,,,,,,,,,,,,,,,,,,,,,,,,,,,,,,,,
,,,,,,6,0,6,0,1,X V Q F H G B L J M P D K C T S W R N Z,60cb82b9065703e89e7211a0,19,Mężczyzna,2022-06-11_09h40.05.766,task,2021.1.4,Win32,74.97375918,6299f149e92ead563fba08ef,62a441d5f8ca17fcfab2d5b1,,,,,,,,,,,,,,,,,,,,,,,,,,,,,,,,,,,,,,,,,,,,,,,,,,,,,,,,,,,,,,,,,,,,,,,,,,,,,,,,,,,,,,,,,,,,,,,,,,,,,
,,,,,,,,,,,,60cb82b9065703e89e7211a0,19,Mężczyzna,2022-06-11_09h40.05.766,task,2021.1.4,Win32,74.97375918,6299f149e92ead563fba08ef,62a441d5f8ca17fcfab2d5b1,bn,"[""b"",""n""]","[1.3503000000118845,1.7424000000060005,3.996400000005906]",0,LMKLNDF,12,0,12,0,1,,,,,,,,,,,,,,,,,,,,,,,,,,,,,,,,,,,,,,,,,,,,,,,,,,,,,,,,,,,,,,,,,,,,,,,,,,,,,,,,,,,,,,,,,,,
,,,,,,,,,,,,60cb82b9065703e89e7211a0,19,Mężczyzna,2022-06-11_09h40.05.766,task,2021.1.4,Win32,74.97375918,6299f149e92ead563fba08ef,62a441d5f8ca17fcfab2d5b1,,,,,,,,,,,space,7.6609,0,"[""0""]",1,[7.034700000017892],[7.034700000017892],0,0,0,0,1,Practice,1,(3x3) -  9,0,,,,,,,,,,,,,,,,,,,,,,,,,,,,,,,,,,,,,,,,,,,,,,,,,,,,,,,,,,,,,,,,,,,,,,,,,,,
,,,,,,,,,,,,60cb82b9065703e89e7211a0,19,Mężczyzna,2022-06-11_09h40.05.766,task,2021.1.4,Win32,74.97375918,6299f149e92ead563fba08ef,62a441d5f8ca17fcfab2d5b1,,,,,,,,,,,,,8,"[""8""]",1,[3.353299999982255],"[7.034700000017892,3.353299999982255]",0,1,1,8,1,Practice,9,(3x3) - 1,8,,,,,,,,,,,,,,,,,,,,,,,,,,,,,,,,,,,,,,,,,,,,,,,,,,,,,,,,,,,,,,,,,,,,,,,,,,,
,,,,,,,,,,,,60cb82b9065703e89e7211a0,19,Mężczyzna,2022-06-11_09h40.05.766,task,2021.1.4,Win32,74.97375918,6299f149e92ead563fba08ef,62a441d5f8ca17fcfab2d5b1,,,,,,,,,,,,,3,"[""3""]",1,[3.8372999999821786],"[7.034700000017892,3.353299999982255,3.8372999999821786]",0,2,2,3,1,Practice,4,(8/4) + 1,3,,,,,,,,,,,,,,,,,,,,,,,,,,,,,,,,,,,,,,,,,,,,,,,,,,,,,,,,,,,,,,,,,,,,,,,,,,,
,,,,,,,,,,,,60cb82b9065703e89e7211a0,19,Mężczyzna,2022-06-11_09h40.05.766,task,2021.1.4,Win32,74.97375918,6299f149e92ead563fba08ef,62a441d5f8ca17fcfab2d5b1,,,,,,,,,,,,,9,"[""9""]",1,[3.7024999999998727],"[7.034700000017892,3.353299999982255,3.8372999999821786,3.7024999999998727]",0,3,3,9,1,Practice,10,(20/2) - 1,9,,,,,,,,,,,,,,,,,,,,,,,,,,,,,,,,,,,,,,,,,,,,,,,,,,,,,,,,,,,,,,,,,,,,,,,,,,,
,,,,,,,,,,,,60cb82b9065703e89e7211a0,19,Mężczyzna,2022-06-11_09h40.05.766,task,2021.1.4,Win32,74.97375918,6299f149e92ead563fba08ef,62a441d5f8ca17fcfab2d5b1,,,,,,,,,,,,,5,"[""5""]",1,[3.490800000011859],"[7.034700000017892,3.353299999982255,3.8372999999821786,3.7024999999998727,3.490800000011859]",0,4,4,5,1,Practice,6,(4/2) + 3,5,,,,,,,,,,,,,,,,,,,,,,,,,,,,,,,,,,,,,,,,,,,,,,,,,,,,,,,,,,,,,,,,,,,,,,,,,,,
,,,,,,,,,,,,60cb82b9065703e89e7211a0,19,Mężczyzna,2022-06-11_09h40.05.766,task,2021.1.4,Win32,74.97375918,6299f149e92ead563fba08ef,62a441d5f8ca17fcfab2d5b1,,,,,,,,,,,,,1,"[""1""]",1,[3.6340999999940777],"[7.034700000017892,3.353299999982255,3.8372999999821786,3.7024999999998727,3.490800000011859,3.6340999999940777]",0,5,5,1,1,Practice,2,(4x4) - 15,1,,,,,,,,,,,,,,,,,,,,,,,,,,,,,,,,,,,,,,,,,,,,,,,,,,,,,,,,,,,,,,,,,,,,,,,,,,,
,,,,,,,,,,,,60cb82b9065703e89e7211a0,19,Mężczyzna,2022-06-11_09h40.05.766,task,2021.1.4,Win32,74.97375918,6299f149e92ead563fba08ef,62a441d5f8ca17fcfab2d5b1,,,,,,,,,,,,,4,"[""4""]",1,[4.317799999982071],"[7.034700000017892,3.353299999982255,3.8372999999821786,3.7024999999998727,3.490800000011859,3.6340999999940777,4.317799999982071]",0,6,6,4,1,Practice,5,(2x6) - 8,4,,,,,,,,,,,,,,,,,,,,,,,,,,,,,,,,,,,,,,,,,,,,,,,,,,,,,,,,,,,,,,,,,,,,,,,,,,,
,,,,,,,,,,,,60cb82b9065703e89e7211a0,19,Mężczyzna,2022-06-11_09h40.05.766,task,2021.1.4,Win32,74.97375918,6299f149e92ead563fba08ef,62a441d5f8ca17fcfab2d5b1,,,,,,,,,,,,,2,"[""2""]",0,[2.252300000011928],"[7.034700000017892,3.353299999982255,3.8372999999821786,3.7024999999998727,3.490800000011859,3.6340999999940777,4.317799999982071,2.252300000011928]",0,7,7,7,1,Practice,8,(5x5) - 18,7,,,,,,,,,,,,,,,,,,,,,,,,,,,,,,,,,,,,,,,,,,,,,,,,,,,,,,,,,,,,,,,,,,,,,,,,,,,
,,,,,,,,,,,,60cb82b9065703e89e7211a0,19,Mężczyzna,2022-06-11_09h40.05.766,task,2021.1.4,Win32,74.97375918,6299f149e92ead563fba08ef,62a441d5f8ca17fcfab2d5b1,,,,,,,,,,,,,2,"[""2""]",1,[4.947599999994054],"[7.034700000017892,3.353299999982255,3.8372999999821786,3.7024999999998727,3.490800000011859,3.6340999999940777,4.317799999982071,2.252300000011928,4.947599999994054]",0,8,8,2,1,Practice,3,(4x4) - 14,2,,,,,,,,,,,,,,,,,,,,,,,,,,,,,,,,,,,,,,,,,,,,,,,,,,,,,,,,,,,,,,,,,,,,,,,,,,,
,,,,,,,,,,,,60cb82b9065703e89e7211a0,19,Mężczyzna,2022-06-11_09h40.05.766,task,2021.1.4,Win32,74.97375918,6299f149e92ead563fba08ef,62a441d5f8ca17fcfab2d5b1,,,,,,,,,,,,,6,"[""6""]",1,[4.807499999999891],"[7.034700000017892,3.353299999982255,3.8372999999821786,3.7024999999998727,3.490800000011859,3.6340999999940777,4.317799999982071,2.252300000011928,4.947599999994054,4.807499999999891]",0,9,9,6,1,Practice,7,(25/5) + 1,6,,,,,,,,,,,,,,,,,,,,,,,,,,,,,,,,,,,,,,,,,,,,,,,,,,,,,,,,,,,,,,,,,,,,,,,,,,,
,,,,,,,,,,,,60cb82b9065703e89e7211a0,19,Mężczyzna,2022-06-11_09h40.05.766,task,2021.1.4,Win32,74.97375918,6299f149e92ead563fba08ef,62a441d5f8ca17fcfab2d5b1,,,,,,,,,,,,,,,,,,,,,,,,,,,0.9,41.3779,2.758526667,33.6750367,1.498333223,6.624226381,space,1.865,0,0,0,0,1,,,,,,,,,,,,,,,,,,,,,,,,,,,,,,,,,,,,,,,,,,,,,,,,,,,,,,,,,,,,,,
,,,,,,,,,,,,60cb82b9065703e89e7211a0,19,Mężczyzna,2022-06-11_09h40.05.766,task,2021.1.4,Win32,74.97375918,6299f149e92ead563fba08ef,62a441d5f8ca17fcfab2d5b1,,,,,,,,,,,,,4,,,,,,,,,,Practice,5,(2x6) - 8,4,,,,,,,,,,,,,,space,20.7476,"[""4""]",1,[6.139299999982086],1,0,0,0,4,1,,,,,,,,,,,,,,,,,,,,,,,,,,,,,,,,,,,,,,,,,,,,,,,,,,,
,,,,,,,,,,,X V Q F H G B L J M P D K C T S W R N Z,60cb82b9065703e89e7211a0,19,Mężczyzna,2022-06-11_09h40.05.766,task,2021.1.4,Win32,74.97375918,6299f149e92ead563fba08ef,62a441d5f8ca17fcfab2d5b1,,,,,,,,,,,,,,,,,,,,,,,,,,,,,,,,,,,,,,,,,,,,,,,,,,,0,0,0,0,1,,,,,,,,,,,,,,,,,,,,,,,,,,,,,,,,,,,,,,,,,,,,,,
,,,,,,,,,,,,60cb82b9065703e89e7211a0,19,Mężczyzna,2022-06-11_09h40.05.766,task,2021.1.4,Win32,74.97375918,6299f149e92ead563fba08ef,62a441d5f8ca17fcfab2d5b1,,,,,,,,,,,,,,,,,,,,,,,Practice,3,(4x4) - 14,2,,,,,,,,,,,,,,,,,0,,0,0,0,0,2,1,,,,,,,,,,,,,,,,,,,,,,,,,,,,,,,,,,,,,,,,,,,,,,,,,,,
,,,,,,,,,,,,60cb82b9065703e89e7211a0,19,Mężczyzna,2022-06-11_09h40.05.766,task,2021.1.4,Win32,74.97375918,6299f149e92ead563fba08ef,62a441d5f8ca17fcfab2d5b1,,,,,,,,,,,,,7,,,,,,,,,,Practice,8,(5x5) - 18,7,,,,,,,,,,,,,,,,"[""7""]",1,[5.833099999994147],1,0,1,1,7,1,,,,,,,,,,,,,,,,,,,,,,,,,,,,,,,,,,,,,,,,,,,,,,,,,,,
,,,,,,,,,,,X V Q F H G B L J M P D K C T S W R N Z,60cb82b9065703e89e7211a0,19,Mężczyzna,2022-06-11_09h40.05.766,task,2021.1.4,Win32,74.97375918,6299f149e92ead563fba08ef,62a441d5f8ca17fcfab2d5b1,,,,,,,,,,,,,,,,,,,,,,,,,,,,,,,,,,,,,,,,,,,,,,,,,,,1,0,1,0,1,,,,,,,,,,,,,,,,,,,,,,,,,,,,,,,,,,,,,,,,,,,,,,
,,,,,,,,,,,,60cb82b9065703e89e7211a0,19,Mężczyzna,2022-06-11_09h40.05.766,task,2021.1.4,Win32,74.97375918,6299f149e92ead563fba08ef,62a441d5f8ca17fcfab2d5b1,,,,,,,,,,,,,,,,,,,,,,,,,,,,,,,,,,,,,,,,,,,,,,,,,,,,,,,,zc,"[""z"",""c""]",0,"[2.884499999999889,3.220599999993965,4.514299999982086]",1,0,0,0,0,1,,,,,,,,,,,,,,,,,,,,,,,,,,,,,,,,,,,,
,,,,,,,,,,,,60cb82b9065703e89e7211a0,19,Mężczyzna,2022-06-11_09h40.05.766,task,2021.1.4,Win32,74.97375918,6299f149e92ead563fba08ef,62a441d5f8ca17fcfab2d5b1,,,,,,,,,,,,,9,,,,,,,,,,Practice,10,(20/2) - 1,9,,,,,,,,,,,,,,,,"[""9""]",1,[3.981599999993932],1,0,0,0,9,1,,,,,,,,,,,,,,,,,,,,,,,,,,,,,,,,,,,,,,,,,,,,,,,,,,,
,,,,,,,,,,,X V Q F H G B L J M P D K C T S W R N Z,60cb82b9065703e89e7211a0,19,Mężczyzna,2022-06-11_09h40.05.766,task,2021.1.4,Win32,74.97375918,6299f149e92ead563fba08ef,62a441d5f8ca17fcfab2d5b1,,,,,,,,,,,,,,,,,,,,,,,,,,,,,,,,,,,,,,,,,,,,,,,,,,,0,0,0,0,1,,,,,,,,,,,,,,,,,,,,,,,,,,,,,,,,,,,,,,,,,,,,,,
,,,,,,,,,,,,60cb82b9065703e89e7211a0,19,Mężczyzna,2022-06-11_09h40.05.766,task,2021.1.4,Win32,74.97375918,6299f149e92ead563fba08ef,62a441d5f8ca17fcfab2d5b1,,,,,,,,,,,,,4,,,,,,,,,,Practice,5,(2x6) - 8,4,,,,,,,,,,,,,,,,"[""4""]",1,[4.006399999976111],1,0,0,0,4,1,,,,,,,,,,,,,,,,,,,,,,,,,,,,,,,,,,,,,,,,,,,,,,,,,,,
,,,,,,,,,,,X V Q F H G B L J M P D K C T S W R N Z,60cb82b9065703e89e7211a0,19,Mężczyzna,2022-06-11_09h40.05.766,task,2021.1.4,Win32,74.97375918,6299f149e92ead563fba08ef,62a441d5f8ca17fcfab2d5b1,,,,,,,,,,,,,,,,,,,,,,,,,,,,,,,,,,,,,,,,,,,,,,,,,,,1,0,1,0,1,,,,,,,,,,,,,,,,,,,,,,,,,,,,,,,,,,,,,,,,,,,,,,
,,,,,,,,,,,,60cb82b9065703e89e7211a0,19,Mężczyzna,2022-06-11_09h40.05.766,task,2021.1.4,Win32,74.97375918,6299f149e92ead563fba08ef,62a441d5f8ca17fcfab2d5b1,,,,,,,,,,,,,,,,,,,,,,,,,,,,,,,,,,,,,,,,,,,,,,,,,,,,,,,,jl,"[""j"",""l""]",0,"[1.995699999988119,2.3911999999879754,3.556699999988041]",1,1,0,1,0,1,,,,,,,,,,,,,,,,,,,,,,,,,,,,,,,,,,,,
,,,,,,,,,,,,60cb82b9065703e89e7211a0,19,Mężczyzna,2022-06-11_09h40.05.766,task,2021.1.4,Win32,74.97375918,6299f149e92ead563fba08ef,62a441d5f8ca17fcfab2d5b1,,,,,,,,,,,,,7,,,,,,,,,,Practice,8,(5x5) - 18,7,,,,,,,,,,,,,,,,"[""7""]",1,[2.8474999999998545],1,0,0,0,7,1,,,,,,,,,,,,,,,,,,,,,,,,,,,,,,,,,,,,,,,,,,,,,,,,,,,
,,,,,,,,,,,X V Q F H G B L J M P D K C T S W R N Z,60cb82b9065703e89e7211a0,19,Mężczyzna,2022-06-11_09h40.05.766,task,2021.1.4,Win32,74.97375918,6299f149e92ead563fba08ef,62a441d5f8ca17fcfab2d5b1,,,,,,,,,,,,,,,,,,,,,,,,,,,,,,,,,,,,,,,,,,,,,,,,,,,0,0,0,0,1,,,,,,,,,,,,,,,,,,,,,,,,,,,,,,,,,,,,,,,,,,,,,,
,,,,,,,,,,,,60cb82b9065703e89e7211a0,19,Mężczyzna,2022-06-11_09h40.05.766,task,2021.1.4,Win32,74.97375918,6299f149e92ead563fba08ef,62a441d5f8ca17fcfab2d5b1,,,,,,,,,,,,,7,,,,,,,,,,Practice,8,(5x5) - 18,7,,,,,,,,,,,,,,,,"[""7""]",1,[2.4881000000239055],1,0,0,0,7,1,,,,,,,,,,,,,,,,,,,,,,,,,,,,,,,,,,,,,,,,,,,,,,,,,,,
,,,,,,,,,,,X V Q F H G B L J M P D K C T S W R N Z,60cb82b9065703e89e7211a0,19,Mężczyzna,2022-06-11_09h40.05.766,task,2021.1.4,Win32,74.97375918,6299f149e92ead563fba08ef,62a441d5f8ca17fcfab2d5b1,,,,,,,,,,,,,,,,,,,,,,,,,,,,,,,,,,,,,,,,,,,,,,,,,,,1,0,1,0,1,,,,,,,,,,,,,,,,,,,,,,,,,,,,,,,,,,,,,,,,,,,,,,
,,,,,,,,,,,,60cb82b9065703e89e7211a0,19,Mężczyzna,2022-06-11_09h40.05.766,task,2021.1.4,Win32,74.97375918,6299f149e92ead563fba08ef,62a441d5f8ca17fcfab2d5b1,,,,,,,,,,,,,,,,,,,,,,,,,,,,,,,,,,,,,,,,,,,,,,,,,,,,,,,,zm,"[""z"",""m""]",0,"[1.9925999999938995,2.687800000011748,3.21269999998799]",1,2,0,2,0,1,,,,,,,,,,,,,,,,,,,,,,,,,,,,,,,,,,,,
,,,,,,,,,,,,60cb82b9065703e89e7211a0,19,Mężczyzna,2022-06-11_09h40.05.766,task,2021.1.4,Win32,74.97375918,6299f149e92ead563fba08ef,62a441d5f8ca17fcfab2d5b1,,,,,,,,,,,,,8,,,,,,,,,,Task,23,(2x3) + 2,8,,,,,,,,,,,,,,,,,,,1,,,,,,,,,,,,,,,,,,,,,space,15.6767,"[""8""]",1,[2.8847999999820786],0,0,0,22,1,,,,,,,,,,,,,,,,,,,,,,,,,,
,,,,,,,,,,,X V Q F H G B L J M P D K C T S W R N Z,60cb82b9065703e89e7211a0,19,Mężczyzna,2022-06-11_09h40.05.766,task,2021.1.4,Win32,74.97375918,6299f149e92ead563fba08ef,62a441d5f8ca17fcfab2d5b1,,,,,,,,,,,,,,,,,,,,,,,,,,,,,,,,,,,,,,,,,,,,,,,,,,,,,,,,,,,,,,,,,,,,,,,,,,,,0,0,0,0,1,,,,,,,,,,,,,,,,,,,,,
,,,,,,,,,,,,60cb82b9065703e89e7211a0,19,Mężczyzna,2022-06-11_09h40.05.766,task,2021.1.4,Win32,74.97375918,6299f149e92ead563fba08ef,62a441d5f8ca17fcfab2d5b1,,,,,,,,,,,,,3,,,,,,,,,,Task,3,(2x3) - 3,3,,,,,,,,,,,,,,,,,,,1,,,,,,,,,,,,,,,,,,,,,,,"[""3""]",1,[3.129799999982197],0,0,0,2,1,,,,,,,,,,,,,,,,,,,,,,,,,,
,,,,,,,,,,,X V Q F H G B L J M P D K C T S W R N Z,60cb82b9065703e89e7211a0,19,Mężczyzna,2022-06-11_09h40.05.766,task,2021.1.4,Win32,74.97375918,6299f149e92ead563fba08ef,62a441d5f8ca17fcfab2d5b1,,,,,,,,,,,,,,,,,,,,,,,,,,,,,,,,,,,,,,,,,,,,,,,,,,,,,,,,,,,,,,,,,,,,,,,,,,,,1,0,1,0,1,,,,,,,,,,,,,,,,,,,,,
,,,,,,,,,,,,60cb82b9065703e89e7211a0,19,Mężczyzna,2022-06-11_09h40.05.766,task,2021.1.4,Win32,74.97375918,6299f149e92ead563fba08ef,62a441d5f8ca17fcfab2d5b1,,,,,,,,,,,,,,,,,,,,,,,,,,,,,,,,,,,,,,,,,,,,,,,,,,,,,,,,,,,,,,,,,,,,,,,,,,,,,,,,,zq,"[""z"",""q""]",0,"[2.0447999999821604,2.4707999999820913,3.1387999999822114]",1,ZQ,0,0,0,0,1,,,,,,,,,,
,,,,,,,,,,,,60cb82b9065703e89e7211a0,19,Mężczyzna,2022-06-11_09h40.05.766,task,2021.1.4,Win32,74.97375918,6299f149e92ead563fba08ef,62a441d5f8ca17fcfab2d5b1,,,,,,,,,,,,,8,,,,,,,,,,Task,32,(8/2) + 4,8,,,,,,,,,,,,,,,,,,,1,,,,,,,,,,,,,,,,,,,,,,,"[""8""]",1,[3.403900000005933],0,0,0,31,1,,,,,,,,,,,,,,,,,,,,,,,,,,
,,,,,,,,,,,X V Q F H G B L J M P D K C T S W R N Z,60cb82b9065703e89e7211a0,19,Mężczyzna,2022-06-11_09h40.05.766,task,2021.1.4,Win32,74.97375918,6299f149e92ead563fba08ef,62a441d5f8ca17fcfab2d5b1,,,,,,,,,,,,,,,,,,,,,,,,,,,,,,,,,,,,,,,,,,,,,,,,,,,,,,,,,,,,,,,,,,,,,,,,,,,,0,0,0,0,1,,,,,,,,,,,,,,,,,,,,,
,,,,,,,,,,,,60cb82b9065703e89e7211a0,19,Mężczyzna,2022-06-11_09h40.05.766,task,2021.1.4,Win32,74.97375918,6299f149e92ead563fba08ef,62a441d5f8ca17fcfab2d5b1,,,,,,,,,,,,,2,,,,,,,,,,Task,26,(2x9) - 16,2,,,,,,,,,,,,,,,,,,,1,,,,,,,,,,,,,,,,,,,,,,,"[""2""]",1,[3.004099999994196],0,0,0,25,1,,,,,,,,,,,,,,,,,,,,,,,,,,
,,,,,,,,,,,X V Q F H G B L J M P D K C T S W R N Z,60cb82b9065703e89e7211a0,19,Mężczyzna,2022-06-11_09h40.05.766,task,2021.1.4,Win32,74.97375918,6299f149e92ead563fba08ef,62a441d5f8ca17fcfab2d5b1,,,,,,,,,,,,,,,,,,,,,,,,,,,,,,,,,,,,,,,,,,,,,,,,,,,,,,,,,,,,,,,,,,,,,,,,,,,,1,0,1,0,1,,,,,,,,,,,,,,,,,,,,,
,,,,,,,,,,,,60cb82b9065703e89e7211a0,19,Mężczyzna,2022-06-11_09h40.05.766,task,2021.1.4,Win32,74.97375918,6299f149e92ead563fba08ef,62a441d5f8ca17fcfab2d5b1,,,,,,,,,,,,,8,,,,,,,,,,Task,39,(5x3) - 7,8,,,,,,,,,,,,,,,,,,,1,,,,,,,,,,,,,,,,,,,,,,,"[""8""]",1,[2.966200000017807],0,0,0,38,1,,,,,,,,,,,,,,,,,,,,,,,,,,
,,,,,,,,,,,X V Q F H G B L J M P D K C T S W R N Z,60cb82b9065703e89e7211a0,19,Mężczyzna,2022-06-11_09h40.05.766,task,2021.1.4,Win32,74.97375918,6299f149e92ead563fba08ef,62a441d5f8ca17fcfab2d5b1,,,,,,,,,,,,,,,,,,,,,,,,,,,,,,,,,,,,,,,,,,,,,,,,,,,,,,,,,,,,,,,,,,,,,,,,,,,,2,0,2,0,1,,,,,,,,,,,,,,,,,,,,,
,,,,,,,,,,,,60cb82b9065703e89e7211a0,19,Mężczyzna,2022-06-11_09h40.05.766,task,2021.1.4,Win32,74.97375918,6299f149e92ead563fba08ef,62a441d5f8ca17fcfab2d5b1,,,,,,,,,,,,,,,,,,,,,,,,,,,,,,,,,,,,,,,,,,,,,,,,,,,,,,,,,,,,,,,,,,,,,,,,,,,,,,,,,wrf,"[""w"",""r"",""f""]",0,"[1.07100000000014,1.7115999999941778,2.085400000006075,2.966800000011972]",1,WRF,1,0,1,0,1,,,,,,,,,,
,,,,,,,,,,,,60cb82b9065703e89e7211a0,19,Mężczyzna,2022-06-11_09h40.05.766,task,2021.1.4,Win32,74.97375918,6299f149e92ead563fba08ef,62a441d5f8ca17fcfab2d5b1,,,,,,,,,,,,,8,,,,,,,,,,Task,32,(8/2) + 4,8,,,,,,,,,,,,,,,,,,,1,,,,,,,,,,,,,,,,,,,,,,,"[""8""]",1,[2.8844000000060532],0,0,0,31,1,,,,,,,,,,,,,,,,,,,,,,,,,,
,,,,,,,,,,,X V Q F H G B L J M P D K C T S W R N Z,60cb82b9065703e89e7211a0,19,Mężczyzna,2022-06-11_09h40.05.766,task,2021.1.4,Win32,74.97375918,6299f149e92ead563fba08ef,62a441d5f8ca17fcfab2d5b1,,,,,,,,,,,,,,,,,,,,,,,,,,,,,,,,,,,,,,,,,,,,,,,,,,,,,,,,,,,,,,,,,,,,,,,,,,,,0,0,0,0,1,,,,,,,,,,,,,,,,,,,,,
,,,,,,,,,,,,60cb82b9065703e89e7211a0,19,Mężczyzna,2022-06-11_09h40.05.766,task,2021.1.4,Win32,74.97375918,6299f149e92ead563fba08ef,62a441d5f8ca17fcfab2d5b1,,,,,,,,,,,,,2,,,,,,,,,,Task,2,(2x2) - 2,2,,,,,,,,,,,,,,,,,,,1,,,,,,,,,,,,,,,,,,,,,,,"[""2""]",1,[2.6325000000001637],0,0,0,1,1,,,,,,,,,,,,,,,,,,,,,,,,,,
,,,,,,,,,,,X V Q F H G B L J M P D K C T S W R N Z,60cb82b9065703e89e7211a0,19,Mężczyzna,2022-06-11_09h40.05.766,task,2021.1.4,Win32,74.97375918,6299f149e92ead563fba08ef,62a441d5f8ca17fcfab2d5b1,,,,,,,,,,,,,,,,,,,,,,,,,,,,,,,,,,,,,,,,,,,,,,,,,,,,,,,,,,,,,,,,,,,,,,,,,,,,1,0,1,0,1,,,,,,,,,,,,,,,,,,,,,
,,,,,,,,,,,,60cb82b9065703e89e7211a0,19,Mężczyzna,2022-06-11_09h40.05.766,task,2021.1.4,Win32,74.97375918,6299f149e92ead563fba08ef,62a441d5f8ca17fcfab2d5b1,,,,,,,,,,,,,3,,,,,,,,,,Task,27,(3/3) + 2,3,,,,,,,,,,,,,,,,,,,1,,,,,,,,,,,,,,,,,,,,,,,"[""3""]",1,[3.431500000000142],0,0,0,26,1,,,,,,,,,,,,,,,,,,,,,,,,,,
,,,,,,,,,,,X V Q F H G B L J M P D K C T S W R N Z,60cb82b9065703e89e7211a0,19,Mężczyzna,2022-06-11_09h40.05.766,task,2021.1.4,Win32,74.97375918,6299f149e92ead563fba08ef,62a441d5f8ca17fcfab2d5b1,,,,,,,,,,,,,,,,,,,,,,,,,,,,,,,,,,,,,,,,,,,,,,,,,,,,,,,,,,,,,,,,,,,,,,,,,,,,2,0,2,0,1,,,,,,,,,,,,,,,,,,,,,
,,,,,,,,,,,,60cb82b9065703e89e7211a0,19,Mężczyzna,2022-06-11_09h40.05.766,task,2021.1.4,Win32,74.97375918,6299f149e92ead563fba08ef,62a441d5f8ca17fcfab2d5b1,,,,,,,,,,,,,6,,,,,,,,,,Task,37,(3/3) + 5,6,,,,,,,,,,,,,,,,,,,1,,,,,,,,,,,,,,,,,,,,,,,"[""6""]",1,[2.1455000000000837],0,0,0,36,1,,,,,,,,,,,,,,,,,,,,,,,,,,
,,,,,,,,,,,X V Q F H G B L J M P D K C T S W R N Z,60cb82b9065703e89e7211a0,19,Mężczyzna,2022-06-11_09h40.05.766,task,2021.1.4,Win32,74.97375918,6299f149e92ead563fba08ef,62a441d5f8ca17fcfab2d5b1,,,,,,,,,,,,,,,,,,,,,,,,,,,,,,,,,,,,,,,,,,,,,,,,,,,,,,,,,,,,,,,,,,,,,,,,,,,,3,0,3,0,1,,,,,,,,,,,,,,,,,,,,,
,,,,,,,,,,,,60cb82b9065703e89e7211a0,19,Mężczyzna,2022-06-11_09h40.05.766,task,2021.1.4,Win32,74.97375918,6299f149e92ead563fba08ef,62a441d5f8ca17fcfab2d5b1,,,,,,,,,,,,,,,,,,,,,,,,,,,,,,,,,,,,,,,,,,,,,,,,,,,,,,,,,,,,,,,,,,,,,,,,,,,,,,,,,zlgm,"[""z"",""l"",""g"",""m""]",0,"[1.623599999993985,2.271599999994123,2.745599999994056,3.4904000000060478,4.099300000011908]",1,ZLGM,2,0,2,0,1,,,,,,,,,,
,,,,,,,,,,,,60cb82b9065703e89e7211a0,19,Mężczyzna,2022-06-11_09h40.05.766,task,2021.1.4,Win32,74.97375918,6299f149e92ead563fba08ef,62a441d5f8ca17fcfab2d5b1,,,,,,,,,,,,,6,,,,,,,,,,Task,37,(3/3) + 5,6,,,,,,,,,,,,,,,,,,,1,,,,,,,,,,,,,,,,,,,,,,,"[""6""]",1,[3.0662000000179432],0,0,0,36,1,,,,,,,,,,,,,,,,,,,,,,,,,,
,,,,,,,,,,,X V Q F H G B L J M P D K C T S W R N Z,60cb82b9065703e89e7211a0,19,Mężczyzna,2022-06-11_09h40.05.766,task,2021.1.4,Win32,74.97375918,6299f149e92ead563fba08ef,62a441d5f8ca17fcfab2d5b1,,,,,,,,,,,,,,,,,,,,,,,,,,,,,,,,,,,,,,,,,,,,,,,,,,,,,,,,,,,,,,,,,,,,,,,,,,,,0,0,0,0,1,,,,,,,,,,,,,,,,,,,,,
,,,,,,,,,,,,60cb82b9065703e89e7211a0,19,Mężczyzna,2022-06-11_09h40.05.766,task,2021.1.4,Win32,74.97375918,6299f149e92ead563fba08ef,62a441d5f8ca17fcfab2d5b1,,,,,,,,,,,,,1,,,,,,,,,,Task,9,(3x7) - 20,1,,,,,,,,,,,,,,,,,,,1,,,,,,,,,,,,,,,,,,,,,,,"[""1""]",1,[3.5311999999880754],0,0,0,8,1,,,,,,,,,,,,,,,,,,,,,,,,,,
,,,,,,,,,,,X V Q F H G B L J M P D K C T S W R N Z,60cb82b9065703e89e7211a0,19,Mężczyzna,2022-06-11_09h40.05.766,task,2021.1.4,Win32,74.97375918,6299f149e92ead563fba08ef,62a441d5f8ca17fcfab2d5b1,,,,,,,,,,,,,,,,,,,,,,,,,,,,,,,,,,,,,,,,,,,,,,,,,,,,,,,,,,,,,,,,,,,,,,,,,,,,1,0,1,0,1,,,,,,,,,,,,,,,,,,,,,
,,,,,,,,,,,,60cb82b9065703e89e7211a0,19,Mężczyzna,2022-06-11_09h40.05.766,task,2021.1.4,Win32,74.97375918,6299f149e92ead563fba08ef,62a441d5f8ca17fcfab2d5b1,,,,,,,,,,,,,9,,,,,,,,,,Task,40,(7x2) - 5,9,,,,,,,,,,,,,,,,,,,1,,,,,,,,,,,,,,,,,,,,,,,"[""9""]",1,[2.9816999999879954],0,0,0,39,1,,,,,,,,,,,,,,,,,,,,,,,,,,
,,,,,,,,,,,X V Q F H G B L J M P D K C T S W R N Z,60cb82b9065703e89e7211a0,19,Mężczyzna,2022-06-11_09h40.05.766,task,2021.1.4,Win32,74.97375918,6299f149e92ead563fba08ef,62a441d5f8ca17fcfab2d5b1,,,,,,,,,,,,,,,,,,,,,,,,,,,,,,,,,,,,,,,,,,,,,,,,,,,,,,,,,,,,,,,,,,,,,,,,,,,,2,0,2,0,1,,,,,,,,,,,,,,,,,,,,,
,,,,,,,,,,,,60cb82b9065703e89e7211a0,19,Mężczyzna,2022-06-11_09h40.05.766,task,2021.1.4,Win32,74.97375918,6299f149e92ead563fba08ef,62a441d5f8ca17fcfab2d5b1,,,,,,,,,,,,,1,,,,,,,,,,Task,1,(12/6) - 1,1,,,,,,,,,,,,,,,,,,,1,,,,,,,,,,,,,,,,,,,,,,,"[""1""]",1,[1.8364000000060514],0,0,0,0,1,,,,,,,,,,,,,,,,,,,,,,,,,,
,,,,,,,,,,,X V Q F H G B L J M P D K C T S W R N Z,60cb82b9065703e89e7211a0,19,Mężczyzna,2022-06-11_09h40.05.766,task,2021.1.4,Win32,74.97375918,6299f149e92ead563fba08ef,62a441d5f8ca17fcfab2d5b1,,,,,,,,,,,,,,,,,,,,,,,,,,,,,,,,,,,,,,,,,,,,,,,,,,,,,,,,,,,,,,,,,,,,,,,,,,,,3,0,3,0,1,,,,,,,,,,,,,,,,,,,,,
,,,,,,,,,,,,60cb82b9065703e89e7211a0,19,Mężczyzna,2022-06-11_09h40.05.766,task,2021.1.4,Win32,74.97375918,6299f149e92ead563fba08ef,62a441d5f8ca17fcfab2d5b1,,,,,,,,,,,,,0,,,,,,,,,,Task,17,(2x3) - 6,0,,,,,,,,,,,,,,,,,,,1,,,,,,,,,,,,,,,,,,,,,,,"[""0""]",1,[2.3193999999762127],0,0,0,16,1,,,,,,,,,,,,,,,,,,,,,,,,,,
,,,,,,,,,,,X V Q F H G B L J M P D K C T S W R N Z,60cb82b9065703e89e7211a0,19,Mężczyzna,2022-06-11_09h40.05.766,task,2021.1.4,Win32,74.97375918,6299f149e92ead563fba08ef,62a441d5f8ca17fcfab2d5b1,,,,,,,,,,,,,,,,,,,,,,,,,,,,,,,,,,,,,,,,,,,,,,,,,,,,,,,,,,,,,,,,,,,,,,,,,,,,4,0,4,0,1,,,,,,,,,,,,,,,,,,,,,
,,,,,,,,,,,,60cb82b9065703e89e7211a0,19,Mężczyzna,2022-06-11_09h40.05.766,task,2021.1.4,Win32,74.97375918,6299f149e92ead563fba08ef,62a441d5f8ca17fcfab2d5b1,,,,,,,,,,,,,,,,,,,,,,,,,,,,,,,,,,,,,,,,,,,,,,,,,,,,,,,,,,,,,,,,,,,,,,,,,,,,,,,,,dlsnm,"[""d"",""l"",""s"",""n"",""m""]",0,"[1.680200000017976,2.245200000017803,2.8258000000118955,3.3704999999999927,3.68830000001185,4.519900000005919]",1,DLSNM,3,0,3,0,1,,,,,,,,,,
,,,,,,,,,,,,60cb82b9065703e89e7211a0,19,Mężczyzna,2022-06-11_09h40.05.766,task,2021.1.4,Win32,74.97375918,6299f149e92ead563fba08ef,62a441d5f8ca17fcfab2d5b1,,,,,,,,,,,,,8,,,,,,,,,,Task,32,(8/2) + 4,8,,,,,,,,,,,,,,,,,,,1,,,,,,,,,,,,,,,,,,,,,,,"[""8""]",1,[2.138599999994085],0,0,0,31,1,,,,,,,,,,,,,,,,,,,,,,,,,,
,,,,,,,,,,,X V Q F H G B L J M P D K C T S W R N Z,60cb82b9065703e89e7211a0,19,Mężczyzna,2022-06-11_09h40.05.766,task,2021.1.4,Win32,74.97375918,6299f149e92ead563fba08ef,62a441d5f8ca17fcfab2d5b1,,,,,,,,,,,,,,,,,,,,,,,,,,,,,,,,,,,,,,,,,,,,,,,,,,,,,,,,,,,,,,,,,,,,,,,,,,,,0,0,0,0,1,,,,,,,,,,,,,,,,,,,,,
,,,,,,,,,,,,60cb82b9065703e89e7211a0,19,Mężczyzna,2022-06-11_09h40.05.766,task,2021.1.4,Win32,74.97375918,6299f149e92ead563fba08ef,62a441d5f8ca17fcfab2d5b1,,,,,,,,,,,,,9,,,,,,,,,,Task,40,(7x2) - 5,9,,,,,,,,,,,,,,,,,,,1,,,,,,,,,,,,,,,,,,,,,,,"[""9""]",1,[1.9408999999761818],0,0,0,39,1,,,,,,,,,,,,,,,,,,,,,,,,,,
,,,,,,,,,,,X V Q F H G B L J M P D K C T S W R N Z,60cb82b9065703e89e7211a0,19,Mężczyzna,2022-06-11_09h40.05.766,task,2021.1.4,Win32,74.97375918,6299f149e92ead563fba08ef,62a441d5f8ca17fcfab2d5b1,,,,,,,,,,,,,,,,,,,,,,,,,,,,,,,,,,,,,,,,,,,,,,,,,,,,,,,,,,,,,,,,,,,,,,,,,,,,1,0,1,0,1,,,,,,,,,,,,,,,,,,,,,
,,,,,,,,,,,,60cb82b9065703e89e7211a0,19,Mężczyzna,2022-06-11_09h40.05.766,task,2021.1.4,Win32,74.97375918,6299f149e92ead563fba08ef,62a441d5f8ca17fcfab2d5b1,,,,,,,,,,,,,8,,,,,,,,,,Task,39,(5x3) - 7,8,,,,,,,,,,,,,,,,,,,1,,,,,,,,,,,,,,,,,,,,,,,"[""8""]",1,[1.9305999999940013],0,0,0,38,1,,,,,,,,,,,,,,,,,,,,,,,,,,
,,,,,,,,,,,X V Q F H G B L J M P D K C T S W R N Z,60cb82b9065703e89e7211a0,19,Mężczyzna,2022-06-11_09h40.05.766,task,2021.1.4,Win32,74.97375918,6299f149e92ead563fba08ef,62a441d5f8ca17fcfab2d5b1,,,,,,,,,,,,,,,,,,,,,,,,,,,,,,,,,,,,,,,,,,,,,,,,,,,,,,,,,,,,,,,,,,,,,,,,,,,,2,0,2,0,1,,,,,,,,,,,,,,,,,,,,,
,,,,,,,,,,,,60cb82b9065703e89e7211a0,19,Mężczyzna,2022-06-11_09h40.05.766,task,2021.1.4,Win32,74.97375918,6299f149e92ead563fba08ef,62a441d5f8ca17fcfab2d5b1,,,,,,,,,,,,,8,,,,,,,,,,Task,39,(5x3) - 7,8,,,,,,,,,,,,,,,,,,,1,,,,,,,,,,,,,,,,,,,,,,,"[""8""]",1,[1.8334000000061224],0,0,0,38,1,,,,,,,,,,,,,,,,,,,,,,,,,,
,,,,,,,,,,,X V Q F H G B L J M P D K C T S W R N Z,60cb82b9065703e89e7211a0,19,Mężczyzna,2022-06-11_09h40.05.766,task,2021.1.4,Win32,74.97375918,6299f149e92ead563fba08ef,62a441d5f8ca17fcfab2d5b1,,,,,,,,,,,,,,,,,,,,,,,,,,,,,,,,,,,,,,,,,,,,,,,,,,,,,,,,,,,,,,,,,,,,,,,,,,,,3,0,3,0,1,,,,,,,,,,,,,,,,,,,,,
,,,,,,,,,,,,60cb82b9065703e89e7211a0,19,Mężczyzna,2022-06-11_09h40.05.766,task,2021.1.4,Win32,74.97375918,6299f149e92ead563fba08ef,62a441d5f8ca17fcfab2d5b1,,,,,,,,,,,,,6,,,,,,,,,,Task,37,(3/3) + 5,6,,,,,,,,,,,,,,,,,,,1,,,,,,,,,,,,,,,,,,,,,,,"[""6""]",1,[2.4749000000060732],0,0,0,36,1,,,,,,,,,,,,,,,,,,,,,,,,,,
,,,,,,,,,,,X V Q F H G B L J M P D K C T S W R N Z,60cb82b9065703e89e7211a0,19,Mężczyzna,2022-06-11_09h40.05.766,task,2021.1.4,Win32,74.97375918,6299f149e92ead563fba08ef,62a441d5f8ca17fcfab2d5b1,,,,,,,,,,,,,,,,,,,,,,,,,,,,,,,,,,,,,,,,,,,,,,,,,,,,,,,,,,,,,,,,,,,,,,,,,,,,4,0,4,0,1,,,,,,,,,,,,,,,,,,,,,
,,,,,,,,,,,,60cb82b9065703e89e7211a0,19,Mężczyzna,2022-06-11_09h40.05.766,task,2021.1.4,Win32,74.97375918,6299f149e92ead563fba08ef,62a441d5f8ca17fcfab2d5b1,,,,,,,,,,,,,0,,,,,,,,,,Task,17,(2x3) - 6,0,,,,,,,,,,,,,,,,,,,1,,,,,,,,,,,,,,,,,,,,,,,"[""0""]",1,[1.9416999999882592],0,0,0,16,1,,,,,,,,,,,,,,,,,,,,,,,,,,
,,,,,,,,,,,X V Q F H G B L J M P D K C T S W R N Z,60cb82b9065703e89e7211a0,19,Mężczyzna,2022-06-11_09h40.05.766,task,2021.1.4,Win32,74.97375918,6299f149e92ead563fba08ef,62a441d5f8ca17fcfab2d5b1,,,,,,,,,,,,,,,,,,,,,,,,,,,,,,,,,,,,,,,,,,,,,,,,,,,,,,,,,,,,,,,,,,,,,,,,,,,,5,0,5,0,1,,,,,,,,,,,,,,,,,,,,,
,,,,,,,,,,,,60cb82b9065703e89e7211a0,19,Mężczyzna,2022-06-11_09h40.05.766,task,2021.1.4,Win32,74.97375918,6299f149e92ead563fba08ef,62a441d5f8ca17fcfab2d5b1,,,,,,,,,,,,,,,,,,,,,,,,,,,,,,,,,,,,,,,,,,,,,,,,,,,,,,,,,,,,,,,,,,,,,,,,,,,,,,,,,vxvqfv,"[""v"",""x"",""v"",""q"",""f"",""v""]",0,"[4.098299999982146,4.465699999987919,5.237799999982144,5.725999999999885,6.744299999982104,8.62219999998797,9.30389999997601]",0,VXVQFF,4,0,4,0,1,,,,,,,,,,
,,,,,,,,,,,,60cb82b9065703e89e7211a0,19,Mężczyzna,2022-06-11_09h40.05.766,task,2021.1.4,Win32,74.97375918,6299f149e92ead563fba08ef,62a441d5f8ca17fcfab2d5b1,,,,,,,,,,,,,3,,,,,,,,,,Task,27,(3/3) + 2,3,,,,,,,,,,,,,,,,,,,1,,,,,,,,,,,,,,,,,,,,,,,"[""3""]",1,[3.3845999999939522],0,0,0,26,1,,,,,,,,,,,,,,,,,,,,,,,,,,
,,,,,,,,,,,X V Q F H G B L J M P D K C T S W R N Z,60cb82b9065703e89e7211a0,19,Mężczyzna,2022-06-11_09h40.05.766,task,2021.1.4,Win32,74.97375918,6299f149e92ead563fba08ef,62a441d5f8ca17fcfab2d5b1,,,,,,,,,,,,,,,,,,,,,,,,,,,,,,,,,,,,,,,,,,,,,,,,,,,,,,,,,,,,,,,,,,,,,,,,,,,,0,0,0,0,1,,,,,,,,,,,,,,,,,,,,,
,,,,,,,,,,,,60cb82b9065703e89e7211a0,19,Mężczyzna,2022-06-11_09h40.05.766,task,2021.1.4,Win32,74.97375918,6299f149e92ead563fba08ef,62a441d5f8ca17fcfab2d5b1,,,,,,,,,,,,,1,,,,,,,,,,Task,1,(12/6) - 1,1,,,,,,,,,,,,,,,,,,,1,,,,,,,,,,,,,,,,,,,,,,,"[""1""]",1,[3.6531000000236418],0,0,0,0,1,,,,,,,,,,,,,,,,,,,,,,,,,,
,,,,,,,,,,,X V Q F H G B L J M P D K C T S W R N Z,60cb82b9065703e89e7211a0,19,Mężczyzna,2022-06-11_09h40.05.766,task,2021.1.4,Win32,74.97375918,6299f149e92ead563fba08ef,62a441d5f8ca17fcfab2d5b1,,,,,,,,,,,,,,,,,,,,,,,,,,,,,,,,,,,,,,,,,,,,,,,,,,,,,,,,,,,,,,,,,,,,,,,,,,,,1,0,1,0,1,,,,,,,,,,,,,,,,,,,,,
,,,,,,,,,,,,60cb82b9065703e89e7211a0,19,Mężczyzna,2022-06-11_09h40.05.766,task,2021.1.4,Win32,74.97375918,6299f149e92ead563fba08ef,62a441d5f8ca17fcfab2d5b1,,,,,,,,,,,,,3,,,,,,,,,,Task,3,(2x3) - 3,3,,,,,,,,,,,,,,,,,,,1,,,,,,,,,,,,,,,,,,,,,,,"[""3""]",1,[1.927200000018047],0,0,0,2,1,,,,,,,,,,,,,,,,,,,,,,,,,,
,,,,,,,,,,,X V Q F H G B L J M P D K C T S W R N Z,60cb82b9065703e89e7211a0,19,Mężczyzna,2022-06-11_09h40.05.766,task,2021.1.4,Win32,74.97375918,6299f149e92ead563fba08ef,62a441d5f8ca17fcfab2d5b1,,,,,,,,,,,,,,,,,,,,,,,,,,,,,,,,,,,,,,,,,,,,,,,,,,,,,,,,,,,,,,,,,,,,,,,,,,,,2,0,2,0,1,,,,,,,,,,,,,,,,,,,,,
,,,,,,,,,,,,60cb82b9065703e89e7211a0,19,Mężczyzna,2022-06-11_09h40.05.766,task,2021.1.4,Win32,74.97375918,6299f149e92ead563fba08ef,62a441d5f8ca17fcfab2d5b1,,,,,,,,,,,,,6,,,,,,,,,,Task,30,(6/3) + 4 ,6,,,,,,,,,,,,,,,,,,,1,,,,,,,,,,,,,,,,,,,,,,,"[""6""]",1,[2.5786999999882028],0,0,0,29,1,,,,,,,,,,,,,,,,,,,,,,,,,,
,,,,,,,,,,,X V Q F H G B L J M P D K C T S W R N Z,60cb82b9065703e89e7211a0,19,Mężczyzna,2022-06-11_09h40.05.766,task,2021.1.4,Win32,74.97375918,6299f149e92ead563fba08ef,62a441d5f8ca17fcfab2d5b1,,,,,,,,,,,,,,,,,,,,,,,,,,,,,,,,,,,,,,,,,,,,,,,,,,,,,,,,,,,,,,,,,,,,,,,,,,,,3,0,3,0,1,,,,,,,,,,,,,,,,,,,,,
,,,,,,,,,,,,60cb82b9065703e89e7211a0,19,Mężczyzna,2022-06-11_09h40.05.766,task,2021.1.4,Win32,74.97375918,6299f149e92ead563fba08ef,62a441d5f8ca17fcfab2d5b1,,,,,,,,,,,,,7,,,,,,,,,,Task,31,(4/2) + 5,7,,,,,,,,,,,,,,,,,,,1,,,,,,,,,,,,,,,,,,,,,,,"[""7""]",1,[2.9268000000120082],0,0,0,30,1,,,,,,,,,,,,,,,,,,,,,,,,,,
,,,,,,,,,,,X V Q F H G B L J M P D K C T S W R N Z,60cb82b9065703e89e7211a0,19,Mężczyzna,2022-06-11_09h40.05.766,task,2021.1.4,Win32,74.97375918,6299f149e92ead563fba08ef,62a441d5f8ca17fcfab2d5b1,,,,,,,,,,,,,,,,,,,,,,,,,,,,,,,,,,,,,,,,,,,,,,,,,,,,,,,,,,,,,,,,,,,,,,,,,,,,4,0,4,0,1,,,,,,,,,,,,,,,,,,,,,
,,,,,,,,,,,,60cb82b9065703e89e7211a0,19,Mężczyzna,2022-06-11_09h40.05.766,task,2021.1.4,Win32,74.97375918,6299f149e92ead563fba08ef,62a441d5f8ca17fcfab2d5b1,,,,,,,,,,,,,2,,,,,,,,,,Task,26,(2x9) - 16,2,,,,,,,,,,,,,,,,,,,1,,,,,,,,,,,,,,,,,,,,,,,"[""2""]",1,[4.68950000000018],0,0,0,25,1,,,,,,,,,,,,,,,,,,,,,,,,,,
,,,,,,,,,,,X V Q F H G B L J M P D K C T S W R N Z,60cb82b9065703e89e7211a0,19,Mężczyzna,2022-06-11_09h40.05.766,task,2021.1.4,Win32,74.97375918,6299f149e92ead563fba08ef,62a441d5f8ca17fcfab2d5b1,,,,,,,,,,,,,,,,,,,,,,,,,,,,,,,,,,,,,,,,,,,,,,,,,,,,,,,,,,,,,,,,,,,,,,,,,,,,5,0,5,0,1,,,,,,,,,,,,,,,,,,,,,
,,,,,,,,,,,,60cb82b9065703e89e7211a0,19,Mężczyzna,2022-06-11_09h40.05.766,task,2021.1.4,Win32,74.97375918,6299f149e92ead563fba08ef,62a441d5f8ca17fcfab2d5b1,,,,,,,,,,,,,,,,,,,,,,,,,,,,,,,,,,,,,,,,,,,,,,,,,,,,,,,,,,,,,,,,,,,,,,,,,,,,,,,,,zwmwxl,"[""z"",""w"",""m"",""w"",""x"",""l""]",0,"[2.000700000018014,2.3704999999999927,3.0456000000240238,3.610600000023851,4.546400000006088,5.448100000023942,6.061500000000024]",0,ZWMWLX,5,0,5,0,1,,,,,,,,,,
,,,,,,,,,,,,60cb82b9065703e89e7211a0,19,Mężczyzna,2022-06-11_09h40.05.766,task,2021.1.4,Win32,74.97375918,6299f149e92ead563fba08ef,62a441d5f8ca17fcfab2d5b1,,,,,,,,,,,,,,,,,,,,,,,,,,,,,,,,,,,,,,,,,,,,,,,,,,,,,,,,,,,,,,,,,,,,,,,,,,,,,,,,,,,,,,,,,,,,"[""comma""]",0,[0.7756999999880918],0,0,0,0,1,,
,,,,,,,,,,,,60cb82b9065703e89e7211a0,19,Mężczyzna,2022-06-11_09h40.05.766,task,2021.1.4,Win32,74.97375918,6299f149e92ead563fba08ef,62a441d5f8ca17fcfab2d5b1,,,,,,,,,,,,,,,,,,,,,,,,,,,,,,,,,,,,,,,,,,,,,,,,,,,,,,,,,,,,,,,,,,,,,,,,,,,,,,,,,,,,,,,,,,,,"[""comma""]",0,[0.33990000000608234],1,0,1,0,1,,
,,,,,,,,,,,,60cb82b9065703e89e7211a0,19,Mężczyzna,2022-06-11_09h40.05.766,task,2021.1.4,Win32,74.97375918,6299f149e92ead563fba08ef,62a441d5f8ca17fcfab2d5b1,,,,,,,,,,,,,,,,,,,,,,,,,,,,,,,,,,,,,,,,,,,,,,,,,,,,,,,,,,,,,,,,,,,,,,,,,,,,,,,,,,,,,,,,,,,,"[""comma""]",0,[0.7500999999940632],2,0,2,0,1,,
,,,,,,,,,,,,60cb82b9065703e89e7211a0,19,Mężczyzna,2022-06-11_09h40.05.766,task,2021.1.4,Win32,74.97375918,6299f149e92ead563fba08ef,62a441d5f8ca17fcfab2d5b1,,,,,,,,,,,,,,,,,,,,,,,,,,,,,,,,,,,,,,,,,,,,,,,,,,,,,,,,,,,,,,,,,,,,,,,,,,,,,,,,,,,,,,,,,,,,"[""comma""]",0,[0.29980000001205553],3,0,3,0,1,,
,,,,,,,,,,,,60cb82b9065703e89e7211a0,19,Mężczyzna,2022-06-11_09h40.05.766,task,2021.1.4,Win32,74.97375918,6299f149e92ead563fba08ef,62a441d5f8ca17fcfab2d5b1,,,,,,,,,,,,,,,,,,,,,,,,,,,,,,,,,,,,,,,,,,,,,,,,,,,,,,,,,,,,,,,,,,,,,,,,,,,,,,,,,,,,,,,,,,,,"[""comma""]",0,[0.32729999998196035],4,0,4,0,1,,
,,,,,,,,,,,,60cb82b9065703e89e7211a0,19,Mężczyzna,2022-06-11_09h40.05.766,task,2021.1.4,Win32,74.97375918,6299f149e92ead563fba08ef,62a441d5f8ca17fcfab2d5b1,,,,,,,,,,,,,,,,,,,,,,,,,,,,,,,,,,,,,,,,,,,,,,,,,,,,,,,,,,,,,,,,,,,,,,,,,,,,,,,,,,,,,,,,,,,,"[""comma""]",0,[0.26269999998794447],5,0,5,0,1,,
,,,,,,,,,,,,60cb82b9065703e89e7211a0,19,Mężczyzna,2022-06-11_09h40.05.766,task,2021.1.4,Win32,74.97375918,6299f149e92ead563fba08ef,62a441d5f8ca17fcfab2d5b1,,,,,,,,,,,,,,,,,,,,,,,,,,,,,,,,,,,,,,,,,,,,,,,,,,,,,,,,,,,,,,,,,,,,,,,,,,,,,,,,,,,,,,,,,,,,"[""comma""]",0,[0.34380000001192457],6,0,6,0,1,,
,,,,,,,,,,,,60cb82b9065703e89e7211a0,19,Mężczyzna,2022-06-11_09h40.05.766,task,2021.1.4,Win32,74.97375918,6299f149e92ead563fba08ef,62a441d5f8ca17fcfab2d5b1,,,,,,,,,,,,,,,,,,,,,,,,,,,,,,,,,,,,,,,,,,,,,,,,,,,,,,,,,,,,,,,,,,,,,,,,,,,,,,,,,,,,,,,,,,,,"[""comma""]",0,[0.30150000000003274],7,0,7,0,1,,
,,,,,,,,,,,,60cb82b9065703e89e7211a0,19,Mężczyzna,2022-06-11_09h40.05.766,task,2021.1.4,Win32,74.97375918,6299f149e92ead563fba08ef,62a441d5f8ca17fcfab2d5b1,,,,,,,,,,,,,,,,,,,,,,,,,,,,,,,,,,,,,,,,,,,,,,,,,,,,,,,,,,,,,,,,,,,,,,,,,,,,,,,,,,,,,,,,,,,,"[""comma""]",0,[0.2789000000059332],8,0,8,0,1,,
,,,,,,,,,,,,60cb82b9065703e89e7211a0,19,Mężczyzna,2022-06-11_09h40.05.766,task,2021.1.4,Win32,74.97375918,6299f149e92ead563fba08ef,62a441d5f8ca17fcfab2d5b1,,,,,,,,,,,,,,,,,,,,,,,,,,,,,,,,,,,,,,,,,,,,,,,,,,,,,,,,,,,,,,,,,,,,,,,,,,,,,,,,,,,,,,,,,,,,"[""comma""]",0,[0.2477999999819076],9,0,9,0,1,,
,,,,,,,,,,,,60cb82b9065703e89e7211a0,19,Mężczyzna,2022-06-11_09h40.05.766,task,2021.1.4,Win32,74.97375918,6299f149e92ead563fba08ef,62a441d5f8ca17fcfab2d5b1,,,,,,,,,,,,,,,,,,,,,,,,,,,,,,,,,,,,,,,,,,,,,,,,,,,,,,,,,,,,,,,,,,,,,,,,,,,,,,,,,,,,,,,,,,,,"[""comma""]",0,[0.3661999999881118],10,0,10,0,1,,
,,,,,,,,,,,,60cb82b9065703e89e7211a0,19,Mężczyzna,2022-06-11_09h40.05.766,task,2021.1.4,Win32,74.97375918,6299f149e92ead563fba08ef,62a441d5f8ca17fcfab2d5b1,,,,,,,,,,,,,,,,,,,,,,,,,,,,,,,,,,,,,,,,,,,,,,,,,,,,,,,,,,,,,,,,,,,,,,,,,,,,,,,,,,,,,,,,,,,,"[""comma""]",0,[0.2868000000119082],11,0,11,0,1,,
,,,,,,,,,,,,60cb82b9065703e89e7211a0,19,Mężczyzna,2022-06-11_09h40.05.766,task,2021.1.4,Win32,74.97375918,6299f149e92ead563fba08ef,62a441d5f8ca17fcfab2d5b1,,,,,,,,,,,,,,,,,,,,,,,,,,,,,,,,,,,,,,,,,,,,,,,,,,,,,,,,,,,,,,,,,,,,,,,,,,,,,,,,,,,,,,,,,,,,"[""comma""]",0,[0.06620000001794324],12,0,12,0,1,,
,,,,,,,,,,,,60cb82b9065703e89e7211a0,19,Mężczyzna,2022-06-11_09h40.05.766,task,2021.1.4,Win32,74.97375918,6299f149e92ead563fba08ef,62a441d5f8ca17fcfab2d5b1,,,,,,,,,,,,,,,,,,,,,,,,,,,,,,,,,,,,,,,,,,,,,,,,,,,,,,,,,,,,,,,,,,,,,,,,,,,,,,,,,,,,,,,,,,,,"[""comma""]",0,[0.2733999999761636],13,0,13,0,1,,
,,,,,,,,,,,,60cb82b9065703e89e7211a0,19,Mężczyzna,2022-06-11_09h40.05.766,task,2021.1.4,Win32,74.97375918,6299f149e92ead563fba08ef,62a441d5f8ca17fcfab2d5b1,,,,,,,,,,,,,,,,,,,,,,,,,,,,,,,,,,,,,,,,,,,,,,,,,,,,,,,,,,,,,,,,,,,,,,,,,,,,,,,,,,,,,,,,,,,,"[""comma""]",0,[0.28599999999983083],14,0,14,0,1,,
,,,,,,,,,,,,60cb82b9065703e89e7211a0,19,Mężczyzna,2022-06-11_09h40.05.766,task,2021.1.4,Win32,74.97375918,6299f149e92ead563fba08ef,62a441d5f8ca17fcfab2d5b1,,,,,,,,,,,,,,,,,,,,,,,,,,,,,,,,,,,,,,,,,,,,,,,,,,,,,,,,,,,,,,,,,,,,,,,,,,,,,,,,,,,,,,,,,,,,"[""comma""]",0,[0.26140000000600594],15,0,15,0,1,,
,,,,,,,,,,,,60cb82b9065703e89e7211a0,19,Mężczyzna,2022-06-11_09h40.05.766,task,2021.1.4,Win32,74.97375918,6299f149e92ead563fba08ef,62a441d5f8ca17fcfab2d5b1,,,,,,,,,,,,,,,,,,,,,,,,,,,,,,,,,,,,,,,,,,,,,,,,,,,,,,,,,,,,,,,,,,,,,,,,,,,,,,,,,,,,,,,,,,,,"[""comma""]",0,[0.2655999999940377],16,0,16,0,1,,
,,,,,,,,,,,,60cb82b9065703e89e7211a0,19,Mężczyzna,2022-06-11_09h40.05.766,task,2021.1.4,Win32,74.97375918,6299f149e92ead563fba08ef,62a441d5f8ca17fcfab2d5b1,,,,,,,,,,,,,,,,,,,,,,,,,,,,,,,,,,,,,,,,,,,,,,,,,,,,,,,,,,,,,,,,,,,,,,,,,,,,,,,,,,,,,,,,,,,,"[""comma""]",0,[0.31359999999403954],17,0,17,0,1,,
,,,,,,,,,,,,60cb82b9065703e89e7211a0,19,Mężczyzna,2022-06-11_09h40.05.766,task,2021.1.4,Win32,74.97375918,6299f149e92ead563fba08ef,62a441d5f8ca17fcfab2d5b1,,,,,,,,,,,,,,,,,,,,,,,,,,,,,,,,,,,,,,,,,,,,,,,,,,,,,,,,,,,,,,,,,,,,,,,,,,,,,,,,,,,,,,,,,,,,"[""comma""]",0,[0.30600000000004],18,0,18,0,1,,
,,,,,,,,,,,,60cb82b9065703e89e7211a0,19,Mężczyzna,2022-06-11_09h40.05.766,task,2021.1.4,Win32,74.97375918,6299f149e92ead563fba08ef,62a441d5f8ca17fcfab2d5b1,,,,,,,,,,,,,,,,,,,,,,,,,,,,,,,,,,,,,,,,,,,,,,,,,,,,,,,,,,,,,,,,,,,,,,,,,,,,,,,,,,,,,,,,,,,,"[""comma""]",0,[0.2504000000058113],19,0,19,0,1,,
,,,,,,,,,,,,60cb82b9065703e89e7211a0,19,Mężczyzna,2022-06-11_09h40.05.766,task,2021.1.4,Win32,74.97375918,6299f149e92ead563fba08ef,62a441d5f8ca17fcfab2d5b1,,,,,,,,,,,,,,,,,,,,,,,,,,,,,,,,,,,,,,,,,,,,,,,,,,,,,,,,,,,,,,,,,,,,,,,,,,,,,,,,,,,,,,,,,,,,"[""comma""]",0,[0.28899999999998727],20,0,20,0,1,,
,,,,,,,,,,,,60cb82b9065703e89e7211a0,19,Mężczyzna,2022-06-11_09h40.05.766,task,2021.1.4,Win32,74.97375918,6299f149e92ead563fba08ef,62a441d5f8ca17fcfab2d5b1,,,,,,,,,,,,,,,,,,,,,,,,,,,,,,,,,,,,,,,,,,,,,,,,,,,,,,,,,,,,,,,,,,,,,,,,,,,,,,,,,,,,,,,,,,,,"[""comma""]",0,[0.21919999998794992],21,0,21,0,1,,
,,,,,,,,,,,,60cb82b9065703e89e7211a0,19,Mężczyzna,2022-06-11_09h40.05.766,task,2021.1.4,Win32,74.97375918,6299f149e92ead563fba08ef,62a441d5f8ca17fcfab2d5b1,,,,,,,,,,,,,,,,,,,,,,,,,,,,,,,,,,,,,,,,,,,,,,,,,,,,,,,,,,,,,,,,,,,,,,,,,,,,,,,,,,,,,,,,,,,,"[""comma""]",0,[0.2755999999940286],22,0,22,0,1,,
,,,,,,,,,,,,60cb82b9065703e89e7211a0,19,Mężczyzna,2022-06-11_09h40.05.766,task,2021.1.4,Win32,74.97375918,6299f149e92ead563fba08ef,62a441d5f8ca17fcfab2d5b1,,,,,,,,,,,,,,,,,,,,,,,,,,,,,,,,,,,,,,,,,,,,,,,,,,,,,,,,,,,,,,,,,,,,,,,,,,,,,,,,,,,,,,,,,,,,"[""comma""]",0,[0.22690000000602595],23,0,23,0,1,,
,,,,,,,,,,,,60cb82b9065703e89e7211a0,19,Mężczyzna,2022-06-11_09h40.05.766,task,2021.1.4,Win32,74.97375918,6299f149e92ead563fba08ef,62a441d5f8ca17fcfab2d5b1,,,,,,,,,,,,,,,,,,,,,,,,,,,,,,,,,,,,,,,,,,,,,,,,,,,,,,,,,,,,,,,,,,,,,,,,,,,,,,,,,,,,,,,,,,,,"[""comma""]",0,[0.25919999998791354],24,0,24,0,1,,
,,,,,,,,,,,,60cb82b9065703e89e7211a0,19,Mężczyzna,2022-06-11_09h40.05.766,task,2021.1.4,Win32,74.97375918,6299f149e92ead563fba08ef,62a441d5f8ca17fcfab2d5b1,,,,,,,,,,,,,,,,,,,,,,,,,,,,,,,,,,,,,,,,,,,,,,,,,,,,,,,,,,,,,,,,,,,,,,,,,,,,,,,,,,,,,,,,,,,,"[""comma""]",0,[0.26180000001181725],25,0,25,0,1,,
,,,,,,,,,,,,60cb82b9065703e89e7211a0,19,Mężczyzna,2022-06-11_09h40.05.766,task,2021.1.4,Win32,74.97375918,6299f149e92ead563fba08ef,62a441d5f8ca17fcfab2d5b1,,,,,,,,,,,,,,,,,,,,,,,,,,,,,,,,,,,,,,,,,,,,,,,,,,,,,,,,,,,,,,,,,,,,,,,,,,,,,,,,,,,,,,,,,,,,"[""comma""]",0,[0.26030000001173903],26,0,26,0,1,,
,,,,,,,,,,,,60cb82b9065703e89e7211a0,19,Mężczyzna,2022-06-11_09h40.05.766,task,2021.1.4,Win32,74.97375918,6299f149e92ead563fba08ef,62a441d5f8ca17fcfab2d5b1,,,,,,,,,,,,,,,,,,,,,,,,,,,,,,,,,,,,,,,,,,,,,,,,,,,,,,,,,,,,,,,,,,,,,,,,,,,,,,,,,,,,,,,,,,,,"[""comma""]",0,[0.30140000000596956],27,0,27,0,1,,
,,,,,,,,,,,,60cb82b9065703e89e7211a0,19,Mężczyzna,2022-06-11_09h40.05.766,task,2021.1.4,Win32,74.97375918,6299f149e92ead563fba08ef,62a441d5f8ca17fcfab2d5b1,,,,,,,,,,,,,,,,,,,,,,,,,,,,,,,,,,,,,,,,,,,,,,,,,,,,,,,,,,,,,,,,,,,,,,,,,,,,,,,,,,,,,,,,,,,,"[""comma""]",0,[0.3040000000000873],28,0,28,0,1,,
,,,,,,,,,,,,60cb82b9065703e89e7211a0,19,Mężczyzna,2022-06-11_09h40.05.766,task,2021.1.4,Win32,74.97375918,6299f149e92ead563fba08ef,62a441d5f8ca17fcfab2d5b1,,,,,,,,,,,,,,,,,,,,,,,,,,,,,,,,,,,,,,,,,,,,,,,,,,,,,,,,,,,,,,,,,,,,,,,,,,,,,,,,,,,,,,,,,,,,"[""comma""]",0,[0.25080000001207736],29,0,29,0,1,,
,,,,,,,,,,,,60cb82b9065703e89e7211a0,19,Mężczyzna,2022-06-11_09h40.05.766,task,2021.1.4,Win32,74.97375918,6299f149e92ead563fba08ef,62a441d5f8ca17fcfab2d5b1,,,,,,,,,,,,,,,,,,,,,,,,,,,,,,,,,,,,,,,,,,,,,,,,,,,,,,,,,,,,,,,,,,,,,,,,,,,,,,,,,,,,,,,,,,,,"[""period""]",0,[0.7424000000060005],30,0,30,0,1,,
,,,,,,,,,,,,60cb82b9065703e89e7211a0,19,Mężczyzna,2022-06-11_09h40.05.766,task,2021.1.4,Win32,74.97375918,6299f149e92ead563fba08ef,62a441d5f8ca17fcfab2d5b1,,,,,,,,,,,,,,,,,,,,,,,,,,,,,,,,,,,,,,,,,,,,,,,,,,,,,,,,,,,,,,,,,,,,,,,,,,,,,,,,,,,,,,,,,,,,"[""comma""]",0,[0.890199999987999],31,0,31,0,1,,
,,,,,,,,,,,,60cb82b9065703e89e7211a0,19,Mężczyzna,2022-06-11_09h40.05.766,task,2021.1.4,Win32,74.97375918,6299f149e92ead563fba08ef,62a441d5f8ca17fcfab2d5b1,,,,,,,,,,,,,,,,,,,,,,,,,,,,,,,,,,,,,,,,,,,,,,,,,,,,,,,,,,,,,,,,,,,,,,,,,,,,,,,,,,,,,,,,,,,,"[""comma"",""comma""]",0,"[0.35919999998804997,1.554599999994025]",32,0,32,0,1,,
,,,,,,,,,,,,60cb82b9065703e89e7211a0,19,Mężczyzna,2022-06-11_09h40.05.766,task,2021.1.4,Win32,74.97375918,6299f149e92ead563fba08ef,62a441d5f8ca17fcfab2d5b1,,,,,,,,,,,,,,,,,,,,,,,,,,,,,,,,,,,,,,,,,,,,,,,,,,,,,,,,,,,,,,,,,,,,,,,,,,,,,,,,,,,,,,,,,,,,"[""comma""]",0,[0.438100000023951],33,0,33,0,1,,
,,,,,,,,,,,,60cb82b9065703e89e7211a0,19,Mężczyzna,2022-06-11_09h40.05.766,task,2021.1.4,Win32,74.97375918,6299f149e92ead563fba08ef,62a441d5f8ca17fcfab2d5b1,,,,,,,,,,,,,,,,,,,,,,,,,,,,,,,,,,,,,,,,,,,,,,,,,,,,,,,,,,,,,,,,,,,,,,,,,,,,,,,,,,,,,,,,,,,,"[""comma""]",0,[0.7770999999938795],34,0,34,0,1,,
,,,,,,,,,,,,60cb82b9065703e89e7211a0,19,Mężczyzna,2022-06-11_09h40.05.766,task,2021.1.4,Win32,74.97375918,6299f149e92ead563fba08ef,62a441d5f8ca17fcfab2d5b1,,,,,,,,,,,,,,,,,,,,,,,,,,,,,,,,,,,,,,,,,,,,,,,,,,,,,,,,,,,,,,,,,,,,,,,,,,,,,,,,,,,,,,,,,,,,"[""comma""]",0,[0.3548000000121192],35,0,35,0,1,,
,,,,,,,,,,,,60cb82b9065703e89e7211a0,19,Mężczyzna,2022-06-11_09h40.05.766,task,2021.1.4,Win32,74.97375918,6299f149e92ead563fba08ef,62a441d5f8ca17fcfab2d5b1,,,,,,,,,,,,,,,,,,,,,,,,,,,,,,,,,,,,,,,,,,,,,,,,,,,,,,,,,,,,,,,,,,,,,,,,,,,,,,,,,,,,,,,,,,,,"[""comma""]",0,[0.5266000000237909],36,0,36,0,1,,
,,,,,,,,,,,,60cb82b9065703e89e7211a0,19,Mężczyzna,2022-06-11_09h40.05.766,task,2021.1.4,Win32,74.97375918,6299f149e92ead563fba08ef,62a441d5f8ca17fcfab2d5b1,,,,,,,,,,,,,,,,,,,,,,,,,,,,,,,,,,,,,,,,,,,,,,,,,,,,,,,,,,,,,,,,,,,,,,,,,,,,,,,,,,,,,,,,,,,,"[""comma""]",0,[0.38240000000587315],37,0,37,0,1,,
,,,,,,,,,,,,60cb82b9065703e89e7211a0,19,Mężczyzna,2022-06-11_09h40.05.766,task,2021.1.4,Win32,74.97375918,6299f149e92ead563fba08ef,62a441d5f8ca17fcfab2d5b1,,,,,,,,,,,,,,,,,,,,,,,,,,,,,,,,,,,,,,,,,,,,,,,,,,,,,,,,,,,,,,,,,,,,,,,,,,,,,,,,,,,,,,,,,,,,"[""comma""]",0,[0.3433000000120501],38,0,38,0,1,,
,,,,,,,,,,,,60cb82b9065703e89e7211a0,19,Mężczyzna,2022-06-11_09h40.05.766,task,2021.1.4,Win32,74.97375918,6299f149e92ead563fba08ef,62a441d5f8ca17fcfab2d5b1,,,,,,,,,,,,,,,,,,,,,,,,,,,,,,,,,,,,,,,,,,,,,,,,,,,,,,,,,,,,,,,,,,,,,,,,,,,,,,,,,,,,,,,,,,,,"[""comma""]",0,[0.354099999994105],39,0,39,0,1,,
,,,,,,,,,,,,60cb82b9065703e89e7211a0,19,Mężczyzna,2022-06-11_09h40.05.766,task,2021.1.4,Win32,74.97375918,6299f149e92ead563fba08ef,62a441d5f8ca17fcfab2d5b1,,,,,,,,,,,,,,,,,,,,,,,,,,,,,,,,,,,,,,,,,,,,,,,,,,,,,,,,,,,,,,,,,,,,,,,,,,,,,,,,,,,,,,,,,,,,"[""comma""]",0,[0.3694000000059532],40,0,40,0,1,,
,,,,,,,,,,,,60cb82b9065703e89e7211a0,19,Mężczyzna,2022-06-11_09h40.05.766,task,2021.1.4,Win32,74.97375918,6299f149e92ead563fba08ef,62a441d5f8ca17fcfab2d5b1,,,,,,,,,,,,,,,,,,,,,,,,,,,,,,,,,,,,,,,,,,,,,,,,,,,,,,,,,,,,,,,,,,,,,,,,,,,,,,,,,,,,,,,,,,,,"[""comma""]",0,[0.5023999999762054],41,0,41,0,1,,
,,,,,,,,,,,,60cb82b9065703e89e7211a0,19,Mężczyzna,2022-06-11_09h40.05.766,task,2021.1.4,Win32,74.97375918,6299f149e92ead563fba08ef,62a441d5f8ca17fcfab2d5b1,,,,,,,,,,,,,,,,,,,,,,,,,,,,,,,,,,,,,,,,,,,,,,,,,,,,,,,,,,,,,,,,,,,,,,,,,,,,,,,,,,,,,,,,,,,,"[""comma""]",0,[0.3930000000000291],42,0,42,0,1,,
,,,,,,,,,,,,60cb82b9065703e89e7211a0,19,Mężczyzna,2022-06-11_09h40.05.766,task,2021.1.4,Win32,74.97375918,6299f149e92ead563fba08ef,62a441d5f8ca17fcfab2d5b1,,,,,,,,,,,,,,,,,,,,,,,,,,,,,,,,,,,,,,,,,,,,,,,,,,,,,,,,,,,,,,,,,,,,,,,,,,,,,,,,,,,,,,,,,,,,"[""comma""]",0,[0.23340000000598593],43,0,43,0,1,,
,,,,,,,,,,,,60cb82b9065703e89e7211a0,19,Mężczyzna,2022-06-11_09h40.05.766,task,2021.1.4,Win32,74.97375918,6299f149e92ead563fba08ef,62a441d5f8ca17fcfab2d5b1,,,,,,,,,,,,,,,,,,,,,,,,,,,,,,,,,,,,,,,,,,,,,,,,,,,,,,,,,,,,,,,,,,,,,,,,,,,,,,,,,,,,,,,,,,,,"[""comma""]",0,[0.2759000000060041],44,0,44,0,1,,
,,,,,,,,,,,,60cb82b9065703e89e7211a0,19,Mężczyzna,2022-06-11_09h40.05.766,task,2021.1.4,Win32,74.97375918,6299f149e92ead563fba08ef,62a441d5f8ca17fcfab2d5b1,,,,,,,,,,,,,,,,,,,,,,,,,,,,,,,,,,,,,,,,,,,,,,,,,,,,,,,,,,,,,,,,,,,,,,,,,,,,,,,,,,,,,,,,,,,,"[""comma""]",0,[0.27740000000585496],45,0,45,0,1,,
,,,,,,,,,,,,60cb82b9065703e89e7211a0,19,Mężczyzna,2022-06-11_09h40.05.766,task,2021.1.4,Win32,74.97375918,6299f149e92ead563fba08ef,62a441d5f8ca17fcfab2d5b1,,,,,,,,,,,,,,,,,,,,,,,,,,,,,,,,,,,,,,,,,,,,,,,,,,,,,,,,,,,,,,,,,,,,,,,,,,,,,,,,,,,,,,,,,,,,"[""comma""]",0,[0.2624000000059823],46,0,46,0,1,,
,,,,,,,,,,,,60cb82b9065703e89e7211a0,19,Mężczyzna,2022-06-11_09h40.05.766,task,2021.1.4,Win32,74.97375918,6299f149e92ead563fba08ef,62a441d5f8ca17fcfab2d5b1,,,,,,,,,,,,,,,,,,,,,,,,,,,,,,,,,,,,,,,,,,,,,,,,,,,,,,,,,,,,,,,,,,,,,,,,,,,,,,,,,,,,,,,,,,,,"[""comma""]",0,[0.27390000000582404],47,0,47,0,1,,
,,,,,,,,,,,,60cb82b9065703e89e7211a0,19,Mężczyzna,2022-06-11_09h40.05.766,task,2021.1.4,Win32,74.97375918,6299f149e92ead563fba08ef,62a441d5f8ca17fcfab2d5b1,,,,,,,,,,,,,,,,,,,,,,,,,,,,,,,,,,,,,,,,,,,,,,,,,,,,,,,,,,,,,,,,,,,,,,,,,,,,,,,,,,,,,,,,,,,,"[""comma"",""comma""]",0,"[0.262799999982235,0.3967999999822496]",48,0,48,0,1,,
,,,,,,,,,,,,60cb82b9065703e89e7211a0,19,Mężczyzna,2022-06-11_09h40.05.766,task,2021.1.4,Win32,74.97375918,6299f149e92ead563fba08ef,62a441d5f8ca17fcfab2d5b1,,,,,,,,,,,,,,,,,,,,,,,,,,,,,,,,,,,,,,,,,,,,,,,,,,,,,,,,,,,,,,,,,,,,,,,,,,,,,,,,,,,,,,,,,,,,"[""comma""]",0,[0.48730000001182816],49,0,49,0,1,,
,,,,,,,,,,,,60cb82b9065703e89e7211a0,19,Mężczyzna,2022-06-11_09h40.05.766,task,2021.1.4,Win32,74.97375918,6299f149e92ead563fba08ef,62a441d5f8ca17fcfab2d5b1,,,,,,,,,,,,,,,,,,,,,,,,,,,,,,,,,,,,,,,,,,,,,,,,,,,,,,,,,,,,,,,,,,,,,,,,,,,,,,,,,,,,,,,,,,,,"[""comma""]",0,[0.3798000000119828],50,0,50,0,1,,
,,,,,,,,,,,,60cb82b9065703e89e7211a0,19,Mężczyzna,2022-06-11_09h40.05.766,task,2021.1.4,Win32,74.97375918,6299f149e92ead563fba08ef,62a441d5f8ca17fcfab2d5b1,,,,,,,,,,,,,,,,,,,,,,,,,,,,,,,,,,,,,,,,,,,,,,,,,,,,,,,,,,,,,,,,,,,,,,,,,,,,,,,,,,,,,,,,,,,,"[""comma""]",0,[0.28899999999998727],51,0,51,0,1,,
,,,,,,,,,,,,60cb82b9065703e89e7211a0,19,Mężczyzna,2022-06-11_09h40.05.766,task,2021.1.4,Win32,74.97375918,6299f149e92ead563fba08ef,62a441d5f8ca17fcfab2d5b1,,,,,,,,,,,,,,,,,,,,,,,,,,,,,,,,,,,,,,,,,,,,,,,,,,,,,,,,,,,,,,,,,,,,,,,,,,,,,,,,,,,,,,,,,,,,"[""comma""]",0,[0.3161999999881573],52,0,52,0,1,,
,,,,,,,,,,,,60cb82b9065703e89e7211a0,19,Mężczyzna,2022-06-11_09h40.05.766,task,2021.1.4,Win32,74.97375918,6299f149e92ead563fba08ef,62a441d5f8ca17fcfab2d5b1,,,,,,,,,,,,,,,,,,,,,,,,,,,,,,,,,,,,,,,,,,,,,,,,,,,,,,,,,,,,,,,,,,,,,,,,,,,,,,,,,,,,,,,,,,,,"[""comma""]",0,[0.2998999999761054],53,0,53,0,1,,
,,,,,,,,,,,,60cb82b9065703e89e7211a0,19,Mężczyzna,2022-06-11_09h40.05.766,task,2021.1.4,Win32,74.97375918,6299f149e92ead563fba08ef,62a441d5f8ca17fcfab2d5b1,,,,,,,,,,,,,,,,,,,,,,,,,,,,,,,,,,,,,,,,,,,,,,,,,,,,,,,,,,,,,,,,,,,,,,,,,,,,,,,,,,,,,,,,,,,,"[""comma""]",0,[0.3186999999879845],54,0,54,0,1,,
,,,,,,,,,,,,60cb82b9065703e89e7211a0,19,Mężczyzna,2022-06-11_09h40.05.766,task,2021.1.4,Win32,74.97375918,6299f149e92ead563fba08ef,62a441d5f8ca17fcfab2d5b1,,,,,,,,,,,,,,,,,,,,,,,,,,,,,,,,,,,,,,,,,,,,,,,,,,,,,,,,,,,,,,,,,,,,,,,,,,,,,,,,,,,,,,,,,,,,"[""comma""]",0,[0.27180000001180815],55,0,55,0,1,,
,,,,,,,,,,,,60cb82b9065703e89e7211a0,19,Mężczyzna,2022-06-11_09h40.05.766,task,2021.1.4,Win32,74.97375918,6299f149e92ead563fba08ef,62a441d5f8ca17fcfab2d5b1,,,,,,,,,,,,,,,,,,,,,,,,,,,,,,,,,,,,,,,,,,,,,,,,,,,,,,,,,,,,,,,,,,,,,,,,,,,,,,,,,,,,,,,,,,,,"[""comma""]",0,[0.3124000000059368],56,0,56,0,1,,
,,,,,,,,,,,,60cb82b9065703e89e7211a0,19,Mężczyzna,2022-06-11_09h40.05.766,task,2021.1.4,Win32,74.97375918,6299f149e92ead563fba08ef,62a441d5f8ca17fcfab2d5b1,,,,,,,,,,,,,,,,,,,,,,,,,,,,,,,,,,,,,,,,,,,,,,,,,,,,,,,,,,,,,,,,,,,,,,,,,,,,,,,,,,,,,,,,,,,,"[""comma""]",0,[0.21909999999411411],57,0,57,0,1,,
,,,,,,,,,,,,60cb82b9065703e89e7211a0,19,Mężczyzna,2022-06-11_09h40.05.766,task,2021.1.4,Win32,74.97375918,6299f149e92ead563fba08ef,62a441d5f8ca17fcfab2d5b1,,,,,,,,,,,,,,,,,,,,,,,,,,,,,,,,,,,,,,,,,,,,,,,,,,,,,,,,,,,,,,,,,,,,,,,,,,,,,,,,,,,,,,,,,,,,"[""comma""]",0,[0.2756000000238146],58,0,58,0,1,,
,,,,,,,,,,,,60cb82b9065703e89e7211a0,19,Mężczyzna,2022-06-11_09h40.05.766,task,2021.1.4,Win32,74.97375918,6299f149e92ead563fba08ef,62a441d5f8ca17fcfab2d5b1,,,,,,,,,,,,,,,,,,,,,,,,,,,,,,,,,,,,,,,,,,,,,,,,,,,,,,,,,,,,,,,,,,,,,,,,,,,,,,,,,,,,,,,,,,,,"[""comma""]",0,[0.25090000000591317],59,0,59,0,1,,
,,,,,,,,,,,,60cb82b9065703e89e7211a0,19,Mężczyzna,2022-06-11_09h40.05.766,task,2021.1.4,Win32,74.97375918,6299f149e92ead563fba08ef,62a441d5f8ca17fcfab2d5b1,,,,,,,,,,,,,,,,,,,,,,,,,,,,,,,,,,,,,,,,,,,,,,,,,,,,,,,,,,,,,,,,,,,,,,,,,,,,,,,,,,,,,,,,,,,,"[""comma""]",0,[0.26299999999991996],60,0,60,0,1,,
,,,,,,,,,,,,60cb82b9065703e89e7211a0,19,Mężczyzna,2022-06-11_09h40.05.766,task,2021.1.4,Win32,74.97375918,6299f149e92ead563fba08ef,62a441d5f8ca17fcfab2d5b1,,,,,,,,,,,,,,,,,,,,,,,,,,,,,,,,,,,,,,,,,,,,,,,,,,,,,,,,,,,,,,,,,,,,,,,,,,,,,,,,,,,,,,,,,,,,"[""comma""]",0,[0.2615000000000691],61,0,61,0,1,,
,,,,,,,,,,,,60cb82b9065703e89e7211a0,19,Mężczyzna,2022-06-11_09h40.05.766,task,2021.1.4,Win32,74.97375918,6299f149e92ead563fba08ef,62a441d5f8ca17fcfab2d5b1,,,,,,,,,,,,,,,,,,,,,,,,,,,,,,,,,,,,,,,,,,,,,,,,,,,,,,,,,,,,,,,,,,,,,,,,,,,,,,,,,,,,,,,,,,,,"[""comma""]",0,[0.2764999999999418],62,0,62,0,1,,
,,,,,,,,,,,,60cb82b9065703e89e7211a0,19,Mężczyzna,2022-06-11_09h40.05.766,task,2021.1.4,Win32,74.97375918,6299f149e92ead563fba08ef,62a441d5f8ca17fcfab2d5b1,,,,,,,,,,,,,,,,,,,,,,,,,,,,,,,,,,,,,,,,,,,,,,,,,,,,,,,,,,,,,,,,,,,,,,,,,,,,,,,,,,,,,,,,,,,,"[""comma""]",0,[0.24920000001793596],63,0,63,0,1,,
,,,,,,,,,,,,60cb82b9065703e89e7211a0,19,Mężczyzna,2022-06-11_09h40.05.766,task,2021.1.4,Win32,74.97375918,6299f149e92ead563fba08ef,62a441d5f8ca17fcfab2d5b1,,,,,,,,,,,,,,,,,,,,,,,,,,,,,,,,,,,,,,,,,,,,,,,,,,,,,,,,,,,,,,,,,,,,,,,,,,,,,,,,,,,,,,,,,,,,"[""comma""]",0,[0.2515999999941414],64,0,64,0,1,,
,,,,,,,,,,,,60cb82b9065703e89e7211a0,19,Mężczyzna,2022-06-11_09h40.05.766,task,2021.1.4,Win32,74.97375918,6299f149e92ead563fba08ef,62a441d5f8ca17fcfab2d5b1,,,,,,,,,,,,,,,,,,,,,,,,,,,,,,,,,,,,,,,,,,,,,,,,,,,,,,,,,,,,,,,,,,,,,,,,,,,,,,,,,,,,,,,,,,,,"[""comma""]",0,[0.2535999999940941],65,0,65,0,1,,
,,,,,,,,,,,,60cb82b9065703e89e7211a0,19,Mężczyzna,2022-06-11_09h40.05.766,task,2021.1.4,Win32,74.97375918,6299f149e92ead563fba08ef,62a441d5f8ca17fcfab2d5b1,,,,,,,,,,,,,,,,,,,,,,,,,,,,,,,,,,,,,,,,,,,,,,,,,,,,,,,,,,,,,,,,,,,,,,,,,,,,,,,,,,,,,,,,,,,,"[""comma""]",0,[0.2897999999820513],66,0,66,0,1,,
,,,,,,,,,,,,60cb82b9065703e89e7211a0,19,Mężczyzna,2022-06-11_09h40.05.766,task,2021.1.4,Win32,74.97375918,6299f149e92ead563fba08ef,62a441d5f8ca17fcfab2d5b1,,,,,,,,,,,,,,,,,,,,,,,,,,,,,,,,,,,,,,,,,,,,,,,,,,,,,,,,,,,,,,,,,,,,,,,,,,,,,,,,,,,,,,,,,,,,"[""comma""]",0,[0.3007000000179687],67,0,67,0,1,,
,,,,,,,,,,,,60cb82b9065703e89e7211a0,19,Mężczyzna,2022-06-11_09h40.05.766,task,2021.1.4,Win32,74.97375918,6299f149e92ead563fba08ef,62a441d5f8ca17fcfab2d5b1,,,,,,,,,,,,,,,,,,,,,,,,,,,,,,,,,,,,,,,,,,,,,,,,,,,,,,,,,,,,,,,,,,,,,,,,,,,,,,,,,,,,,,,,,,,,"[""comma""]",0,[0.2644999999999982],68,0,68,0,1,,
,,,,,,,,,,,,60cb82b9065703e89e7211a0,19,Mężczyzna,2022-06-11_09h40.05.766,task,2021.1.4,Win32,74.97375918,6299f149e92ead563fba08ef,62a441d5f8ca17fcfab2d5b1,,,,,,,,,,,,,,,,,,,,,,,,,,,,,,,,,,,,,,,,,,,,,,,,,,,,,,,,,,,,,,,,,,,,,,,,,,,,,,,,,,,,,,,,,,,,"[""comma""]",0,[0.28509999999414504],69,0,69,0,1,,
,,,,,,,,,,,,60cb82b9065703e89e7211a0,19,Mężczyzna,2022-06-11_09h40.05.766,task,2021.1.4,Win32,74.97375918,6299f149e92ead563fba08ef,62a441d5f8ca17fcfab2d5b1,,,,,,,,,,,,,,,,,,,,,,,,,,,,,,,,,,,,,,,,,,,,,,,,,,,,,,,,,,,,,,,,,,,,,,,,,,,,,,,,,,,,,,,,,,,,"[""comma""]",0,[0.2367000000178905],70,0,70,0,1,,
,,,,,,,,,,,,60cb82b9065703e89e7211a0,19,Mężczyzna,2022-06-11_09h40.05.766,task,2021.1.4,Win32,74.97375918,6299f149e92ead563fba08ef,62a441d5f8ca17fcfab2d5b1,,,,,,,,,,,,,,,,,,,,,,,,,,,,,,,,,,,,,,,,,,,,,,,,,,,,,,,,,,,,,,,,,,,,,,,,,,,,,,,,,,,,,,,,,,,,"[""comma""]",0,[0.26079999998205494],71,0,71,0,1,,
,,,,,,,,,,,,60cb82b9065703e89e7211a0,19,Mężczyzna,2022-06-11_09h40.05.766,task,2021.1.4,Win32,74.97375918,6299f149e92ead563fba08ef,62a441d5f8ca17fcfab2d5b1,,,,,,,,,,,,,,,,,,,,,,,,,,,,,,,,,,,,,,,,,,,,,,,,,,,,,,,,,,,,,,,,,,,,,,,,,,,,,,,,,,,,,,,,,,,,"[""comma""]",0,[0.3032000000180233],72,0,72,0,1,,
,,,,,,,,,,,,60cb82b9065703e89e7211a0,19,Mężczyzna,2022-06-11_09h40.05.766,task,2021.1.4,Win32,74.97375918,6299f149e92ead563fba08ef,62a441d5f8ca17fcfab2d5b1,,,,,,,,,,,,,,,,,,,,,,,,,,,,,,,,,,,,,,,,,,,,,,,,,,,,,,,,,,,,,,,,,,,,,,,,,,,,,,,,,,,,,,,,,,,,"[""comma""]",0,[0.24850000000014916],73,0,73,0,1,,
,,,,,,,,,,,,60cb82b9065703e89e7211a0,19,Mężczyzna,2022-06-11_09h40.05.766,task,2021.1.4,Win32,74.97375918,6299f149e92ead563fba08ef,62a441d5f8ca17fcfab2d5b1,,,,,,,,,,,,,,,,,,,,,,,,,,,,,,,,,,,,,,,,,,,,,,,,,,,,,,,,,,,,,,,,,,,,,,,,,,,,,,,,,,,,,,,,,,,,"[""comma""]",0,[0.2864999999999327],74,0,74,0,1,,
,,,,,,,,,,,,60cb82b9065703e89e7211a0,19,Mężczyzna,2022-06-11_09h40.05.766,task,2021.1.4,Win32,74.97375918,6299f149e92ead563fba08ef,62a441d5f8ca17fcfab2d5b1,,,,,,,,,,,,,,,,,,,,,,,,,,,,,,,,,,,,,,,,,,,,,,,,,,,,,,,,,,,,,,,,,,,,,,,,,,,,,,,,,,,,,,,,,,,,"[""comma""]",0,[0.29899999999997817],75,0,75,0,1,,
,,,,,,,,,,,,60cb82b9065703e89e7211a0,19,Mężczyzna,2022-06-11_09h40.05.766,task,2021.1.4,Win32,74.97375918,6299f149e92ead563fba08ef,62a441d5f8ca17fcfab2d5b1,,,,,,,,,,,,,,,,,,,,,,,,,,,,,,,,,,,,,,,,,,,,,,,,,,,,,,,,,,,,,,,,,,,,,,,,,,,,,,,,,,,,,,,,,,,,"[""comma""]",0,[0.3145999999937885],76,0,76,0,1,,
,,,,,,,,,,,,60cb82b9065703e89e7211a0,19,Mężczyzna,2022-06-11_09h40.05.766,task,2021.1.4,Win32,74.97375918,6299f149e92ead563fba08ef,62a441d5f8ca17fcfab2d5b1,,,,,,,,,,,,,,,,,,,,,,,,,,,,,,,,,,,,,,,,,,,,,,,,,,,,,,,,,,,,,,,,,,,,,,,,,,,,,,,,,,,,,,,,,,,,"[""comma""]",0,[0.34480000001167355],77,0,77,0,1,,
,,,,,,,,,,,,60cb82b9065703e89e7211a0,19,Mężczyzna,2022-06-11_09h40.05.766,task,2021.1.4,Win32,74.97375918,6299f149e92ead563fba08ef,62a441d5f8ca17fcfab2d5b1,,,,,,,,,,,,,,,,,,,,,,,,,,,,,,,,,,,,,,,,,,,,,,,,,,,,,,,,,,,,,,,,,,,,,,,,,,,,,,,,,,,,,,,,,,,,"[""comma""]",0,[0.3397999999824606],78,0,78,0,1,,
,,,,,,,,,,,,60cb82b9065703e89e7211a0,19,Mężczyzna,2022-06-11_09h40.05.766,task,2021.1.4,Win32,74.97375918,6299f149e92ead563fba08ef,62a441d5f8ca17fcfab2d5b1,,,,,,,,,,,,,,,,,,,,,,,,,,,,,,,,,,,,,,,,,,,,,,,,,,,,,,,,,,,,,,,,,,,,,,,,,,,,,,,,,,,,,,,,,,,,"[""comma""]",0,[0.3129000000058113],79,0,79,0,1,,
,,,,,,,,,,,,60cb82b9065703e89e7211a0,19,Mężczyzna,2022-06-11_09h40.05.766,task,2021.1.4,Win32,74.97375918,6299f149e92ead563fba08ef,62a441d5f8ca17fcfab2d5b1,,,,,,,,,,,,,,,,,,,,,,,,,,,,,,,,,,,,,,,,,,,,,,,,,,,,,,,,,,,,,,,,,,,,,,,,,,,,,,,,,,,,,,,,,,,,"[""comma""]",0,[0.3127999999819622],80,0,80,0,1,,
,,,,,,,,,,,,60cb82b9065703e89e7211a0,19,Mężczyzna,2022-06-11_09h40.05.766,task,2021.1.4,Win32,74.97375918,6299f149e92ead563fba08ef,62a441d5f8ca17fcfab2d5b1,,,,,,,,,,,,,,,,,,,,,,,,,,,,,,,,,,,,,,,,,,,,,,,,,,,,,,,,,,,,,,,,,,,,,,,,,,,,,,,,,,,,,,,,,,,,"[""comma""]",0,[0.29309999999395586],81,0,81,0,1,,
,,,,,,,,,,,,60cb82b9065703e89e7211a0,19,Mężczyzna,2022-06-11_09h40.05.766,task,2021.1.4,Win32,74.97375918,6299f149e92ead563fba08ef,62a441d5f8ca17fcfab2d5b1,,,,,,,,,,,,,,,,,,,,,,,,,,,,,,,,,,,,,,,,,,,,,,,,,,,,,,,,,,,,,,,,,,,,,,,,,,,,,,,,,,,,,,,,,,,,"[""comma""]",0,[0.2588000000118882],82,0,82,0,1,,
,,,,,,,,,,,,60cb82b9065703e89e7211a0,19,Mężczyzna,2022-06-11_09h40.05.766,task,2021.1.4,Win32,74.97375918,6299f149e92ead563fba08ef,62a441d5f8ca17fcfab2d5b1,,,,,,,,,,,,,,,,,,,,,,,,,,,,,,,,,,,,,,,,,,,,,,,,,,,,,,,,,,,,,,,,,,,,,,,,,,,,,,,,,,,,,,,,,,,,"[""comma""]",0,[0.2595000000001164],83,0,83,0,1,,
,,,,,,,,,,,,60cb82b9065703e89e7211a0,19,Mężczyzna,2022-06-11_09h40.05.766,task,2021.1.4,Win32,74.97375918,6299f149e92ead563fba08ef,62a441d5f8ca17fcfab2d5b1,,,,,,,,,,,,,,,,,,,,,,,,,,,,,,,,,,,,,,,,,,,,,,,,,,,,,,,,,,,,,,,,,,,,,,,,,,,,,,,,,,,,,,,,,,,,"[""comma""]",0,[0.2460000000000946],84,0,84,0,1,,
,,,,,,,,,,,,60cb82b9065703e89e7211a0,19,Mężczyzna,2022-06-11_09h40.05.766,task,2021.1.4,Win32,74.97375918,6299f149e92ead563fba08ef,62a441d5f8ca17fcfab2d5b1,,,,,,,,,,,,,,,,,,,,,,,,,,,,,,,,,,,,,,,,,,,,,,,,,,,,,,,,,,,,,,,,,,,,,,,,,,,,,,,,,,,,,,,,,,,,"[""comma""]",0,[0.26640000000634245],85,0,85,0,1,,
,,,,,,,,,,,,60cb82b9065703e89e7211a0,19,Mężczyzna,2022-06-11_09h40.05.766,task,2021.1.4,Win32,74.97375918,6299f149e92ead563fba08ef,62a441d5f8ca17fcfab2d5b1,,,,,,,,,,,,,,,,,,,,,,,,,,,,,,,,,,,,,,,,,,,,,,,,,,,,,,,,,,,,,,,,,,,,,,,,,,,,,,,,,,,,,,,,,,,,"[""comma""]",0,[0.3000999999940177],86,0,86,0,1,,
,,,,,,,,,,,,60cb82b9065703e89e7211a0,19,Mężczyzna,2022-06-11_09h40.05.766,task,2021.1.4,Win32,74.97375918,6299f149e92ead563fba08ef,62a441d5f8ca17fcfab2d5b1,,,,,,,,,,,,,,,,,,,,,,,,,,,,,,,,,,,,,,,,,,,,,,,,,,,,,,,,,,,,,,,,,,,,,,,,,,,,,,,,,,,,,,,,,,,,"[""comma""]",0,[0.3128000000119755],87,0,87,0,1,,
,,,,,,,,,,,,60cb82b9065703e89e7211a0,19,Mężczyzna,2022-06-11_09h40.05.766,task,2021.1.4,Win32,74.97375918,6299f149e92ead563fba08ef,62a441d5f8ca17fcfab2d5b1,,,,,,,,,,,,,,,,,,,,,,,,,,,,,,,,,,,,,,,,,,,,,,,,,,,,,,,,,,,,,,,,,,,,,,,,,,,,,,,,,,,,,,,,,,,,"[""comma""]",0,[0.3012999999823478],88,0,88,0,1,,
,,,,,,,,,,,,60cb82b9065703e89e7211a0,19,Mężczyzna,2022-06-11_09h40.05.766,task,2021.1.4,Win32,74.97375918,6299f149e92ead563fba08ef,62a441d5f8ca17fcfab2d5b1,,,,,,,,,,,,,,,,,,,,,,,,,,,,,,,,,,,,,,,,,,,,,,,,,,,,,,,,,,,,,,,,,,,,,,,,,,,,,,,,,,,,,,,,,,,,"[""comma""]",0,[0.2606999999884465],89,0,89,0,1,,
,,,,,,,,,,,,60cb82b9065703e89e7211a0,19,Mężczyzna,2022-06-11_09h40.05.766,task,2021.1.4,Win32,74.97375918,6299f149e92ead563fba08ef,62a441d5f8ca17fcfab2d5b1,,,,,,,,,,,,,,,,,,,,,,,,,,,,,,,,,,,,,,,,,,,,,,,,,,,,,,,,,,,,,,,,,,,,,,,,,,,,,,,,,,,,,,,,,,,,"[""comma""]",0,[0.28749999999990905],90,0,90,0,1,,
,,,,,,,,,,,,60cb82b9065703e89e7211a0,19,Mężczyzna,2022-06-11_09h40.05.766,task,2021.1.4,Win32,74.97375918,6299f149e92ead563fba08ef,62a441d5f8ca17fcfab2d5b1,,,,,,,,,,,,,,,,,,,,,,,,,,,,,,,,,,,,,,,,,,,,,,,,,,,,,,,,,,,,,,,,,,,,,,,,,,,,,,,,,,,,,,,,,,,,"[""comma""]",0,[0.2739000000060514],91,0,91,0,1,,
,,,,,,,,,,,,60cb82b9065703e89e7211a0,19,Mężczyzna,2022-06-11_09h40.05.766,task,2021.1.4,Win32,74.97375918,6299f149e92ead563fba08ef,62a441d5f8ca17fcfab2d5b1,,,,,,,,,,,,,,,,,,,,,,,,,,,,,,,,,,,,,,,,,,,,,,,,,,,,,,,,,,,,,,,,,,,,,,,,,,,,,,,,,,,,,,,,,,,,"[""comma""]",0,[0.299700000017765],92,0,92,0,1,,
,,,,,,,,,,,,60cb82b9065703e89e7211a0,19,Mężczyzna,2022-06-11_09h40.05.766,task,2021.1.4,Win32,74.97375918,6299f149e92ead563fba08ef,62a441d5f8ca17fcfab2d5b1,,,,,,,,,,,,,,,,,,,,,,,,,,,,,,,,,,,,,,,,,,,,,,,,,,,,,,,,,,,,,,,,,,,,,,,,,,,,,,,,,,,,,,,,,,,,"[""comma""]",0,[0.3062999999820022],93,0,93,0,1,,
,,,,,,,,,,,,60cb82b9065703e89e7211a0,19,Mężczyzna,2022-06-11_09h40.05.766,task,2021.1.4,Win32,74.97375918,6299f149e92ead563fba08ef,62a441d5f8ca17fcfab2d5b1,,,,,,,,,,,,,,,,,,,,,,,,,,,,,,,,,,,,,,,,,,,,,,,,,,,,,,,,,,,,,,,,,,,,,,,,,,,,,,,,,,,,,,,,,,,,"[""comma""]",0,[0.2756000000235872],94,0,94,0,1,,
,,,,,,,,,,,,60cb82b9065703e89e7211a0,19,Mężczyzna,2022-06-11_09h40.05.766,task,2021.1.4,Win32,74.97375918,6299f149e92ead563fba08ef,62a441d5f8ca17fcfab2d5b1,,,,,,,,,,,,,,,,,,,,,,,,,,,,,,,,,,,,,,,,,,,,,,,,,,,,,,,,,,,,,,,,,,,,,,,,,,,,,,,,,,,,,,,,,,,,"[""comma""]",0,[0.2508999999763546],95,0,95,0,1,,
,,,,,,,,,,,,60cb82b9065703e89e7211a0,19,Mężczyzna,2022-06-11_09h40.05.766,task,2021.1.4,Win32,74.97375918,6299f149e92ead563fba08ef,62a441d5f8ca17fcfab2d5b1,,,,,,,,,,,,,,,,,,,,,,,,,,,,,,,,,,,,,,,,,,,,,,,,,,,,,,,,,,,,,,,,,,,,,,,,,,,,,,,,,,,,,,,,,,,,"[""comma""]",0,[0.2767999999823587],96,0,96,0,1,,
,,,,,,,,,,,,60cb82b9065703e89e7211a0,19,Mężczyzna,2022-06-11_09h40.05.766,task,2021.1.4,Win32,74.97375918,6299f149e92ead563fba08ef,62a441d5f8ca17fcfab2d5b1,,,,,,,,,,,,,,,,,,,,,,,,,,,,,,,,,,,,,,,,,,,,,,,,,,,,,,,,,,,,,,,,,,,,,,,,,,,,,,,,,,,,,,,,,,,,"[""comma""]",0,[0.2484999999996944],97,0,97,0,1,,
,,,,,,,,,,,,60cb82b9065703e89e7211a0,19,Mężczyzna,2022-06-11_09h40.05.766,task,2021.1.4,Win32,74.97375918,6299f149e92ead563fba08ef,62a441d5f8ca17fcfab2d5b1,,,,,,,,,,,,,,,,,,,,,,,,,,,,,,,,,,,,,,,,,,,,,,,,,,,,,,,,,,,,,,,,,,,,,,,,,,,,,,,,,,,,,,,,,,,,"[""comma""]",0,[0.2746000000238382],98,0,98,0,1,,
,,,,,,,,,,,,60cb82b9065703e89e7211a0,19,Mężczyzna,2022-06-11_09h40.05.766,task,2021.1.4,Win32,74.97375918,6299f149e92ead563fba08ef,62a441d5f8ca17fcfab2d5b1,,,,,,,,,,,,,,,,,,,,,,,,,,,,,,,,,,,,,,,,,,,,,,,,,,,,,,,,,,,,,,,,,,,,,,,,,,,,,,,,,,,,,,,,,,,,"[""comma""]",0,[0.23480000001200096],99,0,99,0,1,,
,,,,,,,,,,,,60cb82b9065703e89e7211a0,19,Mężczyzna,2022-06-11_09h40.05.766,task,2021.1.4,Win32,74.97375918,6299f149e92ead563fba08ef,62a441d5f8ca17fcfab2d5b1,,,,,,,,,,,,,,,,,,,,,,,,,,,,,,,,,,,,,,,,,,,,,,,,,,,,,,,,,,,,,,,,,,,,,,,,,,,,,,,,,,,,,,,,,,,,"[""comma""]",0,[0.24850000000014916],100,0,100,0,1,,
,,,,,,,,,,,,60cb82b9065703e89e7211a0,19,Mężczyzna,2022-06-11_09h40.05.766,task,2021.1.4,Win32,74.97375918,6299f149e92ead563fba08ef,62a441d5f8ca17fcfab2d5b1,,,,,,,,,,,,,,,,,,,,,,,,,,,,,,,,,,,,,,,,,,,,,,,,,,,,,,,,,,,,,,,,,,,,,,,,,,,,,,,,,,,,,,,,,,,,"[""comma""]",0,[0.22380000001157896],101,0,101,0,1,,
,,,,,,,,,,,,60cb82b9065703e89e7211a0,19,Mężczyzna,2022-06-11_09h40.05.766,task,2021.1.4,Win32,74.97375918,6299f149e92ead563fba08ef,62a441d5f8ca17fcfab2d5b1,,,,,,,,,,,,,,,,,,,,,,,,,,,,,,,,,,,,,,,,,,,,,,,,,,,,,,,,,,,,,,,,,,,,,,,,,,,,,,,,,,,,,,,,,,,,"[""comma""]",0,[0.35380000001214285],102,0,102,0,1,,
,,,,,,,,,,,,60cb82b9065703e89e7211a0,19,Mężczyzna,2022-06-11_09h40.05.766,task,2021.1.4,Win32,74.97375918,6299f149e92ead563fba08ef,62a441d5f8ca17fcfab2d5b1,,,,,,,,,,,,,,,,,,,,,,,,,,,,,,,,,,,,,,,,,,,,,,,,,,,,,,,,,,,,,,,,,,,,,,,,,,,,,,,,,,,,,,,,,,,,"[""comma""]",0,[0.287099999993643],103,0,103,0,1,,
,,,,,,,,,,,,60cb82b9065703e89e7211a0,19,Mężczyzna,2022-06-11_09h40.05.766,task,2021.1.4,Win32,74.97375918,6299f149e92ead563fba08ef,62a441d5f8ca17fcfab2d5b1,,,,,,,,,,,,,,,,,,,,,,,,,,,,,,,,,,,,,,,,,,,,,,,,,,,,,,,,,,,,,,,,,,,,,,,,,,,,,,,,,,,,,,,,,,,,"[""comma""]",0,[0.3042999999820495],104,0,104,0,1,,
,,,,,,,,,,,,60cb82b9065703e89e7211a0,19,Mężczyzna,2022-06-11_09h40.05.766,task,2021.1.4,Win32,74.97375918,6299f149e92ead563fba08ef,62a441d5f8ca17fcfab2d5b1,,,,,,,,,,,,,,,,,,,,,,,,,,,,,,,,,,,,,,,,,,,,,,,,,,,,,,,,,,,,,,,,,,,,,,,,,,,,,,,,,,,,,,,,,,,,"[""comma""]",0,[0.2864000000058695],105,0,105,0,1,,
,,,,,,,,,,,,60cb82b9065703e89e7211a0,19,Mężczyzna,2022-06-11_09h40.05.766,task,2021.1.4,Win32,74.97375918,6299f149e92ead563fba08ef,62a441d5f8ca17fcfab2d5b1,,,,,,,,,,,,,,,,,,,,,,,,,,,,,,,,,,,,,,,,,,,,,,,,,,,,,,,,,,,,,,,,,,,,,,,,,,,,,,,,,,,,,,,,,,,,"[""comma""]",0,[0.2875999999941996],106,0,106,0,1,,
,,,,,,,,,,,,60cb82b9065703e89e7211a0,19,Mężczyzna,2022-06-11_09h40.05.766,task,2021.1.4,Win32,74.97375918,6299f149e92ead563fba08ef,62a441d5f8ca17fcfab2d5b1,,,,,,,,,,,,,,,,,,,,,,,,,,,,,,,,,,,,,,,,,,,,,,,,,,,,,,,,,,,,,,,,,,,,,,,,,,,,,,,,,,,,,,,,,,,,"[""comma""]",0,[0.2477999999819076],107,0,107,0,1,,
,,,,,,,,,,,,60cb82b9065703e89e7211a0,19,Mężczyzna,2022-06-11_09h40.05.766,task,2021.1.4,Win32,74.97375918,6299f149e92ead563fba08ef,62a441d5f8ca17fcfab2d5b1,,,,,,,,,,,,,,,,,,,,,,,,,,,,,,,,,,,,,,,,,,,,,,,,,,,,,,,,,,,,,,,,,,,,,,,,,,,,,,,,,,,,,,,,,,,,"[""comma""]",0,[0.28609999999434876],108,0,108,0,1,,
,,,,,,,,,,,,60cb82b9065703e89e7211a0,19,Mężczyzna,2022-06-11_09h40.05.766,task,2021.1.4,Win32,74.97375918,6299f149e92ead563fba08ef,62a441d5f8ca17fcfab2d5b1,,,,,,,,,,,,,,,,,,,,,,,,,,,,,,,,,,,,,,,,,,,,,,,,,,,,,,,,,,,,,,,,,,,,,,,,,,,,,,,,,,,,,,,,,,,,"[""comma""]",0,[0.26029999998218045],109,0,109,0,1,,
,,,,,,,,,,,,60cb82b9065703e89e7211a0,19,Mężczyzna,2022-06-11_09h40.05.766,task,2021.1.4,Win32,74.97375918,6299f149e92ead563fba08ef,62a441d5f8ca17fcfab2d5b1,,,,,,,,,,,,,,,,,,,,,,,,,,,,,,,,,,,,,,,,,,,,,,,,,,,,,,,,,,,,,,,,,,,,,,,,,,,,,,,,,,,,,,,,,,,,"[""comma""]",0,[0.26549999999997453],110,0,110,0,1,,
,,,,,,,,,,,,60cb82b9065703e89e7211a0,19,Mężczyzna,2022-06-11_09h40.05.766,task,2021.1.4,Win32,74.97375918,6299f149e92ead563fba08ef,62a441d5f8ca17fcfab2d5b1,,,,,,,,,,,,,,,,,,,,,,,,,,,,,,,,,,,,,,,,,,,,,,,,,,,,,,,,,,,,,,,,,,,,,,,,,,,,,,,,,,,,,,,,,,,,"[""comma""]",0,[0.2755000000001928],111,0,111,0,1,,
,,,,,,,,,,,,60cb82b9065703e89e7211a0,19,Mężczyzna,2022-06-11_09h40.05.766,task,2021.1.4,Win32,74.97375918,6299f149e92ead563fba08ef,62a441d5f8ca17fcfab2d5b1,,,,,,,,,,,,,,,,,,,,,,,,,,,,,,,,,,,,,,,,,,,,,,,,,,,,,,,,,,,,,,,,,,,,,,,,,,,,,,,,,,,,,,,,,,,,"[""comma""]",0,[0.25219999998807907],112,0,112,0,1,,
,,,,,,,,,,,,60cb82b9065703e89e7211a0,19,Mężczyzna,2022-06-11_09h40.05.766,task,2021.1.4,Win32,74.97375918,6299f149e92ead563fba08ef,62a441d5f8ca17fcfab2d5b1,,,,,,,,,,,,,,,,,,,,,,,,,,,,,,,,,,,,,,,,,,,,,,,,,,,,,,,,,,,,,,,,,,,,,,,,,,,,,,,,,,,,,,,,,,,,"[""comma""]",0,[0.2889999999997599],113,0,113,0,1,,
,,,,,,,,,,,,60cb82b9065703e89e7211a0,19,Mężczyzna,2022-06-11_09h40.05.766,task,2021.1.4,Win32,74.97375918,6299f149e92ead563fba08ef,62a441d5f8ca17fcfab2d5b1,,,,,,,,,,,,,,,,,,,,,,,,,,,,,,,,,,,,,,,,,,,,,,,,,,,,,,,,,,,,,,,,,,,,,,,,,,,,,,,,,,,,,,,,,,,,"[""comma""]",0,[0.32569999998804633],114,0,114,0,1,,
,,,,,,,,,,,,60cb82b9065703e89e7211a0,19,Mężczyzna,2022-06-11_09h40.05.766,task,2021.1.4,Win32,74.97375918,6299f149e92ead563fba08ef,62a441d5f8ca17fcfab2d5b1,,,,,,,,,,,,,,,,,,,,,,,,,,,,,,,,,,,,,,,,,,,,,,,,,,,,,,,,,,,,,,,,,,,,,,,,,,,,,,,,,,,,,,,,,,,,"[""comma""]",0,[0.32709999999406136],115,0,115,0,1,,
,,,,,,,,,,,,60cb82b9065703e89e7211a0,19,Mężczyzna,2022-06-11_09h40.05.766,task,2021.1.4,Win32,74.97375918,6299f149e92ead563fba08ef,62a441d5f8ca17fcfab2d5b1,,,,,,,,,,,,,,,,,,,,,,,,,,,,,,,,,,,,,,,,,,,,,,,,,,,,,,,,,,,,,,,,,,,,,,,,,,,,,,,,,,,,,,,,,,,,"[""comma""]",0,[0.29090000000633154],116,0,116,0,1,,
,,,,,,,,,,,,60cb82b9065703e89e7211a0,19,Mężczyzna,2022-06-11_09h40.05.766,task,2021.1.4,Win32,74.97375918,6299f149e92ead563fba08ef,62a441d5f8ca17fcfab2d5b1,,,,,,,,,,,,,,,,,,,,,,,,,,,,,,,,,,,,,,,,,,,,,,,,,,,,,,,,,,,,,,,,,,,,,,,,,,,,,,,,,,,,,,,,,,,,"[""comma""]",0,[0.2863000000120337],117,0,117,0,1,,
,,,,,,,,,,,,60cb82b9065703e89e7211a0,19,Mężczyzna,2022-06-11_09h40.05.766,task,2021.1.4,Win32,74.97375918,6299f149e92ead563fba08ef,62a441d5f8ca17fcfab2d5b1,,,,,,,,,,,,,,,,,,,,,,,,,,,,,,,,,,,,,,,,,,,,,,,,,,,,,,,,,,,,,,,,,,,,,,,,,,,,,,,,,,,,,,,,,,,,"[""comma""]",0,[0.26419999998825006],118,0,118,0,1,,
,,,,,,,,,,,,60cb82b9065703e89e7211a0,19,Mężczyzna,2022-06-11_09h40.05.766,task,2021.1.4,Win32,74.97375918,6299f149e92ead563fba08ef,62a441d5f8ca17fcfab2d5b1,,,,,,,,,,,,,,,,,,,,,,,,,,,,,,,,,,,,,,,,,,,,,,,,,,,,,,,,,,,,,,,,,,,,,,,,,,,,,,,,,,,,,,,,,,,,"[""comma""]",0,[0.24740000000610962],119,0,119,0,1,,
,,,,,,,,,,,,60cb82b9065703e89e7211a0,19,Mężczyzna,2022-06-11_09h40.05.766,task,2021.1.4,Win32,74.97375918,6299f149e92ead563fba08ef,62a441d5f8ca17fcfab2d5b1,,,,,,,,,,,,,,,,,,,,,,,,,,,,,,,,,,,,,,,,,,,,,,,,,,,,,,,,,,,,,,,,,,,,,,,,,,,,,,,,,,,,,,,,,,,,,,,,,,,,space,2.2454
