key_resp_15.keys,key_resp_15.rt,key_resp_16.keys,key_resp_16.rt,key_resp_4.keys,key_resp_4.rt,next_letter.thisRepN,next_letter.thisTrialN,next_letter.thisN,next_letter.thisIndex,next_letter.ran,letter,participant,Wiek*,Płeć,date,expName,psychopyVersion,OS,frameRate,study_id,session,simple_recall,key_resp_5.keys,key_resp_5.rt,simple_recall_corr,simple_recall_corrkeys,next_level.thisRepN,next_level.thisTrialN,next_level.thisN,next_level.thisIndex,next_level.ran,key_resp_2.keys,key_resp_2.rt,digit_answer,key_resp.keys,key_resp.corr,key_resp.rt,RT_list,next_equation.thisRepN,next_equation.thisTrialN,next_equation.thisN,next_equation.thisIndex,next_equation.ran,Task,Trial,Problem,Operation_answer,processing_score,sumRT,meanRT,sumdiff,sd,RT,key_resp_3.keys,key_resp_3.rt,repeat_practice.thisRepN,repeat_practice.thisTrialN,repeat_practice.thisN,repeat_practice.thisIndex,repeat_practice.ran,key_resp_6.keys,key_resp_6.rt,key_resp_11.keys,key_resp_11.corr,key_resp_11.rt,operation_correct,repeat_if_wrong_prac.thisRepN,repeat_if_wrong_prac.thisTrialN,repeat_if_wrong_prac.thisN,repeat_if_wrong_prac.thisIndex,repeat_if_wrong_prac.ran,span_size_prac.thisRepN,span_size_prac.thisTrialN,span_size_prac.thisN,span_size_prac.thisIndex,span_size_prac.ran,complex_recall_practice,key_resp_9.keys,key_resp_9.corr,key_resp_9.rt,complex_prac_corr,span_recall_prac.thisRepN,span_recall_prac.thisTrialN,span_recall_prac.thisN,span_recall_prac.thisIndex,span_recall_prac.ran,key_resp_10.keys,key_resp_10.rt,key_resp_7.keys,key_resp_7.corr,key_resp_7.rt,repeat_if_wrong.thisRepN,repeat_if_wrong.thisTrialN,repeat_if_wrong.thisN,repeat_if_wrong.thisIndex,repeat_if_wrong.ran,span_size.thisRepN,span_size.thisTrialN,span_size.thisN,span_size.thisIndex,span_size.ran,complex_recall,key_resp_8.keys,key_resp_8.corr,key_resp_8.rt,complex_recall_corr,complex_recall_corrkeys,span_recall.thisRepN,span_recall.thisTrialN,span_recall.thisN,span_recall.thisIndex,span_recall.ran,key_resp_13.keys,key_resp_13.corr,key_resp_13.rt,random_loop.thisRepN,random_loop.thisTrialN,random_loop.thisN,random_loop.thisIndex,random_loop.ran,key_resp_12.keys,key_resp_12.rt
space,26.535,space,17.9838,space,14.3518,0,0,0,0,1,X V Q F H G B L J M P D K C T S W R N Z,60d961f96595b918329ef4aa,28,Mężczyzna,2022-06-11_09h40.16.902,task,2021.1.4,Win32,143.8228103,6299f149e92ead563fba08ef,62a44682dff573a481316826,,,,,,,,,,,,,,,,,,,,,,,,,,,,,,,,,,,,,,,,,,,,,,,,,,,,,,,,,,,,,,,,,,,,,,,,,,,,,,,,,,,,,,,,,,,,,,,,,,,,,
,,,,,,1,0,1,0,1,X V Q F H G B L J M P D K C T S W R N Z,60d961f96595b918329ef4aa,28,Mężczyzna,2022-06-11_09h40.16.902,task,2021.1.4,Win32,143.8228103,6299f149e92ead563fba08ef,62a44682dff573a481316826,,,,,,,,,,,,,,,,,,,,,,,,,,,,,,,,,,,,,,,,,,,,,,,,,,,,,,,,,,,,,,,,,,,,,,,,,,,,,,,,,,,,,,,,,,,,,,,,,,,,,
,,,,,,,,,,,,60d961f96595b918329ef4aa,28,Mężczyzna,2022-06-11_09h40.16.902,task,2021.1.4,Win32,143.8228103,6299f149e92ead563fba08ef,62a44682dff573a481316826,zd,"[""z"",""d""]","[1.5024000000003639,1.8064999999999998,3.2801000000000897]",1,ZD,0,0,0,0,1,,,,,,,,,,,,,,,,,,,,,,,,,,,,,,,,,,,,,,,,,,,,,,,,,,,,,,,,,,,,,,,,,,,,,,,,,,,,,,,,,,,,,,,,,,,
,,,,,,0,0,0,0,1,X V Q F H G B L J M P D K C T S W R N Z,60d961f96595b918329ef4aa,28,Mężczyzna,2022-06-11_09h40.16.902,task,2021.1.4,Win32,143.8228103,6299f149e92ead563fba08ef,62a44682dff573a481316826,,,,,,,,,,,,,,,,,,,,,,,,,,,,,,,,,,,,,,,,,,,,,,,,,,,,,,,,,,,,,,,,,,,,,,,,,,,,,,,,,,,,,,,,,,,,,,,,,,,,,
,,,,,,1,0,1,0,1,X V Q F H G B L J M P D K C T S W R N Z,60d961f96595b918329ef4aa,28,Mężczyzna,2022-06-11_09h40.16.902,task,2021.1.4,Win32,143.8228103,6299f149e92ead563fba08ef,62a44682dff573a481316826,,,,,,,,,,,,,,,,,,,,,,,,,,,,,,,,,,,,,,,,,,,,,,,,,,,,,,,,,,,,,,,,,,,,,,,,,,,,,,,,,,,,,,,,,,,,,,,,,,,,,
,,,,,,,,,,,,60d961f96595b918329ef4aa,28,Mężczyzna,2022-06-11_09h40.16.902,task,2021.1.4,Win32,143.8228103,6299f149e92ead563fba08ef,62a44682dff573a481316826,bw,"[""b"",""w""]","[0.5279999999999916,0.7920999999996212,1.0562999999998084]",1,BW,1,0,1,0,1,,,,,,,,,,,,,,,,,,,,,,,,,,,,,,,,,,,,,,,,,,,,,,,,,,,,,,,,,,,,,,,,,,,,,,,,,,,,,,,,,,,,,,,,,,,
,,,,,,0,0,0,0,1,X V Q F H G B L J M P D K C T S W R N Z,60d961f96595b918329ef4aa,28,Mężczyzna,2022-06-11_09h40.16.902,task,2021.1.4,Win32,143.8228103,6299f149e92ead563fba08ef,62a44682dff573a481316826,,,,,,,,,,,,,,,,,,,,,,,,,,,,,,,,,,,,,,,,,,,,,,,,,,,,,,,,,,,,,,,,,,,,,,,,,,,,,,,,,,,,,,,,,,,,,,,,,,,,,
,,,,,,1,0,1,0,1,X V Q F H G B L J M P D K C T S W R N Z,60d961f96595b918329ef4aa,28,Mężczyzna,2022-06-11_09h40.16.902,task,2021.1.4,Win32,143.8228103,6299f149e92ead563fba08ef,62a44682dff573a481316826,,,,,,,,,,,,,,,,,,,,,,,,,,,,,,,,,,,,,,,,,,,,,,,,,,,,,,,,,,,,,,,,,,,,,,,,,,,,,,,,,,,,,,,,,,,,,,,,,,,,,
,,,,,,2,0,2,0,1,X V Q F H G B L J M P D K C T S W R N Z,60d961f96595b918329ef4aa,28,Mężczyzna,2022-06-11_09h40.16.902,task,2021.1.4,Win32,143.8228103,6299f149e92ead563fba08ef,62a44682dff573a481316826,,,,,,,,,,,,,,,,,,,,,,,,,,,,,,,,,,,,,,,,,,,,,,,,,,,,,,,,,,,,,,,,,,,,,,,,,,,,,,,,,,,,,,,,,,,,,,,,,,,,,
,,,,,,,,,,,,60d961f96595b918329ef4aa,28,Mężczyzna,2022-06-11_09h40.16.902,task,2021.1.4,Win32,143.8228103,6299f149e92ead563fba08ef,62a44682dff573a481316826,mrn,"[""m"",""r"",""n""]","[0.6396000000000868,0.9972999999998109,1.3836000000000865,1.7036999999997136]",1,MRN,2,0,2,0,1,,,,,,,,,,,,,,,,,,,,,,,,,,,,,,,,,,,,,,,,,,,,,,,,,,,,,,,,,,,,,,,,,,,,,,,,,,,,,,,,,,,,,,,,,,,
,,,,,,0,0,0,0,1,X V Q F H G B L J M P D K C T S W R N Z,60d961f96595b918329ef4aa,28,Mężczyzna,2022-06-11_09h40.16.902,task,2021.1.4,Win32,143.8228103,6299f149e92ead563fba08ef,62a44682dff573a481316826,,,,,,,,,,,,,,,,,,,,,,,,,,,,,,,,,,,,,,,,,,,,,,,,,,,,,,,,,,,,,,,,,,,,,,,,,,,,,,,,,,,,,,,,,,,,,,,,,,,,,
,,,,,,1,0,1,0,1,X V Q F H G B L J M P D K C T S W R N Z,60d961f96595b918329ef4aa,28,Mężczyzna,2022-06-11_09h40.16.902,task,2021.1.4,Win32,143.8228103,6299f149e92ead563fba08ef,62a44682dff573a481316826,,,,,,,,,,,,,,,,,,,,,,,,,,,,,,,,,,,,,,,,,,,,,,,,,,,,,,,,,,,,,,,,,,,,,,,,,,,,,,,,,,,,,,,,,,,,,,,,,,,,,
,,,,,,2,0,2,0,1,X V Q F H G B L J M P D K C T S W R N Z,60d961f96595b918329ef4aa,28,Mężczyzna,2022-06-11_09h40.16.902,task,2021.1.4,Win32,143.8228103,6299f149e92ead563fba08ef,62a44682dff573a481316826,,,,,,,,,,,,,,,,,,,,,,,,,,,,,,,,,,,,,,,,,,,,,,,,,,,,,,,,,,,,,,,,,,,,,,,,,,,,,,,,,,,,,,,,,,,,,,,,,,,,,
,,,,,,,,,,,,60d961f96595b918329ef4aa,28,Mężczyzna,2022-06-11_09h40.16.902,task,2021.1.4,Win32,143.8228103,6299f149e92ead563fba08ef,62a44682dff573a481316826,czn,"[""c"",""z"",""n""]","[1.0221000000000942,1.140199999999723,1.4461999999997204,2.5962999999998146]",1,CZN,3,0,3,0,1,,,,,,,,,,,,,,,,,,,,,,,,,,,,,,,,,,,,,,,,,,,,,,,,,,,,,,,,,,,,,,,,,,,,,,,,,,,,,,,,,,,,,,,,,,,
,,,,,,0,0,0,0,1,X V Q F H G B L J M P D K C T S W R N Z,60d961f96595b918329ef4aa,28,Mężczyzna,2022-06-11_09h40.16.902,task,2021.1.4,Win32,143.8228103,6299f149e92ead563fba08ef,62a44682dff573a481316826,,,,,,,,,,,,,,,,,,,,,,,,,,,,,,,,,,,,,,,,,,,,,,,,,,,,,,,,,,,,,,,,,,,,,,,,,,,,,,,,,,,,,,,,,,,,,,,,,,,,,
,,,,,,1,0,1,0,1,X V Q F H G B L J M P D K C T S W R N Z,60d961f96595b918329ef4aa,28,Mężczyzna,2022-06-11_09h40.16.902,task,2021.1.4,Win32,143.8228103,6299f149e92ead563fba08ef,62a44682dff573a481316826,,,,,,,,,,,,,,,,,,,,,,,,,,,,,,,,,,,,,,,,,,,,,,,,,,,,,,,,,,,,,,,,,,,,,,,,,,,,,,,,,,,,,,,,,,,,,,,,,,,,,
,,,,,,2,0,2,0,1,X V Q F H G B L J M P D K C T S W R N Z,60d961f96595b918329ef4aa,28,Mężczyzna,2022-06-11_09h40.16.902,task,2021.1.4,Win32,143.8228103,6299f149e92ead563fba08ef,62a44682dff573a481316826,,,,,,,,,,,,,,,,,,,,,,,,,,,,,,,,,,,,,,,,,,,,,,,,,,,,,,,,,,,,,,,,,,,,,,,,,,,,,,,,,,,,,,,,,,,,,,,,,,,,,
,,,,,,3,0,3,0,1,X V Q F H G B L J M P D K C T S W R N Z,60d961f96595b918329ef4aa,28,Mężczyzna,2022-06-11_09h40.16.902,task,2021.1.4,Win32,143.8228103,6299f149e92ead563fba08ef,62a44682dff573a481316826,,,,,,,,,,,,,,,,,,,,,,,,,,,,,,,,,,,,,,,,,,,,,,,,,,,,,,,,,,,,,,,,,,,,,,,,,,,,,,,,,,,,,,,,,,,,,,,,,,,,,
,,,,,,,,,,,,60d961f96595b918329ef4aa,28,Mężczyzna,2022-06-11_09h40.16.902,task,2021.1.4,Win32,143.8228103,6299f149e92ead563fba08ef,62a44682dff573a481316826,kpgk,"[""k"",""p"",""g"",""k""]","[0.9500000000000028,1.213600000000099,1.7588999999999118,1.9813999999999083,2.2216000000000946]",1,KPGK,4,0,4,0,1,,,,,,,,,,,,,,,,,,,,,,,,,,,,,,,,,,,,,,,,,,,,,,,,,,,,,,,,,,,,,,,,,,,,,,,,,,,,,,,,,,,,,,,,,,,
,,,,,,0,0,0,0,1,X V Q F H G B L J M P D K C T S W R N Z,60d961f96595b918329ef4aa,28,Mężczyzna,2022-06-11_09h40.16.902,task,2021.1.4,Win32,143.8228103,6299f149e92ead563fba08ef,62a44682dff573a481316826,,,,,,,,,,,,,,,,,,,,,,,,,,,,,,,,,,,,,,,,,,,,,,,,,,,,,,,,,,,,,,,,,,,,,,,,,,,,,,,,,,,,,,,,,,,,,,,,,,,,,
,,,,,,1,0,1,0,1,X V Q F H G B L J M P D K C T S W R N Z,60d961f96595b918329ef4aa,28,Mężczyzna,2022-06-11_09h40.16.902,task,2021.1.4,Win32,143.8228103,6299f149e92ead563fba08ef,62a44682dff573a481316826,,,,,,,,,,,,,,,,,,,,,,,,,,,,,,,,,,,,,,,,,,,,,,,,,,,,,,,,,,,,,,,,,,,,,,,,,,,,,,,,,,,,,,,,,,,,,,,,,,,,,
,,,,,,2,0,2,0,1,X V Q F H G B L J M P D K C T S W R N Z,60d961f96595b918329ef4aa,28,Mężczyzna,2022-06-11_09h40.16.902,task,2021.1.4,Win32,143.8228103,6299f149e92ead563fba08ef,62a44682dff573a481316826,,,,,,,,,,,,,,,,,,,,,,,,,,,,,,,,,,,,,,,,,,,,,,,,,,,,,,,,,,,,,,,,,,,,,,,,,,,,,,,,,,,,,,,,,,,,,,,,,,,,,
,,,,,,3,0,3,0,1,X V Q F H G B L J M P D K C T S W R N Z,60d961f96595b918329ef4aa,28,Mężczyzna,2022-06-11_09h40.16.902,task,2021.1.4,Win32,143.8228103,6299f149e92ead563fba08ef,62a44682dff573a481316826,,,,,,,,,,,,,,,,,,,,,,,,,,,,,,,,,,,,,,,,,,,,,,,,,,,,,,,,,,,,,,,,,,,,,,,,,,,,,,,,,,,,,,,,,,,,,,,,,,,,,
,,,,,,,,,,,,60d961f96595b918329ef4aa,28,Mężczyzna,2022-06-11_09h40.16.902,task,2021.1.4,Win32,143.8228103,6299f149e92ead563fba08ef,62a44682dff573a481316826,hjlr,"[""h"",""j"",""l"",""r""]","[1.0300999999996208,1.4390999999996268,2.7260999999996187,2.9021999999997092,3.288199999999719]",1,HJLR,5,0,5,0,1,,,,,,,,,,,,,,,,,,,,,,,,,,,,,,,,,,,,,,,,,,,,,,,,,,,,,,,,,,,,,,,,,,,,,,,,,,,,,,,,,,,,,,,,,,,
,,,,,,0,0,0,0,1,X V Q F H G B L J M P D K C T S W R N Z,60d961f96595b918329ef4aa,28,Mężczyzna,2022-06-11_09h40.16.902,task,2021.1.4,Win32,143.8228103,6299f149e92ead563fba08ef,62a44682dff573a481316826,,,,,,,,,,,,,,,,,,,,,,,,,,,,,,,,,,,,,,,,,,,,,,,,,,,,,,,,,,,,,,,,,,,,,,,,,,,,,,,,,,,,,,,,,,,,,,,,,,,,,
,,,,,,1,0,1,0,1,X V Q F H G B L J M P D K C T S W R N Z,60d961f96595b918329ef4aa,28,Mężczyzna,2022-06-11_09h40.16.902,task,2021.1.4,Win32,143.8228103,6299f149e92ead563fba08ef,62a44682dff573a481316826,,,,,,,,,,,,,,,,,,,,,,,,,,,,,,,,,,,,,,,,,,,,,,,,,,,,,,,,,,,,,,,,,,,,,,,,,,,,,,,,,,,,,,,,,,,,,,,,,,,,,
,,,,,,2,0,2,0,1,X V Q F H G B L J M P D K C T S W R N Z,60d961f96595b918329ef4aa,28,Mężczyzna,2022-06-11_09h40.16.902,task,2021.1.4,Win32,143.8228103,6299f149e92ead563fba08ef,62a44682dff573a481316826,,,,,,,,,,,,,,,,,,,,,,,,,,,,,,,,,,,,,,,,,,,,,,,,,,,,,,,,,,,,,,,,,,,,,,,,,,,,,,,,,,,,,,,,,,,,,,,,,,,,,
,,,,,,3,0,3,0,1,X V Q F H G B L J M P D K C T S W R N Z,60d961f96595b918329ef4aa,28,Mężczyzna,2022-06-11_09h40.16.902,task,2021.1.4,Win32,143.8228103,6299f149e92ead563fba08ef,62a44682dff573a481316826,,,,,,,,,,,,,,,,,,,,,,,,,,,,,,,,,,,,,,,,,,,,,,,,,,,,,,,,,,,,,,,,,,,,,,,,,,,,,,,,,,,,,,,,,,,,,,,,,,,,,
,,,,,,4,0,4,0,1,X V Q F H G B L J M P D K C T S W R N Z,60d961f96595b918329ef4aa,28,Mężczyzna,2022-06-11_09h40.16.902,task,2021.1.4,Win32,143.8228103,6299f149e92ead563fba08ef,62a44682dff573a481316826,,,,,,,,,,,,,,,,,,,,,,,,,,,,,,,,,,,,,,,,,,,,,,,,,,,,,,,,,,,,,,,,,,,,,,,,,,,,,,,,,,,,,,,,,,,,,,,,,,,,,
,,,,,,,,,,,,60d961f96595b918329ef4aa,28,Mężczyzna,2022-06-11_09h40.16.902,task,2021.1.4,Win32,143.8228103,6299f149e92ead563fba08ef,62a44682dff573a481316826,mptdh,"[""m"",""p"",""t"",""d"",""h""]","[0.8516999999997239,1.1072999999998103,1.6681999999997288,2.179399999999916,2.57919999999973,3.1795000000000044]",1,MPTDH,6,0,6,0,1,,,,,,,,,,,,,,,,,,,,,,,,,,,,,,,,,,,,,,,,,,,,,,,,,,,,,,,,,,,,,,,,,,,,,,,,,,,,,,,,,,,,,,,,,,,
,,,,,,0,0,0,0,1,X V Q F H G B L J M P D K C T S W R N Z,60d961f96595b918329ef4aa,28,Mężczyzna,2022-06-11_09h40.16.902,task,2021.1.4,Win32,143.8228103,6299f149e92ead563fba08ef,62a44682dff573a481316826,,,,,,,,,,,,,,,,,,,,,,,,,,,,,,,,,,,,,,,,,,,,,,,,,,,,,,,,,,,,,,,,,,,,,,,,,,,,,,,,,,,,,,,,,,,,,,,,,,,,,
,,,,,,1,0,1,0,1,X V Q F H G B L J M P D K C T S W R N Z,60d961f96595b918329ef4aa,28,Mężczyzna,2022-06-11_09h40.16.902,task,2021.1.4,Win32,143.8228103,6299f149e92ead563fba08ef,62a44682dff573a481316826,,,,,,,,,,,,,,,,,,,,,,,,,,,,,,,,,,,,,,,,,,,,,,,,,,,,,,,,,,,,,,,,,,,,,,,,,,,,,,,,,,,,,,,,,,,,,,,,,,,,,
,,,,,,2,0,2,0,1,X V Q F H G B L J M P D K C T S W R N Z,60d961f96595b918329ef4aa,28,Mężczyzna,2022-06-11_09h40.16.902,task,2021.1.4,Win32,143.8228103,6299f149e92ead563fba08ef,62a44682dff573a481316826,,,,,,,,,,,,,,,,,,,,,,,,,,,,,,,,,,,,,,,,,,,,,,,,,,,,,,,,,,,,,,,,,,,,,,,,,,,,,,,,,,,,,,,,,,,,,,,,,,,,,
,,,,,,3,0,3,0,1,X V Q F H G B L J M P D K C T S W R N Z,60d961f96595b918329ef4aa,28,Mężczyzna,2022-06-11_09h40.16.902,task,2021.1.4,Win32,143.8228103,6299f149e92ead563fba08ef,62a44682dff573a481316826,,,,,,,,,,,,,,,,,,,,,,,,,,,,,,,,,,,,,,,,,,,,,,,,,,,,,,,,,,,,,,,,,,,,,,,,,,,,,,,,,,,,,,,,,,,,,,,,,,,,,
,,,,,,4,0,4,0,1,X V Q F H G B L J M P D K C T S W R N Z,60d961f96595b918329ef4aa,28,Mężczyzna,2022-06-11_09h40.16.902,task,2021.1.4,Win32,143.8228103,6299f149e92ead563fba08ef,62a44682dff573a481316826,,,,,,,,,,,,,,,,,,,,,,,,,,,,,,,,,,,,,,,,,,,,,,,,,,,,,,,,,,,,,,,,,,,,,,,,,,,,,,,,,,,,,,,,,,,,,,,,,,,,,
,,,,,,,,,,,,60d961f96595b918329ef4aa,28,Mężczyzna,2022-06-11_09h40.16.902,task,2021.1.4,Win32,143.8228103,6299f149e92ead563fba08ef,62a44682dff573a481316826,vcjcl,"[""v"",""c"",""j"",""c"",""l""]","[1.5361999999997238,1.960299999999819,2.3436999999997283,2.850099999999628,4.031699999999745,4.959699999999742]",1,VCJCL,7,0,7,0,1,,,,,,,,,,,,,,,,,,,,,,,,,,,,,,,,,,,,,,,,,,,,,,,,,,,,,,,,,,,,,,,,,,,,,,,,,,,,,,,,,,,,,,,,,,,
,,,,,,0,0,0,0,1,X V Q F H G B L J M P D K C T S W R N Z,60d961f96595b918329ef4aa,28,Mężczyzna,2022-06-11_09h40.16.902,task,2021.1.4,Win32,143.8228103,6299f149e92ead563fba08ef,62a44682dff573a481316826,,,,,,,,,,,,,,,,,,,,,,,,,,,,,,,,,,,,,,,,,,,,,,,,,,,,,,,,,,,,,,,,,,,,,,,,,,,,,,,,,,,,,,,,,,,,,,,,,,,,,
,,,,,,1,0,1,0,1,X V Q F H G B L J M P D K C T S W R N Z,60d961f96595b918329ef4aa,28,Mężczyzna,2022-06-11_09h40.16.902,task,2021.1.4,Win32,143.8228103,6299f149e92ead563fba08ef,62a44682dff573a481316826,,,,,,,,,,,,,,,,,,,,,,,,,,,,,,,,,,,,,,,,,,,,,,,,,,,,,,,,,,,,,,,,,,,,,,,,,,,,,,,,,,,,,,,,,,,,,,,,,,,,,
,,,,,,2,0,2,0,1,X V Q F H G B L J M P D K C T S W R N Z,60d961f96595b918329ef4aa,28,Mężczyzna,2022-06-11_09h40.16.902,task,2021.1.4,Win32,143.8228103,6299f149e92ead563fba08ef,62a44682dff573a481316826,,,,,,,,,,,,,,,,,,,,,,,,,,,,,,,,,,,,,,,,,,,,,,,,,,,,,,,,,,,,,,,,,,,,,,,,,,,,,,,,,,,,,,,,,,,,,,,,,,,,,
,,,,,,3,0,3,0,1,X V Q F H G B L J M P D K C T S W R N Z,60d961f96595b918329ef4aa,28,Mężczyzna,2022-06-11_09h40.16.902,task,2021.1.4,Win32,143.8228103,6299f149e92ead563fba08ef,62a44682dff573a481316826,,,,,,,,,,,,,,,,,,,,,,,,,,,,,,,,,,,,,,,,,,,,,,,,,,,,,,,,,,,,,,,,,,,,,,,,,,,,,,,,,,,,,,,,,,,,,,,,,,,,,
,,,,,,4,0,4,0,1,X V Q F H G B L J M P D K C T S W R N Z,60d961f96595b918329ef4aa,28,Mężczyzna,2022-06-11_09h40.16.902,task,2021.1.4,Win32,143.8228103,6299f149e92ead563fba08ef,62a44682dff573a481316826,,,,,,,,,,,,,,,,,,,,,,,,,,,,,,,,,,,,,,,,,,,,,,,,,,,,,,,,,,,,,,,,,,,,,,,,,,,,,,,,,,,,,,,,,,,,,,,,,,,,,
,,,,,,5,0,5,0,1,X V Q F H G B L J M P D K C T S W R N Z,60d961f96595b918329ef4aa,28,Mężczyzna,2022-06-11_09h40.16.902,task,2021.1.4,Win32,143.8228103,6299f149e92ead563fba08ef,62a44682dff573a481316826,,,,,,,,,,,,,,,,,,,,,,,,,,,,,,,,,,,,,,,,,,,,,,,,,,,,,,,,,,,,,,,,,,,,,,,,,,,,,,,,,,,,,,,,,,,,,,,,,,,,,
,,,,,,,,,,,,60d961f96595b918329ef4aa,28,Mężczyzna,2022-06-11_09h40.16.902,task,2021.1.4,Win32,143.8228103,6299f149e92ead563fba08ef,62a44682dff573a481316826,fbjzzx,"[""f"",""b"",""j"",""z"",""z"",""x""]","[1.0218999999999028,1.4607999999998071,1.8700999999996384,2.245500000000021,2.548899999999918,2.8526999999997145,3.2767999999998096]",1,FBJZZX,8,0,8,0,1,,,,,,,,,,,,,,,,,,,,,,,,,,,,,,,,,,,,,,,,,,,,,,,,,,,,,,,,,,,,,,,,,,,,,,,,,,,,,,,,,,,,,,,,,,,
,,,,,,0,0,0,0,1,X V Q F H G B L J M P D K C T S W R N Z,60d961f96595b918329ef4aa,28,Mężczyzna,2022-06-11_09h40.16.902,task,2021.1.4,Win32,143.8228103,6299f149e92ead563fba08ef,62a44682dff573a481316826,,,,,,,,,,,,,,,,,,,,,,,,,,,,,,,,,,,,,,,,,,,,,,,,,,,,,,,,,,,,,,,,,,,,,,,,,,,,,,,,,,,,,,,,,,,,,,,,,,,,,
,,,,,,1,0,1,0,1,X V Q F H G B L J M P D K C T S W R N Z,60d961f96595b918329ef4aa,28,Mężczyzna,2022-06-11_09h40.16.902,task,2021.1.4,Win32,143.8228103,6299f149e92ead563fba08ef,62a44682dff573a481316826,,,,,,,,,,,,,,,,,,,,,,,,,,,,,,,,,,,,,,,,,,,,,,,,,,,,,,,,,,,,,,,,,,,,,,,,,,,,,,,,,,,,,,,,,,,,,,,,,,,,,
,,,,,,2,0,2,0,1,X V Q F H G B L J M P D K C T S W R N Z,60d961f96595b918329ef4aa,28,Mężczyzna,2022-06-11_09h40.16.902,task,2021.1.4,Win32,143.8228103,6299f149e92ead563fba08ef,62a44682dff573a481316826,,,,,,,,,,,,,,,,,,,,,,,,,,,,,,,,,,,,,,,,,,,,,,,,,,,,,,,,,,,,,,,,,,,,,,,,,,,,,,,,,,,,,,,,,,,,,,,,,,,,,
,,,,,,3,0,3,0,1,X V Q F H G B L J M P D K C T S W R N Z,60d961f96595b918329ef4aa,28,Mężczyzna,2022-06-11_09h40.16.902,task,2021.1.4,Win32,143.8228103,6299f149e92ead563fba08ef,62a44682dff573a481316826,,,,,,,,,,,,,,,,,,,,,,,,,,,,,,,,,,,,,,,,,,,,,,,,,,,,,,,,,,,,,,,,,,,,,,,,,,,,,,,,,,,,,,,,,,,,,,,,,,,,,
,,,,,,4,0,4,0,1,X V Q F H G B L J M P D K C T S W R N Z,60d961f96595b918329ef4aa,28,Mężczyzna,2022-06-11_09h40.16.902,task,2021.1.4,Win32,143.8228103,6299f149e92ead563fba08ef,62a44682dff573a481316826,,,,,,,,,,,,,,,,,,,,,,,,,,,,,,,,,,,,,,,,,,,,,,,,,,,,,,,,,,,,,,,,,,,,,,,,,,,,,,,,,,,,,,,,,,,,,,,,,,,,,
,,,,,,5,0,5,0,1,X V Q F H G B L J M P D K C T S W R N Z,60d961f96595b918329ef4aa,28,Mężczyzna,2022-06-11_09h40.16.902,task,2021.1.4,Win32,143.8228103,6299f149e92ead563fba08ef,62a44682dff573a481316826,,,,,,,,,,,,,,,,,,,,,,,,,,,,,,,,,,,,,,,,,,,,,,,,,,,,,,,,,,,,,,,,,,,,,,,,,,,,,,,,,,,,,,,,,,,,,,,,,,,,,
,,,,,,,,,,,,60d961f96595b918329ef4aa,28,Mężczyzna,2022-06-11_09h40.16.902,task,2021.1.4,Win32,143.8228103,6299f149e92ead563fba08ef,62a44682dff573a481316826,jzfzdc,"[""j"",""z"",""f"",""z"",""d"",""c""]","[3.205400000000367,3.444200000000194,8.59620000000018,9.892800000000278,10.309500000000014,10.596100000000092,11.196300000000292]",1,JZFZDC,9,0,9,0,1,,,,,,,,,,,,,,,,,,,,,,,,,,,,,,,,,,,,,,,,,,,,,,,,,,,,,,,,,,,,,,,,,,,,,,,,,,,,,,,,,,,,,,,,,,,
,,,,,,0,0,0,0,1,X V Q F H G B L J M P D K C T S W R N Z,60d961f96595b918329ef4aa,28,Mężczyzna,2022-06-11_09h40.16.902,task,2021.1.4,Win32,143.8228103,6299f149e92ead563fba08ef,62a44682dff573a481316826,,,,,,,,,,,,,,,,,,,,,,,,,,,,,,,,,,,,,,,,,,,,,,,,,,,,,,,,,,,,,,,,,,,,,,,,,,,,,,,,,,,,,,,,,,,,,,,,,,,,,
,,,,,,1,0,1,0,1,X V Q F H G B L J M P D K C T S W R N Z,60d961f96595b918329ef4aa,28,Mężczyzna,2022-06-11_09h40.16.902,task,2021.1.4,Win32,143.8228103,6299f149e92ead563fba08ef,62a44682dff573a481316826,,,,,,,,,,,,,,,,,,,,,,,,,,,,,,,,,,,,,,,,,,,,,,,,,,,,,,,,,,,,,,,,,,,,,,,,,,,,,,,,,,,,,,,,,,,,,,,,,,,,,
,,,,,,2,0,2,0,1,X V Q F H G B L J M P D K C T S W R N Z,60d961f96595b918329ef4aa,28,Mężczyzna,2022-06-11_09h40.16.902,task,2021.1.4,Win32,143.8228103,6299f149e92ead563fba08ef,62a44682dff573a481316826,,,,,,,,,,,,,,,,,,,,,,,,,,,,,,,,,,,,,,,,,,,,,,,,,,,,,,,,,,,,,,,,,,,,,,,,,,,,,,,,,,,,,,,,,,,,,,,,,,,,,
,,,,,,3,0,3,0,1,X V Q F H G B L J M P D K C T S W R N Z,60d961f96595b918329ef4aa,28,Mężczyzna,2022-06-11_09h40.16.902,task,2021.1.4,Win32,143.8228103,6299f149e92ead563fba08ef,62a44682dff573a481316826,,,,,,,,,,,,,,,,,,,,,,,,,,,,,,,,,,,,,,,,,,,,,,,,,,,,,,,,,,,,,,,,,,,,,,,,,,,,,,,,,,,,,,,,,,,,,,,,,,,,,
,,,,,,4,0,4,0,1,X V Q F H G B L J M P D K C T S W R N Z,60d961f96595b918329ef4aa,28,Mężczyzna,2022-06-11_09h40.16.902,task,2021.1.4,Win32,143.8228103,6299f149e92ead563fba08ef,62a44682dff573a481316826,,,,,,,,,,,,,,,,,,,,,,,,,,,,,,,,,,,,,,,,,,,,,,,,,,,,,,,,,,,,,,,,,,,,,,,,,,,,,,,,,,,,,,,,,,,,,,,,,,,,,
,,,,,,5,0,5,0,1,X V Q F H G B L J M P D K C T S W R N Z,60d961f96595b918329ef4aa,28,Mężczyzna,2022-06-11_09h40.16.902,task,2021.1.4,Win32,143.8228103,6299f149e92ead563fba08ef,62a44682dff573a481316826,,,,,,,,,,,,,,,,,,,,,,,,,,,,,,,,,,,,,,,,,,,,,,,,,,,,,,,,,,,,,,,,,,,,,,,,,,,,,,,,,,,,,,,,,,,,,,,,,,,,,
,,,,,,6,0,6,0,1,X V Q F H G B L J M P D K C T S W R N Z,60d961f96595b918329ef4aa,28,Mężczyzna,2022-06-11_09h40.16.902,task,2021.1.4,Win32,143.8228103,6299f149e92ead563fba08ef,62a44682dff573a481316826,,,,,,,,,,,,,,,,,,,,,,,,,,,,,,,,,,,,,,,,,,,,,,,,,,,,,,,,,,,,,,,,,,,,,,,,,,,,,,,,,,,,,,,,,,,,,,,,,,,,,
,,,,,,,,,,,,60d961f96595b918329ef4aa,28,Mężczyzna,2022-06-11_09h40.16.902,task,2021.1.4,Win32,143.8228103,6299f149e92ead563fba08ef,62a44682dff573a481316826,qmgtfnh,"[""q"",""m"",""g"",""t"",""f"",""n"",""h""]","[2.683299999999832,3.7290000000000134,4.281899999999922,5.665699999999731,6.224999999999994,7.1425000000000125,7.619100000000088,9.128899999999902]",1,QMGTFNH,10,0,10,0,1,,,,,,,,,,,,,,,,,,,,,,,,,,,,,,,,,,,,,,,,,,,,,,,,,,,,,,,,,,,,,,,,,,,,,,,,,,,,,,,,,,,,,,,,,,,
,,,,,,0,0,0,0,1,X V Q F H G B L J M P D K C T S W R N Z,60d961f96595b918329ef4aa,28,Mężczyzna,2022-06-11_09h40.16.902,task,2021.1.4,Win32,143.8228103,6299f149e92ead563fba08ef,62a44682dff573a481316826,,,,,,,,,,,,,,,,,,,,,,,,,,,,,,,,,,,,,,,,,,,,,,,,,,,,,,,,,,,,,,,,,,,,,,,,,,,,,,,,,,,,,,,,,,,,,,,,,,,,,
,,,,,,1,0,1,0,1,X V Q F H G B L J M P D K C T S W R N Z,60d961f96595b918329ef4aa,28,Mężczyzna,2022-06-11_09h40.16.902,task,2021.1.4,Win32,143.8228103,6299f149e92ead563fba08ef,62a44682dff573a481316826,,,,,,,,,,,,,,,,,,,,,,,,,,,,,,,,,,,,,,,,,,,,,,,,,,,,,,,,,,,,,,,,,,,,,,,,,,,,,,,,,,,,,,,,,,,,,,,,,,,,,
,,,,,,2,0,2,0,1,X V Q F H G B L J M P D K C T S W R N Z,60d961f96595b918329ef4aa,28,Mężczyzna,2022-06-11_09h40.16.902,task,2021.1.4,Win32,143.8228103,6299f149e92ead563fba08ef,62a44682dff573a481316826,,,,,,,,,,,,,,,,,,,,,,,,,,,,,,,,,,,,,,,,,,,,,,,,,,,,,,,,,,,,,,,,,,,,,,,,,,,,,,,,,,,,,,,,,,,,,,,,,,,,,
,,,,,,3,0,3,0,1,X V Q F H G B L J M P D K C T S W R N Z,60d961f96595b918329ef4aa,28,Mężczyzna,2022-06-11_09h40.16.902,task,2021.1.4,Win32,143.8228103,6299f149e92ead563fba08ef,62a44682dff573a481316826,,,,,,,,,,,,,,,,,,,,,,,,,,,,,,,,,,,,,,,,,,,,,,,,,,,,,,,,,,,,,,,,,,,,,,,,,,,,,,,,,,,,,,,,,,,,,,,,,,,,,
,,,,,,4,0,4,0,1,X V Q F H G B L J M P D K C T S W R N Z,60d961f96595b918329ef4aa,28,Mężczyzna,2022-06-11_09h40.16.902,task,2021.1.4,Win32,143.8228103,6299f149e92ead563fba08ef,62a44682dff573a481316826,,,,,,,,,,,,,,,,,,,,,,,,,,,,,,,,,,,,,,,,,,,,,,,,,,,,,,,,,,,,,,,,,,,,,,,,,,,,,,,,,,,,,,,,,,,,,,,,,,,,,
,,,,,,5,0,5,0,1,X V Q F H G B L J M P D K C T S W R N Z,60d961f96595b918329ef4aa,28,Mężczyzna,2022-06-11_09h40.16.902,task,2021.1.4,Win32,143.8228103,6299f149e92ead563fba08ef,62a44682dff573a481316826,,,,,,,,,,,,,,,,,,,,,,,,,,,,,,,,,,,,,,,,,,,,,,,,,,,,,,,,,,,,,,,,,,,,,,,,,,,,,,,,,,,,,,,,,,,,,,,,,,,,,
,,,,,,6,0,6,0,1,X V Q F H G B L J M P D K C T S W R N Z,60d961f96595b918329ef4aa,28,Mężczyzna,2022-06-11_09h40.16.902,task,2021.1.4,Win32,143.8228103,6299f149e92ead563fba08ef,62a44682dff573a481316826,,,,,,,,,,,,,,,,,,,,,,,,,,,,,,,,,,,,,,,,,,,,,,,,,,,,,,,,,,,,,,,,,,,,,,,,,,,,,,,,,,,,,,,,,,,,,,,,,,,,,
,,,,,,,,,,,,60d961f96595b918329ef4aa,28,Mężczyzna,2022-06-11_09h40.16.902,task,2021.1.4,Win32,143.8228103,6299f149e92ead563fba08ef,62a44682dff573a481316826,nzlgzth,"[""n"",""z"",""l"",""g"",""z"",""t"",""h""]","[2.295200000000193,3.263200000000211,4.367200000000196,4.873600000000096,6.367700000000212,6.729100000000102,6.889300000000304,8.43950000000001]",1,NZLGZTH,11,0,11,0,1,,,,,,,,,,,,,,,,,,,,,,,,,,,,,,,,,,,,,,,,,,,,,,,,,,,,,,,,,,,,,,,,,,,,,,,,,,,,,,,,,,,,,,,,,,,
,,,,,,0,0,0,0,1,X V Q F H G B L J M P D K C T S W R N Z,60d961f96595b918329ef4aa,28,Mężczyzna,2022-06-11_09h40.16.902,task,2021.1.4,Win32,143.8228103,6299f149e92ead563fba08ef,62a44682dff573a481316826,,,,,,,,,,,,,,,,,,,,,,,,,,,,,,,,,,,,,,,,,,,,,,,,,,,,,,,,,,,,,,,,,,,,,,,,,,,,,,,,,,,,,,,,,,,,,,,,,,,,,
,,,,,,1,0,1,0,1,X V Q F H G B L J M P D K C T S W R N Z,60d961f96595b918329ef4aa,28,Mężczyzna,2022-06-11_09h40.16.902,task,2021.1.4,Win32,143.8228103,6299f149e92ead563fba08ef,62a44682dff573a481316826,,,,,,,,,,,,,,,,,,,,,,,,,,,,,,,,,,,,,,,,,,,,,,,,,,,,,,,,,,,,,,,,,,,,,,,,,,,,,,,,,,,,,,,,,,,,,,,,,,,,,
,,,,,,2,0,2,0,1,X V Q F H G B L J M P D K C T S W R N Z,60d961f96595b918329ef4aa,28,Mężczyzna,2022-06-11_09h40.16.902,task,2021.1.4,Win32,143.8228103,6299f149e92ead563fba08ef,62a44682dff573a481316826,,,,,,,,,,,,,,,,,,,,,,,,,,,,,,,,,,,,,,,,,,,,,,,,,,,,,,,,,,,,,,,,,,,,,,,,,,,,,,,,,,,,,,,,,,,,,,,,,,,,,
,,,,,,3,0,3,0,1,X V Q F H G B L J M P D K C T S W R N Z,60d961f96595b918329ef4aa,28,Mężczyzna,2022-06-11_09h40.16.902,task,2021.1.4,Win32,143.8228103,6299f149e92ead563fba08ef,62a44682dff573a481316826,,,,,,,,,,,,,,,,,,,,,,,,,,,,,,,,,,,,,,,,,,,,,,,,,,,,,,,,,,,,,,,,,,,,,,,,,,,,,,,,,,,,,,,,,,,,,,,,,,,,,
,,,,,,4,0,4,0,1,X V Q F H G B L J M P D K C T S W R N Z,60d961f96595b918329ef4aa,28,Mężczyzna,2022-06-11_09h40.16.902,task,2021.1.4,Win32,143.8228103,6299f149e92ead563fba08ef,62a44682dff573a481316826,,,,,,,,,,,,,,,,,,,,,,,,,,,,,,,,,,,,,,,,,,,,,,,,,,,,,,,,,,,,,,,,,,,,,,,,,,,,,,,,,,,,,,,,,,,,,,,,,,,,,
,,,,,,5,0,5,0,1,X V Q F H G B L J M P D K C T S W R N Z,60d961f96595b918329ef4aa,28,Mężczyzna,2022-06-11_09h40.16.902,task,2021.1.4,Win32,143.8228103,6299f149e92ead563fba08ef,62a44682dff573a481316826,,,,,,,,,,,,,,,,,,,,,,,,,,,,,,,,,,,,,,,,,,,,,,,,,,,,,,,,,,,,,,,,,,,,,,,,,,,,,,,,,,,,,,,,,,,,,,,,,,,,,
,,,,,,6,0,6,0,1,X V Q F H G B L J M P D K C T S W R N Z,60d961f96595b918329ef4aa,28,Mężczyzna,2022-06-11_09h40.16.902,task,2021.1.4,Win32,143.8228103,6299f149e92ead563fba08ef,62a44682dff573a481316826,,,,,,,,,,,,,,,,,,,,,,,,,,,,,,,,,,,,,,,,,,,,,,,,,,,,,,,,,,,,,,,,,,,,,,,,,,,,,,,,,,,,,,,,,,,,,,,,,,,,,
,,,,,,7,0,7,0,1,X V Q F H G B L J M P D K C T S W R N Z,60d961f96595b918329ef4aa,28,Mężczyzna,2022-06-11_09h40.16.902,task,2021.1.4,Win32,143.8228103,6299f149e92ead563fba08ef,62a44682dff573a481316826,,,,,,,,,,,,,,,,,,,,,,,,,,,,,,,,,,,,,,,,,,,,,,,,,,,,,,,,,,,,,,,,,,,,,,,,,,,,,,,,,,,,,,,,,,,,,,,,,,,,,
,,,,,,,,,,,,60d961f96595b918329ef4aa,28,Mężczyzna,2022-06-11_09h40.16.902,task,2021.1.4,Win32,143.8228103,6299f149e92ead563fba08ef,62a44682dff573a481316826,tnbmdsvv,"[""t"",""n"",""b"",""m"",""d"",""s"",""v"",""v""]","[2.4816000000000713,3.1292999999998017,3.553100000000086,5.0258999999998935,5.4251000000000715,5.785100000000085,6.169200000000188,6.393200000000178,6.857100000000088]",1,TNBMDSVV,12,0,12,0,1,,,,,,,,,,,,,,,,,,,,,,,,,,,,,,,,,,,,,,,,,,,,,,,,,,,,,,,,,,,,,,,,,,,,,,,,,,,,,,,,,,,,,,,,,,,
,,,,,,0,0,0,0,1,X V Q F H G B L J M P D K C T S W R N Z,60d961f96595b918329ef4aa,28,Mężczyzna,2022-06-11_09h40.16.902,task,2021.1.4,Win32,143.8228103,6299f149e92ead563fba08ef,62a44682dff573a481316826,,,,,,,,,,,,,,,,,,,,,,,,,,,,,,,,,,,,,,,,,,,,,,,,,,,,,,,,,,,,,,,,,,,,,,,,,,,,,,,,,,,,,,,,,,,,,,,,,,,,,
,,,,,,1,0,1,0,1,X V Q F H G B L J M P D K C T S W R N Z,60d961f96595b918329ef4aa,28,Mężczyzna,2022-06-11_09h40.16.902,task,2021.1.4,Win32,143.8228103,6299f149e92ead563fba08ef,62a44682dff573a481316826,,,,,,,,,,,,,,,,,,,,,,,,,,,,,,,,,,,,,,,,,,,,,,,,,,,,,,,,,,,,,,,,,,,,,,,,,,,,,,,,,,,,,,,,,,,,,,,,,,,,,
,,,,,,2,0,2,0,1,X V Q F H G B L J M P D K C T S W R N Z,60d961f96595b918329ef4aa,28,Mężczyzna,2022-06-11_09h40.16.902,task,2021.1.4,Win32,143.8228103,6299f149e92ead563fba08ef,62a44682dff573a481316826,,,,,,,,,,,,,,,,,,,,,,,,,,,,,,,,,,,,,,,,,,,,,,,,,,,,,,,,,,,,,,,,,,,,,,,,,,,,,,,,,,,,,,,,,,,,,,,,,,,,,
,,,,,,3,0,3,0,1,X V Q F H G B L J M P D K C T S W R N Z,60d961f96595b918329ef4aa,28,Mężczyzna,2022-06-11_09h40.16.902,task,2021.1.4,Win32,143.8228103,6299f149e92ead563fba08ef,62a44682dff573a481316826,,,,,,,,,,,,,,,,,,,,,,,,,,,,,,,,,,,,,,,,,,,,,,,,,,,,,,,,,,,,,,,,,,,,,,,,,,,,,,,,,,,,,,,,,,,,,,,,,,,,,
,,,,,,4,0,4,0,1,X V Q F H G B L J M P D K C T S W R N Z,60d961f96595b918329ef4aa,28,Mężczyzna,2022-06-11_09h40.16.902,task,2021.1.4,Win32,143.8228103,6299f149e92ead563fba08ef,62a44682dff573a481316826,,,,,,,,,,,,,,,,,,,,,,,,,,,,,,,,,,,,,,,,,,,,,,,,,,,,,,,,,,,,,,,,,,,,,,,,,,,,,,,,,,,,,,,,,,,,,,,,,,,,,
,,,,,,5,0,5,0,1,X V Q F H G B L J M P D K C T S W R N Z,60d961f96595b918329ef4aa,28,Mężczyzna,2022-06-11_09h40.16.902,task,2021.1.4,Win32,143.8228103,6299f149e92ead563fba08ef,62a44682dff573a481316826,,,,,,,,,,,,,,,,,,,,,,,,,,,,,,,,,,,,,,,,,,,,,,,,,,,,,,,,,,,,,,,,,,,,,,,,,,,,,,,,,,,,,,,,,,,,,,,,,,,,,
,,,,,,6,0,6,0,1,X V Q F H G B L J M P D K C T S W R N Z,60d961f96595b918329ef4aa,28,Mężczyzna,2022-06-11_09h40.16.902,task,2021.1.4,Win32,143.8228103,6299f149e92ead563fba08ef,62a44682dff573a481316826,,,,,,,,,,,,,,,,,,,,,,,,,,,,,,,,,,,,,,,,,,,,,,,,,,,,,,,,,,,,,,,,,,,,,,,,,,,,,,,,,,,,,,,,,,,,,,,,,,,,,
,,,,,,7,0,7,0,1,X V Q F H G B L J M P D K C T S W R N Z,60d961f96595b918329ef4aa,28,Mężczyzna,2022-06-11_09h40.16.902,task,2021.1.4,Win32,143.8228103,6299f149e92ead563fba08ef,62a44682dff573a481316826,,,,,,,,,,,,,,,,,,,,,,,,,,,,,,,,,,,,,,,,,,,,,,,,,,,,,,,,,,,,,,,,,,,,,,,,,,,,,,,,,,,,,,,,,,,,,,,,,,,,,
,,,,,,,,,,,,60d961f96595b918329ef4aa,28,Mężczyzna,2022-06-11_09h40.16.902,task,2021.1.4,Win32,143.8228103,6299f149e92ead563fba08ef,62a44682dff573a481316826,nrkpqtjc,"[""n"",""r"",""k"",""p"",""q"",""t"",""j"",""c""]","[2.268200000000178,2.5483000000002676,3.25330000000028,4.421100000000081,4.740800000000263,4.988399999999899,5.366500000000002,5.6283999999998855,13.100600000000071]",1,NRKPQTJC,13,0,13,0,1,,,,,,,,,,,,,,,,,,,,,,,,,,,,,,,,,,,,,,,,,,,,,,,,,,,,,,,,,,,,,,,,,,,,,,,,,,,,,,,,,,,,,,,,,,,
,,,,,,0,0,0,0,1,X V Q F H G B L J M P D K C T S W R N Z,60d961f96595b918329ef4aa,28,Mężczyzna,2022-06-11_09h40.16.902,task,2021.1.4,Win32,143.8228103,6299f149e92ead563fba08ef,62a44682dff573a481316826,,,,,,,,,,,,,,,,,,,,,,,,,,,,,,,,,,,,,,,,,,,,,,,,,,,,,,,,,,,,,,,,,,,,,,,,,,,,,,,,,,,,,,,,,,,,,,,,,,,,,
,,,,,,1,0,1,0,1,X V Q F H G B L J M P D K C T S W R N Z,60d961f96595b918329ef4aa,28,Mężczyzna,2022-06-11_09h40.16.902,task,2021.1.4,Win32,143.8228103,6299f149e92ead563fba08ef,62a44682dff573a481316826,,,,,,,,,,,,,,,,,,,,,,,,,,,,,,,,,,,,,,,,,,,,,,,,,,,,,,,,,,,,,,,,,,,,,,,,,,,,,,,,,,,,,,,,,,,,,,,,,,,,,
,,,,,,2,0,2,0,1,X V Q F H G B L J M P D K C T S W R N Z,60d961f96595b918329ef4aa,28,Mężczyzna,2022-06-11_09h40.16.902,task,2021.1.4,Win32,143.8228103,6299f149e92ead563fba08ef,62a44682dff573a481316826,,,,,,,,,,,,,,,,,,,,,,,,,,,,,,,,,,,,,,,,,,,,,,,,,,,,,,,,,,,,,,,,,,,,,,,,,,,,,,,,,,,,,,,,,,,,,,,,,,,,,
,,,,,,3,0,3,0,1,X V Q F H G B L J M P D K C T S W R N Z,60d961f96595b918329ef4aa,28,Mężczyzna,2022-06-11_09h40.16.902,task,2021.1.4,Win32,143.8228103,6299f149e92ead563fba08ef,62a44682dff573a481316826,,,,,,,,,,,,,,,,,,,,,,,,,,,,,,,,,,,,,,,,,,,,,,,,,,,,,,,,,,,,,,,,,,,,,,,,,,,,,,,,,,,,,,,,,,,,,,,,,,,,,
,,,,,,4,0,4,0,1,X V Q F H G B L J M P D K C T S W R N Z,60d961f96595b918329ef4aa,28,Mężczyzna,2022-06-11_09h40.16.902,task,2021.1.4,Win32,143.8228103,6299f149e92ead563fba08ef,62a44682dff573a481316826,,,,,,,,,,,,,,,,,,,,,,,,,,,,,,,,,,,,,,,,,,,,,,,,,,,,,,,,,,,,,,,,,,,,,,,,,,,,,,,,,,,,,,,,,,,,,,,,,,,,,
,,,,,,5,0,5,0,1,X V Q F H G B L J M P D K C T S W R N Z,60d961f96595b918329ef4aa,28,Mężczyzna,2022-06-11_09h40.16.902,task,2021.1.4,Win32,143.8228103,6299f149e92ead563fba08ef,62a44682dff573a481316826,,,,,,,,,,,,,,,,,,,,,,,,,,,,,,,,,,,,,,,,,,,,,,,,,,,,,,,,,,,,,,,,,,,,,,,,,,,,,,,,,,,,,,,,,,,,,,,,,,,,,
,,,,,,6,0,6,0,1,X V Q F H G B L J M P D K C T S W R N Z,60d961f96595b918329ef4aa,28,Mężczyzna,2022-06-11_09h40.16.902,task,2021.1.4,Win32,143.8228103,6299f149e92ead563fba08ef,62a44682dff573a481316826,,,,,,,,,,,,,,,,,,,,,,,,,,,,,,,,,,,,,,,,,,,,,,,,,,,,,,,,,,,,,,,,,,,,,,,,,,,,,,,,,,,,,,,,,,,,,,,,,,,,,
,,,,,,7,0,7,0,1,X V Q F H G B L J M P D K C T S W R N Z,60d961f96595b918329ef4aa,28,Mężczyzna,2022-06-11_09h40.16.902,task,2021.1.4,Win32,143.8228103,6299f149e92ead563fba08ef,62a44682dff573a481316826,,,,,,,,,,,,,,,,,,,,,,,,,,,,,,,,,,,,,,,,,,,,,,,,,,,,,,,,,,,,,,,,,,,,,,,,,,,,,,,,,,,,,,,,,,,,,,,,,,,,,
,,,,,,8,0,8,0,1,X V Q F H G B L J M P D K C T S W R N Z,60d961f96595b918329ef4aa,28,Mężczyzna,2022-06-11_09h40.16.902,task,2021.1.4,Win32,143.8228103,6299f149e92ead563fba08ef,62a44682dff573a481316826,,,,,,,,,,,,,,,,,,,,,,,,,,,,,,,,,,,,,,,,,,,,,,,,,,,,,,,,,,,,,,,,,,,,,,,,,,,,,,,,,,,,,,,,,,,,,,,,,,,,,
,,,,,,,,,,,,60d961f96595b918329ef4aa,28,Mężczyzna,2022-06-11_09h40.16.902,task,2021.1.4,Win32,143.8228103,6299f149e92ead563fba08ef,62a44682dff573a481316826,xjczpnkfn,"[""x"",""j"",""c"",""z"",""p"",""n"",""k"",""f"",""n""]","[2.2807000000002233,2.536700000000195,3.040799999999848,3.3687999999998226,3.7287000000002024,4.048899999999918,4.4566000000001225,4.736899999999906,4.936700000000172,5.505600000000101]",1,XJCZPNKFN,14,0,14,0,1,,,,,,,,,,,,,,,,,,,,,,,,,,,,,,,,,,,,,,,,,,,,,,,,,,,,,,,,,,,,,,,,,,,,,,,,,,,,,,,,,,,,,,,,,,,
,,,,,,0,0,0,0,1,X V Q F H G B L J M P D K C T S W R N Z,60d961f96595b918329ef4aa,28,Mężczyzna,2022-06-11_09h40.16.902,task,2021.1.4,Win32,143.8228103,6299f149e92ead563fba08ef,62a44682dff573a481316826,,,,,,,,,,,,,,,,,,,,,,,,,,,,,,,,,,,,,,,,,,,,,,,,,,,,,,,,,,,,,,,,,,,,,,,,,,,,,,,,,,,,,,,,,,,,,,,,,,,,,
,,,,,,1,0,1,0,1,X V Q F H G B L J M P D K C T S W R N Z,60d961f96595b918329ef4aa,28,Mężczyzna,2022-06-11_09h40.16.902,task,2021.1.4,Win32,143.8228103,6299f149e92ead563fba08ef,62a44682dff573a481316826,,,,,,,,,,,,,,,,,,,,,,,,,,,,,,,,,,,,,,,,,,,,,,,,,,,,,,,,,,,,,,,,,,,,,,,,,,,,,,,,,,,,,,,,,,,,,,,,,,,,,
,,,,,,2,0,2,0,1,X V Q F H G B L J M P D K C T S W R N Z,60d961f96595b918329ef4aa,28,Mężczyzna,2022-06-11_09h40.16.902,task,2021.1.4,Win32,143.8228103,6299f149e92ead563fba08ef,62a44682dff573a481316826,,,,,,,,,,,,,,,,,,,,,,,,,,,,,,,,,,,,,,,,,,,,,,,,,,,,,,,,,,,,,,,,,,,,,,,,,,,,,,,,,,,,,,,,,,,,,,,,,,,,,
,,,,,,3,0,3,0,1,X V Q F H G B L J M P D K C T S W R N Z,60d961f96595b918329ef4aa,28,Mężczyzna,2022-06-11_09h40.16.902,task,2021.1.4,Win32,143.8228103,6299f149e92ead563fba08ef,62a44682dff573a481316826,,,,,,,,,,,,,,,,,,,,,,,,,,,,,,,,,,,,,,,,,,,,,,,,,,,,,,,,,,,,,,,,,,,,,,,,,,,,,,,,,,,,,,,,,,,,,,,,,,,,,
,,,,,,4,0,4,0,1,X V Q F H G B L J M P D K C T S W R N Z,60d961f96595b918329ef4aa,28,Mężczyzna,2022-06-11_09h40.16.902,task,2021.1.4,Win32,143.8228103,6299f149e92ead563fba08ef,62a44682dff573a481316826,,,,,,,,,,,,,,,,,,,,,,,,,,,,,,,,,,,,,,,,,,,,,,,,,,,,,,,,,,,,,,,,,,,,,,,,,,,,,,,,,,,,,,,,,,,,,,,,,,,,,
,,,,,,5,0,5,0,1,X V Q F H G B L J M P D K C T S W R N Z,60d961f96595b918329ef4aa,28,Mężczyzna,2022-06-11_09h40.16.902,task,2021.1.4,Win32,143.8228103,6299f149e92ead563fba08ef,62a44682dff573a481316826,,,,,,,,,,,,,,,,,,,,,,,,,,,,,,,,,,,,,,,,,,,,,,,,,,,,,,,,,,,,,,,,,,,,,,,,,,,,,,,,,,,,,,,,,,,,,,,,,,,,,
,,,,,,6,0,6,0,1,X V Q F H G B L J M P D K C T S W R N Z,60d961f96595b918329ef4aa,28,Mężczyzna,2022-06-11_09h40.16.902,task,2021.1.4,Win32,143.8228103,6299f149e92ead563fba08ef,62a44682dff573a481316826,,,,,,,,,,,,,,,,,,,,,,,,,,,,,,,,,,,,,,,,,,,,,,,,,,,,,,,,,,,,,,,,,,,,,,,,,,,,,,,,,,,,,,,,,,,,,,,,,,,,,
,,,,,,7,0,7,0,1,X V Q F H G B L J M P D K C T S W R N Z,60d961f96595b918329ef4aa,28,Mężczyzna,2022-06-11_09h40.16.902,task,2021.1.4,Win32,143.8228103,6299f149e92ead563fba08ef,62a44682dff573a481316826,,,,,,,,,,,,,,,,,,,,,,,,,,,,,,,,,,,,,,,,,,,,,,,,,,,,,,,,,,,,,,,,,,,,,,,,,,,,,,,,,,,,,,,,,,,,,,,,,,,,,
,,,,,,8,0,8,0,1,X V Q F H G B L J M P D K C T S W R N Z,60d961f96595b918329ef4aa,28,Mężczyzna,2022-06-11_09h40.16.902,task,2021.1.4,Win32,143.8228103,6299f149e92ead563fba08ef,62a44682dff573a481316826,,,,,,,,,,,,,,,,,,,,,,,,,,,,,,,,,,,,,,,,,,,,,,,,,,,,,,,,,,,,,,,,,,,,,,,,,,,,,,,,,,,,,,,,,,,,,,,,,,,,,
,,,,,,,,,,,,60d961f96595b918329ef4aa,28,Mężczyzna,2022-06-11_09h40.16.902,task,2021.1.4,Win32,143.8228103,6299f149e92ead563fba08ef,62a44682dff573a481316826,nqmbsszvc,"[""n"",""q"",""m"",""b"",""s"",""s"",""z"",""v"",""c""]","[1.8646000000001095,2.159799999999791,2.463600000000099,3.61689999999993,4.055600000000084,4.416100000000085,4.743600000000072,5.127600000000086,5.424299999999789,6.27210000000008]",1,NQMBSSZVC,15,0,15,0,1,,,,,,,,,,,,,,,,,,,,,,,,,,,,,,,,,,,,,,,,,,,,,,,,,,,,,,,,,,,,,,,,,,,,,,,,,,,,,,,,,,,,,,,,,,,
,,,,,,0,0,0,0,1,X V Q F H G B L J M P D K C T S W R N Z,60d961f96595b918329ef4aa,28,Mężczyzna,2022-06-11_09h40.16.902,task,2021.1.4,Win32,143.8228103,6299f149e92ead563fba08ef,62a44682dff573a481316826,,,,,,,,,,,,,,,,,,,,,,,,,,,,,,,,,,,,,,,,,,,,,,,,,,,,,,,,,,,,,,,,,,,,,,,,,,,,,,,,,,,,,,,,,,,,,,,,,,,,,
,,,,,,1,0,1,0,1,X V Q F H G B L J M P D K C T S W R N Z,60d961f96595b918329ef4aa,28,Mężczyzna,2022-06-11_09h40.16.902,task,2021.1.4,Win32,143.8228103,6299f149e92ead563fba08ef,62a44682dff573a481316826,,,,,,,,,,,,,,,,,,,,,,,,,,,,,,,,,,,,,,,,,,,,,,,,,,,,,,,,,,,,,,,,,,,,,,,,,,,,,,,,,,,,,,,,,,,,,,,,,,,,,
,,,,,,2,0,2,0,1,X V Q F H G B L J M P D K C T S W R N Z,60d961f96595b918329ef4aa,28,Mężczyzna,2022-06-11_09h40.16.902,task,2021.1.4,Win32,143.8228103,6299f149e92ead563fba08ef,62a44682dff573a481316826,,,,,,,,,,,,,,,,,,,,,,,,,,,,,,,,,,,,,,,,,,,,,,,,,,,,,,,,,,,,,,,,,,,,,,,,,,,,,,,,,,,,,,,,,,,,,,,,,,,,,
,,,,,,3,0,3,0,1,X V Q F H G B L J M P D K C T S W R N Z,60d961f96595b918329ef4aa,28,Mężczyzna,2022-06-11_09h40.16.902,task,2021.1.4,Win32,143.8228103,6299f149e92ead563fba08ef,62a44682dff573a481316826,,,,,,,,,,,,,,,,,,,,,,,,,,,,,,,,,,,,,,,,,,,,,,,,,,,,,,,,,,,,,,,,,,,,,,,,,,,,,,,,,,,,,,,,,,,,,,,,,,,,,
,,,,,,4,0,4,0,1,X V Q F H G B L J M P D K C T S W R N Z,60d961f96595b918329ef4aa,28,Mężczyzna,2022-06-11_09h40.16.902,task,2021.1.4,Win32,143.8228103,6299f149e92ead563fba08ef,62a44682dff573a481316826,,,,,,,,,,,,,,,,,,,,,,,,,,,,,,,,,,,,,,,,,,,,,,,,,,,,,,,,,,,,,,,,,,,,,,,,,,,,,,,,,,,,,,,,,,,,,,,,,,,,,
,,,,,,5,0,5,0,1,X V Q F H G B L J M P D K C T S W R N Z,60d961f96595b918329ef4aa,28,Mężczyzna,2022-06-11_09h40.16.902,task,2021.1.4,Win32,143.8228103,6299f149e92ead563fba08ef,62a44682dff573a481316826,,,,,,,,,,,,,,,,,,,,,,,,,,,,,,,,,,,,,,,,,,,,,,,,,,,,,,,,,,,,,,,,,,,,,,,,,,,,,,,,,,,,,,,,,,,,,,,,,,,,,
,,,,,,6,0,6,0,1,X V Q F H G B L J M P D K C T S W R N Z,60d961f96595b918329ef4aa,28,Mężczyzna,2022-06-11_09h40.16.902,task,2021.1.4,Win32,143.8228103,6299f149e92ead563fba08ef,62a44682dff573a481316826,,,,,,,,,,,,,,,,,,,,,,,,,,,,,,,,,,,,,,,,,,,,,,,,,,,,,,,,,,,,,,,,,,,,,,,,,,,,,,,,,,,,,,,,,,,,,,,,,,,,,
,,,,,,7,0,7,0,1,X V Q F H G B L J M P D K C T S W R N Z,60d961f96595b918329ef4aa,28,Mężczyzna,2022-06-11_09h40.16.902,task,2021.1.4,Win32,143.8228103,6299f149e92ead563fba08ef,62a44682dff573a481316826,,,,,,,,,,,,,,,,,,,,,,,,,,,,,,,,,,,,,,,,,,,,,,,,,,,,,,,,,,,,,,,,,,,,,,,,,,,,,,,,,,,,,,,,,,,,,,,,,,,,,
,,,,,,8,0,8,0,1,X V Q F H G B L J M P D K C T S W R N Z,60d961f96595b918329ef4aa,28,Mężczyzna,2022-06-11_09h40.16.902,task,2021.1.4,Win32,143.8228103,6299f149e92ead563fba08ef,62a44682dff573a481316826,,,,,,,,,,,,,,,,,,,,,,,,,,,,,,,,,,,,,,,,,,,,,,,,,,,,,,,,,,,,,,,,,,,,,,,,,,,,,,,,,,,,,,,,,,,,,,,,,,,,,
,,,,,,9,0,9,0,1,X V Q F H G B L J M P D K C T S W R N Z,60d961f96595b918329ef4aa,28,Mężczyzna,2022-06-11_09h40.16.902,task,2021.1.4,Win32,143.8228103,6299f149e92ead563fba08ef,62a44682dff573a481316826,,,,,,,,,,,,,,,,,,,,,,,,,,,,,,,,,,,,,,,,,,,,,,,,,,,,,,,,,,,,,,,,,,,,,,,,,,,,,,,,,,,,,,,,,,,,,,,,,,,,,
,,,,,,,,,,,,60d961f96595b918329ef4aa,28,Mężczyzna,2022-06-11_09h40.16.902,task,2021.1.4,Win32,143.8228103,6299f149e92ead563fba08ef,62a44682dff573a481316826,gdrsjnvqsv,"[""g"",""d"",""r"",""s"",""j"",""n"",""v"",""q"",""s"",""v""]","[1.939399999999921,2.3608999999999014,2.7851999999996906,3.1930999999996175,3.6089999999999804,4.017999999999972,4.481099999999628,5.0260000000000105,5.387499999999989,5.992999999999995,6.913299999999822]",1,GDRSJNVQSV,16,0,16,0,1,,,,,,,,,,,,,,,,,,,,,,,,,,,,,,,,,,,,,,,,,,,,,,,,,,,,,,,,,,,,,,,,,,,,,,,,,,,,,,,,,,,,,,,,,,,
,,,,,,0,0,0,0,1,X V Q F H G B L J M P D K C T S W R N Z,60d961f96595b918329ef4aa,28,Mężczyzna,2022-06-11_09h40.16.902,task,2021.1.4,Win32,143.8228103,6299f149e92ead563fba08ef,62a44682dff573a481316826,,,,,,,,,,,,,,,,,,,,,,,,,,,,,,,,,,,,,,,,,,,,,,,,,,,,,,,,,,,,,,,,,,,,,,,,,,,,,,,,,,,,,,,,,,,,,,,,,,,,,
,,,,,,1,0,1,0,1,X V Q F H G B L J M P D K C T S W R N Z,60d961f96595b918329ef4aa,28,Mężczyzna,2022-06-11_09h40.16.902,task,2021.1.4,Win32,143.8228103,6299f149e92ead563fba08ef,62a44682dff573a481316826,,,,,,,,,,,,,,,,,,,,,,,,,,,,,,,,,,,,,,,,,,,,,,,,,,,,,,,,,,,,,,,,,,,,,,,,,,,,,,,,,,,,,,,,,,,,,,,,,,,,,
,,,,,,2,0,2,0,1,X V Q F H G B L J M P D K C T S W R N Z,60d961f96595b918329ef4aa,28,Mężczyzna,2022-06-11_09h40.16.902,task,2021.1.4,Win32,143.8228103,6299f149e92ead563fba08ef,62a44682dff573a481316826,,,,,,,,,,,,,,,,,,,,,,,,,,,,,,,,,,,,,,,,,,,,,,,,,,,,,,,,,,,,,,,,,,,,,,,,,,,,,,,,,,,,,,,,,,,,,,,,,,,,,
,,,,,,3,0,3,0,1,X V Q F H G B L J M P D K C T S W R N Z,60d961f96595b918329ef4aa,28,Mężczyzna,2022-06-11_09h40.16.902,task,2021.1.4,Win32,143.8228103,6299f149e92ead563fba08ef,62a44682dff573a481316826,,,,,,,,,,,,,,,,,,,,,,,,,,,,,,,,,,,,,,,,,,,,,,,,,,,,,,,,,,,,,,,,,,,,,,,,,,,,,,,,,,,,,,,,,,,,,,,,,,,,,
,,,,,,4,0,4,0,1,X V Q F H G B L J M P D K C T S W R N Z,60d961f96595b918329ef4aa,28,Mężczyzna,2022-06-11_09h40.16.902,task,2021.1.4,Win32,143.8228103,6299f149e92ead563fba08ef,62a44682dff573a481316826,,,,,,,,,,,,,,,,,,,,,,,,,,,,,,,,,,,,,,,,,,,,,,,,,,,,,,,,,,,,,,,,,,,,,,,,,,,,,,,,,,,,,,,,,,,,,,,,,,,,,
,,,,,,5,0,5,0,1,X V Q F H G B L J M P D K C T S W R N Z,60d961f96595b918329ef4aa,28,Mężczyzna,2022-06-11_09h40.16.902,task,2021.1.4,Win32,143.8228103,6299f149e92ead563fba08ef,62a44682dff573a481316826,,,,,,,,,,,,,,,,,,,,,,,,,,,,,,,,,,,,,,,,,,,,,,,,,,,,,,,,,,,,,,,,,,,,,,,,,,,,,,,,,,,,,,,,,,,,,,,,,,,,,
,,,,,,6,0,6,0,1,X V Q F H G B L J M P D K C T S W R N Z,60d961f96595b918329ef4aa,28,Mężczyzna,2022-06-11_09h40.16.902,task,2021.1.4,Win32,143.8228103,6299f149e92ead563fba08ef,62a44682dff573a481316826,,,,,,,,,,,,,,,,,,,,,,,,,,,,,,,,,,,,,,,,,,,,,,,,,,,,,,,,,,,,,,,,,,,,,,,,,,,,,,,,,,,,,,,,,,,,,,,,,,,,,
,,,,,,7,0,7,0,1,X V Q F H G B L J M P D K C T S W R N Z,60d961f96595b918329ef4aa,28,Mężczyzna,2022-06-11_09h40.16.902,task,2021.1.4,Win32,143.8228103,6299f149e92ead563fba08ef,62a44682dff573a481316826,,,,,,,,,,,,,,,,,,,,,,,,,,,,,,,,,,,,,,,,,,,,,,,,,,,,,,,,,,,,,,,,,,,,,,,,,,,,,,,,,,,,,,,,,,,,,,,,,,,,,
,,,,,,8,0,8,0,1,X V Q F H G B L J M P D K C T S W R N Z,60d961f96595b918329ef4aa,28,Mężczyzna,2022-06-11_09h40.16.902,task,2021.1.4,Win32,143.8228103,6299f149e92ead563fba08ef,62a44682dff573a481316826,,,,,,,,,,,,,,,,,,,,,,,,,,,,,,,,,,,,,,,,,,,,,,,,,,,,,,,,,,,,,,,,,,,,,,,,,,,,,,,,,,,,,,,,,,,,,,,,,,,,,
,,,,,,9,0,9,0,1,X V Q F H G B L J M P D K C T S W R N Z,60d961f96595b918329ef4aa,28,Mężczyzna,2022-06-11_09h40.16.902,task,2021.1.4,Win32,143.8228103,6299f149e92ead563fba08ef,62a44682dff573a481316826,,,,,,,,,,,,,,,,,,,,,,,,,,,,,,,,,,,,,,,,,,,,,,,,,,,,,,,,,,,,,,,,,,,,,,,,,,,,,,,,,,,,,,,,,,,,,,,,,,,,,
,,,,,,,,,,,,60d961f96595b918329ef4aa,28,Mężczyzna,2022-06-11_09h40.16.902,task,2021.1.4,Win32,143.8228103,6299f149e92ead563fba08ef,62a44682dff573a481316826,kbwqkbdggh,"[""k"",""b"",""w"",""q"",""k"",""b"",""d"",""g"",""g"",""h""]","[1.6542999999998074,2.2382999999998106,2.805799999999806,3.1906000000000745,3.589799999999798,4.117600000000095,4.477699999999743,4.782600000000116,4.981799999999794,5.9896000000001095,8.10169999999971]",1,KBWQKBDGGH,17,0,17,0,1,,,,,,,,,,,,,,,,,,,,,,,,,,,,,,,,,,,,,,,,,,,,,,,,,,,,,,,,,,,,,,,,,,,,,,,,,,,,,,,,,,,,,,,,,,,
,,,,,,0,0,0,0,1,X V Q F H G B L J M P D K C T S W R N Z,60d961f96595b918329ef4aa,28,Mężczyzna,2022-06-11_09h40.16.902,task,2021.1.4,Win32,143.8228103,6299f149e92ead563fba08ef,62a44682dff573a481316826,,,,,,,,,,,,,,,,,,,,,,,,,,,,,,,,,,,,,,,,,,,,,,,,,,,,,,,,,,,,,,,,,,,,,,,,,,,,,,,,,,,,,,,,,,,,,,,,,,,,,
,,,,,,1,0,1,0,1,X V Q F H G B L J M P D K C T S W R N Z,60d961f96595b918329ef4aa,28,Mężczyzna,2022-06-11_09h40.16.902,task,2021.1.4,Win32,143.8228103,6299f149e92ead563fba08ef,62a44682dff573a481316826,,,,,,,,,,,,,,,,,,,,,,,,,,,,,,,,,,,,,,,,,,,,,,,,,,,,,,,,,,,,,,,,,,,,,,,,,,,,,,,,,,,,,,,,,,,,,,,,,,,,,
,,,,,,2,0,2,0,1,X V Q F H G B L J M P D K C T S W R N Z,60d961f96595b918329ef4aa,28,Mężczyzna,2022-06-11_09h40.16.902,task,2021.1.4,Win32,143.8228103,6299f149e92ead563fba08ef,62a44682dff573a481316826,,,,,,,,,,,,,,,,,,,,,,,,,,,,,,,,,,,,,,,,,,,,,,,,,,,,,,,,,,,,,,,,,,,,,,,,,,,,,,,,,,,,,,,,,,,,,,,,,,,,,
,,,,,,3,0,3,0,1,X V Q F H G B L J M P D K C T S W R N Z,60d961f96595b918329ef4aa,28,Mężczyzna,2022-06-11_09h40.16.902,task,2021.1.4,Win32,143.8228103,6299f149e92ead563fba08ef,62a44682dff573a481316826,,,,,,,,,,,,,,,,,,,,,,,,,,,,,,,,,,,,,,,,,,,,,,,,,,,,,,,,,,,,,,,,,,,,,,,,,,,,,,,,,,,,,,,,,,,,,,,,,,,,,
,,,,,,4,0,4,0,1,X V Q F H G B L J M P D K C T S W R N Z,60d961f96595b918329ef4aa,28,Mężczyzna,2022-06-11_09h40.16.902,task,2021.1.4,Win32,143.8228103,6299f149e92ead563fba08ef,62a44682dff573a481316826,,,,,,,,,,,,,,,,,,,,,,,,,,,,,,,,,,,,,,,,,,,,,,,,,,,,,,,,,,,,,,,,,,,,,,,,,,,,,,,,,,,,,,,,,,,,,,,,,,,,,
,,,,,,5,0,5,0,1,X V Q F H G B L J M P D K C T S W R N Z,60d961f96595b918329ef4aa,28,Mężczyzna,2022-06-11_09h40.16.902,task,2021.1.4,Win32,143.8228103,6299f149e92ead563fba08ef,62a44682dff573a481316826,,,,,,,,,,,,,,,,,,,,,,,,,,,,,,,,,,,,,,,,,,,,,,,,,,,,,,,,,,,,,,,,,,,,,,,,,,,,,,,,,,,,,,,,,,,,,,,,,,,,,
,,,,,,6,0,6,0,1,X V Q F H G B L J M P D K C T S W R N Z,60d961f96595b918329ef4aa,28,Mężczyzna,2022-06-11_09h40.16.902,task,2021.1.4,Win32,143.8228103,6299f149e92ead563fba08ef,62a44682dff573a481316826,,,,,,,,,,,,,,,,,,,,,,,,,,,,,,,,,,,,,,,,,,,,,,,,,,,,,,,,,,,,,,,,,,,,,,,,,,,,,,,,,,,,,,,,,,,,,,,,,,,,,
,,,,,,7,0,7,0,1,X V Q F H G B L J M P D K C T S W R N Z,60d961f96595b918329ef4aa,28,Mężczyzna,2022-06-11_09h40.16.902,task,2021.1.4,Win32,143.8228103,6299f149e92ead563fba08ef,62a44682dff573a481316826,,,,,,,,,,,,,,,,,,,,,,,,,,,,,,,,,,,,,,,,,,,,,,,,,,,,,,,,,,,,,,,,,,,,,,,,,,,,,,,,,,,,,,,,,,,,,,,,,,,,,
,,,,,,8,0,8,0,1,X V Q F H G B L J M P D K C T S W R N Z,60d961f96595b918329ef4aa,28,Mężczyzna,2022-06-11_09h40.16.902,task,2021.1.4,Win32,143.8228103,6299f149e92ead563fba08ef,62a44682dff573a481316826,,,,,,,,,,,,,,,,,,,,,,,,,,,,,,,,,,,,,,,,,,,,,,,,,,,,,,,,,,,,,,,,,,,,,,,,,,,,,,,,,,,,,,,,,,,,,,,,,,,,,
,,,,,,9,0,9,0,1,X V Q F H G B L J M P D K C T S W R N Z,60d961f96595b918329ef4aa,28,Mężczyzna,2022-06-11_09h40.16.902,task,2021.1.4,Win32,143.8228103,6299f149e92ead563fba08ef,62a44682dff573a481316826,,,,,,,,,,,,,,,,,,,,,,,,,,,,,,,,,,,,,,,,,,,,,,,,,,,,,,,,,,,,,,,,,,,,,,,,,,,,,,,,,,,,,,,,,,,,,,,,,,,,,
,,,,,,10,0,10,0,1,X V Q F H G B L J M P D K C T S W R N Z,60d961f96595b918329ef4aa,28,Mężczyzna,2022-06-11_09h40.16.902,task,2021.1.4,Win32,143.8228103,6299f149e92ead563fba08ef,62a44682dff573a481316826,,,,,,,,,,,,,,,,,,,,,,,,,,,,,,,,,,,,,,,,,,,,,,,,,,,,,,,,,,,,,,,,,,,,,,,,,,,,,,,,,,,,,,,,,,,,,,,,,,,,,
,,,,,,,,,,,,60d961f96595b918329ef4aa,28,Mężczyzna,2022-06-11_09h40.16.902,task,2021.1.4,Win32,143.8228103,6299f149e92ead563fba08ef,62a44682dff573a481316826,rfktbgpgfcl,"[""r"",""f"",""k"",""t"",""b"",""g"",""p"",""g"",""f"",""c"",""l""]","[1.633300000000247,1.9123999999998773,2.1548000000002503,2.7204999999999586,3.0246000000000777,8.056800000000237,8.41799999999995,8.744600000000048,10.456499999999949,10.75410000000005,11.040499999999952,12.088600000000042]",1,RFKTBGPGFCL,18,0,18,0,1,,,,,,,,,,,,,,,,,,,,,,,,,,,,,,,,,,,,,,,,,,,,,,,,,,,,,,,,,,,,,,,,,,,,,,,,,,,,,,,,,,,,,,,,,,,
,,,,,,0,0,0,0,1,X V Q F H G B L J M P D K C T S W R N Z,60d961f96595b918329ef4aa,28,Mężczyzna,2022-06-11_09h40.16.902,task,2021.1.4,Win32,143.8228103,6299f149e92ead563fba08ef,62a44682dff573a481316826,,,,,,,,,,,,,,,,,,,,,,,,,,,,,,,,,,,,,,,,,,,,,,,,,,,,,,,,,,,,,,,,,,,,,,,,,,,,,,,,,,,,,,,,,,,,,,,,,,,,,
,,,,,,1,0,1,0,1,X V Q F H G B L J M P D K C T S W R N Z,60d961f96595b918329ef4aa,28,Mężczyzna,2022-06-11_09h40.16.902,task,2021.1.4,Win32,143.8228103,6299f149e92ead563fba08ef,62a44682dff573a481316826,,,,,,,,,,,,,,,,,,,,,,,,,,,,,,,,,,,,,,,,,,,,,,,,,,,,,,,,,,,,,,,,,,,,,,,,,,,,,,,,,,,,,,,,,,,,,,,,,,,,,
,,,,,,2,0,2,0,1,X V Q F H G B L J M P D K C T S W R N Z,60d961f96595b918329ef4aa,28,Mężczyzna,2022-06-11_09h40.16.902,task,2021.1.4,Win32,143.8228103,6299f149e92ead563fba08ef,62a44682dff573a481316826,,,,,,,,,,,,,,,,,,,,,,,,,,,,,,,,,,,,,,,,,,,,,,,,,,,,,,,,,,,,,,,,,,,,,,,,,,,,,,,,,,,,,,,,,,,,,,,,,,,,,
,,,,,,3,0,3,0,1,X V Q F H G B L J M P D K C T S W R N Z,60d961f96595b918329ef4aa,28,Mężczyzna,2022-06-11_09h40.16.902,task,2021.1.4,Win32,143.8228103,6299f149e92ead563fba08ef,62a44682dff573a481316826,,,,,,,,,,,,,,,,,,,,,,,,,,,,,,,,,,,,,,,,,,,,,,,,,,,,,,,,,,,,,,,,,,,,,,,,,,,,,,,,,,,,,,,,,,,,,,,,,,,,,
,,,,,,4,0,4,0,1,X V Q F H G B L J M P D K C T S W R N Z,60d961f96595b918329ef4aa,28,Mężczyzna,2022-06-11_09h40.16.902,task,2021.1.4,Win32,143.8228103,6299f149e92ead563fba08ef,62a44682dff573a481316826,,,,,,,,,,,,,,,,,,,,,,,,,,,,,,,,,,,,,,,,,,,,,,,,,,,,,,,,,,,,,,,,,,,,,,,,,,,,,,,,,,,,,,,,,,,,,,,,,,,,,
,,,,,,5,0,5,0,1,X V Q F H G B L J M P D K C T S W R N Z,60d961f96595b918329ef4aa,28,Mężczyzna,2022-06-11_09h40.16.902,task,2021.1.4,Win32,143.8228103,6299f149e92ead563fba08ef,62a44682dff573a481316826,,,,,,,,,,,,,,,,,,,,,,,,,,,,,,,,,,,,,,,,,,,,,,,,,,,,,,,,,,,,,,,,,,,,,,,,,,,,,,,,,,,,,,,,,,,,,,,,,,,,,
,,,,,,6,0,6,0,1,X V Q F H G B L J M P D K C T S W R N Z,60d961f96595b918329ef4aa,28,Mężczyzna,2022-06-11_09h40.16.902,task,2021.1.4,Win32,143.8228103,6299f149e92ead563fba08ef,62a44682dff573a481316826,,,,,,,,,,,,,,,,,,,,,,,,,,,,,,,,,,,,,,,,,,,,,,,,,,,,,,,,,,,,,,,,,,,,,,,,,,,,,,,,,,,,,,,,,,,,,,,,,,,,,
,,,,,,7,0,7,0,1,X V Q F H G B L J M P D K C T S W R N Z,60d961f96595b918329ef4aa,28,Mężczyzna,2022-06-11_09h40.16.902,task,2021.1.4,Win32,143.8228103,6299f149e92ead563fba08ef,62a44682dff573a481316826,,,,,,,,,,,,,,,,,,,,,,,,,,,,,,,,,,,,,,,,,,,,,,,,,,,,,,,,,,,,,,,,,,,,,,,,,,,,,,,,,,,,,,,,,,,,,,,,,,,,,
,,,,,,8,0,8,0,1,X V Q F H G B L J M P D K C T S W R N Z,60d961f96595b918329ef4aa,28,Mężczyzna,2022-06-11_09h40.16.902,task,2021.1.4,Win32,143.8228103,6299f149e92ead563fba08ef,62a44682dff573a481316826,,,,,,,,,,,,,,,,,,,,,,,,,,,,,,,,,,,,,,,,,,,,,,,,,,,,,,,,,,,,,,,,,,,,,,,,,,,,,,,,,,,,,,,,,,,,,,,,,,,,,
,,,,,,9,0,9,0,1,X V Q F H G B L J M P D K C T S W R N Z,60d961f96595b918329ef4aa,28,Mężczyzna,2022-06-11_09h40.16.902,task,2021.1.4,Win32,143.8228103,6299f149e92ead563fba08ef,62a44682dff573a481316826,,,,,,,,,,,,,,,,,,,,,,,,,,,,,,,,,,,,,,,,,,,,,,,,,,,,,,,,,,,,,,,,,,,,,,,,,,,,,,,,,,,,,,,,,,,,,,,,,,,,,
,,,,,,10,0,10,0,1,X V Q F H G B L J M P D K C T S W R N Z,60d961f96595b918329ef4aa,28,Mężczyzna,2022-06-11_09h40.16.902,task,2021.1.4,Win32,143.8228103,6299f149e92ead563fba08ef,62a44682dff573a481316826,,,,,,,,,,,,,,,,,,,,,,,,,,,,,,,,,,,,,,,,,,,,,,,,,,,,,,,,,,,,,,,,,,,,,,,,,,,,,,,,,,,,,,,,,,,,,,,,,,,,,
,,,,,,,,,,,,60d961f96595b918329ef4aa,28,Mężczyzna,2022-06-11_09h40.16.902,task,2021.1.4,Win32,143.8228103,6299f149e92ead563fba08ef,62a44682dff573a481316826,hjvmqxhmkxl,"[""h"",""j"",""v"",""m"",""q"",""x"",""h"",""m"",""k"",""x"",""l""]","[1.7253999999999223,2.269399999999905,2.87769999999972,4.005399999999895,5.389199999999732,5.853399999999908,6.847199999999702,7.3651999999997315,8.269600000000082,8.693500000000029,9.261100000000113,10.749299999999835]",1,HJVMQXHMKXL,19,0,19,0,1,,,,,,,,,,,,,,,,,,,,,,,,,,,,,,,,,,,,,,,,,,,,,,,,,,,,,,,,,,,,,,,,,,,,,,,,,,,,,,,,,,,,,,,,,,,
,,,,,,0,0,0,0,1,X V Q F H G B L J M P D K C T S W R N Z,60d961f96595b918329ef4aa,28,Mężczyzna,2022-06-11_09h40.16.902,task,2021.1.4,Win32,143.8228103,6299f149e92ead563fba08ef,62a44682dff573a481316826,,,,,,,,,,,,,,,,,,,,,,,,,,,,,,,,,,,,,,,,,,,,,,,,,,,,,,,,,,,,,,,,,,,,,,,,,,,,,,,,,,,,,,,,,,,,,,,,,,,,,
,,,,,,1,0,1,0,1,X V Q F H G B L J M P D K C T S W R N Z,60d961f96595b918329ef4aa,28,Mężczyzna,2022-06-11_09h40.16.902,task,2021.1.4,Win32,143.8228103,6299f149e92ead563fba08ef,62a44682dff573a481316826,,,,,,,,,,,,,,,,,,,,,,,,,,,,,,,,,,,,,,,,,,,,,,,,,,,,,,,,,,,,,,,,,,,,,,,,,,,,,,,,,,,,,,,,,,,,,,,,,,,,,
,,,,,,2,0,2,0,1,X V Q F H G B L J M P D K C T S W R N Z,60d961f96595b918329ef4aa,28,Mężczyzna,2022-06-11_09h40.16.902,task,2021.1.4,Win32,143.8228103,6299f149e92ead563fba08ef,62a44682dff573a481316826,,,,,,,,,,,,,,,,,,,,,,,,,,,,,,,,,,,,,,,,,,,,,,,,,,,,,,,,,,,,,,,,,,,,,,,,,,,,,,,,,,,,,,,,,,,,,,,,,,,,,
,,,,,,3,0,3,0,1,X V Q F H G B L J M P D K C T S W R N Z,60d961f96595b918329ef4aa,28,Mężczyzna,2022-06-11_09h40.16.902,task,2021.1.4,Win32,143.8228103,6299f149e92ead563fba08ef,62a44682dff573a481316826,,,,,,,,,,,,,,,,,,,,,,,,,,,,,,,,,,,,,,,,,,,,,,,,,,,,,,,,,,,,,,,,,,,,,,,,,,,,,,,,,,,,,,,,,,,,,,,,,,,,,
,,,,,,4,0,4,0,1,X V Q F H G B L J M P D K C T S W R N Z,60d961f96595b918329ef4aa,28,Mężczyzna,2022-06-11_09h40.16.902,task,2021.1.4,Win32,143.8228103,6299f149e92ead563fba08ef,62a44682dff573a481316826,,,,,,,,,,,,,,,,,,,,,,,,,,,,,,,,,,,,,,,,,,,,,,,,,,,,,,,,,,,,,,,,,,,,,,,,,,,,,,,,,,,,,,,,,,,,,,,,,,,,,
,,,,,,5,0,5,0,1,X V Q F H G B L J M P D K C T S W R N Z,60d961f96595b918329ef4aa,28,Mężczyzna,2022-06-11_09h40.16.902,task,2021.1.4,Win32,143.8228103,6299f149e92ead563fba08ef,62a44682dff573a481316826,,,,,,,,,,,,,,,,,,,,,,,,,,,,,,,,,,,,,,,,,,,,,,,,,,,,,,,,,,,,,,,,,,,,,,,,,,,,,,,,,,,,,,,,,,,,,,,,,,,,,
,,,,,,6,0,6,0,1,X V Q F H G B L J M P D K C T S W R N Z,60d961f96595b918329ef4aa,28,Mężczyzna,2022-06-11_09h40.16.902,task,2021.1.4,Win32,143.8228103,6299f149e92ead563fba08ef,62a44682dff573a481316826,,,,,,,,,,,,,,,,,,,,,,,,,,,,,,,,,,,,,,,,,,,,,,,,,,,,,,,,,,,,,,,,,,,,,,,,,,,,,,,,,,,,,,,,,,,,,,,,,,,,,
,,,,,,7,0,7,0,1,X V Q F H G B L J M P D K C T S W R N Z,60d961f96595b918329ef4aa,28,Mężczyzna,2022-06-11_09h40.16.902,task,2021.1.4,Win32,143.8228103,6299f149e92ead563fba08ef,62a44682dff573a481316826,,,,,,,,,,,,,,,,,,,,,,,,,,,,,,,,,,,,,,,,,,,,,,,,,,,,,,,,,,,,,,,,,,,,,,,,,,,,,,,,,,,,,,,,,,,,,,,,,,,,,
,,,,,,8,0,8,0,1,X V Q F H G B L J M P D K C T S W R N Z,60d961f96595b918329ef4aa,28,Mężczyzna,2022-06-11_09h40.16.902,task,2021.1.4,Win32,143.8228103,6299f149e92ead563fba08ef,62a44682dff573a481316826,,,,,,,,,,,,,,,,,,,,,,,,,,,,,,,,,,,,,,,,,,,,,,,,,,,,,,,,,,,,,,,,,,,,,,,,,,,,,,,,,,,,,,,,,,,,,,,,,,,,,
,,,,,,9,0,9,0,1,X V Q F H G B L J M P D K C T S W R N Z,60d961f96595b918329ef4aa,28,Mężczyzna,2022-06-11_09h40.16.902,task,2021.1.4,Win32,143.8228103,6299f149e92ead563fba08ef,62a44682dff573a481316826,,,,,,,,,,,,,,,,,,,,,,,,,,,,,,,,,,,,,,,,,,,,,,,,,,,,,,,,,,,,,,,,,,,,,,,,,,,,,,,,,,,,,,,,,,,,,,,,,,,,,
,,,,,,10,0,10,0,1,X V Q F H G B L J M P D K C T S W R N Z,60d961f96595b918329ef4aa,28,Mężczyzna,2022-06-11_09h40.16.902,task,2021.1.4,Win32,143.8228103,6299f149e92ead563fba08ef,62a44682dff573a481316826,,,,,,,,,,,,,,,,,,,,,,,,,,,,,,,,,,,,,,,,,,,,,,,,,,,,,,,,,,,,,,,,,,,,,,,,,,,,,,,,,,,,,,,,,,,,,,,,,,,,,
,,,,,,11,0,11,0,1,X V Q F H G B L J M P D K C T S W R N Z,60d961f96595b918329ef4aa,28,Mężczyzna,2022-06-11_09h40.16.902,task,2021.1.4,Win32,143.8228103,6299f149e92ead563fba08ef,62a44682dff573a481316826,,,,,,,,,,,,,,,,,,,,,,,,,,,,,,,,,,,,,,,,,,,,,,,,,,,,,,,,,,,,,,,,,,,,,,,,,,,,,,,,,,,,,,,,,,,,,,,,,,,,,
,,,,,,,,,,,,60d961f96595b918329ef4aa,28,Mężczyzna,2022-06-11_09h40.16.902,task,2021.1.4,Win32,143.8228103,6299f149e92ead563fba08ef,62a44682dff573a481316826,hgmtdhbmrngs,"[""h"",""g"",""m"",""t"",""d"",""h"",""b"",""m"",""r"",""n"",""g"",""s""]","[2.340000000000032,3.628700000000208,4.532100000000071,4.811600000000112,5.23560000000009,6.099700000000212,7.22950000000003,7.955800000000295,8.379800000000273,9.00360000000012,9.387700000000166,9.691600000000108,10.611700000000212]",1,HGMTDHBMRNGS,20,0,20,0,1,,,,,,,,,,,,,,,,,,,,,,,,,,,,,,,,,,,,,,,,,,,,,,,,,,,,,,,,,,,,,,,,,,,,,,,,,,,,,,,,,,,,,,,,,,,
,,,,,,0,0,0,0,1,X V Q F H G B L J M P D K C T S W R N Z,60d961f96595b918329ef4aa,28,Mężczyzna,2022-06-11_09h40.16.902,task,2021.1.4,Win32,143.8228103,6299f149e92ead563fba08ef,62a44682dff573a481316826,,,,,,,,,,,,,,,,,,,,,,,,,,,,,,,,,,,,,,,,,,,,,,,,,,,,,,,,,,,,,,,,,,,,,,,,,,,,,,,,,,,,,,,,,,,,,,,,,,,,,
,,,,,,1,0,1,0,1,X V Q F H G B L J M P D K C T S W R N Z,60d961f96595b918329ef4aa,28,Mężczyzna,2022-06-11_09h40.16.902,task,2021.1.4,Win32,143.8228103,6299f149e92ead563fba08ef,62a44682dff573a481316826,,,,,,,,,,,,,,,,,,,,,,,,,,,,,,,,,,,,,,,,,,,,,,,,,,,,,,,,,,,,,,,,,,,,,,,,,,,,,,,,,,,,,,,,,,,,,,,,,,,,,
,,,,,,2,0,2,0,1,X V Q F H G B L J M P D K C T S W R N Z,60d961f96595b918329ef4aa,28,Mężczyzna,2022-06-11_09h40.16.902,task,2021.1.4,Win32,143.8228103,6299f149e92ead563fba08ef,62a44682dff573a481316826,,,,,,,,,,,,,,,,,,,,,,,,,,,,,,,,,,,,,,,,,,,,,,,,,,,,,,,,,,,,,,,,,,,,,,,,,,,,,,,,,,,,,,,,,,,,,,,,,,,,,
,,,,,,3,0,3,0,1,X V Q F H G B L J M P D K C T S W R N Z,60d961f96595b918329ef4aa,28,Mężczyzna,2022-06-11_09h40.16.902,task,2021.1.4,Win32,143.8228103,6299f149e92ead563fba08ef,62a44682dff573a481316826,,,,,,,,,,,,,,,,,,,,,,,,,,,,,,,,,,,,,,,,,,,,,,,,,,,,,,,,,,,,,,,,,,,,,,,,,,,,,,,,,,,,,,,,,,,,,,,,,,,,,
,,,,,,4,0,4,0,1,X V Q F H G B L J M P D K C T S W R N Z,60d961f96595b918329ef4aa,28,Mężczyzna,2022-06-11_09h40.16.902,task,2021.1.4,Win32,143.8228103,6299f149e92ead563fba08ef,62a44682dff573a481316826,,,,,,,,,,,,,,,,,,,,,,,,,,,,,,,,,,,,,,,,,,,,,,,,,,,,,,,,,,,,,,,,,,,,,,,,,,,,,,,,,,,,,,,,,,,,,,,,,,,,,
,,,,,,5,0,5,0,1,X V Q F H G B L J M P D K C T S W R N Z,60d961f96595b918329ef4aa,28,Mężczyzna,2022-06-11_09h40.16.902,task,2021.1.4,Win32,143.8228103,6299f149e92ead563fba08ef,62a44682dff573a481316826,,,,,,,,,,,,,,,,,,,,,,,,,,,,,,,,,,,,,,,,,,,,,,,,,,,,,,,,,,,,,,,,,,,,,,,,,,,,,,,,,,,,,,,,,,,,,,,,,,,,,
,,,,,,6,0,6,0,1,X V Q F H G B L J M P D K C T S W R N Z,60d961f96595b918329ef4aa,28,Mężczyzna,2022-06-11_09h40.16.902,task,2021.1.4,Win32,143.8228103,6299f149e92ead563fba08ef,62a44682dff573a481316826,,,,,,,,,,,,,,,,,,,,,,,,,,,,,,,,,,,,,,,,,,,,,,,,,,,,,,,,,,,,,,,,,,,,,,,,,,,,,,,,,,,,,,,,,,,,,,,,,,,,,
,,,,,,7,0,7,0,1,X V Q F H G B L J M P D K C T S W R N Z,60d961f96595b918329ef4aa,28,Mężczyzna,2022-06-11_09h40.16.902,task,2021.1.4,Win32,143.8228103,6299f149e92ead563fba08ef,62a44682dff573a481316826,,,,,,,,,,,,,,,,,,,,,,,,,,,,,,,,,,,,,,,,,,,,,,,,,,,,,,,,,,,,,,,,,,,,,,,,,,,,,,,,,,,,,,,,,,,,,,,,,,,,,
,,,,,,8,0,8,0,1,X V Q F H G B L J M P D K C T S W R N Z,60d961f96595b918329ef4aa,28,Mężczyzna,2022-06-11_09h40.16.902,task,2021.1.4,Win32,143.8228103,6299f149e92ead563fba08ef,62a44682dff573a481316826,,,,,,,,,,,,,,,,,,,,,,,,,,,,,,,,,,,,,,,,,,,,,,,,,,,,,,,,,,,,,,,,,,,,,,,,,,,,,,,,,,,,,,,,,,,,,,,,,,,,,
,,,,,,9,0,9,0,1,X V Q F H G B L J M P D K C T S W R N Z,60d961f96595b918329ef4aa,28,Mężczyzna,2022-06-11_09h40.16.902,task,2021.1.4,Win32,143.8228103,6299f149e92ead563fba08ef,62a44682dff573a481316826,,,,,,,,,,,,,,,,,,,,,,,,,,,,,,,,,,,,,,,,,,,,,,,,,,,,,,,,,,,,,,,,,,,,,,,,,,,,,,,,,,,,,,,,,,,,,,,,,,,,,
,,,,,,10,0,10,0,1,X V Q F H G B L J M P D K C T S W R N Z,60d961f96595b918329ef4aa,28,Mężczyzna,2022-06-11_09h40.16.902,task,2021.1.4,Win32,143.8228103,6299f149e92ead563fba08ef,62a44682dff573a481316826,,,,,,,,,,,,,,,,,,,,,,,,,,,,,,,,,,,,,,,,,,,,,,,,,,,,,,,,,,,,,,,,,,,,,,,,,,,,,,,,,,,,,,,,,,,,,,,,,,,,,
,,,,,,11,0,11,0,1,X V Q F H G B L J M P D K C T S W R N Z,60d961f96595b918329ef4aa,28,Mężczyzna,2022-06-11_09h40.16.902,task,2021.1.4,Win32,143.8228103,6299f149e92ead563fba08ef,62a44682dff573a481316826,,,,,,,,,,,,,,,,,,,,,,,,,,,,,,,,,,,,,,,,,,,,,,,,,,,,,,,,,,,,,,,,,,,,,,,,,,,,,,,,,,,,,,,,,,,,,,,,,,,,,
,,,,,,,,,,,,60d961f96595b918329ef4aa,28,Mężczyzna,2022-06-11_09h40.16.902,task,2021.1.4,Win32,143.8228103,6299f149e92ead563fba08ef,62a44682dff573a481316826,hqrzjcrmxmfl,"[""h"",""q"",""r"",""z"",""j"",""c"",""r"",""m"",""x"",""m"",""f"",""l""]","[2.142700000000218,2.6225000000000023,3.1505000000000223,3.5106000000001245,3.9763999999998987,4.335600000000113,4.7027000000001635,5.088800000000276,6.974499999999978,7.462700000000211,7.7827000000002045,8.102800000000286,9.072300000000268]",1,HQRZJCRMXMFL,21,0,21,0,1,,,,,,,,,,,,,,,,,,,,,,,,,,,,,,,,,,,,,,,,,,,,,,,,,,,,,,,,,,,,,,,,,,,,,,,,,,,,,,,,,,,,,,,,,,,
,,,,,,0,0,0,0,1,X V Q F H G B L J M P D K C T S W R N Z,60d961f96595b918329ef4aa,28,Mężczyzna,2022-06-11_09h40.16.902,task,2021.1.4,Win32,143.8228103,6299f149e92ead563fba08ef,62a44682dff573a481316826,,,,,,,,,,,,,,,,,,,,,,,,,,,,,,,,,,,,,,,,,,,,,,,,,,,,,,,,,,,,,,,,,,,,,,,,,,,,,,,,,,,,,,,,,,,,,,,,,,,,,
,,,,,,1,0,1,0,1,X V Q F H G B L J M P D K C T S W R N Z,60d961f96595b918329ef4aa,28,Mężczyzna,2022-06-11_09h40.16.902,task,2021.1.4,Win32,143.8228103,6299f149e92ead563fba08ef,62a44682dff573a481316826,,,,,,,,,,,,,,,,,,,,,,,,,,,,,,,,,,,,,,,,,,,,,,,,,,,,,,,,,,,,,,,,,,,,,,,,,,,,,,,,,,,,,,,,,,,,,,,,,,,,,
,,,,,,2,0,2,0,1,X V Q F H G B L J M P D K C T S W R N Z,60d961f96595b918329ef4aa,28,Mężczyzna,2022-06-11_09h40.16.902,task,2021.1.4,Win32,143.8228103,6299f149e92ead563fba08ef,62a44682dff573a481316826,,,,,,,,,,,,,,,,,,,,,,,,,,,,,,,,,,,,,,,,,,,,,,,,,,,,,,,,,,,,,,,,,,,,,,,,,,,,,,,,,,,,,,,,,,,,,,,,,,,,,
,,,,,,3,0,3,0,1,X V Q F H G B L J M P D K C T S W R N Z,60d961f96595b918329ef4aa,28,Mężczyzna,2022-06-11_09h40.16.902,task,2021.1.4,Win32,143.8228103,6299f149e92ead563fba08ef,62a44682dff573a481316826,,,,,,,,,,,,,,,,,,,,,,,,,,,,,,,,,,,,,,,,,,,,,,,,,,,,,,,,,,,,,,,,,,,,,,,,,,,,,,,,,,,,,,,,,,,,,,,,,,,,,
,,,,,,4,0,4,0,1,X V Q F H G B L J M P D K C T S W R N Z,60d961f96595b918329ef4aa,28,Mężczyzna,2022-06-11_09h40.16.902,task,2021.1.4,Win32,143.8228103,6299f149e92ead563fba08ef,62a44682dff573a481316826,,,,,,,,,,,,,,,,,,,,,,,,,,,,,,,,,,,,,,,,,,,,,,,,,,,,,,,,,,,,,,,,,,,,,,,,,,,,,,,,,,,,,,,,,,,,,,,,,,,,,
,,,,,,5,0,5,0,1,X V Q F H G B L J M P D K C T S W R N Z,60d961f96595b918329ef4aa,28,Mężczyzna,2022-06-11_09h40.16.902,task,2021.1.4,Win32,143.8228103,6299f149e92ead563fba08ef,62a44682dff573a481316826,,,,,,,,,,,,,,,,,,,,,,,,,,,,,,,,,,,,,,,,,,,,,,,,,,,,,,,,,,,,,,,,,,,,,,,,,,,,,,,,,,,,,,,,,,,,,,,,,,,,,
,,,,,,6,0,6,0,1,X V Q F H G B L J M P D K C T S W R N Z,60d961f96595b918329ef4aa,28,Mężczyzna,2022-06-11_09h40.16.902,task,2021.1.4,Win32,143.8228103,6299f149e92ead563fba08ef,62a44682dff573a481316826,,,,,,,,,,,,,,,,,,,,,,,,,,,,,,,,,,,,,,,,,,,,,,,,,,,,,,,,,,,,,,,,,,,,,,,,,,,,,,,,,,,,,,,,,,,,,,,,,,,,,
,,,,,,7,0,7,0,1,X V Q F H G B L J M P D K C T S W R N Z,60d961f96595b918329ef4aa,28,Mężczyzna,2022-06-11_09h40.16.902,task,2021.1.4,Win32,143.8228103,6299f149e92ead563fba08ef,62a44682dff573a481316826,,,,,,,,,,,,,,,,,,,,,,,,,,,,,,,,,,,,,,,,,,,,,,,,,,,,,,,,,,,,,,,,,,,,,,,,,,,,,,,,,,,,,,,,,,,,,,,,,,,,,
,,,,,,8,0,8,0,1,X V Q F H G B L J M P D K C T S W R N Z,60d961f96595b918329ef4aa,28,Mężczyzna,2022-06-11_09h40.16.902,task,2021.1.4,Win32,143.8228103,6299f149e92ead563fba08ef,62a44682dff573a481316826,,,,,,,,,,,,,,,,,,,,,,,,,,,,,,,,,,,,,,,,,,,,,,,,,,,,,,,,,,,,,,,,,,,,,,,,,,,,,,,,,,,,,,,,,,,,,,,,,,,,,
,,,,,,9,0,9,0,1,X V Q F H G B L J M P D K C T S W R N Z,60d961f96595b918329ef4aa,28,Mężczyzna,2022-06-11_09h40.16.902,task,2021.1.4,Win32,143.8228103,6299f149e92ead563fba08ef,62a44682dff573a481316826,,,,,,,,,,,,,,,,,,,,,,,,,,,,,,,,,,,,,,,,,,,,,,,,,,,,,,,,,,,,,,,,,,,,,,,,,,,,,,,,,,,,,,,,,,,,,,,,,,,,,
,,,,,,10,0,10,0,1,X V Q F H G B L J M P D K C T S W R N Z,60d961f96595b918329ef4aa,28,Mężczyzna,2022-06-11_09h40.16.902,task,2021.1.4,Win32,143.8228103,6299f149e92ead563fba08ef,62a44682dff573a481316826,,,,,,,,,,,,,,,,,,,,,,,,,,,,,,,,,,,,,,,,,,,,,,,,,,,,,,,,,,,,,,,,,,,,,,,,,,,,,,,,,,,,,,,,,,,,,,,,,,,,,
,,,,,,11,0,11,0,1,X V Q F H G B L J M P D K C T S W R N Z,60d961f96595b918329ef4aa,28,Mężczyzna,2022-06-11_09h40.16.902,task,2021.1.4,Win32,143.8228103,6299f149e92ead563fba08ef,62a44682dff573a481316826,,,,,,,,,,,,,,,,,,,,,,,,,,,,,,,,,,,,,,,,,,,,,,,,,,,,,,,,,,,,,,,,,,,,,,,,,,,,,,,,,,,,,,,,,,,,,,,,,,,,,
,,,,,,12,0,12,0,1,X V Q F H G B L J M P D K C T S W R N Z,60d961f96595b918329ef4aa,28,Mężczyzna,2022-06-11_09h40.16.902,task,2021.1.4,Win32,143.8228103,6299f149e92ead563fba08ef,62a44682dff573a481316826,,,,,,,,,,,,,,,,,,,,,,,,,,,,,,,,,,,,,,,,,,,,,,,,,,,,,,,,,,,,,,,,,,,,,,,,,,,,,,,,,,,,,,,,,,,,,,,,,,,,,
,,,,,,,,,,,,60d961f96595b918329ef4aa,28,Mężczyzna,2022-06-11_09h40.16.902,task,2021.1.4,Win32,143.8228103,6299f149e92ead563fba08ef,62a44682dff573a481316826,jjnjfzjddgqvj,"[""j"",""j"",""n"",""j"",""f"",""z"",""j"",""d"",""d"",""g"",""q"",""v"",""j""]","[1.2953999999999155,1.5749999999999886,1.8391000000000872,2.303100000000086,2.6391000000000986,2.9672000000002186,3.951000000000022,4.391300000000285,4.855100000000107,5.983200000000181,6.447000000000003,7.6558000000002835,7.920700000000181,8.687300000000278]",1,JJNJFZJDDGQVJ,22,0,22,0,1,,,,,,,,,,,,,,,,,,,,,,,,,,,,,,,,,,,,,,,,,,,,,,,,,,,,,,,,,,,,,,,,,,,,,,,,,,,,,,,,,,,,,,,,,,,
,,,,,,0,0,0,0,1,X V Q F H G B L J M P D K C T S W R N Z,60d961f96595b918329ef4aa,28,Mężczyzna,2022-06-11_09h40.16.902,task,2021.1.4,Win32,143.8228103,6299f149e92ead563fba08ef,62a44682dff573a481316826,,,,,,,,,,,,,,,,,,,,,,,,,,,,,,,,,,,,,,,,,,,,,,,,,,,,,,,,,,,,,,,,,,,,,,,,,,,,,,,,,,,,,,,,,,,,,,,,,,,,,
,,,,,,1,0,1,0,1,X V Q F H G B L J M P D K C T S W R N Z,60d961f96595b918329ef4aa,28,Mężczyzna,2022-06-11_09h40.16.902,task,2021.1.4,Win32,143.8228103,6299f149e92ead563fba08ef,62a44682dff573a481316826,,,,,,,,,,,,,,,,,,,,,,,,,,,,,,,,,,,,,,,,,,,,,,,,,,,,,,,,,,,,,,,,,,,,,,,,,,,,,,,,,,,,,,,,,,,,,,,,,,,,,
,,,,,,2,0,2,0,1,X V Q F H G B L J M P D K C T S W R N Z,60d961f96595b918329ef4aa,28,Mężczyzna,2022-06-11_09h40.16.902,task,2021.1.4,Win32,143.8228103,6299f149e92ead563fba08ef,62a44682dff573a481316826,,,,,,,,,,,,,,,,,,,,,,,,,,,,,,,,,,,,,,,,,,,,,,,,,,,,,,,,,,,,,,,,,,,,,,,,,,,,,,,,,,,,,,,,,,,,,,,,,,,,,
,,,,,,3,0,3,0,1,X V Q F H G B L J M P D K C T S W R N Z,60d961f96595b918329ef4aa,28,Mężczyzna,2022-06-11_09h40.16.902,task,2021.1.4,Win32,143.8228103,6299f149e92ead563fba08ef,62a44682dff573a481316826,,,,,,,,,,,,,,,,,,,,,,,,,,,,,,,,,,,,,,,,,,,,,,,,,,,,,,,,,,,,,,,,,,,,,,,,,,,,,,,,,,,,,,,,,,,,,,,,,,,,,
,,,,,,4,0,4,0,1,X V Q F H G B L J M P D K C T S W R N Z,60d961f96595b918329ef4aa,28,Mężczyzna,2022-06-11_09h40.16.902,task,2021.1.4,Win32,143.8228103,6299f149e92ead563fba08ef,62a44682dff573a481316826,,,,,,,,,,,,,,,,,,,,,,,,,,,,,,,,,,,,,,,,,,,,,,,,,,,,,,,,,,,,,,,,,,,,,,,,,,,,,,,,,,,,,,,,,,,,,,,,,,,,,
,,,,,,5,0,5,0,1,X V Q F H G B L J M P D K C T S W R N Z,60d961f96595b918329ef4aa,28,Mężczyzna,2022-06-11_09h40.16.902,task,2021.1.4,Win32,143.8228103,6299f149e92ead563fba08ef,62a44682dff573a481316826,,,,,,,,,,,,,,,,,,,,,,,,,,,,,,,,,,,,,,,,,,,,,,,,,,,,,,,,,,,,,,,,,,,,,,,,,,,,,,,,,,,,,,,,,,,,,,,,,,,,,
,,,,,,6,0,6,0,1,X V Q F H G B L J M P D K C T S W R N Z,60d961f96595b918329ef4aa,28,Mężczyzna,2022-06-11_09h40.16.902,task,2021.1.4,Win32,143.8228103,6299f149e92ead563fba08ef,62a44682dff573a481316826,,,,,,,,,,,,,,,,,,,,,,,,,,,,,,,,,,,,,,,,,,,,,,,,,,,,,,,,,,,,,,,,,,,,,,,,,,,,,,,,,,,,,,,,,,,,,,,,,,,,,
,,,,,,7,0,7,0,1,X V Q F H G B L J M P D K C T S W R N Z,60d961f96595b918329ef4aa,28,Mężczyzna,2022-06-11_09h40.16.902,task,2021.1.4,Win32,143.8228103,6299f149e92ead563fba08ef,62a44682dff573a481316826,,,,,,,,,,,,,,,,,,,,,,,,,,,,,,,,,,,,,,,,,,,,,,,,,,,,,,,,,,,,,,,,,,,,,,,,,,,,,,,,,,,,,,,,,,,,,,,,,,,,,
,,,,,,8,0,8,0,1,X V Q F H G B L J M P D K C T S W R N Z,60d961f96595b918329ef4aa,28,Mężczyzna,2022-06-11_09h40.16.902,task,2021.1.4,Win32,143.8228103,6299f149e92ead563fba08ef,62a44682dff573a481316826,,,,,,,,,,,,,,,,,,,,,,,,,,,,,,,,,,,,,,,,,,,,,,,,,,,,,,,,,,,,,,,,,,,,,,,,,,,,,,,,,,,,,,,,,,,,,,,,,,,,,
,,,,,,9,0,9,0,1,X V Q F H G B L J M P D K C T S W R N Z,60d961f96595b918329ef4aa,28,Mężczyzna,2022-06-11_09h40.16.902,task,2021.1.4,Win32,143.8228103,6299f149e92ead563fba08ef,62a44682dff573a481316826,,,,,,,,,,,,,,,,,,,,,,,,,,,,,,,,,,,,,,,,,,,,,,,,,,,,,,,,,,,,,,,,,,,,,,,,,,,,,,,,,,,,,,,,,,,,,,,,,,,,,
,,,,,,10,0,10,0,1,X V Q F H G B L J M P D K C T S W R N Z,60d961f96595b918329ef4aa,28,Mężczyzna,2022-06-11_09h40.16.902,task,2021.1.4,Win32,143.8228103,6299f149e92ead563fba08ef,62a44682dff573a481316826,,,,,,,,,,,,,,,,,,,,,,,,,,,,,,,,,,,,,,,,,,,,,,,,,,,,,,,,,,,,,,,,,,,,,,,,,,,,,,,,,,,,,,,,,,,,,,,,,,,,,
,,,,,,11,0,11,0,1,X V Q F H G B L J M P D K C T S W R N Z,60d961f96595b918329ef4aa,28,Mężczyzna,2022-06-11_09h40.16.902,task,2021.1.4,Win32,143.8228103,6299f149e92ead563fba08ef,62a44682dff573a481316826,,,,,,,,,,,,,,,,,,,,,,,,,,,,,,,,,,,,,,,,,,,,,,,,,,,,,,,,,,,,,,,,,,,,,,,,,,,,,,,,,,,,,,,,,,,,,,,,,,,,,
,,,,,,12,0,12,0,1,X V Q F H G B L J M P D K C T S W R N Z,60d961f96595b918329ef4aa,28,Mężczyzna,2022-06-11_09h40.16.902,task,2021.1.4,Win32,143.8228103,6299f149e92ead563fba08ef,62a44682dff573a481316826,,,,,,,,,,,,,,,,,,,,,,,,,,,,,,,,,,,,,,,,,,,,,,,,,,,,,,,,,,,,,,,,,,,,,,,,,,,,,,,,,,,,,,,,,,,,,,,,,,,,,
,,,,,,,,,,,,60d961f96595b918329ef4aa,28,Mężczyzna,2022-06-11_09h40.16.902,task,2021.1.4,Win32,143.8228103,6299f149e92ead563fba08ef,62a44682dff573a481316826,ngjtqhjjsqrzw,"[""n"",""g"",""j"",""t"",""q"",""h"",""j"",""j"",""s"",""q"",""r"",""z"",""w""]","[1.4002999999998451,1.841600000000085,2.3042999999998415,2.6482000000002017,3.0321000000001277,3.936100000000124,4.281799999999805,4.520100000000127,4.840000000000032,5.544299999999851,5.888100000000122,6.208200000000204,6.472100000000125,7.280100000000118]",1,NGJTQHJJSQRZW,23,0,23,0,1,,,,,,,,,,,,,,,,,,,,,,,,,,,,,,,,,,,,,,,,,,,,,,,,,,,,,,,,,,,,,,,,,,,,,,,,,,,,,,,,,,,,,,,,,,,
,,,,,,0,0,0,0,1,X V Q F H G B L J M P D K C T S W R N Z,60d961f96595b918329ef4aa,28,Mężczyzna,2022-06-11_09h40.16.902,task,2021.1.4,Win32,143.8228103,6299f149e92ead563fba08ef,62a44682dff573a481316826,,,,,,,,,,,,,,,,,,,,,,,,,,,,,,,,,,,,,,,,,,,,,,,,,,,,,,,,,,,,,,,,,,,,,,,,,,,,,,,,,,,,,,,,,,,,,,,,,,,,,
,,,,,,1,0,1,0,1,X V Q F H G B L J M P D K C T S W R N Z,60d961f96595b918329ef4aa,28,Mężczyzna,2022-06-11_09h40.16.902,task,2021.1.4,Win32,143.8228103,6299f149e92ead563fba08ef,62a44682dff573a481316826,,,,,,,,,,,,,,,,,,,,,,,,,,,,,,,,,,,,,,,,,,,,,,,,,,,,,,,,,,,,,,,,,,,,,,,,,,,,,,,,,,,,,,,,,,,,,,,,,,,,,
,,,,,,2,0,2,0,1,X V Q F H G B L J M P D K C T S W R N Z,60d961f96595b918329ef4aa,28,Mężczyzna,2022-06-11_09h40.16.902,task,2021.1.4,Win32,143.8228103,6299f149e92ead563fba08ef,62a44682dff573a481316826,,,,,,,,,,,,,,,,,,,,,,,,,,,,,,,,,,,,,,,,,,,,,,,,,,,,,,,,,,,,,,,,,,,,,,,,,,,,,,,,,,,,,,,,,,,,,,,,,,,,,
,,,,,,3,0,3,0,1,X V Q F H G B L J M P D K C T S W R N Z,60d961f96595b918329ef4aa,28,Mężczyzna,2022-06-11_09h40.16.902,task,2021.1.4,Win32,143.8228103,6299f149e92ead563fba08ef,62a44682dff573a481316826,,,,,,,,,,,,,,,,,,,,,,,,,,,,,,,,,,,,,,,,,,,,,,,,,,,,,,,,,,,,,,,,,,,,,,,,,,,,,,,,,,,,,,,,,,,,,,,,,,,,,
,,,,,,4,0,4,0,1,X V Q F H G B L J M P D K C T S W R N Z,60d961f96595b918329ef4aa,28,Mężczyzna,2022-06-11_09h40.16.902,task,2021.1.4,Win32,143.8228103,6299f149e92ead563fba08ef,62a44682dff573a481316826,,,,,,,,,,,,,,,,,,,,,,,,,,,,,,,,,,,,,,,,,,,,,,,,,,,,,,,,,,,,,,,,,,,,,,,,,,,,,,,,,,,,,,,,,,,,,,,,,,,,,
,,,,,,5,0,5,0,1,X V Q F H G B L J M P D K C T S W R N Z,60d961f96595b918329ef4aa,28,Mężczyzna,2022-06-11_09h40.16.902,task,2021.1.4,Win32,143.8228103,6299f149e92ead563fba08ef,62a44682dff573a481316826,,,,,,,,,,,,,,,,,,,,,,,,,,,,,,,,,,,,,,,,,,,,,,,,,,,,,,,,,,,,,,,,,,,,,,,,,,,,,,,,,,,,,,,,,,,,,,,,,,,,,
,,,,,,6,0,6,0,1,X V Q F H G B L J M P D K C T S W R N Z,60d961f96595b918329ef4aa,28,Mężczyzna,2022-06-11_09h40.16.902,task,2021.1.4,Win32,143.8228103,6299f149e92ead563fba08ef,62a44682dff573a481316826,,,,,,,,,,,,,,,,,,,,,,,,,,,,,,,,,,,,,,,,,,,,,,,,,,,,,,,,,,,,,,,,,,,,,,,,,,,,,,,,,,,,,,,,,,,,,,,,,,,,,
,,,,,,7,0,7,0,1,X V Q F H G B L J M P D K C T S W R N Z,60d961f96595b918329ef4aa,28,Mężczyzna,2022-06-11_09h40.16.902,task,2021.1.4,Win32,143.8228103,6299f149e92ead563fba08ef,62a44682dff573a481316826,,,,,,,,,,,,,,,,,,,,,,,,,,,,,,,,,,,,,,,,,,,,,,,,,,,,,,,,,,,,,,,,,,,,,,,,,,,,,,,,,,,,,,,,,,,,,,,,,,,,,
,,,,,,8,0,8,0,1,X V Q F H G B L J M P D K C T S W R N Z,60d961f96595b918329ef4aa,28,Mężczyzna,2022-06-11_09h40.16.902,task,2021.1.4,Win32,143.8228103,6299f149e92ead563fba08ef,62a44682dff573a481316826,,,,,,,,,,,,,,,,,,,,,,,,,,,,,,,,,,,,,,,,,,,,,,,,,,,,,,,,,,,,,,,,,,,,,,,,,,,,,,,,,,,,,,,,,,,,,,,,,,,,,
,,,,,,9,0,9,0,1,X V Q F H G B L J M P D K C T S W R N Z,60d961f96595b918329ef4aa,28,Mężczyzna,2022-06-11_09h40.16.902,task,2021.1.4,Win32,143.8228103,6299f149e92ead563fba08ef,62a44682dff573a481316826,,,,,,,,,,,,,,,,,,,,,,,,,,,,,,,,,,,,,,,,,,,,,,,,,,,,,,,,,,,,,,,,,,,,,,,,,,,,,,,,,,,,,,,,,,,,,,,,,,,,,
,,,,,,10,0,10,0,1,X V Q F H G B L J M P D K C T S W R N Z,60d961f96595b918329ef4aa,28,Mężczyzna,2022-06-11_09h40.16.902,task,2021.1.4,Win32,143.8228103,6299f149e92ead563fba08ef,62a44682dff573a481316826,,,,,,,,,,,,,,,,,,,,,,,,,,,,,,,,,,,,,,,,,,,,,,,,,,,,,,,,,,,,,,,,,,,,,,,,,,,,,,,,,,,,,,,,,,,,,,,,,,,,,
,,,,,,11,0,11,0,1,X V Q F H G B L J M P D K C T S W R N Z,60d961f96595b918329ef4aa,28,Mężczyzna,2022-06-11_09h40.16.902,task,2021.1.4,Win32,143.8228103,6299f149e92ead563fba08ef,62a44682dff573a481316826,,,,,,,,,,,,,,,,,,,,,,,,,,,,,,,,,,,,,,,,,,,,,,,,,,,,,,,,,,,,,,,,,,,,,,,,,,,,,,,,,,,,,,,,,,,,,,,,,,,,,
,,,,,,12,0,12,0,1,X V Q F H G B L J M P D K C T S W R N Z,60d961f96595b918329ef4aa,28,Mężczyzna,2022-06-11_09h40.16.902,task,2021.1.4,Win32,143.8228103,6299f149e92ead563fba08ef,62a44682dff573a481316826,,,,,,,,,,,,,,,,,,,,,,,,,,,,,,,,,,,,,,,,,,,,,,,,,,,,,,,,,,,,,,,,,,,,,,,,,,,,,,,,,,,,,,,,,,,,,,,,,,,,,
,,,,,,13,0,13,0,1,X V Q F H G B L J M P D K C T S W R N Z,60d961f96595b918329ef4aa,28,Mężczyzna,2022-06-11_09h40.16.902,task,2021.1.4,Win32,143.8228103,6299f149e92ead563fba08ef,62a44682dff573a481316826,,,,,,,,,,,,,,,,,,,,,,,,,,,,,,,,,,,,,,,,,,,,,,,,,,,,,,,,,,,,,,,,,,,,,,,,,,,,,,,,,,,,,,,,,,,,,,,,,,,,,
,,,,,,,,,,,,60d961f96595b918329ef4aa,28,Mężczyzna,2022-06-11_09h40.16.902,task,2021.1.4,Win32,143.8228103,6299f149e92ead563fba08ef,62a44682dff573a481316826,xpdpknsrbjdhmt,"[""x"",""p"",""d"",""p"",""k"",""n"",""s"",""r"",""b"",""j"",""d"",""h"",""m"",""t""]","[1.9735000000000014,3.3638999999998873,4.0674999999999955,4.435700000000168,4.796600000000069,5.355899999999906,6.228399999999908,6.548000000000002,7.371700000000146,7.73170000000016,7.995499999999993,8.579600000000084,8.899499999999989,9.12379999999979,10.107600000000105]",1,XPDPKNSRBJDHMT,24,0,24,0,1,,,,,,,,,,,,,,,,,,,,,,,,,,,,,,,,,,,,,,,,,,,,,,,,,,,,,,,,,,,,,,,,,,,,,,,,,,,,,,,,,,,,,,,,,,,
,,,,,,0,0,0,0,1,X V Q F H G B L J M P D K C T S W R N Z,60d961f96595b918329ef4aa,28,Mężczyzna,2022-06-11_09h40.16.902,task,2021.1.4,Win32,143.8228103,6299f149e92ead563fba08ef,62a44682dff573a481316826,,,,,,,,,,,,,,,,,,,,,,,,,,,,,,,,,,,,,,,,,,,,,,,,,,,,,,,,,,,,,,,,,,,,,,,,,,,,,,,,,,,,,,,,,,,,,,,,,,,,,
,,,,,,1,0,1,0,1,X V Q F H G B L J M P D K C T S W R N Z,60d961f96595b918329ef4aa,28,Mężczyzna,2022-06-11_09h40.16.902,task,2021.1.4,Win32,143.8228103,6299f149e92ead563fba08ef,62a44682dff573a481316826,,,,,,,,,,,,,,,,,,,,,,,,,,,,,,,,,,,,,,,,,,,,,,,,,,,,,,,,,,,,,,,,,,,,,,,,,,,,,,,,,,,,,,,,,,,,,,,,,,,,,
,,,,,,2,0,2,0,1,X V Q F H G B L J M P D K C T S W R N Z,60d961f96595b918329ef4aa,28,Mężczyzna,2022-06-11_09h40.16.902,task,2021.1.4,Win32,143.8228103,6299f149e92ead563fba08ef,62a44682dff573a481316826,,,,,,,,,,,,,,,,,,,,,,,,,,,,,,,,,,,,,,,,,,,,,,,,,,,,,,,,,,,,,,,,,,,,,,,,,,,,,,,,,,,,,,,,,,,,,,,,,,,,,
,,,,,,3,0,3,0,1,X V Q F H G B L J M P D K C T S W R N Z,60d961f96595b918329ef4aa,28,Mężczyzna,2022-06-11_09h40.16.902,task,2021.1.4,Win32,143.8228103,6299f149e92ead563fba08ef,62a44682dff573a481316826,,,,,,,,,,,,,,,,,,,,,,,,,,,,,,,,,,,,,,,,,,,,,,,,,,,,,,,,,,,,,,,,,,,,,,,,,,,,,,,,,,,,,,,,,,,,,,,,,,,,,
,,,,,,4,0,4,0,1,X V Q F H G B L J M P D K C T S W R N Z,60d961f96595b918329ef4aa,28,Mężczyzna,2022-06-11_09h40.16.902,task,2021.1.4,Win32,143.8228103,6299f149e92ead563fba08ef,62a44682dff573a481316826,,,,,,,,,,,,,,,,,,,,,,,,,,,,,,,,,,,,,,,,,,,,,,,,,,,,,,,,,,,,,,,,,,,,,,,,,,,,,,,,,,,,,,,,,,,,,,,,,,,,,
,,,,,,5,0,5,0,1,X V Q F H G B L J M P D K C T S W R N Z,60d961f96595b918329ef4aa,28,Mężczyzna,2022-06-11_09h40.16.902,task,2021.1.4,Win32,143.8228103,6299f149e92ead563fba08ef,62a44682dff573a481316826,,,,,,,,,,,,,,,,,,,,,,,,,,,,,,,,,,,,,,,,,,,,,,,,,,,,,,,,,,,,,,,,,,,,,,,,,,,,,,,,,,,,,,,,,,,,,,,,,,,,,
,,,,,,6,0,6,0,1,X V Q F H G B L J M P D K C T S W R N Z,60d961f96595b918329ef4aa,28,Mężczyzna,2022-06-11_09h40.16.902,task,2021.1.4,Win32,143.8228103,6299f149e92ead563fba08ef,62a44682dff573a481316826,,,,,,,,,,,,,,,,,,,,,,,,,,,,,,,,,,,,,,,,,,,,,,,,,,,,,,,,,,,,,,,,,,,,,,,,,,,,,,,,,,,,,,,,,,,,,,,,,,,,,
,,,,,,7,0,7,0,1,X V Q F H G B L J M P D K C T S W R N Z,60d961f96595b918329ef4aa,28,Mężczyzna,2022-06-11_09h40.16.902,task,2021.1.4,Win32,143.8228103,6299f149e92ead563fba08ef,62a44682dff573a481316826,,,,,,,,,,,,,,,,,,,,,,,,,,,,,,,,,,,,,,,,,,,,,,,,,,,,,,,,,,,,,,,,,,,,,,,,,,,,,,,,,,,,,,,,,,,,,,,,,,,,,
,,,,,,8,0,8,0,1,X V Q F H G B L J M P D K C T S W R N Z,60d961f96595b918329ef4aa,28,Mężczyzna,2022-06-11_09h40.16.902,task,2021.1.4,Win32,143.8228103,6299f149e92ead563fba08ef,62a44682dff573a481316826,,,,,,,,,,,,,,,,,,,,,,,,,,,,,,,,,,,,,,,,,,,,,,,,,,,,,,,,,,,,,,,,,,,,,,,,,,,,,,,,,,,,,,,,,,,,,,,,,,,,,
,,,,,,9,0,9,0,1,X V Q F H G B L J M P D K C T S W R N Z,60d961f96595b918329ef4aa,28,Mężczyzna,2022-06-11_09h40.16.902,task,2021.1.4,Win32,143.8228103,6299f149e92ead563fba08ef,62a44682dff573a481316826,,,,,,,,,,,,,,,,,,,,,,,,,,,,,,,,,,,,,,,,,,,,,,,,,,,,,,,,,,,,,,,,,,,,,,,,,,,,,,,,,,,,,,,,,,,,,,,,,,,,,
,,,,,,10,0,10,0,1,X V Q F H G B L J M P D K C T S W R N Z,60d961f96595b918329ef4aa,28,Mężczyzna,2022-06-11_09h40.16.902,task,2021.1.4,Win32,143.8228103,6299f149e92ead563fba08ef,62a44682dff573a481316826,,,,,,,,,,,,,,,,,,,,,,,,,,,,,,,,,,,,,,,,,,,,,,,,,,,,,,,,,,,,,,,,,,,,,,,,,,,,,,,,,,,,,,,,,,,,,,,,,,,,,
,,,,,,11,0,11,0,1,X V Q F H G B L J M P D K C T S W R N Z,60d961f96595b918329ef4aa,28,Mężczyzna,2022-06-11_09h40.16.902,task,2021.1.4,Win32,143.8228103,6299f149e92ead563fba08ef,62a44682dff573a481316826,,,,,,,,,,,,,,,,,,,,,,,,,,,,,,,,,,,,,,,,,,,,,,,,,,,,,,,,,,,,,,,,,,,,,,,,,,,,,,,,,,,,,,,,,,,,,,,,,,,,,
,,,,,,12,0,12,0,1,X V Q F H G B L J M P D K C T S W R N Z,60d961f96595b918329ef4aa,28,Mężczyzna,2022-06-11_09h40.16.902,task,2021.1.4,Win32,143.8228103,6299f149e92ead563fba08ef,62a44682dff573a481316826,,,,,,,,,,,,,,,,,,,,,,,,,,,,,,,,,,,,,,,,,,,,,,,,,,,,,,,,,,,,,,,,,,,,,,,,,,,,,,,,,,,,,,,,,,,,,,,,,,,,,
,,,,,,13,0,13,0,1,X V Q F H G B L J M P D K C T S W R N Z,60d961f96595b918329ef4aa,28,Mężczyzna,2022-06-11_09h40.16.902,task,2021.1.4,Win32,143.8228103,6299f149e92ead563fba08ef,62a44682dff573a481316826,,,,,,,,,,,,,,,,,,,,,,,,,,,,,,,,,,,,,,,,,,,,,,,,,,,,,,,,,,,,,,,,,,,,,,,,,,,,,,,,,,,,,,,,,,,,,,,,,,,,,
,,,,,,,,,,,,60d961f96595b918329ef4aa,28,Mężczyzna,2022-06-11_09h40.16.902,task,2021.1.4,Win32,143.8228103,6299f149e92ead563fba08ef,62a44682dff573a481316826,zkdnwrfpgdxbvr,"[""z"",""k"",""d"",""n"",""w"",""r"",""f"",""p"",""g"",""d"",""x"",""b"",""v"",""r""]","[1.3936999999997397,1.7136999999997897,2.0736000000001695,2.4816000000000713,2.8430000000000746,3.1625000000000227,5.481699999999762,6.209500000000105,6.425699999999836,7.1296999999997865,7.458600000000217,8.58560000000017,9.065600000000188,10.218699999999842,11.137500000000102]",1,ZKDNWRFPGDXBVR,25,0,25,0,1,,,,,,,,,,,,,,,,,,,,,,,,,,,,,,,,,,,,,,,,,,,,,,,,,,,,,,,,,,,,,,,,,,,,,,,,,,,,,,,,,,,,,,,,,,,
,,,,,,0,0,0,0,1,X V Q F H G B L J M P D K C T S W R N Z,60d961f96595b918329ef4aa,28,Mężczyzna,2022-06-11_09h40.16.902,task,2021.1.4,Win32,143.8228103,6299f149e92ead563fba08ef,62a44682dff573a481316826,,,,,,,,,,,,,,,,,,,,,,,,,,,,,,,,,,,,,,,,,,,,,,,,,,,,,,,,,,,,,,,,,,,,,,,,,,,,,,,,,,,,,,,,,,,,,,,,,,,,,
,,,,,,1,0,1,0,1,X V Q F H G B L J M P D K C T S W R N Z,60d961f96595b918329ef4aa,28,Mężczyzna,2022-06-11_09h40.16.902,task,2021.1.4,Win32,143.8228103,6299f149e92ead563fba08ef,62a44682dff573a481316826,,,,,,,,,,,,,,,,,,,,,,,,,,,,,,,,,,,,,,,,,,,,,,,,,,,,,,,,,,,,,,,,,,,,,,,,,,,,,,,,,,,,,,,,,,,,,,,,,,,,,
,,,,,,2,0,2,0,1,X V Q F H G B L J M P D K C T S W R N Z,60d961f96595b918329ef4aa,28,Mężczyzna,2022-06-11_09h40.16.902,task,2021.1.4,Win32,143.8228103,6299f149e92ead563fba08ef,62a44682dff573a481316826,,,,,,,,,,,,,,,,,,,,,,,,,,,,,,,,,,,,,,,,,,,,,,,,,,,,,,,,,,,,,,,,,,,,,,,,,,,,,,,,,,,,,,,,,,,,,,,,,,,,,
,,,,,,3,0,3,0,1,X V Q F H G B L J M P D K C T S W R N Z,60d961f96595b918329ef4aa,28,Mężczyzna,2022-06-11_09h40.16.902,task,2021.1.4,Win32,143.8228103,6299f149e92ead563fba08ef,62a44682dff573a481316826,,,,,,,,,,,,,,,,,,,,,,,,,,,,,,,,,,,,,,,,,,,,,,,,,,,,,,,,,,,,,,,,,,,,,,,,,,,,,,,,,,,,,,,,,,,,,,,,,,,,,
,,,,,,4,0,4,0,1,X V Q F H G B L J M P D K C T S W R N Z,60d961f96595b918329ef4aa,28,Mężczyzna,2022-06-11_09h40.16.902,task,2021.1.4,Win32,143.8228103,6299f149e92ead563fba08ef,62a44682dff573a481316826,,,,,,,,,,,,,,,,,,,,,,,,,,,,,,,,,,,,,,,,,,,,,,,,,,,,,,,,,,,,,,,,,,,,,,,,,,,,,,,,,,,,,,,,,,,,,,,,,,,,,
,,,,,,5,0,5,0,1,X V Q F H G B L J M P D K C T S W R N Z,60d961f96595b918329ef4aa,28,Mężczyzna,2022-06-11_09h40.16.902,task,2021.1.4,Win32,143.8228103,6299f149e92ead563fba08ef,62a44682dff573a481316826,,,,,,,,,,,,,,,,,,,,,,,,,,,,,,,,,,,,,,,,,,,,,,,,,,,,,,,,,,,,,,,,,,,,,,,,,,,,,,,,,,,,,,,,,,,,,,,,,,,,,
,,,,,,6,0,6,0,1,X V Q F H G B L J M P D K C T S W R N Z,60d961f96595b918329ef4aa,28,Mężczyzna,2022-06-11_09h40.16.902,task,2021.1.4,Win32,143.8228103,6299f149e92ead563fba08ef,62a44682dff573a481316826,,,,,,,,,,,,,,,,,,,,,,,,,,,,,,,,,,,,,,,,,,,,,,,,,,,,,,,,,,,,,,,,,,,,,,,,,,,,,,,,,,,,,,,,,,,,,,,,,,,,,
,,,,,,7,0,7,0,1,X V Q F H G B L J M P D K C T S W R N Z,60d961f96595b918329ef4aa,28,Mężczyzna,2022-06-11_09h40.16.902,task,2021.1.4,Win32,143.8228103,6299f149e92ead563fba08ef,62a44682dff573a481316826,,,,,,,,,,,,,,,,,,,,,,,,,,,,,,,,,,,,,,,,,,,,,,,,,,,,,,,,,,,,,,,,,,,,,,,,,,,,,,,,,,,,,,,,,,,,,,,,,,,,,
,,,,,,8,0,8,0,1,X V Q F H G B L J M P D K C T S W R N Z,60d961f96595b918329ef4aa,28,Mężczyzna,2022-06-11_09h40.16.902,task,2021.1.4,Win32,143.8228103,6299f149e92ead563fba08ef,62a44682dff573a481316826,,,,,,,,,,,,,,,,,,,,,,,,,,,,,,,,,,,,,,,,,,,,,,,,,,,,,,,,,,,,,,,,,,,,,,,,,,,,,,,,,,,,,,,,,,,,,,,,,,,,,
,,,,,,9,0,9,0,1,X V Q F H G B L J M P D K C T S W R N Z,60d961f96595b918329ef4aa,28,Mężczyzna,2022-06-11_09h40.16.902,task,2021.1.4,Win32,143.8228103,6299f149e92ead563fba08ef,62a44682dff573a481316826,,,,,,,,,,,,,,,,,,,,,,,,,,,,,,,,,,,,,,,,,,,,,,,,,,,,,,,,,,,,,,,,,,,,,,,,,,,,,,,,,,,,,,,,,,,,,,,,,,,,,
,,,,,,10,0,10,0,1,X V Q F H G B L J M P D K C T S W R N Z,60d961f96595b918329ef4aa,28,Mężczyzna,2022-06-11_09h40.16.902,task,2021.1.4,Win32,143.8228103,6299f149e92ead563fba08ef,62a44682dff573a481316826,,,,,,,,,,,,,,,,,,,,,,,,,,,,,,,,,,,,,,,,,,,,,,,,,,,,,,,,,,,,,,,,,,,,,,,,,,,,,,,,,,,,,,,,,,,,,,,,,,,,,
,,,,,,11,0,11,0,1,X V Q F H G B L J M P D K C T S W R N Z,60d961f96595b918329ef4aa,28,Mężczyzna,2022-06-11_09h40.16.902,task,2021.1.4,Win32,143.8228103,6299f149e92ead563fba08ef,62a44682dff573a481316826,,,,,,,,,,,,,,,,,,,,,,,,,,,,,,,,,,,,,,,,,,,,,,,,,,,,,,,,,,,,,,,,,,,,,,,,,,,,,,,,,,,,,,,,,,,,,,,,,,,,,
,,,,,,12,0,12,0,1,X V Q F H G B L J M P D K C T S W R N Z,60d961f96595b918329ef4aa,28,Mężczyzna,2022-06-11_09h40.16.902,task,2021.1.4,Win32,143.8228103,6299f149e92ead563fba08ef,62a44682dff573a481316826,,,,,,,,,,,,,,,,,,,,,,,,,,,,,,,,,,,,,,,,,,,,,,,,,,,,,,,,,,,,,,,,,,,,,,,,,,,,,,,,,,,,,,,,,,,,,,,,,,,,,
,,,,,,13,0,13,0,1,X V Q F H G B L J M P D K C T S W R N Z,60d961f96595b918329ef4aa,28,Mężczyzna,2022-06-11_09h40.16.902,task,2021.1.4,Win32,143.8228103,6299f149e92ead563fba08ef,62a44682dff573a481316826,,,,,,,,,,,,,,,,,,,,,,,,,,,,,,,,,,,,,,,,,,,,,,,,,,,,,,,,,,,,,,,,,,,,,,,,,,,,,,,,,,,,,,,,,,,,,,,,,,,,,
,,,,,,14,0,14,0,1,X V Q F H G B L J M P D K C T S W R N Z,60d961f96595b918329ef4aa,28,Mężczyzna,2022-06-11_09h40.16.902,task,2021.1.4,Win32,143.8228103,6299f149e92ead563fba08ef,62a44682dff573a481316826,,,,,,,,,,,,,,,,,,,,,,,,,,,,,,,,,,,,,,,,,,,,,,,,,,,,,,,,,,,,,,,,,,,,,,,,,,,,,,,,,,,,,,,,,,,,,,,,,,,,,
,,,,,,,,,,,,60d961f96595b918329ef4aa,28,Mężczyzna,2022-06-11_09h40.16.902,task,2021.1.4,Win32,143.8228103,6299f149e92ead563fba08ef,62a44682dff573a481316826,mrlknrfksmllzkh,"[""m"",""r"",""l"",""k"",""n"",""r"",""f"",""k"",""s"",""m"",""l"",""l"",""z"",""k"",""h""]","[1.4389999999999645,2.1129999999999427,2.3671000000000504,2.671100000000024,2.992400000000316,3.6949999999999363,4.063100000000077,4.462999999999965,4.967100000000073,5.654999999999973,6.078900000000317,6.295100000000048,6.615100000000098,7.383100000000127,7.8482000000001335,10.726999999999975]",1,MRLKNRFKSMLLZKH,26,0,26,0,1,,,,,,,,,,,,,,,,,,,,,,,,,,,,,,,,,,,,,,,,,,,,,,,,,,,,,,,,,,,,,,,,,,,,,,,,,,,,,,,,,,,,,,,,,,,
,,,,,,,,,,,,60d961f96595b918329ef4aa,28,Mężczyzna,2022-06-11_09h40.16.902,task,2021.1.4,Win32,143.8228103,6299f149e92ead563fba08ef,62a44682dff573a481316826,,,,,,,,,,,space,21.281,0,"[""0""]",1,[2.888700000000199],[2.888700000000199],0,0,0,0,1,Practice,1,(3x3) -  9,0,,,,,,,,,,,,,,,,,,,,,,,,,,,,,,,,,,,,,,,,,,,,,,,,,,,,,,,,,,,,,,,,,,,,,,,,,,,
,,,,,,,,,,,,60d961f96595b918329ef4aa,28,Mężczyzna,2022-06-11_09h40.16.902,task,2021.1.4,Win32,143.8228103,6299f149e92ead563fba08ef,62a44682dff573a481316826,,,,,,,,,,,,,1,"[""1""]",1,[1.645200000000159],"[2.888700000000199,1.645200000000159]",0,1,1,1,1,Practice,2,(4x4) - 15,1,,,,,,,,,,,,,,,,,,,,,,,,,,,,,,,,,,,,,,,,,,,,,,,,,,,,,,,,,,,,,,,,,,,,,,,,,,,
,,,,,,,,,,,,60d961f96595b918329ef4aa,28,Mężczyzna,2022-06-11_09h40.16.902,task,2021.1.4,Win32,143.8228103,6299f149e92ead563fba08ef,62a44682dff573a481316826,,,,,,,,,,,,,9,"[""9""]",1,[2.2122000000001663],"[2.888700000000199,1.645200000000159,2.2122000000001663]",0,2,2,9,1,Practice,10,(20/2) - 1,9,,,,,,,,,,,,,,,,,,,,,,,,,,,,,,,,,,,,,,,,,,,,,,,,,,,,,,,,,,,,,,,,,,,,,,,,,,,
,,,,,,,,,,,,60d961f96595b918329ef4aa,28,Mężczyzna,2022-06-11_09h40.16.902,task,2021.1.4,Win32,143.8228103,6299f149e92ead563fba08ef,62a44682dff573a481316826,,,,,,,,,,,,,2,"[""2""]",1,[1.586799999999812],"[2.888700000000199,1.645200000000159,2.2122000000001663,1.586799999999812]",0,3,3,2,1,Practice,3,(4x4) - 14,2,,,,,,,,,,,,,,,,,,,,,,,,,,,,,,,,,,,,,,,,,,,,,,,,,,,,,,,,,,,,,,,,,,,,,,,,,,,
,,,,,,,,,,,,60d961f96595b918329ef4aa,28,Mężczyzna,2022-06-11_09h40.16.902,task,2021.1.4,Win32,143.8228103,6299f149e92ead563fba08ef,62a44682dff573a481316826,,,,,,,,,,,,,5,"[""5""]",1,[3.2606000000000677],"[2.888700000000199,1.645200000000159,2.2122000000001663,1.586799999999812,3.2606000000000677]",0,4,4,5,1,Practice,6,(4/2) + 3,5,,,,,,,,,,,,,,,,,,,,,,,,,,,,,,,,,,,,,,,,,,,,,,,,,,,,,,,,,,,,,,,,,,,,,,,,,,,
,,,,,,,,,,,,60d961f96595b918329ef4aa,28,Mężczyzna,2022-06-11_09h40.16.902,task,2021.1.4,Win32,143.8228103,6299f149e92ead563fba08ef,62a44682dff573a481316826,,,,,,,,,,,,,4,"[""4""]",1,[3.8627000000002454],"[2.888700000000199,1.645200000000159,2.2122000000001663,1.586799999999812,3.2606000000000677,3.8627000000002454]",0,5,5,4,1,Practice,5,(2x6) - 8,4,,,,,,,,,,,,,,,,,,,,,,,,,,,,,,,,,,,,,,,,,,,,,,,,,,,,,,,,,,,,,,,,,,,,,,,,,,,
,,,,,,,,,,,,60d961f96595b918329ef4aa,28,Mężczyzna,2022-06-11_09h40.16.902,task,2021.1.4,Win32,143.8228103,6299f149e92ead563fba08ef,62a44682dff573a481316826,,,,,,,,,,,,,8,"[""8""]",1,[2.717999999999961],"[2.888700000000199,1.645200000000159,2.2122000000001663,1.586799999999812,3.2606000000000677,3.8627000000002454,2.717999999999961]",0,6,6,8,1,Practice,9,(3x3) - 1,8,,,,,,,,,,,,,,,,,,,,,,,,,,,,,,,,,,,,,,,,,,,,,,,,,,,,,,,,,,,,,,,,,,,,,,,,,,,
,,,,,,,,,,,,60d961f96595b918329ef4aa,28,Mężczyzna,2022-06-11_09h40.16.902,task,2021.1.4,Win32,143.8228103,6299f149e92ead563fba08ef,62a44682dff573a481316826,,,,,,,,,,,,,7,"[""7""]",1,[6.951600000000099],"[2.888700000000199,1.645200000000159,2.2122000000001663,1.586799999999812,3.2606000000000677,3.8627000000002454,2.717999999999961,6.951600000000099]",0,7,7,7,1,Practice,8,(5x5) - 18,7,,,,,,,,,,,,,,,,,,,,,,,,,,,,,,,,,,,,,,,,,,,,,,,,,,,,,,,,,,,,,,,,,,,,,,,,,,,
,,,,,,,,,,,,60d961f96595b918329ef4aa,28,Mężczyzna,2022-06-11_09h40.16.902,task,2021.1.4,Win32,143.8228103,6299f149e92ead563fba08ef,62a44682dff573a481316826,,,,,,,,,,,,,6,"[""6""]",1,[2.5512999999998556],"[2.888700000000199,1.645200000000159,2.2122000000001663,1.586799999999812,3.2606000000000677,3.8627000000002454,2.717999999999961,6.951600000000099,2.5512999999998556]",0,8,8,6,1,Practice,7,(25/5) + 1,6,,,,,,,,,,,,,,,,,,,,,,,,,,,,,,,,,,,,,,,,,,,,,,,,,,,,,,,,,,,,,,,,,,,,,,,,,,,
,,,,,,,,,,,,60d961f96595b918329ef4aa,28,Mężczyzna,2022-06-11_09h40.16.902,task,2021.1.4,Win32,143.8228103,6299f149e92ead563fba08ef,62a44682dff573a481316826,,,,,,,,,,,,,3,"[""3""]",1,[2.6151999999997315],"[2.888700000000199,1.645200000000159,2.2122000000001663,1.586799999999812,3.2606000000000677,3.8627000000002454,2.717999999999961,6.951600000000099,2.5512999999998556,2.6151999999997315]",0,9,9,3,1,Practice,4,(8/4) + 1,3,,,,,,,,,,,,,,,,,,,,,,,,,,,,,,,,,,,,,,,,,,,,,,,,,,,,,,,,,,,,,,,,,,,,,,,,,,,
,,,,,,,,,,,,60d961f96595b918329ef4aa,28,Mężczyzna,2022-06-11_09h40.16.902,task,2021.1.4,Win32,143.8228103,6299f149e92ead563fba08ef,62a44682dff573a481316826,,,,,,,,,,,,,,,,,,,,,,,,,,,1,30.2923,2.019486667,31.50913881,1.449347872,5.758804177,space,3.1699,0,0,0,0,1,,,,,,,,,,,,,,,,,,,,,,,,,,,,,,,,,,,,,,,,,,,,,,,,,,,,,,,,,,,,,,
,,,,,,,,,,,,60d961f96595b918329ef4aa,28,Mężczyzna,2022-06-11_09h40.16.902,task,2021.1.4,Win32,143.8228103,6299f149e92ead563fba08ef,62a44682dff573a481316826,,,,,,,,,,,,,1,,,,,,,,,,Practice,2,(4x4) - 15,1,,,,,,,,,,,,,,space,40.1321,"[""1""]",1,[2.223899999999958],1,0,0,0,1,1,,,,,,,,,,,,,,,,,,,,,,,,,,,,,,,,,,,,,,,,,,,,,,,,,,,
,,,,,,,,,,,X V Q F H G B L J M P D K C T S W R N Z,60d961f96595b918329ef4aa,28,Mężczyzna,2022-06-11_09h40.16.902,task,2021.1.4,Win32,143.8228103,6299f149e92ead563fba08ef,62a44682dff573a481316826,,,,,,,,,,,,,,,,,,,,,,,,,,,,,,,,,,,,,,,,,,,,,,,,,,,0,0,0,0,1,,,,,,,,,,,,,,,,,,,,,,,,,,,,,,,,,,,,,,,,,,,,,,
,,,,,,,,,,,,60d961f96595b918329ef4aa,28,Mężczyzna,2022-06-11_09h40.16.902,task,2021.1.4,Win32,143.8228103,6299f149e92ead563fba08ef,62a44682dff573a481316826,,,,,,,,,,,,,3,,,,,,,,,,Practice,4,(8/4) + 1,3,,,,,,,,,,,,,,,,"[""3""]",1,[2.5588000000002467],1,0,0,0,3,1,,,,,,,,,,,,,,,,,,,,,,,,,,,,,,,,,,,,,,,,,,,,,,,,,,,
,,,,,,,,,,,X V Q F H G B L J M P D K C T S W R N Z,60d961f96595b918329ef4aa,28,Mężczyzna,2022-06-11_09h40.16.902,task,2021.1.4,Win32,143.8228103,6299f149e92ead563fba08ef,62a44682dff573a481316826,,,,,,,,,,,,,,,,,,,,,,,,,,,,,,,,,,,,,,,,,,,,,,,,,,,1,0,1,0,1,,,,,,,,,,,,,,,,,,,,,,,,,,,,,,,,,,,,,,,,,,,,,,
,,,,,,,,,,,,60d961f96595b918329ef4aa,28,Mężczyzna,2022-06-11_09h40.16.902,task,2021.1.4,Win32,143.8228103,6299f149e92ead563fba08ef,62a44682dff573a481316826,,,,,,,,,,,,,,,,,,,,,,,,,,,,,,,,,,,,,,,,,,,,,,,,,,,,,,,,zl,"[""z"",""l""]",0,"[2.6450999999996156,2.78879999999981,3.2687999999998283]",1,0,0,0,0,1,,,,,,,,,,,,,,,,,,,,,,,,,,,,,,,,,,,,
,,,,,,,,,,,,60d961f96595b918329ef4aa,28,Mężczyzna,2022-06-11_09h40.16.902,task,2021.1.4,Win32,143.8228103,6299f149e92ead563fba08ef,62a44682dff573a481316826,,,,,,,,,,,,,8,,,,,,,,,,Practice,9,(3x3) - 1,8,,,,,,,,,,,,,,,,"[""8""]",1,[2.73170000000016],1,0,0,0,8,1,,,,,,,,,,,,,,,,,,,,,,,,,,,,,,,,,,,,,,,,,,,,,,,,,,,
,,,,,,,,,,,X V Q F H G B L J M P D K C T S W R N Z,60d961f96595b918329ef4aa,28,Mężczyzna,2022-06-11_09h40.16.902,task,2021.1.4,Win32,143.8228103,6299f149e92ead563fba08ef,62a44682dff573a481316826,,,,,,,,,,,,,,,,,,,,,,,,,,,,,,,,,,,,,,,,,,,,,,,,,,,0,0,0,0,1,,,,,,,,,,,,,,,,,,,,,,,,,,,,,,,,,,,,,,,,,,,,,,
,,,,,,,,,,,,60d961f96595b918329ef4aa,28,Mężczyzna,2022-06-11_09h40.16.902,task,2021.1.4,Win32,143.8228103,6299f149e92ead563fba08ef,62a44682dff573a481316826,,,,,,,,,,,,,6,,,,,,,,,,Practice,7,(25/5) + 1,6,,,,,,,,,,,,,,,,"[""6""]",1,[2.24249999999995],1,0,0,0,6,1,,,,,,,,,,,,,,,,,,,,,,,,,,,,,,,,,,,,,,,,,,,,,,,,,,,
,,,,,,,,,,,X V Q F H G B L J M P D K C T S W R N Z,60d961f96595b918329ef4aa,28,Mężczyzna,2022-06-11_09h40.16.902,task,2021.1.4,Win32,143.8228103,6299f149e92ead563fba08ef,62a44682dff573a481316826,,,,,,,,,,,,,,,,,,,,,,,,,,,,,,,,,,,,,,,,,,,,,,,,,,,1,0,1,0,1,,,,,,,,,,,,,,,,,,,,,,,,,,,,,,,,,,,,,,,,,,,,,,
,,,,,,,,,,,,60d961f96595b918329ef4aa,28,Mężczyzna,2022-06-11_09h40.16.902,task,2021.1.4,Win32,143.8228103,6299f149e92ead563fba08ef,62a44682dff573a481316826,,,,,,,,,,,,,,,,,,,,,,,,,,,,,,,,,,,,,,,,,,,,,,,,,,,,,,,,qj,"[""q"",""j""]",0,"[2.447999999999979,2.5521000000001095,3.2962000000002263]",1,1,0,1,0,1,,,,,,,,,,,,,,,,,,,,,,,,,,,,,,,,,,,,
,,,,,,,,,,,,60d961f96595b918329ef4aa,28,Mężczyzna,2022-06-11_09h40.16.902,task,2021.1.4,Win32,143.8228103,6299f149e92ead563fba08ef,62a44682dff573a481316826,,,,,,,,,,,,,5,,,,,,,,,,Practice,6,(4/2) + 3,5,,,,,,,,,,,,,,,,"[""5""]",1,[2.283100000000104],1,0,0,0,5,1,,,,,,,,,,,,,,,,,,,,,,,,,,,,,,,,,,,,,,,,,,,,,,,,,,,
,,,,,,,,,,,X V Q F H G B L J M P D K C T S W R N Z,60d961f96595b918329ef4aa,28,Mężczyzna,2022-06-11_09h40.16.902,task,2021.1.4,Win32,143.8228103,6299f149e92ead563fba08ef,62a44682dff573a481316826,,,,,,,,,,,,,,,,,,,,,,,,,,,,,,,,,,,,,,,,,,,,,,,,,,,0,0,0,0,1,,,,,,,,,,,,,,,,,,,,,,,,,,,,,,,,,,,,,,,,,,,,,,
,,,,,,,,,,,,60d961f96595b918329ef4aa,28,Mężczyzna,2022-06-11_09h40.16.902,task,2021.1.4,Win32,143.8228103,6299f149e92ead563fba08ef,62a44682dff573a481316826,,,,,,,,,,,,,2,,,,,,,,,,Practice,3,(4x4) - 14,2,,,,,,,,,,,,,,,,"[""2""]",1,[2.2697999999998046],1,0,0,0,2,1,,,,,,,,,,,,,,,,,,,,,,,,,,,,,,,,,,,,,,,,,,,,,,,,,,,
,,,,,,,,,,,X V Q F H G B L J M P D K C T S W R N Z,60d961f96595b918329ef4aa,28,Mężczyzna,2022-06-11_09h40.16.902,task,2021.1.4,Win32,143.8228103,6299f149e92ead563fba08ef,62a44682dff573a481316826,,,,,,,,,,,,,,,,,,,,,,,,,,,,,,,,,,,,,,,,,,,,,,,,,,,1,0,1,0,1,,,,,,,,,,,,,,,,,,,,,,,,,,,,,,,,,,,,,,,,,,,,,,
,,,,,,,,,,,,60d961f96595b918329ef4aa,28,Mężczyzna,2022-06-11_09h40.16.902,task,2021.1.4,Win32,143.8228103,6299f149e92ead563fba08ef,62a44682dff573a481316826,,,,,,,,,,,,,,,,,,,,,,,,,,,,,,,,,,,,,,,,,,,,,,,,,,,,,,,,kp,"[""k"",""p""]",0,"[2.7368000000003576,2.9620000000001028,3.368700000000217]",1,2,0,2,0,1,,,,,,,,,,,,,,,,,,,,,,,,,,,,,,,,,,,,
,,,,,,,,,,,,60d961f96595b918329ef4aa,28,Mężczyzna,2022-06-11_09h40.16.902,task,2021.1.4,Win32,143.8228103,6299f149e92ead563fba08ef,62a44682dff573a481316826,,,,,,,,,,,,,5,,,,,,,,,,Task,12,(4x4) - 11,5,,,,,,,,,,,,,,,,,,,1,,,,,,,,,,,,,,,,,,,,,space,25.0611,"[""5""]",1,[3.5534999999999854],0,0,0,11,1,,,,,,,,,,,,,,,,,,,,,,,,,,
,,,,,,,,,,,X V Q F H G B L J M P D K C T S W R N Z,60d961f96595b918329ef4aa,28,Mężczyzna,2022-06-11_09h40.16.902,task,2021.1.4,Win32,143.8228103,6299f149e92ead563fba08ef,62a44682dff573a481316826,,,,,,,,,,,,,,,,,,,,,,,,,,,,,,,,,,,,,,,,,,,,,,,,,,,,,,,,,,,,,,,,,,,,,,,,,,,,0,0,0,0,1,,,,,,,,,,,,,,,,,,,,,
,,,,,,,,,,,,60d961f96595b918329ef4aa,28,Mężczyzna,2022-06-11_09h40.16.902,task,2021.1.4,Win32,143.8228103,6299f149e92ead563fba08ef,62a44682dff573a481316826,,,,,,,,,,,,,2,,,,,,,,,,Task,2,(2x2) - 2,2,,,,,,,,,,,,,,,,,,,1,,,,,,,,,,,,,,,,,,,,,,,"[""2""]",1,[4.4187999999998056],0,0,0,1,1,,,,,,,,,,,,,,,,,,,,,,,,,,
,,,,,,,,,,,X V Q F H G B L J M P D K C T S W R N Z,60d961f96595b918329ef4aa,28,Mężczyzna,2022-06-11_09h40.16.902,task,2021.1.4,Win32,143.8228103,6299f149e92ead563fba08ef,62a44682dff573a481316826,,,,,,,,,,,,,,,,,,,,,,,,,,,,,,,,,,,,,,,,,,,,,,,,,,,,,,,,,,,,,,,,,,,,,,,,,,,,1,0,1,0,1,,,,,,,,,,,,,,,,,,,,,
,,,,,,,,,,,,60d961f96595b918329ef4aa,28,Mężczyzna,2022-06-11_09h40.16.902,task,2021.1.4,Win32,143.8228103,6299f149e92ead563fba08ef,62a44682dff573a481316826,,,,,,,,,,,,,,,,,,,,,,,,,,,,,,,,,,,,,,,,,,,,,,,,,,,,,,,,,,,,,,,,,,,,,,,,,,,,,,,,,zc,"[""z"",""c""]",0,"[1.728799999999751,2.1689999999999827,2.9788999999998396]",1,ZC,0,0,0,0,1,,,,,,,,,,
,,,,,,,,,,,,60d961f96595b918329ef4aa,28,Mężczyzna,2022-06-11_09h40.16.902,task,2021.1.4,Win32,143.8228103,6299f149e92ead563fba08ef,62a44682dff573a481316826,,,,,,,,,,,,,,,,,,,,,,,Task,11,(18/3) - 2,4,,,,,,,,,,,,,,,,,,,0,,,,,,,,,,,,,,,,,,,,,,,,0,,0,0,0,10,1,,,,,,,,,,,,,,,,,,,,,,,,,,
,,,,,,,,,,,,60d961f96595b918329ef4aa,28,Mężczyzna,2022-06-11_09h40.16.902,task,2021.1.4,Win32,143.8228103,6299f149e92ead563fba08ef,62a44682dff573a481316826,,,,,,,,,,,,,3,,,,,,,,,,Task,27,(3/3) + 2,3,,,,,,,,,,,,,,,,,,,1,,,,,,,,,,,,,,,,,,,,,,,"[""3""]",1,[4.061700000000201],0,1,1,26,1,,,,,,,,,,,,,,,,,,,,,,,,,,
,,,,,,,,,,,X V Q F H G B L J M P D K C T S W R N Z,60d961f96595b918329ef4aa,28,Mężczyzna,2022-06-11_09h40.16.902,task,2021.1.4,Win32,143.8228103,6299f149e92ead563fba08ef,62a44682dff573a481316826,,,,,,,,,,,,,,,,,,,,,,,,,,,,,,,,,,,,,,,,,,,,,,,,,,,,,,,,,,,,,,,,,,,,,,,,,,,,0,0,0,0,1,,,,,,,,,,,,,,,,,,,,,
,,,,,,,,,,,,60d961f96595b918329ef4aa,28,Mężczyzna,2022-06-11_09h40.16.902,task,2021.1.4,Win32,143.8228103,6299f149e92ead563fba08ef,62a44682dff573a481316826,,,,,,,,,,,,,3,,,,,,,,,,Task,16,(3x8) - 15,9,,,,,,,,,,,,,,,,,,,0,,,,,,,,,,,,,,,,,,,,,,,"[""3""]",0,[4.21979999999985],0,0,0,15,1,,,,,,,,,,,,,,,,,,,,,,,,,,
,,,,,,,,,,,,60d961f96595b918329ef4aa,28,Mężczyzna,2022-06-11_09h40.16.902,task,2021.1.4,Win32,143.8228103,6299f149e92ead563fba08ef,62a44682dff573a481316826,,,,,,,,,,,,,1,,,,,,,,,,Task,34,(9/3) - 2,1,,,,,,,,,,,,,,,,,,,1,,,,,,,,,,,,,,,,,,,,,,,"[""1""]",1,[3.5797999999998638],0,1,1,33,1,,,,,,,,,,,,,,,,,,,,,,,,,,
,,,,,,,,,,,X V Q F H G B L J M P D K C T S W R N Z,60d961f96595b918329ef4aa,28,Mężczyzna,2022-06-11_09h40.16.902,task,2021.1.4,Win32,143.8228103,6299f149e92ead563fba08ef,62a44682dff573a481316826,,,,,,,,,,,,,,,,,,,,,,,,,,,,,,,,,,,,,,,,,,,,,,,,,,,,,,,,,,,,,,,,,,,,,,,,,,,,1,0,1,0,1,,,,,,,,,,,,,,,,,,,,,
,,,,,,,,,,,,60d961f96595b918329ef4aa,28,Mężczyzna,2022-06-11_09h40.16.902,task,2021.1.4,Win32,143.8228103,6299f149e92ead563fba08ef,62a44682dff573a481316826,,,,,,,,,,,,,2,,,,,,,,,,Task,2,(2x2) - 2,2,,,,,,,,,,,,,,,,,,,1,,,,,,,,,,,,,,,,,,,,,,,"[""2""]",1,[1.677200000000198],0,0,0,1,1,,,,,,,,,,,,,,,,,,,,,,,,,,
,,,,,,,,,,,X V Q F H G B L J M P D K C T S W R N Z,60d961f96595b918329ef4aa,28,Mężczyzna,2022-06-11_09h40.16.902,task,2021.1.4,Win32,143.8228103,6299f149e92ead563fba08ef,62a44682dff573a481316826,,,,,,,,,,,,,,,,,,,,,,,,,,,,,,,,,,,,,,,,,,,,,,,,,,,,,,,,,,,,,,,,,,,,,,,,,,,,2,0,2,0,1,,,,,,,,,,,,,,,,,,,,,
,,,,,,,,,,,,60d961f96595b918329ef4aa,28,Mężczyzna,2022-06-11_09h40.16.902,task,2021.1.4,Win32,143.8228103,6299f149e92ead563fba08ef,62a44682dff573a481316826,,,,,,,,,,,,,,,,,,,,,,,,,,,,,,,,,,,,,,,,,,,,,,,,,,,,,,,,,,,,,,,,,,,,,,,,,,,,,,,,,mrz,"[""m"",""r"",""z""]",0,"[2.21559999999954,2.399599999999623,2.639599999999632,3.039399999999887]",1,MRZ,1,0,1,0,1,,,,,,,,,,
,,,,,,,,,,,,60d961f96595b918329ef4aa,28,Mężczyzna,2022-06-11_09h40.16.902,task,2021.1.4,Win32,143.8228103,6299f149e92ead563fba08ef,62a44682dff573a481316826,,,,,,,,,,,,,3,,,,,,,,,,Task,27,(3/3) + 2,3,,,,,,,,,,,,,,,,,,,1,,,,,,,,,,,,,,,,,,,,,,,"[""3""]",1,[2.377600000000143],0,0,0,26,1,,,,,,,,,,,,,,,,,,,,,,,,,,
,,,,,,,,,,,X V Q F H G B L J M P D K C T S W R N Z,60d961f96595b918329ef4aa,28,Mężczyzna,2022-06-11_09h40.16.902,task,2021.1.4,Win32,143.8228103,6299f149e92ead563fba08ef,62a44682dff573a481316826,,,,,,,,,,,,,,,,,,,,,,,,,,,,,,,,,,,,,,,,,,,,,,,,,,,,,,,,,,,,,,,,,,,,,,,,,,,,0,0,0,0,1,,,,,,,,,,,,,,,,,,,,,
,,,,,,,,,,,,60d961f96595b918329ef4aa,28,Mężczyzna,2022-06-11_09h40.16.902,task,2021.1.4,Win32,143.8228103,6299f149e92ead563fba08ef,62a44682dff573a481316826,,,,,,,,,,,,,0,,,,,,,,,,Task,33,(1/1) - 1,0,,,,,,,,,,,,,,,,,,,1,,,,,,,,,,,,,,,,,,,,,,,"[""0""]",1,[2.0109999999999673],0,0,0,32,1,,,,,,,,,,,,,,,,,,,,,,,,,,
,,,,,,,,,,,X V Q F H G B L J M P D K C T S W R N Z,60d961f96595b918329ef4aa,28,Mężczyzna,2022-06-11_09h40.16.902,task,2021.1.4,Win32,143.8228103,6299f149e92ead563fba08ef,62a44682dff573a481316826,,,,,,,,,,,,,,,,,,,,,,,,,,,,,,,,,,,,,,,,,,,,,,,,,,,,,,,,,,,,,,,,,,,,,,,,,,,,1,0,1,0,1,,,,,,,,,,,,,,,,,,,,,
,,,,,,,,,,,,60d961f96595b918329ef4aa,28,Mężczyzna,2022-06-11_09h40.16.902,task,2021.1.4,Win32,143.8228103,6299f149e92ead563fba08ef,62a44682dff573a481316826,,,,,,,,,,,,,1,,,,,,,,,,Task,29,(3x8) - 19 ,5,,,,,,,,,,,,,,,,,,,0,,,,,,,,,,,,,,,,,,,,,,,"[""1""]",0,[2.88470000000018],0,0,0,28,1,,,,,,,,,,,,,,,,,,,,,,,,,,
,,,,,,,,,,,,60d961f96595b918329ef4aa,28,Mężczyzna,2022-06-11_09h40.16.902,task,2021.1.4,Win32,143.8228103,6299f149e92ead563fba08ef,62a44682dff573a481316826,,,,,,,,,,,,,,,,,,,,,,,Task,7,(3x7) - 12,9,,,,,,,,,,,,,,,,,,,0,,,,,,,,,,,,,,,,,,,,,,,,0,,0,1,1,6,1,,,,,,,,,,,,,,,,,,,,,,,,,,
,,,,,,,,,,,,60d961f96595b918329ef4aa,28,Mężczyzna,2022-06-11_09h40.16.902,task,2021.1.4,Win32,143.8228103,6299f149e92ead563fba08ef,62a44682dff573a481316826,,,,,,,,,,,,,7,,,,,,,,,,Task,31,(4/2) + 5,7,,,,,,,,,,,,,,,,,,,1,,,,,,,,,,,,,,,,,,,,,,,"[""7""]",1,[4.034399999999891],0,2,2,30,1,,,,,,,,,,,,,,,,,,,,,,,,,,
,,,,,,,,,,,X V Q F H G B L J M P D K C T S W R N Z,60d961f96595b918329ef4aa,28,Mężczyzna,2022-06-11_09h40.16.902,task,2021.1.4,Win32,143.8228103,6299f149e92ead563fba08ef,62a44682dff573a481316826,,,,,,,,,,,,,,,,,,,,,,,,,,,,,,,,,,,,,,,,,,,,,,,,,,,,,,,,,,,,,,,,,,,,,,,,,,,,2,0,2,0,1,,,,,,,,,,,,,,,,,,,,,
,,,,,,,,,,,,60d961f96595b918329ef4aa,28,Mężczyzna,2022-06-11_09h40.16.902,task,2021.1.4,Win32,143.8228103,6299f149e92ead563fba08ef,62a44682dff573a481316826,,,,,,,,,,,,,1,,,,,,,,,,Task,9,(3x7) - 20,1,,,,,,,,,,,,,,,,,,,1,,,,,,,,,,,,,,,,,,,,,,,"[""1""]",1,[3.1116000000000668],0,0,0,8,1,,,,,,,,,,,,,,,,,,,,,,,,,,
,,,,,,,,,,,X V Q F H G B L J M P D K C T S W R N Z,60d961f96595b918329ef4aa,28,Mężczyzna,2022-06-11_09h40.16.902,task,2021.1.4,Win32,143.8228103,6299f149e92ead563fba08ef,62a44682dff573a481316826,,,,,,,,,,,,,,,,,,,,,,,,,,,,,,,,,,,,,,,,,,,,,,,,,,,,,,,,,,,,,,,,,,,,,,,,,,,,3,0,3,0,1,,,,,,,,,,,,,,,,,,,,,
