key_resp_15.keys,key_resp_15.rt,key_resp_16.keys,key_resp_16.rt,key_resp_4.keys,key_resp_4.rt,next_letter.thisRepN,next_letter.thisTrialN,next_letter.thisN,next_letter.thisIndex,next_letter.ran,letter,participant,Wiek*,Płeć,date,expName,psychopyVersion,OS,frameRate,study_id,session,simple_recall,key_resp_5.keys,key_resp_5.rt,simple_recall_corr,simple_recall_corrkeys,next_level.thisRepN,next_level.thisTrialN,next_level.thisN,next_level.thisIndex,next_level.ran,key_resp_2.keys,key_resp_2.rt,digit_answer,key_resp.keys,key_resp.corr,key_resp.rt,RT_list,next_equation.thisRepN,next_equation.thisTrialN,next_equation.thisN,next_equation.thisIndex,next_equation.ran,Task,Trial,Problem,Operation_answer,processing_score,sumRT,meanRT,sumdiff,sd,RT,key_resp_3.keys,key_resp_3.rt,repeat_practice.thisRepN,repeat_practice.thisTrialN,repeat_practice.thisN,repeat_practice.thisIndex,repeat_practice.ran,key_resp_6.keys,key_resp_6.rt,key_resp_11.keys,key_resp_11.corr,key_resp_11.rt,operation_correct,repeat_if_wrong_prac.thisRepN,repeat_if_wrong_prac.thisTrialN,repeat_if_wrong_prac.thisN,repeat_if_wrong_prac.thisIndex,repeat_if_wrong_prac.ran,span_size_prac.thisRepN,span_size_prac.thisTrialN,span_size_prac.thisN,span_size_prac.thisIndex,span_size_prac.ran,complex_recall_practice,key_resp_9.keys,key_resp_9.corr,key_resp_9.rt,complex_prac_corr,span_recall_prac.thisRepN,span_recall_prac.thisTrialN,span_recall_prac.thisN,span_recall_prac.thisIndex,span_recall_prac.ran,key_resp_10.keys,key_resp_10.rt,key_resp_7.keys,key_resp_7.corr,key_resp_7.rt,repeat_if_wrong.thisRepN,repeat_if_wrong.thisTrialN,repeat_if_wrong.thisN,repeat_if_wrong.thisIndex,repeat_if_wrong.ran,span_size.thisRepN,span_size.thisTrialN,span_size.thisN,span_size.thisIndex,span_size.ran,complex_recall,key_resp_8.keys,key_resp_8.corr,key_resp_8.rt,complex_recall_corr,complex_recall_corrkeys,span_recall.thisRepN,span_recall.thisTrialN,span_recall.thisN,span_recall.thisIndex,span_recall.ran,key_resp_13.keys,key_resp_13.corr,random_loop.thisRepN,random_loop.thisTrialN,random_loop.thisN,random_loop.thisIndex,random_loop.ran,key_resp_13.rt,key_resp_12.keys,key_resp_12.rt
space,20.357,space,15.7218,space,53.6641,0,0,0,0,1,X V Q F H G B L J M P D K C T S W R N Z,60ec51c51a3158a50ded8a3e,19,Mężczyzna,2022-06-11_11h12.20.055,task,2021.1.4,Win32,60.0024001,6299f149e92ead563fba08ef,62a459983bd53e98fd04c88c,,,,,,,,,,,,,,,,,,,,,,,,,,,,,,,,,,,,,,,,,,,,,,,,,,,,,,,,,,,,,,,,,,,,,,,,,,,,,,,,,,,,,,,,,,,,,,,,,,,,,
,,,,,,1,0,1,0,1,X V Q F H G B L J M P D K C T S W R N Z,60ec51c51a3158a50ded8a3e,19,Mężczyzna,2022-06-11_11h12.20.055,task,2021.1.4,Win32,60.0024001,6299f149e92ead563fba08ef,62a459983bd53e98fd04c88c,,,,,,,,,,,,,,,,,,,,,,,,,,,,,,,,,,,,,,,,,,,,,,,,,,,,,,,,,,,,,,,,,,,,,,,,,,,,,,,,,,,,,,,,,,,,,,,,,,,,,
,,,,,,,,,,,,60ec51c51a3158a50ded8a3e,19,Mężczyzna,2022-06-11_11h12.20.055,task,2021.1.4,Win32,60.0024001,6299f149e92ead563fba08ef,62a459983bd53e98fd04c88c,zl,"[""z"",""l""]","[1.4098999999761617,1.6510000000000105,2.8329999999999984]",1,ZL,0,0,0,0,1,,,,,,,,,,,,,,,,,,,,,,,,,,,,,,,,,,,,,,,,,,,,,,,,,,,,,,,,,,,,,,,,,,,,,,,,,,,,,,,,,,,,,,,,,,,
,,,,,,0,0,0,0,1,X V Q F H G B L J M P D K C T S W R N Z,60ec51c51a3158a50ded8a3e,19,Mężczyzna,2022-06-11_11h12.20.055,task,2021.1.4,Win32,60.0024001,6299f149e92ead563fba08ef,62a459983bd53e98fd04c88c,,,,,,,,,,,,,,,,,,,,,,,,,,,,,,,,,,,,,,,,,,,,,,,,,,,,,,,,,,,,,,,,,,,,,,,,,,,,,,,,,,,,,,,,,,,,,,,,,,,,,
,,,,,,1,0,1,0,1,X V Q F H G B L J M P D K C T S W R N Z,60ec51c51a3158a50ded8a3e,19,Mężczyzna,2022-06-11_11h12.20.055,task,2021.1.4,Win32,60.0024001,6299f149e92ead563fba08ef,62a459983bd53e98fd04c88c,,,,,,,,,,,,,,,,,,,,,,,,,,,,,,,,,,,,,,,,,,,,,,,,,,,,,,,,,,,,,,,,,,,,,,,,,,,,,,,,,,,,,,,,,,,,,,,,,,,,,
,,,,,,,,,,,,60ec51c51a3158a50ded8a3e,19,Mężczyzna,2022-06-11_11h12.20.055,task,2021.1.4,Win32,60.0024001,6299f149e92ead563fba08ef,62a459983bd53e98fd04c88c,sk,"[""s"",""k""]","[1.077099999964247,1.2558999999761653,1.8894999999999982]",1,SK,1,0,1,0,1,,,,,,,,,,,,,,,,,,,,,,,,,,,,,,,,,,,,,,,,,,,,,,,,,,,,,,,,,,,,,,,,,,,,,,,,,,,,,,,,,,,,,,,,,,,
,,,,,,0,0,0,0,1,X V Q F H G B L J M P D K C T S W R N Z,60ec51c51a3158a50ded8a3e,19,Mężczyzna,2022-06-11_11h12.20.055,task,2021.1.4,Win32,60.0024001,6299f149e92ead563fba08ef,62a459983bd53e98fd04c88c,,,,,,,,,,,,,,,,,,,,,,,,,,,,,,,,,,,,,,,,,,,,,,,,,,,,,,,,,,,,,,,,,,,,,,,,,,,,,,,,,,,,,,,,,,,,,,,,,,,,,
,,,,,,1,0,1,0,1,X V Q F H G B L J M P D K C T S W R N Z,60ec51c51a3158a50ded8a3e,19,Mężczyzna,2022-06-11_11h12.20.055,task,2021.1.4,Win32,60.0024001,6299f149e92ead563fba08ef,62a459983bd53e98fd04c88c,,,,,,,,,,,,,,,,,,,,,,,,,,,,,,,,,,,,,,,,,,,,,,,,,,,,,,,,,,,,,,,,,,,,,,,,,,,,,,,,,,,,,,,,,,,,,,,,,,,,,
,,,,,,2,0,2,0,1,X V Q F H G B L J M P D K C T S W R N Z,60ec51c51a3158a50ded8a3e,19,Mężczyzna,2022-06-11_11h12.20.055,task,2021.1.4,Win32,60.0024001,6299f149e92ead563fba08ef,62a459983bd53e98fd04c88c,,,,,,,,,,,,,,,,,,,,,,,,,,,,,,,,,,,,,,,,,,,,,,,,,,,,,,,,,,,,,,,,,,,,,,,,,,,,,,,,,,,,,,,,,,,,,,,,,,,,,
,,,,,,,,,,,,60ec51c51a3158a50ded8a3e,19,Mężczyzna,2022-06-11_11h12.20.055,task,2021.1.4,Win32,60.0024001,6299f149e92ead563fba08ef,62a459983bd53e98fd04c88c,psl,"[""p"",""s"",""l""]","[0.5279999999999916,0.8479000000357644,1.0456999999880736,2.35590000003576]",1,PSL,2,0,2,0,1,,,,,,,,,,,,,,,,,,,,,,,,,,,,,,,,,,,,,,,,,,,,,,,,,,,,,,,,,,,,,,,,,,,,,,,,,,,,,,,,,,,,,,,,,,,
,,,,,,0,0,0,0,1,X V Q F H G B L J M P D K C T S W R N Z,60ec51c51a3158a50ded8a3e,19,Mężczyzna,2022-06-11_11h12.20.055,task,2021.1.4,Win32,60.0024001,6299f149e92ead563fba08ef,62a459983bd53e98fd04c88c,,,,,,,,,,,,,,,,,,,,,,,,,,,,,,,,,,,,,,,,,,,,,,,,,,,,,,,,,,,,,,,,,,,,,,,,,,,,,,,,,,,,,,,,,,,,,,,,,,,,,
,,,,,,1,0,1,0,1,X V Q F H G B L J M P D K C T S W R N Z,60ec51c51a3158a50ded8a3e,19,Mężczyzna,2022-06-11_11h12.20.055,task,2021.1.4,Win32,60.0024001,6299f149e92ead563fba08ef,62a459983bd53e98fd04c88c,,,,,,,,,,,,,,,,,,,,,,,,,,,,,,,,,,,,,,,,,,,,,,,,,,,,,,,,,,,,,,,,,,,,,,,,,,,,,,,,,,,,,,,,,,,,,,,,,,,,,
,,,,,,2,0,2,0,1,X V Q F H G B L J M P D K C T S W R N Z,60ec51c51a3158a50ded8a3e,19,Mężczyzna,2022-06-11_11h12.20.055,task,2021.1.4,Win32,60.0024001,6299f149e92ead563fba08ef,62a459983bd53e98fd04c88c,,,,,,,,,,,,,,,,,,,,,,,,,,,,,,,,,,,,,,,,,,,,,,,,,,,,,,,,,,,,,,,,,,,,,,,,,,,,,,,,,,,,,,,,,,,,,,,,,,,,,
,,,,,,,,,,,,60ec51c51a3158a50ded8a3e,19,Mężczyzna,2022-06-11_11h12.20.055,task,2021.1.4,Win32,60.0024001,6299f149e92ead563fba08ef,62a459983bd53e98fd04c88c,jbp,"[""j"",""b"",""p""]","[0.8910999999642257,1.1580999999642358,1.9393000000119116,2.4123000000119106]",1,JBP,3,0,3,0,1,,,,,,,,,,,,,,,,,,,,,,,,,,,,,,,,,,,,,,,,,,,,,,,,,,,,,,,,,,,,,,,,,,,,,,,,,,,,,,,,,,,,,,,,,,,
,,,,,,0,0,0,0,1,X V Q F H G B L J M P D K C T S W R N Z,60ec51c51a3158a50ded8a3e,19,Mężczyzna,2022-06-11_11h12.20.055,task,2021.1.4,Win32,60.0024001,6299f149e92ead563fba08ef,62a459983bd53e98fd04c88c,,,,,,,,,,,,,,,,,,,,,,,,,,,,,,,,,,,,,,,,,,,,,,,,,,,,,,,,,,,,,,,,,,,,,,,,,,,,,,,,,,,,,,,,,,,,,,,,,,,,,
,,,,,,1,0,1,0,1,X V Q F H G B L J M P D K C T S W R N Z,60ec51c51a3158a50ded8a3e,19,Mężczyzna,2022-06-11_11h12.20.055,task,2021.1.4,Win32,60.0024001,6299f149e92ead563fba08ef,62a459983bd53e98fd04c88c,,,,,,,,,,,,,,,,,,,,,,,,,,,,,,,,,,,,,,,,,,,,,,,,,,,,,,,,,,,,,,,,,,,,,,,,,,,,,,,,,,,,,,,,,,,,,,,,,,,,,
,,,,,,2,0,2,0,1,X V Q F H G B L J M P D K C T S W R N Z,60ec51c51a3158a50ded8a3e,19,Mężczyzna,2022-06-11_11h12.20.055,task,2021.1.4,Win32,60.0024001,6299f149e92ead563fba08ef,62a459983bd53e98fd04c88c,,,,,,,,,,,,,,,,,,,,,,,,,,,,,,,,,,,,,,,,,,,,,,,,,,,,,,,,,,,,,,,,,,,,,,,,,,,,,,,,,,,,,,,,,,,,,,,,,,,,,
,,,,,,3,0,3,0,1,X V Q F H G B L J M P D K C T S W R N Z,60ec51c51a3158a50ded8a3e,19,Mężczyzna,2022-06-11_11h12.20.055,task,2021.1.4,Win32,60.0024001,6299f149e92ead563fba08ef,62a459983bd53e98fd04c88c,,,,,,,,,,,,,,,,,,,,,,,,,,,,,,,,,,,,,,,,,,,,,,,,,,,,,,,,,,,,,,,,,,,,,,,,,,,,,,,,,,,,,,,,,,,,,,,,,,,,,
,,,,,,,,,,,,60ec51c51a3158a50ded8a3e,19,Mężczyzna,2022-06-11_11h12.20.055,task,2021.1.4,Win32,60.0024001,6299f149e92ead563fba08ef,62a459983bd53e98fd04c88c,nnvl,"[""n"",""n"",""v"",""l""]","[0.9562999999523072,1.2097999999523097,1.4480000000000075,2.1257999999523065,2.6767999999523227]",1,NNVL,4,0,4,0,1,,,,,,,,,,,,,,,,,,,,,,,,,,,,,,,,,,,,,,,,,,,,,,,,,,,,,,,,,,,,,,,,,,,,,,,,,,,,,,,,,,,,,,,,,,,
,,,,,,0,0,0,0,1,X V Q F H G B L J M P D K C T S W R N Z,60ec51c51a3158a50ded8a3e,19,Mężczyzna,2022-06-11_11h12.20.055,task,2021.1.4,Win32,60.0024001,6299f149e92ead563fba08ef,62a459983bd53e98fd04c88c,,,,,,,,,,,,,,,,,,,,,,,,,,,,,,,,,,,,,,,,,,,,,,,,,,,,,,,,,,,,,,,,,,,,,,,,,,,,,,,,,,,,,,,,,,,,,,,,,,,,,
,,,,,,1,0,1,0,1,X V Q F H G B L J M P D K C T S W R N Z,60ec51c51a3158a50ded8a3e,19,Mężczyzna,2022-06-11_11h12.20.055,task,2021.1.4,Win32,60.0024001,6299f149e92ead563fba08ef,62a459983bd53e98fd04c88c,,,,,,,,,,,,,,,,,,,,,,,,,,,,,,,,,,,,,,,,,,,,,,,,,,,,,,,,,,,,,,,,,,,,,,,,,,,,,,,,,,,,,,,,,,,,,,,,,,,,,
,,,,,,2,0,2,0,1,X V Q F H G B L J M P D K C T S W R N Z,60ec51c51a3158a50ded8a3e,19,Mężczyzna,2022-06-11_11h12.20.055,task,2021.1.4,Win32,60.0024001,6299f149e92ead563fba08ef,62a459983bd53e98fd04c88c,,,,,,,,,,,,,,,,,,,,,,,,,,,,,,,,,,,,,,,,,,,,,,,,,,,,,,,,,,,,,,,,,,,,,,,,,,,,,,,,,,,,,,,,,,,,,,,,,,,,,
,,,,,,3,0,3,0,1,X V Q F H G B L J M P D K C T S W R N Z,60ec51c51a3158a50ded8a3e,19,Mężczyzna,2022-06-11_11h12.20.055,task,2021.1.4,Win32,60.0024001,6299f149e92ead563fba08ef,62a459983bd53e98fd04c88c,,,,,,,,,,,,,,,,,,,,,,,,,,,,,,,,,,,,,,,,,,,,,,,,,,,,,,,,,,,,,,,,,,,,,,,,,,,,,,,,,,,,,,,,,,,,,,,,,,,,,
,,,,,,,,,,,,60ec51c51a3158a50ded8a3e,19,Mężczyzna,2022-06-11_11h12.20.055,task,2021.1.4,Win32,60.0024001,6299f149e92ead563fba08ef,62a459983bd53e98fd04c88c,wsrr,"[""w"",""s"",""r"",""r""]","[0.45400000000000773,0.7114000000357805,0.9625000000000057,1.1465000000000032,1.6381000000238544]",1,WSRR,5,0,5,0,1,,,,,,,,,,,,,,,,,,,,,,,,,,,,,,,,,,,,,,,,,,,,,,,,,,,,,,,,,,,,,,,,,,,,,,,,,,,,,,,,,,,,,,,,,,,
,,,,,,0,0,0,0,1,X V Q F H G B L J M P D K C T S W R N Z,60ec51c51a3158a50ded8a3e,19,Mężczyzna,2022-06-11_11h12.20.055,task,2021.1.4,Win32,60.0024001,6299f149e92ead563fba08ef,62a459983bd53e98fd04c88c,,,,,,,,,,,,,,,,,,,,,,,,,,,,,,,,,,,,,,,,,,,,,,,,,,,,,,,,,,,,,,,,,,,,,,,,,,,,,,,,,,,,,,,,,,,,,,,,,,,,,
,,,,,,1,0,1,0,1,X V Q F H G B L J M P D K C T S W R N Z,60ec51c51a3158a50ded8a3e,19,Mężczyzna,2022-06-11_11h12.20.055,task,2021.1.4,Win32,60.0024001,6299f149e92ead563fba08ef,62a459983bd53e98fd04c88c,,,,,,,,,,,,,,,,,,,,,,,,,,,,,,,,,,,,,,,,,,,,,,,,,,,,,,,,,,,,,,,,,,,,,,,,,,,,,,,,,,,,,,,,,,,,,,,,,,,,,
,,,,,,2,0,2,0,1,X V Q F H G B L J M P D K C T S W R N Z,60ec51c51a3158a50ded8a3e,19,Mężczyzna,2022-06-11_11h12.20.055,task,2021.1.4,Win32,60.0024001,6299f149e92ead563fba08ef,62a459983bd53e98fd04c88c,,,,,,,,,,,,,,,,,,,,,,,,,,,,,,,,,,,,,,,,,,,,,,,,,,,,,,,,,,,,,,,,,,,,,,,,,,,,,,,,,,,,,,,,,,,,,,,,,,,,,
,,,,,,3,0,3,0,1,X V Q F H G B L J M P D K C T S W R N Z,60ec51c51a3158a50ded8a3e,19,Mężczyzna,2022-06-11_11h12.20.055,task,2021.1.4,Win32,60.0024001,6299f149e92ead563fba08ef,62a459983bd53e98fd04c88c,,,,,,,,,,,,,,,,,,,,,,,,,,,,,,,,,,,,,,,,,,,,,,,,,,,,,,,,,,,,,,,,,,,,,,,,,,,,,,,,,,,,,,,,,,,,,,,,,,,,,
,,,,,,4,0,4,0,1,X V Q F H G B L J M P D K C T S W R N Z,60ec51c51a3158a50ded8a3e,19,Mężczyzna,2022-06-11_11h12.20.055,task,2021.1.4,Win32,60.0024001,6299f149e92ead563fba08ef,62a459983bd53e98fd04c88c,,,,,,,,,,,,,,,,,,,,,,,,,,,,,,,,,,,,,,,,,,,,,,,,,,,,,,,,,,,,,,,,,,,,,,,,,,,,,,,,,,,,,,,,,,,,,,,,,,,,,
,,,,,,,,,,,,60ec51c51a3158a50ded8a3e,19,Mężczyzna,2022-06-11_11h12.20.055,task,2021.1.4,Win32,60.0024001,6299f149e92ead563fba08ef,62a459983bd53e98fd04c88c,rwcbg,"[""r"",""w"",""c"",""b"",""g""]","[0.9283000000119159,1.1089999999999804,1.4651000000238241,1.6569999999999823,1.874100000023816,2.2981000000238225]",1,RWCBG,6,0,6,0,1,,,,,,,,,,,,,,,,,,,,,,,,,,,,,,,,,,,,,,,,,,,,,,,,,,,,,,,,,,,,,,,,,,,,,,,,,,,,,,,,,,,,,,,,,,,
,,,,,,0,0,0,0,1,X V Q F H G B L J M P D K C T S W R N Z,60ec51c51a3158a50ded8a3e,19,Mężczyzna,2022-06-11_11h12.20.055,task,2021.1.4,Win32,60.0024001,6299f149e92ead563fba08ef,62a459983bd53e98fd04c88c,,,,,,,,,,,,,,,,,,,,,,,,,,,,,,,,,,,,,,,,,,,,,,,,,,,,,,,,,,,,,,,,,,,,,,,,,,,,,,,,,,,,,,,,,,,,,,,,,,,,,
,,,,,,1,0,1,0,1,X V Q F H G B L J M P D K C T S W R N Z,60ec51c51a3158a50ded8a3e,19,Mężczyzna,2022-06-11_11h12.20.055,task,2021.1.4,Win32,60.0024001,6299f149e92ead563fba08ef,62a459983bd53e98fd04c88c,,,,,,,,,,,,,,,,,,,,,,,,,,,,,,,,,,,,,,,,,,,,,,,,,,,,,,,,,,,,,,,,,,,,,,,,,,,,,,,,,,,,,,,,,,,,,,,,,,,,,
,,,,,,2,0,2,0,1,X V Q F H G B L J M P D K C T S W R N Z,60ec51c51a3158a50ded8a3e,19,Mężczyzna,2022-06-11_11h12.20.055,task,2021.1.4,Win32,60.0024001,6299f149e92ead563fba08ef,62a459983bd53e98fd04c88c,,,,,,,,,,,,,,,,,,,,,,,,,,,,,,,,,,,,,,,,,,,,,,,,,,,,,,,,,,,,,,,,,,,,,,,,,,,,,,,,,,,,,,,,,,,,,,,,,,,,,
,,,,,,3,0,3,0,1,X V Q F H G B L J M P D K C T S W R N Z,60ec51c51a3158a50ded8a3e,19,Mężczyzna,2022-06-11_11h12.20.055,task,2021.1.4,Win32,60.0024001,6299f149e92ead563fba08ef,62a459983bd53e98fd04c88c,,,,,,,,,,,,,,,,,,,,,,,,,,,,,,,,,,,,,,,,,,,,,,,,,,,,,,,,,,,,,,,,,,,,,,,,,,,,,,,,,,,,,,,,,,,,,,,,,,,,,
,,,,,,4,0,4,0,1,X V Q F H G B L J M P D K C T S W R N Z,60ec51c51a3158a50ded8a3e,19,Mężczyzna,2022-06-11_11h12.20.055,task,2021.1.4,Win32,60.0024001,6299f149e92ead563fba08ef,62a459983bd53e98fd04c88c,,,,,,,,,,,,,,,,,,,,,,,,,,,,,,,,,,,,,,,,,,,,,,,,,,,,,,,,,,,,,,,,,,,,,,,,,,,,,,,,,,,,,,,,,,,,,,,,,,,,,
,,,,,,,,,,,,60ec51c51a3158a50ded8a3e,19,Mężczyzna,2022-06-11_11h12.20.055,task,2021.1.4,Win32,60.0024001,6299f149e92ead563fba08ef,62a459983bd53e98fd04c88c,bvjww,"[""b"",""v"",""j"",""w"",""w""]","[2.1946999999880745,2.6593999999761593,2.9903999999761766,3.36280000001193,3.5933999999761568,4.494600000023837]",1,BVJWW,7,0,7,0,1,,,,,,,,,,,,,,,,,,,,,,,,,,,,,,,,,,,,,,,,,,,,,,,,,,,,,,,,,,,,,,,,,,,,,,,,,,,,,,,,,,,,,,,,,,,
,,,,,,0,0,0,0,1,X V Q F H G B L J M P D K C T S W R N Z,60ec51c51a3158a50ded8a3e,19,Mężczyzna,2022-06-11_11h12.20.055,task,2021.1.4,Win32,60.0024001,6299f149e92ead563fba08ef,62a459983bd53e98fd04c88c,,,,,,,,,,,,,,,,,,,,,,,,,,,,,,,,,,,,,,,,,,,,,,,,,,,,,,,,,,,,,,,,,,,,,,,,,,,,,,,,,,,,,,,,,,,,,,,,,,,,,
,,,,,,1,0,1,0,1,X V Q F H G B L J M P D K C T S W R N Z,60ec51c51a3158a50ded8a3e,19,Mężczyzna,2022-06-11_11h12.20.055,task,2021.1.4,Win32,60.0024001,6299f149e92ead563fba08ef,62a459983bd53e98fd04c88c,,,,,,,,,,,,,,,,,,,,,,,,,,,,,,,,,,,,,,,,,,,,,,,,,,,,,,,,,,,,,,,,,,,,,,,,,,,,,,,,,,,,,,,,,,,,,,,,,,,,,
,,,,,,2,0,2,0,1,X V Q F H G B L J M P D K C T S W R N Z,60ec51c51a3158a50ded8a3e,19,Mężczyzna,2022-06-11_11h12.20.055,task,2021.1.4,Win32,60.0024001,6299f149e92ead563fba08ef,62a459983bd53e98fd04c88c,,,,,,,,,,,,,,,,,,,,,,,,,,,,,,,,,,,,,,,,,,,,,,,,,,,,,,,,,,,,,,,,,,,,,,,,,,,,,,,,,,,,,,,,,,,,,,,,,,,,,
,,,,,,3,0,3,0,1,X V Q F H G B L J M P D K C T S W R N Z,60ec51c51a3158a50ded8a3e,19,Mężczyzna,2022-06-11_11h12.20.055,task,2021.1.4,Win32,60.0024001,6299f149e92ead563fba08ef,62a459983bd53e98fd04c88c,,,,,,,,,,,,,,,,,,,,,,,,,,,,,,,,,,,,,,,,,,,,,,,,,,,,,,,,,,,,,,,,,,,,,,,,,,,,,,,,,,,,,,,,,,,,,,,,,,,,,
,,,,,,4,0,4,0,1,X V Q F H G B L J M P D K C T S W R N Z,60ec51c51a3158a50ded8a3e,19,Mężczyzna,2022-06-11_11h12.20.055,task,2021.1.4,Win32,60.0024001,6299f149e92ead563fba08ef,62a459983bd53e98fd04c88c,,,,,,,,,,,,,,,,,,,,,,,,,,,,,,,,,,,,,,,,,,,,,,,,,,,,,,,,,,,,,,,,,,,,,,,,,,,,,,,,,,,,,,,,,,,,,,,,,,,,,
,,,,,,5,0,5,0,1,X V Q F H G B L J M P D K C T S W R N Z,60ec51c51a3158a50ded8a3e,19,Mężczyzna,2022-06-11_11h12.20.055,task,2021.1.4,Win32,60.0024001,6299f149e92ead563fba08ef,62a459983bd53e98fd04c88c,,,,,,,,,,,,,,,,,,,,,,,,,,,,,,,,,,,,,,,,,,,,,,,,,,,,,,,,,,,,,,,,,,,,,,,,,,,,,,,,,,,,,,,,,,,,,,,,,,,,,
,,,,,,,,,,,,60ec51c51a3158a50ded8a3e,19,Mężczyzna,2022-06-11_11h12.20.055,task,2021.1.4,Win32,60.0024001,6299f149e92ead563fba08ef,62a459983bd53e98fd04c88c,czxpr,"[""c"",""z"",""x"",""p"",""r""]","[0.18209999996423676,0.593899999976145,0.8928999999761515,1.8800999999642443,2.262899999976156,2.8887999999523117]",0,CZXPRW,8,0,8,0,1,,,,,,,,,,,,,,,,,,,,,,,,,,,,,,,,,,,,,,,,,,,,,,,,,,,,,,,,,,,,,,,,,,,,,,,,,,,,,,,,,,,,,,,,,,,
,,,,,,0,0,0,0,1,X V Q F H G B L J M P D K C T S W R N Z,60ec51c51a3158a50ded8a3e,19,Mężczyzna,2022-06-11_11h12.20.055,task,2021.1.4,Win32,60.0024001,6299f149e92ead563fba08ef,62a459983bd53e98fd04c88c,,,,,,,,,,,,,,,,,,,,,,,,,,,,,,,,,,,,,,,,,,,,,,,,,,,,,,,,,,,,,,,,,,,,,,,,,,,,,,,,,,,,,,,,,,,,,,,,,,,,,
,,,,,,1,0,1,0,1,X V Q F H G B L J M P D K C T S W R N Z,60ec51c51a3158a50ded8a3e,19,Mężczyzna,2022-06-11_11h12.20.055,task,2021.1.4,Win32,60.0024001,6299f149e92ead563fba08ef,62a459983bd53e98fd04c88c,,,,,,,,,,,,,,,,,,,,,,,,,,,,,,,,,,,,,,,,,,,,,,,,,,,,,,,,,,,,,,,,,,,,,,,,,,,,,,,,,,,,,,,,,,,,,,,,,,,,,
,,,,,,2,0,2,0,1,X V Q F H G B L J M P D K C T S W R N Z,60ec51c51a3158a50ded8a3e,19,Mężczyzna,2022-06-11_11h12.20.055,task,2021.1.4,Win32,60.0024001,6299f149e92ead563fba08ef,62a459983bd53e98fd04c88c,,,,,,,,,,,,,,,,,,,,,,,,,,,,,,,,,,,,,,,,,,,,,,,,,,,,,,,,,,,,,,,,,,,,,,,,,,,,,,,,,,,,,,,,,,,,,,,,,,,,,
,,,,,,3,0,3,0,1,X V Q F H G B L J M P D K C T S W R N Z,60ec51c51a3158a50ded8a3e,19,Mężczyzna,2022-06-11_11h12.20.055,task,2021.1.4,Win32,60.0024001,6299f149e92ead563fba08ef,62a459983bd53e98fd04c88c,,,,,,,,,,,,,,,,,,,,,,,,,,,,,,,,,,,,,,,,,,,,,,,,,,,,,,,,,,,,,,,,,,,,,,,,,,,,,,,,,,,,,,,,,,,,,,,,,,,,,
,,,,,,4,0,4,0,1,X V Q F H G B L J M P D K C T S W R N Z,60ec51c51a3158a50ded8a3e,19,Mężczyzna,2022-06-11_11h12.20.055,task,2021.1.4,Win32,60.0024001,6299f149e92ead563fba08ef,62a459983bd53e98fd04c88c,,,,,,,,,,,,,,,,,,,,,,,,,,,,,,,,,,,,,,,,,,,,,,,,,,,,,,,,,,,,,,,,,,,,,,,,,,,,,,,,,,,,,,,,,,,,,,,,,,,,,
,,,,,,5,0,5,0,1,X V Q F H G B L J M P D K C T S W R N Z,60ec51c51a3158a50ded8a3e,19,Mężczyzna,2022-06-11_11h12.20.055,task,2021.1.4,Win32,60.0024001,6299f149e92ead563fba08ef,62a459983bd53e98fd04c88c,,,,,,,,,,,,,,,,,,,,,,,,,,,,,,,,,,,,,,,,,,,,,,,,,,,,,,,,,,,,,,,,,,,,,,,,,,,,,,,,,,,,,,,,,,,,,,,,,,,,,
,,,,,,,,,,,,60ec51c51a3158a50ded8a3e,19,Mężczyzna,2022-06-11_11h12.20.055,task,2021.1.4,Win32,60.0024001,6299f149e92ead563fba08ef,62a459983bd53e98fd04c88c,bkttwq,"[""b"",""k"",""t"",""t"",""w"",""q""]","[0.8077000000477028,1.6053000000119368,2.32440000003578,2.622800000011921,2.9765000000000157,3.2058000000119193,4.094400000035762]",1,BKTTWQ,9,0,9,0,1,,,,,,,,,,,,,,,,,,,,,,,,,,,,,,,,,,,,,,,,,,,,,,,,,,,,,,,,,,,,,,,,,,,,,,,,,,,,,,,,,,,,,,,,,,,
,,,,,,0,0,0,0,1,X V Q F H G B L J M P D K C T S W R N Z,60ec51c51a3158a50ded8a3e,19,Mężczyzna,2022-06-11_11h12.20.055,task,2021.1.4,Win32,60.0024001,6299f149e92ead563fba08ef,62a459983bd53e98fd04c88c,,,,,,,,,,,,,,,,,,,,,,,,,,,,,,,,,,,,,,,,,,,,,,,,,,,,,,,,,,,,,,,,,,,,,,,,,,,,,,,,,,,,,,,,,,,,,,,,,,,,,
,,,,,,1,0,1,0,1,X V Q F H G B L J M P D K C T S W R N Z,60ec51c51a3158a50ded8a3e,19,Mężczyzna,2022-06-11_11h12.20.055,task,2021.1.4,Win32,60.0024001,6299f149e92ead563fba08ef,62a459983bd53e98fd04c88c,,,,,,,,,,,,,,,,,,,,,,,,,,,,,,,,,,,,,,,,,,,,,,,,,,,,,,,,,,,,,,,,,,,,,,,,,,,,,,,,,,,,,,,,,,,,,,,,,,,,,
,,,,,,2,0,2,0,1,X V Q F H G B L J M P D K C T S W R N Z,60ec51c51a3158a50ded8a3e,19,Mężczyzna,2022-06-11_11h12.20.055,task,2021.1.4,Win32,60.0024001,6299f149e92ead563fba08ef,62a459983bd53e98fd04c88c,,,,,,,,,,,,,,,,,,,,,,,,,,,,,,,,,,,,,,,,,,,,,,,,,,,,,,,,,,,,,,,,,,,,,,,,,,,,,,,,,,,,,,,,,,,,,,,,,,,,,
,,,,,,3,0,3,0,1,X V Q F H G B L J M P D K C T S W R N Z,60ec51c51a3158a50ded8a3e,19,Mężczyzna,2022-06-11_11h12.20.055,task,2021.1.4,Win32,60.0024001,6299f149e92ead563fba08ef,62a459983bd53e98fd04c88c,,,,,,,,,,,,,,,,,,,,,,,,,,,,,,,,,,,,,,,,,,,,,,,,,,,,,,,,,,,,,,,,,,,,,,,,,,,,,,,,,,,,,,,,,,,,,,,,,,,,,
,,,,,,4,0,4,0,1,X V Q F H G B L J M P D K C T S W R N Z,60ec51c51a3158a50ded8a3e,19,Mężczyzna,2022-06-11_11h12.20.055,task,2021.1.4,Win32,60.0024001,6299f149e92ead563fba08ef,62a459983bd53e98fd04c88c,,,,,,,,,,,,,,,,,,,,,,,,,,,,,,,,,,,,,,,,,,,,,,,,,,,,,,,,,,,,,,,,,,,,,,,,,,,,,,,,,,,,,,,,,,,,,,,,,,,,,
,,,,,,5,0,5,0,1,X V Q F H G B L J M P D K C T S W R N Z,60ec51c51a3158a50ded8a3e,19,Mężczyzna,2022-06-11_11h12.20.055,task,2021.1.4,Win32,60.0024001,6299f149e92ead563fba08ef,62a459983bd53e98fd04c88c,,,,,,,,,,,,,,,,,,,,,,,,,,,,,,,,,,,,,,,,,,,,,,,,,,,,,,,,,,,,,,,,,,,,,,,,,,,,,,,,,,,,,,,,,,,,,,,,,,,,,
,,,,,,,,,,,,60ec51c51a3158a50ded8a3e,19,Mężczyzna,2022-06-11_11h12.20.055,task,2021.1.4,Win32,60.0024001,6299f149e92ead563fba08ef,62a459983bd53e98fd04c88c,skfzzw,"[""s"",""k"",""f"",""z"",""z"",""w""]","[0.7223000000119271,1.6558000000119364,2.2056999999880986,2.579699999988094,2.777800000011922,3.058599999964258,3.846800000011939]",0,SKFZZM,10,0,10,0,1,,,,,,,,,,,,,,,,,,,,,,,,,,,,,,,,,,,,,,,,,,,,,,,,,,,,,,,,,,,,,,,,,,,,,,,,,,,,,,,,,,,,,,,,,,,
,,,,,,0,0,0,0,1,X V Q F H G B L J M P D K C T S W R N Z,60ec51c51a3158a50ded8a3e,19,Mężczyzna,2022-06-11_11h12.20.055,task,2021.1.4,Win32,60.0024001,6299f149e92ead563fba08ef,62a459983bd53e98fd04c88c,,,,,,,,,,,,,,,,,,,,,,,,,,,,,,,,,,,,,,,,,,,,,,,,,,,,,,,,,,,,,,,,,,,,,,,,,,,,,,,,,,,,,,,,,,,,,,,,,,,,,
,,,,,,1,0,1,0,1,X V Q F H G B L J M P D K C T S W R N Z,60ec51c51a3158a50ded8a3e,19,Mężczyzna,2022-06-11_11h12.20.055,task,2021.1.4,Win32,60.0024001,6299f149e92ead563fba08ef,62a459983bd53e98fd04c88c,,,,,,,,,,,,,,,,,,,,,,,,,,,,,,,,,,,,,,,,,,,,,,,,,,,,,,,,,,,,,,,,,,,,,,,,,,,,,,,,,,,,,,,,,,,,,,,,,,,,,
,,,,,,2,0,2,0,1,X V Q F H G B L J M P D K C T S W R N Z,60ec51c51a3158a50ded8a3e,19,Mężczyzna,2022-06-11_11h12.20.055,task,2021.1.4,Win32,60.0024001,6299f149e92ead563fba08ef,62a459983bd53e98fd04c88c,,,,,,,,,,,,,,,,,,,,,,,,,,,,,,,,,,,,,,,,,,,,,,,,,,,,,,,,,,,,,,,,,,,,,,,,,,,,,,,,,,,,,,,,,,,,,,,,,,,,,
,,,,,,3,0,3,0,1,X V Q F H G B L J M P D K C T S W R N Z,60ec51c51a3158a50ded8a3e,19,Mężczyzna,2022-06-11_11h12.20.055,task,2021.1.4,Win32,60.0024001,6299f149e92ead563fba08ef,62a459983bd53e98fd04c88c,,,,,,,,,,,,,,,,,,,,,,,,,,,,,,,,,,,,,,,,,,,,,,,,,,,,,,,,,,,,,,,,,,,,,,,,,,,,,,,,,,,,,,,,,,,,,,,,,,,,,
,,,,,,4,0,4,0,1,X V Q F H G B L J M P D K C T S W R N Z,60ec51c51a3158a50ded8a3e,19,Mężczyzna,2022-06-11_11h12.20.055,task,2021.1.4,Win32,60.0024001,6299f149e92ead563fba08ef,62a459983bd53e98fd04c88c,,,,,,,,,,,,,,,,,,,,,,,,,,,,,,,,,,,,,,,,,,,,,,,,,,,,,,,,,,,,,,,,,,,,,,,,,,,,,,,,,,,,,,,,,,,,,,,,,,,,,
,,,,,,5,0,5,0,1,X V Q F H G B L J M P D K C T S W R N Z,60ec51c51a3158a50ded8a3e,19,Mężczyzna,2022-06-11_11h12.20.055,task,2021.1.4,Win32,60.0024001,6299f149e92ead563fba08ef,62a459983bd53e98fd04c88c,,,,,,,,,,,,,,,,,,,,,,,,,,,,,,,,,,,,,,,,,,,,,,,,,,,,,,,,,,,,,,,,,,,,,,,,,,,,,,,,,,,,,,,,,,,,,,,,,,,,,
,,,,,,,,,,,,60ec51c51a3158a50ded8a3e,19,Mężczyzna,2022-06-11_11h12.20.055,task,2021.1.4,Win32,60.0024001,6299f149e92ead563fba08ef,62a459983bd53e98fd04c88c,wglrk,"[""w"",""g"",""l"",""r"",""k""]","[1.655800000011908,2.2228000000119152,2.6063999999761336,2.9333000000119114,3.247699999988072,3.9735000000000014]",0,WGLRJK,11,0,11,0,1,,,,,,,,,,,,,,,,,,,,,,,,,,,,,,,,,,,,,,,,,,,,,,,,,,,,,,,,,,,,,,,,,,,,,,,,,,,,,,,,,,,,,,,,,,,
,,,,,,,,,,,,60ec51c51a3158a50ded8a3e,19,Mężczyzna,2022-06-11_11h12.20.055,task,2021.1.4,Win32,60.0024001,6299f149e92ead563fba08ef,62a459983bd53e98fd04c88c,,,,,,,,,,,space,18.725,6,"[""6""]",1,[3.8669999999999902],[3.8669999999999902],0,0,0,6,1,Practice,7,(25/5) + 1,6,,,,,,,,,,,,,,,,,,,,,,,,,,,,,,,,,,,,,,,,,,,,,,,,,,,,,,,,,,,,,,,,,,,,,,,,,,,
,,,,,,,,,,,,60ec51c51a3158a50ded8a3e,19,Mężczyzna,2022-06-11_11h12.20.055,task,2021.1.4,Win32,60.0024001,6299f149e92ead563fba08ef,62a459983bd53e98fd04c88c,,,,,,,,,,,,,9,"[""9""]",1,[2.126400000035744],"[3.8669999999999902,2.126400000035744]",0,1,1,9,1,Practice,10,(20/2) - 1,9,,,,,,,,,,,,,,,,,,,,,,,,,,,,,,,,,,,,,,,,,,,,,,,,,,,,,,,,,,,,,,,,,,,,,,,,,,,
,,,,,,,,,,,,60ec51c51a3158a50ded8a3e,19,Mężczyzna,2022-06-11_11h12.20.055,task,2021.1.4,Win32,60.0024001,6299f149e92ead563fba08ef,62a459983bd53e98fd04c88c,,,,,,,,,,,,,3,"[""3""]",1,[1.8534000000357764],"[3.8669999999999902,2.126400000035744,1.8534000000357764]",0,2,2,3,1,Practice,4,(8/4) + 1,3,,,,,,,,,,,,,,,,,,,,,,,,,,,,,,,,,,,,,,,,,,,,,,,,,,,,,,,,,,,,,,,,,,,,,,,,,,,
,,,,,,,,,,,,60ec51c51a3158a50ded8a3e,19,Mężczyzna,2022-06-11_11h12.20.055,task,2021.1.4,Win32,60.0024001,6299f149e92ead563fba08ef,62a459983bd53e98fd04c88c,,,,,,,,,,,,,1,"[""1""]",1,[1.6641999999880568],"[3.8669999999999902,2.126400000035744,1.8534000000357764,1.6641999999880568]",0,3,3,1,1,Practice,2,(4x4) - 15,1,,,,,,,,,,,,,,,,,,,,,,,,,,,,,,,,,,,,,,,,,,,,,,,,,,,,,,,,,,,,,,,,,,,,,,,,,,,
,,,,,,,,,,,,60ec51c51a3158a50ded8a3e,19,Mężczyzna,2022-06-11_11h12.20.055,task,2021.1.4,Win32,60.0024001,6299f149e92ead563fba08ef,62a459983bd53e98fd04c88c,,,,,,,,,,,,,7,"[""7""]",1,[1.8389000000357498],"[3.8669999999999902,2.126400000035744,1.8534000000357764,1.6641999999880568,1.8389000000357498]",0,4,4,7,1,Practice,8,(5x5) - 18,7,,,,,,,,,,,,,,,,,,,,,,,,,,,,,,,,,,,,,,,,,,,,,,,,,,,,,,,,,,,,,,,,,,,,,,,,,,,
,,,,,,,,,,,,60ec51c51a3158a50ded8a3e,19,Mężczyzna,2022-06-11_11h12.20.055,task,2021.1.4,Win32,60.0024001,6299f149e92ead563fba08ef,62a459983bd53e98fd04c88c,,,,,,,,,,,,,8,"[""8""]",1,[1.4892000000476742],"[3.8669999999999902,2.126400000035744,1.8534000000357764,1.6641999999880568,1.8389000000357498,1.4892000000476742]",0,5,5,8,1,Practice,9,(3x3) - 1,8,,,,,,,,,,,,,,,,,,,,,,,,,,,,,,,,,,,,,,,,,,,,,,,,,,,,,,,,,,,,,,,,,,,,,,,,,,,
,,,,,,,,,,,,60ec51c51a3158a50ded8a3e,19,Mężczyzna,2022-06-11_11h12.20.055,task,2021.1.4,Win32,60.0024001,6299f149e92ead563fba08ef,62a459983bd53e98fd04c88c,,,,,,,,,,,,,4,"[""4""]",1,[2.9936000000238323],"[3.8669999999999902,2.126400000035744,1.8534000000357764,1.6641999999880568,1.8389000000357498,1.4892000000476742,2.9936000000238323]",0,6,6,4,1,Practice,5,(2x6) - 8,4,,,,,,,,,,,,,,,,,,,,,,,,,,,,,,,,,,,,,,,,,,,,,,,,,,,,,,,,,,,,,,,,,,,,,,,,,,,
,,,,,,,,,,,,60ec51c51a3158a50ded8a3e,19,Mężczyzna,2022-06-11_11h12.20.055,task,2021.1.4,Win32,60.0024001,6299f149e92ead563fba08ef,62a459983bd53e98fd04c88c,,,,,,,,,,,,,5,"[""5""]",1,[2.074199999988082],"[3.8669999999999902,2.126400000035744,1.8534000000357764,1.6641999999880568,1.8389000000357498,1.4892000000476742,2.9936000000238323,2.074199999988082]",0,7,7,5,1,Practice,6,(4/2) + 3,5,,,,,,,,,,,,,,,,,,,,,,,,,,,,,,,,,,,,,,,,,,,,,,,,,,,,,,,,,,,,,,,,,,,,,,,,,,,
,,,,,,,,,,,,60ec51c51a3158a50ded8a3e,19,Mężczyzna,2022-06-11_11h12.20.055,task,2021.1.4,Win32,60.0024001,6299f149e92ead563fba08ef,62a459983bd53e98fd04c88c,,,,,,,,,,,,,0,"[""0""]",1,[1.8254999999999768],"[3.8669999999999902,2.126400000035744,1.8534000000357764,1.6641999999880568,1.8389000000357498,1.4892000000476742,2.9936000000238323,2.074199999988082,1.8254999999999768]",0,8,8,0,1,Practice,1,(3x3) -  9,0,,,,,,,,,,,,,,,,,,,,,,,,,,,,,,,,,,,,,,,,,,,,,,,,,,,,,,,,,,,,,,,,,,,,,,,,,,,
,,,,,,,,,,,,60ec51c51a3158a50ded8a3e,19,Mężczyzna,2022-06-11_11h12.20.055,task,2021.1.4,Win32,60.0024001,6299f149e92ead563fba08ef,62a459983bd53e98fd04c88c,,,,,,,,,,,,,2,"[""2""]",1,[1.8393999999761945],"[3.8669999999999902,2.126400000035744,1.8534000000357764,1.6641999999880568,1.8389000000357498,1.4892000000476742,2.9936000000238323,2.074199999988082,1.8254999999999768,1.8393999999761945]",0,9,9,2,1,Practice,3,(4x4) - 14,2,,,,,,,,,,,,,,,,,,,,,,,,,,,,,,,,,,,,,,,,,,,,,,,,,,,,,,,,,,,,,,,,,,,,,,,,,,,
,,,,,,,,,,,,60ec51c51a3158a50ded8a3e,19,Mężczyzna,2022-06-11_11h12.20.055,task,2021.1.4,Win32,60.0024001,6299f149e92ead563fba08ef,62a459983bd53e98fd04c88c,,,,,,,,,,,,,,,,,,,,,,,,,,,1,21.5718,1.43812,9.895195532,0.812206687,3.533613252,space,1.8608,0,0,0,0,1,,,,,,,,,,,,,,,,,,,,,,,,,,,,,,,,,,,,,,,,,,,,,,,,,,,,,,,,,,,,,,
,,,,,,,,,,,,60ec51c51a3158a50ded8a3e,19,Mężczyzna,2022-06-11_11h12.20.055,task,2021.1.4,Win32,60.0024001,6299f149e92ead563fba08ef,62a459983bd53e98fd04c88c,,,,,,,,,,,,,0,,,,,,,,,,Practice,1,(3x3) -  9,0,,,,,,,,,,,,,,space,28.0269,"[""0""]",1,[2.8234999999999673],1,0,0,0,0,1,,,,,,,,,,,,,,,,,,,,,,,,,,,,,,,,,,,,,,,,,,,,,,,,,,,
,,,,,,,,,,,X V Q F H G B L J M P D K C T S W R N Z,60ec51c51a3158a50ded8a3e,19,Mężczyzna,2022-06-11_11h12.20.055,task,2021.1.4,Win32,60.0024001,6299f149e92ead563fba08ef,62a459983bd53e98fd04c88c,,,,,,,,,,,,,,,,,,,,,,,,,,,,,,,,,,,,,,,,,,,,,,,,,,,0,0,0,0,1,,,,,,,,,,,,,,,,,,,,,,,,,,,,,,,,,,,,,,,,,,,,,,
,,,,,,,,,,,,60ec51c51a3158a50ded8a3e,19,Mężczyzna,2022-06-11_11h12.20.055,task,2021.1.4,Win32,60.0024001,6299f149e92ead563fba08ef,62a459983bd53e98fd04c88c,,,,,,,,,,,,,6,,,,,,,,,,Practice,7,(25/5) + 1,6,,,,,,,,,,,,,,,,"[""6""]",1,[2.454499999999996],1,0,0,0,6,1,,,,,,,,,,,,,,,,,,,,,,,,,,,,,,,,,,,,,,,,,,,,,,,,,,,
,,,,,,,,,,,X V Q F H G B L J M P D K C T S W R N Z,60ec51c51a3158a50ded8a3e,19,Mężczyzna,2022-06-11_11h12.20.055,task,2021.1.4,Win32,60.0024001,6299f149e92ead563fba08ef,62a459983bd53e98fd04c88c,,,,,,,,,,,,,,,,,,,,,,,,,,,,,,,,,,,,,,,,,,,,,,,,,,,1,0,1,0,1,,,,,,,,,,,,,,,,,,,,,,,,,,,,,,,,,,,,,,,,,,,,,,
,,,,,,,,,,,,60ec51c51a3158a50ded8a3e,19,Mężczyzna,2022-06-11_11h12.20.055,task,2021.1.4,Win32,60.0024001,6299f149e92ead563fba08ef,62a459983bd53e98fd04c88c,,,,,,,,,,,,,,,,,,,,,,,,,,,,,,,,,,,,,,,,,,,,,,,,,,,,,,,,zr,"[""z"",""r""]",0,"[1.8130999999642086,2.0543999999761127,2.3149999999999977]",1,0,0,0,0,1,,,,,,,,,,,,,,,,,,,,,,,,,,,,,,,,,,,,
,,,,,,,,,,,,60ec51c51a3158a50ded8a3e,19,Mężczyzna,2022-06-11_11h12.20.055,task,2021.1.4,Win32,60.0024001,6299f149e92ead563fba08ef,62a459983bd53e98fd04c88c,,,,,,,,,,,,,1,,,,,,,,,,Practice,2,(4x4) - 15,1,,,,,,,,,,,,,,,,"[""1""]",1,[1.3106000000238396],1,0,0,0,1,1,,,,,,,,,,,,,,,,,,,,,,,,,,,,,,,,,,,,,,,,,,,,,,,,,,,
,,,,,,,,,,,X V Q F H G B L J M P D K C T S W R N Z,60ec51c51a3158a50ded8a3e,19,Mężczyzna,2022-06-11_11h12.20.055,task,2021.1.4,Win32,60.0024001,6299f149e92ead563fba08ef,62a459983bd53e98fd04c88c,,,,,,,,,,,,,,,,,,,,,,,,,,,,,,,,,,,,,,,,,,,,,,,,,,,0,0,0,0,1,,,,,,,,,,,,,,,,,,,,,,,,,,,,,,,,,,,,,,,,,,,,,,
,,,,,,,,,,,,60ec51c51a3158a50ded8a3e,19,Mężczyzna,2022-06-11_11h12.20.055,task,2021.1.4,Win32,60.0024001,6299f149e92ead563fba08ef,62a459983bd53e98fd04c88c,,,,,,,,,,,,,7,,,,,,,,,,Practice,8,(5x5) - 18,7,,,,,,,,,,,,,,,,"[""7""]",1,[2.5393000000119628],1,0,0,0,7,1,,,,,,,,,,,,,,,,,,,,,,,,,,,,,,,,,,,,,,,,,,,,,,,,,,,
,,,,,,,,,,,X V Q F H G B L J M P D K C T S W R N Z,60ec51c51a3158a50ded8a3e,19,Mężczyzna,2022-06-11_11h12.20.055,task,2021.1.4,Win32,60.0024001,6299f149e92ead563fba08ef,62a459983bd53e98fd04c88c,,,,,,,,,,,,,,,,,,,,,,,,,,,,,,,,,,,,,,,,,,,,,,,,,,,1,0,1,0,1,,,,,,,,,,,,,,,,,,,,,,,,,,,,,,,,,,,,,,,,,,,,,,
,,,,,,,,,,,,60ec51c51a3158a50ded8a3e,19,Mężczyzna,2022-06-11_11h12.20.055,task,2021.1.4,Win32,60.0024001,6299f149e92ead563fba08ef,62a459983bd53e98fd04c88c,,,,,,,,,,,,,,,,,,,,,,,,,,,,,,,,,,,,,,,,,,,,,,,,,,,,,,,,hq,"[""h"",""q""]",0,"[1.8718000000119446,2.1076999999880854,2.4628000000119528]",1,1,0,1,0,1,,,,,,,,,,,,,,,,,,,,,,,,,,,,,,,,,,,,
,,,,,,,,,,,,60ec51c51a3158a50ded8a3e,19,Mężczyzna,2022-06-11_11h12.20.055,task,2021.1.4,Win32,60.0024001,6299f149e92ead563fba08ef,62a459983bd53e98fd04c88c,,,,,,,,,,,,,,,,,,,,,,,Practice,2,(4x4) - 15,1,,,,,,,,,,,,,,,,,0,,0,0,0,0,1,1,,,,,,,,,,,,,,,,,,,,,,,,,,,,,,,,,,,,,,,,,,,,,,,,,,,
,,,,,,,,,,,,60ec51c51a3158a50ded8a3e,19,Mężczyzna,2022-06-11_11h12.20.055,task,2021.1.4,Win32,60.0024001,6299f149e92ead563fba08ef,62a459983bd53e98fd04c88c,,,,,,,,,,,,,9,,,,,,,,,,Practice,10,(20/2) - 1,9,,,,,,,,,,,,,,,,"[""9""]",1,[2.4098000000119555],1,0,1,1,9,1,,,,,,,,,,,,,,,,,,,,,,,,,,,,,,,,,,,,,,,,,,,,,,,,,,,
,,,,,,,,,,,X V Q F H G B L J M P D K C T S W R N Z,60ec51c51a3158a50ded8a3e,19,Mężczyzna,2022-06-11_11h12.20.055,task,2021.1.4,Win32,60.0024001,6299f149e92ead563fba08ef,62a459983bd53e98fd04c88c,,,,,,,,,,,,,,,,,,,,,,,,,,,,,,,,,,,,,,,,,,,,,,,,,,,0,0,0,0,1,,,,,,,,,,,,,,,,,,,,,,,,,,,,,,,,,,,,,,,,,,,,,,
,,,,,,,,,,,,60ec51c51a3158a50ded8a3e,19,Mężczyzna,2022-06-11_11h12.20.055,task,2021.1.4,Win32,60.0024001,6299f149e92ead563fba08ef,62a459983bd53e98fd04c88c,,,,,,,,,,,,,1,,,,,,,,,,Practice,2,(4x4) - 15,1,,,,,,,,,,,,,,,,"[""1""]",1,[1.755199999988065],1,0,0,0,1,1,,,,,,,,,,,,,,,,,,,,,,,,,,,,,,,,,,,,,,,,,,,,,,,,,,,
,,,,,,,,,,,X V Q F H G B L J M P D K C T S W R N Z,60ec51c51a3158a50ded8a3e,19,Mężczyzna,2022-06-11_11h12.20.055,task,2021.1.4,Win32,60.0024001,6299f149e92ead563fba08ef,62a459983bd53e98fd04c88c,,,,,,,,,,,,,,,,,,,,,,,,,,,,,,,,,,,,,,,,,,,,,,,,,,,1,0,1,0,1,,,,,,,,,,,,,,,,,,,,,,,,,,,,,,,,,,,,,,,,,,,,,,
,,,,,,,,,,,,60ec51c51a3158a50ded8a3e,19,Mężczyzna,2022-06-11_11h12.20.055,task,2021.1.4,Win32,60.0024001,6299f149e92ead563fba08ef,62a459983bd53e98fd04c88c,,,,,,,,,,,,,,,,,,,,,,,,,,,,,,,,,,,,,,,,,,,,,,,,,,,,,,,,zm,"[""z"",""m""]",0,"[1.5791999999880773,1.7491999999880363,2.1970000000000027]",1,2,0,2,0,1,,,,,,,,,,,,,,,,,,,,,,,,,,,,,,,,,,,,
,,,,,,,,,,,,60ec51c51a3158a50ded8a3e,19,Mężczyzna,2022-06-11_11h12.20.055,task,2021.1.4,Win32,60.0024001,6299f149e92ead563fba08ef,62a459983bd53e98fd04c88c,,,,,,,,,,,,,6,,,,,,,,,,Task,30,(6/3) + 4 ,6,,,,,,,,,,,,,,,,,,,1,,,,,,,,,,,,,,,,,,,,,space,164.4146,"[""6""]",1,[2.645199999988108],0,0,0,29,1,,,,,,,,,,,,,,,,,,,,,,,,,,
,,,,,,,,,,,X V Q F H G B L J M P D K C T S W R N Z,60ec51c51a3158a50ded8a3e,19,Mężczyzna,2022-06-11_11h12.20.055,task,2021.1.4,Win32,60.0024001,6299f149e92ead563fba08ef,62a459983bd53e98fd04c88c,,,,,,,,,,,,,,,,,,,,,,,,,,,,,,,,,,,,,,,,,,,,,,,,,,,,,,,,,,,,,,,,,,,,,,,,,,,,0,0,0,0,1,,,,,,,,,,,,,,,,,,,,,
,,,,,,,,,,,,60ec51c51a3158a50ded8a3e,19,Mężczyzna,2022-06-11_11h12.20.055,task,2021.1.4,Win32,60.0024001,6299f149e92ead563fba08ef,62a459983bd53e98fd04c88c,,,,,,,,,,,,,8,,,,,,,,,,Task,23,(2x3) + 2,8,,,,,,,,,,,,,,,,,,,1,,,,,,,,,,,,,,,,,,,,,,,"[""8""]",1,[1.9731000000238055],0,0,0,22,1,,,,,,,,,,,,,,,,,,,,,,,,,,
,,,,,,,,,,,X V Q F H G B L J M P D K C T S W R N Z,60ec51c51a3158a50ded8a3e,19,Mężczyzna,2022-06-11_11h12.20.055,task,2021.1.4,Win32,60.0024001,6299f149e92ead563fba08ef,62a459983bd53e98fd04c88c,,,,,,,,,,,,,,,,,,,,,,,,,,,,,,,,,,,,,,,,,,,,,,,,,,,,,,,,,,,,,,,,,,,,,,,,,,,,1,0,1,0,1,,,,,,,,,,,,,,,,,,,,,
,,,,,,,,,,,,60ec51c51a3158a50ded8a3e,19,Mężczyzna,2022-06-11_11h12.20.055,task,2021.1.4,Win32,60.0024001,6299f149e92ead563fba08ef,62a459983bd53e98fd04c88c,,,,,,,,,,,,,,,,,,,,,,,,,,,,,,,,,,,,,,,,,,,,,,,,,,,,,,,,,,,,,,,,,,,,,,,,,,,,,,,,,zx,"[""z"",""x""]",0,"[1.8058000000119137,2.03839999997615,2.2899999999999636]",1,ZX,0,0,0,0,1,,,,,,,,,,
,,,,,,,,,,,,60ec51c51a3158a50ded8a3e,19,Mężczyzna,2022-06-11_11h12.20.055,task,2021.1.4,Win32,60.0024001,6299f149e92ead563fba08ef,62a459983bd53e98fd04c88c,,,,,,,,,,,,,3,,,,,,,,,,Task,20,(18/9) + 1,3,,,,,,,,,,,,,,,,,,,1,,,,,,,,,,,,,,,,,,,,,,,"[""3""]",1,[2.0227999999523263],0,0,0,19,1,,,,,,,,,,,,,,,,,,,,,,,,,,
,,,,,,,,,,,X V Q F H G B L J M P D K C T S W R N Z,60ec51c51a3158a50ded8a3e,19,Mężczyzna,2022-06-11_11h12.20.055,task,2021.1.4,Win32,60.0024001,6299f149e92ead563fba08ef,62a459983bd53e98fd04c88c,,,,,,,,,,,,,,,,,,,,,,,,,,,,,,,,,,,,,,,,,,,,,,,,,,,,,,,,,,,,,,,,,,,,,,,,,,,,0,0,0,0,1,,,,,,,,,,,,,,,,,,,,,
,,,,,,,,,,,,60ec51c51a3158a50ded8a3e,19,Mężczyzna,2022-06-11_11h12.20.055,task,2021.1.4,Win32,60.0024001,6299f149e92ead563fba08ef,62a459983bd53e98fd04c88c,,,,,,,,,,,,,3,,,,,,,,,,Task,25,(10/5) - 2,0,,,,,,,,,,,,,,,,,,,0,,,,,,,,,,,,,,,,,,,,,,,"[""3""]",0,[2.138399999976059],0,0,0,24,1,,,,,,,,,,,,,,,,,,,,,,,,,,
,,,,,,,,,,,,60ec51c51a3158a50ded8a3e,19,Mężczyzna,2022-06-11_11h12.20.055,task,2021.1.4,Win32,60.0024001,6299f149e92ead563fba08ef,62a459983bd53e98fd04c88c,,,,,,,,,,,,,3,,,,,,,,,,Task,35,(1x2) + 1,3,,,,,,,,,,,,,,,,,,,1,,,,,,,,,,,,,,,,,,,,,,,"[""3""]",1,[2.453600000023812],0,1,1,34,1,,,,,,,,,,,,,,,,,,,,,,,,,,
,,,,,,,,,,,X V Q F H G B L J M P D K C T S W R N Z,60ec51c51a3158a50ded8a3e,19,Mężczyzna,2022-06-11_11h12.20.055,task,2021.1.4,Win32,60.0024001,6299f149e92ead563fba08ef,62a459983bd53e98fd04c88c,,,,,,,,,,,,,,,,,,,,,,,,,,,,,,,,,,,,,,,,,,,,,,,,,,,,,,,,,,,,,,,,,,,,,,,,,,,,1,0,1,0,1,,,,,,,,,,,,,,,,,,,,,
,,,,,,,,,,,,60ec51c51a3158a50ded8a3e,19,Mężczyzna,2022-06-11_11h12.20.055,task,2021.1.4,Win32,60.0024001,6299f149e92ead563fba08ef,62a459983bd53e98fd04c88c,,,,,,,,,,,,,0,,,,,,,,,,Task,17,(2x3) - 6,0,,,,,,,,,,,,,,,,,,,1,,,,,,,,,,,,,,,,,,,,,,,"[""0""]",1,[2.1872999999523017],0,0,0,16,1,,,,,,,,,,,,,,,,,,,,,,,,,,
,,,,,,,,,,,X V Q F H G B L J M P D K C T S W R N Z,60ec51c51a3158a50ded8a3e,19,Mężczyzna,2022-06-11_11h12.20.055,task,2021.1.4,Win32,60.0024001,6299f149e92ead563fba08ef,62a459983bd53e98fd04c88c,,,,,,,,,,,,,,,,,,,,,,,,,,,,,,,,,,,,,,,,,,,,,,,,,,,,,,,,,,,,,,,,,,,,,,,,,,,,2,0,2,0,1,,,,,,,,,,,,,,,,,,,,,
,,,,,,,,,,,,60ec51c51a3158a50ded8a3e,19,Mężczyzna,2022-06-11_11h12.20.055,task,2021.1.4,Win32,60.0024001,6299f149e92ead563fba08ef,62a459983bd53e98fd04c88c,,,,,,,,,,,,,,,,,,,,,,,,,,,,,,,,,,,,,,,,,,,,,,,,,,,,,,,,,,,,,,,,,,,,,,,,,,,,,,,,,jvg,"[""j"",""v"",""g""]",0,"[1.5233999999761636,1.7435999999642036,1.9733999999760954,2.522199999988061]",1,JVG,1,0,1,0,1,,,,,,,,,,
,,,,,,,,,,,,60ec51c51a3158a50ded8a3e,19,Mężczyzna,2022-06-11_11h12.20.055,task,2021.1.4,Win32,60.0024001,6299f149e92ead563fba08ef,62a459983bd53e98fd04c88c,,,,,,,,,,,,,6,,,,,,,,,,Task,30,(6/3) + 4 ,6,,,,,,,,,,,,,,,,,,,1,,,,,,,,,,,,,,,,,,,,,,,"[""6""]",1,[2.208100000023819],0,0,0,29,1,,,,,,,,,,,,,,,,,,,,,,,,,,
,,,,,,,,,,,X V Q F H G B L J M P D K C T S W R N Z,60ec51c51a3158a50ded8a3e,19,Mężczyzna,2022-06-11_11h12.20.055,task,2021.1.4,Win32,60.0024001,6299f149e92ead563fba08ef,62a459983bd53e98fd04c88c,,,,,,,,,,,,,,,,,,,,,,,,,,,,,,,,,,,,,,,,,,,,,,,,,,,,,,,,,,,,,,,,,,,,,,,,,,,,0,0,0,0,1,,,,,,,,,,,,,,,,,,,,,
,,,,,,,,,,,,60ec51c51a3158a50ded8a3e,19,Mężczyzna,2022-06-11_11h12.20.055,task,2021.1.4,Win32,60.0024001,6299f149e92ead563fba08ef,62a459983bd53e98fd04c88c,,,,,,,,,,,,,4,,,,,,,,,,Task,28,(2x5) - 6,4,,,,,,,,,,,,,,,,,,,1,,,,,,,,,,,,,,,,,,,,,,,"[""4""]",1,[1.80860000002383],0,0,0,27,1,,,,,,,,,,,,,,,,,,,,,,,,,,
,,,,,,,,,,,X V Q F H G B L J M P D K C T S W R N Z,60ec51c51a3158a50ded8a3e,19,Mężczyzna,2022-06-11_11h12.20.055,task,2021.1.4,Win32,60.0024001,6299f149e92ead563fba08ef,62a459983bd53e98fd04c88c,,,,,,,,,,,,,,,,,,,,,,,,,,,,,,,,,,,,,,,,,,,,,,,,,,,,,,,,,,,,,,,,,,,,,,,,,,,,1,0,1,0,1,,,,,,,,,,,,,,,,,,,,,
,,,,,,,,,,,,60ec51c51a3158a50ded8a3e,19,Mężczyzna,2022-06-11_11h12.20.055,task,2021.1.4,Win32,60.0024001,6299f149e92ead563fba08ef,62a459983bd53e98fd04c88c,,,,,,,,,,,,,0,,,,,,,,,,Task,17,(2x3) - 6,0,,,,,,,,,,,,,,,,,,,1,,,,,,,,,,,,,,,,,,,,,,,"[""0""]",1,[1.6548999999762373],0,0,0,16,1,,,,,,,,,,,,,,,,,,,,,,,,,,
,,,,,,,,,,,X V Q F H G B L J M P D K C T S W R N Z,60ec51c51a3158a50ded8a3e,19,Mężczyzna,2022-06-11_11h12.20.055,task,2021.1.4,Win32,60.0024001,6299f149e92ead563fba08ef,62a459983bd53e98fd04c88c,,,,,,,,,,,,,,,,,,,,,,,,,,,,,,,,,,,,,,,,,,,,,,,,,,,,,,,,,,,,,,,,,,,,,,,,,,,,2,0,2,0,1,,,,,,,,,,,,,,,,,,,,,
,,,,,,,,,,,,60ec51c51a3158a50ded8a3e,19,Mężczyzna,2022-06-11_11h12.20.055,task,2021.1.4,Win32,60.0024001,6299f149e92ead563fba08ef,62a459983bd53e98fd04c88c,,,,,,,,,,,,,1,,,,,,,,,,Task,34,(9/3) - 2,1,,,,,,,,,,,,,,,,,,,1,,,,,,,,,,,,,,,,,,,,,,,"[""1""]",1,[2.1714999999999236],0,0,0,33,1,,,,,,,,,,,,,,,,,,,,,,,,,,
,,,,,,,,,,,X V Q F H G B L J M P D K C T S W R N Z,60ec51c51a3158a50ded8a3e,19,Mężczyzna,2022-06-11_11h12.20.055,task,2021.1.4,Win32,60.0024001,6299f149e92ead563fba08ef,62a459983bd53e98fd04c88c,,,,,,,,,,,,,,,,,,,,,,,,,,,,,,,,,,,,,,,,,,,,,,,,,,,,,,,,,,,,,,,,,,,,,,,,,,,,3,0,3,0,1,,,,,,,,,,,,,,,,,,,,,
,,,,,,,,,,,,60ec51c51a3158a50ded8a3e,19,Mężczyzna,2022-06-11_11h12.20.055,task,2021.1.4,Win32,60.0024001,6299f149e92ead563fba08ef,62a459983bd53e98fd04c88c,,,,,,,,,,,,,,,,,,,,,,,,,,,,,,,,,,,,,,,,,,,,,,,,,,,,,,,,,,,,,,,,,,,,,,,,,,,,,,,,,rvsc,"[""r"",""v"",""s"",""c""]",0,"[1.2056999999880418,1.8418000000118582,2.163800000011861,2.4451000000237855,3.0561999999880527]",1,RVSC,2,0,2,0,1,,,,,,,,,,
,,,,,,,,,,,,60ec51c51a3158a50ded8a3e,19,Mężczyzna,2022-06-11_11h12.20.055,task,2021.1.4,Win32,60.0024001,6299f149e92ead563fba08ef,62a459983bd53e98fd04c88c,,,,,,,,,,,,,7,,,,,,,,,,Task,31,(4/2) + 5,7,,,,,,,,,,,,,,,,,,,1,,,,,,,,,,,,,,,,,,,,,,,"[""7""]",1,[2.67349999999999],0,0,0,30,1,,,,,,,,,,,,,,,,,,,,,,,,,,
,,,,,,,,,,,X V Q F H G B L J M P D K C T S W R N Z,60ec51c51a3158a50ded8a3e,19,Mężczyzna,2022-06-11_11h12.20.055,task,2021.1.4,Win32,60.0024001,6299f149e92ead563fba08ef,62a459983bd53e98fd04c88c,,,,,,,,,,,,,,,,,,,,,,,,,,,,,,,,,,,,,,,,,,,,,,,,,,,,,,,,,,,,,,,,,,,,,,,,,,,,0,0,0,0,1,,,,,,,,,,,,,,,,,,,,,
,,,,,,,,,,,,60ec51c51a3158a50ded8a3e,19,Mężczyzna,2022-06-11_11h12.20.055,task,2021.1.4,Win32,60.0024001,6299f149e92ead563fba08ef,62a459983bd53e98fd04c88c,,,,,,,,,,,,,1,,,,,,,,,,Task,1,(12/6) - 1,1,,,,,,,,,,,,,,,,,,,1,,,,,,,,,,,,,,,,,,,,,,,"[""1""]",1,[1.9446999999880745],0,0,0,0,1,,,,,,,,,,,,,,,,,,,,,,,,,,
,,,,,,,,,,,X V Q F H G B L J M P D K C T S W R N Z,60ec51c51a3158a50ded8a3e,19,Mężczyzna,2022-06-11_11h12.20.055,task,2021.1.4,Win32,60.0024001,6299f149e92ead563fba08ef,62a459983bd53e98fd04c88c,,,,,,,,,,,,,,,,,,,,,,,,,,,,,,,,,,,,,,,,,,,,,,,,,,,,,,,,,,,,,,,,,,,,,,,,,,,,1,0,1,0,1,,,,,,,,,,,,,,,,,,,,,
,,,,,,,,,,,,60ec51c51a3158a50ded8a3e,19,Mężczyzna,2022-06-11_11h12.20.055,task,2021.1.4,Win32,60.0024001,6299f149e92ead563fba08ef,62a459983bd53e98fd04c88c,,,,,,,,,,,,,6,,,,,,,,,,Task,13,(3x4) - 6,6,,,,,,,,,,,,,,,,,,,1,,,,,,,,,,,,,,,,,,,,,,,"[""6""]",1,[1.7571000000237973],0,0,0,12,1,,,,,,,,,,,,,,,,,,,,,,,,,,
,,,,,,,,,,,X V Q F H G B L J M P D K C T S W R N Z,60ec51c51a3158a50ded8a3e,19,Mężczyzna,2022-06-11_11h12.20.055,task,2021.1.4,Win32,60.0024001,6299f149e92ead563fba08ef,62a459983bd53e98fd04c88c,,,,,,,,,,,,,,,,,,,,,,,,,,,,,,,,,,,,,,,,,,,,,,,,,,,,,,,,,,,,,,,,,,,,,,,,,,,,2,0,2,0,1,,,,,,,,,,,,,,,,,,,,,
,,,,,,,,,,,,60ec51c51a3158a50ded8a3e,19,Mężczyzna,2022-06-11_11h12.20.055,task,2021.1.4,Win32,60.0024001,6299f149e92ead563fba08ef,62a459983bd53e98fd04c88c,,,,,,,,,,,,,0,,,,,,,,,,Task,25,(10/5) - 2,0,,,,,,,,,,,,,,,,,,,1,,,,,,,,,,,,,,,,,,,,,,,"[""0""]",1,[2.3301999999880536],0,0,0,24,1,,,,,,,,,,,,,,,,,,,,,,,,,,
,,,,,,,,,,,X V Q F H G B L J M P D K C T S W R N Z,60ec51c51a3158a50ded8a3e,19,Mężczyzna,2022-06-11_11h12.20.055,task,2021.1.4,Win32,60.0024001,6299f149e92ead563fba08ef,62a459983bd53e98fd04c88c,,,,,,,,,,,,,,,,,,,,,,,,,,,,,,,,,,,,,,,,,,,,,,,,,,,,,,,,,,,,,,,,,,,,,,,,,,,,3,0,3,0,1,,,,,,,,,,,,,,,,,,,,,
,,,,,,,,,,,,60ec51c51a3158a50ded8a3e,19,Mężczyzna,2022-06-11_11h12.20.055,task,2021.1.4,Win32,60.0024001,6299f149e92ead563fba08ef,62a459983bd53e98fd04c88c,,,,,,,,,,,,,8,,,,,,,,,,Task,23,(2x3) + 2,8,,,,,,,,,,,,,,,,,,,1,,,,,,,,,,,,,,,,,,,,,,,"[""8""]",1,[2.955000000000041],0,0,0,22,1,,,,,,,,,,,,,,,,,,,,,,,,,,
,,,,,,,,,,,X V Q F H G B L J M P D K C T S W R N Z,60ec51c51a3158a50ded8a3e,19,Mężczyzna,2022-06-11_11h12.20.055,task,2021.1.4,Win32,60.0024001,6299f149e92ead563fba08ef,62a459983bd53e98fd04c88c,,,,,,,,,,,,,,,,,,,,,,,,,,,,,,,,,,,,,,,,,,,,,,,,,,,,,,,,,,,,,,,,,,,,,,,,,,,,4,0,4,0,1,,,,,,,,,,,,,,,,,,,,,
,,,,,,,,,,,,60ec51c51a3158a50ded8a3e,19,Mężczyzna,2022-06-11_11h12.20.055,task,2021.1.4,Win32,60.0024001,6299f149e92ead563fba08ef,62a459983bd53e98fd04c88c,,,,,,,,,,,,,,,,,,,,,,,,,,,,,,,,,,,,,,,,,,,,,,,,,,,,,,,,,,,,,,,,,,,,,,,,,,,,,,,,,spln,"[""s"",""p"",""l"",""n""]",0,"[1.3224000000357137,1.648700000047711,2.38900000000001,3.548900000035701,4.055800000011914]",0,SPLXN,3,0,3,0,1,,,,,,,,,,
,,,,,,,,,,,,60ec51c51a3158a50ded8a3e,19,Mężczyzna,2022-06-11_11h12.20.055,task,2021.1.4,Win32,60.0024001,6299f149e92ead563fba08ef,62a459983bd53e98fd04c88c,,,,,,,,,,,,,3,,,,,,,,,,Task,35,(1x2) + 1,3,,,,,,,,,,,,,,,,,,,1,,,,,,,,,,,,,,,,,,,,,,,"[""3""]",1,[1.7781999999881464],0,0,0,34,1,,,,,,,,,,,,,,,,,,,,,,,,,,
,,,,,,,,,,,X V Q F H G B L J M P D K C T S W R N Z,60ec51c51a3158a50ded8a3e,19,Mężczyzna,2022-06-11_11h12.20.055,task,2021.1.4,Win32,60.0024001,6299f149e92ead563fba08ef,62a459983bd53e98fd04c88c,,,,,,,,,,,,,,,,,,,,,,,,,,,,,,,,,,,,,,,,,,,,,,,,,,,,,,,,,,,,,,,,,,,,,,,,,,,,0,0,0,0,1,,,,,,,,,,,,,,,,,,,,,
,,,,,,,,,,,,60ec51c51a3158a50ded8a3e,19,Mężczyzna,2022-06-11_11h12.20.055,task,2021.1.4,Win32,60.0024001,6299f149e92ead563fba08ef,62a459983bd53e98fd04c88c,,,,,,,,,,,,,3,,,,,,,,,,Task,27,(3/3) + 2,3,,,,,,,,,,,,,,,,,,,1,,,,,,,,,,,,,,,,,,,,,,,"[""3""]",1,[2.8564999999999827],0,0,0,26,1,,,,,,,,,,,,,,,,,,,,,,,,,,
,,,,,,,,,,,X V Q F H G B L J M P D K C T S W R N Z,60ec51c51a3158a50ded8a3e,19,Mężczyzna,2022-06-11_11h12.20.055,task,2021.1.4,Win32,60.0024001,6299f149e92ead563fba08ef,62a459983bd53e98fd04c88c,,,,,,,,,,,,,,,,,,,,,,,,,,,,,,,,,,,,,,,,,,,,,,,,,,,,,,,,,,,,,,,,,,,,,,,,,,,,1,0,1,0,1,,,,,,,,,,,,,,,,,,,,,
,,,,,,,,,,,,60ec51c51a3158a50ded8a3e,19,Mężczyzna,2022-06-11_11h12.20.055,task,2021.1.4,Win32,60.0024001,6299f149e92ead563fba08ef,62a459983bd53e98fd04c88c,,,,,,,,,,,,,8,,,,,,,,,,Task,39,(5x3) - 7,8,,,,,,,,,,,,,,,,,,,1,,,,,,,,,,,,,,,,,,,,,,,"[""8""]",1,[2.846599999964269],0,0,0,38,1,,,,,,,,,,,,,,,,,,,,,,,,,,
,,,,,,,,,,,X V Q F H G B L J M P D K C T S W R N Z,60ec51c51a3158a50ded8a3e,19,Mężczyzna,2022-06-11_11h12.20.055,task,2021.1.4,Win32,60.0024001,6299f149e92ead563fba08ef,62a459983bd53e98fd04c88c,,,,,,,,,,,,,,,,,,,,,,,,,,,,,,,,,,,,,,,,,,,,,,,,,,,,,,,,,,,,,,,,,,,,,,,,,,,,2,0,2,0,1,,,,,,,,,,,,,,,,,,,,,
,,,,,,,,,,,,60ec51c51a3158a50ded8a3e,19,Mężczyzna,2022-06-11_11h12.20.055,task,2021.1.4,Win32,60.0024001,6299f149e92ead563fba08ef,62a459983bd53e98fd04c88c,,,,,,,,,,,,,9,,,,,,,,,,Task,40,(7x2) - 5,9,,,,,,,,,,,,,,,,,,,1,,,,,,,,,,,,,,,,,,,,,,,"[""9""]",1,[2.2638000000118836],0,0,0,39,1,,,,,,,,,,,,,,,,,,,,,,,,,,
,,,,,,,,,,,X V Q F H G B L J M P D K C T S W R N Z,60ec51c51a3158a50ded8a3e,19,Mężczyzna,2022-06-11_11h12.20.055,task,2021.1.4,Win32,60.0024001,6299f149e92ead563fba08ef,62a459983bd53e98fd04c88c,,,,,,,,,,,,,,,,,,,,,,,,,,,,,,,,,,,,,,,,,,,,,,,,,,,,,,,,,,,,,,,,,,,,,,,,,,,,3,0,3,0,1,,,,,,,,,,,,,,,,,,,,,
,,,,,,,,,,,,60ec51c51a3158a50ded8a3e,19,Mężczyzna,2022-06-11_11h12.20.055,task,2021.1.4,Win32,60.0024001,6299f149e92ead563fba08ef,62a459983bd53e98fd04c88c,,,,,,,,,,,,,2,,,,,,,,,,Task,26,(2x9) - 16,2,,,,,,,,,,,,,,,,,,,1,,,,,,,,,,,,,,,,,,,,,,,"[""2""]",1,[2.893299999952319],0,0,0,25,1,,,,,,,,,,,,,,,,,,,,,,,,,,
,,,,,,,,,,,X V Q F H G B L J M P D K C T S W R N Z,60ec51c51a3158a50ded8a3e,19,Mężczyzna,2022-06-11_11h12.20.055,task,2021.1.4,Win32,60.0024001,6299f149e92ead563fba08ef,62a459983bd53e98fd04c88c,,,,,,,,,,,,,,,,,,,,,,,,,,,,,,,,,,,,,,,,,,,,,,,,,,,,,,,,,,,,,,,,,,,,,,,,,,,,4,0,4,0,1,,,,,,,,,,,,,,,,,,,,,
,,,,,,,,,,,,60ec51c51a3158a50ded8a3e,19,Mężczyzna,2022-06-11_11h12.20.055,task,2021.1.4,Win32,60.0024001,6299f149e92ead563fba08ef,62a459983bd53e98fd04c88c,,,,,,,,,,,,,,,,,,,,,,,,,,,,,,,,,,,,,,,,,,,,,,,,,,,,,,,,,,,,,,,,,,,,,,,,,,,,,,,,,hxrcd,"[""h"",""x"",""r"",""c"",""d""]",0,"[1.67240000003585,2.0554000000357746,2.445900000035863,2.7404999999999973,2.989100000023882,3.624500000000012]",1,HXRCD,4,0,4,0,1,,,,,,,,,,
,,,,,,,,,,,,60ec51c51a3158a50ded8a3e,19,Mężczyzna,2022-06-11_11h12.20.055,task,2021.1.4,Win32,60.0024001,6299f149e92ead563fba08ef,62a459983bd53e98fd04c88c,,,,,,,,,,,,,9,,,,,,,,,,Task,40,(7x2) - 5,9,,,,,,,,,,,,,,,,,,,1,,,,,,,,,,,,,,,,,,,,,,,"[""9""]",1,[2.8882000000476182],0,0,0,39,1,,,,,,,,,,,,,,,,,,,,,,,,,,
,,,,,,,,,,,X V Q F H G B L J M P D K C T S W R N Z,60ec51c51a3158a50ded8a3e,19,Mężczyzna,2022-06-11_11h12.20.055,task,2021.1.4,Win32,60.0024001,6299f149e92ead563fba08ef,62a459983bd53e98fd04c88c,,,,,,,,,,,,,,,,,,,,,,,,,,,,,,,,,,,,,,,,,,,,,,,,,,,,,,,,,,,,,,,,,,,,,,,,,,,,0,0,0,0,1,,,,,,,,,,,,,,,,,,,,,
,,,,,,,,,,,,60ec51c51a3158a50ded8a3e,19,Mężczyzna,2022-06-11_11h12.20.055,task,2021.1.4,Win32,60.0024001,6299f149e92ead563fba08ef,62a459983bd53e98fd04c88c,,,,,,,,,,,,,6,,,,,,,,,,Task,37,(3/3) + 5,6,,,,,,,,,,,,,,,,,,,1,,,,,,,,,,,,,,,,,,,,,,,"[""6""]",1,[3.05600000000004],0,0,0,36,1,,,,,,,,,,,,,,,,,,,,,,,,,,
,,,,,,,,,,,X V Q F H G B L J M P D K C T S W R N Z,60ec51c51a3158a50ded8a3e,19,Mężczyzna,2022-06-11_11h12.20.055,task,2021.1.4,Win32,60.0024001,6299f149e92ead563fba08ef,62a459983bd53e98fd04c88c,,,,,,,,,,,,,,,,,,,,,,,,,,,,,,,,,,,,,,,,,,,,,,,,,,,,,,,,,,,,,,,,,,,,,,,,,,,,1,0,1,0,1,,,,,,,,,,,,,,,,,,,,,
,,,,,,,,,,,,60ec51c51a3158a50ded8a3e,19,Mężczyzna,2022-06-11_11h12.20.055,task,2021.1.4,Win32,60.0024001,6299f149e92ead563fba08ef,62a459983bd53e98fd04c88c,,,,,,,,,,,,,9,,,,,,,,,,Task,24,(2x2) + 5,9,,,,,,,,,,,,,,,,,,,1,,,,,,,,,,,,,,,,,,,,,,,"[""9""]",1,[2.0706000000238873],0,0,0,23,1,,,,,,,,,,,,,,,,,,,,,,,,,,
,,,,,,,,,,,X V Q F H G B L J M P D K C T S W R N Z,60ec51c51a3158a50ded8a3e,19,Mężczyzna,2022-06-11_11h12.20.055,task,2021.1.4,Win32,60.0024001,6299f149e92ead563fba08ef,62a459983bd53e98fd04c88c,,,,,,,,,,,,,,,,,,,,,,,,,,,,,,,,,,,,,,,,,,,,,,,,,,,,,,,,,,,,,,,,,,,,,,,,,,,,2,0,2,0,1,,,,,,,,,,,,,,,,,,,,,
,,,,,,,,,,,,60ec51c51a3158a50ded8a3e,19,Mężczyzna,2022-06-11_11h12.20.055,task,2021.1.4,Win32,60.0024001,6299f149e92ead563fba08ef,62a459983bd53e98fd04c88c,,,,,,,,,,,,,6,,,,,,,,,,Task,5,(2x3) + 0,6,,,,,,,,,,,,,,,,,,,1,,,,,,,,,,,,,,,,,,,,,,,"[""6""]",1,[2.0774999999999864],0,0,0,4,1,,,,,,,,,,,,,,,,,,,,,,,,,,
,,,,,,,,,,,X V Q F H G B L J M P D K C T S W R N Z,60ec51c51a3158a50ded8a3e,19,Mężczyzna,2022-06-11_11h12.20.055,task,2021.1.4,Win32,60.0024001,6299f149e92ead563fba08ef,62a459983bd53e98fd04c88c,,,,,,,,,,,,,,,,,,,,,,,,,,,,,,,,,,,,,,,,,,,,,,,,,,,,,,,,,,,,,,,,,,,,,,,,,,,,3,0,3,0,1,,,,,,,,,,,,,,,,,,,,,
,,,,,,,,,,,,60ec51c51a3158a50ded8a3e,19,Mężczyzna,2022-06-11_11h12.20.055,task,2021.1.4,Win32,60.0024001,6299f149e92ead563fba08ef,62a459983bd53e98fd04c88c,,,,,,,,,,,,,6,,,,,,,,,,Task,13,(3x4) - 6,6,,,,,,,,,,,,,,,,,,,1,,,,,,,,,,,,,,,,,,,,,,,"[""6""]",1,[2.2401000000238582],0,0,0,12,1,,,,,,,,,,,,,,,,,,,,,,,,,,
,,,,,,,,,,,X V Q F H G B L J M P D K C T S W R N Z,60ec51c51a3158a50ded8a3e,19,Mężczyzna,2022-06-11_11h12.20.055,task,2021.1.4,Win32,60.0024001,6299f149e92ead563fba08ef,62a459983bd53e98fd04c88c,,,,,,,,,,,,,,,,,,,,,,,,,,,,,,,,,,,,,,,,,,,,,,,,,,,,,,,,,,,,,,,,,,,,,,,,,,,,4,0,4,0,1,,,,,,,,,,,,,,,,,,,,,
,,,,,,,,,,,,60ec51c51a3158a50ded8a3e,19,Mężczyzna,2022-06-11_11h12.20.055,task,2021.1.4,Win32,60.0024001,6299f149e92ead563fba08ef,62a459983bd53e98fd04c88c,,,,,,,,,,,,,,,,,,,,,,,Task,11,(18/3) - 2,4,,,,,,,,,,,,,,,,,,,0,,,,,,,,,,,,,,,,,,,,,,,,0,,0,0,0,10,1,,,,,,,,,,,,,,,,,,,,,,,,,,
,,,,,,,,,,,,60ec51c51a3158a50ded8a3e,19,Mężczyzna,2022-06-11_11h12.20.055,task,2021.1.4,Win32,60.0024001,6299f149e92ead563fba08ef,62a459983bd53e98fd04c88c,,,,,,,,,,,,,9,,,,,,,,,,Task,16,(3x8) - 15,9,,,,,,,,,,,,,,,,,,,1,,,,,,,,,,,,,,,,,,,,,,,"[""9""]",1,[2.739100000023768],0,1,1,15,1,,,,,,,,,,,,,,,,,,,,,,,,,,
,,,,,,,,,,,X V Q F H G B L J M P D K C T S W R N Z,60ec51c51a3158a50ded8a3e,19,Mężczyzna,2022-06-11_11h12.20.055,task,2021.1.4,Win32,60.0024001,6299f149e92ead563fba08ef,62a459983bd53e98fd04c88c,,,,,,,,,,,,,,,,,,,,,,,,,,,,,,,,,,,,,,,,,,,,,,,,,,,,,,,,,,,,,,,,,,,,,,,,,,,,5,0,5,0,1,,,,,,,,,,,,,,,,,,,,,
,,,,,,,,,,,,60ec51c51a3158a50ded8a3e,19,Mężczyzna,2022-06-11_11h12.20.055,task,2021.1.4,Win32,60.0024001,6299f149e92ead563fba08ef,62a459983bd53e98fd04c88c,,,,,,,,,,,,,,,,,,,,,,,,,,,,,,,,,,,,,,,,,,,,,,,,,,,,,,,,,,,,,,,,,,,,,,,,,,,,,,,,,wxpwmq,"[""w"",""x"",""p"",""w"",""m"",""q""]",0,"[1.3419999999999845,1.6588000000119791,2.1778000000119846,2.489900000035732,2.7568000000119355,2.8989000000358374,3.330800000011891]",1,WXPWMQ,5,0,5,0,1,,,,,,,,,,
,,,,,,,,,,,,60ec51c51a3158a50ded8a3e,19,Mężczyzna,2022-06-11_11h12.20.055,task,2021.1.4,Win32,60.0024001,6299f149e92ead563fba08ef,62a459983bd53e98fd04c88c,,,,,,,,,,,,,3,,,,,,,,,,Task,3,(2x3) - 3,3,,,,,,,,,,,,,,,,,,,1,,,,,,,,,,,,,,,,,,,,,,,"[""3""]",1,[2.4432999999523872],0,0,0,2,1,,,,,,,,,,,,,,,,,,,,,,,,,,
,,,,,,,,,,,X V Q F H G B L J M P D K C T S W R N Z,60ec51c51a3158a50ded8a3e,19,Mężczyzna,2022-06-11_11h12.20.055,task,2021.1.4,Win32,60.0024001,6299f149e92ead563fba08ef,62a459983bd53e98fd04c88c,,,,,,,,,,,,,,,,,,,,,,,,,,,,,,,,,,,,,,,,,,,,,,,,,,,,,,,,,,,,,,,,,,,,,,,,,,,,0,0,0,0,1,,,,,,,,,,,,,,,,,,,,,
,,,,,,,,,,,,60ec51c51a3158a50ded8a3e,19,Mężczyzna,2022-06-11_11h12.20.055,task,2021.1.4,Win32,60.0024001,6299f149e92ead563fba08ef,62a459983bd53e98fd04c88c,,,,,,,,,,,,,5,,,,,,,,,,Task,22,(3x1) + 2,5,,,,,,,,,,,,,,,,,,,1,,,,,,,,,,,,,,,,,,,,,,,"[""5""]",1,[1.6717000000476219],0,0,0,21,1,,,,,,,,,,,,,,,,,,,,,,,,,,
,,,,,,,,,,,X V Q F H G B L J M P D K C T S W R N Z,60ec51c51a3158a50ded8a3e,19,Mężczyzna,2022-06-11_11h12.20.055,task,2021.1.4,Win32,60.0024001,6299f149e92ead563fba08ef,62a459983bd53e98fd04c88c,,,,,,,,,,,,,,,,,,,,,,,,,,,,,,,,,,,,,,,,,,,,,,,,,,,,,,,,,,,,,,,,,,,,,,,,,,,,1,0,1,0,1,,,,,,,,,,,,,,,,,,,,,
,,,,,,,,,,,,60ec51c51a3158a50ded8a3e,19,Mężczyzna,2022-06-11_11h12.20.055,task,2021.1.4,Win32,60.0024001,6299f149e92ead563fba08ef,62a459983bd53e98fd04c88c,,,,,,,,,,,,,0,,,,,,,,,,Task,25,(10/5) - 2,0,,,,,,,,,,,,,,,,,,,1,,,,,,,,,,,,,,,,,,,,,,,"[""0""]",1,[2.9715000000001055],0,0,0,24,1,,,,,,,,,,,,,,,,,,,,,,,,,,
,,,,,,,,,,,X V Q F H G B L J M P D K C T S W R N Z,60ec51c51a3158a50ded8a3e,19,Mężczyzna,2022-06-11_11h12.20.055,task,2021.1.4,Win32,60.0024001,6299f149e92ead563fba08ef,62a459983bd53e98fd04c88c,,,,,,,,,,,,,,,,,,,,,,,,,,,,,,,,,,,,,,,,,,,,,,,,,,,,,,,,,,,,,,,,,,,,,,,,,,,,2,0,2,0,1,,,,,,,,,,,,,,,,,,,,,
,,,,,,,,,,,,60ec51c51a3158a50ded8a3e,19,Mężczyzna,2022-06-11_11h12.20.055,task,2021.1.4,Win32,60.0024001,6299f149e92ead563fba08ef,62a459983bd53e98fd04c88c,,,,,,,,,,,,,5,,,,,,,,,,Task,12,(4x4) - 11,5,,,,,,,,,,,,,,,,,,,1,,,,,,,,,,,,,,,,,,,,,,,"[""5""]",1,[1.747000000000071],0,0,0,11,1,,,,,,,,,,,,,,,,,,,,,,,,,,
,,,,,,,,,,,X V Q F H G B L J M P D K C T S W R N Z,60ec51c51a3158a50ded8a3e,19,Mężczyzna,2022-06-11_11h12.20.055,task,2021.1.4,Win32,60.0024001,6299f149e92ead563fba08ef,62a459983bd53e98fd04c88c,,,,,,,,,,,,,,,,,,,,,,,,,,,,,,,,,,,,,,,,,,,,,,,,,,,,,,,,,,,,,,,,,,,,,,,,,,,,3,0,3,0,1,,,,,,,,,,,,,,,,,,,,,
,,,,,,,,,,,,60ec51c51a3158a50ded8a3e,19,Mężczyzna,2022-06-11_11h12.20.055,task,2021.1.4,Win32,60.0024001,6299f149e92ead563fba08ef,62a459983bd53e98fd04c88c,,,,,,,,,,,,,1,,,,,,,,,,Task,18,(16/4) - 3,1,,,,,,,,,,,,,,,,,,,1,,,,,,,,,,,,,,,,,,,,,,,"[""1""]",1,[2.7226000000238173],0,0,0,17,1,,,,,,,,,,,,,,,,,,,,,,,,,,
,,,,,,,,,,,X V Q F H G B L J M P D K C T S W R N Z,60ec51c51a3158a50ded8a3e,19,Mężczyzna,2022-06-11_11h12.20.055,task,2021.1.4,Win32,60.0024001,6299f149e92ead563fba08ef,62a459983bd53e98fd04c88c,,,,,,,,,,,,,,,,,,,,,,,,,,,,,,,,,,,,,,,,,,,,,,,,,,,,,,,,,,,,,,,,,,,,,,,,,,,,4,0,4,0,1,,,,,,,,,,,,,,,,,,,,,
,,,,,,,,,,,,60ec51c51a3158a50ded8a3e,19,Mężczyzna,2022-06-11_11h12.20.055,task,2021.1.4,Win32,60.0024001,6299f149e92ead563fba08ef,62a459983bd53e98fd04c88c,,,,,,,,,,,,,,,,,,,,,,,Task,29,(3x8) - 19 ,5,,,,,,,,,,,,,,,,,,,0,,,,,,,,,,,,,,,,,,,,,,,,0,,0,0,0,28,1,,,,,,,,,,,,,,,,,,,,,,,,,,
,,,,,,,,,,,,60ec51c51a3158a50ded8a3e,19,Mężczyzna,2022-06-11_11h12.20.055,task,2021.1.4,Win32,60.0024001,6299f149e92ead563fba08ef,62a459983bd53e98fd04c88c,,,,,,,,,,,,,1,,,,,,,,,,Task,34,(9/3) - 2,1,,,,,,,,,,,,,,,,,,,1,,,,,,,,,,,,,,,,,,,,,,,"[""1""]",1,[3.1382000000476182],0,1,1,33,1,,,,,,,,,,,,,,,,,,,,,,,,,,
,,,,,,,,,,,X V Q F H G B L J M P D K C T S W R N Z,60ec51c51a3158a50ded8a3e,19,Mężczyzna,2022-06-11_11h12.20.055,task,2021.1.4,Win32,60.0024001,6299f149e92ead563fba08ef,62a459983bd53e98fd04c88c,,,,,,,,,,,,,,,,,,,,,,,,,,,,,,,,,,,,,,,,,,,,,,,,,,,,,,,,,,,,,,,,,,,,,,,,,,,,5,0,5,0,1,,,,,,,,,,,,,,,,,,,,,
,,,,,,,,,,,,60ec51c51a3158a50ded8a3e,19,Mężczyzna,2022-06-11_11h12.20.055,task,2021.1.4,Win32,60.0024001,6299f149e92ead563fba08ef,62a459983bd53e98fd04c88c,,,,,,,,,,,,,3,,,,,,,,,,Task,35,(1x2) + 1,3,,,,,,,,,,,,,,,,,,,1,,,,,,,,,,,,,,,,,,,,,,,"[""3""]",1,[1.6548999999761236],0,0,0,34,1,,,,,,,,,,,,,,,,,,,,,,,,,,
,,,,,,,,,,,X V Q F H G B L J M P D K C T S W R N Z,60ec51c51a3158a50ded8a3e,19,Mężczyzna,2022-06-11_11h12.20.055,task,2021.1.4,Win32,60.0024001,6299f149e92ead563fba08ef,62a459983bd53e98fd04c88c,,,,,,,,,,,,,,,,,,,,,,,,,,,,,,,,,,,,,,,,,,,,,,,,,,,,,,,,,,,,,,,,,,,,,,,,,,,,6,0,6,0,1,,,,,,,,,,,,,,,,,,,,,
,,,,,,,,,,,,60ec51c51a3158a50ded8a3e,19,Mężczyzna,2022-06-11_11h12.20.055,task,2021.1.4,Win32,60.0024001,6299f149e92ead563fba08ef,62a459983bd53e98fd04c88c,,,,,,,,,,,,,,,,,,,,,,,,,,,,,,,,,,,,,,,,,,,,,,,,,,,,,,,,,,,,,,,,,,,,,,,,,,,,,,,,,snhgkm,"[""s"",""n"",""h"",""g"",""k"",""m""]",0,"[1.4481999999881054,1.705000000000041,2.3720999999642345,2.674800000011942,2.8555999999642836,3.07569999998816,3.7278999999762163]",0,SNHGKGM,6,0,6,0,1,,,,,,,,,,
,,,,,,,,,,,,60ec51c51a3158a50ded8a3e,19,Mężczyzna,2022-06-11_11h12.20.055,task,2021.1.4,Win32,60.0024001,6299f149e92ead563fba08ef,62a459983bd53e98fd04c88c,,,,,,,,,,,,,9,,,,,,,,,,Task,7,(3x7) - 12,9,,,,,,,,,,,,,,,,,,,1,,,,,,,,,,,,,,,,,,,,,,,"[""9""]",1,[2.131999999999948],0,0,0,6,1,,,,,,,,,,,,,,,,,,,,,,,,,,
,,,,,,,,,,,X V Q F H G B L J M P D K C T S W R N Z,60ec51c51a3158a50ded8a3e,19,Mężczyzna,2022-06-11_11h12.20.055,task,2021.1.4,Win32,60.0024001,6299f149e92ead563fba08ef,62a459983bd53e98fd04c88c,,,,,,,,,,,,,,,,,,,,,,,,,,,,,,,,,,,,,,,,,,,,,,,,,,,,,,,,,,,,,,,,,,,,,,,,,,,,0,0,0,0,1,,,,,,,,,,,,,,,,,,,,,
,,,,,,,,,,,,60ec51c51a3158a50ded8a3e,19,Mężczyzna,2022-06-11_11h12.20.055,task,2021.1.4,Win32,60.0024001,6299f149e92ead563fba08ef,62a459983bd53e98fd04c88c,,,,,,,,,,,,,8,,,,,,,,,,Task,23,(2x3) + 2,8,,,,,,,,,,,,,,,,,,,1,,,,,,,,,,,,,,,,,,,,,,,"[""8""]",1,[1.987699999988081],0,0,0,22,1,,,,,,,,,,,,,,,,,,,,,,,,,,
,,,,,,,,,,,X V Q F H G B L J M P D K C T S W R N Z,60ec51c51a3158a50ded8a3e,19,Mężczyzna,2022-06-11_11h12.20.055,task,2021.1.4,Win32,60.0024001,6299f149e92ead563fba08ef,62a459983bd53e98fd04c88c,,,,,,,,,,,,,,,,,,,,,,,,,,,,,,,,,,,,,,,,,,,,,,,,,,,,,,,,,,,,,,,,,,,,,,,,,,,,1,0,1,0,1,,,,,,,,,,,,,,,,,,,,,
,,,,,,,,,,,,60ec51c51a3158a50ded8a3e,19,Mężczyzna,2022-06-11_11h12.20.055,task,2021.1.4,Win32,60.0024001,6299f149e92ead563fba08ef,62a459983bd53e98fd04c88c,,,,,,,,,,,,,4,,,,,,,,,,Task,28,(2x5) - 6,4,,,,,,,,,,,,,,,,,,,1,,,,,,,,,,,,,,,,,,,,,,,"[""4""]",1,[1.657300000011901],0,0,0,27,1,,,,,,,,,,,,,,,,,,,,,,,,,,
,,,,,,,,,,,X V Q F H G B L J M P D K C T S W R N Z,60ec51c51a3158a50ded8a3e,19,Mężczyzna,2022-06-11_11h12.20.055,task,2021.1.4,Win32,60.0024001,6299f149e92ead563fba08ef,62a459983bd53e98fd04c88c,,,,,,,,,,,,,,,,,,,,,,,,,,,,,,,,,,,,,,,,,,,,,,,,,,,,,,,,,,,,,,,,,,,,,,,,,,,,2,0,2,0,1,,,,,,,,,,,,,,,,,,,,,
,,,,,,,,,,,,60ec51c51a3158a50ded8a3e,19,Mężczyzna,2022-06-11_11h12.20.055,task,2021.1.4,Win32,60.0024001,6299f149e92ead563fba08ef,62a459983bd53e98fd04c88c,,,,,,,,,,,,,0,,,,,,,,,,Task,33,(1/1) - 1,0,,,,,,,,,,,,,,,,,,,1,,,,,,,,,,,,,,,,,,,,,,,"[""0""]",1,[1.3712999999523845],0,0,0,32,1,,,,,,,,,,,,,,,,,,,,,,,,,,
,,,,,,,,,,,X V Q F H G B L J M P D K C T S W R N Z,60ec51c51a3158a50ded8a3e,19,Mężczyzna,2022-06-11_11h12.20.055,task,2021.1.4,Win32,60.0024001,6299f149e92ead563fba08ef,62a459983bd53e98fd04c88c,,,,,,,,,,,,,,,,,,,,,,,,,,,,,,,,,,,,,,,,,,,,,,,,,,,,,,,,,,,,,,,,,,,,,,,,,,,,3,0,3,0,1,,,,,,,,,,,,,,,,,,,,,
,,,,,,,,,,,,60ec51c51a3158a50ded8a3e,19,Mężczyzna,2022-06-11_11h12.20.055,task,2021.1.4,Win32,60.0024001,6299f149e92ead563fba08ef,62a459983bd53e98fd04c88c,,,,,,,,,,,,,7,,,,,,,,,,Task,6,(12/2) + 1,7,,,,,,,,,,,,,,,,,,,1,,,,,,,,,,,,,,,,,,,,,,,"[""7""]",1,[1.8051999999880763],0,0,0,5,1,,,,,,,,,,,,,,,,,,,,,,,,,,
,,,,,,,,,,,X V Q F H G B L J M P D K C T S W R N Z,60ec51c51a3158a50ded8a3e,19,Mężczyzna,2022-06-11_11h12.20.055,task,2021.1.4,Win32,60.0024001,6299f149e92ead563fba08ef,62a459983bd53e98fd04c88c,,,,,,,,,,,,,,,,,,,,,,,,,,,,,,,,,,,,,,,,,,,,,,,,,,,,,,,,,,,,,,,,,,,,,,,,,,,,4,0,4,0,1,,,,,,,,,,,,,,,,,,,,,
,,,,,,,,,,,,60ec51c51a3158a50ded8a3e,19,Mężczyzna,2022-06-11_11h12.20.055,task,2021.1.4,Win32,60.0024001,6299f149e92ead563fba08ef,62a459983bd53e98fd04c88c,,,,,,,,,,,,,6,,,,,,,,,,Task,37,(3/3) + 5,6,,,,,,,,,,,,,,,,,,,1,,,,,,,,,,,,,,,,,,,,,,,"[""6""]",1,[1.7656000000238237],0,0,0,36,1,,,,,,,,,,,,,,,,,,,,,,,,,,
,,,,,,,,,,,X V Q F H G B L J M P D K C T S W R N Z,60ec51c51a3158a50ded8a3e,19,Mężczyzna,2022-06-11_11h12.20.055,task,2021.1.4,Win32,60.0024001,6299f149e92ead563fba08ef,62a459983bd53e98fd04c88c,,,,,,,,,,,,,,,,,,,,,,,,,,,,,,,,,,,,,,,,,,,,,,,,,,,,,,,,,,,,,,,,,,,,,,,,,,,,5,0,5,0,1,,,,,,,,,,,,,,,,,,,,,
,,,,,,,,,,,,60ec51c51a3158a50ded8a3e,19,Mężczyzna,2022-06-11_11h12.20.055,task,2021.1.4,Win32,60.0024001,6299f149e92ead563fba08ef,62a459983bd53e98fd04c88c,,,,,,,,,,,,,1,,,,,,,,,,Task,1,(12/6) - 1,1,,,,,,,,,,,,,,,,,,,1,,,,,,,,,,,,,,,,,,,,,,,"[""1""]",1,[2.8932000000477274],0,0,0,0,1,,,,,,,,,,,,,,,,,,,,,,,,,,
,,,,,,,,,,,X V Q F H G B L J M P D K C T S W R N Z,60ec51c51a3158a50ded8a3e,19,Mężczyzna,2022-06-11_11h12.20.055,task,2021.1.4,Win32,60.0024001,6299f149e92ead563fba08ef,62a459983bd53e98fd04c88c,,,,,,,,,,,,,,,,,,,,,,,,,,,,,,,,,,,,,,,,,,,,,,,,,,,,,,,,,,,,,,,,,,,,,,,,,,,,6,0,6,0,1,,,,,,,,,,,,,,,,,,,,,
,,,,,,,,,,,,60ec51c51a3158a50ded8a3e,19,Mężczyzna,2022-06-11_11h12.20.055,task,2021.1.4,Win32,60.0024001,6299f149e92ead563fba08ef,62a459983bd53e98fd04c88c,,,,,,,,,,,,,,,,,,,,,,,,,,,,,,,,,,,,,,,,,,,,,,,,,,,,,,,,,,,,,,,,,,,,,,,,,,,,,,,,,nwbbxx,"[""n"",""w"",""b"",""b"",""x"",""x""]",0,"[1.8966000000237955,2.0947000000476237,2.2799000000356955,2.444499999999948,2.9085000000000036,4.456700000047704,4.673000000000002]",0,NWBBXZX,7,0,7,0,1,,,,,,,,,,
,,,,,,,,,,,,60ec51c51a3158a50ded8a3e,19,Mężczyzna,2022-06-11_11h12.20.055,task,2021.1.4,Win32,60.0024001,6299f149e92ead563fba08ef,62a459983bd53e98fd04c88c,,,,,,,,,,,,,,,,,,,,,,,,,,,,,,,,,,,,,,,,,,,,,,,,,,,,,,,,,,,,,,,,,,,,,,,,,,,,,,,,,,,,,,,,,,,,,0,0,0,0,0,1,,,
,,,,,,,,,,,,60ec51c51a3158a50ded8a3e,19,Mężczyzna,2022-06-11_11h12.20.055,task,2021.1.4,Win32,60.0024001,6299f149e92ead563fba08ef,62a459983bd53e98fd04c88c,,,,,,,,,,,,,,,,,,,,,,,,,,,,,,,,,,,,,,,,,,,,,,,,,,,,,,,,,,,,,,,,,,,,,,,,,,,,,,,,,,,,,,,,,,,,"[""comma"",""period""]",0,1,0,1,0,1,"[-0.00930000001199005,1.2118000000118627]",,
,,,,,,,,,,,,60ec51c51a3158a50ded8a3e,19,Mężczyzna,2022-06-11_11h12.20.055,task,2021.1.4,Win32,60.0024001,6299f149e92ead563fba08ef,62a459983bd53e98fd04c88c,,,,,,,,,,,,,,,,,,,,,,,,,,,,,,,,,,,,,,,,,,,,,,,,,,,,,,,,,,,,,,,,,,,,,,,,,,,,,,,,,,,,,,,,,,,,"[""period""]",0,2,0,2,0,1,[0.5070000000000618],,
,,,,,,,,,,,,60ec51c51a3158a50ded8a3e,19,Mężczyzna,2022-06-11_11h12.20.055,task,2021.1.4,Win32,60.0024001,6299f149e92ead563fba08ef,62a459983bd53e98fd04c88c,,,,,,,,,,,,,,,,,,,,,,,,,,,,,,,,,,,,,,,,,,,,,,,,,,,,,,,,,,,,,,,,,,,,,,,,,,,,,,,,,,,,,,,,,,,,"[""comma"",""comma"",""period""]",0,3,0,3,0,1,"[0.26090000003569,1.6211999999881073,1.7099000000357591]",,
,,,,,,,,,,,,60ec51c51a3158a50ded8a3e,19,Mężczyzna,2022-06-11_11h12.20.055,task,2021.1.4,Win32,60.0024001,6299f149e92ead563fba08ef,62a459983bd53e98fd04c88c,,,,,,,,,,,,,,,,,,,,,,,,,,,,,,,,,,,,,,,,,,,,,,,,,,,,,,,,,,,,,,,,,,,,,,,,,,,,,,,,,,,,,,,,,,,,"[""comma""]",0,4,0,4,0,1,[0.7238999999761973],,
,,,,,,,,,,,,60ec51c51a3158a50ded8a3e,19,Mężczyzna,2022-06-11_11h12.20.055,task,2021.1.4,Win32,60.0024001,6299f149e92ead563fba08ef,62a459983bd53e98fd04c88c,,,,,,,,,,,,,,,,,,,,,,,,,,,,,,,,,,,,,,,,,,,,,,,,,,,,,,,,,,,,,,,,,,,,,,,,,,,,,,,,,,,,,,,,,,,,"[""period""]",0,5,0,5,0,1,[0.23239999997622363],,
,,,,,,,,,,,,60ec51c51a3158a50ded8a3e,19,Mężczyzna,2022-06-11_11h12.20.055,task,2021.1.4,Win32,60.0024001,6299f149e92ead563fba08ef,62a459983bd53e98fd04c88c,,,,,,,,,,,,,,,,,,,,,,,,,,,,,,,,,,,,,,,,,,,,,,,,,,,,,,,,,,,,,,,,,,,,,,,,,,,,,,,,,,,,,,,,,,,,"[""period"",""comma""]",0,6,0,6,0,1,"[0.3076999999881309,1.8783000000119046]",,
,,,,,,,,,,,,60ec51c51a3158a50ded8a3e,19,Mężczyzna,2022-06-11_11h12.20.055,task,2021.1.4,Win32,60.0024001,6299f149e92ead563fba08ef,62a459983bd53e98fd04c88c,,,,,,,,,,,,,,,,,,,,,,,,,,,,,,,,,,,,,,,,,,,,,,,,,,,,,,,,,,,,,,,,,,,,,,,,,,,,,,,,,,,,,,,,,,,,,0,7,0,7,0,1,,,
,,,,,,,,,,,,60ec51c51a3158a50ded8a3e,19,Mężczyzna,2022-06-11_11h12.20.055,task,2021.1.4,Win32,60.0024001,6299f149e92ead563fba08ef,62a459983bd53e98fd04c88c,,,,,,,,,,,,,,,,,,,,,,,,,,,,,,,,,,,,,,,,,,,,,,,,,,,,,,,,,,,,,,,,,,,,,,,,,,,,,,,,,,,,,,,,,,,,"[""period""]",0,8,0,8,0,1,[0.29089999997609084],,
,,,,,,,,,,,,60ec51c51a3158a50ded8a3e,19,Mężczyzna,2022-06-11_11h12.20.055,task,2021.1.4,Win32,60.0024001,6299f149e92ead563fba08ef,62a459983bd53e98fd04c88c,,,,,,,,,,,,,,,,,,,,,,,,,,,,,,,,,,,,,,,,,,,,,,,,,,,,,,,,,,,,,,,,,,,,,,,,,,,,,,,,,,,,,,,,,,,,"[""period""]",0,9,0,9,0,1,[0.44530000001191183],,
,,,,,,,,,,,,60ec51c51a3158a50ded8a3e,19,Mężczyzna,2022-06-11_11h12.20.055,task,2021.1.4,Win32,60.0024001,6299f149e92ead563fba08ef,62a459983bd53e98fd04c88c,,,,,,,,,,,,,,,,,,,,,,,,,,,,,,,,,,,,,,,,,,,,,,,,,,,,,,,,,,,,,,,,,,,,,,,,,,,,,,,,,,,,,,,,,,,,"[""comma""]",0,10,0,10,0,1,[0.35799999999994725],,
,,,,,,,,,,,,60ec51c51a3158a50ded8a3e,19,Mężczyzna,2022-06-11_11h12.20.055,task,2021.1.4,Win32,60.0024001,6299f149e92ead563fba08ef,62a459983bd53e98fd04c88c,,,,,,,,,,,,,,,,,,,,,,,,,,,,,,,,,,,,,,,,,,,,,,,,,,,,,,,,,,,,,,,,,,,,,,,,,,,,,,,,,,,,,,,,,,,,"[""period""]",0,11,0,11,0,1,[0.3239000000356782],,
,,,,,,,,,,,,60ec51c51a3158a50ded8a3e,19,Mężczyzna,2022-06-11_11h12.20.055,task,2021.1.4,Win32,60.0024001,6299f149e92ead563fba08ef,62a459983bd53e98fd04c88c,,,,,,,,,,,,,,,,,,,,,,,,,,,,,,,,,,,,,,,,,,,,,,,,,,,,,,,,,,,,,,,,,,,,,,,,,,,,,,,,,,,,,,,,,,,,"[""period""]",0,12,0,12,0,1,[0.29239999997616906],,
,,,,,,,,,,,,60ec51c51a3158a50ded8a3e,19,Mężczyzna,2022-06-11_11h12.20.055,task,2021.1.4,Win32,60.0024001,6299f149e92ead563fba08ef,62a459983bd53e98fd04c88c,,,,,,,,,,,,,,,,,,,,,,,,,,,,,,,,,,,,,,,,,,,,,,,,,,,,,,,,,,,,,,,,,,,,,,,,,,,,,,,,,,,,,,,,,,,,"[""comma""]",0,13,0,13,0,1,[0.2738999999761518],,
,,,,,,,,,,,,60ec51c51a3158a50ded8a3e,19,Mężczyzna,2022-06-11_11h12.20.055,task,2021.1.4,Win32,60.0024001,6299f149e92ead563fba08ef,62a459983bd53e98fd04c88c,,,,,,,,,,,,,,,,,,,,,,,,,,,,,,,,,,,,,,,,,,,,,,,,,,,,,,,,,,,,,,,,,,,,,,,,,,,,,,,,,,,,,,,,,,,,"[""period""]",0,14,0,14,0,1,[0.27410000002385004],,
,,,,,,,,,,,,60ec51c51a3158a50ded8a3e,19,Mężczyzna,2022-06-11_11h12.20.055,task,2021.1.4,Win32,60.0024001,6299f149e92ead563fba08ef,62a459983bd53e98fd04c88c,,,,,,,,,,,,,,,,,,,,,,,,,,,,,,,,,,,,,,,,,,,,,,,,,,,,,,,,,,,,,,,,,,,,,,,,,,,,,,,,,,,,,,,,,,,,"[""comma""]",0,15,0,15,0,1,[0.21349999999995362],,
,,,,,,,,,,,,60ec51c51a3158a50ded8a3e,19,Mężczyzna,2022-06-11_11h12.20.055,task,2021.1.4,Win32,60.0024001,6299f149e92ead563fba08ef,62a459983bd53e98fd04c88c,,,,,,,,,,,,,,,,,,,,,,,,,,,,,,,,,,,,,,,,,,,,,,,,,,,,,,,,,,,,,,,,,,,,,,,,,,,,,,,,,,,,,,,,,,,,"[""comma""]",0,16,0,16,0,1,[0.25810000002388733],,
,,,,,,,,,,,,60ec51c51a3158a50ded8a3e,19,Mężczyzna,2022-06-11_11h12.20.055,task,2021.1.4,Win32,60.0024001,6299f149e92ead563fba08ef,62a459983bd53e98fd04c88c,,,,,,,,,,,,,,,,,,,,,,,,,,,,,,,,,,,,,,,,,,,,,,,,,,,,,,,,,,,,,,,,,,,,,,,,,,,,,,,,,,,,,,,,,,,,"[""comma"",""period""]",0,17,0,17,0,1,"[0.2783000000118818,1.77619999998808]",,
,,,,,,,,,,,,60ec51c51a3158a50ded8a3e,19,Mężczyzna,2022-06-11_11h12.20.055,task,2021.1.4,Win32,60.0024001,6299f149e92ead563fba08ef,62a459983bd53e98fd04c88c,,,,,,,,,,,,,,,,,,,,,,,,,,,,,,,,,,,,,,,,,,,,,,,,,,,,,,,,,,,,,,,,,,,,,,,,,,,,,,,,,,,,,,,,,,,,,0,18,0,18,0,1,,,
,,,,,,,,,,,,60ec51c51a3158a50ded8a3e,19,Mężczyzna,2022-06-11_11h12.20.055,task,2021.1.4,Win32,60.0024001,6299f149e92ead563fba08ef,62a459983bd53e98fd04c88c,,,,,,,,,,,,,,,,,,,,,,,,,,,,,,,,,,,,,,,,,,,,,,,,,,,,,,,,,,,,,,,,,,,,,,,,,,,,,,,,,,,,,,,,,,,,"[""comma""]",0,19,0,19,0,1,[0.39190000003566183],,
,,,,,,,,,,,,60ec51c51a3158a50ded8a3e,19,Mężczyzna,2022-06-11_11h12.20.055,task,2021.1.4,Win32,60.0024001,6299f149e92ead563fba08ef,62a459983bd53e98fd04c88c,,,,,,,,,,,,,,,,,,,,,,,,,,,,,,,,,,,,,,,,,,,,,,,,,,,,,,,,,,,,,,,,,,,,,,,,,,,,,,,,,,,,,,,,,,,,"[""period""]",0,20,0,20,0,1,[0.2571000000237973],,
,,,,,,,,,,,,60ec51c51a3158a50ded8a3e,19,Mężczyzna,2022-06-11_11h12.20.055,task,2021.1.4,Win32,60.0024001,6299f149e92ead563fba08ef,62a459983bd53e98fd04c88c,,,,,,,,,,,,,,,,,,,,,,,,,,,,,,,,,,,,,,,,,,,,,,,,,,,,,,,,,,,,,,,,,,,,,,,,,,,,,,,,,,,,,,,,,,,,"[""period""]",0,21,0,21,0,1,[0.25869999998815274],,
,,,,,,,,,,,,60ec51c51a3158a50ded8a3e,19,Mężczyzna,2022-06-11_11h12.20.055,task,2021.1.4,Win32,60.0024001,6299f149e92ead563fba08ef,62a459983bd53e98fd04c88c,,,,,,,,,,,,,,,,,,,,,,,,,,,,,,,,,,,,,,,,,,,,,,,,,,,,,,,,,,,,,,,,,,,,,,,,,,,,,,,,,,,,,,,,,,,,"[""period""]",0,22,0,22,0,1,[0.20699999999999363],,
,,,,,,,,,,,,60ec51c51a3158a50ded8a3e,19,Mężczyzna,2022-06-11_11h12.20.055,task,2021.1.4,Win32,60.0024001,6299f149e92ead563fba08ef,62a459983bd53e98fd04c88c,,,,,,,,,,,,,,,,,,,,,,,,,,,,,,,,,,,,,,,,,,,,,,,,,,,,,,,,,,,,,,,,,,,,,,,,,,,,,,,,,,,,,,,,,,,,"[""comma""]",0,23,0,23,0,1,[0.2754000000356882],,
,,,,,,,,,,,,60ec51c51a3158a50ded8a3e,19,Mężczyzna,2022-06-11_11h12.20.055,task,2021.1.4,Win32,60.0024001,6299f149e92ead563fba08ef,62a459983bd53e98fd04c88c,,,,,,,,,,,,,,,,,,,,,,,,,,,,,,,,,,,,,,,,,,,,,,,,,,,,,,,,,,,,,,,,,,,,,,,,,,,,,,,,,,,,,,,,,,,,"[""comma""]",0,24,0,24,0,1,[0.293400000035831],,
,,,,,,,,,,,,60ec51c51a3158a50ded8a3e,19,Mężczyzna,2022-06-11_11h12.20.055,task,2021.1.4,Win32,60.0024001,6299f149e92ead563fba08ef,62a459983bd53e98fd04c88c,,,,,,,,,,,,,,,,,,,,,,,,,,,,,,,,,,,,,,,,,,,,,,,,,,,,,,,,,,,,,,,,,,,,,,,,,,,,,,,,,,,,,,,,,,,,"[""period""]",0,25,0,25,0,1,[0.2753999999761163],,
,,,,,,,,,,,,60ec51c51a3158a50ded8a3e,19,Mężczyzna,2022-06-11_11h12.20.055,task,2021.1.4,Win32,60.0024001,6299f149e92ead563fba08ef,62a459983bd53e98fd04c88c,,,,,,,,,,,,,,,,,,,,,,,,,,,,,,,,,,,,,,,,,,,,,,,,,,,,,,,,,,,,,,,,,,,,,,,,,,,,,,,,,,,,,,,,,,,,"[""period""]",0,26,0,26,0,1,[0.2925000000000182],,
,,,,,,,,,,,,60ec51c51a3158a50ded8a3e,19,Mężczyzna,2022-06-11_11h12.20.055,task,2021.1.4,Win32,60.0024001,6299f149e92ead563fba08ef,62a459983bd53e98fd04c88c,,,,,,,,,,,,,,,,,,,,,,,,,,,,,,,,,,,,,,,,,,,,,,,,,,,,,,,,,,,,,,,,,,,,,,,,,,,,,,,,,,,,,,,,,,,,"[""period"",""comma""]",0,27,0,27,0,1,"[0.09440000003576188,0.1076000000238082]",,
,,,,,,,,,,,,60ec51c51a3158a50ded8a3e,19,Mężczyzna,2022-06-11_11h12.20.055,task,2021.1.4,Win32,60.0024001,6299f149e92ead563fba08ef,62a459983bd53e98fd04c88c,,,,,,,,,,,,,,,,,,,,,,,,,,,,,,,,,,,,,,,,,,,,,,,,,,,,,,,,,,,,,,,,,,,,,,,,,,,,,,,,,,,,,,,,,,,,"[""period"",""comma""]",0,28,0,28,0,1,"[0.29010000002381275,0.29750000000001364]",,
,,,,,,,,,,,,60ec51c51a3158a50ded8a3e,19,Mężczyzna,2022-06-11_11h12.20.055,task,2021.1.4,Win32,60.0024001,6299f149e92ead563fba08ef,62a459983bd53e98fd04c88c,,,,,,,,,,,,,,,,,,,,,,,,,,,,,,,,,,,,,,,,,,,,,,,,,,,,,,,,,,,,,,,,,,,,,,,,,,,,,,,,,,,,,,,,,,,,"[""period"",""comma""]",0,29,0,29,0,1,"[0.36289999997609357,0.36689999997611267]",,
,,,,,,,,,,,,60ec51c51a3158a50ded8a3e,19,Mężczyzna,2022-06-11_11h12.20.055,task,2021.1.4,Win32,60.0024001,6299f149e92ead563fba08ef,62a459983bd53e98fd04c88c,,,,,,,,,,,,,,,,,,,,,,,,,,,,,,,,,,,,,,,,,,,,,,,,,,,,,,,,,,,,,,,,,,,,,,,,,,,,,,,,,,,,,,,,,,,,"[""period""]",0,30,0,30,0,1,[0.2419999999999618],,
,,,,,,,,,,,,60ec51c51a3158a50ded8a3e,19,Mężczyzna,2022-06-11_11h12.20.055,task,2021.1.4,Win32,60.0024001,6299f149e92ead563fba08ef,62a459983bd53e98fd04c88c,,,,,,,,,,,,,,,,,,,,,,,,,,,,,,,,,,,,,,,,,,,,,,,,,,,,,,,,,,,,,,,,,,,,,,,,,,,,,,,,,,,,,,,,,,,,"[""comma""]",0,31,0,31,0,1,[0.27580000001194094],,
,,,,,,,,,,,,60ec51c51a3158a50ded8a3e,19,Mężczyzna,2022-06-11_11h12.20.055,task,2021.1.4,Win32,60.0024001,6299f149e92ead563fba08ef,62a459983bd53e98fd04c88c,,,,,,,,,,,,,,,,,,,,,,,,,,,,,,,,,,,,,,,,,,,,,,,,,,,,,,,,,,,,,,,,,,,,,,,,,,,,,,,,,,,,,,,,,,,,"[""period""]",0,32,0,32,0,1,[0.27980000001184635],,
,,,,,,,,,,,,60ec51c51a3158a50ded8a3e,19,Mężczyzna,2022-06-11_11h12.20.055,task,2021.1.4,Win32,60.0024001,6299f149e92ead563fba08ef,62a459983bd53e98fd04c88c,,,,,,,,,,,,,,,,,,,,,,,,,,,,,,,,,,,,,,,,,,,,,,,,,,,,,,,,,,,,,,,,,,,,,,,,,,,,,,,,,,,,,,,,,,,,"[""period""]",0,33,0,33,0,1,[0.28130000001192457],,
,,,,,,,,,,,,60ec51c51a3158a50ded8a3e,19,Mężczyzna,2022-06-11_11h12.20.055,task,2021.1.4,Win32,60.0024001,6299f149e92ead563fba08ef,62a459983bd53e98fd04c88c,,,,,,,,,,,,,,,,,,,,,,,,,,,,,,,,,,,,,,,,,,,,,,,,,,,,,,,,,,,,,,,,,,,,,,,,,,,,,,,,,,,,,,,,,,,,"[""comma""]",0,34,0,34,0,1,[0.2577000000476346],,
,,,,,,,,,,,,60ec51c51a3158a50ded8a3e,19,Mężczyzna,2022-06-11_11h12.20.055,task,2021.1.4,Win32,60.0024001,6299f149e92ead563fba08ef,62a459983bd53e98fd04c88c,,,,,,,,,,,,,,,,,,,,,,,,,,,,,,,,,,,,,,,,,,,,,,,,,,,,,,,,,,,,,,,,,,,,,,,,,,,,,,,,,,,,,,,,,,,,"[""comma"",""period""]",0,35,0,35,0,1,"[0.2443000000120037,1.8783000000119046]",,
,,,,,,,,,,,,60ec51c51a3158a50ded8a3e,19,Mężczyzna,2022-06-11_11h12.20.055,task,2021.1.4,Win32,60.0024001,6299f149e92ead563fba08ef,62a459983bd53e98fd04c88c,,,,,,,,,,,,,,,,,,,,,,,,,,,,,,,,,,,,,,,,,,,,,,,,,,,,,,,,,,,,,,,,,,,,,,,,,,,,,,,,,,,,,,,,,,,,,0,36,0,36,0,1,,,
,,,,,,,,,,,,60ec51c51a3158a50ded8a3e,19,Mężczyzna,2022-06-11_11h12.20.055,task,2021.1.4,Win32,60.0024001,6299f149e92ead563fba08ef,62a459983bd53e98fd04c88c,,,,,,,,,,,,,,,,,,,,,,,,,,,,,,,,,,,,,,,,,,,,,,,,,,,,,,,,,,,,,,,,,,,,,,,,,,,,,,,,,,,,,,,,,,,,"[""period""]",0,37,0,37,0,1,[0.2585999999641899],,
,,,,,,,,,,,,60ec51c51a3158a50ded8a3e,19,Mężczyzna,2022-06-11_11h12.20.055,task,2021.1.4,Win32,60.0024001,6299f149e92ead563fba08ef,62a459983bd53e98fd04c88c,,,,,,,,,,,,,,,,,,,,,,,,,,,,,,,,,,,,,,,,,,,,,,,,,,,,,,,,,,,,,,,,,,,,,,,,,,,,,,,,,,,,,,,,,,,,"[""comma""]",0,38,0,38,0,1,[0.31030000001192093],,
,,,,,,,,,,,,60ec51c51a3158a50ded8a3e,19,Mężczyzna,2022-06-11_11h12.20.055,task,2021.1.4,Win32,60.0024001,6299f149e92ead563fba08ef,62a459983bd53e98fd04c88c,,,,,,,,,,,,,,,,,,,,,,,,,,,,,,,,,,,,,,,,,,,,,,,,,,,,,,,,,,,,,,,,,,,,,,,,,,,,,,,,,,,,,,,,,,,,"[""period""]",0,39,0,39,0,1,[0.2751999999881036],,
,,,,,,,,,,,,60ec51c51a3158a50ded8a3e,19,Mężczyzna,2022-06-11_11h12.20.055,task,2021.1.4,Win32,60.0024001,6299f149e92ead563fba08ef,62a459983bd53e98fd04c88c,,,,,,,,,,,,,,,,,,,,,,,,,,,,,,,,,,,,,,,,,,,,,,,,,,,,,,,,,,,,,,,,,,,,,,,,,,,,,,,,,,,,,,,,,,,,"[""comma""]",0,40,0,40,0,1,[0.2771000000238928],,
,,,,,,,,,,,,60ec51c51a3158a50ded8a3e,19,Mężczyzna,2022-06-11_11h12.20.055,task,2021.1.4,Win32,60.0024001,6299f149e92ead563fba08ef,62a459983bd53e98fd04c88c,,,,,,,,,,,,,,,,,,,,,,,,,,,,,,,,,,,,,,,,,,,,,,,,,,,,,,,,,,,,,,,,,,,,,,,,,,,,,,,,,,,,,,,,,,,,"[""period""]",0,41,0,41,0,1,[0.2751999999881036],,
,,,,,,,,,,,,60ec51c51a3158a50ded8a3e,19,Mężczyzna,2022-06-11_11h12.20.055,task,2021.1.4,Win32,60.0024001,6299f149e92ead563fba08ef,62a459983bd53e98fd04c88c,,,,,,,,,,,,,,,,,,,,,,,,,,,,,,,,,,,,,,,,,,,,,,,,,,,,,,,,,,,,,,,,,,,,,,,,,,,,,,,,,,,,,,,,,,,,"[""comma""]",0,42,0,42,0,1,[0.25730000001180997],,
,,,,,,,,,,,,60ec51c51a3158a50ded8a3e,19,Mężczyzna,2022-06-11_11h12.20.055,task,2021.1.4,Win32,60.0024001,6299f149e92ead563fba08ef,62a459983bd53e98fd04c88c,,,,,,,,,,,,,,,,,,,,,,,,,,,,,,,,,,,,,,,,,,,,,,,,,,,,,,,,,,,,,,,,,,,,,,,,,,,,,,,,,,,,,,,,,,,,"[""comma""]",0,43,0,43,0,1,[0.2620000000000573],,
,,,,,,,,,,,,60ec51c51a3158a50ded8a3e,19,Mężczyzna,2022-06-11_11h12.20.055,task,2021.1.4,Win32,60.0024001,6299f149e92ead563fba08ef,62a459983bd53e98fd04c88c,,,,,,,,,,,,,,,,,,,,,,,,,,,,,,,,,,,,,,,,,,,,,,,,,,,,,,,,,,,,,,,,,,,,,,,,,,,,,,,,,,,,,,,,,,,,"[""comma""]",0,44,0,44,0,1,[0.2426000000237991],,
,,,,,,,,,,,,60ec51c51a3158a50ded8a3e,19,Mężczyzna,2022-06-11_11h12.20.055,task,2021.1.4,Win32,60.0024001,6299f149e92ead563fba08ef,62a459983bd53e98fd04c88c,,,,,,,,,,,,,,,,,,,,,,,,,,,,,,,,,,,,,,,,,,,,,,,,,,,,,,,,,,,,,,,,,,,,,,,,,,,,,,,,,,,,,,,,,,,,"[""comma""]",0,45,0,45,0,1,[0.2583000000119],,
,,,,,,,,,,,,60ec51c51a3158a50ded8a3e,19,Mężczyzna,2022-06-11_11h12.20.055,task,2021.1.4,Win32,60.0024001,6299f149e92ead563fba08ef,62a459983bd53e98fd04c88c,,,,,,,,,,,,,,,,,,,,,,,,,,,,,,,,,,,,,,,,,,,,,,,,,,,,,,,,,,,,,,,,,,,,,,,,,,,,,,,,,,,,,,,,,,,,"[""comma""]",0,46,0,46,0,1,[0.34719999998810636],,
,,,,,,,,,,,,60ec51c51a3158a50ded8a3e,19,Mężczyzna,2022-06-11_11h12.20.055,task,2021.1.4,Win32,60.0024001,6299f149e92ead563fba08ef,62a459983bd53e98fd04c88c,,,,,,,,,,,,,,,,,,,,,,,,,,,,,,,,,,,,,,,,,,,,,,,,,,,,,,,,,,,,,,,,,,,,,,,,,,,,,,,,,,,,,,,,,,,,"[""period""]",0,47,0,47,0,1,[0.3133000000119637],,
,,,,,,,,,,,,60ec51c51a3158a50ded8a3e,19,Mężczyzna,2022-06-11_11h12.20.055,task,2021.1.4,Win32,60.0024001,6299f149e92ead563fba08ef,62a459983bd53e98fd04c88c,,,,,,,,,,,,,,,,,,,,,,,,,,,,,,,,,,,,,,,,,,,,,,,,,,,,,,,,,,,,,,,,,,,,,,,,,,,,,,,,,,,,,,,,,,,,"[""period""]",0,48,0,48,0,1,[0.24099999999998545],,
,,,,,,,,,,,,60ec51c51a3158a50ded8a3e,19,Mężczyzna,2022-06-11_11h12.20.055,task,2021.1.4,Win32,60.0024001,6299f149e92ead563fba08ef,62a459983bd53e98fd04c88c,,,,,,,,,,,,,,,,,,,,,,,,,,,,,,,,,,,,,,,,,,,,,,,,,,,,,,,,,,,,,,,,,,,,,,,,,,,,,,,,,,,,,,,,,,,,"[""comma""]",0,49,0,49,0,1,[0.07900000000006457],,
,,,,,,,,,,,,60ec51c51a3158a50ded8a3e,19,Mężczyzna,2022-06-11_11h12.20.055,task,2021.1.4,Win32,60.0024001,6299f149e92ead563fba08ef,62a459983bd53e98fd04c88c,,,,,,,,,,,,,,,,,,,,,,,,,,,,,,,,,,,,,,,,,,,,,,,,,,,,,,,,,,,,,,,,,,,,,,,,,,,,,,,,,,,,,,,,,,,,"[""period""]",0,50,0,50,0,1,[0.24119999998799813],,
,,,,,,,,,,,,60ec51c51a3158a50ded8a3e,19,Mężczyzna,2022-06-11_11h12.20.055,task,2021.1.4,Win32,60.0024001,6299f149e92ead563fba08ef,62a459983bd53e98fd04c88c,,,,,,,,,,,,,,,,,,,,,,,,,,,,,,,,,,,,,,,,,,,,,,,,,,,,,,,,,,,,,,,,,,,,,,,,,,,,,,,,,,,,,,,,,,,,"[""period""]",0,51,0,51,0,1,[0.34050000000002],,
,,,,,,,,,,,,60ec51c51a3158a50ded8a3e,19,Mężczyzna,2022-06-11_11h12.20.055,task,2021.1.4,Win32,60.0024001,6299f149e92ead563fba08ef,62a459983bd53e98fd04c88c,,,,,,,,,,,,,,,,,,,,,,,,,,,,,,,,,,,,,,,,,,,,,,,,,,,,,,,,,,,,,,,,,,,,,,,,,,,,,,,,,,,,,,,,,,,,"[""period""]",0,52,0,52,0,1,[0.2918999999761809],,
,,,,,,,,,,,,60ec51c51a3158a50ded8a3e,19,Mężczyzna,2022-06-11_11h12.20.055,task,2021.1.4,Win32,60.0024001,6299f149e92ead563fba08ef,62a459983bd53e98fd04c88c,,,,,,,,,,,,,,,,,,,,,,,,,,,,,,,,,,,,,,,,,,,,,,,,,,,,,,,,,,,,,,,,,,,,,,,,,,,,,,,,,,,,,,,,,,,,"[""comma""]",0,53,0,53,0,1,[0.2245999999641981],,
,,,,,,,,,,,,60ec51c51a3158a50ded8a3e,19,Mężczyzna,2022-06-11_11h12.20.055,task,2021.1.4,Win32,60.0024001,6299f149e92ead563fba08ef,62a459983bd53e98fd04c88c,,,,,,,,,,,,,,,,,,,,,,,,,,,,,,,,,,,,,,,,,,,,,,,,,,,,,,,,,,,,,,,,,,,,,,,,,,,,,,,,,,,,,,,,,,,,"[""period""]",0,54,0,54,0,1,[0.057699999988017225],,
,,,,,,,,,,,,60ec51c51a3158a50ded8a3e,19,Mężczyzna,2022-06-11_11h12.20.055,task,2021.1.4,Win32,60.0024001,6299f149e92ead563fba08ef,62a459983bd53e98fd04c88c,,,,,,,,,,,,,,,,,,,,,,,,,,,,,,,,,,,,,,,,,,,,,,,,,,,,,,,,,,,,,,,,,,,,,,,,,,,,,,,,,,,,,,,,,,,,"[""comma""]",0,55,0,55,0,1,[0.2625000000000455],,
,,,,,,,,,,,,60ec51c51a3158a50ded8a3e,19,Mężczyzna,2022-06-11_11h12.20.055,task,2021.1.4,Win32,60.0024001,6299f149e92ead563fba08ef,62a459983bd53e98fd04c88c,,,,,,,,,,,,,,,,,,,,,,,,,,,,,,,,,,,,,,,,,,,,,,,,,,,,,,,,,,,,,,,,,,,,,,,,,,,,,,,,,,,,,,,,,,,,"[""comma""]",0,56,0,56,0,1,[0.27439999997613995],,
,,,,,,,,,,,,60ec51c51a3158a50ded8a3e,19,Mężczyzna,2022-06-11_11h12.20.055,task,2021.1.4,Win32,60.0024001,6299f149e92ead563fba08ef,62a459983bd53e98fd04c88c,,,,,,,,,,,,,,,,,,,,,,,,,,,,,,,,,,,,,,,,,,,,,,,,,,,,,,,,,,,,,,,,,,,,,,,,,,,,,,,,,,,,,,,,,,,,"[""period""]",0,57,0,57,0,1,[0.24019999998802177],,
,,,,,,,,,,,,60ec51c51a3158a50ded8a3e,19,Mężczyzna,2022-06-11_11h12.20.055,task,2021.1.4,Win32,60.0024001,6299f149e92ead563fba08ef,62a459983bd53e98fd04c88c,,,,,,,,,,,,,,,,,,,,,,,,,,,,,,,,,,,,,,,,,,,,,,,,,,,,,,,,,,,,,,,,,,,,,,,,,,,,,,,,,,,,,,,,,,,,"[""comma""]",0,58,0,58,0,1,[0.2576999999880627],,
,,,,,,,,,,,,60ec51c51a3158a50ded8a3e,19,Mężczyzna,2022-06-11_11h12.20.055,task,2021.1.4,Win32,60.0024001,6299f149e92ead563fba08ef,62a459983bd53e98fd04c88c,,,,,,,,,,,,,,,,,,,,,,,,,,,,,,,,,,,,,,,,,,,,,,,,,,,,,,,,,,,,,,,,,,,,,,,,,,,,,,,,,,,,,,,,,,,,"[""comma""]",0,59,0,59,0,1,[0.2902999999523672],,
,,,,,,,,,,,,60ec51c51a3158a50ded8a3e,19,Mężczyzna,2022-06-11_11h12.20.055,task,2021.1.4,Win32,60.0024001,6299f149e92ead563fba08ef,62a459983bd53e98fd04c88c,,,,,,,,,,,,,,,,,,,,,,,,,,,,,,,,,,,,,,,,,,,,,,,,,,,,,,,,,,,,,,,,,,,,,,,,,,,,,,,,,,,,,,,,,,,,"[""period""]",0,60,0,60,0,1,[0.2573999999762009],,
,,,,,,,,,,,,60ec51c51a3158a50ded8a3e,19,Mężczyzna,2022-06-11_11h12.20.055,task,2021.1.4,Win32,60.0024001,6299f149e92ead563fba08ef,62a459983bd53e98fd04c88c,,,,,,,,,,,,,,,,,,,,,,,,,,,,,,,,,,,,,,,,,,,,,,,,,,,,,,,,,,,,,,,,,,,,,,,,,,,,,,,,,,,,,,,,,,,,"[""comma""]",0,61,0,61,0,1,[0.10969999998803814],,
,,,,,,,,,,,,60ec51c51a3158a50ded8a3e,19,Mężczyzna,2022-06-11_11h12.20.055,task,2021.1.4,Win32,60.0024001,6299f149e92ead563fba08ef,62a459983bd53e98fd04c88c,,,,,,,,,,,,,,,,,,,,,,,,,,,,,,,,,,,,,,,,,,,,,,,,,,,,,,,,,,,,,,,,,,,,,,,,,,,,,,,,,,,,,,,,,,,,"[""comma""]",0,62,0,62,0,1,[0.2243000000119082],,
,,,,,,,,,,,,60ec51c51a3158a50ded8a3e,19,Mężczyzna,2022-06-11_11h12.20.055,task,2021.1.4,Win32,60.0024001,6299f149e92ead563fba08ef,62a459983bd53e98fd04c88c,,,,,,,,,,,,,,,,,,,,,,,,,,,,,,,,,,,,,,,,,,,,,,,,,,,,,,,,,,,,,,,,,,,,,,,,,,,,,,,,,,,,,,,,,,,,"[""period""]",0,63,0,63,0,1,[0.058099999964269955],,
,,,,,,,,,,,,60ec51c51a3158a50ded8a3e,19,Mężczyzna,2022-06-11_11h12.20.055,task,2021.1.4,Win32,60.0024001,6299f149e92ead563fba08ef,62a459983bd53e98fd04c88c,,,,,,,,,,,,,,,,,,,,,,,,,,,,,,,,,,,,,,,,,,,,,,,,,,,,,,,,,,,,,,,,,,,,,,,,,,,,,,,,,,,,,,,,,,,,"[""period""]",0,64,0,64,0,1,[0.1584000000357264],,
,,,,,,,,,,,,60ec51c51a3158a50ded8a3e,19,Mężczyzna,2022-06-11_11h12.20.055,task,2021.1.4,Win32,60.0024001,6299f149e92ead563fba08ef,62a459983bd53e98fd04c88c,,,,,,,,,,,,,,,,,,,,,,,,,,,,,,,,,,,,,,,,,,,,,,,,,,,,,,,,,,,,,,,,,,,,,,,,,,,,,,,,,,,,,,,,,,,,"[""comma""]",0,65,0,65,0,1,[0.20789999997612085],,
,,,,,,,,,,,,60ec51c51a3158a50ded8a3e,19,Mężczyzna,2022-06-11_11h12.20.055,task,2021.1.4,Win32,60.0024001,6299f149e92ead563fba08ef,62a459983bd53e98fd04c88c,,,,,,,,,,,,,,,,,,,,,,,,,,,,,,,,,,,,,,,,,,,,,,,,,,,,,,,,,,,,,,,,,,,,,,,,,,,,,,,,,,,,,,,,,,,,"[""comma""]",0,66,0,66,0,1,[0.22510000002387187],,
,,,,,,,,,,,,60ec51c51a3158a50ded8a3e,19,Mężczyzna,2022-06-11_11h12.20.055,task,2021.1.4,Win32,60.0024001,6299f149e92ead563fba08ef,62a459983bd53e98fd04c88c,,,,,,,,,,,,,,,,,,,,,,,,,,,,,,,,,,,,,,,,,,,,,,,,,,,,,,,,,,,,,,,,,,,,,,,,,,,,,,,,,,,,,,,,,,,,"[""period""]",0,67,0,67,0,1,[0.2922000000476146],,
,,,,,,,,,,,,60ec51c51a3158a50ded8a3e,19,Mężczyzna,2022-06-11_11h12.20.055,task,2021.1.4,Win32,60.0024001,6299f149e92ead563fba08ef,62a459983bd53e98fd04c88c,,,,,,,,,,,,,,,,,,,,,,,,,,,,,,,,,,,,,,,,,,,,,,,,,,,,,,,,,,,,,,,,,,,,,,,,,,,,,,,,,,,,,,,,,,,,"[""comma""]",0,68,0,68,0,1,[0.29319999998813273],,
,,,,,,,,,,,,60ec51c51a3158a50ded8a3e,19,Mężczyzna,2022-06-11_11h12.20.055,task,2021.1.4,Win32,60.0024001,6299f149e92ead563fba08ef,62a459983bd53e98fd04c88c,,,,,,,,,,,,,,,,,,,,,,,,,,,,,,,,,,,,,,,,,,,,,,,,,,,,,,,,,,,,,,,,,,,,,,,,,,,,,,,,,,,,,,,,,,,,"[""period""]",0,69,0,69,0,1,[0.3081999999881191],,
,,,,,,,,,,,,60ec51c51a3158a50ded8a3e,19,Mężczyzna,2022-06-11_11h12.20.055,task,2021.1.4,Win32,60.0024001,6299f149e92ead563fba08ef,62a459983bd53e98fd04c88c,,,,,,,,,,,,,,,,,,,,,,,,,,,,,,,,,,,,,,,,,,,,,,,,,,,,,,,,,,,,,,,,,,,,,,,,,,,,,,,,,,,,,,,,,,,,"[""period""]",0,70,0,70,0,1,[0.3473000000118418],,
,,,,,,,,,,,,60ec51c51a3158a50ded8a3e,19,Mężczyzna,2022-06-11_11h12.20.055,task,2021.1.4,Win32,60.0024001,6299f149e92ead563fba08ef,62a459983bd53e98fd04c88c,,,,,,,,,,,,,,,,,,,,,,,,,,,,,,,,,,,,,,,,,,,,,,,,,,,,,,,,,,,,,,,,,,,,,,,,,,,,,,,,,,,,,,,,,,,,"[""comma""]",0,71,0,71,0,1,[0.30780000001186636],,
,,,,,,,,,,,,60ec51c51a3158a50ded8a3e,19,Mężczyzna,2022-06-11_11h12.20.055,task,2021.1.4,Win32,60.0024001,6299f149e92ead563fba08ef,62a459983bd53e98fd04c88c,,,,,,,,,,,,,,,,,,,,,,,,,,,,,,,,,,,,,,,,,,,,,,,,,,,,,,,,,,,,,,,,,,,,,,,,,,,,,,,,,,,,,,,,,,,,"[""comma""]",0,72,0,72,0,1,[0.24510000002374],,
,,,,,,,,,,,,60ec51c51a3158a50ded8a3e,19,Mężczyzna,2022-06-11_11h12.20.055,task,2021.1.4,Win32,60.0024001,6299f149e92ead563fba08ef,62a459983bd53e98fd04c88c,,,,,,,,,,,,,,,,,,,,,,,,,,,,,,,,,,,,,,,,,,,,,,,,,,,,,,,,,,,,,,,,,,,,,,,,,,,,,,,,,,,,,,,,,,,,"[""period""]",0,73,0,73,0,1,[0.2950999999642363],,
,,,,,,,,,,,,60ec51c51a3158a50ded8a3e,19,Mężczyzna,2022-06-11_11h12.20.055,task,2021.1.4,Win32,60.0024001,6299f149e92ead563fba08ef,62a459983bd53e98fd04c88c,,,,,,,,,,,,,,,,,,,,,,,,,,,,,,,,,,,,,,,,,,,,,,,,,,,,,,,,,,,,,,,,,,,,,,,,,,,,,,,,,,,,,,,,,,,,"[""period""]",0,74,0,74,0,1,[0.3088000000119564],,
,,,,,,,,,,,,60ec51c51a3158a50ded8a3e,19,Mężczyzna,2022-06-11_11h12.20.055,task,2021.1.4,Win32,60.0024001,6299f149e92ead563fba08ef,62a459983bd53e98fd04c88c,,,,,,,,,,,,,,,,,,,,,,,,,,,,,,,,,,,,,,,,,,,,,,,,,,,,,,,,,,,,,,,,,,,,,,,,,,,,,,,,,,,,,,,,,,,,"[""period""]",0,75,0,75,0,1,[0.3572999999522608],,
,,,,,,,,,,,,60ec51c51a3158a50ded8a3e,19,Mężczyzna,2022-06-11_11h12.20.055,task,2021.1.4,Win32,60.0024001,6299f149e92ead563fba08ef,62a459983bd53e98fd04c88c,,,,,,,,,,,,,,,,,,,,,,,,,,,,,,,,,,,,,,,,,,,,,,,,,,,,,,,,,,,,,,,,,,,,,,,,,,,,,,,,,,,,,,,,,,,,"[""comma""]",0,76,0,76,0,1,[0.2796000000238337],,
,,,,,,,,,,,,60ec51c51a3158a50ded8a3e,19,Mężczyzna,2022-06-11_11h12.20.055,task,2021.1.4,Win32,60.0024001,6299f149e92ead563fba08ef,62a459983bd53e98fd04c88c,,,,,,,,,,,,,,,,,,,,,,,,,,,,,,,,,,,,,,,,,,,,,,,,,,,,,,,,,,,,,,,,,,,,,,,,,,,,,,,,,,,,,,,,,,,,"[""period""]",0,77,0,77,0,1,[0.8099999999999454],,
,,,,,,,,,,,,60ec51c51a3158a50ded8a3e,19,Mężczyzna,2022-06-11_11h12.20.055,task,2021.1.4,Win32,60.0024001,6299f149e92ead563fba08ef,62a459983bd53e98fd04c88c,,,,,,,,,,,,,,,,,,,,,,,,,,,,,,,,,,,,,,,,,,,,,,,,,,,,,,,,,,,,,,,,,,,,,,,,,,,,,,,,,,,,,,,,,,,,"[""comma""]",0,78,0,78,0,1,[0.3141999999880909],,
,,,,,,,,,,,,60ec51c51a3158a50ded8a3e,19,Mężczyzna,2022-06-11_11h12.20.055,task,2021.1.4,Win32,60.0024001,6299f149e92ead563fba08ef,62a459983bd53e98fd04c88c,,,,,,,,,,,,,,,,,,,,,,,,,,,,,,,,,,,,,,,,,,,,,,,,,,,,,,,,,,,,,,,,,,,,,,,,,,,,,,,,,,,,,,,,,,,,"[""period""]",0,79,0,79,0,1,[0.35890000003576006],,
,,,,,,,,,,,,60ec51c51a3158a50ded8a3e,19,Mężczyzna,2022-06-11_11h12.20.055,task,2021.1.4,Win32,60.0024001,6299f149e92ead563fba08ef,62a459983bd53e98fd04c88c,,,,,,,,,,,,,,,,,,,,,,,,,,,,,,,,,,,,,,,,,,,,,,,,,,,,,,,,,,,,,,,,,,,,,,,,,,,,,,,,,,,,,,,,,,,,"[""comma""]",0,80,0,80,0,1,[0.3109999999999218],,
,,,,,,,,,,,,60ec51c51a3158a50ded8a3e,19,Mężczyzna,2022-06-11_11h12.20.055,task,2021.1.4,Win32,60.0024001,6299f149e92ead563fba08ef,62a459983bd53e98fd04c88c,,,,,,,,,,,,,,,,,,,,,,,,,,,,,,,,,,,,,,,,,,,,,,,,,,,,,,,,,,,,,,,,,,,,,,,,,,,,,,,,,,,,,,,,,,,,"[""period""]",0,81,0,81,0,1,[0.30889999997611994],,
,,,,,,,,,,,,60ec51c51a3158a50ded8a3e,19,Mężczyzna,2022-06-11_11h12.20.055,task,2021.1.4,Win32,60.0024001,6299f149e92ead563fba08ef,62a459983bd53e98fd04c88c,,,,,,,,,,,,,,,,,,,,,,,,,,,,,,,,,,,,,,,,,,,,,,,,,,,,,,,,,,,,,,,,,,,,,,,,,,,,,,,,,,,,,,,,,,,,"[""period""]",0,82,0,82,0,1,[0.2930999999641699],,
,,,,,,,,,,,,60ec51c51a3158a50ded8a3e,19,Mężczyzna,2022-06-11_11h12.20.055,task,2021.1.4,Win32,60.0024001,6299f149e92ead563fba08ef,62a459983bd53e98fd04c88c,,,,,,,,,,,,,,,,,,,,,,,,,,,,,,,,,,,,,,,,,,,,,,,,,,,,,,,,,,,,,,,,,,,,,,,,,,,,,,,,,,,,,,,,,,,,"[""comma""]",0,83,0,83,0,1,[0.24240000003578643],,
,,,,,,,,,,,,60ec51c51a3158a50ded8a3e,19,Mężczyzna,2022-06-11_11h12.20.055,task,2021.1.4,Win32,60.0024001,6299f149e92ead563fba08ef,62a459983bd53e98fd04c88c,,,,,,,,,,,,,,,,,,,,,,,,,,,,,,,,,,,,,,,,,,,,,,,,,,,,,,,,,,,,,,,,,,,,,,,,,,,,,,,,,,,,,,,,,,,,"[""period""]",0,84,0,84,0,1,[0.12800000000004275],,
,,,,,,,,,,,,60ec51c51a3158a50ded8a3e,19,Mężczyzna,2022-06-11_11h12.20.055,task,2021.1.4,Win32,60.0024001,6299f149e92ead563fba08ef,62a459983bd53e98fd04c88c,,,,,,,,,,,,,,,,,,,,,,,,,,,,,,,,,,,,,,,,,,,,,,,,,,,,,,,,,,,,,,,,,,,,,,,,,,,,,,,,,,,,,,,,,,,,"[""comma""]",0,85,0,85,0,1,[0.2902000000476619],,
,,,,,,,,,,,,60ec51c51a3158a50ded8a3e,19,Mężczyzna,2022-06-11_11h12.20.055,task,2021.1.4,Win32,60.0024001,6299f149e92ead563fba08ef,62a459983bd53e98fd04c88c,,,,,,,,,,,,,,,,,,,,,,,,,,,,,,,,,,,,,,,,,,,,,,,,,,,,,,,,,,,,,,,,,,,,,,,,,,,,,,,,,,,,,,,,,,,,"[""period""]",0,86,0,86,0,1,[0.24860000002377092],,
,,,,,,,,,,,,60ec51c51a3158a50ded8a3e,19,Mężczyzna,2022-06-11_11h12.20.055,task,2021.1.4,Win32,60.0024001,6299f149e92ead563fba08ef,62a459983bd53e98fd04c88c,,,,,,,,,,,,,,,,,,,,,,,,,,,,,,,,,,,,,,,,,,,,,,,,,,,,,,,,,,,,,,,,,,,,,,,,,,,,,,,,,,,,,,,,,,,,"[""period""]",0,87,0,87,0,1,[0.31270000004769827],,
,,,,,,,,,,,,60ec51c51a3158a50ded8a3e,19,Mężczyzna,2022-06-11_11h12.20.055,task,2021.1.4,Win32,60.0024001,6299f149e92ead563fba08ef,62a459983bd53e98fd04c88c,,,,,,,,,,,,,,,,,,,,,,,,,,,,,,,,,,,,,,,,,,,,,,,,,,,,,,,,,,,,,,,,,,,,,,,,,,,,,,,,,,,,,,,,,,,,"[""comma""]",0,88,0,88,0,1,[0.23280000001193457],,
,,,,,,,,,,,,60ec51c51a3158a50ded8a3e,19,Mężczyzna,2022-06-11_11h12.20.055,task,2021.1.4,Win32,60.0024001,6299f149e92ead563fba08ef,62a459983bd53e98fd04c88c,,,,,,,,,,,,,,,,,,,,,,,,,,,,,,,,,,,,,,,,,,,,,,,,,,,,,,,,,,,,,,,,,,,,,,,,,,,,,,,,,,,,,,,,,,,,"[""period""]",0,89,0,89,0,1,[0.2074999999999818],,
,,,,,,,,,,,,60ec51c51a3158a50ded8a3e,19,Mężczyzna,2022-06-11_11h12.20.055,task,2021.1.4,Win32,60.0024001,6299f149e92ead563fba08ef,62a459983bd53e98fd04c88c,,,,,,,,,,,,,,,,,,,,,,,,,,,,,,,,,,,,,,,,,,,,,,,,,,,,,,,,,,,,,,,,,,,,,,,,,,,,,,,,,,,,,,,,,,,,"[""comma""]",0,90,0,90,0,1,[0.2731000000238737],,
,,,,,,,,,,,,60ec51c51a3158a50ded8a3e,19,Mężczyzna,2022-06-11_11h12.20.055,task,2021.1.4,Win32,60.0024001,6299f149e92ead563fba08ef,62a459983bd53e98fd04c88c,,,,,,,,,,,,,,,,,,,,,,,,,,,,,,,,,,,,,,,,,,,,,,,,,,,,,,,,,,,,,,,,,,,,,,,,,,,,,,,,,,,,,,,,,,,,"[""comma""]",0,91,0,91,0,1,[0.34460000002388824],,
,,,,,,,,,,,,60ec51c51a3158a50ded8a3e,19,Mężczyzna,2022-06-11_11h12.20.055,task,2021.1.4,Win32,60.0024001,6299f149e92ead563fba08ef,62a459983bd53e98fd04c88c,,,,,,,,,,,,,,,,,,,,,,,,,,,,,,,,,,,,,,,,,,,,,,,,,,,,,,,,,,,,,,,,,,,,,,,,,,,,,,,,,,,,,,,,,,,,"[""comma""]",0,92,0,92,0,1,[0.28100000000006276],,
,,,,,,,,,,,,60ec51c51a3158a50ded8a3e,19,Mężczyzna,2022-06-11_11h12.20.055,task,2021.1.4,Win32,60.0024001,6299f149e92ead563fba08ef,62a459983bd53e98fd04c88c,,,,,,,,,,,,,,,,,,,,,,,,,,,,,,,,,,,,,,,,,,,,,,,,,,,,,,,,,,,,,,,,,,,,,,,,,,,,,,,,,,,,,,,,,,,,"[""period""]",0,93,0,93,0,1,[0.28240000003586374],,
,,,,,,,,,,,,60ec51c51a3158a50ded8a3e,19,Mężczyzna,2022-06-11_11h12.20.055,task,2021.1.4,Win32,60.0024001,6299f149e92ead563fba08ef,62a459983bd53e98fd04c88c,,,,,,,,,,,,,,,,,,,,,,,,,,,,,,,,,,,,,,,,,,,,,,,,,,,,,,,,,,,,,,,,,,,,,,,,,,,,,,,,,,,,,,,,,,,,"[""period""]",0,94,0,94,0,1,[0.2591999999881409],,
,,,,,,,,,,,,60ec51c51a3158a50ded8a3e,19,Mężczyzna,2022-06-11_11h12.20.055,task,2021.1.4,Win32,60.0024001,6299f149e92ead563fba08ef,62a459983bd53e98fd04c88c,,,,,,,,,,,,,,,,,,,,,,,,,,,,,,,,,,,,,,,,,,,,,,,,,,,,,,,,,,,,,,,,,,,,,,,,,,,,,,,,,,,,,,,,,,,,"[""comma""]",0,95,0,95,0,1,[0.2976999999880263],,
,,,,,,,,,,,,60ec51c51a3158a50ded8a3e,19,Mężczyzna,2022-06-11_11h12.20.055,task,2021.1.4,Win32,60.0024001,6299f149e92ead563fba08ef,62a459983bd53e98fd04c88c,,,,,,,,,,,,,,,,,,,,,,,,,,,,,,,,,,,,,,,,,,,,,,,,,,,,,,,,,,,,,,,,,,,,,,,,,,,,,,,,,,,,,,,,,,,,"[""comma""]",0,96,0,96,0,1,[0.42690000003563],,
,,,,,,,,,,,,60ec51c51a3158a50ded8a3e,19,Mężczyzna,2022-06-11_11h12.20.055,task,2021.1.4,Win32,60.0024001,6299f149e92ead563fba08ef,62a459983bd53e98fd04c88c,,,,,,,,,,,,,,,,,,,,,,,,,,,,,,,,,,,,,,,,,,,,,,,,,,,,,,,,,,,,,,,,,,,,,,,,,,,,,,,,,,,,,,,,,,,,"[""period""]",0,97,0,97,0,1,[0.30860000002371635],,
,,,,,,,,,,,,60ec51c51a3158a50ded8a3e,19,Mężczyzna,2022-06-11_11h12.20.055,task,2021.1.4,Win32,60.0024001,6299f149e92ead563fba08ef,62a459983bd53e98fd04c88c,,,,,,,,,,,,,,,,,,,,,,,,,,,,,,,,,,,,,,,,,,,,,,,,,,,,,,,,,,,,,,,,,,,,,,,,,,,,,,,,,,,,,,,,,,,,"[""comma""]",0,98,0,98,0,1,[0.2741999999880136],,
,,,,,,,,,,,,60ec51c51a3158a50ded8a3e,19,Mężczyzna,2022-06-11_11h12.20.055,task,2021.1.4,Win32,60.0024001,6299f149e92ead563fba08ef,62a459983bd53e98fd04c88c,,,,,,,,,,,,,,,,,,,,,,,,,,,,,,,,,,,,,,,,,,,,,,,,,,,,,,,,,,,,,,,,,,,,,,,,,,,,,,,,,,,,,,,,,,,,"[""period""]",0,99,0,99,0,1,[0.24069999998800995],,
,,,,,,,,,,,,60ec51c51a3158a50ded8a3e,19,Mężczyzna,2022-06-11_11h12.20.055,task,2021.1.4,Win32,60.0024001,6299f149e92ead563fba08ef,62a459983bd53e98fd04c88c,,,,,,,,,,,,,,,,,,,,,,,,,,,,,,,,,,,,,,,,,,,,,,,,,,,,,,,,,,,,,,,,,,,,,,,,,,,,,,,,,,,,,,,,,,,,"[""period""]",0,100,0,100,0,1,[0.26380000001176995],,
,,,,,,,,,,,,60ec51c51a3158a50ded8a3e,19,Mężczyzna,2022-06-11_11h12.20.055,task,2021.1.4,Win32,60.0024001,6299f149e92ead563fba08ef,62a459983bd53e98fd04c88c,,,,,,,,,,,,,,,,,,,,,,,,,,,,,,,,,,,,,,,,,,,,,,,,,,,,,,,,,,,,,,,,,,,,,,,,,,,,,,,,,,,,,,,,,,,,"[""comma""]",0,101,0,101,0,1,[0.3253000000117936],,
,,,,,,,,,,,,60ec51c51a3158a50ded8a3e,19,Mężczyzna,2022-06-11_11h12.20.055,task,2021.1.4,Win32,60.0024001,6299f149e92ead563fba08ef,62a459983bd53e98fd04c88c,,,,,,,,,,,,,,,,,,,,,,,,,,,,,,,,,,,,,,,,,,,,,,,,,,,,,,,,,,,,,,,,,,,,,,,,,,,,,,,,,,,,,,,,,,,,"[""period""]",0,102,0,102,0,1,[0.29100000000016735],,
,,,,,,,,,,,,60ec51c51a3158a50ded8a3e,19,Mężczyzna,2022-06-11_11h12.20.055,task,2021.1.4,Win32,60.0024001,6299f149e92ead563fba08ef,62a459983bd53e98fd04c88c,,,,,,,,,,,,,,,,,,,,,,,,,,,,,,,,,,,,,,,,,,,,,,,,,,,,,,,,,,,,,,,,,,,,,,,,,,,,,,,,,,,,,,,,,,,,"[""comma""]",0,103,0,103,0,1,[0.3588000000120246],,
,,,,,,,,,,,,60ec51c51a3158a50ded8a3e,19,Mężczyzna,2022-06-11_11h12.20.055,task,2021.1.4,Win32,60.0024001,6299f149e92ead563fba08ef,62a459983bd53e98fd04c88c,,,,,,,,,,,,,,,,,,,,,,,,,,,,,,,,,,,,,,,,,,,,,,,,,,,,,,,,,,,,,,,,,,,,,,,,,,,,,,,,,,,,,,,,,,,,"[""period""]",0,104,0,104,0,1,[0.5482000000477001],,
,,,,,,,,,,,,60ec51c51a3158a50ded8a3e,19,Mężczyzna,2022-06-11_11h12.20.055,task,2021.1.4,Win32,60.0024001,6299f149e92ead563fba08ef,62a459983bd53e98fd04c88c,,,,,,,,,,,,,,,,,,,,,,,,,,,,,,,,,,,,,,,,,,,,,,,,,,,,,,,,,,,,,,,,,,,,,,,,,,,,,,,,,,,,,,,,,,,,"[""period""]",0,105,0,105,0,1,[0.30750000000011823],,
,,,,,,,,,,,,60ec51c51a3158a50ded8a3e,19,Mężczyzna,2022-06-11_11h12.20.055,task,2021.1.4,Win32,60.0024001,6299f149e92ead563fba08ef,62a459983bd53e98fd04c88c,,,,,,,,,,,,,,,,,,,,,,,,,,,,,,,,,,,,,,,,,,,,,,,,,,,,,,,,,,,,,,,,,,,,,,,,,,,,,,,,,,,,,,,,,,,,"[""comma""]",0,106,0,106,0,1,[0.6083000000119227],,
,,,,,,,,,,,,60ec51c51a3158a50ded8a3e,19,Mężczyzna,2022-06-11_11h12.20.055,task,2021.1.4,Win32,60.0024001,6299f149e92ead563fba08ef,62a459983bd53e98fd04c88c,,,,,,,,,,,,,,,,,,,,,,,,,,,,,,,,,,,,,,,,,,,,,,,,,,,,,,,,,,,,,,,,,,,,,,,,,,,,,,,,,,,,,,,,,,,,"[""period""]",0,107,0,107,0,1,[0.22480000001201006],,
,,,,,,,,,,,,60ec51c51a3158a50ded8a3e,19,Mężczyzna,2022-06-11_11h12.20.055,task,2021.1.4,Win32,60.0024001,6299f149e92ead563fba08ef,62a459983bd53e98fd04c88c,,,,,,,,,,,,,,,,,,,,,,,,,,,,,,,,,,,,,,,,,,,,,,,,,,,,,,,,,,,,,,,,,,,,,,,,,,,,,,,,,,,,,,,,,,,,"[""comma""]",0,108,0,108,0,1,[0.49980000001187364],,
,,,,,,,,,,,,60ec51c51a3158a50ded8a3e,19,Mężczyzna,2022-06-11_11h12.20.055,task,2021.1.4,Win32,60.0024001,6299f149e92ead563fba08ef,62a459983bd53e98fd04c88c,,,,,,,,,,,,,,,,,,,,,,,,,,,,,,,,,,,,,,,,,,,,,,,,,,,,,,,,,,,,,,,,,,,,,,,,,,,,,,,,,,,,,,,,,,,,"[""period""]",0,109,0,109,0,1,[0.4406000000237782],,
,,,,,,,,,,,,60ec51c51a3158a50ded8a3e,19,Mężczyzna,2022-06-11_11h12.20.055,task,2021.1.4,Win32,60.0024001,6299f149e92ead563fba08ef,62a459983bd53e98fd04c88c,,,,,,,,,,,,,,,,,,,,,,,,,,,,,,,,,,,,,,,,,,,,,,,,,,,,,,,,,,,,,,,,,,,,,,,,,,,,,,,,,,,,,,,,,,,,"[""period""]",0,110,0,110,0,1,[0.32460000002379275],,
,,,,,,,,,,,,60ec51c51a3158a50ded8a3e,19,Mężczyzna,2022-06-11_11h12.20.055,task,2021.1.4,Win32,60.0024001,6299f149e92ead563fba08ef,62a459983bd53e98fd04c88c,,,,,,,,,,,,,,,,,,,,,,,,,,,,,,,,,,,,,,,,,,,,,,,,,,,,,,,,,,,,,,,,,,,,,,,,,,,,,,,,,,,,,,,,,,,,"[""period""]",0,111,0,111,0,1,[0.2748000000119646],,
,,,,,,,,,,,,60ec51c51a3158a50ded8a3e,19,Mężczyzna,2022-06-11_11h12.20.055,task,2021.1.4,Win32,60.0024001,6299f149e92ead563fba08ef,62a459983bd53e98fd04c88c,,,,,,,,,,,,,,,,,,,,,,,,,,,,,,,,,,,,,,,,,,,,,,,,,,,,,,,,,,,,,,,,,,,,,,,,,,,,,,,,,,,,,,,,,,,,"[""comma""]",0,112,0,112,0,1,[0.29209999996419356],,
,,,,,,,,,,,,60ec51c51a3158a50ded8a3e,19,Mężczyzna,2022-06-11_11h12.20.055,task,2021.1.4,Win32,60.0024001,6299f149e92ead563fba08ef,62a459983bd53e98fd04c88c,,,,,,,,,,,,,,,,,,,,,,,,,,,,,,,,,,,,,,,,,,,,,,,,,,,,,,,,,,,,,,,,,,,,,,,,,,,,,,,,,,,,,,,,,,,,"[""comma""]",0,113,0,113,0,1,[0.2648999999762509],,
,,,,,,,,,,,,60ec51c51a3158a50ded8a3e,19,Mężczyzna,2022-06-11_11h12.20.055,task,2021.1.4,Win32,60.0024001,6299f149e92ead563fba08ef,62a459983bd53e98fd04c88c,,,,,,,,,,,,,,,,,,,,,,,,,,,,,,,,,,,,,,,,,,,,,,,,,,,,,,,,,,,,,,,,,,,,,,,,,,,,,,,,,,,,,,,,,,,,"[""period""]",0,114,0,114,0,1,[0.2415000000000873],,
,,,,,,,,,,,,60ec51c51a3158a50ded8a3e,19,Mężczyzna,2022-06-11_11h12.20.055,task,2021.1.4,Win32,60.0024001,6299f149e92ead563fba08ef,62a459983bd53e98fd04c88c,,,,,,,,,,,,,,,,,,,,,,,,,,,,,,,,,,,,,,,,,,,,,,,,,,,,,,,,,,,,,,,,,,,,,,,,,,,,,,,,,,,,,,,,,,,,"[""comma""]",0,115,0,115,0,1,[0.2821999999880518],,
,,,,,,,,,,,,60ec51c51a3158a50ded8a3e,19,Mężczyzna,2022-06-11_11h12.20.055,task,2021.1.4,Win32,60.0024001,6299f149e92ead563fba08ef,62a459983bd53e98fd04c88c,,,,,,,,,,,,,,,,,,,,,,,,,,,,,,,,,,,,,,,,,,,,,,,,,,,,,,,,,,,,,,,,,,,,,,,,,,,,,,,,,,,,,,,,,,,,"[""period""]",0,116,0,116,0,1,[0.32540000003564273],,
,,,,,,,,,,,,60ec51c51a3158a50ded8a3e,19,Mężczyzna,2022-06-11_11h12.20.055,task,2021.1.4,Win32,60.0024001,6299f149e92ead563fba08ef,62a459983bd53e98fd04c88c,,,,,,,,,,,,,,,,,,,,,,,,,,,,,,,,,,,,,,,,,,,,,,,,,,,,,,,,,,,,,,,,,,,,,,,,,,,,,,,,,,,,,,,,,,,,"[""period""]",0,117,0,117,0,1,[0.39680000001180815],,
,,,,,,,,,,,,60ec51c51a3158a50ded8a3e,19,Mężczyzna,2022-06-11_11h12.20.055,task,2021.1.4,Win32,60.0024001,6299f149e92ead563fba08ef,62a459983bd53e98fd04c88c,,,,,,,,,,,,,,,,,,,,,,,,,,,,,,,,,,,,,,,,,,,,,,,,,,,,,,,,,,,,,,,,,,,,,,,,,,,,,,,,,,,,,,,,,,,,"[""comma""]",0,118,0,118,0,1,[0.3308000000120046],,
,,,,,,,,,,,,60ec51c51a3158a50ded8a3e,19,Mężczyzna,2022-06-11_11h12.20.055,task,2021.1.4,Win32,60.0024001,6299f149e92ead563fba08ef,62a459983bd53e98fd04c88c,,,,,,,,,,,,,,,,,,,,,,,,,,,,,,,,,,,,,,,,,,,,,,,,,,,,,,,,,,,,,,,,,,,,,,,,,,,,,,,,,,,,,,,,,,,,"[""period""]",0,119,0,119,0,1,[0.24219999998808817],,
,,,,,,,,,,,,60ec51c51a3158a50ded8a3e,19,Mężczyzna,2022-06-11_11h12.20.055,task,2021.1.4,Win32,60.0024001,6299f149e92ead563fba08ef,62a459983bd53e98fd04c88c,,,,,,,,,,,,,,,,,,,,,,,,,,,,,,,,,,,,,,,,,,,,,,,,,,,,,,,,,,,,,,,,,,,,,,,,,,,,,,,,,,,,,,,,,,,,,,,,,,,,space,1.8485
