key_resp_15.keys,key_resp_15.rt,key_resp_13.keys,key_resp_13.corr,key_resp_13.rt,ranodm_loop.thisRepN,ranodm_loop.thisTrialN,ranodm_loop.thisN,ranodm_loop.thisIndex,ranodm_loop.ran,participant,Wiek*,Płeć,date,expName,psychopyVersion,OS,frameRate,study_id,session,key_resp_16.keys,key_resp_16.rt,key_resp_4.keys,key_resp_4.rt,next_letter.thisRepN,next_letter.thisTrialN,next_letter.thisN,next_letter.thisIndex,next_letter.ran,letter,simple_recall,key_resp_5.keys,key_resp_5.rt,simple_recall_corr,simple_recall_corrkeys,next_level.thisRepN,next_level.thisTrialN,next_level.thisN,next_level.thisIndex,next_level.ran,key_resp_2.keys,key_resp_2.rt,digit_answer,key_resp.keys,key_resp.corr,key_resp.rt,RT_list,next_equation.thisRepN,next_equation.thisTrialN,next_equation.thisN,next_equation.thisIndex,next_equation.ran,Task,Trial,Problem,Operation_answer,processing_score,sumRT,meanRT,sumdiff,sd,RT,key_resp_3.keys,key_resp_3.rt,repeat_practice.thisRepN,repeat_practice.thisTrialN,repeat_practice.thisN,repeat_practice.thisIndex,repeat_practice.ran,key_resp_6.keys,key_resp_6.rt,key_resp_11.keys,key_resp_11.corr,key_resp_11.rt,operation_correct,repeat_if_wrong_prac.thisRepN,repeat_if_wrong_prac.thisTrialN,repeat_if_wrong_prac.thisN,repeat_if_wrong_prac.thisIndex,repeat_if_wrong_prac.ran,span_size_prac.thisRepN,span_size_prac.thisTrialN,span_size_prac.thisN,span_size_prac.thisIndex,span_size_prac.ran,complex_recall_practice,key_resp_9.keys,key_resp_9.corr,key_resp_9.rt,complex_prac_corr,span_recall_prac.thisRepN,span_recall_prac.thisTrialN,span_recall_prac.thisN,span_recall_prac.thisIndex,span_recall_prac.ran,key_resp_10.keys,key_resp_10.rt,key_resp_7.keys,key_resp_7.corr,repeat_if_wrong.thisRepN,repeat_if_wrong.thisTrialN,repeat_if_wrong.thisN,repeat_if_wrong.thisIndex,repeat_if_wrong.ran,key_resp_7.rt,span_size.thisRepN,span_size.thisTrialN,span_size.thisN,span_size.thisIndex,span_size.ran,complex_recall,key_resp_8.keys,key_resp_8.corr,key_resp_8.rt,complex_recall_corr,complex_recall_corrkeys,span_recall.thisRepN,span_recall.thisTrialN,span_recall.thisN,span_recall.thisIndex,span_recall.ran,key_resp_12.keys,key_resp_12.rt
space,35.2831,"[""comma""]",0,[1.1582000000476853],0,0,0,0,1,60ef4432df04da6821fec20a,24,Mężczyzna,2022-06-04_08h36.23.362,task,2021.1.4,Win32,143.9677512,628b806c463b948bc644b84f,629afd59ca11e57e234c6f59,,,,,,,,,,,,,,,,,,,,,,,,,,,,,,,,,,,,,,,,,,,,,,,,,,,,,,,,,,,,,,,,,,,,,,,,,,,,,,,,,,,,,,,,,,,,,,,,,,,,,,,
,,"[""period""]",0,[0.6111999999284734],1,0,1,0,1,60ef4432df04da6821fec20a,24,Mężczyzna,2022-06-04_08h36.23.362,task,2021.1.4,Win32,143.9677512,628b806c463b948bc644b84f,629afd59ca11e57e234c6f59,,,,,,,,,,,,,,,,,,,,,,,,,,,,,,,,,,,,,,,,,,,,,,,,,,,,,,,,,,,,,,,,,,,,,,,,,,,,,,,,,,,,,,,,,,,,,,,,,,,,,,,
,,"[""period""]",0,[1.0049999999999955],2,0,2,0,1,60ef4432df04da6821fec20a,24,Mężczyzna,2022-06-04_08h36.23.362,task,2021.1.4,Win32,143.9677512,628b806c463b948bc644b84f,629afd59ca11e57e234c6f59,,,,,,,,,,,,,,,,,,,,,,,,,,,,,,,,,,,,,,,,,,,,,,,,,,,,,,,,,,,,,,,,,,,,,,,,,,,,,,,,,,,,,,,,,,,,,,,,,,,,,,,
,,"[""comma""]",0,[1.14910000002385],3,0,3,0,1,60ef4432df04da6821fec20a,24,Mężczyzna,2022-06-04_08h36.23.362,task,2021.1.4,Win32,143.9677512,628b806c463b948bc644b84f,629afd59ca11e57e234c6f59,,,,,,,,,,,,,,,,,,,,,,,,,,,,,,,,,,,,,,,,,,,,,,,,,,,,,,,,,,,,,,,,,,,,,,,,,,,,,,,,,,,,,,,,,,,,,,,,,,,,,,,
,,"[""comma""]",0,[1.3780000000000001],4,0,4,0,1,60ef4432df04da6821fec20a,24,Mężczyzna,2022-06-04_08h36.23.362,task,2021.1.4,Win32,143.9677512,628b806c463b948bc644b84f,629afd59ca11e57e234c6f59,,,,,,,,,,,,,,,,,,,,,,,,,,,,,,,,,,,,,,,,,,,,,,,,,,,,,,,,,,,,,,,,,,,,,,,,,,,,,,,,,,,,,,,,,,,,,,,,,,,,,,,
,,"[""comma""]",0,[0.8782000000476842],5,0,5,0,1,60ef4432df04da6821fec20a,24,Mężczyzna,2022-06-04_08h36.23.362,task,2021.1.4,Win32,143.9677512,628b806c463b948bc644b84f,629afd59ca11e57e234c6f59,,,,,,,,,,,,,,,,,,,,,,,,,,,,,,,,,,,,,,,,,,,,,,,,,,,,,,,,,,,,,,,,,,,,,,,,,,,,,,,,,,,,,,,,,,,,,,,,,,,,,,,
,,"[""period""]",0,[0.9700000000000131],6,0,6,0,1,60ef4432df04da6821fec20a,24,Mężczyzna,2022-06-04_08h36.23.362,task,2021.1.4,Win32,143.9677512,628b806c463b948bc644b84f,629afd59ca11e57e234c6f59,,,,,,,,,,,,,,,,,,,,,,,,,,,,,,,,,,,,,,,,,,,,,,,,,,,,,,,,,,,,,,,,,,,,,,,,,,,,,,,,,,,,,,,,,,,,,,,,,,,,,,,
,,"[""comma""]",0,[0.8231000000238424],7,0,7,0,1,60ef4432df04da6821fec20a,24,Mężczyzna,2022-06-04_08h36.23.362,task,2021.1.4,Win32,143.9677512,628b806c463b948bc644b84f,629afd59ca11e57e234c6f59,,,,,,,,,,,,,,,,,,,,,,,,,,,,,,,,,,,,,,,,,,,,,,,,,,,,,,,,,,,,,,,,,,,,,,,,,,,,,,,,,,,,,,,,,,,,,,,,,,,,,,,
,,"[""period""]",0,[0.8481000000238481],8,0,8,0,1,60ef4432df04da6821fec20a,24,Mężczyzna,2022-06-04_08h36.23.362,task,2021.1.4,Win32,143.9677512,628b806c463b948bc644b84f,629afd59ca11e57e234c6f59,,,,,,,,,,,,,,,,,,,,,,,,,,,,,,,,,,,,,,,,,,,,,,,,,,,,,,,,,,,,,,,,,,,,,,,,,,,,,,,,,,,,,,,,,,,,,,,,,,,,,,,
,,"[""comma""]",0,[0.8551000000238389],9,0,9,0,1,60ef4432df04da6821fec20a,24,Mężczyzna,2022-06-04_08h36.23.362,task,2021.1.4,Win32,143.9677512,628b806c463b948bc644b84f,629afd59ca11e57e234c6f59,,,,,,,,,,,,,,,,,,,,,,,,,,,,,,,,,,,,,,,,,,,,,,,,,,,,,,,,,,,,,,,,,,,,,,,,,,,,,,,,,,,,,,,,,,,,,,,,,,,,,,,
,,"[""period""]",0,[0.7932000000476762],10,0,10,0,1,60ef4432df04da6821fec20a,24,Mężczyzna,2022-06-04_08h36.23.362,task,2021.1.4,Win32,143.9677512,628b806c463b948bc644b84f,629afd59ca11e57e234c6f59,,,,,,,,,,,,,,,,,,,,,,,,,,,,,,,,,,,,,,,,,,,,,,,,,,,,,,,,,,,,,,,,,,,,,,,,,,,,,,,,,,,,,,,,,,,,,,,,,,,,,,,
,,"[""period""]",0,[0.4654000000953715],11,0,11,0,1,60ef4432df04da6821fec20a,24,Mężczyzna,2022-06-04_08h36.23.362,task,2021.1.4,Win32,143.9677512,628b806c463b948bc644b84f,629afd59ca11e57e234c6f59,,,,,,,,,,,,,,,,,,,,,,,,,,,,,,,,,,,,,,,,,,,,,,,,,,,,,,,,,,,,,,,,,,,,,,,,,,,,,,,,,,,,,,,,,,,,,,,,,,,,,,,
,,"[""period""]",0,[0.44220000004769133],12,0,12,0,1,60ef4432df04da6821fec20a,24,Mężczyzna,2022-06-04_08h36.23.362,task,2021.1.4,Win32,143.9677512,628b806c463b948bc644b84f,629afd59ca11e57e234c6f59,,,,,,,,,,,,,,,,,,,,,,,,,,,,,,,,,,,,,,,,,,,,,,,,,,,,,,,,,,,,,,,,,,,,,,,,,,,,,,,,,,,,,,,,,,,,,,,,,,,,,,,
,,"[""period""]",0,[0.261299999952314],13,0,13,0,1,60ef4432df04da6821fec20a,24,Mężczyzna,2022-06-04_08h36.23.362,task,2021.1.4,Win32,143.9677512,628b806c463b948bc644b84f,629afd59ca11e57e234c6f59,,,,,,,,,,,,,,,,,,,,,,,,,,,,,,,,,,,,,,,,,,,,,,,,,,,,,,,,,,,,,,,,,,,,,,,,,,,,,,,,,,,,,,,,,,,,,,,,,,,,,,,
,,"[""period"",""comma""]",0,"[0.1944999999999908,1.9211999999284615]",14,0,14,0,1,60ef4432df04da6821fec20a,24,Mężczyzna,2022-06-04_08h36.23.362,task,2021.1.4,Win32,143.9677512,628b806c463b948bc644b84f,629afd59ca11e57e234c6f59,,,,,,,,,,,,,,,,,,,,,,,,,,,,,,,,,,,,,,,,,,,,,,,,,,,,,,,,,,,,,,,,,,,,,,,,,,,,,,,,,,,,,,,,,,,,,,,,,,,,,,,
,,"[""period""]",0,[1.9280000000000115],15,0,15,0,1,60ef4432df04da6821fec20a,24,Mężczyzna,2022-06-04_08h36.23.362,task,2021.1.4,Win32,143.9677512,628b806c463b948bc644b84f,629afd59ca11e57e234c6f59,,,,,,,,,,,,,,,,,,,,,,,,,,,,,,,,,,,,,,,,,,,,,,,,,,,,,,,,,,,,,,,,,,,,,,,,,,,,,,,,,,,,,,,,,,,,,,,,,,,,,,,
,,,0,,16,0,16,0,1,60ef4432df04da6821fec20a,24,Mężczyzna,2022-06-04_08h36.23.362,task,2021.1.4,Win32,143.9677512,628b806c463b948bc644b84f,629afd59ca11e57e234c6f59,,,,,,,,,,,,,,,,,,,,,,,,,,,,,,,,,,,,,,,,,,,,,,,,,,,,,,,,,,,,,,,,,,,,,,,,,,,,,,,,,,,,,,,,,,,,,,,,,,,,,,,
,,"[""comma""]",0,[0.25010000002384913],17,0,17,0,1,60ef4432df04da6821fec20a,24,Mężczyzna,2022-06-04_08h36.23.362,task,2021.1.4,Win32,143.9677512,628b806c463b948bc644b84f,629afd59ca11e57e234c6f59,,,,,,,,,,,,,,,,,,,,,,,,,,,,,,,,,,,,,,,,,,,,,,,,,,,,,,,,,,,,,,,,,,,,,,,,,,,,,,,,,,,,,,,,,,,,,,,,,,,,,,,
,,"[""period""]",0,[0.22239999997617588],18,0,18,0,1,60ef4432df04da6821fec20a,24,Mężczyzna,2022-06-04_08h36.23.362,task,2021.1.4,Win32,143.9677512,628b806c463b948bc644b84f,629afd59ca11e57e234c6f59,,,,,,,,,,,,,,,,,,,,,,,,,,,,,,,,,,,,,,,,,,,,,,,,,,,,,,,,,,,,,,,,,,,,,,,,,,,,,,,,,,,,,,,,,,,,,,,,,,,,,,,
,,"[""period""]",0,[0.22960000002385073],19,0,19,0,1,60ef4432df04da6821fec20a,24,Mężczyzna,2022-06-04_08h36.23.362,task,2021.1.4,Win32,143.9677512,628b806c463b948bc644b84f,629afd59ca11e57e234c6f59,,,,,,,,,,,,,,,,,,,,,,,,,,,,,,,,,,,,,,,,,,,,,,,,,,,,,,,,,,,,,,,,,,,,,,,,,,,,,,,,,,,,,,,,,,,,,,,,,,,,,,,
,,"[""period""]",0,[0.2022999999523165],20,0,20,0,1,60ef4432df04da6821fec20a,24,Mężczyzna,2022-06-04_08h36.23.362,task,2021.1.4,Win32,143.9677512,628b806c463b948bc644b84f,629afd59ca11e57e234c6f59,,,,,,,,,,,,,,,,,,,,,,,,,,,,,,,,,,,,,,,,,,,,,,,,,,,,,,,,,,,,,,,,,,,,,,,,,,,,,,,,,,,,,,,,,,,,,,,,,,,,,,,
,,"[""period""]",0,[0.06639999997616997],21,0,21,0,1,60ef4432df04da6821fec20a,24,Mężczyzna,2022-06-04_08h36.23.362,task,2021.1.4,Win32,143.9677512,628b806c463b948bc644b84f,629afd59ca11e57e234c6f59,,,,,,,,,,,,,,,,,,,,,,,,,,,,,,,,,,,,,,,,,,,,,,,,,,,,,,,,,,,,,,,,,,,,,,,,,,,,,,,,,,,,,,,,,,,,,,,,,,,,,,,
,,"[""period""]",0,[0.27350000000001273],22,0,22,0,1,60ef4432df04da6821fec20a,24,Mężczyzna,2022-06-04_08h36.23.362,task,2021.1.4,Win32,143.9677512,628b806c463b948bc644b84f,629afd59ca11e57e234c6f59,,,,,,,,,,,,,,,,,,,,,,,,,,,,,,,,,,,,,,,,,,,,,,,,,,,,,,,,,,,,,,,,,,,,,,,,,,,,,,,,,,,,,,,,,,,,,,,,,,,,,,,
,,"[""comma""]",0,[0.35499999999998977],23,0,23,0,1,60ef4432df04da6821fec20a,24,Mężczyzna,2022-06-04_08h36.23.362,task,2021.1.4,Win32,143.9677512,628b806c463b948bc644b84f,629afd59ca11e57e234c6f59,,,,,,,,,,,,,,,,,,,,,,,,,,,,,,,,,,,,,,,,,,,,,,,,,,,,,,,,,,,,,,,,,,,,,,,,,,,,,,,,,,,,,,,,,,,,,,,,,,,,,,,
,,"[""comma""]",0,[0.7723999999761588],24,0,24,0,1,60ef4432df04da6821fec20a,24,Mężczyzna,2022-06-04_08h36.23.362,task,2021.1.4,Win32,143.9677512,628b806c463b948bc644b84f,629afd59ca11e57e234c6f59,,,,,,,,,,,,,,,,,,,,,,,,,,,,,,,,,,,,,,,,,,,,,,,,,,,,,,,,,,,,,,,,,,,,,,,,,,,,,,,,,,,,,,,,,,,,,,,,,,,,,,,
,,"[""comma""]",0,[1.3997999999523074],25,0,25,0,1,60ef4432df04da6821fec20a,24,Mężczyzna,2022-06-04_08h36.23.362,task,2021.1.4,Win32,143.9677512,628b806c463b948bc644b84f,629afd59ca11e57e234c6f59,,,,,,,,,,,,,,,,,,,,,,,,,,,,,,,,,,,,,,,,,,,,,,,,,,,,,,,,,,,,,,,,,,,,,,,,,,,,,,,,,,,,,,,,,,,,,,,,,,,,,,,
,,"[""comma""]",0,[1.0035000000000025],26,0,26,0,1,60ef4432df04da6821fec20a,24,Mężczyzna,2022-06-04_08h36.23.362,task,2021.1.4,Win32,143.9677512,628b806c463b948bc644b84f,629afd59ca11e57e234c6f59,,,,,,,,,,,,,,,,,,,,,,,,,,,,,,,,,,,,,,,,,,,,,,,,,,,,,,,,,,,,,,,,,,,,,,,,,,,,,,,,,,,,,,,,,,,,,,,,,,,,,,,
,,"[""period""]",0,[0.25149999999999295],27,0,27,0,1,60ef4432df04da6821fec20a,24,Mężczyzna,2022-06-04_08h36.23.362,task,2021.1.4,Win32,143.9677512,628b806c463b948bc644b84f,629afd59ca11e57e234c6f59,,,,,,,,,,,,,,,,,,,,,,,,,,,,,,,,,,,,,,,,,,,,,,,,,,,,,,,,,,,,,,,,,,,,,,,,,,,,,,,,,,,,,,,,,,,,,,,,,,,,,,,
,,"[""comma""]",0,[0.2355999999046503],28,0,28,0,1,60ef4432df04da6821fec20a,24,Mężczyzna,2022-06-04_08h36.23.362,task,2021.1.4,Win32,143.9677512,628b806c463b948bc644b84f,629afd59ca11e57e234c6f59,,,,,,,,,,,,,,,,,,,,,,,,,,,,,,,,,,,,,,,,,,,,,,,,,,,,,,,,,,,,,,,,,,,,,,,,,,,,,,,,,,,,,,,,,,,,,,,,,,,,,,,
,,"[""comma""]",0,[0.25710000002385414],29,0,29,0,1,60ef4432df04da6821fec20a,24,Mężczyzna,2022-06-04_08h36.23.362,task,2021.1.4,Win32,143.9677512,628b806c463b948bc644b84f,629afd59ca11e57e234c6f59,,,,,,,,,,,,,,,,,,,,,,,,,,,,,,,,,,,,,,,,,,,,,,,,,,,,,,,,,,,,,,,,,,,,,,,,,,,,,,,,,,,,,,,,,,,,,,,,,,,,,,,
,,"[""comma""]",0,[0.23720000004766462],30,0,30,0,1,60ef4432df04da6821fec20a,24,Mężczyzna,2022-06-04_08h36.23.362,task,2021.1.4,Win32,143.9677512,628b806c463b948bc644b84f,629afd59ca11e57e234c6f59,,,,,,,,,,,,,,,,,,,,,,,,,,,,,,,,,,,,,,,,,,,,,,,,,,,,,,,,,,,,,,,,,,,,,,,,,,,,,,,,,,,,,,,,,,,,,,,,,,,,,,,
,,"[""period""]",0,[0.3395999999046353],31,0,31,0,1,60ef4432df04da6821fec20a,24,Mężczyzna,2022-06-04_08h36.23.362,task,2021.1.4,Win32,143.9677512,628b806c463b948bc644b84f,629afd59ca11e57e234c6f59,,,,,,,,,,,,,,,,,,,,,,,,,,,,,,,,,,,,,,,,,,,,,,,,,,,,,,,,,,,,,,,,,,,,,,,,,,,,,,,,,,,,,,,,,,,,,,,,,,,,,,,
,,"[""comma""]",0,[0.2641000000238307],32,0,32,0,1,60ef4432df04da6821fec20a,24,Mężczyzna,2022-06-04_08h36.23.362,task,2021.1.4,Win32,143.9677512,628b806c463b948bc644b84f,629afd59ca11e57e234c6f59,,,,,,,,,,,,,,,,,,,,,,,,,,,,,,,,,,,,,,,,,,,,,,,,,,,,,,,,,,,,,,,,,,,,,,,,,,,,,,,,,,,,,,,,,,,,,,,,,,,,,,,
,,"[""comma""]",0,[0.250300000071519],33,0,33,0,1,60ef4432df04da6821fec20a,24,Mężczyzna,2022-06-04_08h36.23.362,task,2021.1.4,Win32,143.9677512,628b806c463b948bc644b84f,629afd59ca11e57e234c6f59,,,,,,,,,,,,,,,,,,,,,,,,,,,,,,,,,,,,,,,,,,,,,,,,,,,,,,,,,,,,,,,,,,,,,,,,,,,,,,,,,,,,,,,,,,,,,,,,,,,,,,,
,,"[""period""]",0,[0.20779999995230014],34,0,34,0,1,60ef4432df04da6821fec20a,24,Mężczyzna,2022-06-04_08h36.23.362,task,2021.1.4,Win32,143.9677512,628b806c463b948bc644b84f,629afd59ca11e57e234c6f59,,,,,,,,,,,,,,,,,,,,,,,,,,,,,,,,,,,,,,,,,,,,,,,,,,,,,,,,,,,,,,,,,,,,,,,,,,,,,,,,,,,,,,,,,,,,,,,,,,,,,,,
,,"[""comma""]",0,[0.2715000000000032],35,0,35,0,1,60ef4432df04da6821fec20a,24,Mężczyzna,2022-06-04_08h36.23.362,task,2021.1.4,Win32,143.9677512,628b806c463b948bc644b84f,629afd59ca11e57e234c6f59,,,,,,,,,,,,,,,,,,,,,,,,,,,,,,,,,,,,,,,,,,,,,,,,,,,,,,,,,,,,,,,,,,,,,,,,,,,,,,,,,,,,,,,,,,,,,,,,,,,,,,,
,,"[""period""]",0,[0.25720000004767485],36,0,36,0,1,60ef4432df04da6821fec20a,24,Mężczyzna,2022-06-04_08h36.23.362,task,2021.1.4,Win32,143.9677512,628b806c463b948bc644b84f,629afd59ca11e57e234c6f59,,,,,,,,,,,,,,,,,,,,,,,,,,,,,,,,,,,,,,,,,,,,,,,,,,,,,,,,,,,,,,,,,,,,,,,,,,,,,,,,,,,,,,,,,,,,,,,,,,,,,,,
,,"[""comma""]",0,[0.2016999999284792],37,0,37,0,1,60ef4432df04da6821fec20a,24,Mężczyzna,2022-06-04_08h36.23.362,task,2021.1.4,Win32,143.9677512,628b806c463b948bc644b84f,629afd59ca11e57e234c6f59,,,,,,,,,,,,,,,,,,,,,,,,,,,,,,,,,,,,,,,,,,,,,,,,,,,,,,,,,,,,,,,,,,,,,,,,,,,,,,,,,,,,,,,,,,,,,,,,,,,,,,,
,,"[""comma""]",0,[0.27800000000002],38,0,38,0,1,60ef4432df04da6821fec20a,24,Mężczyzna,2022-06-04_08h36.23.362,task,2021.1.4,Win32,143.9677512,628b806c463b948bc644b84f,629afd59ca11e57e234c6f59,,,,,,,,,,,,,,,,,,,,,,,,,,,,,,,,,,,,,,,,,,,,,,,,,,,,,,,,,,,,,,,,,,,,,,,,,,,,,,,,,,,,,,,,,,,,,,,,,,,,,,,
,,"[""comma""]",0,[0.28489999997614746],39,0,39,0,1,60ef4432df04da6821fec20a,24,Mężczyzna,2022-06-04_08h36.23.362,task,2021.1.4,Win32,143.9677512,628b806c463b948bc644b84f,629afd59ca11e57e234c6f59,,,,,,,,,,,,,,,,,,,,,,,,,,,,,,,,,,,,,,,,,,,,,,,,,,,,,,,,,,,,,,,,,,,,,,,,,,,,,,,,,,,,,,,,,,,,,,,,,,,,,,,
,,"[""comma""]",0,[0.30570000004769327],40,0,40,0,1,60ef4432df04da6821fec20a,24,Mężczyzna,2022-06-04_08h36.23.362,task,2021.1.4,Win32,143.9677512,628b806c463b948bc644b84f,629afd59ca11e57e234c6f59,,,,,,,,,,,,,,,,,,,,,,,,,,,,,,,,,,,,,,,,,,,,,,,,,,,,,,,,,,,,,,,,,,,,,,,,,,,,,,,,,,,,,,,,,,,,,,,,,,,,,,,
,,"[""comma""]",0,[0.29259999990463825],41,0,41,0,1,60ef4432df04da6821fec20a,24,Mężczyzna,2022-06-04_08h36.23.362,task,2021.1.4,Win32,143.9677512,628b806c463b948bc644b84f,629afd59ca11e57e234c6f59,,,,,,,,,,,,,,,,,,,,,,,,,,,,,,,,,,,,,,,,,,,,,,,,,,,,,,,,,,,,,,,,,,,,,,,,,,,,,,,,,,,,,,,,,,,,,,,,,,,,,,,
,,"[""comma""]",0,[0.2708000000715174],42,0,42,0,1,60ef4432df04da6821fec20a,24,Mężczyzna,2022-06-04_08h36.23.362,task,2021.1.4,Win32,143.9677512,628b806c463b948bc644b84f,629afd59ca11e57e234c6f59,,,,,,,,,,,,,,,,,,,,,,,,,,,,,,,,,,,,,,,,,,,,,,,,,,,,,,,,,,,,,,,,,,,,,,,,,,,,,,,,,,,,,,,,,,,,,,,,,,,,,,,
,,"[""period""]",0,[0.27120000004768485],43,0,43,0,1,60ef4432df04da6821fec20a,24,Mężczyzna,2022-06-04_08h36.23.362,task,2021.1.4,Win32,143.9677512,628b806c463b948bc644b84f,629afd59ca11e57e234c6f59,,,,,,,,,,,,,,,,,,,,,,,,,,,,,,,,,,,,,,,,,,,,,,,,,,,,,,,,,,,,,,,,,,,,,,,,,,,,,,,,,,,,,,,,,,,,,,,,,,,,,,,
,,"[""period""]",0,[0.24310000002384413],44,0,44,0,1,60ef4432df04da6821fec20a,24,Mężczyzna,2022-06-04_08h36.23.362,task,2021.1.4,Win32,143.9677512,628b806c463b948bc644b84f,629afd59ca11e57e234c6f59,,,,,,,,,,,,,,,,,,,,,,,,,,,,,,,,,,,,,,,,,,,,,,,,,,,,,,,,,,,,,,,,,,,,,,,,,,,,,,,,,,,,,,,,,,,,,,,,,,,,,,,
,,"[""period""]",0,[0.22860000002384595],45,0,45,0,1,60ef4432df04da6821fec20a,24,Mężczyzna,2022-06-04_08h36.23.362,task,2021.1.4,Win32,143.9677512,628b806c463b948bc644b84f,629afd59ca11e57e234c6f59,,,,,,,,,,,,,,,,,,,,,,,,,,,,,,,,,,,,,,,,,,,,,,,,,,,,,,,,,,,,,,,,,,,,,,,,,,,,,,,,,,,,,,,,,,,,,,,,,,,,,,,
,,"[""period""]",0,[0.32080000007152876],46,0,46,0,1,60ef4432df04da6821fec20a,24,Mężczyzna,2022-06-04_08h36.23.362,task,2021.1.4,Win32,143.9677512,628b806c463b948bc644b84f,629afd59ca11e57e234c6f59,,,,,,,,,,,,,,,,,,,,,,,,,,,,,,,,,,,,,,,,,,,,,,,,,,,,,,,,,,,,,,,,,,,,,,,,,,,,,,,,,,,,,,,,,,,,,,,,,,,,,,,
,,"[""period""]",0,[0.34029999995232174],47,0,47,0,1,60ef4432df04da6821fec20a,24,Mężczyzna,2022-06-04_08h36.23.362,task,2021.1.4,Win32,143.9677512,628b806c463b948bc644b84f,629afd59ca11e57e234c6f59,,,,,,,,,,,,,,,,,,,,,,,,,,,,,,,,,,,,,,,,,,,,,,,,,,,,,,,,,,,,,,,,,,,,,,,,,,,,,,,,,,,,,,,,,,,,,,,,,,,,,,,
,,"[""comma""]",0,[0.23689999997614564],48,0,48,0,1,60ef4432df04da6821fec20a,24,Mężczyzna,2022-06-04_08h36.23.362,task,2021.1.4,Win32,143.9677512,628b806c463b948bc644b84f,629afd59ca11e57e234c6f59,,,,,,,,,,,,,,,,,,,,,,,,,,,,,,,,,,,,,,,,,,,,,,,,,,,,,,,,,,,,,,,,,,,,,,,,,,,,,,,,,,,,,,,,,,,,,,,,,,,,,,,
,,"[""comma""]",0,[0.1980000000000075],49,0,49,0,1,60ef4432df04da6821fec20a,24,Mężczyzna,2022-06-04_08h36.23.362,task,2021.1.4,Win32,143.9677512,628b806c463b948bc644b84f,629afd59ca11e57e234c6f59,,,,,,,,,,,,,,,,,,,,,,,,,,,,,,,,,,,,,,,,,,,,,,,,,,,,,,,,,,,,,,,,,,,,,,,,,,,,,,,,,,,,,,,,,,,,,,,,,,,,,,,
,,"[""period""]",0,[0.23419999992847806],50,0,50,0,1,60ef4432df04da6821fec20a,24,Mężczyzna,2022-06-04_08h36.23.362,task,2021.1.4,Win32,143.9677512,628b806c463b948bc644b84f,629afd59ca11e57e234c6f59,,,,,,,,,,,,,,,,,,,,,,,,,,,,,,,,,,,,,,,,,,,,,,,,,,,,,,,,,,,,,,,,,,,,,,,,,,,,,,,,,,,,,,,,,,,,,,,,,,,,,,,
,,"[""comma""]",0,[0.23510000002386278],51,0,51,0,1,60ef4432df04da6821fec20a,24,Mężczyzna,2022-06-04_08h36.23.362,task,2021.1.4,Win32,143.9677512,628b806c463b948bc644b84f,629afd59ca11e57e234c6f59,,,,,,,,,,,,,,,,,,,,,,,,,,,,,,,,,,,,,,,,,,,,,,,,,,,,,,,,,,,,,,,,,,,,,,,,,,,,,,,,,,,,,,,,,,,,,,,,,,,,,,,
,,"[""period""]",0,[0.2821000000238598],52,0,52,0,1,60ef4432df04da6821fec20a,24,Mężczyzna,2022-06-04_08h36.23.362,task,2021.1.4,Win32,143.9677512,628b806c463b948bc644b84f,629afd59ca11e57e234c6f59,,,,,,,,,,,,,,,,,,,,,,,,,,,,,,,,,,,,,,,,,,,,,,,,,,,,,,,,,,,,,,,,,,,,,,,,,,,,,,,,,,,,,,,,,,,,,,,,,,,,,,,
,,"[""comma""]",0,[0.23310000002385323],53,0,53,0,1,60ef4432df04da6821fec20a,24,Mężczyzna,2022-06-04_08h36.23.362,task,2021.1.4,Win32,143.9677512,628b806c463b948bc644b84f,629afd59ca11e57e234c6f59,,,,,,,,,,,,,,,,,,,,,,,,,,,,,,,,,,,,,,,,,,,,,,,,,,,,,,,,,,,,,,,,,,,,,,,,,,,,,,,,,,,,,,,,,,,,,,,,,,,,,,,
,,"[""period""]",0,[0.491100000023863],54,0,54,0,1,60ef4432df04da6821fec20a,24,Mężczyzna,2022-06-04_08h36.23.362,task,2021.1.4,Win32,143.9677512,628b806c463b948bc644b84f,629afd59ca11e57e234c6f59,,,,,,,,,,,,,,,,,,,,,,,,,,,,,,,,,,,,,,,,,,,,,,,,,,,,,,,,,,,,,,,,,,,,,,,,,,,,,,,,,,,,,,,,,,,,,,,,,,,,,,,
,,"[""period""]",0,[0.2872000000477044],55,0,55,0,1,60ef4432df04da6821fec20a,24,Mężczyzna,2022-06-04_08h36.23.362,task,2021.1.4,Win32,143.9677512,628b806c463b948bc644b84f,629afd59ca11e57e234c6f59,,,,,,,,,,,,,,,,,,,,,,,,,,,,,,,,,,,,,,,,,,,,,,,,,,,,,,,,,,,,,,,,,,,,,,,,,,,,,,,,,,,,,,,,,,,,,,,,,,,,,,,
,,"[""comma""]",0,[0.21400000000002706],56,0,56,0,1,60ef4432df04da6821fec20a,24,Mężczyzna,2022-06-04_08h36.23.362,task,2021.1.4,Win32,143.9677512,628b806c463b948bc644b84f,629afd59ca11e57e234c6f59,,,,,,,,,,,,,,,,,,,,,,,,,,,,,,,,,,,,,,,,,,,,,,,,,,,,,,,,,,,,,,,,,,,,,,,,,,,,,,,,,,,,,,,,,,,,,,,,,,,,,,,
,,"[""comma""]",0,[0.2272000000476737],57,0,57,0,1,60ef4432df04da6821fec20a,24,Mężczyzna,2022-06-04_08h36.23.362,task,2021.1.4,Win32,143.9677512,628b806c463b948bc644b84f,629afd59ca11e57e234c6f59,,,,,,,,,,,,,,,,,,,,,,,,,,,,,,,,,,,,,,,,,,,,,,,,,,,,,,,,,,,,,,,,,,,,,,,,,,,,,,,,,,,,,,,,,,,,,,,,,,,,,,,
,,"[""comma""]",0,[0.194500000000005],58,0,58,0,1,60ef4432df04da6821fec20a,24,Mężczyzna,2022-06-04_08h36.23.362,task,2021.1.4,Win32,143.9677512,628b806c463b948bc644b84f,629afd59ca11e57e234c6f59,,,,,,,,,,,,,,,,,,,,,,,,,,,,,,,,,,,,,,,,,,,,,,,,,,,,,,,,,,,,,,,,,,,,,,,,,,,,,,,,,,,,,,,,,,,,,,,,,,,,,,,
,,"[""comma""]",0,[0.23610000002383913],59,0,59,0,1,60ef4432df04da6821fec20a,24,Mężczyzna,2022-06-04_08h36.23.362,task,2021.1.4,Win32,143.9677512,628b806c463b948bc644b84f,629afd59ca11e57e234c6f59,,,,,,,,,,,,,,,,,,,,,,,,,,,,,,,,,,,,,,,,,,,,,,,,,,,,,,,,,,,,,,,,,,,,,,,,,,,,,,,,,,,,,,,,,,,,,,,,,,,,,,,
,,"[""period""]",0,[0.2301000000238389],60,0,60,0,1,60ef4432df04da6821fec20a,24,Mężczyzna,2022-06-04_08h36.23.362,task,2021.1.4,Win32,143.9677512,628b806c463b948bc644b84f,629afd59ca11e57e234c6f59,,,,,,,,,,,,,,,,,,,,,,,,,,,,,,,,,,,,,,,,,,,,,,,,,,,,,,,,,,,,,,,,,,,,,,,,,,,,,,,,,,,,,,,,,,,,,,,,,,,,,,,
,,"[""comma""]",0,[0.1862000000476769],61,0,61,0,1,60ef4432df04da6821fec20a,24,Mężczyzna,2022-06-04_08h36.23.362,task,2021.1.4,Win32,143.9677512,628b806c463b948bc644b84f,629afd59ca11e57e234c6f59,,,,,,,,,,,,,,,,,,,,,,,,,,,,,,,,,,,,,,,,,,,,,,,,,,,,,,,,,,,,,,,,,,,,,,,,,,,,,,,,,,,,,,,,,,,,,,,,,,,,,,,
,,"[""comma""]",0,[0.23320000004767394],62,0,62,0,1,60ef4432df04da6821fec20a,24,Mężczyzna,2022-06-04_08h36.23.362,task,2021.1.4,Win32,143.9677512,628b806c463b948bc644b84f,629afd59ca11e57e234c6f59,,,,,,,,,,,,,,,,,,,,,,,,,,,,,,,,,,,,,,,,,,,,,,,,,,,,,,,,,,,,,,,,,,,,,,,,,,,,,,,,,,,,,,,,,,,,,,,,,,,,,,,
,,"[""comma""]",0,[0.2511000000238539],63,0,63,0,1,60ef4432df04da6821fec20a,24,Mężczyzna,2022-06-04_08h36.23.362,task,2021.1.4,Win32,143.9677512,628b806c463b948bc644b84f,629afd59ca11e57e234c6f59,,,,,,,,,,,,,,,,,,,,,,,,,,,,,,,,,,,,,,,,,,,,,,,,,,,,,,,,,,,,,,,,,,,,,,,,,,,,,,,,,,,,,,,,,,,,,,,,,,,,,,,
,,"[""period""]",0,[0.19519999992846238],64,0,64,0,1,60ef4432df04da6821fec20a,24,Mężczyzna,2022-06-04_08h36.23.362,task,2021.1.4,Win32,143.9677512,628b806c463b948bc644b84f,629afd59ca11e57e234c6f59,,,,,,,,,,,,,,,,,,,,,,,,,,,,,,,,,,,,,,,,,,,,,,,,,,,,,,,,,,,,,,,,,,,,,,,,,,,,,,,,,,,,,,,,,,,,,,,,,,,,,,,
,,"[""period""]",0,[0.22529999995231265],65,0,65,0,1,60ef4432df04da6821fec20a,24,Mężczyzna,2022-06-04_08h36.23.362,task,2021.1.4,Win32,143.9677512,628b806c463b948bc644b84f,629afd59ca11e57e234c6f59,,,,,,,,,,,,,,,,,,,,,,,,,,,,,,,,,,,,,,,,,,,,,,,,,,,,,,,,,,,,,,,,,,,,,,,,,,,,,,,,,,,,,,,,,,,,,,,,,,,,,,,
,,"[""comma""]",0,[0.2428000000715258],66,0,66,0,1,60ef4432df04da6821fec20a,24,Mężczyzna,2022-06-04_08h36.23.362,task,2021.1.4,Win32,143.9677512,628b806c463b948bc644b84f,629afd59ca11e57e234c6f59,,,,,,,,,,,,,,,,,,,,,,,,,,,,,,,,,,,,,,,,,,,,,,,,,,,,,,,,,,,,,,,,,,,,,,,,,,,,,,,,,,,,,,,,,,,,,,,,,,,,,,,
,,"[""comma""]",0,[0.2846999999284776],67,0,67,0,1,60ef4432df04da6821fec20a,24,Mężczyzna,2022-06-04_08h36.23.362,task,2021.1.4,Win32,143.9677512,628b806c463b948bc644b84f,629afd59ca11e57e234c6f59,,,,,,,,,,,,,,,,,,,,,,,,,,,,,,,,,,,,,,,,,,,,,,,,,,,,,,,,,,,,,,,,,,,,,,,,,,,,,,,,,,,,,,,,,,,,,,,,,,,,,,,
,,"[""comma""]",0,[0.2574999999999932],68,0,68,0,1,60ef4432df04da6821fec20a,24,Mężczyzna,2022-06-04_08h36.23.362,task,2021.1.4,Win32,143.9677512,628b806c463b948bc644b84f,629afd59ca11e57e234c6f59,,,,,,,,,,,,,,,,,,,,,,,,,,,,,,,,,,,,,,,,,,,,,,,,,,,,,,,,,,,,,,,,,,,,,,,,,,,,,,,,,,,,,,,,,,,,,,,,,,,,,,,
,,"[""period""]",0,[0.22350000000000136],69,0,69,0,1,60ef4432df04da6821fec20a,24,Mężczyzna,2022-06-04_08h36.23.362,task,2021.1.4,Win32,143.9677512,628b806c463b948bc644b84f,629afd59ca11e57e234c6f59,,,,,,,,,,,,,,,,,,,,,,,,,,,,,,,,,,,,,,,,,,,,,,,,,,,,,,,,,,,,,,,,,,,,,,,,,,,,,,,,,,,,,,,,,,,,,,,,,,,,,,,
,,"[""comma""]",0,[0.1903999999761652],70,0,70,0,1,60ef4432df04da6821fec20a,24,Mężczyzna,2022-06-04_08h36.23.362,task,2021.1.4,Win32,143.9677512,628b806c463b948bc644b84f,629afd59ca11e57e234c6f59,,,,,,,,,,,,,,,,,,,,,,,,,,,,,,,,,,,,,,,,,,,,,,,,,,,,,,,,,,,,,,,,,,,,,,,,,,,,,,,,,,,,,,,,,,,,,,,,,,,,,,,
,,"[""comma""]",0,[0.23150000000001114],71,0,71,0,1,60ef4432df04da6821fec20a,24,Mężczyzna,2022-06-04_08h36.23.362,task,2021.1.4,Win32,143.9677512,628b806c463b948bc644b84f,629afd59ca11e57e234c6f59,,,,,,,,,,,,,,,,,,,,,,,,,,,,,,,,,,,,,,,,,,,,,,,,,,,,,,,,,,,,,,,,,,,,,,,,,,,,,,,,,,,,,,,,,,,,,,,,,,,,,,,
,,"[""period""]",0,[0.2723999999761588],72,0,72,0,1,60ef4432df04da6821fec20a,24,Mężczyzna,2022-06-04_08h36.23.362,task,2021.1.4,Win32,143.9677512,628b806c463b948bc644b84f,629afd59ca11e57e234c6f59,,,,,,,,,,,,,,,,,,,,,,,,,,,,,,,,,,,,,,,,,,,,,,,,,,,,,,,,,,,,,,,,,,,,,,,,,,,,,,,,,,,,,,,,,,,,,,,,,,,,,,,
,,"[""comma""]",0,[0.21649999999999636],73,0,73,0,1,60ef4432df04da6821fec20a,24,Mężczyzna,2022-06-04_08h36.23.362,task,2021.1.4,Win32,143.9677512,628b806c463b948bc644b84f,629afd59ca11e57e234c6f59,,,,,,,,,,,,,,,,,,,,,,,,,,,,,,,,,,,,,,,,,,,,,,,,,,,,,,,,,,,,,,,,,,,,,,,,,,,,,,,,,,,,,,,,,,,,,,,,,,,,,,,
,,"[""comma""]",0,[0.21760000002385027],74,0,74,0,1,60ef4432df04da6821fec20a,24,Mężczyzna,2022-06-04_08h36.23.362,task,2021.1.4,Win32,143.9677512,628b806c463b948bc644b84f,629afd59ca11e57e234c6f59,,,,,,,,,,,,,,,,,,,,,,,,,,,,,,,,,,,,,,,,,,,,,,,,,,,,,,,,,,,,,,,,,,,,,,,,,,,,,,,,,,,,,,,,,,,,,,,,,,,,,,,
,,"[""period""]",0,[0.3333999999761659],75,0,75,0,1,60ef4432df04da6821fec20a,24,Mężczyzna,2022-06-04_08h36.23.362,task,2021.1.4,Win32,143.9677512,628b806c463b948bc644b84f,629afd59ca11e57e234c6f59,,,,,,,,,,,,,,,,,,,,,,,,,,,,,,,,,,,,,,,,,,,,,,,,,,,,,,,,,,,,,,,,,,,,,,,,,,,,,,,,,,,,,,,,,,,,,,,,,,,,,,,
,,"[""comma""]",0,[0.22550000000001091],76,0,76,0,1,60ef4432df04da6821fec20a,24,Mężczyzna,2022-06-04_08h36.23.362,task,2021.1.4,Win32,143.9677512,628b806c463b948bc644b84f,629afd59ca11e57e234c6f59,,,,,,,,,,,,,,,,,,,,,,,,,,,,,,,,,,,,,,,,,,,,,,,,,,,,,,,,,,,,,,,,,,,,,,,,,,,,,,,,,,,,,,,,,,,,,,,,,,,,,,,
,,"[""comma""]",0,[0.2606000000238282],77,0,77,0,1,60ef4432df04da6821fec20a,24,Mężczyzna,2022-06-04_08h36.23.362,task,2021.1.4,Win32,143.9677512,628b806c463b948bc644b84f,629afd59ca11e57e234c6f59,,,,,,,,,,,,,,,,,,,,,,,,,,,,,,,,,,,,,,,,,,,,,,,,,,,,,,,,,,,,,,,,,,,,,,,,,,,,,,,,,,,,,,,,,,,,,,,,,,,,,,,
,,"[""period""]",0,[0.25080000007150716],78,0,78,0,1,60ef4432df04da6821fec20a,24,Mężczyzna,2022-06-04_08h36.23.362,task,2021.1.4,Win32,143.9677512,628b806c463b948bc644b84f,629afd59ca11e57e234c6f59,,,,,,,,,,,,,,,,,,,,,,,,,,,,,,,,,,,,,,,,,,,,,,,,,,,,,,,,,,,,,,,,,,,,,,,,,,,,,,,,,,,,,,,,,,,,,,,,,,,,,,,
,,"[""comma""]",0,[0.25089999997615564],79,0,79,0,1,60ef4432df04da6821fec20a,24,Mężczyzna,2022-06-04_08h36.23.362,task,2021.1.4,Win32,143.9677512,628b806c463b948bc644b84f,629afd59ca11e57e234c6f59,,,,,,,,,,,,,,,,,,,,,,,,,,,,,,,,,,,,,,,,,,,,,,,,,,,,,,,,,,,,,,,,,,,,,,,,,,,,,,,,,,,,,,,,,,,,,,,,,,,,,,,
,,"[""period""]",0,[0.28669999992848716],80,0,80,0,1,60ef4432df04da6821fec20a,24,Mężczyzna,2022-06-04_08h36.23.362,task,2021.1.4,Win32,143.9677512,628b806c463b948bc644b84f,629afd59ca11e57e234c6f59,,,,,,,,,,,,,,,,,,,,,,,,,,,,,,,,,,,,,,,,,,,,,,,,,,,,,,,,,,,,,,,,,,,,,,,,,,,,,,,,,,,,,,,,,,,,,,,,,,,,,,,
,,"[""comma""]",0,[0.25950000000000273],81,0,81,0,1,60ef4432df04da6821fec20a,24,Mężczyzna,2022-06-04_08h36.23.362,task,2021.1.4,Win32,143.9677512,628b806c463b948bc644b84f,629afd59ca11e57e234c6f59,,,,,,,,,,,,,,,,,,,,,,,,,,,,,,,,,,,,,,,,,,,,,,,,,,,,,,,,,,,,,,,,,,,,,,,,,,,,,,,,,,,,,,,,,,,,,,,,,,,,,,,
,,"[""comma""]",0,[0.28969999992847306],82,0,82,0,1,60ef4432df04da6821fec20a,24,Mężczyzna,2022-06-04_08h36.23.362,task,2021.1.4,Win32,143.9677512,628b806c463b948bc644b84f,629afd59ca11e57e234c6f59,,,,,,,,,,,,,,,,,,,,,,,,,,,,,,,,,,,,,,,,,,,,,,,,,,,,,,,,,,,,,,,,,,,,,,,,,,,,,,,,,,,,,,,,,,,,,,,,,,,,,,,
,,"[""period""]",0,[0.30779999995229446],83,0,83,0,1,60ef4432df04da6821fec20a,24,Mężczyzna,2022-06-04_08h36.23.362,task,2021.1.4,Win32,143.9677512,628b806c463b948bc644b84f,629afd59ca11e57e234c6f59,,,,,,,,,,,,,,,,,,,,,,,,,,,,,,,,,,,,,,,,,,,,,,,,,,,,,,,,,,,,,,,,,,,,,,,,,,,,,,,,,,,,,,,,,,,,,,,,,,,,,,,
,,"[""comma""]",0,[0.2746999999284867],84,0,84,0,1,60ef4432df04da6821fec20a,24,Mężczyzna,2022-06-04_08h36.23.362,task,2021.1.4,Win32,143.9677512,628b806c463b948bc644b84f,629afd59ca11e57e234c6f59,,,,,,,,,,,,,,,,,,,,,,,,,,,,,,,,,,,,,,,,,,,,,,,,,,,,,,,,,,,,,,,,,,,,,,,,,,,,,,,,,,,,,,,,,,,,,,,,,,,,,,,
,,"[""comma""]",0,[0.24079999995234402],85,0,85,0,1,60ef4432df04da6821fec20a,24,Mężczyzna,2022-06-04_08h36.23.362,task,2021.1.4,Win32,143.9677512,628b806c463b948bc644b84f,629afd59ca11e57e234c6f59,,,,,,,,,,,,,,,,,,,,,,,,,,,,,,,,,,,,,,,,,,,,,,,,,,,,,,,,,,,,,,,,,,,,,,,,,,,,,,,,,,,,,,,,,,,,,,,,,,,,,,,
,,"[""period""]",0,[0.2138999999761495],86,0,86,0,1,60ef4432df04da6821fec20a,24,Mężczyzna,2022-06-04_08h36.23.362,task,2021.1.4,Win32,143.9677512,628b806c463b948bc644b84f,629afd59ca11e57e234c6f59,,,,,,,,,,,,,,,,,,,,,,,,,,,,,,,,,,,,,,,,,,,,,,,,,,,,,,,,,,,,,,,,,,,,,,,,,,,,,,,,,,,,,,,,,,,,,,,,,,,,,,,
,,"[""period""]",0,[0.32879999995230946],87,0,87,0,1,60ef4432df04da6821fec20a,24,Mężczyzna,2022-06-04_08h36.23.362,task,2021.1.4,Win32,143.9677512,628b806c463b948bc644b84f,629afd59ca11e57e234c6f59,,,,,,,,,,,,,,,,,,,,,,,,,,,,,,,,,,,,,,,,,,,,,,,,,,,,,,,,,,,,,,,,,,,,,,,,,,,,,,,,,,,,,,,,,,,,,,,,,,,,,,,
,,"[""comma""]",0,[0.23279999995236267],88,0,88,0,1,60ef4432df04da6821fec20a,24,Mężczyzna,2022-06-04_08h36.23.362,task,2021.1.4,Win32,143.9677512,628b806c463b948bc644b84f,629afd59ca11e57e234c6f59,,,,,,,,,,,,,,,,,,,,,,,,,,,,,,,,,,,,,,,,,,,,,,,,,,,,,,,,,,,,,,,,,,,,,,,,,,,,,,,,,,,,,,,,,,,,,,,,,,,,,,,
,,"[""comma""]",0,[0.22310000002386232],89,0,89,0,1,60ef4432df04da6821fec20a,24,Mężczyzna,2022-06-04_08h36.23.362,task,2021.1.4,Win32,143.9677512,628b806c463b948bc644b84f,629afd59ca11e57e234c6f59,,,,,,,,,,,,,,,,,,,,,,,,,,,,,,,,,,,,,,,,,,,,,,,,,,,,,,,,,,,,,,,,,,,,,,,,,,,,,,,,,,,,,,,,,,,,,,,,,,,,,,,
,,"[""comma""]",0,[0.22920000004768326],90,0,90,0,1,60ef4432df04da6821fec20a,24,Mężczyzna,2022-06-04_08h36.23.362,task,2021.1.4,Win32,143.9677512,628b806c463b948bc644b84f,629afd59ca11e57e234c6f59,,,,,,,,,,,,,,,,,,,,,,,,,,,,,,,,,,,,,,,,,,,,,,,,,,,,,,,,,,,,,,,,,,,,,,,,,,,,,,,,,,,,,,,,,,,,,,,,,,,,,,,
,,"[""comma""]",0,[0.4005999999046139],91,0,91,0,1,60ef4432df04da6821fec20a,24,Mężczyzna,2022-06-04_08h36.23.362,task,2021.1.4,Win32,143.9677512,628b806c463b948bc644b84f,629afd59ca11e57e234c6f59,,,,,,,,,,,,,,,,,,,,,,,,,,,,,,,,,,,,,,,,,,,,,,,,,,,,,,,,,,,,,,,,,,,,,,,,,,,,,,,,,,,,,,,,,,,,,,,,,,,,,,,
,,"[""comma""]",0,[0.4032000000477183],92,0,92,0,1,60ef4432df04da6821fec20a,24,Mężczyzna,2022-06-04_08h36.23.362,task,2021.1.4,Win32,143.9677512,628b806c463b948bc644b84f,629afd59ca11e57e234c6f59,,,,,,,,,,,,,,,,,,,,,,,,,,,,,,,,,,,,,,,,,,,,,,,,,,,,,,,,,,,,,,,,,,,,,,,,,,,,,,,,,,,,,,,,,,,,,,,,,,,,,,,
,,"[""period""]",0,[0.31780000007154285],93,0,93,0,1,60ef4432df04da6821fec20a,24,Mężczyzna,2022-06-04_08h36.23.362,task,2021.1.4,Win32,143.9677512,628b806c463b948bc644b84f,629afd59ca11e57e234c6f59,,,,,,,,,,,,,,,,,,,,,,,,,,,,,,,,,,,,,,,,,,,,,,,,,,,,,,,,,,,,,,,,,,,,,,,,,,,,,,,,,,,,,,,,,,,,,,,,,,,,,,,
,,"[""comma""]",0,[0.3301000000238332],94,0,94,0,1,60ef4432df04da6821fec20a,24,Mężczyzna,2022-06-04_08h36.23.362,task,2021.1.4,Win32,143.9677512,628b806c463b948bc644b84f,629afd59ca11e57e234c6f59,,,,,,,,,,,,,,,,,,,,,,,,,,,,,,,,,,,,,,,,,,,,,,,,,,,,,,,,,,,,,,,,,,,,,,,,,,,,,,,,,,,,,,,,,,,,,,,,,,,,,,,
,,"[""period""]",0,[0.21699999999998454],95,0,95,0,1,60ef4432df04da6821fec20a,24,Mężczyzna,2022-06-04_08h36.23.362,task,2021.1.4,Win32,143.9677512,628b806c463b948bc644b84f,629afd59ca11e57e234c6f59,,,,,,,,,,,,,,,,,,,,,,,,,,,,,,,,,,,,,,,,,,,,,,,,,,,,,,,,,,,,,,,,,,,,,,,,,,,,,,,,,,,,,,,,,,,,,,,,,,,,,,,
,,"[""period""]",0,[0.2349999999999568],96,0,96,0,1,60ef4432df04da6821fec20a,24,Mężczyzna,2022-06-04_08h36.23.362,task,2021.1.4,Win32,143.9677512,628b806c463b948bc644b84f,629afd59ca11e57e234c6f59,,,,,,,,,,,,,,,,,,,,,,,,,,,,,,,,,,,,,,,,,,,,,,,,,,,,,,,,,,,,,,,,,,,,,,,,,,,,,,,,,,,,,,,,,,,,,,,,,,,,,,,
,,"[""period""]",0,[0.3961999999284558],97,0,97,0,1,60ef4432df04da6821fec20a,24,Mężczyzna,2022-06-04_08h36.23.362,task,2021.1.4,Win32,143.9677512,628b806c463b948bc644b84f,629afd59ca11e57e234c6f59,,,,,,,,,,,,,,,,,,,,,,,,,,,,,,,,,,,,,,,,,,,,,,,,,,,,,,,,,,,,,,,,,,,,,,,,,,,,,,,,,,,,,,,,,,,,,,,,,,,,,,,
,,"[""period""]",0,[0.34029999995232174],98,0,98,0,1,60ef4432df04da6821fec20a,24,Mężczyzna,2022-06-04_08h36.23.362,task,2021.1.4,Win32,143.9677512,628b806c463b948bc644b84f,629afd59ca11e57e234c6f59,,,,,,,,,,,,,,,,,,,,,,,,,,,,,,,,,,,,,,,,,,,,,,,,,,,,,,,,,,,,,,,,,,,,,,,,,,,,,,,,,,,,,,,,,,,,,,,,,,,,,,,
,,"[""comma""]",0,[0.319500000000005],99,0,99,0,1,60ef4432df04da6821fec20a,24,Mężczyzna,2022-06-04_08h36.23.362,task,2021.1.4,Win32,143.9677512,628b806c463b948bc644b84f,629afd59ca11e57e234c6f59,,,,,,,,,,,,,,,,,,,,,,,,,,,,,,,,,,,,,,,,,,,,,,,,,,,,,,,,,,,,,,,,,,,,,,,,,,,,,,,,,,,,,,,,,,,,,,,,,,,,,,,
,,"[""comma""]",0,[0.24619999992847852],100,0,100,0,1,60ef4432df04da6821fec20a,24,Mężczyzna,2022-06-04_08h36.23.362,task,2021.1.4,Win32,143.9677512,628b806c463b948bc644b84f,629afd59ca11e57e234c6f59,,,,,,,,,,,,,,,,,,,,,,,,,,,,,,,,,,,,,,,,,,,,,,,,,,,,,,,,,,,,,,,,,,,,,,,,,,,,,,,,,,,,,,,,,,,,,,,,,,,,,,,
,,"[""comma""]",0,[0.24710000002386323],101,0,101,0,1,60ef4432df04da6821fec20a,24,Mężczyzna,2022-06-04_08h36.23.362,task,2021.1.4,Win32,143.9677512,628b806c463b948bc644b84f,629afd59ca11e57e234c6f59,,,,,,,,,,,,,,,,,,,,,,,,,,,,,,,,,,,,,,,,,,,,,,,,,,,,,,,,,,,,,,,,,,,,,,,,,,,,,,,,,,,,,,,,,,,,,,,,,,,,,,,
,,"[""period""]",0,[0.33910000002384777],102,0,102,0,1,60ef4432df04da6821fec20a,24,Mężczyzna,2022-06-04_08h36.23.362,task,2021.1.4,Win32,143.9677512,628b806c463b948bc644b84f,629afd59ca11e57e234c6f59,,,,,,,,,,,,,,,,,,,,,,,,,,,,,,,,,,,,,,,,,,,,,,,,,,,,,,,,,,,,,,,,,,,,,,,,,,,,,,,,,,,,,,,,,,,,,,,,,,,,,,,
,,"[""comma""]",0,[0.22010000002387642],103,0,103,0,1,60ef4432df04da6821fec20a,24,Mężczyzna,2022-06-04_08h36.23.362,task,2021.1.4,Win32,143.9677512,628b806c463b948bc644b84f,629afd59ca11e57e234c6f59,,,,,,,,,,,,,,,,,,,,,,,,,,,,,,,,,,,,,,,,,,,,,,,,,,,,,,,,,,,,,,,,,,,,,,,,,,,,,,,,,,,,,,,,,,,,,,,,,,,,,,,
,,"[""period""]",0,[0.22730000007152285],104,0,104,0,1,60ef4432df04da6821fec20a,24,Mężczyzna,2022-06-04_08h36.23.362,task,2021.1.4,Win32,143.9677512,628b806c463b948bc644b84f,629afd59ca11e57e234c6f59,,,,,,,,,,,,,,,,,,,,,,,,,,,,,,,,,,,,,,,,,,,,,,,,,,,,,,,,,,,,,,,,,,,,,,,,,,,,,,,,,,,,,,,,,,,,,,,,,,,,,,,
,,"[""comma""]",0,[0.2333000000715515],105,0,105,0,1,60ef4432df04da6821fec20a,24,Mężczyzna,2022-06-04_08h36.23.362,task,2021.1.4,Win32,143.9677512,628b806c463b948bc644b84f,629afd59ca11e57e234c6f59,,,,,,,,,,,,,,,,,,,,,,,,,,,,,,,,,,,,,,,,,,,,,,,,,,,,,,,,,,,,,,,,,,,,,,,,,,,,,,,,,,,,,,,,,,,,,,,,,,,,,,,
,,"[""comma""]",0,[0.5253999999761731],106,0,106,0,1,60ef4432df04da6821fec20a,24,Mężczyzna,2022-06-04_08h36.23.362,task,2021.1.4,Win32,143.9677512,628b806c463b948bc644b84f,629afd59ca11e57e234c6f59,,,,,,,,,,,,,,,,,,,,,,,,,,,,,,,,,,,,,,,,,,,,,,,,,,,,,,,,,,,,,,,,,,,,,,,,,,,,,,,,,,,,,,,,,,,,,,,,,,,,,,,
,,"[""comma""]",0,[0.26439999997614905],107,0,107,0,1,60ef4432df04da6821fec20a,24,Mężczyzna,2022-06-04_08h36.23.362,task,2021.1.4,Win32,143.9677512,628b806c463b948bc644b84f,629afd59ca11e57e234c6f59,,,,,,,,,,,,,,,,,,,,,,,,,,,,,,,,,,,,,,,,,,,,,,,,,,,,,,,,,,,,,,,,,,,,,,,,,,,,,,,,,,,,,,,,,,,,,,,,,,,,,,,
,,"[""period""]",0,[0.22539999997616178],108,0,108,0,1,60ef4432df04da6821fec20a,24,Mężczyzna,2022-06-04_08h36.23.362,task,2021.1.4,Win32,143.9677512,628b806c463b948bc644b84f,629afd59ca11e57e234c6f59,,,,,,,,,,,,,,,,,,,,,,,,,,,,,,,,,,,,,,,,,,,,,,,,,,,,,,,,,,,,,,,,,,,,,,,,,,,,,,,,,,,,,,,,,,,,,,,,,,,,,,,
,,"[""comma""]",0,[0.23220000004766916],109,0,109,0,1,60ef4432df04da6821fec20a,24,Mężczyzna,2022-06-04_08h36.23.362,task,2021.1.4,Win32,143.9677512,628b806c463b948bc644b84f,629afd59ca11e57e234c6f59,,,,,,,,,,,,,,,,,,,,,,,,,,,,,,,,,,,,,,,,,,,,,,,,,,,,,,,,,,,,,,,,,,,,,,,,,,,,,,,,,,,,,,,,,,,,,,,,,,,,,,,
,,"[""comma""]",0,[0.2574999999999932],110,0,110,0,1,60ef4432df04da6821fec20a,24,Mężczyzna,2022-06-04_08h36.23.362,task,2021.1.4,Win32,143.9677512,628b806c463b948bc644b84f,629afd59ca11e57e234c6f59,,,,,,,,,,,,,,,,,,,,,,,,,,,,,,,,,,,,,,,,,,,,,,,,,,,,,,,,,,,,,,,,,,,,,,,,,,,,,,,,,,,,,,,,,,,,,,,,,,,,,,,
,,"[""comma""]",0,[0.29740000009536516],111,0,111,0,1,60ef4432df04da6821fec20a,24,Mężczyzna,2022-06-04_08h36.23.362,task,2021.1.4,Win32,143.9677512,628b806c463b948bc644b84f,629afd59ca11e57e234c6f59,,,,,,,,,,,,,,,,,,,,,,,,,,,,,,,,,,,,,,,,,,,,,,,,,,,,,,,,,,,,,,,,,,,,,,,,,,,,,,,,,,,,,,,,,,,,,,,,,,,,,,,
,,"[""period""]",0,[0.24169999992847124],112,0,112,0,1,60ef4432df04da6821fec20a,24,Mężczyzna,2022-06-04_08h36.23.362,task,2021.1.4,Win32,143.9677512,628b806c463b948bc644b84f,629afd59ca11e57e234c6f59,,,,,,,,,,,,,,,,,,,,,,,,,,,,,,,,,,,,,,,,,,,,,,,,,,,,,,,,,,,,,,,,,,,,,,,,,,,,,,,,,,,,,,,,,,,,,,,,,,,,,,,
,,"[""period""]",0,[0.25950000000000273],113,0,113,0,1,60ef4432df04da6821fec20a,24,Mężczyzna,2022-06-04_08h36.23.362,task,2021.1.4,Win32,143.9677512,628b806c463b948bc644b84f,629afd59ca11e57e234c6f59,,,,,,,,,,,,,,,,,,,,,,,,,,,,,,,,,,,,,,,,,,,,,,,,,,,,,,,,,,,,,,,,,,,,,,,,,,,,,,,,,,,,,,,,,,,,,,,,,,,,,,,
,,"[""period""]",0,[0.24340000009539153],114,0,114,0,1,60ef4432df04da6821fec20a,24,Mężczyzna,2022-06-04_08h36.23.362,task,2021.1.4,Win32,143.9677512,628b806c463b948bc644b84f,629afd59ca11e57e234c6f59,,,,,,,,,,,,,,,,,,,,,,,,,,,,,,,,,,,,,,,,,,,,,,,,,,,,,,,,,,,,,,,,,,,,,,,,,,,,,,,,,,,,,,,,,,,,,,,,,,,,,,,
,,"[""period""]",0,[0.44950000000000045],115,0,115,0,1,60ef4432df04da6821fec20a,24,Mężczyzna,2022-06-04_08h36.23.362,task,2021.1.4,Win32,143.9677512,628b806c463b948bc644b84f,629afd59ca11e57e234c6f59,,,,,,,,,,,,,,,,,,,,,,,,,,,,,,,,,,,,,,,,,,,,,,,,,,,,,,,,,,,,,,,,,,,,,,,,,,,,,,,,,,,,,,,,,,,,,,,,,,,,,,,
,,"[""comma""]",0,[0.28539999997616405],116,0,116,0,1,60ef4432df04da6821fec20a,24,Mężczyzna,2022-06-04_08h36.23.362,task,2021.1.4,Win32,143.9677512,628b806c463b948bc644b84f,629afd59ca11e57e234c6f59,,,,,,,,,,,,,,,,,,,,,,,,,,,,,,,,,,,,,,,,,,,,,,,,,,,,,,,,,,,,,,,,,,,,,,,,,,,,,,,,,,,,,,,,,,,,,,,,,,,,,,,
,,"[""period""]",0,[0.2466000000238182],117,0,117,0,1,60ef4432df04da6821fec20a,24,Mężczyzna,2022-06-04_08h36.23.362,task,2021.1.4,Win32,143.9677512,628b806c463b948bc644b84f,629afd59ca11e57e234c6f59,,,,,,,,,,,,,,,,,,,,,,,,,,,,,,,,,,,,,,,,,,,,,,,,,,,,,,,,,,,,,,,,,,,,,,,,,,,,,,,,,,,,,,,,,,,,,,,,,,,,,,,
,,"[""comma""]",0,[0.3958999999761659],118,0,118,0,1,60ef4432df04da6821fec20a,24,Mężczyzna,2022-06-04_08h36.23.362,task,2021.1.4,Win32,143.9677512,628b806c463b948bc644b84f,629afd59ca11e57e234c6f59,,,,,,,,,,,,,,,,,,,,,,,,,,,,,,,,,,,,,,,,,,,,,,,,,,,,,,,,,,,,,,,,,,,,,,,,,,,,,,,,,,,,,,,,,,,,,,,,,,,,,,,
,,"[""comma""]",0,[0.44739999997614177],119,0,119,0,1,60ef4432df04da6821fec20a,24,Mężczyzna,2022-06-04_08h36.23.362,task,2021.1.4,Win32,143.9677512,628b806c463b948bc644b84f,629afd59ca11e57e234c6f59,,,,,,,,,,,,,,,,,,,,,,,,,,,,,,,,,,,,,,,,,,,,,,,,,,,,,,,,,,,,,,,,,,,,,,,,,,,,,,,,,,,,,,,,,,,,,,,,,,,,,,,
,,,,,,,,,,60ef4432df04da6821fec20a,24,Mężczyzna,2022-06-04_08h36.23.362,task,2021.1.4,Win32,143.9677512,628b806c463b948bc644b84f,629afd59ca11e57e234c6f59,space,105.0684,space,12.3138,0,0,0,0,1,X V Q F H G B L J M P D K C T S W R N Z,,,,,,,,,,,,,,,,,,,,,,,,,,,,,,,,,,,,,,,,,,,,,,,,,,,,,,,,,,,,,,,,,,,,,,,,,,,,,,,,,,,,,,,,,,,,,
,,,,,,,,,,60ef4432df04da6821fec20a,24,Mężczyzna,2022-06-04_08h36.23.362,task,2021.1.4,Win32,143.9677512,628b806c463b948bc644b84f,629afd59ca11e57e234c6f59,,,,,1,0,1,0,1,X V Q F H G B L J M P D K C T S W R N Z,,,,,,,,,,,,,,,,,,,,,,,,,,,,,,,,,,,,,,,,,,,,,,,,,,,,,,,,,,,,,,,,,,,,,,,,,,,,,,,,,,,,,,,,,,,,,
,,,,,,,,,,60ef4432df04da6821fec20a,24,Mężczyzna,2022-06-04_08h36.23.362,task,2021.1.4,Win32,143.9677512,628b806c463b948bc644b84f,629afd59ca11e57e234c6f59,,,,,,,,,,,zt,"[""z"",""t""]","[2.9251000000238605,3.215000000000032,4.5151000000238355]",1,ZT,0,0,0,0,1,,,,,,,,,,,,,,,,,,,,,,,,,,,,,,,,,,,,,,,,,,,,,,,,,,,,,,,,,,,,,,,,,,,,,,,,,,,,,,,,,,,
,,,,,,,,,,60ef4432df04da6821fec20a,24,Mężczyzna,2022-06-04_08h36.23.362,task,2021.1.4,Win32,143.9677512,628b806c463b948bc644b84f,629afd59ca11e57e234c6f59,,,,,0,0,0,0,1,X V Q F H G B L J M P D K C T S W R N Z,,,,,,,,,,,,,,,,,,,,,,,,,,,,,,,,,,,,,,,,,,,,,,,,,,,,,,,,,,,,,,,,,,,,,,,,,,,,,,,,,,,,,,,,,,,,,
,,,,,,,,,,60ef4432df04da6821fec20a,24,Mężczyzna,2022-06-04_08h36.23.362,task,2021.1.4,Win32,143.9677512,628b806c463b948bc644b84f,629afd59ca11e57e234c6f59,,,,,1,0,1,0,1,X V Q F H G B L J M P D K C T S W R N Z,,,,,,,,,,,,,,,,,,,,,,,,,,,,,,,,,,,,,,,,,,,,,,,,,,,,,,,,,,,,,,,,,,,,,,,,,,,,,,,,,,,,,,,,,,,,,
,,,,,,,,,,60ef4432df04da6821fec20a,24,Mężczyzna,2022-06-04_08h36.23.362,task,2021.1.4,Win32,143.9677512,628b806c463b948bc644b84f,629afd59ca11e57e234c6f59,,,,,,,,,,,mr,"[""m"",""r""]","[1.0556000000238441,1.278399999976159,1.7793999999761354]",1,MR,1,0,1,0,1,,,,,,,,,,,,,,,,,,,,,,,,,,,,,,,,,,,,,,,,,,,,,,,,,,,,,,,,,,,,,,,,,,,,,,,,,,,,,,,,,,,
,,,,,,,,,,60ef4432df04da6821fec20a,24,Mężczyzna,2022-06-04_08h36.23.362,task,2021.1.4,Win32,143.9677512,628b806c463b948bc644b84f,629afd59ca11e57e234c6f59,,,,,0,0,0,0,1,X V Q F H G B L J M P D K C T S W R N Z,,,,,,,,,,,,,,,,,,,,,,,,,,,,,,,,,,,,,,,,,,,,,,,,,,,,,,,,,,,,,,,,,,,,,,,,,,,,,,,,,,,,,,,,,,,,,
,,,,,,,,,,60ef4432df04da6821fec20a,24,Mężczyzna,2022-06-04_08h36.23.362,task,2021.1.4,Win32,143.9677512,628b806c463b948bc644b84f,629afd59ca11e57e234c6f59,,,,,1,0,1,0,1,X V Q F H G B L J M P D K C T S W R N Z,,,,,,,,,,,,,,,,,,,,,,,,,,,,,,,,,,,,,,,,,,,,,,,,,,,,,,,,,,,,,,,,,,,,,,,,,,,,,,,,,,,,,,,,,,,,,
,,,,,,,,,,60ef4432df04da6821fec20a,24,Mężczyzna,2022-06-04_08h36.23.362,task,2021.1.4,Win32,143.9677512,628b806c463b948bc644b84f,629afd59ca11e57e234c6f59,,,,,2,0,2,0,1,X V Q F H G B L J M P D K C T S W R N Z,,,,,,,,,,,,,,,,,,,,,,,,,,,,,,,,,,,,,,,,,,,,,,,,,,,,,,,,,,,,,,,,,,,,,,,,,,,,,,,,,,,,,,,,,,,,,
,,,,,,,,,,60ef4432df04da6821fec20a,24,Mężczyzna,2022-06-04_08h36.23.362,task,2021.1.4,Win32,143.9677512,628b806c463b948bc644b84f,629afd59ca11e57e234c6f59,,,,,,,,,,,wqh,"[""w"",""q"",""h""]","[0.5578999999761436,0.7006000000238259,0.9228999999761527,1.486899999976174]",1,WQH,2,0,2,0,1,,,,,,,,,,,,,,,,,,,,,,,,,,,,,,,,,,,,,,,,,,,,,,,,,,,,,,,,,,,,,,,,,,,,,,,,,,,,,,,,,,,
,,,,,,,,,,60ef4432df04da6821fec20a,24,Mężczyzna,2022-06-04_08h36.23.362,task,2021.1.4,Win32,143.9677512,628b806c463b948bc644b84f,629afd59ca11e57e234c6f59,,,,,0,0,0,0,1,X V Q F H G B L J M P D K C T S W R N Z,,,,,,,,,,,,,,,,,,,,,,,,,,,,,,,,,,,,,,,,,,,,,,,,,,,,,,,,,,,,,,,,,,,,,,,,,,,,,,,,,,,,,,,,,,,,,
,,,,,,,,,,60ef4432df04da6821fec20a,24,Mężczyzna,2022-06-04_08h36.23.362,task,2021.1.4,Win32,143.9677512,628b806c463b948bc644b84f,629afd59ca11e57e234c6f59,,,,,1,0,1,0,1,X V Q F H G B L J M P D K C T S W R N Z,,,,,,,,,,,,,,,,,,,,,,,,,,,,,,,,,,,,,,,,,,,,,,,,,,,,,,,,,,,,,,,,,,,,,,,,,,,,,,,,,,,,,,,,,,,,,
,,,,,,,,,,60ef4432df04da6821fec20a,24,Mężczyzna,2022-06-04_08h36.23.362,task,2021.1.4,Win32,143.9677512,628b806c463b948bc644b84f,629afd59ca11e57e234c6f59,,,,,2,0,2,0,1,X V Q F H G B L J M P D K C T S W R N Z,,,,,,,,,,,,,,,,,,,,,,,,,,,,,,,,,,,,,,,,,,,,,,,,,,,,,,,,,,,,,,,,,,,,,,,,,,,,,,,,,,,,,,,,,,,,,
,,,,,,,,,,60ef4432df04da6821fec20a,24,Mężczyzna,2022-06-04_08h36.23.362,task,2021.1.4,Win32,143.9677512,628b806c463b948bc644b84f,629afd59ca11e57e234c6f59,,,,,,,,,,,jdl,"[""j"",""d"",""l""]","[0.6943999999761559,0.9043999999761354,1.086500000000001,1.5083999999761204]",1,JDL,3,0,3,0,1,,,,,,,,,,,,,,,,,,,,,,,,,,,,,,,,,,,,,,,,,,,,,,,,,,,,,,,,,,,,,,,,,,,,,,,,,,,,,,,,,,,
,,,,,,,,,,60ef4432df04da6821fec20a,24,Mężczyzna,2022-06-04_08h36.23.362,task,2021.1.4,Win32,143.9677512,628b806c463b948bc644b84f,629afd59ca11e57e234c6f59,,,,,0,0,0,0,1,X V Q F H G B L J M P D K C T S W R N Z,,,,,,,,,,,,,,,,,,,,,,,,,,,,,,,,,,,,,,,,,,,,,,,,,,,,,,,,,,,,,,,,,,,,,,,,,,,,,,,,,,,,,,,,,,,,,
,,,,,,,,,,60ef4432df04da6821fec20a,24,Mężczyzna,2022-06-04_08h36.23.362,task,2021.1.4,Win32,143.9677512,628b806c463b948bc644b84f,629afd59ca11e57e234c6f59,,,,,1,0,1,0,1,X V Q F H G B L J M P D K C T S W R N Z,,,,,,,,,,,,,,,,,,,,,,,,,,,,,,,,,,,,,,,,,,,,,,,,,,,,,,,,,,,,,,,,,,,,,,,,,,,,,,,,,,,,,,,,,,,,,
,,,,,,,,,,60ef4432df04da6821fec20a,24,Mężczyzna,2022-06-04_08h36.23.362,task,2021.1.4,Win32,143.9677512,628b806c463b948bc644b84f,629afd59ca11e57e234c6f59,,,,,2,0,2,0,1,X V Q F H G B L J M P D K C T S W R N Z,,,,,,,,,,,,,,,,,,,,,,,,,,,,,,,,,,,,,,,,,,,,,,,,,,,,,,,,,,,,,,,,,,,,,,,,,,,,,,,,,,,,,,,,,,,,,
,,,,,,,,,,60ef4432df04da6821fec20a,24,Mężczyzna,2022-06-04_08h36.23.362,task,2021.1.4,Win32,143.9677512,628b806c463b948bc644b84f,629afd59ca11e57e234c6f59,,,,,3,0,3,0,1,X V Q F H G B L J M P D K C T S W R N Z,,,,,,,,,,,,,,,,,,,,,,,,,,,,,,,,,,,,,,,,,,,,,,,,,,,,,,,,,,,,,,,,,,,,,,,,,,,,,,,,,,,,,,,,,,,,,
,,,,,,,,,,60ef4432df04da6821fec20a,24,Mężczyzna,2022-06-04_08h36.23.362,task,2021.1.4,Win32,143.9677512,628b806c463b948bc644b84f,629afd59ca11e57e234c6f59,,,,,,,,,,,lmfl,"[""l"",""m"",""f"",""l""]","[0.7118999999761968,1.3052999999523536,1.6242999999523136,1.9718999999761877,3.059899999976153]",1,LMFL,4,0,4,0,1,,,,,,,,,,,,,,,,,,,,,,,,,,,,,,,,,,,,,,,,,,,,,,,,,,,,,,,,,,,,,,,,,,,,,,,,,,,,,,,,,,,
,,,,,,,,,,60ef4432df04da6821fec20a,24,Mężczyzna,2022-06-04_08h36.23.362,task,2021.1.4,Win32,143.9677512,628b806c463b948bc644b84f,629afd59ca11e57e234c6f59,,,,,0,0,0,0,1,X V Q F H G B L J M P D K C T S W R N Z,,,,,,,,,,,,,,,,,,,,,,,,,,,,,,,,,,,,,,,,,,,,,,,,,,,,,,,,,,,,,,,,,,,,,,,,,,,,,,,,,,,,,,,,,,,,,
,,,,,,,,,,60ef4432df04da6821fec20a,24,Mężczyzna,2022-06-04_08h36.23.362,task,2021.1.4,Win32,143.9677512,628b806c463b948bc644b84f,629afd59ca11e57e234c6f59,,,,,1,0,1,0,1,X V Q F H G B L J M P D K C T S W R N Z,,,,,,,,,,,,,,,,,,,,,,,,,,,,,,,,,,,,,,,,,,,,,,,,,,,,,,,,,,,,,,,,,,,,,,,,,,,,,,,,,,,,,,,,,,,,,
,,,,,,,,,,60ef4432df04da6821fec20a,24,Mężczyzna,2022-06-04_08h36.23.362,task,2021.1.4,Win32,143.9677512,628b806c463b948bc644b84f,629afd59ca11e57e234c6f59,,,,,2,0,2,0,1,X V Q F H G B L J M P D K C T S W R N Z,,,,,,,,,,,,,,,,,,,,,,,,,,,,,,,,,,,,,,,,,,,,,,,,,,,,,,,,,,,,,,,,,,,,,,,,,,,,,,,,,,,,,,,,,,,,,
,,,,,,,,,,60ef4432df04da6821fec20a,24,Mężczyzna,2022-06-04_08h36.23.362,task,2021.1.4,Win32,143.9677512,628b806c463b948bc644b84f,629afd59ca11e57e234c6f59,,,,,3,0,3,0,1,X V Q F H G B L J M P D K C T S W R N Z,,,,,,,,,,,,,,,,,,,,,,,,,,,,,,,,,,,,,,,,,,,,,,,,,,,,,,,,,,,,,,,,,,,,,,,,,,,,,,,,,,,,,,,,,,,,,
,,,,,,,,,,60ef4432df04da6821fec20a,24,Mężczyzna,2022-06-04_08h36.23.362,task,2021.1.4,Win32,143.9677512,628b806c463b948bc644b84f,629afd59ca11e57e234c6f59,,,,,,,,,,,tzgt,"[""t"",""z"",""g"",""t""]","[1.0462000000476905,1.6391000000238591,1.9071000000238882,2.180100000023856,2.876000000000033]",1,TZGT,5,0,5,0,1,,,,,,,,,,,,,,,,,,,,,,,,,,,,,,,,,,,,,,,,,,,,,,,,,,,,,,,,,,,,,,,,,,,,,,,,,,,,,,,,,,,
,,,,,,,,,,60ef4432df04da6821fec20a,24,Mężczyzna,2022-06-04_08h36.23.362,task,2021.1.4,Win32,143.9677512,628b806c463b948bc644b84f,629afd59ca11e57e234c6f59,,,,,0,0,0,0,1,X V Q F H G B L J M P D K C T S W R N Z,,,,,,,,,,,,,,,,,,,,,,,,,,,,,,,,,,,,,,,,,,,,,,,,,,,,,,,,,,,,,,,,,,,,,,,,,,,,,,,,,,,,,,,,,,,,,
,,,,,,,,,,60ef4432df04da6821fec20a,24,Mężczyzna,2022-06-04_08h36.23.362,task,2021.1.4,Win32,143.9677512,628b806c463b948bc644b84f,629afd59ca11e57e234c6f59,,,,,1,0,1,0,1,X V Q F H G B L J M P D K C T S W R N Z,,,,,,,,,,,,,,,,,,,,,,,,,,,,,,,,,,,,,,,,,,,,,,,,,,,,,,,,,,,,,,,,,,,,,,,,,,,,,,,,,,,,,,,,,,,,,
,,,,,,,,,,60ef4432df04da6821fec20a,24,Mężczyzna,2022-06-04_08h36.23.362,task,2021.1.4,Win32,143.9677512,628b806c463b948bc644b84f,629afd59ca11e57e234c6f59,,,,,2,0,2,0,1,X V Q F H G B L J M P D K C T S W R N Z,,,,,,,,,,,,,,,,,,,,,,,,,,,,,,,,,,,,,,,,,,,,,,,,,,,,,,,,,,,,,,,,,,,,,,,,,,,,,,,,,,,,,,,,,,,,,
,,,,,,,,,,60ef4432df04da6821fec20a,24,Mężczyzna,2022-06-04_08h36.23.362,task,2021.1.4,Win32,143.9677512,628b806c463b948bc644b84f,629afd59ca11e57e234c6f59,,,,,3,0,3,0,1,X V Q F H G B L J M P D K C T S W R N Z,,,,,,,,,,,,,,,,,,,,,,,,,,,,,,,,,,,,,,,,,,,,,,,,,,,,,,,,,,,,,,,,,,,,,,,,,,,,,,,,,,,,,,,,,,,,,
,,,,,,,,,,60ef4432df04da6821fec20a,24,Mężczyzna,2022-06-04_08h36.23.362,task,2021.1.4,Win32,143.9677512,628b806c463b948bc644b84f,629afd59ca11e57e234c6f59,,,,,4,0,4,0,1,X V Q F H G B L J M P D K C T S W R N Z,,,,,,,,,,,,,,,,,,,,,,,,,,,,,,,,,,,,,,,,,,,,,,,,,,,,,,,,,,,,,,,,,,,,,,,,,,,,,,,,,,,,,,,,,,,,,
,,,,,,,,,,60ef4432df04da6821fec20a,24,Mężczyzna,2022-06-04_08h36.23.362,task,2021.1.4,Win32,143.9677512,628b806c463b948bc644b84f,629afd59ca11e57e234c6f59,,,,,,,,,,,srrhf,"[""s"",""r"",""r"",""h"",""f""]","[0.5181999999284699,1.0091999999284553,1.1741999999284758,1.5220999999046398,2.1382999999523236,2.6800999999045985]",1,SRRHF,6,0,6,0,1,,,,,,,,,,,,,,,,,,,,,,,,,,,,,,,,,,,,,,,,,,,,,,,,,,,,,,,,,,,,,,,,,,,,,,,,,,,,,,,,,,,
,,,,,,,,,,60ef4432df04da6821fec20a,24,Mężczyzna,2022-06-04_08h36.23.362,task,2021.1.4,Win32,143.9677512,628b806c463b948bc644b84f,629afd59ca11e57e234c6f59,,,,,0,0,0,0,1,X V Q F H G B L J M P D K C T S W R N Z,,,,,,,,,,,,,,,,,,,,,,,,,,,,,,,,,,,,,,,,,,,,,,,,,,,,,,,,,,,,,,,,,,,,,,,,,,,,,,,,,,,,,,,,,,,,,
,,,,,,,,,,60ef4432df04da6821fec20a,24,Mężczyzna,2022-06-04_08h36.23.362,task,2021.1.4,Win32,143.9677512,628b806c463b948bc644b84f,629afd59ca11e57e234c6f59,,,,,1,0,1,0,1,X V Q F H G B L J M P D K C T S W R N Z,,,,,,,,,,,,,,,,,,,,,,,,,,,,,,,,,,,,,,,,,,,,,,,,,,,,,,,,,,,,,,,,,,,,,,,,,,,,,,,,,,,,,,,,,,,,,
,,,,,,,,,,60ef4432df04da6821fec20a,24,Mężczyzna,2022-06-04_08h36.23.362,task,2021.1.4,Win32,143.9677512,628b806c463b948bc644b84f,629afd59ca11e57e234c6f59,,,,,2,0,2,0,1,X V Q F H G B L J M P D K C T S W R N Z,,,,,,,,,,,,,,,,,,,,,,,,,,,,,,,,,,,,,,,,,,,,,,,,,,,,,,,,,,,,,,,,,,,,,,,,,,,,,,,,,,,,,,,,,,,,,
,,,,,,,,,,60ef4432df04da6821fec20a,24,Mężczyzna,2022-06-04_08h36.23.362,task,2021.1.4,Win32,143.9677512,628b806c463b948bc644b84f,629afd59ca11e57e234c6f59,,,,,3,0,3,0,1,X V Q F H G B L J M P D K C T S W R N Z,,,,,,,,,,,,,,,,,,,,,,,,,,,,,,,,,,,,,,,,,,,,,,,,,,,,,,,,,,,,,,,,,,,,,,,,,,,,,,,,,,,,,,,,,,,,,
,,,,,,,,,,60ef4432df04da6821fec20a,24,Mężczyzna,2022-06-04_08h36.23.362,task,2021.1.4,Win32,143.9677512,628b806c463b948bc644b84f,629afd59ca11e57e234c6f59,,,,,4,0,4,0,1,X V Q F H G B L J M P D K C T S W R N Z,,,,,,,,,,,,,,,,,,,,,,,,,,,,,,,,,,,,,,,,,,,,,,,,,,,,,,,,,,,,,,,,,,,,,,,,,,,,,,,,,,,,,,,,,,,,,
,,,,,,,,,,60ef4432df04da6821fec20a,24,Mężczyzna,2022-06-04_08h36.23.362,task,2021.1.4,Win32,143.9677512,628b806c463b948bc644b84f,629afd59ca11e57e234c6f59,,,,,,,,,,,mtbpn,"[""m"",""t"",""b"",""p"",""n""]","[0.9090999999046403,1.2561999999284694,1.9750999999046144,2.2833999999761545,3.240299999952299,3.6172999999523086]",1,MTBPN,7,0,7,0,1,,,,,,,,,,,,,,,,,,,,,,,,,,,,,,,,,,,,,,,,,,,,,,,,,,,,,,,,,,,,,,,,,,,,,,,,,,,,,,,,,,,
,,,,,,,,,,60ef4432df04da6821fec20a,24,Mężczyzna,2022-06-04_08h36.23.362,task,2021.1.4,Win32,143.9677512,628b806c463b948bc644b84f,629afd59ca11e57e234c6f59,,,,,0,0,0,0,1,X V Q F H G B L J M P D K C T S W R N Z,,,,,,,,,,,,,,,,,,,,,,,,,,,,,,,,,,,,,,,,,,,,,,,,,,,,,,,,,,,,,,,,,,,,,,,,,,,,,,,,,,,,,,,,,,,,,
,,,,,,,,,,60ef4432df04da6821fec20a,24,Mężczyzna,2022-06-04_08h36.23.362,task,2021.1.4,Win32,143.9677512,628b806c463b948bc644b84f,629afd59ca11e57e234c6f59,,,,,1,0,1,0,1,X V Q F H G B L J M P D K C T S W R N Z,,,,,,,,,,,,,,,,,,,,,,,,,,,,,,,,,,,,,,,,,,,,,,,,,,,,,,,,,,,,,,,,,,,,,,,,,,,,,,,,,,,,,,,,,,,,,
,,,,,,,,,,60ef4432df04da6821fec20a,24,Mężczyzna,2022-06-04_08h36.23.362,task,2021.1.4,Win32,143.9677512,628b806c463b948bc644b84f,629afd59ca11e57e234c6f59,,,,,2,0,2,0,1,X V Q F H G B L J M P D K C T S W R N Z,,,,,,,,,,,,,,,,,,,,,,,,,,,,,,,,,,,,,,,,,,,,,,,,,,,,,,,,,,,,,,,,,,,,,,,,,,,,,,,,,,,,,,,,,,,,,
,,,,,,,,,,60ef4432df04da6821fec20a,24,Mężczyzna,2022-06-04_08h36.23.362,task,2021.1.4,Win32,143.9677512,628b806c463b948bc644b84f,629afd59ca11e57e234c6f59,,,,,3,0,3,0,1,X V Q F H G B L J M P D K C T S W R N Z,,,,,,,,,,,,,,,,,,,,,,,,,,,,,,,,,,,,,,,,,,,,,,,,,,,,,,,,,,,,,,,,,,,,,,,,,,,,,,,,,,,,,,,,,,,,,
,,,,,,,,,,60ef4432df04da6821fec20a,24,Mężczyzna,2022-06-04_08h36.23.362,task,2021.1.4,Win32,143.9677512,628b806c463b948bc644b84f,629afd59ca11e57e234c6f59,,,,,4,0,4,0,1,X V Q F H G B L J M P D K C T S W R N Z,,,,,,,,,,,,,,,,,,,,,,,,,,,,,,,,,,,,,,,,,,,,,,,,,,,,,,,,,,,,,,,,,,,,,,,,,,,,,,,,,,,,,,,,,,,,,
,,,,,,,,,,60ef4432df04da6821fec20a,24,Mężczyzna,2022-06-04_08h36.23.362,task,2021.1.4,Win32,143.9677512,628b806c463b948bc644b84f,629afd59ca11e57e234c6f59,,,,,5,0,5,0,1,X V Q F H G B L J M P D K C T S W R N Z,,,,,,,,,,,,,,,,,,,,,,,,,,,,,,,,,,,,,,,,,,,,,,,,,,,,,,,,,,,,,,,,,,,,,,,,,,,,,,,,,,,,,,,,,,,,,
,,,,,,,,,,60ef4432df04da6821fec20a,24,Mężczyzna,2022-06-04_08h36.23.362,task,2021.1.4,Win32,143.9677512,628b806c463b948bc644b84f,629afd59ca11e57e234c6f59,,,,,,,,,,,mlrwrv,"[""m"",""l"",""r"",""w"",""r"",""v""]","[1.0826999999284226,2.045799999952237,2.5416999999284826,3.026599999904647,3.4996999999284526,4.417500000000018,4.793599999904586]",1,MLRWRV,8,0,8,0,1,,,,,,,,,,,,,,,,,,,,,,,,,,,,,,,,,,,,,,,,,,,,,,,,,,,,,,,,,,,,,,,,,,,,,,,,,,,,,,,,,,,
,,,,,,,,,,60ef4432df04da6821fec20a,24,Mężczyzna,2022-06-04_08h36.23.362,task,2021.1.4,Win32,143.9677512,628b806c463b948bc644b84f,629afd59ca11e57e234c6f59,,,,,0,0,0,0,1,X V Q F H G B L J M P D K C T S W R N Z,,,,,,,,,,,,,,,,,,,,,,,,,,,,,,,,,,,,,,,,,,,,,,,,,,,,,,,,,,,,,,,,,,,,,,,,,,,,,,,,,,,,,,,,,,,,,
,,,,,,,,,,60ef4432df04da6821fec20a,24,Mężczyzna,2022-06-04_08h36.23.362,task,2021.1.4,Win32,143.9677512,628b806c463b948bc644b84f,629afd59ca11e57e234c6f59,,,,,1,0,1,0,1,X V Q F H G B L J M P D K C T S W R N Z,,,,,,,,,,,,,,,,,,,,,,,,,,,,,,,,,,,,,,,,,,,,,,,,,,,,,,,,,,,,,,,,,,,,,,,,,,,,,,,,,,,,,,,,,,,,,
,,,,,,,,,,60ef4432df04da6821fec20a,24,Mężczyzna,2022-06-04_08h36.23.362,task,2021.1.4,Win32,143.9677512,628b806c463b948bc644b84f,629afd59ca11e57e234c6f59,,,,,2,0,2,0,1,X V Q F H G B L J M P D K C T S W R N Z,,,,,,,,,,,,,,,,,,,,,,,,,,,,,,,,,,,,,,,,,,,,,,,,,,,,,,,,,,,,,,,,,,,,,,,,,,,,,,,,,,,,,,,,,,,,,
,,,,,,,,,,60ef4432df04da6821fec20a,24,Mężczyzna,2022-06-04_08h36.23.362,task,2021.1.4,Win32,143.9677512,628b806c463b948bc644b84f,629afd59ca11e57e234c6f59,,,,,3,0,3,0,1,X V Q F H G B L J M P D K C T S W R N Z,,,,,,,,,,,,,,,,,,,,,,,,,,,,,,,,,,,,,,,,,,,,,,,,,,,,,,,,,,,,,,,,,,,,,,,,,,,,,,,,,,,,,,,,,,,,,
,,,,,,,,,,60ef4432df04da6821fec20a,24,Mężczyzna,2022-06-04_08h36.23.362,task,2021.1.4,Win32,143.9677512,628b806c463b948bc644b84f,629afd59ca11e57e234c6f59,,,,,4,0,4,0,1,X V Q F H G B L J M P D K C T S W R N Z,,,,,,,,,,,,,,,,,,,,,,,,,,,,,,,,,,,,,,,,,,,,,,,,,,,,,,,,,,,,,,,,,,,,,,,,,,,,,,,,,,,,,,,,,,,,,
,,,,,,,,,,60ef4432df04da6821fec20a,24,Mężczyzna,2022-06-04_08h36.23.362,task,2021.1.4,Win32,143.9677512,628b806c463b948bc644b84f,629afd59ca11e57e234c6f59,,,,,5,0,5,0,1,X V Q F H G B L J M P D K C T S W R N Z,,,,,,,,,,,,,,,,,,,,,,,,,,,,,,,,,,,,,,,,,,,,,,,,,,,,,,,,,,,,,,,,,,,,,,,,,,,,,,,,,,,,,,,,,,,,,
,,,,,,,,,,60ef4432df04da6821fec20a,24,Mężczyzna,2022-06-04_08h36.23.362,task,2021.1.4,Win32,143.9677512,628b806c463b948bc644b84f,629afd59ca11e57e234c6f59,,,,,,,,,,,nfjvcw,"[""n"",""f"",""j"",""v"",""c"",""w""]","[1.5434999999999945,3.2423999999762145,3.704099999904656,4.331099999904723,4.958099999904675,6.09209999990469,6.2690000000000055]",0,NFJVNC,9,0,9,0,1,,,,,,,,,,,,,,,,,,,,,,,,,,,,,,,,,,,,,,,,,,,,,,,,,,,,,,,,,,,,,,,,,,,,,,,,,,,,,,,,,,,
,,,,,,,,,,60ef4432df04da6821fec20a,24,Mężczyzna,2022-06-04_08h36.23.362,task,2021.1.4,Win32,143.9677512,628b806c463b948bc644b84f,629afd59ca11e57e234c6f59,,,,,0,0,0,0,1,X V Q F H G B L J M P D K C T S W R N Z,,,,,,,,,,,,,,,,,,,,,,,,,,,,,,,,,,,,,,,,,,,,,,,,,,,,,,,,,,,,,,,,,,,,,,,,,,,,,,,,,,,,,,,,,,,,,
,,,,,,,,,,60ef4432df04da6821fec20a,24,Mężczyzna,2022-06-04_08h36.23.362,task,2021.1.4,Win32,143.9677512,628b806c463b948bc644b84f,629afd59ca11e57e234c6f59,,,,,1,0,1,0,1,X V Q F H G B L J M P D K C T S W R N Z,,,,,,,,,,,,,,,,,,,,,,,,,,,,,,,,,,,,,,,,,,,,,,,,,,,,,,,,,,,,,,,,,,,,,,,,,,,,,,,,,,,,,,,,,,,,,
,,,,,,,,,,60ef4432df04da6821fec20a,24,Mężczyzna,2022-06-04_08h36.23.362,task,2021.1.4,Win32,143.9677512,628b806c463b948bc644b84f,629afd59ca11e57e234c6f59,,,,,2,0,2,0,1,X V Q F H G B L J M P D K C T S W R N Z,,,,,,,,,,,,,,,,,,,,,,,,,,,,,,,,,,,,,,,,,,,,,,,,,,,,,,,,,,,,,,,,,,,,,,,,,,,,,,,,,,,,,,,,,,,,,
,,,,,,,,,,60ef4432df04da6821fec20a,24,Mężczyzna,2022-06-04_08h36.23.362,task,2021.1.4,Win32,143.9677512,628b806c463b948bc644b84f,629afd59ca11e57e234c6f59,,,,,3,0,3,0,1,X V Q F H G B L J M P D K C T S W R N Z,,,,,,,,,,,,,,,,,,,,,,,,,,,,,,,,,,,,,,,,,,,,,,,,,,,,,,,,,,,,,,,,,,,,,,,,,,,,,,,,,,,,,,,,,,,,,
,,,,,,,,,,60ef4432df04da6821fec20a,24,Mężczyzna,2022-06-04_08h36.23.362,task,2021.1.4,Win32,143.9677512,628b806c463b948bc644b84f,629afd59ca11e57e234c6f59,,,,,4,0,4,0,1,X V Q F H G B L J M P D K C T S W R N Z,,,,,,,,,,,,,,,,,,,,,,,,,,,,,,,,,,,,,,,,,,,,,,,,,,,,,,,,,,,,,,,,,,,,,,,,,,,,,,,,,,,,,,,,,,,,,
,,,,,,,,,,60ef4432df04da6821fec20a,24,Mężczyzna,2022-06-04_08h36.23.362,task,2021.1.4,Win32,143.9677512,628b806c463b948bc644b84f,629afd59ca11e57e234c6f59,,,,,5,0,5,0,1,X V Q F H G B L J M P D K C T S W R N Z,,,,,,,,,,,,,,,,,,,,,,,,,,,,,,,,,,,,,,,,,,,,,,,,,,,,,,,,,,,,,,,,,,,,,,,,,,,,,,,,,,,,,,,,,,,,,
,,,,,,,,,,60ef4432df04da6821fec20a,24,Mężczyzna,2022-06-04_08h36.23.362,task,2021.1.4,Win32,143.9677512,628b806c463b948bc644b84f,629afd59ca11e57e234c6f59,,,,,,,,,,,pscjqr,"[""p"",""s"",""c"",""j"",""q"",""r""]","[1.19660000002375,1.4304999999999382,1.772400000095331,2.360500000000002,3.2944000000953793,3.6423000000714865,4.252400000095349]",1,PSCJQR,10,0,10,0,1,,,,,,,,,,,,,,,,,,,,,,,,,,,,,,,,,,,,,,,,,,,,,,,,,,,,,,,,,,,,,,,,,,,,,,,,,,,,,,,,,,,
,,,,,,,,,,60ef4432df04da6821fec20a,24,Mężczyzna,2022-06-04_08h36.23.362,task,2021.1.4,Win32,143.9677512,628b806c463b948bc644b84f,629afd59ca11e57e234c6f59,,,,,0,0,0,0,1,X V Q F H G B L J M P D K C T S W R N Z,,,,,,,,,,,,,,,,,,,,,,,,,,,,,,,,,,,,,,,,,,,,,,,,,,,,,,,,,,,,,,,,,,,,,,,,,,,,,,,,,,,,,,,,,,,,,
,,,,,,,,,,60ef4432df04da6821fec20a,24,Mężczyzna,2022-06-04_08h36.23.362,task,2021.1.4,Win32,143.9677512,628b806c463b948bc644b84f,629afd59ca11e57e234c6f59,,,,,1,0,1,0,1,X V Q F H G B L J M P D K C T S W R N Z,,,,,,,,,,,,,,,,,,,,,,,,,,,,,,,,,,,,,,,,,,,,,,,,,,,,,,,,,,,,,,,,,,,,,,,,,,,,,,,,,,,,,,,,,,,,,
,,,,,,,,,,60ef4432df04da6821fec20a,24,Mężczyzna,2022-06-04_08h36.23.362,task,2021.1.4,Win32,143.9677512,628b806c463b948bc644b84f,629afd59ca11e57e234c6f59,,,,,2,0,2,0,1,X V Q F H G B L J M P D K C T S W R N Z,,,,,,,,,,,,,,,,,,,,,,,,,,,,,,,,,,,,,,,,,,,,,,,,,,,,,,,,,,,,,,,,,,,,,,,,,,,,,,,,,,,,,,,,,,,,,
,,,,,,,,,,60ef4432df04da6821fec20a,24,Mężczyzna,2022-06-04_08h36.23.362,task,2021.1.4,Win32,143.9677512,628b806c463b948bc644b84f,629afd59ca11e57e234c6f59,,,,,3,0,3,0,1,X V Q F H G B L J M P D K C T S W R N Z,,,,,,,,,,,,,,,,,,,,,,,,,,,,,,,,,,,,,,,,,,,,,,,,,,,,,,,,,,,,,,,,,,,,,,,,,,,,,,,,,,,,,,,,,,,,,
,,,,,,,,,,60ef4432df04da6821fec20a,24,Mężczyzna,2022-06-04_08h36.23.362,task,2021.1.4,Win32,143.9677512,628b806c463b948bc644b84f,629afd59ca11e57e234c6f59,,,,,4,0,4,0,1,X V Q F H G B L J M P D K C T S W R N Z,,,,,,,,,,,,,,,,,,,,,,,,,,,,,,,,,,,,,,,,,,,,,,,,,,,,,,,,,,,,,,,,,,,,,,,,,,,,,,,,,,,,,,,,,,,,,
,,,,,,,,,,60ef4432df04da6821fec20a,24,Mężczyzna,2022-06-04_08h36.23.362,task,2021.1.4,Win32,143.9677512,628b806c463b948bc644b84f,629afd59ca11e57e234c6f59,,,,,5,0,5,0,1,X V Q F H G B L J M P D K C T S W R N Z,,,,,,,,,,,,,,,,,,,,,,,,,,,,,,,,,,,,,,,,,,,,,,,,,,,,,,,,,,,,,,,,,,,,,,,,,,,,,,,,,,,,,,,,,,,,,
,,,,,,,,,,60ef4432df04da6821fec20a,24,Mężczyzna,2022-06-04_08h36.23.362,task,2021.1.4,Win32,143.9677512,628b806c463b948bc644b84f,629afd59ca11e57e234c6f59,,,,,6,0,6,0,1,X V Q F H G B L J M P D K C T S W R N Z,,,,,,,,,,,,,,,,,,,,,,,,,,,,,,,,,,,,,,,,,,,,,,,,,,,,,,,,,,,,,,,,,,,,,,,,,,,,,,,,,,,,,,,,,,,,,
,,,,,,,,,,60ef4432df04da6821fec20a,24,Mężczyzna,2022-06-04_08h36.23.362,task,2021.1.4,Win32,143.9677512,628b806c463b948bc644b84f,629afd59ca11e57e234c6f59,,,,,,,,,,,nhwvjqw,"[""n"",""h"",""w"",""v"",""j"",""q"",""w""]","[0.8536999999283807,1.3484999999999445,4.022499999999923,4.752399999976092,5.310600000023783,8.315499999999929,8.457699999928423,9.21049999999991]",0,NHVWCPQ,11,0,11,0,1,,,,,,,,,,,,,,,,,,,,,,,,,,,,,,,,,,,,,,,,,,,,,,,,,,,,,,,,,,,,,,,,,,,,,,,,,,,,,,,,,,,
,,,,,,,,,,60ef4432df04da6821fec20a,24,Mężczyzna,2022-06-04_08h36.23.362,task,2021.1.4,Win32,143.9677512,628b806c463b948bc644b84f,629afd59ca11e57e234c6f59,,,,,0,0,0,0,1,X V Q F H G B L J M P D K C T S W R N Z,,,,,,,,,,,,,,,,,,,,,,,,,,,,,,,,,,,,,,,,,,,,,,,,,,,,,,,,,,,,,,,,,,,,,,,,,,,,,,,,,,,,,,,,,,,,,
,,,,,,,,,,60ef4432df04da6821fec20a,24,Mężczyzna,2022-06-04_08h36.23.362,task,2021.1.4,Win32,143.9677512,628b806c463b948bc644b84f,629afd59ca11e57e234c6f59,,,,,1,0,1,0,1,X V Q F H G B L J M P D K C T S W R N Z,,,,,,,,,,,,,,,,,,,,,,,,,,,,,,,,,,,,,,,,,,,,,,,,,,,,,,,,,,,,,,,,,,,,,,,,,,,,,,,,,,,,,,,,,,,,,
,,,,,,,,,,60ef4432df04da6821fec20a,24,Mężczyzna,2022-06-04_08h36.23.362,task,2021.1.4,Win32,143.9677512,628b806c463b948bc644b84f,629afd59ca11e57e234c6f59,,,,,2,0,2,0,1,X V Q F H G B L J M P D K C T S W R N Z,,,,,,,,,,,,,,,,,,,,,,,,,,,,,,,,,,,,,,,,,,,,,,,,,,,,,,,,,,,,,,,,,,,,,,,,,,,,,,,,,,,,,,,,,,,,,
,,,,,,,,,,60ef4432df04da6821fec20a,24,Mężczyzna,2022-06-04_08h36.23.362,task,2021.1.4,Win32,143.9677512,628b806c463b948bc644b84f,629afd59ca11e57e234c6f59,,,,,3,0,3,0,1,X V Q F H G B L J M P D K C T S W R N Z,,,,,,,,,,,,,,,,,,,,,,,,,,,,,,,,,,,,,,,,,,,,,,,,,,,,,,,,,,,,,,,,,,,,,,,,,,,,,,,,,,,,,,,,,,,,,
,,,,,,,,,,60ef4432df04da6821fec20a,24,Mężczyzna,2022-06-04_08h36.23.362,task,2021.1.4,Win32,143.9677512,628b806c463b948bc644b84f,629afd59ca11e57e234c6f59,,,,,4,0,4,0,1,X V Q F H G B L J M P D K C T S W R N Z,,,,,,,,,,,,,,,,,,,,,,,,,,,,,,,,,,,,,,,,,,,,,,,,,,,,,,,,,,,,,,,,,,,,,,,,,,,,,,,,,,,,,,,,,,,,,
,,,,,,,,,,60ef4432df04da6821fec20a,24,Mężczyzna,2022-06-04_08h36.23.362,task,2021.1.4,Win32,143.9677512,628b806c463b948bc644b84f,629afd59ca11e57e234c6f59,,,,,5,0,5,0,1,X V Q F H G B L J M P D K C T S W R N Z,,,,,,,,,,,,,,,,,,,,,,,,,,,,,,,,,,,,,,,,,,,,,,,,,,,,,,,,,,,,,,,,,,,,,,,,,,,,,,,,,,,,,,,,,,,,,
,,,,,,,,,,60ef4432df04da6821fec20a,24,Mężczyzna,2022-06-04_08h36.23.362,task,2021.1.4,Win32,143.9677512,628b806c463b948bc644b84f,629afd59ca11e57e234c6f59,,,,,6,0,6,0,1,X V Q F H G B L J M P D K C T S W R N Z,,,,,,,,,,,,,,,,,,,,,,,,,,,,,,,,,,,,,,,,,,,,,,,,,,,,,,,,,,,,,,,,,,,,,,,,,,,,,,,,,,,,,,,,,,,,,
,,,,,,,,,,60ef4432df04da6821fec20a,24,Mężczyzna,2022-06-04_08h36.23.362,task,2021.1.4,Win32,143.9677512,628b806c463b948bc644b84f,629afd59ca11e57e234c6f59,,,,,,,,,,,qxxkfxx,"[""q"",""x"",""x"",""k"",""f"",""x"",""x""]","[1.1732000000477,4.712399999976128,4.900100000023826,5.152200000047742,5.408600000023853,5.9321000000238655,6.092100000023834,11.935399999976198]",1,QXXKFXX,12,0,12,0,1,,,,,,,,,,,,,,,,,,,,,,,,,,,,,,,,,,,,,,,,,,,,,,,,,,,,,,,,,,,,,,,,,,,,,,,,,,,,,,,,,,,
,,,,,,,,,,60ef4432df04da6821fec20a,24,Mężczyzna,2022-06-04_08h36.23.362,task,2021.1.4,Win32,143.9677512,628b806c463b948bc644b84f,629afd59ca11e57e234c6f59,,,,,0,0,0,0,1,X V Q F H G B L J M P D K C T S W R N Z,,,,,,,,,,,,,,,,,,,,,,,,,,,,,,,,,,,,,,,,,,,,,,,,,,,,,,,,,,,,,,,,,,,,,,,,,,,,,,,,,,,,,,,,,,,,,
,,,,,,,,,,60ef4432df04da6821fec20a,24,Mężczyzna,2022-06-04_08h36.23.362,task,2021.1.4,Win32,143.9677512,628b806c463b948bc644b84f,629afd59ca11e57e234c6f59,,,,,1,0,1,0,1,X V Q F H G B L J M P D K C T S W R N Z,,,,,,,,,,,,,,,,,,,,,,,,,,,,,,,,,,,,,,,,,,,,,,,,,,,,,,,,,,,,,,,,,,,,,,,,,,,,,,,,,,,,,,,,,,,,,
,,,,,,,,,,60ef4432df04da6821fec20a,24,Mężczyzna,2022-06-04_08h36.23.362,task,2021.1.4,Win32,143.9677512,628b806c463b948bc644b84f,629afd59ca11e57e234c6f59,,,,,2,0,2,0,1,X V Q F H G B L J M P D K C T S W R N Z,,,,,,,,,,,,,,,,,,,,,,,,,,,,,,,,,,,,,,,,,,,,,,,,,,,,,,,,,,,,,,,,,,,,,,,,,,,,,,,,,,,,,,,,,,,,,
,,,,,,,,,,60ef4432df04da6821fec20a,24,Mężczyzna,2022-06-04_08h36.23.362,task,2021.1.4,Win32,143.9677512,628b806c463b948bc644b84f,629afd59ca11e57e234c6f59,,,,,3,0,3,0,1,X V Q F H G B L J M P D K C T S W R N Z,,,,,,,,,,,,,,,,,,,,,,,,,,,,,,,,,,,,,,,,,,,,,,,,,,,,,,,,,,,,,,,,,,,,,,,,,,,,,,,,,,,,,,,,,,,,,
,,,,,,,,,,60ef4432df04da6821fec20a,24,Mężczyzna,2022-06-04_08h36.23.362,task,2021.1.4,Win32,143.9677512,628b806c463b948bc644b84f,629afd59ca11e57e234c6f59,,,,,4,0,4,0,1,X V Q F H G B L J M P D K C T S W R N Z,,,,,,,,,,,,,,,,,,,,,,,,,,,,,,,,,,,,,,,,,,,,,,,,,,,,,,,,,,,,,,,,,,,,,,,,,,,,,,,,,,,,,,,,,,,,,
,,,,,,,,,,60ef4432df04da6821fec20a,24,Mężczyzna,2022-06-04_08h36.23.362,task,2021.1.4,Win32,143.9677512,628b806c463b948bc644b84f,629afd59ca11e57e234c6f59,,,,,5,0,5,0,1,X V Q F H G B L J M P D K C T S W R N Z,,,,,,,,,,,,,,,,,,,,,,,,,,,,,,,,,,,,,,,,,,,,,,,,,,,,,,,,,,,,,,,,,,,,,,,,,,,,,,,,,,,,,,,,,,,,,
,,,,,,,,,,60ef4432df04da6821fec20a,24,Mężczyzna,2022-06-04_08h36.23.362,task,2021.1.4,Win32,143.9677512,628b806c463b948bc644b84f,629afd59ca11e57e234c6f59,,,,,6,0,6,0,1,X V Q F H G B L J M P D K C T S W R N Z,,,,,,,,,,,,,,,,,,,,,,,,,,,,,,,,,,,,,,,,,,,,,,,,,,,,,,,,,,,,,,,,,,,,,,,,,,,,,,,,,,,,,,,,,,,,,
,,,,,,,,,,60ef4432df04da6821fec20a,24,Mężczyzna,2022-06-04_08h36.23.362,task,2021.1.4,Win32,143.9677512,628b806c463b948bc644b84f,629afd59ca11e57e234c6f59,,,,,,,,,,,ngphjk,"[""n"",""g"",""p"",""h"",""j"",""k""]","[3.472799999952258,3.808799999952271,4.2596999999284435,6.755999999999972,7.67379999995228,7.873899999976061,9.82279999995228]",0,NPNGGRK,13,0,13,0,1,,,,,,,,,,,,,,,,,,,,,,,,,,,,,,,,,,,,,,,,,,,,,,,,,,,,,,,,,,,,,,,,,,,,,,,,,,,,,,,,,,,
,,,,,,,,,,60ef4432df04da6821fec20a,24,Mężczyzna,2022-06-04_08h36.23.362,task,2021.1.4,Win32,143.9677512,628b806c463b948bc644b84f,629afd59ca11e57e234c6f59,,,,,0,0,0,0,1,X V Q F H G B L J M P D K C T S W R N Z,,,,,,,,,,,,,,,,,,,,,,,,,,,,,,,,,,,,,,,,,,,,,,,,,,,,,,,,,,,,,,,,,,,,,,,,,,,,,,,,,,,,,,,,,,,,,
,,,,,,,,,,60ef4432df04da6821fec20a,24,Mężczyzna,2022-06-04_08h36.23.362,task,2021.1.4,Win32,143.9677512,628b806c463b948bc644b84f,629afd59ca11e57e234c6f59,,,,,1,0,1,0,1,X V Q F H G B L J M P D K C T S W R N Z,,,,,,,,,,,,,,,,,,,,,,,,,,,,,,,,,,,,,,,,,,,,,,,,,,,,,,,,,,,,,,,,,,,,,,,,,,,,,,,,,,,,,,,,,,,,,
,,,,,,,,,,60ef4432df04da6821fec20a,24,Mężczyzna,2022-06-04_08h36.23.362,task,2021.1.4,Win32,143.9677512,628b806c463b948bc644b84f,629afd59ca11e57e234c6f59,,,,,2,0,2,0,1,X V Q F H G B L J M P D K C T S W R N Z,,,,,,,,,,,,,,,,,,,,,,,,,,,,,,,,,,,,,,,,,,,,,,,,,,,,,,,,,,,,,,,,,,,,,,,,,,,,,,,,,,,,,,,,,,,,,
,,,,,,,,,,60ef4432df04da6821fec20a,24,Mężczyzna,2022-06-04_08h36.23.362,task,2021.1.4,Win32,143.9677512,628b806c463b948bc644b84f,629afd59ca11e57e234c6f59,,,,,3,0,3,0,1,X V Q F H G B L J M P D K C T S W R N Z,,,,,,,,,,,,,,,,,,,,,,,,,,,,,,,,,,,,,,,,,,,,,,,,,,,,,,,,,,,,,,,,,,,,,,,,,,,,,,,,,,,,,,,,,,,,,
,,,,,,,,,,60ef4432df04da6821fec20a,24,Mężczyzna,2022-06-04_08h36.23.362,task,2021.1.4,Win32,143.9677512,628b806c463b948bc644b84f,629afd59ca11e57e234c6f59,,,,,4,0,4,0,1,X V Q F H G B L J M P D K C T S W R N Z,,,,,,,,,,,,,,,,,,,,,,,,,,,,,,,,,,,,,,,,,,,,,,,,,,,,,,,,,,,,,,,,,,,,,,,,,,,,,,,,,,,,,,,,,,,,,
,,,,,,,,,,60ef4432df04da6821fec20a,24,Mężczyzna,2022-06-04_08h36.23.362,task,2021.1.4,Win32,143.9677512,628b806c463b948bc644b84f,629afd59ca11e57e234c6f59,,,,,5,0,5,0,1,X V Q F H G B L J M P D K C T S W R N Z,,,,,,,,,,,,,,,,,,,,,,,,,,,,,,,,,,,,,,,,,,,,,,,,,,,,,,,,,,,,,,,,,,,,,,,,,,,,,,,,,,,,,,,,,,,,,
,,,,,,,,,,60ef4432df04da6821fec20a,24,Mężczyzna,2022-06-04_08h36.23.362,task,2021.1.4,Win32,143.9677512,628b806c463b948bc644b84f,629afd59ca11e57e234c6f59,,,,,6,0,6,0,1,X V Q F H G B L J M P D K C T S W R N Z,,,,,,,,,,,,,,,,,,,,,,,,,,,,,,,,,,,,,,,,,,,,,,,,,,,,,,,,,,,,,,,,,,,,,,,,,,,,,,,,,,,,,,,,,,,,,
,,,,,,,,,,60ef4432df04da6821fec20a,24,Mężczyzna,2022-06-04_08h36.23.362,task,2021.1.4,Win32,143.9677512,628b806c463b948bc644b84f,629afd59ca11e57e234c6f59,,,,,,,,,,,xptjrv,"[""x"",""p"",""t"",""j"",""r"",""v""]","[1.5446000000239337,1.8073999999761554,2.7078999999762345,3.049399999976231,3.4883999999761954,4.018299999952319,4.86850000000004]",0,XPTCJKV,14,0,14,0,1,,,,,,,,,,,,,,,,,,,,,,,,,,,,,,,,,,,,,,,,,,,,,,,,,,,,,,,,,,,,,,,,,,,,,,,,,,,,,,,,,,,
,,,,,,,,,,60ef4432df04da6821fec20a,24,Mężczyzna,2022-06-04_08h36.23.362,task,2021.1.4,Win32,143.9677512,628b806c463b948bc644b84f,629afd59ca11e57e234c6f59,,,,,,,,,,,,,,,,,,,,,space,51.2261,0,"[""0""]",1,[4.470699999928456],[4.470699999928456],0,0,0,0,1,Practice,1,(3x3) -  9,0,,,,,,,,,,,,,,,,,,,,,,,,,,,,,,,,,,,,,,,,,,,,,,,,,,,,,,,,,,,,,,,,,,,
,,,,,,,,,,60ef4432df04da6821fec20a,24,Mężczyzna,2022-06-04_08h36.23.362,task,2021.1.4,Win32,143.9677512,628b806c463b948bc644b84f,629afd59ca11e57e234c6f59,,,,,,,,,,,,,,,,,,,,,,,3,"[""3""]",1,[4.704000000000065],"[4.470699999928456,4.704000000000065]",0,1,1,3,1,Practice,4,(8/4) + 1,3,,,,,,,,,,,,,,,,,,,,,,,,,,,,,,,,,,,,,,,,,,,,,,,,,,,,,,,,,,,,,,,,,,,
,,,,,,,,,,60ef4432df04da6821fec20a,24,Mężczyzna,2022-06-04_08h36.23.362,task,2021.1.4,Win32,143.9677512,628b806c463b948bc644b84f,629afd59ca11e57e234c6f59,,,,,,,,,,,,,,,,,,,,,,,2,"[""2""]",1,[7.03030000007152],"[4.470699999928456,4.704000000000065,7.03030000007152]",0,2,2,2,1,Practice,3,(4x4) - 14,2,,,,,,,,,,,,,,,,,,,,,,,,,,,,,,,,,,,,,,,,,,,,,,,,,,,,,,,,,,,,,,,,,,,
,,,,,,,,,,60ef4432df04da6821fec20a,24,Mężczyzna,2022-06-04_08h36.23.362,task,2021.1.4,Win32,143.9677512,628b806c463b948bc644b84f,629afd59ca11e57e234c6f59,,,,,,,,,,,,,,,,,,,,,,,7,"[""7""]",1,[9.02049999999997],"[4.470699999928456,4.704000000000065,7.03030000007152,9.02049999999997]",0,3,3,7,1,Practice,8,(5x5) - 18,7,,,,,,,,,,,,,,,,,,,,,,,,,,,,,,,,,,,,,,,,,,,,,,,,,,,,,,,,,,,,,,,,,,,
,,,,,,,,,,60ef4432df04da6821fec20a,24,Mężczyzna,2022-06-04_08h36.23.362,task,2021.1.4,Win32,143.9677512,628b806c463b948bc644b84f,629afd59ca11e57e234c6f59,,,,,,,,,,,,,,,,,,,,,,,5,"[""5""]",1,[2.5342999999522817],"[4.470699999928456,4.704000000000065,7.03030000007152,9.02049999999997,2.5342999999522817]",0,4,4,5,1,Practice,6,(4/2) + 3,5,,,,,,,,,,,,,,,,,,,,,,,,,,,,,,,,,,,,,,,,,,,,,,,,,,,,,,,,,,,,,,,,,,,
,,,,,,,,,,60ef4432df04da6821fec20a,24,Mężczyzna,2022-06-04_08h36.23.362,task,2021.1.4,Win32,143.9677512,628b806c463b948bc644b84f,629afd59ca11e57e234c6f59,,,,,,,,,,,,,,,,,,,,,,,1,"[""1""]",1,[2.7685000000000173],"[4.470699999928456,4.704000000000065,7.03030000007152,9.02049999999997,2.5342999999522817,2.7685000000000173]",0,5,5,1,1,Practice,2,(4x4) - 15,1,,,,,,,,,,,,,,,,,,,,,,,,,,,,,,,,,,,,,,,,,,,,,,,,,,,,,,,,,,,,,,,,,,,
,,,,,,,,,,60ef4432df04da6821fec20a,24,Mężczyzna,2022-06-04_08h36.23.362,task,2021.1.4,Win32,143.9677512,628b806c463b948bc644b84f,629afd59ca11e57e234c6f59,,,,,,,,,,,,,,,,,,,,,,,4,"[""4""]",1,[2.88799999999992],"[4.470699999928456,4.704000000000065,7.03030000007152,9.02049999999997,2.5342999999522817,2.7685000000000173,2.88799999999992]",0,6,6,4,1,Practice,5,(2x6) - 8,4,,,,,,,,,,,,,,,,,,,,,,,,,,,,,,,,,,,,,,,,,,,,,,,,,,,,,,,,,,,,,,,,,,,
,,,,,,,,,,60ef4432df04da6821fec20a,24,Mężczyzna,2022-06-04_08h36.23.362,task,2021.1.4,Win32,143.9677512,628b806c463b948bc644b84f,629afd59ca11e57e234c6f59,,,,,,,,,,,,,,,,,,,,,,,6,"[""6""]",1,[2.837100000023952],"[4.470699999928456,4.704000000000065,7.03030000007152,9.02049999999997,2.5342999999522817,2.7685000000000173,2.88799999999992,2.837100000023952]",0,7,7,6,1,Practice,7,(25/5) + 1,6,,,,,,,,,,,,,,,,,,,,,,,,,,,,,,,,,,,,,,,,,,,,,,,,,,,,,,,,,,,,,,,,,,,
,,,,,,,,,,60ef4432df04da6821fec20a,24,Mężczyzna,2022-06-04_08h36.23.362,task,2021.1.4,Win32,143.9677512,628b806c463b948bc644b84f,629afd59ca11e57e234c6f59,,,,,,,,,,,,,,,,,,,,,,,8,"[""8""]",1,[4.689100000023927],"[4.470699999928456,4.704000000000065,7.03030000007152,9.02049999999997,2.5342999999522817,2.7685000000000173,2.88799999999992,2.837100000023952,4.689100000023927]",0,8,8,8,1,Practice,9,(3x3) - 1,8,,,,,,,,,,,,,,,,,,,,,,,,,,,,,,,,,,,,,,,,,,,,,,,,,,,,,,,,,,,,,,,,,,,
,,,,,,,,,,60ef4432df04da6821fec20a,24,Mężczyzna,2022-06-04_08h36.23.362,task,2021.1.4,Win32,143.9677512,628b806c463b948bc644b84f,629afd59ca11e57e234c6f59,,,,,,,,,,,,,,,,,,,,,,,9,"[""9""]",1,[8.101700000047686],"[4.470699999928456,4.704000000000065,7.03030000007152,9.02049999999997,2.5342999999522817,2.7685000000000173,2.88799999999992,2.837100000023952,4.689100000023927,8.101700000047686]",0,9,9,9,1,Practice,10,(20/2) - 1,9,,,,,,,,,,,,,,,,,,,,,,,,,,,,,,,,,,,,,,,,,,,,,,,,,,,,,,,,,,,,,,,,,,,
,,,,,,,,,,60ef4432df04da6821fec20a,24,Mężczyzna,2022-06-04_08h36.23.362,task,2021.1.4,Win32,143.9677512,628b806c463b948bc644b84f,629afd59ca11e57e234c6f59,,,,,,,,,,,,,,,,,,,,,,,,,,,,,,,,,,,,,1,49.0442,3.269613333,77.20403669,2.268685915,9.122822993,space,36.4789,0,0,0,0,1,,,,,,,,,,,,,,,,,,,,,,,,,,,,,,,,,,,,,,,,,,,,,,,,,,,,,,
,,,,,,,,,,60ef4432df04da6821fec20a,24,Mężczyzna,2022-06-04_08h36.23.362,task,2021.1.4,Win32,143.9677512,628b806c463b948bc644b84f,629afd59ca11e57e234c6f59,,,,,,,,,,,,,,,,,,,,,,,0,,,,,,,,,,Practice,1,(3x3) -  9,0,,,,,,,,,,,,,,space,18.9775,"[""0""]",1,[2.105400000095301],1,0,0,0,0,1,,,,,,,,,,,,,,,,,,,,,,,,,,,,,,,,,,,,,,,,,,,
,,,,,,,,,,60ef4432df04da6821fec20a,24,Mężczyzna,2022-06-04_08h36.23.362,task,2021.1.4,Win32,143.9677512,628b806c463b948bc644b84f,629afd59ca11e57e234c6f59,,,,,,,,,,X V Q F H G B L J M P D K C T S W R N Z,,,,,,,,,,,,,,,,,,,,,,,,,,,,,,,,,,,,,,,,,,,,,,,,,,,0,0,0,0,1,,,,,,,,,,,,,,,,,,,,,,,,,,,,,,,,,,,,,,
,,,,,,,,,,60ef4432df04da6821fec20a,24,Mężczyzna,2022-06-04_08h36.23.362,task,2021.1.4,Win32,143.9677512,628b806c463b948bc644b84f,629afd59ca11e57e234c6f59,,,,,,,,,,,,,,,,,,,,,,,7,,,,,,,,,,Practice,8,(5x5) - 18,7,,,,,,,,,,,,,,,,"[""7""]",1,[6.8716999999285235],1,0,0,0,7,1,,,,,,,,,,,,,,,,,,,,,,,,,,,,,,,,,,,,,,,,,,,
,,,,,,,,,,60ef4432df04da6821fec20a,24,Mężczyzna,2022-06-04_08h36.23.362,task,2021.1.4,Win32,143.9677512,628b806c463b948bc644b84f,629afd59ca11e57e234c6f59,,,,,,,,,,X V Q F H G B L J M P D K C T S W R N Z,,,,,,,,,,,,,,,,,,,,,,,,,,,,,,,,,,,,,,,,,,,,,,,,,,,1,0,1,0,1,,,,,,,,,,,,,,,,,,,,,,,,,,,,,,,,,,,,,,
,,,,,,,,,,60ef4432df04da6821fec20a,24,Mężczyzna,2022-06-04_08h36.23.362,task,2021.1.4,Win32,143.9677512,628b806c463b948bc644b84f,629afd59ca11e57e234c6f59,,,,,,,,,,,,,,,,,,,,,,,,,,,,,,,,,,,,,,,,,,,,,,,,,,,,,,,,,,,,,,,,,,zf,"[""z"",""f""]",0,"[2.806800000071462,3.2291000000237773,4.56899999999996]",1,0,0,0,0,1,,,,,,,,,,,,,,,,,,,,,,,,,,,,
,,,,,,,,,,60ef4432df04da6821fec20a,24,Mężczyzna,2022-06-04_08h36.23.362,task,2021.1.4,Win32,143.9677512,628b806c463b948bc644b84f,629afd59ca11e57e234c6f59,,,,,,,,,,,,,,,,,,,,,,,9,,,,,,,,,,Practice,10,(20/2) - 1,9,,,,,,,,,,,,,,,,"[""9""]",1,[3.2007999999523236],1,0,0,0,9,1,,,,,,,,,,,,,,,,,,,,,,,,,,,,,,,,,,,,,,,,,,,
,,,,,,,,,,60ef4432df04da6821fec20a,24,Mężczyzna,2022-06-04_08h36.23.362,task,2021.1.4,Win32,143.9677512,628b806c463b948bc644b84f,629afd59ca11e57e234c6f59,,,,,,,,,,X V Q F H G B L J M P D K C T S W R N Z,,,,,,,,,,,,,,,,,,,,,,,,,,,,,,,,,,,,,,,,,,,,,,,,,,,0,0,0,0,1,,,,,,,,,,,,,,,,,,,,,,,,,,,,,,,,,,,,,,
,,,,,,,,,,60ef4432df04da6821fec20a,24,Mężczyzna,2022-06-04_08h36.23.362,task,2021.1.4,Win32,143.9677512,628b806c463b948bc644b84f,629afd59ca11e57e234c6f59,,,,,,,,,,,,,,,,,,,,,,,0,,,,,,,,,,Practice,1,(3x3) -  9,0,,,,,,,,,,,,,,,,"[""0""]",1,[2.309299999952259],1,0,0,0,0,1,,,,,,,,,,,,,,,,,,,,,,,,,,,,,,,,,,,,,,,,,,,
,,,,,,,,,,60ef4432df04da6821fec20a,24,Mężczyzna,2022-06-04_08h36.23.362,task,2021.1.4,Win32,143.9677512,628b806c463b948bc644b84f,629afd59ca11e57e234c6f59,,,,,,,,,,X V Q F H G B L J M P D K C T S W R N Z,,,,,,,,,,,,,,,,,,,,,,,,,,,,,,,,,,,,,,,,,,,,,,,,,,,1,0,1,0,1,,,,,,,,,,,,,,,,,,,,,,,,,,,,,,,,,,,,,,
,,,,,,,,,,60ef4432df04da6821fec20a,24,Mężczyzna,2022-06-04_08h36.23.362,task,2021.1.4,Win32,143.9677512,628b806c463b948bc644b84f,629afd59ca11e57e234c6f59,,,,,,,,,,,,,,,,,,,,,,,,,,,,,,,,,,,,,,,,,,,,,,,,,,,,,,,,,,,,,,,,,,gv,"[""g"",""v""]",0,"[2.1178000000714974,2.3399000000953265,3.091900000095393]",1,1,0,1,0,1,,,,,,,,,,,,,,,,,,,,,,,,,,,,
,,,,,,,,,,60ef4432df04da6821fec20a,24,Mężczyzna,2022-06-04_08h36.23.362,task,2021.1.4,Win32,143.9677512,628b806c463b948bc644b84f,629afd59ca11e57e234c6f59,,,,,,,,,,,,,,,,,,,,,,,9,,,,,,,,,,Practice,10,(20/2) - 1,9,,,,,,,,,,,,,,,,"[""9""]",1,[2.4716000000239546],1,0,0,0,9,1,,,,,,,,,,,,,,,,,,,,,,,,,,,,,,,,,,,,,,,,,,,
,,,,,,,,,,60ef4432df04da6821fec20a,24,Mężczyzna,2022-06-04_08h36.23.362,task,2021.1.4,Win32,143.9677512,628b806c463b948bc644b84f,629afd59ca11e57e234c6f59,,,,,,,,,,X V Q F H G B L J M P D K C T S W R N Z,,,,,,,,,,,,,,,,,,,,,,,,,,,,,,,,,,,,,,,,,,,,,,,,,,,0,0,0,0,1,,,,,,,,,,,,,,,,,,,,,,,,,,,,,,,,,,,,,,
,,,,,,,,,,60ef4432df04da6821fec20a,24,Mężczyzna,2022-06-04_08h36.23.362,task,2021.1.4,Win32,143.9677512,628b806c463b948bc644b84f,629afd59ca11e57e234c6f59,,,,,,,,,,,,,,,,,,,,,,,3,,,,,,,,,,Practice,4,(8/4) + 1,3,,,,,,,,,,,,,,,,"[""3""]",1,[6.606100000023844],1,0,0,0,3,1,,,,,,,,,,,,,,,,,,,,,,,,,,,,,,,,,,,,,,,,,,,
,,,,,,,,,,60ef4432df04da6821fec20a,24,Mężczyzna,2022-06-04_08h36.23.362,task,2021.1.4,Win32,143.9677512,628b806c463b948bc644b84f,629afd59ca11e57e234c6f59,,,,,,,,,,X V Q F H G B L J M P D K C T S W R N Z,,,,,,,,,,,,,,,,,,,,,,,,,,,,,,,,,,,,,,,,,,,,,,,,,,,1,0,1,0,1,,,,,,,,,,,,,,,,,,,,,,,,,,,,,,,,,,,,,,
,,,,,,,,,,60ef4432df04da6821fec20a,24,Mężczyzna,2022-06-04_08h36.23.362,task,2021.1.4,Win32,143.9677512,628b806c463b948bc644b84f,629afd59ca11e57e234c6f59,,,,,,,,,,,,,,,,,,,,,,,,,,,,,,,,,,,,,,,,,,,,,,,,,,,,,,,,,,,,,,,,,,vw,"[""v"",""w""]",0,"[2.13900000000001,2.5431000000238555,3.2502000000476983]",1,2,0,2,0,1,,,,,,,,,,,,,,,,,,,,,,,,,,,,
,,,,,,,,,,60ef4432df04da6821fec20a,24,Mężczyzna,2022-06-04_08h36.23.362,task,2021.1.4,Win32,143.9677512,628b806c463b948bc644b84f,629afd59ca11e57e234c6f59,,,,,,,,,,,,,,,,,,,,,,,,,,,,,,,,,Task,7,(3x7) - 12,9,,,,,,,,,,,,,,,,,,,0,,,,,,,,,,,,,,,,,,,,,space,15.9945,,0,0,0,0,6,1,,,,,,,,,,,,,,,,,,,
,,,,,,,,,,60ef4432df04da6821fec20a,24,Mężczyzna,2022-06-04_08h36.23.362,task,2021.1.4,Win32,143.9677512,628b806c463b948bc644b84f,629afd59ca11e57e234c6f59,,,,,,,,,,,,,,,,,,,,,,,3,,,,,,,,,,Task,27,(3/3) + 2,3,,,,,,,,,,,,,,,,,,,1,,,,,,,,,,,,,,,,,,,,,,,"[""3""]",1,0,1,1,26,1,[2.2227999999523718],,,,,,,,,,,,,,,,,,
,,,,,,,,,,60ef4432df04da6821fec20a,24,Mężczyzna,2022-06-04_08h36.23.362,task,2021.1.4,Win32,143.9677512,628b806c463b948bc644b84f,629afd59ca11e57e234c6f59,,,,,,,,,,X V Q F H G B L J M P D K C T S W R N Z,,,,,,,,,,,,,,,,,,,,,,,,,,,,,,,,,,,,,,,,,,,,,,,,,,,,,,,,,,,,,,,,,,,,,,,,,,,,0,0,0,0,1,,,,,,,,,,,,,
,,,,,,,,,,60ef4432df04da6821fec20a,24,Mężczyzna,2022-06-04_08h36.23.362,task,2021.1.4,Win32,143.9677512,628b806c463b948bc644b84f,629afd59ca11e57e234c6f59,,,,,,,,,,,,,,,,,,,,,,,2,,,,,,,,,,Task,26,(2x9) - 16,2,,,,,,,,,,,,,,,,,,,1,,,,,,,,,,,,,,,,,,,,,,,"[""2""]",1,0,0,0,25,1,[3.3350000000000364],,,,,,,,,,,,,,,,,,
,,,,,,,,,,60ef4432df04da6821fec20a,24,Mężczyzna,2022-06-04_08h36.23.362,task,2021.1.4,Win32,143.9677512,628b806c463b948bc644b84f,629afd59ca11e57e234c6f59,,,,,,,,,,X V Q F H G B L J M P D K C T S W R N Z,,,,,,,,,,,,,,,,,,,,,,,,,,,,,,,,,,,,,,,,,,,,,,,,,,,,,,,,,,,,,,,,,,,,,,,,,,,,1,0,1,0,1,,,,,,,,,,,,,
,,,,,,,,,,60ef4432df04da6821fec20a,24,Mężczyzna,2022-06-04_08h36.23.362,task,2021.1.4,Win32,143.9677512,628b806c463b948bc644b84f,629afd59ca11e57e234c6f59,,,,,,,,,,,,,,,,,,,,,,,,,,,,,,,,,,,,,,,,,,,,,,,,,,,,,,,,,,,,,,,,,,,,,,,,,,,,,,,,,,,,,,,,,,,zc,"[""z"",""c""]",0,"[2.5207000000476683,2.8339999999999463,3.471899999976131]",1,ZC,0,0,0,0,1,,
,,,,,,,,,,60ef4432df04da6821fec20a,24,Mężczyzna,2022-06-04_08h36.23.362,task,2021.1.4,Win32,143.9677512,628b806c463b948bc644b84f,629afd59ca11e57e234c6f59,,,,,,,,,,,,,,,,,,,,,,,3,,,,,,,,,,Task,1,(12/6) - 1,1,,,,,,,,,,,,,,,,,,,0,,,,,,,,,,,,,,,,,,,,,,,"[""3""]",0,0,0,0,0,1,[3.1240000000000236],,,,,,,,,,,,,,,,,,
,,,,,,,,,,60ef4432df04da6821fec20a,24,Mężczyzna,2022-06-04_08h36.23.362,task,2021.1.4,Win32,143.9677512,628b806c463b948bc644b84f,629afd59ca11e57e234c6f59,,,,,,,,,,,,,,,,,,,,,,,8,,,,,,,,,,Task,29,(3x8) - 19 ,5,,,,,,,,,,,,,,,,,,,0,,,,,,,,,,,,,,,,,,,,,,,"[""8""]",0,0,1,1,28,1,[8.358799999952339],,,,,,,,,,,,,,,,,,
,,,,,,,,,,60ef4432df04da6821fec20a,24,Mężczyzna,2022-06-04_08h36.23.362,task,2021.1.4,Win32,143.9677512,628b806c463b948bc644b84f,629afd59ca11e57e234c6f59,,,,,,,,,,,,,,,,,,,,,,,9,,,,,,,,,,Task,7,(3x7) - 12,9,,,,,,,,,,,,,,,,,,,1,,,,,,,,,,,,,,,,,,,,,,,"[""9""]",1,0,2,2,6,1,[6.22170000004769],,,,,,,,,,,,,,,,,,
,,,,,,,,,,60ef4432df04da6821fec20a,24,Mężczyzna,2022-06-04_08h36.23.362,task,2021.1.4,Win32,143.9677512,628b806c463b948bc644b84f,629afd59ca11e57e234c6f59,,,,,,,,,,X V Q F H G B L J M P D K C T S W R N Z,,,,,,,,,,,,,,,,,,,,,,,,,,,,,,,,,,,,,,,,,,,,,,,,,,,,,,,,,,,,,,,,,,,,,,,,,,,,0,0,0,0,1,,,,,,,,,,,,,
,,,,,,,,,,60ef4432df04da6821fec20a,24,Mężczyzna,2022-06-04_08h36.23.362,task,2021.1.4,Win32,143.9677512,628b806c463b948bc644b84f,629afd59ca11e57e234c6f59,,,,,,,,,,,,,,,,,,,,,,,1,,,,,,,,,,Task,9,(3x7) - 20,1,,,,,,,,,,,,,,,,,,,1,,,,,,,,,,,,,,,,,,,,,,,"[""1""]",1,0,0,0,8,1,[2.3201000000237855],,,,,,,,,,,,,,,,,,
,,,,,,,,,,60ef4432df04da6821fec20a,24,Mężczyzna,2022-06-04_08h36.23.362,task,2021.1.4,Win32,143.9677512,628b806c463b948bc644b84f,629afd59ca11e57e234c6f59,,,,,,,,,,X V Q F H G B L J M P D K C T S W R N Z,,,,,,,,,,,,,,,,,,,,,,,,,,,,,,,,,,,,,,,,,,,,,,,,,,,,,,,,,,,,,,,,,,,,,,,,,,,,1,0,1,0,1,,,,,,,,,,,,,
,,,,,,,,,,60ef4432df04da6821fec20a,24,Mężczyzna,2022-06-04_08h36.23.362,task,2021.1.4,Win32,143.9677512,628b806c463b948bc644b84f,629afd59ca11e57e234c6f59,,,,,,,,,,,,,,,,,,,,,,,3,,,,,,,,,,Task,20,(18/9) + 1,3,,,,,,,,,,,,,,,,,,,1,,,,,,,,,,,,,,,,,,,,,,,"[""3""]",1,0,0,0,19,1,[2.82260000002384],,,,,,,,,,,,,,,,,,
,,,,,,,,,,60ef4432df04da6821fec20a,24,Mężczyzna,2022-06-04_08h36.23.362,task,2021.1.4,Win32,143.9677512,628b806c463b948bc644b84f,629afd59ca11e57e234c6f59,,,,,,,,,,X V Q F H G B L J M P D K C T S W R N Z,,,,,,,,,,,,,,,,,,,,,,,,,,,,,,,,,,,,,,,,,,,,,,,,,,,,,,,,,,,,,,,,,,,,,,,,,,,,2,0,2,0,1,,,,,,,,,,,,,
,,,,,,,,,,60ef4432df04da6821fec20a,24,Mężczyzna,2022-06-04_08h36.23.362,task,2021.1.4,Win32,143.9677512,628b806c463b948bc644b84f,629afd59ca11e57e234c6f59,,,,,,,,,,,,,,,,,,,,,,,,,,,,,,,,,,,,,,,,,,,,,,,,,,,,,,,,,,,,,,,,,,,,,,,,,,,,,,,,,,,,,,,,,,,fvm,"[""f"",""v"",""m""]",0,"[1.8484999999999445,2.122699999928386,2.4354999999999336,3.0114999999999554]",1,FVM,1,0,1,0,1,,
,,,,,,,,,,60ef4432df04da6821fec20a,24,Mężczyzna,2022-06-04_08h36.23.362,task,2021.1.4,Win32,143.9677512,628b806c463b948bc644b84f,629afd59ca11e57e234c6f59,,,,,,,,,,,,,,,,,,,,,,,3,,,,,,,,,,Task,20,(18/9) + 1,3,,,,,,,,,,,,,,,,,,,1,,,,,,,,,,,,,,,,,,,,,,,"[""3""]",1,0,0,0,19,1,[2.2857000000476546],,,,,,,,,,,,,,,,,,
,,,,,,,,,,60ef4432df04da6821fec20a,24,Mężczyzna,2022-06-04_08h36.23.362,task,2021.1.4,Win32,143.9677512,628b806c463b948bc644b84f,629afd59ca11e57e234c6f59,,,,,,,,,,X V Q F H G B L J M P D K C T S W R N Z,,,,,,,,,,,,,,,,,,,,,,,,,,,,,,,,,,,,,,,,,,,,,,,,,,,,,,,,,,,,,,,,,,,,,,,,,,,,0,0,0,0,1,,,,,,,,,,,,,
,,,,,,,,,,60ef4432df04da6821fec20a,24,Mężczyzna,2022-06-04_08h36.23.362,task,2021.1.4,Win32,143.9677512,628b806c463b948bc644b84f,629afd59ca11e57e234c6f59,,,,,,,,,,,,,,,,,,,,,,,3,,,,,,,,,,Task,35,(1x2) + 1,3,,,,,,,,,,,,,,,,,,,1,,,,,,,,,,,,,,,,,,,,,,,"[""3""]",1,0,0,0,34,1,[2.981700000047681],,,,,,,,,,,,,,,,,,
,,,,,,,,,,60ef4432df04da6821fec20a,24,Mężczyzna,2022-06-04_08h36.23.362,task,2021.1.4,Win32,143.9677512,628b806c463b948bc644b84f,629afd59ca11e57e234c6f59,,,,,,,,,,X V Q F H G B L J M P D K C T S W R N Z,,,,,,,,,,,,,,,,,,,,,,,,,,,,,,,,,,,,,,,,,,,,,,,,,,,,,,,,,,,,,,,,,,,,,,,,,,,,1,0,1,0,1,,,,,,,,,,,,,
,,,,,,,,,,60ef4432df04da6821fec20a,24,Mężczyzna,2022-06-04_08h36.23.362,task,2021.1.4,Win32,143.9677512,628b806c463b948bc644b84f,629afd59ca11e57e234c6f59,,,,,,,,,,,,,,,,,,,,,,,6,,,,,,,,,,Task,30,(6/3) + 4 ,6,,,,,,,,,,,,,,,,,,,1,,,,,,,,,,,,,,,,,,,,,,,"[""6""]",1,0,0,0,29,1,[4.076100000023757],,,,,,,,,,,,,,,,,,
,,,,,,,,,,60ef4432df04da6821fec20a,24,Mężczyzna,2022-06-04_08h36.23.362,task,2021.1.4,Win32,143.9677512,628b806c463b948bc644b84f,629afd59ca11e57e234c6f59,,,,,,,,,,X V Q F H G B L J M P D K C T S W R N Z,,,,,,,,,,,,,,,,,,,,,,,,,,,,,,,,,,,,,,,,,,,,,,,,,,,,,,,,,,,,,,,,,,,,,,,,,,,,2,0,2,0,1,,,,,,,,,,,,,
,,,,,,,,,,60ef4432df04da6821fec20a,24,Mężczyzna,2022-06-04_08h36.23.362,task,2021.1.4,Win32,143.9677512,628b806c463b948bc644b84f,629afd59ca11e57e234c6f59,,,,,,,,,,,,,,,,,,,,,,,2,,,,,,,,,,Task,10,(2x5) - 8,2,,,,,,,,,,,,,,,,,,,1,,,,,,,,,,,,,,,,,,,,,,,"[""2""]",1,0,0,0,9,1,[2.298600000023839],,,,,,,,,,,,,,,,,,
,,,,,,,,,,60ef4432df04da6821fec20a,24,Mężczyzna,2022-06-04_08h36.23.362,task,2021.1.4,Win32,143.9677512,628b806c463b948bc644b84f,629afd59ca11e57e234c6f59,,,,,,,,,,X V Q F H G B L J M P D K C T S W R N Z,,,,,,,,,,,,,,,,,,,,,,,,,,,,,,,,,,,,,,,,,,,,,,,,,,,,,,,,,,,,,,,,,,,,,,,,,,,,3,0,3,0,1,,,,,,,,,,,,,
,,,,,,,,,,60ef4432df04da6821fec20a,24,Mężczyzna,2022-06-04_08h36.23.362,task,2021.1.4,Win32,143.9677512,628b806c463b948bc644b84f,629afd59ca11e57e234c6f59,,,,,,,,,,,,,,,,,,,,,,,,,,,,,,,,,,,,,,,,,,,,,,,,,,,,,,,,,,,,,,,,,,,,,,,,,,,,,,,,,,,,,,,,,,,rgld,"[""r"",""g"",""l"",""d""]",0,"[2.0335000000000036,2.2905000000000655,2.6897000000477647,3.305500000000052,3.8696000000238655]",1,RGLD,2,0,2,0,1,,
,,,,,,,,,,60ef4432df04da6821fec20a,24,Mężczyzna,2022-06-04_08h36.23.362,task,2021.1.4,Win32,143.9677512,628b806c463b948bc644b84f,629afd59ca11e57e234c6f59,,,,,,,,,,,,,,,,,,,,,,,7,,,,,,,,,,Task,15,(3x7) - 13,8,,,,,,,,,,,,,,,,,,,0,,,,,,,,,,,,,,,,,,,,,,,"[""7""]",0,0,0,0,14,1,[8.224899999976174],,,,,,,,,,,,,,,,,,
,,,,,,,,,,60ef4432df04da6821fec20a,24,Mężczyzna,2022-06-04_08h36.23.362,task,2021.1.4,Win32,143.9677512,628b806c463b948bc644b84f,629afd59ca11e57e234c6f59,,,,,,,,,,,,,,,,,,,,,,,3,,,,,,,,,,Task,20,(18/9) + 1,3,,,,,,,,,,,,,,,,,,,1,,,,,,,,,,,,,,,,,,,,,,,"[""3""]",1,0,1,1,19,1,[2.769999999999982],,,,,,,,,,,,,,,,,,
,,,,,,,,,,60ef4432df04da6821fec20a,24,Mężczyzna,2022-06-04_08h36.23.362,task,2021.1.4,Win32,143.9677512,628b806c463b948bc644b84f,629afd59ca11e57e234c6f59,,,,,,,,,,X V Q F H G B L J M P D K C T S W R N Z,,,,,,,,,,,,,,,,,,,,,,,,,,,,,,,,,,,,,,,,,,,,,,,,,,,,,,,,,,,,,,,,,,,,,,,,,,,,0,0,0,0,1,,,,,,,,,,,,,
,,,,,,,,,,60ef4432df04da6821fec20a,24,Mężczyzna,2022-06-04_08h36.23.362,task,2021.1.4,Win32,143.9677512,628b806c463b948bc644b84f,629afd59ca11e57e234c6f59,,,,,,,,,,,,,,,,,,,,,,,6,,,,,,,,,,Task,37,(3/3) + 5,6,,,,,,,,,,,,,,,,,,,1,,,,,,,,,,,,,,,,,,,,,,,"[""6""]",1,0,0,0,36,1,[3.426600000023882],,,,,,,,,,,,,,,,,,
,,,,,,,,,,60ef4432df04da6821fec20a,24,Mężczyzna,2022-06-04_08h36.23.362,task,2021.1.4,Win32,143.9677512,628b806c463b948bc644b84f,629afd59ca11e57e234c6f59,,,,,,,,,,X V Q F H G B L J M P D K C T S W R N Z,,,,,,,,,,,,,,,,,,,,,,,,,,,,,,,,,,,,,,,,,,,,,,,,,,,,,,,,,,,,,,,,,,,,,,,,,,,,1,0,1,0,1,,,,,,,,,,,,,
,,,,,,,,,,60ef4432df04da6821fec20a,24,Mężczyzna,2022-06-04_08h36.23.362,task,2021.1.4,Win32,143.9677512,628b806c463b948bc644b84f,629afd59ca11e57e234c6f59,,,,,,,,,,,,,,,,,,,,,,,9,,,,,,,,,,Task,7,(3x7) - 12,9,,,,,,,,,,,,,,,,,,,1,,,,,,,,,,,,,,,,,,,,,,,"[""9""]",1,0,0,0,6,1,[2.5371999999284753],,,,,,,,,,,,,,,,,,
,,,,,,,,,,60ef4432df04da6821fec20a,24,Mężczyzna,2022-06-04_08h36.23.362,task,2021.1.4,Win32,143.9677512,628b806c463b948bc644b84f,629afd59ca11e57e234c6f59,,,,,,,,,,X V Q F H G B L J M P D K C T S W R N Z,,,,,,,,,,,,,,,,,,,,,,,,,,,,,,,,,,,,,,,,,,,,,,,,,,,,,,,,,,,,,,,,,,,,,,,,,,,,2,0,2,0,1,,,,,,,,,,,,,
,,,,,,,,,,60ef4432df04da6821fec20a,24,Mężczyzna,2022-06-04_08h36.23.362,task,2021.1.4,Win32,143.9677512,628b806c463b948bc644b84f,629afd59ca11e57e234c6f59,,,,,,,,,,,,,,,,,,,,,,,1,,,,,,,,,,Task,1,(12/6) - 1,1,,,,,,,,,,,,,,,,,,,1,,,,,,,,,,,,,,,,,,,,,,,"[""1""]",1,0,0,0,0,1,[4.6340000000000146],,,,,,,,,,,,,,,,,,
,,,,,,,,,,60ef4432df04da6821fec20a,24,Mężczyzna,2022-06-04_08h36.23.362,task,2021.1.4,Win32,143.9677512,628b806c463b948bc644b84f,629afd59ca11e57e234c6f59,,,,,,,,,,X V Q F H G B L J M P D K C T S W R N Z,,,,,,,,,,,,,,,,,,,,,,,,,,,,,,,,,,,,,,,,,,,,,,,,,,,,,,,,,,,,,,,,,,,,,,,,,,,,3,0,3,0,1,,,,,,,,,,,,,
,,,,,,,,,,60ef4432df04da6821fec20a,24,Mężczyzna,2022-06-04_08h36.23.362,task,2021.1.4,Win32,143.9677512,628b806c463b948bc644b84f,629afd59ca11e57e234c6f59,,,,,,,,,,,,,,,,,,,,,,,8,,,,,,,,,,Task,39,(5x3) - 7,8,,,,,,,,,,,,,,,,,,,1,,,,,,,,,,,,,,,,,,,,,,,"[""8""]",1,0,0,0,38,1,[4.650299999952267],,,,,,,,,,,,,,,,,,
,,,,,,,,,,60ef4432df04da6821fec20a,24,Mężczyzna,2022-06-04_08h36.23.362,task,2021.1.4,Win32,143.9677512,628b806c463b948bc644b84f,629afd59ca11e57e234c6f59,,,,,,,,,,X V Q F H G B L J M P D K C T S W R N Z,,,,,,,,,,,,,,,,,,,,,,,,,,,,,,,,,,,,,,,,,,,,,,,,,,,,,,,,,,,,,,,,,,,,,,,,,,,,4,0,4,0,1,,,,,,,,,,,,,
,,,,,,,,,,60ef4432df04da6821fec20a,24,Mężczyzna,2022-06-04_08h36.23.362,task,2021.1.4,Win32,143.9677512,628b806c463b948bc644b84f,629afd59ca11e57e234c6f59,,,,,,,,,,,,,,,,,,,,,,,,,,,,,,,,,,,,,,,,,,,,,,,,,,,,,,,,,,,,,,,,,,,,,,,,,,,,,,,,,,,,,,,,,,,kjmfx,"[""k"",""j"",""m"",""f"",""x""]",0,"[2.727999999999952,4.347200000047678,4.6547999999522744,6.768799999952307,7.111100000023839,7.944799999952238]",1,KJMFX,3,0,3,0,1,,
,,,,,,,,,,60ef4432df04da6821fec20a,24,Mężczyzna,2022-06-04_08h36.23.362,task,2021.1.4,Win32,143.9677512,628b806c463b948bc644b84f,629afd59ca11e57e234c6f59,,,,,,,,,,,,,,,,,,,,,,,6,,,,,,,,,,Task,30,(6/3) + 4 ,6,,,,,,,,,,,,,,,,,,,1,,,,,,,,,,,,,,,,,,,,,,,"[""6""]",1,0,0,0,29,1,[3.795500000000061],,,,,,,,,,,,,,,,,,
,,,,,,,,,,60ef4432df04da6821fec20a,24,Mężczyzna,2022-06-04_08h36.23.362,task,2021.1.4,Win32,143.9677512,628b806c463b948bc644b84f,629afd59ca11e57e234c6f59,,,,,,,,,,X V Q F H G B L J M P D K C T S W R N Z,,,,,,,,,,,,,,,,,,,,,,,,,,,,,,,,,,,,,,,,,,,,,,,,,,,,,,,,,,,,,,,,,,,,,,,,,,,,0,0,0,0,1,,,,,,,,,,,,,
,,,,,,,,,,60ef4432df04da6821fec20a,24,Mężczyzna,2022-06-04_08h36.23.362,task,2021.1.4,Win32,143.9677512,628b806c463b948bc644b84f,629afd59ca11e57e234c6f59,,,,,,,,,,,,,,,,,,,,,,,8,,,,,,,,,,Task,23,(2x3) + 2,8,,,,,,,,,,,,,,,,,,,1,,,,,,,,,,,,,,,,,,,,,,,"[""8""]",1,0,0,0,22,1,[3.7916999999284826],,,,,,,,,,,,,,,,,,
,,,,,,,,,,60ef4432df04da6821fec20a,24,Mężczyzna,2022-06-04_08h36.23.362,task,2021.1.4,Win32,143.9677512,628b806c463b948bc644b84f,629afd59ca11e57e234c6f59,,,,,,,,,,X V Q F H G B L J M P D K C T S W R N Z,,,,,,,,,,,,,,,,,,,,,,,,,,,,,,,,,,,,,,,,,,,,,,,,,,,,,,,,,,,,,,,,,,,,,,,,,,,,1,0,1,0,1,,,,,,,,,,,,,
,,,,,,,,,,60ef4432df04da6821fec20a,24,Mężczyzna,2022-06-04_08h36.23.362,task,2021.1.4,Win32,143.9677512,628b806c463b948bc644b84f,629afd59ca11e57e234c6f59,,,,,,,,,,,,,,,,,,,,,,,7,,,,,,,,,,Task,31,(4/2) + 5,7,,,,,,,,,,,,,,,,,,,1,,,,,,,,,,,,,,,,,,,,,,,"[""7""]",1,0,0,0,30,1,[3.1849999999999454],,,,,,,,,,,,,,,,,,
,,,,,,,,,,60ef4432df04da6821fec20a,24,Mężczyzna,2022-06-04_08h36.23.362,task,2021.1.4,Win32,143.9677512,628b806c463b948bc644b84f,629afd59ca11e57e234c6f59,,,,,,,,,,X V Q F H G B L J M P D K C T S W R N Z,,,,,,,,,,,,,,,,,,,,,,,,,,,,,,,,,,,,,,,,,,,,,,,,,,,,,,,,,,,,,,,,,,,,,,,,,,,,2,0,2,0,1,,,,,,,,,,,,,
,,,,,,,,,,60ef4432df04da6821fec20a,24,Mężczyzna,2022-06-04_08h36.23.362,task,2021.1.4,Win32,143.9677512,628b806c463b948bc644b84f,629afd59ca11e57e234c6f59,,,,,,,,,,,,,,,,,,,,,,,8,,,,,,,,,,Task,23,(2x3) + 2,8,,,,,,,,,,,,,,,,,,,1,,,,,,,,,,,,,,,,,,,,,,,"[""8""]",1,0,0,0,22,1,[4.322399999976142],,,,,,,,,,,,,,,,,,
,,,,,,,,,,60ef4432df04da6821fec20a,24,Mężczyzna,2022-06-04_08h36.23.362,task,2021.1.4,Win32,143.9677512,628b806c463b948bc644b84f,629afd59ca11e57e234c6f59,,,,,,,,,,X V Q F H G B L J M P D K C T S W R N Z,,,,,,,,,,,,,,,,,,,,,,,,,,,,,,,,,,,,,,,,,,,,,,,,,,,,,,,,,,,,,,,,,,,,,,,,,,,,3,0,3,0,1,,,,,,,,,,,,,
,,,,,,,,,,60ef4432df04da6821fec20a,24,Mężczyzna,2022-06-04_08h36.23.362,task,2021.1.4,Win32,143.9677512,628b806c463b948bc644b84f,629afd59ca11e57e234c6f59,,,,,,,,,,,,,,,,,,,,,,,0,,,,,,,,,,Task,33,(1/1) - 1,0,,,,,,,,,,,,,,,,,,,1,,,,,,,,,,,,,,,,,,,,,,,"[""0""]",1,0,0,0,32,1,[4.177600000023858],,,,,,,,,,,,,,,,,,
,,,,,,,,,,60ef4432df04da6821fec20a,24,Mężczyzna,2022-06-04_08h36.23.362,task,2021.1.4,Win32,143.9677512,628b806c463b948bc644b84f,629afd59ca11e57e234c6f59,,,,,,,,,,X V Q F H G B L J M P D K C T S W R N Z,,,,,,,,,,,,,,,,,,,,,,,,,,,,,,,,,,,,,,,,,,,,,,,,,,,,,,,,,,,,,,,,,,,,,,,,,,,,4,0,4,0,1,,,,,,,,,,,,,
,,,,,,,,,,60ef4432df04da6821fec20a,24,Mężczyzna,2022-06-04_08h36.23.362,task,2021.1.4,Win32,143.9677512,628b806c463b948bc644b84f,629afd59ca11e57e234c6f59,,,,,,,,,,,,,,,,,,,,,,,2,,,,,,,,,,Task,10,(2x5) - 8,2,,,,,,,,,,,,,,,,,,,1,,,,,,,,,,,,,,,,,,,,,,,"[""2""]",1,0,0,0,9,1,[2.367999999999938],,,,,,,,,,,,,,,,,,
,,,,,,,,,,60ef4432df04da6821fec20a,24,Mężczyzna,2022-06-04_08h36.23.362,task,2021.1.4,Win32,143.9677512,628b806c463b948bc644b84f,629afd59ca11e57e234c6f59,,,,,,,,,,X V Q F H G B L J M P D K C T S W R N Z,,,,,,,,,,,,,,,,,,,,,,,,,,,,,,,,,,,,,,,,,,,,,,,,,,,,,,,,,,,,,,,,,,,,,,,,,,,,5,0,5,0,1,,,,,,,,,,,,,
,,,,,,,,,,60ef4432df04da6821fec20a,24,Mężczyzna,2022-06-04_08h36.23.362,task,2021.1.4,Win32,143.9677512,628b806c463b948bc644b84f,629afd59ca11e57e234c6f59,,,,,,,,,,,,,,,,,,,,,,,,,,,,,,,,,,,,,,,,,,,,,,,,,,,,,,,,,,,,,,,,,,,,,,,,,,,,,,,,,,,,,,,,,,,czxnss,"[""c"",""z"",""x"",""n"",""s"",""s""]",0,"[4.319399999975985,4.518100000023651,6.354100000023664,6.7409999999999854,7.13510000002384,7.407999999999902,8.349399999975958]",0,CZXNSQ,4,0,4,0,1,,
,,,,,,,,,,60ef4432df04da6821fec20a,24,Mężczyzna,2022-06-04_08h36.23.362,task,2021.1.4,Win32,143.9677512,628b806c463b948bc644b84f,629afd59ca11e57e234c6f59,,,,,,,,,,,,,,,,,,,,,,,2,,,,,,,,,,Task,26,(2x9) - 16,2,,,,,,,,,,,,,,,,,,,1,,,,,,,,,,,,,,,,,,,,,,,"[""2""]",1,0,0,0,25,1,[3.599100000024009],,,,,,,,,,,,,,,,,,
,,,,,,,,,,60ef4432df04da6821fec20a,24,Mężczyzna,2022-06-04_08h36.23.362,task,2021.1.4,Win32,143.9677512,628b806c463b948bc644b84f,629afd59ca11e57e234c6f59,,,,,,,,,,X V Q F H G B L J M P D K C T S W R N Z,,,,,,,,,,,,,,,,,,,,,,,,,,,,,,,,,,,,,,,,,,,,,,,,,,,,,,,,,,,,,,,,,,,,,,,,,,,,0,0,0,0,1,,,,,,,,,,,,,
,,,,,,,,,,60ef4432df04da6821fec20a,24,Mężczyzna,2022-06-04_08h36.23.362,task,2021.1.4,Win32,143.9677512,628b806c463b948bc644b84f,629afd59ca11e57e234c6f59,,,,,,,,,,,,,,,,,,,,,,,0,,,,,,,,,,Task,25,(10/5) - 2,0,,,,,,,,,,,,,,,,,,,1,,,,,,,,,,,,,,,,,,,,,,,"[""0""]",1,0,0,0,24,1,[3.33630000007156],,,,,,,,,,,,,,,,,,
,,,,,,,,,,60ef4432df04da6821fec20a,24,Mężczyzna,2022-06-04_08h36.23.362,task,2021.1.4,Win32,143.9677512,628b806c463b948bc644b84f,629afd59ca11e57e234c6f59,,,,,,,,,,X V Q F H G B L J M P D K C T S W R N Z,,,,,,,,,,,,,,,,,,,,,,,,,,,,,,,,,,,,,,,,,,,,,,,,,,,,,,,,,,,,,,,,,,,,,,,,,,,,1,0,1,0,1,,,,,,,,,,,,,
,,,,,,,,,,60ef4432df04da6821fec20a,24,Mężczyzna,2022-06-04_08h36.23.362,task,2021.1.4,Win32,143.9677512,628b806c463b948bc644b84f,629afd59ca11e57e234c6f59,,,,,,,,,,,,,,,,,,,,,,,6,,,,,,,,,,Task,13,(3x4) - 6,6,,,,,,,,,,,,,,,,,,,1,,,,,,,,,,,,,,,,,,,,,,,"[""6""]",1,0,0,0,12,1,[6.211999999999989],,,,,,,,,,,,,,,,,,
,,,,,,,,,,60ef4432df04da6821fec20a,24,Mężczyzna,2022-06-04_08h36.23.362,task,2021.1.4,Win32,143.9677512,628b806c463b948bc644b84f,629afd59ca11e57e234c6f59,,,,,,,,,,X V Q F H G B L J M P D K C T S W R N Z,,,,,,,,,,,,,,,,,,,,,,,,,,,,,,,,,,,,,,,,,,,,,,,,,,,,,,,,,,,,,,,,,,,,,,,,,,,,2,0,2,0,1,,,,,,,,,,,,,
,,,,,,,,,,60ef4432df04da6821fec20a,24,Mężczyzna,2022-06-04_08h36.23.362,task,2021.1.4,Win32,143.9677512,628b806c463b948bc644b84f,629afd59ca11e57e234c6f59,,,,,,,,,,,,,,,,,,,,,,,2,,,,,,,,,,Task,10,(2x5) - 8,2,,,,,,,,,,,,,,,,,,,1,,,,,,,,,,,,,,,,,,,,,,,"[""2""]",1,0,0,0,9,1,[2.4829999999999472],,,,,,,,,,,,,,,,,,
,,,,,,,,,,60ef4432df04da6821fec20a,24,Mężczyzna,2022-06-04_08h36.23.362,task,2021.1.4,Win32,143.9677512,628b806c463b948bc644b84f,629afd59ca11e57e234c6f59,,,,,,,,,,X V Q F H G B L J M P D K C T S W R N Z,,,,,,,,,,,,,,,,,,,,,,,,,,,,,,,,,,,,,,,,,,,,,,,,,,,,,,,,,,,,,,,,,,,,,,,,,,,,3,0,3,0,1,,,,,,,,,,,,,
,,,,,,,,,,60ef4432df04da6821fec20a,24,Mężczyzna,2022-06-04_08h36.23.362,task,2021.1.4,Win32,143.9677512,628b806c463b948bc644b84f,629afd59ca11e57e234c6f59,,,,,,,,,,,,,,,,,,,,,,,8,,,,,,,,,,Task,15,(3x7) - 13,8,,,,,,,,,,,,,,,,,,,1,,,,,,,,,,,,,,,,,,,,,,,"[""8""]",1,0,0,0,14,1,[7.193600000023707],,,,,,,,,,,,,,,,,,
,,,,,,,,,,60ef4432df04da6821fec20a,24,Mężczyzna,2022-06-04_08h36.23.362,task,2021.1.4,Win32,143.9677512,628b806c463b948bc644b84f,629afd59ca11e57e234c6f59,,,,,,,,,,X V Q F H G B L J M P D K C T S W R N Z,,,,,,,,,,,,,,,,,,,,,,,,,,,,,,,,,,,,,,,,,,,,,,,,,,,,,,,,,,,,,,,,,,,,,,,,,,,,4,0,4,0,1,,,,,,,,,,,,,
,,,,,,,,,,60ef4432df04da6821fec20a,24,Mężczyzna,2022-06-04_08h36.23.362,task,2021.1.4,Win32,143.9677512,628b806c463b948bc644b84f,629afd59ca11e57e234c6f59,,,,,,,,,,,,,,,,,,,,,,,8,,,,,,,,,,Task,23,(2x3) + 2,8,,,,,,,,,,,,,,,,,,,1,,,,,,,,,,,,,,,,,,,,,,,"[""8""]",1,0,0,0,22,1,[3.8702000000478165],,,,,,,,,,,,,,,,,,
,,,,,,,,,,60ef4432df04da6821fec20a,24,Mężczyzna,2022-06-04_08h36.23.362,task,2021.1.4,Win32,143.9677512,628b806c463b948bc644b84f,629afd59ca11e57e234c6f59,,,,,,,,,,X V Q F H G B L J M P D K C T S W R N Z,,,,,,,,,,,,,,,,,,,,,,,,,,,,,,,,,,,,,,,,,,,,,,,,,,,,,,,,,,,,,,,,,,,,,,,,,,,,5,0,5,0,1,,,,,,,,,,,,,
,,,,,,,,,,60ef4432df04da6821fec20a,24,Mężczyzna,2022-06-04_08h36.23.362,task,2021.1.4,Win32,143.9677512,628b806c463b948bc644b84f,629afd59ca11e57e234c6f59,,,,,,,,,,,,,,,,,,,,,,,,,,,,,,,,,,,,,,,,,,,,,,,,,,,,,,,,,,,,,,,,,,,,,,,,,,,,,,,,,,,,,,,,,,,fpgrmdm,"[""f"",""p"",""g"",""r"",""m"",""d"",""m""]",0,"[2.947300000071664,4.646100000023807,5.889100000023973,6.350200000047835,11.754100000023982,12.370100000023967,14.467200000047796,15.892000000000053]",0,FPGRDM,5,0,5,0,1,,
,,,,,,,,,,60ef4432df04da6821fec20a,24,Mężczyzna,2022-06-04_08h36.23.362,task,2021.1.4,Win32,143.9677512,628b806c463b948bc644b84f,629afd59ca11e57e234c6f59,,,,,,,,,,,,,,,,,,,,,,,,,,,,,,,,,,,,,,,,,,,,,,,,,,,,,,,,,,,,,,,,,,,,,,,,,,,,,,,,,,,,,,,,,,,,,,,,,,,,,,space,1.9242
