key_resp_15.keys,key_resp_15.rt,key_resp_13.keys,key_resp_13.corr,key_resp_13.rt,ranodm_loop.thisRepN,ranodm_loop.thisTrialN,ranodm_loop.thisN,ranodm_loop.thisIndex,ranodm_loop.ran,participant,Wiek*,Płeć,date,expName,psychopyVersion,OS,frameRate,study_id,session,key_resp_16.keys,key_resp_16.rt,key_resp_4.keys,key_resp_4.rt,next_letter.thisRepN,next_letter.thisTrialN,next_letter.thisN,next_letter.thisIndex,next_letter.ran,letter,simple_recall,key_resp_5.keys,key_resp_5.rt,simple_recall_corr,simple_recall_corrkeys,next_level.thisRepN,next_level.thisTrialN,next_level.thisN,next_level.thisIndex,next_level.ran,key_resp_2.keys,key_resp_2.rt,digit_answer,key_resp.keys,key_resp.corr,key_resp.rt,RT_list,next_equation.thisRepN,next_equation.thisTrialN,next_equation.thisN,next_equation.thisIndex,next_equation.ran,Task,Trial,Problem,Operation_answer,processing_score,sumRT,meanRT,sumdiff,sd,RT,key_resp_3.keys,key_resp_3.rt,repeat_practice.thisRepN,repeat_practice.thisTrialN,repeat_practice.thisN,repeat_practice.thisIndex,repeat_practice.ran,key_resp_6.keys,key_resp_6.rt,key_resp_11.keys,key_resp_11.corr,operation_correct,repeat_if_wrong_prac.thisRepN,repeat_if_wrong_prac.thisTrialN,repeat_if_wrong_prac.thisN,repeat_if_wrong_prac.thisIndex,repeat_if_wrong_prac.ran,key_resp_11.rt,span_size_prac.thisRepN,span_size_prac.thisTrialN,span_size_prac.thisN,span_size_prac.thisIndex,span_size_prac.ran,complex_recall_practice,key_resp_9.keys,key_resp_9.corr,key_resp_9.rt,complex_prac_corr,span_recall_prac.thisRepN,span_recall_prac.thisTrialN,span_recall_prac.thisN,span_recall_prac.thisIndex,span_recall_prac.ran,key_resp_10.keys,key_resp_10.rt,key_resp_7.keys,key_resp_7.corr,key_resp_7.rt,repeat_if_wrong.thisRepN,repeat_if_wrong.thisTrialN,repeat_if_wrong.thisN,repeat_if_wrong.thisIndex,repeat_if_wrong.ran,span_size.thisRepN,span_size.thisTrialN,span_size.thisN,span_size.thisIndex,span_size.ran,complex_recall,key_resp_8.keys,key_resp_8.corr,key_resp_8.rt,complex_recall_corr,complex_recall_corrkeys,span_recall.thisRepN,span_recall.thisTrialN,span_recall.thisN,span_recall.thisIndex,span_recall.ran,key_resp_12.keys,key_resp_12.rt
space,17.2473,"[""comma""]",0,[0.9421000000238422],0,0,0,0,1,610063b7b50c4e9488e77eca,22,Kobieta,2022-05-28_09h27.42.828,task,2021.1.4,MacIntel,60.0024001,628b806c463b948bc644b84f,6291ceddeb734f021991874a,,,,,,,,,,,,,,,,,,,,,,,,,,,,,,,,,,,,,,,,,,,,,,,,,,,,,,,,,,,,,,,,,,,,,,,,,,,,,,,,,,,,,,,,,,,,,,,,,,,,,,,
,,"[""comma""]",0,[0.4339999999999975],1,0,1,0,1,610063b7b50c4e9488e77eca,22,Kobieta,2022-05-28_09h27.42.828,task,2021.1.4,MacIntel,60.0024001,628b806c463b948bc644b84f,6291ceddeb734f021991874a,,,,,,,,,,,,,,,,,,,,,,,,,,,,,,,,,,,,,,,,,,,,,,,,,,,,,,,,,,,,,,,,,,,,,,,,,,,,,,,,,,,,,,,,,,,,,,,,,,,,,,,
,,"[""comma""]",0,[0.2505000000000024],2,0,2,0,1,610063b7b50c4e9488e77eca,22,Kobieta,2022-05-28_09h27.42.828,task,2021.1.4,MacIntel,60.0024001,628b806c463b948bc644b84f,6291ceddeb734f021991874a,,,,,,,,,,,,,,,,,,,,,,,,,,,,,,,,,,,,,,,,,,,,,,,,,,,,,,,,,,,,,,,,,,,,,,,,,,,,,,,,,,,,,,,,,,,,,,,,,,,,,,,
,,"[""comma""]",0,[0.23330000007152307],3,0,3,0,1,610063b7b50c4e9488e77eca,22,Kobieta,2022-05-28_09h27.42.828,task,2021.1.4,MacIntel,60.0024001,628b806c463b948bc644b84f,6291ceddeb734f021991874a,,,,,,,,,,,,,,,,,,,,,,,,,,,,,,,,,,,,,,,,,,,,,,,,,,,,,,,,,,,,,,,,,,,,,,,,,,,,,,,,,,,,,,,,,,,,,,,,,,,,,,,
,,"[""period""]",0,[0.2668000000715267],4,0,4,0,1,610063b7b50c4e9488e77eca,22,Kobieta,2022-05-28_09h27.42.828,task,2021.1.4,MacIntel,60.0024001,628b806c463b948bc644b84f,6291ceddeb734f021991874a,,,,,,,,,,,,,,,,,,,,,,,,,,,,,,,,,,,,,,,,,,,,,,,,,,,,,,,,,,,,,,,,,,,,,,,,,,,,,,,,,,,,,,,,,,,,,,,,,,,,,,,
,,"[""comma""]",0,[0.21620000004767803],5,0,5,0,1,610063b7b50c4e9488e77eca,22,Kobieta,2022-05-28_09h27.42.828,task,2021.1.4,MacIntel,60.0024001,628b806c463b948bc644b84f,6291ceddeb734f021991874a,,,,,,,,,,,,,,,,,,,,,,,,,,,,,,,,,,,,,,,,,,,,,,,,,,,,,,,,,,,,,,,,,,,,,,,,,,,,,,,,,,,,,,,,,,,,,,,,,,,,,,,
,,"[""comma""]",0,[0.03420000004769008],6,0,6,0,1,610063b7b50c4e9488e77eca,22,Kobieta,2022-05-28_09h27.42.828,task,2021.1.4,MacIntel,60.0024001,628b806c463b948bc644b84f,6291ceddeb734f021991874a,,,,,,,,,,,,,,,,,,,,,,,,,,,,,,,,,,,,,,,,,,,,,,,,,,,,,,,,,,,,,,,,,,,,,,,,,,,,,,,,,,,,,,,,,,,,,,,,,,,,,,,
,,"[""comma""]",0,[0.28829999995231503],7,0,7,0,1,610063b7b50c4e9488e77eca,22,Kobieta,2022-05-28_09h27.42.828,task,2021.1.4,MacIntel,60.0024001,628b806c463b948bc644b84f,6291ceddeb734f021991874a,,,,,,,,,,,,,,,,,,,,,,,,,,,,,,,,,,,,,,,,,,,,,,,,,,,,,,,,,,,,,,,,,,,,,,,,,,,,,,,,,,,,,,,,,,,,,,,,,,,,,,,
,,"[""period""]",0,[0.2681000000238356],8,0,8,0,1,610063b7b50c4e9488e77eca,22,Kobieta,2022-05-28_09h27.42.828,task,2021.1.4,MacIntel,60.0024001,628b806c463b948bc644b84f,6291ceddeb734f021991874a,,,,,,,,,,,,,,,,,,,,,,,,,,,,,,,,,,,,,,,,,,,,,,,,,,,,,,,,,,,,,,,,,,,,,,,,,,,,,,,,,,,,,,,,,,,,,,,,,,,,,,,
,,"[""period""]",0,[0.26610000002384027],9,0,9,0,1,610063b7b50c4e9488e77eca,22,Kobieta,2022-05-28_09h27.42.828,task,2021.1.4,MacIntel,60.0024001,628b806c463b948bc644b84f,6291ceddeb734f021991874a,,,,,,,,,,,,,,,,,,,,,,,,,,,,,,,,,,,,,,,,,,,,,,,,,,,,,,,,,,,,,,,,,,,,,,,,,,,,,,,,,,,,,,,,,,,,,,,,,,,,,,,
,,"[""period""]",0,[0.26710000002383083],10,0,10,0,1,610063b7b50c4e9488e77eca,22,Kobieta,2022-05-28_09h27.42.828,task,2021.1.4,MacIntel,60.0024001,628b806c463b948bc644b84f,6291ceddeb734f021991874a,,,,,,,,,,,,,,,,,,,,,,,,,,,,,,,,,,,,,,,,,,,,,,,,,,,,,,,,,,,,,,,,,,,,,,,,,,,,,,,,,,,,,,,,,,,,,,,,,,,,,,,
,,"[""period""]",0,[0.2833999999761545],11,0,11,0,1,610063b7b50c4e9488e77eca,22,Kobieta,2022-05-28_09h27.42.828,task,2021.1.4,MacIntel,60.0024001,628b806c463b948bc644b84f,6291ceddeb734f021991874a,,,,,,,,,,,,,,,,,,,,,,,,,,,,,,,,,,,,,,,,,,,,,,,,,,,,,,,,,,,,,,,,,,,,,,,,,,,,,,,,,,,,,,,,,,,,,,,,,,,,,,,
,,"[""period""]",0,[0.2673000000715291],12,0,12,0,1,610063b7b50c4e9488e77eca,22,Kobieta,2022-05-28_09h27.42.828,task,2021.1.4,MacIntel,60.0024001,628b806c463b948bc644b84f,6291ceddeb734f021991874a,,,,,,,,,,,,,,,,,,,,,,,,,,,,,,,,,,,,,,,,,,,,,,,,,,,,,,,,,,,,,,,,,,,,,,,,,,,,,,,,,,,,,,,,,,,,,,,,,,,,,,,
,,"[""period""]",0,[0.23349999999999227],13,0,13,0,1,610063b7b50c4e9488e77eca,22,Kobieta,2022-05-28_09h27.42.828,task,2021.1.4,MacIntel,60.0024001,628b806c463b948bc644b84f,6291ceddeb734f021991874a,,,,,,,,,,,,,,,,,,,,,,,,,,,,,,,,,,,,,,,,,,,,,,,,,,,,,,,,,,,,,,,,,,,,,,,,,,,,,,,,,,,,,,,,,,,,,,,,,,,,,,,
,,"[""period""]",0,[0.26679999995231185],14,0,14,0,1,610063b7b50c4e9488e77eca,22,Kobieta,2022-05-28_09h27.42.828,task,2021.1.4,MacIntel,60.0024001,628b806c463b948bc644b84f,6291ceddeb734f021991874a,,,,,,,,,,,,,,,,,,,,,,,,,,,,,,,,,,,,,,,,,,,,,,,,,,,,,,,,,,,,,,,,,,,,,,,,,,,,,,,,,,,,,,,,,,,,,,,,,,,,,,,
,,"[""comma""]",0,[0.2839999999999918],15,0,15,0,1,610063b7b50c4e9488e77eca,22,Kobieta,2022-05-28_09h27.42.828,task,2021.1.4,MacIntel,60.0024001,628b806c463b948bc644b84f,6291ceddeb734f021991874a,,,,,,,,,,,,,,,,,,,,,,,,,,,,,,,,,,,,,,,,,,,,,,,,,,,,,,,,,,,,,,,,,,,,,,,,,,,,,,,,,,,,,,,,,,,,,,,,,,,,,,,
,,"[""comma""]",0,[0.2502999999523041],16,0,16,0,1,610063b7b50c4e9488e77eca,22,Kobieta,2022-05-28_09h27.42.828,task,2021.1.4,MacIntel,60.0024001,628b806c463b948bc644b84f,6291ceddeb734f021991874a,,,,,,,,,,,,,,,,,,,,,,,,,,,,,,,,,,,,,,,,,,,,,,,,,,,,,,,,,,,,,,,,,,,,,,,,,,,,,,,,,,,,,,,,,,,,,,,,,,,,,,,
,,"[""period""]",0,[0.267400000095364],17,0,17,0,1,610063b7b50c4e9488e77eca,22,Kobieta,2022-05-28_09h27.42.828,task,2021.1.4,MacIntel,60.0024001,628b806c463b948bc644b84f,6291ceddeb734f021991874a,,,,,,,,,,,,,,,,,,,,,,,,,,,,,,,,,,,,,,,,,,,,,,,,,,,,,,,,,,,,,,,,,,,,,,,,,,,,,,,,,,,,,,,,,,,,,,,,,,,,,,,
,,"[""comma""]",0,[0.24270000004767667],18,0,18,0,1,610063b7b50c4e9488e77eca,22,Kobieta,2022-05-28_09h27.42.828,task,2021.1.4,MacIntel,60.0024001,628b806c463b948bc644b84f,6291ceddeb734f021991874a,,,,,,,,,,,,,,,,,,,,,,,,,,,,,,,,,,,,,,,,,,,,,,,,,,,,,,,,,,,,,,,,,,,,,,,,,,,,,,,,,,,,,,,,,,,,,,,,,,,,,,,
,,"[""comma""]",0,[0.2505000000000024],19,0,19,0,1,610063b7b50c4e9488e77eca,22,Kobieta,2022-05-28_09h27.42.828,task,2021.1.4,MacIntel,60.0024001,628b806c463b948bc644b84f,6291ceddeb734f021991874a,,,,,,,,,,,,,,,,,,,,,,,,,,,,,,,,,,,,,,,,,,,,,,,,,,,,,,,,,,,,,,,,,,,,,,,,,,,,,,,,,,,,,,,,,,,,,,,,,,,,,,,
,,"[""period""]",0,[0.2505000000000024],20,0,20,0,1,610063b7b50c4e9488e77eca,22,Kobieta,2022-05-28_09h27.42.828,task,2021.1.4,MacIntel,60.0024001,628b806c463b948bc644b84f,6291ceddeb734f021991874a,,,,,,,,,,,,,,,,,,,,,,,,,,,,,,,,,,,,,,,,,,,,,,,,,,,,,,,,,,,,,,,,,,,,,,,,,,,,,,,,,,,,,,,,,,,,,,,,,,,,,,,
,,"[""period""]",0,[0.0012000000476746209],21,0,21,0,1,610063b7b50c4e9488e77eca,22,Kobieta,2022-05-28_09h27.42.828,task,2021.1.4,MacIntel,60.0024001,628b806c463b948bc644b84f,6291ceddeb734f021991874a,,,,,,,,,,,,,,,,,,,,,,,,,,,,,,,,,,,,,,,,,,,,,,,,,,,,,,,,,,,,,,,,,,,,,,,,,,,,,,,,,,,,,,,,,,,,,,,,,,,,,,,
,,"[""period""]",0,[0.01909999990462552],22,0,22,0,1,610063b7b50c4e9488e77eca,22,Kobieta,2022-05-28_09h27.42.828,task,2021.1.4,MacIntel,60.0024001,628b806c463b948bc644b84f,6291ceddeb734f021991874a,,,,,,,,,,,,,,,,,,,,,,,,,,,,,,,,,,,,,,,,,,,,,,,,,,,,,,,,,,,,,,,,,,,,,,,,,,,,,,,,,,,,,,,,,,,,,,,,,,,,,,,
,,"[""comma""]",0,[0.2668000000715267],23,0,23,0,1,610063b7b50c4e9488e77eca,22,Kobieta,2022-05-28_09h27.42.828,task,2021.1.4,MacIntel,60.0024001,628b806c463b948bc644b84f,6291ceddeb734f021991874a,,,,,,,,,,,,,,,,,,,,,,,,,,,,,,,,,,,,,,,,,,,,,,,,,,,,,,,,,,,,,,,,,,,,,,,,,,,,,,,,,,,,,,,,,,,,,,,,,,,,,,,
,,"[""comma""]",0,[0.2668000000715409],24,0,24,0,1,610063b7b50c4e9488e77eca,22,Kobieta,2022-05-28_09h27.42.828,task,2021.1.4,MacIntel,60.0024001,628b806c463b948bc644b84f,6291ceddeb734f021991874a,,,,,,,,,,,,,,,,,,,,,,,,,,,,,,,,,,,,,,,,,,,,,,,,,,,,,,,,,,,,,,,,,,,,,,,,,,,,,,,,,,,,,,,,,,,,,,,,,,,,,,,
,,"[""period""]",0,[0.2999000000953913],25,0,25,0,1,610063b7b50c4e9488e77eca,22,Kobieta,2022-05-28_09h27.42.828,task,2021.1.4,MacIntel,60.0024001,628b806c463b948bc644b84f,6291ceddeb734f021991874a,,,,,,,,,,,,,,,,,,,,,,,,,,,,,,,,,,,,,,,,,,,,,,,,,,,,,,,,,,,,,,,,,,,,,,,,,,,,,,,,,,,,,,,,,,,,,,,,,,,,,,,
,,"[""comma""]",0,[0.23370000004769054],26,0,26,0,1,610063b7b50c4e9488e77eca,22,Kobieta,2022-05-28_09h27.42.828,task,2021.1.4,MacIntel,60.0024001,628b806c463b948bc644b84f,6291ceddeb734f021991874a,,,,,,,,,,,,,,,,,,,,,,,,,,,,,,,,,,,,,,,,,,,,,,,,,,,,,,,,,,,,,,,,,,,,,,,,,,,,,,,,,,,,,,,,,,,,,,,,,,,,,,,
,,"[""period""]",0,[0.14999999999997726],27,0,27,0,1,610063b7b50c4e9488e77eca,22,Kobieta,2022-05-28_09h27.42.828,task,2021.1.4,MacIntel,60.0024001,628b806c463b948bc644b84f,6291ceddeb734f021991874a,,,,,,,,,,,,,,,,,,,,,,,,,,,,,,,,,,,,,,,,,,,,,,,,,,,,,,,,,,,,,,,,,,,,,,,,,,,,,,,,,,,,,,,,,,,,,,,,,,,,,,,
,,"[""comma""]",0,[0.2171000000238621],28,0,28,0,1,610063b7b50c4e9488e77eca,22,Kobieta,2022-05-28_09h27.42.828,task,2021.1.4,MacIntel,60.0024001,628b806c463b948bc644b84f,6291ceddeb734f021991874a,,,,,,,,,,,,,,,,,,,,,,,,,,,,,,,,,,,,,,,,,,,,,,,,,,,,,,,,,,,,,,,,,,,,,,,,,,,,,,,,,,,,,,,,,,,,,,,,,,,,,,,
,,"[""comma""]",0,[0.25080000007150716],29,0,29,0,1,610063b7b50c4e9488e77eca,22,Kobieta,2022-05-28_09h27.42.828,task,2021.1.4,MacIntel,60.0024001,628b806c463b948bc644b84f,6291ceddeb734f021991874a,,,,,,,,,,,,,,,,,,,,,,,,,,,,,,,,,,,,,,,,,,,,,,,,,,,,,,,,,,,,,,,,,,,,,,,,,,,,,,,,,,,,,,,,,,,,,,,,,,,,,,,
,,"[""comma""]",0,[0.250300000071519],30,0,30,0,1,610063b7b50c4e9488e77eca,22,Kobieta,2022-05-28_09h27.42.828,task,2021.1.4,MacIntel,60.0024001,628b806c463b948bc644b84f,6291ceddeb734f021991874a,,,,,,,,,,,,,,,,,,,,,,,,,,,,,,,,,,,,,,,,,,,,,,,,,,,,,,,,,,,,,,,,,,,,,,,,,,,,,,,,,,,,,,,,,,,,,,,,,,,,,,,
,,"[""comma""]",0,[0.23289999997615496],31,0,31,0,1,610063b7b50c4e9488e77eca,22,Kobieta,2022-05-28_09h27.42.828,task,2021.1.4,MacIntel,60.0024001,628b806c463b948bc644b84f,6291ceddeb734f021991874a,,,,,,,,,,,,,,,,,,,,,,,,,,,,,,,,,,,,,,,,,,,,,,,,,,,,,,,,,,,,,,,,,,,,,,,,,,,,,,,,,,,,,,,,,,,,,,,,,,,,,,,
,,"[""comma""]",0,[0.2358000000715208],32,0,32,0,1,610063b7b50c4e9488e77eca,22,Kobieta,2022-05-28_09h27.42.828,task,2021.1.4,MacIntel,60.0024001,628b806c463b948bc644b84f,6291ceddeb734f021991874a,,,,,,,,,,,,,,,,,,,,,,,,,,,,,,,,,,,,,,,,,,,,,,,,,,,,,,,,,,,,,,,,,,,,,,,,,,,,,,,,,,,,,,,,,,,,,,,,,,,,,,,
,,"[""comma""]",0,[0.24979999995230173],33,0,33,0,1,610063b7b50c4e9488e77eca,22,Kobieta,2022-05-28_09h27.42.828,task,2021.1.4,MacIntel,60.0024001,628b806c463b948bc644b84f,6291ceddeb734f021991874a,,,,,,,,,,,,,,,,,,,,,,,,,,,,,,,,,,,,,,,,,,,,,,,,,,,,,,,,,,,,,,,,,,,,,,,,,,,,,,,,,,,,,,,,,,,,,,,,,,,,,,,
,,"[""comma""]",0,[0.2342000000476787],34,0,34,0,1,610063b7b50c4e9488e77eca,22,Kobieta,2022-05-28_09h27.42.828,task,2021.1.4,MacIntel,60.0024001,628b806c463b948bc644b84f,6291ceddeb734f021991874a,,,,,,,,,,,,,,,,,,,,,,,,,,,,,,,,,,,,,,,,,,,,,,,,,,,,,,,,,,,,,,,,,,,,,,,,,,,,,,,,,,,,,,,,,,,,,,,,,,,,,,,
,,"[""comma""]",0,[0.18420000004769577],35,0,35,0,1,610063b7b50c4e9488e77eca,22,Kobieta,2022-05-28_09h27.42.828,task,2021.1.4,MacIntel,60.0024001,628b806c463b948bc644b84f,6291ceddeb734f021991874a,,,,,,,,,,,,,,,,,,,,,,,,,,,,,,,,,,,,,,,,,,,,,,,,,,,,,,,,,,,,,,,,,,,,,,,,,,,,,,,,,,,,,,,,,,,,,,,,,,,,,,,
,,"[""comma""]",0,[0.06700000000000728],36,0,36,0,1,610063b7b50c4e9488e77eca,22,Kobieta,2022-05-28_09h27.42.828,task,2021.1.4,MacIntel,60.0024001,628b806c463b948bc644b84f,6291ceddeb734f021991874a,,,,,,,,,,,,,,,,,,,,,,,,,,,,,,,,,,,,,,,,,,,,,,,,,,,,,,,,,,,,,,,,,,,,,,,,,,,,,,,,,,,,,,,,,,,,,,,,,,,,,,,
,,"[""comma""]",0,[0.2343999999761479],37,0,37,0,1,610063b7b50c4e9488e77eca,22,Kobieta,2022-05-28_09h27.42.828,task,2021.1.4,MacIntel,60.0024001,628b806c463b948bc644b84f,6291ceddeb734f021991874a,,,,,,,,,,,,,,,,,,,,,,,,,,,,,,,,,,,,,,,,,,,,,,,,,,,,,,,,,,,,,,,,,,,,,,,,,,,,,,,,,,,,,,,,,,,,,,,,,,,,,,,
,,"[""period""]",0,[0.25139999997617224],38,0,38,0,1,610063b7b50c4e9488e77eca,22,Kobieta,2022-05-28_09h27.42.828,task,2021.1.4,MacIntel,60.0024001,628b806c463b948bc644b84f,6291ceddeb734f021991874a,,,,,,,,,,,,,,,,,,,,,,,,,,,,,,,,,,,,,,,,,,,,,,,,,,,,,,,,,,,,,,,,,,,,,,,,,,,,,,,,,,,,,,,,,,,,,,,,,,,,,,,
,,"[""period""]",0,[0.2671999999284651],39,0,39,0,1,610063b7b50c4e9488e77eca,22,Kobieta,2022-05-28_09h27.42.828,task,2021.1.4,MacIntel,60.0024001,628b806c463b948bc644b84f,6291ceddeb734f021991874a,,,,,,,,,,,,,,,,,,,,,,,,,,,,,,,,,,,,,,,,,,,,,,,,,,,,,,,,,,,,,,,,,,,,,,,,,,,,,,,,,,,,,,,,,,,,,,,,,,,,,,,
,,"[""comma""]",0,[0.2668000000715267],40,0,40,0,1,610063b7b50c4e9488e77eca,22,Kobieta,2022-05-28_09h27.42.828,task,2021.1.4,MacIntel,60.0024001,628b806c463b948bc644b84f,6291ceddeb734f021991874a,,,,,,,,,,,,,,,,,,,,,,,,,,,,,,,,,,,,,,,,,,,,,,,,,,,,,,,,,,,,,,,,,,,,,,,,,,,,,,,,,,,,,,,,,,,,,,,,,,,,,,,
,,"[""comma""]",0,[0.10079999995230082],41,0,41,0,1,610063b7b50c4e9488e77eca,22,Kobieta,2022-05-28_09h27.42.828,task,2021.1.4,MacIntel,60.0024001,628b806c463b948bc644b84f,6291ceddeb734f021991874a,,,,,,,,,,,,,,,,,,,,,,,,,,,,,,,,,,,,,,,,,,,,,,,,,,,,,,,,,,,,,,,,,,,,,,,,,,,,,,,,,,,,,,,,,,,,,,,,,,,,,,,
,,"[""comma""]",0,[0.2330000000000041],42,0,42,0,1,610063b7b50c4e9488e77eca,22,Kobieta,2022-05-28_09h27.42.828,task,2021.1.4,MacIntel,60.0024001,628b806c463b948bc644b84f,6291ceddeb734f021991874a,,,,,,,,,,,,,,,,,,,,,,,,,,,,,,,,,,,,,,,,,,,,,,,,,,,,,,,,,,,,,,,,,,,,,,,,,,,,,,,,,,,,,,,,,,,,,,,,,,,,,,,
,,"[""period""]",0,[0.2669999999999959],43,0,43,0,1,610063b7b50c4e9488e77eca,22,Kobieta,2022-05-28_09h27.42.828,task,2021.1.4,MacIntel,60.0024001,628b806c463b948bc644b84f,6291ceddeb734f021991874a,,,,,,,,,,,,,,,,,,,,,,,,,,,,,,,,,,,,,,,,,,,,,,,,,,,,,,,,,,,,,,,,,,,,,,,,,,,,,,,,,,,,,,,,,,,,,,,,,,,,,,,
,,"[""comma""]",0,[0.21800000000001774],44,0,44,0,1,610063b7b50c4e9488e77eca,22,Kobieta,2022-05-28_09h27.42.828,task,2021.1.4,MacIntel,60.0024001,628b806c463b948bc644b84f,6291ceddeb734f021991874a,,,,,,,,,,,,,,,,,,,,,,,,,,,,,,,,,,,,,,,,,,,,,,,,,,,,,,,,,,,,,,,,,,,,,,,,,,,,,,,,,,,,,,,,,,,,,,,,,,,,,,,
,,"[""comma""]",0,[0.25099999999997635],45,0,45,0,1,610063b7b50c4e9488e77eca,22,Kobieta,2022-05-28_09h27.42.828,task,2021.1.4,MacIntel,60.0024001,628b806c463b948bc644b84f,6291ceddeb734f021991874a,,,,,,,,,,,,,,,,,,,,,,,,,,,,,,,,,,,,,,,,,,,,,,,,,,,,,,,,,,,,,,,,,,,,,,,,,,,,,,,,,,,,,,,,,,,,,,,,,,,,,,,
,,"[""period""]",0,[0.26760000002386164],46,0,46,0,1,610063b7b50c4e9488e77eca,22,Kobieta,2022-05-28_09h27.42.828,task,2021.1.4,MacIntel,60.0024001,628b806c463b948bc644b84f,6291ceddeb734f021991874a,,,,,,,,,,,,,,,,,,,,,,,,,,,,,,,,,,,,,,,,,,,,,,,,,,,,,,,,,,,,,,,,,,,,,,,,,,,,,,,,,,,,,,,,,,,,,,,,,,,,,,,
,,"[""period""]",0,[0.2668999999761468],47,0,47,0,1,610063b7b50c4e9488e77eca,22,Kobieta,2022-05-28_09h27.42.828,task,2021.1.4,MacIntel,60.0024001,628b806c463b948bc644b84f,6291ceddeb734f021991874a,,,,,,,,,,,,,,,,,,,,,,,,,,,,,,,,,,,,,,,,,,,,,,,,,,,,,,,,,,,,,,,,,,,,,,,,,,,,,,,,,,,,,,,,,,,,,,,,,,,,,,,
,,"[""period""]",0,[0.28360000002382435],48,0,48,0,1,610063b7b50c4e9488e77eca,22,Kobieta,2022-05-28_09h27.42.828,task,2021.1.4,MacIntel,60.0024001,628b806c463b948bc644b84f,6291ceddeb734f021991874a,,,,,,,,,,,,,,,,,,,,,,,,,,,,,,,,,,,,,,,,,,,,,,,,,,,,,,,,,,,,,,,,,,,,,,,,,,,,,,,,,,,,,,,,,,,,,,,,,,,,,,,
,,"[""period""]",0,[0.26660000002382844],49,0,49,0,1,610063b7b50c4e9488e77eca,22,Kobieta,2022-05-28_09h27.42.828,task,2021.1.4,MacIntel,60.0024001,628b806c463b948bc644b84f,6291ceddeb734f021991874a,,,,,,,,,,,,,,,,,,,,,,,,,,,,,,,,,,,,,,,,,,,,,,,,,,,,,,,,,,,,,,,,,,,,,,,,,,,,,,,,,,,,,,,,,,,,,,,,,,,,,,,
,,"[""comma""]",0,[0.1875],50,0,50,0,1,610063b7b50c4e9488e77eca,22,Kobieta,2022-05-28_09h27.42.828,task,2021.1.4,MacIntel,60.0024001,628b806c463b948bc644b84f,6291ceddeb734f021991874a,,,,,,,,,,,,,,,,,,,,,,,,,,,,,,,,,,,,,,,,,,,,,,,,,,,,,,,,,,,,,,,,,,,,,,,,,,,,,,,,,,,,,,,,,,,,,,,,,,,,,,,
,,"[""comma""]",0,[0.2335000000000207],51,0,51,0,1,610063b7b50c4e9488e77eca,22,Kobieta,2022-05-28_09h27.42.828,task,2021.1.4,MacIntel,60.0024001,628b806c463b948bc644b84f,6291ceddeb734f021991874a,,,,,,,,,,,,,,,,,,,,,,,,,,,,,,,,,,,,,,,,,,,,,,,,,,,,,,,,,,,,,,,,,,,,,,,,,,,,,,,,,,,,,,,,,,,,,,,,,,,,,,,
,,"[""period""]",0,[0.24979999995230173],52,0,52,0,1,610063b7b50c4e9488e77eca,22,Kobieta,2022-05-28_09h27.42.828,task,2021.1.4,MacIntel,60.0024001,628b806c463b948bc644b84f,6291ceddeb734f021991874a,,,,,,,,,,,,,,,,,,,,,,,,,,,,,,,,,,,,,,,,,,,,,,,,,,,,,,,,,,,,,,,,,,,,,,,,,,,,,,,,,,,,,,,,,,,,,,,,,,,,,,,
,,"[""comma""]",0,[0.25039999997616746],53,0,53,0,1,610063b7b50c4e9488e77eca,22,Kobieta,2022-05-28_09h27.42.828,task,2021.1.4,MacIntel,60.0024001,628b806c463b948bc644b84f,6291ceddeb734f021991874a,,,,,,,,,,,,,,,,,,,,,,,,,,,,,,,,,,,,,,,,,,,,,,,,,,,,,,,,,,,,,,,,,,,,,,,,,,,,,,,,,,,,,,,,,,,,,,,,,,,,,,,
,,"[""period""]",0,[0.25060000002386573],54,0,54,0,1,610063b7b50c4e9488e77eca,22,Kobieta,2022-05-28_09h27.42.828,task,2021.1.4,MacIntel,60.0024001,628b806c463b948bc644b84f,6291ceddeb734f021991874a,,,,,,,,,,,,,,,,,,,,,,,,,,,,,,,,,,,,,,,,,,,,,,,,,,,,,,,,,,,,,,,,,,,,,,,,,,,,,,,,,,,,,,,,,,,,,,,,,,,,,,,
,,"[""comma""]",0,[0.2668999999761752],55,0,55,0,1,610063b7b50c4e9488e77eca,22,Kobieta,2022-05-28_09h27.42.828,task,2021.1.4,MacIntel,60.0024001,628b806c463b948bc644b84f,6291ceddeb734f021991874a,,,,,,,,,,,,,,,,,,,,,,,,,,,,,,,,,,,,,,,,,,,,,,,,,,,,,,,,,,,,,,,,,,,,,,,,,,,,,,,,,,,,,,,,,,,,,,,,,,,,,,,
,,"[""period""]",0,[0.26679999995232606],56,0,56,0,1,610063b7b50c4e9488e77eca,22,Kobieta,2022-05-28_09h27.42.828,task,2021.1.4,MacIntel,60.0024001,628b806c463b948bc644b84f,6291ceddeb734f021991874a,,,,,,,,,,,,,,,,,,,,,,,,,,,,,,,,,,,,,,,,,,,,,,,,,,,,,,,,,,,,,,,,,,,,,,,,,,,,,,,,,,,,,,,,,,,,,,,,,,,,,,,
,,"[""comma""]",0,[0.2552999999523138],57,0,57,0,1,610063b7b50c4e9488e77eca,22,Kobieta,2022-05-28_09h27.42.828,task,2021.1.4,MacIntel,60.0024001,628b806c463b948bc644b84f,6291ceddeb734f021991874a,,,,,,,,,,,,,,,,,,,,,,,,,,,,,,,,,,,,,,,,,,,,,,,,,,,,,,,,,,,,,,,,,,,,,,,,,,,,,,,,,,,,,,,,,,,,,,,,,,,,,,,
,,"[""period""]",0,[0.2501000000238207],58,0,58,0,1,610063b7b50c4e9488e77eca,22,Kobieta,2022-05-28_09h27.42.828,task,2021.1.4,MacIntel,60.0024001,628b806c463b948bc644b84f,6291ceddeb734f021991874a,,,,,,,,,,,,,,,,,,,,,,,,,,,,,,,,,,,,,,,,,,,,,,,,,,,,,,,,,,,,,,,,,,,,,,,,,,,,,,,,,,,,,,,,,,,,,,,,,,,,,,,
,,"[""comma""]",0,[0.2671999999284935],59,0,59,0,1,610063b7b50c4e9488e77eca,22,Kobieta,2022-05-28_09h27.42.828,task,2021.1.4,MacIntel,60.0024001,628b806c463b948bc644b84f,6291ceddeb734f021991874a,,,,,,,,,,,,,,,,,,,,,,,,,,,,,,,,,,,,,,,,,,,,,,,,,,,,,,,,,,,,,,,,,,,,,,,,,,,,,,,,,,,,,,,,,,,,,,,,,,,,,,,
,,"[""period""]",0,[0.268600000023838],60,0,60,0,1,610063b7b50c4e9488e77eca,22,Kobieta,2022-05-28_09h27.42.828,task,2021.1.4,MacIntel,60.0024001,628b806c463b948bc644b84f,6291ceddeb734f021991874a,,,,,,,,,,,,,,,,,,,,,,,,,,,,,,,,,,,,,,,,,,,,,,,,,,,,,,,,,,,,,,,,,,,,,,,,,,,,,,,,,,,,,,,,,,,,,,,,,,,,,,,
,,"[""comma""]",0,[0.2511000000238539],61,0,61,0,1,610063b7b50c4e9488e77eca,22,Kobieta,2022-05-28_09h27.42.828,task,2021.1.4,MacIntel,60.0024001,628b806c463b948bc644b84f,6291ceddeb734f021991874a,,,,,,,,,,,,,,,,,,,,,,,,,,,,,,,,,,,,,,,,,,,,,,,,,,,,,,,,,,,,,,,,,,,,,,,,,,,,,,,,,,,,,,,,,,,,,,,,,,,,,,,
,,"[""period""]",0,[0.258199999928479],62,0,62,0,1,610063b7b50c4e9488e77eca,22,Kobieta,2022-05-28_09h27.42.828,task,2021.1.4,MacIntel,60.0024001,628b806c463b948bc644b84f,6291ceddeb734f021991874a,,,,,,,,,,,,,,,,,,,,,,,,,,,,,,,,,,,,,,,,,,,,,,,,,,,,,,,,,,,,,,,,,,,,,,,,,,,,,,,,,,,,,,,,,,,,,,,,,,,,,,,
,,"[""period""]",0,[0.22479999995229605],63,0,63,0,1,610063b7b50c4e9488e77eca,22,Kobieta,2022-05-28_09h27.42.828,task,2021.1.4,MacIntel,60.0024001,628b806c463b948bc644b84f,6291ceddeb734f021991874a,,,,,,,,,,,,,,,,,,,,,,,,,,,,,,,,,,,,,,,,,,,,,,,,,,,,,,,,,,,,,,,,,,,,,,,,,,,,,,,,,,,,,,,,,,,,,,,,,,,,,,,
,,"[""period""]",0,[0.20079999995232356],64,0,64,0,1,610063b7b50c4e9488e77eca,22,Kobieta,2022-05-28_09h27.42.828,task,2021.1.4,MacIntel,60.0024001,628b806c463b948bc644b84f,6291ceddeb734f021991874a,,,,,,,,,,,,,,,,,,,,,,,,,,,,,,,,,,,,,,,,,,,,,,,,,,,,,,,,,,,,,,,,,,,,,,,,,,,,,,,,,,,,,,,,,,,,,,,,,,,,,,,
,,"[""period""]",0,[0.23380000007151125],65,0,65,0,1,610063b7b50c4e9488e77eca,22,Kobieta,2022-05-28_09h27.42.828,task,2021.1.4,MacIntel,60.0024001,628b806c463b948bc644b84f,6291ceddeb734f021991874a,,,,,,,,,,,,,,,,,,,,,,,,,,,,,,,,,,,,,,,,,,,,,,,,,,,,,,,,,,,,,,,,,,,,,,,,,,,,,,,,,,,,,,,,,,,,,,,,,,,,,,,
,,"[""period""]",0,[0.25020000004766985],66,0,66,0,1,610063b7b50c4e9488e77eca,22,Kobieta,2022-05-28_09h27.42.828,task,2021.1.4,MacIntel,60.0024001,628b806c463b948bc644b84f,6291ceddeb734f021991874a,,,,,,,,,,,,,,,,,,,,,,,,,,,,,,,,,,,,,,,,,,,,,,,,,,,,,,,,,,,,,,,,,,,,,,,,,,,,,,,,,,,,,,,,,,,,,,,,,,,,,,,
,,"[""period""]",0,[0.26709999990461597],67,0,67,0,1,610063b7b50c4e9488e77eca,22,Kobieta,2022-05-28_09h27.42.828,task,2021.1.4,MacIntel,60.0024001,628b806c463b948bc644b84f,6291ceddeb734f021991874a,,,,,,,,,,,,,,,,,,,,,,,,,,,,,,,,,,,,,,,,,,,,,,,,,,,,,,,,,,,,,,,,,,,,,,,,,,,,,,,,,,,,,,,,,,,,,,,,,,,,,,,
,,"[""period""]",0,[0.19989999997616792],68,0,68,0,1,610063b7b50c4e9488e77eca,22,Kobieta,2022-05-28_09h27.42.828,task,2021.1.4,MacIntel,60.0024001,628b806c463b948bc644b84f,6291ceddeb734f021991874a,,,,,,,,,,,,,,,,,,,,,,,,,,,,,,,,,,,,,,,,,,,,,,,,,,,,,,,,,,,,,,,,,,,,,,,,,,,,,,,,,,,,,,,,,,,,,,,,,,,,,,,
,,"[""period""]",0,[0.0860999999046328],69,0,69,0,1,610063b7b50c4e9488e77eca,22,Kobieta,2022-05-28_09h27.42.828,task,2021.1.4,MacIntel,60.0024001,628b806c463b948bc644b84f,6291ceddeb734f021991874a,,,,,,,,,,,,,,,,,,,,,,,,,,,,,,,,,,,,,,,,,,,,,,,,,,,,,,,,,,,,,,,,,,,,,,,,,,,,,,,,,,,,,,,,,,,,,,,,,,,,,,,
,,"[""period""]",0,[0.03360000002385277],70,0,70,0,1,610063b7b50c4e9488e77eca,22,Kobieta,2022-05-28_09h27.42.828,task,2021.1.4,MacIntel,60.0024001,628b806c463b948bc644b84f,6291ceddeb734f021991874a,,,,,,,,,,,,,,,,,,,,,,,,,,,,,,,,,,,,,,,,,,,,,,,,,,,,,,,,,,,,,,,,,,,,,,,,,,,,,,,,,,,,,,,,,,,,,,,,,,,,,,,
,,"[""period""]",0,[0.1992999999523022],71,0,71,0,1,610063b7b50c4e9488e77eca,22,Kobieta,2022-05-28_09h27.42.828,task,2021.1.4,MacIntel,60.0024001,628b806c463b948bc644b84f,6291ceddeb734f021991874a,,,,,,,,,,,,,,,,,,,,,,,,,,,,,,,,,,,,,,,,,,,,,,,,,,,,,,,,,,,,,,,,,,,,,,,,,,,,,,,,,,,,,,,,,,,,,,,,,,,,,,,
,,"[""period""]",0,[0.3007000000476694],72,0,72,0,1,610063b7b50c4e9488e77eca,22,Kobieta,2022-05-28_09h27.42.828,task,2021.1.4,MacIntel,60.0024001,628b806c463b948bc644b84f,6291ceddeb734f021991874a,,,,,,,,,,,,,,,,,,,,,,,,,,,,,,,,,,,,,,,,,,,,,,,,,,,,,,,,,,,,,,,,,,,,,,,,,,,,,,,,,,,,,,,,,,,,,,,,,,,,,,,
,,"[""period""]",0,[0.2657000000477012],73,0,73,0,1,610063b7b50c4e9488e77eca,22,Kobieta,2022-05-28_09h27.42.828,task,2021.1.4,MacIntel,60.0024001,628b806c463b948bc644b84f,6291ceddeb734f021991874a,,,,,,,,,,,,,,,,,,,,,,,,,,,,,,,,,,,,,,,,,,,,,,,,,,,,,,,,,,,,,,,,,,,,,,,,,,,,,,,,,,,,,,,,,,,,,,,,,,,,,,,
,,"[""period""]",0,[0.28360000002385277],74,0,74,0,1,610063b7b50c4e9488e77eca,22,Kobieta,2022-05-28_09h27.42.828,task,2021.1.4,MacIntel,60.0024001,628b806c463b948bc644b84f,6291ceddeb734f021991874a,,,,,,,,,,,,,,,,,,,,,,,,,,,,,,,,,,,,,,,,,,,,,,,,,,,,,,,,,,,,,,,,,,,,,,,,,,,,,,,,,,,,,,,,,,,,,,,,,,,,,,,
,,"[""comma""]",0,[0.2667000000476776],75,0,75,0,1,610063b7b50c4e9488e77eca,22,Kobieta,2022-05-28_09h27.42.828,task,2021.1.4,MacIntel,60.0024001,628b806c463b948bc644b84f,6291ceddeb734f021991874a,,,,,,,,,,,,,,,,,,,,,,,,,,,,,,,,,,,,,,,,,,,,,,,,,,,,,,,,,,,,,,,,,,,,,,,,,,,,,,,,,,,,,,,,,,,,,,,,,,,,,,,
,,"[""period""]",0,[0.23289999997615496],76,0,76,0,1,610063b7b50c4e9488e77eca,22,Kobieta,2022-05-28_09h27.42.828,task,2021.1.4,MacIntel,60.0024001,628b806c463b948bc644b84f,6291ceddeb734f021991874a,,,,,,,,,,,,,,,,,,,,,,,,,,,,,,,,,,,,,,,,,,,,,,,,,,,,,,,,,,,,,,,,,,,,,,,,,,,,,,,,,,,,,,,,,,,,,,,,,,,,,,,
,,"[""period"",""comma""]",0,"[0.23339999997617156,0.26839999997616815]",77,0,77,0,1,610063b7b50c4e9488e77eca,22,Kobieta,2022-05-28_09h27.42.828,task,2021.1.4,MacIntel,60.0024001,628b806c463b948bc644b84f,6291ceddeb734f021991874a,,,,,,,,,,,,,,,,,,,,,,,,,,,,,,,,,,,,,,,,,,,,,,,,,,,,,,,,,,,,,,,,,,,,,,,,,,,,,,,,,,,,,,,,,,,,,,,,,,,,,,,
,,"[""period""]",0,[0.2512999999523231],78,0,78,0,1,610063b7b50c4e9488e77eca,22,Kobieta,2022-05-28_09h27.42.828,task,2021.1.4,MacIntel,60.0024001,628b806c463b948bc644b84f,6291ceddeb734f021991874a,,,,,,,,,,,,,,,,,,,,,,,,,,,,,,,,,,,,,,,,,,,,,,,,,,,,,,,,,,,,,,,,,,,,,,,,,,,,,,,,,,,,,,,,,,,,,,,,,,,,,,,
,,"[""period""]",0,[0.30289999997617656],79,0,79,0,1,610063b7b50c4e9488e77eca,22,Kobieta,2022-05-28_09h27.42.828,task,2021.1.4,MacIntel,60.0024001,628b806c463b948bc644b84f,6291ceddeb734f021991874a,,,,,,,,,,,,,,,,,,,,,,,,,,,,,,,,,,,,,,,,,,,,,,,,,,,,,,,,,,,,,,,,,,,,,,,,,,,,,,,,,,,,,,,,,,,,,,,,,,,,,,,
,,"[""period""]",0,[0.28300000000001546],80,0,80,0,1,610063b7b50c4e9488e77eca,22,Kobieta,2022-05-28_09h27.42.828,task,2021.1.4,MacIntel,60.0024001,628b806c463b948bc644b84f,6291ceddeb734f021991874a,,,,,,,,,,,,,,,,,,,,,,,,,,,,,,,,,,,,,,,,,,,,,,,,,,,,,,,,,,,,,,,,,,,,,,,,,,,,,,,,,,,,,,,,,,,,,,,,,,,,,,,
,,"[""period""]",0,[0.30060000002382026],81,0,81,0,1,610063b7b50c4e9488e77eca,22,Kobieta,2022-05-28_09h27.42.828,task,2021.1.4,MacIntel,60.0024001,628b806c463b948bc644b84f,6291ceddeb734f021991874a,,,,,,,,,,,,,,,,,,,,,,,,,,,,,,,,,,,,,,,,,,,,,,,,,,,,,,,,,,,,,,,,,,,,,,,,,,,,,,,,,,,,,,,,,,,,,,,,,,,,,,,
,,"[""period""]",0,[0.30170000004767417],82,0,82,0,1,610063b7b50c4e9488e77eca,22,Kobieta,2022-05-28_09h27.42.828,task,2021.1.4,MacIntel,60.0024001,628b806c463b948bc644b84f,6291ceddeb734f021991874a,,,,,,,,,,,,,,,,,,,,,,,,,,,,,,,,,,,,,,,,,,,,,,,,,,,,,,,,,,,,,,,,,,,,,,,,,,,,,,,,,,,,,,,,,,,,,,,,,,,,,,,
,,"[""comma""]",0,[0.2993000000715256],83,0,83,0,1,610063b7b50c4e9488e77eca,22,Kobieta,2022-05-28_09h27.42.828,task,2021.1.4,MacIntel,60.0024001,628b806c463b948bc644b84f,6291ceddeb734f021991874a,,,,,,,,,,,,,,,,,,,,,,,,,,,,,,,,,,,,,,,,,,,,,,,,,,,,,,,,,,,,,,,,,,,,,,,,,,,,,,,,,,,,,,,,,,,,,,,,,,,,,,,
,,"[""period""]",0,[0.2824000000953504],84,0,84,0,1,610063b7b50c4e9488e77eca,22,Kobieta,2022-05-28_09h27.42.828,task,2021.1.4,MacIntel,60.0024001,628b806c463b948bc644b84f,6291ceddeb734f021991874a,,,,,,,,,,,,,,,,,,,,,,,,,,,,,,,,,,,,,,,,,,,,,,,,,,,,,,,,,,,,,,,,,,,,,,,,,,,,,,,,,,,,,,,,,,,,,,,,,,,,,,,
,,"[""comma""]",0,[0.26820000004769895],85,0,85,0,1,610063b7b50c4e9488e77eca,22,Kobieta,2022-05-28_09h27.42.828,task,2021.1.4,MacIntel,60.0024001,628b806c463b948bc644b84f,6291ceddeb734f021991874a,,,,,,,,,,,,,,,,,,,,,,,,,,,,,,,,,,,,,,,,,,,,,,,,,,,,,,,,,,,,,,,,,,,,,,,,,,,,,,,,,,,,,,,,,,,,,,,,,,,,,,,
,,"[""period""]",0,[0.31620000004767235],86,0,86,0,1,610063b7b50c4e9488e77eca,22,Kobieta,2022-05-28_09h27.42.828,task,2021.1.4,MacIntel,60.0024001,628b806c463b948bc644b84f,6291ceddeb734f021991874a,,,,,,,,,,,,,,,,,,,,,,,,,,,,,,,,,,,,,,,,,,,,,,,,,,,,,,,,,,,,,,,,,,,,,,,,,,,,,,,,,,,,,,,,,,,,,,,,,,,,,,,
,,"[""period""]",0,[0.2990000000000066],87,0,87,0,1,610063b7b50c4e9488e77eca,22,Kobieta,2022-05-28_09h27.42.828,task,2021.1.4,MacIntel,60.0024001,628b806c463b948bc644b84f,6291ceddeb734f021991874a,,,,,,,,,,,,,,,,,,,,,,,,,,,,,,,,,,,,,,,,,,,,,,,,,,,,,,,,,,,,,,,,,,,,,,,,,,,,,,,,,,,,,,,,,,,,,,,,,,,,,,,
,,"[""period""]",0,[0.271000000000015],88,0,88,0,1,610063b7b50c4e9488e77eca,22,Kobieta,2022-05-28_09h27.42.828,task,2021.1.4,MacIntel,60.0024001,628b806c463b948bc644b84f,6291ceddeb734f021991874a,,,,,,,,,,,,,,,,,,,,,,,,,,,,,,,,,,,,,,,,,,,,,,,,,,,,,,,,,,,,,,,,,,,,,,,,,,,,,,,,,,,,,,,,,,,,,,,,,,,,,,,
,,"[""period""]",0,[0.23450000000002547],89,0,89,0,1,610063b7b50c4e9488e77eca,22,Kobieta,2022-05-28_09h27.42.828,task,2021.1.4,MacIntel,60.0024001,628b806c463b948bc644b84f,6291ceddeb734f021991874a,,,,,,,,,,,,,,,,,,,,,,,,,,,,,,,,,,,,,,,,,,,,,,,,,,,,,,,,,,,,,,,,,,,,,,,,,,,,,,,,,,,,,,,,,,,,,,,,,,,,,,,
,,"[""period""]",0,[0.26640000009535925],90,0,90,0,1,610063b7b50c4e9488e77eca,22,Kobieta,2022-05-28_09h27.42.828,task,2021.1.4,MacIntel,60.0024001,628b806c463b948bc644b84f,6291ceddeb734f021991874a,,,,,,,,,,,,,,,,,,,,,,,,,,,,,,,,,,,,,,,,,,,,,,,,,,,,,,,,,,,,,,,,,,,,,,,,,,,,,,,,,,,,,,,,,,,,,,,,,,,,,,,
,,"[""period""]",0,[0.2670999999046444],91,0,91,0,1,610063b7b50c4e9488e77eca,22,Kobieta,2022-05-28_09h27.42.828,task,2021.1.4,MacIntel,60.0024001,628b806c463b948bc644b84f,6291ceddeb734f021991874a,,,,,,,,,,,,,,,,,,,,,,,,,,,,,,,,,,,,,,,,,,,,,,,,,,,,,,,,,,,,,,,,,,,,,,,,,,,,,,,,,,,,,,,,,,,,,,,,,,,,,,,
,,"[""period""]",0,[0.23310000002385323],92,0,92,0,1,610063b7b50c4e9488e77eca,22,Kobieta,2022-05-28_09h27.42.828,task,2021.1.4,MacIntel,60.0024001,628b806c463b948bc644b84f,6291ceddeb734f021991874a,,,,,,,,,,,,,,,,,,,,,,,,,,,,,,,,,,,,,,,,,,,,,,,,,,,,,,,,,,,,,,,,,,,,,,,,,,,,,,,,,,,,,,,,,,,,,,,,,,,,,,,
,,"[""period""]",0,[0.2664000000954161],93,0,93,0,1,610063b7b50c4e9488e77eca,22,Kobieta,2022-05-28_09h27.42.828,task,2021.1.4,MacIntel,60.0024001,628b806c463b948bc644b84f,6291ceddeb734f021991874a,,,,,,,,,,,,,,,,,,,,,,,,,,,,,,,,,,,,,,,,,,,,,,,,,,,,,,,,,,,,,,,,,,,,,,,,,,,,,,,,,,,,,,,,,,,,,,,,,,,,,,,
,,"[""period""]",0,[0.2318999999761786],94,0,94,0,1,610063b7b50c4e9488e77eca,22,Kobieta,2022-05-28_09h27.42.828,task,2021.1.4,MacIntel,60.0024001,628b806c463b948bc644b84f,6291ceddeb734f021991874a,,,,,,,,,,,,,,,,,,,,,,,,,,,,,,,,,,,,,,,,,,,,,,,,,,,,,,,,,,,,,,,,,,,,,,,,,,,,,,,,,,,,,,,,,,,,,,,,,,,,,,,
,,"[""period""]",0,[0.3006000000238487],95,0,95,0,1,610063b7b50c4e9488e77eca,22,Kobieta,2022-05-28_09h27.42.828,task,2021.1.4,MacIntel,60.0024001,628b806c463b948bc644b84f,6291ceddeb734f021991874a,,,,,,,,,,,,,,,,,,,,,,,,,,,,,,,,,,,,,,,,,,,,,,,,,,,,,,,,,,,,,,,,,,,,,,,,,,,,,,,,,,,,,,,,,,,,,,,,,,,,,,,
,,"[""period""]",0,[0.3010999999046362],96,0,96,0,1,610063b7b50c4e9488e77eca,22,Kobieta,2022-05-28_09h27.42.828,task,2021.1.4,MacIntel,60.0024001,628b806c463b948bc644b84f,6291ceddeb734f021991874a,,,,,,,,,,,,,,,,,,,,,,,,,,,,,,,,,,,,,,,,,,,,,,,,,,,,,,,,,,,,,,,,,,,,,,,,,,,,,,,,,,,,,,,,,,,,,,,,,,,,,,,
,,"[""period""]",0,[0.2826000000238764],97,0,97,0,1,610063b7b50c4e9488e77eca,22,Kobieta,2022-05-28_09h27.42.828,task,2021.1.4,MacIntel,60.0024001,628b806c463b948bc644b84f,6291ceddeb734f021991874a,,,,,,,,,,,,,,,,,,,,,,,,,,,,,,,,,,,,,,,,,,,,,,,,,,,,,,,,,,,,,,,,,,,,,,,,,,,,,,,,,,,,,,,,,,,,,,,,,,,,,,,
,,"[""period""]",0,[0.26529999995227627],98,0,98,0,1,610063b7b50c4e9488e77eca,22,Kobieta,2022-05-28_09h27.42.828,task,2021.1.4,MacIntel,60.0024001,628b806c463b948bc644b84f,6291ceddeb734f021991874a,,,,,,,,,,,,,,,,,,,,,,,,,,,,,,,,,,,,,,,,,,,,,,,,,,,,,,,,,,,,,,,,,,,,,,,,,,,,,,,,,,,,,,,,,,,,,,,,,,,,,,,
,,"[""period""]",0,[0.28369999992850126],99,0,99,0,1,610063b7b50c4e9488e77eca,22,Kobieta,2022-05-28_09h27.42.828,task,2021.1.4,MacIntel,60.0024001,628b806c463b948bc644b84f,6291ceddeb734f021991874a,,,,,,,,,,,,,,,,,,,,,,,,,,,,,,,,,,,,,,,,,,,,,,,,,,,,,,,,,,,,,,,,,,,,,,,,,,,,,,,,,,,,,,,,,,,,,,,,,,,,,,,
,,"[""period""]",0,[0.31679999995236585],100,0,100,0,1,610063b7b50c4e9488e77eca,22,Kobieta,2022-05-28_09h27.42.828,task,2021.1.4,MacIntel,60.0024001,628b806c463b948bc644b84f,6291ceddeb734f021991874a,,,,,,,,,,,,,,,,,,,,,,,,,,,,,,,,,,,,,,,,,,,,,,,,,,,,,,,,,,,,,,,,,,,,,,,,,,,,,,,,,,,,,,,,,,,,,,,,,,,,,,,
,,"[""period""]",0,[0.36690000009537016],101,0,101,0,1,610063b7b50c4e9488e77eca,22,Kobieta,2022-05-28_09h27.42.828,task,2021.1.4,MacIntel,60.0024001,628b806c463b948bc644b84f,6291ceddeb734f021991874a,,,,,,,,,,,,,,,,,,,,,,,,,,,,,,,,,,,,,,,,,,,,,,,,,,,,,,,,,,,,,,,,,,,,,,,,,,,,,,,,,,,,,,,,,,,,,,,,,,,,,,,
,,"[""comma""]",0,[0.32579999995232356],102,0,102,0,1,610063b7b50c4e9488e77eca,22,Kobieta,2022-05-28_09h27.42.828,task,2021.1.4,MacIntel,60.0024001,628b806c463b948bc644b84f,6291ceddeb734f021991874a,,,,,,,,,,,,,,,,,,,,,,,,,,,,,,,,,,,,,,,,,,,,,,,,,,,,,,,,,,,,,,,,,,,,,,,,,,,,,,,,,,,,,,,,,,,,,,,,,,,,,,,
,,"[""comma""]",0,[0.3002999999523013],103,0,103,0,1,610063b7b50c4e9488e77eca,22,Kobieta,2022-05-28_09h27.42.828,task,2021.1.4,MacIntel,60.0024001,628b806c463b948bc644b84f,6291ceddeb734f021991874a,,,,,,,,,,,,,,,,,,,,,,,,,,,,,,,,,,,,,,,,,,,,,,,,,,,,,,,,,,,,,,,,,,,,,,,,,,,,,,,,,,,,,,,,,,,,,,,,,,,,,,,
,,"[""period""]",0,[0.2663999999761586],104,0,104,0,1,610063b7b50c4e9488e77eca,22,Kobieta,2022-05-28_09h27.42.828,task,2021.1.4,MacIntel,60.0024001,628b806c463b948bc644b84f,6291ceddeb734f021991874a,,,,,,,,,,,,,,,,,,,,,,,,,,,,,,,,,,,,,,,,,,,,,,,,,,,,,,,,,,,,,,,,,,,,,,,,,,,,,,,,,,,,,,,,,,,,,,,,,,,,,,,
,,"[""period""]",0,[0.26720000004763733],105,0,105,0,1,610063b7b50c4e9488e77eca,22,Kobieta,2022-05-28_09h27.42.828,task,2021.1.4,MacIntel,60.0024001,628b806c463b948bc644b84f,6291ceddeb734f021991874a,,,,,,,,,,,,,,,,,,,,,,,,,,,,,,,,,,,,,,,,,,,,,,,,,,,,,,,,,,,,,,,,,,,,,,,,,,,,,,,,,,,,,,,,,,,,,,,,,,,,,,,
,,"[""period""]",0,[0.3336999999284558],106,0,106,0,1,610063b7b50c4e9488e77eca,22,Kobieta,2022-05-28_09h27.42.828,task,2021.1.4,MacIntel,60.0024001,628b806c463b948bc644b84f,6291ceddeb734f021991874a,,,,,,,,,,,,,,,,,,,,,,,,,,,,,,,,,,,,,,,,,,,,,,,,,,,,,,,,,,,,,,,,,,,,,,,,,,,,,,,,,,,,,,,,,,,,,,,,,,,,,,,
,,"[""period""]",0,[0.333500000000015],107,0,107,0,1,610063b7b50c4e9488e77eca,22,Kobieta,2022-05-28_09h27.42.828,task,2021.1.4,MacIntel,60.0024001,628b806c463b948bc644b84f,6291ceddeb734f021991874a,,,,,,,,,,,,,,,,,,,,,,,,,,,,,,,,,,,,,,,,,,,,,,,,,,,,,,,,,,,,,,,,,,,,,,,,,,,,,,,,,,,,,,,,,,,,,,,,,,,,,,,
,,"[""period""]",0,[0.3003999999761504],108,0,108,0,1,610063b7b50c4e9488e77eca,22,Kobieta,2022-05-28_09h27.42.828,task,2021.1.4,MacIntel,60.0024001,628b806c463b948bc644b84f,6291ceddeb734f021991874a,,,,,,,,,,,,,,,,,,,,,,,,,,,,,,,,,,,,,,,,,,,,,,,,,,,,,,,,,,,,,,,,,,,,,,,,,,,,,,,,,,,,,,,,,,,,,,,,,,,,,,,
,,"[""comma""]",0,[0.29980000007151375],109,0,109,0,1,610063b7b50c4e9488e77eca,22,Kobieta,2022-05-28_09h27.42.828,task,2021.1.4,MacIntel,60.0024001,628b806c463b948bc644b84f,6291ceddeb734f021991874a,,,,,,,,,,,,,,,,,,,,,,,,,,,,,,,,,,,,,,,,,,,,,,,,,,,,,,,,,,,,,,,,,,,,,,,,,,,,,,,,,,,,,,,,,,,,,,,,,,,,,,,
,,"[""comma""]",0,[0.24890000009537516],110,0,110,0,1,610063b7b50c4e9488e77eca,22,Kobieta,2022-05-28_09h27.42.828,task,2021.1.4,MacIntel,60.0024001,628b806c463b948bc644b84f,6291ceddeb734f021991874a,,,,,,,,,,,,,,,,,,,,,,,,,,,,,,,,,,,,,,,,,,,,,,,,,,,,,,,,,,,,,,,,,,,,,,,,,,,,,,,,,,,,,,,,,,,,,,,,,,,,,,,
,,"[""comma""]",0,[0.2183000000715083],111,0,111,0,1,610063b7b50c4e9488e77eca,22,Kobieta,2022-05-28_09h27.42.828,task,2021.1.4,MacIntel,60.0024001,628b806c463b948bc644b84f,6291ceddeb734f021991874a,,,,,,,,,,,,,,,,,,,,,,,,,,,,,,,,,,,,,,,,,,,,,,,,,,,,,,,,,,,,,,,,,,,,,,,,,,,,,,,,,,,,,,,,,,,,,,,,,,,,,,,
,,"[""period""]",0,[0.2659999999999627],112,0,112,0,1,610063b7b50c4e9488e77eca,22,Kobieta,2022-05-28_09h27.42.828,task,2021.1.4,MacIntel,60.0024001,628b806c463b948bc644b84f,6291ceddeb734f021991874a,,,,,,,,,,,,,,,,,,,,,,,,,,,,,,,,,,,,,,,,,,,,,,,,,,,,,,,,,,,,,,,,,,,,,,,,,,,,,,,,,,,,,,,,,,,,,,,,,,,,,,,
,,"[""comma""]",0,[0.3003000000715019],113,0,113,0,1,610063b7b50c4e9488e77eca,22,Kobieta,2022-05-28_09h27.42.828,task,2021.1.4,MacIntel,60.0024001,628b806c463b948bc644b84f,6291ceddeb734f021991874a,,,,,,,,,,,,,,,,,,,,,,,,,,,,,,,,,,,,,,,,,,,,,,,,,,,,,,,,,,,,,,,,,,,,,,,,,,,,,,,,,,,,,,,,,,,,,,,,,,,,,,,
,,"[""period""]",0,[0.2838999999761427],114,0,114,0,1,610063b7b50c4e9488e77eca,22,Kobieta,2022-05-28_09h27.42.828,task,2021.1.4,MacIntel,60.0024001,628b806c463b948bc644b84f,6291ceddeb734f021991874a,,,,,,,,,,,,,,,,,,,,,,,,,,,,,,,,,,,,,,,,,,,,,,,,,,,,,,,,,,,,,,,,,,,,,,,,,,,,,,,,,,,,,,,,,,,,,,,,,,,,,,,
,,"[""comma""]",0,[0.3002999999523581],115,0,115,0,1,610063b7b50c4e9488e77eca,22,Kobieta,2022-05-28_09h27.42.828,task,2021.1.4,MacIntel,60.0024001,628b806c463b948bc644b84f,6291ceddeb734f021991874a,,,,,,,,,,,,,,,,,,,,,,,,,,,,,,,,,,,,,,,,,,,,,,,,,,,,,,,,,,,,,,,,,,,,,,,,,,,,,,,,,,,,,,,,,,,,,,,,,,,,,,,
,,"[""comma""]",0,[0.26680000007155513],116,0,116,0,1,610063b7b50c4e9488e77eca,22,Kobieta,2022-05-28_09h27.42.828,task,2021.1.4,MacIntel,60.0024001,628b806c463b948bc644b84f,6291ceddeb734f021991874a,,,,,,,,,,,,,,,,,,,,,,,,,,,,,,,,,,,,,,,,,,,,,,,,,,,,,,,,,,,,,,,,,,,,,,,,,,,,,,,,,,,,,,,,,,,,,,,,,,,,,,,
,,"[""comma""]",0,[0.2933999999761454],117,0,117,0,1,610063b7b50c4e9488e77eca,22,Kobieta,2022-05-28_09h27.42.828,task,2021.1.4,MacIntel,60.0024001,628b806c463b948bc644b84f,6291ceddeb734f021991874a,,,,,,,,,,,,,,,,,,,,,,,,,,,,,,,,,,,,,,,,,,,,,,,,,,,,,,,,,,,,,,,,,,,,,,,,,,,,,,,,,,,,,,,,,,,,,,,,,,,,,,,
,,"[""comma""]",0,[0.3267999999522999],118,0,118,0,1,610063b7b50c4e9488e77eca,22,Kobieta,2022-05-28_09h27.42.828,task,2021.1.4,MacIntel,60.0024001,628b806c463b948bc644b84f,6291ceddeb734f021991874a,,,,,,,,,,,,,,,,,,,,,,,,,,,,,,,,,,,,,,,,,,,,,,,,,,,,,,,,,,,,,,,,,,,,,,,,,,,,,,,,,,,,,,,,,,,,,,,,,,,,,,,
,,"[""period""]",0,[0.2330000000000041],119,0,119,0,1,610063b7b50c4e9488e77eca,22,Kobieta,2022-05-28_09h27.42.828,task,2021.1.4,MacIntel,60.0024001,628b806c463b948bc644b84f,6291ceddeb734f021991874a,,,,,,,,,,,,,,,,,,,,,,,,,,,,,,,,,,,,,,,,,,,,,,,,,,,,,,,,,,,,,,,,,,,,,,,,,,,,,,,,,,,,,,,,,,,,,,,,,,,,,,,
,,,,,,,,,,610063b7b50c4e9488e77eca,22,Kobieta,2022-05-28_09h27.42.828,task,2021.1.4,MacIntel,60.0024001,628b806c463b948bc644b84f,6291ceddeb734f021991874a,space,14.8724,space,7.0195,0,0,0,0,1,"X V Q F H G B L J M P D K C T S W R N Z
",,,,,,,,,,,,,,,,,,,,,,,,,,,,,,,,,,,,,,,,,,,,,,,,,,,,,,,,,,,,,,,,,,,,,,,,,,,,,,,,,,,,,,,,,,,,,
,,,,,,,,,,610063b7b50c4e9488e77eca,22,Kobieta,2022-05-28_09h27.42.828,task,2021.1.4,MacIntel,60.0024001,628b806c463b948bc644b84f,6291ceddeb734f021991874a,,,,,1,0,1,0,1,"X V Q F H G B L J M P D K C T S W R N Z
",,,,,,,,,,,,,,,,,,,,,,,,,,,,,,,,,,,,,,,,,,,,,,,,,,,,,,,,,,,,,,,,,,,,,,,,,,,,,,,,,,,,,,,,,,,,,
,,,,,,,,,,610063b7b50c4e9488e77eca,22,Kobieta,2022-05-28_09h27.42.828,task,2021.1.4,MacIntel,60.0024001,628b806c463b948bc644b84f,6291ceddeb734f021991874a,,,,,,,,,,,zv,"[""z"",""v""]","[3.33270000004768,3.7659999999999627,5.565200000047639]",1,ZV,0,0,0,0,1,,,,,,,,,,,,,,,,,,,,,,,,,,,,,,,,,,,,,,,,,,,,,,,,,,,,,,,,,,,,,,,,,,,,,,,,,,,,,,,,,,,
,,,,,,,,,,610063b7b50c4e9488e77eca,22,Kobieta,2022-05-28_09h27.42.828,task,2021.1.4,MacIntel,60.0024001,628b806c463b948bc644b84f,6291ceddeb734f021991874a,,,,,0,0,0,0,1,"X V Q F H G B L J M P D K C T S W R N Z
",,,,,,,,,,,,,,,,,,,,,,,,,,,,,,,,,,,,,,,,,,,,,,,,,,,,,,,,,,,,,,,,,,,,,,,,,,,,,,,,,,,,,,,,,,,,,
,,,,,,,,,,610063b7b50c4e9488e77eca,22,Kobieta,2022-05-28_09h27.42.828,task,2021.1.4,MacIntel,60.0024001,628b806c463b948bc644b84f,6291ceddeb734f021991874a,,,,,1,0,1,0,1,"X V Q F H G B L J M P D K C T S W R N Z
",,,,,,,,,,,,,,,,,,,,,,,,,,,,,,,,,,,,,,,,,,,,,,,,,,,,,,,,,,,,,,,,,,,,,,,,,,,,,,,,,,,,,,,,,,,,,
,,,,,,,,,,610063b7b50c4e9488e77eca,22,Kobieta,2022-05-28_09h27.42.828,task,2021.1.4,MacIntel,60.0024001,628b806c463b948bc644b84f,6291ceddeb734f021991874a,,,,,,,,,,,rq,"[""r"",""q""]","[2.06610000002388,2.5827999999523286,3.014899999976194]",1,RQ,1,0,1,0,1,,,,,,,,,,,,,,,,,,,,,,,,,,,,,,,,,,,,,,,,,,,,,,,,,,,,,,,,,,,,,,,,,,,,,,,,,,,,,,,,,,,
,,,,,,,,,,610063b7b50c4e9488e77eca,22,Kobieta,2022-05-28_09h27.42.828,task,2021.1.4,MacIntel,60.0024001,628b806c463b948bc644b84f,6291ceddeb734f021991874a,,,,,0,0,0,0,1,"X V Q F H G B L J M P D K C T S W R N Z
",,,,,,,,,,,,,,,,,,,,,,,,,,,,,,,,,,,,,,,,,,,,,,,,,,,,,,,,,,,,,,,,,,,,,,,,,,,,,,,,,,,,,,,,,,,,,
,,,,,,,,,,610063b7b50c4e9488e77eca,22,Kobieta,2022-05-28_09h27.42.828,task,2021.1.4,MacIntel,60.0024001,628b806c463b948bc644b84f,6291ceddeb734f021991874a,,,,,1,0,1,0,1,"X V Q F H G B L J M P D K C T S W R N Z
",,,,,,,,,,,,,,,,,,,,,,,,,,,,,,,,,,,,,,,,,,,,,,,,,,,,,,,,,,,,,,,,,,,,,,,,,,,,,,,,,,,,,,,,,,,,,
,,,,,,,,,,610063b7b50c4e9488e77eca,22,Kobieta,2022-05-28_09h27.42.828,task,2021.1.4,MacIntel,60.0024001,628b806c463b948bc644b84f,6291ceddeb734f021991874a,,,,,2,0,2,0,1,"X V Q F H G B L J M P D K C T S W R N Z
",,,,,,,,,,,,,,,,,,,,,,,,,,,,,,,,,,,,,,,,,,,,,,,,,,,,,,,,,,,,,,,,,,,,,,,,,,,,,,,,,,,,,,,,,,,,,
,,,,,,,,,,610063b7b50c4e9488e77eca,22,Kobieta,2022-05-28_09h27.42.828,task,2021.1.4,MacIntel,60.0024001,628b806c463b948bc644b84f,6291ceddeb734f021991874a,,,,,,,,,,,mkg,"[""m"",""k"",""g""]","[0.8857999999523258,1.1668999999761809,1.449699999928498,1.7812999999523527]",1,MKG,2,0,2,0,1,,,,,,,,,,,,,,,,,,,,,,,,,,,,,,,,,,,,,,,,,,,,,,,,,,,,,,,,,,,,,,,,,,,,,,,,,,,,,,,,,,,
,,,,,,,,,,610063b7b50c4e9488e77eca,22,Kobieta,2022-05-28_09h27.42.828,task,2021.1.4,MacIntel,60.0024001,628b806c463b948bc644b84f,6291ceddeb734f021991874a,,,,,0,0,0,0,1,"X V Q F H G B L J M P D K C T S W R N Z
",,,,,,,,,,,,,,,,,,,,,,,,,,,,,,,,,,,,,,,,,,,,,,,,,,,,,,,,,,,,,,,,,,,,,,,,,,,,,,,,,,,,,,,,,,,,,
,,,,,,,,,,610063b7b50c4e9488e77eca,22,Kobieta,2022-05-28_09h27.42.828,task,2021.1.4,MacIntel,60.0024001,628b806c463b948bc644b84f,6291ceddeb734f021991874a,,,,,1,0,1,0,1,"X V Q F H G B L J M P D K C T S W R N Z
",,,,,,,,,,,,,,,,,,,,,,,,,,,,,,,,,,,,,,,,,,,,,,,,,,,,,,,,,,,,,,,,,,,,,,,,,,,,,,,,,,,,,,,,,,,,,
,,,,,,,,,,610063b7b50c4e9488e77eca,22,Kobieta,2022-05-28_09h27.42.828,task,2021.1.4,MacIntel,60.0024001,628b806c463b948bc644b84f,6291ceddeb734f021991874a,,,,,2,0,2,0,1,"X V Q F H G B L J M P D K C T S W R N Z
",,,,,,,,,,,,,,,,,,,,,,,,,,,,,,,,,,,,,,,,,,,,,,,,,,,,,,,,,,,,,,,,,,,,,,,,,,,,,,,,,,,,,,,,,,,,,
,,,,,,,,,,610063b7b50c4e9488e77eca,22,Kobieta,2022-05-28_09h27.42.828,task,2021.1.4,MacIntel,60.0024001,628b806c463b948bc644b84f,6291ceddeb734f021991874a,,,,,,,,,,,wdj,"[""w"",""d"",""j""]","[1.2282999999522985,1.5013999999761722,2.478999999999985,2.8668999999761695]",1,WDJ,3,0,3,0,1,,,,,,,,,,,,,,,,,,,,,,,,,,,,,,,,,,,,,,,,,,,,,,,,,,,,,,,,,,,,,,,,,,,,,,,,,,,,,,,,,,,
,,,,,,,,,,610063b7b50c4e9488e77eca,22,Kobieta,2022-05-28_09h27.42.828,task,2021.1.4,MacIntel,60.0024001,628b806c463b948bc644b84f,6291ceddeb734f021991874a,,,,,0,0,0,0,1,"X V Q F H G B L J M P D K C T S W R N Z
",,,,,,,,,,,,,,,,,,,,,,,,,,,,,,,,,,,,,,,,,,,,,,,,,,,,,,,,,,,,,,,,,,,,,,,,,,,,,,,,,,,,,,,,,,,,,
,,,,,,,,,,610063b7b50c4e9488e77eca,22,Kobieta,2022-05-28_09h27.42.828,task,2021.1.4,MacIntel,60.0024001,628b806c463b948bc644b84f,6291ceddeb734f021991874a,,,,,1,0,1,0,1,"X V Q F H G B L J M P D K C T S W R N Z
",,,,,,,,,,,,,,,,,,,,,,,,,,,,,,,,,,,,,,,,,,,,,,,,,,,,,,,,,,,,,,,,,,,,,,,,,,,,,,,,,,,,,,,,,,,,,
,,,,,,,,,,610063b7b50c4e9488e77eca,22,Kobieta,2022-05-28_09h27.42.828,task,2021.1.4,MacIntel,60.0024001,628b806c463b948bc644b84f,6291ceddeb734f021991874a,,,,,2,0,2,0,1,"X V Q F H G B L J M P D K C T S W R N Z
",,,,,,,,,,,,,,,,,,,,,,,,,,,,,,,,,,,,,,,,,,,,,,,,,,,,,,,,,,,,,,,,,,,,,,,,,,,,,,,,,,,,,,,,,,,,,
,,,,,,,,,,610063b7b50c4e9488e77eca,22,Kobieta,2022-05-28_09h27.42.828,task,2021.1.4,MacIntel,60.0024001,628b806c463b948bc644b84f,6291ceddeb734f021991874a,,,,,3,0,3,0,1,"X V Q F H G B L J M P D K C T S W R N Z
",,,,,,,,,,,,,,,,,,,,,,,,,,,,,,,,,,,,,,,,,,,,,,,,,,,,,,,,,,,,,,,,,,,,,,,,,,,,,,,,,,,,,,,,,,,,,
,,,,,,,,,,610063b7b50c4e9488e77eca,22,Kobieta,2022-05-28_09h27.42.828,task,2021.1.4,MacIntel,60.0024001,628b806c463b948bc644b84f,6291ceddeb734f021991874a,,,,,,,,,,,gqjz,"[""g"",""q"",""j"",""z""]","[0.48380000007153967,0.9659000000953597,1.5331000000238078,2.0008000000715356,2.665300000071511]",0,"GQJZ
",4,0,4,0,1,,,,,,,,,,,,,,,,,,,,,,,,,,,,,,,,,,,,,,,,,,,,,,,,,,,,,,,,,,,,,,,,,,,,,,,,,,,,,,,,,,,
,,,,,,,,,,610063b7b50c4e9488e77eca,22,Kobieta,2022-05-28_09h27.42.828,task,2021.1.4,MacIntel,60.0024001,628b806c463b948bc644b84f,6291ceddeb734f021991874a,,,,,0,0,0,0,1,"X V Q F H G B L J M P D K C T S W R N Z
",,,,,,,,,,,,,,,,,,,,,,,,,,,,,,,,,,,,,,,,,,,,,,,,,,,,,,,,,,,,,,,,,,,,,,,,,,,,,,,,,,,,,,,,,,,,,
,,,,,,,,,,610063b7b50c4e9488e77eca,22,Kobieta,2022-05-28_09h27.42.828,task,2021.1.4,MacIntel,60.0024001,628b806c463b948bc644b84f,6291ceddeb734f021991874a,,,,,1,0,1,0,1,"X V Q F H G B L J M P D K C T S W R N Z
",,,,,,,,,,,,,,,,,,,,,,,,,,,,,,,,,,,,,,,,,,,,,,,,,,,,,,,,,,,,,,,,,,,,,,,,,,,,,,,,,,,,,,,,,,,,,
,,,,,,,,,,610063b7b50c4e9488e77eca,22,Kobieta,2022-05-28_09h27.42.828,task,2021.1.4,MacIntel,60.0024001,628b806c463b948bc644b84f,6291ceddeb734f021991874a,,,,,2,0,2,0,1,"X V Q F H G B L J M P D K C T S W R N Z
",,,,,,,,,,,,,,,,,,,,,,,,,,,,,,,,,,,,,,,,,,,,,,,,,,,,,,,,,,,,,,,,,,,,,,,,,,,,,,,,,,,,,,,,,,,,,
,,,,,,,,,,610063b7b50c4e9488e77eca,22,Kobieta,2022-05-28_09h27.42.828,task,2021.1.4,MacIntel,60.0024001,628b806c463b948bc644b84f,6291ceddeb734f021991874a,,,,,3,0,3,0,1,"X V Q F H G B L J M P D K C T S W R N Z
",,,,,,,,,,,,,,,,,,,,,,,,,,,,,,,,,,,,,,,,,,,,,,,,,,,,,,,,,,,,,,,,,,,,,,,,,,,,,,,,,,,,,,,,,,,,,
,,,,,,,,,,610063b7b50c4e9488e77eca,22,Kobieta,2022-05-28_09h27.42.828,task,2021.1.4,MacIntel,60.0024001,628b806c463b948bc644b84f,6291ceddeb734f021991874a,,,,,,,,,,,mbkx,"[""m"",""b"",""k"",""x""]","[0.5508000000714901,0.9003999999761731,1.627200000047651,2.034600000023829,2.3836000000238187]",1,MBKX,5,0,5,0,1,,,,,,,,,,,,,,,,,,,,,,,,,,,,,,,,,,,,,,,,,,,,,,,,,,,,,,,,,,,,,,,,,,,,,,,,,,,,,,,,,,,
,,,,,,,,,,610063b7b50c4e9488e77eca,22,Kobieta,2022-05-28_09h27.42.828,task,2021.1.4,MacIntel,60.0024001,628b806c463b948bc644b84f,6291ceddeb734f021991874a,,,,,0,0,0,0,1,"X V Q F H G B L J M P D K C T S W R N Z
",,,,,,,,,,,,,,,,,,,,,,,,,,,,,,,,,,,,,,,,,,,,,,,,,,,,,,,,,,,,,,,,,,,,,,,,,,,,,,,,,,,,,,,,,,,,,
,,,,,,,,,,610063b7b50c4e9488e77eca,22,Kobieta,2022-05-28_09h27.42.828,task,2021.1.4,MacIntel,60.0024001,628b806c463b948bc644b84f,6291ceddeb734f021991874a,,,,,1,0,1,0,1,"X V Q F H G B L J M P D K C T S W R N Z
",,,,,,,,,,,,,,,,,,,,,,,,,,,,,,,,,,,,,,,,,,,,,,,,,,,,,,,,,,,,,,,,,,,,,,,,,,,,,,,,,,,,,,,,,,,,,
,,,,,,,,,,610063b7b50c4e9488e77eca,22,Kobieta,2022-05-28_09h27.42.828,task,2021.1.4,MacIntel,60.0024001,628b806c463b948bc644b84f,6291ceddeb734f021991874a,,,,,2,0,2,0,1,"X V Q F H G B L J M P D K C T S W R N Z
",,,,,,,,,,,,,,,,,,,,,,,,,,,,,,,,,,,,,,,,,,,,,,,,,,,,,,,,,,,,,,,,,,,,,,,,,,,,,,,,,,,,,,,,,,,,,
,,,,,,,,,,610063b7b50c4e9488e77eca,22,Kobieta,2022-05-28_09h27.42.828,task,2021.1.4,MacIntel,60.0024001,628b806c463b948bc644b84f,6291ceddeb734f021991874a,,,,,3,0,3,0,1,"X V Q F H G B L J M P D K C T S W R N Z
",,,,,,,,,,,,,,,,,,,,,,,,,,,,,,,,,,,,,,,,,,,,,,,,,,,,,,,,,,,,,,,,,,,,,,,,,,,,,,,,,,,,,,,,,,,,,
,,,,,,,,,,610063b7b50c4e9488e77eca,22,Kobieta,2022-05-28_09h27.42.828,task,2021.1.4,MacIntel,60.0024001,628b806c463b948bc644b84f,6291ceddeb734f021991874a,,,,,,,,,,,bhwb,"[""b"",""h"",""w"",""b""]","[1.0673000000714978,1.3999999999999773,2.068499999999972,2.2831000000238078,2.7996000000238155]",1,BHWB,6,0,6,0,1,,,,,,,,,,,,,,,,,,,,,,,,,,,,,,,,,,,,,,,,,,,,,,,,,,,,,,,,,,,,,,,,,,,,,,,,,,,,,,,,,,,
,,,,,,,,,,610063b7b50c4e9488e77eca,22,Kobieta,2022-05-28_09h27.42.828,task,2021.1.4,MacIntel,60.0024001,628b806c463b948bc644b84f,6291ceddeb734f021991874a,,,,,0,0,0,0,1,"X V Q F H G B L J M P D K C T S W R N Z
",,,,,,,,,,,,,,,,,,,,,,,,,,,,,,,,,,,,,,,,,,,,,,,,,,,,,,,,,,,,,,,,,,,,,,,,,,,,,,,,,,,,,,,,,,,,,
,,,,,,,,,,610063b7b50c4e9488e77eca,22,Kobieta,2022-05-28_09h27.42.828,task,2021.1.4,MacIntel,60.0024001,628b806c463b948bc644b84f,6291ceddeb734f021991874a,,,,,1,0,1,0,1,"X V Q F H G B L J M P D K C T S W R N Z
",,,,,,,,,,,,,,,,,,,,,,,,,,,,,,,,,,,,,,,,,,,,,,,,,,,,,,,,,,,,,,,,,,,,,,,,,,,,,,,,,,,,,,,,,,,,,
,,,,,,,,,,610063b7b50c4e9488e77eca,22,Kobieta,2022-05-28_09h27.42.828,task,2021.1.4,MacIntel,60.0024001,628b806c463b948bc644b84f,6291ceddeb734f021991874a,,,,,2,0,2,0,1,"X V Q F H G B L J M P D K C T S W R N Z
",,,,,,,,,,,,,,,,,,,,,,,,,,,,,,,,,,,,,,,,,,,,,,,,,,,,,,,,,,,,,,,,,,,,,,,,,,,,,,,,,,,,,,,,,,,,,
,,,,,,,,,,610063b7b50c4e9488e77eca,22,Kobieta,2022-05-28_09h27.42.828,task,2021.1.4,MacIntel,60.0024001,628b806c463b948bc644b84f,6291ceddeb734f021991874a,,,,,3,0,3,0,1,"X V Q F H G B L J M P D K C T S W R N Z
",,,,,,,,,,,,,,,,,,,,,,,,,,,,,,,,,,,,,,,,,,,,,,,,,,,,,,,,,,,,,,,,,,,,,,,,,,,,,,,,,,,,,,,,,,,,,
,,,,,,,,,,610063b7b50c4e9488e77eca,22,Kobieta,2022-05-28_09h27.42.828,task,2021.1.4,MacIntel,60.0024001,628b806c463b948bc644b84f,6291ceddeb734f021991874a,,,,,4,0,4,0,1,"X V Q F H G B L J M P D K C T S W R N Z
",,,,,,,,,,,,,,,,,,,,,,,,,,,,,,,,,,,,,,,,,,,,,,,,,,,,,,,,,,,,,,,,,,,,,,,,,,,,,,,,,,,,,,,,,,,,,
,,,,,,,,,,610063b7b50c4e9488e77eca,22,Kobieta,2022-05-28_09h27.42.828,task,2021.1.4,MacIntel,60.0024001,628b806c463b948bc644b84f,6291ceddeb734f021991874a,,,,,,,,,,,lkxnk,"[""l"",""k"",""x"",""n"",""k""]","[0.912600000023815,1.2532999999522758,2.0787999999523095,2.5454999999999472,2.8607999999522917,3.462299999952279]",0,LKXKN,7,0,7,0,1,,,,,,,,,,,,,,,,,,,,,,,,,,,,,,,,,,,,,,,,,,,,,,,,,,,,,,,,,,,,,,,,,,,,,,,,,,,,,,,,,,,
,,,,,,,,,,610063b7b50c4e9488e77eca,22,Kobieta,2022-05-28_09h27.42.828,task,2021.1.4,MacIntel,60.0024001,628b806c463b948bc644b84f,6291ceddeb734f021991874a,,,,,0,0,0,0,1,"X V Q F H G B L J M P D K C T S W R N Z
",,,,,,,,,,,,,,,,,,,,,,,,,,,,,,,,,,,,,,,,,,,,,,,,,,,,,,,,,,,,,,,,,,,,,,,,,,,,,,,,,,,,,,,,,,,,,
,,,,,,,,,,610063b7b50c4e9488e77eca,22,Kobieta,2022-05-28_09h27.42.828,task,2021.1.4,MacIntel,60.0024001,628b806c463b948bc644b84f,6291ceddeb734f021991874a,,,,,1,0,1,0,1,"X V Q F H G B L J M P D K C T S W R N Z
",,,,,,,,,,,,,,,,,,,,,,,,,,,,,,,,,,,,,,,,,,,,,,,,,,,,,,,,,,,,,,,,,,,,,,,,,,,,,,,,,,,,,,,,,,,,,
,,,,,,,,,,610063b7b50c4e9488e77eca,22,Kobieta,2022-05-28_09h27.42.828,task,2021.1.4,MacIntel,60.0024001,628b806c463b948bc644b84f,6291ceddeb734f021991874a,,,,,2,0,2,0,1,"X V Q F H G B L J M P D K C T S W R N Z
",,,,,,,,,,,,,,,,,,,,,,,,,,,,,,,,,,,,,,,,,,,,,,,,,,,,,,,,,,,,,,,,,,,,,,,,,,,,,,,,,,,,,,,,,,,,,
,,,,,,,,,,610063b7b50c4e9488e77eca,22,Kobieta,2022-05-28_09h27.42.828,task,2021.1.4,MacIntel,60.0024001,628b806c463b948bc644b84f,6291ceddeb734f021991874a,,,,,3,0,3,0,1,"X V Q F H G B L J M P D K C T S W R N Z
",,,,,,,,,,,,,,,,,,,,,,,,,,,,,,,,,,,,,,,,,,,,,,,,,,,,,,,,,,,,,,,,,,,,,,,,,,,,,,,,,,,,,,,,,,,,,
,,,,,,,,,,610063b7b50c4e9488e77eca,22,Kobieta,2022-05-28_09h27.42.828,task,2021.1.4,MacIntel,60.0024001,628b806c463b948bc644b84f,6291ceddeb734f021991874a,,,,,4,0,4,0,1,"X V Q F H G B L J M P D K C T S W R N Z
",,,,,,,,,,,,,,,,,,,,,,,,,,,,,,,,,,,,,,,,,,,,,,,,,,,,,,,,,,,,,,,,,,,,,,,,,,,,,,,,,,,,,,,,,,,,,
,,,,,,,,,,610063b7b50c4e9488e77eca,22,Kobieta,2022-05-28_09h27.42.828,task,2021.1.4,MacIntel,60.0024001,628b806c463b948bc644b84f,6291ceddeb734f021991874a,,,,,,,,,,,pbppr,"[""p"",""b"",""p"",""p"",""r""]","[0.7172000000477396,1.03420000004769,1.3480000000000132,1.6663999999761927,2.032299999952329,2.4992999999523704]",1,PBPPR,8,0,8,0,1,,,,,,,,,,,,,,,,,,,,,,,,,,,,,,,,,,,,,,,,,,,,,,,,,,,,,,,,,,,,,,,,,,,,,,,,,,,,,,,,,,,
,,,,,,,,,,610063b7b50c4e9488e77eca,22,Kobieta,2022-05-28_09h27.42.828,task,2021.1.4,MacIntel,60.0024001,628b806c463b948bc644b84f,6291ceddeb734f021991874a,,,,,0,0,0,0,1,"X V Q F H G B L J M P D K C T S W R N Z
",,,,,,,,,,,,,,,,,,,,,,,,,,,,,,,,,,,,,,,,,,,,,,,,,,,,,,,,,,,,,,,,,,,,,,,,,,,,,,,,,,,,,,,,,,,,,
,,,,,,,,,,610063b7b50c4e9488e77eca,22,Kobieta,2022-05-28_09h27.42.828,task,2021.1.4,MacIntel,60.0024001,628b806c463b948bc644b84f,6291ceddeb734f021991874a,,,,,1,0,1,0,1,"X V Q F H G B L J M P D K C T S W R N Z
",,,,,,,,,,,,,,,,,,,,,,,,,,,,,,,,,,,,,,,,,,,,,,,,,,,,,,,,,,,,,,,,,,,,,,,,,,,,,,,,,,,,,,,,,,,,,
,,,,,,,,,,610063b7b50c4e9488e77eca,22,Kobieta,2022-05-28_09h27.42.828,task,2021.1.4,MacIntel,60.0024001,628b806c463b948bc644b84f,6291ceddeb734f021991874a,,,,,2,0,2,0,1,"X V Q F H G B L J M P D K C T S W R N Z
",,,,,,,,,,,,,,,,,,,,,,,,,,,,,,,,,,,,,,,,,,,,,,,,,,,,,,,,,,,,,,,,,,,,,,,,,,,,,,,,,,,,,,,,,,,,,
,,,,,,,,,,610063b7b50c4e9488e77eca,22,Kobieta,2022-05-28_09h27.42.828,task,2021.1.4,MacIntel,60.0024001,628b806c463b948bc644b84f,6291ceddeb734f021991874a,,,,,3,0,3,0,1,"X V Q F H G B L J M P D K C T S W R N Z
",,,,,,,,,,,,,,,,,,,,,,,,,,,,,,,,,,,,,,,,,,,,,,,,,,,,,,,,,,,,,,,,,,,,,,,,,,,,,,,,,,,,,,,,,,,,,
,,,,,,,,,,610063b7b50c4e9488e77eca,22,Kobieta,2022-05-28_09h27.42.828,task,2021.1.4,MacIntel,60.0024001,628b806c463b948bc644b84f,6291ceddeb734f021991874a,,,,,4,0,4,0,1,"X V Q F H G B L J M P D K C T S W R N Z
",,,,,,,,,,,,,,,,,,,,,,,,,,,,,,,,,,,,,,,,,,,,,,,,,,,,,,,,,,,,,,,,,,,,,,,,,,,,,,,,,,,,,,,,,,,,,
,,,,,,,,,,610063b7b50c4e9488e77eca,22,Kobieta,2022-05-28_09h27.42.828,task,2021.1.4,MacIntel,60.0024001,628b806c463b948bc644b84f,6291ceddeb734f021991874a,,,,,,,,,,,ksrps,"[""k"",""s"",""r"",""p"",""s""]","[0.8683999999761909,1.2488999999761745,1.649000000000001,2.032299999952329,2.2987000000476883,2.6657999999523554]",1,KSRPS,9,0,9,0,1,,,,,,,,,,,,,,,,,,,,,,,,,,,,,,,,,,,,,,,,,,,,,,,,,,,,,,,,,,,,,,,,,,,,,,,,,,,,,,,,,,,
,,,,,,,,,,610063b7b50c4e9488e77eca,22,Kobieta,2022-05-28_09h27.42.828,task,2021.1.4,MacIntel,60.0024001,628b806c463b948bc644b84f,6291ceddeb734f021991874a,,,,,0,0,0,0,1,"X V Q F H G B L J M P D K C T S W R N Z
",,,,,,,,,,,,,,,,,,,,,,,,,,,,,,,,,,,,,,,,,,,,,,,,,,,,,,,,,,,,,,,,,,,,,,,,,,,,,,,,,,,,,,,,,,,,,
,,,,,,,,,,610063b7b50c4e9488e77eca,22,Kobieta,2022-05-28_09h27.42.828,task,2021.1.4,MacIntel,60.0024001,628b806c463b948bc644b84f,6291ceddeb734f021991874a,,,,,1,0,1,0,1,"X V Q F H G B L J M P D K C T S W R N Z
",,,,,,,,,,,,,,,,,,,,,,,,,,,,,,,,,,,,,,,,,,,,,,,,,,,,,,,,,,,,,,,,,,,,,,,,,,,,,,,,,,,,,,,,,,,,,
,,,,,,,,,,610063b7b50c4e9488e77eca,22,Kobieta,2022-05-28_09h27.42.828,task,2021.1.4,MacIntel,60.0024001,628b806c463b948bc644b84f,6291ceddeb734f021991874a,,,,,2,0,2,0,1,"X V Q F H G B L J M P D K C T S W R N Z
",,,,,,,,,,,,,,,,,,,,,,,,,,,,,,,,,,,,,,,,,,,,,,,,,,,,,,,,,,,,,,,,,,,,,,,,,,,,,,,,,,,,,,,,,,,,,
,,,,,,,,,,610063b7b50c4e9488e77eca,22,Kobieta,2022-05-28_09h27.42.828,task,2021.1.4,MacIntel,60.0024001,628b806c463b948bc644b84f,6291ceddeb734f021991874a,,,,,3,0,3,0,1,"X V Q F H G B L J M P D K C T S W R N Z
",,,,,,,,,,,,,,,,,,,,,,,,,,,,,,,,,,,,,,,,,,,,,,,,,,,,,,,,,,,,,,,,,,,,,,,,,,,,,,,,,,,,,,,,,,,,,
,,,,,,,,,,610063b7b50c4e9488e77eca,22,Kobieta,2022-05-28_09h27.42.828,task,2021.1.4,MacIntel,60.0024001,628b806c463b948bc644b84f,6291ceddeb734f021991874a,,,,,4,0,4,0,1,"X V Q F H G B L J M P D K C T S W R N Z
",,,,,,,,,,,,,,,,,,,,,,,,,,,,,,,,,,,,,,,,,,,,,,,,,,,,,,,,,,,,,,,,,,,,,,,,,,,,,,,,,,,,,,,,,,,,,
,,,,,,,,,,610063b7b50c4e9488e77eca,22,Kobieta,2022-05-28_09h27.42.828,task,2021.1.4,MacIntel,60.0024001,628b806c463b948bc644b84f,6291ceddeb734f021991874a,,,,,5,0,5,0,1,"X V Q F H G B L J M P D K C T S W R N Z
",,,,,,,,,,,,,,,,,,,,,,,,,,,,,,,,,,,,,,,,,,,,,,,,,,,,,,,,,,,,,,,,,,,,,,,,,,,,,,,,,,,,,,,,,,,,,
,,,,,,,,,,610063b7b50c4e9488e77eca,22,Kobieta,2022-05-28_09h27.42.828,task,2021.1.4,MacIntel,60.0024001,628b806c463b948bc644b84f,6291ceddeb734f021991874a,,,,,,,,,,,mwdns,"[""m"",""w"",""d"",""n"",""s""]","[0.8169000000953588,1.3157000000476842,1.96520000004773,2.283300000071563,2.666200000047695,3.096600000023841]",0,MWNDSN,10,0,10,0,1,,,,,,,,,,,,,,,,,,,,,,,,,,,,,,,,,,,,,,,,,,,,,,,,,,,,,,,,,,,,,,,,,,,,,,,,,,,,,,,,,,,
,,,,,,,,,,610063b7b50c4e9488e77eca,22,Kobieta,2022-05-28_09h27.42.828,task,2021.1.4,MacIntel,60.0024001,628b806c463b948bc644b84f,6291ceddeb734f021991874a,,,,,0,0,0,0,1,"X V Q F H G B L J M P D K C T S W R N Z
",,,,,,,,,,,,,,,,,,,,,,,,,,,,,,,,,,,,,,,,,,,,,,,,,,,,,,,,,,,,,,,,,,,,,,,,,,,,,,,,,,,,,,,,,,,,,
,,,,,,,,,,610063b7b50c4e9488e77eca,22,Kobieta,2022-05-28_09h27.42.828,task,2021.1.4,MacIntel,60.0024001,628b806c463b948bc644b84f,6291ceddeb734f021991874a,,,,,1,0,1,0,1,"X V Q F H G B L J M P D K C T S W R N Z
",,,,,,,,,,,,,,,,,,,,,,,,,,,,,,,,,,,,,,,,,,,,,,,,,,,,,,,,,,,,,,,,,,,,,,,,,,,,,,,,,,,,,,,,,,,,,
,,,,,,,,,,610063b7b50c4e9488e77eca,22,Kobieta,2022-05-28_09h27.42.828,task,2021.1.4,MacIntel,60.0024001,628b806c463b948bc644b84f,6291ceddeb734f021991874a,,,,,2,0,2,0,1,"X V Q F H G B L J M P D K C T S W R N Z
",,,,,,,,,,,,,,,,,,,,,,,,,,,,,,,,,,,,,,,,,,,,,,,,,,,,,,,,,,,,,,,,,,,,,,,,,,,,,,,,,,,,,,,,,,,,,
,,,,,,,,,,610063b7b50c4e9488e77eca,22,Kobieta,2022-05-28_09h27.42.828,task,2021.1.4,MacIntel,60.0024001,628b806c463b948bc644b84f,6291ceddeb734f021991874a,,,,,3,0,3,0,1,"X V Q F H G B L J M P D K C T S W R N Z
",,,,,,,,,,,,,,,,,,,,,,,,,,,,,,,,,,,,,,,,,,,,,,,,,,,,,,,,,,,,,,,,,,,,,,,,,,,,,,,,,,,,,,,,,,,,,
,,,,,,,,,,610063b7b50c4e9488e77eca,22,Kobieta,2022-05-28_09h27.42.828,task,2021.1.4,MacIntel,60.0024001,628b806c463b948bc644b84f,6291ceddeb734f021991874a,,,,,4,0,4,0,1,"X V Q F H G B L J M P D K C T S W R N Z
",,,,,,,,,,,,,,,,,,,,,,,,,,,,,,,,,,,,,,,,,,,,,,,,,,,,,,,,,,,,,,,,,,,,,,,,,,,,,,,,,,,,,,,,,,,,,
,,,,,,,,,,610063b7b50c4e9488e77eca,22,Kobieta,2022-05-28_09h27.42.828,task,2021.1.4,MacIntel,60.0024001,628b806c463b948bc644b84f,6291ceddeb734f021991874a,,,,,5,0,5,0,1,"X V Q F H G B L J M P D K C T S W R N Z
",,,,,,,,,,,,,,,,,,,,,,,,,,,,,,,,,,,,,,,,,,,,,,,,,,,,,,,,,,,,,,,,,,,,,,,,,,,,,,,,,,,,,,,,,,,,,
,,,,,,,,,,610063b7b50c4e9488e77eca,22,Kobieta,2022-05-28_09h27.42.828,task,2021.1.4,MacIntel,60.0024001,628b806c463b948bc644b84f,6291ceddeb734f021991874a,,,,,,,,,,,kphpc,"[""k"",""p"",""h"",""p"",""c""]","[0.7663000000715101,1.0994999999999777,1.5821000000238428,2.309899999976153,3.5488000000715374,4.114200000047674]",0,KPHPHC,11,0,11,0,1,,,,,,,,,,,,,,,,,,,,,,,,,,,,,,,,,,,,,,,,,,,,,,,,,,,,,,,,,,,,,,,,,,,,,,,,,,,,,,,,,,,
,,,,,,,,,,610063b7b50c4e9488e77eca,22,Kobieta,2022-05-28_09h27.42.828,task,2021.1.4,MacIntel,60.0024001,628b806c463b948bc644b84f,6291ceddeb734f021991874a,,,,,0,0,0,0,1,"X V Q F H G B L J M P D K C T S W R N Z
",,,,,,,,,,,,,,,,,,,,,,,,,,,,,,,,,,,,,,,,,,,,,,,,,,,,,,,,,,,,,,,,,,,,,,,,,,,,,,,,,,,,,,,,,,,,,
,,,,,,,,,,610063b7b50c4e9488e77eca,22,Kobieta,2022-05-28_09h27.42.828,task,2021.1.4,MacIntel,60.0024001,628b806c463b948bc644b84f,6291ceddeb734f021991874a,,,,,1,0,1,0,1,"X V Q F H G B L J M P D K C T S W R N Z
",,,,,,,,,,,,,,,,,,,,,,,,,,,,,,,,,,,,,,,,,,,,,,,,,,,,,,,,,,,,,,,,,,,,,,,,,,,,,,,,,,,,,,,,,,,,,
,,,,,,,,,,610063b7b50c4e9488e77eca,22,Kobieta,2022-05-28_09h27.42.828,task,2021.1.4,MacIntel,60.0024001,628b806c463b948bc644b84f,6291ceddeb734f021991874a,,,,,2,0,2,0,1,"X V Q F H G B L J M P D K C T S W R N Z
",,,,,,,,,,,,,,,,,,,,,,,,,,,,,,,,,,,,,,,,,,,,,,,,,,,,,,,,,,,,,,,,,,,,,,,,,,,,,,,,,,,,,,,,,,,,,
,,,,,,,,,,610063b7b50c4e9488e77eca,22,Kobieta,2022-05-28_09h27.42.828,task,2021.1.4,MacIntel,60.0024001,628b806c463b948bc644b84f,6291ceddeb734f021991874a,,,,,3,0,3,0,1,"X V Q F H G B L J M P D K C T S W R N Z
",,,,,,,,,,,,,,,,,,,,,,,,,,,,,,,,,,,,,,,,,,,,,,,,,,,,,,,,,,,,,,,,,,,,,,,,,,,,,,,,,,,,,,,,,,,,,
,,,,,,,,,,610063b7b50c4e9488e77eca,22,Kobieta,2022-05-28_09h27.42.828,task,2021.1.4,MacIntel,60.0024001,628b806c463b948bc644b84f,6291ceddeb734f021991874a,,,,,4,0,4,0,1,"X V Q F H G B L J M P D K C T S W R N Z
",,,,,,,,,,,,,,,,,,,,,,,,,,,,,,,,,,,,,,,,,,,,,,,,,,,,,,,,,,,,,,,,,,,,,,,,,,,,,,,,,,,,,,,,,,,,,
,,,,,,,,,,610063b7b50c4e9488e77eca,22,Kobieta,2022-05-28_09h27.42.828,task,2021.1.4,MacIntel,60.0024001,628b806c463b948bc644b84f,6291ceddeb734f021991874a,,,,,5,0,5,0,1,"X V Q F H G B L J M P D K C T S W R N Z
",,,,,,,,,,,,,,,,,,,,,,,,,,,,,,,,,,,,,,,,,,,,,,,,,,,,,,,,,,,,,,,,,,,,,,,,,,,,,,,,,,,,,,,,,,,,,
,,,,,,,,,,610063b7b50c4e9488e77eca,22,Kobieta,2022-05-28_09h27.42.828,task,2021.1.4,MacIntel,60.0024001,628b806c463b948bc644b84f,6291ceddeb734f021991874a,,,,,,,,,,,tmpmp,"[""t"",""m"",""p"",""m"",""p""]","[0.6162999999522754,0.9493999999761513,2.4162999999522867,3.531100000023798,3.750499999999988,4.932399999976155]",0,TPMPDG,12,0,12,0,1,,,,,,,,,,,,,,,,,,,,,,,,,,,,,,,,,,,,,,,,,,,,,,,,,,,,,,,,,,,,,,,,,,,,,,,,,,,,,,,,,,,
,,,,,,,,,,610063b7b50c4e9488e77eca,22,Kobieta,2022-05-28_09h27.42.828,task,2021.1.4,MacIntel,60.0024001,628b806c463b948bc644b84f,6291ceddeb734f021991874a,,,,,,,,,,,,,,,,,,,,,space,8.452,3,"[""3""]",1,[2.896900000095343],[2.896900000095343],0,0,0,3,1,Practice,4,(8/4) + 1,3,,,,,,,,,,,,,,,,,,,,,,,,,,,,,,,,,,,,,,,,,,,,,,,,,,,,,,,,,,,,,,,,,,,
,,,,,,,,,,610063b7b50c4e9488e77eca,22,Kobieta,2022-05-28_09h27.42.828,task,2021.1.4,MacIntel,60.0024001,628b806c463b948bc644b84f,6291ceddeb734f021991874a,,,,,,,,,,,,,,,,,,,,,,,7,"[""7""]",1,[5.299800000071571],"[2.896900000095343,5.299800000071571]",0,1,1,7,1,Practice,8,(5x5) - 18,7,,,,,,,,,,,,,,,,,,,,,,,,,,,,,,,,,,,,,,,,,,,,,,,,,,,,,,,,,,,,,,,,,,,
,,,,,,,,,,610063b7b50c4e9488e77eca,22,Kobieta,2022-05-28_09h27.42.828,task,2021.1.4,MacIntel,60.0024001,628b806c463b948bc644b84f,6291ceddeb734f021991874a,,,,,,,,,,,,,,,,,,,,,,,9,"[""9""]",1,[1.9558000000715197],"[2.896900000095343,5.299800000071571,1.9558000000715197]",0,2,2,9,1,Practice,10,(20/2) - 1,9,,,,,,,,,,,,,,,,,,,,,,,,,,,,,,,,,,,,,,,,,,,,,,,,,,,,,,,,,,,,,,,,,,,
,,,,,,,,,,610063b7b50c4e9488e77eca,22,Kobieta,2022-05-28_09h27.42.828,task,2021.1.4,MacIntel,60.0024001,628b806c463b948bc644b84f,6291ceddeb734f021991874a,,,,,,,,,,,,,,,,,,,,,,,8,"[""8""]",1,[1.8340000000000032],"[2.896900000095343,5.299800000071571,1.9558000000715197,1.8340000000000032]",0,3,3,8,1,Practice,9,(3x3) - 1,8,,,,,,,,,,,,,,,,,,,,,,,,,,,,,,,,,,,,,,,,,,,,,,,,,,,,,,,,,,,,,,,,,,,
,,,,,,,,,,610063b7b50c4e9488e77eca,22,Kobieta,2022-05-28_09h27.42.828,task,2021.1.4,MacIntel,60.0024001,628b806c463b948bc644b84f,6291ceddeb734f021991874a,,,,,,,,,,,,,,,,,,,,,,,1,"[""1""]",1,[1.8865000000000123],"[2.896900000095343,5.299800000071571,1.9558000000715197,1.8340000000000032,1.8865000000000123]",0,4,4,1,1,Practice,2,(4x4) - 15,1,,,,,,,,,,,,,,,,,,,,,,,,,,,,,,,,,,,,,,,,,,,,,,,,,,,,,,,,,,,,,,,,,,,
,,,,,,,,,,610063b7b50c4e9488e77eca,22,Kobieta,2022-05-28_09h27.42.828,task,2021.1.4,MacIntel,60.0024001,628b806c463b948bc644b84f,6291ceddeb734f021991874a,,,,,,,,,,,,,,,,,,,,,,,4,"[""4""]",1,[6.7996000000238155],"[2.896900000095343,5.299800000071571,1.9558000000715197,1.8340000000000032,1.8865000000000123,6.7996000000238155]",0,5,5,4,1,Practice,5,(2x6) - 8,4,,,,,,,,,,,,,,,,,,,,,,,,,,,,,,,,,,,,,,,,,,,,,,,,,,,,,,,,,,,,,,,,,,,
,,,,,,,,,,610063b7b50c4e9488e77eca,22,Kobieta,2022-05-28_09h27.42.828,task,2021.1.4,MacIntel,60.0024001,628b806c463b948bc644b84f,6291ceddeb734f021991874a,,,,,,,,,,,,,,,,,,,,,,,6,"[""6""]",1,[1.7512999999522663],"[2.896900000095343,5.299800000071571,1.9558000000715197,1.8340000000000032,1.8865000000000123,6.7996000000238155,1.7512999999522663]",0,6,6,6,1,Practice,7,(25/5) + 1,6,,,,,,,,,,,,,,,,,,,,,,,,,,,,,,,,,,,,,,,,,,,,,,,,,,,,,,,,,,,,,,,,,,,
,,,,,,,,,,610063b7b50c4e9488e77eca,22,Kobieta,2022-05-28_09h27.42.828,task,2021.1.4,MacIntel,60.0024001,628b806c463b948bc644b84f,6291ceddeb734f021991874a,,,,,,,,,,,,,,,,,,,,,,,5,"[""5""]",1,[2.1727999999523036],"[2.896900000095343,5.299800000071571,1.9558000000715197,1.8340000000000032,1.8865000000000123,6.7996000000238155,1.7512999999522663,2.1727999999523036]",0,7,7,5,1,Practice,6,(4/2) + 3,5,,,,,,,,,,,,,,,,,,,,,,,,,,,,,,,,,,,,,,,,,,,,,,,,,,,,,,,,,,,,,,,,,,,
,,,,,,,,,,610063b7b50c4e9488e77eca,22,Kobieta,2022-05-28_09h27.42.828,task,2021.1.4,MacIntel,60.0024001,628b806c463b948bc644b84f,6291ceddeb734f021991874a,,,,,,,,,,,,,,,,,,,,,,,2,"[""2""]",1,[2.2071000000238428],"[2.896900000095343,5.299800000071571,1.9558000000715197,1.8340000000000032,1.8865000000000123,6.7996000000238155,1.7512999999522663,2.1727999999523036,2.2071000000238428]",0,8,8,2,1,Practice,3,(4x4) - 14,2,,,,,,,,,,,,,,,,,,,,,,,,,,,,,,,,,,,,,,,,,,,,,,,,,,,,,,,,,,,,,,,,,,,
,,,,,,,,,,610063b7b50c4e9488e77eca,22,Kobieta,2022-05-28_09h27.42.828,task,2021.1.4,MacIntel,60.0024001,628b806c463b948bc644b84f,6291ceddeb734f021991874a,,,,,,,,,,,,,,,,,,,,,,,0,"[""0""]",1,[1.7826000000238196],"[2.896900000095343,5.299800000071571,1.9558000000715197,1.8340000000000032,1.8865000000000123,6.7996000000238155,1.7512999999522663,2.1727999999523036,2.2071000000238428,1.7826000000238196]",0,9,9,0,1,Practice,1,(3x3) -  9,0,,,,,,,,,,,,,,,,,,,,,,,,,,,,,,,,,,,,,,,,,,,,,,,,,,,,,,,,,,,,,,,,,,,
,,,,,,,,,,610063b7b50c4e9488e77eca,22,Kobieta,2022-05-28_09h27.42.828,task,2021.1.4,MacIntel,60.0024001,628b806c463b948bc644b84f,6291ceddeb734f021991874a,,,,,,,,,,,,,,,,,,,,,,,,,,,,,,,,,,,,,1,28.5864,1.90576,36.66070285,1.563344766,5.939189496,space,1.3172,0,0,0,0,1,,,,,,,,,,,,,,,,,,,,,,,,,,,,,,,,,,,,,,,,,,,,,,,,,,,,,,
,,,,,,,,,,610063b7b50c4e9488e77eca,22,Kobieta,2022-05-28_09h27.42.828,task,2021.1.4,MacIntel,60.0024001,628b806c463b948bc644b84f,6291ceddeb734f021991874a,,,,,,,,,,,,,,,,,,,,,,,,,,,,,,,,,Practice,8,(5x5) - 18,7,,,,,,,,,,,,,,space,20.9372,,0,0,0,0,0,7,1,,,,,,,,,,,,,,,,,,,,,,,,,,,,,,,,,,,,,,,,,,,,
,,,,,,,,,,610063b7b50c4e9488e77eca,22,Kobieta,2022-05-28_09h27.42.828,task,2021.1.4,MacIntel,60.0024001,628b806c463b948bc644b84f,6291ceddeb734f021991874a,,,,,,,,,,,,,,,,,,,,,,,6,,,,,,,,,,Practice,7,(25/5) + 1,6,,,,,,,,,,,,,,,,"[""6""]",1,1,0,1,1,6,1,[1.7005000000000337],,,,,,,,,,,,,,,,,,,,,,,,,,,,,,,,,,,,,,,,,,,
,,,,,,,,,,610063b7b50c4e9488e77eca,22,Kobieta,2022-05-28_09h27.42.828,task,2021.1.4,MacIntel,60.0024001,628b806c463b948bc644b84f,6291ceddeb734f021991874a,,,,,,,,,,"X V Q F H G B L J M P D K C T S W R N Z
",,,,,,,,,,,,,,,,,,,,,,,,,,,,,,,,,,,,,,,,,,,,,,,,,,,0,0,0,0,1,,,,,,,,,,,,,,,,,,,,,,,,,,,,,,,,,,,,,,
,,,,,,,,,,610063b7b50c4e9488e77eca,22,Kobieta,2022-05-28_09h27.42.828,task,2021.1.4,MacIntel,60.0024001,628b806c463b948bc644b84f,6291ceddeb734f021991874a,,,,,,,,,,,,,,,,,,,,,,,1,,,,,,,,,,Practice,2,(4x4) - 15,1,,,,,,,,,,,,,,,,"[""1""]",1,1,0,0,0,1,1,[1.9993999999761627],,,,,,,,,,,,,,,,,,,,,,,,,,,,,,,,,,,,,,,,,,,
,,,,,,,,,,610063b7b50c4e9488e77eca,22,Kobieta,2022-05-28_09h27.42.828,task,2021.1.4,MacIntel,60.0024001,628b806c463b948bc644b84f,6291ceddeb734f021991874a,,,,,,,,,,"X V Q F H G B L J M P D K C T S W R N Z
",,,,,,,,,,,,,,,,,,,,,,,,,,,,,,,,,,,,,,,,,,,,,,,,,,,1,0,1,0,1,,,,,,,,,,,,,,,,,,,,,,,,,,,,,,,,,,,,,,
,,,,,,,,,,610063b7b50c4e9488e77eca,22,Kobieta,2022-05-28_09h27.42.828,task,2021.1.4,MacIntel,60.0024001,628b806c463b948bc644b84f,6291ceddeb734f021991874a,,,,,,,,,,,,,,,,,,,,,,,,,,,,,,,,,,,,,,,,,,,,,,,,,,,,,,,,,,,,,,,,,,zw,"[""z"",""w""]",0,"[2.550300000071502,2.8838999999761654,4.185200000047644]",1,0,0,0,0,1,,,,,,,,,,,,,,,,,,,,,,,,,,,,
,,,,,,,,,,610063b7b50c4e9488e77eca,22,Kobieta,2022-05-28_09h27.42.828,task,2021.1.4,MacIntel,60.0024001,628b806c463b948bc644b84f,6291ceddeb734f021991874a,,,,,,,,,,,,,,,,,,,,,,,4,,,,,,,,,,Practice,5,(2x6) - 8,4,,,,,,,,,,,,,,,,"[""4""]",1,1,0,0,0,4,1,[3.4416999999285736],,,,,,,,,,,,,,,,,,,,,,,,,,,,,,,,,,,,,,,,,,,
,,,,,,,,,,610063b7b50c4e9488e77eca,22,Kobieta,2022-05-28_09h27.42.828,task,2021.1.4,MacIntel,60.0024001,628b806c463b948bc644b84f,6291ceddeb734f021991874a,,,,,,,,,,"X V Q F H G B L J M P D K C T S W R N Z
",,,,,,,,,,,,,,,,,,,,,,,,,,,,,,,,,,,,,,,,,,,,,,,,,,,0,0,0,0,1,,,,,,,,,,,,,,,,,,,,,,,,,,,,,,,,,,,,,,
,,,,,,,,,,610063b7b50c4e9488e77eca,22,Kobieta,2022-05-28_09h27.42.828,task,2021.1.4,MacIntel,60.0024001,628b806c463b948bc644b84f,6291ceddeb734f021991874a,,,,,,,,,,,,,,,,,,,,,,,1,,,,,,,,,,Practice,2,(4x4) - 15,1,,,,,,,,,,,,,,,,"[""1""]",1,1,0,0,0,1,1,[1.3324999999999818],,,,,,,,,,,,,,,,,,,,,,,,,,,,,,,,,,,,,,,,,,,
,,,,,,,,,,610063b7b50c4e9488e77eca,22,Kobieta,2022-05-28_09h27.42.828,task,2021.1.4,MacIntel,60.0024001,628b806c463b948bc644b84f,6291ceddeb734f021991874a,,,,,,,,,,"X V Q F H G B L J M P D K C T S W R N Z
",,,,,,,,,,,,,,,,,,,,,,,,,,,,,,,,,,,,,,,,,,,,,,,,,,,1,0,1,0,1,,,,,,,,,,,,,,,,,,,,,,,,,,,,,,,,,,,,,,
,,,,,,,,,,610063b7b50c4e9488e77eca,22,Kobieta,2022-05-28_09h27.42.828,task,2021.1.4,MacIntel,60.0024001,628b806c463b948bc644b84f,6291ceddeb734f021991874a,,,,,,,,,,,,,,,,,,,,,,,,,,,,,,,,,,,,,,,,,,,,,,,,,,,,,,,,,,,,,,,,,,gk,"[""g"",""k""]",0,"[2.4391000000238137,2.8344999999999345,3.655200000047671]",0,1,0,1,0,1,,,,,,,,,,,,,,,,,,,,,,,,,,,,
,,,,,,,,,,610063b7b50c4e9488e77eca,22,Kobieta,2022-05-28_09h27.42.828,task,2021.1.4,MacIntel,60.0024001,628b806c463b948bc644b84f,6291ceddeb734f021991874a,,,,,,,,,,,,,,,,,,,,,,,6,,,,,,,,,,Practice,7,(25/5) + 1,6,,,,,,,,,,,,,,,,"[""6""]",1,1,0,0,0,6,1,[1.6380999999046253],,,,,,,,,,,,,,,,,,,,,,,,,,,,,,,,,,,,,,,,,,,
,,,,,,,,,,610063b7b50c4e9488e77eca,22,Kobieta,2022-05-28_09h27.42.828,task,2021.1.4,MacIntel,60.0024001,628b806c463b948bc644b84f,6291ceddeb734f021991874a,,,,,,,,,,"X V Q F H G B L J M P D K C T S W R N Z
",,,,,,,,,,,,,,,,,,,,,,,,,,,,,,,,,,,,,,,,,,,,,,,,,,,0,0,0,0,1,,,,,,,,,,,,,,,,,,,,,,,,,,,,,,,,,,,,,,
,,,,,,,,,,610063b7b50c4e9488e77eca,22,Kobieta,2022-05-28_09h27.42.828,task,2021.1.4,MacIntel,60.0024001,628b806c463b948bc644b84f,6291ceddeb734f021991874a,,,,,,,,,,,,,,,,,,,,,,,4,,,,,,,,,,Practice,5,(2x6) - 8,4,,,,,,,,,,,,,,,,"[""4""]",1,1,0,0,0,4,1,[4.78189999997619],,,,,,,,,,,,,,,,,,,,,,,,,,,,,,,,,,,,,,,,,,,
,,,,,,,,,,610063b7b50c4e9488e77eca,22,Kobieta,2022-05-28_09h27.42.828,task,2021.1.4,MacIntel,60.0024001,628b806c463b948bc644b84f,6291ceddeb734f021991874a,,,,,,,,,,"X V Q F H G B L J M P D K C T S W R N Z
",,,,,,,,,,,,,,,,,,,,,,,,,,,,,,,,,,,,,,,,,,,,,,,,,,,1,0,1,0,1,,,,,,,,,,,,,,,,,,,,,,,,,,,,,,,,,,,,,,
,,,,,,,,,,610063b7b50c4e9488e77eca,22,Kobieta,2022-05-28_09h27.42.828,task,2021.1.4,MacIntel,60.0024001,628b806c463b948bc644b84f,6291ceddeb734f021991874a,,,,,,,,,,,,,,,,,,,,,,,,,,,,,,,,,,,,,,,,,,,,,,,,,,,,,,,,,,,,,,,,,,hn,"[""h"",""n""]",0,"[1.8331999999285244,2.0438999999762473,2.8672999999523654]",1,2,0,2,0,1,,,,,,,,,,,,,,,,,,,,,,,,,,,,
,,,,,,,,,,610063b7b50c4e9488e77eca,22,Kobieta,2022-05-28_09h27.42.828,task,2021.1.4,MacIntel,60.0024001,628b806c463b948bc644b84f,6291ceddeb734f021991874a,,,,,,,,,,,,,,,,,,,,,,,2,,,,,,,,,,Practice,3,(4x4) - 14,2,,,,,,,,,,,,,,,,"[""2""]",1,1,0,0,0,2,1,[3.0823999999761327],,,,,,,,,,,,,,,,,,,,,,,,,,,,,,,,,,,,,,,,,,,
,,,,,,,,,,610063b7b50c4e9488e77eca,22,Kobieta,2022-05-28_09h27.42.828,task,2021.1.4,MacIntel,60.0024001,628b806c463b948bc644b84f,6291ceddeb734f021991874a,,,,,,,,,,"X V Q F H G B L J M P D K C T S W R N Z
",,,,,,,,,,,,,,,,,,,,,,,,,,,,,,,,,,,,,,,,,,,,,,,,,,,0,0,0,0,1,,,,,,,,,,,,,,,,,,,,,,,,,,,,,,,,,,,,,,
,,,,,,,,,,610063b7b50c4e9488e77eca,22,Kobieta,2022-05-28_09h27.42.828,task,2021.1.4,MacIntel,60.0024001,628b806c463b948bc644b84f,6291ceddeb734f021991874a,,,,,,,,,,,,,,,,,,,,,,,4,,,,,,,,,,Practice,5,(2x6) - 8,4,,,,,,,,,,,,,,,,"[""4""]",1,1,0,0,0,4,1,[2.3327999999522717],,,,,,,,,,,,,,,,,,,,,,,,,,,,,,,,,,,,,,,,,,,
,,,,,,,,,,610063b7b50c4e9488e77eca,22,Kobieta,2022-05-28_09h27.42.828,task,2021.1.4,MacIntel,60.0024001,628b806c463b948bc644b84f,6291ceddeb734f021991874a,,,,,,,,,,"X V Q F H G B L J M P D K C T S W R N Z
",,,,,,,,,,,,,,,,,,,,,,,,,,,,,,,,,,,,,,,,,,,,,,,,,,,1,0,1,0,1,,,,,,,,,,,,,,,,,,,,,,,,,,,,,,,,,,,,,,
,,,,,,,,,,610063b7b50c4e9488e77eca,22,Kobieta,2022-05-28_09h27.42.828,task,2021.1.4,MacIntel,60.0024001,628b806c463b948bc644b84f,6291ceddeb734f021991874a,,,,,,,,,,,,,,,,,,,,,,,,,,,,,,,,,,,,,,,,,,,,,,,,,,,,,,,,,,,,,,,,,,cd,"[""c"",""d""]",0,"[2.213700000047652,2.4011000000238027,3.0501000000238037]",1,3,0,3,0,1,,,,,,,,,,,,,,,,,,,,,,,,,,,,
,,,,,,,,,,610063b7b50c4e9488e77eca,22,Kobieta,2022-05-28_09h27.42.828,task,2021.1.4,MacIntel,60.0024001,628b806c463b948bc644b84f,6291ceddeb734f021991874a,,,,,,,,,,,,,,,,,,,,,,,0,,,,,,,,,,Practice,1,(3x3) -  9,0,,,,,,,,,,,,,,,,"[""0""]",1,1,0,0,0,0,1,[1.7483000000715947],,,,,,,,,,,,,,,,,,,,,,,,,,,,,,,,,,,,,,,,,,,
,,,,,,,,,,610063b7b50c4e9488e77eca,22,Kobieta,2022-05-28_09h27.42.828,task,2021.1.4,MacIntel,60.0024001,628b806c463b948bc644b84f,6291ceddeb734f021991874a,,,,,,,,,,"X V Q F H G B L J M P D K C T S W R N Z
",,,,,,,,,,,,,,,,,,,,,,,,,,,,,,,,,,,,,,,,,,,,,,,,,,,0,0,0,0,1,,,,,,,,,,,,,,,,,,,,,,,,,,,,,,,,,,,,,,
,,,,,,,,,,610063b7b50c4e9488e77eca,22,Kobieta,2022-05-28_09h27.42.828,task,2021.1.4,MacIntel,60.0024001,628b806c463b948bc644b84f,6291ceddeb734f021991874a,,,,,,,,,,,,,,,,,,,,,,,1,,,,,,,,,,Practice,2,(4x4) - 15,1,,,,,,,,,,,,,,,,"[""1""]",1,1,0,0,0,1,1,[1.86850000000004],,,,,,,,,,,,,,,,,,,,,,,,,,,,,,,,,,,,,,,,,,,
,,,,,,,,,,610063b7b50c4e9488e77eca,22,Kobieta,2022-05-28_09h27.42.828,task,2021.1.4,MacIntel,60.0024001,628b806c463b948bc644b84f,6291ceddeb734f021991874a,,,,,,,,,,"X V Q F H G B L J M P D K C T S W R N Z
",,,,,,,,,,,,,,,,,,,,,,,,,,,,,,,,,,,,,,,,,,,,,,,,,,,1,0,1,0,1,,,,,,,,,,,,,,,,,,,,,,,,,,,,,,,,,,,,,,
,,,,,,,,,,610063b7b50c4e9488e77eca,22,Kobieta,2022-05-28_09h27.42.828,task,2021.1.4,MacIntel,60.0024001,628b806c463b948bc644b84f,6291ceddeb734f021991874a,,,,,,,,,,,,,,,,,,,,,,,,,,,,,,,,,,,,,,,,,,,,,,,,,,,,,,,,,,,,,,,,,,vz,"[""v"",""z""]",0,"[2.907599999904619,3.173999999999978,3.5688999999762245]",0,4,0,4,0,1,,,,,,,,,,,,,,,,,,,,,,,,,,,,
,,,,,,,,,,610063b7b50c4e9488e77eca,22,Kobieta,2022-05-28_09h27.42.828,task,2021.1.4,MacIntel,60.0024001,628b806c463b948bc644b84f,6291ceddeb734f021991874a,,,,,,,,,,,,,,,,,,,,,,,2,,,,,,,,,,Practice,3,(4x4) - 14,2,,,,,,,,,,,,,,,,"[""2""]",1,1,0,0,0,2,1,[2.6487999999523026],,,,,,,,,,,,,,,,,,,,,,,,,,,,,,,,,,,,,,,,,,,
,,,,,,,,,,610063b7b50c4e9488e77eca,22,Kobieta,2022-05-28_09h27.42.828,task,2021.1.4,MacIntel,60.0024001,628b806c463b948bc644b84f,6291ceddeb734f021991874a,,,,,,,,,,"X V Q F H G B L J M P D K C T S W R N Z
",,,,,,,,,,,,,,,,,,,,,,,,,,,,,,,,,,,,,,,,,,,,,,,,,,,0,0,0,0,1,,,,,,,,,,,,,,,,,,,,,,,,,,,,,,,,,,,,,,
,,,,,,,,,,610063b7b50c4e9488e77eca,22,Kobieta,2022-05-28_09h27.42.828,task,2021.1.4,MacIntel,60.0024001,628b806c463b948bc644b84f,6291ceddeb734f021991874a,,,,,,,,,,,,,,,,,,,,,,,0,,,,,,,,,,Practice,1,(3x3) -  9,0,,,,,,,,,,,,,,,,"[""0""]",1,1,0,0,0,0,1,[1.466400000095291],,,,,,,,,,,,,,,,,,,,,,,,,,,,,,,,,,,,,,,,,,,
,,,,,,,,,,610063b7b50c4e9488e77eca,22,Kobieta,2022-05-28_09h27.42.828,task,2021.1.4,MacIntel,60.0024001,628b806c463b948bc644b84f,6291ceddeb734f021991874a,,,,,,,,,,"X V Q F H G B L J M P D K C T S W R N Z
",,,,,,,,,,,,,,,,,,,,,,,,,,,,,,,,,,,,,,,,,,,,,,,,,,,1,0,1,0,1,,,,,,,,,,,,,,,,,,,,,,,,,,,,,,,,,,,,,,
,,,,,,,,,,610063b7b50c4e9488e77eca,22,Kobieta,2022-05-28_09h27.42.828,task,2021.1.4,MacIntel,60.0024001,628b806c463b948bc644b84f,6291ceddeb734f021991874a,,,,,,,,,,,,,,,,,,,,,,,,,,,,,,,,,,,,,,,,,,,,,,,,,,,,,,,,,,,,,,,,,,vd,"[""v"",""d""]",0,"[2.0176999999284817,2.2010999999046135,2.833799999952248]",1,5,0,5,0,1,,,,,,,,,,,,,,,,,,,,,,,,,,,,
,,,,,,,,,,610063b7b50c4e9488e77eca,22,Kobieta,2022-05-28_09h27.42.828,task,2021.1.4,MacIntel,60.0024001,628b806c463b948bc644b84f,6291ceddeb734f021991874a,,,,,,,,,,,,,,,,,,,,,,,0,,,,,,,,,,Practice,1,(3x3) -  9,0,,,,,,,,,,,,,,,,"[""0""]",1,1,0,0,0,0,1,[1.28449999999998],,,,,,,,,,,,,,,,,,,,,,,,,,,,,,,,,,,,,,,,,,,
,,,,,,,,,,610063b7b50c4e9488e77eca,22,Kobieta,2022-05-28_09h27.42.828,task,2021.1.4,MacIntel,60.0024001,628b806c463b948bc644b84f,6291ceddeb734f021991874a,,,,,,,,,,"X V Q F H G B L J M P D K C T S W R N Z
",,,,,,,,,,,,,,,,,,,,,,,,,,,,,,,,,,,,,,,,,,,,,,,,,,,0,0,0,0,1,,,,,,,,,,,,,,,,,,,,,,,,,,,,,,,,,,,,,,
,,,,,,,,,,610063b7b50c4e9488e77eca,22,Kobieta,2022-05-28_09h27.42.828,task,2021.1.4,MacIntel,60.0024001,628b806c463b948bc644b84f,6291ceddeb734f021991874a,,,,,,,,,,,,,,,,,,,,,,,3,,,,,,,,,,Practice,4,(8/4) + 1,3,,,,,,,,,,,,,,,,"[""3""]",1,1,0,0,0,3,1,[2.8327000000477938],,,,,,,,,,,,,,,,,,,,,,,,,,,,,,,,,,,,,,,,,,,
,,,,,,,,,,610063b7b50c4e9488e77eca,22,Kobieta,2022-05-28_09h27.42.828,task,2021.1.4,MacIntel,60.0024001,628b806c463b948bc644b84f,6291ceddeb734f021991874a,,,,,,,,,,"X V Q F H G B L J M P D K C T S W R N Z
",,,,,,,,,,,,,,,,,,,,,,,,,,,,,,,,,,,,,,,,,,,,,,,,,,,1,0,1,0,1,,,,,,,,,,,,,,,,,,,,,,,,,,,,,,,,,,,,,,
,,,,,,,,,,610063b7b50c4e9488e77eca,22,Kobieta,2022-05-28_09h27.42.828,task,2021.1.4,MacIntel,60.0024001,628b806c463b948bc644b84f,6291ceddeb734f021991874a,,,,,,,,,,,,,,,,,,,,,,,,,,,,,,,,,,,,,,,,,,,,,,,,,,,,,,,,,,,,,,,,,,jj,"[""j"",""j""]",0,"[1.4495000000000573,1.5673999999761463,2.2831000000238646]",1,6,0,6,0,1,,,,,,,,,,,,,,,,,,,,,,,,,,,,
,,,,,,,,,,610063b7b50c4e9488e77eca,22,Kobieta,2022-05-28_09h27.42.828,task,2021.1.4,MacIntel,60.0024001,628b806c463b948bc644b84f,6291ceddeb734f021991874a,,,,,,,,,,,,,,,,,,,,,,,8,,,,,,,,,,Practice,9,(3x3) - 1,8,,,,,,,,,,,,,,,,"[""8""]",1,1,0,0,0,8,1,[1.681699999928469],,,,,,,,,,,,,,,,,,,,,,,,,,,,,,,,,,,,,,,,,,,
,,,,,,,,,,610063b7b50c4e9488e77eca,22,Kobieta,2022-05-28_09h27.42.828,task,2021.1.4,MacIntel,60.0024001,628b806c463b948bc644b84f,6291ceddeb734f021991874a,,,,,,,,,,"X V Q F H G B L J M P D K C T S W R N Z
",,,,,,,,,,,,,,,,,,,,,,,,,,,,,,,,,,,,,,,,,,,,,,,,,,,0,0,0,0,1,,,,,,,,,,,,,,,,,,,,,,,,,,,,,,,,,,,,,,
,,,,,,,,,,610063b7b50c4e9488e77eca,22,Kobieta,2022-05-28_09h27.42.828,task,2021.1.4,MacIntel,60.0024001,628b806c463b948bc644b84f,6291ceddeb734f021991874a,,,,,,,,,,,,,,,,,,,,,,,9,,,,,,,,,,Practice,10,(20/2) - 1,9,,,,,,,,,,,,,,,,"[""9""]",1,1,0,0,0,9,1,[2.098699999928499],,,,,,,,,,,,,,,,,,,,,,,,,,,,,,,,,,,,,,,,,,,
,,,,,,,,,,610063b7b50c4e9488e77eca,22,Kobieta,2022-05-28_09h27.42.828,task,2021.1.4,MacIntel,60.0024001,628b806c463b948bc644b84f,6291ceddeb734f021991874a,,,,,,,,,,"X V Q F H G B L J M P D K C T S W R N Z
",,,,,,,,,,,,,,,,,,,,,,,,,,,,,,,,,,,,,,,,,,,,,,,,,,,1,0,1,0,1,,,,,,,,,,,,,,,,,,,,,,,,,,,,,,,,,,,,,,
,,,,,,,,,,610063b7b50c4e9488e77eca,22,Kobieta,2022-05-28_09h27.42.828,task,2021.1.4,MacIntel,60.0024001,628b806c463b948bc644b84f,6291ceddeb734f021991874a,,,,,,,,,,,,,,,,,,,,,,,,,,,,,,,,,,,,,,,,,,,,,,,,,,,,,,,,,,,,,,,,,,dv,"[""d"",""v""]",0,"[1.8183000000714173,2.1504999999999654,2.8514999999999873]",1,7,0,7,0,1,,,,,,,,,,,,,,,,,,,,,,,,,,,,
,,,,,,,,,,610063b7b50c4e9488e77eca,22,Kobieta,2022-05-28_09h27.42.828,task,2021.1.4,MacIntel,60.0024001,628b806c463b948bc644b84f,6291ceddeb734f021991874a,,,,,,,,,,,,,,,,,,,,,,,0,,,,,,,,,,Task,17,(2x3) - 6,0,,,,,,,,,,,,,,,,,,1,,,,,,,,,,,,,,,,,,,,,,space,12.5981,"[""0""]",1,[2.003100000023892],0,0,0,16,1,,,,,,,,,,,,,,,,,,
,,,,,,,,,,610063b7b50c4e9488e77eca,22,Kobieta,2022-05-28_09h27.42.828,task,2021.1.4,MacIntel,60.0024001,628b806c463b948bc644b84f,6291ceddeb734f021991874a,,,,,,,,,,"X V Q F H G B L J M P D K C T S W R N Z
",,,,,,,,,,,,,,,,,,,,,,,,,,,,,,,,,,,,,,,,,,,,,,,,,,,,,,,,,,,,,,,,,,,,,,,,,,,,0,0,0,0,1,,,,,,,,,,,,,
,,,,,,,,,,610063b7b50c4e9488e77eca,22,Kobieta,2022-05-28_09h27.42.828,task,2021.1.4,MacIntel,60.0024001,628b806c463b948bc644b84f,6291ceddeb734f021991874a,,,,,,,,,,,,,,,,,,,,,,,3,,,,,,,,,,Task,27,(3/3) + 2,3,,,,,,,,,,,,,,,,,,1,,,,,,,,,,,,,,,,,,,,,,,,"[""3""]",1,[2.449799999952347],0,0,0,26,1,,,,,,,,,,,,,,,,,,
,,,,,,,,,,610063b7b50c4e9488e77eca,22,Kobieta,2022-05-28_09h27.42.828,task,2021.1.4,MacIntel,60.0024001,628b806c463b948bc644b84f,6291ceddeb734f021991874a,,,,,,,,,,"X V Q F H G B L J M P D K C T S W R N Z
",,,,,,,,,,,,,,,,,,,,,,,,,,,,,,,,,,,,,,,,,,,,,,,,,,,,,,,,,,,,,,,,,,,,,,,,,,,,1,0,1,0,1,,,,,,,,,,,,,
,,,,,,,,,,610063b7b50c4e9488e77eca,22,Kobieta,2022-05-28_09h27.42.828,task,2021.1.4,MacIntel,60.0024001,628b806c463b948bc644b84f,6291ceddeb734f021991874a,,,,,,,,,,,,,,,,,,,,,,,,,,,,,,,,,,,,,,,,,,,,,,,,,,,,,,,,,,,,,,,,,,,,,,,,,,,,,,,,,,,,,,,,,,,zf,"[""z"",""f""]",0,"[2.0160000000000764,2.4350999999046508,3.5840999999046517]",1,ZF,0,0,0,0,1,,
,,,,,,,,,,610063b7b50c4e9488e77eca,22,Kobieta,2022-05-28_09h27.42.828,task,2021.1.4,MacIntel,60.0024001,628b806c463b948bc644b84f,6291ceddeb734f021991874a,,,,,,,,,,,,,,,,,,,,,,,9,,,,,,,,,,Task,16,(3x8) - 15,9,,,,,,,,,,,,,,,,,,1,,,,,,,,,,,,,,,,,,,,,,,,"[""9""]",1,[5.054200000047672],0,0,0,15,1,,,,,,,,,,,,,,,,,,
,,,,,,,,,,610063b7b50c4e9488e77eca,22,Kobieta,2022-05-28_09h27.42.828,task,2021.1.4,MacIntel,60.0024001,628b806c463b948bc644b84f,6291ceddeb734f021991874a,,,,,,,,,,"X V Q F H G B L J M P D K C T S W R N Z
",,,,,,,,,,,,,,,,,,,,,,,,,,,,,,,,,,,,,,,,,,,,,,,,,,,,,,,,,,,,,,,,,,,,,,,,,,,,0,0,0,0,1,,,,,,,,,,,,,
,,,,,,,,,,610063b7b50c4e9488e77eca,22,Kobieta,2022-05-28_09h27.42.828,task,2021.1.4,MacIntel,60.0024001,628b806c463b948bc644b84f,6291ceddeb734f021991874a,,,,,,,,,,,,,,,,,,,,,,,6,,,,,,,,,,Task,30,(6/3) + 4 ,6,,,,,,,,,,,,,,,,,,1,,,,,,,,,,,,,,,,,,,,,,,,"[""6""]",1,[3.4986000000238846],0,0,0,29,1,,,,,,,,,,,,,,,,,,
,,,,,,,,,,610063b7b50c4e9488e77eca,22,Kobieta,2022-05-28_09h27.42.828,task,2021.1.4,MacIntel,60.0024001,628b806c463b948bc644b84f,6291ceddeb734f021991874a,,,,,,,,,,"X V Q F H G B L J M P D K C T S W R N Z
",,,,,,,,,,,,,,,,,,,,,,,,,,,,,,,,,,,,,,,,,,,,,,,,,,,,,,,,,,,,,,,,,,,,,,,,,,,,1,0,1,0,1,,,,,,,,,,,,,
,,,,,,,,,,610063b7b50c4e9488e77eca,22,Kobieta,2022-05-28_09h27.42.828,task,2021.1.4,MacIntel,60.0024001,628b806c463b948bc644b84f,6291ceddeb734f021991874a,,,,,,,,,,,,,,,,,,,,,,,5,,,,,,,,,,Task,12,(4x4) - 11,5,,,,,,,,,,,,,,,,,,1,,,,,,,,,,,,,,,,,,,,,,,,"[""5""]",1,[3.097699999928409],0,0,0,11,1,,,,,,,,,,,,,,,,,,
,,,,,,,,,,610063b7b50c4e9488e77eca,22,Kobieta,2022-05-28_09h27.42.828,task,2021.1.4,MacIntel,60.0024001,628b806c463b948bc644b84f,6291ceddeb734f021991874a,,,,,,,,,,"X V Q F H G B L J M P D K C T S W R N Z
",,,,,,,,,,,,,,,,,,,,,,,,,,,,,,,,,,,,,,,,,,,,,,,,,,,,,,,,,,,,,,,,,,,,,,,,,,,,2,0,2,0,1,,,,,,,,,,,,,
,,,,,,,,,,610063b7b50c4e9488e77eca,22,Kobieta,2022-05-28_09h27.42.828,task,2021.1.4,MacIntel,60.0024001,628b806c463b948bc644b84f,6291ceddeb734f021991874a,,,,,,,,,,,,,,,,,,,,,,,,,,,,,,,,,,,,,,,,,,,,,,,,,,,,,,,,,,,,,,,,,,,,,,,,,,,,,,,,,,,,,,,,,,,pst,"[""p"",""s"",""t""]",0,"[1.9842999999523272,2.4662000000477065,2.834399999976199,3.717600000023822]",1,PST,1,0,1,0,1,,
,,,,,,,,,,610063b7b50c4e9488e77eca,22,Kobieta,2022-05-28_09h27.42.828,task,2021.1.4,MacIntel,60.0024001,628b806c463b948bc644b84f,6291ceddeb734f021991874a,,,,,,,,,,,,,,,,,,,,,,,9,,,,,,,,,,Task,40,(7x2) - 5,9,,,,,,,,,,,,,,,,,,1,,,,,,,,,,,,,,,,,,,,,,,,"[""9""]",1,[2.4491000000238046],0,0,0,39,1,,,,,,,,,,,,,,,,,,
,,,,,,,,,,610063b7b50c4e9488e77eca,22,Kobieta,2022-05-28_09h27.42.828,task,2021.1.4,MacIntel,60.0024001,628b806c463b948bc644b84f,6291ceddeb734f021991874a,,,,,,,,,,"X V Q F H G B L J M P D K C T S W R N Z
",,,,,,,,,,,,,,,,,,,,,,,,,,,,,,,,,,,,,,,,,,,,,,,,,,,,,,,,,,,,,,,,,,,,,,,,,,,,0,0,0,0,1,,,,,,,,,,,,,
,,,,,,,,,,610063b7b50c4e9488e77eca,22,Kobieta,2022-05-28_09h27.42.828,task,2021.1.4,MacIntel,60.0024001,628b806c463b948bc644b84f,6291ceddeb734f021991874a,,,,,,,,,,,,,,,,,,,,,,,4,,,,,,,,,,Task,4,(1x5) - 1,4,,,,,,,,,,,,,,,,,,1,,,,,,,,,,,,,,,,,,,,,,,,"[""4""]",1,[1.7358999999761409],0,0,0,3,1,,,,,,,,,,,,,,,,,,
,,,,,,,,,,610063b7b50c4e9488e77eca,22,Kobieta,2022-05-28_09h27.42.828,task,2021.1.4,MacIntel,60.0024001,628b806c463b948bc644b84f,6291ceddeb734f021991874a,,,,,,,,,,"X V Q F H G B L J M P D K C T S W R N Z
",,,,,,,,,,,,,,,,,,,,,,,,,,,,,,,,,,,,,,,,,,,,,,,,,,,,,,,,,,,,,,,,,,,,,,,,,,,,1,0,1,0,1,,,,,,,,,,,,,
,,,,,,,,,,610063b7b50c4e9488e77eca,22,Kobieta,2022-05-28_09h27.42.828,task,2021.1.4,MacIntel,60.0024001,628b806c463b948bc644b84f,6291ceddeb734f021991874a,,,,,,,,,,,,,,,,,,,,,,,0,,,,,,,,,,Task,25,(10/5) - 2,0,,,,,,,,,,,,,,,,,,1,,,,,,,,,,,,,,,,,,,,,,,,"[""0""]",1,[2.2438000000715874],0,0,0,24,1,,,,,,,,,,,,,,,,,,
,,,,,,,,,,610063b7b50c4e9488e77eca,22,Kobieta,2022-05-28_09h27.42.828,task,2021.1.4,MacIntel,60.0024001,628b806c463b948bc644b84f,6291ceddeb734f021991874a,,,,,,,,,,"X V Q F H G B L J M P D K C T S W R N Z
",,,,,,,,,,,,,,,,,,,,,,,,,,,,,,,,,,,,,,,,,,,,,,,,,,,,,,,,,,,,,,,,,,,,,,,,,,,,2,0,2,0,1,,,,,,,,,,,,,
,,,,,,,,,,610063b7b50c4e9488e77eca,22,Kobieta,2022-05-28_09h27.42.828,task,2021.1.4,MacIntel,60.0024001,628b806c463b948bc644b84f,6291ceddeb734f021991874a,,,,,,,,,,,,,,,,,,,,,,,0,,,,,,,,,,Task,25,(10/5) - 2,0,,,,,,,,,,,,,,,,,,1,,,,,,,,,,,,,,,,,,,,,,,,"[""0""]",1,[2.749899999976151],0,0,0,24,1,,,,,,,,,,,,,,,,,,
,,,,,,,,,,610063b7b50c4e9488e77eca,22,Kobieta,2022-05-28_09h27.42.828,task,2021.1.4,MacIntel,60.0024001,628b806c463b948bc644b84f,6291ceddeb734f021991874a,,,,,,,,,,"X V Q F H G B L J M P D K C T S W R N Z
",,,,,,,,,,,,,,,,,,,,,,,,,,,,,,,,,,,,,,,,,,,,,,,,,,,,,,,,,,,,,,,,,,,,,,,,,,,,3,0,3,0,1,,,,,,,,,,,,,
,,,,,,,,,,610063b7b50c4e9488e77eca,22,Kobieta,2022-05-28_09h27.42.828,task,2021.1.4,MacIntel,60.0024001,628b806c463b948bc644b84f,6291ceddeb734f021991874a,,,,,,,,,,,,,,,,,,,,,,,,,,,,,,,,,,,,,,,,,,,,,,,,,,,,,,,,,,,,,,,,,,,,,,,,,,,,,,,,,,,,,,,,,,,kkcv,"[""k"",""k"",""c"",""v""]",0,"[1.5342999999522817,1.7516000000238137,2.152100000023893,2.36850000000004,3.3856999999285335]",1,KKCV,2,0,2,0,1,,
,,,,,,,,,,610063b7b50c4e9488e77eca,22,Kobieta,2022-05-28_09h27.42.828,task,2021.1.4,MacIntel,60.0024001,628b806c463b948bc644b84f,6291ceddeb734f021991874a,,,,,,,,,,,,,,,,,,,,,,,4,,,,,,,,,,Task,11,(18/3) - 2,4,,,,,,,,,,,,,,,,,,1,,,,,,,,,,,,,,,,,,,,,,,,"[""4""]",1,[3.331200000047602],0,0,0,10,1,,,,,,,,,,,,,,,,,,
,,,,,,,,,,610063b7b50c4e9488e77eca,22,Kobieta,2022-05-28_09h27.42.828,task,2021.1.4,MacIntel,60.0024001,628b806c463b948bc644b84f,6291ceddeb734f021991874a,,,,,,,,,,"X V Q F H G B L J M P D K C T S W R N Z
",,,,,,,,,,,,,,,,,,,,,,,,,,,,,,,,,,,,,,,,,,,,,,,,,,,,,,,,,,,,,,,,,,,,,,,,,,,,0,0,0,0,1,,,,,,,,,,,,,
,,,,,,,,,,610063b7b50c4e9488e77eca,22,Kobieta,2022-05-28_09h27.42.828,task,2021.1.4,MacIntel,60.0024001,628b806c463b948bc644b84f,6291ceddeb734f021991874a,,,,,,,,,,,,,,,,,,,,,,,9,,,,,,,,,,Task,24,(2x2) + 5,9,,,,,,,,,,,,,,,,,,1,,,,,,,,,,,,,,,,,,,,,,,,"[""9""]",1,[2.2509999999999764],0,0,0,23,1,,,,,,,,,,,,,,,,,,
,,,,,,,,,,610063b7b50c4e9488e77eca,22,Kobieta,2022-05-28_09h27.42.828,task,2021.1.4,MacIntel,60.0024001,628b806c463b948bc644b84f,6291ceddeb734f021991874a,,,,,,,,,,"X V Q F H G B L J M P D K C T S W R N Z
",,,,,,,,,,,,,,,,,,,,,,,,,,,,,,,,,,,,,,,,,,,,,,,,,,,,,,,,,,,,,,,,,,,,,,,,,,,,1,0,1,0,1,,,,,,,,,,,,,
,,,,,,,,,,610063b7b50c4e9488e77eca,22,Kobieta,2022-05-28_09h27.42.828,task,2021.1.4,MacIntel,60.0024001,628b806c463b948bc644b84f,6291ceddeb734f021991874a,,,,,,,,,,,,,,,,,,,,,,,0,,,,,,,,,,Task,17,(2x3) - 6,0,,,,,,,,,,,,,,,,,,1,,,,,,,,,,,,,,,,,,,,,,,,"[""0""]",1,[1.6135000000000446],0,0,0,16,1,,,,,,,,,,,,,,,,,,
,,,,,,,,,,610063b7b50c4e9488e77eca,22,Kobieta,2022-05-28_09h27.42.828,task,2021.1.4,MacIntel,60.0024001,628b806c463b948bc644b84f,6291ceddeb734f021991874a,,,,,,,,,,"X V Q F H G B L J M P D K C T S W R N Z
",,,,,,,,,,,,,,,,,,,,,,,,,,,,,,,,,,,,,,,,,,,,,,,,,,,,,,,,,,,,,,,,,,,,,,,,,,,,2,0,2,0,1,,,,,,,,,,,,,
,,,,,,,,,,610063b7b50c4e9488e77eca,22,Kobieta,2022-05-28_09h27.42.828,task,2021.1.4,MacIntel,60.0024001,628b806c463b948bc644b84f,6291ceddeb734f021991874a,,,,,,,,,,,,,,,,,,,,,,,2,,,,,,,,,,Task,19,(6/2) - 1,2,,,,,,,,,,,,,,,,,,1,,,,,,,,,,,,,,,,,,,,,,,,"[""2""]",1,[2.3983999999761636],0,0,0,18,1,,,,,,,,,,,,,,,,,,
,,,,,,,,,,610063b7b50c4e9488e77eca,22,Kobieta,2022-05-28_09h27.42.828,task,2021.1.4,MacIntel,60.0024001,628b806c463b948bc644b84f,6291ceddeb734f021991874a,,,,,,,,,,"X V Q F H G B L J M P D K C T S W R N Z
",,,,,,,,,,,,,,,,,,,,,,,,,,,,,,,,,,,,,,,,,,,,,,,,,,,,,,,,,,,,,,,,,,,,,,,,,,,,3,0,3,0,1,,,,,,,,,,,,,
,,,,,,,,,,610063b7b50c4e9488e77eca,22,Kobieta,2022-05-28_09h27.42.828,task,2021.1.4,MacIntel,60.0024001,628b806c463b948bc644b84f,6291ceddeb734f021991874a,,,,,,,,,,,,,,,,,,,,,,,6,,,,,,,,,,Task,37,(3/3) + 5,6,,,,,,,,,,,,,,,,,,1,,,,,,,,,,,,,,,,,,,,,,,,"[""6""]",1,[1.7824999999999136],0,0,0,36,1,,,,,,,,,,,,,,,,,,
,,,,,,,,,,610063b7b50c4e9488e77eca,22,Kobieta,2022-05-28_09h27.42.828,task,2021.1.4,MacIntel,60.0024001,628b806c463b948bc644b84f,6291ceddeb734f021991874a,,,,,,,,,,"X V Q F H G B L J M P D K C T S W R N Z
",,,,,,,,,,,,,,,,,,,,,,,,,,,,,,,,,,,,,,,,,,,,,,,,,,,,,,,,,,,,,,,,,,,,,,,,,,,,4,0,4,0,1,,,,,,,,,,,,,
,,,,,,,,,,610063b7b50c4e9488e77eca,22,Kobieta,2022-05-28_09h27.42.828,task,2021.1.4,MacIntel,60.0024001,628b806c463b948bc644b84f,6291ceddeb734f021991874a,,,,,,,,,,,,,,,,,,,,,,,,,,,,,,,,,,,,,,,,,,,,,,,,,,,,,,,,,,,,,,,,,,,,,,,,,,,,,,,,,,,,,,,,,,,tlbgk,"[""t"",""l"",""b"",""g"",""k""]",0,"[1.9796999999284708,2.984599999904617,3.9685999999046544,5,5.367399999976101,6.2492999999523136]",1,TLBGK,3,0,3,0,1,,
,,,,,,,,,,610063b7b50c4e9488e77eca,22,Kobieta,2022-05-28_09h27.42.828,task,2021.1.4,MacIntel,60.0024001,628b806c463b948bc644b84f,6291ceddeb734f021991874a,,,,,,,,,,,,,,,,,,,,,,,0,,,,,,,,,,Task,8,(1x5) - 5,0,,,,,,,,,,,,,,,,,,1,,,,,,,,,,,,,,,,,,,,,,,,"[""0""]",1,[1.4233999999761409],0,0,0,7,1,,,,,,,,,,,,,,,,,,
,,,,,,,,,,610063b7b50c4e9488e77eca,22,Kobieta,2022-05-28_09h27.42.828,task,2021.1.4,MacIntel,60.0024001,628b806c463b948bc644b84f,6291ceddeb734f021991874a,,,,,,,,,,"X V Q F H G B L J M P D K C T S W R N Z
",,,,,,,,,,,,,,,,,,,,,,,,,,,,,,,,,,,,,,,,,,,,,,,,,,,,,,,,,,,,,,,,,,,,,,,,,,,,0,0,0,0,1,,,,,,,,,,,,,
,,,,,,,,,,610063b7b50c4e9488e77eca,22,Kobieta,2022-05-28_09h27.42.828,task,2021.1.4,MacIntel,60.0024001,628b806c463b948bc644b84f,6291ceddeb734f021991874a,,,,,,,,,,,,,,,,,,,,,,,4,,,,,,,,,,Task,21,(10/2) - 1,4,,,,,,,,,,,,,,,,,,1,,,,,,,,,,,,,,,,,,,,,,,,"[""4""]",1,[1.8332000000476683],0,0,0,20,1,,,,,,,,,,,,,,,,,,
,,,,,,,,,,610063b7b50c4e9488e77eca,22,Kobieta,2022-05-28_09h27.42.828,task,2021.1.4,MacIntel,60.0024001,628b806c463b948bc644b84f,6291ceddeb734f021991874a,,,,,,,,,,"X V Q F H G B L J M P D K C T S W R N Z
",,,,,,,,,,,,,,,,,,,,,,,,,,,,,,,,,,,,,,,,,,,,,,,,,,,,,,,,,,,,,,,,,,,,,,,,,,,,1,0,1,0,1,,,,,,,,,,,,,
,,,,,,,,,,610063b7b50c4e9488e77eca,22,Kobieta,2022-05-28_09h27.42.828,task,2021.1.4,MacIntel,60.0024001,628b806c463b948bc644b84f,6291ceddeb734f021991874a,,,,,,,,,,,,,,,,,,,,,,,0,,,,,,,,,,Task,8,(1x5) - 5,0,,,,,,,,,,,,,,,,,,1,,,,,,,,,,,,,,,,,,,,,,,,"[""0""]",1,[1.402200000047742],0,0,0,7,1,,,,,,,,,,,,,,,,,,
,,,,,,,,,,610063b7b50c4e9488e77eca,22,Kobieta,2022-05-28_09h27.42.828,task,2021.1.4,MacIntel,60.0024001,628b806c463b948bc644b84f,6291ceddeb734f021991874a,,,,,,,,,,"X V Q F H G B L J M P D K C T S W R N Z
",,,,,,,,,,,,,,,,,,,,,,,,,,,,,,,,,,,,,,,,,,,,,,,,,,,,,,,,,,,,,,,,,,,,,,,,,,,,2,0,2,0,1,,,,,,,,,,,,,
,,,,,,,,,,610063b7b50c4e9488e77eca,22,Kobieta,2022-05-28_09h27.42.828,task,2021.1.4,MacIntel,60.0024001,628b806c463b948bc644b84f,6291ceddeb734f021991874a,,,,,,,,,,,,,,,,,,,,,,,6,,,,,,,,,,Task,37,(3/3) + 5,6,,,,,,,,,,,,,,,,,,1,,,,,,,,,,,,,,,,,,,,,,,,"[""6""]",1,[1.8490999999045243],0,0,0,36,1,,,,,,,,,,,,,,,,,,
,,,,,,,,,,610063b7b50c4e9488e77eca,22,Kobieta,2022-05-28_09h27.42.828,task,2021.1.4,MacIntel,60.0024001,628b806c463b948bc644b84f,6291ceddeb734f021991874a,,,,,,,,,,"X V Q F H G B L J M P D K C T S W R N Z
",,,,,,,,,,,,,,,,,,,,,,,,,,,,,,,,,,,,,,,,,,,,,,,,,,,,,,,,,,,,,,,,,,,,,,,,,,,,3,0,3,0,1,,,,,,,,,,,,,
,,,,,,,,,,610063b7b50c4e9488e77eca,22,Kobieta,2022-05-28_09h27.42.828,task,2021.1.4,MacIntel,60.0024001,628b806c463b948bc644b84f,6291ceddeb734f021991874a,,,,,,,,,,,,,,,,,,,,,,,4,,,,,,,,,,Task,21,(10/2) - 1,4,,,,,,,,,,,,,,,,,,1,,,,,,,,,,,,,,,,,,,,,,,,"[""4""]",1,[2.696700000047713],0,0,0,20,1,,,,,,,,,,,,,,,,,,
,,,,,,,,,,610063b7b50c4e9488e77eca,22,Kobieta,2022-05-28_09h27.42.828,task,2021.1.4,MacIntel,60.0024001,628b806c463b948bc644b84f,6291ceddeb734f021991874a,,,,,,,,,,"X V Q F H G B L J M P D K C T S W R N Z
",,,,,,,,,,,,,,,,,,,,,,,,,,,,,,,,,,,,,,,,,,,,,,,,,,,,,,,,,,,,,,,,,,,,,,,,,,,,4,0,4,0,1,,,,,,,,,,,,,
,,,,,,,,,,610063b7b50c4e9488e77eca,22,Kobieta,2022-05-28_09h27.42.828,task,2021.1.4,MacIntel,60.0024001,628b806c463b948bc644b84f,6291ceddeb734f021991874a,,,,,,,,,,,,,,,,,,,,,,,4,,,,,,,,,,Task,28,(2x5) - 6,4,,,,,,,,,,,,,,,,,,1,,,,,,,,,,,,,,,,,,,,,,,,"[""4""]",1,[1.900599999904557],0,0,0,27,1,,,,,,,,,,,,,,,,,,
,,,,,,,,,,610063b7b50c4e9488e77eca,22,Kobieta,2022-05-28_09h27.42.828,task,2021.1.4,MacIntel,60.0024001,628b806c463b948bc644b84f,6291ceddeb734f021991874a,,,,,,,,,,"X V Q F H G B L J M P D K C T S W R N Z
",,,,,,,,,,,,,,,,,,,,,,,,,,,,,,,,,,,,,,,,,,,,,,,,,,,,,,,,,,,,,,,,,,,,,,,,,,,,5,0,5,0,1,,,,,,,,,,,,,
,,,,,,,,,,610063b7b50c4e9488e77eca,22,Kobieta,2022-05-28_09h27.42.828,task,2021.1.4,MacIntel,60.0024001,628b806c463b948bc644b84f,6291ceddeb734f021991874a,,,,,,,,,,,,,,,,,,,,,,,,,,,,,,,,,,,,,,,,,,,,,,,,,,,,,,,,,,,,,,,,,,,,,,,,,,,,,,,,,,,,,,,,,,,mlxmxg,"[""m"",""l"",""x"",""m"",""x"",""g""]",0,"[2.0682999999523872,2.5517999999523227,3.50129999995238,5.201999999999998,5.6557999999523645,6.7241000000238955,7.589299999952345]",1,MLXMXG,4,0,4,0,1,,
,,,,,,,,,,610063b7b50c4e9488e77eca,22,Kobieta,2022-05-28_09h27.42.828,task,2021.1.4,MacIntel,60.0024001,628b806c463b948bc644b84f,6291ceddeb734f021991874a,,,,,,,,,,,,,,,,,,,,,,,9,,,,,,,,,,Task,7,(3x7) - 12,9,,,,,,,,,,,,,,,,,,1,,,,,,,,,,,,,,,,,,,,,,,,"[""9""]",1,[3.3276000000238355],0,0,0,6,1,,,,,,,,,,,,,,,,,,
,,,,,,,,,,610063b7b50c4e9488e77eca,22,Kobieta,2022-05-28_09h27.42.828,task,2021.1.4,MacIntel,60.0024001,628b806c463b948bc644b84f,6291ceddeb734f021991874a,,,,,,,,,,"X V Q F H G B L J M P D K C T S W R N Z
",,,,,,,,,,,,,,,,,,,,,,,,,,,,,,,,,,,,,,,,,,,,,,,,,,,,,,,,,,,,,,,,,,,,,,,,,,,,0,0,0,0,1,,,,,,,,,,,,,
,,,,,,,,,,610063b7b50c4e9488e77eca,22,Kobieta,2022-05-28_09h27.42.828,task,2021.1.4,MacIntel,60.0024001,628b806c463b948bc644b84f,6291ceddeb734f021991874a,,,,,,,,,,,,,,,,,,,,,,,8,,,,,,,,,,Task,15,(3x7) - 13,8,,,,,,,,,,,,,,,,,,1,,,,,,,,,,,,,,,,,,,,,,,,"[""8""]",1,[3.2486000000238846],0,0,0,14,1,,,,,,,,,,,,,,,,,,
,,,,,,,,,,610063b7b50c4e9488e77eca,22,Kobieta,2022-05-28_09h27.42.828,task,2021.1.4,MacIntel,60.0024001,628b806c463b948bc644b84f,6291ceddeb734f021991874a,,,,,,,,,,"X V Q F H G B L J M P D K C T S W R N Z
",,,,,,,,,,,,,,,,,,,,,,,,,,,,,,,,,,,,,,,,,,,,,,,,,,,,,,,,,,,,,,,,,,,,,,,,,,,,1,0,1,0,1,,,,,,,,,,,,,
,,,,,,,,,,610063b7b50c4e9488e77eca,22,Kobieta,2022-05-28_09h27.42.828,task,2021.1.4,MacIntel,60.0024001,628b806c463b948bc644b84f,6291ceddeb734f021991874a,,,,,,,,,,,,,,,,,,,,,,,2,,,,,,,,,,Task,2,(2x2) - 2,2,,,,,,,,,,,,,,,,,,1,,,,,,,,,,,,,,,,,,,,,,,,"[""2""]",1,[2.1322999999523518],0,0,0,1,1,,,,,,,,,,,,,,,,,,
,,,,,,,,,,610063b7b50c4e9488e77eca,22,Kobieta,2022-05-28_09h27.42.828,task,2021.1.4,MacIntel,60.0024001,628b806c463b948bc644b84f,6291ceddeb734f021991874a,,,,,,,,,,"X V Q F H G B L J M P D K C T S W R N Z
",,,,,,,,,,,,,,,,,,,,,,,,,,,,,,,,,,,,,,,,,,,,,,,,,,,,,,,,,,,,,,,,,,,,,,,,,,,,2,0,2,0,1,,,,,,,,,,,,,
,,,,,,,,,,610063b7b50c4e9488e77eca,22,Kobieta,2022-05-28_09h27.42.828,task,2021.1.4,MacIntel,60.0024001,628b806c463b948bc644b84f,6291ceddeb734f021991874a,,,,,,,,,,,,,,,,,,,,,,,7,,,,,,,,,,Task,14,(2x2) + 3,7,,,,,,,,,,,,,,,,,,1,,,,,,,,,,,,,,,,,,,,,,,,"[""7""]",1,[2.0818999999761445],0,0,0,13,1,,,,,,,,,,,,,,,,,,
,,,,,,,,,,610063b7b50c4e9488e77eca,22,Kobieta,2022-05-28_09h27.42.828,task,2021.1.4,MacIntel,60.0024001,628b806c463b948bc644b84f,6291ceddeb734f021991874a,,,,,,,,,,"X V Q F H G B L J M P D K C T S W R N Z
",,,,,,,,,,,,,,,,,,,,,,,,,,,,,,,,,,,,,,,,,,,,,,,,,,,,,,,,,,,,,,,,,,,,,,,,,,,,3,0,3,0,1,,,,,,,,,,,,,
,,,,,,,,,,610063b7b50c4e9488e77eca,22,Kobieta,2022-05-28_09h27.42.828,task,2021.1.4,MacIntel,60.0024001,628b806c463b948bc644b84f,6291ceddeb734f021991874a,,,,,,,,,,,,,,,,,,,,,,,9,,,,,,,,,,Task,7,(3x7) - 12,9,,,,,,,,,,,,,,,,,,1,,,,,,,,,,,,,,,,,,,,,,,,"[""9""]",1,[3.004399999976158],0,0,0,6,1,,,,,,,,,,,,,,,,,,
,,,,,,,,,,610063b7b50c4e9488e77eca,22,Kobieta,2022-05-28_09h27.42.828,task,2021.1.4,MacIntel,60.0024001,628b806c463b948bc644b84f,6291ceddeb734f021991874a,,,,,,,,,,"X V Q F H G B L J M P D K C T S W R N Z
",,,,,,,,,,,,,,,,,,,,,,,,,,,,,,,,,,,,,,,,,,,,,,,,,,,,,,,,,,,,,,,,,,,,,,,,,,,,4,0,4,0,1,,,,,,,,,,,,,
,,,,,,,,,,610063b7b50c4e9488e77eca,22,Kobieta,2022-05-28_09h27.42.828,task,2021.1.4,MacIntel,60.0024001,628b806c463b948bc644b84f,6291ceddeb734f021991874a,,,,,,,,,,,,,,,,,,,,,,,7,,,,,,,,,,Task,6,(12/2) + 1,7,,,,,,,,,,,,,,,,,,1,,,,,,,,,,,,,,,,,,,,,,,,"[""7""]",1,[1.746600000023932],0,0,0,5,1,,,,,,,,,,,,,,,,,,
,,,,,,,,,,610063b7b50c4e9488e77eca,22,Kobieta,2022-05-28_09h27.42.828,task,2021.1.4,MacIntel,60.0024001,628b806c463b948bc644b84f,6291ceddeb734f021991874a,,,,,,,,,,"X V Q F H G B L J M P D K C T S W R N Z
",,,,,,,,,,,,,,,,,,,,,,,,,,,,,,,,,,,,,,,,,,,,,,,,,,,,,,,,,,,,,,,,,,,,,,,,,,,,5,0,5,0,1,,,,,,,,,,,,,
,,,,,,,,,,610063b7b50c4e9488e77eca,22,Kobieta,2022-05-28_09h27.42.828,task,2021.1.4,MacIntel,60.0024001,628b806c463b948bc644b84f,6291ceddeb734f021991874a,,,,,,,,,,,,,,,,,,,,,,,7,,,,,,,,,,Task,36,(8/4) + 3,5,,,,,,,,,,,,,,,,,,0,,,,,,,,,,,,,,,,,,,,,,,,"[""7""]",0,[2.0606000000237827],0,0,0,35,1,,,,,,,,,,,,,,,,,,
,,,,,,,,,,610063b7b50c4e9488e77eca,22,Kobieta,2022-05-28_09h27.42.828,task,2021.1.4,MacIntel,60.0024001,628b806c463b948bc644b84f,6291ceddeb734f021991874a,,,,,,,,,,,,,,,,,,,,,,,,,,,,,,,,,Task,38,(4x6) - 17,7,,,,,,,,,,,,,,,,,,0,,,,,,,,,,,,,,,,,,,,,,,,,0,,0,1,1,37,1,,,,,,,,,,,,,,,,,,
,,,,,,,,,,610063b7b50c4e9488e77eca,22,Kobieta,2022-05-28_09h27.42.828,task,2021.1.4,MacIntel,60.0024001,628b806c463b948bc644b84f,6291ceddeb734f021991874a,,,,,,,,,,,,,,,,,,,,,,,2,,,,,,,,,,Task,19,(6/2) - 1,2,,,,,,,,,,,,,,,,,,1,,,,,,,,,,,,,,,,,,,,,,,,"[""2""]",1,[4.034199999928433],0,2,2,18,1,,,,,,,,,,,,,,,,,,
,,,,,,,,,,610063b7b50c4e9488e77eca,22,Kobieta,2022-05-28_09h27.42.828,task,2021.1.4,MacIntel,60.0024001,628b806c463b948bc644b84f,6291ceddeb734f021991874a,,,,,,,,,,"X V Q F H G B L J M P D K C T S W R N Z
",,,,,,,,,,,,,,,,,,,,,,,,,,,,,,,,,,,,,,,,,,,,,,,,,,,,,,,,,,,,,,,,,,,,,,,,,,,,6,0,6,0,1,,,,,,,,,,,,,
,,,,,,,,,,610063b7b50c4e9488e77eca,22,Kobieta,2022-05-28_09h27.42.828,task,2021.1.4,MacIntel,60.0024001,628b806c463b948bc644b84f,6291ceddeb734f021991874a,,,,,,,,,,,,,,,,,,,,,,,,,,,,,,,,,,,,,,,,,,,,,,,,,,,,,,,,,,,,,,,,,,,,,,,,,,,,,,,,,,,,,,,,,,,cpflbx,"[""c"",""p"",""f"",""l"",""b"",""x""]",0,"[2.366300000071533,3.2327000000476573,4.1817000000477265,5.433800000071528,7.049100000023827,8.215899999976159,8.716600000023845]",0,CPFLBJX,5,0,5,0,1,,
,,,,,,,,,,610063b7b50c4e9488e77eca,22,Kobieta,2022-05-28_09h27.42.828,task,2021.1.4,MacIntel,60.0024001,628b806c463b948bc644b84f,6291ceddeb734f021991874a,,,,,,,,,,,,,,,,,,,,,,,6,,,,,,,,,,Task,37,(3/3) + 5,6,,,,,,,,,,,,,,,,,,1,,,,,,,,,,,,,,,,,,,,,,,,"[""6""]",1,[3.315499999999929],0,0,0,36,1,,,,,,,,,,,,,,,,,,
,,,,,,,,,,610063b7b50c4e9488e77eca,22,Kobieta,2022-05-28_09h27.42.828,task,2021.1.4,MacIntel,60.0024001,628b806c463b948bc644b84f,6291ceddeb734f021991874a,,,,,,,,,,"X V Q F H G B L J M P D K C T S W R N Z
",,,,,,,,,,,,,,,,,,,,,,,,,,,,,,,,,,,,,,,,,,,,,,,,,,,,,,,,,,,,,,,,,,,,,,,,,,,,0,0,0,0,1,,,,,,,,,,,,,
,,,,,,,,,,610063b7b50c4e9488e77eca,22,Kobieta,2022-05-28_09h27.42.828,task,2021.1.4,MacIntel,60.0024001,628b806c463b948bc644b84f,6291ceddeb734f021991874a,,,,,,,,,,,,,,,,,,,,,,,4,,,,,,,,,,Task,4,(1x5) - 1,4,,,,,,,,,,,,,,,,,,1,,,,,,,,,,,,,,,,,,,,,,,,"[""4""]",1,[1.349200000047631],0,0,0,3,1,,,,,,,,,,,,,,,,,,
,,,,,,,,,,610063b7b50c4e9488e77eca,22,Kobieta,2022-05-28_09h27.42.828,task,2021.1.4,MacIntel,60.0024001,628b806c463b948bc644b84f,6291ceddeb734f021991874a,,,,,,,,,,"X V Q F H G B L J M P D K C T S W R N Z
",,,,,,,,,,,,,,,,,,,,,,,,,,,,,,,,,,,,,,,,,,,,,,,,,,,,,,,,,,,,,,,,,,,,,,,,,,,,1,0,1,0,1,,,,,,,,,,,,,
,,,,,,,,,,610063b7b50c4e9488e77eca,22,Kobieta,2022-05-28_09h27.42.828,task,2021.1.4,MacIntel,60.0024001,628b806c463b948bc644b84f,6291ceddeb734f021991874a,,,,,,,,,,,,,,,,,,,,,,,9,,,,,,,,,,Task,24,(2x2) + 5,9,,,,,,,,,,,,,,,,,,1,,,,,,,,,,,,,,,,,,,,,,,,"[""9""]",1,[1.6986999999285217],0,0,0,23,1,,,,,,,,,,,,,,,,,,
,,,,,,,,,,610063b7b50c4e9488e77eca,22,Kobieta,2022-05-28_09h27.42.828,task,2021.1.4,MacIntel,60.0024001,628b806c463b948bc644b84f,6291ceddeb734f021991874a,,,,,,,,,,"X V Q F H G B L J M P D K C T S W R N Z
",,,,,,,,,,,,,,,,,,,,,,,,,,,,,,,,,,,,,,,,,,,,,,,,,,,,,,,,,,,,,,,,,,,,,,,,,,,,2,0,2,0,1,,,,,,,,,,,,,
,,,,,,,,,,610063b7b50c4e9488e77eca,22,Kobieta,2022-05-28_09h27.42.828,task,2021.1.4,MacIntel,60.0024001,628b806c463b948bc644b84f,6291ceddeb734f021991874a,,,,,,,,,,,,,,,,,,,,,,,1,,,,,,,,,,Task,1,(12/6) - 1,1,,,,,,,,,,,,,,,,,,1,,,,,,,,,,,,,,,,,,,,,,,,"[""1""]",1,[2.0322000000476237],0,0,0,0,1,,,,,,,,,,,,,,,,,,
,,,,,,,,,,610063b7b50c4e9488e77eca,22,Kobieta,2022-05-28_09h27.42.828,task,2021.1.4,MacIntel,60.0024001,628b806c463b948bc644b84f,6291ceddeb734f021991874a,,,,,,,,,,"X V Q F H G B L J M P D K C T S W R N Z
",,,,,,,,,,,,,,,,,,,,,,,,,,,,,,,,,,,,,,,,,,,,,,,,,,,,,,,,,,,,,,,,,,,,,,,,,,,,3,0,3,0,1,,,,,,,,,,,,,
,,,,,,,,,,610063b7b50c4e9488e77eca,22,Kobieta,2022-05-28_09h27.42.828,task,2021.1.4,MacIntel,60.0024001,628b806c463b948bc644b84f,6291ceddeb734f021991874a,,,,,,,,,,,,,,,,,,,,,,,1,,,,,,,,,,Task,18,(16/4) - 3,1,,,,,,,,,,,,,,,,,,1,,,,,,,,,,,,,,,,,,,,,,,,"[""1""]",1,[1.7978999999761527],0,0,0,17,1,,,,,,,,,,,,,,,,,,
,,,,,,,,,,610063b7b50c4e9488e77eca,22,Kobieta,2022-05-28_09h27.42.828,task,2021.1.4,MacIntel,60.0024001,628b806c463b948bc644b84f,6291ceddeb734f021991874a,,,,,,,,,,"X V Q F H G B L J M P D K C T S W R N Z
