key_resp_15.keys,key_resp_15.rt,key_resp_16.keys,key_resp_16.rt,key_resp_4.keys,key_resp_4.rt,next_letter.thisRepN,next_letter.thisTrialN,next_letter.thisN,next_letter.thisIndex,next_letter.ran,letter,participant,Wiek*,Płeć,date,expName,psychopyVersion,OS,frameRate,study_id,session,simple_recall,key_resp_5.keys,key_resp_5.rt,simple_recall_corr,simple_recall_corrkeys,next_level.thisRepN,next_level.thisTrialN,next_level.thisN,next_level.thisIndex,next_level.ran,key_resp_2.keys,key_resp_2.rt,digit_answer,key_resp.keys,key_resp.corr,key_resp.rt,RT_list,next_equation.thisRepN,next_equation.thisTrialN,next_equation.thisN,next_equation.thisIndex,next_equation.ran,Task,Trial,Problem,Operation_answer,processing_score,sumRT,meanRT,sumdiff,sd,RT,key_resp_3.keys,key_resp_3.rt,repeat_practice.thisRepN,repeat_practice.thisTrialN,repeat_practice.thisN,repeat_practice.thisIndex,repeat_practice.ran,key_resp_6.keys,key_resp_6.rt,key_resp_11.keys,key_resp_11.corr,key_resp_11.rt,operation_correct,repeat_if_wrong_prac.thisRepN,repeat_if_wrong_prac.thisTrialN,repeat_if_wrong_prac.thisN,repeat_if_wrong_prac.thisIndex,repeat_if_wrong_prac.ran,span_size_prac.thisRepN,span_size_prac.thisTrialN,span_size_prac.thisN,span_size_prac.thisIndex,span_size_prac.ran,complex_recall_practice,key_resp_9.keys,key_resp_9.corr,key_resp_9.rt,complex_prac_corr,span_recall_prac.thisRepN,span_recall_prac.thisTrialN,span_recall_prac.thisN,span_recall_prac.thisIndex,span_recall_prac.ran,key_resp_10.keys,key_resp_10.rt,key_resp_7.keys,key_resp_7.corr,key_resp_7.rt,repeat_if_wrong.thisRepN,repeat_if_wrong.thisTrialN,repeat_if_wrong.thisN,repeat_if_wrong.thisIndex,repeat_if_wrong.ran,span_size.thisRepN,span_size.thisTrialN,span_size.thisN,span_size.thisIndex,span_size.ran,complex_recall,key_resp_8.keys,key_resp_8.corr,key_resp_8.rt,complex_recall_corr,complex_recall_corrkeys,span_recall.thisRepN,span_recall.thisTrialN,span_recall.thisN,span_recall.thisIndex,span_recall.ran,key_resp_13.keys,key_resp_13.corr,random_loop.thisRepN,random_loop.thisTrialN,random_loop.thisN,random_loop.thisIndex,random_loop.ran,key_resp_13.rt,key_resp_12.keys,key_resp_12.rt
space,18.2931,space,30.9687,space,19.238,0,0,0,0,1,X V Q F H G B L J M P D K C T S W R N Z,6108f1b88fcaa95e51f5efc9,20,Kobieta,2022-06-11_09h19.40.864,task,2021.1.4,Win32,59.30494603,6299f149e92ead563fba08ef,62a441f6d5a018147a4fefbe,,,,,,,,,,,,,,,,,,,,,,,,,,,,,,,,,,,,,,,,,,,,,,,,,,,,,,,,,,,,,,,,,,,,,,,,,,,,,,,,,,,,,,,,,,,,,,,,,,,,,
,,,,,,1,0,1,0,1,X V Q F H G B L J M P D K C T S W R N Z,6108f1b88fcaa95e51f5efc9,20,Kobieta,2022-06-11_09h19.40.864,task,2021.1.4,Win32,59.30494603,6299f149e92ead563fba08ef,62a441f6d5a018147a4fefbe,,,,,,,,,,,,,,,,,,,,,,,,,,,,,,,,,,,,,,,,,,,,,,,,,,,,,,,,,,,,,,,,,,,,,,,,,,,,,,,,,,,,,,,,,,,,,,,,,,,,,
,,,,,,,,,,,,6108f1b88fcaa95e51f5efc9,20,Kobieta,2022-06-11_09h19.40.864,task,2021.1.4,Win32,59.30494603,6299f149e92ead563fba08ef,62a441f6d5a018147a4fefbe,zn,"[""z"",""n""]","[3.2478000000715213,4.180899999976148,4.947399999976156]",1,ZN,0,0,0,0,1,,,,,,,,,,,,,,,,,,,,,,,,,,,,,,,,,,,,,,,,,,,,,,,,,,,,,,,,,,,,,,,,,,,,,,,,,,,,,,,,,,,,,,,,,,,
,,,,,,0,0,0,0,1,X V Q F H G B L J M P D K C T S W R N Z,6108f1b88fcaa95e51f5efc9,20,Kobieta,2022-06-11_09h19.40.864,task,2021.1.4,Win32,59.30494603,6299f149e92ead563fba08ef,62a441f6d5a018147a4fefbe,,,,,,,,,,,,,,,,,,,,,,,,,,,,,,,,,,,,,,,,,,,,,,,,,,,,,,,,,,,,,,,,,,,,,,,,,,,,,,,,,,,,,,,,,,,,,,,,,,,,,
,,,,,,1,0,1,0,1,X V Q F H G B L J M P D K C T S W R N Z,6108f1b88fcaa95e51f5efc9,20,Kobieta,2022-06-11_09h19.40.864,task,2021.1.4,Win32,59.30494603,6299f149e92ead563fba08ef,62a441f6d5a018147a4fefbe,,,,,,,,,,,,,,,,,,,,,,,,,,,,,,,,,,,,,,,,,,,,,,,,,,,,,,,,,,,,,,,,,,,,,,,,,,,,,,,,,,,,,,,,,,,,,,,,,,,,,
,,,,,,,,,,,,6108f1b88fcaa95e51f5efc9,20,Kobieta,2022-06-11_09h19.40.864,task,2021.1.4,Win32,59.30494603,6299f149e92ead563fba08ef,62a441f6d5a018147a4fefbe,cz,"[""c"",""z""]","[3.1896000000238445,4.377699999928481,6.2123999999761566]",1,CZ,1,0,1,0,1,,,,,,,,,,,,,,,,,,,,,,,,,,,,,,,,,,,,,,,,,,,,,,,,,,,,,,,,,,,,,,,,,,,,,,,,,,,,,,,,,,,,,,,,,,,
,,,,,,0,0,0,0,1,X V Q F H G B L J M P D K C T S W R N Z,6108f1b88fcaa95e51f5efc9,20,Kobieta,2022-06-11_09h19.40.864,task,2021.1.4,Win32,59.30494603,6299f149e92ead563fba08ef,62a441f6d5a018147a4fefbe,,,,,,,,,,,,,,,,,,,,,,,,,,,,,,,,,,,,,,,,,,,,,,,,,,,,,,,,,,,,,,,,,,,,,,,,,,,,,,,,,,,,,,,,,,,,,,,,,,,,,
,,,,,,1,0,1,0,1,X V Q F H G B L J M P D K C T S W R N Z,6108f1b88fcaa95e51f5efc9,20,Kobieta,2022-06-11_09h19.40.864,task,2021.1.4,Win32,59.30494603,6299f149e92ead563fba08ef,62a441f6d5a018147a4fefbe,,,,,,,,,,,,,,,,,,,,,,,,,,,,,,,,,,,,,,,,,,,,,,,,,,,,,,,,,,,,,,,,,,,,,,,,,,,,,,,,,,,,,,,,,,,,,,,,,,,,,
,,,,,,2,0,2,0,1,X V Q F H G B L J M P D K C T S W R N Z,6108f1b88fcaa95e51f5efc9,20,Kobieta,2022-06-11_09h19.40.864,task,2021.1.4,Win32,59.30494603,6299f149e92ead563fba08ef,62a441f6d5a018147a4fefbe,,,,,,,,,,,,,,,,,,,,,,,,,,,,,,,,,,,,,,,,,,,,,,,,,,,,,,,,,,,,,,,,,,,,,,,,,,,,,,,,,,,,,,,,,,,,,,,,,,,,,
,,,,,,,,,,,,6108f1b88fcaa95e51f5efc9,20,Kobieta,2022-06-11_09h19.40.864,task,2021.1.4,Win32,59.30494603,6299f149e92ead563fba08ef,62a441f6d5a018147a4fefbe,sqh,"[""s"",""q"",""h""]","[1.3297999999523284,1.6537999999523265,2.29229999995232,3.0216999999284866]",1,SQH,2,0,2,0,1,,,,,,,,,,,,,,,,,,,,,,,,,,,,,,,,,,,,,,,,,,,,,,,,,,,,,,,,,,,,,,,,,,,,,,,,,,,,,,,,,,,,,,,,,,,
,,,,,,0,0,0,0,1,X V Q F H G B L J M P D K C T S W R N Z,6108f1b88fcaa95e51f5efc9,20,Kobieta,2022-06-11_09h19.40.864,task,2021.1.4,Win32,59.30494603,6299f149e92ead563fba08ef,62a441f6d5a018147a4fefbe,,,,,,,,,,,,,,,,,,,,,,,,,,,,,,,,,,,,,,,,,,,,,,,,,,,,,,,,,,,,,,,,,,,,,,,,,,,,,,,,,,,,,,,,,,,,,,,,,,,,,
,,,,,,1,0,1,0,1,X V Q F H G B L J M P D K C T S W R N Z,6108f1b88fcaa95e51f5efc9,20,Kobieta,2022-06-11_09h19.40.864,task,2021.1.4,Win32,59.30494603,6299f149e92ead563fba08ef,62a441f6d5a018147a4fefbe,,,,,,,,,,,,,,,,,,,,,,,,,,,,,,,,,,,,,,,,,,,,,,,,,,,,,,,,,,,,,,,,,,,,,,,,,,,,,,,,,,,,,,,,,,,,,,,,,,,,,
,,,,,,2,0,2,0,1,X V Q F H G B L J M P D K C T S W R N Z,6108f1b88fcaa95e51f5efc9,20,Kobieta,2022-06-11_09h19.40.864,task,2021.1.4,Win32,59.30494603,6299f149e92ead563fba08ef,62a441f6d5a018147a4fefbe,,,,,,,,,,,,,,,,,,,,,,,,,,,,,,,,,,,,,,,,,,,,,,,,,,,,,,,,,,,,,,,,,,,,,,,,,,,,,,,,,,,,,,,,,,,,,,,,,,,,,
,,,,,,,,,,,,6108f1b88fcaa95e51f5efc9,20,Kobieta,2022-06-11_09h19.40.864,task,2021.1.4,Win32,59.30494603,6299f149e92ead563fba08ef,62a441f6d5a018147a4fefbe,lfw,"[""l"",""f"",""w""]","[1.4014999999999986,1.9558000000715197,2.5655,5.403700000047678]",1,LFW,3,0,3,0,1,,,,,,,,,,,,,,,,,,,,,,,,,,,,,,,,,,,,,,,,,,,,,,,,,,,,,,,,,,,,,,,,,,,,,,,,,,,,,,,,,,,,,,,,,,,
,,,,,,0,0,0,0,1,X V Q F H G B L J M P D K C T S W R N Z,6108f1b88fcaa95e51f5efc9,20,Kobieta,2022-06-11_09h19.40.864,task,2021.1.4,Win32,59.30494603,6299f149e92ead563fba08ef,62a441f6d5a018147a4fefbe,,,,,,,,,,,,,,,,,,,,,,,,,,,,,,,,,,,,,,,,,,,,,,,,,,,,,,,,,,,,,,,,,,,,,,,,,,,,,,,,,,,,,,,,,,,,,,,,,,,,,
,,,,,,1,0,1,0,1,X V Q F H G B L J M P D K C T S W R N Z,6108f1b88fcaa95e51f5efc9,20,Kobieta,2022-06-11_09h19.40.864,task,2021.1.4,Win32,59.30494603,6299f149e92ead563fba08ef,62a441f6d5a018147a4fefbe,,,,,,,,,,,,,,,,,,,,,,,,,,,,,,,,,,,,,,,,,,,,,,,,,,,,,,,,,,,,,,,,,,,,,,,,,,,,,,,,,,,,,,,,,,,,,,,,,,,,,
,,,,,,2,0,2,0,1,X V Q F H G B L J M P D K C T S W R N Z,6108f1b88fcaa95e51f5efc9,20,Kobieta,2022-06-11_09h19.40.864,task,2021.1.4,Win32,59.30494603,6299f149e92ead563fba08ef,62a441f6d5a018147a4fefbe,,,,,,,,,,,,,,,,,,,,,,,,,,,,,,,,,,,,,,,,,,,,,,,,,,,,,,,,,,,,,,,,,,,,,,,,,,,,,,,,,,,,,,,,,,,,,,,,,,,,,
,,,,,,3,0,3,0,1,X V Q F H G B L J M P D K C T S W R N Z,6108f1b88fcaa95e51f5efc9,20,Kobieta,2022-06-11_09h19.40.864,task,2021.1.4,Win32,59.30494603,6299f149e92ead563fba08ef,62a441f6d5a018147a4fefbe,,,,,,,,,,,,,,,,,,,,,,,,,,,,,,,,,,,,,,,,,,,,,,,,,,,,,,,,,,,,,,,,,,,,,,,,,,,,,,,,,,,,,,,,,,,,,,,,,,,,,
,,,,,,,,,,,,6108f1b88fcaa95e51f5efc9,20,Kobieta,2022-06-11_09h19.40.864,task,2021.1.4,Win32,59.30494603,6299f149e92ead563fba08ef,62a441f6d5a018147a4fefbe,wfmc,"[""w"",""f"",""m"",""c""]","[1.0886999999284797,1.7161999999284774,2.2832999999523196,2.763899999976161,3.7052999999523166]",1,WFMC,4,0,4,0,1,,,,,,,,,,,,,,,,,,,,,,,,,,,,,,,,,,,,,,,,,,,,,,,,,,,,,,,,,,,,,,,,,,,,,,,,,,,,,,,,,,,,,,,,,,,
,,,,,,0,0,0,0,1,X V Q F H G B L J M P D K C T S W R N Z,6108f1b88fcaa95e51f5efc9,20,Kobieta,2022-06-11_09h19.40.864,task,2021.1.4,Win32,59.30494603,6299f149e92ead563fba08ef,62a441f6d5a018147a4fefbe,,,,,,,,,,,,,,,,,,,,,,,,,,,,,,,,,,,,,,,,,,,,,,,,,,,,,,,,,,,,,,,,,,,,,,,,,,,,,,,,,,,,,,,,,,,,,,,,,,,,,
,,,,,,1,0,1,0,1,X V Q F H G B L J M P D K C T S W R N Z,6108f1b88fcaa95e51f5efc9,20,Kobieta,2022-06-11_09h19.40.864,task,2021.1.4,Win32,59.30494603,6299f149e92ead563fba08ef,62a441f6d5a018147a4fefbe,,,,,,,,,,,,,,,,,,,,,,,,,,,,,,,,,,,,,,,,,,,,,,,,,,,,,,,,,,,,,,,,,,,,,,,,,,,,,,,,,,,,,,,,,,,,,,,,,,,,,
,,,,,,2,0,2,0,1,X V Q F H G B L J M P D K C T S W R N Z,6108f1b88fcaa95e51f5efc9,20,Kobieta,2022-06-11_09h19.40.864,task,2021.1.4,Win32,59.30494603,6299f149e92ead563fba08ef,62a441f6d5a018147a4fefbe,,,,,,,,,,,,,,,,,,,,,,,,,,,,,,,,,,,,,,,,,,,,,,,,,,,,,,,,,,,,,,,,,,,,,,,,,,,,,,,,,,,,,,,,,,,,,,,,,,,,,
,,,,,,3,0,3,0,1,X V Q F H G B L J M P D K C T S W R N Z,6108f1b88fcaa95e51f5efc9,20,Kobieta,2022-06-11_09h19.40.864,task,2021.1.4,Win32,59.30494603,6299f149e92ead563fba08ef,62a441f6d5a018147a4fefbe,,,,,,,,,,,,,,,,,,,,,,,,,,,,,,,,,,,,,,,,,,,,,,,,,,,,,,,,,,,,,,,,,,,,,,,,,,,,,,,,,,,,,,,,,,,,,,,,,,,,,
,,,,,,,,,,,,6108f1b88fcaa95e51f5efc9,20,Kobieta,2022-06-11_09h19.40.864,task,2021.1.4,Win32,59.30494603,6299f149e92ead563fba08ef,62a441f6d5a018147a4fefbe,qwtn,"[""q"",""w"",""t"",""n""]","[0.917699999928459,1.2207999999523054,1.8007999999523179,2.3006999999284687,2.911100000023822]",1,QWTN,5,0,5,0,1,,,,,,,,,,,,,,,,,,,,,,,,,,,,,,,,,,,,,,,,,,,,,,,,,,,,,,,,,,,,,,,,,,,,,,,,,,,,,,,,,,,,,,,,,,,
,,,,,,0,0,0,0,1,X V Q F H G B L J M P D K C T S W R N Z,6108f1b88fcaa95e51f5efc9,20,Kobieta,2022-06-11_09h19.40.864,task,2021.1.4,Win32,59.30494603,6299f149e92ead563fba08ef,62a441f6d5a018147a4fefbe,,,,,,,,,,,,,,,,,,,,,,,,,,,,,,,,,,,,,,,,,,,,,,,,,,,,,,,,,,,,,,,,,,,,,,,,,,,,,,,,,,,,,,,,,,,,,,,,,,,,,
,,,,,,1,0,1,0,1,X V Q F H G B L J M P D K C T S W R N Z,6108f1b88fcaa95e51f5efc9,20,Kobieta,2022-06-11_09h19.40.864,task,2021.1.4,Win32,59.30494603,6299f149e92ead563fba08ef,62a441f6d5a018147a4fefbe,,,,,,,,,,,,,,,,,,,,,,,,,,,,,,,,,,,,,,,,,,,,,,,,,,,,,,,,,,,,,,,,,,,,,,,,,,,,,,,,,,,,,,,,,,,,,,,,,,,,,
,,,,,,2,0,2,0,1,X V Q F H G B L J M P D K C T S W R N Z,6108f1b88fcaa95e51f5efc9,20,Kobieta,2022-06-11_09h19.40.864,task,2021.1.4,Win32,59.30494603,6299f149e92ead563fba08ef,62a441f6d5a018147a4fefbe,,,,,,,,,,,,,,,,,,,,,,,,,,,,,,,,,,,,,,,,,,,,,,,,,,,,,,,,,,,,,,,,,,,,,,,,,,,,,,,,,,,,,,,,,,,,,,,,,,,,,
,,,,,,3,0,3,0,1,X V Q F H G B L J M P D K C T S W R N Z,6108f1b88fcaa95e51f5efc9,20,Kobieta,2022-06-11_09h19.40.864,task,2021.1.4,Win32,59.30494603,6299f149e92ead563fba08ef,62a441f6d5a018147a4fefbe,,,,,,,,,,,,,,,,,,,,,,,,,,,,,,,,,,,,,,,,,,,,,,,,,,,,,,,,,,,,,,,,,,,,,,,,,,,,,,,,,,,,,,,,,,,,,,,,,,,,,
,,,,,,4,0,4,0,1,X V Q F H G B L J M P D K C T S W R N Z,6108f1b88fcaa95e51f5efc9,20,Kobieta,2022-06-11_09h19.40.864,task,2021.1.4,Win32,59.30494603,6299f149e92ead563fba08ef,62a441f6d5a018147a4fefbe,,,,,,,,,,,,,,,,,,,,,,,,,,,,,,,,,,,,,,,,,,,,,,,,,,,,,,,,,,,,,,,,,,,,,,,,,,,,,,,,,,,,,,,,,,,,,,,,,,,,,
,,,,,,,,,,,,6108f1b88fcaa95e51f5efc9,20,Kobieta,2022-06-11_09h19.40.864,task,2021.1.4,Win32,59.30494603,6299f149e92ead563fba08ef,62a441f6d5a018147a4fefbe,tcqsk,"[""t"",""c"",""q"",""s"",""k""]","[1.172099999904617,1.6317999999523067,2.179399999976141,2.481699999928452,3.082699999928451,4.513199999928474]",1,TCQSK,6,0,6,0,1,,,,,,,,,,,,,,,,,,,,,,,,,,,,,,,,,,,,,,,,,,,,,,,,,,,,,,,,,,,,,,,,,,,,,,,,,,,,,,,,,,,,,,,,,,,
,,,,,,0,0,0,0,1,X V Q F H G B L J M P D K C T S W R N Z,6108f1b88fcaa95e51f5efc9,20,Kobieta,2022-06-11_09h19.40.864,task,2021.1.4,Win32,59.30494603,6299f149e92ead563fba08ef,62a441f6d5a018147a4fefbe,,,,,,,,,,,,,,,,,,,,,,,,,,,,,,,,,,,,,,,,,,,,,,,,,,,,,,,,,,,,,,,,,,,,,,,,,,,,,,,,,,,,,,,,,,,,,,,,,,,,,
,,,,,,1,0,1,0,1,X V Q F H G B L J M P D K C T S W R N Z,6108f1b88fcaa95e51f5efc9,20,Kobieta,2022-06-11_09h19.40.864,task,2021.1.4,Win32,59.30494603,6299f149e92ead563fba08ef,62a441f6d5a018147a4fefbe,,,,,,,,,,,,,,,,,,,,,,,,,,,,,,,,,,,,,,,,,,,,,,,,,,,,,,,,,,,,,,,,,,,,,,,,,,,,,,,,,,,,,,,,,,,,,,,,,,,,,
,,,,,,2,0,2,0,1,X V Q F H G B L J M P D K C T S W R N Z,6108f1b88fcaa95e51f5efc9,20,Kobieta,2022-06-11_09h19.40.864,task,2021.1.4,Win32,59.30494603,6299f149e92ead563fba08ef,62a441f6d5a018147a4fefbe,,,,,,,,,,,,,,,,,,,,,,,,,,,,,,,,,,,,,,,,,,,,,,,,,,,,,,,,,,,,,,,,,,,,,,,,,,,,,,,,,,,,,,,,,,,,,,,,,,,,,
,,,,,,3,0,3,0,1,X V Q F H G B L J M P D K C T S W R N Z,6108f1b88fcaa95e51f5efc9,20,Kobieta,2022-06-11_09h19.40.864,task,2021.1.4,Win32,59.30494603,6299f149e92ead563fba08ef,62a441f6d5a018147a4fefbe,,,,,,,,,,,,,,,,,,,,,,,,,,,,,,,,,,,,,,,,,,,,,,,,,,,,,,,,,,,,,,,,,,,,,,,,,,,,,,,,,,,,,,,,,,,,,,,,,,,,,
,,,,,,4,0,4,0,1,X V Q F H G B L J M P D K C T S W R N Z,6108f1b88fcaa95e51f5efc9,20,Kobieta,2022-06-11_09h19.40.864,task,2021.1.4,Win32,59.30494603,6299f149e92ead563fba08ef,62a441f6d5a018147a4fefbe,,,,,,,,,,,,,,,,,,,,,,,,,,,,,,,,,,,,,,,,,,,,,,,,,,,,,,,,,,,,,,,,,,,,,,,,,,,,,,,,,,,,,,,,,,,,,,,,,,,,,
,,,,,,,,,,,,6108f1b88fcaa95e51f5efc9,20,Kobieta,2022-06-11_09h19.40.864,task,2021.1.4,Win32,59.30494603,6299f149e92ead563fba08ef,62a441f6d5a018147a4fefbe,grswj,"[""g"",""r"",""s"",""w"",""j""]","[1.3409999999999798,1.7084999999999866,2.031800000071513,2.282800000071518,2.8804999999999836,3.6249000000953515]",1,GRSWJ,7,0,7,0,1,,,,,,,,,,,,,,,,,,,,,,,,,,,,,,,,,,,,,,,,,,,,,,,,,,,,,,,,,,,,,,,,,,,,,,,,,,,,,,,,,,,,,,,,,,,
,,,,,,0,0,0,0,1,X V Q F H G B L J M P D K C T S W R N Z,6108f1b88fcaa95e51f5efc9,20,Kobieta,2022-06-11_09h19.40.864,task,2021.1.4,Win32,59.30494603,6299f149e92ead563fba08ef,62a441f6d5a018147a4fefbe,,,,,,,,,,,,,,,,,,,,,,,,,,,,,,,,,,,,,,,,,,,,,,,,,,,,,,,,,,,,,,,,,,,,,,,,,,,,,,,,,,,,,,,,,,,,,,,,,,,,,
,,,,,,1,0,1,0,1,X V Q F H G B L J M P D K C T S W R N Z,6108f1b88fcaa95e51f5efc9,20,Kobieta,2022-06-11_09h19.40.864,task,2021.1.4,Win32,59.30494603,6299f149e92ead563fba08ef,62a441f6d5a018147a4fefbe,,,,,,,,,,,,,,,,,,,,,,,,,,,,,,,,,,,,,,,,,,,,,,,,,,,,,,,,,,,,,,,,,,,,,,,,,,,,,,,,,,,,,,,,,,,,,,,,,,,,,
,,,,,,2,0,2,0,1,X V Q F H G B L J M P D K C T S W R N Z,6108f1b88fcaa95e51f5efc9,20,Kobieta,2022-06-11_09h19.40.864,task,2021.1.4,Win32,59.30494603,6299f149e92ead563fba08ef,62a441f6d5a018147a4fefbe,,,,,,,,,,,,,,,,,,,,,,,,,,,,,,,,,,,,,,,,,,,,,,,,,,,,,,,,,,,,,,,,,,,,,,,,,,,,,,,,,,,,,,,,,,,,,,,,,,,,,
,,,,,,3,0,3,0,1,X V Q F H G B L J M P D K C T S W R N Z,6108f1b88fcaa95e51f5efc9,20,Kobieta,2022-06-11_09h19.40.864,task,2021.1.4,Win32,59.30494603,6299f149e92ead563fba08ef,62a441f6d5a018147a4fefbe,,,,,,,,,,,,,,,,,,,,,,,,,,,,,,,,,,,,,,,,,,,,,,,,,,,,,,,,,,,,,,,,,,,,,,,,,,,,,,,,,,,,,,,,,,,,,,,,,,,,,
,,,,,,4,0,4,0,1,X V Q F H G B L J M P D K C T S W R N Z,6108f1b88fcaa95e51f5efc9,20,Kobieta,2022-06-11_09h19.40.864,task,2021.1.4,Win32,59.30494603,6299f149e92ead563fba08ef,62a441f6d5a018147a4fefbe,,,,,,,,,,,,,,,,,,,,,,,,,,,,,,,,,,,,,,,,,,,,,,,,,,,,,,,,,,,,,,,,,,,,,,,,,,,,,,,,,,,,,,,,,,,,,,,,,,,,,
,,,,,,5,0,5,0,1,X V Q F H G B L J M P D K C T S W R N Z,6108f1b88fcaa95e51f5efc9,20,Kobieta,2022-06-11_09h19.40.864,task,2021.1.4,Win32,59.30494603,6299f149e92ead563fba08ef,62a441f6d5a018147a4fefbe,,,,,,,,,,,,,,,,,,,,,,,,,,,,,,,,,,,,,,,,,,,,,,,,,,,,,,,,,,,,,,,,,,,,,,,,,,,,,,,,,,,,,,,,,,,,,,,,,,,,,
,,,,,,,,,,,,6108f1b88fcaa95e51f5efc9,20,Kobieta,2022-06-11_09h19.40.864,task,2021.1.4,Win32,59.30494603,6299f149e92ead563fba08ef,62a441f6d5a018147a4fefbe,glkdfg,"[""g"",""l"",""k"",""d"",""f"",""g""]","[0.8636000000238653,1.3800000000000239,1.6131000000238487,2.1497000000476874,2.8526000000238696,5.581800000071553,6.533700000047702]",0,GLKDLF,8,0,8,0,1,,,,,,,,,,,,,,,,,,,,,,,,,,,,,,,,,,,,,,,,,,,,,,,,,,,,,,,,,,,,,,,,,,,,,,,,,,,,,,,,,,,,,,,,,,,
,,,,,,0,0,0,0,1,X V Q F H G B L J M P D K C T S W R N Z,6108f1b88fcaa95e51f5efc9,20,Kobieta,2022-06-11_09h19.40.864,task,2021.1.4,Win32,59.30494603,6299f149e92ead563fba08ef,62a441f6d5a018147a4fefbe,,,,,,,,,,,,,,,,,,,,,,,,,,,,,,,,,,,,,,,,,,,,,,,,,,,,,,,,,,,,,,,,,,,,,,,,,,,,,,,,,,,,,,,,,,,,,,,,,,,,,
,,,,,,1,0,1,0,1,X V Q F H G B L J M P D K C T S W R N Z,6108f1b88fcaa95e51f5efc9,20,Kobieta,2022-06-11_09h19.40.864,task,2021.1.4,Win32,59.30494603,6299f149e92ead563fba08ef,62a441f6d5a018147a4fefbe,,,,,,,,,,,,,,,,,,,,,,,,,,,,,,,,,,,,,,,,,,,,,,,,,,,,,,,,,,,,,,,,,,,,,,,,,,,,,,,,,,,,,,,,,,,,,,,,,,,,,
,,,,,,2,0,2,0,1,X V Q F H G B L J M P D K C T S W R N Z,6108f1b88fcaa95e51f5efc9,20,Kobieta,2022-06-11_09h19.40.864,task,2021.1.4,Win32,59.30494603,6299f149e92ead563fba08ef,62a441f6d5a018147a4fefbe,,,,,,,,,,,,,,,,,,,,,,,,,,,,,,,,,,,,,,,,,,,,,,,,,,,,,,,,,,,,,,,,,,,,,,,,,,,,,,,,,,,,,,,,,,,,,,,,,,,,,
,,,,,,3,0,3,0,1,X V Q F H G B L J M P D K C T S W R N Z,6108f1b88fcaa95e51f5efc9,20,Kobieta,2022-06-11_09h19.40.864,task,2021.1.4,Win32,59.30494603,6299f149e92ead563fba08ef,62a441f6d5a018147a4fefbe,,,,,,,,,,,,,,,,,,,,,,,,,,,,,,,,,,,,,,,,,,,,,,,,,,,,,,,,,,,,,,,,,,,,,,,,,,,,,,,,,,,,,,,,,,,,,,,,,,,,,
,,,,,,4,0,4,0,1,X V Q F H G B L J M P D K C T S W R N Z,6108f1b88fcaa95e51f5efc9,20,Kobieta,2022-06-11_09h19.40.864,task,2021.1.4,Win32,59.30494603,6299f149e92ead563fba08ef,62a441f6d5a018147a4fefbe,,,,,,,,,,,,,,,,,,,,,,,,,,,,,,,,,,,,,,,,,,,,,,,,,,,,,,,,,,,,,,,,,,,,,,,,,,,,,,,,,,,,,,,,,,,,,,,,,,,,,
,,,,,,5,0,5,0,1,X V Q F H G B L J M P D K C T S W R N Z,6108f1b88fcaa95e51f5efc9,20,Kobieta,2022-06-11_09h19.40.864,task,2021.1.4,Win32,59.30494603,6299f149e92ead563fba08ef,62a441f6d5a018147a4fefbe,,,,,,,,,,,,,,,,,,,,,,,,,,,,,,,,,,,,,,,,,,,,,,,,,,,,,,,,,,,,,,,,,,,,,,,,,,,,,,,,,,,,,,,,,,,,,,,,,,,,,
,,,,,,,,,,,,6108f1b88fcaa95e51f5efc9,20,Kobieta,2022-06-11_09h19.40.864,task,2021.1.4,Win32,59.30494603,6299f149e92ead563fba08ef,62a441f6d5a018147a4fefbe,mxczk,"[""m"",""x"",""c"",""z"",""k""]","[3.429300000071521,5.568600000023849,5.98180000007153,6.814700000047679,6.9852000000476835,7.678800000071533]",0,MXNZCV,9,0,9,0,1,,,,,,,,,,,,,,,,,,,,,,,,,,,,,,,,,,,,,,,,,,,,,,,,,,,,,,,,,,,,,,,,,,,,,,,,,,,,,,,,,,,,,,,,,,,
,,,,,,0,0,0,0,1,X V Q F H G B L J M P D K C T S W R N Z,6108f1b88fcaa95e51f5efc9,20,Kobieta,2022-06-11_09h19.40.864,task,2021.1.4,Win32,59.30494603,6299f149e92ead563fba08ef,62a441f6d5a018147a4fefbe,,,,,,,,,,,,,,,,,,,,,,,,,,,,,,,,,,,,,,,,,,,,,,,,,,,,,,,,,,,,,,,,,,,,,,,,,,,,,,,,,,,,,,,,,,,,,,,,,,,,,
,,,,,,1,0,1,0,1,X V Q F H G B L J M P D K C T S W R N Z,6108f1b88fcaa95e51f5efc9,20,Kobieta,2022-06-11_09h19.40.864,task,2021.1.4,Win32,59.30494603,6299f149e92ead563fba08ef,62a441f6d5a018147a4fefbe,,,,,,,,,,,,,,,,,,,,,,,,,,,,,,,,,,,,,,,,,,,,,,,,,,,,,,,,,,,,,,,,,,,,,,,,,,,,,,,,,,,,,,,,,,,,,,,,,,,,,
,,,,,,2,0,2,0,1,X V Q F H G B L J M P D K C T S W R N Z,6108f1b88fcaa95e51f5efc9,20,Kobieta,2022-06-11_09h19.40.864,task,2021.1.4,Win32,59.30494603,6299f149e92ead563fba08ef,62a441f6d5a018147a4fefbe,,,,,,,,,,,,,,,,,,,,,,,,,,,,,,,,,,,,,,,,,,,,,,,,,,,,,,,,,,,,,,,,,,,,,,,,,,,,,,,,,,,,,,,,,,,,,,,,,,,,,
,,,,,,3,0,3,0,1,X V Q F H G B L J M P D K C T S W R N Z,6108f1b88fcaa95e51f5efc9,20,Kobieta,2022-06-11_09h19.40.864,task,2021.1.4,Win32,59.30494603,6299f149e92ead563fba08ef,62a441f6d5a018147a4fefbe,,,,,,,,,,,,,,,,,,,,,,,,,,,,,,,,,,,,,,,,,,,,,,,,,,,,,,,,,,,,,,,,,,,,,,,,,,,,,,,,,,,,,,,,,,,,,,,,,,,,,
,,,,,,4,0,4,0,1,X V Q F H G B L J M P D K C T S W R N Z,6108f1b88fcaa95e51f5efc9,20,Kobieta,2022-06-11_09h19.40.864,task,2021.1.4,Win32,59.30494603,6299f149e92ead563fba08ef,62a441f6d5a018147a4fefbe,,,,,,,,,,,,,,,,,,,,,,,,,,,,,,,,,,,,,,,,,,,,,,,,,,,,,,,,,,,,,,,,,,,,,,,,,,,,,,,,,,,,,,,,,,,,,,,,,,,,,
,,,,,,5,0,5,0,1,X V Q F H G B L J M P D K C T S W R N Z,6108f1b88fcaa95e51f5efc9,20,Kobieta,2022-06-11_09h19.40.864,task,2021.1.4,Win32,59.30494603,6299f149e92ead563fba08ef,62a441f6d5a018147a4fefbe,,,,,,,,,,,,,,,,,,,,,,,,,,,,,,,,,,,,,,,,,,,,,,,,,,,,,,,,,,,,,,,,,,,,,,,,,,,,,,,,,,,,,,,,,,,,,,,,,,,,,
,,,,,,,,,,,,6108f1b88fcaa95e51f5efc9,20,Kobieta,2022-06-11_09h19.40.864,task,2021.1.4,Win32,59.30494603,6299f149e92ead563fba08ef,62a441f6d5a018147a4fefbe,ptfcq,"[""p"",""t"",""f"",""c"",""q""]","[3.724000000000018,4.299000000000007,4.634600000023852,5.031799999952312,5.951999999999998,6.951999999999998]",0,PTVCQG,10,0,10,0,1,,,,,,,,,,,,,,,,,,,,,,,,,,,,,,,,,,,,,,,,,,,,,,,,,,,,,,,,,,,,,,,,,,,,,,,,,,,,,,,,,,,,,,,,,,,
,,,,,,,,,,,,6108f1b88fcaa95e51f5efc9,20,Kobieta,2022-06-11_09h19.40.864,task,2021.1.4,Win32,59.30494603,6299f149e92ead563fba08ef,62a441f6d5a018147a4fefbe,,,,,,,,,,,space,16.7765,7,"[""7""]",1,[15.964200000047668],[15.964200000047668],0,0,0,7,1,Practice,8,(5x5) - 18,7,,,,,,,,,,,,,,,,,,,,,,,,,,,,,,,,,,,,,,,,,,,,,,,,,,,,,,,,,,,,,,,,,,,,,,,,,,,
,,,,,,,,,,,,6108f1b88fcaa95e51f5efc9,20,Kobieta,2022-06-11_09h19.40.864,task,2021.1.4,Win32,59.30494603,6299f149e92ead563fba08ef,62a441f6d5a018147a4fefbe,,,,,,,,,,,,,3,"[""3""]",1,[4.311399999976146],"[15.964200000047668,4.311399999976146]",0,1,1,3,1,Practice,4,(8/4) + 1,3,,,,,,,,,,,,,,,,,,,,,,,,,,,,,,,,,,,,,,,,,,,,,,,,,,,,,,,,,,,,,,,,,,,,,,,,,,,
,,,,,,,,,,,,6108f1b88fcaa95e51f5efc9,20,Kobieta,2022-06-11_09h19.40.864,task,2021.1.4,Win32,59.30494603,6299f149e92ead563fba08ef,62a441f6d5a018147a4fefbe,,,,,,,,,,,,,9,"[""9""]",1,[7.663499999999999],"[15.964200000047668,4.311399999976146,7.663499999999999]",0,2,2,9,1,Practice,10,(20/2) - 1,9,,,,,,,,,,,,,,,,,,,,,,,,,,,,,,,,,,,,,,,,,,,,,,,,,,,,,,,,,,,,,,,,,,,,,,,,,,,
,,,,,,,,,,,,6108f1b88fcaa95e51f5efc9,20,Kobieta,2022-06-11_09h19.40.864,task,2021.1.4,Win32,59.30494603,6299f149e92ead563fba08ef,62a441f6d5a018147a4fefbe,,,,,,,,,,,,,4,"[""4""]",1,[9.050899999976139],"[15.964200000047668,4.311399999976146,7.663499999999999,9.050899999976139]",0,3,3,4,1,Practice,5,(2x6) - 8,4,,,,,,,,,,,,,,,,,,,,,,,,,,,,,,,,,,,,,,,,,,,,,,,,,,,,,,,,,,,,,,,,,,,,,,,,,,,
,,,,,,,,,,,,6108f1b88fcaa95e51f5efc9,20,Kobieta,2022-06-11_09h19.40.864,task,2021.1.4,Win32,59.30494603,6299f149e92ead563fba08ef,62a441f6d5a018147a4fefbe,,,,,,,,,,,,,1,"[""1""]",1,[10.047300000071516],"[15.964200000047668,4.311399999976146,7.663499999999999,9.050899999976139,10.047300000071516]",0,4,4,1,1,Practice,2,(4x4) - 15,1,,,,,,,,,,,,,,,,,,,,,,,,,,,,,,,,,,,,,,,,,,,,,,,,,,,,,,,,,,,,,,,,,,,,,,,,,,,
,,,,,,,,,,,,6108f1b88fcaa95e51f5efc9,20,Kobieta,2022-06-11_09h19.40.864,task,2021.1.4,Win32,59.30494603,6299f149e92ead563fba08ef,62a441f6d5a018147a4fefbe,,,,,,,,,,,,,8,"[""8""]",1,[7.721200000047702],"[15.964200000047668,4.311399999976146,7.663499999999999,9.050899999976139,10.047300000071516,7.721200000047702]",0,5,5,8,1,Practice,9,(3x3) - 1,8,,,,,,,,,,,,,,,,,,,,,,,,,,,,,,,,,,,,,,,,,,,,,,,,,,,,,,,,,,,,,,,,,,,,,,,,,,,
,,,,,,,,,,,,6108f1b88fcaa95e51f5efc9,20,Kobieta,2022-06-11_09h19.40.864,task,2021.1.4,Win32,59.30494603,6299f149e92ead563fba08ef,62a441f6d5a018147a4fefbe,,,,,,,,,,,,,0,"[""0""]",1,[4.034100000023841],"[15.964200000047668,4.311399999976146,7.663499999999999,9.050899999976139,10.047300000071516,7.721200000047702,4.034100000023841]",0,6,6,0,1,Practice,1,(3x3) -  9,0,,,,,,,,,,,,,,,,,,,,,,,,,,,,,,,,,,,,,,,,,,,,,,,,,,,,,,,,,,,,,,,,,,,,,,,,,,,
,,,,,,,,,,,,6108f1b88fcaa95e51f5efc9,20,Kobieta,2022-06-11_09h19.40.864,task,2021.1.4,Win32,59.30494603,6299f149e92ead563fba08ef,62a441f6d5a018147a4fefbe,,,,,,,,,,,,,5,"[""5""]",1,[5.053500000000042],"[15.964200000047668,4.311399999976146,7.663499999999999,9.050899999976139,10.047300000071516,7.721200000047702,4.034100000023841,5.053500000000042]",0,7,7,5,1,Practice,6,(4/2) + 3,5,,,,,,,,,,,,,,,,,,,,,,,,,,,,,,,,,,,,,,,,,,,,,,,,,,,,,,,,,,,,,,,,,,,,,,,,,,,
,,,,,,,,,,,,6108f1b88fcaa95e51f5efc9,20,Kobieta,2022-06-11_09h19.40.864,task,2021.1.4,Win32,59.30494603,6299f149e92ead563fba08ef,62a441f6d5a018147a4fefbe,,,,,,,,,,,,,6,"[""6""]",1,[10.112799999952301],"[15.964200000047668,4.311399999976146,7.663499999999999,9.050899999976139,10.047300000071516,7.721200000047702,4.034100000023841,5.053500000000042,10.112799999952301]",0,8,8,6,1,Practice,7,(25/5) + 1,6,,,,,,,,,,,,,,,,,,,,,,,,,,,,,,,,,,,,,,,,,,,,,,,,,,,,,,,,,,,,,,,,,,,,,,,,,,,
,,,,,,,,,,,,6108f1b88fcaa95e51f5efc9,20,Kobieta,2022-06-11_09h19.40.864,task,2021.1.4,Win32,59.30494603,6299f149e92ead563fba08ef,62a441f6d5a018147a4fefbe,,,,,,,,,,,,,2,"[""2""]",1,[4.183499999999981],"[15.964200000047668,4.311399999976146,7.663499999999999,9.050899999976139,10.047300000071516,7.721200000047702,4.034100000023841,5.053500000000042,10.112799999952301,4.183499999999981]",0,9,9,2,1,Practice,3,(4x4) - 14,2,,,,,,,,,,,,,,,,,,,,,,,,,,,,,,,,,,,,,,,,,,,,,,,,,,,,,,,,,,,,,,,,,,,,,,,,,,,
,,,,,,,,,,,,6108f1b88fcaa95e51f5efc9,20,Kobieta,2022-06-11_09h19.40.864,task,2021.1.4,Win32,59.30494603,6299f149e92ead563fba08ef,62a441f6d5a018147a4fefbe,,,,,,,,,,,,,,,,,,,,,,,,,,,1,78.1424,5.209493333,193.4628467,3.591312172,14.47507874,space,7.0673,0,0,0,0,1,,,,,,,,,,,,,,,,,,,,,,,,,,,,,,,,,,,,,,,,,,,,,,,,,,,,,,,,,,,,,,
,,,,,,,,,,,,6108f1b88fcaa95e51f5efc9,20,Kobieta,2022-06-11_09h19.40.864,task,2021.1.4,Win32,59.30494603,6299f149e92ead563fba08ef,62a441f6d5a018147a4fefbe,,,,,,,,,,,,,0,,,,,,,,,,Practice,1,(3x3) -  9,0,,,,,,,,,,,,,,space,24.7352,"[""0""]",1,[2.930100000023799],1,0,0,0,0,1,,,,,,,,,,,,,,,,,,,,,,,,,,,,,,,,,,,,,,,,,,,,,,,,,,,
,,,,,,,,,,,X V Q F H G B L J M P D K C T S W R N Z,6108f1b88fcaa95e51f5efc9,20,Kobieta,2022-06-11_09h19.40.864,task,2021.1.4,Win32,59.30494603,6299f149e92ead563fba08ef,62a441f6d5a018147a4fefbe,,,,,,,,,,,,,,,,,,,,,,,,,,,,,,,,,,,,,,,,,,,,,,,,,,,0,0,0,0,1,,,,,,,,,,,,,,,,,,,,,,,,,,,,,,,,,,,,,,,,,,,,,,
,,,,,,,,,,,,6108f1b88fcaa95e51f5efc9,20,Kobieta,2022-06-11_09h19.40.864,task,2021.1.4,Win32,59.30494603,6299f149e92ead563fba08ef,62a441f6d5a018147a4fefbe,,,,,,,,,,,,,1,,,,,,,,,,Practice,2,(4x4) - 15,1,,,,,,,,,,,,,,,,"[""1""]",1,[6.0297999999522744],1,0,0,0,1,1,,,,,,,,,,,,,,,,,,,,,,,,,,,,,,,,,,,,,,,,,,,,,,,,,,,
,,,,,,,,,,,X V Q F H G B L J M P D K C T S W R N Z,6108f1b88fcaa95e51f5efc9,20,Kobieta,2022-06-11_09h19.40.864,task,2021.1.4,Win32,59.30494603,6299f149e92ead563fba08ef,62a441f6d5a018147a4fefbe,,,,,,,,,,,,,,,,,,,,,,,,,,,,,,,,,,,,,,,,,,,,,,,,,,,1,0,1,0,1,,,,,,,,,,,,,,,,,,,,,,,,,,,,,,,,,,,,,,,,,,,,,,
,,,,,,,,,,,,6108f1b88fcaa95e51f5efc9,20,Kobieta,2022-06-11_09h19.40.864,task,2021.1.4,Win32,59.30494603,6299f149e92ead563fba08ef,62a441f6d5a018147a4fefbe,,,,,,,,,,,,,,,,,,,,,,,,,,,,,,,,,,,,,,,,,,,,,,,,,,,,,,,,zt,"[""z"",""t""]",0,"[4.082799999952329,4.659600000023886,6.1033999999762045]",1,0,0,0,0,1,,,,,,,,,,,,,,,,,,,,,,,,,,,,,,,,,,,,
,,,,,,,,,,,,6108f1b88fcaa95e51f5efc9,20,Kobieta,2022-06-11_09h19.40.864,task,2021.1.4,Win32,59.30494603,6299f149e92ead563fba08ef,62a441f6d5a018147a4fefbe,,,,,,,,,,,,,3,,,,,,,,,,Practice,4,(8/4) + 1,3,,,,,,,,,,,,,,,,"[""3""]",1,[9.247600000023851],1,0,0,0,3,1,,,,,,,,,,,,,,,,,,,,,,,,,,,,,,,,,,,,,,,,,,,,,,,,,,,
,,,,,,,,,,,X V Q F H G B L J M P D K C T S W R N Z,6108f1b88fcaa95e51f5efc9,20,Kobieta,2022-06-11_09h19.40.864,task,2021.1.4,Win32,59.30494603,6299f149e92ead563fba08ef,62a441f6d5a018147a4fefbe,,,,,,,,,,,,,,,,,,,,,,,,,,,,,,,,,,,,,,,,,,,,,,,,,,,0,0,0,0,1,,,,,,,,,,,,,,,,,,,,,,,,,,,,,,,,,,,,,,,,,,,,,,
,,,,,,,,,,,,6108f1b88fcaa95e51f5efc9,20,Kobieta,2022-06-11_09h19.40.864,task,2021.1.4,Win32,59.30494603,6299f149e92ead563fba08ef,62a441f6d5a018147a4fefbe,,,,,,,,,,,,,6,,,,,,,,,,Practice,7,(25/5) + 1,6,,,,,,,,,,,,,,,,"[""6""]",1,[3.91960000002382],1,0,0,0,6,1,,,,,,,,,,,,,,,,,,,,,,,,,,,,,,,,,,,,,,,,,,,,,,,,,,,
,,,,,,,,,,,X V Q F H G B L J M P D K C T S W R N Z,6108f1b88fcaa95e51f5efc9,20,Kobieta,2022-06-11_09h19.40.864,task,2021.1.4,Win32,59.30494603,6299f149e92ead563fba08ef,62a441f6d5a018147a4fefbe,,,,,,,,,,,,,,,,,,,,,,,,,,,,,,,,,,,,,,,,,,,,,,,,,,,1,0,1,0,1,,,,,,,,,,,,,,,,,,,,,,,,,,,,,,,,,,,,,,,,,,,,,,
,,,,,,,,,,,,6108f1b88fcaa95e51f5efc9,20,Kobieta,2022-06-11_09h19.40.864,task,2021.1.4,Win32,59.30494603,6299f149e92ead563fba08ef,62a441f6d5a018147a4fefbe,,,,,,,,,,,,,,,,,,,,,,,,,,,,,,,,,,,,,,,,,,,,,,,,,,,,,,,,lc,"[""l"",""c""]",0,"[2.1762999999523345,2.6475000000000364,3.2107999999523145]",1,1,0,1,0,1,,,,,,,,,,,,,,,,,,,,,,,,,,,,,,,,,,,,
,,,,,,,,,,,,6108f1b88fcaa95e51f5efc9,20,Kobieta,2022-06-11_09h19.40.864,task,2021.1.4,Win32,59.30494603,6299f149e92ead563fba08ef,62a441f6d5a018147a4fefbe,,,,,,,,,,,,,8,,,,,,,,,,Practice,9,(3x3) - 1,8,,,,,,,,,,,,,,,,"[""8""]",1,[9.876000000000033],1,0,0,0,8,1,,,,,,,,,,,,,,,,,,,,,,,,,,,,,,,,,,,,,,,,,,,,,,,,,,,
,,,,,,,,,,,X V Q F H G B L J M P D K C T S W R N Z,6108f1b88fcaa95e51f5efc9,20,Kobieta,2022-06-11_09h19.40.864,task,2021.1.4,Win32,59.30494603,6299f149e92ead563fba08ef,62a441f6d5a018147a4fefbe,,,,,,,,,,,,,,,,,,,,,,,,,,,,,,,,,,,,,,,,,,,,,,,,,,,0,0,0,0,1,,,,,,,,,,,,,,,,,,,,,,,,,,,,,,,,,,,,,,,,,,,,,,
,,,,,,,,,,,,6108f1b88fcaa95e51f5efc9,20,Kobieta,2022-06-11_09h19.40.864,task,2021.1.4,Win32,59.30494603,6299f149e92ead563fba08ef,62a441f6d5a018147a4fefbe,,,,,,,,,,,,,1,,,,,,,,,,Practice,2,(4x4) - 15,1,,,,,,,,,,,,,,,,"[""1""]",1,[2.6329999999999814],1,0,0,0,1,1,,,,,,,,,,,,,,,,,,,,,,,,,,,,,,,,,,,,,,,,,,,,,,,,,,,
,,,,,,,,,,,X V Q F H G B L J M P D K C T S W R N Z,6108f1b88fcaa95e51f5efc9,20,Kobieta,2022-06-11_09h19.40.864,task,2021.1.4,Win32,59.30494603,6299f149e92ead563fba08ef,62a441f6d5a018147a4fefbe,,,,,,,,,,,,,,,,,,,,,,,,,,,,,,,,,,,,,,,,,,,,,,,,,,,1,0,1,0,1,,,,,,,,,,,,,,,,,,,,,,,,,,,,,,,,,,,,,,,,,,,,,,
,,,,,,,,,,,,6108f1b88fcaa95e51f5efc9,20,Kobieta,2022-06-11_09h19.40.864,task,2021.1.4,Win32,59.30494603,6299f149e92ead563fba08ef,62a441f6d5a018147a4fefbe,,,,,,,,,,,,,,,,,,,,,,,,,,,,,,,,,,,,,,,,,,,,,,,,,,,,,,,,hg,"[""h"",""g""]",0,"[2.0386000000238482,2.298600000023839,7.253299999952333]",1,2,0,2,0,1,,,,,,,,,,,,,,,,,,,,,,,,,,,,,,,,,,,,
,,,,,,,,,,,,6108f1b88fcaa95e51f5efc9,20,Kobieta,2022-06-11_09h19.40.864,task,2021.1.4,Win32,59.30494603,6299f149e92ead563fba08ef,62a441f6d5a018147a4fefbe,,,,,,,,,,,,,2,,,,,,,,,,Task,19,(6/2) - 1,2,,,,,,,,,,,,,,,,,,,1,,,,,,,,,,,,,,,,,,,,,space,27.4591,"[""2""]",1,[6.49829999995228],0,0,0,18,1,,,,,,,,,,,,,,,,,,,,,,,,,,
,,,,,,,,,,,X V Q F H G B L J M P D K C T S W R N Z,6108f1b88fcaa95e51f5efc9,20,Kobieta,2022-06-11_09h19.40.864,task,2021.1.4,Win32,59.30494603,6299f149e92ead563fba08ef,62a441f6d5a018147a4fefbe,,,,,,,,,,,,,,,,,,,,,,,,,,,,,,,,,,,,,,,,,,,,,,,,,,,,,,,,,,,,,,,,,,,,,,,,,,,,0,0,0,0,1,,,,,,,,,,,,,,,,,,,,,
,,,,,,,,,,,,6108f1b88fcaa95e51f5efc9,20,Kobieta,2022-06-11_09h19.40.864,task,2021.1.4,Win32,59.30494603,6299f149e92ead563fba08ef,62a441f6d5a018147a4fefbe,,,,,,,,,,,,,1,,,,,,,,,,Task,9,(3x7) - 20,1,,,,,,,,,,,,,,,,,,,1,,,,,,,,,,,,,,,,,,,,,,,"[""1""]",1,[12.021700000047701],0,0,0,8,1,,,,,,,,,,,,,,,,,,,,,,,,,,
,,,,,,,,,,,X V Q F H G B L J M P D K C T S W R N Z,6108f1b88fcaa95e51f5efc9,20,Kobieta,2022-06-11_09h19.40.864,task,2021.1.4,Win32,59.30494603,6299f149e92ead563fba08ef,62a441f6d5a018147a4fefbe,,,,,,,,,,,,,,,,,,,,,,,,,,,,,,,,,,,,,,,,,,,,,,,,,,,,,,,,,,,,,,,,,,,,,,,,,,,,1,0,1,0,1,,,,,,,,,,,,,,,,,,,,,
,,,,,,,,,,,,6108f1b88fcaa95e51f5efc9,20,Kobieta,2022-06-11_09h19.40.864,task,2021.1.4,Win32,59.30494603,6299f149e92ead563fba08ef,62a441f6d5a018147a4fefbe,,,,,,,,,,,,,,,,,,,,,,,,,,,,,,,,,,,,,,,,,,,,,,,,,,,,,,,,,,,,,,,,,,,,,,,,,,,,,,,,,zl,"[""z"",""l""]",0,"[2.4021999999284276,3.3016999999284735,3.8358999999761068]",1,ZL,0,0,0,0,1,,,,,,,,,,
,,,,,,,,,,,,6108f1b88fcaa95e51f5efc9,20,Kobieta,2022-06-11_09h19.40.864,task,2021.1.4,Win32,59.30494603,6299f149e92ead563fba08ef,62a441f6d5a018147a4fefbe,,,,,,,,,,,,,5,,,,,,,,,,Task,29,(3x8) - 19 ,5,,,,,,,,,,,,,,,,,,,1,,,,,,,,,,,,,,,,,,,,,,,"[""5""]",1,[7.520400000095378],0,0,0,28,1,,,,,,,,,,,,,,,,,,,,,,,,,,
,,,,,,,,,,,X V Q F H G B L J M P D K C T S W R N Z,6108f1b88fcaa95e51f5efc9,20,Kobieta,2022-06-11_09h19.40.864,task,2021.1.4,Win32,59.30494603,6299f149e92ead563fba08ef,62a441f6d5a018147a4fefbe,,,,,,,,,,,,,,,,,,,,,,,,,,,,,,,,,,,,,,,,,,,,,,,,,,,,,,,,,,,,,,,,,,,,,,,,,,,,0,0,0,0,1,,,,,,,,,,,,,,,,,,,,,
,,,,,,,,,,,,6108f1b88fcaa95e51f5efc9,20,Kobieta,2022-06-11_09h19.40.864,task,2021.1.4,Win32,59.30494603,6299f149e92ead563fba08ef,62a441f6d5a018147a4fefbe,,,,,,,,,,,,,3,,,,,,,,,,Task,27,(3/3) + 2,3,,,,,,,,,,,,,,,,,,,1,,,,,,,,,,,,,,,,,,,,,,,"[""3""]",1,[7.879100000023868],0,0,0,26,1,,,,,,,,,,,,,,,,,,,,,,,,,,
,,,,,,,,,,,X V Q F H G B L J M P D K C T S W R N Z,6108f1b88fcaa95e51f5efc9,20,Kobieta,2022-06-11_09h19.40.864,task,2021.1.4,Win32,59.30494603,6299f149e92ead563fba08ef,62a441f6d5a018147a4fefbe,,,,,,,,,,,,,,,,,,,,,,,,,,,,,,,,,,,,,,,,,,,,,,,,,,,,,,,,,,,,,,,,,,,,,,,,,,,,1,0,1,0,1,,,,,,,,,,,,,,,,,,,,,
,,,,,,,,,,,,6108f1b88fcaa95e51f5efc9,20,Kobieta,2022-06-11_09h19.40.864,task,2021.1.4,Win32,59.30494603,6299f149e92ead563fba08ef,62a441f6d5a018147a4fefbe,,,,,,,,,,,,,4,,,,,,,,,,Task,4,(1x5) - 1,4,,,,,,,,,,,,,,,,,,,1,,,,,,,,,,,,,,,,,,,,,,,"[""4""]",1,[4.701000000000022],0,0,0,3,1,,,,,,,,,,,,,,,,,,,,,,,,,,
,,,,,,,,,,,X V Q F H G B L J M P D K C T S W R N Z,6108f1b88fcaa95e51f5efc9,20,Kobieta,2022-06-11_09h19.40.864,task,2021.1.4,Win32,59.30494603,6299f149e92ead563fba08ef,62a441f6d5a018147a4fefbe,,,,,,,,,,,,,,,,,,,,,,,,,,,,,,,,,,,,,,,,,,,,,,,,,,,,,,,,,,,,,,,,,,,,,,,,,,,,2,0,2,0,1,,,,,,,,,,,,,,,,,,,,,
,,,,,,,,,,,,6108f1b88fcaa95e51f5efc9,20,Kobieta,2022-06-11_09h19.40.864,task,2021.1.4,Win32,59.30494603,6299f149e92ead563fba08ef,62a441f6d5a018147a4fefbe,,,,,,,,,,,,,,,,,,,,,,,,,,,,,,,,,,,,,,,,,,,,,,,,,,,,,,,,,,,,,,,,,,,,,,,,,,,,,,,,,zlb,"[""z"",""l"",""b""]",0,"[1.4876000000238605,2.174399999976174,2.5867000000476423,9.388800000071512]",1,ZLB,1,0,1,0,1,,,,,,,,,,
,,,,,,,,,,,,6108f1b88fcaa95e51f5efc9,20,Kobieta,2022-06-11_09h19.40.864,task,2021.1.4,Win32,59.30494603,6299f149e92ead563fba08ef,62a441f6d5a018147a4fefbe,,,,,,,,,,,,,,,,,,,,,,,Task,10,(2x5) - 8,2,,,,,,,,,,,,,,,,,,,0,,,,,,,,,,,,,,,,,,,,,,,,0,,0,0,0,9,1,,,,,,,,,,,,,,,,,,,,,,,,,,
,,,,,,,,,,,,6108f1b88fcaa95e51f5efc9,20,Kobieta,2022-06-11_09h19.40.864,task,2021.1.4,Win32,59.30494603,6299f149e92ead563fba08ef,62a441f6d5a018147a4fefbe,,,,,,,,,,,,,2,,,,,,,,,,Task,2,(2x2) - 2,2,,,,,,,,,,,,,,,,,,,1,,,,,,,,,,,,,,,,,,,,,,,"[""2""]",1,[3.929499999999962],0,1,1,1,1,,,,,,,,,,,,,,,,,,,,,,,,,,
,,,,,,,,,,,X V Q F H G B L J M P D K C T S W R N Z,6108f1b88fcaa95e51f5efc9,20,Kobieta,2022-06-11_09h19.40.864,task,2021.1.4,Win32,59.30494603,6299f149e92ead563fba08ef,62a441f6d5a018147a4fefbe,,,,,,,,,,,,,,,,,,,,,,,,,,,,,,,,,,,,,,,,,,,,,,,,,,,,,,,,,,,,,,,,,,,,,,,,,,,,0,0,0,0,1,,,,,,,,,,,,,,,,,,,,,
,,,,,,,,,,,,6108f1b88fcaa95e51f5efc9,20,Kobieta,2022-06-11_09h19.40.864,task,2021.1.4,Win32,59.30494603,6299f149e92ead563fba08ef,62a441f6d5a018147a4fefbe,,,,,,,,,,,,,9,,,,,,,,,,Task,40,(7x2) - 5,9,,,,,,,,,,,,,,,,,,,1,,,,,,,,,,,,,,,,,,,,,,,"[""9""]",1,[3.4532999999522644],0,0,0,39,1,,,,,,,,,,,,,,,,,,,,,,,,,,
,,,,,,,,,,,X V Q F H G B L J M P D K C T S W R N Z,6108f1b88fcaa95e51f5efc9,20,Kobieta,2022-06-11_09h19.40.864,task,2021.1.4,Win32,59.30494603,6299f149e92ead563fba08ef,62a441f6d5a018147a4fefbe,,,,,,,,,,,,,,,,,,,,,,,,,,,,,,,,,,,,,,,,,,,,,,,,,,,,,,,,,,,,,,,,,,,,,,,,,,,,1,0,1,0,1,,,,,,,,,,,,,,,,,,,,,
,,,,,,,,,,,,6108f1b88fcaa95e51f5efc9,20,Kobieta,2022-06-11_09h19.40.864,task,2021.1.4,Win32,59.30494603,6299f149e92ead563fba08ef,62a441f6d5a018147a4fefbe,,,,,,,,,,,,,2,,,,,,,,,,Task,26,(2x9) - 16,2,,,,,,,,,,,,,,,,,,,1,,,,,,,,,,,,,,,,,,,,,,,"[""2""]",1,[3.884999999999991],0,0,0,25,1,,,,,,,,,,,,,,,,,,,,,,,,,,
,,,,,,,,,,,X V Q F H G B L J M P D K C T S W R N Z,6108f1b88fcaa95e51f5efc9,20,Kobieta,2022-06-11_09h19.40.864,task,2021.1.4,Win32,59.30494603,6299f149e92ead563fba08ef,62a441f6d5a018147a4fefbe,,,,,,,,,,,,,,,,,,,,,,,,,,,,,,,,,,,,,,,,,,,,,,,,,,,,,,,,,,,,,,,,,,,,,,,,,,,,2,0,2,0,1,,,,,,,,,,,,,,,,,,,,,
,,,,,,,,,,,,6108f1b88fcaa95e51f5efc9,20,Kobieta,2022-06-11_09h19.40.864,task,2021.1.4,Win32,59.30494603,6299f149e92ead563fba08ef,62a441f6d5a018147a4fefbe,,,,,,,,,,,,,6,,,,,,,,,,Task,15,(3x7) - 13,8,,,,,,,,,,,,,,,,,,,0,,,,,,,,,,,,,,,,,,,,,,,"[""6""]",0,[10.368800000071474],0,0,0,14,1,,,,,,,,,,,,,,,,,,,,,,,,,,
,,,,,,,,,,,,6108f1b88fcaa95e51f5efc9,20,Kobieta,2022-06-11_09h19.40.864,task,2021.1.4,Win32,59.30494603,6299f149e92ead563fba08ef,62a441f6d5a018147a4fefbe,,,,,,,,,,,,,4,,,,,,,,,,Task,4,(1x5) - 1,4,,,,,,,,,,,,,,,,,,,1,,,,,,,,,,,,,,,,,,,,,,,"[""4""]",1,[3.7731999999284653],0,1,1,3,1,,,,,,,,,,,,,,,,,,,,,,,,,,
,,,,,,,,,,,X V Q F H G B L J M P D K C T S W R N Z,6108f1b88fcaa95e51f5efc9,20,Kobieta,2022-06-11_09h19.40.864,task,2021.1.4,Win32,59.30494603,6299f149e92ead563fba08ef,62a441f6d5a018147a4fefbe,,,,,,,,,,,,,,,,,,,,,,,,,,,,,,,,,,,,,,,,,,,,,,,,,,,,,,,,,,,,,,,,,,,,,,,,,,,,3,0,3,0,1,,,,,,,,,,,,,,,,,,,,,
,,,,,,,,,,,,6108f1b88fcaa95e51f5efc9,20,Kobieta,2022-06-11_09h19.40.864,task,2021.1.4,Win32,59.30494603,6299f149e92ead563fba08ef,62a441f6d5a018147a4fefbe,,,,,,,,,,,,,,,,,,,,,,,,,,,,,,,,,,,,,,,,,,,,,,,,,,,,,,,,,,,,,,,,,,,,,,,,,,,,,,,,,hchg,"[""h"",""c"",""h"",""g""]",0,"[1.8977999999523263,2.364399999976172,3.0168999999762036,3.375899999976127,4.030200000047671]",1,HCHG,2,0,2,0,1,,,,,,,,,,
,,,,,,,,,,,,6108f1b88fcaa95e51f5efc9,20,Kobieta,2022-06-11_09h19.40.864,task,2021.1.4,Win32,59.30494603,6299f149e92ead563fba08ef,62a441f6d5a018147a4fefbe,,,,,,,,,,,,,4,,,,,,,,,,Task,28,(2x5) - 6,4,,,,,,,,,,,,,,,,,,,1,,,,,,,,,,,,,,,,,,,,,,,"[""4""]",1,[2.3302000000476255],0,0,0,27,1,,,,,,,,,,,,,,,,,,,,,,,,,,
,,,,,,,,,,,X V Q F H G B L J M P D K C T S W R N Z,6108f1b88fcaa95e51f5efc9,20,Kobieta,2022-06-11_09h19.40.864,task,2021.1.4,Win32,59.30494603,6299f149e92ead563fba08ef,62a441f6d5a018147a4fefbe,,,,,,,,,,,,,,,,,,,,,,,,,,,,,,,,,,,,,,,,,,,,,,,,,,,,,,,,,,,,,,,,,,,,,,,,,,,,0,0,0,0,1,,,,,,,,,,,,,,,,,,,,,
,,,,,,,,,,,,6108f1b88fcaa95e51f5efc9,20,Kobieta,2022-06-11_09h19.40.864,task,2021.1.4,Win32,59.30494603,6299f149e92ead563fba08ef,62a441f6d5a018147a4fefbe,,,,,,,,,,,,,6,,,,,,,,,,Task,30,(6/3) + 4 ,6,,,,,,,,,,,,,,,,,,,1,,,,,,,,,,,,,,,,,,,,,,,"[""6""]",1,[5.10320000004765],0,0,0,29,1,,,,,,,,,,,,,,,,,,,,,,,,,,
,,,,,,,,,,,X V Q F H G B L J M P D K C T S W R N Z,6108f1b88fcaa95e51f5efc9,20,Kobieta,2022-06-11_09h19.40.864,task,2021.1.4,Win32,59.30494603,6299f149e92ead563fba08ef,62a441f6d5a018147a4fefbe,,,,,,,,,,,,,,,,,,,,,,,,,,,,,,,,,,,,,,,,,,,,,,,,,,,,,,,,,,,,,,,,,,,,,,,,,,,,1,0,1,0,1,,,,,,,,,,,,,,,,,,,,,
,,,,,,,,,,,,6108f1b88fcaa95e51f5efc9,20,Kobieta,2022-06-11_09h19.40.864,task,2021.1.4,Win32,59.30494603,6299f149e92ead563fba08ef,62a441f6d5a018147a4fefbe,,,,,,,,,,,,,9,,,,,,,,,,Task,7,(3x7) - 12,9,,,,,,,,,,,,,,,,,,,1,,,,,,,,,,,,,,,,,,,,,,,"[""9""]",1,[14.015800000071522],0,0,0,6,1,,,,,,,,,,,,,,,,,,,,,,,,,,
,,,,,,,,,,,X V Q F H G B L J M P D K C T S W R N Z,6108f1b88fcaa95e51f5efc9,20,Kobieta,2022-06-11_09h19.40.864,task,2021.1.4,Win32,59.30494603,6299f149e92ead563fba08ef,62a441f6d5a018147a4fefbe,,,,,,,,,,,,,,,,,,,,,,,,,,,,,,,,,,,,,,,,,,,,,,,,,,,,,,,,,,,,,,,,,,,,,,,,,,,,2,0,2,0,1,,,,,,,,,,,,,,,,,,,,,
,,,,,,,,,,,,6108f1b88fcaa95e51f5efc9,20,Kobieta,2022-06-11_09h19.40.864,task,2021.1.4,Win32,59.30494603,6299f149e92ead563fba08ef,62a441f6d5a018147a4fefbe,,,,,,,,,,,,,5,,,,,,,,,,Task,29,(3x8) - 19 ,5,,,,,,,,,,,,,,,,,,,1,,,,,,,,,,,,,,,,,,,,,,,"[""5""]",1,[8.351499999999987],0,0,0,28,1,,,,,,,,,,,,,,,,,,,,,,,,,,
,,,,,,,,,,,X V Q F H G B L J M P D K C T S W R N Z,6108f1b88fcaa95e51f5efc9,20,Kobieta,2022-06-11_09h19.40.864,task,2021.1.4,Win32,59.30494603,6299f149e92ead563fba08ef,62a441f6d5a018147a4fefbe,,,,,,,,,,,,,,,,,,,,,,,,,,,,,,,,,,,,,,,,,,,,,,,,,,,,,,,,,,,,,,,,,,,,,,,,,,,,3,0,3,0,1,,,,,,,,,,,,,,,,,,,,,
,,,,,,,,,,,,6108f1b88fcaa95e51f5efc9,20,Kobieta,2022-06-11_09h19.40.864,task,2021.1.4,Win32,59.30494603,6299f149e92ead563fba08ef,62a441f6d5a018147a4fefbe,,,,,,,,,,,,,1,,,,,,,,,,Task,16,(3x8) - 15,9,,,,,,,,,,,,,,,,,,,0,,,,,,,,,,,,,,,,,,,,,,,"[""1""]",0,[6.663299999952301],0,0,0,15,1,,,,,,,,,,,,,,,,,,,,,,,,,,
,,,,,,,,,,,,6108f1b88fcaa95e51f5efc9,20,Kobieta,2022-06-11_09h19.40.864,task,2021.1.4,Win32,59.30494603,6299f149e92ead563fba08ef,62a441f6d5a018147a4fefbe,,,,,,,,,,,,,1,,,,,,,,,,Task,18,(16/4) - 3,1,,,,,,,,,,,,,,,,,,,1,,,,,,,,,,,,,,,,,,,,,,,"[""1""]",1,[5.34699999999998],0,1,1,17,1,,,,,,,,,,,,,,,,,,,,,,,,,,
,,,,,,,,,,,X V Q F H G B L J M P D K C T S W R N Z,6108f1b88fcaa95e51f5efc9,20,Kobieta,2022-06-11_09h19.40.864,task,2021.1.4,Win32,59.30494603,6299f149e92ead563fba08ef,62a441f6d5a018147a4fefbe,,,,,,,,,,,,,,,,,,,,,,,,,,,,,,,,,,,,,,,,,,,,,,,,,,,,,,,,,,,,,,,,,,,,,,,,,,,,4,0,4,0,1,,,,,,,,,,,,,,,,,,,,,
,,,,,,,,,,,,6108f1b88fcaa95e51f5efc9,20,Kobieta,2022-06-11_09h19.40.864,task,2021.1.4,Win32,59.30494603,6299f149e92ead563fba08ef,62a441f6d5a018147a4fefbe,,,,,,,,,,,,,,,,,,,,,,,,,,,,,,,,,,,,,,,,,,,,,,,,,,,,,,,,,,,,,,,,,,,,,,,,,,,,,,,,,hlzpx,"[""h"",""l"",""z"",""p"",""x""]",0,"[1.8016000000238819,2.4352000000477574,3.068499999999972,3.7353999999761527,4.368399999976191,5.651799999952345]",0,DLZPX,3,0,3,0,1,,,,,,,,,,
,,,,,,,,,,,,6108f1b88fcaa95e51f5efc9,20,Kobieta,2022-06-11_09h19.40.864,task,2021.1.4,Win32,59.30494603,6299f149e92ead563fba08ef,62a441f6d5a018147a4fefbe,,,,,,,,,,,,,9,,,,,,,,,,Task,24,(2x2) + 5,9,,,,,,,,,,,,,,,,,,,1,,,,,,,,,,,,,,,,,,,,,,,"[""9""]",1,[5.234600000023875],0,0,0,23,1,,,,,,,,,,,,,,,,,,,,,,,,,,
,,,,,,,,,,,X V Q F H G B L J M P D K C T S W R N Z,6108f1b88fcaa95e51f5efc9,20,Kobieta,2022-06-11_09h19.40.864,task,2021.1.4,Win32,59.30494603,6299f149e92ead563fba08ef,62a441f6d5a018147a4fefbe,,,,,,,,,,,,,,,,,,,,,,,,,,,,,,,,,,,,,,,,,,,,,,,,,,,,,,,,,,,,,,,,,,,,,,,,,,,,0,0,0,0,1,,,,,,,,,,,,,,,,,,,,,
,,,,,,,,,,,,6108f1b88fcaa95e51f5efc9,20,Kobieta,2022-06-11_09h19.40.864,task,2021.1.4,Win32,59.30494603,6299f149e92ead563fba08ef,62a441f6d5a018147a4fefbe,,,,,,,,,,,,,6,,,,,,,,,,Task,13,(3x4) - 6,6,,,,,,,,,,,,,,,,,,,1,,,,,,,,,,,,,,,,,,,,,,,"[""6""]",1,[9.75360000002388],0,0,0,12,1,,,,,,,,,,,,,,,,,,,,,,,,,,
,,,,,,,,,,,X V Q F H G B L J M P D K C T S W R N Z,6108f1b88fcaa95e51f5efc9,20,Kobieta,2022-06-11_09h19.40.864,task,2021.1.4,Win32,59.30494603,6299f149e92ead563fba08ef,62a441f6d5a018147a4fefbe,,,,,,,,,,,,,,,,,,,,,,,,,,,,,,,,,,,,,,,,,,,,,,,,,,,,,,,,,,,,,,,,,,,,,,,,,,,,1,0,1,0,1,,,,,,,,,,,,,,,,,,,,,
,,,,,,,,,,,,6108f1b88fcaa95e51f5efc9,20,Kobieta,2022-06-11_09h19.40.864,task,2021.1.4,Win32,59.30494603,6299f149e92ead563fba08ef,62a441f6d5a018147a4fefbe,,,,,,,,,,,,,7,,,,,,,,,,Task,14,(2x2) + 3,7,,,,,,,,,,,,,,,,,,,1,,,,,,,,,,,,,,,,,,,,,,,"[""7""]",1,[5.53060000002381],0,0,0,13,1,,,,,,,,,,,,,,,,,,,,,,,,,,
,,,,,,,,,,,X V Q F H G B L J M P D K C T S W R N Z,6108f1b88fcaa95e51f5efc9,20,Kobieta,2022-06-11_09h19.40.864,task,2021.1.4,Win32,59.30494603,6299f149e92ead563fba08ef,62a441f6d5a018147a4fefbe,,,,,,,,,,,,,,,,,,,,,,,,,,,,,,,,,,,,,,,,,,,,,,,,,,,,,,,,,,,,,,,,,,,,,,,,,,,,2,0,2,0,1,,,,,,,,,,,,,,,,,,,,,
,,,,,,,,,,,,6108f1b88fcaa95e51f5efc9,20,Kobieta,2022-06-11_09h19.40.864,task,2021.1.4,Win32,59.30494603,6299f149e92ead563fba08ef,62a441f6d5a018147a4fefbe,,,,,,,,,,,,,5,,,,,,,,,,Task,29,(3x8) - 19 ,5,,,,,,,,,,,,,,,,,,,1,,,,,,,,,,,,,,,,,,,,,,,"[""5""]",1,[13.955600000023878],0,0,0,28,1,,,,,,,,,,,,,,,,,,,,,,,,,,
,,,,,,,,,,,X V Q F H G B L J M P D K C T S W R N Z,6108f1b88fcaa95e51f5efc9,20,Kobieta,2022-06-11_09h19.40.864,task,2021.1.4,Win32,59.30494603,6299f149e92ead563fba08ef,62a441f6d5a018147a4fefbe,,,,,,,,,,,,,,,,,,,,,,,,,,,,,,,,,,,,,,,,,,,,,,,,,,,,,,,,,,,,,,,,,,,,,,,,,,,,3,0,3,0,1,,,,,,,,,,,,,,,,,,,,,
,,,,,,,,,,,,6108f1b88fcaa95e51f5efc9,20,Kobieta,2022-06-11_09h19.40.864,task,2021.1.4,Win32,59.30494603,6299f149e92ead563fba08ef,62a441f6d5a018147a4fefbe,,,,,,,,,,,,,0,,,,,,,,,,Task,17,(2x3) - 6,0,,,,,,,,,,,,,,,,,,,1,,,,,,,,,,,,,,,,,,,,,,,"[""0""]",1,[8.398899999976152],0,0,0,16,1,,,,,,,,,,,,,,,,,,,,,,,,,,
,,,,,,,,,,,X V Q F H G B L J M P D K C T S W R N Z,6108f1b88fcaa95e51f5efc9,20,Kobieta,2022-06-11_09h19.40.864,task,2021.1.4,Win32,59.30494603,6299f149e92ead563fba08ef,62a441f6d5a018147a4fefbe,,,,,,,,,,,,,,,,,,,,,,,,,,,,,,,,,,,,,,,,,,,,,,,,,,,,,,,,,,,,,,,,,,,,,,,,,,,,4,0,4,0,1,,,,,,,,,,,,,,,,,,,,,
,,,,,,,,,,,,6108f1b88fcaa95e51f5efc9,20,Kobieta,2022-06-11_09h19.40.864,task,2021.1.4,Win32,59.30494603,6299f149e92ead563fba08ef,62a441f6d5a018147a4fefbe,,,,,,,,,,,,,,,,,,,,,,,,,,,,,,,,,,,,,,,,,,,,,,,,,,,,,,,,,,,,,,,,,,,,,,,,,,,,,,,,,pkqbk,"[""p"",""k"",""q"",""b"",""k""]",0,"[1.6700000000000728,1.9821999999285254,2.691799999952309,3.3319999999999936,6.893899999976156,7.899799999952393]",0,PKQBP,4,0,4,0,1,,,,,,,,,,
,,,,,,,,,,,,6108f1b88fcaa95e51f5efc9,20,Kobieta,2022-06-11_09h19.40.864,task,2021.1.4,Win32,59.30494603,6299f149e92ead563fba08ef,62a441f6d5a018147a4fefbe,,,,,,,,,,,,,,,,,,,,,,,,,,,,,,,,,,,,,,,,,,,,,,,,,,,,,,,,,,,,,,,,,,,,,,,,,,,,,,,,,,,,,,,,,,,,,0,0,0,0,0,1,,,
,,,,,,,,,,,,6108f1b88fcaa95e51f5efc9,20,Kobieta,2022-06-11_09h19.40.864,task,2021.1.4,Win32,59.30494603,6299f149e92ead563fba08ef,62a441f6d5a018147a4fefbe,,,,,,,,,,,,,,,,,,,,,,,,,,,,,,,,,,,,,,,,,,,,,,,,,,,,,,,,,,,,,,,,,,,,,,,,,,,,,,,,,,,,,,,,,,,,"[""comma""]",0,1,0,1,0,1,[-0.015200000047684625],,
,,,,,,,,,,,,6108f1b88fcaa95e51f5efc9,20,Kobieta,2022-06-11_09h19.40.864,task,2021.1.4,Win32,59.30494603,6299f149e92ead563fba08ef,62a441f6d5a018147a4fefbe,,,,,,,,,,,,,,,,,,,,,,,,,,,,,,,,,,,,,,,,,,,,,,,,,,,,,,,,,,,,,,,,,,,,,,,,,,,,,,,,,,,,,,,,,,,,"[""period""]",0,2,0,2,0,1,[0.8878999999761845],,
,,,,,,,,,,,,6108f1b88fcaa95e51f5efc9,20,Kobieta,2022-06-11_09h19.40.864,task,2021.1.4,Win32,59.30494603,6299f149e92ead563fba08ef,62a441f6d5a018147a4fefbe,,,,,,,,,,,,,,,,,,,,,,,,,,,,,,,,,,,,,,,,,,,,,,,,,,,,,,,,,,,,,,,,,,,,,,,,,,,,,,,,,,,,,,,,,,,,"[""period""]",0,3,0,3,0,1,[1.3846000000238519],,
,,,,,,,,,,,,6108f1b88fcaa95e51f5efc9,20,Kobieta,2022-06-11_09h19.40.864,task,2021.1.4,Win32,59.30494603,6299f149e92ead563fba08ef,62a441f6d5a018147a4fefbe,,,,,,,,,,,,,,,,,,,,,,,,,,,,,,,,,,,,,,,,,,,,,,,,,,,,,,,,,,,,,,,,,,,,,,,,,,,,,,,,,,,,,,,,,,,,"[""comma""]",0,4,0,4,0,1,[0.518299999952319],,
,,,,,,,,,,,,6108f1b88fcaa95e51f5efc9,20,Kobieta,2022-06-11_09h19.40.864,task,2021.1.4,Win32,59.30494603,6299f149e92ead563fba08ef,62a441f6d5a018147a4fefbe,,,,,,,,,,,,,,,,,,,,,,,,,,,,,,,,,,,,,,,,,,,,,,,,,,,,,,,,,,,,,,,,,,,,,,,,,,,,,,,,,,,,,,,,,,,,"[""comma""]",0,5,0,5,0,1,[0.26839999997616815],,
,,,,,,,,,,,,6108f1b88fcaa95e51f5efc9,20,Kobieta,2022-06-11_09h19.40.864,task,2021.1.4,Win32,59.30494603,6299f149e92ead563fba08ef,62a441f6d5a018147a4fefbe,,,,,,,,,,,,,,,,,,,,,,,,,,,,,,,,,,,,,,,,,,,,,,,,,,,,,,,,,,,,,,,,,,,,,,,,,,,,,,,,,,,,,,,,,,,,"[""comma""]",0,6,0,6,0,1,[0.23439999997606265],,
,,,,,,,,,,,,6108f1b88fcaa95e51f5efc9,20,Kobieta,2022-06-11_09h19.40.864,task,2021.1.4,Win32,59.30494603,6299f149e92ead563fba08ef,62a441f6d5a018147a4fefbe,,,,,,,,,,,,,,,,,,,,,,,,,,,,,,,,,,,,,,,,,,,,,,,,,,,,,,,,,,,,,,,,,,,,,,,,,,,,,,,,,,,,,,,,,,,,"[""period""]",0,7,0,7,0,1,[0.23439999997606265],,
,,,,,,,,,,,,6108f1b88fcaa95e51f5efc9,20,Kobieta,2022-06-11_09h19.40.864,task,2021.1.4,Win32,59.30494603,6299f149e92ead563fba08ef,62a441f6d5a018147a4fefbe,,,,,,,,,,,,,,,,,,,,,,,,,,,,,,,,,,,,,,,,,,,,,,,,,,,,,,,,,,,,,,,,,,,,,,,,,,,,,,,,,,,,,,,,,,,,"[""period""]",0,8,0,8,0,1,[0.2512000000476746],,
,,,,,,,,,,,,6108f1b88fcaa95e51f5efc9,20,Kobieta,2022-06-11_09h19.40.864,task,2021.1.4,Win32,59.30494603,6299f149e92ead563fba08ef,62a441f6d5a018147a4fefbe,,,,,,,,,,,,,,,,,,,,,,,,,,,,,,,,,,,,,,,,,,,,,,,,,,,,,,,,,,,,,,,,,,,,,,,,,,,,,,,,,,,,,,,,,,,,"[""comma""]",0,9,0,9,0,1,[0.2522999999523563],,
,,,,,,,,,,,,6108f1b88fcaa95e51f5efc9,20,Kobieta,2022-06-11_09h19.40.864,task,2021.1.4,Win32,59.30494603,6299f149e92ead563fba08ef,62a441f6d5a018147a4fefbe,,,,,,,,,,,,,,,,,,,,,,,,,,,,,,,,,,,,,,,,,,,,,,,,,,,,,,,,,,,,,,,,,,,,,,,,,,,,,,,,,,,,,,,,,,,,"[""comma""]",0,10,0,10,0,1,[0.25159999990466986],,
,,,,,,,,,,,,6108f1b88fcaa95e51f5efc9,20,Kobieta,2022-06-11_09h19.40.864,task,2021.1.4,Win32,59.30494603,6299f149e92ead563fba08ef,62a441f6d5a018147a4fefbe,,,,,,,,,,,,,,,,,,,,,,,,,,,,,,,,,,,,,,,,,,,,,,,,,,,,,,,,,,,,,,,,,,,,,,,,,,,,,,,,,,,,,,,,,,,,"[""comma""]",0,11,0,11,0,1,[0.2848999999762327],,
,,,,,,,,,,,,6108f1b88fcaa95e51f5efc9,20,Kobieta,2022-06-11_09h19.40.864,task,2021.1.4,Win32,59.30494603,6299f149e92ead563fba08ef,62a441f6d5a018147a4fefbe,,,,,,,,,,,,,,,,,,,,,,,,,,,,,,,,,,,,,,,,,,,,,,,,,,,,,,,,,,,,,,,,,,,,,,,,,,,,,,,,,,,,,,,,,,,,"[""comma""]",0,12,0,12,0,1,[0.2513999999761154],,
,,,,,,,,,,,,6108f1b88fcaa95e51f5efc9,20,Kobieta,2022-06-11_09h19.40.864,task,2021.1.4,Win32,59.30494603,6299f149e92ead563fba08ef,62a441f6d5a018147a4fefbe,,,,,,,,,,,,,,,,,,,,,,,,,,,,,,,,,,,,,,,,,,,,,,,,,,,,,,,,,,,,,,,,,,,,,,,,,,,,,,,,,,,,,,,,,,,,"[""period""]",0,13,0,13,0,1,[0.3017000000476173],,
,,,,,,,,,,,,6108f1b88fcaa95e51f5efc9,20,Kobieta,2022-06-11_09h19.40.864,task,2021.1.4,Win32,59.30494603,6299f149e92ead563fba08ef,62a441f6d5a018147a4fefbe,,,,,,,,,,,,,,,,,,,,,,,,,,,,,,,,,,,,,,,,,,,,,,,,,,,,,,,,,,,,,,,,,,,,,,,,,,,,,,,,,,,,,,,,,,,,"[""period""]",0,14,0,14,0,1,[0.9018999999760808],,
,,,,,,,,,,,,6108f1b88fcaa95e51f5efc9,20,Kobieta,2022-06-11_09h19.40.864,task,2021.1.4,Win32,59.30494603,6299f149e92ead563fba08ef,62a441f6d5a018147a4fefbe,,,,,,,,,,,,,,,,,,,,,,,,,,,,,,,,,,,,,,,,,,,,,,,,,,,,,,,,,,,,,,,,,,,,,,,,,,,,,,,,,,,,,,,,,,,,"[""period""]",0,15,0,15,0,1,[0.7016000000238591],,
,,,,,,,,,,,,6108f1b88fcaa95e51f5efc9,20,Kobieta,2022-06-11_09h19.40.864,task,2021.1.4,Win32,59.30494603,6299f149e92ead563fba08ef,62a441f6d5a018147a4fefbe,,,,,,,,,,,,,,,,,,,,,,,,,,,,,,,,,,,,,,,,,,,,,,,,,,,,,,,,,,,,,,,,,,,,,,,,,,,,,,,,,,,,,,,,,,,,"[""comma""]",0,16,0,16,0,1,[0.5013999999761154],,
,,,,,,,,,,,,6108f1b88fcaa95e51f5efc9,20,Kobieta,2022-06-11_09h19.40.864,task,2021.1.4,Win32,59.30494603,6299f149e92ead563fba08ef,62a441f6d5a018147a4fefbe,,,,,,,,,,,,,,,,,,,,,,,,,,,,,,,,,,,,,,,,,,,,,,,,,,,,,,,,,,,,,,,,,,,,,,,,,,,,,,,,,,,,,,,,,,,,"[""comma""]",0,17,0,17,0,1,[0.25470000004770554],,
,,,,,,,,,,,,6108f1b88fcaa95e51f5efc9,20,Kobieta,2022-06-11_09h19.40.864,task,2021.1.4,Win32,59.30494603,6299f149e92ead563fba08ef,62a441f6d5a018147a4fefbe,,,,,,,,,,,,,,,,,,,,,,,,,,,,,,,,,,,,,,,,,,,,,,,,,,,,,,,,,,,,,,,,,,,,,,,,,,,,,,,,,,,,,,,,,,,,"[""comma""]",0,18,0,18,0,1,[0.31810000002383276],,
,,,,,,,,,,,,6108f1b88fcaa95e51f5efc9,20,Kobieta,2022-06-11_09h19.40.864,task,2021.1.4,Win32,59.30494603,6299f149e92ead563fba08ef,62a441f6d5a018147a4fefbe,,,,,,,,,,,,,,,,,,,,,,,,,,,,,,,,,,,,,,,,,,,,,,,,,,,,,,,,,,,,,,,,,,,,,,,,,,,,,,,,,,,,,,,,,,,,"[""period""]",0,19,0,19,0,1,[0.3013000000714783],,
,,,,,,,,,,,,6108f1b88fcaa95e51f5efc9,20,Kobieta,2022-06-11_09h19.40.864,task,2021.1.4,Win32,59.30494603,6299f149e92ead563fba08ef,62a441f6d5a018147a4fefbe,,,,,,,,,,,,,,,,,,,,,,,,,,,,,,,,,,,,,,,,,,,,,,,,,,,,,,,,,,,,,,,,,,,,,,,,,,,,,,,,,,,,,,,,,,,,"[""period""]",0,20,0,20,0,1,[0.28449999999998],,
,,,,,,,,,,,,6108f1b88fcaa95e51f5efc9,20,Kobieta,2022-06-11_09h19.40.864,task,2021.1.4,Win32,59.30494603,6299f149e92ead563fba08ef,62a441f6d5a018147a4fefbe,,,,,,,,,,,,,,,,,,,,,,,,,,,,,,,,,,,,,,,,,,,,,,,,,,,,,,,,,,,,,,,,,,,,,,,,,,,,,,,,,,,,,,,,,,,,"[""period""]",0,21,0,21,0,1,[0.31860000002382094],,
,,,,,,,,,,,,6108f1b88fcaa95e51f5efc9,20,Kobieta,2022-06-11_09h19.40.864,task,2021.1.4,Win32,59.30494603,6299f149e92ead563fba08ef,62a441f6d5a018147a4fefbe,,,,,,,,,,,,,,,,,,,,,,,,,,,,,,,,,,,,,,,,,,,,,,,,,,,,,,,,,,,,,,,,,,,,,,,,,,,,,,,,,,,,,,,,,,,,"[""comma""]",0,22,0,22,0,1,[0.26779999995233084],,
,,,,,,,,,,,,6108f1b88fcaa95e51f5efc9,20,Kobieta,2022-06-11_09h19.40.864,task,2021.1.4,Win32,59.30494603,6299f149e92ead563fba08ef,62a441f6d5a018147a4fefbe,,,,,,,,,,,,,,,,,,,,,,,,,,,,,,,,,,,,,,,,,,,,,,,,,,,,,,,,,,,,,,,,,,,,,,,,,,,,,,,,,,,,,,,,,,,,"[""comma"",""period""]",0,23,0,23,0,1,"[0.3192999999522499,1.934299999952259]",,
,,,,,,,,,,,,6108f1b88fcaa95e51f5efc9,20,Kobieta,2022-06-11_09h19.40.864,task,2021.1.4,Win32,59.30494603,6299f149e92ead563fba08ef,62a441f6d5a018147a4fefbe,,,,,,,,,,,,,,,,,,,,,,,,,,,,,,,,,,,,,,,,,,,,,,,,,,,,,,,,,,,,,,,,,,,,,,,,,,,,,,,,,,,,,,,,,,,,"[""comma""]",0,24,0,24,0,1,[1.7843999999761309],,
,,,,,,,,,,,,6108f1b88fcaa95e51f5efc9,20,Kobieta,2022-06-11_09h19.40.864,task,2021.1.4,Win32,59.30494603,6299f149e92ead563fba08ef,62a441f6d5a018147a4fefbe,,,,,,,,,,,,,,,,,,,,,,,,,,,,,,,,,,,,,,,,,,,,,,,,,,,,,,,,,,,,,,,,,,,,,,,,,,,,,,,,,,,,,,,,,,,,,0,25,0,25,0,1,,,
,,,,,,,,,,,,6108f1b88fcaa95e51f5efc9,20,Kobieta,2022-06-11_09h19.40.864,task,2021.1.4,Win32,59.30494603,6299f149e92ead563fba08ef,62a441f6d5a018147a4fefbe,,,,,,,,,,,,,,,,,,,,,,,,,,,,,,,,,,,,,,,,,,,,,,,,,,,,,,,,,,,,,,,,,,,,,,,,,,,,,,,,,,,,,,,,,,,,"[""period""]",0,26,0,26,0,1,[0.4012000000476519],,
,,,,,,,,,,,,6108f1b88fcaa95e51f5efc9,20,Kobieta,2022-06-11_09h19.40.864,task,2021.1.4,Win32,59.30494603,6299f149e92ead563fba08ef,62a441f6d5a018147a4fefbe,,,,,,,,,,,,,,,,,,,,,,,,,,,,,,,,,,,,,,,,,,,,,,,,,,,,,,,,,,,,,,,,,,,,,,,,,,,,,,,,,,,,,,,,,,,,"[""period""]",0,27,0,27,0,1,[0.2680000000000291],,
,,,,,,,,,,,,6108f1b88fcaa95e51f5efc9,20,Kobieta,2022-06-11_09h19.40.864,task,2021.1.4,Win32,59.30494603,6299f149e92ead563fba08ef,62a441f6d5a018147a4fefbe,,,,,,,,,,,,,,,,,,,,,,,,,,,,,,,,,,,,,,,,,,,,,,,,,,,,,,,,,,,,,,,,,,,,,,,,,,,,,,,,,,,,,,,,,,,,"[""comma""]",0,28,0,28,0,1,[0.3013999999761836],,
,,,,,,,,,,,,6108f1b88fcaa95e51f5efc9,20,Kobieta,2022-06-11_09h19.40.864,task,2021.1.4,Win32,59.30494603,6299f149e92ead563fba08ef,62a441f6d5a018147a4fefbe,,,,,,,,,,,,,,,,,,,,,,,,,,,,,,,,,,,,,,,,,,,,,,,,,,,,,,,,,,,,,,,,,,,,,,,,,,,,,,,,,,,,,,,,,,,,"[""comma""]",0,29,0,29,0,1,[0.45170000004770827],,
,,,,,,,,,,,,6108f1b88fcaa95e51f5efc9,20,Kobieta,2022-06-11_09h19.40.864,task,2021.1.4,Win32,59.30494603,6299f149e92ead563fba08ef,62a441f6d5a018147a4fefbe,,,,,,,,,,,,,,,,,,,,,,,,,,,,,,,,,,,,,,,,,,,,,,,,,,,,,,,,,,,,,,,,,,,,,,,,,,,,,,,,,,,,,,,,,,,,"[""period""]",0,30,0,30,0,1,[0.26900000000000546],,
,,,,,,,,,,,,6108f1b88fcaa95e51f5efc9,20,Kobieta,2022-06-11_09h19.40.864,task,2021.1.4,Win32,59.30494603,6299f149e92ead563fba08ef,62a441f6d5a018147a4fefbe,,,,,,,,,,,,,,,,,,,,,,,,,,,,,,,,,,,,,,,,,,,,,,,,,,,,,,,,,,,,,,,,,,,,,,,,,,,,,,,,,,,,,,,,,,,,"[""period""]",0,31,0,31,0,1,[0.6177999999523536],,
,,,,,,,,,,,,6108f1b88fcaa95e51f5efc9,20,Kobieta,2022-06-11_09h19.40.864,task,2021.1.4,Win32,59.30494603,6299f149e92ead563fba08ef,62a441f6d5a018147a4fefbe,,,,,,,,,,,,,,,,,,,,,,,,,,,,,,,,,,,,,,,,,,,,,,,,,,,,,,,,,,,,,,,,,,,,,,,,,,,,,,,,,,,,,,,,,,,,"[""comma""]",0,32,0,32,0,1,[0.4123999999761736],,
,,,,,,,,,,,,6108f1b88fcaa95e51f5efc9,20,Kobieta,2022-06-11_09h19.40.864,task,2021.1.4,Win32,59.30494603,6299f149e92ead563fba08ef,62a441f6d5a018147a4fefbe,,,,,,,,,,,,,,,,,,,,,,,,,,,,,,,,,,,,,,,,,,,,,,,,,,,,,,,,,,,,,,,,,,,,,,,,,,,,,,,,,,,,,,,,,,,,"[""comma""]",0,33,0,33,0,1,[0.2622000000476419],,
,,,,,,,,,,,,6108f1b88fcaa95e51f5efc9,20,Kobieta,2022-06-11_09h19.40.864,task,2021.1.4,Win32,59.30494603,6299f149e92ead563fba08ef,62a441f6d5a018147a4fefbe,,,,,,,,,,,,,,,,,,,,,,,,,,,,,,,,,,,,,,,,,,,,,,,,,,,,,,,,,,,,,,,,,,,,,,,,,,,,,,,,,,,,,,,,,,,,"[""period""]",0,34,0,34,0,1,[0.24160000002382276],,
,,,,,,,,,,,,6108f1b88fcaa95e51f5efc9,20,Kobieta,2022-06-11_09h19.40.864,task,2021.1.4,Win32,59.30494603,6299f149e92ead563fba08ef,62a441f6d5a018147a4fefbe,,,,,,,,,,,,,,,,,,,,,,,,,,,,,,,,,,,,,,,,,,,,,,,,,,,,,,,,,,,,,,,,,,,,,,,,,,,,,,,,,,,,,,,,,,,,"[""period""]",0,35,0,35,0,1,[0.309299999952259],,
,,,,,,,,,,,,6108f1b88fcaa95e51f5efc9,20,Kobieta,2022-06-11_09h19.40.864,task,2021.1.4,Win32,59.30494603,6299f149e92ead563fba08ef,62a441f6d5a018147a4fefbe,,,,,,,,,,,,,,,,,,,,,,,,,,,,,,,,,,,,,,,,,,,,,,,,,,,,,,,,,,,,,,,,,,,,,,,,,,,,,,,,,,,,,,,,,,,,"[""comma""]",0,36,0,36,0,1,[0.2322999999522608],,
,,,,,,,,,,,,6108f1b88fcaa95e51f5efc9,20,Kobieta,2022-06-11_09h19.40.864,task,2021.1.4,Win32,59.30494603,6299f149e92ead563fba08ef,62a441f6d5a018147a4fefbe,,,,,,,,,,,,,,,,,,,,,,,,,,,,,,,,,,,,,,,,,,,,,,,,,,,,,,,,,,,,,,,,,,,,,,,,,,,,,,,,,,,,,,,,,,,,"[""comma""]",0,37,0,37,0,1,[0.2179999999999609],,
,,,,,,,,,,,,6108f1b88fcaa95e51f5efc9,20,Kobieta,2022-06-11_09h19.40.864,task,2021.1.4,Win32,59.30494603,6299f149e92ead563fba08ef,62a441f6d5a018147a4fefbe,,,,,,,,,,,,,,,,,,,,,,,,,,,,,,,,,,,,,,,,,,,,,,,,,,,,,,,,,,,,,,,,,,,,,,,,,,,,,,,,,,,,,,,,,,,,"[""comma""]",0,38,0,38,0,1,[0.1423999999760781],,
,,,,,,,,,,,,6108f1b88fcaa95e51f5efc9,20,Kobieta,2022-06-11_09h19.40.864,task,2021.1.4,Win32,59.30494603,6299f149e92ead563fba08ef,62a441f6d5a018147a4fefbe,,,,,,,,,,,,,,,,,,,,,,,,,,,,,,,,,,,,,,,,,,,,,,,,,,,,,,,,,,,,,,,,,,,,,,,,,,,,,,,,,,,,,,,,,,,,"[""comma""]",0,39,0,39,0,1,[0.2563000000715192],,
,,,,,,,,,,,,6108f1b88fcaa95e51f5efc9,20,Kobieta,2022-06-11_09h19.40.864,task,2021.1.4,Win32,59.30494603,6299f149e92ead563fba08ef,62a441f6d5a018147a4fefbe,,,,,,,,,,,,,,,,,,,,,,,,,,,,,,,,,,,,,,,,,,,,,,,,,,,,,,,,,,,,,,,,,,,,,,,,,,,,,,,,,,,,,,,,,,,,"[""comma""]",0,40,0,40,0,1,[0.25420000004771737],,
,,,,,,,,,,,,6108f1b88fcaa95e51f5efc9,20,Kobieta,2022-06-11_09h19.40.864,task,2021.1.4,Win32,59.30494603,6299f149e92ead563fba08ef,62a441f6d5a018147a4fefbe,,,,,,,,,,,,,,,,,,,,,,,,,,,,,,,,,,,,,,,,,,,,,,,,,,,,,,,,,,,,,,,,,,,,,,,,,,,,,,,,,,,,,,,,,,,,"[""comma"",""period""]",0,41,0,41,0,1,"[0.020999999999958163,1.8097000000476555]",,
,,,,,,,,,,,,6108f1b88fcaa95e51f5efc9,20,Kobieta,2022-06-11_09h19.40.864,task,2021.1.4,Win32,59.30494603,6299f149e92ead563fba08ef,62a441f6d5a018147a4fefbe,,,,,,,,,,,,,,,,,,,,,,,,,,,,,,,,,,,,,,,,,,,,,,,,,,,,,,,,,,,,,,,,,,,,,,,,,,,,,,,,,,,,,,,,,,,,"[""comma""]",0,42,0,42,0,1,[1.893299999952319],,
,,,,,,,,,,,,6108f1b88fcaa95e51f5efc9,20,Kobieta,2022-06-11_09h19.40.864,task,2021.1.4,Win32,59.30494603,6299f149e92ead563fba08ef,62a441f6d5a018147a4fefbe,,,,,,,,,,,,,,,,,,,,,,,,,,,,,,,,,,,,,,,,,,,,,,,,,,,,,,,,,,,,,,,,,,,,,,,,,,,,,,,,,,,,,,,,,,,,,0,43,0,43,0,1,,,
,,,,,,,,,,,,6108f1b88fcaa95e51f5efc9,20,Kobieta,2022-06-11_09h19.40.864,task,2021.1.4,Win32,59.30494603,6299f149e92ead563fba08ef,62a441f6d5a018147a4fefbe,,,,,,,,,,,,,,,,,,,,,,,,,,,,,,,,,,,,,,,,,,,,,,,,,,,,,,,,,,,,,,,,,,,,,,,,,,,,,,,,,,,,,,,,,,,,"[""period""]",0,44,0,44,0,1,[0.29639999997607447],,
,,,,,,,,,,,,6108f1b88fcaa95e51f5efc9,20,Kobieta,2022-06-11_09h19.40.864,task,2021.1.4,Win32,59.30494603,6299f149e92ead563fba08ef,62a441f6d5a018147a4fefbe,,,,,,,,,,,,,,,,,,,,,,,,,,,,,,,,,,,,,,,,,,,,,,,,,,,,,,,,,,,,,,,,,,,,,,,,,,,,,,,,,,,,,,,,,,,,"[""period""]",0,45,0,45,0,1,[0.27049999999997],,
,,,,,,,,,,,,6108f1b88fcaa95e51f5efc9,20,Kobieta,2022-06-11_09h19.40.864,task,2021.1.4,Win32,59.30494603,6299f149e92ead563fba08ef,62a441f6d5a018147a4fefbe,,,,,,,,,,,,,,,,,,,,,,,,,,,,,,,,,,,,,,,,,,,,,,,,,,,,,,,,,,,,,,,,,,,,,,,,,,,,,,,,,,,,,,,,,,,,"[""period""]",0,46,0,46,0,1,[0.5771000000238473],,
,,,,,,,,,,,,6108f1b88fcaa95e51f5efc9,20,Kobieta,2022-06-11_09h19.40.864,task,2021.1.4,Win32,59.30494603,6299f149e92ead563fba08ef,62a441f6d5a018147a4fefbe,,,,,,,,,,,,,,,,,,,,,,,,,,,,,,,,,,,,,,,,,,,,,,,,,,,,,,,,,,,,,,,,,,,,,,,,,,,,,,,,,,,,,,,,,,,,"[""comma""]",0,47,0,47,0,1,[0.3862000000476655],,
,,,,,,,,,,,,6108f1b88fcaa95e51f5efc9,20,Kobieta,2022-06-11_09h19.40.864,task,2021.1.4,Win32,59.30494603,6299f149e92ead563fba08ef,62a441f6d5a018147a4fefbe,,,,,,,,,,,,,,,,,,,,,,,,,,,,,,,,,,,,,,,,,,,,,,,,,,,,,,,,,,,,,,,,,,,,,,,,,,,,,,,,,,,,,,,,,,,,"[""period""]",0,48,0,48,0,1,[0.16650000000004184],,
,,,,,,,,,,,,6108f1b88fcaa95e51f5efc9,20,Kobieta,2022-06-11_09h19.40.864,task,2021.1.4,Win32,59.30494603,6299f149e92ead563fba08ef,62a441f6d5a018147a4fefbe,,,,,,,,,,,,,,,,,,,,,,,,,,,,,,,,,,,,,,,,,,,,,,,,,,,,,,,,,,,,,,,,,,,,,,,,,,,,,,,,,,,,,,,,,,,,"[""comma"",""period""]",0,49,0,49,0,1,"[0.12749999999994088,1.7471000000238064]",,
,,,,,,,,,,,,6108f1b88fcaa95e51f5efc9,20,Kobieta,2022-06-11_09h19.40.864,task,2021.1.4,Win32,59.30494603,6299f149e92ead563fba08ef,62a441f6d5a018147a4fefbe,,,,,,,,,,,,,,,,,,,,,,,,,,,,,,,,,,,,,,,,,,,,,,,,,,,,,,,,,,,,,,,,,,,,,,,,,,,,,,,,,,,,,,,,,,,,,0,50,0,50,0,1,,,
,,,,,,,,,,,,6108f1b88fcaa95e51f5efc9,20,Kobieta,2022-06-11_09h19.40.864,task,2021.1.4,Win32,59.30494603,6299f149e92ead563fba08ef,62a441f6d5a018147a4fefbe,,,,,,,,,,,,,,,,,,,,,,,,,,,,,,,,,,,,,,,,,,,,,,,,,,,,,,,,,,,,,,,,,,,,,,,,,,,,,,,,,,,,,,,,,,,,"[""period""]",0,51,0,51,0,1,[0.2666000000239137],,
,,,,,,,,,,,,6108f1b88fcaa95e51f5efc9,20,Kobieta,2022-06-11_09h19.40.864,task,2021.1.4,Win32,59.30494603,6299f149e92ead563fba08ef,62a441f6d5a018147a4fefbe,,,,,,,,,,,,,,,,,,,,,,,,,,,,,,,,,,,,,,,,,,,,,,,,,,,,,,,,,,,,,,,,,,,,,,,,,,,,,,,,,,,,,,,,,,,,"[""period""]",0,52,0,52,0,1,[0.23550000000000182],,
,,,,,,,,,,,,6108f1b88fcaa95e51f5efc9,20,Kobieta,2022-06-11_09h19.40.864,task,2021.1.4,Win32,59.30494603,6299f149e92ead563fba08ef,62a441f6d5a018147a4fefbe,,,,,,,,,,,,,,,,,,,,,,,,,,,,,,,,,,,,,,,,,,,,,,,,,,,,,,,,,,,,,,,,,,,,,,,,,,,,,,,,,,,,,,,,,,,,"[""comma""]",0,53,0,53,0,1,[0.28530000007151557],,
,,,,,,,,,,,,6108f1b88fcaa95e51f5efc9,20,Kobieta,2022-06-11_09h19.40.864,task,2021.1.4,Win32,59.30494603,6299f149e92ead563fba08ef,62a441f6d5a018147a4fefbe,,,,,,,,,,,,,,,,,,,,,,,,,,,,,,,,,,,,,,,,,,,,,,,,,,,,,,,,,,,,,,,,,,,,,,,,,,,,,,,,,,,,,,,,,,,,"[""comma""]",0,54,0,54,0,1,[0.27010000002383094],,
,,,,,,,,,,,,6108f1b88fcaa95e51f5efc9,20,Kobieta,2022-06-11_09h19.40.864,task,2021.1.4,Win32,59.30494603,6299f149e92ead563fba08ef,62a441f6d5a018147a4fefbe,,,,,,,,,,,,,,,,,,,,,,,,,,,,,,,,,,,,,,,,,,,,,,,,,,,,,,,,,,,,,,,,,,,,,,,,,,,,,,,,,,,,,,,,,,,,"[""comma""]",0,55,0,55,0,1,[0.24289999997608902],,
,,,,,,,,,,,,6108f1b88fcaa95e51f5efc9,20,Kobieta,2022-06-11_09h19.40.864,task,2021.1.4,Win32,59.30494603,6299f149e92ead563fba08ef,62a441f6d5a018147a4fefbe,,,,,,,,,,,,,,,,,,,,,,,,,,,,,,,,,,,,,,,,,,,,,,,,,,,,,,,,,,,,,,,,,,,,,,,,,,,,,,,,,,,,,,,,,,,,"[""period""]",0,56,0,56,0,1,[0.20160000002385914],,
,,,,,,,,,,,,6108f1b88fcaa95e51f5efc9,20,Kobieta,2022-06-11_09h19.40.864,task,2021.1.4,Win32,59.30494603,6299f149e92ead563fba08ef,62a441f6d5a018147a4fefbe,,,,,,,,,,,,,,,,,,,,,,,,,,,,,,,,,,,,,,,,,,,,,,,,,,,,,,,,,,,,,,,,,,,,,,,,,,,,,,,,,,,,,,,,,,,,"[""period""]",0,57,0,57,0,1,[0.2055000000000291],,
,,,,,,,,,,,,6108f1b88fcaa95e51f5efc9,20,Kobieta,2022-06-11_09h19.40.864,task,2021.1.4,Win32,59.30494603,6299f149e92ead563fba08ef,62a441f6d5a018147a4fefbe,,,,,,,,,,,,,,,,,,,,,,,,,,,,,,,,,,,,,,,,,,,,,,,,,,,,,,,,,,,,,,,,,,,,,,,,,,,,,,,,,,,,,,,,,,,,"[""comma""]",0,58,0,58,0,1,[0.2551000000238446],,
,,,,,,,,,,,,6108f1b88fcaa95e51f5efc9,20,Kobieta,2022-06-11_09h19.40.864,task,2021.1.4,Win32,59.30494603,6299f149e92ead563fba08ef,62a441f6d5a018147a4fefbe,,,,,,,,,,,,,,,,,,,,,,,,,,,,,,,,,,,,,,,,,,,,,,,,,,,,,,,,,,,,,,,,,,,,,,,,,,,,,,,,,,,,,,,,,,,,"[""comma""]",0,59,0,59,0,1,[0.16089999997620907],,
,,,,,,,,,,,,6108f1b88fcaa95e51f5efc9,20,Kobieta,2022-06-11_09h19.40.864,task,2021.1.4,Win32,59.30494603,6299f149e92ead563fba08ef,62a441f6d5a018147a4fefbe,,,,,,,,,,,,,,,,,,,,,,,,,,,,,,,,,,,,,,,,,,,,,,,,,,,,,,,,,,,,,,,,,,,,,,,,,,,,,,,,,,,,,,,,,,,,"[""comma""]",0,60,0,60,0,1,[0.24979999995230173],,
,,,,,,,,,,,,6108f1b88fcaa95e51f5efc9,20,Kobieta,2022-06-11_09h19.40.864,task,2021.1.4,Win32,59.30494603,6299f149e92ead563fba08ef,62a441f6d5a018147a4fefbe,,,,,,,,,,,,,,,,,,,,,,,,,,,,,,,,,,,,,,,,,,,,,,,,,,,,,,,,,,,,,,,,,,,,,,,,,,,,,,,,,,,,,,,,,,,,"[""comma"",""period""]",0,61,0,61,0,1,"[0.0025000000000545697,1.911599999904638]",,
,,,,,,,,,,,,6108f1b88fcaa95e51f5efc9,20,Kobieta,2022-06-11_09h19.40.864,task,2021.1.4,Win32,59.30494603,6299f149e92ead563fba08ef,62a441f6d5a018147a4fefbe,,,,,,,,,,,,,,,,,,,,,,,,,,,,,,,,,,,,,,,,,,,,,,,,,,,,,,,,,,,,,,,,,,,,,,,,,,,,,,,,,,,,,,,,,,,,,0,62,0,62,0,1,,,
,,,,,,,,,,,,6108f1b88fcaa95e51f5efc9,20,Kobieta,2022-06-11_09h19.40.864,task,2021.1.4,Win32,59.30494603,6299f149e92ead563fba08ef,62a441f6d5a018147a4fefbe,,,,,,,,,,,,,,,,,,,,,,,,,,,,,,,,,,,,,,,,,,,,,,,,,,,,,,,,,,,,,,,,,,,,,,,,,,,,,,,,,,,,,,,,,,,,"[""period""]",0,63,0,63,0,1,[0.21899999999993724],,
,,,,,,,,,,,,6108f1b88fcaa95e51f5efc9,20,Kobieta,2022-06-11_09h19.40.864,task,2021.1.4,Win32,59.30494603,6299f149e92ead563fba08ef,62a441f6d5a018147a4fefbe,,,,,,,,,,,,,,,,,,,,,,,,,,,,,,,,,,,,,,,,,,,,,,,,,,,,,,,,,,,,,,,,,,,,,,,,,,,,,,,,,,,,,,,,,,,,"[""period""]",0,64,0,64,0,1,[0.25549999999998363],,
,,,,,,,,,,,,6108f1b88fcaa95e51f5efc9,20,Kobieta,2022-06-11_09h19.40.864,task,2021.1.4,Win32,59.30494603,6299f149e92ead563fba08ef,62a441f6d5a018147a4fefbe,,,,,,,,,,,,,,,,,,,,,,,,,,,,,,,,,,,,,,,,,,,,,,,,,,,,,,,,,,,,,,,,,,,,,,,,,,,,,,,,,,,,,,,,,,,,"[""comma""]",0,65,0,65,0,1,[0.2996000000238155],,
,,,,,,,,,,,,6108f1b88fcaa95e51f5efc9,20,Kobieta,2022-06-11_09h19.40.864,task,2021.1.4,Win32,59.30494603,6299f149e92ead563fba08ef,62a441f6d5a018147a4fefbe,,,,,,,,,,,,,,,,,,,,,,,,,,,,,,,,,,,,,,,,,,,,,,,,,,,,,,,,,,,,,,,,,,,,,,,,,,,,,,,,,,,,,,,,,,,,"[""period""]",0,66,0,66,0,1,[0.2683000000715765],,
,,,,,,,,,,,,6108f1b88fcaa95e51f5efc9,20,Kobieta,2022-06-11_09h19.40.864,task,2021.1.4,Win32,59.30494603,6299f149e92ead563fba08ef,62a441f6d5a018147a4fefbe,,,,,,,,,,,,,,,,,,,,,,,,,,,,,,,,,,,,,,,,,,,,,,,,,,,,,,,,,,,,,,,,,,,,,,,,,,,,,,,,,,,,,,,,,,,,"[""period""]",0,67,0,67,0,1,[0.24500000000000455],,
,,,,,,,,,,,,6108f1b88fcaa95e51f5efc9,20,Kobieta,2022-06-11_09h19.40.864,task,2021.1.4,Win32,59.30494603,6299f149e92ead563fba08ef,62a441f6d5a018147a4fefbe,,,,,,,,,,,,,,,,,,,,,,,,,,,,,,,,,,,,,,,,,,,,,,,,,,,,,,,,,,,,,,,,,,,,,,,,,,,,,,,,,,,,,,,,,,,,"[""comma""]",0,68,0,68,0,1,[0.04960000002381548],,
,,,,,,,,,,,,6108f1b88fcaa95e51f5efc9,20,Kobieta,2022-06-11_09h19.40.864,task,2021.1.4,Win32,59.30494603,6299f149e92ead563fba08ef,62a441f6d5a018147a4fefbe,,,,,,,,,,,,,,,,,,,,,,,,,,,,,,,,,,,,,,,,,,,,,,,,,,,,,,,,,,,,,,,,,,,,,,,,,,,,,,,,,,,,,,,,,,,,"[""comma""]",0,69,0,69,0,1,[0.15850000000000364],,
,,,,,,,,,,,,6108f1b88fcaa95e51f5efc9,20,Kobieta,2022-06-11_09h19.40.864,task,2021.1.4,Win32,59.30494603,6299f149e92ead563fba08ef,62a441f6d5a018147a4fefbe,,,,,,,,,,,,,,,,,,,,,,,,,,,,,,,,,,,,,,,,,,,,,,,,,,,,,,,,,,,,,,,,,,,,,,,,,,,,,,,,,,,,,,,,,,,,"[""period""]",0,70,0,70,0,1,[0.10170000004768553],,
,,,,,,,,,,,,6108f1b88fcaa95e51f5efc9,20,Kobieta,2022-06-11_09h19.40.864,task,2021.1.4,Win32,59.30494603,6299f149e92ead563fba08ef,62a441f6d5a018147a4fefbe,,,,,,,,,,,,,,,,,,,,,,,,,,,,,,,,,,,,,,,,,,,,,,,,,,,,,,,,,,,,,,,,,,,,,,,,,,,,,,,,,,,,,,,,,,,,"[""period""]",0,71,0,71,0,1,[0.1760999999046362],,
,,,,,,,,,,,,6108f1b88fcaa95e51f5efc9,20,Kobieta,2022-06-11_09h19.40.864,task,2021.1.4,Win32,59.30494603,6299f149e92ead563fba08ef,62a441f6d5a018147a4fefbe,,,,,,,,,,,,,,,,,,,,,,,,,,,,,,,,,,,,,,,,,,,,,,,,,,,,,,,,,,,,,,,,,,,,,,,,,,,,,,,,,,,,,,,,,,,,"[""period""]",0,72,0,72,0,1,[0.24989999997615087],,
,,,,,,,,,,,,6108f1b88fcaa95e51f5efc9,20,Kobieta,2022-06-11_09h19.40.864,task,2021.1.4,Win32,59.30494603,6299f149e92ead563fba08ef,62a441f6d5a018147a4fefbe,,,,,,,,,,,,,,,,,,,,,,,,,,,,,,,,,,,,,,,,,,,,,,,,,,,,,,,,,,,,,,,,,,,,,,,,,,,,,,,,,,,,,,,,,,,,"[""comma""]",0,73,0,73,0,1,[0.003200000047741014],,
,,,,,,,,,,,,6108f1b88fcaa95e51f5efc9,20,Kobieta,2022-06-11_09h19.40.864,task,2021.1.4,Win32,59.30494603,6299f149e92ead563fba08ef,62a441f6d5a018147a4fefbe,,,,,,,,,,,,,,,,,,,,,,,,,,,,,,,,,,,,,,,,,,,,,,,,,,,,,,,,,,,,,,,,,,,,,,,,,,,,,,,,,,,,,,,,,,,,"[""period""]",0,74,0,74,0,1,[0.10580000007155377],,
,,,,,,,,,,,,6108f1b88fcaa95e51f5efc9,20,Kobieta,2022-06-11_09h19.40.864,task,2021.1.4,Win32,59.30494603,6299f149e92ead563fba08ef,62a441f6d5a018147a4fefbe,,,,,,,,,,,,,,,,,,,,,,,,,,,,,,,,,,,,,,,,,,,,,,,,,,,,,,,,,,,,,,,,,,,,,,,,,,,,,,,,,,,,,,,,,,,,"[""period""]",0,75,0,75,0,1,[0.24089999997613631],,
,,,,,,,,,,,,6108f1b88fcaa95e51f5efc9,20,Kobieta,2022-06-11_09h19.40.864,task,2021.1.4,Win32,59.30494603,6299f149e92ead563fba08ef,62a441f6d5a018147a4fefbe,,,,,,,,,,,,,,,,,,,,,,,,,,,,,,,,,,,,,,,,,,,,,,,,,,,,,,,,,,,,,,,,,,,,,,,,,,,,,,,,,,,,,,,,,,,,"[""period""]",0,76,0,76,0,1,[0.24349999999992633],,
,,,,,,,,,,,,6108f1b88fcaa95e51f5efc9,20,Kobieta,2022-06-11_09h19.40.864,task,2021.1.4,Win32,59.30494603,6299f149e92ead563fba08ef,62a441f6d5a018147a4fefbe,,,,,,,,,,,,,,,,,,,,,,,,,,,,,,,,,,,,,,,,,,,,,,,,,,,,,,,,,,,,,,,,,,,,,,,,,,,,,,,,,,,,,,,,,,,,"[""period""]",0,77,0,77,0,1,[0.5136999999284626],,
,,,,,,,,,,,,6108f1b88fcaa95e51f5efc9,20,Kobieta,2022-06-11_09h19.40.864,task,2021.1.4,Win32,59.30494603,6299f149e92ead563fba08ef,62a441f6d5a018147a4fefbe,,,,,,,,,,,,,,,,,,,,,,,,,,,,,,,,,,,,,,,,,,,,,,,,,,,,,,,,,,,,,,,,,,,,,,,,,,,,,,,,,,,,,,,,,,,,"[""comma""]",0,78,0,78,0,1,[0.2964999999999236],,
,,,,,,,,,,,,6108f1b88fcaa95e51f5efc9,20,Kobieta,2022-06-11_09h19.40.864,task,2021.1.4,Win32,59.30494603,6299f149e92ead563fba08ef,62a441f6d5a018147a4fefbe,,,,,,,,,,,,,,,,,,,,,,,,,,,,,,,,,,,,,,,,,,,,,,,,,,,,,,,,,,,,,,,,,,,,,,,,,,,,,,,,,,,,,,,,,,,,"[""comma""]",0,79,0,79,0,1,[0.31720000004770554],,
,,,,,,,,,,,,6108f1b88fcaa95e51f5efc9,20,Kobieta,2022-06-11_09h19.40.864,task,2021.1.4,Win32,59.30494603,6299f149e92ead563fba08ef,62a441f6d5a018147a4fefbe,,,,,,,,,,,,,,,,,,,,,,,,,,,,,,,,,,,,,,,,,,,,,,,,,,,,,,,,,,,,,,,,,,,,,,,,,,,,,,,,,,,,,,,,,,,,"[""comma""]",0,80,0,80,0,1,[0.27949999999998454],,
,,,,,,,,,,,,6108f1b88fcaa95e51f5efc9,20,Kobieta,2022-06-11_09h19.40.864,task,2021.1.4,Win32,59.30494603,6299f149e92ead563fba08ef,62a441f6d5a018147a4fefbe,,,,,,,,,,,,,,,,,,,,,,,,,,,,,,,,,,,,,,,,,,,,,,,,,,,,,,,,,,,,,,,,,,,,,,,,,,,,,,,,,,,,,,,,,,,,"[""period""]",0,81,0,81,0,1,[0.2661999999285172],,
,,,,,,,,,,,,6108f1b88fcaa95e51f5efc9,20,Kobieta,2022-06-11_09h19.40.864,task,2021.1.4,Win32,59.30494603,6299f149e92ead563fba08ef,62a441f6d5a018147a4fefbe,,,,,,,,,,,,,,,,,,,,,,,,,,,,,,,,,,,,,,,,,,,,,,,,,,,,,,,,,,,,,,,,,,,,,,,,,,,,,,,,,,,,,,,,,,,,"[""period""]",0,82,0,82,0,1,[0.28129999995235266],,
,,,,,,,,,,,,6108f1b88fcaa95e51f5efc9,20,Kobieta,2022-06-11_09h19.40.864,task,2021.1.4,Win32,59.30494603,6299f149e92ead563fba08ef,62a441f6d5a018147a4fefbe,,,,,,,,,,,,,,,,,,,,,,,,,,,,,,,,,,,,,,,,,,,,,,,,,,,,,,,,,,,,,,,,,,,,,,,,,,,,,,,,,,,,,,,,,,,,"[""period"",""period""]",0,83,0,83,0,1,"[0.15119999992850808,1.8403999999761709]",,
,,,,,,,,,,,,6108f1b88fcaa95e51f5efc9,20,Kobieta,2022-06-11_09h19.40.864,task,2021.1.4,Win32,59.30494603,6299f149e92ead563fba08ef,62a441f6d5a018147a4fefbe,,,,,,,,,,,,,,,,,,,,,,,,,,,,,,,,,,,,,,,,,,,,,,,,,,,,,,,,,,,,,,,,,,,,,,,,,,,,,,,,,,,,,,,,,,,,,0,84,0,84,0,1,,,
,,,,,,,,,,,,6108f1b88fcaa95e51f5efc9,20,Kobieta,2022-06-11_09h19.40.864,task,2021.1.4,Win32,59.30494603,6299f149e92ead563fba08ef,62a441f6d5a018147a4fefbe,,,,,,,,,,,,,,,,,,,,,,,,,,,,,,,,,,,,,,,,,,,,,,,,,,,,,,,,,,,,,,,,,,,,,,,,,,,,,,,,,,,,,,,,,,,,"[""comma""]",0,85,0,85,0,1,[0.1270000000000664],,
,,,,,,,,,,,,6108f1b88fcaa95e51f5efc9,20,Kobieta,2022-06-11_09h19.40.864,task,2021.1.4,Win32,59.30494603,6299f149e92ead563fba08ef,62a441f6d5a018147a4fefbe,,,,,,,,,,,,,,,,,,,,,,,,,,,,,,,,,,,,,,,,,,,,,,,,,,,,,,,,,,,,,,,,,,,,,,,,,,,,,,,,,,,,,,,,,,,,"[""period""]",0,86,0,86,0,1,[0.23900000000003274],,
,,,,,,,,,,,,6108f1b88fcaa95e51f5efc9,20,Kobieta,2022-06-11_09h19.40.864,task,2021.1.4,Win32,59.30494603,6299f149e92ead563fba08ef,62a441f6d5a018147a4fefbe,,,,,,,,,,,,,,,,,,,,,,,,,,,,,,,,,,,,,,,,,,,,,,,,,,,,,,,,,,,,,,,,,,,,,,,,,,,,,,,,,,,,,,,,,,,,"[""comma""]",0,87,0,87,0,1,[0.27860000002374363],,
,,,,,,,,,,,,6108f1b88fcaa95e51f5efc9,20,Kobieta,2022-06-11_09h19.40.864,task,2021.1.4,Win32,59.30494603,6299f149e92ead563fba08ef,62a441f6d5a018147a4fefbe,,,,,,,,,,,,,,,,,,,,,,,,,,,,,,,,,,,,,,,,,,,,,,,,,,,,,,,,,,,,,,,,,,,,,,,,,,,,,,,,,,,,,,,,,,,,"[""period"",""comma""]",0,88,0,88,0,1,"[0.18679999995242724,1.5231000000238737]",,
,,,,,,,,,,,,6108f1b88fcaa95e51f5efc9,20,Kobieta,2022-06-11_09h19.40.864,task,2021.1.4,Win32,59.30494603,6299f149e92ead563fba08ef,62a441f6d5a018147a4fefbe,,,,,,,,,,,,,,,,,,,,,,,,,,,,,,,,,,,,,,,,,,,,,,,,,,,,,,,,,,,,,,,,,,,,,,,,,,,,,,,,,,,,,,,,,,,,"[""period""]",0,89,0,89,0,1,[1.4545000000000528],,
,,,,,,,,,,,,6108f1b88fcaa95e51f5efc9,20,Kobieta,2022-06-11_09h19.40.864,task,2021.1.4,Win32,59.30494603,6299f149e92ead563fba08ef,62a441f6d5a018147a4fefbe,,,,,,,,,,,,,,,,,,,,,,,,,,,,,,,,,,,,,,,,,,,,,,,,,,,,,,,,,,,,,,,,,,,,,,,,,,,,,,,,,,,,,,,,,,,,"[""comma""]",0,90,0,90,0,1,[0.6506000000238146],,
,,,,,,,,,,,,6108f1b88fcaa95e51f5efc9,20,Kobieta,2022-06-11_09h19.40.864,task,2021.1.4,Win32,59.30494603,6299f149e92ead563fba08ef,62a441f6d5a018147a4fefbe,,,,,,,,,,,,,,,,,,,,,,,,,,,,,,,,,,,,,,,,,,,,,,,,,,,,,,,,,,,,,,,,,,,,,,,,,,,,,,,,,,,,,,,,,,,,"[""period""]",0,91,0,91,0,1,[0.2778999999761709],,
,,,,,,,,,,,,6108f1b88fcaa95e51f5efc9,20,Kobieta,2022-06-11_09h19.40.864,task,2021.1.4,Win32,59.30494603,6299f149e92ead563fba08ef,62a441f6d5a018147a4fefbe,,,,,,,,,,,,,,,,,,,,,,,,,,,,,,,,,,,,,,,,,,,,,,,,,,,,,,,,,,,,,,,,,,,,,,,,,,,,,,,,,,,,,,,,,,,,"[""comma""]",0,92,0,92,0,1,[0.22949999999991633],,
,,,,,,,,,,,,6108f1b88fcaa95e51f5efc9,20,Kobieta,2022-06-11_09h19.40.864,task,2021.1.4,Win32,59.30494603,6299f149e92ead563fba08ef,62a441f6d5a018147a4fefbe,,,,,,,,,,,,,,,,,,,,,,,,,,,,,,,,,,,,,,,,,,,,,,,,,,,,,,,,,,,,,,,,,,,,,,,,,,,,,,,,,,,,,,,,,,,,"[""period""]",0,93,0,93,0,1,[0.23589999997614086],,
,,,,,,,,,,,,6108f1b88fcaa95e51f5efc9,20,Kobieta,2022-06-11_09h19.40.864,task,2021.1.4,Win32,59.30494603,6299f149e92ead563fba08ef,62a441f6d5a018147a4fefbe,,,,,,,,,,,,,,,,,,,,,,,,,,,,,,,,,,,,,,,,,,,,,,,,,,,,,,,,,,,,,,,,,,,,,,,,,,,,,,,,,,,,,,,,,,,,"[""comma""]",0,94,0,94,0,1,[0.035800000071503746],,
,,,,,,,,,,,,6108f1b88fcaa95e51f5efc9,20,Kobieta,2022-06-11_09h19.40.864,task,2021.1.4,Win32,59.30494603,6299f149e92ead563fba08ef,62a441f6d5a018147a4fefbe,,,,,,,,,,,,,,,,,,,,,,,,,,,,,,,,,,,,,,,,,,,,,,,,,,,,,,,,,,,,,,,,,,,,,,,,,,,,,,,,,,,,,,,,,,,,"[""period""]",0,95,0,95,0,1,[0.10149999999998727],,
,,,,,,,,,,,,6108f1b88fcaa95e51f5efc9,20,Kobieta,2022-06-11_09h19.40.864,task,2021.1.4,Win32,59.30494603,6299f149e92ead563fba08ef,62a441f6d5a018147a4fefbe,,,,,,,,,,,,,,,,,,,,,,,,,,,,,,,,,,,,,,,,,,,,,,,,,,,,,,,,,,,,,,,,,,,,,,,,,,,,,,,,,,,,,,,,,,,,"[""comma""]",0,96,0,96,0,1,[0.2876999999284635],,
,,,,,,,,,,,,6108f1b88fcaa95e51f5efc9,20,Kobieta,2022-06-11_09h19.40.864,task,2021.1.4,Win32,59.30494603,6299f149e92ead563fba08ef,62a441f6d5a018147a4fefbe,,,,,,,,,,,,,,,,,,,,,,,,,,,,,,,,,,,,,,,,,,,,,,,,,,,,,,,,,,,,,,,,,,,,,,,,,,,,,,,,,,,,,,,,,,,,"[""comma""]",0,97,0,97,0,1,[0.47410000002378183],,
,,,,,,,,,,,,6108f1b88fcaa95e51f5efc9,20,Kobieta,2022-06-11_09h19.40.864,task,2021.1.4,Win32,59.30494603,6299f149e92ead563fba08ef,62a441f6d5a018147a4fefbe,,,,,,,,,,,,,,,,,,,,,,,,,,,,,,,,,,,,,,,,,,,,,,,,,,,,,,,,,,,,,,,,,,,,,,,,,,,,,,,,,,,,,,,,,,,,"[""comma""]",0,98,0,98,0,1,[0.4594999999999345],,
,,,,,,,,,,,,6108f1b88fcaa95e51f5efc9,20,Kobieta,2022-06-11_09h19.40.864,task,2021.1.4,Win32,59.30494603,6299f149e92ead563fba08ef,62a441f6d5a018147a4fefbe,,,,,,,,,,,,,,,,,,,,,,,,,,,,,,,,,,,,,,,,,,,,,,,,,,,,,,,,,,,,,,,,,,,,,,,,,,,,,,,,,,,,,,,,,,,,"[""comma""]",0,99,0,99,0,1,[0.7055999999046207],,
,,,,,,,,,,,,6108f1b88fcaa95e51f5efc9,20,Kobieta,2022-06-11_09h19.40.864,task,2021.1.4,Win32,59.30494603,6299f149e92ead563fba08ef,62a441f6d5a018147a4fefbe,,,,,,,,,,,,,,,,,,,,,,,,,,,,,,,,,,,,,,,,,,,,,,,,,,,,,,,,,,,,,,,,,,,,,,,,,,,,,,,,,,,,,,,,,,,,"[""comma""]",0,100,0,100,0,1,[0.4823999999762236],,
,,,,,,,,,,,,6108f1b88fcaa95e51f5efc9,20,Kobieta,2022-06-11_09h19.40.864,task,2021.1.4,Win32,59.30494603,6299f149e92ead563fba08ef,62a441f6d5a018147a4fefbe,,,,,,,,,,,,,,,,,,,,,,,,,,,,,,,,,,,,,,,,,,,,,,,,,,,,,,,,,,,,,,,,,,,,,,,,,,,,,,,,,,,,,,,,,,,,"[""period""]",0,101,0,101,0,1,[0.2181000000239237],,
,,,,,,,,,,,,6108f1b88fcaa95e51f5efc9,20,Kobieta,2022-06-11_09h19.40.864,task,2021.1.4,Win32,59.30494603,6299f149e92ead563fba08ef,62a441f6d5a018147a4fefbe,,,,,,,,,,,,,,,,,,,,,,,,,,,,,,,,,,,,,,,,,,,,,,,,,,,,,,,,,,,,,,,,,,,,,,,,,,,,,,,,,,,,,,,,,,,,"[""period""]",0,102,0,102,0,1,[0.23960000002387005],,
,,,,,,,,,,,,6108f1b88fcaa95e51f5efc9,20,Kobieta,2022-06-11_09h19.40.864,task,2021.1.4,Win32,59.30494603,6299f149e92ead563fba08ef,62a441f6d5a018147a4fefbe,,,,,,,,,,,,,,,,,,,,,,,,,,,,,,,,,,,,,,,,,,,,,,,,,,,,,,,,,,,,,,,,,,,,,,,,,,,,,,,,,,,,,,,,,,,,"[""period""]",0,103,0,103,0,1,[0.25299999999992906],,
,,,,,,,,,,,,6108f1b88fcaa95e51f5efc9,20,Kobieta,2022-06-11_09h19.40.864,task,2021.1.4,Win32,59.30494603,6299f149e92ead563fba08ef,62a441f6d5a018147a4fefbe,,,,,,,,,,,,,,,,,,,,,,,,,,,,,,,,,,,,,,,,,,,,,,,,,,,,,,,,,,,,,,,,,,,,,,,,,,,,,,,,,,,,,,,,,,,,"[""period""]",0,104,0,104,0,1,[0.2543000000714528],,
,,,,,,,,,,,,6108f1b88fcaa95e51f5efc9,20,Kobieta,2022-06-11_09h19.40.864,task,2021.1.4,Win32,59.30494603,6299f149e92ead563fba08ef,62a441f6d5a018147a4fefbe,,,,,,,,,,,,,,,,,,,,,,,,,,,,,,,,,,,,,,,,,,,,,,,,,,,,,,,,,,,,,,,,,,,,,,,,,,,,,,,,,,,,,,,,,,,,"[""period""]",0,105,0,105,0,1,[0.20990000009544474],,
,,,,,,,,,,,,6108f1b88fcaa95e51f5efc9,20,Kobieta,2022-06-11_09h19.40.864,task,2021.1.4,Win32,59.30494603,6299f149e92ead563fba08ef,62a441f6d5a018147a4fefbe,,,,,,,,,,,,,,,,,,,,,,,,,,,,,,,,,,,,,,,,,,,,,,,,,,,,,,,,,,,,,,,,,,,,,,,,,,,,,,,,,,,,,,,,,,,,"[""comma"",""period""]",0,106,0,106,0,1,"[0.3361999999284535,1.8379999999999654]",,
,,,,,,,,,,,,6108f1b88fcaa95e51f5efc9,20,Kobieta,2022-06-11_09h19.40.864,task,2021.1.4,Win32,59.30494603,6299f149e92ead563fba08ef,62a441f6d5a018147a4fefbe,,,,,,,,,,,,,,,,,,,,,,,,,,,,,,,,,,,,,,,,,,,,,,,,,,,,,,,,,,,,,,,,,,,,,,,,,,,,,,,,,,,,,,,,,,,,,0,107,0,107,0,1,,,
,,,,,,,,,,,,6108f1b88fcaa95e51f5efc9,20,Kobieta,2022-06-11_09h19.40.864,task,2021.1.4,Win32,59.30494603,6299f149e92ead563fba08ef,62a441f6d5a018147a4fefbe,,,,,,,,,,,,,,,,,,,,,,,,,,,,,,,,,,,,,,,,,,,,,,,,,,,,,,,,,,,,,,,,,,,,,,,,,,,,,,,,,,,,,,,,,,,,"[""comma""]",0,108,0,108,0,1,[0.07749999999998636],,
,,,,,,,,,,,,6108f1b88fcaa95e51f5efc9,20,Kobieta,2022-06-11_09h19.40.864,task,2021.1.4,Win32,59.30494603,6299f149e92ead563fba08ef,62a441f6d5a018147a4fefbe,,,,,,,,,,,,,,,,,,,,,,,,,,,,,,,,,,,,,,,,,,,,,,,,,,,,,,,,,,,,,,,,,,,,,,,,,,,,,,,,,,,,,,,,,,,,"[""period""]",0,109,0,109,0,1,[-0.017699999928481702],,
,,,,,,,,,,,,6108f1b88fcaa95e51f5efc9,20,Kobieta,2022-06-11_09h19.40.864,task,2021.1.4,Win32,59.30494603,6299f149e92ead563fba08ef,62a441f6d5a018147a4fefbe,,,,,,,,,,,,,,,,,,,,,,,,,,,,,,,,,,,,,,,,,,,,,,,,,,,,,,,,,,,,,,,,,,,,,,,,,,,,,,,,,,,,,,,,,,,,"[""period""]",0,110,0,110,0,1,[0.2540000000000191],,
,,,,,,,,,,,,6108f1b88fcaa95e51f5efc9,20,Kobieta,2022-06-11_09h19.40.864,task,2021.1.4,Win32,59.30494603,6299f149e92ead563fba08ef,62a441f6d5a018147a4fefbe,,,,,,,,,,,,,,,,,,,,,,,,,,,,,,,,,,,,,,,,,,,,,,,,,,,,,,,,,,,,,,,,,,,,,,,,,,,,,,,,,,,,,,,,,,,,"[""period""]",0,111,0,111,0,1,[0.2847999999523836],,
,,,,,,,,,,,,6108f1b88fcaa95e51f5efc9,20,Kobieta,2022-06-11_09h19.40.864,task,2021.1.4,Win32,59.30494603,6299f149e92ead563fba08ef,62a441f6d5a018147a4fefbe,,,,,,,,,,,,,,,,,,,,,,,,,,,,,,,,,,,,,,,,,,,,,,,,,,,,,,,,,,,,,,,,,,,,,,,,,,,,,,,,,,,,,,,,,,,,"[""period""]",0,112,0,112,0,1,[0.23639999997612904],,
,,,,,,,,,,,,6108f1b88fcaa95e51f5efc9,20,Kobieta,2022-06-11_09h19.40.864,task,2021.1.4,Win32,59.30494603,6299f149e92ead563fba08ef,62a441f6d5a018147a4fefbe,,,,,,,,,,,,,,,,,,,,,,,,,,,,,,,,,,,,,,,,,,,,,,,,,,,,,,,,,,,,,,,,,,,,,,,,,,,,,,,,,,,,,,,,,,,,"[""comma""]",0,113,0,113,0,1,[0.2545000000000073],,
,,,,,,,,,,,,6108f1b88fcaa95e51f5efc9,20,Kobieta,2022-06-11_09h19.40.864,task,2021.1.4,Win32,59.30494603,6299f149e92ead563fba08ef,62a441f6d5a018147a4fefbe,,,,,,,,,,,,,,,,,,,,,,,,,,,,,,,,,,,,,,,,,,,,,,,,,,,,,,,,,,,,,,,,,,,,,,,,,,,,,,,,,,,,,,,,,,,,"[""comma""]",0,114,0,114,0,1,[0.2688999999761563],,
,,,,,,,,,,,,6108f1b88fcaa95e51f5efc9,20,Kobieta,2022-06-11_09h19.40.864,task,2021.1.4,Win32,59.30494603,6299f149e92ead563fba08ef,62a441f6d5a018147a4fefbe,,,,,,,,,,,,,,,,,,,,,,,,,,,,,,,,,,,,,,,,,,,,,,,,,,,,,,,,,,,,,,,,,,,,,,,,,,,,,,,,,,,,,,,,,,,,"[""period""]",0,115,0,115,0,1,[0.24679999995237267],,
,,,,,,,,,,,,6108f1b88fcaa95e51f5efc9,20,Kobieta,2022-06-11_09h19.40.864,task,2021.1.4,Win32,59.30494603,6299f149e92ead563fba08ef,62a441f6d5a018147a4fefbe,,,,,,,,,,,,,,,,,,,,,,,,,,,,,,,,,,,,,,,,,,,,,,,,,,,,,,,,,,,,,,,,,,,,,,,,,,,,,,,,,,,,,,,,,,,,"[""comma""]",0,116,0,116,0,1,[0.24500000000011823],,
,,,,,,,,,,,,6108f1b88fcaa95e51f5efc9,20,Kobieta,2022-06-11_09h19.40.864,task,2021.1.4,Win32,59.30494603,6299f149e92ead563fba08ef,62a441f6d5a018147a4fefbe,,,,,,,,,,,,,,,,,,,,,,,,,,,,,,,,,,,,,,,,,,,,,,,,,,,,,,,,,,,,,,,,,,,,,,,,,,,,,,,,,,,,,,,,,,,,"[""period""]",0,117,0,117,0,1,[0.20020000004774374],,
,,,,,,,,,,,,6108f1b88fcaa95e51f5efc9,20,Kobieta,2022-06-11_09h19.40.864,task,2021.1.4,Win32,59.30494603,6299f149e92ead563fba08ef,62a441f6d5a018147a4fefbe,,,,,,,,,,,,,,,,,,,,,,,,,,,,,,,,,,,,,,,,,,,,,,,,,,,,,,,,,,,,,,,,,,,,,,,,,,,,,,,,,,,,,,,,,,,,"[""period""]",0,118,0,118,0,1,[0.2530999999046344],,
,,,,,,,,,,,,6108f1b88fcaa95e51f5efc9,20,Kobieta,2022-06-11_09h19.40.864,task,2021.1.4,Win32,59.30494603,6299f149e92ead563fba08ef,62a441f6d5a018147a4fefbe,,,,,,,,,,,,,,,,,,,,,,,,,,,,,,,,,,,,,,,,,,,,,,,,,,,,,,,,,,,,,,,,,,,,,,,,,,,,,,,,,,,,,,,,,,,,"[""period""]",0,119,0,119,0,1,[0.25489999997626],,
,,,,,,,,,,,,6108f1b88fcaa95e51f5efc9,20,Kobieta,2022-06-11_09h19.40.864,task,2021.1.4,Win32,59.30494603,6299f149e92ead563fba08ef,62a441f6d5a018147a4fefbe,,,,,,,,,,,,,,,,,,,,,,,,,,,,,,,,,,,,,,,,,,,,,,,,,,,,,,,,,,,,,,,,,,,,,,,,,,,,,,,,,,,,,,,,,,,,,,,,,,,,space,2.3418
