key_resp_15.keys,key_resp_15.rt,key_resp_13.keys,key_resp_13.corr,ranodm_loop.thisRepN,ranodm_loop.thisTrialN,ranodm_loop.thisN,ranodm_loop.thisIndex,ranodm_loop.ran,participant,Wiek*,Płeć,date,expName,psychopyVersion,OS,frameRate,study_id,session,key_resp_13.rt,key_resp_16.keys,key_resp_16.rt,key_resp_4.keys,key_resp_4.rt,next_letter.thisRepN,next_letter.thisTrialN,next_letter.thisN,next_letter.thisIndex,next_letter.ran,letter,simple_recall,key_resp_5.keys,key_resp_5.rt,simple_recall_corr,simple_recall_corrkeys,next_level.thisRepN,next_level.thisTrialN,next_level.thisN,next_level.thisIndex,next_level.ran,key_resp_2.keys,key_resp_2.rt,digit_answer,key_resp.keys,key_resp.corr,key_resp.rt,RT_list,next_equation.thisRepN,next_equation.thisTrialN,next_equation.thisN,next_equation.thisIndex,next_equation.ran,Task,Trial,Problem,Operation_answer,processing_score,sumRT,meanRT,sumdiff,sd,RT,key_resp_3.keys,key_resp_3.rt,repeat_practice.thisRepN,repeat_practice.thisTrialN,repeat_practice.thisN,repeat_practice.thisIndex,repeat_practice.ran,key_resp_6.keys,key_resp_6.rt,key_resp_11.keys,key_resp_11.corr,key_resp_11.rt,operation_correct,repeat_if_wrong_prac.thisRepN,repeat_if_wrong_prac.thisTrialN,repeat_if_wrong_prac.thisN,repeat_if_wrong_prac.thisIndex,repeat_if_wrong_prac.ran,span_size_prac.thisRepN,span_size_prac.thisTrialN,span_size_prac.thisN,span_size_prac.thisIndex,span_size_prac.ran,complex_recall_practice,key_resp_9.keys,key_resp_9.corr,key_resp_9.rt,complex_prac_corr,span_recall_prac.thisRepN,span_recall_prac.thisTrialN,span_recall_prac.thisN,span_recall_prac.thisIndex,span_recall_prac.ran,key_resp_10.keys,key_resp_10.rt,key_resp_7.keys,key_resp_7.corr,key_resp_7.rt,repeat_if_wrong.thisRepN,repeat_if_wrong.thisTrialN,repeat_if_wrong.thisN,repeat_if_wrong.thisIndex,repeat_if_wrong.ran,span_size.thisRepN,span_size.thisTrialN,span_size.thisN,span_size.thisIndex,span_size.ran,complex_recall,key_resp_8.keys,key_resp_8.corr,key_resp_8.rt,complex_recall_corr,complex_recall_corrkeys,span_recall.thisRepN,span_recall.thisTrialN,span_recall.thisN,span_recall.thisIndex,span_recall.ran,key_resp_12.keys,key_resp_12.rt
space,17.012,,0,0,0,0,0,1,61084a60622c3e2c8f30d629,19,Mężczyzna,2022-05-28_09h10.35.471,task,2021.1.4,Win32,144.4043321,628b806c463b948bc644b84f,6291cadc64afdf8bb9f38b79,,,,,,,,,,,,,,,,,,,,,,,,,,,,,,,,,,,,,,,,,,,,,,,,,,,,,,,,,,,,,,,,,,,,,,,,,,,,,,,,,,,,,,,,,,,,,,,,,,,,,,,,
,,"[""period"",""comma""]",0,1,0,1,0,1,61084a60622c3e2c8f30d629,19,Mężczyzna,2022-05-28_09h10.35.471,task,2021.1.4,Win32,144.4043321,628b806c463b948bc644b84f,6291cadc64afdf8bb9f38b79,"[0.14300000000000068,1.733300000071523]",,,,,,,,,,,,,,,,,,,,,,,,,,,,,,,,,,,,,,,,,,,,,,,,,,,,,,,,,,,,,,,,,,,,,,,,,,,,,,,,,,,,,,,,,,,,,,,,,,,,,,,
,,"[""comma""]",0,2,0,2,0,1,61084a60622c3e2c8f30d629,19,Mężczyzna,2022-05-28_09h10.35.471,task,2021.1.4,Win32,144.4043321,628b806c463b948bc644b84f,6291cadc64afdf8bb9f38b79,[1.025500000000008],,,,,,,,,,,,,,,,,,,,,,,,,,,,,,,,,,,,,,,,,,,,,,,,,,,,,,,,,,,,,,,,,,,,,,,,,,,,,,,,,,,,,,,,,,,,,,,,,,,,,,,
,,"[""period""]",0,3,0,3,0,1,61084a60622c3e2c8f30d629,19,Mężczyzna,2022-05-28_09h10.35.471,task,2021.1.4,Win32,144.4043321,628b806c463b948bc644b84f,6291cadc64afdf8bb9f38b79,[0.8100000000000023],,,,,,,,,,,,,,,,,,,,,,,,,,,,,,,,,,,,,,,,,,,,,,,,,,,,,,,,,,,,,,,,,,,,,,,,,,,,,,,,,,,,,,,,,,,,,,,,,,,,,,,
,,"[""period""]",0,4,0,4,0,1,61084a60622c3e2c8f30d629,19,Mężczyzna,2022-05-28_09h10.35.471,task,2021.1.4,Win32,144.4043321,628b806c463b948bc644b84f,6291cadc64afdf8bb9f38b79,[0.5418000000715182],,,,,,,,,,,,,,,,,,,,,,,,,,,,,,,,,,,,,,,,,,,,,,,,,,,,,,,,,,,,,,,,,,,,,,,,,,,,,,,,,,,,,,,,,,,,,,,,,,,,,,,
,,"[""comma""]",0,5,0,5,0,1,61084a60622c3e2c8f30d629,19,Mężczyzna,2022-05-28_09h10.35.471,task,2021.1.4,Win32,144.4043321,628b806c463b948bc644b84f,6291cadc64afdf8bb9f38b79,[0.9116000000238529],,,,,,,,,,,,,,,,,,,,,,,,,,,,,,,,,,,,,,,,,,,,,,,,,,,,,,,,,,,,,,,,,,,,,,,,,,,,,,,,,,,,,,,,,,,,,,,,,,,,,,,
,,"[""comma""]",0,6,0,6,0,1,61084a60622c3e2c8f30d629,19,Mężczyzna,2022-05-28_09h10.35.471,task,2021.1.4,Win32,144.4043321,628b806c463b948bc644b84f,6291cadc64afdf8bb9f38b79,[0.43710000002384675],,,,,,,,,,,,,,,,,,,,,,,,,,,,,,,,,,,,,,,,,,,,,,,,,,,,,,,,,,,,,,,,,,,,,,,,,,,,,,,,,,,,,,,,,,,,,,,,,,,,,,,
,,"[""comma""]",0,7,0,7,0,1,61084a60622c3e2c8f30d629,19,Mężczyzna,2022-05-28_09h10.35.471,task,2021.1.4,Win32,144.4043321,628b806c463b948bc644b84f,6291cadc64afdf8bb9f38b79,[0.7523999999761628],,,,,,,,,,,,,,,,,,,,,,,,,,,,,,,,,,,,,,,,,,,,,,,,,,,,,,,,,,,,,,,,,,,,,,,,,,,,,,,,,,,,,,,,,,,,,,,,,,,,,,,
,,"[""period""]",0,8,0,8,0,1,61084a60622c3e2c8f30d629,19,Mężczyzna,2022-05-28_09h10.35.471,task,2021.1.4,Win32,144.4043321,628b806c463b948bc644b84f,6291cadc64afdf8bb9f38b79,[0.5474999999999994],,,,,,,,,,,,,,,,,,,,,,,,,,,,,,,,,,,,,,,,,,,,,,,,,,,,,,,,,,,,,,,,,,,,,,,,,,,,,,,,,,,,,,,,,,,,,,,,,,,,,,,
,,"[""period""]",0,9,0,9,0,1,61084a60622c3e2c8f30d629,19,Mężczyzna,2022-05-28_09h10.35.471,task,2021.1.4,Win32,144.4043321,628b806c463b948bc644b84f,6291cadc64afdf8bb9f38b79,[0.6121000000238439],,,,,,,,,,,,,,,,,,,,,,,,,,,,,,,,,,,,,,,,,,,,,,,,,,,,,,,,,,,,,,,,,,,,,,,,,,,,,,,,,,,,,,,,,,,,,,,,,,,,,,,
,,"[""comma""]",0,10,0,10,0,1,61084a60622c3e2c8f30d629,19,Mężczyzna,2022-05-28_09h10.35.471,task,2021.1.4,Win32,144.4043321,628b806c463b948bc644b84f,6291cadc64afdf8bb9f38b79,[0.31110000002384197],,,,,,,,,,,,,,,,,,,,,,,,,,,,,,,,,,,,,,,,,,,,,,,,,,,,,,,,,,,,,,,,,,,,,,,,,,,,,,,,,,,,,,,,,,,,,,,,,,,,,,,
,,"[""period""]",0,11,0,11,0,1,61084a60622c3e2c8f30d629,19,Mężczyzna,2022-05-28_09h10.35.471,task,2021.1.4,Win32,144.4043321,628b806c463b948bc644b84f,6291cadc64afdf8bb9f38b79,[0.33119999992847227],,,,,,,,,,,,,,,,,,,,,,,,,,,,,,,,,,,,,,,,,,,,,,,,,,,,,,,,,,,,,,,,,,,,,,,,,,,,,,,,,,,,,,,,,,,,,,,,,,,,,,,
,,"[""comma""]",0,12,0,12,0,1,61084a60622c3e2c8f30d629,19,Mężczyzna,2022-05-28_09h10.35.471,task,2021.1.4,Win32,144.4043321,628b806c463b948bc644b84f,6291cadc64afdf8bb9f38b79,[0.3080999999046412],,,,,,,,,,,,,,,,,,,,,,,,,,,,,,,,,,,,,,,,,,,,,,,,,,,,,,,,,,,,,,,,,,,,,,,,,,,,,,,,,,,,,,,,,,,,,,,,,,,,,,,
,,"[""comma""]",0,13,0,13,0,1,61084a60622c3e2c8f30d629,19,Mężczyzna,2022-05-28_09h10.35.471,task,2021.1.4,Win32,144.4043321,628b806c463b948bc644b84f,6291cadc64afdf8bb9f38b79,[0.3059999999999974],,,,,,,,,,,,,,,,,,,,,,,,,,,,,,,,,,,,,,,,,,,,,,,,,,,,,,,,,,,,,,,,,,,,,,,,,,,,,,,,,,,,,,,,,,,,,,,,,,,,,,,
,,"[""period""]",0,14,0,14,0,1,61084a60622c3e2c8f30d629,19,Mężczyzna,2022-05-28_09h10.35.471,task,2021.1.4,Win32,144.4043321,628b806c463b948bc644b84f,6291cadc64afdf8bb9f38b79,[0.2372999999523131],,,,,,,,,,,,,,,,,,,,,,,,,,,,,,,,,,,,,,,,,,,,,,,,,,,,,,,,,,,,,,,,,,,,,,,,,,,,,,,,,,,,,,,,,,,,,,,,,,,,,,,
,,"[""period""]",0,15,0,15,0,1,61084a60622c3e2c8f30d629,19,Mężczyzna,2022-05-28_09h10.35.471,task,2021.1.4,Win32,144.4043321,628b806c463b948bc644b84f,6291cadc64afdf8bb9f38b79,[0.26459999990463245],,,,,,,,,,,,,,,,,,,,,,,,,,,,,,,,,,,,,,,,,,,,,,,,,,,,,,,,,,,,,,,,,,,,,,,,,,,,,,,,,,,,,,,,,,,,,,,,,,,,,,,
,,"[""comma""]",0,16,0,16,0,1,61084a60622c3e2c8f30d629,19,Mężczyzna,2022-05-28_09h10.35.471,task,2021.1.4,Win32,144.4043321,628b806c463b948bc644b84f,6291cadc64afdf8bb9f38b79,[0.2745000000000033],,,,,,,,,,,,,,,,,,,,,,,,,,,,,,,,,,,,,,,,,,,,,,,,,,,,,,,,,,,,,,,,,,,,,,,,,,,,,,,,,,,,,,,,,,,,,,,,,,,,,,,
,,"[""comma""]",0,17,0,17,0,1,61084a60622c3e2c8f30d629,19,Mężczyzna,2022-05-28_09h10.35.471,task,2021.1.4,Win32,144.4043321,628b806c463b948bc644b84f,6291cadc64afdf8bb9f38b79,[0.21129999995231685],,,,,,,,,,,,,,,,,,,,,,,,,,,,,,,,,,,,,,,,,,,,,,,,,,,,,,,,,,,,,,,,,,,,,,,,,,,,,,,,,,,,,,,,,,,,,,,,,,,,,,,
,,"[""comma""]",0,18,0,18,0,1,61084a60622c3e2c8f30d629,19,Mężczyzna,2022-05-28_09h10.35.471,task,2021.1.4,Win32,144.4043321,628b806c463b948bc644b84f,6291cadc64afdf8bb9f38b79,[0.0005000000000023874],,,,,,,,,,,,,,,,,,,,,,,,,,,,,,,,,,,,,,,,,,,,,,,,,,,,,,,,,,,,,,,,,,,,,,,,,,,,,,,,,,,,,,,,,,,,,,,,,,,,,,,
,,"[""comma""]",0,19,0,19,0,1,61084a60622c3e2c8f30d629,19,Mężczyzna,2022-05-28_09h10.35.471,task,2021.1.4,Win32,144.4043321,628b806c463b948bc644b84f,6291cadc64afdf8bb9f38b79,[0.08769999992847488],,,,,,,,,,,,,,,,,,,,,,,,,,,,,,,,,,,,,,,,,,,,,,,,,,,,,,,,,,,,,,,,,,,,,,,,,,,,,,,,,,,,,,,,,,,,,,,,,,,,,,,
,,"[""period""]",0,20,0,20,0,1,61084a60622c3e2c8f30d629,19,Mężczyzna,2022-05-28_09h10.35.471,task,2021.1.4,Win32,144.4043321,628b806c463b948bc644b84f,6291cadc64afdf8bb9f38b79,[0.06189999997616269],,,,,,,,,,,,,,,,,,,,,,,,,,,,,,,,,,,,,,,,,,,,,,,,,,,,,,,,,,,,,,,,,,,,,,,,,,,,,,,,,,,,,,,,,,,,,,,,,,,,,,,
,,"[""period""]",0,21,0,21,0,1,61084a60622c3e2c8f30d629,19,Mężczyzna,2022-05-28_09h10.35.471,task,2021.1.4,Win32,144.4043321,628b806c463b948bc644b84f,6291cadc64afdf8bb9f38b79,[0.4422999999523256],,,,,,,,,,,,,,,,,,,,,,,,,,,,,,,,,,,,,,,,,,,,,,,,,,,,,,,,,,,,,,,,,,,,,,,,,,,,,,,,,,,,,,,,,,,,,,,,,,,,,,,
,,"[""comma""]",0,22,0,22,0,1,61084a60622c3e2c8f30d629,19,Mężczyzna,2022-05-28_09h10.35.471,task,2021.1.4,Win32,144.4043321,628b806c463b948bc644b84f,6291cadc64afdf8bb9f38b79,[0.356200000047707],,,,,,,,,,,,,,,,,,,,,,,,,,,,,,,,,,,,,,,,,,,,,,,,,,,,,,,,,,,,,,,,,,,,,,,,,,,,,,,,,,,,,,,,,,,,,,,,,,,,,,,
,,"[""period""]",0,23,0,23,0,1,61084a60622c3e2c8f30d629,19,Mężczyzna,2022-05-28_09h10.35.471,task,2021.1.4,Win32,144.4043321,628b806c463b948bc644b84f,6291cadc64afdf8bb9f38b79,[0.22210000002385755],,,,,,,,,,,,,,,,,,,,,,,,,,,,,,,,,,,,,,,,,,,,,,,,,,,,,,,,,,,,,,,,,,,,,,,,,,,,,,,,,,,,,,,,,,,,,,,,,,,,,,,
,,"[""comma""]",0,24,0,24,0,1,61084a60622c3e2c8f30d629,19,Mężczyzna,2022-05-28_09h10.35.471,task,2021.1.4,Win32,144.4043321,628b806c463b948bc644b84f,6291cadc64afdf8bb9f38b79,[0.2382000000476694],,,,,,,,,,,,,,,,,,,,,,,,,,,,,,,,,,,,,,,,,,,,,,,,,,,,,,,,,,,,,,,,,,,,,,,,,,,,,,,,,,,,,,,,,,,,,,,,,,,,,,,
,,"[""period""]",0,25,0,25,0,1,61084a60622c3e2c8f30d629,19,Mężczyzna,2022-05-28_09h10.35.471,task,2021.1.4,Win32,144.4043321,628b806c463b948bc644b84f,6291cadc64afdf8bb9f38b79,[0.48890000009535584],,,,,,,,,,,,,,,,,,,,,,,,,,,,,,,,,,,,,,,,,,,,,,,,,,,,,,,,,,,,,,,,,,,,,,,,,,,,,,,,,,,,,,,,,,,,,,,,,,,,,,,
,,"[""period""]",0,26,0,26,0,1,61084a60622c3e2c8f30d629,19,Mężczyzna,2022-05-28_09h10.35.471,task,2021.1.4,Win32,144.4043321,628b806c463b948bc644b84f,6291cadc64afdf8bb9f38b79,[0.30210000002384163],,,,,,,,,,,,,,,,,,,,,,,,,,,,,,,,,,,,,,,,,,,,,,,,,,,,,,,,,,,,,,,,,,,,,,,,,,,,,,,,,,,,,,,,,,,,,,,,,,,,,,,
,,"[""comma""]",0,27,0,27,0,1,61084a60622c3e2c8f30d629,19,Mężczyzna,2022-05-28_09h10.35.471,task,2021.1.4,Win32,144.4043321,628b806c463b948bc644b84f,6291cadc64afdf8bb9f38b79,[1.3341000000238523],,,,,,,,,,,,,,,,,,,,,,,,,,,,,,,,,,,,,,,,,,,,,,,,,,,,,,,,,,,,,,,,,,,,,,,,,,,,,,,,,,,,,,,,,,,,,,,,,,,,,,,
,,"[""period""]",0,28,0,28,0,1,61084a60622c3e2c8f30d629,19,Mężczyzna,2022-05-28_09h10.35.471,task,2021.1.4,Win32,144.4043321,628b806c463b948bc644b84f,6291cadc64afdf8bb9f38b79,[0.6108000000715208],,,,,,,,,,,,,,,,,,,,,,,,,,,,,,,,,,,,,,,,,,,,,,,,,,,,,,,,,,,,,,,,,,,,,,,,,,,,,,,,,,,,,,,,,,,,,,,,,,,,,,,
,,"[""comma""]",0,29,0,29,0,1,61084a60622c3e2c8f30d629,19,Mężczyzna,2022-05-28_09h10.35.471,task,2021.1.4,Win32,144.4043321,628b806c463b948bc644b84f,6291cadc64afdf8bb9f38b79,[0.428600000023863],,,,,,,,,,,,,,,,,,,,,,,,,,,,,,,,,,,,,,,,,,,,,,,,,,,,,,,,,,,,,,,,,,,,,,,,,,,,,,,,,,,,,,,,,,,,,,,,,,,,,,,
,,"[""period""]",0,30,0,30,0,1,61084a60622c3e2c8f30d629,19,Mężczyzna,2022-05-28_09h10.35.471,task,2021.1.4,Win32,144.4043321,628b806c463b948bc644b84f,6291cadc64afdf8bb9f38b79,[0.5193999999761445],,,,,,,,,,,,,,,,,,,,,,,,,,,,,,,,,,,,,,,,,,,,,,,,,,,,,,,,,,,,,,,,,,,,,,,,,,,,,,,,,,,,,,,,,,,,,,,,,,,,,,,
,,"[""period""]",0,31,0,31,0,1,61084a60622c3e2c8f30d629,19,Mężczyzna,2022-05-28_09h10.35.471,task,2021.1.4,Win32,144.4043321,628b806c463b948bc644b84f,6291cadc64afdf8bb9f38b79,[0.29599999999999227],,,,,,,,,,,,,,,,,,,,,,,,,,,,,,,,,,,,,,,,,,,,,,,,,,,,,,,,,,,,,,,,,,,,,,,,,,,,,,,,,,,,,,,,,,,,,,,,,,,,,,,
,,"[""comma""]",0,32,0,32,0,1,61084a60622c3e2c8f30d629,19,Mężczyzna,2022-05-28_09h10.35.471,task,2021.1.4,Win32,144.4043321,628b806c463b948bc644b84f,6291cadc64afdf8bb9f38b79,[0.37710000002383026],,,,,,,,,,,,,,,,,,,,,,,,,,,,,,,,,,,,,,,,,,,,,,,,,,,,,,,,,,,,,,,,,,,,,,,,,,,,,,,,,,,,,,,,,,,,,,,,,,,,,,,
,,"[""period""]",0,33,0,33,0,1,61084a60622c3e2c8f30d629,19,Mężczyzna,2022-05-28_09h10.35.471,task,2021.1.4,Win32,144.4043321,628b806c463b948bc644b84f,6291cadc64afdf8bb9f38b79,[0.3631000000238487],,,,,,,,,,,,,,,,,,,,,,,,,,,,,,,,,,,,,,,,,,,,,,,,,,,,,,,,,,,,,,,,,,,,,,,,,,,,,,,,,,,,,,,,,,,,,,,,,,,,,,,
,,"[""period""]",0,34,0,34,0,1,61084a60622c3e2c8f30d629,19,Mężczyzna,2022-05-28_09h10.35.471,task,2021.1.4,Win32,144.4043321,628b806c463b948bc644b84f,6291cadc64afdf8bb9f38b79,[0.23810000002382026],,,,,,,,,,,,,,,,,,,,,,,,,,,,,,,,,,,,,,,,,,,,,,,,,,,,,,,,,,,,,,,,,,,,,,,,,,,,,,,,,,,,,,,,,,,,,,,,,,,,,,,
,,"[""period""]",0,35,0,35,0,1,61084a60622c3e2c8f30d629,19,Mężczyzna,2022-05-28_09h10.35.471,task,2021.1.4,Win32,144.4043321,628b806c463b948bc644b84f,6291cadc64afdf8bb9f38b79,[0.565600000023835],,,,,,,,,,,,,,,,,,,,,,,,,,,,,,,,,,,,,,,,,,,,,,,,,,,,,,,,,,,,,,,,,,,,,,,,,,,,,,,,,,,,,,,,,,,,,,,,,,,,,,,
,,"[""comma""]",0,36,0,36,0,1,61084a60622c3e2c8f30d629,19,Mężczyzna,2022-05-28_09h10.35.471,task,2021.1.4,Win32,144.4043321,628b806c463b948bc644b84f,6291cadc64afdf8bb9f38b79,[0.3871000000238496],,,,,,,,,,,,,,,,,,,,,,,,,,,,,,,,,,,,,,,,,,,,,,,,,,,,,,,,,,,,,,,,,,,,,,,,,,,,,,,,,,,,,,,,,,,,,,,,,,,,,,,
,,"[""comma""]",0,37,0,37,0,1,61084a60622c3e2c8f30d629,19,Mężczyzna,2022-05-28_09h10.35.471,task,2021.1.4,Win32,144.4043321,628b806c463b948bc644b84f,6291cadc64afdf8bb9f38b79,[0.4058999999761568],,,,,,,,,,,,,,,,,,,,,,,,,,,,,,,,,,,,,,,,,,,,,,,,,,,,,,,,,,,,,,,,,,,,,,,,,,,,,,,,,,,,,,,,,,,,,,,,,,,,,,,
,,"[""period""]",0,38,0,38,0,1,61084a60622c3e2c8f30d629,19,Mężczyzna,2022-05-28_09h10.35.471,task,2021.1.4,Win32,144.4043321,628b806c463b948bc644b84f,6291cadc64afdf8bb9f38b79,[0.282600000023848],,,,,,,,,,,,,,,,,,,,,,,,,,,,,,,,,,,,,,,,,,,,,,,,,,,,,,,,,,,,,,,,,,,,,,,,,,,,,,,,,,,,,,,,,,,,,,,,,,,,,,,
,,"[""period""]",0,39,0,39,0,1,61084a60622c3e2c8f30d629,19,Mężczyzna,2022-05-28_09h10.35.471,task,2021.1.4,Win32,144.4043321,628b806c463b948bc644b84f,6291cadc64afdf8bb9f38b79,[0.3398999999761543],,,,,,,,,,,,,,,,,,,,,,,,,,,,,,,,,,,,,,,,,,,,,,,,,,,,,,,,,,,,,,,,,,,,,,,,,,,,,,,,,,,,,,,,,,,,,,,,,,,,,,,
,,"[""comma""]",0,40,0,40,0,1,61084a60622c3e2c8f30d629,19,Mężczyzna,2022-05-28_09h10.35.471,task,2021.1.4,Win32,144.4043321,628b806c463b948bc644b84f,6291cadc64afdf8bb9f38b79,[0.3141000000238421],,,,,,,,,,,,,,,,,,,,,,,,,,,,,,,,,,,,,,,,,,,,,,,,,,,,,,,,,,,,,,,,,,,,,,,,,,,,,,,,,,,,,,,,,,,,,,,,,,,,,,,
,,"[""period""]",0,41,0,41,0,1,61084a60622c3e2c8f30d629,19,Mężczyzna,2022-05-28_09h10.35.471,task,2021.1.4,Win32,144.4043321,628b806c463b948bc644b84f,6291cadc64afdf8bb9f38b79,[0.2648999999761372],,,,,,,,,,,,,,,,,,,,,,,,,,,,,,,,,,,,,,,,,,,,,,,,,,,,,,,,,,,,,,,,,,,,,,,,,,,,,,,,,,,,,,,,,,,,,,,,,,,,,,,
,,"[""comma""]",0,42,0,42,0,1,61084a60622c3e2c8f30d629,19,Mężczyzna,2022-05-28_09h10.35.471,task,2021.1.4,Win32,144.4043321,628b806c463b948bc644b84f,6291cadc64afdf8bb9f38b79,[0.2336000000238414],,,,,,,,,,,,,,,,,,,,,,,,,,,,,,,,,,,,,,,,,,,,,,,,,,,,,,,,,,,,,,,,,,,,,,,,,,,,,,,,,,,,,,,,,,,,,,,,,,,,,,,
,,"[""comma""]",0,43,0,43,0,1,61084a60622c3e2c8f30d629,19,Mężczyzna,2022-05-28_09h10.35.471,task,2021.1.4,Win32,144.4043321,628b806c463b948bc644b84f,6291cadc64afdf8bb9f38b79,[0.24519999992847374],,,,,,,,,,,,,,,,,,,,,,,,,,,,,,,,,,,,,,,,,,,,,,,,,,,,,,,,,,,,,,,,,,,,,,,,,,,,,,,,,,,,,,,,,,,,,,,,,,,,,,,
,,"[""comma""]",0,44,0,44,0,1,61084a60622c3e2c8f30d629,19,Mężczyzna,2022-05-28_09h10.35.471,task,2021.1.4,Win32,144.4043321,628b806c463b948bc644b84f,6291cadc64afdf8bb9f38b79,[0.27350000000001273],,,,,,,,,,,,,,,,,,,,,,,,,,,,,,,,,,,,,,,,,,,,,,,,,,,,,,,,,,,,,,,,,,,,,,,,,,,,,,,,,,,,,,,,,,,,,,,,,,,,,,,
,,"[""period""]",0,45,0,45,0,1,61084a60622c3e2c8f30d629,19,Mężczyzna,2022-05-28_09h10.35.471,task,2021.1.4,Win32,144.4043321,628b806c463b948bc644b84f,6291cadc64afdf8bb9f38b79,[0.35530000007153717],,,,,,,,,,,,,,,,,,,,,,,,,,,,,,,,,,,,,,,,,,,,,,,,,,,,,,,,,,,,,,,,,,,,,,,,,,,,,,,,,,,,,,,,,,,,,,,,,,,,,,,
,,"[""comma""]",0,46,0,46,0,1,61084a60622c3e2c8f30d629,19,Mężczyzna,2022-05-28_09h10.35.471,task,2021.1.4,Win32,144.4043321,628b806c463b948bc644b84f,6291cadc64afdf8bb9f38b79,[0.18939999997616042],,,,,,,,,,,,,,,,,,,,,,,,,,,,,,,,,,,,,,,,,,,,,,,,,,,,,,,,,,,,,,,,,,,,,,,,,,,,,,,,,,,,,,,,,,,,,,,,,,,,,,,
,,"[""comma""]",0,47,0,47,0,1,61084a60622c3e2c8f30d629,19,Mężczyzna,2022-05-28_09h10.35.471,task,2021.1.4,Win32,144.4043321,628b806c463b948bc644b84f,6291cadc64afdf8bb9f38b79,[0.08879999995230037],,,,,,,,,,,,,,,,,,,,,,,,,,,,,,,,,,,,,,,,,,,,,,,,,,,,,,,,,,,,,,,,,,,,,,,,,,,,,,,,,,,,,,,,,,,,,,,,,,,,,,,
,,"[""period""]",0,48,0,48,0,1,61084a60622c3e2c8f30d629,19,Mężczyzna,2022-05-28_09h10.35.471,task,2021.1.4,Win32,144.4043321,628b806c463b948bc644b84f,6291cadc64afdf8bb9f38b79,[0.1939999999999884],,,,,,,,,,,,,,,,,,,,,,,,,,,,,,,,,,,,,,,,,,,,,,,,,,,,,,,,,,,,,,,,,,,,,,,,,,,,,,,,,,,,,,,,,,,,,,,,,,,,,,,
,,"[""period""]",0,49,0,49,0,1,61084a60622c3e2c8f30d629,19,Mężczyzna,2022-05-28_09h10.35.471,task,2021.1.4,Win32,144.4043321,628b806c463b948bc644b84f,6291cadc64afdf8bb9f38b79,[0.20509999990463257],,,,,,,,,,,,,,,,,,,,,,,,,,,,,,,,,,,,,,,,,,,,,,,,,,,,,,,,,,,,,,,,,,,,,,,,,,,,,,,,,,,,,,,,,,,,,,,,,,,,,,,
,,"[""comma""]",0,50,0,50,0,1,61084a60622c3e2c8f30d629,19,Mężczyzna,2022-05-28_09h10.35.471,task,2021.1.4,Win32,144.4043321,628b806c463b948bc644b84f,6291cadc64afdf8bb9f38b79,[0.1677999999523081],,,,,,,,,,,,,,,,,,,,,,,,,,,,,,,,,,,,,,,,,,,,,,,,,,,,,,,,,,,,,,,,,,,,,,,,,,,,,,,,,,,,,,,,,,,,,,,,,,,,,,,
,,"[""period""]",0,51,0,51,0,1,61084a60622c3e2c8f30d629,19,Mężczyzna,2022-05-28_09h10.35.471,task,2021.1.4,Win32,144.4043321,628b806c463b948bc644b84f,6291cadc64afdf8bb9f38b79,[0.20589999997613972],,,,,,,,,,,,,,,,,,,,,,,,,,,,,,,,,,,,,,,,,,,,,,,,,,,,,,,,,,,,,,,,,,,,,,,,,,,,,,,,,,,,,,,,,,,,,,,,,,,,,,,
,,"[""period""]",0,52,0,52,0,1,61084a60622c3e2c8f30d629,19,Mężczyzna,2022-05-28_09h10.35.471,task,2021.1.4,Win32,144.4043321,628b806c463b948bc644b84f,6291cadc64afdf8bb9f38b79,[0.2366999999284758],,,,,,,,,,,,,,,,,,,,,,,,,,,,,,,,,,,,,,,,,,,,,,,,,,,,,,,,,,,,,,,,,,,,,,,,,,,,,,,,,,,,,,,,,,,,,,,,,,,,,,,
,,"[""period""]",0,53,0,53,0,1,61084a60622c3e2c8f30d629,19,Mężczyzna,2022-05-28_09h10.35.471,task,2021.1.4,Win32,144.4043321,628b806c463b948bc644b84f,6291cadc64afdf8bb9f38b79,[0.2563999999761677],,,,,,,,,,,,,,,,,,,,,,,,,,,,,,,,,,,,,,,,,,,,,,,,,,,,,,,,,,,,,,,,,,,,,,,,,,,,,,,,,,,,,,,,,,,,,,,,,,,,,,,
,,"[""comma""]",0,54,0,54,0,1,61084a60622c3e2c8f30d629,19,Mężczyzna,2022-05-28_09h10.35.471,task,2021.1.4,Win32,144.4043321,628b806c463b948bc644b84f,6291cadc64afdf8bb9f38b79,[0.160300000071544],,,,,,,,,,,,,,,,,,,,,,,,,,,,,,,,,,,,,,,,,,,,,,,,,,,,,,,,,,,,,,,,,,,,,,,,,,,,,,,,,,,,,,,,,,,,,,,,,,,,,,,
,,"[""period""]",0,55,0,55,0,1,61084a60622c3e2c8f30d629,19,Mężczyzna,2022-05-28_09h10.35.471,task,2021.1.4,Win32,144.4043321,628b806c463b948bc644b84f,6291cadc64afdf8bb9f38b79,[0.4801999999284874],,,,,,,,,,,,,,,,,,,,,,,,,,,,,,,,,,,,,,,,,,,,,,,,,,,,,,,,,,,,,,,,,,,,,,,,,,,,,,,,,,,,,,,,,,,,,,,,,,,,,,,
,,"[""comma""]",0,56,0,56,0,1,61084a60622c3e2c8f30d629,19,Mężczyzna,2022-05-28_09h10.35.471,task,2021.1.4,Win32,144.4043321,628b806c463b948bc644b84f,6291cadc64afdf8bb9f38b79,[0.007200000047674848],,,,,,,,,,,,,,,,,,,,,,,,,,,,,,,,,,,,,,,,,,,,,,,,,,,,,,,,,,,,,,,,,,,,,,,,,,,,,,,,,,,,,,,,,,,,,,,,,,,,,,,
,,"[""period""]",0,57,0,57,0,1,61084a60622c3e2c8f30d629,19,Mężczyzna,2022-05-28_09h10.35.471,task,2021.1.4,Win32,144.4043321,628b806c463b948bc644b84f,6291cadc64afdf8bb9f38b79,[0.015600000023823668],,,,,,,,,,,,,,,,,,,,,,,,,,,,,,,,,,,,,,,,,,,,,,,,,,,,,,,,,,,,,,,,,,,,,,,,,,,,,,,,,,,,,,,,,,,,,,,,,,,,,,,
,,"[""comma""]",0,58,0,58,0,1,61084a60622c3e2c8f30d629,19,Mężczyzna,2022-05-28_09h10.35.471,task,2021.1.4,Win32,144.4043321,628b806c463b948bc644b84f,6291cadc64afdf8bb9f38b79,[0.2073999999761611],,,,,,,,,,,,,,,,,,,,,,,,,,,,,,,,,,,,,,,,,,,,,,,,,,,,,,,,,,,,,,,,,,,,,,,,,,,,,,,,,,,,,,,,,,,,,,,,,,,,,,,
,,"[""comma""]",0,59,0,59,0,1,61084a60622c3e2c8f30d629,19,Mężczyzna,2022-05-28_09h10.35.471,task,2021.1.4,Win32,144.4043321,628b806c463b948bc644b84f,6291cadc64afdf8bb9f38b79,[0.2231000000238339],,,,,,,,,,,,,,,,,,,,,,,,,,,,,,,,,,,,,,,,,,,,,,,,,,,,,,,,,,,,,,,,,,,,,,,,,,,,,,,,,,,,,,,,,,,,,,,,,,,,,,,
,,"[""period""]",0,60,0,60,0,1,61084a60622c3e2c8f30d629,19,Mężczyzna,2022-05-28_09h10.35.471,task,2021.1.4,Win32,144.4043321,628b806c463b948bc644b84f,6291cadc64afdf8bb9f38b79,[0.23689999997617406],,,,,,,,,,,,,,,,,,,,,,,,,,,,,,,,,,,,,,,,,,,,,,,,,,,,,,,,,,,,,,,,,,,,,,,,,,,,,,,,,,,,,,,,,,,,,,,,,,,,,,,
,,"[""period""]",0,61,0,61,0,1,61084a60622c3e2c8f30d629,19,Mężczyzna,2022-05-28_09h10.35.471,task,2021.1.4,Win32,144.4043321,628b806c463b948bc644b84f,6291cadc64afdf8bb9f38b79,[0.5671999999284765],,,,,,,,,,,,,,,,,,,,,,,,,,,,,,,,,,,,,,,,,,,,,,,,,,,,,,,,,,,,,,,,,,,,,,,,,,,,,,,,,,,,,,,,,,,,,,,,,,,,,,,
,,"[""comma""]",0,62,0,62,0,1,61084a60622c3e2c8f30d629,19,Mężczyzna,2022-05-28_09h10.35.471,task,2021.1.4,Win32,144.4043321,628b806c463b948bc644b84f,6291cadc64afdf8bb9f38b79,[0.3638999999761552],,,,,,,,,,,,,,,,,,,,,,,,,,,,,,,,,,,,,,,,,,,,,,,,,,,,,,,,,,,,,,,,,,,,,,,,,,,,,,,,,,,,,,,,,,,,,,,,,,,,,,,
,,"[""period""]",0,63,0,63,0,1,61084a60622c3e2c8f30d629,19,Mężczyzna,2022-05-28_09h10.35.471,task,2021.1.4,Win32,144.4043321,628b806c463b948bc644b84f,6291cadc64afdf8bb9f38b79,[0.28820000004768076],,,,,,,,,,,,,,,,,,,,,,,,,,,,,,,,,,,,,,,,,,,,,,,,,,,,,,,,,,,,,,,,,,,,,,,,,,,,,,,,,,,,,,,,,,,,,,,,,,,,,,,
,,"[""comma""]",0,64,0,64,0,1,61084a60622c3e2c8f30d629,19,Mężczyzna,2022-05-28_09h10.35.471,task,2021.1.4,Win32,144.4043321,628b806c463b948bc644b84f,6291cadc64afdf8bb9f38b79,[0.29630000007151125],,,,,,,,,,,,,,,,,,,,,,,,,,,,,,,,,,,,,,,,,,,,,,,,,,,,,,,,,,,,,,,,,,,,,,,,,,,,,,,,,,,,,,,,,,,,,,,,,,,,,,,
,,"[""comma""]",0,65,0,65,0,1,61084a60622c3e2c8f30d629,19,Mężczyzna,2022-05-28_09h10.35.471,task,2021.1.4,Win32,144.4043321,628b806c463b948bc644b84f,6291cadc64afdf8bb9f38b79,[0.2388999999761552],,,,,,,,,,,,,,,,,,,,,,,,,,,,,,,,,,,,,,,,,,,,,,,,,,,,,,,,,,,,,,,,,,,,,,,,,,,,,,,,,,,,,,,,,,,,,,,,,,,,,,,
,,"[""period""]",0,66,0,66,0,1,61084a60622c3e2c8f30d629,19,Mężczyzna,2022-05-28_09h10.35.471,task,2021.1.4,Win32,144.4043321,628b806c463b948bc644b84f,6291cadc64afdf8bb9f38b79,[0.4452999999523115],,,,,,,,,,,,,,,,,,,,,,,,,,,,,,,,,,,,,,,,,,,,,,,,,,,,,,,,,,,,,,,,,,,,,,,,,,,,,,,,,,,,,,,,,,,,,,,,,,,,,,,
,,"[""period""]",0,67,0,67,0,1,61084a60622c3e2c8f30d629,19,Mężczyzna,2022-05-28_09h10.35.471,task,2021.1.4,Win32,144.4043321,628b806c463b948bc644b84f,6291cadc64afdf8bb9f38b79,[0.511200000047694],,,,,,,,,,,,,,,,,,,,,,,,,,,,,,,,,,,,,,,,,,,,,,,,,,,,,,,,,,,,,,,,,,,,,,,,,,,,,,,,,,,,,,,,,,,,,,,,,,,,,,,
,,"[""period""]",0,68,0,68,0,1,61084a60622c3e2c8f30d629,19,Mężczyzna,2022-05-28_09h10.35.471,task,2021.1.4,Win32,144.4043321,628b806c463b948bc644b84f,6291cadc64afdf8bb9f38b79,[0.25519999992849307],,,,,,,,,,,,,,,,,,,,,,,,,,,,,,,,,,,,,,,,,,,,,,,,,,,,,,,,,,,,,,,,,,,,,,,,,,,,,,,,,,,,,,,,,,,,,,,,,,,,,,,
,,"[""comma""]",0,69,0,69,0,1,61084a60622c3e2c8f30d629,19,Mężczyzna,2022-05-28_09h10.35.471,task,2021.1.4,Win32,144.4043321,628b806c463b948bc644b84f,6291cadc64afdf8bb9f38b79,[0.19710000002385186],,,,,,,,,,,,,,,,,,,,,,,,,,,,,,,,,,,,,,,,,,,,,,,,,,,,,,,,,,,,,,,,,,,,,,,,,,,,,,,,,,,,,,,,,,,,,,,,,,,,,,,
,,"[""comma""]",0,70,0,70,0,1,61084a60622c3e2c8f30d629,19,Mężczyzna,2022-05-28_09h10.35.471,task,2021.1.4,Win32,144.4043321,628b806c463b948bc644b84f,6291cadc64afdf8bb9f38b79,[0.42509999990463143],,,,,,,,,,,,,,,,,,,,,,,,,,,,,,,,,,,,,,,,,,,,,,,,,,,,,,,,,,,,,,,,,,,,,,,,,,,,,,,,,,,,,,,,,,,,,,,,,,,,,,,
,,"[""period"",""comma""]",0,71,0,71,0,1,61084a60622c3e2c8f30d629,19,Mężczyzna,2022-05-28_09h10.35.471,task,2021.1.4,Win32,144.4043321,628b806c463b948bc644b84f,6291cadc64afdf8bb9f38b79,"[0.30589999997616246,0.5462999999523106]",,,,,,,,,,,,,,,,,,,,,,,,,,,,,,,,,,,,,,,,,,,,,,,,,,,,,,,,,,,,,,,,,,,,,,,,,,,,,,,,,,,,,,,,,,,,,,,,,,,,,,,
,,"[""comma""]",0,72,0,72,0,1,61084a60622c3e2c8f30d629,19,Mężczyzna,2022-05-28_09h10.35.471,task,2021.1.4,Win32,144.4043321,628b806c463b948bc644b84f,6291cadc64afdf8bb9f38b79,[0.7564999999999884],,,,,,,,,,,,,,,,,,,,,,,,,,,,,,,,,,,,,,,,,,,,,,,,,,,,,,,,,,,,,,,,,,,,,,,,,,,,,,,,,,,,,,,,,,,,,,,,,,,,,,,
,,"[""comma""]",0,73,0,73,0,1,61084a60622c3e2c8f30d629,19,Mężczyzna,2022-05-28_09h10.35.471,task,2021.1.4,Win32,144.4043321,628b806c463b948bc644b84f,6291cadc64afdf8bb9f38b79,[0.9060000000000059],,,,,,,,,,,,,,,,,,,,,,,,,,,,,,,,,,,,,,,,,,,,,,,,,,,,,,,,,,,,,,,,,,,,,,,,,,,,,,,,,,,,,,,,,,,,,,,,,,,,,,,
,,"[""comma""]",0,74,0,74,0,1,61084a60622c3e2c8f30d629,19,Mężczyzna,2022-05-28_09h10.35.471,task,2021.1.4,Win32,144.4043321,628b806c463b948bc644b84f,6291cadc64afdf8bb9f38b79,[0.4257999999523179],,,,,,,,,,,,,,,,,,,,,,,,,,,,,,,,,,,,,,,,,,,,,,,,,,,,,,,,,,,,,,,,,,,,,,,,,,,,,,,,,,,,,,,,,,,,,,,,,,,,,,,
,,"[""period""]",0,75,0,75,0,1,61084a60622c3e2c8f30d629,19,Mężczyzna,2022-05-28_09h10.35.471,task,2021.1.4,Win32,144.4043321,628b806c463b948bc644b84f,6291cadc64afdf8bb9f38b79,[0.7422999999523086],,,,,,,,,,,,,,,,,,,,,,,,,,,,,,,,,,,,,,,,,,,,,,,,,,,,,,,,,,,,,,,,,,,,,,,,,,,,,,,,,,,,,,,,,,,,,,,,,,,,,,,
,,"[""period""]",0,76,0,76,0,1,61084a60622c3e2c8f30d629,19,Mężczyzna,2022-05-28_09h10.35.471,task,2021.1.4,Win32,144.4043321,628b806c463b948bc644b84f,6291cadc64afdf8bb9f38b79,[0.7706000000238475],,,,,,,,,,,,,,,,,,,,,,,,,,,,,,,,,,,,,,,,,,,,,,,,,,,,,,,,,,,,,,,,,,,,,,,,,,,,,,,,,,,,,,,,,,,,,,,,,,,,,,,
,,"[""comma""]",0,77,0,77,0,1,61084a60622c3e2c8f30d629,19,Mężczyzna,2022-05-28_09h10.35.471,task,2021.1.4,Win32,144.4043321,628b806c463b948bc644b84f,6291cadc64afdf8bb9f38b79,[0.44249999999999545],,,,,,,,,,,,,,,,,,,,,,,,,,,,,,,,,,,,,,,,,,,,,,,,,,,,,,,,,,,,,,,,,,,,,,,,,,,,,,,,,,,,,,,,,,,,,,,,,,,,,,,
,,"[""period""]",0,78,0,78,0,1,61084a60622c3e2c8f30d629,19,Mężczyzna,2022-05-28_09h10.35.471,task,2021.1.4,Win32,144.4043321,628b806c463b948bc644b84f,6291cadc64afdf8bb9f38b79,[0.3511000000238482],,,,,,,,,,,,,,,,,,,,,,,,,,,,,,,,,,,,,,,,,,,,,,,,,,,,,,,,,,,,,,,,,,,,,,,,,,,,,,,,,,,,,,,,,,,,,,,,,,,,,,,
,,"[""comma""]",0,79,0,79,0,1,61084a60622c3e2c8f30d629,19,Mężczyzna,2022-05-28_09h10.35.471,task,2021.1.4,Win32,144.4043321,628b806c463b948bc644b84f,6291cadc64afdf8bb9f38b79,[0.32679999995232833],,,,,,,,,,,,,,,,,,,,,,,,,,,,,,,,,,,,,,,,,,,,,,,,,,,,,,,,,,,,,,,,,,,,,,,,,,,,,,,,,,,,,,,,,,,,,,,,,,,,,,,
,,"[""period""]",0,80,0,80,0,1,61084a60622c3e2c8f30d629,19,Mężczyzna,2022-05-28_09h10.35.471,task,2021.1.4,Win32,144.4043321,628b806c463b948bc644b84f,6291cadc64afdf8bb9f38b79,[0.5878999999761447],,,,,,,,,,,,,,,,,,,,,,,,,,,,,,,,,,,,,,,,,,,,,,,,,,,,,,,,,,,,,,,,,,,,,,,,,,,,,,,,,,,,,,,,,,,,,,,,,,,,,,,
,,"[""comma""]",0,81,0,81,0,1,61084a60622c3e2c8f30d629,19,Mężczyzna,2022-05-28_09h10.35.471,task,2021.1.4,Win32,144.4043321,628b806c463b948bc644b84f,6291cadc64afdf8bb9f38b79,[0.41929999995232947],,,,,,,,,,,,,,,,,,,,,,,,,,,,,,,,,,,,,,,,,,,,,,,,,,,,,,,,,,,,,,,,,,,,,,,,,,,,,,,,,,,,,,,,,,,,,,,,,,,,,,,
,,"[""period""]",0,82,0,82,0,1,61084a60622c3e2c8f30d629,19,Mężczyzna,2022-05-28_09h10.35.471,task,2021.1.4,Win32,144.4043321,628b806c463b948bc644b84f,6291cadc64afdf8bb9f38b79,[0.29719999992846624],,,,,,,,,,,,,,,,,,,,,,,,,,,,,,,,,,,,,,,,,,,,,,,,,,,,,,,,,,,,,,,,,,,,,,,,,,,,,,,,,,,,,,,,,,,,,,,,,,,,,,,
,,"[""period""]",0,83,0,83,0,1,61084a60622c3e2c8f30d629,19,Mężczyzna,2022-05-28_09h10.35.471,task,2021.1.4,Win32,144.4043321,628b806c463b948bc644b84f,6291cadc64afdf8bb9f38b79,[0.2711999999284842],,,,,,,,,,,,,,,,,,,,,,,,,,,,,,,,,,,,,,,,,,,,,,,,,,,,,,,,,,,,,,,,,,,,,,,,,,,,,,,,,,,,,,,,,,,,,,,,,,,,,,,
,,"[""comma""]",0,84,0,84,0,1,61084a60622c3e2c8f30d629,19,Mężczyzna,2022-05-28_09h10.35.471,task,2021.1.4,Win32,144.4043321,628b806c463b948bc644b84f,6291cadc64afdf8bb9f38b79,[0.3849999999999909],,,,,,,,,,,,,,,,,,,,,,,,,,,,,,,,,,,,,,,,,,,,,,,,,,,,,,,,,,,,,,,,,,,,,,,,,,,,,,,,,,,,,,,,,,,,,,,,,,,,,,,
,,"[""period""]",0,85,0,85,0,1,61084a60622c3e2c8f30d629,19,Mężczyzna,2022-05-28_09h10.35.471,task,2021.1.4,Win32,144.4043321,628b806c463b948bc644b84f,6291cadc64afdf8bb9f38b79,[0.4140000000000157],,,,,,,,,,,,,,,,,,,,,,,,,,,,,,,,,,,,,,,,,,,,,,,,,,,,,,,,,,,,,,,,,,,,,,,,,,,,,,,,,,,,,,,,,,,,,,,,,,,,,,,
,,"[""period""]",0,86,0,86,0,1,61084a60622c3e2c8f30d629,19,Mężczyzna,2022-05-28_09h10.35.471,task,2021.1.4,Win32,144.4043321,628b806c463b948bc644b84f,6291cadc64afdf8bb9f38b79,[0.37020000004764597],,,,,,,,,,,,,,,,,,,,,,,,,,,,,,,,,,,,,,,,,,,,,,,,,,,,,,,,,,,,,,,,,,,,,,,,,,,,,,,,,,,,,,,,,,,,,,,,,,,,,,,
,,"[""comma""]",0,87,0,87,0,1,61084a60622c3e2c8f30d629,19,Mężczyzna,2022-05-28_09h10.35.471,task,2021.1.4,Win32,144.4043321,628b806c463b948bc644b84f,6291cadc64afdf8bb9f38b79,[0.39049999999997453],,,,,,,,,,,,,,,,,,,,,,,,,,,,,,,,,,,,,,,,,,,,,,,,,,,,,,,,,,,,,,,,,,,,,,,,,,,,,,,,,,,,,,,,,,,,,,,,,,,,,,,
,,"[""period""]",0,88,0,88,0,1,61084a60622c3e2c8f30d629,19,Mężczyzna,2022-05-28_09h10.35.471,task,2021.1.4,Win32,144.4043321,628b806c463b948bc644b84f,6291cadc64afdf8bb9f38b79,[0.4594000000953429],,,,,,,,,,,,,,,,,,,,,,,,,,,,,,,,,,,,,,,,,,,,,,,,,,,,,,,,,,,,,,,,,,,,,,,,,,,,,,,,,,,,,,,,,,,,,,,,,,,,,,,
,,"[""period""]",0,89,0,89,0,1,61084a60622c3e2c8f30d629,19,Mężczyzna,2022-05-28_09h10.35.471,task,2021.1.4,Win32,144.4043321,628b806c463b948bc644b84f,6291cadc64afdf8bb9f38b79,[0.4397000000477078],,,,,,,,,,,,,,,,,,,,,,,,,,,,,,,,,,,,,,,,,,,,,,,,,,,,,,,,,,,,,,,,,,,,,,,,,,,,,,,,,,,,,,,,,,,,,,,,,,,,,,,
,,"[""comma""]",0,90,0,90,0,1,61084a60622c3e2c8f30d629,19,Mężczyzna,2022-05-28_09h10.35.471,task,2021.1.4,Win32,144.4043321,628b806c463b948bc644b84f,6291cadc64afdf8bb9f38b79,[0.37429999995231356],,,,,,,,,,,,,,,,,,,,,,,,,,,,,,,,,,,,,,,,,,,,,,,,,,,,,,,,,,,,,,,,,,,,,,,,,,,,,,,,,,,,,,,,,,,,,,,,,,,,,,,
,,"[""period""]",0,91,0,91,0,1,61084a60622c3e2c8f30d629,19,Mężczyzna,2022-05-28_09h10.35.471,task,2021.1.4,Win32,144.4043321,628b806c463b948bc644b84f,6291cadc64afdf8bb9f38b79,[0.285000000000025],,,,,,,,,,,,,,,,,,,,,,,,,,,,,,,,,,,,,,,,,,,,,,,,,,,,,,,,,,,,,,,,,,,,,,,,,,,,,,,,,,,,,,,,,,,,,,,,,,,,,,,
,,"[""comma""]",0,92,0,92,0,1,61084a60622c3e2c8f30d629,19,Mężczyzna,2022-05-28_09h10.35.471,task,2021.1.4,Win32,144.4043321,628b806c463b948bc644b84f,6291cadc64afdf8bb9f38b79,[0.3751999999284976],,,,,,,,,,,,,,,,,,,,,,,,,,,,,,,,,,,,,,,,,,,,,,,,,,,,,,,,,,,,,,,,,,,,,,,,,,,,,,,,,,,,,,,,,,,,,,,,,,,,,,,
,,"[""period"",""comma""]",0,93,0,93,0,1,61084a60622c3e2c8f30d629,19,Mężczyzna,2022-05-28_09h10.35.471,task,2021.1.4,Win32,144.4043321,628b806c463b948bc644b84f,6291cadc64afdf8bb9f38b79,"[0.2085999999046635,0.410000000000025]",,,,,,,,,,,,,,,,,,,,,,,,,,,,,,,,,,,,,,,,,,,,,,,,,,,,,,,,,,,,,,,,,,,,,,,,,,,,,,,,,,,,,,,,,,,,,,,,,,,,,,,
,,"[""comma"",""period""]",0,94,0,94,0,1,61084a60622c3e2c8f30d629,19,Mężczyzna,2022-05-28_09h10.35.471,task,2021.1.4,Win32,144.4043321,628b806c463b948bc644b84f,6291cadc64afdf8bb9f38b79,"[0.21539999997617088,0.23059999990465485]",,,,,,,,,,,,,,,,,,,,,,,,,,,,,,,,,,,,,,,,,,,,,,,,,,,,,,,,,,,,,,,,,,,,,,,,,,,,,,,,,,,,,,,,,,,,,,,,,,,,,,,
,,"[""period""]",0,95,0,95,0,1,61084a60622c3e2c8f30d629,19,Mężczyzna,2022-05-28_09h10.35.471,task,2021.1.4,Win32,144.4043321,628b806c463b948bc644b84f,6291cadc64afdf8bb9f38b79,[0.6598999999761759],,,,,,,,,,,,,,,,,,,,,,,,,,,,,,,,,,,,,,,,,,,,,,,,,,,,,,,,,,,,,,,,,,,,,,,,,,,,,,,,,,,,,,,,,,,,,,,,,,,,,,,
,,"[""comma""]",0,96,0,96,0,1,61084a60622c3e2c8f30d629,19,Mężczyzna,2022-05-28_09h10.35.471,task,2021.1.4,Win32,144.4043321,628b806c463b948bc644b84f,6291cadc64afdf8bb9f38b79,[0.6599999999999682],,,,,,,,,,,,,,,,,,,,,,,,,,,,,,,,,,,,,,,,,,,,,,,,,,,,,,,,,,,,,,,,,,,,,,,,,,,,,,,,,,,,,,,,,,,,,,,,,,,,,,,
,,"[""comma""]",0,97,0,97,0,1,61084a60622c3e2c8f30d629,19,Mężczyzna,2022-05-28_09h10.35.471,task,2021.1.4,Win32,144.4043321,628b806c463b948bc644b84f,6291cadc64afdf8bb9f38b79,[1.0696000000238541],,,,,,,,,,,,,,,,,,,,,,,,,,,,,,,,,,,,,,,,,,,,,,,,,,,,,,,,,,,,,,,,,,,,,,,,,,,,,,,,,,,,,,,,,,,,,,,,,,,,,,,
,,"[""period"",""period""]",0,98,0,98,0,1,61084a60622c3e2c8f30d629,19,Mężczyzna,2022-05-28_09h10.35.471,task,2021.1.4,Win32,144.4043321,628b806c463b948bc644b84f,6291cadc64afdf8bb9f38b79,"[0.5208999999761659,1.9306000000238441]",,,,,,,,,,,,,,,,,,,,,,,,,,,,,,,,,,,,,,,,,,,,,,,,,,,,,,,,,,,,,,,,,,,,,,,,,,,,,,,,,,,,,,,,,,,,,,,,,,,,,,,
,,,0,99,0,99,0,1,61084a60622c3e2c8f30d629,19,Mężczyzna,2022-05-28_09h10.35.471,task,2021.1.4,Win32,144.4043321,628b806c463b948bc644b84f,6291cadc64afdf8bb9f38b79,,,,,,,,,,,,,,,,,,,,,,,,,,,,,,,,,,,,,,,,,,,,,,,,,,,,,,,,,,,,,,,,,,,,,,,,,,,,,,,,,,,,,,,,,,,,,,,,,,,,,,,,
,,"[""period""]",0,100,0,100,0,1,61084a60622c3e2c8f30d629,19,Mężczyzna,2022-05-28_09h10.35.471,task,2021.1.4,Win32,144.4043321,628b806c463b948bc644b84f,6291cadc64afdf8bb9f38b79,[0.6182000000476364],,,,,,,,,,,,,,,,,,,,,,,,,,,,,,,,,,,,,,,,,,,,,,,,,,,,,,,,,,,,,,,,,,,,,,,,,,,,,,,,,,,,,,,,,,,,,,,,,,,,,,,
,,"[""comma""]",0,101,0,101,0,1,61084a60622c3e2c8f30d629,19,Mężczyzna,2022-05-28_09h10.35.471,task,2021.1.4,Win32,144.4043321,628b806c463b948bc644b84f,6291cadc64afdf8bb9f38b79,[0.4792999999522749],,,,,,,,,,,,,,,,,,,,,,,,,,,,,,,,,,,,,,,,,,,,,,,,,,,,,,,,,,,,,,,,,,,,,,,,,,,,,,,,,,,,,,,,,,,,,,,,,,,,,,,
,,"[""period""]",0,102,0,102,0,1,61084a60622c3e2c8f30d629,19,Mężczyzna,2022-05-28_09h10.35.471,task,2021.1.4,Win32,144.4043321,628b806c463b948bc644b84f,6291cadc64afdf8bb9f38b79,[0.28499999999996817],,,,,,,,,,,,,,,,,,,,,,,,,,,,,,,,,,,,,,,,,,,,,,,,,,,,,,,,,,,,,,,,,,,,,,,,,,,,,,,,,,,,,,,,,,,,,,,,,,,,,,,
,,"[""comma""]",0,103,0,103,0,1,61084a60622c3e2c8f30d629,19,Mężczyzna,2022-05-28_09h10.35.471,task,2021.1.4,Win32,144.4043321,628b806c463b948bc644b84f,6291cadc64afdf8bb9f38b79,[0.2918000000715324],,,,,,,,,,,,,,,,,,,,,,,,,,,,,,,,,,,,,,,,,,,,,,,,,,,,,,,,,,,,,,,,,,,,,,,,,,,,,,,,,,,,,,,,,,,,,,,,,,,,,,,
,,"[""period""]",0,104,0,104,0,1,61084a60622c3e2c8f30d629,19,Mężczyzna,2022-05-28_09h10.35.471,task,2021.1.4,Win32,144.4043321,628b806c463b948bc644b84f,6291cadc64afdf8bb9f38b79,[0.32660000002385914],,,,,,,,,,,,,,,,,,,,,,,,,,,,,,,,,,,,,,,,,,,,,,,,,,,,,,,,,,,,,,,,,,,,,,,,,,,,,,,,,,,,,,,,,,,,,,,,,,,,,,,
,,"[""period""]",0,105,0,105,0,1,61084a60622c3e2c8f30d629,19,Mężczyzna,2022-05-28_09h10.35.471,task,2021.1.4,Win32,144.4043321,628b806c463b948bc644b84f,6291cadc64afdf8bb9f38b79,[0.46549999999996317],,,,,,,,,,,,,,,,,,,,,,,,,,,,,,,,,,,,,,,,,,,,,,,,,,,,,,,,,,,,,,,,,,,,,,,,,,,,,,,,,,,,,,,,,,,,,,,,,,,,,,,
,,"[""comma""]",0,106,0,106,0,1,61084a60622c3e2c8f30d629,19,Mężczyzna,2022-05-28_09h10.35.471,task,2021.1.4,Win32,144.4043321,628b806c463b948bc644b84f,6291cadc64afdf8bb9f38b79,[0.3613999999761859],,,,,,,,,,,,,,,,,,,,,,,,,,,,,,,,,,,,,,,,,,,,,,,,,,,,,,,,,,,,,,,,,,,,,,,,,,,,,,,,,,,,,,,,,,,,,,,,,,,,,,,
,,"[""period""]",0,107,0,107,0,1,61084a60622c3e2c8f30d629,19,Mężczyzna,2022-05-28_09h10.35.471,task,2021.1.4,Win32,144.4043321,628b806c463b948bc644b84f,6291cadc64afdf8bb9f38b79,[0.222500000000025],,,,,,,,,,,,,,,,,,,,,,,,,,,,,,,,,,,,,,,,,,,,,,,,,,,,,,,,,,,,,,,,,,,,,,,,,,,,,,,,,,,,,,,,,,,,,,,,,,,,,,,
,,"[""comma""]",0,108,0,108,0,1,61084a60622c3e2c8f30d629,19,Mężczyzna,2022-05-28_09h10.35.471,task,2021.1.4,Win32,144.4043321,628b806c463b948bc644b84f,6291cadc64afdf8bb9f38b79,[0.22950000000003],,,,,,,,,,,,,,,,,,,,,,,,,,,,,,,,,,,,,,,,,,,,,,,,,,,,,,,,,,,,,,,,,,,,,,,,,,,,,,,,,,,,,,,,,,,,,,,,,,,,,,,
,,"[""period""]",0,109,0,109,0,1,61084a60622c3e2c8f30d629,19,Mężczyzna,2022-05-28_09h10.35.471,task,2021.1.4,Win32,144.4043321,628b806c463b948bc644b84f,6291cadc64afdf8bb9f38b79,[0.222500000000025],,,,,,,,,,,,,,,,,,,,,,,,,,,,,,,,,,,,,,,,,,,,,,,,,,,,,,,,,,,,,,,,,,,,,,,,,,,,,,,,,,,,,,,,,,,,,,,,,,,,,,,
,,"[""period""]",0,110,0,110,0,1,61084a60622c3e2c8f30d629,19,Mężczyzna,2022-05-28_09h10.35.471,task,2021.1.4,Win32,144.4043321,628b806c463b948bc644b84f,6291cadc64afdf8bb9f38b79,[0.222500000000025],,,,,,,,,,,,,,,,,,,,,,,,,,,,,,,,,,,,,,,,,,,,,,,,,,,,,,,,,,,,,,,,,,,,,,,,,,,,,,,,,,,,,,,,,,,,,,,,,,,,,,,
,,"[""comma""]",0,111,0,111,0,1,61084a60622c3e2c8f30d629,19,Mężczyzna,2022-05-28_09h10.35.471,task,2021.1.4,Win32,144.4043321,628b806c463b948bc644b84f,6291cadc64afdf8bb9f38b79,[0.27800000000002],,,,,,,,,,,,,,,,,,,,,,,,,,,,,,,,,,,,,,,,,,,,,,,,,,,,,,,,,,,,,,,,,,,,,,,,,,,,,,,,,,,,,,,,,,,,,,,,,,,,,,,
,,"[""comma""]",0,112,0,112,0,1,61084a60622c3e2c8f30d629,19,Mężczyzna,2022-05-28_09h10.35.471,task,2021.1.4,Win32,144.4043321,628b806c463b948bc644b84f,6291cadc64afdf8bb9f38b79,[0.4308999999761909],,,,,,,,,,,,,,,,,,,,,,,,,,,,,,,,,,,,,,,,,,,,,,,,,,,,,,,,,,,,,,,,,,,,,,,,,,,,,,,,,,,,,,,,,,,,,,,,,,,,,,,
,,"[""period""]",0,113,0,113,0,1,61084a60622c3e2c8f30d629,19,Mężczyzna,2022-05-28_09h10.35.471,task,2021.1.4,Win32,144.4043321,628b806c463b948bc644b84f,6291cadc64afdf8bb9f38b79,[0.29870000004768826],,,,,,,,,,,,,,,,,,,,,,,,,,,,,,,,,,,,,,,,,,,,,,,,,,,,,,,,,,,,,,,,,,,,,,,,,,,,,,,,,,,,,,,,,,,,,,,,,,,,,,,
,,"[""period""]",0,114,0,114,0,1,61084a60622c3e2c8f30d629,19,Mężczyzna,2022-05-28_09h10.35.471,task,2021.1.4,Win32,144.4043321,628b806c463b948bc644b84f,6291cadc64afdf8bb9f38b79,[1.20150000000001],,,,,,,,,,,,,,,,,,,,,,,,,,,,,,,,,,,,,,,,,,,,,,,,,,,,,,,,,,,,,,,,,,,,,,,,,,,,,,,,,,,,,,,,,,,,,,,,,,,,,,,
,,"[""comma""]",0,115,0,115,0,1,61084a60622c3e2c8f30d629,19,Mężczyzna,2022-05-28_09h10.35.471,task,2021.1.4,Win32,144.4043321,628b806c463b948bc644b84f,6291cadc64afdf8bb9f38b79,[0.5836000000238641],,,,,,,,,,,,,,,,,,,,,,,,,,,,,,,,,,,,,,,,,,,,,,,,,,,,,,,,,,,,,,,,,,,,,,,,,,,,,,,,,,,,,,,,,,,,,,,,,,,,,,,
,,"[""period""]",0,116,0,116,0,1,61084a60622c3e2c8f30d629,19,Mężczyzna,2022-05-28_09h10.35.471,task,2021.1.4,Win32,144.4043321,628b806c463b948bc644b84f,6291cadc64afdf8bb9f38b79,[0.7156000000238691],,,,,,,,,,,,,,,,,,,,,,,,,,,,,,,,,,,,,,,,,,,,,,,,,,,,,,,,,,,,,,,,,,,,,,,,,,,,,,,,,,,,,,,,,,,,,,,,,,,,,,,
,,"[""period""]",0,117,0,117,0,1,61084a60622c3e2c8f30d629,19,Mężczyzna,2022-05-28_09h10.35.471,task,2021.1.4,Win32,144.4043321,628b806c463b948bc644b84f,6291cadc64afdf8bb9f38b79,[0.6598999999761759],,,,,,,,,,,,,,,,,,,,,,,,,,,,,,,,,,,,,,,,,,,,,,,,,,,,,,,,,,,,,,,,,,,,,,,,,,,,,,,,,,,,,,,,,,,,,,,,,,,,,,,
,,"[""period""]",0,118,0,118,0,1,61084a60622c3e2c8f30d629,19,Mężczyzna,2022-05-28_09h10.35.471,task,2021.1.4,Win32,144.4043321,628b806c463b948bc644b84f,6291cadc64afdf8bb9f38b79,[0.5696000000238541],,,,,,,,,,,,,,,,,,,,,,,,,,,,,,,,,,,,,,,,,,,,,,,,,,,,,,,,,,,,,,,,,,,,,,,,,,,,,,,,,,,,,,,,,,,,,,,,,,,,,,,
,,"[""comma""]",0,119,0,119,0,1,61084a60622c3e2c8f30d629,19,Mężczyzna,2022-05-28_09h10.35.471,task,2021.1.4,Win32,144.4043321,628b806c463b948bc644b84f,6291cadc64afdf8bb9f38b79,[0.5003000000714906],,,,,,,,,,,,,,,,,,,,,,,,,,,,,,,,,,,,,,,,,,,,,,,,,,,,,,,,,,,,,,,,,,,,,,,,,,,,,,,,,,,,,,,,,,,,,,,,,,,,,,,
,,,,,,,,,61084a60622c3e2c8f30d629,19,Mężczyzna,2022-05-28_09h10.35.471,task,2021.1.4,Win32,144.4043321,628b806c463b948bc644b84f,6291cadc64afdf8bb9f38b79,,space,33.3109,space,7.0099,0,0,0,0,1,"X V Q F H G B L J M P D K C T S W R N Z
",,,,,,,,,,,,,,,,,,,,,,,,,,,,,,,,,,,,,,,,,,,,,,,,,,,,,,,,,,,,,,,,,,,,,,,,,,,,,,,,,,,,,,,,,,,,,
,,,,,,,,,61084a60622c3e2c8f30d629,19,Mężczyzna,2022-05-28_09h10.35.471,task,2021.1.4,Win32,144.4043321,628b806c463b948bc644b84f,6291cadc64afdf8bb9f38b79,,,,,,1,0,1,0,1,"X V Q F H G B L J M P D K C T S W R N Z
",,,,,,,,,,,,,,,,,,,,,,,,,,,,,,,,,,,,,,,,,,,,,,,,,,,,,,,,,,,,,,,,,,,,,,,,,,,,,,,,,,,,,,,,,,,,,
,,,,,,,,,61084a60622c3e2c8f30d629,19,Mężczyzna,2022-05-28_09h10.35.471,task,2021.1.4,Win32,144.4043321,628b806c463b948bc644b84f,6291cadc64afdf8bb9f38b79,,,,,,,,,,,,zk,"[""z"",""k""]","[3.132899999976132,3.535799999952303,4.480299999952308]",1,ZK,0,0,0,0,1,,,,,,,,,,,,,,,,,,,,,,,,,,,,,,,,,,,,,,,,,,,,,,,,,,,,,,,,,,,,,,,,,,,,,,,,,,,,,,,,,,,
,,,,,,,,,61084a60622c3e2c8f30d629,19,Mężczyzna,2022-05-28_09h10.35.471,task,2021.1.4,Win32,144.4043321,628b806c463b948bc644b84f,6291cadc64afdf8bb9f38b79,,,,,,0,0,0,0,1,"X V Q F H G B L J M P D K C T S W R N Z
",,,,,,,,,,,,,,,,,,,,,,,,,,,,,,,,,,,,,,,,,,,,,,,,,,,,,,,,,,,,,,,,,,,,,,,,,,,,,,,,,,,,,,,,,,,,,
,,,,,,,,,61084a60622c3e2c8f30d629,19,Mężczyzna,2022-05-28_09h10.35.471,task,2021.1.4,Win32,144.4043321,628b806c463b948bc644b84f,6291cadc64afdf8bb9f38b79,,,,,,1,0,1,0,1,"X V Q F H G B L J M P D K C T S W R N Z
",,,,,,,,,,,,,,,,,,,,,,,,,,,,,,,,,,,,,,,,,,,,,,,,,,,,,,,,,,,,,,,,,,,,,,,,,,,,,,,,,,,,,,,,,,,,,
,,,,,,,,,61084a60622c3e2c8f30d629,19,Mężczyzna,2022-05-28_09h10.35.471,task,2021.1.4,Win32,144.4043321,628b806c463b948bc644b84f,6291cadc64afdf8bb9f38b79,,,,,,,,,,,,bb,"[""b"",""b""]","[1.1805999999046435,1.51400000000001,2.7985999999046385]",1,BB,1,0,1,0,1,,,,,,,,,,,,,,,,,,,,,,,,,,,,,,,,,,,,,,,,,,,,,,,,,,,,,,,,,,,,,,,,,,,,,,,,,,,,,,,,,,,
,,,,,,,,,61084a60622c3e2c8f30d629,19,Mężczyzna,2022-05-28_09h10.35.471,task,2021.1.4,Win32,144.4043321,628b806c463b948bc644b84f,6291cadc64afdf8bb9f38b79,,,,,,0,0,0,0,1,"X V Q F H G B L J M P D K C T S W R N Z
",,,,,,,,,,,,,,,,,,,,,,,,,,,,,,,,,,,,,,,,,,,,,,,,,,,,,,,,,,,,,,,,,,,,,,,,,,,,,,,,,,,,,,,,,,,,,
,,,,,,,,,61084a60622c3e2c8f30d629,19,Mężczyzna,2022-05-28_09h10.35.471,task,2021.1.4,Win32,144.4043321,628b806c463b948bc644b84f,6291cadc64afdf8bb9f38b79,,,,,,1,0,1,0,1,"X V Q F H G B L J M P D K C T S W R N Z
",,,,,,,,,,,,,,,,,,,,,,,,,,,,,,,,,,,,,,,,,,,,,,,,,,,,,,,,,,,,,,,,,,,,,,,,,,,,,,,,,,,,,,,,,,,,,
,,,,,,,,,61084a60622c3e2c8f30d629,19,Mężczyzna,2022-05-28_09h10.35.471,task,2021.1.4,Win32,144.4043321,628b806c463b948bc644b84f,6291cadc64afdf8bb9f38b79,,,,,,2,0,2,0,1,"X V Q F H G B L J M P D K C T S W R N Z
",,,,,,,,,,,,,,,,,,,,,,,,,,,,,,,,,,,,,,,,,,,,,,,,,,,,,,,,,,,,,,,,,,,,,,,,,,,,,,,,,,,,,,,,,,,,,
,,,,,,,,,61084a60622c3e2c8f30d629,19,Mężczyzna,2022-05-28_09h10.35.471,task,2021.1.4,Win32,144.4043321,628b806c463b948bc644b84f,6291cadc64afdf8bb9f38b79,,,,,,,,,,,,gmc,"[""g"",""m"",""c""]","[0.9167999999523317,1.1807000000476933,2.083399999976166,3.194600000023854]",1,GMC,2,0,2,0,1,,,,,,,,,,,,,,,,,,,,,,,,,,,,,,,,,,,,,,,,,,,,,,,,,,,,,,,,,,,,,,,,,,,,,,,,,,,,,,,,,,,
,,,,,,,,,61084a60622c3e2c8f30d629,19,Mężczyzna,2022-05-28_09h10.35.471,task,2021.1.4,Win32,144.4043321,628b806c463b948bc644b84f,6291cadc64afdf8bb9f38b79,,,,,,0,0,0,0,1,"X V Q F H G B L J M P D K C T S W R N Z
",,,,,,,,,,,,,,,,,,,,,,,,,,,,,,,,,,,,,,,,,,,,,,,,,,,,,,,,,,,,,,,,,,,,,,,,,,,,,,,,,,,,,,,,,,,,,
,,,,,,,,,61084a60622c3e2c8f30d629,19,Mężczyzna,2022-05-28_09h10.35.471,task,2021.1.4,Win32,144.4043321,628b806c463b948bc644b84f,6291cadc64afdf8bb9f38b79,,,,,,1,0,1,0,1,"X V Q F H G B L J M P D K C T S W R N Z
",,,,,,,,,,,,,,,,,,,,,,,,,,,,,,,,,,,,,,,,,,,,,,,,,,,,,,,,,,,,,,,,,,,,,,,,,,,,,,,,,,,,,,,,,,,,,
,,,,,,,,,61084a60622c3e2c8f30d629,19,Mężczyzna,2022-05-28_09h10.35.471,task,2021.1.4,Win32,144.4043321,628b806c463b948bc644b84f,6291cadc64afdf8bb9f38b79,,,,,,2,0,2,0,1,"X V Q F H G B L J M P D K C T S W R N Z
",,,,,,,,,,,,,,,,,,,,,,,,,,,,,,,,,,,,,,,,,,,,,,,,,,,,,,,,,,,,,,,,,,,,,,,,,,,,,,,,,,,,,,,,,,,,,
,,,,,,,,,61084a60622c3e2c8f30d629,19,Mężczyzna,2022-05-28_09h10.35.471,task,2021.1.4,Win32,144.4043321,628b806c463b948bc644b84f,6291cadc64afdf8bb9f38b79,,,,,,,,,,,,tzp,"[""t"",""z"",""p""]","[1.3612999999523367,1.7381000000238487,2.527899999976171,3.4663999999761472]",0,"TZ
P",3,0,3,0,1,,,,,,,,,,,,,,,,,,,,,,,,,,,,,,,,,,,,,,,,,,,,,,,,,,,,,,,,,,,,,,,,,,,,,,,,,,,,,,,,,,,
,,,,,,,,,61084a60622c3e2c8f30d629,19,Mężczyzna,2022-05-28_09h10.35.471,task,2021.1.4,Win32,144.4043321,628b806c463b948bc644b84f,6291cadc64afdf8bb9f38b79,,,,,,0,0,0,0,1,"X V Q F H G B L J M P D K C T S W R N Z
",,,,,,,,,,,,,,,,,,,,,,,,,,,,,,,,,,,,,,,,,,,,,,,,,,,,,,,,,,,,,,,,,,,,,,,,,,,,,,,,,,,,,,,,,,,,,
,,,,,,,,,61084a60622c3e2c8f30d629,19,Mężczyzna,2022-05-28_09h10.35.471,task,2021.1.4,Win32,144.4043321,628b806c463b948bc644b84f,6291cadc64afdf8bb9f38b79,,,,,,1,0,1,0,1,"X V Q F H G B L J M P D K C T S W R N Z
",,,,,,,,,,,,,,,,,,,,,,,,,,,,,,,,,,,,,,,,,,,,,,,,,,,,,,,,,,,,,,,,,,,,,,,,,,,,,,,,,,,,,,,,,,,,,
,,,,,,,,,61084a60622c3e2c8f30d629,19,Mężczyzna,2022-05-28_09h10.35.471,task,2021.1.4,Win32,144.4043321,628b806c463b948bc644b84f,6291cadc64afdf8bb9f38b79,,,,,,2,0,2,0,1,"X V Q F H G B L J M P D K C T S W R N Z
",,,,,,,,,,,,,,,,,,,,,,,,,,,,,,,,,,,,,,,,,,,,,,,,,,,,,,,,,,,,,,,,,,,,,,,,,,,,,,,,,,,,,,,,,,,,,
,,,,,,,,,61084a60622c3e2c8f30d629,19,Mężczyzna,2022-05-28_09h10.35.471,task,2021.1.4,Win32,144.4043321,628b806c463b948bc644b84f,6291cadc64afdf8bb9f38b79,,,,,,,,,,,,wrf,"[""w"",""r"",""f""]","[0.382000000000005,0.7083999999761659,1.02800000000002,2.083399999976166]",1,WRF,4,0,4,0,1,,,,,,,,,,,,,,,,,,,,,,,,,,,,,,,,,,,,,,,,,,,,,,,,,,,,,,,,,,,,,,,,,,,,,,,,,,,,,,,,,,,
,,,,,,,,,61084a60622c3e2c8f30d629,19,Mężczyzna,2022-05-28_09h10.35.471,task,2021.1.4,Win32,144.4043321,628b806c463b948bc644b84f,6291cadc64afdf8bb9f38b79,,,,,,0,0,0,0,1,"X V Q F H G B L J M P D K C T S W R N Z
",,,,,,,,,,,,,,,,,,,,,,,,,,,,,,,,,,,,,,,,,,,,,,,,,,,,,,,,,,,,,,,,,,,,,,,,,,,,,,,,,,,,,,,,,,,,,
,,,,,,,,,61084a60622c3e2c8f30d629,19,Mężczyzna,2022-05-28_09h10.35.471,task,2021.1.4,Win32,144.4043321,628b806c463b948bc644b84f,6291cadc64afdf8bb9f38b79,,,,,,1,0,1,0,1,"X V Q F H G B L J M P D K C T S W R N Z
",,,,,,,,,,,,,,,,,,,,,,,,,,,,,,,,,,,,,,,,,,,,,,,,,,,,,,,,,,,,,,,,,,,,,,,,,,,,,,,,,,,,,,,,,,,,,
,,,,,,,,,61084a60622c3e2c8f30d629,19,Mężczyzna,2022-05-28_09h10.35.471,task,2021.1.4,Win32,144.4043321,628b806c463b948bc644b84f,6291cadc64afdf8bb9f38b79,,,,,,2,0,2,0,1,"X V Q F H G B L J M P D K C T S W R N Z
",,,,,,,,,,,,,,,,,,,,,,,,,,,,,,,,,,,,,,,,,,,,,,,,,,,,,,,,,,,,,,,,,,,,,,,,,,,,,,,,,,,,,,,,,,,,,
,,,,,,,,,61084a60622c3e2c8f30d629,19,Mężczyzna,2022-05-28_09h10.35.471,task,2021.1.4,Win32,144.4043321,628b806c463b948bc644b84f,6291cadc64afdf8bb9f38b79,,,,,,3,0,3,0,1,"X V Q F H G B L J M P D K C T S W R N Z
",,,,,,,,,,,,,,,,,,,,,,,,,,,,,,,,,,,,,,,,,,,,,,,,,,,,,,,,,,,,,,,,,,,,,,,,,,,,,,,,,,,,,,,,,,,,,
,,,,,,,,,61084a60622c3e2c8f30d629,19,Mężczyzna,2022-05-28_09h10.35.471,task,2021.1.4,Win32,144.4043321,628b806c463b948bc644b84f,6291cadc64afdf8bb9f38b79,,,,,,,,,,,,dpdh,"[""d"",""p"",""d"",""h""]","[1.2501000000237923,1.791899999976124,2.034899999976119,2.8752000000476414,4.04879999995228]",1,DPDH,5,0,5,0,1,,,,,,,,,,,,,,,,,,,,,,,,,,,,,,,,,,,,,,,,,,,,,,,,,,,,,,,,,,,,,,,,,,,,,,,,,,,,,,,,,,,
,,,,,,,,,61084a60622c3e2c8f30d629,19,Mężczyzna,2022-05-28_09h10.35.471,task,2021.1.4,Win32,144.4043321,628b806c463b948bc644b84f,6291cadc64afdf8bb9f38b79,,,,,,0,0,0,0,1,"X V Q F H G B L J M P D K C T S W R N Z
",,,,,,,,,,,,,,,,,,,,,,,,,,,,,,,,,,,,,,,,,,,,,,,,,,,,,,,,,,,,,,,,,,,,,,,,,,,,,,,,,,,,,,,,,,,,,
,,,,,,,,,61084a60622c3e2c8f30d629,19,Mężczyzna,2022-05-28_09h10.35.471,task,2021.1.4,Win32,144.4043321,628b806c463b948bc644b84f,6291cadc64afdf8bb9f38b79,,,,,,1,0,1,0,1,"X V Q F H G B L J M P D K C T S W R N Z
",,,,,,,,,,,,,,,,,,,,,,,,,,,,,,,,,,,,,,,,,,,,,,,,,,,,,,,,,,,,,,,,,,,,,,,,,,,,,,,,,,,,,,,,,,,,,
,,,,,,,,,61084a60622c3e2c8f30d629,19,Mężczyzna,2022-05-28_09h10.35.471,task,2021.1.4,Win32,144.4043321,628b806c463b948bc644b84f,6291cadc64afdf8bb9f38b79,,,,,,2,0,2,0,1,"X V Q F H G B L J M P D K C T S W R N Z
",,,,,,,,,,,,,,,,,,,,,,,,,,,,,,,,,,,,,,,,,,,,,,,,,,,,,,,,,,,,,,,,,,,,,,,,,,,,,,,,,,,,,,,,,,,,,
,,,,,,,,,61084a60622c3e2c8f30d629,19,Mężczyzna,2022-05-28_09h10.35.471,task,2021.1.4,Win32,144.4043321,628b806c463b948bc644b84f,6291cadc64afdf8bb9f38b79,,,,,,3,0,3,0,1,"X V Q F H G B L J M P D K C T S W R N Z
",,,,,,,,,,,,,,,,,,,,,,,,,,,,,,,,,,,,,,,,,,,,,,,,,,,,,,,,,,,,,,,,,,,,,,,,,,,,,,,,,,,,,,,,,,,,,
,,,,,,,,,61084a60622c3e2c8f30d629,19,Mężczyzna,2022-05-28_09h10.35.471,task,2021.1.4,Win32,144.4043321,628b806c463b948bc644b84f,6291cadc64afdf8bb9f38b79,,,,,,,,,,,,bwlw,"[""b"",""w"",""l"",""w""]","[1.2314999999999827,1.6204000000953442,2.1572000000476805,2.331900000095345,3.2629000000953283]",1,BWLW,6,0,6,0,1,,,,,,,,,,,,,,,,,,,,,,,,,,,,,,,,,,,,,,,,,,,,,,,,,,,,,,,,,,,,,,,,,,,,,,,,,,,,,,,,,,,
,,,,,,,,,61084a60622c3e2c8f30d629,19,Mężczyzna,2022-05-28_09h10.35.471,task,2021.1.4,Win32,144.4043321,628b806c463b948bc644b84f,6291cadc64afdf8bb9f38b79,,,,,,0,0,0,0,1,"X V Q F H G B L J M P D K C T S W R N Z
",,,,,,,,,,,,,,,,,,,,,,,,,,,,,,,,,,,,,,,,,,,,,,,,,,,,,,,,,,,,,,,,,,,,,,,,,,,,,,,,,,,,,,,,,,,,,
,,,,,,,,,61084a60622c3e2c8f30d629,19,Mężczyzna,2022-05-28_09h10.35.471,task,2021.1.4,Win32,144.4043321,628b806c463b948bc644b84f,6291cadc64afdf8bb9f38b79,,,,,,1,0,1,0,1,"X V Q F H G B L J M P D K C T S W R N Z
",,,,,,,,,,,,,,,,,,,,,,,,,,,,,,,,,,,,,,,,,,,,,,,,,,,,,,,,,,,,,,,,,,,,,,,,,,,,,,,,,,,,,,,,,,,,,
,,,,,,,,,61084a60622c3e2c8f30d629,19,Mężczyzna,2022-05-28_09h10.35.471,task,2021.1.4,Win32,144.4043321,628b806c463b948bc644b84f,6291cadc64afdf8bb9f38b79,,,,,,2,0,2,0,1,"X V Q F H G B L J M P D K C T S W R N Z
",,,,,,,,,,,,,,,,,,,,,,,,,,,,,,,,,,,,,,,,,,,,,,,,,,,,,,,,,,,,,,,,,,,,,,,,,,,,,,,,,,,,,,,,,,,,,
,,,,,,,,,61084a60622c3e2c8f30d629,19,Mężczyzna,2022-05-28_09h10.35.471,task,2021.1.4,Win32,144.4043321,628b806c463b948bc644b84f,6291cadc64afdf8bb9f38b79,,,,,,3,0,3,0,1,"X V Q F H G B L J M P D K C T S W R N Z
",,,,,,,,,,,,,,,,,,,,,,,,,,,,,,,,,,,,,,,,,,,,,,,,,,,,,,,,,,,,,,,,,,,,,,,,,,,,,,,,,,,,,,,,,,,,,
,,,,,,,,,61084a60622c3e2c8f30d629,19,Mężczyzna,2022-05-28_09h10.35.471,task,2021.1.4,Win32,144.4043321,628b806c463b948bc644b84f,6291cadc64afdf8bb9f38b79,,,,,,4,0,4,0,1,"X V Q F H G B L J M P D K C T S W R N Z
",,,,,,,,,,,,,,,,,,,,,,,,,,,,,,,,,,,,,,,,,,,,,,,,,,,,,,,,,,,,,,,,,,,,,,,,,,,,,,,,,,,,,,,,,,,,,
,,,,,,,,,61084a60622c3e2c8f30d629,19,Mężczyzna,2022-05-28_09h10.35.471,task,2021.1.4,Win32,144.4043321,628b806c463b948bc644b84f,6291cadc64afdf8bb9f38b79,,,,,,,,,,,,htjcs,"[""h"",""t"",""j"",""c"",""s""]","[1.170399999976155,1.6248999999761509,3.4588000000715056,3.614600000023813,3.817800000071486,6.973200000047655]",1,HTJCS,7,0,7,0,1,,,,,,,,,,,,,,,,,,,,,,,,,,,,,,,,,,,,,,,,,,,,,,,,,,,,,,,,,,,,,,,,,,,,,,,,,,,,,,,,,,,
,,,,,,,,,61084a60622c3e2c8f30d629,19,Mężczyzna,2022-05-28_09h10.35.471,task,2021.1.4,Win32,144.4043321,628b806c463b948bc644b84f,6291cadc64afdf8bb9f38b79,,,,,,0,0,0,0,1,"X V Q F H G B L J M P D K C T S W R N Z
",,,,,,,,,,,,,,,,,,,,,,,,,,,,,,,,,,,,,,,,,,,,,,,,,,,,,,,,,,,,,,,,,,,,,,,,,,,,,,,,,,,,,,,,,,,,,
,,,,,,,,,61084a60622c3e2c8f30d629,19,Mężczyzna,2022-05-28_09h10.35.471,task,2021.1.4,Win32,144.4043321,628b806c463b948bc644b84f,6291cadc64afdf8bb9f38b79,,,,,,1,0,1,0,1,"X V Q F H G B L J M P D K C T S W R N Z
",,,,,,,,,,,,,,,,,,,,,,,,,,,,,,,,,,,,,,,,,,,,,,,,,,,,,,,,,,,,,,,,,,,,,,,,,,,,,,,,,,,,,,,,,,,,,
,,,,,,,,,61084a60622c3e2c8f30d629,19,Mężczyzna,2022-05-28_09h10.35.471,task,2021.1.4,Win32,144.4043321,628b806c463b948bc644b84f,6291cadc64afdf8bb9f38b79,,,,,,2,0,2,0,1,"X V Q F H G B L J M P D K C T S W R N Z
",,,,,,,,,,,,,,,,,,,,,,,,,,,,,,,,,,,,,,,,,,,,,,,,,,,,,,,,,,,,,,,,,,,,,,,,,,,,,,,,,,,,,,,,,,,,,
,,,,,,,,,61084a60622c3e2c8f30d629,19,Mężczyzna,2022-05-28_09h10.35.471,task,2021.1.4,Win32,144.4043321,628b806c463b948bc644b84f,6291cadc64afdf8bb9f38b79,,,,,,3,0,3,0,1,"X V Q F H G B L J M P D K C T S W R N Z
",,,,,,,,,,,,,,,,,,,,,,,,,,,,,,,,,,,,,,,,,,,,,,,,,,,,,,,,,,,,,,,,,,,,,,,,,,,,,,,,,,,,,,,,,,,,,
,,,,,,,,,61084a60622c3e2c8f30d629,19,Mężczyzna,2022-05-28_09h10.35.471,task,2021.1.4,Win32,144.4043321,628b806c463b948bc644b84f,6291cadc64afdf8bb9f38b79,,,,,,4,0,4,0,1,"X V Q F H G B L J M P D K C T S W R N Z
",,,,,,,,,,,,,,,,,,,,,,,,,,,,,,,,,,,,,,,,,,,,,,,,,,,,,,,,,,,,,,,,,,,,,,,,,,,,,,,,,,,,,,,,,,,,,
,,,,,,,,,61084a60622c3e2c8f30d629,19,Mężczyzna,2022-05-28_09h10.35.471,task,2021.1.4,Win32,144.4043321,628b806c463b948bc644b84f,6291cadc64afdf8bb9f38b79,,,,,,,,,,,,vqdzm,"[""v"",""q"",""d"",""z"",""m""]","[1.619299999952318,1.7942999999523295,2.3566000000238887,2.7412000000476837,3.211899999976197,4.260200000047689]",0,"VQDZ
M",8,0,8,0,1,,,,,,,,,,,,,,,,,,,,,,,,,,,,,,,,,,,,,,,,,,,,,,,,,,,,,,,,,,,,,,,,,,,,,,,,,,,,,,,,,,,
,,,,,,,,,61084a60622c3e2c8f30d629,19,Mężczyzna,2022-05-28_09h10.35.471,task,2021.1.4,Win32,144.4043321,628b806c463b948bc644b84f,6291cadc64afdf8bb9f38b79,,,,,,0,0,0,0,1,"X V Q F H G B L J M P D K C T S W R N Z
",,,,,,,,,,,,,,,,,,,,,,,,,,,,,,,,,,,,,,,,,,,,,,,,,,,,,,,,,,,,,,,,,,,,,,,,,,,,,,,,,,,,,,,,,,,,,
,,,,,,,,,61084a60622c3e2c8f30d629,19,Mężczyzna,2022-05-28_09h10.35.471,task,2021.1.4,Win32,144.4043321,628b806c463b948bc644b84f,6291cadc64afdf8bb9f38b79,,,,,,1,0,1,0,1,"X V Q F H G B L J M P D K C T S W R N Z
",,,,,,,,,,,,,,,,,,,,,,,,,,,,,,,,,,,,,,,,,,,,,,,,,,,,,,,,,,,,,,,,,,,,,,,,,,,,,,,,,,,,,,,,,,,,,
,,,,,,,,,61084a60622c3e2c8f30d629,19,Mężczyzna,2022-05-28_09h10.35.471,task,2021.1.4,Win32,144.4043321,628b806c463b948bc644b84f,6291cadc64afdf8bb9f38b79,,,,,,2,0,2,0,1,"X V Q F H G B L J M P D K C T S W R N Z
",,,,,,,,,,,,,,,,,,,,,,,,,,,,,,,,,,,,,,,,,,,,,,,,,,,,,,,,,,,,,,,,,,,,,,,,,,,,,,,,,,,,,,,,,,,,,
,,,,,,,,,61084a60622c3e2c8f30d629,19,Mężczyzna,2022-05-28_09h10.35.471,task,2021.1.4,Win32,144.4043321,628b806c463b948bc644b84f,6291cadc64afdf8bb9f38b79,,,,,,3,0,3,0,1,"X V Q F H G B L J M P D K C T S W R N Z
",,,,,,,,,,,,,,,,,,,,,,,,,,,,,,,,,,,,,,,,,,,,,,,,,,,,,,,,,,,,,,,,,,,,,,,,,,,,,,,,,,,,,,,,,,,,,
,,,,,,,,,61084a60622c3e2c8f30d629,19,Mężczyzna,2022-05-28_09h10.35.471,task,2021.1.4,Win32,144.4043321,628b806c463b948bc644b84f,6291cadc64afdf8bb9f38b79,,,,,,4,0,4,0,1,"X V Q F H G B L J M P D K C T S W R N Z
",,,,,,,,,,,,,,,,,,,,,,,,,,,,,,,,,,,,,,,,,,,,,,,,,,,,,,,,,,,,,,,,,,,,,,,,,,,,,,,,,,,,,,,,,,,,,
,,,,,,,,,61084a60622c3e2c8f30d629,19,Mężczyzna,2022-05-28_09h10.35.471,task,2021.1.4,Win32,144.4043321,628b806c463b948bc644b84f,6291cadc64afdf8bb9f38b79,,,,,,,,,,,,hnjdm,"[""h"",""n"",""j"",""d"",""m""]","[1.5726999999284885,1.8324999999999818,2.1062999999523413,2.2450000000000045,2.4256000000238487,3.230299999952308]",1,HNJDM,9,0,9,0,1,,,,,,,,,,,,,,,,,,,,,,,,,,,,,,,,,,,,,,,,,,,,,,,,,,,,,,,,,,,,,,,,,,,,,,,,,,,,,,,,,,,
,,,,,,,,,61084a60622c3e2c8f30d629,19,Mężczyzna,2022-05-28_09h10.35.471,task,2021.1.4,Win32,144.4043321,628b806c463b948bc644b84f,6291cadc64afdf8bb9f38b79,,,,,,0,0,0,0,1,"X V Q F H G B L J M P D K C T S W R N Z
",,,,,,,,,,,,,,,,,,,,,,,,,,,,,,,,,,,,,,,,,,,,,,,,,,,,,,,,,,,,,,,,,,,,,,,,,,,,,,,,,,,,,,,,,,,,,
,,,,,,,,,61084a60622c3e2c8f30d629,19,Mężczyzna,2022-05-28_09h10.35.471,task,2021.1.4,Win32,144.4043321,628b806c463b948bc644b84f,6291cadc64afdf8bb9f38b79,,,,,,1,0,1,0,1,"X V Q F H G B L J M P D K C T S W R N Z
",,,,,,,,,,,,,,,,,,,,,,,,,,,,,,,,,,,,,,,,,,,,,,,,,,,,,,,,,,,,,,,,,,,,,,,,,,,,,,,,,,,,,,,,,,,,,
,,,,,,,,,61084a60622c3e2c8f30d629,19,Mężczyzna,2022-05-28_09h10.35.471,task,2021.1.4,Win32,144.4043321,628b806c463b948bc644b84f,6291cadc64afdf8bb9f38b79,,,,,,2,0,2,0,1,"X V Q F H G B L J M P D K C T S W R N Z
",,,,,,,,,,,,,,,,,,,,,,,,,,,,,,,,,,,,,,,,,,,,,,,,,,,,,,,,,,,,,,,,,,,,,,,,,,,,,,,,,,,,,,,,,,,,,
,,,,,,,,,61084a60622c3e2c8f30d629,19,Mężczyzna,2022-05-28_09h10.35.471,task,2021.1.4,Win32,144.4043321,628b806c463b948bc644b84f,6291cadc64afdf8bb9f38b79,,,,,,3,0,3,0,1,"X V Q F H G B L J M P D K C T S W R N Z
",,,,,,,,,,,,,,,,,,,,,,,,,,,,,,,,,,,,,,,,,,,,,,,,,,,,,,,,,,,,,,,,,,,,,,,,,,,,,,,,,,,,,,,,,,,,,
,,,,,,,,,61084a60622c3e2c8f30d629,19,Mężczyzna,2022-05-28_09h10.35.471,task,2021.1.4,Win32,144.4043321,628b806c463b948bc644b84f,6291cadc64afdf8bb9f38b79,,,,,,4,0,4,0,1,"X V Q F H G B L J M P D K C T S W R N Z
",,,,,,,,,,,,,,,,,,,,,,,,,,,,,,,,,,,,,,,,,,,,,,,,,,,,,,,,,,,,,,,,,,,,,,,,,,,,,,,,,,,,,,,,,,,,,
,,,,,,,,,61084a60622c3e2c8f30d629,19,Mężczyzna,2022-05-28_09h10.35.471,task,2021.1.4,Win32,144.4043321,628b806c463b948bc644b84f,6291cadc64afdf8bb9f38b79,,,,,,5,0,5,0,1,"X V Q F H G B L J M P D K C T S W R N Z
",,,,,,,,,,,,,,,,,,,,,,,,,,,,,,,,,,,,,,,,,,,,,,,,,,,,,,,,,,,,,,,,,,,,,,,,,,,,,,,,,,,,,,,,,,,,,
,,,,,,,,,61084a60622c3e2c8f30d629,19,Mężczyzna,2022-05-28_09h10.35.471,task,2021.1.4,Win32,144.4043321,628b806c463b948bc644b84f,6291cadc64afdf8bb9f38b79,,,,,,,,,,,,dvncxx,"[""d"",""v"",""n"",""c"",""x"",""x""]","[2.9642999999522885,3.5308999999761568,4.024899999976128,4.407799999952317,4.870100000023797,5.084799999952281,5.746600000023818]",0,DWNCXX,10,0,10,0,1,,,,,,,,,,,,,,,,,,,,,,,,,,,,,,,,,,,,,,,,,,,,,,,,,,,,,,,,,,,,,,,,,,,,,,,,,,,,,,,,,,,
,,,,,,,,,61084a60622c3e2c8f30d629,19,Mężczyzna,2022-05-28_09h10.35.471,task,2021.1.4,Win32,144.4043321,628b806c463b948bc644b84f,6291cadc64afdf8bb9f38b79,,,,,,0,0,0,0,1,"X V Q F H G B L J M P D K C T S W R N Z
",,,,,,,,,,,,,,,,,,,,,,,,,,,,,,,,,,,,,,,,,,,,,,,,,,,,,,,,,,,,,,,,,,,,,,,,,,,,,,,,,,,,,,,,,,,,,
,,,,,,,,,61084a60622c3e2c8f30d629,19,Mężczyzna,2022-05-28_09h10.35.471,task,2021.1.4,Win32,144.4043321,628b806c463b948bc644b84f,6291cadc64afdf8bb9f38b79,,,,,,1,0,1,0,1,"X V Q F H G B L J M P D K C T S W R N Z
",,,,,,,,,,,,,,,,,,,,,,,,,,,,,,,,,,,,,,,,,,,,,,,,,,,,,,,,,,,,,,,,,,,,,,,,,,,,,,,,,,,,,,,,,,,,,
,,,,,,,,,61084a60622c3e2c8f30d629,19,Mężczyzna,2022-05-28_09h10.35.471,task,2021.1.4,Win32,144.4043321,628b806c463b948bc644b84f,6291cadc64afdf8bb9f38b79,,,,,,2,0,2,0,1,"X V Q F H G B L J M P D K C T S W R N Z
",,,,,,,,,,,,,,,,,,,,,,,,,,,,,,,,,,,,,,,,,,,,,,,,,,,,,,,,,,,,,,,,,,,,,,,,,,,,,,,,,,,,,,,,,,,,,
,,,,,,,,,61084a60622c3e2c8f30d629,19,Mężczyzna,2022-05-28_09h10.35.471,task,2021.1.4,Win32,144.4043321,628b806c463b948bc644b84f,6291cadc64afdf8bb9f38b79,,,,,,3,0,3,0,1,"X V Q F H G B L J M P D K C T S W R N Z
",,,,,,,,,,,,,,,,,,,,,,,,,,,,,,,,,,,,,,,,,,,,,,,,,,,,,,,,,,,,,,,,,,,,,,,,,,,,,,,,,,,,,,,,,,,,,
,,,,,,,,,61084a60622c3e2c8f30d629,19,Mężczyzna,2022-05-28_09h10.35.471,task,2021.1.4,Win32,144.4043321,628b806c463b948bc644b84f,6291cadc64afdf8bb9f38b79,,,,,,4,0,4,0,1,"X V Q F H G B L J M P D K C T S W R N Z
",,,,,,,,,,,,,,,,,,,,,,,,,,,,,,,,,,,,,,,,,,,,,,,,,,,,,,,,,,,,,,,,,,,,,,,,,,,,,,,,,,,,,,,,,,,,,
,,,,,,,,,61084a60622c3e2c8f30d629,19,Mężczyzna,2022-05-28_09h10.35.471,task,2021.1.4,Win32,144.4043321,628b806c463b948bc644b84f,6291cadc64afdf8bb9f38b79,,,,,,5,0,5,0,1,"X V Q F H G B L J M P D K C T S W R N Z
",,,,,,,,,,,,,,,,,,,,,,,,,,,,,,,,,,,,,,,,,,,,,,,,,,,,,,,,,,,,,,,,,,,,,,,,,,,,,,,,,,,,,,,,,,,,,
,,,,,,,,,61084a60622c3e2c8f30d629,19,Mężczyzna,2022-05-28_09h10.35.471,task,2021.1.4,Win32,144.4043321,628b806c463b948bc644b84f,6291cadc64afdf8bb9f38b79,,,,,,,,,,,,mpmcvd,"[""m"",""p"",""m"",""c"",""v"",""d""]","[1.1990000000000123,1.5242999999523477,2.0861999999285104,2.96939999997619,3.7347999999523154,3.9505000000000337,4.774600000023895]",0,MPMDCW,11,0,11,0,1,,,,,,,,,,,,,,,,,,,,,,,,,,,,,,,,,,,,,,,,,,,,,,,,,,,,,,,,,,,,,,,,,,,,,,,,,,,,,,,,,,,
,,,,,,,,,61084a60622c3e2c8f30d629,19,Mężczyzna,2022-05-28_09h10.35.471,task,2021.1.4,Win32,144.4043321,628b806c463b948bc644b84f,6291cadc64afdf8bb9f38b79,,,,,,0,0,0,0,1,"X V Q F H G B L J M P D K C T S W R N Z
",,,,,,,,,,,,,,,,,,,,,,,,,,,,,,,,,,,,,,,,,,,,,,,,,,,,,,,,,,,,,,,,,,,,,,,,,,,,,,,,,,,,,,,,,,,,,
,,,,,,,,,61084a60622c3e2c8f30d629,19,Mężczyzna,2022-05-28_09h10.35.471,task,2021.1.4,Win32,144.4043321,628b806c463b948bc644b84f,6291cadc64afdf8bb9f38b79,,,,,,1,0,1,0,1,"X V Q F H G B L J M P D K C T S W R N Z
",,,,,,,,,,,,,,,,,,,,,,,,,,,,,,,,,,,,,,,,,,,,,,,,,,,,,,,,,,,,,,,,,,,,,,,,,,,,,,,,,,,,,,,,,,,,,
,,,,,,,,,61084a60622c3e2c8f30d629,19,Mężczyzna,2022-05-28_09h10.35.471,task,2021.1.4,Win32,144.4043321,628b806c463b948bc644b84f,6291cadc64afdf8bb9f38b79,,,,,,2,0,2,0,1,"X V Q F H G B L J M P D K C T S W R N Z
",,,,,,,,,,,,,,,,,,,,,,,,,,,,,,,,,,,,,,,,,,,,,,,,,,,,,,,,,,,,,,,,,,,,,,,,,,,,,,,,,,,,,,,,,,,,,
,,,,,,,,,61084a60622c3e2c8f30d629,19,Mężczyzna,2022-05-28_09h10.35.471,task,2021.1.4,Win32,144.4043321,628b806c463b948bc644b84f,6291cadc64afdf8bb9f38b79,,,,,,3,0,3,0,1,"X V Q F H G B L J M P D K C T S W R N Z
",,,,,,,,,,,,,,,,,,,,,,,,,,,,,,,,,,,,,,,,,,,,,,,,,,,,,,,,,,,,,,,,,,,,,,,,,,,,,,,,,,,,,,,,,,,,,
,,,,,,,,,61084a60622c3e2c8f30d629,19,Mężczyzna,2022-05-28_09h10.35.471,task,2021.1.4,Win32,144.4043321,628b806c463b948bc644b84f,6291cadc64afdf8bb9f38b79,,,,,,4,0,4,0,1,"X V Q F H G B L J M P D K C T S W R N Z
",,,,,,,,,,,,,,,,,,,,,,,,,,,,,,,,,,,,,,,,,,,,,,,,,,,,,,,,,,,,,,,,,,,,,,,,,,,,,,,,,,,,,,,,,,,,,
,,,,,,,,,61084a60622c3e2c8f30d629,19,Mężczyzna,2022-05-28_09h10.35.471,task,2021.1.4,Win32,144.4043321,628b806c463b948bc644b84f,6291cadc64afdf8bb9f38b79,,,,,,5,0,5,0,1,"X V Q F H G B L J M P D K C T S W R N Z
",,,,,,,,,,,,,,,,,,,,,,,,,,,,,,,,,,,,,,,,,,,,,,,,,,,,,,,,,,,,,,,,,,,,,,,,,,,,,,,,,,,,,,,,,,,,,
,,,,,,,,,61084a60622c3e2c8f30d629,19,Mężczyzna,2022-05-28_09h10.35.471,task,2021.1.4,Win32,144.4043321,628b806c463b948bc644b84f,6291cadc64afdf8bb9f38b79,,,,,,,,,,,,sbmjdnc,"[""s"",""b"",""m"",""j"",""d"",""n"",""c""]","[2.0407999999523554,2.3121999999285094,2.448000000000036,3.0615000000000236,3.581199999928515,6.411299999952348,6.693199999928481,8.192799999952342]",0,SBMJDN,12,0,12,0,1,,,,,,,,,,,,,,,,,,,,,,,,,,,,,,,,,,,,,,,,,,,,,,,,,,,,,,,,,,,,,,,,,,,,,,,,,,,,,,,,,,,
,,,,,,,,,61084a60622c3e2c8f30d629,19,Mężczyzna,2022-05-28_09h10.35.471,task,2021.1.4,Win32,144.4043321,628b806c463b948bc644b84f,6291cadc64afdf8bb9f38b79,,,,,,,,,,,,,,,,,,,,,,space,21.2168,3,"[""3""]",1,[7.70770000004768],[7.70770000004768],0,0,0,3,1,Practice,4,(8/4) + 1,3,,,,,,,,,,,,,,,,,,,,,,,,,,,,,,,,,,,,,,,,,,,,,,,,,,,,,,,,,,,,,,,,,,,
,,,,,,,,,61084a60622c3e2c8f30d629,19,Mężczyzna,2022-05-28_09h10.35.471,task,2021.1.4,Win32,144.4043321,628b806c463b948bc644b84f,6291cadc64afdf8bb9f38b79,,,,,,,,,,,,,,,,,,,,,,,,1,"[""1""]",0,[3.541899999976181],"[7.70770000004768,3.541899999976181]",0,1,1,9,1,Practice,10,(20/2) - 1,9,,,,,,,,,,,,,,,,,,,,,,,,,,,,,,,,,,,,,,,,,,,,,,,,,,,,,,,,,,,,,,,,,,,
,,,,,,,,,61084a60622c3e2c8f30d629,19,Mężczyzna,2022-05-28_09h10.35.471,task,2021.1.4,Win32,144.4043321,628b806c463b948bc644b84f,6291cadc64afdf8bb9f38b79,,,,,,,,,,,,,,,,,,,,,,,,7,"[""7""]",1,[6.664799999952265],"[7.70770000004768,3.541899999976181,6.664799999952265]",0,2,2,7,1,Practice,8,(5x5) - 18,7,,,,,,,,,,,,,,,,,,,,,,,,,,,,,,,,,,,,,,,,,,,,,,,,,,,,,,,,,,,,,,,,,,,
,,,,,,,,,61084a60622c3e2c8f30d629,19,Mężczyzna,2022-05-28_09h10.35.471,task,2021.1.4,Win32,144.4043321,628b806c463b948bc644b84f,6291cadc64afdf8bb9f38b79,,,,,,,,,,,,,,,,,,,,,,,,0,"[""0""]",1,[2.794499999999971],"[7.70770000004768,3.541899999976181,6.664799999952265,2.794499999999971]",0,3,3,0,1,Practice,1,(3x3) -  9,0,,,,,,,,,,,,,,,,,,,,,,,,,,,,,,,,,,,,,,,,,,,,,,,,,,,,,,,,,,,,,,,,,,,
,,,,,,,,,61084a60622c3e2c8f30d629,19,Mężczyzna,2022-05-28_09h10.35.471,task,2021.1.4,Win32,144.4043321,628b806c463b948bc644b84f,6291cadc64afdf8bb9f38b79,,,,,,,,,,,,,,,,,,,,,,,,6,"[""6""]",1,[2.97820000004765],"[7.70770000004768,3.541899999976181,6.664799999952265,2.794499999999971,2.97820000004765]",0,4,4,6,1,Practice,7,(25/5) + 1,6,,,,,,,,,,,,,,,,,,,,,,,,,,,,,,,,,,,,,,,,,,,,,,,,,,,,,,,,,,,,,,,,,,,
,,,,,,,,,61084a60622c3e2c8f30d629,19,Mężczyzna,2022-05-28_09h10.35.471,task,2021.1.4,Win32,144.4043321,628b806c463b948bc644b84f,6291cadc64afdf8bb9f38b79,,,,,,,,,,,,,,,,,,,,,,,,1,"[""1""]",1,[2.802500000000009],"[7.70770000004768,3.541899999976181,6.664799999952265,2.794499999999971,2.97820000004765,2.802500000000009]",0,5,5,1,1,Practice,2,(4x4) - 15,1,,,,,,,,,,,,,,,,,,,,,,,,,,,,,,,,,,,,,,,,,,,,,,,,,,,,,,,,,,,,,,,,,,,
,,,,,,,,,61084a60622c3e2c8f30d629,19,Mężczyzna,2022-05-28_09h10.35.471,task,2021.1.4,Win32,144.4043321,628b806c463b948bc644b84f,6291cadc64afdf8bb9f38b79,,,,,,,,,,,,,,,,,,,,,,,,8,"[""8""]",1,[2.1616000000238955],"[7.70770000004768,3.541899999976181,6.664799999952265,2.794499999999971,2.97820000004765,2.802500000000009,2.1616000000238955]",0,6,6,8,1,Practice,9,(3x3) - 1,8,,,,,,,,,,,,,,,,,,,,,,,,,,,,,,,,,,,,,,,,,,,,,,,,,,,,,,,,,,,,,,,,,,,
,,,,,,,,,61084a60622c3e2c8f30d629,19,Mężczyzna,2022-05-28_09h10.35.471,task,2021.1.4,Win32,144.4043321,628b806c463b948bc644b84f,6291cadc64afdf8bb9f38b79,,,,,,,,,,,,,,,,,,,,,,,,6,"[""6""]",0,[13.020600000023933],"[7.70770000004768,3.541899999976181,6.664799999952265,2.794499999999971,2.97820000004765,2.802500000000009,2.1616000000238955,13.020600000023933]",0,7,7,4,1,Practice,5,(2x6) - 8,4,,,,,,,,,,,,,,,,,,,,,,,,,,,,,,,,,,,,,,,,,,,,,,,,,,,,,,,,,,,,,,,,,,,
,,,,,,,,,61084a60622c3e2c8f30d629,19,Mężczyzna,2022-05-28_09h10.35.471,task,2021.1.4,Win32,144.4043321,628b806c463b948bc644b84f,6291cadc64afdf8bb9f38b79,,,,,,,,,,,,,,,,,,,,,,,,2,"[""2""]",1,[3.749100000023873],"[7.70770000004768,3.541899999976181,6.664799999952265,2.794499999999971,2.97820000004765,2.802500000000009,2.1616000000238955,13.020600000023933,3.749100000023873]",0,8,8,2,1,Practice,3,(4x4) - 14,2,,,,,,,,,,,,,,,,,,,,,,,,,,,,,,,,,,,,,,,,,,,,,,,,,,,,,,,,,,,,,,,,,,,
,,,,,,,,,61084a60622c3e2c8f30d629,19,Mężczyzna,2022-05-28_09h10.35.471,task,2021.1.4,Win32,144.4043321,628b806c463b948bc644b84f,6291cadc64afdf8bb9f38b79,,,,,,,,,,,,,,,,,,,,,,,,5,"[""5""]",1,[7.011799999952359],"[7.70770000004768,3.541899999976181,6.664799999952265,2.794499999999971,2.97820000004765,2.802500000000009,2.1616000000238955,13.020600000023933,3.749100000023873,7.011799999952359]",0,9,9,5,1,Practice,6,(4/2) + 3,5,,,,,,,,,,,,,,,,,,,,,,,,,,,,,,,,,,,,,,,,,,,,,,,,,,,,,,,,,,,,,,,,,,,
,,,,,,,,,61084a60622c3e2c8f30d629,19,Mężczyzna,2022-05-28_09h10.35.471,task,2021.1.4,Win32,144.4043321,628b806c463b948bc644b84f,6291cadc64afdf8bb9f38b79,,,,,,,,,,,,,,,,,,,,,,,,,,,,,,,,,,,,,,0.8,52.4327,3.495513333,133.9635254,2.988461426,11.20574381,space,2.4552,0,0,0,0,1,,,,,,,,,,,,,,,,,,,,,,,,,,,,,,,,,,,,,,,,,,,,,,,,,,,,,,
,,,,,,,,,61084a60622c3e2c8f30d629,19,Mężczyzna,2022-05-28_09h10.35.471,task,2021.1.4,Win32,144.4043321,628b806c463b948bc644b84f,6291cadc64afdf8bb9f38b79,,,,,,,,,,,,,,,,,,,,,,,,9,,,,,,,,,,Practice,10,(20/2) - 1,9,,,,,,,,,,,,,,space,17.9578,"[""9""]",1,[3.4103000000715156],1,0,0,0,9,1,,,,,,,,,,,,,,,,,,,,,,,,,,,,,,,,,,,,,,,,,,,
,,,,,,,,,61084a60622c3e2c8f30d629,19,Mężczyzna,2022-05-28_09h10.35.471,task,2021.1.4,Win32,144.4043321,628b806c463b948bc644b84f,6291cadc64afdf8bb9f38b79,,,,,,,,,,,"X V Q F H G B L J M P D K C T S W R N Z
",,,,,,,,,,,,,,,,,,,,,,,,,,,,,,,,,,,,,,,,,,,,,,,,,,,0,0,0,0,1,,,,,,,,,,,,,,,,,,,,,,,,,,,,,,,,,,,,,,
,,,,,,,,,61084a60622c3e2c8f30d629,19,Mężczyzna,2022-05-28_09h10.35.471,task,2021.1.4,Win32,144.4043321,628b806c463b948bc644b84f,6291cadc64afdf8bb9f38b79,,,,,,,,,,,,,,,,,,,,,,,,2,,,,,,,,,,Practice,3,(4x4) - 14,2,,,,,,,,,,,,,,,,"[""2""]",1,[2.3472000000476783],1,0,0,0,2,1,,,,,,,,,,,,,,,,,,,,,,,,,,,,,,,,,,,,,,,,,,,
,,,,,,,,,61084a60622c3e2c8f30d629,19,Mężczyzna,2022-05-28_09h10.35.471,task,2021.1.4,Win32,144.4043321,628b806c463b948bc644b84f,6291cadc64afdf8bb9f38b79,,,,,,,,,,,"X V Q F H G B L J M P D K C T S W R N Z
",,,,,,,,,,,,,,,,,,,,,,,,,,,,,,,,,,,,,,,,,,,,,,,,,,,1,0,1,0,1,,,,,,,,,,,,,,,,,,,,,,,,,,,,,,,,,,,,,,
,,,,,,,,,61084a60622c3e2c8f30d629,19,Mężczyzna,2022-05-28_09h10.35.471,task,2021.1.4,Win32,144.4043321,628b806c463b948bc644b84f,6291cadc64afdf8bb9f38b79,,,,,,,,,,,,,,,,,,,,,,,,,,,,,,,,,,,,,,,,,,,,,,,,,,,,,,,,,,,,,,,,,,,zw,"[""z"",""w""]",0,"[2.4043999999761354,2.987699999928509,4.321599999904606]",1,0,0,0,0,1,,,,,,,,,,,,,,,,,,,,,,,,,,,,
,,,,,,,,,61084a60622c3e2c8f30d629,19,Mężczyzna,2022-05-28_09h10.35.471,task,2021.1.4,Win32,144.4043321,628b806c463b948bc644b84f,6291cadc64afdf8bb9f38b79,,,,,,,,,,,,,,,,,,,,,,,,8,,,,,,,,,,Practice,9,(3x3) - 1,8,,,,,,,,,,,,,,,,"[""8""]",1,[2.277399999976069],1,0,0,0,8,1,,,,,,,,,,,,,,,,,,,,,,,,,,,,,,,,,,,,,,,,,,,
,,,,,,,,,61084a60622c3e2c8f30d629,19,Mężczyzna,2022-05-28_09h10.35.471,task,2021.1.4,Win32,144.4043321,628b806c463b948bc644b84f,6291cadc64afdf8bb9f38b79,,,,,,,,,,,"X V Q F H G B L J M P D K C T S W R N Z
",,,,,,,,,,,,,,,,,,,,,,,,,,,,,,,,,,,,,,,,,,,,,,,,,,,0,0,0,0,1,,,,,,,,,,,,,,,,,,,,,,,,,,,,,,,,,,,,,,
,,,,,,,,,61084a60622c3e2c8f30d629,19,Mężczyzna,2022-05-28_09h10.35.471,task,2021.1.4,Win32,144.4043321,628b806c463b948bc644b84f,6291cadc64afdf8bb9f38b79,,,,,,,,,,,,,,,,,,,,,,,,0,,,,,,,,,,Practice,1,(3x3) -  9,0,,,,,,,,,,,,,,,,"[""0""]",1,[2.3247000000477556],1,0,0,0,0,1,,,,,,,,,,,,,,,,,,,,,,,,,,,,,,,,,,,,,,,,,,,
,,,,,,,,,61084a60622c3e2c8f30d629,19,Mężczyzna,2022-05-28_09h10.35.471,task,2021.1.4,Win32,144.4043321,628b806c463b948bc644b84f,6291cadc64afdf8bb9f38b79,,,,,,,,,,,"X V Q F H G B L J M P D K C T S W R N Z
",,,,,,,,,,,,,,,,,,,,,,,,,,,,,,,,,,,,,,,,,,,,,,,,,,,1,0,1,0,1,,,,,,,,,,,,,,,,,,,,,,,,,,,,,,,,,,,,,,
,,,,,,,,,61084a60622c3e2c8f30d629,19,Mężczyzna,2022-05-28_09h10.35.471,task,2021.1.4,Win32,144.4043321,628b806c463b948bc644b84f,6291cadc64afdf8bb9f38b79,,,,,,,,,,,,,,,,,,,,,,,,,,,,,,,,,,,,,,,,,,,,,,,,,,,,,,,,,,,,,,,,,,,fl,"[""f"",""l""]",0,"[1.7831000000238646,1.9211000000237846,2.385799999952269]",1,1,0,1,0,1,,,,,,,,,,,,,,,,,,,,,,,,,,,,
,,,,,,,,,61084a60622c3e2c8f30d629,19,Mężczyzna,2022-05-28_09h10.35.471,task,2021.1.4,Win32,144.4043321,628b806c463b948bc644b84f,6291cadc64afdf8bb9f38b79,,,,,,,,,,,,,,,,,,,,,,,,,,,,,,,,,,Practice,8,(5x5) - 18,7,,,,,,,,,,,,,,,,,0,,0,0,0,0,7,1,,,,,,,,,,,,,,,,,,,,,,,,,,,,,,,,,,,,,,,,,,,
,,,,,,,,,61084a60622c3e2c8f30d629,19,Mężczyzna,2022-05-28_09h10.35.471,task,2021.1.4,Win32,144.4043321,628b806c463b948bc644b84f,6291cadc64afdf8bb9f38b79,,,,,,,,,,,,,,,,,,,,,,,,7,,,,,,,,,,Practice,9,(3x3) - 1,8,,,,,,,,,,,,,,,,"[""7""]",0,[1.7450000000000045],0,0,1,1,8,1,,,,,,,,,,,,,,,,,,,,,,,,,,,,,,,,,,,,,,,,,,,
,,,,,,,,,61084a60622c3e2c8f30d629,19,Mężczyzna,2022-05-28_09h10.35.471,task,2021.1.4,Win32,144.4043321,628b806c463b948bc644b84f,6291cadc64afdf8bb9f38b79,,,,,,,,,,,,,,,,,,,,,,,,3,,,,,,,,,,Practice,4,(8/4) + 1,3,,,,,,,,,,,,,,,,"[""3""]",1,[4.1827999999522945],1,0,2,2,3,1,,,,,,,,,,,,,,,,,,,,,,,,,,,,,,,,,,,,,,,,,,,
,,,,,,,,,61084a60622c3e2c8f30d629,19,Mężczyzna,2022-05-28_09h10.35.471,task,2021.1.4,Win32,144.4043321,628b806c463b948bc644b84f,6291cadc64afdf8bb9f38b79,,,,,,,,,,,"X V Q F H G B L J M P D K C T S W R N Z
",,,,,,,,,,,,,,,,,,,,,,,,,,,,,,,,,,,,,,,,,,,,,,,,,,,0,0,0,0,1,,,,,,,,,,,,,,,,,,,,,,,,,,,,,,,,,,,,,,
,,,,,,,,,61084a60622c3e2c8f30d629,19,Mężczyzna,2022-05-28_09h10.35.471,task,2021.1.4,Win32,144.4043321,628b806c463b948bc644b84f,6291cadc64afdf8bb9f38b79,,,,,,,,,,,,,,,,,,,,,,,,5,,,,,,,,,,Practice,6,(4/2) + 3,5,,,,,,,,,,,,,,,,"[""5""]",1,[5.8813999999762245],1,0,0,0,5,1,,,,,,,,,,,,,,,,,,,,,,,,,,,,,,,,,,,,,,,,,,,
,,,,,,,,,61084a60622c3e2c8f30d629,19,Mężczyzna,2022-05-28_09h10.35.471,task,2021.1.4,Win32,144.4043321,628b806c463b948bc644b84f,6291cadc64afdf8bb9f38b79,,,,,,,,,,,"X V Q F H G B L J M P D K C T S W R N Z
",,,,,,,,,,,,,,,,,,,,,,,,,,,,,,,,,,,,,,,,,,,,,,,,,,,1,0,1,0,1,,,,,,,,,,,,,,,,,,,,,,,,,,,,,,,,,,,,,,
,,,,,,,,,61084a60622c3e2c8f30d629,19,Mężczyzna,2022-05-28_09h10.35.471,task,2021.1.4,Win32,144.4043321,628b806c463b948bc644b84f,6291cadc64afdf8bb9f38b79,,,,,,,,,,,,,,,,,,,,,,,,,,,,,,,,,,,,,,,,,,,,,,,,,,,,,,,,,,,,,,,,,,,nx,"[""n"",""x""]",0,"[2.0163999999762154,2.388500000000022,3.2611999999285217]",1,2,0,2,0,1,,,,,,,,,,,,,,,,,,,,,,,,,,,,
,,,,,,,,,61084a60622c3e2c8f30d629,19,Mężczyzna,2022-05-28_09h10.35.471,task,2021.1.4,Win32,144.4043321,628b806c463b948bc644b84f,6291cadc64afdf8bb9f38b79,,,,,,,,,,,,,,,,,,,,,,,,7,,,,,,,,,,Task,14,(2x2) + 3,7,,,,,,,,,,,,,,,,,,,1,,,,,,,,,,,,,,,,,,,,,space,17.5175,"[""7""]",1,[2.713199999928406],0,0,0,13,1,,,,,,,,,,,,,,,,,,
,,,,,,,,,61084a60622c3e2c8f30d629,19,Mężczyzna,2022-05-28_09h10.35.471,task,2021.1.4,Win32,144.4043321,628b806c463b948bc644b84f,6291cadc64afdf8bb9f38b79,,,,,,,,,,,"X V Q F H G B L J M P D K C T S W R N Z
",,,,,,,,,,,,,,,,,,,,,,,,,,,,,,,,,,,,,,,,,,,,,,,,,,,,,,,,,,,,,,,,,,,,,,,,,,,,0,0,0,0,1,,,,,,,,,,,,,
,,,,,,,,,61084a60622c3e2c8f30d629,19,Mężczyzna,2022-05-28_09h10.35.471,task,2021.1.4,Win32,144.4043321,628b806c463b948bc644b84f,6291cadc64afdf8bb9f38b79,,,,,,,,,,,,,,,,,,,,,,,,9,,,,,,,,,,Task,16,(3x8) - 15,9,,,,,,,,,,,,,,,,,,,1,,,,,,,,,,,,,,,,,,,,,,,"[""9""]",1,[9.674700000047665],0,0,0,15,1,,,,,,,,,,,,,,,,,,
,,,,,,,,,61084a60622c3e2c8f30d629,19,Mężczyzna,2022-05-28_09h10.35.471,task,2021.1.4,Win32,144.4043321,628b806c463b948bc644b84f,6291cadc64afdf8bb9f38b79,,,,,,,,,,,"X V Q F H G B L J M P D K C T S W R N Z
",,,,,,,,,,,,,,,,,,,,,,,,,,,,,,,,,,,,,,,,,,,,,,,,,,,,,,,,,,,,,,,,,,,,,,,,,,,,1,0,1,0,1,,,,,,,,,,,,,
,,,,,,,,,61084a60622c3e2c8f30d629,19,Mężczyzna,2022-05-28_09h10.35.471,task,2021.1.4,Win32,144.4043321,628b806c463b948bc644b84f,6291cadc64afdf8bb9f38b79,,,,,,,,,,,,,,,,,,,,,,,,,,,,,,,,,,,,,,,,,,,,,,,,,,,,,,,,,,,,,,,,,,,,,,,,,,,,,,,,,,,,,,,,,,,,zj,"[""z"",""j""]",0,"[2.0639999999999645,2.168700000047693,2.9188999999761336]",1,ZJ,0,0,0,0,1,,
,,,,,,,,,61084a60622c3e2c8f30d629,19,Mężczyzna,2022-05-28_09h10.35.471,task,2021.1.4,Win32,144.4043321,628b806c463b948bc644b84f,6291cadc64afdf8bb9f38b79,,,,,,,,,,,,,,,,,,,,,,,,9,,,,,,,,,,Task,24,(2x2) + 5,9,,,,,,,,,,,,,,,,,,,1,,,,,,,,,,,,,,,,,,,,,,,"[""9""]",1,[2.8386000000238027],0,0,0,23,1,,,,,,,,,,,,,,,,,,
,,,,,,,,,61084a60622c3e2c8f30d629,19,Mężczyzna,2022-05-28_09h10.35.471,task,2021.1.4,Win32,144.4043321,628b806c463b948bc644b84f,6291cadc64afdf8bb9f38b79,,,,,,,,,,,"X V Q F H G B L J M P D K C T S W R N Z
",,,,,,,,,,,,,,,,,,,,,,,,,,,,,,,,,,,,,,,,,,,,,,,,,,,,,,,,,,,,,,,,,,,,,,,,,,,,0,0,0,0,1,,,,,,,,,,,,,
,,,,,,,,,61084a60622c3e2c8f30d629,19,Mężczyzna,2022-05-28_09h10.35.471,task,2021.1.4,Win32,144.4043321,628b806c463b948bc644b84f,6291cadc64afdf8bb9f38b79,,,,,,,,,,,,,,,,,,,,,,,,,,,,,,,,,,Task,11,(18/3) - 2,4,,,,,,,,,,,,,,,,,,,0,,,,,,,,,,,,,,,,,,,,,,,,0,,0,0,0,10,1,,,,,,,,,,,,,,,,,,
,,,,,,,,,61084a60622c3e2c8f30d629,19,Mężczyzna,2022-05-28_09h10.35.471,task,2021.1.4,Win32,144.4043321,628b806c463b948bc644b84f,6291cadc64afdf8bb9f38b79,,,,,,,,,,,,,,,,,,,,,,,,5,,,,,,,,,,Task,29,(3x8) - 19 ,5,,,,,,,,,,,,,,,,,,,1,,,,,,,,,,,,,,,,,,,,,,,"[""5""]",1,[10.067200000047706],0,1,1,28,1,,,,,,,,,,,,,,,,,,
,,,,,,,,,61084a60622c3e2c8f30d629,19,Mężczyzna,2022-05-28_09h10.35.471,task,2021.1.4,Win32,144.4043321,628b806c463b948bc644b84f,6291cadc64afdf8bb9f38b79,,,,,,,,,,,"X V Q F H G B L J M P D K C T S W R N Z
",,,,,,,,,,,,,,,,,,,,,,,,,,,,,,,,,,,,,,,,,,,,,,,,,,,,,,,,,,,,,,,,,,,,,,,,,,,,1,0,1,0,1,,,,,,,,,,,,,
,,,,,,,,,61084a60622c3e2c8f30d629,19,Mężczyzna,2022-05-28_09h10.35.471,task,2021.1.4,Win32,144.4043321,628b806c463b948bc644b84f,6291cadc64afdf8bb9f38b79,,,,,,,,,,,,,,,,,,,,,,,,1,,,,,,,,,,Task,9,(3x7) - 20,1,,,,,,,,,,,,,,,,,,,1,,,,,,,,,,,,,,,,,,,,,,,"[""1""]",1,[6.026199999928508],0,0,0,8,1,,,,,,,,,,,,,,,,,,
,,,,,,,,,61084a60622c3e2c8f30d629,19,Mężczyzna,2022-05-28_09h10.35.471,task,2021.1.4,Win32,144.4043321,628b806c463b948bc644b84f,6291cadc64afdf8bb9f38b79,,,,,,,,,,,"X V Q F H G B L J M P D K C T S W R N Z
",,,,,,,,,,,,,,,,,,,,,,,,,,,,,,,,,,,,,,,,,,,,,,,,,,,,,,,,,,,,,,,,,,,,,,,,,,,,2,0,2,0,1,,,,,,,,,,,,,
,,,,,,,,,61084a60622c3e2c8f30d629,19,Mężczyzna,2022-05-28_09h10.35.471,task,2021.1.4,Win32,144.4043321,628b806c463b948bc644b84f,6291cadc64afdf8bb9f38b79,,,,,,,,,,,,,,,,,,,,,,,,,,,,,,,,,,,,,,,,,,,,,,,,,,,,,,,,,,,,,,,,,,,,,,,,,,,,,,,,,,,,,,,,,,,,nnx,"[""n"",""n"",""x""]",0,"[6.896900000095343,7.085200000047621,7.422500000000014,8.163800000071546]",0,LXN,1,0,1,0,1,,
,,,,,,,,,61084a60622c3e2c8f30d629,19,Mężczyzna,2022-05-28_09h10.35.471,task,2021.1.4,Win32,144.4043321,628b806c463b948bc644b84f,6291cadc64afdf8bb9f38b79,,,,,,,,,,,,,,,,,,,,,,,,3,,,,,,,,,,Task,27,(3/3) + 2,3,,,,,,,,,,,,,,,,,,,1,,,,,,,,,,,,,,,,,,,,,,,"[""3""]",1,[3.00029999995229],0,0,0,26,1,,,,,,,,,,,,,,,,,,
,,,,,,,,,61084a60622c3e2c8f30d629,19,Mężczyzna,2022-05-28_09h10.35.471,task,2021.1.4,Win32,144.4043321,628b806c463b948bc644b84f,6291cadc64afdf8bb9f38b79,,,,,,,,,,,"X V Q F H G B L J M P D K C T S W R N Z
",,,,,,,,,,,,,,,,,,,,,,,,,,,,,,,,,,,,,,,,,,,,,,,,,,,,,,,,,,,,,,,,,,,,,,,,,,,,0,0,0,0,1,,,,,,,,,,,,,
,,,,,,,,,61084a60622c3e2c8f30d629,19,Mężczyzna,2022-05-28_09h10.35.471,task,2021.1.4,Win32,144.4043321,628b806c463b948bc644b84f,6291cadc64afdf8bb9f38b79,,,,,,,,,,,,,,,,,,,,,,,,3,,,,,,,,,,Task,20,(18/9) + 1,3,,,,,,,,,,,,,,,,,,,1,,,,,,,,,,,,,,,,,,,,,,,"[""3""]",1,[2.94370000004767],0,0,0,19,1,,,,,,,,,,,,,,,,,,
,,,,,,,,,61084a60622c3e2c8f30d629,19,Mężczyzna,2022-05-28_09h10.35.471,task,2021.1.4,Win32,144.4043321,628b806c463b948bc644b84f,6291cadc64afdf8bb9f38b79,,,,,,,,,,,"X V Q F H G B L J M P D K C T S W R N Z
",,,,,,,,,,,,,,,,,,,,,,,,,,,,,,,,,,,,,,,,,,,,,,,,,,,,,,,,,,,,,,,,,,,,,,,,,,,,1,0,1,0,1,,,,,,,,,,,,,
,,,,,,,,,61084a60622c3e2c8f30d629,19,Mężczyzna,2022-05-28_09h10.35.471,task,2021.1.4,Win32,144.4043321,628b806c463b948bc644b84f,6291cadc64afdf8bb9f38b79,,,,,,,,,,,,,,,,,,,,,,,,2,,,,,,,,,,Task,10,(2x5) - 8,2,,,,,,,,,,,,,,,,,,,1,,,,,,,,,,,,,,,,,,,,,,,"[""2""]",1,[1.79170000004774],0,0,0,9,1,,,,,,,,,,,,,,,,,,
,,,,,,,,,61084a60622c3e2c8f30d629,19,Mężczyzna,2022-05-28_09h10.35.471,task,2021.1.4,Win32,144.4043321,628b806c463b948bc644b84f,6291cadc64afdf8bb9f38b79,,,,,,,,,,,"X V Q F H G B L J M P D K C T S W R N Z
",,,,,,,,,,,,,,,,,,,,,,,,,,,,,,,,,,,,,,,,,,,,,,,,,,,,,,,,,,,,,,,,,,,,,,,,,,,,2,0,2,0,1,,,,,,,,,,,,,
,,,,,,,,,61084a60622c3e2c8f30d629,19,Mężczyzna,2022-05-28_09h10.35.471,task,2021.1.4,Win32,144.4043321,628b806c463b948bc644b84f,6291cadc64afdf8bb9f38b79,,,,,,,,,,,,,,,,,,,,,,,,,,,,,,,,,,,,,,,,,,,,,,,,,,,,,,,,,,,,,,,,,,,,,,,,,,,,,,,,,,,,,,,,,,,,mpp,"[""m"",""p"",""p""]",0,"[1.9851999999284544,2.0971999999284208,2.249100000023873,2.6059999999999945]",1,MPP,2,0,2,0,1,,
,,,,,,,,,61084a60622c3e2c8f30d629,19,Mężczyzna,2022-05-28_09h10.35.471,task,2021.1.4,Win32,144.4043321,628b806c463b948bc644b84f,6291cadc64afdf8bb9f38b79,,,,,,,,,,,,,,,,,,,,,,,,1,,,,,,,,,,Task,18,(16/4) - 3,1,,,,,,,,,,,,,,,,,,,1,,,,,,,,,,,,,,,,,,,,,,,"[""1""]",1,[4.11099999999999],0,0,0,17,1,,,,,,,,,,,,,,,,,,
,,,,,,,,,61084a60622c3e2c8f30d629,19,Mężczyzna,2022-05-28_09h10.35.471,task,2021.1.4,Win32,144.4043321,628b806c463b948bc644b84f,6291cadc64afdf8bb9f38b79,,,,,,,,,,,"X V Q F H G B L J M P D K C T S W R N Z
",,,,,,,,,,,,,,,,,,,,,,,,,,,,,,,,,,,,,,,,,,,,,,,,,,,,,,,,,,,,,,,,,,,,,,,,,,,,0,0,0,0,1,,,,,,,,,,,,,
,,,,,,,,,61084a60622c3e2c8f30d629,19,Mężczyzna,2022-05-28_09h10.35.471,task,2021.1.4,Win32,144.4043321,628b806c463b948bc644b84f,6291cadc64afdf8bb9f38b79,,,,,,,,,,,,,,,,,,,,,,,,7,,,,,,,,,,Task,31,(4/2) + 5,7,,,,,,,,,,,,,,,,,,,1,,,,,,,,,,,,,,,,,,,,,,,"[""7""]",1,[2.645600000023933],0,0,0,30,1,,,,,,,,,,,,,,,,,,
,,,,,,,,,61084a60622c3e2c8f30d629,19,Mężczyzna,2022-05-28_09h10.35.471,task,2021.1.4,Win32,144.4043321,628b806c463b948bc644b84f,6291cadc64afdf8bb9f38b79,,,,,,,,,,,"X V Q F H G B L J M P D K C T S W R N Z
",,,,,,,,,,,,,,,,,,,,,,,,,,,,,,,,,,,,,,,,,,,,,,,,,,,,,,,,,,,,,,,,,,,,,,,,,,,,1,0,1,0,1,,,,,,,,,,,,,
,,,,,,,,,61084a60622c3e2c8f30d629,19,Mężczyzna,2022-05-28_09h10.35.471,task,2021.1.4,Win32,144.4043321,628b806c463b948bc644b84f,6291cadc64afdf8bb9f38b79,,,,,,,,,,,,,,,,,,,,,,,,5,,,,,,,,,,Task,36,(8/4) + 3,5,,,,,,,,,,,,,,,,,,,1,,,,,,,,,,,,,,,,,,,,,,,"[""5""]",1,[2.2774000000953265],0,0,0,35,1,,,,,,,,,,,,,,,,,,
,,,,,,,,,61084a60622c3e2c8f30d629,19,Mężczyzna,2022-05-28_09h10.35.471,task,2021.1.4,Win32,144.4043321,628b806c463b948bc644b84f,6291cadc64afdf8bb9f38b79,,,,,,,,,,,"X V Q F H G B L J M P D K C T S W R N Z
",,,,,,,,,,,,,,,,,,,,,,,,,,,,,,,,,,,,,,,,,,,,,,,,,,,,,,,,,,,,,,,,,,,,,,,,,,,,2,0,2,0,1,,,,,,,,,,,,,
,,,,,,,,,61084a60622c3e2c8f30d629,19,Mężczyzna,2022-05-28_09h10.35.471,task,2021.1.4,Win32,144.4043321,628b806c463b948bc644b84f,6291cadc64afdf8bb9f38b79,,,,,,,,,,,,,,,,,,,,,,,,3,,,,,,,,,,Task,20,(18/9) + 1,3,,,,,,,,,,,,,,,,,,,1,,,,,,,,,,,,,,,,,,,,,,,"[""3""]",1,[2.508999999999901],0,0,0,19,1,,,,,,,,,,,,,,,,,,
,,,,,,,,,61084a60622c3e2c8f30d629,19,Mężczyzna,2022-05-28_09h10.35.471,task,2021.1.4,Win32,144.4043321,628b806c463b948bc644b84f,6291cadc64afdf8bb9f38b79,,,,,,,,,,,"X V Q F H G B L J M P D K C T S W R N Z
",,,,,,,,,,,,,,,,,,,,,,,,,,,,,,,,,,,,,,,,,,,,,,,,,,,,,,,,,,,,,,,,,,,,,,,,,,,,3,0,3,0,1,,,,,,,,,,,,,
,,,,,,,,,61084a60622c3e2c8f30d629,19,Mężczyzna,2022-05-28_09h10.35.471,task,2021.1.4,Win32,144.4043321,628b806c463b948bc644b84f,6291cadc64afdf8bb9f38b79,,,,,,,,,,,,,,,,,,,,,,,,,,,,,,,,,,,,,,,,,,,,,,,,,,,,,,,,,,,,,,,,,,,,,,,,,,,,,,,,,,,,,,,,,,,,mhrd,"[""m"",""h"",""r"",""d""]",0,"[2.644999999999982,3.1444999999999936,4.231799999952273,4.84310000002381,5.36460000002387]",1,MHRD,3,0,3,0,1,,
,,,,,,,,,61084a60622c3e2c8f30d629,19,Mężczyzna,2022-05-28_09h10.35.471,task,2021.1.4,Win32,144.4043321,628b806c463b948bc644b84f,6291cadc64afdf8bb9f38b79,,,,,,,,,,,,,,,,,,,,,,,,7,,,,,,,,,,Task,38,(4x6) - 17,7,,,,,,,,,,,,,,,,,,,1,,,,,,,,,,,,,,,,,,,,,,,"[""7""]",1,[8.136199999928522],0,0,0,37,1,,,,,,,,,,,,,,,,,,
,,,,,,,,,61084a60622c3e2c8f30d629,19,Mężczyzna,2022-05-28_09h10.35.471,task,2021.1.4,Win32,144.4043321,628b806c463b948bc644b84f,6291cadc64afdf8bb9f38b79,,,,,,,,,,,"X V Q F H G B L J M P D K C T S W R N Z
",,,,,,,,,,,,,,,,,,,,,,,,,,,,,,,,,,,,,,,,,,,,,,,,,,,,,,,,,,,,,,,,,,,,,,,,,,,,0,0,0,0,1,,,,,,,,,,,,,
,,,,,,,,,61084a60622c3e2c8f30d629,19,Mężczyzna,2022-05-28_09h10.35.471,task,2021.1.4,Win32,144.4043321,628b806c463b948bc644b84f,6291cadc64afdf8bb9f38b79,,,,,,,,,,,,,,,,,,,,,,,,2,,,,,,,,,,Task,19,(6/2) - 1,2,,,,,,,,,,,,,,,,,,,1,,,,,,,,,,,,,,,,,,,,,,,"[""2""]",1,[2.4752999999523126],0,0,0,18,1,,,,,,,,,,,,,,,,,,
,,,,,,,,,61084a60622c3e2c8f30d629,19,Mężczyzna,2022-05-28_09h10.35.471,task,2021.1.4,Win32,144.4043321,628b806c463b948bc644b84f,6291cadc64afdf8bb9f38b79,,,,,,,,,,,"X V Q F H G B L J M P D K C T S W R N Z
",,,,,,,,,,,,,,,,,,,,,,,,,,,,,,,,,,,,,,,,,,,,,,,,,,,,,,,,,,,,,,,,,,,,,,,,,,,,1,0,1,0,1,,,,,,,,,,,,,
,,,,,,,,,61084a60622c3e2c8f30d629,19,Mężczyzna,2022-05-28_09h10.35.471,task,2021.1.4,Win32,144.4043321,628b806c463b948bc644b84f,6291cadc64afdf8bb9f38b79,,,,,,,,,,,,,,,,,,,,,,,,5,,,,,,,,,,Task,12,(4x4) - 11,5,,,,,,,,,,,,,,,,,,,1,,,,,,,,,,,,,,,,,,,,,,,"[""5""]",1,[2.477300000071523],0,0,0,11,1,,,,,,,,,,,,,,,,,,
,,,,,,,,,61084a60622c3e2c8f30d629,19,Mężczyzna,2022-05-28_09h10.35.471,task,2021.1.4,Win32,144.4043321,628b806c463b948bc644b84f,6291cadc64afdf8bb9f38b79,,,,,,,,,,,"X V Q F H G B L J M P D K C T S W R N Z
",,,,,,,,,,,,,,,,,,,,,,,,,,,,,,,,,,,,,,,,,,,,,,,,,,,,,,,,,,,,,,,,,,,,,,,,,,,,2,0,2,0,1,,,,,,,,,,,,,
,,,,,,,,,61084a60622c3e2c8f30d629,19,Mężczyzna,2022-05-28_09h10.35.471,task,2021.1.4,Win32,144.4043321,628b806c463b948bc644b84f,6291cadc64afdf8bb9f38b79,,,,,,,,,,,,,,,,,,,,,,,,7,,,,,,,,,,Task,38,(4x6) - 17,7,,,,,,,,,,,,,,,,,,,1,,,,,,,,,,,,,,,,,,,,,,,"[""7""]",1,[4.678100000023846],0,0,0,37,1,,,,,,,,,,,,,,,,,,
,,,,,,,,,61084a60622c3e2c8f30d629,19,Mężczyzna,2022-05-28_09h10.35.471,task,2021.1.4,Win32,144.4043321,628b806c463b948bc644b84f,6291cadc64afdf8bb9f38b79,,,,,,,,,,,"X V Q F H G B L J M P D K C T S W R N Z
",,,,,,,,,,,,,,,,,,,,,,,,,,,,,,,,,,,,,,,,,,,,,,,,,,,,,,,,,,,,,,,,,,,,,,,,,,,,3,0,3,0,1,,,,,,,,,,,,,
,,,,,,,,,61084a60622c3e2c8f30d629,19,Mężczyzna,2022-05-28_09h10.35.471,task,2021.1.4,Win32,144.4043321,628b806c463b948bc644b84f,6291cadc64afdf8bb9f38b79,,,,,,,,,,,,,,,,,,,,,,,,8,,,,,,,,,,Task,23,(2x3) + 2,8,,,,,,,,,,,,,,,,,,,1,,,,,,,,,,,,,,,,,,,,,,,"[""8""]",1,[3.5882999999522553],0,0,0,22,1,,,,,,,,,,,,,,,,,,
,,,,,,,,,61084a60622c3e2c8f30d629,19,Mężczyzna,2022-05-28_09h10.35.471,task,2021.1.4,Win32,144.4043321,628b806c463b948bc644b84f,6291cadc64afdf8bb9f38b79,,,,,,,,,,,"X V Q F H G B L J M P D K C T S W R N Z
",,,,,,,,,,,,,,,,,,,,,,,,,,,,,,,,,,,,,,,,,,,,,,,,,,,,,,,,,,,,,,,,,,,,,,,,,,,,4,0,4,0,1,,,,,,,,,,,,,
,,,,,,,,,61084a60622c3e2c8f30d629,19,Mężczyzna,2022-05-28_09h10.35.471,task,2021.1.4,Win32,144.4043321,628b806c463b948bc644b84f,6291cadc64afdf8bb9f38b79,,,,,,,,,,,,,,,,,,,,,,,,,,,,,,,,,,,,,,,,,,,,,,,,,,,,,,,,,,,,,,,,,,,,,,,,,,,,,,,,,,,,,,,,,,,,hdmsv,"[""h"",""d"",""m"",""s"",""v""]",0,"[2.19470000004776,2.8876000000238946,3.555600000023901,4.146700000047758,5.062700000047698,6.414600000023938]",1,HDMSV,4,0,4,0,1,,
,,,,,,,,,61084a60622c3e2c8f30d629,19,Mężczyzna,2022-05-28_09h10.35.471,task,2021.1.4,Win32,144.4043321,628b806c463b948bc644b84f,6291cadc64afdf8bb9f38b79,,,,,,,,,,,,,,,,,,,,,,,,8,,,,,,,,,,Task,23,(2x3) + 2,8,,,,,,,,,,,,,,,,,,,1,,,,,,,,,,,,,,,,,,,,,,,"[""8""]",1,[3.7641000000237455],0,0,0,22,1,,,,,,,,,,,,,,,,,,
,,,,,,,,,61084a60622c3e2c8f30d629,19,Mężczyzna,2022-05-28_09h10.35.471,task,2021.1.4,Win32,144.4043321,628b806c463b948bc644b84f,6291cadc64afdf8bb9f38b79,,,,,,,,,,,"X V Q F H G B L J M P D K C T S W R N Z
",,,,,,,,,,,,,,,,,,,,,,,,,,,,,,,,,,,,,,,,,,,,,,,,,,,,,,,,,,,,,,,,,,,,,,,,,,,,0,0,0,0,1,,,,,,,,,,,,,
,,,,,,,,,61084a60622c3e2c8f30d629,19,Mężczyzna,2022-05-28_09h10.35.471,task,2021.1.4,Win32,144.4043321,628b806c463b948bc644b84f,6291cadc64afdf8bb9f38b79,,,,,,,,,,,,,,,,,,,,,,,,5,,,,,,,,,,Task,36,(8/4) + 3,5,,,,,,,,,,,,,,,,,,,1,,,,,,,,,,,,,,,,,,,,,,,"[""5""]",1,[3.5456999999285017],0,0,0,35,1,,,,,,,,,,,,,,,,,,
,,,,,,,,,61084a60622c3e2c8f30d629,19,Mężczyzna,2022-05-28_09h10.35.471,task,2021.1.4,Win32,144.4043321,628b806c463b948bc644b84f,6291cadc64afdf8bb9f38b79,,,,,,,,,,,"X V Q F H G B L J M P D K C T S W R N Z
",,,,,,,,,,,,,,,,,,,,,,,,,,,,,,,,,,,,,,,,,,,,,,,,,,,,,,,,,,,,,,,,,,,,,,,,,,,,1,0,1,0,1,,,,,,,,,,,,,
,,,,,,,,,61084a60622c3e2c8f30d629,19,Mężczyzna,2022-05-28_09h10.35.471,task,2021.1.4,Win32,144.4043321,628b806c463b948bc644b84f,6291cadc64afdf8bb9f38b79,,,,,,,,,,,,,,,,,,,,,,,,6,,,,,,,,,,Task,30,(6/3) + 4 ,6,,,,,,,,,,,,,,,,,,,1,,,,,,,,,,,,,,,,,,,,,,,"[""6""]",1,[2.497500000000059],0,0,0,29,1,,,,,,,,,,,,,,,,,,
,,,,,,,,,61084a60622c3e2c8f30d629,19,Mężczyzna,2022-05-28_09h10.35.471,task,2021.1.4,Win32,144.4043321,628b806c463b948bc644b84f,6291cadc64afdf8bb9f38b79,,,,,,,,,,,"X V Q F H G B L J M P D K C T S W R N Z
",,,,,,,,,,,,,,,,,,,,,,,,,,,,,,,,,,,,,,,,,,,,,,,,,,,,,,,,,,,,,,,,,,,,,,,,,,,,2,0,2,0,1,,,,,,,,,,,,,
,,,,,,,,,61084a60622c3e2c8f30d629,19,Mężczyzna,2022-05-28_09h10.35.471,task,2021.1.4,Win32,144.4043321,628b806c463b948bc644b84f,6291cadc64afdf8bb9f38b79,,,,,,,,,,,,,,,,,,,,,,,,9,,,,,,,,,,Task,24,(2x2) + 5,9,,,,,,,,,,,,,,,,,,,1,,,,,,,,,,,,,,,,,,,,,,,"[""9""]",1,[3.2623000000716047],0,0,0,23,1,,,,,,,,,,,,,,,,,,
,,,,,,,,,61084a60622c3e2c8f30d629,19,Mężczyzna,2022-05-28_09h10.35.471,task,2021.1.4,Win32,144.4043321,628b806c463b948bc644b84f,6291cadc64afdf8bb9f38b79,,,,,,,,,,,"X V Q F H G B L J M P D K C T S W R N Z
",,,,,,,,,,,,,,,,,,,,,,,,,,,,,,,,,,,,,,,,,,,,,,,,,,,,,,,,,,,,,,,,,,,,,,,,,,,,3,0,3,0,1,,,,,,,,,,,,,
,,,,,,,,,61084a60622c3e2c8f30d629,19,Mężczyzna,2022-05-28_09h10.35.471,task,2021.1.4,Win32,144.4043321,628b806c463b948bc644b84f,6291cadc64afdf8bb9f38b79,,,,,,,,,,,,,,,,,,,,,,,,0,,,,,,,,,,Task,8,(1x5) - 5,0,,,,,,,,,,,,,,,,,,,1,,,,,,,,,,,,,,,,,,,,,,,"[""0""]",1,[2.3977999999522126],0,0,0,7,1,,,,,,,,,,,,,,,,,,
,,,,,,,,,61084a60622c3e2c8f30d629,19,Mężczyzna,2022-05-28_09h10.35.471,task,2021.1.4,Win32,144.4043321,628b806c463b948bc644b84f,6291cadc64afdf8bb9f38b79,,,,,,,,,,,"X V Q F H G B L J M P D K C T S W R N Z
",,,,,,,,,,,,,,,,,,,,,,,,,,,,,,,,,,,,,,,,,,,,,,,,,,,,,,,,,,,,,,,,,,,,,,,,,,,,4,0,4,0,1,,,,,,,,,,,,,
,,,,,,,,,61084a60622c3e2c8f30d629,19,Mężczyzna,2022-05-28_09h10.35.471,task,2021.1.4,Win32,144.4043321,628b806c463b948bc644b84f,6291cadc64afdf8bb9f38b79,,,,,,,,,,,,,,,,,,,,,,,,8,,,,,,,,,,Task,15,(3x7) - 13,8,,,,,,,,,,,,,,,,,,,1,,,,,,,,,,,,,,,,,,,,,,,"[""8""]",1,[8.192700000047694],0,0,0,14,1,,,,,,,,,,,,,,,,,,
,,,,,,,,,61084a60622c3e2c8f30d629,19,Mężczyzna,2022-05-28_09h10.35.471,task,2021.1.4,Win32,144.4043321,628b806c463b948bc644b84f,6291cadc64afdf8bb9f38b79,,,,,,,,,,,"X V Q F H G B L J M P D K C T S W R N Z
",,,,,,,,,,,,,,,,,,,,,,,,,,,,,,,,,,,,,,,,,,,,,,,,,,,,,,,,,,,,,,,,,,,,,,,,,,,,5,0,5,0,1,,,,,,,,,,,,,
,,,,,,,,,61084a60622c3e2c8f30d629,19,Mężczyzna,2022-05-28_09h10.35.471,task,2021.1.4,Win32,144.4043321,628b806c463b948bc644b84f,6291cadc64afdf8bb9f38b79,,,,,,,,,,,,,,,,,,,,,,,,,,,,,,,,,,,,,,,,,,,,,,,,,,,,,,,,,,,,,,,,,,,,,,,,,,,,,,,,,,,,,,,,,,,,wnlsku,"[""w"",""n"",""l"",""s"",""k"",""u""]",0,"[1.8102000000477574,2.1952000000477483,3.6086000000238982,5.126500000000078,5.75720000004776,9.062700000047698,9.376399999976229]",0,WNLSKN,5,0,5,0,1,,
,,,,,,,,,61084a60622c3e2c8f30d629,19,Mężczyzna,2022-05-28_09h10.35.471,task,2021.1.4,Win32,144.4043321,628b806c463b948bc644b84f,6291cadc64afdf8bb9f38b79,,,,,,,,,,,,,,,,,,,,,,,,8,,,,,,,,,,Task,32,(8/2) + 4,8,,,,,,,,,,,,,,,,,,,1,,,,,,,,,,,,,,,,,,,,,,,"[""8""]",1,[3.2647000000476964],0,0,0,31,1,,,,,,,,,,,,,,,,,,
,,,,,,,,,61084a60622c3e2c8f30d629,19,Mężczyzna,2022-05-28_09h10.35.471,task,2021.1.4,Win32,144.4043321,628b806c463b948bc644b84f,6291cadc64afdf8bb9f38b79,,,,,,,,,,,"X V Q F H G B L J M P D K C T S W R N Z
",,,,,,,,,,,,,,,,,,,,,,,,,,,,,,,,,,,,,,,,,,,,,,,,,,,,,,,,,,,,,,,,,,,,,,,,,,,,0,0,0,0,1,,,,,,,,,,,,,
,,,,,,,,,61084a60622c3e2c8f30d629,19,Mężczyzna,2022-05-28_09h10.35.471,task,2021.1.4,Win32,144.4043321,628b806c463b948bc644b84f,6291cadc64afdf8bb9f38b79,,,,,,,,,,,,,,,,,,,,,,,,0,,,,,,,,,,Task,17,(2x3) - 6,0,,,,,,,,,,,,,,,,,,,1,,,,,,,,,,,,,,,,,,,,,,,"[""0""]",1,[3.1442000000477037],0,0,0,16,1,,,,,,,,,,,,,,,,,,
,,,,,,,,,61084a60622c3e2c8f30d629,19,Mężczyzna,2022-05-28_09h10.35.471,task,2021.1.4,Win32,144.4043321,628b806c463b948bc644b84f,6291cadc64afdf8bb9f38b79,,,,,,,,,,,"X V Q F H G B L J M P D K C T S W R N Z
",,,,,,,,,,,,,,,,,,,,,,,,,,,,,,,,,,,,,,,,,,,,,,,,,,,,,,,,,,,,,,,,,,,,,,,,,,,,1,0,1,0,1,,,,,,,,,,,,,
,,,,,,,,,61084a60622c3e2c8f30d629,19,Mężczyzna,2022-05-28_09h10.35.471,task,2021.1.4,Win32,144.4043321,628b806c463b948bc644b84f,6291cadc64afdf8bb9f38b79,,,,,,,,,,,,,,,,,,,,,,,,2,,,,,,,,,,Task,26,(2x9) - 16,2,,,,,,,,,,,,,,,,,,,1,,,,,,,,,,,,,,,,,,,,,,,"[""2""]",1,[3.184500000000071],0,0,0,25,1,,,,,,,,,,,,,,,,,,
,,,,,,,,,61084a60622c3e2c8f30d629,19,Mężczyzna,2022-05-28_09h10.35.471,task,2021.1.4,Win32,144.4043321,628b806c463b948bc644b84f,6291cadc64afdf8bb9f38b79,,,,,,,,,,,"X V Q F H G B L J M P D K C T S W R N Z
",,,,,,,,,,,,,,,,,,,,,,,,,,,,,,,,,,,,,,,,,,,,,,,,,,,,,,,,,,,,,,,,,,,,,,,,,,,,2,0,2,0,1,,,,,,,,,,,,,
,,,,,,,,,61084a60622c3e2c8f30d629,19,Mężczyzna,2022-05-28_09h10.35.471,task,2021.1.4,Win32,144.4043321,628b806c463b948bc644b84f,6291cadc64afdf8bb9f38b79,,,,,,,,,,,,,,,,,,,,,,,,4,,,,,,,,,,Task,28,(2x5) - 6,4,,,,,,,,,,,,,,,,,,,1,,,,,,,,,,,,,,,,,,,,,,,"[""4""]",1,[4.258899999976165],0,0,0,27,1,,,,,,,,,,,,,,,,,,
,,,,,,,,,61084a60622c3e2c8f30d629,19,Mężczyzna,2022-05-28_09h10.35.471,task,2021.1.4,Win32,144.4043321,628b806c463b948bc644b84f,6291cadc64afdf8bb9f38b79,,,,,,,,,,,"X V Q F H G B L J M P D K C T S W R N Z
",,,,,,,,,,,,,,,,,,,,,,,,,,,,,,,,,,,,,,,,,,,,,,,,,,,,,,,,,,,,,,,,,,,,,,,,,,,,3,0,3,0,1,,,,,,,,,,,,,
,,,,,,,,,61084a60622c3e2c8f30d629,19,Mężczyzna,2022-05-28_09h10.35.471,task,2021.1.4,Win32,144.4043321,628b806c463b948bc644b84f,6291cadc64afdf8bb9f38b79,,,,,,,,,,,,,,,,,,,,,,,,0,,,,,,,,,,Task,17,(2x3) - 6,0,,,,,,,,,,,,,,,,,,,1,,,,,,,,,,,,,,,,,,,,,,,"[""0""]",1,[2.643800000071451],0,0,0,16,1,,,,,,,,,,,,,,,,,,
,,,,,,,,,61084a60622c3e2c8f30d629,19,Mężczyzna,2022-05-28_09h10.35.471,task,2021.1.4,Win32,144.4043321,628b806c463b948bc644b84f,6291cadc64afdf8bb9f38b79,,,,,,,,,,,"X V Q F H G B L J M P D K C T S W R N Z
",,,,,,,,,,,,,,,,,,,,,,,,,,,,,,,,,,,,,,,,,,,,,,,,,,,,,,,,,,,,,,,,,,,,,,,,,,,,4,0,4,0,1,,,,,,,,,,,,,
,,,,,,,,,61084a60622c3e2c8f30d629,19,Mężczyzna,2022-05-28_09h10.35.471,task,2021.1.4,Win32,144.4043321,628b806c463b948bc644b84f,6291cadc64afdf8bb9f38b79,,,,,,,,,,,,,,,,,,,,,,,,1,,,,,,,,,,Task,34,(9/3) - 2,1,,,,,,,,,,,,,,,,,,,1,,,,,,,,,,,,,,,,,,,,,,,"[""1""]",1,[4.469700000047624],0,0,0,33,1,,,,,,,,,,,,,,,,,,
,,,,,,,,,61084a60622c3e2c8f30d629,19,Mężczyzna,2022-05-28_09h10.35.471,task,2021.1.4,Win32,144.4043321,628b806c463b948bc644b84f,6291cadc64afdf8bb9f38b79,,,,,,,,,,,"X V Q F H G B L J M P D K C T S W R N Z
",,,,,,,,,,,,,,,,,,,,,,,,,,,,,,,,,,,,,,,,,,,,,,,,,,,,,,,,,,,,,,,,,,,,,,,,,,,,5,0,5,0,1,,,,,,,,,,,,,
,,,,,,,,,61084a60622c3e2c8f30d629,19,Mężczyzna,2022-05-28_09h10.35.471,task,2021.1.4,Win32,144.4043321,628b806c463b948bc644b84f,6291cadc64afdf8bb9f38b79,,,,,,,,,,,,,,,,,,,,,,,,,,,,,,,,,,,,,,,,,,,,,,,,,,,,,,,,,,,,,,,,,,,,,,,,,,,,,,,,,,,,,,,,,,,,cvjzx,"[""c"",""v"",""j"",""z"",""x""]",0,"[1.7856000000238055,2.1676000000237536,3.625899999976127,3.84729999995227,4.225799999952301,5.083600000023807]",0,"CVJZ
VX",6,0,6,0,1,,
,,,,,,,,,61084a60622c3e2c8f30d629,19,Mężczyzna,2022-05-28_09h10.35.471,task,2021.1.4,Win32,144.4043321,628b806c463b948bc644b84f,6291cadc64afdf8bb9f38b79,,,,,,,,,,,,,,,,,,,,,,,,,,,,,,,,,,,,,,,,,,,,,,,,,,,,,,,,,,,,,,,,,,,,,,,,,,,,,,,,,,,,,,,,,,,,,,,,,,,,,,,space,2.5288
