key_resp_15.keys,key_resp_15.rt,key_resp_13.keys,key_resp_13.corr,key_resp_13.rt,ranodm_loop.thisRepN,ranodm_loop.thisTrialN,ranodm_loop.thisN,ranodm_loop.thisIndex,ranodm_loop.ran,participant,Wiek*,Płeć,date,expName,psychopyVersion,OS,frameRate,study_id,session,key_resp_16.keys,key_resp_16.rt,key_resp_4.keys,key_resp_4.rt,next_letter.thisRepN,next_letter.thisTrialN,next_letter.thisN,next_letter.thisIndex,next_letter.ran,letter,simple_recall,key_resp_5.keys,key_resp_5.rt,simple_recall_corr,simple_recall_corrkeys,next_level.thisRepN,next_level.thisTrialN,next_level.thisN,next_level.thisIndex,next_level.ran,key_resp_2.keys,key_resp_2.rt,digit_answer,key_resp.keys,key_resp.corr,key_resp.rt,RT_list,next_equation.thisRepN,next_equation.thisTrialN,next_equation.thisN,next_equation.thisIndex,next_equation.ran,Task,Trial,Problem,Operation_answer,processing_score,sumRT,meanRT,sumdiff,sd,RT,key_resp_3.keys,key_resp_3.rt,repeat_practice.thisRepN,repeat_practice.thisTrialN,repeat_practice.thisN,repeat_practice.thisIndex,repeat_practice.ran,key_resp_6.keys,key_resp_6.rt,key_resp_11.keys,key_resp_11.corr,key_resp_11.rt,operation_correct,repeat_if_wrong_prac.thisRepN,repeat_if_wrong_prac.thisTrialN,repeat_if_wrong_prac.thisN,repeat_if_wrong_prac.thisIndex,repeat_if_wrong_prac.ran,span_size_prac.thisRepN,span_size_prac.thisTrialN,span_size_prac.thisN,span_size_prac.thisIndex,span_size_prac.ran,complex_recall_practice,key_resp_9.keys,key_resp_9.corr,key_resp_9.rt,complex_prac_corr,span_recall_prac.thisRepN,span_recall_prac.thisTrialN,span_recall_prac.thisN,span_recall_prac.thisIndex,span_recall_prac.ran,key_resp_10.keys,key_resp_10.rt,key_resp_7.keys,key_resp_7.corr,key_resp_7.rt,repeat_if_wrong.thisRepN,repeat_if_wrong.thisTrialN,repeat_if_wrong.thisN,repeat_if_wrong.thisIndex,repeat_if_wrong.ran,span_size.thisRepN,span_size.thisTrialN,span_size.thisN,span_size.thisIndex,span_size.ran,complex_recall,key_resp_8.keys,key_resp_8.corr,key_resp_8.rt,complex_recall_corr,complex_recall_corrkeys,span_recall.thisRepN,span_recall.thisTrialN,span_recall.thisN,span_recall.thisIndex,span_recall.ran,key_resp_12.keys,key_resp_12.rt
space,0.588,"[""comma""]",0,[1.2124999999999986],0,0,0,0,1,610cda1332fb63830158c55d,24,Mężczyzna,2022-06-04_08h40.35.418,task,2021.1.4,Win32,50.1655463,628b806c463b948bc644b84f,629af6f7eead0a75b87fad66,,,,,,,,,,,,,,,,,,,,,,,,,,,,,,,,,,,,,,,,,,,,,,,,,,,,,,,,,,,,,,,,,,,,,,,,,,,,,,,,,,,,,,,,,,,,,,,,,,,,,,,
,,"[""period""]",0,[0.5390000000000015],1,0,1,0,1,610cda1332fb63830158c55d,24,Mężczyzna,2022-06-04_08h40.35.418,task,2021.1.4,Win32,50.1655463,628b806c463b948bc644b84f,629af6f7eead0a75b87fad66,,,,,,,,,,,,,,,,,,,,,,,,,,,,,,,,,,,,,,,,,,,,,,,,,,,,,,,,,,,,,,,,,,,,,,,,,,,,,,,,,,,,,,,,,,,,,,,,,,,,,,,
,,"[""period""]",0,[0.28519999980926514],2,0,2,0,1,610cda1332fb63830158c55d,24,Mężczyzna,2022-06-04_08h40.35.418,task,2021.1.4,Win32,50.1655463,628b806c463b948bc644b84f,629af6f7eead0a75b87fad66,,,,,,,,,,,,,,,,,,,,,,,,,,,,,,,,,,,,,,,,,,,,,,,,,,,,,,,,,,,,,,,,,,,,,,,,,,,,,,,,,,,,,,,,,,,,,,,,,,,,,,,
,,"[""comma""]",0,[-0.034099999904633194],3,0,3,0,1,610cda1332fb63830158c55d,24,Mężczyzna,2022-06-04_08h40.35.418,task,2021.1.4,Win32,50.1655463,628b806c463b948bc644b84f,629af6f7eead0a75b87fad66,,,,,,,,,,,,,,,,,,,,,,,,,,,,,,,,,,,,,,,,,,,,,,,,,,,,,,,,,,,,,,,,,,,,,,,,,,,,,,,,,,,,,,,,,,,,,,,,,,,,,,,
,,"[""period""]",0,[0.3608999998569473],4,0,4,0,1,610cda1332fb63830158c55d,24,Mężczyzna,2022-06-04_08h40.35.418,task,2021.1.4,Win32,50.1655463,628b806c463b948bc644b84f,629af6f7eead0a75b87fad66,,,,,,,,,,,,,,,,,,,,,,,,,,,,,,,,,,,,,,,,,,,,,,,,,,,,,,,,,,,,,,,,,,,,,,,,,,,,,,,,,,,,,,,,,,,,,,,,,,,,,,,
,,"[""comma""]",0,[0.4802999999523152],5,0,5,0,1,610cda1332fb63830158c55d,24,Mężczyzna,2022-06-04_08h40.35.418,task,2021.1.4,Win32,50.1655463,628b806c463b948bc644b84f,629af6f7eead0a75b87fad66,,,,,,,,,,,,,,,,,,,,,,,,,,,,,,,,,,,,,,,,,,,,,,,,,,,,,,,,,,,,,,,,,,,,,,,,,,,,,,,,,,,,,,,,,,,,,,,,,,,,,,,
,,"[""comma""]",0,[0.6806000001430519],6,0,6,0,1,610cda1332fb63830158c55d,24,Mężczyzna,2022-06-04_08h40.35.418,task,2021.1.4,Win32,50.1655463,628b806c463b948bc644b84f,629af6f7eead0a75b87fad66,,,,,,,,,,,,,,,,,,,,,,,,,,,,,,,,,,,,,,,,,,,,,,,,,,,,,,,,,,,,,,,,,,,,,,,,,,,,,,,,,,,,,,,,,,,,,,,,,,,,,,,
,,"[""comma""]",0,[0.6002999999523126],7,0,7,0,1,610cda1332fb63830158c55d,24,Mężczyzna,2022-06-04_08h40.35.418,task,2021.1.4,Win32,50.1655463,628b806c463b948bc644b84f,629af6f7eead0a75b87fad66,,,,,,,,,,,,,,,,,,,,,,,,,,,,,,,,,,,,,,,,,,,,,,,,,,,,,,,,,,,,,,,,,,,,,,,,,,,,,,,,,,,,,,,,,,,,,,,,,,,,,,,
,,"[""period""]",0,[0.29559999990463126],8,0,8,0,1,610cda1332fb63830158c55d,24,Mężczyzna,2022-06-04_08h40.35.418,task,2021.1.4,Win32,50.1655463,628b806c463b948bc644b84f,629af6f7eead0a75b87fad66,,,,,,,,,,,,,,,,,,,,,,,,,,,,,,,,,,,,,,,,,,,,,,,,,,,,,,,,,,,,,,,,,,,,,,,,,,,,,,,,,,,,,,,,,,,,,,,,,,,,,,,
,,"[""period""]",0,[0.2879999999999967],9,0,9,0,1,610cda1332fb63830158c55d,24,Mężczyzna,2022-06-04_08h40.35.418,task,2021.1.4,Win32,50.1655463,628b806c463b948bc644b84f,629af6f7eead0a75b87fad66,,,,,,,,,,,,,,,,,,,,,,,,,,,,,,,,,,,,,,,,,,,,,,,,,,,,,,,,,,,,,,,,,,,,,,,,,,,,,,,,,,,,,,,,,,,,,,,,,,,,,,,
,,"[""comma""]",0,[0.30049999999999955],10,0,10,0,1,610cda1332fb63830158c55d,24,Mężczyzna,2022-06-04_08h40.35.418,task,2021.1.4,Win32,50.1655463,628b806c463b948bc644b84f,629af6f7eead0a75b87fad66,,,,,,,,,,,,,,,,,,,,,,,,,,,,,,,,,,,,,,,,,,,,,,,,,,,,,,,,,,,,,,,,,,,,,,,,,,,,,,,,,,,,,,,,,,,,,,,,,,,,,,,
,,"[""period""]",0,[0.5435999999046359],11,0,11,0,1,610cda1332fb63830158c55d,24,Mężczyzna,2022-06-04_08h40.35.418,task,2021.1.4,Win32,50.1655463,628b806c463b948bc644b84f,629af6f7eead0a75b87fad66,,,,,,,,,,,,,,,,,,,,,,,,,,,,,,,,,,,,,,,,,,,,,,,,,,,,,,,,,,,,,,,,,,,,,,,,,,,,,,,,,,,,,,,,,,,,,,,,,,,,,,,
,,"[""comma""]",0,[0.6202999999523229],12,0,12,0,1,610cda1332fb63830158c55d,24,Mężczyzna,2022-06-04_08h40.35.418,task,2021.1.4,Win32,50.1655463,628b806c463b948bc644b84f,629af6f7eead0a75b87fad66,,,,,,,,,,,,,,,,,,,,,,,,,,,,,,,,,,,,,,,,,,,,,,,,,,,,,,,,,,,,,,,,,,,,,,,,,,,,,,,,,,,,,,,,,,,,,,,,,,,,,,,
,,"[""comma""]",0,[0.9002000000476897],13,0,13,0,1,610cda1332fb63830158c55d,24,Mężczyzna,2022-06-04_08h40.35.418,task,2021.1.4,Win32,50.1655463,628b806c463b948bc644b84f,629af6f7eead0a75b87fad66,,,,,,,,,,,,,,,,,,,,,,,,,,,,,,,,,,,,,,,,,,,,,,,,,,,,,,,,,,,,,,,,,,,,,,,,,,,,,,,,,,,,,,,,,,,,,,,,,,,,,,,
,,"[""period""]",0,[0.7207999999523054],14,0,14,0,1,610cda1332fb63830158c55d,24,Mężczyzna,2022-06-04_08h40.35.418,task,2021.1.4,Win32,50.1655463,628b806c463b948bc644b84f,629af6f7eead0a75b87fad66,,,,,,,,,,,,,,,,,,,,,,,,,,,,,,,,,,,,,,,,,,,,,,,,,,,,,,,,,,,,,,,,,,,,,,,,,,,,,,,,,,,,,,,,,,,,,,,,,,,,,,,
,,"[""comma""]",0,[0.6805999999046293],15,0,15,0,1,610cda1332fb63830158c55d,24,Mężczyzna,2022-06-04_08h40.35.418,task,2021.1.4,Win32,50.1655463,628b806c463b948bc644b84f,629af6f7eead0a75b87fad66,,,,,,,,,,,,,,,,,,,,,,,,,,,,,,,,,,,,,,,,,,,,,,,,,,,,,,,,,,,,,,,,,,,,,,,,,,,,,,,,,,,,,,,,,,,,,,,,,,,,,,,
,,"[""period""]",0,[0.5294999999999987],16,0,16,0,1,610cda1332fb63830158c55d,24,Mężczyzna,2022-06-04_08h40.35.418,task,2021.1.4,Win32,50.1655463,628b806c463b948bc644b84f,629af6f7eead0a75b87fad66,,,,,,,,,,,,,,,,,,,,,,,,,,,,,,,,,,,,,,,,,,,,,,,,,,,,,,,,,,,,,,,,,,,,,,,,,,,,,,,,,,,,,,,,,,,,,,,,,,,,,,,
,,"[""period""]",0,[0.6890999999046414],17,0,17,0,1,610cda1332fb63830158c55d,24,Mężczyzna,2022-06-04_08h40.35.418,task,2021.1.4,Win32,50.1655463,628b806c463b948bc644b84f,629af6f7eead0a75b87fad66,,,,,,,,,,,,,,,,,,,,,,,,,,,,,,,,,,,,,,,,,,,,,,,,,,,,,,,,,,,,,,,,,,,,,,,,,,,,,,,,,,,,,,,,,,,,,,,,,,,,,,,
,,"[""period""]",0,[0.6206000001430567],18,0,18,0,1,610cda1332fb63830158c55d,24,Mężczyzna,2022-06-04_08h40.35.418,task,2021.1.4,Win32,50.1655463,628b806c463b948bc644b84f,629af6f7eead0a75b87fad66,,,,,,,,,,,,,,,,,,,,,,,,,,,,,,,,,,,,,,,,,,,,,,,,,,,,,,,,,,,,,,,,,,,,,,,,,,,,,,,,,,,,,,,,,,,,,,,,,,,,,,,
,,"[""comma""]",0,[0.6492999999523192],19,0,19,0,1,610cda1332fb63830158c55d,24,Mężczyzna,2022-06-04_08h40.35.418,task,2021.1.4,Win32,50.1655463,628b806c463b948bc644b84f,629af6f7eead0a75b87fad66,,,,,,,,,,,,,,,,,,,,,,,,,,,,,,,,,,,,,,,,,,,,,,,,,,,,,,,,,,,,,,,,,,,,,,,,,,,,,,,,,,,,,,,,,,,,,,,,,,,,,,,
,,"[""period""]",0,[0.18149999999999977],20,0,20,0,1,610cda1332fb63830158c55d,24,Mężczyzna,2022-06-04_08h40.35.418,task,2021.1.4,Win32,50.1655463,628b806c463b948bc644b84f,629af6f7eead0a75b87fad66,,,,,,,,,,,,,,,,,,,,,,,,,,,,,,,,,,,,,,,,,,,,,,,,,,,,,,,,,,,,,,,,,,,,,,,,,,,,,,,,,,,,,,,,,,,,,,,,,,,,,,,
,,"[""comma""]",0,[0.6802999999523109],21,0,21,0,1,610cda1332fb63830158c55d,24,Mężczyzna,2022-06-04_08h40.35.418,task,2021.1.4,Win32,50.1655463,628b806c463b948bc644b84f,629af6f7eead0a75b87fad66,,,,,,,,,,,,,,,,,,,,,,,,,,,,,,,,,,,,,,,,,,,,,,,,,,,,,,,,,,,,,,,,,,,,,,,,,,,,,,,,,,,,,,,,,,,,,,,,,,,,,,,
,,"[""period""]",0,[1.008499999999998],22,0,22,0,1,610cda1332fb63830158c55d,24,Mężczyzna,2022-06-04_08h40.35.418,task,2021.1.4,Win32,50.1655463,628b806c463b948bc644b84f,629af6f7eead0a75b87fad66,,,,,,,,,,,,,,,,,,,,,,,,,,,,,,,,,,,,,,,,,,,,,,,,,,,,,,,,,,,,,,,,,,,,,,,,,,,,,,,,,,,,,,,,,,,,,,,,,,,,,,,
,,,0,,23,0,23,0,1,610cda1332fb63830158c55d,24,Mężczyzna,2022-06-04_08h40.35.418,task,2021.1.4,Win32,50.1655463,628b806c463b948bc644b84f,629af6f7eead0a75b87fad66,,,,,,,,,,,,,,,,,,,,,,,,,,,,,,,,,,,,,,,,,,,,,,,,,,,,,,,,,,,,,,,,,,,,,,,,,,,,,,,,,,,,,,,,,,,,,,,,,,,,,,,
,,"[""comma""]",0,[0.27769999980927196],24,0,24,0,1,610cda1332fb63830158c55d,24,Mężczyzna,2022-06-04_08h40.35.418,task,2021.1.4,Win32,50.1655463,628b806c463b948bc644b84f,629af6f7eead0a75b87fad66,,,,,,,,,,,,,,,,,,,,,,,,,,,,,,,,,,,,,,,,,,,,,,,,,,,,,,,,,,,,,,,,,,,,,,,,,,,,,,,,,,,,,,,,,,,,,,,,,,,,,,,
,,"[""period""]",0,[1.0402000000476903],25,0,25,0,1,610cda1332fb63830158c55d,24,Mężczyzna,2022-06-04_08h40.35.418,task,2021.1.4,Win32,50.1655463,628b806c463b948bc644b84f,629af6f7eead0a75b87fad66,,,,,,,,,,,,,,,,,,,,,,,,,,,,,,,,,,,,,,,,,,,,,,,,,,,,,,,,,,,,,,,,,,,,,,,,,,,,,,,,,,,,,,,,,,,,,,,,,,,,,,,
,,"[""comma""]",0,[1.000200000047684],26,0,26,0,1,610cda1332fb63830158c55d,24,Mężczyzna,2022-06-04_08h40.35.418,task,2021.1.4,Win32,50.1655463,628b806c463b948bc644b84f,629af6f7eead0a75b87fad66,,,,,,,,,,,,,,,,,,,,,,,,,,,,,,,,,,,,,,,,,,,,,,,,,,,,,,,,,,,,,,,,,,,,,,,,,,,,,,,,,,,,,,,,,,,,,,,,,,,,,,,
,,"[""comma""]",0,[0.7400999999046292],27,0,27,0,1,610cda1332fb63830158c55d,24,Mężczyzna,2022-06-04_08h40.35.418,task,2021.1.4,Win32,50.1655463,628b806c463b948bc644b84f,629af6f7eead0a75b87fad66,,,,,,,,,,,,,,,,,,,,,,,,,,,,,,,,,,,,,,,,,,,,,,,,,,,,,,,,,,,,,,,,,,,,,,,,,,,,,,,,,,,,,,,,,,,,,,,,,,,,,,,
,,"[""period""]",0,[0.38049999999999784],28,0,28,0,1,610cda1332fb63830158c55d,24,Mężczyzna,2022-06-04_08h40.35.418,task,2021.1.4,Win32,50.1655463,628b806c463b948bc644b84f,629af6f7eead0a75b87fad66,,,,,,,,,,,,,,,,,,,,,,,,,,,,,,,,,,,,,,,,,,,,,,,,,,,,,,,,,,,,,,,,,,,,,,,,,,,,,,,,,,,,,,,,,,,,,,,,,,,,,,,
,,"[""comma""]",0,[0.580599999904635],29,0,29,0,1,610cda1332fb63830158c55d,24,Mężczyzna,2022-06-04_08h40.35.418,task,2021.1.4,Win32,50.1655463,628b806c463b948bc644b84f,629af6f7eead0a75b87fad66,,,,,,,,,,,,,,,,,,,,,,,,,,,,,,,,,,,,,,,,,,,,,,,,,,,,,,,,,,,,,,,,,,,,,,,,,,,,,,,,,,,,,,,,,,,,,,,,,,,,,,,
,,,0,,30,0,30,0,1,610cda1332fb63830158c55d,24,Mężczyzna,2022-06-04_08h40.35.418,task,2021.1.4,Win32,50.1655463,628b806c463b948bc644b84f,629af6f7eead0a75b87fad66,,,,,,,,,,,,,,,,,,,,,,,,,,,,,,,,,,,,,,,,,,,,,,,,,,,,,,,,,,,,,,,,,,,,,,,,,,,,,,,,,,,,,,,,,,,,,,,,,,,,,,,
,,"[""comma""]",0,[0.2878999998569469],31,0,31,0,1,610cda1332fb63830158c55d,24,Mężczyzna,2022-06-04_08h40.35.418,task,2021.1.4,Win32,50.1655463,628b806c463b948bc644b84f,629af6f7eead0a75b87fad66,,,,,,,,,,,,,,,,,,,,,,,,,,,,,,,,,,,,,,,,,,,,,,,,,,,,,,,,,,,,,,,,,,,,,,,,,,,,,,,,,,,,,,,,,,,,,,,,,,,,,,,
,,"[""period""]",0,[0.5761000001430574],32,0,32,0,1,610cda1332fb63830158c55d,24,Mężczyzna,2022-06-04_08h40.35.418,task,2021.1.4,Win32,50.1655463,628b806c463b948bc644b84f,629af6f7eead0a75b87fad66,,,,,,,,,,,,,,,,,,,,,,,,,,,,,,,,,,,,,,,,,,,,,,,,,,,,,,,,,,,,,,,,,,,,,,,,,,,,,,,,,,,,,,,,,,,,,,,,,,,,,,,
,,"[""period""]",0,[0.5757999999523093],33,0,33,0,1,610cda1332fb63830158c55d,24,Mężczyzna,2022-06-04_08h40.35.418,task,2021.1.4,Win32,50.1655463,628b806c463b948bc644b84f,629af6f7eead0a75b87fad66,,,,,,,,,,,,,,,,,,,,,,,,,,,,,,,,,,,,,,,,,,,,,,,,,,,,,,,,,,,,,,,,,,,,,,,,,,,,,,,,,,,,,,,,,,,,,,,,,,,,,,,
,,"[""comma""]",0,[0.7107999999523145],34,0,34,0,1,610cda1332fb63830158c55d,24,Mężczyzna,2022-06-04_08h40.35.418,task,2021.1.4,Win32,50.1655463,628b806c463b948bc644b84f,629af6f7eead0a75b87fad66,,,,,,,,,,,,,,,,,,,,,,,,,,,,,,,,,,,,,,,,,,,,,,,,,,,,,,,,,,,,,,,,,,,,,,,,,,,,,,,,,,,,,,,,,,,,,,,,,,,,,,,
,,"[""comma""]",0,[0.5209000000953665],35,0,35,0,1,610cda1332fb63830158c55d,24,Mężczyzna,2022-06-04_08h40.35.418,task,2021.1.4,Win32,50.1655463,628b806c463b948bc644b84f,629af6f7eead0a75b87fad66,,,,,,,,,,,,,,,,,,,,,,,,,,,,,,,,,,,,,,,,,,,,,,,,,,,,,,,,,,,,,,,,,,,,,,,,,,,,,,,,,,,,,,,,,,,,,,,,,,,,,,,
,,"[""period""]",0,[0.4609999999999985],36,0,36,0,1,610cda1332fb63830158c55d,24,Mężczyzna,2022-06-04_08h40.35.418,task,2021.1.4,Win32,50.1655463,628b806c463b948bc644b84f,629af6f7eead0a75b87fad66,,,,,,,,,,,,,,,,,,,,,,,,,,,,,,,,,,,,,,,,,,,,,,,,,,,,,,,,,,,,,,,,,,,,,,,,,,,,,,,,,,,,,,,,,,,,,,,,,,,,,,,
,,"[""comma""]",0,[0.24089999985694988],37,0,37,0,1,610cda1332fb63830158c55d,24,Mężczyzna,2022-06-04_08h40.35.418,task,2021.1.4,Win32,50.1655463,628b806c463b948bc644b84f,629af6f7eead0a75b87fad66,,,,,,,,,,,,,,,,,,,,,,,,,,,,,,,,,,,,,,,,,,,,,,,,,,,,,,,,,,,,,,,,,,,,,,,,,,,,,,,,,,,,,,,,,,,,,,,,,,,,,,,
,,"[""period""]",0,[1.2402000000476932],38,0,38,0,1,610cda1332fb63830158c55d,24,Mężczyzna,2022-06-04_08h40.35.418,task,2021.1.4,Win32,50.1655463,628b806c463b948bc644b84f,629af6f7eead0a75b87fad66,,,,,,,,,,,,,,,,,,,,,,,,,,,,,,,,,,,,,,,,,,,,,,,,,,,,,,,,,,,,,,,,,,,,,,,,,,,,,,,,,,,,,,,,,,,,,,,,,,,,,,,
,,,0,,39,0,39,0,1,610cda1332fb63830158c55d,24,Mężczyzna,2022-06-04_08h40.35.418,task,2021.1.4,Win32,50.1655463,628b806c463b948bc644b84f,629af6f7eead0a75b87fad66,,,,,,,,,,,,,,,,,,,,,,,,,,,,,,,,,,,,,,,,,,,,,,,,,,,,,,,,,,,,,,,,,,,,,,,,,,,,,,,,,,,,,,,,,,,,,,,,,,,,,,,
,,"[""comma""]",0,[0.5204000000953641],40,0,40,0,1,610cda1332fb63830158c55d,24,Mężczyzna,2022-06-04_08h40.35.418,task,2021.1.4,Win32,50.1655463,628b806c463b948bc644b84f,629af6f7eead0a75b87fad66,,,,,,,,,,,,,,,,,,,,,,,,,,,,,,,,,,,,,,,,,,,,,,,,,,,,,,,,,,,,,,,,,,,,,,,,,,,,,,,,,,,,,,,,,,,,,,,,,,,,,,,
,,"[""period""]",0,[0.6662999999523151],41,0,41,0,1,610cda1332fb63830158c55d,24,Mężczyzna,2022-06-04_08h40.35.418,task,2021.1.4,Win32,50.1655463,628b806c463b948bc644b84f,629af6f7eead0a75b87fad66,,,,,,,,,,,,,,,,,,,,,,,,,,,,,,,,,,,,,,,,,,,,,,,,,,,,,,,,,,,,,,,,,,,,,,,,,,,,,,,,,,,,,,,,,,,,,,,,,,,,,,,
,,"[""period""]",0,[1.4000000000000057],42,0,42,0,1,610cda1332fb63830158c55d,24,Mężczyzna,2022-06-04_08h40.35.418,task,2021.1.4,Win32,50.1655463,628b806c463b948bc644b84f,629af6f7eead0a75b87fad66,,,,,,,,,,,,,,,,,,,,,,,,,,,,,,,,,,,,,,,,,,,,,,,,,,,,,,,,,,,,,,,,,,,,,,,,,,,,,,,,,,,,,,,,,,,,,,,,,,,,,,,
,,"[""period""]",0,[0.8402000000476875],43,0,43,0,1,610cda1332fb63830158c55d,24,Mężczyzna,2022-06-04_08h40.35.418,task,2021.1.4,Win32,50.1655463,628b806c463b948bc644b84f,629af6f7eead0a75b87fad66,,,,,,,,,,,,,,,,,,,,,,,,,,,,,,,,,,,,,,,,,,,,,,,,,,,,,,,,,,,,,,,,,,,,,,,,,,,,,,,,,,,,,,,,,,,,,,,,,,,,,,,
,,"[""comma""]",0,[1.0002999999523183],44,0,44,0,1,610cda1332fb63830158c55d,24,Mężczyzna,2022-06-04_08h40.35.418,task,2021.1.4,Win32,50.1655463,628b806c463b948bc644b84f,629af6f7eead0a75b87fad66,,,,,,,,,,,,,,,,,,,,,,,,,,,,,,,,,,,,,,,,,,,,,,,,,,,,,,,,,,,,,,,,,,,,,,,,,,,,,,,,,,,,,,,,,,,,,,,,,,,,,,,
,,"[""comma""]",0,[0.5548999998569286],45,0,45,0,1,610cda1332fb63830158c55d,24,Mężczyzna,2022-06-04_08h40.35.418,task,2021.1.4,Win32,50.1655463,628b806c463b948bc644b84f,629af6f7eead0a75b87fad66,,,,,,,,,,,,,,,,,,,,,,,,,,,,,,,,,,,,,,,,,,,,,,,,,,,,,,,,,,,,,,,,,,,,,,,,,,,,,,,,,,,,,,,,,,,,,,,,,,,,,,,
,,"[""period""]",0,[0.5637000000476746],46,0,46,0,1,610cda1332fb63830158c55d,24,Mężczyzna,2022-06-04_08h40.35.418,task,2021.1.4,Win32,50.1655463,628b806c463b948bc644b84f,629af6f7eead0a75b87fad66,,,,,,,,,,,,,,,,,,,,,,,,,,,,,,,,,,,,,,,,,,,,,,,,,,,,,,,,,,,,,,,,,,,,,,,,,,,,,,,,,,,,,,,,,,,,,,,,,,,,,,,
,,"[""period""]",0,[0.7150999999046235],47,0,47,0,1,610cda1332fb63830158c55d,24,Mężczyzna,2022-06-04_08h40.35.418,task,2021.1.4,Win32,50.1655463,628b806c463b948bc644b84f,629af6f7eead0a75b87fad66,,,,,,,,,,,,,,,,,,,,,,,,,,,,,,,,,,,,,,,,,,,,,,,,,,,,,,,,,,,,,,,,,,,,,,,,,,,,,,,,,,,,,,,,,,,,,,,,,,,,,,,
,,"[""period""]",0,[0.5159999999999911],48,0,48,0,1,610cda1332fb63830158c55d,24,Mężczyzna,2022-06-04_08h40.35.418,task,2021.1.4,Win32,50.1655463,628b806c463b948bc644b84f,629af6f7eead0a75b87fad66,,,,,,,,,,,,,,,,,,,,,,,,,,,,,,,,,,,,,,,,,,,,,,,,,,,,,,,,,,,,,,,,,,,,,,,,,,,,,,,,,,,,,,,,,,,,,,,,,,,,,,,
,,"[""comma""]",0,[0.32420000004771055],49,0,49,0,1,610cda1332fb63830158c55d,24,Mężczyzna,2022-06-04_08h40.35.418,task,2021.1.4,Win32,50.1655463,628b806c463b948bc644b84f,629af6f7eead0a75b87fad66,,,,,,,,,,,,,,,,,,,,,,,,,,,,,,,,,,,,,,,,,,,,,,,,,,,,,,,,,,,,,,,,,,,,,,,,,,,,,,,,,,,,,,,,,,,,,,,,,,,,,,,
,,"[""comma""]",0,[0.8273000001907462],50,0,50,0,1,610cda1332fb63830158c55d,24,Mężczyzna,2022-06-04_08h40.35.418,task,2021.1.4,Win32,50.1655463,628b806c463b948bc644b84f,629af6f7eead0a75b87fad66,,,,,,,,,,,,,,,,,,,,,,,,,,,,,,,,,,,,,,,,,,,,,,,,,,,,,,,,,,,,,,,,,,,,,,,,,,,,,,,,,,,,,,,,,,,,,,,,,,,,,,,
,,"[""period""]",0,[0.8602000000476835],51,0,51,0,1,610cda1332fb63830158c55d,24,Mężczyzna,2022-06-04_08h40.35.418,task,2021.1.4,Win32,50.1655463,628b806c463b948bc644b84f,629af6f7eead0a75b87fad66,,,,,,,,,,,,,,,,,,,,,,,,,,,,,,,,,,,,,,,,,,,,,,,,,,,,,,,,,,,,,,,,,,,,,,,,,,,,,,,,,,,,,,,,,,,,,,,,,,,,,,,
,,"[""comma""]",0,[0.6361000001430455],52,0,52,0,1,610cda1332fb63830158c55d,24,Mężczyzna,2022-06-04_08h40.35.418,task,2021.1.4,Win32,50.1655463,628b806c463b948bc644b84f,629af6f7eead0a75b87fad66,,,,,,,,,,,,,,,,,,,,,,,,,,,,,,,,,,,,,,,,,,,,,,,,,,,,,,,,,,,,,,,,,,,,,,,,,,,,,,,,,,,,,,,,,,,,,,,,,,,,,,,
,,"[""period""]",0,[0.5013999998569432],53,0,53,0,1,610cda1332fb63830158c55d,24,Mężczyzna,2022-06-04_08h40.35.418,task,2021.1.4,Win32,50.1655463,628b806c463b948bc644b84f,629af6f7eead0a75b87fad66,,,,,,,,,,,,,,,,,,,,,,,,,,,,,,,,,,,,,,,,,,,,,,,,,,,,,,,,,,,,,,,,,,,,,,,,,,,,,,,,,,,,,,,,,,,,,,,,,,,,,,,
,,"[""comma""]",0,[0.8522000000477021],54,0,54,0,1,610cda1332fb63830158c55d,24,Mężczyzna,2022-06-04_08h40.35.418,task,2021.1.4,Win32,50.1655463,628b806c463b948bc644b84f,629af6f7eead0a75b87fad66,,,,,,,,,,,,,,,,,,,,,,,,,,,,,,,,,,,,,,,,,,,,,,,,,,,,,,,,,,,,,,,,,,,,,,,,,,,,,,,,,,,,,,,,,,,,,,,,,,,,,,,
,,"[""comma""]",0,[0.3500999999046428],55,0,55,0,1,610cda1332fb63830158c55d,24,Mężczyzna,2022-06-04_08h40.35.418,task,2021.1.4,Win32,50.1655463,628b806c463b948bc644b84f,629af6f7eead0a75b87fad66,,,,,,,,,,,,,,,,,,,,,,,,,,,,,,,,,,,,,,,,,,,,,,,,,,,,,,,,,,,,,,,,,,,,,,,,,,,,,,,,,,,,,,,,,,,,,,,,,,,,,,,
,,"[""comma""]",0,[0.24160000014305183],56,0,56,0,1,610cda1332fb63830158c55d,24,Mężczyzna,2022-06-04_08h40.35.418,task,2021.1.4,Win32,50.1655463,628b806c463b948bc644b84f,629af6f7eead0a75b87fad66,,,,,,,,,,,,,,,,,,,,,,,,,,,,,,,,,,,,,,,,,,,,,,,,,,,,,,,,,,,,,,,,,,,,,,,,,,,,,,,,,,,,,,,,,,,,,,,,,,,,,,,
,,"[""period""]",0,[0.06049999999999045],57,0,57,0,1,610cda1332fb63830158c55d,24,Mężczyzna,2022-06-04_08h40.35.418,task,2021.1.4,Win32,50.1655463,628b806c463b948bc644b84f,629af6f7eead0a75b87fad66,,,,,,,,,,,,,,,,,,,,,,,,,,,,,,,,,,,,,,,,,,,,,,,,,,,,,,,,,,,,,,,,,,,,,,,,,,,,,,,,,,,,,,,,,,,,,,,,,,,,,,,
,,"[""comma""]",0,[0.06040000009537039],58,0,58,0,1,610cda1332fb63830158c55d,24,Mężczyzna,2022-06-04_08h40.35.418,task,2021.1.4,Win32,50.1655463,628b806c463b948bc644b84f,629af6f7eead0a75b87fad66,,,,,,,,,,,,,,,,,,,,,,,,,,,,,,,,,,,,,,,,,,,,,,,,,,,,,,,,,,,,,,,,,,,,,,,,,,,,,,,,,,,,,,,,,,,,,,,,,,,,,,,
,,"[""period""]",0,[0.37959999990462734],59,0,59,0,1,610cda1332fb63830158c55d,24,Mężczyzna,2022-06-04_08h40.35.418,task,2021.1.4,Win32,50.1655463,628b806c463b948bc644b84f,629af6f7eead0a75b87fad66,,,,,,,,,,,,,,,,,,,,,,,,,,,,,,,,,,,,,,,,,,,,,,,,,,,,,,,,,,,,,,,,,,,,,,,,,,,,,,,,,,,,,,,,,,,,,,,,,,,,,,,
,,"[""comma""]",0,[0.03269999980926741],60,0,60,0,1,610cda1332fb63830158c55d,24,Mężczyzna,2022-06-04_08h40.35.418,task,2021.1.4,Win32,50.1655463,628b806c463b948bc644b84f,629af6f7eead0a75b87fad66,,,,,,,,,,,,,,,,,,,,,,,,,,,,,,,,,,,,,,,,,,,,,,,,,,,,,,,,,,,,,,,,,,,,,,,,,,,,,,,,,,,,,,,,,,,,,,,,,,,,,,,
,,"[""comma""]",0,[1.2218999998569586],61,0,61,0,1,610cda1332fb63830158c55d,24,Mężczyzna,2022-06-04_08h40.35.418,task,2021.1.4,Win32,50.1655463,628b806c463b948bc644b84f,629af6f7eead0a75b87fad66,,,,,,,,,,,,,,,,,,,,,,,,,,,,,,,,,,,,,,,,,,,,,,,,,,,,,,,,,,,,,,,,,,,,,,,,,,,,,,,,,,,,,,,,,,,,,,,,,,,,,,,
,,"[""period""]",0,[0.9357000000476603],62,0,62,0,1,610cda1332fb63830158c55d,24,Mężczyzna,2022-06-04_08h40.35.418,task,2021.1.4,Win32,50.1655463,628b806c463b948bc644b84f,629af6f7eead0a75b87fad66,,,,,,,,,,,,,,,,,,,,,,,,,,,,,,,,,,,,,,,,,,,,,,,,,,,,,,,,,,,,,,,,,,,,,,,,,,,,,,,,,,,,,,,,,,,,,,,,,,,,,,,
,,"[""period""]",0,[0.5689999999999884],63,0,63,0,1,610cda1332fb63830158c55d,24,Mężczyzna,2022-06-04_08h40.35.418,task,2021.1.4,Win32,50.1655463,628b806c463b948bc644b84f,629af6f7eead0a75b87fad66,,,,,,,,,,,,,,,,,,,,,,,,,,,,,,,,,,,,,,,,,,,,,,,,,,,,,,,,,,,,,,,,,,,,,,,,,,,,,,,,,,,,,,,,,,,,,,,,,,,,,,,
,,"[""comma""]",0,[0.448799999952314],64,0,64,0,1,610cda1332fb63830158c55d,24,Mężczyzna,2022-06-04_08h40.35.418,task,2021.1.4,Win32,50.1655463,628b806c463b948bc644b84f,629af6f7eead0a75b87fad66,,,,,,,,,,,,,,,,,,,,,,,,,,,,,,,,,,,,,,,,,,,,,,,,,,,,,,,,,,,,,,,,,,,,,,,,,,,,,,,,,,,,,,,,,,,,,,,,,,,,,,,
,,"[""period""]",0,[0.40280000019075146],65,0,65,0,1,610cda1332fb63830158c55d,24,Mężczyzna,2022-06-04_08h40.35.418,task,2021.1.4,Win32,50.1655463,628b806c463b948bc644b84f,629af6f7eead0a75b87fad66,,,,,,,,,,,,,,,,,,,,,,,,,,,,,,,,,,,,,,,,,,,,,,,,,,,,,,,,,,,,,,,,,,,,,,,,,,,,,,,,,,,,,,,,,,,,,,,,,,,,,,,
,,"[""comma""]",0,[0.8479999999999848],66,0,66,0,1,610cda1332fb63830158c55d,24,Mężczyzna,2022-06-04_08h40.35.418,task,2021.1.4,Win32,50.1655463,628b806c463b948bc644b84f,629af6f7eead0a75b87fad66,,,,,,,,,,,,,,,,,,,,,,,,,,,,,,,,,,,,,,,,,,,,,,,,,,,,,,,,,,,,,,,,,,,,,,,,,,,,,,,,,,,,,,,,,,,,,,,,,,,,,,,
,,"[""comma""]",0,[0.6982999999523258],67,0,67,0,1,610cda1332fb63830158c55d,24,Mężczyzna,2022-06-04_08h40.35.418,task,2021.1.4,Win32,50.1655463,628b806c463b948bc644b84f,629af6f7eead0a75b87fad66,,,,,,,,,,,,,,,,,,,,,,,,,,,,,,,,,,,,,,,,,,,,,,,,,,,,,,,,,,,,,,,,,,,,,,,,,,,,,,,,,,,,,,,,,,,,,,,,,,,,,,,
,,"[""comma""]",0,[0.36989999985695476],68,0,68,0,1,610cda1332fb63830158c55d,24,Mężczyzna,2022-06-04_08h40.35.418,task,2021.1.4,Win32,50.1655463,628b806c463b948bc644b84f,629af6f7eead0a75b87fad66,,,,,,,,,,,,,,,,,,,,,,,,,,,,,,,,,,,,,,,,,,,,,,,,,,,,,,,,,,,,,,,,,,,,,,,,,,,,,,,,,,,,,,,,,,,,,,,,,,,,,,,
,,"[""period""]",0,[0.6493999998569393],69,0,69,0,1,610cda1332fb63830158c55d,24,Mężczyzna,2022-06-04_08h40.35.418,task,2021.1.4,Win32,50.1655463,628b806c463b948bc644b84f,629af6f7eead0a75b87fad66,,,,,,,,,,,,,,,,,,,,,,,,,,,,,,,,,,,,,,,,,,,,,,,,,,,,,,,,,,,,,,,,,,,,,,,,,,,,,,,,,,,,,,,,,,,,,,,,,,,,,,,
,,,0,,70,0,70,0,1,610cda1332fb63830158c55d,24,Mężczyzna,2022-06-04_08h40.35.418,task,2021.1.4,Win32,50.1655463,628b806c463b948bc644b84f,629af6f7eead0a75b87fad66,,,,,,,,,,,,,,,,,,,,,,,,,,,,,,,,,,,,,,,,,,,,,,,,,,,,,,,,,,,,,,,,,,,,,,,,,,,,,,,,,,,,,,,,,,,,,,,,,,,,,,,
,,"[""period""]",0,[0.14050000000000296],71,0,71,0,1,610cda1332fb63830158c55d,24,Mężczyzna,2022-06-04_08h40.35.418,task,2021.1.4,Win32,50.1655463,628b806c463b948bc644b84f,629af6f7eead0a75b87fad66,,,,,,,,,,,,,,,,,,,,,,,,,,,,,,,,,,,,,,,,,,,,,,,,,,,,,,,,,,,,,,,,,,,,,,,,,,,,,,,,,,,,,,,,,,,,,,,,,,,,,,,
,,"[""comma""]",0,[0.9414999999999907],72,0,72,0,1,610cda1332fb63830158c55d,24,Mężczyzna,2022-06-04_08h40.35.418,task,2021.1.4,Win32,50.1655463,628b806c463b948bc644b84f,629af6f7eead0a75b87fad66,,,,,,,,,,,,,,,,,,,,,,,,,,,,,,,,,,,,,,,,,,,,,,,,,,,,,,,,,,,,,,,,,,,,,,,,,,,,,,,,,,,,,,,,,,,,,,,,,,,,,,,
,,,0,,73,0,73,0,1,610cda1332fb63830158c55d,24,Mężczyzna,2022-06-04_08h40.35.418,task,2021.1.4,Win32,50.1655463,628b806c463b948bc644b84f,629af6f7eead0a75b87fad66,,,,,,,,,,,,,,,,,,,,,,,,,,,,,,,,,,,,,,,,,,,,,,,,,,,,,,,,,,,,,,,,,,,,,,,,,,,,,,,,,,,,,,,,,,,,,,,,,,,,,,,
,,"[""comma"",""comma""]",0,"[0.008200000047708045,0.7639000000953899]",74,0,74,0,1,610cda1332fb63830158c55d,24,Mężczyzna,2022-06-04_08h40.35.418,task,2021.1.4,Win32,50.1655463,628b806c463b948bc644b84f,629af6f7eead0a75b87fad66,,,,,,,,,,,,,,,,,,,,,,,,,,,,,,,,,,,,,,,,,,,,,,,,,,,,,,,,,,,,,,,,,,,,,,,,,,,,,,,,,,,,,,,,,,,,,,,,,,,,,,,
,,"[""period""]",0,[0.5607999999523088],75,0,75,0,1,610cda1332fb63830158c55d,24,Mężczyzna,2022-06-04_08h40.35.418,task,2021.1.4,Win32,50.1655463,628b806c463b948bc644b84f,629af6f7eead0a75b87fad66,,,,,,,,,,,,,,,,,,,,,,,,,,,,,,,,,,,,,,,,,,,,,,,,,,,,,,,,,,,,,,,,,,,,,,,,,,,,,,,,,,,,,,,,,,,,,,,,,,,,,,,
,,"[""comma""]",0,[0.5007999999523065],76,0,76,0,1,610cda1332fb63830158c55d,24,Mężczyzna,2022-06-04_08h40.35.418,task,2021.1.4,Win32,50.1655463,628b806c463b948bc644b84f,629af6f7eead0a75b87fad66,,,,,,,,,,,,,,,,,,,,,,,,,,,,,,,,,,,,,,,,,,,,,,,,,,,,,,,,,,,,,,,,,,,,,,,,,,,,,,,,,,,,,,,,,,,,,,,,,,,,,,,
,,"[""period""]",0,[0.21490000009535493],77,0,77,0,1,610cda1332fb63830158c55d,24,Mężczyzna,2022-06-04_08h40.35.418,task,2021.1.4,Win32,50.1655463,628b806c463b948bc644b84f,629af6f7eead0a75b87fad66,,,,,,,,,,,,,,,,,,,,,,,,,,,,,,,,,,,,,,,,,,,,,,,,,,,,,,,,,,,,,,,,,,,,,,,,,,,,,,,,,,,,,,,,,,,,,,,,,,,,,,,
,,"[""period""]",0,[0.4548999998569627],78,0,78,0,1,610cda1332fb63830158c55d,24,Mężczyzna,2022-06-04_08h40.35.418,task,2021.1.4,Win32,50.1655463,628b806c463b948bc644b84f,629af6f7eead0a75b87fad66,,,,,,,,,,,,,,,,,,,,,,,,,,,,,,,,,,,,,,,,,,,,,,,,,,,,,,,,,,,,,,,,,,,,,,,,,,,,,,,,,,,,,,,,,,,,,,,,,,,,,,,
,,"[""period""]",0,[1.0287999999523265],79,0,79,0,1,610cda1332fb63830158c55d,24,Mężczyzna,2022-06-04_08h40.35.418,task,2021.1.4,Win32,50.1655463,628b806c463b948bc644b84f,629af6f7eead0a75b87fad66,,,,,,,,,,,,,,,,,,,,,,,,,,,,,,,,,,,,,,,,,,,,,,,,,,,,,,,,,,,,,,,,,,,,,,,,,,,,,,,,,,,,,,,,,,,,,,,,,,,,,,,
,,"[""period""]",0,[0.6012999999523174],80,0,80,0,1,610cda1332fb63830158c55d,24,Mężczyzna,2022-06-04_08h40.35.418,task,2021.1.4,Win32,50.1655463,628b806c463b948bc644b84f,629af6f7eead0a75b87fad66,,,,,,,,,,,,,,,,,,,,,,,,,,,,,,,,,,,,,,,,,,,,,,,,,,,,,,,,,,,,,,,,,,,,,,,,,,,,,,,,,,,,,,,,,,,,,,,,,,,,,,,
,,"[""period""]",0,[0.6865999999046437],81,0,81,0,1,610cda1332fb63830158c55d,24,Mężczyzna,2022-06-04_08h40.35.418,task,2021.1.4,Win32,50.1655463,628b806c463b948bc644b84f,629af6f7eead0a75b87fad66,,,,,,,,,,,,,,,,,,,,,,,,,,,,,,,,,,,,,,,,,,,,,,,,,,,,,,,,,,,,,,,,,,,,,,,,,,,,,,,,,,,,,,,,,,,,,,,,,,,,,,,
,,"[""comma""]",0,[1.5077999999523115],82,0,82,0,1,610cda1332fb63830158c55d,24,Mężczyzna,2022-06-04_08h40.35.418,task,2021.1.4,Win32,50.1655463,628b806c463b948bc644b84f,629af6f7eead0a75b87fad66,,,,,,,,,,,,,,,,,,,,,,,,,,,,,,,,,,,,,,,,,,,,,,,,,,,,,,,,,,,,,,,,,,,,,,,,,,,,,,,,,,,,,,,,,,,,,,,,,,,,,,,
,,"[""comma""]",0,[0.2956999998092442],83,0,83,0,1,610cda1332fb63830158c55d,24,Mężczyzna,2022-06-04_08h40.35.418,task,2021.1.4,Win32,50.1655463,628b806c463b948bc644b84f,629af6f7eead0a75b87fad66,,,,,,,,,,,,,,,,,,,,,,,,,,,,,,,,,,,,,,,,,,,,,,,,,,,,,,,,,,,,,,,,,,,,,,,,,,,,,,,,,,,,,,,,,,,,,,,,,,,,,,,
,,"[""period""]",0,[0.3050000000000068],84,0,84,0,1,610cda1332fb63830158c55d,24,Mężczyzna,2022-06-04_08h40.35.418,task,2021.1.4,Win32,50.1655463,628b806c463b948bc644b84f,629af6f7eead0a75b87fad66,,,,,,,,,,,,,,,,,,,,,,,,,,,,,,,,,,,,,,,,,,,,,,,,,,,,,,,,,,,,,,,,,,,,,,,,,,,,,,,,,,,,,,,,,,,,,,,,,,,,,,,
,,"[""period""]",0,[0.48070000004770463],85,0,85,0,1,610cda1332fb63830158c55d,24,Mężczyzna,2022-06-04_08h40.35.418,task,2021.1.4,Win32,50.1655463,628b806c463b948bc644b84f,629af6f7eead0a75b87fad66,,,,,,,,,,,,,,,,,,,,,,,,,,,,,,,,,,,,,,,,,,,,,,,,,,,,,,,,,,,,,,,,,,,,,,,,,,,,,,,,,,,,,,,,,,,,,,,,,,,,,,,
,,"[""period""]",0,[0.5614000000953752],86,0,86,0,1,610cda1332fb63830158c55d,24,Mężczyzna,2022-06-04_08h40.35.418,task,2021.1.4,Win32,50.1655463,628b806c463b948bc644b84f,629af6f7eead0a75b87fad66,,,,,,,,,,,,,,,,,,,,,,,,,,,,,,,,,,,,,,,,,,,,,,,,,,,,,,,,,,,,,,,,,,,,,,,,,,,,,,,,,,,,,,,,,,,,,,,,,,,,,,,
,,"[""period""]",0,[0.6247000000476817],87,0,87,0,1,610cda1332fb63830158c55d,24,Mężczyzna,2022-06-04_08h40.35.418,task,2021.1.4,Win32,50.1655463,628b806c463b948bc644b84f,629af6f7eead0a75b87fad66,,,,,,,,,,,,,,,,,,,,,,,,,,,,,,,,,,,,,,,,,,,,,,,,,,,,,,,,,,,,,,,,,,,,,,,,,,,,,,,,,,,,,,,,,,,,,,,,,,,,,,,
,,"[""period""]",0,[0.7212000000476735],88,0,88,0,1,610cda1332fb63830158c55d,24,Mężczyzna,2022-06-04_08h40.35.418,task,2021.1.4,Win32,50.1655463,628b806c463b948bc644b84f,629af6f7eead0a75b87fad66,,,,,,,,,,,,,,,,,,,,,,,,,,,,,,,,,,,,,,,,,,,,,,,,,,,,,,,,,,,,,,,,,,,,,,,,,,,,,,,,,,,,,,,,,,,,,,,,,,,,,,,
,,"[""comma"",""period""]",0,"[0.2905999999046287,1.9172999999522915]",89,0,89,0,1,610cda1332fb63830158c55d,24,Mężczyzna,2022-06-04_08h40.35.418,task,2021.1.4,Win32,50.1655463,628b806c463b948bc644b84f,629af6f7eead0a75b87fad66,,,,,,,,,,,,,,,,,,,,,,,,,,,,,,,,,,,,,,,,,,,,,,,,,,,,,,,,,,,,,,,,,,,,,,,,,,,,,,,,,,,,,,,,,,,,,,,,,,,,,,,
,,,0,,90,0,90,0,1,610cda1332fb63830158c55d,24,Mężczyzna,2022-06-04_08h40.35.418,task,2021.1.4,Win32,50.1655463,628b806c463b948bc644b84f,629af6f7eead0a75b87fad66,,,,,,,,,,,,,,,,,,,,,,,,,,,,,,,,,,,,,,,,,,,,,,,,,,,,,,,,,,,,,,,,,,,,,,,,,,,,,,,,,,,,,,,,,,,,,,,,,,,,,,,
,,"[""comma""]",0,[0.02779999995232174],91,0,91,0,1,610cda1332fb63830158c55d,24,Mężczyzna,2022-06-04_08h40.35.418,task,2021.1.4,Win32,50.1655463,628b806c463b948bc644b84f,629af6f7eead0a75b87fad66,,,,,,,,,,,,,,,,,,,,,,,,,,,,,,,,,,,,,,,,,,,,,,,,,,,,,,,,,,,,,,,,,,,,,,,,,,,,,,,,,,,,,,,,,,,,,,,,,,,,,,,
,,"[""period""]",0,[0.42810000014304705],92,0,92,0,1,610cda1332fb63830158c55d,24,Mężczyzna,2022-06-04_08h40.35.418,task,2021.1.4,Win32,50.1655463,628b806c463b948bc644b84f,629af6f7eead0a75b87fad66,,,,,,,,,,,,,,,,,,,,,,,,,,,,,,,,,,,,,,,,,,,,,,,,,,,,,,,,,,,,,,,,,,,,,,,,,,,,,,,,,,,,,,,,,,,,,,,,,,,,,,,
,,"[""period""]",0,[0.5204999999999984],93,0,93,0,1,610cda1332fb63830158c55d,24,Mężczyzna,2022-06-04_08h40.35.418,task,2021.1.4,Win32,50.1655463,628b806c463b948bc644b84f,629af6f7eead0a75b87fad66,,,,,,,,,,,,,,,,,,,,,,,,,,,,,,,,,,,,,,,,,,,,,,,,,,,,,,,,,,,,,,,,,,,,,,,,,,,,,,,,,,,,,,,,,,,,,,,,,,,,,,,
,,"[""period""]",0,[0.2805999999046094],94,0,94,0,1,610cda1332fb63830158c55d,24,Mężczyzna,2022-06-04_08h40.35.418,task,2021.1.4,Win32,50.1655463,628b806c463b948bc644b84f,629af6f7eead0a75b87fad66,,,,,,,,,,,,,,,,,,,,,,,,,,,,,,,,,,,,,,,,,,,,,,,,,,,,,,,,,,,,,,,,,,,,,,,,,,,,,,,,,,,,,,,,,,,,,,,,,,,,,,,
,,"[""comma""]",0,[0.3100000000000023],95,0,95,0,1,610cda1332fb63830158c55d,24,Mężczyzna,2022-06-04_08h40.35.418,task,2021.1.4,Win32,50.1655463,628b806c463b948bc644b84f,629af6f7eead0a75b87fad66,,,,,,,,,,,,,,,,,,,,,,,,,,,,,,,,,,,,,,,,,,,,,,,,,,,,,,,,,,,,,,,,,,,,,,,,,,,,,,,,,,,,,,,,,,,,,,,,,,,,,,,
,,"[""comma""]",0,[0.3204000000953613],96,0,96,0,1,610cda1332fb63830158c55d,24,Mężczyzna,2022-06-04_08h40.35.418,task,2021.1.4,Win32,50.1655463,628b806c463b948bc644b84f,629af6f7eead0a75b87fad66,,,,,,,,,,,,,,,,,,,,,,,,,,,,,,,,,,,,,,,,,,,,,,,,,,,,,,,,,,,,,,,,,,,,,,,,,,,,,,,,,,,,,,,,,,,,,,,,,,,,,,,
,,"[""period""]",0,[0.36149999999997817],97,0,97,0,1,610cda1332fb63830158c55d,24,Mężczyzna,2022-06-04_08h40.35.418,task,2021.1.4,Win32,50.1655463,628b806c463b948bc644b84f,629af6f7eead0a75b87fad66,,,,,,,,,,,,,,,,,,,,,,,,,,,,,,,,,,,,,,,,,,,,,,,,,,,,,,,,,,,,,,,,,,,,,,,,,,,,,,,,,,,,,,,,,,,,,,,,,,,,,,,
,,"[""comma""]",0,[0.48050000000000637],98,0,98,0,1,610cda1332fb63830158c55d,24,Mężczyzna,2022-06-04_08h40.35.418,task,2021.1.4,Win32,50.1655463,628b806c463b948bc644b84f,629af6f7eead0a75b87fad66,,,,,,,,,,,,,,,,,,,,,,,,,,,,,,,,,,,,,,,,,,,,,,,,,,,,,,,,,,,,,,,,,,,,,,,,,,,,,,,,,,,,,,,,,,,,,,,,,,,,,,,
,,"[""comma""]",0,[0.8617000000476764],99,0,99,0,1,610cda1332fb63830158c55d,24,Mężczyzna,2022-06-04_08h40.35.418,task,2021.1.4,Win32,50.1655463,628b806c463b948bc644b84f,629af6f7eead0a75b87fad66,,,,,,,,,,,,,,,,,,,,,,,,,,,,,,,,,,,,,,,,,,,,,,,,,,,,,,,,,,,,,,,,,,,,,,,,,,,,,,,,,,,,,,,,,,,,,,,,,,,,,,,
,,,0,,100,0,100,0,1,610cda1332fb63830158c55d,24,Mężczyzna,2022-06-04_08h40.35.418,task,2021.1.4,Win32,50.1655463,628b806c463b948bc644b84f,629af6f7eead0a75b87fad66,,,,,,,,,,,,,,,,,,,,,,,,,,,,,,,,,,,,,,,,,,,,,,,,,,,,,,,,,,,,,,,,,,,,,,,,,,,,,,,,,,,,,,,,,,,,,,,,,,,,,,,
,,"[""period""]",0,[0.03320000004768531],101,0,101,0,1,610cda1332fb63830158c55d,24,Mężczyzna,2022-06-04_08h40.35.418,task,2021.1.4,Win32,50.1655463,628b806c463b948bc644b84f,629af6f7eead0a75b87fad66,,,,,,,,,,,,,,,,,,,,,,,,,,,,,,,,,,,,,,,,,,,,,,,,,,,,,,,,,,,,,,,,,,,,,,,,,,,,,,,,,,,,,,,,,,,,,,,,,,,,,,,
,,"[""period""]",0,[0.5907000000476899],102,0,102,0,1,610cda1332fb63830158c55d,24,Mężczyzna,2022-06-04_08h40.35.418,task,2021.1.4,Win32,50.1655463,628b806c463b948bc644b84f,629af6f7eead0a75b87fad66,,,,,,,,,,,,,,,,,,,,,,,,,,,,,,,,,,,,,,,,,,,,,,,,,,,,,,,,,,,,,,,,,,,,,,,,,,,,,,,,,,,,,,,,,,,,,,,,,,,,,,,
,,"[""comma""]",0,[0.2552000000476653],103,0,103,0,1,610cda1332fb63830158c55d,24,Mężczyzna,2022-06-04_08h40.35.418,task,2021.1.4,Win32,50.1655463,628b806c463b948bc644b84f,629af6f7eead0a75b87fad66,,,,,,,,,,,,,,,,,,,,,,,,,,,,,,,,,,,,,,,,,,,,,,,,,,,,,,,,,,,,,,,,,,,,,,,,,,,,,,,,,,,,,,,,,,,,,,,,,,,,,,,
,,"[""comma""]",0,[0.7654000000953545],104,0,104,0,1,610cda1332fb63830158c55d,24,Mężczyzna,2022-06-04_08h40.35.418,task,2021.1.4,Win32,50.1655463,628b806c463b948bc644b84f,629af6f7eead0a75b87fad66,,,,,,,,,,,,,,,,,,,,,,,,,,,,,,,,,,,,,,,,,,,,,,,,,,,,,,,,,,,,,,,,,,,,,,,,,,,,,,,,,,,,,,,,,,,,,,,,,,,,,,,
,,"[""comma""]",0,[0.5501000001430612],105,0,105,0,1,610cda1332fb63830158c55d,24,Mężczyzna,2022-06-04_08h40.35.418,task,2021.1.4,Win32,50.1655463,628b806c463b948bc644b84f,629af6f7eead0a75b87fad66,,,,,,,,,,,,,,,,,,,,,,,,,,,,,,,,,,,,,,,,,,,,,,,,,,,,,,,,,,,,,,,,,,,,,,,,,,,,,,,,,,,,,,,,,,,,,,,,,,,,,,,
,,"[""period""]",0,[0.36729999995230855],106,0,106,0,1,610cda1332fb63830158c55d,24,Mężczyzna,2022-06-04_08h40.35.418,task,2021.1.4,Win32,50.1655463,628b806c463b948bc644b84f,629af6f7eead0a75b87fad66,,,,,,,,,,,,,,,,,,,,,,,,,,,,,,,,,,,,,,,,,,,,,,,,,,,,,,,,,,,,,,,,,,,,,,,,,,,,,,,,,,,,,,,,,,,,,,,,,,,,,,,
,,"[""comma"",""period""]",0,"[0.23099999999999454,1.8006999998092397]",107,0,107,0,1,610cda1332fb63830158c55d,24,Mężczyzna,2022-06-04_08h40.35.418,task,2021.1.4,Win32,50.1655463,628b806c463b948bc644b84f,629af6f7eead0a75b87fad66,,,,,,,,,,,,,,,,,,,,,,,,,,,,,,,,,,,,,,,,,,,,,,,,,,,,,,,,,,,,,,,,,,,,,,,,,,,,,,,,,,,,,,,,,,,,,,,,,,,,,,,
,,,0,,108,0,108,0,1,610cda1332fb63830158c55d,24,Mężczyzna,2022-06-04_08h40.35.418,task,2021.1.4,Win32,50.1655463,628b806c463b948bc644b84f,629af6f7eead0a75b87fad66,,,,,,,,,,,,,,,,,,,,,,,,,,,,,,,,,,,,,,,,,,,,,,,,,,,,,,,,,,,,,,,,,,,,,,,,,,,,,,,,,,,,,,,,,,,,,,,,,,,,,,,
,,"[""comma""]",0,[-0.037799999952312646],109,0,109,0,1,610cda1332fb63830158c55d,24,Mężczyzna,2022-06-04_08h40.35.418,task,2021.1.4,Win32,50.1655463,628b806c463b948bc644b84f,629af6f7eead0a75b87fad66,,,,,,,,,,,,,,,,,,,,,,,,,,,,,,,,,,,,,,,,,,,,,,,,,,,,,,,,,,,,,,,,,,,,,,,,,,,,,,,,,,,,,,,,,,,,,,,,,,,,,,,
,,"[""period""]",0,[0.26059999990462757],110,0,110,0,1,610cda1332fb63830158c55d,24,Mężczyzna,2022-06-04_08h40.35.418,task,2021.1.4,Win32,50.1655463,628b806c463b948bc644b84f,629af6f7eead0a75b87fad66,,,,,,,,,,,,,,,,,,,,,,,,,,,,,,,,,,,,,,,,,,,,,,,,,,,,,,,,,,,,,,,,,,,,,,,,,,,,,,,,,,,,,,,,,,,,,,,,,,,,,,,
,,"[""period""]",0,[0.26379999995231174],111,0,111,0,1,610cda1332fb63830158c55d,24,Mężczyzna,2022-06-04_08h40.35.418,task,2021.1.4,Win32,50.1655463,628b806c463b948bc644b84f,629af6f7eead0a75b87fad66,,,,,,,,,,,,,,,,,,,,,,,,,,,,,,,,,,,,,,,,,,,,,,,,,,,,,,,,,,,,,,,,,,,,,,,,,,,,,,,,,,,,,,,,,,,,,,,,,,,,,,,
,,"[""comma""]",0,[0.2996999998092633],112,0,112,0,1,610cda1332fb63830158c55d,24,Mężczyzna,2022-06-04_08h40.35.418,task,2021.1.4,Win32,50.1655463,628b806c463b948bc644b84f,629af6f7eead0a75b87fad66,,,,,,,,,,,,,,,,,,,,,,,,,,,,,,,,,,,,,,,,,,,,,,,,,,,,,,,,,,,,,,,,,,,,,,,,,,,,,,,,,,,,,,,,,,,,,,,,,,,,,,,
,,"[""period""]",0,[0.3829000000953897],113,0,113,0,1,610cda1332fb63830158c55d,24,Mężczyzna,2022-06-04_08h40.35.418,task,2021.1.4,Win32,50.1655463,628b806c463b948bc644b84f,629af6f7eead0a75b87fad66,,,,,,,,,,,,,,,,,,,,,,,,,,,,,,,,,,,,,,,,,,,,,,,,,,,,,,,,,,,,,,,,,,,,,,,,,,,,,,,,,,,,,,,,,,,,,,,,,,,,,,,
,,"[""comma""]",0,[0.41459999990462393],114,0,114,0,1,610cda1332fb63830158c55d,24,Mężczyzna,2022-06-04_08h40.35.418,task,2021.1.4,Win32,50.1655463,628b806c463b948bc644b84f,629af6f7eead0a75b87fad66,,,,,,,,,,,,,,,,,,,,,,,,,,,,,,,,,,,,,,,,,,,,,,,,,,,,,,,,,,,,,,,,,,,,,,,,,,,,,,,,,,,,,,,,,,,,,,,,,,,,,,,
,,"[""comma""]",0,[0.271000000000015],115,0,115,0,1,610cda1332fb63830158c55d,24,Mężczyzna,2022-06-04_08h40.35.418,task,2021.1.4,Win32,50.1655463,628b806c463b948bc644b84f,629af6f7eead0a75b87fad66,,,,,,,,,,,,,,,,,,,,,,,,,,,,,,,,,,,,,,,,,,,,,,,,,,,,,,,,,,,,,,,,,,,,,,,,,,,,,,,,,,,,,,,,,,,,,,,,,,,,,,,
,,"[""comma""]",0,[0.956400000095357],116,0,116,0,1,610cda1332fb63830158c55d,24,Mężczyzna,2022-06-04_08h40.35.418,task,2021.1.4,Win32,50.1655463,628b806c463b948bc644b84f,629af6f7eead0a75b87fad66,,,,,,,,,,,,,,,,,,,,,,,,,,,,,,,,,,,,,,,,,,,,,,,,,,,,,,,,,,,,,,,,,,,,,,,,,,,,,,,,,,,,,,,,,,,,,,,,,,,,,,,
,,,0,,117,0,117,0,1,610cda1332fb63830158c55d,24,Mężczyzna,2022-06-04_08h40.35.418,task,2021.1.4,Win32,50.1655463,628b806c463b948bc644b84f,629af6f7eead0a75b87fad66,,,,,,,,,,,,,,,,,,,,,,,,,,,,,,,,,,,,,,,,,,,,,,,,,,,,,,,,,,,,,,,,,,,,,,,,,,,,,,,,,,,,,,,,,,,,,,,,,,,,,,,
,,"[""period""]",0,[0.3799000000954038],118,0,118,0,1,610cda1332fb63830158c55d,24,Mężczyzna,2022-06-04_08h40.35.418,task,2021.1.4,Win32,50.1655463,628b806c463b948bc644b84f,629af6f7eead0a75b87fad66,,,,,,,,,,,,,,,,,,,,,,,,,,,,,,,,,,,,,,,,,,,,,,,,,,,,,,,,,,,,,,,,,,,,,,,,,,,,,,,,,,,,,,,,,,,,,,,,,,,,,,,
,,"[""period""]",0,[0.5042000000477174],119,0,119,0,1,610cda1332fb63830158c55d,24,Mężczyzna,2022-06-04_08h40.35.418,task,2021.1.4,Win32,50.1655463,628b806c463b948bc644b84f,629af6f7eead0a75b87fad66,,,,,,,,,,,,,,,,,,,,,,,,,,,,,,,,,,,,,,,,,,,,,,,,,,,,,,,,,,,,,,,,,,,,,,,,,,,,,,,,,,,,,,,,,,,,,,,,,,,,,,,
,,,,,,,,,,610cda1332fb63830158c55d,24,Mężczyzna,2022-06-04_08h40.35.418,task,2021.1.4,Win32,50.1655463,628b806c463b948bc644b84f,629af6f7eead0a75b87fad66,space,41.1547,space,0.3436,0,0,0,0,1,X V Q F H G B L J M P D K C T S W R N Z,,,,,,,,,,,,,,,,,,,,,,,,,,,,,,,,,,,,,,,,,,,,,,,,,,,,,,,,,,,,,,,,,,,,,,,,,,,,,,,,,,,,,,,,,,,,,
,,,,,,,,,,610cda1332fb63830158c55d,24,Mężczyzna,2022-06-04_08h40.35.418,task,2021.1.4,Win32,50.1655463,628b806c463b948bc644b84f,629af6f7eead0a75b87fad66,,,,,1,0,1,0,1,X V Q F H G B L J M P D K C T S W R N Z,,,,,,,,,,,,,,,,,,,,,,,,,,,,,,,,,,,,,,,,,,,,,,,,,,,,,,,,,,,,,,,,,,,,,,,,,,,,,,,,,,,,,,,,,,,,,
,,,,,,,,,,610cda1332fb63830158c55d,24,Mężczyzna,2022-06-04_08h40.35.418,task,2021.1.4,Win32,50.1655463,628b806c463b948bc644b84f,629af6f7eead0a75b87fad66,,,,,,,,,,,zx,"[""z"",""x""]","[0.523200000047666,0.5916000001430461,0.9462000000476678]",1,ZX,0,0,0,0,1,,,,,,,,,,,,,,,,,,,,,,,,,,,,,,,,,,,,,,,,,,,,,,,,,,,,,,,,,,,,,,,,,,,,,,,,,,,,,,,,,,,
,,,,,,,,,,610cda1332fb63830158c55d,24,Mężczyzna,2022-06-04_08h40.35.418,task,2021.1.4,Win32,50.1655463,628b806c463b948bc644b84f,629af6f7eead0a75b87fad66,,,,,0,0,0,0,1,X V Q F H G B L J M P D K C T S W R N Z,,,,,,,,,,,,,,,,,,,,,,,,,,,,,,,,,,,,,,,,,,,,,,,,,,,,,,,,,,,,,,,,,,,,,,,,,,,,,,,,,,,,,,,,,,,,,
,,,,,,,,,,610cda1332fb63830158c55d,24,Mężczyzna,2022-06-04_08h40.35.418,task,2021.1.4,Win32,50.1655463,628b806c463b948bc644b84f,629af6f7eead0a75b87fad66,,,,,1,0,1,0,1,X V Q F H G B L J M P D K C T S W R N Z,,,,,,,,,,,,,,,,,,,,,,,,,,,,,,,,,,,,,,,,,,,,,,,,,,,,,,,,,,,,,,,,,,,,,,,,,,,,,,,,,,,,,,,,,,,,,
,,,,,,,,,,610cda1332fb63830158c55d,24,Mężczyzna,2022-06-04_08h40.35.418,task,2021.1.4,Win32,50.1655463,628b806c463b948bc644b84f,629af6f7eead0a75b87fad66,,,,,,,,,,,nz,"[""n"",""z""]","[0.780399999856968,0.948199999809276,1.125799999952335]",1,NZ,1,0,1,0,1,,,,,,,,,,,,,,,,,,,,,,,,,,,,,,,,,,,,,,,,,,,,,,,,,,,,,,,,,,,,,,,,,,,,,,,,,,,,,,,,,,,
,,,,,,,,,,610cda1332fb63830158c55d,24,Mężczyzna,2022-06-04_08h40.35.418,task,2021.1.4,Win32,50.1655463,628b806c463b948bc644b84f,629af6f7eead0a75b87fad66,,,,,0,0,0,0,1,X V Q F H G B L J M P D K C T S W R N Z,,,,,,,,,,,,,,,,,,,,,,,,,,,,,,,,,,,,,,,,,,,,,,,,,,,,,,,,,,,,,,,,,,,,,,,,,,,,,,,,,,,,,,,,,,,,,
,,,,,,,,,,610cda1332fb63830158c55d,24,Mężczyzna,2022-06-04_08h40.35.418,task,2021.1.4,Win32,50.1655463,628b806c463b948bc644b84f,629af6f7eead0a75b87fad66,,,,,1,0,1,0,1,X V Q F H G B L J M P D K C T S W R N Z,,,,,,,,,,,,,,,,,,,,,,,,,,,,,,,,,,,,,,,,,,,,,,,,,,,,,,,,,,,,,,,,,,,,,,,,,,,,,,,,,,,,,,,,,,,,,
,,,,,,,,,,610cda1332fb63830158c55d,24,Mężczyzna,2022-06-04_08h40.35.418,task,2021.1.4,Win32,50.1655463,628b806c463b948bc644b84f,629af6f7eead0a75b87fad66,,,,,2,0,2,0,1,X V Q F H G B L J M P D K C T S W R N Z,,,,,,,,,,,,,,,,,,,,,,,,,,,,,,,,,,,,,,,,,,,,,,,,,,,,,,,,,,,,,,,,,,,,,,,,,,,,,,,,,,,,,,,,,,,,,
,,,,,,,,,,610cda1332fb63830158c55d,24,Mężczyzna,2022-06-04_08h40.35.418,task,2021.1.4,Win32,50.1655463,628b806c463b948bc644b84f,629af6f7eead0a75b87fad66,,,,,,,,,,,nhq,"[""n"",""h"",""q""]","[0.36039999985695204,0.4640999999046471,0.6345999999046512,0.867999999999995]",1,NHQ,2,0,2,0,1,,,,,,,,,,,,,,,,,,,,,,,,,,,,,,,,,,,,,,,,,,,,,,,,,,,,,,,,,,,,,,,,,,,,,,,,,,,,,,,,,,,
,,,,,,,,,,610cda1332fb63830158c55d,24,Mężczyzna,2022-06-04_08h40.35.418,task,2021.1.4,Win32,50.1655463,628b806c463b948bc644b84f,629af6f7eead0a75b87fad66,,,,,0,0,0,0,1,X V Q F H G B L J M P D K C T S W R N Z,,,,,,,,,,,,,,,,,,,,,,,,,,,,,,,,,,,,,,,,,,,,,,,,,,,,,,,,,,,,,,,,,,,,,,,,,,,,,,,,,,,,,,,,,,,,,
,,,,,,,,,,610cda1332fb63830158c55d,24,Mężczyzna,2022-06-04_08h40.35.418,task,2021.1.4,Win32,50.1655463,628b806c463b948bc644b84f,629af6f7eead0a75b87fad66,,,,,1,0,1,0,1,X V Q F H G B L J M P D K C T S W R N Z,,,,,,,,,,,,,,,,,,,,,,,,,,,,,,,,,,,,,,,,,,,,,,,,,,,,,,,,,,,,,,,,,,,,,,,,,,,,,,,,,,,,,,,,,,,,,
,,,,,,,,,,610cda1332fb63830158c55d,24,Mężczyzna,2022-06-04_08h40.35.418,task,2021.1.4,Win32,50.1655463,628b806c463b948bc644b84f,629af6f7eead0a75b87fad66,,,,,2,0,2,0,1,X V Q F H G B L J M P D K C T S W R N Z,,,,,,,,,,,,,,,,,,,,,,,,,,,,,,,,,,,,,,,,,,,,,,,,,,,,,,,,,,,,,,,,,,,,,,,,,,,,,,,,,,,,,,,,,,,,,
,,,,,,,,,,610cda1332fb63830158c55d,24,Mężczyzna,2022-06-04_08h40.35.418,task,2021.1.4,Win32,50.1655463,628b806c463b948bc644b84f,629af6f7eead0a75b87fad66,,,,,,,,,,,qdd,"[""q"",""d"",""d""]","[0.3537000000476951,0.4653999998569702,0.6602000000477233,0.8303999998569793]",1,QDD,3,0,3,0,1,,,,,,,,,,,,,,,,,,,,,,,,,,,,,,,,,,,,,,,,,,,,,,,,,,,,,,,,,,,,,,,,,,,,,,,,,,,,,,,,,,,
,,,,,,,,,,610cda1332fb63830158c55d,24,Mężczyzna,2022-06-04_08h40.35.418,task,2021.1.4,Win32,50.1655463,628b806c463b948bc644b84f,629af6f7eead0a75b87fad66,,,,,0,0,0,0,1,X V Q F H G B L J M P D K C T S W R N Z,,,,,,,,,,,,,,,,,,,,,,,,,,,,,,,,,,,,,,,,,,,,,,,,,,,,,,,,,,,,,,,,,,,,,,,,,,,,,,,,,,,,,,,,,,,,,
,,,,,,,,,,610cda1332fb63830158c55d,24,Mężczyzna,2022-06-04_08h40.35.418,task,2021.1.4,Win32,50.1655463,628b806c463b948bc644b84f,629af6f7eead0a75b87fad66,,,,,1,0,1,0,1,X V Q F H G B L J M P D K C T S W R N Z,,,,,,,,,,,,,,,,,,,,,,,,,,,,,,,,,,,,,,,,,,,,,,,,,,,,,,,,,,,,,,,,,,,,,,,,,,,,,,,,,,,,,,,,,,,,,
,,,,,,,,,,610cda1332fb63830158c55d,24,Mężczyzna,2022-06-04_08h40.35.418,task,2021.1.4,Win32,50.1655463,628b806c463b948bc644b84f,629af6f7eead0a75b87fad66,,,,,2,0,2,0,1,X V Q F H G B L J M P D K C T S W R N Z,,,,,,,,,,,,,,,,,,,,,,,,,,,,,,,,,,,,,,,,,,,,,,,,,,,,,,,,,,,,,,,,,,,,,,,,,,,,,,,,,,,,,,,,,,,,,
,,,,,,,,,,610cda1332fb63830158c55d,24,Mężczyzna,2022-06-04_08h40.35.418,task,2021.1.4,Win32,50.1655463,628b806c463b948bc644b84f,629af6f7eead0a75b87fad66,,,,,3,0,3,0,1,X V Q F H G B L J M P D K C T S W R N Z,,,,,,,,,,,,,,,,,,,,,,,,,,,,,,,,,,,,,,,,,,,,,,,,,,,,,,,,,,,,,,,,,,,,,,,,,,,,,,,,,,,,,,,,,,,,,
,,,,,,,,,,610cda1332fb63830158c55d,24,Mężczyzna,2022-06-04_08h40.35.418,task,2021.1.4,Win32,50.1655463,628b806c463b948bc644b84f,629af6f7eead0a75b87fad66,,,,,,,,,,,hxbj,"[""h"",""x"",""b"",""j""]","[0.4067000000476355,0.5699000000953447,0.7207000000476569,2.1822999999523063,2.4939999999999714]",1,HXBJ,4,0,4,0,1,,,,,,,,,,,,,,,,,,,,,,,,,,,,,,,,,,,,,,,,,,,,,,,,,,,,,,,,,,,,,,,,,,,,,,,,,,,,,,,,,,,
,,,,,,,,,,610cda1332fb63830158c55d,24,Mężczyzna,2022-06-04_08h40.35.418,task,2021.1.4,Win32,50.1655463,628b806c463b948bc644b84f,629af6f7eead0a75b87fad66,,,,,0,0,0,0,1,X V Q F H G B L J M P D K C T S W R N Z,,,,,,,,,,,,,,,,,,,,,,,,,,,,,,,,,,,,,,,,,,,,,,,,,,,,,,,,,,,,,,,,,,,,,,,,,,,,,,,,,,,,,,,,,,,,,
,,,,,,,,,,610cda1332fb63830158c55d,24,Mężczyzna,2022-06-04_08h40.35.418,task,2021.1.4,Win32,50.1655463,628b806c463b948bc644b84f,629af6f7eead0a75b87fad66,,,,,1,0,1,0,1,X V Q F H G B L J M P D K C T S W R N Z,,,,,,,,,,,,,,,,,,,,,,,,,,,,,,,,,,,,,,,,,,,,,,,,,,,,,,,,,,,,,,,,,,,,,,,,,,,,,,,,,,,,,,,,,,,,,
,,,,,,,,,,610cda1332fb63830158c55d,24,Mężczyzna,2022-06-04_08h40.35.418,task,2021.1.4,Win32,50.1655463,628b806c463b948bc644b84f,629af6f7eead0a75b87fad66,,,,,2,0,2,0,1,X V Q F H G B L J M P D K C T S W R N Z,,,,,,,,,,,,,,,,,,,,,,,,,,,,,,,,,,,,,,,,,,,,,,,,,,,,,,,,,,,,,,,,,,,,,,,,,,,,,,,,,,,,,,,,,,,,,
,,,,,,,,,,610cda1332fb63830158c55d,24,Mężczyzna,2022-06-04_08h40.35.418,task,2021.1.4,Win32,50.1655463,628b806c463b948bc644b84f,629af6f7eead0a75b87fad66,,,,,3,0,3,0,1,X V Q F H G B L J M P D K C T S W R N Z,,,,,,,,,,,,,,,,,,,,,,,,,,,,,,,,,,,,,,,,,,,,,,,,,,,,,,,,,,,,,,,,,,,,,,,,,,,,,,,,,,,,,,,,,,,,,
,,,,,,,,,,610cda1332fb63830158c55d,24,Mężczyzna,2022-06-04_08h40.35.418,task,2021.1.4,Win32,50.1655463,628b806c463b948bc644b84f,629af6f7eead0a75b87fad66,,,,,,,,,,,jjjk,"[""j"",""j"",""j"",""k""]","[0.4492000000476537,0.6544999999999845,0.8362000000476542,1.1058000001906976,1.3799999999999955]",1,JJJK,5,0,5,0,1,,,,,,,,,,,,,,,,,,,,,,,,,,,,,,,,,,,,,,,,,,,,,,,,,,,,,,,,,,,,,,,,,,,,,,,,,,,,,,,,,,,
,,,,,,,,,,610cda1332fb63830158c55d,24,Mężczyzna,2022-06-04_08h40.35.418,task,2021.1.4,Win32,50.1655463,628b806c463b948bc644b84f,629af6f7eead0a75b87fad66,,,,,0,0,0,0,1,X V Q F H G B L J M P D K C T S W R N Z,,,,,,,,,,,,,,,,,,,,,,,,,,,,,,,,,,,,,,,,,,,,,,,,,,,,,,,,,,,,,,,,,,,,,,,,,,,,,,,,,,,,,,,,,,,,,
,,,,,,,,,,610cda1332fb63830158c55d,24,Mężczyzna,2022-06-04_08h40.35.418,task,2021.1.4,Win32,50.1655463,628b806c463b948bc644b84f,629af6f7eead0a75b87fad66,,,,,1,0,1,0,1,X V Q F H G B L J M P D K C T S W R N Z,,,,,,,,,,,,,,,,,,,,,,,,,,,,,,,,,,,,,,,,,,,,,,,,,,,,,,,,,,,,,,,,,,,,,,,,,,,,,,,,,,,,,,,,,,,,,
,,,,,,,,,,610cda1332fb63830158c55d,24,Mężczyzna,2022-06-04_08h40.35.418,task,2021.1.4,Win32,50.1655463,628b806c463b948bc644b84f,629af6f7eead0a75b87fad66,,,,,2,0,2,0,1,X V Q F H G B L J M P D K C T S W R N Z,,,,,,,,,,,,,,,,,,,,,,,,,,,,,,,,,,,,,,,,,,,,,,,,,,,,,,,,,,,,,,,,,,,,,,,,,,,,,,,,,,,,,,,,,,,,,
,,,,,,,,,,610cda1332fb63830158c55d,24,Mężczyzna,2022-06-04_08h40.35.418,task,2021.1.4,Win32,50.1655463,628b806c463b948bc644b84f,629af6f7eead0a75b87fad66,,,,,3,0,3,0,1,X V Q F H G B L J M P D K C T S W R N Z,,,,,,,,,,,,,,,,,,,,,,,,,,,,,,,,,,,,,,,,,,,,,,,,,,,,,,,,,,,,,,,,,,,,,,,,,,,,,,,,,,,,,,,,,,,,,
,,,,,,,,,,610cda1332fb63830158c55d,24,Mężczyzna,2022-06-04_08h40.35.418,task,2021.1.4,Win32,50.1655463,628b806c463b948bc644b84f,629af6f7eead0a75b87fad66,,,,,4,0,4,0,1,X V Q F H G B L J M P D K C T S W R N Z,,,,,,,,,,,,,,,,,,,,,,,,,,,,,,,,,,,,,,,,,,,,,,,,,,,,,,,,,,,,,,,,,,,,,,,,,,,,,,,,,,,,,,,,,,,,,
,,,,,,,,,,610cda1332fb63830158c55d,24,Mężczyzna,2022-06-04_08h40.35.418,task,2021.1.4,Win32,50.1655463,628b806c463b948bc644b84f,629af6f7eead0a75b87fad66,,,,,,,,,,,mdzcn,"[""m"",""d"",""z"",""c"",""n""]","[0.43940000009536107,0.6664000000953365,0.9425999999046439,1.3245000000000005,1.491099999904634,10.344099999904643]",1,MDZCN,6,0,6,0,1,,,,,,,,,,,,,,,,,,,,,,,,,,,,,,,,,,,,,,,,,,,,,,,,,,,,,,,,,,,,,,,,,,,,,,,,,,,,,,,,,,,
,,,,,,,,,,610cda1332fb63830158c55d,24,Mężczyzna,2022-06-04_08h40.35.418,task,2021.1.4,Win32,50.1655463,628b806c463b948bc644b84f,629af6f7eead0a75b87fad66,,,,,0,0,0,0,1,X V Q F H G B L J M P D K C T S W R N Z,,,,,,,,,,,,,,,,,,,,,,,,,,,,,,,,,,,,,,,,,,,,,,,,,,,,,,,,,,,,,,,,,,,,,,,,,,,,,,,,,,,,,,,,,,,,,
,,,,,,,,,,610cda1332fb63830158c55d,24,Mężczyzna,2022-06-04_08h40.35.418,task,2021.1.4,Win32,50.1655463,628b806c463b948bc644b84f,629af6f7eead0a75b87fad66,,,,,1,0,1,0,1,X V Q F H G B L J M P D K C T S W R N Z,,,,,,,,,,,,,,,,,,,,,,,,,,,,,,,,,,,,,,,,,,,,,,,,,,,,,,,,,,,,,,,,,,,,,,,,,,,,,,,,,,,,,,,,,,,,,
,,,,,,,,,,610cda1332fb63830158c55d,24,Mężczyzna,2022-06-04_08h40.35.418,task,2021.1.4,Win32,50.1655463,628b806c463b948bc644b84f,629af6f7eead0a75b87fad66,,,,,2,0,2,0,1,X V Q F H G B L J M P D K C T S W R N Z,,,,,,,,,,,,,,,,,,,,,,,,,,,,,,,,,,,,,,,,,,,,,,,,,,,,,,,,,,,,,,,,,,,,,,,,,,,,,,,,,,,,,,,,,,,,,
,,,,,,,,,,610cda1332fb63830158c55d,24,Mężczyzna,2022-06-04_08h40.35.418,task,2021.1.4,Win32,50.1655463,628b806c463b948bc644b84f,629af6f7eead0a75b87fad66,,,,,3,0,3,0,1,X V Q F H G B L J M P D K C T S W R N Z,,,,,,,,,,,,,,,,,,,,,,,,,,,,,,,,,,,,,,,,,,,,,,,,,,,,,,,,,,,,,,,,,,,,,,,,,,,,,,,,,,,,,,,,,,,,,
,,,,,,,,,,610cda1332fb63830158c55d,24,Mężczyzna,2022-06-04_08h40.35.418,task,2021.1.4,Win32,50.1655463,628b806c463b948bc644b84f,629af6f7eead0a75b87fad66,,,,,4,0,4,0,1,X V Q F H G B L J M P D K C T S W R N Z,,,,,,,,,,,,,,,,,,,,,,,,,,,,,,,,,,,,,,,,,,,,,,,,,,,,,,,,,,,,,,,,,,,,,,,,,,,,,,,,,,,,,,,,,,,,,
,,,,,,,,,,610cda1332fb63830158c55d,24,Mężczyzna,2022-06-04_08h40.35.418,task,2021.1.4,Win32,50.1655463,628b806c463b948bc644b84f,629af6f7eead0a75b87fad66,,,,,,,,,,,qntgs,"[""q"",""n"",""t"",""g"",""s""]","[0.5628999998569384,0.8202999999522831,1.16570000004765,1.4202999999523058,1.6953999998569316,2.2592999999523045]",1,QNTGS,7,0,7,0,1,,,,,,,,,,,,,,,,,,,,,,,,,,,,,,,,,,,,,,,,,,,,,,,,,,,,,,,,,,,,,,,,,,,,,,,,,,,,,,,,,,,
,,,,,,,,,,610cda1332fb63830158c55d,24,Mężczyzna,2022-06-04_08h40.35.418,task,2021.1.4,Win32,50.1655463,628b806c463b948bc644b84f,629af6f7eead0a75b87fad66,,,,,0,0,0,0,1,X V Q F H G B L J M P D K C T S W R N Z,,,,,,,,,,,,,,,,,,,,,,,,,,,,,,,,,,,,,,,,,,,,,,,,,,,,,,,,,,,,,,,,,,,,,,,,,,,,,,,,,,,,,,,,,,,,,
,,,,,,,,,,610cda1332fb63830158c55d,24,Mężczyzna,2022-06-04_08h40.35.418,task,2021.1.4,Win32,50.1655463,628b806c463b948bc644b84f,629af6f7eead0a75b87fad66,,,,,1,0,1,0,1,X V Q F H G B L J M P D K C T S W R N Z,,,,,,,,,,,,,,,,,,,,,,,,,,,,,,,,,,,,,,,,,,,,,,,,,,,,,,,,,,,,,,,,,,,,,,,,,,,,,,,,,,,,,,,,,,,,,
,,,,,,,,,,610cda1332fb63830158c55d,24,Mężczyzna,2022-06-04_08h40.35.418,task,2021.1.4,Win32,50.1655463,628b806c463b948bc644b84f,629af6f7eead0a75b87fad66,,,,,2,0,2,0,1,X V Q F H G B L J M P D K C T S W R N Z,,,,,,,,,,,,,,,,,,,,,,,,,,,,,,,,,,,,,,,,,,,,,,,,,,,,,,,,,,,,,,,,,,,,,,,,,,,,,,,,,,,,,,,,,,,,,
,,,,,,,,,,610cda1332fb63830158c55d,24,Mężczyzna,2022-06-04_08h40.35.418,task,2021.1.4,Win32,50.1655463,628b806c463b948bc644b84f,629af6f7eead0a75b87fad66,,,,,3,0,3,0,1,X V Q F H G B L J M P D K C T S W R N Z,,,,,,,,,,,,,,,,,,,,,,,,,,,,,,,,,,,,,,,,,,,,,,,,,,,,,,,,,,,,,,,,,,,,,,,,,,,,,,,,,,,,,,,,,,,,,
,,,,,,,,,,610cda1332fb63830158c55d,24,Mężczyzna,2022-06-04_08h40.35.418,task,2021.1.4,Win32,50.1655463,628b806c463b948bc644b84f,629af6f7eead0a75b87fad66,,,,,4,0,4,0,1,X V Q F H G B L J M P D K C T S W R N Z,,,,,,,,,,,,,,,,,,,,,,,,,,,,,,,,,,,,,,,,,,,,,,,,,,,,,,,,,,,,,,,,,,,,,,,,,,,,,,,,,,,,,,,,,,,,,
,,,,,,,,,,610cda1332fb63830158c55d,24,Mężczyzna,2022-06-04_08h40.35.418,task,2021.1.4,Win32,50.1655463,628b806c463b948bc644b84f,629af6f7eead0a75b87fad66,,,,,5,0,5,0,1,X V Q F H G B L J M P D K C T S W R N Z,,,,,,,,,,,,,,,,,,,,,,,,,,,,,,,,,,,,,,,,,,,,,,,,,,,,,,,,,,,,,,,,,,,,,,,,,,,,,,,,,,,,,,,,,,,,,
,,,,,,,,,,610cda1332fb63830158c55d,24,Mężczyzna,2022-06-04_08h40.35.418,task,2021.1.4,Win32,50.1655463,628b806c463b948bc644b84f,629af6f7eead0a75b87fad66,,,,,,,,,,,nwmjbq,"[""n"",""w"",""m"",""j"",""b"",""q""]","[0.38909999990460165,0.6332999999522713,0.871699999809266,1.2401999998092492,1.5052999999522854,1.7600999999046394,1.8549999999999613]",1,NWMJBQ,8,0,8,0,1,,,,,,,,,,,,,,,,,,,,,,,,,,,,,,,,,,,,,,,,,,,,,,,,,,,,,,,,,,,,,,,,,,,,,,,,,,,,,,,,,,,
,,,,,,,,,,610cda1332fb63830158c55d,24,Mężczyzna,2022-06-04_08h40.35.418,task,2021.1.4,Win32,50.1655463,628b806c463b948bc644b84f,629af6f7eead0a75b87fad66,,,,,0,0,0,0,1,X V Q F H G B L J M P D K C T S W R N Z,,,,,,,,,,,,,,,,,,,,,,,,,,,,,,,,,,,,,,,,,,,,,,,,,,,,,,,,,,,,,,,,,,,,,,,,,,,,,,,,,,,,,,,,,,,,,
,,,,,,,,,,610cda1332fb63830158c55d,24,Mężczyzna,2022-06-04_08h40.35.418,task,2021.1.4,Win32,50.1655463,628b806c463b948bc644b84f,629af6f7eead0a75b87fad66,,,,,1,0,1,0,1,X V Q F H G B L J M P D K C T S W R N Z,,,,,,,,,,,,,,,,,,,,,,,,,,,,,,,,,,,,,,,,,,,,,,,,,,,,,,,,,,,,,,,,,,,,,,,,,,,,,,,,,,,,,,,,,,,,,
,,,,,,,,,,610cda1332fb63830158c55d,24,Mężczyzna,2022-06-04_08h40.35.418,task,2021.1.4,Win32,50.1655463,628b806c463b948bc644b84f,629af6f7eead0a75b87fad66,,,,,2,0,2,0,1,X V Q F H G B L J M P D K C T S W R N Z,,,,,,,,,,,,,,,,,,,,,,,,,,,,,,,,,,,,,,,,,,,,,,,,,,,,,,,,,,,,,,,,,,,,,,,,,,,,,,,,,,,,,,,,,,,,,
,,,,,,,,,,610cda1332fb63830158c55d,24,Mężczyzna,2022-06-04_08h40.35.418,task,2021.1.4,Win32,50.1655463,628b806c463b948bc644b84f,629af6f7eead0a75b87fad66,,,,,3,0,3,0,1,X V Q F H G B L J M P D K C T S W R N Z,,,,,,,,,,,,,,,,,,,,,,,,,,,,,,,,,,,,,,,,,,,,,,,,,,,,,,,,,,,,,,,,,,,,,,,,,,,,,,,,,,,,,,,,,,,,,
,,,,,,,,,,610cda1332fb63830158c55d,24,Mężczyzna,2022-06-04_08h40.35.418,task,2021.1.4,Win32,50.1655463,628b806c463b948bc644b84f,629af6f7eead0a75b87fad66,,,,,4,0,4,0,1,X V Q F H G B L J M P D K C T S W R N Z,,,,,,,,,,,,,,,,,,,,,,,,,,,,,,,,,,,,,,,,,,,,,,,,,,,,,,,,,,,,,,,,,,,,,,,,,,,,,,,,,,,,,,,,,,,,,
,,,,,,,,,,610cda1332fb63830158c55d,24,Mężczyzna,2022-06-04_08h40.35.418,task,2021.1.4,Win32,50.1655463,628b806c463b948bc644b84f,629af6f7eead0a75b87fad66,,,,,5,0,5,0,1,X V Q F H G B L J M P D K C T S W R N Z,,,,,,,,,,,,,,,,,,,,,,,,,,,,,,,,,,,,,,,,,,,,,,,,,,,,,,,,,,,,,,,,,,,,,,,,,,,,,,,,,,,,,,,,,,,,,
,,,,,,,,,,610cda1332fb63830158c55d,24,Mężczyzna,2022-06-04_08h40.35.418,task,2021.1.4,Win32,50.1655463,628b806c463b948bc644b84f,629af6f7eead0a75b87fad66,,,,,,,,,,,qjgcsn,"[""q"",""j"",""g"",""c"",""s"",""n""]","[0.41950000000002774,0.5634000000953847,1.310900000095387,1.539100000143094,1.6732999999523486,1.858000000000004,2.4934000000953915]",1,QJGCSN,9,0,9,0,1,,,,,,,,,,,,,,,,,,,,,,,,,,,,,,,,,,,,,,,,,,,,,,,,,,,,,,,,,,,,,,,,,,,,,,,,,,,,,,,,,,,
,,,,,,,,,,610cda1332fb63830158c55d,24,Mężczyzna,2022-06-04_08h40.35.418,task,2021.1.4,Win32,50.1655463,628b806c463b948bc644b84f,629af6f7eead0a75b87fad66,,,,,0,0,0,0,1,X V Q F H G B L J M P D K C T S W R N Z,,,,,,,,,,,,,,,,,,,,,,,,,,,,,,,,,,,,,,,,,,,,,,,,,,,,,,,,,,,,,,,,,,,,,,,,,,,,,,,,,,,,,,,,,,,,,
,,,,,,,,,,610cda1332fb63830158c55d,24,Mężczyzna,2022-06-04_08h40.35.418,task,2021.1.4,Win32,50.1655463,628b806c463b948bc644b84f,629af6f7eead0a75b87fad66,,,,,1,0,1,0,1,X V Q F H G B L J M P D K C T S W R N Z,,,,,,,,,,,,,,,,,,,,,,,,,,,,,,,,,,,,,,,,,,,,,,,,,,,,,,,,,,,,,,,,,,,,,,,,,,,,,,,,,,,,,,,,,,,,,
,,,,,,,,,,610cda1332fb63830158c55d,24,Mężczyzna,2022-06-04_08h40.35.418,task,2021.1.4,Win32,50.1655463,628b806c463b948bc644b84f,629af6f7eead0a75b87fad66,,,,,2,0,2,0,1,X V Q F H G B L J M P D K C T S W R N Z,,,,,,,,,,,,,,,,,,,,,,,,,,,,,,,,,,,,,,,,,,,,,,,,,,,,,,,,,,,,,,,,,,,,,,,,,,,,,,,,,,,,,,,,,,,,,
,,,,,,,,,,610cda1332fb63830158c55d,24,Mężczyzna,2022-06-04_08h40.35.418,task,2021.1.4,Win32,50.1655463,628b806c463b948bc644b84f,629af6f7eead0a75b87fad66,,,,,3,0,3,0,1,X V Q F H G B L J M P D K C T S W R N Z,,,,,,,,,,,,,,,,,,,,,,,,,,,,,,,,,,,,,,,,,,,,,,,,,,,,,,,,,,,,,,,,,,,,,,,,,,,,,,,,,,,,,,,,,,,,,
,,,,,,,,,,610cda1332fb63830158c55d,24,Mężczyzna,2022-06-04_08h40.35.418,task,2021.1.4,Win32,50.1655463,628b806c463b948bc644b84f,629af6f7eead0a75b87fad66,,,,,4,0,4,0,1,X V Q F H G B L J M P D K C T S W R N Z,,,,,,,,,,,,,,,,,,,,,,,,,,,,,,,,,,,,,,,,,,,,,,,,,,,,,,,,,,,,,,,,,,,,,,,,,,,,,,,,,,,,,,,,,,,,,
,,,,,,,,,,610cda1332fb63830158c55d,24,Mężczyzna,2022-06-04_08h40.35.418,task,2021.1.4,Win32,50.1655463,628b806c463b948bc644b84f,629af6f7eead0a75b87fad66,,,,,5,0,5,0,1,X V Q F H G B L J M P D K C T S W R N Z,,,,,,,,,,,,,,,,,,,,,,,,,,,,,,,,,,,,,,,,,,,,,,,,,,,,,,,,,,,,,,,,,,,,,,,,,,,,,,,,,,,,,,,,,,,,,
,,,,,,,,,,610cda1332fb63830158c55d,24,Mężczyzna,2022-06-04_08h40.35.418,task,2021.1.4,Win32,50.1655463,628b806c463b948bc644b84f,629af6f7eead0a75b87fad66,,,,,6,0,6,0,1,X V Q F H G B L J M P D K C T S W R N Z,,,,,,,,,,,,,,,,,,,,,,,,,,,,,,,,,,,,,,,,,,,,,,,,,,,,,,,,,,,,,,,,,,,,,,,,,,,,,,,,,,,,,,,,,,,,,
,,,,,,,,,,610cda1332fb63830158c55d,24,Mężczyzna,2022-06-04_08h40.35.418,task,2021.1.4,Win32,50.1655463,628b806c463b948bc644b84f,629af6f7eead0a75b87fad66,,,,,,,,,,,klwpwcp,"[""k"",""l"",""w"",""p"",""w"",""c"",""p""]","[0.47259999990461665,0.6068999998569211,0.9050999999046212,1.1531999998092601,1.7392999999523227,2.5188999998569557,3.3645999999046126,3.5625999999046485]",1,KLWPWCP,10,0,10,0,1,,,,,,,,,,,,,,,,,,,,,,,,,,,,,,,,,,,,,,,,,,,,,,,,,,,,,,,,,,,,,,,,,,,,,,,,,,,,,,,,,,,
,,,,,,,,,,610cda1332fb63830158c55d,24,Mężczyzna,2022-06-04_08h40.35.418,task,2021.1.4,Win32,50.1655463,628b806c463b948bc644b84f,629af6f7eead0a75b87fad66,,,,,0,0,0,0,1,X V Q F H G B L J M P D K C T S W R N Z,,,,,,,,,,,,,,,,,,,,,,,,,,,,,,,,,,,,,,,,,,,,,,,,,,,,,,,,,,,,,,,,,,,,,,,,,,,,,,,,,,,,,,,,,,,,,
,,,,,,,,,,610cda1332fb63830158c55d,24,Mężczyzna,2022-06-04_08h40.35.418,task,2021.1.4,Win32,50.1655463,628b806c463b948bc644b84f,629af6f7eead0a75b87fad66,,,,,1,0,1,0,1,X V Q F H G B L J M P D K C T S W R N Z,,,,,,,,,,,,,,,,,,,,,,,,,,,,,,,,,,,,,,,,,,,,,,,,,,,,,,,,,,,,,,,,,,,,,,,,,,,,,,,,,,,,,,,,,,,,,
,,,,,,,,,,610cda1332fb63830158c55d,24,Mężczyzna,2022-06-04_08h40.35.418,task,2021.1.4,Win32,50.1655463,628b806c463b948bc644b84f,629af6f7eead0a75b87fad66,,,,,2,0,2,0,1,X V Q F H G B L J M P D K C T S W R N Z,,,,,,,,,,,,,,,,,,,,,,,,,,,,,,,,,,,,,,,,,,,,,,,,,,,,,,,,,,,,,,,,,,,,,,,,,,,,,,,,,,,,,,,,,,,,,
,,,,,,,,,,610cda1332fb63830158c55d,24,Mężczyzna,2022-06-04_08h40.35.418,task,2021.1.4,Win32,50.1655463,628b806c463b948bc644b84f,629af6f7eead0a75b87fad66,,,,,3,0,3,0,1,X V Q F H G B L J M P D K C T S W R N Z,,,,,,,,,,,,,,,,,,,,,,,,,,,,,,,,,,,,,,,,,,,,,,,,,,,,,,,,,,,,,,,,,,,,,,,,,,,,,,,,,,,,,,,,,,,,,
,,,,,,,,,,610cda1332fb63830158c55d,24,Mężczyzna,2022-06-04_08h40.35.418,task,2021.1.4,Win32,50.1655463,628b806c463b948bc644b84f,629af6f7eead0a75b87fad66,,,,,4,0,4,0,1,X V Q F H G B L J M P D K C T S W R N Z,,,,,,,,,,,,,,,,,,,,,,,,,,,,,,,,,,,,,,,,,,,,,,,,,,,,,,,,,,,,,,,,,,,,,,,,,,,,,,,,,,,,,,,,,,,,,
,,,,,,,,,,610cda1332fb63830158c55d,24,Mężczyzna,2022-06-04_08h40.35.418,task,2021.1.4,Win32,50.1655463,628b806c463b948bc644b84f,629af6f7eead0a75b87fad66,,,,,5,0,5,0,1,X V Q F H G B L J M P D K C T S W R N Z,,,,,,,,,,,,,,,,,,,,,,,,,,,,,,,,,,,,,,,,,,,,,,,,,,,,,,,,,,,,,,,,,,,,,,,,,,,,,,,,,,,,,,,,,,,,,
,,,,,,,,,,610cda1332fb63830158c55d,24,Mężczyzna,2022-06-04_08h40.35.418,task,2021.1.4,Win32,50.1655463,628b806c463b948bc644b84f,629af6f7eead0a75b87fad66,,,,,6,0,6,0,1,X V Q F H G B L J M P D K C T S W R N Z,,,,,,,,,,,,,,,,,,,,,,,,,,,,,,,,,,,,,,,,,,,,,,,,,,,,,,,,,,,,,,,,,,,,,,,,,,,,,,,,,,,,,,,,,,,,,
,,,,,,,,,,610cda1332fb63830158c55d,24,Mężczyzna,2022-06-04_08h40.35.418,task,2021.1.4,Win32,50.1655463,628b806c463b948bc644b84f,629af6f7eead0a75b87fad66,,,,,,,,,,,brlfxtc,"[""b"",""r"",""l"",""f"",""x"",""t"",""c""]","[0.5882000000476637,0.9846000001430184,1.2179000000953693,1.4512000000476633,1.7994000000953747,2.2211000001430534,2.362100000143016,2.5577999999522945]",0,BRLFXGT,11,0,11,0,1,,,,,,,,,,,,,,,,,,,,,,,,,,,,,,,,,,,,,,,,,,,,,,,,,,,,,,,,,,,,,,,,,,,,,,,,,,,,,,,,,,,
,,,,,,,,,,610cda1332fb63830158c55d,24,Mężczyzna,2022-06-04_08h40.35.418,task,2021.1.4,Win32,50.1655463,628b806c463b948bc644b84f,629af6f7eead0a75b87fad66,,,,,0,0,0,0,1,X V Q F H G B L J M P D K C T S W R N Z,,,,,,,,,,,,,,,,,,,,,,,,,,,,,,,,,,,,,,,,,,,,,,,,,,,,,,,,,,,,,,,,,,,,,,,,,,,,,,,,,,,,,,,,,,,,,
,,,,,,,,,,610cda1332fb63830158c55d,24,Mężczyzna,2022-06-04_08h40.35.418,task,2021.1.4,Win32,50.1655463,628b806c463b948bc644b84f,629af6f7eead0a75b87fad66,,,,,1,0,1,0,1,X V Q F H G B L J M P D K C T S W R N Z,,,,,,,,,,,,,,,,,,,,,,,,,,,,,,,,,,,,,,,,,,,,,,,,,,,,,,,,,,,,,,,,,,,,,,,,,,,,,,,,,,,,,,,,,,,,,
,,,,,,,,,,610cda1332fb63830158c55d,24,Mężczyzna,2022-06-04_08h40.35.418,task,2021.1.4,Win32,50.1655463,628b806c463b948bc644b84f,629af6f7eead0a75b87fad66,,,,,2,0,2,0,1,X V Q F H G B L J M P D K C T S W R N Z,,,,,,,,,,,,,,,,,,,,,,,,,,,,,,,,,,,,,,,,,,,,,,,,,,,,,,,,,,,,,,,,,,,,,,,,,,,,,,,,,,,,,,,,,,,,,
,,,,,,,,,,610cda1332fb63830158c55d,24,Mężczyzna,2022-06-04_08h40.35.418,task,2021.1.4,Win32,50.1655463,628b806c463b948bc644b84f,629af6f7eead0a75b87fad66,,,,,3,0,3,0,1,X V Q F H G B L J M P D K C T S W R N Z,,,,,,,,,,,,,,,,,,,,,,,,,,,,,,,,,,,,,,,,,,,,,,,,,,,,,,,,,,,,,,,,,,,,,,,,,,,,,,,,,,,,,,,,,,,,,
,,,,,,,,,,610cda1332fb63830158c55d,24,Mężczyzna,2022-06-04_08h40.35.418,task,2021.1.4,Win32,50.1655463,628b806c463b948bc644b84f,629af6f7eead0a75b87fad66,,,,,4,0,4,0,1,X V Q F H G B L J M P D K C T S W R N Z,,,,,,,,,,,,,,,,,,,,,,,,,,,,,,,,,,,,,,,,,,,,,,,,,,,,,,,,,,,,,,,,,,,,,,,,,,,,,,,,,,,,,,,,,,,,,
,,,,,,,,,,610cda1332fb63830158c55d,24,Mężczyzna,2022-06-04_08h40.35.418,task,2021.1.4,Win32,50.1655463,628b806c463b948bc644b84f,629af6f7eead0a75b87fad66,,,,,5,0,5,0,1,X V Q F H G B L J M P D K C T S W R N Z,,,,,,,,,,,,,,,,,,,,,,,,,,,,,,,,,,,,,,,,,,,,,,,,,,,,,,,,,,,,,,,,,,,,,,,,,,,,,,,,,,,,,,,,,,,,,
,,,,,,,,,,610cda1332fb63830158c55d,24,Mężczyzna,2022-06-04_08h40.35.418,task,2021.1.4,Win32,50.1655463,628b806c463b948bc644b84f,629af6f7eead0a75b87fad66,,,,,6,0,6,0,1,X V Q F H G B L J M P D K C T S W R N Z,,,,,,,,,,,,,,,,,,,,,,,,,,,,,,,,,,,,,,,,,,,,,,,,,,,,,,,,,,,,,,,,,,,,,,,,,,,,,,,,,,,,,,,,,,,,,
,,,,,,,,,,610cda1332fb63830158c55d,24,Mężczyzna,2022-06-04_08h40.35.418,task,2021.1.4,Win32,50.1655463,628b806c463b948bc644b84f,629af6f7eead0a75b87fad66,,,,,,,,,,,lrrslrx,"[""l"",""r"",""r"",""s"",""l"",""r"",""x""]","[0.4300999999046553,0.8250999999046371,1.1990000000000123,1.539000000000044,1.8655999999046458,2.677799999952356,3.088899999856949,3.2583999998569766]",0,LRRSLXS,12,0,12,0,1,,,,,,,,,,,,,,,,,,,,,,,,,,,,,,,,,,,,,,,,,,,,,,,,,,,,,,,,,,,,,,,,,,,,,,,,,,,,,,,,,,,
,,,,,,,,,,610cda1332fb63830158c55d,24,Mężczyzna,2022-06-04_08h40.35.418,task,2021.1.4,Win32,50.1655463,628b806c463b948bc644b84f,629af6f7eead0a75b87fad66,,,,,0,0,0,0,1,X V Q F H G B L J M P D K C T S W R N Z,,,,,,,,,,,,,,,,,,,,,,,,,,,,,,,,,,,,,,,,,,,,,,,,,,,,,,,,,,,,,,,,,,,,,,,,,,,,,,,,,,,,,,,,,,,,,
,,,,,,,,,,610cda1332fb63830158c55d,24,Mężczyzna,2022-06-04_08h40.35.418,task,2021.1.4,Win32,50.1655463,628b806c463b948bc644b84f,629af6f7eead0a75b87fad66,,,,,1,0,1,0,1,X V Q F H G B L J M P D K C T S W R N Z,,,,,,,,,,,,,,,,,,,,,,,,,,,,,,,,,,,,,,,,,,,,,,,,,,,,,,,,,,,,,,,,,,,,,,,,,,,,,,,,,,,,,,,,,,,,,
,,,,,,,,,,610cda1332fb63830158c55d,24,Mężczyzna,2022-06-04_08h40.35.418,task,2021.1.4,Win32,50.1655463,628b806c463b948bc644b84f,629af6f7eead0a75b87fad66,,,,,2,0,2,0,1,X V Q F H G B L J M P D K C T S W R N Z,,,,,,,,,,,,,,,,,,,,,,,,,,,,,,,,,,,,,,,,,,,,,,,,,,,,,,,,,,,,,,,,,,,,,,,,,,,,,,,,,,,,,,,,,,,,,
,,,,,,,,,,610cda1332fb63830158c55d,24,Mężczyzna,2022-06-04_08h40.35.418,task,2021.1.4,Win32,50.1655463,628b806c463b948bc644b84f,629af6f7eead0a75b87fad66,,,,,3,0,3,0,1,X V Q F H G B L J M P D K C T S W R N Z,,,,,,,,,,,,,,,,,,,,,,,,,,,,,,,,,,,,,,,,,,,,,,,,,,,,,,,,,,,,,,,,,,,,,,,,,,,,,,,,,,,,,,,,,,,,,
,,,,,,,,,,610cda1332fb63830158c55d,24,Mężczyzna,2022-06-04_08h40.35.418,task,2021.1.4,Win32,50.1655463,628b806c463b948bc644b84f,629af6f7eead0a75b87fad66,,,,,4,0,4,0,1,X V Q F H G B L J M P D K C T S W R N Z,,,,,,,,,,,,,,,,,,,,,,,,,,,,,,,,,,,,,,,,,,,,,,,,,,,,,,,,,,,,,,,,,,,,,,,,,,,,,,,,,,,,,,,,,,,,,
,,,,,,,,,,610cda1332fb63830158c55d,24,Mężczyzna,2022-06-04_08h40.35.418,task,2021.1.4,Win32,50.1655463,628b806c463b948bc644b84f,629af6f7eead0a75b87fad66,,,,,5,0,5,0,1,X V Q F H G B L J M P D K C T S W R N Z,,,,,,,,,,,,,,,,,,,,,,,,,,,,,,,,,,,,,,,,,,,,,,,,,,,,,,,,,,,,,,,,,,,,,,,,,,,,,,,,,,,,,,,,,,,,,
,,,,,,,,,,610cda1332fb63830158c55d,24,Mężczyzna,2022-06-04_08h40.35.418,task,2021.1.4,Win32,50.1655463,628b806c463b948bc644b84f,629af6f7eead0a75b87fad66,,,,,6,0,6,0,1,X V Q F H G B L J M P D K C T S W R N Z,,,,,,,,,,,,,,,,,,,,,,,,,,,,,,,,,,,,,,,,,,,,,,,,,,,,,,,,,,,,,,,,,,,,,,,,,,,,,,,,,,,,,,,,,,,,,
,,,,,,,,,,610cda1332fb63830158c55d,24,Mężczyzna,2022-06-04_08h40.35.418,task,2021.1.4,Win32,50.1655463,628b806c463b948bc644b84f,629af6f7eead0a75b87fad66,,,,,,,,,,,nnxrkcl,"[""n"",""n"",""x"",""r"",""k"",""c"",""l""]","[4.604700000047671,4.762399999856939,4.902399999856925,5.220299999952317,6.197899999856929,6.8112999999522685,6.877399999856948,7.1054999999999495]",1,NNXRKCL,13,0,13,0,1,,,,,,,,,,,,,,,,,,,,,,,,,,,,,,,,,,,,,,,,,,,,,,,,,,,,,,,,,,,,,,,,,,,,,,,,,,,,,,,,,,,
,,,,,,,,,,610cda1332fb63830158c55d,24,Mężczyzna,2022-06-04_08h40.35.418,task,2021.1.4,Win32,50.1655463,628b806c463b948bc644b84f,629af6f7eead0a75b87fad66,,,,,0,0,0,0,1,X V Q F H G B L J M P D K C T S W R N Z,,,,,,,,,,,,,,,,,,,,,,,,,,,,,,,,,,,,,,,,,,,,,,,,,,,,,,,,,,,,,,,,,,,,,,,,,,,,,,,,,,,,,,,,,,,,,
,,,,,,,,,,610cda1332fb63830158c55d,24,Mężczyzna,2022-06-04_08h40.35.418,task,2021.1.4,Win32,50.1655463,628b806c463b948bc644b84f,629af6f7eead0a75b87fad66,,,,,1,0,1,0,1,X V Q F H G B L J M P D K C T S W R N Z,,,,,,,,,,,,,,,,,,,,,,,,,,,,,,,,,,,,,,,,,,,,,,,,,,,,,,,,,,,,,,,,,,,,,,,,,,,,,,,,,,,,,,,,,,,,,
,,,,,,,,,,610cda1332fb63830158c55d,24,Mężczyzna,2022-06-04_08h40.35.418,task,2021.1.4,Win32,50.1655463,628b806c463b948bc644b84f,629af6f7eead0a75b87fad66,,,,,2,0,2,0,1,X V Q F H G B L J M P D K C T S W R N Z,,,,,,,,,,,,,,,,,,,,,,,,,,,,,,,,,,,,,,,,,,,,,,,,,,,,,,,,,,,,,,,,,,,,,,,,,,,,,,,,,,,,,,,,,,,,,
,,,,,,,,,,610cda1332fb63830158c55d,24,Mężczyzna,2022-06-04_08h40.35.418,task,2021.1.4,Win32,50.1655463,628b806c463b948bc644b84f,629af6f7eead0a75b87fad66,,,,,3,0,3,0,1,X V Q F H G B L J M P D K C T S W R N Z,,,,,,,,,,,,,,,,,,,,,,,,,,,,,,,,,,,,,,,,,,,,,,,,,,,,,,,,,,,,,,,,,,,,,,,,,,,,,,,,,,,,,,,,,,,,,
,,,,,,,,,,610cda1332fb63830158c55d,24,Mężczyzna,2022-06-04_08h40.35.418,task,2021.1.4,Win32,50.1655463,628b806c463b948bc644b84f,629af6f7eead0a75b87fad66,,,,,4,0,4,0,1,X V Q F H G B L J M P D K C T S W R N Z,,,,,,,,,,,,,,,,,,,,,,,,,,,,,,,,,,,,,,,,,,,,,,,,,,,,,,,,,,,,,,,,,,,,,,,,,,,,,,,,,,,,,,,,,,,,,
,,,,,,,,,,610cda1332fb63830158c55d,24,Mężczyzna,2022-06-04_08h40.35.418,task,2021.1.4,Win32,50.1655463,628b806c463b948bc644b84f,629af6f7eead0a75b87fad66,,,,,5,0,5,0,1,X V Q F H G B L J M P D K C T S W R N Z,,,,,,,,,,,,,,,,,,,,,,,,,,,,,,,,,,,,,,,,,,,,,,,,,,,,,,,,,,,,,,,,,,,,,,,,,,,,,,,,,,,,,,,,,,,,,
,,,,,,,,,,610cda1332fb63830158c55d,24,Mężczyzna,2022-06-04_08h40.35.418,task,2021.1.4,Win32,50.1655463,628b806c463b948bc644b84f,629af6f7eead0a75b87fad66,,,,,6,0,6,0,1,X V Q F H G B L J M P D K C T S W R N Z,,,,,,,,,,,,,,,,,,,,,,,,,,,,,,,,,,,,,,,,,,,,,,,,,,,,,,,,,,,,,,,,,,,,,,,,,,,,,,,,,,,,,,,,,,,,,
,,,,,,,,,,610cda1332fb63830158c55d,24,Mężczyzna,2022-06-04_08h40.35.418,task,2021.1.4,Win32,50.1655463,628b806c463b948bc644b84f,629af6f7eead0a75b87fad66,,,,,7,0,7,0,1,X V Q F H G B L J M P D K C T S W R N Z,,,,,,,,,,,,,,,,,,,,,,,,,,,,,,,,,,,,,,,,,,,,,,,,,,,,,,,,,,,,,,,,,,,,,,,,,,,,,,,,,,,,,,,,,,,,,
,,,,,,,,,,610cda1332fb63830158c55d,24,Mężczyzna,2022-06-04_08h40.35.418,task,2021.1.4,Win32,50.1655463,628b806c463b948bc644b84f,629af6f7eead0a75b87fad66,,,,,,,,,,,gcmbfmw,"[""g"",""c"",""m"",""b"",""f"",""m"",""w""]","[0.4413999998569693,0.646000000000015,0.8602999999523036,1.224700000047676,1.5098999998569411,1.907299999952329,2.5418999998569802,9.466099999904657]",0,GCMBFKHB,14,0,14,0,1,,,,,,,,,,,,,,,,,,,,,,,,,,,,,,,,,,,,,,,,,,,,,,,,,,,,,,,,,,,,,,,,,,,,,,,,,,,,,,,,,,,
,,,,,,,,,,610cda1332fb63830158c55d,24,Mężczyzna,2022-06-04_08h40.35.418,task,2021.1.4,Win32,50.1655463,628b806c463b948bc644b84f,629af6f7eead0a75b87fad66,,,,,0,0,0,0,1,X V Q F H G B L J M P D K C T S W R N Z,,,,,,,,,,,,,,,,,,,,,,,,,,,,,,,,,,,,,,,,,,,,,,,,,,,,,,,,,,,,,,,,,,,,,,,,,,,,,,,,,,,,,,,,,,,,,
,,,,,,,,,,610cda1332fb63830158c55d,24,Mężczyzna,2022-06-04_08h40.35.418,task,2021.1.4,Win32,50.1655463,628b806c463b948bc644b84f,629af6f7eead0a75b87fad66,,,,,1,0,1,0,1,X V Q F H G B L J M P D K C T S W R N Z,,,,,,,,,,,,,,,,,,,,,,,,,,,,,,,,,,,,,,,,,,,,,,,,,,,,,,,,,,,,,,,,,,,,,,,,,,,,,,,,,,,,,,,,,,,,,
,,,,,,,,,,610cda1332fb63830158c55d,24,Mężczyzna,2022-06-04_08h40.35.418,task,2021.1.4,Win32,50.1655463,628b806c463b948bc644b84f,629af6f7eead0a75b87fad66,,,,,2,0,2,0,1,X V Q F H G B L J M P D K C T S W R N Z,,,,,,,,,,,,,,,,,,,,,,,,,,,,,,,,,,,,,,,,,,,,,,,,,,,,,,,,,,,,,,,,,,,,,,,,,,,,,,,,,,,,,,,,,,,,,
,,,,,,,,,,610cda1332fb63830158c55d,24,Mężczyzna,2022-06-04_08h40.35.418,task,2021.1.4,Win32,50.1655463,628b806c463b948bc644b84f,629af6f7eead0a75b87fad66,,,,,3,0,3,0,1,X V Q F H G B L J M P D K C T S W R N Z,,,,,,,,,,,,,,,,,,,,,,,,,,,,,,,,,,,,,,,,,,,,,,,,,,,,,,,,,,,,,,,,,,,,,,,,,,,,,,,,,,,,,,,,,,,,,
,,,,,,,,,,610cda1332fb63830158c55d,24,Mężczyzna,2022-06-04_08h40.35.418,task,2021.1.4,Win32,50.1655463,628b806c463b948bc644b84f,629af6f7eead0a75b87fad66,,,,,4,0,4,0,1,X V Q F H G B L J M P D K C T S W R N Z,,,,,,,,,,,,,,,,,,,,,,,,,,,,,,,,,,,,,,,,,,,,,,,,,,,,,,,,,,,,,,,,,,,,,,,,,,,,,,,,,,,,,,,,,,,,,
,,,,,,,,,,610cda1332fb63830158c55d,24,Mężczyzna,2022-06-04_08h40.35.418,task,2021.1.4,Win32,50.1655463,628b806c463b948bc644b84f,629af6f7eead0a75b87fad66,,,,,5,0,5,0,1,X V Q F H G B L J M P D K C T S W R N Z,,,,,,,,,,,,,,,,,,,,,,,,,,,,,,,,,,,,,,,,,,,,,,,,,,,,,,,,,,,,,,,,,,,,,,,,,,,,,,,,,,,,,,,,,,,,,
,,,,,,,,,,610cda1332fb63830158c55d,24,Mężczyzna,2022-06-04_08h40.35.418,task,2021.1.4,Win32,50.1655463,628b806c463b948bc644b84f,629af6f7eead0a75b87fad66,,,,,6,0,6,0,1,X V Q F H G B L J M P D K C T S W R N Z,,,,,,,,,,,,,,,,,,,,,,,,,,,,,,,,,,,,,,,,,,,,,,,,,,,,,,,,,,,,,,,,,,,,,,,,,,,,,,,,,,,,,,,,,,,,,
,,,,,,,,,,610cda1332fb63830158c55d,24,Mężczyzna,2022-06-04_08h40.35.418,task,2021.1.4,Win32,50.1655463,628b806c463b948bc644b84f,629af6f7eead0a75b87fad66,,,,,7,0,7,0,1,X V Q F H G B L J M P D K C T S W R N Z,,,,,,,,,,,,,,,,,,,,,,,,,,,,,,,,,,,,,,,,,,,,,,,,,,,,,,,,,,,,,,,,,,,,,,,,,,,,,,,,,,,,,,,,,,,,,
,,,,,,,,,,610cda1332fb63830158c55d,24,Mężczyzna,2022-06-04_08h40.35.418,task,2021.1.4,Win32,50.1655463,628b806c463b948bc644b84f,629af6f7eead0a75b87fad66,,,,,,,,,,,zkgknkrf,"[""z"",""k"",""g"",""k"",""n"",""k"",""r"",""f""]","[1.7319000000953793,2.9379000000953965,4.273400000095364,5.827500000000043,6.351500000000044,8.30400000000003,8.771600000143053,8.93730000019076,9.240700000047696]",1,ZKGKNKRF,15,0,15,0,1,,,,,,,,,,,,,,,,,,,,,,,,,,,,,,,,,,,,,,,,,,,,,,,,,,,,,,,,,,,,,,,,,,,,,,,,,,,,,,,,,,,
,,,,,,,,,,610cda1332fb63830158c55d,24,Mężczyzna,2022-06-04_08h40.35.418,task,2021.1.4,Win32,50.1655463,628b806c463b948bc644b84f,629af6f7eead0a75b87fad66,,,,,0,0,0,0,1,X V Q F H G B L J M P D K C T S W R N Z,,,,,,,,,,,,,,,,,,,,,,,,,,,,,,,,,,,,,,,,,,,,,,,,,,,,,,,,,,,,,,,,,,,,,,,,,,,,,,,,,,,,,,,,,,,,,
,,,,,,,,,,610cda1332fb63830158c55d,24,Mężczyzna,2022-06-04_08h40.35.418,task,2021.1.4,Win32,50.1655463,628b806c463b948bc644b84f,629af6f7eead0a75b87fad66,,,,,1,0,1,0,1,X V Q F H G B L J M P D K C T S W R N Z,,,,,,,,,,,,,,,,,,,,,,,,,,,,,,,,,,,,,,,,,,,,,,,,,,,,,,,,,,,,,,,,,,,,,,,,,,,,,,,,,,,,,,,,,,,,,
,,,,,,,,,,610cda1332fb63830158c55d,24,Mężczyzna,2022-06-04_08h40.35.418,task,2021.1.4,Win32,50.1655463,628b806c463b948bc644b84f,629af6f7eead0a75b87fad66,,,,,2,0,2,0,1,X V Q F H G B L J M P D K C T S W R N Z,,,,,,,,,,,,,,,,,,,,,,,,,,,,,,,,,,,,,,,,,,,,,,,,,,,,,,,,,,,,,,,,,,,,,,,,,,,,,,,,,,,,,,,,,,,,,
,,,,,,,,,,610cda1332fb63830158c55d,24,Mężczyzna,2022-06-04_08h40.35.418,task,2021.1.4,Win32,50.1655463,628b806c463b948bc644b84f,629af6f7eead0a75b87fad66,,,,,3,0,3,0,1,X V Q F H G B L J M P D K C T S W R N Z,,,,,,,,,,,,,,,,,,,,,,,,,,,,,,,,,,,,,,,,,,,,,,,,,,,,,,,,,,,,,,,,,,,,,,,,,,,,,,,,,,,,,,,,,,,,,
,,,,,,,,,,610cda1332fb63830158c55d,24,Mężczyzna,2022-06-04_08h40.35.418,task,2021.1.4,Win32,50.1655463,628b806c463b948bc644b84f,629af6f7eead0a75b87fad66,,,,,4,0,4,0,1,X V Q F H G B L J M P D K C T S W R N Z,,,,,,,,,,,,,,,,,,,,,,,,,,,,,,,,,,,,,,,,,,,,,,,,,,,,,,,,,,,,,,,,,,,,,,,,,,,,,,,,,,,,,,,,,,,,,
,,,,,,,,,,610cda1332fb63830158c55d,24,Mężczyzna,2022-06-04_08h40.35.418,task,2021.1.4,Win32,50.1655463,628b806c463b948bc644b84f,629af6f7eead0a75b87fad66,,,,,5,0,5,0,1,X V Q F H G B L J M P D K C T S W R N Z,,,,,,,,,,,,,,,,,,,,,,,,,,,,,,,,,,,,,,,,,,,,,,,,,,,,,,,,,,,,,,,,,,,,,,,,,,,,,,,,,,,,,,,,,,,,,
,,,,,,,,,,610cda1332fb63830158c55d,24,Mężczyzna,2022-06-04_08h40.35.418,task,2021.1.4,Win32,50.1655463,628b806c463b948bc644b84f,629af6f7eead0a75b87fad66,,,,,6,0,6,0,1,X V Q F H G B L J M P D K C T S W R N Z,,,,,,,,,,,,,,,,,,,,,,,,,,,,,,,,,,,,,,,,,,,,,,,,,,,,,,,,,,,,,,,,,,,,,,,,,,,,,,,,,,,,,,,,,,,,,
,,,,,,,,,,610cda1332fb63830158c55d,24,Mężczyzna,2022-06-04_08h40.35.418,task,2021.1.4,Win32,50.1655463,628b806c463b948bc644b84f,629af6f7eead0a75b87fad66,,,,,7,0,7,0,1,X V Q F H G B L J M P D K C T S W R N Z,,,,,,,,,,,,,,,,,,,,,,,,,,,,,,,,,,,,,,,,,,,,,,,,,,,,,,,,,,,,,,,,,,,,,,,,,,,,,,,,,,,,,,,,,,,,,
,,,,,,,,,,610cda1332fb63830158c55d,24,Mężczyzna,2022-06-04_08h40.35.418,task,2021.1.4,Win32,50.1655463,628b806c463b948bc644b84f,629af6f7eead0a75b87fad66,,,,,,,,,,,gbsmkmzs,"[""g"",""b"",""s"",""m"",""k"",""m"",""z"",""s""]","[3.22219999980922,3.5186999998092574,4.4852999999523036,5.043000000000006,6.318199999809224,6.649999999999977,7.268199999809269,7.347499999999968,7.677199999809261]",1,GBSMKMZS,16,0,16,0,1,,,,,,,,,,,,,,,,,,,,,,,,,,,,,,,,,,,,,,,,,,,,,,,,,,,,,,,,,,,,,,,,,,,,,,,,,,,,,,,,,,,
,,,,,,,,,,610cda1332fb63830158c55d,24,Mężczyzna,2022-06-04_08h40.35.418,task,2021.1.4,Win32,50.1655463,628b806c463b948bc644b84f,629af6f7eead0a75b87fad66,,,,,0,0,0,0,1,X V Q F H G B L J M P D K C T S W R N Z,,,,,,,,,,,,,,,,,,,,,,,,,,,,,,,,,,,,,,,,,,,,,,,,,,,,,,,,,,,,,,,,,,,,,,,,,,,,,,,,,,,,,,,,,,,,,
,,,,,,,,,,610cda1332fb63830158c55d,24,Mężczyzna,2022-06-04_08h40.35.418,task,2021.1.4,Win32,50.1655463,628b806c463b948bc644b84f,629af6f7eead0a75b87fad66,,,,,1,0,1,0,1,X V Q F H G B L J M P D K C T S W R N Z,,,,,,,,,,,,,,,,,,,,,,,,,,,,,,,,,,,,,,,,,,,,,,,,,,,,,,,,,,,,,,,,,,,,,,,,,,,,,,,,,,,,,,,,,,,,,
,,,,,,,,,,610cda1332fb63830158c55d,24,Mężczyzna,2022-06-04_08h40.35.418,task,2021.1.4,Win32,50.1655463,628b806c463b948bc644b84f,629af6f7eead0a75b87fad66,,,,,2,0,2,0,1,X V Q F H G B L J M P D K C T S W R N Z,,,,,,,,,,,,,,,,,,,,,,,,,,,,,,,,,,,,,,,,,,,,,,,,,,,,,,,,,,,,,,,,,,,,,,,,,,,,,,,,,,,,,,,,,,,,,
,,,,,,,,,,610cda1332fb63830158c55d,24,Mężczyzna,2022-06-04_08h40.35.418,task,2021.1.4,Win32,50.1655463,628b806c463b948bc644b84f,629af6f7eead0a75b87fad66,,,,,3,0,3,0,1,X V Q F H G B L J M P D K C T S W R N Z,,,,,,,,,,,,,,,,,,,,,,,,,,,,,,,,,,,,,,,,,,,,,,,,,,,,,,,,,,,,,,,,,,,,,,,,,,,,,,,,,,,,,,,,,,,,,
,,,,,,,,,,610cda1332fb63830158c55d,24,Mężczyzna,2022-06-04_08h40.35.418,task,2021.1.4,Win32,50.1655463,628b806c463b948bc644b84f,629af6f7eead0a75b87fad66,,,,,4,0,4,0,1,X V Q F H G B L J M P D K C T S W R N Z,,,,,,,,,,,,,,,,,,,,,,,,,,,,,,,,,,,,,,,,,,,,,,,,,,,,,,,,,,,,,,,,,,,,,,,,,,,,,,,,,,,,,,,,,,,,,
,,,,,,,,,,610cda1332fb63830158c55d,24,Mężczyzna,2022-06-04_08h40.35.418,task,2021.1.4,Win32,50.1655463,628b806c463b948bc644b84f,629af6f7eead0a75b87fad66,,,,,5,0,5,0,1,X V Q F H G B L J M P D K C T S W R N Z,,,,,,,,,,,,,,,,,,,,,,,,,,,,,,,,,,,,,,,,,,,,,,,,,,,,,,,,,,,,,,,,,,,,,,,,,,,,,,,,,,,,,,,,,,,,,
,,,,,,,,,,610cda1332fb63830158c55d,24,Mężczyzna,2022-06-04_08h40.35.418,task,2021.1.4,Win32,50.1655463,628b806c463b948bc644b84f,629af6f7eead0a75b87fad66,,,,,6,0,6,0,1,X V Q F H G B L J M P D K C T S W R N Z,,,,,,,,,,,,,,,,,,,,,,,,,,,,,,,,,,,,,,,,,,,,,,,,,,,,,,,,,,,,,,,,,,,,,,,,,,,,,,,,,,,,,,,,,,,,,
,,,,,,,,,,610cda1332fb63830158c55d,24,Mężczyzna,2022-06-04_08h40.35.418,task,2021.1.4,Win32,50.1655463,628b806c463b948bc644b84f,629af6f7eead0a75b87fad66,,,,,7,0,7,0,1,X V Q F H G B L J M P D K C T S W R N Z,,,,,,,,,,,,,,,,,,,,,,,,,,,,,,,,,,,,,,,,,,,,,,,,,,,,,,,,,,,,,,,,,,,,,,,,,,,,,,,,,,,,,,,,,,,,,
,,,,,,,,,,610cda1332fb63830158c55d,24,Mężczyzna,2022-06-04_08h40.35.418,task,2021.1.4,Win32,50.1655463,628b806c463b948bc644b84f,629af6f7eead0a75b87fad66,,,,,8,0,8,0,1,X V Q F H G B L J M P D K C T S W R N Z,,,,,,,,,,,,,,,,,,,,,,,,,,,,,,,,,,,,,,,,,,,,,,,,,,,,,,,,,,,,,,,,,,,,,,,,,,,,,,,,,,,,,,,,,,,,,
,,,,,,,,,,610cda1332fb63830158c55d,24,Mężczyzna,2022-06-04_08h40.35.418,task,2021.1.4,Win32,50.1655463,628b806c463b948bc644b84f,629af6f7eead0a75b87fad66,,,,,,,,,,,nnxtrbksb,"[""n"",""n"",""x"",""t"",""r"",""b"",""k"",""s"",""b""]","[1.8411000001431148,2.094200000047749,3.1112999999523936,3.668600000143101,5.22979999995232,5.969400000095334,7.197499999999991,8.181500000000028,8.556799999952318,8.883100000143031]",1,NNXTRBKSB,17,0,17,0,1,,,,,,,,,,,,,,,,,,,,,,,,,,,,,,,,,,,,,,,,,,,,,,,,,,,,,,,,,,,,,,,,,,,,,,,,,,,,,,,,,,,
,,,,,,,,,,610cda1332fb63830158c55d,24,Mężczyzna,2022-06-04_08h40.35.418,task,2021.1.4,Win32,50.1655463,628b806c463b948bc644b84f,629af6f7eead0a75b87fad66,,,,,0,0,0,0,1,X V Q F H G B L J M P D K C T S W R N Z,,,,,,,,,,,,,,,,,,,,,,,,,,,,,,,,,,,,,,,,,,,,,,,,,,,,,,,,,,,,,,,,,,,,,,,,,,,,,,,,,,,,,,,,,,,,,
,,,,,,,,,,610cda1332fb63830158c55d,24,Mężczyzna,2022-06-04_08h40.35.418,task,2021.1.4,Win32,50.1655463,628b806c463b948bc644b84f,629af6f7eead0a75b87fad66,,,,,1,0,1,0,1,X V Q F H G B L J M P D K C T S W R N Z,,,,,,,,,,,,,,,,,,,,,,,,,,,,,,,,,,,,,,,,,,,,,,,,,,,,,,,,,,,,,,,,,,,,,,,,,,,,,,,,,,,,,,,,,,,,,
,,,,,,,,,,610cda1332fb63830158c55d,24,Mężczyzna,2022-06-04_08h40.35.418,task,2021.1.4,Win32,50.1655463,628b806c463b948bc644b84f,629af6f7eead0a75b87fad66,,,,,2,0,2,0,1,X V Q F H G B L J M P D K C T S W R N Z,,,,,,,,,,,,,,,,,,,,,,,,,,,,,,,,,,,,,,,,,,,,,,,,,,,,,,,,,,,,,,,,,,,,,,,,,,,,,,,,,,,,,,,,,,,,,
,,,,,,,,,,610cda1332fb63830158c55d,24,Mężczyzna,2022-06-04_08h40.35.418,task,2021.1.4,Win32,50.1655463,628b806c463b948bc644b84f,629af6f7eead0a75b87fad66,,,,,3,0,3,0,1,X V Q F H G B L J M P D K C T S W R N Z,,,,,,,,,,,,,,,,,,,,,,,,,,,,,,,,,,,,,,,,,,,,,,,,,,,,,,,,,,,,,,,,,,,,,,,,,,,,,,,,,,,,,,,,,,,,,
,,,,,,,,,,610cda1332fb63830158c55d,24,Mężczyzna,2022-06-04_08h40.35.418,task,2021.1.4,Win32,50.1655463,628b806c463b948bc644b84f,629af6f7eead0a75b87fad66,,,,,4,0,4,0,1,X V Q F H G B L J M P D K C T S W R N Z,,,,,,,,,,,,,,,,,,,,,,,,,,,,,,,,,,,,,,,,,,,,,,,,,,,,,,,,,,,,,,,,,,,,,,,,,,,,,,,,,,,,,,,,,,,,,
,,,,,,,,,,610cda1332fb63830158c55d,24,Mężczyzna,2022-06-04_08h40.35.418,task,2021.1.4,Win32,50.1655463,628b806c463b948bc644b84f,629af6f7eead0a75b87fad66,,,,,5,0,5,0,1,X V Q F H G B L J M P D K C T S W R N Z,,,,,,,,,,,,,,,,,,,,,,,,,,,,,,,,,,,,,,,,,,,,,,,,,,,,,,,,,,,,,,,,,,,,,,,,,,,,,,,,,,,,,,,,,,,,,
,,,,,,,,,,610cda1332fb63830158c55d,24,Mężczyzna,2022-06-04_08h40.35.418,task,2021.1.4,Win32,50.1655463,628b806c463b948bc644b84f,629af6f7eead0a75b87fad66,,,,,6,0,6,0,1,X V Q F H G B L J M P D K C T S W R N Z,,,,,,,,,,,,,,,,,,,,,,,,,,,,,,,,,,,,,,,,,,,,,,,,,,,,,,,,,,,,,,,,,,,,,,,,,,,,,,,,,,,,,,,,,,,,,
,,,,,,,,,,610cda1332fb63830158c55d,24,Mężczyzna,2022-06-04_08h40.35.418,task,2021.1.4,Win32,50.1655463,628b806c463b948bc644b84f,629af6f7eead0a75b87fad66,,,,,7,0,7,0,1,X V Q F H G B L J M P D K C T S W R N Z,,,,,,,,,,,,,,,,,,,,,,,,,,,,,,,,,,,,,,,,,,,,,,,,,,,,,,,,,,,,,,,,,,,,,,,,,,,,,,,,,,,,,,,,,,,,,
,,,,,,,,,,610cda1332fb63830158c55d,24,Mężczyzna,2022-06-04_08h40.35.418,task,2021.1.4,Win32,50.1655463,628b806c463b948bc644b84f,629af6f7eead0a75b87fad66,,,,,8,0,8,0,1,X V Q F H G B L J M P D K C T S W R N Z,,,,,,,,,,,,,,,,,,,,,,,,,,,,,,,,,,,,,,,,,,,,,,,,,,,,,,,,,,,,,,,,,,,,,,,,,,,,,,,,,,,,,,,,,,,,,
,,,,,,,,,,610cda1332fb63830158c55d,24,Mężczyzna,2022-06-04_08h40.35.418,task,2021.1.4,Win32,50.1655463,628b806c463b948bc644b84f,629af6f7eead0a75b87fad66,,,,,,,,,,,tzrkhfzvq,"[""t"",""z"",""r"",""k"",""h"",""f"",""z"",""v"",""q""]","[2.050100000143061,2.598100000143063,2.997600000143052,5.8808000001907885,7.2765000000000555,7.718000000000075,8.384400000095411,8.846600000143098,9.27640000009535,9.666400000095337]",1,TZRKHFZVQ,18,0,18,0,1,,,,,,,,,,,,,,,,,,,,,,,,,,,,,,,,,,,,,,,,,,,,,,,,,,,,,,,,,,,,,,,,,,,,,,,,,,,,,,,,,,,
,,,,,,,,,,610cda1332fb63830158c55d,24,Mężczyzna,2022-06-04_08h40.35.418,task,2021.1.4,Win32,50.1655463,628b806c463b948bc644b84f,629af6f7eead0a75b87fad66,,,,,0,0,0,0,1,X V Q F H G B L J M P D K C T S W R N Z,,,,,,,,,,,,,,,,,,,,,,,,,,,,,,,,,,,,,,,,,,,,,,,,,,,,,,,,,,,,,,,,,,,,,,,,,,,,,,,,,,,,,,,,,,,,,
,,,,,,,,,,610cda1332fb63830158c55d,24,Mężczyzna,2022-06-04_08h40.35.418,task,2021.1.4,Win32,50.1655463,628b806c463b948bc644b84f,629af6f7eead0a75b87fad66,,,,,1,0,1,0,1,X V Q F H G B L J M P D K C T S W R N Z,,,,,,,,,,,,,,,,,,,,,,,,,,,,,,,,,,,,,,,,,,,,,,,,,,,,,,,,,,,,,,,,,,,,,,,,,,,,,,,,,,,,,,,,,,,,,
,,,,,,,,,,610cda1332fb63830158c55d,24,Mężczyzna,2022-06-04_08h40.35.418,task,2021.1.4,Win32,50.1655463,628b806c463b948bc644b84f,629af6f7eead0a75b87fad66,,,,,2,0,2,0,1,X V Q F H G B L J M P D K C T S W R N Z,,,,,,,,,,,,,,,,,,,,,,,,,,,,,,,,,,,,,,,,,,,,,,,,,,,,,,,,,,,,,,,,,,,,,,,,,,,,,,,,,,,,,,,,,,,,,
,,,,,,,,,,610cda1332fb63830158c55d,24,Mężczyzna,2022-06-04_08h40.35.418,task,2021.1.4,Win32,50.1655463,628b806c463b948bc644b84f,629af6f7eead0a75b87fad66,,,,,3,0,3,0,1,X V Q F H G B L J M P D K C T S W R N Z,,,,,,,,,,,,,,,,,,,,,,,,,,,,,,,,,,,,,,,,,,,,,,,,,,,,,,,,,,,,,,,,,,,,,,,,,,,,,,,,,,,,,,,,,,,,,
,,,,,,,,,,610cda1332fb63830158c55d,24,Mężczyzna,2022-06-04_08h40.35.418,task,2021.1.4,Win32,50.1655463,628b806c463b948bc644b84f,629af6f7eead0a75b87fad66,,,,,4,0,4,0,1,X V Q F H G B L J M P D K C T S W R N Z,,,,,,,,,,,,,,,,,,,,,,,,,,,,,,,,,,,,,,,,,,,,,,,,,,,,,,,,,,,,,,,,,,,,,,,,,,,,,,,,,,,,,,,,,,,,,
,,,,,,,,,,610cda1332fb63830158c55d,24,Mężczyzna,2022-06-04_08h40.35.418,task,2021.1.4,Win32,50.1655463,628b806c463b948bc644b84f,629af6f7eead0a75b87fad66,,,,,5,0,5,0,1,X V Q F H G B L J M P D K C T S W R N Z,,,,,,,,,,,,,,,,,,,,,,,,,,,,,,,,,,,,,,,,,,,,,,,,,,,,,,,,,,,,,,,,,,,,,,,,,,,,,,,,,,,,,,,,,,,,,
,,,,,,,,,,610cda1332fb63830158c55d,24,Mężczyzna,2022-06-04_08h40.35.418,task,2021.1.4,Win32,50.1655463,628b806c463b948bc644b84f,629af6f7eead0a75b87fad66,,,,,6,0,6,0,1,X V Q F H G B L J M P D K C T S W R N Z,,,,,,,,,,,,,,,,,,,,,,,,,,,,,,,,,,,,,,,,,,,,,,,,,,,,,,,,,,,,,,,,,,,,,,,,,,,,,,,,,,,,,,,,,,,,,
,,,,,,,,,,610cda1332fb63830158c55d,24,Mężczyzna,2022-06-04_08h40.35.418,task,2021.1.4,Win32,50.1655463,628b806c463b948bc644b84f,629af6f7eead0a75b87fad66,,,,,7,0,7,0,1,X V Q F H G B L J M P D K C T S W R N Z,,,,,,,,,,,,,,,,,,,,,,,,,,,,,,,,,,,,,,,,,,,,,,,,,,,,,,,,,,,,,,,,,,,,,,,,,,,,,,,,,,,,,,,,,,,,,
,,,,,,,,,,610cda1332fb63830158c55d,24,Mężczyzna,2022-06-04_08h40.35.418,task,2021.1.4,Win32,50.1655463,628b806c463b948bc644b84f,629af6f7eead0a75b87fad66,,,,,8,0,8,0,1,X V Q F H G B L J M P D K C T S W R N Z,,,,,,,,,,,,,,,,,,,,,,,,,,,,,,,,,,,,,,,,,,,,,,,,,,,,,,,,,,,,,,,,,,,,,,,,,,,,,,,,,,,,,,,,,,,,,
,,,,,,,,,,610cda1332fb63830158c55d,24,Mężczyzna,2022-06-04_08h40.35.418,task,2021.1.4,Win32,50.1655463,628b806c463b948bc644b84f,629af6f7eead0a75b87fad66,,,,,9,0,9,0,1,X V Q F H G B L J M P D K C T S W R N Z,,,,,,,,,,,,,,,,,,,,,,,,,,,,,,,,,,,,,,,,,,,,,,,,,,,,,,,,,,,,,,,,,,,,,,,,,,,,,,,,,,,,,,,,,,,,,
,,,,,,,,,,610cda1332fb63830158c55d,24,Mężczyzna,2022-06-04_08h40.35.418,task,2021.1.4,Win32,50.1655463,628b806c463b948bc644b84f,629af6f7eead0a75b87fad66,,,,,,,,,,,hlxkbzqbrz,"[""h"",""l"",""x"",""k"",""b"",""z"",""q"",""b"",""r"",""z""]","[1.9487000000476655,2.2422999999523654,3.7292999999523317,4.550900000095453,4.842799999952376,5.549200000047676,6.528200000047718,8.736700000047676,9.05600000000004,9.329500000000053,10.121500000000083]",1,HLXKBZQBRZ,19,0,19,0,1,,,,,,,,,,,,,,,,,,,,,,,,,,,,,,,,,,,,,,,,,,,,,,,,,,,,,,,,,,,,,,,,,,,,,,,,,,,,,,,,,,,
,,,,,,,,,,610cda1332fb63830158c55d,24,Mężczyzna,2022-06-04_08h40.35.418,task,2021.1.4,Win32,50.1655463,628b806c463b948bc644b84f,629af6f7eead0a75b87fad66,,,,,0,0,0,0,1,X V Q F H G B L J M P D K C T S W R N Z,,,,,,,,,,,,,,,,,,,,,,,,,,,,,,,,,,,,,,,,,,,,,,,,,,,,,,,,,,,,,,,,,,,,,,,,,,,,,,,,,,,,,,,,,,,,,
,,,,,,,,,,610cda1332fb63830158c55d,24,Mężczyzna,2022-06-04_08h40.35.418,task,2021.1.4,Win32,50.1655463,628b806c463b948bc644b84f,629af6f7eead0a75b87fad66,,,,,1,0,1,0,1,X V Q F H G B L J M P D K C T S W R N Z,,,,,,,,,,,,,,,,,,,,,,,,,,,,,,,,,,,,,,,,,,,,,,,,,,,,,,,,,,,,,,,,,,,,,,,,,,,,,,,,,,,,,,,,,,,,,
,,,,,,,,,,610cda1332fb63830158c55d,24,Mężczyzna,2022-06-04_08h40.35.418,task,2021.1.4,Win32,50.1655463,628b806c463b948bc644b84f,629af6f7eead0a75b87fad66,,,,,2,0,2,0,1,X V Q F H G B L J M P D K C T S W R N Z,,,,,,,,,,,,,,,,,,,,,,,,,,,,,,,,,,,,,,,,,,,,,,,,,,,,,,,,,,,,,,,,,,,,,,,,,,,,,,,,,,,,,,,,,,,,,
,,,,,,,,,,610cda1332fb63830158c55d,24,Mężczyzna,2022-06-04_08h40.35.418,task,2021.1.4,Win32,50.1655463,628b806c463b948bc644b84f,629af6f7eead0a75b87fad66,,,,,3,0,3,0,1,X V Q F H G B L J M P D K C T S W R N Z,,,,,,,,,,,,,,,,,,,,,,,,,,,,,,,,,,,,,,,,,,,,,,,,,,,,,,,,,,,,,,,,,,,,,,,,,,,,,,,,,,,,,,,,,,,,,
,,,,,,,,,,610cda1332fb63830158c55d,24,Mężczyzna,2022-06-04_08h40.35.418,task,2021.1.4,Win32,50.1655463,628b806c463b948bc644b84f,629af6f7eead0a75b87fad66,,,,,4,0,4,0,1,X V Q F H G B L J M P D K C T S W R N Z,,,,,,,,,,,,,,,,,,,,,,,,,,,,,,,,,,,,,,,,,,,,,,,,,,,,,,,,,,,,,,,,,,,,,,,,,,,,,,,,,,,,,,,,,,,,,
,,,,,,,,,,610cda1332fb63830158c55d,24,Mężczyzna,2022-06-04_08h40.35.418,task,2021.1.4,Win32,50.1655463,628b806c463b948bc644b84f,629af6f7eead0a75b87fad66,,,,,5,0,5,0,1,X V Q F H G B L J M P D K C T S W R N Z,,,,,,,,,,,,,,,,,,,,,,,,,,,,,,,,,,,,,,,,,,,,,,,,,,,,,,,,,,,,,,,,,,,,,,,,,,,,,,,,,,,,,,,,,,,,,
,,,,,,,,,,610cda1332fb63830158c55d,24,Mężczyzna,2022-06-04_08h40.35.418,task,2021.1.4,Win32,50.1655463,628b806c463b948bc644b84f,629af6f7eead0a75b87fad66,,,,,6,0,6,0,1,X V Q F H G B L J M P D K C T S W R N Z,,,,,,,,,,,,,,,,,,,,,,,,,,,,,,,,,,,,,,,,,,,,,,,,,,,,,,,,,,,,,,,,,,,,,,,,,,,,,,,,,,,,,,,,,,,,,
,,,,,,,,,,610cda1332fb63830158c55d,24,Mężczyzna,2022-06-04_08h40.35.418,task,2021.1.4,Win32,50.1655463,628b806c463b948bc644b84f,629af6f7eead0a75b87fad66,,,,,7,0,7,0,1,X V Q F H G B L J M P D K C T S W R N Z,,,,,,,,,,,,,,,,,,,,,,,,,,,,,,,,,,,,,,,,,,,,,,,,,,,,,,,,,,,,,,,,,,,,,,,,,,,,,,,,,,,,,,,,,,,,,
,,,,,,,,,,610cda1332fb63830158c55d,24,Mężczyzna,2022-06-04_08h40.35.418,task,2021.1.4,Win32,50.1655463,628b806c463b948bc644b84f,629af6f7eead0a75b87fad66,,,,,8,0,8,0,1,X V Q F H G B L J M P D K C T S W R N Z,,,,,,,,,,,,,,,,,,,,,,,,,,,,,,,,,,,,,,,,,,,,,,,,,,,,,,,,,,,,,,,,,,,,,,,,,,,,,,,,,,,,,,,,,,,,,
,,,,,,,,,,610cda1332fb63830158c55d,24,Mężczyzna,2022-06-04_08h40.35.418,task,2021.1.4,Win32,50.1655463,628b806c463b948bc644b84f,629af6f7eead0a75b87fad66,,,,,9,0,9,0,1,X V Q F H G B L J M P D K C T S W R N Z,,,,,,,,,,,,,,,,,,,,,,,,,,,,,,,,,,,,,,,,,,,,,,,,,,,,,,,,,,,,,,,,,,,,,,,,,,,,,,,,,,,,,,,,,,,,,
,,,,,,,,,,610cda1332fb63830158c55d,24,Mężczyzna,2022-06-04_08h40.35.418,task,2021.1.4,Win32,50.1655463,628b806c463b948bc644b84f,629af6f7eead0a75b87fad66,,,,,,,,,,,gtpkchszzj,"[""g"",""t"",""p"",""k"",""c"",""h"",""s"",""z"",""z"",""j""]","[1.808499999999981,2.0055999999045753,2.4202000000476573,4.171899999856919,4.6867999999523136,5.866099999904577,6.597700000047666,6.793299999952296,6.926799999952323,7.461200000047711,7.685500000000047]",1,GTPKCHSZZJ,20,0,20,0,1,,,,,,,,,,,,,,,,,,,,,,,,,,,,,,,,,,,,,,,,,,,,,,,,,,,,,,,,,,,,,,,,,,,,,,,,,,,,,,,,,,,
,,,,,,,,,,610cda1332fb63830158c55d,24,Mężczyzna,2022-06-04_08h40.35.418,task,2021.1.4,Win32,50.1655463,628b806c463b948bc644b84f,629af6f7eead0a75b87fad66,,,,,0,0,0,0,1,X V Q F H G B L J M P D K C T S W R N Z,,,,,,,,,,,,,,,,,,,,,,,,,,,,,,,,,,,,,,,,,,,,,,,,,,,,,,,,,,,,,,,,,,,,,,,,,,,,,,,,,,,,,,,,,,,,,
,,,,,,,,,,610cda1332fb63830158c55d,24,Mężczyzna,2022-06-04_08h40.35.418,task,2021.1.4,Win32,50.1655463,628b806c463b948bc644b84f,629af6f7eead0a75b87fad66,,,,,1,0,1,0,1,X V Q F H G B L J M P D K C T S W R N Z,,,,,,,,,,,,,,,,,,,,,,,,,,,,,,,,,,,,,,,,,,,,,,,,,,,,,,,,,,,,,,,,,,,,,,,,,,,,,,,,,,,,,,,,,,,,,
,,,,,,,,,,610cda1332fb63830158c55d,24,Mężczyzna,2022-06-04_08h40.35.418,task,2021.1.4,Win32,50.1655463,628b806c463b948bc644b84f,629af6f7eead0a75b87fad66,,,,,2,0,2,0,1,X V Q F H G B L J M P D K C T S W R N Z,,,,,,,,,,,,,,,,,,,,,,,,,,,,,,,,,,,,,,,,,,,,,,,,,,,,,,,,,,,,,,,,,,,,,,,,,,,,,,,,,,,,,,,,,,,,,
,,,,,,,,,,610cda1332fb63830158c55d,24,Mężczyzna,2022-06-04_08h40.35.418,task,2021.1.4,Win32,50.1655463,628b806c463b948bc644b84f,629af6f7eead0a75b87fad66,,,,,3,0,3,0,1,X V Q F H G B L J M P D K C T S W R N Z,,,,,,,,,,,,,,,,,,,,,,,,,,,,,,,,,,,,,,,,,,,,,,,,,,,,,,,,,,,,,,,,,,,,,,,,,,,,,,,,,,,,,,,,,,,,,
,,,,,,,,,,610cda1332fb63830158c55d,24,Mężczyzna,2022-06-04_08h40.35.418,task,2021.1.4,Win32,50.1655463,628b806c463b948bc644b84f,629af6f7eead0a75b87fad66,,,,,4,0,4,0,1,X V Q F H G B L J M P D K C T S W R N Z,,,,,,,,,,,,,,,,,,,,,,,,,,,,,,,,,,,,,,,,,,,,,,,,,,,,,,,,,,,,,,,,,,,,,,,,,,,,,,,,,,,,,,,,,,,,,
,,,,,,,,,,610cda1332fb63830158c55d,24,Mężczyzna,2022-06-04_08h40.35.418,task,2021.1.4,Win32,50.1655463,628b806c463b948bc644b84f,629af6f7eead0a75b87fad66,,,,,5,0,5,0,1,X V Q F H G B L J M P D K C T S W R N Z,,,,,,,,,,,,,,,,,,,,,,,,,,,,,,,,,,,,,,,,,,,,,,,,,,,,,,,,,,,,,,,,,,,,,,,,,,,,,,,,,,,,,,,,,,,,,
,,,,,,,,,,610cda1332fb63830158c55d,24,Mężczyzna,2022-06-04_08h40.35.418,task,2021.1.4,Win32,50.1655463,628b806c463b948bc644b84f,629af6f7eead0a75b87fad66,,,,,6,0,6,0,1,X V Q F H G B L J M P D K C T S W R N Z,,,,,,,,,,,,,,,,,,,,,,,,,,,,,,,,,,,,,,,,,,,,,,,,,,,,,,,,,,,,,,,,,,,,,,,,,,,,,,,,,,,,,,,,,,,,,
,,,,,,,,,,610cda1332fb63830158c55d,24,Mężczyzna,2022-06-04_08h40.35.418,task,2021.1.4,Win32,50.1655463,628b806c463b948bc644b84f,629af6f7eead0a75b87fad66,,,,,7,0,7,0,1,X V Q F H G B L J M P D K C T S W R N Z,,,,,,,,,,,,,,,,,,,,,,,,,,,,,,,,,,,,,,,,,,,,,,,,,,,,,,,,,,,,,,,,,,,,,,,,,,,,,,,,,,,,,,,,,,,,,
,,,,,,,,,,610cda1332fb63830158c55d,24,Mężczyzna,2022-06-04_08h40.35.418,task,2021.1.4,Win32,50.1655463,628b806c463b948bc644b84f,629af6f7eead0a75b87fad66,,,,,8,0,8,0,1,X V Q F H G B L J M P D K C T S W R N Z,,,,,,,,,,,,,,,,,,,,,,,,,,,,,,,,,,,,,,,,,,,,,,,,,,,,,,,,,,,,,,,,,,,,,,,,,,,,,,,,,,,,,,,,,,,,,
,,,,,,,,,,610cda1332fb63830158c55d,24,Mężczyzna,2022-06-04_08h40.35.418,task,2021.1.4,Win32,50.1655463,628b806c463b948bc644b84f,629af6f7eead0a75b87fad66,,,,,9,0,9,0,1,X V Q F H G B L J M P D K C T S W R N Z,,,,,,,,,,,,,,,,,,,,,,,,,,,,,,,,,,,,,,,,,,,,,,,,,,,,,,,,,,,,,,,,,,,,,,,,,,,,,,,,,,,,,,,,,,,,,
,,,,,,,,,,610cda1332fb63830158c55d,24,Mężczyzna,2022-06-04_08h40.35.418,task,2021.1.4,Win32,50.1655463,628b806c463b948bc644b84f,629af6f7eead0a75b87fad66,,,,,10,0,10,0,1,X V Q F H G B L J M P D K C T S W R N Z,,,,,,,,,,,,,,,,,,,,,,,,,,,,,,,,,,,,,,,,,,,,,,,,,,,,,,,,,,,,,,,,,,,,,,,,,,,,,,,,,,,,,,,,,,,,,
,,,,,,,,,,610cda1332fb63830158c55d,24,Mężczyzna,2022-06-04_08h40.35.418,task,2021.1.4,Win32,50.1655463,628b806c463b948bc644b84f,629af6f7eead0a75b87fad66,,,,,,,,,,,txffrsdswrk,"[""t"",""x"",""f"",""f"",""r"",""s"",""d"",""s"",""w"",""r"",""k""]","[1.7794999999999845,2.062999999999988,2.612400000095363,2.7697999999523972,4.283200000047714,5.452600000143093,5.706299999952307,6.098200000047768,6.706600000143112,6.889100000143117,7.417600000143125,7.589400000095452]",1,TXFFRSDSWRK,21,0,21,0,1,,,,,,,,,,,,,,,,,,,,,,,,,,,,,,,,,,,,,,,,,,,,,,,,,,,,,,,,,,,,,,,,,,,,,,,,,,,,,,,,,,,
,,,,,,,,,,610cda1332fb63830158c55d,24,Mężczyzna,2022-06-04_08h40.35.418,task,2021.1.4,Win32,50.1655463,628b806c463b948bc644b84f,629af6f7eead0a75b87fad66,,,,,0,0,0,0,1,X V Q F H G B L J M P D K C T S W R N Z,,,,,,,,,,,,,,,,,,,,,,,,,,,,,,,,,,,,,,,,,,,,,,,,,,,,,,,,,,,,,,,,,,,,,,,,,,,,,,,,,,,,,,,,,,,,,
,,,,,,,,,,610cda1332fb63830158c55d,24,Mężczyzna,2022-06-04_08h40.35.418,task,2021.1.4,Win32,50.1655463,628b806c463b948bc644b84f,629af6f7eead0a75b87fad66,,,,,1,0,1,0,1,X V Q F H G B L J M P D K C T S W R N Z,,,,,,,,,,,,,,,,,,,,,,,,,,,,,,,,,,,,,,,,,,,,,,,,,,,,,,,,,,,,,,,,,,,,,,,,,,,,,,,,,,,,,,,,,,,,,
,,,,,,,,,,610cda1332fb63830158c55d,24,Mężczyzna,2022-06-04_08h40.35.418,task,2021.1.4,Win32,50.1655463,628b806c463b948bc644b84f,629af6f7eead0a75b87fad66,,,,,2,0,2,0,1,X V Q F H G B L J M P D K C T S W R N Z,,,,,,,,,,,,,,,,,,,,,,,,,,,,,,,,,,,,,,,,,,,,,,,,,,,,,,,,,,,,,,,,,,,,,,,,,,,,,,,,,,,,,,,,,,,,,
,,,,,,,,,,610cda1332fb63830158c55d,24,Mężczyzna,2022-06-04_08h40.35.418,task,2021.1.4,Win32,50.1655463,628b806c463b948bc644b84f,629af6f7eead0a75b87fad66,,,,,3,0,3,0,1,X V Q F H G B L J M P D K C T S W R N Z,,,,,,,,,,,,,,,,,,,,,,,,,,,,,,,,,,,,,,,,,,,,,,,,,,,,,,,,,,,,,,,,,,,,,,,,,,,,,,,,,,,,,,,,,,,,,
,,,,,,,,,,610cda1332fb63830158c55d,24,Mężczyzna,2022-06-04_08h40.35.418,task,2021.1.4,Win32,50.1655463,628b806c463b948bc644b84f,629af6f7eead0a75b87fad66,,,,,4,0,4,0,1,X V Q F H G B L J M P D K C T S W R N Z,,,,,,,,,,,,,,,,,,,,,,,,,,,,,,,,,,,,,,,,,,,,,,,,,,,,,,,,,,,,,,,,,,,,,,,,,,,,,,,,,,,,,,,,,,,,,
,,,,,,,,,,610cda1332fb63830158c55d,24,Mężczyzna,2022-06-04_08h40.35.418,task,2021.1.4,Win32,50.1655463,628b806c463b948bc644b84f,629af6f7eead0a75b87fad66,,,,,5,0,5,0,1,X V Q F H G B L J M P D K C T S W R N Z,,,,,,,,,,,,,,,,,,,,,,,,,,,,,,,,,,,,,,,,,,,,,,,,,,,,,,,,,,,,,,,,,,,,,,,,,,,,,,,,,,,,,,,,,,,,,
,,,,,,,,,,610cda1332fb63830158c55d,24,Mężczyzna,2022-06-04_08h40.35.418,task,2021.1.4,Win32,50.1655463,628b806c463b948bc644b84f,629af6f7eead0a75b87fad66,,,,,6,0,6,0,1,X V Q F H G B L J M P D K C T S W R N Z,,,,,,,,,,,,,,,,,,,,,,,,,,,,,,,,,,,,,,,,,,,,,,,,,,,,,,,,,,,,,,,,,,,,,,,,,,,,,,,,,,,,,,,,,,,,,
,,,,,,,,,,610cda1332fb63830158c55d,24,Mężczyzna,2022-06-04_08h40.35.418,task,2021.1.4,Win32,50.1655463,628b806c463b948bc644b84f,629af6f7eead0a75b87fad66,,,,,7,0,7,0,1,X V Q F H G B L J M P D K C T S W R N Z,,,,,,,,,,,,,,,,,,,,,,,,,,,,,,,,,,,,,,,,,,,,,,,,,,,,,,,,,,,,,,,,,,,,,,,,,,,,,,,,,,,,,,,,,,,,,
,,,,,,,,,,610cda1332fb63830158c55d,24,Mężczyzna,2022-06-04_08h40.35.418,task,2021.1.4,Win32,50.1655463,628b806c463b948bc644b84f,629af6f7eead0a75b87fad66,,,,,8,0,8,0,1,X V Q F H G B L J M P D K C T S W R N Z,,,,,,,,,,,,,,,,,,,,,,,,,,,,,,,,,,,,,,,,,,,,,,,,,,,,,,,,,,,,,,,,,,,,,,,,,,,,,,,,,,,,,,,,,,,,,
,,,,,,,,,,610cda1332fb63830158c55d,24,Mężczyzna,2022-06-04_08h40.35.418,task,2021.1.4,Win32,50.1655463,628b806c463b948bc644b84f,629af6f7eead0a75b87fad66,,,,,9,0,9,0,1,X V Q F H G B L J M P D K C T S W R N Z,,,,,,,,,,,,,,,,,,,,,,,,,,,,,,,,,,,,,,,,,,,,,,,,,,,,,,,,,,,,,,,,,,,,,,,,,,,,,,,,,,,,,,,,,,,,,
,,,,,,,,,,610cda1332fb63830158c55d,24,Mężczyzna,2022-06-04_08h40.35.418,task,2021.1.4,Win32,50.1655463,628b806c463b948bc644b84f,629af6f7eead0a75b87fad66,,,,,10,0,10,0,1,X V Q F H G B L J M P D K C T S W R N Z,,,,,,,,,,,,,,,,,,,,,,,,,,,,,,,,,,,,,,,,,,,,,,,,,,,,,,,,,,,,,,,,,,,,,,,,,,,,,,,,,,,,,,,,,,,,,
,,,,,,,,,,610cda1332fb63830158c55d,24,Mężczyzna,2022-06-04_08h40.35.418,task,2021.1.4,Win32,50.1655463,628b806c463b948bc644b84f,629af6f7eead0a75b87fad66,,,,,,,,,,,xtfphvwpmkz,"[""x"",""t"",""f"",""p"",""h"",""v"",""w"",""p"",""m"",""k"",""z""]","[2.2059000000954256,2.5977999999523718,4.7784000000954165,5.5917999999524,6.011000000000081,6.542900000095415,7.816799999952309,8.367000000000075,9.616500000000087,9.861200000047688,10.343299999952364,10.697000000000003]",1,XTFPHVWPMKZ,22,0,22,0,1,,,,,,,,,,,,,,,,,,,,,,,,,,,,,,,,,,,,,,,,,,,,,,,,,,,,,,,,,,,,,,,,,,,,,,,,,,,,,,,,,,,
,,,,,,,,,,610cda1332fb63830158c55d,24,Mężczyzna,2022-06-04_08h40.35.418,task,2021.1.4,Win32,50.1655463,628b806c463b948bc644b84f,629af6f7eead0a75b87fad66,,,,,0,0,0,0,1,X V Q F H G B L J M P D K C T S W R N Z,,,,,,,,,,,,,,,,,,,,,,,,,,,,,,,,,,,,,,,,,,,,,,,,,,,,,,,,,,,,,,,,,,,,,,,,,,,,,,,,,,,,,,,,,,,,,
,,,,,,,,,,610cda1332fb63830158c55d,24,Mężczyzna,2022-06-04_08h40.35.418,task,2021.1.4,Win32,50.1655463,628b806c463b948bc644b84f,629af6f7eead0a75b87fad66,,,,,1,0,1,0,1,X V Q F H G B L J M P D K C T S W R N Z,,,,,,,,,,,,,,,,,,,,,,,,,,,,,,,,,,,,,,,,,,,,,,,,,,,,,,,,,,,,,,,,,,,,,,,,,,,,,,,,,,,,,,,,,,,,,
,,,,,,,,,,610cda1332fb63830158c55d,24,Mężczyzna,2022-06-04_08h40.35.418,task,2021.1.4,Win32,50.1655463,628b806c463b948bc644b84f,629af6f7eead0a75b87fad66,,,,,2,0,2,0,1,X V Q F H G B L J M P D K C T S W R N Z,,,,,,,,,,,,,,,,,,,,,,,,,,,,,,,,,,,,,,,,,,,,,,,,,,,,,,,,,,,,,,,,,,,,,,,,,,,,,,,,,,,,,,,,,,,,,
,,,,,,,,,,610cda1332fb63830158c55d,24,Mężczyzna,2022-06-04_08h40.35.418,task,2021.1.4,Win32,50.1655463,628b806c463b948bc644b84f,629af6f7eead0a75b87fad66,,,,,3,0,3,0,1,X V Q F H G B L J M P D K C T S W R N Z,,,,,,,,,,,,,,,,,,,,,,,,,,,,,,,,,,,,,,,,,,,,,,,,,,,,,,,,,,,,,,,,,,,,,,,,,,,,,,,,,,,,,,,,,,,,,
,,,,,,,,,,610cda1332fb63830158c55d,24,Mężczyzna,2022-06-04_08h40.35.418,task,2021.1.4,Win32,50.1655463,628b806c463b948bc644b84f,629af6f7eead0a75b87fad66,,,,,4,0,4,0,1,X V Q F H G B L J M P D K C T S W R N Z,,,,,,,,,,,,,,,,,,,,,,,,,,,,,,,,,,,,,,,,,,,,,,,,,,,,,,,,,,,,,,,,,,,,,,,,,,,,,,,,,,,,,,,,,,,,,
,,,,,,,,,,610cda1332fb63830158c55d,24,Mężczyzna,2022-06-04_08h40.35.418,task,2021.1.4,Win32,50.1655463,628b806c463b948bc644b84f,629af6f7eead0a75b87fad66,,,,,5,0,5,0,1,X V Q F H G B L J M P D K C T S W R N Z,,,,,,,,,,,,,,,,,,,,,,,,,,,,,,,,,,,,,,,,,,,,,,,,,,,,,,,,,,,,,,,,,,,,,,,,,,,,,,,,,,,,,,,,,,,,,
,,,,,,,,,,610cda1332fb63830158c55d,24,Mężczyzna,2022-06-04_08h40.35.418,task,2021.1.4,Win32,50.1655463,628b806c463b948bc644b84f,629af6f7eead0a75b87fad66,,,,,6,0,6,0,1,X V Q F H G B L J M P D K C T S W R N Z,,,,,,,,,,,,,,,,,,,,,,,,,,,,,,,,,,,,,,,,,,,,,,,,,,,,,,,,,,,,,,,,,,,,,,,,,,,,,,,,,,,,,,,,,,,,,
,,,,,,,,,,610cda1332fb63830158c55d,24,Mężczyzna,2022-06-04_08h40.35.418,task,2021.1.4,Win32,50.1655463,628b806c463b948bc644b84f,629af6f7eead0a75b87fad66,,,,,7,0,7,0,1,X V Q F H G B L J M P D K C T S W R N Z,,,,,,,,,,,,,,,,,,,,,,,,,,,,,,,,,,,,,,,,,,,,,,,,,,,,,,,,,,,,,,,,,,,,,,,,,,,,,,,,,,,,,,,,,,,,,
,,,,,,,,,,610cda1332fb63830158c55d,24,Mężczyzna,2022-06-04_08h40.35.418,task,2021.1.4,Win32,50.1655463,628b806c463b948bc644b84f,629af6f7eead0a75b87fad66,,,,,8,0,8,0,1,X V Q F H G B L J M P D K C T S W R N Z,,,,,,,,,,,,,,,,,,,,,,,,,,,,,,,,,,,,,,,,,,,,,,,,,,,,,,,,,,,,,,,,,,,,,,,,,,,,,,,,,,,,,,,,,,,,,
,,,,,,,,,,610cda1332fb63830158c55d,24,Mężczyzna,2022-06-04_08h40.35.418,task,2021.1.4,Win32,50.1655463,628b806c463b948bc644b84f,629af6f7eead0a75b87fad66,,,,,9,0,9,0,1,X V Q F H G B L J M P D K C T S W R N Z,,,,,,,,,,,,,,,,,,,,,,,,,,,,,,,,,,,,,,,,,,,,,,,,,,,,,,,,,,,,,,,,,,,,,,,,,,,,,,,,,,,,,,,,,,,,,
,,,,,,,,,,610cda1332fb63830158c55d,24,Mężczyzna,2022-06-04_08h40.35.418,task,2021.1.4,Win32,50.1655463,628b806c463b948bc644b84f,629af6f7eead0a75b87fad66,,,,,10,0,10,0,1,X V Q F H G B L J M P D K C T S W R N Z,,,,,,,,,,,,,,,,,,,,,,,,,,,,,,,,,,,,,,,,,,,,,,,,,,,,,,,,,,,,,,,,,,,,,,,,,,,,,,,,,,,,,,,,,,,,,
,,,,,,,,,,610cda1332fb63830158c55d,24,Mężczyzna,2022-06-04_08h40.35.418,task,2021.1.4,Win32,50.1655463,628b806c463b948bc644b84f,629af6f7eead0a75b87fad66,,,,,11,0,11,0,1,X V Q F H G B L J M P D K C T S W R N Z,,,,,,,,,,,,,,,,,,,,,,,,,,,,,,,,,,,,,,,,,,,,,,,,,,,,,,,,,,,,,,,,,,,,,,,,,,,,,,,,,,,,,,,,,,,,,
,,,,,,,,,,610cda1332fb63830158c55d,24,Mężczyzna,2022-06-04_08h40.35.418,task,2021.1.4,Win32,50.1655463,628b806c463b948bc644b84f,629af6f7eead0a75b87fad66,,,,,,,,,,,jnfcnlqvfvnq,"[""j"",""n"",""f"",""c"",""n"",""l"",""q"",""v"",""f"",""v"",""n"",""q""]","[2.107300000190776,2.36040000009541,3.7614999999999554,5.082800000190673,5.991100000143092,6.652000000000044,7.93100000000004,8.512800000190737,9.12470000004771,11.204400000095347,11.476499999999987,11.90080000019077,12.216800000190688]",1,JNFCNLQVFVNQ,23,0,23,0,1,,,,,,,,,,,,,,,,,,,,,,,,,,,,,,,,,,,,,,,,,,,,,,,,,,,,,,,,,,,,,,,,,,,,,,,,,,,,,,,,,,,
,,,,,,,,,,610cda1332fb63830158c55d,24,Mężczyzna,2022-06-04_08h40.35.418,task,2021.1.4,Win32,50.1655463,628b806c463b948bc644b84f,629af6f7eead0a75b87fad66,,,,,0,0,0,0,1,X V Q F H G B L J M P D K C T S W R N Z,,,,,,,,,,,,,,,,,,,,,,,,,,,,,,,,,,,,,,,,,,,,,,,,,,,,,,,,,,,,,,,,,,,,,,,,,,,,,,,,,,,,,,,,,,,,,
,,,,,,,,,,610cda1332fb63830158c55d,24,Mężczyzna,2022-06-04_08h40.35.418,task,2021.1.4,Win32,50.1655463,628b806c463b948bc644b84f,629af6f7eead0a75b87fad66,,,,,1,0,1,0,1,X V Q F H G B L J M P D K C T S W R N Z,,,,,,,,,,,,,,,,,,,,,,,,,,,,,,,,,,,,,,,,,,,,,,,,,,,,,,,,,,,,,,,,,,,,,,,,,,,,,,,,,,,,,,,,,,,,,
,,,,,,,,,,610cda1332fb63830158c55d,24,Mężczyzna,2022-06-04_08h40.35.418,task,2021.1.4,Win32,50.1655463,628b806c463b948bc644b84f,629af6f7eead0a75b87fad66,,,,,2,0,2,0,1,X V Q F H G B L J M P D K C T S W R N Z,,,,,,,,,,,,,,,,,,,,,,,,,,,,,,,,,,,,,,,,,,,,,,,,,,,,,,,,,,,,,,,,,,,,,,,,,,,,,,,,,,,,,,,,,,,,,
,,,,,,,,,,610cda1332fb63830158c55d,24,Mężczyzna,2022-06-04_08h40.35.418,task,2021.1.4,Win32,50.1655463,628b806c463b948bc644b84f,629af6f7eead0a75b87fad66,,,,,3,0,3,0,1,X V Q F H G B L J M P D K C T S W R N Z,,,,,,,,,,,,,,,,,,,,,,,,,,,,,,,,,,,,,,,,,,,,,,,,,,,,,,,,,,,,,,,,,,,,,,,,,,,,,,,,,,,,,,,,,,,,,
,,,,,,,,,,610cda1332fb63830158c55d,24,Mężczyzna,2022-06-04_08h40.35.418,task,2021.1.4,Win32,50.1655463,628b806c463b948bc644b84f,629af6f7eead0a75b87fad66,,,,,4,0,4,0,1,X V Q F H G B L J M P D K C T S W R N Z,,,,,,,,,,,,,,,,,,,,,,,,,,,,,,,,,,,,,,,,,,,,,,,,,,,,,,,,,,,,,,,,,,,,,,,,,,,,,,,,,,,,,,,,,,,,,
,,,,,,,,,,610cda1332fb63830158c55d,24,Mężczyzna,2022-06-04_08h40.35.418,task,2021.1.4,Win32,50.1655463,628b806c463b948bc644b84f,629af6f7eead0a75b87fad66,,,,,5,0,5,0,1,X V Q F H G B L J M P D K C T S W R N Z,,,,,,,,,,,,,,,,,,,,,,,,,,,,,,,,,,,,,,,,,,,,,,,,,,,,,,,,,,,,,,,,,,,,,,,,,,,,,,,,,,,,,,,,,,,,,
