key_resp_15.keys,key_resp_15.rt,key_resp_16.keys,key_resp_16.rt,key_resp_4.keys,key_resp_4.rt,next_letter.thisRepN,next_letter.thisTrialN,next_letter.thisN,next_letter.thisIndex,next_letter.ran,letter,participant,Wiek*,Płeć,date,expName,psychopyVersion,OS,frameRate,study_id,session,simple_recall,key_resp_5.keys,key_resp_5.rt,simple_recall_corr,simple_recall_corrkeys,next_level.thisRepN,next_level.thisTrialN,next_level.thisN,next_level.thisIndex,next_level.ran,key_resp_2.keys,key_resp_2.rt,digit_answer,key_resp.keys,key_resp.corr,key_resp.rt,RT_list,next_equation.thisRepN,next_equation.thisTrialN,next_equation.thisN,next_equation.thisIndex,next_equation.ran,Task,Trial,Problem,Operation_answer,processing_score,sumRT,meanRT,sumdiff,sd,RT,key_resp_3.keys,key_resp_3.rt,repeat_practice.thisRepN,repeat_practice.thisTrialN,repeat_practice.thisN,repeat_practice.thisIndex,repeat_practice.ran,key_resp_6.keys,key_resp_6.rt,key_resp_11.keys,key_resp_11.corr,key_resp_11.rt,operation_correct,repeat_if_wrong_prac.thisRepN,repeat_if_wrong_prac.thisTrialN,repeat_if_wrong_prac.thisN,repeat_if_wrong_prac.thisIndex,repeat_if_wrong_prac.ran,span_size_prac.thisRepN,span_size_prac.thisTrialN,span_size_prac.thisN,span_size_prac.thisIndex,span_size_prac.ran,complex_recall_practice,key_resp_9.keys,key_resp_9.corr,key_resp_9.rt,complex_prac_corr,span_recall_prac.thisRepN,span_recall_prac.thisTrialN,span_recall_prac.thisN,span_recall_prac.thisIndex,span_recall_prac.ran,key_resp_10.keys,key_resp_10.rt,key_resp_7.keys,key_resp_7.corr,key_resp_7.rt,repeat_if_wrong.thisRepN,repeat_if_wrong.thisTrialN,repeat_if_wrong.thisN,repeat_if_wrong.thisIndex,repeat_if_wrong.ran,span_size.thisRepN,span_size.thisTrialN,span_size.thisN,span_size.thisIndex,span_size.ran,complex_recall,key_resp_8.keys,key_resp_8.corr,key_resp_8.rt,complex_recall_corr,complex_recall_corrkeys,span_recall.thisRepN,span_recall.thisTrialN,span_recall.thisN,span_recall.thisIndex,span_recall.ran,key_resp_13.keys,key_resp_13.corr,key_resp_13.rt,random_loop.thisRepN,random_loop.thisTrialN,random_loop.thisN,random_loop.thisIndex,random_loop.ran,key_resp_12.keys,key_resp_12.rt
space,19.4742,space,19.4332,space,9.7751,0,0,0,0,1,X V Q F H G B L J M P D K C T S W R N Z,610d0c4142e68a34f7bfcaf2,21,Mężczyzna,2022-06-11_09h40.19.029,task,2021.1.4,Win32,119.7174668,6299f149e92ead563fba08ef,62a4469288cd2296b8f7c970,,,,,,,,,,,,,,,,,,,,,,,,,,,,,,,,,,,,,,,,,,,,,,,,,,,,,,,,,,,,,,,,,,,,,,,,,,,,,,,,,,,,,,,,,,,,,,,,,,,,,
,,,,,,1,0,1,0,1,X V Q F H G B L J M P D K C T S W R N Z,610d0c4142e68a34f7bfcaf2,21,Mężczyzna,2022-06-11_09h40.19.029,task,2021.1.4,Win32,119.7174668,6299f149e92ead563fba08ef,62a4469288cd2296b8f7c970,,,,,,,,,,,,,,,,,,,,,,,,,,,,,,,,,,,,,,,,,,,,,,,,,,,,,,,,,,,,,,,,,,,,,,,,,,,,,,,,,,,,,,,,,,,,,,,,,,,,,
,,,,,,,,,,,,610d0c4142e68a34f7bfcaf2,21,Mężczyzna,2022-06-11_09h40.19.029,task,2021.1.4,Win32,119.7174668,6299f149e92ead563fba08ef,62a4469288cd2296b8f7c970,zc,"[""z"",""c""]","[3.5420999999999765,4.024599999999978,7.641300000000044]",1,ZC,0,0,0,0,1,,,,,,,,,,,,,,,,,,,,,,,,,,,,,,,,,,,,,,,,,,,,,,,,,,,,,,,,,,,,,,,,,,,,,,,,,,,,,,,,,,,,,,,,,,,
,,,,,,0,0,0,0,1,X V Q F H G B L J M P D K C T S W R N Z,610d0c4142e68a34f7bfcaf2,21,Mężczyzna,2022-06-11_09h40.19.029,task,2021.1.4,Win32,119.7174668,6299f149e92ead563fba08ef,62a4469288cd2296b8f7c970,,,,,,,,,,,,,,,,,,,,,,,,,,,,,,,,,,,,,,,,,,,,,,,,,,,,,,,,,,,,,,,,,,,,,,,,,,,,,,,,,,,,,,,,,,,,,,,,,,,,,
,,,,,,1,0,1,0,1,X V Q F H G B L J M P D K C T S W R N Z,610d0c4142e68a34f7bfcaf2,21,Mężczyzna,2022-06-11_09h40.19.029,task,2021.1.4,Win32,119.7174668,6299f149e92ead563fba08ef,62a4469288cd2296b8f7c970,,,,,,,,,,,,,,,,,,,,,,,,,,,,,,,,,,,,,,,,,,,,,,,,,,,,,,,,,,,,,,,,,,,,,,,,,,,,,,,,,,,,,,,,,,,,,,,,,,,,,
,,,,,,,,,,,,610d0c4142e68a34f7bfcaf2,21,Mężczyzna,2022-06-11_09h40.19.029,task,2021.1.4,Win32,119.7174668,6299f149e92ead563fba08ef,62a4469288cd2296b8f7c970,bl,"[""b"",""l""]","[2.429800000000043,2.5569000000000273,3.164500000000004]",1,BL,1,0,1,0,1,,,,,,,,,,,,,,,,,,,,,,,,,,,,,,,,,,,,,,,,,,,,,,,,,,,,,,,,,,,,,,,,,,,,,,,,,,,,,,,,,,,,,,,,,,,
,,,,,,0,0,0,0,1,X V Q F H G B L J M P D K C T S W R N Z,610d0c4142e68a34f7bfcaf2,21,Mężczyzna,2022-06-11_09h40.19.029,task,2021.1.4,Win32,119.7174668,6299f149e92ead563fba08ef,62a4469288cd2296b8f7c970,,,,,,,,,,,,,,,,,,,,,,,,,,,,,,,,,,,,,,,,,,,,,,,,,,,,,,,,,,,,,,,,,,,,,,,,,,,,,,,,,,,,,,,,,,,,,,,,,,,,,
,,,,,,1,0,1,0,1,X V Q F H G B L J M P D K C T S W R N Z,610d0c4142e68a34f7bfcaf2,21,Mężczyzna,2022-06-11_09h40.19.029,task,2021.1.4,Win32,119.7174668,6299f149e92ead563fba08ef,62a4469288cd2296b8f7c970,,,,,,,,,,,,,,,,,,,,,,,,,,,,,,,,,,,,,,,,,,,,,,,,,,,,,,,,,,,,,,,,,,,,,,,,,,,,,,,,,,,,,,,,,,,,,,,,,,,,,
,,,,,,2,0,2,0,1,X V Q F H G B L J M P D K C T S W R N Z,610d0c4142e68a34f7bfcaf2,21,Mężczyzna,2022-06-11_09h40.19.029,task,2021.1.4,Win32,119.7174668,6299f149e92ead563fba08ef,62a4469288cd2296b8f7c970,,,,,,,,,,,,,,,,,,,,,,,,,,,,,,,,,,,,,,,,,,,,,,,,,,,,,,,,,,,,,,,,,,,,,,,,,,,,,,,,,,,,,,,,,,,,,,,,,,,,,
,,,,,,,,,,,,610d0c4142e68a34f7bfcaf2,21,Mężczyzna,2022-06-11_09h40.19.029,task,2021.1.4,Win32,119.7174668,6299f149e92ead563fba08ef,62a4469288cd2296b8f7c970,dlb,"[""d"",""l"",""b""]","[1.3074000000000154,1.599499999999992,1.8829000000000207,3.322599999999966]",1,DLB,2,0,2,0,1,,,,,,,,,,,,,,,,,,,,,,,,,,,,,,,,,,,,,,,,,,,,,,,,,,,,,,,,,,,,,,,,,,,,,,,,,,,,,,,,,,,,,,,,,,,
,,,,,,0,0,0,0,1,X V Q F H G B L J M P D K C T S W R N Z,610d0c4142e68a34f7bfcaf2,21,Mężczyzna,2022-06-11_09h40.19.029,task,2021.1.4,Win32,119.7174668,6299f149e92ead563fba08ef,62a4469288cd2296b8f7c970,,,,,,,,,,,,,,,,,,,,,,,,,,,,,,,,,,,,,,,,,,,,,,,,,,,,,,,,,,,,,,,,,,,,,,,,,,,,,,,,,,,,,,,,,,,,,,,,,,,,,
,,,,,,1,0,1,0,1,X V Q F H G B L J M P D K C T S W R N Z,610d0c4142e68a34f7bfcaf2,21,Mężczyzna,2022-06-11_09h40.19.029,task,2021.1.4,Win32,119.7174668,6299f149e92ead563fba08ef,62a4469288cd2296b8f7c970,,,,,,,,,,,,,,,,,,,,,,,,,,,,,,,,,,,,,,,,,,,,,,,,,,,,,,,,,,,,,,,,,,,,,,,,,,,,,,,,,,,,,,,,,,,,,,,,,,,,,
,,,,,,2,0,2,0,1,X V Q F H G B L J M P D K C T S W R N Z,610d0c4142e68a34f7bfcaf2,21,Mężczyzna,2022-06-11_09h40.19.029,task,2021.1.4,Win32,119.7174668,6299f149e92ead563fba08ef,62a4469288cd2296b8f7c970,,,,,,,,,,,,,,,,,,,,,,,,,,,,,,,,,,,,,,,,,,,,,,,,,,,,,,,,,,,,,,,,,,,,,,,,,,,,,,,,,,,,,,,,,,,,,,,,,,,,,
,,,,,,,,,,,,610d0c4142e68a34f7bfcaf2,21,Mężczyzna,2022-06-11_09h40.19.029,task,2021.1.4,Win32,119.7174668,6299f149e92ead563fba08ef,62a4469288cd2296b8f7c970,ptx,"[""p"",""t"",""x""]","[1.1669000000000267,1.4016999999999484,2.4255999999999744,3.0829999999999984]",1,PTX,3,0,3,0,1,,,,,,,,,,,,,,,,,,,,,,,,,,,,,,,,,,,,,,,,,,,,,,,,,,,,,,,,,,,,,,,,,,,,,,,,,,,,,,,,,,,,,,,,,,,
,,,,,,0,0,0,0,1,X V Q F H G B L J M P D K C T S W R N Z,610d0c4142e68a34f7bfcaf2,21,Mężczyzna,2022-06-11_09h40.19.029,task,2021.1.4,Win32,119.7174668,6299f149e92ead563fba08ef,62a4469288cd2296b8f7c970,,,,,,,,,,,,,,,,,,,,,,,,,,,,,,,,,,,,,,,,,,,,,,,,,,,,,,,,,,,,,,,,,,,,,,,,,,,,,,,,,,,,,,,,,,,,,,,,,,,,,
,,,,,,1,0,1,0,1,X V Q F H G B L J M P D K C T S W R N Z,610d0c4142e68a34f7bfcaf2,21,Mężczyzna,2022-06-11_09h40.19.029,task,2021.1.4,Win32,119.7174668,6299f149e92ead563fba08ef,62a4469288cd2296b8f7c970,,,,,,,,,,,,,,,,,,,,,,,,,,,,,,,,,,,,,,,,,,,,,,,,,,,,,,,,,,,,,,,,,,,,,,,,,,,,,,,,,,,,,,,,,,,,,,,,,,,,,
,,,,,,2,0,2,0,1,X V Q F H G B L J M P D K C T S W R N Z,610d0c4142e68a34f7bfcaf2,21,Mężczyzna,2022-06-11_09h40.19.029,task,2021.1.4,Win32,119.7174668,6299f149e92ead563fba08ef,62a4469288cd2296b8f7c970,,,,,,,,,,,,,,,,,,,,,,,,,,,,,,,,,,,,,,,,,,,,,,,,,,,,,,,,,,,,,,,,,,,,,,,,,,,,,,,,,,,,,,,,,,,,,,,,,,,,,
,,,,,,3,0,3,0,1,X V Q F H G B L J M P D K C T S W R N Z,610d0c4142e68a34f7bfcaf2,21,Mężczyzna,2022-06-11_09h40.19.029,task,2021.1.4,Win32,119.7174668,6299f149e92ead563fba08ef,62a4469288cd2296b8f7c970,,,,,,,,,,,,,,,,,,,,,,,,,,,,,,,,,,,,,,,,,,,,,,,,,,,,,,,,,,,,,,,,,,,,,,,,,,,,,,,,,,,,,,,,,,,,,,,,,,,,,
,,,,,,,,,,,,610d0c4142e68a34f7bfcaf2,21,Mężczyzna,2022-06-11_09h40.19.029,task,2021.1.4,Win32,119.7174668,6299f149e92ead563fba08ef,62a4469288cd2296b8f7c970,lzmx,"[""l"",""z"",""m"",""x""]","[0.856400000000022,1.432099999999977,1.7506999999999522,2.2319000000000244,2.7265999999999764]",1,LZMX,4,0,4,0,1,,,,,,,,,,,,,,,,,,,,,,,,,,,,,,,,,,,,,,,,,,,,,,,,,,,,,,,,,,,,,,,,,,,,,,,,,,,,,,,,,,,,,,,,,,,
,,,,,,0,0,0,0,1,X V Q F H G B L J M P D K C T S W R N Z,610d0c4142e68a34f7bfcaf2,21,Mężczyzna,2022-06-11_09h40.19.029,task,2021.1.4,Win32,119.7174668,6299f149e92ead563fba08ef,62a4469288cd2296b8f7c970,,,,,,,,,,,,,,,,,,,,,,,,,,,,,,,,,,,,,,,,,,,,,,,,,,,,,,,,,,,,,,,,,,,,,,,,,,,,,,,,,,,,,,,,,,,,,,,,,,,,,
,,,,,,1,0,1,0,1,X V Q F H G B L J M P D K C T S W R N Z,610d0c4142e68a34f7bfcaf2,21,Mężczyzna,2022-06-11_09h40.19.029,task,2021.1.4,Win32,119.7174668,6299f149e92ead563fba08ef,62a4469288cd2296b8f7c970,,,,,,,,,,,,,,,,,,,,,,,,,,,,,,,,,,,,,,,,,,,,,,,,,,,,,,,,,,,,,,,,,,,,,,,,,,,,,,,,,,,,,,,,,,,,,,,,,,,,,
,,,,,,2,0,2,0,1,X V Q F H G B L J M P D K C T S W R N Z,610d0c4142e68a34f7bfcaf2,21,Mężczyzna,2022-06-11_09h40.19.029,task,2021.1.4,Win32,119.7174668,6299f149e92ead563fba08ef,62a4469288cd2296b8f7c970,,,,,,,,,,,,,,,,,,,,,,,,,,,,,,,,,,,,,,,,,,,,,,,,,,,,,,,,,,,,,,,,,,,,,,,,,,,,,,,,,,,,,,,,,,,,,,,,,,,,,
,,,,,,3,0,3,0,1,X V Q F H G B L J M P D K C T S W R N Z,610d0c4142e68a34f7bfcaf2,21,Mężczyzna,2022-06-11_09h40.19.029,task,2021.1.4,Win32,119.7174668,6299f149e92ead563fba08ef,62a4469288cd2296b8f7c970,,,,,,,,,,,,,,,,,,,,,,,,,,,,,,,,,,,,,,,,,,,,,,,,,,,,,,,,,,,,,,,,,,,,,,,,,,,,,,,,,,,,,,,,,,,,,,,,,,,,,
,,,,,,,,,,,,610d0c4142e68a34f7bfcaf2,21,Mężczyzna,2022-06-11_09h40.19.029,task,2021.1.4,Win32,119.7174668,6299f149e92ead563fba08ef,62a4469288cd2296b8f7c970,jwgf,"[""j"",""w"",""g"",""f""]","[1.4017999999999375,1.9825999999999908,2.474500000000006,3.355900000000034,4.5067999999999415]",1,JWGF,5,0,5,0,1,,,,,,,,,,,,,,,,,,,,,,,,,,,,,,,,,,,,,,,,,,,,,,,,,,,,,,,,,,,,,,,,,,,,,,,,,,,,,,,,,,,,,,,,,,,
,,,,,,0,0,0,0,1,X V Q F H G B L J M P D K C T S W R N Z,610d0c4142e68a34f7bfcaf2,21,Mężczyzna,2022-06-11_09h40.19.029,task,2021.1.4,Win32,119.7174668,6299f149e92ead563fba08ef,62a4469288cd2296b8f7c970,,,,,,,,,,,,,,,,,,,,,,,,,,,,,,,,,,,,,,,,,,,,,,,,,,,,,,,,,,,,,,,,,,,,,,,,,,,,,,,,,,,,,,,,,,,,,,,,,,,,,
,,,,,,1,0,1,0,1,X V Q F H G B L J M P D K C T S W R N Z,610d0c4142e68a34f7bfcaf2,21,Mężczyzna,2022-06-11_09h40.19.029,task,2021.1.4,Win32,119.7174668,6299f149e92ead563fba08ef,62a4469288cd2296b8f7c970,,,,,,,,,,,,,,,,,,,,,,,,,,,,,,,,,,,,,,,,,,,,,,,,,,,,,,,,,,,,,,,,,,,,,,,,,,,,,,,,,,,,,,,,,,,,,,,,,,,,,
,,,,,,2,0,2,0,1,X V Q F H G B L J M P D K C T S W R N Z,610d0c4142e68a34f7bfcaf2,21,Mężczyzna,2022-06-11_09h40.19.029,task,2021.1.4,Win32,119.7174668,6299f149e92ead563fba08ef,62a4469288cd2296b8f7c970,,,,,,,,,,,,,,,,,,,,,,,,,,,,,,,,,,,,,,,,,,,,,,,,,,,,,,,,,,,,,,,,,,,,,,,,,,,,,,,,,,,,,,,,,,,,,,,,,,,,,
,,,,,,3,0,3,0,1,X V Q F H G B L J M P D K C T S W R N Z,610d0c4142e68a34f7bfcaf2,21,Mężczyzna,2022-06-11_09h40.19.029,task,2021.1.4,Win32,119.7174668,6299f149e92ead563fba08ef,62a4469288cd2296b8f7c970,,,,,,,,,,,,,,,,,,,,,,,,,,,,,,,,,,,,,,,,,,,,,,,,,,,,,,,,,,,,,,,,,,,,,,,,,,,,,,,,,,,,,,,,,,,,,,,,,,,,,
,,,,,,4,0,4,0,1,X V Q F H G B L J M P D K C T S W R N Z,610d0c4142e68a34f7bfcaf2,21,Mężczyzna,2022-06-11_09h40.19.029,task,2021.1.4,Win32,119.7174668,6299f149e92ead563fba08ef,62a4469288cd2296b8f7c970,,,,,,,,,,,,,,,,,,,,,,,,,,,,,,,,,,,,,,,,,,,,,,,,,,,,,,,,,,,,,,,,,,,,,,,,,,,,,,,,,,,,,,,,,,,,,,,,,,,,,
,,,,,,,,,,,,610d0c4142e68a34f7bfcaf2,21,Mężczyzna,2022-06-11_09h40.19.029,task,2021.1.4,Win32,119.7174668,6299f149e92ead563fba08ef,62a4469288cd2296b8f7c970,hwzkc,"[""h"",""w"",""z"",""k"",""c""]","[1.2178999999999007,1.7305999999999813,2.8051999999999566,3.2498999999999114,3.7468999999999113,4.5465999999999696]",0,HFZKC,6,0,6,0,1,,,,,,,,,,,,,,,,,,,,,,,,,,,,,,,,,,,,,,,,,,,,,,,,,,,,,,,,,,,,,,,,,,,,,,,,,,,,,,,,,,,,,,,,,,,
,,,,,,0,0,0,0,1,X V Q F H G B L J M P D K C T S W R N Z,610d0c4142e68a34f7bfcaf2,21,Mężczyzna,2022-06-11_09h40.19.029,task,2021.1.4,Win32,119.7174668,6299f149e92ead563fba08ef,62a4469288cd2296b8f7c970,,,,,,,,,,,,,,,,,,,,,,,,,,,,,,,,,,,,,,,,,,,,,,,,,,,,,,,,,,,,,,,,,,,,,,,,,,,,,,,,,,,,,,,,,,,,,,,,,,,,,
,,,,,,1,0,1,0,1,X V Q F H G B L J M P D K C T S W R N Z,610d0c4142e68a34f7bfcaf2,21,Mężczyzna,2022-06-11_09h40.19.029,task,2021.1.4,Win32,119.7174668,6299f149e92ead563fba08ef,62a4469288cd2296b8f7c970,,,,,,,,,,,,,,,,,,,,,,,,,,,,,,,,,,,,,,,,,,,,,,,,,,,,,,,,,,,,,,,,,,,,,,,,,,,,,,,,,,,,,,,,,,,,,,,,,,,,,
,,,,,,2,0,2,0,1,X V Q F H G B L J M P D K C T S W R N Z,610d0c4142e68a34f7bfcaf2,21,Mężczyzna,2022-06-11_09h40.19.029,task,2021.1.4,Win32,119.7174668,6299f149e92ead563fba08ef,62a4469288cd2296b8f7c970,,,,,,,,,,,,,,,,,,,,,,,,,,,,,,,,,,,,,,,,,,,,,,,,,,,,,,,,,,,,,,,,,,,,,,,,,,,,,,,,,,,,,,,,,,,,,,,,,,,,,
,,,,,,3,0,3,0,1,X V Q F H G B L J M P D K C T S W R N Z,610d0c4142e68a34f7bfcaf2,21,Mężczyzna,2022-06-11_09h40.19.029,task,2021.1.4,Win32,119.7174668,6299f149e92ead563fba08ef,62a4469288cd2296b8f7c970,,,,,,,,,,,,,,,,,,,,,,,,,,,,,,,,,,,,,,,,,,,,,,,,,,,,,,,,,,,,,,,,,,,,,,,,,,,,,,,,,,,,,,,,,,,,,,,,,,,,,
,,,,,,4,0,4,0,1,X V Q F H G B L J M P D K C T S W R N Z,610d0c4142e68a34f7bfcaf2,21,Mężczyzna,2022-06-11_09h40.19.029,task,2021.1.4,Win32,119.7174668,6299f149e92ead563fba08ef,62a4469288cd2296b8f7c970,,,,,,,,,,,,,,,,,,,,,,,,,,,,,,,,,,,,,,,,,,,,,,,,,,,,,,,,,,,,,,,,,,,,,,,,,,,,,,,,,,,,,,,,,,,,,,,,,,,,,
,,,,,,,,,,,,610d0c4142e68a34f7bfcaf2,21,Mężczyzna,2022-06-11_09h40.19.029,task,2021.1.4,Win32,119.7174668,6299f149e92ead563fba08ef,62a4469288cd2296b8f7c970,kkvqh,"[""k"",""k"",""v"",""q"",""h""]","[1.1223000000000525,1.3639000000000294,13.140000000000029,13.281300000000059,13.731900000000039,14.548599999999979]",1,KKVQH,7,0,7,0,1,,,,,,,,,,,,,,,,,,,,,,,,,,,,,,,,,,,,,,,,,,,,,,,,,,,,,,,,,,,,,,,,,,,,,,,,,,,,,,,,,,,,,,,,,,,
,,,,,,0,0,0,0,1,X V Q F H G B L J M P D K C T S W R N Z,610d0c4142e68a34f7bfcaf2,21,Mężczyzna,2022-06-11_09h40.19.029,task,2021.1.4,Win32,119.7174668,6299f149e92ead563fba08ef,62a4469288cd2296b8f7c970,,,,,,,,,,,,,,,,,,,,,,,,,,,,,,,,,,,,,,,,,,,,,,,,,,,,,,,,,,,,,,,,,,,,,,,,,,,,,,,,,,,,,,,,,,,,,,,,,,,,,
,,,,,,1,0,1,0,1,X V Q F H G B L J M P D K C T S W R N Z,610d0c4142e68a34f7bfcaf2,21,Mężczyzna,2022-06-11_09h40.19.029,task,2021.1.4,Win32,119.7174668,6299f149e92ead563fba08ef,62a4469288cd2296b8f7c970,,,,,,,,,,,,,,,,,,,,,,,,,,,,,,,,,,,,,,,,,,,,,,,,,,,,,,,,,,,,,,,,,,,,,,,,,,,,,,,,,,,,,,,,,,,,,,,,,,,,,
,,,,,,2,0,2,0,1,X V Q F H G B L J M P D K C T S W R N Z,610d0c4142e68a34f7bfcaf2,21,Mężczyzna,2022-06-11_09h40.19.029,task,2021.1.4,Win32,119.7174668,6299f149e92ead563fba08ef,62a4469288cd2296b8f7c970,,,,,,,,,,,,,,,,,,,,,,,,,,,,,,,,,,,,,,,,,,,,,,,,,,,,,,,,,,,,,,,,,,,,,,,,,,,,,,,,,,,,,,,,,,,,,,,,,,,,,
,,,,,,3,0,3,0,1,X V Q F H G B L J M P D K C T S W R N Z,610d0c4142e68a34f7bfcaf2,21,Mężczyzna,2022-06-11_09h40.19.029,task,2021.1.4,Win32,119.7174668,6299f149e92ead563fba08ef,62a4469288cd2296b8f7c970,,,,,,,,,,,,,,,,,,,,,,,,,,,,,,,,,,,,,,,,,,,,,,,,,,,,,,,,,,,,,,,,,,,,,,,,,,,,,,,,,,,,,,,,,,,,,,,,,,,,,
,,,,,,4,0,4,0,1,X V Q F H G B L J M P D K C T S W R N Z,610d0c4142e68a34f7bfcaf2,21,Mężczyzna,2022-06-11_09h40.19.029,task,2021.1.4,Win32,119.7174668,6299f149e92ead563fba08ef,62a4469288cd2296b8f7c970,,,,,,,,,,,,,,,,,,,,,,,,,,,,,,,,,,,,,,,,,,,,,,,,,,,,,,,,,,,,,,,,,,,,,,,,,,,,,,,,,,,,,,,,,,,,,,,,,,,,,
,,,,,,,,,,,,610d0c4142e68a34f7bfcaf2,21,Mężczyzna,2022-06-11_09h40.19.029,task,2021.1.4,Win32,119.7174668,6299f149e92ead563fba08ef,62a4469288cd2296b8f7c970,wbwdf,"[""w"",""b"",""w"",""d"",""f""]","[0.5537999999999386,1.2595000000000027,2.1425999999999874,2.809799999999939,3.1937999999999533,4.476099999999974]",1,WBWDF,8,0,8,0,1,,,,,,,,,,,,,,,,,,,,,,,,,,,,,,,,,,,,,,,,,,,,,,,,,,,,,,,,,,,,,,,,,,,,,,,,,,,,,,,,,,,,,,,,,,,
,,,,,,0,0,0,0,1,X V Q F H G B L J M P D K C T S W R N Z,610d0c4142e68a34f7bfcaf2,21,Mężczyzna,2022-06-11_09h40.19.029,task,2021.1.4,Win32,119.7174668,6299f149e92ead563fba08ef,62a4469288cd2296b8f7c970,,,,,,,,,,,,,,,,,,,,,,,,,,,,,,,,,,,,,,,,,,,,,,,,,,,,,,,,,,,,,,,,,,,,,,,,,,,,,,,,,,,,,,,,,,,,,,,,,,,,,
,,,,,,1,0,1,0,1,X V Q F H G B L J M P D K C T S W R N Z,610d0c4142e68a34f7bfcaf2,21,Mężczyzna,2022-06-11_09h40.19.029,task,2021.1.4,Win32,119.7174668,6299f149e92ead563fba08ef,62a4469288cd2296b8f7c970,,,,,,,,,,,,,,,,,,,,,,,,,,,,,,,,,,,,,,,,,,,,,,,,,,,,,,,,,,,,,,,,,,,,,,,,,,,,,,,,,,,,,,,,,,,,,,,,,,,,,
,,,,,,2,0,2,0,1,X V Q F H G B L J M P D K C T S W R N Z,610d0c4142e68a34f7bfcaf2,21,Mężczyzna,2022-06-11_09h40.19.029,task,2021.1.4,Win32,119.7174668,6299f149e92ead563fba08ef,62a4469288cd2296b8f7c970,,,,,,,,,,,,,,,,,,,,,,,,,,,,,,,,,,,,,,,,,,,,,,,,,,,,,,,,,,,,,,,,,,,,,,,,,,,,,,,,,,,,,,,,,,,,,,,,,,,,,
,,,,,,3,0,3,0,1,X V Q F H G B L J M P D K C T S W R N Z,610d0c4142e68a34f7bfcaf2,21,Mężczyzna,2022-06-11_09h40.19.029,task,2021.1.4,Win32,119.7174668,6299f149e92ead563fba08ef,62a4469288cd2296b8f7c970,,,,,,,,,,,,,,,,,,,,,,,,,,,,,,,,,,,,,,,,,,,,,,,,,,,,,,,,,,,,,,,,,,,,,,,,,,,,,,,,,,,,,,,,,,,,,,,,,,,,,
,,,,,,4,0,4,0,1,X V Q F H G B L J M P D K C T S W R N Z,610d0c4142e68a34f7bfcaf2,21,Mężczyzna,2022-06-11_09h40.19.029,task,2021.1.4,Win32,119.7174668,6299f149e92ead563fba08ef,62a4469288cd2296b8f7c970,,,,,,,,,,,,,,,,,,,,,,,,,,,,,,,,,,,,,,,,,,,,,,,,,,,,,,,,,,,,,,,,,,,,,,,,,,,,,,,,,,,,,,,,,,,,,,,,,,,,,
,,,,,,5,0,5,0,1,X V Q F H G B L J M P D K C T S W R N Z,610d0c4142e68a34f7bfcaf2,21,Mężczyzna,2022-06-11_09h40.19.029,task,2021.1.4,Win32,119.7174668,6299f149e92ead563fba08ef,62a4469288cd2296b8f7c970,,,,,,,,,,,,,,,,,,,,,,,,,,,,,,,,,,,,,,,,,,,,,,,,,,,,,,,,,,,,,,,,,,,,,,,,,,,,,,,,,,,,,,,,,,,,,,,,,,,,,
,,,,,,,,,,,,610d0c4142e68a34f7bfcaf2,21,Mężczyzna,2022-06-11_09h40.19.029,task,2021.1.4,Win32,119.7174668,6299f149e92ead563fba08ef,62a4469288cd2296b8f7c970,hxmbmb,"[""h"",""x"",""m"",""b"",""m"",""b""]","[1.31940000000003,1.8751999999999498,2.2404999999999973,2.6750000000000114,3.0345000000000084,3.6260999999999797,9.084099999999978]",1,HXMBMB,9,0,9,0,1,,,,,,,,,,,,,,,,,,,,,,,,,,,,,,,,,,,,,,,,,,,,,,,,,,,,,,,,,,,,,,,,,,,,,,,,,,,,,,,,,,,,,,,,,,,
,,,,,,0,0,0,0,1,X V Q F H G B L J M P D K C T S W R N Z,610d0c4142e68a34f7bfcaf2,21,Mężczyzna,2022-06-11_09h40.19.029,task,2021.1.4,Win32,119.7174668,6299f149e92ead563fba08ef,62a4469288cd2296b8f7c970,,,,,,,,,,,,,,,,,,,,,,,,,,,,,,,,,,,,,,,,,,,,,,,,,,,,,,,,,,,,,,,,,,,,,,,,,,,,,,,,,,,,,,,,,,,,,,,,,,,,,
,,,,,,1,0,1,0,1,X V Q F H G B L J M P D K C T S W R N Z,610d0c4142e68a34f7bfcaf2,21,Mężczyzna,2022-06-11_09h40.19.029,task,2021.1.4,Win32,119.7174668,6299f149e92ead563fba08ef,62a4469288cd2296b8f7c970,,,,,,,,,,,,,,,,,,,,,,,,,,,,,,,,,,,,,,,,,,,,,,,,,,,,,,,,,,,,,,,,,,,,,,,,,,,,,,,,,,,,,,,,,,,,,,,,,,,,,
,,,,,,2,0,2,0,1,X V Q F H G B L J M P D K C T S W R N Z,610d0c4142e68a34f7bfcaf2,21,Mężczyzna,2022-06-11_09h40.19.029,task,2021.1.4,Win32,119.7174668,6299f149e92ead563fba08ef,62a4469288cd2296b8f7c970,,,,,,,,,,,,,,,,,,,,,,,,,,,,,,,,,,,,,,,,,,,,,,,,,,,,,,,,,,,,,,,,,,,,,,,,,,,,,,,,,,,,,,,,,,,,,,,,,,,,,
,,,,,,3,0,3,0,1,X V Q F H G B L J M P D K C T S W R N Z,610d0c4142e68a34f7bfcaf2,21,Mężczyzna,2022-06-11_09h40.19.029,task,2021.1.4,Win32,119.7174668,6299f149e92ead563fba08ef,62a4469288cd2296b8f7c970,,,,,,,,,,,,,,,,,,,,,,,,,,,,,,,,,,,,,,,,,,,,,,,,,,,,,,,,,,,,,,,,,,,,,,,,,,,,,,,,,,,,,,,,,,,,,,,,,,,,,
,,,,,,4,0,4,0,1,X V Q F H G B L J M P D K C T S W R N Z,610d0c4142e68a34f7bfcaf2,21,Mężczyzna,2022-06-11_09h40.19.029,task,2021.1.4,Win32,119.7174668,6299f149e92ead563fba08ef,62a4469288cd2296b8f7c970,,,,,,,,,,,,,,,,,,,,,,,,,,,,,,,,,,,,,,,,,,,,,,,,,,,,,,,,,,,,,,,,,,,,,,,,,,,,,,,,,,,,,,,,,,,,,,,,,,,,,
,,,,,,5,0,5,0,1,X V Q F H G B L J M P D K C T S W R N Z,610d0c4142e68a34f7bfcaf2,21,Mężczyzna,2022-06-11_09h40.19.029,task,2021.1.4,Win32,119.7174668,6299f149e92ead563fba08ef,62a4469288cd2296b8f7c970,,,,,,,,,,,,,,,,,,,,,,,,,,,,,,,,,,,,,,,,,,,,,,,,,,,,,,,,,,,,,,,,,,,,,,,,,,,,,,,,,,,,,,,,,,,,,,,,,,,,,
,,,,,,,,,,,,610d0c4142e68a34f7bfcaf2,21,Mężczyzna,2022-06-11_09h40.19.029,task,2021.1.4,Win32,119.7174668,6299f149e92ead563fba08ef,62a4469288cd2296b8f7c970,kblwxm,"[""k"",""b"",""l"",""w"",""x"",""m""]","[1.044899999999899,1.2687999999999136,1.6168999999999016,2.2072999999999183,4.100999999999999,5.384399999999886,6.015299999999911]",0,KBLWXK,10,0,10,0,1,,,,,,,,,,,,,,,,,,,,,,,,,,,,,,,,,,,,,,,,,,,,,,,,,,,,,,,,,,,,,,,,,,,,,,,,,,,,,,,,,,,,,,,,,,,
,,,,,,0,0,0,0,1,X V Q F H G B L J M P D K C T S W R N Z,610d0c4142e68a34f7bfcaf2,21,Mężczyzna,2022-06-11_09h40.19.029,task,2021.1.4,Win32,119.7174668,6299f149e92ead563fba08ef,62a4469288cd2296b8f7c970,,,,,,,,,,,,,,,,,,,,,,,,,,,,,,,,,,,,,,,,,,,,,,,,,,,,,,,,,,,,,,,,,,,,,,,,,,,,,,,,,,,,,,,,,,,,,,,,,,,,,
,,,,,,1,0,1,0,1,X V Q F H G B L J M P D K C T S W R N Z,610d0c4142e68a34f7bfcaf2,21,Mężczyzna,2022-06-11_09h40.19.029,task,2021.1.4,Win32,119.7174668,6299f149e92ead563fba08ef,62a4469288cd2296b8f7c970,,,,,,,,,,,,,,,,,,,,,,,,,,,,,,,,,,,,,,,,,,,,,,,,,,,,,,,,,,,,,,,,,,,,,,,,,,,,,,,,,,,,,,,,,,,,,,,,,,,,,
,,,,,,2,0,2,0,1,X V Q F H G B L J M P D K C T S W R N Z,610d0c4142e68a34f7bfcaf2,21,Mężczyzna,2022-06-11_09h40.19.029,task,2021.1.4,Win32,119.7174668,6299f149e92ead563fba08ef,62a4469288cd2296b8f7c970,,,,,,,,,,,,,,,,,,,,,,,,,,,,,,,,,,,,,,,,,,,,,,,,,,,,,,,,,,,,,,,,,,,,,,,,,,,,,,,,,,,,,,,,,,,,,,,,,,,,,
,,,,,,3,0,3,0,1,X V Q F H G B L J M P D K C T S W R N Z,610d0c4142e68a34f7bfcaf2,21,Mężczyzna,2022-06-11_09h40.19.029,task,2021.1.4,Win32,119.7174668,6299f149e92ead563fba08ef,62a4469288cd2296b8f7c970,,,,,,,,,,,,,,,,,,,,,,,,,,,,,,,,,,,,,,,,,,,,,,,,,,,,,,,,,,,,,,,,,,,,,,,,,,,,,,,,,,,,,,,,,,,,,,,,,,,,,
,,,,,,4,0,4,0,1,X V Q F H G B L J M P D K C T S W R N Z,610d0c4142e68a34f7bfcaf2,21,Mężczyzna,2022-06-11_09h40.19.029,task,2021.1.4,Win32,119.7174668,6299f149e92ead563fba08ef,62a4469288cd2296b8f7c970,,,,,,,,,,,,,,,,,,,,,,,,,,,,,,,,,,,,,,,,,,,,,,,,,,,,,,,,,,,,,,,,,,,,,,,,,,,,,,,,,,,,,,,,,,,,,,,,,,,,,
,,,,,,5,0,5,0,1,X V Q F H G B L J M P D K C T S W R N Z,610d0c4142e68a34f7bfcaf2,21,Mężczyzna,2022-06-11_09h40.19.029,task,2021.1.4,Win32,119.7174668,6299f149e92ead563fba08ef,62a4469288cd2296b8f7c970,,,,,,,,,,,,,,,,,,,,,,,,,,,,,,,,,,,,,,,,,,,,,,,,,,,,,,,,,,,,,,,,,,,,,,,,,,,,,,,,,,,,,,,,,,,,,,,,,,,,,
,,,,,,,,,,,,610d0c4142e68a34f7bfcaf2,21,Mężczyzna,2022-06-11_09h40.19.029,task,2021.1.4,Win32,119.7174668,6299f149e92ead563fba08ef,62a4469288cd2296b8f7c970,bmxmb,"[""b"",""m"",""x"",""m"",""b""]","[17.4611000000001,17.668700000000058,18.774,19.19110000000009,19.64910000000009,22.390900000000016]",0,BXZMVR,11,0,11,0,1,,,,,,,,,,,,,,,,,,,,,,,,,,,,,,,,,,,,,,,,,,,,,,,,,,,,,,,,,,,,,,,,,,,,,,,,,,,,,,,,,,,,,,,,,,,
,,,,,,0,0,0,0,1,X V Q F H G B L J M P D K C T S W R N Z,610d0c4142e68a34f7bfcaf2,21,Mężczyzna,2022-06-11_09h40.19.029,task,2021.1.4,Win32,119.7174668,6299f149e92ead563fba08ef,62a4469288cd2296b8f7c970,,,,,,,,,,,,,,,,,,,,,,,,,,,,,,,,,,,,,,,,,,,,,,,,,,,,,,,,,,,,,,,,,,,,,,,,,,,,,,,,,,,,,,,,,,,,,,,,,,,,,
,,,,,,1,0,1,0,1,X V Q F H G B L J M P D K C T S W R N Z,610d0c4142e68a34f7bfcaf2,21,Mężczyzna,2022-06-11_09h40.19.029,task,2021.1.4,Win32,119.7174668,6299f149e92ead563fba08ef,62a4469288cd2296b8f7c970,,,,,,,,,,,,,,,,,,,,,,,,,,,,,,,,,,,,,,,,,,,,,,,,,,,,,,,,,,,,,,,,,,,,,,,,,,,,,,,,,,,,,,,,,,,,,,,,,,,,,
,,,,,,2,0,2,0,1,X V Q F H G B L J M P D K C T S W R N Z,610d0c4142e68a34f7bfcaf2,21,Mężczyzna,2022-06-11_09h40.19.029,task,2021.1.4,Win32,119.7174668,6299f149e92ead563fba08ef,62a4469288cd2296b8f7c970,,,,,,,,,,,,,,,,,,,,,,,,,,,,,,,,,,,,,,,,,,,,,,,,,,,,,,,,,,,,,,,,,,,,,,,,,,,,,,,,,,,,,,,,,,,,,,,,,,,,,
,,,,,,3,0,3,0,1,X V Q F H G B L J M P D K C T S W R N Z,610d0c4142e68a34f7bfcaf2,21,Mężczyzna,2022-06-11_09h40.19.029,task,2021.1.4,Win32,119.7174668,6299f149e92ead563fba08ef,62a4469288cd2296b8f7c970,,,,,,,,,,,,,,,,,,,,,,,,,,,,,,,,,,,,,,,,,,,,,,,,,,,,,,,,,,,,,,,,,,,,,,,,,,,,,,,,,,,,,,,,,,,,,,,,,,,,,
,,,,,,4,0,4,0,1,X V Q F H G B L J M P D K C T S W R N Z,610d0c4142e68a34f7bfcaf2,21,Mężczyzna,2022-06-11_09h40.19.029,task,2021.1.4,Win32,119.7174668,6299f149e92ead563fba08ef,62a4469288cd2296b8f7c970,,,,,,,,,,,,,,,,,,,,,,,,,,,,,,,,,,,,,,,,,,,,,,,,,,,,,,,,,,,,,,,,,,,,,,,,,,,,,,,,,,,,,,,,,,,,,,,,,,,,,
,,,,,,5,0,5,0,1,X V Q F H G B L J M P D K C T S W R N Z,610d0c4142e68a34f7bfcaf2,21,Mężczyzna,2022-06-11_09h40.19.029,task,2021.1.4,Win32,119.7174668,6299f149e92ead563fba08ef,62a4469288cd2296b8f7c970,,,,,,,,,,,,,,,,,,,,,,,,,,,,,,,,,,,,,,,,,,,,,,,,,,,,,,,,,,,,,,,,,,,,,,,,,,,,,,,,,,,,,,,,,,,,,,,,,,,,,
,,,,,,,,,,,,610d0c4142e68a34f7bfcaf2,21,Mężczyzna,2022-06-11_09h40.19.029,task,2021.1.4,Win32,119.7174668,6299f149e92ead563fba08ef,62a4469288cd2296b8f7c970,mvdcvl,"[""m"",""v"",""d"",""c"",""v"",""l""]","[1.2096999999999696,2.52019999999996,3.319699999999955,3.8916999999999575,9.36829999999992,9.450699999999955,10.008499999999998]",0,MVDCGT,12,0,12,0,1,,,,,,,,,,,,,,,,,,,,,,,,,,,,,,,,,,,,,,,,,,,,,,,,,,,,,,,,,,,,,,,,,,,,,,,,,,,,,,,,,,,,,,,,,,,
,,,,,,,,,,,,610d0c4142e68a34f7bfcaf2,21,Mężczyzna,2022-06-11_09h40.19.029,task,2021.1.4,Win32,119.7174668,6299f149e92ead563fba08ef,62a4469288cd2296b8f7c970,,,,,,,,,,,space,8.9917,2,"[""2""]",1,[13.885500000000008],[13.885500000000008],0,0,0,2,1,Practice,3,(4x4) - 14,2,,,,,,,,,,,,,,,,,,,,,,,,,,,,,,,,,,,,,,,,,,,,,,,,,,,,,,,,,,,,,,,,,,,,,,,,,,,
,,,,,,,,,,,,610d0c4142e68a34f7bfcaf2,21,Mężczyzna,2022-06-11_09h40.19.029,task,2021.1.4,Win32,119.7174668,6299f149e92ead563fba08ef,62a4469288cd2296b8f7c970,,,,,,,,,,,,,7,"[""7""]",1,[3.600199999999944],"[13.885500000000008,3.600199999999944]",0,1,1,7,1,Practice,8,(5x5) - 18,7,,,,,,,,,,,,,,,,,,,,,,,,,,,,,,,,,,,,,,,,,,,,,,,,,,,,,,,,,,,,,,,,,,,,,,,,,,,
,,,,,,,,,,,,610d0c4142e68a34f7bfcaf2,21,Mężczyzna,2022-06-11_09h40.19.029,task,2021.1.4,Win32,119.7174668,6299f149e92ead563fba08ef,62a4469288cd2296b8f7c970,,,,,,,,,,,,,6,"[""6""]",1,[3.1838000000000193],"[13.885500000000008,3.600199999999944,3.1838000000000193]",0,2,2,6,1,Practice,7,(25/5) + 1,6,,,,,,,,,,,,,,,,,,,,,,,,,,,,,,,,,,,,,,,,,,,,,,,,,,,,,,,,,,,,,,,,,,,,,,,,,,,
,,,,,,,,,,,,610d0c4142e68a34f7bfcaf2,21,Mężczyzna,2022-06-11_09h40.19.029,task,2021.1.4,Win32,119.7174668,6299f149e92ead563fba08ef,62a4469288cd2296b8f7c970,,,,,,,,,,,,,3,"[""3""]",1,[2.1675999999999362],"[13.885500000000008,3.600199999999944,3.1838000000000193,2.1675999999999362]",0,3,3,3,1,Practice,4,(8/4) + 1,3,,,,,,,,,,,,,,,,,,,,,,,,,,,,,,,,,,,,,,,,,,,,,,,,,,,,,,,,,,,,,,,,,,,,,,,,,,,
,,,,,,,,,,,,610d0c4142e68a34f7bfcaf2,21,Mężczyzna,2022-06-11_09h40.19.029,task,2021.1.4,Win32,119.7174668,6299f149e92ead563fba08ef,62a4469288cd2296b8f7c970,,,,,,,,,,,,,4,"[""4""]",1,[6.653099999999938],"[13.885500000000008,3.600199999999944,3.1838000000000193,2.1675999999999362,6.653099999999938]",0,4,4,4,1,Practice,5,(2x6) - 8,4,,,,,,,,,,,,,,,,,,,,,,,,,,,,,,,,,,,,,,,,,,,,,,,,,,,,,,,,,,,,,,,,,,,,,,,,,,,
,,,,,,,,,,,,610d0c4142e68a34f7bfcaf2,21,Mężczyzna,2022-06-11_09h40.19.029,task,2021.1.4,Win32,119.7174668,6299f149e92ead563fba08ef,62a4469288cd2296b8f7c970,,,,,,,,,,,,,9,"[""9""]",1,[3.117500000000007],"[13.885500000000008,3.600199999999944,3.1838000000000193,2.1675999999999362,6.653099999999938,3.117500000000007]",0,5,5,9,1,Practice,10,(20/2) - 1,9,,,,,,,,,,,,,,,,,,,,,,,,,,,,,,,,,,,,,,,,,,,,,,,,,,,,,,,,,,,,,,,,,,,,,,,,,,,
,,,,,,,,,,,,610d0c4142e68a34f7bfcaf2,21,Mężczyzna,2022-06-11_09h40.19.029,task,2021.1.4,Win32,119.7174668,6299f149e92ead563fba08ef,62a4469288cd2296b8f7c970,,,,,,,,,,,,,0,"[""0""]",1,[2.5340999999999667],"[13.885500000000008,3.600199999999944,3.1838000000000193,2.1675999999999362,6.653099999999938,3.117500000000007,2.5340999999999667]",0,6,6,0,1,Practice,1,(3x3) -  9,0,,,,,,,,,,,,,,,,,,,,,,,,,,,,,,,,,,,,,,,,,,,,,,,,,,,,,,,,,,,,,,,,,,,,,,,,,,,
,,,,,,,,,,,,610d0c4142e68a34f7bfcaf2,21,Mężczyzna,2022-06-11_09h40.19.029,task,2021.1.4,Win32,119.7174668,6299f149e92ead563fba08ef,62a4469288cd2296b8f7c970,,,,,,,,,,,,,8,"[""8""]",1,[7.559799999999939],"[13.885500000000008,3.600199999999944,3.1838000000000193,2.1675999999999362,6.653099999999938,3.117500000000007,2.5340999999999667,7.559799999999939]",0,7,7,8,1,Practice,9,(3x3) - 1,8,,,,,,,,,,,,,,,,,,,,,,,,,,,,,,,,,,,,,,,,,,,,,,,,,,,,,,,,,,,,,,,,,,,,,,,,,,,
,,,,,,,,,,,,610d0c4142e68a34f7bfcaf2,21,Mężczyzna,2022-06-11_09h40.19.029,task,2021.1.4,Win32,119.7174668,6299f149e92ead563fba08ef,62a4469288cd2296b8f7c970,,,,,,,,,,,,,5,"[""5""]",1,[3.3530999999999835],"[13.885500000000008,3.600199999999944,3.1838000000000193,2.1675999999999362,6.653099999999938,3.117500000000007,2.5340999999999667,7.559799999999939,3.3530999999999835]",0,8,8,5,1,Practice,6,(4/2) + 3,5,,,,,,,,,,,,,,,,,,,,,,,,,,,,,,,,,,,,,,,,,,,,,,,,,,,,,,,,,,,,,,,,,,,,,,,,,,,
,,,,,,,,,,,,610d0c4142e68a34f7bfcaf2,21,Mężczyzna,2022-06-11_09h40.19.029,task,2021.1.4,Win32,119.7174668,6299f149e92ead563fba08ef,62a4469288cd2296b8f7c970,,,,,,,,,,,,,1,"[""1""]",1,[3.917100000000005],"[13.885500000000008,3.600199999999944,3.1838000000000193,2.1675999999999362,6.653099999999938,3.117500000000007,2.5340999999999667,7.559799999999939,3.3530999999999835,3.917100000000005]",0,9,9,1,1,Practice,2,(4x4) - 15,1,,,,,,,,,,,,,,,,,,,,,,,,,,,,,,,,,,,,,,,,,,,,,,,,,,,,,,,,,,,,,,,,,,,,,,,,,,,
,,,,,,,,,,,,610d0c4142e68a34f7bfcaf2,21,Mężczyzna,2022-06-11_09h40.19.029,task,2021.1.4,Win32,119.7174668,6299f149e92ead563fba08ef,62a4469288cd2296b8f7c970,,,,,,,,,,,,,,,,,,,,,,,,,,,1,49.9718,3.331453333,142.773733,3.085165938,11.29118145,space,2.7107,0,0,0,0,1,,,,,,,,,,,,,,,,,,,,,,,,,,,,,,,,,,,,,,,,,,,,,,,,,,,,,,,,,,,,,,
,,,,,,,,,,,,610d0c4142e68a34f7bfcaf2,21,Mężczyzna,2022-06-11_09h40.19.029,task,2021.1.4,Win32,119.7174668,6299f149e92ead563fba08ef,62a4469288cd2296b8f7c970,,,,,,,,,,,,,0,,,,,,,,,,Practice,1,(3x3) -  9,0,,,,,,,,,,,,,,space,61.9035,"[""0""]",1,[3.62560000000002],1,0,0,0,0,1,,,,,,,,,,,,,,,,,,,,,,,,,,,,,,,,,,,,,,,,,,,,,,,,,,,
,,,,,,,,,,,X V Q F H G B L J M P D K C T S W R N Z,610d0c4142e68a34f7bfcaf2,21,Mężczyzna,2022-06-11_09h40.19.029,task,2021.1.4,Win32,119.7174668,6299f149e92ead563fba08ef,62a4469288cd2296b8f7c970,,,,,,,,,,,,,,,,,,,,,,,,,,,,,,,,,,,,,,,,,,,,,,,,,,,0,0,0,0,1,,,,,,,,,,,,,,,,,,,,,,,,,,,,,,,,,,,,,,,,,,,,,,
,,,,,,,,,,,,610d0c4142e68a34f7bfcaf2,21,Mężczyzna,2022-06-11_09h40.19.029,task,2021.1.4,Win32,119.7174668,6299f149e92ead563fba08ef,62a4469288cd2296b8f7c970,,,,,,,,,,,,,3,,,,,,,,,,Practice,4,(8/4) + 1,3,,,,,,,,,,,,,,,,"[""3""]",1,[5.026700000000062],1,0,0,0,3,1,,,,,,,,,,,,,,,,,,,,,,,,,,,,,,,,,,,,,,,,,,,,,,,,,,,
,,,,,,,,,,,X V Q F H G B L J M P D K C T S W R N Z,610d0c4142e68a34f7bfcaf2,21,Mężczyzna,2022-06-11_09h40.19.029,task,2021.1.4,Win32,119.7174668,6299f149e92ead563fba08ef,62a4469288cd2296b8f7c970,,,,,,,,,,,,,,,,,,,,,,,,,,,,,,,,,,,,,,,,,,,,,,,,,,,1,0,1,0,1,,,,,,,,,,,,,,,,,,,,,,,,,,,,,,,,,,,,,,,,,,,,,,
,,,,,,,,,,,,610d0c4142e68a34f7bfcaf2,21,Mężczyzna,2022-06-11_09h40.19.029,task,2021.1.4,Win32,119.7174668,6299f149e92ead563fba08ef,62a4469288cd2296b8f7c970,,,,,,,,,,,,,,,,,,,,,,,,,,,,,,,,,,,,,,,,,,,,,,,,,,,,,,,,zj,"[""z"",""j""]",0,"[2.0079000000000065,2.1853000000000407,3.624300000000005]",1,0,0,0,0,1,,,,,,,,,,,,,,,,,,,,,,,,,,,,,,,,,,,,
,,,,,,,,,,,,610d0c4142e68a34f7bfcaf2,21,Mężczyzna,2022-06-11_09h40.19.029,task,2021.1.4,Win32,119.7174668,6299f149e92ead563fba08ef,62a4469288cd2296b8f7c970,,,,,,,,,,,,,9,,,,,,,,,,Practice,10,(20/2) - 1,9,,,,,,,,,,,,,,,,"[""9""]",1,[8.792199999999923],1,0,0,0,9,1,,,,,,,,,,,,,,,,,,,,,,,,,,,,,,,,,,,,,,,,,,,,,,,,,,,
,,,,,,,,,,,X V Q F H G B L J M P D K C T S W R N Z,610d0c4142e68a34f7bfcaf2,21,Mężczyzna,2022-06-11_09h40.19.029,task,2021.1.4,Win32,119.7174668,6299f149e92ead563fba08ef,62a4469288cd2296b8f7c970,,,,,,,,,,,,,,,,,,,,,,,,,,,,,,,,,,,,,,,,,,,,,,,,,,,0,0,0,0,1,,,,,,,,,,,,,,,,,,,,,,,,,,,,,,,,,,,,,,,,,,,,,,
,,,,,,,,,,,,610d0c4142e68a34f7bfcaf2,21,Mężczyzna,2022-06-11_09h40.19.029,task,2021.1.4,Win32,119.7174668,6299f149e92ead563fba08ef,62a4469288cd2296b8f7c970,,,,,,,,,,,,,0,,,,,,,,,,Practice,1,(3x3) -  9,0,,,,,,,,,,,,,,,,"[""0""]",1,[3.2420000000000186],1,0,0,0,0,1,,,,,,,,,,,,,,,,,,,,,,,,,,,,,,,,,,,,,,,,,,,,,,,,,,,
,,,,,,,,,,,X V Q F H G B L J M P D K C T S W R N Z,610d0c4142e68a34f7bfcaf2,21,Mężczyzna,2022-06-11_09h40.19.029,task,2021.1.4,Win32,119.7174668,6299f149e92ead563fba08ef,62a4469288cd2296b8f7c970,,,,,,,,,,,,,,,,,,,,,,,,,,,,,,,,,,,,,,,,,,,,,,,,,,,1,0,1,0,1,,,,,,,,,,,,,,,,,,,,,,,,,,,,,,,,,,,,,,,,,,,,,,
,,,,,,,,,,,,610d0c4142e68a34f7bfcaf2,21,Mężczyzna,2022-06-11_09h40.19.029,task,2021.1.4,Win32,119.7174668,6299f149e92ead563fba08ef,62a4469288cd2296b8f7c970,,,,,,,,,,,,,,,,,,,,,,,,,,,,,,,,,,,,,,,,,,,,,,,,,,,,,,,,qx,"[""q"",""x""]",0,"[1.8211999999999193,2.3497999999999024,2.90969999999993]",1,1,0,1,0,1,,,,,,,,,,,,,,,,,,,,,,,,,,,,,,,,,,,,
,,,,,,,,,,,,610d0c4142e68a34f7bfcaf2,21,Mężczyzna,2022-06-11_09h40.19.029,task,2021.1.4,Win32,119.7174668,6299f149e92ead563fba08ef,62a4469288cd2296b8f7c970,,,,,,,,,,,,,3,,,,,,,,,,Practice,4,(8/4) + 1,3,,,,,,,,,,,,,,,,"[""3""]",1,[3.0131999999999266],1,0,0,0,3,1,,,,,,,,,,,,,,,,,,,,,,,,,,,,,,,,,,,,,,,,,,,,,,,,,,,
,,,,,,,,,,,X V Q F H G B L J M P D K C T S W R N Z,610d0c4142e68a34f7bfcaf2,21,Mężczyzna,2022-06-11_09h40.19.029,task,2021.1.4,Win32,119.7174668,6299f149e92ead563fba08ef,62a4469288cd2296b8f7c970,,,,,,,,,,,,,,,,,,,,,,,,,,,,,,,,,,,,,,,,,,,,,,,,,,,0,0,0,0,1,,,,,,,,,,,,,,,,,,,,,,,,,,,,,,,,,,,,,,,,,,,,,,
,,,,,,,,,,,,610d0c4142e68a34f7bfcaf2,21,Mężczyzna,2022-06-11_09h40.19.029,task,2021.1.4,Win32,119.7174668,6299f149e92ead563fba08ef,62a4469288cd2296b8f7c970,,,,,,,,,,,,,2,,,,,,,,,,Practice,3,(4x4) - 14,2,,,,,,,,,,,,,,,,"[""2""]",1,[2.451199999999915],1,0,0,0,2,1,,,,,,,,,,,,,,,,,,,,,,,,,,,,,,,,,,,,,,,,,,,,,,,,,,,
,,,,,,,,,,,X V Q F H G B L J M P D K C T S W R N Z,610d0c4142e68a34f7bfcaf2,21,Mężczyzna,2022-06-11_09h40.19.029,task,2021.1.4,Win32,119.7174668,6299f149e92ead563fba08ef,62a4469288cd2296b8f7c970,,,,,,,,,,,,,,,,,,,,,,,,,,,,,,,,,,,,,,,,,,,,,,,,,,,1,0,1,0,1,,,,,,,,,,,,,,,,,,,,,,,,,,,,,,,,,,,,,,,,,,,,,,
,,,,,,,,,,,,610d0c4142e68a34f7bfcaf2,21,Mężczyzna,2022-06-11_09h40.19.029,task,2021.1.4,Win32,119.7174668,6299f149e92ead563fba08ef,62a4469288cd2296b8f7c970,,,,,,,,,,,,,,,,,,,,,,,,,,,,,,,,,,,,,,,,,,,,,,,,,,,,,,,,zc,"[""z"",""c""]",0,"[1.4864000000000601,1.6484000000000378,1.9342999999999506]",1,2,0,2,0,1,,,,,,,,,,,,,,,,,,,,,,,,,,,,,,,,,,,,
,,,,,,,,,,,,610d0c4142e68a34f7bfcaf2,21,Mężczyzna,2022-06-11_09h40.19.029,task,2021.1.4,Win32,119.7174668,6299f149e92ead563fba08ef,62a4469288cd2296b8f7c970,,,,,,,,,,,,,6,,,,,,,,,,Task,13,(3x4) - 6,6,,,,,,,,,,,,,,,,,,,1,,,,,,,,,,,,,,,,,,,,,space,23.3487,"[""6""]",1,[9.066500000000019],0,0,0,12,1,,,,,,,,,,,,,,,,,,,,,,,,,,
,,,,,,,,,,,X V Q F H G B L J M P D K C T S W R N Z,610d0c4142e68a34f7bfcaf2,21,Mężczyzna,2022-06-11_09h40.19.029,task,2021.1.4,Win32,119.7174668,6299f149e92ead563fba08ef,62a4469288cd2296b8f7c970,,,,,,,,,,,,,,,,,,,,,,,,,,,,,,,,,,,,,,,,,,,,,,,,,,,,,,,,,,,,,,,,,,,,,,,,,,,,0,0,0,0,1,,,,,,,,,,,,,,,,,,,,,
,,,,,,,,,,,,610d0c4142e68a34f7bfcaf2,21,Mężczyzna,2022-06-11_09h40.19.029,task,2021.1.4,Win32,119.7174668,6299f149e92ead563fba08ef,62a4469288cd2296b8f7c970,,,,,,,,,,,,,0,,,,,,,,,,Task,17,(2x3) - 6,0,,,,,,,,,,,,,,,,,,,1,,,,,,,,,,,,,,,,,,,,,,,"[""0""]",1,[9.157300000000077],0,0,0,16,1,,,,,,,,,,,,,,,,,,,,,,,,,,
,,,,,,,,,,,X V Q F H G B L J M P D K C T S W R N Z,610d0c4142e68a34f7bfcaf2,21,Mężczyzna,2022-06-11_09h40.19.029,task,2021.1.4,Win32,119.7174668,6299f149e92ead563fba08ef,62a4469288cd2296b8f7c970,,,,,,,,,,,,,,,,,,,,,,,,,,,,,,,,,,,,,,,,,,,,,,,,,,,,,,,,,,,,,,,,,,,,,,,,,,,,1,0,1,0,1,,,,,,,,,,,,,,,,,,,,,
,,,,,,,,,,,,610d0c4142e68a34f7bfcaf2,21,Mężczyzna,2022-06-11_09h40.19.029,task,2021.1.4,Win32,119.7174668,6299f149e92ead563fba08ef,62a4469288cd2296b8f7c970,,,,,,,,,,,,,,,,,,,,,,,,,,,,,,,,,,,,,,,,,,,,,,,,,,,,,,,,,,,,,,,,,,,,,,,,,,,,,,,,,zk,"[""z"",""k""]",0,"[5.31269999999995,5.476699999999937,5.9683999999998605]",1,ZK,0,0,0,0,1,,,,,,,,,,
,,,,,,,,,,,,610d0c4142e68a34f7bfcaf2,21,Mężczyzna,2022-06-11_09h40.19.029,task,2021.1.4,Win32,119.7174668,6299f149e92ead563fba08ef,62a4469288cd2296b8f7c970,,,,,,,,,,,,,1,,,,,,,,,,Task,1,(12/6) - 1,1,,,,,,,,,,,,,,,,,,,1,,,,,,,,,,,,,,,,,,,,,,,"[""1""]",1,[7.258699999999919],0,0,0,0,1,,,,,,,,,,,,,,,,,,,,,,,,,,
,,,,,,,,,,,X V Q F H G B L J M P D K C T S W R N Z,610d0c4142e68a34f7bfcaf2,21,Mężczyzna,2022-06-11_09h40.19.029,task,2021.1.4,Win32,119.7174668,6299f149e92ead563fba08ef,62a4469288cd2296b8f7c970,,,,,,,,,,,,,,,,,,,,,,,,,,,,,,,,,,,,,,,,,,,,,,,,,,,,,,,,,,,,,,,,,,,,,,,,,,,,0,0,0,0,1,,,,,,,,,,,,,,,,,,,,,
,,,,,,,,,,,,610d0c4142e68a34f7bfcaf2,21,Mężczyzna,2022-06-11_09h40.19.029,task,2021.1.4,Win32,119.7174668,6299f149e92ead563fba08ef,62a4469288cd2296b8f7c970,,,,,,,,,,,,,7,,,,,,,,,,Task,6,(12/2) + 1,7,,,,,,,,,,,,,,,,,,,1,,,,,,,,,,,,,,,,,,,,,,,"[""7""]",1,[3.86790000000002],0,0,0,5,1,,,,,,,,,,,,,,,,,,,,,,,,,,
,,,,,,,,,,,X V Q F H G B L J M P D K C T S W R N Z,610d0c4142e68a34f7bfcaf2,21,Mężczyzna,2022-06-11_09h40.19.029,task,2021.1.4,Win32,119.7174668,6299f149e92ead563fba08ef,62a4469288cd2296b8f7c970,,,,,,,,,,,,,,,,,,,,,,,,,,,,,,,,,,,,,,,,,,,,,,,,,,,,,,,,,,,,,,,,,,,,,,,,,,,,1,0,1,0,1,,,,,,,,,,,,,,,,,,,,,
,,,,,,,,,,,,610d0c4142e68a34f7bfcaf2,21,Mężczyzna,2022-06-11_09h40.19.029,task,2021.1.4,Win32,119.7174668,6299f149e92ead563fba08ef,62a4469288cd2296b8f7c970,,,,,,,,,,,,,5,,,,,,,,,,Task,36,(8/4) + 3,5,,,,,,,,,,,,,,,,,,,1,,,,,,,,,,,,,,,,,,,,,,,"[""5""]",1,[4.624599999999987],0,0,0,35,1,,,,,,,,,,,,,,,,,,,,,,,,,,
,,,,,,,,,,,X V Q F H G B L J M P D K C T S W R N Z,610d0c4142e68a34f7bfcaf2,21,Mężczyzna,2022-06-11_09h40.19.029,task,2021.1.4,Win32,119.7174668,6299f149e92ead563fba08ef,62a4469288cd2296b8f7c970,,,,,,,,,,,,,,,,,,,,,,,,,,,,,,,,,,,,,,,,,,,,,,,,,,,,,,,,,,,,,,,,,,,,,,,,,,,,2,0,2,0,1,,,,,,,,,,,,,,,,,,,,,
,,,,,,,,,,,,610d0c4142e68a34f7bfcaf2,21,Mężczyzna,2022-06-11_09h40.19.029,task,2021.1.4,Win32,119.7174668,6299f149e92ead563fba08ef,62a4469288cd2296b8f7c970,,,,,,,,,,,,,,,,,,,,,,,,,,,,,,,,,,,,,,,,,,,,,,,,,,,,,,,,,,,,,,,,,,,,,,,,,,,,,,,,,zdh,"[""z"",""d"",""h""]",0,"[2.10979999999995,2.5288999999999078,2.8923999999999523,4.874199999999973]",1,ZDH,1,0,1,0,1,,,,,,,,,,
,,,,,,,,,,,,610d0c4142e68a34f7bfcaf2,21,Mężczyzna,2022-06-11_09h40.19.029,task,2021.1.4,Win32,119.7174668,6299f149e92ead563fba08ef,62a4469288cd2296b8f7c970,,,,,,,,,,,,,5,,,,,,,,,,Task,22,(3x1) + 2,5,,,,,,,,,,,,,,,,,,,1,,,,,,,,,,,,,,,,,,,,,,,"[""5""]",1,[3.0512999999999693],0,0,0,21,1,,,,,,,,,,,,,,,,,,,,,,,,,,
,,,,,,,,,,,X V Q F H G B L J M P D K C T S W R N Z,610d0c4142e68a34f7bfcaf2,21,Mężczyzna,2022-06-11_09h40.19.029,task,2021.1.4,Win32,119.7174668,6299f149e92ead563fba08ef,62a4469288cd2296b8f7c970,,,,,,,,,,,,,,,,,,,,,,,,,,,,,,,,,,,,,,,,,,,,,,,,,,,,,,,,,,,,,,,,,,,,,,,,,,,,0,0,0,0,1,,,,,,,,,,,,,,,,,,,,,
,,,,,,,,,,,,610d0c4142e68a34f7bfcaf2,21,Mężczyzna,2022-06-11_09h40.19.029,task,2021.1.4,Win32,119.7174668,6299f149e92ead563fba08ef,62a4469288cd2296b8f7c970,,,,,,,,,,,,,3,,,,,,,,,,Task,27,(3/3) + 2,3,,,,,,,,,,,,,,,,,,,1,,,,,,,,,,,,,,,,,,,,,,,"[""3""]",1,[6.016700000000014],0,0,0,26,1,,,,,,,,,,,,,,,,,,,,,,,,,,
,,,,,,,,,,,X V Q F H G B L J M P D K C T S W R N Z,610d0c4142e68a34f7bfcaf2,21,Mężczyzna,2022-06-11_09h40.19.029,task,2021.1.4,Win32,119.7174668,6299f149e92ead563fba08ef,62a4469288cd2296b8f7c970,,,,,,,,,,,,,,,,,,,,,,,,,,,,,,,,,,,,,,,,,,,,,,,,,,,,,,,,,,,,,,,,,,,,,,,,,,,,1,0,1,0,1,,,,,,,,,,,,,,,,,,,,,
,,,,,,,,,,,,610d0c4142e68a34f7bfcaf2,21,Mężczyzna,2022-06-11_09h40.19.029,task,2021.1.4,Win32,119.7174668,6299f149e92ead563fba08ef,62a4469288cd2296b8f7c970,,,,,,,,,,,,,1,,,,,,,,,,Task,18,(16/4) - 3,1,,,,,,,,,,,,,,,,,,,1,,,,,,,,,,,,,,,,,,,,,,,"[""1""]",1,[6.725900000000024],0,0,0,17,1,,,,,,,,,,,,,,,,,,,,,,,,,,
,,,,,,,,,,,X V Q F H G B L J M P D K C T S W R N Z,610d0c4142e68a34f7bfcaf2,21,Mężczyzna,2022-06-11_09h40.19.029,task,2021.1.4,Win32,119.7174668,6299f149e92ead563fba08ef,62a4469288cd2296b8f7c970,,,,,,,,,,,,,,,,,,,,,,,,,,,,,,,,,,,,,,,,,,,,,,,,,,,,,,,,,,,,,,,,,,,,,,,,,,,,2,0,2,0,1,,,,,,,,,,,,,,,,,,,,,
,,,,,,,,,,,,610d0c4142e68a34f7bfcaf2,21,Mężczyzna,2022-06-11_09h40.19.029,task,2021.1.4,Win32,119.7174668,6299f149e92ead563fba08ef,62a4469288cd2296b8f7c970,,,,,,,,,,,,,9,,,,,,,,,,Task,40,(7x2) - 5,9,,,,,,,,,,,,,,,,,,,1,,,,,,,,,,,,,,,,,,,,,,,"[""9""]",1,[2.563299999999913],0,0,0,39,1,,,,,,,,,,,,,,,,,,,,,,,,,,
,,,,,,,,,,,X V Q F H G B L J M P D K C T S W R N Z,610d0c4142e68a34f7bfcaf2,21,Mężczyzna,2022-06-11_09h40.19.029,task,2021.1.4,Win32,119.7174668,6299f149e92ead563fba08ef,62a4469288cd2296b8f7c970,,,,,,,,,,,,,,,,,,,,,,,,,,,,,,,,,,,,,,,,,,,,,,,,,,,,,,,,,,,,,,,,,,,,,,,,,,,,3,0,3,0,1,,,,,,,,,,,,,,,,,,,,,
,,,,,,,,,,,,610d0c4142e68a34f7bfcaf2,21,Mężczyzna,2022-06-11_09h40.19.029,task,2021.1.4,Win32,119.7174668,6299f149e92ead563fba08ef,62a4469288cd2296b8f7c970,,,,,,,,,,,,,,,,,,,,,,,,,,,,,,,,,,,,,,,,,,,,,,,,,,,,,,,,,,,,,,,,,,,,,,,,,,,,,,,,,lwfb,"[""l"",""w"",""f"",""b""]",0,"[4.0680999999999585,4.785599999999931,5.842700000000036,6.332499999999982,8.850599999999986]",1,LWFB,2,0,2,0,1,,,,,,,,,,
,,,,,,,,,,,,610d0c4142e68a34f7bfcaf2,21,Mężczyzna,2022-06-11_09h40.19.029,task,2021.1.4,Win32,119.7174668,6299f149e92ead563fba08ef,62a4469288cd2296b8f7c970,,,,,,,,,,,,,6,,,,,,,,,,Task,30,(6/3) + 4 ,6,,,,,,,,,,,,,,,,,,,1,,,,,,,,,,,,,,,,,,,,,,,"[""6""]",1,[4.805400000000077],0,0,0,29,1,,,,,,,,,,,,,,,,,,,,,,,,,,
,,,,,,,,,,,X V Q F H G B L J M P D K C T S W R N Z,610d0c4142e68a34f7bfcaf2,21,Mężczyzna,2022-06-11_09h40.19.029,task,2021.1.4,Win32,119.7174668,6299f149e92ead563fba08ef,62a4469288cd2296b8f7c970,,,,,,,,,,,,,,,,,,,,,,,,,,,,,,,,,,,,,,,,,,,,,,,,,,,,,,,,,,,,,,,,,,,,,,,,,,,,0,0,0,0,1,,,,,,,,,,,,,,,,,,,,,
,,,,,,,,,,,,610d0c4142e68a34f7bfcaf2,21,Mężczyzna,2022-06-11_09h40.19.029,task,2021.1.4,Win32,119.7174668,6299f149e92ead563fba08ef,62a4469288cd2296b8f7c970,,,,,,,,,,,,,5,,,,,,,,,,Task,22,(3x1) + 2,5,,,,,,,,,,,,,,,,,,,1,,,,,,,,,,,,,,,,,,,,,,,"[""5""]",1,[2.266899999999964],0,0,0,21,1,,,,,,,,,,,,,,,,,,,,,,,,,,
,,,,,,,,,,,X V Q F H G B L J M P D K C T S W R N Z,610d0c4142e68a34f7bfcaf2,21,Mężczyzna,2022-06-11_09h40.19.029,task,2021.1.4,Win32,119.7174668,6299f149e92ead563fba08ef,62a4469288cd2296b8f7c970,,,,,,,,,,,,,,,,,,,,,,,,,,,,,,,,,,,,,,,,,,,,,,,,,,,,,,,,,,,,,,,,,,,,,,,,,,,,1,0,1,0,1,,,,,,,,,,,,,,,,,,,,,
,,,,,,,,,,,,610d0c4142e68a34f7bfcaf2,21,Mężczyzna,2022-06-11_09h40.19.029,task,2021.1.4,Win32,119.7174668,6299f149e92ead563fba08ef,62a4469288cd2296b8f7c970,,,,,,,,,,,,,3,,,,,,,,,,Task,3,(2x3) - 3,3,,,,,,,,,,,,,,,,,,,1,,,,,,,,,,,,,,,,,,,,,,,"[""3""]",1,[4.143299999999954],0,0,0,2,1,,,,,,,,,,,,,,,,,,,,,,,,,,
,,,,,,,,,,,X V Q F H G B L J M P D K C T S W R N Z,610d0c4142e68a34f7bfcaf2,21,Mężczyzna,2022-06-11_09h40.19.029,task,2021.1.4,Win32,119.7174668,6299f149e92ead563fba08ef,62a4469288cd2296b8f7c970,,,,,,,,,,,,,,,,,,,,,,,,,,,,,,,,,,,,,,,,,,,,,,,,,,,,,,,,,,,,,,,,,,,,,,,,,,,,2,0,2,0,1,,,,,,,,,,,,,,,,,,,,,
,,,,,,,,,,,,610d0c4142e68a34f7bfcaf2,21,Mężczyzna,2022-06-11_09h40.19.029,task,2021.1.4,Win32,119.7174668,6299f149e92ead563fba08ef,62a4469288cd2296b8f7c970,,,,,,,,,,,,,9,,,,,,,,,,Task,40,(7x2) - 5,9,,,,,,,,,,,,,,,,,,,1,,,,,,,,,,,,,,,,,,,,,,,"[""9""]",1,[3.3491000000000213],0,0,0,39,1,,,,,,,,,,,,,,,,,,,,,,,,,,
,,,,,,,,,,,X V Q F H G B L J M P D K C T S W R N Z,610d0c4142e68a34f7bfcaf2,21,Mężczyzna,2022-06-11_09h40.19.029,task,2021.1.4,Win32,119.7174668,6299f149e92ead563fba08ef,62a4469288cd2296b8f7c970,,,,,,,,,,,,,,,,,,,,,,,,,,,,,,,,,,,,,,,,,,,,,,,,,,,,,,,,,,,,,,,,,,,,,,,,,,,,3,0,3,0,1,,,,,,,,,,,,,,,,,,,,,
,,,,,,,,,,,,610d0c4142e68a34f7bfcaf2,21,Mężczyzna,2022-06-11_09h40.19.029,task,2021.1.4,Win32,119.7174668,6299f149e92ead563fba08ef,62a4469288cd2296b8f7c970,,,,,,,,,,,,,8,,,,,,,,,,Task,15,(3x7) - 13,8,,,,,,,,,,,,,,,,,,,1,,,,,,,,,,,,,,,,,,,,,,,"[""8""]",1,[6.016699999999901],0,0,0,14,1,,,,,,,,,,,,,,,,,,,,,,,,,,
,,,,,,,,,,,X V Q F H G B L J M P D K C T S W R N Z,610d0c4142e68a34f7bfcaf2,21,Mężczyzna,2022-06-11_09h40.19.029,task,2021.1.4,Win32,119.7174668,6299f149e92ead563fba08ef,62a4469288cd2296b8f7c970,,,,,,,,,,,,,,,,,,,,,,,,,,,,,,,,,,,,,,,,,,,,,,,,,,,,,,,,,,,,,,,,,,,,,,,,,,,,4,0,4,0,1,,,,,,,,,,,,,,,,,,,,,
,,,,,,,,,,,,610d0c4142e68a34f7bfcaf2,21,Mężczyzna,2022-06-11_09h40.19.029,task,2021.1.4,Win32,119.7174668,6299f149e92ead563fba08ef,62a4469288cd2296b8f7c970,,,,,,,,,,,,,,,,,,,,,,,,,,,,,,,,,,,,,,,,,,,,,,,,,,,,,,,,,,,,,,,,,,,,,,,,,,,,,,,,,zwkbt,"[""z"",""w"",""k"",""b"",""t""]",0,"[2.5023000000001048,5.3202,5.702499999999986,6.449200000000019,6.825900000000161,10.200699999999983]",1,ZWKBT,3,0,3,0,1,,,,,,,,,,
,,,,,,,,,,,,610d0c4142e68a34f7bfcaf2,21,Mężczyzna,2022-06-11_09h40.19.029,task,2021.1.4,Win32,119.7174668,6299f149e92ead563fba08ef,62a4469288cd2296b8f7c970,,,,,,,,,,,,,7,,,,,,,,,,Task,16,(3x8) - 15,9,,,,,,,,,,,,,,,,,,,0,,,,,,,,,,,,,,,,,,,,,,,"[""7""]",0,[6.657600000000116],0,0,0,15,1,,,,,,,,,,,,,,,,,,,,,,,,,,
,,,,,,,,,,,,610d0c4142e68a34f7bfcaf2,21,Mężczyzna,2022-06-11_09h40.19.029,task,2021.1.4,Win32,119.7174668,6299f149e92ead563fba08ef,62a4469288cd2296b8f7c970,,,,,,,,,,,,,9,,,,,,,,,,Task,40,(7x2) - 5,9,,,,,,,,,,,,,,,,,,,1,,,,,,,,,,,,,,,,,,,,,,,"[""9""]",1,[2.9756000000000995],0,1,1,39,1,,,,,,,,,,,,,,,,,,,,,,,,,,
,,,,,,,,,,,X V Q F H G B L J M P D K C T S W R N Z,610d0c4142e68a34f7bfcaf2,21,Mężczyzna,2022-06-11_09h40.19.029,task,2021.1.4,Win32,119.7174668,6299f149e92ead563fba08ef,62a4469288cd2296b8f7c970,,,,,,,,,,,,,,,,,,,,,,,,,,,,,,,,,,,,,,,,,,,,,,,,,,,,,,,,,,,,,,,,,,,,,,,,,,,,0,0,0,0,1,,,,,,,,,,,,,,,,,,,,,
,,,,,,,,,,,,610d0c4142e68a34f7bfcaf2,21,Mężczyzna,2022-06-11_09h40.19.029,task,2021.1.4,Win32,119.7174668,6299f149e92ead563fba08ef,62a4469288cd2296b8f7c970,,,,,,,,,,,,,0,,,,,,,,,,Task,25,(10/5) - 2,0,,,,,,,,,,,,,,,,,,,1,,,,,,,,,,,,,,,,,,,,,,,"[""0""]",1,[4.41700000000003],0,0,0,24,1,,,,,,,,,,,,,,,,,,,,,,,,,,
,,,,,,,,,,,X V Q F H G B L J M P D K C T S W R N Z,610d0c4142e68a34f7bfcaf2,21,Mężczyzna,2022-06-11_09h40.19.029,task,2021.1.4,Win32,119.7174668,6299f149e92ead563fba08ef,62a4469288cd2296b8f7c970,,,,,,,,,,,,,,,,,,,,,,,,,,,,,,,,,,,,,,,,,,,,,,,,,,,,,,,,,,,,,,,,,,,,,,,,,,,,1,0,1,0,1,,,,,,,,,,,,,,,,,,,,,
,,,,,,,,,,,,610d0c4142e68a34f7bfcaf2,21,Mężczyzna,2022-06-11_09h40.19.029,task,2021.1.4,Win32,119.7174668,6299f149e92ead563fba08ef,62a4469288cd2296b8f7c970,,,,,,,,,,,,,5,,,,,,,,,,Task,14,(2x2) + 3,7,,,,,,,,,,,,,,,,,,,0,,,,,,,,,,,,,,,,,,,,,,,"[""5""]",0,[3.7261000000000877],0,0,0,13,1,,,,,,,,,,,,,,,,,,,,,,,,,,
,,,,,,,,,,,,610d0c4142e68a34f7bfcaf2,21,Mężczyzna,2022-06-11_09h40.19.029,task,2021.1.4,Win32,119.7174668,6299f149e92ead563fba08ef,62a4469288cd2296b8f7c970,,,,,,,,,,,,,4,,,,,,,,,,Task,21,(10/2) - 1,4,,,,,,,,,,,,,,,,,,,1,,,,,,,,,,,,,,,,,,,,,,,"[""4""]",1,[8.841999999999985],0,1,1,20,1,,,,,,,,,,,,,,,,,,,,,,,,,,
,,,,,,,,,,,X V Q F H G B L J M P D K C T S W R N Z,610d0c4142e68a34f7bfcaf2,21,Mężczyzna,2022-06-11_09h40.19.029,task,2021.1.4,Win32,119.7174668,6299f149e92ead563fba08ef,62a4469288cd2296b8f7c970,,,,,,,,,,,,,,,,,,,,,,,,,,,,,,,,,,,,,,,,,,,,,,,,,,,,,,,,,,,,,,,,,,,,,,,,,,,,2,0,2,0,1,,,,,,,,,,,,,,,,,,,,,
,,,,,,,,,,,,610d0c4142e68a34f7bfcaf2,21,Mężczyzna,2022-06-11_09h40.19.029,task,2021.1.4,Win32,119.7174668,6299f149e92ead563fba08ef,62a4469288cd2296b8f7c970,,,,,,,,,,,,,0,,,,,,,,,,Task,25,(10/5) - 2,0,,,,,,,,,,,,,,,,,,,1,,,,,,,,,,,,,,,,,,,,,,,"[""0""]",1,[3.33620000000019],0,0,0,24,1,,,,,,,,,,,,,,,,,,,,,,,,,,
,,,,,,,,,,,X V Q F H G B L J M P D K C T S W R N Z,610d0c4142e68a34f7bfcaf2,21,Mężczyzna,2022-06-11_09h40.19.029,task,2021.1.4,Win32,119.7174668,6299f149e92ead563fba08ef,62a4469288cd2296b8f7c970,,,,,,,,,,,,,,,,,,,,,,,,,,,,,,,,,,,,,,,,,,,,,,,,,,,,,,,,,,,,,,,,,,,,,,,,,,,,3,0,3,0,1,,,,,,,,,,,,,,,,,,,,,
,,,,,,,,,,,,610d0c4142e68a34f7bfcaf2,21,Mężczyzna,2022-06-11_09h40.19.029,task,2021.1.4,Win32,119.7174668,6299f149e92ead563fba08ef,62a4469288cd2296b8f7c970,,,,,,,,,,,,,6,,,,,,,,,,Task,30,(6/3) + 4 ,6,,,,,,,,,,,,,,,,,,,1,,,,,,,,,,,,,,,,,,,,,,,"[""6""]",1,[2.9331000000000813],0,0,0,29,1,,,,,,,,,,,,,,,,,,,,,,,,,,
,,,,,,,,,,,X V Q F H G B L J M P D K C T S W R N Z,610d0c4142e68a34f7bfcaf2,21,Mężczyzna,2022-06-11_09h40.19.029,task,2021.1.4,Win32,119.7174668,6299f149e92ead563fba08ef,62a4469288cd2296b8f7c970,,,,,,,,,,,,,,,,,,,,,,,,,,,,,,,,,,,,,,,,,,,,,,,,,,,,,,,,,,,,,,,,,,,,,,,,,,,,4,0,4,0,1,,,,,,,,,,,,,,,,,,,,,
,,,,,,,,,,,,610d0c4142e68a34f7bfcaf2,21,Mężczyzna,2022-06-11_09h40.19.029,task,2021.1.4,Win32,119.7174668,6299f149e92ead563fba08ef,62a4469288cd2296b8f7c970,,,,,,,,,,,,,4,,,,,,,,,,Task,28,(2x5) - 6,4,,,,,,,,,,,,,,,,,,,1,,,,,,,,,,,,,,,,,,,,,,,"[""4""]",1,[2.7170999999998457],0,0,0,27,1,,,,,,,,,,,,,,,,,,,,,,,,,,
,,,,,,,,,,,X V Q F H G B L J M P D K C T S W R N Z,610d0c4142e68a34f7bfcaf2,21,Mężczyzna,2022-06-11_09h40.19.029,task,2021.1.4,Win32,119.7174668,6299f149e92ead563fba08ef,62a4469288cd2296b8f7c970,,,,,,,,,,,,,,,,,,,,,,,,,,,,,,,,,,,,,,,,,,,,,,,,,,,,,,,,,,,,,,,,,,,,,,,,,,,,5,0,5,0,1,,,,,,,,,,,,,,,,,,,,,
,,,,,,,,,,,,610d0c4142e68a34f7bfcaf2,21,Mężczyzna,2022-06-11_09h40.19.029,task,2021.1.4,Win32,119.7174668,6299f149e92ead563fba08ef,62a4469288cd2296b8f7c970,,,,,,,,,,,,,,,,,,,,,,,,,,,,,,,,,,,,,,,,,,,,,,,,,,,,,,,,,,,,,,,,,,,,,,,,,,,,,,,,,jmcnvp,"[""j"",""m"",""c"",""n"",""v"",""p""]",0,"[3.7426999999998998,4.211300000000051,4.859299999999962,5.6845999999998185,6.851399999999899,6.95169999999996,10.501399999999876]",1,JMCNVP,4,0,4,0,1,,,,,,,,,,
,,,,,,,,,,,,610d0c4142e68a34f7bfcaf2,21,Mężczyzna,2022-06-11_09h40.19.029,task,2021.1.4,Win32,119.7174668,6299f149e92ead563fba08ef,62a4469288cd2296b8f7c970,,,,,,,,,,,,,5,,,,,,,,,,Task,22,(3x1) + 2,5,,,,,,,,,,,,,,,,,,,1,,,,,,,,,,,,,,,,,,,,,,,"[""5""]",1,[4.475599999999872],0,0,0,21,1,,,,,,,,,,,,,,,,,,,,,,,,,,
,,,,,,,,,,,X V Q F H G B L J M P D K C T S W R N Z,610d0c4142e68a34f7bfcaf2,21,Mężczyzna,2022-06-11_09h40.19.029,task,2021.1.4,Win32,119.7174668,6299f149e92ead563fba08ef,62a4469288cd2296b8f7c970,,,,,,,,,,,,,,,,,,,,,,,,,,,,,,,,,,,,,,,,,,,,,,,,,,,,,,,,,,,,,,,,,,,,,,,,,,,,0,0,0,0,1,,,,,,,,,,,,,,,,,,,,,
,,,,,,,,,,,,610d0c4142e68a34f7bfcaf2,21,Mężczyzna,2022-06-11_09h40.19.029,task,2021.1.4,Win32,119.7174668,6299f149e92ead563fba08ef,62a4469288cd2296b8f7c970,,,,,,,,,,,,,3,,,,,,,,,,Task,27,(3/3) + 2,3,,,,,,,,,,,,,,,,,,,1,,,,,,,,,,,,,,,,,,,,,,,"[""3""]",1,[3.57549999999992],0,0,0,26,1,,,,,,,,,,,,,,,,,,,,,,,,,,
,,,,,,,,,,,X V Q F H G B L J M P D K C T S W R N Z,610d0c4142e68a34f7bfcaf2,21,Mężczyzna,2022-06-11_09h40.19.029,task,2021.1.4,Win32,119.7174668,6299f149e92ead563fba08ef,62a4469288cd2296b8f7c970,,,,,,,,,,,,,,,,,,,,,,,,,,,,,,,,,,,,,,,,,,,,,,,,,,,,,,,,,,,,,,,,,,,,,,,,,,,,1,0,1,0,1,,,,,,,,,,,,,,,,,,,,,
,,,,,,,,,,,,610d0c4142e68a34f7bfcaf2,21,Mężczyzna,2022-06-11_09h40.19.029,task,2021.1.4,Win32,119.7174668,6299f149e92ead563fba08ef,62a4469288cd2296b8f7c970,,,,,,,,,,,,,4,,,,,,,,,,Task,28,(2x5) - 6,4,,,,,,,,,,,,,,,,,,,1,,,,,,,,,,,,,,,,,,,,,,,"[""4""]",1,[2.041500000000042],0,0,0,27,1,,,,,,,,,,,,,,,,,,,,,,,,,,
,,,,,,,,,,,X V Q F H G B L J M P D K C T S W R N Z,610d0c4142e68a34f7bfcaf2,21,Mężczyzna,2022-06-11_09h40.19.029,task,2021.1.4,Win32,119.7174668,6299f149e92ead563fba08ef,62a4469288cd2296b8f7c970,,,,,,,,,,,,,,,,,,,,,,,,,,,,,,,,,,,,,,,,,,,,,,,,,,,,,,,,,,,,,,,,,,,,,,,,,,,,2,0,2,0,1,,,,,,,,,,,,,,,,,,,,,
,,,,,,,,,,,,610d0c4142e68a34f7bfcaf2,21,Mężczyzna,2022-06-11_09h40.19.029,task,2021.1.4,Win32,119.7174668,6299f149e92ead563fba08ef,62a4469288cd2296b8f7c970,,,,,,,,,,,,,3,,,,,,,,,,Task,35,(1x2) + 1,3,,,,,,,,,,,,,,,,,,,1,,,,,,,,,,,,,,,,,,,,,,,"[""3""]",1,[2.583900000000085],0,0,0,34,1,,,,,,,,,,,,,,,,,,,,,,,,,,
,,,,,,,,,,,X V Q F H G B L J M P D K C T S W R N Z,610d0c4142e68a34f7bfcaf2,21,Mężczyzna,2022-06-11_09h40.19.029,task,2021.1.4,Win32,119.7174668,6299f149e92ead563fba08ef,62a4469288cd2296b8f7c970,,,,,,,,,,,,,,,,,,,,,,,,,,,,,,,,,,,,,,,,,,,,,,,,,,,,,,,,,,,,,,,,,,,,,,,,,,,,3,0,3,0,1,,,,,,,,,,,,,,,,,,,,,
,,,,,,,,,,,,610d0c4142e68a34f7bfcaf2,21,Mężczyzna,2022-06-11_09h40.19.029,task,2021.1.4,Win32,119.7174668,6299f149e92ead563fba08ef,62a4469288cd2296b8f7c970,,,,,,,,,,,,,5,,,,,,,,,,Task,36,(8/4) + 3,5,,,,,,,,,,,,,,,,,,,1,,,,,,,,,,,,,,,,,,,,,,,"[""5""]",1,[5.0086999999998625],0,0,0,35,1,,,,,,,,,,,,,,,,,,,,,,,,,,
,,,,,,,,,,,X V Q F H G B L J M P D K C T S W R N Z,610d0c4142e68a34f7bfcaf2,21,Mężczyzna,2022-06-11_09h40.19.029,task,2021.1.4,Win32,119.7174668,6299f149e92ead563fba08ef,62a4469288cd2296b8f7c970,,,,,,,,,,,,,,,,,,,,,,,,,,,,,,,,,,,,,,,,,,,,,,,,,,,,,,,,,,,,,,,,,,,,,,,,,,,,4,0,4,0,1,,,,,,,,,,,,,,,,,,,,,
,,,,,,,,,,,,610d0c4142e68a34f7bfcaf2,21,Mężczyzna,2022-06-11_09h40.19.029,task,2021.1.4,Win32,119.7174668,6299f149e92ead563fba08ef,62a4469288cd2296b8f7c970,,,,,,,,,,,,,,,,,,,,,,,Task,16,(3x8) - 15,9,,,,,,,,,,,,,,,,,,,0,,,,,,,,,,,,,,,,,,,,,,,,0,,0,0,0,15,1,,,,,,,,,,,,,,,,,,,,,,,,,,
,,,,,,,,,,,,610d0c4142e68a34f7bfcaf2,21,Mężczyzna,2022-06-11_09h40.19.029,task,2021.1.4,Win32,119.7174668,6299f149e92ead563fba08ef,62a4469288cd2296b8f7c970,,,,,,,,,,,,,3,,,,,,,,,,Task,26,(2x9) - 16,2,,,,,,,,,,,,,,,,,,,0,,,,,,,,,,,,,,,,,,,,,,,"[""3""]",0,[5.243399999999838],0,1,1,25,1,,,,,,,,,,,,,,,,,,,,,,,,,,
,,,,,,,,,,,,610d0c4142e68a34f7bfcaf2,21,Mężczyzna,2022-06-11_09h40.19.029,task,2021.1.4,Win32,119.7174668,6299f149e92ead563fba08ef,62a4469288cd2296b8f7c970,,,,,,,,,,,,,7,,,,,,,,,,Task,31,(4/2) + 5,7,,,,,,,,,,,,,,,,,,,1,,,,,,,,,,,,,,,,,,,,,,,"[""7""]",1,[3.342999999999961],0,2,2,30,1,,,,,,,,,,,,,,,,,,,,,,,,,,
,,,,,,,,,,,X V Q F H G B L J M P D K C T S W R N Z,610d0c4142e68a34f7bfcaf2,21,Mężczyzna,2022-06-11_09h40.19.029,task,2021.1.4,Win32,119.7174668,6299f149e92ead563fba08ef,62a4469288cd2296b8f7c970,,,,,,,,,,,,,,,,,,,,,,,,,,,,,,,,,,,,,,,,,,,,,,,,,,,,,,,,,,,,,,,,,,,,,,,,,,,,5,0,5,0,1,,,,,,,,,,,,,,,,,,,,,
,,,,,,,,,,,,610d0c4142e68a34f7bfcaf2,21,Mężczyzna,2022-06-11_09h40.19.029,task,2021.1.4,Win32,119.7174668,6299f149e92ead563fba08ef,62a4469288cd2296b8f7c970,,,,,,,,,,,,,0,,,,,,,,,,Task,8,(1x5) - 5,0,,,,,,,,,,,,,,,,,,,1,,,,,,,,,,,,,,,,,,,,,,,"[""0""]",1,[2.817100000000096],0,0,0,7,1,,,,,,,,,,,,,,,,,,,,,,,,,,
,,,,,,,,,,,X V Q F H G B L J M P D K C T S W R N Z,610d0c4142e68a34f7bfcaf2,21,Mężczyzna,2022-06-11_09h40.19.029,task,2021.1.4,Win32,119.7174668,6299f149e92ead563fba08ef,62a4469288cd2296b8f7c970,,,,,,,,,,,,,,,,,,,,,,,,,,,,,,,,,,,,,,,,,,,,,,,,,,,,,,,,,,,,,,,,,,,,,,,,,,,,6,0,6,0,1,,,,,,,,,,,,,,,,,,,,,
,,,,,,,,,,,,610d0c4142e68a34f7bfcaf2,21,Mężczyzna,2022-06-11_09h40.19.029,task,2021.1.4,Win32,119.7174668,6299f149e92ead563fba08ef,62a4469288cd2296b8f7c970,,,,,,,,,,,,,,,,,,,,,,,,,,,,,,,,,,,,,,,,,,,,,,,,,,,,,,,,,,,,,,,,,,,,,,,,,,,,,,,,,kcwrrdh,"[""k"",""c"",""w"",""r"",""r"",""d"",""h""]",0,"[3.067199999999957,3.460099999999784,4.113499999999931,4.817899999999895,5.067399999999907,5.3840000000000146,6.1253999999999,8.32589999999982]",1,KCWRRDH,5,0,5,0,1,,,,,,,,,,
,,,,,,,,,,,,610d0c4142e68a34f7bfcaf2,21,Mężczyzna,2022-06-11_09h40.19.029,task,2021.1.4,Win32,119.7174668,6299f149e92ead563fba08ef,62a4469288cd2296b8f7c970,,,,,,,,,,,,,3,,,,,,,,,,Task,27,(3/3) + 2,3,,,,,,,,,,,,,,,,,,,1,,,,,,,,,,,,,,,,,,,,,,,"[""3""]",1,[4.2917999999999665],0,0,0,26,1,,,,,,,,,,,,,,,,,,,,,,,,,,
,,,,,,,,,,,X V Q F H G B L J M P D K C T S W R N Z,610d0c4142e68a34f7bfcaf2,21,Mężczyzna,2022-06-11_09h40.19.029,task,2021.1.4,Win32,119.7174668,6299f149e92ead563fba08ef,62a4469288cd2296b8f7c970,,,,,,,,,,,,,,,,,,,,,,,,,,,,,,,,,,,,,,,,,,,,,,,,,,,,,,,,,,,,,,,,,,,,,,,,,,,,0,0,0,0,1,,,,,,,,,,,,,,,,,,,,,
,,,,,,,,,,,,610d0c4142e68a34f7bfcaf2,21,Mężczyzna,2022-06-11_09h40.19.029,task,2021.1.4,Win32,119.7174668,6299f149e92ead563fba08ef,62a4469288cd2296b8f7c970,,,,,,,,,,,,,3,,,,,,,,,,Task,20,(18/9) + 1,3,,,,,,,,,,,,,,,,,,,1,,,,,,,,,,,,,,,,,,,,,,,"[""3""]",1,[2.5914999999999964],0,0,0,19,1,,,,,,,,,,,,,,,,,,,,,,,,,,
,,,,,,,,,,,X V Q F H G B L J M P D K C T S W R N Z,610d0c4142e68a34f7bfcaf2,21,Mężczyzna,2022-06-11_09h40.19.029,task,2021.1.4,Win32,119.7174668,6299f149e92ead563fba08ef,62a4469288cd2296b8f7c970,,,,,,,,,,,,,,,,,,,,,,,,,,,,,,,,,,,,,,,,,,,,,,,,,,,,,,,,,,,,,,,,,,,,,,,,,,,,1,0,1,0,1,,,,,,,,,,,,,,,,,,,,,
,,,,,,,,,,,,610d0c4142e68a34f7bfcaf2,21,Mężczyzna,2022-06-11_09h40.19.029,task,2021.1.4,Win32,119.7174668,6299f149e92ead563fba08ef,62a4469288cd2296b8f7c970,,,,,,,,,,,,,3,,,,,,,,,,Task,3,(2x3) - 3,3,,,,,,,,,,,,,,,,,,,1,,,,,,,,,,,,,,,,,,,,,,,"[""3""]",1,[1.9909999999999854],0,0,0,2,1,,,,,,,,,,,,,,,,,,,,,,,,,,
,,,,,,,,,,,X V Q F H G B L J M P D K C T S W R N Z,610d0c4142e68a34f7bfcaf2,21,Mężczyzna,2022-06-11_09h40.19.029,task,2021.1.4,Win32,119.7174668,6299f149e92ead563fba08ef,62a4469288cd2296b8f7c970,,,,,,,,,,,,,,,,,,,,,,,,,,,,,,,,,,,,,,,,,,,,,,,,,,,,,,,,,,,,,,,,,,,,,,,,,,,,2,0,2,0,1,,,,,,,,,,,,,,,,,,,,,
,,,,,,,,,,,,610d0c4142e68a34f7bfcaf2,21,Mężczyzna,2022-06-11_09h40.19.029,task,2021.1.4,Win32,119.7174668,6299f149e92ead563fba08ef,62a4469288cd2296b8f7c970,,,,,,,,,,,,,3,,,,,,,,,,Task,3,(2x3) - 3,3,,,,,,,,,,,,,,,,,,,1,,,,,,,,,,,,,,,,,,,,,,,"[""3""]",1,[1.7522999999998774],0,0,0,2,1,,,,,,,,,,,,,,,,,,,,,,,,,,
,,,,,,,,,,,X V Q F H G B L J M P D K C T S W R N Z,610d0c4142e68a34f7bfcaf2,21,Mężczyzna,2022-06-11_09h40.19.029,task,2021.1.4,Win32,119.7174668,6299f149e92ead563fba08ef,62a4469288cd2296b8f7c970,,,,,,,,,,,,,,,,,,,,,,,,,,,,,,,,,,,,,,,,,,,,,,,,,,,,,,,,,,,,,,,,,,,,,,,,,,,,3,0,3,0,1,,,,,,,,,,,,,,,,,,,,,
,,,,,,,,,,,,610d0c4142e68a34f7bfcaf2,21,Mężczyzna,2022-06-11_09h40.19.029,task,2021.1.4,Win32,119.7174668,6299f149e92ead563fba08ef,62a4469288cd2296b8f7c970,,,,,,,,,,,,,8,,,,,,,,,,Task,23,(2x3) + 2,8,,,,,,,,,,,,,,,,,,,1,,,,,,,,,,,,,,,,,,,,,,,"[""8""]",1,[4.457099999999855],0,0,0,22,1,,,,,,,,,,,,,,,,,,,,,,,,,,
,,,,,,,,,,,X V Q F H G B L J M P D K C T S W R N Z,610d0c4142e68a34f7bfcaf2,21,Mężczyzna,2022-06-11_09h40.19.029,task,2021.1.4,Win32,119.7174668,6299f149e92ead563fba08ef,62a4469288cd2296b8f7c970,,,,,,,,,,,,,,,,,,,,,,,,,,,,,,,,,,,,,,,,,,,,,,,,,,,,,,,,,,,,,,,,,,,,,,,,,,,,4,0,4,0,1,,,,,,,,,,,,,,,,,,,,,
,,,,,,,,,,,,610d0c4142e68a34f7bfcaf2,21,Mężczyzna,2022-06-11_09h40.19.029,task,2021.1.4,Win32,119.7174668,6299f149e92ead563fba08ef,62a4469288cd2296b8f7c970,,,,,,,,,,,,,9,,,,,,,,,,Task,40,(7x2) - 5,9,,,,,,,,,,,,,,,,,,,1,,,,,,,,,,,,,,,,,,,,,,,"[""9""]",1,[2.209600000000137],0,0,0,39,1,,,,,,,,,,,,,,,,,,,,,,,,,,
,,,,,,,,,,,X V Q F H G B L J M P D K C T S W R N Z,610d0c4142e68a34f7bfcaf2,21,Mężczyzna,2022-06-11_09h40.19.029,task,2021.1.4,Win32,119.7174668,6299f149e92ead563fba08ef,62a4469288cd2296b8f7c970,,,,,,,,,,,,,,,,,,,,,,,,,,,,,,,,,,,,,,,,,,,,,,,,,,,,,,,,,,,,,,,,,,,,,,,,,,,,5,0,5,0,1,,,,,,,,,,,,,,,,,,,,,
,,,,,,,,,,,,610d0c4142e68a34f7bfcaf2,21,Mężczyzna,2022-06-11_09h40.19.029,task,2021.1.4,Win32,119.7174668,6299f149e92ead563fba08ef,62a4469288cd2296b8f7c970,,,,,,,,,,,,,7,,,,,,,,,,Task,31,(4/2) + 5,7,,,,,,,,,,,,,,,,,,,1,,,,,,,,,,,,,,,,,,,,,,,"[""7""]",1,[1.8673999999998614],0,0,0,30,1,,,,,,,,,,,,,,,,,,,,,,,,,,
,,,,,,,,,,,X V Q F H G B L J M P D K C T S W R N Z,610d0c4142e68a34f7bfcaf2,21,Mężczyzna,2022-06-11_09h40.19.029,task,2021.1.4,Win32,119.7174668,6299f149e92ead563fba08ef,62a4469288cd2296b8f7c970,,,,,,,,,,,,,,,,,,,,,,,,,,,,,,,,,,,,,,,,,,,,,,,,,,,,,,,,,,,,,,,,,,,,,,,,,,,,6,0,6,0,1,,,,,,,,,,,,,,,,,,,,,
,,,,,,,,,,,,610d0c4142e68a34f7bfcaf2,21,Mężczyzna,2022-06-11_09h40.19.029,task,2021.1.4,Win32,119.7174668,6299f149e92ead563fba08ef,62a4469288cd2296b8f7c970,,,,,,,,,,,,,8,,,,,,,,,,Task,39,(5x3) - 7,8,,,,,,,,,,,,,,,,,,,1,,,,,,,,,,,,,,,,,,,,,,,"[""8""]",1,[5.441300000000069],0,0,0,38,1,,,,,,,,,,,,,,,,,,,,,,,,,,
,,,,,,,,,,,X V Q F H G B L J M P D K C T S W R N Z,610d0c4142e68a34f7bfcaf2,21,Mężczyzna,2022-06-11_09h40.19.029,task,2021.1.4,Win32,119.7174668,6299f149e92ead563fba08ef,62a4469288cd2296b8f7c970,,,,,,,,,,,,,,,,,,,,,,,,,,,,,,,,,,,,,,,,,,,,,,,,,,,,,,,,,,,,,,,,,,,,,,,,,,,,7,0,7,0,1,,,,,,,,,,,,,,,,,,,,,
,,,,,,,,,,,,610d0c4142e68a34f7bfcaf2,21,Mężczyzna,2022-06-11_09h40.19.029,task,2021.1.4,Win32,119.7174668,6299f149e92ead563fba08ef,62a4469288cd2296b8f7c970,,,,,,,,,,,,,,,,,,,,,,,,,,,,,,,,,,,,,,,,,,,,,,,,,,,,,,,,,,,,,,,,,,,,,,,,,,,,,,,,,gmtfhnfc,"[""g"",""m"",""t"",""f"",""h"",""n"",""f"",""c""]",0,"[3.1173999999998614,3.461799999999812,6.443199999999933,6.759899999999902,8.454499999999939,10.67779999999982,11.216699999999946,11.685799999999745,12.552299999999832]",0,GMFTHNFC,6,0,6,0,1,,,,,,,,,,
,,,,,,,,,,,,610d0c4142e68a34f7bfcaf2,21,Mężczyzna,2022-06-11_09h40.19.029,task,2021.1.4,Win32,119.7174668,6299f149e92ead563fba08ef,62a4469288cd2296b8f7c970,,,,,,,,,,,,,4,,,,,,,,,,Task,28,(2x5) - 6,4,,,,,,,,,,,,,,,,,,,1,,,,,,,,,,,,,,,,,,,,,,,"[""4""]",1,[2.633899999999926],0,0,0,27,1,,,,,,,,,,,,,,,,,,,,,,,,,,
,,,,,,,,,,,X V Q F H G B L J M P D K C T S W R N Z,610d0c4142e68a34f7bfcaf2,21,Mężczyzna,2022-06-11_09h40.19.029,task,2021.1.4,Win32,119.7174668,6299f149e92ead563fba08ef,62a4469288cd2296b8f7c970,,,,,,,,,,,,,,,,,,,,,,,,,,,,,,,,,,,,,,,,,,,,,,,,,,,,,,,,,,,,,,,,,,,,,,,,,,,,0,0,0,0,1,,,,,,,,,,,,,,,,,,,,,
,,,,,,,,,,,,610d0c4142e68a34f7bfcaf2,21,Mężczyzna,2022-06-11_09h40.19.029,task,2021.1.4,Win32,119.7174668,6299f149e92ead563fba08ef,62a4469288cd2296b8f7c970,,,,,,,,,,,,,1,,,,,,,,,,Task,18,(16/4) - 3,1,,,,,,,,,,,,,,,,,,,1,,,,,,,,,,,,,,,,,,,,,,,"[""1""]",1,[3.2922999999997273],0,0,0,17,1,,,,,,,,,,,,,,,,,,,,,,,,,,
,,,,,,,,,,,X V Q F H G B L J M P D K C T S W R N Z,610d0c4142e68a34f7bfcaf2,21,Mężczyzna,2022-06-11_09h40.19.029,task,2021.1.4,Win32,119.7174668,6299f149e92ead563fba08ef,62a4469288cd2296b8f7c970,,,,,,,,,,,,,,,,,,,,,,,,,,,,,,,,,,,,,,,,,,,,,,,,,,,,,,,,,,,,,,,,,,,,,,,,,,,,1,0,1,0,1,,,,,,,,,,,,,,,,,,,,,
,,,,,,,,,,,,610d0c4142e68a34f7bfcaf2,21,Mężczyzna,2022-06-11_09h40.19.029,task,2021.1.4,Win32,119.7174668,6299f149e92ead563fba08ef,62a4469288cd2296b8f7c970,,,,,,,,,,,,,8,,,,,,,,,,Task,23,(2x3) + 2,8,,,,,,,,,,,,,,,,,,,1,,,,,,,,,,,,,,,,,,,,,,,"[""8""]",1,[1.6568999999999505],0,0,0,22,1,,,,,,,,,,,,,,,,,,,,,,,,,,
,,,,,,,,,,,X V Q F H G B L J M P D K C T S W R N Z,610d0c4142e68a34f7bfcaf2,21,Mężczyzna,2022-06-11_09h40.19.029,task,2021.1.4,Win32,119.7174668,6299f149e92ead563fba08ef,62a4469288cd2296b8f7c970,,,,,,,,,,,,,,,,,,,,,,,,,,,,,,,,,,,,,,,,,,,,,,,,,,,,,,,,,,,,,,,,,,,,,,,,,,,,2,0,2,0,1,,,,,,,,,,,,,,,,,,,,,
,,,,,,,,,,,,610d0c4142e68a34f7bfcaf2,21,Mężczyzna,2022-06-11_09h40.19.029,task,2021.1.4,Win32,119.7174668,6299f149e92ead563fba08ef,62a4469288cd2296b8f7c970,,,,,,,,,,,,,7,,,,,,,,,,Task,31,(4/2) + 5,7,,,,,,,,,,,,,,,,,,,1,,,,,,,,,,,,,,,,,,,,,,,"[""7""]",1,[3.96550000000002],0,0,0,30,1,,,,,,,,,,,,,,,,,,,,,,,,,,
,,,,,,,,,,,X V Q F H G B L J M P D K C T S W R N Z,610d0c4142e68a34f7bfcaf2,21,Mężczyzna,2022-06-11_09h40.19.029,task,2021.1.4,Win32,119.7174668,6299f149e92ead563fba08ef,62a4469288cd2296b8f7c970,,,,,,,,,,,,,,,,,,,,,,,,,,,,,,,,,,,,,,,,,,,,,,,,,,,,,,,,,,,,,,,,,,,,,,,,,,,,3,0,3,0,1,,,,,,,,,,,,,,,,,,,,,
,,,,,,,,,,,,610d0c4142e68a34f7bfcaf2,21,Mężczyzna,2022-06-11_09h40.19.029,task,2021.1.4,Win32,119.7174668,6299f149e92ead563fba08ef,62a4469288cd2296b8f7c970,,,,,,,,,,,,,4,,,,,,,,,,Task,28,(2x5) - 6,4,,,,,,,,,,,,,,,,,,,1,,,,,,,,,,,,,,,,,,,,,,,"[""4""]",1,[1.8471000000001823],0,0,0,27,1,,,,,,,,,,,,,,,,,,,,,,,,,,
,,,,,,,,,,,X V Q F H G B L J M P D K C T S W R N Z,610d0c4142e68a34f7bfcaf2,21,Mężczyzna,2022-06-11_09h40.19.029,task,2021.1.4,Win32,119.7174668,6299f149e92ead563fba08ef,62a4469288cd2296b8f7c970,,,,,,,,,,,,,,,,,,,,,,,,,,,,,,,,,,,,,,,,,,,,,,,,,,,,,,,,,,,,,,,,,,,,,,,,,,,,4,0,4,0,1,,,,,,,,,,,,,,,,,,,,,
,,,,,,,,,,,,610d0c4142e68a34f7bfcaf2,21,Mężczyzna,2022-06-11_09h40.19.029,task,2021.1.4,Win32,119.7174668,6299f149e92ead563fba08ef,62a4469288cd2296b8f7c970,,,,,,,,,,,,,3,,,,,,,,,,Task,20,(18/9) + 1,3,,,,,,,,,,,,,,,,,,,1,,,,,,,,,,,,,,,,,,,,,,,"[""3""]",1,[1.7336000000001377],0,0,0,19,1,,,,,,,,,,,,,,,,,,,,,,,,,,
,,,,,,,,,,,X V Q F H G B L J M P D K C T S W R N Z,610d0c4142e68a34f7bfcaf2,21,Mężczyzna,2022-06-11_09h40.19.029,task,2021.1.4,Win32,119.7174668,6299f149e92ead563fba08ef,62a4469288cd2296b8f7c970,,,,,,,,,,,,,,,,,,,,,,,,,,,,,,,,,,,,,,,,,,,,,,,,,,,,,,,,,,,,,,,,,,,,,,,,,,,,5,0,5,0,1,,,,,,,,,,,,,,,,,,,,,
,,,,,,,,,,,,610d0c4142e68a34f7bfcaf2,21,Mężczyzna,2022-06-11_09h40.19.029,task,2021.1.4,Win32,119.7174668,6299f149e92ead563fba08ef,62a4469288cd2296b8f7c970,,,,,,,,,,,,,3,,,,,,,,,,Task,20,(18/9) + 1,3,,,,,,,,,,,,,,,,,,,1,,,,,,,,,,,,,,,,,,,,,,,"[""3""]",1,[2.412800000000061],0,0,0,19,1,,,,,,,,,,,,,,,,,,,,,,,,,,
,,,,,,,,,,,X V Q F H G B L J M P D K C T S W R N Z,610d0c4142e68a34f7bfcaf2,21,Mężczyzna,2022-06-11_09h40.19.029,task,2021.1.4,Win32,119.7174668,6299f149e92ead563fba08ef,62a4469288cd2296b8f7c970,,,,,,,,,,,,,,,,,,,,,,,,,,,,,,,,,,,,,,,,,,,,,,,,,,,,,,,,,,,,,,,,,,,,,,,,,,,,6,0,6,0,1,,,,,,,,,,,,,,,,,,,,,
,,,,,,,,,,,,610d0c4142e68a34f7bfcaf2,21,Mężczyzna,2022-06-11_09h40.19.029,task,2021.1.4,Win32,119.7174668,6299f149e92ead563fba08ef,62a4469288cd2296b8f7c970,,,,,,,,,,,,,6,,,,,,,,,,Task,37,(3/3) + 5,6,,,,,,,,,,,,,,,,,,,1,,,,,,,,,,,,,,,,,,,,,,,"[""6""]",1,[2.5954000000001543],0,0,0,36,1,,,,,,,,,,,,,,,,,,,,,,,,,,
,,,,,,,,,,,X V Q F H G B L J M P D K C T S W R N Z,610d0c4142e68a34f7bfcaf2,21,Mężczyzna,2022-06-11_09h40.19.029,task,2021.1.4,Win32,119.7174668,6299f149e92ead563fba08ef,62a4469288cd2296b8f7c970,,,,,,,,,,,,,,,,,,,,,,,,,,,,,,,,,,,,,,,,,,,,,,,,,,,,,,,,,,,,,,,,,,,,,,,,,,,,7,0,7,0,1,,,,,,,,,,,,,,,,,,,,,
,,,,,,,,,,,,610d0c4142e68a34f7bfcaf2,21,Mężczyzna,2022-06-11_09h40.19.029,task,2021.1.4,Win32,119.7174668,6299f149e92ead563fba08ef,62a4469288cd2296b8f7c970,,,,,,,,,,,,,,,,,,,,,,,,,,,,,,,,,,,,,,,,,,,,,,,,,,,,,,,,,,,,,,,,,,,,,,,,,,,,,,,,,lzdfhmbg,"[""l"",""z"",""d"",""f"",""h"",""m"",""b"",""g""]",0,"[2.4841999999998734,3.096599999999853,5.3522999999997865,5.916099999999801,6.925599999999804,7.20069999999987,9.643199999999865,11.400599999999827,13.450599999999781]",1,LZDFHMBG,7,0,7,0,1,,,,,,,,,,
,,,,,,,,,,,,610d0c4142e68a34f7bfcaf2,21,Mężczyzna,2022-06-11_09h40.19.029,task,2021.1.4,Win32,119.7174668,6299f149e92ead563fba08ef,62a4469288cd2296b8f7c970,,,,,,,,,,,,,0,,,,,,,,,,Task,8,(1x5) - 5,0,,,,,,,,,,,,,,,,,,,1,,,,,,,,,,,,,,,,,,,,,,,"[""0""]",1,[4.6246000000001],0,0,0,7,1,,,,,,,,,,,,,,,,,,,,,,,,,,
,,,,,,,,,,,X V Q F H G B L J M P D K C T S W R N Z,610d0c4142e68a34f7bfcaf2,21,Mężczyzna,2022-06-11_09h40.19.029,task,2021.1.4,Win32,119.7174668,6299f149e92ead563fba08ef,62a4469288cd2296b8f7c970,,,,,,,,,,,,,,,,,,,,,,,,,,,,,,,,,,,,,,,,,,,,,,,,,,,,,,,,,,,,,,,,,,,,,,,,,,,,0,0,0,0,1,,,,,,,,,,,,,,,,,,,,,
,,,,,,,,,,,,610d0c4142e68a34f7bfcaf2,21,Mężczyzna,2022-06-11_09h40.19.029,task,2021.1.4,Win32,119.7174668,6299f149e92ead563fba08ef,62a4469288cd2296b8f7c970,,,,,,,,,,,,,6,,,,,,,,,,Task,13,(3x4) - 6,6,,,,,,,,,,,,,,,,,,,1,,,,,,,,,,,,,,,,,,,,,,,"[""6""]",1,[3.2490000000000236],0,0,0,12,1,,,,,,,,,,,,,,,,,,,,,,,,,,
,,,,,,,,,,,X V Q F H G B L J M P D K C T S W R N Z,610d0c4142e68a34f7bfcaf2,21,Mężczyzna,2022-06-11_09h40.19.029,task,2021.1.4,Win32,119.7174668,6299f149e92ead563fba08ef,62a4469288cd2296b8f7c970,,,,,,,,,,,,,,,,,,,,,,,,,,,,,,,,,,,,,,,,,,,,,,,,,,,,,,,,,,,,,,,,,,,,,,,,,,,,1,0,1,0,1,,,,,,,,,,,,,,,,,,,,,
,,,,,,,,,,,,610d0c4142e68a34f7bfcaf2,21,Mężczyzna,2022-06-11_09h40.19.029,task,2021.1.4,Win32,119.7174668,6299f149e92ead563fba08ef,62a4469288cd2296b8f7c970,,,,,,,,,,,,,6,,,,,,,,,,Task,3,(2x3) - 3,3,,,,,,,,,,,,,,,,,,,0,,,,,,,,,,,,,,,,,,,,,,,"[""6""]",0,[3.0341999999999416],0,0,0,2,1,,,,,,,,,,,,,,,,,,,,,,,,,,
,,,,,,,,,,,,610d0c4142e68a34f7bfcaf2,21,Mężczyzna,2022-06-11_09h40.19.029,task,2021.1.4,Win32,119.7174668,6299f149e92ead563fba08ef,62a4469288cd2296b8f7c970,,,,,,,,,,,,,5,,,,,,,,,,Task,36,(8/4) + 3,5,,,,,,,,,,,,,,,,,,,1,,,,,,,,,,,,,,,,,,,,,,,"[""5""]",1,[3.158100000000104],0,1,1,35,1,,,,,,,,,,,,,,,,,,,,,,,,,,
,,,,,,,,,,,X V Q F H G B L J M P D K C T S W R N Z,610d0c4142e68a34f7bfcaf2,21,Mężczyzna,2022-06-11_09h40.19.029,task,2021.1.4,Win32,119.7174668,6299f149e92ead563fba08ef,62a4469288cd2296b8f7c970,,,,,,,,,,,,,,,,,,,,,,,,,,,,,,,,,,,,,,,,,,,,,,,,,,,,,,,,,,,,,,,,,,,,,,,,,,,,2,0,2,0,1,,,,,,,,,,,,,,,,,,,,,
,,,,,,,,,,,,610d0c4142e68a34f7bfcaf2,21,Mężczyzna,2022-06-11_09h40.19.029,task,2021.1.4,Win32,119.7174668,6299f149e92ead563fba08ef,62a4469288cd2296b8f7c970,,,,,,,,,,,,,3,,,,,,,,,,Task,20,(18/9) + 1,3,,,,,,,,,,,,,,,,,,,1,,,,,,,,,,,,,,,,,,,,,,,"[""3""]",1,[1.7744000000001279],0,0,0,19,1,,,,,,,,,,,,,,,,,,,,,,,,,,
,,,,,,,,,,,X V Q F H G B L J M P D K C T S W R N Z,610d0c4142e68a34f7bfcaf2,21,Mężczyzna,2022-06-11_09h40.19.029,task,2021.1.4,Win32,119.7174668,6299f149e92ead563fba08ef,62a4469288cd2296b8f7c970,,,,,,,,,,,,,,,,,,,,,,,,,,,,,,,,,,,,,,,,,,,,,,,,,,,,,,,,,,,,,,,,,,,,,,,,,,,,3,0,3,0,1,,,,,,,,,,,,,,,,,,,,,
,,,,,,,,,,,,610d0c4142e68a34f7bfcaf2,21,Mężczyzna,2022-06-11_09h40.19.029,task,2021.1.4,Win32,119.7174668,6299f149e92ead563fba08ef,62a4469288cd2296b8f7c970,,,,,,,,,,,,,6,,,,,,,,,,Task,37,(3/3) + 5,6,,,,,,,,,,,,,,,,,,,1,,,,,,,,,,,,,,,,,,,,,,,"[""6""]",1,[2.8993000000000393],0,0,0,36,1,,,,,,,,,,,,,,,,,,,,,,,,,,
,,,,,,,,,,,X V Q F H G B L J M P D K C T S W R N Z,610d0c4142e68a34f7bfcaf2,21,Mężczyzna,2022-06-11_09h40.19.029,task,2021.1.4,Win32,119.7174668,6299f149e92ead563fba08ef,62a4469288cd2296b8f7c970,,,,,,,,,,,,,,,,,,,,,,,,,,,,,,,,,,,,,,,,,,,,,,,,,,,,,,,,,,,,,,,,,,,,,,,,,,,,4,0,4,0,1,,,,,,,,,,,,,,,,,,,,,
,,,,,,,,,,,,610d0c4142e68a34f7bfcaf2,21,Mężczyzna,2022-06-11_09h40.19.029,task,2021.1.4,Win32,119.7174668,6299f149e92ead563fba08ef,62a4469288cd2296b8f7c970,,,,,,,,,,,,,4,,,,,,,,,,Task,21,(10/2) - 1,4,,,,,,,,,,,,,,,,,,,1,,,,,,,,,,,,,,,,,,,,,,,"[""4""]",1,[3.3428999999998723],0,0,0,20,1,,,,,,,,,,,,,,,,,,,,,,,,,,
,,,,,,,,,,,X V Q F H G B L J M P D K C T S W R N Z,610d0c4142e68a34f7bfcaf2,21,Mężczyzna,2022-06-11_09h40.19.029,task,2021.1.4,Win32,119.7174668,6299f149e92ead563fba08ef,62a4469288cd2296b8f7c970,,,,,,,,,,,,,,,,,,,,,,,,,,,,,,,,,,,,,,,,,,,,,,,,,,,,,,,,,,,,,,,,,,,,,,,,,,,,5,0,5,0,1,,,,,,,,,,,,,,,,,,,,,
,,,,,,,,,,,,610d0c4142e68a34f7bfcaf2,21,Mężczyzna,2022-06-11_09h40.19.029,task,2021.1.4,Win32,119.7174668,6299f149e92ead563fba08ef,62a4469288cd2296b8f7c970,,,,,,,,,,,,,0,,,,,,,,,,Task,17,(2x3) - 6,0,,,,,,,,,,,,,,,,,,,1,,,,,,,,,,,,,,,,,,,,,,,"[""0""]",1,[2.6820000000000164],0,0,0,16,1,,,,,,,,,,,,,,,,,,,,,,,,,,
,,,,,,,,,,,X V Q F H G B L J M P D K C T S W R N Z,610d0c4142e68a34f7bfcaf2,21,Mężczyzna,2022-06-11_09h40.19.029,task,2021.1.4,Win32,119.7174668,6299f149e92ead563fba08ef,62a4469288cd2296b8f7c970,,,,,,,,,,,,,,,,,,,,,,,,,,,,,,,,,,,,,,,,,,,,,,,,,,,,,,,,,,,,,,,,,,,,,,,,,,,,6,0,6,0,1,,,,,,,,,,,,,,,,,,,,,
,,,,,,,,,,,,610d0c4142e68a34f7bfcaf2,21,Mężczyzna,2022-06-11_09h40.19.029,task,2021.1.4,Win32,119.7174668,6299f149e92ead563fba08ef,62a4469288cd2296b8f7c970,,,,,,,,,,,,,0,,,,,,,,,,Task,2,(2x2) - 2,2,,,,,,,,,,,,,,,,,,,0,,,,,,,,,,,,,,,,,,,,,,,"[""0""]",0,[1.9201999999999089],0,0,0,1,1,,,,,,,,,,,,,,,,,,,,,,,,,,
,,,,,,,,,,,,610d0c4142e68a34f7bfcaf2,21,Mężczyzna,2022-06-11_09h40.19.029,task,2021.1.4,Win32,119.7174668,6299f149e92ead563fba08ef,62a4469288cd2296b8f7c970,,,,,,,,,,,,,6,,,,,,,,,,Task,13,(3x4) - 6,6,,,,,,,,,,,,,,,,,,,1,,,,,,,,,,,,,,,,,,,,,,,"[""6""]",1,[2.524699999999939],0,1,1,12,1,,,,,,,,,,,,,,,,,,,,,,,,,,
,,,,,,,,,,,X V Q F H G B L J M P D K C T S W R N Z,610d0c4142e68a34f7bfcaf2,21,Mężczyzna,2022-06-11_09h40.19.029,task,2021.1.4,Win32,119.7174668,6299f149e92ead563fba08ef,62a4469288cd2296b8f7c970,,,,,,,,,,,,,,,,,,,,,,,,,,,,,,,,,,,,,,,,,,,,,,,,,,,,,,,,,,,,,,,,,,,,,,,,,,,,7,0,7,0,1,,,,,,,,,,,,,,,,,,,,,
,,,,,,,,,,,,610d0c4142e68a34f7bfcaf2,21,Mężczyzna,2022-06-11_09h40.19.029,task,2021.1.4,Win32,119.7174668,6299f149e92ead563fba08ef,62a4469288cd2296b8f7c970,,,,,,,,,,,,,8,,,,,,,,,,Task,23,(2x3) + 2,8,,,,,,,,,,,,,,,,,,,1,,,,,,,,,,,,,,,,,,,,,,,"[""8""]",1,[3.6988999999999805],0,0,0,22,1,,,,,,,,,,,,,,,,,,,,,,,,,,
,,,,,,,,,,,X V Q F H G B L J M P D K C T S W R N Z,610d0c4142e68a34f7bfcaf2,21,Mężczyzna,2022-06-11_09h40.19.029,task,2021.1.4,Win32,119.7174668,6299f149e92ead563fba08ef,62a4469288cd2296b8f7c970,,,,,,,,,,,,,,,,,,,,,,,,,,,,,,,,,,,,,,,,,,,,,,,,,,,,,,,,,,,,,,,,,,,,,,,,,,,,8,0,8,0,1,,,,,,,,,,,,,,,,,,,,,
,,,,,,,,,,,,610d0c4142e68a34f7bfcaf2,21,Mężczyzna,2022-06-11_09h40.19.029,task,2021.1.4,Win32,119.7174668,6299f149e92ead563fba08ef,62a4469288cd2296b8f7c970,,,,,,,,,,,,,,,,,,,,,,,,,,,,,,,,,,,,,,,,,,,,,,,,,,,,,,,,,,,,,,,,,,,,,,,,,,,,,,,,,snpzjhnkr,"[""s"",""n"",""p"",""z"",""j"",""h"",""n"",""k"",""r""]",0,"[2.7671000000001413,3.2848000000000184,3.6423999999999523,3.9876999999999043,4.283800000000042,11.3916999999999,12.675700000000006,13.466300000000047,13.73339999999996,15.011300000000006]",1,SNPZJHNKR,8,0,8,0,1,,,,,,,,,,
,,,,,,,,,,,,610d0c4142e68a34f7bfcaf2,21,Mężczyzna,2022-06-11_09h40.19.029,task,2021.1.4,Win32,119.7174668,6299f149e92ead563fba08ef,62a4469288cd2296b8f7c970,,,,,,,,,,,,,1,,,,,,,,,,Task,9,(3x7) - 20,1,,,,,,,,,,,,,,,,,,,1,,,,,,,,,,,,,,,,,,,,,,,"[""1""]",1,[4.181300000000078],0,0,0,8,1,,,,,,,,,,,,,,,,,,,,,,,,,,
,,,,,,,,,,,X V Q F H G B L J M P D K C T S W R N Z,610d0c4142e68a34f7bfcaf2,21,Mężczyzna,2022-06-11_09h40.19.029,task,2021.1.4,Win32,119.7174668,6299f149e92ead563fba08ef,62a4469288cd2296b8f7c970,,,,,,,,,,,,,,,,,,,,,,,,,,,,,,,,,,,,,,,,,,,,,,,,,,,,,,,,,,,,,,,,,,,,,,,,,,,,0,0,0,0,1,,,,,,,,,,,,,,,,,,,,,
,,,,,,,,,,,,610d0c4142e68a34f7bfcaf2,21,Mężczyzna,2022-06-11_09h40.19.029,task,2021.1.4,Win32,119.7174668,6299f149e92ead563fba08ef,62a4469288cd2296b8f7c970,,,,,,,,,,,,,9,,,,,,,,,,Task,7,(3x7) - 12,9,,,,,,,,,,,,,,,,,,,1,,,,,,,,,,,,,,,,,,,,,,,"[""9""]",1,[7.266500000000065],0,0,0,6,1,,,,,,,,,,,,,,,,,,,,,,,,,,
,,,,,,,,,,,X V Q F H G B L J M P D K C T S W R N Z,610d0c4142e68a34f7bfcaf2,21,Mężczyzna,2022-06-11_09h40.19.029,task,2021.1.4,Win32,119.7174668,6299f149e92ead563fba08ef,62a4469288cd2296b8f7c970,,,,,,,,,,,,,,,,,,,,,,,,,,,,,,,,,,,,,,,,,,,,,,,,,,,,,,,,,,,,,,,,,,,,,,,,,,,,1,0,1,0,1,,,,,,,,,,,,,,,,,,,,,
,,,,,,,,,,,,610d0c4142e68a34f7bfcaf2,21,Mężczyzna,2022-06-11_09h40.19.029,task,2021.1.4,Win32,119.7174668,6299f149e92ead563fba08ef,62a4469288cd2296b8f7c970,,,,,,,,,,,,,6,,,,,,,,,,Task,5,(2x3) + 0,6,,,,,,,,,,,,,,,,,,,1,,,,,,,,,,,,,,,,,,,,,,,"[""6""]",1,[4.022199999999884],0,0,0,4,1,,,,,,,,,,,,,,,,,,,,,,,,,,
,,,,,,,,,,,X V Q F H G B L J M P D K C T S W R N Z,610d0c4142e68a34f7bfcaf2,21,Mężczyzna,2022-06-11_09h40.19.029,task,2021.1.4,Win32,119.7174668,6299f149e92ead563fba08ef,62a4469288cd2296b8f7c970,,,,,,,,,,,,,,,,,,,,,,,,,,,,,,,,,,,,,,,,,,,,,,,,,,,,,,,,,,,,,,,,,,,,,,,,,,,,2,0,2,0,1,,,,,,,,,,,,,,,,,,,,,
,,,,,,,,,,,,610d0c4142e68a34f7bfcaf2,21,Mężczyzna,2022-06-11_09h40.19.029,task,2021.1.4,Win32,119.7174668,6299f149e92ead563fba08ef,62a4469288cd2296b8f7c970,,,,,,,,,,,,,5,,,,,,,,,,Task,22,(3x1) + 2,5,,,,,,,,,,,,,,,,,,,1,,,,,,,,,,,,,,,,,,,,,,,"[""5""]",1,[3.0921999999999343],0,0,0,21,1,,,,,,,,,,,,,,,,,,,,,,,,,,
,,,,,,,,,,,X V Q F H G B L J M P D K C T S W R N Z,610d0c4142e68a34f7bfcaf2,21,Mężczyzna,2022-06-11_09h40.19.029,task,2021.1.4,Win32,119.7174668,6299f149e92ead563fba08ef,62a4469288cd2296b8f7c970,,,,,,,,,,,,,,,,,,,,,,,,,,,,,,,,,,,,,,,,,,,,,,,,,,,,,,,,,,,,,,,,,,,,,,,,,,,,3,0,3,0,1,,,,,,,,,,,,,,,,,,,,,
,,,,,,,,,,,,610d0c4142e68a34f7bfcaf2,21,Mężczyzna,2022-06-11_09h40.19.029,task,2021.1.4,Win32,119.7174668,6299f149e92ead563fba08ef,62a4469288cd2296b8f7c970,,,,,,,,,,,,,7,,,,,,,,,,Task,6,(12/2) + 1,7,,,,,,,,,,,,,,,,,,,1,,,,,,,,,,,,,,,,,,,,,,,"[""7""]",1,[2.084199999999896],0,0,0,5,1,,,,,,,,,,,,,,,,,,,,,,,,,,
,,,,,,,,,,,X V Q F H G B L J M P D K C T S W R N Z,610d0c4142e68a34f7bfcaf2,21,Mężczyzna,2022-06-11_09h40.19.029,task,2021.1.4,Win32,119.7174668,6299f149e92ead563fba08ef,62a4469288cd2296b8f7c970,,,,,,,,,,,,,,,,,,,,,,,,,,,,,,,,,,,,,,,,,,,,,,,,,,,,,,,,,,,,,,,,,,,,,,,,,,,,4,0,4,0,1,,,,,,,,,,,,,,,,,,,,,
,,,,,,,,,,,,610d0c4142e68a34f7bfcaf2,21,Mężczyzna,2022-06-11_09h40.19.029,task,2021.1.4,Win32,119.7174668,6299f149e92ead563fba08ef,62a4469288cd2296b8f7c970,,,,,,,,,,,,,5,,,,,,,,,,Task,29,(3x8) - 19 ,5,,,,,,,,,,,,,,,,,,,1,,,,,,,,,,,,,,,,,,,,,,,"[""5""]",1,[4.496999999999957],0,0,0,28,1,,,,,,,,,,,,,,,,,,,,,,,,,,
,,,,,,,,,,,X V Q F H G B L J M P D K C T S W R N Z,610d0c4142e68a34f7bfcaf2,21,Mężczyzna,2022-06-11_09h40.19.029,task,2021.1.4,Win32,119.7174668,6299f149e92ead563fba08ef,62a4469288cd2296b8f7c970,,,,,,,,,,,,,,,,,,,,,,,,,,,,,,,,,,,,,,,,,,,,,,,,,,,,,,,,,,,,,,,,,,,,,,,,,,,,5,0,5,0,1,,,,,,,,,,,,,,,,,,,,,
,,,,,,,,,,,,610d0c4142e68a34f7bfcaf2,21,Mężczyzna,2022-06-11_09h40.19.029,task,2021.1.4,Win32,119.7174668,6299f149e92ead563fba08ef,62a4469288cd2296b8f7c970,,,,,,,,,,,,,3,,,,,,,,,,Task,20,(18/9) + 1,3,,,,,,,,,,,,,,,,,,,1,,,,,,,,,,,,,,,,,,,,,,,"[""3""]",1,[1.7089000000000851],0,0,0,19,1,,,,,,,,,,,,,,,,,,,,,,,,,,
,,,,,,,,,,,X V Q F H G B L J M P D K C T S W R N Z,610d0c4142e68a34f7bfcaf2,21,Mężczyzna,2022-06-11_09h40.19.029,task,2021.1.4,Win32,119.7174668,6299f149e92ead563fba08ef,62a4469288cd2296b8f7c970,,,,,,,,,,,,,,,,,,,,,,,,,,,,,,,,,,,,,,,,,,,,,,,,,,,,,,,,,,,,,,,,,,,,,,,,,,,,6,0,6,0,1,,,,,,,,,,,,,,,,,,,,,
,,,,,,,,,,,,610d0c4142e68a34f7bfcaf2,21,Mężczyzna,2022-06-11_09h40.19.029,task,2021.1.4,Win32,119.7174668,6299f149e92ead563fba08ef,62a4469288cd2296b8f7c970,,,,,,,,,,,,,2,,,,,,,,,,Task,2,(2x2) - 2,2,,,,,,,,,,,,,,,,,,,1,,,,,,,,,,,,,,,,,,,,,,,"[""2""]",1,[1.7413000000000238],0,0,0,1,1,,,,,,,,,,,,,,,,,,,,,,,,,,
,,,,,,,,,,,X V Q F H G B L J M P D K C T S W R N Z,610d0c4142e68a34f7bfcaf2,21,Mężczyzna,2022-06-11_09h40.19.029,task,2021.1.4,Win32,119.7174668,6299f149e92ead563fba08ef,62a4469288cd2296b8f7c970,,,,,,,,,,,,,,,,,,,,,,,,,,,,,,,,,,,,,,,,,,,,,,,,,,,,,,,,,,,,,,,,,,,,,,,,,,,,7,0,7,0,1,,,,,,,,,,,,,,,,,,,,,
,,,,,,,,,,,,610d0c4142e68a34f7bfcaf2,21,Mężczyzna,2022-06-11_09h40.19.029,task,2021.1.4,Win32,119.7174668,6299f149e92ead563fba08ef,62a4469288cd2296b8f7c970,,,,,,,,,,,,,2,,,,,,,,,,Task,19,(6/2) - 1,2,,,,,,,,,,,,,,,,,,,1,,,,,,,,,,,,,,,,,,,,,,,"[""2""]",1,[2.640399999999886],0,0,0,18,1,,,,,,,,,,,,,,,,,,,,,,,,,,
,,,,,,,,,,,X V Q F H G B L J M P D K C T S W R N Z,610d0c4142e68a34f7bfcaf2,21,Mężczyzna,2022-06-11_09h40.19.029,task,2021.1.4,Win32,119.7174668,6299f149e92ead563fba08ef,62a4469288cd2296b8f7c970,,,,,,,,,,,,,,,,,,,,,,,,,,,,,,,,,,,,,,,,,,,,,,,,,,,,,,,,,,,,,,,,,,,,,,,,,,,,8,0,8,0,1,,,,,,,,,,,,,,,,,,,,,
,,,,,,,,,,,,610d0c4142e68a34f7bfcaf2,21,Mężczyzna,2022-06-11_09h40.19.029,task,2021.1.4,Win32,119.7174668,6299f149e92ead563fba08ef,62a4469288cd2296b8f7c970,,,,,,,,,,,,,2,,,,,,,,,,Task,19,(6/2) - 1,2,,,,,,,,,,,,,,,,,,,1,,,,,,,,,,,,,,,,,,,,,,,"[""2""]",1,[1.7463000000000193],0,0,0,18,1,,,,,,,,,,,,,,,,,,,,,,,,,,
,,,,,,,,,,,X V Q F H G B L J M P D K C T S W R N Z,610d0c4142e68a34f7bfcaf2,21,Mężczyzna,2022-06-11_09h40.19.029,task,2021.1.4,Win32,119.7174668,6299f149e92ead563fba08ef,62a4469288cd2296b8f7c970,,,,,,,,,,,,,,,,,,,,,,,,,,,,,,,,,,,,,,,,,,,,,,,,,,,,,,,,,,,,,,,,,,,,,,,,,,,,9,0,9,0,1,,,,,,,,,,,,,,,,,,,,,
,,,,,,,,,,,,610d0c4142e68a34f7bfcaf2,21,Mężczyzna,2022-06-11_09h40.19.029,task,2021.1.4,Win32,119.7174668,6299f149e92ead563fba08ef,62a4469288cd2296b8f7c970,,,,,,,,,,,,,,,,,,,,,,,,,,,,,,,,,,,,,,,,,,,,,,,,,,,,,,,,,,,,,,,,,,,,,,,,,,,,,,,,,qhctwxvhb,"[""q"",""h"",""c"",""t"",""w"",""x"",""v"",""h"",""b""]",0,"[2.5360999999999194,4.279599999999959,5.017799999999852,5.367500000000064,5.7590000000000146,6.343599999999924,7.001799999999889,8.087099999999964,8.44250000000011,9.075399999999945]",0,QCHTWXVHWB,9,0,9,0,1,,,,,,,,,,
,,,,,,,,,,,,610d0c4142e68a34f7bfcaf2,21,Mężczyzna,2022-06-11_09h40.19.029,task,2021.1.4,Win32,119.7174668,6299f149e92ead563fba08ef,62a4469288cd2296b8f7c970,,,,,,,,,,,,,0,,,,,,,,,,Task,25,(10/5) - 2,0,,,,,,,,,,,,,,,,,,,1,,,,,,,,,,,,,,,,,,,,,,,"[""0""]",1,[3.53879999999981],0,0,0,24,1,,,,,,,,,,,,,,,,,,,,,,,,,,
,,,,,,,,,,,X V Q F H G B L J M P D K C T S W R N Z,610d0c4142e68a34f7bfcaf2,21,Mężczyzna,2022-06-11_09h40.19.029,task,2021.1.4,Win32,119.7174668,6299f149e92ead563fba08ef,62a4469288cd2296b8f7c970,,,,,,,,,,,,,,,,,,,,,,,,,,,,,,,,,,,,,,,,,,,,,,,,,,,,,,,,,,,,,,,,,,,,,,,,,,,,0,0,0,0,1,,,,,,,,,,,,,,,,,,,,,
,,,,,,,,,,,,610d0c4142e68a34f7bfcaf2,21,Mężczyzna,2022-06-11_09h40.19.029,task,2021.1.4,Win32,119.7174668,6299f149e92ead563fba08ef,62a4469288cd2296b8f7c970,,,,,,,,,,,,,1,,,,,,,,,,Task,18,(16/4) - 3,1,,,,,,,,,,,,,,,,,,,1,,,,,,,,,,,,,,,,,,,,,,,"[""1""]",1,[3.3538999999999533],0,0,0,17,1,,,,,,,,,,,,,,,,,,,,,,,,,,
,,,,,,,,,,,X V Q F H G B L J M P D K C T S W R N Z,610d0c4142e68a34f7bfcaf2,21,Mężczyzna,2022-06-11_09h40.19.029,task,2021.1.4,Win32,119.7174668,6299f149e92ead563fba08ef,62a4469288cd2296b8f7c970,,,,,,,,,,,,,,,,,,,,,,,,,,,,,,,,,,,,,,,,,,,,,,,,,,,,,,,,,,,,,,,,,,,,,,,,,,,,1,0,1,0,1,,,,,,,,,,,,,,,,,,,,,
,,,,,,,,,,,,610d0c4142e68a34f7bfcaf2,21,Mężczyzna,2022-06-11_09h40.19.029,task,2021.1.4,Win32,119.7174668,6299f149e92ead563fba08ef,62a4469288cd2296b8f7c970,,,,,,,,,,,,,0,,,,,,,,,,Task,8,(1x5) - 5,0,,,,,,,,,,,,,,,,,,,1,,,,,,,,,,,,,,,,,,,,,,,"[""0""]",1,[2.565900000000056],0,0,0,7,1,,,,,,,,,,,,,,,,,,,,,,,,,,
,,,,,,,,,,,X V Q F H G B L J M P D K C T S W R N Z,610d0c4142e68a34f7bfcaf2,21,Mężczyzna,2022-06-11_09h40.19.029,task,2021.1.4,Win32,119.7174668,6299f149e92ead563fba08ef,62a4469288cd2296b8f7c970,,,,,,,,,,,,,,,,,,,,,,,,,,,,,,,,,,,,,,,,,,,,,,,,,,,,,,,,,,,,,,,,,,,,,,,,,,,,2,0,2,0,1,,,,,,,,,,,,,,,,,,,,,
,,,,,,,,,,,,610d0c4142e68a34f7bfcaf2,21,Mężczyzna,2022-06-11_09h40.19.029,task,2021.1.4,Win32,119.7174668,6299f149e92ead563fba08ef,62a4469288cd2296b8f7c970,,,,,,,,,,,,,0,,,,,,,,,,Task,4,(1x5) - 1,4,,,,,,,,,,,,,,,,,,,0,,,,,,,,,,,,,,,,,,,,,,,"[""0""]",0,[0.8840999999997621],0,0,0,3,1,,,,,,,,,,,,,,,,,,,,,,,,,,
,,,,,,,,,,,,610d0c4142e68a34f7bfcaf2,21,Mężczyzna,2022-06-11_09h40.19.029,task,2021.1.4,Win32,119.7174668,6299f149e92ead563fba08ef,62a4469288cd2296b8f7c970,,,,,,,,,,,,,6,,,,,,,,,,Task,37,(3/3) + 5,6,,,,,,,,,,,,,,,,,,,1,,,,,,,,,,,,,,,,,,,,,,,"[""6""]",1,[5.366399999999885],0,1,1,36,1,,,,,,,,,,,,,,,,,,,,,,,,,,
,,,,,,,,,,,X V Q F H G B L J M P D K C T S W R N Z,610d0c4142e68a34f7bfcaf2,21,Mężczyzna,2022-06-11_09h40.19.029,task,2021.1.4,Win32,119.7174668,6299f149e92ead563fba08ef,62a4469288cd2296b8f7c970,,,,,,,,,,,,,,,,,,,,,,,,,,,,,,,,,,,,,,,,,,,,,,,,,,,,,,,,,,,,,,,,,,,,,,,,,,,,3,0,3,0,1,,,,,,,,,,,,,,,,,,,,,
,,,,,,,,,,,,610d0c4142e68a34f7bfcaf2,21,Mężczyzna,2022-06-11_09h40.19.029,task,2021.1.4,Win32,119.7174668,6299f149e92ead563fba08ef,62a4469288cd2296b8f7c970,,,,,,,,,,,,,0,,,,,,,,,,Task,25,(10/5) - 2,0,,,,,,,,,,,,,,,,,,,1,,,,,,,,,,,,,,,,,,,,,,,"[""0""]",1,[3.105199999999968],0,0,0,24,1,,,,,,,,,,,,,,,,,,,,,,,,,,
,,,,,,,,,,,X V Q F H G B L J M P D K C T S W R N Z,610d0c4142e68a34f7bfcaf2,21,Mężczyzna,2022-06-11_09h40.19.029,task,2021.1.4,Win32,119.7174668,6299f149e92ead563fba08ef,62a4469288cd2296b8f7c970,,,,,,,,,,,,,,,,,,,,,,,,,,,,,,,,,,,,,,,,,,,,,,,,,,,,,,,,,,,,,,,,,,,,,,,,,,,,4,0,4,0,1,,,,,,,,,,,,,,,,,,,,,
,,,,,,,,,,,,610d0c4142e68a34f7bfcaf2,21,Mężczyzna,2022-06-11_09h40.19.029,task,2021.1.4,Win32,119.7174668,6299f149e92ead563fba08ef,62a4469288cd2296b8f7c970,,,,,,,,,,,,,6,,,,,,,,,,Task,5,(2x3) + 0,6,,,,,,,,,,,,,,,,,,,1,,,,,,,,,,,,,,,,,,,,,,,"[""6""]",1,[2.0153999999999996],0,0,0,4,1,,,,,,,,,,,,,,,,,,,,,,,,,,
,,,,,,,,,,,X V Q F H G B L J M P D K C T S W R N Z,610d0c4142e68a34f7bfcaf2,21,Mężczyzna,2022-06-11_09h40.19.029,task,2021.1.4,Win32,119.7174668,6299f149e92ead563fba08ef,62a4469288cd2296b8f7c970,,,,,,,,,,,,,,,,,,,,,,,,,,,,,,,,,,,,,,,,,,,,,,,,,,,,,,,,,,,,,,,,,,,,,,,,,,,,5,0,5,0,1,,,,,,,,,,,,,,,,,,,,,
,,,,,,,,,,,,610d0c4142e68a34f7bfcaf2,21,Mężczyzna,2022-06-11_09h40.19.029,task,2021.1.4,Win32,119.7174668,6299f149e92ead563fba08ef,62a4469288cd2296b8f7c970,,,,,,,,,,,,,0,,,,,,,,,,Task,17,(2x3) - 6,0,,,,,,,,,,,,,,,,,,,1,,,,,,,,,,,,,,,,,,,,,,,"[""0""]",1,[1.625099999999975],0,0,0,16,1,,,,,,,,,,,,,,,,,,,,,,,,,,
,,,,,,,,,,,X V Q F H G B L J M P D K C T S W R N Z,610d0c4142e68a34f7bfcaf2,21,Mężczyzna,2022-06-11_09h40.19.029,task,2021.1.4,Win32,119.7174668,6299f149e92ead563fba08ef,62a4469288cd2296b8f7c970,,,,,,,,,,,,,,,,,,,,,,,,,,,,,,,,,,,,,,,,,,,,,,,,,,,,,,,,,,,,,,,,,,,,,,,,,,,,6,0,6,0,1,,,,,,,,,,,,,,,,,,,,,
,,,,,,,,,,,,610d0c4142e68a34f7bfcaf2,21,Mężczyzna,2022-06-11_09h40.19.029,task,2021.1.4,Win32,119.7174668,6299f149e92ead563fba08ef,62a4469288cd2296b8f7c970,,,,,,,,,,,,,1,,,,,,,,,,Task,21,(10/2) - 1,4,,,,,,,,,,,,,,,,,,,0,,,,,,,,,,,,,,,,,,,,,,,"[""1""]",0,[2.3834999999999127],0,0,0,20,1,,,,,,,,,,,,,,,,,,,,,,,,,,
,,,,,,,,,,,,610d0c4142e68a34f7bfcaf2,21,Mężczyzna,2022-06-11_09h40.19.029,task,2021.1.4,Win32,119.7174668,6299f149e92ead563fba08ef,62a4469288cd2296b8f7c970,,,,,,,,,,,,,0,,,,,,,,,,Task,33,(1/1) - 1,0,,,,,,,,,,,,,,,,,,,1,,,,,,,,,,,,,,,,,,,,,,,"[""0""]",1,[3.0973999999998796],0,1,1,32,1,,,,,,,,,,,,,,,,,,,,,,,,,,
,,,,,,,,,,,X V Q F H G B L J M P D K C T S W R N Z,610d0c4142e68a34f7bfcaf2,21,Mężczyzna,2022-06-11_09h40.19.029,task,2021.1.4,Win32,119.7174668,6299f149e92ead563fba08ef,62a4469288cd2296b8f7c970,,,,,,,,,,,,,,,,,,,,,,,,,,,,,,,,,,,,,,,,,,,,,,,,,,,,,,,,,,,,,,,,,,,,,,,,,,,,7,0,7,0,1,,,,,,,,,,,,,,,,,,,,,
,,,,,,,,,,,,610d0c4142e68a34f7bfcaf2,21,Mężczyzna,2022-06-11_09h40.19.029,task,2021.1.4,Win32,119.7174668,6299f149e92ead563fba08ef,62a4469288cd2296b8f7c970,,,,,,,,,,,,,5,,,,,,,,,,Task,29,(3x8) - 19 ,5,,,,,,,,,,,,,,,,,,,1,,,,,,,,,,,,,,,,,,,,,,,"[""5""]",1,[7.38390000000004],0,0,0,28,1,,,,,,,,,,,,,,,,,,,,,,,,,,
,,,,,,,,,,,X V Q F H G B L J M P D K C T S W R N Z,610d0c4142e68a34f7bfcaf2,21,Mężczyzna,2022-06-11_09h40.19.029,task,2021.1.4,Win32,119.7174668,6299f149e92ead563fba08ef,62a4469288cd2296b8f7c970,,,,,,,,,,,,,,,,,,,,,,,,,,,,,,,,,,,,,,,,,,,,,,,,,,,,,,,,,,,,,,,,,,,,,,,,,,,,8,0,8,0,1,,,,,,,,,,,,,,,,,,,,,
,,,,,,,,,,,,610d0c4142e68a34f7bfcaf2,21,Mężczyzna,2022-06-11_09h40.19.029,task,2021.1.4,Win32,119.7174668,6299f149e92ead563fba08ef,62a4469288cd2296b8f7c970,,,,,,,,,,,,,0,,,,,,,,,,Task,17,(2x3) - 6,0,,,,,,,,,,,,,,,,,,,1,,,,,,,,,,,,,,,,,,,,,,,"[""0""]",1,[3.3346999999998843],0,0,0,16,1,,,,,,,,,,,,,,,,,,,,,,,,,,
,,,,,,,,,,,X V Q F H G B L J M P D K C T S W R N Z,610d0c4142e68a34f7bfcaf2,21,Mężczyzna,2022-06-11_09h40.19.029,task,2021.1.4,Win32,119.7174668,6299f149e92ead563fba08ef,62a4469288cd2296b8f7c970,,,,,,,,,,,,,,,,,,,,,,,,,,,,,,,,,,,,,,,,,,,,,,,,,,,,,,,,,,,,,,,,,,,,,,,,,,,,9,0,9,0,1,,,,,,,,,,,,,,,,,,,,,
,,,,,,,,,,,,610d0c4142e68a34f7bfcaf2,21,Mężczyzna,2022-06-11_09h40.19.029,task,2021.1.4,Win32,119.7174668,6299f149e92ead563fba08ef,62a4469288cd2296b8f7c970,,,,,,,,,,,,,,,,,,,,,,,,,,,,,,,,,,,,,,,,,,,,,,,,,,,,,,,,,,,,,,,,,,,,,,,,,,,,,,,,,tlkgbdqspt,"[""t"",""l"",""k"",""g"",""b"",""d"",""q"",""s"",""p"",""t""]",0,"[3.3925000000001546,4.428700000000163,4.850600000000213,5.567800000000261,6.044700000000148,6.576100000000224,7.041699999999992,7.484699999999975,7.933899999999994,8.542300000000068,10.657100000000128]",0,TLKGBDQGPT,10,0,10,0,1,,,,,,,,,,
,,,,,,,,,,,,610d0c4142e68a34f7bfcaf2,21,Mężczyzna,2022-06-11_09h40.19.029,task,2021.1.4,Win32,119.7174668,6299f149e92ead563fba08ef,62a4469288cd2296b8f7c970,,,,,,,,,,,,,,,,,,,,,,,,,,,,,,,,,,,,,,,,,,,,,,,,,,,,,,,,,,,,,,,,,,,,,,,,,,,,,,,,,,,,,,,,,,,,"[""comma""]",0,[1.163899999999785],0,0,0,0,1,,
,,,,,,,,,,,,610d0c4142e68a34f7bfcaf2,21,Mężczyzna,2022-06-11_09h40.19.029,task,2021.1.4,Win32,119.7174668,6299f149e92ead563fba08ef,62a4469288cd2296b8f7c970,,,,,,,,,,,,,,,,,,,,,,,,,,,,,,,,,,,,,,,,,,,,,,,,,,,,,,,,,,,,,,,,,,,,,,,,,,,,,,,,,,,,,,,,,,,,"[""period""]",0,[0.852500000000191],1,0,1,0,1,,
,,,,,,,,,,,,610d0c4142e68a34f7bfcaf2,21,Mężczyzna,2022-06-11_09h40.19.029,task,2021.1.4,Win32,119.7174668,6299f149e92ead563fba08ef,62a4469288cd2296b8f7c970,,,,,,,,,,,,,,,,,,,,,,,,,,,,,,,,,,,,,,,,,,,,,,,,,,,,,,,,,,,,,,,,,,,,,,,,,,,,,,,,,,,,,,,,,,,,"[""comma""]",0,[0.8998999999998887],2,0,2,0,1,,
,,,,,,,,,,,,610d0c4142e68a34f7bfcaf2,21,Mężczyzna,2022-06-11_09h40.19.029,task,2021.1.4,Win32,119.7174668,6299f149e92ead563fba08ef,62a4469288cd2296b8f7c970,,,,,,,,,,,,,,,,,,,,,,,,,,,,,,,,,,,,,,,,,,,,,,,,,,,,,,,,,,,,,,,,,,,,,,,,,,,,,,,,,,,,,,,,,,,,"[""period""]",0,[0.6128000000001066],3,0,3,0,1,,
,,,,,,,,,,,,610d0c4142e68a34f7bfcaf2,21,Mężczyzna,2022-06-11_09h40.19.029,task,2021.1.4,Win32,119.7174668,6299f149e92ead563fba08ef,62a4469288cd2296b8f7c970,,,,,,,,,,,,,,,,,,,,,,,,,,,,,,,,,,,,,,,,,,,,,,,,,,,,,,,,,,,,,,,,,,,,,,,,,,,,,,,,,,,,,,,,,,,,"[""period""]",0,[0.4375],4,0,4,0,1,,
,,,,,,,,,,,,610d0c4142e68a34f7bfcaf2,21,Mężczyzna,2022-06-11_09h40.19.029,task,2021.1.4,Win32,119.7174668,6299f149e92ead563fba08ef,62a4469288cd2296b8f7c970,,,,,,,,,,,,,,,,,,,,,,,,,,,,,,,,,,,,,,,,,,,,,,,,,,,,,,,,,,,,,,,,,,,,,,,,,,,,,,,,,,,,,,,,,,,,"[""comma""]",0,[0.6784000000002379],5,0,5,0,1,,
,,,,,,,,,,,,610d0c4142e68a34f7bfcaf2,21,Mężczyzna,2022-06-11_09h40.19.029,task,2021.1.4,Win32,119.7174668,6299f149e92ead563fba08ef,62a4469288cd2296b8f7c970,,,,,,,,,,,,,,,,,,,,,,,,,,,,,,,,,,,,,,,,,,,,,,,,,,,,,,,,,,,,,,,,,,,,,,,,,,,,,,,,,,,,,,,,,,,,"[""comma""]",0,[0.7834000000000287],6,0,6,0,1,,
,,,,,,,,,,,,610d0c4142e68a34f7bfcaf2,21,Mężczyzna,2022-06-11_09h40.19.029,task,2021.1.4,Win32,119.7174668,6299f149e92ead563fba08ef,62a4469288cd2296b8f7c970,,,,,,,,,,,,,,,,,,,,,,,,,,,,,,,,,,,,,,,,,,,,,,,,,,,,,,,,,,,,,,,,,,,,,,,,,,,,,,,,,,,,,,,,,,,,"[""comma""]",0,[0.4335999999998421],7,0,7,0,1,,
,,,,,,,,,,,,610d0c4142e68a34f7bfcaf2,21,Mężczyzna,2022-06-11_09h40.19.029,task,2021.1.4,Win32,119.7174668,6299f149e92ead563fba08ef,62a4469288cd2296b8f7c970,,,,,,,,,,,,,,,,,,,,,,,,,,,,,,,,,,,,,,,,,,,,,,,,,,,,,,,,,,,,,,,,,,,,,,,,,,,,,,,,,,,,,,,,,,,,"[""period""]",0,[0.36760000000003856],8,0,8,0,1,,
,,,,,,,,,,,,610d0c4142e68a34f7bfcaf2,21,Mężczyzna,2022-06-11_09h40.19.029,task,2021.1.4,Win32,119.7174668,6299f149e92ead563fba08ef,62a4469288cd2296b8f7c970,,,,,,,,,,,,,,,,,,,,,,,,,,,,,,,,,,,,,,,,,,,,,,,,,,,,,,,,,,,,,,,,,,,,,,,,,,,,,,,,,,,,,,,,,,,,"[""comma""]",0,[0.4458999999999378],9,0,9,0,1,,
,,,,,,,,,,,,610d0c4142e68a34f7bfcaf2,21,Mężczyzna,2022-06-11_09h40.19.029,task,2021.1.4,Win32,119.7174668,6299f149e92ead563fba08ef,62a4469288cd2296b8f7c970,,,,,,,,,,,,,,,,,,,,,,,,,,,,,,,,,,,,,,,,,,,,,,,,,,,,,,,,,,,,,,,,,,,,,,,,,,,,,,,,,,,,,,,,,,,,"[""period""]",0,[0.30209999999988213],10,0,10,0,1,,
,,,,,,,,,,,,610d0c4142e68a34f7bfcaf2,21,Mężczyzna,2022-06-11_09h40.19.029,task,2021.1.4,Win32,119.7174668,6299f149e92ead563fba08ef,62a4469288cd2296b8f7c970,,,,,,,,,,,,,,,,,,,,,,,,,,,,,,,,,,,,,,,,,,,,,,,,,,,,,,,,,,,,,,,,,,,,,,,,,,,,,,,,,,,,,,,,,,,,"[""period""]",0,[0.44260000000008404],11,0,11,0,1,,
,,,,,,,,,,,,610d0c4142e68a34f7bfcaf2,21,Mężczyzna,2022-06-11_09h40.19.029,task,2021.1.4,Win32,119.7174668,6299f149e92ead563fba08ef,62a4469288cd2296b8f7c970,,,,,,,,,,,,,,,,,,,,,,,,,,,,,,,,,,,,,,,,,,,,,,,,,,,,,,,,,,,,,,,,,,,,,,,,,,,,,,,,,,,,,,,,,,,,"[""period""]",0,[0.5589999999999691],12,0,12,0,1,,
,,,,,,,,,,,,610d0c4142e68a34f7bfcaf2,21,Mężczyzna,2022-06-11_09h40.19.029,task,2021.1.4,Win32,119.7174668,6299f149e92ead563fba08ef,62a4469288cd2296b8f7c970,,,,,,,,,,,,,,,,,,,,,,,,,,,,,,,,,,,,,,,,,,,,,,,,,,,,,,,,,,,,,,,,,,,,,,,,,,,,,,,,,,,,,,,,,,,,"[""comma""]",0,[0.7750999999998385],13,0,13,0,1,,
,,,,,,,,,,,,610d0c4142e68a34f7bfcaf2,21,Mężczyzna,2022-06-11_09h40.19.029,task,2021.1.4,Win32,119.7174668,6299f149e92ead563fba08ef,62a4469288cd2296b8f7c970,,,,,,,,,,,,,,,,,,,,,,,,,,,,,,,,,,,,,,,,,,,,,,,,,,,,,,,,,,,,,,,,,,,,,,,,,,,,,,,,,,,,,,,,,,,,"[""period""]",0,[0.6506000000001677],14,0,14,0,1,,
,,,,,,,,,,,,610d0c4142e68a34f7bfcaf2,21,Mężczyzna,2022-06-11_09h40.19.029,task,2021.1.4,Win32,119.7174668,6299f149e92ead563fba08ef,62a4469288cd2296b8f7c970,,,,,,,,,,,,,,,,,,,,,,,,,,,,,,,,,,,,,,,,,,,,,,,,,,,,,,,,,,,,,,,,,,,,,,,,,,,,,,,,,,,,,,,,,,,,"[""comma""]",0,[0.38400000000001455],15,0,15,0,1,,
,,,,,,,,,,,,610d0c4142e68a34f7bfcaf2,21,Mężczyzna,2022-06-11_09h40.19.029,task,2021.1.4,Win32,119.7174668,6299f149e92ead563fba08ef,62a4469288cd2296b8f7c970,,,,,,,,,,,,,,,,,,,,,,,,,,,,,,,,,,,,,,,,,,,,,,,,,,,,,,,,,,,,,,,,,,,,,,,,,,,,,,,,,,,,,,,,,,,,"[""comma""]",0,[0.484599999999773],16,0,16,0,1,,
,,,,,,,,,,,,610d0c4142e68a34f7bfcaf2,21,Mężczyzna,2022-06-11_09h40.19.029,task,2021.1.4,Win32,119.7174668,6299f149e92ead563fba08ef,62a4469288cd2296b8f7c970,,,,,,,,,,,,,,,,,,,,,,,,,,,,,,,,,,,,,,,,,,,,,,,,,,,,,,,,,,,,,,,,,,,,,,,,,,,,,,,,,,,,,,,,,,,,"[""comma""]",0,[0.3868999999999687],17,0,17,0,1,,
,,,,,,,,,,,,610d0c4142e68a34f7bfcaf2,21,Mężczyzna,2022-06-11_09h40.19.029,task,2021.1.4,Win32,119.7174668,6299f149e92ead563fba08ef,62a4469288cd2296b8f7c970,,,,,,,,,,,,,,,,,,,,,,,,,,,,,,,,,,,,,,,,,,,,,,,,,,,,,,,,,,,,,,,,,,,,,,,,,,,,,,,,,,,,,,,,,,,,"[""period""]",0,[0.7341000000001259],18,0,18,0,1,,
,,,,,,,,,,,,610d0c4142e68a34f7bfcaf2,21,Mężczyzna,2022-06-11_09h40.19.029,task,2021.1.4,Win32,119.7174668,6299f149e92ead563fba08ef,62a4469288cd2296b8f7c970,,,,,,,,,,,,,,,,,,,,,,,,,,,,,,,,,,,,,,,,,,,,,,,,,,,,,,,,,,,,,,,,,,,,,,,,,,,,,,,,,,,,,,,,,,,,"[""comma""]",0,[0.5534000000000106],19,0,19,0,1,,
,,,,,,,,,,,,610d0c4142e68a34f7bfcaf2,21,Mężczyzna,2022-06-11_09h40.19.029,task,2021.1.4,Win32,119.7174668,6299f149e92ead563fba08ef,62a4469288cd2296b8f7c970,,,,,,,,,,,,,,,,,,,,,,,,,,,,,,,,,,,,,,,,,,,,,,,,,,,,,,,,,,,,,,,,,,,,,,,,,,,,,,,,,,,,,,,,,,,,"[""comma"",""comma""]",0,"[1.283600000000206,1.483699999999999]",20,0,20,0,1,,
,,,,,,,,,,,,610d0c4142e68a34f7bfcaf2,21,Mężczyzna,2022-06-11_09h40.19.029,task,2021.1.4,Win32,119.7174668,6299f149e92ead563fba08ef,62a4469288cd2296b8f7c970,,,,,,,,,,,,,,,,,,,,,,,,,,,,,,,,,,,,,,,,,,,,,,,,,,,,,,,,,,,,,,,,,,,,,,,,,,,,,,,,,,,,,,,,,,,,"[""period""]",0,[0.850400000000036],21,0,21,0,1,,
,,,,,,,,,,,,610d0c4142e68a34f7bfcaf2,21,Mężczyzna,2022-06-11_09h40.19.029,task,2021.1.4,Win32,119.7174668,6299f149e92ead563fba08ef,62a4469288cd2296b8f7c970,,,,,,,,,,,,,,,,,,,,,,,,,,,,,,,,,,,,,,,,,,,,,,,,,,,,,,,,,,,,,,,,,,,,,,,,,,,,,,,,,,,,,,,,,,,,"[""comma""]",0,[0.6503999999999905],22,0,22,0,1,,
,,,,,,,,,,,,610d0c4142e68a34f7bfcaf2,21,Mężczyzna,2022-06-11_09h40.19.029,task,2021.1.4,Win32,119.7174668,6299f149e92ead563fba08ef,62a4469288cd2296b8f7c970,,,,,,,,,,,,,,,,,,,,,,,,,,,,,,,,,,,,,,,,,,,,,,,,,,,,,,,,,,,,,,,,,,,,,,,,,,,,,,,,,,,,,,,,,,,,"[""comma""]",0,[0.7337999999999738],23,0,23,0,1,,
,,,,,,,,,,,,610d0c4142e68a34f7bfcaf2,21,Mężczyzna,2022-06-11_09h40.19.029,task,2021.1.4,Win32,119.7174668,6299f149e92ead563fba08ef,62a4469288cd2296b8f7c970,,,,,,,,,,,,,,,,,,,,,,,,,,,,,,,,,,,,,,,,,,,,,,,,,,,,,,,,,,,,,,,,,,,,,,,,,,,,,,,,,,,,,,,,,,,,"[""period""]",0,[0.6256000000000768],24,0,24,0,1,,
,,,,,,,,,,,,610d0c4142e68a34f7bfcaf2,21,Mężczyzna,2022-06-11_09h40.19.029,task,2021.1.4,Win32,119.7174668,6299f149e92ead563fba08ef,62a4469288cd2296b8f7c970,,,,,,,,,,,,,,,,,,,,,,,,,,,,,,,,,,,,,,,,,,,,,,,,,,,,,,,,,,,,,,,,,,,,,,,,,,,,,,,,,,,,,,,,,,,,"[""comma""]",0,[0.592200000000048],25,0,25,0,1,,
,,,,,,,,,,,,610d0c4142e68a34f7bfcaf2,21,Mężczyzna,2022-06-11_09h40.19.029,task,2021.1.4,Win32,119.7174668,6299f149e92ead563fba08ef,62a4469288cd2296b8f7c970,,,,,,,,,,,,,,,,,,,,,,,,,,,,,,,,,,,,,,,,,,,,,,,,,,,,,,,,,,,,,,,,,,,,,,,,,,,,,,,,,,,,,,,,,,,,"[""period""]",0,[0.39380000000005566],26,0,26,0,1,,
,,,,,,,,,,,,610d0c4142e68a34f7bfcaf2,21,Mężczyzna,2022-06-11_09h40.19.029,task,2021.1.4,Win32,119.7174668,6299f149e92ead563fba08ef,62a4469288cd2296b8f7c970,,,,,,,,,,,,,,,,,,,,,,,,,,,,,,,,,,,,,,,,,,,,,,,,,,,,,,,,,,,,,,,,,,,,,,,,,,,,,,,,,,,,,,,,,,,,"[""comma""]",0,[0.2420999999999367],27,0,27,0,1,,
,,,,,,,,,,,,610d0c4142e68a34f7bfcaf2,21,Mężczyzna,2022-06-11_09h40.19.029,task,2021.1.4,Win32,119.7174668,6299f149e92ead563fba08ef,62a4469288cd2296b8f7c970,,,,,,,,,,,,,,,,,,,,,,,,,,,,,,,,,,,,,,,,,,,,,,,,,,,,,,,,,,,,,,,,,,,,,,,,,,,,,,,,,,,,,,,,,,,,"[""comma""]",0,[0.2839000000001306],28,0,28,0,1,,
,,,,,,,,,,,,610d0c4142e68a34f7bfcaf2,21,Mężczyzna,2022-06-11_09h40.19.029,task,2021.1.4,Win32,119.7174668,6299f149e92ead563fba08ef,62a4469288cd2296b8f7c970,,,,,,,,,,,,,,,,,,,,,,,,,,,,,,,,,,,,,,,,,,,,,,,,,,,,,,,,,,,,,,,,,,,,,,,,,,,,,,,,,,,,,,,,,,,,"[""comma""]",0,[0.5240999999998621],29,0,29,0,1,,
,,,,,,,,,,,,610d0c4142e68a34f7bfcaf2,21,Mężczyzna,2022-06-11_09h40.19.029,task,2021.1.4,Win32,119.7174668,6299f149e92ead563fba08ef,62a4469288cd2296b8f7c970,,,,,,,,,,,,,,,,,,,,,,,,,,,,,,,,,,,,,,,,,,,,,,,,,,,,,,,,,,,,,,,,,,,,,,,,,,,,,,,,,,,,,,,,,,,,"[""period""]",0,[0.3592999999998483],30,0,30,0,1,,
,,,,,,,,,,,,610d0c4142e68a34f7bfcaf2,21,Mężczyzna,2022-06-11_09h40.19.029,task,2021.1.4,Win32,119.7174668,6299f149e92ead563fba08ef,62a4469288cd2296b8f7c970,,,,,,,,,,,,,,,,,,,,,,,,,,,,,,,,,,,,,,,,,,,,,,,,,,,,,,,,,,,,,,,,,,,,,,,,,,,,,,,,,,,,,,,,,,,,"[""period""]",0,[0.575800000000072],31,0,31,0,1,,
,,,,,,,,,,,,610d0c4142e68a34f7bfcaf2,21,Mężczyzna,2022-06-11_09h40.19.029,task,2021.1.4,Win32,119.7174668,6299f149e92ead563fba08ef,62a4469288cd2296b8f7c970,,,,,,,,,,,,,,,,,,,,,,,,,,,,,,,,,,,,,,,,,,,,,,,,,,,,,,,,,,,,,,,,,,,,,,,,,,,,,,,,,,,,,,,,,,,,"[""period""]",0,[0.5503000000001066],32,0,32,0,1,,
,,,,,,,,,,,,610d0c4142e68a34f7bfcaf2,21,Mężczyzna,2022-06-11_09h40.19.029,task,2021.1.4,Win32,119.7174668,6299f149e92ead563fba08ef,62a4469288cd2296b8f7c970,,,,,,,,,,,,,,,,,,,,,,,,,,,,,,,,,,,,,,,,,,,,,,,,,,,,,,,,,,,,,,,,,,,,,,,,,,,,,,,,,,,,,,,,,,,,"[""comma""]",0,[0.40030000000001564],33,0,33,0,1,,
,,,,,,,,,,,,610d0c4142e68a34f7bfcaf2,21,Mężczyzna,2022-06-11_09h40.19.029,task,2021.1.4,Win32,119.7174668,6299f149e92ead563fba08ef,62a4469288cd2296b8f7c970,,,,,,,,,,,,,,,,,,,,,,,,,,,,,,,,,,,,,,,,,,,,,,,,,,,,,,,,,,,,,,,,,,,,,,,,,,,,,,,,,,,,,,,,,,,,"[""comma""]",0,[0.3588999999999487],34,0,34,0,1,,
,,,,,,,,,,,,610d0c4142e68a34f7bfcaf2,21,Mężczyzna,2022-06-11_09h40.19.029,task,2021.1.4,Win32,119.7174668,6299f149e92ead563fba08ef,62a4469288cd2296b8f7c970,,,,,,,,,,,,,,,,,,,,,,,,,,,,,,,,,,,,,,,,,,,,,,,,,,,,,,,,,,,,,,,,,,,,,,,,,,,,,,,,,,,,,,,,,,,,"[""comma""]",0,[0.4756000000002132],35,0,35,0,1,,
,,,,,,,,,,,,610d0c4142e68a34f7bfcaf2,21,Mężczyzna,2022-06-11_09h40.19.029,task,2021.1.4,Win32,119.7174668,6299f149e92ead563fba08ef,62a4469288cd2296b8f7c970,,,,,,,,,,,,,,,,,,,,,,,,,,,,,,,,,,,,,,,,,,,,,,,,,,,,,,,,,,,,,,,,,,,,,,,,,,,,,,,,,,,,,,,,,,,,"[""comma""]",0,[0.4855000000000018],36,0,36,0,1,,
,,,,,,,,,,,,610d0c4142e68a34f7bfcaf2,21,Mężczyzna,2022-06-11_09h40.19.029,task,2021.1.4,Win32,119.7174668,6299f149e92ead563fba08ef,62a4469288cd2296b8f7c970,,,,,,,,,,,,,,,,,,,,,,,,,,,,,,,,,,,,,,,,,,,,,,,,,,,,,,,,,,,,,,,,,,,,,,,,,,,,,,,,,,,,,,,,,,,,"[""period""]",0,[0.3004000000000815],37,0,37,0,1,,
,,,,,,,,,,,,610d0c4142e68a34f7bfcaf2,21,Mężczyzna,2022-06-11_09h40.19.029,task,2021.1.4,Win32,119.7174668,6299f149e92ead563fba08ef,62a4469288cd2296b8f7c970,,,,,,,,,,,,,,,,,,,,,,,,,,,,,,,,,,,,,,,,,,,,,,,,,,,,,,,,,,,,,,,,,,,,,,,,,,,,,,,,,,,,,,,,,,,,"[""comma""]",0,[0.4876999999999043],38,0,38,0,1,,
,,,,,,,,,,,,610d0c4142e68a34f7bfcaf2,21,Mężczyzna,2022-06-11_09h40.19.029,task,2021.1.4,Win32,119.7174668,6299f149e92ead563fba08ef,62a4469288cd2296b8f7c970,,,,,,,,,,,,,,,,,,,,,,,,,,,,,,,,,,,,,,,,,,,,,,,,,,,,,,,,,,,,,,,,,,,,,,,,,,,,,,,,,,,,,,,,,,,,"[""period""]",0,[0.33409999999980755],39,0,39,0,1,,
,,,,,,,,,,,,610d0c4142e68a34f7bfcaf2,21,Mężczyzna,2022-06-11_09h40.19.029,task,2021.1.4,Win32,119.7174668,6299f149e92ead563fba08ef,62a4469288cd2296b8f7c970,,,,,,,,,,,,,,,,,,,,,,,,,,,,,,,,,,,,,,,,,,,,,,,,,,,,,,,,,,,,,,,,,,,,,,,,,,,,,,,,,,,,,,,,,,,,"[""comma""]",0,[0.27510000000006585],40,0,40,0,1,,
,,,,,,,,,,,,610d0c4142e68a34f7bfcaf2,21,Mężczyzna,2022-06-11_09h40.19.029,task,2021.1.4,Win32,119.7174668,6299f149e92ead563fba08ef,62a4469288cd2296b8f7c970,,,,,,,,,,,,,,,,,,,,,,,,,,,,,,,,,,,,,,,,,,,,,,,,,,,,,,,,,,,,,,,,,,,,,,,,,,,,,,,,,,,,,,,,,,,,"[""period""]",0,[0.2258999999999105],41,0,41,0,1,,
,,,,,,,,,,,,610d0c4142e68a34f7bfcaf2,21,Mężczyzna,2022-06-11_09h40.19.029,task,2021.1.4,Win32,119.7174668,6299f149e92ead563fba08ef,62a4469288cd2296b8f7c970,,,,,,,,,,,,,,,,,,,,,,,,,,,,,,,,,,,,,,,,,,,,,,,,,,,,,,,,,,,,,,,,,,,,,,,,,,,,,,,,,,,,,,,,,,,,"[""comma""]",0,[0.2502999999999247],42,0,42,0,1,,
,,,,,,,,,,,,610d0c4142e68a34f7bfcaf2,21,Mężczyzna,2022-06-11_09h40.19.029,task,2021.1.4,Win32,119.7174668,6299f149e92ead563fba08ef,62a4469288cd2296b8f7c970,,,,,,,,,,,,,,,,,,,,,,,,,,,,,,,,,,,,,,,,,,,,,,,,,,,,,,,,,,,,,,,,,,,,,,,,,,,,,,,,,,,,,,,,,,,,"[""comma""]",0,[0.233600000000024],43,0,43,0,1,,
,,,,,,,,,,,,610d0c4142e68a34f7bfcaf2,21,Mężczyzna,2022-06-11_09h40.19.029,task,2021.1.4,Win32,119.7174668,6299f149e92ead563fba08ef,62a4469288cd2296b8f7c970,,,,,,,,,,,,,,,,,,,,,,,,,,,,,,,,,,,,,,,,,,,,,,,,,,,,,,,,,,,,,,,,,,,,,,,,,,,,,,,,,,,,,,,,,,,,"[""period""]",0,[0.27569999999991524],44,0,44,0,1,,
,,,,,,,,,,,,610d0c4142e68a34f7bfcaf2,21,Mężczyzna,2022-06-11_09h40.19.029,task,2021.1.4,Win32,119.7174668,6299f149e92ead563fba08ef,62a4469288cd2296b8f7c970,,,,,,,,,,,,,,,,,,,,,,,,,,,,,,,,,,,,,,,,,,,,,,,,,,,,,,,,,,,,,,,,,,,,,,,,,,,,,,,,,,,,,,,,,,,,"[""comma""]",0,[0.2837000000001808],45,0,45,0,1,,
,,,,,,,,,,,,610d0c4142e68a34f7bfcaf2,21,Mężczyzna,2022-06-11_09h40.19.029,task,2021.1.4,Win32,119.7174668,6299f149e92ead563fba08ef,62a4469288cd2296b8f7c970,,,,,,,,,,,,,,,,,,,,,,,,,,,,,,,,,,,,,,,,,,,,,,,,,,,,,,,,,,,,,,,,,,,,,,,,,,,,,,,,,,,,,,,,,,,,"[""period""]",0,[0.3166999999998552],46,0,46,0,1,,
,,,,,,,,,,,,610d0c4142e68a34f7bfcaf2,21,Mężczyzna,2022-06-11_09h40.19.029,task,2021.1.4,Win32,119.7174668,6299f149e92ead563fba08ef,62a4469288cd2296b8f7c970,,,,,,,,,,,,,,,,,,,,,,,,,,,,,,,,,,,,,,,,,,,,,,,,,,,,,,,,,,,,,,,,,,,,,,,,,,,,,,,,,,,,,,,,,,,,"[""comma""]",0,[0.5418999999999414],47,0,47,0,1,,
,,,,,,,,,,,,610d0c4142e68a34f7bfcaf2,21,Mężczyzna,2022-06-11_09h40.19.029,task,2021.1.4,Win32,119.7174668,6299f149e92ead563fba08ef,62a4469288cd2296b8f7c970,,,,,,,,,,,,,,,,,,,,,,,,,,,,,,,,,,,,,,,,,,,,,,,,,,,,,,,,,,,,,,,,,,,,,,,,,,,,,,,,,,,,,,,,,,,,"[""comma""]",0,[0.6341000000002168],48,0,48,0,1,,
