key_resp_15.keys,key_resp_15.rt,key_resp_16.keys,key_resp_16.rt,key_resp_4.keys,key_resp_4.rt,next_letter.thisRepN,next_letter.thisTrialN,next_letter.thisN,next_letter.thisIndex,next_letter.ran,letter,participant,Wiek*,Płeć,date,expName,psychopyVersion,OS,frameRate,study_id,session,simple_recall,key_resp_5.keys,key_resp_5.rt,simple_recall_corr,simple_recall_corrkeys,next_level.thisRepN,next_level.thisTrialN,next_level.thisN,next_level.thisIndex,next_level.ran,key_resp_2.keys,key_resp_2.rt,digit_answer,key_resp.keys,key_resp.corr,key_resp.rt,RT_list,next_equation.thisRepN,next_equation.thisTrialN,next_equation.thisN,next_equation.thisIndex,next_equation.ran,Task,Trial,Problem,Operation_answer,processing_score,sumRT,meanRT,sumdiff,sd,RT,key_resp_3.keys,key_resp_3.rt,repeat_practice.thisRepN,repeat_practice.thisTrialN,repeat_practice.thisN,repeat_practice.thisIndex,repeat_practice.ran,key_resp_6.keys,key_resp_6.rt,key_resp_11.keys,key_resp_11.corr,key_resp_11.rt,operation_correct,repeat_if_wrong_prac.thisRepN,repeat_if_wrong_prac.thisTrialN,repeat_if_wrong_prac.thisN,repeat_if_wrong_prac.thisIndex,repeat_if_wrong_prac.ran,span_size_prac.thisRepN,span_size_prac.thisTrialN,span_size_prac.thisN,span_size_prac.thisIndex,span_size_prac.ran,complex_recall_practice,key_resp_9.keys,key_resp_9.corr,key_resp_9.rt,complex_prac_corr,span_recall_prac.thisRepN,span_recall_prac.thisTrialN,span_recall_prac.thisN,span_recall_prac.thisIndex,span_recall_prac.ran,key_resp_10.keys,key_resp_10.rt,key_resp_7.keys,key_resp_7.corr,key_resp_7.rt,repeat_if_wrong.thisRepN,repeat_if_wrong.thisTrialN,repeat_if_wrong.thisN,repeat_if_wrong.thisIndex,repeat_if_wrong.ran,span_size.thisRepN,span_size.thisTrialN,span_size.thisN,span_size.thisIndex,span_size.ran,complex_recall,key_resp_8.keys,key_resp_8.corr,key_resp_8.rt,complex_recall_corr,complex_recall_corrkeys,span_recall.thisRepN,span_recall.thisTrialN,span_recall.thisN,span_recall.thisIndex,span_recall.ran,key_resp_13.keys,key_resp_13.corr,key_resp_13.rt,random_loop.thisRepN,random_loop.thisTrialN,random_loop.thisN,random_loop.thisIndex,random_loop.ran,key_resp_12.keys,key_resp_12.rt
space,16.7476,space,23.258,space,5.1419,0,0,0,0,1,X V Q F H G B L J M P D K C T S W R N Z,6114c64e70ce0ea9140a2296,19,Mężczyzna,2022-06-25_15h53.19.955,task,2021.1.4,Win32,119.3602292,6299f149e92ead563fba08ef,62b70e429057beaa891a9864,,,,,,,,,,,,,,,,,,,,,,,,,,,,,,,,,,,,,,,,,,,,,,,,,,,,,,,,,,,,,,,,,,,,,,,,,,,,,,,,,,,,,,,,,,,,,,,,,,,,,
,,,,,,1,0,1,0,1,X V Q F H G B L J M P D K C T S W R N Z,6114c64e70ce0ea9140a2296,19,Mężczyzna,2022-06-25_15h53.19.955,task,2021.1.4,Win32,119.3602292,6299f149e92ead563fba08ef,62b70e429057beaa891a9864,,,,,,,,,,,,,,,,,,,,,,,,,,,,,,,,,,,,,,,,,,,,,,,,,,,,,,,,,,,,,,,,,,,,,,,,,,,,,,,,,,,,,,,,,,,,,,,,,,,,,
,,,,,,,,,,,,6114c64e70ce0ea9140a2296,19,Mężczyzna,2022-06-25_15h53.19.955,task,2021.1.4,Win32,119.3602292,6299f149e92ead563fba08ef,62b70e429057beaa891a9864,zl,"[""z"",""l""]","[1.8949000000059186,2.2746999999881155,4.4162999999821295]",1,ZL,0,0,0,0,1,,,,,,,,,,,,,,,,,,,,,,,,,,,,,,,,,,,,,,,,,,,,,,,,,,,,,,,,,,,,,,,,,,,,,,,,,,,,,,,,,,,,,,,,,,,
,,,,,,0,0,0,0,1,X V Q F H G B L J M P D K C T S W R N Z,6114c64e70ce0ea9140a2296,19,Mężczyzna,2022-06-25_15h53.19.955,task,2021.1.4,Win32,119.3602292,6299f149e92ead563fba08ef,62b70e429057beaa891a9864,,,,,,,,,,,,,,,,,,,,,,,,,,,,,,,,,,,,,,,,,,,,,,,,,,,,,,,,,,,,,,,,,,,,,,,,,,,,,,,,,,,,,,,,,,,,,,,,,,,,,
,,,,,,1,0,1,0,1,X V Q F H G B L J M P D K C T S W R N Z,6114c64e70ce0ea9140a2296,19,Mężczyzna,2022-06-25_15h53.19.955,task,2021.1.4,Win32,119.3602292,6299f149e92ead563fba08ef,62b70e429057beaa891a9864,,,,,,,,,,,,,,,,,,,,,,,,,,,,,,,,,,,,,,,,,,,,,,,,,,,,,,,,,,,,,,,,,,,,,,,,,,,,,,,,,,,,,,,,,,,,,,,,,,,,,
,,,,,,,,,,,,6114c64e70ce0ea9140a2296,19,Mężczyzna,2022-06-25_15h53.19.955,task,2021.1.4,Win32,119.3602292,6299f149e92ead563fba08ef,62b70e429057beaa891a9864,xq,"[""x"",""q""]","[1.3115999999940868,1.5770999999940614,2.166500000000042]",1,XQ,1,0,1,0,1,,,,,,,,,,,,,,,,,,,,,,,,,,,,,,,,,,,,,,,,,,,,,,,,,,,,,,,,,,,,,,,,,,,,,,,,,,,,,,,,,,,,,,,,,,,
,,,,,,0,0,0,0,1,X V Q F H G B L J M P D K C T S W R N Z,6114c64e70ce0ea9140a2296,19,Mężczyzna,2022-06-25_15h53.19.955,task,2021.1.4,Win32,119.3602292,6299f149e92ead563fba08ef,62b70e429057beaa891a9864,,,,,,,,,,,,,,,,,,,,,,,,,,,,,,,,,,,,,,,,,,,,,,,,,,,,,,,,,,,,,,,,,,,,,,,,,,,,,,,,,,,,,,,,,,,,,,,,,,,,,
,,,,,,1,0,1,0,1,X V Q F H G B L J M P D K C T S W R N Z,6114c64e70ce0ea9140a2296,19,Mężczyzna,2022-06-25_15h53.19.955,task,2021.1.4,Win32,119.3602292,6299f149e92ead563fba08ef,62b70e429057beaa891a9864,,,,,,,,,,,,,,,,,,,,,,,,,,,,,,,,,,,,,,,,,,,,,,,,,,,,,,,,,,,,,,,,,,,,,,,,,,,,,,,,,,,,,,,,,,,,,,,,,,,,,
,,,,,,2,0,2,0,1,X V Q F H G B L J M P D K C T S W R N Z,6114c64e70ce0ea9140a2296,19,Mężczyzna,2022-06-25_15h53.19.955,task,2021.1.4,Win32,119.3602292,6299f149e92ead563fba08ef,62b70e429057beaa891a9864,,,,,,,,,,,,,,,,,,,,,,,,,,,,,,,,,,,,,,,,,,,,,,,,,,,,,,,,,,,,,,,,,,,,,,,,,,,,,,,,,,,,,,,,,,,,,,,,,,,,,
,,,,,,,,,,,,6114c64e70ce0ea9140a2296,19,Mężczyzna,2022-06-25_15h53.19.955,task,2021.1.4,Win32,119.3602292,6299f149e92ead563fba08ef,62b70e429057beaa891a9864,rhg,"[""r"",""h"",""g""]","[0.7875999999939722,1.4335000000000946,1.466900000006035,2.2409999999999854]",1,RHG,2,0,2,0,1,,,,,,,,,,,,,,,,,,,,,,,,,,,,,,,,,,,,,,,,,,,,,,,,,,,,,,,,,,,,,,,,,,,,,,,,,,,,,,,,,,,,,,,,,,,
,,,,,,0,0,0,0,1,X V Q F H G B L J M P D K C T S W R N Z,6114c64e70ce0ea9140a2296,19,Mężczyzna,2022-06-25_15h53.19.955,task,2021.1.4,Win32,119.3602292,6299f149e92ead563fba08ef,62b70e429057beaa891a9864,,,,,,,,,,,,,,,,,,,,,,,,,,,,,,,,,,,,,,,,,,,,,,,,,,,,,,,,,,,,,,,,,,,,,,,,,,,,,,,,,,,,,,,,,,,,,,,,,,,,,
,,,,,,1,0,1,0,1,X V Q F H G B L J M P D K C T S W R N Z,6114c64e70ce0ea9140a2296,19,Mężczyzna,2022-06-25_15h53.19.955,task,2021.1.4,Win32,119.3602292,6299f149e92ead563fba08ef,62b70e429057beaa891a9864,,,,,,,,,,,,,,,,,,,,,,,,,,,,,,,,,,,,,,,,,,,,,,,,,,,,,,,,,,,,,,,,,,,,,,,,,,,,,,,,,,,,,,,,,,,,,,,,,,,,,
,,,,,,2,0,2,0,1,X V Q F H G B L J M P D K C T S W R N Z,6114c64e70ce0ea9140a2296,19,Mężczyzna,2022-06-25_15h53.19.955,task,2021.1.4,Win32,119.3602292,6299f149e92ead563fba08ef,62b70e429057beaa891a9864,,,,,,,,,,,,,,,,,,,,,,,,,,,,,,,,,,,,,,,,,,,,,,,,,,,,,,,,,,,,,,,,,,,,,,,,,,,,,,,,,,,,,,,,,,,,,,,,,,,,,
,,,,,,,,,,,,6114c64e70ce0ea9140a2296,19,Mężczyzna,2022-06-25_15h53.19.955,task,2021.1.4,Win32,119.3602292,6299f149e92ead563fba08ef,62b70e429057beaa891a9864,wlf,"[""w"",""l"",""f""]","[0.5417999999822314,0.9164000000059787,1.3772999999821423,31.71050000000014]",1,WLF,3,0,3,0,1,,,,,,,,,,,,,,,,,,,,,,,,,,,,,,,,,,,,,,,,,,,,,,,,,,,,,,,,,,,,,,,,,,,,,,,,,,,,,,,,,,,,,,,,,,,
,,,,,,0,0,0,0,1,X V Q F H G B L J M P D K C T S W R N Z,6114c64e70ce0ea9140a2296,19,Mężczyzna,2022-06-25_15h53.19.955,task,2021.1.4,Win32,119.3602292,6299f149e92ead563fba08ef,62b70e429057beaa891a9864,,,,,,,,,,,,,,,,,,,,,,,,,,,,,,,,,,,,,,,,,,,,,,,,,,,,,,,,,,,,,,,,,,,,,,,,,,,,,,,,,,,,,,,,,,,,,,,,,,,,,
,,,,,,1,0,1,0,1,X V Q F H G B L J M P D K C T S W R N Z,6114c64e70ce0ea9140a2296,19,Mężczyzna,2022-06-25_15h53.19.955,task,2021.1.4,Win32,119.3602292,6299f149e92ead563fba08ef,62b70e429057beaa891a9864,,,,,,,,,,,,,,,,,,,,,,,,,,,,,,,,,,,,,,,,,,,,,,,,,,,,,,,,,,,,,,,,,,,,,,,,,,,,,,,,,,,,,,,,,,,,,,,,,,,,,
,,,,,,2,0,2,0,1,X V Q F H G B L J M P D K C T S W R N Z,6114c64e70ce0ea9140a2296,19,Mężczyzna,2022-06-25_15h53.19.955,task,2021.1.4,Win32,119.3602292,6299f149e92ead563fba08ef,62b70e429057beaa891a9864,,,,,,,,,,,,,,,,,,,,,,,,,,,,,,,,,,,,,,,,,,,,,,,,,,,,,,,,,,,,,,,,,,,,,,,,,,,,,,,,,,,,,,,,,,,,,,,,,,,,,
,,,,,,3,0,3,0,1,X V Q F H G B L J M P D K C T S W R N Z,6114c64e70ce0ea9140a2296,19,Mężczyzna,2022-06-25_15h53.19.955,task,2021.1.4,Win32,119.3602292,6299f149e92ead563fba08ef,62b70e429057beaa891a9864,,,,,,,,,,,,,,,,,,,,,,,,,,,,,,,,,,,,,,,,,,,,,,,,,,,,,,,,,,,,,,,,,,,,,,,,,,,,,,,,,,,,,,,,,,,,,,,,,,,,,
,,,,,,,,,,,,6114c64e70ce0ea9140a2296,19,Mężczyzna,2022-06-25_15h53.19.955,task,2021.1.4,Win32,119.3602292,6299f149e92ead563fba08ef,62b70e429057beaa891a9864,sqgp,"[""s"",""q"",""g"",""p""]","[1.247800000011921,2.4298000000119373,2.5162000000179887,3.0715000000000146,3.3665999999941505]",1,SQGP,4,0,4,0,1,,,,,,,,,,,,,,,,,,,,,,,,,,,,,,,,,,,,,,,,,,,,,,,,,,,,,,,,,,,,,,,,,,,,,,,,,,,,,,,,,,,,,,,,,,,
,,,,,,0,0,0,0,1,X V Q F H G B L J M P D K C T S W R N Z,6114c64e70ce0ea9140a2296,19,Mężczyzna,2022-06-25_15h53.19.955,task,2021.1.4,Win32,119.3602292,6299f149e92ead563fba08ef,62b70e429057beaa891a9864,,,,,,,,,,,,,,,,,,,,,,,,,,,,,,,,,,,,,,,,,,,,,,,,,,,,,,,,,,,,,,,,,,,,,,,,,,,,,,,,,,,,,,,,,,,,,,,,,,,,,
,,,,,,1,0,1,0,1,X V Q F H G B L J M P D K C T S W R N Z,6114c64e70ce0ea9140a2296,19,Mężczyzna,2022-06-25_15h53.19.955,task,2021.1.4,Win32,119.3602292,6299f149e92ead563fba08ef,62b70e429057beaa891a9864,,,,,,,,,,,,,,,,,,,,,,,,,,,,,,,,,,,,,,,,,,,,,,,,,,,,,,,,,,,,,,,,,,,,,,,,,,,,,,,,,,,,,,,,,,,,,,,,,,,,,
,,,,,,2,0,2,0,1,X V Q F H G B L J M P D K C T S W R N Z,6114c64e70ce0ea9140a2296,19,Mężczyzna,2022-06-25_15h53.19.955,task,2021.1.4,Win32,119.3602292,6299f149e92ead563fba08ef,62b70e429057beaa891a9864,,,,,,,,,,,,,,,,,,,,,,,,,,,,,,,,,,,,,,,,,,,,,,,,,,,,,,,,,,,,,,,,,,,,,,,,,,,,,,,,,,,,,,,,,,,,,,,,,,,,,
,,,,,,3,0,3,0,1,X V Q F H G B L J M P D K C T S W R N Z,6114c64e70ce0ea9140a2296,19,Mężczyzna,2022-06-25_15h53.19.955,task,2021.1.4,Win32,119.3602292,6299f149e92ead563fba08ef,62b70e429057beaa891a9864,,,,,,,,,,,,,,,,,,,,,,,,,,,,,,,,,,,,,,,,,,,,,,,,,,,,,,,,,,,,,,,,,,,,,,,,,,,,,,,,,,,,,,,,,,,,,,,,,,,,,
,,,,,,,,,,,,6114c64e70ce0ea9140a2296,19,Mężczyzna,2022-06-25_15h53.19.955,task,2021.1.4,Win32,119.3602292,6299f149e92ead563fba08ef,62b70e429057beaa891a9864,dbfj,"[""d"",""b"",""f"",""j""]","[1.074800000011919,1.5859000000059496,1.8441999999881773,2.344099999994114,2.435999999999922]",1,DBFJ,5,0,5,0,1,,,,,,,,,,,,,,,,,,,,,,,,,,,,,,,,,,,,,,,,,,,,,,,,,,,,,,,,,,,,,,,,,,,,,,,,,,,,,,,,,,,,,,,,,,,
,,,,,,0,0,0,0,1,X V Q F H G B L J M P D K C T S W R N Z,6114c64e70ce0ea9140a2296,19,Mężczyzna,2022-06-25_15h53.19.955,task,2021.1.4,Win32,119.3602292,6299f149e92ead563fba08ef,62b70e429057beaa891a9864,,,,,,,,,,,,,,,,,,,,,,,,,,,,,,,,,,,,,,,,,,,,,,,,,,,,,,,,,,,,,,,,,,,,,,,,,,,,,,,,,,,,,,,,,,,,,,,,,,,,,
,,,,,,1,0,1,0,1,X V Q F H G B L J M P D K C T S W R N Z,6114c64e70ce0ea9140a2296,19,Mężczyzna,2022-06-25_15h53.19.955,task,2021.1.4,Win32,119.3602292,6299f149e92ead563fba08ef,62b70e429057beaa891a9864,,,,,,,,,,,,,,,,,,,,,,,,,,,,,,,,,,,,,,,,,,,,,,,,,,,,,,,,,,,,,,,,,,,,,,,,,,,,,,,,,,,,,,,,,,,,,,,,,,,,,
,,,,,,2,0,2,0,1,X V Q F H G B L J M P D K C T S W R N Z,6114c64e70ce0ea9140a2296,19,Mężczyzna,2022-06-25_15h53.19.955,task,2021.1.4,Win32,119.3602292,6299f149e92ead563fba08ef,62b70e429057beaa891a9864,,,,,,,,,,,,,,,,,,,,,,,,,,,,,,,,,,,,,,,,,,,,,,,,,,,,,,,,,,,,,,,,,,,,,,,,,,,,,,,,,,,,,,,,,,,,,,,,,,,,,
,,,,,,3,0,3,0,1,X V Q F H G B L J M P D K C T S W R N Z,6114c64e70ce0ea9140a2296,19,Mężczyzna,2022-06-25_15h53.19.955,task,2021.1.4,Win32,119.3602292,6299f149e92ead563fba08ef,62b70e429057beaa891a9864,,,,,,,,,,,,,,,,,,,,,,,,,,,,,,,,,,,,,,,,,,,,,,,,,,,,,,,,,,,,,,,,,,,,,,,,,,,,,,,,,,,,,,,,,,,,,,,,,,,,,
,,,,,,4,0,4,0,1,X V Q F H G B L J M P D K C T S W R N Z,6114c64e70ce0ea9140a2296,19,Mężczyzna,2022-06-25_15h53.19.955,task,2021.1.4,Win32,119.3602292,6299f149e92ead563fba08ef,62b70e429057beaa891a9864,,,,,,,,,,,,,,,,,,,,,,,,,,,,,,,,,,,,,,,,,,,,,,,,,,,,,,,,,,,,,,,,,,,,,,,,,,,,,,,,,,,,,,,,,,,,,,,,,,,,,
,,,,,,,,,,,,6114c64e70ce0ea9140a2296,19,Mężczyzna,2022-06-25_15h53.19.955,task,2021.1.4,Win32,119.3602292,6299f149e92ead563fba08ef,62b70e429057beaa891a9864,hqhtr,"[""h"",""q"",""h"",""t"",""r""]","[0.39270000001783956,0.4760999999939486,0.6328000000119118,1.2332000000178596,1.449800000011919,2.020999999999958]",1,HQHTR,6,0,6,0,1,,,,,,,,,,,,,,,,,,,,,,,,,,,,,,,,,,,,,,,,,,,,,,,,,,,,,,,,,,,,,,,,,,,,,,,,,,,,,,,,,,,,,,,,,,,
,,,,,,0,0,0,0,1,X V Q F H G B L J M P D K C T S W R N Z,6114c64e70ce0ea9140a2296,19,Mężczyzna,2022-06-25_15h53.19.955,task,2021.1.4,Win32,119.3602292,6299f149e92ead563fba08ef,62b70e429057beaa891a9864,,,,,,,,,,,,,,,,,,,,,,,,,,,,,,,,,,,,,,,,,,,,,,,,,,,,,,,,,,,,,,,,,,,,,,,,,,,,,,,,,,,,,,,,,,,,,,,,,,,,,
,,,,,,1,0,1,0,1,X V Q F H G B L J M P D K C T S W R N Z,6114c64e70ce0ea9140a2296,19,Mężczyzna,2022-06-25_15h53.19.955,task,2021.1.4,Win32,119.3602292,6299f149e92ead563fba08ef,62b70e429057beaa891a9864,,,,,,,,,,,,,,,,,,,,,,,,,,,,,,,,,,,,,,,,,,,,,,,,,,,,,,,,,,,,,,,,,,,,,,,,,,,,,,,,,,,,,,,,,,,,,,,,,,,,,
,,,,,,2,0,2,0,1,X V Q F H G B L J M P D K C T S W R N Z,6114c64e70ce0ea9140a2296,19,Mężczyzna,2022-06-25_15h53.19.955,task,2021.1.4,Win32,119.3602292,6299f149e92ead563fba08ef,62b70e429057beaa891a9864,,,,,,,,,,,,,,,,,,,,,,,,,,,,,,,,,,,,,,,,,,,,,,,,,,,,,,,,,,,,,,,,,,,,,,,,,,,,,,,,,,,,,,,,,,,,,,,,,,,,,
,,,,,,3,0,3,0,1,X V Q F H G B L J M P D K C T S W R N Z,6114c64e70ce0ea9140a2296,19,Mężczyzna,2022-06-25_15h53.19.955,task,2021.1.4,Win32,119.3602292,6299f149e92ead563fba08ef,62b70e429057beaa891a9864,,,,,,,,,,,,,,,,,,,,,,,,,,,,,,,,,,,,,,,,,,,,,,,,,,,,,,,,,,,,,,,,,,,,,,,,,,,,,,,,,,,,,,,,,,,,,,,,,,,,,
,,,,,,4,0,4,0,1,X V Q F H G B L J M P D K C T S W R N Z,6114c64e70ce0ea9140a2296,19,Mężczyzna,2022-06-25_15h53.19.955,task,2021.1.4,Win32,119.3602292,6299f149e92ead563fba08ef,62b70e429057beaa891a9864,,,,,,,,,,,,,,,,,,,,,,,,,,,,,,,,,,,,,,,,,,,,,,,,,,,,,,,,,,,,,,,,,,,,,,,,,,,,,,,,,,,,,,,,,,,,,,,,,,,,,
,,,,,,,,,,,,6114c64e70ce0ea9140a2296,19,Mężczyzna,2022-06-25_15h53.19.955,task,2021.1.4,Win32,119.3602292,6299f149e92ead563fba08ef,62b70e429057beaa891a9864,jpjjd,"[""j"",""p"",""j"",""j"",""d""]","[0.6776999999881355,0.7974000000058368,1.0120999999940068,1.157400000005964,1.507900000005975,1.8077999999820804]",1,JPJJD,7,0,7,0,1,,,,,,,,,,,,,,,,,,,,,,,,,,,,,,,,,,,,,,,,,,,,,,,,,,,,,,,,,,,,,,,,,,,,,,,,,,,,,,,,,,,,,,,,,,,
,,,,,,0,0,0,0,1,X V Q F H G B L J M P D K C T S W R N Z,6114c64e70ce0ea9140a2296,19,Mężczyzna,2022-06-25_15h53.19.955,task,2021.1.4,Win32,119.3602292,6299f149e92ead563fba08ef,62b70e429057beaa891a9864,,,,,,,,,,,,,,,,,,,,,,,,,,,,,,,,,,,,,,,,,,,,,,,,,,,,,,,,,,,,,,,,,,,,,,,,,,,,,,,,,,,,,,,,,,,,,,,,,,,,,
,,,,,,1,0,1,0,1,X V Q F H G B L J M P D K C T S W R N Z,6114c64e70ce0ea9140a2296,19,Mężczyzna,2022-06-25_15h53.19.955,task,2021.1.4,Win32,119.3602292,6299f149e92ead563fba08ef,62b70e429057beaa891a9864,,,,,,,,,,,,,,,,,,,,,,,,,,,,,,,,,,,,,,,,,,,,,,,,,,,,,,,,,,,,,,,,,,,,,,,,,,,,,,,,,,,,,,,,,,,,,,,,,,,,,
,,,,,,2,0,2,0,1,X V Q F H G B L J M P D K C T S W R N Z,6114c64e70ce0ea9140a2296,19,Mężczyzna,2022-06-25_15h53.19.955,task,2021.1.4,Win32,119.3602292,6299f149e92ead563fba08ef,62b70e429057beaa891a9864,,,,,,,,,,,,,,,,,,,,,,,,,,,,,,,,,,,,,,,,,,,,,,,,,,,,,,,,,,,,,,,,,,,,,,,,,,,,,,,,,,,,,,,,,,,,,,,,,,,,,
,,,,,,3,0,3,0,1,X V Q F H G B L J M P D K C T S W R N Z,6114c64e70ce0ea9140a2296,19,Mężczyzna,2022-06-25_15h53.19.955,task,2021.1.4,Win32,119.3602292,6299f149e92ead563fba08ef,62b70e429057beaa891a9864,,,,,,,,,,,,,,,,,,,,,,,,,,,,,,,,,,,,,,,,,,,,,,,,,,,,,,,,,,,,,,,,,,,,,,,,,,,,,,,,,,,,,,,,,,,,,,,,,,,,,
,,,,,,4,0,4,0,1,X V Q F H G B L J M P D K C T S W R N Z,6114c64e70ce0ea9140a2296,19,Mężczyzna,2022-06-25_15h53.19.955,task,2021.1.4,Win32,119.3602292,6299f149e92ead563fba08ef,62b70e429057beaa891a9864,,,,,,,,,,,,,,,,,,,,,,,,,,,,,,,,,,,,,,,,,,,,,,,,,,,,,,,,,,,,,,,,,,,,,,,,,,,,,,,,,,,,,,,,,,,,,,,,,,,,,
,,,,,,5,0,5,0,1,X V Q F H G B L J M P D K C T S W R N Z,6114c64e70ce0ea9140a2296,19,Mężczyzna,2022-06-25_15h53.19.955,task,2021.1.4,Win32,119.3602292,6299f149e92ead563fba08ef,62b70e429057beaa891a9864,,,,,,,,,,,,,,,,,,,,,,,,,,,,,,,,,,,,,,,,,,,,,,,,,,,,,,,,,,,,,,,,,,,,,,,,,,,,,,,,,,,,,,,,,,,,,,,,,,,,,
,,,,,,,,,,,,6114c64e70ce0ea9140a2296,19,Mężczyzna,2022-06-25_15h53.19.955,task,2021.1.4,Win32,119.3602292,6299f149e92ead563fba08ef,62b70e429057beaa891a9864,xqfqjt,"[""x"",""q"",""f"",""q"",""j"",""t""]","[0.8881999999880463,1.2454999999999927,4.767199999987952,5.075099999993881,5.300099999994018,5.658500000000004,6.211099999994076]",1,XQFQJT,8,0,8,0,1,,,,,,,,,,,,,,,,,,,,,,,,,,,,,,,,,,,,,,,,,,,,,,,,,,,,,,,,,,,,,,,,,,,,,,,,,,,,,,,,,,,,,,,,,,,
,,,,,,0,0,0,0,1,X V Q F H G B L J M P D K C T S W R N Z,6114c64e70ce0ea9140a2296,19,Mężczyzna,2022-06-25_15h53.19.955,task,2021.1.4,Win32,119.3602292,6299f149e92ead563fba08ef,62b70e429057beaa891a9864,,,,,,,,,,,,,,,,,,,,,,,,,,,,,,,,,,,,,,,,,,,,,,,,,,,,,,,,,,,,,,,,,,,,,,,,,,,,,,,,,,,,,,,,,,,,,,,,,,,,,
,,,,,,1,0,1,0,1,X V Q F H G B L J M P D K C T S W R N Z,6114c64e70ce0ea9140a2296,19,Mężczyzna,2022-06-25_15h53.19.955,task,2021.1.4,Win32,119.3602292,6299f149e92ead563fba08ef,62b70e429057beaa891a9864,,,,,,,,,,,,,,,,,,,,,,,,,,,,,,,,,,,,,,,,,,,,,,,,,,,,,,,,,,,,,,,,,,,,,,,,,,,,,,,,,,,,,,,,,,,,,,,,,,,,,
,,,,,,2,0,2,0,1,X V Q F H G B L J M P D K C T S W R N Z,6114c64e70ce0ea9140a2296,19,Mężczyzna,2022-06-25_15h53.19.955,task,2021.1.4,Win32,119.3602292,6299f149e92ead563fba08ef,62b70e429057beaa891a9864,,,,,,,,,,,,,,,,,,,,,,,,,,,,,,,,,,,,,,,,,,,,,,,,,,,,,,,,,,,,,,,,,,,,,,,,,,,,,,,,,,,,,,,,,,,,,,,,,,,,,
,,,,,,3,0,3,0,1,X V Q F H G B L J M P D K C T S W R N Z,6114c64e70ce0ea9140a2296,19,Mężczyzna,2022-06-25_15h53.19.955,task,2021.1.4,Win32,119.3602292,6299f149e92ead563fba08ef,62b70e429057beaa891a9864,,,,,,,,,,,,,,,,,,,,,,,,,,,,,,,,,,,,,,,,,,,,,,,,,,,,,,,,,,,,,,,,,,,,,,,,,,,,,,,,,,,,,,,,,,,,,,,,,,,,,
,,,,,,4,0,4,0,1,X V Q F H G B L J M P D K C T S W R N Z,6114c64e70ce0ea9140a2296,19,Mężczyzna,2022-06-25_15h53.19.955,task,2021.1.4,Win32,119.3602292,6299f149e92ead563fba08ef,62b70e429057beaa891a9864,,,,,,,,,,,,,,,,,,,,,,,,,,,,,,,,,,,,,,,,,,,,,,,,,,,,,,,,,,,,,,,,,,,,,,,,,,,,,,,,,,,,,,,,,,,,,,,,,,,,,
,,,,,,5,0,5,0,1,X V Q F H G B L J M P D K C T S W R N Z,6114c64e70ce0ea9140a2296,19,Mężczyzna,2022-06-25_15h53.19.955,task,2021.1.4,Win32,119.3602292,6299f149e92ead563fba08ef,62b70e429057beaa891a9864,,,,,,,,,,,,,,,,,,,,,,,,,,,,,,,,,,,,,,,,,,,,,,,,,,,,,,,,,,,,,,,,,,,,,,,,,,,,,,,,,,,,,,,,,,,,,,,,,,,,,
,,,,,,,,,,,,6114c64e70ce0ea9140a2296,19,Mężczyzna,2022-06-25_15h53.19.955,task,2021.1.4,Win32,119.3602292,6299f149e92ead563fba08ef,62b70e429057beaa891a9864,qncwjj,"[""q"",""n"",""c"",""w"",""j"",""j""]","[0.95699999999988,1.264399999976149,1.939099999993914,2.408099999993965,2.933199999988119,3.0642999999820404,3.700599999993983]",1,QNCWJJ,9,0,9,0,1,,,,,,,,,,,,,,,,,,,,,,,,,,,,,,,,,,,,,,,,,,,,,,,,,,,,,,,,,,,,,,,,,,,,,,,,,,,,,,,,,,,,,,,,,,,
,,,,,,0,0,0,0,1,X V Q F H G B L J M P D K C T S W R N Z,6114c64e70ce0ea9140a2296,19,Mężczyzna,2022-06-25_15h53.19.955,task,2021.1.4,Win32,119.3602292,6299f149e92ead563fba08ef,62b70e429057beaa891a9864,,,,,,,,,,,,,,,,,,,,,,,,,,,,,,,,,,,,,,,,,,,,,,,,,,,,,,,,,,,,,,,,,,,,,,,,,,,,,,,,,,,,,,,,,,,,,,,,,,,,,
,,,,,,1,0,1,0,1,X V Q F H G B L J M P D K C T S W R N Z,6114c64e70ce0ea9140a2296,19,Mężczyzna,2022-06-25_15h53.19.955,task,2021.1.4,Win32,119.3602292,6299f149e92ead563fba08ef,62b70e429057beaa891a9864,,,,,,,,,,,,,,,,,,,,,,,,,,,,,,,,,,,,,,,,,,,,,,,,,,,,,,,,,,,,,,,,,,,,,,,,,,,,,,,,,,,,,,,,,,,,,,,,,,,,,
,,,,,,2,0,2,0,1,X V Q F H G B L J M P D K C T S W R N Z,6114c64e70ce0ea9140a2296,19,Mężczyzna,2022-06-25_15h53.19.955,task,2021.1.4,Win32,119.3602292,6299f149e92ead563fba08ef,62b70e429057beaa891a9864,,,,,,,,,,,,,,,,,,,,,,,,,,,,,,,,,,,,,,,,,,,,,,,,,,,,,,,,,,,,,,,,,,,,,,,,,,,,,,,,,,,,,,,,,,,,,,,,,,,,,
,,,,,,3,0,3,0,1,X V Q F H G B L J M P D K C T S W R N Z,6114c64e70ce0ea9140a2296,19,Mężczyzna,2022-06-25_15h53.19.955,task,2021.1.4,Win32,119.3602292,6299f149e92ead563fba08ef,62b70e429057beaa891a9864,,,,,,,,,,,,,,,,,,,,,,,,,,,,,,,,,,,,,,,,,,,,,,,,,,,,,,,,,,,,,,,,,,,,,,,,,,,,,,,,,,,,,,,,,,,,,,,,,,,,,
,,,,,,4,0,4,0,1,X V Q F H G B L J M P D K C T S W R N Z,6114c64e70ce0ea9140a2296,19,Mężczyzna,2022-06-25_15h53.19.955,task,2021.1.4,Win32,119.3602292,6299f149e92ead563fba08ef,62b70e429057beaa891a9864,,,,,,,,,,,,,,,,,,,,,,,,,,,,,,,,,,,,,,,,,,,,,,,,,,,,,,,,,,,,,,,,,,,,,,,,,,,,,,,,,,,,,,,,,,,,,,,,,,,,,
,,,,,,5,0,5,0,1,X V Q F H G B L J M P D K C T S W R N Z,6114c64e70ce0ea9140a2296,19,Mężczyzna,2022-06-25_15h53.19.955,task,2021.1.4,Win32,119.3602292,6299f149e92ead563fba08ef,62b70e429057beaa891a9864,,,,,,,,,,,,,,,,,,,,,,,,,,,,,,,,,,,,,,,,,,,,,,,,,,,,,,,,,,,,,,,,,,,,,,,,,,,,,,,,,,,,,,,,,,,,,,,,,,,,,
,,,,,,6,0,6,0,1,X V Q F H G B L J M P D K C T S W R N Z,6114c64e70ce0ea9140a2296,19,Mężczyzna,2022-06-25_15h53.19.955,task,2021.1.4,Win32,119.3602292,6299f149e92ead563fba08ef,62b70e429057beaa891a9864,,,,,,,,,,,,,,,,,,,,,,,,,,,,,,,,,,,,,,,,,,,,,,,,,,,,,,,,,,,,,,,,,,,,,,,,,,,,,,,,,,,,,,,,,,,,,,,,,,,,,
,,,,,,,,,,,,6114c64e70ce0ea9140a2296,19,Mężczyzna,2022-06-25_15h53.19.955,task,2021.1.4,Win32,119.3602292,6299f149e92ead563fba08ef,62b70e429057beaa891a9864,zdmgcl,"[""z"",""d"",""m"",""g"",""c"",""l""]","[1.2426000000239128,3.451800000012099,4.007800000011912,4.44030000001203,5.307300000011992,5.574500000000171,6.040400000006002]",0,ZGMCDGL,10,0,10,0,1,,,,,,,,,,,,,,,,,,,,,,,,,,,,,,,,,,,,,,,,,,,,,,,,,,,,,,,,,,,,,,,,,,,,,,,,,,,,,,,,,,,,,,,,,,,
,,,,,,0,0,0,0,1,X V Q F H G B L J M P D K C T S W R N Z,6114c64e70ce0ea9140a2296,19,Mężczyzna,2022-06-25_15h53.19.955,task,2021.1.4,Win32,119.3602292,6299f149e92ead563fba08ef,62b70e429057beaa891a9864,,,,,,,,,,,,,,,,,,,,,,,,,,,,,,,,,,,,,,,,,,,,,,,,,,,,,,,,,,,,,,,,,,,,,,,,,,,,,,,,,,,,,,,,,,,,,,,,,,,,,
,,,,,,1,0,1,0,1,X V Q F H G B L J M P D K C T S W R N Z,6114c64e70ce0ea9140a2296,19,Mężczyzna,2022-06-25_15h53.19.955,task,2021.1.4,Win32,119.3602292,6299f149e92ead563fba08ef,62b70e429057beaa891a9864,,,,,,,,,,,,,,,,,,,,,,,,,,,,,,,,,,,,,,,,,,,,,,,,,,,,,,,,,,,,,,,,,,,,,,,,,,,,,,,,,,,,,,,,,,,,,,,,,,,,,
,,,,,,2,0,2,0,1,X V Q F H G B L J M P D K C T S W R N Z,6114c64e70ce0ea9140a2296,19,Mężczyzna,2022-06-25_15h53.19.955,task,2021.1.4,Win32,119.3602292,6299f149e92ead563fba08ef,62b70e429057beaa891a9864,,,,,,,,,,,,,,,,,,,,,,,,,,,,,,,,,,,,,,,,,,,,,,,,,,,,,,,,,,,,,,,,,,,,,,,,,,,,,,,,,,,,,,,,,,,,,,,,,,,,,
,,,,,,3,0,3,0,1,X V Q F H G B L J M P D K C T S W R N Z,6114c64e70ce0ea9140a2296,19,Mężczyzna,2022-06-25_15h53.19.955,task,2021.1.4,Win32,119.3602292,6299f149e92ead563fba08ef,62b70e429057beaa891a9864,,,,,,,,,,,,,,,,,,,,,,,,,,,,,,,,,,,,,,,,,,,,,,,,,,,,,,,,,,,,,,,,,,,,,,,,,,,,,,,,,,,,,,,,,,,,,,,,,,,,,
,,,,,,4,0,4,0,1,X V Q F H G B L J M P D K C T S W R N Z,6114c64e70ce0ea9140a2296,19,Mężczyzna,2022-06-25_15h53.19.955,task,2021.1.4,Win32,119.3602292,6299f149e92ead563fba08ef,62b70e429057beaa891a9864,,,,,,,,,,,,,,,,,,,,,,,,,,,,,,,,,,,,,,,,,,,,,,,,,,,,,,,,,,,,,,,,,,,,,,,,,,,,,,,,,,,,,,,,,,,,,,,,,,,,,
,,,,,,5,0,5,0,1,X V Q F H G B L J M P D K C T S W R N Z,6114c64e70ce0ea9140a2296,19,Mężczyzna,2022-06-25_15h53.19.955,task,2021.1.4,Win32,119.3602292,6299f149e92ead563fba08ef,62b70e429057beaa891a9864,,,,,,,,,,,,,,,,,,,,,,,,,,,,,,,,,,,,,,,,,,,,,,,,,,,,,,,,,,,,,,,,,,,,,,,,,,,,,,,,,,,,,,,,,,,,,,,,,,,,,
,,,,,,6,0,6,0,1,X V Q F H G B L J M P D K C T S W R N Z,6114c64e70ce0ea9140a2296,19,Mężczyzna,2022-06-25_15h53.19.955,task,2021.1.4,Win32,119.3602292,6299f149e92ead563fba08ef,62b70e429057beaa891a9864,,,,,,,,,,,,,,,,,,,,,,,,,,,,,,,,,,,,,,,,,,,,,,,,,,,,,,,,,,,,,,,,,,,,,,,,,,,,,,,,,,,,,,,,,,,,,,,,,,,,,
,,,,,,,,,,,,6114c64e70ce0ea9140a2296,19,Mężczyzna,2022-06-25_15h53.19.955,task,2021.1.4,Win32,119.3602292,6299f149e92ead563fba08ef,62b70e429057beaa891a9864,zzxfhxk,"[""z"",""z"",""x"",""f"",""h"",""x"",""k""]","[2.327400000006037,2.4535000000000764,4.275700000017878,5.04380000001197,7.5772000000179105,7.658600000023853,7.958900000005997,8.701800000011872]",0,RRXFHNK,11,0,11,0,1,,,,,,,,,,,,,,,,,,,,,,,,,,,,,,,,,,,,,,,,,,,,,,,,,,,,,,,,,,,,,,,,,,,,,,,,,,,,,,,,,,,,,,,,,,,
,,,,,,0,0,0,0,1,X V Q F H G B L J M P D K C T S W R N Z,6114c64e70ce0ea9140a2296,19,Mężczyzna,2022-06-25_15h53.19.955,task,2021.1.4,Win32,119.3602292,6299f149e92ead563fba08ef,62b70e429057beaa891a9864,,,,,,,,,,,,,,,,,,,,,,,,,,,,,,,,,,,,,,,,,,,,,,,,,,,,,,,,,,,,,,,,,,,,,,,,,,,,,,,,,,,,,,,,,,,,,,,,,,,,,
,,,,,,1,0,1,0,1,X V Q F H G B L J M P D K C T S W R N Z,6114c64e70ce0ea9140a2296,19,Mężczyzna,2022-06-25_15h53.19.955,task,2021.1.4,Win32,119.3602292,6299f149e92ead563fba08ef,62b70e429057beaa891a9864,,,,,,,,,,,,,,,,,,,,,,,,,,,,,,,,,,,,,,,,,,,,,,,,,,,,,,,,,,,,,,,,,,,,,,,,,,,,,,,,,,,,,,,,,,,,,,,,,,,,,
,,,,,,2,0,2,0,1,X V Q F H G B L J M P D K C T S W R N Z,6114c64e70ce0ea9140a2296,19,Mężczyzna,2022-06-25_15h53.19.955,task,2021.1.4,Win32,119.3602292,6299f149e92ead563fba08ef,62b70e429057beaa891a9864,,,,,,,,,,,,,,,,,,,,,,,,,,,,,,,,,,,,,,,,,,,,,,,,,,,,,,,,,,,,,,,,,,,,,,,,,,,,,,,,,,,,,,,,,,,,,,,,,,,,,
,,,,,,3,0,3,0,1,X V Q F H G B L J M P D K C T S W R N Z,6114c64e70ce0ea9140a2296,19,Mężczyzna,2022-06-25_15h53.19.955,task,2021.1.4,Win32,119.3602292,6299f149e92ead563fba08ef,62b70e429057beaa891a9864,,,,,,,,,,,,,,,,,,,,,,,,,,,,,,,,,,,,,,,,,,,,,,,,,,,,,,,,,,,,,,,,,,,,,,,,,,,,,,,,,,,,,,,,,,,,,,,,,,,,,
,,,,,,4,0,4,0,1,X V Q F H G B L J M P D K C T S W R N Z,6114c64e70ce0ea9140a2296,19,Mężczyzna,2022-06-25_15h53.19.955,task,2021.1.4,Win32,119.3602292,6299f149e92ead563fba08ef,62b70e429057beaa891a9864,,,,,,,,,,,,,,,,,,,,,,,,,,,,,,,,,,,,,,,,,,,,,,,,,,,,,,,,,,,,,,,,,,,,,,,,,,,,,,,,,,,,,,,,,,,,,,,,,,,,,
,,,,,,5,0,5,0,1,X V Q F H G B L J M P D K C T S W R N Z,6114c64e70ce0ea9140a2296,19,Mężczyzna,2022-06-25_15h53.19.955,task,2021.1.4,Win32,119.3602292,6299f149e92ead563fba08ef,62b70e429057beaa891a9864,,,,,,,,,,,,,,,,,,,,,,,,,,,,,,,,,,,,,,,,,,,,,,,,,,,,,,,,,,,,,,,,,,,,,,,,,,,,,,,,,,,,,,,,,,,,,,,,,,,,,
,,,,,,6,0,6,0,1,X V Q F H G B L J M P D K C T S W R N Z,6114c64e70ce0ea9140a2296,19,Mężczyzna,2022-06-25_15h53.19.955,task,2021.1.4,Win32,119.3602292,6299f149e92ead563fba08ef,62b70e429057beaa891a9864,,,,,,,,,,,,,,,,,,,,,,,,,,,,,,,,,,,,,,,,,,,,,,,,,,,,,,,,,,,,,,,,,,,,,,,,,,,,,,,,,,,,,,,,,,,,,,,,,,,,,
,,,,,,,,,,,,6114c64e70ce0ea9140a2296,19,Mężczyzna,2022-06-25_15h53.19.955,task,2021.1.4,Win32,119.3602292,6299f149e92ead563fba08ef,62b70e429057beaa891a9864,hklhxkf,"[""h"",""k"",""l"",""h"",""x"",""k"",""f""]","[0.7742000000180269,1.0997000000179469,2.1928000000120846,2.5445999999942615,3.707300000012083,3.933099999994056,4.766400000006115,6.107800000012048]",0,TKLKXHS,12,0,12,0,1,,,,,,,,,,,,,,,,,,,,,,,,,,,,,,,,,,,,,,,,,,,,,,,,,,,,,,,,,,,,,,,,,,,,,,,,,,,,,,,,,,,,,,,,,,,
,,,,,,,,,,,,6114c64e70ce0ea9140a2296,19,Mężczyzna,2022-06-25_15h53.19.955,task,2021.1.4,Win32,119.3602292,6299f149e92ead563fba08ef,62b70e429057beaa891a9864,,,,,,,,,,,space,7.0016,2,"[""2""]",1,[3.6743000000119537],[3.6743000000119537],0,0,0,2,1,Practice,3,(4x4) - 14,2,,,,,,,,,,,,,,,,,,,,,,,,,,,,,,,,,,,,,,,,,,,,,,,,,,,,,,,,,,,,,,,,,,,,,,,,,,,
,,,,,,,,,,,,6114c64e70ce0ea9140a2296,19,Mężczyzna,2022-06-25_15h53.19.955,task,2021.1.4,Win32,119.3602292,6299f149e92ead563fba08ef,62b70e429057beaa891a9864,,,,,,,,,,,,,0,"[""0""]",1,[3.186799999982213],"[3.6743000000119537,3.186799999982213]",0,1,1,0,1,Practice,1,(3x3) -  9,0,,,,,,,,,,,,,,,,,,,,,,,,,,,,,,,,,,,,,,,,,,,,,,,,,,,,,,,,,,,,,,,,,,,,,,,,,,,
,,,,,,,,,,,,6114c64e70ce0ea9140a2296,19,Mężczyzna,2022-06-25_15h53.19.955,task,2021.1.4,Win32,119.3602292,6299f149e92ead563fba08ef,62b70e429057beaa891a9864,,,,,,,,,,,,,6,"[""6""]",1,[3.2877000000178214],"[3.6743000000119537,3.186799999982213,3.2877000000178214]",0,2,2,6,1,Practice,7,(25/5) + 1,6,,,,,,,,,,,,,,,,,,,,,,,,,,,,,,,,,,,,,,,,,,,,,,,,,,,,,,,,,,,,,,,,,,,,,,,,,,,
,,,,,,,,,,,,6114c64e70ce0ea9140a2296,19,Mężczyzna,2022-06-25_15h53.19.955,task,2021.1.4,Win32,119.3602292,6299f149e92ead563fba08ef,62b70e429057beaa891a9864,,,,,,,,,,,,,3,"[""3""]",1,[3.3331999999879827],"[3.6743000000119537,3.186799999982213,3.2877000000178214,3.3331999999879827]",0,3,3,3,1,Practice,4,(8/4) + 1,3,,,,,,,,,,,,,,,,,,,,,,,,,,,,,,,,,,,,,,,,,,,,,,,,,,,,,,,,,,,,,,,,,,,,,,,,,,,
,,,,,,,,,,,,6114c64e70ce0ea9140a2296,19,Mężczyzna,2022-06-25_15h53.19.955,task,2021.1.4,Win32,119.3602292,6299f149e92ead563fba08ef,62b70e429057beaa891a9864,,,,,,,,,,,,,9,"[""9""]",1,[1.877199999988079],"[3.6743000000119537,3.186799999982213,3.2877000000178214,3.3331999999879827,1.877199999988079]",0,4,4,9,1,Practice,10,(20/2) - 1,9,,,,,,,,,,,,,,,,,,,,,,,,,,,,,,,,,,,,,,,,,,,,,,,,,,,,,,,,,,,,,,,,,,,,,,,,,,,
,,,,,,,,,,,,6114c64e70ce0ea9140a2296,19,Mężczyzna,2022-06-25_15h53.19.955,task,2021.1.4,Win32,119.3602292,6299f149e92ead563fba08ef,62b70e429057beaa891a9864,,,,,,,,,,,,,4,"[""4""]",1,[2.0578000000120937],"[3.6743000000119537,3.186799999982213,3.2877000000178214,3.3331999999879827,1.877199999988079,2.0578000000120937]",0,5,5,4,1,Practice,5,(2x6) - 8,4,,,,,,,,,,,,,,,,,,,,,,,,,,,,,,,,,,,,,,,,,,,,,,,,,,,,,,,,,,,,,,,,,,,,,,,,,,,
,,,,,,,,,,,,6114c64e70ce0ea9140a2296,19,Mężczyzna,2022-06-25_15h53.19.955,task,2021.1.4,Win32,119.3602292,6299f149e92ead563fba08ef,62b70e429057beaa891a9864,,,,,,,,,,,,,7,"[""7""]",1,[2.2667999999821404],"[3.6743000000119537,3.186799999982213,3.2877000000178214,3.3331999999879827,1.877199999988079,2.0578000000120937,2.2667999999821404]",0,6,6,7,1,Practice,8,(5x5) - 18,7,,,,,,,,,,,,,,,,,,,,,,,,,,,,,,,,,,,,,,,,,,,,,,,,,,,,,,,,,,,,,,,,,,,,,,,,,,,
,,,,,,,,,,,,6114c64e70ce0ea9140a2296,19,Mężczyzna,2022-06-25_15h53.19.955,task,2021.1.4,Win32,119.3602292,6299f149e92ead563fba08ef,62b70e429057beaa891a9864,,,,,,,,,,,,,1,"[""1""]",1,[1.7697999999822969],"[3.6743000000119537,3.186799999982213,3.2877000000178214,3.3331999999879827,1.877199999988079,2.0578000000120937,2.2667999999821404,1.7697999999822969]",0,7,7,1,1,Practice,2,(4x4) - 15,1,,,,,,,,,,,,,,,,,,,,,,,,,,,,,,,,,,,,,,,,,,,,,,,,,,,,,,,,,,,,,,,,,,,,,,,,,,,
,,,,,,,,,,,,6114c64e70ce0ea9140a2296,19,Mężczyzna,2022-06-25_15h53.19.955,task,2021.1.4,Win32,119.3602292,6299f149e92ead563fba08ef,62b70e429057beaa891a9864,,,,,,,,,,,,,5,"[""5""]",1,[2.2164999999999964],"[3.6743000000119537,3.186799999982213,3.2877000000178214,3.3331999999879827,1.877199999988079,2.0578000000120937,2.2667999999821404,1.7697999999822969,2.2164999999999964]",0,8,8,5,1,Practice,6,(4/2) + 3,5,,,,,,,,,,,,,,,,,,,,,,,,,,,,,,,,,,,,,,,,,,,,,,,,,,,,,,,,,,,,,,,,,,,,,,,,,,,
,,,,,,,,,,,,6114c64e70ce0ea9140a2296,19,Mężczyzna,2022-06-25_15h53.19.955,task,2021.1.4,Win32,119.3602292,6299f149e92ead563fba08ef,62b70e429057beaa891a9864,,,,,,,,,,,,,8,"[""8""]",1,[3.0914999999999964],"[3.6743000000119537,3.186799999982213,3.2877000000178214,3.3331999999879827,1.877199999988079,2.0578000000120937,2.2667999999821404,1.7697999999822969,2.2164999999999964,3.0914999999999964]",0,9,9,8,1,Practice,9,(3x3) - 1,8,,,,,,,,,,,,,,,,,,,,,,,,,,,,,,,,,,,,,,,,,,,,,,,,,,,,,,,,,,,,,,,,,,,,,,,,,,,
,,,,,,,,,,,,6114c64e70ce0ea9140a2296,19,Mężczyzna,2022-06-25_15h53.19.955,task,2021.1.4,Win32,119.3602292,6299f149e92ead563fba08ef,62b70e429057beaa891a9864,,,,,,,,,,,,,,,,,,,,,,,,,,,1,26.7616,1.784106667,12.41387576,0.909720681,4.131186023,space,1.7344,0,0,0,0,1,,,,,,,,,,,,,,,,,,,,,,,,,,,,,,,,,,,,,,,,,,,,,,,,,,,,,,,,,,,,,,
,,,,,,,,,,,,6114c64e70ce0ea9140a2296,19,Mężczyzna,2022-06-25_15h53.19.955,task,2021.1.4,Win32,119.3602292,6299f149e92ead563fba08ef,62b70e429057beaa891a9864,,,,,,,,,,,,,3,,,,,,,,,,Practice,4,(8/4) + 1,3,,,,,,,,,,,,,,space,18.3559,"[""3""]",1,[2.522900000006075],1,0,0,0,3,1,,,,,,,,,,,,,,,,,,,,,,,,,,,,,,,,,,,,,,,,,,,,,,,,,,,
,,,,,,,,,,,X V Q F H G B L J M P D K C T S W R N Z,6114c64e70ce0ea9140a2296,19,Mężczyzna,2022-06-25_15h53.19.955,task,2021.1.4,Win32,119.3602292,6299f149e92ead563fba08ef,62b70e429057beaa891a9864,,,,,,,,,,,,,,,,,,,,,,,,,,,,,,,,,,,,,,,,,,,,,,,,,,,0,0,0,0,1,,,,,,,,,,,,,,,,,,,,,,,,,,,,,,,,,,,,,,,,,,,,,,
,,,,,,,,,,,,6114c64e70ce0ea9140a2296,19,Mężczyzna,2022-06-25_15h53.19.955,task,2021.1.4,Win32,119.3602292,6299f149e92ead563fba08ef,62b70e429057beaa891a9864,,,,,,,,,,,,,,,,,,,,,,,Practice,7,(25/5) + 1,6,,,,,,,,,,,,,,,,,0,,0,0,0,0,6,1,,,,,,,,,,,,,,,,,,,,,,,,,,,,,,,,,,,,,,,,,,,,,,,,,,,
,,,,,,,,,,,,6114c64e70ce0ea9140a2296,19,Mężczyzna,2022-06-25_15h53.19.955,task,2021.1.4,Win32,119.3602292,6299f149e92ead563fba08ef,62b70e429057beaa891a9864,,,,,,,,,,,,,2,,,,,,,,,,Practice,3,(4x4) - 14,2,,,,,,,,,,,,,,,,"[""2""]",1,[1.6655999999941287],1,0,1,1,2,1,,,,,,,,,,,,,,,,,,,,,,,,,,,,,,,,,,,,,,,,,,,,,,,,,,,
,,,,,,,,,,,X V Q F H G B L J M P D K C T S W R N Z,6114c64e70ce0ea9140a2296,19,Mężczyzna,2022-06-25_15h53.19.955,task,2021.1.4,Win32,119.3602292,6299f149e92ead563fba08ef,62b70e429057beaa891a9864,,,,,,,,,,,,,,,,,,,,,,,,,,,,,,,,,,,,,,,,,,,,,,,,,,,1,0,1,0,1,,,,,,,,,,,,,,,,,,,,,,,,,,,,,,,,,,,,,,,,,,,,,,
,,,,,,,,,,,,6114c64e70ce0ea9140a2296,19,Mężczyzna,2022-06-25_15h53.19.955,task,2021.1.4,Win32,119.3602292,6299f149e92ead563fba08ef,62b70e429057beaa891a9864,,,,,,,,,,,,,,,,,,,,,,,,,,,,,,,,,,,,,,,,,,,,,,,,,,,,,,,,zr,"[""z"",""r""]",0,"[2.260200000017903,2.3253000000117936,2.986499999999978]",1,0,0,0,0,1,,,,,,,,,,,,,,,,,,,,,,,,,,,,,,,,,,,,
,,,,,,,,,,,,6114c64e70ce0ea9140a2296,19,Mężczyzna,2022-06-25_15h53.19.955,task,2021.1.4,Win32,119.3602292,6299f149e92ead563fba08ef,62b70e429057beaa891a9864,,,,,,,,,,,,,6,,,,,,,,,,Practice,7,(25/5) + 1,6,,,,,,,,,,,,,,,,"[""6""]",1,[1.2840000000001055],1,0,0,0,6,1,,,,,,,,,,,,,,,,,,,,,,,,,,,,,,,,,,,,,,,,,,,,,,,,,,,
,,,,,,,,,,,X V Q F H G B L J M P D K C T S W R N Z,6114c64e70ce0ea9140a2296,19,Mężczyzna,2022-06-25_15h53.19.955,task,2021.1.4,Win32,119.3602292,6299f149e92ead563fba08ef,62b70e429057beaa891a9864,,,,,,,,,,,,,,,,,,,,,,,,,,,,,,,,,,,,,,,,,,,,,,,,,,,0,0,0,0,1,,,,,,,,,,,,,,,,,,,,,,,,,,,,,,,,,,,,,,,,,,,,,,
,,,,,,,,,,,,6114c64e70ce0ea9140a2296,19,Mężczyzna,2022-06-25_15h53.19.955,task,2021.1.4,Win32,119.3602292,6299f149e92ead563fba08ef,62b70e429057beaa891a9864,,,,,,,,,,,,,5,,,,,,,,,,Practice,6,(4/2) + 3,5,,,,,,,,,,,,,,,,"[""5""]",1,[1.3535999999940032],1,0,0,0,5,1,,,,,,,,,,,,,,,,,,,,,,,,,,,,,,,,,,,,,,,,,,,,,,,,,,,
,,,,,,,,,,,X V Q F H G B L J M P D K C T S W R N Z,6114c64e70ce0ea9140a2296,19,Mężczyzna,2022-06-25_15h53.19.955,task,2021.1.4,Win32,119.3602292,6299f149e92ead563fba08ef,62b70e429057beaa891a9864,,,,,,,,,,,,,,,,,,,,,,,,,,,,,,,,,,,,,,,,,,,,,,,,,,,1,0,1,0,1,,,,,,,,,,,,,,,,,,,,,,,,,,,,,,,,,,,,,,,,,,,,,,
,,,,,,,,,,,,6114c64e70ce0ea9140a2296,19,Mężczyzna,2022-06-25_15h53.19.955,task,2021.1.4,Win32,119.3602292,6299f149e92ead563fba08ef,62b70e429057beaa891a9864,,,,,,,,,,,,,,,,,,,,,,,,,,,,,,,,,,,,,,,,,,,,,,,,,,,,,,,,qm,"[""q"",""m""]",0,"[2.0089000000059514,2.526699999988068,2.7755999999940286]",1,1,0,1,0,1,,,,,,,,,,,,,,,,,,,,,,,,,,,,,,,,,,,,
,,,,,,,,,,,,6114c64e70ce0ea9140a2296,19,Mężczyzna,2022-06-25_15h53.19.955,task,2021.1.4,Win32,119.3602292,6299f149e92ead563fba08ef,62b70e429057beaa891a9864,,,,,,,,,,,,,6,,,,,,,,,,Practice,7,(25/5) + 1,6,,,,,,,,,,,,,,,,"[""6""]",1,[1.2900999999940268],1,0,0,0,6,1,,,,,,,,,,,,,,,,,,,,,,,,,,,,,,,,,,,,,,,,,,,,,,,,,,,
,,,,,,,,,,,X V Q F H G B L J M P D K C T S W R N Z,6114c64e70ce0ea9140a2296,19,Mężczyzna,2022-06-25_15h53.19.955,task,2021.1.4,Win32,119.3602292,6299f149e92ead563fba08ef,62b70e429057beaa891a9864,,,,,,,,,,,,,,,,,,,,,,,,,,,,,,,,,,,,,,,,,,,,,,,,,,,0,0,0,0,1,,,,,,,,,,,,,,,,,,,,,,,,,,,,,,,,,,,,,,,,,,,,,,
,,,,,,,,,,,,6114c64e70ce0ea9140a2296,19,Mężczyzna,2022-06-25_15h53.19.955,task,2021.1.4,Win32,119.3602292,6299f149e92ead563fba08ef,62b70e429057beaa891a9864,,,,,,,,,,,,,2,,,,,,,,,,Practice,3,(4x4) - 14,2,,,,,,,,,,,,,,,,"[""2""]",1,[1.6427000000178396],1,0,0,0,2,1,,,,,,,,,,,,,,,,,,,,,,,,,,,,,,,,,,,,,,,,,,,,,,,,,,,
,,,,,,,,,,,X V Q F H G B L J M P D K C T S W R N Z,6114c64e70ce0ea9140a2296,19,Mężczyzna,2022-06-25_15h53.19.955,task,2021.1.4,Win32,119.3602292,6299f149e92ead563fba08ef,62b70e429057beaa891a9864,,,,,,,,,,,,,,,,,,,,,,,,,,,,,,,,,,,,,,,,,,,,,,,,,,,1,0,1,0,1,,,,,,,,,,,,,,,,,,,,,,,,,,,,,,,,,,,,,,,,,,,,,,
,,,,,,,,,,,,6114c64e70ce0ea9140a2296,19,Mężczyzna,2022-06-25_15h53.19.955,task,2021.1.4,Win32,119.3602292,6299f149e92ead563fba08ef,62b70e429057beaa891a9864,,,,,,,,,,,,,,,,,,,,,,,,,,,,,,,,,,,,,,,,,,,,,,,,,,,,,,,,kc,"[""k"",""c""]",0,"[1.899699999987888,1.9255999999938922,2.4667999999819585]",1,2,0,2,0,1,,,,,,,,,,,,,,,,,,,,,,,,,,,,,,,,,,,,
,,,,,,,,,,,,6114c64e70ce0ea9140a2296,19,Mężczyzna,2022-06-25_15h53.19.955,task,2021.1.4,Win32,119.3602292,6299f149e92ead563fba08ef,62b70e429057beaa891a9864,,,,,,,,,,,,,0,,,,,,,,,,Task,8,(1x5) - 5,0,,,,,,,,,,,,,,,,,,,1,,,,,,,,,,,,,,,,,,,,,space,20.3841,"[""0""]",1,[2.239200000017945],0,0,0,7,1,,,,,,,,,,,,,,,,,,,,,,,,,,
,,,,,,,,,,,X V Q F H G B L J M P D K C T S W R N Z,6114c64e70ce0ea9140a2296,19,Mężczyzna,2022-06-25_15h53.19.955,task,2021.1.4,Win32,119.3602292,6299f149e92ead563fba08ef,62b70e429057beaa891a9864,,,,,,,,,,,,,,,,,,,,,,,,,,,,,,,,,,,,,,,,,,,,,,,,,,,,,,,,,,,,,,,,,,,,,,,,,,,,0,0,0,0,1,,,,,,,,,,,,,,,,,,,,,
,,,,,,,,,,,,6114c64e70ce0ea9140a2296,19,Mężczyzna,2022-06-25_15h53.19.955,task,2021.1.4,Win32,119.3602292,6299f149e92ead563fba08ef,62b70e429057beaa891a9864,,,,,,,,,,,,,9,,,,,,,,,,Task,7,(3x7) - 12,9,,,,,,,,,,,,,,,,,,,1,,,,,,,,,,,,,,,,,,,,,,,"[""9""]",1,[2.842600000023822],0,0,0,6,1,,,,,,,,,,,,,,,,,,,,,,,,,,
,,,,,,,,,,,X V Q F H G B L J M P D K C T S W R N Z,6114c64e70ce0ea9140a2296,19,Mężczyzna,2022-06-25_15h53.19.955,task,2021.1.4,Win32,119.3602292,6299f149e92ead563fba08ef,62b70e429057beaa891a9864,,,,,,,,,,,,,,,,,,,,,,,,,,,,,,,,,,,,,,,,,,,,,,,,,,,,,,,,,,,,,,,,,,,,,,,,,,,,1,0,1,0,1,,,,,,,,,,,,,,,,,,,,,
,,,,,,,,,,,,6114c64e70ce0ea9140a2296,19,Mężczyzna,2022-06-25_15h53.19.955,task,2021.1.4,Win32,119.3602292,6299f149e92ead563fba08ef,62b70e429057beaa891a9864,,,,,,,,,,,,,,,,,,,,,,,,,,,,,,,,,,,,,,,,,,,,,,,,,,,,,,,,,,,,,,,,,,,,,,,,,,,,,,,,,zl,"[""z"",""l""]",0,"[1.6466999999881864,2.0958000000118773,2.2293000000120173]",1,ZL,0,0,0,0,1,,,,,,,,,,
,,,,,,,,,,,,6114c64e70ce0ea9140a2296,19,Mężczyzna,2022-06-25_15h53.19.955,task,2021.1.4,Win32,119.3602292,6299f149e92ead563fba08ef,62b70e429057beaa891a9864,,,,,,,,,,,,,0,,,,,,,,,,Task,17,(2x3) - 6,0,,,,,,,,,,,,,,,,,,,1,,,,,,,,,,,,,,,,,,,,,,,"[""0""]",1,[1.941599999994196],0,0,0,16,1,,,,,,,,,,,,,,,,,,,,,,,,,,
,,,,,,,,,,,X V Q F H G B L J M P D K C T S W R N Z,6114c64e70ce0ea9140a2296,19,Mężczyzna,2022-06-25_15h53.19.955,task,2021.1.4,Win32,119.3602292,6299f149e92ead563fba08ef,62b70e429057beaa891a9864,,,,,,,,,,,,,,,,,,,,,,,,,,,,,,,,,,,,,,,,,,,,,,,,,,,,,,,,,,,,,,,,,,,,,,,,,,,,0,0,0,0,1,,,,,,,,,,,,,,,,,,,,,
,,,,,,,,,,,,6114c64e70ce0ea9140a2296,19,Mężczyzna,2022-06-25_15h53.19.955,task,2021.1.4,Win32,119.3602292,6299f149e92ead563fba08ef,62b70e429057beaa891a9864,,,,,,,,,,,,,0,,,,,,,,,,Task,17,(2x3) - 6,0,,,,,,,,,,,,,,,,,,,1,,,,,,,,,,,,,,,,,,,,,,,"[""0""]",1,[1.4063000000119246],0,0,0,16,1,,,,,,,,,,,,,,,,,,,,,,,,,,
,,,,,,,,,,,X V Q F H G B L J M P D K C T S W R N Z,6114c64e70ce0ea9140a2296,19,Mężczyzna,2022-06-25_15h53.19.955,task,2021.1.4,Win32,119.3602292,6299f149e92ead563fba08ef,62b70e429057beaa891a9864,,,,,,,,,,,,,,,,,,,,,,,,,,,,,,,,,,,,,,,,,,,,,,,,,,,,,,,,,,,,,,,,,,,,,,,,,,,,1,0,1,0,1,,,,,,,,,,,,,,,,,,,,,
,,,,,,,,,,,,6114c64e70ce0ea9140a2296,19,Mężczyzna,2022-06-25_15h53.19.955,task,2021.1.4,Win32,119.3602292,6299f149e92ead563fba08ef,62b70e429057beaa891a9864,,,,,,,,,,,,,0,,,,,,,,,,Task,17,(2x3) - 6,0,,,,,,,,,,,,,,,,,,,1,,,,,,,,,,,,,,,,,,,,,,,"[""0""]",1,[1.2276000000238128],0,0,0,16,1,,,,,,,,,,,,,,,,,,,,,,,,,,
,,,,,,,,,,,X V Q F H G B L J M P D K C T S W R N Z,6114c64e70ce0ea9140a2296,19,Mężczyzna,2022-06-25_15h53.19.955,task,2021.1.4,Win32,119.3602292,6299f149e92ead563fba08ef,62b70e429057beaa891a9864,,,,,,,,,,,,,,,,,,,,,,,,,,,,,,,,,,,,,,,,,,,,,,,,,,,,,,,,,,,,,,,,,,,,,,,,,,,,2,0,2,0,1,,,,,,,,,,,,,,,,,,,,,
,,,,,,,,,,,,6114c64e70ce0ea9140a2296,19,Mężczyzna,2022-06-25_15h53.19.955,task,2021.1.4,Win32,119.3602292,6299f149e92ead563fba08ef,62b70e429057beaa891a9864,,,,,,,,,,,,,,,,,,,,,,,,,,,,,,,,,,,,,,,,,,,,,,,,,,,,,,,,,,,,,,,,,,,,,,,,,,,,,,,,,wtm,"[""w"",""t"",""m""]",0,"[2.035900000005995,2.5325999999940905,3.0115999999941323,3.2580999999941014]",1,WTM,1,0,1,0,1,,,,,,,,,,
,,,,,,,,,,,,6114c64e70ce0ea9140a2296,19,Mężczyzna,2022-06-25_15h53.19.955,task,2021.1.4,Win32,119.3602292,6299f149e92ead563fba08ef,62b70e429057beaa891a9864,,,,,,,,,,,,,,,,,,,,,,,Task,3,(2x3) - 3,3,,,,,,,,,,,,,,,,,,,0,,,,,,,,,,,,,,,,,,,,,,,,0,,0,0,0,2,1,,,,,,,,,,,,,,,,,,,,,,,,,,
,,,,,,,,,,,,6114c64e70ce0ea9140a2296,19,Mężczyzna,2022-06-25_15h53.19.955,task,2021.1.4,Win32,119.3602292,6299f149e92ead563fba08ef,62b70e429057beaa891a9864,,,,,,,,,,,,,9,,,,,,,,,,Task,40,(7x2) - 5,9,,,,,,,,,,,,,,,,,,,1,,,,,,,,,,,,,,,,,,,,,,,"[""9""]",1,[2.462700000017776],0,1,1,39,1,,,,,,,,,,,,,,,,,,,,,,,,,,
,,,,,,,,,,,X V Q F H G B L J M P D K C T S W R N Z,6114c64e70ce0ea9140a2296,19,Mężczyzna,2022-06-25_15h53.19.955,task,2021.1.4,Win32,119.3602292,6299f149e92ead563fba08ef,62b70e429057beaa891a9864,,,,,,,,,,,,,,,,,,,,,,,,,,,,,,,,,,,,,,,,,,,,,,,,,,,,,,,,,,,,,,,,,,,,,,,,,,,,0,0,0,0,1,,,,,,,,,,,,,,,,,,,,,
,,,,,,,,,,,,6114c64e70ce0ea9140a2296,19,Mężczyzna,2022-06-25_15h53.19.955,task,2021.1.4,Win32,119.3602292,6299f149e92ead563fba08ef,62b70e429057beaa891a9864,,,,,,,,,,,,,0,,,,,,,,,,Task,8,(1x5) - 5,0,,,,,,,,,,,,,,,,,,,1,,,,,,,,,,,,,,,,,,,,,,,"[""0""]",1,[1.9165000000000418],0,0,0,7,1,,,,,,,,,,,,,,,,,,,,,,,,,,
,,,,,,,,,,,X V Q F H G B L J M P D K C T S W R N Z,6114c64e70ce0ea9140a2296,19,Mężczyzna,2022-06-25_15h53.19.955,task,2021.1.4,Win32,119.3602292,6299f149e92ead563fba08ef,62b70e429057beaa891a9864,,,,,,,,,,,,,,,,,,,,,,,,,,,,,,,,,,,,,,,,,,,,,,,,,,,,,,,,,,,,,,,,,,,,,,,,,,,,1,0,1,0,1,,,,,,,,,,,,,,,,,,,,,
,,,,,,,,,,,,6114c64e70ce0ea9140a2296,19,Mężczyzna,2022-06-25_15h53.19.955,task,2021.1.4,Win32,119.3602292,6299f149e92ead563fba08ef,62b70e429057beaa891a9864,,,,,,,,,,,,,2,,,,,,,,,,Task,2,(2x2) - 2,2,,,,,,,,,,,,,,,,,,,1,,,,,,,,,,,,,,,,,,,,,,,"[""2""]",1,[1.913099999994074],0,0,0,1,1,,,,,,,,,,,,,,,,,,,,,,,,,,
,,,,,,,,,,,X V Q F H G B L J M P D K C T S W R N Z,6114c64e70ce0ea9140a2296,19,Mężczyzna,2022-06-25_15h53.19.955,task,2021.1.4,Win32,119.3602292,6299f149e92ead563fba08ef,62b70e429057beaa891a9864,,,,,,,,,,,,,,,,,,,,,,,,,,,,,,,,,,,,,,,,,,,,,,,,,,,,,,,,,,,,,,,,,,,,,,,,,,,,2,0,2,0,1,,,,,,,,,,,,,,,,,,,,,
,,,,,,,,,,,,6114c64e70ce0ea9140a2296,19,Mężczyzna,2022-06-25_15h53.19.955,task,2021.1.4,Win32,119.3602292,6299f149e92ead563fba08ef,62b70e429057beaa891a9864,,,,,,,,,,,,,8,,,,,,,,,,Task,32,(8/2) + 4,8,,,,,,,,,,,,,,,,,,,1,,,,,,,,,,,,,,,,,,,,,,,"[""8""]",1,[2.8990999999939504],0,0,0,31,1,,,,,,,,,,,,,,,,,,,,,,,,,,
,,,,,,,,,,,X V Q F H G B L J M P D K C T S W R N Z,6114c64e70ce0ea9140a2296,19,Mężczyzna,2022-06-25_15h53.19.955,task,2021.1.4,Win32,119.3602292,6299f149e92ead563fba08ef,62b70e429057beaa891a9864,,,,,,,,,,,,,,,,,,,,,,,,,,,,,,,,,,,,,,,,,,,,,,,,,,,,,,,,,,,,,,,,,,,,,,,,,,,,3,0,3,0,1,,,,,,,,,,,,,,,,,,,,,
,,,,,,,,,,,,6114c64e70ce0ea9140a2296,19,Mężczyzna,2022-06-25_15h53.19.955,task,2021.1.4,Win32,119.3602292,6299f149e92ead563fba08ef,62b70e429057beaa891a9864,,,,,,,,,,,,,,,,,,,,,,,,,,,,,,,,,,,,,,,,,,,,,,,,,,,,,,,,,,,,,,,,,,,,,,,,,,,,,,,,,lxnf,"[""l"",""x"",""n"",""f""]",0,"[1.5664999999999054,2.066300000011779,2.5328000000117754,2.799800000011828,3.1945999999938977]",1,LXNF,2,0,2,0,1,,,,,,,,,,
,,,,,,,,,,,,6114c64e70ce0ea9140a2296,19,Mężczyzna,2022-06-25_15h53.19.955,task,2021.1.4,Win32,119.3602292,6299f149e92ead563fba08ef,62b70e429057beaa891a9864,,,,,,,,,,,,,6,,,,,,,,,,Task,13,(3x4) - 6,6,,,,,,,,,,,,,,,,,,,1,,,,,,,,,,,,,,,,,,,,,,,"[""6""]",1,[2.3098999999760963],0,0,0,12,1,,,,,,,,,,,,,,,,,,,,,,,,,,
,,,,,,,,,,,X V Q F H G B L J M P D K C T S W R N Z,6114c64e70ce0ea9140a2296,19,Mężczyzna,2022-06-25_15h53.19.955,task,2021.1.4,Win32,119.3602292,6299f149e92ead563fba08ef,62b70e429057beaa891a9864,,,,,,,,,,,,,,,,,,,,,,,,,,,,,,,,,,,,,,,,,,,,,,,,,,,,,,,,,,,,,,,,,,,,,,,,,,,,0,0,0,0,1,,,,,,,,,,,,,,,,,,,,,
,,,,,,,,,,,,6114c64e70ce0ea9140a2296,19,Mężczyzna,2022-06-25_15h53.19.955,task,2021.1.4,Win32,119.3602292,6299f149e92ead563fba08ef,62b70e429057beaa891a9864,,,,,,,,,,,,,1,,,,,,,,,,Task,1,(12/6) - 1,1,,,,,,,,,,,,,,,,,,,1,,,,,,,,,,,,,,,,,,,,,,,"[""1""]",1,[2.6527999999821077],0,0,0,0,1,,,,,,,,,,,,,,,,,,,,,,,,,,
,,,,,,,,,,,X V Q F H G B L J M P D K C T S W R N Z,6114c64e70ce0ea9140a2296,19,Mężczyzna,2022-06-25_15h53.19.955,task,2021.1.4,Win32,119.3602292,6299f149e92ead563fba08ef,62b70e429057beaa891a9864,,,,,,,,,,,,,,,,,,,,,,,,,,,,,,,,,,,,,,,,,,,,,,,,,,,,,,,,,,,,,,,,,,,,,,,,,,,,1,0,1,0,1,,,,,,,,,,,,,,,,,,,,,
,,,,,,,,,,,,6114c64e70ce0ea9140a2296,19,Mężczyzna,2022-06-25_15h53.19.955,task,2021.1.4,Win32,119.3602292,6299f149e92ead563fba08ef,62b70e429057beaa891a9864,,,,,,,,,,,,,5,,,,,,,,,,Task,29,(3x8) - 19 ,5,,,,,,,,,,,,,,,,,,,1,,,,,,,,,,,,,,,,,,,,,,,"[""5""]",1,[2.8933999999760545],0,0,0,28,1,,,,,,,,,,,,,,,,,,,,,,,,,,
,,,,,,,,,,,X V Q F H G B L J M P D K C T S W R N Z,6114c64e70ce0ea9140a2296,19,Mężczyzna,2022-06-25_15h53.19.955,task,2021.1.4,Win32,119.3602292,6299f149e92ead563fba08ef,62b70e429057beaa891a9864,,,,,,,,,,,,,,,,,,,,,,,,,,,,,,,,,,,,,,,,,,,,,,,,,,,,,,,,,,,,,,,,,,,,,,,,,,,,2,0,2,0,1,,,,,,,,,,,,,,,,,,,,,
,,,,,,,,,,,,6114c64e70ce0ea9140a2296,19,Mężczyzna,2022-06-25_15h53.19.955,task,2021.1.4,Win32,119.3602292,6299f149e92ead563fba08ef,62b70e429057beaa891a9864,,,,,,,,,,,,,3,,,,,,,,,,Task,35,(1x2) + 1,3,,,,,,,,,,,,,,,,,,,1,,,,,,,,,,,,,,,,,,,,,,,"[""3""]",1,[2.383599999993976],0,0,0,34,1,,,,,,,,,,,,,,,,,,,,,,,,,,
,,,,,,,,,,,X V Q F H G B L J M P D K C T S W R N Z,6114c64e70ce0ea9140a2296,19,Mężczyzna,2022-06-25_15h53.19.955,task,2021.1.4,Win32,119.3602292,6299f149e92ead563fba08ef,62b70e429057beaa891a9864,,,,,,,,,,,,,,,,,,,,,,,,,,,,,,,,,,,,,,,,,,,,,,,,,,,,,,,,,,,,,,,,,,,,,,,,,,,,3,0,3,0,1,,,,,,,,,,,,,,,,,,,,,
,,,,,,,,,,,,6114c64e70ce0ea9140a2296,19,Mężczyzna,2022-06-25_15h53.19.955,task,2021.1.4,Win32,119.3602292,6299f149e92ead563fba08ef,62b70e429057beaa891a9864,,,,,,,,,,,,,1,,,,,,,,,,Task,1,(12/6) - 1,1,,,,,,,,,,,,,,,,,,,1,,,,,,,,,,,,,,,,,,,,,,,"[""1""]",1,[2.6004000000059477],0,0,0,0,1,,,,,,,,,,,,,,,,,,,,,,,,,,
,,,,,,,,,,,X V Q F H G B L J M P D K C T S W R N Z,6114c64e70ce0ea9140a2296,19,Mężczyzna,2022-06-25_15h53.19.955,task,2021.1.4,Win32,119.3602292,6299f149e92ead563fba08ef,62b70e429057beaa891a9864,,,,,,,,,,,,,,,,,,,,,,,,,,,,,,,,,,,,,,,,,,,,,,,,,,,,,,,,,,,,,,,,,,,,,,,,,,,,4,0,4,0,1,,,,,,,,,,,,,,,,,,,,,
,,,,,,,,,,,,6114c64e70ce0ea9140a2296,19,Mężczyzna,2022-06-25_15h53.19.955,task,2021.1.4,Win32,119.3602292,6299f149e92ead563fba08ef,62b70e429057beaa891a9864,,,,,,,,,,,,,,,,,,,,,,,,,,,,,,,,,,,,,,,,,,,,,,,,,,,,,,,,,,,,,,,,,,,,,,,,,,,,,,,,,tppjc,"[""t"",""p"",""p"",""j"",""c""]",0,"[1.35269999998809,2.018099999993865,2.1927999999820713,2.3424999999999727,2.8087999999820568,3.6260999999940395]",1,TPPJC,3,0,3,0,1,,,,,,,,,,
,,,,,,,,,,,,6114c64e70ce0ea9140a2296,19,Mężczyzna,2022-06-25_15h53.19.955,task,2021.1.4,Win32,119.3602292,6299f149e92ead563fba08ef,62b70e429057beaa891a9864,,,,,,,,,,,,,1,,,,,,,,,,Task,9,(3x7) - 20,1,,,,,,,,,,,,,,,,,,,1,,,,,,,,,,,,,,,,,,,,,,,"[""1""]",1,[1.6240000000000236],0,0,0,8,1,,,,,,,,,,,,,,,,,,,,,,,,,,
,,,,,,,,,,,X V Q F H G B L J M P D K C T S W R N Z,6114c64e70ce0ea9140a2296,19,Mężczyzna,2022-06-25_15h53.19.955,task,2021.1.4,Win32,119.3602292,6299f149e92ead563fba08ef,62b70e429057beaa891a9864,,,,,,,,,,,,,,,,,,,,,,,,,,,,,,,,,,,,,,,,,,,,,,,,,,,,,,,,,,,,,,,,,,,,,,,,,,,,0,0,0,0,1,,,,,,,,,,,,,,,,,,,,,
,,,,,,,,,,,,6114c64e70ce0ea9140a2296,19,Mężczyzna,2022-06-25_15h53.19.955,task,2021.1.4,Win32,119.3602292,6299f149e92ead563fba08ef,62b70e429057beaa891a9864,,,,,,,,,,,,,9,,,,,,,,,,Task,24,(2x2) + 5,9,,,,,,,,,,,,,,,,,,,1,,,,,,,,,,,,,,,,,,,,,,,"[""9""]",1,[2.242200000017874],0,0,0,23,1,,,,,,,,,,,,,,,,,,,,,,,,,,
,,,,,,,,,,,X V Q F H G B L J M P D K C T S W R N Z,6114c64e70ce0ea9140a2296,19,Mężczyzna,2022-06-25_15h53.19.955,task,2021.1.4,Win32,119.3602292,6299f149e92ead563fba08ef,62b70e429057beaa891a9864,,,,,,,,,,,,,,,,,,,,,,,,,,,,,,,,,,,,,,,,,,,,,,,,,,,,,,,,,,,,,,,,,,,,,,,,,,,,1,0,1,0,1,,,,,,,,,,,,,,,,,,,,,
,,,,,,,,,,,,6114c64e70ce0ea9140a2296,19,Mężczyzna,2022-06-25_15h53.19.955,task,2021.1.4,Win32,119.3602292,6299f149e92ead563fba08ef,62b70e429057beaa891a9864,,,,,,,,,,,,,7,,,,,,,,,,Task,14,(2x2) + 3,7,,,,,,,,,,,,,,,,,,,1,,,,,,,,,,,,,,,,,,,,,,,"[""7""]",1,[3.2381999999879554],0,0,0,13,1,,,,,,,,,,,,,,,,,,,,,,,,,,
,,,,,,,,,,,X V Q F H G B L J M P D K C T S W R N Z,6114c64e70ce0ea9140a2296,19,Mężczyzna,2022-06-25_15h53.19.955,task,2021.1.4,Win32,119.3602292,6299f149e92ead563fba08ef,62b70e429057beaa891a9864,,,,,,,,,,,,,,,,,,,,,,,,,,,,,,,,,,,,,,,,,,,,,,,,,,,,,,,,,,,,,,,,,,,,,,,,,,,,2,0,2,0,1,,,,,,,,,,,,,,,,,,,,,
,,,,,,,,,,,,6114c64e70ce0ea9140a2296,19,Mężczyzna,2022-06-25_15h53.19.955,task,2021.1.4,Win32,119.3602292,6299f149e92ead563fba08ef,62b70e429057beaa891a9864,,,,,,,,,,,,,6,,,,,,,,,,Task,30,(6/3) + 4 ,6,,,,,,,,,,,,,,,,,,,1,,,,,,,,,,,,,,,,,,,,,,,"[""6""]",1,[2.0097000000180287],0,0,0,29,1,,,,,,,,,,,,,,,,,,,,,,,,,,
,,,,,,,,,,,X V Q F H G B L J M P D K C T S W R N Z,6114c64e70ce0ea9140a2296,19,Mężczyzna,2022-06-25_15h53.19.955,task,2021.1.4,Win32,119.3602292,6299f149e92ead563fba08ef,62b70e429057beaa891a9864,,,,,,,,,,,,,,,,,,,,,,,,,,,,,,,,,,,,,,,,,,,,,,,,,,,,,,,,,,,,,,,,,,,,,,,,,,,,3,0,3,0,1,,,,,,,,,,,,,,,,,,,,,
,,,,,,,,,,,,6114c64e70ce0ea9140a2296,19,Mężczyzna,2022-06-25_15h53.19.955,task,2021.1.4,Win32,119.3602292,6299f149e92ead563fba08ef,62b70e429057beaa891a9864,,,,,,,,,,,,,7,,,,,,,,,,Task,6,(12/2) + 1,7,,,,,,,,,,,,,,,,,,,1,,,,,,,,,,,,,,,,,,,,,,,"[""7""]",1,[2.898599999994076],0,0,0,5,1,,,,,,,,,,,,,,,,,,,,,,,,,,
,,,,,,,,,,,X V Q F H G B L J M P D K C T S W R N Z,6114c64e70ce0ea9140a2296,19,Mężczyzna,2022-06-25_15h53.19.955,task,2021.1.4,Win32,119.3602292,6299f149e92ead563fba08ef,62b70e429057beaa891a9864,,,,,,,,,,,,,,,,,,,,,,,,,,,,,,,,,,,,,,,,,,,,,,,,,,,,,,,,,,,,,,,,,,,,,,,,,,,,4,0,4,0,1,,,,,,,,,,,,,,,,,,,,,
,,,,,,,,,,,,6114c64e70ce0ea9140a2296,19,Mężczyzna,2022-06-25_15h53.19.955,task,2021.1.4,Win32,119.3602292,6299f149e92ead563fba08ef,62b70e429057beaa891a9864,,,,,,,,,,,,,6,,,,,,,,,,Task,37,(3/3) + 5,6,,,,,,,,,,,,,,,,,,,1,,,,,,,,,,,,,,,,,,,,,,,"[""6""]",1,[1.7187000000178614],0,0,0,36,1,,,,,,,,,,,,,,,,,,,,,,,,,,
,,,,,,,,,,,X V Q F H G B L J M P D K C T S W R N Z,6114c64e70ce0ea9140a2296,19,Mężczyzna,2022-06-25_15h53.19.955,task,2021.1.4,Win32,119.3602292,6299f149e92ead563fba08ef,62b70e429057beaa891a9864,,,,,,,,,,,,,,,,,,,,,,,,,,,,,,,,,,,,,,,,,,,,,,,,,,,,,,,,,,,,,,,,,,,,,,,,,,,,5,0,5,0,1,,,,,,,,,,,,,,,,,,,,,
,,,,,,,,,,,,6114c64e70ce0ea9140a2296,19,Mężczyzna,2022-06-25_15h53.19.955,task,2021.1.4,Win32,119.3602292,6299f149e92ead563fba08ef,62b70e429057beaa891a9864,,,,,,,,,,,,,,,,,,,,,,,,,,,,,,,,,,,,,,,,,,,,,,,,,,,,,,,,,,,,,,,,,,,,,,,,,,,,,,,,,qdmbvj,"[""q"",""d"",""m"",""b"",""v"",""j""]",0,"[1.6199000000058277,1.8488000000118063,2.269999999999982,2.5664000000058422,2.857300000011719,3.026600000023791,3.415400000005775]",1,QDMBVJ,4,0,4,0,1,,,,,,,,,,
,,,,,,,,,,,,6114c64e70ce0ea9140a2296,19,Mężczyzna,2022-06-25_15h53.19.955,task,2021.1.4,Win32,119.3602292,6299f149e92ead563fba08ef,62b70e429057beaa891a9864,,,,,,,,,,,,,4,,,,,,,,,,Task,21,(10/2) - 1,4,,,,,,,,,,,,,,,,,,,1,,,,,,,,,,,,,,,,,,,,,,,"[""4""]",1,[1.9235000000001037],0,0,0,20,1,,,,,,,,,,,,,,,,,,,,,,,,,,
,,,,,,,,,,,X V Q F H G B L J M P D K C T S W R N Z,6114c64e70ce0ea9140a2296,19,Mężczyzna,2022-06-25_15h53.19.955,task,2021.1.4,Win32,119.3602292,6299f149e92ead563fba08ef,62b70e429057beaa891a9864,,,,,,,,,,,,,,,,,,,,,,,,,,,,,,,,,,,,,,,,,,,,,,,,,,,,,,,,,,,,,,,,,,,,,,,,,,,,0,0,0,0,1,,,,,,,,,,,,,,,,,,,,,
,,,,,,,,,,,,6114c64e70ce0ea9140a2296,19,Mężczyzna,2022-06-25_15h53.19.955,task,2021.1.4,Win32,119.3602292,6299f149e92ead563fba08ef,62b70e429057beaa891a9864,,,,,,,,,,,,,4,,,,,,,,,,Task,27,(3/3) + 2,3,,,,,,,,,,,,,,,,,,,0,,,,,,,,,,,,,,,,,,,,,,,"[""4""]",0,[1.9798000000118918],0,0,0,26,1,,,,,,,,,,,,,,,,,,,,,,,,,,
,,,,,,,,,,,,6114c64e70ce0ea9140a2296,19,Mężczyzna,2022-06-25_15h53.19.955,task,2021.1.4,Win32,119.3602292,6299f149e92ead563fba08ef,62b70e429057beaa891a9864,,,,,,,,,,,,,4,,,,,,,,,,Task,28,(2x5) - 6,4,,,,,,,,,,,,,,,,,,,1,,,,,,,,,,,,,,,,,,,,,,,"[""4""]",1,[3.170400000005884],0,1,1,27,1,,,,,,,,,,,,,,,,,,,,,,,,,,
,,,,,,,,,,,X V Q F H G B L J M P D K C T S W R N Z,6114c64e70ce0ea9140a2296,19,Mężczyzna,2022-06-25_15h53.19.955,task,2021.1.4,Win32,119.3602292,6299f149e92ead563fba08ef,62b70e429057beaa891a9864,,,,,,,,,,,,,,,,,,,,,,,,,,,,,,,,,,,,,,,,,,,,,,,,,,,,,,,,,,,,,,,,,,,,,,,,,,,,1,0,1,0,1,,,,,,,,,,,,,,,,,,,,,
,,,,,,,,,,,,6114c64e70ce0ea9140a2296,19,Mężczyzna,2022-06-25_15h53.19.955,task,2021.1.4,Win32,119.3602292,6299f149e92ead563fba08ef,62b70e429057beaa891a9864,,,,,,,,,,,,,,,,,,,,,,,Task,18,(16/4) - 3,1,,,,,,,,,,,,,,,,,,,0,,,,,,,,,,,,,,,,,,,,,,,,0,,0,0,0,17,1,,,,,,,,,,,,,,,,,,,,,,,,,,
,,,,,,,,,,,,6114c64e70ce0ea9140a2296,19,Mężczyzna,2022-06-25_15h53.19.955,task,2021.1.4,Win32,119.3602292,6299f149e92ead563fba08ef,62b70e429057beaa891a9864,,,,,,,,,,,,,9,,,,,,,,,,Task,40,(7x2) - 5,9,,,,,,,,,,,,,,,,,,,1,,,,,,,,,,,,,,,,,,,,,,,"[""9""]",1,[2.1492999999820768],0,1,1,39,1,,,,,,,,,,,,,,,,,,,,,,,,,,
,,,,,,,,,,,X V Q F H G B L J M P D K C T S W R N Z,6114c64e70ce0ea9140a2296,19,Mężczyzna,2022-06-25_15h53.19.955,task,2021.1.4,Win32,119.3602292,6299f149e92ead563fba08ef,62b70e429057beaa891a9864,,,,,,,,,,,,,,,,,,,,,,,,,,,,,,,,,,,,,,,,,,,,,,,,,,,,,,,,,,,,,,,,,,,,,,,,,,,,2,0,2,0,1,,,,,,,,,,,,,,,,,,,,,
,,,,,,,,,,,,6114c64e70ce0ea9140a2296,19,Mężczyzna,2022-06-25_15h53.19.955,task,2021.1.4,Win32,119.3602292,6299f149e92ead563fba08ef,62b70e429057beaa891a9864,,,,,,,,,,,,,8,,,,,,,,,,Task,23,(2x3) + 2,8,,,,,,,,,,,,,,,,,,,1,,,,,,,,,,,,,,,,,,,,,,,"[""8""]",1,[2.199799999982133],0,0,0,22,1,,,,,,,,,,,,,,,,,,,,,,,,,,
,,,,,,,,,,,X V Q F H G B L J M P D K C T S W R N Z,6114c64e70ce0ea9140a2296,19,Mężczyzna,2022-06-25_15h53.19.955,task,2021.1.4,Win32,119.3602292,6299f149e92ead563fba08ef,62b70e429057beaa891a9864,,,,,,,,,,,,,,,,,,,,,,,,,,,,,,,,,,,,,,,,,,,,,,,,,,,,,,,,,,,,,,,,,,,,,,,,,,,,3,0,3,0,1,,,,,,,,,,,,,,,,,,,,,
,,,,,,,,,,,,6114c64e70ce0ea9140a2296,19,Mężczyzna,2022-06-25_15h53.19.955,task,2021.1.4,Win32,119.3602292,6299f149e92ead563fba08ef,62b70e429057beaa891a9864,,,,,,,,,,,,,4,,,,,,,,,,Task,4,(1x5) - 1,4,,,,,,,,,,,,,,,,,,,1,,,,,,,,,,,,,,,,,,,,,,,"[""4""]",1,[2.160400000005893],0,0,0,3,1,,,,,,,,,,,,,,,,,,,,,,,,,,
,,,,,,,,,,,X V Q F H G B L J M P D K C T S W R N Z,6114c64e70ce0ea9140a2296,19,Mężczyzna,2022-06-25_15h53.19.955,task,2021.1.4,Win32,119.3602292,6299f149e92ead563fba08ef,62b70e429057beaa891a9864,,,,,,,,,,,,,,,,,,,,,,,,,,,,,,,,,,,,,,,,,,,,,,,,,,,,,,,,,,,,,,,,,,,,,,,,,,,,4,0,4,0,1,,,,,,,,,,,,,,,,,,,,,
,,,,,,,,,,,,6114c64e70ce0ea9140a2296,19,Mężczyzna,2022-06-25_15h53.19.955,task,2021.1.4,Win32,119.3602292,6299f149e92ead563fba08ef,62b70e429057beaa891a9864,,,,,,,,,,,,,0,,,,,,,,,,Task,33,(1/1) - 1,0,,,,,,,,,,,,,,,,,,,1,,,,,,,,,,,,,,,,,,,,,,,"[""0""]",1,[1.3765000000000782],0,0,0,32,1,,,,,,,,,,,,,,,,,,,,,,,,,,
,,,,,,,,,,,X V Q F H G B L J M P D K C T S W R N Z,6114c64e70ce0ea9140a2296,19,Mężczyzna,2022-06-25_15h53.19.955,task,2021.1.4,Win32,119.3602292,6299f149e92ead563fba08ef,62b70e429057beaa891a9864,,,,,,,,,,,,,,,,,,,,,,,,,,,,,,,,,,,,,,,,,,,,,,,,,,,,,,,,,,,,,,,,,,,,,,,,,,,,5,0,5,0,1,,,,,,,,,,,,,,,,,,,,,
,,,,,,,,,,,,6114c64e70ce0ea9140a2296,19,Mężczyzna,2022-06-25_15h53.19.955,task,2021.1.4,Win32,119.3602292,6299f149e92ead563fba08ef,62b70e429057beaa891a9864,,,,,,,,,,,,,7,,,,,,,,,,Task,38,(4x6) - 17,7,,,,,,,,,,,,,,,,,,,1,,,,,,,,,,,,,,,,,,,,,,,"[""7""]",1,[1.982599999994136],0,0,0,37,1,,,,,,,,,,,,,,,,,,,,,,,,,,
,,,,,,,,,,,X V Q F H G B L J M P D K C T S W R N Z,6114c64e70ce0ea9140a2296,19,Mężczyzna,2022-06-25_15h53.19.955,task,2021.1.4,Win32,119.3602292,6299f149e92ead563fba08ef,62b70e429057beaa891a9864,,,,,,,,,,,,,,,,,,,,,,,,,,,,,,,,,,,,,,,,,,,,,,,,,,,,,,,,,,,,,,,,,,,,,,,,,,,,6,0,6,0,1,,,,,,,,,,,,,,,,,,,,,
,,,,,,,,,,,,6114c64e70ce0ea9140a2296,19,Mężczyzna,2022-06-25_15h53.19.955,task,2021.1.4,Win32,119.3602292,6299f149e92ead563fba08ef,62b70e429057beaa891a9864,,,,,,,,,,,,,,,,,,,,,,,,,,,,,,,,,,,,,,,,,,,,,,,,,,,,,,,,,,,,,,,,,,,,,,,,,,,,,,,,,mbtqjxl,"[""m"",""b"",""t"",""q"",""j"",""x"",""l""]",0,"[1.4462999999821022,1.657900000006066,2.043199999988019,2.4414000000060696,2.99350000000004,3.293199999988019,3.7932999999820822,41.16650000000004]",1,MBTQJXL,5,0,5,0,1,,,,,,,,,,
,,,,,,,,,,,,6114c64e70ce0ea9140a2296,19,Mężczyzna,2022-06-25_15h53.19.955,task,2021.1.4,Win32,119.3602292,6299f149e92ead563fba08ef,62b70e429057beaa891a9864,,,,,,,,,,,,,8,,,,,,,,,,Task,32,(8/2) + 4,8,,,,,,,,,,,,,,,,,,,1,,,,,,,,,,,,,,,,,,,,,,,"[""8""]",1,[2.6773000000118827],0,0,0,31,1,,,,,,,,,,,,,,,,,,,,,,,,,,
,,,,,,,,,,,X V Q F H G B L J M P D K C T S W R N Z,6114c64e70ce0ea9140a2296,19,Mężczyzna,2022-06-25_15h53.19.955,task,2021.1.4,Win32,119.3602292,6299f149e92ead563fba08ef,62b70e429057beaa891a9864,,,,,,,,,,,,,,,,,,,,,,,,,,,,,,,,,,,,,,,,,,,,,,,,,,,,,,,,,,,,,,,,,,,,,,,,,,,,0,0,0,0,1,,,,,,,,,,,,,,,,,,,,,
,,,,,,,,,,,,6114c64e70ce0ea9140a2296,19,Mężczyzna,2022-06-25_15h53.19.955,task,2021.1.4,Win32,119.3602292,6299f149e92ead563fba08ef,62b70e429057beaa891a9864,,,,,,,,,,,,,3,,,,,,,,,,Task,3,(2x3) - 3,3,,,,,,,,,,,,,,,,,,,1,,,,,,,,,,,,,,,,,,,,,,,"[""3""]",1,[2.7058000000120046],0,0,0,2,1,,,,,,,,,,,,,,,,,,,,,,,,,,
,,,,,,,,,,,X V Q F H G B L J M P D K C T S W R N Z,6114c64e70ce0ea9140a2296,19,Mężczyzna,2022-06-25_15h53.19.955,task,2021.1.4,Win32,119.3602292,6299f149e92ead563fba08ef,62b70e429057beaa891a9864,,,,,,,,,,,,,,,,,,,,,,,,,,,,,,,,,,,,,,,,,,,,,,,,,,,,,,,,,,,,,,,,,,,,,,,,,,,,1,0,1,0,1,,,,,,,,,,,,,,,,,,,,,
,,,,,,,,,,,,6114c64e70ce0ea9140a2296,19,Mężczyzna,2022-06-25_15h53.19.955,task,2021.1.4,Win32,119.3602292,6299f149e92ead563fba08ef,62b70e429057beaa891a9864,,,,,,,,,,,,,4,,,,,,,,,,Task,4,(1x5) - 1,4,,,,,,,,,,,,,,,,,,,1,,,,,,,,,,,,,,,,,,,,,,,"[""4""]",1,[1.2038000000118245],0,0,0,3,1,,,,,,,,,,,,,,,,,,,,,,,,,,
,,,,,,,,,,,X V Q F H G B L J M P D K C T S W R N Z,6114c64e70ce0ea9140a2296,19,Mężczyzna,2022-06-25_15h53.19.955,task,2021.1.4,Win32,119.3602292,6299f149e92ead563fba08ef,62b70e429057beaa891a9864,,,,,,,,,,,,,,,,,,,,,,,,,,,,,,,,,,,,,,,,,,,,,,,,,,,,,,,,,,,,,,,,,,,,,,,,,,,,2,0,2,0,1,,,,,,,,,,,,,,,,,,,,,
,,,,,,,,,,,,6114c64e70ce0ea9140a2296,19,Mężczyzna,2022-06-25_15h53.19.955,task,2021.1.4,Win32,119.3602292,6299f149e92ead563fba08ef,62b70e429057beaa891a9864,,,,,,,,,,,,,2,,,,,,,,,,Task,10,(2x5) - 8,2,,,,,,,,,,,,,,,,,,,1,,,,,,,,,,,,,,,,,,,,,,,"[""2""]",1,[1.3910000000000764],0,0,0,9,1,,,,,,,,,,,,,,,,,,,,,,,,,,
,,,,,,,,,,,X V Q F H G B L J M P D K C T S W R N Z,6114c64e70ce0ea9140a2296,19,Mężczyzna,2022-06-25_15h53.19.955,task,2021.1.4,Win32,119.3602292,6299f149e92ead563fba08ef,62b70e429057beaa891a9864,,,,,,,,,,,,,,,,,,,,,,,,,,,,,,,,,,,,,,,,,,,,,,,,,,,,,,,,,,,,,,,,,,,,,,,,,,,,3,0,3,0,1,,,,,,,,,,,,,,,,,,,,,
,,,,,,,,,,,,6114c64e70ce0ea9140a2296,19,Mężczyzna,2022-06-25_15h53.19.955,task,2021.1.4,Win32,119.3602292,6299f149e92ead563fba08ef,62b70e429057beaa891a9864,,,,,,,,,,,,,0,,,,,,,,,,Task,2,(2x2) - 2,2,,,,,,,,,,,,,,,,,,,0,,,,,,,,,,,,,,,,,,,,,,,"[""0""]",0,[0.9833999999762],0,0,0,1,1,,,,,,,,,,,,,,,,,,,,,,,,,,
,,,,,,,,,,,,6114c64e70ce0ea9140a2296,19,Mężczyzna,2022-06-25_15h53.19.955,task,2021.1.4,Win32,119.3602292,6299f149e92ead563fba08ef,62b70e429057beaa891a9864,,,,,,,,,,,,,2,,,,,,,,,,Task,26,(2x9) - 16,2,,,,,,,,,,,,,,,,,,,1,,,,,,,,,,,,,,,,,,,,,,,"[""2""]",1,[2.3162999999822205],0,1,1,25,1,,,,,,,,,,,,,,,,,,,,,,,,,,
,,,,,,,,,,,X V Q F H G B L J M P D K C T S W R N Z,6114c64e70ce0ea9140a2296,19,Mężczyzna,2022-06-25_15h53.19.955,task,2021.1.4,Win32,119.3602292,6299f149e92ead563fba08ef,62b70e429057beaa891a9864,,,,,,,,,,,,,,,,,,,,,,,,,,,,,,,,,,,,,,,,,,,,,,,,,,,,,,,,,,,,,,,,,,,,,,,,,,,,4,0,4,0,1,,,,,,,,,,,,,,,,,,,,,
,,,,,,,,,,,,6114c64e70ce0ea9140a2296,19,Mężczyzna,2022-06-25_15h53.19.955,task,2021.1.4,Win32,119.3602292,6299f149e92ead563fba08ef,62b70e429057beaa891a9864,,,,,,,,,,,,,4,,,,,,,,,,Task,11,(18/3) - 2,4,,,,,,,,,,,,,,,,,,,1,,,,,,,,,,,,,,,,,,,,,,,"[""4""]",1,[1.5909000000058313],0,0,0,10,1,,,,,,,,,,,,,,,,,,,,,,,,,,
,,,,,,,,,,,X V Q F H G B L J M P D K C T S W R N Z,6114c64e70ce0ea9140a2296,19,Mężczyzna,2022-06-25_15h53.19.955,task,2021.1.4,Win32,119.3602292,6299f149e92ead563fba08ef,62b70e429057beaa891a9864,,,,,,,,,,,,,,,,,,,,,,,,,,,,,,,,,,,,,,,,,,,,,,,,,,,,,,,,,,,,,,,,,,,,,,,,,,,,5,0,5,0,1,,,,,,,,,,,,,,,,,,,,,
,,,,,,,,,,,,6114c64e70ce0ea9140a2296,19,Mężczyzna,2022-06-25_15h53.19.955,task,2021.1.4,Win32,119.3602292,6299f149e92ead563fba08ef,62b70e429057beaa891a9864,,,,,,,,,,,,,8,,,,,,,,,,Task,32,(8/2) + 4,8,,,,,,,,,,,,,,,,,,,1,,,,,,,,,,,,,,,,,,,,,,,"[""8""]",1,[2.699500000000171],0,0,0,31,1,,,,,,,,,,,,,,,,,,,,,,,,,,
,,,,,,,,,,,X V Q F H G B L J M P D K C T S W R N Z,6114c64e70ce0ea9140a2296,19,Mężczyzna,2022-06-25_15h53.19.955,task,2021.1.4,Win32,119.3602292,6299f149e92ead563fba08ef,62b70e429057beaa891a9864,,,,,,,,,,,,,,,,,,,,,,,,,,,,,,,,,,,,,,,,,,,,,,,,,,,,,,,,,,,,,,,,,,,,,,,,,,,,6,0,6,0,1,,,,,,,,,,,,,,,,,,,,,
,,,,,,,,,,,,6114c64e70ce0ea9140a2296,19,Mężczyzna,2022-06-25_15h53.19.955,task,2021.1.4,Win32,119.3602292,6299f149e92ead563fba08ef,62b70e429057beaa891a9864,,,,,,,,,,,,,2,,,,,,,,,,Task,10,(2x5) - 8,2,,,,,,,,,,,,,,,,,,,1,,,,,,,,,,,,,,,,,,,,,,,"[""2""]",1,[1.4435000000000855],0,0,0,9,1,,,,,,,,,,,,,,,,,,,,,,,,,,
,,,,,,,,,,,X V Q F H G B L J M P D K C T S W R N Z,6114c64e70ce0ea9140a2296,19,Mężczyzna,2022-06-25_15h53.19.955,task,2021.1.4,Win32,119.3602292,6299f149e92ead563fba08ef,62b70e429057beaa891a9864,,,,,,,,,,,,,,,,,,,,,,,,,,,,,,,,,,,,,,,,,,,,,,,,,,,,,,,,,,,,,,,,,,,,,,,,,,,,7,0,7,0,1,,,,,,,,,,,,,,,,,,,,,
,,,,,,,,,,,,6114c64e70ce0ea9140a2296,19,Mężczyzna,2022-06-25_15h53.19.955,task,2021.1.4,Win32,119.3602292,6299f149e92ead563fba08ef,62b70e429057beaa891a9864,,,,,,,,,,,,,,,,,,,,,,,,,,,,,,,,,,,,,,,,,,,,,,,,,,,,,,,,,,,,,,,,,,,,,,,,,,,,,,,,,fspltnh,"[""f"",""s"",""p"",""l"",""t"",""n"",""h""]",0,"[1.1499000000058004,2.5630999999939377,3.1583000000118773,3.2369999999998527,4.868699999987939,5.150800000011941,6.750199999987899,8.624599999993961]",0,FSPLTNBH,6,0,6,0,1,,,,,,,,,,
,,,,,,,,,,,,6114c64e70ce0ea9140a2296,19,Mężczyzna,2022-06-25_15h53.19.955,task,2021.1.4,Win32,119.3602292,6299f149e92ead563fba08ef,62b70e429057beaa891a9864,,,,,,,,,,,,,0,,,,,,,,,,Task,8,(1x5) - 5,0,,,,,,,,,,,,,,,,,,,1,,,,,,,,,,,,,,,,,,,,,,,"[""0""]",1,[1.148699999988139],0,0,0,7,1,,,,,,,,,,,,,,,,,,,,,,,,,,
,,,,,,,,,,,X V Q F H G B L J M P D K C T S W R N Z,6114c64e70ce0ea9140a2296,19,Mężczyzna,2022-06-25_15h53.19.955,task,2021.1.4,Win32,119.3602292,6299f149e92ead563fba08ef,62b70e429057beaa891a9864,,,,,,,,,,,,,,,,,,,,,,,,,,,,,,,,,,,,,,,,,,,,,,,,,,,,,,,,,,,,,,,,,,,,,,,,,,,,0,0,0,0,1,,,,,,,,,,,,,,,,,,,,,
,,,,,,,,,,,,6114c64e70ce0ea9140a2296,19,Mężczyzna,2022-06-25_15h53.19.955,task,2021.1.4,Win32,119.3602292,6299f149e92ead563fba08ef,62b70e429057beaa891a9864,,,,,,,,,,,,,2,,,,,,,,,,Task,19,(6/2) - 1,2,,,,,,,,,,,,,,,,,,,1,,,,,,,,,,,,,,,,,,,,,,,"[""2""]",1,[2.0109000000061314],0,0,0,18,1,,,,,,,,,,,,,,,,,,,,,,,,,,
,,,,,,,,,,,X V Q F H G B L J M P D K C T S W R N Z,6114c64e70ce0ea9140a2296,19,Mężczyzna,2022-06-25_15h53.19.955,task,2021.1.4,Win32,119.3602292,6299f149e92ead563fba08ef,62b70e429057beaa891a9864,,,,,,,,,,,,,,,,,,,,,,,,,,,,,,,,,,,,,,,,,,,,,,,,,,,,,,,,,,,,,,,,,,,,,,,,,,,,1,0,1,0,1,,,,,,,,,,,,,,,,,,,,,
,,,,,,,,,,,,6114c64e70ce0ea9140a2296,19,Mężczyzna,2022-06-25_15h53.19.955,task,2021.1.4,Win32,119.3602292,6299f149e92ead563fba08ef,62b70e429057beaa891a9864,,,,,,,,,,,,,8,,,,,,,,,,Task,15,(3x7) - 13,8,,,,,,,,,,,,,,,,,,,1,,,,,,,,,,,,,,,,,,,,,,,"[""8""]",1,[1.5083999999760636],0,0,0,14,1,,,,,,,,,,,,,,,,,,,,,,,,,,
,,,,,,,,,,,X V Q F H G B L J M P D K C T S W R N Z,6114c64e70ce0ea9140a2296,19,Mężczyzna,2022-06-25_15h53.19.955,task,2021.1.4,Win32,119.3602292,6299f149e92ead563fba08ef,62b70e429057beaa891a9864,,,,,,,,,,,,,,,,,,,,,,,,,,,,,,,,,,,,,,,,,,,,,,,,,,,,,,,,,,,,,,,,,,,,,,,,,,,,2,0,2,0,1,,,,,,,,,,,,,,,,,,,,,
,,,,,,,,,,,,6114c64e70ce0ea9140a2296,19,Mężczyzna,2022-06-25_15h53.19.955,task,2021.1.4,Win32,119.3602292,6299f149e92ead563fba08ef,62b70e429057beaa891a9864,,,,,,,,,,,,,7,,,,,,,,,,Task,31,(4/2) + 5,7,,,,,,,,,,,,,,,,,,,1,,,,,,,,,,,,,,,,,,,,,,,"[""7""]",1,[2.200300000012021],0,0,0,30,1,,,,,,,,,,,,,,,,,,,,,,,,,,
,,,,,,,,,,,X V Q F H G B L J M P D K C T S W R N Z,6114c64e70ce0ea9140a2296,19,Mężczyzna,2022-06-25_15h53.19.955,task,2021.1.4,Win32,119.3602292,6299f149e92ead563fba08ef,62b70e429057beaa891a9864,,,,,,,,,,,,,,,,,,,,,,,,,,,,,,,,,,,,,,,,,,,,,,,,,,,,,,,,,,,,,,,,,,,,,,,,,,,,3,0,3,0,1,,,,,,,,,,,,,,,,,,,,,
,,,,,,,,,,,,6114c64e70ce0ea9140a2296,19,Mężczyzna,2022-06-25_15h53.19.955,task,2021.1.4,Win32,119.3602292,6299f149e92ead563fba08ef,62b70e429057beaa891a9864,,,,,,,,,,,,,6,,,,,,,,,,Task,5,(2x3) + 0,6,,,,,,,,,,,,,,,,,,,1,,,,,,,,,,,,,,,,,,,,,,,"[""6""]",1,[1.8487999999820204],0,0,0,4,1,,,,,,,,,,,,,,,,,,,,,,,,,,
,,,,,,,,,,,X V Q F H G B L J M P D K C T S W R N Z,6114c64e70ce0ea9140a2296,19,Mężczyzna,2022-06-25_15h53.19.955,task,2021.1.4,Win32,119.3602292,6299f149e92ead563fba08ef,62b70e429057beaa891a9864,,,,,,,,,,,,,,,,,,,,,,,,,,,,,,,,,,,,,,,,,,,,,,,,,,,,,,,,,,,,,,,,,,,,,,,,,,,,4,0,4,0,1,,,,,,,,,,,,,,,,,,,,,
,,,,,,,,,,,,6114c64e70ce0ea9140a2296,19,Mężczyzna,2022-06-25_15h53.19.955,task,2021.1.4,Win32,119.3602292,6299f149e92ead563fba08ef,62b70e429057beaa891a9864,,,,,,,,,,,,,5,,,,,,,,,,Task,29,(3x8) - 19 ,5,,,,,,,,,,,,,,,,,,,1,,,,,,,,,,,,,,,,,,,,,,,"[""5""]",1,[2.374300000011999],0,0,0,28,1,,,,,,,,,,,,,,,,,,,,,,,,,,
,,,,,,,,,,,X V Q F H G B L J M P D K C T S W R N Z,6114c64e70ce0ea9140a2296,19,Mężczyzna,2022-06-25_15h53.19.955,task,2021.1.4,Win32,119.3602292,6299f149e92ead563fba08ef,62b70e429057beaa891a9864,,,,,,,,,,,,,,,,,,,,,,,,,,,,,,,,,,,,,,,,,,,,,,,,,,,,,,,,,,,,,,,,,,,,,,,,,,,,5,0,5,0,1,,,,,,,,,,,,,,,,,,,,,
,,,,,,,,,,,,6114c64e70ce0ea9140a2296,19,Mężczyzna,2022-06-25_15h53.19.955,task,2021.1.4,Win32,119.3602292,6299f149e92ead563fba08ef,62b70e429057beaa891a9864,,,,,,,,,,,,,4,,,,,,,,,,Task,27,(3/3) + 2,3,,,,,,,,,,,,,,,,,,,0,,,,,,,,,,,,,,,,,,,,,,,"[""4""]",0,[1.541600000023891],0,0,0,26,1,,,,,,,,,,,,,,,,,,,,,,,,,,
,,,,,,,,,,,,6114c64e70ce0ea9140a2296,19,Mężczyzna,2022-06-25_15h53.19.955,task,2021.1.4,Win32,119.3602292,6299f149e92ead563fba08ef,62b70e429057beaa891a9864,,,,,,,,,,,,,8,,,,,,,,,,Task,15,(3x7) - 13,8,,,,,,,,,,,,,,,,,,,1,,,,,,,,,,,,,,,,,,,,,,,"[""8""]",1,[1.341900000006035],0,1,1,14,1,,,,,,,,,,,,,,,,,,,,,,,,,,
,,,,,,,,,,,X V Q F H G B L J M P D K C T S W R N Z,6114c64e70ce0ea9140a2296,19,Mężczyzna,2022-06-25_15h53.19.955,task,2021.1.4,Win32,119.3602292,6299f149e92ead563fba08ef,62b70e429057beaa891a9864,,,,,,,,,,,,,,,,,,,,,,,,,,,,,,,,,,,,,,,,,,,,,,,,,,,,,,,,,,,,,,,,,,,,,,,,,,,,6,0,6,0,1,,,,,,,,,,,,,,,,,,,,,
,,,,,,,,,,,,6114c64e70ce0ea9140a2296,19,Mężczyzna,2022-06-25_15h53.19.955,task,2021.1.4,Win32,119.3602292,6299f149e92ead563fba08ef,62b70e429057beaa891a9864,,,,,,,,,,,,,2,,,,,,,,,,Task,10,(2x5) - 8,2,,,,,,,,,,,,,,,,,,,1,,,,,,,,,,,,,,,,,,,,,,,"[""2""]",1,[1.2527000000179669],0,0,0,9,1,,,,,,,,,,,,,,,,,,,,,,,,,,
,,,,,,,,,,,X V Q F H G B L J M P D K C T S W R N Z,6114c64e70ce0ea9140a2296,19,Mężczyzna,2022-06-25_15h53.19.955,task,2021.1.4,Win32,119.3602292,6299f149e92ead563fba08ef,62b70e429057beaa891a9864,,,,,,,,,,,,,,,,,,,,,,,,,,,,,,,,,,,,,,,,,,,,,,,,,,,,,,,,,,,,,,,,,,,,,,,,,,,,7,0,7,0,1,,,,,,,,,,,,,,,,,,,,,
,,,,,,,,,,,,6114c64e70ce0ea9140a2296,19,Mężczyzna,2022-06-25_15h53.19.955,task,2021.1.4,Win32,119.3602292,6299f149e92ead563fba08ef,62b70e429057beaa891a9864,,,,,,,,,,,,,,,,,,,,,,,,,,,,,,,,,,,,,,,,,,,,,,,,,,,,,,,,,,,,,,,,,,,,,,,,,,,,,,,,,djjrlczz,"[""d"",""j"",""j"",""r"",""l"",""c"",""z"",""z""]",0,"[1.367099999994025,1.867099999994025,1.9752000000178214,2.4169999999999163,2.9352000000178577,3.3209999999999127,3.550200000017867,3.6689000000060332,4.375]",1,DJJRLCZZ,7,0,7,0,1,,,,,,,,,,
,,,,,,,,,,,,6114c64e70ce0ea9140a2296,19,Mężczyzna,2022-06-25_15h53.19.955,task,2021.1.4,Win32,119.3602292,6299f149e92ead563fba08ef,62b70e429057beaa891a9864,,,,,,,,,,,,,6,,,,,,,,,,Task,30,(6/3) + 4 ,6,,,,,,,,,,,,,,,,,,,1,,,,,,,,,,,,,,,,,,,,,,,"[""6""]",1,[2.132999999999811],0,0,0,29,1,,,,,,,,,,,,,,,,,,,,,,,,,,
,,,,,,,,,,,X V Q F H G B L J M P D K C T S W R N Z,6114c64e70ce0ea9140a2296,19,Mężczyzna,2022-06-25_15h53.19.955,task,2021.1.4,Win32,119.3602292,6299f149e92ead563fba08ef,62b70e429057beaa891a9864,,,,,,,,,,,,,,,,,,,,,,,,,,,,,,,,,,,,,,,,,,,,,,,,,,,,,,,,,,,,,,,,,,,,,,,,,,,,0,0,0,0,1,,,,,,,,,,,,,,,,,,,,,
,,,,,,,,,,,,6114c64e70ce0ea9140a2296,19,Mężczyzna,2022-06-25_15h53.19.955,task,2021.1.4,Win32,119.3602292,6299f149e92ead563fba08ef,62b70e429057beaa891a9864,,,,,,,,,,,,,1,,,,,,,,,,Task,9,(3x7) - 20,1,,,,,,,,,,,,,,,,,,,1,,,,,,,,,,,,,,,,,,,,,,,"[""1""]",1,[1.0901000000237673],0,0,0,8,1,,,,,,,,,,,,,,,,,,,,,,,,,,
,,,,,,,,,,,X V Q F H G B L J M P D K C T S W R N Z,6114c64e70ce0ea9140a2296,19,Mężczyzna,2022-06-25_15h53.19.955,task,2021.1.4,Win32,119.3602292,6299f149e92ead563fba08ef,62b70e429057beaa891a9864,,,,,,,,,,,,,,,,,,,,,,,,,,,,,,,,,,,,,,,,,,,,,,,,,,,,,,,,,,,,,,,,,,,,,,,,,,,,1,0,1,0,1,,,,,,,,,,,,,,,,,,,,,
,,,,,,,,,,,,6114c64e70ce0ea9140a2296,19,Mężczyzna,2022-06-25_15h53.19.955,task,2021.1.4,Win32,119.3602292,6299f149e92ead563fba08ef,62b70e429057beaa891a9864,,,,,,,,,,,,,6,,,,,,,,,,Task,37,(3/3) + 5,6,,,,,,,,,,,,,,,,,,,1,,,,,,,,,,,,,,,,,,,,,,,"[""6""]",1,[2.675999999999931],0,0,0,36,1,,,,,,,,,,,,,,,,,,,,,,,,,,
,,,,,,,,,,,X V Q F H G B L J M P D K C T S W R N Z,6114c64e70ce0ea9140a2296,19,Mężczyzna,2022-06-25_15h53.19.955,task,2021.1.4,Win32,119.3602292,6299f149e92ead563fba08ef,62b70e429057beaa891a9864,,,,,,,,,,,,,,,,,,,,,,,,,,,,,,,,,,,,,,,,,,,,,,,,,,,,,,,,,,,,,,,,,,,,,,,,,,,,2,0,2,0,1,,,,,,,,,,,,,,,,,,,,,
,,,,,,,,,,,,6114c64e70ce0ea9140a2296,19,Mężczyzna,2022-06-25_15h53.19.955,task,2021.1.4,Win32,119.3602292,6299f149e92ead563fba08ef,62b70e429057beaa891a9864,,,,,,,,,,,,,0,,,,,,,,,,Task,25,(10/5) - 2,0,,,,,,,,,,,,,,,,,,,1,,,,,,,,,,,,,,,,,,,,,,,"[""0""]",1,[3.7502999999821895],0,0,0,24,1,,,,,,,,,,,,,,,,,,,,,,,,,,
,,,,,,,,,,,X V Q F H G B L J M P D K C T S W R N Z,6114c64e70ce0ea9140a2296,19,Mężczyzna,2022-06-25_15h53.19.955,task,2021.1.4,Win32,119.3602292,6299f149e92ead563fba08ef,62b70e429057beaa891a9864,,,,,,,,,,,,,,,,,,,,,,,,,,,,,,,,,,,,,,,,,,,,,,,,,,,,,,,,,,,,,,,,,,,,,,,,,,,,3,0,3,0,1,,,,,,,,,,,,,,,,,,,,,
,,,,,,,,,,,,6114c64e70ce0ea9140a2296,19,Mężczyzna,2022-06-25_15h53.19.955,task,2021.1.4,Win32,119.3602292,6299f149e92ead563fba08ef,62b70e429057beaa891a9864,,,,,,,,,,,,,0,,,,,,,,,,Task,25,(10/5) - 2,0,,,,,,,,,,,,,,,,,,,1,,,,,,,,,,,,,,,,,,,,,,,"[""0""]",1,[1.3579999999999472],0,0,0,24,1,,,,,,,,,,,,,,,,,,,,,,,,,,
,,,,,,,,,,,X V Q F H G B L J M P D K C T S W R N Z,6114c64e70ce0ea9140a2296,19,Mężczyzna,2022-06-25_15h53.19.955,task,2021.1.4,Win32,119.3602292,6299f149e92ead563fba08ef,62b70e429057beaa891a9864,,,,,,,,,,,,,,,,,,,,,,,,,,,,,,,,,,,,,,,,,,,,,,,,,,,,,,,,,,,,,,,,,,,,,,,,,,,,4,0,4,0,1,,,,,,,,,,,,,,,,,,,,,
,,,,,,,,,,,,6114c64e70ce0ea9140a2296,19,Mężczyzna,2022-06-25_15h53.19.955,task,2021.1.4,Win32,119.3602292,6299f149e92ead563fba08ef,62b70e429057beaa891a9864,,,,,,,,,,,,,3,,,,,,,,,,Task,27,(3/3) + 2,3,,,,,,,,,,,,,,,,,,,1,,,,,,,,,,,,,,,,,,,,,,,"[""3""]",1,[1.0994000000059714],0,0,0,26,1,,,,,,,,,,,,,,,,,,,,,,,,,,
,,,,,,,,,,,X V Q F H G B L J M P D K C T S W R N Z,6114c64e70ce0ea9140a2296,19,Mężczyzna,2022-06-25_15h53.19.955,task,2021.1.4,Win32,119.3602292,6299f149e92ead563fba08ef,62b70e429057beaa891a9864,,,,,,,,,,,,,,,,,,,,,,,,,,,,,,,,,,,,,,,,,,,,,,,,,,,,,,,,,,,,,,,,,,,,,,,,,,,,5,0,5,0,1,,,,,,,,,,,,,,,,,,,,,
,,,,,,,,,,,,6114c64e70ce0ea9140a2296,19,Mężczyzna,2022-06-25_15h53.19.955,task,2021.1.4,Win32,119.3602292,6299f149e92ead563fba08ef,62b70e429057beaa891a9864,,,,,,,,,,,,,7,,,,,,,,,,Task,31,(4/2) + 5,7,,,,,,,,,,,,,,,,,,,1,,,,,,,,,,,,,,,,,,,,,,,"[""7""]",1,[1.3914000000058877],0,0,0,30,1,,,,,,,,,,,,,,,,,,,,,,,,,,
,,,,,,,,,,,X V Q F H G B L J M P D K C T S W R N Z,6114c64e70ce0ea9140a2296,19,Mężczyzna,2022-06-25_15h53.19.955,task,2021.1.4,Win32,119.3602292,6299f149e92ead563fba08ef,62b70e429057beaa891a9864,,,,,,,,,,,,,,,,,,,,,,,,,,,,,,,,,,,,,,,,,,,,,,,,,,,,,,,,,,,,,,,,,,,,,,,,,,,,6,0,6,0,1,,,,,,,,,,,,,,,,,,,,,
,,,,,,,,,,,,6114c64e70ce0ea9140a2296,19,Mężczyzna,2022-06-25_15h53.19.955,task,2021.1.4,Win32,119.3602292,6299f149e92ead563fba08ef,62b70e429057beaa891a9864,,,,,,,,,,,,,3,,,,,,,,,,Task,27,(3/3) + 2,3,,,,,,,,,,,,,,,,,,,1,,,,,,,,,,,,,,,,,,,,,,,"[""3""]",1,[1.436200000017834],0,0,0,26,1,,,,,,,,,,,,,,,,,,,,,,,,,,
,,,,,,,,,,,X V Q F H G B L J M P D K C T S W R N Z,6114c64e70ce0ea9140a2296,19,Mężczyzna,2022-06-25_15h53.19.955,task,2021.1.4,Win32,119.3602292,6299f149e92ead563fba08ef,62b70e429057beaa891a9864,,,,,,,,,,,,,,,,,,,,,,,,,,,,,,,,,,,,,,,,,,,,,,,,,,,,,,,,,,,,,,,,,,,,,,,,,,,,7,0,7,0,1,,,,,,,,,,,,,,,,,,,,,
,,,,,,,,,,,,6114c64e70ce0ea9140a2296,19,Mężczyzna,2022-06-25_15h53.19.955,task,2021.1.4,Win32,119.3602292,6299f149e92ead563fba08ef,62b70e429057beaa891a9864,,,,,,,,,,,,,8,,,,,,,,,,Task,39,(5x3) - 7,8,,,,,,,,,,,,,,,,,,,1,,,,,,,,,,,,,,,,,,,,,,,"[""8""]",1,[2.415900000006104],0,0,0,38,1,,,,,,,,,,,,,,,,,,,,,,,,,,
,,,,,,,,,,,X V Q F H G B L J M P D K C T S W R N Z,6114c64e70ce0ea9140a2296,19,Mężczyzna,2022-06-25_15h53.19.955,task,2021.1.4,Win32,119.3602292,6299f149e92ead563fba08ef,62b70e429057beaa891a9864,,,,,,,,,,,,,,,,,,,,,,,,,,,,,,,,,,,,,,,,,,,,,,,,,,,,,,,,,,,,,,,,,,,,,,,,,,,,8,0,8,0,1,,,,,,,,,,,,,,,,,,,,,
,,,,,,,,,,,,6114c64e70ce0ea9140a2296,19,Mężczyzna,2022-06-25_15h53.19.955,task,2021.1.4,Win32,119.3602292,6299f149e92ead563fba08ef,62b70e429057beaa891a9864,,,,,,,,,,,,,,,,,,,,,,,,,,,,,,,,,,,,,,,,,,,,,,,,,,,,,,,,,,,,,,,,,,,,,,,,,,,,,,,,,lzzcqgm,"[""l"",""z"",""z"",""c"",""q"",""g"",""m""]",0,"[2.3754999999998745,3.5996999999879336,3.766499999999951,5.403400000005831,5.887900000005857,9.433299999981955,11.058099999994056,11.545799999982137]",0,LZZMQDCGT,8,0,8,0,1,,,,,,,,,,
,,,,,,,,,,,,6114c64e70ce0ea9140a2296,19,Mężczyzna,2022-06-25_15h53.19.955,task,2021.1.4,Win32,119.3602292,6299f149e92ead563fba08ef,62b70e429057beaa891a9864,,,,,,,,,,,,,7,,,,,,,,,,Task,31,(4/2) + 5,7,,,,,,,,,,,,,,,,,,,1,,,,,,,,,,,,,,,,,,,,,,,"[""7""]",1,[1.4355000000000473],0,0,0,30,1,,,,,,,,,,,,,,,,,,,,,,,,,,
,,,,,,,,,,,X V Q F H G B L J M P D K C T S W R N Z,6114c64e70ce0ea9140a2296,19,Mężczyzna,2022-06-25_15h53.19.955,task,2021.1.4,Win32,119.3602292,6299f149e92ead563fba08ef,62b70e429057beaa891a9864,,,,,,,,,,,,,,,,,,,,,,,,,,,,,,,,,,,,,,,,,,,,,,,,,,,,,,,,,,,,,,,,,,,,,,,,,,,,0,0,0,0,1,,,,,,,,,,,,,,,,,,,,,
,,,,,,,,,,,,6114c64e70ce0ea9140a2296,19,Mężczyzna,2022-06-25_15h53.19.955,task,2021.1.4,Win32,119.3602292,6299f149e92ead563fba08ef,62b70e429057beaa891a9864,,,,,,,,,,,,,1,,,,,,,,,,Task,1,(12/6) - 1,1,,,,,,,,,,,,,,,,,,,1,,,,,,,,,,,,,,,,,,,,,,,"[""1""]",1,[2.5493000000117263],0,0,0,0,1,,,,,,,,,,,,,,,,,,,,,,,,,,
,,,,,,,,,,,X V Q F H G B L J M P D K C T S W R N Z,6114c64e70ce0ea9140a2296,19,Mężczyzna,2022-06-25_15h53.19.955,task,2021.1.4,Win32,119.3602292,6299f149e92ead563fba08ef,62b70e429057beaa891a9864,,,,,,,,,,,,,,,,,,,,,,,,,,,,,,,,,,,,,,,,,,,,,,,,,,,,,,,,,,,,,,,,,,,,,,,,,,,,1,0,1,0,1,,,,,,,,,,,,,,,,,,,,,
,,,,,,,,,,,,6114c64e70ce0ea9140a2296,19,Mężczyzna,2022-06-25_15h53.19.955,task,2021.1.4,Win32,119.3602292,6299f149e92ead563fba08ef,62b70e429057beaa891a9864,,,,,,,,,,,,,6,,,,,,,,,,Task,13,(3x4) - 6,6,,,,,,,,,,,,,,,,,,,1,,,,,,,,,,,,,,,,,,,,,,,"[""6""]",1,[2.0572000000177013],0,0,0,12,1,,,,,,,,,,,,,,,,,,,,,,,,,,
,,,,,,,,,,,X V Q F H G B L J M P D K C T S W R N Z,6114c64e70ce0ea9140a2296,19,Mężczyzna,2022-06-25_15h53.19.955,task,2021.1.4,Win32,119.3602292,6299f149e92ead563fba08ef,62b70e429057beaa891a9864,,,,,,,,,,,,,,,,,,,,,,,,,,,,,,,,,,,,,,,,,,,,,,,,,,,,,,,,,,,,,,,,,,,,,,,,,,,,2,0,2,0,1,,,,,,,,,,,,,,,,,,,,,
,,,,,,,,,,,,6114c64e70ce0ea9140a2296,19,Mężczyzna,2022-06-25_15h53.19.955,task,2021.1.4,Win32,119.3602292,6299f149e92ead563fba08ef,62b70e429057beaa891a9864,,,,,,,,,,,,,1,,,,,,,,,,Task,19,(6/2) - 1,2,,,,,,,,,,,,,,,,,,,0,,,,,,,,,,,,,,,,,,,,,,,"[""1""]",0,[1.3524999999999636],0,0,0,18,1,,,,,,,,,,,,,,,,,,,,,,,,,,
,,,,,,,,,,,,6114c64e70ce0ea9140a2296,19,Mężczyzna,2022-06-25_15h53.19.955,task,2021.1.4,Win32,119.3602292,6299f149e92ead563fba08ef,62b70e429057beaa891a9864,,,,,,,,,,,,,,,,,,,,,,,Task,34,(9/3) - 2,1,,,,,,,,,,,,,,,,,,,0,,,,,,,,,,,,,,,,,,,,,,,,0,,0,1,1,33,1,,,,,,,,,,,,,,,,,,,,,,,,,,
,,,,,,,,,,,,6114c64e70ce0ea9140a2296,19,Mężczyzna,2022-06-25_15h53.19.955,task,2021.1.4,Win32,119.3602292,6299f149e92ead563fba08ef,62b70e429057beaa891a9864,,,,,,,,,,,,,2,,,,,,,,,,Task,20,(18/9) + 1,3,,,,,,,,,,,,,,,,,,,0,,,,,,,,,,,,,,,,,,,,,,,"[""2""]",0,[1.316000000000031],0,2,2,19,1,,,,,,,,,,,,,,,,,,,,,,,,,,
,,,,,,,,,,,,6114c64e70ce0ea9140a2296,19,Mężczyzna,2022-06-25_15h53.19.955,task,2021.1.4,Win32,119.3602292,6299f149e92ead563fba08ef,62b70e429057beaa891a9864,,,,,,,,,,,,,0,,,,,,,,,,Task,25,(10/5) - 2,0,,,,,,,,,,,,,,,,,,,1,,,,,,,,,,,,,,,,,,,,,,,"[""0""]",1,[1.4555999999940923],0,3,3,24,1,,,,,,,,,,,,,,,,,,,,,,,,,,
,,,,,,,,,,,X V Q F H G B L J M P D K C T S W R N Z,6114c64e70ce0ea9140a2296,19,Mężczyzna,2022-06-25_15h53.19.955,task,2021.1.4,Win32,119.3602292,6299f149e92ead563fba08ef,62b70e429057beaa891a9864,,,,,,,,,,,,,,,,,,,,,,,,,,,,,,,,,,,,,,,,,,,,,,,,,,,,,,,,,,,,,,,,,,,,,,,,,,,,3,0,3,0,1,,,,,,,,,,,,,,,,,,,,,
,,,,,,,,,,,,6114c64e70ce0ea9140a2296,19,Mężczyzna,2022-06-25_15h53.19.955,task,2021.1.4,Win32,119.3602292,6299f149e92ead563fba08ef,62b70e429057beaa891a9864,,,,,,,,,,,,,1,,,,,,,,,,Task,18,(16/4) - 3,1,,,,,,,,,,,,,,,,,,,1,,,,,,,,,,,,,,,,,,,,,,,"[""1""]",1,[2.0852000000179487],0,0,0,17,1,,,,,,,,,,,,,,,,,,,,,,,,,,
,,,,,,,,,,,X V Q F H G B L J M P D K C T S W R N Z,6114c64e70ce0ea9140a2296,19,Mężczyzna,2022-06-25_15h53.19.955,task,2021.1.4,Win32,119.3602292,6299f149e92ead563fba08ef,62b70e429057beaa891a9864,,,,,,,,,,,,,,,,,,,,,,,,,,,,,,,,,,,,,,,,,,,,,,,,,,,,,,,,,,,,,,,,,,,,,,,,,,,,4,0,4,0,1,,,,,,,,,,,,,,,,,,,,,
,,,,,,,,,,,,6114c64e70ce0ea9140a2296,19,Mężczyzna,2022-06-25_15h53.19.955,task,2021.1.4,Win32,119.3602292,6299f149e92ead563fba08ef,62b70e429057beaa891a9864,,,,,,,,,,,,,8,,,,,,,,,,Task,23,(2x3) + 2,8,,,,,,,,,,,,,,,,,,,1,,,,,,,,,,,,,,,,,,,,,,,"[""8""]",1,[3.0824000000059186],0,0,0,22,1,,,,,,,,,,,,,,,,,,,,,,,,,,
,,,,,,,,,,,X V Q F H G B L J M P D K C T S W R N Z,6114c64e70ce0ea9140a2296,19,Mężczyzna,2022-06-25_15h53.19.955,task,2021.1.4,Win32,119.3602292,6299f149e92ead563fba08ef,62b70e429057beaa891a9864,,,,,,,,,,,,,,,,,,,,,,,,,,,,,,,,,,,,,,,,,,,,,,,,,,,,,,,,,,,,,,,,,,,,,,,,,,,,5,0,5,0,1,,,,,,,,,,,,,,,,,,,,,
,,,,,,,,,,,,6114c64e70ce0ea9140a2296,19,Mężczyzna,2022-06-25_15h53.19.955,task,2021.1.4,Win32,119.3602292,6299f149e92ead563fba08ef,62b70e429057beaa891a9864,,,,,,,,,,,,,8,,,,,,,,,,Task,15,(3x7) - 13,8,,,,,,,,,,,,,,,,,,,1,,,,,,,,,,,,,,,,,,,,,,,"[""8""]",1,[1.4114000000058695],0,0,0,14,1,,,,,,,,,,,,,,,,,,,,,,,,,,
,,,,,,,,,,,X V Q F H G B L J M P D K C T S W R N Z,6114c64e70ce0ea9140a2296,19,Mężczyzna,2022-06-25_15h53.19.955,task,2021.1.4,Win32,119.3602292,6299f149e92ead563fba08ef,62b70e429057beaa891a9864,,,,,,,,,,,,,,,,,,,,,,,,,,,,,,,,,,,,,,,,,,,,,,,,,,,,,,,,,,,,,,,,,,,,,,,,,,,,6,0,6,0,1,,,,,,,,,,,,,,,,,,,,,
,,,,,,,,,,,,6114c64e70ce0ea9140a2296,19,Mężczyzna,2022-06-25_15h53.19.955,task,2021.1.4,Win32,119.3602292,6299f149e92ead563fba08ef,62b70e429057beaa891a9864,,,,,,,,,,,,,1,,,,,,,,,,Task,34,(9/3) - 2,1,,,,,,,,,,,,,,,,,,,1,,,,,,,,,,,,,,,,,,,,,,,"[""1""]",1,[2.0757000000178323],0,0,0,33,1,,,,,,,,,,,,,,,,,,,,,,,,,,
,,,,,,,,,,,X V Q F H G B L J M P D K C T S W R N Z,6114c64e70ce0ea9140a2296,19,Mężczyzna,2022-06-25_15h53.19.955,task,2021.1.4,Win32,119.3602292,6299f149e92ead563fba08ef,62b70e429057beaa891a9864,,,,,,,,,,,,,,,,,,,,,,,,,,,,,,,,,,,,,,,,,,,,,,,,,,,,,,,,,,,,,,,,,,,,,,,,,,,,7,0,7,0,1,,,,,,,,,,,,,,,,,,,,,
,,,,,,,,,,,,6114c64e70ce0ea9140a2296,19,Mężczyzna,2022-06-25_15h53.19.955,task,2021.1.4,Win32,119.3602292,6299f149e92ead563fba08ef,62b70e429057beaa891a9864,,,,,,,,,,,,,3,,,,,,,,,,Task,3,(2x3) - 3,3,,,,,,,,,,,,,,,,,,,1,,,,,,,,,,,,,,,,,,,,,,,"[""3""]",1,[2.372300000011819],0,0,0,2,1,,,,,,,,,,,,,,,,,,,,,,,,,,
,,,,,,,,,,,X V Q F H G B L J M P D K C T S W R N Z,6114c64e70ce0ea9140a2296,19,Mężczyzna,2022-06-25_15h53.19.955,task,2021.1.4,Win32,119.3602292,6299f149e92ead563fba08ef,62b70e429057beaa891a9864,,,,,,,,,,,,,,,,,,,,,,,,,,,,,,,,,,,,,,,,,,,,,,,,,,,,,,,,,,,,,,,,,,,,,,,,,,,,8,0,8,0,1,,,,,,,,,,,,,,,,,,,,,
,,,,,,,,,,,,6114c64e70ce0ea9140a2296,19,Mężczyzna,2022-06-25_15h53.19.955,task,2021.1.4,Win32,119.3602292,6299f149e92ead563fba08ef,62b70e429057beaa891a9864,,,,,,,,,,,,,,,,,,,,,,,,,,,,,,,,,,,,,,,,,,,,,,,,,,,,,,,,,,,,,,,,,,,,,,,,,,,,,,,,,chghwmbh,"[""c"",""h"",""g"",""h"",""w"",""m"",""b"",""h""]",0,"[1.870299999981853,2.0162999999820386,2.2016999999877953,2.5247999999819513,3.1340999999938504,3.4201999999877444,4.075599999993756,6.86569999998801,7.277900000005957]",0,CHGHWMBHR,9,0,9,0,1,,,,,,,,,,
,,,,,,,,,,,,6114c64e70ce0ea9140a2296,19,Mężczyzna,2022-06-25_15h53.19.955,task,2021.1.4,Win32,119.3602292,6299f149e92ead563fba08ef,62b70e429057beaa891a9864,,,,,,,,,,,,,,,,,,,,,,,,,,,,,,,,,,,,,,,,,,,,,,,,,,,,,,,,,,,,,,,,,,,,,,,,,,,,,,,,,,,,,,,,,,,,"[""period""]",0,[0.9119000000059714],0,0,0,0,1,,
,,,,,,,,,,,,6114c64e70ce0ea9140a2296,19,Mężczyzna,2022-06-25_15h53.19.955,task,2021.1.4,Win32,119.3602292,6299f149e92ead563fba08ef,62b70e429057beaa891a9864,,,,,,,,,,,,,,,,,,,,,,,,,,,,,,,,,,,,,,,,,,,,,,,,,,,,,,,,,,,,,,,,,,,,,,,,,,,,,,,,,,,,,,,,,,,,"[""comma""]",0,[0.8224000000059277],1,0,1,0,1,,
,,,,,,,,,,,,6114c64e70ce0ea9140a2296,19,Mężczyzna,2022-06-25_15h53.19.955,task,2021.1.4,Win32,119.3602292,6299f149e92ead563fba08ef,62b70e429057beaa891a9864,,,,,,,,,,,,,,,,,,,,,,,,,,,,,,,,,,,,,,,,,,,,,,,,,,,,,,,,,,,,,,,,,,,,,,,,,,,,,,,,,,,,,,,,,,,,"[""comma""]",0,[0.5287000000180342],2,0,2,0,1,,
,,,,,,,,,,,,6114c64e70ce0ea9140a2296,19,Mężczyzna,2022-06-25_15h53.19.955,task,2021.1.4,Win32,119.3602292,6299f149e92ead563fba08ef,62b70e429057beaa891a9864,,,,,,,,,,,,,,,,,,,,,,,,,,,,,,,,,,,,,,,,,,,,,,,,,,,,,,,,,,,,,,,,,,,,,,,,,,,,,,,,,,,,,,,,,,,,"[""period""]",0,[0.40409999999383217],3,0,3,0,1,,
,,,,,,,,,,,,6114c64e70ce0ea9140a2296,19,Mężczyzna,2022-06-25_15h53.19.955,task,2021.1.4,Win32,119.3602292,6299f149e92ead563fba08ef,62b70e429057beaa891a9864,,,,,,,,,,,,,,,,,,,,,,,,,,,,,,,,,,,,,,,,,,,,,,,,,,,,,,,,,,,,,,,,,,,,,,,,,,,,,,,,,,,,,,,,,,,,"[""period""]",0,[0.7843999999763582],4,0,4,0,1,,
,,,,,,,,,,,,6114c64e70ce0ea9140a2296,19,Mężczyzna,2022-06-25_15h53.19.955,task,2021.1.4,Win32,119.3602292,6299f149e92ead563fba08ef,62b70e429057beaa891a9864,,,,,,,,,,,,,,,,,,,,,,,,,,,,,,,,,,,,,,,,,,,,,,,,,,,,,,,,,,,,,,,,,,,,,,,,,,,,,,,,,,,,,,,,,,,,"[""comma""]",0,[0.6712999999822387],5,0,5,0,1,,
,,,,,,,,,,,,6114c64e70ce0ea9140a2296,19,Mężczyzna,2022-06-25_15h53.19.955,task,2021.1.4,Win32,119.3602292,6299f149e92ead563fba08ef,62b70e429057beaa891a9864,,,,,,,,,,,,,,,,,,,,,,,,,,,,,,,,,,,,,,,,,,,,,,,,,,,,,,,,,,,,,,,,,,,,,,,,,,,,,,,,,,,,,,,,,,,,"[""comma""]",0,[0.6270999999942433],6,0,6,0,1,,
,,,,,,,,,,,,6114c64e70ce0ea9140a2296,19,Mężczyzna,2022-06-25_15h53.19.955,task,2021.1.4,Win32,119.3602292,6299f149e92ead563fba08ef,62b70e429057beaa891a9864,,,,,,,,,,,,,,,,,,,,,,,,,,,,,,,,,,,,,,,,,,,,,,,,,,,,,,,,,,,,,,,,,,,,,,,,,,,,,,,,,,,,,,,,,,,,"[""comma""]",0,[0.6255000000001019],7,0,7,0,1,,
,,,,,,,,,,,,6114c64e70ce0ea9140a2296,19,Mężczyzna,2022-06-25_15h53.19.955,task,2021.1.4,Win32,119.3602292,6299f149e92ead563fba08ef,62b70e429057beaa891a9864,,,,,,,,,,,,,,,,,,,,,,,,,,,,,,,,,,,,,,,,,,,,,,,,,,,,,,,,,,,,,,,,,,,,,,,,,,,,,,,,,,,,,,,,,,,,"[""period""]",0,[0.2293000000122447],8,0,8,0,1,,
,,,,,,,,,,,,6114c64e70ce0ea9140a2296,19,Mężczyzna,2022-06-25_15h53.19.955,task,2021.1.4,Win32,119.3602292,6299f149e92ead563fba08ef,62b70e429057beaa891a9864,,,,,,,,,,,,,,,,,,,,,,,,,,,,,,,,,,,,,,,,,,,,,,,,,,,,,,,,,,,,,,,,,,,,,,,,,,,,,,,,,,,,,,,,,,,,"[""comma""]",0,[0.25900000000001455],9,0,9,0,1,,
,,,,,,,,,,,,6114c64e70ce0ea9140a2296,19,Mężczyzna,2022-06-25_15h53.19.955,task,2021.1.4,Win32,119.3602292,6299f149e92ead563fba08ef,62b70e429057beaa891a9864,,,,,,,,,,,,,,,,,,,,,,,,,,,,,,,,,,,,,,,,,,,,,,,,,,,,,,,,,,,,,,,,,,,,,,,,,,,,,,,,,,,,,,,,,,,,"[""period""]",0,[0.2931999999882464],10,0,10,0,1,,
,,,,,,,,,,,,6114c64e70ce0ea9140a2296,19,Mężczyzna,2022-06-25_15h53.19.955,task,2021.1.4,Win32,119.3602292,6299f149e92ead563fba08ef,62b70e429057beaa891a9864,,,,,,,,,,,,,,,,,,,,,,,,,,,,,,,,,,,,,,,,,,,,,,,,,,,,,,,,,,,,,,,,,,,,,,,,,,,,,,,,,,,,,,,,,,,,"[""period""]",0,[0.27730000001201915],11,0,11,0,1,,
,,,,,,,,,,,,6114c64e70ce0ea9140a2296,19,Mężczyzna,2022-06-25_15h53.19.955,task,2021.1.4,Win32,119.3602292,6299f149e92ead563fba08ef,62b70e429057beaa891a9864,,,,,,,,,,,,,,,,,,,,,,,,,,,,,,,,,,,,,,,,,,,,,,,,,,,,,,,,,,,,,,,,,,,,,,,,,,,,,,,,,,,,,,,,,,,,"[""period""]",0,[0.8083000000119682],12,0,12,0,1,,
,,,,,,,,,,,,6114c64e70ce0ea9140a2296,19,Mężczyzna,2022-06-25_15h53.19.955,task,2021.1.4,Win32,119.3602292,6299f149e92ead563fba08ef,62b70e429057beaa891a9864,,,,,,,,,,,,,,,,,,,,,,,,,,,,,,,,,,,,,,,,,,,,,,,,,,,,,,,,,,,,,,,,,,,,,,,,,,,,,,,,,,,,,,,,,,,,"[""comma""]",0,[0.6504999999997381],13,0,13,0,1,,
,,,,,,,,,,,,6114c64e70ce0ea9140a2296,19,Mężczyzna,2022-06-25_15h53.19.955,task,2021.1.4,Win32,119.3602292,6299f149e92ead563fba08ef,62b70e429057beaa891a9864,,,,,,,,,,,,,,,,,,,,,,,,,,,,,,,,,,,,,,,,,,,,,,,,,,,,,,,,,,,,,,,,,,,,,,,,,,,,,,,,,,,,,,,,,,,,"[""period""]",0,[0.27909999999383217],14,0,14,0,1,,
,,,,,,,,,,,,6114c64e70ce0ea9140a2296,19,Mężczyzna,2022-06-25_15h53.19.955,task,2021.1.4,Win32,119.3602292,6299f149e92ead563fba08ef,62b70e429057beaa891a9864,,,,,,,,,,,,,,,,,,,,,,,,,,,,,,,,,,,,,,,,,,,,,,,,,,,,,,,,,,,,,,,,,,,,,,,,,,,,,,,,,,,,,,,,,,,,"[""comma"",""comma""]",0,"[0.016799999982140434,1.925000000000182]",15,0,15,0,1,,
,,,,,,,,,,,,6114c64e70ce0ea9140a2296,19,Mężczyzna,2022-06-25_15h53.19.955,task,2021.1.4,Win32,119.3602292,6299f149e92ead563fba08ef,62b70e429057beaa891a9864,,,,,,,,,,,,,,,,,,,,,,,,,,,,,,,,,,,,,,,,,,,,,,,,,,,,,,,,,,,,,,,,,,,,,,,,,,,,,,,,,,,,,,,,,,,,"[""period""]",0,[1.3257000000180597],16,0,16,0,1,,
,,,,,,,,,,,,6114c64e70ce0ea9140a2296,19,Mężczyzna,2022-06-25_15h53.19.955,task,2021.1.4,Win32,119.3602292,6299f149e92ead563fba08ef,62b70e429057beaa891a9864,,,,,,,,,,,,,,,,,,,,,,,,,,,,,,,,,,,,,,,,,,,,,,,,,,,,,,,,,,,,,,,,,,,,,,,,,,,,,,,,,,,,,,,,,,,,"[""period""]",0,[0.3591999999885047],17,0,17,0,1,,
,,,,,,,,,,,,6114c64e70ce0ea9140a2296,19,Mężczyzna,2022-06-25_15h53.19.955,task,2021.1.4,Win32,119.3602292,6299f149e92ead563fba08ef,62b70e429057beaa891a9864,,,,,,,,,,,,,,,,,,,,,,,,,,,,,,,,,,,,,,,,,,,,,,,,,,,,,,,,,,,,,,,,,,,,,,,,,,,,,,,,,,,,,,,,,,,,"[""comma""]",0,[0.291599999994105],18,0,18,0,1,,
,,,,,,,,,,,,6114c64e70ce0ea9140a2296,19,Mężczyzna,2022-06-25_15h53.19.955,task,2021.1.4,Win32,119.3602292,6299f149e92ead563fba08ef,62b70e429057beaa891a9864,,,,,,,,,,,,,,,,,,,,,,,,,,,,,,,,,,,,,,,,,,,,,,,,,,,,,,,,,,,,,,,,,,,,,,,,,,,,,,,,,,,,,,,,,,,,"[""period""]",0,[0.2090000000002874],19,0,19,0,1,,
,,,,,,,,,,,,6114c64e70ce0ea9140a2296,19,Mężczyzna,2022-06-25_15h53.19.955,task,2021.1.4,Win32,119.3602292,6299f149e92ead563fba08ef,62b70e429057beaa891a9864,,,,,,,,,,,,,,,,,,,,,,,,,,,,,,,,,,,,,,,,,,,,,,,,,,,,,,,,,,,,,,,,,,,,,,,,,,,,,,,,,,,,,,,,,,,,"[""comma"",""period""]",0,"[0.2580999999941014,1.9586999999878572]",20,0,20,0,1,,
,,,,,,,,,,,,6114c64e70ce0ea9140a2296,19,Mężczyzna,2022-06-25_15h53.19.955,task,2021.1.4,Win32,119.3602292,6299f149e92ead563fba08ef,62b70e429057beaa891a9864,,,,,,,,,,,,,,,,,,,,,,,,,,,,,,,,,,,,,,,,,,,,,,,,,,,,,,,,,,,,,,,,,,,,,,,,,,,,,,,,,,,,,,,,,,,,"[""comma""]",0,[1.8418000000119719],21,0,21,0,1,,
,,,,,,,,,,,,6114c64e70ce0ea9140a2296,19,Mężczyzna,2022-06-25_15h53.19.955,task,2021.1.4,Win32,119.3602292,6299f149e92ead563fba08ef,62b70e429057beaa891a9864,,,,,,,,,,,,,,,,,,,,,,,,,,,,,,,,,,,,,,,,,,,,,,,,,,,,,,,,,,,,,,,,,,,,,,,,,,,,,,,,,,,,,,,,,,,,,0,,22,0,22,0,1,,
,,,,,,,,,,,,6114c64e70ce0ea9140a2296,19,Mężczyzna,2022-06-25_15h53.19.955,task,2021.1.4,Win32,119.3602292,6299f149e92ead563fba08ef,62b70e429057beaa891a9864,,,,,,,,,,,,,,,,,,,,,,,,,,,,,,,,,,,,,,,,,,,,,,,,,,,,,,,,,,,,,,,,,,,,,,,,,,,,,,,,,,,,,,,,,,,,"[""period"",""comma""]",0,"[-0.006200000017997809,1.9085999999942942]",23,0,23,0,1,,
,,,,,,,,,,,,6114c64e70ce0ea9140a2296,19,Mężczyzna,2022-06-25_15h53.19.955,task,2021.1.4,Win32,119.3602292,6299f149e92ead563fba08ef,62b70e429057beaa891a9864,,,,,,,,,,,,,,,,,,,,,,,,,,,,,,,,,,,,,,,,,,,,,,,,,,,,,,,,,,,,,,,,,,,,,,,,,,,,,,,,,,,,,,,,,,,,,0,,24,0,24,0,1,,
,,,,,,,,,,,,6114c64e70ce0ea9140a2296,19,Mężczyzna,2022-06-25_15h53.19.955,task,2021.1.4,Win32,119.3602292,6299f149e92ead563fba08ef,62b70e429057beaa891a9864,,,,,,,,,,,,,,,,,,,,,,,,,,,,,,,,,,,,,,,,,,,,,,,,,,,,,,,,,,,,,,,,,,,,,,,,,,,,,,,,,,,,,,,,,,,,"[""period""]",0,[0.017099999993661186],25,0,25,0,1,,
,,,,,,,,,,,,6114c64e70ce0ea9140a2296,19,Mężczyzna,2022-06-25_15h53.19.955,task,2021.1.4,Win32,119.3602292,6299f149e92ead563fba08ef,62b70e429057beaa891a9864,,,,,,,,,,,,,,,,,,,,,,,,,,,,,,,,,,,,,,,,,,,,,,,,,,,,,,,,,,,,,,,,,,,,,,,,,,,,,,,,,,,,,,,,,,,,"[""comma""]",0,[0.3574000000057822],26,0,26,0,1,,
,,,,,,,,,,,,6114c64e70ce0ea9140a2296,19,Mężczyzna,2022-06-25_15h53.19.955,task,2021.1.4,Win32,119.3602292,6299f149e92ead563fba08ef,62b70e429057beaa891a9864,,,,,,,,,,,,,,,,,,,,,,,,,,,,,,,,,,,,,,,,,,,,,,,,,,,,,,,,,,,,,,,,,,,,,,,,,,,,,,,,,,,,,,,,,,,,"[""period""]",0,[0.31690000000617147],27,0,27,0,1,,
,,,,,,,,,,,,6114c64e70ce0ea9140a2296,19,Mężczyzna,2022-06-25_15h53.19.955,task,2021.1.4,Win32,119.3602292,6299f149e92ead563fba08ef,62b70e429057beaa891a9864,,,,,,,,,,,,,,,,,,,,,,,,,,,,,,,,,,,,,,,,,,,,,,,,,,,,,,,,,,,,,,,,,,,,,,,,,,,,,,,,,,,,,,,,,,,,"[""period""]",0,[0.2595999999939522],28,0,28,0,1,,
,,,,,,,,,,,,6114c64e70ce0ea9140a2296,19,Mężczyzna,2022-06-25_15h53.19.955,task,2021.1.4,Win32,119.3602292,6299f149e92ead563fba08ef,62b70e429057beaa891a9864,,,,,,,,,,,,,,,,,,,,,,,,,,,,,,,,,,,,,,,,,,,,,,,,,,,,,,,,,,,,,,,,,,,,,,,,,,,,,,,,,,,,,,,,,,,,"[""period""]",0,[0.27549999999973807],29,0,29,0,1,,
,,,,,,,,,,,,6114c64e70ce0ea9140a2296,19,Mężczyzna,2022-06-25_15h53.19.955,task,2021.1.4,Win32,119.3602292,6299f149e92ead563fba08ef,62b70e429057beaa891a9864,,,,,,,,,,,,,,,,,,,,,,,,,,,,,,,,,,,,,,,,,,,,,,,,,,,,,,,,,,,,,,,,,,,,,,,,,,,,,,,,,,,,,,,,,,,,"[""period""]",0,[0.32780000001184817],30,0,30,0,1,,
,,,,,,,,,,,,6114c64e70ce0ea9140a2296,19,Mężczyzna,2022-06-25_15h53.19.955,task,2021.1.4,Win32,119.3602292,6299f149e92ead563fba08ef,62b70e429057beaa891a9864,,,,,,,,,,,,,,,,,,,,,,,,,,,,,,,,,,,,,,,,,,,,,,,,,,,,,,,,,,,,,,,,,,,,,,,,,,,,,,,,,,,,,,,,,,,,"[""comma""]",0,[0.2616000000234635],31,0,31,0,1,,
,,,,,,,,,,,,6114c64e70ce0ea9140a2296,19,Mężczyzna,2022-06-25_15h53.19.955,task,2021.1.4,Win32,119.3602292,6299f149e92ead563fba08ef,62b70e429057beaa891a9864,,,,,,,,,,,,,,,,,,,,,,,,,,,,,,,,,,,,,,,,,,,,,,,,,,,,,,,,,,,,,,,,,,,,,,,,,,,,,,,,,,,,,,,,,,,,"[""period""]",0,[0.21769999998832645],32,0,32,0,1,,
,,,,,,,,,,,,6114c64e70ce0ea9140a2296,19,Mężczyzna,2022-06-25_15h53.19.955,task,2021.1.4,Win32,119.3602292,6299f149e92ead563fba08ef,62b70e429057beaa891a9864,,,,,,,,,,,,,,,,,,,,,,,,,,,,,,,,,,,,,,,,,,,,,,,,,,,,,,,,,,,,,,,,,,,,,,,,,,,,,,,,,,,,,,,,,,,,"[""comma""]",0,[0.24659999999403226],33,0,33,0,1,,
,,,,,,,,,,,,6114c64e70ce0ea9140a2296,19,Mężczyzna,2022-06-25_15h53.19.955,task,2021.1.4,Win32,119.3602292,6299f149e92ead563fba08ef,62b70e429057beaa891a9864,,,,,,,,,,,,,,,,,,,,,,,,,,,,,,,,,,,,,,,,,,,,,,,,,,,,,,,,,,,,,,,,,,,,,,,,,,,,,,,,,,,,,,,,,,,,"[""comma""]",0,[0.21699999999964348],34,0,34,0,1,,
,,,,,,,,,,,,6114c64e70ce0ea9140a2296,19,Mężczyzna,2022-06-25_15h53.19.955,task,2021.1.4,Win32,119.3602292,6299f149e92ead563fba08ef,62b70e429057beaa891a9864,,,,,,,,,,,,,,,,,,,,,,,,,,,,,,,,,,,,,,,,,,,,,,,,,,,,,,,,,,,,,,,,,,,,,,,,,,,,,,,,,,,,,,,,,,,,"[""comma""]",0,[0.25170000001799053],35,0,35,0,1,,
,,,,,,,,,,,,6114c64e70ce0ea9140a2296,19,Mężczyzna,2022-06-25_15h53.19.955,task,2021.1.4,Win32,119.3602292,6299f149e92ead563fba08ef,62b70e429057beaa891a9864,,,,,,,,,,,,,,,,,,,,,,,,,,,,,,,,,,,,,,,,,,,,,,,,,,,,,,,,,,,,,,,,,,,,,,,,,,,,,,,,,,,,,,,,,,,,"[""comma"",""comma""]",0,"[0.20100000000002183,1.8521999999879881]",36,0,36,0,1,,
,,,,,,,,,,,,6114c64e70ce0ea9140a2296,19,Mężczyzna,2022-06-25_15h53.19.955,task,2021.1.4,Win32,119.3602292,6299f149e92ead563fba08ef,62b70e429057beaa891a9864,,,,,,,,,,,,,,,,,,,,,,,,,,,,,,,,,,,,,,,,,,,,,,,,,,,,,,,,,,,,,,,,,,,,,,,,,,,,,,,,,,,,,,,,,,,,,0,,37,0,37,0,1,,
,,,,,,,,,,,,6114c64e70ce0ea9140a2296,19,Mężczyzna,2022-06-25_15h53.19.955,task,2021.1.4,Win32,119.3602292,6299f149e92ead563fba08ef,62b70e429057beaa891a9864,,,,,,,,,,,,,,,,,,,,,,,,,,,,,,,,,,,,,,,,,,,,,,,,,,,,,,,,,,,,,,,,,,,,,,,,,,,,,,,,,,,,,,,,,,,,"[""comma""]",0,[0.2590999999943051],38,0,38,0,1,,
,,,,,,,,,,,,6114c64e70ce0ea9140a2296,19,Mężczyzna,2022-06-25_15h53.19.955,task,2021.1.4,Win32,119.3602292,6299f149e92ead563fba08ef,62b70e429057beaa891a9864,,,,,,,,,,,,,,,,,,,,,,,,,,,,,,,,,,,,,,,,,,,,,,,,,,,,,,,,,,,,,,,,,,,,,,,,,,,,,,,,,,,,,,,,,,,,"[""comma""]",0,[0.3170000000000073],39,0,39,0,1,,
,,,,,,,,,,,,6114c64e70ce0ea9140a2296,19,Mężczyzna,2022-06-25_15h53.19.955,task,2021.1.4,Win32,119.3602292,6299f149e92ead563fba08ef,62b70e429057beaa891a9864,,,,,,,,,,,,,,,,,,,,,,,,,,,,,,,,,,,,,,,,,,,,,,,,,,,,,,,,,,,,,,,,,,,,,,,,,,,,,,,,,,,,,,,,,,,,"[""period""]",0,[0.24159999999392312],40,0,40,0,1,,
,,,,,,,,,,,,6114c64e70ce0ea9140a2296,19,Mężczyzna,2022-06-25_15h53.19.955,task,2021.1.4,Win32,119.3602292,6299f149e92ead563fba08ef,62b70e429057beaa891a9864,,,,,,,,,,,,,,,,,,,,,,,,,,,,,,,,,,,,,,,,,,,,,,,,,,,,,,,,,,,,,,,,,,,,,,,,,,,,,,,,,,,,,,,,,,,,"[""comma""]",0,[0.2437999999820022],41,0,41,0,1,,
,,,,,,,,,,,,6114c64e70ce0ea9140a2296,19,Mężczyzna,2022-06-25_15h53.19.955,task,2021.1.4,Win32,119.3602292,6299f149e92ead563fba08ef,62b70e429057beaa891a9864,,,,,,,,,,,,,,,,,,,,,,,,,,,,,,,,,,,,,,,,,,,,,,,,,,,,,,,,,,,,,,,,,,,,,,,,,,,,,,,,,,,,,,,,,,,,"[""period""]",0,[0.21970000001783774],42,0,42,0,1,,
,,,,,,,,,,,,6114c64e70ce0ea9140a2296,19,Mężczyzna,2022-06-25_15h53.19.955,task,2021.1.4,Win32,119.3602292,6299f149e92ead563fba08ef,62b70e429057beaa891a9864,,,,,,,,,,,,,,,,,,,,,,,,,,,,,,,,,,,,,,,,,,,,,,,,,,,,,,,,,,,,,,,,,,,,,,,,,,,,,,,,,,,,,,,,,,,,"[""period""]",0,[0.28359999999383945],43,0,43,0,1,,
,,,,,,,,,,,,6114c64e70ce0ea9140a2296,19,Mężczyzna,2022-06-25_15h53.19.955,task,2021.1.4,Win32,119.3602292,6299f149e92ead563fba08ef,62b70e429057beaa891a9864,,,,,,,,,,,,,,,,,,,,,,,,,,,,,,,,,,,,,,,,,,,,,,,,,,,,,,,,,,,,,,,,,,,,,,,,,,,,,,,,,,,,,,,,,,,,"[""period""]",0,[0.27039999997623454],44,0,44,0,1,,
,,,,,,,,,,,,6114c64e70ce0ea9140a2296,19,Mężczyzna,2022-06-25_15h53.19.955,task,2021.1.4,Win32,119.3602292,6299f149e92ead563fba08ef,62b70e429057beaa891a9864,,,,,,,,,,,,,,,,,,,,,,,,,,,,,,,,,,,,,,,,,,,,,,,,,,,,,,,,,,,,,,,,,,,,,,,,,,,,,,,,,,,,,,,,,,,,"[""period""]",0,[0.1263999999760017],45,0,45,0,1,,
,,,,,,,,,,,,6114c64e70ce0ea9140a2296,19,Mężczyzna,2022-06-25_15h53.19.955,task,2021.1.4,Win32,119.3602292,6299f149e92ead563fba08ef,62b70e429057beaa891a9864,,,,,,,,,,,,,,,,,,,,,,,,,,,,,,,,,,,,,,,,,,,,,,,,,,,,,,,,,,,,,,,,,,,,,,,,,,,,,,,,,,,,,,,,,,,,"[""comma""]",0,[0.2515000000003056],46,0,46,0,1,,
,,,,,,,,,,,,6114c64e70ce0ea9140a2296,19,Mężczyzna,2022-06-25_15h53.19.955,task,2021.1.4,Win32,119.3602292,6299f149e92ead563fba08ef,62b70e429057beaa891a9864,,,,,,,,,,,,,,,,,,,,,,,,,,,,,,,,,,,,,,,,,,,,,,,,,,,,,,,,,,,,,,,,,,,,,,,,,,,,,,,,,,,,,,,,,,,,"[""comma""]",0,[0.18370000001777953],47,0,47,0,1,,
,,,,,,,,,,,,6114c64e70ce0ea9140a2296,19,Mężczyzna,2022-06-25_15h53.19.955,task,2021.1.4,Win32,119.3602292,6299f149e92ead563fba08ef,62b70e429057beaa891a9864,,,,,,,,,,,,,,,,,,,,,,,,,,,,,,,,,,,,,,,,,,,,,,,,,,,,,,,,,,,,,,,,,,,,,,,,,,,,,,,,,,,,,,,,,,,,"[""period""]",0,[0.16720000001805602],48,0,48,0,1,,
,,,,,,,,,,,,6114c64e70ce0ea9140a2296,19,Mężczyzna,2022-06-25_15h53.19.955,task,2021.1.4,Win32,119.3602292,6299f149e92ead563fba08ef,62b70e429057beaa891a9864,,,,,,,,,,,,,,,,,,,,,,,,,,,,,,,,,,,,,,,,,,,,,,,,,,,,,,,,,,,,,,,,,,,,,,,,,,,,,,,,,,,,,,,,,,,,"[""comma""]",0,[0.06069999998817366],49,0,49,0,1,,
,,,,,,,,,,,,6114c64e70ce0ea9140a2296,19,Mężczyzna,2022-06-25_15h53.19.955,task,2021.1.4,Win32,119.3602292,6299f149e92ead563fba08ef,62b70e429057beaa891a9864,,,,,,,,,,,,,,,,,,,,,,,,,,,,,,,,,,,,,,,,,,,,,,,,,,,,,,,,,,,,,,,,,,,,,,,,,,,,,,,,,,,,,,,,,,,,"[""period""]",0,[0.23340000000598593],50,0,50,0,1,,
,,,,,,,,,,,,6114c64e70ce0ea9140a2296,19,Mężczyzna,2022-06-25_15h53.19.955,task,2021.1.4,Win32,119.3602292,6299f149e92ead563fba08ef,62b70e429057beaa891a9864,,,,,,,,,,,,,,,,,,,,,,,,,,,,,,,,,,,,,,,,,,,,,,,,,,,,,,,,,,,,,,,,,,,,,,,,,,,,,,,,,,,,,,,,,,,,"[""period"",""period""]",0,"[0.15270000001783046,0.3254000000056294]",51,0,51,0,1,,
,,,,,,,,,,,,6114c64e70ce0ea9140a2296,19,Mężczyzna,2022-06-25_15h53.19.955,task,2021.1.4,Win32,119.3602292,6299f149e92ead563fba08ef,62b70e429057beaa891a9864,,,,,,,,,,,,,,,,,,,,,,,,,,,,,,,,,,,,,,,,,,,,,,,,,,,,,,,,,,,,,,,,,,,,,,,,,,,,,,,,,,,,,,,,,,,,"[""comma""]",0,[0.3042999999820495],52,0,52,0,1,,
,,,,,,,,,,,,6114c64e70ce0ea9140a2296,19,Mężczyzna,2022-06-25_15h53.19.955,task,2021.1.4,Win32,119.3602292,6299f149e92ead563fba08ef,62b70e429057beaa891a9864,,,,,,,,,,,,,,,,,,,,,,,,,,,,,,,,,,,,,,,,,,,,,,,,,,,,,,,,,,,,,,,,,,,,,,,,,,,,,,,,,,,,,,,,,,,,"[""comma""]",0,[0.5086000000237618],53,0,53,0,1,,
,,,,,,,,,,,,6114c64e70ce0ea9140a2296,19,Mężczyzna,2022-06-25_15h53.19.955,task,2021.1.4,Win32,119.3602292,6299f149e92ead563fba08ef,62b70e429057beaa891a9864,,,,,,,,,,,,,,,,,,,,,,,,,,,,,,,,,,,,,,,,,,,,,,,,,,,,,,,,,,,,,,,,,,,,,,,,,,,,,,,,,,,,,,,,,,,,"[""period""]",0,[0.2418000000120628],54,0,54,0,1,,
,,,,,,,,,,,,6114c64e70ce0ea9140a2296,19,Mężczyzna,2022-06-25_15h53.19.955,task,2021.1.4,Win32,119.3602292,6299f149e92ead563fba08ef,62b70e429057beaa891a9864,,,,,,,,,,,,,,,,,,,,,,,,,,,,,,,,,,,,,,,,,,,,,,,,,,,,,,,,,,,,,,,,,,,,,,,,,,,,,,,,,,,,,,,,,,,,"[""comma""]",0,[0.29990000000589134],55,0,55,0,1,,
,,,,,,,,,,,,6114c64e70ce0ea9140a2296,19,Mężczyzna,2022-06-25_15h53.19.955,task,2021.1.4,Win32,119.3602292,6299f149e92ead563fba08ef,62b70e429057beaa891a9864,,,,,,,,,,,,,,,,,,,,,,,,,,,,,,,,,,,,,,,,,,,,,,,,,,,,,,,,,,,,,,,,,,,,,,,,,,,,,,,,,,,,,,,,,,,,"[""period"",""comma""]",0,"[0.17760000002363086,1.9836000000236709]",56,0,56,0,1,,
,,,,,,,,,,,,6114c64e70ce0ea9140a2296,19,Mężczyzna,2022-06-25_15h53.19.955,task,2021.1.4,Win32,119.3602292,6299f149e92ead563fba08ef,62b70e429057beaa891a9864,,,,,,,,,,,,,,,,,,,,,,,,,,,,,,,,,,,,,,,,,,,,,,,,,,,,,,,,,,,,,,,,,,,,,,,,,,,,,,,,,,,,,,,,,,,,,0,,57,0,57,0,1,,
,,,,,,,,,,,,6114c64e70ce0ea9140a2296,19,Mężczyzna,2022-06-25_15h53.19.955,task,2021.1.4,Win32,119.3602292,6299f149e92ead563fba08ef,62b70e429057beaa891a9864,,,,,,,,,,,,,,,,,,,,,,,,,,,,,,,,,,,,,,,,,,,,,,,,,,,,,,,,,,,,,,,,,,,,,,,,,,,,,,,,,,,,,,,,,,,,"[""period""]",0,[0.23369999998840285],58,0,58,0,1,,
,,,,,,,,,,,,6114c64e70ce0ea9140a2296,19,Mężczyzna,2022-06-25_15h53.19.955,task,2021.1.4,Win32,119.3602292,6299f149e92ead563fba08ef,62b70e429057beaa891a9864,,,,,,,,,,,,,,,,,,,,,,,,,,,,,,,,,,,,,,,,,,,,,,,,,,,,,,,,,,,,,,,,,,,,,,,,,,,,,,,,,,,,,,,,,,,,"[""comma""]",0,[0.25890000000617874],59,0,59,0,1,,
,,,,,,,,,,,,6114c64e70ce0ea9140a2296,19,Mężczyzna,2022-06-25_15h53.19.955,task,2021.1.4,Win32,119.3602292,6299f149e92ead563fba08ef,62b70e429057beaa891a9864,,,,,,,,,,,,,,,,,,,,,,,,,,,,,,,,,,,,,,,,,,,,,,,,,,,,,,,,,,,,,,,,,,,,,,,,,,,,,,,,,,,,,,,,,,,,"[""period""]",0,[0.23479999998198764],60,0,60,0,1,,
,,,,,,,,,,,,6114c64e70ce0ea9140a2296,19,Mężczyzna,2022-06-25_15h53.19.955,task,2021.1.4,Win32,119.3602292,6299f149e92ead563fba08ef,62b70e429057beaa891a9864,,,,,,,,,,,,,,,,,,,,,,,,,,,,,,,,,,,,,,,,,,,,,,,,,,,,,,,,,,,,,,,,,,,,,,,,,,,,,,,,,,,,,,,,,,,,"[""comma""]",0,[0.28599999999960346],61,0,61,0,1,,
,,,,,,,,,,,,6114c64e70ce0ea9140a2296,19,Mężczyzna,2022-06-25_15h53.19.955,task,2021.1.4,Win32,119.3602292,6299f149e92ead563fba08ef,62b70e429057beaa891a9864,,,,,,,,,,,,,,,,,,,,,,,,,,,,,,,,,,,,,,,,,,,,,,,,,,,,,,,,,,,,,,,,,,,,,,,,,,,,,,,,,,,,,,,,,,,,"[""period""]",0,[0.7182000000175321],62,0,62,0,1,,
,,,,,,,,,,,,6114c64e70ce0ea9140a2296,19,Mężczyzna,2022-06-25_15h53.19.955,task,2021.1.4,Win32,119.3602292,6299f149e92ead563fba08ef,62b70e429057beaa891a9864,,,,,,,,,,,,,,,,,,,,,,,,,,,,,,,,,,,,,,,,,,,,,,,,,,,,,,,,,,,,,,,,,,,,,,,,,,,,,,,,,,,,,,,,,,,,"[""period""]",0,[0.22199999999975262],63,0,63,0,1,,
,,,,,,,,,,,,6114c64e70ce0ea9140a2296,19,Mężczyzna,2022-06-25_15h53.19.955,task,2021.1.4,Win32,119.3602292,6299f149e92ead563fba08ef,62b70e429057beaa891a9864,,,,,,,,,,,,,,,,,,,,,,,,,,,,,,,,,,,,,,,,,,,,,,,,,,,,,,,,,,,,,,,,,,,,,,,,,,,,,,,,,,,,,,,,,,,,"[""comma""]",0,[0.37530000001152075],64,0,64,0,1,,
,,,,,,,,,,,,6114c64e70ce0ea9140a2296,19,Mężczyzna,2022-06-25_15h53.19.955,task,2021.1.4,Win32,119.3602292,6299f149e92ead563fba08ef,62b70e429057beaa891a9864,,,,,,,,,,,,,,,,,,,,,,,,,,,,,,,,,,,,,,,,,,,,,,,,,,,,,,,,,,,,,,,,,,,,,,,,,,,,,,,,,,,,,,,,,,,,"[""comma"",""comma""]",0,"[0.20890000000599684,1.9664000000061606]",65,0,65,0,1,,
,,,,,,,,,,,,6114c64e70ce0ea9140a2296,19,Mężczyzna,2022-06-25_15h53.19.955,task,2021.1.4,Win32,119.3602292,6299f149e92ead563fba08ef,62b70e429057beaa891a9864,,,,,,,,,,,,,,,,,,,,,,,,,,,,,,,,,,,,,,,,,,,,,,,,,,,,,,,,,,,,,,,,,,,,,,,,,,,,,,,,,,,,,,,,,,,,"[""comma""]",0,[1.700700000017605],66,0,66,0,1,,
