key_resp_15.keys,key_resp_15.rt,key_resp_16.keys,key_resp_16.rt,key_resp_4.keys,key_resp_4.rt,next_letter.thisRepN,next_letter.thisTrialN,next_letter.thisN,next_letter.thisIndex,next_letter.ran,letter,participant,Wiek*,Płeć,date,expName,psychopyVersion,OS,frameRate,study_id,session,simple_recall,key_resp_5.keys,key_resp_5.rt,simple_recall_corr,simple_recall_corrkeys,next_level.thisRepN,next_level.thisTrialN,next_level.thisN,next_level.thisIndex,next_level.ran,key_resp_2.keys,key_resp_2.rt,digit_answer,key_resp.keys,key_resp.corr,key_resp.rt,RT_list,next_equation.thisRepN,next_equation.thisTrialN,next_equation.thisN,next_equation.thisIndex,next_equation.ran,Task,Trial,Problem,Operation_answer,processing_score,sumRT,meanRT,sumdiff,sd,RT,key_resp_3.keys,key_resp_3.rt,repeat_practice.thisRepN,repeat_practice.thisTrialN,repeat_practice.thisN,repeat_practice.thisIndex,repeat_practice.ran,key_resp_6.keys,key_resp_6.rt,key_resp_11.keys,key_resp_11.corr,key_resp_11.rt,operation_correct,repeat_if_wrong_prac.thisRepN,repeat_if_wrong_prac.thisTrialN,repeat_if_wrong_prac.thisN,repeat_if_wrong_prac.thisIndex,repeat_if_wrong_prac.ran,span_size_prac.thisRepN,span_size_prac.thisTrialN,span_size_prac.thisN,span_size_prac.thisIndex,span_size_prac.ran,complex_recall_practice,key_resp_9.keys,key_resp_9.corr,key_resp_9.rt,complex_prac_corr,span_recall_prac.thisRepN,span_recall_prac.thisTrialN,span_recall_prac.thisN,span_recall_prac.thisIndex,span_recall_prac.ran,key_resp_10.keys,key_resp_10.rt,key_resp_7.keys,key_resp_7.corr,key_resp_7.rt,repeat_if_wrong.thisRepN,repeat_if_wrong.thisTrialN,repeat_if_wrong.thisN,repeat_if_wrong.thisIndex,repeat_if_wrong.ran,span_size.thisRepN,span_size.thisTrialN,span_size.thisN,span_size.thisIndex,span_size.ran,complex_recall,key_resp_8.keys,key_resp_8.corr,key_resp_8.rt,complex_recall_corr,complex_recall_corrkeys,span_recall.thisRepN,span_recall.thisTrialN,span_recall.thisN,span_recall.thisIndex,span_recall.ran,key_resp_13.keys,key_resp_13.corr,key_resp_13.rt,random_loop.thisRepN,random_loop.thisTrialN,random_loop.thisN,random_loop.thisIndex,random_loop.ran,key_resp_12.keys,key_resp_12.rt
space,9.6864,space,12.4062,space,22.0772,0,0,0,0,1,X V Q F H G B L J M P D K C T S W R N Z,611a9f9591ef82d19cfc5db1,19,Kobieta,2022-06-11_09h30.45.777,task,2021.1.4,Win32,59.31198102,6299f149e92ead563fba08ef,62a4447377be0631d1596750,,,,,,,,,,,,,,,,,,,,,,,,,,,,,,,,,,,,,,,,,,,,,,,,,,,,,,,,,,,,,,,,,,,,,,,,,,,,,,,,,,,,,,,,,,,,,,,,,,,,,
,,,,,,1,0,1,0,1,X V Q F H G B L J M P D K C T S W R N Z,611a9f9591ef82d19cfc5db1,19,Kobieta,2022-06-11_09h30.45.777,task,2021.1.4,Win32,59.31198102,6299f149e92ead563fba08ef,62a4447377be0631d1596750,,,,,,,,,,,,,,,,,,,,,,,,,,,,,,,,,,,,,,,,,,,,,,,,,,,,,,,,,,,,,,,,,,,,,,,,,,,,,,,,,,,,,,,,,,,,,,,,,,,,,
,,,,,,,,,,,,611a9f9591ef82d19cfc5db1,19,Kobieta,2022-06-11_09h30.45.777,task,2021.1.4,Win32,59.31198102,6299f149e92ead563fba08ef,62a4447377be0631d1596750,zl,"[""z"",""l""]","[1.6683999999985062,2.084099999997761,3.8138999999985046]",1,ZL,0,0,0,0,1,,,,,,,,,,,,,,,,,,,,,,,,,,,,,,,,,,,,,,,,,,,,,,,,,,,,,,,,,,,,,,,,,,,,,,,,,,,,,,,,,,,,,,,,,,,
,,,,,,0,0,0,0,1,X V Q F H G B L J M P D K C T S W R N Z,611a9f9591ef82d19cfc5db1,19,Kobieta,2022-06-11_09h30.45.777,task,2021.1.4,Win32,59.31198102,6299f149e92ead563fba08ef,62a4447377be0631d1596750,,,,,,,,,,,,,,,,,,,,,,,,,,,,,,,,,,,,,,,,,,,,,,,,,,,,,,,,,,,,,,,,,,,,,,,,,,,,,,,,,,,,,,,,,,,,,,,,,,,,,
,,,,,,1,0,1,0,1,X V Q F H G B L J M P D K C T S W R N Z,611a9f9591ef82d19cfc5db1,19,Kobieta,2022-06-11_09h30.45.777,task,2021.1.4,Win32,59.31198102,6299f149e92ead563fba08ef,62a4447377be0631d1596750,,,,,,,,,,,,,,,,,,,,,,,,,,,,,,,,,,,,,,,,,,,,,,,,,,,,,,,,,,,,,,,,,,,,,,,,,,,,,,,,,,,,,,,,,,,,,,,,,,,,,
,,,,,,,,,,,,611a9f9591ef82d19cfc5db1,19,Kobieta,2022-06-11_09h30.45.777,task,2021.1.4,Win32,59.31198102,6299f149e92ead563fba08ef,62a4447377be0631d1596750,kt,"[""k"",""t""]","[1.0649999999999977,1.3922000000029726,1.7527000000029815]",1,KT,1,0,1,0,1,,,,,,,,,,,,,,,,,,,,,,,,,,,,,,,,,,,,,,,,,,,,,,,,,,,,,,,,,,,,,,,,,,,,,,,,,,,,,,,,,,,,,,,,,,,
,,,,,,0,0,0,0,1,X V Q F H G B L J M P D K C T S W R N Z,611a9f9591ef82d19cfc5db1,19,Kobieta,2022-06-11_09h30.45.777,task,2021.1.4,Win32,59.31198102,6299f149e92ead563fba08ef,62a4447377be0631d1596750,,,,,,,,,,,,,,,,,,,,,,,,,,,,,,,,,,,,,,,,,,,,,,,,,,,,,,,,,,,,,,,,,,,,,,,,,,,,,,,,,,,,,,,,,,,,,,,,,,,,,
,,,,,,1,0,1,0,1,X V Q F H G B L J M P D K C T S W R N Z,611a9f9591ef82d19cfc5db1,19,Kobieta,2022-06-11_09h30.45.777,task,2021.1.4,Win32,59.31198102,6299f149e92ead563fba08ef,62a4447377be0631d1596750,,,,,,,,,,,,,,,,,,,,,,,,,,,,,,,,,,,,,,,,,,,,,,,,,,,,,,,,,,,,,,,,,,,,,,,,,,,,,,,,,,,,,,,,,,,,,,,,,,,,,
,,,,,,2,0,2,0,1,X V Q F H G B L J M P D K C T S W R N Z,611a9f9591ef82d19cfc5db1,19,Kobieta,2022-06-11_09h30.45.777,task,2021.1.4,Win32,59.31198102,6299f149e92ead563fba08ef,62a4447377be0631d1596750,,,,,,,,,,,,,,,,,,,,,,,,,,,,,,,,,,,,,,,,,,,,,,,,,,,,,,,,,,,,,,,,,,,,,,,,,,,,,,,,,,,,,,,,,,,,,,,,,,,,,
,,,,,,,,,,,,611a9f9591ef82d19cfc5db1,19,Kobieta,2022-06-11_09h30.45.777,task,2021.1.4,Win32,59.31198102,6299f149e92ead563fba08ef,62a4447377be0631d1596750,cjw,"[""c"",""j"",""w""]","[1.46429999999701,1.8405999999977638,2.1916999999992584,2.5788999999985123]",1,CJW,2,0,2,0,1,,,,,,,,,,,,,,,,,,,,,,,,,,,,,,,,,,,,,,,,,,,,,,,,,,,,,,,,,,,,,,,,,,,,,,,,,,,,,,,,,,,,,,,,,,,
,,,,,,0,0,0,0,1,X V Q F H G B L J M P D K C T S W R N Z,611a9f9591ef82d19cfc5db1,19,Kobieta,2022-06-11_09h30.45.777,task,2021.1.4,Win32,59.31198102,6299f149e92ead563fba08ef,62a4447377be0631d1596750,,,,,,,,,,,,,,,,,,,,,,,,,,,,,,,,,,,,,,,,,,,,,,,,,,,,,,,,,,,,,,,,,,,,,,,,,,,,,,,,,,,,,,,,,,,,,,,,,,,,,
,,,,,,1,0,1,0,1,X V Q F H G B L J M P D K C T S W R N Z,611a9f9591ef82d19cfc5db1,19,Kobieta,2022-06-11_09h30.45.777,task,2021.1.4,Win32,59.31198102,6299f149e92ead563fba08ef,62a4447377be0631d1596750,,,,,,,,,,,,,,,,,,,,,,,,,,,,,,,,,,,,,,,,,,,,,,,,,,,,,,,,,,,,,,,,,,,,,,,,,,,,,,,,,,,,,,,,,,,,,,,,,,,,,
,,,,,,2,0,2,0,1,X V Q F H G B L J M P D K C T S W R N Z,611a9f9591ef82d19cfc5db1,19,Kobieta,2022-06-11_09h30.45.777,task,2021.1.4,Win32,59.31198102,6299f149e92ead563fba08ef,62a4447377be0631d1596750,,,,,,,,,,,,,,,,,,,,,,,,,,,,,,,,,,,,,,,,,,,,,,,,,,,,,,,,,,,,,,,,,,,,,,,,,,,,,,,,,,,,,,,,,,,,,,,,,,,,,
,,,,,,,,,,,,611a9f9591ef82d19cfc5db1,19,Kobieta,2022-06-11_09h30.45.777,task,2021.1.4,Win32,59.31198102,6299f149e92ead563fba08ef,62a4447377be0631d1596750,knm,"[""k"",""n"",""m""]","[1.2540000000000049,1.6814000000022418,1.9554000000022427,2.3059999999999974]",1,KNM,3,0,3,0,1,,,,,,,,,,,,,,,,,,,,,,,,,,,,,,,,,,,,,,,,,,,,,,,,,,,,,,,,,,,,,,,,,,,,,,,,,,,,,,,,,,,,,,,,,,,
,,,,,,0,0,0,0,1,X V Q F H G B L J M P D K C T S W R N Z,611a9f9591ef82d19cfc5db1,19,Kobieta,2022-06-11_09h30.45.777,task,2021.1.4,Win32,59.31198102,6299f149e92ead563fba08ef,62a4447377be0631d1596750,,,,,,,,,,,,,,,,,,,,,,,,,,,,,,,,,,,,,,,,,,,,,,,,,,,,,,,,,,,,,,,,,,,,,,,,,,,,,,,,,,,,,,,,,,,,,,,,,,,,,
,,,,,,1,0,1,0,1,X V Q F H G B L J M P D K C T S W R N Z,611a9f9591ef82d19cfc5db1,19,Kobieta,2022-06-11_09h30.45.777,task,2021.1.4,Win32,59.31198102,6299f149e92ead563fba08ef,62a4447377be0631d1596750,,,,,,,,,,,,,,,,,,,,,,,,,,,,,,,,,,,,,,,,,,,,,,,,,,,,,,,,,,,,,,,,,,,,,,,,,,,,,,,,,,,,,,,,,,,,,,,,,,,,,
,,,,,,2,0,2,0,1,X V Q F H G B L J M P D K C T S W R N Z,611a9f9591ef82d19cfc5db1,19,Kobieta,2022-06-11_09h30.45.777,task,2021.1.4,Win32,59.31198102,6299f149e92ead563fba08ef,62a4447377be0631d1596750,,,,,,,,,,,,,,,,,,,,,,,,,,,,,,,,,,,,,,,,,,,,,,,,,,,,,,,,,,,,,,,,,,,,,,,,,,,,,,,,,,,,,,,,,,,,,,,,,,,,,
,,,,,,3,0,3,0,1,X V Q F H G B L J M P D K C T S W R N Z,611a9f9591ef82d19cfc5db1,19,Kobieta,2022-06-11_09h30.45.777,task,2021.1.4,Win32,59.31198102,6299f149e92ead563fba08ef,62a4447377be0631d1596750,,,,,,,,,,,,,,,,,,,,,,,,,,,,,,,,,,,,,,,,,,,,,,,,,,,,,,,,,,,,,,,,,,,,,,,,,,,,,,,,,,,,,,,,,,,,,,,,,,,,,
,,,,,,,,,,,,611a9f9591ef82d19cfc5db1,19,Kobieta,2022-06-11_09h30.45.777,task,2021.1.4,Win32,59.31198102,6299f149e92ead563fba08ef,62a4447377be0631d1596750,gzzq,"[""g"",""z"",""z"",""q""]","[5.428699999999253,5.981199999999262,6.166499999999999,6.491400000002244,6.725999999999999]",1,GZZQ,4,0,4,0,1,,,,,,,,,,,,,,,,,,,,,,,,,,,,,,,,,,,,,,,,,,,,,,,,,,,,,,,,,,,,,,,,,,,,,,,,,,,,,,,,,,,,,,,,,,,
,,,,,,0,0,0,0,1,X V Q F H G B L J M P D K C T S W R N Z,611a9f9591ef82d19cfc5db1,19,Kobieta,2022-06-11_09h30.45.777,task,2021.1.4,Win32,59.31198102,6299f149e92ead563fba08ef,62a4447377be0631d1596750,,,,,,,,,,,,,,,,,,,,,,,,,,,,,,,,,,,,,,,,,,,,,,,,,,,,,,,,,,,,,,,,,,,,,,,,,,,,,,,,,,,,,,,,,,,,,,,,,,,,,
,,,,,,1,0,1,0,1,X V Q F H G B L J M P D K C T S W R N Z,611a9f9591ef82d19cfc5db1,19,Kobieta,2022-06-11_09h30.45.777,task,2021.1.4,Win32,59.31198102,6299f149e92ead563fba08ef,62a4447377be0631d1596750,,,,,,,,,,,,,,,,,,,,,,,,,,,,,,,,,,,,,,,,,,,,,,,,,,,,,,,,,,,,,,,,,,,,,,,,,,,,,,,,,,,,,,,,,,,,,,,,,,,,,
,,,,,,2,0,2,0,1,X V Q F H G B L J M P D K C T S W R N Z,611a9f9591ef82d19cfc5db1,19,Kobieta,2022-06-11_09h30.45.777,task,2021.1.4,Win32,59.31198102,6299f149e92ead563fba08ef,62a4447377be0631d1596750,,,,,,,,,,,,,,,,,,,,,,,,,,,,,,,,,,,,,,,,,,,,,,,,,,,,,,,,,,,,,,,,,,,,,,,,,,,,,,,,,,,,,,,,,,,,,,,,,,,,,
,,,,,,3,0,3,0,1,X V Q F H G B L J M P D K C T S W R N Z,611a9f9591ef82d19cfc5db1,19,Kobieta,2022-06-11_09h30.45.777,task,2021.1.4,Win32,59.31198102,6299f149e92ead563fba08ef,62a4447377be0631d1596750,,,,,,,,,,,,,,,,,,,,,,,,,,,,,,,,,,,,,,,,,,,,,,,,,,,,,,,,,,,,,,,,,,,,,,,,,,,,,,,,,,,,,,,,,,,,,,,,,,,,,
,,,,,,,,,,,,611a9f9591ef82d19cfc5db1,19,Kobieta,2022-06-11_09h30.45.777,task,2021.1.4,Win32,59.31198102,6299f149e92ead563fba08ef,62a4447377be0631d1596750,phgb,"[""p"",""h"",""g"",""b""]","[1.153499999999994,1.838099999997766,2.7032999999970144,3.036799999997015,3.6632999999970224]",1,PHGB,5,0,5,0,1,,,,,,,,,,,,,,,,,,,,,,,,,,,,,,,,,,,,,,,,,,,,,,,,,,,,,,,,,,,,,,,,,,,,,,,,,,,,,,,,,,,,,,,,,,,
,,,,,,0,0,0,0,1,X V Q F H G B L J M P D K C T S W R N Z,611a9f9591ef82d19cfc5db1,19,Kobieta,2022-06-11_09h30.45.777,task,2021.1.4,Win32,59.31198102,6299f149e92ead563fba08ef,62a4447377be0631d1596750,,,,,,,,,,,,,,,,,,,,,,,,,,,,,,,,,,,,,,,,,,,,,,,,,,,,,,,,,,,,,,,,,,,,,,,,,,,,,,,,,,,,,,,,,,,,,,,,,,,,,
,,,,,,1,0,1,0,1,X V Q F H G B L J M P D K C T S W R N Z,611a9f9591ef82d19cfc5db1,19,Kobieta,2022-06-11_09h30.45.777,task,2021.1.4,Win32,59.31198102,6299f149e92ead563fba08ef,62a4447377be0631d1596750,,,,,,,,,,,,,,,,,,,,,,,,,,,,,,,,,,,,,,,,,,,,,,,,,,,,,,,,,,,,,,,,,,,,,,,,,,,,,,,,,,,,,,,,,,,,,,,,,,,,,
,,,,,,2,0,2,0,1,X V Q F H G B L J M P D K C T S W R N Z,611a9f9591ef82d19cfc5db1,19,Kobieta,2022-06-11_09h30.45.777,task,2021.1.4,Win32,59.31198102,6299f149e92ead563fba08ef,62a4447377be0631d1596750,,,,,,,,,,,,,,,,,,,,,,,,,,,,,,,,,,,,,,,,,,,,,,,,,,,,,,,,,,,,,,,,,,,,,,,,,,,,,,,,,,,,,,,,,,,,,,,,,,,,,
,,,,,,3,0,3,0,1,X V Q F H G B L J M P D K C T S W R N Z,611a9f9591ef82d19cfc5db1,19,Kobieta,2022-06-11_09h30.45.777,task,2021.1.4,Win32,59.31198102,6299f149e92ead563fba08ef,62a4447377be0631d1596750,,,,,,,,,,,,,,,,,,,,,,,,,,,,,,,,,,,,,,,,,,,,,,,,,,,,,,,,,,,,,,,,,,,,,,,,,,,,,,,,,,,,,,,,,,,,,,,,,,,,,
,,,,,,4,0,4,0,1,X V Q F H G B L J M P D K C T S W R N Z,611a9f9591ef82d19cfc5db1,19,Kobieta,2022-06-11_09h30.45.777,task,2021.1.4,Win32,59.31198102,6299f149e92ead563fba08ef,62a4447377be0631d1596750,,,,,,,,,,,,,,,,,,,,,,,,,,,,,,,,,,,,,,,,,,,,,,,,,,,,,,,,,,,,,,,,,,,,,,,,,,,,,,,,,,,,,,,,,,,,,,,,,,,,,
,,,,,,,,,,,,611a9f9591ef82d19cfc5db1,19,Kobieta,2022-06-11_09h30.45.777,task,2021.1.4,Win32,59.31198102,6299f149e92ead563fba08ef,62a4447377be0631d1596750,wdztt,"[""w"",""d"",""z"",""t"",""t""]","[1.7523999999985023,2.42909999999776,2.933099999997765,3.4950999999977626,3.682699999999258,4.114999999999995]",1,WDZTT,6,0,6,0,1,,,,,,,,,,,,,,,,,,,,,,,,,,,,,,,,,,,,,,,,,,,,,,,,,,,,,,,,,,,,,,,,,,,,,,,,,,,,,,,,,,,,,,,,,,,
,,,,,,0,0,0,0,1,X V Q F H G B L J M P D K C T S W R N Z,611a9f9591ef82d19cfc5db1,19,Kobieta,2022-06-11_09h30.45.777,task,2021.1.4,Win32,59.31198102,6299f149e92ead563fba08ef,62a4447377be0631d1596750,,,,,,,,,,,,,,,,,,,,,,,,,,,,,,,,,,,,,,,,,,,,,,,,,,,,,,,,,,,,,,,,,,,,,,,,,,,,,,,,,,,,,,,,,,,,,,,,,,,,,
,,,,,,1,0,1,0,1,X V Q F H G B L J M P D K C T S W R N Z,611a9f9591ef82d19cfc5db1,19,Kobieta,2022-06-11_09h30.45.777,task,2021.1.4,Win32,59.31198102,6299f149e92ead563fba08ef,62a4447377be0631d1596750,,,,,,,,,,,,,,,,,,,,,,,,,,,,,,,,,,,,,,,,,,,,,,,,,,,,,,,,,,,,,,,,,,,,,,,,,,,,,,,,,,,,,,,,,,,,,,,,,,,,,
,,,,,,2,0,2,0,1,X V Q F H G B L J M P D K C T S W R N Z,611a9f9591ef82d19cfc5db1,19,Kobieta,2022-06-11_09h30.45.777,task,2021.1.4,Win32,59.31198102,6299f149e92ead563fba08ef,62a4447377be0631d1596750,,,,,,,,,,,,,,,,,,,,,,,,,,,,,,,,,,,,,,,,,,,,,,,,,,,,,,,,,,,,,,,,,,,,,,,,,,,,,,,,,,,,,,,,,,,,,,,,,,,,,
,,,,,,3,0,3,0,1,X V Q F H G B L J M P D K C T S W R N Z,611a9f9591ef82d19cfc5db1,19,Kobieta,2022-06-11_09h30.45.777,task,2021.1.4,Win32,59.31198102,6299f149e92ead563fba08ef,62a4447377be0631d1596750,,,,,,,,,,,,,,,,,,,,,,,,,,,,,,,,,,,,,,,,,,,,,,,,,,,,,,,,,,,,,,,,,,,,,,,,,,,,,,,,,,,,,,,,,,,,,,,,,,,,,
,,,,,,4,0,4,0,1,X V Q F H G B L J M P D K C T S W R N Z,611a9f9591ef82d19cfc5db1,19,Kobieta,2022-06-11_09h30.45.777,task,2021.1.4,Win32,59.31198102,6299f149e92ead563fba08ef,62a4447377be0631d1596750,,,,,,,,,,,,,,,,,,,,,,,,,,,,,,,,,,,,,,,,,,,,,,,,,,,,,,,,,,,,,,,,,,,,,,,,,,,,,,,,,,,,,,,,,,,,,,,,,,,,,
,,,,,,,,,,,,611a9f9591ef82d19cfc5db1,19,Kobieta,2022-06-11_09h30.45.777,task,2021.1.4,Win32,59.31198102,6299f149e92ead563fba08ef,62a4447377be0631d1596750,qmzrg,"[""q"",""m"",""z"",""r"",""g""]","[1.3301999999992518,1.78030000000075,2.329199999999261,2.8948000000007426,3.5305000000000035,4.047300000000746]",1,QMZRG,7,0,7,0,1,,,,,,,,,,,,,,,,,,,,,,,,,,,,,,,,,,,,,,,,,,,,,,,,,,,,,,,,,,,,,,,,,,,,,,,,,,,,,,,,,,,,,,,,,,,
,,,,,,0,0,0,0,1,X V Q F H G B L J M P D K C T S W R N Z,611a9f9591ef82d19cfc5db1,19,Kobieta,2022-06-11_09h30.45.777,task,2021.1.4,Win32,59.31198102,6299f149e92ead563fba08ef,62a4447377be0631d1596750,,,,,,,,,,,,,,,,,,,,,,,,,,,,,,,,,,,,,,,,,,,,,,,,,,,,,,,,,,,,,,,,,,,,,,,,,,,,,,,,,,,,,,,,,,,,,,,,,,,,,
,,,,,,1,0,1,0,1,X V Q F H G B L J M P D K C T S W R N Z,611a9f9591ef82d19cfc5db1,19,Kobieta,2022-06-11_09h30.45.777,task,2021.1.4,Win32,59.31198102,6299f149e92ead563fba08ef,62a4447377be0631d1596750,,,,,,,,,,,,,,,,,,,,,,,,,,,,,,,,,,,,,,,,,,,,,,,,,,,,,,,,,,,,,,,,,,,,,,,,,,,,,,,,,,,,,,,,,,,,,,,,,,,,,
,,,,,,2,0,2,0,1,X V Q F H G B L J M P D K C T S W R N Z,611a9f9591ef82d19cfc5db1,19,Kobieta,2022-06-11_09h30.45.777,task,2021.1.4,Win32,59.31198102,6299f149e92ead563fba08ef,62a4447377be0631d1596750,,,,,,,,,,,,,,,,,,,,,,,,,,,,,,,,,,,,,,,,,,,,,,,,,,,,,,,,,,,,,,,,,,,,,,,,,,,,,,,,,,,,,,,,,,,,,,,,,,,,,
,,,,,,3,0,3,0,1,X V Q F H G B L J M P D K C T S W R N Z,611a9f9591ef82d19cfc5db1,19,Kobieta,2022-06-11_09h30.45.777,task,2021.1.4,Win32,59.31198102,6299f149e92ead563fba08ef,62a4447377be0631d1596750,,,,,,,,,,,,,,,,,,,,,,,,,,,,,,,,,,,,,,,,,,,,,,,,,,,,,,,,,,,,,,,,,,,,,,,,,,,,,,,,,,,,,,,,,,,,,,,,,,,,,
,,,,,,4,0,4,0,1,X V Q F H G B L J M P D K C T S W R N Z,611a9f9591ef82d19cfc5db1,19,Kobieta,2022-06-11_09h30.45.777,task,2021.1.4,Win32,59.31198102,6299f149e92ead563fba08ef,62a4447377be0631d1596750,,,,,,,,,,,,,,,,,,,,,,,,,,,,,,,,,,,,,,,,,,,,,,,,,,,,,,,,,,,,,,,,,,,,,,,,,,,,,,,,,,,,,,,,,,,,,,,,,,,,,
,,,,,,5,0,5,0,1,X V Q F H G B L J M P D K C T S W R N Z,611a9f9591ef82d19cfc5db1,19,Kobieta,2022-06-11_09h30.45.777,task,2021.1.4,Win32,59.31198102,6299f149e92ead563fba08ef,62a4447377be0631d1596750,,,,,,,,,,,,,,,,,,,,,,,,,,,,,,,,,,,,,,,,,,,,,,,,,,,,,,,,,,,,,,,,,,,,,,,,,,,,,,,,,,,,,,,,,,,,,,,,,,,,,
,,,,,,,,,,,,611a9f9591ef82d19cfc5db1,19,Kobieta,2022-06-11_09h30.45.777,task,2021.1.4,Win32,59.31198102,6299f149e92ead563fba08ef,62a4447377be0631d1596750,wswllq,"[""w"",""s"",""w"",""l"",""l"",""q""]","[1.1673999999985085,1.7898000000007528,6.156800000000743,7.246000000000009,10.343500000000006,10.770999999999987,12.348100000001494]",1,WSWLLQ,8,0,8,0,1,,,,,,,,,,,,,,,,,,,,,,,,,,,,,,,,,,,,,,,,,,,,,,,,,,,,,,,,,,,,,,,,,,,,,,,,,,,,,,,,,,,,,,,,,,,
,,,,,,0,0,0,0,1,X V Q F H G B L J M P D K C T S W R N Z,611a9f9591ef82d19cfc5db1,19,Kobieta,2022-06-11_09h30.45.777,task,2021.1.4,Win32,59.31198102,6299f149e92ead563fba08ef,62a4447377be0631d1596750,,,,,,,,,,,,,,,,,,,,,,,,,,,,,,,,,,,,,,,,,,,,,,,,,,,,,,,,,,,,,,,,,,,,,,,,,,,,,,,,,,,,,,,,,,,,,,,,,,,,,
,,,,,,1,0,1,0,1,X V Q F H G B L J M P D K C T S W R N Z,611a9f9591ef82d19cfc5db1,19,Kobieta,2022-06-11_09h30.45.777,task,2021.1.4,Win32,59.31198102,6299f149e92ead563fba08ef,62a4447377be0631d1596750,,,,,,,,,,,,,,,,,,,,,,,,,,,,,,,,,,,,,,,,,,,,,,,,,,,,,,,,,,,,,,,,,,,,,,,,,,,,,,,,,,,,,,,,,,,,,,,,,,,,,
,,,,,,2,0,2,0,1,X V Q F H G B L J M P D K C T S W R N Z,611a9f9591ef82d19cfc5db1,19,Kobieta,2022-06-11_09h30.45.777,task,2021.1.4,Win32,59.31198102,6299f149e92ead563fba08ef,62a4447377be0631d1596750,,,,,,,,,,,,,,,,,,,,,,,,,,,,,,,,,,,,,,,,,,,,,,,,,,,,,,,,,,,,,,,,,,,,,,,,,,,,,,,,,,,,,,,,,,,,,,,,,,,,,
,,,,,,3,0,3,0,1,X V Q F H G B L J M P D K C T S W R N Z,611a9f9591ef82d19cfc5db1,19,Kobieta,2022-06-11_09h30.45.777,task,2021.1.4,Win32,59.31198102,6299f149e92ead563fba08ef,62a4447377be0631d1596750,,,,,,,,,,,,,,,,,,,,,,,,,,,,,,,,,,,,,,,,,,,,,,,,,,,,,,,,,,,,,,,,,,,,,,,,,,,,,,,,,,,,,,,,,,,,,,,,,,,,,
,,,,,,4,0,4,0,1,X V Q F H G B L J M P D K C T S W R N Z,611a9f9591ef82d19cfc5db1,19,Kobieta,2022-06-11_09h30.45.777,task,2021.1.4,Win32,59.31198102,6299f149e92ead563fba08ef,62a4447377be0631d1596750,,,,,,,,,,,,,,,,,,,,,,,,,,,,,,,,,,,,,,,,,,,,,,,,,,,,,,,,,,,,,,,,,,,,,,,,,,,,,,,,,,,,,,,,,,,,,,,,,,,,,
,,,,,,5,0,5,0,1,X V Q F H G B L J M P D K C T S W R N Z,611a9f9591ef82d19cfc5db1,19,Kobieta,2022-06-11_09h30.45.777,task,2021.1.4,Win32,59.31198102,6299f149e92ead563fba08ef,62a4447377be0631d1596750,,,,,,,,,,,,,,,,,,,,,,,,,,,,,,,,,,,,,,,,,,,,,,,,,,,,,,,,,,,,,,,,,,,,,,,,,,,,,,,,,,,,,,,,,,,,,,,,,,,,,
,,,,,,,,,,,,611a9f9591ef82d19cfc5db1,19,Kobieta,2022-06-11_09h30.45.777,task,2021.1.4,Win32,59.31198102,6299f149e92ead563fba08ef,62a4447377be0631d1596750,fznkgn,"[""f"",""z"",""n"",""k"",""g"",""n""]","[1.7143000000007191,2.2798999999984915,2.8806999999992513,3.367999999999995,4.3128000000007205,4.866399999998492,7.526999999999987]",1,FZNKGN,9,0,9,0,1,,,,,,,,,,,,,,,,,,,,,,,,,,,,,,,,,,,,,,,,,,,,,,,,,,,,,,,,,,,,,,,,,,,,,,,,,,,,,,,,,,,,,,,,,,,
,,,,,,0,0,0,0,1,X V Q F H G B L J M P D K C T S W R N Z,611a9f9591ef82d19cfc5db1,19,Kobieta,2022-06-11_09h30.45.777,task,2021.1.4,Win32,59.31198102,6299f149e92ead563fba08ef,62a4447377be0631d1596750,,,,,,,,,,,,,,,,,,,,,,,,,,,,,,,,,,,,,,,,,,,,,,,,,,,,,,,,,,,,,,,,,,,,,,,,,,,,,,,,,,,,,,,,,,,,,,,,,,,,,
,,,,,,1,0,1,0,1,X V Q F H G B L J M P D K C T S W R N Z,611a9f9591ef82d19cfc5db1,19,Kobieta,2022-06-11_09h30.45.777,task,2021.1.4,Win32,59.31198102,6299f149e92ead563fba08ef,62a4447377be0631d1596750,,,,,,,,,,,,,,,,,,,,,,,,,,,,,,,,,,,,,,,,,,,,,,,,,,,,,,,,,,,,,,,,,,,,,,,,,,,,,,,,,,,,,,,,,,,,,,,,,,,,,
,,,,,,2,0,2,0,1,X V Q F H G B L J M P D K C T S W R N Z,611a9f9591ef82d19cfc5db1,19,Kobieta,2022-06-11_09h30.45.777,task,2021.1.4,Win32,59.31198102,6299f149e92ead563fba08ef,62a4447377be0631d1596750,,,,,,,,,,,,,,,,,,,,,,,,,,,,,,,,,,,,,,,,,,,,,,,,,,,,,,,,,,,,,,,,,,,,,,,,,,,,,,,,,,,,,,,,,,,,,,,,,,,,,
,,,,,,3,0,3,0,1,X V Q F H G B L J M P D K C T S W R N Z,611a9f9591ef82d19cfc5db1,19,Kobieta,2022-06-11_09h30.45.777,task,2021.1.4,Win32,59.31198102,6299f149e92ead563fba08ef,62a4447377be0631d1596750,,,,,,,,,,,,,,,,,,,,,,,,,,,,,,,,,,,,,,,,,,,,,,,,,,,,,,,,,,,,,,,,,,,,,,,,,,,,,,,,,,,,,,,,,,,,,,,,,,,,,
,,,,,,4,0,4,0,1,X V Q F H G B L J M P D K C T S W R N Z,611a9f9591ef82d19cfc5db1,19,Kobieta,2022-06-11_09h30.45.777,task,2021.1.4,Win32,59.31198102,6299f149e92ead563fba08ef,62a4447377be0631d1596750,,,,,,,,,,,,,,,,,,,,,,,,,,,,,,,,,,,,,,,,,,,,,,,,,,,,,,,,,,,,,,,,,,,,,,,,,,,,,,,,,,,,,,,,,,,,,,,,,,,,,
,,,,,,5,0,5,0,1,X V Q F H G B L J M P D K C T S W R N Z,611a9f9591ef82d19cfc5db1,19,Kobieta,2022-06-11_09h30.45.777,task,2021.1.4,Win32,59.31198102,6299f149e92ead563fba08ef,62a4447377be0631d1596750,,,,,,,,,,,,,,,,,,,,,,,,,,,,,,,,,,,,,,,,,,,,,,,,,,,,,,,,,,,,,,,,,,,,,,,,,,,,,,,,,,,,,,,,,,,,,,,,,,,,,
,,,,,,6,0,6,0,1,X V Q F H G B L J M P D K C T S W R N Z,611a9f9591ef82d19cfc5db1,19,Kobieta,2022-06-11_09h30.45.777,task,2021.1.4,Win32,59.31198102,6299f149e92ead563fba08ef,62a4447377be0631d1596750,,,,,,,,,,,,,,,,,,,,,,,,,,,,,,,,,,,,,,,,,,,,,,,,,,,,,,,,,,,,,,,,,,,,,,,,,,,,,,,,,,,,,,,,,,,,,,,,,,,,,
,,,,,,,,,,,,611a9f9591ef82d19cfc5db1,19,Kobieta,2022-06-11_09h30.45.777,task,2021.1.4,Win32,59.31198102,6299f149e92ead563fba08ef,62a4447377be0631d1596750,fkgmpv,"[""f"",""k"",""g"",""m"",""p"",""v""]","[1.201599999997768,1.6350999999977773,8.394899999998529,8.911899999998525,12.326800000000759,12.533399999998522,12.73739999999853]",0,VKFGMPR,10,0,10,0,1,,,,,,,,,,,,,,,,,,,,,,,,,,,,,,,,,,,,,,,,,,,,,,,,,,,,,,,,,,,,,,,,,,,,,,,,,,,,,,,,,,,,,,,,,,,
,,,,,,0,0,0,0,1,X V Q F H G B L J M P D K C T S W R N Z,611a9f9591ef82d19cfc5db1,19,Kobieta,2022-06-11_09h30.45.777,task,2021.1.4,Win32,59.31198102,6299f149e92ead563fba08ef,62a4447377be0631d1596750,,,,,,,,,,,,,,,,,,,,,,,,,,,,,,,,,,,,,,,,,,,,,,,,,,,,,,,,,,,,,,,,,,,,,,,,,,,,,,,,,,,,,,,,,,,,,,,,,,,,,
,,,,,,1,0,1,0,1,X V Q F H G B L J M P D K C T S W R N Z,611a9f9591ef82d19cfc5db1,19,Kobieta,2022-06-11_09h30.45.777,task,2021.1.4,Win32,59.31198102,6299f149e92ead563fba08ef,62a4447377be0631d1596750,,,,,,,,,,,,,,,,,,,,,,,,,,,,,,,,,,,,,,,,,,,,,,,,,,,,,,,,,,,,,,,,,,,,,,,,,,,,,,,,,,,,,,,,,,,,,,,,,,,,,
,,,,,,2,0,2,0,1,X V Q F H G B L J M P D K C T S W R N Z,611a9f9591ef82d19cfc5db1,19,Kobieta,2022-06-11_09h30.45.777,task,2021.1.4,Win32,59.31198102,6299f149e92ead563fba08ef,62a4447377be0631d1596750,,,,,,,,,,,,,,,,,,,,,,,,,,,,,,,,,,,,,,,,,,,,,,,,,,,,,,,,,,,,,,,,,,,,,,,,,,,,,,,,,,,,,,,,,,,,,,,,,,,,,
,,,,,,3,0,3,0,1,X V Q F H G B L J M P D K C T S W R N Z,611a9f9591ef82d19cfc5db1,19,Kobieta,2022-06-11_09h30.45.777,task,2021.1.4,Win32,59.31198102,6299f149e92ead563fba08ef,62a4447377be0631d1596750,,,,,,,,,,,,,,,,,,,,,,,,,,,,,,,,,,,,,,,,,,,,,,,,,,,,,,,,,,,,,,,,,,,,,,,,,,,,,,,,,,,,,,,,,,,,,,,,,,,,,
,,,,,,4,0,4,0,1,X V Q F H G B L J M P D K C T S W R N Z,611a9f9591ef82d19cfc5db1,19,Kobieta,2022-06-11_09h30.45.777,task,2021.1.4,Win32,59.31198102,6299f149e92ead563fba08ef,62a4447377be0631d1596750,,,,,,,,,,,,,,,,,,,,,,,,,,,,,,,,,,,,,,,,,,,,,,,,,,,,,,,,,,,,,,,,,,,,,,,,,,,,,,,,,,,,,,,,,,,,,,,,,,,,,
,,,,,,5,0,5,0,1,X V Q F H G B L J M P D K C T S W R N Z,611a9f9591ef82d19cfc5db1,19,Kobieta,2022-06-11_09h30.45.777,task,2021.1.4,Win32,59.31198102,6299f149e92ead563fba08ef,62a4447377be0631d1596750,,,,,,,,,,,,,,,,,,,,,,,,,,,,,,,,,,,,,,,,,,,,,,,,,,,,,,,,,,,,,,,,,,,,,,,,,,,,,,,,,,,,,,,,,,,,,,,,,,,,,
,,,,,,6,0,6,0,1,X V Q F H G B L J M P D K C T S W R N Z,611a9f9591ef82d19cfc5db1,19,Kobieta,2022-06-11_09h30.45.777,task,2021.1.4,Win32,59.31198102,6299f149e92ead563fba08ef,62a4447377be0631d1596750,,,,,,,,,,,,,,,,,,,,,,,,,,,,,,,,,,,,,,,,,,,,,,,,,,,,,,,,,,,,,,,,,,,,,,,,,,,,,,,,,,,,,,,,,,,,,,,,,,,,,
,,,,,,,,,,,,611a9f9591ef82d19cfc5db1,19,Kobieta,2022-06-11_09h30.45.777,task,2021.1.4,Win32,59.31198102,6299f149e92ead563fba08ef,62a4447377be0631d1596750,npjspqn,"[""n"",""p"",""j"",""s"",""p"",""q"",""n""]","[1.3660000000000139,1.9474000000022613,2.6014000000022577,3.1950000000000216,3.7829000000022575,4.610000000000014,5.096800000000769,5.751300000000754]",1,NPJSPQN,11,0,11,0,1,,,,,,,,,,,,,,,,,,,,,,,,,,,,,,,,,,,,,,,,,,,,,,,,,,,,,,,,,,,,,,,,,,,,,,,,,,,,,,,,,,,,,,,,,,,
,,,,,,0,0,0,0,1,X V Q F H G B L J M P D K C T S W R N Z,611a9f9591ef82d19cfc5db1,19,Kobieta,2022-06-11_09h30.45.777,task,2021.1.4,Win32,59.31198102,6299f149e92ead563fba08ef,62a4447377be0631d1596750,,,,,,,,,,,,,,,,,,,,,,,,,,,,,,,,,,,,,,,,,,,,,,,,,,,,,,,,,,,,,,,,,,,,,,,,,,,,,,,,,,,,,,,,,,,,,,,,,,,,,
,,,,,,1,0,1,0,1,X V Q F H G B L J M P D K C T S W R N Z,611a9f9591ef82d19cfc5db1,19,Kobieta,2022-06-11_09h30.45.777,task,2021.1.4,Win32,59.31198102,6299f149e92ead563fba08ef,62a4447377be0631d1596750,,,,,,,,,,,,,,,,,,,,,,,,,,,,,,,,,,,,,,,,,,,,,,,,,,,,,,,,,,,,,,,,,,,,,,,,,,,,,,,,,,,,,,,,,,,,,,,,,,,,,
,,,,,,2,0,2,0,1,X V Q F H G B L J M P D K C T S W R N Z,611a9f9591ef82d19cfc5db1,19,Kobieta,2022-06-11_09h30.45.777,task,2021.1.4,Win32,59.31198102,6299f149e92ead563fba08ef,62a4447377be0631d1596750,,,,,,,,,,,,,,,,,,,,,,,,,,,,,,,,,,,,,,,,,,,,,,,,,,,,,,,,,,,,,,,,,,,,,,,,,,,,,,,,,,,,,,,,,,,,,,,,,,,,,
,,,,,,3,0,3,0,1,X V Q F H G B L J M P D K C T S W R N Z,611a9f9591ef82d19cfc5db1,19,Kobieta,2022-06-11_09h30.45.777,task,2021.1.4,Win32,59.31198102,6299f149e92ead563fba08ef,62a4447377be0631d1596750,,,,,,,,,,,,,,,,,,,,,,,,,,,,,,,,,,,,,,,,,,,,,,,,,,,,,,,,,,,,,,,,,,,,,,,,,,,,,,,,,,,,,,,,,,,,,,,,,,,,,
,,,,,,4,0,4,0,1,X V Q F H G B L J M P D K C T S W R N Z,611a9f9591ef82d19cfc5db1,19,Kobieta,2022-06-11_09h30.45.777,task,2021.1.4,Win32,59.31198102,6299f149e92ead563fba08ef,62a4447377be0631d1596750,,,,,,,,,,,,,,,,,,,,,,,,,,,,,,,,,,,,,,,,,,,,,,,,,,,,,,,,,,,,,,,,,,,,,,,,,,,,,,,,,,,,,,,,,,,,,,,,,,,,,
,,,,,,5,0,5,0,1,X V Q F H G B L J M P D K C T S W R N Z,611a9f9591ef82d19cfc5db1,19,Kobieta,2022-06-11_09h30.45.777,task,2021.1.4,Win32,59.31198102,6299f149e92ead563fba08ef,62a4447377be0631d1596750,,,,,,,,,,,,,,,,,,,,,,,,,,,,,,,,,,,,,,,,,,,,,,,,,,,,,,,,,,,,,,,,,,,,,,,,,,,,,,,,,,,,,,,,,,,,,,,,,,,,,
,,,,,,6,0,6,0,1,X V Q F H G B L J M P D K C T S W R N Z,611a9f9591ef82d19cfc5db1,19,Kobieta,2022-06-11_09h30.45.777,task,2021.1.4,Win32,59.31198102,6299f149e92ead563fba08ef,62a4447377be0631d1596750,,,,,,,,,,,,,,,,,,,,,,,,,,,,,,,,,,,,,,,,,,,,,,,,,,,,,,,,,,,,,,,,,,,,,,,,,,,,,,,,,,,,,,,,,,,,,,,,,,,,,
,,,,,,,,,,,,611a9f9591ef82d19cfc5db1,19,Kobieta,2022-06-11_09h30.45.777,task,2021.1.4,Win32,59.31198102,6299f149e92ead563fba08ef,62a4447377be0631d1596750,jhqnjn,"[""j"",""h"",""q"",""n"",""j"",""n""]","[1.2472000000029766,2.7164000000022384,3.644900000002224,5.142300000000745,8.123600000001488,8.503800000000751,8.925800000000748]",0,JHQNXKL,12,0,12,0,1,,,,,,,,,,,,,,,,,,,,,,,,,,,,,,,,,,,,,,,,,,,,,,,,,,,,,,,,,,,,,,,,,,,,,,,,,,,,,,,,,,,,,,,,,,,
,,,,,,0,0,0,0,1,X V Q F H G B L J M P D K C T S W R N Z,611a9f9591ef82d19cfc5db1,19,Kobieta,2022-06-11_09h30.45.777,task,2021.1.4,Win32,59.31198102,6299f149e92ead563fba08ef,62a4447377be0631d1596750,,,,,,,,,,,,,,,,,,,,,,,,,,,,,,,,,,,,,,,,,,,,,,,,,,,,,,,,,,,,,,,,,,,,,,,,,,,,,,,,,,,,,,,,,,,,,,,,,,,,,
,,,,,,1,0,1,0,1,X V Q F H G B L J M P D K C T S W R N Z,611a9f9591ef82d19cfc5db1,19,Kobieta,2022-06-11_09h30.45.777,task,2021.1.4,Win32,59.31198102,6299f149e92ead563fba08ef,62a4447377be0631d1596750,,,,,,,,,,,,,,,,,,,,,,,,,,,,,,,,,,,,,,,,,,,,,,,,,,,,,,,,,,,,,,,,,,,,,,,,,,,,,,,,,,,,,,,,,,,,,,,,,,,,,
,,,,,,2,0,2,0,1,X V Q F H G B L J M P D K C T S W R N Z,611a9f9591ef82d19cfc5db1,19,Kobieta,2022-06-11_09h30.45.777,task,2021.1.4,Win32,59.31198102,6299f149e92ead563fba08ef,62a4447377be0631d1596750,,,,,,,,,,,,,,,,,,,,,,,,,,,,,,,,,,,,,,,,,,,,,,,,,,,,,,,,,,,,,,,,,,,,,,,,,,,,,,,,,,,,,,,,,,,,,,,,,,,,,
,,,,,,3,0,3,0,1,X V Q F H G B L J M P D K C T S W R N Z,611a9f9591ef82d19cfc5db1,19,Kobieta,2022-06-11_09h30.45.777,task,2021.1.4,Win32,59.31198102,6299f149e92ead563fba08ef,62a4447377be0631d1596750,,,,,,,,,,,,,,,,,,,,,,,,,,,,,,,,,,,,,,,,,,,,,,,,,,,,,,,,,,,,,,,,,,,,,,,,,,,,,,,,,,,,,,,,,,,,,,,,,,,,,
,,,,,,4,0,4,0,1,X V Q F H G B L J M P D K C T S W R N Z,611a9f9591ef82d19cfc5db1,19,Kobieta,2022-06-11_09h30.45.777,task,2021.1.4,Win32,59.31198102,6299f149e92ead563fba08ef,62a4447377be0631d1596750,,,,,,,,,,,,,,,,,,,,,,,,,,,,,,,,,,,,,,,,,,,,,,,,,,,,,,,,,,,,,,,,,,,,,,,,,,,,,,,,,,,,,,,,,,,,,,,,,,,,,
,,,,,,5,0,5,0,1,X V Q F H G B L J M P D K C T S W R N Z,611a9f9591ef82d19cfc5db1,19,Kobieta,2022-06-11_09h30.45.777,task,2021.1.4,Win32,59.31198102,6299f149e92ead563fba08ef,62a4447377be0631d1596750,,,,,,,,,,,,,,,,,,,,,,,,,,,,,,,,,,,,,,,,,,,,,,,,,,,,,,,,,,,,,,,,,,,,,,,,,,,,,,,,,,,,,,,,,,,,,,,,,,,,,
,,,,,,6,0,6,0,1,X V Q F H G B L J M P D K C T S W R N Z,611a9f9591ef82d19cfc5db1,19,Kobieta,2022-06-11_09h30.45.777,task,2021.1.4,Win32,59.31198102,6299f149e92ead563fba08ef,62a4447377be0631d1596750,,,,,,,,,,,,,,,,,,,,,,,,,,,,,,,,,,,,,,,,,,,,,,,,,,,,,,,,,,,,,,,,,,,,,,,,,,,,,,,,,,,,,,,,,,,,,,,,,,,,,
,,,,,,,,,,,,611a9f9591ef82d19cfc5db1,19,Kobieta,2022-06-11_09h30.45.777,task,2021.1.4,Win32,59.31198102,6299f149e92ead563fba08ef,62a4447377be0631d1596750,hjwlfrf,"[""h"",""j"",""w"",""l"",""f"",""r"",""f""]","[7.421400000002251,8.139900000002228,9.1796000000015,9.835600000001506,10.92160000000149,11.4495,11.872600000001484,12.405500000000018]",1,HJWLFRF,13,0,13,0,1,,,,,,,,,,,,,,,,,,,,,,,,,,,,,,,,,,,,,,,,,,,,,,,,,,,,,,,,,,,,,,,,,,,,,,,,,,,,,,,,,,,,,,,,,,,
,,,,,,0,0,0,0,1,X V Q F H G B L J M P D K C T S W R N Z,611a9f9591ef82d19cfc5db1,19,Kobieta,2022-06-11_09h30.45.777,task,2021.1.4,Win32,59.31198102,6299f149e92ead563fba08ef,62a4447377be0631d1596750,,,,,,,,,,,,,,,,,,,,,,,,,,,,,,,,,,,,,,,,,,,,,,,,,,,,,,,,,,,,,,,,,,,,,,,,,,,,,,,,,,,,,,,,,,,,,,,,,,,,,
,,,,,,1,0,1,0,1,X V Q F H G B L J M P D K C T S W R N Z,611a9f9591ef82d19cfc5db1,19,Kobieta,2022-06-11_09h30.45.777,task,2021.1.4,Win32,59.31198102,6299f149e92ead563fba08ef,62a4447377be0631d1596750,,,,,,,,,,,,,,,,,,,,,,,,,,,,,,,,,,,,,,,,,,,,,,,,,,,,,,,,,,,,,,,,,,,,,,,,,,,,,,,,,,,,,,,,,,,,,,,,,,,,,
,,,,,,2,0,2,0,1,X V Q F H G B L J M P D K C T S W R N Z,611a9f9591ef82d19cfc5db1,19,Kobieta,2022-06-11_09h30.45.777,task,2021.1.4,Win32,59.31198102,6299f149e92ead563fba08ef,62a4447377be0631d1596750,,,,,,,,,,,,,,,,,,,,,,,,,,,,,,,,,,,,,,,,,,,,,,,,,,,,,,,,,,,,,,,,,,,,,,,,,,,,,,,,,,,,,,,,,,,,,,,,,,,,,
,,,,,,3,0,3,0,1,X V Q F H G B L J M P D K C T S W R N Z,611a9f9591ef82d19cfc5db1,19,Kobieta,2022-06-11_09h30.45.777,task,2021.1.4,Win32,59.31198102,6299f149e92ead563fba08ef,62a4447377be0631d1596750,,,,,,,,,,,,,,,,,,,,,,,,,,,,,,,,,,,,,,,,,,,,,,,,,,,,,,,,,,,,,,,,,,,,,,,,,,,,,,,,,,,,,,,,,,,,,,,,,,,,,
,,,,,,4,0,4,0,1,X V Q F H G B L J M P D K C T S W R N Z,611a9f9591ef82d19cfc5db1,19,Kobieta,2022-06-11_09h30.45.777,task,2021.1.4,Win32,59.31198102,6299f149e92ead563fba08ef,62a4447377be0631d1596750,,,,,,,,,,,,,,,,,,,,,,,,,,,,,,,,,,,,,,,,,,,,,,,,,,,,,,,,,,,,,,,,,,,,,,,,,,,,,,,,,,,,,,,,,,,,,,,,,,,,,
,,,,,,5,0,5,0,1,X V Q F H G B L J M P D K C T S W R N Z,611a9f9591ef82d19cfc5db1,19,Kobieta,2022-06-11_09h30.45.777,task,2021.1.4,Win32,59.31198102,6299f149e92ead563fba08ef,62a4447377be0631d1596750,,,,,,,,,,,,,,,,,,,,,,,,,,,,,,,,,,,,,,,,,,,,,,,,,,,,,,,,,,,,,,,,,,,,,,,,,,,,,,,,,,,,,,,,,,,,,,,,,,,,,
,,,,,,6,0,6,0,1,X V Q F H G B L J M P D K C T S W R N Z,611a9f9591ef82d19cfc5db1,19,Kobieta,2022-06-11_09h30.45.777,task,2021.1.4,Win32,59.31198102,6299f149e92ead563fba08ef,62a4447377be0631d1596750,,,,,,,,,,,,,,,,,,,,,,,,,,,,,,,,,,,,,,,,,,,,,,,,,,,,,,,,,,,,,,,,,,,,,,,,,,,,,,,,,,,,,,,,,,,,,,,,,,,,,
,,,,,,7,0,7,0,1,X V Q F H G B L J M P D K C T S W R N Z,611a9f9591ef82d19cfc5db1,19,Kobieta,2022-06-11_09h30.45.777,task,2021.1.4,Win32,59.31198102,6299f149e92ead563fba08ef,62a4447377be0631d1596750,,,,,,,,,,,,,,,,,,,,,,,,,,,,,,,,,,,,,,,,,,,,,,,,,,,,,,,,,,,,,,,,,,,,,,,,,,,,,,,,,,,,,,,,,,,,,,,,,,,,,
,,,,,,,,,,,,611a9f9591ef82d19cfc5db1,19,Kobieta,2022-06-11_09h30.45.777,task,2021.1.4,Win32,59.31198102,6299f149e92ead563fba08ef,62a4447377be0631d1596750,cssnqvcj,"[""c"",""s"",""s"",""n"",""q"",""v"",""c"",""j""]","[1.6825000000000045,2.17349999999999,2.781199999999245,4.372399999998493,5.259999999999991,6.047099999997755,7.490599999997755,8.040899999998516,8.681999999999988]",0,CSSNKVXJ,14,0,14,0,1,,,,,,,,,,,,,,,,,,,,,,,,,,,,,,,,,,,,,,,,,,,,,,,,,,,,,,,,,,,,,,,,,,,,,,,,,,,,,,,,,,,,,,,,,,,
,,,,,,0,0,0,0,1,X V Q F H G B L J M P D K C T S W R N Z,611a9f9591ef82d19cfc5db1,19,Kobieta,2022-06-11_09h30.45.777,task,2021.1.4,Win32,59.31198102,6299f149e92ead563fba08ef,62a4447377be0631d1596750,,,,,,,,,,,,,,,,,,,,,,,,,,,,,,,,,,,,,,,,,,,,,,,,,,,,,,,,,,,,,,,,,,,,,,,,,,,,,,,,,,,,,,,,,,,,,,,,,,,,,
,,,,,,1,0,1,0,1,X V Q F H G B L J M P D K C T S W R N Z,611a9f9591ef82d19cfc5db1,19,Kobieta,2022-06-11_09h30.45.777,task,2021.1.4,Win32,59.31198102,6299f149e92ead563fba08ef,62a4447377be0631d1596750,,,,,,,,,,,,,,,,,,,,,,,,,,,,,,,,,,,,,,,,,,,,,,,,,,,,,,,,,,,,,,,,,,,,,,,,,,,,,,,,,,,,,,,,,,,,,,,,,,,,,
,,,,,,2,0,2,0,1,X V Q F H G B L J M P D K C T S W R N Z,611a9f9591ef82d19cfc5db1,19,Kobieta,2022-06-11_09h30.45.777,task,2021.1.4,Win32,59.31198102,6299f149e92ead563fba08ef,62a4447377be0631d1596750,,,,,,,,,,,,,,,,,,,,,,,,,,,,,,,,,,,,,,,,,,,,,,,,,,,,,,,,,,,,,,,,,,,,,,,,,,,,,,,,,,,,,,,,,,,,,,,,,,,,,
,,,,,,3,0,3,0,1,X V Q F H G B L J M P D K C T S W R N Z,611a9f9591ef82d19cfc5db1,19,Kobieta,2022-06-11_09h30.45.777,task,2021.1.4,Win32,59.31198102,6299f149e92ead563fba08ef,62a4447377be0631d1596750,,,,,,,,,,,,,,,,,,,,,,,,,,,,,,,,,,,,,,,,,,,,,,,,,,,,,,,,,,,,,,,,,,,,,,,,,,,,,,,,,,,,,,,,,,,,,,,,,,,,,
,,,,,,4,0,4,0,1,X V Q F H G B L J M P D K C T S W R N Z,611a9f9591ef82d19cfc5db1,19,Kobieta,2022-06-11_09h30.45.777,task,2021.1.4,Win32,59.31198102,6299f149e92ead563fba08ef,62a4447377be0631d1596750,,,,,,,,,,,,,,,,,,,,,,,,,,,,,,,,,,,,,,,,,,,,,,,,,,,,,,,,,,,,,,,,,,,,,,,,,,,,,,,,,,,,,,,,,,,,,,,,,,,,,
,,,,,,5,0,5,0,1,X V Q F H G B L J M P D K C T S W R N Z,611a9f9591ef82d19cfc5db1,19,Kobieta,2022-06-11_09h30.45.777,task,2021.1.4,Win32,59.31198102,6299f149e92ead563fba08ef,62a4447377be0631d1596750,,,,,,,,,,,,,,,,,,,,,,,,,,,,,,,,,,,,,,,,,,,,,,,,,,,,,,,,,,,,,,,,,,,,,,,,,,,,,,,,,,,,,,,,,,,,,,,,,,,,,
,,,,,,6,0,6,0,1,X V Q F H G B L J M P D K C T S W R N Z,611a9f9591ef82d19cfc5db1,19,Kobieta,2022-06-11_09h30.45.777,task,2021.1.4,Win32,59.31198102,6299f149e92ead563fba08ef,62a4447377be0631d1596750,,,,,,,,,,,,,,,,,,,,,,,,,,,,,,,,,,,,,,,,,,,,,,,,,,,,,,,,,,,,,,,,,,,,,,,,,,,,,,,,,,,,,,,,,,,,,,,,,,,,,
,,,,,,7,0,7,0,1,X V Q F H G B L J M P D K C T S W R N Z,611a9f9591ef82d19cfc5db1,19,Kobieta,2022-06-11_09h30.45.777,task,2021.1.4,Win32,59.31198102,6299f149e92ead563fba08ef,62a4447377be0631d1596750,,,,,,,,,,,,,,,,,,,,,,,,,,,,,,,,,,,,,,,,,,,,,,,,,,,,,,,,,,,,,,,,,,,,,,,,,,,,,,,,,,,,,,,,,,,,,,,,,,,,,
,,,,,,,,,,,,611a9f9591ef82d19cfc5db1,19,Kobieta,2022-06-11_09h30.45.777,task,2021.1.4,Win32,59.31198102,6299f149e92ead563fba08ef,62a4447377be0631d1596750,lhtdtvrt,"[""l"",""h"",""t"",""d"",""t"",""v"",""r"",""t""]","[1.951599999997768,3.138099999997735,3.716199999999276,5.013500000000022,8.995899999998528,11.702599999997744,14.579899999998531,15.045599999997762,15.264199999999278]",0,LHTDTWRV,15,0,15,0,1,,,,,,,,,,,,,,,,,,,,,,,,,,,,,,,,,,,,,,,,,,,,,,,,,,,,,,,,,,,,,,,,,,,,,,,,,,,,,,,,,,,,,,,,,,,
,,,,,,0,0,0,0,1,X V Q F H G B L J M P D K C T S W R N Z,611a9f9591ef82d19cfc5db1,19,Kobieta,2022-06-11_09h30.45.777,task,2021.1.4,Win32,59.31198102,6299f149e92ead563fba08ef,62a4447377be0631d1596750,,,,,,,,,,,,,,,,,,,,,,,,,,,,,,,,,,,,,,,,,,,,,,,,,,,,,,,,,,,,,,,,,,,,,,,,,,,,,,,,,,,,,,,,,,,,,,,,,,,,,
,,,,,,1,0,1,0,1,X V Q F H G B L J M P D K C T S W R N Z,611a9f9591ef82d19cfc5db1,19,Kobieta,2022-06-11_09h30.45.777,task,2021.1.4,Win32,59.31198102,6299f149e92ead563fba08ef,62a4447377be0631d1596750,,,,,,,,,,,,,,,,,,,,,,,,,,,,,,,,,,,,,,,,,,,,,,,,,,,,,,,,,,,,,,,,,,,,,,,,,,,,,,,,,,,,,,,,,,,,,,,,,,,,,
,,,,,,2,0,2,0,1,X V Q F H G B L J M P D K C T S W R N Z,611a9f9591ef82d19cfc5db1,19,Kobieta,2022-06-11_09h30.45.777,task,2021.1.4,Win32,59.31198102,6299f149e92ead563fba08ef,62a4447377be0631d1596750,,,,,,,,,,,,,,,,,,,,,,,,,,,,,,,,,,,,,,,,,,,,,,,,,,,,,,,,,,,,,,,,,,,,,,,,,,,,,,,,,,,,,,,,,,,,,,,,,,,,,
,,,,,,3,0,3,0,1,X V Q F H G B L J M P D K C T S W R N Z,611a9f9591ef82d19cfc5db1,19,Kobieta,2022-06-11_09h30.45.777,task,2021.1.4,Win32,59.31198102,6299f149e92ead563fba08ef,62a4447377be0631d1596750,,,,,,,,,,,,,,,,,,,,,,,,,,,,,,,,,,,,,,,,,,,,,,,,,,,,,,,,,,,,,,,,,,,,,,,,,,,,,,,,,,,,,,,,,,,,,,,,,,,,,
,,,,,,4,0,4,0,1,X V Q F H G B L J M P D K C T S W R N Z,611a9f9591ef82d19cfc5db1,19,Kobieta,2022-06-11_09h30.45.777,task,2021.1.4,Win32,59.31198102,6299f149e92ead563fba08ef,62a4447377be0631d1596750,,,,,,,,,,,,,,,,,,,,,,,,,,,,,,,,,,,,,,,,,,,,,,,,,,,,,,,,,,,,,,,,,,,,,,,,,,,,,,,,,,,,,,,,,,,,,,,,,,,,,
,,,,,,5,0,5,0,1,X V Q F H G B L J M P D K C T S W R N Z,611a9f9591ef82d19cfc5db1,19,Kobieta,2022-06-11_09h30.45.777,task,2021.1.4,Win32,59.31198102,6299f149e92ead563fba08ef,62a4447377be0631d1596750,,,,,,,,,,,,,,,,,,,,,,,,,,,,,,,,,,,,,,,,,,,,,,,,,,,,,,,,,,,,,,,,,,,,,,,,,,,,,,,,,,,,,,,,,,,,,,,,,,,,,
,,,,,,6,0,6,0,1,X V Q F H G B L J M P D K C T S W R N Z,611a9f9591ef82d19cfc5db1,19,Kobieta,2022-06-11_09h30.45.777,task,2021.1.4,Win32,59.31198102,6299f149e92ead563fba08ef,62a4447377be0631d1596750,,,,,,,,,,,,,,,,,,,,,,,,,,,,,,,,,,,,,,,,,,,,,,,,,,,,,,,,,,,,,,,,,,,,,,,,,,,,,,,,,,,,,,,,,,,,,,,,,,,,,
,,,,,,7,0,7,0,1,X V Q F H G B L J M P D K C T S W R N Z,611a9f9591ef82d19cfc5db1,19,Kobieta,2022-06-11_09h30.45.777,task,2021.1.4,Win32,59.31198102,6299f149e92ead563fba08ef,62a4447377be0631d1596750,,,,,,,,,,,,,,,,,,,,,,,,,,,,,,,,,,,,,,,,,,,,,,,,,,,,,,,,,,,,,,,,,,,,,,,,,,,,,,,,,,,,,,,,,,,,,,,,,,,,,
,,,,,,,,,,,,611a9f9591ef82d19cfc5db1,19,Kobieta,2022-06-11_09h30.45.777,task,2021.1.4,Win32,59.31198102,6299f149e92ead563fba08ef,62a4447377be0631d1596750,rqhtvxr,"[""r"",""q"",""h"",""t"",""v"",""x"",""r""]","[1.921700000002943,4.229600000001483,5.232499999999959,9.11330000000072,9.410700000002976,9.802500000000009,12.465700000002983,12.999800000000732]",0,RHQXGTQP,16,0,16,0,1,,,,,,,,,,,,,,,,,,,,,,,,,,,,,,,,,,,,,,,,,,,,,,,,,,,,,,,,,,,,,,,,,,,,,,,,,,,,,,,,,,,,,,,,,,,
,,,,,,,,,,,,611a9f9591ef82d19cfc5db1,19,Kobieta,2022-06-11_09h30.45.777,task,2021.1.4,Win32,59.31198102,6299f149e92ead563fba08ef,62a4447377be0631d1596750,,,,,,,,,,,space,10.2193,3,"[""3""]",1,[9.072800000000768],[9.072800000000768],0,0,0,3,1,Practice,4,(8/4) + 1,3,,,,,,,,,,,,,,,,,,,,,,,,,,,,,,,,,,,,,,,,,,,,,,,,,,,,,,,,,,,,,,,,,,,,,,,,,,,
,,,,,,,,,,,,611a9f9591ef82d19cfc5db1,19,Kobieta,2022-06-11_09h30.45.777,task,2021.1.4,Win32,59.31198102,6299f149e92ead563fba08ef,62a4447377be0631d1596750,,,,,,,,,,,,,8,"[""8""]",1,[2.2518999999985],"[9.072800000000768,2.2518999999985]",0,1,1,8,1,Practice,9,(3x3) - 1,8,,,,,,,,,,,,,,,,,,,,,,,,,,,,,,,,,,,,,,,,,,,,,,,,,,,,,,,,,,,,,,,,,,,,,,,,,,,
,,,,,,,,,,,,611a9f9591ef82d19cfc5db1,19,Kobieta,2022-06-11_09h30.45.777,task,2021.1.4,Win32,59.31198102,6299f149e92ead563fba08ef,62a4447377be0631d1596750,,,,,,,,,,,,,0,"[""0""]",1,[2.215799999996989],"[9.072800000000768,2.2518999999985,2.215799999996989]",0,2,2,0,1,Practice,1,(3x3) -  9,0,,,,,,,,,,,,,,,,,,,,,,,,,,,,,,,,,,,,,,,,,,,,,,,,,,,,,,,,,,,,,,,,,,,,,,,,,,,
,,,,,,,,,,,,611a9f9591ef82d19cfc5db1,19,Kobieta,2022-06-11_09h30.45.777,task,2021.1.4,Win32,59.31198102,6299f149e92ead563fba08ef,62a4447377be0631d1596750,,,,,,,,,,,,,5,"[""5""]",1,[2.3783999999984644],"[9.072800000000768,2.2518999999985,2.215799999996989,2.3783999999984644]",0,3,3,5,1,Practice,6,(4/2) + 3,5,,,,,,,,,,,,,,,,,,,,,,,,,,,,,,,,,,,,,,,,,,,,,,,,,,,,,,,,,,,,,,,,,,,,,,,,,,,
,,,,,,,,,,,,611a9f9591ef82d19cfc5db1,19,Kobieta,2022-06-11_09h30.45.777,task,2021.1.4,Win32,59.31198102,6299f149e92ead563fba08ef,62a4447377be0631d1596750,,,,,,,,,,,,,4,"[""4""]",1,[2.76210000000151],"[9.072800000000768,2.2518999999985,2.215799999996989,2.3783999999984644,2.76210000000151]",0,4,4,4,1,Practice,5,(2x6) - 8,4,,,,,,,,,,,,,,,,,,,,,,,,,,,,,,,,,,,,,,,,,,,,,,,,,,,,,,,,,,,,,,,,,,,,,,,,,,,
,,,,,,,,,,,,611a9f9591ef82d19cfc5db1,19,Kobieta,2022-06-11_09h30.45.777,task,2021.1.4,Win32,59.31198102,6299f149e92ead563fba08ef,62a4447377be0631d1596750,,,,,,,,,,,,,1,"[""1""]",1,[1.964999999999975],"[9.072800000000768,2.2518999999985,2.215799999996989,2.3783999999984644,2.76210000000151,1.964999999999975]",0,5,5,1,1,Practice,2,(4x4) - 15,1,,,,,,,,,,,,,,,,,,,,,,,,,,,,,,,,,,,,,,,,,,,,,,,,,,,,,,,,,,,,,,,,,,,,,,,,,,,
,,,,,,,,,,,,611a9f9591ef82d19cfc5db1,19,Kobieta,2022-06-11_09h30.45.777,task,2021.1.4,Win32,59.31198102,6299f149e92ead563fba08ef,62a4447377be0631d1596750,,,,,,,,,,,,,2,"[""2""]",1,[1.9962999999970066],"[9.072800000000768,2.2518999999985,2.215799999996989,2.3783999999984644,2.76210000000151,1.964999999999975,1.9962999999970066]",0,6,6,2,1,Practice,3,(4x4) - 14,2,,,,,,,,,,,,,,,,,,,,,,,,,,,,,,,,,,,,,,,,,,,,,,,,,,,,,,,,,,,,,,,,,,,,,,,,,,,
,,,,,,,,,,,,611a9f9591ef82d19cfc5db1,19,Kobieta,2022-06-11_09h30.45.777,task,2021.1.4,Win32,59.31198102,6299f149e92ead563fba08ef,62a4447377be0631d1596750,,,,,,,,,,,,,6,"[""6""]",1,[2.7319000000022697],"[9.072800000000768,2.2518999999985,2.215799999996989,2.3783999999984644,2.76210000000151,1.964999999999975,1.9962999999970066,2.7319000000022697]",0,7,7,6,1,Practice,7,(25/5) + 1,6,,,,,,,,,,,,,,,,,,,,,,,,,,,,,,,,,,,,,,,,,,,,,,,,,,,,,,,,,,,,,,,,,,,,,,,,,,,
,,,,,,,,,,,,611a9f9591ef82d19cfc5db1,19,Kobieta,2022-06-11_09h30.45.777,task,2021.1.4,Win32,59.31198102,6299f149e92ead563fba08ef,62a4447377be0631d1596750,,,,,,,,,,,,,7,"[""7""]",1,[3.3275999999977444],"[9.072800000000768,2.2518999999985,2.215799999996989,2.3783999999984644,2.76210000000151,1.964999999999975,1.9962999999970066,2.7319000000022697,3.3275999999977444]",0,8,8,7,1,Practice,8,(5x5) - 18,7,,,,,,,,,,,,,,,,,,,,,,,,,,,,,,,,,,,,,,,,,,,,,,,,,,,,,,,,,,,,,,,,,,,,,,,,,,,
,,,,,,,,,,,,611a9f9591ef82d19cfc5db1,19,Kobieta,2022-06-11_09h30.45.777,task,2021.1.4,Win32,59.31198102,6299f149e92ead563fba08ef,62a4447377be0631d1596750,,,,,,,,,,,,,9,"[""9""]",1,[1.969600000001492],"[9.072800000000768,2.2518999999985,2.215799999996989,2.3783999999984644,2.76210000000151,1.964999999999975,1.9962999999970066,2.7319000000022697,3.3275999999977444,1.969600000001492]",0,9,9,9,1,Practice,10,(20/2) - 1,9,,,,,,,,,,,,,,,,,,,,,,,,,,,,,,,,,,,,,,,,,,,,,,,,,,,,,,,,,,,,,,,,,,,,,,,,,,,
,,,,,,,,,,,,611a9f9591ef82d19cfc5db1,19,Kobieta,2022-06-11_09h30.45.777,task,2021.1.4,Win32,59.31198102,6299f149e92ead563fba08ef,62a4447377be0631d1596750,,,,,,,,,,,,,,,,,,,,,,,,,,,1,30.6714,2.04476,52.22359913,1.865897445,6.858775408,space,2.2849,0,0,0,0,1,,,,,,,,,,,,,,,,,,,,,,,,,,,,,,,,,,,,,,,,,,,,,,,,,,,,,,,,,,,,,,
,,,,,,,,,,,,611a9f9591ef82d19cfc5db1,19,Kobieta,2022-06-11_09h30.45.777,task,2021.1.4,Win32,59.31198102,6299f149e92ead563fba08ef,62a4447377be0631d1596750,,,,,,,,,,,,,7,,,,,,,,,,Practice,8,(5x5) - 18,7,,,,,,,,,,,,,,space,14.5307,"[""7""]",1,[2.1965999999977726],1,0,0,0,7,1,,,,,,,,,,,,,,,,,,,,,,,,,,,,,,,,,,,,,,,,,,,,,,,,,,,
,,,,,,,,,,,X V Q F H G B L J M P D K C T S W R N Z,611a9f9591ef82d19cfc5db1,19,Kobieta,2022-06-11_09h30.45.777,task,2021.1.4,Win32,59.31198102,6299f149e92ead563fba08ef,62a4447377be0631d1596750,,,,,,,,,,,,,,,,,,,,,,,,,,,,,,,,,,,,,,,,,,,,,,,,,,,0,0,0,0,1,,,,,,,,,,,,,,,,,,,,,,,,,,,,,,,,,,,,,,,,,,,,,,
,,,,,,,,,,,,611a9f9591ef82d19cfc5db1,19,Kobieta,2022-06-11_09h30.45.777,task,2021.1.4,Win32,59.31198102,6299f149e92ead563fba08ef,62a4447377be0631d1596750,,,,,,,,,,,,,3,,,,,,,,,,Practice,4,(8/4) + 1,3,,,,,,,,,,,,,,,,"[""3""]",1,[3.055400000002237],1,0,0,0,3,1,,,,,,,,,,,,,,,,,,,,,,,,,,,,,,,,,,,,,,,,,,,,,,,,,,,
,,,,,,,,,,,X V Q F H G B L J M P D K C T S W R N Z,611a9f9591ef82d19cfc5db1,19,Kobieta,2022-06-11_09h30.45.777,task,2021.1.4,Win32,59.31198102,6299f149e92ead563fba08ef,62a4447377be0631d1596750,,,,,,,,,,,,,,,,,,,,,,,,,,,,,,,,,,,,,,,,,,,,,,,,,,,1,0,1,0,1,,,,,,,,,,,,,,,,,,,,,,,,,,,,,,,,,,,,,,,,,,,,,,
,,,,,,,,,,,,611a9f9591ef82d19cfc5db1,19,Kobieta,2022-06-11_09h30.45.777,task,2021.1.4,Win32,59.31198102,6299f149e92ead563fba08ef,62a4447377be0631d1596750,,,,,,,,,,,,,,,,,,,,,,,,,,,,,,,,,,,,,,,,,,,,,,,,,,,,,,,,zs,"[""z"",""s""]",0,"[2.246500000000026,2.6994000000022425,3.1966000000015242]",1,0,0,0,0,1,,,,,,,,,,,,,,,,,,,,,,,,,,,,,,,,,,,,
,,,,,,,,,,,,611a9f9591ef82d19cfc5db1,19,Kobieta,2022-06-11_09h30.45.777,task,2021.1.4,Win32,59.31198102,6299f149e92ead563fba08ef,62a4447377be0631d1596750,,,,,,,,,,,,,8,,,,,,,,,,Practice,9,(3x3) - 1,8,,,,,,,,,,,,,,,,"[""8""]",1,[1.5485999999978048],1,0,0,0,8,1,,,,,,,,,,,,,,,,,,,,,,,,,,,,,,,,,,,,,,,,,,,,,,,,,,,
,,,,,,,,,,,X V Q F H G B L J M P D K C T S W R N Z,611a9f9591ef82d19cfc5db1,19,Kobieta,2022-06-11_09h30.45.777,task,2021.1.4,Win32,59.31198102,6299f149e92ead563fba08ef,62a4447377be0631d1596750,,,,,,,,,,,,,,,,,,,,,,,,,,,,,,,,,,,,,,,,,,,,,,,,,,,0,0,0,0,1,,,,,,,,,,,,,,,,,,,,,,,,,,,,,,,,,,,,,,,,,,,,,,
,,,,,,,,,,,,611a9f9591ef82d19cfc5db1,19,Kobieta,2022-06-11_09h30.45.777,task,2021.1.4,Win32,59.31198102,6299f149e92ead563fba08ef,62a4447377be0631d1596750,,,,,,,,,,,,,9,,,,,,,,,,Practice,10,(20/2) - 1,9,,,,,,,,,,,,,,,,"[""9""]",1,[1.5810999999977753],1,0,0,0,9,1,,,,,,,,,,,,,,,,,,,,,,,,,,,,,,,,,,,,,,,,,,,,,,,,,,,
,,,,,,,,,,,X V Q F H G B L J M P D K C T S W R N Z,611a9f9591ef82d19cfc5db1,19,Kobieta,2022-06-11_09h30.45.777,task,2021.1.4,Win32,59.31198102,6299f149e92ead563fba08ef,62a4447377be0631d1596750,,,,,,,,,,,,,,,,,,,,,,,,,,,,,,,,,,,,,,,,,,,,,,,,,,,1,0,1,0,1,,,,,,,,,,,,,,,,,,,,,,,,,,,,,,,,,,,,,,,,,,,,,,
,,,,,,,,,,,,611a9f9591ef82d19cfc5db1,19,Kobieta,2022-06-11_09h30.45.777,task,2021.1.4,Win32,59.31198102,6299f149e92ead563fba08ef,62a4447377be0631d1596750,,,,,,,,,,,,,,,,,,,,,,,,,,,,,,,,,,,,,,,,,,,,,,,,,,,,,,,,gn,"[""g"",""n""]",0,"[1.7315999999977976,2.084299999997029,2.4630999999977803]",1,1,0,1,0,1,,,,,,,,,,,,,,,,,,,,,,,,,,,,,,,,,,,,
,,,,,,,,,,,,611a9f9591ef82d19cfc5db1,19,Kobieta,2022-06-11_09h30.45.777,task,2021.1.4,Win32,59.31198102,6299f149e92ead563fba08ef,62a4447377be0631d1596750,,,,,,,,,,,,,1,,,,,,,,,,Practice,2,(4x4) - 15,1,,,,,,,,,,,,,,,,"[""1""]",1,[1.6573000000007596],1,0,0,0,1,1,,,,,,,,,,,,,,,,,,,,,,,,,,,,,,,,,,,,,,,,,,,,,,,,,,,
,,,,,,,,,,,X V Q F H G B L J M P D K C T S W R N Z,611a9f9591ef82d19cfc5db1,19,Kobieta,2022-06-11_09h30.45.777,task,2021.1.4,Win32,59.31198102,6299f149e92ead563fba08ef,62a4447377be0631d1596750,,,,,,,,,,,,,,,,,,,,,,,,,,,,,,,,,,,,,,,,,,,,,,,,,,,0,0,0,0,1,,,,,,,,,,,,,,,,,,,,,,,,,,,,,,,,,,,,,,,,,,,,,,
,,,,,,,,,,,,611a9f9591ef82d19cfc5db1,19,Kobieta,2022-06-11_09h30.45.777,task,2021.1.4,Win32,59.31198102,6299f149e92ead563fba08ef,62a4447377be0631d1596750,,,,,,,,,,,,,8,,,,,,,,,,Practice,9,(3x3) - 1,8,,,,,,,,,,,,,,,,"[""8""]",1,[1.4639999999999986],1,0,0,0,8,1,,,,,,,,,,,,,,,,,,,,,,,,,,,,,,,,,,,,,,,,,,,,,,,,,,,
,,,,,,,,,,,X V Q F H G B L J M P D K C T S W R N Z,611a9f9591ef82d19cfc5db1,19,Kobieta,2022-06-11_09h30.45.777,task,2021.1.4,Win32,59.31198102,6299f149e92ead563fba08ef,62a4447377be0631d1596750,,,,,,,,,,,,,,,,,,,,,,,,,,,,,,,,,,,,,,,,,,,,,,,,,,,1,0,1,0,1,,,,,,,,,,,,,,,,,,,,,,,,,,,,,,,,,,,,,,,,,,,,,,
,,,,,,,,,,,,611a9f9591ef82d19cfc5db1,19,Kobieta,2022-06-11_09h30.45.777,task,2021.1.4,Win32,59.31198102,6299f149e92ead563fba08ef,62a4447377be0631d1596750,,,,,,,,,,,,,,,,,,,,,,,,,,,,,,,,,,,,,,,,,,,,,,,,,,,,,,,,kj,"[""k"",""j""]",0,"[1.537200000002997,1.804800000000796,2.136600000001522]",1,2,0,2,0,1,,,,,,,,,,,,,,,,,,,,,,,,,,,,,,,,,,,,
,,,,,,,,,,,,611a9f9591ef82d19cfc5db1,19,Kobieta,2022-06-11_09h30.45.777,task,2021.1.4,Win32,59.31198102,6299f149e92ead563fba08ef,62a4447377be0631d1596750,,,,,,,,,,,,,4,,,,,,,,,,Task,21,(10/2) - 1,4,,,,,,,,,,,,,,,,,,,1,,,,,,,,,,,,,,,,,,,,,space,12.2236,"[""4""]",1,[3.3988000000007332],0,0,0,20,1,,,,,,,,,,,,,,,,,,,,,,,,,,
,,,,,,,,,,,X V Q F H G B L J M P D K C T S W R N Z,611a9f9591ef82d19cfc5db1,19,Kobieta,2022-06-11_09h30.45.777,task,2021.1.4,Win32,59.31198102,6299f149e92ead563fba08ef,62a4447377be0631d1596750,,,,,,,,,,,,,,,,,,,,,,,,,,,,,,,,,,,,,,,,,,,,,,,,,,,,,,,,,,,,,,,,,,,,,,,,,,,,0,0,0,0,1,,,,,,,,,,,,,,,,,,,,,
,,,,,,,,,,,,611a9f9591ef82d19cfc5db1,19,Kobieta,2022-06-11_09h30.45.777,task,2021.1.4,Win32,59.31198102,6299f149e92ead563fba08ef,62a4447377be0631d1596750,,,,,,,,,,,,,4,,,,,,,,,,Task,28,(2x5) - 6,4,,,,,,,,,,,,,,,,,,,1,,,,,,,,,,,,,,,,,,,,,,,"[""4""]",1,[2.2323000000007482],0,0,0,27,1,,,,,,,,,,,,,,,,,,,,,,,,,,
,,,,,,,,,,,X V Q F H G B L J M P D K C T S W R N Z,611a9f9591ef82d19cfc5db1,19,Kobieta,2022-06-11_09h30.45.777,task,2021.1.4,Win32,59.31198102,6299f149e92ead563fba08ef,62a4447377be0631d1596750,,,,,,,,,,,,,,,,,,,,,,,,,,,,,,,,,,,,,,,,,,,,,,,,,,,,,,,,,,,,,,,,,,,,,,,,,,,,1,0,1,0,1,,,,,,,,,,,,,,,,,,,,,
,,,,,,,,,,,,611a9f9591ef82d19cfc5db1,19,Kobieta,2022-06-11_09h30.45.777,task,2021.1.4,Win32,59.31198102,6299f149e92ead563fba08ef,62a4447377be0631d1596750,,,,,,,,,,,,,,,,,,,,,,,,,,,,,,,,,,,,,,,,,,,,,,,,,,,,,,,,,,,,,,,,,,,,,,,,,,,,,,,,,zr,"[""z"",""r""]",0,"[1.7258999999984894,2.196399999998505,2.6463999999984935]",1,ZR,0,0,0,0,1,,,,,,,,,,
,,,,,,,,,,,,611a9f9591ef82d19cfc5db1,19,Kobieta,2022-06-11_09h30.45.777,task,2021.1.4,Win32,59.31198102,6299f149e92ead563fba08ef,62a4447377be0631d1596750,,,,,,,,,,,,,3,,,,,,,,,,Task,27,(3/3) + 2,3,,,,,,,,,,,,,,,,,,,1,,,,,,,,,,,,,,,,,,,,,,,"[""3""]",1,[2.2129999999999654],0,0,0,26,1,,,,,,,,,,,,,,,,,,,,,,,,,,
,,,,,,,,,,,X V Q F H G B L J M P D K C T S W R N Z,611a9f9591ef82d19cfc5db1,19,Kobieta,2022-06-11_09h30.45.777,task,2021.1.4,Win32,59.31198102,6299f149e92ead563fba08ef,62a4447377be0631d1596750,,,,,,,,,,,,,,,,,,,,,,,,,,,,,,,,,,,,,,,,,,,,,,,,,,,,,,,,,,,,,,,,,,,,,,,,,,,,0,0,0,0,1,,,,,,,,,,,,,,,,,,,,,
,,,,,,,,,,,,611a9f9591ef82d19cfc5db1,19,Kobieta,2022-06-11_09h30.45.777,task,2021.1.4,Win32,59.31198102,6299f149e92ead563fba08ef,62a4447377be0631d1596750,,,,,,,,,,,,,1,,,,,,,,,,Task,1,(12/6) - 1,1,,,,,,,,,,,,,,,,,,,1,,,,,,,,,,,,,,,,,,,,,,,"[""1""]",1,[1.680400000002237],0,0,0,0,1,,,,,,,,,,,,,,,,,,,,,,,,,,
,,,,,,,,,,,X V Q F H G B L J M P D K C T S W R N Z,611a9f9591ef82d19cfc5db1,19,Kobieta,2022-06-11_09h30.45.777,task,2021.1.4,Win32,59.31198102,6299f149e92ead563fba08ef,62a4447377be0631d1596750,,,,,,,,,,,,,,,,,,,,,,,,,,,,,,,,,,,,,,,,,,,,,,,,,,,,,,,,,,,,,,,,,,,,,,,,,,,,1,0,1,0,1,,,,,,,,,,,,,,,,,,,,,
,,,,,,,,,,,,611a9f9591ef82d19cfc5db1,19,Kobieta,2022-06-11_09h30.45.777,task,2021.1.4,Win32,59.31198102,6299f149e92ead563fba08ef,62a4447377be0631d1596750,,,,,,,,,,,,,4,,,,,,,,,,Task,4,(1x5) - 1,4,,,,,,,,,,,,,,,,,,,1,,,,,,,,,,,,,,,,,,,,,,,"[""4""]",1,[2.0033000000007064],0,0,0,3,1,,,,,,,,,,,,,,,,,,,,,,,,,,
,,,,,,,,,,,X V Q F H G B L J M P D K C T S W R N Z,611a9f9591ef82d19cfc5db1,19,Kobieta,2022-06-11_09h30.45.777,task,2021.1.4,Win32,59.31198102,6299f149e92ead563fba08ef,62a4447377be0631d1596750,,,,,,,,,,,,,,,,,,,,,,,,,,,,,,,,,,,,,,,,,,,,,,,,,,,,,,,,,,,,,,,,,,,,,,,,,,,,2,0,2,0,1,,,,,,,,,,,,,,,,,,,,,
,,,,,,,,,,,,611a9f9591ef82d19cfc5db1,19,Kobieta,2022-06-11_09h30.45.777,task,2021.1.4,Win32,59.31198102,6299f149e92ead563fba08ef,62a4447377be0631d1596750,,,,,,,,,,,,,,,,,,,,,,,,,,,,,,,,,,,,,,,,,,,,,,,,,,,,,,,,,,,,,,,,,,,,,,,,,,,,,,,,,wzq,"[""w"",""z"",""q""]",0,"[2.1020999999977903,2.7290999999978,3.134300000000792,3.5388000000007764]",1,WZQ,1,0,1,0,1,,,,,,,,,,
,,,,,,,,,,,,611a9f9591ef82d19cfc5db1,19,Kobieta,2022-06-11_09h30.45.777,task,2021.1.4,Win32,59.31198102,6299f149e92ead563fba08ef,62a4447377be0631d1596750,,,,,,,,,,,,,7,,,,,,,,,,Task,38,(4x6) - 17,7,,,,,,,,,,,,,,,,,,,1,,,,,,,,,,,,,,,,,,,,,,,"[""7""]",1,[6.180499999999995],0,0,0,37,1,,,,,,,,,,,,,,,,,,,,,,,,,,
,,,,,,,,,,,X V Q F H G B L J M P D K C T S W R N Z,611a9f9591ef82d19cfc5db1,19,Kobieta,2022-06-11_09h30.45.777,task,2021.1.4,Win32,59.31198102,6299f149e92ead563fba08ef,62a4447377be0631d1596750,,,,,,,,,,,,,,,,,,,,,,,,,,,,,,,,,,,,,,,,,,,,,,,,,,,,,,,,,,,,,,,,,,,,,,,,,,,,0,0,0,0,1,,,,,,,,,,,,,,,,,,,,,
,,,,,,,,,,,,611a9f9591ef82d19cfc5db1,19,Kobieta,2022-06-11_09h30.45.777,task,2021.1.4,Win32,59.31198102,6299f149e92ead563fba08ef,62a4447377be0631d1596750,,,,,,,,,,,,,5,,,,,,,,,,Task,29,(3x8) - 19 ,5,,,,,,,,,,,,,,,,,,,1,,,,,,,,,,,,,,,,,,,,,,,"[""5""]",1,[4.396599999997761],0,0,0,28,1,,,,,,,,,,,,,,,,,,,,,,,,,,
,,,,,,,,,,,X V Q F H G B L J M P D K C T S W R N Z,611a9f9591ef82d19cfc5db1,19,Kobieta,2022-06-11_09h30.45.777,task,2021.1.4,Win32,59.31198102,6299f149e92ead563fba08ef,62a4447377be0631d1596750,,,,,,,,,,,,,,,,,,,,,,,,,,,,,,,,,,,,,,,,,,,,,,,,,,,,,,,,,,,,,,,,,,,,,,,,,,,,1,0,1,0,1,,,,,,,,,,,,,,,,,,,,,
,,,,,,,,,,,,611a9f9591ef82d19cfc5db1,19,Kobieta,2022-06-11_09h30.45.777,task,2021.1.4,Win32,59.31198102,6299f149e92ead563fba08ef,62a4447377be0631d1596750,,,,,,,,,,,,,7,,,,,,,,,,Task,6,(12/2) + 1,7,,,,,,,,,,,,,,,,,,,1,,,,,,,,,,,,,,,,,,,,,,,"[""7""]",1,[2.06290000000223],0,0,0,5,1,,,,,,,,,,,,,,,,,,,,,,,,,,
,,,,,,,,,,,X V Q F H G B L J M P D K C T S W R N Z,611a9f9591ef82d19cfc5db1,19,Kobieta,2022-06-11_09h30.45.777,task,2021.1.4,Win32,59.31198102,6299f149e92ead563fba08ef,62a4447377be0631d1596750,,,,,,,,,,,,,,,,,,,,,,,,,,,,,,,,,,,,,,,,,,,,,,,,,,,,,,,,,,,,,,,,,,,,,,,,,,,,2,0,2,0,1,,,,,,,,,,,,,,,,,,,,,
,,,,,,,,,,,,611a9f9591ef82d19cfc5db1,19,Kobieta,2022-06-11_09h30.45.777,task,2021.1.4,Win32,59.31198102,6299f149e92ead563fba08ef,62a4447377be0631d1596750,,,,,,,,,,,,,7,,,,,,,,,,Task,14,(2x2) + 3,7,,,,,,,,,,,,,,,,,,,1,,,,,,,,,,,,,,,,,,,,,,,"[""7""]",1,[1.7644999999999982],0,0,0,13,1,,,,,,,,,,,,,,,,,,,,,,,,,,
,,,,,,,,,,,X V Q F H G B L J M P D K C T S W R N Z,611a9f9591ef82d19cfc5db1,19,Kobieta,2022-06-11_09h30.45.777,task,2021.1.4,Win32,59.31198102,6299f149e92ead563fba08ef,62a4447377be0631d1596750,,,,,,,,,,,,,,,,,,,,,,,,,,,,,,,,,,,,,,,,,,,,,,,,,,,,,,,,,,,,,,,,,,,,,,,,,,,,3,0,3,0,1,,,,,,,,,,,,,,,,,,,,,
,,,,,,,,,,,,611a9f9591ef82d19cfc5db1,19,Kobieta,2022-06-11_09h30.45.777,task,2021.1.4,Win32,59.31198102,6299f149e92ead563fba08ef,62a4447377be0631d1596750,,,,,,,,,,,,,,,,,,,,,,,,,,,,,,,,,,,,,,,,,,,,,,,,,,,,,,,,,,,,,,,,,,,,,,,,,,,,,,,,,xkkv,"[""x"",""k"",""k"",""v""]",0,"[1.705600000001482,2.1964000000022565,2.418200000002969,2.6644999999999754,3.1678000000007387]",1,XKKV,2,0,2,0,1,,,,,,,,,,
,,,,,,,,,,,,611a9f9591ef82d19cfc5db1,19,Kobieta,2022-06-11_09h30.45.777,task,2021.1.4,Win32,59.31198102,6299f149e92ead563fba08ef,62a4447377be0631d1596750,,,,,,,,,,,,,7,,,,,,,,,,Task,31,(4/2) + 5,7,,,,,,,,,,,,,,,,,,,1,,,,,,,,,,,,,,,,,,,,,,,"[""7""]",1,[1.9838999999985276],0,0,0,30,1,,,,,,,,,,,,,,,,,,,,,,,,,,
,,,,,,,,,,,X V Q F H G B L J M P D K C T S W R N Z,611a9f9591ef82d19cfc5db1,19,Kobieta,2022-06-11_09h30.45.777,task,2021.1.4,Win32,59.31198102,6299f149e92ead563fba08ef,62a4447377be0631d1596750,,,,,,,,,,,,,,,,,,,,,,,,,,,,,,,,,,,,,,,,,,,,,,,,,,,,,,,,,,,,,,,,,,,,,,,,,,,,0,0,0,0,1,,,,,,,,,,,,,,,,,,,,,
,,,,,,,,,,,,611a9f9591ef82d19cfc5db1,19,Kobieta,2022-06-11_09h30.45.777,task,2021.1.4,Win32,59.31198102,6299f149e92ead563fba08ef,62a4447377be0631d1596750,,,,,,,,,,,,,7,,,,,,,,,,Task,31,(4/2) + 5,7,,,,,,,,,,,,,,,,,,,1,,,,,,,,,,,,,,,,,,,,,,,"[""7""]",1,[1.9173000000006937],0,0,0,30,1,,,,,,,,,,,,,,,,,,,,,,,,,,
,,,,,,,,,,,X V Q F H G B L J M P D K C T S W R N Z,611a9f9591ef82d19cfc5db1,19,Kobieta,2022-06-11_09h30.45.777,task,2021.1.4,Win32,59.31198102,6299f149e92ead563fba08ef,62a4447377be0631d1596750,,,,,,,,,,,,,,,,,,,,,,,,,,,,,,,,,,,,,,,,,,,,,,,,,,,,,,,,,,,,,,,,,,,,,,,,,,,,1,0,1,0,1,,,,,,,,,,,,,,,,,,,,,
,,,,,,,,,,,,611a9f9591ef82d19cfc5db1,19,Kobieta,2022-06-11_09h30.45.777,task,2021.1.4,Win32,59.31198102,6299f149e92ead563fba08ef,62a4447377be0631d1596750,,,,,,,,,,,,,8,,,,,,,,,,Task,23,(2x3) + 2,8,,,,,,,,,,,,,,,,,,,1,,,,,,,,,,,,,,,,,,,,,,,"[""8""]",1,[1.6481999999992354],0,0,0,22,1,,,,,,,,,,,,,,,,,,,,,,,,,,
,,,,,,,,,,,X V Q F H G B L J M P D K C T S W R N Z,611a9f9591ef82d19cfc5db1,19,Kobieta,2022-06-11_09h30.45.777,task,2021.1.4,Win32,59.31198102,6299f149e92ead563fba08ef,62a4447377be0631d1596750,,,,,,,,,,,,,,,,,,,,,,,,,,,,,,,,,,,,,,,,,,,,,,,,,,,,,,,,,,,,,,,,,,,,,,,,,,,,2,0,2,0,1,,,,,,,,,,,,,,,,,,,,,
,,,,,,,,,,,,611a9f9591ef82d19cfc5db1,19,Kobieta,2022-06-11_09h30.45.777,task,2021.1.4,Win32,59.31198102,6299f149e92ead563fba08ef,62a4447377be0631d1596750,,,,,,,,,,,,,7,,,,,,,,,,Task,14,(2x2) + 3,7,,,,,,,,,,,,,,,,,,,1,,,,,,,,,,,,,,,,,,,,,,,"[""7""]",1,[2.1628000000007432],0,0,0,13,1,,,,,,,,,,,,,,,,,,,,,,,,,,
,,,,,,,,,,,X V Q F H G B L J M P D K C T S W R N Z,611a9f9591ef82d19cfc5db1,19,Kobieta,2022-06-11_09h30.45.777,task,2021.1.4,Win32,59.31198102,6299f149e92ead563fba08ef,62a4447377be0631d1596750,,,,,,,,,,,,,,,,,,,,,,,,,,,,,,,,,,,,,,,,,,,,,,,,,,,,,,,,,,,,,,,,,,,,,,,,,,,,3,0,3,0,1,,,,,,,,,,,,,,,,,,,,,
,,,,,,,,,,,,611a9f9591ef82d19cfc5db1,19,Kobieta,2022-06-11_09h30.45.777,task,2021.1.4,Win32,59.31198102,6299f149e92ead563fba08ef,62a4447377be0631d1596750,,,,,,,,,,,,,2,,,,,,,,,,Task,10,(2x5) - 8,2,,,,,,,,,,,,,,,,,,,1,,,,,,,,,,,,,,,,,,,,,,,"[""2""]",1,[1.7655000000000882],0,0,0,9,1,,,,,,,,,,,,,,,,,,,,,,,,,,
,,,,,,,,,,,X V Q F H G B L J M P D K C T S W R N Z,611a9f9591ef82d19cfc5db1,19,Kobieta,2022-06-11_09h30.45.777,task,2021.1.4,Win32,59.31198102,6299f149e92ead563fba08ef,62a4447377be0631d1596750,,,,,,,,,,,,,,,,,,,,,,,,,,,,,,,,,,,,,,,,,,,,,,,,,,,,,,,,,,,,,,,,,,,,,,,,,,,,4,0,4,0,1,,,,,,,,,,,,,,,,,,,,,
,,,,,,,,,,,,611a9f9591ef82d19cfc5db1,19,Kobieta,2022-06-11_09h30.45.777,task,2021.1.4,Win32,59.31198102,6299f149e92ead563fba08ef,62a4447377be0631d1596750,,,,,,,,,,,,,,,,,,,,,,,,,,,,,,,,,,,,,,,,,,,,,,,,,,,,,,,,,,,,,,,,,,,,,,,,,,,,,,,,,pffvz,"[""p"",""f"",""f"",""v"",""z""]",0,"[1.8810000000000855,2.880199999999263,3.379099999997834,4.028399999998555,4.560899999998583,4.994099999997843]",1,PFFVZ,3,0,3,0,1,,,,,,,,,,
,,,,,,,,,,,,611a9f9591ef82d19cfc5db1,19,Kobieta,2022-06-11_09h30.45.777,task,2021.1.4,Win32,59.31198102,6299f149e92ead563fba08ef,62a4447377be0631d1596750,,,,,,,,,,,,,2,,,,,,,,,,Task,2,(2x2) - 2,2,,,,,,,,,,,,,,,,,,,1,,,,,,,,,,,,,,,,,,,,,,,"[""2""]",1,[2.029799999997067],0,0,0,1,1,,,,,,,,,,,,,,,,,,,,,,,,,,
,,,,,,,,,,,X V Q F H G B L J M P D K C T S W R N Z,611a9f9591ef82d19cfc5db1,19,Kobieta,2022-06-11_09h30.45.777,task,2021.1.4,Win32,59.31198102,6299f149e92ead563fba08ef,62a4447377be0631d1596750,,,,,,,,,,,,,,,,,,,,,,,,,,,,,,,,,,,,,,,,,,,,,,,,,,,,,,,,,,,,,,,,,,,,,,,,,,,,0,0,0,0,1,,,,,,,,,,,,,,,,,,,,,
,,,,,,,,,,,,611a9f9591ef82d19cfc5db1,19,Kobieta,2022-06-11_09h30.45.777,task,2021.1.4,Win32,59.31198102,6299f149e92ead563fba08ef,62a4447377be0631d1596750,,,,,,,,,,,,,8,,,,,,,,,,Task,23,(2x3) + 2,8,,,,,,,,,,,,,,,,,,,1,,,,,,,,,,,,,,,,,,,,,,,"[""8""]",1,[1.9464000000023134],0,0,0,22,1,,,,,,,,,,,,,,,,,,,,,,,,,,
,,,,,,,,,,,X V Q F H G B L J M P D K C T S W R N Z,611a9f9591ef82d19cfc5db1,19,Kobieta,2022-06-11_09h30.45.777,task,2021.1.4,Win32,59.31198102,6299f149e92ead563fba08ef,62a4447377be0631d1596750,,,,,,,,,,,,,,,,,,,,,,,,,,,,,,,,,,,,,,,,,,,,,,,,,,,,,,,,,,,,,,,,,,,,,,,,,,,,1,0,1,0,1,,,,,,,,,,,,,,,,,,,,,
,,,,,,,,,,,,611a9f9591ef82d19cfc5db1,19,Kobieta,2022-06-11_09h30.45.777,task,2021.1.4,Win32,59.31198102,6299f149e92ead563fba08ef,62a4447377be0631d1596750,,,,,,,,,,,,,3,,,,,,,,,,Task,27,(3/3) + 2,3,,,,,,,,,,,,,,,,,,,1,,,,,,,,,,,,,,,,,,,,,,,"[""3""]",1,[2.066600000001472],0,0,0,26,1,,,,,,,,,,,,,,,,,,,,,,,,,,
,,,,,,,,,,,X V Q F H G B L J M P D K C T S W R N Z,611a9f9591ef82d19cfc5db1,19,Kobieta,2022-06-11_09h30.45.777,task,2021.1.4,Win32,59.31198102,6299f149e92ead563fba08ef,62a4447377be0631d1596750,,,,,,,,,,,,,,,,,,,,,,,,,,,,,,,,,,,,,,,,,,,,,,,,,,,,,,,,,,,,,,,,,,,,,,,,,,,,2,0,2,0,1,,,,,,,,,,,,,,,,,,,,,
,,,,,,,,,,,,611a9f9591ef82d19cfc5db1,19,Kobieta,2022-06-11_09h30.45.777,task,2021.1.4,Win32,59.31198102,6299f149e92ead563fba08ef,62a4447377be0631d1596750,,,,,,,,,,,,,9,,,,,,,,,,Task,7,(3x7) - 12,9,,,,,,,,,,,,,,,,,,,1,,,,,,,,,,,,,,,,,,,,,,,"[""9""]",1,[2.50750000000005],0,0,0,6,1,,,,,,,,,,,,,,,,,,,,,,,,,,
,,,,,,,,,,,X V Q F H G B L J M P D K C T S W R N Z,611a9f9591ef82d19cfc5db1,19,Kobieta,2022-06-11_09h30.45.777,task,2021.1.4,Win32,59.31198102,6299f149e92ead563fba08ef,62a4447377be0631d1596750,,,,,,,,,,,,,,,,,,,,,,,,,,,,,,,,,,,,,,,,,,,,,,,,,,,,,,,,,,,,,,,,,,,,,,,,,,,,3,0,3,0,1,,,,,,,,,,,,,,,,,,,,,
,,,,,,,,,,,,611a9f9591ef82d19cfc5db1,19,Kobieta,2022-06-11_09h30.45.777,task,2021.1.4,Win32,59.31198102,6299f149e92ead563fba08ef,62a4447377be0631d1596750,,,,,,,,,,,,,7,,,,,,,,,,Task,38,(4x6) - 17,7,,,,,,,,,,,,,,,,,,,1,,,,,,,,,,,,,,,,,,,,,,,"[""7""]",1,[2.830000000000041],0,0,0,37,1,,,,,,,,,,,,,,,,,,,,,,,,,,
,,,,,,,,,,,X V Q F H G B L J M P D K C T S W R N Z,611a9f9591ef82d19cfc5db1,19,Kobieta,2022-06-11_09h30.45.777,task,2021.1.4,Win32,59.31198102,6299f149e92ead563fba08ef,62a4447377be0631d1596750,,,,,,,,,,,,,,,,,,,,,,,,,,,,,,,,,,,,,,,,,,,,,,,,,,,,,,,,,,,,,,,,,,,,,,,,,,,,4,0,4,0,1,,,,,,,,,,,,,,,,,,,,,
,,,,,,,,,,,,611a9f9591ef82d19cfc5db1,19,Kobieta,2022-06-11_09h30.45.777,task,2021.1.4,Win32,59.31198102,6299f149e92ead563fba08ef,62a4447377be0631d1596750,,,,,,,,,,,,,3,,,,,,,,,,Task,20,(18/9) + 1,3,,,,,,,,,,,,,,,,,,,1,,,,,,,,,,,,,,,,,,,,,,,"[""3""]",1,[3.8853000000007114],0,0,0,19,1,,,,,,,,,,,,,,,,,,,,,,,,,,
,,,,,,,,,,,X V Q F H G B L J M P D K C T S W R N Z,611a9f9591ef82d19cfc5db1,19,Kobieta,2022-06-11_09h30.45.777,task,2021.1.4,Win32,59.31198102,6299f149e92ead563fba08ef,62a4447377be0631d1596750,,,,,,,,,,,,,,,,,,,,,,,,,,,,,,,,,,,,,,,,,,,,,,,,,,,,,,,,,,,,,,,,,,,,,,,,,,,,5,0,5,0,1,,,,,,,,,,,,,,,,,,,,,
,,,,,,,,,,,,611a9f9591ef82d19cfc5db1,19,Kobieta,2022-06-11_09h30.45.777,task,2021.1.4,Win32,59.31198102,6299f149e92ead563fba08ef,62a4447377be0631d1596750,,,,,,,,,,,,,,,,,,,,,,,,,,,,,,,,,,,,,,,,,,,,,,,,,,,,,,,,,,,,,,,,,,,,,,,,,,,,,,,,,fbqmkt,"[""f"",""b"",""q"",""m"",""k"",""t""]",0,"[2.083499999999958,3.0570999999977175,3.6143000000006396,4.1784999999999854,4.69399999999996,5.102199999999243,5.460999999999899]",0,FBKMQT,4,0,4,0,1,,,,,,,,,,
,,,,,,,,,,,,611a9f9591ef82d19cfc5db1,19,Kobieta,2022-06-11_09h30.45.777,task,2021.1.4,Win32,59.31198102,6299f149e92ead563fba08ef,62a4447377be0631d1596750,,,,,,,,,,,,,5,,,,,,,,,,Task,12,(4x4) - 11,5,,,,,,,,,,,,,,,,,,,1,,,,,,,,,,,,,,,,,,,,,,,"[""5""]",1,[1.9416999999992868],0,0,0,11,1,,,,,,,,,,,,,,,,,,,,,,,,,,
,,,,,,,,,,,X V Q F H G B L J M P D K C T S W R N Z,611a9f9591ef82d19cfc5db1,19,Kobieta,2022-06-11_09h30.45.777,task,2021.1.4,Win32,59.31198102,6299f149e92ead563fba08ef,62a4447377be0631d1596750,,,,,,,,,,,,,,,,,,,,,,,,,,,,,,,,,,,,,,,,,,,,,,,,,,,,,,,,,,,,,,,,,,,,,,,,,,,,0,0,0,0,1,,,,,,,,,,,,,,,,,,,,,
,,,,,,,,,,,,611a9f9591ef82d19cfc5db1,19,Kobieta,2022-06-11_09h30.45.777,task,2021.1.4,Win32,59.31198102,6299f149e92ead563fba08ef,62a4447377be0631d1596750,,,,,,,,,,,,,4,,,,,,,,,,Task,11,(18/3) - 2,4,,,,,,,,,,,,,,,,,,,1,,,,,,,,,,,,,,,,,,,,,,,"[""4""]",1,[2.7487999999970043],0,0,0,10,1,,,,,,,,,,,,,,,,,,,,,,,,,,
,,,,,,,,,,,X V Q F H G B L J M P D K C T S W R N Z,611a9f9591ef82d19cfc5db1,19,Kobieta,2022-06-11_09h30.45.777,task,2021.1.4,Win32,59.31198102,6299f149e92ead563fba08ef,62a4447377be0631d1596750,,,,,,,,,,,,,,,,,,,,,,,,,,,,,,,,,,,,,,,,,,,,,,,,,,,,,,,,,,,,,,,,,,,,,,,,,,,,1,0,1,0,1,,,,,,,,,,,,,,,,,,,,,
,,,,,,,,,,,,611a9f9591ef82d19cfc5db1,19,Kobieta,2022-06-11_09h30.45.777,task,2021.1.4,Win32,59.31198102,6299f149e92ead563fba08ef,62a4447377be0631d1596750,,,,,,,,,,,,,5,,,,,,,,,,Task,22,(3x1) + 2,5,,,,,,,,,,,,,,,,,,,1,,,,,,,,,,,,,,,,,,,,,,,"[""5""]",1,[1.831800000000726],0,0,0,21,1,,,,,,,,,,,,,,,,,,,,,,,,,,
,,,,,,,,,,,X V Q F H G B L J M P D K C T S W R N Z,611a9f9591ef82d19cfc5db1,19,Kobieta,2022-06-11_09h30.45.777,task,2021.1.4,Win32,59.31198102,6299f149e92ead563fba08ef,62a4447377be0631d1596750,,,,,,,,,,,,,,,,,,,,,,,,,,,,,,,,,,,,,,,,,,,,,,,,,,,,,,,,,,,,,,,,,,,,,,,,,,,,2,0,2,0,1,,,,,,,,,,,,,,,,,,,,,
,,,,,,,,,,,,611a9f9591ef82d19cfc5db1,19,Kobieta,2022-06-11_09h30.45.777,task,2021.1.4,Win32,59.31198102,6299f149e92ead563fba08ef,62a4447377be0631d1596750,,,,,,,,,,,,,2,,,,,,,,,,Task,19,(6/2) - 1,2,,,,,,,,,,,,,,,,,,,1,,,,,,,,,,,,,,,,,,,,,,,"[""2""]",1,[1.802000000000021],0,0,0,18,1,,,,,,,,,,,,,,,,,,,,,,,,,,
,,,,,,,,,,,X V Q F H G B L J M P D K C T S W R N Z,611a9f9591ef82d19cfc5db1,19,Kobieta,2022-06-11_09h30.45.777,task,2021.1.4,Win32,59.31198102,6299f149e92ead563fba08ef,62a4447377be0631d1596750,,,,,,,,,,,,,,,,,,,,,,,,,,,,,,,,,,,,,,,,,,,,,,,,,,,,,,,,,,,,,,,,,,,,,,,,,,,,3,0,3,0,1,,,,,,,,,,,,,,,,,,,,,
,,,,,,,,,,,,611a9f9591ef82d19cfc5db1,19,Kobieta,2022-06-11_09h30.45.777,task,2021.1.4,Win32,59.31198102,6299f149e92ead563fba08ef,62a4447377be0631d1596750,,,,,,,,,,,,,4,,,,,,,,,,Task,21,(10/2) - 1,4,,,,,,,,,,,,,,,,,,,1,,,,,,,,,,,,,,,,,,,,,,,"[""4""]",1,[1.8163999999985663],0,0,0,20,1,,,,,,,,,,,,,,,,,,,,,,,,,,
,,,,,,,,,,,X V Q F H G B L J M P D K C T S W R N Z,611a9f9591ef82d19cfc5db1,19,Kobieta,2022-06-11_09h30.45.777,task,2021.1.4,Win32,59.31198102,6299f149e92ead563fba08ef,62a4447377be0631d1596750,,,,,,,,,,,,,,,,,,,,,,,,,,,,,,,,,,,,,,,,,,,,,,,,,,,,,,,,,,,,,,,,,,,,,,,,,,,,4,0,4,0,1,,,,,,,,,,,,,,,,,,,,,
,,,,,,,,,,,,611a9f9591ef82d19cfc5db1,19,Kobieta,2022-06-11_09h30.45.777,task,2021.1.4,Win32,59.31198102,6299f149e92ead563fba08ef,62a4447377be0631d1596750,,,,,,,,,,,,,5,,,,,,,,,,Task,22,(3x1) + 2,5,,,,,,,,,,,,,,,,,,,1,,,,,,,,,,,,,,,,,,,,,,,"[""5""]",1,[2.523599999997714],0,0,0,21,1,,,,,,,,,,,,,,,,,,,,,,,,,,
,,,,,,,,,,,X V Q F H G B L J M P D K C T S W R N Z,611a9f9591ef82d19cfc5db1,19,Kobieta,2022-06-11_09h30.45.777,task,2021.1.4,Win32,59.31198102,6299f149e92ead563fba08ef,62a4447377be0631d1596750,,,,,,,,,,,,,,,,,,,,,,,,,,,,,,,,,,,,,,,,,,,,,,,,,,,,,,,,,,,,,,,,,,,,,,,,,,,,5,0,5,0,1,,,,,,,,,,,,,,,,,,,,,
,,,,,,,,,,,,611a9f9591ef82d19cfc5db1,19,Kobieta,2022-06-11_09h30.45.777,task,2021.1.4,Win32,59.31198102,6299f149e92ead563fba08ef,62a4447377be0631d1596750,,,,,,,,,,,,,,,,,,,,,,,,,,,,,,,,,,,,,,,,,,,,,,,,,,,,,,,,,,,,,,,,,,,,,,,,,,,,,,,,,fdwjms,"[""f"",""d"",""w"",""j"",""m"",""s""]",0,"[1.98139999999853,2.7975000000000136,12.209799999997017,12.476599999997802,12.707799999997064,13.065899999998464,13.905099999997788]",0,FDVJMS,5,0,5,0,1,,,,,,,,,,
,,,,,,,,,,,,611a9f9591ef82d19cfc5db1,19,Kobieta,2022-06-11_09h30.45.777,task,2021.1.4,Win32,59.31198102,6299f149e92ead563fba08ef,62a4447377be0631d1596750,,,,,,,,,,,,,,,,,,,,,,,,,,,,,,,,,,,,,,,,,,,,,,,,,,,,,,,,,,,,,,,,,,,,,,,,,,,,,,,,,,,,,,,,,,,,"[""comma""]",0,[0.5161000000015292],0,0,0,0,1,,
,,,,,,,,,,,,611a9f9591ef82d19cfc5db1,19,Kobieta,2022-06-11_09h30.45.777,task,2021.1.4,Win32,59.31198102,6299f149e92ead563fba08ef,62a4447377be0631d1596750,,,,,,,,,,,,,,,,,,,,,,,,,,,,,,,,,,,,,,,,,,,,,,,,,,,,,,,,,,,,,,,,,,,,,,,,,,,,,,,,,,,,,,,,,,,,"[""comma""]",0,[0.5037000000029366],1,0,1,0,1,,
,,,,,,,,,,,,611a9f9591ef82d19cfc5db1,19,Kobieta,2022-06-11_09h30.45.777,task,2021.1.4,Win32,59.31198102,6299f149e92ead563fba08ef,62a4447377be0631d1596750,,,,,,,,,,,,,,,,,,,,,,,,,,,,,,,,,,,,,,,,,,,,,,,,,,,,,,,,,,,,,,,,,,,,,,,,,,,,,,,,,,,,,,,,,,,,"[""period""]",0,[0.49330000000065866],2,0,2,0,1,,
,,,,,,,,,,,,611a9f9591ef82d19cfc5db1,19,Kobieta,2022-06-11_09h30.45.777,task,2021.1.4,Win32,59.31198102,6299f149e92ead563fba08ef,62a4447377be0631d1596750,,,,,,,,,,,,,,,,,,,,,,,,,,,,,,,,,,,,,,,,,,,,,,,,,,,,,,,,,,,,,,,,,,,,,,,,,,,,,,,,,,,,,,,,,,,,"[""comma""]",0,[0.647899999998458],3,0,3,0,1,,
,,,,,,,,,,,,611a9f9591ef82d19cfc5db1,19,Kobieta,2022-06-11_09h30.45.777,task,2021.1.4,Win32,59.31198102,6299f149e92ead563fba08ef,62a4447377be0631d1596750,,,,,,,,,,,,,,,,,,,,,,,,,,,,,,,,,,,,,,,,,,,,,,,,,,,,,,,,,,,,,,,,,,,,,,,,,,,,,,,,,,,,,,,,,,,,"[""period""]",0,[0.6661999999993213],4,0,4,0,1,,
,,,,,,,,,,,,611a9f9591ef82d19cfc5db1,19,Kobieta,2022-06-11_09h30.45.777,task,2021.1.4,Win32,59.31198102,6299f149e92ead563fba08ef,62a4447377be0631d1596750,,,,,,,,,,,,,,,,,,,,,,,,,,,,,,,,,,,,,,,,,,,,,,,,,,,,,,,,,,,,,,,,,,,,,,,,,,,,,,,,,,,,,,,,,,,,"[""period""]",0,[0.291599999997743],5,0,5,0,1,,
,,,,,,,,,,,,611a9f9591ef82d19cfc5db1,19,Kobieta,2022-06-11_09h30.45.777,task,2021.1.4,Win32,59.31198102,6299f149e92ead563fba08ef,62a4447377be0631d1596750,,,,,,,,,,,,,,,,,,,,,,,,,,,,,,,,,,,,,,,,,,,,,,,,,,,,,,,,,,,,,,,,,,,,,,,,,,,,,,,,,,,,,,,,,,,,"[""period""]",0,[0.3746999999991658],6,0,6,0,1,,
,,,,,,,,,,,,611a9f9591ef82d19cfc5db1,19,Kobieta,2022-06-11_09h30.45.777,task,2021.1.4,Win32,59.31198102,6299f149e92ead563fba08ef,62a4447377be0631d1596750,,,,,,,,,,,,,,,,,,,,,,,,,,,,,,,,,,,,,,,,,,,,,,,,,,,,,,,,,,,,,,,,,,,,,,,,,,,,,,,,,,,,,,,,,,,,"[""comma""]",0,[0.2766000000015083],7,0,7,0,1,,
,,,,,,,,,,,,611a9f9591ef82d19cfc5db1,19,Kobieta,2022-06-11_09h30.45.777,task,2021.1.4,Win32,59.31198102,6299f149e92ead563fba08ef,62a4447377be0631d1596750,,,,,,,,,,,,,,,,,,,,,,,,,,,,,,,,,,,,,,,,,,,,,,,,,,,,,,,,,,,,,,,,,,,,,,,,,,,,,,,,,,,,,,,,,,,,"[""period""]",0,[0.2896999999992431],8,0,8,0,1,,
,,,,,,,,,,,,611a9f9591ef82d19cfc5db1,19,Kobieta,2022-06-11_09h30.45.777,task,2021.1.4,Win32,59.31198102,6299f149e92ead563fba08ef,62a4447377be0631d1596750,,,,,,,,,,,,,,,,,,,,,,,,,,,,,,,,,,,,,,,,,,,,,,,,,,,,,,,,,,,,,,,,,,,,,,,,,,,,,,,,,,,,,,,,,,,,"[""period""]",0,[0.2483000000007678],9,0,9,0,1,,
,,,,,,,,,,,,611a9f9591ef82d19cfc5db1,19,Kobieta,2022-06-11_09h30.45.777,task,2021.1.4,Win32,59.31198102,6299f149e92ead563fba08ef,62a4447377be0631d1596750,,,,,,,,,,,,,,,,,,,,,,,,,,,,,,,,,,,,,,,,,,,,,,,,,,,,,,,,,,,,,,,,,,,,,,,,,,,,,,,,,,,,,,,,,,,,"[""comma""]",0,[0.15050000000007913],10,0,10,0,1,,
,,,,,,,,,,,,611a9f9591ef82d19cfc5db1,19,Kobieta,2022-06-11_09h30.45.777,task,2021.1.4,Win32,59.31198102,6299f149e92ead563fba08ef,62a4447377be0631d1596750,,,,,,,,,,,,,,,,,,,,,,,,,,,,,,,,,,,,,,,,,,,,,,,,,,,,,,,,,,,,,,,,,,,,,,,,,,,,,,,,,,,,,,,,,,,,"[""period""]",0,[0.22719999999924312],11,0,11,0,1,,
,,,,,,,,,,,,611a9f9591ef82d19cfc5db1,19,Kobieta,2022-06-11_09h30.45.777,task,2021.1.4,Win32,59.31198102,6299f149e92ead563fba08ef,62a4447377be0631d1596750,,,,,,,,,,,,,,,,,,,,,,,,,,,,,,,,,,,,,,,,,,,,,,,,,,,,,,,,,,,,,,,,,,,,,,,,,,,,,,,,,,,,,,,,,,,,"[""comma""]",0,[0.0831000000015365],12,0,12,0,1,,
,,,,,,,,,,,,611a9f9591ef82d19cfc5db1,19,Kobieta,2022-06-11_09h30.45.777,task,2021.1.4,Win32,59.31198102,6299f149e92ead563fba08ef,62a4447377be0631d1596750,,,,,,,,,,,,,,,,,,,,,,,,,,,,,,,,,,,,,,,,,,,,,,,,,,,,,,,,,,,,,,,,,,,,,,,,,,,,,,,,,,,,,,,,,,,,"[""comma""]",0,[0.2241000000014992],13,0,13,0,1,,
,,,,,,,,,,,,611a9f9591ef82d19cfc5db1,19,Kobieta,2022-06-11_09h30.45.777,task,2021.1.4,Win32,59.31198102,6299f149e92ead563fba08ef,62a4447377be0631d1596750,,,,,,,,,,,,,,,,,,,,,,,,,,,,,,,,,,,,,,,,,,,,,,,,,,,,,,,,,,,,,,,,,,,,,,,,,,,,,,,,,,,,,,,,,,,,"[""comma""]",0,[0.22400000000004638],14,0,14,0,1,,
,,,,,,,,,,,,611a9f9591ef82d19cfc5db1,19,Kobieta,2022-06-11_09h30.45.777,task,2021.1.4,Win32,59.31198102,6299f149e92ead563fba08ef,62a4447377be0631d1596750,,,,,,,,,,,,,,,,,,,,,,,,,,,,,,,,,,,,,,,,,,,,,,,,,,,,,,,,,,,,,,,,,,,,,,,,,,,,,,,,,,,,,,,,,,,,"[""period""]",0,[0.2531000000014956],15,0,15,0,1,,
,,,,,,,,,,,,611a9f9591ef82d19cfc5db1,19,Kobieta,2022-06-11_09h30.45.777,task,2021.1.4,Win32,59.31198102,6299f149e92ead563fba08ef,62a4447377be0631d1596750,,,,,,,,,,,,,,,,,,,,,,,,,,,,,,,,,,,,,,,,,,,,,,,,,,,,,,,,,,,,,,,,,,,,,,,,,,,,,,,,,,,,,,,,,,,,"[""period"",""comma""]",0,"[0.27659999999775664,1.956199999999285]",16,0,16,0,1,,
,,,,,,,,,,,,611a9f9591ef82d19cfc5db1,19,Kobieta,2022-06-11_09h30.45.777,task,2021.1.4,Win32,59.31198102,6299f149e92ead563fba08ef,62a4447377be0631d1596750,,,,,,,,,,,,,,,,,,,,,,,,,,,,,,,,,,,,,,,,,,,,,,,,,,,,,,,,,,,,,,,,,,,,,,,,,,,,,,,,,,,,,,,,,,,,,0,,17,0,17,0,1,,
,,,,,,,,,,,,611a9f9591ef82d19cfc5db1,19,Kobieta,2022-06-11_09h30.45.777,task,2021.1.4,Win32,59.31198102,6299f149e92ead563fba08ef,62a4447377be0631d1596750,,,,,,,,,,,,,,,,,,,,,,,,,,,,,,,,,,,,,,,,,,,,,,,,,,,,,,,,,,,,,,,,,,,,,,,,,,,,,,,,,,,,,,,,,,,,"[""period""]",0,[0.2508999999985235],18,0,18,0,1,,
,,,,,,,,,,,,611a9f9591ef82d19cfc5db1,19,Kobieta,2022-06-11_09h30.45.777,task,2021.1.4,Win32,59.31198102,6299f149e92ead563fba08ef,62a4447377be0631d1596750,,,,,,,,,,,,,,,,,,,,,,,,,,,,,,,,,,,,,,,,,,,,,,,,,,,,,,,,,,,,,,,,,,,,,,,,,,,,,,,,,,,,,,,,,,,,"[""comma""]",0,[0.2724999999999227],19,0,19,0,1,,
,,,,,,,,,,,,611a9f9591ef82d19cfc5db1,19,Kobieta,2022-06-11_09h30.45.777,task,2021.1.4,Win32,59.31198102,6299f149e92ead563fba08ef,62a4447377be0631d1596750,,,,,,,,,,,,,,,,,,,,,,,,,,,,,,,,,,,,,,,,,,,,,,,,,,,,,,,,,,,,,,,,,,,,,,,,,,,,,,,,,,,,,,,,,,,,"[""comma""]",0,[0.14919999999926858],20,0,20,0,1,,
,,,,,,,,,,,,611a9f9591ef82d19cfc5db1,19,Kobieta,2022-06-11_09h30.45.777,task,2021.1.4,Win32,59.31198102,6299f149e92ead563fba08ef,62a4447377be0631d1596750,,,,,,,,,,,,,,,,,,,,,,,,,,,,,,,,,,,,,,,,,,,,,,,,,,,,,,,,,,,,,,,,,,,,,,,,,,,,,,,,,,,,,,,,,,,,"[""comma""]",0,[0.060100000001511944],21,0,21,0,1,,
,,,,,,,,,,,,611a9f9591ef82d19cfc5db1,19,Kobieta,2022-06-11_09h30.45.777,task,2021.1.4,Win32,59.31198102,6299f149e92ead563fba08ef,62a4447377be0631d1596750,,,,,,,,,,,,,,,,,,,,,,,,,,,,,,,,,,,,,,,,,,,,,,,,,,,,,,,,,,,,,,,,,,,,,,,,,,,,,,,,,,,,,,,,,,,,"[""period""]",0,[0.10850000000004911],22,0,22,0,1,,
,,,,,,,,,,,,611a9f9591ef82d19cfc5db1,19,Kobieta,2022-06-11_09h30.45.777,task,2021.1.4,Win32,59.31198102,6299f149e92ead563fba08ef,62a4447377be0631d1596750,,,,,,,,,,,,,,,,,,,,,,,,,,,,,,,,,,,,,,,,,,,,,,,,,,,,,,,,,,,,,,,,,,,,,,,,,,,,,,,,,,,,,,,,,,,,"[""comma""]",0,[0.0658999999985781],23,0,23,0,1,,
,,,,,,,,,,,,611a9f9591ef82d19cfc5db1,19,Kobieta,2022-06-11_09h30.45.777,task,2021.1.4,Win32,59.31198102,6299f149e92ead563fba08ef,62a4447377be0631d1596750,,,,,,,,,,,,,,,,,,,,,,,,,,,,,,,,,,,,,,,,,,,,,,,,,,,,,,,,,,,,,,,,,,,,,,,,,,,,,,,,,,,,,,,,,,,,"[""comma"",""period""]",0,"[0.24420000000293385,1.9471000000014556]",24,0,24,0,1,,
,,,,,,,,,,,,611a9f9591ef82d19cfc5db1,19,Kobieta,2022-06-11_09h30.45.777,task,2021.1.4,Win32,59.31198102,6299f149e92ead563fba08ef,62a4447377be0631d1596750,,,,,,,,,,,,,,,,,,,,,,,,,,,,,,,,,,,,,,,,,,,,,,,,,,,,,,,,,,,,,,,,,,,,,,,,,,,,,,,,,,,,,,,,,,,,,0,,25,0,25,0,1,,
,,,,,,,,,,,,611a9f9591ef82d19cfc5db1,19,Kobieta,2022-06-11_09h30.45.777,task,2021.1.4,Win32,59.31198102,6299f149e92ead563fba08ef,62a4447377be0631d1596750,,,,,,,,,,,,,,,,,,,,,,,,,,,,,,,,,,,,,,,,,,,,,,,,,,,,,,,,,,,,,,,,,,,,,,,,,,,,,,,,,,,,,,,,,,,,"[""period""]",0,[0.22280000000080236],26,0,26,0,1,,
,,,,,,,,,,,,611a9f9591ef82d19cfc5db1,19,Kobieta,2022-06-11_09h30.45.777,task,2021.1.4,Win32,59.31198102,6299f149e92ead563fba08ef,62a4447377be0631d1596750,,,,,,,,,,,,,,,,,,,,,,,,,,,,,,,,,,,,,,,,,,,,,,,,,,,,,,,,,,,,,,,,,,,,,,,,,,,,,,,,,,,,,,,,,,,,"[""period""]",0,[0.13219999999921583],27,0,27,0,1,,
,,,,,,,,,,,,611a9f9591ef82d19cfc5db1,19,Kobieta,2022-06-11_09h30.45.777,task,2021.1.4,Win32,59.31198102,6299f149e92ead563fba08ef,62a4447377be0631d1596750,,,,,,,,,,,,,,,,,,,,,,,,,,,,,,,,,,,,,,,,,,,,,,,,,,,,,,,,,,,,,,,,,,,,,,,,,,,,,,,,,,,,,,,,,,,,"[""comma""]",0,[0.03269999999929496],28,0,28,0,1,,
,,,,,,,,,,,,611a9f9591ef82d19cfc5db1,19,Kobieta,2022-06-11_09h30.45.777,task,2021.1.4,Win32,59.31198102,6299f149e92ead563fba08ef,62a4447377be0631d1596750,,,,,,,,,,,,,,,,,,,,,,,,,,,,,,,,,,,,,,,,,,,,,,,,,,,,,,,,,,,,,,,,,,,,,,,,,,,,,,,,,,,,,,,,,,,,"[""period""]",0,[0.23209999999778574],29,0,29,0,1,,
,,,,,,,,,,,,611a9f9591ef82d19cfc5db1,19,Kobieta,2022-06-11_09h30.45.777,task,2021.1.4,Win32,59.31198102,6299f149e92ead563fba08ef,62a4447377be0631d1596750,,,,,,,,,,,,,,,,,,,,,,,,,,,,,,,,,,,,,,,,,,,,,,,,,,,,,,,,,,,,,,,,,,,,,,,,,,,,,,,,,,,,,,,,,,,,"[""comma""]",0,[0.22449999999992087],30,0,30,0,1,,
,,,,,,,,,,,,611a9f9591ef82d19cfc5db1,19,Kobieta,2022-06-11_09h30.45.777,task,2021.1.4,Win32,59.31198102,6299f149e92ead563fba08ef,62a4447377be0631d1596750,,,,,,,,,,,,,,,,,,,,,,,,,,,,,,,,,,,,,,,,,,,,,,,,,,,,,,,,,,,,,,,,,,,,,,,,,,,,,,,,,,,,,,,,,,,,"[""comma""]",0,[0.23249999999995907],31,0,31,0,1,,
,,,,,,,,,,,,611a9f9591ef82d19cfc5db1,19,Kobieta,2022-06-11_09h30.45.777,task,2021.1.4,Win32,59.31198102,6299f149e92ead563fba08ef,62a4447377be0631d1596750,,,,,,,,,,,,,,,,,,,,,,,,,,,,,,,,,,,,,,,,,,,,,,,,,,,,,,,,,,,,,,,,,,,,,,,,,,,,,,,,,,,,,,,,,,,,"[""period""]",0,[0.2531999999993104],32,0,32,0,1,,
,,,,,,,,,,,,611a9f9591ef82d19cfc5db1,19,Kobieta,2022-06-11_09h30.45.777,task,2021.1.4,Win32,59.31198102,6299f149e92ead563fba08ef,62a4447377be0631d1596750,,,,,,,,,,,,,,,,,,,,,,,,,,,,,,,,,,,,,,,,,,,,,,,,,,,,,,,,,,,,,,,,,,,,,,,,,,,,,,,,,,,,,,,,,,,,"[""comma""]",0,[0.2694000000021788],33,0,33,0,1,,
,,,,,,,,,,,,611a9f9591ef82d19cfc5db1,19,Kobieta,2022-06-11_09h30.45.777,task,2021.1.4,Win32,59.31198102,6299f149e92ead563fba08ef,62a4447377be0631d1596750,,,,,,,,,,,,,,,,,,,,,,,,,,,,,,,,,,,,,,,,,,,,,,,,,,,,,,,,,,,,,,,,,,,,,,,,,,,,,,,,,,,,,,,,,,,,"[""period""]",0,[0.2336999999992031],34,0,34,0,1,,
,,,,,,,,,,,,611a9f9591ef82d19cfc5db1,19,Kobieta,2022-06-11_09h30.45.777,task,2021.1.4,Win32,59.31198102,6299f149e92ead563fba08ef,62a4447377be0631d1596750,,,,,,,,,,,,,,,,,,,,,,,,,,,,,,,,,,,,,,,,,,,,,,,,,,,,,,,,,,,,,,,,,,,,,,,,,,,,,,,,,,,,,,,,,,,,"[""period""]",0,[0.20880000000079235],35,0,35,0,1,,
,,,,,,,,,,,,611a9f9591ef82d19cfc5db1,19,Kobieta,2022-06-11_09h30.45.777,task,2021.1.4,Win32,59.31198102,6299f149e92ead563fba08ef,62a4447377be0631d1596750,,,,,,,,,,,,,,,,,,,,,,,,,,,,,,,,,,,,,,,,,,,,,,,,,,,,,,,,,,,,,,,,,,,,,,,,,,,,,,,,,,,,,,,,,,,,"[""comma""]",0,[0.082800000000816],36,0,36,0,1,,
,,,,,,,,,,,,611a9f9591ef82d19cfc5db1,19,Kobieta,2022-06-11_09h30.45.777,task,2021.1.4,Win32,59.31198102,6299f149e92ead563fba08ef,62a4447377be0631d1596750,,,,,,,,,,,,,,,,,,,,,,,,,,,,,,,,,,,,,,,,,,,,,,,,,,,,,,,,,,,,,,,,,,,,,,,,,,,,,,,,,,,,,,,,,,,,"[""period""]",0,[0.21740000000227155],37,0,37,0,1,,
,,,,,,,,,,,,611a9f9591ef82d19cfc5db1,19,Kobieta,2022-06-11_09h30.45.777,task,2021.1.4,Win32,59.31198102,6299f149e92ead563fba08ef,62a4447377be0631d1596750,,,,,,,,,,,,,,,,,,,,,,,,,,,,,,,,,,,,,,,,,,,,,,,,,,,,,,,,,,,,,,,,,,,,,,,,,,,,,,,,,,,,,,,,,,,,"[""comma""]",0,[0.18369999999924858],38,0,38,0,1,,
,,,,,,,,,,,,611a9f9591ef82d19cfc5db1,19,Kobieta,2022-06-11_09h30.45.777,task,2021.1.4,Win32,59.31198102,6299f149e92ead563fba08ef,62a4447377be0631d1596750,,,,,,,,,,,,,,,,,,,,,,,,,,,,,,,,,,,,,,,,,,,,,,,,,,,,,,,,,,,,,,,,,,,,,,,,,,,,,,,,,,,,,,,,,,,,"[""comma""]",0,[0.202100000001451],39,0,39,0,1,,
,,,,,,,,,,,,611a9f9591ef82d19cfc5db1,19,Kobieta,2022-06-11_09h30.45.777,task,2021.1.4,Win32,59.31198102,6299f149e92ead563fba08ef,62a4447377be0631d1596750,,,,,,,,,,,,,,,,,,,,,,,,,,,,,,,,,,,,,,,,,,,,,,,,,,,,,,,,,,,,,,,,,,,,,,,,,,,,,,,,,,,,,,,,,,,,"[""period""]",0,[0.23760000000152104],40,0,40,0,1,,
,,,,,,,,,,,,611a9f9591ef82d19cfc5db1,19,Kobieta,2022-06-11_09h30.45.777,task,2021.1.4,Win32,59.31198102,6299f149e92ead563fba08ef,62a4447377be0631d1596750,,,,,,,,,,,,,,,,,,,,,,,,,,,,,,,,,,,,,,,,,,,,,,,,,,,,,,,,,,,,,,,,,,,,,,,,,,,,,,,,,,,,,,,,,,,,"[""period""]",0,[0.13519999999925858],41,0,41,0,1,,
,,,,,,,,,,,,611a9f9591ef82d19cfc5db1,19,Kobieta,2022-06-11_09h30.45.777,task,2021.1.4,Win32,59.31198102,6299f149e92ead563fba08ef,62a4447377be0631d1596750,,,,,,,,,,,,,,,,,,,,,,,,,,,,,,,,,,,,,,,,,,,,,,,,,,,,,,,,,,,,,,,,,,,,,,,,,,,,,,,,,,,,,,,,,,,,"[""period"",""comma""]",0,"[0.009699999999270403,1.8136000000015429]",42,0,42,0,1,,
,,,,,,,,,,,,611a9f9591ef82d19cfc5db1,19,Kobieta,2022-06-11_09h30.45.777,task,2021.1.4,Win32,59.31198102,6299f149e92ead563fba08ef,62a4447377be0631d1596750,,,,,,,,,,,,,,,,,,,,,,,,,,,,,,,,,,,,,,,,,,,,,,,,,,,,,,,,,,,,,,,,,,,,,,,,,,,,,,,,,,,,,,,,,,,,,0,,43,0,43,0,1,,
,,,,,,,,,,,,611a9f9591ef82d19cfc5db1,19,Kobieta,2022-06-11_09h30.45.777,task,2021.1.4,Win32,59.31198102,6299f149e92ead563fba08ef,62a4447377be0631d1596750,,,,,,,,,,,,,,,,,,,,,,,,,,,,,,,,,,,,,,,,,,,,,,,,,,,,,,,,,,,,,,,,,,,,,,,,,,,,,,,,,,,,,,,,,,,,"[""comma""]",0,[0.08330000000069049],44,0,44,0,1,,
,,,,,,,,,,,,611a9f9591ef82d19cfc5db1,19,Kobieta,2022-06-11_09h30.45.777,task,2021.1.4,Win32,59.31198102,6299f149e92ead563fba08ef,62a4447377be0631d1596750,,,,,,,,,,,,,,,,,,,,,,,,,,,,,,,,,,,,,,,,,,,,,,,,,,,,,,,,,,,,,,,,,,,,,,,,,,,,,,,,,,,,,,,,,,,,"[""period""]",0,[0.25189999999861357],45,0,45,0,1,,
,,,,,,,,,,,,611a9f9591ef82d19cfc5db1,19,Kobieta,2022-06-11_09h30.45.777,task,2021.1.4,Win32,59.31198102,6299f149e92ead563fba08ef,62a4447377be0631d1596750,,,,,,,,,,,,,,,,,,,,,,,,,,,,,,,,,,,,,,,,,,,,,,,,,,,,,,,,,,,,,,,,,,,,,,,,,,,,,,,,,,,,,,,,,,,,"[""comma"",""period""]",0,"[0.2746000000014419,1.966100000001461]",46,0,46,0,1,,
,,,,,,,,,,,,611a9f9591ef82d19cfc5db1,19,Kobieta,2022-06-11_09h30.45.777,task,2021.1.4,Win32,59.31198102,6299f149e92ead563fba08ef,62a4447377be0631d1596750,,,,,,,,,,,,,,,,,,,,,,,,,,,,,,,,,,,,,,,,,,,,,,,,,,,,,,,,,,,,,,,,,,,,,,,,,,,,,,,,,,,,,,,,,,,,,0,,47,0,47,0,1,,
,,,,,,,,,,,,611a9f9591ef82d19cfc5db1,19,Kobieta,2022-06-11_09h30.45.777,task,2021.1.4,Win32,59.31198102,6299f149e92ead563fba08ef,62a4447377be0631d1596750,,,,,,,,,,,,,,,,,,,,,,,,,,,,,,,,,,,,,,,,,,,,,,,,,,,,,,,,,,,,,,,,,,,,,,,,,,,,,,,,,,,,,,,,,,,,"[""period""]",0,[0.016699999999218562],48,0,48,0,1,,
,,,,,,,,,,,,611a9f9591ef82d19cfc5db1,19,Kobieta,2022-06-11_09h30.45.777,task,2021.1.4,Win32,59.31198102,6299f149e92ead563fba08ef,62a4447377be0631d1596750,,,,,,,,,,,,,,,,,,,,,,,,,,,,,,,,,,,,,,,,,,,,,,,,,,,,,,,,,,,,,,,,,,,,,,,,,,,,,,,,,,,,,,,,,,,,"[""comma""]",0,[0.29349999999999454],49,0,49,0,1,,
,,,,,,,,,,,,611a9f9591ef82d19cfc5db1,19,Kobieta,2022-06-11_09h30.45.777,task,2021.1.4,Win32,59.31198102,6299f149e92ead563fba08ef,62a4447377be0631d1596750,,,,,,,,,,,,,,,,,,,,,,,,,,,,,,,,,,,,,,,,,,,,,,,,,,,,,,,,,,,,,,,,,,,,,,,,,,,,,,,,,,,,,,,,,,,,"[""period"",""comma""]",0,"[0.1838000000008151,1.8877000000030648]",50,0,50,0,1,,
,,,,,,,,,,,,611a9f9591ef82d19cfc5db1,19,Kobieta,2022-06-11_09h30.45.777,task,2021.1.4,Win32,59.31198102,6299f149e92ead563fba08ef,62a4447377be0631d1596750,,,,,,,,,,,,,,,,,,,,,,,,,,,,,,,,,,,,,,,,,,,,,,,,,,,,,,,,,,,,,,,,,,,,,,,,,,,,,,,,,,,,,,,,,,,,"[""comma""]",0,[0.46639999999854354],51,0,51,0,1,,
,,,,,,,,,,,,611a9f9591ef82d19cfc5db1,19,Kobieta,2022-06-11_09h30.45.777,task,2021.1.4,Win32,59.31198102,6299f149e92ead563fba08ef,62a4447377be0631d1596750,,,,,,,,,,,,,,,,,,,,,,,,,,,,,,,,,,,,,,,,,,,,,,,,,,,,,,,,,,,,,,,,,,,,,,,,,,,,,,,,,,,,,,,,,,,,"[""comma""]",0,[0.44929999999703796],52,0,52,0,1,,
,,,,,,,,,,,,611a9f9591ef82d19cfc5db1,19,Kobieta,2022-06-11_09h30.45.777,task,2021.1.4,Win32,59.31198102,6299f149e92ead563fba08ef,62a4447377be0631d1596750,,,,,,,,,,,,,,,,,,,,,,,,,,,,,,,,,,,,,,,,,,,,,,,,,,,,,,,,,,,,,,,,,,,,,,,,,,,,,,,,,,,,,,,,,,,,"[""period""]",0,[0.2901999999992313],53,0,53,0,1,,
,,,,,,,,,,,,611a9f9591ef82d19cfc5db1,19,Kobieta,2022-06-11_09h30.45.777,task,2021.1.4,Win32,59.31198102,6299f149e92ead563fba08ef,62a4447377be0631d1596750,,,,,,,,,,,,,,,,,,,,,,,,,,,,,,,,,,,,,,,,,,,,,,,,,,,,,,,,,,,,,,,,,,,,,,,,,,,,,,,,,,,,,,,,,,,,"[""comma""]",0,[0.26820000000293476],54,0,54,0,1,,
,,,,,,,,,,,,611a9f9591ef82d19cfc5db1,19,Kobieta,2022-06-11_09h30.45.777,task,2021.1.4,Win32,59.31198102,6299f149e92ead563fba08ef,62a4447377be0631d1596750,,,,,,,,,,,,,,,,,,,,,,,,,,,,,,,,,,,,,,,,,,,,,,,,,,,,,,,,,,,,,,,,,,,,,,,,,,,,,,,,,,,,,,,,,,,,"[""comma""]",0,[0.6404000000021597],55,0,55,0,1,,
,,,,,,,,,,,,611a9f9591ef82d19cfc5db1,19,Kobieta,2022-06-11_09h30.45.777,task,2021.1.4,Win32,59.31198102,6299f149e92ead563fba08ef,62a4447377be0631d1596750,,,,,,,,,,,,,,,,,,,,,,,,,,,,,,,,,,,,,,,,,,,,,,,,,,,,,,,,,,,,,,,,,,,,,,,,,,,,,,,,,,,,,,,,,,,,"[""comma""]",0,[0.2991000000015447],56,0,56,0,1,,
,,,,,,,,,,,,611a9f9591ef82d19cfc5db1,19,Kobieta,2022-06-11_09h30.45.777,task,2021.1.4,Win32,59.31198102,6299f149e92ead563fba08ef,62a4447377be0631d1596750,,,,,,,,,,,,,,,,,,,,,,,,,,,,,,,,,,,,,,,,,,,,,,,,,,,,,,,,,,,,,,,,,,,,,,,,,,,,,,,,,,,,,,,,,,,,"[""comma""]",0,[0.05170000000305208],57,0,57,0,1,,
,,,,,,,,,,,,611a9f9591ef82d19cfc5db1,19,Kobieta,2022-06-11_09h30.45.777,task,2021.1.4,Win32,59.31198102,6299f149e92ead563fba08ef,62a4447377be0631d1596750,,,,,,,,,,,,,,,,,,,,,,,,,,,,,,,,,,,,,,,,,,,,,,,,,,,,,,,,,,,,,,,,,,,,,,,,,,,,,,,,,,,,,,,,,,,,"[""period""]",0,[0.17230000000074597],58,0,58,0,1,,
,,,,,,,,,,,,611a9f9591ef82d19cfc5db1,19,Kobieta,2022-06-11_09h30.45.777,task,2021.1.4,Win32,59.31198102,6299f149e92ead563fba08ef,62a4447377be0631d1596750,,,,,,,,,,,,,,,,,,,,,,,,,,,,,,,,,,,,,,,,,,,,,,,,,,,,,,,,,,,,,,,,,,,,,,,,,,,,,,,,,,,,,,,,,,,,"[""comma""]",0,[0.23660000000154469],59,0,59,0,1,,
,,,,,,,,,,,,611a9f9591ef82d19cfc5db1,19,Kobieta,2022-06-11_09h30.45.777,task,2021.1.4,Win32,59.31198102,6299f149e92ead563fba08ef,62a4447377be0631d1596750,,,,,,,,,,,,,,,,,,,,,,,,,,,,,,,,,,,,,,,,,,,,,,,,,,,,,,,,,,,,,,,,,,,,,,,,,,,,,,,,,,,,,,,,,,,,"[""period""]",0,[0.31799999999998363],60,0,60,0,1,,
,,,,,,,,,,,,611a9f9591ef82d19cfc5db1,19,Kobieta,2022-06-11_09h30.45.777,task,2021.1.4,Win32,59.31198102,6299f149e92ead563fba08ef,62a4447377be0631d1596750,,,,,,,,,,,,,,,,,,,,,,,,,,,,,,,,,,,,,,,,,,,,,,,,,,,,,,,,,,,,,,,,,,,,,,,,,,,,,,,,,,,,,,,,,,,,"[""comma""]",0,[0.2825000000000273],61,0,61,0,1,,
,,,,,,,,,,,,611a9f9591ef82d19cfc5db1,19,Kobieta,2022-06-11_09h30.45.777,task,2021.1.4,Win32,59.31198102,6299f149e92ead563fba08ef,62a4447377be0631d1596750,,,,,,,,,,,,,,,,,,,,,,,,,,,,,,,,,,,,,,,,,,,,,,,,,,,,,,,,,,,,,,,,,,,,,,,,,,,,,,,,,,,,,,,,,,,,"[""comma"",""period""]",0,"[0.06799999999998363,1.9735000000000582]",62,0,62,0,1,,
,,,,,,,,,,,,611a9f9591ef82d19cfc5db1,19,Kobieta,2022-06-11_09h30.45.777,task,2021.1.4,Win32,59.31198102,6299f149e92ead563fba08ef,62a4447377be0631d1596750,,,,,,,,,,,,,,,,,,,,,,,,,,,,,,,,,,,,,,,,,,,,,,,,,,,,,,,,,,,,,,,,,,,,,,,,,,,,,,,,,,,,,,,,,,,,,0,,63,0,63,0,1,,
,,,,,,,,,,,,611a9f9591ef82d19cfc5db1,19,Kobieta,2022-06-11_09h30.45.777,task,2021.1.4,Win32,59.31198102,6299f149e92ead563fba08ef,62a4447377be0631d1596750,,,,,,,,,,,,,,,,,,,,,,,,,,,,,,,,,,,,,,,,,,,,,,,,,,,,,,,,,,,,,,,,,,,,,,,,,,,,,,,,,,,,,,,,,,,,"[""comma""]",0,[0.25099999999997635],64,0,64,0,1,,
,,,,,,,,,,,,611a9f9591ef82d19cfc5db1,19,Kobieta,2022-06-11_09h30.45.777,task,2021.1.4,Win32,59.31198102,6299f149e92ead563fba08ef,62a4447377be0631d1596750,,,,,,,,,,,,,,,,,,,,,,,,,,,,,,,,,,,,,,,,,,,,,,,,,,,,,,,,,,,,,,,,,,,,,,,,,,,,,,,,,,,,,,,,,,,,"[""period""]",0,[0.14919999999926858],65,0,65,0,1,,
,,,,,,,,,,,,611a9f9591ef82d19cfc5db1,19,Kobieta,2022-06-11_09h30.45.777,task,2021.1.4,Win32,59.31198102,6299f149e92ead563fba08ef,62a4447377be0631d1596750,,,,,,,,,,,,,,,,,,,,,,,,,,,,,,,,,,,,,,,,,,,,,,,,,,,,,,,,,,,,,,,,,,,,,,,,,,,,,,,,,,,,,,,,,,,,"[""period""]",0,[0.23420000000305663],66,0,66,0,1,,
,,,,,,,,,,,,611a9f9591ef82d19cfc5db1,19,Kobieta,2022-06-11_09h30.45.777,task,2021.1.4,Win32,59.31198102,6299f149e92ead563fba08ef,62a4447377be0631d1596750,,,,,,,,,,,,,,,,,,,,,,,,,,,,,,,,,,,,,,,,,,,,,,,,,,,,,,,,,,,,,,,,,,,,,,,,,,,,,,,,,,,,,,,,,,,,"[""comma""]",0,[0.2591000000014674],67,0,67,0,1,,
,,,,,,,,,,,,611a9f9591ef82d19cfc5db1,19,Kobieta,2022-06-11_09h30.45.777,task,2021.1.4,Win32,59.31198102,6299f149e92ead563fba08ef,62a4447377be0631d1596750,,,,,,,,,,,,,,,,,,,,,,,,,,,,,,,,,,,,,,,,,,,,,,,,,,,,,,,,,,,,,,,,,,,,,,,,,,,,,,,,,,,,,,,,,,,,"[""period""]",0,[0.193800000000806],68,0,68,0,1,,
,,,,,,,,,,,,611a9f9591ef82d19cfc5db1,19,Kobieta,2022-06-11_09h30.45.777,task,2021.1.4,Win32,59.31198102,6299f149e92ead563fba08ef,62a4447377be0631d1596750,,,,,,,,,,,,,,,,,,,,,,,,,,,,,,,,,,,,,,,,,,,,,,,,,,,,,,,,,,,,,,,,,,,,,,,,,,,,,,,,,,,,,,,,,,,,"[""comma""]",0,[0.21930000000077143],69,0,69,0,1,,
,,,,,,,,,,,,611a9f9591ef82d19cfc5db1,19,Kobieta,2022-06-11_09h30.45.777,task,2021.1.4,Win32,59.31198102,6299f149e92ead563fba08ef,62a4447377be0631d1596750,,,,,,,,,,,,,,,,,,,,,,,,,,,,,,,,,,,,,,,,,,,,,,,,,,,,,,,,,,,,,,,,,,,,,,,,,,,,,,,,,,,,,,,,,,,,"[""comma""]",0,[0.2363000000007105],70,0,70,0,1,,
,,,,,,,,,,,,611a9f9591ef82d19cfc5db1,19,Kobieta,2022-06-11_09h30.45.777,task,2021.1.4,Win32,59.31198102,6299f149e92ead563fba08ef,62a4447377be0631d1596750,,,,,,,,,,,,,,,,,,,,,,,,,,,,,,,,,,,,,,,,,,,,,,,,,,,,,,,,,,,,,,,,,,,,,,,,,,,,,,,,,,,,,,,,,,,,"[""comma""]",0,[0.22209999999779484],71,0,71,0,1,,
,,,,,,,,,,,,611a9f9591ef82d19cfc5db1,19,Kobieta,2022-06-11_09h30.45.777,task,2021.1.4,Win32,59.31198102,6299f149e92ead563fba08ef,62a4447377be0631d1596750,,,,,,,,,,,,,,,,,,,,,,,,,,,,,,,,,,,,,,,,,,,,,,,,,,,,,,,,,,,,,,,,,,,,,,,,,,,,,,,,,,,,,,,,,,,,"[""period"",""comma""]",0,"[0.19899999999995543,1.907199999999193]",72,0,72,0,1,,
,,,,,,,,,,,,611a9f9591ef82d19cfc5db1,19,Kobieta,2022-06-11_09h30.45.777,task,2021.1.4,Win32,59.31198102,6299f149e92ead563fba08ef,62a4447377be0631d1596750,,,,,,,,,,,,,,,,,,,,,,,,,,,,,,,,,,,,,,,,,,,,,,,,,,,,,,,,,,,,,,,,,,,,,,,,,,,,,,,,,,,,,,,,,,,,,0,,73,0,73,0,1,,
,,,,,,,,,,,,611a9f9591ef82d19cfc5db1,19,Kobieta,2022-06-11_09h30.45.777,task,2021.1.4,Win32,59.31198102,6299f149e92ead563fba08ef,62a4447377be0631d1596750,,,,,,,,,,,,,,,,,,,,,,,,,,,,,,,,,,,,,,,,,,,,,,,,,,,,,,,,,,,,,,,,,,,,,,,,,,,,,,,,,,,,,,,,,,,,"[""comma""]",0,[0.03810000000146374],74,0,74,0,1,,
,,,,,,,,,,,,611a9f9591ef82d19cfc5db1,19,Kobieta,2022-06-11_09h30.45.777,task,2021.1.4,Win32,59.31198102,6299f149e92ead563fba08ef,62a4447377be0631d1596750,,,,,,,,,,,,,,,,,,,,,,,,,,,,,,,,,,,,,,,,,,,,,,,,,,,,,,,,,,,,,,,,,,,,,,,,,,,,,,,,,,,,,,,,,,,,"[""comma""]",0,[0.19080000000064956],75,0,75,0,1,,
,,,,,,,,,,,,611a9f9591ef82d19cfc5db1,19,Kobieta,2022-06-11_09h30.45.777,task,2021.1.4,Win32,59.31198102,6299f149e92ead563fba08ef,62a4447377be0631d1596750,,,,,,,,,,,,,,,,,,,,,,,,,,,,,,,,,,,,,,,,,,,,,,,,,,,,,,,,,,,,,,,,,,,,,,,,,,,,,,,,,,,,,,,,,,,,"[""period""]",0,[0.20299999999997453],76,0,76,0,1,,
,,,,,,,,,,,,611a9f9591ef82d19cfc5db1,19,Kobieta,2022-06-11_09h30.45.777,task,2021.1.4,Win32,59.31198102,6299f149e92ead563fba08ef,62a4447377be0631d1596750,,,,,,,,,,,,,,,,,,,,,,,,,,,,,,,,,,,,,,,,,,,,,,,,,,,,,,,,,,,,,,,,,,,,,,,,,,,,,,,,,,,,,,,,,,,,"[""comma""]",0,[0.21940000000222426],77,0,77,0,1,,
,,,,,,,,,,,,611a9f9591ef82d19cfc5db1,19,Kobieta,2022-06-11_09h30.45.777,task,2021.1.4,Win32,59.31198102,6299f149e92ead563fba08ef,62a4447377be0631d1596750,,,,,,,,,,,,,,,,,,,,,,,,,,,,,,,,,,,,,,,,,,,,,,,,,,,,,,,,,,,,,,,,,,,,,,,,,,,,,,,,,,,,,,,,,,,,"[""period""]",0,[0.23269999999922675],78,0,78,0,1,,
,,,,,,,,,,,,611a9f9591ef82d19cfc5db1,19,Kobieta,2022-06-11_09h30.45.777,task,2021.1.4,Win32,59.31198102,6299f149e92ead563fba08ef,62a4447377be0631d1596750,,,,,,,,,,,,,,,,,,,,,,,,,,,,,,,,,,,,,,,,,,,,,,,,,,,,,,,,,,,,,,,,,,,,,,,,,,,,,,,,,,,,,,,,,,,,"[""comma""]",0,[0.24849999999992178],79,0,79,0,1,,
,,,,,,,,,,,,611a9f9591ef82d19cfc5db1,19,Kobieta,2022-06-11_09h30.45.777,task,2021.1.4,Win32,59.31198102,6299f149e92ead563fba08ef,62a4447377be0631d1596750,,,,,,,,,,,,,,,,,,,,,,,,,,,,,,,,,,,,,,,,,,,,,,,,,,,,,,,,,,,,,,,,,,,,,,,,,,,,,,,,,,,,,,,,,,,,"[""comma""]",0,[0.23619999999925767],80,0,80,0,1,,
,,,,,,,,,,,,611a9f9591ef82d19cfc5db1,19,Kobieta,2022-06-11_09h30.45.777,task,2021.1.4,Win32,59.31198102,6299f149e92ead563fba08ef,62a4447377be0631d1596750,,,,,,,,,,,,,,,,,,,,,,,,,,,,,,,,,,,,,,,,,,,,,,,,,,,,,,,,,,,,,,,,,,,,,,,,,,,,,,,,,,,,,,,,,,,,"[""period""]",0,[0.16789999999855354],81,0,81,0,1,,
,,,,,,,,,,,,611a9f9591ef82d19cfc5db1,19,Kobieta,2022-06-11_09h30.45.777,task,2021.1.4,Win32,59.31198102,6299f149e92ead563fba08ef,62a4447377be0631d1596750,,,,,,,,,,,,,,,,,,,,,,,,,,,,,,,,,,,,,,,,,,,,,,,,,,,,,,,,,,,,,,,,,,,,,,,,,,,,,,,,,,,,,,,,,,,,"[""comma""]",0,[0.20260000000143918],82,0,82,0,1,,
,,,,,,,,,,,,611a9f9591ef82d19cfc5db1,19,Kobieta,2022-06-11_09h30.45.777,task,2021.1.4,Win32,59.31198102,6299f149e92ead563fba08ef,62a4447377be0631d1596750,,,,,,,,,,,,,,,,,,,,,,,,,,,,,,,,,,,,,,,,,,,,,,,,,,,,,,,,,,,,,,,,,,,,,,,,,,,,,,,,,,,,,,,,,,,,"[""period""]",0,[0.20130000000074233],83,0,83,0,1,,
,,,,,,,,,,,,611a9f9591ef82d19cfc5db1,19,Kobieta,2022-06-11_09h30.45.777,task,2021.1.4,Win32,59.31198102,6299f149e92ead563fba08ef,62a4447377be0631d1596750,,,,,,,,,,,,,,,,,,,,,,,,,,,,,,,,,,,,,,,,,,,,,,,,,,,,,,,,,,,,,,,,,,,,,,,,,,,,,,,,,,,,,,,,,,,,"[""comma""]",0,[0.18299999999999272],84,0,84,0,1,,
,,,,,,,,,,,,611a9f9591ef82d19cfc5db1,19,Kobieta,2022-06-11_09h30.45.777,task,2021.1.4,Win32,59.31198102,6299f149e92ead563fba08ef,62a4447377be0631d1596750,,,,,,,,,,,,,,,,,,,,,,,,,,,,,,,,,,,,,,,,,,,,,,,,,,,,,,,,,,,,,,,,,,,,,,,,,,,,,,,,,,,,,,,,,,,,"[""comma""]",0,[0.26870000000292293],85,0,85,0,1,,
,,,,,,,,,,,,611a9f9591ef82d19cfc5db1,19,Kobieta,2022-06-11_09h30.45.777,task,2021.1.4,Win32,59.31198102,6299f149e92ead563fba08ef,62a4447377be0631d1596750,,,,,,,,,,,,,,,,,,,,,,,,,,,,,,,,,,,,,,,,,,,,,,,,,,,,,,,,,,,,,,,,,,,,,,,,,,,,,,,,,,,,,,,,,,,,"[""period""]",0,[0.2498999999984335],86,0,86,0,1,,
,,,,,,,,,,,,611a9f9591ef82d19cfc5db1,19,Kobieta,2022-06-11_09h30.45.777,task,2021.1.4,Win32,59.31198102,6299f149e92ead563fba08ef,62a4447377be0631d1596750,,,,,,,,,,,,,,,,,,,,,,,,,,,,,,,,,,,,,,,,,,,,,,,,,,,,,,,,,,,,,,,,,,,,,,,,,,,,,,,,,,,,,,,,,,,,"[""comma""]",0,[0.3931999999991831],87,0,87,0,1,,
,,,,,,,,,,,,611a9f9591ef82d19cfc5db1,19,Kobieta,2022-06-11_09h30.45.777,task,2021.1.4,Win32,59.31198102,6299f149e92ead563fba08ef,62a4447377be0631d1596750,,,,,,,,,,,,,,,,,,,,,,,,,,,,,,,,,,,,,,,,,,,,,,,,,,,,,,,,,,,,,,,,,,,,,,,,,,,,,,,,,,,,,,,,,,,,"[""comma""]",0,[0.466100000001461],88,0,88,0,1,,
,,,,,,,,,,,,611a9f9591ef82d19cfc5db1,19,Kobieta,2022-06-11_09h30.45.777,task,2021.1.4,Win32,59.31198102,6299f149e92ead563fba08ef,62a4447377be0631d1596750,,,,,,,,,,,,,,,,,,,,,,,,,,,,,,,,,,,,,,,,,,,,,,,,,,,,,,,,,,,,,,,,,,,,,,,,,,,,,,,,,,,,,,,,,,,,"[""period""]",0,[0.249200000003043],89,0,89,0,1,,
,,,,,,,,,,,,611a9f9591ef82d19cfc5db1,19,Kobieta,2022-06-11_09h30.45.777,task,2021.1.4,Win32,59.31198102,6299f149e92ead563fba08ef,62a4447377be0631d1596750,,,,,,,,,,,,,,,,,,,,,,,,,,,,,,,,,,,,,,,,,,,,,,,,,,,,,,,,,,,,,,,,,,,,,,,,,,,,,,,,,,,,,,,,,,,,"[""comma""]",0,[0.28319999999928314],90,0,90,0,1,,
,,,,,,,,,,,,611a9f9591ef82d19cfc5db1,19,Kobieta,2022-06-11_09h30.45.777,task,2021.1.4,Win32,59.31198102,6299f149e92ead563fba08ef,62a4447377be0631d1596750,,,,,,,,,,,,,,,,,,,,,,,,,,,,,,,,,,,,,,,,,,,,,,,,,,,,,,,,,,,,,,,,,,,,,,,,,,,,,,,,,,,,,,,,,,,,"[""period""]",0,[0.22760000000153013],91,0,91,0,1,,
,,,,,,,,,,,,611a9f9591ef82d19cfc5db1,19,Kobieta,2022-06-11_09h30.45.777,task,2021.1.4,Win32,59.31198102,6299f149e92ead563fba08ef,62a4447377be0631d1596750,,,,,,,,,,,,,,,,,,,,,,,,,,,,,,,,,,,,,,,,,,,,,,,,,,,,,,,,,,,,,,,,,,,,,,,,,,,,,,,,,,,,,,,,,,,,"[""period""]",0,[0.32180000000073505],92,0,92,0,1,,
,,,,,,,,,,,,611a9f9591ef82d19cfc5db1,19,Kobieta,2022-06-11_09h30.45.777,task,2021.1.4,Win32,59.31198102,6299f149e92ead563fba08ef,62a4447377be0631d1596750,,,,,,,,,,,,,,,,,,,,,,,,,,,,,,,,,,,,,,,,,,,,,,,,,,,,,,,,,,,,,,,,,,,,,,,,,,,,,,,,,,,,,,,,,,,,"[""period""]",0,[0.26609999999777756],93,0,93,0,1,,
,,,,,,,,,,,,611a9f9591ef82d19cfc5db1,19,Kobieta,2022-06-11_09h30.45.777,task,2021.1.4,Win32,59.31198102,6299f149e92ead563fba08ef,62a4447377be0631d1596750,,,,,,,,,,,,,,,,,,,,,,,,,,,,,,,,,,,,,,,,,,,,,,,,,,,,,,,,,,,,,,,,,,,,,,,,,,,,,,,,,,,,,,,,,,,,"[""comma"",""period""]",0,"[0.23409999999773845,1.9618999999985363]",94,0,94,0,1,,
,,,,,,,,,,,,611a9f9591ef82d19cfc5db1,19,Kobieta,2022-06-11_09h30.45.777,task,2021.1.4,Win32,59.31198102,6299f149e92ead563fba08ef,62a4447377be0631d1596750,,,,,,,,,,,,,,,,,,,,,,,,,,,,,,,,,,,,,,,,,,,,,,,,,,,,,,,,,,,,,,,,,,,,,,,,,,,,,,,,,,,,,,,,,,,,,0,,95,0,95,0,1,,
,,,,,,,,,,,,611a9f9591ef82d19cfc5db1,19,Kobieta,2022-06-11_09h30.45.777,task,2021.1.4,Win32,59.31198102,6299f149e92ead563fba08ef,62a4447377be0631d1596750,,,,,,,,,,,,,,,,,,,,,,,,,,,,,,,,,,,,,,,,,,,,,,,,,,,,,,,,,,,,,,,,,,,,,,,,,,,,,,,,,,,,,,,,,,,,"[""comma""]",0,[0.3561999999992622],96,0,96,0,1,,
,,,,,,,,,,,,611a9f9591ef82d19cfc5db1,19,Kobieta,2022-06-11_09h30.45.777,task,2021.1.4,Win32,59.31198102,6299f149e92ead563fba08ef,62a4447377be0631d1596750,,,,,,,,,,,,,,,,,,,,,,,,,,,,,,,,,,,,,,,,,,,,,,,,,,,,,,,,,,,,,,,,,,,,,,,,,,,,,,,,,,,,,,,,,,,,"[""comma""]",0,[0.24959999999782667],97,0,97,0,1,,
,,,,,,,,,,,,611a9f9591ef82d19cfc5db1,19,Kobieta,2022-06-11_09h30.45.777,task,2021.1.4,Win32,59.31198102,6299f149e92ead563fba08ef,62a4447377be0631d1596750,,,,,,,,,,,,,,,,,,,,,,,,,,,,,,,,,,,,,,,,,,,,,,,,,,,,,,,,,,,,,,,,,,,,,,,,,,,,,,,,,,,,,,,,,,,,"[""period""]",0,[0.20000000000004547],98,0,98,0,1,,
,,,,,,,,,,,,611a9f9591ef82d19cfc5db1,19,Kobieta,2022-06-11_09h30.45.777,task,2021.1.4,Win32,59.31198102,6299f149e92ead563fba08ef,62a4447377be0631d1596750,,,,,,,,,,,,,,,,,,,,,,,,,,,,,,,,,,,,,,,,,,,,,,,,,,,,,,,,,,,,,,,,,,,,,,,,,,,,,,,,,,,,,,,,,,,,"[""comma""]",0,[0.35430000000076234],99,0,99,0,1,,
,,,,,,,,,,,,611a9f9591ef82d19cfc5db1,19,Kobieta,2022-06-11_09h30.45.777,task,2021.1.4,Win32,59.31198102,6299f149e92ead563fba08ef,62a4447377be0631d1596750,,,,,,,,,,,,,,,,,,,,,,,,,,,,,,,,,,,,,,,,,,,,,,,,,,,,,,,,,,,,,,,,,,,,,,,,,,,,,,,,,,,,,,,,,,,,"[""period""]",0,[0.21819999999922857],100,0,100,0,1,,
,,,,,,,,,,,,611a9f9591ef82d19cfc5db1,19,Kobieta,2022-06-11_09h30.45.777,task,2021.1.4,Win32,59.31198102,6299f149e92ead563fba08ef,62a4447377be0631d1596750,,,,,,,,,,,,,,,,,,,,,,,,,,,,,,,,,,,,,,,,,,,,,,,,,,,,,,,,,,,,,,,,,,,,,,,,,,,,,,,,,,,,,,,,,,,,"[""period""]",0,[0.2740000000000009],101,0,101,0,1,,
,,,,,,,,,,,,611a9f9591ef82d19cfc5db1,19,Kobieta,2022-06-11_09h30.45.777,task,2021.1.4,Win32,59.31198102,6299f149e92ead563fba08ef,62a4447377be0631d1596750,,,,,,,,,,,,,,,,,,,,,,,,,,,,,,,,,,,,,,,,,,,,,,,,,,,,,,,,,,,,,,,,,,,,,,,,,,,,,,,,,,,,,,,,,,,,"[""comma""]",0,[0.25250000000005457],102,0,102,0,1,,
,,,,,,,,,,,,611a9f9591ef82d19cfc5db1,19,Kobieta,2022-06-11_09h30.45.777,task,2021.1.4,Win32,59.31198102,6299f149e92ead563fba08ef,62a4447377be0631d1596750,,,,,,,,,,,,,,,,,,,,,,,,,,,,,,,,,,,,,,,,,,,,,,,,,,,,,,,,,,,,,,,,,,,,,,,,,,,,,,,,,,,,,,,,,,,,"[""period""]",0,[0.08239999999852898],103,0,103,0,1,,
,,,,,,,,,,,,611a9f9591ef82d19cfc5db1,19,Kobieta,2022-06-11_09h30.45.777,task,2021.1.4,Win32,59.31198102,6299f149e92ead563fba08ef,62a4447377be0631d1596750,,,,,,,,,,,,,,,,,,,,,,,,,,,,,,,,,,,,,,,,,,,,,,,,,,,,,,,,,,,,,,,,,,,,,,,,,,,,,,,,,,,,,,,,,,,,"[""period""]",0,[0.2329000000022461],104,0,104,0,1,,
,,,,,,,,,,,,611a9f9591ef82d19cfc5db1,19,Kobieta,2022-06-11_09h30.45.777,task,2021.1.4,Win32,59.31198102,6299f149e92ead563fba08ef,62a4447377be0631d1596750,,,,,,,,,,,,,,,,,,,,,,,,,,,,,,,,,,,,,,,,,,,,,,,,,,,,,,,,,,,,,,,,,,,,,,,,,,,,,,,,,,,,,,,,,,,,"[""period""]",0,[0.18189999999844986],105,0,105,0,1,,
,,,,,,,,,,,,611a9f9591ef82d19cfc5db1,19,Kobieta,2022-06-11_09h30.45.777,task,2021.1.4,Win32,59.31198102,6299f149e92ead563fba08ef,62a4447377be0631d1596750,,,,,,,,,,,,,,,,,,,,,,,,,,,,,,,,,,,,,,,,,,,,,,,,,,,,,,,,,,,,,,,,,,,,,,,,,,,,,,,,,,,,,,,,,,,,"[""comma""]",0,[0.28330000000073596],106,0,106,0,1,,
,,,,,,,,,,,,611a9f9591ef82d19cfc5db1,19,Kobieta,2022-06-11_09h30.45.777,task,2021.1.4,Win32,59.31198102,6299f149e92ead563fba08ef,62a4447377be0631d1596750,,,,,,,,,,,,,,,,,,,,,,,,,,,,,,,,,,,,,,,,,,,,,,,,,,,,,,,,,,,,,,,,,,,,,,,,,,,,,,,,,,,,,,,,,,,,"[""period""]",0,[0.2659999999999627],107,0,107,0,1,,
,,,,,,,,,,,,611a9f9591ef82d19cfc5db1,19,Kobieta,2022-06-11_09h30.45.777,task,2021.1.4,Win32,59.31198102,6299f149e92ead563fba08ef,62a4447377be0631d1596750,,,,,,,,,,,,,,,,,,,,,,,,,,,,,,,,,,,,,,,,,,,,,,,,,,,,,,,,,,,,,,,,,,,,,,,,,,,,,,,,,,,,,,,,,,,,"[""comma""]",0,[0.44819999999924676],108,0,108,0,1,,
,,,,,,,,,,,,611a9f9591ef82d19cfc5db1,19,Kobieta,2022-06-11_09h30.45.777,task,2021.1.4,Win32,59.31198102,6299f149e92ead563fba08ef,62a4447377be0631d1596750,,,,,,,,,,,,,,,,,,,,,,,,,,,,,,,,,,,,,,,,,,,,,,,,,,,,,,,,,,,,,,,,,,,,,,,,,,,,,,,,,,,,,,,,,,,,"[""comma""]",0,[0.27590000000225245],109,0,109,0,1,,
,,,,,,,,,,,,611a9f9591ef82d19cfc5db1,19,Kobieta,2022-06-11_09h30.45.777,task,2021.1.4,Win32,59.31198102,6299f149e92ead563fba08ef,62a4447377be0631d1596750,,,,,,,,,,,,,,,,,,,,,,,,,,,,,,,,,,,,,,,,,,,,,,,,,,,,,,,,,,,,,,,,,,,,,,,,,,,,,,,,,,,,,,,,,,,,"[""period""]",0,[0.19300000000009732],110,0,110,0,1,,
,,,,,,,,,,,,611a9f9591ef82d19cfc5db1,19,Kobieta,2022-06-11_09h30.45.777,task,2021.1.4,Win32,59.31198102,6299f149e92ead563fba08ef,62a4447377be0631d1596750,,,,,,,,,,,,,,,,,,,,,,,,,,,,,,,,,,,,,,,,,,,,,,,,,,,,,,,,,,,,,,,,,,,,,,,,,,,,,,,,,,,,,,,,,,,,"[""period""]",0,[0.2591000000014674],111,0,111,0,1,,
,,,,,,,,,,,,611a9f9591ef82d19cfc5db1,19,Kobieta,2022-06-11_09h30.45.777,task,2021.1.4,Win32,59.31198102,6299f149e92ead563fba08ef,62a4447377be0631d1596750,,,,,,,,,,,,,,,,,,,,,,,,,,,,,,,,,,,,,,,,,,,,,,,,,,,,,,,,,,,,,,,,,,,,,,,,,,,,,,,,,,,,,,,,,,,,"[""comma""]",0,[0.21500000000003183],112,0,112,0,1,,
,,,,,,,,,,,,611a9f9591ef82d19cfc5db1,19,Kobieta,2022-06-11_09h30.45.777,task,2021.1.4,Win32,59.31198102,6299f149e92ead563fba08ef,62a4447377be0631d1596750,,,,,,,,,,,,,,,,,,,,,,,,,,,,,,,,,,,,,,,,,,,,,,,,,,,,,,,,,,,,,,,,,,,,,,,,,,,,,,,,,,,,,,,,,,,,"[""period""]",0,[0.2652000000030057],113,0,113,0,1,,
,,,,,,,,,,,,611a9f9591ef82d19cfc5db1,19,Kobieta,2022-06-11_09h30.45.777,task,2021.1.4,Win32,59.31198102,6299f149e92ead563fba08ef,62a4447377be0631d1596750,,,,,,,,,,,,,,,,,,,,,,,,,,,,,,,,,,,,,,,,,,,,,,,,,,,,,,,,,,,,,,,,,,,,,,,,,,,,,,,,,,,,,,,,,,,,"[""comma""]",0,[0.2329000000022461],114,0,114,0,1,,
,,,,,,,,,,,,611a9f9591ef82d19cfc5db1,19,Kobieta,2022-06-11_09h30.45.777,task,2021.1.4,Win32,59.31198102,6299f149e92ead563fba08ef,62a4447377be0631d1596750,,,,,,,,,,,,,,,,,,,,,,,,,,,,,,,,,,,,,,,,,,,,,,,,,,,,,,,,,,,,,,,,,,,,,,,,,,,,,,,,,,,,,,,,,,,,"[""comma""]",0,[0.14040000000215969],115,0,115,0,1,,
,,,,,,,,,,,,611a9f9591ef82d19cfc5db1,19,Kobieta,2022-06-11_09h30.45.777,task,2021.1.4,Win32,59.31198102,6299f149e92ead563fba08ef,62a4447377be0631d1596750,,,,,,,,,,,,,,,,,,,,,,,,,,,,,,,,,,,,,,,,,,,,,,,,,,,,,,,,,,,,,,,,,,,,,,,,,,,,,,,,,,,,,,,,,,,,"[""comma""]",0,[0.1493000000007214],116,0,116,0,1,,
,,,,,,,,,,,,611a9f9591ef82d19cfc5db1,19,Kobieta,2022-06-11_09h30.45.777,task,2021.1.4,Win32,59.31198102,6299f149e92ead563fba08ef,62a4447377be0631d1596750,,,,,,,,,,,,,,,,,,,,,,,,,,,,,,,,,,,,,,,,,,,,,,,,,,,,,,,,,,,,,,,,,,,,,,,,,,,,,,,,,,,,,,,,,,,,"[""comma""]",0,[0.21649999999999636],117,0,117,0,1,,
,,,,,,,,,,,,611a9f9591ef82d19cfc5db1,19,Kobieta,2022-06-11_09h30.45.777,task,2021.1.4,Win32,59.31198102,6299f149e92ead563fba08ef,62a4447377be0631d1596750,,,,,,,,,,,,,,,,,,,,,,,,,,,,,,,,,,,,,,,,,,,,,,,,,,,,,,,,,,,,,,,,,,,,,,,,,,,,,,,,,,,,,,,,,,,,"[""period""]",0,[0.2324000000022579],118,0,118,0,1,,
,,,,,,,,,,,,611a9f9591ef82d19cfc5db1,19,Kobieta,2022-06-11_09h30.45.777,task,2021.1.4,Win32,59.31198102,6299f149e92ead563fba08ef,62a4447377be0631d1596750,,,,,,,,,,,,,,,,,,,,,,,,,,,,,,,,,,,,,,,,,,,,,,,,,,,,,,,,,,,,,,,,,,,,,,,,,,,,,,,,,,,,,,,,,,,,"[""comma""]",0,[0.00039999999853534973],119,0,119,0,1,,
