key_resp_15.keys,key_resp_15.rt,key_resp_16.keys,key_resp_16.rt,key_resp_4.keys,key_resp_4.rt,next_letter.thisRepN,next_letter.thisTrialN,next_letter.thisN,next_letter.thisIndex,next_letter.ran,letter,participant,Wiek*,Płeć,date,expName,psychopyVersion,OS,frameRate,study_id,session,simple_recall,key_resp_5.keys,key_resp_5.rt,simple_recall_corr,simple_recall_corrkeys,next_level.thisRepN,next_level.thisTrialN,next_level.thisN,next_level.thisIndex,next_level.ran,key_resp_2.keys,key_resp_2.rt,digit_answer,key_resp.keys,key_resp.corr,key_resp.rt,RT_list,next_equation.thisRepN,next_equation.thisTrialN,next_equation.thisN,next_equation.thisIndex,next_equation.ran,Task,Trial,Problem,Operation_answer,processing_score,sumRT,meanRT,sumdiff,sd,RT,key_resp_3.keys,key_resp_3.rt,repeat_practice.thisRepN,repeat_practice.thisTrialN,repeat_practice.thisN,repeat_practice.thisIndex,repeat_practice.ran,key_resp_6.keys,key_resp_6.rt,key_resp_11.keys,key_resp_11.corr,key_resp_11.rt,operation_correct,repeat_if_wrong_prac.thisRepN,repeat_if_wrong_prac.thisTrialN,repeat_if_wrong_prac.thisN,repeat_if_wrong_prac.thisIndex,repeat_if_wrong_prac.ran,span_size_prac.thisRepN,span_size_prac.thisTrialN,span_size_prac.thisN,span_size_prac.thisIndex,span_size_prac.ran,complex_recall_practice,key_resp_9.keys,key_resp_9.corr,key_resp_9.rt,complex_prac_corr,span_recall_prac.thisRepN,span_recall_prac.thisTrialN,span_recall_prac.thisN,span_recall_prac.thisIndex,span_recall_prac.ran,key_resp_10.keys,key_resp_10.rt,key_resp_7.keys,key_resp_7.corr,key_resp_7.rt,repeat_if_wrong.thisRepN,repeat_if_wrong.thisTrialN,repeat_if_wrong.thisN,repeat_if_wrong.thisIndex,repeat_if_wrong.ran,span_size.thisRepN,span_size.thisTrialN,span_size.thisN,span_size.thisIndex,span_size.ran,complex_recall,key_resp_8.keys,key_resp_8.corr,key_resp_8.rt,complex_recall_corr,complex_recall_corrkeys,span_recall.thisRepN,span_recall.thisTrialN,span_recall.thisN,span_recall.thisIndex,span_recall.ran,key_resp_13.keys,key_resp_13.corr,key_resp_13.rt,random_loop.thisRepN,random_loop.thisTrialN,random_loop.thisN,random_loop.thisIndex,random_loop.ran,key_resp_12.keys,key_resp_12.rt
space,5.7004,space,11.4842,space,9.5287,0,0,0,0,1,X V Q F H G B L J M P D K C T S W R N Z,611e605f8acf7f120f3715e7,26,Kobieta,2022-06-11_09h13.46.672,task,2021.1.4,Win32,60.06006006,6299f149e92ead563fba08ef,62a44077d3383b198df25aac,,,,,,,,,,,,,,,,,,,,,,,,,,,,,,,,,,,,,,,,,,,,,,,,,,,,,,,,,,,,,,,,,,,,,,,,,,,,,,,,,,,,,,,,,,,,,,,,,,,,,
,,,,,,1,0,1,0,1,X V Q F H G B L J M P D K C T S W R N Z,611e605f8acf7f120f3715e7,26,Kobieta,2022-06-11_09h13.46.672,task,2021.1.4,Win32,60.06006006,6299f149e92ead563fba08ef,62a44077d3383b198df25aac,,,,,,,,,,,,,,,,,,,,,,,,,,,,,,,,,,,,,,,,,,,,,,,,,,,,,,,,,,,,,,,,,,,,,,,,,,,,,,,,,,,,,,,,,,,,,,,,,,,,,
,,,,,,,,,,,,611e605f8acf7f120f3715e7,26,Kobieta,2022-06-11_09h13.46.672,task,2021.1.4,Win32,60.06006006,6299f149e92ead563fba08ef,62a44077d3383b198df25aac,zp,"[""z"",""p""]","[3.5255999999046352,3.921599999904629,4.4155000000000015]",1,ZP,0,0,0,0,1,,,,,,,,,,,,,,,,,,,,,,,,,,,,,,,,,,,,,,,,,,,,,,,,,,,,,,,,,,,,,,,,,,,,,,,,,,,,,,,,,,,,,,,,,,,
,,,,,,0,0,0,0,1,X V Q F H G B L J M P D K C T S W R N Z,611e605f8acf7f120f3715e7,26,Kobieta,2022-06-11_09h13.46.672,task,2021.1.4,Win32,60.06006006,6299f149e92ead563fba08ef,62a44077d3383b198df25aac,,,,,,,,,,,,,,,,,,,,,,,,,,,,,,,,,,,,,,,,,,,,,,,,,,,,,,,,,,,,,,,,,,,,,,,,,,,,,,,,,,,,,,,,,,,,,,,,,,,,,
,,,,,,1,0,1,0,1,X V Q F H G B L J M P D K C T S W R N Z,611e605f8acf7f120f3715e7,26,Kobieta,2022-06-11_09h13.46.672,task,2021.1.4,Win32,60.06006006,6299f149e92ead563fba08ef,62a44077d3383b198df25aac,,,,,,,,,,,,,,,,,,,,,,,,,,,,,,,,,,,,,,,,,,,,,,,,,,,,,,,,,,,,,,,,,,,,,,,,,,,,,,,,,,,,,,,,,,,,,,,,,,,,,
,,,,,,,,,,,,611e605f8acf7f120f3715e7,26,Kobieta,2022-06-11_09h13.46.672,task,2021.1.4,Win32,60.06006006,6299f149e92ead563fba08ef,62a44077d3383b198df25aac,xn,"[""x"",""n""]","[1.8094000000953656,1.9648000001907349,2.557100000143045]",1,XN,1,0,1,0,1,,,,,,,,,,,,,,,,,,,,,,,,,,,,,,,,,,,,,,,,,,,,,,,,,,,,,,,,,,,,,,,,,,,,,,,,,,,,,,,,,,,,,,,,,,,
,,,,,,0,0,0,0,1,X V Q F H G B L J M P D K C T S W R N Z,611e605f8acf7f120f3715e7,26,Kobieta,2022-06-11_09h13.46.672,task,2021.1.4,Win32,60.06006006,6299f149e92ead563fba08ef,62a44077d3383b198df25aac,,,,,,,,,,,,,,,,,,,,,,,,,,,,,,,,,,,,,,,,,,,,,,,,,,,,,,,,,,,,,,,,,,,,,,,,,,,,,,,,,,,,,,,,,,,,,,,,,,,,,
,,,,,,1,0,1,0,1,X V Q F H G B L J M P D K C T S W R N Z,611e605f8acf7f120f3715e7,26,Kobieta,2022-06-11_09h13.46.672,task,2021.1.4,Win32,60.06006006,6299f149e92ead563fba08ef,62a44077d3383b198df25aac,,,,,,,,,,,,,,,,,,,,,,,,,,,,,,,,,,,,,,,,,,,,,,,,,,,,,,,,,,,,,,,,,,,,,,,,,,,,,,,,,,,,,,,,,,,,,,,,,,,,,
,,,,,,2,0,2,0,1,X V Q F H G B L J M P D K C T S W R N Z,611e605f8acf7f120f3715e7,26,Kobieta,2022-06-11_09h13.46.672,task,2021.1.4,Win32,60.06006006,6299f149e92ead563fba08ef,62a44077d3383b198df25aac,,,,,,,,,,,,,,,,,,,,,,,,,,,,,,,,,,,,,,,,,,,,,,,,,,,,,,,,,,,,,,,,,,,,,,,,,,,,,,,,,,,,,,,,,,,,,,,,,,,,,
,,,,,,,,,,,,611e605f8acf7f120f3715e7,26,Kobieta,2022-06-11_09h13.46.672,task,2021.1.4,Win32,60.06006006,6299f149e92ead563fba08ef,62a44077d3383b198df25aac,cll,"[""c"",""l"",""l""]","[0.4214000000953675,0.6212999999523134,0.782900000095367,1.1542000000476804]",1,CLL,2,0,2,0,1,,,,,,,,,,,,,,,,,,,,,,,,,,,,,,,,,,,,,,,,,,,,,,,,,,,,,,,,,,,,,,,,,,,,,,,,,,,,,,,,,,,,,,,,,,,
,,,,,,0,0,0,0,1,X V Q F H G B L J M P D K C T S W R N Z,611e605f8acf7f120f3715e7,26,Kobieta,2022-06-11_09h13.46.672,task,2021.1.4,Win32,60.06006006,6299f149e92ead563fba08ef,62a44077d3383b198df25aac,,,,,,,,,,,,,,,,,,,,,,,,,,,,,,,,,,,,,,,,,,,,,,,,,,,,,,,,,,,,,,,,,,,,,,,,,,,,,,,,,,,,,,,,,,,,,,,,,,,,,
,,,,,,1,0,1,0,1,X V Q F H G B L J M P D K C T S W R N Z,611e605f8acf7f120f3715e7,26,Kobieta,2022-06-11_09h13.46.672,task,2021.1.4,Win32,60.06006006,6299f149e92ead563fba08ef,62a44077d3383b198df25aac,,,,,,,,,,,,,,,,,,,,,,,,,,,,,,,,,,,,,,,,,,,,,,,,,,,,,,,,,,,,,,,,,,,,,,,,,,,,,,,,,,,,,,,,,,,,,,,,,,,,,
,,,,,,2,0,2,0,1,X V Q F H G B L J M P D K C T S W R N Z,611e605f8acf7f120f3715e7,26,Kobieta,2022-06-11_09h13.46.672,task,2021.1.4,Win32,60.06006006,6299f149e92ead563fba08ef,62a44077d3383b198df25aac,,,,,,,,,,,,,,,,,,,,,,,,,,,,,,,,,,,,,,,,,,,,,,,,,,,,,,,,,,,,,,,,,,,,,,,,,,,,,,,,,,,,,,,,,,,,,,,,,,,,,
,,,,,,,,,,,,611e605f8acf7f120f3715e7,26,Kobieta,2022-06-11_09h13.46.672,task,2021.1.4,Win32,60.06006006,6299f149e92ead563fba08ef,62a44077d3383b198df25aac,brm,"[""b"",""r"",""m""]","[1.0645999999046367,1.4900999999046363,1.635200000047682,1.8975000000000009]",1,BRM,3,0,3,0,1,,,,,,,,,,,,,,,,,,,,,,,,,,,,,,,,,,,,,,,,,,,,,,,,,,,,,,,,,,,,,,,,,,,,,,,,,,,,,,,,,,,,,,,,,,,
,,,,,,0,0,0,0,1,X V Q F H G B L J M P D K C T S W R N Z,611e605f8acf7f120f3715e7,26,Kobieta,2022-06-11_09h13.46.672,task,2021.1.4,Win32,60.06006006,6299f149e92ead563fba08ef,62a44077d3383b198df25aac,,,,,,,,,,,,,,,,,,,,,,,,,,,,,,,,,,,,,,,,,,,,,,,,,,,,,,,,,,,,,,,,,,,,,,,,,,,,,,,,,,,,,,,,,,,,,,,,,,,,,
,,,,,,1,0,1,0,1,X V Q F H G B L J M P D K C T S W R N Z,611e605f8acf7f120f3715e7,26,Kobieta,2022-06-11_09h13.46.672,task,2021.1.4,Win32,60.06006006,6299f149e92ead563fba08ef,62a44077d3383b198df25aac,,,,,,,,,,,,,,,,,,,,,,,,,,,,,,,,,,,,,,,,,,,,,,,,,,,,,,,,,,,,,,,,,,,,,,,,,,,,,,,,,,,,,,,,,,,,,,,,,,,,,
,,,,,,2,0,2,0,1,X V Q F H G B L J M P D K C T S W R N Z,611e605f8acf7f120f3715e7,26,Kobieta,2022-06-11_09h13.46.672,task,2021.1.4,Win32,60.06006006,6299f149e92ead563fba08ef,62a44077d3383b198df25aac,,,,,,,,,,,,,,,,,,,,,,,,,,,,,,,,,,,,,,,,,,,,,,,,,,,,,,,,,,,,,,,,,,,,,,,,,,,,,,,,,,,,,,,,,,,,,,,,,,,,,
,,,,,,3,0,3,0,1,X V Q F H G B L J M P D K C T S W R N Z,611e605f8acf7f120f3715e7,26,Kobieta,2022-06-11_09h13.46.672,task,2021.1.4,Win32,60.06006006,6299f149e92ead563fba08ef,62a44077d3383b198df25aac,,,,,,,,,,,,,,,,,,,,,,,,,,,,,,,,,,,,,,,,,,,,,,,,,,,,,,,,,,,,,,,,,,,,,,,,,,,,,,,,,,,,,,,,,,,,,,,,,,,,,
,,,,,,,,,,,,611e605f8acf7f120f3715e7,26,Kobieta,2022-06-11_09h13.46.672,task,2021.1.4,Win32,60.06006006,6299f149e92ead563fba08ef,62a44077d3383b198df25aac,fvws,"[""f"",""v"",""w"",""s""]","[0.9537000000476894,5.983400000095372,6.58560000014306,6.883800000190746,7.187200000047696]",1,FVWS,4,0,4,0,1,,,,,,,,,,,,,,,,,,,,,,,,,,,,,,,,,,,,,,,,,,,,,,,,,,,,,,,,,,,,,,,,,,,,,,,,,,,,,,,,,,,,,,,,,,,
,,,,,,0,0,0,0,1,X V Q F H G B L J M P D K C T S W R N Z,611e605f8acf7f120f3715e7,26,Kobieta,2022-06-11_09h13.46.672,task,2021.1.4,Win32,60.06006006,6299f149e92ead563fba08ef,62a44077d3383b198df25aac,,,,,,,,,,,,,,,,,,,,,,,,,,,,,,,,,,,,,,,,,,,,,,,,,,,,,,,,,,,,,,,,,,,,,,,,,,,,,,,,,,,,,,,,,,,,,,,,,,,,,
,,,,,,1,0,1,0,1,X V Q F H G B L J M P D K C T S W R N Z,611e605f8acf7f120f3715e7,26,Kobieta,2022-06-11_09h13.46.672,task,2021.1.4,Win32,60.06006006,6299f149e92ead563fba08ef,62a44077d3383b198df25aac,,,,,,,,,,,,,,,,,,,,,,,,,,,,,,,,,,,,,,,,,,,,,,,,,,,,,,,,,,,,,,,,,,,,,,,,,,,,,,,,,,,,,,,,,,,,,,,,,,,,,
,,,,,,2,0,2,0,1,X V Q F H G B L J M P D K C T S W R N Z,611e605f8acf7f120f3715e7,26,Kobieta,2022-06-11_09h13.46.672,task,2021.1.4,Win32,60.06006006,6299f149e92ead563fba08ef,62a44077d3383b198df25aac,,,,,,,,,,,,,,,,,,,,,,,,,,,,,,,,,,,,,,,,,,,,,,,,,,,,,,,,,,,,,,,,,,,,,,,,,,,,,,,,,,,,,,,,,,,,,,,,,,,,,
,,,,,,3,0,3,0,1,X V Q F H G B L J M P D K C T S W R N Z,611e605f8acf7f120f3715e7,26,Kobieta,2022-06-11_09h13.46.672,task,2021.1.4,Win32,60.06006006,6299f149e92ead563fba08ef,62a44077d3383b198df25aac,,,,,,,,,,,,,,,,,,,,,,,,,,,,,,,,,,,,,,,,,,,,,,,,,,,,,,,,,,,,,,,,,,,,,,,,,,,,,,,,,,,,,,,,,,,,,,,,,,,,,
,,,,,,,,,,,,611e605f8acf7f120f3715e7,26,Kobieta,2022-06-11_09h13.46.672,task,2021.1.4,Win32,60.06006006,6299f149e92ead563fba08ef,62a44077d3383b198df25aac,bvpj,"[""b"",""v"",""p"",""j""]","[0.9319000000953679,1.3204999999999956,1.5757000000476893,2.2481000001430544,2.6146000001430565]",1,BVPJ,5,0,5,0,1,,,,,,,,,,,,,,,,,,,,,,,,,,,,,,,,,,,,,,,,,,,,,,,,,,,,,,,,,,,,,,,,,,,,,,,,,,,,,,,,,,,,,,,,,,,
,,,,,,0,0,0,0,1,X V Q F H G B L J M P D K C T S W R N Z,611e605f8acf7f120f3715e7,26,Kobieta,2022-06-11_09h13.46.672,task,2021.1.4,Win32,60.06006006,6299f149e92ead563fba08ef,62a44077d3383b198df25aac,,,,,,,,,,,,,,,,,,,,,,,,,,,,,,,,,,,,,,,,,,,,,,,,,,,,,,,,,,,,,,,,,,,,,,,,,,,,,,,,,,,,,,,,,,,,,,,,,,,,,
,,,,,,1,0,1,0,1,X V Q F H G B L J M P D K C T S W R N Z,611e605f8acf7f120f3715e7,26,Kobieta,2022-06-11_09h13.46.672,task,2021.1.4,Win32,60.06006006,6299f149e92ead563fba08ef,62a44077d3383b198df25aac,,,,,,,,,,,,,,,,,,,,,,,,,,,,,,,,,,,,,,,,,,,,,,,,,,,,,,,,,,,,,,,,,,,,,,,,,,,,,,,,,,,,,,,,,,,,,,,,,,,,,
,,,,,,2,0,2,0,1,X V Q F H G B L J M P D K C T S W R N Z,611e605f8acf7f120f3715e7,26,Kobieta,2022-06-11_09h13.46.672,task,2021.1.4,Win32,60.06006006,6299f149e92ead563fba08ef,62a44077d3383b198df25aac,,,,,,,,,,,,,,,,,,,,,,,,,,,,,,,,,,,,,,,,,,,,,,,,,,,,,,,,,,,,,,,,,,,,,,,,,,,,,,,,,,,,,,,,,,,,,,,,,,,,,
,,,,,,3,0,3,0,1,X V Q F H G B L J M P D K C T S W R N Z,611e605f8acf7f120f3715e7,26,Kobieta,2022-06-11_09h13.46.672,task,2021.1.4,Win32,60.06006006,6299f149e92ead563fba08ef,62a44077d3383b198df25aac,,,,,,,,,,,,,,,,,,,,,,,,,,,,,,,,,,,,,,,,,,,,,,,,,,,,,,,,,,,,,,,,,,,,,,,,,,,,,,,,,,,,,,,,,,,,,,,,,,,,,
,,,,,,4,0,4,0,1,X V Q F H G B L J M P D K C T S W R N Z,611e605f8acf7f120f3715e7,26,Kobieta,2022-06-11_09h13.46.672,task,2021.1.4,Win32,60.06006006,6299f149e92ead563fba08ef,62a44077d3383b198df25aac,,,,,,,,,,,,,,,,,,,,,,,,,,,,,,,,,,,,,,,,,,,,,,,,,,,,,,,,,,,,,,,,,,,,,,,,,,,,,,,,,,,,,,,,,,,,,,,,,,,,,
,,,,,,,,,,,,611e605f8acf7f120f3715e7,26,Kobieta,2022-06-11_09h13.46.672,task,2021.1.4,Win32,60.06006006,6299f149e92ead563fba08ef,62a44077d3383b198df25aac,lwckp,"[""l"",""w"",""c"",""k"",""p""]","[1.0492000000476764,1.405300000190735,5.19660000014305,6.854800000190735,8.311900000095363,8.930100000143042]",0,LWCNK,6,0,6,0,1,,,,,,,,,,,,,,,,,,,,,,,,,,,,,,,,,,,,,,,,,,,,,,,,,,,,,,,,,,,,,,,,,,,,,,,,,,,,,,,,,,,,,,,,,,,
,,,,,,0,0,0,0,1,X V Q F H G B L J M P D K C T S W R N Z,611e605f8acf7f120f3715e7,26,Kobieta,2022-06-11_09h13.46.672,task,2021.1.4,Win32,60.06006006,6299f149e92ead563fba08ef,62a44077d3383b198df25aac,,,,,,,,,,,,,,,,,,,,,,,,,,,,,,,,,,,,,,,,,,,,,,,,,,,,,,,,,,,,,,,,,,,,,,,,,,,,,,,,,,,,,,,,,,,,,,,,,,,,,
,,,,,,1,0,1,0,1,X V Q F H G B L J M P D K C T S W R N Z,611e605f8acf7f120f3715e7,26,Kobieta,2022-06-11_09h13.46.672,task,2021.1.4,Win32,60.06006006,6299f149e92ead563fba08ef,62a44077d3383b198df25aac,,,,,,,,,,,,,,,,,,,,,,,,,,,,,,,,,,,,,,,,,,,,,,,,,,,,,,,,,,,,,,,,,,,,,,,,,,,,,,,,,,,,,,,,,,,,,,,,,,,,,
,,,,,,2,0,2,0,1,X V Q F H G B L J M P D K C T S W R N Z,611e605f8acf7f120f3715e7,26,Kobieta,2022-06-11_09h13.46.672,task,2021.1.4,Win32,60.06006006,6299f149e92ead563fba08ef,62a44077d3383b198df25aac,,,,,,,,,,,,,,,,,,,,,,,,,,,,,,,,,,,,,,,,,,,,,,,,,,,,,,,,,,,,,,,,,,,,,,,,,,,,,,,,,,,,,,,,,,,,,,,,,,,,,
,,,,,,3,0,3,0,1,X V Q F H G B L J M P D K C T S W R N Z,611e605f8acf7f120f3715e7,26,Kobieta,2022-06-11_09h13.46.672,task,2021.1.4,Win32,60.06006006,6299f149e92ead563fba08ef,62a44077d3383b198df25aac,,,,,,,,,,,,,,,,,,,,,,,,,,,,,,,,,,,,,,,,,,,,,,,,,,,,,,,,,,,,,,,,,,,,,,,,,,,,,,,,,,,,,,,,,,,,,,,,,,,,,
,,,,,,4,0,4,0,1,X V Q F H G B L J M P D K C T S W R N Z,611e605f8acf7f120f3715e7,26,Kobieta,2022-06-11_09h13.46.672,task,2021.1.4,Win32,60.06006006,6299f149e92ead563fba08ef,62a44077d3383b198df25aac,,,,,,,,,,,,,,,,,,,,,,,,,,,,,,,,,,,,,,,,,,,,,,,,,,,,,,,,,,,,,,,,,,,,,,,,,,,,,,,,,,,,,,,,,,,,,,,,,,,,,
,,,,,,,,,,,,611e605f8acf7f120f3715e7,26,Kobieta,2022-06-11_09h13.46.672,task,2021.1.4,Win32,60.06006006,6299f149e92ead563fba08ef,62a44077d3383b198df25aac,mrbtx,"[""m"",""r"",""b"",""t"",""x""]","[1.171999999999997,1.7197000000476805,1.95470000004768,2.206400000095371,2.4814000000953627,2.764299999952314]",1,MRBTX,7,0,7,0,1,,,,,,,,,,,,,,,,,,,,,,,,,,,,,,,,,,,,,,,,,,,,,,,,,,,,,,,,,,,,,,,,,,,,,,,,,,,,,,,,,,,,,,,,,,,
,,,,,,0,0,0,0,1,X V Q F H G B L J M P D K C T S W R N Z,611e605f8acf7f120f3715e7,26,Kobieta,2022-06-11_09h13.46.672,task,2021.1.4,Win32,60.06006006,6299f149e92ead563fba08ef,62a44077d3383b198df25aac,,,,,,,,,,,,,,,,,,,,,,,,,,,,,,,,,,,,,,,,,,,,,,,,,,,,,,,,,,,,,,,,,,,,,,,,,,,,,,,,,,,,,,,,,,,,,,,,,,,,,
,,,,,,1,0,1,0,1,X V Q F H G B L J M P D K C T S W R N Z,611e605f8acf7f120f3715e7,26,Kobieta,2022-06-11_09h13.46.672,task,2021.1.4,Win32,60.06006006,6299f149e92ead563fba08ef,62a44077d3383b198df25aac,,,,,,,,,,,,,,,,,,,,,,,,,,,,,,,,,,,,,,,,,,,,,,,,,,,,,,,,,,,,,,,,,,,,,,,,,,,,,,,,,,,,,,,,,,,,,,,,,,,,,
,,,,,,2,0,2,0,1,X V Q F H G B L J M P D K C T S W R N Z,611e605f8acf7f120f3715e7,26,Kobieta,2022-06-11_09h13.46.672,task,2021.1.4,Win32,60.06006006,6299f149e92ead563fba08ef,62a44077d3383b198df25aac,,,,,,,,,,,,,,,,,,,,,,,,,,,,,,,,,,,,,,,,,,,,,,,,,,,,,,,,,,,,,,,,,,,,,,,,,,,,,,,,,,,,,,,,,,,,,,,,,,,,,
,,,,,,3,0,3,0,1,X V Q F H G B L J M P D K C T S W R N Z,611e605f8acf7f120f3715e7,26,Kobieta,2022-06-11_09h13.46.672,task,2021.1.4,Win32,60.06006006,6299f149e92ead563fba08ef,62a44077d3383b198df25aac,,,,,,,,,,,,,,,,,,,,,,,,,,,,,,,,,,,,,,,,,,,,,,,,,,,,,,,,,,,,,,,,,,,,,,,,,,,,,,,,,,,,,,,,,,,,,,,,,,,,,
,,,,,,4,0,4,0,1,X V Q F H G B L J M P D K C T S W R N Z,611e605f8acf7f120f3715e7,26,Kobieta,2022-06-11_09h13.46.672,task,2021.1.4,Win32,60.06006006,6299f149e92ead563fba08ef,62a44077d3383b198df25aac,,,,,,,,,,,,,,,,,,,,,,,,,,,,,,,,,,,,,,,,,,,,,,,,,,,,,,,,,,,,,,,,,,,,,,,,,,,,,,,,,,,,,,,,,,,,,,,,,,,,,
,,,,,,,,,,,,611e605f8acf7f120f3715e7,26,Kobieta,2022-06-11_09h13.46.672,task,2021.1.4,Win32,60.06006006,6299f149e92ead563fba08ef,62a44077d3383b198df25aac,pghlv,"[""p"",""g"",""h"",""l"",""v""]","[1.169200000047681,1.774000000000001,1.9562999999523214,2.2347999999523154,2.551099999904636,3.53120000004769]",1,PGHLV,8,0,8,0,1,,,,,,,,,,,,,,,,,,,,,,,,,,,,,,,,,,,,,,,,,,,,,,,,,,,,,,,,,,,,,,,,,,,,,,,,,,,,,,,,,,,,,,,,,,,
,,,,,,0,0,0,0,1,X V Q F H G B L J M P D K C T S W R N Z,611e605f8acf7f120f3715e7,26,Kobieta,2022-06-11_09h13.46.672,task,2021.1.4,Win32,60.06006006,6299f149e92ead563fba08ef,62a44077d3383b198df25aac,,,,,,,,,,,,,,,,,,,,,,,,,,,,,,,,,,,,,,,,,,,,,,,,,,,,,,,,,,,,,,,,,,,,,,,,,,,,,,,,,,,,,,,,,,,,,,,,,,,,,
,,,,,,1,0,1,0,1,X V Q F H G B L J M P D K C T S W R N Z,611e605f8acf7f120f3715e7,26,Kobieta,2022-06-11_09h13.46.672,task,2021.1.4,Win32,60.06006006,6299f149e92ead563fba08ef,62a44077d3383b198df25aac,,,,,,,,,,,,,,,,,,,,,,,,,,,,,,,,,,,,,,,,,,,,,,,,,,,,,,,,,,,,,,,,,,,,,,,,,,,,,,,,,,,,,,,,,,,,,,,,,,,,,
,,,,,,2,0,2,0,1,X V Q F H G B L J M P D K C T S W R N Z,611e605f8acf7f120f3715e7,26,Kobieta,2022-06-11_09h13.46.672,task,2021.1.4,Win32,60.06006006,6299f149e92ead563fba08ef,62a44077d3383b198df25aac,,,,,,,,,,,,,,,,,,,,,,,,,,,,,,,,,,,,,,,,,,,,,,,,,,,,,,,,,,,,,,,,,,,,,,,,,,,,,,,,,,,,,,,,,,,,,,,,,,,,,
,,,,,,3,0,3,0,1,X V Q F H G B L J M P D K C T S W R N Z,611e605f8acf7f120f3715e7,26,Kobieta,2022-06-11_09h13.46.672,task,2021.1.4,Win32,60.06006006,6299f149e92ead563fba08ef,62a44077d3383b198df25aac,,,,,,,,,,,,,,,,,,,,,,,,,,,,,,,,,,,,,,,,,,,,,,,,,,,,,,,,,,,,,,,,,,,,,,,,,,,,,,,,,,,,,,,,,,,,,,,,,,,,,
,,,,,,4,0,4,0,1,X V Q F H G B L J M P D K C T S W R N Z,611e605f8acf7f120f3715e7,26,Kobieta,2022-06-11_09h13.46.672,task,2021.1.4,Win32,60.06006006,6299f149e92ead563fba08ef,62a44077d3383b198df25aac,,,,,,,,,,,,,,,,,,,,,,,,,,,,,,,,,,,,,,,,,,,,,,,,,,,,,,,,,,,,,,,,,,,,,,,,,,,,,,,,,,,,,,,,,,,,,,,,,,,,,
,,,,,,5,0,5,0,1,X V Q F H G B L J M P D K C T S W R N Z,611e605f8acf7f120f3715e7,26,Kobieta,2022-06-11_09h13.46.672,task,2021.1.4,Win32,60.06006006,6299f149e92ead563fba08ef,62a44077d3383b198df25aac,,,,,,,,,,,,,,,,,,,,,,,,,,,,,,,,,,,,,,,,,,,,,,,,,,,,,,,,,,,,,,,,,,,,,,,,,,,,,,,,,,,,,,,,,,,,,,,,,,,,,
,,,,,,,,,,,,611e605f8acf7f120f3715e7,26,Kobieta,2022-06-11_09h13.46.672,task,2021.1.4,Win32,60.06006006,6299f149e92ead563fba08ef,62a44077d3383b198df25aac,htpgqb,"[""h"",""t"",""p"",""g"",""q"",""b""]","[0.9543999998569461,1.168999999999997,1.4540000000000077,4.8317000000476895,5.055200000047691,5.2205999999046355,6.016000000000005]",0,HTPQGB,9,0,9,0,1,,,,,,,,,,,,,,,,,,,,,,,,,,,,,,,,,,,,,,,,,,,,,,,,,,,,,,,,,,,,,,,,,,,,,,,,,,,,,,,,,,,,,,,,,,,
,,,,,,0,0,0,0,1,X V Q F H G B L J M P D K C T S W R N Z,611e605f8acf7f120f3715e7,26,Kobieta,2022-06-11_09h13.46.672,task,2021.1.4,Win32,60.06006006,6299f149e92ead563fba08ef,62a44077d3383b198df25aac,,,,,,,,,,,,,,,,,,,,,,,,,,,,,,,,,,,,,,,,,,,,,,,,,,,,,,,,,,,,,,,,,,,,,,,,,,,,,,,,,,,,,,,,,,,,,,,,,,,,,
,,,,,,1,0,1,0,1,X V Q F H G B L J M P D K C T S W R N Z,611e605f8acf7f120f3715e7,26,Kobieta,2022-06-11_09h13.46.672,task,2021.1.4,Win32,60.06006006,6299f149e92ead563fba08ef,62a44077d3383b198df25aac,,,,,,,,,,,,,,,,,,,,,,,,,,,,,,,,,,,,,,,,,,,,,,,,,,,,,,,,,,,,,,,,,,,,,,,,,,,,,,,,,,,,,,,,,,,,,,,,,,,,,
,,,,,,2,0,2,0,1,X V Q F H G B L J M P D K C T S W R N Z,611e605f8acf7f120f3715e7,26,Kobieta,2022-06-11_09h13.46.672,task,2021.1.4,Win32,60.06006006,6299f149e92ead563fba08ef,62a44077d3383b198df25aac,,,,,,,,,,,,,,,,,,,,,,,,,,,,,,,,,,,,,,,,,,,,,,,,,,,,,,,,,,,,,,,,,,,,,,,,,,,,,,,,,,,,,,,,,,,,,,,,,,,,,
,,,,,,3,0,3,0,1,X V Q F H G B L J M P D K C T S W R N Z,611e605f8acf7f120f3715e7,26,Kobieta,2022-06-11_09h13.46.672,task,2021.1.4,Win32,60.06006006,6299f149e92ead563fba08ef,62a44077d3383b198df25aac,,,,,,,,,,,,,,,,,,,,,,,,,,,,,,,,,,,,,,,,,,,,,,,,,,,,,,,,,,,,,,,,,,,,,,,,,,,,,,,,,,,,,,,,,,,,,,,,,,,,,
,,,,,,4,0,4,0,1,X V Q F H G B L J M P D K C T S W R N Z,611e605f8acf7f120f3715e7,26,Kobieta,2022-06-11_09h13.46.672,task,2021.1.4,Win32,60.06006006,6299f149e92ead563fba08ef,62a44077d3383b198df25aac,,,,,,,,,,,,,,,,,,,,,,,,,,,,,,,,,,,,,,,,,,,,,,,,,,,,,,,,,,,,,,,,,,,,,,,,,,,,,,,,,,,,,,,,,,,,,,,,,,,,,
,,,,,,5,0,5,0,1,X V Q F H G B L J M P D K C T S W R N Z,611e605f8acf7f120f3715e7,26,Kobieta,2022-06-11_09h13.46.672,task,2021.1.4,Win32,60.06006006,6299f149e92ead563fba08ef,62a44077d3383b198df25aac,,,,,,,,,,,,,,,,,,,,,,,,,,,,,,,,,,,,,,,,,,,,,,,,,,,,,,,,,,,,,,,,,,,,,,,,,,,,,,,,,,,,,,,,,,,,,,,,,,,,,
,,,,,,,,,,,,611e605f8acf7f120f3715e7,26,Kobieta,2022-06-11_09h13.46.672,task,2021.1.4,Win32,60.06006006,6299f149e92ead563fba08ef,62a44077d3383b198df25aac,vksfbg,"[""v"",""k"",""s"",""f"",""b"",""g""]","[1.1669000000953815,1.3512999999523174,1.6567999999523124,4.397100000143041,4.597100000143058,6.200600000143055,7.629299999952309]",0,VKSBFD,10,0,10,0,1,,,,,,,,,,,,,,,,,,,,,,,,,,,,,,,,,,,,,,,,,,,,,,,,,,,,,,,,,,,,,,,,,,,,,,,,,,,,,,,,,,,,,,,,,,,
,,,,,,0,0,0,0,1,X V Q F H G B L J M P D K C T S W R N Z,611e605f8acf7f120f3715e7,26,Kobieta,2022-06-11_09h13.46.672,task,2021.1.4,Win32,60.06006006,6299f149e92ead563fba08ef,62a44077d3383b198df25aac,,,,,,,,,,,,,,,,,,,,,,,,,,,,,,,,,,,,,,,,,,,,,,,,,,,,,,,,,,,,,,,,,,,,,,,,,,,,,,,,,,,,,,,,,,,,,,,,,,,,,
,,,,,,1,0,1,0,1,X V Q F H G B L J M P D K C T S W R N Z,611e605f8acf7f120f3715e7,26,Kobieta,2022-06-11_09h13.46.672,task,2021.1.4,Win32,60.06006006,6299f149e92ead563fba08ef,62a44077d3383b198df25aac,,,,,,,,,,,,,,,,,,,,,,,,,,,,,,,,,,,,,,,,,,,,,,,,,,,,,,,,,,,,,,,,,,,,,,,,,,,,,,,,,,,,,,,,,,,,,,,,,,,,,
,,,,,,2,0,2,0,1,X V Q F H G B L J M P D K C T S W R N Z,611e605f8acf7f120f3715e7,26,Kobieta,2022-06-11_09h13.46.672,task,2021.1.4,Win32,60.06006006,6299f149e92ead563fba08ef,62a44077d3383b198df25aac,,,,,,,,,,,,,,,,,,,,,,,,,,,,,,,,,,,,,,,,,,,,,,,,,,,,,,,,,,,,,,,,,,,,,,,,,,,,,,,,,,,,,,,,,,,,,,,,,,,,,
,,,,,,3,0,3,0,1,X V Q F H G B L J M P D K C T S W R N Z,611e605f8acf7f120f3715e7,26,Kobieta,2022-06-11_09h13.46.672,task,2021.1.4,Win32,60.06006006,6299f149e92ead563fba08ef,62a44077d3383b198df25aac,,,,,,,,,,,,,,,,,,,,,,,,,,,,,,,,,,,,,,,,,,,,,,,,,,,,,,,,,,,,,,,,,,,,,,,,,,,,,,,,,,,,,,,,,,,,,,,,,,,,,
,,,,,,4,0,4,0,1,X V Q F H G B L J M P D K C T S W R N Z,611e605f8acf7f120f3715e7,26,Kobieta,2022-06-11_09h13.46.672,task,2021.1.4,Win32,60.06006006,6299f149e92ead563fba08ef,62a44077d3383b198df25aac,,,,,,,,,,,,,,,,,,,,,,,,,,,,,,,,,,,,,,,,,,,,,,,,,,,,,,,,,,,,,,,,,,,,,,,,,,,,,,,,,,,,,,,,,,,,,,,,,,,,,
,,,,,,5,0,5,0,1,X V Q F H G B L J M P D K C T S W R N Z,611e605f8acf7f120f3715e7,26,Kobieta,2022-06-11_09h13.46.672,task,2021.1.4,Win32,60.06006006,6299f149e92ead563fba08ef,62a44077d3383b198df25aac,,,,,,,,,,,,,,,,,,,,,,,,,,,,,,,,,,,,,,,,,,,,,,,,,,,,,,,,,,,,,,,,,,,,,,,,,,,,,,,,,,,,,,,,,,,,,,,,,,,,,
,,,,,,,,,,,,611e605f8acf7f120f3715e7,26,Kobieta,2022-06-11_09h13.46.672,task,2021.1.4,Win32,60.06006006,6299f149e92ead563fba08ef,62a44077d3383b198df25aac,dtmcdc,"[""d"",""t"",""m"",""c"",""d"",""c""]","[1.5319000000953622,1.6982000000476773,2.2392999999523227,2.6480999999046446,2.8980999999046446,3.0487000000476883,3.3667999999523204]",1,DTMCDC,11,0,11,0,1,,,,,,,,,,,,,,,,,,,,,,,,,,,,,,,,,,,,,,,,,,,,,,,,,,,,,,,,,,,,,,,,,,,,,,,,,,,,,,,,,,,,,,,,,,,
,,,,,,0,0,0,0,1,X V Q F H G B L J M P D K C T S W R N Z,611e605f8acf7f120f3715e7,26,Kobieta,2022-06-11_09h13.46.672,task,2021.1.4,Win32,60.06006006,6299f149e92ead563fba08ef,62a44077d3383b198df25aac,,,,,,,,,,,,,,,,,,,,,,,,,,,,,,,,,,,,,,,,,,,,,,,,,,,,,,,,,,,,,,,,,,,,,,,,,,,,,,,,,,,,,,,,,,,,,,,,,,,,,
,,,,,,1,0,1,0,1,X V Q F H G B L J M P D K C T S W R N Z,611e605f8acf7f120f3715e7,26,Kobieta,2022-06-11_09h13.46.672,task,2021.1.4,Win32,60.06006006,6299f149e92ead563fba08ef,62a44077d3383b198df25aac,,,,,,,,,,,,,,,,,,,,,,,,,,,,,,,,,,,,,,,,,,,,,,,,,,,,,,,,,,,,,,,,,,,,,,,,,,,,,,,,,,,,,,,,,,,,,,,,,,,,,
,,,,,,2,0,2,0,1,X V Q F H G B L J M P D K C T S W R N Z,611e605f8acf7f120f3715e7,26,Kobieta,2022-06-11_09h13.46.672,task,2021.1.4,Win32,60.06006006,6299f149e92ead563fba08ef,62a44077d3383b198df25aac,,,,,,,,,,,,,,,,,,,,,,,,,,,,,,,,,,,,,,,,,,,,,,,,,,,,,,,,,,,,,,,,,,,,,,,,,,,,,,,,,,,,,,,,,,,,,,,,,,,,,
,,,,,,3,0,3,0,1,X V Q F H G B L J M P D K C T S W R N Z,611e605f8acf7f120f3715e7,26,Kobieta,2022-06-11_09h13.46.672,task,2021.1.4,Win32,60.06006006,6299f149e92ead563fba08ef,62a44077d3383b198df25aac,,,,,,,,,,,,,,,,,,,,,,,,,,,,,,,,,,,,,,,,,,,,,,,,,,,,,,,,,,,,,,,,,,,,,,,,,,,,,,,,,,,,,,,,,,,,,,,,,,,,,
,,,,,,4,0,4,0,1,X V Q F H G B L J M P D K C T S W R N Z,611e605f8acf7f120f3715e7,26,Kobieta,2022-06-11_09h13.46.672,task,2021.1.4,Win32,60.06006006,6299f149e92ead563fba08ef,62a44077d3383b198df25aac,,,,,,,,,,,,,,,,,,,,,,,,,,,,,,,,,,,,,,,,,,,,,,,,,,,,,,,,,,,,,,,,,,,,,,,,,,,,,,,,,,,,,,,,,,,,,,,,,,,,,
,,,,,,5,0,5,0,1,X V Q F H G B L J M P D K C T S W R N Z,611e605f8acf7f120f3715e7,26,Kobieta,2022-06-11_09h13.46.672,task,2021.1.4,Win32,60.06006006,6299f149e92ead563fba08ef,62a44077d3383b198df25aac,,,,,,,,,,,,,,,,,,,,,,,,,,,,,,,,,,,,,,,,,,,,,,,,,,,,,,,,,,,,,,,,,,,,,,,,,,,,,,,,,,,,,,,,,,,,,,,,,,,,,
,,,,,,,,,,,,611e605f8acf7f120f3715e7,26,Kobieta,2022-06-11_09h13.46.672,task,2021.1.4,Win32,60.06006006,6299f149e92ead563fba08ef,62a44077d3383b198df25aac,cmsbtm,"[""c"",""m"",""s"",""b"",""t"",""m""]","[1.2982999999523201,1.4415999999046107,1.7837999999522935,2.2728999998569464,4.350299999952313,4.600899999856949,5.0302999999523195]",0,CMSBNM,12,0,12,0,1,,,,,,,,,,,,,,,,,,,,,,,,,,,,,,,,,,,,,,,,,,,,,,,,,,,,,,,,,,,,,,,,,,,,,,,,,,,,,,,,,,,,,,,,,,,
,,,,,,,,,,,,611e605f8acf7f120f3715e7,26,Kobieta,2022-06-11_09h13.46.672,task,2021.1.4,Win32,60.06006006,6299f149e92ead563fba08ef,62a44077d3383b198df25aac,,,,,,,,,,,space,7.5396,7,"[""7""]",1,[7.406999999999982],[7.406999999999982],0,0,0,7,1,Practice,8,(5x5) - 18,7,,,,,,,,,,,,,,,,,,,,,,,,,,,,,,,,,,,,,,,,,,,,,,,,,,,,,,,,,,,,,,,,,,,,,,,,,,,
,,,,,,,,,,,,611e605f8acf7f120f3715e7,26,Kobieta,2022-06-11_09h13.46.672,task,2021.1.4,Win32,60.06006006,6299f149e92ead563fba08ef,62a44077d3383b198df25aac,,,,,,,,,,,,,2,"[""2""]",1,[2.933700000047679],"[7.406999999999982,2.933700000047679]",0,1,1,2,1,Practice,3,(4x4) - 14,2,,,,,,,,,,,,,,,,,,,,,,,,,,,,,,,,,,,,,,,,,,,,,,,,,,,,,,,,,,,,,,,,,,,,,,,,,,,
,,,,,,,,,,,,611e605f8acf7f120f3715e7,26,Kobieta,2022-06-11_09h13.46.672,task,2021.1.4,Win32,60.06006006,6299f149e92ead563fba08ef,62a44077d3383b198df25aac,,,,,,,,,,,,,8,"[""8""]",1,[1.5229000000953477],"[7.406999999999982,2.933700000047679,1.5229000000953477]",0,2,2,8,1,Practice,9,(3x3) - 1,8,,,,,,,,,,,,,,,,,,,,,,,,,,,,,,,,,,,,,,,,,,,,,,,,,,,,,,,,,,,,,,,,,,,,,,,,,,,
,,,,,,,,,,,,611e605f8acf7f120f3715e7,26,Kobieta,2022-06-11_09h13.46.672,task,2021.1.4,Win32,60.06006006,6299f149e92ead563fba08ef,62a44077d3383b198df25aac,,,,,,,,,,,,,1,"[""1""]",1,[1.4917999999523204],"[7.406999999999982,2.933700000047679,1.5229000000953477,1.4917999999523204]",0,3,3,1,1,Practice,2,(4x4) - 15,1,,,,,,,,,,,,,,,,,,,,,,,,,,,,,,,,,,,,,,,,,,,,,,,,,,,,,,,,,,,,,,,,,,,,,,,,,,,
,,,,,,,,,,,,611e605f8acf7f120f3715e7,26,Kobieta,2022-06-11_09h13.46.672,task,2021.1.4,Win32,60.06006006,6299f149e92ead563fba08ef,62a44077d3383b198df25aac,,,,,,,,,,,,,0,"[""0""]",1,[1.4537999999523379],"[7.406999999999982,2.933700000047679,1.5229000000953477,1.4917999999523204,1.4537999999523379]",0,4,4,0,1,Practice,1,(3x3) -  9,0,,,,,,,,,,,,,,,,,,,,,,,,,,,,,,,,,,,,,,,,,,,,,,,,,,,,,,,,,,,,,,,,,,,,,,,,,,,
,,,,,,,,,,,,611e605f8acf7f120f3715e7,26,Kobieta,2022-06-11_09h13.46.672,task,2021.1.4,Win32,60.06006006,6299f149e92ead563fba08ef,62a44077d3383b198df25aac,,,,,,,,,,,,,3,"[""3""]",1,[1.7981000001430516],"[7.406999999999982,2.933700000047679,1.5229000000953477,1.4917999999523204,1.4537999999523379,1.7981000001430516]",0,5,5,3,1,Practice,4,(8/4) + 1,3,,,,,,,,,,,,,,,,,,,,,,,,,,,,,,,,,,,,,,,,,,,,,,,,,,,,,,,,,,,,,,,,,,,,,,,,,,,
,,,,,,,,,,,,611e605f8acf7f120f3715e7,26,Kobieta,2022-06-11_09h13.46.672,task,2021.1.4,Win32,60.06006006,6299f149e92ead563fba08ef,62a44077d3383b198df25aac,,,,,,,,,,,,,9,"[""9""]",1,[2.7060000000000173],"[7.406999999999982,2.933700000047679,1.5229000000953477,1.4917999999523204,1.4537999999523379,1.7981000001430516,2.7060000000000173]",0,6,6,9,1,Practice,10,(20/2) - 1,9,,,,,,,,,,,,,,,,,,,,,,,,,,,,,,,,,,,,,,,,,,,,,,,,,,,,,,,,,,,,,,,,,,,,,,,,,,,
,,,,,,,,,,,,611e605f8acf7f120f3715e7,26,Kobieta,2022-06-11_09h13.46.672,task,2021.1.4,Win32,60.06006006,6299f149e92ead563fba08ef,62a44077d3383b198df25aac,,,,,,,,,,,,,5,"[""5""]",1,[2.131900000095385],"[7.406999999999982,2.933700000047679,1.5229000000953477,1.4917999999523204,1.4537999999523379,1.7981000001430516,2.7060000000000173,2.131900000095385]",0,7,7,5,1,Practice,6,(4/2) + 3,5,,,,,,,,,,,,,,,,,,,,,,,,,,,,,,,,,,,,,,,,,,,,,,,,,,,,,,,,,,,,,,,,,,,,,,,,,,,
,,,,,,,,,,,,611e605f8acf7f120f3715e7,26,Kobieta,2022-06-11_09h13.46.672,task,2021.1.4,Win32,60.06006006,6299f149e92ead563fba08ef,62a44077d3383b198df25aac,,,,,,,,,,,,,6,"[""6""]",1,[1.559700000047684],"[7.406999999999982,2.933700000047679,1.5229000000953477,1.4917999999523204,1.4537999999523379,1.7981000001430516,2.7060000000000173,2.131900000095385,1.559700000047684]",0,8,8,6,1,Practice,7,(25/5) + 1,6,,,,,,,,,,,,,,,,,,,,,,,,,,,,,,,,,,,,,,,,,,,,,,,,,,,,,,,,,,,,,,,,,,,,,,,,,,,
,,,,,,,,,,,,611e605f8acf7f120f3715e7,26,Kobieta,2022-06-11_09h13.46.672,task,2021.1.4,Win32,60.06006006,6299f149e92ead563fba08ef,62a44077d3383b198df25aac,,,,,,,,,,,,,6,"[""6""]",0,[5.369399999856938],"[7.406999999999982,2.933700000047679,1.5229000000953477,1.4917999999523204,1.4537999999523379,1.7981000001430516,2.7060000000000173,2.131900000095385,1.559700000047684,5.369399999856938]",0,9,9,4,1,Practice,5,(2x6) - 8,4,,,,,,,,,,,,,,,,,,,,,,,,,,,,,,,,,,,,,,,,,,,,,,,,,,,,,,,,,,,,,,,,,,,,,,,,,,,
,,,,,,,,,,,,611e605f8acf7f120f3715e7,26,Kobieta,2022-06-11_09h13.46.672,task,2021.1.4,Win32,60.06006006,6299f149e92ead563fba08ef,62a44077d3383b198df25aac,,,,,,,,,,,,,,,,,,,,,,,,,,,0.9,28.3743,1.89162,44.92766396,1.73065814,6.356718001,space,7.2144,0,0,0,0,1,,,,,,,,,,,,,,,,,,,,,,,,,,,,,,,,,,,,,,,,,,,,,,,,,,,,,,,,,,,,,,
,,,,,,,,,,,,611e605f8acf7f120f3715e7,26,Kobieta,2022-06-11_09h13.46.672,task,2021.1.4,Win32,60.06006006,6299f149e92ead563fba08ef,62a44077d3383b198df25aac,,,,,,,,,,,,,6,,,,,,,,,,Practice,7,(25/5) + 1,6,,,,,,,,,,,,,,space,23.7908,"[""6""]",1,[2.897800000190699],1,0,0,0,6,1,,,,,,,,,,,,,,,,,,,,,,,,,,,,,,,,,,,,,,,,,,,,,,,,,,,
,,,,,,,,,,,X V Q F H G B L J M P D K C T S W R N Z,611e605f8acf7f120f3715e7,26,Kobieta,2022-06-11_09h13.46.672,task,2021.1.4,Win32,60.06006006,6299f149e92ead563fba08ef,62a44077d3383b198df25aac,,,,,,,,,,,,,,,,,,,,,,,,,,,,,,,,,,,,,,,,,,,,,,,,,,,0,0,0,0,1,,,,,,,,,,,,,,,,,,,,,,,,,,,,,,,,,,,,,,,,,,,,,,
,,,,,,,,,,,,611e605f8acf7f120f3715e7,26,Kobieta,2022-06-11_09h13.46.672,task,2021.1.4,Win32,60.06006006,6299f149e92ead563fba08ef,62a44077d3383b198df25aac,,,,,,,,,,,,,0,,,,,,,,,,Practice,1,(3x3) -  9,0,,,,,,,,,,,,,,,,"[""0""]",1,[2.2185999999045976],1,0,0,0,0,1,,,,,,,,,,,,,,,,,,,,,,,,,,,,,,,,,,,,,,,,,,,,,,,,,,,
,,,,,,,,,,,X V Q F H G B L J M P D K C T S W R N Z,611e605f8acf7f120f3715e7,26,Kobieta,2022-06-11_09h13.46.672,task,2021.1.4,Win32,60.06006006,6299f149e92ead563fba08ef,62a44077d3383b198df25aac,,,,,,,,,,,,,,,,,,,,,,,,,,,,,,,,,,,,,,,,,,,,,,,,,,,1,0,1,0,1,,,,,,,,,,,,,,,,,,,,,,,,,,,,,,,,,,,,,,,,,,,,,,
,,,,,,,,,,,,611e605f8acf7f120f3715e7,26,Kobieta,2022-06-11_09h13.46.672,task,2021.1.4,Win32,60.06006006,6299f149e92ead563fba08ef,62a44077d3383b198df25aac,,,,,,,,,,,,,,,,,,,,,,,,,,,,,,,,,,,,,,,,,,,,,,,,,,,,,,,,zh,"[""z"",""h""]",0,"[4.055899999856933,4.365699999809237,5.373499999999979]",1,0,0,0,0,1,,,,,,,,,,,,,,,,,,,,,,,,,,,,,,,,,,,,
,,,,,,,,,,,,611e605f8acf7f120f3715e7,26,Kobieta,2022-06-11_09h13.46.672,task,2021.1.4,Win32,60.06006006,6299f149e92ead563fba08ef,62a44077d3383b198df25aac,,,,,,,,,,,,,7,,,,,,,,,,Practice,8,(5x5) - 18,7,,,,,,,,,,,,,,,,"[""7""]",1,[4.457600000143032],1,0,0,0,7,1,,,,,,,,,,,,,,,,,,,,,,,,,,,,,,,,,,,,,,,,,,,,,,,,,,,
,,,,,,,,,,,X V Q F H G B L J M P D K C T S W R N Z,611e605f8acf7f120f3715e7,26,Kobieta,2022-06-11_09h13.46.672,task,2021.1.4,Win32,60.06006006,6299f149e92ead563fba08ef,62a44077d3383b198df25aac,,,,,,,,,,,,,,,,,,,,,,,,,,,,,,,,,,,,,,,,,,,,,,,,,,,0,0,0,0,1,,,,,,,,,,,,,,,,,,,,,,,,,,,,,,,,,,,,,,,,,,,,,,
,,,,,,,,,,,,611e605f8acf7f120f3715e7,26,Kobieta,2022-06-11_09h13.46.672,task,2021.1.4,Win32,60.06006006,6299f149e92ead563fba08ef,62a44077d3383b198df25aac,,,,,,,,,,,,,2,,,,,,,,,,Practice,3,(4x4) - 14,2,,,,,,,,,,,,,,,,"[""2""]",1,[1.5166000001430575],1,0,0,0,2,1,,,,,,,,,,,,,,,,,,,,,,,,,,,,,,,,,,,,,,,,,,,,,,,,,,,
,,,,,,,,,,,X V Q F H G B L J M P D K C T S W R N Z,611e605f8acf7f120f3715e7,26,Kobieta,2022-06-11_09h13.46.672,task,2021.1.4,Win32,60.06006006,6299f149e92ead563fba08ef,62a44077d3383b198df25aac,,,,,,,,,,,,,,,,,,,,,,,,,,,,,,,,,,,,,,,,,,,,,,,,,,,1,0,1,0,1,,,,,,,,,,,,,,,,,,,,,,,,,,,,,,,,,,,,,,,,,,,,,,
,,,,,,,,,,,,611e605f8acf7f120f3715e7,26,Kobieta,2022-06-11_09h13.46.672,task,2021.1.4,Win32,60.06006006,6299f149e92ead563fba08ef,62a44077d3383b198df25aac,,,,,,,,,,,,,,,,,,,,,,,,,,,,,,,,,,,,,,,,,,,,,,,,,,,,,,,,sn,"[""s"",""n""]",0,"[2.4333000001907408,2.5884999999999536,3.069999999999993]",1,1,0,1,0,1,,,,,,,,,,,,,,,,,,,,,,,,,,,,,,,,,,,,
,,,,,,,,,,,,611e605f8acf7f120f3715e7,26,Kobieta,2022-06-11_09h13.46.672,task,2021.1.4,Win32,60.06006006,6299f149e92ead563fba08ef,62a44077d3383b198df25aac,,,,,,,,,,,,,4,,,,,,,,,,Practice,5,(2x6) - 8,4,,,,,,,,,,,,,,,,"[""4""]",1,[6.138400000095373],1,0,0,0,4,1,,,,,,,,,,,,,,,,,,,,,,,,,,,,,,,,,,,,,,,,,,,,,,,,,,,
,,,,,,,,,,,X V Q F H G B L J M P D K C T S W R N Z,611e605f8acf7f120f3715e7,26,Kobieta,2022-06-11_09h13.46.672,task,2021.1.4,Win32,60.06006006,6299f149e92ead563fba08ef,62a44077d3383b198df25aac,,,,,,,,,,,,,,,,,,,,,,,,,,,,,,,,,,,,,,,,,,,,,,,,,,,0,0,0,0,1,,,,,,,,,,,,,,,,,,,,,,,,,,,,,,,,,,,,,,,,,,,,,,
,,,,,,,,,,,,611e605f8acf7f120f3715e7,26,Kobieta,2022-06-11_09h13.46.672,task,2021.1.4,Win32,60.06006006,6299f149e92ead563fba08ef,62a44077d3383b198df25aac,,,,,,,,,,,,,5,,,,,,,,,,Practice,6,(4/2) + 3,5,,,,,,,,,,,,,,,,"[""5""]",1,[2.081900000095345],1,0,0,0,5,1,,,,,,,,,,,,,,,,,,,,,,,,,,,,,,,,,,,,,,,,,,,,,,,,,,,
,,,,,,,,,,,X V Q F H G B L J M P D K C T S W R N Z,611e605f8acf7f120f3715e7,26,Kobieta,2022-06-11_09h13.46.672,task,2021.1.4,Win32,60.06006006,6299f149e92ead563fba08ef,62a44077d3383b198df25aac,,,,,,,,,,,,,,,,,,,,,,,,,,,,,,,,,,,,,,,,,,,,,,,,,,,1,0,1,0,1,,,,,,,,,,,,,,,,,,,,,,,,,,,,,,,,,,,,,,,,,,,,,,
,,,,,,,,,,,,611e605f8acf7f120f3715e7,26,Kobieta,2022-06-11_09h13.46.672,task,2021.1.4,Win32,60.06006006,6299f149e92ead563fba08ef,62a44077d3383b198df25aac,,,,,,,,,,,,,,,,,,,,,,,,,,,,,,,,,,,,,,,,,,,,,,,,,,,,,,,,wj,"[""w"",""j""]",0,"[2.067400000095404,2.234700000047667,2.954200000047706]",1,2,0,2,0,1,,,,,,,,,,,,,,,,,,,,,,,,,,,,,,,,,,,,
,,,,,,,,,,,,611e605f8acf7f120f3715e7,26,Kobieta,2022-06-11_09h13.46.672,task,2021.1.4,Win32,60.06006006,6299f149e92ead563fba08ef,62a44077d3383b198df25aac,,,,,,,,,,,,,3,,,,,,,,,,Task,20,(18/9) + 1,3,,,,,,,,,,,,,,,,,,,1,,,,,,,,,,,,,,,,,,,,,space,16.447,"[""3""]",1,[2.5963000001907517],0,0,0,19,1,,,,,,,,,,,,,,,,,,,,,,,,,,
,,,,,,,,,,,X V Q F H G B L J M P D K C T S W R N Z,611e605f8acf7f120f3715e7,26,Kobieta,2022-06-11_09h13.46.672,task,2021.1.4,Win32,60.06006006,6299f149e92ead563fba08ef,62a44077d3383b198df25aac,,,,,,,,,,,,,,,,,,,,,,,,,,,,,,,,,,,,,,,,,,,,,,,,,,,,,,,,,,,,,,,,,,,,,,,,,,,,0,0,0,0,1,,,,,,,,,,,,,,,,,,,,,
,,,,,,,,,,,,611e605f8acf7f120f3715e7,26,Kobieta,2022-06-11_09h13.46.672,task,2021.1.4,Win32,60.06006006,6299f149e92ead563fba08ef,62a44077d3383b198df25aac,,,,,,,,,,,,,0,,,,,,,,,,Task,33,(1/1) - 1,0,,,,,,,,,,,,,,,,,,,1,,,,,,,,,,,,,,,,,,,,,,,"[""0""]",1,[2.0569999999999595],0,0,0,32,1,,,,,,,,,,,,,,,,,,,,,,,,,,
,,,,,,,,,,,X V Q F H G B L J M P D K C T S W R N Z,611e605f8acf7f120f3715e7,26,Kobieta,2022-06-11_09h13.46.672,task,2021.1.4,Win32,60.06006006,6299f149e92ead563fba08ef,62a44077d3383b198df25aac,,,,,,,,,,,,,,,,,,,,,,,,,,,,,,,,,,,,,,,,,,,,,,,,,,,,,,,,,,,,,,,,,,,,,,,,,,,,1,0,1,0,1,,,,,,,,,,,,,,,,,,,,,
,,,,,,,,,,,,611e605f8acf7f120f3715e7,26,Kobieta,2022-06-11_09h13.46.672,task,2021.1.4,Win32,60.06006006,6299f149e92ead563fba08ef,62a44077d3383b198df25aac,,,,,,,,,,,,,,,,,,,,,,,,,,,,,,,,,,,,,,,,,,,,,,,,,,,,,,,,,,,,,,,,,,,,,,,,,,,,,,,,,zd,"[""z"",""d""]",0,"[1.5322999999522722,1.6164000000953251,2.781799999952284]",1,ZD,0,0,0,0,1,,,,,,,,,,
,,,,,,,,,,,,611e605f8acf7f120f3715e7,26,Kobieta,2022-06-11_09h13.46.672,task,2021.1.4,Win32,60.06006006,6299f149e92ead563fba08ef,62a44077d3383b198df25aac,,,,,,,,,,,,,5,,,,,,,,,,Task,22,(3x1) + 2,5,,,,,,,,,,,,,,,,,,,1,,,,,,,,,,,,,,,,,,,,,,,"[""5""]",1,[1.8847999999522926],0,0,0,21,1,,,,,,,,,,,,,,,,,,,,,,,,,,
,,,,,,,,,,,X V Q F H G B L J M P D K C T S W R N Z,611e605f8acf7f120f3715e7,26,Kobieta,2022-06-11_09h13.46.672,task,2021.1.4,Win32,60.06006006,6299f149e92ead563fba08ef,62a44077d3383b198df25aac,,,,,,,,,,,,,,,,,,,,,,,,,,,,,,,,,,,,,,,,,,,,,,,,,,,,,,,,,,,,,,,,,,,,,,,,,,,,0,0,0,0,1,,,,,,,,,,,,,,,,,,,,,
,,,,,,,,,,,,611e605f8acf7f120f3715e7,26,Kobieta,2022-06-11_09h13.46.672,task,2021.1.4,Win32,60.06006006,6299f149e92ead563fba08ef,62a44077d3383b198df25aac,,,,,,,,,,,,,1,,,,,,,,,,Task,9,(3x7) - 20,1,,,,,,,,,,,,,,,,,,,1,,,,,,,,,,,,,,,,,,,,,,,"[""1""]",1,[2.397400000095331],0,0,0,8,1,,,,,,,,,,,,,,,,,,,,,,,,,,
,,,,,,,,,,,X V Q F H G B L J M P D K C T S W R N Z,611e605f8acf7f120f3715e7,26,Kobieta,2022-06-11_09h13.46.672,task,2021.1.4,Win32,60.06006006,6299f149e92ead563fba08ef,62a44077d3383b198df25aac,,,,,,,,,,,,,,,,,,,,,,,,,,,,,,,,,,,,,,,,,,,,,,,,,,,,,,,,,,,,,,,,,,,,,,,,,,,,1,0,1,0,1,,,,,,,,,,,,,,,,,,,,,
,,,,,,,,,,,,611e605f8acf7f120f3715e7,26,Kobieta,2022-06-11_09h13.46.672,task,2021.1.4,Win32,60.06006006,6299f149e92ead563fba08ef,62a44077d3383b198df25aac,,,,,,,,,,,,,8,,,,,,,,,,Task,15,(3x7) - 13,8,,,,,,,,,,,,,,,,,,,1,,,,,,,,,,,,,,,,,,,,,,,"[""8""]",1,[4.739899999856959],0,0,0,14,1,,,,,,,,,,,,,,,,,,,,,,,,,,
,,,,,,,,,,,X V Q F H G B L J M P D K C T S W R N Z,611e605f8acf7f120f3715e7,26,Kobieta,2022-06-11_09h13.46.672,task,2021.1.4,Win32,60.06006006,6299f149e92ead563fba08ef,62a44077d3383b198df25aac,,,,,,,,,,,,,,,,,,,,,,,,,,,,,,,,,,,,,,,,,,,,,,,,,,,,,,,,,,,,,,,,,,,,,,,,,,,,2,0,2,0,1,,,,,,,,,,,,,,,,,,,,,
,,,,,,,,,,,,611e605f8acf7f120f3715e7,26,Kobieta,2022-06-11_09h13.46.672,task,2021.1.4,Win32,60.06006006,6299f149e92ead563fba08ef,62a44077d3383b198df25aac,,,,,,,,,,,,,,,,,,,,,,,,,,,,,,,,,,,,,,,,,,,,,,,,,,,,,,,,,,,,,,,,,,,,,,,,,,,,,,,,,wdr,"[""w"",""d"",""r""]",0,"[1.4502999999523354,1.6494000000953974,1.8167000000477174,2.2930000000000064]",1,WDR,1,0,1,0,1,,,,,,,,,,
,,,,,,,,,,,,611e605f8acf7f120f3715e7,26,Kobieta,2022-06-11_09h13.46.672,task,2021.1.4,Win32,60.06006006,6299f149e92ead563fba08ef,62a44077d3383b198df25aac,,,,,,,,,,,,,7,,,,,,,,,,Task,38,(4x6) - 17,7,,,,,,,,,,,,,,,,,,,1,,,,,,,,,,,,,,,,,,,,,,,"[""7""]",1,[4.480400000095358],0,0,0,37,1,,,,,,,,,,,,,,,,,,,,,,,,,,
,,,,,,,,,,,X V Q F H G B L J M P D K C T S W R N Z,611e605f8acf7f120f3715e7,26,Kobieta,2022-06-11_09h13.46.672,task,2021.1.4,Win32,60.06006006,6299f149e92ead563fba08ef,62a44077d3383b198df25aac,,,,,,,,,,,,,,,,,,,,,,,,,,,,,,,,,,,,,,,,,,,,,,,,,,,,,,,,,,,,,,,,,,,,,,,,,,,,0,0,0,0,1,,,,,,,,,,,,,,,,,,,,,
,,,,,,,,,,,,611e605f8acf7f120f3715e7,26,Kobieta,2022-06-11_09h13.46.672,task,2021.1.4,Win32,60.06006006,6299f149e92ead563fba08ef,62a44077d3383b198df25aac,,,,,,,,,,,,,3,,,,,,,,,,Task,3,(2x3) - 3,3,,,,,,,,,,,,,,,,,,,1,,,,,,,,,,,,,,,,,,,,,,,"[""3""]",1,[2.381500000000017],0,0,0,2,1,,,,,,,,,,,,,,,,,,,,,,,,,,
,,,,,,,,,,,X V Q F H G B L J M P D K C T S W R N Z,611e605f8acf7f120f3715e7,26,Kobieta,2022-06-11_09h13.46.672,task,2021.1.4,Win32,60.06006006,6299f149e92ead563fba08ef,62a44077d3383b198df25aac,,,,,,,,,,,,,,,,,,,,,,,,,,,,,,,,,,,,,,,,,,,,,,,,,,,,,,,,,,,,,,,,,,,,,,,,,,,,1,0,1,0,1,,,,,,,,,,,,,,,,,,,,,
,,,,,,,,,,,,611e605f8acf7f120f3715e7,26,Kobieta,2022-06-11_09h13.46.672,task,2021.1.4,Win32,60.06006006,6299f149e92ead563fba08ef,62a44077d3383b198df25aac,,,,,,,,,,,,,1,,,,,,,,,,Task,18,(16/4) - 3,1,,,,,,,,,,,,,,,,,,,1,,,,,,,,,,,,,,,,,,,,,,,"[""1""]",1,[1.6512999999523004],0,0,0,17,1,,,,,,,,,,,,,,,,,,,,,,,,,,
,,,,,,,,,,,X V Q F H G B L J M P D K C T S W R N Z,611e605f8acf7f120f3715e7,26,Kobieta,2022-06-11_09h13.46.672,task,2021.1.4,Win32,60.06006006,6299f149e92ead563fba08ef,62a44077d3383b198df25aac,,,,,,,,,,,,,,,,,,,,,,,,,,,,,,,,,,,,,,,,,,,,,,,,,,,,,,,,,,,,,,,,,,,,,,,,,,,,2,0,2,0,1,,,,,,,,,,,,,,,,,,,,,
,,,,,,,,,,,,611e605f8acf7f120f3715e7,26,Kobieta,2022-06-11_09h13.46.672,task,2021.1.4,Win32,60.06006006,6299f149e92ead563fba08ef,62a44077d3383b198df25aac,,,,,,,,,,,,,1,,,,,,,,,,Task,18,(16/4) - 3,1,,,,,,,,,,,,,,,,,,,1,,,,,,,,,,,,,,,,,,,,,,,"[""1""]",1,[1.6337000000476678],0,0,0,17,1,,,,,,,,,,,,,,,,,,,,,,,,,,
,,,,,,,,,,,X V Q F H G B L J M P D K C T S W R N Z,611e605f8acf7f120f3715e7,26,Kobieta,2022-06-11_09h13.46.672,task,2021.1.4,Win32,60.06006006,6299f149e92ead563fba08ef,62a44077d3383b198df25aac,,,,,,,,,,,,,,,,,,,,,,,,,,,,,,,,,,,,,,,,,,,,,,,,,,,,,,,,,,,,,,,,,,,,,,,,,,,,3,0,3,0,1,,,,,,,,,,,,,,,,,,,,,
,,,,,,,,,,,,611e605f8acf7f120f3715e7,26,Kobieta,2022-06-11_09h13.46.672,task,2021.1.4,Win32,60.06006006,6299f149e92ead563fba08ef,62a44077d3383b198df25aac,,,,,,,,,,,,,,,,,,,,,,,,,,,,,,,,,,,,,,,,,,,,,,,,,,,,,,,,,,,,,,,,,,,,,,,,,,,,,,,,,pfcn,"[""p"",""f"",""c"",""n""]",0,"[1.2923000001907212,1.6336000001430193,1.8581000001430539,2.2994000000953747,3.0241000001430507]",1,PFCN,2,0,2,0,1,,,,,,,,,,
,,,,,,,,,,,,611e605f8acf7f120f3715e7,26,Kobieta,2022-06-11_09h13.46.672,task,2021.1.4,Win32,60.06006006,6299f149e92ead563fba08ef,62a44077d3383b198df25aac,,,,,,,,,,,,,7,,,,,,,,,,Task,30,(6/3) + 4 ,6,,,,,,,,,,,,,,,,,,,0,,,,,,,,,,,,,,,,,,,,,,,"[""7""]",0,[1.7363999998569284],0,0,0,29,1,,,,,,,,,,,,,,,,,,,,,,,,,,
,,,,,,,,,,,,611e605f8acf7f120f3715e7,26,Kobieta,2022-06-11_09h13.46.672,task,2021.1.4,Win32,60.06006006,6299f149e92ead563fba08ef,62a44077d3383b198df25aac,,,,,,,,,,,,,3,,,,,,,,,,Task,20,(18/9) + 1,3,,,,,,,,,,,,,,,,,,,1,,,,,,,,,,,,,,,,,,,,,,,"[""3""]",1,[4.964199999809239],0,1,1,19,1,,,,,,,,,,,,,,,,,,,,,,,,,,
,,,,,,,,,,,X V Q F H G B L J M P D K C T S W R N Z,611e605f8acf7f120f3715e7,26,Kobieta,2022-06-11_09h13.46.672,task,2021.1.4,Win32,60.06006006,6299f149e92ead563fba08ef,62a44077d3383b198df25aac,,,,,,,,,,,,,,,,,,,,,,,,,,,,,,,,,,,,,,,,,,,,,,,,,,,,,,,,,,,,,,,,,,,,,,,,,,,,0,0,0,0,1,,,,,,,,,,,,,,,,,,,,,
,,,,,,,,,,,,611e605f8acf7f120f3715e7,26,Kobieta,2022-06-11_09h13.46.672,task,2021.1.4,Win32,60.06006006,6299f149e92ead563fba08ef,62a44077d3383b198df25aac,,,,,,,,,,,,,1,,,,,,,,,,Task,9,(3x7) - 20,1,,,,,,,,,,,,,,,,,,,1,,,,,,,,,,,,,,,,,,,,,,,"[""1""]",1,[1.5585999999046294],0,0,0,8,1,,,,,,,,,,,,,,,,,,,,,,,,,,
,,,,,,,,,,,X V Q F H G B L J M P D K C T S W R N Z,611e605f8acf7f120f3715e7,26,Kobieta,2022-06-11_09h13.46.672,task,2021.1.4,Win32,60.06006006,6299f149e92ead563fba08ef,62a44077d3383b198df25aac,,,,,,,,,,,,,,,,,,,,,,,,,,,,,,,,,,,,,,,,,,,,,,,,,,,,,,,,,,,,,,,,,,,,,,,,,,,,1,0,1,0,1,,,,,,,,,,,,,,,,,,,,,
,,,,,,,,,,,,611e605f8acf7f120f3715e7,26,Kobieta,2022-06-11_09h13.46.672,task,2021.1.4,Win32,60.06006006,6299f149e92ead563fba08ef,62a44077d3383b198df25aac,,,,,,,,,,,,,1,,,,,,,,,,Task,9,(3x7) - 20,1,,,,,,,,,,,,,,,,,,,1,,,,,,,,,,,,,,,,,,,,,,,"[""1""]",1,[2.106599999904631],0,0,0,8,1,,,,,,,,,,,,,,,,,,,,,,,,,,
,,,,,,,,,,,X V Q F H G B L J M P D K C T S W R N Z,611e605f8acf7f120f3715e7,26,Kobieta,2022-06-11_09h13.46.672,task,2021.1.4,Win32,60.06006006,6299f149e92ead563fba08ef,62a44077d3383b198df25aac,,,,,,,,,,,,,,,,,,,,,,,,,,,,,,,,,,,,,,,,,,,,,,,,,,,,,,,,,,,,,,,,,,,,,,,,,,,,2,0,2,0,1,,,,,,,,,,,,,,,,,,,,,
,,,,,,,,,,,,611e605f8acf7f120f3715e7,26,Kobieta,2022-06-11_09h13.46.672,task,2021.1.4,Win32,60.06006006,6299f149e92ead563fba08ef,62a44077d3383b198df25aac,,,,,,,,,,,,,5,,,,,,,,,,Task,36,(8/4) + 3,5,,,,,,,,,,,,,,,,,,,1,,,,,,,,,,,,,,,,,,,,,,,"[""5""]",1,[3.283400000095355],0,0,0,35,1,,,,,,,,,,,,,,,,,,,,,,,,,,
,,,,,,,,,,,X V Q F H G B L J M P D K C T S W R N Z,611e605f8acf7f120f3715e7,26,Kobieta,2022-06-11_09h13.46.672,task,2021.1.4,Win32,60.06006006,6299f149e92ead563fba08ef,62a44077d3383b198df25aac,,,,,,,,,,,,,,,,,,,,,,,,,,,,,,,,,,,,,,,,,,,,,,,,,,,,,,,,,,,,,,,,,,,,,,,,,,,,3,0,3,0,1,,,,,,,,,,,,,,,,,,,,,
,,,,,,,,,,,,611e605f8acf7f120f3715e7,26,Kobieta,2022-06-11_09h13.46.672,task,2021.1.4,Win32,60.06006006,6299f149e92ead563fba08ef,62a44077d3383b198df25aac,,,,,,,,,,,,,9,,,,,,,,,,Task,40,(7x2) - 5,9,,,,,,,,,,,,,,,,,,,1,,,,,,,,,,,,,,,,,,,,,,,"[""9""]",1,[3.8974999999999795],0,0,0,39,1,,,,,,,,,,,,,,,,,,,,,,,,,,
,,,,,,,,,,,X V Q F H G B L J M P D K C T S W R N Z,611e605f8acf7f120f3715e7,26,Kobieta,2022-06-11_09h13.46.672,task,2021.1.4,Win32,60.06006006,6299f149e92ead563fba08ef,62a44077d3383b198df25aac,,,,,,,,,,,,,,,,,,,,,,,,,,,,,,,,,,,,,,,,,,,,,,,,,,,,,,,,,,,,,,,,,,,,,,,,,,,,4,0,4,0,1,,,,,,,,,,,,,,,,,,,,,
,,,,,,,,,,,,611e605f8acf7f120f3715e7,26,Kobieta,2022-06-11_09h13.46.672,task,2021.1.4,Win32,60.06006006,6299f149e92ead563fba08ef,62a44077d3383b198df25aac,,,,,,,,,,,,,,,,,,,,,,,,,,,,,,,,,,,,,,,,,,,,,,,,,,,,,,,,,,,,,,,,,,,,,,,,,,,,,,,,,hrcvr,"[""h"",""r"",""c"",""v"",""r""]",0,"[1.4580000000000268,1.602599999904612,1.9498999998569388,2.665099999904612,2.8327999999523286,3.572399999856941]",1,HRCVR,3,0,3,0,1,,,,,,,,,,
,,,,,,,,,,,,611e605f8acf7f120f3715e7,26,Kobieta,2022-06-11_09h13.46.672,task,2021.1.4,Win32,60.06006006,6299f149e92ead563fba08ef,62a44077d3383b198df25aac,,,,,,,,,,,,,1,,,,,,,,,,Task,34,(9/3) - 2,1,,,,,,,,,,,,,,,,,,,1,,,,,,,,,,,,,,,,,,,,,,,"[""1""]",1,[3.922700000047712],0,0,0,33,1,,,,,,,,,,,,,,,,,,,,,,,,,,
,,,,,,,,,,,X V Q F H G B L J M P D K C T S W R N Z,611e605f8acf7f120f3715e7,26,Kobieta,2022-06-11_09h13.46.672,task,2021.1.4,Win32,60.06006006,6299f149e92ead563fba08ef,62a44077d3383b198df25aac,,,,,,,,,,,,,,,,,,,,,,,,,,,,,,,,,,,,,,,,,,,,,,,,,,,,,,,,,,,,,,,,,,,,,,,,,,,,0,0,0,0,1,,,,,,,,,,,,,,,,,,,,,
,,,,,,,,,,,,611e605f8acf7f120f3715e7,26,Kobieta,2022-06-11_09h13.46.672,task,2021.1.4,Win32,60.06006006,6299f149e92ead563fba08ef,62a44077d3383b198df25aac,,,,,,,,,,,,,5,,,,,,,,,,Task,22,(3x1) + 2,5,,,,,,,,,,,,,,,,,,,1,,,,,,,,,,,,,,,,,,,,,,,"[""5""]",1,[2.353999999999985],0,0,0,21,1,,,,,,,,,,,,,,,,,,,,,,,,,,
,,,,,,,,,,,X V Q F H G B L J M P D K C T S W R N Z,611e605f8acf7f120f3715e7,26,Kobieta,2022-06-11_09h13.46.672,task,2021.1.4,Win32,60.06006006,6299f149e92ead563fba08ef,62a44077d3383b198df25aac,,,,,,,,,,,,,,,,,,,,,,,,,,,,,,,,,,,,,,,,,,,,,,,,,,,,,,,,,,,,,,,,,,,,,,,,,,,,1,0,1,0,1,,,,,,,,,,,,,,,,,,,,,
,,,,,,,,,,,,611e605f8acf7f120f3715e7,26,Kobieta,2022-06-11_09h13.46.672,task,2021.1.4,Win32,60.06006006,6299f149e92ead563fba08ef,62a44077d3383b198df25aac,,,,,,,,,,,,,4,,,,,,,,,,Task,28,(2x5) - 6,4,,,,,,,,,,,,,,,,,,,1,,,,,,,,,,,,,,,,,,,,,,,"[""4""]",1,[2.3519999999999754],0,0,0,27,1,,,,,,,,,,,,,,,,,,,,,,,,,,
,,,,,,,,,,,X V Q F H G B L J M P D K C T S W R N Z,611e605f8acf7f120f3715e7,26,Kobieta,2022-06-11_09h13.46.672,task,2021.1.4,Win32,60.06006006,6299f149e92ead563fba08ef,62a44077d3383b198df25aac,,,,,,,,,,,,,,,,,,,,,,,,,,,,,,,,,,,,,,,,,,,,,,,,,,,,,,,,,,,,,,,,,,,,,,,,,,,,2,0,2,0,1,,,,,,,,,,,,,,,,,,,,,
,,,,,,,,,,,,611e605f8acf7f120f3715e7,26,Kobieta,2022-06-11_09h13.46.672,task,2021.1.4,Win32,60.06006006,6299f149e92ead563fba08ef,62a44077d3383b198df25aac,,,,,,,,,,,,,1,,,,,,,,,,Task,9,(3x7) - 20,1,,,,,,,,,,,,,,,,,,,1,,,,,,,,,,,,,,,,,,,,,,,"[""1""]",1,[1.5649999999999977],0,0,0,8,1,,,,,,,,,,,,,,,,,,,,,,,,,,
,,,,,,,,,,,X V Q F H G B L J M P D K C T S W R N Z,611e605f8acf7f120f3715e7,26,Kobieta,2022-06-11_09h13.46.672,task,2021.1.4,Win32,60.06006006,6299f149e92ead563fba08ef,62a44077d3383b198df25aac,,,,,,,,,,,,,,,,,,,,,,,,,,,,,,,,,,,,,,,,,,,,,,,,,,,,,,,,,,,,,,,,,,,,,,,,,,,,3,0,3,0,1,,,,,,,,,,,,,,,,,,,,,
,,,,,,,,,,,,611e605f8acf7f120f3715e7,26,Kobieta,2022-06-11_09h13.46.672,task,2021.1.4,Win32,60.06006006,6299f149e92ead563fba08ef,62a44077d3383b198df25aac,,,,,,,,,,,,,5,,,,,,,,,,Task,22,(3x1) + 2,5,,,,,,,,,,,,,,,,,,,1,,,,,,,,,,,,,,,,,,,,,,,"[""5""]",1,[1.4590999999046517],0,0,0,21,1,,,,,,,,,,,,,,,,,,,,,,,,,,
,,,,,,,,,,,X V Q F H G B L J M P D K C T S W R N Z,611e605f8acf7f120f3715e7,26,Kobieta,2022-06-11_09h13.46.672,task,2021.1.4,Win32,60.06006006,6299f149e92ead563fba08ef,62a44077d3383b198df25aac,,,,,,,,,,,,,,,,,,,,,,,,,,,,,,,,,,,,,,,,,,,,,,,,,,,,,,,,,,,,,,,,,,,,,,,,,,,,4,0,4,0,1,,,,,,,,,,,,,,,,,,,,,
,,,,,,,,,,,,611e605f8acf7f120f3715e7,26,Kobieta,2022-06-11_09h13.46.672,task,2021.1.4,Win32,60.06006006,6299f149e92ead563fba08ef,62a44077d3383b198df25aac,,,,,,,,,,,,,5,,,,,,,,,,Task,36,(8/4) + 3,5,,,,,,,,,,,,,,,,,,,1,,,,,,,,,,,,,,,,,,,,,,,"[""5""]",1,[4.900899999856961],0,0,0,35,1,,,,,,,,,,,,,,,,,,,,,,,,,,
,,,,,,,,,,,X V Q F H G B L J M P D K C T S W R N Z,611e605f8acf7f120f3715e7,26,Kobieta,2022-06-11_09h13.46.672,task,2021.1.4,Win32,60.06006006,6299f149e92ead563fba08ef,62a44077d3383b198df25aac,,,,,,,,,,,,,,,,,,,,,,,,,,,,,,,,,,,,,,,,,,,,,,,,,,,,,,,,,,,,,,,,,,,,,,,,,,,,5,0,5,0,1,,,,,,,,,,,,,,,,,,,,,
,,,,,,,,,,,,611e605f8acf7f120f3715e7,26,Kobieta,2022-06-11_09h13.46.672,task,2021.1.4,Win32,60.06006006,6299f149e92ead563fba08ef,62a44077d3383b198df25aac,,,,,,,,,,,,,,,,,,,,,,,,,,,,,,,,,,,,,,,,,,,,,,,,,,,,,,,,,,,,,,,,,,,,,,,,,,,,,,,,,wsvrm,"[""w"",""s"",""v"",""r"",""m""]",0,"[4.799100000143085,5.018500000000017,5.487000000000023,5.764900000095395,6.030900000095357,6.563600000143083]",0,WSVRML,4,0,4,0,1,,,,,,,,,,
,,,,,,,,,,,,611e605f8acf7f120f3715e7,26,Kobieta,2022-06-11_09h13.46.672,task,2021.1.4,Win32,60.06006006,6299f149e92ead563fba08ef,62a44077d3383b198df25aac,,,,,,,,,,,,,2,,,,,,,,,,Task,10,(2x5) - 8,2,,,,,,,,,,,,,,,,,,,1,,,,,,,,,,,,,,,,,,,,,,,"[""2""]",1,[2.0046999998092474],0,0,0,9,1,,,,,,,,,,,,,,,,,,,,,,,,,,
,,,,,,,,,,,X V Q F H G B L J M P D K C T S W R N Z,611e605f8acf7f120f3715e7,26,Kobieta,2022-06-11_09h13.46.672,task,2021.1.4,Win32,60.06006006,6299f149e92ead563fba08ef,62a44077d3383b198df25aac,,,,,,,,,,,,,,,,,,,,,,,,,,,,,,,,,,,,,,,,,,,,,,,,,,,,,,,,,,,,,,,,,,,,,,,,,,,,0,0,0,0,1,,,,,,,,,,,,,,,,,,,,,
,,,,,,,,,,,,611e605f8acf7f120f3715e7,26,Kobieta,2022-06-11_09h13.46.672,task,2021.1.4,Win32,60.06006006,6299f149e92ead563fba08ef,62a44077d3383b198df25aac,,,,,,,,,,,,,8,,,,,,,,,,Task,15,(3x7) - 13,8,,,,,,,,,,,,,,,,,,,1,,,,,,,,,,,,,,,,,,,,,,,"[""8""]",1,[2.871499999999969],0,0,0,14,1,,,,,,,,,,,,,,,,,,,,,,,,,,
,,,,,,,,,,,X V Q F H G B L J M P D K C T S W R N Z,611e605f8acf7f120f3715e7,26,Kobieta,2022-06-11_09h13.46.672,task,2021.1.4,Win32,60.06006006,6299f149e92ead563fba08ef,62a44077d3383b198df25aac,,,,,,,,,,,,,,,,,,,,,,,,,,,,,,,,,,,,,,,,,,,,,,,,,,,,,,,,,,,,,,,,,,,,,,,,,,,,1,0,1,0,1,,,,,,,,,,,,,,,,,,,,,
,,,,,,,,,,,,611e605f8acf7f120f3715e7,26,Kobieta,2022-06-11_09h13.46.672,task,2021.1.4,Win32,60.06006006,6299f149e92ead563fba08ef,62a44077d3383b198df25aac,,,,,,,,,,,,,2,,,,,,,,,,Task,10,(2x5) - 8,2,,,,,,,,,,,,,,,,,,,1,,,,,,,,,,,,,,,,,,,,,,,"[""2""]",1,[1.5357000000476546],0,0,0,9,1,,,,,,,,,,,,,,,,,,,,,,,,,,
,,,,,,,,,,,X V Q F H G B L J M P D K C T S W R N Z,611e605f8acf7f120f3715e7,26,Kobieta,2022-06-11_09h13.46.672,task,2021.1.4,Win32,60.06006006,6299f149e92ead563fba08ef,62a44077d3383b198df25aac,,,,,,,,,,,,,,,,,,,,,,,,,,,,,,,,,,,,,,,,,,,,,,,,,,,,,,,,,,,,,,,,,,,,,,,,,,,,2,0,2,0,1,,,,,,,,,,,,,,,,,,,,,
,,,,,,,,,,,,611e605f8acf7f120f3715e7,26,Kobieta,2022-06-11_09h13.46.672,task,2021.1.4,Win32,60.06006006,6299f149e92ead563fba08ef,62a44077d3383b198df25aac,,,,,,,,,,,,,2,,,,,,,,,,Task,19,(6/2) - 1,2,,,,,,,,,,,,,,,,,,,1,,,,,,,,,,,,,,,,,,,,,,,"[""2""]",1,[3.102700000047662],0,0,0,18,1,,,,,,,,,,,,,,,,,,,,,,,,,,
,,,,,,,,,,,X V Q F H G B L J M P D K C T S W R N Z,611e605f8acf7f120f3715e7,26,Kobieta,2022-06-11_09h13.46.672,task,2021.1.4,Win32,60.06006006,6299f149e92ead563fba08ef,62a44077d3383b198df25aac,,,,,,,,,,,,,,,,,,,,,,,,,,,,,,,,,,,,,,,,,,,,,,,,,,,,,,,,,,,,,,,,,,,,,,,,,,,,3,0,3,0,1,,,,,,,,,,,,,,,,,,,,,
,,,,,,,,,,,,611e605f8acf7f120f3715e7,26,Kobieta,2022-06-11_09h13.46.672,task,2021.1.4,Win32,60.06006006,6299f149e92ead563fba08ef,62a44077d3383b198df25aac,,,,,,,,,,,,,7,,,,,,,,,,Task,38,(4x6) - 17,7,,,,,,,,,,,,,,,,,,,1,,,,,,,,,,,,,,,,,,,,,,,"[""7""]",1,[3.9307000000476364],0,0,0,37,1,,,,,,,,,,,,,,,,,,,,,,,,,,
,,,,,,,,,,,X V Q F H G B L J M P D K C T S W R N Z,611e605f8acf7f120f3715e7,26,Kobieta,2022-06-11_09h13.46.672,task,2021.1.4,Win32,60.06006006,6299f149e92ead563fba08ef,62a44077d3383b198df25aac,,,,,,,,,,,,,,,,,,,,,,,,,,,,,,,,,,,,,,,,,,,,,,,,,,,,,,,,,,,,,,,,,,,,,,,,,,,,4,0,4,0,1,,,,,,,,,,,,,,,,,,,,,
,,,,,,,,,,,,611e605f8acf7f120f3715e7,26,Kobieta,2022-06-11_09h13.46.672,task,2021.1.4,Win32,60.06006006,6299f149e92ead563fba08ef,62a44077d3383b198df25aac,,,,,,,,,,,,,4,,,,,,,,,,Task,21,(10/2) - 1,4,,,,,,,,,,,,,,,,,,,1,,,,,,,,,,,,,,,,,,,,,,,"[""4""]",1,[3.0013999998569716],0,0,0,20,1,,,,,,,,,,,,,,,,,,,,,,,,,,
,,,,,,,,,,,X V Q F H G B L J M P D K C T S W R N Z,611e605f8acf7f120f3715e7,26,Kobieta,2022-06-11_09h13.46.672,task,2021.1.4,Win32,60.06006006,6299f149e92ead563fba08ef,62a44077d3383b198df25aac,,,,,,,,,,,,,,,,,,,,,,,,,,,,,,,,,,,,,,,,,,,,,,,,,,,,,,,,,,,,,,,,,,,,,,,,,,,,5,0,5,0,1,,,,,,,,,,,,,,,,,,,,,
,,,,,,,,,,,,611e605f8acf7f120f3715e7,26,Kobieta,2022-06-11_09h13.46.672,task,2021.1.4,Win32,60.06006006,6299f149e92ead563fba08ef,62a44077d3383b198df25aac,,,,,,,,,,,,,,,,,,,,,,,,,,,,,,,,,,,,,,,,,,,,,,,,,,,,,,,,,,,,,,,,,,,,,,,,,,,,,,,,,rjjrxl,"[""r"",""j"",""j"",""r"",""x"",""l""]",0,"[1.907299999952329,2.1490999999046494,2.2918999998569802,2.482500000000016,3.59829999995236,3.7405999999046458,5.0330000000000155]",1,RJJRXL,5,0,5,0,1,,,,,,,,,,
,,,,,,,,,,,,611e605f8acf7f120f3715e7,26,Kobieta,2022-06-11_09h13.46.672,task,2021.1.4,Win32,60.06006006,6299f149e92ead563fba08ef,62a44077d3383b198df25aac,,,,,,,,,,,,,1,,,,,,,,,,Task,18,(16/4) - 3,1,,,,,,,,,,,,,,,,,,,1,,,,,,,,,,,,,,,,,,,,,,,"[""1""]",1,[1.8752000000476983],0,0,0,17,1,,,,,,,,,,,,,,,,,,,,,,,,,,
,,,,,,,,,,,X V Q F H G B L J M P D K C T S W R N Z,611e605f8acf7f120f3715e7,26,Kobieta,2022-06-11_09h13.46.672,task,2021.1.4,Win32,60.06006006,6299f149e92ead563fba08ef,62a44077d3383b198df25aac,,,,,,,,,,,,,,,,,,,,,,,,,,,,,,,,,,,,,,,,,,,,,,,,,,,,,,,,,,,,,,,,,,,,,,,,,,,,0,0,0,0,1,,,,,,,,,,,,,,,,,,,,,
,,,,,,,,,,,,611e605f8acf7f120f3715e7,26,Kobieta,2022-06-11_09h13.46.672,task,2021.1.4,Win32,60.06006006,6299f149e92ead563fba08ef,62a44077d3383b198df25aac,,,,,,,,,,,,,0,,,,,,,,,,Task,8,(1x5) - 5,0,,,,,,,,,,,,,,,,,,,1,,,,,,,,,,,,,,,,,,,,,,,"[""0""]",1,[2.07490000009534],0,0,0,7,1,,,,,,,,,,,,,,,,,,,,,,,,,,
,,,,,,,,,,,X V Q F H G B L J M P D K C T S W R N Z,611e605f8acf7f120f3715e7,26,Kobieta,2022-06-11_09h13.46.672,task,2021.1.4,Win32,60.06006006,6299f149e92ead563fba08ef,62a44077d3383b198df25aac,,,,,,,,,,,,,,,,,,,,,,,,,,,,,,,,,,,,,,,,,,,,,,,,,,,,,,,,,,,,,,,,,,,,,,,,,,,,1,0,1,0,1,,,,,,,,,,,,,,,,,,,,,
,,,,,,,,,,,,611e605f8acf7f120f3715e7,26,Kobieta,2022-06-11_09h13.46.672,task,2021.1.4,Win32,60.06006006,6299f149e92ead563fba08ef,62a44077d3383b198df25aac,,,,,,,,,,,,,0,,,,,,,,,,Task,17,(2x3) - 6,0,,,,,,,,,,,,,,,,,,,1,,,,,,,,,,,,,,,,,,,,,,,"[""0""]",1,[2.3190999999046653],0,0,0,16,1,,,,,,,,,,,,,,,,,,,,,,,,,,
,,,,,,,,,,,X V Q F H G B L J M P D K C T S W R N Z,611e605f8acf7f120f3715e7,26,Kobieta,2022-06-11_09h13.46.672,task,2021.1.4,Win32,60.06006006,6299f149e92ead563fba08ef,62a44077d3383b198df25aac,,,,,,,,,,,,,,,,,,,,,,,,,,,,,,,,,,,,,,,,,,,,,,,,,,,,,,,,,,,,,,,,,,,,,,,,,,,,2,0,2,0,1,,,,,,,,,,,,,,,,,,,,,
,,,,,,,,,,,,611e605f8acf7f120f3715e7,26,Kobieta,2022-06-11_09h13.46.672,task,2021.1.4,Win32,60.06006006,6299f149e92ead563fba08ef,62a44077d3383b198df25aac,,,,,,,,,,,,,7,,,,,,,,,,Task,38,(4x6) - 17,7,,,,,,,,,,,,,,,,,,,1,,,,,,,,,,,,,,,,,,,,,,,"[""7""]",1,[4.103299999952355],0,0,0,37,1,,,,,,,,,,,,,,,,,,,,,,,,,,
,,,,,,,,,,,X V Q F H G B L J M P D K C T S W R N Z,611e605f8acf7f120f3715e7,26,Kobieta,2022-06-11_09h13.46.672,task,2021.1.4,Win32,60.06006006,6299f149e92ead563fba08ef,62a44077d3383b198df25aac,,,,,,,,,,,,,,,,,,,,,,,,,,,,,,,,,,,,,,,,,,,,,,,,,,,,,,,,,,,,,,,,,,,,,,,,,,,,3,0,3,0,1,,,,,,,,,,,,,,,,,,,,,
,,,,,,,,,,,,611e605f8acf7f120f3715e7,26,Kobieta,2022-06-11_09h13.46.672,task,2021.1.4,Win32,60.06006006,6299f149e92ead563fba08ef,62a44077d3383b198df25aac,,,,,,,,,,,,,9,,,,,,,,,,Task,7,(3x7) - 12,9,,,,,,,,,,,,,,,,,,,1,,,,,,,,,,,,,,,,,,,,,,,"[""9""]",1,[3.219500000000039],0,0,0,6,1,,,,,,,,,,,,,,,,,,,,,,,,,,
,,,,,,,,,,,X V Q F H G B L J M P D K C T S W R N Z,611e605f8acf7f120f3715e7,26,Kobieta,2022-06-11_09h13.46.672,task,2021.1.4,Win32,60.06006006,6299f149e92ead563fba08ef,62a44077d3383b198df25aac,,,,,,,,,,,,,,,,,,,,,,,,,,,,,,,,,,,,,,,,,,,,,,,,,,,,,,,,,,,,,,,,,,,,,,,,,,,,4,0,4,0,1,,,,,,,,,,,,,,,,,,,,,
,,,,,,,,,,,,611e605f8acf7f120f3715e7,26,Kobieta,2022-06-11_09h13.46.672,task,2021.1.4,Win32,60.06006006,6299f149e92ead563fba08ef,62a44077d3383b198df25aac,,,,,,,,,,,,,,,,,,,,,,,Task,39,(5x3) - 7,8,,,,,,,,,,,,,,,,,,,0,,,,,,,,,,,,,,,,,,,,,,,,0,,0,0,0,38,1,,,,,,,,,,,,,,,,,,,,,,,,,,
,,,,,,,,,,,,611e605f8acf7f120f3715e7,26,Kobieta,2022-06-11_09h13.46.672,task,2021.1.4,Win32,60.06006006,6299f149e92ead563fba08ef,62a44077d3383b198df25aac,,,,,,,,,,,,,3,,,,,,,,,,Task,26,(2x9) - 16,2,,,,,,,,,,,,,,,,,,,0,,,,,,,,,,,,,,,,,,,,,,,"[""3""]",0,[2.4512999999523117],0,1,1,25,1,,,,,,,,,,,,,,,,,,,,,,,,,,
,,,,,,,,,,,,611e605f8acf7f120f3715e7,26,Kobieta,2022-06-11_09h13.46.672,task,2021.1.4,Win32,60.06006006,6299f149e92ead563fba08ef,62a44077d3383b198df25aac,,,,,,,,,,,,,7,,,,,,,,,,Task,14,(2x2) + 3,7,,,,,,,,,,,,,,,,,,,1,,,,,,,,,,,,,,,,,,,,,,,"[""7""]",1,[2.556100000143033],0,2,2,13,1,,,,,,,,,,,,,,,,,,,,,,,,,,
,,,,,,,,,,,X V Q F H G B L J M P D K C T S W R N Z,611e605f8acf7f120f3715e7,26,Kobieta,2022-06-11_09h13.46.672,task,2021.1.4,Win32,60.06006006,6299f149e92ead563fba08ef,62a44077d3383b198df25aac,,,,,,,,,,,,,,,,,,,,,,,,,,,,,,,,,,,,,,,,,,,,,,,,,,,,,,,,,,,,,,,,,,,,,,,,,,,,5,0,5,0,1,,,,,,,,,,,,,,,,,,,,,
,,,,,,,,,,,,611e605f8acf7f120f3715e7,26,Kobieta,2022-06-11_09h13.46.672,task,2021.1.4,Win32,60.06006006,6299f149e92ead563fba08ef,62a44077d3383b198df25aac,,,,,,,,,,,,,9,,,,,,,,,,Task,24,(2x2) + 5,9,,,,,,,,,,,,,,,,,,,1,,,,,,,,,,,,,,,,,,,,,,,"[""9""]",1,[2.316000000000031],0,0,0,23,1,,,,,,,,,,,,,,,,,,,,,,,,,,
,,,,,,,,,,,X V Q F H G B L J M P D K C T S W R N Z,611e605f8acf7f120f3715e7,26,Kobieta,2022-06-11_09h13.46.672,task,2021.1.4,Win32,60.06006006,6299f149e92ead563fba08ef,62a44077d3383b198df25aac,,,,,,,,,,,,,,,,,,,,,,,,,,,,,,,,,,,,,,,,,,,,,,,,,,,,,,,,,,,,,,,,,,,,,,,,,,,,6,0,6,0,1,,,,,,,,,,,,,,,,,,,,,
,,,,,,,,,,,,611e605f8acf7f120f3715e7,26,Kobieta,2022-06-11_09h13.46.672,task,2021.1.4,Win32,60.06006006,6299f149e92ead563fba08ef,62a44077d3383b198df25aac,,,,,,,,,,,,,,,,,,,,,,,,,,,,,,,,,,,,,,,,,,,,,,,,,,,,,,,,,,,,,,,,,,,,,,,,,,,,,,,,,qbdfpq,"[""q"",""b"",""d"",""f"",""p"",""q""]",0,"[2.1662999999523436,2.3654999999999973,2.772000000000048,3.0545000000000755,3.399200000047699,3.9483999998569743,4.399099999904706]",0,QBDFPWQ,6,0,6,0,1,,,,,,,,,,
,,,,,,,,,,,,611e605f8acf7f120f3715e7,26,Kobieta,2022-06-11_09h13.46.672,task,2021.1.4,Win32,60.06006006,6299f149e92ead563fba08ef,62a44077d3383b198df25aac,,,,,,,,,,,,,6,,,,,,,,,,Task,30,(6/3) + 4 ,6,,,,,,,,,,,,,,,,,,,1,,,,,,,,,,,,,,,,,,,,,,,"[""6""]",1,[3.74940000009542],0,0,0,29,1,,,,,,,,,,,,,,,,,,,,,,,,,,
,,,,,,,,,,,X V Q F H G B L J M P D K C T S W R N Z,611e605f8acf7f120f3715e7,26,Kobieta,2022-06-11_09h13.46.672,task,2021.1.4,Win32,60.06006006,6299f149e92ead563fba08ef,62a44077d3383b198df25aac,,,,,,,,,,,,,,,,,,,,,,,,,,,,,,,,,,,,,,,,,,,,,,,,,,,,,,,,,,,,,,,,,,,,,,,,,,,,0,0,0,0,1,,,,,,,,,,,,,,,,,,,,,
,,,,,,,,,,,,611e605f8acf7f120f3715e7,26,Kobieta,2022-06-11_09h13.46.672,task,2021.1.4,Win32,60.06006006,6299f149e92ead563fba08ef,62a44077d3383b198df25aac,,,,,,,,,,,,,6,,,,,,,,,,Task,13,(3x4) - 6,6,,,,,,,,,,,,,,,,,,,1,,,,,,,,,,,,,,,,,,,,,,,"[""6""]",1,[1.8079999999999927],0,0,0,12,1,,,,,,,,,,,,,,,,,,,,,,,,,,
,,,,,,,,,,,X V Q F H G B L J M P D K C T S W R N Z,611e605f8acf7f120f3715e7,26,Kobieta,2022-06-11_09h13.46.672,task,2021.1.4,Win32,60.06006006,6299f149e92ead563fba08ef,62a44077d3383b198df25aac,,,,,,,,,,,,,,,,,,,,,,,,,,,,,,,,,,,,,,,,,,,,,,,,,,,,,,,,,,,,,,,,,,,,,,,,,,,,1,0,1,0,1,,,,,,,,,,,,,,,,,,,,,
,,,,,,,,,,,,611e605f8acf7f120f3715e7,26,Kobieta,2022-06-11_09h13.46.672,task,2021.1.4,Win32,60.06006006,6299f149e92ead563fba08ef,62a44077d3383b198df25aac,,,,,,,,,,,,,9,,,,,,,,,,Task,24,(2x2) + 5,9,,,,,,,,,,,,,,,,,,,1,,,,,,,,,,,,,,,,,,,,,,,"[""9""]",1,[1.6650000000000773],0,0,0,23,1,,,,,,,,,,,,,,,,,,,,,,,,,,
,,,,,,,,,,,X V Q F H G B L J M P D K C T S W R N Z,611e605f8acf7f120f3715e7,26,Kobieta,2022-06-11_09h13.46.672,task,2021.1.4,Win32,60.06006006,6299f149e92ead563fba08ef,62a44077d3383b198df25aac,,,,,,,,,,,,,,,,,,,,,,,,,,,,,,,,,,,,,,,,,,,,,,,,,,,,,,,,,,,,,,,,,,,,,,,,,,,,2,0,2,0,1,,,,,,,,,,,,,,,,,,,,,
,,,,,,,,,,,,611e605f8acf7f120f3715e7,26,Kobieta,2022-06-11_09h13.46.672,task,2021.1.4,Win32,60.06006006,6299f149e92ead563fba08ef,62a44077d3383b198df25aac,,,,,,,,,,,,,3,,,,,,,,,,Task,27,(3/3) + 2,3,,,,,,,,,,,,,,,,,,,1,,,,,,,,,,,,,,,,,,,,,,,"[""3""]",1,[2.931400000095323],0,0,0,26,1,,,,,,,,,,,,,,,,,,,,,,,,,,
,,,,,,,,,,,X V Q F H G B L J M P D K C T S W R N Z,611e605f8acf7f120f3715e7,26,Kobieta,2022-06-11_09h13.46.672,task,2021.1.4,Win32,60.06006006,6299f149e92ead563fba08ef,62a44077d3383b198df25aac,,,,,,,,,,,,,,,,,,,,,,,,,,,,,,,,,,,,,,,,,,,,,,,,,,,,,,,,,,,,,,,,,,,,,,,,,,,,3,0,3,0,1,,,,,,,,,,,,,,,,,,,,,
,,,,,,,,,,,,611e605f8acf7f120f3715e7,26,Kobieta,2022-06-11_09h13.46.672,task,2021.1.4,Win32,60.06006006,6299f149e92ead563fba08ef,62a44077d3383b198df25aac,,,,,,,,,,,,,9,,,,,,,,,,Task,7,(3x7) - 12,9,,,,,,,,,,,,,,,,,,,1,,,,,,,,,,,,,,,,,,,,,,,"[""9""]",1,[1.7005000000000337],0,0,0,6,1,,,,,,,,,,,,,,,,,,,,,,,,,,
,,,,,,,,,,,X V Q F H G B L J M P D K C T S W R N Z,611e605f8acf7f120f3715e7,26,Kobieta,2022-06-11_09h13.46.672,task,2021.1.4,Win32,60.06006006,6299f149e92ead563fba08ef,62a44077d3383b198df25aac,,,,,,,,,,,,,,,,,,,,,,,,,,,,,,,,,,,,,,,,,,,,,,,,,,,,,,,,,,,,,,,,,,,,,,,,,,,,4,0,4,0,1,,,,,,,,,,,,,,,,,,,,,
,,,,,,,,,,,,611e605f8acf7f120f3715e7,26,Kobieta,2022-06-11_09h13.46.672,task,2021.1.4,Win32,60.06006006,6299f149e92ead563fba08ef,62a44077d3383b198df25aac,,,,,,,,,,,,,0,,,,,,,,,,Task,17,(2x3) - 6,0,,,,,,,,,,,,,,,,,,,1,,,,,,,,,,,,,,,,,,,,,,,"[""0""]",1,[2.1692999999523863],0,0,0,16,1,,,,,,,,,,,,,,,,,,,,,,,,,,
,,,,,,,,,,,X V Q F H G B L J M P D K C T S W R N Z,611e605f8acf7f120f3715e7,26,Kobieta,2022-06-11_09h13.46.672,task,2021.1.4,Win32,60.06006006,6299f149e92ead563fba08ef,62a44077d3383b198df25aac,,,,,,,,,,,,,,,,,,,,,,,,,,,,,,,,,,,,,,,,,,,,,,,,,,,,,,,,,,,,,,,,,,,,,,,,,,,,5,0,5,0,1,,,,,,,,,,,,,,,,,,,,,
,,,,,,,,,,,,611e605f8acf7f120f3715e7,26,Kobieta,2022-06-11_09h13.46.672,task,2021.1.4,Win32,60.06006006,6299f149e92ead563fba08ef,62a44077d3383b198df25aac,,,,,,,,,,,,,8,,,,,,,,,,Task,23,(2x3) + 2,8,,,,,,,,,,,,,,,,,,,1,,,,,,,,,,,,,,,,,,,,,,,"[""8""]",1,[3.8732000000477456],0,0,0,22,1,,,,,,,,,,,,,,,,,,,,,,,,,,
,,,,,,,,,,,X V Q F H G B L J M P D K C T S W R N Z,611e605f8acf7f120f3715e7,26,Kobieta,2022-06-11_09h13.46.672,task,2021.1.4,Win32,60.06006006,6299f149e92ead563fba08ef,62a44077d3383b198df25aac,,,,,,,,,,,,,,,,,,,,,,,,,,,,,,,,,,,,,,,,,,,,,,,,,,,,,,,,,,,,,,,,,,,,,,,,,,,,6,0,6,0,1,,,,,,,,,,,,,,,,,,,,,
,,,,,,,,,,,,611e605f8acf7f120f3715e7,26,Kobieta,2022-06-11_09h13.46.672,task,2021.1.4,Win32,60.06006006,6299f149e92ead563fba08ef,62a44077d3383b198df25aac,,,,,,,,,,,,,,,,,,,,,,,,,,,,,,,,,,,,,,,,,,,,,,,,,,,,,,,,,,,,,,,,,,,,,,,,,,,,,,,,,cdhdcnw,"[""c"",""d"",""h"",""d"",""c"",""n"",""w""]",0,"[1.506600000142953,1.9162000000476382,2.1669999999999163,2.837799999952267,3.050700000047641,3.216700000047581,4.415100000142957,4.740700000047582]",0,CDHCNDW,7,0,7,0,1,,,,,,,,,,
,,,,,,,,,,,,611e605f8acf7f120f3715e7,26,Kobieta,2022-06-11_09h13.46.672,task,2021.1.4,Win32,60.06006006,6299f149e92ead563fba08ef,62a44077d3383b198df25aac,,,,,,,,,,,,,,,,,,,,,,,,,,,,,,,,,,,,,,,,,,,,,,,,,,,,,,,,,,,,,,,,,,,,,,,,,,,,,,,,,,,,,,,,,,,,"[""comma""]",0,[1.91729999995232],0,0,0,0,1,,
,,,,,,,,,,,,611e605f8acf7f120f3715e7,26,Kobieta,2022-06-11_09h13.46.672,task,2021.1.4,Win32,60.06006006,6299f149e92ead563fba08ef,62a44077d3383b198df25aac,,,,,,,,,,,,,,,,,,,,,,,,,,,,,,,,,,,,,,,,,,,,,,,,,,,,,,,,,,,,,,,,,,,,,,,,,,,,,,,,,,,,,,,,,,,,,0,,1,0,1,0,1,,
,,,,,,,,,,,,611e605f8acf7f120f3715e7,26,Kobieta,2022-06-11_09h13.46.672,task,2021.1.4,Win32,60.06006006,6299f149e92ead563fba08ef,62a44077d3383b198df25aac,,,,,,,,,,,,,,,,,,,,,,,,,,,,,,,,,,,,,,,,,,,,,,,,,,,,,,,,,,,,,,,,,,,,,,,,,,,,,,,,,,,,,,,,,,,,,0,,2,0,2,0,1,,
,,,,,,,,,,,,611e605f8acf7f120f3715e7,26,Kobieta,2022-06-11_09h13.46.672,task,2021.1.4,Win32,60.06006006,6299f149e92ead563fba08ef,62a44077d3383b198df25aac,,,,,,,,,,,,,,,,,,,,,,,,,,,,,,,,,,,,,,,,,,,,,,,,,,,,,,,,,,,,,,,,,,,,,,,,,,,,,,,,,,,,,,,,,,,,,0,,3,0,3,0,1,,
,,,,,,,,,,,,611e605f8acf7f120f3715e7,26,Kobieta,2022-06-11_09h13.46.672,task,2021.1.4,Win32,60.06006006,6299f149e92ead563fba08ef,62a44077d3383b198df25aac,,,,,,,,,,,,,,,,,,,,,,,,,,,,,,,,,,,,,,,,,,,,,,,,,,,,,,,,,,,,,,,,,,,,,,,,,,,,,,,,,,,,,,,,,,,,,0,,4,0,4,0,1,,
,,,,,,,,,,,,611e605f8acf7f120f3715e7,26,Kobieta,2022-06-11_09h13.46.672,task,2021.1.4,Win32,60.06006006,6299f149e92ead563fba08ef,62a44077d3383b198df25aac,,,,,,,,,,,,,,,,,,,,,,,,,,,,,,,,,,,,,,,,,,,,,,,,,,,,,,,,,,,,,,,,,,,,,,,,,,,,,,,,,,,,,,,,,,,,"[""comma""]",0,[0.30950000000007094],5,0,5,0,1,,
,,,,,,,,,,,,611e605f8acf7f120f3715e7,26,Kobieta,2022-06-11_09h13.46.672,task,2021.1.4,Win32,60.06006006,6299f149e92ead563fba08ef,62a44077d3383b198df25aac,,,,,,,,,,,,,,,,,,,,,,,,,,,,,,,,,,,,,,,,,,,,,,,,,,,,,,,,,,,,,,,,,,,,,,,,,,,,,,,,,,,,,,,,,,,,"[""period"",""comma""]",0,"[0.2675000000000409,1.4835000000000491]",6,0,6,0,1,,
,,,,,,,,,,,,611e605f8acf7f120f3715e7,26,Kobieta,2022-06-11_09h13.46.672,task,2021.1.4,Win32,60.06006006,6299f149e92ead563fba08ef,62a44077d3383b198df25aac,,,,,,,,,,,,,,,,,,,,,,,,,,,,,,,,,,,,,,,,,,,,,,,,,,,,,,,,,,,,,,,,,,,,,,,,,,,,,,,,,,,,,,,,,,,,"[""period""]",0,[1.3497999999523245],7,0,7,0,1,,
,,,,,,,,,,,,611e605f8acf7f120f3715e7,26,Kobieta,2022-06-11_09h13.46.672,task,2021.1.4,Win32,60.06006006,6299f149e92ead563fba08ef,62a44077d3383b198df25aac,,,,,,,,,,,,,,,,,,,,,,,,,,,,,,,,,,,,,,,,,,,,,,,,,,,,,,,,,,,,,,,,,,,,,,,,,,,,,,,,,,,,,,,,,,,,"[""period""]",0,[1.4829999999999472],8,0,8,0,1,,
,,,,,,,,,,,,611e605f8acf7f120f3715e7,26,Kobieta,2022-06-11_09h13.46.672,task,2021.1.4,Win32,60.06006006,6299f149e92ead563fba08ef,62a44077d3383b198df25aac,,,,,,,,,,,,,,,,,,,,,,,,,,,,,,,,,,,,,,,,,,,,,,,,,,,,,,,,,,,,,,,,,,,,,,,,,,,,,,,,,,,,,,,,,,,,"[""comma""]",0,[1.6582000000477137],9,0,9,0,1,,
,,,,,,,,,,,,611e605f8acf7f120f3715e7,26,Kobieta,2022-06-11_09h13.46.672,task,2021.1.4,Win32,60.06006006,6299f149e92ead563fba08ef,62a44077d3383b198df25aac,,,,,,,,,,,,,,,,,,,,,,,,,,,,,,,,,,,,,,,,,,,,,,,,,,,,,,,,,,,,,,,,,,,,,,,,,,,,,,,,,,,,,,,,,,,,"[""period""]",0,[1.490299999952299],10,0,10,0,1,,
,,,,,,,,,,,,611e605f8acf7f120f3715e7,26,Kobieta,2022-06-11_09h13.46.672,task,2021.1.4,Win32,60.06006006,6299f149e92ead563fba08ef,62a44077d3383b198df25aac,,,,,,,,,,,,,,,,,,,,,,,,,,,,,,,,,,,,,,,,,,,,,,,,,,,,,,,,,,,,,,,,,,,,,,,,,,,,,,,,,,,,,,,,,,,,"[""comma""]",0,[1.2332999999523508],11,0,11,0,1,,
,,,,,,,,,,,,611e605f8acf7f120f3715e7,26,Kobieta,2022-06-11_09h13.46.672,task,2021.1.4,Win32,60.06006006,6299f149e92ead563fba08ef,62a44077d3383b198df25aac,,,,,,,,,,,,,,,,,,,,,,,,,,,,,,,,,,,,,,,,,,,,,,,,,,,,,,,,,,,,,,,,,,,,,,,,,,,,,,,,,,,,,,,,,,,,"[""comma""]",0,[1.2661000001430693],12,0,12,0,1,,
,,,,,,,,,,,,611e605f8acf7f120f3715e7,26,Kobieta,2022-06-11_09h13.46.672,task,2021.1.4,Win32,60.06006006,6299f149e92ead563fba08ef,62a44077d3383b198df25aac,,,,,,,,,,,,,,,,,,,,,,,,,,,,,,,,,,,,,,,,,,,,,,,,,,,,,,,,,,,,,,,,,,,,,,,,,,,,,,,,,,,,,,,,,,,,"[""comma""]",0,[1.1900999999046462],13,0,13,0,1,,
,,,,,,,,,,,,611e605f8acf7f120f3715e7,26,Kobieta,2022-06-11_09h13.46.672,task,2021.1.4,Win32,60.06006006,6299f149e92ead563fba08ef,62a44077d3383b198df25aac,,,,,,,,,,,,,,,,,,,,,,,,,,,,,,,,,,,,,,,,,,,,,,,,,,,,,,,,,,,,,,,,,,,,,,,,,,,,,,,,,,,,,,,,,,,,"[""period""]",0,[1.3892999999523],14,0,14,0,1,,
,,,,,,,,,,,,611e605f8acf7f120f3715e7,26,Kobieta,2022-06-11_09h13.46.672,task,2021.1.4,Win32,60.06006006,6299f149e92ead563fba08ef,62a44077d3383b198df25aac,,,,,,,,,,,,,,,,,,,,,,,,,,,,,,,,,,,,,,,,,,,,,,,,,,,,,,,,,,,,,,,,,,,,,,,,,,,,,,,,,,,,,,,,,,,,"[""period""]",0,[1.1664999999999281],15,0,15,0,1,,
,,,,,,,,,,,,611e605f8acf7f120f3715e7,26,Kobieta,2022-06-11_09h13.46.672,task,2021.1.4,Win32,60.06006006,6299f149e92ead563fba08ef,62a44077d3383b198df25aac,,,,,,,,,,,,,,,,,,,,,,,,,,,,,,,,,,,,,,,,,,,,,,,,,,,,,,,,,,,,,,,,,,,,,,,,,,,,,,,,,,,,,,,,,,,,,0,,16,0,16,0,1,,
,,,,,,,,,,,,611e605f8acf7f120f3715e7,26,Kobieta,2022-06-11_09h13.46.672,task,2021.1.4,Win32,60.06006006,6299f149e92ead563fba08ef,62a44077d3383b198df25aac,,,,,,,,,,,,,,,,,,,,,,,,,,,,,,,,,,,,,,,,,,,,,,,,,,,,,,,,,,,,,,,,,,,,,,,,,,,,,,,,,,,,,,,,,,,,"[""comma""]",0,[0.23310000014305388],17,0,17,0,1,,
,,,,,,,,,,,,611e605f8acf7f120f3715e7,26,Kobieta,2022-06-11_09h13.46.672,task,2021.1.4,Win32,60.06006006,6299f149e92ead563fba08ef,62a44077d3383b198df25aac,,,,,,,,,,,,,,,,,,,,,,,,,,,,,,,,,,,,,,,,,,,,,,,,,,,,,,,,,,,,,,,,,,,,,,,,,,,,,,,,,,,,,,,,,,,,"[""period""]",0,[0.25610000014307843],18,0,18,0,1,,
,,,,,,,,,,,,611e605f8acf7f120f3715e7,26,Kobieta,2022-06-11_09h13.46.672,task,2021.1.4,Win32,60.06006006,6299f149e92ead563fba08ef,62a44077d3383b198df25aac,,,,,,,,,,,,,,,,,,,,,,,,,,,,,,,,,,,,,,,,,,,,,,,,,,,,,,,,,,,,,,,,,,,,,,,,,,,,,,,,,,,,,,,,,,,,"[""period""]",0,[0.25419999980931607],19,0,19,0,1,,
,,,,,,,,,,,,611e605f8acf7f120f3715e7,26,Kobieta,2022-06-11_09h13.46.672,task,2021.1.4,Win32,60.06006006,6299f149e92ead563fba08ef,62a44077d3383b198df25aac,,,,,,,,,,,,,,,,,,,,,,,,,,,,,,,,,,,,,,,,,,,,,,,,,,,,,,,,,,,,,,,,,,,,,,,,,,,,,,,,,,,,,,,,,,,,"[""period""]",0,[0.2839000000954002],20,0,20,0,1,,
,,,,,,,,,,,,611e605f8acf7f120f3715e7,26,Kobieta,2022-06-11_09h13.46.672,task,2021.1.4,Win32,60.06006006,6299f149e92ead563fba08ef,62a44077d3383b198df25aac,,,,,,,,,,,,,,,,,,,,,,,,,,,,,,,,,,,,,,,,,,,,,,,,,,,,,,,,,,,,,,,,,,,,,,,,,,,,,,,,,,,,,,,,,,,,"[""comma""]",0,[0.2573999998570571],21,0,21,0,1,,
,,,,,,,,,,,,611e605f8acf7f120f3715e7,26,Kobieta,2022-06-11_09h13.46.672,task,2021.1.4,Win32,60.06006006,6299f149e92ead563fba08ef,62a44077d3383b198df25aac,,,,,,,,,,,,,,,,,,,,,,,,,,,,,,,,,,,,,,,,,,,,,,,,,,,,,,,,,,,,,,,,,,,,,,,,,,,,,,,,,,,,,,,,,,,,"[""comma""]",0,[0.28360000014311026],22,0,22,0,1,,
,,,,,,,,,,,,611e605f8acf7f120f3715e7,26,Kobieta,2022-06-11_09h13.46.672,task,2021.1.4,Win32,60.06006006,6299f149e92ead563fba08ef,62a44077d3383b198df25aac,,,,,,,,,,,,,,,,,,,,,,,,,,,,,,,,,,,,,,,,,,,,,,,,,,,,,,,,,,,,,,,,,,,,,,,,,,,,,,,,,,,,,,,,,,,,"[""period""]",0,[0.22710000014308207],23,0,23,0,1,,
,,,,,,,,,,,,611e605f8acf7f120f3715e7,26,Kobieta,2022-06-11_09h13.46.672,task,2021.1.4,Win32,60.06006006,6299f149e92ead563fba08ef,62a44077d3383b198df25aac,,,,,,,,,,,,,,,,,,,,,,,,,,,,,,,,,,,,,,,,,,,,,,,,,,,,,,,,,,,,,,,,,,,,,,,,,,,,,,,,,,,,,,,,,,,,"[""comma""]",0,[0.16729999995231992],24,0,24,0,1,,
,,,,,,,,,,,,611e605f8acf7f120f3715e7,26,Kobieta,2022-06-11_09h13.46.672,task,2021.1.4,Win32,60.06006006,6299f149e92ead563fba08ef,62a44077d3383b198df25aac,,,,,,,,,,,,,,,,,,,,,,,,,,,,,,,,,,,,,,,,,,,,,,,,,,,,,,,,,,,,,,,,,,,,,,,,,,,,,,,,,,,,,,,,,,,,"[""comma""]",0,[0.25129999995237995],25,0,25,0,1,,
,,,,,,,,,,,,611e605f8acf7f120f3715e7,26,Kobieta,2022-06-11_09h13.46.672,task,2021.1.4,Win32,60.06006006,6299f149e92ead563fba08ef,62a44077d3383b198df25aac,,,,,,,,,,,,,,,,,,,,,,,,,,,,,,,,,,,,,,,,,,,,,,,,,,,,,,,,,,,,,,,,,,,,,,,,,,,,,,,,,,,,,,,,,,,,"[""comma""]",0,[0.30059999990464803],26,0,26,0,1,,
,,,,,,,,,,,,611e605f8acf7f120f3715e7,26,Kobieta,2022-06-11_09h13.46.672,task,2021.1.4,Win32,60.06006006,6299f149e92ead563fba08ef,62a44077d3383b198df25aac,,,,,,,,,,,,,,,,,,,,,,,,,,,,,,,,,,,,,,,,,,,,,,,,,,,,,,,,,,,,,,,,,,,,,,,,,,,,,,,,,,,,,,,,,,,,"[""period""]",0,[0.2670999999046444],27,0,27,0,1,,
,,,,,,,,,,,,611e605f8acf7f120f3715e7,26,Kobieta,2022-06-11_09h13.46.672,task,2021.1.4,Win32,60.06006006,6299f149e92ead563fba08ef,62a44077d3383b198df25aac,,,,,,,,,,,,,,,,,,,,,,,,,,,,,,,,,,,,,,,,,,,,,,,,,,,,,,,,,,,,,,,,,,,,,,,,,,,,,,,,,,,,,,,,,,,,"[""comma""]",0,[0.2836999998091869],28,0,28,0,1,,
,,,,,,,,,,,,611e605f8acf7f120f3715e7,26,Kobieta,2022-06-11_09h13.46.672,task,2021.1.4,Win32,60.06006006,6299f149e92ead563fba08ef,62a44077d3383b198df25aac,,,,,,,,,,,,,,,,,,,,,,,,,,,,,,,,,,,,,,,,,,,,,,,,,,,,,,,,,,,,,,,,,,,,,,,,,,,,,,,,,,,,,,,,,,,,"[""period""]",0,[0.3086000001430875],29,0,29,0,1,,
,,,,,,,,,,,,611e605f8acf7f120f3715e7,26,Kobieta,2022-06-11_09h13.46.672,task,2021.1.4,Win32,60.06006006,6299f149e92ead563fba08ef,62a44077d3383b198df25aac,,,,,,,,,,,,,,,,,,,,,,,,,,,,,,,,,,,,,,,,,,,,,,,,,,,,,,,,,,,,,,,,,,,,,,,,,,,,,,,,,,,,,,,,,,,,"[""comma""]",0,[0.2702999999523854],30,0,30,0,1,,
,,,,,,,,,,,,611e605f8acf7f120f3715e7,26,Kobieta,2022-06-11_09h13.46.672,task,2021.1.4,Win32,60.06006006,6299f149e92ead563fba08ef,62a44077d3383b198df25aac,,,,,,,,,,,,,,,,,,,,,,,,,,,,,,,,,,,,,,,,,,,,,,,,,,,,,,,,,,,,,,,,,,,,,,,,,,,,,,,,,,,,,,,,,,,,"[""period""]",0,[0.31720000004770554],31,0,31,0,1,,
,,,,,,,,,,,,611e605f8acf7f120f3715e7,26,Kobieta,2022-06-11_09h13.46.672,task,2021.1.4,Win32,60.06006006,6299f149e92ead563fba08ef,62a44077d3383b198df25aac,,,,,,,,,,,,,,,,,,,,,,,,,,,,,,,,,,,,,,,,,,,,,,,,,,,,,,,,,,,,,,,,,,,,,,,,,,,,,,,,,,,,,,,,,,,,"[""comma""]",0,[0.2602000000476892],32,0,32,0,1,,
,,,,,,,,,,,,611e605f8acf7f120f3715e7,26,Kobieta,2022-06-11_09h13.46.672,task,2021.1.4,Win32,60.06006006,6299f149e92ead563fba08ef,62a44077d3383b198df25aac,,,,,,,,,,,,,,,,,,,,,,,,,,,,,,,,,,,,,,,,,,,,,,,,,,,,,,,,,,,,,,,,,,,,,,,,,,,,,,,,,,,,,,,,,,,,"[""period"",""comma""]",0,"[0.13450000000000273,1.4499999999999318]",33,0,33,0,1,,
,,,,,,,,,,,,611e605f8acf7f120f3715e7,26,Kobieta,2022-06-11_09h13.46.672,task,2021.1.4,Win32,60.06006006,6299f149e92ead563fba08ef,62a44077d3383b198df25aac,,,,,,,,,,,,,,,,,,,,,,,,,,,,,,,,,,,,,,,,,,,,,,,,,,,,,,,,,,,,,,,,,,,,,,,,,,,,,,,,,,,,,,,,,,,,,0,,34,0,34,0,1,,
,,,,,,,,,,,,611e605f8acf7f120f3715e7,26,Kobieta,2022-06-11_09h13.46.672,task,2021.1.4,Win32,60.06006006,6299f149e92ead563fba08ef,62a44077d3383b198df25aac,,,,,,,,,,,,,,,,,,,,,,,,,,,,,,,,,,,,,,,,,,,,,,,,,,,,,,,,,,,,,,,,,,,,,,,,,,,,,,,,,,,,,,,,,,,,"[""period"",""comma""]",0,"[0.10029999995231265,1.8666000001430803]",35,0,35,0,1,,
,,,,,,,,,,,,611e605f8acf7f120f3715e7,26,Kobieta,2022-06-11_09h13.46.672,task,2021.1.4,Win32,60.06006006,6299f149e92ead563fba08ef,62a44077d3383b198df25aac,,,,,,,,,,,,,,,,,,,,,,,,,,,,,,,,,,,,,,,,,,,,,,,,,,,,,,,,,,,,,,,,,,,,,,,,,,,,,,,,,,,,,,,,,,,,"[""period""]",0,[1.9496000001430502],36,0,36,0,1,,
,,,,,,,,,,,,611e605f8acf7f120f3715e7,26,Kobieta,2022-06-11_09h13.46.672,task,2021.1.4,Win32,60.06006006,6299f149e92ead563fba08ef,62a44077d3383b198df25aac,,,,,,,,,,,,,,,,,,,,,,,,,,,,,,,,,,,,,,,,,,,,,,,,,,,,,,,,,,,,,,,,,,,,,,,,,,,,,,,,,,,,,,,,,,,,,0,,37,0,37,0,1,,
,,,,,,,,,,,,611e605f8acf7f120f3715e7,26,Kobieta,2022-06-11_09h13.46.672,task,2021.1.4,Win32,60.06006006,6299f149e92ead563fba08ef,62a44077d3383b198df25aac,,,,,,,,,,,,,,,,,,,,,,,,,,,,,,,,,,,,,,,,,,,,,,,,,,,,,,,,,,,,,,,,,,,,,,,,,,,,,,,,,,,,,,,,,,,,"[""comma""]",0,[0.01720000004763733],38,0,38,0,1,,
,,,,,,,,,,,,611e605f8acf7f120f3715e7,26,Kobieta,2022-06-11_09h13.46.672,task,2021.1.4,Win32,60.06006006,6299f149e92ead563fba08ef,62a44077d3383b198df25aac,,,,,,,,,,,,,,,,,,,,,,,,,,,,,,,,,,,,,,,,,,,,,,,,,,,,,,,,,,,,,,,,,,,,,,,,,,,,,,,,,,,,,,,,,,,,"[""comma"",""period""]",0,"[0.1835000000000946,1.9160999999046453]",39,0,39,0,1,,
,,,,,,,,,,,,611e605f8acf7f120f3715e7,26,Kobieta,2022-06-11_09h13.46.672,task,2021.1.4,Win32,60.06006006,6299f149e92ead563fba08ef,62a44077d3383b198df25aac,,,,,,,,,,,,,,,,,,,,,,,,,,,,,,,,,,,,,,,,,,,,,,,,,,,,,,,,,,,,,,,,,,,,,,,,,,,,,,,,,,,,,,,,,,,,"[""comma""]",0,[1.9164999999999281],40,0,40,0,1,,
,,,,,,,,,,,,611e605f8acf7f120f3715e7,26,Kobieta,2022-06-11_09h13.46.672,task,2021.1.4,Win32,60.06006006,6299f149e92ead563fba08ef,62a44077d3383b198df25aac,,,,,,,,,,,,,,,,,,,,,,,,,,,,,,,,,,,,,,,,,,,,,,,,,,,,,,,,,,,,,,,,,,,,,,,,,,,,,,,,,,,,,,,,,,,,,0,,41,0,41,0,1,,
,,,,,,,,,,,,611e605f8acf7f120f3715e7,26,Kobieta,2022-06-11_09h13.46.672,task,2021.1.4,Win32,60.06006006,6299f149e92ead563fba08ef,62a44077d3383b198df25aac,,,,,,,,,,,,,,,,,,,,,,,,,,,,,,,,,,,,,,,,,,,,,,,,,,,,,,,,,,,,,,,,,,,,,,,,,,,,,,,,,,,,,,,,,,,,"[""period"",""comma""]",0,"[-0.03429999995239541,1.932200000047601]",42,0,42,0,1,,
,,,,,,,,,,,,611e605f8acf7f120f3715e7,26,Kobieta,2022-06-11_09h13.46.672,task,2021.1.4,Win32,60.06006006,6299f149e92ead563fba08ef,62a44077d3383b198df25aac,,,,,,,,,,,,,,,,,,,,,,,,,,,,,,,,,,,,,,,,,,,,,,,,,,,,,,,,,,,,,,,,,,,,,,,,,,,,,,,,,,,,,,,,,,,,"[""period""]",0,[1.9422000000477055],43,0,43,0,1,,
,,,,,,,,,,,,611e605f8acf7f120f3715e7,26,Kobieta,2022-06-11_09h13.46.672,task,2021.1.4,Win32,60.06006006,6299f149e92ead563fba08ef,62a44077d3383b198df25aac,,,,,,,,,,,,,,,,,,,,,,,,,,,,,,,,,,,,,,,,,,,,,,,,,,,,,,,,,,,,,,,,,,,,,,,,,,,,,,,,,,,,,,,,,,,,,0,,44,0,44,0,1,,
,,,,,,,,,,,,611e605f8acf7f120f3715e7,26,Kobieta,2022-06-11_09h13.46.672,task,2021.1.4,Win32,60.06006006,6299f149e92ead563fba08ef,62a44077d3383b198df25aac,,,,,,,,,,,,,,,,,,,,,,,,,,,,,,,,,,,,,,,,,,,,,,,,,,,,,,,,,,,,,,,,,,,,,,,,,,,,,,,,,,,,,,,,,,,,"[""comma""]",0,[-0.02270000004762096],45,0,45,0,1,,
,,,,,,,,,,,,611e605f8acf7f120f3715e7,26,Kobieta,2022-06-11_09h13.46.672,task,2021.1.4,Win32,60.06006006,6299f149e92ead563fba08ef,62a44077d3383b198df25aac,,,,,,,,,,,,,,,,,,,,,,,,,,,,,,,,,,,,,,,,,,,,,,,,,,,,,,,,,,,,,,,,,,,,,,,,,,,,,,,,,,,,,,,,,,,,"[""period"",""comma""]",0,"[0.1407000000476728,1.4334000000953893]",46,0,46,0,1,,
,,,,,,,,,,,,611e605f8acf7f120f3715e7,26,Kobieta,2022-06-11_09h13.46.672,task,2021.1.4,Win32,60.06006006,6299f149e92ead563fba08ef,62a44077d3383b198df25aac,,,,,,,,,,,,,,,,,,,,,,,,,,,,,,,,,,,,,,,,,,,,,,,,,,,,,,,,,,,,,,,,,,,,,,,,,,,,,,,,,,,,,,,,,,,,"[""period""]",0,[1.2922000000477283],47,0,47,0,1,,
,,,,,,,,,,,,611e605f8acf7f120f3715e7,26,Kobieta,2022-06-11_09h13.46.672,task,2021.1.4,Win32,60.06006006,6299f149e92ead563fba08ef,62a44077d3383b198df25aac,,,,,,,,,,,,,,,,,,,,,,,,,,,,,,,,,,,,,,,,,,,,,,,,,,,,,,,,,,,,,,,,,,,,,,,,,,,,,,,,,,,,,,,,,,,,"[""period""]",0,[1.85320000004765],48,0,48,0,1,,
,,,,,,,,,,,,611e605f8acf7f120f3715e7,26,Kobieta,2022-06-11_09h13.46.672,task,2021.1.4,Win32,60.06006006,6299f149e92ead563fba08ef,62a44077d3383b198df25aac,,,,,,,,,,,,,,,,,,,,,,,,,,,,,,,,,,,,,,,,,,,,,,,,,,,,,,,,,,,,,,,,,,,,,,,,,,,,,,,,,,,,,,,,,,,,,0,,49,0,49,0,1,,
,,,,,,,,,,,,611e605f8acf7f120f3715e7,26,Kobieta,2022-06-11_09h13.46.672,task,2021.1.4,Win32,60.06006006,6299f149e92ead563fba08ef,62a44077d3383b198df25aac,,,,,,,,,,,,,,,,,,,,,,,,,,,,,,,,,,,,,,,,,,,,,,,,,,,,,,,,,,,,,,,,,,,,,,,,,,,,,,,,,,,,,,,,,,,,"[""period"",""comma""]",0,"[0.01879999995230719,1.8511999998091824]",50,0,50,0,1,,
,,,,,,,,,,,,611e605f8acf7f120f3715e7,26,Kobieta,2022-06-11_09h13.46.672,task,2021.1.4,Win32,60.06006006,6299f149e92ead563fba08ef,62a44077d3383b198df25aac,,,,,,,,,,,,,,,,,,,,,,,,,,,,,,,,,,,,,,,,,,,,,,,,,,,,,,,,,,,,,,,,,,,,,,,,,,,,,,,,,,,,,,,,,,,,"[""comma""]",0,[1.4661999998093052],51,0,51,0,1,,
,,,,,,,,,,,,611e605f8acf7f120f3715e7,26,Kobieta,2022-06-11_09h13.46.672,task,2021.1.4,Win32,60.06006006,6299f149e92ead563fba08ef,62a44077d3383b198df25aac,,,,,,,,,,,,,,,,,,,,,,,,,,,,,,,,,,,,,,,,,,,,,,,,,,,,,,,,,,,,,,,,,,,,,,,,,,,,,,,,,,,,,,,,,,,,"[""period""]",0,[1.5164999999999509],52,0,52,0,1,,
,,,,,,,,,,,,611e605f8acf7f120f3715e7,26,Kobieta,2022-06-11_09h13.46.672,task,2021.1.4,Win32,60.06006006,6299f149e92ead563fba08ef,62a44077d3383b198df25aac,,,,,,,,,,,,,,,,,,,,,,,,,,,,,,,,,,,,,,,,,,,,,,,,,,,,,,,,,,,,,,,,,,,,,,,,,,,,,,,,,,,,,,,,,,,,"[""comma""]",0,[1.266900000095461],53,0,53,0,1,,
,,,,,,,,,,,,611e605f8acf7f120f3715e7,26,Kobieta,2022-06-11_09h13.46.672,task,2021.1.4,Win32,60.06006006,6299f149e92ead563fba08ef,62a44077d3383b198df25aac,,,,,,,,,,,,,,,,,,,,,,,,,,,,,,,,,,,,,,,,,,,,,,,,,,,,,,,,,,,,,,,,,,,,,,,,,,,,,,,,,,,,,,,,,,,,"[""period""]",0,[1.3494000000953292],54,0,54,0,1,,
,,,,,,,,,,,,611e605f8acf7f120f3715e7,26,Kobieta,2022-06-11_09h13.46.672,task,2021.1.4,Win32,60.06006006,6299f149e92ead563fba08ef,62a44077d3383b198df25aac,,,,,,,,,,,,,,,,,,,,,,,,,,,,,,,,,,,,,,,,,,,,,,,,,,,,,,,,,,,,,,,,,,,,,,,,,,,,,,,,,,,,,,,,,,,,"[""period""]",0,[1.4257000000477547],55,0,55,0,1,,
,,,,,,,,,,,,611e605f8acf7f120f3715e7,26,Kobieta,2022-06-11_09h13.46.672,task,2021.1.4,Win32,60.06006006,6299f149e92ead563fba08ef,62a44077d3383b198df25aac,,,,,,,,,,,,,,,,,,,,,,,,,,,,,,,,,,,,,,,,,,,,,,,,,,,,,,,,,,,,,,,,,,,,,,,,,,,,,,,,,,,,,,,,,,,,"[""period""]",0,[1.2696999998092906],56,0,56,0,1,,
,,,,,,,,,,,,611e605f8acf7f120f3715e7,26,Kobieta,2022-06-11_09h13.46.672,task,2021.1.4,Win32,60.06006006,6299f149e92ead563fba08ef,62a44077d3383b198df25aac,,,,,,,,,,,,,,,,,,,,,,,,,,,,,,,,,,,,,,,,,,,,,,,,,,,,,,,,,,,,,,,,,,,,,,,,,,,,,,,,,,,,,,,,,,,,"[""comma""]",0,[1.4999000000952947],57,0,57,0,1,,
,,,,,,,,,,,,611e605f8acf7f120f3715e7,26,Kobieta,2022-06-11_09h13.46.672,task,2021.1.4,Win32,60.06006006,6299f149e92ead563fba08ef,62a44077d3383b198df25aac,,,,,,,,,,,,,,,,,,,,,,,,,,,,,,,,,,,,,,,,,,,,,,,,,,,,,,,,,,,,,,,,,,,,,,,,,,,,,,,,,,,,,,,,,,,,"[""comma""]",0,[1.1672000000476146],58,0,58,0,1,,
,,,,,,,,,,,,611e605f8acf7f120f3715e7,26,Kobieta,2022-06-11_09h13.46.672,task,2021.1.4,Win32,60.06006006,6299f149e92ead563fba08ef,62a44077d3383b198df25aac,,,,,,,,,,,,,,,,,,,,,,,,,,,,,,,,,,,,,,,,,,,,,,,,,,,,,,,,,,,,,,,,,,,,,,,,,,,,,,,,,,,,,,,,,,,,"[""comma""]",0,[1.1166999998092706],59,0,59,0,1,,
,,,,,,,,,,,,611e605f8acf7f120f3715e7,26,Kobieta,2022-06-11_09h13.46.672,task,2021.1.4,Win32,60.06006006,6299f149e92ead563fba08ef,62a44077d3383b198df25aac,,,,,,,,,,,,,,,,,,,,,,,,,,,,,,,,,,,,,,,,,,,,,,,,,,,,,,,,,,,,,,,,,,,,,,,,,,,,,,,,,,,,,,,,,,,,"[""period""]",0,[0.9845999999046171],60,0,60,0,1,,
,,,,,,,,,,,,611e605f8acf7f120f3715e7,26,Kobieta,2022-06-11_09h13.46.672,task,2021.1.4,Win32,60.06006006,6299f149e92ead563fba08ef,62a44077d3383b198df25aac,,,,,,,,,,,,,,,,,,,,,,,,,,,,,,,,,,,,,,,,,,,,,,,,,,,,,,,,,,,,,,,,,,,,,,,,,,,,,,,,,,,,,,,,,,,,"[""comma""]",0,[1.1187000000476246],61,0,61,0,1,,
,,,,,,,,,,,,611e605f8acf7f120f3715e7,26,Kobieta,2022-06-11_09h13.46.672,task,2021.1.4,Win32,60.06006006,6299f149e92ead563fba08ef,62a44077d3383b198df25aac,,,,,,,,,,,,,,,,,,,,,,,,,,,,,,,,,,,,,,,,,,,,,,,,,,,,,,,,,,,,,,,,,,,,,,,,,,,,,,,,,,,,,,,,,,,,"[""period""]",0,[1.1167999999522635],62,0,62,0,1,,
,,,,,,,,,,,,611e605f8acf7f120f3715e7,26,Kobieta,2022-06-11_09h13.46.672,task,2021.1.4,Win32,60.06006006,6299f149e92ead563fba08ef,62a44077d3383b198df25aac,,,,,,,,,,,,,,,,,,,,,,,,,,,,,,,,,,,,,,,,,,,,,,,,,,,,,,,,,,,,,,,,,,,,,,,,,,,,,,,,,,,,,,,,,,,,"[""comma""]",0,[1.116599999904679],63,0,63,0,1,,
,,,,,,,,,,,,611e605f8acf7f120f3715e7,26,Kobieta,2022-06-11_09h13.46.672,task,2021.1.4,Win32,60.06006006,6299f149e92ead563fba08ef,62a44077d3383b198df25aac,,,,,,,,,,,,,,,,,,,,,,,,,,,,,,,,,,,,,,,,,,,,,,,,,,,,,,,,,,,,,,,,,,,,,,,,,,,,,,,,,,,,,,,,,,,,"[""period""]",0,[1.1007000000475955],64,0,64,0,1,,
,,,,,,,,,,,,611e605f8acf7f120f3715e7,26,Kobieta,2022-06-11_09h13.46.672,task,2021.1.4,Win32,60.06006006,6299f149e92ead563fba08ef,62a44077d3383b198df25aac,,,,,,,,,,,,,,,,,,,,,,,,,,,,,,,,,,,,,,,,,,,,,,,,,,,,,,,,,,,,,,,,,,,,,,,,,,,,,,,,,,,,,,,,,,,,"[""comma""]",0,[1.0172999999523427],65,0,65,0,1,,
,,,,,,,,,,,,611e605f8acf7f120f3715e7,26,Kobieta,2022-06-11_09h13.46.672,task,2021.1.4,Win32,60.06006006,6299f149e92ead563fba08ef,62a44077d3383b198df25aac,,,,,,,,,,,,,,,,,,,,,,,,,,,,,,,,,,,,,,,,,,,,,,,,,,,,,,,,,,,,,,,,,,,,,,,,,,,,,,,,,,,,,,,,,,,,"[""comma""]",0,[1.1087000000476337],66,0,66,0,1,,
,,,,,,,,,,,,611e605f8acf7f120f3715e7,26,Kobieta,2022-06-11_09h13.46.672,task,2021.1.4,Win32,60.06006006,6299f149e92ead563fba08ef,62a44077d3383b198df25aac,,,,,,,,,,,,,,,,,,,,,,,,,,,,,,,,,,,,,,,,,,,,,,,,,,,,,,,,,,,,,,,,,,,,,,,,,,,,,,,,,,,,,,,,,,,,"[""period""]",0,[1.1245000000000118],67,0,67,0,1,,
,,,,,,,,,,,,611e605f8acf7f120f3715e7,26,Kobieta,2022-06-11_09h13.46.672,task,2021.1.4,Win32,60.06006006,6299f149e92ead563fba08ef,62a44077d3383b198df25aac,,,,,,,,,,,,,,,,,,,,,,,,,,,,,,,,,,,,,,,,,,,,,,,,,,,,,,,,,,,,,,,,,,,,,,,,,,,,,,,,,,,,,,,,,,,,"[""comma""]",0,[1.1829999999999927],68,0,68,0,1,,
,,,,,,,,,,,,611e605f8acf7f120f3715e7,26,Kobieta,2022-06-11_09h13.46.672,task,2021.1.4,Win32,60.06006006,6299f149e92ead563fba08ef,62a44077d3383b198df25aac,,,,,,,,,,,,,,,,,,,,,,,,,,,,,,,,,,,,,,,,,,,,,,,,,,,,,,,,,,,,,,,,,,,,,,,,,,,,,,,,,,,,,,,,,,,,"[""period""]",0,[1.00779999995234],69,0,69,0,1,,
,,,,,,,,,,,,611e605f8acf7f120f3715e7,26,Kobieta,2022-06-11_09h13.46.672,task,2021.1.4,Win32,60.06006006,6299f149e92ead563fba08ef,62a44077d3383b198df25aac,,,,,,,,,,,,,,,,,,,,,,,,,,,,,,,,,,,,,,,,,,,,,,,,,,,,,,,,,,,,,,,,,,,,,,,,,,,,,,,,,,,,,,,,,,,,"[""period""]",0,[1.149799999952279],70,0,70,0,1,,
,,,,,,,,,,,,611e605f8acf7f120f3715e7,26,Kobieta,2022-06-11_09h13.46.672,task,2021.1.4,Win32,60.06006006,6299f149e92ead563fba08ef,62a44077d3383b198df25aac,,,,,,,,,,,,,,,,,,,,,,,,,,,,,,,,,,,,,,,,,,,,,,,,,,,,,,,,,,,,,,,,,,,,,,,,,,,,,,,,,,,,,,,,,,,,"[""comma""]",0,[1.1525999999046235],71,0,71,0,1,,
,,,,,,,,,,,,611e605f8acf7f120f3715e7,26,Kobieta,2022-06-11_09h13.46.672,task,2021.1.4,Win32,60.06006006,6299f149e92ead563fba08ef,62a44077d3383b198df25aac,,,,,,,,,,,,,,,,,,,,,,,,,,,,,,,,,,,,,,,,,,,,,,,,,,,,,,,,,,,,,,,,,,,,,,,,,,,,,,,,,,,,,,,,,,,,"[""comma""]",0,[1.0847000000477465],72,0,72,0,1,,
,,,,,,,,,,,,611e605f8acf7f120f3715e7,26,Kobieta,2022-06-11_09h13.46.672,task,2021.1.4,Win32,60.06006006,6299f149e92ead563fba08ef,62a44077d3383b198df25aac,,,,,,,,,,,,,,,,,,,,,,,,,,,,,,,,,,,,,,,,,,,,,,,,,,,,,,,,,,,,,,,,,,,,,,,,,,,,,,,,,,,,,,,,,,,,"[""period""]",0,[0.9522000000475828],73,0,73,0,1,,
,,,,,,,,,,,,611e605f8acf7f120f3715e7,26,Kobieta,2022-06-11_09h13.46.672,task,2021.1.4,Win32,60.06006006,6299f149e92ead563fba08ef,62a44077d3383b198df25aac,,,,,,,,,,,,,,,,,,,,,,,,,,,,,,,,,,,,,,,,,,,,,,,,,,,,,,,,,,,,,,,,,,,,,,,,,,,,,,,,,,,,,,,,,,,,"[""comma""]",0,[1.1355999999046844],74,0,74,0,1,,
,,,,,,,,,,,,611e605f8acf7f120f3715e7,26,Kobieta,2022-06-11_09h13.46.672,task,2021.1.4,Win32,60.06006006,6299f149e92ead563fba08ef,62a44077d3383b198df25aac,,,,,,,,,,,,,,,,,,,,,,,,,,,,,,,,,,,,,,,,,,,,,,,,,,,,,,,,,,,,,,,,,,,,,,,,,,,,,,,,,,,,,,,,,,,,"[""comma""]",0,[1.0544000000953702],75,0,75,0,1,,
,,,,,,,,,,,,611e605f8acf7f120f3715e7,26,Kobieta,2022-06-11_09h13.46.672,task,2021.1.4,Win32,60.06006006,6299f149e92ead563fba08ef,62a44077d3383b198df25aac,,,,,,,,,,,,,,,,,,,,,,,,,,,,,,,,,,,,,,,,,,,,,,,,,,,,,,,,,,,,,,,,,,,,,,,,,,,,,,,,,,,,,,,,,,,,"[""period""]",0,[1.258599999904618],76,0,76,0,1,,
,,,,,,,,,,,,611e605f8acf7f120f3715e7,26,Kobieta,2022-06-11_09h13.46.672,task,2021.1.4,Win32,60.06006006,6299f149e92ead563fba08ef,62a44077d3383b198df25aac,,,,,,,,,,,,,,,,,,,,,,,,,,,,,,,,,,,,,,,,,,,,,,,,,,,,,,,,,,,,,,,,,,,,,,,,,,,,,,,,,,,,,,,,,,,,"[""period""]",0,[1.143400000095312],77,0,77,0,1,,
,,,,,,,,,,,,611e605f8acf7f120f3715e7,26,Kobieta,2022-06-11_09h13.46.672,task,2021.1.4,Win32,60.06006006,6299f149e92ead563fba08ef,62a44077d3383b198df25aac,,,,,,,,,,,,,,,,,,,,,,,,,,,,,,,,,,,,,,,,,,,,,,,,,,,,,,,,,,,,,,,,,,,,,,,,,,,,,,,,,,,,,,,,,,,,"[""period""]",0,[1.0694000000953565],78,0,78,0,1,,
,,,,,,,,,,,,611e605f8acf7f120f3715e7,26,Kobieta,2022-06-11_09h13.46.672,task,2021.1.4,Win32,60.06006006,6299f149e92ead563fba08ef,62a44077d3383b198df25aac,,,,,,,,,,,,,,,,,,,,,,,,,,,,,,,,,,,,,,,,,,,,,,,,,,,,,,,,,,,,,,,,,,,,,,,,,,,,,,,,,,,,,,,,,,,,"[""period""]",0,[1.2376000001430612],79,0,79,0,1,,
,,,,,,,,,,,,611e605f8acf7f120f3715e7,26,Kobieta,2022-06-11_09h13.46.672,task,2021.1.4,Win32,60.06006006,6299f149e92ead563fba08ef,62a44077d3383b198df25aac,,,,,,,,,,,,,,,,,,,,,,,,,,,,,,,,,,,,,,,,,,,,,,,,,,,,,,,,,,,,,,,,,,,,,,,,,,,,,,,,,,,,,,,,,,,,"[""comma""]",0,[1.3352000000477346],80,0,80,0,1,,
,,,,,,,,,,,,611e605f8acf7f120f3715e7,26,Kobieta,2022-06-11_09h13.46.672,task,2021.1.4,Win32,60.06006006,6299f149e92ead563fba08ef,62a44077d3383b198df25aac,,,,,,,,,,,,,,,,,,,,,,,,,,,,,,,,,,,,,,,,,,,,,,,,,,,,,,,,,,,,,,,,,,,,,,,,,,,,,,,,,,,,,,,,,,,,"[""comma""]",0,[1.489300000190724],81,0,81,0,1,,
,,,,,,,,,,,,611e605f8acf7f120f3715e7,26,Kobieta,2022-06-11_09h13.46.672,task,2021.1.4,Win32,60.06006006,6299f149e92ead563fba08ef,62a44077d3383b198df25aac,,,,,,,,,,,,,,,,,,,,,,,,,,,,,,,,,,,,,,,,,,,,,,,,,,,,,,,,,,,,,,,,,,,,,,,,,,,,,,,,,,,,,,,,,,,,"[""comma""]",0,[1.7831000001430084],82,0,82,0,1,,
,,,,,,,,,,,,611e605f8acf7f120f3715e7,26,Kobieta,2022-06-11_09h13.46.672,task,2021.1.4,Win32,60.06006006,6299f149e92ead563fba08ef,62a44077d3383b198df25aac,,,,,,,,,,,,,,,,,,,,,,,,,,,,,,,,,,,,,,,,,,,,,,,,,,,,,,,,,,,,,,,,,,,,,,,,,,,,,,,,,,,,,,,,,,,,"[""period""]",0,[1.2847000000476783],83,0,83,0,1,,
,,,,,,,,,,,,611e605f8acf7f120f3715e7,26,Kobieta,2022-06-11_09h13.46.672,task,2021.1.4,Win32,60.06006006,6299f149e92ead563fba08ef,62a44077d3383b198df25aac,,,,,,,,,,,,,,,,,,,,,,,,,,,,,,,,,,,,,,,,,,,,,,,,,,,,,,,,,,,,,,,,,,,,,,,,,,,,,,,,,,,,,,,,,,,,"[""comma""]",0,[1.3379000000953738],84,0,84,0,1,,
,,,,,,,,,,,,611e605f8acf7f120f3715e7,26,Kobieta,2022-06-11_09h13.46.672,task,2021.1.4,Win32,60.06006006,6299f149e92ead563fba08ef,62a44077d3383b198df25aac,,,,,,,,,,,,,,,,,,,,,,,,,,,,,,,,,,,,,,,,,,,,,,,,,,,,,,,,,,,,,,,,,,,,,,,,,,,,,,,,,,,,,,,,,,,,"[""comma""]",0,[1.4015000000000555],85,0,85,0,1,,
,,,,,,,,,,,,611e605f8acf7f120f3715e7,26,Kobieta,2022-06-11_09h13.46.672,task,2021.1.4,Win32,60.06006006,6299f149e92ead563fba08ef,62a44077d3383b198df25aac,,,,,,,,,,,,,,,,,,,,,,,,,,,,,,,,,,,,,,,,,,,,,,,,,,,,,,,,,,,,,,,,,,,,,,,,,,,,,,,,,,,,,,,,,,,,"[""period""]",0,[1.7478999998569407],86,0,86,0,1,,
,,,,,,,,,,,,611e605f8acf7f120f3715e7,26,Kobieta,2022-06-11_09h13.46.672,task,2021.1.4,Win32,60.06006006,6299f149e92ead563fba08ef,62a44077d3383b198df25aac,,,,,,,,,,,,,,,,,,,,,,,,,,,,,,,,,,,,,,,,,,,,,,,,,,,,,,,,,,,,,,,,,,,,,,,,,,,,,,,,,,,,,,,,,,,,"[""period""]",0,[1.9165000000000418],87,0,87,0,1,,
,,,,,,,,,,,,611e605f8acf7f120f3715e7,26,Kobieta,2022-06-11_09h13.46.672,task,2021.1.4,Win32,60.06006006,6299f149e92ead563fba08ef,62a44077d3383b198df25aac,,,,,,,,,,,,,,,,,,,,,,,,,,,,,,,,,,,,,,,,,,,,,,,,,,,,,,,,,,,,,,,,,,,,,,,,,,,,,,,,,,,,,,,,,,,,"[""comma""]",0,[1.4339000000953774],88,0,88,0,1,,
,,,,,,,,,,,,611e605f8acf7f120f3715e7,26,Kobieta,2022-06-11_09h13.46.672,task,2021.1.4,Win32,60.06006006,6299f149e92ead563fba08ef,62a44077d3383b198df25aac,,,,,,,,,,,,,,,,,,,,,,,,,,,,,,,,,,,,,,,,,,,,,,,,,,,,,,,,,,,,,,,,,,,,,,,,,,,,,,,,,,,,,,,,,,,,"[""comma""]",0,[1.1001999998093197],89,0,89,0,1,,
,,,,,,,,,,,,611e605f8acf7f120f3715e7,26,Kobieta,2022-06-11_09h13.46.672,task,2021.1.4,Win32,60.06006006,6299f149e92ead563fba08ef,62a44077d3383b198df25aac,,,,,,,,,,,,,,,,,,,,,,,,,,,,,,,,,,,,,,,,,,,,,,,,,,,,,,,,,,,,,,,,,,,,,,,,,,,,,,,,,,,,,,,,,,,,"[""comma""]",0,[1.4497000000476419],90,0,90,0,1,,
,,,,,,,,,,,,611e605f8acf7f120f3715e7,26,Kobieta,2022-06-11_09h13.46.672,task,2021.1.4,Win32,60.06006006,6299f149e92ead563fba08ef,62a44077d3383b198df25aac,,,,,,,,,,,,,,,,,,,,,,,,,,,,,,,,,,,,,,,,,,,,,,,,,,,,,,,,,,,,,,,,,,,,,,,,,,,,,,,,,,,,,,,,,,,,"[""period""]",0,[1.602400000095372],91,0,91,0,1,,
,,,,,,,,,,,,611e605f8acf7f120f3715e7,26,Kobieta,2022-06-11_09h13.46.672,task,2021.1.4,Win32,60.06006006,6299f149e92ead563fba08ef,62a44077d3383b198df25aac,,,,,,,,,,,,,,,,,,,,,,,,,,,,,,,,,,,,,,,,,,,,,,,,,,,,,,,,,,,,,,,,,,,,,,,,,,,,,,,,,,,,,,,,,,,,"[""period""]",0,[1.849900000095431],92,0,92,0,1,,
,,,,,,,,,,,,611e605f8acf7f120f3715e7,26,Kobieta,2022-06-11_09h13.46.672,task,2021.1.4,Win32,60.06006006,6299f149e92ead563fba08ef,62a44077d3383b198df25aac,,,,,,,,,,,,,,,,,,,,,,,,,,,,,,,,,,,,,,,,,,,,,,,,,,,,,,,,,,,,,,,,,,,,,,,,,,,,,,,,,,,,,,,,,,,,"[""period""]",0,[1.5196000001431003],93,0,93,0,1,,
,,,,,,,,,,,,611e605f8acf7f120f3715e7,26,Kobieta,2022-06-11_09h13.46.672,task,2021.1.4,Win32,60.06006006,6299f149e92ead563fba08ef,62a44077d3383b198df25aac,,,,,,,,,,,,,,,,,,,,,,,,,,,,,,,,,,,,,,,,,,,,,,,,,,,,,,,,,,,,,,,,,,,,,,,,,,,,,,,,,,,,,,,,,,,,"[""period""]",0,[1.566799999952309],94,0,94,0,1,,
,,,,,,,,,,,,611e605f8acf7f120f3715e7,26,Kobieta,2022-06-11_09h13.46.672,task,2021.1.4,Win32,60.06006006,6299f149e92ead563fba08ef,62a44077d3383b198df25aac,,,,,,,,,,,,,,,,,,,,,,,,,,,,,,,,,,,,,,,,,,,,,,,,,,,,,,,,,,,,,,,,,,,,,,,,,,,,,,,,,,,,,,,,,,,,"[""period""]",0,[1.536700000047631],95,0,95,0,1,,
,,,,,,,,,,,,611e605f8acf7f120f3715e7,26,Kobieta,2022-06-11_09h13.46.672,task,2021.1.4,Win32,60.06006006,6299f149e92ead563fba08ef,62a44077d3383b198df25aac,,,,,,,,,,,,,,,,,,,,,,,,,,,,,,,,,,,,,,,,,,,,,,,,,,,,,,,,,,,,,,,,,,,,,,,,,,,,,,,,,,,,,,,,,,,,"[""comma""]",0,[1.2510999999046817],96,0,96,0,1,,
,,,,,,,,,,,,611e605f8acf7f120f3715e7,26,Kobieta,2022-06-11_09h13.46.672,task,2021.1.4,Win32,60.06006006,6299f149e92ead563fba08ef,62a44077d3383b198df25aac,,,,,,,,,,,,,,,,,,,,,,,,,,,,,,,,,,,,,,,,,,,,,,,,,,,,,,,,,,,,,,,,,,,,,,,,,,,,,,,,,,,,,,,,,,,,"[""comma""]",0,[1.2414999999999736],97,0,97,0,1,,
,,,,,,,,,,,,611e605f8acf7f120f3715e7,26,Kobieta,2022-06-11_09h13.46.672,task,2021.1.4,Win32,60.06006006,6299f149e92ead563fba08ef,62a44077d3383b198df25aac,,,,,,,,,,,,,,,,,,,,,,,,,,,,,,,,,,,,,,,,,,,,,,,,,,,,,,,,,,,,,,,,,,,,,,,,,,,,,,,,,,,,,,,,,,,,"[""comma""]",0,[1.1704999999999472],98,0,98,0,1,,
,,,,,,,,,,,,611e605f8acf7f120f3715e7,26,Kobieta,2022-06-11_09h13.46.672,task,2021.1.4,Win32,60.06006006,6299f149e92ead563fba08ef,62a44077d3383b198df25aac,,,,,,,,,,,,,,,,,,,,,,,,,,,,,,,,,,,,,,,,,,,,,,,,,,,,,,,,,,,,,,,,,,,,,,,,,,,,,,,,,,,,,,,,,,,,"[""period""]",0,[1.6660000000000537],99,0,99,0,1,,
,,,,,,,,,,,,611e605f8acf7f120f3715e7,26,Kobieta,2022-06-11_09h13.46.672,task,2021.1.4,Win32,60.06006006,6299f149e92ead563fba08ef,62a44077d3383b198df25aac,,,,,,,,,,,,,,,,,,,,,,,,,,,,,,,,,,,,,,,,,,,,,,,,,,,,,,,,,,,,,,,,,,,,,,,,,,,,,,,,,,,,,,,,,,,,,0,,100,0,100,0,1,,
,,,,,,,,,,,,611e605f8acf7f120f3715e7,26,Kobieta,2022-06-11_09h13.46.672,task,2021.1.4,Win32,60.06006006,6299f149e92ead563fba08ef,62a44077d3383b198df25aac,,,,,,,,,,,,,,,,,,,,,,,,,,,,,,,,,,,,,,,,,,,,,,,,,,,,,,,,,,,,,,,,,,,,,,,,,,,,,,,,,,,,,,,,,,,,"[""comma"",""period""]",0,"[0.21699999999998454,1.2999000000953629]",101,0,101,0,1,,
,,,,,,,,,,,,611e605f8acf7f120f3715e7,26,Kobieta,2022-06-11_09h13.46.672,task,2021.1.4,Win32,60.06006006,6299f149e92ead563fba08ef,62a44077d3383b198df25aac,,,,,,,,,,,,,,,,,,,,,,,,,,,,,,,,,,,,,,,,,,,,,,,,,,,,,,,,,,,,,,,,,,,,,,,,,,,,,,,,,,,,,,,,,,,,"[""comma""]",0,[1.8845999999045944],102,0,102,0,1,,
,,,,,,,,,,,,611e605f8acf7f120f3715e7,26,Kobieta,2022-06-11_09h13.46.672,task,2021.1.4,Win32,60.06006006,6299f149e92ead563fba08ef,62a44077d3383b198df25aac,,,,,,,,,,,,,,,,,,,,,,,,,,,,,,,,,,,,,,,,,,,,,,,,,,,,,,,,,,,,,,,,,,,,,,,,,,,,,,,,,,,,,,,,,,,,,0,,103,0,103,0,1,,
,,,,,,,,,,,,611e605f8acf7f120f3715e7,26,Kobieta,2022-06-11_09h13.46.672,task,2021.1.4,Win32,60.06006006,6299f149e92ead563fba08ef,62a44077d3383b198df25aac,,,,,,,,,,,,,,,,,,,,,,,,,,,,,,,,,,,,,,,,,,,,,,,,,,,,,,,,,,,,,,,,,,,,,,,,,,,,,,,,,,,,,,,,,,,,"[""period""]",0,[0.08379999995236176],104,0,104,0,1,,
,,,,,,,,,,,,611e605f8acf7f120f3715e7,26,Kobieta,2022-06-11_09h13.46.672,task,2021.1.4,Win32,60.06006006,6299f149e92ead563fba08ef,62a44077d3383b198df25aac,,,,,,,,,,,,,,,,,,,,,,,,,,,,,,,,,,,,,,,,,,,,,,,,,,,,,,,,,,,,,,,,,,,,,,,,,,,,,,,,,,,,,,,,,,,,"[""comma""]",0,[0.1510000000000673],105,0,105,0,1,,
,,,,,,,,,,,,611e605f8acf7f120f3715e7,26,Kobieta,2022-06-11_09h13.46.672,task,2021.1.4,Win32,60.06006006,6299f149e92ead563fba08ef,62a44077d3383b198df25aac,,,,,,,,,,,,,,,,,,,,,,,,,,,,,,,,,,,,,,,,,,,,,,,,,,,,,,,,,,,,,,,,,,,,,,,,,,,,,,,,,,,,,,,,,,,,"[""period"",""comma""]",0,"[0.2669000000953474,1.882600000143043]",106,0,106,0,1,,
,,,,,,,,,,,,611e605f8acf7f120f3715e7,26,Kobieta,2022-06-11_09h13.46.672,task,2021.1.4,Win32,60.06006006,6299f149e92ead563fba08ef,62a44077d3383b198df25aac,,,,,,,,,,,,,,,,,,,,,,,,,,,,,,,,,,,,,,,,,,,,,,,,,,,,,,,,,,,,,,,,,,,,,,,,,,,,,,,,,,,,,,,,,,,,"[""period""]",0,[1.7672000000476373],107,0,107,0,1,,
,,,,,,,,,,,,611e605f8acf7f120f3715e7,26,Kobieta,2022-06-11_09h13.46.672,task,2021.1.4,Win32,60.06006006,6299f149e92ead563fba08ef,62a44077d3383b198df25aac,,,,,,,,,,,,,,,,,,,,,,,,,,,,,,,,,,,,,,,,,,,,,,,,,,,,,,,,,,,,,,,,,,,,,,,,,,,,,,,,,,,,,,,,,,,,"[""comma""]",0,[1.7410999999046908],108,0,108,0,1,,
,,,,,,,,,,,,611e605f8acf7f120f3715e7,26,Kobieta,2022-06-11_09h13.46.672,task,2021.1.4,Win32,60.06006006,6299f149e92ead563fba08ef,62a44077d3383b198df25aac,,,,,,,,,,,,,,,,,,,,,,,,,,,,,,,,,,,,,,,,,,,,,,,,,,,,,,,,,,,,,,,,,,,,,,,,,,,,,,,,,,,,,,,,,,,,"[""comma""]",0,[1.7826999998092106],109,0,109,0,1,,
,,,,,,,,,,,,611e605f8acf7f120f3715e7,26,Kobieta,2022-06-11_09h13.46.672,task,2021.1.4,Win32,60.06006006,6299f149e92ead563fba08ef,62a44077d3383b198df25aac,,,,,,,,,,,,,,,,,,,,,,,,,,,,,,,,,,,,,,,,,,,,,,,,,,,,,,,,,,,,,,,,,,,,,,,,,,,,,,,,,,,,,,,,,,,,"[""period""]",0,[1.7999999999999545],110,0,110,0,1,,
,,,,,,,,,,,,611e605f8acf7f120f3715e7,26,Kobieta,2022-06-11_09h13.46.672,task,2021.1.4,Win32,60.06006006,6299f149e92ead563fba08ef,62a44077d3383b198df25aac,,,,,,,,,,,,,,,,,,,,,,,,,,,,,,,,,,,,,,,,,,,,,,,,,,,,,,,,,,,,,,,,,,,,,,,,,,,,,,,,,,,,,,,,,,,,"[""comma""]",0,[1.7160999999045998],111,0,111,0,1,,
,,,,,,,,,,,,611e605f8acf7f120f3715e7,26,Kobieta,2022-06-11_09h13.46.672,task,2021.1.4,Win32,60.06006006,6299f149e92ead563fba08ef,62a44077d3383b198df25aac,,,,,,,,,,,,,,,,,,,,,,,,,,,,,,,,,,,,,,,,,,,,,,,,,,,,,,,,,,,,,,,,,,,,,,,,,,,,,,,,,,,,,,,,,,,,"[""period""]",0,[1.7553999998569907],112,0,112,0,1,,
,,,,,,,,,,,,611e605f8acf7f120f3715e7,26,Kobieta,2022-06-11_09h13.46.672,task,2021.1.4,Win32,60.06006006,6299f149e92ead563fba08ef,62a44077d3383b198df25aac,,,,,,,,,,,,,,,,,,,,,,,,,,,,,,,,,,,,,,,,,,,,,,,,,,,,,,,,,,,,,,,,,,,,,,,,,,,,,,,,,,,,,,,,,,,,"[""comma""]",0,[1.8220000000000027],113,0,113,0,1,,
,,,,,,,,,,,,611e605f8acf7f120f3715e7,26,Kobieta,2022-06-11_09h13.46.672,task,2021.1.4,Win32,60.06006006,6299f149e92ead563fba08ef,62a44077d3383b198df25aac,,,,,,,,,,,,,,,,,,,,,,,,,,,,,,,,,,,,,,,,,,,,,,,,,,,,,,,,,,,,,,,,,,,,,,,,,,,,,,,,,,,,,,,,,,,,"[""period""]",0,[1.8355000000000246],114,0,114,0,1,,
,,,,,,,,,,,,611e605f8acf7f120f3715e7,26,Kobieta,2022-06-11_09h13.46.672,task,2021.1.4,Win32,60.06006006,6299f149e92ead563fba08ef,62a44077d3383b198df25aac,,,,,,,,,,,,,,,,,,,,,,,,,,,,,,,,,,,,,,,,,,,,,,,,,,,,,,,,,,,,,,,,,,,,,,,,,,,,,,,,,,,,,,,,,,,,"[""comma""]",0,[1.766099999904668],115,0,115,0,1,,
,,,,,,,,,,,,611e605f8acf7f120f3715e7,26,Kobieta,2022-06-11_09h13.46.672,task,2021.1.4,Win32,60.06006006,6299f149e92ead563fba08ef,62a44077d3383b198df25aac,,,,,,,,,,,,,,,,,,,,,,,,,,,,,,,,,,,,,,,,,,,,,,,,,,,,,,,,,,,,,,,,,,,,,,,,,,,,,,,,,,,,,,,,,,,,"[""period""]",0,[1.625799999952278],116,0,116,0,1,,
,,,,,,,,,,,,611e605f8acf7f120f3715e7,26,Kobieta,2022-06-11_09h13.46.672,task,2021.1.4,Win32,60.06006006,6299f149e92ead563fba08ef,62a44077d3383b198df25aac,,,,,,,,,,,,,,,,,,,,,,,,,,,,,,,,,,,,,,,,,,,,,,,,,,,,,,,,,,,,,,,,,,,,,,,,,,,,,,,,,,,,,,,,,,,,"[""period""]",0,[1.4501000001430384],117,0,117,0,1,,
,,,,,,,,,,,,611e605f8acf7f120f3715e7,26,Kobieta,2022-06-11_09h13.46.672,task,2021.1.4,Win32,60.06006006,6299f149e92ead563fba08ef,62a44077d3383b198df25aac,,,,,,,,,,,,,,,,,,,,,,,,,,,,,,,,,,,,,,,,,,,,,,,,,,,,,,,,,,,,,,,,,,,,,,,,,,,,,,,,,,,,,,,,,,,,"[""comma""]",0,[1.7005999999046253],118,0,118,0,1,,
,,,,,,,,,,,,611e605f8acf7f120f3715e7,26,Kobieta,2022-06-11_09h13.46.672,task,2021.1.4,Win32,60.06006006,6299f149e92ead563fba08ef,62a44077d3383b198df25aac,,,,,,,,,,,,,,,,,,,,,,,,,,,,,,,,,,,,,,,,,,,,,,,,,,,,,,,,,,,,,,,,,,,,,,,,,,,,,,,,,,,,,,,,,,,,"[""comma""]",0,[1.4097000000476783],119,0,119,0,1,,
,,,,,,,,,,,,611e605f8acf7f120f3715e7,26,Kobieta,2022-06-11_09h13.46.672,task,2021.1.4,Win32,60.06006006,6299f149e92ead563fba08ef,62a44077d3383b198df25aac,,,,,,,,,,,,,,,,,,,,,,,,,,,,,,,,,,,,,,,,,,,,,,,,,,,,,,,,,,,,,,,,,,,,,,,,,,,,,,,,,,,,,,,,,,,,,,,,,,,,space,1.3706
