key_resp_15.keys,key_resp_15.rt,key_resp_13.keys,key_resp_13.corr,ranodm_loop.thisRepN,ranodm_loop.thisTrialN,ranodm_loop.thisN,ranodm_loop.thisIndex,ranodm_loop.ran,participant,Wiek*,Płeć,date,expName,psychopyVersion,OS,frameRate,study_id,session,key_resp_13.rt,key_resp_16.keys,key_resp_16.rt,key_resp_4.keys,key_resp_4.rt,next_letter.thisRepN,next_letter.thisTrialN,next_letter.thisN,next_letter.thisIndex,next_letter.ran,letter,simple_recall,key_resp_5.keys,key_resp_5.rt,simple_recall_corr,simple_recall_corrkeys,next_level.thisRepN,next_level.thisTrialN,next_level.thisN,next_level.thisIndex,next_level.ran,key_resp_2.keys,key_resp_2.rt,digit_answer,key_resp.keys,key_resp.corr,key_resp.rt,RT_list,next_equation.thisRepN,next_equation.thisTrialN,next_equation.thisN,next_equation.thisIndex,next_equation.ran,Task,Trial,Problem,Operation_answer,processing_score,sumRT,meanRT,sumdiff,sd,RT,key_resp_3.keys,key_resp_3.rt,repeat_practice.thisRepN,repeat_practice.thisTrialN,repeat_practice.thisN,repeat_practice.thisIndex,repeat_practice.ran,key_resp_6.keys,key_resp_6.rt,key_resp_11.keys,key_resp_11.corr,key_resp_11.rt,operation_correct,repeat_if_wrong_prac.thisRepN,repeat_if_wrong_prac.thisTrialN,repeat_if_wrong_prac.thisN,repeat_if_wrong_prac.thisIndex,repeat_if_wrong_prac.ran,span_size_prac.thisRepN,span_size_prac.thisTrialN,span_size_prac.thisN,span_size_prac.thisIndex,span_size_prac.ran,complex_recall_practice,key_resp_9.keys,key_resp_9.corr,key_resp_9.rt,complex_prac_corr,span_recall_prac.thisRepN,span_recall_prac.thisTrialN,span_recall_prac.thisN,span_recall_prac.thisIndex,span_recall_prac.ran,key_resp_10.keys,key_resp_10.rt,key_resp_7.keys,key_resp_7.corr,key_resp_7.rt,repeat_if_wrong.thisRepN,repeat_if_wrong.thisTrialN,repeat_if_wrong.thisN,repeat_if_wrong.thisIndex,repeat_if_wrong.ran,span_size.thisRepN,span_size.thisTrialN,span_size.thisN,span_size.thisIndex,span_size.ran,complex_recall,key_resp_8.keys,key_resp_8.corr,key_resp_8.rt,complex_recall_corr,complex_recall_corrkeys,span_recall.thisRepN,span_recall.thisTrialN,span_recall.thisN,span_recall.thisIndex,span_recall.ran,key_resp_12.keys,key_resp_12.rt
space,37.8115,,0,0,0,0,0,1,612168de1ee9816a0d4503dc,31,Kobieta,2022-06-04_07h21.33.531,task,2021.1.4,Win32,60.15399423,628b806c463b948bc644b84f,629af946664fff11cecd2423,,,,,,,,,,,,,,,,,,,,,,,,,,,,,,,,,,,,,,,,,,,,,,,,,,,,,,,,,,,,,,,,,,,,,,,,,,,,,,,,,,,,,,,,,,,,,,,,,,,,,,,,
,,,0,1,0,1,0,1,612168de1ee9816a0d4503dc,31,Kobieta,2022-06-04_07h21.33.531,task,2021.1.4,Win32,60.15399423,628b806c463b948bc644b84f,629af946664fff11cecd2423,,,,,,,,,,,,,,,,,,,,,,,,,,,,,,,,,,,,,,,,,,,,,,,,,,,,,,,,,,,,,,,,,,,,,,,,,,,,,,,,,,,,,,,,,,,,,,,,,,,,,,,,
,,"[""comma"",""comma""]",0,2,0,2,0,1,612168de1ee9816a0d4503dc,31,Kobieta,2022-06-04_07h21.33.531,task,2021.1.4,Win32,60.15399423,628b806c463b948bc644b84f,629af946664fff11cecd2423,"[0.34969999998807566,1.3886000000238425]",,,,,,,,,,,,,,,,,,,,,,,,,,,,,,,,,,,,,,,,,,,,,,,,,,,,,,,,,,,,,,,,,,,,,,,,,,,,,,,,,,,,,,,,,,,,,,,,,,,,,,,
,,"[""comma""]",0,3,0,3,0,1,612168de1ee9816a0d4503dc,31,Kobieta,2022-06-04_07h21.33.531,task,2021.1.4,Win32,60.15399423,628b806c463b948bc644b84f,629af946664fff11cecd2423,[1.304800000011923],,,,,,,,,,,,,,,,,,,,,,,,,,,,,,,,,,,,,,,,,,,,,,,,,,,,,,,,,,,,,,,,,,,,,,,,,,,,,,,,,,,,,,,,,,,,,,,,,,,,,,,
,,"[""comma""]",0,4,0,4,0,1,612168de1ee9816a0d4503dc,31,Kobieta,2022-06-04_07h21.33.531,task,2021.1.4,Win32,60.15399423,628b806c463b948bc644b84f,629af946664fff11cecd2423,[1.1313999999761535],,,,,,,,,,,,,,,,,,,,,,,,,,,,,,,,,,,,,,,,,,,,,,,,,,,,,,,,,,,,,,,,,,,,,,,,,,,,,,,,,,,,,,,,,,,,,,,,,,,,,,,
,,"[""comma""]",0,5,0,5,0,1,612168de1ee9816a0d4503dc,31,Kobieta,2022-06-04_07h21.33.531,task,2021.1.4,Win32,60.15399423,628b806c463b948bc644b84f,629af946664fff11cecd2423,[0.3774999999999977],,,,,,,,,,,,,,,,,,,,,,,,,,,,,,,,,,,,,,,,,,,,,,,,,,,,,,,,,,,,,,,,,,,,,,,,,,,,,,,,,,,,,,,,,,,,,,,,,,,,,,,
,,"[""comma"",""comma""]",0,6,0,6,0,1,612168de1ee9816a0d4503dc,31,Kobieta,2022-06-04_07h21.33.531,task,2021.1.4,Win32,60.15399423,628b806c463b948bc644b84f,629af946664fff11cecd2423,"[0.08419999998808692,1.4810000000000088]",,,,,,,,,,,,,,,,,,,,,,,,,,,,,,,,,,,,,,,,,,,,,,,,,,,,,,,,,,,,,,,,,,,,,,,,,,,,,,,,,,,,,,,,,,,,,,,,,,,,,,,
,,"[""comma""]",0,7,0,7,0,1,612168de1ee9816a0d4503dc,31,Kobieta,2022-06-04_07h21.33.531,task,2021.1.4,Win32,60.15399423,628b806c463b948bc644b84f,629af946664fff11cecd2423,[1.1638000000119177],,,,,,,,,,,,,,,,,,,,,,,,,,,,,,,,,,,,,,,,,,,,,,,,,,,,,,,,,,,,,,,,,,,,,,,,,,,,,,,,,,,,,,,,,,,,,,,,,,,,,,,
,,"[""period""]",0,8,0,8,0,1,612168de1ee9816a0d4503dc,31,Kobieta,2022-06-04_07h21.33.531,task,2021.1.4,Win32,60.15399423,628b806c463b948bc644b84f,629af946664fff11cecd2423,[1.0476000000238344],,,,,,,,,,,,,,,,,,,,,,,,,,,,,,,,,,,,,,,,,,,,,,,,,,,,,,,,,,,,,,,,,,,,,,,,,,,,,,,,,,,,,,,,,,,,,,,,,,,,,,,
,,"[""period""]",0,9,0,9,0,1,612168de1ee9816a0d4503dc,31,Kobieta,2022-06-04_07h21.33.531,task,2021.1.4,Win32,60.15399423,628b806c463b948bc644b84f,629af946664fff11cecd2423,[1.119800000011935],,,,,,,,,,,,,,,,,,,,,,,,,,,,,,,,,,,,,,,,,,,,,,,,,,,,,,,,,,,,,,,,,,,,,,,,,,,,,,,,,,,,,,,,,,,,,,,,,,,,,,,
,,"[""period""]",0,10,0,10,0,1,612168de1ee9816a0d4503dc,31,Kobieta,2022-06-04_07h21.33.531,task,2021.1.4,Win32,60.15399423,628b806c463b948bc644b84f,629af946664fff11cecd2423,[0.9979000000357701],,,,,,,,,,,,,,,,,,,,,,,,,,,,,,,,,,,,,,,,,,,,,,,,,,,,,,,,,,,,,,,,,,,,,,,,,,,,,,,,,,,,,,,,,,,,,,,,,,,,,,,
,,"[""period""]",0,11,0,11,0,1,612168de1ee9816a0d4503dc,31,Kobieta,2022-06-04_07h21.33.531,task,2021.1.4,Win32,60.15399423,628b806c463b948bc644b84f,629af946664fff11cecd2423,[0.6351999999880888],,,,,,,,,,,,,,,,,,,,,,,,,,,,,,,,,,,,,,,,,,,,,,,,,,,,,,,,,,,,,,,,,,,,,,,,,,,,,,,,,,,,,,,,,,,,,,,,,,,,,,,
,,"[""period""]",0,12,0,12,0,1,612168de1ee9816a0d4503dc,31,Kobieta,2022-06-04_07h21.33.531,task,2021.1.4,Win32,60.15399423,628b806c463b948bc644b84f,629af946664fff11cecd2423,[1.052799999952299],,,,,,,,,,,,,,,,,,,,,,,,,,,,,,,,,,,,,,,,,,,,,,,,,,,,,,,,,,,,,,,,,,,,,,,,,,,,,,,,,,,,,,,,,,,,,,,,,,,,,,,
,,"[""period""]",0,13,0,13,0,1,612168de1ee9816a0d4503dc,31,Kobieta,2022-06-04_07h21.33.531,task,2021.1.4,Win32,60.15399423,628b806c463b948bc644b84f,629af946664fff11cecd2423,[1.0643000000119116],,,,,,,,,,,,,,,,,,,,,,,,,,,,,,,,,,,,,,,,,,,,,,,,,,,,,,,,,,,,,,,,,,,,,,,,,,,,,,,,,,,,,,,,,,,,,,,,,,,,,,,
,,"[""period""]",0,14,0,14,0,1,612168de1ee9816a0d4503dc,31,Kobieta,2022-06-04_07h21.33.531,task,2021.1.4,Win32,60.15399423,628b806c463b948bc644b84f,629af946664fff11cecd2423,[1.022500000000008],,,,,,,,,,,,,,,,,,,,,,,,,,,,,,,,,,,,,,,,,,,,,,,,,,,,,,,,,,,,,,,,,,,,,,,,,,,,,,,,,,,,,,,,,,,,,,,,,,,,,,,
,,"[""comma""]",0,15,0,15,0,1,612168de1ee9816a0d4503dc,31,Kobieta,2022-06-04_07h21.33.531,task,2021.1.4,Win32,60.15399423,628b806c463b948bc644b84f,629af946664fff11cecd2423,[0.8486999999880709],,,,,,,,,,,,,,,,,,,,,,,,,,,,,,,,,,,,,,,,,,,,,,,,,,,,,,,,,,,,,,,,,,,,,,,,,,,,,,,,,,,,,,,,,,,,,,,,,,,,,,,
,,"[""comma""]",0,16,0,16,0,1,612168de1ee9816a0d4503dc,31,Kobieta,2022-06-04_07h21.33.531,task,2021.1.4,Win32,60.15399423,628b806c463b948bc644b84f,629af946664fff11cecd2423,[1.0805999999642495],,,,,,,,,,,,,,,,,,,,,,,,,,,,,,,,,,,,,,,,,,,,,,,,,,,,,,,,,,,,,,,,,,,,,,,,,,,,,,,,,,,,,,,,,,,,,,,,,,,,,,,
,,"[""comma""]",0,17,0,17,0,1,612168de1ee9816a0d4503dc,31,Kobieta,2022-06-04_07h21.33.531,task,2021.1.4,Win32,60.15399423,628b806c463b948bc644b84f,629af946664fff11cecd2423,[0.8333999999761375],,,,,,,,,,,,,,,,,,,,,,,,,,,,,,,,,,,,,,,,,,,,,,,,,,,,,,,,,,,,,,,,,,,,,,,,,,,,,,,,,,,,,,,,,,,,,,,,,,,,,,,
,,"[""comma"",""comma""]",0,18,0,18,0,1,612168de1ee9816a0d4503dc,31,Kobieta,2022-06-04_07h21.33.531,task,2021.1.4,Win32,60.15399423,628b806c463b948bc644b84f,629af946664fff11cecd2423,"[0.9819000000357505,1.2466000000238182]",,,,,,,,,,,,,,,,,,,,,,,,,,,,,,,,,,,,,,,,,,,,,,,,,,,,,,,,,,,,,,,,,,,,,,,,,,,,,,,,,,,,,,,,,,,,,,,,,,,,,,,
,,"[""comma""]",0,19,0,19,0,1,612168de1ee9816a0d4503dc,31,Kobieta,2022-06-04_07h21.33.531,task,2021.1.4,Win32,60.15399423,628b806c463b948bc644b84f,629af946664fff11cecd2423,[0.8816999999880579],,,,,,,,,,,,,,,,,,,,,,,,,,,,,,,,,,,,,,,,,,,,,,,,,,,,,,,,,,,,,,,,,,,,,,,,,,,,,,,,,,,,,,,,,,,,,,,,,,,,,,,
,,"[""comma""]",0,20,0,20,0,1,612168de1ee9816a0d4503dc,31,Kobieta,2022-06-04_07h21.33.531,task,2021.1.4,Win32,60.15399423,628b806c463b948bc644b84f,629af946664fff11cecd2423,[0.9193999999761786],,,,,,,,,,,,,,,,,,,,,,,,,,,,,,,,,,,,,,,,,,,,,,,,,,,,,,,,,,,,,,,,,,,,,,,,,,,,,,,,,,,,,,,,,,,,,,,,,,,,,,,
,,"[""comma""]",0,21,0,21,0,1,612168de1ee9816a0d4503dc,31,Kobieta,2022-06-04_07h21.33.531,task,2021.1.4,Win32,60.15399423,628b806c463b948bc644b84f,629af946664fff11cecd2423,[0.7657000000477012],,,,,,,,,,,,,,,,,,,,,,,,,,,,,,,,,,,,,,,,,,,,,,,,,,,,,,,,,,,,,,,,,,,,,,,,,,,,,,,,,,,,,,,,,,,,,,,,,,,,,,,
,,"[""comma""]",0,22,0,22,0,1,612168de1ee9816a0d4503dc,31,Kobieta,2022-06-04_07h21.33.531,task,2021.1.4,Win32,60.15399423,628b806c463b948bc644b84f,629af946664fff11cecd2423,[1.3464999999999918],,,,,,,,,,,,,,,,,,,,,,,,,,,,,,,,,,,,,,,,,,,,,,,,,,,,,,,,,,,,,,,,,,,,,,,,,,,,,,,,,,,,,,,,,,,,,,,,,,,,,,,
,,"[""period""]",0,23,0,23,0,1,612168de1ee9816a0d4503dc,31,Kobieta,2022-06-04_07h21.33.531,task,2021.1.4,Win32,60.15399423,628b806c463b948bc644b84f,629af946664fff11cecd2423,[1.068000000000012],,,,,,,,,,,,,,,,,,,,,,,,,,,,,,,,,,,,,,,,,,,,,,,,,,,,,,,,,,,,,,,,,,,,,,,,,,,,,,,,,,,,,,,,,,,,,,,,,,,,,,,
,,"[""comma""]",0,24,0,24,0,1,612168de1ee9816a0d4503dc,31,Kobieta,2022-06-04_07h21.33.531,task,2021.1.4,Win32,60.15399423,628b806c463b948bc644b84f,629af946664fff11cecd2423,[0.9808999999761738],,,,,,,,,,,,,,,,,,,,,,,,,,,,,,,,,,,,,,,,,,,,,,,,,,,,,,,,,,,,,,,,,,,,,,,,,,,,,,,,,,,,,,,,,,,,,,,,,,,,,,,
,,"[""period""]",0,25,0,25,0,1,612168de1ee9816a0d4503dc,31,Kobieta,2022-06-04_07h21.33.531,task,2021.1.4,Win32,60.15399423,628b806c463b948bc644b84f,629af946664fff11cecd2423,[0.7216999999880898],,,,,,,,,,,,,,,,,,,,,,,,,,,,,,,,,,,,,,,,,,,,,,,,,,,,,,,,,,,,,,,,,,,,,,,,,,,,,,,,,,,,,,,,,,,,,,,,,,,,,,,
,,"[""comma""]",0,26,0,26,0,1,612168de1ee9816a0d4503dc,31,Kobieta,2022-06-04_07h21.33.531,task,2021.1.4,Win32,60.15399423,628b806c463b948bc644b84f,629af946664fff11cecd2423,[0.5368000000119082],,,,,,,,,,,,,,,,,,,,,,,,,,,,,,,,,,,,,,,,,,,,,,,,,,,,,,,,,,,,,,,,,,,,,,,,,,,,,,,,,,,,,,,,,,,,,,,,,,,,,,,
,,"[""period""]",0,27,0,27,0,1,612168de1ee9816a0d4503dc,31,Kobieta,2022-06-04_07h21.33.531,task,2021.1.4,Win32,60.15399423,628b806c463b948bc644b84f,629af946664fff11cecd2423,[0.35220000004770213],,,,,,,,,,,,,,,,,,,,,,,,,,,,,,,,,,,,,,,,,,,,,,,,,,,,,,,,,,,,,,,,,,,,,,,,,,,,,,,,,,,,,,,,,,,,,,,,,,,,,,,
,,"[""comma""]",0,28,0,28,0,1,612168de1ee9816a0d4503dc,31,Kobieta,2022-06-04_07h21.33.531,task,2021.1.4,Win32,60.15399423,628b806c463b948bc644b84f,629af946664fff11cecd2423,[0.2849000000357762],,,,,,,,,,,,,,,,,,,,,,,,,,,,,,,,,,,,,,,,,,,,,,,,,,,,,,,,,,,,,,,,,,,,,,,,,,,,,,,,,,,,,,,,,,,,,,,,,,,,,,,
,,"[""period""]",0,29,0,29,0,1,612168de1ee9816a0d4503dc,31,Kobieta,2022-06-04_07h21.33.531,task,2021.1.4,Win32,60.15399423,628b806c463b948bc644b84f,629af946664fff11cecd2423,[0.16780000001193685],,,,,,,,,,,,,,,,,,,,,,,,,,,,,,,,,,,,,,,,,,,,,,,,,,,,,,,,,,,,,,,,,,,,,,,,,,,,,,,,,,,,,,,,,,,,,,,,,,,,,,,
,,"[""period""]",0,30,0,30,0,1,612168de1ee9816a0d4503dc,31,Kobieta,2022-06-04_07h21.33.531,task,2021.1.4,Win32,60.15399423,628b806c463b948bc644b84f,629af946664fff11cecd2423,[0.017599999964232893],,,,,,,,,,,,,,,,,,,,,,,,,,,,,,,,,,,,,,,,,,,,,,,,,,,,,,,,,,,,,,,,,,,,,,,,,,,,,,,,,,,,,,,,,,,,,,,,,,,,,,,
,,"[""period""]",0,31,0,31,0,1,612168de1ee9816a0d4503dc,31,Kobieta,2022-06-04_07h21.33.531,task,2021.1.4,Win32,60.15399423,628b806c463b948bc644b84f,629af946664fff11cecd2423,[0.2663999999761586],,,,,,,,,,,,,,,,,,,,,,,,,,,,,,,,,,,,,,,,,,,,,,,,,,,,,,,,,,,,,,,,,,,,,,,,,,,,,,,,,,,,,,,,,,,,,,,,,,,,,,,
,,"[""period""]",0,32,0,32,0,1,612168de1ee9816a0d4503dc,31,Kobieta,2022-06-04_07h21.33.531,task,2021.1.4,Win32,60.15399423,628b806c463b948bc644b84f,629af946664fff11cecd2423,[0.05109999996423653],,,,,,,,,,,,,,,,,,,,,,,,,,,,,,,,,,,,,,,,,,,,,,,,,,,,,,,,,,,,,,,,,,,,,,,,,,,,,,,,,,,,,,,,,,,,,,,,,,,,,,,
,,"[""period""]",0,33,0,33,0,1,612168de1ee9816a0d4503dc,31,Kobieta,2022-06-04_07h21.33.531,task,2021.1.4,Win32,60.15399423,628b806c463b948bc644b84f,629af946664fff11cecd2423,[0.3166999999880886],,,,,,,,,,,,,,,,,,,,,,,,,,,,,,,,,,,,,,,,,,,,,,,,,,,,,,,,,,,,,,,,,,,,,,,,,,,,,,,,,,,,,,,,,,,,,,,,,,,,,,,
,,"[""period""]",0,34,0,34,0,1,612168de1ee9816a0d4503dc,31,Kobieta,2022-06-04_07h21.33.531,task,2021.1.4,Win32,60.15399423,628b806c463b948bc644b84f,629af946664fff11cecd2423,[1.2464999999999975],,,,,,,,,,,,,,,,,,,,,,,,,,,,,,,,,,,,,,,,,,,,,,,,,,,,,,,,,,,,,,,,,,,,,,,,,,,,,,,,,,,,,,,,,,,,,,,,,,,,,,,
,,"[""period""]",0,35,0,35,0,1,612168de1ee9816a0d4503dc,31,Kobieta,2022-06-04_07h21.33.531,task,2021.1.4,Win32,60.15399423,628b806c463b948bc644b84f,629af946664fff11cecd2423,[1.140899999976142],,,,,,,,,,,,,,,,,,,,,,,,,,,,,,,,,,,,,,,,,,,,,,,,,,,,,,,,,,,,,,,,,,,,,,,,,,,,,,,,,,,,,,,,,,,,,,,,,,,,,,,
,,"[""comma""]",0,36,0,36,0,1,612168de1ee9816a0d4503dc,31,Kobieta,2022-06-04_07h21.33.531,task,2021.1.4,Win32,60.15399423,628b806c463b948bc644b84f,629af946664fff11cecd2423,[1.1011999999880686],,,,,,,,,,,,,,,,,,,,,,,,,,,,,,,,,,,,,,,,,,,,,,,,,,,,,,,,,,,,,,,,,,,,,,,,,,,,,,,,,,,,,,,,,,,,,,,,,,,,,,,
,,"[""comma""]",0,37,0,37,0,1,612168de1ee9816a0d4503dc,31,Kobieta,2022-06-04_07h21.33.531,task,2021.1.4,Win32,60.15399423,628b806c463b948bc644b84f,629af946664fff11cecd2423,[1.100500000000011],,,,,,,,,,,,,,,,,,,,,,,,,,,,,,,,,,,,,,,,,,,,,,,,,,,,,,,,,,,,,,,,,,,,,,,,,,,,,,,,,,,,,,,,,,,,,,,,,,,,,,,
,,"[""comma""]",0,38,0,38,0,1,612168de1ee9816a0d4503dc,31,Kobieta,2022-06-04_07h21.33.531,task,2021.1.4,Win32,60.15399423,628b806c463b948bc644b84f,629af946664fff11cecd2423,[0.9311999999880811],,,,,,,,,,,,,,,,,,,,,,,,,,,,,,,,,,,,,,,,,,,,,,,,,,,,,,,,,,,,,,,,,,,,,,,,,,,,,,,,,,,,,,,,,,,,,,,,,,,,,,,
,,"[""comma""]",0,39,0,39,0,1,612168de1ee9816a0d4503dc,31,Kobieta,2022-06-04_07h21.33.531,task,2021.1.4,Win32,60.15399423,628b806c463b948bc644b84f,629af946664fff11cecd2423,[0.8505999999642313],,,,,,,,,,,,,,,,,,,,,,,,,,,,,,,,,,,,,,,,,,,,,,,,,,,,,,,,,,,,,,,,,,,,,,,,,,,,,,,,,,,,,,,,,,,,,,,,,,,,,,,
,,"[""comma""]",0,40,0,40,0,1,612168de1ee9816a0d4503dc,31,Kobieta,2022-06-04_07h21.33.531,task,2021.1.4,Win32,60.15399423,628b806c463b948bc644b84f,629af946664fff11cecd2423,[0.708500000000015],,,,,,,,,,,,,,,,,,,,,,,,,,,,,,,,,,,,,,,,,,,,,,,,,,,,,,,,,,,,,,,,,,,,,,,,,,,,,,,,,,,,,,,,,,,,,,,,,,,,,,,
,,"[""comma""]",0,41,0,41,0,1,612168de1ee9816a0d4503dc,31,Kobieta,2022-06-04_07h21.33.531,task,2021.1.4,Win32,60.15399423,628b806c463b948bc644b84f,629af946664fff11cecd2423,[0.7996000000238439],,,,,,,,,,,,,,,,,,,,,,,,,,,,,,,,,,,,,,,,,,,,,,,,,,,,,,,,,,,,,,,,,,,,,,,,,,,,,,,,,,,,,,,,,,,,,,,,,,,,,,,
,,"[""comma""]",0,42,0,42,0,1,612168de1ee9816a0d4503dc,31,Kobieta,2022-06-04_07h21.33.531,task,2021.1.4,Win32,60.15399423,628b806c463b948bc644b84f,629af946664fff11cecd2423,[0.7188999999761734],,,,,,,,,,,,,,,,,,,,,,,,,,,,,,,,,,,,,,,,,,,,,,,,,,,,,,,,,,,,,,,,,,,,,,,,,,,,,,,,,,,,,,,,,,,,,,,,,,,,,,,
,,"[""comma""]",0,43,0,43,0,1,612168de1ee9816a0d4503dc,31,Kobieta,2022-06-04_07h21.33.531,task,2021.1.4,Win32,60.15399423,628b806c463b948bc644b84f,629af946664fff11cecd2423,[1.0474000000357364],,,,,,,,,,,,,,,,,,,,,,,,,,,,,,,,,,,,,,,,,,,,,,,,,,,,,,,,,,,,,,,,,,,,,,,,,,,,,,,,,,,,,,,,,,,,,,,,,,,,,,,
,,"[""comma""]",0,44,0,44,0,1,612168de1ee9816a0d4503dc,31,Kobieta,2022-06-04_07h21.33.531,task,2021.1.4,Win32,60.15399423,628b806c463b948bc644b84f,629af946664fff11cecd2423,[0.9841999999880784],,,,,,,,,,,,,,,,,,,,,,,,,,,,,,,,,,,,,,,,,,,,,,,,,,,,,,,,,,,,,,,,,,,,,,,,,,,,,,,,,,,,,,,,,,,,,,,,,,,,,,,
,,"[""comma""]",0,45,0,45,0,1,612168de1ee9816a0d4503dc,31,Kobieta,2022-06-04_07h21.33.531,task,2021.1.4,Win32,60.15399423,628b806c463b948bc644b84f,629af946664fff11cecd2423,[0.8811999999880982],,,,,,,,,,,,,,,,,,,,,,,,,,,,,,,,,,,,,,,,,,,,,,,,,,,,,,,,,,,,,,,,,,,,,,,,,,,,,,,,,,,,,,,,,,,,,,,,,,,,,,,
,,"[""comma""]",0,46,0,46,0,1,612168de1ee9816a0d4503dc,31,Kobieta,2022-06-04_07h21.33.531,task,2021.1.4,Win32,60.15399423,628b806c463b948bc644b84f,629af946664fff11cecd2423,[1.097199999988078],,,,,,,,,,,,,,,,,,,,,,,,,,,,,,,,,,,,,,,,,,,,,,,,,,,,,,,,,,,,,,,,,,,,,,,,,,,,,,,,,,,,,,,,,,,,,,,,,,,,,,,
,,"[""comma""]",0,47,0,47,0,1,612168de1ee9816a0d4503dc,31,Kobieta,2022-06-04_07h21.33.531,task,2021.1.4,Win32,60.15399423,628b806c463b948bc644b84f,629af946664fff11cecd2423,[1.049099999964227],,,,,,,,,,,,,,,,,,,,,,,,,,,,,,,,,,,,,,,,,,,,,,,,,,,,,,,,,,,,,,,,,,,,,,,,,,,,,,,,,,,,,,,,,,,,,,,,,,,,,,,
,,"[""comma""]",0,48,0,48,0,1,612168de1ee9816a0d4503dc,31,Kobieta,2022-06-04_07h21.33.531,task,2021.1.4,Win32,60.15399423,628b806c463b948bc644b84f,629af946664fff11cecd2423,[1.0144000000357778],,,,,,,,,,,,,,,,,,,,,,,,,,,,,,,,,,,,,,,,,,,,,,,,,,,,,,,,,,,,,,,,,,,,,,,,,,,,,,,,,,,,,,,,,,,,,,,,,,,,,,,
,,"[""comma"",""comma""]",0,49,0,49,0,1,612168de1ee9816a0d4503dc,31,Kobieta,2022-06-04_07h21.33.531,task,2021.1.4,Win32,60.15399423,628b806c463b948bc644b84f,629af946664fff11cecd2423,"[0.6987000000476655,0.8148000000118998]",,,,,,,,,,,,,,,,,,,,,,,,,,,,,,,,,,,,,,,,,,,,,,,,,,,,,,,,,,,,,,,,,,,,,,,,,,,,,,,,,,,,,,,,,,,,,,,,,,,,,,,
,,"[""comma""]",0,50,0,50,0,1,612168de1ee9816a0d4503dc,31,Kobieta,2022-06-04_07h21.33.531,task,2021.1.4,Win32,60.15399423,628b806c463b948bc644b84f,629af946664fff11cecd2423,[0.9980999999642393],,,,,,,,,,,,,,,,,,,,,,,,,,,,,,,,,,,,,,,,,,,,,,,,,,,,,,,,,,,,,,,,,,,,,,,,,,,,,,,,,,,,,,,,,,,,,,,,,,,,,,,
,,"[""comma""]",0,51,0,51,0,1,612168de1ee9816a0d4503dc,31,Kobieta,2022-06-04_07h21.33.531,task,2021.1.4,Win32,60.15399423,628b806c463b948bc644b84f,629af946664fff11cecd2423,[0.7205000000000155],,,,,,,,,,,,,,,,,,,,,,,,,,,,,,,,,,,,,,,,,,,,,,,,,,,,,,,,,,,,,,,,,,,,,,,,,,,,,,,,,,,,,,,,,,,,,,,,,,,,,,,
,,"[""comma""]",0,52,0,52,0,1,612168de1ee9816a0d4503dc,31,Kobieta,2022-06-04_07h21.33.531,task,2021.1.4,Win32,60.15399423,628b806c463b948bc644b84f,629af946664fff11cecd2423,[0.9640999999642474],,,,,,,,,,,,,,,,,,,,,,,,,,,,,,,,,,,,,,,,,,,,,,,,,,,,,,,,,,,,,,,,,,,,,,,,,,,,,,,,,,,,,,,,,,,,,,,,,,,,,,,
,,"[""comma""]",0,53,0,53,0,1,612168de1ee9816a0d4503dc,31,Kobieta,2022-06-04_07h21.33.531,task,2021.1.4,Win32,60.15399423,628b806c463b948bc644b84f,629af946664fff11cecd2423,[0.4660000000000082],,,,,,,,,,,,,,,,,,,,,,,,,,,,,,,,,,,,,,,,,,,,,,,,,,,,,,,,,,,,,,,,,,,,,,,,,,,,,,,,,,,,,,,,,,,,,,,,,,,,,,,
,,"[""comma""]",0,54,0,54,0,1,612168de1ee9816a0d4503dc,31,Kobieta,2022-06-04_07h21.33.531,task,2021.1.4,Win32,60.15399423,628b806c463b948bc644b84f,629af946664fff11cecd2423,[0.5826999999880798],,,,,,,,,,,,,,,,,,,,,,,,,,,,,,,,,,,,,,,,,,,,,,,,,,,,,,,,,,,,,,,,,,,,,,,,,,,,,,,,,,,,,,,,,,,,,,,,,,,,,,,
,,"[""comma""]",0,55,0,55,0,1,612168de1ee9816a0d4503dc,31,Kobieta,2022-06-04_07h21.33.531,task,2021.1.4,Win32,60.15399423,628b806c463b948bc644b84f,629af946664fff11cecd2423,[0.7657000000476728],,,,,,,,,,,,,,,,,,,,,,,,,,,,,,,,,,,,,,,,,,,,,,,,,,,,,,,,,,,,,,,,,,,,,,,,,,,,,,,,,,,,,,,,,,,,,,,,,,,,,,,
,,"[""comma""]",0,56,0,56,0,1,612168de1ee9816a0d4503dc,31,Kobieta,2022-06-04_07h21.33.531,task,2021.1.4,Win32,60.15399423,628b806c463b948bc644b84f,629af946664fff11cecd2423,[1.002700000047696],,,,,,,,,,,,,,,,,,,,,,,,,,,,,,,,,,,,,,,,,,,,,,,,,,,,,,,,,,,,,,,,,,,,,,,,,,,,,,,,,,,,,,,,,,,,,,,,,,,,,,,
,,"[""comma""]",0,57,0,57,0,1,612168de1ee9816a0d4503dc,31,Kobieta,2022-06-04_07h21.33.531,task,2021.1.4,Win32,60.15399423,628b806c463b948bc644b84f,629af946664fff11cecd2423,[0.88510000002384],,,,,,,,,,,,,,,,,,,,,,,,,,,,,,,,,,,,,,,,,,,,,,,,,,,,,,,,,,,,,,,,,,,,,,,,,,,,,,,,,,,,,,,,,,,,,,,,,,,,,,,
,,"[""comma""]",0,58,0,58,0,1,612168de1ee9816a0d4503dc,31,Kobieta,2022-06-04_07h21.33.531,task,2021.1.4,Win32,60.15399423,628b806c463b948bc644b84f,629af946664fff11cecd2423,[0.8533999999761477],,,,,,,,,,,,,,,,,,,,,,,,,,,,,,,,,,,,,,,,,,,,,,,,,,,,,,,,,,,,,,,,,,,,,,,,,,,,,,,,,,,,,,,,,,,,,,,,,,,,,,,
,,"[""comma""]",0,59,0,59,0,1,612168de1ee9816a0d4503dc,31,Kobieta,2022-06-04_07h21.33.531,task,2021.1.4,Win32,60.15399423,628b806c463b948bc644b84f,629af946664fff11cecd2423,[0.8979000000357473],,,,,,,,,,,,,,,,,,,,,,,,,,,,,,,,,,,,,,,,,,,,,,,,,,,,,,,,,,,,,,,,,,,,,,,,,,,,,,,,,,,,,,,,,,,,,,,,,,,,,,,
,,"[""comma""]",0,60,0,60,0,1,612168de1ee9816a0d4503dc,31,Kobieta,2022-06-04_07h21.33.531,task,2021.1.4,Win32,60.15399423,628b806c463b948bc644b84f,629af946664fff11cecd2423,[0.7828000000119175],,,,,,,,,,,,,,,,,,,,,,,,,,,,,,,,,,,,,,,,,,,,,,,,,,,,,,,,,,,,,,,,,,,,,,,,,,,,,,,,,,,,,,,,,,,,,,,,,,,,,,,
,,"[""comma""]",0,61,0,61,0,1,612168de1ee9816a0d4503dc,31,Kobieta,2022-06-04_07h21.33.531,task,2021.1.4,Win32,60.15399423,628b806c463b948bc644b84f,629af946664fff11cecd2423,[0.9995999999642322],,,,,,,,,,,,,,,,,,,,,,,,,,,,,,,,,,,,,,,,,,,,,,,,,,,,,,,,,,,,,,,,,,,,,,,,,,,,,,,,,,,,,,,,,,,,,,,,,,,,,,,
,,"[""comma""]",0,62,0,62,0,1,612168de1ee9816a0d4503dc,31,Kobieta,2022-06-04_07h21.33.531,task,2021.1.4,Win32,60.15399423,628b806c463b948bc644b84f,629af946664fff11cecd2423,[0.9145000000000039],,,,,,,,,,,,,,,,,,,,,,,,,,,,,,,,,,,,,,,,,,,,,,,,,,,,,,,,,,,,,,,,,,,,,,,,,,,,,,,,,,,,,,,,,,,,,,,,,,,,,,,
,,"[""comma""]",0,63,0,63,0,1,612168de1ee9816a0d4503dc,31,Kobieta,2022-06-04_07h21.33.531,task,2021.1.4,Win32,60.15399423,628b806c463b948bc644b84f,629af946664fff11cecd2423,[1.0306999999880873],,,,,,,,,,,,,,,,,,,,,,,,,,,,,,,,,,,,,,,,,,,,,,,,,,,,,,,,,,,,,,,,,,,,,,,,,,,,,,,,,,,,,,,,,,,,,,,,,,,,,,,
,,"[""comma""]",0,64,0,64,0,1,612168de1ee9816a0d4503dc,31,Kobieta,2022-06-04_07h21.33.531,task,2021.1.4,Win32,60.15399423,628b806c463b948bc644b84f,629af946664fff11cecd2423,[0.9067999999523124],,,,,,,,,,,,,,,,,,,,,,,,,,,,,,,,,,,,,,,,,,,,,,,,,,,,,,,,,,,,,,,,,,,,,,,,,,,,,,,,,,,,,,,,,,,,,,,,,,,,,,,
,,"[""comma""]",0,65,0,65,0,1,612168de1ee9816a0d4503dc,31,Kobieta,2022-06-04_07h21.33.531,task,2021.1.4,Win32,60.15399423,628b806c463b948bc644b84f,629af946664fff11cecd2423,[1.0805999999642495],,,,,,,,,,,,,,,,,,,,,,,,,,,,,,,,,,,,,,,,,,,,,,,,,,,,,,,,,,,,,,,,,,,,,,,,,,,,,,,,,,,,,,,,,,,,,,,,,,,,,,,
,,"[""comma""]",0,66,0,66,0,1,612168de1ee9816a0d4503dc,31,Kobieta,2022-06-04_07h21.33.531,task,2021.1.4,Win32,60.15399423,628b806c463b948bc644b84f,629af946664fff11cecd2423,[1.0944999999999823],,,,,,,,,,,,,,,,,,,,,,,,,,,,,,,,,,,,,,,,,,,,,,,,,,,,,,,,,,,,,,,,,,,,,,,,,,,,,,,,,,,,,,,,,,,,,,,,,,,,,,,
,,"[""comma""]",0,67,0,67,0,1,612168de1ee9816a0d4503dc,31,Kobieta,2022-06-04_07h21.33.531,task,2021.1.4,Win32,60.15399423,628b806c463b948bc644b84f,629af946664fff11cecd2423,[1.0475000000000136],,,,,,,,,,,,,,,,,,,,,,,,,,,,,,,,,,,,,,,,,,,,,,,,,,,,,,,,,,,,,,,,,,,,,,,,,,,,,,,,,,,,,,,,,,,,,,,,,,,,,,,
,,"[""comma""]",0,68,0,68,0,1,612168de1ee9816a0d4503dc,31,Kobieta,2022-06-04_07h21.33.531,task,2021.1.4,Win32,60.15399423,628b806c463b948bc644b84f,629af946664fff11cecd2423,[1.0311999999880754],,,,,,,,,,,,,,,,,,,,,,,,,,,,,,,,,,,,,,,,,,,,,,,,,,,,,,,,,,,,,,,,,,,,,,,,,,,,,,,,,,,,,,,,,,,,,,,,,,,,,,,
,,"[""comma""]",0,69,0,69,0,1,612168de1ee9816a0d4503dc,31,Kobieta,2022-06-04_07h21.33.531,task,2021.1.4,Win32,60.15399423,628b806c463b948bc644b84f,629af946664fff11cecd2423,[0.8315000000000055],,,,,,,,,,,,,,,,,,,,,,,,,,,,,,,,,,,,,,,,,,,,,,,,,,,,,,,,,,,,,,,,,,,,,,,,,,,,,,,,,,,,,,,,,,,,,,,,,,,,,,,
,,"[""comma""]",0,70,0,70,0,1,612168de1ee9816a0d4503dc,31,Kobieta,2022-06-04_07h21.33.531,task,2021.1.4,Win32,60.15399423,628b806c463b948bc644b84f,629af946664fff11cecd2423,[1.0481999999880713],,,,,,,,,,,,,,,,,,,,,,,,,,,,,,,,,,,,,,,,,,,,,,,,,,,,,,,,,,,,,,,,,,,,,,,,,,,,,,,,,,,,,,,,,,,,,,,,,,,,,,,
,,"[""comma""]",0,71,0,71,0,1,612168de1ee9816a0d4503dc,31,Kobieta,2022-06-04_07h21.33.531,task,2021.1.4,Win32,60.15399423,628b806c463b948bc644b84f,629af946664fff11cecd2423,[1.097199999988078],,,,,,,,,,,,,,,,,,,,,,,,,,,,,,,,,,,,,,,,,,,,,,,,,,,,,,,,,,,,,,,,,,,,,,,,,,,,,,,,,,,,,,,,,,,,,,,,,,,,,,,
,,"[""comma""]",0,72,0,72,0,1,612168de1ee9816a0d4503dc,31,Kobieta,2022-06-04_07h21.33.531,task,2021.1.4,Win32,60.15399423,628b806c463b948bc644b84f,629af946664fff11cecd2423,[1.0306999999880873],,,,,,,,,,,,,,,,,,,,,,,,,,,,,,,,,,,,,,,,,,,,,,,,,,,,,,,,,,,,,,,,,,,,,,,,,,,,,,,,,,,,,,,,,,,,,,,,,,,,,,,
,,"[""comma""]",0,73,0,73,0,1,612168de1ee9816a0d4503dc,31,Kobieta,2022-06-04_07h21.33.531,task,2021.1.4,Win32,60.15399423,628b806c463b948bc644b84f,629af946664fff11cecd2423,[0.9568000000118957],,,,,,,,,,,,,,,,,,,,,,,,,,,,,,,,,,,,,,,,,,,,,,,,,,,,,,,,,,,,,,,,,,,,,,,,,,,,,,,,,,,,,,,,,,,,,,,,,,,,,,,
,,"[""comma""]",0,74,0,74,0,1,612168de1ee9816a0d4503dc,31,Kobieta,2022-06-04_07h21.33.531,task,2021.1.4,Win32,60.15399423,628b806c463b948bc644b84f,629af946664fff11cecd2423,[1.0531999999880384],,,,,,,,,,,,,,,,,,,,,,,,,,,,,,,,,,,,,,,,,,,,,,,,,,,,,,,,,,,,,,,,,,,,,,,,,,,,,,,,,,,,,,,,,,,,,,,,,,,,,,,
,,"[""comma""]",0,75,0,75,0,1,612168de1ee9816a0d4503dc,31,Kobieta,2022-06-04_07h21.33.531,task,2021.1.4,Win32,60.15399423,628b806c463b948bc644b84f,629af946664fff11cecd2423,[1.064199999988091],,,,,,,,,,,,,,,,,,,,,,,,,,,,,,,,,,,,,,,,,,,,,,,,,,,,,,,,,,,,,,,,,,,,,,,,,,,,,,,,,,,,,,,,,,,,,,,,,,,,,,,
,,"[""comma""]",0,76,0,76,0,1,612168de1ee9816a0d4503dc,31,Kobieta,2022-06-04_07h21.33.531,task,2021.1.4,Win32,60.15399423,628b806c463b948bc644b84f,629af946664fff11cecd2423,[0.9978000000119209],,,,,,,,,,,,,,,,,,,,,,,,,,,,,,,,,,,,,,,,,,,,,,,,,,,,,,,,,,,,,,,,,,,,,,,,,,,,,,,,,,,,,,,,,,,,,,,,,,,,,,,
,,"[""comma""]",0,77,0,77,0,1,612168de1ee9816a0d4503dc,31,Kobieta,2022-06-04_07h21.33.531,task,2021.1.4,Win32,60.15399423,628b806c463b948bc644b84f,629af946664fff11cecd2423,[1.0053999999761913],,,,,,,,,,,,,,,,,,,,,,,,,,,,,,,,,,,,,,,,,,,,,,,,,,,,,,,,,,,,,,,,,,,,,,,,,,,,,,,,,,,,,,,,,,,,,,,,,,,,,,,
,,"[""comma""]",0,78,0,78,0,1,612168de1ee9816a0d4503dc,31,Kobieta,2022-06-04_07h21.33.531,task,2021.1.4,Win32,60.15399423,628b806c463b948bc644b84f,629af946664fff11cecd2423,[0.9309000000357628],,,,,,,,,,,,,,,,,,,,,,,,,,,,,,,,,,,,,,,,,,,,,,,,,,,,,,,,,,,,,,,,,,,,,,,,,,,,,,,,,,,,,,,,,,,,,,,,,,,,,,,
,,"[""comma""]",0,79,0,79,0,1,612168de1ee9816a0d4503dc,31,Kobieta,2022-06-04_07h21.33.531,task,2021.1.4,Win32,60.15399423,628b806c463b948bc644b84f,629af946664fff11cecd2423,[0.8481000000238623],,,,,,,,,,,,,,,,,,,,,,,,,,,,,,,,,,,,,,,,,,,,,,,,,,,,,,,,,,,,,,,,,,,,,,,,,,,,,,,,,,,,,,,,,,,,,,,,,,,,,,,
,,"[""comma""]",0,80,0,80,0,1,612168de1ee9816a0d4503dc,31,Kobieta,2022-06-04_07h21.33.531,task,2021.1.4,Win32,60.15399423,628b806c463b948bc644b84f,629af946664fff11cecd2423,[1.0310999999642263],,,,,,,,,,,,,,,,,,,,,,,,,,,,,,,,,,,,,,,,,,,,,,,,,,,,,,,,,,,,,,,,,,,,,,,,,,,,,,,,,,,,,,,,,,,,,,,,,,,,,,,
,,"[""comma""]",0,81,0,81,0,1,612168de1ee9816a0d4503dc,31,Kobieta,2022-06-04_07h21.33.531,task,2021.1.4,Win32,60.15399423,628b806c463b948bc644b84f,629af946664fff11cecd2423,[0.8148000000119282],,,,,,,,,,,,,,,,,,,,,,,,,,,,,,,,,,,,,,,,,,,,,,,,,,,,,,,,,,,,,,,,,,,,,,,,,,,,,,,,,,,,,,,,,,,,,,,,,,,,,,,
,,"[""comma""]",0,82,0,82,0,1,612168de1ee9816a0d4503dc,31,Kobieta,2022-06-04_07h21.33.531,task,2021.1.4,Win32,60.15399423,628b806c463b948bc644b84f,629af946664fff11cecd2423,[1.0733000000118977],,,,,,,,,,,,,,,,,,,,,,,,,,,,,,,,,,,,,,,,,,,,,,,,,,,,,,,,,,,,,,,,,,,,,,,,,,,,,,,,,,,,,,,,,,,,,,,,,,,,,,,
,,"[""comma""]",0,83,0,83,0,1,612168de1ee9816a0d4503dc,31,Kobieta,2022-06-04_07h21.33.531,task,2021.1.4,Win32,60.15399423,628b806c463b948bc644b84f,629af946664fff11cecd2423,[1.066799999952309],,,,,,,,,,,,,,,,,,,,,,,,,,,,,,,,,,,,,,,,,,,,,,,,,,,,,,,,,,,,,,,,,,,,,,,,,,,,,,,,,,,,,,,,,,,,,,,,,,,,,,,
,,"[""comma""]",0,84,0,84,0,1,612168de1ee9816a0d4503dc,31,Kobieta,2022-06-04_07h21.33.531,task,2021.1.4,Win32,60.15399423,628b806c463b948bc644b84f,629af946664fff11cecd2423,[1.0636999999881027],,,,,,,,,,,,,,,,,,,,,,,,,,,,,,,,,,,,,,,,,,,,,,,,,,,,,,,,,,,,,,,,,,,,,,,,,,,,,,,,,,,,,,,,,,,,,,,,,,,,,,,
,,"[""comma""]",0,85,0,85,0,1,612168de1ee9816a0d4503dc,31,Kobieta,2022-06-04_07h21.33.531,task,2021.1.4,Win32,60.15399423,628b806c463b948bc644b84f,629af946664fff11cecd2423,[1.04849999999999],,,,,,,,,,,,,,,,,,,,,,,,,,,,,,,,,,,,,,,,,,,,,,,,,,,,,,,,,,,,,,,,,,,,,,,,,,,,,,,,,,,,,,,,,,,,,,,,,,,,,,,
,,"[""comma""]",0,86,0,86,0,1,612168de1ee9816a0d4503dc,31,Kobieta,2022-06-04_07h21.33.531,task,2021.1.4,Win32,60.15399423,628b806c463b948bc644b84f,629af946664fff11cecd2423,[1.0252000000476755],,,,,,,,,,,,,,,,,,,,,,,,,,,,,,,,,,,,,,,,,,,,,,,,,,,,,,,,,,,,,,,,,,,,,,,,,,,,,,,,,,,,,,,,,,,,,,,,,,,,,,,
,,"[""comma""]",0,87,0,87,0,1,612168de1ee9816a0d4503dc,31,Kobieta,2022-06-04_07h21.33.531,task,2021.1.4,Win32,60.15399423,628b806c463b948bc644b84f,629af946664fff11cecd2423,[0.9658000000119387],,,,,,,,,,,,,,,,,,,,,,,,,,,,,,,,,,,,,,,,,,,,,,,,,,,,,,,,,,,,,,,,,,,,,,,,,,,,,,,,,,,,,,,,,,,,,,,,,,,,,,,
,,"[""comma""]",0,88,0,88,0,1,612168de1ee9816a0d4503dc,31,Kobieta,2022-06-04_07h21.33.531,task,2021.1.4,Win32,60.15399423,628b806c463b948bc644b84f,629af946664fff11cecd2423,[0.9818999999761786],,,,,,,,,,,,,,,,,,,,,,,,,,,,,,,,,,,,,,,,,,,,,,,,,,,,,,,,,,,,,,,,,,,,,,,,,,,,,,,,,,,,,,,,,,,,,,,,,,,,,,,
,,"[""comma""]",0,89,0,89,0,1,612168de1ee9816a0d4503dc,31,Kobieta,2022-06-04_07h21.33.531,task,2021.1.4,Win32,60.15399423,628b806c463b948bc644b84f,629af946664fff11cecd2423,[1.0141999999880795],,,,,,,,,,,,,,,,,,,,,,,,,,,,,,,,,,,,,,,,,,,,,,,,,,,,,,,,,,,,,,,,,,,,,,,,,,,,,,,,,,,,,,,,,,,,,,,,,,,,,,,
,,"[""comma""]",0,90,0,90,0,1,612168de1ee9816a0d4503dc,31,Kobieta,2022-06-04_07h21.33.531,task,2021.1.4,Win32,60.15399423,628b806c463b948bc644b84f,629af946664fff11cecd2423,[1.01400000000001],,,,,,,,,,,,,,,,,,,,,,,,,,,,,,,,,,,,,,,,,,,,,,,,,,,,,,,,,,,,,,,,,,,,,,,,,,,,,,,,,,,,,,,,,,,,,,,,,,,,,,,
,,"[""comma""]",0,91,0,91,0,1,612168de1ee9816a0d4503dc,31,Kobieta,2022-06-04_07h21.33.531,task,2021.1.4,Win32,60.15399423,628b806c463b948bc644b84f,629af946664fff11cecd2423,[1.031000000000006],,,,,,,,,,,,,,,,,,,,,,,,,,,,,,,,,,,,,,,,,,,,,,,,,,,,,,,,,,,,,,,,,,,,,,,,,,,,,,,,,,,,,,,,,,,,,,,,,,,,,,,
,,"[""comma""]",0,92,0,92,0,1,612168de1ee9816a0d4503dc,31,Kobieta,2022-06-04_07h21.33.531,task,2021.1.4,Win32,60.15399423,628b806c463b948bc644b84f,629af946664fff11cecd2423,[1.117099999964239],,,,,,,,,,,,,,,,,,,,,,,,,,,,,,,,,,,,,,,,,,,,,,,,,,,,,,,,,,,,,,,,,,,,,,,,,,,,,,,,,,,,,,,,,,,,,,,,,,,,,,,
,,"[""comma""]",0,93,0,93,0,1,612168de1ee9816a0d4503dc,31,Kobieta,2022-06-04_07h21.33.531,task,2021.1.4,Win32,60.15399423,628b806c463b948bc644b84f,629af946664fff11cecd2423,[1.1909000000357537],,,,,,,,,,,,,,,,,,,,,,,,,,,,,,,,,,,,,,,,,,,,,,,,,,,,,,,,,,,,,,,,,,,,,,,,,,,,,,,,,,,,,,,,,,,,,,,,,,,,,,,
,,"[""comma""]",0,94,0,94,0,1,612168de1ee9816a0d4503dc,31,Kobieta,2022-06-04_07h21.33.531,task,2021.1.4,Win32,60.15399423,628b806c463b948bc644b84f,629af946664fff11cecd2423,[1.0308000000119364],,,,,,,,,,,,,,,,,,,,,,,,,,,,,,,,,,,,,,,,,,,,,,,,,,,,,,,,,,,,,,,,,,,,,,,,,,,,,,,,,,,,,,,,,,,,,,,,,,,,,,,
,,"[""comma""]",0,95,0,95,0,1,612168de1ee9816a0d4503dc,31,Kobieta,2022-06-04_07h21.33.531,task,2021.1.4,Win32,60.15399423,628b806c463b948bc644b84f,629af946664fff11cecd2423,[1.0545000000000186],,,,,,,,,,,,,,,,,,,,,,,,,,,,,,,,,,,,,,,,,,,,,,,,,,,,,,,,,,,,,,,,,,,,,,,,,,,,,,,,,,,,,,,,,,,,,,,,,,,,,,,
,,"[""comma""]",0,96,0,96,0,1,612168de1ee9816a0d4503dc,31,Kobieta,2022-06-04_07h21.33.531,task,2021.1.4,Win32,60.15399423,628b806c463b948bc644b84f,629af946664fff11cecd2423,[1.023099999964245],,,,,,,,,,,,,,,,,,,,,,,,,,,,,,,,,,,,,,,,,,,,,,,,,,,,,,,,,,,,,,,,,,,,,,,,,,,,,,,,,,,,,,,,,,,,,,,,,,,,,,,
,,"[""comma""]",0,97,0,97,0,1,612168de1ee9816a0d4503dc,31,Kobieta,2022-06-04_07h21.33.531,task,2021.1.4,Win32,60.15399423,628b806c463b948bc644b84f,629af946664fff11cecd2423,[0.9816000000238319],,,,,,,,,,,,,,,,,,,,,,,,,,,,,,,,,,,,,,,,,,,,,,,,,,,,,,,,,,,,,,,,,,,,,,,,,,,,,,,,,,,,,,,,,,,,,,,,,,,,,,,
,,"[""comma""]",0,98,0,98,0,1,612168de1ee9816a0d4503dc,31,Kobieta,2022-06-04_07h21.33.531,task,2021.1.4,Win32,60.15399423,628b806c463b948bc644b84f,629af946664fff11cecd2423,[1.0194000000357732],,,,,,,,,,,,,,,,,,,,,,,,,,,,,,,,,,,,,,,,,,,,,,,,,,,,,,,,,,,,,,,,,,,,,,,,,,,,,,,,,,,,,,,,,,,,,,,,,,,,,,,
,,"[""comma""]",0,99,0,99,0,1,612168de1ee9816a0d4503dc,31,Kobieta,2022-06-04_07h21.33.531,task,2021.1.4,Win32,60.15399423,628b806c463b948bc644b84f,629af946664fff11cecd2423,[0.7154000000357996],,,,,,,,,,,,,,,,,,,,,,,,,,,,,,,,,,,,,,,,,,,,,,,,,,,,,,,,,,,,,,,,,,,,,,,,,,,,,,,,,,,,,,,,,,,,,,,,,,,,,,,
,,"[""comma""]",0,100,0,100,0,1,612168de1ee9816a0d4503dc,31,Kobieta,2022-06-04_07h21.33.531,task,2021.1.4,Win32,60.15399423,628b806c463b948bc644b84f,629af946664fff11cecd2423,[0.7364999999999782],,,,,,,,,,,,,,,,,,,,,,,,,,,,,,,,,,,,,,,,,,,,,,,,,,,,,,,,,,,,,,,,,,,,,,,,,,,,,,,,,,,,,,,,,,,,,,,,,,,,,,,
,,"[""comma""]",0,101,0,101,0,1,612168de1ee9816a0d4503dc,31,Kobieta,2022-06-04_07h21.33.531,task,2021.1.4,Win32,60.15399423,628b806c463b948bc644b84f,629af946664fff11cecd2423,[0.73210000002382],,,,,,,,,,,,,,,,,,,,,,,,,,,,,,,,,,,,,,,,,,,,,,,,,,,,,,,,,,,,,,,,,,,,,,,,,,,,,,,,,,,,,,,,,,,,,,,,,,,,,,,
,,"[""comma""]",0,102,0,102,0,1,612168de1ee9816a0d4503dc,31,Kobieta,2022-06-04_07h21.33.531,task,2021.1.4,Win32,60.15399423,628b806c463b948bc644b84f,629af946664fff11cecd2423,[0.9563999999761563],,,,,,,,,,,,,,,,,,,,,,,,,,,,,,,,,,,,,,,,,,,,,,,,,,,,,,,,,,,,,,,,,,,,,,,,,,,,,,,,,,,,,,,,,,,,,,,,,,,,,,,
,,"[""comma""]",0,103,0,103,0,1,612168de1ee9816a0d4503dc,31,Kobieta,2022-06-04_07h21.33.531,task,2021.1.4,Win32,60.15399423,628b806c463b948bc644b84f,629af946664fff11cecd2423,[1.1575000000000273],,,,,,,,,,,,,,,,,,,,,,,,,,,,,,,,,,,,,,,,,,,,,,,,,,,,,,,,,,,,,,,,,,,,,,,,,,,,,,,,,,,,,,,,,,,,,,,,,,,,,,,
,,"[""comma""]",0,104,0,104,0,1,612168de1ee9816a0d4503dc,31,Kobieta,2022-06-04_07h21.33.531,task,2021.1.4,Win32,60.15399423,628b806c463b948bc644b84f,629af946664fff11cecd2423,[1.0143000000119287],,,,,,,,,,,,,,,,,,,,,,,,,,,,,,,,,,,,,,,,,,,,,,,,,,,,,,,,,,,,,,,,,,,,,,,,,,,,,,,,,,,,,,,,,,,,,,,,,,,,,,,
,,"[""comma""]",0,105,0,105,0,1,612168de1ee9816a0d4503dc,31,Kobieta,2022-06-04_07h21.33.531,task,2021.1.4,Win32,60.15399423,628b806c463b948bc644b84f,629af946664fff11cecd2423,[1.0373000000118964],,,,,,,,,,,,,,,,,,,,,,,,,,,,,,,,,,,,,,,,,,,,,,,,,,,,,,,,,,,,,,,,,,,,,,,,,,,,,,,,,,,,,,,,,,,,,,,,,,,,,,,
,,"[""comma""]",0,106,0,106,0,1,612168de1ee9816a0d4503dc,31,Kobieta,2022-06-04_07h21.33.531,task,2021.1.4,Win32,60.15399423,628b806c463b948bc644b84f,629af946664fff11cecd2423,[1.1208000000119114],,,,,,,,,,,,,,,,,,,,,,,,,,,,,,,,,,,,,,,,,,,,,,,,,,,,,,,,,,,,,,,,,,,,,,,,,,,,,,,,,,,,,,,,,,,,,,,,,,,,,,,
,,"[""comma""]",0,107,0,107,0,1,612168de1ee9816a0d4503dc,31,Kobieta,2022-06-04_07h21.33.531,task,2021.1.4,Win32,60.15399423,628b806c463b948bc644b84f,629af946664fff11cecd2423,[1.0480000000000018],,,,,,,,,,,,,,,,,,,,,,,,,,,,,,,,,,,,,,,,,,,,,,,,,,,,,,,,,,,,,,,,,,,,,,,,,,,,,,,,,,,,,,,,,,,,,,,,,,,,,,,
,,"[""comma""]",0,108,0,108,0,1,612168de1ee9816a0d4503dc,31,Kobieta,2022-06-04_07h21.33.531,task,2021.1.4,Win32,60.15399423,628b806c463b948bc644b84f,629af946664fff11cecd2423,[1.0806000000238214],,,,,,,,,,,,,,,,,,,,,,,,,,,,,,,,,,,,,,,,,,,,,,,,,,,,,,,,,,,,,,,,,,,,,,,,,,,,,,,,,,,,,,,,,,,,,,,,,,,,,,,
,,"[""comma""]",0,109,0,109,0,1,612168de1ee9816a0d4503dc,31,Kobieta,2022-06-04_07h21.33.531,task,2021.1.4,Win32,60.15399423,628b806c463b948bc644b84f,629af946664fff11cecd2423,[1.0335000000000036],,,,,,,,,,,,,,,,,,,,,,,,,,,,,,,,,,,,,,,,,,,,,,,,,,,,,,,,,,,,,,,,,,,,,,,,,,,,,,,,,,,,,,,,,,,,,,,,,,,,,,,
,,"[""comma""]",0,110,0,110,0,1,612168de1ee9816a0d4503dc,31,Kobieta,2022-06-04_07h21.33.531,task,2021.1.4,Win32,60.15399423,628b806c463b948bc644b84f,629af946664fff11cecd2423,[1.1143000000118946],,,,,,,,,,,,,,,,,,,,,,,,,,,,,,,,,,,,,,,,,,,,,,,,,,,,,,,,,,,,,,,,,,,,,,,,,,,,,,,,,,,,,,,,,,,,,,,,,,,,,,,
,,"[""comma""]",0,111,0,111,0,1,612168de1ee9816a0d4503dc,31,Kobieta,2022-06-04_07h21.33.531,task,2021.1.4,Win32,60.15399423,628b806c463b948bc644b84f,629af946664fff11cecd2423,[1.114500000000021],,,,,,,,,,,,,,,,,,,,,,,,,,,,,,,,,,,,,,,,,,,,,,,,,,,,,,,,,,,,,,,,,,,,,,,,,,,,,,,,,,,,,,,,,,,,,,,,,,,,,,,
,,"[""comma""]",0,112,0,112,0,1,612168de1ee9816a0d4503dc,31,Kobieta,2022-06-04_07h21.33.531,task,2021.1.4,Win32,60.15399423,628b806c463b948bc644b84f,629af946664fff11cecd2423,[1.030499999999961],,,,,,,,,,,,,,,,,,,,,,,,,,,,,,,,,,,,,,,,,,,,,,,,,,,,,,,,,,,,,,,,,,,,,,,,,,,,,,,,,,,,,,,,,,,,,,,,,,,,,,,
,,"[""comma""]",0,113,0,113,0,1,612168de1ee9816a0d4503dc,31,Kobieta,2022-06-04_07h21.33.531,task,2021.1.4,Win32,60.15399423,628b806c463b948bc644b84f,629af946664fff11cecd2423,[1.0369999999999777],,,,,,,,,,,,,,,,,,,,,,,,,,,,,,,,,,,,,,,,,,,,,,,,,,,,,,,,,,,,,,,,,,,,,,,,,,,,,,,,,,,,,,,,,,,,,,,,,,,,,,,
,,"[""comma""]",0,114,0,114,0,1,612168de1ee9816a0d4503dc,31,Kobieta,2022-06-04_07h21.33.531,task,2021.1.4,Win32,60.15399423,628b806c463b948bc644b84f,629af946664fff11cecd2423,[0.8173999999761463],,,,,,,,,,,,,,,,,,,,,,,,,,,,,,,,,,,,,,,,,,,,,,,,,,,,,,,,,,,,,,,,,,,,,,,,,,,,,,,,,,,,,,,,,,,,,,,,,,,,,,,
,,"[""comma""]",0,115,0,115,0,1,612168de1ee9816a0d4503dc,31,Kobieta,2022-06-04_07h21.33.531,task,2021.1.4,Win32,60.15399423,628b806c463b948bc644b84f,629af946664fff11cecd2423,[0.9858000000119205],,,,,,,,,,,,,,,,,,,,,,,,,,,,,,,,,,,,,,,,,,,,,,,,,,,,,,,,,,,,,,,,,,,,,,,,,,,,,,,,,,,,,,,,,,,,,,,,,,,,,,,
,,"[""comma""]",0,116,0,116,0,1,612168de1ee9816a0d4503dc,31,Kobieta,2022-06-04_07h21.33.531,task,2021.1.4,Win32,60.15399423,628b806c463b948bc644b84f,629af946664fff11cecd2423,[1.0361999999880709],,,,,,,,,,,,,,,,,,,,,,,,,,,,,,,,,,,,,,,,,,,,,,,,,,,,,,,,,,,,,,,,,,,,,,,,,,,,,,,,,,,,,,,,,,,,,,,,,,,,,,,
,,"[""comma""]",0,117,0,117,0,1,612168de1ee9816a0d4503dc,31,Kobieta,2022-06-04_07h21.33.531,task,2021.1.4,Win32,60.15399423,628b806c463b948bc644b84f,629af946664fff11cecd2423,[1.0308000000119364],,,,,,,,,,,,,,,,,,,,,,,,,,,,,,,,,,,,,,,,,,,,,,,,,,,,,,,,,,,,,,,,,,,,,,,,,,,,,,,,,,,,,,,,,,,,,,,,,,,,,,,
,,"[""comma""]",0,118,0,118,0,1,612168de1ee9816a0d4503dc,31,Kobieta,2022-06-04_07h21.33.531,task,2021.1.4,Win32,60.15399423,628b806c463b948bc644b84f,629af946664fff11cecd2423,[1.10269999998809],,,,,,,,,,,,,,,,,,,,,,,,,,,,,,,,,,,,,,,,,,,,,,,,,,,,,,,,,,,,,,,,,,,,,,,,,,,,,,,,,,,,,,,,,,,,,,,,,,,,,,,
,,"[""comma""]",0,119,0,119,0,1,612168de1ee9816a0d4503dc,31,Kobieta,2022-06-04_07h21.33.531,task,2021.1.4,Win32,60.15399423,628b806c463b948bc644b84f,629af946664fff11cecd2423,[1.023199999988094],,,,,,,,,,,,,,,,,,,,,,,,,,,,,,,,,,,,,,,,,,,,,,,,,,,,,,,,,,,,,,,,,,,,,,,,,,,,,,,,,,,,,,,,,,,,,,,,,,,,,,,
,,,,,,,,,612168de1ee9816a0d4503dc,31,Kobieta,2022-06-04_07h21.33.531,task,2021.1.4,Win32,60.15399423,628b806c463b948bc644b84f,629af946664fff11cecd2423,,space,22.3717,space,7.8422,0,0,0,0,1,X V Q F H G B L J M P D K C T S W R N Z,,,,,,,,,,,,,,,,,,,,,,,,,,,,,,,,,,,,,,,,,,,,,,,,,,,,,,,,,,,,,,,,,,,,,,,,,,,,,,,,,,,,,,,,,,,,,
,,,,,,,,,612168de1ee9816a0d4503dc,31,Kobieta,2022-06-04_07h21.33.531,task,2021.1.4,Win32,60.15399423,628b806c463b948bc644b84f,629af946664fff11cecd2423,,,,,,1,0,1,0,1,X V Q F H G B L J M P D K C T S W R N Z,,,,,,,,,,,,,,,,,,,,,,,,,,,,,,,,,,,,,,,,,,,,,,,,,,,,,,,,,,,,,,,,,,,,,,,,,,,,,,,,,,,,,,,,,,,,,
,,,,,,,,,612168de1ee9816a0d4503dc,31,Kobieta,2022-06-04_07h21.33.531,task,2021.1.4,Win32,60.15399423,628b806c463b948bc644b84f,629af946664fff11cecd2423,,,,,,,,,,,,zg,"[""z"",""g""]","[4.157100000023831,5.0709999999999695,5.86749999999995]",1,ZG,0,0,0,0,1,,,,,,,,,,,,,,,,,,,,,,,,,,,,,,,,,,,,,,,,,,,,,,,,,,,,,,,,,,,,,,,,,,,,,,,,,,,,,,,,,,,
,,,,,,,,,612168de1ee9816a0d4503dc,31,Kobieta,2022-06-04_07h21.33.531,task,2021.1.4,Win32,60.15399423,628b806c463b948bc644b84f,629af946664fff11cecd2423,,,,,,0,0,0,0,1,X V Q F H G B L J M P D K C T S W R N Z,,,,,,,,,,,,,,,,,,,,,,,,,,,,,,,,,,,,,,,,,,,,,,,,,,,,,,,,,,,,,,,,,,,,,,,,,,,,,,,,,,,,,,,,,,,,,
,,,,,,,,,612168de1ee9816a0d4503dc,31,Kobieta,2022-06-04_07h21.33.531,task,2021.1.4,Win32,60.15399423,628b806c463b948bc644b84f,629af946664fff11cecd2423,,,,,,1,0,1,0,1,X V Q F H G B L J M P D K C T S W R N Z,,,,,,,,,,,,,,,,,,,,,,,,,,,,,,,,,,,,,,,,,,,,,,,,,,,,,,,,,,,,,,,,,,,,,,,,,,,,,,,,,,,,,,,,,,,,,
,,,,,,,,,612168de1ee9816a0d4503dc,31,Kobieta,2022-06-04_07h21.33.531,task,2021.1.4,Win32,60.15399423,628b806c463b948bc644b84f,629af946664fff11cecd2423,,,,,,,,,,,,sv,"[""s"",""v""]","[1.6448000000119123,2.161699999988059,2.8483999999761522]",1,SV,1,0,1,0,1,,,,,,,,,,,,,,,,,,,,,,,,,,,,,,,,,,,,,,,,,,,,,,,,,,,,,,,,,,,,,,,,,,,,,,,,,,,,,,,,,,,
,,,,,,,,,612168de1ee9816a0d4503dc,31,Kobieta,2022-06-04_07h21.33.531,task,2021.1.4,Win32,60.15399423,628b806c463b948bc644b84f,629af946664fff11cecd2423,,,,,,0,0,0,0,1,X V Q F H G B L J M P D K C T S W R N Z,,,,,,,,,,,,,,,,,,,,,,,,,,,,,,,,,,,,,,,,,,,,,,,,,,,,,,,,,,,,,,,,,,,,,,,,,,,,,,,,,,,,,,,,,,,,,
,,,,,,,,,612168de1ee9816a0d4503dc,31,Kobieta,2022-06-04_07h21.33.531,task,2021.1.4,Win32,60.15399423,628b806c463b948bc644b84f,629af946664fff11cecd2423,,,,,,1,0,1,0,1,X V Q F H G B L J M P D K C T S W R N Z,,,,,,,,,,,,,,,,,,,,,,,,,,,,,,,,,,,,,,,,,,,,,,,,,,,,,,,,,,,,,,,,,,,,,,,,,,,,,,,,,,,,,,,,,,,,,
,,,,,,,,,612168de1ee9816a0d4503dc,31,Kobieta,2022-06-04_07h21.33.531,task,2021.1.4,Win32,60.15399423,628b806c463b948bc644b84f,629af946664fff11cecd2423,,,,,,2,0,2,0,1,X V Q F H G B L J M P D K C T S W R N Z,,,,,,,,,,,,,,,,,,,,,,,,,,,,,,,,,,,,,,,,,,,,,,,,,,,,,,,,,,,,,,,,,,,,,,,,,,,,,,,,,,,,,,,,,,,,,
,,,,,,,,,612168de1ee9816a0d4503dc,31,Kobieta,2022-06-04_07h21.33.531,task,2021.1.4,Win32,60.15399423,628b806c463b948bc644b84f,629af946664fff11cecd2423,,,,,,,,,,,,ffj,"[""f"",""f"",""j""]","[1.5043999999761581,1.9933000000119137,2.9403000000119164,3.710599999964245]",1,FFJ,2,0,2,0,1,,,,,,,,,,,,,,,,,,,,,,,,,,,,,,,,,,,,,,,,,,,,,,,,,,,,,,,,,,,,,,,,,,,,,,,,,,,,,,,,,,,
,,,,,,,,,612168de1ee9816a0d4503dc,31,Kobieta,2022-06-04_07h21.33.531,task,2021.1.4,Win32,60.15399423,628b806c463b948bc644b84f,629af946664fff11cecd2423,,,,,,0,0,0,0,1,X V Q F H G B L J M P D K C T S W R N Z,,,,,,,,,,,,,,,,,,,,,,,,,,,,,,,,,,,,,,,,,,,,,,,,,,,,,,,,,,,,,,,,,,,,,,,,,,,,,,,,,,,,,,,,,,,,,
,,,,,,,,,612168de1ee9816a0d4503dc,31,Kobieta,2022-06-04_07h21.33.531,task,2021.1.4,Win32,60.15399423,628b806c463b948bc644b84f,629af946664fff11cecd2423,,,,,,1,0,1,0,1,X V Q F H G B L J M P D K C T S W R N Z,,,,,,,,,,,,,,,,,,,,,,,,,,,,,,,,,,,,,,,,,,,,,,,,,,,,,,,,,,,,,,,,,,,,,,,,,,,,,,,,,,,,,,,,,,,,,
,,,,,,,,,612168de1ee9816a0d4503dc,31,Kobieta,2022-06-04_07h21.33.531,task,2021.1.4,Win32,60.15399423,628b806c463b948bc644b84f,629af946664fff11cecd2423,,,,,,2,0,2,0,1,X V Q F H G B L J M P D K C T S W R N Z,,,,,,,,,,,,,,,,,,,,,,,,,,,,,,,,,,,,,,,,,,,,,,,,,,,,,,,,,,,,,,,,,,,,,,,,,,,,,,,,,,,,,,,,,,,,,
,,,,,,,,,612168de1ee9816a0d4503dc,31,Kobieta,2022-06-04_07h21.33.531,task,2021.1.4,Win32,60.15399423,628b806c463b948bc644b84f,629af946664fff11cecd2423,,,,,,,,,,,,dqd,"[""d"",""q"",""d""]","[2.175800000011918,2.9071000000238314,3.62110000002383,4.722500000000025]",1,DQD,3,0,3,0,1,,,,,,,,,,,,,,,,,,,,,,,,,,,,,,,,,,,,,,,,,,,,,,,,,,,,,,,,,,,,,,,,,,,,,,,,,,,,,,,,,,,
,,,,,,,,,612168de1ee9816a0d4503dc,31,Kobieta,2022-06-04_07h21.33.531,task,2021.1.4,Win32,60.15399423,628b806c463b948bc644b84f,629af946664fff11cecd2423,,,,,,0,0,0,0,1,X V Q F H G B L J M P D K C T S W R N Z,,,,,,,,,,,,,,,,,,,,,,,,,,,,,,,,,,,,,,,,,,,,,,,,,,,,,,,,,,,,,,,,,,,,,,,,,,,,,,,,,,,,,,,,,,,,,
,,,,,,,,,612168de1ee9816a0d4503dc,31,Kobieta,2022-06-04_07h21.33.531,task,2021.1.4,Win32,60.15399423,628b806c463b948bc644b84f,629af946664fff11cecd2423,,,,,,1,0,1,0,1,X V Q F H G B L J M P D K C T S W R N Z,,,,,,,,,,,,,,,,,,,,,,,,,,,,,,,,,,,,,,,,,,,,,,,,,,,,,,,,,,,,,,,,,,,,,,,,,,,,,,,,,,,,,,,,,,,,,
,,,,,,,,,612168de1ee9816a0d4503dc,31,Kobieta,2022-06-04_07h21.33.531,task,2021.1.4,Win32,60.15399423,628b806c463b948bc644b84f,629af946664fff11cecd2423,,,,,,2,0,2,0,1,X V Q F H G B L J M P D K C T S W R N Z,,,,,,,,,,,,,,,,,,,,,,,,,,,,,,,,,,,,,,,,,,,,,,,,,,,,,,,,,,,,,,,,,,,,,,,,,,,,,,,,,,,,,,,,,,,,,
,,,,,,,,,612168de1ee9816a0d4503dc,31,Kobieta,2022-06-04_07h21.33.531,task,2021.1.4,Win32,60.15399423,628b806c463b948bc644b84f,629af946664fff11cecd2423,,,,,,3,0,3,0,1,X V Q F H G B L J M P D K C T S W R N Z,,,,,,,,,,,,,,,,,,,,,,,,,,,,,,,,,,,,,,,,,,,,,,,,,,,,,,,,,,,,,,,,,,,,,,,,,,,,,,,,,,,,,,,,,,,,,
,,,,,,,,,612168de1ee9816a0d4503dc,31,Kobieta,2022-06-04_07h21.33.531,task,2021.1.4,Win32,60.15399423,628b806c463b948bc644b84f,629af946664fff11cecd2423,,,,,,,,,,,,kmhz,"[""k"",""m"",""h"",""z""]","[1.9638999999761495,2.501699999988034,4.352800000011882,4.999899999976151,5.846100000023853]",1,KMHZ,4,0,4,0,1,,,,,,,,,,,,,,,,,,,,,,,,,,,,,,,,,,,,,,,,,,,,,,,,,,,,,,,,,,,,,,,,,,,,,,,,,,,,,,,,,,,
,,,,,,,,,612168de1ee9816a0d4503dc,31,Kobieta,2022-06-04_07h21.33.531,task,2021.1.4,Win32,60.15399423,628b806c463b948bc644b84f,629af946664fff11cecd2423,,,,,,0,0,0,0,1,X V Q F H G B L J M P D K C T S W R N Z,,,,,,,,,,,,,,,,,,,,,,,,,,,,,,,,,,,,,,,,,,,,,,,,,,,,,,,,,,,,,,,,,,,,,,,,,,,,,,,,,,,,,,,,,,,,,
,,,,,,,,,612168de1ee9816a0d4503dc,31,Kobieta,2022-06-04_07h21.33.531,task,2021.1.4,Win32,60.15399423,628b806c463b948bc644b84f,629af946664fff11cecd2423,,,,,,1,0,1,0,1,X V Q F H G B L J M P D K C T S W R N Z,,,,,,,,,,,,,,,,,,,,,,,,,,,,,,,,,,,,,,,,,,,,,,,,,,,,,,,,,,,,,,,,,,,,,,,,,,,,,,,,,,,,,,,,,,,,,
,,,,,,,,,612168de1ee9816a0d4503dc,31,Kobieta,2022-06-04_07h21.33.531,task,2021.1.4,Win32,60.15399423,628b806c463b948bc644b84f,629af946664fff11cecd2423,,,,,,2,0,2,0,1,X V Q F H G B L J M P D K C T S W R N Z,,,,,,,,,,,,,,,,,,,,,,,,,,,,,,,,,,,,,,,,,,,,,,,,,,,,,,,,,,,,,,,,,,,,,,,,,,,,,,,,,,,,,,,,,,,,,
,,,,,,,,,612168de1ee9816a0d4503dc,31,Kobieta,2022-06-04_07h21.33.531,task,2021.1.4,Win32,60.15399423,628b806c463b948bc644b84f,629af946664fff11cecd2423,,,,,,3,0,3,0,1,X V Q F H G B L J M P D K C T S W R N Z,,,,,,,,,,,,,,,,,,,,,,,,,,,,,,,,,,,,,,,,,,,,,,,,,,,,,,,,,,,,,,,,,,,,,,,,,,,,,,,,,,,,,,,,,,,,,
,,,,,,,,,612168de1ee9816a0d4503dc,31,Kobieta,2022-06-04_07h21.33.531,task,2021.1.4,Win32,60.15399423,628b806c463b948bc644b84f,629af946664fff11cecd2423,,,,,,,,,,,,ngds,"[""n"",""g"",""d"",""s""]","[2.7123000000119077,3.405300000011948,4.003400000035754,4.302400000035789,5.314600000023859]",1,NGDS,5,0,5,0,1,,,,,,,,,,,,,,,,,,,,,,,,,,,,,,,,,,,,,,,,,,,,,,,,,,,,,,,,,,,,,,,,,,,,,,,,,,,,,,,,,,,
,,,,,,,,,612168de1ee9816a0d4503dc,31,Kobieta,2022-06-04_07h21.33.531,task,2021.1.4,Win32,60.15399423,628b806c463b948bc644b84f,629af946664fff11cecd2423,,,,,,0,0,0,0,1,X V Q F H G B L J M P D K C T S W R N Z,,,,,,,,,,,,,,,,,,,,,,,,,,,,,,,,,,,,,,,,,,,,,,,,,,,,,,,,,,,,,,,,,,,,,,,,,,,,,,,,,,,,,,,,,,,,,
,,,,,,,,,612168de1ee9816a0d4503dc,31,Kobieta,2022-06-04_07h21.33.531,task,2021.1.4,Win32,60.15399423,628b806c463b948bc644b84f,629af946664fff11cecd2423,,,,,,1,0,1,0,1,X V Q F H G B L J M P D K C T S W R N Z,,,,,,,,,,,,,,,,,,,,,,,,,,,,,,,,,,,,,,,,,,,,,,,,,,,,,,,,,,,,,,,,,,,,,,,,,,,,,,,,,,,,,,,,,,,,,
,,,,,,,,,612168de1ee9816a0d4503dc,31,Kobieta,2022-06-04_07h21.33.531,task,2021.1.4,Win32,60.15399423,628b806c463b948bc644b84f,629af946664fff11cecd2423,,,,,,2,0,2,0,1,X V Q F H G B L J M P D K C T S W R N Z,,,,,,,,,,,,,,,,,,,,,,,,,,,,,,,,,,,,,,,,,,,,,,,,,,,,,,,,,,,,,,,,,,,,,,,,,,,,,,,,,,,,,,,,,,,,,
,,,,,,,,,612168de1ee9816a0d4503dc,31,Kobieta,2022-06-04_07h21.33.531,task,2021.1.4,Win32,60.15399423,628b806c463b948bc644b84f,629af946664fff11cecd2423,,,,,,3,0,3,0,1,X V Q F H G B L J M P D K C T S W R N Z,,,,,,,,,,,,,,,,,,,,,,,,,,,,,,,,,,,,,,,,,,,,,,,,,,,,,,,,,,,,,,,,,,,,,,,,,,,,,,,,,,,,,,,,,,,,,
,,,,,,,,,612168de1ee9816a0d4503dc,31,Kobieta,2022-06-04_07h21.33.531,task,2021.1.4,Win32,60.15399423,628b806c463b948bc644b84f,629af946664fff11cecd2423,,,,,,4,0,4,0,1,X V Q F H G B L J M P D K C T S W R N Z,,,,,,,,,,,,,,,,,,,,,,,,,,,,,,,,,,,,,,,,,,,,,,,,,,,,,,,,,,,,,,,,,,,,,,,,,,,,,,,,,,,,,,,,,,,,,
,,,,,,,,,612168de1ee9816a0d4503dc,31,Kobieta,2022-06-04_07h21.33.531,task,2021.1.4,Win32,60.15399423,628b806c463b948bc644b84f,629af946664fff11cecd2423,,,,,,,,,,,,mmxrj,"[""m"",""m"",""x"",""r"",""j""]","[1.2690999999642827,2.0036999999881004,6.960599999964245,9.069599999964282,9.786599999964267,10.87050000000005]",1,MMXRJ,6,0,6,0,1,,,,,,,,,,,,,,,,,,,,,,,,,,,,,,,,,,,,,,,,,,,,,,,,,,,,,,,,,,,,,,,,,,,,,,,,,,,,,,,,,,,
,,,,,,,,,612168de1ee9816a0d4503dc,31,Kobieta,2022-06-04_07h21.33.531,task,2021.1.4,Win32,60.15399423,628b806c463b948bc644b84f,629af946664fff11cecd2423,,,,,,0,0,0,0,1,X V Q F H G B L J M P D K C T S W R N Z,,,,,,,,,,,,,,,,,,,,,,,,,,,,,,,,,,,,,,,,,,,,,,,,,,,,,,,,,,,,,,,,,,,,,,,,,,,,,,,,,,,,,,,,,,,,,
,,,,,,,,,612168de1ee9816a0d4503dc,31,Kobieta,2022-06-04_07h21.33.531,task,2021.1.4,Win32,60.15399423,628b806c463b948bc644b84f,629af946664fff11cecd2423,,,,,,1,0,1,0,1,X V Q F H G B L J M P D K C T S W R N Z,,,,,,,,,,,,,,,,,,,,,,,,,,,,,,,,,,,,,,,,,,,,,,,,,,,,,,,,,,,,,,,,,,,,,,,,,,,,,,,,,,,,,,,,,,,,,
,,,,,,,,,612168de1ee9816a0d4503dc,31,Kobieta,2022-06-04_07h21.33.531,task,2021.1.4,Win32,60.15399423,628b806c463b948bc644b84f,629af946664fff11cecd2423,,,,,,2,0,2,0,1,X V Q F H G B L J M P D K C T S W R N Z,,,,,,,,,,,,,,,,,,,,,,,,,,,,,,,,,,,,,,,,,,,,,,,,,,,,,,,,,,,,,,,,,,,,,,,,,,,,,,,,,,,,,,,,,,,,,
,,,,,,,,,612168de1ee9816a0d4503dc,31,Kobieta,2022-06-04_07h21.33.531,task,2021.1.4,Win32,60.15399423,628b806c463b948bc644b84f,629af946664fff11cecd2423,,,,,,3,0,3,0,1,X V Q F H G B L J M P D K C T S W R N Z,,,,,,,,,,,,,,,,,,,,,,,,,,,,,,,,,,,,,,,,,,,,,,,,,,,,,,,,,,,,,,,,,,,,,,,,,,,,,,,,,,,,,,,,,,,,,
,,,,,,,,,612168de1ee9816a0d4503dc,31,Kobieta,2022-06-04_07h21.33.531,task,2021.1.4,Win32,60.15399423,628b806c463b948bc644b84f,629af946664fff11cecd2423,,,,,,4,0,4,0,1,X V Q F H G B L J M P D K C T S W R N Z,,,,,,,,,,,,,,,,,,,,,,,,,,,,,,,,,,,,,,,,,,,,,,,,,,,,,,,,,,,,,,,,,,,,,,,,,,,,,,,,,,,,,,,,,,,,,
,,,,,,,,,612168de1ee9816a0d4503dc,31,Kobieta,2022-06-04_07h21.33.531,task,2021.1.4,Win32,60.15399423,628b806c463b948bc644b84f,629af946664fff11cecd2423,,,,,,,,,,,,zvmpk,"[""z"",""v"",""m"",""p"",""k""]","[2.009999999999991,2.993299999952285,3.9035999999642286,4.707799999952329,5.266199999988089,5.963399999976161]",1,ZVMPK,7,0,7,0,1,,,,,,,,,,,,,,,,,,,,,,,,,,,,,,,,,,,,,,,,,,,,,,,,,,,,,,,,,,,,,,,,,,,,,,,,,,,,,,,,,,,
,,,,,,,,,612168de1ee9816a0d4503dc,31,Kobieta,2022-06-04_07h21.33.531,task,2021.1.4,Win32,60.15399423,628b806c463b948bc644b84f,629af946664fff11cecd2423,,,,,,0,0,0,0,1,X V Q F H G B L J M P D K C T S W R N Z,,,,,,,,,,,,,,,,,,,,,,,,,,,,,,,,,,,,,,,,,,,,,,,,,,,,,,,,,,,,,,,,,,,,,,,,,,,,,,,,,,,,,,,,,,,,,
,,,,,,,,,612168de1ee9816a0d4503dc,31,Kobieta,2022-06-04_07h21.33.531,task,2021.1.4,Win32,60.15399423,628b806c463b948bc644b84f,629af946664fff11cecd2423,,,,,,1,0,1,0,1,X V Q F H G B L J M P D K C T S W R N Z,,,,,,,,,,,,,,,,,,,,,,,,,,,,,,,,,,,,,,,,,,,,,,,,,,,,,,,,,,,,,,,,,,,,,,,,,,,,,,,,,,,,,,,,,,,,,
,,,,,,,,,612168de1ee9816a0d4503dc,31,Kobieta,2022-06-04_07h21.33.531,task,2021.1.4,Win32,60.15399423,628b806c463b948bc644b84f,629af946664fff11cecd2423,,,,,,2,0,2,0,1,X V Q F H G B L J M P D K C T S W R N Z,,,,,,,,,,,,,,,,,,,,,,,,,,,,,,,,,,,,,,,,,,,,,,,,,,,,,,,,,,,,,,,,,,,,,,,,,,,,,,,,,,,,,,,,,,,,,
,,,,,,,,,612168de1ee9816a0d4503dc,31,Kobieta,2022-06-04_07h21.33.531,task,2021.1.4,Win32,60.15399423,628b806c463b948bc644b84f,629af946664fff11cecd2423,,,,,,3,0,3,0,1,X V Q F H G B L J M P D K C T S W R N Z,,,,,,,,,,,,,,,,,,,,,,,,,,,,,,,,,,,,,,,,,,,,,,,,,,,,,,,,,,,,,,,,,,,,,,,,,,,,,,,,,,,,,,,,,,,,,
,,,,,,,,,612168de1ee9816a0d4503dc,31,Kobieta,2022-06-04_07h21.33.531,task,2021.1.4,Win32,60.15399423,628b806c463b948bc644b84f,629af946664fff11cecd2423,,,,,,4,0,4,0,1,X V Q F H G B L J M P D K C T S W R N Z,,,,,,,,,,,,,,,,,,,,,,,,,,,,,,,,,,,,,,,,,,,,,,,,,,,,,,,,,,,,,,,,,,,,,,,,,,,,,,,,,,,,,,,,,,,,,
,,,,,,,,,612168de1ee9816a0d4503dc,31,Kobieta,2022-06-04_07h21.33.531,task,2021.1.4,Win32,60.15399423,628b806c463b948bc644b84f,629af946664fff11cecd2423,,,,,,5,0,5,0,1,X V Q F H G B L J M P D K C T S W R N Z,,,,,,,,,,,,,,,,,,,,,,,,,,,,,,,,,,,,,,,,,,,,,,,,,,,,,,,,,,,,,,,,,,,,,,,,,,,,,,,,,,,,,,,,,,,,,
,,,,,,,,,612168de1ee9816a0d4503dc,31,Kobieta,2022-06-04_07h21.33.531,task,2021.1.4,Win32,60.15399423,628b806c463b948bc644b84f,629af946664fff11cecd2423,,,,,,,,,,,,gvmqnx,"[""g"",""v"",""m"",""q"",""n"",""x""]","[1.5445999999642481,3.5879999999999654,4.634399999976154,7.332499999999982,8.355899999976145,9.818300000011902,11.297300000011887]",0,GWMQNX,8,0,8,0,1,,,,,,,,,,,,,,,,,,,,,,,,,,,,,,,,,,,,,,,,,,,,,,,,,,,,,,,,,,,,,,,,,,,,,,,,,,,,,,,,,,,
,,,,,,,,,612168de1ee9816a0d4503dc,31,Kobieta,2022-06-04_07h21.33.531,task,2021.1.4,Win32,60.15399423,628b806c463b948bc644b84f,629af946664fff11cecd2423,,,,,,0,0,0,0,1,X V Q F H G B L J M P D K C T S W R N Z,,,,,,,,,,,,,,,,,,,,,,,,,,,,,,,,,,,,,,,,,,,,,,,,,,,,,,,,,,,,,,,,,,,,,,,,,,,,,,,,,,,,,,,,,,,,,
,,,,,,,,,612168de1ee9816a0d4503dc,31,Kobieta,2022-06-04_07h21.33.531,task,2021.1.4,Win32,60.15399423,628b806c463b948bc644b84f,629af946664fff11cecd2423,,,,,,1,0,1,0,1,X V Q F H G B L J M P D K C T S W R N Z,,,,,,,,,,,,,,,,,,,,,,,,,,,,,,,,,,,,,,,,,,,,,,,,,,,,,,,,,,,,,,,,,,,,,,,,,,,,,,,,,,,,,,,,,,,,,
,,,,,,,,,612168de1ee9816a0d4503dc,31,Kobieta,2022-06-04_07h21.33.531,task,2021.1.4,Win32,60.15399423,628b806c463b948bc644b84f,629af946664fff11cecd2423,,,,,,2,0,2,0,1,X V Q F H G B L J M P D K C T S W R N Z,,,,,,,,,,,,,,,,,,,,,,,,,,,,,,,,,,,,,,,,,,,,,,,,,,,,,,,,,,,,,,,,,,,,,,,,,,,,,,,,,,,,,,,,,,,,,
,,,,,,,,,612168de1ee9816a0d4503dc,31,Kobieta,2022-06-04_07h21.33.531,task,2021.1.4,Win32,60.15399423,628b806c463b948bc644b84f,629af946664fff11cecd2423,,,,,,3,0,3,0,1,X V Q F H G B L J M P D K C T S W R N Z,,,,,,,,,,,,,,,,,,,,,,,,,,,,,,,,,,,,,,,,,,,,,,,,,,,,,,,,,,,,,,,,,,,,,,,,,,,,,,,,,,,,,,,,,,,,,
,,,,,,,,,612168de1ee9816a0d4503dc,31,Kobieta,2022-06-04_07h21.33.531,task,2021.1.4,Win32,60.15399423,628b806c463b948bc644b84f,629af946664fff11cecd2423,,,,,,4,0,4,0,1,X V Q F H G B L J M P D K C T S W R N Z,,,,,,,,,,,,,,,,,,,,,,,,,,,,,,,,,,,,,,,,,,,,,,,,,,,,,,,,,,,,,,,,,,,,,,,,,,,,,,,,,,,,,,,,,,,,,
,,,,,,,,,612168de1ee9816a0d4503dc,31,Kobieta,2022-06-04_07h21.33.531,task,2021.1.4,Win32,60.15399423,628b806c463b948bc644b84f,629af946664fff11cecd2423,,,,,,5,0,5,0,1,X V Q F H G B L J M P D K C T S W R N Z,,,,,,,,,,,,,,,,,,,,,,,,,,,,,,,,,,,,,,,,,,,,,,,,,,,,,,,,,,,,,,,,,,,,,,,,,,,,,,,,,,,,,,,,,,,,,
,,,,,,,,,612168de1ee9816a0d4503dc,31,Kobieta,2022-06-04_07h21.33.531,task,2021.1.4,Win32,60.15399423,628b806c463b948bc644b84f,629af946664fff11cecd2423,,,,,,,,,,,,pdhfjp,"[""p"",""d"",""h"",""f"",""j"",""p""]","[3.3581999999880736,4.441600000023868,5.847000000000037,7.093300000011936,7.779199999988066,9.57260000002384,15.500699999988115]",1,PDHFJP,9,0,9,0,1,,,,,,,,,,,,,,,,,,,,,,,,,,,,,,,,,,,,,,,,,,,,,,,,,,,,,,,,,,,,,,,,,,,,,,,,,,,,,,,,,,,
,,,,,,,,,612168de1ee9816a0d4503dc,31,Kobieta,2022-06-04_07h21.33.531,task,2021.1.4,Win32,60.15399423,628b806c463b948bc644b84f,629af946664fff11cecd2423,,,,,,0,0,0,0,1,X V Q F H G B L J M P D K C T S W R N Z,,,,,,,,,,,,,,,,,,,,,,,,,,,,,,,,,,,,,,,,,,,,,,,,,,,,,,,,,,,,,,,,,,,,,,,,,,,,,,,,,,,,,,,,,,,,,
,,,,,,,,,612168de1ee9816a0d4503dc,31,Kobieta,2022-06-04_07h21.33.531,task,2021.1.4,Win32,60.15399423,628b806c463b948bc644b84f,629af946664fff11cecd2423,,,,,,1,0,1,0,1,X V Q F H G B L J M P D K C T S W R N Z,,,,,,,,,,,,,,,,,,,,,,,,,,,,,,,,,,,,,,,,,,,,,,,,,,,,,,,,,,,,,,,,,,,,,,,,,,,,,,,,,,,,,,,,,,,,,
,,,,,,,,,612168de1ee9816a0d4503dc,31,Kobieta,2022-06-04_07h21.33.531,task,2021.1.4,Win32,60.15399423,628b806c463b948bc644b84f,629af946664fff11cecd2423,,,,,,2,0,2,0,1,X V Q F H G B L J M P D K C T S W R N Z,,,,,,,,,,,,,,,,,,,,,,,,,,,,,,,,,,,,,,,,,,,,,,,,,,,,,,,,,,,,,,,,,,,,,,,,,,,,,,,,,,,,,,,,,,,,,
,,,,,,,,,612168de1ee9816a0d4503dc,31,Kobieta,2022-06-04_07h21.33.531,task,2021.1.4,Win32,60.15399423,628b806c463b948bc644b84f,629af946664fff11cecd2423,,,,,,3,0,3,0,1,X V Q F H G B L J M P D K C T S W R N Z,,,,,,,,,,,,,,,,,,,,,,,,,,,,,,,,,,,,,,,,,,,,,,,,,,,,,,,,,,,,,,,,,,,,,,,,,,,,,,,,,,,,,,,,,,,,,
,,,,,,,,,612168de1ee9816a0d4503dc,31,Kobieta,2022-06-04_07h21.33.531,task,2021.1.4,Win32,60.15399423,628b806c463b948bc644b84f,629af946664fff11cecd2423,,,,,,4,0,4,0,1,X V Q F H G B L J M P D K C T S W R N Z,,,,,,,,,,,,,,,,,,,,,,,,,,,,,,,,,,,,,,,,,,,,,,,,,,,,,,,,,,,,,,,,,,,,,,,,,,,,,,,,,,,,,,,,,,,,,
,,,,,,,,,612168de1ee9816a0d4503dc,31,Kobieta,2022-06-04_07h21.33.531,task,2021.1.4,Win32,60.15399423,628b806c463b948bc644b84f,629af946664fff11cecd2423,,,,,,5,0,5,0,1,X V Q F H G B L J M P D K C T S W R N Z,,,,,,,,,,,,,,,,,,,,,,,,,,,,,,,,,,,,,,,,,,,,,,,,,,,,,,,,,,,,,,,,,,,,,,,,,,,,,,,,,,,,,,,,,,,,,
,,,,,,,,,612168de1ee9816a0d4503dc,31,Kobieta,2022-06-04_07h21.33.531,task,2021.1.4,Win32,60.15399423,628b806c463b948bc644b84f,629af946664fff11cecd2423,,,,,,,,,,,,tsstqn,"[""t"",""s"",""s"",""t"",""q"",""n""]","[1.8106000000237827,2.308700000047679,2.551600000023882,3.6559000000357855,5.221100000023853,5.928900000035696,7.159900000035805]",1,TSSTQN,10,0,10,0,1,,,,,,,,,,,,,,,,,,,,,,,,,,,,,,,,,,,,,,,,,,,,,,,,,,,,,,,,,,,,,,,,,,,,,,,,,,,,,,,,,,,
,,,,,,,,,612168de1ee9816a0d4503dc,31,Kobieta,2022-06-04_07h21.33.531,task,2021.1.4,Win32,60.15399423,628b806c463b948bc644b84f,629af946664fff11cecd2423,,,,,,0,0,0,0,1,X V Q F H G B L J M P D K C T S W R N Z,,,,,,,,,,,,,,,,,,,,,,,,,,,,,,,,,,,,,,,,,,,,,,,,,,,,,,,,,,,,,,,,,,,,,,,,,,,,,,,,,,,,,,,,,,,,,
,,,,,,,,,612168de1ee9816a0d4503dc,31,Kobieta,2022-06-04_07h21.33.531,task,2021.1.4,Win32,60.15399423,628b806c463b948bc644b84f,629af946664fff11cecd2423,,,,,,1,0,1,0,1,X V Q F H G B L J M P D K C T S W R N Z,,,,,,,,,,,,,,,,,,,,,,,,,,,,,,,,,,,,,,,,,,,,,,,,,,,,,,,,,,,,,,,,,,,,,,,,,,,,,,,,,,,,,,,,,,,,,
,,,,,,,,,612168de1ee9816a0d4503dc,31,Kobieta,2022-06-04_07h21.33.531,task,2021.1.4,Win32,60.15399423,628b806c463b948bc644b84f,629af946664fff11cecd2423,,,,,,2,0,2,0,1,X V Q F H G B L J M P D K C T S W R N Z,,,,,,,,,,,,,,,,,,,,,,,,,,,,,,,,,,,,,,,,,,,,,,,,,,,,,,,,,,,,,,,,,,,,,,,,,,,,,,,,,,,,,,,,,,,,,
,,,,,,,,,612168de1ee9816a0d4503dc,31,Kobieta,2022-06-04_07h21.33.531,task,2021.1.4,Win32,60.15399423,628b806c463b948bc644b84f,629af946664fff11cecd2423,,,,,,3,0,3,0,1,X V Q F H G B L J M P D K C T S W R N Z,,,,,,,,,,,,,,,,,,,,,,,,,,,,,,,,,,,,,,,,,,,,,,,,,,,,,,,,,,,,,,,,,,,,,,,,,,,,,,,,,,,,,,,,,,,,,
,,,,,,,,,612168de1ee9816a0d4503dc,31,Kobieta,2022-06-04_07h21.33.531,task,2021.1.4,Win32,60.15399423,628b806c463b948bc644b84f,629af946664fff11cecd2423,,,,,,4,0,4,0,1,X V Q F H G B L J M P D K C T S W R N Z,,,,,,,,,,,,,,,,,,,,,,,,,,,,,,,,,,,,,,,,,,,,,,,,,,,,,,,,,,,,,,,,,,,,,,,,,,,,,,,,,,,,,,,,,,,,,
,,,,,,,,,612168de1ee9816a0d4503dc,31,Kobieta,2022-06-04_07h21.33.531,task,2021.1.4,Win32,60.15399423,628b806c463b948bc644b84f,629af946664fff11cecd2423,,,,,,5,0,5,0,1,X V Q F H G B L J M P D K C T S W R N Z,,,,,,,,,,,,,,,,,,,,,,,,,,,,,,,,,,,,,,,,,,,,,,,,,,,,,,,,,,,,,,,,,,,,,,,,,,,,,,,,,,,,,,,,,,,,,
,,,,,,,,,612168de1ee9816a0d4503dc,31,Kobieta,2022-06-04_07h21.33.531,task,2021.1.4,Win32,60.15399423,628b806c463b948bc644b84f,629af946664fff11cecd2423,,,,,,6,0,6,0,1,X V Q F H G B L J M P D K C T S W R N Z,,,,,,,,,,,,,,,,,,,,,,,,,,,,,,,,,,,,,,,,,,,,,,,,,,,,,,,,,,,,,,,,,,,,,,,,,,,,,,,,,,,,,,,,,,,,,
,,,,,,,,,612168de1ee9816a0d4503dc,31,Kobieta,2022-06-04_07h21.33.531,task,2021.1.4,Win32,60.15399423,628b806c463b948bc644b84f,629af946664fff11cecd2423,,,,,,,,,,,,cpxqvzn,"[""c"",""p"",""x"",""q"",""v"",""z"",""n""]","[1.645099999964259,2.6251999999880127,4.560499999999934,7.276799999952345,11.483399999976086,12.708599999964235,13.37309999996421,17.23279999995225]",0,CPXQVZG,11,0,11,0,1,,,,,,,,,,,,,,,,,,,,,,,,,,,,,,,,,,,,,,,,,,,,,,,,,,,,,,,,,,,,,,,,,,,,,,,,,,,,,,,,,,,
,,,,,,,,,612168de1ee9816a0d4503dc,31,Kobieta,2022-06-04_07h21.33.531,task,2021.1.4,Win32,60.15399423,628b806c463b948bc644b84f,629af946664fff11cecd2423,,,,,,0,0,0,0,1,X V Q F H G B L J M P D K C T S W R N Z,,,,,,,,,,,,,,,,,,,,,,,,,,,,,,,,,,,,,,,,,,,,,,,,,,,,,,,,,,,,,,,,,,,,,,,,,,,,,,,,,,,,,,,,,,,,,
,,,,,,,,,612168de1ee9816a0d4503dc,31,Kobieta,2022-06-04_07h21.33.531,task,2021.1.4,Win32,60.15399423,628b806c463b948bc644b84f,629af946664fff11cecd2423,,,,,,1,0,1,0,1,X V Q F H G B L J M P D K C T S W R N Z,,,,,,,,,,,,,,,,,,,,,,,,,,,,,,,,,,,,,,,,,,,,,,,,,,,,,,,,,,,,,,,,,,,,,,,,,,,,,,,,,,,,,,,,,,,,,
,,,,,,,,,612168de1ee9816a0d4503dc,31,Kobieta,2022-06-04_07h21.33.531,task,2021.1.4,Win32,60.15399423,628b806c463b948bc644b84f,629af946664fff11cecd2423,,,,,,2,0,2,0,1,X V Q F H G B L J M P D K C T S W R N Z,,,,,,,,,,,,,,,,,,,,,,,,,,,,,,,,,,,,,,,,,,,,,,,,,,,,,,,,,,,,,,,,,,,,,,,,,,,,,,,,,,,,,,,,,,,,,
,,,,,,,,,612168de1ee9816a0d4503dc,31,Kobieta,2022-06-04_07h21.33.531,task,2021.1.4,Win32,60.15399423,628b806c463b948bc644b84f,629af946664fff11cecd2423,,,,,,3,0,3,0,1,X V Q F H G B L J M P D K C T S W R N Z,,,,,,,,,,,,,,,,,,,,,,,,,,,,,,,,,,,,,,,,,,,,,,,,,,,,,,,,,,,,,,,,,,,,,,,,,,,,,,,,,,,,,,,,,,,,,
,,,,,,,,,612168de1ee9816a0d4503dc,31,Kobieta,2022-06-04_07h21.33.531,task,2021.1.4,Win32,60.15399423,628b806c463b948bc644b84f,629af946664fff11cecd2423,,,,,,4,0,4,0,1,X V Q F H G B L J M P D K C T S W R N Z,,,,,,,,,,,,,,,,,,,,,,,,,,,,,,,,,,,,,,,,,,,,,,,,,,,,,,,,,,,,,,,,,,,,,,,,,,,,,,,,,,,,,,,,,,,,,
,,,,,,,,,612168de1ee9816a0d4503dc,31,Kobieta,2022-06-04_07h21.33.531,task,2021.1.4,Win32,60.15399423,628b806c463b948bc644b84f,629af946664fff11cecd2423,,,,,,5,0,5,0,1,X V Q F H G B L J M P D K C T S W R N Z,,,,,,,,,,,,,,,,,,,,,,,,,,,,,,,,,,,,,,,,,,,,,,,,,,,,,,,,,,,,,,,,,,,,,,,,,,,,,,,,,,,,,,,,,,,,,
,,,,,,,,,612168de1ee9816a0d4503dc,31,Kobieta,2022-06-04_07h21.33.531,task,2021.1.4,Win32,60.15399423,628b806c463b948bc644b84f,629af946664fff11cecd2423,,,,,,6,0,6,0,1,X V Q F H G B L J M P D K C T S W R N Z,,,,,,,,,,,,,,,,,,,,,,,,,,,,,,,,,,,,,,,,,,,,,,,,,,,,,,,,,,,,,,,,,,,,,,,,,,,,,,,,,,,,,,,,,,,,,
,,,,,,,,,612168de1ee9816a0d4503dc,31,Kobieta,2022-06-04_07h21.33.531,task,2021.1.4,Win32,60.15399423,628b806c463b948bc644b84f,629af946664fff11cecd2423,,,,,,,,,,,,szkgbcbz,"[""s"",""z"",""k"",""g"",""b"",""c"",""b"",""z""]","[2.541500000000042,3.0397000000476737,4.502000000000066,5.088100000023928,6.547600000023863,12.076700000047708,12.726900000035812,13.22300000000007,14.204900000035764]",0,SZKGBCB,12,0,12,0,1,,,,,,,,,,,,,,,,,,,,,,,,,,,,,,,,,,,,,,,,,,,,,,,,,,,,,,,,,,,,,,,,,,,,,,,,,,,,,,,,,,,
,,,,,,,,,612168de1ee9816a0d4503dc,31,Kobieta,2022-06-04_07h21.33.531,task,2021.1.4,Win32,60.15399423,628b806c463b948bc644b84f,629af946664fff11cecd2423,,,,,,0,0,0,0,1,X V Q F H G B L J M P D K C T S W R N Z,,,,,,,,,,,,,,,,,,,,,,,,,,,,,,,,,,,,,,,,,,,,,,,,,,,,,,,,,,,,,,,,,,,,,,,,,,,,,,,,,,,,,,,,,,,,,
,,,,,,,,,612168de1ee9816a0d4503dc,31,Kobieta,2022-06-04_07h21.33.531,task,2021.1.4,Win32,60.15399423,628b806c463b948bc644b84f,629af946664fff11cecd2423,,,,,,1,0,1,0,1,X V Q F H G B L J M P D K C T S W R N Z,,,,,,,,,,,,,,,,,,,,,,,,,,,,,,,,,,,,,,,,,,,,,,,,,,,,,,,,,,,,,,,,,,,,,,,,,,,,,,,,,,,,,,,,,,,,,
,,,,,,,,,612168de1ee9816a0d4503dc,31,Kobieta,2022-06-04_07h21.33.531,task,2021.1.4,Win32,60.15399423,628b806c463b948bc644b84f,629af946664fff11cecd2423,,,,,,2,0,2,0,1,X V Q F H G B L J M P D K C T S W R N Z,,,,,,,,,,,,,,,,,,,,,,,,,,,,,,,,,,,,,,,,,,,,,,,,,,,,,,,,,,,,,,,,,,,,,,,,,,,,,,,,,,,,,,,,,,,,,
,,,,,,,,,612168de1ee9816a0d4503dc,31,Kobieta,2022-06-04_07h21.33.531,task,2021.1.4,Win32,60.15399423,628b806c463b948bc644b84f,629af946664fff11cecd2423,,,,,,3,0,3,0,1,X V Q F H G B L J M P D K C T S W R N Z,,,,,,,,,,,,,,,,,,,,,,,,,,,,,,,,,,,,,,,,,,,,,,,,,,,,,,,,,,,,,,,,,,,,,,,,,,,,,,,,,,,,,,,,,,,,,
,,,,,,,,,612168de1ee9816a0d4503dc,31,Kobieta,2022-06-04_07h21.33.531,task,2021.1.4,Win32,60.15399423,628b806c463b948bc644b84f,629af946664fff11cecd2423,,,,,,4,0,4,0,1,X V Q F H G B L J M P D K C T S W R N Z,,,,,,,,,,,,,,,,,,,,,,,,,,,,,,,,,,,,,,,,,,,,,,,,,,,,,,,,,,,,,,,,,,,,,,,,,,,,,,,,,,,,,,,,,,,,,
,,,,,,,,,612168de1ee9816a0d4503dc,31,Kobieta,2022-06-04_07h21.33.531,task,2021.1.4,Win32,60.15399423,628b806c463b948bc644b84f,629af946664fff11cecd2423,,,,,,5,0,5,0,1,X V Q F H G B L J M P D K C T S W R N Z,,,,,,,,,,,,,,,,,,,,,,,,,,,,,,,,,,,,,,,,,,,,,,,,,,,,,,,,,,,,,,,,,,,,,,,,,,,,,,,,,,,,,,,,,,,,,
,,,,,,,,,612168de1ee9816a0d4503dc,31,Kobieta,2022-06-04_07h21.33.531,task,2021.1.4,Win32,60.15399423,628b806c463b948bc644b84f,629af946664fff11cecd2423,,,,,,6,0,6,0,1,X V Q F H G B L J M P D K C T S W R N Z,,,,,,,,,,,,,,,,,,,,,,,,,,,,,,,,,,,,,,,,,,,,,,,,,,,,,,,,,,,,,,,,,,,,,,,,,,,,,,,,,,,,,,,,,,,,,
,,,,,,,,,612168de1ee9816a0d4503dc,31,Kobieta,2022-06-04_07h21.33.531,task,2021.1.4,Win32,60.15399423,628b806c463b948bc644b84f,629af946664fff11cecd2423,,,,,,,,,,,,qkfjtzt,"[""q"",""k"",""f"",""j"",""t"",""z"",""t""]","[3.5628000000119755,5.150600000023928,5.768300000012005,6.329600000023902,6.9798000000120055,7.4481999999881054,7.934300000011945,8.569500000000062]",0,QKJHFJT,13,0,13,0,1,,,,,,,,,,,,,,,,,,,,,,,,,,,,,,,,,,,,,,,,,,,,,,,,,,,,,,,,,,,,,,,,,,,,,,,,,,,,,,,,,,,
,,,,,,,,,612168de1ee9816a0d4503dc,31,Kobieta,2022-06-04_07h21.33.531,task,2021.1.4,Win32,60.15399423,628b806c463b948bc644b84f,629af946664fff11cecd2423,,,,,,,,,,,,,,,,,,,,,,space,16.9286,9,"[""9""]",1,[5.935100000023795],[5.935100000023795],0,0,0,9,1,Practice,10,(20/2) - 1,9,,,,,,,,,,,,,,,,,,,,,,,,,,,,,,,,,,,,,,,,,,,,,,,,,,,,,,,,,,,,,,,,,,,
,,,,,,,,,612168de1ee9816a0d4503dc,31,Kobieta,2022-06-04_07h21.33.531,task,2021.1.4,Win32,60.15399423,628b806c463b948bc644b84f,629af946664fff11cecd2423,,,,,,,,,,,,,,,,,,,,,,,,7,"[""7""]",1,[4.282900000035738],"[5.935100000023795,4.282900000035738]",0,1,1,7,1,Practice,8,(5x5) - 18,7,,,,,,,,,,,,,,,,,,,,,,,,,,,,,,,,,,,,,,,,,,,,,,,,,,,,,,,,,,,,,,,,,,,
,,,,,,,,,612168de1ee9816a0d4503dc,31,Kobieta,2022-06-04_07h21.33.531,task,2021.1.4,Win32,60.15399423,628b806c463b948bc644b84f,629af946664fff11cecd2423,,,,,,,,,,,,,,,,,,,,,,,,6,"[""6""]",1,[2.83949999999993],"[5.935100000023795,4.282900000035738,2.83949999999993]",0,2,2,6,1,Practice,7,(25/5) + 1,6,,,,,,,,,,,,,,,,,,,,,,,,,,,,,,,,,,,,,,,,,,,,,,,,,,,,,,,,,,,,,,,,,,,
,,,,,,,,,612168de1ee9816a0d4503dc,31,Kobieta,2022-06-04_07h21.33.531,task,2021.1.4,Win32,60.15399423,628b806c463b948bc644b84f,629af946664fff11cecd2423,,,,,,,,,,,,,,,,,,,,,,,,8,"[""8""]",1,[2.075600000023769],"[5.935100000023795,4.282900000035738,2.83949999999993,2.075600000023769]",0,3,3,8,1,Practice,9,(3x3) - 1,8,,,,,,,,,,,,,,,,,,,,,,,,,,,,,,,,,,,,,,,,,,,,,,,,,,,,,,,,,,,,,,,,,,,
,,,,,,,,,612168de1ee9816a0d4503dc,31,Kobieta,2022-06-04_07h21.33.531,task,2021.1.4,Win32,60.15399423,628b806c463b948bc644b84f,629af946664fff11cecd2423,,,,,,,,,,,,,,,,,,,,,,,,5,"[""5""]",1,[6.39549999999997],"[5.935100000023795,4.282900000035738,2.83949999999993,2.075600000023769,6.39549999999997]",0,4,4,5,1,Practice,6,(4/2) + 3,5,,,,,,,,,,,,,,,,,,,,,,,,,,,,,,,,,,,,,,,,,,,,,,,,,,,,,,,,,,,,,,,,,,,
,,,,,,,,,612168de1ee9816a0d4503dc,31,Kobieta,2022-06-04_07h21.33.531,task,2021.1.4,Win32,60.15399423,628b806c463b948bc644b84f,629af946664fff11cecd2423,,,,,,,,,,,,,,,,,,,,,,,,1,"[""1""]",1,[2.5076000000237855],"[5.935100000023795,4.282900000035738,2.83949999999993,2.075600000023769,6.39549999999997,2.5076000000237855]",0,5,5,1,1,Practice,2,(4x4) - 15,1,,,,,,,,,,,,,,,,,,,,,,,,,,,,,,,,,,,,,,,,,,,,,,,,,,,,,,,,,,,,,,,,,,,
,,,,,,,,,612168de1ee9816a0d4503dc,31,Kobieta,2022-06-04_07h21.33.531,task,2021.1.4,Win32,60.15399423,628b806c463b948bc644b84f,629af946664fff11cecd2423,,,,,,,,,,,,,,,,,,,,,,,,0,"[""0""]",1,[1.8263000000118836],"[5.935100000023795,4.282900000035738,2.83949999999993,2.075600000023769,6.39549999999997,2.5076000000237855,1.8263000000118836]",0,6,6,0,1,Practice,1,(3x3) -  9,0,,,,,,,,,,,,,,,,,,,,,,,,,,,,,,,,,,,,,,,,,,,,,,,,,,,,,,,,,,,,,,,,,,,
,,,,,,,,,612168de1ee9816a0d4503dc,31,Kobieta,2022-06-04_07h21.33.531,task,2021.1.4,Win32,60.15399423,628b806c463b948bc644b84f,629af946664fff11cecd2423,,,,,,,,,,,,,,,,,,,,,,,,4,"[""4""]",1,[2.1100000000000136],"[5.935100000023795,4.282900000035738,2.83949999999993,2.075600000023769,6.39549999999997,2.5076000000237855,1.8263000000118836,2.1100000000000136]",0,7,7,4,1,Practice,5,(2x6) - 8,4,,,,,,,,,,,,,,,,,,,,,,,,,,,,,,,,,,,,,,,,,,,,,,,,,,,,,,,,,,,,,,,,,,,
,,,,,,,,,612168de1ee9816a0d4503dc,31,Kobieta,2022-06-04_07h21.33.531,task,2021.1.4,Win32,60.15399423,628b806c463b948bc644b84f,629af946664fff11cecd2423,,,,,,,,,,,,,,,,,,,,,,,,3,"[""3""]",1,[1.8781999999880554],"[5.935100000023795,4.282900000035738,2.83949999999993,2.075600000023769,6.39549999999997,2.5076000000237855,1.8263000000118836,2.1100000000000136,1.8781999999880554]",0,8,8,3,1,Practice,4,(8/4) + 1,3,,,,,,,,,,,,,,,,,,,,,,,,,,,,,,,,,,,,,,,,,,,,,,,,,,,,,,,,,,,,,,,,,,,
,,,,,,,,,612168de1ee9816a0d4503dc,31,Kobieta,2022-06-04_07h21.33.531,task,2021.1.4,Win32,60.15399423,628b806c463b948bc644b84f,629af946664fff11cecd2423,,,,,,,,,,,,,,,,,,,,,,,,2,"[""2""]",1,[1.7446000000238655],"[5.935100000023795,4.282900000035738,2.83949999999993,2.075600000023769,6.39549999999997,2.5076000000237855,1.8263000000118836,2.1100000000000136,1.8781999999880554,1.7446000000238655]",0,9,9,2,1,Practice,3,(4x4) - 14,2,,,,,,,,,,,,,,,,,,,,,,,,,,,,,,,,,,,,,,,,,,,,,,,,,,,,,,,,,,,,,,,,,,,
,,,,,,,,,612168de1ee9816a0d4503dc,31,Kobieta,2022-06-04_07h21.33.531,task,2021.1.4,Win32,60.15399423,628b806c463b948bc644b84f,629af946664fff11cecd2423,,,,,,,,,,,,,,,,,,,,,,,,,,,,,,,,,,,,,,1,31.5953,2.106353333,38.75424683,1.6073632,6.253350388,space,1.8786,0,0,0,0,1,,,,,,,,,,,,,,,,,,,,,,,,,,,,,,,,,,,,,,,,,,,,,,,,,,,,,,
,,,,,,,,,612168de1ee9816a0d4503dc,31,Kobieta,2022-06-04_07h21.33.531,task,2021.1.4,Win32,60.15399423,628b806c463b948bc644b84f,629af946664fff11cecd2423,,,,,,,,,,,,,,,,,,,,,,,,2,,,,,,,,,,Practice,3,(4x4) - 14,2,,,,,,,,,,,,,,space,12.0977,"[""2""]",1,[1.9543000000118127],1,0,0,0,2,1,,,,,,,,,,,,,,,,,,,,,,,,,,,,,,,,,,,,,,,,,,,
,,,,,,,,,612168de1ee9816a0d4503dc,31,Kobieta,2022-06-04_07h21.33.531,task,2021.1.4,Win32,60.15399423,628b806c463b948bc644b84f,629af946664fff11cecd2423,,,,,,,,,,,X V Q F H G B L J M P D K C T S W R N Z,,,,,,,,,,,,,,,,,,,,,,,,,,,,,,,,,,,,,,,,,,,,,,,,,,,0,0,0,0,1,,,,,,,,,,,,,,,,,,,,,,,,,,,,,,,,,,,,,,
,,,,,,,,,612168de1ee9816a0d4503dc,31,Kobieta,2022-06-04_07h21.33.531,task,2021.1.4,Win32,60.15399423,628b806c463b948bc644b84f,629af946664fff11cecd2423,,,,,,,,,,,,,,,,,,,,,,,,7,,,,,,,,,,Practice,8,(5x5) - 18,7,,,,,,,,,,,,,,,,"[""7""]",1,[3.163000000000011],1,0,0,0,7,1,,,,,,,,,,,,,,,,,,,,,,,,,,,,,,,,,,,,,,,,,,,
,,,,,,,,,612168de1ee9816a0d4503dc,31,Kobieta,2022-06-04_07h21.33.531,task,2021.1.4,Win32,60.15399423,628b806c463b948bc644b84f,629af946664fff11cecd2423,,,,,,,,,,,X V Q F H G B L J M P D K C T S W R N Z,,,,,,,,,,,,,,,,,,,,,,,,,,,,,,,,,,,,,,,,,,,,,,,,,,,1,0,1,0,1,,,,,,,,,,,,,,,,,,,,,,,,,,,,,,,,,,,,,,
,,,,,,,,,612168de1ee9816a0d4503dc,31,Kobieta,2022-06-04_07h21.33.531,task,2021.1.4,Win32,60.15399423,628b806c463b948bc644b84f,629af946664fff11cecd2423,,,,,,,,,,,,,,,,,,,,,,,,,,,,,,,,,,,,,,,,,,,,,,,,,,,,,,,,,,,,,,,,,,,zj,"[""z"",""j""]",0,"[6.962800000011953,7.762800000011907,8.8041999999881]",1,0,0,0,0,1,,,,,,,,,,,,,,,,,,,,,,,,,,,,
,,,,,,,,,612168de1ee9816a0d4503dc,31,Kobieta,2022-06-04_07h21.33.531,task,2021.1.4,Win32,60.15399423,628b806c463b948bc644b84f,629af946664fff11cecd2423,,,,,,,,,,,,,,,,,,,,,,,,0,,,,,,,,,,Practice,1,(3x3) -  9,0,,,,,,,,,,,,,,,,"[""0""]",1,[1.9103000000119437],1,0,0,0,0,1,,,,,,,,,,,,,,,,,,,,,,,,,,,,,,,,,,,,,,,,,,,
,,,,,,,,,612168de1ee9816a0d4503dc,31,Kobieta,2022-06-04_07h21.33.531,task,2021.1.4,Win32,60.15399423,628b806c463b948bc644b84f,629af946664fff11cecd2423,,,,,,,,,,,X V Q F H G B L J M P D K C T S W R N Z,,,,,,,,,,,,,,,,,,,,,,,,,,,,,,,,,,,,,,,,,,,,,,,,,,,0,0,0,0,1,,,,,,,,,,,,,,,,,,,,,,,,,,,,,,,,,,,,,,
,,,,,,,,,612168de1ee9816a0d4503dc,31,Kobieta,2022-06-04_07h21.33.531,task,2021.1.4,Win32,60.15399423,628b806c463b948bc644b84f,629af946664fff11cecd2423,,,,,,,,,,,,,,,,,,,,,,,,3,,,,,,,,,,Practice,4,(8/4) + 1,3,,,,,,,,,,,,,,,,"[""3""]",1,[2.3110000000000355],1,0,0,0,3,1,,,,,,,,,,,,,,,,,,,,,,,,,,,,,,,,,,,,,,,,,,,
,,,,,,,,,612168de1ee9816a0d4503dc,31,Kobieta,2022-06-04_07h21.33.531,task,2021.1.4,Win32,60.15399423,628b806c463b948bc644b84f,629af946664fff11cecd2423,,,,,,,,,,,X V Q F H G B L J M P D K C T S W R N Z,,,,,,,,,,,,,,,,,,,,,,,,,,,,,,,,,,,,,,,,,,,,,,,,,,,1,0,1,0,1,,,,,,,,,,,,,,,,,,,,,,,,,,,,,,,,,,,,,,
,,,,,,,,,612168de1ee9816a0d4503dc,31,Kobieta,2022-06-04_07h21.33.531,task,2021.1.4,Win32,60.15399423,628b806c463b948bc644b84f,629af946664fff11cecd2423,,,,,,,,,,,,,,,,,,,,,,,,,,,,,,,,,,,,,,,,,,,,,,,,,,,,,,,,,,,,,,,,,,,ns,"[""n"",""s""]",0,"[3.457600000023831,3.989100000023882,4.983199999988074]",1,1,0,1,0,1,,,,,,,,,,,,,,,,,,,,,,,,,,,,
,,,,,,,,,612168de1ee9816a0d4503dc,31,Kobieta,2022-06-04_07h21.33.531,task,2021.1.4,Win32,60.15399423,628b806c463b948bc644b84f,629af946664fff11cecd2423,,,,,,,,,,,,,,,,,,,,,,,,9,,,,,,,,,,Practice,10,(20/2) - 1,9,,,,,,,,,,,,,,,,"[""9""]",1,[2.155999999999949],1,0,0,0,9,1,,,,,,,,,,,,,,,,,,,,,,,,,,,,,,,,,,,,,,,,,,,
,,,,,,,,,612168de1ee9816a0d4503dc,31,Kobieta,2022-06-04_07h21.33.531,task,2021.1.4,Win32,60.15399423,628b806c463b948bc644b84f,629af946664fff11cecd2423,,,,,,,,,,,X V Q F H G B L J M P D K C T S W R N Z,,,,,,,,,,,,,,,,,,,,,,,,,,,,,,,,,,,,,,,,,,,,,,,,,,,0,0,0,0,1,,,,,,,,,,,,,,,,,,,,,,,,,,,,,,,,,,,,,,
,,,,,,,,,612168de1ee9816a0d4503dc,31,Kobieta,2022-06-04_07h21.33.531,task,2021.1.4,Win32,60.15399423,628b806c463b948bc644b84f,629af946664fff11cecd2423,,,,,,,,,,,,,,,,,,,,,,,,9,,,,,,,,,,Practice,10,(20/2) - 1,9,,,,,,,,,,,,,,,,"[""9""]",1,[2.135400000035702],1,0,0,0,9,1,,,,,,,,,,,,,,,,,,,,,,,,,,,,,,,,,,,,,,,,,,,
,,,,,,,,,612168de1ee9816a0d4503dc,31,Kobieta,2022-06-04_07h21.33.531,task,2021.1.4,Win32,60.15399423,628b806c463b948bc644b84f,629af946664fff11cecd2423,,,,,,,,,,,X V Q F H G B L J M P D K C T S W R N Z,,,,,,,,,,,,,,,,,,,,,,,,,,,,,,,,,,,,,,,,,,,,,,,,,,,1,0,1,0,1,,,,,,,,,,,,,,,,,,,,,,,,,,,,,,,,,,,,,,
,,,,,,,,,612168de1ee9816a0d4503dc,31,Kobieta,2022-06-04_07h21.33.531,task,2021.1.4,Win32,60.15399423,628b806c463b948bc644b84f,629af946664fff11cecd2423,,,,,,,,,,,,,,,,,,,,,,,,,,,,,,,,,,,,,,,,,,,,,,,,,,,,,,,,,,,,,,,,,,,dq,"[""d"",""q""]",0,"[2.5303999999762254,3.7228000000119437,4.323000000000093]",1,2,0,2,0,1,,,,,,,,,,,,,,,,,,,,,,,,,,,,
,,,,,,,,,612168de1ee9816a0d4503dc,31,Kobieta,2022-06-04_07h21.33.531,task,2021.1.4,Win32,60.15399423,628b806c463b948bc644b84f,629af946664fff11cecd2423,,,,,,,,,,,,,,,,,,,,,,,,0,,,,,,,,,,Task,17,(2x3) - 6,0,,,,,,,,,,,,,,,,,,,1,,,,,,,,,,,,,,,,,,,,,space,8.7228,"[""0""]",1,[2.2265999999642645],0,0,0,16,1,,,,,,,,,,,,,,,,,,
,,,,,,,,,612168de1ee9816a0d4503dc,31,Kobieta,2022-06-04_07h21.33.531,task,2021.1.4,Win32,60.15399423,628b806c463b948bc644b84f,629af946664fff11cecd2423,,,,,,,,,,,X V Q F H G B L J M P D K C T S W R N Z,,,,,,,,,,,,,,,,,,,,,,,,,,,,,,,,,,,,,,,,,,,,,,,,,,,,,,,,,,,,,,,,,,,,,,,,,,,,0,0,0,0,1,,,,,,,,,,,,,
,,,,,,,,,612168de1ee9816a0d4503dc,31,Kobieta,2022-06-04_07h21.33.531,task,2021.1.4,Win32,60.15399423,628b806c463b948bc644b84f,629af946664fff11cecd2423,,,,,,,,,,,,,,,,,,,,,,,,7,,,,,,,,,,Task,6,(12/2) + 1,7,,,,,,,,,,,,,,,,,,,1,,,,,,,,,,,,,,,,,,,,,,,"[""7""]",1,[1.9617000000476992],0,0,0,5,1,,,,,,,,,,,,,,,,,,
,,,,,,,,,612168de1ee9816a0d4503dc,31,Kobieta,2022-06-04_07h21.33.531,task,2021.1.4,Win32,60.15399423,628b806c463b948bc644b84f,629af946664fff11cecd2423,,,,,,,,,,,X V Q F H G B L J M P D K C T S W R N Z,,,,,,,,,,,,,,,,,,,,,,,,,,,,,,,,,,,,,,,,,,,,,,,,,,,,,,,,,,,,,,,,,,,,,,,,,,,,1,0,1,0,1,,,,,,,,,,,,,
,,,,,,,,,612168de1ee9816a0d4503dc,31,Kobieta,2022-06-04_07h21.33.531,task,2021.1.4,Win32,60.15399423,628b806c463b948bc644b84f,629af946664fff11cecd2423,,,,,,,,,,,,,,,,,,,,,,,,,,,,,,,,,,,,,,,,,,,,,,,,,,,,,,,,,,,,,,,,,,,,,,,,,,,,,,,,,,,,,,,,,,,,zj,"[""z"",""j""]",0,"[2.11099999999999,2.758800000011888,3.256100000023821]",1,ZJ,0,0,0,0,1,,
,,,,,,,,,612168de1ee9816a0d4503dc,31,Kobieta,2022-06-04_07h21.33.531,task,2021.1.4,Win32,60.15399423,628b806c463b948bc644b84f,629af946664fff11cecd2423,,,,,,,,,,,,,,,,,,,,,,,,6,,,,,,,,,,Task,5,(2x3) + 0,6,,,,,,,,,,,,,,,,,,,1,,,,,,,,,,,,,,,,,,,,,,,"[""6""]",1,[2.6446000000238428],0,0,0,4,1,,,,,,,,,,,,,,,,,,
,,,,,,,,,612168de1ee9816a0d4503dc,31,Kobieta,2022-06-04_07h21.33.531,task,2021.1.4,Win32,60.15399423,628b806c463b948bc644b84f,629af946664fff11cecd2423,,,,,,,,,,,X V Q F H G B L J M P D K C T S W R N Z,,,,,,,,,,,,,,,,,,,,,,,,,,,,,,,,,,,,,,,,,,,,,,,,,,,,,,,,,,,,,,,,,,,,,,,,,,,,0,0,0,0,1,,,,,,,,,,,,,
,,,,,,,,,612168de1ee9816a0d4503dc,31,Kobieta,2022-06-04_07h21.33.531,task,2021.1.4,Win32,60.15399423,628b806c463b948bc644b84f,629af946664fff11cecd2423,,,,,,,,,,,,,,,,,,,,,,,,0,,,,,,,,,,Task,8,(1x5) - 5,0,,,,,,,,,,,,,,,,,,,1,,,,,,,,,,,,,,,,,,,,,,,"[""0""]",1,[2.0590999999642463],0,0,0,7,1,,,,,,,,,,,,,,,,,,
,,,,,,,,,612168de1ee9816a0d4503dc,31,Kobieta,2022-06-04_07h21.33.531,task,2021.1.4,Win32,60.15399423,628b806c463b948bc644b84f,629af946664fff11cecd2423,,,,,,,,,,,X V Q F H G B L J M P D K C T S W R N Z,,,,,,,,,,,,,,,,,,,,,,,,,,,,,,,,,,,,,,,,,,,,,,,,,,,,,,,,,,,,,,,,,,,,,,,,,,,,1,0,1,0,1,,,,,,,,,,,,,
,,,,,,,,,612168de1ee9816a0d4503dc,31,Kobieta,2022-06-04_07h21.33.531,task,2021.1.4,Win32,60.15399423,628b806c463b948bc644b84f,629af946664fff11cecd2423,,,,,,,,,,,,,,,,,,,,,,,,4,,,,,,,,,,Task,11,(18/3) - 2,4,,,,,,,,,,,,,,,,,,,1,,,,,,,,,,,,,,,,,,,,,,,"[""4""]",1,[3.3290000000000646],0,0,0,10,1,,,,,,,,,,,,,,,,,,
,,,,,,,,,612168de1ee9816a0d4503dc,31,Kobieta,2022-06-04_07h21.33.531,task,2021.1.4,Win32,60.15399423,628b806c463b948bc644b84f,629af946664fff11cecd2423,,,,,,,,,,,X V Q F H G B L J M P D K C T S W R N Z,,,,,,,,,,,,,,,,,,,,,,,,,,,,,,,,,,,,,,,,,,,,,,,,,,,,,,,,,,,,,,,,,,,,,,,,,,,,2,0,2,0,1,,,,,,,,,,,,,
,,,,,,,,,612168de1ee9816a0d4503dc,31,Kobieta,2022-06-04_07h21.33.531,task,2021.1.4,Win32,60.15399423,628b806c463b948bc644b84f,629af946664fff11cecd2423,,,,,,,,,,,,,,,,,,,,,,,,,,,,,,,,,,,,,,,,,,,,,,,,,,,,,,,,,,,,,,,,,,,,,,,,,,,,,,,,,,,,,,,,,,,,xrf,"[""x"",""r"",""f""]",0,"[2.765900000035799,4.13900000000001,4.702900000035811,5.341100000023857]",1,XRF,1,0,1,0,1,,
,,,,,,,,,612168de1ee9816a0d4503dc,31,Kobieta,2022-06-04_07h21.33.531,task,2021.1.4,Win32,60.15399423,628b806c463b948bc644b84f,629af946664fff11cecd2423,,,,,,,,,,,,,,,,,,,,,,,,5,,,,,,,,,,Task,21,(10/2) - 1,4,,,,,,,,,,,,,,,,,,,0,,,,,,,,,,,,,,,,,,,,,,,"[""5""]",0,[2.3600000000000136],0,0,0,20,1,,,,,,,,,,,,,,,,,,
,,,,,,,,,612168de1ee9816a0d4503dc,31,Kobieta,2022-06-04_07h21.33.531,task,2021.1.4,Win32,60.15399423,628b806c463b948bc644b84f,629af946664fff11cecd2423,,,,,,,,,,,,,,,,,,,,,,,,6,,,,,,,,,,Task,30,(6/3) + 4 ,6,,,,,,,,,,,,,,,,,,,1,,,,,,,,,,,,,,,,,,,,,,,"[""6""]",1,[4.069499999999948],0,1,1,29,1,,,,,,,,,,,,,,,,,,
,,,,,,,,,612168de1ee9816a0d4503dc,31,Kobieta,2022-06-04_07h21.33.531,task,2021.1.4,Win32,60.15399423,628b806c463b948bc644b84f,629af946664fff11cecd2423,,,,,,,,,,,X V Q F H G B L J M P D K C T S W R N Z,,,,,,,,,,,,,,,,,,,,,,,,,,,,,,,,,,,,,,,,,,,,,,,,,,,,,,,,,,,,,,,,,,,,,,,,,,,,0,0,0,0,1,,,,,,,,,,,,,
,,,,,,,,,612168de1ee9816a0d4503dc,31,Kobieta,2022-06-04_07h21.33.531,task,2021.1.4,Win32,60.15399423,628b806c463b948bc644b84f,629af946664fff11cecd2423,,,,,,,,,,,,,,,,,,,,,,,,4,,,,,,,,,,Task,11,(18/3) - 2,4,,,,,,,,,,,,,,,,,,,1,,,,,,,,,,,,,,,,,,,,,,,"[""4""]",1,[4.18569999998806],0,0,0,10,1,,,,,,,,,,,,,,,,,,
,,,,,,,,,612168de1ee9816a0d4503dc,31,Kobieta,2022-06-04_07h21.33.531,task,2021.1.4,Win32,60.15399423,628b806c463b948bc644b84f,629af946664fff11cecd2423,,,,,,,,,,,X V Q F H G B L J M P D K C T S W R N Z,,,,,,,,,,,,,,,,,,,,,,,,,,,,,,,,,,,,,,,,,,,,,,,,,,,,,,,,,,,,,,,,,,,,,,,,,,,,1,0,1,0,1,,,,,,,,,,,,,
,,,,,,,,,612168de1ee9816a0d4503dc,31,Kobieta,2022-06-04_07h21.33.531,task,2021.1.4,Win32,60.15399423,628b806c463b948bc644b84f,629af946664fff11cecd2423,,,,,,,,,,,,,,,,,,,,,,,,1,,,,,,,,,,Task,1,(12/6) - 1,1,,,,,,,,,,,,,,,,,,,1,,,,,,,,,,,,,,,,,,,,,,,"[""1""]",1,[3.240399999976148],0,0,0,0,1,,,,,,,,,,,,,,,,,,
,,,,,,,,,612168de1ee9816a0d4503dc,31,Kobieta,2022-06-04_07h21.33.531,task,2021.1.4,Win32,60.15399423,628b806c463b948bc644b84f,629af946664fff11cecd2423,,,,,,,,,,,X V Q F H G B L J M P D K C T S W R N Z,,,,,,,,,,,,,,,,,,,,,,,,,,,,,,,,,,,,,,,,,,,,,,,,,,,,,,,,,,,,,,,,,,,,,,,,,,,,2,0,2,0,1,,,,,,,,,,,,,
,,,,,,,,,612168de1ee9816a0d4503dc,31,Kobieta,2022-06-04_07h21.33.531,task,2021.1.4,Win32,60.15399423,628b806c463b948bc644b84f,629af946664fff11cecd2423,,,,,,,,,,,,,,,,,,,,,,,,1,,,,,,,,,,Task,34,(9/3) - 2,1,,,,,,,,,,,,,,,,,,,1,,,,,,,,,,,,,,,,,,,,,,,"[""1""]",1,[3.264900000035823],0,0,0,33,1,,,,,,,,,,,,,,,,,,
,,,,,,,,,612168de1ee9816a0d4503dc,31,Kobieta,2022-06-04_07h21.33.531,task,2021.1.4,Win32,60.15399423,628b806c463b948bc644b84f,629af946664fff11cecd2423,,,,,,,,,,,X V Q F H G B L J M P D K C T S W R N Z,,,,,,,,,,,,,,,,,,,,,,,,,,,,,,,,,,,,,,,,,,,,,,,,,,,,,,,,,,,,,,,,,,,,,,,,,,,,3,0,3,0,1,,,,,,,,,,,,,
,,,,,,,,,612168de1ee9816a0d4503dc,31,Kobieta,2022-06-04_07h21.33.531,task,2021.1.4,Win32,60.15399423,628b806c463b948bc644b84f,629af946664fff11cecd2423,,,,,,,,,,,,,,,,,,,,,,,,,,,,,,,,,,,,,,,,,,,,,,,,,,,,,,,,,,,,,,,,,,,,,,,,,,,,,,,,,,,,,,,,,,,,cxdj,"[""c"",""x"",""d"",""j""]",0,"[3.3469000000357028,3.6751000000238037,3.9818000000118445,4.619900000035727,5.382800000011912]",1,CXDJ,2,0,2,0,1,,
,,,,,,,,,612168de1ee9816a0d4503dc,31,Kobieta,2022-06-04_07h21.33.531,task,2021.1.4,Win32,60.15399423,628b806c463b948bc644b84f,629af946664fff11cecd2423,,,,,,,,,,,,,,,,,,,,,,,,4,,,,,,,,,,Task,28,(2x5) - 6,4,,,,,,,,,,,,,,,,,,,1,,,,,,,,,,,,,,,,,,,,,,,"[""4""]",1,[2.602800000011939],0,0,0,27,1,,,,,,,,,,,,,,,,,,
,,,,,,,,,612168de1ee9816a0d4503dc,31,Kobieta,2022-06-04_07h21.33.531,task,2021.1.4,Win32,60.15399423,628b806c463b948bc644b84f,629af946664fff11cecd2423,,,,,,,,,,,X V Q F H G B L J M P D K C T S W R N Z,,,,,,,,,,,,,,,,,,,,,,,,,,,,,,,,,,,,,,,,,,,,,,,,,,,,,,,,,,,,,,,,,,,,,,,,,,,,0,0,0,0,1,,,,,,,,,,,,,
,,,,,,,,,612168de1ee9816a0d4503dc,31,Kobieta,2022-06-04_07h21.33.531,task,2021.1.4,Win32,60.15399423,628b806c463b948bc644b84f,629af946664fff11cecd2423,,,,,,,,,,,,,,,,,,,,,,,,2,,,,,,,,,,Task,10,(2x5) - 8,2,,,,,,,,,,,,,,,,,,,1,,,,,,,,,,,,,,,,,,,,,,,"[""2""]",1,[3.3105000000000473],0,0,0,9,1,,,,,,,,,,,,,,,,,,
,,,,,,,,,612168de1ee9816a0d4503dc,31,Kobieta,2022-06-04_07h21.33.531,task,2021.1.4,Win32,60.15399423,628b806c463b948bc644b84f,629af946664fff11cecd2423,,,,,,,,,,,X V Q F H G B L J M P D K C T S W R N Z,,,,,,,,,,,,,,,,,,,,,,,,,,,,,,,,,,,,,,,,,,,,,,,,,,,,,,,,,,,,,,,,,,,,,,,,,,,,1,0,1,0,1,,,,,,,,,,,,,
,,,,,,,,,612168de1ee9816a0d4503dc,31,Kobieta,2022-06-04_07h21.33.531,task,2021.1.4,Win32,60.15399423,628b806c463b948bc644b84f,629af946664fff11cecd2423,,,,,,,,,,,,,,,,,,,,,,,,0,,,,,,,,,,Task,17,(2x3) - 6,0,,,,,,,,,,,,,,,,,,,1,,,,,,,,,,,,,,,,,,,,,,,"[""0""]",1,[3.075399999976071],0,0,0,16,1,,,,,,,,,,,,,,,,,,
,,,,,,,,,612168de1ee9816a0d4503dc,31,Kobieta,2022-06-04_07h21.33.531,task,2021.1.4,Win32,60.15399423,628b806c463b948bc644b84f,629af946664fff11cecd2423,,,,,,,,,,,X V Q F H G B L J M P D K C T S W R N Z,,,,,,,,,,,,,,,,,,,,,,,,,,,,,,,,,,,,,,,,,,,,,,,,,,,,,,,,,,,,,,,,,,,,,,,,,,,,2,0,2,0,1,,,,,,,,,,,,,
,,,,,,,,,612168de1ee9816a0d4503dc,31,Kobieta,2022-06-04_07h21.33.531,task,2021.1.4,Win32,60.15399423,628b806c463b948bc644b84f,629af946664fff11cecd2423,,,,,,,,,,,,,,,,,,,,,,,,6,,,,,,,,,,Task,37,(3/3) + 5,6,,,,,,,,,,,,,,,,,,,1,,,,,,,,,,,,,,,,,,,,,,,"[""6""]",1,[4.623799999952325],0,0,0,36,1,,,,,,,,,,,,,,,,,,
,,,,,,,,,612168de1ee9816a0d4503dc,31,Kobieta,2022-06-04_07h21.33.531,task,2021.1.4,Win32,60.15399423,628b806c463b948bc644b84f,629af946664fff11cecd2423,,,,,,,,,,,X V Q F H G B L J M P D K C T S W R N Z,,,,,,,,,,,,,,,,,,,,,,,,,,,,,,,,,,,,,,,,,,,,,,,,,,,,,,,,,,,,,,,,,,,,,,,,,,,,3,0,3,0,1,,,,,,,,,,,,,
,,,,,,,,,612168de1ee9816a0d4503dc,31,Kobieta,2022-06-04_07h21.33.531,task,2021.1.4,Win32,60.15399423,628b806c463b948bc644b84f,629af946664fff11cecd2423,,,,,,,,,,,,,,,,,,,,,,,,0,,,,,,,,,,Task,25,(10/5) - 2,0,,,,,,,,,,,,,,,,,,,1,,,,,,,,,,,,,,,,,,,,,,,"[""0""]",1,[3.321699999988141],0,0,0,24,1,,,,,,,,,,,,,,,,,,
,,,,,,,,,612168de1ee9816a0d4503dc,31,Kobieta,2022-06-04_07h21.33.531,task,2021.1.4,Win32,60.15399423,628b806c463b948bc644b84f,629af946664fff11cecd2423,,,,,,,,,,,X V Q F H G B L J M P D K C T S W R N Z,,,,,,,,,,,,,,,,,,,,,,,,,,,,,,,,,,,,,,,,,,,,,,,,,,,,,,,,,,,,,,,,,,,,,,,,,,,,4,0,4,0,1,,,,,,,,,,,,,
,,,,,,,,,612168de1ee9816a0d4503dc,31,Kobieta,2022-06-04_07h21.33.531,task,2021.1.4,Win32,60.15399423,628b806c463b948bc644b84f,629af946664fff11cecd2423,,,,,,,,,,,,,,,,,,,,,,,,,,,,,,,,,,,,,,,,,,,,,,,,,,,,,,,,,,,,,,,,,,,,,,,,,,,,,,,,,,,,,,,,,,,,hzldm,"[""h"",""z"",""l"",""d"",""m""]",0,"[4.768900000035842,5.482900000035784,7.593900000035774,8.202100000023847,8.75660000002381,9.785800000011932]",1,HZLDM,3,0,3,0,1,,
,,,,,,,,,612168de1ee9816a0d4503dc,31,Kobieta,2022-06-04_07h21.33.531,task,2021.1.4,Win32,60.15399423,628b806c463b948bc644b84f,629af946664fff11cecd2423,,,,,,,,,,,,,,,,,,,,,,,,6,,,,,,,,,,Task,30,(6/3) + 4 ,6,,,,,,,,,,,,,,,,,,,1,,,,,,,,,,,,,,,,,,,,,,,"[""6""]",1,[2.8089000000358055],0,0,0,29,1,,,,,,,,,,,,,,,,,,
,,,,,,,,,612168de1ee9816a0d4503dc,31,Kobieta,2022-06-04_07h21.33.531,task,2021.1.4,Win32,60.15399423,628b806c463b948bc644b84f,629af946664fff11cecd2423,,,,,,,,,,,X V Q F H G B L J M P D K C T S W R N Z,,,,,,,,,,,,,,,,,,,,,,,,,,,,,,,,,,,,,,,,,,,,,,,,,,,,,,,,,,,,,,,,,,,,,,,,,,,,0,0,0,0,1,,,,,,,,,,,,,
,,,,,,,,,612168de1ee9816a0d4503dc,31,Kobieta,2022-06-04_07h21.33.531,task,2021.1.4,Win32,60.15399423,628b806c463b948bc644b84f,629af946664fff11cecd2423,,,,,,,,,,,,,,,,,,,,,,,,,,,,,,,,,,Task,39,(5x3) - 7,8,,,,,,,,,,,,,,,,,,,0,,,,,,,,,,,,,,,,,,,,,,,,0,,0,0,0,38,1,,,,,,,,,,,,,,,,,,
,,,,,,,,,612168de1ee9816a0d4503dc,31,Kobieta,2022-06-04_07h21.33.531,task,2021.1.4,Win32,60.15399423,628b806c463b948bc644b84f,629af946664fff11cecd2423,,,,,,,,,,,,,,,,,,,,,,,,4,,,,,,,,,,Task,20,(18/9) + 1,3,,,,,,,,,,,,,,,,,,,0,,,,,,,,,,,,,,,,,,,,,,,"[""4""]",0,[3.157399999976178],0,1,1,19,1,,,,,,,,,,,,,,,,,,
,,,,,,,,,612168de1ee9816a0d4503dc,31,Kobieta,2022-06-04_07h21.33.531,task,2021.1.4,Win32,60.15399423,628b806c463b948bc644b84f,629af946664fff11cecd2423,,,,,,,,,,,,,,,,,,,,,,,,5,,,,,,,,,,Task,12,(4x4) - 11,5,,,,,,,,,,,,,,,,,,,1,,,,,,,,,,,,,,,,,,,,,,,"[""5""]",1,[2.5736999999880936],0,2,2,11,1,,,,,,,,,,,,,,,,,,
,,,,,,,,,612168de1ee9816a0d4503dc,31,Kobieta,2022-06-04_07h21.33.531,task,2021.1.4,Win32,60.15399423,628b806c463b948bc644b84f,629af946664fff11cecd2423,,,,,,,,,,,X V Q F H G B L J M P D K C T S W R N Z,,,,,,,,,,,,,,,,,,,,,,,,,,,,,,,,,,,,,,,,,,,,,,,,,,,,,,,,,,,,,,,,,,,,,,,,,,,,1,0,1,0,1,,,,,,,,,,,,,
,,,,,,,,,612168de1ee9816a0d4503dc,31,Kobieta,2022-06-04_07h21.33.531,task,2021.1.4,Win32,60.15399423,628b806c463b948bc644b84f,629af946664fff11cecd2423,,,,,,,,,,,,,,,,,,,,,,,,4,,,,,,,,,,Task,11,(18/3) - 2,4,,,,,,,,,,,,,,,,,,,1,,,,,,,,,,,,,,,,,,,,,,,"[""4""]",1,[3.5771999999881245],0,0,0,10,1,,,,,,,,,,,,,,,,,,
,,,,,,,,,612168de1ee9816a0d4503dc,31,Kobieta,2022-06-04_07h21.33.531,task,2021.1.4,Win32,60.15399423,628b806c463b948bc644b84f,629af946664fff11cecd2423,,,,,,,,,,,X V Q F H G B L J M P D K C T S W R N Z,,,,,,,,,,,,,,,,,,,,,,,,,,,,,,,,,,,,,,,,,,,,,,,,,,,,,,,,,,,,,,,,,,,,,,,,,,,,2,0,2,0,1,,,,,,,,,,,,,
,,,,,,,,,612168de1ee9816a0d4503dc,31,Kobieta,2022-06-04_07h21.33.531,task,2021.1.4,Win32,60.15399423,628b806c463b948bc644b84f,629af946664fff11cecd2423,,,,,,,,,,,,,,,,,,,,,,,,2,,,,,,,,,,Task,2,(2x2) - 2,2,,,,,,,,,,,,,,,,,,,1,,,,,,,,,,,,,,,,,,,,,,,"[""2""]",1,[2.66570000004765],0,0,0,1,1,,,,,,,,,,,,,,,,,,
,,,,,,,,,612168de1ee9816a0d4503dc,31,Kobieta,2022-06-04_07h21.33.531,task,2021.1.4,Win32,60.15399423,628b806c463b948bc644b84f,629af946664fff11cecd2423,,,,,,,,,,,X V Q F H G B L J M P D K C T S W R N Z,,,,,,,,,,,,,,,,,,,,,,,,,,,,,,,,,,,,,,,,,,,,,,,,,,,,,,,,,,,,,,,,,,,,,,,,,,,,3,0,3,0,1,,,,,,,,,,,,,
,,,,,,,,,612168de1ee9816a0d4503dc,31,Kobieta,2022-06-04_07h21.33.531,task,2021.1.4,Win32,60.15399423,628b806c463b948bc644b84f,629af946664fff11cecd2423,,,,,,,,,,,,,,,,,,,,,,,,6,,,,,,,,,,Task,37,(3/3) + 5,6,,,,,,,,,,,,,,,,,,,1,,,,,,,,,,,,,,,,,,,,,,,"[""6""]",1,[2.5963000000118654],0,0,0,36,1,,,,,,,,,,,,,,,,,,
,,,,,,,,,612168de1ee9816a0d4503dc,31,Kobieta,2022-06-04_07h21.33.531,task,2021.1.4,Win32,60.15399423,628b806c463b948bc644b84f,629af946664fff11cecd2423,,,,,,,,,,,X V Q F H G B L J M P D K C T S W R N Z,,,,,,,,,,,,,,,,,,,,,,,,,,,,,,,,,,,,,,,,,,,,,,,,,,,,,,,,,,,,,,,,,,,,,,,,,,,,4,0,4,0,1,,,,,,,,,,,,,
,,,,,,,,,612168de1ee9816a0d4503dc,31,Kobieta,2022-06-04_07h21.33.531,task,2021.1.4,Win32,60.15399423,628b806c463b948bc644b84f,629af946664fff11cecd2423,,,,,,,,,,,,,,,,,,,,,,,,4,,,,,,,,,,Task,4,(1x5) - 1,4,,,,,,,,,,,,,,,,,,,1,,,,,,,,,,,,,,,,,,,,,,,"[""4""]",1,[2.1763000000119064],0,0,0,3,1,,,,,,,,,,,,,,,,,,
,,,,,,,,,612168de1ee9816a0d4503dc,31,Kobieta,2022-06-04_07h21.33.531,task,2021.1.4,Win32,60.15399423,628b806c463b948bc644b84f,629af946664fff11cecd2423,,,,,,,,,,,X V Q F H G B L J M P D K C T S W R N Z,,,,,,,,,,,,,,,,,,,,,,,,,,,,,,,,,,,,,,,,,,,,,,,,,,,,,,,,,,,,,,,,,,,,,,,,,,,,5,0,5,0,1,,,,,,,,,,,,,
,,,,,,,,,612168de1ee9816a0d4503dc,31,Kobieta,2022-06-04_07h21.33.531,task,2021.1.4,Win32,60.15399423,628b806c463b948bc644b84f,629af946664fff11cecd2423,,,,,,,,,,,,,,,,,,,,,,,,,,,,,,,,,,,,,,,,,,,,,,,,,,,,,,,,,,,,,,,,,,,,,,,,,,,,,,,,,,,,,,,,,,,,pzqrxx,"[""p"",""z"",""q"",""r"",""x"",""x""]",0,"[3.3904000000356973,4.021800000011922,4.7934999999999945,7.96449999999993,8.490300000011871,8.699600000023793,9.555699999988065]",1,PZQRXX,4,0,4,0,1,,
,,,,,,,,,612168de1ee9816a0d4503dc,31,Kobieta,2022-06-04_07h21.33.531,task,2021.1.4,Win32,60.15399423,628b806c463b948bc644b84f,629af946664fff11cecd2423,,,,,,,,,,,,,,,,,,,,,,,,2,,,,,,,,,,Task,26,(2x9) - 16,2,,,,,,,,,,,,,,,,,,,1,,,,,,,,,,,,,,,,,,,,,,,"[""2""]",1,[2.4255000000000564],0,0,0,25,1,,,,,,,,,,,,,,,,,,
,,,,,,,,,612168de1ee9816a0d4503dc,31,Kobieta,2022-06-04_07h21.33.531,task,2021.1.4,Win32,60.15399423,628b806c463b948bc644b84f,629af946664fff11cecd2423,,,,,,,,,,,X V Q F H G B L J M P D K C T S W R N Z,,,,,,,,,,,,,,,,,,,,,,,,,,,,,,,,,,,,,,,,,,,,,,,,,,,,,,,,,,,,,,,,,,,,,,,,,,,,0,0,0,0,1,,,,,,,,,,,,,
,,,,,,,,,612168de1ee9816a0d4503dc,31,Kobieta,2022-06-04_07h21.33.531,task,2021.1.4,Win32,60.15399423,628b806c463b948bc644b84f,629af946664fff11cecd2423,,,,,,,,,,,,,,,,,,,,,,,,6,,,,,,,,,,Task,13,(3x4) - 6,6,,,,,,,,,,,,,,,,,,,1,,,,,,,,,,,,,,,,,,,,,,,"[""6""]",1,[2.9573999999761327],0,0,0,12,1,,,,,,,,,,,,,,,,,,
,,,,,,,,,612168de1ee9816a0d4503dc,31,Kobieta,2022-06-04_07h21.33.531,task,2021.1.4,Win32,60.15399423,628b806c463b948bc644b84f,629af946664fff11cecd2423,,,,,,,,,,,X V Q F H G B L J M P D K C T S W R N Z,,,,,,,,,,,,,,,,,,,,,,,,,,,,,,,,,,,,,,,,,,,,,,,,,,,,,,,,,,,,,,,,,,,,,,,,,,,,1,0,1,0,1,,,,,,,,,,,,,
,,,,,,,,,612168de1ee9816a0d4503dc,31,Kobieta,2022-06-04_07h21.33.531,task,2021.1.4,Win32,60.15399423,628b806c463b948bc644b84f,629af946664fff11cecd2423,,,,,,,,,,,,,,,,,,,,,,,,0,,,,,,,,,,Task,25,(10/5) - 2,0,,,,,,,,,,,,,,,,,,,1,,,,,,,,,,,,,,,,,,,,,,,"[""0""]",1,[2.624899999976151],0,0,0,24,1,,,,,,,,,,,,,,,,,,
,,,,,,,,,612168de1ee9816a0d4503dc,31,Kobieta,2022-06-04_07h21.33.531,task,2021.1.4,Win32,60.15399423,628b806c463b948bc644b84f,629af946664fff11cecd2423,,,,,,,,,,,X V Q F H G B L J M P D K C T S W R N Z,,,,,,,,,,,,,,,,,,,,,,,,,,,,,,,,,,,,,,,,,,,,,,,,,,,,,,,,,,,,,,,,,,,,,,,,,,,,2,0,2,0,1,,,,,,,,,,,,,
,,,,,,,,,612168de1ee9816a0d4503dc,31,Kobieta,2022-06-04_07h21.33.531,task,2021.1.4,Win32,60.15399423,628b806c463b948bc644b84f,629af946664fff11cecd2423,,,,,,,,,,,,,,,,,,,,,,,,5,,,,,,,,,,Task,22,(3x1) + 2,5,,,,,,,,,,,,,,,,,,,1,,,,,,,,,,,,,,,,,,,,,,,"[""5""]",1,[2.1628000000118845],0,0,0,21,1,,,,,,,,,,,,,,,,,,
,,,,,,,,,612168de1ee9816a0d4503dc,31,Kobieta,2022-06-04_07h21.33.531,task,2021.1.4,Win32,60.15399423,628b806c463b948bc644b84f,629af946664fff11cecd2423,,,,,,,,,,,X V Q F H G B L J M P D K C T S W R N Z,,,,,,,,,,,,,,,,,,,,,,,,,,,,,,,,,,,,,,,,,,,,,,,,,,,,,,,,,,,,,,,,,,,,,,,,,,,,3,0,3,0,1,,,,,,,,,,,,,
,,,,,,,,,612168de1ee9816a0d4503dc,31,Kobieta,2022-06-04_07h21.33.531,task,2021.1.4,Win32,60.15399423,628b806c463b948bc644b84f,629af946664fff11cecd2423,,,,,,,,,,,,,,,,,,,,,,,,7,,,,,,,,,,Task,6,(12/2) + 1,7,,,,,,,,,,,,,,,,,,,1,,,,,,,,,,,,,,,,,,,,,,,"[""7""]",1,[3.5906999999881464],0,0,0,5,1,,,,,,,,,,,,,,,,,,
,,,,,,,,,612168de1ee9816a0d4503dc,31,Kobieta,2022-06-04_07h21.33.531,task,2021.1.4,Win32,60.15399423,628b806c463b948bc644b84f,629af946664fff11cecd2423,,,,,,,,,,,X V Q F H G B L J M P D K C T S W R N Z,,,,,,,,,,,,,,,,,,,,,,,,,,,,,,,,,,,,,,,,,,,,,,,,,,,,,,,,,,,,,,,,,,,,,,,,,,,,4,0,4,0,1,,,,,,,,,,,,,
,,,,,,,,,612168de1ee9816a0d4503dc,31,Kobieta,2022-06-04_07h21.33.531,task,2021.1.4,Win32,60.15399423,628b806c463b948bc644b84f,629af946664fff11cecd2423,,,,,,,,,,,,,,,,,,,,,,,,7,,,,,,,,,,Task,31,(4/2) + 5,7,,,,,,,,,,,,,,,,,,,1,,,,,,,,,,,,,,,,,,,,,,,"[""7""]",1,[2.4750000000000227],0,0,0,30,1,,,,,,,,,,,,,,,,,,
,,,,,,,,,612168de1ee9816a0d4503dc,31,Kobieta,2022-06-04_07h21.33.531,task,2021.1.4,Win32,60.15399423,628b806c463b948bc644b84f,629af946664fff11cecd2423,,,,,,,,,,,X V Q F H G B L J M P D K C T S W R N Z,,,,,,,,,,,,,,,,,,,,,,,,,,,,,,,,,,,,,,,,,,,,,,,,,,,,,,,,,,,,,,,,,,,,,,,,,,,,5,0,5,0,1,,,,,,,,,,,,,
,,,,,,,,,612168de1ee9816a0d4503dc,31,Kobieta,2022-06-04_07h21.33.531,task,2021.1.4,Win32,60.15399423,628b806c463b948bc644b84f,629af946664fff11cecd2423,,,,,,,,,,,,,,,,,,,,,,,,3,,,,,,,,,,Task,27,(3/3) + 2,3,,,,,,,,,,,,,,,,,,,1,,,,,,,,,,,,,,,,,,,,,,,"[""3""]",1,[2.0766999999881364],0,0,0,26,1,,,,,,,,,,,,,,,,,,
,,,,,,,,,612168de1ee9816a0d4503dc,31,Kobieta,2022-06-04_07h21.33.531,task,2021.1.4,Win32,60.15399423,628b806c463b948bc644b84f,629af946664fff11cecd2423,,,,,,,,,,,X V Q F H G B L J M P D K C T S W R N Z,,,,,,,,,,,,,,,,,,,,,,,,,,,,,,,,,,,,,,,,,,,,,,,,,,,,,,,,,,,,,,,,,,,,,,,,,,,,6,0,6,0,1,,,,,,,,,,,,,
,,,,,,,,,612168de1ee9816a0d4503dc,31,Kobieta,2022-06-04_07h21.33.531,task,2021.1.4,Win32,60.15399423,628b806c463b948bc644b84f,629af946664fff11cecd2423,,,,,,,,,,,,,,,,,,,,,,,,,,,,,,,,,,,,,,,,,,,,,,,,,,,,,,,,,,,,,,,,,,,,,,,,,,,,,,,,,,,,,,,,,,,,xpxgdzc,"[""x"",""p"",""x"",""g"",""d"",""z"",""c""]",0,"[5.9174999999999045,6.784999999999968,7.601999999999975,11.165300000011825,11.647699999988049,12.36099999999999,13.695300000011912,14.76840000003574]",1,XPXGDZC,5,0,5,0,1,,
,,,,,,,,,612168de1ee9816a0d4503dc,31,Kobieta,2022-06-04_07h21.33.531,task,2021.1.4,Win32,60.15399423,628b806c463b948bc644b84f,629af946664fff11cecd2423,,,,,,,,,,,,,,,,,,,,,,,,3,,,,,,,,,,Task,3,(2x3) - 3,3,,,,,,,,,,,,,,,,,,,1,,,,,,,,,,,,,,,,,,,,,,,"[""3""]",1,[2.5255999999642427],0,0,0,2,1,,,,,,,,,,,,,,,,,,
,,,,,,,,,612168de1ee9816a0d4503dc,31,Kobieta,2022-06-04_07h21.33.531,task,2021.1.4,Win32,60.15399423,628b806c463b948bc644b84f,629af946664fff11cecd2423,,,,,,,,,,,X V Q F H G B L J M P D K C T S W R N Z,,,,,,,,,,,,,,,,,,,,,,,,,,,,,,,,,,,,,,,,,,,,,,,,,,,,,,,,,,,,,,,,,,,,,,,,,,,,0,0,0,0,1,,,,,,,,,,,,,
,,,,,,,,,612168de1ee9816a0d4503dc,31,Kobieta,2022-06-04_07h21.33.531,task,2021.1.4,Win32,60.15399423,628b806c463b948bc644b84f,629af946664fff11cecd2423,,,,,,,,,,,,,,,,,,,,,,,,2,,,,,,,,,,Task,2,(2x2) - 2,2,,,,,,,,,,,,,,,,,,,1,,,,,,,,,,,,,,,,,,,,,,,"[""2""]",1,[2.5590999999642463],0,0,0,1,1,,,,,,,,,,,,,,,,,,
,,,,,,,,,612168de1ee9816a0d4503dc,31,Kobieta,2022-06-04_07h21.33.531,task,2021.1.4,Win32,60.15399423,628b806c463b948bc644b84f,629af946664fff11cecd2423,,,,,,,,,,,X V Q F H G B L J M P D K C T S W R N Z,,,,,,,,,,,,,,,,,,,,,,,,,,,,,,,,,,,,,,,,,,,,,,,,,,,,,,,,,,,,,,,,,,,,,,,,,,,,1,0,1,0,1,,,,,,,,,,,,,
,,,,,,,,,612168de1ee9816a0d4503dc,31,Kobieta,2022-06-04_07h21.33.531,task,2021.1.4,Win32,60.15399423,628b806c463b948bc644b84f,629af946664fff11cecd2423,,,,,,,,,,,,,,,,,,,,,,,,7,,,,,,,,,,Task,14,(2x2) + 3,7,,,,,,,,,,,,,,,,,,,1,,,,,,,,,,,,,,,,,,,,,,,"[""7""]",1,[2.7061999999881436],0,0,0,13,1,,,,,,,,,,,,,,,,,,
,,,,,,,,,612168de1ee9816a0d4503dc,31,Kobieta,2022-06-04_07h21.33.531,task,2021.1.4,Win32,60.15399423,628b806c463b948bc644b84f,629af946664fff11cecd2423,,,,,,,,,,,X V Q F H G B L J M P D K C T S W R N Z,,,,,,,,,,,,,,,,,,,,,,,,,,,,,,,,,,,,,,,,,,,,,,,,,,,,,,,,,,,,,,,,,,,,,,,,,,,,2,0,2,0,1,,,,,,,,,,,,,
,,,,,,,,,612168de1ee9816a0d4503dc,31,Kobieta,2022-06-04_07h21.33.531,task,2021.1.4,Win32,60.15399423,628b806c463b948bc644b84f,629af946664fff11cecd2423,,,,,,,,,,,,,,,,,,,,,,,,7,,,,,,,,,,Task,38,(4x6) - 17,7,,,,,,,,,,,,,,,,,,,1,,,,,,,,,,,,,,,,,,,,,,,"[""7""]",1,[3.903399999976159],0,0,0,37,1,,,,,,,,,,,,,,,,,,
,,,,,,,,,612168de1ee9816a0d4503dc,31,Kobieta,2022-06-04_07h21.33.531,task,2021.1.4,Win32,60.15399423,628b806c463b948bc644b84f,629af946664fff11cecd2423,,,,,,,,,,,X V Q F H G B L J M P D K C T S W R N Z,,,,,,,,,,,,,,,,,,,,,,,,,,,,,,,,,,,,,,,,,,,,,,,,,,,,,,,,,,,,,,,,,,,,,,,,,,,,3,0,3,0,1,,,,,,,,,,,,,
,,,,,,,,,612168de1ee9816a0d4503dc,31,Kobieta,2022-06-04_07h21.33.531,task,2021.1.4,Win32,60.15399423,628b806c463b948bc644b84f,629af946664fff11cecd2423,,,,,,,,,,,,,,,,,,,,,,,,4,,,,,,,,,,Task,21,(10/2) - 1,4,,,,,,,,,,,,,,,,,,,1,,,,,,,,,,,,,,,,,,,,,,,"[""4""]",1,[2.3433999999761],0,0,0,20,1,,,,,,,,,,,,,,,,,,
,,,,,,,,,612168de1ee9816a0d4503dc,31,Kobieta,2022-06-04_07h21.33.531,task,2021.1.4,Win32,60.15399423,628b806c463b948bc644b84f,629af946664fff11cecd2423,,,,,,,,,,,X V Q F H G B L J M P D K C T S W R N Z,,,,,,,,,,,,,,,,,,,,,,,,,,,,,,,,,,,,,,,,,,,,,,,,,,,,,,,,,,,,,,,,,,,,,,,,,,,,4,0,4,0,1,,,,,,,,,,,,,
,,,,,,,,,612168de1ee9816a0d4503dc,31,Kobieta,2022-06-04_07h21.33.531,task,2021.1.4,Win32,60.15399423,628b806c463b948bc644b84f,629af946664fff11cecd2423,,,,,,,,,,,,,,,,,,,,,,,,4,,,,,,,,,,Task,11,(18/3) - 2,4,,,,,,,,,,,,,,,,,,,1,,,,,,,,,,,,,,,,,,,,,,,"[""4""]",1,[2.208100000023819],0,0,0,10,1,,,,,,,,,,,,,,,,,,
,,,,,,,,,612168de1ee9816a0d4503dc,31,Kobieta,2022-06-04_07h21.33.531,task,2021.1.4,Win32,60.15399423,628b806c463b948bc644b84f,629af946664fff11cecd2423,,,,,,,,,,,X V Q F H G B L J M P D K C T S W R N Z,,,,,,,,,,,,,,,,,,,,,,,,,,,,,,,,,,,,,,,,,,,,,,,,,,,,,,,,,,,,,,,,,,,,,,,,,,,,5,0,5,0,1,,,,,,,,,,,,,
,,,,,,,,,612168de1ee9816a0d4503dc,31,Kobieta,2022-06-04_07h21.33.531,task,2021.1.4,Win32,60.15399423,628b806c463b948bc644b84f,629af946664fff11cecd2423,,,,,,,,,,,,,,,,,,,,,,,,7,,,,,,,,,,Task,14,(2x2) + 3,7,,,,,,,,,,,,,,,,,,,1,,,,,,,,,,,,,,,,,,,,,,,"[""7""]",1,[2.6107000000477],0,0,0,13,1,,,,,,,,,,,,,,,,,,
,,,,,,,,,612168de1ee9816a0d4503dc,31,Kobieta,2022-06-04_07h21.33.531,task,2021.1.4,Win32,60.15399423,628b806c463b948bc644b84f,629af946664fff11cecd2423,,,,,,,,,,,X V Q F H G B L J M P D K C T S W R N Z,,,,,,,,,,,,,,,,,,,,,,,,,,,,,,,,,,,,,,,,,,,,,,,,,,,,,,,,,,,,,,,,,,,,,,,,,,,,6,0,6,0,1,,,,,,,,,,,,,
,,,,,,,,,612168de1ee9816a0d4503dc,31,Kobieta,2022-06-04_07h21.33.531,task,2021.1.4,Win32,60.15399423,628b806c463b948bc644b84f,629af946664fff11cecd2423,,,,,,,,,,,,,,,,,,,,,,,,0,,,,,,,,,,Task,33,(1/1) - 1,0,,,,,,,,,,,,,,,,,,,1,,,,,,,,,,,,,,,,,,,,,,,"[""0""]",1,[2.508000000000038],0,0,0,32,1,,,,,,,,,,,,,,,,,,
,,,,,,,,,612168de1ee9816a0d4503dc,31,Kobieta,2022-06-04_07h21.33.531,task,2021.1.4,Win32,60.15399423,628b806c463b948bc644b84f,629af946664fff11cecd2423,,,,,,,,,,,X V Q F H G B L J M P D K C T S W R N Z,,,,,,,,,,,,,,,,,,,,,,,,,,,,,,,,,,,,,,,,,,,,,,,,,,,,,,,,,,,,,,,,,,,,,,,,,,,,7,0,7,0,1,,,,,,,,,,,,,
,,,,,,,,,612168de1ee9816a0d4503dc,31,Kobieta,2022-06-04_07h21.33.531,task,2021.1.4,Win32,60.15399423,628b806c463b948bc644b84f,629af946664fff11cecd2423,,,,,,,,,,,,,,,,,,,,,,,,,,,,,,,,,,,,,,,,,,,,,,,,,,,,,,,,,,,,,,,,,,,,,,,,,,,,,,,,,,,,,,,,,,,,djkjncgv,"[""d"",""j"",""k"",""j"",""n"",""c"",""g"",""v""]",0,"[4.320399999976189,4.968600000023912,5.35060000002386,9.387300000011919,9.838300000011941,14.287600000023872,15.056800000012004,15.788699999988125,16.762199999988184]",1,DJKJNCGV,6,0,6,0,1,,
,,,,,,,,,612168de1ee9816a0d4503dc,31,Kobieta,2022-06-04_07h21.33.531,task,2021.1.4,Win32,60.15399423,628b806c463b948bc644b84f,629af946664fff11cecd2423,,,,,,,,,,,,,,,,,,,,,,,,,,,,,,,,,,Task,7,(3x7) - 12,9,,,,,,,,,,,,,,,,,,,0,,,,,,,,,,,,,,,,,,,,,,,,0,,0,0,0,6,1,,,,,,,,,,,,,,,,,,
,,,,,,,,,612168de1ee9816a0d4503dc,31,Kobieta,2022-06-04_07h21.33.531,task,2021.1.4,Win32,60.15399423,628b806c463b948bc644b84f,629af946664fff11cecd2423,,,,,,,,,,,,,,,,,,,,,,,,1,,,,,,,,,,Task,18,(16/4) - 3,1,,,,,,,,,,,,,,,,,,,1,,,,,,,,,,,,,,,,,,,,,,,"[""1""]",1,[2.138500000000022],0,1,1,17,1,,,,,,,,,,,,,,,,,,
,,,,,,,,,612168de1ee9816a0d4503dc,31,Kobieta,2022-06-04_07h21.33.531,task,2021.1.4,Win32,60.15399423,628b806c463b948bc644b84f,629af946664fff11cecd2423,,,,,,,,,,,X V Q F H G B L J M P D K C T S W R N Z,,,,,,,,,,,,,,,,,,,,,,,,,,,,,,,,,,,,,,,,,,,,,,,,,,,,,,,,,,,,,,,,,,,,,,,,,,,,0,0,0,0,1,,,,,,,,,,,,,
,,,,,,,,,612168de1ee9816a0d4503dc,31,Kobieta,2022-06-04_07h21.33.531,task,2021.1.4,Win32,60.15399423,628b806c463b948bc644b84f,629af946664fff11cecd2423,,,,,,,,,,,,,,,,,,,,,,,,6,,,,,,,,,,Task,13,(3x4) - 6,6,,,,,,,,,,,,,,,,,,,1,,,,,,,,,,,,,,,,,,,,,,,"[""6""]",1,[2.116300000011961],0,0,0,12,1,,,,,,,,,,,,,,,,,,
,,,,,,,,,612168de1ee9816a0d4503dc,31,Kobieta,2022-06-04_07h21.33.531,task,2021.1.4,Win32,60.15399423,628b806c463b948bc644b84f,629af946664fff11cecd2423,,,,,,,,,,,X V Q F H G B L J M P D K C T S W R N Z,,,,,,,,,,,,,,,,,,,,,,,,,,,,,,,,,,,,,,,,,,,,,,,,,,,,,,,,,,,,,,,,,,,,,,,,,,,,1,0,1,0,1,,,,,,,,,,,,,
,,,,,,,,,612168de1ee9816a0d4503dc,31,Kobieta,2022-06-04_07h21.33.531,task,2021.1.4,Win32,60.15399423,628b806c463b948bc644b84f,629af946664fff11cecd2423,,,,,,,,,,,,,,,,,,,,,,,,0,,,,,,,,,,Task,17,(2x3) - 6,0,,,,,,,,,,,,,,,,,,,1,,,,,,,,,,,,,,,,,,,,,,,"[""0""]",1,[3.013100000023769],0,0,0,16,1,,,,,,,,,,,,,,,,,,
,,,,,,,,,612168de1ee9816a0d4503dc,31,Kobieta,2022-06-04_07h21.33.531,task,2021.1.4,Win32,60.15399423,628b806c463b948bc644b84f,629af946664fff11cecd2423,,,,,,,,,,,X V Q F H G B L J M P D K C T S W R N Z,,,,,,,,,,,,,,,,,,,,,,,,,,,,,,,,,,,,,,,,,,,,,,,,,,,,,,,,,,,,,,,,,,,,,,,,,,,,2,0,2,0,1,,,,,,,,,,,,,
