key_resp_15.keys,key_resp_15.rt,key_resp_13.keys,key_resp_13.corr,key_resp_13.rt,ranodm_loop.thisRepN,ranodm_loop.thisTrialN,ranodm_loop.thisN,ranodm_loop.thisIndex,ranodm_loop.ran,participant,Wiek*,Płeć,date,expName,psychopyVersion,OS,frameRate,study_id,session,key_resp_16.keys,key_resp_16.rt,key_resp_4.keys,key_resp_4.rt,next_letter.thisRepN,next_letter.thisTrialN,next_letter.thisN,next_letter.thisIndex,next_letter.ran,letter,simple_recall,key_resp_5.keys,key_resp_5.rt,simple_recall_corr,simple_recall_corrkeys,next_level.thisRepN,next_level.thisTrialN,next_level.thisN,next_level.thisIndex,next_level.ran,key_resp_2.keys,key_resp_2.rt,digit_answer,key_resp.keys,key_resp.corr,key_resp.rt,RT_list,next_equation.thisRepN,next_equation.thisTrialN,next_equation.thisN,next_equation.thisIndex,next_equation.ran,Task,Trial,Problem,Operation_answer,processing_score,sumRT,meanRT,sumdiff,sd,RT,key_resp_3.keys,key_resp_3.rt,repeat_practice.thisRepN,repeat_practice.thisTrialN,repeat_practice.thisN,repeat_practice.thisIndex,repeat_practice.ran,key_resp_6.keys,key_resp_6.rt,key_resp_11.keys,key_resp_11.corr,operation_correct,repeat_if_wrong_prac.thisRepN,repeat_if_wrong_prac.thisTrialN,repeat_if_wrong_prac.thisN,repeat_if_wrong_prac.thisIndex,repeat_if_wrong_prac.ran,key_resp_11.rt,span_size_prac.thisRepN,span_size_prac.thisTrialN,span_size_prac.thisN,span_size_prac.thisIndex,span_size_prac.ran,complex_recall_practice,key_resp_9.keys,key_resp_9.corr,key_resp_9.rt,complex_prac_corr,span_recall_prac.thisRepN,span_recall_prac.thisTrialN,span_recall_prac.thisN,span_recall_prac.thisIndex,span_recall_prac.ran,key_resp_10.keys,key_resp_10.rt,key_resp_7.keys,key_resp_7.corr,key_resp_7.rt,repeat_if_wrong.thisRepN,repeat_if_wrong.thisTrialN,repeat_if_wrong.thisN,repeat_if_wrong.thisIndex,repeat_if_wrong.ran,span_size.thisRepN,span_size.thisTrialN,span_size.thisN,span_size.thisIndex,span_size.ran,complex_recall,key_resp_8.keys,key_resp_8.corr,key_resp_8.rt,complex_recall_corr,complex_recall_corrkeys,span_recall.thisRepN,span_recall.thisTrialN,span_recall.thisN,span_recall.thisIndex,span_recall.ran,key_resp_12.keys,key_resp_12.rt
space,9.5358,"[""comma""]",0,[0.7867000000029805],0,0,0,0,1,61226282383c9553aa4c3e11,21,Kobieta,2022-05-28_09h26.33.001,task,2021.1.4,Win32,60.16847172,628b806c463b948bc644b84f,6291ce94b0323921f0865393,,,,,,,,,,,,,,,,,,,,,,,,,,,,,,,,,,,,,,,,,,,,,,,,,,,,,,,,,,,,,,,,,,,,,,,,,,,,,,,,,,,,,,,,,,,,,,,,,,,,,,,
,,"[""period""]",0,[0.38309999999404454],1,0,1,0,1,61226282383c9553aa4c3e11,21,Kobieta,2022-05-28_09h26.33.001,task,2021.1.4,Win32,60.16847172,628b806c463b948bc644b84f,6291ce94b0323921f0865393,,,,,,,,,,,,,,,,,,,,,,,,,,,,,,,,,,,,,,,,,,,,,,,,,,,,,,,,,,,,,,,,,,,,,,,,,,,,,,,,,,,,,,,,,,,,,,,,,,,,,,,
,,"[""period""]",0,[0.2346000000089532],2,0,2,0,1,61226282383c9553aa4c3e11,21,Kobieta,2022-05-28_09h26.33.001,task,2021.1.4,Win32,60.16847172,628b806c463b948bc644b84f,6291ce94b0323921f0865393,,,,,,,,,,,,,,,,,,,,,,,,,,,,,,,,,,,,,,,,,,,,,,,,,,,,,,,,,,,,,,,,,,,,,,,,,,,,,,,,,,,,,,,,,,,,,,,,,,,,,,,
,,"[""comma""]",0,[0.2381000000089415],3,0,3,0,1,61226282383c9553aa4c3e11,21,Kobieta,2022-05-28_09h26.33.001,task,2021.1.4,Win32,60.16847172,628b806c463b948bc644b84f,6291ce94b0323921f0865393,,,,,,,,,,,,,,,,,,,,,,,,,,,,,,,,,,,,,,,,,,,,,,,,,,,,,,,,,,,,,,,,,,,,,,,,,,,,,,,,,,,,,,,,,,,,,,,,,,,,,,,
,,"[""period""]",0,[0.48309999999403885],4,0,4,0,1,61226282383c9553aa4c3e11,21,Kobieta,2022-05-28_09h26.33.001,task,2021.1.4,Win32,60.16847172,628b806c463b948bc644b84f,6291ce94b0323921f0865393,,,,,,,,,,,,,,,,,,,,,,,,,,,,,,,,,,,,,,,,,,,,,,,,,,,,,,,,,,,,,,,,,,,,,,,,,,,,,,,,,,,,,,,,,,,,,,,,,,,,,,,
,,"[""period""]",0,[0.36719999998807396],5,0,5,0,1,61226282383c9553aa4c3e11,21,Kobieta,2022-05-28_09h26.33.001,task,2021.1.4,Win32,60.16847172,628b806c463b948bc644b84f,6291ce94b0323921f0865393,,,,,,,,,,,,,,,,,,,,,,,,,,,,,,,,,,,,,,,,,,,,,,,,,,,,,,,,,,,,,,,,,,,,,,,,,,,,,,,,,,,,,,,,,,,,,,,,,,,,,,,
,,"[""comma""]",0,[0.28779999999702],6,0,6,0,1,61226282383c9553aa4c3e11,21,Kobieta,2022-05-28_09h26.33.001,task,2021.1.4,Win32,60.16847172,628b806c463b948bc644b84f,6291ce94b0323921f0865393,,,,,,,,,,,,,,,,,,,,,,,,,,,,,,,,,,,,,,,,,,,,,,,,,,,,,,,,,,,,,,,,,,,,,,,,,,,,,,,,,,,,,,,,,,,,,,,,,,,,,,,
,,"[""comma""]",0,[0.3047999999970301],7,0,7,0,1,61226282383c9553aa4c3e11,21,Kobieta,2022-05-28_09h26.33.001,task,2021.1.4,Win32,60.16847172,628b806c463b948bc644b84f,6291ce94b0323921f0865393,,,,,,,,,,,,,,,,,,,,,,,,,,,,,,,,,,,,,,,,,,,,,,,,,,,,,,,,,,,,,,,,,,,,,,,,,,,,,,,,,,,,,,,,,,,,,,,,,,,,,,,
,,"[""period""]",0,[0.2693999999910659],8,0,8,0,1,61226282383c9553aa4c3e11,21,Kobieta,2022-05-28_09h26.33.001,task,2021.1.4,Win32,60.16847172,628b806c463b948bc644b84f,6291ce94b0323921f0865393,,,,,,,,,,,,,,,,,,,,,,,,,,,,,,,,,,,,,,,,,,,,,,,,,,,,,,,,,,,,,,,,,,,,,,,,,,,,,,,,,,,,,,,,,,,,,,,,,,,,,,,
,,"[""comma""]",0,[0.2526000000089539],9,0,9,0,1,61226282383c9553aa4c3e11,21,Kobieta,2022-05-28_09h26.33.001,task,2021.1.4,Win32,60.16847172,628b806c463b948bc644b84f,6291ce94b0323921f0865393,,,,,,,,,,,,,,,,,,,,,,,,,,,,,,,,,,,,,,,,,,,,,,,,,,,,,,,,,,,,,,,,,,,,,,,,,,,,,,,,,,,,,,,,,,,,,,,,,,,,,,,
,,"[""period""]",0,[0.27089999999105885],10,0,10,0,1,61226282383c9553aa4c3e11,21,Kobieta,2022-05-28_09h26.33.001,task,2021.1.4,Win32,60.16847172,628b806c463b948bc644b84f,6291ce94b0323921f0865393,,,,,,,,,,,,,,,,,,,,,,,,,,,,,,,,,,,,,,,,,,,,,,,,,,,,,,,,,,,,,,,,,,,,,,,,,,,,,,,,,,,,,,,,,,,,,,,,,,,,,,,
,,"[""period""]",0,[0.25200000000000955],11,0,11,0,1,61226282383c9553aa4c3e11,21,Kobieta,2022-05-28_09h26.33.001,task,2021.1.4,Win32,60.16847172,628b806c463b948bc644b84f,6291ce94b0323921f0865393,,,,,,,,,,,,,,,,,,,,,,,,,,,,,,,,,,,,,,,,,,,,,,,,,,,,,,,,,,,,,,,,,,,,,,,,,,,,,,,,,,,,,,,,,,,,,,,,,,,,,,,
,,"[""period""]",0,[0.26789999999105873],12,0,12,0,1,61226282383c9553aa4c3e11,21,Kobieta,2022-05-28_09h26.33.001,task,2021.1.4,Win32,60.16847172,628b806c463b948bc644b84f,6291ce94b0323921f0865393,,,,,,,,,,,,,,,,,,,,,,,,,,,,,,,,,,,,,,,,,,,,,,,,,,,,,,,,,,,,,,,,,,,,,,,,,,,,,,,,,,,,,,,,,,,,,,,,,,,,,,,
,,"[""comma""]",0,[0.24129999999701113],13,0,13,0,1,61226282383c9553aa4c3e11,21,Kobieta,2022-05-28_09h26.33.001,task,2021.1.4,Win32,60.16847172,628b806c463b948bc644b84f,6291ce94b0323921f0865393,,,,,,,,,,,,,,,,,,,,,,,,,,,,,,,,,,,,,,,,,,,,,,,,,,,,,,,,,,,,,,,,,,,,,,,,,,,,,,,,,,,,,,,,,,,,,,,,,,,,,,,
,,"[""comma""]",0,[0.23210000000894127],14,0,14,0,1,61226282383c9553aa4c3e11,21,Kobieta,2022-05-28_09h26.33.001,task,2021.1.4,Win32,60.16847172,628b806c463b948bc644b84f,6291ce94b0323921f0865393,,,,,,,,,,,,,,,,,,,,,,,,,,,,,,,,,,,,,,,,,,,,,,,,,,,,,,,,,,,,,,,,,,,,,,,,,,,,,,,,,,,,,,,,,,,,,,,,,,,,,,,
,,"[""period""]",0,[0.2694000000059589],15,0,15,0,1,61226282383c9553aa4c3e11,21,Kobieta,2022-05-28_09h26.33.001,task,2021.1.4,Win32,60.16847172,628b806c463b948bc644b84f,6291ce94b0323921f0865393,,,,,,,,,,,,,,,,,,,,,,,,,,,,,,,,,,,,,,,,,,,,,,,,,,,,,,,,,,,,,,,,,,,,,,,,,,,,,,,,,,,,,,,,,,,,,,,,,,,,,,,
,,"[""comma""]",0,[0.2404000000059625],16,0,16,0,1,61226282383c9553aa4c3e11,21,Kobieta,2022-05-28_09h26.33.001,task,2021.1.4,Win32,60.16847172,628b806c463b948bc644b84f,6291ce94b0323921f0865393,,,,,,,,,,,,,,,,,,,,,,,,,,,,,,,,,,,,,,,,,,,,,,,,,,,,,,,,,,,,,,,,,,,,,,,,,,,,,,,,,,,,,,,,,,,,,,,,,,,,,,,
,,"[""comma""]",0,[0.23420000000298558],17,0,17,0,1,61226282383c9553aa4c3e11,21,Kobieta,2022-05-28_09h26.33.001,task,2021.1.4,Win32,60.16847172,628b806c463b948bc644b84f,6291ce94b0323921f0865393,,,,,,,,,,,,,,,,,,,,,,,,,,,,,,,,,,,,,,,,,,,,,,,,,,,,,,,,,,,,,,,,,,,,,,,,,,,,,,,,,,,,,,,,,,,,,,,,,,,,,,,
,,"[""comma""]",0,[0.25109999999403954],18,0,18,0,1,61226282383c9553aa4c3e11,21,Kobieta,2022-05-28_09h26.33.001,task,2021.1.4,Win32,60.16847172,628b806c463b948bc644b84f,6291ce94b0323921f0865393,,,,,,,,,,,,,,,,,,,,,,,,,,,,,,,,,,,,,,,,,,,,,,,,,,,,,,,,,,,,,,,,,,,,,,,,,,,,,,,,,,,,,,,,,,,,,,,,,,,,,,,
,,"[""period""]",0,[0.25150000000000716],19,0,19,0,1,61226282383c9553aa4c3e11,21,Kobieta,2022-05-28_09h26.33.001,task,2021.1.4,Win32,60.16847172,628b806c463b948bc644b84f,6291ce94b0323921f0865393,,,,,,,,,,,,,,,,,,,,,,,,,,,,,,,,,,,,,,,,,,,,,,,,,,,,,,,,,,,,,,,,,,,,,,,,,,,,,,,,,,,,,,,,,,,,,,,,,,,,,,,
,,"[""comma""]",0,[0.23290000000595512],20,0,20,0,1,61226282383c9553aa4c3e11,21,Kobieta,2022-05-28_09h26.33.001,task,2021.1.4,Win32,60.16847172,628b806c463b948bc644b84f,6291ce94b0323921f0865393,,,,,,,,,,,,,,,,,,,,,,,,,,,,,,,,,,,,,,,,,,,,,,,,,,,,,,,,,,,,,,,,,,,,,,,,,,,,,,,,,,,,,,,,,,,,,,,,,,,,,,,
,,"[""period""]",0,[0.21869999998807543],21,0,21,0,1,61226282383c9553aa4c3e11,21,Kobieta,2022-05-28_09h26.33.001,task,2021.1.4,Win32,60.16847172,628b806c463b948bc644b84f,6291ce94b0323921f0865393,,,,,,,,,,,,,,,,,,,,,,,,,,,,,,,,,,,,,,,,,,,,,,,,,,,,,,,,,,,,,,,,,,,,,,,,,,,,,,,,,,,,,,,,,,,,,,,,,,,,,,,
,,"[""period""]",0,[0.7025000000000006],22,0,22,0,1,61226282383c9553aa4c3e11,21,Kobieta,2022-05-28_09h26.33.001,task,2021.1.4,Win32,60.16847172,628b806c463b948bc644b84f,6291ce94b0323921f0865393,,,,,,,,,,,,,,,,,,,,,,,,,,,,,,,,,,,,,,,,,,,,,,,,,,,,,,,,,,,,,,,,,,,,,,,,,,,,,,,,,,,,,,,,,,,,,,,,,,,,,,,
,,"[""period""]",0,[0.4087999999970151],23,0,23,0,1,61226282383c9553aa4c3e11,21,Kobieta,2022-05-28_09h26.33.001,task,2021.1.4,Win32,60.16847172,628b806c463b948bc644b84f,6291ce94b0323921f0865393,,,,,,,,,,,,,,,,,,,,,,,,,,,,,,,,,,,,,,,,,,,,,,,,,,,,,,,,,,,,,,,,,,,,,,,,,,,,,,,,,,,,,,,,,,,,,,,,,,,,,,,
,,"[""comma""]",0,[0.3386000000089382],24,0,24,0,1,61226282383c9553aa4c3e11,21,Kobieta,2022-05-28_09h26.33.001,task,2021.1.4,Win32,60.16847172,628b806c463b948bc644b84f,6291ce94b0323921f0865393,,,,,,,,,,,,,,,,,,,,,,,,,,,,,,,,,,,,,,,,,,,,,,,,,,,,,,,,,,,,,,,,,,,,,,,,,,,,,,,,,,,,,,,,,,,,,,,,,,,,,,,
,,"[""comma""]",0,[0.3908999999910634],25,0,25,0,1,61226282383c9553aa4c3e11,21,Kobieta,2022-05-28_09h26.33.001,task,2021.1.4,Win32,60.16847172,628b806c463b948bc644b84f,6291ce94b0323921f0865393,,,,,,,,,,,,,,,,,,,,,,,,,,,,,,,,,,,,,,,,,,,,,,,,,,,,,,,,,,,,,,,,,,,,,,,,,,,,,,,,,,,,,,,,,,,,,,,,,,,,,,,
,,"[""period""]",0,[0.25239999999107],26,0,26,0,1,61226282383c9553aa4c3e11,21,Kobieta,2022-05-28_09h26.33.001,task,2021.1.4,Win32,60.16847172,628b806c463b948bc644b84f,6291ce94b0323921f0865393,,,,,,,,,,,,,,,,,,,,,,,,,,,,,,,,,,,,,,,,,,,,,,,,,,,,,,,,,,,,,,,,,,,,,,,,,,,,,,,,,,,,,,,,,,,,,,,,,,,,,,,
,,"[""comma""]",0,[0.30440000000595546],27,0,27,0,1,61226282383c9553aa4c3e11,21,Kobieta,2022-05-28_09h26.33.001,task,2021.1.4,Win32,60.16847172,628b806c463b948bc644b84f,6291ce94b0323921f0865393,,,,,,,,,,,,,,,,,,,,,,,,,,,,,,,,,,,,,,,,,,,,,,,,,,,,,,,,,,,,,,,,,,,,,,,,,,,,,,,,,,,,,,,,,,,,,,,,,,,,,,,
,,"[""period""]",0,[0.28879999999702477],28,0,28,0,1,61226282383c9553aa4c3e11,21,Kobieta,2022-05-28_09h26.33.001,task,2021.1.4,Win32,60.16847172,628b806c463b948bc644b84f,6291ce94b0323921f0865393,,,,,,,,,,,,,,,,,,,,,,,,,,,,,,,,,,,,,,,,,,,,,,,,,,,,,,,,,,,,,,,,,,,,,,,,,,,,,,,,,,,,,,,,,,,,,,,,,,,,,,,
,,"[""period""]",0,[0.2712000000029775],29,0,29,0,1,61226282383c9553aa4c3e11,21,Kobieta,2022-05-28_09h26.33.001,task,2021.1.4,Win32,60.16847172,628b806c463b948bc644b84f,6291ce94b0323921f0865393,,,,,,,,,,,,,,,,,,,,,,,,,,,,,,,,,,,,,,,,,,,,,,,,,,,,,,,,,,,,,,,,,,,,,,,,,,,,,,,,,,,,,,,,,,,,,,,,,,,,,,,
,,"[""comma""]",0,[0.25329999999704],30,0,30,0,1,61226282383c9553aa4c3e11,21,Kobieta,2022-05-28_09h26.33.001,task,2021.1.4,Win32,60.16847172,628b806c463b948bc644b84f,6291ce94b0323921f0865393,,,,,,,,,,,,,,,,,,,,,,,,,,,,,,,,,,,,,,,,,,,,,,,,,,,,,,,,,,,,,,,,,,,,,,,,,,,,,,,,,,,,,,,,,,,,,,,,,,,,,,,
,,"[""comma""]",0,[0.24239999999105066],31,0,31,0,1,61226282383c9553aa4c3e11,21,Kobieta,2022-05-28_09h26.33.001,task,2021.1.4,Win32,60.16847172,628b806c463b948bc644b84f,6291ce94b0323921f0865393,,,,,,,,,,,,,,,,,,,,,,,,,,,,,,,,,,,,,,,,,,,,,,,,,,,,,,,,,,,,,,,,,,,,,,,,,,,,,,,,,,,,,,,,,,,,,,,,,,,,,,,
,,"[""comma""]",0,[0.2584000000059632],32,0,32,0,1,61226282383c9553aa4c3e11,21,Kobieta,2022-05-28_09h26.33.001,task,2021.1.4,Win32,60.16847172,628b806c463b948bc644b84f,6291ce94b0323921f0865393,,,,,,,,,,,,,,,,,,,,,,,,,,,,,,,,,,,,,,,,,,,,,,,,,,,,,,,,,,,,,,,,,,,,,,,,,,,,,,,,,,,,,,,,,,,,,,,,,,,,,,,
,,"[""comma""]",0,[0.25359999999403726],33,0,33,0,1,61226282383c9553aa4c3e11,21,Kobieta,2022-05-28_09h26.33.001,task,2021.1.4,Win32,60.16847172,628b806c463b948bc644b84f,6291ce94b0323921f0865393,,,,,,,,,,,,,,,,,,,,,,,,,,,,,,,,,,,,,,,,,,,,,,,,,,,,,,,,,,,,,,,,,,,,,,,,,,,,,,,,,,,,,,,,,,,,,,,,,,,,,,,
,,"[""period""]",0,[0.24150000000000205],34,0,34,0,1,61226282383c9553aa4c3e11,21,Kobieta,2022-05-28_09h26.33.001,task,2021.1.4,Win32,60.16847172,628b806c463b948bc644b84f,6291ce94b0323921f0865393,,,,,,,,,,,,,,,,,,,,,,,,,,,,,,,,,,,,,,,,,,,,,,,,,,,,,,,,,,,,,,,,,,,,,,,,,,,,,,,,,,,,,,,,,,,,,,,,,,,,,,,
,,"[""comma""]",0,[0.2357999999970275],35,0,35,0,1,61226282383c9553aa4c3e11,21,Kobieta,2022-05-28_09h26.33.001,task,2021.1.4,Win32,60.16847172,628b806c463b948bc644b84f,6291ce94b0323921f0865393,,,,,,,,,,,,,,,,,,,,,,,,,,,,,,,,,,,,,,,,,,,,,,,,,,,,,,,,,,,,,,,,,,,,,,,,,,,,,,,,,,,,,,,,,,,,,,,,,,,,,,,
,,"[""period""]",0,[0.22420000000298046],36,0,36,0,1,61226282383c9553aa4c3e11,21,Kobieta,2022-05-28_09h26.33.001,task,2021.1.4,Win32,60.16847172,628b806c463b948bc644b84f,6291ce94b0323921f0865393,,,,,,,,,,,,,,,,,,,,,,,,,,,,,,,,,,,,,,,,,,,,,,,,,,,,,,,,,,,,,,,,,,,,,,,,,,,,,,,,,,,,,,,,,,,,,,,,,,,,,,,
,,"[""period""]",0,[0.2330000000000041],37,0,37,0,1,61226282383c9553aa4c3e11,21,Kobieta,2022-05-28_09h26.33.001,task,2021.1.4,Win32,60.16847172,628b806c463b948bc644b84f,6291ce94b0323921f0865393,,,,,,,,,,,,,,,,,,,,,,,,,,,,,,,,,,,,,,,,,,,,,,,,,,,,,,,,,,,,,,,,,,,,,,,,,,,,,,,,,,,,,,,,,,,,,,,,,,,,,,,
,,"[""comma""]",0,[0.23910000000893206],38,0,38,0,1,61226282383c9553aa4c3e11,21,Kobieta,2022-05-28_09h26.33.001,task,2021.1.4,Win32,60.16847172,628b806c463b948bc644b84f,6291ce94b0323921f0865393,,,,,,,,,,,,,,,,,,,,,,,,,,,,,,,,,,,,,,,,,,,,,,,,,,,,,,,,,,,,,,,,,,,,,,,,,,,,,,,,,,,,,,,,,,,,,,,,,,,,,,,
,,"[""comma""]",0,[0.2548999999910677],39,0,39,0,1,61226282383c9553aa4c3e11,21,Kobieta,2022-05-28_09h26.33.001,task,2021.1.4,Win32,60.16847172,628b806c463b948bc644b84f,6291ce94b0323921f0865393,,,,,,,,,,,,,,,,,,,,,,,,,,,,,,,,,,,,,,,,,,,,,,,,,,,,,,,,,,,,,,,,,,,,,,,,,,,,,,,,,,,,,,,,,,,,,,,,,,,,,,,
,,"[""period""]",0,[0.2716000000089309],40,0,40,0,1,61226282383c9553aa4c3e11,21,Kobieta,2022-05-28_09h26.33.001,task,2021.1.4,Win32,60.16847172,628b806c463b948bc644b84f,6291ce94b0323921f0865393,,,,,,,,,,,,,,,,,,,,,,,,,,,,,,,,,,,,,,,,,,,,,,,,,,,,,,,,,,,,,,,,,,,,,,,,,,,,,,,,,,,,,,,,,,,,,,,,,,,,,,,
,,"[""period""]",0,[0.2418000000119207],41,0,41,0,1,61226282383c9553aa4c3e11,21,Kobieta,2022-05-28_09h26.33.001,task,2021.1.4,Win32,60.16847172,628b806c463b948bc644b84f,6291ce94b0323921f0865393,,,,,,,,,,,,,,,,,,,,,,,,,,,,,,,,,,,,,,,,,,,,,,,,,,,,,,,,,,,,,,,,,,,,,,,,,,,,,,,,,,,,,,,,,,,,,,,,,,,,,,,
,,"[""period""]",0,[0.319500000000005],42,0,42,0,1,61226282383c9553aa4c3e11,21,Kobieta,2022-05-28_09h26.33.001,task,2021.1.4,Win32,60.16847172,628b806c463b948bc644b84f,6291ce94b0323921f0865393,,,,,,,,,,,,,,,,,,,,,,,,,,,,,,,,,,,,,,,,,,,,,,,,,,,,,,,,,,,,,,,,,,,,,,,,,,,,,,,,,,,,,,,,,,,,,,,,,,,,,,,
,,"[""period""]",0,[0.2660999999940259],43,0,43,0,1,61226282383c9553aa4c3e11,21,Kobieta,2022-05-28_09h26.33.001,task,2021.1.4,Win32,60.16847172,628b806c463b948bc644b84f,6291ce94b0323921f0865393,,,,,,,,,,,,,,,,,,,,,,,,,,,,,,,,,,,,,,,,,,,,,,,,,,,,,,,,,,,,,,,,,,,,,,,,,,,,,,,,,,,,,,,,,,,,,,,,,,,,,,,
,,"[""period""]",0,[0.3062000000029741],44,0,44,0,1,61226282383c9553aa4c3e11,21,Kobieta,2022-05-28_09h26.33.001,task,2021.1.4,Win32,60.16847172,628b806c463b948bc644b84f,6291ce94b0323921f0865393,,,,,,,,,,,,,,,,,,,,,,,,,,,,,,,,,,,,,,,,,,,,,,,,,,,,,,,,,,,,,,,,,,,,,,,,,,,,,,,,,,,,,,,,,,,,,,,,,,,,,,,
,,"[""comma""]",0,[0.18829999999704228],45,0,45,0,1,61226282383c9553aa4c3e11,21,Kobieta,2022-05-28_09h26.33.001,task,2021.1.4,Win32,60.16847172,628b806c463b948bc644b84f,6291ce94b0323921f0865393,,,,,,,,,,,,,,,,,,,,,,,,,,,,,,,,,,,,,,,,,,,,,,,,,,,,,,,,,,,,,,,,,,,,,,,,,,,,,,,,,,,,,,,,,,,,,,,,,,,,,,,
,,"[""period""]",0,[0.2702999999970075],46,0,46,0,1,61226282383c9553aa4c3e11,21,Kobieta,2022-05-28_09h26.33.001,task,2021.1.4,Win32,60.16847172,628b806c463b948bc644b84f,6291ce94b0323921f0865393,,,,,,,,,,,,,,,,,,,,,,,,,,,,,,,,,,,,,,,,,,,,,,,,,,,,,,,,,,,,,,,,,,,,,,,,,,,,,,,,,,,,,,,,,,,,,,,,,,,,,,,
,,"[""comma""]",0,[0.2690999999940402],47,0,47,0,1,61226282383c9553aa4c3e11,21,Kobieta,2022-05-28_09h26.33.001,task,2021.1.4,Win32,60.16847172,628b806c463b948bc644b84f,6291ce94b0323921f0865393,,,,,,,,,,,,,,,,,,,,,,,,,,,,,,,,,,,,,,,,,,,,,,,,,,,,,,,,,,,,,,,,,,,,,,,,,,,,,,,,,,,,,,,,,,,,,,,,,,,,,,,
,,"[""comma""]",0,[0.23910000000893206],48,0,48,0,1,61226282383c9553aa4c3e11,21,Kobieta,2022-05-28_09h26.33.001,task,2021.1.4,Win32,60.16847172,628b806c463b948bc644b84f,6291ce94b0323921f0865393,,,,,,,,,,,,,,,,,,,,,,,,,,,,,,,,,,,,,,,,,,,,,,,,,,,,,,,,,,,,,,,,,,,,,,,,,,,,,,,,,,,,,,,,,,,,,,,,,,,,,,,
,,"[""comma""]",0,[0.26550000000000296],49,0,49,0,1,61226282383c9553aa4c3e11,21,Kobieta,2022-05-28_09h26.33.001,task,2021.1.4,Win32,60.16847172,628b806c463b948bc644b84f,6291ce94b0323921f0865393,,,,,,,,,,,,,,,,,,,,,,,,,,,,,,,,,,,,,,,,,,,,,,,,,,,,,,,,,,,,,,,,,,,,,,,,,,,,,,,,,,,,,,,,,,,,,,,,,,,,,,,
,,"[""period""]",0,[0.33590000000594955],50,0,50,0,1,61226282383c9553aa4c3e11,21,Kobieta,2022-05-28_09h26.33.001,task,2021.1.4,Win32,60.16847172,628b806c463b948bc644b84f,6291ce94b0323921f0865393,,,,,,,,,,,,,,,,,,,,,,,,,,,,,,,,,,,,,,,,,,,,,,,,,,,,,,,,,,,,,,,,,,,,,,,,,,,,,,,,,,,,,,,,,,,,,,,,,,,,,,,
,,"[""comma""]",0,[0.2581000000089375],51,0,51,0,1,61226282383c9553aa4c3e11,21,Kobieta,2022-05-28_09h26.33.001,task,2021.1.4,Win32,60.16847172,628b806c463b948bc644b84f,6291ce94b0323921f0865393,,,,,,,,,,,,,,,,,,,,,,,,,,,,,,,,,,,,,,,,,,,,,,,,,,,,,,,,,,,,,,,,,,,,,,,,,,,,,,,,,,,,,,,,,,,,,,,,,,,,,,,
,,"[""period""]",0,[0.6693999999910432],52,0,52,0,1,61226282383c9553aa4c3e11,21,Kobieta,2022-05-28_09h26.33.001,task,2021.1.4,Win32,60.16847172,628b806c463b948bc644b84f,6291ce94b0323921f0865393,,,,,,,,,,,,,,,,,,,,,,,,,,,,,,,,,,,,,,,,,,,,,,,,,,,,,,,,,,,,,,,,,,,,,,,,,,,,,,,,,,,,,,,,,,,,,,,,,,,,,,,
,,"[""comma""]",0,[0.36949999999998795],53,0,53,0,1,61226282383c9553aa4c3e11,21,Kobieta,2022-05-28_09h26.33.001,task,2021.1.4,Win32,60.16847172,628b806c463b948bc644b84f,6291ce94b0323921f0865393,,,,,,,,,,,,,,,,,,,,,,,,,,,,,,,,,,,,,,,,,,,,,,,,,,,,,,,,,,,,,,,,,,,,,,,,,,,,,,,,,,,,,,,,,,,,,,,,,,,,,,,
,,"[""comma""]",0,[0.2376000000089391],54,0,54,0,1,61226282383c9553aa4c3e11,21,Kobieta,2022-05-28_09h26.33.001,task,2021.1.4,Win32,60.16847172,628b806c463b948bc644b84f,6291ce94b0323921f0865393,,,,,,,,,,,,,,,,,,,,,,,,,,,,,,,,,,,,,,,,,,,,,,,,,,,,,,,,,,,,,,,,,,,,,,,,,,,,,,,,,,,,,,,,,,,,,,,,,,,,,,,
,,"[""period""]",0,[0.29720000000298796],55,0,55,0,1,61226282383c9553aa4c3e11,21,Kobieta,2022-05-28_09h26.33.001,task,2021.1.4,Win32,60.16847172,628b806c463b948bc644b84f,6291ce94b0323921f0865393,,,,,,,,,,,,,,,,,,,,,,,,,,,,,,,,,,,,,,,,,,,,,,,,,,,,,,,,,,,,,,,,,,,,,,,,,,,,,,,,,,,,,,,,,,,,,,,,,,,,,,,
,,"[""period""]",0,[0.2557999999970093],56,0,56,0,1,61226282383c9553aa4c3e11,21,Kobieta,2022-05-28_09h26.33.001,task,2021.1.4,Win32,60.16847172,628b806c463b948bc644b84f,6291ce94b0323921f0865393,,,,,,,,,,,,,,,,,,,,,,,,,,,,,,,,,,,,,,,,,,,,,,,,,,,,,,,,,,,,,,,,,,,,,,,,,,,,,,,,,,,,,,,,,,,,,,,,,,,,,,,
,,"[""comma""]",0,[0.2523000000119282],57,0,57,0,1,61226282383c9553aa4c3e11,21,Kobieta,2022-05-28_09h26.33.001,task,2021.1.4,Win32,60.16847172,628b806c463b948bc644b84f,6291ce94b0323921f0865393,,,,,,,,,,,,,,,,,,,,,,,,,,,,,,,,,,,,,,,,,,,,,,,,,,,,,,,,,,,,,,,,,,,,,,,,,,,,,,,,,,,,,,,,,,,,,,,,,,,,,,,
,,"[""period""]",0,[0.2265000000000157],58,0,58,0,1,61226282383c9553aa4c3e11,21,Kobieta,2022-05-28_09h26.33.001,task,2021.1.4,Win32,60.16847172,628b806c463b948bc644b84f,6291ce94b0323921f0865393,,,,,,,,,,,,,,,,,,,,,,,,,,,,,,,,,,,,,,,,,,,,,,,,,,,,,,,,,,,,,,,,,,,,,,,,,,,,,,,,,,,,,,,,,,,,,,,,,,,,,,,
,,"[""period""]",0,[0.2696999999880916],59,0,59,0,1,61226282383c9553aa4c3e11,21,Kobieta,2022-05-28_09h26.33.001,task,2021.1.4,Win32,60.16847172,628b806c463b948bc644b84f,6291ce94b0323921f0865393,,,,,,,,,,,,,,,,,,,,,,,,,,,,,,,,,,,,,,,,,,,,,,,,,,,,,,,,,,,,,,,,,,,,,,,,,,,,,,,,,,,,,,,,,,,,,,,,,,,,,,,
,,"[""comma""]",0,[0.3347000000029823],60,0,60,0,1,61226282383c9553aa4c3e11,21,Kobieta,2022-05-28_09h26.33.001,task,2021.1.4,Win32,60.16847172,628b806c463b948bc644b84f,6291ce94b0323921f0865393,,,,,,,,,,,,,,,,,,,,,,,,,,,,,,,,,,,,,,,,,,,,,,,,,,,,,,,,,,,,,,,,,,,,,,,,,,,,,,,,,,,,,,,,,,,,,,,,,,,,,,,
,,"[""comma""]",0,[0.2719000000059566],61,0,61,0,1,61226282383c9553aa4c3e11,21,Kobieta,2022-05-28_09h26.33.001,task,2021.1.4,Win32,60.16847172,628b806c463b948bc644b84f,6291ce94b0323921f0865393,,,,,,,,,,,,,,,,,,,,,,,,,,,,,,,,,,,,,,,,,,,,,,,,,,,,,,,,,,,,,,,,,,,,,,,,,,,,,,,,,,,,,,,,,,,,,,,,,,,,,,,
,,"[""period""]",0,[0.20129999999701909],62,0,62,0,1,61226282383c9553aa4c3e11,21,Kobieta,2022-05-28_09h26.33.001,task,2021.1.4,Win32,60.16847172,628b806c463b948bc644b84f,6291ce94b0323921f0865393,,,,,,,,,,,,,,,,,,,,,,,,,,,,,,,,,,,,,,,,,,,,,,,,,,,,,,,,,,,,,,,,,,,,,,,,,,,,,,,,,,,,,,,,,,,,,,,,,,,,,,,
,,"[""period""]",0,[0.2707000000029609],63,0,63,0,1,61226282383c9553aa4c3e11,21,Kobieta,2022-05-28_09h26.33.001,task,2021.1.4,Win32,60.16847172,628b806c463b948bc644b84f,6291ce94b0323921f0865393,,,,,,,,,,,,,,,,,,,,,,,,,,,,,,,,,,,,,,,,,,,,,,,,,,,,,,,,,,,,,,,,,,,,,,,,,,,,,,,,,,,,,,,,,,,,,,,,,,,,,,,
,,"[""period""]",0,[0.3607000000029643],64,0,64,0,1,61226282383c9553aa4c3e11,21,Kobieta,2022-05-28_09h26.33.001,task,2021.1.4,Win32,60.16847172,628b806c463b948bc644b84f,6291ce94b0323921f0865393,,,,,,,,,,,,,,,,,,,,,,,,,,,,,,,,,,,,,,,,,,,,,,,,,,,,,,,,,,,,,,,,,,,,,,,,,,,,,,,,,,,,,,,,,,,,,,,,,,,,,,,
,,"[""comma""]",0,[0.2769999999999868],65,0,65,0,1,61226282383c9553aa4c3e11,21,Kobieta,2022-05-28_09h26.33.001,task,2021.1.4,Win32,60.16847172,628b806c463b948bc644b84f,6291ce94b0323921f0865393,,,,,,,,,,,,,,,,,,,,,,,,,,,,,,,,,,,,,,,,,,,,,,,,,,,,,,,,,,,,,,,,,,,,,,,,,,,,,,,,,,,,,,,,,,,,,,,,,,,,,,,
,,"[""comma""]",0,[0.28329999999704114],66,0,66,0,1,61226282383c9553aa4c3e11,21,Kobieta,2022-05-28_09h26.33.001,task,2021.1.4,Win32,60.16847172,628b806c463b948bc644b84f,6291ce94b0323921f0865393,,,,,,,,,,,,,,,,,,,,,,,,,,,,,,,,,,,,,,,,,,,,,,,,,,,,,,,,,,,,,,,,,,,,,,,,,,,,,,,,,,,,,,,,,,,,,,,,,,,,,,,
,,"[""period""]",0,[0.27370000000300365],67,0,67,0,1,61226282383c9553aa4c3e11,21,Kobieta,2022-05-28_09h26.33.001,task,2021.1.4,Win32,60.16847172,628b806c463b948bc644b84f,6291ce94b0323921f0865393,,,,,,,,,,,,,,,,,,,,,,,,,,,,,,,,,,,,,,,,,,,,,,,,,,,,,,,,,,,,,,,,,,,,,,,,,,,,,,,,,,,,,,,,,,,,,,,,,,,,,,,
,,"[""comma""]",0,[0.26710000000895207],68,0,68,0,1,61226282383c9553aa4c3e11,21,Kobieta,2022-05-28_09h26.33.001,task,2021.1.4,Win32,60.16847172,628b806c463b948bc644b84f,6291ce94b0323921f0865393,,,,,,,,,,,,,,,,,,,,,,,,,,,,,,,,,,,,,,,,,,,,,,,,,,,,,,,,,,,,,,,,,,,,,,,,,,,,,,,,,,,,,,,,,,,,,,,,,,,,,,,
,,"[""period""]",0,[0.28509999999403135],69,0,69,0,1,61226282383c9553aa4c3e11,21,Kobieta,2022-05-28_09h26.33.001,task,2021.1.4,Win32,60.16847172,628b806c463b948bc644b84f,6291ce94b0323921f0865393,,,,,,,,,,,,,,,,,,,,,,,,,,,,,,,,,,,,,,,,,,,,,,,,,,,,,,,,,,,,,,,,,,,,,,,,,,,,,,,,,,,,,,,,,,,,,,,,,,,,,,,
,,"[""period""]",0,[0.29050000000000864],70,0,70,0,1,61226282383c9553aa4c3e11,21,Kobieta,2022-05-28_09h26.33.001,task,2021.1.4,Win32,60.16847172,628b806c463b948bc644b84f,6291ce94b0323921f0865393,,,,,,,,,,,,,,,,,,,,,,,,,,,,,,,,,,,,,,,,,,,,,,,,,,,,,,,,,,,,,,,,,,,,,,,,,,,,,,,,,,,,,,,,,,,,,,,,,,,,,,,
,,"[""comma""]",0,[0.2842999999970175],71,0,71,0,1,61226282383c9553aa4c3e11,21,Kobieta,2022-05-28_09h26.33.001,task,2021.1.4,Win32,60.16847172,628b806c463b948bc644b84f,6291ce94b0323921f0865393,,,,,,,,,,,,,,,,,,,,,,,,,,,,,,,,,,,,,,,,,,,,,,,,,,,,,,,,,,,,,,,,,,,,,,,,,,,,,,,,,,,,,,,,,,,,,,,,,,,,,,,
,,"[""period""]",0,[0.21789999999106158],72,0,72,0,1,61226282383c9553aa4c3e11,21,Kobieta,2022-05-28_09h26.33.001,task,2021.1.4,Win32,60.16847172,628b806c463b948bc644b84f,6291ce94b0323921f0865393,,,,,,,,,,,,,,,,,,,,,,,,,,,,,,,,,,,,,,,,,,,,,,,,,,,,,,,,,,,,,,,,,,,,,,,,,,,,,,,,,,,,,,,,,,,,,,,,,,,,,,,
,,"[""period""]",0,[0.25739999999106544],73,0,73,0,1,61226282383c9553aa4c3e11,21,Kobieta,2022-05-28_09h26.33.001,task,2021.1.4,Win32,60.16847172,628b806c463b948bc644b84f,6291ce94b0323921f0865393,,,,,,,,,,,,,,,,,,,,,,,,,,,,,,,,,,,,,,,,,,,,,,,,,,,,,,,,,,,,,,,,,,,,,,,,,,,,,,,,,,,,,,,,,,,,,,,,,,,,,,,
,,"[""period""]",0,[0.2880000000000109],74,0,74,0,1,61226282383c9553aa4c3e11,21,Kobieta,2022-05-28_09h26.33.001,task,2021.1.4,Win32,60.16847172,628b806c463b948bc644b84f,6291ce94b0323921f0865393,,,,,,,,,,,,,,,,,,,,,,,,,,,,,,,,,,,,,,,,,,,,,,,,,,,,,,,,,,,,,,,,,,,,,,,,,,,,,,,,,,,,,,,,,,,,,,,,,,,,,,,
,,"[""comma""]",0,[0.2669999999999959],75,0,75,0,1,61226282383c9553aa4c3e11,21,Kobieta,2022-05-28_09h26.33.001,task,2021.1.4,Win32,60.16847172,628b806c463b948bc644b84f,6291ce94b0323921f0865393,,,,,,,,,,,,,,,,,,,,,,,,,,,,,,,,,,,,,,,,,,,,,,,,,,,,,,,,,,,,,,,,,,,,,,,,,,,,,,,,,,,,,,,,,,,,,,,,,,,,,,,
,,"[""comma""]",0,[0.2861000000089575],76,0,76,0,1,61226282383c9553aa4c3e11,21,Kobieta,2022-05-28_09h26.33.001,task,2021.1.4,Win32,60.16847172,628b806c463b948bc644b84f,6291ce94b0323921f0865393,,,,,,,,,,,,,,,,,,,,,,,,,,,,,,,,,,,,,,,,,,,,,,,,,,,,,,,,,,,,,,,,,,,,,,,,,,,,,,,,,,,,,,,,,,,,,,,,,,,,,,,
,,"[""comma""]",0,[0.2880999999940457],77,0,77,0,1,61226282383c9553aa4c3e11,21,Kobieta,2022-05-28_09h26.33.001,task,2021.1.4,Win32,60.16847172,628b806c463b948bc644b84f,6291ce94b0323921f0865393,,,,,,,,,,,,,,,,,,,,,,,,,,,,,,,,,,,,,,,,,,,,,,,,,,,,,,,,,,,,,,,,,,,,,,,,,,,,,,,,,,,,,,,,,,,,,,,,,,,,,,,
,,"[""period""]",0,[0.21770000000299206],78,0,78,0,1,61226282383c9553aa4c3e11,21,Kobieta,2022-05-28_09h26.33.001,task,2021.1.4,Win32,60.16847172,628b806c463b948bc644b84f,6291ce94b0323921f0865393,,,,,,,,,,,,,,,,,,,,,,,,,,,,,,,,,,,,,,,,,,,,,,,,,,,,,,,,,,,,,,,,,,,,,,,,,,,,,,,,,,,,,,,,,,,,,,,,,,,,,,,
,,"[""comma""]",0,[0.21830000001190797],79,0,79,0,1,61226282383c9553aa4c3e11,21,Kobieta,2022-05-28_09h26.33.001,task,2021.1.4,Win32,60.16847172,628b806c463b948bc644b84f,6291ce94b0323921f0865393,,,,,,,,,,,,,,,,,,,,,,,,,,,,,,,,,,,,,,,,,,,,,,,,,,,,,,,,,,,,,,,,,,,,,,,,,,,,,,,,,,,,,,,,,,,,,,,,,,,,,,,
,,"[""comma""]",0,[0.23490000000595046],80,0,80,0,1,61226282383c9553aa4c3e11,21,Kobieta,2022-05-28_09h26.33.001,task,2021.1.4,Win32,60.16847172,628b806c463b948bc644b84f,6291ce94b0323921f0865393,,,,,,,,,,,,,,,,,,,,,,,,,,,,,,,,,,,,,,,,,,,,,,,,,,,,,,,,,,,,,,,,,,,,,,,,,,,,,,,,,,,,,,,,,,,,,,,,,,,,,,,
,,"[""period""]",0,[0.2584000000059632],81,0,81,0,1,61226282383c9553aa4c3e11,21,Kobieta,2022-05-28_09h26.33.001,task,2021.1.4,Win32,60.16847172,628b806c463b948bc644b84f,6291ce94b0323921f0865393,,,,,,,,,,,,,,,,,,,,,,,,,,,,,,,,,,,,,,,,,,,,,,,,,,,,,,,,,,,,,,,,,,,,,,,,,,,,,,,,,,,,,,,,,,,,,,,,,,,,,,,
,,"[""comma""]",0,[0.25199999999998113],82,0,82,0,1,61226282383c9553aa4c3e11,21,Kobieta,2022-05-28_09h26.33.001,task,2021.1.4,Win32,60.16847172,628b806c463b948bc644b84f,6291ce94b0323921f0865393,,,,,,,,,,,,,,,,,,,,,,,,,,,,,,,,,,,,,,,,,,,,,,,,,,,,,,,,,,,,,,,,,,,,,,,,,,,,,,,,,,,,,,,,,,,,,,,,,,,,,,,
,,"[""comma""]",0,[0.30820000000298364],83,0,83,0,1,61226282383c9553aa4c3e11,21,Kobieta,2022-05-28_09h26.33.001,task,2021.1.4,Win32,60.16847172,628b806c463b948bc644b84f,6291ce94b0323921f0865393,,,,,,,,,,,,,,,,,,,,,,,,,,,,,,,,,,,,,,,,,,,,,,,,,,,,,,,,,,,,,,,,,,,,,,,,,,,,,,,,,,,,,,,,,,,,,,,,,,,,,,,
,,"[""comma""]",0,[0.29720000000298796],84,0,84,0,1,61226282383c9553aa4c3e11,21,Kobieta,2022-05-28_09h26.33.001,task,2021.1.4,Win32,60.16847172,628b806c463b948bc644b84f,6291ce94b0323921f0865393,,,,,,,,,,,,,,,,,,,,,,,,,,,,,,,,,,,,,,,,,,,,,,,,,,,,,,,,,,,,,,,,,,,,,,,,,,,,,,,,,,,,,,,,,,,,,,,,,,,,,,,
,,"[""period""]",0,[0.36670000000299297],85,0,85,0,1,61226282383c9553aa4c3e11,21,Kobieta,2022-05-28_09h26.33.001,task,2021.1.4,Win32,60.16847172,628b806c463b948bc644b84f,6291ce94b0323921f0865393,,,,,,,,,,,,,,,,,,,,,,,,,,,,,,,,,,,,,,,,,,,,,,,,,,,,,,,,,,,,,,,,,,,,,,,,,,,,,,,,,,,,,,,,,,,,,,,,,,,,,,,
,,"[""comma""]",0,[0.2510000000000048],86,0,86,0,1,61226282383c9553aa4c3e11,21,Kobieta,2022-05-28_09h26.33.001,task,2021.1.4,Win32,60.16847172,628b806c463b948bc644b84f,6291ce94b0323921f0865393,,,,,,,,,,,,,,,,,,,,,,,,,,,,,,,,,,,,,,,,,,,,,,,,,,,,,,,,,,,,,,,,,,,,,,,,,,,,,,,,,,,,,,,,,,,,,,,,,,,,,,,
,,"[""period""]",0,[0.301800000011923],87,0,87,0,1,61226282383c9553aa4c3e11,21,Kobieta,2022-05-28_09h26.33.001,task,2021.1.4,Win32,60.16847172,628b806c463b948bc644b84f,6291ce94b0323921f0865393,,,,,,,,,,,,,,,,,,,,,,,,,,,,,,,,,,,,,,,,,,,,,,,,,,,,,,,,,,,,,,,,,,,,,,,,,,,,,,,,,,,,,,,,,,,,,,,,,,,,,,,
,,"[""comma""]",0,[0.3112999999970043],88,0,88,0,1,61226282383c9553aa4c3e11,21,Kobieta,2022-05-28_09h26.33.001,task,2021.1.4,Win32,60.16847172,628b806c463b948bc644b84f,6291ce94b0323921f0865393,,,,,,,,,,,,,,,,,,,,,,,,,,,,,,,,,,,,,,,,,,,,,,,,,,,,,,,,,,,,,,,,,,,,,,,,,,,,,,,,,,,,,,,,,,,,,,,,,,,,,,,
,,"[""period""]",0,[0.22580000001192957],89,0,89,0,1,61226282383c9553aa4c3e11,21,Kobieta,2022-05-28_09h26.33.001,task,2021.1.4,Win32,60.16847172,628b806c463b948bc644b84f,6291ce94b0323921f0865393,,,,,,,,,,,,,,,,,,,,,,,,,,,,,,,,,,,,,,,,,,,,,,,,,,,,,,,,,,,,,,,,,,,,,,,,,,,,,,,,,,,,,,,,,,,,,,,,,,,,,,,
,,"[""period""]",0,[0.2227000000029875],90,0,90,0,1,61226282383c9553aa4c3e11,21,Kobieta,2022-05-28_09h26.33.001,task,2021.1.4,Win32,60.16847172,628b806c463b948bc644b84f,6291ce94b0323921f0865393,,,,,,,,,,,,,,,,,,,,,,,,,,,,,,,,,,,,,,,,,,,,,,,,,,,,,,,,,,,,,,,,,,,,,,,,,,,,,,,,,,,,,,,,,,,,,,,,,,,,,,,
,,"[""period""]",0,[0.2524999999999977],91,0,91,0,1,61226282383c9553aa4c3e11,21,Kobieta,2022-05-28_09h26.33.001,task,2021.1.4,Win32,60.16847172,628b806c463b948bc644b84f,6291ce94b0323921f0865393,,,,,,,,,,,,,,,,,,,,,,,,,,,,,,,,,,,,,,,,,,,,,,,,,,,,,,,,,,,,,,,,,,,,,,,,,,,,,,,,,,,,,,,,,,,,,,,,,,,,,,,
,,"[""period""]",0,[0.25200000000000955],92,0,92,0,1,61226282383c9553aa4c3e11,21,Kobieta,2022-05-28_09h26.33.001,task,2021.1.4,Win32,60.16847172,628b806c463b948bc644b84f,6291ce94b0323921f0865393,,,,,,,,,,,,,,,,,,,,,,,,,,,,,,,,,,,,,,,,,,,,,,,,,,,,,,,,,,,,,,,,,,,,,,,,,,,,,,,,,,,,,,,,,,,,,,,,,,,,,,,
,,"[""comma""]",0,[0.2519999999999527],93,0,93,0,1,61226282383c9553aa4c3e11,21,Kobieta,2022-05-28_09h26.33.001,task,2021.1.4,Win32,60.16847172,628b806c463b948bc644b84f,6291ce94b0323921f0865393,,,,,,,,,,,,,,,,,,,,,,,,,,,,,,,,,,,,,,,,,,,,,,,,,,,,,,,,,,,,,,,,,,,,,,,,,,,,,,,,,,,,,,,,,,,,,,,,,,,,,,,
,,"[""period""]",0,[0.2587999999969952],94,0,94,0,1,61226282383c9553aa4c3e11,21,Kobieta,2022-05-28_09h26.33.001,task,2021.1.4,Win32,60.16847172,628b806c463b948bc644b84f,6291ce94b0323921f0865393,,,,,,,,,,,,,,,,,,,,,,,,,,,,,,,,,,,,,,,,,,,,,,,,,,,,,,,,,,,,,,,,,,,,,,,,,,,,,,,,,,,,,,,,,,,,,,,,,,,,,,,
,,"[""comma""]",0,[0.23440000000596228],95,0,95,0,1,61226282383c9553aa4c3e11,21,Kobieta,2022-05-28_09h26.33.001,task,2021.1.4,Win32,60.16847172,628b806c463b948bc644b84f,6291ce94b0323921f0865393,,,,,,,,,,,,,,,,,,,,,,,,,,,,,,,,,,,,,,,,,,,,,,,,,,,,,,,,,,,,,,,,,,,,,,,,,,,,,,,,,,,,,,,,,,,,,,,,,,,,,,,
,,"[""period""]",0,[0.27159999999406637],96,0,96,0,1,61226282383c9553aa4c3e11,21,Kobieta,2022-05-28_09h26.33.001,task,2021.1.4,Win32,60.16847172,628b806c463b948bc644b84f,6291ce94b0323921f0865393,,,,,,,,,,,,,,,,,,,,,,,,,,,,,,,,,,,,,,,,,,,,,,,,,,,,,,,,,,,,,,,,,,,,,,,,,,,,,,,,,,,,,,,,,,,,,,,,,,,,,,,
,,"[""period"",""comma""]",0,"[0.22979999999699885,1.9587999999969838]",97,0,97,0,1,61226282383c9553aa4c3e11,21,Kobieta,2022-05-28_09h26.33.001,task,2021.1.4,Win32,60.16847172,628b806c463b948bc644b84f,6291ce94b0323921f0865393,,,,,,,,,,,,,,,,,,,,,,,,,,,,,,,,,,,,,,,,,,,,,,,,,,,,,,,,,,,,,,,,,,,,,,,,,,,,,,,,,,,,,,,,,,,,,,,,,,,,,,,
,,"[""comma""]",0,[0.44110000000893024],98,0,98,0,1,61226282383c9553aa4c3e11,21,Kobieta,2022-05-28_09h26.33.001,task,2021.1.4,Win32,60.16847172,628b806c463b948bc644b84f,6291ce94b0323921f0865393,,,,,,,,,,,,,,,,,,,,,,,,,,,,,,,,,,,,,,,,,,,,,,,,,,,,,,,,,,,,,,,,,,,,,,,,,,,,,,,,,,,,,,,,,,,,,,,,,,,,,,,
,,"[""comma""]",0,[0.3680999999940582],99,0,99,0,1,61226282383c9553aa4c3e11,21,Kobieta,2022-05-28_09h26.33.001,task,2021.1.4,Win32,60.16847172,628b806c463b948bc644b84f,6291ce94b0323921f0865393,,,,,,,,,,,,,,,,,,,,,,,,,,,,,,,,,,,,,,,,,,,,,,,,,,,,,,,,,,,,,,,,,,,,,,,,,,,,,,,,,,,,,,,,,,,,,,,,,,,,,,,
,,"[""period""]",0,[0.2685000000000173],100,0,100,0,1,61226282383c9553aa4c3e11,21,Kobieta,2022-05-28_09h26.33.001,task,2021.1.4,Win32,60.16847172,628b806c463b948bc644b84f,6291ce94b0323921f0865393,,,,,,,,,,,,,,,,,,,,,,,,,,,,,,,,,,,,,,,,,,,,,,,,,,,,,,,,,,,,,,,,,,,,,,,,,,,,,,,,,,,,,,,,,,,,,,,,,,,,,,,
,,"[""comma""]",0,[0.23529999999703932],101,0,101,0,1,61226282383c9553aa4c3e11,21,Kobieta,2022-05-28_09h26.33.001,task,2021.1.4,Win32,60.16847172,628b806c463b948bc644b84f,6291ce94b0323921f0865393,,,,,,,,,,,,,,,,,,,,,,,,,,,,,,,,,,,,,,,,,,,,,,,,,,,,,,,,,,,,,,,,,,,,,,,,,,,,,,,,,,,,,,,,,,,,,,,,,,,,,,,
,,"[""period""]",0,[0.25160000000897753],102,0,102,0,1,61226282383c9553aa4c3e11,21,Kobieta,2022-05-28_09h26.33.001,task,2021.1.4,Win32,60.16847172,628b806c463b948bc644b84f,6291ce94b0323921f0865393,,,,,,,,,,,,,,,,,,,,,,,,,,,,,,,,,,,,,,,,,,,,,,,,,,,,,,,,,,,,,,,,,,,,,,,,,,,,,,,,,,,,,,,,,,,,,,,,,,,,,,,
,,"[""comma""]",0,[0.2819000000059759],103,0,103,0,1,61226282383c9553aa4c3e11,21,Kobieta,2022-05-28_09h26.33.001,task,2021.1.4,Win32,60.16847172,628b806c463b948bc644b84f,6291ce94b0323921f0865393,,,,,,,,,,,,,,,,,,,,,,,,,,,,,,,,,,,,,,,,,,,,,,,,,,,,,,,,,,,,,,,,,,,,,,,,,,,,,,,,,,,,,,,,,,,,,,,,,,,,,,,
,,"[""period""]",0,[0.2211000000089598],104,0,104,0,1,61226282383c9553aa4c3e11,21,Kobieta,2022-05-28_09h26.33.001,task,2021.1.4,Win32,60.16847172,628b806c463b948bc644b84f,6291ce94b0323921f0865393,,,,,,,,,,,,,,,,,,,,,,,,,,,,,,,,,,,,,,,,,,,,,,,,,,,,,,,,,,,,,,,,,,,,,,,,,,,,,,,,,,,,,,,,,,,,,,,,,,,,,,,
,,"[""period""]",0,[0.2684000000059541],105,0,105,0,1,61226282383c9553aa4c3e11,21,Kobieta,2022-05-28_09h26.33.001,task,2021.1.4,Win32,60.16847172,628b806c463b948bc644b84f,6291ce94b0323921f0865393,,,,,,,,,,,,,,,,,,,,,,,,,,,,,,,,,,,,,,,,,,,,,,,,,,,,,,,,,,,,,,,,,,,,,,,,,,,,,,,,,,,,,,,,,,,,,,,,,,,,,,,
,,"[""comma""]",0,[0.2882999999970366],106,0,106,0,1,61226282383c9553aa4c3e11,21,Kobieta,2022-05-28_09h26.33.001,task,2021.1.4,Win32,60.16847172,628b806c463b948bc644b84f,6291ce94b0323921f0865393,,,,,,,,,,,,,,,,,,,,,,,,,,,,,,,,,,,,,,,,,,,,,,,,,,,,,,,,,,,,,,,,,,,,,,,,,,,,,,,,,,,,,,,,,,,,,,,,,,,,,,,
,,"[""period""]",0,[0.39960000000894524],107,0,107,0,1,61226282383c9553aa4c3e11,21,Kobieta,2022-05-28_09h26.33.001,task,2021.1.4,Win32,60.16847172,628b806c463b948bc644b84f,6291ce94b0323921f0865393,,,,,,,,,,,,,,,,,,,,,,,,,,,,,,,,,,,,,,,,,,,,,,,,,,,,,,,,,,,,,,,,,,,,,,,,,,,,,,,,,,,,,,,,,,,,,,,,,,,,,,,
,,"[""comma""]",0,[0.2667999999970334],108,0,108,0,1,61226282383c9553aa4c3e11,21,Kobieta,2022-05-28_09h26.33.001,task,2021.1.4,Win32,60.16847172,628b806c463b948bc644b84f,6291ce94b0323921f0865393,,,,,,,,,,,,,,,,,,,,,,,,,,,,,,,,,,,,,,,,,,,,,,,,,,,,,,,,,,,,,,,,,,,,,,,,,,,,,,,,,,,,,,,,,,,,,,,,,,,,,,,
,,"[""period""]",0,[0.41849999999999454],109,0,109,0,1,61226282383c9553aa4c3e11,21,Kobieta,2022-05-28_09h26.33.001,task,2021.1.4,Win32,60.16847172,628b806c463b948bc644b84f,6291ce94b0323921f0865393,,,,,,,,,,,,,,,,,,,,,,,,,,,,,,,,,,,,,,,,,,,,,,,,,,,,,,,,,,,,,,,,,,,,,,,,,,,,,,,,,,,,,,,,,,,,,,,,,,,,,,,
,,"[""comma""]",0,[0.3022000000029834],110,0,110,0,1,61226282383c9553aa4c3e11,21,Kobieta,2022-05-28_09h26.33.001,task,2021.1.4,Win32,60.16847172,628b806c463b948bc644b84f,6291ce94b0323921f0865393,,,,,,,,,,,,,,,,,,,,,,,,,,,,,,,,,,,,,,,,,,,,,,,,,,,,,,,,,,,,,,,,,,,,,,,,,,,,,,,,,,,,,,,,,,,,,,,,,,,,,,,
,,"[""comma""]",0,[0.23470000000293112],111,0,111,0,1,61226282383c9553aa4c3e11,21,Kobieta,2022-05-28_09h26.33.001,task,2021.1.4,Win32,60.16847172,628b806c463b948bc644b84f,6291ce94b0323921f0865393,,,,,,,,,,,,,,,,,,,,,,,,,,,,,,,,,,,,,,,,,,,,,,,,,,,,,,,,,,,,,,,,,,,,,,,,,,,,,,,,,,,,,,,,,,,,,,,,,,,,,,,
,,"[""comma""]",0,[0.2697999999970193],112,0,112,0,1,61226282383c9553aa4c3e11,21,Kobieta,2022-05-28_09h26.33.001,task,2021.1.4,Win32,60.16847172,628b806c463b948bc644b84f,6291ce94b0323921f0865393,,,,,,,,,,,,,,,,,,,,,,,,,,,,,,,,,,,,,,,,,,,,,,,,,,,,,,,,,,,,,,,,,,,,,,,,,,,,,,,,,,,,,,,,,,,,,,,,,,,,,,,
,,"[""comma""]",0,[0.25200000000000955],113,0,113,0,1,61226282383c9553aa4c3e11,21,Kobieta,2022-05-28_09h26.33.001,task,2021.1.4,Win32,60.16847172,628b806c463b948bc644b84f,6291ce94b0323921f0865393,,,,,,,,,,,,,,,,,,,,,,,,,,,,,,,,,,,,,,,,,,,,,,,,,,,,,,,,,,,,,,,,,,,,,,,,,,,,,,,,,,,,,,,,,,,,,,,,,,,,,,,
,,"[""comma""]",0,[0.2545999999940136],114,0,114,0,1,61226282383c9553aa4c3e11,21,Kobieta,2022-05-28_09h26.33.001,task,2021.1.4,Win32,60.16847172,628b806c463b948bc644b84f,6291ce94b0323921f0865393,,,,,,,,,,,,,,,,,,,,,,,,,,,,,,,,,,,,,,,,,,,,,,,,,,,,,,,,,,,,,,,,,,,,,,,,,,,,,,,,,,,,,,,,,,,,,,,,,,,,,,,
,,"[""period""]",0,[0.25060000000894433],115,0,115,0,1,61226282383c9553aa4c3e11,21,Kobieta,2022-05-28_09h26.33.001,task,2021.1.4,Win32,60.16847172,628b806c463b948bc644b84f,6291ce94b0323921f0865393,,,,,,,,,,,,,,,,,,,,,,,,,,,,,,,,,,,,,,,,,,,,,,,,,,,,,,,,,,,,,,,,,,,,,,,,,,,,,,,,,,,,,,,,,,,,,,,,,,,,,,,
,,"[""comma""]",0,[0.25679999999698566],116,0,116,0,1,61226282383c9553aa4c3e11,21,Kobieta,2022-05-28_09h26.33.001,task,2021.1.4,Win32,60.16847172,628b806c463b948bc644b84f,6291ce94b0323921f0865393,,,,,,,,,,,,,,,,,,,,,,,,,,,,,,,,,,,,,,,,,,,,,,,,,,,,,,,,,,,,,,,,,,,,,,,,,,,,,,,,,,,,,,,,,,,,,,,,,,,,,,,
,,"[""comma""]",0,[0.27020000000300115],117,0,117,0,1,61226282383c9553aa4c3e11,21,Kobieta,2022-05-28_09h26.33.001,task,2021.1.4,Win32,60.16847172,628b806c463b948bc644b84f,6291ce94b0323921f0865393,,,,,,,,,,,,,,,,,,,,,,,,,,,,,,,,,,,,,,,,,,,,,,,,,,,,,,,,,,,,,,,,,,,,,,,,,,,,,,,,,,,,,,,,,,,,,,,,,,,,,,,
,,"[""comma""]",0,[0.2515999999940277],118,0,118,0,1,61226282383c9553aa4c3e11,21,Kobieta,2022-05-28_09h26.33.001,task,2021.1.4,Win32,60.16847172,628b806c463b948bc644b84f,6291ce94b0323921f0865393,,,,,,,,,,,,,,,,,,,,,,,,,,,,,,,,,,,,,,,,,,,,,,,,,,,,,,,,,,,,,,,,,,,,,,,,,,,,,,,,,,,,,,,,,,,,,,,,,,,,,,,
,,"[""comma""]",0,[0.27229999999701704],119,0,119,0,1,61226282383c9553aa4c3e11,21,Kobieta,2022-05-28_09h26.33.001,task,2021.1.4,Win32,60.16847172,628b806c463b948bc644b84f,6291ce94b0323921f0865393,,,,,,,,,,,,,,,,,,,,,,,,,,,,,,,,,,,,,,,,,,,,,,,,,,,,,,,,,,,,,,,,,,,,,,,,,,,,,,,,,,,,,,,,,,,,,,,,,,,,,,,
,,,,,,,,,,61226282383c9553aa4c3e11,21,Kobieta,2022-05-28_09h26.33.001,task,2021.1.4,Win32,60.16847172,628b806c463b948bc644b84f,6291ce94b0323921f0865393,space,33.702,space,7.876,0,0,0,0,1,"X V Q F H G B L J M P D K C T S W R N Z
",,,,,,,,,,,,,,,,,,,,,,,,,,,,,,,,,,,,,,,,,,,,,,,,,,,,,,,,,,,,,,,,,,,,,,,,,,,,,,,,,,,,,,,,,,,,,
,,,,,,,,,,61226282383c9553aa4c3e11,21,Kobieta,2022-05-28_09h26.33.001,task,2021.1.4,Win32,60.16847172,628b806c463b948bc644b84f,6291ce94b0323921f0865393,,,,,1,0,1,0,1,"X V Q F H G B L J M P D K C T S W R N Z
",,,,,,,,,,,,,,,,,,,,,,,,,,,,,,,,,,,,,,,,,,,,,,,,,,,,,,,,,,,,,,,,,,,,,,,,,,,,,,,,,,,,,,,,,,,,,
,,,,,,,,,,61226282383c9553aa4c3e11,21,Kobieta,2022-05-28_09h26.33.001,task,2021.1.4,Win32,60.16847172,628b806c463b948bc644b84f,6291ce94b0323921f0865393,,,,,,,,,,,zk,"[""z"",""k""]","[1.9757999999969797,2.786700000002952,4.599600000008934]",1,ZK,0,0,0,0,1,,,,,,,,,,,,,,,,,,,,,,,,,,,,,,,,,,,,,,,,,,,,,,,,,,,,,,,,,,,,,,,,,,,,,,,,,,,,,,,,,,,
,,,,,,,,,,61226282383c9553aa4c3e11,21,Kobieta,2022-05-28_09h26.33.001,task,2021.1.4,Win32,60.16847172,628b806c463b948bc644b84f,6291ce94b0323921f0865393,,,,,0,0,0,0,1,"X V Q F H G B L J M P D K C T S W R N Z
",,,,,,,,,,,,,,,,,,,,,,,,,,,,,,,,,,,,,,,,,,,,,,,,,,,,,,,,,,,,,,,,,,,,,,,,,,,,,,,,,,,,,,,,,,,,,
,,,,,,,,,,61226282383c9553aa4c3e11,21,Kobieta,2022-05-28_09h26.33.001,task,2021.1.4,Win32,60.16847172,628b806c463b948bc644b84f,6291ce94b0323921f0865393,,,,,1,0,1,0,1,"X V Q F H G B L J M P D K C T S W R N Z
",,,,,,,,,,,,,,,,,,,,,,,,,,,,,,,,,,,,,,,,,,,,,,,,,,,,,,,,,,,,,,,,,,,,,,,,,,,,,,,,,,,,,,,,,,,,,
,,,,,,,,,,61226282383c9553aa4c3e11,21,Kobieta,2022-05-28_09h26.33.001,task,2021.1.4,Win32,60.16847172,628b806c463b948bc644b84f,6291ce94b0323921f0865393,,,,,,,,,,,kh,"[""k"",""h""]","[1.1198999999911052,1.4675000000000296,2.4430000000000405]",1,KH,1,0,1,0,1,,,,,,,,,,,,,,,,,,,,,,,,,,,,,,,,,,,,,,,,,,,,,,,,,,,,,,,,,,,,,,,,,,,,,,,,,,,,,,,,,,,
,,,,,,,,,,61226282383c9553aa4c3e11,21,Kobieta,2022-05-28_09h26.33.001,task,2021.1.4,Win32,60.16847172,628b806c463b948bc644b84f,6291ce94b0323921f0865393,,,,,0,0,0,0,1,"X V Q F H G B L J M P D K C T S W R N Z
",,,,,,,,,,,,,,,,,,,,,,,,,,,,,,,,,,,,,,,,,,,,,,,,,,,,,,,,,,,,,,,,,,,,,,,,,,,,,,,,,,,,,,,,,,,,,
,,,,,,,,,,61226282383c9553aa4c3e11,21,Kobieta,2022-05-28_09h26.33.001,task,2021.1.4,Win32,60.16847172,628b806c463b948bc644b84f,6291ce94b0323921f0865393,,,,,1,0,1,0,1,"X V Q F H G B L J M P D K C T S W R N Z
",,,,,,,,,,,,,,,,,,,,,,,,,,,,,,,,,,,,,,,,,,,,,,,,,,,,,,,,,,,,,,,,,,,,,,,,,,,,,,,,,,,,,,,,,,,,,
,,,,,,,,,,61226282383c9553aa4c3e11,21,Kobieta,2022-05-28_09h26.33.001,task,2021.1.4,Win32,60.16847172,628b806c463b948bc644b84f,6291ce94b0323921f0865393,,,,,2,0,2,0,1,"X V Q F H G B L J M P D K C T S W R N Z
",,,,,,,,,,,,,,,,,,,,,,,,,,,,,,,,,,,,,,,,,,,,,,,,,,,,,,,,,,,,,,,,,,,,,,,,,,,,,,,,,,,,,,,,,,,,,
,,,,,,,,,,61226282383c9553aa4c3e11,21,Kobieta,2022-05-28_09h26.33.001,task,2021.1.4,Win32,60.16847172,628b806c463b948bc644b84f,6291ce94b0323921f0865393,,,,,,,,,,,sqb,"[""s"",""q"",""b""]","[1.815599999994049,2.0779999999999745,2.654299999997022,4.573799999996993]",1,SQB,2,0,2,0,1,,,,,,,,,,,,,,,,,,,,,,,,,,,,,,,,,,,,,,,,,,,,,,,,,,,,,,,,,,,,,,,,,,,,,,,,,,,,,,,,,,,
,,,,,,,,,,61226282383c9553aa4c3e11,21,Kobieta,2022-05-28_09h26.33.001,task,2021.1.4,Win32,60.16847172,628b806c463b948bc644b84f,6291ce94b0323921f0865393,,,,,0,0,0,0,1,"X V Q F H G B L J M P D K C T S W R N Z
",,,,,,,,,,,,,,,,,,,,,,,,,,,,,,,,,,,,,,,,,,,,,,,,,,,,,,,,,,,,,,,,,,,,,,,,,,,,,,,,,,,,,,,,,,,,,
,,,,,,,,,,61226282383c9553aa4c3e11,21,Kobieta,2022-05-28_09h26.33.001,task,2021.1.4,Win32,60.16847172,628b806c463b948bc644b84f,6291ce94b0323921f0865393,,,,,1,0,1,0,1,"X V Q F H G B L J M P D K C T S W R N Z
",,,,,,,,,,,,,,,,,,,,,,,,,,,,,,,,,,,,,,,,,,,,,,,,,,,,,,,,,,,,,,,,,,,,,,,,,,,,,,,,,,,,,,,,,,,,,
,,,,,,,,,,61226282383c9553aa4c3e11,21,Kobieta,2022-05-28_09h26.33.001,task,2021.1.4,Win32,60.16847172,628b806c463b948bc644b84f,6291ce94b0323921f0865393,,,,,2,0,2,0,1,"X V Q F H G B L J M P D K C T S W R N Z
",,,,,,,,,,,,,,,,,,,,,,,,,,,,,,,,,,,,,,,,,,,,,,,,,,,,,,,,,,,,,,,,,,,,,,,,,,,,,,,,,,,,,,,,,,,,,
,,,,,,,,,,61226282383c9553aa4c3e11,21,Kobieta,2022-05-28_09h26.33.001,task,2021.1.4,Win32,60.16847172,628b806c463b948bc644b84f,6291ce94b0323921f0865393,,,,,,,,,,,ngh,"[""n"",""g"",""h""]","[0.8692000000029907,1.1225000000000023,1.2942999999970084,2.2890999999940504]",1,NGH,3,0,3,0,1,,,,,,,,,,,,,,,,,,,,,,,,,,,,,,,,,,,,,,,,,,,,,,,,,,,,,,,,,,,,,,,,,,,,,,,,,,,,,,,,,,,
,,,,,,,,,,61226282383c9553aa4c3e11,21,Kobieta,2022-05-28_09h26.33.001,task,2021.1.4,Win32,60.16847172,628b806c463b948bc644b84f,6291ce94b0323921f0865393,,,,,0,0,0,0,1,"X V Q F H G B L J M P D K C T S W R N Z
",,,,,,,,,,,,,,,,,,,,,,,,,,,,,,,,,,,,,,,,,,,,,,,,,,,,,,,,,,,,,,,,,,,,,,,,,,,,,,,,,,,,,,,,,,,,,
,,,,,,,,,,61226282383c9553aa4c3e11,21,Kobieta,2022-05-28_09h26.33.001,task,2021.1.4,Win32,60.16847172,628b806c463b948bc644b84f,6291ce94b0323921f0865393,,,,,1,0,1,0,1,"X V Q F H G B L J M P D K C T S W R N Z
",,,,,,,,,,,,,,,,,,,,,,,,,,,,,,,,,,,,,,,,,,,,,,,,,,,,,,,,,,,,,,,,,,,,,,,,,,,,,,,,,,,,,,,,,,,,,
,,,,,,,,,,61226282383c9553aa4c3e11,21,Kobieta,2022-05-28_09h26.33.001,task,2021.1.4,Win32,60.16847172,628b806c463b948bc644b84f,6291ce94b0323921f0865393,,,,,2,0,2,0,1,"X V Q F H G B L J M P D K C T S W R N Z
",,,,,,,,,,,,,,,,,,,,,,,,,,,,,,,,,,,,,,,,,,,,,,,,,,,,,,,,,,,,,,,,,,,,,,,,,,,,,,,,,,,,,,,,,,,,,
,,,,,,,,,,61226282383c9553aa4c3e11,21,Kobieta,2022-05-28_09h26.33.001,task,2021.1.4,Win32,60.16847172,628b806c463b948bc644b84f,6291ce94b0323921f0865393,,,,,3,0,3,0,1,"X V Q F H G B L J M P D K C T S W R N Z
",,,,,,,,,,,,,,,,,,,,,,,,,,,,,,,,,,,,,,,,,,,,,,,,,,,,,,,,,,,,,,,,,,,,,,,,,,,,,,,,,,,,,,,,,,,,,
,,,,,,,,,,61226282383c9553aa4c3e11,21,Kobieta,2022-05-28_09h26.33.001,task,2021.1.4,Win32,60.16847172,628b806c463b948bc644b84f,6291ce94b0323921f0865393,,,,,,,,,,,jwkv,"[""j"",""w"",""k"",""v""]","[0.91609999999406,1.8387999999970361,2.4199000000059527,2.673599999994053,3.002200000002972]",1,JWKV,4,0,4,0,1,,,,,,,,,,,,,,,,,,,,,,,,,,,,,,,,,,,,,,,,,,,,,,,,,,,,,,,,,,,,,,,,,,,,,,,,,,,,,,,,,,,
,,,,,,,,,,61226282383c9553aa4c3e11,21,Kobieta,2022-05-28_09h26.33.001,task,2021.1.4,Win32,60.16847172,628b806c463b948bc644b84f,6291ce94b0323921f0865393,,,,,0,0,0,0,1,"X V Q F H G B L J M P D K C T S W R N Z
",,,,,,,,,,,,,,,,,,,,,,,,,,,,,,,,,,,,,,,,,,,,,,,,,,,,,,,,,,,,,,,,,,,,,,,,,,,,,,,,,,,,,,,,,,,,,
,,,,,,,,,,61226282383c9553aa4c3e11,21,Kobieta,2022-05-28_09h26.33.001,task,2021.1.4,Win32,60.16847172,628b806c463b948bc644b84f,6291ce94b0323921f0865393,,,,,1,0,1,0,1,"X V Q F H G B L J M P D K C T S W R N Z
",,,,,,,,,,,,,,,,,,,,,,,,,,,,,,,,,,,,,,,,,,,,,,,,,,,,,,,,,,,,,,,,,,,,,,,,,,,,,,,,,,,,,,,,,,,,,
,,,,,,,,,,61226282383c9553aa4c3e11,21,Kobieta,2022-05-28_09h26.33.001,task,2021.1.4,Win32,60.16847172,628b806c463b948bc644b84f,6291ce94b0323921f0865393,,,,,2,0,2,0,1,"X V Q F H G B L J M P D K C T S W R N Z
",,,,,,,,,,,,,,,,,,,,,,,,,,,,,,,,,,,,,,,,,,,,,,,,,,,,,,,,,,,,,,,,,,,,,,,,,,,,,,,,,,,,,,,,,,,,,
,,,,,,,,,,61226282383c9553aa4c3e11,21,Kobieta,2022-05-28_09h26.33.001,task,2021.1.4,Win32,60.16847172,628b806c463b948bc644b84f,6291ce94b0323921f0865393,,,,,3,0,3,0,1,"X V Q F H G B L J M P D K C T S W R N Z
",,,,,,,,,,,,,,,,,,,,,,,,,,,,,,,,,,,,,,,,,,,,,,,,,,,,,,,,,,,,,,,,,,,,,,,,,,,,,,,,,,,,,,,,,,,,,
,,,,,,,,,,61226282383c9553aa4c3e11,21,Kobieta,2022-05-28_09h26.33.001,task,2021.1.4,Win32,60.16847172,628b806c463b948bc644b84f,6291ce94b0323921f0865393,,,,,,,,,,,chbj,"[""c"",""h"",""b"",""j""]","[1.3337999999970407,1.585199999988106,1.7855999999940764,2.140699999988101,2.4897999999970466]",1,CHBJ,5,0,5,0,1,,,,,,,,,,,,,,,,,,,,,,,,,,,,,,,,,,,,,,,,,,,,,,,,,,,,,,,,,,,,,,,,,,,,,,,,,,,,,,,,,,,
,,,,,,,,,,61226282383c9553aa4c3e11,21,Kobieta,2022-05-28_09h26.33.001,task,2021.1.4,Win32,60.16847172,628b806c463b948bc644b84f,6291ce94b0323921f0865393,,,,,0,0,0,0,1,"X V Q F H G B L J M P D K C T S W R N Z
",,,,,,,,,,,,,,,,,,,,,,,,,,,,,,,,,,,,,,,,,,,,,,,,,,,,,,,,,,,,,,,,,,,,,,,,,,,,,,,,,,,,,,,,,,,,,
,,,,,,,,,,61226282383c9553aa4c3e11,21,Kobieta,2022-05-28_09h26.33.001,task,2021.1.4,Win32,60.16847172,628b806c463b948bc644b84f,6291ce94b0323921f0865393,,,,,1,0,1,0,1,"X V Q F H G B L J M P D K C T S W R N Z
",,,,,,,,,,,,,,,,,,,,,,,,,,,,,,,,,,,,,,,,,,,,,,,,,,,,,,,,,,,,,,,,,,,,,,,,,,,,,,,,,,,,,,,,,,,,,
,,,,,,,,,,61226282383c9553aa4c3e11,21,Kobieta,2022-05-28_09h26.33.001,task,2021.1.4,Win32,60.16847172,628b806c463b948bc644b84f,6291ce94b0323921f0865393,,,,,2,0,2,0,1,"X V Q F H G B L J M P D K C T S W R N Z
",,,,,,,,,,,,,,,,,,,,,,,,,,,,,,,,,,,,,,,,,,,,,,,,,,,,,,,,,,,,,,,,,,,,,,,,,,,,,,,,,,,,,,,,,,,,,
,,,,,,,,,,61226282383c9553aa4c3e11,21,Kobieta,2022-05-28_09h26.33.001,task,2021.1.4,Win32,60.16847172,628b806c463b948bc644b84f,6291ce94b0323921f0865393,,,,,3,0,3,0,1,"X V Q F H G B L J M P D K C T S W R N Z
",,,,,,,,,,,,,,,,,,,,,,,,,,,,,,,,,,,,,,,,,,,,,,,,,,,,,,,,,,,,,,,,,,,,,,,,,,,,,,,,,,,,,,,,,,,,,
,,,,,,,,,,61226282383c9553aa4c3e11,21,Kobieta,2022-05-28_09h26.33.001,task,2021.1.4,Win32,60.16847172,628b806c463b948bc644b84f,6291ce94b0323921f0865393,,,,,4,0,4,0,1,"X V Q F H G B L J M P D K C T S W R N Z
",,,,,,,,,,,,,,,,,,,,,,,,,,,,,,,,,,,,,,,,,,,,,,,,,,,,,,,,,,,,,,,,,,,,,,,,,,,,,,,,,,,,,,,,,,,,,
,,,,,,,,,,61226282383c9553aa4c3e11,21,Kobieta,2022-05-28_09h26.33.001,task,2021.1.4,Win32,60.16847172,628b806c463b948bc644b84f,6291ce94b0323921f0865393,,,,,,,,,,,nxvbq,"[""n"",""x"",""v"",""b"",""q""]","[1.757000000000005,4.478499999999997,6.636599999994019,8.217899999991062,10.288700000002962,10.575299999997014]",0,NXVPQ,6,0,6,0,1,,,,,,,,,,,,,,,,,,,,,,,,,,,,,,,,,,,,,,,,,,,,,,,,,,,,,,,,,,,,,,,,,,,,,,,,,,,,,,,,,,,
,,,,,,,,,,61226282383c9553aa4c3e11,21,Kobieta,2022-05-28_09h26.33.001,task,2021.1.4,Win32,60.16847172,628b806c463b948bc644b84f,6291ce94b0323921f0865393,,,,,0,0,0,0,1,"X V Q F H G B L J M P D K C T S W R N Z
",,,,,,,,,,,,,,,,,,,,,,,,,,,,,,,,,,,,,,,,,,,,,,,,,,,,,,,,,,,,,,,,,,,,,,,,,,,,,,,,,,,,,,,,,,,,,
,,,,,,,,,,61226282383c9553aa4c3e11,21,Kobieta,2022-05-28_09h26.33.001,task,2021.1.4,Win32,60.16847172,628b806c463b948bc644b84f,6291ce94b0323921f0865393,,,,,1,0,1,0,1,"X V Q F H G B L J M P D K C T S W R N Z
",,,,,,,,,,,,,,,,,,,,,,,,,,,,,,,,,,,,,,,,,,,,,,,,,,,,,,,,,,,,,,,,,,,,,,,,,,,,,,,,,,,,,,,,,,,,,
,,,,,,,,,,61226282383c9553aa4c3e11,21,Kobieta,2022-05-28_09h26.33.001,task,2021.1.4,Win32,60.16847172,628b806c463b948bc644b84f,6291ce94b0323921f0865393,,,,,2,0,2,0,1,"X V Q F H G B L J M P D K C T S W R N Z
",,,,,,,,,,,,,,,,,,,,,,,,,,,,,,,,,,,,,,,,,,,,,,,,,,,,,,,,,,,,,,,,,,,,,,,,,,,,,,,,,,,,,,,,,,,,,
,,,,,,,,,,61226282383c9553aa4c3e11,21,Kobieta,2022-05-28_09h26.33.001,task,2021.1.4,Win32,60.16847172,628b806c463b948bc644b84f,6291ce94b0323921f0865393,,,,,3,0,3,0,1,"X V Q F H G B L J M P D K C T S W R N Z
",,,,,,,,,,,,,,,,,,,,,,,,,,,,,,,,,,,,,,,,,,,,,,,,,,,,,,,,,,,,,,,,,,,,,,,,,,,,,,,,,,,,,,,,,,,,,
,,,,,,,,,,61226282383c9553aa4c3e11,21,Kobieta,2022-05-28_09h26.33.001,task,2021.1.4,Win32,60.16847172,628b806c463b948bc644b84f,6291ce94b0323921f0865393,,,,,4,0,4,0,1,"X V Q F H G B L J M P D K C T S W R N Z
",,,,,,,,,,,,,,,,,,,,,,,,,,,,,,,,,,,,,,,,,,,,,,,,,,,,,,,,,,,,,,,,,,,,,,,,,,,,,,,,,,,,,,,,,,,,,
,,,,,,,,,,61226282383c9553aa4c3e11,21,Kobieta,2022-05-28_09h26.33.001,task,2021.1.4,Win32,60.16847172,628b806c463b948bc644b84f,6291ce94b0323921f0865393,,,,,,,,,,,hzhkb,"[""h"",""z"",""h"",""k"",""b""]","[2.157399999991071,2.8725000000000023,5.8125,6.451199999988091,6.766199999988089,6.982500000000016]",0,"HZ
VKB",7,0,7,0,1,,,,,,,,,,,,,,,,,,,,,,,,,,,,,,,,,,,,,,,,,,,,,,,,,,,,,,,,,,,,,,,,,,,,,,,,,,,,,,,,,,,
,,,,,,,,,,61226282383c9553aa4c3e11,21,Kobieta,2022-05-28_09h26.33.001,task,2021.1.4,Win32,60.16847172,628b806c463b948bc644b84f,6291ce94b0323921f0865393,,,,,0,0,0,0,1,"X V Q F H G B L J M P D K C T S W R N Z
",,,,,,,,,,,,,,,,,,,,,,,,,,,,,,,,,,,,,,,,,,,,,,,,,,,,,,,,,,,,,,,,,,,,,,,,,,,,,,,,,,,,,,,,,,,,,
,,,,,,,,,,61226282383c9553aa4c3e11,21,Kobieta,2022-05-28_09h26.33.001,task,2021.1.4,Win32,60.16847172,628b806c463b948bc644b84f,6291ce94b0323921f0865393,,,,,1,0,1,0,1,"X V Q F H G B L J M P D K C T S W R N Z
",,,,,,,,,,,,,,,,,,,,,,,,,,,,,,,,,,,,,,,,,,,,,,,,,,,,,,,,,,,,,,,,,,,,,,,,,,,,,,,,,,,,,,,,,,,,,
,,,,,,,,,,61226282383c9553aa4c3e11,21,Kobieta,2022-05-28_09h26.33.001,task,2021.1.4,Win32,60.16847172,628b806c463b948bc644b84f,6291ce94b0323921f0865393,,,,,2,0,2,0,1,"X V Q F H G B L J M P D K C T S W R N Z
",,,,,,,,,,,,,,,,,,,,,,,,,,,,,,,,,,,,,,,,,,,,,,,,,,,,,,,,,,,,,,,,,,,,,,,,,,,,,,,,,,,,,,,,,,,,,
,,,,,,,,,,61226282383c9553aa4c3e11,21,Kobieta,2022-05-28_09h26.33.001,task,2021.1.4,Win32,60.16847172,628b806c463b948bc644b84f,6291ce94b0323921f0865393,,,,,3,0,3,0,1,"X V Q F H G B L J M P D K C T S W R N Z
",,,,,,,,,,,,,,,,,,,,,,,,,,,,,,,,,,,,,,,,,,,,,,,,,,,,,,,,,,,,,,,,,,,,,,,,,,,,,,,,,,,,,,,,,,,,,
,,,,,,,,,,61226282383c9553aa4c3e11,21,Kobieta,2022-05-28_09h26.33.001,task,2021.1.4,Win32,60.16847172,628b806c463b948bc644b84f,6291ce94b0323921f0865393,,,,,4,0,4,0,1,"X V Q F H G B L J M P D K C T S W R N Z
",,,,,,,,,,,,,,,,,,,,,,,,,,,,,,,,,,,,,,,,,,,,,,,,,,,,,,,,,,,,,,,,,,,,,,,,,,,,,,,,,,,,,,,,,,,,,
,,,,,,,,,,61226282383c9553aa4c3e11,21,Kobieta,2022-05-28_09h26.33.001,task,2021.1.4,Win32,60.16847172,628b806c463b948bc644b84f,6291ce94b0323921f0865393,,,,,,,,,,,bckkc,"[""b"",""c"",""k"",""k"",""c""]","[1.555899999991027,1.8427999999969984,2.3654999999999973,2.4569999999999936,2.719699999988052,3.0535999999940486]",1,BCKKC,8,0,8,0,1,,,,,,,,,,,,,,,,,,,,,,,,,,,,,,,,,,,,,,,,,,,,,,,,,,,,,,,,,,,,,,,,,,,,,,,,,,,,,,,,,,,
,,,,,,,,,,61226282383c9553aa4c3e11,21,Kobieta,2022-05-28_09h26.33.001,task,2021.1.4,Win32,60.16847172,628b806c463b948bc644b84f,6291ce94b0323921f0865393,,,,,0,0,0,0,1,"X V Q F H G B L J M P D K C T S W R N Z
",,,,,,,,,,,,,,,,,,,,,,,,,,,,,,,,,,,,,,,,,,,,,,,,,,,,,,,,,,,,,,,,,,,,,,,,,,,,,,,,,,,,,,,,,,,,,
,,,,,,,,,,61226282383c9553aa4c3e11,21,Kobieta,2022-05-28_09h26.33.001,task,2021.1.4,Win32,60.16847172,628b806c463b948bc644b84f,6291ce94b0323921f0865393,,,,,1,0,1,0,1,"X V Q F H G B L J M P D K C T S W R N Z
",,,,,,,,,,,,,,,,,,,,,,,,,,,,,,,,,,,,,,,,,,,,,,,,,,,,,,,,,,,,,,,,,,,,,,,,,,,,,,,,,,,,,,,,,,,,,
,,,,,,,,,,61226282383c9553aa4c3e11,21,Kobieta,2022-05-28_09h26.33.001,task,2021.1.4,Win32,60.16847172,628b806c463b948bc644b84f,6291ce94b0323921f0865393,,,,,2,0,2,0,1,"X V Q F H G B L J M P D K C T S W R N Z
",,,,,,,,,,,,,,,,,,,,,,,,,,,,,,,,,,,,,,,,,,,,,,,,,,,,,,,,,,,,,,,,,,,,,,,,,,,,,,,,,,,,,,,,,,,,,
,,,,,,,,,,61226282383c9553aa4c3e11,21,Kobieta,2022-05-28_09h26.33.001,task,2021.1.4,Win32,60.16847172,628b806c463b948bc644b84f,6291ce94b0323921f0865393,,,,,3,0,3,0,1,"X V Q F H G B L J M P D K C T S W R N Z
",,,,,,,,,,,,,,,,,,,,,,,,,,,,,,,,,,,,,,,,,,,,,,,,,,,,,,,,,,,,,,,,,,,,,,,,,,,,,,,,,,,,,,,,,,,,,
,,,,,,,,,,61226282383c9553aa4c3e11,21,Kobieta,2022-05-28_09h26.33.001,task,2021.1.4,Win32,60.16847172,628b806c463b948bc644b84f,6291ce94b0323921f0865393,,,,,4,0,4,0,1,"X V Q F H G B L J M P D K C T S W R N Z
",,,,,,,,,,,,,,,,,,,,,,,,,,,,,,,,,,,,,,,,,,,,,,,,,,,,,,,,,,,,,,,,,,,,,,,,,,,,,,,,,,,,,,,,,,,,,
,,,,,,,,,,61226282383c9553aa4c3e11,21,Kobieta,2022-05-28_09h26.33.001,task,2021.1.4,Win32,60.16847172,628b806c463b948bc644b84f,6291ce94b0323921f0865393,,,,,,,,,,,kxwfg,"[""k"",""x"",""w"",""f"",""g""]","[0.8314000000059991,1.4014000000059923,1.9701000000089834,2.7970000000000255,2.9565000000000055,3.2354000000059955]",1,KXWFG,9,0,9,0,1,,,,,,,,,,,,,,,,,,,,,,,,,,,,,,,,,,,,,,,,,,,,,,,,,,,,,,,,,,,,,,,,,,,,,,,,,,,,,,,,,,,
,,,,,,,,,,61226282383c9553aa4c3e11,21,Kobieta,2022-05-28_09h26.33.001,task,2021.1.4,Win32,60.16847172,628b806c463b948bc644b84f,6291ce94b0323921f0865393,,,,,0,0,0,0,1,"X V Q F H G B L J M P D K C T S W R N Z
",,,,,,,,,,,,,,,,,,,,,,,,,,,,,,,,,,,,,,,,,,,,,,,,,,,,,,,,,,,,,,,,,,,,,,,,,,,,,,,,,,,,,,,,,,,,,
,,,,,,,,,,61226282383c9553aa4c3e11,21,Kobieta,2022-05-28_09h26.33.001,task,2021.1.4,Win32,60.16847172,628b806c463b948bc644b84f,6291ce94b0323921f0865393,,,,,1,0,1,0,1,"X V Q F H G B L J M P D K C T S W R N Z
",,,,,,,,,,,,,,,,,,,,,,,,,,,,,,,,,,,,,,,,,,,,,,,,,,,,,,,,,,,,,,,,,,,,,,,,,,,,,,,,,,,,,,,,,,,,,
,,,,,,,,,,61226282383c9553aa4c3e11,21,Kobieta,2022-05-28_09h26.33.001,task,2021.1.4,Win32,60.16847172,628b806c463b948bc644b84f,6291ce94b0323921f0865393,,,,,2,0,2,0,1,"X V Q F H G B L J M P D K C T S W R N Z
",,,,,,,,,,,,,,,,,,,,,,,,,,,,,,,,,,,,,,,,,,,,,,,,,,,,,,,,,,,,,,,,,,,,,,,,,,,,,,,,,,,,,,,,,,,,,
,,,,,,,,,,61226282383c9553aa4c3e11,21,Kobieta,2022-05-28_09h26.33.001,task,2021.1.4,Win32,60.16847172,628b806c463b948bc644b84f,6291ce94b0323921f0865393,,,,,3,0,3,0,1,"X V Q F H G B L J M P D K C T S W R N Z
",,,,,,,,,,,,,,,,,,,,,,,,,,,,,,,,,,,,,,,,,,,,,,,,,,,,,,,,,,,,,,,,,,,,,,,,,,,,,,,,,,,,,,,,,,,,,
,,,,,,,,,,61226282383c9553aa4c3e11,21,Kobieta,2022-05-28_09h26.33.001,task,2021.1.4,Win32,60.16847172,628b806c463b948bc644b84f,6291ce94b0323921f0865393,,,,,4,0,4,0,1,"X V Q F H G B L J M P D K C T S W R N Z
",,,,,,,,,,,,,,,,,,,,,,,,,,,,,,,,,,,,,,,,,,,,,,,,,,,,,,,,,,,,,,,,,,,,,,,,,,,,,,,,,,,,,,,,,,,,,
,,,,,,,,,,61226282383c9553aa4c3e11,21,Kobieta,2022-05-28_09h26.33.001,task,2021.1.4,Win32,60.16847172,628b806c463b948bc644b84f,6291ce94b0323921f0865393,,,,,5,0,5,0,1,"X V Q F H G B L J M P D K C T S W R N Z
",,,,,,,,,,,,,,,,,,,,,,,,,,,,,,,,,,,,,,,,,,,,,,,,,,,,,,,,,,,,,,,,,,,,,,,,,,,,,,,,,,,,,,,,,,,,,
,,,,,,,,,,61226282383c9553aa4c3e11,21,Kobieta,2022-05-28_09h26.33.001,task,2021.1.4,Win32,60.16847172,628b806c463b948bc644b84f,6291ce94b0323921f0865393,,,,,,,,,,,bjgxxb,"[""b"",""j"",""g"",""x"",""x"",""b""]","[1.281000000000006,1.668299999997032,2.1702000000029784,2.8878999999910775,9.337099999994052,9.754999999999995,9.996700000002988]",0,BJGXBX,10,0,10,0,1,,,,,,,,,,,,,,,,,,,,,,,,,,,,,,,,,,,,,,,,,,,,,,,,,,,,,,,,,,,,,,,,,,,,,,,,,,,,,,,,,,,
,,,,,,,,,,61226282383c9553aa4c3e11,21,Kobieta,2022-05-28_09h26.33.001,task,2021.1.4,Win32,60.16847172,628b806c463b948bc644b84f,6291ce94b0323921f0865393,,,,,0,0,0,0,1,"X V Q F H G B L J M P D K C T S W R N Z
",,,,,,,,,,,,,,,,,,,,,,,,,,,,,,,,,,,,,,,,,,,,,,,,,,,,,,,,,,,,,,,,,,,,,,,,,,,,,,,,,,,,,,,,,,,,,
,,,,,,,,,,61226282383c9553aa4c3e11,21,Kobieta,2022-05-28_09h26.33.001,task,2021.1.4,Win32,60.16847172,628b806c463b948bc644b84f,6291ce94b0323921f0865393,,,,,1,0,1,0,1,"X V Q F H G B L J M P D K C T S W R N Z
",,,,,,,,,,,,,,,,,,,,,,,,,,,,,,,,,,,,,,,,,,,,,,,,,,,,,,,,,,,,,,,,,,,,,,,,,,,,,,,,,,,,,,,,,,,,,
,,,,,,,,,,61226282383c9553aa4c3e11,21,Kobieta,2022-05-28_09h26.33.001,task,2021.1.4,Win32,60.16847172,628b806c463b948bc644b84f,6291ce94b0323921f0865393,,,,,2,0,2,0,1,"X V Q F H G B L J M P D K C T S W R N Z
",,,,,,,,,,,,,,,,,,,,,,,,,,,,,,,,,,,,,,,,,,,,,,,,,,,,,,,,,,,,,,,,,,,,,,,,,,,,,,,,,,,,,,,,,,,,,
,,,,,,,,,,61226282383c9553aa4c3e11,21,Kobieta,2022-05-28_09h26.33.001,task,2021.1.4,Win32,60.16847172,628b806c463b948bc644b84f,6291ce94b0323921f0865393,,,,,3,0,3,0,1,"X V Q F H G B L J M P D K C T S W R N Z
",,,,,,,,,,,,,,,,,,,,,,,,,,,,,,,,,,,,,,,,,,,,,,,,,,,,,,,,,,,,,,,,,,,,,,,,,,,,,,,,,,,,,,,,,,,,,
,,,,,,,,,,61226282383c9553aa4c3e11,21,Kobieta,2022-05-28_09h26.33.001,task,2021.1.4,Win32,60.16847172,628b806c463b948bc644b84f,6291ce94b0323921f0865393,,,,,4,0,4,0,1,"X V Q F H G B L J M P D K C T S W R N Z
",,,,,,,,,,,,,,,,,,,,,,,,,,,,,,,,,,,,,,,,,,,,,,,,,,,,,,,,,,,,,,,,,,,,,,,,,,,,,,,,,,,,,,,,,,,,,
,,,,,,,,,,61226282383c9553aa4c3e11,21,Kobieta,2022-05-28_09h26.33.001,task,2021.1.4,Win32,60.16847172,628b806c463b948bc644b84f,6291ce94b0323921f0865393,,,,,5,0,5,0,1,"X V Q F H G B L J M P D K C T S W R N Z
",,,,,,,,,,,,,,,,,,,,,,,,,,,,,,,,,,,,,,,,,,,,,,,,,,,,,,,,,,,,,,,,,,,,,,,,,,,,,,,,,,,,,,,,,,,,,
,,,,,,,,,,61226282383c9553aa4c3e11,21,Kobieta,2022-05-28_09h26.33.001,task,2021.1.4,Win32,60.16847172,628b806c463b948bc644b84f,6291ce94b0323921f0865393,,,,,,,,,,,plmvsv,"[""p"",""l"",""m"",""v"",""s"",""v""]","[1.191399999991006,1.365799999996966,1.6154999999999973,2.2369999999999663,3.9884999999999877,4.2916999999880545,5.492199999988031]",0,PMLVSV,11,0,11,0,1,,,,,,,,,,,,,,,,,,,,,,,,,,,,,,,,,,,,,,,,,,,,,,,,,,,,,,,,,,,,,,,,,,,,,,,,,,,,,,,,,,,
,,,,,,,,,,61226282383c9553aa4c3e11,21,Kobieta,2022-05-28_09h26.33.001,task,2021.1.4,Win32,60.16847172,628b806c463b948bc644b84f,6291ce94b0323921f0865393,,,,,0,0,0,0,1,"X V Q F H G B L J M P D K C T S W R N Z
",,,,,,,,,,,,,,,,,,,,,,,,,,,,,,,,,,,,,,,,,,,,,,,,,,,,,,,,,,,,,,,,,,,,,,,,,,,,,,,,,,,,,,,,,,,,,
,,,,,,,,,,61226282383c9553aa4c3e11,21,Kobieta,2022-05-28_09h26.33.001,task,2021.1.4,Win32,60.16847172,628b806c463b948bc644b84f,6291ce94b0323921f0865393,,,,,1,0,1,0,1,"X V Q F H G B L J M P D K C T S W R N Z
",,,,,,,,,,,,,,,,,,,,,,,,,,,,,,,,,,,,,,,,,,,,,,,,,,,,,,,,,,,,,,,,,,,,,,,,,,,,,,,,,,,,,,,,,,,,,
,,,,,,,,,,61226282383c9553aa4c3e11,21,Kobieta,2022-05-28_09h26.33.001,task,2021.1.4,Win32,60.16847172,628b806c463b948bc644b84f,6291ce94b0323921f0865393,,,,,2,0,2,0,1,"X V Q F H G B L J M P D K C T S W R N Z
",,,,,,,,,,,,,,,,,,,,,,,,,,,,,,,,,,,,,,,,,,,,,,,,,,,,,,,,,,,,,,,,,,,,,,,,,,,,,,,,,,,,,,,,,,,,,
,,,,,,,,,,61226282383c9553aa4c3e11,21,Kobieta,2022-05-28_09h26.33.001,task,2021.1.4,Win32,60.16847172,628b806c463b948bc644b84f,6291ce94b0323921f0865393,,,,,3,0,3,0,1,"X V Q F H G B L J M P D K C T S W R N Z
",,,,,,,,,,,,,,,,,,,,,,,,,,,,,,,,,,,,,,,,,,,,,,,,,,,,,,,,,,,,,,,,,,,,,,,,,,,,,,,,,,,,,,,,,,,,,
,,,,,,,,,,61226282383c9553aa4c3e11,21,Kobieta,2022-05-28_09h26.33.001,task,2021.1.4,Win32,60.16847172,628b806c463b948bc644b84f,6291ce94b0323921f0865393,,,,,4,0,4,0,1,"X V Q F H G B L J M P D K C T S W R N Z
",,,,,,,,,,,,,,,,,,,,,,,,,,,,,,,,,,,,,,,,,,,,,,,,,,,,,,,,,,,,,,,,,,,,,,,,,,,,,,,,,,,,,,,,,,,,,
,,,,,,,,,,61226282383c9553aa4c3e11,21,Kobieta,2022-05-28_09h26.33.001,task,2021.1.4,Win32,60.16847172,628b806c463b948bc644b84f,6291ce94b0323921f0865393,,,,,5,0,5,0,1,"X V Q F H G B L J M P D K C T S W R N Z
",,,,,,,,,,,,,,,,,,,,,,,,,,,,,,,,,,,,,,,,,,,,,,,,,,,,,,,,,,,,,,,,,,,,,,,,,,,,,,,,,,,,,,,,,,,,,
,,,,,,,,,,61226282383c9553aa4c3e11,21,Kobieta,2022-05-28_09h26.33.001,task,2021.1.4,Win32,60.16847172,628b806c463b948bc644b84f,6291ce94b0323921f0865393,,,,,,,,,,,jkqfnv,"[""j"",""k"",""q"",""f"",""n"",""v""]","[1.017499999999984,1.1859999999999786,2.405599999994024,3.3440999999940004,4.111499999999978,4.304199999988043,4.477199999988045]",0,JHQFNK,12,0,12,0,1,,,,,,,,,,,,,,,,,,,,,,,,,,,,,,,,,,,,,,,,,,,,,,,,,,,,,,,,,,,,,,,,,,,,,,,,,,,,,,,,,,,
,,,,,,,,,,61226282383c9553aa4c3e11,21,Kobieta,2022-05-28_09h26.33.001,task,2021.1.4,Win32,60.16847172,628b806c463b948bc644b84f,6291ce94b0323921f0865393,,,,,,,,,,,,,,,,,,,,,space,13.7695,8,"[""8""]",1,[2.850600000008967],[2.850600000008967],0,0,0,8,1,Practice,9,(3x3) - 1,8,,,,,,,,,,,,,,,,,,,,,,,,,,,,,,,,,,,,,,,,,,,,,,,,,,,,,,,,,,,,,,,,,,,
,,,,,,,,,,61226282383c9553aa4c3e11,21,Kobieta,2022-05-28_09h26.33.001,task,2021.1.4,Win32,60.16847172,628b806c463b948bc644b84f,6291ce94b0323921f0865393,,,,,,,,,,,,,,,,,,,,,,,6,"[""6""]",1,[3.041299999996909],"[2.850600000008967,3.041299999996909]",0,1,1,6,1,Practice,7,(25/5) + 1,6,,,,,,,,,,,,,,,,,,,,,,,,,,,,,,,,,,,,,,,,,,,,,,,,,,,,,,,,,,,,,,,,,,,
,,,,,,,,,,61226282383c9553aa4c3e11,21,Kobieta,2022-05-28_09h26.33.001,task,2021.1.4,Win32,60.16847172,628b806c463b948bc644b84f,6291ce94b0323921f0865393,,,,,,,,,,,,,,,,,,,,,,,5,"[""5""]",1,[2.958400000005895],"[2.850600000008967,3.041299999996909,2.958400000005895]",0,2,2,5,1,Practice,6,(4/2) + 3,5,,,,,,,,,,,,,,,,,,,,,,,,,,,,,,,,,,,,,,,,,,,,,,,,,,,,,,,,,,,,,,,,,,,
,,,,,,,,,,61226282383c9553aa4c3e11,21,Kobieta,2022-05-28_09h26.33.001,task,2021.1.4,Win32,60.16847172,628b806c463b948bc644b84f,6291ce94b0323921f0865393,,,,,,,,,,,,,,,,,,,,,,,9,"[""9""]",1,[1.9712999999970862],"[2.850600000008967,3.041299999996909,2.958400000005895,1.9712999999970862]",0,3,3,9,1,Practice,10,(20/2) - 1,9,,,,,,,,,,,,,,,,,,,,,,,,,,,,,,,,,,,,,,,,,,,,,,,,,,,,,,,,,,,,,,,,,,,
,,,,,,,,,,61226282383c9553aa4c3e11,21,Kobieta,2022-05-28_09h26.33.001,task,2021.1.4,Win32,60.16847172,628b806c463b948bc644b84f,6291ce94b0323921f0865393,,,,,,,,,,,,,,,,,,,,,,,0,"[""0""]",1,[2.1032999999970343],"[2.850600000008967,3.041299999996909,2.958400000005895,1.9712999999970862,2.1032999999970343]",0,4,4,0,1,Practice,1,(3x3) -  9,0,,,,,,,,,,,,,,,,,,,,,,,,,,,,,,,,,,,,,,,,,,,,,,,,,,,,,,,,,,,,,,,,,,,
,,,,,,,,,,61226282383c9553aa4c3e11,21,Kobieta,2022-05-28_09h26.33.001,task,2021.1.4,Win32,60.16847172,628b806c463b948bc644b84f,6291ce94b0323921f0865393,,,,,,,,,,,,,,,,,,,,,,,7,"[""7""]",1,[6.76779999999701],"[2.850600000008967,3.041299999996909,2.958400000005895,1.9712999999970862,2.1032999999970343,6.76779999999701]",0,5,5,7,1,Practice,8,(5x5) - 18,7,,,,,,,,,,,,,,,,,,,,,,,,,,,,,,,,,,,,,,,,,,,,,,,,,,,,,,,,,,,,,,,,,,,
,,,,,,,,,,61226282383c9553aa4c3e11,21,Kobieta,2022-05-28_09h26.33.001,task,2021.1.4,Win32,60.16847172,628b806c463b948bc644b84f,6291ce94b0323921f0865393,,,,,,,,,,,,,,,,,,,,,,,1,"[""1""]",1,[1.9546999999880654],"[2.850600000008967,3.041299999996909,2.958400000005895,1.9712999999970862,2.1032999999970343,6.76779999999701,1.9546999999880654]",0,6,6,1,1,Practice,2,(4x4) - 15,1,,,,,,,,,,,,,,,,,,,,,,,,,,,,,,,,,,,,,,,,,,,,,,,,,,,,,,,,,,,,,,,,,,,
,,,,,,,,,,61226282383c9553aa4c3e11,21,Kobieta,2022-05-28_09h26.33.001,task,2021.1.4,Win32,60.16847172,628b806c463b948bc644b84f,6291ce94b0323921f0865393,,,,,,,,,,,,,,,,,,,,,,,2,"[""2""]",1,[1.6355999999940423],"[2.850600000008967,3.041299999996909,2.958400000005895,1.9712999999970862,2.1032999999970343,6.76779999999701,1.9546999999880654,1.6355999999940423]",0,7,7,2,1,Practice,3,(4x4) - 14,2,,,,,,,,,,,,,,,,,,,,,,,,,,,,,,,,,,,,,,,,,,,,,,,,,,,,,,,,,,,,,,,,,,,
,,,,,,,,,,61226282383c9553aa4c3e11,21,Kobieta,2022-05-28_09h26.33.001,task,2021.1.4,Win32,60.16847172,628b806c463b948bc644b84f,6291ce94b0323921f0865393,,,,,,,,,,,,,,,,,,,,,,,4,"[""4""]",1,[3.1380000000000337],"[2.850600000008967,3.041299999996909,2.958400000005895,1.9712999999970862,2.1032999999970343,6.76779999999701,1.9546999999880654,1.6355999999940423,3.1380000000000337]",0,8,8,4,1,Practice,5,(2x6) - 8,4,,,,,,,,,,,,,,,,,,,,,,,,,,,,,,,,,,,,,,,,,,,,,,,,,,,,,,,,,,,,,,,,,,,
,,,,,,,,,,61226282383c9553aa4c3e11,21,Kobieta,2022-05-28_09h26.33.001,task,2021.1.4,Win32,60.16847172,628b806c463b948bc644b84f,6291ce94b0323921f0865393,,,,,,,,,,,,,,,,,,,,,,,5,"[""5""]",0,[2.0450999999940223],"[2.850600000008967,3.041299999996909,2.958400000005895,1.9712999999970862,2.1032999999970343,6.76779999999701,1.9546999999880654,1.6355999999940423,3.1380000000000337,2.0450999999940223]",0,9,9,3,1,Practice,4,(8/4) + 1,3,,,,,,,,,,,,,,,,,,,,,,,,,,,,,,,,,,,,,,,,,,,,,,,,,,,,,,,,,,,,,,,,,,,
,,,,,,,,,,61226282383c9553aa4c3e11,21,Kobieta,2022-05-28_09h26.33.001,task,2021.1.4,Win32,60.16847172,628b806c463b948bc644b84f,6291ce94b0323921f0865393,,,,,,,,,,,,,,,,,,,,,,,,,,,,,,,,,,,,,0.9,28.4661,1.89774,28.73774334,1.384142173,5.468826807,space,1.2923,0,0,0,0,1,,,,,,,,,,,,,,,,,,,,,,,,,,,,,,,,,,,,,,,,,,,,,,,,,,,,,,
,,,,,,,,,,61226282383c9553aa4c3e11,21,Kobieta,2022-05-28_09h26.33.001,task,2021.1.4,Win32,60.16847172,628b806c463b948bc644b84f,6291ce94b0323921f0865393,,,,,,,,,,,,,,,,,,,,,,,,,,,,,,,,,Practice,6,(4/2) + 3,5,,,,,,,,,,,,,,space,19.821,,0,0,0,0,0,5,1,,,,,,,,,,,,,,,,,,,,,,,,,,,,,,,,,,,,,,,,,,,,
,,,,,,,,,,61226282383c9553aa4c3e11,21,Kobieta,2022-05-28_09h26.33.001,task,2021.1.4,Win32,60.16847172,628b806c463b948bc644b84f,6291ce94b0323921f0865393,,,,,,,,,,,,,,,,,,,,,,,4,,,,,,,,,,Practice,5,(2x6) - 8,4,,,,,,,,,,,,,,,,"[""4""]",1,1,0,1,1,4,1,[2.103999999999928],,,,,,,,,,,,,,,,,,,,,,,,,,,,,,,,,,,,,,,,,,,
,,,,,,,,,,61226282383c9553aa4c3e11,21,Kobieta,2022-05-28_09h26.33.001,task,2021.1.4,Win32,60.16847172,628b806c463b948bc644b84f,6291ce94b0323921f0865393,,,,,,,,,,"X V Q F H G B L J M P D K C T S W R N Z
",,,,,,,,,,,,,,,,,,,,,,,,,,,,,,,,,,,,,,,,,,,,,,,,,,,0,0,0,0,1,,,,,,,,,,,,,,,,,,,,,,,,,,,,,,,,,,,,,,
,,,,,,,,,,61226282383c9553aa4c3e11,21,Kobieta,2022-05-28_09h26.33.001,task,2021.1.4,Win32,60.16847172,628b806c463b948bc644b84f,6291ce94b0323921f0865393,,,,,,,,,,,,,,,,,,,,,,,0,,,,,,,,,,Practice,1,(3x3) -  9,0,,,,,,,,,,,,,,,,"[""0""]",1,1,0,0,0,0,1,[1.9353999999910911],,,,,,,,,,,,,,,,,,,,,,,,,,,,,,,,,,,,,,,,,,,
,,,,,,,,,,61226282383c9553aa4c3e11,21,Kobieta,2022-05-28_09h26.33.001,task,2021.1.4,Win32,60.16847172,628b806c463b948bc644b84f,6291ce94b0323921f0865393,,,,,,,,,,"X V Q F H G B L J M P D K C T S W R N Z
",,,,,,,,,,,,,,,,,,,,,,,,,,,,,,,,,,,,,,,,,,,,,,,,,,,1,0,1,0,1,,,,,,,,,,,,,,,,,,,,,,,,,,,,,,,,,,,,,,
,,,,,,,,,,61226282383c9553aa4c3e11,21,Kobieta,2022-05-28_09h26.33.001,task,2021.1.4,Win32,60.16847172,628b806c463b948bc644b84f,6291ce94b0323921f0865393,,,,,,,,,,,,,,,,,,,,,,,,,,,,,,,,,,,,,,,,,,,,,,,,,,,,,,,,,,,,,,,,,,zs,"[""z"",""s""]",0,"[2.0415999999939913,2.3062000000029457,3.34139999999104]",1,0,0,0,0,1,,,,,,,,,,,,,,,,,,,,,,,,,,,,
,,,,,,,,,,61226282383c9553aa4c3e11,21,Kobieta,2022-05-28_09h26.33.001,task,2021.1.4,Win32,60.16847172,628b806c463b948bc644b84f,6291ce94b0323921f0865393,,,,,,,,,,,,,,,,,,,,,,,8,,,,,,,,,,Practice,9,(3x3) - 1,8,,,,,,,,,,,,,,,,"[""8""]",1,1,0,0,0,8,1,[1.634700000003022],,,,,,,,,,,,,,,,,,,,,,,,,,,,,,,,,,,,,,,,,,,
,,,,,,,,,,61226282383c9553aa4c3e11,21,Kobieta,2022-05-28_09h26.33.001,task,2021.1.4,Win32,60.16847172,628b806c463b948bc644b84f,6291ce94b0323921f0865393,,,,,,,,,,"X V Q F H G B L J M P D K C T S W R N Z
",,,,,,,,,,,,,,,,,,,,,,,,,,,,,,,,,,,,,,,,,,,,,,,,,,,0,0,0,0,1,,,,,,,,,,,,,,,,,,,,,,,,,,,,,,,,,,,,,,
,,,,,,,,,,61226282383c9553aa4c3e11,21,Kobieta,2022-05-28_09h26.33.001,task,2021.1.4,Win32,60.16847172,628b806c463b948bc644b84f,6291ce94b0323921f0865393,,,,,,,,,,,,,,,,,,,,,,,7,,,,,,,,,,Practice,8,(5x5) - 18,7,,,,,,,,,,,,,,,,"[""7""]",1,1,0,0,0,7,1,[2.6956000000088807],,,,,,,,,,,,,,,,,,,,,,,,,,,,,,,,,,,,,,,,,,,
,,,,,,,,,,61226282383c9553aa4c3e11,21,Kobieta,2022-05-28_09h26.33.001,task,2021.1.4,Win32,60.16847172,628b806c463b948bc644b84f,6291ce94b0323921f0865393,,,,,,,,,,"X V Q F H G B L J M P D K C T S W R N Z
",,,,,,,,,,,,,,,,,,,,,,,,,,,,,,,,,,,,,,,,,,,,,,,,,,,1,0,1,0,1,,,,,,,,,,,,,,,,,,,,,,,,,,,,,,,,,,,,,,
,,,,,,,,,,61226282383c9553aa4c3e11,21,Kobieta,2022-05-28_09h26.33.001,task,2021.1.4,Win32,60.16847172,628b806c463b948bc644b84f,6291ce94b0323921f0865393,,,,,,,,,,,,,,,,,,,,,,,,,,,,,,,,,,,,,,,,,,,,,,,,,,,,,,,,,,,,,,,,,,mq,"[""m"",""q""]",0,"[1.4729000000060068,2.129000000000019,2.472499999999968]",1,1,0,1,0,1,,,,,,,,,,,,,,,,,,,,,,,,,,,,
,,,,,,,,,,61226282383c9553aa4c3e11,21,Kobieta,2022-05-28_09h26.33.001,task,2021.1.4,Win32,60.16847172,628b806c463b948bc644b84f,6291ce94b0323921f0865393,,,,,,,,,,,,,,,,,,,,,,,6,,,,,,,,,,Practice,7,(25/5) + 1,6,,,,,,,,,,,,,,,,"[""6""]",1,1,0,0,0,6,1,[2.0723999999911484],,,,,,,,,,,,,,,,,,,,,,,,,,,,,,,,,,,,,,,,,,,
,,,,,,,,,,61226282383c9553aa4c3e11,21,Kobieta,2022-05-28_09h26.33.001,task,2021.1.4,Win32,60.16847172,628b806c463b948bc644b84f,6291ce94b0323921f0865393,,,,,,,,,,"X V Q F H G B L J M P D K C T S W R N Z
",,,,,,,,,,,,,,,,,,,,,,,,,,,,,,,,,,,,,,,,,,,,,,,,,,,0,0,0,0,1,,,,,,,,,,,,,,,,,,,,,,,,,,,,,,,,,,,,,,
,,,,,,,,,,61226282383c9553aa4c3e11,21,Kobieta,2022-05-28_09h26.33.001,task,2021.1.4,Win32,60.16847172,628b806c463b948bc644b84f,6291ce94b0323921f0865393,,,,,,,,,,,,,,,,,,,,,,,5,,,,,,,,,,Practice,6,(4/2) + 3,5,,,,,,,,,,,,,,,,"[""5""]",1,1,0,0,0,5,1,[1.8605000000000018],,,,,,,,,,,,,,,,,,,,,,,,,,,,,,,,,,,,,,,,,,,
,,,,,,,,,,61226282383c9553aa4c3e11,21,Kobieta,2022-05-28_09h26.33.001,task,2021.1.4,Win32,60.16847172,628b806c463b948bc644b84f,6291ce94b0323921f0865393,,,,,,,,,,"X V Q F H G B L J M P D K C T S W R N Z
",,,,,,,,,,,,,,,,,,,,,,,,,,,,,,,,,,,,,,,,,,,,,,,,,,,1,0,1,0,1,,,,,,,,,,,,,,,,,,,,,,,,,,,,,,,,,,,,,,
,,,,,,,,,,61226282383c9553aa4c3e11,21,Kobieta,2022-05-28_09h26.33.001,task,2021.1.4,Win32,60.16847172,628b806c463b948bc644b84f,6291ce94b0323921f0865393,,,,,,,,,,,,,,,,,,,,,,,,,,,,,,,,,,,,,,,,,,,,,,,,,,,,,,,,,,,,,,,,,,pz,"[""p"",""z""]",0,"[1.4104000000060068,1.7604000000060296,2.0727000000030102]",0,2,0,2,0,1,,,,,,,,,,,,,,,,,,,,,,,,,,,,
,,,,,,,,,,61226282383c9553aa4c3e11,21,Kobieta,2022-05-28_09h26.33.001,task,2021.1.4,Win32,60.16847172,628b806c463b948bc644b84f,6291ce94b0323921f0865393,,,,,,,,,,,,,,,,,,,,,,,2,,,,,,,,,,Practice,3,(4x4) - 14,2,,,,,,,,,,,,,,,,"[""2""]",1,1,0,0,0,2,1,[3.152700000003051],,,,,,,,,,,,,,,,,,,,,,,,,,,,,,,,,,,,,,,,,,,
,,,,,,,,,,61226282383c9553aa4c3e11,21,Kobieta,2022-05-28_09h26.33.001,task,2021.1.4,Win32,60.16847172,628b806c463b948bc644b84f,6291ce94b0323921f0865393,,,,,,,,,,"X V Q F H G B L J M P D K C T S W R N Z
",,,,,,,,,,,,,,,,,,,,,,,,,,,,,,,,,,,,,,,,,,,,,,,,,,,0,0,0,0,1,,,,,,,,,,,,,,,,,,,,,,,,,,,,,,,,,,,,,,
,,,,,,,,,,61226282383c9553aa4c3e11,21,Kobieta,2022-05-28_09h26.33.001,task,2021.1.4,Win32,60.16847172,628b806c463b948bc644b84f,6291ce94b0323921f0865393,,,,,,,,,,,,,,,,,,,,,,,8,,,,,,,,,,Practice,9,(3x3) - 1,8,,,,,,,,,,,,,,,,"[""8""]",1,1,0,0,0,8,1,[1.853100000008908],,,,,,,,,,,,,,,,,,,,,,,,,,,,,,,,,,,,,,,,,,,
,,,,,,,,,,61226282383c9553aa4c3e11,21,Kobieta,2022-05-28_09h26.33.001,task,2021.1.4,Win32,60.16847172,628b806c463b948bc644b84f,6291ce94b0323921f0865393,,,,,,,,,,"X V Q F H G B L J M P D K C T S W R N Z
",,,,,,,,,,,,,,,,,,,,,,,,,,,,,,,,,,,,,,,,,,,,,,,,,,,1,0,1,0,1,,,,,,,,,,,,,,,,,,,,,,,,,,,,,,,,,,,,,,
,,,,,,,,,,61226282383c9553aa4c3e11,21,Kobieta,2022-05-28_09h26.33.001,task,2021.1.4,Win32,60.16847172,628b806c463b948bc644b84f,6291ce94b0323921f0865393,,,,,,,,,,,,,,,,,,,,,,,,,,,,,,,,,,,,,,,,,,,,,,,,,,,,,,,,,,,,,,,,,,fc,"[""f"",""c""]",0,"[1.5220999999941114,1.6527000000030512,2.0389000000060378]",1,3,0,3,0,1,,,,,,,,,,,,,,,,,,,,,,,,,,,,
,,,,,,,,,,61226282383c9553aa4c3e11,21,Kobieta,2022-05-28_09h26.33.001,task,2021.1.4,Win32,60.16847172,628b806c463b948bc644b84f,6291ce94b0323921f0865393,,,,,,,,,,,,,,,,,,,,,,,0,,,,,,,,,,Practice,1,(3x3) -  9,0,,,,,,,,,,,,,,,,"[""0""]",1,1,0,0,0,0,1,[1.6523000000120192],,,,,,,,,,,,,,,,,,,,,,,,,,,,,,,,,,,,,,,,,,,
,,,,,,,,,,61226282383c9553aa4c3e11,21,Kobieta,2022-05-28_09h26.33.001,task,2021.1.4,Win32,60.16847172,628b806c463b948bc644b84f,6291ce94b0323921f0865393,,,,,,,,,,"X V Q F H G B L J M P D K C T S W R N Z
",,,,,,,,,,,,,,,,,,,,,,,,,,,,,,,,,,,,,,,,,,,,,,,,,,,0,0,0,0,1,,,,,,,,,,,,,,,,,,,,,,,,,,,,,,,,,,,,,,
,,,,,,,,,,61226282383c9553aa4c3e11,21,Kobieta,2022-05-28_09h26.33.001,task,2021.1.4,Win32,60.16847172,628b806c463b948bc644b84f,6291ce94b0323921f0865393,,,,,,,,,,,,,,,,,,,,,,,1,,,,,,,,,,Practice,2,(4x4) - 15,1,,,,,,,,,,,,,,,,"[""1""]",1,1,0,0,0,1,1,[1.265400000006025],,,,,,,,,,,,,,,,,,,,,,,,,,,,,,,,,,,,,,,,,,,
,,,,,,,,,,61226282383c9553aa4c3e11,21,Kobieta,2022-05-28_09h26.33.001,task,2021.1.4,Win32,60.16847172,628b806c463b948bc644b84f,6291ce94b0323921f0865393,,,,,,,,,,"X V Q F H G B L J M P D K C T S W R N Z
",,,,,,,,,,,,,,,,,,,,,,,,,,,,,,,,,,,,,,,,,,,,,,,,,,,1,0,1,0,1,,,,,,,,,,,,,,,,,,,,,,,,,,,,,,,,,,,,,,
,,,,,,,,,,61226282383c9553aa4c3e11,21,Kobieta,2022-05-28_09h26.33.001,task,2021.1.4,Win32,60.16847172,628b806c463b948bc644b84f,6291ce94b0323921f0865393,,,,,,,,,,,,,,,,,,,,,,,,,,,,,,,,,,,,,,,,,,,,,,,,,,,,,,,,,,,,,,,,,,df,"[""d"",""f""]",0,"[1.8434000000059996,1.9901000000089653,2.2932000000030257]",1,4,0,4,0,1,,,,,,,,,,,,,,,,,,,,,,,,,,,,
,,,,,,,,,,61226282383c9553aa4c3e11,21,Kobieta,2022-05-28_09h26.33.001,task,2021.1.4,Win32,60.16847172,628b806c463b948bc644b84f,6291ce94b0323921f0865393,,,,,,,,,,,,,,,,,,,,,,,5,,,,,,,,,,Practice,4,(8/4) + 1,3,,,,,,,,,,,,,,,,"[""5""]",0,0,0,0,0,3,1,[2.152899999991064],,,,,,,,,,,,,,,,,,,,,,,,,,,,,,,,,,,,,,,,,,,
,,,,,,,,,,61226282383c9553aa4c3e11,21,Kobieta,2022-05-28_09h26.33.001,task,2021.1.4,Win32,60.16847172,628b806c463b948bc644b84f,6291ce94b0323921f0865393,,,,,,,,,,,,,,,,,,,,,,,0,,,,,,,,,,Practice,1,(3x3) -  9,0,,,,,,,,,,,,,,,,"[""0""]",1,1,0,1,1,0,1,[1.3849000000059277],,,,,,,,,,,,,,,,,,,,,,,,,,,,,,,,,,,,,,,,,,,
,,,,,,,,,,61226282383c9553aa4c3e11,21,Kobieta,2022-05-28_09h26.33.001,task,2021.1.4,Win32,60.16847172,628b806c463b948bc644b84f,6291ce94b0323921f0865393,,,,,,,,,,"X V Q F H G B L J M P D K C T S W R N Z
",,,,,,,,,,,,,,,,,,,,,,,,,,,,,,,,,,,,,,,,,,,,,,,,,,,0,0,0,0,1,,,,,,,,,,,,,,,,,,,,,,,,,,,,,,,,,,,,,,
,,,,,,,,,,61226282383c9553aa4c3e11,21,Kobieta,2022-05-28_09h26.33.001,task,2021.1.4,Win32,60.16847172,628b806c463b948bc644b84f,6291ce94b0323921f0865393,,,,,,,,,,,,,,,,,,,,,,,7,,,,,,,,,,Practice,8,(5x5) - 18,7,,,,,,,,,,,,,,,,"[""7""]",1,1,0,0,0,7,1,[1.8340999999940095],,,,,,,,,,,,,,,,,,,,,,,,,,,,,,,,,,,,,,,,,,,
,,,,,,,,,,61226282383c9553aa4c3e11,21,Kobieta,2022-05-28_09h26.33.001,task,2021.1.4,Win32,60.16847172,628b806c463b948bc644b84f,6291ce94b0323921f0865393,,,,,,,,,,"X V Q F H G B L J M P D K C T S W R N Z
",,,,,,,,,,,,,,,,,,,,,,,,,,,,,,,,,,,,,,,,,,,,,,,,,,,1,0,1,0,1,,,,,,,,,,,,,,,,,,,,,,,,,,,,,,,,,,,,,,
,,,,,,,,,,61226282383c9553aa4c3e11,21,Kobieta,2022-05-28_09h26.33.001,task,2021.1.4,Win32,60.16847172,628b806c463b948bc644b84f,6291ce94b0323921f0865393,,,,,,,,,,,,,,,,,,,,,,,,,,,,,,,,,,,,,,,,,,,,,,,,,,,,,,,,,,,,,,,,,,df,"[""d"",""f""]",0,"[1.355699999988019,1.4870999999940295,1.8537999999970225]",1,5,0,5,0,1,,,,,,,,,,,,,,,,,,,,,,,,,,,,
,,,,,,,,,,61226282383c9553aa4c3e11,21,Kobieta,2022-05-28_09h26.33.001,task,2021.1.4,Win32,60.16847172,628b806c463b948bc644b84f,6291ce94b0323921f0865393,,,,,,,,,,,,,,,,,,,,,,,2,,,,,,,,,,Task,19,(6/2) - 1,2,,,,,,,,,,,,,,,,,,1,,,,,,,,,,,,,,,,,,,,,,space,16.0257,"[""2""]",1,[2.37600000000009],0,0,0,18,1,,,,,,,,,,,,,,,,,,
,,,,,,,,,,61226282383c9553aa4c3e11,21,Kobieta,2022-05-28_09h26.33.001,task,2021.1.4,Win32,60.16847172,628b806c463b948bc644b84f,6291ce94b0323921f0865393,,,,,,,,,,"X V Q F H G B L J M P D K C T S W R N Z
",,,,,,,,,,,,,,,,,,,,,,,,,,,,,,,,,,,,,,,,,,,,,,,,,,,,,,,,,,,,,,,,,,,,,,,,,,,,0,0,0,0,1,,,,,,,,,,,,,
,,,,,,,,,,61226282383c9553aa4c3e11,21,Kobieta,2022-05-28_09h26.33.001,task,2021.1.4,Win32,60.16847172,628b806c463b948bc644b84f,6291ce94b0323921f0865393,,,,,,,,,,,,,,,,,,,,,,,2,,,,,,,,,,Task,27,(3/3) + 2,3,,,,,,,,,,,,,,,,,,0,,,,,,,,,,,,,,,,,,,,,,,,"[""2""]",0,[2.903099999994083],0,0,0,26,1,,,,,,,,,,,,,,,,,,
,,,,,,,,,,61226282383c9553aa4c3e11,21,Kobieta,2022-05-28_09h26.33.001,task,2021.1.4,Win32,60.16847172,628b806c463b948bc644b84f,6291ce94b0323921f0865393,,,,,,,,,,,,,,,,,,,,,,,2,,,,,,,,,,Task,10,(2x5) - 8,2,,,,,,,,,,,,,,,,,,1,,,,,,,,,,,,,,,,,,,,,,,,"[""2""]",1,[2.8800999999940586],0,1,1,9,1,,,,,,,,,,,,,,,,,,
,,,,,,,,,,61226282383c9553aa4c3e11,21,Kobieta,2022-05-28_09h26.33.001,task,2021.1.4,Win32,60.16847172,628b806c463b948bc644b84f,6291ce94b0323921f0865393,,,,,,,,,,"X V Q F H G B L J M P D K C T S W R N Z
",,,,,,,,,,,,,,,,,,,,,,,,,,,,,,,,,,,,,,,,,,,,,,,,,,,,,,,,,,,,,,,,,,,,,,,,,,,,1,0,1,0,1,,,,,,,,,,,,,
,,,,,,,,,,61226282383c9553aa4c3e11,21,Kobieta,2022-05-28_09h26.33.001,task,2021.1.4,Win32,60.16847172,628b806c463b948bc644b84f,6291ce94b0323921f0865393,,,,,,,,,,,,,,,,,,,,,,,,,,,,,,,,,,,,,,,,,,,,,,,,,,,,,,,,,,,,,,,,,,,,,,,,,,,,,,,,,,,,,,,,,,,zr,"[""z"",""r""]",0,"[1.5694000000059987,1.7022000000030175,1.9841000000088798]",1,ZR,0,0,0,0,1,,
,,,,,,,,,,61226282383c9553aa4c3e11,21,Kobieta,2022-05-28_09h26.33.001,task,2021.1.4,Win32,60.16847172,628b806c463b948bc644b84f,6291ce94b0323921f0865393,,,,,,,,,,,,,,,,,,,,,,,5,,,,,,,,,,Task,12,(4x4) - 11,5,,,,,,,,,,,,,,,,,,1,,,,,,,,,,,,,,,,,,,,,,,,"[""5""]",1,[2.3201000000088925],0,0,0,11,1,,,,,,,,,,,,,,,,,,
,,,,,,,,,,61226282383c9553aa4c3e11,21,Kobieta,2022-05-28_09h26.33.001,task,2021.1.4,Win32,60.16847172,628b806c463b948bc644b84f,6291ce94b0323921f0865393,,,,,,,,,,"X V Q F H G B L J M P D K C T S W R N Z
",,,,,,,,,,,,,,,,,,,,,,,,,,,,,,,,,,,,,,,,,,,,,,,,,,,,,,,,,,,,,,,,,,,,,,,,,,,,0,0,0,0,1,,,,,,,,,,,,,
,,,,,,,,,,61226282383c9553aa4c3e11,21,Kobieta,2022-05-28_09h26.33.001,task,2021.1.4,Win32,60.16847172,628b806c463b948bc644b84f,6291ce94b0323921f0865393,,,,,,,,,,,,,,,,,,,,,,,4,,,,,,,,,,Task,4,(1x5) - 1,4,,,,,,,,,,,,,,,,,,1,,,,,,,,,,,,,,,,,,,,,,,,"[""4""]",1,[1.7681000000088716],0,0,0,3,1,,,,,,,,,,,,,,,,,,
,,,,,,,,,,61226282383c9553aa4c3e11,21,Kobieta,2022-05-28_09h26.33.001,task,2021.1.4,Win32,60.16847172,628b806c463b948bc644b84f,6291ce94b0323921f0865393,,,,,,,,,,"X V Q F H G B L J M P D K C T S W R N Z
",,,,,,,,,,,,,,,,,,,,,,,,,,,,,,,,,,,,,,,,,,,,,,,,,,,,,,,,,,,,,,,,,,,,,,,,,,,,1,0,1,0,1,,,,,,,,,,,,,
,,,,,,,,,,61226282383c9553aa4c3e11,21,Kobieta,2022-05-28_09h26.33.001,task,2021.1.4,Win32,60.16847172,628b806c463b948bc644b84f,6291ce94b0323921f0865393,,,,,,,,,,,,,,,,,,,,,,,8,,,,,,,,,,Task,39,(5x3) - 7,8,,,,,,,,,,,,,,,,,,1,,,,,,,,,,,,,,,,,,,,,,,,"[""8""]",1,[4.275400000006016],0,0,0,38,1,,,,,,,,,,,,,,,,,,
,,,,,,,,,,61226282383c9553aa4c3e11,21,Kobieta,2022-05-28_09h26.33.001,task,2021.1.4,Win32,60.16847172,628b806c463b948bc644b84f,6291ce94b0323921f0865393,,,,,,,,,,"X V Q F H G B L J M P D K C T S W R N Z
",,,,,,,,,,,,,,,,,,,,,,,,,,,,,,,,,,,,,,,,,,,,,,,,,,,,,,,,,,,,,,,,,,,,,,,,,,,,2,0,2,0,1,,,,,,,,,,,,,
,,,,,,,,,,61226282383c9553aa4c3e11,21,Kobieta,2022-05-28_09h26.33.001,task,2021.1.4,Win32,60.16847172,628b806c463b948bc644b84f,6291ce94b0323921f0865393,,,,,,,,,,,,,,,,,,,,,,,,,,,,,,,,,,,,,,,,,,,,,,,,,,,,,,,,,,,,,,,,,,,,,,,,,,,,,,,,,,,,,,,,,,,ztp,"[""z"",""t"",""p""]",0,"[1.3557999999969752,1.5947000000029448,1.9945000000000164,2.30770000000291]",0,"Z
TP",1,0,1,0,1,,
,,,,,,,,,,61226282383c9553aa4c3e11,21,Kobieta,2022-05-28_09h26.33.001,task,2021.1.4,Win32,60.16847172,628b806c463b948bc644b84f,6291ce94b0323921f0865393,,,,,,,,,,,,,,,,,,,,,,,7,,,,,,,,,,Task,38,(4x6) - 17,7,,,,,,,,,,,,,,,,,,1,,,,,,,,,,,,,,,,,,,,,,,,"[""7""]",1,[3.42260000000897],0,0,0,37,1,,,,,,,,,,,,,,,,,,
,,,,,,,,,,61226282383c9553aa4c3e11,21,Kobieta,2022-05-28_09h26.33.001,task,2021.1.4,Win32,60.16847172,628b806c463b948bc644b84f,6291ce94b0323921f0865393,,,,,,,,,,"X V Q F H G B L J M P D K C T S W R N Z
",,,,,,,,,,,,,,,,,,,,,,,,,,,,,,,,,,,,,,,,,,,,,,,,,,,,,,,,,,,,,,,,,,,,,,,,,,,,0,0,0,0,1,,,,,,,,,,,,,
,,,,,,,,,,61226282383c9553aa4c3e11,21,Kobieta,2022-05-28_09h26.33.001,task,2021.1.4,Win32,60.16847172,628b806c463b948bc644b84f,6291ce94b0323921f0865393,,,,,,,,,,,,,,,,,,,,,,,9,,,,,,,,,,Task,24,(2x2) + 5,9,,,,,,,,,,,,,,,,,,1,,,,,,,,,,,,,,,,,,,,,,,,"[""9""]",1,[1.6075000000000728],0,0,0,23,1,,,,,,,,,,,,,,,,,,
,,,,,,,,,,61226282383c9553aa4c3e11,21,Kobieta,2022-05-28_09h26.33.001,task,2021.1.4,Win32,60.16847172,628b806c463b948bc644b84f,6291ce94b0323921f0865393,,,,,,,,,,"X V Q F H G B L J M P D K C T S W R N Z
",,,,,,,,,,,,,,,,,,,,,,,,,,,,,,,,,,,,,,,,,,,,,,,,,,,,,,,,,,,,,,,,,,,,,,,,,,,,1,0,1,0,1,,,,,,,,,,,,,
,,,,,,,,,,61226282383c9553aa4c3e11,21,Kobieta,2022-05-28_09h26.33.001,task,2021.1.4,Win32,60.16847172,628b806c463b948bc644b84f,6291ce94b0323921f0865393,,,,,,,,,,,,,,,,,,,,,,,8,,,,,,,,,,Task,15,(3x7) - 13,8,,,,,,,,,,,,,,,,,,1,,,,,,,,,,,,,,,,,,,,,,,,"[""8""]",1,[3.994000000000028],0,0,0,14,1,,,,,,,,,,,,,,,,,,
,,,,,,,,,,61226282383c9553aa4c3e11,21,Kobieta,2022-05-28_09h26.33.001,task,2021.1.4,Win32,60.16847172,628b806c463b948bc644b84f,6291ce94b0323921f0865393,,,,,,,,,,"X V Q F H G B L J M P D K C T S W R N Z
",,,,,,,,,,,,,,,,,,,,,,,,,,,,,,,,,,,,,,,,,,,,,,,,,,,,,,,,,,,,,,,,,,,,,,,,,,,,2,0,2,0,1,,,,,,,,,,,,,
,,,,,,,,,,61226282383c9553aa4c3e11,21,Kobieta,2022-05-28_09h26.33.001,task,2021.1.4,Win32,60.16847172,628b806c463b948bc644b84f,6291ce94b0323921f0865393,,,,,,,,,,,,,,,,,,,,,,,,,,,,,,,,,,,,,,,,,,,,,,,,,,,,,,,,,,,,,,,,,,,,,,,,,,,,,,,,,,,,,,,,,,,hrp,"[""h"",""r"",""p""]",0,"[1.3939000000059423,1.655600000008917,2.1907999999970116,2.4044000000059214]",1,HRP,2,0,2,0,1,,
,,,,,,,,,,61226282383c9553aa4c3e11,21,Kobieta,2022-05-28_09h26.33.001,task,2021.1.4,Win32,60.16847172,628b806c463b948bc644b84f,6291ce94b0323921f0865393,,,,,,,,,,,,,,,,,,,,,,,7,,,,,,,,,,Task,6,(12/2) + 1,7,,,,,,,,,,,,,,,,,,1,,,,,,,,,,,,,,,,,,,,,,,,"[""7""]",1,[1.533700000003023],0,0,0,5,1,,,,,,,,,,,,,,,,,,
,,,,,,,,,,61226282383c9553aa4c3e11,21,Kobieta,2022-05-28_09h26.33.001,task,2021.1.4,Win32,60.16847172,628b806c463b948bc644b84f,6291ce94b0323921f0865393,,,,,,,,,,"X V Q F H G B L J M P D K C T S W R N Z
",,,,,,,,,,,,,,,,,,,,,,,,,,,,,,,,,,,,,,,,,,,,,,,,,,,,,,,,,,,,,,,,,,,,,,,,,,,,0,0,0,0,1,,,,,,,,,,,,,
,,,,,,,,,,61226282383c9553aa4c3e11,21,Kobieta,2022-05-28_09h26.33.001,task,2021.1.4,Win32,60.16847172,628b806c463b948bc644b84f,6291ce94b0323921f0865393,,,,,,,,,,,,,,,,,,,,,,,4,,,,,,,,,,Task,35,(1x2) + 1,3,,,,,,,,,,,,,,,,,,0,,,,,,,,,,,,,,,,,,,,,,,,"[""4""]",0,[1.585799999997107],0,0,0,34,1,,,,,,,,,,,,,,,,,,
,,,,,,,,,,61226282383c9553aa4c3e11,21,Kobieta,2022-05-28_09h26.33.001,task,2021.1.4,Win32,60.16847172,628b806c463b948bc644b84f,6291ce94b0323921f0865393,,,,,,,,,,,,,,,,,,,,,,,5,,,,,,,,,,Task,29,(3x8) - 19 ,5,,,,,,,,,,,,,,,,,,1,,,,,,,,,,,,,,,,,,,,,,,,"[""5""]",1,[3.235600000008958],0,1,1,28,1,,,,,,,,,,,,,,,,,,
,,,,,,,,,,61226282383c9553aa4c3e11,21,Kobieta,2022-05-28_09h26.33.001,task,2021.1.4,Win32,60.16847172,628b806c463b948bc644b84f,6291ce94b0323921f0865393,,,,,,,,,,"X V Q F H G B L J M P D K C T S W R N Z
",,,,,,,,,,,,,,,,,,,,,,,,,,,,,,,,,,,,,,,,,,,,,,,,,,,,,,,,,,,,,,,,,,,,,,,,,,,,1,0,1,0,1,,,,,,,,,,,,,
,,,,,,,,,,61226282383c9553aa4c3e11,21,Kobieta,2022-05-28_09h26.33.001,task,2021.1.4,Win32,60.16847172,628b806c463b948bc644b84f,6291ce94b0323921f0865393,,,,,,,,,,,,,,,,,,,,,,,5,,,,,,,,,,Task,22,(3x1) + 2,5,,,,,,,,,,,,,,,,,,1,,,,,,,,,,,,,,,,,,,,,,,,"[""5""]",1,[1.825700000003053],0,0,0,21,1,,,,,,,,,,,,,,,,,,
,,,,,,,,,,61226282383c9553aa4c3e11,21,Kobieta,2022-05-28_09h26.33.001,task,2021.1.4,Win32,60.16847172,628b806c463b948bc644b84f,6291ce94b0323921f0865393,,,,,,,,,,"X V Q F H G B L J M P D K C T S W R N Z
",,,,,,,,,,,,,,,,,,,,,,,,,,,,,,,,,,,,,,,,,,,,,,,,,,,,,,,,,,,,,,,,,,,,,,,,,,,,2,0,2,0,1,,,,,,,,,,,,,
,,,,,,,,,,61226282383c9553aa4c3e11,21,Kobieta,2022-05-28_09h26.33.001,task,2021.1.4,Win32,60.16847172,628b806c463b948bc644b84f,6291ce94b0323921f0865393,,,,,,,,,,,,,,,,,,,,,,,4,,,,,,,,,,Task,21,(10/2) - 1,4,,,,,,,,,,,,,,,,,,1,,,,,,,,,,,,,,,,,,,,,,,,"[""4""]",1,[2.597099999994043],0,0,0,20,1,,,,,,,,,,,,,,,,,,
,,,,,,,,,,61226282383c9553aa4c3e11,21,Kobieta,2022-05-28_09h26.33.001,task,2021.1.4,Win32,60.16847172,628b806c463b948bc644b84f,6291ce94b0323921f0865393,,,,,,,,,,"X V Q F H G B L J M P D K C T S W R N Z
",,,,,,,,,,,,,,,,,,,,,,,,,,,,,,,,,,,,,,,,,,,,,,,,,,,,,,,,,,,,,,,,,,,,,,,,,,,,3,0,3,0,1,,,,,,,,,,,,,
,,,,,,,,,,61226282383c9553aa4c3e11,21,Kobieta,2022-05-28_09h26.33.001,task,2021.1.4,Win32,60.16847172,628b806c463b948bc644b84f,6291ce94b0323921f0865393,,,,,,,,,,,,,,,,,,,,,,,,,,,,,,,,,,,,,,,,,,,,,,,,,,,,,,,,,,,,,,,,,,,,,,,,,,,,,,,,,,,,,,,,,,,hlnf,"[""h"",""l"",""n"",""f""]",0,"[1.1952999999970189,1.3354000000059614,1.6934000000059086,2.0076000000088925,2.2206000000089716]",1,HLNF,3,0,3,0,1,,
,,,,,,,,,,61226282383c9553aa4c3e11,21,Kobieta,2022-05-28_09h26.33.001,task,2021.1.4,Win32,60.16847172,628b806c463b948bc644b84f,6291ce94b0323921f0865393,,,,,,,,,,,,,,,,,,,,,,,6,,,,,,,,,,Task,13,(3x4) - 6,6,,,,,,,,,,,,,,,,,,1,,,,,,,,,,,,,,,,,,,,,,,,"[""6""]",1,[2.7890999999940504],0,0,0,12,1,,,,,,,,,,,,,,,,,,
,,,,,,,,,,61226282383c9553aa4c3e11,21,Kobieta,2022-05-28_09h26.33.001,task,2021.1.4,Win32,60.16847172,628b806c463b948bc644b84f,6291ce94b0323921f0865393,,,,,,,,,,"X V Q F H G B L J M P D K C T S W R N Z
",,,,,,,,,,,,,,,,,,,,,,,,,,,,,,,,,,,,,,,,,,,,,,,,,,,,,,,,,,,,,,,,,,,,,,,,,,,,0,0,0,0,1,,,,,,,,,,,,,
,,,,,,,,,,61226282383c9553aa4c3e11,21,Kobieta,2022-05-28_09h26.33.001,task,2021.1.4,Win32,60.16847172,628b806c463b948bc644b84f,6291ce94b0323921f0865393,,,,,,,,,,,,,,,,,,,,,,,5,,,,,,,,,,Task,12,(4x4) - 11,5,,,,,,,,,,,,,,,,,,1,,,,,,,,,,,,,,,,,,,,,,,,"[""5""]",1,[1.3032000000030166],0,0,0,11,1,,,,,,,,,,,,,,,,,,
,,,,,,,,,,61226282383c9553aa4c3e11,21,Kobieta,2022-05-28_09h26.33.001,task,2021.1.4,Win32,60.16847172,628b806c463b948bc644b84f,6291ce94b0323921f0865393,,,,,,,,,,"X V Q F H G B L J M P D K C T S W R N Z
",,,,,,,,,,,,,,,,,,,,,,,,,,,,,,,,,,,,,,,,,,,,,,,,,,,,,,,,,,,,,,,,,,,,,,,,,,,,1,0,1,0,1,,,,,,,,,,,,,
,,,,,,,,,,61226282383c9553aa4c3e11,21,Kobieta,2022-05-28_09h26.33.001,task,2021.1.4,Win32,60.16847172,628b806c463b948bc644b84f,6291ce94b0323921f0865393,,,,,,,,,,,,,,,,,,,,,,,8,,,,,,,,,,Task,39,(5x3) - 7,8,,,,,,,,,,,,,,,,,,1,,,,,,,,,,,,,,,,,,,,,,,,"[""8""]",1,[3.1672000000029357],0,0,0,38,1,,,,,,,,,,,,,,,,,,
,,,,,,,,,,61226282383c9553aa4c3e11,21,Kobieta,2022-05-28_09h26.33.001,task,2021.1.4,Win32,60.16847172,628b806c463b948bc644b84f,6291ce94b0323921f0865393,,,,,,,,,,"X V Q F H G B L J M P D K C T S W R N Z
",,,,,,,,,,,,,,,,,,,,,,,,,,,,,,,,,,,,,,,,,,,,,,,,,,,,,,,,,,,,,,,,,,,,,,,,,,,,2,0,2,0,1,,,,,,,,,,,,,
,,,,,,,,,,61226282383c9553aa4c3e11,21,Kobieta,2022-05-28_09h26.33.001,task,2021.1.4,Win32,60.16847172,628b806c463b948bc644b84f,6291ce94b0323921f0865393,,,,,,,,,,,,,,,,,,,,,,,0,,,,,,,,,,Task,8,(1x5) - 5,0,,,,,,,,,,,,,,,,,,1,,,,,,,,,,,,,,,,,,,,,,,,"[""0""]",1,[1.3204999999999245],0,0,0,7,1,,,,,,,,,,,,,,,,,,
,,,,,,,,,,61226282383c9553aa4c3e11,21,Kobieta,2022-05-28_09h26.33.001,task,2021.1.4,Win32,60.16847172,628b806c463b948bc644b84f,6291ce94b0323921f0865393,,,,,,,,,,"X V Q F H G B L J M P D K C T S W R N Z
",,,,,,,,,,,,,,,,,,,,,,,,,,,,,,,,,,,,,,,,,,,,,,,,,,,,,,,,,,,,,,,,,,,,,,,,,,,,3,0,3,0,1,,,,,,,,,,,,,
,,,,,,,,,,61226282383c9553aa4c3e11,21,Kobieta,2022-05-28_09h26.33.001,task,2021.1.4,Win32,60.16847172,628b806c463b948bc644b84f,6291ce94b0323921f0865393,,,,,,,,,,,,,,,,,,,,,,,0,,,,,,,,,,Task,33,(1/1) - 1,0,,,,,,,,,,,,,,,,,,1,,,,,,,,,,,,,,,,,,,,,,,,"[""0""]",1,[1.4847999999969943],0,0,0,32,1,,,,,,,,,,,,,,,,,,
,,,,,,,,,,61226282383c9553aa4c3e11,21,Kobieta,2022-05-28_09h26.33.001,task,2021.1.4,Win32,60.16847172,628b806c463b948bc644b84f,6291ce94b0323921f0865393,,,,,,,,,,"X V Q F H G B L J M P D K C T S W R N Z
",,,,,,,,,,,,,,,,,,,,,,,,,,,,,,,,,,,,,,,,,,,,,,,,,,,,,,,,,,,,,,,,,,,,,,,,,,,,4,0,4,0,1,,,,,,,,,,,,,
,,,,,,,,,,61226282383c9553aa4c3e11,21,Kobieta,2022-05-28_09h26.33.001,task,2021.1.4,Win32,60.16847172,628b806c463b948bc644b84f,6291ce94b0323921f0865393,,,,,,,,,,,,,,,,,,,,,,,,,,,,,,,,,,,,,,,,,,,,,,,,,,,,,,,,,,,,,,,,,,,,,,,,,,,,,,,,,,,,,,,,,,,srksf,"[""s"",""r"",""k"",""s"",""f""]",0,"[1.4061000000089052,1.5012000000029957,2.558900000005906,3.477799999997046,7.588200000002985,8.205600000008872]",1,SRKSF,4,0,4,0,1,,
,,,,,,,,,,61226282383c9553aa4c3e11,21,Kobieta,2022-05-28_09h26.33.001,task,2021.1.4,Win32,60.16847172,628b806c463b948bc644b84f,6291ce94b0323921f0865393,,,,,,,,,,,,,,,,,,,,,,,4,,,,,,,,,,Task,11,(18/3) - 2,4,,,,,,,,,,,,,,,,,,1,,,,,,,,,,,,,,,,,,,,,,,,"[""4""]",1,[3.7049000000059777],0,0,0,10,1,,,,,,,,,,,,,,,,,,
,,,,,,,,,,61226282383c9553aa4c3e11,21,Kobieta,2022-05-28_09h26.33.001,task,2021.1.4,Win32,60.16847172,628b806c463b948bc644b84f,6291ce94b0323921f0865393,,,,,,,,,,"X V Q F H G B L J M P D K C T S W R N Z
",,,,,,,,,,,,,,,,,,,,,,,,,,,,,,,,,,,,,,,,,,,,,,,,,,,,,,,,,,,,,,,,,,,,,,,,,,,,0,0,0,0,1,,,,,,,,,,,,,
,,,,,,,,,,61226282383c9553aa4c3e11,21,Kobieta,2022-05-28_09h26.33.001,task,2021.1.4,Win32,60.16847172,628b806c463b948bc644b84f,6291ce94b0323921f0865393,,,,,,,,,,,,,,,,,,,,,,,7,,,,,,,,,,Task,6,(12/2) + 1,7,,,,,,,,,,,,,,,,,,1,,,,,,,,,,,,,,,,,,,,,,,,"[""7""]",1,[1.2156000000089762],0,0,0,5,1,,,,,,,,,,,,,,,,,,
,,,,,,,,,,61226282383c9553aa4c3e11,21,Kobieta,2022-05-28_09h26.33.001,task,2021.1.4,Win32,60.16847172,628b806c463b948bc644b84f,6291ce94b0323921f0865393,,,,,,,,,,"X V Q F H G B L J M P D K C T S W R N Z
",,,,,,,,,,,,,,,,,,,,,,,,,,,,,,,,,,,,,,,,,,,,,,,,,,,,,,,,,,,,,,,,,,,,,,,,,,,,1,0,1,0,1,,,,,,,,,,,,,
,,,,,,,,,,61226282383c9553aa4c3e11,21,Kobieta,2022-05-28_09h26.33.001,task,2021.1.4,Win32,60.16847172,628b806c463b948bc644b84f,6291ce94b0323921f0865393,,,,,,,,,,,,,,,,,,,,,,,0,,,,,,,,,,Task,8,(1x5) - 5,0,,,,,,,,,,,,,,,,,,1,,,,,,,,,,,,,,,,,,,,,,,,"[""0""]",1,[1.3702000000030239],0,0,0,7,1,,,,,,,,,,,,,,,,,,
,,,,,,,,,,61226282383c9553aa4c3e11,21,Kobieta,2022-05-28_09h26.33.001,task,2021.1.4,Win32,60.16847172,628b806c463b948bc644b84f,6291ce94b0323921f0865393,,,,,,,,,,"X V Q F H G B L J M P D K C T S W R N Z
",,,,,,,,,,,,,,,,,,,,,,,,,,,,,,,,,,,,,,,,,,,,,,,,,,,,,,,,,,,,,,,,,,,,,,,,,,,,2,0,2,0,1,,,,,,,,,,,,,
,,,,,,,,,,61226282383c9553aa4c3e11,21,Kobieta,2022-05-28_09h26.33.001,task,2021.1.4,Win32,60.16847172,628b806c463b948bc644b84f,6291ce94b0323921f0865393,,,,,,,,,,,,,,,,,,,,,,,0,,,,,,,,,,Task,8,(1x5) - 5,0,,,,,,,,,,,,,,,,,,1,,,,,,,,,,,,,,,,,,,,,,,,"[""0""]",1,[1.7954999999999472],0,0,0,7,1,,,,,,,,,,,,,,,,,,
,,,,,,,,,,61226282383c9553aa4c3e11,21,Kobieta,2022-05-28_09h26.33.001,task,2021.1.4,Win32,60.16847172,628b806c463b948bc644b84f,6291ce94b0323921f0865393,,,,,,,,,,"X V Q F H G B L J M P D K C T S W R N Z
",,,,,,,,,,,,,,,,,,,,,,,,,,,,,,,,,,,,,,,,,,,,,,,,,,,,,,,,,,,,,,,,,,,,,,,,,,,,3,0,3,0,1,,,,,,,,,,,,,
,,,,,,,,,,61226282383c9553aa4c3e11,21,Kobieta,2022-05-28_09h26.33.001,task,2021.1.4,Win32,60.16847172,628b806c463b948bc644b84f,6291ce94b0323921f0865393,,,,,,,,,,,,,,,,,,,,,,,7,,,,,,,,,,Task,34,(9/3) - 2,1,,,,,,,,,,,,,,,,,,0,,,,,,,,,,,,,,,,,,,,,,,,"[""7""]",0,[3.1554000000060114],0,0,0,33,1,,,,,,,,,,,,,,,,,,
,,,,,,,,,,61226282383c9553aa4c3e11,21,Kobieta,2022-05-28_09h26.33.001,task,2021.1.4,Win32,60.16847172,628b806c463b948bc644b84f,6291ce94b0323921f0865393,,,,,,,,,,,,,,,,,,,,,,,0,,,,,,,,,,Task,8,(1x5) - 5,0,,,,,,,,,,,,,,,,,,1,,,,,,,,,,,,,,,,,,,,,,,,"[""0""]",1,[1.2337000000029548],0,1,1,7,1,,,,,,,,,,,,,,,,,,
,,,,,,,,,,61226282383c9553aa4c3e11,21,Kobieta,2022-05-28_09h26.33.001,task,2021.1.4,Win32,60.16847172,628b806c463b948bc644b84f,6291ce94b0323921f0865393,,,,,,,,,,"X V Q F H G B L J M P D K C T S W R N Z
",,,,,,,,,,,,,,,,,,,,,,,,,,,,,,,,,,,,,,,,,,,,,,,,,,,,,,,,,,,,,,,,,,,,,,,,,,,,4,0,4,0,1,,,,,,,,,,,,,
,,,,,,,,,,61226282383c9553aa4c3e11,21,Kobieta,2022-05-28_09h26.33.001,task,2021.1.4,Win32,60.16847172,628b806c463b948bc644b84f,6291ce94b0323921f0865393,,,,,,,,,,,,,,,,,,,,,,,6,,,,,,,,,,Task,5,(2x3) + 0,6,,,,,,,,,,,,,,,,,,1,,,,,,,,,,,,,,,,,,,,,,,,"[""6""]",1,[3.1063999999910266],0,0,0,4,1,,,,,,,,,,,,,,,,,,
,,,,,,,,,,61226282383c9553aa4c3e11,21,Kobieta,2022-05-28_09h26.33.001,task,2021.1.4,Win32,60.16847172,628b806c463b948bc644b84f,6291ce94b0323921f0865393,,,,,,,,,,"X V Q F H G B L J M P D K C T S W R N Z
",,,,,,,,,,,,,,,,,,,,,,,,,,,,,,,,,,,,,,,,,,,,,,,,,,,,,,,,,,,,,,,,,,,,,,,,,,,,5,0,5,0,1,,,,,,,,,,,,,
,,,,,,,,,,61226282383c9553aa4c3e11,21,Kobieta,2022-05-28_09h26.33.001,task,2021.1.4,Win32,60.16847172,628b806c463b948bc644b84f,6291ce94b0323921f0865393,,,,,,,,,,,,,,,,,,,,,,,,,,,,,,,,,,,,,,,,,,,,,,,,,,,,,,,,,,,,,,,,,,,,,,,,,,,,,,,,,,,,,,,,,,,fnkmj,"[""f"",""n"",""k"",""m"",""j""]",0,"[1.8412000000030275,2.215799999996989,2.5137999999969907,2.6984000000060178,3.9162000000029593,4.290799999997034]",0,FNKMNJ,5,0,5,0,1,,
,,,,,,,,,,61226282383c9553aa4c3e11,21,Kobieta,2022-05-28_09h26.33.001,task,2021.1.4,Win32,60.16847172,628b806c463b948bc644b84f,6291ce94b0323921f0865393,,,,,,,,,,,,,,,,,,,,,,,3,,,,,,,,,,Task,20,(18/9) + 1,3,,,,,,,,,,,,,,,,,,1,,,,,,,,,,,,,,,,,,,,,,,,"[""3""]",1,[2.6881000000089443],0,0,0,19,1,,,,,,,,,,,,,,,,,,
,,,,,,,,,,61226282383c9553aa4c3e11,21,Kobieta,2022-05-28_09h26.33.001,task,2021.1.4,Win32,60.16847172,628b806c463b948bc644b84f,6291ce94b0323921f0865393,,,,,,,,,,"X V Q F H G B L J M P D K C T S W R N Z
",,,,,,,,,,,,,,,,,,,,,,,,,,,,,,,,,,,,,,,,,,,,,,,,,,,,,,,,,,,,,,,,,,,,,,,,,,,,0,0,0,0,1,,,,,,,,,,,,,
,,,,,,,,,,61226282383c9553aa4c3e11,21,Kobieta,2022-05-28_09h26.33.001,task,2021.1.4,Win32,60.16847172,628b806c463b948bc644b84f,6291ce94b0323921f0865393,,,,,,,,,,,,,,,,,,,,,,,2,,,,,,,,,,Task,34,(9/3) - 2,1,,,,,,,,,,,,,,,,,,0,,,,,,,,,,,,,,,,,,,,,,,,"[""2""]",0,[3.617900000005875],0,0,0,33,1,,,,,,,,,,,,,,,,,,
,,,,,,,,,,61226282383c9553aa4c3e11,21,Kobieta,2022-05-28_09h26.33.001,task,2021.1.4,Win32,60.16847172,628b806c463b948bc644b84f,6291ce94b0323921f0865393,,,,,,,,,,,,,,,,,,,,,,,3,,,,,,,,,,Task,3,(2x3) - 3,3,,,,,,,,,,,,,,,,,,1,,,,,,,,,,,,,,,,,,,,,,,,"[""3""]",1,[2.2632000000029393],0,1,1,2,1,,,,,,,,,,,,,,,,,,
,,,,,,,,,,61226282383c9553aa4c3e11,21,Kobieta,2022-05-28_09h26.33.001,task,2021.1.4,Win32,60.16847172,628b806c463b948bc644b84f,6291ce94b0323921f0865393,,,,,,,,,,"X V Q F H G B L J M P D K C T S W R N Z
",,,,,,,,,,,,,,,,,,,,,,,,,,,,,,,,,,,,,,,,,,,,,,,,,,,,,,,,,,,,,,,,,,,,,,,,,,,,1,0,1,0,1,,,,,,,,,,,,,
,,,,,,,,,,61226282383c9553aa4c3e11,21,Kobieta,2022-05-28_09h26.33.001,task,2021.1.4,Win32,60.16847172,628b806c463b948bc644b84f,6291ce94b0323921f0865393,,,,,,,,,,,,,,,,,,,,,,,8,,,,,,,,,,Task,32,(8/2) + 4,8,,,,,,,,,,,,,,,,,,1,,,,,,,,,,,,,,,,,,,,,,,,"[""8""]",1,[2.211099999994076],0,0,0,31,1,,,,,,,,,,,,,,,,,,
,,,,,,,,,,61226282383c9553aa4c3e11,21,Kobieta,2022-05-28_09h26.33.001,task,2021.1.4,Win32,60.16847172,628b806c463b948bc644b84f,6291ce94b0323921f0865393,,,,,,,,,,"X V Q F H G B L J M P D K C T S W R N Z
",,,,,,,,,,,,,,,,,,,,,,,,,,,,,,,,,,,,,,,,,,,,,,,,,,,,,,,,,,,,,,,,,,,,,,,,,,,,2,0,2,0,1,,,,,,,,,,,,,
,,,,,,,,,,61226282383c9553aa4c3e11,21,Kobieta,2022-05-28_09h26.33.001,task,2021.1.4,Win32,60.16847172,628b806c463b948bc644b84f,6291ce94b0323921f0865393,,,,,,,,,,,,,,,,,,,,,,,3,,,,,,,,,,Task,20,(18/9) + 1,3,,,,,,,,,,,,,,,,,,1,,,,,,,,,,,,,,,,,,,,,,,,"[""3""]",1,[2.508199999988051],0,0,0,19,1,,,,,,,,,,,,,,,,,,
,,,,,,,,,,61226282383c9553aa4c3e11,21,Kobieta,2022-05-28_09h26.33.001,task,2021.1.4,Win32,60.16847172,628b806c463b948bc644b84f,6291ce94b0323921f0865393,,,,,,,,,,"X V Q F H G B L J M P D K C T S W R N Z
",,,,,,,,,,,,,,,,,,,,,,,,,,,,,,,,,,,,,,,,,,,,,,,,,,,,,,,,,,,,,,,,,,,,,,,,,,,,3,0,3,0,1,,,,,,,,,,,,,
,,,,,,,,,,61226282383c9553aa4c3e11,21,Kobieta,2022-05-28_09h26.33.001,task,2021.1.4,Win32,60.16847172,628b806c463b948bc644b84f,6291ce94b0323921f0865393,,,,,,,,,,,,,,,,,,,,,,,4,,,,,,,,,,Task,21,(10/2) - 1,4,,,,,,,,,,,,,,,,,,1,,,,,,,,,,,,,,,,,,,,,,,,"[""4""]",1,[1.6438999999910493],0,0,0,20,1,,,,,,,,,,,,,,,,,,
,,,,,,,,,,61226282383c9553aa4c3e11,21,Kobieta,2022-05-28_09h26.33.001,task,2021.1.4,Win32,60.16847172,628b806c463b948bc644b84f,6291ce94b0323921f0865393,,,,,,,,,,"X V Q F H G B L J M P D K C T S W R N Z
",,,,,,,,,,,,,,,,,,,,,,,,,,,,,,,,,,,,,,,,,,,,,,,,,,,,,,,,,,,,,,,,,,,,,,,,,,,,4,0,4,0,1,,,,,,,,,,,,,
,,,,,,,,,,61226282383c9553aa4c3e11,21,Kobieta,2022-05-28_09h26.33.001,task,2021.1.4,Win32,60.16847172,628b806c463b948bc644b84f,6291ce94b0323921f0865393,,,,,,,,,,,,,,,,,,,,,,,4,,,,,,,,,,Task,28,(2x5) - 6,4,,,,,,,,,,,,,,,,,,1,,,,,,,,,,,,,,,,,,,,,,,,"[""4""]",1,[1.7342999999970061],0,0,0,27,1,,,,,,,,,,,,,,,,,,
,,,,,,,,,,61226282383c9553aa4c3e11,21,Kobieta,2022-05-28_09h26.33.001,task,2021.1.4,Win32,60.16847172,628b806c463b948bc644b84f,6291ce94b0323921f0865393,,,,,,,,,,"X V Q F H G B L J M P D K C T S W R N Z
",,,,,,,,,,,,,,,,,,,,,,,,,,,,,,,,,,,,,,,,,,,,,,,,,,,,,,,,,,,,,,,,,,,,,,,,,,,,5,0,5,0,1,,,,,,,,,,,,,
,,,,,,,,,,61226282383c9553aa4c3e11,21,Kobieta,2022-05-28_09h26.33.001,task,2021.1.4,Win32,60.16847172,628b806c463b948bc644b84f,6291ce94b0323921f0865393,,,,,,,,,,,,,,,,,,,,,,,,,,,,,,,,,,,,,,,,,,,,,,,,,,,,,,,,,,,,,,,,,,,,,,,,,,,,,,,,,,,,,,,,,,,fnkkj,"[""f"",""n"",""k"",""k"",""j""]",0,"[1.7066000000089616,2.223299999997039,2.3367000000030203,2.507799999997019,3.3272000000030175,3.557700000003024]",0,QDKNKG,6,0,6,0,1,,
,,,,,,,,,,61226282383c9553aa4c3e11,21,Kobieta,2022-05-28_09h26.33.001,task,2021.1.4,Win32,60.16847172,628b806c463b948bc644b84f,6291ce94b0323921f0865393,,,,,,,,,,,,,,,,,,,,,,,,,,,,,,,,,,,,,,,,,,,,,,,,,,,,,,,,,,,,,,,,,,,,,,,,,,,,,,,,,,,,,,,,,,,,,,,,,,,,,,space,1.4452
