key_resp_15.keys,key_resp_15.rt,key_resp_13.keys,key_resp_13.corr,key_resp_13.rt,ranodm_loop.thisRepN,ranodm_loop.thisTrialN,ranodm_loop.thisN,ranodm_loop.thisIndex,ranodm_loop.ran,participant,Wiek*,Płeć,date,expName,psychopyVersion,OS,frameRate,study_id,session,key_resp_16.keys,key_resp_16.rt,key_resp_4.keys,key_resp_4.rt,next_letter.thisRepN,next_letter.thisTrialN,next_letter.thisN,next_letter.thisIndex,next_letter.ran,letter,simple_recall,key_resp_5.keys,key_resp_5.rt,simple_recall_corr,simple_recall_corrkeys,next_level.thisRepN,next_level.thisTrialN,next_level.thisN,next_level.thisIndex,next_level.ran,key_resp_2.keys,key_resp_2.rt,digit_answer,key_resp.keys,key_resp.corr,key_resp.rt,RT_list,next_equation.thisRepN,next_equation.thisTrialN,next_equation.thisN,next_equation.thisIndex,next_equation.ran,Task,Trial,Problem,Operation_answer,processing_score,sumRT,meanRT,sumdiff,sd,RT,key_resp_3.keys,key_resp_3.rt,repeat_practice.thisRepN,repeat_practice.thisTrialN,repeat_practice.thisN,repeat_practice.thisIndex,repeat_practice.ran,key_resp_6.keys,key_resp_6.rt,key_resp_11.keys,key_resp_11.corr,key_resp_11.rt,operation_correct,repeat_if_wrong_prac.thisRepN,repeat_if_wrong_prac.thisTrialN,repeat_if_wrong_prac.thisN,repeat_if_wrong_prac.thisIndex,repeat_if_wrong_prac.ran,span_size_prac.thisRepN,span_size_prac.thisTrialN,span_size_prac.thisN,span_size_prac.thisIndex,span_size_prac.ran,complex_recall_practice,key_resp_9.keys,key_resp_9.corr,key_resp_9.rt,complex_prac_corr,span_recall_prac.thisRepN,span_recall_prac.thisTrialN,span_recall_prac.thisN,span_recall_prac.thisIndex,span_recall_prac.ran,key_resp_10.keys,key_resp_10.rt,key_resp_7.keys,key_resp_7.corr,key_resp_7.rt,repeat_if_wrong.thisRepN,repeat_if_wrong.thisTrialN,repeat_if_wrong.thisN,repeat_if_wrong.thisIndex,repeat_if_wrong.ran,span_size.thisRepN,span_size.thisTrialN,span_size.thisN,span_size.thisIndex,span_size.ran,complex_recall,key_resp_8.keys,key_resp_8.corr,key_resp_8.rt,complex_recall_corr,complex_recall_corrkeys,span_recall.thisRepN,span_recall.thisTrialN,span_recall.thisN,span_recall.thisIndex,span_recall.ran,key_resp_12.keys,key_resp_12.rt
space,25.0831,"[""comma""]",0,[1.1882999999523207],0,0,0,0,1,61234be436e5986448f79170,25,Mężczyzna,2022-06-04_08h12.41.384,task,2021.1.4,Win32,60.0276127,628b806c463b948bc644b84f,629af6ed472dc15ea9e23c7d,,,,,,,,,,,,,,,,,,,,,,,,,,,,,,,,,,,,,,,,,,,,,,,,,,,,,,,,,,,,,,,,,,,,,,,,,,,,,,,,,,,,,,,,,,,,,,,,,,,,,,,
,,"[""period""]",0,[0.7838000000715226],1,0,1,0,1,61234be436e5986448f79170,25,Mężczyzna,2022-06-04_08h12.41.384,task,2021.1.4,Win32,60.0276127,628b806c463b948bc644b84f,629af6ed472dc15ea9e23c7d,,,,,,,,,,,,,,,,,,,,,,,,,,,,,,,,,,,,,,,,,,,,,,,,,,,,,,,,,,,,,,,,,,,,,,,,,,,,,,,,,,,,,,,,,,,,,,,,,,,,,,,
,,"[""period""]",0,[0.48080000007152535],2,0,2,0,1,61234be436e5986448f79170,25,Mężczyzna,2022-06-04_08h12.41.384,task,2021.1.4,Win32,60.0276127,628b806c463b948bc644b84f,629af6ed472dc15ea9e23c7d,,,,,,,,,,,,,,,,,,,,,,,,,,,,,,,,,,,,,,,,,,,,,,,,,,,,,,,,,,,,,,,,,,,,,,,,,,,,,,,,,,,,,,,,,,,,,,,,,,,,,,,
,,"[""period""]",0,[0.37209999990463416],3,0,3,0,1,61234be436e5986448f79170,25,Mężczyzna,2022-06-04_08h12.41.384,task,2021.1.4,Win32,60.0276127,628b806c463b948bc644b84f,629af6ed472dc15ea9e23c7d,,,,,,,,,,,,,,,,,,,,,,,,,,,,,,,,,,,,,,,,,,,,,,,,,,,,,,,,,,,,,,,,,,,,,,,,,,,,,,,,,,,,,,,,,,,,,,,,,,,,,,,
,,"[""comma""]",0,[0.41940000009536504],4,0,4,0,1,61234be436e5986448f79170,25,Mężczyzna,2022-06-04_08h12.41.384,task,2021.1.4,Win32,60.0276127,628b806c463b948bc644b84f,629af6ed472dc15ea9e23c7d,,,,,,,,,,,,,,,,,,,,,,,,,,,,,,,,,,,,,,,,,,,,,,,,,,,,,,,,,,,,,,,,,,,,,,,,,,,,,,,,,,,,,,,,,,,,,,,,,,,,,,,
,,"[""period""]",0,[0.3920000000000101],5,0,5,0,1,61234be436e5986448f79170,25,Mężczyzna,2022-06-04_08h12.41.384,task,2021.1.4,Win32,60.0276127,628b806c463b948bc644b84f,629af6ed472dc15ea9e23c7d,,,,,,,,,,,,,,,,,,,,,,,,,,,,,,,,,,,,,,,,,,,,,,,,,,,,,,,,,,,,,,,,,,,,,,,,,,,,,,,,,,,,,,,,,,,,,,,,,,,,,,,
,,"[""comma""]",0,[0.31370000004768883],6,0,6,0,1,61234be436e5986448f79170,25,Mężczyzna,2022-06-04_08h12.41.384,task,2021.1.4,Win32,60.0276127,628b806c463b948bc644b84f,629af6ed472dc15ea9e23c7d,,,,,,,,,,,,,,,,,,,,,,,,,,,,,,,,,,,,,,,,,,,,,,,,,,,,,,,,,,,,,,,,,,,,,,,,,,,,,,,,,,,,,,,,,,,,,,,,,,,,,,,
,,"[""comma""]",0,[0.3137999999523231],7,0,7,0,1,61234be436e5986448f79170,25,Mężczyzna,2022-06-04_08h12.41.384,task,2021.1.4,Win32,60.0276127,628b806c463b948bc644b84f,629af6ed472dc15ea9e23c7d,,,,,,,,,,,,,,,,,,,,,,,,,,,,,,,,,,,,,,,,,,,,,,,,,,,,,,,,,,,,,,,,,,,,,,,,,,,,,,,,,,,,,,,,,,,,,,,,,,,,,,,
,,"[""comma""]",0,[0.29839999997614086],8,0,8,0,1,61234be436e5986448f79170,25,Mężczyzna,2022-06-04_08h12.41.384,task,2021.1.4,Win32,60.0276127,628b806c463b948bc644b84f,629af6ed472dc15ea9e23c7d,,,,,,,,,,,,,,,,,,,,,,,,,,,,,,,,,,,,,,,,,,,,,,,,,,,,,,,,,,,,,,,,,,,,,,,,,,,,,,,,,,,,,,,,,,,,,,,,,,,,,,,
,,"[""period""]",0,[0.35070000004768076],9,0,9,0,1,61234be436e5986448f79170,25,Mężczyzna,2022-06-04_08h12.41.384,task,2021.1.4,Win32,60.0276127,628b806c463b948bc644b84f,629af6ed472dc15ea9e23c7d,,,,,,,,,,,,,,,,,,,,,,,,,,,,,,,,,,,,,,,,,,,,,,,,,,,,,,,,,,,,,,,,,,,,,,,,,,,,,,,,,,,,,,,,,,,,,,,,,,,,,,,
,,"[""comma""]",0,[0.33430000007152216],10,0,10,0,1,61234be436e5986448f79170,25,Mężczyzna,2022-06-04_08h12.41.384,task,2021.1.4,Win32,60.0276127,628b806c463b948bc644b84f,629af6ed472dc15ea9e23c7d,,,,,,,,,,,,,,,,,,,,,,,,,,,,,,,,,,,,,,,,,,,,,,,,,,,,,,,,,,,,,,,,,,,,,,,,,,,,,,,,,,,,,,,,,,,,,,,,,,,,,,,
,,"[""period""]",0,[0.2741999999284701],11,0,11,0,1,61234be436e5986448f79170,25,Mężczyzna,2022-06-04_08h12.41.384,task,2021.1.4,Win32,60.0276127,628b806c463b948bc644b84f,629af6ed472dc15ea9e23c7d,,,,,,,,,,,,,,,,,,,,,,,,,,,,,,,,,,,,,,,,,,,,,,,,,,,,,,,,,,,,,,,,,,,,,,,,,,,,,,,,,,,,,,,,,,,,,,,,,,,,,,,
,,"[""period""]",0,[0.21629999995232652],12,0,12,0,1,61234be436e5986448f79170,25,Mężczyzna,2022-06-04_08h12.41.384,task,2021.1.4,Win32,60.0276127,628b806c463b948bc644b84f,629af6ed472dc15ea9e23c7d,,,,,,,,,,,,,,,,,,,,,,,,,,,,,,,,,,,,,,,,,,,,,,,,,,,,,,,,,,,,,,,,,,,,,,,,,,,,,,,,,,,,,,,,,,,,,,,,,,,,,,,
,,"[""period""]",0,[0.23919999992847352],13,0,13,0,1,61234be436e5986448f79170,25,Mężczyzna,2022-06-04_08h12.41.384,task,2021.1.4,Win32,60.0276127,628b806c463b948bc644b84f,629af6ed472dc15ea9e23c7d,,,,,,,,,,,,,,,,,,,,,,,,,,,,,,,,,,,,,,,,,,,,,,,,,,,,,,,,,,,,,,,,,,,,,,,,,,,,,,,,,,,,,,,,,,,,,,,,,,,,,,,
,,"[""period""]",0,[0.28429999995231015],14,0,14,0,1,61234be436e5986448f79170,25,Mężczyzna,2022-06-04_08h12.41.384,task,2021.1.4,Win32,60.0276127,628b806c463b948bc644b84f,629af6ed472dc15ea9e23c7d,,,,,,,,,,,,,,,,,,,,,,,,,,,,,,,,,,,,,,,,,,,,,,,,,,,,,,,,,,,,,,,,,,,,,,,,,,,,,,,,,,,,,,,,,,,,,,,,,,,,,,,
,,"[""comma""]",0,[0.30479999995230855],15,0,15,0,1,61234be436e5986448f79170,25,Mężczyzna,2022-06-04_08h12.41.384,task,2021.1.4,Win32,60.0276127,628b806c463b948bc644b84f,629af6ed472dc15ea9e23c7d,,,,,,,,,,,,,,,,,,,,,,,,,,,,,,,,,,,,,,,,,,,,,,,,,,,,,,,,,,,,,,,,,,,,,,,,,,,,,,,,,,,,,,,,,,,,,,,,,,,,,,,
,,"[""period""]",0,[0.2662000000476894],16,0,16,0,1,61234be436e5986448f79170,25,Mężczyzna,2022-06-04_08h12.41.384,task,2021.1.4,Win32,60.0276127,628b806c463b948bc644b84f,629af6ed472dc15ea9e23c7d,,,,,,,,,,,,,,,,,,,,,,,,,,,,,,,,,,,,,,,,,,,,,,,,,,,,,,,,,,,,,,,,,,,,,,,,,,,,,,,,,,,,,,,,,,,,,,,,,,,,,,,
,,"[""comma""]",0,[0.17160000002382958],17,0,17,0,1,61234be436e5986448f79170,25,Mężczyzna,2022-06-04_08h12.41.384,task,2021.1.4,Win32,60.0276127,628b806c463b948bc644b84f,629af6ed472dc15ea9e23c7d,,,,,,,,,,,,,,,,,,,,,,,,,,,,,,,,,,,,,,,,,,,,,,,,,,,,,,,,,,,,,,,,,,,,,,,,,,,,,,,,,,,,,,,,,,,,,,,,,,,,,,,
,,"[""comma""]",0,[0.2832000000476853],18,0,18,0,1,61234be436e5986448f79170,25,Mężczyzna,2022-06-04_08h12.41.384,task,2021.1.4,Win32,60.0276127,628b806c463b948bc644b84f,629af6ed472dc15ea9e23c7d,,,,,,,,,,,,,,,,,,,,,,,,,,,,,,,,,,,,,,,,,,,,,,,,,,,,,,,,,,,,,,,,,,,,,,,,,,,,,,,,,,,,,,,,,,,,,,,,,,,,,,,
,,"[""comma""]",0,[0.24919999992846442],19,0,19,0,1,61234be436e5986448f79170,25,Mężczyzna,2022-06-04_08h12.41.384,task,2021.1.4,Win32,60.0276127,628b806c463b948bc644b84f,629af6ed472dc15ea9e23c7d,,,,,,,,,,,,,,,,,,,,,,,,,,,,,,,,,,,,,,,,,,,,,,,,,,,,,,,,,,,,,,,,,,,,,,,,,,,,,,,,,,,,,,,,,,,,,,,,,,,,,,,
,,"[""period""]",0,[0.23400000000000887],20,0,20,0,1,61234be436e5986448f79170,25,Mężczyzna,2022-06-04_08h12.41.384,task,2021.1.4,Win32,60.0276127,628b806c463b948bc644b84f,629af6ed472dc15ea9e23c7d,,,,,,,,,,,,,,,,,,,,,,,,,,,,,,,,,,,,,,,,,,,,,,,,,,,,,,,,,,,,,,,,,,,,,,,,,,,,,,,,,,,,,,,,,,,,,,,,,,,,,,,
,,"[""period""]",0,[0.23459999990464553],21,0,21,0,1,61234be436e5986448f79170,25,Mężczyzna,2022-06-04_08h12.41.384,task,2021.1.4,Win32,60.0276127,628b806c463b948bc644b84f,629af6ed472dc15ea9e23c7d,,,,,,,,,,,,,,,,,,,,,,,,,,,,,,,,,,,,,,,,,,,,,,,,,,,,,,,,,,,,,,,,,,,,,,,,,,,,,,,,,,,,,,,,,,,,,,,,,,,,,,,
,,"[""comma""]",0,[0.24810000002383958],22,0,22,0,1,61234be436e5986448f79170,25,Mężczyzna,2022-06-04_08h12.41.384,task,2021.1.4,Win32,60.0276127,628b806c463b948bc644b84f,629af6ed472dc15ea9e23c7d,,,,,,,,,,,,,,,,,,,,,,,,,,,,,,,,,,,,,,,,,,,,,,,,,,,,,,,,,,,,,,,,,,,,,,,,,,,,,,,,,,,,,,,,,,,,,,,,,,,,,,,
,,"[""comma""]",0,[0.3503000000715133],23,0,23,0,1,61234be436e5986448f79170,25,Mężczyzna,2022-06-04_08h12.41.384,task,2021.1.4,Win32,60.0276127,628b806c463b948bc644b84f,629af6ed472dc15ea9e23c7d,,,,,,,,,,,,,,,,,,,,,,,,,,,,,,,,,,,,,,,,,,,,,,,,,,,,,,,,,,,,,,,,,,,,,,,,,,,,,,,,,,,,,,,,,,,,,,,,,,,,,,,
,,"[""comma""]",0,[0.33780000007152466],24,0,24,0,1,61234be436e5986448f79170,25,Mężczyzna,2022-06-04_08h12.41.384,task,2021.1.4,Win32,60.0276127,628b806c463b948bc644b84f,629af6ed472dc15ea9e23c7d,,,,,,,,,,,,,,,,,,,,,,,,,,,,,,,,,,,,,,,,,,,,,,,,,,,,,,,,,,,,,,,,,,,,,,,,,,,,,,,,,,,,,,,,,,,,,,,,,,,,,,,
,,"[""period""]",0,[0.521700000047673],25,0,25,0,1,61234be436e5986448f79170,25,Mężczyzna,2022-06-04_08h12.41.384,task,2021.1.4,Win32,60.0276127,628b806c463b948bc644b84f,629af6ed472dc15ea9e23c7d,,,,,,,,,,,,,,,,,,,,,,,,,,,,,,,,,,,,,,,,,,,,,,,,,,,,,,,,,,,,,,,,,,,,,,,,,,,,,,,,,,,,,,,,,,,,,,,,,,,,,,,
,,"[""comma""]",0,[0.5872000000476589],26,0,26,0,1,61234be436e5986448f79170,25,Mężczyzna,2022-06-04_08h12.41.384,task,2021.1.4,Win32,60.0276127,628b806c463b948bc644b84f,629af6ed472dc15ea9e23c7d,,,,,,,,,,,,,,,,,,,,,,,,,,,,,,,,,,,,,,,,,,,,,,,,,,,,,,,,,,,,,,,,,,,,,,,,,,,,,,,,,,,,,,,,,,,,,,,,,,,,,,,
,,"[""comma""]",0,[0.500300000071519],27,0,27,0,1,61234be436e5986448f79170,25,Mężczyzna,2022-06-04_08h12.41.384,task,2021.1.4,Win32,60.0276127,628b806c463b948bc644b84f,629af6ed472dc15ea9e23c7d,,,,,,,,,,,,,,,,,,,,,,,,,,,,,,,,,,,,,,,,,,,,,,,,,,,,,,,,,,,,,,,,,,,,,,,,,,,,,,,,,,,,,,,,,,,,,,,,,,,,,,,
,,"[""period""]",0,[0.4297000000476885],28,0,28,0,1,61234be436e5986448f79170,25,Mężczyzna,2022-06-04_08h12.41.384,task,2021.1.4,Win32,60.0276127,628b806c463b948bc644b84f,629af6ed472dc15ea9e23c7d,,,,,,,,,,,,,,,,,,,,,,,,,,,,,,,,,,,,,,,,,,,,,,,,,,,,,,,,,,,,,,,,,,,,,,,,,,,,,,,,,,,,,,,,,,,,,,,,,,,,,,,
,,"[""period""]",0,[0.47540000009536243],29,0,29,0,1,61234be436e5986448f79170,25,Mężczyzna,2022-06-04_08h12.41.384,task,2021.1.4,Win32,60.0276127,628b806c463b948bc644b84f,629af6ed472dc15ea9e23c7d,,,,,,,,,,,,,,,,,,,,,,,,,,,,,,,,,,,,,,,,,,,,,,,,,,,,,,,,,,,,,,,,,,,,,,,,,,,,,,,,,,,,,,,,,,,,,,,,,,,,,,,
,,"[""period""]",0,[0.4123000000715251],30,0,30,0,1,61234be436e5986448f79170,25,Mężczyzna,2022-06-04_08h12.41.384,task,2021.1.4,Win32,60.0276127,628b806c463b948bc644b84f,629af6ed472dc15ea9e23c7d,,,,,,,,,,,,,,,,,,,,,,,,,,,,,,,,,,,,,,,,,,,,,,,,,,,,,,,,,,,,,,,,,,,,,,,,,,,,,,,,,,,,,,,,,,,,,,,,,,,,,,,
,,"[""comma""]",0,[0.547300000071516],31,0,31,0,1,61234be436e5986448f79170,25,Mężczyzna,2022-06-04_08h12.41.384,task,2021.1.4,Win32,60.0276127,628b806c463b948bc644b84f,629af6ed472dc15ea9e23c7d,,,,,,,,,,,,,,,,,,,,,,,,,,,,,,,,,,,,,,,,,,,,,,,,,,,,,,,,,,,,,,,,,,,,,,,,,,,,,,,,,,,,,,,,,,,,,,,,,,,,,,,
,,"[""comma""]",0,[0.7582000000476796],32,0,32,0,1,61234be436e5986448f79170,25,Mężczyzna,2022-06-04_08h12.41.384,task,2021.1.4,Win32,60.0276127,628b806c463b948bc644b84f,629af6ed472dc15ea9e23c7d,,,,,,,,,,,,,,,,,,,,,,,,,,,,,,,,,,,,,,,,,,,,,,,,,,,,,,,,,,,,,,,,,,,,,,,,,,,,,,,,,,,,,,,,,,,,,,,,,,,,,,,
,,"[""period""]",0,[0.5589999999999975],33,0,33,0,1,61234be436e5986448f79170,25,Mężczyzna,2022-06-04_08h12.41.384,task,2021.1.4,Win32,60.0276127,628b806c463b948bc644b84f,629af6ed472dc15ea9e23c7d,,,,,,,,,,,,,,,,,,,,,,,,,,,,,,,,,,,,,,,,,,,,,,,,,,,,,,,,,,,,,,,,,,,,,,,,,,,,,,,,,,,,,,,,,,,,,,,,,,,,,,,
,,"[""comma""]",0,[0.42880000007153285],34,0,34,0,1,61234be436e5986448f79170,25,Mężczyzna,2022-06-04_08h12.41.384,task,2021.1.4,Win32,60.0276127,628b806c463b948bc644b84f,629af6ed472dc15ea9e23c7d,,,,,,,,,,,,,,,,,,,,,,,,,,,,,,,,,,,,,,,,,,,,,,,,,,,,,,,,,,,,,,,,,,,,,,,,,,,,,,,,,,,,,,,,,,,,,,,,,,,,,,,
,,"[""period""]",0,[0.22910000002383413],35,0,35,0,1,61234be436e5986448f79170,25,Mężczyzna,2022-06-04_08h12.41.384,task,2021.1.4,Win32,60.0276127,628b806c463b948bc644b84f,629af6ed472dc15ea9e23c7d,,,,,,,,,,,,,,,,,,,,,,,,,,,,,,,,,,,,,,,,,,,,,,,,,,,,,,,,,,,,,,,,,,,,,,,,,,,,,,,,,,,,,,,,,,,,,,,,,,,,,,,
,,"[""comma""]",0,[0.29470000004766916],36,0,36,0,1,61234be436e5986448f79170,25,Mężczyzna,2022-06-04_08h12.41.384,task,2021.1.4,Win32,60.0276127,628b806c463b948bc644b84f,629af6ed472dc15ea9e23c7d,,,,,,,,,,,,,,,,,,,,,,,,,,,,,,,,,,,,,,,,,,,,,,,,,,,,,,,,,,,,,,,,,,,,,,,,,,,,,,,,,,,,,,,,,,,,,,,,,,,,,,,
,,"[""comma""]",0,[0.28569999992845396],37,0,37,0,1,61234be436e5986448f79170,25,Mężczyzna,2022-06-04_08h12.41.384,task,2021.1.4,Win32,60.0276127,628b806c463b948bc644b84f,629af6ed472dc15ea9e23c7d,,,,,,,,,,,,,,,,,,,,,,,,,,,,,,,,,,,,,,,,,,,,,,,,,,,,,,,,,,,,,,,,,,,,,,,,,,,,,,,,,,,,,,,,,,,,,,,,,,,,,,,
,,"[""comma""]",0,[0.30699999999998795],38,0,38,0,1,61234be436e5986448f79170,25,Mężczyzna,2022-06-04_08h12.41.384,task,2021.1.4,Win32,60.0276127,628b806c463b948bc644b84f,629af6ed472dc15ea9e23c7d,,,,,,,,,,,,,,,,,,,,,,,,,,,,,,,,,,,,,,,,,,,,,,,,,,,,,,,,,,,,,,,,,,,,,,,,,,,,,,,,,,,,,,,,,,,,,,,,,,,,,,,
,,"[""period""]",0,[0.27470000004768735],39,0,39,0,1,61234be436e5986448f79170,25,Mężczyzna,2022-06-04_08h12.41.384,task,2021.1.4,Win32,60.0276127,628b806c463b948bc644b84f,629af6ed472dc15ea9e23c7d,,,,,,,,,,,,,,,,,,,,,,,,,,,,,,,,,,,,,,,,,,,,,,,,,,,,,,,,,,,,,,,,,,,,,,,,,,,,,,,,,,,,,,,,,,,,,,,,,,,,,,,
,,"[""period""]",0,[0.3487000000476712],40,0,40,0,1,61234be436e5986448f79170,25,Mężczyzna,2022-06-04_08h12.41.384,task,2021.1.4,Win32,60.0276127,628b806c463b948bc644b84f,629af6ed472dc15ea9e23c7d,,,,,,,,,,,,,,,,,,,,,,,,,,,,,,,,,,,,,,,,,,,,,,,,,,,,,,,,,,,,,,,,,,,,,,,,,,,,,,,,,,,,,,,,,,,,,,,,,,,,,,,
,,"[""comma""]",0,[0.26269999992848625],41,0,41,0,1,61234be436e5986448f79170,25,Mężczyzna,2022-06-04_08h12.41.384,task,2021.1.4,Win32,60.0276127,628b806c463b948bc644b84f,629af6ed472dc15ea9e23c7d,,,,,,,,,,,,,,,,,,,,,,,,,,,,,,,,,,,,,,,,,,,,,,,,,,,,,,,,,,,,,,,,,,,,,,,,,,,,,,,,,,,,,,,,,,,,,,,,,,,,,,,
,,"[""period""]",0,[0.25070000004768644],42,0,42,0,1,61234be436e5986448f79170,25,Mężczyzna,2022-06-04_08h12.41.384,task,2021.1.4,Win32,60.0276127,628b806c463b948bc644b84f,629af6ed472dc15ea9e23c7d,,,,,,,,,,,,,,,,,,,,,,,,,,,,,,,,,,,,,,,,,,,,,,,,,,,,,,,,,,,,,,,,,,,,,,,,,,,,,,,,,,,,,,,,,,,,,,,,,,,,,,,
,,"[""period""]",0,[0.282900000095367],43,0,43,0,1,61234be436e5986448f79170,25,Mężczyzna,2022-06-04_08h12.41.384,task,2021.1.4,Win32,60.0276127,628b806c463b948bc644b84f,629af6ed472dc15ea9e23c7d,,,,,,,,,,,,,,,,,,,,,,,,,,,,,,,,,,,,,,,,,,,,,,,,,,,,,,,,,,,,,,,,,,,,,,,,,,,,,,,,,,,,,,,,,,,,,,,,,,,,,,,
,,"[""comma""]",0,[0.2541000000238398],44,0,44,0,1,61234be436e5986448f79170,25,Mężczyzna,2022-06-04_08h12.41.384,task,2021.1.4,Win32,60.0276127,628b806c463b948bc644b84f,629af6ed472dc15ea9e23c7d,,,,,,,,,,,,,,,,,,,,,,,,,,,,,,,,,,,,,,,,,,,,,,,,,,,,,,,,,,,,,,,,,,,,,,,,,,,,,,,,,,,,,,,,,,,,,,,,,,,,,,,
,,"[""comma""]",0,[0.3207000000476796],45,0,45,0,1,61234be436e5986448f79170,25,Mężczyzna,2022-06-04_08h12.41.384,task,2021.1.4,Win32,60.0276127,628b806c463b948bc644b84f,629af6ed472dc15ea9e23c7d,,,,,,,,,,,,,,,,,,,,,,,,,,,,,,,,,,,,,,,,,,,,,,,,,,,,,,,,,,,,,,,,,,,,,,,,,,,,,,,,,,,,,,,,,,,,,,,,,,,,,,,
,,"[""period""]",0,[0.2493000000715142],46,0,46,0,1,61234be436e5986448f79170,25,Mężczyzna,2022-06-04_08h12.41.384,task,2021.1.4,Win32,60.0276127,628b806c463b948bc644b84f,629af6ed472dc15ea9e23c7d,,,,,,,,,,,,,,,,,,,,,,,,,,,,,,,,,,,,,,,,,,,,,,,,,,,,,,,,,,,,,,,,,,,,,,,,,,,,,,,,,,,,,,,,,,,,,,,,,,,,,,,
,,"[""comma""]",0,[0.2822999999523006],47,0,47,0,1,61234be436e5986448f79170,25,Mężczyzna,2022-06-04_08h12.41.384,task,2021.1.4,Win32,60.0276127,628b806c463b948bc644b84f,629af6ed472dc15ea9e23c7d,,,,,,,,,,,,,,,,,,,,,,,,,,,,,,,,,,,,,,,,,,,,,,,,,,,,,,,,,,,,,,,,,,,,,,,,,,,,,,,,,,,,,,,,,,,,,,,,,,,,,,,
,,"[""period""]",0,[0.287200000047676],48,0,48,0,1,61234be436e5986448f79170,25,Mężczyzna,2022-06-04_08h12.41.384,task,2021.1.4,Win32,60.0276127,628b806c463b948bc644b84f,629af6ed472dc15ea9e23c7d,,,,,,,,,,,,,,,,,,,,,,,,,,,,,,,,,,,,,,,,,,,,,,,,,,,,,,,,,,,,,,,,,,,,,,,,,,,,,,,,,,,,,,,,,,,,,,,,,,,,,,,
,,"[""period""]",0,[0.23939999997617178],49,0,49,0,1,61234be436e5986448f79170,25,Mężczyzna,2022-06-04_08h12.41.384,task,2021.1.4,Win32,60.0276127,628b806c463b948bc644b84f,629af6ed472dc15ea9e23c7d,,,,,,,,,,,,,,,,,,,,,,,,,,,,,,,,,,,,,,,,,,,,,,,,,,,,,,,,,,,,,,,,,,,,,,,,,,,,,,,,,,,,,,,,,,,,,,,,,,,,,,,
,,"[""period""]",0,[0.2669999999999959],50,0,50,0,1,61234be436e5986448f79170,25,Mężczyzna,2022-06-04_08h12.41.384,task,2021.1.4,Win32,60.0276127,628b806c463b948bc644b84f,629af6ed472dc15ea9e23c7d,,,,,,,,,,,,,,,,,,,,,,,,,,,,,,,,,,,,,,,,,,,,,,,,,,,,,,,,,,,,,,,,,,,,,,,,,,,,,,,,,,,,,,,,,,,,,,,,,,,,,,,
,,"[""comma""]",0,[0.3407999999523099],51,0,51,0,1,61234be436e5986448f79170,25,Mężczyzna,2022-06-04_08h12.41.384,task,2021.1.4,Win32,60.0276127,628b806c463b948bc644b84f,629af6ed472dc15ea9e23c7d,,,,,,,,,,,,,,,,,,,,,,,,,,,,,,,,,,,,,,,,,,,,,,,,,,,,,,,,,,,,,,,,,,,,,,,,,,,,,,,,,,,,,,,,,,,,,,,,,,,,,,,
,,"[""period""]",0,[0.361300000071509],52,0,52,0,1,61234be436e5986448f79170,25,Mężczyzna,2022-06-04_08h12.41.384,task,2021.1.4,Win32,60.0276127,628b806c463b948bc644b84f,629af6ed472dc15ea9e23c7d,,,,,,,,,,,,,,,,,,,,,,,,,,,,,,,,,,,,,,,,,,,,,,,,,,,,,,,,,,,,,,,,,,,,,,,,,,,,,,,,,,,,,,,,,,,,,,,,,,,,,,,
,,"[""comma""]",0,[0.42010000002383663],53,0,53,0,1,61234be436e5986448f79170,25,Mężczyzna,2022-06-04_08h12.41.384,task,2021.1.4,Win32,60.0276127,628b806c463b948bc644b84f,629af6ed472dc15ea9e23c7d,,,,,,,,,,,,,,,,,,,,,,,,,,,,,,,,,,,,,,,,,,,,,,,,,,,,,,,,,,,,,,,,,,,,,,,,,,,,,,,,,,,,,,,,,,,,,,,,,,,,,,,
,,"[""period""]",0,[0.297300000071516],54,0,54,0,1,61234be436e5986448f79170,25,Mężczyzna,2022-06-04_08h12.41.384,task,2021.1.4,Win32,60.0276127,628b806c463b948bc644b84f,629af6ed472dc15ea9e23c7d,,,,,,,,,,,,,,,,,,,,,,,,,,,,,,,,,,,,,,,,,,,,,,,,,,,,,,,,,,,,,,,,,,,,,,,,,,,,,,,,,,,,,,,,,,,,,,,,,,,,,,,
,,"[""period""]",0,[0.29110000002384595],55,0,55,0,1,61234be436e5986448f79170,25,Mężczyzna,2022-06-04_08h12.41.384,task,2021.1.4,Win32,60.0276127,628b806c463b948bc644b84f,629af6ed472dc15ea9e23c7d,,,,,,,,,,,,,,,,,,,,,,,,,,,,,,,,,,,,,,,,,,,,,,,,,,,,,,,,,,,,,,,,,,,,,,,,,,,,,,,,,,,,,,,,,,,,,,,,,,,,,,,
,,"[""period""]",0,[0.2920000000000016],56,0,56,0,1,61234be436e5986448f79170,25,Mężczyzna,2022-06-04_08h12.41.384,task,2021.1.4,Win32,60.0276127,628b806c463b948bc644b84f,629af6ed472dc15ea9e23c7d,,,,,,,,,,,,,,,,,,,,,,,,,,,,,,,,,,,,,,,,,,,,,,,,,,,,,,,,,,,,,,,,,,,,,,,,,,,,,,,,,,,,,,,,,,,,,,,,,,,,,,,
,,"[""period""]",0,[0.2821999999284799],57,0,57,0,1,61234be436e5986448f79170,25,Mężczyzna,2022-06-04_08h12.41.384,task,2021.1.4,Win32,60.0276127,628b806c463b948bc644b84f,629af6ed472dc15ea9e23c7d,,,,,,,,,,,,,,,,,,,,,,,,,,,,,,,,,,,,,,,,,,,,,,,,,,,,,,,,,,,,,,,,,,,,,,,,,,,,,,,,,,,,,,,,,,,,,,,,,,,,,,,
,,"[""period""]",0,[0.3002000000476812],58,0,58,0,1,61234be436e5986448f79170,25,Mężczyzna,2022-06-04_08h12.41.384,task,2021.1.4,Win32,60.0276127,628b806c463b948bc644b84f,629af6ed472dc15ea9e23c7d,,,,,,,,,,,,,,,,,,,,,,,,,,,,,,,,,,,,,,,,,,,,,,,,,,,,,,,,,,,,,,,,,,,,,,,,,,,,,,,,,,,,,,,,,,,,,,,,,,,,,,,
,,"[""comma""]",0,[0.2859000000953529],59,0,59,0,1,61234be436e5986448f79170,25,Mężczyzna,2022-06-04_08h12.41.384,task,2021.1.4,Win32,60.0276127,628b806c463b948bc644b84f,629af6ed472dc15ea9e23c7d,,,,,,,,,,,,,,,,,,,,,,,,,,,,,,,,,,,,,,,,,,,,,,,,,,,,,,,,,,,,,,,,,,,,,,,,,,,,,,,,,,,,,,,,,,,,,,,,,,,,,,,
,,"[""period""]",0,[0.2668999999761468],60,0,60,0,1,61234be436e5986448f79170,25,Mężczyzna,2022-06-04_08h12.41.384,task,2021.1.4,Win32,60.0276127,628b806c463b948bc644b84f,629af6ed472dc15ea9e23c7d,,,,,,,,,,,,,,,,,,,,,,,,,,,,,,,,,,,,,,,,,,,,,,,,,,,,,,,,,,,,,,,,,,,,,,,,,,,,,,,,,,,,,,,,,,,,,,,,,,,,,,,
,,"[""comma""]",0,[0.2980000000000018],61,0,61,0,1,61234be436e5986448f79170,25,Mężczyzna,2022-06-04_08h12.41.384,task,2021.1.4,Win32,60.0276127,628b806c463b948bc644b84f,629af6ed472dc15ea9e23c7d,,,,,,,,,,,,,,,,,,,,,,,,,,,,,,,,,,,,,,,,,,,,,,,,,,,,,,,,,,,,,,,,,,,,,,,,,,,,,,,,,,,,,,,,,,,,,,,,,,,,,,,
,,"[""comma""]",0,[0.30350000000001387],62,0,62,0,1,61234be436e5986448f79170,25,Mężczyzna,2022-06-04_08h12.41.384,task,2021.1.4,Win32,60.0276127,628b806c463b948bc644b84f,629af6ed472dc15ea9e23c7d,,,,,,,,,,,,,,,,,,,,,,,,,,,,,,,,,,,,,,,,,,,,,,,,,,,,,,,,,,,,,,,,,,,,,,,,,,,,,,,,,,,,,,,,,,,,,,,,,,,,,,,
,,"[""period""]",0,[0.2861000000238505],63,0,63,0,1,61234be436e5986448f79170,25,Mężczyzna,2022-06-04_08h12.41.384,task,2021.1.4,Win32,60.0276127,628b806c463b948bc644b84f,629af6ed472dc15ea9e23c7d,,,,,,,,,,,,,,,,,,,,,,,,,,,,,,,,,,,,,,,,,,,,,,,,,,,,,,,,,,,,,,,,,,,,,,,,,,,,,,,,,,,,,,,,,,,,,,,,,,,,,,,
,,"[""comma""]",0,[0.29249999999998977],64,0,64,0,1,61234be436e5986448f79170,25,Mężczyzna,2022-06-04_08h12.41.384,task,2021.1.4,Win32,60.0276127,628b806c463b948bc644b84f,629af6ed472dc15ea9e23c7d,,,,,,,,,,,,,,,,,,,,,,,,,,,,,,,,,,,,,,,,,,,,,,,,,,,,,,,,,,,,,,,,,,,,,,,,,,,,,,,,,,,,,,,,,,,,,,,,,,,,,,,
,,"[""comma""]",0,[0.35089999997614996],65,0,65,0,1,61234be436e5986448f79170,25,Mężczyzna,2022-06-04_08h12.41.384,task,2021.1.4,Win32,60.0276127,628b806c463b948bc644b84f,629af6ed472dc15ea9e23c7d,,,,,,,,,,,,,,,,,,,,,,,,,,,,,,,,,,,,,,,,,,,,,,,,,,,,,,,,,,,,,,,,,,,,,,,,,,,,,,,,,,,,,,,,,,,,,,,,,,,,,,,
,,"[""comma""]",0,[0.3653000000715281],66,0,66,0,1,61234be436e5986448f79170,25,Mężczyzna,2022-06-04_08h12.41.384,task,2021.1.4,Win32,60.0276127,628b806c463b948bc644b84f,629af6ed472dc15ea9e23c7d,,,,,,,,,,,,,,,,,,,,,,,,,,,,,,,,,,,,,,,,,,,,,,,,,,,,,,,,,,,,,,,,,,,,,,,,,,,,,,,,,,,,,,,,,,,,,,,,,,,,,,,
,,"[""period""]",0,[0.3219999999999743],67,0,67,0,1,61234be436e5986448f79170,25,Mężczyzna,2022-06-04_08h12.41.384,task,2021.1.4,Win32,60.0276127,628b806c463b948bc644b84f,629af6ed472dc15ea9e23c7d,,,,,,,,,,,,,,,,,,,,,,,,,,,,,,,,,,,,,,,,,,,,,,,,,,,,,,,,,,,,,,,,,,,,,,,,,,,,,,,,,,,,,,,,,,,,,,,,,,,,,,,
,,"[""period""]",0,[0.23830000007151853],68,0,68,0,1,61234be436e5986448f79170,25,Mężczyzna,2022-06-04_08h12.41.384,task,2021.1.4,Win32,60.0276127,628b806c463b948bc644b84f,629af6ed472dc15ea9e23c7d,,,,,,,,,,,,,,,,,,,,,,,,,,,,,,,,,,,,,,,,,,,,,,,,,,,,,,,,,,,,,,,,,,,,,,,,,,,,,,,,,,,,,,,,,,,,,,,,,,,,,,,
,,"[""comma""]",0,[0.30060000002382026],69,0,69,0,1,61234be436e5986448f79170,25,Mężczyzna,2022-06-04_08h12.41.384,task,2021.1.4,Win32,60.0276127,628b806c463b948bc644b84f,629af6ed472dc15ea9e23c7d,,,,,,,,,,,,,,,,,,,,,,,,,,,,,,,,,,,,,,,,,,,,,,,,,,,,,,,,,,,,,,,,,,,,,,,,,,,,,,,,,,,,,,,,,,,,,,,,,,,,,,,
,,"[""comma""]",0,[0.33150000000000546],70,0,70,0,1,61234be436e5986448f79170,25,Mężczyzna,2022-06-04_08h12.41.384,task,2021.1.4,Win32,60.0276127,628b806c463b948bc644b84f,629af6ed472dc15ea9e23c7d,,,,,,,,,,,,,,,,,,,,,,,,,,,,,,,,,,,,,,,,,,,,,,,,,,,,,,,,,,,,,,,,,,,,,,,,,,,,,,,,,,,,,,,,,,,,,,,,,,,,,,,
,,"[""period""]",0,[0.2762000000476803],71,0,71,0,1,61234be436e5986448f79170,25,Mężczyzna,2022-06-04_08h12.41.384,task,2021.1.4,Win32,60.0276127,628b806c463b948bc644b84f,629af6ed472dc15ea9e23c7d,,,,,,,,,,,,,,,,,,,,,,,,,,,,,,,,,,,,,,,,,,,,,,,,,,,,,,,,,,,,,,,,,,,,,,,,,,,,,,,,,,,,,,,,,,,,,,,,,,,,,,,
,,"[""comma""]",0,[0.36839999997613404],72,0,72,0,1,61234be436e5986448f79170,25,Mężczyzna,2022-06-04_08h12.41.384,task,2021.1.4,Win32,60.0276127,628b806c463b948bc644b84f,629af6ed472dc15ea9e23c7d,,,,,,,,,,,,,,,,,,,,,,,,,,,,,,,,,,,,,,,,,,,,,,,,,,,,,,,,,,,,,,,,,,,,,,,,,,,,,,,,,,,,,,,,,,,,,,,,,,,,,,,
,,"[""period""]",0,[0.47169999992848943],73,0,73,0,1,61234be436e5986448f79170,25,Mężczyzna,2022-06-04_08h12.41.384,task,2021.1.4,Win32,60.0276127,628b806c463b948bc644b84f,629af6ed472dc15ea9e23c7d,,,,,,,,,,,,,,,,,,,,,,,,,,,,,,,,,,,,,,,,,,,,,,,,,,,,,,,,,,,,,,,,,,,,,,,,,,,,,,,,,,,,,,,,,,,,,,,,,,,,,,,
,,"[""comma""]",0,[0.3994999999999891],74,0,74,0,1,61234be436e5986448f79170,25,Mężczyzna,2022-06-04_08h12.41.384,task,2021.1.4,Win32,60.0276127,628b806c463b948bc644b84f,629af6ed472dc15ea9e23c7d,,,,,,,,,,,,,,,,,,,,,,,,,,,,,,,,,,,,,,,,,,,,,,,,,,,,,,,,,,,,,,,,,,,,,,,,,,,,,,,,,,,,,,,,,,,,,,,,,,,,,,,
,,"[""comma""]",0,[0.3342999999522931],75,0,75,0,1,61234be436e5986448f79170,25,Mężczyzna,2022-06-04_08h12.41.384,task,2021.1.4,Win32,60.0276127,628b806c463b948bc644b84f,629af6ed472dc15ea9e23c7d,,,,,,,,,,,,,,,,,,,,,,,,,,,,,,,,,,,,,,,,,,,,,,,,,,,,,,,,,,,,,,,,,,,,,,,,,,,,,,,,,,,,,,,,,,,,,,,,,,,,,,,
,,"[""comma""]",0,[0.36639999997618133],76,0,76,0,1,61234be436e5986448f79170,25,Mężczyzna,2022-06-04_08h12.41.384,task,2021.1.4,Win32,60.0276127,628b806c463b948bc644b84f,629af6ed472dc15ea9e23c7d,,,,,,,,,,,,,,,,,,,,,,,,,,,,,,,,,,,,,,,,,,,,,,,,,,,,,,,,,,,,,,,,,,,,,,,,,,,,,,,,,,,,,,,,,,,,,,,,,,,,,,,
,,"[""period""]",0,[0.28350000000000364],77,0,77,0,1,61234be436e5986448f79170,25,Mężczyzna,2022-06-04_08h12.41.384,task,2021.1.4,Win32,60.0276127,628b806c463b948bc644b84f,629af6ed472dc15ea9e23c7d,,,,,,,,,,,,,,,,,,,,,,,,,,,,,,,,,,,,,,,,,,,,,,,,,,,,,,,,,,,,,,,,,,,,,,,,,,,,,,,,,,,,,,,,,,,,,,,,,,,,,,,
,,"[""comma""]",0,[0.3697999999523631],78,0,78,0,1,61234be436e5986448f79170,25,Mężczyzna,2022-06-04_08h12.41.384,task,2021.1.4,Win32,60.0276127,628b806c463b948bc644b84f,629af6ed472dc15ea9e23c7d,,,,,,,,,,,,,,,,,,,,,,,,,,,,,,,,,,,,,,,,,,,,,,,,,,,,,,,,,,,,,,,,,,,,,,,,,,,,,,,,,,,,,,,,,,,,,,,,,,,,,,,
,,"[""period""]",0,[0.3363999999762086],79,0,79,0,1,61234be436e5986448f79170,25,Mężczyzna,2022-06-04_08h12.41.384,task,2021.1.4,Win32,60.0276127,628b806c463b948bc644b84f,629af6ed472dc15ea9e23c7d,,,,,,,,,,,,,,,,,,,,,,,,,,,,,,,,,,,,,,,,,,,,,,,,,,,,,,,,,,,,,,,,,,,,,,,,,,,,,,,,,,,,,,,,,,,,,,,,,,,,,,,
,,"[""period""]",0,[0.27260000002382867],80,0,80,0,1,61234be436e5986448f79170,25,Mężczyzna,2022-06-04_08h12.41.384,task,2021.1.4,Win32,60.0276127,628b806c463b948bc644b84f,629af6ed472dc15ea9e23c7d,,,,,,,,,,,,,,,,,,,,,,,,,,,,,,,,,,,,,,,,,,,,,,,,,,,,,,,,,,,,,,,,,,,,,,,,,,,,,,,,,,,,,,,,,,,,,,,,,,,,,,,
,,"[""period""]",0,[0.36250000000001137],81,0,81,0,1,61234be436e5986448f79170,25,Mężczyzna,2022-06-04_08h12.41.384,task,2021.1.4,Win32,60.0276127,628b806c463b948bc644b84f,629af6ed472dc15ea9e23c7d,,,,,,,,,,,,,,,,,,,,,,,,,,,,,,,,,,,,,,,,,,,,,,,,,,,,,,,,,,,,,,,,,,,,,,,,,,,,,,,,,,,,,,,,,,,,,,,,,,,,,,,
,,"[""comma""]",0,[0.5684000000953802],82,0,82,0,1,61234be436e5986448f79170,25,Mężczyzna,2022-06-04_08h12.41.384,task,2021.1.4,Win32,60.0276127,628b806c463b948bc644b84f,629af6ed472dc15ea9e23c7d,,,,,,,,,,,,,,,,,,,,,,,,,,,,,,,,,,,,,,,,,,,,,,,,,,,,,,,,,,,,,,,,,,,,,,,,,,,,,,,,,,,,,,,,,,,,,,,,,,,,,,,
,,"[""period""]",0,[0.5596000000238632],83,0,83,0,1,61234be436e5986448f79170,25,Mężczyzna,2022-06-04_08h12.41.384,task,2021.1.4,Win32,60.0276127,628b806c463b948bc644b84f,629af6ed472dc15ea9e23c7d,,,,,,,,,,,,,,,,,,,,,,,,,,,,,,,,,,,,,,,,,,,,,,,,,,,,,,,,,,,,,,,,,,,,,,,,,,,,,,,,,,,,,,,,,,,,,,,,,,,,,,,
,,"[""comma""]",0,[0.4093000000715392],84,0,84,0,1,61234be436e5986448f79170,25,Mężczyzna,2022-06-04_08h12.41.384,task,2021.1.4,Win32,60.0276127,628b806c463b948bc644b84f,629af6ed472dc15ea9e23c7d,,,,,,,,,,,,,,,,,,,,,,,,,,,,,,,,,,,,,,,,,,,,,,,,,,,,,,,,,,,,,,,,,,,,,,,,,,,,,,,,,,,,,,,,,,,,,,,,,,,,,,,
,,"[""comma""]",0,[0.3726000000238514],85,0,85,0,1,61234be436e5986448f79170,25,Mężczyzna,2022-06-04_08h12.41.384,task,2021.1.4,Win32,60.0276127,628b806c463b948bc644b84f,629af6ed472dc15ea9e23c7d,,,,,,,,,,,,,,,,,,,,,,,,,,,,,,,,,,,,,,,,,,,,,,,,,,,,,,,,,,,,,,,,,,,,,,,,,,,,,,,,,,,,,,,,,,,,,,,,,,,,,,,
,,"[""comma""]",0,[0.5506999999284972],86,0,86,0,1,61234be436e5986448f79170,25,Mężczyzna,2022-06-04_08h12.41.384,task,2021.1.4,Win32,60.0276127,628b806c463b948bc644b84f,629af6ed472dc15ea9e23c7d,,,,,,,,,,,,,,,,,,,,,,,,,,,,,,,,,,,,,,,,,,,,,,,,,,,,,,,,,,,,,,,,,,,,,,,,,,,,,,,,,,,,,,,,,,,,,,,,,,,,,,,
,,"[""period""]",0,[0.426200000047686],87,0,87,0,1,61234be436e5986448f79170,25,Mężczyzna,2022-06-04_08h12.41.384,task,2021.1.4,Win32,60.0276127,628b806c463b948bc644b84f,629af6ed472dc15ea9e23c7d,,,,,,,,,,,,,,,,,,,,,,,,,,,,,,,,,,,,,,,,,,,,,,,,,,,,,,,,,,,,,,,,,,,,,,,,,,,,,,,,,,,,,,,,,,,,,,,,,,,,,,,
,,"[""comma""]",0,[0.36199999999996635],88,0,88,0,1,61234be436e5986448f79170,25,Mężczyzna,2022-06-04_08h12.41.384,task,2021.1.4,Win32,60.0276127,628b806c463b948bc644b84f,629af6ed472dc15ea9e23c7d,,,,,,,,,,,,,,,,,,,,,,,,,,,,,,,,,,,,,,,,,,,,,,,,,,,,,,,,,,,,,,,,,,,,,,,,,,,,,,,,,,,,,,,,,,,,,,,,,,,,,,,
,,"[""period""]",0,[0.27410000002385004],89,0,89,0,1,61234be436e5986448f79170,25,Mężczyzna,2022-06-04_08h12.41.384,task,2021.1.4,Win32,60.0276127,628b806c463b948bc644b84f,629af6ed472dc15ea9e23c7d,,,,,,,,,,,,,,,,,,,,,,,,,,,,,,,,,,,,,,,,,,,,,,,,,,,,,,,,,,,,,,,,,,,,,,,,,,,,,,,,,,,,,,,,,,,,,,,,,,,,,,,
,,"[""period""]",0,[0.27530000007152466],90,0,90,0,1,61234be436e5986448f79170,25,Mężczyzna,2022-06-04_08h12.41.384,task,2021.1.4,Win32,60.0276127,628b806c463b948bc644b84f,629af6ed472dc15ea9e23c7d,,,,,,,,,,,,,,,,,,,,,,,,,,,,,,,,,,,,,,,,,,,,,,,,,,,,,,,,,,,,,,,,,,,,,,,,,,,,,,,,,,,,,,,,,,,,,,,,,,,,,,,
,,"[""comma""]",0,[0.2725000000000364],91,0,91,0,1,61234be436e5986448f79170,25,Mężczyzna,2022-06-04_08h12.41.384,task,2021.1.4,Win32,60.0276127,628b806c463b948bc644b84f,629af6ed472dc15ea9e23c7d,,,,,,,,,,,,,,,,,,,,,,,,,,,,,,,,,,,,,,,,,,,,,,,,,,,,,,,,,,,,,,,,,,,,,,,,,,,,,,,,,,,,,,,,,,,,,,,,,,,,,,,
,,"[""comma""]",0,[0.2453999999761436],92,0,92,0,1,61234be436e5986448f79170,25,Mężczyzna,2022-06-04_08h12.41.384,task,2021.1.4,Win32,60.0276127,628b806c463b948bc644b84f,629af6ed472dc15ea9e23c7d,,,,,,,,,,,,,,,,,,,,,,,,,,,,,,,,,,,,,,,,,,,,,,,,,,,,,,,,,,,,,,,,,,,,,,,,,,,,,,,,,,,,,,,,,,,,,,,,,,,,,,,
,,"[""comma""]",0,[0.3346000000238405],93,0,93,0,1,61234be436e5986448f79170,25,Mężczyzna,2022-06-04_08h12.41.384,task,2021.1.4,Win32,60.0276127,628b806c463b948bc644b84f,629af6ed472dc15ea9e23c7d,,,,,,,,,,,,,,,,,,,,,,,,,,,,,,,,,,,,,,,,,,,,,,,,,,,,,,,,,,,,,,,,,,,,,,,,,,,,,,,,,,,,,,,,,,,,,,,,,,,,,,,
,,"[""period""]",0,[0.3748000000715024],94,0,94,0,1,61234be436e5986448f79170,25,Mężczyzna,2022-06-04_08h12.41.384,task,2021.1.4,Win32,60.0276127,628b806c463b948bc644b84f,629af6ed472dc15ea9e23c7d,,,,,,,,,,,,,,,,,,,,,,,,,,,,,,,,,,,,,,,,,,,,,,,,,,,,,,,,,,,,,,,,,,,,,,,,,,,,,,,,,,,,,,,,,,,,,,,,,,,,,,,
,,"[""period""]",0,[0.34139999997614723],95,0,95,0,1,61234be436e5986448f79170,25,Mężczyzna,2022-06-04_08h12.41.384,task,2021.1.4,Win32,60.0276127,628b806c463b948bc644b84f,629af6ed472dc15ea9e23c7d,,,,,,,,,,,,,,,,,,,,,,,,,,,,,,,,,,,,,,,,,,,,,,,,,,,,,,,,,,,,,,,,,,,,,,,,,,,,,,,,,,,,,,,,,,,,,,,,,,,,,,,
,,"[""comma""]",0,[0.3088000000715283],96,0,96,0,1,61234be436e5986448f79170,25,Mężczyzna,2022-06-04_08h12.41.384,task,2021.1.4,Win32,60.0276127,628b806c463b948bc644b84f,629af6ed472dc15ea9e23c7d,,,,,,,,,,,,,,,,,,,,,,,,,,,,,,,,,,,,,,,,,,,,,,,,,,,,,,,,,,,,,,,,,,,,,,,,,,,,,,,,,,,,,,,,,,,,,,,,,,,,,,,
,,"[""period""]",0,[0.43439999997616496],97,0,97,0,1,61234be436e5986448f79170,25,Mężczyzna,2022-06-04_08h12.41.384,task,2021.1.4,Win32,60.0276127,628b806c463b948bc644b84f,629af6ed472dc15ea9e23c7d,,,,,,,,,,,,,,,,,,,,,,,,,,,,,,,,,,,,,,,,,,,,,,,,,,,,,,,,,,,,,,,,,,,,,,,,,,,,,,,,,,,,,,,,,,,,,,,,,,,,,,,
,,"[""comma""]",0,[0.4970000000000141],98,0,98,0,1,61234be436e5986448f79170,25,Mężczyzna,2022-06-04_08h12.41.384,task,2021.1.4,Win32,60.0276127,628b806c463b948bc644b84f,629af6ed472dc15ea9e23c7d,,,,,,,,,,,,,,,,,,,,,,,,,,,,,,,,,,,,,,,,,,,,,,,,,,,,,,,,,,,,,,,,,,,,,,,,,,,,,,,,,,,,,,,,,,,,,,,,,,,,,,,
,,"[""comma""]",0,[0.507399999976144],99,0,99,0,1,61234be436e5986448f79170,25,Mężczyzna,2022-06-04_08h12.41.384,task,2021.1.4,Win32,60.0276127,628b806c463b948bc644b84f,629af6ed472dc15ea9e23c7d,,,,,,,,,,,,,,,,,,,,,,,,,,,,,,,,,,,,,,,,,,,,,,,,,,,,,,,,,,,,,,,,,,,,,,,,,,,,,,,,,,,,,,,,,,,,,,,,,,,,,,,
,,"[""comma""]",0,[0.38360000002381867],100,0,100,0,1,61234be436e5986448f79170,25,Mężczyzna,2022-06-04_08h12.41.384,task,2021.1.4,Win32,60.0276127,628b806c463b948bc644b84f,629af6ed472dc15ea9e23c7d,,,,,,,,,,,,,,,,,,,,,,,,,,,,,,,,,,,,,,,,,,,,,,,,,,,,,,,,,,,,,,,,,,,,,,,,,,,,,,,,,,,,,,,,,,,,,,,,,,,,,,,
,,"[""comma""]",0,[0.30320000004769554],101,0,101,0,1,61234be436e5986448f79170,25,Mężczyzna,2022-06-04_08h12.41.384,task,2021.1.4,Win32,60.0276127,628b806c463b948bc644b84f,629af6ed472dc15ea9e23c7d,,,,,,,,,,,,,,,,,,,,,,,,,,,,,,,,,,,,,,,,,,,,,,,,,,,,,,,,,,,,,,,,,,,,,,,,,,,,,,,,,,,,,,,,,,,,,,,,,,,,,,,
,,"[""period""]",0,[0.31719999992844805],102,0,102,0,1,61234be436e5986448f79170,25,Mężczyzna,2022-06-04_08h12.41.384,task,2021.1.4,Win32,60.0276127,628b806c463b948bc644b84f,629af6ed472dc15ea9e23c7d,,,,,,,,,,,,,,,,,,,,,,,,,,,,,,,,,,,,,,,,,,,,,,,,,,,,,,,,,,,,,,,,,,,,,,,,,,,,,,,,,,,,,,,,,,,,,,,,,,,,,,,
,,"[""comma""]",0,[0.37440000009536334],103,0,103,0,1,61234be436e5986448f79170,25,Mężczyzna,2022-06-04_08h12.41.384,task,2021.1.4,Win32,60.0276127,628b806c463b948bc644b84f,629af6ed472dc15ea9e23c7d,,,,,,,,,,,,,,,,,,,,,,,,,,,,,,,,,,,,,,,,,,,,,,,,,,,,,,,,,,,,,,,,,,,,,,,,,,,,,,,,,,,,,,,,,,,,,,,,,,,,,,,
,,"[""period""]",0,[0.30009999990465985],104,0,104,0,1,61234be436e5986448f79170,25,Mężczyzna,2022-06-04_08h12.41.384,task,2021.1.4,Win32,60.0276127,628b806c463b948bc644b84f,629af6ed472dc15ea9e23c7d,,,,,,,,,,,,,,,,,,,,,,,,,,,,,,,,,,,,,,,,,,,,,,,,,,,,,,,,,,,,,,,,,,,,,,,,,,,,,,,,,,,,,,,,,,,,,,,,,,,,,,,
,,"[""comma""]",0,[0.2342999999523272],105,0,105,0,1,61234be436e5986448f79170,25,Mężczyzna,2022-06-04_08h12.41.384,task,2021.1.4,Win32,60.0276127,628b806c463b948bc644b84f,629af6ed472dc15ea9e23c7d,,,,,,,,,,,,,,,,,,,,,,,,,,,,,,,,,,,,,,,,,,,,,,,,,,,,,,,,,,,,,,,,,,,,,,,,,,,,,,,,,,,,,,,,,,,,,,,,,,,,,,,
,,"[""comma""]",0,[0.3354999999999677],106,0,106,0,1,61234be436e5986448f79170,25,Mężczyzna,2022-06-04_08h12.41.384,task,2021.1.4,Win32,60.0276127,628b806c463b948bc644b84f,629af6ed472dc15ea9e23c7d,,,,,,,,,,,,,,,,,,,,,,,,,,,,,,,,,,,,,,,,,,,,,,,,,,,,,,,,,,,,,,,,,,,,,,,,,,,,,,,,,,,,,,,,,,,,,,,,,,,,,,,
,,"[""comma""]",0,[0.3394999999999868],107,0,107,0,1,61234be436e5986448f79170,25,Mężczyzna,2022-06-04_08h12.41.384,task,2021.1.4,Win32,60.0276127,628b806c463b948bc644b84f,629af6ed472dc15ea9e23c7d,,,,,,,,,,,,,,,,,,,,,,,,,,,,,,,,,,,,,,,,,,,,,,,,,,,,,,,,,,,,,,,,,,,,,,,,,,,,,,,,,,,,,,,,,,,,,,,,,,,,,,,
,,"[""period""]",0,[0.3211000000238755],108,0,108,0,1,61234be436e5986448f79170,25,Mężczyzna,2022-06-04_08h12.41.384,task,2021.1.4,Win32,60.0276127,628b806c463b948bc644b84f,629af6ed472dc15ea9e23c7d,,,,,,,,,,,,,,,,,,,,,,,,,,,,,,,,,,,,,,,,,,,,,,,,,,,,,,,,,,,,,,,,,,,,,,,,,,,,,,,,,,,,,,,,,,,,,,,,,,,,,,,
,,"[""comma""]",0,[0.43559999990463893],109,0,109,0,1,61234be436e5986448f79170,25,Mężczyzna,2022-06-04_08h12.41.384,task,2021.1.4,Win32,60.0276127,628b806c463b948bc644b84f,629af6ed472dc15ea9e23c7d,,,,,,,,,,,,,,,,,,,,,,,,,,,,,,,,,,,,,,,,,,,,,,,,,,,,,,,,,,,,,,,,,,,,,,,,,,,,,,,,,,,,,,,,,,,,,,,,,,,,,,,
,,"[""comma""]",0,[0.5009999999999764],110,0,110,0,1,61234be436e5986448f79170,25,Mężczyzna,2022-06-04_08h12.41.384,task,2021.1.4,Win32,60.0276127,628b806c463b948bc644b84f,629af6ed472dc15ea9e23c7d,,,,,,,,,,,,,,,,,,,,,,,,,,,,,,,,,,,,,,,,,,,,,,,,,,,,,,,,,,,,,,,,,,,,,,,,,,,,,,,,,,,,,,,,,,,,,,,,,,,,,,,
,,"[""period""]",0,[0.29070000004765006],111,0,111,0,1,61234be436e5986448f79170,25,Mężczyzna,2022-06-04_08h12.41.384,task,2021.1.4,Win32,60.0276127,628b806c463b948bc644b84f,629af6ed472dc15ea9e23c7d,,,,,,,,,,,,,,,,,,,,,,,,,,,,,,,,,,,,,,,,,,,,,,,,,,,,,,,,,,,,,,,,,,,,,,,,,,,,,,,,,,,,,,,,,,,,,,,,,,,,,,,
,,"[""period""]",0,[0.3573999999761668],112,0,112,0,1,61234be436e5986448f79170,25,Mężczyzna,2022-06-04_08h12.41.384,task,2021.1.4,Win32,60.0276127,628b806c463b948bc644b84f,629af6ed472dc15ea9e23c7d,,,,,,,,,,,,,,,,,,,,,,,,,,,,,,,,,,,,,,,,,,,,,,,,,,,,,,,,,,,,,,,,,,,,,,,,,,,,,,,,,,,,,,,,,,,,,,,,,,,,,,,
,,"[""comma""]",0,[0.4243000000715256],113,0,113,0,1,61234be436e5986448f79170,25,Mężczyzna,2022-06-04_08h12.41.384,task,2021.1.4,Win32,60.0276127,628b806c463b948bc644b84f,629af6ed472dc15ea9e23c7d,,,,,,,,,,,,,,,,,,,,,,,,,,,,,,,,,,,,,,,,,,,,,,,,,,,,,,,,,,,,,,,,,,,,,,,,,,,,,,,,,,,,,,,,,,,,,,,,,,,,,,,
,,"[""period""]",0,[0.31079999995228036],114,0,114,0,1,61234be436e5986448f79170,25,Mężczyzna,2022-06-04_08h12.41.384,task,2021.1.4,Win32,60.0276127,628b806c463b948bc644b84f,629af6ed472dc15ea9e23c7d,,,,,,,,,,,,,,,,,,,,,,,,,,,,,,,,,,,,,,,,,,,,,,,,,,,,,,,,,,,,,,,,,,,,,,,,,,,,,,,,,,,,,,,,,,,,,,,,,,,,,,,
,,"[""period""]",0,[0.2566999999284576],115,0,115,0,1,61234be436e5986448f79170,25,Mężczyzna,2022-06-04_08h12.41.384,task,2021.1.4,Win32,60.0276127,628b806c463b948bc644b84f,629af6ed472dc15ea9e23c7d,,,,,,,,,,,,,,,,,,,,,,,,,,,,,,,,,,,,,,,,,,,,,,,,,,,,,,,,,,,,,,,,,,,,,,,,,,,,,,,,,,,,,,,,,,,,,,,,,,,,,,,
,,"[""period""]",0,[0.3152999999523445],116,0,116,0,1,61234be436e5986448f79170,25,Mężczyzna,2022-06-04_08h12.41.384,task,2021.1.4,Win32,60.0276127,628b806c463b948bc644b84f,629af6ed472dc15ea9e23c7d,,,,,,,,,,,,,,,,,,,,,,,,,,,,,,,,,,,,,,,,,,,,,,,,,,,,,,,,,,,,,,,,,,,,,,,,,,,,,,,,,,,,,,,,,,,,,,,,,,,,,,,
,,"[""comma""]",0,[0.4671000000238337],117,0,117,0,1,61234be436e5986448f79170,25,Mężczyzna,2022-06-04_08h12.41.384,task,2021.1.4,Win32,60.0276127,628b806c463b948bc644b84f,629af6ed472dc15ea9e23c7d,,,,,,,,,,,,,,,,,,,,,,,,,,,,,,,,,,,,,,,,,,,,,,,,,,,,,,,,,,,,,,,,,,,,,,,,,,,,,,,,,,,,,,,,,,,,,,,,,,,,,,,
,,"[""comma""]",0,[0.34850000000000136],118,0,118,0,1,61234be436e5986448f79170,25,Mężczyzna,2022-06-04_08h12.41.384,task,2021.1.4,Win32,60.0276127,628b806c463b948bc644b84f,629af6ed472dc15ea9e23c7d,,,,,,,,,,,,,,,,,,,,,,,,,,,,,,,,,,,,,,,,,,,,,,,,,,,,,,,,,,,,,,,,,,,,,,,,,,,,,,,,,,,,,,,,,,,,,,,,,,,,,,,
,,"[""period""]",0,[0.3996000000238382],119,0,119,0,1,61234be436e5986448f79170,25,Mężczyzna,2022-06-04_08h12.41.384,task,2021.1.4,Win32,60.0276127,628b806c463b948bc644b84f,629af6ed472dc15ea9e23c7d,,,,,,,,,,,,,,,,,,,,,,,,,,,,,,,,,,,,,,,,,,,,,,,,,,,,,,,,,,,,,,,,,,,,,,,,,,,,,,,,,,,,,,,,,,,,,,,,,,,,,,,
,,,,,,,,,,61234be436e5986448f79170,25,Mężczyzna,2022-06-04_08h12.41.384,task,2021.1.4,Win32,60.0276127,628b806c463b948bc644b84f,629af6ed472dc15ea9e23c7d,space,21.0175,space,10.6721,0,0,0,0,1,X V Q F H G B L J M P D K C T S W R N Z,,,,,,,,,,,,,,,,,,,,,,,,,,,,,,,,,,,,,,,,,,,,,,,,,,,,,,,,,,,,,,,,,,,,,,,,,,,,,,,,,,,,,,,,,,,,,
,,,,,,,,,,61234be436e5986448f79170,25,Mężczyzna,2022-06-04_08h12.41.384,task,2021.1.4,Win32,60.0276127,628b806c463b948bc644b84f,629af6ed472dc15ea9e23c7d,,,,,1,0,1,0,1,X V Q F H G B L J M P D K C T S W R N Z,,,,,,,,,,,,,,,,,,,,,,,,,,,,,,,,,,,,,,,,,,,,,,,,,,,,,,,,,,,,,,,,,,,,,,,,,,,,,,,,,,,,,,,,,,,,,
,,,,,,,,,,61234be436e5986448f79170,25,Mężczyzna,2022-06-04_08h12.41.384,task,2021.1.4,Win32,60.0276127,628b806c463b948bc644b84f,629af6ed472dc15ea9e23c7d,,,,,,,,,,,zd,"[""z"",""d""]","[3.3082999999523395,3.61909999990462,4.534399999976188]",1,ZD,0,0,0,0,1,,,,,,,,,,,,,,,,,,,,,,,,,,,,,,,,,,,,,,,,,,,,,,,,,,,,,,,,,,,,,,,,,,,,,,,,,,,,,,,,,,,
,,,,,,,,,,61234be436e5986448f79170,25,Mężczyzna,2022-06-04_08h12.41.384,task,2021.1.4,Win32,60.0276127,628b806c463b948bc644b84f,629af6ed472dc15ea9e23c7d,,,,,0,0,0,0,1,X V Q F H G B L J M P D K C T S W R N Z,,,,,,,,,,,,,,,,,,,,,,,,,,,,,,,,,,,,,,,,,,,,,,,,,,,,,,,,,,,,,,,,,,,,,,,,,,,,,,,,,,,,,,,,,,,,,
,,,,,,,,,,61234be436e5986448f79170,25,Mężczyzna,2022-06-04_08h12.41.384,task,2021.1.4,Win32,60.0276127,628b806c463b948bc644b84f,629af6ed472dc15ea9e23c7d,,,,,1,0,1,0,1,X V Q F H G B L J M P D K C T S W R N Z,,,,,,,,,,,,,,,,,,,,,,,,,,,,,,,,,,,,,,,,,,,,,,,,,,,,,,,,,,,,,,,,,,,,,,,,,,,,,,,,,,,,,,,,,,,,,
,,,,,,,,,,61234be436e5986448f79170,25,Mężczyzna,2022-06-04_08h12.41.384,task,2021.1.4,Win32,60.0276127,628b806c463b948bc644b84f,629af6ed472dc15ea9e23c7d,,,,,,,,,,,rb,"[""r"",""b""]","[2.5013000000715238,2.867500000000007,3.3659999999999854]",1,RB,1,0,1,0,1,,,,,,,,,,,,,,,,,,,,,,,,,,,,,,,,,,,,,,,,,,,,,,,,,,,,,,,,,,,,,,,,,,,,,,,,,,,,,,,,,,,
,,,,,,,,,,61234be436e5986448f79170,25,Mężczyzna,2022-06-04_08h12.41.384,task,2021.1.4,Win32,60.0276127,628b806c463b948bc644b84f,629af6ed472dc15ea9e23c7d,,,,,0,0,0,0,1,X V Q F H G B L J M P D K C T S W R N Z,,,,,,,,,,,,,,,,,,,,,,,,,,,,,,,,,,,,,,,,,,,,,,,,,,,,,,,,,,,,,,,,,,,,,,,,,,,,,,,,,,,,,,,,,,,,,
,,,,,,,,,,61234be436e5986448f79170,25,Mężczyzna,2022-06-04_08h12.41.384,task,2021.1.4,Win32,60.0276127,628b806c463b948bc644b84f,629af6ed472dc15ea9e23c7d,,,,,1,0,1,0,1,X V Q F H G B L J M P D K C T S W R N Z,,,,,,,,,,,,,,,,,,,,,,,,,,,,,,,,,,,,,,,,,,,,,,,,,,,,,,,,,,,,,,,,,,,,,,,,,,,,,,,,,,,,,,,,,,,,,
,,,,,,,,,,61234be436e5986448f79170,25,Mężczyzna,2022-06-04_08h12.41.384,task,2021.1.4,Win32,60.0276127,628b806c463b948bc644b84f,629af6ed472dc15ea9e23c7d,,,,,2,0,2,0,1,X V Q F H G B L J M P D K C T S W R N Z,,,,,,,,,,,,,,,,,,,,,,,,,,,,,,,,,,,,,,,,,,,,,,,,,,,,,,,,,,,,,,,,,,,,,,,,,,,,,,,,,,,,,,,,,,,,,
,,,,,,,,,,61234be436e5986448f79170,25,Mężczyzna,2022-06-04_08h12.41.384,task,2021.1.4,Win32,60.0276127,628b806c463b948bc644b84f,629af6ed472dc15ea9e23c7d,,,,,,,,,,,tlf,"[""t"",""l"",""f""]","[1.3915999999045994,1.981999999999971,2.5162999999523095,3.026999999999987]",1,TLF,2,0,2,0,1,,,,,,,,,,,,,,,,,,,,,,,,,,,,,,,,,,,,,,,,,,,,,,,,,,,,,,,,,,,,,,,,,,,,,,,,,,,,,,,,,,,
,,,,,,,,,,61234be436e5986448f79170,25,Mężczyzna,2022-06-04_08h12.41.384,task,2021.1.4,Win32,60.0276127,628b806c463b948bc644b84f,629af6ed472dc15ea9e23c7d,,,,,0,0,0,0,1,X V Q F H G B L J M P D K C T S W R N Z,,,,,,,,,,,,,,,,,,,,,,,,,,,,,,,,,,,,,,,,,,,,,,,,,,,,,,,,,,,,,,,,,,,,,,,,,,,,,,,,,,,,,,,,,,,,,
,,,,,,,,,,61234be436e5986448f79170,25,Mężczyzna,2022-06-04_08h12.41.384,task,2021.1.4,Win32,60.0276127,628b806c463b948bc644b84f,629af6ed472dc15ea9e23c7d,,,,,1,0,1,0,1,X V Q F H G B L J M P D K C T S W R N Z,,,,,,,,,,,,,,,,,,,,,,,,,,,,,,,,,,,,,,,,,,,,,,,,,,,,,,,,,,,,,,,,,,,,,,,,,,,,,,,,,,,,,,,,,,,,,
,,,,,,,,,,61234be436e5986448f79170,25,Mężczyzna,2022-06-04_08h12.41.384,task,2021.1.4,Win32,60.0276127,628b806c463b948bc644b84f,629af6ed472dc15ea9e23c7d,,,,,2,0,2,0,1,X V Q F H G B L J M P D K C T S W R N Z,,,,,,,,,,,,,,,,,,,,,,,,,,,,,,,,,,,,,,,,,,,,,,,,,,,,,,,,,,,,,,,,,,,,,,,,,,,,,,,,,,,,,,,,,,,,,
,,,,,,,,,,61234be436e5986448f79170,25,Mężczyzna,2022-06-04_08h12.41.384,task,2021.1.4,Win32,60.0276127,628b806c463b948bc644b84f,629af6ed472dc15ea9e23c7d,,,,,,,,,,,bwd,"[""b"",""w"",""d""]","[1.5420999999046217,1.9650999999046235,2.184799999952304,2.8000000000000114]",1,BWD,3,0,3,0,1,,,,,,,,,,,,,,,,,,,,,,,,,,,,,,,,,,,,,,,,,,,,,,,,,,,,,,,,,,,,,,,,,,,,,,,,,,,,,,,,,,,
,,,,,,,,,,61234be436e5986448f79170,25,Mężczyzna,2022-06-04_08h12.41.384,task,2021.1.4,Win32,60.0276127,628b806c463b948bc644b84f,629af6ed472dc15ea9e23c7d,,,,,0,0,0,0,1,X V Q F H G B L J M P D K C T S W R N Z,,,,,,,,,,,,,,,,,,,,,,,,,,,,,,,,,,,,,,,,,,,,,,,,,,,,,,,,,,,,,,,,,,,,,,,,,,,,,,,,,,,,,,,,,,,,,
,,,,,,,,,,61234be436e5986448f79170,25,Mężczyzna,2022-06-04_08h12.41.384,task,2021.1.4,Win32,60.0276127,628b806c463b948bc644b84f,629af6ed472dc15ea9e23c7d,,,,,1,0,1,0,1,X V Q F H G B L J M P D K C T S W R N Z,,,,,,,,,,,,,,,,,,,,,,,,,,,,,,,,,,,,,,,,,,,,,,,,,,,,,,,,,,,,,,,,,,,,,,,,,,,,,,,,,,,,,,,,,,,,,
,,,,,,,,,,61234be436e5986448f79170,25,Mężczyzna,2022-06-04_08h12.41.384,task,2021.1.4,Win32,60.0276127,628b806c463b948bc644b84f,629af6ed472dc15ea9e23c7d,,,,,2,0,2,0,1,X V Q F H G B L J M P D K C T S W R N Z,,,,,,,,,,,,,,,,,,,,,,,,,,,,,,,,,,,,,,,,,,,,,,,,,,,,,,,,,,,,,,,,,,,,,,,,,,,,,,,,,,,,,,,,,,,,,
,,,,,,,,,,61234be436e5986448f79170,25,Mężczyzna,2022-06-04_08h12.41.384,task,2021.1.4,Win32,60.0276127,628b806c463b948bc644b84f,629af6ed472dc15ea9e23c7d,,,,,3,0,3,0,1,X V Q F H G B L J M P D K C T S W R N Z,,,,,,,,,,,,,,,,,,,,,,,,,,,,,,,,,,,,,,,,,,,,,,,,,,,,,,,,,,,,,,,,,,,,,,,,,,,,,,,,,,,,,,,,,,,,,
,,,,,,,,,,61234be436e5986448f79170,25,Mężczyzna,2022-06-04_08h12.41.384,task,2021.1.4,Win32,60.0276127,628b806c463b948bc644b84f,629af6ed472dc15ea9e23c7d,,,,,,,,,,,tpkw,"[""t"",""p"",""k"",""w""]","[1.751800000071512,2.0366000000238387,2.25620000004767,2.5183000000715197,4.762999999999977]",1,TPKW,4,0,4,0,1,,,,,,,,,,,,,,,,,,,,,,,,,,,,,,,,,,,,,,,,,,,,,,,,,,,,,,,,,,,,,,,,,,,,,,,,,,,,,,,,,,,
,,,,,,,,,,61234be436e5986448f79170,25,Mężczyzna,2022-06-04_08h12.41.384,task,2021.1.4,Win32,60.0276127,628b806c463b948bc644b84f,629af6ed472dc15ea9e23c7d,,,,,0,0,0,0,1,X V Q F H G B L J M P D K C T S W R N Z,,,,,,,,,,,,,,,,,,,,,,,,,,,,,,,,,,,,,,,,,,,,,,,,,,,,,,,,,,,,,,,,,,,,,,,,,,,,,,,,,,,,,,,,,,,,,
,,,,,,,,,,61234be436e5986448f79170,25,Mężczyzna,2022-06-04_08h12.41.384,task,2021.1.4,Win32,60.0276127,628b806c463b948bc644b84f,629af6ed472dc15ea9e23c7d,,,,,1,0,1,0,1,X V Q F H G B L J M P D K C T S W R N Z,,,,,,,,,,,,,,,,,,,,,,,,,,,,,,,,,,,,,,,,,,,,,,,,,,,,,,,,,,,,,,,,,,,,,,,,,,,,,,,,,,,,,,,,,,,,,
,,,,,,,,,,61234be436e5986448f79170,25,Mężczyzna,2022-06-04_08h12.41.384,task,2021.1.4,Win32,60.0276127,628b806c463b948bc644b84f,629af6ed472dc15ea9e23c7d,,,,,2,0,2,0,1,X V Q F H G B L J M P D K C T S W R N Z,,,,,,,,,,,,,,,,,,,,,,,,,,,,,,,,,,,,,,,,,,,,,,,,,,,,,,,,,,,,,,,,,,,,,,,,,,,,,,,,,,,,,,,,,,,,,
,,,,,,,,,,61234be436e5986448f79170,25,Mężczyzna,2022-06-04_08h12.41.384,task,2021.1.4,Win32,60.0276127,628b806c463b948bc644b84f,629af6ed472dc15ea9e23c7d,,,,,3,0,3,0,1,X V Q F H G B L J M P D K C T S W R N Z,,,,,,,,,,,,,,,,,,,,,,,,,,,,,,,,,,,,,,,,,,,,,,,,,,,,,,,,,,,,,,,,,,,,,,,,,,,,,,,,,,,,,,,,,,,,,
,,,,,,,,,,61234be436e5986448f79170,25,Mężczyzna,2022-06-04_08h12.41.384,task,2021.1.4,Win32,60.0276127,628b806c463b948bc644b84f,629af6ed472dc15ea9e23c7d,,,,,,,,,,,rqhv,"[""r"",""q"",""h"",""v""]","[1.6616999999284872,2.004299999952309,2.3021999999284617,2.9861999999284876,3.734199999928478]",1,RQHV,5,0,5,0,1,,,,,,,,,,,,,,,,,,,,,,,,,,,,,,,,,,,,,,,,,,,,,,,,,,,,,,,,,,,,,,,,,,,,,,,,,,,,,,,,,,,
,,,,,,,,,,61234be436e5986448f79170,25,Mężczyzna,2022-06-04_08h12.41.384,task,2021.1.4,Win32,60.0276127,628b806c463b948bc644b84f,629af6ed472dc15ea9e23c7d,,,,,0,0,0,0,1,X V Q F H G B L J M P D K C T S W R N Z,,,,,,,,,,,,,,,,,,,,,,,,,,,,,,,,,,,,,,,,,,,,,,,,,,,,,,,,,,,,,,,,,,,,,,,,,,,,,,,,,,,,,,,,,,,,,
,,,,,,,,,,61234be436e5986448f79170,25,Mężczyzna,2022-06-04_08h12.41.384,task,2021.1.4,Win32,60.0276127,628b806c463b948bc644b84f,629af6ed472dc15ea9e23c7d,,,,,1,0,1,0,1,X V Q F H G B L J M P D K C T S W R N Z,,,,,,,,,,,,,,,,,,,,,,,,,,,,,,,,,,,,,,,,,,,,,,,,,,,,,,,,,,,,,,,,,,,,,,,,,,,,,,,,,,,,,,,,,,,,,
,,,,,,,,,,61234be436e5986448f79170,25,Mężczyzna,2022-06-04_08h12.41.384,task,2021.1.4,Win32,60.0276127,628b806c463b948bc644b84f,629af6ed472dc15ea9e23c7d,,,,,2,0,2,0,1,X V Q F H G B L J M P D K C T S W R N Z,,,,,,,,,,,,,,,,,,,,,,,,,,,,,,,,,,,,,,,,,,,,,,,,,,,,,,,,,,,,,,,,,,,,,,,,,,,,,,,,,,,,,,,,,,,,,
,,,,,,,,,,61234be436e5986448f79170,25,Mężczyzna,2022-06-04_08h12.41.384,task,2021.1.4,Win32,60.0276127,628b806c463b948bc644b84f,629af6ed472dc15ea9e23c7d,,,,,3,0,3,0,1,X V Q F H G B L J M P D K C T S W R N Z,,,,,,,,,,,,,,,,,,,,,,,,,,,,,,,,,,,,,,,,,,,,,,,,,,,,,,,,,,,,,,,,,,,,,,,,,,,,,,,,,,,,,,,,,,,,,
,,,,,,,,,,61234be436e5986448f79170,25,Mężczyzna,2022-06-04_08h12.41.384,task,2021.1.4,Win32,60.0276127,628b806c463b948bc644b84f,629af6ed472dc15ea9e23c7d,,,,,4,0,4,0,1,X V Q F H G B L J M P D K C T S W R N Z,,,,,,,,,,,,,,,,,,,,,,,,,,,,,,,,,,,,,,,,,,,,,,,,,,,,,,,,,,,,,,,,,,,,,,,,,,,,,,,,,,,,,,,,,,,,,
,,,,,,,,,,61234be436e5986448f79170,25,Mężczyzna,2022-06-04_08h12.41.384,task,2021.1.4,Win32,60.0276127,628b806c463b948bc644b84f,629af6ed472dc15ea9e23c7d,,,,,,,,,,,benczg,"[""b"",""e"",""n"",""c"",""z"",""g""]","[1.7461000000238869,1.856300000071542,2.2118000000715483,2.553399999976193,2.6166000000238796,3.073899999976163,3.474300000071537]",0,BNCZG,6,0,6,0,1,,,,,,,,,,,,,,,,,,,,,,,,,,,,,,,,,,,,,,,,,,,,,,,,,,,,,,,,,,,,,,,,,,,,,,,,,,,,,,,,,,,
,,,,,,,,,,61234be436e5986448f79170,25,Mężczyzna,2022-06-04_08h12.41.384,task,2021.1.4,Win32,60.0276127,628b806c463b948bc644b84f,629af6ed472dc15ea9e23c7d,,,,,0,0,0,0,1,X V Q F H G B L J M P D K C T S W R N Z,,,,,,,,,,,,,,,,,,,,,,,,,,,,,,,,,,,,,,,,,,,,,,,,,,,,,,,,,,,,,,,,,,,,,,,,,,,,,,,,,,,,,,,,,,,,,
,,,,,,,,,,61234be436e5986448f79170,25,Mężczyzna,2022-06-04_08h12.41.384,task,2021.1.4,Win32,60.0276127,628b806c463b948bc644b84f,629af6ed472dc15ea9e23c7d,,,,,1,0,1,0,1,X V Q F H G B L J M P D K C T S W R N Z,,,,,,,,,,,,,,,,,,,,,,,,,,,,,,,,,,,,,,,,,,,,,,,,,,,,,,,,,,,,,,,,,,,,,,,,,,,,,,,,,,,,,,,,,,,,,
,,,,,,,,,,61234be436e5986448f79170,25,Mężczyzna,2022-06-04_08h12.41.384,task,2021.1.4,Win32,60.0276127,628b806c463b948bc644b84f,629af6ed472dc15ea9e23c7d,,,,,2,0,2,0,1,X V Q F H G B L J M P D K C T S W R N Z,,,,,,,,,,,,,,,,,,,,,,,,,,,,,,,,,,,,,,,,,,,,,,,,,,,,,,,,,,,,,,,,,,,,,,,,,,,,,,,,,,,,,,,,,,,,,
,,,,,,,,,,61234be436e5986448f79170,25,Mężczyzna,2022-06-04_08h12.41.384,task,2021.1.4,Win32,60.0276127,628b806c463b948bc644b84f,629af6ed472dc15ea9e23c7d,,,,,3,0,3,0,1,X V Q F H G B L J M P D K C T S W R N Z,,,,,,,,,,,,,,,,,,,,,,,,,,,,,,,,,,,,,,,,,,,,,,,,,,,,,,,,,,,,,,,,,,,,,,,,,,,,,,,,,,,,,,,,,,,,,
,,,,,,,,,,61234be436e5986448f79170,25,Mężczyzna,2022-06-04_08h12.41.384,task,2021.1.4,Win32,60.0276127,628b806c463b948bc644b84f,629af6ed472dc15ea9e23c7d,,,,,4,0,4,0,1,X V Q F H G B L J M P D K C T S W R N Z,,,,,,,,,,,,,,,,,,,,,,,,,,,,,,,,,,,,,,,,,,,,,,,,,,,,,,,,,,,,,,,,,,,,,,,,,,,,,,,,,,,,,,,,,,,,,
,,,,,,,,,,61234be436e5986448f79170,25,Mężczyzna,2022-06-04_08h12.41.384,task,2021.1.4,Win32,60.0276127,628b806c463b948bc644b84f,629af6ed472dc15ea9e23c7d,,,,,,,,,,,elfxr,"[""e"",""l"",""f"",""x"",""r""]","[1.7360999999046385,1.9875999999046599,2.3523999999761713,3.044099999904631,3.2606999999284767,3.509999999999991]",0,LXFMR,7,0,7,0,1,,,,,,,,,,,,,,,,,,,,,,,,,,,,,,,,,,,,,,,,,,,,,,,,,,,,,,,,,,,,,,,,,,,,,,,,,,,,,,,,,,,
,,,,,,,,,,61234be436e5986448f79170,25,Mężczyzna,2022-06-04_08h12.41.384,task,2021.1.4,Win32,60.0276127,628b806c463b948bc644b84f,629af6ed472dc15ea9e23c7d,,,,,0,0,0,0,1,X V Q F H G B L J M P D K C T S W R N Z,,,,,,,,,,,,,,,,,,,,,,,,,,,,,,,,,,,,,,,,,,,,,,,,,,,,,,,,,,,,,,,,,,,,,,,,,,,,,,,,,,,,,,,,,,,,,
,,,,,,,,,,61234be436e5986448f79170,25,Mężczyzna,2022-06-04_08h12.41.384,task,2021.1.4,Win32,60.0276127,628b806c463b948bc644b84f,629af6ed472dc15ea9e23c7d,,,,,1,0,1,0,1,X V Q F H G B L J M P D K C T S W R N Z,,,,,,,,,,,,,,,,,,,,,,,,,,,,,,,,,,,,,,,,,,,,,,,,,,,,,,,,,,,,,,,,,,,,,,,,,,,,,,,,,,,,,,,,,,,,,
,,,,,,,,,,61234be436e5986448f79170,25,Mężczyzna,2022-06-04_08h12.41.384,task,2021.1.4,Win32,60.0276127,628b806c463b948bc644b84f,629af6ed472dc15ea9e23c7d,,,,,2,0,2,0,1,X V Q F H G B L J M P D K C T S W R N Z,,,,,,,,,,,,,,,,,,,,,,,,,,,,,,,,,,,,,,,,,,,,,,,,,,,,,,,,,,,,,,,,,,,,,,,,,,,,,,,,,,,,,,,,,,,,,
,,,,,,,,,,61234be436e5986448f79170,25,Mężczyzna,2022-06-04_08h12.41.384,task,2021.1.4,Win32,60.0276127,628b806c463b948bc644b84f,629af6ed472dc15ea9e23c7d,,,,,3,0,3,0,1,X V Q F H G B L J M P D K C T S W R N Z,,,,,,,,,,,,,,,,,,,,,,,,,,,,,,,,,,,,,,,,,,,,,,,,,,,,,,,,,,,,,,,,,,,,,,,,,,,,,,,,,,,,,,,,,,,,,
,,,,,,,,,,61234be436e5986448f79170,25,Mężczyzna,2022-06-04_08h12.41.384,task,2021.1.4,Win32,60.0276127,628b806c463b948bc644b84f,629af6ed472dc15ea9e23c7d,,,,,4,0,4,0,1,X V Q F H G B L J M P D K C T S W R N Z,,,,,,,,,,,,,,,,,,,,,,,,,,,,,,,,,,,,,,,,,,,,,,,,,,,,,,,,,,,,,,,,,,,,,,,,,,,,,,,,,,,,,,,,,,,,,
,,,,,,,,,,61234be436e5986448f79170,25,Mężczyzna,2022-06-04_08h12.41.384,task,2021.1.4,Win32,60.0276127,628b806c463b948bc644b84f,629af6ed472dc15ea9e23c7d,,,,,,,,,,,fhvmh,"[""f"",""h"",""v"",""m"",""h""]","[2.2906999999284494,2.768699999928458,3.181399999976122,3.7312999999522845,4.034899999976119,4.5613999999761745]",0,FHVMK,8,0,8,0,1,,,,,,,,,,,,,,,,,,,,,,,,,,,,,,,,,,,,,,,,,,,,,,,,,,,,,,,,,,,,,,,,,,,,,,,,,,,,,,,,,,,
,,,,,,,,,,61234be436e5986448f79170,25,Mężczyzna,2022-06-04_08h12.41.384,task,2021.1.4,Win32,60.0276127,628b806c463b948bc644b84f,629af6ed472dc15ea9e23c7d,,,,,,,,,,,,,,,,,,,,,space,72.5336,9,"[""9""]",1,[3.183499999999981],[3.183499999999981],0,0,0,9,1,Practice,10,(20/2) - 1,9,,,,,,,,,,,,,,,,,,,,,,,,,,,,,,,,,,,,,,,,,,,,,,,,,,,,,,,,,,,,,,,,,,,
,,,,,,,,,,61234be436e5986448f79170,25,Mężczyzna,2022-06-04_08h12.41.384,task,2021.1.4,Win32,60.0276127,628b806c463b948bc644b84f,629af6ed472dc15ea9e23c7d,,,,,,,,,,,,,,,,,,,,,,,5,"[""5""]",1,[2.7061000000238664],"[3.183499999999981,2.7061000000238664]",0,1,1,5,1,Practice,6,(4/2) + 3,5,,,,,,,,,,,,,,,,,,,,,,,,,,,,,,,,,,,,,,,,,,,,,,,,,,,,,,,,,,,,,,,,,,,
,,,,,,,,,,61234be436e5986448f79170,25,Mężczyzna,2022-06-04_08h12.41.384,task,2021.1.4,Win32,60.0276127,628b806c463b948bc644b84f,629af6ed472dc15ea9e23c7d,,,,,,,,,,,,,,,,,,,,,,,1,"[""1""]",1,[4.21810000002381],"[3.183499999999981,2.7061000000238664,4.21810000002381]",0,2,2,1,1,Practice,2,(4x4) - 15,1,,,,,,,,,,,,,,,,,,,,,,,,,,,,,,,,,,,,,,,,,,,,,,,,,,,,,,,,,,,,,,,,,,,
,,,,,,,,,,61234be436e5986448f79170,25,Mężczyzna,2022-06-04_08h12.41.384,task,2021.1.4,Win32,60.0276127,628b806c463b948bc644b84f,629af6ed472dc15ea9e23c7d,,,,,,,,,,,,,,,,,,,,,,,2,"[""2""]",1,[2.4722000000476783],"[3.183499999999981,2.7061000000238664,4.21810000002381,2.4722000000476783]",0,3,3,2,1,Practice,3,(4x4) - 14,2,,,,,,,,,,,,,,,,,,,,,,,,,,,,,,,,,,,,,,,,,,,,,,,,,,,,,,,,,,,,,,,,,,,
,,,,,,,,,,61234be436e5986448f79170,25,Mężczyzna,2022-06-04_08h12.41.384,task,2021.1.4,Win32,60.0276127,628b806c463b948bc644b84f,629af6ed472dc15ea9e23c7d,,,,,,,,,,,,,,,,,,,,,,,4,"[""4""]",1,[4.065199999928495],"[3.183499999999981,2.7061000000238664,4.21810000002381,2.4722000000476783,4.065199999928495]",0,4,4,4,1,Practice,5,(2x6) - 8,4,,,,,,,,,,,,,,,,,,,,,,,,,,,,,,,,,,,,,,,,,,,,,,,,,,,,,,,,,,,,,,,,,,,
,,,,,,,,,,61234be436e5986448f79170,25,Mężczyzna,2022-06-04_08h12.41.384,task,2021.1.4,Win32,60.0276127,628b806c463b948bc644b84f,629af6ed472dc15ea9e23c7d,,,,,,,,,,,,,,,,,,,,,,,0,"[""0""]",1,[5.383500000000026],"[3.183499999999981,2.7061000000238664,4.21810000002381,2.4722000000476783,4.065199999928495,5.383500000000026]",0,5,5,0,1,Practice,1,(3x3) -  9,0,,,,,,,,,,,,,,,,,,,,,,,,,,,,,,,,,,,,,,,,,,,,,,,,,,,,,,,,,,,,,,,,,,,
,,,,,,,,,,61234be436e5986448f79170,25,Mężczyzna,2022-06-04_08h12.41.384,task,2021.1.4,Win32,60.0276127,628b806c463b948bc644b84f,629af6ed472dc15ea9e23c7d,,,,,,,,,,,,,,,,,,,,,,,8,"[""8""]",1,[2.067800000071429],"[3.183499999999981,2.7061000000238664,4.21810000002381,2.4722000000476783,4.065199999928495,5.383500000000026,2.067800000071429]",0,6,6,8,1,Practice,9,(3x3) - 1,8,,,,,,,,,,,,,,,,,,,,,,,,,,,,,,,,,,,,,,,,,,,,,,,,,,,,,,,,,,,,,,,,,,,
,,,,,,,,,,61234be436e5986448f79170,25,Mężczyzna,2022-06-04_08h12.41.384,task,2021.1.4,Win32,60.0276127,628b806c463b948bc644b84f,629af6ed472dc15ea9e23c7d,,,,,,,,,,,,,,,,,,,,,,,7,"[""7""]",1,[3.8204999999999245],"[3.183499999999981,2.7061000000238664,4.21810000002381,2.4722000000476783,4.065199999928495,5.383500000000026,2.067800000071429,3.8204999999999245]",0,7,7,7,1,Practice,8,(5x5) - 18,7,,,,,,,,,,,,,,,,,,,,,,,,,,,,,,,,,,,,,,,,,,,,,,,,,,,,,,,,,,,,,,,,,,,
,,,,,,,,,,61234be436e5986448f79170,25,Mężczyzna,2022-06-04_08h12.41.384,task,2021.1.4,Win32,60.0276127,628b806c463b948bc644b84f,629af6ed472dc15ea9e23c7d,,,,,,,,,,,,,,,,,,,,,,,3,"[""3""]",1,[2.5028000000714883],"[3.183499999999981,2.7061000000238664,4.21810000002381,2.4722000000476783,4.065199999928495,5.383500000000026,2.067800000071429,3.8204999999999245,2.5028000000714883]",0,8,8,3,1,Practice,4,(8/4) + 1,3,,,,,,,,,,,,,,,,,,,,,,,,,,,,,,,,,,,,,,,,,,,,,,,,,,,,,,,,,,,,,,,,,,,
,,,,,,,,,,61234be436e5986448f79170,25,Mężczyzna,2022-06-04_08h12.41.384,task,2021.1.4,Win32,60.0276127,628b806c463b948bc644b84f,629af6ed472dc15ea9e23c7d,,,,,,,,,,,,,,,,,,,,,,,6,"[""6""]",1,[2.8028000000715565],"[3.183499999999981,2.7061000000238664,4.21810000002381,2.4722000000476783,4.065199999928495,5.383500000000026,2.067800000071429,3.8204999999999245,2.5028000000714883,2.8028000000715565]",0,9,9,6,1,Practice,7,(25/5) + 1,6,,,,,,,,,,,,,,,,,,,,,,,,,,,,,,,,,,,,,,,,,,,,,,,,,,,,,,,,,,,,,,,,,,,
,,,,,,,,,,61234be436e5986448f79170,25,Mężczyzna,2022-06-04_08h12.41.384,task,2021.1.4,Win32,60.0276127,628b806c463b948bc644b84f,629af6ed472dc15ea9e23c7d,,,,,,,,,,,,,,,,,,,,,,,,,,,,,,,,,,,,,1,33.2225,2.214833333,21.75169208,1.204206297,5.321685579,space,4.8131,0,0,0,0,1,,,,,,,,,,,,,,,,,,,,,,,,,,,,,,,,,,,,,,,,,,,,,,,,,,,,,,
,,,,,,,,,,61234be436e5986448f79170,25,Mężczyzna,2022-06-04_08h12.41.384,task,2021.1.4,Win32,60.0276127,628b806c463b948bc644b84f,629af6ed472dc15ea9e23c7d,,,,,,,,,,,,,,,,,,,,,,,8,,,,,,,,,,Practice,9,(3x3) - 1,8,,,,,,,,,,,,,,space,15.3612,"[""8""]",1,[2.9144999999999754],1,0,0,0,8,1,,,,,,,,,,,,,,,,,,,,,,,,,,,,,,,,,,,,,,,,,,,
,,,,,,,,,,61234be436e5986448f79170,25,Mężczyzna,2022-06-04_08h12.41.384,task,2021.1.4,Win32,60.0276127,628b806c463b948bc644b84f,629af6ed472dc15ea9e23c7d,,,,,,,,,,X V Q F H G B L J M P D K C T S W R N Z,,,,,,,,,,,,,,,,,,,,,,,,,,,,,,,,,,,,,,,,,,,,,,,,,,,0,0,0,0,1,,,,,,,,,,,,,,,,,,,,,,,,,,,,,,,,,,,,,,
,,,,,,,,,,61234be436e5986448f79170,25,Mężczyzna,2022-06-04_08h12.41.384,task,2021.1.4,Win32,60.0276127,628b806c463b948bc644b84f,629af6ed472dc15ea9e23c7d,,,,,,,,,,,,,,,,,,,,,,,8,,,,,,,,,,Practice,9,(3x3) - 1,8,,,,,,,,,,,,,,,,"[""8""]",1,[2.675000000000068],1,0,0,0,8,1,,,,,,,,,,,,,,,,,,,,,,,,,,,,,,,,,,,,,,,,,,,
,,,,,,,,,,61234be436e5986448f79170,25,Mężczyzna,2022-06-04_08h12.41.384,task,2021.1.4,Win32,60.0276127,628b806c463b948bc644b84f,629af6ed472dc15ea9e23c7d,,,,,,,,,,X V Q F H G B L J M P D K C T S W R N Z,,,,,,,,,,,,,,,,,,,,,,,,,,,,,,,,,,,,,,,,,,,,,,,,,,,1,0,1,0,1,,,,,,,,,,,,,,,,,,,,,,,,,,,,,,,,,,,,,,
,,,,,,,,,,61234be436e5986448f79170,25,Mężczyzna,2022-06-04_08h12.41.384,task,2021.1.4,Win32,60.0276127,628b806c463b948bc644b84f,629af6ed472dc15ea9e23c7d,,,,,,,,,,,,,,,,,,,,,,,,,,,,,,,,,,,,,,,,,,,,,,,,,,,,,,,,,,,,,,,,,,zq,"[""z"",""q""]",0,"[2.491000000000099,2.7587000000477246,3.6922000000477055]",1,0,0,0,0,1,,,,,,,,,,,,,,,,,,,,,,,,,,,,
,,,,,,,,,,61234be436e5986448f79170,25,Mężczyzna,2022-06-04_08h12.41.384,task,2021.1.4,Win32,60.0276127,628b806c463b948bc644b84f,629af6ed472dc15ea9e23c7d,,,,,,,,,,,,,,,,,,,,,,,9,,,,,,,,,,Practice,10,(20/2) - 1,9,,,,,,,,,,,,,,,,"[""9""]",1,[2.4489999999999554],1,0,0,0,9,1,,,,,,,,,,,,,,,,,,,,,,,,,,,,,,,,,,,,,,,,,,,
,,,,,,,,,,61234be436e5986448f79170,25,Mężczyzna,2022-06-04_08h12.41.384,task,2021.1.4,Win32,60.0276127,628b806c463b948bc644b84f,629af6ed472dc15ea9e23c7d,,,,,,,,,,X V Q F H G B L J M P D K C T S W R N Z,,,,,,,,,,,,,,,,,,,,,,,,,,,,,,,,,,,,,,,,,,,,,,,,,,,0,0,0,0,1,,,,,,,,,,,,,,,,,,,,,,,,,,,,,,,,,,,,,,
,,,,,,,,,,61234be436e5986448f79170,25,Mężczyzna,2022-06-04_08h12.41.384,task,2021.1.4,Win32,60.0276127,628b806c463b948bc644b84f,629af6ed472dc15ea9e23c7d,,,,,,,,,,,,,,,,,,,,,,,6,,,,,,,,,,Practice,7,(25/5) + 1,6,,,,,,,,,,,,,,,,"[""6""]",1,[2.156700000047749],1,0,0,0,6,1,,,,,,,,,,,,,,,,,,,,,,,,,,,,,,,,,,,,,,,,,,,
,,,,,,,,,,61234be436e5986448f79170,25,Mężczyzna,2022-06-04_08h12.41.384,task,2021.1.4,Win32,60.0276127,628b806c463b948bc644b84f,629af6ed472dc15ea9e23c7d,,,,,,,,,,X V Q F H G B L J M P D K C T S W R N Z,,,,,,,,,,,,,,,,,,,,,,,,,,,,,,,,,,,,,,,,,,,,,,,,,,,1,0,1,0,1,,,,,,,,,,,,,,,,,,,,,,,,,,,,,,,,,,,,,,
,,,,,,,,,,61234be436e5986448f79170,25,Mężczyzna,2022-06-04_08h12.41.384,task,2021.1.4,Win32,60.0276127,628b806c463b948bc644b84f,629af6ed472dc15ea9e23c7d,,,,,,,,,,,,,,,,,,,,,,,,,,,,,,,,,,,,,,,,,,,,,,,,,,,,,,,,,,,,,,,,,,kc,"[""k"",""c""]",0,"[2.2006999999284744,2.7625000000000455,4.073999999999955]",1,1,0,1,0,1,,,,,,,,,,,,,,,,,,,,,,,,,,,,
,,,,,,,,,,61234be436e5986448f79170,25,Mężczyzna,2022-06-04_08h12.41.384,task,2021.1.4,Win32,60.0276127,628b806c463b948bc644b84f,629af6ed472dc15ea9e23c7d,,,,,,,,,,,,,,,,,,,,,,,1,,,,,,,,,,Practice,2,(4x4) - 15,1,,,,,,,,,,,,,,,,"[""1""]",1,[4.309200000047667],1,0,0,0,1,1,,,,,,,,,,,,,,,,,,,,,,,,,,,,,,,,,,,,,,,,,,,
,,,,,,,,,,61234be436e5986448f79170,25,Mężczyzna,2022-06-04_08h12.41.384,task,2021.1.4,Win32,60.0276127,628b806c463b948bc644b84f,629af6ed472dc15ea9e23c7d,,,,,,,,,,X V Q F H G B L J M P D K C T S W R N Z,,,,,,,,,,,,,,,,,,,,,,,,,,,,,,,,,,,,,,,,,,,,,,,,,,,0,0,0,0,1,,,,,,,,,,,,,,,,,,,,,,,,,,,,,,,,,,,,,,
,,,,,,,,,,61234be436e5986448f79170,25,Mężczyzna,2022-06-04_08h12.41.384,task,2021.1.4,Win32,60.0276127,628b806c463b948bc644b84f,629af6ed472dc15ea9e23c7d,,,,,,,,,,,,,,,,,,,,,,,7,,,,,,,,,,Practice,8,(5x5) - 18,7,,,,,,,,,,,,,,,,"[""7""]",1,[2.6217999999523727],1,0,0,0,7,1,,,,,,,,,,,,,,,,,,,,,,,,,,,,,,,,,,,,,,,,,,,
,,,,,,,,,,61234be436e5986448f79170,25,Mężczyzna,2022-06-04_08h12.41.384,task,2021.1.4,Win32,60.0276127,628b806c463b948bc644b84f,629af6ed472dc15ea9e23c7d,,,,,,,,,,X V Q F H G B L J M P D K C T S W R N Z,,,,,,,,,,,,,,,,,,,,,,,,,,,,,,,,,,,,,,,,,,,,,,,,,,,1,0,1,0,1,,,,,,,,,,,,,,,,,,,,,,,,,,,,,,,,,,,,,,
,,,,,,,,,,61234be436e5986448f79170,25,Mężczyzna,2022-06-04_08h12.41.384,task,2021.1.4,Win32,60.0276127,628b806c463b948bc644b84f,629af6ed472dc15ea9e23c7d,,,,,,,,,,,,,,,,,,,,,,,,,,,,,,,,,,,,,,,,,,,,,,,,,,,,,,,,,,,,,,,,,,kx,"[""k"",""x""]",0,"[1.8146999999285072,2.3222999999522926,3.1766999999284735]",1,2,0,2,0,1,,,,,,,,,,,,,,,,,,,,,,,,,,,,
,,,,,,,,,,61234be436e5986448f79170,25,Mężczyzna,2022-06-04_08h12.41.384,task,2021.1.4,Win32,60.0276127,628b806c463b948bc644b84f,629af6ed472dc15ea9e23c7d,,,,,,,,,,,,,,,,,,,,,,,0,,,,,,,,,,Task,33,(1/1) - 1,0,,,,,,,,,,,,,,,,,,,1,,,,,,,,,,,,,,,,,,,,,space,143.6253,"[""0""]",1,[2.3227999999523945],0,0,0,32,1,,,,,,,,,,,,,,,,,,
,,,,,,,,,,61234be436e5986448f79170,25,Mężczyzna,2022-06-04_08h12.41.384,task,2021.1.4,Win32,60.0276127,628b806c463b948bc644b84f,629af6ed472dc15ea9e23c7d,,,,,,,,,,X V Q F H G B L J M P D K C T S W R N Z,,,,,,,,,,,,,,,,,,,,,,,,,,,,,,,,,,,,,,,,,,,,,,,,,,,,,,,,,,,,,,,,,,,,,,,,,,,,0,0,0,0,1,,,,,,,,,,,,,
,,,,,,,,,,61234be436e5986448f79170,25,Mężczyzna,2022-06-04_08h12.41.384,task,2021.1.4,Win32,60.0276127,628b806c463b948bc644b84f,629af6ed472dc15ea9e23c7d,,,,,,,,,,,,,,,,,,,,,,,4,,,,,,,,,,Task,28,(2x5) - 6,4,,,,,,,,,,,,,,,,,,,1,,,,,,,,,,,,,,,,,,,,,,,"[""4""]",1,[2.284600000023829],0,0,0,27,1,,,,,,,,,,,,,,,,,,
,,,,,,,,,,61234be436e5986448f79170,25,Mężczyzna,2022-06-04_08h12.41.384,task,2021.1.4,Win32,60.0276127,628b806c463b948bc644b84f,629af6ed472dc15ea9e23c7d,,,,,,,,,,X V Q F H G B L J M P D K C T S W R N Z,,,,,,,,,,,,,,,,,,,,,,,,,,,,,,,,,,,,,,,,,,,,,,,,,,,,,,,,,,,,,,,,,,,,,,,,,,,,1,0,1,0,1,,,,,,,,,,,,,
,,,,,,,,,,61234be436e5986448f79170,25,Mężczyzna,2022-06-04_08h12.41.384,task,2021.1.4,Win32,60.0276127,628b806c463b948bc644b84f,629af6ed472dc15ea9e23c7d,,,,,,,,,,,,,,,,,,,,,,,,,,,,,,,,,,,,,,,,,,,,,,,,,,,,,,,,,,,,,,,,,,,,,,,,,,,,,,,,,,,,,,,,,,,zx,"[""z"",""x""]",0,"[1.711099999904718,1.9253999999762073,2.6600999999046735]",1,ZX,0,0,0,0,1,,
,,,,,,,,,,61234be436e5986448f79170,25,Mężczyzna,2022-06-04_08h12.41.384,task,2021.1.4,Win32,60.0276127,628b806c463b948bc644b84f,629af6ed472dc15ea9e23c7d,,,,,,,,,,,,,,,,,,,,,,,2,,,,,,,,,,Task,10,(2x5) - 8,2,,,,,,,,,,,,,,,,,,,1,,,,,,,,,,,,,,,,,,,,,,,"[""2""]",1,[2.401800000071603],0,0,0,9,1,,,,,,,,,,,,,,,,,,
,,,,,,,,,,61234be436e5986448f79170,25,Mężczyzna,2022-06-04_08h12.41.384,task,2021.1.4,Win32,60.0276127,628b806c463b948bc644b84f,629af6ed472dc15ea9e23c7d,,,,,,,,,,X V Q F H G B L J M P D K C T S W R N Z,,,,,,,,,,,,,,,,,,,,,,,,,,,,,,,,,,,,,,,,,,,,,,,,,,,,,,,,,,,,,,,,,,,,,,,,,,,,0,0,0,0,1,,,,,,,,,,,,,
,,,,,,,,,,61234be436e5986448f79170,25,Mężczyzna,2022-06-04_08h12.41.384,task,2021.1.4,Win32,60.0276127,628b806c463b948bc644b84f,629af6ed472dc15ea9e23c7d,,,,,,,,,,,,,,,,,,,,,,,1,,,,,,,,,,Task,9,(3x7) - 20,1,,,,,,,,,,,,,,,,,,,1,,,,,,,,,,,,,,,,,,,,,,,"[""1""]",1,[3.117600000023913],0,0,0,8,1,,,,,,,,,,,,,,,,,,
,,,,,,,,,,61234be436e5986448f79170,25,Mężczyzna,2022-06-04_08h12.41.384,task,2021.1.4,Win32,60.0276127,628b806c463b948bc644b84f,629af6ed472dc15ea9e23c7d,,,,,,,,,,X V Q F H G B L J M P D K C T S W R N Z,,,,,,,,,,,,,,,,,,,,,,,,,,,,,,,,,,,,,,,,,,,,,,,,,,,,,,,,,,,,,,,,,,,,,,,,,,,,1,0,1,0,1,,,,,,,,,,,,,
,,,,,,,,,,61234be436e5986448f79170,25,Mężczyzna,2022-06-04_08h12.41.384,task,2021.1.4,Win32,60.0276127,628b806c463b948bc644b84f,629af6ed472dc15ea9e23c7d,,,,,,,,,,,,,,,,,,,,,,,0,,,,,,,,,,Task,8,(1x5) - 5,0,,,,,,,,,,,,,,,,,,,1,,,,,,,,,,,,,,,,,,,,,,,"[""0""]",1,[1.7725000000000364],0,0,0,7,1,,,,,,,,,,,,,,,,,,
,,,,,,,,,,61234be436e5986448f79170,25,Mężczyzna,2022-06-04_08h12.41.384,task,2021.1.4,Win32,60.0276127,628b806c463b948bc644b84f,629af6ed472dc15ea9e23c7d,,,,,,,,,,X V Q F H G B L J M P D K C T S W R N Z,,,,,,,,,,,,,,,,,,,,,,,,,,,,,,,,,,,,,,,,,,,,,,,,,,,,,,,,,,,,,,,,,,,,,,,,,,,,2,0,2,0,1,,,,,,,,,,,,,
,,,,,,,,,,61234be436e5986448f79170,25,Mężczyzna,2022-06-04_08h12.41.384,task,2021.1.4,Win32,60.0276127,628b806c463b948bc644b84f,629af6ed472dc15ea9e23c7d,,,,,,,,,,,,,,,,,,,,,,,,,,,,,,,,,,,,,,,,,,,,,,,,,,,,,,,,,,,,,,,,,,,,,,,,,,,,,,,,,,,,,,,,,,,cdx,"[""c"",""d"",""x""]",0,"[1.4677999999522626,1.6647000000476737,1.8973999999761872,2.3868999999760945]",1,CDX,1,0,1,0,1,,
,,,,,,,,,,61234be436e5986448f79170,25,Mężczyzna,2022-06-04_08h12.41.384,task,2021.1.4,Win32,60.0276127,628b806c463b948bc644b84f,629af6ed472dc15ea9e23c7d,,,,,,,,,,,,,,,,,,,,,,,4,,,,,,,,,,Task,21,(10/2) - 1,4,,,,,,,,,,,,,,,,,,,1,,,,,,,,,,,,,,,,,,,,,,,"[""4""]",1,[2.738300000071604],0,0,0,20,1,,,,,,,,,,,,,,,,,,
,,,,,,,,,,61234be436e5986448f79170,25,Mężczyzna,2022-06-04_08h12.41.384,task,2021.1.4,Win32,60.0276127,628b806c463b948bc644b84f,629af6ed472dc15ea9e23c7d,,,,,,,,,,X V Q F H G B L J M P D K C T S W R N Z,,,,,,,,,,,,,,,,,,,,,,,,,,,,,,,,,,,,,,,,,,,,,,,,,,,,,,,,,,,,,,,,,,,,,,,,,,,,0,0,0,0,1,,,,,,,,,,,,,
,,,,,,,,,,61234be436e5986448f79170,25,Mężczyzna,2022-06-04_08h12.41.384,task,2021.1.4,Win32,60.0276127,628b806c463b948bc644b84f,629af6ed472dc15ea9e23c7d,,,,,,,,,,,,,,,,,,,,,,,3,,,,,,,,,,Task,3,(2x3) - 3,3,,,,,,,,,,,,,,,,,,,1,,,,,,,,,,,,,,,,,,,,,,,"[""3""]",1,[2.0446999999285254],0,0,0,2,1,,,,,,,,,,,,,,,,,,
,,,,,,,,,,61234be436e5986448f79170,25,Mężczyzna,2022-06-04_08h12.41.384,task,2021.1.4,Win32,60.0276127,628b806c463b948bc644b84f,629af6ed472dc15ea9e23c7d,,,,,,,,,,X V Q F H G B L J M P D K C T S W R N Z,,,,,,,,,,,,,,,,,,,,,,,,,,,,,,,,,,,,,,,,,,,,,,,,,,,,,,,,,,,,,,,,,,,,,,,,,,,,1,0,1,0,1,,,,,,,,,,,,,
,,,,,,,,,,61234be436e5986448f79170,25,Mężczyzna,2022-06-04_08h12.41.384,task,2021.1.4,Win32,60.0276127,628b806c463b948bc644b84f,629af6ed472dc15ea9e23c7d,,,,,,,,,,,,,,,,,,,,,,,6,,,,,,,,,,Task,13,(3x4) - 6,6,,,,,,,,,,,,,,,,,,,1,,,,,,,,,,,,,,,,,,,,,,,"[""6""]",1,[4.100099999904614],0,0,0,12,1,,,,,,,,,,,,,,,,,,
,,,,,,,,,,61234be436e5986448f79170,25,Mężczyzna,2022-06-04_08h12.41.384,task,2021.1.4,Win32,60.0276127,628b806c463b948bc644b84f,629af6ed472dc15ea9e23c7d,,,,,,,,,,X V Q F H G B L J M P D K C T S W R N Z,,,,,,,,,,,,,,,,,,,,,,,,,,,,,,,,,,,,,,,,,,,,,,,,,,,,,,,,,,,,,,,,,,,,,,,,,,,,2,0,2,0,1,,,,,,,,,,,,,
,,,,,,,,,,61234be436e5986448f79170,25,Mężczyzna,2022-06-04_08h12.41.384,task,2021.1.4,Win32,60.0276127,628b806c463b948bc644b84f,629af6ed472dc15ea9e23c7d,,,,,,,,,,,,,,,,,,,,,,,8,,,,,,,,,,Task,32,(8/2) + 4,8,,,,,,,,,,,,,,,,,,,1,,,,,,,,,,,,,,,,,,,,,,,"[""8""]",1,[2.1594000000952747],0,0,0,31,1,,,,,,,,,,,,,,,,,,
,,,,,,,,,,61234be436e5986448f79170,25,Mężczyzna,2022-06-04_08h12.41.384,task,2021.1.4,Win32,60.0276127,628b806c463b948bc644b84f,629af6ed472dc15ea9e23c7d,,,,,,,,,,X V Q F H G B L J M P D K C T S W R N Z,,,,,,,,,,,,,,,,,,,,,,,,,,,,,,,,,,,,,,,,,,,,,,,,,,,,,,,,,,,,,,,,,,,,,,,,,,,,3,0,3,0,1,,,,,,,,,,,,,
,,,,,,,,,,61234be436e5986448f79170,25,Mężczyzna,2022-06-04_08h12.41.384,task,2021.1.4,Win32,60.0276127,628b806c463b948bc644b84f,629af6ed472dc15ea9e23c7d,,,,,,,,,,,,,,,,,,,,,,,,,,,,,,,,,,,,,,,,,,,,,,,,,,,,,,,,,,,,,,,,,,,,,,,,,,,,,,,,,,,,,,,,,,,cswq,"[""c"",""s"",""w"",""q""]",0,"[1.5463000000714828,1.9796000000238791,4.073900000095364,4.2927000000477165,6.566700000047717]",1,CSWQ,2,0,2,0,1,,
,,,,,,,,,,61234be436e5986448f79170,25,Mężczyzna,2022-06-04_08h12.41.384,task,2021.1.4,Win32,60.0276127,628b806c463b948bc644b84f,629af6ed472dc15ea9e23c7d,,,,,,,,,,,,,,,,,,,,,,,,,,,,,,,,,Task,12,(4x4) - 11,5,,,,,,,,,,,,,,,,,,,0,,,,,,,,,,,,,,,,,,,,,,,,0,,0,0,0,11,1,,,,,,,,,,,,,,,,,,
,,,,,,,,,,61234be436e5986448f79170,25,Mężczyzna,2022-06-04_08h12.41.384,task,2021.1.4,Win32,60.0276127,628b806c463b948bc644b84f,629af6ed472dc15ea9e23c7d,,,,,,,,,,,,,,,,,,,,,,,2,,,,,,,,,,Task,2,(2x2) - 2,2,,,,,,,,,,,,,,,,,,,1,,,,,,,,,,,,,,,,,,,,,,,"[""2""]",1,[3.268399999976168],0,1,1,1,1,,,,,,,,,,,,,,,,,,
,,,,,,,,,,61234be436e5986448f79170,25,Mężczyzna,2022-06-04_08h12.41.384,task,2021.1.4,Win32,60.0276127,628b806c463b948bc644b84f,629af6ed472dc15ea9e23c7d,,,,,,,,,,X V Q F H G B L J M P D K C T S W R N Z,,,,,,,,,,,,,,,,,,,,,,,,,,,,,,,,,,,,,,,,,,,,,,,,,,,,,,,,,,,,,,,,,,,,,,,,,,,,0,0,0,0,1,,,,,,,,,,,,,
,,,,,,,,,,61234be436e5986448f79170,25,Mężczyzna,2022-06-04_08h12.41.384,task,2021.1.4,Win32,60.0276127,628b806c463b948bc644b84f,629af6ed472dc15ea9e23c7d,,,,,,,,,,,,,,,,,,,,,,,8,,,,,,,,,,Task,30,(6/3) + 4 ,6,,,,,,,,,,,,,,,,,,,0,,,,,,,,,,,,,,,,,,,,,,,"[""8""]",0,[2.823699999928408],0,0,0,29,1,,,,,,,,,,,,,,,,,,
,,,,,,,,,,61234be436e5986448f79170,25,Mężczyzna,2022-06-04_08h12.41.384,task,2021.1.4,Win32,60.0276127,628b806c463b948bc644b84f,629af6ed472dc15ea9e23c7d,,,,,,,,,,,,,,,,,,,,,,,,,,,,,,,,,Task,14,(2x2) + 3,7,,,,,,,,,,,,,,,,,,,0,,,,,,,,,,,,,,,,,,,,,,,,0,,0,1,1,13,1,,,,,,,,,,,,,,,,,,
,,,,,,,,,,61234be436e5986448f79170,25,Mężczyzna,2022-06-04_08h12.41.384,task,2021.1.4,Win32,60.0276127,628b806c463b948bc644b84f,629af6ed472dc15ea9e23c7d,,,,,,,,,,,,,,,,,,,,,,,3,,,,,,,,,,Task,29,(3x8) - 19 ,5,,,,,,,,,,,,,,,,,,,0,,,,,,,,,,,,,,,,,,,,,,,"[""3""]",0,[3.0692000000476582],0,2,2,28,1,,,,,,,,,,,,,,,,,,
,,,,,,,,,,61234be436e5986448f79170,25,Mężczyzna,2022-06-04_08h12.41.384,task,2021.1.4,Win32,60.0276127,628b806c463b948bc644b84f,629af6ed472dc15ea9e23c7d,,,,,,,,,,,,,,,,,,,,,,,,,,,,,,,,,Task,38,(4x6) - 17,7,,,,,,,,,,,,,,,,,,,0,,,,,,,,,,,,,,,,,,,,,,,,0,,0,3,3,37,1,,,,,,,,,,,,,,,,,,
,,,,,,,,,,61234be436e5986448f79170,25,Mężczyzna,2022-06-04_08h12.41.384,task,2021.1.4,Win32,60.0276127,628b806c463b948bc644b84f,629af6ed472dc15ea9e23c7d,,,,,,,,,,,,,,,,,,,,,,,6,,,,,,,,,,Task,37,(3/3) + 5,6,,,,,,,,,,,,,,,,,,,1,,,,,,,,,,,,,,,,,,,,,,,"[""6""]",1,[4.862500000000068],0,4,4,36,1,,,,,,,,,,,,,,,,,,
,,,,,,,,,,61234be436e5986448f79170,25,Mężczyzna,2022-06-04_08h12.41.384,task,2021.1.4,Win32,60.0276127,628b806c463b948bc644b84f,629af6ed472dc15ea9e23c7d,,,,,,,,,,X V Q F H G B L J M P D K C T S W R N Z,,,,,,,,,,,,,,,,,,,,,,,,,,,,,,,,,,,,,,,,,,,,,,,,,,,,,,,,,,,,,,,,,,,,,,,,,,,,1,0,1,0,1,,,,,,,,,,,,,
,,,,,,,,,,61234be436e5986448f79170,25,Mężczyzna,2022-06-04_08h12.41.384,task,2021.1.4,Win32,60.0276127,628b806c463b948bc644b84f,629af6ed472dc15ea9e23c7d,,,,,,,,,,,,,,,,,,,,,,,1,,,,,,,,,,Task,1,(12/6) - 1,1,,,,,,,,,,,,,,,,,,,1,,,,,,,,,,,,,,,,,,,,,,,"[""1""]",1,[2.748899999976061],0,0,0,0,1,,,,,,,,,,,,,,,,,,
,,,,,,,,,,61234be436e5986448f79170,25,Mężczyzna,2022-06-04_08h12.41.384,task,2021.1.4,Win32,60.0276127,628b806c463b948bc644b84f,629af6ed472dc15ea9e23c7d,,,,,,,,,,X V Q F H G B L J M P D K C T S W R N Z,,,,,,,,,,,,,,,,,,,,,,,,,,,,,,,,,,,,,,,,,,,,,,,,,,,,,,,,,,,,,,,,,,,,,,,,,,,,2,0,2,0,1,,,,,,,,,,,,,
,,,,,,,,,,61234be436e5986448f79170,25,Mężczyzna,2022-06-04_08h12.41.384,task,2021.1.4,Win32,60.0276127,628b806c463b948bc644b84f,629af6ed472dc15ea9e23c7d,,,,,,,,,,,,,,,,,,,,,,,5,,,,,,,,,,Task,12,(4x4) - 11,5,,,,,,,,,,,,,,,,,,,1,,,,,,,,,,,,,,,,,,,,,,,"[""5""]",1,[3.3962999999523618],0,0,0,11,1,,,,,,,,,,,,,,,,,,
,,,,,,,,,,61234be436e5986448f79170,25,Mężczyzna,2022-06-04_08h12.41.384,task,2021.1.4,Win32,60.0276127,628b806c463b948bc644b84f,629af6ed472dc15ea9e23c7d,,,,,,,,,,X V Q F H G B L J M P D K C T S W R N Z,,,,,,,,,,,,,,,,,,,,,,,,,,,,,,,,,,,,,,,,,,,,,,,,,,,,,,,,,,,,,,,,,,,,,,,,,,,,3,0,3,0,1,,,,,,,,,,,,,
,,,,,,,,,,61234be436e5986448f79170,25,Mężczyzna,2022-06-04_08h12.41.384,task,2021.1.4,Win32,60.0276127,628b806c463b948bc644b84f,629af6ed472dc15ea9e23c7d,,,,,,,,,,,,,,,,,,,,,,,9,,,,,,,,,,Task,7,(3x7) - 12,9,,,,,,,,,,,,,,,,,,,1,,,,,,,,,,,,,,,,,,,,,,,"[""9""]",1,[3.7678000000715883],0,0,0,6,1,,,,,,,,,,,,,,,,,,
,,,,,,,,,,61234be436e5986448f79170,25,Mężczyzna,2022-06-04_08h12.41.384,task,2021.1.4,Win32,60.0276127,628b806c463b948bc644b84f,629af6ed472dc15ea9e23c7d,,,,,,,,,,X V Q F H G B L J M P D K C T S W R N Z,,,,,,,,,,,,,,,,,,,,,,,,,,,,,,,,,,,,,,,,,,,,,,,,,,,,,,,,,,,,,,,,,,,,,,,,,,,,4,0,4,0,1,,,,,,,,,,,,,
,,,,,,,,,,61234be436e5986448f79170,25,Mężczyzna,2022-06-04_08h12.41.384,task,2021.1.4,Win32,60.0276127,628b806c463b948bc644b84f,629af6ed472dc15ea9e23c7d,,,,,,,,,,,,,,,,,,,,,,,,,,,,,,,,,,,,,,,,,,,,,,,,,,,,,,,,,,,,,,,,,,,,,,,,,,,,,,,,,,,,,,,,,,,kwlt,"[""k"",""w"",""l"",""t""]",0,"[1.80889999997612,2.315899999976182,2.866799999952377,3.2548999999761463,4.1005999999046026]",0,PKWLT,3,0,3,0,1,,
,,,,,,,,,,61234be436e5986448f79170,25,Mężczyzna,2022-06-04_08h12.41.384,task,2021.1.4,Win32,60.0276127,628b806c463b948bc644b84f,629af6ed472dc15ea9e23c7d,,,,,,,,,,,,,,,,,,,,,,,1,,,,,,,,,,Task,1,(12/6) - 1,1,,,,,,,,,,,,,,,,,,,1,,,,,,,,,,,,,,,,,,,,,,,"[""1""]",1,[2.5294999999999845],0,0,0,0,1,,,,,,,,,,,,,,,,,,
,,,,,,,,,,61234be436e5986448f79170,25,Mężczyzna,2022-06-04_08h12.41.384,task,2021.1.4,Win32,60.0276127,628b806c463b948bc644b84f,629af6ed472dc15ea9e23c7d,,,,,,,,,,X V Q F H G B L J M P D K C T S W R N Z,,,,,,,,,,,,,,,,,,,,,,,,,,,,,,,,,,,,,,,,,,,,,,,,,,,,,,,,,,,,,,,,,,,,,,,,,,,,0,0,0,0,1,,,,,,,,,,,,,
,,,,,,,,,,61234be436e5986448f79170,25,Mężczyzna,2022-06-04_08h12.41.384,task,2021.1.4,Win32,60.0276127,628b806c463b948bc644b84f,629af6ed472dc15ea9e23c7d,,,,,,,,,,,,,,,,,,,,,,,6,,,,,,,,,,Task,37,(3/3) + 5,6,,,,,,,,,,,,,,,,,,,1,,,,,,,,,,,,,,,,,,,,,,,"[""6""]",1,[1.9492000000476537],0,0,0,36,1,,,,,,,,,,,,,,,,,,
,,,,,,,,,,61234be436e5986448f79170,25,Mężczyzna,2022-06-04_08h12.41.384,task,2021.1.4,Win32,60.0276127,628b806c463b948bc644b84f,629af6ed472dc15ea9e23c7d,,,,,,,,,,X V Q F H G B L J M P D K C T S W R N Z,,,,,,,,,,,,,,,,,,,,,,,,,,,,,,,,,,,,,,,,,,,,,,,,,,,,,,,,,,,,,,,,,,,,,,,,,,,,1,0,1,0,1,,,,,,,,,,,,,
,,,,,,,,,,61234be436e5986448f79170,25,Mężczyzna,2022-06-04_08h12.41.384,task,2021.1.4,Win32,60.0276127,628b806c463b948bc644b84f,629af6ed472dc15ea9e23c7d,,,,,,,,,,,,,,,,,,,,,,,1,,,,,,,,,,Task,18,(16/4) - 3,1,,,,,,,,,,,,,,,,,,,1,,,,,,,,,,,,,,,,,,,,,,,"[""1""]",1,[2.8676999999285044],0,0,0,17,1,,,,,,,,,,,,,,,,,,
,,,,,,,,,,61234be436e5986448f79170,25,Mężczyzna,2022-06-04_08h12.41.384,task,2021.1.4,Win32,60.0276127,628b806c463b948bc644b84f,629af6ed472dc15ea9e23c7d,,,,,,,,,,X V Q F H G B L J M P D K C T S W R N Z,,,,,,,,,,,,,,,,,,,,,,,,,,,,,,,,,,,,,,,,,,,,,,,,,,,,,,,,,,,,,,,,,,,,,,,,,,,,2,0,2,0,1,,,,,,,,,,,,,
,,,,,,,,,,61234be436e5986448f79170,25,Mężczyzna,2022-06-04_08h12.41.384,task,2021.1.4,Win32,60.0276127,628b806c463b948bc644b84f,629af6ed472dc15ea9e23c7d,,,,,,,,,,,,,,,,,,,,,,,4,,,,,,,,,,Task,28,(2x5) - 6,4,,,,,,,,,,,,,,,,,,,1,,,,,,,,,,,,,,,,,,,,,,,"[""4""]",1,[1.8067000000477265],0,0,0,27,1,,,,,,,,,,,,,,,,,,
,,,,,,,,,,61234be436e5986448f79170,25,Mężczyzna,2022-06-04_08h12.41.384,task,2021.1.4,Win32,60.0276127,628b806c463b948bc644b84f,629af6ed472dc15ea9e23c7d,,,,,,,,,,X V Q F H G B L J M P D K C T S W R N Z,,,,,,,,,,,,,,,,,,,,,,,,,,,,,,,,,,,,,,,,,,,,,,,,,,,,,,,,,,,,,,,,,,,,,,,,,,,,3,0,3,0,1,,,,,,,,,,,,,
,,,,,,,,,,61234be436e5986448f79170,25,Mężczyzna,2022-06-04_08h12.41.384,task,2021.1.4,Win32,60.0276127,628b806c463b948bc644b84f,629af6ed472dc15ea9e23c7d,,,,,,,,,,,,,,,,,,,,,,,1,,,,,,,,,,Task,1,(12/6) - 1,1,,,,,,,,,,,,,,,,,,,1,,,,,,,,,,,,,,,,,,,,,,,"[""1""]",1,[3.375100000023849],0,0,0,0,1,,,,,,,,,,,,,,,,,,
,,,,,,,,,,61234be436e5986448f79170,25,Mężczyzna,2022-06-04_08h12.41.384,task,2021.1.4,Win32,60.0276127,628b806c463b948bc644b84f,629af6ed472dc15ea9e23c7d,,,,,,,,,,X V Q F H G B L J M P D K C T S W R N Z,,,,,,,,,,,,,,,,,,,,,,,,,,,,,,,,,,,,,,,,,,,,,,,,,,,,,,,,,,,,,,,,,,,,,,,,,,,,4,0,4,0,1,,,,,,,,,,,,,
,,,,,,,,,,61234be436e5986448f79170,25,Mężczyzna,2022-06-04_08h12.41.384,task,2021.1.4,Win32,60.0276127,628b806c463b948bc644b84f,629af6ed472dc15ea9e23c7d,,,,,,,,,,,,,,,,,,,,,,,,,,,,,,,,,,,,,,,,,,,,,,,,,,,,,,,,,,,,,,,,,,,,,,,,,,,,,,,,,,,,,,,,,,,znjrk,"[""z"",""n"",""j"",""r"",""k""]",0,"[2.086200000047711,3.187100000023861,3.601799999952277,4.113299999952346,4.7212999999522935,5.450600000023883]",1,ZNJRK,4,0,4,0,1,,
,,,,,,,,,,61234be436e5986448f79170,25,Mężczyzna,2022-06-04_08h12.41.384,task,2021.1.4,Win32,60.0276127,628b806c463b948bc644b84f,629af6ed472dc15ea9e23c7d,,,,,,,,,,,,,,,,,,,,,,,0,,,,,,,,,,Task,8,(1x5) - 5,0,,,,,,,,,,,,,,,,,,,1,,,,,,,,,,,,,,,,,,,,,,,"[""0""]",1,[1.6625000000000227],0,0,0,7,1,,,,,,,,,,,,,,,,,,
,,,,,,,,,,61234be436e5986448f79170,25,Mężczyzna,2022-06-04_08h12.41.384,task,2021.1.4,Win32,60.0276127,628b806c463b948bc644b84f,629af6ed472dc15ea9e23c7d,,,,,,,,,,X V Q F H G B L J M P D K C T S W R N Z,,,,,,,,,,,,,,,,,,,,,,,,,,,,,,,,,,,,,,,,,,,,,,,,,,,,,,,,,,,,,,,,,,,,,,,,,,,,0,0,0,0,1,,,,,,,,,,,,,
,,,,,,,,,,61234be436e5986448f79170,25,Mężczyzna,2022-06-04_08h12.41.384,task,2021.1.4,Win32,60.0276127,628b806c463b948bc644b84f,629af6ed472dc15ea9e23c7d,,,,,,,,,,,,,,,,,,,,,,,3,,,,,,,,,,Task,20,(18/9) + 1,3,,,,,,,,,,,,,,,,,,,1,,,,,,,,,,,,,,,,,,,,,,,"[""3""]",1,[2.037499999999909],0,0,0,19,1,,,,,,,,,,,,,,,,,,
,,,,,,,,,,61234be436e5986448f79170,25,Mężczyzna,2022-06-04_08h12.41.384,task,2021.1.4,Win32,60.0276127,628b806c463b948bc644b84f,629af6ed472dc15ea9e23c7d,,,,,,,,,,X V Q F H G B L J M P D K C T S W R N Z,,,,,,,,,,,,,,,,,,,,,,,,,,,,,,,,,,,,,,,,,,,,,,,,,,,,,,,,,,,,,,,,,,,,,,,,,,,,1,0,1,0,1,,,,,,,,,,,,,
,,,,,,,,,,61234be436e5986448f79170,25,Mężczyzna,2022-06-04_08h12.41.384,task,2021.1.4,Win32,60.0276127,628b806c463b948bc644b84f,629af6ed472dc15ea9e23c7d,,,,,,,,,,,,,,,,,,,,,,,8,,,,,,,,,,Task,15,(3x7) - 13,8,,,,,,,,,,,,,,,,,,,1,,,,,,,,,,,,,,,,,,,,,,,"[""8""]",1,[3.2598000000714364],0,0,0,14,1,,,,,,,,,,,,,,,,,,
,,,,,,,,,,61234be436e5986448f79170,25,Mężczyzna,2022-06-04_08h12.41.384,task,2021.1.4,Win32,60.0276127,628b806c463b948bc644b84f,629af6ed472dc15ea9e23c7d,,,,,,,,,,X V Q F H G B L J M P D K C T S W R N Z,,,,,,,,,,,,,,,,,,,,,,,,,,,,,,,,,,,,,,,,,,,,,,,,,,,,,,,,,,,,,,,,,,,,,,,,,,,,2,0,2,0,1,,,,,,,,,,,,,
,,,,,,,,,,61234be436e5986448f79170,25,Mężczyzna,2022-06-04_08h12.41.384,task,2021.1.4,Win32,60.0276127,628b806c463b948bc644b84f,629af6ed472dc15ea9e23c7d,,,,,,,,,,,,,,,,,,,,,,,6,,,,,,,,,,Task,13,(3x4) - 6,6,,,,,,,,,,,,,,,,,,,1,,,,,,,,,,,,,,,,,,,,,,,"[""6""]",1,[2.867600000023913],0,0,0,12,1,,,,,,,,,,,,,,,,,,
,,,,,,,,,,61234be436e5986448f79170,25,Mężczyzna,2022-06-04_08h12.41.384,task,2021.1.4,Win32,60.0276127,628b806c463b948bc644b84f,629af6ed472dc15ea9e23c7d,,,,,,,,,,X V Q F H G B L J M P D K C T S W R N Z,,,,,,,,,,,,,,,,,,,,,,,,,,,,,,,,,,,,,,,,,,,,,,,,,,,,,,,,,,,,,,,,,,,,,,,,,,,,3,0,3,0,1,,,,,,,,,,,,,
,,,,,,,,,,61234be436e5986448f79170,25,Mężczyzna,2022-06-04_08h12.41.384,task,2021.1.4,Win32,60.0276127,628b806c463b948bc644b84f,629af6ed472dc15ea9e23c7d,,,,,,,,,,,,,,,,,,,,,,,1,,,,,,,,,,Task,1,(12/6) - 1,1,,,,,,,,,,,,,,,,,,,1,,,,,,,,,,,,,,,,,,,,,,,"[""1""]",1,[1.6847000000476555],0,0,0,0,1,,,,,,,,,,,,,,,,,,
,,,,,,,,,,61234be436e5986448f79170,25,Mężczyzna,2022-06-04_08h12.41.384,task,2021.1.4,Win32,60.0276127,628b806c463b948bc644b84f,629af6ed472dc15ea9e23c7d,,,,,,,,,,X V Q F H G B L J M P D K C T S W R N Z,,,,,,,,,,,,,,,,,,,,,,,,,,,,,,,,,,,,,,,,,,,,,,,,,,,,,,,,,,,,,,,,,,,,,,,,,,,,4,0,4,0,1,,,,,,,,,,,,,
,,,,,,,,,,61234be436e5986448f79170,25,Mężczyzna,2022-06-04_08h12.41.384,task,2021.1.4,Win32,60.0276127,628b806c463b948bc644b84f,629af6ed472dc15ea9e23c7d,,,,,,,,,,,,,,,,,,,,,,,1,,,,,,,,,,Task,34,(9/3) - 2,1,,,,,,,,,,,,,,,,,,,1,,,,,,,,,,,,,,,,,,,,,,,"[""1""]",1,[1.933999999999969],0,0,0,33,1,,,,,,,,,,,,,,,,,,
,,,,,,,,,,61234be436e5986448f79170,25,Mężczyzna,2022-06-04_08h12.41.384,task,2021.1.4,Win32,60.0276127,628b806c463b948bc644b84f,629af6ed472dc15ea9e23c7d,,,,,,,,,,X V Q F H G B L J M P D K C T S W R N Z,,,,,,,,,,,,,,,,,,,,,,,,,,,,,,,,,,,,,,,,,,,,,,,,,,,,,,,,,,,,,,,,,,,,,,,,,,,,5,0,5,0,1,,,,,,,,,,,,,
,,,,,,,,,,61234be436e5986448f79170,25,Mężczyzna,2022-06-04_08h12.41.384,task,2021.1.4,Win32,60.0276127,628b806c463b948bc644b84f,629af6ed472dc15ea9e23c7d,,,,,,,,,,,,,,,,,,,,,,,,,,,,,,,,,,,,,,,,,,,,,,,,,,,,,,,,,,,,,,,,,,,,,,,,,,,,,,,,,,,,,,,,,,,xvxvpl,"[""x"",""v"",""x"",""v"",""p"",""l""]",0,"[1.567300000071441,1.9843999999761763,2.37139999997612,2.737800000071502,3.274200000047699,3.5563000000714737,4.4389999999999645]",1,XVXVPL,5,0,5,0,1,,
,,,,,,,,,,61234be436e5986448f79170,25,Mężczyzna,2022-06-04_08h12.41.384,task,2021.1.4,Win32,60.0276127,628b806c463b948bc644b84f,629af6ed472dc15ea9e23c7d,,,,,,,,,,,,,,,,,,,,,,,8,,,,,,,,,,Task,23,(2x3) + 2,8,,,,,,,,,,,,,,,,,,,1,,,,,,,,,,,,,,,,,,,,,,,"[""8""]",1,[2.9281000000238464],0,0,0,22,1,,,,,,,,,,,,,,,,,,
,,,,,,,,,,61234be436e5986448f79170,25,Mężczyzna,2022-06-04_08h12.41.384,task,2021.1.4,Win32,60.0276127,628b806c463b948bc644b84f,629af6ed472dc15ea9e23c7d,,,,,,,,,,X V Q F H G B L J M P D K C T S W R N Z,,,,,,,,,,,,,,,,,,,,,,,,,,,,,,,,,,,,,,,,,,,,,,,,,,,,,,,,,,,,,,,,,,,,,,,,,,,,0,0,0,0,1,,,,,,,,,,,,,
,,,,,,,,,,61234be436e5986448f79170,25,Mężczyzna,2022-06-04_08h12.41.384,task,2021.1.4,Win32,60.0276127,628b806c463b948bc644b84f,629af6ed472dc15ea9e23c7d,,,,,,,,,,,,,,,,,,,,,,,7,,,,,,,,,,Task,31,(4/2) + 5,7,,,,,,,,,,,,,,,,,,,1,,,,,,,,,,,,,,,,,,,,,,,"[""7""]",1,[2.1251999999284408],0,0,0,30,1,,,,,,,,,,,,,,,,,,
,,,,,,,,,,61234be436e5986448f79170,25,Mężczyzna,2022-06-04_08h12.41.384,task,2021.1.4,Win32,60.0276127,628b806c463b948bc644b84f,629af6ed472dc15ea9e23c7d,,,,,,,,,,X V Q F H G B L J M P D K C T S W R N Z,,,,,,,,,,,,,,,,,,,,,,,,,,,,,,,,,,,,,,,,,,,,,,,,,,,,,,,,,,,,,,,,,,,,,,,,,,,,1,0,1,0,1,,,,,,,,,,,,,
,,,,,,,,,,61234be436e5986448f79170,25,Mężczyzna,2022-06-04_08h12.41.384,task,2021.1.4,Win32,60.0276127,628b806c463b948bc644b84f,629af6ed472dc15ea9e23c7d,,,,,,,,,,,,,,,,,,,,,,,8,,,,,,,,,,Task,32,(8/2) + 4,8,,,,,,,,,,,,,,,,,,,1,,,,,,,,,,,,,,,,,,,,,,,"[""8""]",1,[2.162200000047619],0,0,0,31,1,,,,,,,,,,,,,,,,,,
,,,,,,,,,,61234be436e5986448f79170,25,Mężczyzna,2022-06-04_08h12.41.384,task,2021.1.4,Win32,60.0276127,628b806c463b948bc644b84f,629af6ed472dc15ea9e23c7d,,,,,,,,,,X V Q F H G B L J M P D K C T S W R N Z,,,,,,,,,,,,,,,,,,,,,,,,,,,,,,,,,,,,,,,,,,,,,,,,,,,,,,,,,,,,,,,,,,,,,,,,,,,,2,0,2,0,1,,,,,,,,,,,,,
,,,,,,,,,,61234be436e5986448f79170,25,Mężczyzna,2022-06-04_08h12.41.384,task,2021.1.4,Win32,60.0276127,628b806c463b948bc644b84f,629af6ed472dc15ea9e23c7d,,,,,,,,,,,,,,,,,,,,,,,9,,,,,,,,,,Task,7,(3x7) - 12,9,,,,,,,,,,,,,,,,,,,1,,,,,,,,,,,,,,,,,,,,,,,"[""9""]",1,[4.520999999999958],0,0,0,6,1,,,,,,,,,,,,,,,,,,
,,,,,,,,,,61234be436e5986448f79170,25,Mężczyzna,2022-06-04_08h12.41.384,task,2021.1.4,Win32,60.0276127,628b806c463b948bc644b84f,629af6ed472dc15ea9e23c7d,,,,,,,,,,X V Q F H G B L J M P D K C T S W R N Z,,,,,,,,,,,,,,,,,,,,,,,,,,,,,,,,,,,,,,,,,,,,,,,,,,,,,,,,,,,,,,,,,,,,,,,,,,,,3,0,3,0,1,,,,,,,,,,,,,
,,,,,,,,,,61234be436e5986448f79170,25,Mężczyzna,2022-06-04_08h12.41.384,task,2021.1.4,Win32,60.0276127,628b806c463b948bc644b84f,629af6ed472dc15ea9e23c7d,,,,,,,,,,,,,,,,,,,,,,,9,,,,,,,,,,Task,24,(2x2) + 5,9,,,,,,,,,,,,,,,,,,,1,,,,,,,,,,,,,,,,,,,,,,,"[""9""]",1,[2.394500000000221],0,0,0,23,1,,,,,,,,,,,,,,,,,,
,,,,,,,,,,61234be436e5986448f79170,25,Mężczyzna,2022-06-04_08h12.41.384,task,2021.1.4,Win32,60.0276127,628b806c463b948bc644b84f,629af6ed472dc15ea9e23c7d,,,,,,,,,,X V Q F H G B L J M P D K C T S W R N Z,,,,,,,,,,,,,,,,,,,,,,,,,,,,,,,,,,,,,,,,,,,,,,,,,,,,,,,,,,,,,,,,,,,,,,,,,,,,4,0,4,0,1,,,,,,,,,,,,,
,,,,,,,,,,61234be436e5986448f79170,25,Mężczyzna,2022-06-04_08h12.41.384,task,2021.1.4,Win32,60.0276127,628b806c463b948bc644b84f,629af6ed472dc15ea9e23c7d,,,,,,,,,,,,,,,,,,,,,,,8,,,,,,,,,,Task,23,(2x3) + 2,8,,,,,,,,,,,,,,,,,,,1,,,,,,,,,,,,,,,,,,,,,,,"[""8""]",1,[2.5491999999285326],0,0,0,22,1,,,,,,,,,,,,,,,,,,
,,,,,,,,,,61234be436e5986448f79170,25,Mężczyzna,2022-06-04_08h12.41.384,task,2021.1.4,Win32,60.0276127,628b806c463b948bc644b84f,629af6ed472dc15ea9e23c7d,,,,,,,,,,X V Q F H G B L J M P D K C T S W R N Z,,,,,,,,,,,,,,,,,,,,,,,,,,,,,,,,,,,,,,,,,,,,,,,,,,,,,,,,,,,,,,,,,,,,,,,,,,,,5,0,5,0,1,,,,,,,,,,,,,
,,,,,,,,,,61234be436e5986448f79170,25,Mężczyzna,2022-06-04_08h12.41.384,task,2021.1.4,Win32,60.0276127,628b806c463b948bc644b84f,629af6ed472dc15ea9e23c7d,,,,,,,,,,,,,,,,,,,,,,,0,,,,,,,,,,Task,25,(10/5) - 2,0,,,,,,,,,,,,,,,,,,,1,,,,,,,,,,,,,,,,,,,,,,,"[""0""]",1,[4.28520000004778],0,0,0,24,1,,,,,,,,,,,,,,,,,,
,,,,,,,,,,61234be436e5986448f79170,25,Mężczyzna,2022-06-04_08h12.41.384,task,2021.1.4,Win32,60.0276127,628b806c463b948bc644b84f,629af6ed472dc15ea9e23c7d,,,,,,,,,,X V Q F H G B L J M P D K C T S W R N Z,,,,,,,,,,,,,,,,,,,,,,,,,,,,,,,,,,,,,,,,,,,,,,,,,,,,,,,,,,,,,,,,,,,,,,,,,,,,6,0,6,0,1,,,,,,,,,,,,,
,,,,,,,,,,61234be436e5986448f79170,25,Mężczyzna,2022-06-04_08h12.41.384,task,2021.1.4,Win32,60.0276127,628b806c463b948bc644b84f,629af6ed472dc15ea9e23c7d,,,,,,,,,,,,,,,,,,,,,,,,,,,,,,,,,,,,,,,,,,,,,,,,,,,,,,,,,,,,,,,,,,,,,,,,,,,,,,,,,,,,,,,,,,,jlrzdkn,"[""j"",""l"",""r"",""z"",""d"",""k"",""n""]",0,"[1.7718999999760854,2.2323999999759963,2.6647999999522654,3.6312999999522617,4.199099999904547,4.346199999928331,4.439299999952254,5.107499999999845]",1,JLRZDKN,6,0,6,0,1,,
,,,,,,,,,,61234be436e5986448f79170,25,Mężczyzna,2022-06-04_08h12.41.384,task,2021.1.4,Win32,60.0276127,628b806c463b948bc644b84f,629af6ed472dc15ea9e23c7d,,,,,,,,,,,,,,,,,,,,,,,6,,,,,,,,,,Task,16,(3x8) - 15,9,,,,,,,,,,,,,,,,,,,0,,,,,,,,,,,,,,,,,,,,,,,"[""6""]",0,[4.201299999952425],0,0,0,15,1,,,,,,,,,,,,,,,,,,
,,,,,,,,,,61234be436e5986448f79170,25,Mężczyzna,2022-06-04_08h12.41.384,task,2021.1.4,Win32,60.0276127,628b806c463b948bc644b84f,629af6ed472dc15ea9e23c7d,,,,,,,,,,,,,,,,,,,,,,,5,,,,,,,,,,Task,22,(3x1) + 2,5,,,,,,,,,,,,,,,,,,,1,,,,,,,,,,,,,,,,,,,,,,,"[""5""]",1,[1.88510000002384],0,1,1,21,1,,,,,,,,,,,,,,,,,,
,,,,,,,,,,61234be436e5986448f79170,25,Mężczyzna,2022-06-04_08h12.41.384,task,2021.1.4,Win32,60.0276127,628b806c463b948bc644b84f,629af6ed472dc15ea9e23c7d,,,,,,,,,,X V Q F H G B L J M P D K C T S W R N Z,,,,,,,,,,,,,,,,,,,,,,,,,,,,,,,,,,,,,,,,,,,,,,,,,,,,,,,,,,,,,,,,,,,,,,,,,,,,0,0,0,0,1,,,,,,,,,,,,,
,,,,,,,,,,61234be436e5986448f79170,25,Mężczyzna,2022-06-04_08h12.41.384,task,2021.1.4,Win32,60.0276127,628b806c463b948bc644b84f,629af6ed472dc15ea9e23c7d,,,,,,,,,,,,,,,,,,,,,,,6,,,,,,,,,,Task,30,(6/3) + 4 ,6,,,,,,,,,,,,,,,,,,,1,,,,,,,,,,,,,,,,,,,,,,,"[""6""]",1,[4.37789999997608],0,0,0,29,1,,,,,,,,,,,,,,,,,,
,,,,,,,,,,61234be436e5986448f79170,25,Mężczyzna,2022-06-04_08h12.41.384,task,2021.1.4,Win32,60.0276127,628b806c463b948bc644b84f,629af6ed472dc15ea9e23c7d,,,,,,,,,,X V Q F H G B L J M P D K C T S W R N Z,,,,,,,,,,,,,,,,,,,,,,,,,,,,,,,,,,,,,,,,,,,,,,,,,,,,,,,,,,,,,,,,,,,,,,,,,,,,1,0,1,0,1,,,,,,,,,,,,,
,,,,,,,,,,61234be436e5986448f79170,25,Mężczyzna,2022-06-04_08h12.41.384,task,2021.1.4,Win32,60.0276127,628b806c463b948bc644b84f,629af6ed472dc15ea9e23c7d,,,,,,,,,,,,,,,,,,,,,,,8,,,,,,,,,,Task,23,(2x3) + 2,8,,,,,,,,,,,,,,,,,,,1,,,,,,,,,,,,,,,,,,,,,,,"[""8""]",1,[3.41239999997606],0,0,0,22,1,,,,,,,,,,,,,,,,,,
,,,,,,,,,,61234be436e5986448f79170,25,Mężczyzna,2022-06-04_08h12.41.384,task,2021.1.4,Win32,60.0276127,628b806c463b948bc644b84f,629af6ed472dc15ea9e23c7d,,,,,,,,,,X V Q F H G B L J M P D K C T S W R N Z,,,,,,,,,,,,,,,,,,,,,,,,,,,,,,,,,,,,,,,,,,,,,,,,,,,,,,,,,,,,,,,,,,,,,,,,,,,,2,0,2,0,1,,,,,,,,,,,,,
,,,,,,,,,,61234be436e5986448f79170,25,Mężczyzna,2022-06-04_08h12.41.384,task,2021.1.4,Win32,60.0276127,628b806c463b948bc644b84f,629af6ed472dc15ea9e23c7d,,,,,,,,,,,,,,,,,,,,,,,1,,,,,,,,,,Task,16,(3x8) - 15,9,,,,,,,,,,,,,,,,,,,0,,,,,,,,,,,,,,,,,,,,,,,"[""1""]",0,[2.1380999999046253],0,0,0,15,1,,,,,,,,,,,,,,,,,,
,,,,,,,,,,61234be436e5986448f79170,25,Mężczyzna,2022-06-04_08h12.41.384,task,2021.1.4,Win32,60.0276127,628b806c463b948bc644b84f,629af6ed472dc15ea9e23c7d,,,,,,,,,,,,,,,,,,,,,,,2,,,,,,,,,,Task,2,(2x2) - 2,2,,,,,,,,,,,,,,,,,,,1,,,,,,,,,,,,,,,,,,,,,,,"[""2""]",1,[3.378100000023778],0,1,1,1,1,,,,,,,,,,,,,,,,,,
,,,,,,,,,,61234be436e5986448f79170,25,Mężczyzna,2022-06-04_08h12.41.384,task,2021.1.4,Win32,60.0276127,628b806c463b948bc644b84f,629af6ed472dc15ea9e23c7d,,,,,,,,,,X V Q F H G B L J M P D K C T S W R N Z,,,,,,,,,,,,,,,,,,,,,,,,,,,,,,,,,,,,,,,,,,,,,,,,,,,,,,,,,,,,,,,,,,,,,,,,,,,,3,0,3,0,1,,,,,,,,,,,,,
,,,,,,,,,,61234be436e5986448f79170,25,Mężczyzna,2022-06-04_08h12.41.384,task,2021.1.4,Win32,60.0276127,628b806c463b948bc644b84f,629af6ed472dc15ea9e23c7d,,,,,,,,,,,,,,,,,,,,,,,1,,,,,,,,,,Task,18,(16/4) - 3,1,,,,,,,,,,,,,,,,,,,1,,,,,,,,,,,,,,,,,,,,,,,"[""1""]",1,[2.5892999999523454],0,0,0,17,1,,,,,,,,,,,,,,,,,,
,,,,,,,,,,61234be436e5986448f79170,25,Mężczyzna,2022-06-04_08h12.41.384,task,2021.1.4,Win32,60.0276127,628b806c463b948bc644b84f,629af6ed472dc15ea9e23c7d,,,,,,,,,,X V Q F H G B L J M P D K C T S W R N Z,,,,,,,,,,,,,,,,,,,,,,,,,,,,,,,,,,,,,,,,,,,,,,,,,,,,,,,,,,,,,,,,,,,,,,,,,,,,4,0,4,0,1,,,,,,,,,,,,,
,,,,,,,,,,61234be436e5986448f79170,25,Mężczyzna,2022-06-04_08h12.41.384,task,2021.1.4,Win32,60.0276127,628b806c463b948bc644b84f,629af6ed472dc15ea9e23c7d,,,,,,,,,,,,,,,,,,,,,,,2,,,,,,,,,,Task,10,(2x5) - 8,2,,,,,,,,,,,,,,,,,,,1,,,,,,,,,,,,,,,,,,,,,,,"[""2""]",1,[1.7806000000236963],0,0,0,9,1,,,,,,,,,,,,,,,,,,
,,,,,,,,,,61234be436e5986448f79170,25,Mężczyzna,2022-06-04_08h12.41.384,task,2021.1.4,Win32,60.0276127,628b806c463b948bc644b84f,629af6ed472dc15ea9e23c7d,,,,,,,,,,X V Q F H G B L J M P D K C T S W R N Z,,,,,,,,,,,,,,,,,,,,,,,,,,,,,,,,,,,,,,,,,,,,,,,,,,,,,,,,,,,,,,,,,,,,,,,,,,,,5,0,5,0,1,,,,,,,,,,,,,
,,,,,,,,,,61234be436e5986448f79170,25,Mężczyzna,2022-06-04_08h12.41.384,task,2021.1.4,Win32,60.0276127,628b806c463b948bc644b84f,629af6ed472dc15ea9e23c7d,,,,,,,,,,,,,,,,,,,,,,,6,,,,,,,,,,Task,30,(6/3) + 4 ,6,,,,,,,,,,,,,,,,,,,1,,,,,,,,,,,,,,,,,,,,,,,"[""6""]",1,[4.666299999952344],0,0,0,29,1,,,,,,,,,,,,,,,,,,
,,,,,,,,,,61234be436e5986448f79170,25,Mężczyzna,2022-06-04_08h12.41.384,task,2021.1.4,Win32,60.0276127,628b806c463b948bc644b84f,629af6ed472dc15ea9e23c7d,,,,,,,,,,X V Q F H G B L J M P D K C T S W R N Z,,,,,,,,,,,,,,,,,,,,,,,,,,,,,,,,,,,,,,,,,,,,,,,,,,,,,,,,,,,,,,,,,,,,,,,,,,,,6,0,6,0,1,,,,,,,,,,,,,
,,,,,,,,,,61234be436e5986448f79170,25,Mężczyzna,2022-06-04_08h12.41.384,task,2021.1.4,Win32,60.0276127,628b806c463b948bc644b84f,629af6ed472dc15ea9e23c7d,,,,,,,,,,,,,,,,,,,,,,,5,,,,,,,,,,Task,12,(4x4) - 11,5,,,,,,,,,,,,,,,,,,,1,,,,,,,,,,,,,,,,,,,,,,,"[""5""]",1,[3.137300000071491],0,0,0,11,1,,,,,,,,,,,,,,,,,,
,,,,,,,,,,61234be436e5986448f79170,25,Mężczyzna,2022-06-04_08h12.41.384,task,2021.1.4,Win32,60.0276127,628b806c463b948bc644b84f,629af6ed472dc15ea9e23c7d,,,,,,,,,,X V Q F H G B L J M P D K C T S W R N Z,,,,,,,,,,,,,,,,,,,,,,,,,,,,,,,,,,,,,,,,,,,,,,,,,,,,,,,,,,,,,,,,,,,,,,,,,,,,7,0,7,0,1,,,,,,,,,,,,,
,,,,,,,,,,61234be436e5986448f79170,25,Mężczyzna,2022-06-04_08h12.41.384,task,2021.1.4,Win32,60.0276127,628b806c463b948bc644b84f,629af6ed472dc15ea9e23c7d,,,,,,,,,,,,,,,,,,,,,,,,,,,,,,,,,,,,,,,,,,,,,,,,,,,,,,,,,,,,,,,,,,,,,,,,,,,,,,,,,,,,,,,,,,,dzwbvx,"[""d"",""z"",""w"",""b"",""v"",""x""]",0,"[2.1791000000239364,2.5468999999761763,3.236100000023953,3.7367000000476764,4.154600000023947,8.585899999976164,13.293600000023844]",0,DZBCVXGD,7,0,7,0,1,,
,,,,,,,,,,61234be436e5986448f79170,25,Mężczyzna,2022-06-04_08h12.41.384,task,2021.1.4,Win32,60.0276127,628b806c463b948bc644b84f,629af6ed472dc15ea9e23c7d,,,,,,,,,,,,,,,,,,,,,,,3,,,,,,,,,,Task,35,(1x2) + 1,3,,,,,,,,,,,,,,,,,,,1,,,,,,,,,,,,,,,,,,,,,,,"[""3""]",1,[2.3456999999284562],0,0,0,34,1,,,,,,,,,,,,,,,,,,
,,,,,,,,,,61234be436e5986448f79170,25,Mężczyzna,2022-06-04_08h12.41.384,task,2021.1.4,Win32,60.0276127,628b806c463b948bc644b84f,629af6ed472dc15ea9e23c7d,,,,,,,,,,X V Q F H G B L J M P D K C T S W R N Z,,,,,,,,,,,,,,,,,,,,,,,,,,,,,,,,,,,,,,,,,,,,,,,,,,,,,,,,,,,,,,,,,,,,,,,,,,,,0,0,0,0,1,,,,,,,,,,,,,
,,,,,,,,,,61234be436e5986448f79170,25,Mężczyzna,2022-06-04_08h12.41.384,task,2021.1.4,Win32,60.0276127,628b806c463b948bc644b84f,629af6ed472dc15ea9e23c7d,,,,,,,,,,,,,,,,,,,,,,,1,,,,,,,,,,Task,16,(3x8) - 15,9,,,,,,,,,,,,,,,,,,,0,,,,,,,,,,,,,,,,,,,,,,,"[""1""]",0,[1.4371000000237473],0,0,0,15,1,,,,,,,,,,,,,,,,,,
,,,,,,,,,,61234be436e5986448f79170,25,Mężczyzna,2022-06-04_08h12.41.384,task,2021.1.4,Win32,60.0276127,628b806c463b948bc644b84f,629af6ed472dc15ea9e23c7d,,,,,,,,,,,,,,,,,,,,,,,3,,,,,,,,,,Task,26,(2x9) - 16,2,,,,,,,,,,,,,,,,,,,0,,,,,,,,,,,,,,,,,,,,,,,"[""3""]",0,[2.319899999976087],0,1,1,25,1,,,,,,,,,,,,,,,,,,
,,,,,,,,,,61234be436e5986448f79170,25,Mężczyzna,2022-06-04_08h12.41.384,task,2021.1.4,Win32,60.0276127,628b806c463b948bc644b84f,629af6ed472dc15ea9e23c7d,,,,,,,,,,,,,,,,,,,,,,,5,,,,,,,,,,Task,12,(4x4) - 11,5,,,,,,,,,,,,,,,,,,,1,,,,,,,,,,,,,,,,,,,,,,,"[""5""]",1,[3.3661000000238346],0,2,2,11,1,,,,,,,,,,,,,,,,,,
,,,,,,,,,,61234be436e5986448f79170,25,Mężczyzna,2022-06-04_08h12.41.384,task,2021.1.4,Win32,60.0276127,628b806c463b948bc644b84f,629af6ed472dc15ea9e23c7d,,,,,,,,,,X V Q F H G B L J M P D K C T S W R N Z,,,,,,,,,,,,,,,,,,,,,,,,,,,,,,,,,,,,,,,,,,,,,,,,,,,,,,,,,,,,,,,,,,,,,,,,,,,,1,0,1,0,1,,,,,,,,,,,,,
,,,,,,,,,,61234be436e5986448f79170,25,Mężczyzna,2022-06-04_08h12.41.384,task,2021.1.4,Win32,60.0276127,628b806c463b948bc644b84f,629af6ed472dc15ea9e23c7d,,,,,,,,,,,,,,,,,,,,,,,9,,,,,,,,,,Task,24,(2x2) + 5,9,,,,,,,,,,,,,,,,,,,1,,,,,,,,,,,,,,,,,,,,,,,"[""9""]",1,[1.7572000000475327],0,0,0,23,1,,,,,,,,,,,,,,,,,,
,,,,,,,,,,61234be436e5986448f79170,25,Mężczyzna,2022-06-04_08h12.41.384,task,2021.1.4,Win32,60.0276127,628b806c463b948bc644b84f,629af6ed472dc15ea9e23c7d,,,,,,,,,,X V Q F H G B L J M P D K C T S W R N Z,,,,,,,,,,,,,,,,,,,,,,,,,,,,,,,,,,,,,,,,,,,,,,,,,,,,,,,,,,,,,,,,,,,,,,,,,,,,2,0,2,0,1,,,,,,,,,,,,,
,,,,,,,,,,61234be436e5986448f79170,25,Mężczyzna,2022-06-04_08h12.41.384,task,2021.1.4,Win32,60.0276127,628b806c463b948bc644b84f,629af6ed472dc15ea9e23c7d,,,,,,,,,,,,,,,,,,,,,,,6,,,,,,,,,,Task,5,(2x3) + 0,6,,,,,,,,,,,,,,,,,,,1,,,,,,,,,,,,,,,,,,,,,,,"[""6""]",1,[2.362999999999829],0,0,0,4,1,,,,,,,,,,,,,,,,,,
,,,,,,,,,,61234be436e5986448f79170,25,Mężczyzna,2022-06-04_08h12.41.384,task,2021.1.4,Win32,60.0276127,628b806c463b948bc644b84f,629af6ed472dc15ea9e23c7d,,,,,,,,,,X V Q F H G B L J M P D K C T S W R N Z,,,,,,,,,,,,,,,,,,,,,,,,,,,,,,,,,,,,,,,,,,,,,,,,,,,,,,,,,,,,,,,,,,,,,,,,,,,,3,0,3,0,1,,,,,,,,,,,,,
,,,,,,,,,,61234be436e5986448f79170,25,Mężczyzna,2022-06-04_08h12.41.384,task,2021.1.4,Win32,60.0276127,628b806c463b948bc644b84f,629af6ed472dc15ea9e23c7d,,,,,,,,,,,,,,,,,,,,,,,1,,,,,,,,,,Task,15,(3x7) - 13,8,,,,,,,,,,,,,,,,,,,0,,,,,,,,,,,,,,,,,,,,,,,"[""1""]",0,[2.629100000023982],0,0,0,14,1,,,,,,,,,,,,,,,,,,
,,,,,,,,,,61234be436e5986448f79170,25,Mężczyzna,2022-06-04_08h12.41.384,task,2021.1.4,Win32,60.0276127,628b806c463b948bc644b84f,629af6ed472dc15ea9e23c7d,,,,,,,,,,,,,,,,,,,,,,,0,,,,,,,,,,Task,17,(2x3) - 6,0,,,,,,,,,,,,,,,,,,,1,,,,,,,,,,,,,,,,,,,,,,,"[""0""]",1,[2.7207000000476],0,1,1,16,1,,,,,,,,,,,,,,,,,,
,,,,,,,,,,61234be436e5986448f79170,25,Mężczyzna,2022-06-04_08h12.41.384,task,2021.1.4,Win32,60.0276127,628b806c463b948bc644b84f,629af6ed472dc15ea9e23c7d,,,,,,,,,,X V Q F H G B L J M P D K C T S W R N Z,,,,,,,,,,,,,,,,,,,,,,,,,,,,,,,,,,,,,,,,,,,,,,,,,,,,,,,,,,,,,,,,,,,,,,,,,,,,4,0,4,0,1,,,,,,,,,,,,,
,,,,,,,,,,61234be436e5986448f79170,25,Mężczyzna,2022-06-04_08h12.41.384,task,2021.1.4,Win32,60.0276127,628b806c463b948bc644b84f,629af6ed472dc15ea9e23c7d,,,,,,,,,,,,,,,,,,,,,,,5,,,,,,,,,,Task,22,(3x1) + 2,5,,,,,,,,,,,,,,,,,,,1,,,,,,,,,,,,,,,,,,,,,,,"[""5""]",1,[2.340600000023869],0,0,0,21,1,,,,,,,,,,,,,,,,,,
,,,,,,,,,,61234be436e5986448f79170,25,Mężczyzna,2022-06-04_08h12.41.384,task,2021.1.4,Win32,60.0276127,628b806c463b948bc644b84f,629af6ed472dc15ea9e23c7d,,,,,,,,,,X V Q F H G B L J M P D K C T S W R N Z,,,,,,,,,,,,,,,,,,,,,,,,,,,,,,,,,,,,,,,,,,,,,,,,,,,,,,,,,,,,,,,,,,,,,,,,,,,,5,0,5,0,1,,,,,,,,,,,,,
,,,,,,,,,,61234be436e5986448f79170,25,Mężczyzna,2022-06-04_08h12.41.384,task,2021.1.4,Win32,60.0276127,628b806c463b948bc644b84f,629af6ed472dc15ea9e23c7d,,,,,,,,,,,,,,,,,,,,,,,8,,,,,,,,,,Task,32,(8/2) + 4,8,,,,,,,,,,,,,,,,,,,1,,,,,,,,,,,,,,,,,,,,,,,"[""8""]",1,[3.58270000004768],0,0,0,31,1,,,,,,,,,,,,,,,,,,
,,,,,,,,,,61234be436e5986448f79170,25,Mężczyzna,2022-06-04_08h12.41.384,task,2021.1.4,Win32,60.0276127,628b806c463b948bc644b84f,629af6ed472dc15ea9e23c7d,,,,,,,,,,X V Q F H G B L J M P D K C T S W R N Z,,,,,,,,,,,,,,,,,,,,,,,,,,,,,,,,,,,,,,,,,,,,,,,,,,,,,,,,,,,,,,,,,,,,,,,,,,,,6,0,6,0,1,,,,,,,,,,,,,
,,,,,,,,,,61234be436e5986448f79170,25,Mężczyzna,2022-06-04_08h12.41.384,task,2021.1.4,Win32,60.0276127,628b806c463b948bc644b84f,629af6ed472dc15ea9e23c7d,,,,,,,,,,,,,,,,,,,,,,,3,,,,,,,,,,Task,26,(2x9) - 16,2,,,,,,,,,,,,,,,,,,,0,,,,,,,,,,,,,,,,,,,,,,,"[""3""]",0,[4.664799999952265],0,0,0,25,1,,,,,,,,,,,,,,,,,,
,,,,,,,,,,61234be436e5986448f79170,25,Mężczyzna,2022-06-04_08h12.41.384,task,2021.1.4,Win32,60.0276127,628b806c463b948bc644b84f,629af6ed472dc15ea9e23c7d,,,,,,,,,,,,,,,,,,,,,,,2,,,,,,,,,,Task,10,(2x5) - 8,2,,,,,,,,,,,,,,,,,,,1,,,,,,,,,,,,,,,,,,,,,,,"[""2""]",1,[3.397300000071482],0,1,1,9,1,,,,,,,,,,,,,,,,,,
,,,,,,,,,,61234be436e5986448f79170,25,Mężczyzna,2022-06-04_08h12.41.384,task,2021.1.4,Win32,60.0276127,628b806c463b948bc644b84f,629af6ed472dc15ea9e23c7d,,,,,,,,,,X V Q F H G B L J M P D K C T S W R N Z,,,,,,,,,,,,,,,,,,,,,,,,,,,,,,,,,,,,,,,,,,,,,,,,,,,,,,,,,,,,,,,,,,,,,,,,,,,,7,0,7,0,1,,,,,,,,,,,,,
,,,,,,,,,,61234be436e5986448f79170,25,Mężczyzna,2022-06-04_08h12.41.384,task,2021.1.4,Win32,60.0276127,628b806c463b948bc644b84f,629af6ed472dc15ea9e23c7d,,,,,,,,,,,,,,,,,,,,,,,,,,,,,,,,,,,,,,,,,,,,,,,,,,,,,,,,,,,,,,,,,,,,,,,,,,,,,,,,,,,,,,,,,,,bxvrbq,"[""b"",""x"",""v"",""r"",""b"",""q""]",0,"[2.051699999928587,2.364799999952311,3.5302999999523763,3.8276999999286545,4.330299999952331,5.060299999952349,14.708499999999958]",0,BXVRBQTV,8,0,8,0,1,,
,,,,,,,,,,61234be436e5986448f79170,25,Mężczyzna,2022-06-04_08h12.41.384,task,2021.1.4,Win32,60.0276127,628b806c463b948bc644b84f,629af6ed472dc15ea9e23c7d,,,,,,,,,,,,,,,,,,,,,,,,,,,,,,,,,,,,,,,,,,,,,,,,,,,,,,,,,,,,,,,,,,,,,,,,,,,,,,,,,,,,,,,,,,,,,,,,,,,,,,space,3.0383
