key_resp_15.keys,key_resp_15.rt,key_resp_16.keys,key_resp_16.rt,key_resp_4.keys,key_resp_4.rt,next_letter.thisRepN,next_letter.thisTrialN,next_letter.thisN,next_letter.thisIndex,next_letter.ran,letter,participant,Wiek*,Płeć,date,expName,psychopyVersion,OS,frameRate,study_id,session,simple_recall,key_resp_5.keys,key_resp_5.rt,simple_recall_corr,simple_recall_corrkeys,next_level.thisRepN,next_level.thisTrialN,next_level.thisN,next_level.thisIndex,next_level.ran,key_resp_2.keys,key_resp_2.rt,digit_answer,key_resp.keys,key_resp.corr,key_resp.rt,RT_list,next_equation.thisRepN,next_equation.thisTrialN,next_equation.thisN,next_equation.thisIndex,next_equation.ran,Task,Trial,Problem,Operation_answer,processing_score,sumRT,meanRT,sumdiff,sd,RT,key_resp_3.keys,key_resp_3.rt,repeat_practice.thisRepN,repeat_practice.thisTrialN,repeat_practice.thisN,repeat_practice.thisIndex,repeat_practice.ran,key_resp_6.keys,key_resp_6.rt,key_resp_11.keys,key_resp_11.corr,key_resp_11.rt,operation_correct,repeat_if_wrong_prac.thisRepN,repeat_if_wrong_prac.thisTrialN,repeat_if_wrong_prac.thisN,repeat_if_wrong_prac.thisIndex,repeat_if_wrong_prac.ran,span_size_prac.thisRepN,span_size_prac.thisTrialN,span_size_prac.thisN,span_size_prac.thisIndex,span_size_prac.ran,complex_recall_practice,key_resp_9.keys,key_resp_9.corr,key_resp_9.rt,complex_prac_corr,span_recall_prac.thisRepN,span_recall_prac.thisTrialN,span_recall_prac.thisN,span_recall_prac.thisIndex,span_recall_prac.ran,key_resp_10.keys,key_resp_10.rt,key_resp_7.keys,key_resp_7.corr,key_resp_7.rt,repeat_if_wrong.thisRepN,repeat_if_wrong.thisTrialN,repeat_if_wrong.thisN,repeat_if_wrong.thisIndex,repeat_if_wrong.ran,span_size.thisRepN,span_size.thisTrialN,span_size.thisN,span_size.thisIndex,span_size.ran,complex_recall,key_resp_8.keys,key_resp_8.corr,key_resp_8.rt,complex_recall_corr,complex_recall_corrkeys,span_recall.thisRepN,span_recall.thisTrialN,span_recall.thisN,span_recall.thisIndex,span_recall.ran,key_resp_13.keys,key_resp_13.corr,key_resp_13.rt,random_loop.thisRepN,random_loop.thisTrialN,random_loop.thisN,random_loop.thisIndex,random_loop.ran,key_resp_12.keys,key_resp_12.rt
space,11.279,space,50.097,space,31.264,0,0,0,0,1,X V Q F H G B L J M P D K C T S W R N Z,612aad990e951a20d5ba78a2,46,Mężczyzna,2022-06-11_09h28.46.201,task,2021.1.4,Win32,144.092219,6299f149e92ead563fba08ef,62a44420f8fcec8684542a3b,,,,,,,,,,,,,,,,,,,,,,,,,,,,,,,,,,,,,,,,,,,,,,,,,,,,,,,,,,,,,,,,,,,,,,,,,,,,,,,,,,,,,,,,,,,,,,,,,,,,,
,,,,,,1,0,1,0,1,X V Q F H G B L J M P D K C T S W R N Z,612aad990e951a20d5ba78a2,46,Mężczyzna,2022-06-11_09h28.46.201,task,2021.1.4,Win32,144.092219,6299f149e92ead563fba08ef,62a44420f8fcec8684542a3b,,,,,,,,,,,,,,,,,,,,,,,,,,,,,,,,,,,,,,,,,,,,,,,,,,,,,,,,,,,,,,,,,,,,,,,,,,,,,,,,,,,,,,,,,,,,,,,,,,,,,
,,,,,,,,,,,,612aad990e951a20d5ba78a2,46,Mężczyzna,2022-06-11_09h28.46.201,task,2021.1.4,Win32,144.092219,6299f149e92ead563fba08ef,62a44420f8fcec8684542a3b,zp,"[""z"",""p""]","[4.790000000000006,5.808000000000007,6.868000000000009]",1,ZP,0,0,0,0,1,,,,,,,,,,,,,,,,,,,,,,,,,,,,,,,,,,,,,,,,,,,,,,,,,,,,,,,,,,,,,,,,,,,,,,,,,,,,,,,,,,,,,,,,,,,
,,,,,,0,0,0,0,1,X V Q F H G B L J M P D K C T S W R N Z,612aad990e951a20d5ba78a2,46,Mężczyzna,2022-06-11_09h28.46.201,task,2021.1.4,Win32,144.092219,6299f149e92ead563fba08ef,62a44420f8fcec8684542a3b,,,,,,,,,,,,,,,,,,,,,,,,,,,,,,,,,,,,,,,,,,,,,,,,,,,,,,,,,,,,,,,,,,,,,,,,,,,,,,,,,,,,,,,,,,,,,,,,,,,,,
,,,,,,1,0,1,0,1,X V Q F H G B L J M P D K C T S W R N Z,612aad990e951a20d5ba78a2,46,Mężczyzna,2022-06-11_09h28.46.201,task,2021.1.4,Win32,144.092219,6299f149e92ead563fba08ef,62a44420f8fcec8684542a3b,,,,,,,,,,,,,,,,,,,,,,,,,,,,,,,,,,,,,,,,,,,,,,,,,,,,,,,,,,,,,,,,,,,,,,,,,,,,,,,,,,,,,,,,,,,,,,,,,,,,,
,,,,,,,,,,,,612aad990e951a20d5ba78a2,46,Mężczyzna,2022-06-11_09h28.46.201,task,2021.1.4,Win32,144.092219,6299f149e92ead563fba08ef,62a44420f8fcec8684542a3b,wb,"[""w"",""b""]","[2.2900000000000063,2.6170000000000044,3.323999999999998]",1,WB,1,0,1,0,1,,,,,,,,,,,,,,,,,,,,,,,,,,,,,,,,,,,,,,,,,,,,,,,,,,,,,,,,,,,,,,,,,,,,,,,,,,,,,,,,,,,,,,,,,,,
,,,,,,0,0,0,0,1,X V Q F H G B L J M P D K C T S W R N Z,612aad990e951a20d5ba78a2,46,Mężczyzna,2022-06-11_09h28.46.201,task,2021.1.4,Win32,144.092219,6299f149e92ead563fba08ef,62a44420f8fcec8684542a3b,,,,,,,,,,,,,,,,,,,,,,,,,,,,,,,,,,,,,,,,,,,,,,,,,,,,,,,,,,,,,,,,,,,,,,,,,,,,,,,,,,,,,,,,,,,,,,,,,,,,,
,,,,,,1,0,1,0,1,X V Q F H G B L J M P D K C T S W R N Z,612aad990e951a20d5ba78a2,46,Mężczyzna,2022-06-11_09h28.46.201,task,2021.1.4,Win32,144.092219,6299f149e92ead563fba08ef,62a44420f8fcec8684542a3b,,,,,,,,,,,,,,,,,,,,,,,,,,,,,,,,,,,,,,,,,,,,,,,,,,,,,,,,,,,,,,,,,,,,,,,,,,,,,,,,,,,,,,,,,,,,,,,,,,,,,
,,,,,,2,0,2,0,1,X V Q F H G B L J M P D K C T S W R N Z,612aad990e951a20d5ba78a2,46,Mężczyzna,2022-06-11_09h28.46.201,task,2021.1.4,Win32,144.092219,6299f149e92ead563fba08ef,62a44420f8fcec8684542a3b,,,,,,,,,,,,,,,,,,,,,,,,,,,,,,,,,,,,,,,,,,,,,,,,,,,,,,,,,,,,,,,,,,,,,,,,,,,,,,,,,,,,,,,,,,,,,,,,,,,,,
,,,,,,,,,,,,612aad990e951a20d5ba78a2,46,Mężczyzna,2022-06-11_09h28.46.201,task,2021.1.4,Win32,144.092219,6299f149e92ead563fba08ef,62a44420f8fcec8684542a3b,qxj,"[""q"",""x"",""j""]","[2.1019999999999897,2.48599999999999,2.992999999999995,3.6910000000000025]",1,QXJ,2,0,2,0,1,,,,,,,,,,,,,,,,,,,,,,,,,,,,,,,,,,,,,,,,,,,,,,,,,,,,,,,,,,,,,,,,,,,,,,,,,,,,,,,,,,,,,,,,,,,
,,,,,,0,0,0,0,1,X V Q F H G B L J M P D K C T S W R N Z,612aad990e951a20d5ba78a2,46,Mężczyzna,2022-06-11_09h28.46.201,task,2021.1.4,Win32,144.092219,6299f149e92ead563fba08ef,62a44420f8fcec8684542a3b,,,,,,,,,,,,,,,,,,,,,,,,,,,,,,,,,,,,,,,,,,,,,,,,,,,,,,,,,,,,,,,,,,,,,,,,,,,,,,,,,,,,,,,,,,,,,,,,,,,,,
,,,,,,1,0,1,0,1,X V Q F H G B L J M P D K C T S W R N Z,612aad990e951a20d5ba78a2,46,Mężczyzna,2022-06-11_09h28.46.201,task,2021.1.4,Win32,144.092219,6299f149e92ead563fba08ef,62a44420f8fcec8684542a3b,,,,,,,,,,,,,,,,,,,,,,,,,,,,,,,,,,,,,,,,,,,,,,,,,,,,,,,,,,,,,,,,,,,,,,,,,,,,,,,,,,,,,,,,,,,,,,,,,,,,,
,,,,,,2,0,2,0,1,X V Q F H G B L J M P D K C T S W R N Z,612aad990e951a20d5ba78a2,46,Mężczyzna,2022-06-11_09h28.46.201,task,2021.1.4,Win32,144.092219,6299f149e92ead563fba08ef,62a44420f8fcec8684542a3b,,,,,,,,,,,,,,,,,,,,,,,,,,,,,,,,,,,,,,,,,,,,,,,,,,,,,,,,,,,,,,,,,,,,,,,,,,,,,,,,,,,,,,,,,,,,,,,,,,,,,
,,,,,,,,,,,,612aad990e951a20d5ba78a2,46,Mężczyzna,2022-06-11_09h28.46.201,task,2021.1.4,Win32,144.092219,6299f149e92ead563fba08ef,62a44420f8fcec8684542a3b,zmd,"[""z"",""m"",""d""]","[1.5490000000000066,1.9209999999999923,2.430999999999983,3.1159999999999854]",1,ZMD,3,0,3,0,1,,,,,,,,,,,,,,,,,,,,,,,,,,,,,,,,,,,,,,,,,,,,,,,,,,,,,,,,,,,,,,,,,,,,,,,,,,,,,,,,,,,,,,,,,,,
,,,,,,0,0,0,0,1,X V Q F H G B L J M P D K C T S W R N Z,612aad990e951a20d5ba78a2,46,Mężczyzna,2022-06-11_09h28.46.201,task,2021.1.4,Win32,144.092219,6299f149e92ead563fba08ef,62a44420f8fcec8684542a3b,,,,,,,,,,,,,,,,,,,,,,,,,,,,,,,,,,,,,,,,,,,,,,,,,,,,,,,,,,,,,,,,,,,,,,,,,,,,,,,,,,,,,,,,,,,,,,,,,,,,,
,,,,,,1,0,1,0,1,X V Q F H G B L J M P D K C T S W R N Z,612aad990e951a20d5ba78a2,46,Mężczyzna,2022-06-11_09h28.46.201,task,2021.1.4,Win32,144.092219,6299f149e92ead563fba08ef,62a44420f8fcec8684542a3b,,,,,,,,,,,,,,,,,,,,,,,,,,,,,,,,,,,,,,,,,,,,,,,,,,,,,,,,,,,,,,,,,,,,,,,,,,,,,,,,,,,,,,,,,,,,,,,,,,,,,
,,,,,,2,0,2,0,1,X V Q F H G B L J M P D K C T S W R N Z,612aad990e951a20d5ba78a2,46,Mężczyzna,2022-06-11_09h28.46.201,task,2021.1.4,Win32,144.092219,6299f149e92ead563fba08ef,62a44420f8fcec8684542a3b,,,,,,,,,,,,,,,,,,,,,,,,,,,,,,,,,,,,,,,,,,,,,,,,,,,,,,,,,,,,,,,,,,,,,,,,,,,,,,,,,,,,,,,,,,,,,,,,,,,,,
,,,,,,3,0,3,0,1,X V Q F H G B L J M P D K C T S W R N Z,612aad990e951a20d5ba78a2,46,Mężczyzna,2022-06-11_09h28.46.201,task,2021.1.4,Win32,144.092219,6299f149e92ead563fba08ef,62a44420f8fcec8684542a3b,,,,,,,,,,,,,,,,,,,,,,,,,,,,,,,,,,,,,,,,,,,,,,,,,,,,,,,,,,,,,,,,,,,,,,,,,,,,,,,,,,,,,,,,,,,,,,,,,,,,,
,,,,,,,,,,,,612aad990e951a20d5ba78a2,46,Mężczyzna,2022-06-11_09h28.46.201,task,2021.1.4,Win32,144.092219,6299f149e92ead563fba08ef,62a44420f8fcec8684542a3b,zwbd,"[""z"",""w"",""b"",""d""]","[2.7510000000000048,3.625,4.462999999999994,4.998999999999995,5.802999999999997]",1,ZWBD,4,0,4,0,1,,,,,,,,,,,,,,,,,,,,,,,,,,,,,,,,,,,,,,,,,,,,,,,,,,,,,,,,,,,,,,,,,,,,,,,,,,,,,,,,,,,,,,,,,,,
,,,,,,0,0,0,0,1,X V Q F H G B L J M P D K C T S W R N Z,612aad990e951a20d5ba78a2,46,Mężczyzna,2022-06-11_09h28.46.201,task,2021.1.4,Win32,144.092219,6299f149e92ead563fba08ef,62a44420f8fcec8684542a3b,,,,,,,,,,,,,,,,,,,,,,,,,,,,,,,,,,,,,,,,,,,,,,,,,,,,,,,,,,,,,,,,,,,,,,,,,,,,,,,,,,,,,,,,,,,,,,,,,,,,,
,,,,,,1,0,1,0,1,X V Q F H G B L J M P D K C T S W R N Z,612aad990e951a20d5ba78a2,46,Mężczyzna,2022-06-11_09h28.46.201,task,2021.1.4,Win32,144.092219,6299f149e92ead563fba08ef,62a44420f8fcec8684542a3b,,,,,,,,,,,,,,,,,,,,,,,,,,,,,,,,,,,,,,,,,,,,,,,,,,,,,,,,,,,,,,,,,,,,,,,,,,,,,,,,,,,,,,,,,,,,,,,,,,,,,
,,,,,,2,0,2,0,1,X V Q F H G B L J M P D K C T S W R N Z,612aad990e951a20d5ba78a2,46,Mężczyzna,2022-06-11_09h28.46.201,task,2021.1.4,Win32,144.092219,6299f149e92ead563fba08ef,62a44420f8fcec8684542a3b,,,,,,,,,,,,,,,,,,,,,,,,,,,,,,,,,,,,,,,,,,,,,,,,,,,,,,,,,,,,,,,,,,,,,,,,,,,,,,,,,,,,,,,,,,,,,,,,,,,,,
,,,,,,3,0,3,0,1,X V Q F H G B L J M P D K C T S W R N Z,612aad990e951a20d5ba78a2,46,Mężczyzna,2022-06-11_09h28.46.201,task,2021.1.4,Win32,144.092219,6299f149e92ead563fba08ef,62a44420f8fcec8684542a3b,,,,,,,,,,,,,,,,,,,,,,,,,,,,,,,,,,,,,,,,,,,,,,,,,,,,,,,,,,,,,,,,,,,,,,,,,,,,,,,,,,,,,,,,,,,,,,,,,,,,,
,,,,,,,,,,,,612aad990e951a20d5ba78a2,46,Mężczyzna,2022-06-11_09h28.46.201,task,2021.1.4,Win32,144.092219,6299f149e92ead563fba08ef,62a44420f8fcec8684542a3b,sngs,"[""s"",""n"",""g"",""s""]","[2.1599999999999966,2.5900000000000034,3.9650000000000034,5.034999999999997,5.746000000000009]",1,SNGS,5,0,5,0,1,,,,,,,,,,,,,,,,,,,,,,,,,,,,,,,,,,,,,,,,,,,,,,,,,,,,,,,,,,,,,,,,,,,,,,,,,,,,,,,,,,,,,,,,,,,
,,,,,,0,0,0,0,1,X V Q F H G B L J M P D K C T S W R N Z,612aad990e951a20d5ba78a2,46,Mężczyzna,2022-06-11_09h28.46.201,task,2021.1.4,Win32,144.092219,6299f149e92ead563fba08ef,62a44420f8fcec8684542a3b,,,,,,,,,,,,,,,,,,,,,,,,,,,,,,,,,,,,,,,,,,,,,,,,,,,,,,,,,,,,,,,,,,,,,,,,,,,,,,,,,,,,,,,,,,,,,,,,,,,,,
,,,,,,1,0,1,0,1,X V Q F H G B L J M P D K C T S W R N Z,612aad990e951a20d5ba78a2,46,Mężczyzna,2022-06-11_09h28.46.201,task,2021.1.4,Win32,144.092219,6299f149e92ead563fba08ef,62a44420f8fcec8684542a3b,,,,,,,,,,,,,,,,,,,,,,,,,,,,,,,,,,,,,,,,,,,,,,,,,,,,,,,,,,,,,,,,,,,,,,,,,,,,,,,,,,,,,,,,,,,,,,,,,,,,,
,,,,,,2,0,2,0,1,X V Q F H G B L J M P D K C T S W R N Z,612aad990e951a20d5ba78a2,46,Mężczyzna,2022-06-11_09h28.46.201,task,2021.1.4,Win32,144.092219,6299f149e92ead563fba08ef,62a44420f8fcec8684542a3b,,,,,,,,,,,,,,,,,,,,,,,,,,,,,,,,,,,,,,,,,,,,,,,,,,,,,,,,,,,,,,,,,,,,,,,,,,,,,,,,,,,,,,,,,,,,,,,,,,,,,
,,,,,,3,0,3,0,1,X V Q F H G B L J M P D K C T S W R N Z,612aad990e951a20d5ba78a2,46,Mężczyzna,2022-06-11_09h28.46.201,task,2021.1.4,Win32,144.092219,6299f149e92ead563fba08ef,62a44420f8fcec8684542a3b,,,,,,,,,,,,,,,,,,,,,,,,,,,,,,,,,,,,,,,,,,,,,,,,,,,,,,,,,,,,,,,,,,,,,,,,,,,,,,,,,,,,,,,,,,,,,,,,,,,,,
,,,,,,4,0,4,0,1,X V Q F H G B L J M P D K C T S W R N Z,612aad990e951a20d5ba78a2,46,Mężczyzna,2022-06-11_09h28.46.201,task,2021.1.4,Win32,144.092219,6299f149e92ead563fba08ef,62a44420f8fcec8684542a3b,,,,,,,,,,,,,,,,,,,,,,,,,,,,,,,,,,,,,,,,,,,,,,,,,,,,,,,,,,,,,,,,,,,,,,,,,,,,,,,,,,,,,,,,,,,,,,,,,,,,,
,,,,,,,,,,,,612aad990e951a20d5ba78a2,46,Mężczyzna,2022-06-11_09h28.46.201,task,2021.1.4,Win32,144.092219,6299f149e92ead563fba08ef,62a44420f8fcec8684542a3b,ctgvm,"[""c"",""t"",""g"",""v"",""m""]","[2.5430000000000064,3.459000000000003,4.799000000000007,5.117000000000019,5.781000000000006,6.604000000000013]",1,CTGVM,6,0,6,0,1,,,,,,,,,,,,,,,,,,,,,,,,,,,,,,,,,,,,,,,,,,,,,,,,,,,,,,,,,,,,,,,,,,,,,,,,,,,,,,,,,,,,,,,,,,,
,,,,,,0,0,0,0,1,X V Q F H G B L J M P D K C T S W R N Z,612aad990e951a20d5ba78a2,46,Mężczyzna,2022-06-11_09h28.46.201,task,2021.1.4,Win32,144.092219,6299f149e92ead563fba08ef,62a44420f8fcec8684542a3b,,,,,,,,,,,,,,,,,,,,,,,,,,,,,,,,,,,,,,,,,,,,,,,,,,,,,,,,,,,,,,,,,,,,,,,,,,,,,,,,,,,,,,,,,,,,,,,,,,,,,
,,,,,,1,0,1,0,1,X V Q F H G B L J M P D K C T S W R N Z,612aad990e951a20d5ba78a2,46,Mężczyzna,2022-06-11_09h28.46.201,task,2021.1.4,Win32,144.092219,6299f149e92ead563fba08ef,62a44420f8fcec8684542a3b,,,,,,,,,,,,,,,,,,,,,,,,,,,,,,,,,,,,,,,,,,,,,,,,,,,,,,,,,,,,,,,,,,,,,,,,,,,,,,,,,,,,,,,,,,,,,,,,,,,,,
,,,,,,2,0,2,0,1,X V Q F H G B L J M P D K C T S W R N Z,612aad990e951a20d5ba78a2,46,Mężczyzna,2022-06-11_09h28.46.201,task,2021.1.4,Win32,144.092219,6299f149e92ead563fba08ef,62a44420f8fcec8684542a3b,,,,,,,,,,,,,,,,,,,,,,,,,,,,,,,,,,,,,,,,,,,,,,,,,,,,,,,,,,,,,,,,,,,,,,,,,,,,,,,,,,,,,,,,,,,,,,,,,,,,,
,,,,,,3,0,3,0,1,X V Q F H G B L J M P D K C T S W R N Z,612aad990e951a20d5ba78a2,46,Mężczyzna,2022-06-11_09h28.46.201,task,2021.1.4,Win32,144.092219,6299f149e92ead563fba08ef,62a44420f8fcec8684542a3b,,,,,,,,,,,,,,,,,,,,,,,,,,,,,,,,,,,,,,,,,,,,,,,,,,,,,,,,,,,,,,,,,,,,,,,,,,,,,,,,,,,,,,,,,,,,,,,,,,,,,
,,,,,,4,0,4,0,1,X V Q F H G B L J M P D K C T S W R N Z,612aad990e951a20d5ba78a2,46,Mężczyzna,2022-06-11_09h28.46.201,task,2021.1.4,Win32,144.092219,6299f149e92ead563fba08ef,62a44420f8fcec8684542a3b,,,,,,,,,,,,,,,,,,,,,,,,,,,,,,,,,,,,,,,,,,,,,,,,,,,,,,,,,,,,,,,,,,,,,,,,,,,,,,,,,,,,,,,,,,,,,,,,,,,,,
,,,,,,,,,,,,612aad990e951a20d5ba78a2,46,Mężczyzna,2022-06-11_09h28.46.201,task,2021.1.4,Win32,144.092219,6299f149e92ead563fba08ef,62a44420f8fcec8684542a3b,prcrs,"[""p"",""r"",""c"",""r"",""s""]","[6.539999999999992,7.214999999999975,7.514999999999986,9.012999999999977,9.299999999999983,9.914999999999992]",0,FRCRS,7,0,7,0,1,,,,,,,,,,,,,,,,,,,,,,,,,,,,,,,,,,,,,,,,,,,,,,,,,,,,,,,,,,,,,,,,,,,,,,,,,,,,,,,,,,,,,,,,,,,
,,,,,,0,0,0,0,1,X V Q F H G B L J M P D K C T S W R N Z,612aad990e951a20d5ba78a2,46,Mężczyzna,2022-06-11_09h28.46.201,task,2021.1.4,Win32,144.092219,6299f149e92ead563fba08ef,62a44420f8fcec8684542a3b,,,,,,,,,,,,,,,,,,,,,,,,,,,,,,,,,,,,,,,,,,,,,,,,,,,,,,,,,,,,,,,,,,,,,,,,,,,,,,,,,,,,,,,,,,,,,,,,,,,,,
,,,,,,1,0,1,0,1,X V Q F H G B L J M P D K C T S W R N Z,612aad990e951a20d5ba78a2,46,Mężczyzna,2022-06-11_09h28.46.201,task,2021.1.4,Win32,144.092219,6299f149e92ead563fba08ef,62a44420f8fcec8684542a3b,,,,,,,,,,,,,,,,,,,,,,,,,,,,,,,,,,,,,,,,,,,,,,,,,,,,,,,,,,,,,,,,,,,,,,,,,,,,,,,,,,,,,,,,,,,,,,,,,,,,,
,,,,,,2,0,2,0,1,X V Q F H G B L J M P D K C T S W R N Z,612aad990e951a20d5ba78a2,46,Mężczyzna,2022-06-11_09h28.46.201,task,2021.1.4,Win32,144.092219,6299f149e92ead563fba08ef,62a44420f8fcec8684542a3b,,,,,,,,,,,,,,,,,,,,,,,,,,,,,,,,,,,,,,,,,,,,,,,,,,,,,,,,,,,,,,,,,,,,,,,,,,,,,,,,,,,,,,,,,,,,,,,,,,,,,
,,,,,,3,0,3,0,1,X V Q F H G B L J M P D K C T S W R N Z,612aad990e951a20d5ba78a2,46,Mężczyzna,2022-06-11_09h28.46.201,task,2021.1.4,Win32,144.092219,6299f149e92ead563fba08ef,62a44420f8fcec8684542a3b,,,,,,,,,,,,,,,,,,,,,,,,,,,,,,,,,,,,,,,,,,,,,,,,,,,,,,,,,,,,,,,,,,,,,,,,,,,,,,,,,,,,,,,,,,,,,,,,,,,,,
,,,,,,4,0,4,0,1,X V Q F H G B L J M P D K C T S W R N Z,612aad990e951a20d5ba78a2,46,Mężczyzna,2022-06-11_09h28.46.201,task,2021.1.4,Win32,144.092219,6299f149e92ead563fba08ef,62a44420f8fcec8684542a3b,,,,,,,,,,,,,,,,,,,,,,,,,,,,,,,,,,,,,,,,,,,,,,,,,,,,,,,,,,,,,,,,,,,,,,,,,,,,,,,,,,,,,,,,,,,,,,,,,,,,,
,,,,,,,,,,,,612aad990e951a20d5ba78a2,46,Mężczyzna,2022-06-11_09h28.46.201,task,2021.1.4,Win32,144.092219,6299f149e92ead563fba08ef,62a44420f8fcec8684542a3b,pwqlr,"[""p"",""w"",""q"",""l"",""r""]","[2.2450000000000045,3.02800000000002,3.5420000000000016,4.140000000000015,5.001000000000005,5.721000000000004]",1,PWQLR,8,0,8,0,1,,,,,,,,,,,,,,,,,,,,,,,,,,,,,,,,,,,,,,,,,,,,,,,,,,,,,,,,,,,,,,,,,,,,,,,,,,,,,,,,,,,,,,,,,,,
,,,,,,0,0,0,0,1,X V Q F H G B L J M P D K C T S W R N Z,612aad990e951a20d5ba78a2,46,Mężczyzna,2022-06-11_09h28.46.201,task,2021.1.4,Win32,144.092219,6299f149e92ead563fba08ef,62a44420f8fcec8684542a3b,,,,,,,,,,,,,,,,,,,,,,,,,,,,,,,,,,,,,,,,,,,,,,,,,,,,,,,,,,,,,,,,,,,,,,,,,,,,,,,,,,,,,,,,,,,,,,,,,,,,,
,,,,,,1,0,1,0,1,X V Q F H G B L J M P D K C T S W R N Z,612aad990e951a20d5ba78a2,46,Mężczyzna,2022-06-11_09h28.46.201,task,2021.1.4,Win32,144.092219,6299f149e92ead563fba08ef,62a44420f8fcec8684542a3b,,,,,,,,,,,,,,,,,,,,,,,,,,,,,,,,,,,,,,,,,,,,,,,,,,,,,,,,,,,,,,,,,,,,,,,,,,,,,,,,,,,,,,,,,,,,,,,,,,,,,
,,,,,,2,0,2,0,1,X V Q F H G B L J M P D K C T S W R N Z,612aad990e951a20d5ba78a2,46,Mężczyzna,2022-06-11_09h28.46.201,task,2021.1.4,Win32,144.092219,6299f149e92ead563fba08ef,62a44420f8fcec8684542a3b,,,,,,,,,,,,,,,,,,,,,,,,,,,,,,,,,,,,,,,,,,,,,,,,,,,,,,,,,,,,,,,,,,,,,,,,,,,,,,,,,,,,,,,,,,,,,,,,,,,,,
,,,,,,3,0,3,0,1,X V Q F H G B L J M P D K C T S W R N Z,612aad990e951a20d5ba78a2,46,Mężczyzna,2022-06-11_09h28.46.201,task,2021.1.4,Win32,144.092219,6299f149e92ead563fba08ef,62a44420f8fcec8684542a3b,,,,,,,,,,,,,,,,,,,,,,,,,,,,,,,,,,,,,,,,,,,,,,,,,,,,,,,,,,,,,,,,,,,,,,,,,,,,,,,,,,,,,,,,,,,,,,,,,,,,,
,,,,,,4,0,4,0,1,X V Q F H G B L J M P D K C T S W R N Z,612aad990e951a20d5ba78a2,46,Mężczyzna,2022-06-11_09h28.46.201,task,2021.1.4,Win32,144.092219,6299f149e92ead563fba08ef,62a44420f8fcec8684542a3b,,,,,,,,,,,,,,,,,,,,,,,,,,,,,,,,,,,,,,,,,,,,,,,,,,,,,,,,,,,,,,,,,,,,,,,,,,,,,,,,,,,,,,,,,,,,,,,,,,,,,
,,,,,,5,0,5,0,1,X V Q F H G B L J M P D K C T S W R N Z,612aad990e951a20d5ba78a2,46,Mężczyzna,2022-06-11_09h28.46.201,task,2021.1.4,Win32,144.092219,6299f149e92ead563fba08ef,62a44420f8fcec8684542a3b,,,,,,,,,,,,,,,,,,,,,,,,,,,,,,,,,,,,,,,,,,,,,,,,,,,,,,,,,,,,,,,,,,,,,,,,,,,,,,,,,,,,,,,,,,,,,,,,,,,,,
,,,,,,,,,,,,612aad990e951a20d5ba78a2,46,Mężczyzna,2022-06-11_09h28.46.201,task,2021.1.4,Win32,144.092219,6299f149e92ead563fba08ef,62a44420f8fcec8684542a3b,sqvnph,"[""s"",""q"",""v"",""n"",""p"",""h""]","[1.9080000000000155,2.605000000000018,4.188999999999993,5.992999999999995,6.532000000000011,7.643000000000001,8.292000000000002]",1,SQVNPH,9,0,9,0,1,,,,,,,,,,,,,,,,,,,,,,,,,,,,,,,,,,,,,,,,,,,,,,,,,,,,,,,,,,,,,,,,,,,,,,,,,,,,,,,,,,,,,,,,,,,
,,,,,,0,0,0,0,1,X V Q F H G B L J M P D K C T S W R N Z,612aad990e951a20d5ba78a2,46,Mężczyzna,2022-06-11_09h28.46.201,task,2021.1.4,Win32,144.092219,6299f149e92ead563fba08ef,62a44420f8fcec8684542a3b,,,,,,,,,,,,,,,,,,,,,,,,,,,,,,,,,,,,,,,,,,,,,,,,,,,,,,,,,,,,,,,,,,,,,,,,,,,,,,,,,,,,,,,,,,,,,,,,,,,,,
,,,,,,1,0,1,0,1,X V Q F H G B L J M P D K C T S W R N Z,612aad990e951a20d5ba78a2,46,Mężczyzna,2022-06-11_09h28.46.201,task,2021.1.4,Win32,144.092219,6299f149e92ead563fba08ef,62a44420f8fcec8684542a3b,,,,,,,,,,,,,,,,,,,,,,,,,,,,,,,,,,,,,,,,,,,,,,,,,,,,,,,,,,,,,,,,,,,,,,,,,,,,,,,,,,,,,,,,,,,,,,,,,,,,,
,,,,,,2,0,2,0,1,X V Q F H G B L J M P D K C T S W R N Z,612aad990e951a20d5ba78a2,46,Mężczyzna,2022-06-11_09h28.46.201,task,2021.1.4,Win32,144.092219,6299f149e92ead563fba08ef,62a44420f8fcec8684542a3b,,,,,,,,,,,,,,,,,,,,,,,,,,,,,,,,,,,,,,,,,,,,,,,,,,,,,,,,,,,,,,,,,,,,,,,,,,,,,,,,,,,,,,,,,,,,,,,,,,,,,
,,,,,,3,0,3,0,1,X V Q F H G B L J M P D K C T S W R N Z,612aad990e951a20d5ba78a2,46,Mężczyzna,2022-06-11_09h28.46.201,task,2021.1.4,Win32,144.092219,6299f149e92ead563fba08ef,62a44420f8fcec8684542a3b,,,,,,,,,,,,,,,,,,,,,,,,,,,,,,,,,,,,,,,,,,,,,,,,,,,,,,,,,,,,,,,,,,,,,,,,,,,,,,,,,,,,,,,,,,,,,,,,,,,,,
,,,,,,4,0,4,0,1,X V Q F H G B L J M P D K C T S W R N Z,612aad990e951a20d5ba78a2,46,Mężczyzna,2022-06-11_09h28.46.201,task,2021.1.4,Win32,144.092219,6299f149e92ead563fba08ef,62a44420f8fcec8684542a3b,,,,,,,,,,,,,,,,,,,,,,,,,,,,,,,,,,,,,,,,,,,,,,,,,,,,,,,,,,,,,,,,,,,,,,,,,,,,,,,,,,,,,,,,,,,,,,,,,,,,,
,,,,,,5,0,5,0,1,X V Q F H G B L J M P D K C T S W R N Z,612aad990e951a20d5ba78a2,46,Mężczyzna,2022-06-11_09h28.46.201,task,2021.1.4,Win32,144.092219,6299f149e92ead563fba08ef,62a44420f8fcec8684542a3b,,,,,,,,,,,,,,,,,,,,,,,,,,,,,,,,,,,,,,,,,,,,,,,,,,,,,,,,,,,,,,,,,,,,,,,,,,,,,,,,,,,,,,,,,,,,,,,,,,,,,
,,,,,,,,,,,,612aad990e951a20d5ba78a2,46,Mężczyzna,2022-06-11_09h28.46.201,task,2021.1.4,Win32,144.092219,6299f149e92ead563fba08ef,62a44420f8fcec8684542a3b,kqtplv,"[""k"",""q"",""t"",""p"",""l"",""v""]","[2.6829999999999927,3.4420000000000073,3.8710000000000093,5.876000000000005,6.092000000000013,6.740000000000009,7.407000000000011]",1,KQTPLV,10,0,10,0,1,,,,,,,,,,,,,,,,,,,,,,,,,,,,,,,,,,,,,,,,,,,,,,,,,,,,,,,,,,,,,,,,,,,,,,,,,,,,,,,,,,,,,,,,,,,
,,,,,,0,0,0,0,1,X V Q F H G B L J M P D K C T S W R N Z,612aad990e951a20d5ba78a2,46,Mężczyzna,2022-06-11_09h28.46.201,task,2021.1.4,Win32,144.092219,6299f149e92ead563fba08ef,62a44420f8fcec8684542a3b,,,,,,,,,,,,,,,,,,,,,,,,,,,,,,,,,,,,,,,,,,,,,,,,,,,,,,,,,,,,,,,,,,,,,,,,,,,,,,,,,,,,,,,,,,,,,,,,,,,,,
,,,,,,1,0,1,0,1,X V Q F H G B L J M P D K C T S W R N Z,612aad990e951a20d5ba78a2,46,Mężczyzna,2022-06-11_09h28.46.201,task,2021.1.4,Win32,144.092219,6299f149e92ead563fba08ef,62a44420f8fcec8684542a3b,,,,,,,,,,,,,,,,,,,,,,,,,,,,,,,,,,,,,,,,,,,,,,,,,,,,,,,,,,,,,,,,,,,,,,,,,,,,,,,,,,,,,,,,,,,,,,,,,,,,,
,,,,,,2,0,2,0,1,X V Q F H G B L J M P D K C T S W R N Z,612aad990e951a20d5ba78a2,46,Mężczyzna,2022-06-11_09h28.46.201,task,2021.1.4,Win32,144.092219,6299f149e92ead563fba08ef,62a44420f8fcec8684542a3b,,,,,,,,,,,,,,,,,,,,,,,,,,,,,,,,,,,,,,,,,,,,,,,,,,,,,,,,,,,,,,,,,,,,,,,,,,,,,,,,,,,,,,,,,,,,,,,,,,,,,
,,,,,,3,0,3,0,1,X V Q F H G B L J M P D K C T S W R N Z,612aad990e951a20d5ba78a2,46,Mężczyzna,2022-06-11_09h28.46.201,task,2021.1.4,Win32,144.092219,6299f149e92ead563fba08ef,62a44420f8fcec8684542a3b,,,,,,,,,,,,,,,,,,,,,,,,,,,,,,,,,,,,,,,,,,,,,,,,,,,,,,,,,,,,,,,,,,,,,,,,,,,,,,,,,,,,,,,,,,,,,,,,,,,,,
,,,,,,4,0,4,0,1,X V Q F H G B L J M P D K C T S W R N Z,612aad990e951a20d5ba78a2,46,Mężczyzna,2022-06-11_09h28.46.201,task,2021.1.4,Win32,144.092219,6299f149e92ead563fba08ef,62a44420f8fcec8684542a3b,,,,,,,,,,,,,,,,,,,,,,,,,,,,,,,,,,,,,,,,,,,,,,,,,,,,,,,,,,,,,,,,,,,,,,,,,,,,,,,,,,,,,,,,,,,,,,,,,,,,,
,,,,,,5,0,5,0,1,X V Q F H G B L J M P D K C T S W R N Z,612aad990e951a20d5ba78a2,46,Mężczyzna,2022-06-11_09h28.46.201,task,2021.1.4,Win32,144.092219,6299f149e92ead563fba08ef,62a44420f8fcec8684542a3b,,,,,,,,,,,,,,,,,,,,,,,,,,,,,,,,,,,,,,,,,,,,,,,,,,,,,,,,,,,,,,,,,,,,,,,,,,,,,,,,,,,,,,,,,,,,,,,,,,,,,
,,,,,,6,0,6,0,1,X V Q F H G B L J M P D K C T S W R N Z,612aad990e951a20d5ba78a2,46,Mężczyzna,2022-06-11_09h28.46.201,task,2021.1.4,Win32,144.092219,6299f149e92ead563fba08ef,62a44420f8fcec8684542a3b,,,,,,,,,,,,,,,,,,,,,,,,,,,,,,,,,,,,,,,,,,,,,,,,,,,,,,,,,,,,,,,,,,,,,,,,,,,,,,,,,,,,,,,,,,,,,,,,,,,,,
,,,,,,,,,,,,612aad990e951a20d5ba78a2,46,Mężczyzna,2022-06-11_09h28.46.201,task,2021.1.4,Win32,144.092219,6299f149e92ead563fba08ef,62a44420f8fcec8684542a3b,mfvmwmq,"[""m"",""f"",""v"",""m"",""w"",""m"",""q""]","[2.890999999999991,5.299000000000007,5.562999999999988,7.829000000000008,8.914999999999992,10.992999999999995,12.930000000000007,13.646000000000015]",0,MFVMWNQ,11,0,11,0,1,,,,,,,,,,,,,,,,,,,,,,,,,,,,,,,,,,,,,,,,,,,,,,,,,,,,,,,,,,,,,,,,,,,,,,,,,,,,,,,,,,,,,,,,,,,
,,,,,,0,0,0,0,1,X V Q F H G B L J M P D K C T S W R N Z,612aad990e951a20d5ba78a2,46,Mężczyzna,2022-06-11_09h28.46.201,task,2021.1.4,Win32,144.092219,6299f149e92ead563fba08ef,62a44420f8fcec8684542a3b,,,,,,,,,,,,,,,,,,,,,,,,,,,,,,,,,,,,,,,,,,,,,,,,,,,,,,,,,,,,,,,,,,,,,,,,,,,,,,,,,,,,,,,,,,,,,,,,,,,,,
,,,,,,1,0,1,0,1,X V Q F H G B L J M P D K C T S W R N Z,612aad990e951a20d5ba78a2,46,Mężczyzna,2022-06-11_09h28.46.201,task,2021.1.4,Win32,144.092219,6299f149e92ead563fba08ef,62a44420f8fcec8684542a3b,,,,,,,,,,,,,,,,,,,,,,,,,,,,,,,,,,,,,,,,,,,,,,,,,,,,,,,,,,,,,,,,,,,,,,,,,,,,,,,,,,,,,,,,,,,,,,,,,,,,,
,,,,,,2,0,2,0,1,X V Q F H G B L J M P D K C T S W R N Z,612aad990e951a20d5ba78a2,46,Mężczyzna,2022-06-11_09h28.46.201,task,2021.1.4,Win32,144.092219,6299f149e92ead563fba08ef,62a44420f8fcec8684542a3b,,,,,,,,,,,,,,,,,,,,,,,,,,,,,,,,,,,,,,,,,,,,,,,,,,,,,,,,,,,,,,,,,,,,,,,,,,,,,,,,,,,,,,,,,,,,,,,,,,,,,
,,,,,,3,0,3,0,1,X V Q F H G B L J M P D K C T S W R N Z,612aad990e951a20d5ba78a2,46,Mężczyzna,2022-06-11_09h28.46.201,task,2021.1.4,Win32,144.092219,6299f149e92ead563fba08ef,62a44420f8fcec8684542a3b,,,,,,,,,,,,,,,,,,,,,,,,,,,,,,,,,,,,,,,,,,,,,,,,,,,,,,,,,,,,,,,,,,,,,,,,,,,,,,,,,,,,,,,,,,,,,,,,,,,,,
,,,,,,4,0,4,0,1,X V Q F H G B L J M P D K C T S W R N Z,612aad990e951a20d5ba78a2,46,Mężczyzna,2022-06-11_09h28.46.201,task,2021.1.4,Win32,144.092219,6299f149e92ead563fba08ef,62a44420f8fcec8684542a3b,,,,,,,,,,,,,,,,,,,,,,,,,,,,,,,,,,,,,,,,,,,,,,,,,,,,,,,,,,,,,,,,,,,,,,,,,,,,,,,,,,,,,,,,,,,,,,,,,,,,,
,,,,,,5,0,5,0,1,X V Q F H G B L J M P D K C T S W R N Z,612aad990e951a20d5ba78a2,46,Mężczyzna,2022-06-11_09h28.46.201,task,2021.1.4,Win32,144.092219,6299f149e92ead563fba08ef,62a44420f8fcec8684542a3b,,,,,,,,,,,,,,,,,,,,,,,,,,,,,,,,,,,,,,,,,,,,,,,,,,,,,,,,,,,,,,,,,,,,,,,,,,,,,,,,,,,,,,,,,,,,,,,,,,,,,
,,,,,,6,0,6,0,1,X V Q F H G B L J M P D K C T S W R N Z,612aad990e951a20d5ba78a2,46,Mężczyzna,2022-06-11_09h28.46.201,task,2021.1.4,Win32,144.092219,6299f149e92ead563fba08ef,62a44420f8fcec8684542a3b,,,,,,,,,,,,,,,,,,,,,,,,,,,,,,,,,,,,,,,,,,,,,,,,,,,,,,,,,,,,,,,,,,,,,,,,,,,,,,,,,,,,,,,,,,,,,,,,,,,,,
,,,,,,,,,,,,612aad990e951a20d5ba78a2,46,Mężczyzna,2022-06-11_09h28.46.201,task,2021.1.4,Win32,144.092219,6299f149e92ead563fba08ef,62a44420f8fcec8684542a3b,mhggrmm,"[""m"",""h"",""g"",""g"",""r"",""m"",""m""]","[2.7830000000000155,3.4909999999999854,3.805000000000007,3.9769999999999754,6.923999999999978,10.226999999999975,10.38900000000001,11.435999999999979]",0,MHGGRML,12,0,12,0,1,,,,,,,,,,,,,,,,,,,,,,,,,,,,,,,,,,,,,,,,,,,,,,,,,,,,,,,,,,,,,,,,,,,,,,,,,,,,,,,,,,,,,,,,,,,
,,,,,,0,0,0,0,1,X V Q F H G B L J M P D K C T S W R N Z,612aad990e951a20d5ba78a2,46,Mężczyzna,2022-06-11_09h28.46.201,task,2021.1.4,Win32,144.092219,6299f149e92ead563fba08ef,62a44420f8fcec8684542a3b,,,,,,,,,,,,,,,,,,,,,,,,,,,,,,,,,,,,,,,,,,,,,,,,,,,,,,,,,,,,,,,,,,,,,,,,,,,,,,,,,,,,,,,,,,,,,,,,,,,,,
,,,,,,1,0,1,0,1,X V Q F H G B L J M P D K C T S W R N Z,612aad990e951a20d5ba78a2,46,Mężczyzna,2022-06-11_09h28.46.201,task,2021.1.4,Win32,144.092219,6299f149e92ead563fba08ef,62a44420f8fcec8684542a3b,,,,,,,,,,,,,,,,,,,,,,,,,,,,,,,,,,,,,,,,,,,,,,,,,,,,,,,,,,,,,,,,,,,,,,,,,,,,,,,,,,,,,,,,,,,,,,,,,,,,,
,,,,,,2,0,2,0,1,X V Q F H G B L J M P D K C T S W R N Z,612aad990e951a20d5ba78a2,46,Mężczyzna,2022-06-11_09h28.46.201,task,2021.1.4,Win32,144.092219,6299f149e92ead563fba08ef,62a44420f8fcec8684542a3b,,,,,,,,,,,,,,,,,,,,,,,,,,,,,,,,,,,,,,,,,,,,,,,,,,,,,,,,,,,,,,,,,,,,,,,,,,,,,,,,,,,,,,,,,,,,,,,,,,,,,
,,,,,,3,0,3,0,1,X V Q F H G B L J M P D K C T S W R N Z,612aad990e951a20d5ba78a2,46,Mężczyzna,2022-06-11_09h28.46.201,task,2021.1.4,Win32,144.092219,6299f149e92ead563fba08ef,62a44420f8fcec8684542a3b,,,,,,,,,,,,,,,,,,,,,,,,,,,,,,,,,,,,,,,,,,,,,,,,,,,,,,,,,,,,,,,,,,,,,,,,,,,,,,,,,,,,,,,,,,,,,,,,,,,,,
,,,,,,4,0,4,0,1,X V Q F H G B L J M P D K C T S W R N Z,612aad990e951a20d5ba78a2,46,Mężczyzna,2022-06-11_09h28.46.201,task,2021.1.4,Win32,144.092219,6299f149e92ead563fba08ef,62a44420f8fcec8684542a3b,,,,,,,,,,,,,,,,,,,,,,,,,,,,,,,,,,,,,,,,,,,,,,,,,,,,,,,,,,,,,,,,,,,,,,,,,,,,,,,,,,,,,,,,,,,,,,,,,,,,,
,,,,,,5,0,5,0,1,X V Q F H G B L J M P D K C T S W R N Z,612aad990e951a20d5ba78a2,46,Mężczyzna,2022-06-11_09h28.46.201,task,2021.1.4,Win32,144.092219,6299f149e92ead563fba08ef,62a44420f8fcec8684542a3b,,,,,,,,,,,,,,,,,,,,,,,,,,,,,,,,,,,,,,,,,,,,,,,,,,,,,,,,,,,,,,,,,,,,,,,,,,,,,,,,,,,,,,,,,,,,,,,,,,,,,
,,,,,,6,0,6,0,1,X V Q F H G B L J M P D K C T S W R N Z,612aad990e951a20d5ba78a2,46,Mężczyzna,2022-06-11_09h28.46.201,task,2021.1.4,Win32,144.092219,6299f149e92ead563fba08ef,62a44420f8fcec8684542a3b,,,,,,,,,,,,,,,,,,,,,,,,,,,,,,,,,,,,,,,,,,,,,,,,,,,,,,,,,,,,,,,,,,,,,,,,,,,,,,,,,,,,,,,,,,,,,,,,,,,,,
,,,,,,,,,,,,612aad990e951a20d5ba78a2,46,Mężczyzna,2022-06-11_09h28.46.201,task,2021.1.4,Win32,144.092219,6299f149e92ead563fba08ef,62a44420f8fcec8684542a3b,jjbftww,"[""j"",""j"",""b"",""f"",""t"",""w"",""w""]","[2.170000000000016,2.319000000000017,3.519999999999982,5.0260000000000105,5.204000000000008,7.081999999999994,7.212999999999965,7.9979999999999905]",0,JJBFTWV,13,0,13,0,1,,,,,,,,,,,,,,,,,,,,,,,,,,,,,,,,,,,,,,,,,,,,,,,,,,,,,,,,,,,,,,,,,,,,,,,,,,,,,,,,,,,,,,,,,,,
,,,,,,,,,,,,612aad990e951a20d5ba78a2,46,Mężczyzna,2022-06-11_09h28.46.201,task,2021.1.4,Win32,144.092219,6299f149e92ead563fba08ef,62a44420f8fcec8684542a3b,,,,,,,,,,,space,8.366,3,"[""3""]",1,[6.326999999999998],[6.326999999999998],0,0,0,3,1,Practice,4,(8/4) + 1,3,,,,,,,,,,,,,,,,,,,,,,,,,,,,,,,,,,,,,,,,,,,,,,,,,,,,,,,,,,,,,,,,,,,,,,,,,,,
,,,,,,,,,,,,612aad990e951a20d5ba78a2,46,Mężczyzna,2022-06-11_09h28.46.201,task,2021.1.4,Win32,144.092219,6299f149e92ead563fba08ef,62a44420f8fcec8684542a3b,,,,,,,,,,,,,2,"[""2""]",1,[4.324999999999989],"[6.326999999999998,4.324999999999989]",0,1,1,2,1,Practice,3,(4x4) - 14,2,,,,,,,,,,,,,,,,,,,,,,,,,,,,,,,,,,,,,,,,,,,,,,,,,,,,,,,,,,,,,,,,,,,,,,,,,,,
,,,,,,,,,,,,612aad990e951a20d5ba78a2,46,Mężczyzna,2022-06-11_09h28.46.201,task,2021.1.4,Win32,144.092219,6299f149e92ead563fba08ef,62a44420f8fcec8684542a3b,,,,,,,,,,,,,7,"[""7""]",1,[5.097000000000037],"[6.326999999999998,4.324999999999989,5.097000000000037]",0,2,2,7,1,Practice,8,(5x5) - 18,7,,,,,,,,,,,,,,,,,,,,,,,,,,,,,,,,,,,,,,,,,,,,,,,,,,,,,,,,,,,,,,,,,,,,,,,,,,,
,,,,,,,,,,,,612aad990e951a20d5ba78a2,46,Mężczyzna,2022-06-11_09h28.46.201,task,2021.1.4,Win32,144.092219,6299f149e92ead563fba08ef,62a44420f8fcec8684542a3b,,,,,,,,,,,,,4,"[""4""]",1,[3.4769999999999754],"[6.326999999999998,4.324999999999989,5.097000000000037,3.4769999999999754]",0,3,3,4,1,Practice,5,(2x6) - 8,4,,,,,,,,,,,,,,,,,,,,,,,,,,,,,,,,,,,,,,,,,,,,,,,,,,,,,,,,,,,,,,,,,,,,,,,,,,,
,,,,,,,,,,,,612aad990e951a20d5ba78a2,46,Mężczyzna,2022-06-11_09h28.46.201,task,2021.1.4,Win32,144.092219,6299f149e92ead563fba08ef,62a44420f8fcec8684542a3b,,,,,,,,,,,,,9,"[""9""]",1,[3.593999999999994],"[6.326999999999998,4.324999999999989,5.097000000000037,3.4769999999999754,3.593999999999994]",0,4,4,9,1,Practice,10,(20/2) - 1,9,,,,,,,,,,,,,,,,,,,,,,,,,,,,,,,,,,,,,,,,,,,,,,,,,,,,,,,,,,,,,,,,,,,,,,,,,,,
,,,,,,,,,,,,612aad990e951a20d5ba78a2,46,Mężczyzna,2022-06-11_09h28.46.201,task,2021.1.4,Win32,144.092219,6299f149e92ead563fba08ef,62a44420f8fcec8684542a3b,,,,,,,,,,,,,5,"[""5""]",1,[4.043000000000006],"[6.326999999999998,4.324999999999989,5.097000000000037,3.4769999999999754,3.593999999999994,4.043000000000006]",0,5,5,5,1,Practice,6,(4/2) + 3,5,,,,,,,,,,,,,,,,,,,,,,,,,,,,,,,,,,,,,,,,,,,,,,,,,,,,,,,,,,,,,,,,,,,,,,,,,,,
,,,,,,,,,,,,612aad990e951a20d5ba78a2,46,Mężczyzna,2022-06-11_09h28.46.201,task,2021.1.4,Win32,144.092219,6299f149e92ead563fba08ef,62a44420f8fcec8684542a3b,,,,,,,,,,,,,1,"[""1""]",1,[3.555000000000007],"[6.326999999999998,4.324999999999989,5.097000000000037,3.4769999999999754,3.593999999999994,4.043000000000006,3.555000000000007]",0,6,6,1,1,Practice,2,(4x4) - 15,1,,,,,,,,,,,,,,,,,,,,,,,,,,,,,,,,,,,,,,,,,,,,,,,,,,,,,,,,,,,,,,,,,,,,,,,,,,,
,,,,,,,,,,,,612aad990e951a20d5ba78a2,46,Mężczyzna,2022-06-11_09h28.46.201,task,2021.1.4,Win32,144.092219,6299f149e92ead563fba08ef,62a44420f8fcec8684542a3b,,,,,,,,,,,,,6,"[""6""]",1,[4.4220000000000255],"[6.326999999999998,4.324999999999989,5.097000000000037,3.4769999999999754,3.593999999999994,4.043000000000006,3.555000000000007,4.4220000000000255]",0,7,7,6,1,Practice,7,(25/5) + 1,6,,,,,,,,,,,,,,,,,,,,,,,,,,,,,,,,,,,,,,,,,,,,,,,,,,,,,,,,,,,,,,,,,,,,,,,,,,,
,,,,,,,,,,,,612aad990e951a20d5ba78a2,46,Mężczyzna,2022-06-11_09h28.46.201,task,2021.1.4,Win32,144.092219,6299f149e92ead563fba08ef,62a44420f8fcec8684542a3b,,,,,,,,,,,,,0,"[""0""]",1,[2.966000000000008],"[6.326999999999998,4.324999999999989,5.097000000000037,3.4769999999999754,3.593999999999994,4.043000000000006,3.555000000000007,4.4220000000000255,2.966000000000008]",0,8,8,0,1,Practice,1,(3x3) -  9,0,,,,,,,,,,,,,,,,,,,,,,,,,,,,,,,,,,,,,,,,,,,,,,,,,,,,,,,,,,,,,,,,,,,,,,,,,,,
,,,,,,,,,,,,612aad990e951a20d5ba78a2,46,Mężczyzna,2022-06-11_09h28.46.201,task,2021.1.4,Win32,144.092219,6299f149e92ead563fba08ef,62a44420f8fcec8684542a3b,,,,,,,,,,,,,8,"[""8""]",1,[2.7889999999999873],"[6.326999999999998,4.324999999999989,5.097000000000037,3.4769999999999754,3.593999999999994,4.043000000000006,3.555000000000007,4.4220000000000255,2.966000000000008,2.7889999999999873]",0,9,9,8,1,Practice,9,(3x3) - 1,8,,,,,,,,,,,,,,,,,,,,,,,,,,,,,,,,,,,,,,,,,,,,,,,,,,,,,,,,,,,,,,,,,,,,,,,,,,,
,,,,,,,,,,,,612aad990e951a20d5ba78a2,46,Mężczyzna,2022-06-11_09h28.46.201,task,2021.1.4,Win32,144.092219,6299f149e92ead563fba08ef,62a44420f8fcec8684542a3b,,,,,,,,,,,,,,,,,,,,,,,,,,,1,40.595,2.706333333,28.35116078,1.374800853,6.253319534,space,2.891,0,0,0,0,1,,,,,,,,,,,,,,,,,,,,,,,,,,,,,,,,,,,,,,,,,,,,,,,,,,,,,,,,,,,,,,
,,,,,,,,,,,,612aad990e951a20d5ba78a2,46,Mężczyzna,2022-06-11_09h28.46.201,task,2021.1.4,Win32,144.092219,6299f149e92ead563fba08ef,62a44420f8fcec8684542a3b,,,,,,,,,,,,,8,,,,,,,,,,Practice,9,(3x3) - 1,8,,,,,,,,,,,,,,space,18.48,"[""8""]",1,[4.822000000000003],1,0,0,0,8,1,,,,,,,,,,,,,,,,,,,,,,,,,,,,,,,,,,,,,,,,,,,,,,,,,,,
,,,,,,,,,,,X V Q F H G B L J M P D K C T S W R N Z,612aad990e951a20d5ba78a2,46,Mężczyzna,2022-06-11_09h28.46.201,task,2021.1.4,Win32,144.092219,6299f149e92ead563fba08ef,62a44420f8fcec8684542a3b,,,,,,,,,,,,,,,,,,,,,,,,,,,,,,,,,,,,,,,,,,,,,,,,,,,0,0,0,0,1,,,,,,,,,,,,,,,,,,,,,,,,,,,,,,,,,,,,,,,,,,,,,,
,,,,,,,,,,,,612aad990e951a20d5ba78a2,46,Mężczyzna,2022-06-11_09h28.46.201,task,2021.1.4,Win32,144.092219,6299f149e92ead563fba08ef,62a44420f8fcec8684542a3b,,,,,,,,,,,,,8,,,,,,,,,,Practice,9,(3x3) - 1,8,,,,,,,,,,,,,,,,"[""8""]",1,[4.058999999999969],1,0,0,0,8,1,,,,,,,,,,,,,,,,,,,,,,,,,,,,,,,,,,,,,,,,,,,,,,,,,,,
,,,,,,,,,,,X V Q F H G B L J M P D K C T S W R N Z,612aad990e951a20d5ba78a2,46,Mężczyzna,2022-06-11_09h28.46.201,task,2021.1.4,Win32,144.092219,6299f149e92ead563fba08ef,62a44420f8fcec8684542a3b,,,,,,,,,,,,,,,,,,,,,,,,,,,,,,,,,,,,,,,,,,,,,,,,,,,1,0,1,0,1,,,,,,,,,,,,,,,,,,,,,,,,,,,,,,,,,,,,,,,,,,,,,,
,,,,,,,,,,,,612aad990e951a20d5ba78a2,46,Mężczyzna,2022-06-11_09h28.46.201,task,2021.1.4,Win32,144.092219,6299f149e92ead563fba08ef,62a44420f8fcec8684542a3b,,,,,,,,,,,,,,,,,,,,,,,,,,,,,,,,,,,,,,,,,,,,,,,,,,,,,,,,zn,"[""z"",""n""]",0,"[2.673999999999978,3.085999999999956,4.550999999999988]",1,0,0,0,0,1,,,,,,,,,,,,,,,,,,,,,,,,,,,,,,,,,,,,
,,,,,,,,,,,,612aad990e951a20d5ba78a2,46,Mężczyzna,2022-06-11_09h28.46.201,task,2021.1.4,Win32,144.092219,6299f149e92ead563fba08ef,62a44420f8fcec8684542a3b,,,,,,,,,,,,,8,,,,,,,,,,Practice,9,(3x3) - 1,8,,,,,,,,,,,,,,,,"[""8""]",1,[4.82000000000005],1,0,0,0,8,1,,,,,,,,,,,,,,,,,,,,,,,,,,,,,,,,,,,,,,,,,,,,,,,,,,,
,,,,,,,,,,,X V Q F H G B L J M P D K C T S W R N Z,612aad990e951a20d5ba78a2,46,Mężczyzna,2022-06-11_09h28.46.201,task,2021.1.4,Win32,144.092219,6299f149e92ead563fba08ef,62a44420f8fcec8684542a3b,,,,,,,,,,,,,,,,,,,,,,,,,,,,,,,,,,,,,,,,,,,,,,,,,,,0,0,0,0,1,,,,,,,,,,,,,,,,,,,,,,,,,,,,,,,,,,,,,,,,,,,,,,
,,,,,,,,,,,,612aad990e951a20d5ba78a2,46,Mężczyzna,2022-06-11_09h28.46.201,task,2021.1.4,Win32,144.092219,6299f149e92ead563fba08ef,62a44420f8fcec8684542a3b,,,,,,,,,,,,,9,,,,,,,,,,Practice,10,(20/2) - 1,9,,,,,,,,,,,,,,,,"[""9""]",1,[4.101999999999975],1,0,0,0,9,1,,,,,,,,,,,,,,,,,,,,,,,,,,,,,,,,,,,,,,,,,,,,,,,,,,,
,,,,,,,,,,,X V Q F H G B L J M P D K C T S W R N Z,612aad990e951a20d5ba78a2,46,Mężczyzna,2022-06-11_09h28.46.201,task,2021.1.4,Win32,144.092219,6299f149e92ead563fba08ef,62a44420f8fcec8684542a3b,,,,,,,,,,,,,,,,,,,,,,,,,,,,,,,,,,,,,,,,,,,,,,,,,,,1,0,1,0,1,,,,,,,,,,,,,,,,,,,,,,,,,,,,,,,,,,,,,,,,,,,,,,
,,,,,,,,,,,,612aad990e951a20d5ba78a2,46,Mężczyzna,2022-06-11_09h28.46.201,task,2021.1.4,Win32,144.092219,6299f149e92ead563fba08ef,62a44420f8fcec8684542a3b,,,,,,,,,,,,,,,,,,,,,,,,,,,,,,,,,,,,,,,,,,,,,,,,,,,,,,,,nv,"[""n"",""v""]",0,"[2.7169999999999845,3.579999999999984,4.603000000000009]",1,1,0,1,0,1,,,,,,,,,,,,,,,,,,,,,,,,,,,,,,,,,,,,
,,,,,,,,,,,,612aad990e951a20d5ba78a2,46,Mężczyzna,2022-06-11_09h28.46.201,task,2021.1.4,Win32,144.092219,6299f149e92ead563fba08ef,62a44420f8fcec8684542a3b,,,,,,,,,,,,,3,,,,,,,,,,Practice,4,(8/4) + 1,3,,,,,,,,,,,,,,,,"[""3""]",1,[3.2719999999999914],1,0,0,0,3,1,,,,,,,,,,,,,,,,,,,,,,,,,,,,,,,,,,,,,,,,,,,,,,,,,,,
,,,,,,,,,,,X V Q F H G B L J M P D K C T S W R N Z,612aad990e951a20d5ba78a2,46,Mężczyzna,2022-06-11_09h28.46.201,task,2021.1.4,Win32,144.092219,6299f149e92ead563fba08ef,62a44420f8fcec8684542a3b,,,,,,,,,,,,,,,,,,,,,,,,,,,,,,,,,,,,,,,,,,,,,,,,,,,0,0,0,0,1,,,,,,,,,,,,,,,,,,,,,,,,,,,,,,,,,,,,,,,,,,,,,,
,,,,,,,,,,,,612aad990e951a20d5ba78a2,46,Mężczyzna,2022-06-11_09h28.46.201,task,2021.1.4,Win32,144.092219,6299f149e92ead563fba08ef,62a44420f8fcec8684542a3b,,,,,,,,,,,,,2,,,,,,,,,,Practice,3,(4x4) - 14,2,,,,,,,,,,,,,,,,"[""2""]",1,[2.565999999999974],1,0,0,0,2,1,,,,,,,,,,,,,,,,,,,,,,,,,,,,,,,,,,,,,,,,,,,,,,,,,,,
,,,,,,,,,,,X V Q F H G B L J M P D K C T S W R N Z,612aad990e951a20d5ba78a2,46,Mężczyzna,2022-06-11_09h28.46.201,task,2021.1.4,Win32,144.092219,6299f149e92ead563fba08ef,62a44420f8fcec8684542a3b,,,,,,,,,,,,,,,,,,,,,,,,,,,,,,,,,,,,,,,,,,,,,,,,,,,1,0,1,0,1,,,,,,,,,,,,,,,,,,,,,,,,,,,,,,,,,,,,,,,,,,,,,,
,,,,,,,,,,,,612aad990e951a20d5ba78a2,46,Mężczyzna,2022-06-11_09h28.46.201,task,2021.1.4,Win32,144.092219,6299f149e92ead563fba08ef,62a44420f8fcec8684542a3b,,,,,,,,,,,,,,,,,,,,,,,,,,,,,,,,,,,,,,,,,,,,,,,,,,,,,,,,vr,"[""v"",""r""]",0,"[2.737000000000023,4.021999999999991,5.233000000000004]",1,2,0,2,0,1,,,,,,,,,,,,,,,,,,,,,,,,,,,,,,,,,,,,
,,,,,,,,,,,,612aad990e951a20d5ba78a2,46,Mężczyzna,2022-06-11_09h28.46.201,task,2021.1.4,Win32,144.092219,6299f149e92ead563fba08ef,62a44420f8fcec8684542a3b,,,,,,,,,,,,,6,,,,,,,,,,Task,13,(3x4) - 6,6,,,,,,,,,,,,,,,,,,,1,,,,,,,,,,,,,,,,,,,,,space,12.598,"[""6""]",1,[5.828000000000031],0,0,0,12,1,,,,,,,,,,,,,,,,,,,,,,,,,,
,,,,,,,,,,,X V Q F H G B L J M P D K C T S W R N Z,612aad990e951a20d5ba78a2,46,Mężczyzna,2022-06-11_09h28.46.201,task,2021.1.4,Win32,144.092219,6299f149e92ead563fba08ef,62a44420f8fcec8684542a3b,,,,,,,,,,,,,,,,,,,,,,,,,,,,,,,,,,,,,,,,,,,,,,,,,,,,,,,,,,,,,,,,,,,,,,,,,,,,0,0,0,0,1,,,,,,,,,,,,,,,,,,,,,
,,,,,,,,,,,,612aad990e951a20d5ba78a2,46,Mężczyzna,2022-06-11_09h28.46.201,task,2021.1.4,Win32,144.092219,6299f149e92ead563fba08ef,62a44420f8fcec8684542a3b,,,,,,,,,,,,,6,,,,,,,,,,Task,30,(6/3) + 4 ,6,,,,,,,,,,,,,,,,,,,1,,,,,,,,,,,,,,,,,,,,,,,"[""6""]",1,[2.907000000000039],0,0,0,29,1,,,,,,,,,,,,,,,,,,,,,,,,,,
,,,,,,,,,,,X V Q F H G B L J M P D K C T S W R N Z,612aad990e951a20d5ba78a2,46,Mężczyzna,2022-06-11_09h28.46.201,task,2021.1.4,Win32,144.092219,6299f149e92ead563fba08ef,62a44420f8fcec8684542a3b,,,,,,,,,,,,,,,,,,,,,,,,,,,,,,,,,,,,,,,,,,,,,,,,,,,,,,,,,,,,,,,,,,,,,,,,,,,,1,0,1,0,1,,,,,,,,,,,,,,,,,,,,,
,,,,,,,,,,,,612aad990e951a20d5ba78a2,46,Mężczyzna,2022-06-11_09h28.46.201,task,2021.1.4,Win32,144.092219,6299f149e92ead563fba08ef,62a44420f8fcec8684542a3b,,,,,,,,,,,,,,,,,,,,,,,,,,,,,,,,,,,,,,,,,,,,,,,,,,,,,,,,,,,,,,,,,,,,,,,,,,,,,,,,,zb,"[""z"",""b""]",0,"[1.849999999999966,2.194999999999993,3.1429999999999723]",1,ZB,0,0,0,0,1,,,,,,,,,,
,,,,,,,,,,,,612aad990e951a20d5ba78a2,46,Mężczyzna,2022-06-11_09h28.46.201,task,2021.1.4,Win32,144.092219,6299f149e92ead563fba08ef,62a44420f8fcec8684542a3b,,,,,,,,,,,,,5,,,,,,,,,,Task,1,(12/6) - 1,1,,,,,,,,,,,,,,,,,,,0,,,,,,,,,,,,,,,,,,,,,,,"[""5""]",0,[3.245999999999981],0,0,0,0,1,,,,,,,,,,,,,,,,,,,,,,,,,,
,,,,,,,,,,,,612aad990e951a20d5ba78a2,46,Mężczyzna,2022-06-11_09h28.46.201,task,2021.1.4,Win32,144.092219,6299f149e92ead563fba08ef,62a44420f8fcec8684542a3b,,,,,,,,,,,,,,,,,,,,,,,Task,7,(3x7) - 12,9,,,,,,,,,,,,,,,,,,,0,,,,,,,,,,,,,,,,,,,,,,,,0,,0,1,1,6,1,,,,,,,,,,,,,,,,,,,,,,,,,,
,,,,,,,,,,,,612aad990e951a20d5ba78a2,46,Mężczyzna,2022-06-11_09h28.46.201,task,2021.1.4,Win32,144.092219,6299f149e92ead563fba08ef,62a44420f8fcec8684542a3b,,,,,,,,,,,,,8,,,,,,,,,,Task,32,(8/2) + 4,8,,,,,,,,,,,,,,,,,,,1,,,,,,,,,,,,,,,,,,,,,,,"[""8""]",1,[2.1759999999999877],0,2,2,31,1,,,,,,,,,,,,,,,,,,,,,,,,,,
,,,,,,,,,,,X V Q F H G B L J M P D K C T S W R N Z,612aad990e951a20d5ba78a2,46,Mężczyzna,2022-06-11_09h28.46.201,task,2021.1.4,Win32,144.092219,6299f149e92ead563fba08ef,62a44420f8fcec8684542a3b,,,,,,,,,,,,,,,,,,,,,,,,,,,,,,,,,,,,,,,,,,,,,,,,,,,,,,,,,,,,,,,,,,,,,,,,,,,,0,0,0,0,1,,,,,,,,,,,,,,,,,,,,,
,,,,,,,,,,,,612aad990e951a20d5ba78a2,46,Mężczyzna,2022-06-11_09h28.46.201,task,2021.1.4,Win32,144.092219,6299f149e92ead563fba08ef,62a44420f8fcec8684542a3b,,,,,,,,,,,,,7,,,,,,,,,,Task,31,(4/2) + 5,7,,,,,,,,,,,,,,,,,,,1,,,,,,,,,,,,,,,,,,,,,,,"[""7""]",1,[2.1229999999999905],0,0,0,30,1,,,,,,,,,,,,,,,,,,,,,,,,,,
,,,,,,,,,,,X V Q F H G B L J M P D K C T S W R N Z,612aad990e951a20d5ba78a2,46,Mężczyzna,2022-06-11_09h28.46.201,task,2021.1.4,Win32,144.092219,6299f149e92ead563fba08ef,62a44420f8fcec8684542a3b,,,,,,,,,,,,,,,,,,,,,,,,,,,,,,,,,,,,,,,,,,,,,,,,,,,,,,,,,,,,,,,,,,,,,,,,,,,,1,0,1,0,1,,,,,,,,,,,,,,,,,,,,,
,,,,,,,,,,,,612aad990e951a20d5ba78a2,46,Mężczyzna,2022-06-11_09h28.46.201,task,2021.1.4,Win32,144.092219,6299f149e92ead563fba08ef,62a44420f8fcec8684542a3b,,,,,,,,,,,,,8,,,,,,,,,,Task,15,(3x7) - 13,8,,,,,,,,,,,,,,,,,,,1,,,,,,,,,,,,,,,,,,,,,,,"[""8""]",1,[4.199000000000012],0,0,0,14,1,,,,,,,,,,,,,,,,,,,,,,,,,,
,,,,,,,,,,,X V Q F H G B L J M P D K C T S W R N Z,612aad990e951a20d5ba78a2,46,Mężczyzna,2022-06-11_09h28.46.201,task,2021.1.4,Win32,144.092219,6299f149e92ead563fba08ef,62a44420f8fcec8684542a3b,,,,,,,,,,,,,,,,,,,,,,,,,,,,,,,,,,,,,,,,,,,,,,,,,,,,,,,,,,,,,,,,,,,,,,,,,,,,2,0,2,0,1,,,,,,,,,,,,,,,,,,,,,
,,,,,,,,,,,,612aad990e951a20d5ba78a2,46,Mężczyzna,2022-06-11_09h28.46.201,task,2021.1.4,Win32,144.092219,6299f149e92ead563fba08ef,62a44420f8fcec8684542a3b,,,,,,,,,,,,,,,,,,,,,,,,,,,,,,,,,,,,,,,,,,,,,,,,,,,,,,,,,,,,,,,,,,,,,,,,,,,,,,,,,sgw,"[""s"",""g"",""w""]",0,"[3.3659999999999854,3.6860000000000355,4.343999999999994,5.283999999999992]",1,SGW,1,0,1,0,1,,,,,,,,,,
,,,,,,,,,,,,612aad990e951a20d5ba78a2,46,Mężczyzna,2022-06-11_09h28.46.201,task,2021.1.4,Win32,144.092219,6299f149e92ead563fba08ef,62a44420f8fcec8684542a3b,,,,,,,,,,,,,4,,,,,,,,,,Task,4,(1x5) - 1,4,,,,,,,,,,,,,,,,,,,1,,,,,,,,,,,,,,,,,,,,,,,"[""4""]",1,[2.372000000000014],0,0,0,3,1,,,,,,,,,,,,,,,,,,,,,,,,,,
,,,,,,,,,,,X V Q F H G B L J M P D K C T S W R N Z,612aad990e951a20d5ba78a2,46,Mężczyzna,2022-06-11_09h28.46.201,task,2021.1.4,Win32,144.092219,6299f149e92ead563fba08ef,62a44420f8fcec8684542a3b,,,,,,,,,,,,,,,,,,,,,,,,,,,,,,,,,,,,,,,,,,,,,,,,,,,,,,,,,,,,,,,,,,,,,,,,,,,,0,0,0,0,1,,,,,,,,,,,,,,,,,,,,,
,,,,,,,,,,,,612aad990e951a20d5ba78a2,46,Mężczyzna,2022-06-11_09h28.46.201,task,2021.1.4,Win32,144.092219,6299f149e92ead563fba08ef,62a44420f8fcec8684542a3b,,,,,,,,,,,,,1,,,,,,,,,,Task,18,(16/4) - 3,1,,,,,,,,,,,,,,,,,,,1,,,,,,,,,,,,,,,,,,,,,,,"[""1""]",1,[2.6989999999999554],0,0,0,17,1,,,,,,,,,,,,,,,,,,,,,,,,,,
,,,,,,,,,,,X V Q F H G B L J M P D K C T S W R N Z,612aad990e951a20d5ba78a2,46,Mężczyzna,2022-06-11_09h28.46.201,task,2021.1.4,Win32,144.092219,6299f149e92ead563fba08ef,62a44420f8fcec8684542a3b,,,,,,,,,,,,,,,,,,,,,,,,,,,,,,,,,,,,,,,,,,,,,,,,,,,,,,,,,,,,,,,,,,,,,,,,,,,,1,0,1,0,1,,,,,,,,,,,,,,,,,,,,,
,,,,,,,,,,,,612aad990e951a20d5ba78a2,46,Mężczyzna,2022-06-11_09h28.46.201,task,2021.1.4,Win32,144.092219,6299f149e92ead563fba08ef,62a44420f8fcec8684542a3b,,,,,,,,,,,,,9,,,,,,,,,,Task,40,(7x2) - 5,9,,,,,,,,,,,,,,,,,,,1,,,,,,,,,,,,,,,,,,,,,,,"[""9""]",1,[3.3409999999998945],0,0,0,39,1,,,,,,,,,,,,,,,,,,,,,,,,,,
,,,,,,,,,,,X V Q F H G B L J M P D K C T S W R N Z,612aad990e951a20d5ba78a2,46,Mężczyzna,2022-06-11_09h28.46.201,task,2021.1.4,Win32,144.092219,6299f149e92ead563fba08ef,62a44420f8fcec8684542a3b,,,,,,,,,,,,,,,,,,,,,,,,,,,,,,,,,,,,,,,,,,,,,,,,,,,,,,,,,,,,,,,,,,,,,,,,,,,,2,0,2,0,1,,,,,,,,,,,,,,,,,,,,,
,,,,,,,,,,,,612aad990e951a20d5ba78a2,46,Mężczyzna,2022-06-11_09h28.46.201,task,2021.1.4,Win32,144.092219,6299f149e92ead563fba08ef,62a44420f8fcec8684542a3b,,,,,,,,,,,,,6,,,,,,,,,,Task,13,(3x4) - 6,6,,,,,,,,,,,,,,,,,,,1,,,,,,,,,,,,,,,,,,,,,,,"[""6""]",1,[2.27800000000002],0,0,0,12,1,,,,,,,,,,,,,,,,,,,,,,,,,,
,,,,,,,,,,,X V Q F H G B L J M P D K C T S W R N Z,612aad990e951a20d5ba78a2,46,Mężczyzna,2022-06-11_09h28.46.201,task,2021.1.4,Win32,144.092219,6299f149e92ead563fba08ef,62a44420f8fcec8684542a3b,,,,,,,,,,,,,,,,,,,,,,,,,,,,,,,,,,,,,,,,,,,,,,,,,,,,,,,,,,,,,,,,,,,,,,,,,,,,3,0,3,0,1,,,,,,,,,,,,,,,,,,,,,
,,,,,,,,,,,,612aad990e951a20d5ba78a2,46,Mężczyzna,2022-06-11_09h28.46.201,task,2021.1.4,Win32,144.092219,6299f149e92ead563fba08ef,62a44420f8fcec8684542a3b,,,,,,,,,,,,,,,,,,,,,,,,,,,,,,,,,,,,,,,,,,,,,,,,,,,,,,,,,,,,,,,,,,,,,,,,,,,,,,,,,xdhk,"[""x"",""d"",""h"",""k""]",0,"[3.7789999999999964,4.585000000000036,5.826999999999998,6.552000000000021,7.902000000000044]",1,XDHK,2,0,2,0,1,,,,,,,,,,
,,,,,,,,,,,,612aad990e951a20d5ba78a2,46,Mężczyzna,2022-06-11_09h28.46.201,task,2021.1.4,Win32,144.092219,6299f149e92ead563fba08ef,62a44420f8fcec8684542a3b,,,,,,,,,,,,,9,,,,,,,,,,Task,7,(3x7) - 12,9,,,,,,,,,,,,,,,,,,,1,,,,,,,,,,,,,,,,,,,,,,,"[""9""]",1,[2.1549999999999727],0,0,0,6,1,,,,,,,,,,,,,,,,,,,,,,,,,,
,,,,,,,,,,,X V Q F H G B L J M P D K C T S W R N Z,612aad990e951a20d5ba78a2,46,Mężczyzna,2022-06-11_09h28.46.201,task,2021.1.4,Win32,144.092219,6299f149e92ead563fba08ef,62a44420f8fcec8684542a3b,,,,,,,,,,,,,,,,,,,,,,,,,,,,,,,,,,,,,,,,,,,,,,,,,,,,,,,,,,,,,,,,,,,,,,,,,,,,0,0,0,0,1,,,,,,,,,,,,,,,,,,,,,
,,,,,,,,,,,,612aad990e951a20d5ba78a2,46,Mężczyzna,2022-06-11_09h28.46.201,task,2021.1.4,Win32,144.092219,6299f149e92ead563fba08ef,62a44420f8fcec8684542a3b,,,,,,,,,,,,,6,,,,,,,,,,Task,37,(3/3) + 5,6,,,,,,,,,,,,,,,,,,,1,,,,,,,,,,,,,,,,,,,,,,,"[""6""]",1,[2.4890000000000327],0,0,0,36,1,,,,,,,,,,,,,,,,,,,,,,,,,,
,,,,,,,,,,,X V Q F H G B L J M P D K C T S W R N Z,612aad990e951a20d5ba78a2,46,Mężczyzna,2022-06-11_09h28.46.201,task,2021.1.4,Win32,144.092219,6299f149e92ead563fba08ef,62a44420f8fcec8684542a3b,,,,,,,,,,,,,,,,,,,,,,,,,,,,,,,,,,,,,,,,,,,,,,,,,,,,,,,,,,,,,,,,,,,,,,,,,,,,1,0,1,0,1,,,,,,,,,,,,,,,,,,,,,
,,,,,,,,,,,,612aad990e951a20d5ba78a2,46,Mężczyzna,2022-06-11_09h28.46.201,task,2021.1.4,Win32,144.092219,6299f149e92ead563fba08ef,62a44420f8fcec8684542a3b,,,,,,,,,,,,,8,,,,,,,,,,Task,15,(3x7) - 13,8,,,,,,,,,,,,,,,,,,,1,,,,,,,,,,,,,,,,,,,,,,,"[""8""]",1,[3.33299999999997],0,0,0,14,1,,,,,,,,,,,,,,,,,,,,,,,,,,
,,,,,,,,,,,X V Q F H G B L J M P D K C T S W R N Z,612aad990e951a20d5ba78a2,46,Mężczyzna,2022-06-11_09h28.46.201,task,2021.1.4,Win32,144.092219,6299f149e92ead563fba08ef,62a44420f8fcec8684542a3b,,,,,,,,,,,,,,,,,,,,,,,,,,,,,,,,,,,,,,,,,,,,,,,,,,,,,,,,,,,,,,,,,,,,,,,,,,,,2,0,2,0,1,,,,,,,,,,,,,,,,,,,,,
,,,,,,,,,,,,612aad990e951a20d5ba78a2,46,Mężczyzna,2022-06-11_09h28.46.201,task,2021.1.4,Win32,144.092219,6299f149e92ead563fba08ef,62a44420f8fcec8684542a3b,,,,,,,,,,,,,5,,,,,,,,,,Task,29,(3x8) - 19 ,5,,,,,,,,,,,,,,,,,,,1,,,,,,,,,,,,,,,,,,,,,,,"[""5""]",1,[3.0249999999999773],0,0,0,28,1,,,,,,,,,,,,,,,,,,,,,,,,,,
,,,,,,,,,,,X V Q F H G B L J M P D K C T S W R N Z,612aad990e951a20d5ba78a2,46,Mężczyzna,2022-06-11_09h28.46.201,task,2021.1.4,Win32,144.092219,6299f149e92ead563fba08ef,62a44420f8fcec8684542a3b,,,,,,,,,,,,,,,,,,,,,,,,,,,,,,,,,,,,,,,,,,,,,,,,,,,,,,,,,,,,,,,,,,,,,,,,,,,,3,0,3,0,1,,,,,,,,,,,,,,,,,,,,,
,,,,,,,,,,,,612aad990e951a20d5ba78a2,46,Mężczyzna,2022-06-11_09h28.46.201,task,2021.1.4,Win32,144.092219,6299f149e92ead563fba08ef,62a44420f8fcec8684542a3b,,,,,,,,,,,,,2,,,,,,,,,,Task,2,(2x2) - 2,2,,,,,,,,,,,,,,,,,,,1,,,,,,,,,,,,,,,,,,,,,,,"[""2""]",1,[2.1940000000000737],0,0,0,1,1,,,,,,,,,,,,,,,,,,,,,,,,,,
,,,,,,,,,,,X V Q F H G B L J M P D K C T S W R N Z,612aad990e951a20d5ba78a2,46,Mężczyzna,2022-06-11_09h28.46.201,task,2021.1.4,Win32,144.092219,6299f149e92ead563fba08ef,62a44420f8fcec8684542a3b,,,,,,,,,,,,,,,,,,,,,,,,,,,,,,,,,,,,,,,,,,,,,,,,,,,,,,,,,,,,,,,,,,,,,,,,,,,,4,0,4,0,1,,,,,,,,,,,,,,,,,,,,,
,,,,,,,,,,,,612aad990e951a20d5ba78a2,46,Mężczyzna,2022-06-11_09h28.46.201,task,2021.1.4,Win32,144.092219,6299f149e92ead563fba08ef,62a44420f8fcec8684542a3b,,,,,,,,,,,,,,,,,,,,,,,,,,,,,,,,,,,,,,,,,,,,,,,,,,,,,,,,,,,,,,,,,,,,,,,,,,,,,,,,,xcxnz,"[""x"",""c"",""x"",""n"",""z""]",0,"[2.580000000000041,2.8920000000000528,7.02800000000002,8.88900000000001,9.572999999999979,10.895999999999958]",0,XCXVZ,3,0,3,0,1,,,,,,,,,,
,,,,,,,,,,,,612aad990e951a20d5ba78a2,46,Mężczyzna,2022-06-11_09h28.46.201,task,2021.1.4,Win32,144.092219,6299f149e92ead563fba08ef,62a44420f8fcec8684542a3b,,,,,,,,,,,,,0,,,,,,,,,,Task,25,(10/5) - 2,0,,,,,,,,,,,,,,,,,,,1,,,,,,,,,,,,,,,,,,,,,,,"[""0""]",1,[2.4429999999999836],0,0,0,24,1,,,,,,,,,,,,,,,,,,,,,,,,,,
,,,,,,,,,,,X V Q F H G B L J M P D K C T S W R N Z,612aad990e951a20d5ba78a2,46,Mężczyzna,2022-06-11_09h28.46.201,task,2021.1.4,Win32,144.092219,6299f149e92ead563fba08ef,62a44420f8fcec8684542a3b,,,,,,,,,,,,,,,,,,,,,,,,,,,,,,,,,,,,,,,,,,,,,,,,,,,,,,,,,,,,,,,,,,,,,,,,,,,,0,0,0,0,1,,,,,,,,,,,,,,,,,,,,,
,,,,,,,,,,,,612aad990e951a20d5ba78a2,46,Mężczyzna,2022-06-11_09h28.46.201,task,2021.1.4,Win32,144.092219,6299f149e92ead563fba08ef,62a44420f8fcec8684542a3b,,,,,,,,,,,,,9,,,,,,,,,,Task,40,(7x2) - 5,9,,,,,,,,,,,,,,,,,,,1,,,,,,,,,,,,,,,,,,,,,,,"[""9""]",1,[2.5230000000000246],0,0,0,39,1,,,,,,,,,,,,,,,,,,,,,,,,,,
,,,,,,,,,,,X V Q F H G B L J M P D K C T S W R N Z,612aad990e951a20d5ba78a2,46,Mężczyzna,2022-06-11_09h28.46.201,task,2021.1.4,Win32,144.092219,6299f149e92ead563fba08ef,62a44420f8fcec8684542a3b,,,,,,,,,,,,,,,,,,,,,,,,,,,,,,,,,,,,,,,,,,,,,,,,,,,,,,,,,,,,,,,,,,,,,,,,,,,,1,0,1,0,1,,,,,,,,,,,,,,,,,,,,,
,,,,,,,,,,,,612aad990e951a20d5ba78a2,46,Mężczyzna,2022-06-11_09h28.46.201,task,2021.1.4,Win32,144.092219,6299f149e92ead563fba08ef,62a44420f8fcec8684542a3b,,,,,,,,,,,,,6,,,,,,,,,,Task,30,(6/3) + 4 ,6,,,,,,,,,,,,,,,,,,,1,,,,,,,,,,,,,,,,,,,,,,,"[""6""]",1,[1.8129999999999882],0,0,0,29,1,,,,,,,,,,,,,,,,,,,,,,,,,,
,,,,,,,,,,,X V Q F H G B L J M P D K C T S W R N Z,612aad990e951a20d5ba78a2,46,Mężczyzna,2022-06-11_09h28.46.201,task,2021.1.4,Win32,144.092219,6299f149e92ead563fba08ef,62a44420f8fcec8684542a3b,,,,,,,,,,,,,,,,,,,,,,,,,,,,,,,,,,,,,,,,,,,,,,,,,,,,,,,,,,,,,,,,,,,,,,,,,,,,2,0,2,0,1,,,,,,,,,,,,,,,,,,,,,
,,,,,,,,,,,,612aad990e951a20d5ba78a2,46,Mężczyzna,2022-06-11_09h28.46.201,task,2021.1.4,Win32,144.092219,6299f149e92ead563fba08ef,62a44420f8fcec8684542a3b,,,,,,,,,,,,,5,,,,,,,,,,Task,22,(3x1) + 2,5,,,,,,,,,,,,,,,,,,,1,,,,,,,,,,,,,,,,,,,,,,,"[""5""]",1,[1.7830000000000155],0,0,0,21,1,,,,,,,,,,,,,,,,,,,,,,,,,,
,,,,,,,,,,,X V Q F H G B L J M P D K C T S W R N Z,612aad990e951a20d5ba78a2,46,Mężczyzna,2022-06-11_09h28.46.201,task,2021.1.4,Win32,144.092219,6299f149e92ead563fba08ef,62a44420f8fcec8684542a3b,,,,,,,,,,,,,,,,,,,,,,,,,,,,,,,,,,,,,,,,,,,,,,,,,,,,,,,,,,,,,,,,,,,,,,,,,,,,3,0,3,0,1,,,,,,,,,,,,,,,,,,,,,
,,,,,,,,,,,,612aad990e951a20d5ba78a2,46,Mężczyzna,2022-06-11_09h28.46.201,task,2021.1.4,Win32,144.092219,6299f149e92ead563fba08ef,62a44420f8fcec8684542a3b,,,,,,,,,,,,,2,,,,,,,,,,Task,26,(2x9) - 16,2,,,,,,,,,,,,,,,,,,,1,,,,,,,,,,,,,,,,,,,,,,,"[""2""]",1,[2.106999999999971],0,0,0,25,1,,,,,,,,,,,,,,,,,,,,,,,,,,
,,,,,,,,,,,X V Q F H G B L J M P D K C T S W R N Z,612aad990e951a20d5ba78a2,46,Mężczyzna,2022-06-11_09h28.46.201,task,2021.1.4,Win32,144.092219,6299f149e92ead563fba08ef,62a44420f8fcec8684542a3b,,,,,,,,,,,,,,,,,,,,,,,,,,,,,,,,,,,,,,,,,,,,,,,,,,,,,,,,,,,,,,,,,,,,,,,,,,,,4,0,4,0,1,,,,,,,,,,,,,,,,,,,,,
,,,,,,,,,,,,612aad990e951a20d5ba78a2,46,Mężczyzna,2022-06-11_09h28.46.201,task,2021.1.4,Win32,144.092219,6299f149e92ead563fba08ef,62a44420f8fcec8684542a3b,,,,,,,,,,,,,,,,,,,,,,,,,,,,,,,,,,,,,,,,,,,,,,,,,,,,,,,,,,,,,,,,,,,,,,,,,,,,,,,,,gkfcc,"[""g"",""k"",""f"",""c"",""c""]",0,"[2.741999999999962,4.677000000000021,5.668999999999983,6.291999999999916,6.456000000000017,7.293000000000006]",1,GKFCC,4,0,4,0,1,,,,,,,,,,
,,,,,,,,,,,,612aad990e951a20d5ba78a2,46,Mężczyzna,2022-06-11_09h28.46.201,task,2021.1.4,Win32,144.092219,6299f149e92ead563fba08ef,62a44420f8fcec8684542a3b,,,,,,,,,,,,,8,,,,,,,,,,Task,23,(2x3) + 2,8,,,,,,,,,,,,,,,,,,,1,,,,,,,,,,,,,,,,,,,,,,,"[""8""]",1,[2.1440000000000055],0,0,0,22,1,,,,,,,,,,,,,,,,,,,,,,,,,,
,,,,,,,,,,,X V Q F H G B L J M P D K C T S W R N Z,612aad990e951a20d5ba78a2,46,Mężczyzna,2022-06-11_09h28.46.201,task,2021.1.4,Win32,144.092219,6299f149e92ead563fba08ef,62a44420f8fcec8684542a3b,,,,,,,,,,,,,,,,,,,,,,,,,,,,,,,,,,,,,,,,,,,,,,,,,,,,,,,,,,,,,,,,,,,,,,,,,,,,0,0,0,0,1,,,,,,,,,,,,,,,,,,,,,
,,,,,,,,,,,,612aad990e951a20d5ba78a2,46,Mężczyzna,2022-06-11_09h28.46.201,task,2021.1.4,Win32,144.092219,6299f149e92ead563fba08ef,62a44420f8fcec8684542a3b,,,,,,,,,,,,,3,,,,,,,,,,Task,3,(2x3) - 3,3,,,,,,,,,,,,,,,,,,,1,,,,,,,,,,,,,,,,,,,,,,,"[""3""]",1,[2.285000000000082],0,0,0,2,1,,,,,,,,,,,,,,,,,,,,,,,,,,
,,,,,,,,,,,X V Q F H G B L J M P D K C T S W R N Z,612aad990e951a20d5ba78a2,46,Mężczyzna,2022-06-11_09h28.46.201,task,2021.1.4,Win32,144.092219,6299f149e92ead563fba08ef,62a44420f8fcec8684542a3b,,,,,,,,,,,,,,,,,,,,,,,,,,,,,,,,,,,,,,,,,,,,,,,,,,,,,,,,,,,,,,,,,,,,,,,,,,,,1,0,1,0,1,,,,,,,,,,,,,,,,,,,,,
,,,,,,,,,,,,612aad990e951a20d5ba78a2,46,Mężczyzna,2022-06-11_09h28.46.201,task,2021.1.4,Win32,144.092219,6299f149e92ead563fba08ef,62a44420f8fcec8684542a3b,,,,,,,,,,,,,8,,,,,,,,,,Task,15,(3x7) - 13,8,,,,,,,,,,,,,,,,,,,1,,,,,,,,,,,,,,,,,,,,,,,"[""8""]",1,[2.631999999999948],0,0,0,14,1,,,,,,,,,,,,,,,,,,,,,,,,,,
,,,,,,,,,,,X V Q F H G B L J M P D K C T S W R N Z,612aad990e951a20d5ba78a2,46,Mężczyzna,2022-06-11_09h28.46.201,task,2021.1.4,Win32,144.092219,6299f149e92ead563fba08ef,62a44420f8fcec8684542a3b,,,,,,,,,,,,,,,,,,,,,,,,,,,,,,,,,,,,,,,,,,,,,,,,,,,,,,,,,,,,,,,,,,,,,,,,,,,,2,0,2,0,1,,,,,,,,,,,,,,,,,,,,,
,,,,,,,,,,,,612aad990e951a20d5ba78a2,46,Mężczyzna,2022-06-11_09h28.46.201,task,2021.1.4,Win32,144.092219,6299f149e92ead563fba08ef,62a44420f8fcec8684542a3b,,,,,,,,,,,,,4,,,,,,,,,,Task,4,(1x5) - 1,4,,,,,,,,,,,,,,,,,,,1,,,,,,,,,,,,,,,,,,,,,,,"[""4""]",1,[1.5340000000001055],0,0,0,3,1,,,,,,,,,,,,,,,,,,,,,,,,,,
,,,,,,,,,,,X V Q F H G B L J M P D K C T S W R N Z,612aad990e951a20d5ba78a2,46,Mężczyzna,2022-06-11_09h28.46.201,task,2021.1.4,Win32,144.092219,6299f149e92ead563fba08ef,62a44420f8fcec8684542a3b,,,,,,,,,,,,,,,,,,,,,,,,,,,,,,,,,,,,,,,,,,,,,,,,,,,,,,,,,,,,,,,,,,,,,,,,,,,,3,0,3,0,1,,,,,,,,,,,,,,,,,,,,,
,,,,,,,,,,,,612aad990e951a20d5ba78a2,46,Mężczyzna,2022-06-11_09h28.46.201,task,2021.1.4,Win32,144.092219,6299f149e92ead563fba08ef,62a44420f8fcec8684542a3b,,,,,,,,,,,,,0,,,,,,,,,,Task,33,(1/1) - 1,0,,,,,,,,,,,,,,,,,,,1,,,,,,,,,,,,,,,,,,,,,,,"[""0""]",1,[1.7530000000000427],0,0,0,32,1,,,,,,,,,,,,,,,,,,,,,,,,,,
,,,,,,,,,,,X V Q F H G B L J M P D K C T S W R N Z,612aad990e951a20d5ba78a2,46,Mężczyzna,2022-06-11_09h28.46.201,task,2021.1.4,Win32,144.092219,6299f149e92ead563fba08ef,62a44420f8fcec8684542a3b,,,,,,,,,,,,,,,,,,,,,,,,,,,,,,,,,,,,,,,,,,,,,,,,,,,,,,,,,,,,,,,,,,,,,,,,,,,,4,0,4,0,1,,,,,,,,,,,,,,,,,,,,,
,,,,,,,,,,,,612aad990e951a20d5ba78a2,46,Mężczyzna,2022-06-11_09h28.46.201,task,2021.1.4,Win32,144.092219,6299f149e92ead563fba08ef,62a44420f8fcec8684542a3b,,,,,,,,,,,,,5,,,,,,,,,,Task,29,(3x8) - 19 ,5,,,,,,,,,,,,,,,,,,,1,,,,,,,,,,,,,,,,,,,,,,,"[""5""]",1,[2.8740000000000236],0,0,0,28,1,,,,,,,,,,,,,,,,,,,,,,,,,,
,,,,,,,,,,,X V Q F H G B L J M P D K C T S W R N Z,612aad990e951a20d5ba78a2,46,Mężczyzna,2022-06-11_09h28.46.201,task,2021.1.4,Win32,144.092219,6299f149e92ead563fba08ef,62a44420f8fcec8684542a3b,,,,,,,,,,,,,,,,,,,,,,,,,,,,,,,,,,,,,,,,,,,,,,,,,,,,,,,,,,,,,,,,,,,,,,,,,,,,5,0,5,0,1,,,,,,,,,,,,,,,,,,,,,
,,,,,,,,,,,,612aad990e951a20d5ba78a2,46,Mężczyzna,2022-06-11_09h28.46.201,task,2021.1.4,Win32,144.092219,6299f149e92ead563fba08ef,62a44420f8fcec8684542a3b,,,,,,,,,,,,,,,,,,,,,,,,,,,,,,,,,,,,,,,,,,,,,,,,,,,,,,,,,,,,,,,,,,,,,,,,,,,,,,,,,jxmfch,"[""j"",""x"",""m"",""f"",""c"",""h""]",0,"[2.9169999999999163,4.342999999999961,5.341000000000008,8.146999999999935,9.105000000000018,9.506999999999948,10.377999999999929]",1,JXMFCH,5,0,5,0,1,,,,,,,,,,
,,,,,,,,,,,,612aad990e951a20d5ba78a2,46,Mężczyzna,2022-06-11_09h28.46.201,task,2021.1.4,Win32,144.092219,6299f149e92ead563fba08ef,62a44420f8fcec8684542a3b,,,,,,,,,,,,,5,,,,,,,,,,Task,12,(4x4) - 11,5,,,,,,,,,,,,,,,,,,,1,,,,,,,,,,,,,,,,,,,,,,,"[""5""]",1,[2.020999999999958],0,0,0,11,1,,,,,,,,,,,,,,,,,,,,,,,,,,
,,,,,,,,,,,X V Q F H G B L J M P D K C T S W R N Z,612aad990e951a20d5ba78a2,46,Mężczyzna,2022-06-11_09h28.46.201,task,2021.1.4,Win32,144.092219,6299f149e92ead563fba08ef,62a44420f8fcec8684542a3b,,,,,,,,,,,,,,,,,,,,,,,,,,,,,,,,,,,,,,,,,,,,,,,,,,,,,,,,,,,,,,,,,,,,,,,,,,,,0,0,0,0,1,,,,,,,,,,,,,,,,,,,,,
,,,,,,,,,,,,612aad990e951a20d5ba78a2,46,Mężczyzna,2022-06-11_09h28.46.201,task,2021.1.4,Win32,144.092219,6299f149e92ead563fba08ef,62a44420f8fcec8684542a3b,,,,,,,,,,,,,3,,,,,,,,,,Task,35,(1x2) + 1,3,,,,,,,,,,,,,,,,,,,1,,,,,,,,,,,,,,,,,,,,,,,"[""3""]",1,[1.7549999999999955],0,0,0,34,1,,,,,,,,,,,,,,,,,,,,,,,,,,
,,,,,,,,,,,X V Q F H G B L J M P D K C T S W R N Z,612aad990e951a20d5ba78a2,46,Mężczyzna,2022-06-11_09h28.46.201,task,2021.1.4,Win32,144.092219,6299f149e92ead563fba08ef,62a44420f8fcec8684542a3b,,,,,,,,,,,,,,,,,,,,,,,,,,,,,,,,,,,,,,,,,,,,,,,,,,,,,,,,,,,,,,,,,,,,,,,,,,,,1,0,1,0,1,,,,,,,,,,,,,,,,,,,,,
,,,,,,,,,,,,612aad990e951a20d5ba78a2,46,Mężczyzna,2022-06-11_09h28.46.201,task,2021.1.4,Win32,144.092219,6299f149e92ead563fba08ef,62a44420f8fcec8684542a3b,,,,,,,,,,,,,5,,,,,,,,,,Task,22,(3x1) + 2,5,,,,,,,,,,,,,,,,,,,1,,,,,,,,,,,,,,,,,,,,,,,"[""5""]",1,[1.30600000000004],0,0,0,21,1,,,,,,,,,,,,,,,,,,,,,,,,,,
,,,,,,,,,,,X V Q F H G B L J M P D K C T S W R N Z,612aad990e951a20d5ba78a2,46,Mężczyzna,2022-06-11_09h28.46.201,task,2021.1.4,Win32,144.092219,6299f149e92ead563fba08ef,62a44420f8fcec8684542a3b,,,,,,,,,,,,,,,,,,,,,,,,,,,,,,,,,,,,,,,,,,,,,,,,,,,,,,,,,,,,,,,,,,,,,,,,,,,,2,0,2,0,1,,,,,,,,,,,,,,,,,,,,,
,,,,,,,,,,,,612aad990e951a20d5ba78a2,46,Mężczyzna,2022-06-11_09h28.46.201,task,2021.1.4,Win32,144.092219,6299f149e92ead563fba08ef,62a44420f8fcec8684542a3b,,,,,,,,,,,,,0,,,,,,,,,,Task,17,(2x3) - 6,0,,,,,,,,,,,,,,,,,,,1,,,,,,,,,,,,,,,,,,,,,,,"[""0""]",1,[1.5509999999999309],0,0,0,16,1,,,,,,,,,,,,,,,,,,,,,,,,,,
,,,,,,,,,,,X V Q F H G B L J M P D K C T S W R N Z,612aad990e951a20d5ba78a2,46,Mężczyzna,2022-06-11_09h28.46.201,task,2021.1.4,Win32,144.092219,6299f149e92ead563fba08ef,62a44420f8fcec8684542a3b,,,,,,,,,,,,,,,,,,,,,,,,,,,,,,,,,,,,,,,,,,,,,,,,,,,,,,,,,,,,,,,,,,,,,,,,,,,,3,0,3,0,1,,,,,,,,,,,,,,,,,,,,,
,,,,,,,,,,,,612aad990e951a20d5ba78a2,46,Mężczyzna,2022-06-11_09h28.46.201,task,2021.1.4,Win32,144.092219,6299f149e92ead563fba08ef,62a44420f8fcec8684542a3b,,,,,,,,,,,,,9,,,,,,,,,,Task,24,(2x2) + 5,9,,,,,,,,,,,,,,,,,,,1,,,,,,,,,,,,,,,,,,,,,,,"[""9""]",1,[1.38900000000001],0,0,0,23,1,,,,,,,,,,,,,,,,,,,,,,,,,,
,,,,,,,,,,,X V Q F H G B L J M P D K C T S W R N Z,612aad990e951a20d5ba78a2,46,Mężczyzna,2022-06-11_09h28.46.201,task,2021.1.4,Win32,144.092219,6299f149e92ead563fba08ef,62a44420f8fcec8684542a3b,,,,,,,,,,,,,,,,,,,,,,,,,,,,,,,,,,,,,,,,,,,,,,,,,,,,,,,,,,,,,,,,,,,,,,,,,,,,4,0,4,0,1,,,,,,,,,,,,,,,,,,,,,
,,,,,,,,,,,,612aad990e951a20d5ba78a2,46,Mężczyzna,2022-06-11_09h28.46.201,task,2021.1.4,Win32,144.092219,6299f149e92ead563fba08ef,62a44420f8fcec8684542a3b,,,,,,,,,,,,,1,,,,,,,,,,Task,38,(4x6) - 17,7,,,,,,,,,,,,,,,,,,,0,,,,,,,,,,,,,,,,,,,,,,,"[""1""]",0,[2.812999999999988],0,0,0,37,1,,,,,,,,,,,,,,,,,,,,,,,,,,
,,,,,,,,,,,,612aad990e951a20d5ba78a2,46,Mężczyzna,2022-06-11_09h28.46.201,task,2021.1.4,Win32,144.092219,6299f149e92ead563fba08ef,62a44420f8fcec8684542a3b,,,,,,,,,,,,,6,,,,,,,,,,Task,30,(6/3) + 4 ,6,,,,,,,,,,,,,,,,,,,1,,,,,,,,,,,,,,,,,,,,,,,"[""6""]",1,[3.3570000000000846],0,1,1,29,1,,,,,,,,,,,,,,,,,,,,,,,,,,
,,,,,,,,,,,X V Q F H G B L J M P D K C T S W R N Z,612aad990e951a20d5ba78a2,46,Mężczyzna,2022-06-11_09h28.46.201,task,2021.1.4,Win32,144.092219,6299f149e92ead563fba08ef,62a44420f8fcec8684542a3b,,,,,,,,,,,,,,,,,,,,,,,,,,,,,,,,,,,,,,,,,,,,,,,,,,,,,,,,,,,,,,,,,,,,,,,,,,,,5,0,5,0,1,,,,,,,,,,,,,,,,,,,,,
,,,,,,,,,,,,612aad990e951a20d5ba78a2,46,Mężczyzna,2022-06-11_09h28.46.201,task,2021.1.4,Win32,144.092219,6299f149e92ead563fba08ef,62a44420f8fcec8684542a3b,,,,,,,,,,,,,1,,,,,,,,,,Task,9,(3x7) - 20,1,,,,,,,,,,,,,,,,,,,1,,,,,,,,,,,,,,,,,,,,,,,"[""1""]",1,[1.8729999999999336],0,0,0,8,1,,,,,,,,,,,,,,,,,,,,,,,,,,
,,,,,,,,,,,X V Q F H G B L J M P D K C T S W R N Z,612aad990e951a20d5ba78a2,46,Mężczyzna,2022-06-11_09h28.46.201,task,2021.1.4,Win32,144.092219,6299f149e92ead563fba08ef,62a44420f8fcec8684542a3b,,,,,,,,,,,,,,,,,,,,,,,,,,,,,,,,,,,,,,,,,,,,,,,,,,,,,,,,,,,,,,,,,,,,,,,,,,,,6,0,6,0,1,,,,,,,,,,,,,,,,,,,,,
,,,,,,,,,,,,612aad990e951a20d5ba78a2,46,Mężczyzna,2022-06-11_09h28.46.201,task,2021.1.4,Win32,144.092219,6299f149e92ead563fba08ef,62a44420f8fcec8684542a3b,,,,,,,,,,,,,,,,,,,,,,,,,,,,,,,,,,,,,,,,,,,,,,,,,,,,,,,,,,,,,,,,,,,,,,,,,,,,,,,,,bdmftzd,"[""b"",""d"",""m"",""f"",""t"",""z"",""d""]",0,"[2.5019999999999527,3.0819999999999936,4.201000000000022,4.889999999999986,5.966000000000008,6.4389999999999645,6.73599999999999,7.408999999999992]",1,BDMFTZD,6,0,6,0,1,,,,,,,,,,
,,,,,,,,,,,,612aad990e951a20d5ba78a2,46,Mężczyzna,2022-06-11_09h28.46.201,task,2021.1.4,Win32,144.092219,6299f149e92ead563fba08ef,62a44420f8fcec8684542a3b,,,,,,,,,,,,,5,,,,,,,,,,Task,12,(4x4) - 11,5,,,,,,,,,,,,,,,,,,,1,,,,,,,,,,,,,,,,,,,,,,,"[""5""]",1,[3.0720000000000027],0,0,0,11,1,,,,,,,,,,,,,,,,,,,,,,,,,,
,,,,,,,,,,,X V Q F H G B L J M P D K C T S W R N Z,612aad990e951a20d5ba78a2,46,Mężczyzna,2022-06-11_09h28.46.201,task,2021.1.4,Win32,144.092219,6299f149e92ead563fba08ef,62a44420f8fcec8684542a3b,,,,,,,,,,,,,,,,,,,,,,,,,,,,,,,,,,,,,,,,,,,,,,,,,,,,,,,,,,,,,,,,,,,,,,,,,,,,0,0,0,0,1,,,,,,,,,,,,,,,,,,,,,
,,,,,,,,,,,,612aad990e951a20d5ba78a2,46,Mężczyzna,2022-06-11_09h28.46.201,task,2021.1.4,Win32,144.092219,6299f149e92ead563fba08ef,62a44420f8fcec8684542a3b,,,,,,,,,,,,,6,,,,,,,,,,Task,37,(3/3) + 5,6,,,,,,,,,,,,,,,,,,,1,,,,,,,,,,,,,,,,,,,,,,,"[""6""]",1,[1.7229999999999563],0,0,0,36,1,,,,,,,,,,,,,,,,,,,,,,,,,,
,,,,,,,,,,,X V Q F H G B L J M P D K C T S W R N Z,612aad990e951a20d5ba78a2,46,Mężczyzna,2022-06-11_09h28.46.201,task,2021.1.4,Win32,144.092219,6299f149e92ead563fba08ef,62a44420f8fcec8684542a3b,,,,,,,,,,,,,,,,,,,,,,,,,,,,,,,,,,,,,,,,,,,,,,,,,,,,,,,,,,,,,,,,,,,,,,,,,,,,1,0,1,0,1,,,,,,,,,,,,,,,,,,,,,
,,,,,,,,,,,,612aad990e951a20d5ba78a2,46,Mężczyzna,2022-06-11_09h28.46.201,task,2021.1.4,Win32,144.092219,6299f149e92ead563fba08ef,62a44420f8fcec8684542a3b,,,,,,,,,,,,,8,,,,,,,,,,Task,32,(8/2) + 4,8,,,,,,,,,,,,,,,,,,,1,,,,,,,,,,,,,,,,,,,,,,,"[""8""]",1,[1.4929999999999382],0,0,0,31,1,,,,,,,,,,,,,,,,,,,,,,,,,,
,,,,,,,,,,,X V Q F H G B L J M P D K C T S W R N Z,612aad990e951a20d5ba78a2,46,Mężczyzna,2022-06-11_09h28.46.201,task,2021.1.4,Win32,144.092219,6299f149e92ead563fba08ef,62a44420f8fcec8684542a3b,,,,,,,,,,,,,,,,,,,,,,,,,,,,,,,,,,,,,,,,,,,,,,,,,,,,,,,,,,,,,,,,,,,,,,,,,,,,2,0,2,0,1,,,,,,,,,,,,,,,,,,,,,
,,,,,,,,,,,,612aad990e951a20d5ba78a2,46,Mężczyzna,2022-06-11_09h28.46.201,task,2021.1.4,Win32,144.092219,6299f149e92ead563fba08ef,62a44420f8fcec8684542a3b,,,,,,,,,,,,,7,,,,,,,,,,Task,31,(4/2) + 5,7,,,,,,,,,,,,,,,,,,,1,,,,,,,,,,,,,,,,,,,,,,,"[""7""]",1,[1.4919999999999618],0,0,0,30,1,,,,,,,,,,,,,,,,,,,,,,,,,,
,,,,,,,,,,,X V Q F H G B L J M P D K C T S W R N Z,612aad990e951a20d5ba78a2,46,Mężczyzna,2022-06-11_09h28.46.201,task,2021.1.4,Win32,144.092219,6299f149e92ead563fba08ef,62a44420f8fcec8684542a3b,,,,,,,,,,,,,,,,,,,,,,,,,,,,,,,,,,,,,,,,,,,,,,,,,,,,,,,,,,,,,,,,,,,,,,,,,,,,3,0,3,0,1,,,,,,,,,,,,,,,,,,,,,
,,,,,,,,,,,,612aad990e951a20d5ba78a2,46,Mężczyzna,2022-06-11_09h28.46.201,task,2021.1.4,Win32,144.092219,6299f149e92ead563fba08ef,62a44420f8fcec8684542a3b,,,,,,,,,,,,,9,,,,,,,,,,Task,7,(3x7) - 12,9,,,,,,,,,,,,,,,,,,,1,,,,,,,,,,,,,,,,,,,,,,,"[""9""]",1,[1.8740000000000236],0,0,0,6,1,,,,,,,,,,,,,,,,,,,,,,,,,,
,,,,,,,,,,,X V Q F H G B L J M P D K C T S W R N Z,612aad990e951a20d5ba78a2,46,Mężczyzna,2022-06-11_09h28.46.201,task,2021.1.4,Win32,144.092219,6299f149e92ead563fba08ef,62a44420f8fcec8684542a3b,,,,,,,,,,,,,,,,,,,,,,,,,,,,,,,,,,,,,,,,,,,,,,,,,,,,,,,,,,,,,,,,,,,,,,,,,,,,4,0,4,0,1,,,,,,,,,,,,,,,,,,,,,
,,,,,,,,,,,,612aad990e951a20d5ba78a2,46,Mężczyzna,2022-06-11_09h28.46.201,task,2021.1.4,Win32,144.092219,6299f149e92ead563fba08ef,62a44420f8fcec8684542a3b,,,,,,,,,,,,,6,,,,,,,,,,Task,37,(3/3) + 5,6,,,,,,,,,,,,,,,,,,,1,,,,,,,,,,,,,,,,,,,,,,,"[""6""]",1,[1.9920000000000755],0,0,0,36,1,,,,,,,,,,,,,,,,,,,,,,,,,,
,,,,,,,,,,,X V Q F H G B L J M P D K C T S W R N Z,612aad990e951a20d5ba78a2,46,Mężczyzna,2022-06-11_09h28.46.201,task,2021.1.4,Win32,144.092219,6299f149e92ead563fba08ef,62a44420f8fcec8684542a3b,,,,,,,,,,,,,,,,,,,,,,,,,,,,,,,,,,,,,,,,,,,,,,,,,,,,,,,,,,,,,,,,,,,,,,,,,,,,5,0,5,0,1,,,,,,,,,,,,,,,,,,,,,
,,,,,,,,,,,,612aad990e951a20d5ba78a2,46,Mężczyzna,2022-06-11_09h28.46.201,task,2021.1.4,Win32,144.092219,6299f149e92ead563fba08ef,62a44420f8fcec8684542a3b,,,,,,,,,,,,,5,,,,,,,,,,Task,36,(8/4) + 3,5,,,,,,,,,,,,,,,,,,,1,,,,,,,,,,,,,,,,,,,,,,,"[""5""]",1,[1.5849999999999227],0,0,0,35,1,,,,,,,,,,,,,,,,,,,,,,,,,,
,,,,,,,,,,,X V Q F H G B L J M P D K C T S W R N Z,612aad990e951a20d5ba78a2,46,Mężczyzna,2022-06-11_09h28.46.201,task,2021.1.4,Win32,144.092219,6299f149e92ead563fba08ef,62a44420f8fcec8684542a3b,,,,,,,,,,,,,,,,,,,,,,,,,,,,,,,,,,,,,,,,,,,,,,,,,,,,,,,,,,,,,,,,,,,,,,,,,,,,6,0,6,0,1,,,,,,,,,,,,,,,,,,,,,
,,,,,,,,,,,,612aad990e951a20d5ba78a2,46,Mężczyzna,2022-06-11_09h28.46.201,task,2021.1.4,Win32,144.092219,6299f149e92ead563fba08ef,62a44420f8fcec8684542a3b,,,,,,,,,,,,,6,,,,,,,,,,Task,13,(3x4) - 6,6,,,,,,,,,,,,,,,,,,,1,,,,,,,,,,,,,,,,,,,,,,,"[""6""]",1,[1.7049999999999272],0,0,0,12,1,,,,,,,,,,,,,,,,,,,,,,,,,,
,,,,,,,,,,,X V Q F H G B L J M P D K C T S W R N Z,612aad990e951a20d5ba78a2,46,Mężczyzna,2022-06-11_09h28.46.201,task,2021.1.4,Win32,144.092219,6299f149e92ead563fba08ef,62a44420f8fcec8684542a3b,,,,,,,,,,,,,,,,,,,,,,,,,,,,,,,,,,,,,,,,,,,,,,,,,,,,,,,,,,,,,,,,,,,,,,,,,,,,7,0,7,0,1,,,,,,,,,,,,,,,,,,,,,
,,,,,,,,,,,,612aad990e951a20d5ba78a2,46,Mężczyzna,2022-06-11_09h28.46.201,task,2021.1.4,Win32,144.092219,6299f149e92ead563fba08ef,62a44420f8fcec8684542a3b,,,,,,,,,,,,,,,,,,,,,,,,,,,,,,,,,,,,,,,,,,,,,,,,,,,,,,,,,,,,,,,,,,,,,,,,,,,,,,,,,jmqtqllq,"[""j"",""m"",""q"",""t"",""q"",""l"",""l"",""q""]",0,"[2.7060000000000173,3.0120000000000573,4.537000000000035,5.255999999999972,5.9809999999999945,14.637000000000057,14.869000000000028,15.947000000000003,17.312000000000012]",0,JMQTQHLQ,7,0,7,0,1,,,,,,,,,,
,,,,,,,,,,,,612aad990e951a20d5ba78a2,46,Mężczyzna,2022-06-11_09h28.46.201,task,2021.1.4,Win32,144.092219,6299f149e92ead563fba08ef,62a44420f8fcec8684542a3b,,,,,,,,,,,,,9,,,,,,,,,,Task,24,(2x2) + 5,9,,,,,,,,,,,,,,,,,,,1,,,,,,,,,,,,,,,,,,,,,,,"[""9""]",1,[2.5919999999999845],0,0,0,23,1,,,,,,,,,,,,,,,,,,,,,,,,,,
,,,,,,,,,,,X V Q F H G B L J M P D K C T S W R N Z,612aad990e951a20d5ba78a2,46,Mężczyzna,2022-06-11_09h28.46.201,task,2021.1.4,Win32,144.092219,6299f149e92ead563fba08ef,62a44420f8fcec8684542a3b,,,,,,,,,,,,,,,,,,,,,,,,,,,,,,,,,,,,,,,,,,,,,,,,,,,,,,,,,,,,,,,,,,,,,,,,,,,,0,0,0,0,1,,,,,,,,,,,,,,,,,,,,,
,,,,,,,,,,,,612aad990e951a20d5ba78a2,46,Mężczyzna,2022-06-11_09h28.46.201,task,2021.1.4,Win32,144.092219,6299f149e92ead563fba08ef,62a44420f8fcec8684542a3b,,,,,,,,,,,,,7,,,,,,,,,,Task,38,(4x6) - 17,7,,,,,,,,,,,,,,,,,,,1,,,,,,,,,,,,,,,,,,,,,,,"[""7""]",1,[2.6499999999999773],0,0,0,37,1,,,,,,,,,,,,,,,,,,,,,,,,,,
,,,,,,,,,,,X V Q F H G B L J M P D K C T S W R N Z,612aad990e951a20d5ba78a2,46,Mężczyzna,2022-06-11_09h28.46.201,task,2021.1.4,Win32,144.092219,6299f149e92ead563fba08ef,62a44420f8fcec8684542a3b,,,,,,,,,,,,,,,,,,,,,,,,,,,,,,,,,,,,,,,,,,,,,,,,,,,,,,,,,,,,,,,,,,,,,,,,,,,,1,0,1,0,1,,,,,,,,,,,,,,,,,,,,,
,,,,,,,,,,,,612aad990e951a20d5ba78a2,46,Mężczyzna,2022-06-11_09h28.46.201,task,2021.1.4,Win32,144.092219,6299f149e92ead563fba08ef,62a44420f8fcec8684542a3b,,,,,,,,,,,,,8,,,,,,,,,,Task,23,(2x3) + 2,8,,,,,,,,,,,,,,,,,,,1,,,,,,,,,,,,,,,,,,,,,,,"[""8""]",1,[2.133000000000038],0,0,0,22,1,,,,,,,,,,,,,,,,,,,,,,,,,,
,,,,,,,,,,,X V Q F H G B L J M P D K C T S W R N Z,612aad990e951a20d5ba78a2,46,Mężczyzna,2022-06-11_09h28.46.201,task,2021.1.4,Win32,144.092219,6299f149e92ead563fba08ef,62a44420f8fcec8684542a3b,,,,,,,,,,,,,,,,,,,,,,,,,,,,,,,,,,,,,,,,,,,,,,,,,,,,,,,,,,,,,,,,,,,,,,,,,,,,2,0,2,0,1,,,,,,,,,,,,,,,,,,,,,
,,,,,,,,,,,,612aad990e951a20d5ba78a2,46,Mężczyzna,2022-06-11_09h28.46.201,task,2021.1.4,Win32,144.092219,6299f149e92ead563fba08ef,62a44420f8fcec8684542a3b,,,,,,,,,,,,,4,,,,,,,,,,Task,4,(1x5) - 1,4,,,,,,,,,,,,,,,,,,,1,,,,,,,,,,,,,,,,,,,,,,,"[""4""]",1,[2.0610000000000355],0,0,0,3,1,,,,,,,,,,,,,,,,,,,,,,,,,,
,,,,,,,,,,,X V Q F H G B L J M P D K C T S W R N Z,612aad990e951a20d5ba78a2,46,Mężczyzna,2022-06-11_09h28.46.201,task,2021.1.4,Win32,144.092219,6299f149e92ead563fba08ef,62a44420f8fcec8684542a3b,,,,,,,,,,,,,,,,,,,,,,,,,,,,,,,,,,,,,,,,,,,,,,,,,,,,,,,,,,,,,,,,,,,,,,,,,,,,3,0,3,0,1,,,,,,,,,,,,,,,,,,,,,
,,,,,,,,,,,,612aad990e951a20d5ba78a2,46,Mężczyzna,2022-06-11_09h28.46.201,task,2021.1.4,Win32,144.092219,6299f149e92ead563fba08ef,62a44420f8fcec8684542a3b,,,,,,,,,,,,,2,,,,,,,,,,Task,26,(2x9) - 16,2,,,,,,,,,,,,,,,,,,,1,,,,,,,,,,,,,,,,,,,,,,,"[""2""]",1,[2.2000000000000455],0,0,0,25,1,,,,,,,,,,,,,,,,,,,,,,,,,,
,,,,,,,,,,,X V Q F H G B L J M P D K C T S W R N Z,612aad990e951a20d5ba78a2,46,Mężczyzna,2022-06-11_09h28.46.201,task,2021.1.4,Win32,144.092219,6299f149e92ead563fba08ef,62a44420f8fcec8684542a3b,,,,,,,,,,,,,,,,,,,,,,,,,,,,,,,,,,,,,,,,,,,,,,,,,,,,,,,,,,,,,,,,,,,,,,,,,,,,4,0,4,0,1,,,,,,,,,,,,,,,,,,,,,
,,,,,,,,,,,,612aad990e951a20d5ba78a2,46,Mężczyzna,2022-06-11_09h28.46.201,task,2021.1.4,Win32,144.092219,6299f149e92ead563fba08ef,62a44420f8fcec8684542a3b,,,,,,,,,,,,,9,,,,,,,,,,Task,16,(3x8) - 15,9,,,,,,,,,,,,,,,,,,,1,,,,,,,,,,,,,,,,,,,,,,,"[""9""]",1,[1.995999999999981],0,0,0,15,1,,,,,,,,,,,,,,,,,,,,,,,,,,
,,,,,,,,,,,X V Q F H G B L J M P D K C T S W R N Z,612aad990e951a20d5ba78a2,46,Mężczyzna,2022-06-11_09h28.46.201,task,2021.1.4,Win32,144.092219,6299f149e92ead563fba08ef,62a44420f8fcec8684542a3b,,,,,,,,,,,,,,,,,,,,,,,,,,,,,,,,,,,,,,,,,,,,,,,,,,,,,,,,,,,,,,,,,,,,,,,,,,,,5,0,5,0,1,,,,,,,,,,,,,,,,,,,,,
,,,,,,,,,,,,612aad990e951a20d5ba78a2,46,Mężczyzna,2022-06-11_09h28.46.201,task,2021.1.4,Win32,144.092219,6299f149e92ead563fba08ef,62a44420f8fcec8684542a3b,,,,,,,,,,,,,9,,,,,,,,,,Task,24,(2x2) + 5,9,,,,,,,,,,,,,,,,,,,1,,,,,,,,,,,,,,,,,,,,,,,"[""9""]",1,[2.004000000000019],0,0,0,23,1,,,,,,,,,,,,,,,,,,,,,,,,,,
,,,,,,,,,,,X V Q F H G B L J M P D K C T S W R N Z,612aad990e951a20d5ba78a2,46,Mężczyzna,2022-06-11_09h28.46.201,task,2021.1.4,Win32,144.092219,6299f149e92ead563fba08ef,62a44420f8fcec8684542a3b,,,,,,,,,,,,,,,,,,,,,,,,,,,,,,,,,,,,,,,,,,,,,,,,,,,,,,,,,,,,,,,,,,,,,,,,,,,,6,0,6,0,1,,,,,,,,,,,,,,,,,,,,,
,,,,,,,,,,,,612aad990e951a20d5ba78a2,46,Mężczyzna,2022-06-11_09h28.46.201,task,2021.1.4,Win32,144.092219,6299f149e92ead563fba08ef,62a44420f8fcec8684542a3b,,,,,,,,,,,,,4,,,,,,,,,,Task,28,(2x5) - 6,4,,,,,,,,,,,,,,,,,,,1,,,,,,,,,,,,,,,,,,,,,,,"[""4""]",1,[1.7169999999999845],0,0,0,27,1,,,,,,,,,,,,,,,,,,,,,,,,,,
,,,,,,,,,,,X V Q F H G B L J M P D K C T S W R N Z,612aad990e951a20d5ba78a2,46,Mężczyzna,2022-06-11_09h28.46.201,task,2021.1.4,Win32,144.092219,6299f149e92ead563fba08ef,62a44420f8fcec8684542a3b,,,,,,,,,,,,,,,,,,,,,,,,,,,,,,,,,,,,,,,,,,,,,,,,,,,,,,,,,,,,,,,,,,,,,,,,,,,,7,0,7,0,1,,,,,,,,,,,,,,,,,,,,,
,,,,,,,,,,,,612aad990e951a20d5ba78a2,46,Mężczyzna,2022-06-11_09h28.46.201,task,2021.1.4,Win32,144.092219,6299f149e92ead563fba08ef,62a44420f8fcec8684542a3b,,,,,,,,,,,,,,,,,,,,,,,,,,,,,,,,,,,,,,,,,,,,,,,,,,,,,,,,,,,,,,,,,,,,,,,,,,,,,,,,,qgkstgss,"[""q"",""g"",""k"",""s"",""t"",""g"",""s"",""s""]",0,"[3.6680000000000064,4.168000000000006,5.274000000000001,5.971000000000004,6.95900000000006,7.685000000000059,10.960000000000036,11.106999999999971,13.710000000000036]",0,QGKSTGLS,8,0,8,0,1,,,,,,,,,,
,,,,,,,,,,,,612aad990e951a20d5ba78a2,46,Mężczyzna,2022-06-11_09h28.46.201,task,2021.1.4,Win32,144.092219,6299f149e92ead563fba08ef,62a44420f8fcec8684542a3b,,,,,,,,,,,,,,,,,,,,,,,,,,,,,,,,,,,,,,,,,,,,,,,,,,,,,,,,,,,,,,,,,,,,,,,,,,,,,,,,,,,,,,,,,,,,"[""comma""]",0,[0.7060000000000173],0,0,0,0,1,,
,,,,,,,,,,,,612aad990e951a20d5ba78a2,46,Mężczyzna,2022-06-11_09h28.46.201,task,2021.1.4,Win32,144.092219,6299f149e92ead563fba08ef,62a44420f8fcec8684542a3b,,,,,,,,,,,,,,,,,,,,,,,,,,,,,,,,,,,,,,,,,,,,,,,,,,,,,,,,,,,,,,,,,,,,,,,,,,,,,,,,,,,,,,,,,,,,"[""comma""]",0,[0.9440000000000737],1,0,1,0,1,,
,,,,,,,,,,,,612aad990e951a20d5ba78a2,46,Mężczyzna,2022-06-11_09h28.46.201,task,2021.1.4,Win32,144.092219,6299f149e92ead563fba08ef,62a44420f8fcec8684542a3b,,,,,,,,,,,,,,,,,,,,,,,,,,,,,,,,,,,,,,,,,,,,,,,,,,,,,,,,,,,,,,,,,,,,,,,,,,,,,,,,,,,,,,,,,,,,"[""period""]",0,[0.4759999999999991],2,0,2,0,1,,
,,,,,,,,,,,,612aad990e951a20d5ba78a2,46,Mężczyzna,2022-06-11_09h28.46.201,task,2021.1.4,Win32,144.092219,6299f149e92ead563fba08ef,62a44420f8fcec8684542a3b,,,,,,,,,,,,,,,,,,,,,,,,,,,,,,,,,,,,,,,,,,,,,,,,,,,,,,,,,,,,,,,,,,,,,,,,,,,,,,,,,,,,,,,,,,,,"[""comma""]",0,[0.44499999999993634],3,0,3,0,1,,
,,,,,,,,,,,,612aad990e951a20d5ba78a2,46,Mężczyzna,2022-06-11_09h28.46.201,task,2021.1.4,Win32,144.092219,6299f149e92ead563fba08ef,62a44420f8fcec8684542a3b,,,,,,,,,,,,,,,,,,,,,,,,,,,,,,,,,,,,,,,,,,,,,,,,,,,,,,,,,,,,,,,,,,,,,,,,,,,,,,,,,,,,,,,,,,,,"[""comma""]",0,[0.4210000000000491],4,0,4,0,1,,
,,,,,,,,,,,,612aad990e951a20d5ba78a2,46,Mężczyzna,2022-06-11_09h28.46.201,task,2021.1.4,Win32,144.092219,6299f149e92ead563fba08ef,62a44420f8fcec8684542a3b,,,,,,,,,,,,,,,,,,,,,,,,,,,,,,,,,,,,,,,,,,,,,,,,,,,,,,,,,,,,,,,,,,,,,,,,,,,,,,,,,,,,,,,,,,,,"[""period""]",0,[0.2599999999999909],5,0,5,0,1,,
,,,,,,,,,,,,612aad990e951a20d5ba78a2,46,Mężczyzna,2022-06-11_09h28.46.201,task,2021.1.4,Win32,144.092219,6299f149e92ead563fba08ef,62a44420f8fcec8684542a3b,,,,,,,,,,,,,,,,,,,,,,,,,,,,,,,,,,,,,,,,,,,,,,,,,,,,,,,,,,,,,,,,,,,,,,,,,,,,,,,,,,,,,,,,,,,,"[""period""]",0,[0.2859999999999445],6,0,6,0,1,,
,,,,,,,,,,,,612aad990e951a20d5ba78a2,46,Mężczyzna,2022-06-11_09h28.46.201,task,2021.1.4,Win32,144.092219,6299f149e92ead563fba08ef,62a44420f8fcec8684542a3b,,,,,,,,,,,,,,,,,,,,,,,,,,,,,,,,,,,,,,,,,,,,,,,,,,,,,,,,,,,,,,,,,,,,,,,,,,,,,,,,,,,,,,,,,,,,"[""period""]",0,[0.3170000000000073],7,0,7,0,1,,
,,,,,,,,,,,,612aad990e951a20d5ba78a2,46,Mężczyzna,2022-06-11_09h28.46.201,task,2021.1.4,Win32,144.092219,6299f149e92ead563fba08ef,62a44420f8fcec8684542a3b,,,,,,,,,,,,,,,,,,,,,,,,,,,,,,,,,,,,,,,,,,,,,,,,,,,,,,,,,,,,,,,,,,,,,,,,,,,,,,,,,,,,,,,,,,,,"[""comma""]",0,[0.27899999999999636],8,0,8,0,1,,
,,,,,,,,,,,,612aad990e951a20d5ba78a2,46,Mężczyzna,2022-06-11_09h28.46.201,task,2021.1.4,Win32,144.092219,6299f149e92ead563fba08ef,62a44420f8fcec8684542a3b,,,,,,,,,,,,,,,,,,,,,,,,,,,,,,,,,,,,,,,,,,,,,,,,,,,,,,,,,,,,,,,,,,,,,,,,,,,,,,,,,,,,,,,,,,,,"[""period""]",0,[0.2039999999999509],9,0,9,0,1,,
,,,,,,,,,,,,612aad990e951a20d5ba78a2,46,Mężczyzna,2022-06-11_09h28.46.201,task,2021.1.4,Win32,144.092219,6299f149e92ead563fba08ef,62a44420f8fcec8684542a3b,,,,,,,,,,,,,,,,,,,,,,,,,,,,,,,,,,,,,,,,,,,,,,,,,,,,,,,,,,,,,,,,,,,,,,,,,,,,,,,,,,,,,,,,,,,,"[""period""]",0,[0.23299999999994725],10,0,10,0,1,,
,,,,,,,,,,,,612aad990e951a20d5ba78a2,46,Mężczyzna,2022-06-11_09h28.46.201,task,2021.1.4,Win32,144.092219,6299f149e92ead563fba08ef,62a44420f8fcec8684542a3b,,,,,,,,,,,,,,,,,,,,,,,,,,,,,,,,,,,,,,,,,,,,,,,,,,,,,,,,,,,,,,,,,,,,,,,,,,,,,,,,,,,,,,,,,,,,"[""comma""]",0,[0.22699999999997544],11,0,11,0,1,,
,,,,,,,,,,,,612aad990e951a20d5ba78a2,46,Mężczyzna,2022-06-11_09h28.46.201,task,2021.1.4,Win32,144.092219,6299f149e92ead563fba08ef,62a44420f8fcec8684542a3b,,,,,,,,,,,,,,,,,,,,,,,,,,,,,,,,,,,,,,,,,,,,,,,,,,,,,,,,,,,,,,,,,,,,,,,,,,,,,,,,,,,,,,,,,,,,"[""period""]",0,[0.21699999999998454],12,0,12,0,1,,
,,,,,,,,,,,,612aad990e951a20d5ba78a2,46,Mężczyzna,2022-06-11_09h28.46.201,task,2021.1.4,Win32,144.092219,6299f149e92ead563fba08ef,62a44420f8fcec8684542a3b,,,,,,,,,,,,,,,,,,,,,,,,,,,,,,,,,,,,,,,,,,,,,,,,,,,,,,,,,,,,,,,,,,,,,,,,,,,,,,,,,,,,,,,,,,,,"[""period""]",0,[0.21300000000007913],13,0,13,0,1,,
,,,,,,,,,,,,612aad990e951a20d5ba78a2,46,Mężczyzna,2022-06-11_09h28.46.201,task,2021.1.4,Win32,144.092219,6299f149e92ead563fba08ef,62a44420f8fcec8684542a3b,,,,,,,,,,,,,,,,,,,,,,,,,,,,,,,,,,,,,,,,,,,,,,,,,,,,,,,,,,,,,,,,,,,,,,,,,,,,,,,,,,,,,,,,,,,,"[""comma""]",0,[0.23900000000003274],14,0,14,0,1,,
,,,,,,,,,,,,612aad990e951a20d5ba78a2,46,Mężczyzna,2022-06-11_09h28.46.201,task,2021.1.4,Win32,144.092219,6299f149e92ead563fba08ef,62a44420f8fcec8684542a3b,,,,,,,,,,,,,,,,,,,,,,,,,,,,,,,,,,,,,,,,,,,,,,,,,,,,,,,,,,,,,,,,,,,,,,,,,,,,,,,,,,,,,,,,,,,,"[""comma""]",0,[0.2319999999999709],15,0,15,0,1,,
,,,,,,,,,,,,612aad990e951a20d5ba78a2,46,Mężczyzna,2022-06-11_09h28.46.201,task,2021.1.4,Win32,144.092219,6299f149e92ead563fba08ef,62a44420f8fcec8684542a3b,,,,,,,,,,,,,,,,,,,,,,,,,,,,,,,,,,,,,,,,,,,,,,,,,,,,,,,,,,,,,,,,,,,,,,,,,,,,,,,,,,,,,,,,,,,,"[""period"",""comma""]",0,"[0.18699999999989814,1.9399999999999409]",16,0,16,0,1,,
,,,,,,,,,,,,612aad990e951a20d5ba78a2,46,Mężczyzna,2022-06-11_09h28.46.201,task,2021.1.4,Win32,144.092219,6299f149e92ead563fba08ef,62a44420f8fcec8684542a3b,,,,,,,,,,,,,,,,,,,,,,,,,,,,,,,,,,,,,,,,,,,,,,,,,,,,,,,,,,,,,,,,,,,,,,,,,,,,,,,,,,,,,,,,,,,,,0,,17,0,17,0,1,,
,,,,,,,,,,,,612aad990e951a20d5ba78a2,46,Mężczyzna,2022-06-11_09h28.46.201,task,2021.1.4,Win32,144.092219,6299f149e92ead563fba08ef,62a44420f8fcec8684542a3b,,,,,,,,,,,,,,,,,,,,,,,,,,,,,,,,,,,,,,,,,,,,,,,,,,,,,,,,,,,,,,,,,,,,,,,,,,,,,,,,,,,,,,,,,,,,"[""period""]",0,[0.18999999999994088],18,0,18,0,1,,
,,,,,,,,,,,,612aad990e951a20d5ba78a2,46,Mężczyzna,2022-06-11_09h28.46.201,task,2021.1.4,Win32,144.092219,6299f149e92ead563fba08ef,62a44420f8fcec8684542a3b,,,,,,,,,,,,,,,,,,,,,,,,,,,,,,,,,,,,,,,,,,,,,,,,,,,,,,,,,,,,,,,,,,,,,,,,,,,,,,,,,,,,,,,,,,,,"[""comma""]",0,[0.2259999999999991],19,0,19,0,1,,
,,,,,,,,,,,,612aad990e951a20d5ba78a2,46,Mężczyzna,2022-06-11_09h28.46.201,task,2021.1.4,Win32,144.092219,6299f149e92ead563fba08ef,62a44420f8fcec8684542a3b,,,,,,,,,,,,,,,,,,,,,,,,,,,,,,,,,,,,,,,,,,,,,,,,,,,,,,,,,,,,,,,,,,,,,,,,,,,,,,,,,,,,,,,,,,,,"[""comma""]",0,[0.21499999999991815],20,0,20,0,1,,
,,,,,,,,,,,,612aad990e951a20d5ba78a2,46,Mężczyzna,2022-06-11_09h28.46.201,task,2021.1.4,Win32,144.092219,6299f149e92ead563fba08ef,62a44420f8fcec8684542a3b,,,,,,,,,,,,,,,,,,,,,,,,,,,,,,,,,,,,,,,,,,,,,,,,,,,,,,,,,,,,,,,,,,,,,,,,,,,,,,,,,,,,,,,,,,,,"[""period""]",0,[0.22299999999995634],21,0,21,0,1,,
,,,,,,,,,,,,612aad990e951a20d5ba78a2,46,Mężczyzna,2022-06-11_09h28.46.201,task,2021.1.4,Win32,144.092219,6299f149e92ead563fba08ef,62a44420f8fcec8684542a3b,,,,,,,,,,,,,,,,,,,,,,,,,,,,,,,,,,,,,,,,,,,,,,,,,,,,,,,,,,,,,,,,,,,,,,,,,,,,,,,,,,,,,,,,,,,,"[""period""]",0,[0.25],22,0,22,0,1,,
,,,,,,,,,,,,612aad990e951a20d5ba78a2,46,Mężczyzna,2022-06-11_09h28.46.201,task,2021.1.4,Win32,144.092219,6299f149e92ead563fba08ef,62a44420f8fcec8684542a3b,,,,,,,,,,,,,,,,,,,,,,,,,,,,,,,,,,,,,,,,,,,,,,,,,,,,,,,,,,,,,,,,,,,,,,,,,,,,,,,,,,,,,,,,,,,,"[""comma"",""period""]",0,"[0.22900000000004184,1.9240000000000919]",23,0,23,0,1,,
,,,,,,,,,,,,612aad990e951a20d5ba78a2,46,Mężczyzna,2022-06-11_09h28.46.201,task,2021.1.4,Win32,144.092219,6299f149e92ead563fba08ef,62a44420f8fcec8684542a3b,,,,,,,,,,,,,,,,,,,,,,,,,,,,,,,,,,,,,,,,,,,,,,,,,,,,,,,,,,,,,,,,,,,,,,,,,,,,,,,,,,,,,,,,,,,,,0,,24,0,24,0,1,,
,,,,,,,,,,,,612aad990e951a20d5ba78a2,46,Mężczyzna,2022-06-11_09h28.46.201,task,2021.1.4,Win32,144.092219,6299f149e92ead563fba08ef,62a44420f8fcec8684542a3b,,,,,,,,,,,,,,,,,,,,,,,,,,,,,,,,,,,,,,,,,,,,,,,,,,,,,,,,,,,,,,,,,,,,,,,,,,,,,,,,,,,,,,,,,,,,"[""comma""]",0,[0.23500000000001364],25,0,25,0,1,,
,,,,,,,,,,,,612aad990e951a20d5ba78a2,46,Mężczyzna,2022-06-11_09h28.46.201,task,2021.1.4,Win32,144.092219,6299f149e92ead563fba08ef,62a44420f8fcec8684542a3b,,,,,,,,,,,,,,,,,,,,,,,,,,,,,,,,,,,,,,,,,,,,,,,,,,,,,,,,,,,,,,,,,,,,,,,,,,,,,,,,,,,,,,,,,,,,"[""period""]",0,[0.23099999999999454],26,0,26,0,1,,
,,,,,,,,,,,,612aad990e951a20d5ba78a2,46,Mężczyzna,2022-06-11_09h28.46.201,task,2021.1.4,Win32,144.092219,6299f149e92ead563fba08ef,62a44420f8fcec8684542a3b,,,,,,,,,,,,,,,,,,,,,,,,,,,,,,,,,,,,,,,,,,,,,,,,,,,,,,,,,,,,,,,,,,,,,,,,,,,,,,,,,,,,,,,,,,,,"[""period""]",0,[0.21500000000003183],27,0,27,0,1,,
,,,,,,,,,,,,612aad990e951a20d5ba78a2,46,Mężczyzna,2022-06-11_09h28.46.201,task,2021.1.4,Win32,144.092219,6299f149e92ead563fba08ef,62a44420f8fcec8684542a3b,,,,,,,,,,,,,,,,,,,,,,,,,,,,,,,,,,,,,,,,,,,,,,,,,,,,,,,,,,,,,,,,,,,,,,,,,,,,,,,,,,,,,,,,,,,,"[""comma""]",0,[0.2419999999999618],28,0,28,0,1,,
,,,,,,,,,,,,612aad990e951a20d5ba78a2,46,Mężczyzna,2022-06-11_09h28.46.201,task,2021.1.4,Win32,144.092219,6299f149e92ead563fba08ef,62a44420f8fcec8684542a3b,,,,,,,,,,,,,,,,,,,,,,,,,,,,,,,,,,,,,,,,,,,,,,,,,,,,,,,,,,,,,,,,,,,,,,,,,,,,,,,,,,,,,,,,,,,,"[""period""]",0,[0.2460000000000946],29,0,29,0,1,,
,,,,,,,,,,,,612aad990e951a20d5ba78a2,46,Mężczyzna,2022-06-11_09h28.46.201,task,2021.1.4,Win32,144.092219,6299f149e92ead563fba08ef,62a44420f8fcec8684542a3b,,,,,,,,,,,,,,,,,,,,,,,,,,,,,,,,,,,,,,,,,,,,,,,,,,,,,,,,,,,,,,,,,,,,,,,,,,,,,,,,,,,,,,,,,,,,"[""comma""]",0,[0.26300000000003365],30,0,30,0,1,,
,,,,,,,,,,,,612aad990e951a20d5ba78a2,46,Mężczyzna,2022-06-11_09h28.46.201,task,2021.1.4,Win32,144.092219,6299f149e92ead563fba08ef,62a44420f8fcec8684542a3b,,,,,,,,,,,,,,,,,,,,,,,,,,,,,,,,,,,,,,,,,,,,,,,,,,,,,,,,,,,,,,,,,,,,,,,,,,,,,,,,,,,,,,,,,,,,"[""comma""]",0,[0.2540000000000191],31,0,31,0,1,,
,,,,,,,,,,,,612aad990e951a20d5ba78a2,46,Mężczyzna,2022-06-11_09h28.46.201,task,2021.1.4,Win32,144.092219,6299f149e92ead563fba08ef,62a44420f8fcec8684542a3b,,,,,,,,,,,,,,,,,,,,,,,,,,,,,,,,,,,,,,,,,,,,,,,,,,,,,,,,,,,,,,,,,,,,,,,,,,,,,,,,,,,,,,,,,,,,"[""comma""]",0,[0.2420000000000755],32,0,32,0,1,,
,,,,,,,,,,,,612aad990e951a20d5ba78a2,46,Mężczyzna,2022-06-11_09h28.46.201,task,2021.1.4,Win32,144.092219,6299f149e92ead563fba08ef,62a44420f8fcec8684542a3b,,,,,,,,,,,,,,,,,,,,,,,,,,,,,,,,,,,,,,,,,,,,,,,,,,,,,,,,,,,,,,,,,,,,,,,,,,,,,,,,,,,,,,,,,,,,"[""period""]",0,[0.22299999999995634],33,0,33,0,1,,
,,,,,,,,,,,,612aad990e951a20d5ba78a2,46,Mężczyzna,2022-06-11_09h28.46.201,task,2021.1.4,Win32,144.092219,6299f149e92ead563fba08ef,62a44420f8fcec8684542a3b,,,,,,,,,,,,,,,,,,,,,,,,,,,,,,,,,,,,,,,,,,,,,,,,,,,,,,,,,,,,,,,,,,,,,,,,,,,,,,,,,,,,,,,,,,,,"[""period""]",0,[0.25499999999999545],34,0,34,0,1,,
,,,,,,,,,,,,612aad990e951a20d5ba78a2,46,Mężczyzna,2022-06-11_09h28.46.201,task,2021.1.4,Win32,144.092219,6299f149e92ead563fba08ef,62a44420f8fcec8684542a3b,,,,,,,,,,,,,,,,,,,,,,,,,,,,,,,,,,,,,,,,,,,,,,,,,,,,,,,,,,,,,,,,,,,,,,,,,,,,,,,,,,,,,,,,,,,,"[""period""]",0,[0.25300000000004275],35,0,35,0,1,,
,,,,,,,,,,,,612aad990e951a20d5ba78a2,46,Mężczyzna,2022-06-11_09h28.46.201,task,2021.1.4,Win32,144.092219,6299f149e92ead563fba08ef,62a44420f8fcec8684542a3b,,,,,,,,,,,,,,,,,,,,,,,,,,,,,,,,,,,,,,,,,,,,,,,,,,,,,,,,,,,,,,,,,,,,,,,,,,,,,,,,,,,,,,,,,,,,"[""period""]",0,[0.29300000000000637],36,0,36,0,1,,
,,,,,,,,,,,,612aad990e951a20d5ba78a2,46,Mężczyzna,2022-06-11_09h28.46.201,task,2021.1.4,Win32,144.092219,6299f149e92ead563fba08ef,62a44420f8fcec8684542a3b,,,,,,,,,,,,,,,,,,,,,,,,,,,,,,,,,,,,,,,,,,,,,,,,,,,,,,,,,,,,,,,,,,,,,,,,,,,,,,,,,,,,,,,,,,,,"[""comma""]",0,[0.22900000000004184],37,0,37,0,1,,
,,,,,,,,,,,,612aad990e951a20d5ba78a2,46,Mężczyzna,2022-06-11_09h28.46.201,task,2021.1.4,Win32,144.092219,6299f149e92ead563fba08ef,62a44420f8fcec8684542a3b,,,,,,,,,,,,,,,,,,,,,,,,,,,,,,,,,,,,,,,,,,,,,,,,,,,,,,,,,,,,,,,,,,,,,,,,,,,,,,,,,,,,,,,,,,,,"[""period""]",0,[0.2439999999999145],38,0,38,0,1,,
,,,,,,,,,,,,612aad990e951a20d5ba78a2,46,Mężczyzna,2022-06-11_09h28.46.201,task,2021.1.4,Win32,144.092219,6299f149e92ead563fba08ef,62a44420f8fcec8684542a3b,,,,,,,,,,,,,,,,,,,,,,,,,,,,,,,,,,,,,,,,,,,,,,,,,,,,,,,,,,,,,,,,,,,,,,,,,,,,,,,,,,,,,,,,,,,,"[""period""]",0,[0.2319999999999709],39,0,39,0,1,,
,,,,,,,,,,,,612aad990e951a20d5ba78a2,46,Mężczyzna,2022-06-11_09h28.46.201,task,2021.1.4,Win32,144.092219,6299f149e92ead563fba08ef,62a44420f8fcec8684542a3b,,,,,,,,,,,,,,,,,,,,,,,,,,,,,,,,,,,,,,,,,,,,,,,,,,,,,,,,,,,,,,,,,,,,,,,,,,,,,,,,,,,,,,,,,,,,"[""comma""]",0,[0.19100000000003092],40,0,40,0,1,,
,,,,,,,,,,,,612aad990e951a20d5ba78a2,46,Mężczyzna,2022-06-11_09h28.46.201,task,2021.1.4,Win32,144.092219,6299f149e92ead563fba08ef,62a44420f8fcec8684542a3b,,,,,,,,,,,,,,,,,,,,,,,,,,,,,,,,,,,,,,,,,,,,,,,,,,,,,,,,,,,,,,,,,,,,,,,,,,,,,,,,,,,,,,,,,,,,"[""period""]",0,[0.2659999999999627],41,0,41,0,1,,
,,,,,,,,,,,,612aad990e951a20d5ba78a2,46,Mężczyzna,2022-06-11_09h28.46.201,task,2021.1.4,Win32,144.092219,6299f149e92ead563fba08ef,62a44420f8fcec8684542a3b,,,,,,,,,,,,,,,,,,,,,,,,,,,,,,,,,,,,,,,,,,,,,,,,,,,,,,,,,,,,,,,,,,,,,,,,,,,,,,,,,,,,,,,,,,,,"[""period""]",0,[0.22299999999995634],42,0,42,0,1,,
,,,,,,,,,,,,612aad990e951a20d5ba78a2,46,Mężczyzna,2022-06-11_09h28.46.201,task,2021.1.4,Win32,144.092219,6299f149e92ead563fba08ef,62a44420f8fcec8684542a3b,,,,,,,,,,,,,,,,,,,,,,,,,,,,,,,,,,,,,,,,,,,,,,,,,,,,,,,,,,,,,,,,,,,,,,,,,,,,,,,,,,,,,,,,,,,,"[""comma""]",0,[0.23599999999999],43,0,43,0,1,,
,,,,,,,,,,,,612aad990e951a20d5ba78a2,46,Mężczyzna,2022-06-11_09h28.46.201,task,2021.1.4,Win32,144.092219,6299f149e92ead563fba08ef,62a44420f8fcec8684542a3b,,,,,,,,,,,,,,,,,,,,,,,,,,,,,,,,,,,,,,,,,,,,,,,,,,,,,,,,,,,,,,,,,,,,,,,,,,,,,,,,,,,,,,,,,,,,"[""period""]",0,[0.23099999999999454],44,0,44,0,1,,
,,,,,,,,,,,,612aad990e951a20d5ba78a2,46,Mężczyzna,2022-06-11_09h28.46.201,task,2021.1.4,Win32,144.092219,6299f149e92ead563fba08ef,62a44420f8fcec8684542a3b,,,,,,,,,,,,,,,,,,,,,,,,,,,,,,,,,,,,,,,,,,,,,,,,,,,,,,,,,,,,,,,,,,,,,,,,,,,,,,,,,,,,,,,,,,,,"[""comma""]",0,[0.23699999999996635],45,0,45,0,1,,
,,,,,,,,,,,,612aad990e951a20d5ba78a2,46,Mężczyzna,2022-06-11_09h28.46.201,task,2021.1.4,Win32,144.092219,6299f149e92ead563fba08ef,62a44420f8fcec8684542a3b,,,,,,,,,,,,,,,,,,,,,,,,,,,,,,,,,,,,,,,,,,,,,,,,,,,,,,,,,,,,,,,,,,,,,,,,,,,,,,,,,,,,,,,,,,,,"[""comma""]",0,[0.2099999999999227],46,0,46,0,1,,
,,,,,,,,,,,,612aad990e951a20d5ba78a2,46,Mężczyzna,2022-06-11_09h28.46.201,task,2021.1.4,Win32,144.092219,6299f149e92ead563fba08ef,62a44420f8fcec8684542a3b,,,,,,,,,,,,,,,,,,,,,,,,,,,,,,,,,,,,,,,,,,,,,,,,,,,,,,,,,,,,,,,,,,,,,,,,,,,,,,,,,,,,,,,,,,,,"[""period""]",0,[0.24099999999998545],47,0,47,0,1,,
,,,,,,,,,,,,612aad990e951a20d5ba78a2,46,Mężczyzna,2022-06-11_09h28.46.201,task,2021.1.4,Win32,144.092219,6299f149e92ead563fba08ef,62a44420f8fcec8684542a3b,,,,,,,,,,,,,,,,,,,,,,,,,,,,,,,,,,,,,,,,,,,,,,,,,,,,,,,,,,,,,,,,,,,,,,,,,,,,,,,,,,,,,,,,,,,,"[""comma""]",0,[0.22199999999998],48,0,48,0,1,,
,,,,,,,,,,,,612aad990e951a20d5ba78a2,46,Mężczyzna,2022-06-11_09h28.46.201,task,2021.1.4,Win32,144.092219,6299f149e92ead563fba08ef,62a44420f8fcec8684542a3b,,,,,,,,,,,,,,,,,,,,,,,,,,,,,,,,,,,,,,,,,,,,,,,,,,,,,,,,,,,,,,,,,,,,,,,,,,,,,,,,,,,,,,,,,,,,"[""comma""]",0,[0.20600000000001728],49,0,49,0,1,,
,,,,,,,,,,,,612aad990e951a20d5ba78a2,46,Mężczyzna,2022-06-11_09h28.46.201,task,2021.1.4,Win32,144.092219,6299f149e92ead563fba08ef,62a44420f8fcec8684542a3b,,,,,,,,,,,,,,,,,,,,,,,,,,,,,,,,,,,,,,,,,,,,,,,,,,,,,,,,,,,,,,,,,,,,,,,,,,,,,,,,,,,,,,,,,,,,"[""comma""]",0,[0.2440000000000282],50,0,50,0,1,,
,,,,,,,,,,,,612aad990e951a20d5ba78a2,46,Mężczyzna,2022-06-11_09h28.46.201,task,2021.1.4,Win32,144.092219,6299f149e92ead563fba08ef,62a44420f8fcec8684542a3b,,,,,,,,,,,,,,,,,,,,,,,,,,,,,,,,,,,,,,,,,,,,,,,,,,,,,,,,,,,,,,,,,,,,,,,,,,,,,,,,,,,,,,,,,,,,"[""period""]",0,[0.12799999999992906],51,0,51,0,1,,
,,,,,,,,,,,,612aad990e951a20d5ba78a2,46,Mężczyzna,2022-06-11_09h28.46.201,task,2021.1.4,Win32,144.092219,6299f149e92ead563fba08ef,62a44420f8fcec8684542a3b,,,,,,,,,,,,,,,,,,,,,,,,,,,,,,,,,,,,,,,,,,,,,,,,,,,,,,,,,,,,,,,,,,,,,,,,,,,,,,,,,,,,,,,,,,,,"[""comma""]",0,[0.20200000000011187],52,0,52,0,1,,
,,,,,,,,,,,,612aad990e951a20d5ba78a2,46,Mężczyzna,2022-06-11_09h28.46.201,task,2021.1.4,Win32,144.092219,6299f149e92ead563fba08ef,62a44420f8fcec8684542a3b,,,,,,,,,,,,,,,,,,,,,,,,,,,,,,,,,,,,,,,,,,,,,,,,,,,,,,,,,,,,,,,,,,,,,,,,,,,,,,,,,,,,,,,,,,,,"[""period""]",0,[0.19499999999993634],53,0,53,0,1,,
,,,,,,,,,,,,612aad990e951a20d5ba78a2,46,Mężczyzna,2022-06-11_09h28.46.201,task,2021.1.4,Win32,144.092219,6299f149e92ead563fba08ef,62a44420f8fcec8684542a3b,,,,,,,,,,,,,,,,,,,,,,,,,,,,,,,,,,,,,,,,,,,,,,,,,,,,,,,,,,,,,,,,,,,,,,,,,,,,,,,,,,,,,,,,,,,,"[""comma"",""period""]",0,"[0.18499999999994543,1.9189999999999827]",54,0,54,0,1,,
,,,,,,,,,,,,612aad990e951a20d5ba78a2,46,Mężczyzna,2022-06-11_09h28.46.201,task,2021.1.4,Win32,144.092219,6299f149e92ead563fba08ef,62a44420f8fcec8684542a3b,,,,,,,,,,,,,,,,,,,,,,,,,,,,,,,,,,,,,,,,,,,,,,,,,,,,,,,,,,,,,,,,,,,,,,,,,,,,,,,,,,,,,,,,,,,,,0,,55,0,55,0,1,,
,,,,,,,,,,,,612aad990e951a20d5ba78a2,46,Mężczyzna,2022-06-11_09h28.46.201,task,2021.1.4,Win32,144.092219,6299f149e92ead563fba08ef,62a44420f8fcec8684542a3b,,,,,,,,,,,,,,,,,,,,,,,,,,,,,,,,,,,,,,,,,,,,,,,,,,,,,,,,,,,,,,,,,,,,,,,,,,,,,,,,,,,,,,,,,,,,"[""comma""]",0,[0.18899999999996453],56,0,56,0,1,,
,,,,,,,,,,,,612aad990e951a20d5ba78a2,46,Mężczyzna,2022-06-11_09h28.46.201,task,2021.1.4,Win32,144.092219,6299f149e92ead563fba08ef,62a44420f8fcec8684542a3b,,,,,,,,,,,,,,,,,,,,,,,,,,,,,,,,,,,,,,,,,,,,,,,,,,,,,,,,,,,,,,,,,,,,,,,,,,,,,,,,,,,,,,,,,,,,"[""period""]",0,[0.21899999999993724],57,0,57,0,1,,
,,,,,,,,,,,,612aad990e951a20d5ba78a2,46,Mężczyzna,2022-06-11_09h28.46.201,task,2021.1.4,Win32,144.092219,6299f149e92ead563fba08ef,62a44420f8fcec8684542a3b,,,,,,,,,,,,,,,,,,,,,,,,,,,,,,,,,,,,,,,,,,,,,,,,,,,,,,,,,,,,,,,,,,,,,,,,,,,,,,,,,,,,,,,,,,,,"[""comma""]",0,[0.22400000000004638],58,0,58,0,1,,
,,,,,,,,,,,,612aad990e951a20d5ba78a2,46,Mężczyzna,2022-06-11_09h28.46.201,task,2021.1.4,Win32,144.092219,6299f149e92ead563fba08ef,62a44420f8fcec8684542a3b,,,,,,,,,,,,,,,,,,,,,,,,,,,,,,,,,,,,,,,,,,,,,,,,,,,,,,,,,,,,,,,,,,,,,,,,,,,,,,,,,,,,,,,,,,,,"[""comma""]",0,[0.26699999999993906],59,0,59,0,1,,
,,,,,,,,,,,,612aad990e951a20d5ba78a2,46,Mężczyzna,2022-06-11_09h28.46.201,task,2021.1.4,Win32,144.092219,6299f149e92ead563fba08ef,62a44420f8fcec8684542a3b,,,,,,,,,,,,,,,,,,,,,,,,,,,,,,,,,,,,,,,,,,,,,,,,,,,,,,,,,,,,,,,,,,,,,,,,,,,,,,,,,,,,,,,,,,,,"[""period""]",0,[0.22500000000002274],60,0,60,0,1,,
,,,,,,,,,,,,612aad990e951a20d5ba78a2,46,Mężczyzna,2022-06-11_09h28.46.201,task,2021.1.4,Win32,144.092219,6299f149e92ead563fba08ef,62a44420f8fcec8684542a3b,,,,,,,,,,,,,,,,,,,,,,,,,,,,,,,,,,,,,,,,,,,,,,,,,,,,,,,,,,,,,,,,,,,,,,,,,,,,,,,,,,,,,,,,,,,,"[""period""]",0,[0.25300000000004275],61,0,61,0,1,,
,,,,,,,,,,,,612aad990e951a20d5ba78a2,46,Mężczyzna,2022-06-11_09h28.46.201,task,2021.1.4,Win32,144.092219,6299f149e92ead563fba08ef,62a44420f8fcec8684542a3b,,,,,,,,,,,,,,,,,,,,,,,,,,,,,,,,,,,,,,,,,,,,,,,,,,,,,,,,,,,,,,,,,,,,,,,,,,,,,,,,,,,,,,,,,,,,"[""comma""]",0,[0.3129999999999882],62,0,62,0,1,,
,,,,,,,,,,,,612aad990e951a20d5ba78a2,46,Mężczyzna,2022-06-11_09h28.46.201,task,2021.1.4,Win32,144.092219,6299f149e92ead563fba08ef,62a44420f8fcec8684542a3b,,,,,,,,,,,,,,,,,,,,,,,,,,,,,,,,,,,,,,,,,,,,,,,,,,,,,,,,,,,,,,,,,,,,,,,,,,,,,,,,,,,,,,,,,,,,"[""period""]",0,[0.22099999999988995],63,0,63,0,1,,
,,,,,,,,,,,,612aad990e951a20d5ba78a2,46,Mężczyzna,2022-06-11_09h28.46.201,task,2021.1.4,Win32,144.092219,6299f149e92ead563fba08ef,62a44420f8fcec8684542a3b,,,,,,,,,,,,,,,,,,,,,,,,,,,,,,,,,,,,,,,,,,,,,,,,,,,,,,,,,,,,,,,,,,,,,,,,,,,,,,,,,,,,,,,,,,,,"[""period""]",0,[0.24700000000007094],64,0,64,0,1,,
,,,,,,,,,,,,612aad990e951a20d5ba78a2,46,Mężczyzna,2022-06-11_09h28.46.201,task,2021.1.4,Win32,144.092219,6299f149e92ead563fba08ef,62a44420f8fcec8684542a3b,,,,,,,,,,,,,,,,,,,,,,,,,,,,,,,,,,,,,,,,,,,,,,,,,,,,,,,,,,,,,,,,,,,,,,,,,,,,,,,,,,,,,,,,,,,,"[""period""]",0,[0.24500000000000455],65,0,65,0,1,,
,,,,,,,,,,,,612aad990e951a20d5ba78a2,46,Mężczyzna,2022-06-11_09h28.46.201,task,2021.1.4,Win32,144.092219,6299f149e92ead563fba08ef,62a44420f8fcec8684542a3b,,,,,,,,,,,,,,,,,,,,,,,,,,,,,,,,,,,,,,,,,,,,,,,,,,,,,,,,,,,,,,,,,,,,,,,,,,,,,,,,,,,,,,,,,,,,"[""comma""]",0,[0.1690000000000964],66,0,66,0,1,,
,,,,,,,,,,,,612aad990e951a20d5ba78a2,46,Mężczyzna,2022-06-11_09h28.46.201,task,2021.1.4,Win32,144.092219,6299f149e92ead563fba08ef,62a44420f8fcec8684542a3b,,,,,,,,,,,,,,,,,,,,,,,,,,,,,,,,,,,,,,,,,,,,,,,,,,,,,,,,,,,,,,,,,,,,,,,,,,,,,,,,,,,,,,,,,,,,"[""period""]",0,[0.27499999999997726],67,0,67,0,1,,
,,,,,,,,,,,,612aad990e951a20d5ba78a2,46,Mężczyzna,2022-06-11_09h28.46.201,task,2021.1.4,Win32,144.092219,6299f149e92ead563fba08ef,62a44420f8fcec8684542a3b,,,,,,,,,,,,,,,,,,,,,,,,,,,,,,,,,,,,,,,,,,,,,,,,,,,,,,,,,,,,,,,,,,,,,,,,,,,,,,,,,,,,,,,,,,,,"[""period""]",0,[0.24300000000005184],68,0,68,0,1,,
,,,,,,,,,,,,612aad990e951a20d5ba78a2,46,Mężczyzna,2022-06-11_09h28.46.201,task,2021.1.4,Win32,144.092219,6299f149e92ead563fba08ef,62a44420f8fcec8684542a3b,,,,,,,,,,,,,,,,,,,,,,,,,,,,,,,,,,,,,,,,,,,,,,,,,,,,,,,,,,,,,,,,,,,,,,,,,,,,,,,,,,,,,,,,,,,,"[""comma""]",0,[0.2400000000000091],69,0,69,0,1,,
,,,,,,,,,,,,612aad990e951a20d5ba78a2,46,Mężczyzna,2022-06-11_09h28.46.201,task,2021.1.4,Win32,144.092219,6299f149e92ead563fba08ef,62a44420f8fcec8684542a3b,,,,,,,,,,,,,,,,,,,,,,,,,,,,,,,,,,,,,,,,,,,,,,,,,,,,,,,,,,,,,,,,,,,,,,,,,,,,,,,,,,,,,,,,,,,,"[""period""]",0,[0.19400000000007367],70,0,70,0,1,,
,,,,,,,,,,,,612aad990e951a20d5ba78a2,46,Mężczyzna,2022-06-11_09h28.46.201,task,2021.1.4,Win32,144.092219,6299f149e92ead563fba08ef,62a44420f8fcec8684542a3b,,,,,,,,,,,,,,,,,,,,,,,,,,,,,,,,,,,,,,,,,,,,,,,,,,,,,,,,,,,,,,,,,,,,,,,,,,,,,,,,,,,,,,,,,,,,"[""comma""]",0,[0.25699999999994816],71,0,71,0,1,,
,,,,,,,,,,,,612aad990e951a20d5ba78a2,46,Mężczyzna,2022-06-11_09h28.46.201,task,2021.1.4,Win32,144.092219,6299f149e92ead563fba08ef,62a44420f8fcec8684542a3b,,,,,,,,,,,,,,,,,,,,,,,,,,,,,,,,,,,,,,,,,,,,,,,,,,,,,,,,,,,,,,,,,,,,,,,,,,,,,,,,,,,,,,,,,,,,"[""comma""]",0,[0.24900000000002365],72,0,72,0,1,,
,,,,,,,,,,,,612aad990e951a20d5ba78a2,46,Mężczyzna,2022-06-11_09h28.46.201,task,2021.1.4,Win32,144.092219,6299f149e92ead563fba08ef,62a44420f8fcec8684542a3b,,,,,,,,,,,,,,,,,,,,,,,,,,,,,,,,,,,,,,,,,,,,,,,,,,,,,,,,,,,,,,,,,,,,,,,,,,,,,,,,,,,,,,,,,,,,"[""period""]",0,[0.22299999999995634],73,0,73,0,1,,
,,,,,,,,,,,,612aad990e951a20d5ba78a2,46,Mężczyzna,2022-06-11_09h28.46.201,task,2021.1.4,Win32,144.092219,6299f149e92ead563fba08ef,62a44420f8fcec8684542a3b,,,,,,,,,,,,,,,,,,,,,,,,,,,,,,,,,,,,,,,,,,,,,,,,,,,,,,,,,,,,,,,,,,,,,,,,,,,,,,,,,,,,,,,,,,,,"[""comma""]",0,[0.23500000000001364],74,0,74,0,1,,
,,,,,,,,,,,,612aad990e951a20d5ba78a2,46,Mężczyzna,2022-06-11_09h28.46.201,task,2021.1.4,Win32,144.092219,6299f149e92ead563fba08ef,62a44420f8fcec8684542a3b,,,,,,,,,,,,,,,,,,,,,,,,,,,,,,,,,,,,,,,,,,,,,,,,,,,,,,,,,,,,,,,,,,,,,,,,,,,,,,,,,,,,,,,,,,,,"[""comma""]",0,[0.22699999999997544],75,0,75,0,1,,
,,,,,,,,,,,,612aad990e951a20d5ba78a2,46,Mężczyzna,2022-06-11_09h28.46.201,task,2021.1.4,Win32,144.092219,6299f149e92ead563fba08ef,62a44420f8fcec8684542a3b,,,,,,,,,,,,,,,,,,,,,,,,,,,,,,,,,,,,,,,,,,,,,,,,,,,,,,,,,,,,,,,,,,,,,,,,,,,,,,,,,,,,,,,,,,,,"[""period""]",0,[0.2419999999999618],76,0,76,0,1,,
,,,,,,,,,,,,612aad990e951a20d5ba78a2,46,Mężczyzna,2022-06-11_09h28.46.201,task,2021.1.4,Win32,144.092219,6299f149e92ead563fba08ef,62a44420f8fcec8684542a3b,,,,,,,,,,,,,,,,,,,,,,,,,,,,,,,,,,,,,,,,,,,,,,,,,,,,,,,,,,,,,,,,,,,,,,,,,,,,,,,,,,,,,,,,,,,,"[""comma""]",0,[0.18600000000003547],77,0,77,0,1,,
,,,,,,,,,,,,612aad990e951a20d5ba78a2,46,Mężczyzna,2022-06-11_09h28.46.201,task,2021.1.4,Win32,144.092219,6299f149e92ead563fba08ef,62a44420f8fcec8684542a3b,,,,,,,,,,,,,,,,,,,,,,,,,,,,,,,,,,,,,,,,,,,,,,,,,,,,,,,,,,,,,,,,,,,,,,,,,,,,,,,,,,,,,,,,,,,,"[""period""]",0,[0.22500000000002274],78,0,78,0,1,,
,,,,,,,,,,,,612aad990e951a20d5ba78a2,46,Mężczyzna,2022-06-11_09h28.46.201,task,2021.1.4,Win32,144.092219,6299f149e92ead563fba08ef,62a44420f8fcec8684542a3b,,,,,,,,,,,,,,,,,,,,,,,,,,,,,,,,,,,,,,,,,,,,,,,,,,,,,,,,,,,,,,,,,,,,,,,,,,,,,,,,,,,,,,,,,,,,"[""comma""]",0,[0.19600000000002638],79,0,79,0,1,,
,,,,,,,,,,,,612aad990e951a20d5ba78a2,46,Mężczyzna,2022-06-11_09h28.46.201,task,2021.1.4,Win32,144.092219,6299f149e92ead563fba08ef,62a44420f8fcec8684542a3b,,,,,,,,,,,,,,,,,,,,,,,,,,,,,,,,,,,,,,,,,,,,,,,,,,,,,,,,,,,,,,,,,,,,,,,,,,,,,,,,,,,,,,,,,,,,"[""comma""]",0,[0.20699999999999363],80,0,80,0,1,,
,,,,,,,,,,,,612aad990e951a20d5ba78a2,46,Mężczyzna,2022-06-11_09h28.46.201,task,2021.1.4,Win32,144.092219,6299f149e92ead563fba08ef,62a44420f8fcec8684542a3b,,,,,,,,,,,,,,,,,,,,,,,,,,,,,,,,,,,,,,,,,,,,,,,,,,,,,,,,,,,,,,,,,,,,,,,,,,,,,,,,,,,,,,,,,,,,"[""period""]",0,[0.17799999999999727],81,0,81,0,1,,
,,,,,,,,,,,,612aad990e951a20d5ba78a2,46,Mężczyzna,2022-06-11_09h28.46.201,task,2021.1.4,Win32,144.092219,6299f149e92ead563fba08ef,62a44420f8fcec8684542a3b,,,,,,,,,,,,,,,,,,,,,,,,,,,,,,,,,,,,,,,,,,,,,,,,,,,,,,,,,,,,,,,,,,,,,,,,,,,,,,,,,,,,,,,,,,,,"[""period""]",0,[0.19799999999997908],82,0,82,0,1,,
,,,,,,,,,,,,612aad990e951a20d5ba78a2,46,Mężczyzna,2022-06-11_09h28.46.201,task,2021.1.4,Win32,144.092219,6299f149e92ead563fba08ef,62a44420f8fcec8684542a3b,,,,,,,,,,,,,,,,,,,,,,,,,,,,,,,,,,,,,,,,,,,,,,,,,,,,,,,,,,,,,,,,,,,,,,,,,,,,,,,,,,,,,,,,,,,,"[""comma""]",0,[0.21300000000007913],83,0,83,0,1,,
,,,,,,,,,,,,612aad990e951a20d5ba78a2,46,Mężczyzna,2022-06-11_09h28.46.201,task,2021.1.4,Win32,144.092219,6299f149e92ead563fba08ef,62a44420f8fcec8684542a3b,,,,,,,,,,,,,,,,,,,,,,,,,,,,,,,,,,,,,,,,,,,,,,,,,,,,,,,,,,,,,,,,,,,,,,,,,,,,,,,,,,,,,,,,,,,,"[""period""]",0,[0.3039999999999736],84,0,84,0,1,,
,,,,,,,,,,,,612aad990e951a20d5ba78a2,46,Mężczyzna,2022-06-11_09h28.46.201,task,2021.1.4,Win32,144.092219,6299f149e92ead563fba08ef,62a44420f8fcec8684542a3b,,,,,,,,,,,,,,,,,,,,,,,,,,,,,,,,,,,,,,,,,,,,,,,,,,,,,,,,,,,,,,,,,,,,,,,,,,,,,,,,,,,,,,,,,,,,"[""period""]",0,[0.31399999999996453],85,0,85,0,1,,
,,,,,,,,,,,,612aad990e951a20d5ba78a2,46,Mężczyzna,2022-06-11_09h28.46.201,task,2021.1.4,Win32,144.092219,6299f149e92ead563fba08ef,62a44420f8fcec8684542a3b,,,,,,,,,,,,,,,,,,,,,,,,,,,,,,,,,,,,,,,,,,,,,,,,,,,,,,,,,,,,,,,,,,,,,,,,,,,,,,,,,,,,,,,,,,,,"[""comma""]",0,[0.28700000000003456],86,0,86,0,1,,
,,,,,,,,,,,,612aad990e951a20d5ba78a2,46,Mężczyzna,2022-06-11_09h28.46.201,task,2021.1.4,Win32,144.092219,6299f149e92ead563fba08ef,62a44420f8fcec8684542a3b,,,,,,,,,,,,,,,,,,,,,,,,,,,,,,,,,,,,,,,,,,,,,,,,,,,,,,,,,,,,,,,,,,,,,,,,,,,,,,,,,,,,,,,,,,,,"[""period""]",0,[0.10599999999999454],87,0,87,0,1,,
,,,,,,,,,,,,612aad990e951a20d5ba78a2,46,Mężczyzna,2022-06-11_09h28.46.201,task,2021.1.4,Win32,144.092219,6299f149e92ead563fba08ef,62a44420f8fcec8684542a3b,,,,,,,,,,,,,,,,,,,,,,,,,,,,,,,,,,,,,,,,,,,,,,,,,,,,,,,,,,,,,,,,,,,,,,,,,,,,,,,,,,,,,,,,,,,,"[""comma""]",0,[0.2540000000001328],88,0,88,0,1,,
,,,,,,,,,,,,612aad990e951a20d5ba78a2,46,Mężczyzna,2022-06-11_09h28.46.201,task,2021.1.4,Win32,144.092219,6299f149e92ead563fba08ef,62a44420f8fcec8684542a3b,,,,,,,,,,,,,,,,,,,,,,,,,,,,,,,,,,,,,,,,,,,,,,,,,,,,,,,,,,,,,,,,,,,,,,,,,,,,,,,,,,,,,,,,,,,,"[""period""]",0,[0.26799999999980173],89,0,89,0,1,,
,,,,,,,,,,,,612aad990e951a20d5ba78a2,46,Mężczyzna,2022-06-11_09h28.46.201,task,2021.1.4,Win32,144.092219,6299f149e92ead563fba08ef,62a44420f8fcec8684542a3b,,,,,,,,,,,,,,,,,,,,,,,,,,,,,,,,,,,,,,,,,,,,,,,,,,,,,,,,,,,,,,,,,,,,,,,,,,,,,,,,,,,,,,,,,,,,"[""period""]",0,[0.2760000000000673],90,0,90,0,1,,
,,,,,,,,,,,,612aad990e951a20d5ba78a2,46,Mężczyzna,2022-06-11_09h28.46.201,task,2021.1.4,Win32,144.092219,6299f149e92ead563fba08ef,62a44420f8fcec8684542a3b,,,,,,,,,,,,,,,,,,,,,,,,,,,,,,,,,,,,,,,,,,,,,,,,,,,,,,,,,,,,,,,,,,,,,,,,,,,,,,,,,,,,,,,,,,,,"[""comma""]",0,[0.24500000000011823],91,0,91,0,1,,
,,,,,,,,,,,,612aad990e951a20d5ba78a2,46,Mężczyzna,2022-06-11_09h28.46.201,task,2021.1.4,Win32,144.092219,6299f149e92ead563fba08ef,62a44420f8fcec8684542a3b,,,,,,,,,,,,,,,,,,,,,,,,,,,,,,,,,,,,,,,,,,,,,,,,,,,,,,,,,,,,,,,,,,,,,,,,,,,,,,,,,,,,,,,,,,,,"[""period""]",0,[0.2400000000000091],92,0,92,0,1,,
,,,,,,,,,,,,612aad990e951a20d5ba78a2,46,Mężczyzna,2022-06-11_09h28.46.201,task,2021.1.4,Win32,144.092219,6299f149e92ead563fba08ef,62a44420f8fcec8684542a3b,,,,,,,,,,,,,,,,,,,,,,,,,,,,,,,,,,,,,,,,,,,,,,,,,,,,,,,,,,,,,,,,,,,,,,,,,,,,,,,,,,,,,,,,,,,,"[""comma""]",0,[0.22100000000000364],93,0,93,0,1,,
,,,,,,,,,,,,612aad990e951a20d5ba78a2,46,Mężczyzna,2022-06-11_09h28.46.201,task,2021.1.4,Win32,144.092219,6299f149e92ead563fba08ef,62a44420f8fcec8684542a3b,,,,,,,,,,,,,,,,,,,,,,,,,,,,,,,,,,,,,,,,,,,,,,,,,,,,,,,,,,,,,,,,,,,,,,,,,,,,,,,,,,,,,,,,,,,,"[""comma""]",0,[0.22299999999995634],94,0,94,0,1,,
,,,,,,,,,,,,612aad990e951a20d5ba78a2,46,Mężczyzna,2022-06-11_09h28.46.201,task,2021.1.4,Win32,144.092219,6299f149e92ead563fba08ef,62a44420f8fcec8684542a3b,,,,,,,,,,,,,,,,,,,,,,,,,,,,,,,,,,,,,,,,,,,,,,,,,,,,,,,,,,,,,,,,,,,,,,,,,,,,,,,,,,,,,,,,,,,,"[""comma""]",0,[0.34400000000005093],95,0,95,0,1,,
,,,,,,,,,,,,612aad990e951a20d5ba78a2,46,Mężczyzna,2022-06-11_09h28.46.201,task,2021.1.4,Win32,144.092219,6299f149e92ead563fba08ef,62a44420f8fcec8684542a3b,,,,,,,,,,,,,,,,,,,,,,,,,,,,,,,,,,,,,,,,,,,,,,,,,,,,,,,,,,,,,,,,,,,,,,,,,,,,,,,,,,,,,,,,,,,,"[""period""]",0,[0.22100000000000364],96,0,96,0,1,,
