key_resp_15.keys,key_resp_15.rt,key_resp_16.keys,key_resp_16.rt,key_resp_4.keys,key_resp_4.rt,next_letter.thisRepN,next_letter.thisTrialN,next_letter.thisN,next_letter.thisIndex,next_letter.ran,letter,participant,Wiek*,Płeć,date,expName,psychopyVersion,OS,frameRate,study_id,session,simple_recall,key_resp_5.keys,key_resp_5.rt,simple_recall_corr,simple_recall_corrkeys,next_level.thisRepN,next_level.thisTrialN,next_level.thisN,next_level.thisIndex,next_level.ran,key_resp_2.keys,key_resp_2.rt,digit_answer,key_resp.keys,key_resp.corr,key_resp.rt,RT_list,next_equation.thisRepN,next_equation.thisTrialN,next_equation.thisN,next_equation.thisIndex,next_equation.ran,Task,Trial,Problem,Operation_answer,processing_score,sumRT,meanRT,sumdiff,sd,RT,key_resp_3.keys,key_resp_3.rt,repeat_practice.thisRepN,repeat_practice.thisTrialN,repeat_practice.thisN,repeat_practice.thisIndex,repeat_practice.ran,key_resp_6.keys,key_resp_6.rt,key_resp_11.keys,key_resp_11.corr,key_resp_11.rt,operation_correct,repeat_if_wrong_prac.thisRepN,repeat_if_wrong_prac.thisTrialN,repeat_if_wrong_prac.thisN,repeat_if_wrong_prac.thisIndex,repeat_if_wrong_prac.ran,span_size_prac.thisRepN,span_size_prac.thisTrialN,span_size_prac.thisN,span_size_prac.thisIndex,span_size_prac.ran,complex_recall_practice,key_resp_9.keys,key_resp_9.corr,key_resp_9.rt,complex_prac_corr,span_recall_prac.thisRepN,span_recall_prac.thisTrialN,span_recall_prac.thisN,span_recall_prac.thisIndex,span_recall_prac.ran,key_resp_10.keys,key_resp_10.rt,key_resp_7.keys,key_resp_7.corr,key_resp_7.rt,repeat_if_wrong.thisRepN,repeat_if_wrong.thisTrialN,repeat_if_wrong.thisN,repeat_if_wrong.thisIndex,repeat_if_wrong.ran,span_size.thisRepN,span_size.thisTrialN,span_size.thisN,span_size.thisIndex,span_size.ran,complex_recall,key_resp_8.keys,key_resp_8.corr,key_resp_8.rt,complex_recall_corr,complex_recall_corrkeys,span_recall.thisRepN,span_recall.thisTrialN,span_recall.thisN,span_recall.thisIndex,span_recall.ran,key_resp_13.keys,key_resp_13.corr,key_resp_13.rt,random_loop.thisRepN,random_loop.thisTrialN,random_loop.thisN,random_loop.thisIndex,random_loop.ran,key_resp_12.keys,key_resp_12.rt
space,2.3732,space,87.9581,space,6.0291,0,0,0,0,1,X V Q F H G B L J M P D K C T S W R N Z,612ba6c594a6d54154a88ae7,21,Kobieta,2022-06-25_16h24.21.297,task,2021.1.4,Win32,60.02040694,6299f149e92ead563fba08ef,62b70e3fba0b4763d7a39e76,,,,,,,,,,,,,,,,,,,,,,,,,,,,,,,,,,,,,,,,,,,,,,,,,,,,,,,,,,,,,,,,,,,,,,,,,,,,,,,,,,,,,,,,,,,,,,,,,,,,,
,,,,,,1,0,1,0,1,X V Q F H G B L J M P D K C T S W R N Z,612ba6c594a6d54154a88ae7,21,Kobieta,2022-06-25_16h24.21.297,task,2021.1.4,Win32,60.02040694,6299f149e92ead563fba08ef,62b70e3fba0b4763d7a39e76,,,,,,,,,,,,,,,,,,,,,,,,,,,,,,,,,,,,,,,,,,,,,,,,,,,,,,,,,,,,,,,,,,,,,,,,,,,,,,,,,,,,,,,,,,,,,,,,,,,,,
,,,,,,,,,,,,612ba6c594a6d54154a88ae7,21,Kobieta,2022-06-25_16h24.21.297,task,2021.1.4,Win32,60.02040694,6299f149e92ead563fba08ef,62b70e3fba0b4763d7a39e76,zx,"[""z"",""x""]","[1.666199999995527,1.9936000000014928,2.3558999999985133]",0,ZM,0,0,0,0,1,,,,,,,,,,,,,,,,,,,,,,,,,,,,,,,,,,,,,,,,,,,,,,,,,,,,,,,,,,,,,,,,,,,,,,,,,,,,,,,,,,,,,,,,,,,
,,,,,,0,0,0,0,1,X V Q F H G B L J M P D K C T S W R N Z,612ba6c594a6d54154a88ae7,21,Kobieta,2022-06-25_16h24.21.297,task,2021.1.4,Win32,60.02040694,6299f149e92ead563fba08ef,62b70e3fba0b4763d7a39e76,,,,,,,,,,,,,,,,,,,,,,,,,,,,,,,,,,,,,,,,,,,,,,,,,,,,,,,,,,,,,,,,,,,,,,,,,,,,,,,,,,,,,,,,,,,,,,,,,,,,,
,,,,,,1,0,1,0,1,X V Q F H G B L J M P D K C T S W R N Z,612ba6c594a6d54154a88ae7,21,Kobieta,2022-06-25_16h24.21.297,task,2021.1.4,Win32,60.02040694,6299f149e92ead563fba08ef,62b70e3fba0b4763d7a39e76,,,,,,,,,,,,,,,,,,,,,,,,,,,,,,,,,,,,,,,,,,,,,,,,,,,,,,,,,,,,,,,,,,,,,,,,,,,,,,,,,,,,,,,,,,,,,,,,,,,,,
,,,,,,,,,,,,612ba6c594a6d54154a88ae7,21,Kobieta,2022-06-25_16h24.21.297,task,2021.1.4,Win32,60.02040694,6299f149e92ead563fba08ef,62b70e3fba0b4763d7a39e76,rl,"[""r"",""l""]","[1.333600000001482,1.5009000000059558,2.442200000002984]",1,RL,1,0,1,0,1,,,,,,,,,,,,,,,,,,,,,,,,,,,,,,,,,,,,,,,,,,,,,,,,,,,,,,,,,,,,,,,,,,,,,,,,,,,,,,,,,,,,,,,,,,,
,,,,,,0,0,0,0,1,X V Q F H G B L J M P D K C T S W R N Z,612ba6c594a6d54154a88ae7,21,Kobieta,2022-06-25_16h24.21.297,task,2021.1.4,Win32,60.02040694,6299f149e92ead563fba08ef,62b70e3fba0b4763d7a39e76,,,,,,,,,,,,,,,,,,,,,,,,,,,,,,,,,,,,,,,,,,,,,,,,,,,,,,,,,,,,,,,,,,,,,,,,,,,,,,,,,,,,,,,,,,,,,,,,,,,,,
,,,,,,1,0,1,0,1,X V Q F H G B L J M P D K C T S W R N Z,612ba6c594a6d54154a88ae7,21,Kobieta,2022-06-25_16h24.21.297,task,2021.1.4,Win32,60.02040694,6299f149e92ead563fba08ef,62b70e3fba0b4763d7a39e76,,,,,,,,,,,,,,,,,,,,,,,,,,,,,,,,,,,,,,,,,,,,,,,,,,,,,,,,,,,,,,,,,,,,,,,,,,,,,,,,,,,,,,,,,,,,,,,,,,,,,
,,,,,,,,,,,,612ba6c594a6d54154a88ae7,21,Kobieta,2022-06-25_16h24.21.297,task,2021.1.4,Win32,60.02040694,6299f149e92ead563fba08ef,62b70e3fba0b4763d7a39e76,rk,"[""r"",""k""]","[0.35760000000149716,0.42180000000448103,0.5843000000044754]",1,RK,2,0,2,0,1,,,,,,,,,,,,,,,,,,,,,,,,,,,,,,,,,,,,,,,,,,,,,,,,,,,,,,,,,,,,,,,,,,,,,,,,,,,,,,,,,,,,,,,,,,,
,,,,,,0,0,0,0,1,X V Q F H G B L J M P D K C T S W R N Z,612ba6c594a6d54154a88ae7,21,Kobieta,2022-06-25_16h24.21.297,task,2021.1.4,Win32,60.02040694,6299f149e92ead563fba08ef,62b70e3fba0b4763d7a39e76,,,,,,,,,,,,,,,,,,,,,,,,,,,,,,,,,,,,,,,,,,,,,,,,,,,,,,,,,,,,,,,,,,,,,,,,,,,,,,,,,,,,,,,,,,,,,,,,,,,,,
,,,,,,1,0,1,0,1,X V Q F H G B L J M P D K C T S W R N Z,612ba6c594a6d54154a88ae7,21,Kobieta,2022-06-25_16h24.21.297,task,2021.1.4,Win32,60.02040694,6299f149e92ead563fba08ef,62b70e3fba0b4763d7a39e76,,,,,,,,,,,,,,,,,,,,,,,,,,,,,,,,,,,,,,,,,,,,,,,,,,,,,,,,,,,,,,,,,,,,,,,,,,,,,,,,,,,,,,,,,,,,,,,,,,,,,
,,,,,,2,0,2,0,1,X V Q F H G B L J M P D K C T S W R N Z,612ba6c594a6d54154a88ae7,21,Kobieta,2022-06-25_16h24.21.297,task,2021.1.4,Win32,60.02040694,6299f149e92ead563fba08ef,62b70e3fba0b4763d7a39e76,,,,,,,,,,,,,,,,,,,,,,,,,,,,,,,,,,,,,,,,,,,,,,,,,,,,,,,,,,,,,,,,,,,,,,,,,,,,,,,,,,,,,,,,,,,,,,,,,,,,,
,,,,,,,,,,,,612ba6c594a6d54154a88ae7,21,Kobieta,2022-06-25_16h24.21.297,task,2021.1.4,Win32,60.02040694,6299f149e92ead563fba08ef,62b70e3fba0b4763d7a39e76,wxk,"[""w"",""x"",""k""]","[0.6744999999999948,0.8174000000059607,0.9061000000014872,1.0504999999999995]",1,WXK,3,0,3,0,1,,,,,,,,,,,,,,,,,,,,,,,,,,,,,,,,,,,,,,,,,,,,,,,,,,,,,,,,,,,,,,,,,,,,,,,,,,,,,,,,,,,,,,,,,,,
,,,,,,0,0,0,0,1,X V Q F H G B L J M P D K C T S W R N Z,612ba6c594a6d54154a88ae7,21,Kobieta,2022-06-25_16h24.21.297,task,2021.1.4,Win32,60.02040694,6299f149e92ead563fba08ef,62b70e3fba0b4763d7a39e76,,,,,,,,,,,,,,,,,,,,,,,,,,,,,,,,,,,,,,,,,,,,,,,,,,,,,,,,,,,,,,,,,,,,,,,,,,,,,,,,,,,,,,,,,,,,,,,,,,,,,
,,,,,,1,0,1,0,1,X V Q F H G B L J M P D K C T S W R N Z,612ba6c594a6d54154a88ae7,21,Kobieta,2022-06-25_16h24.21.297,task,2021.1.4,Win32,60.02040694,6299f149e92ead563fba08ef,62b70e3fba0b4763d7a39e76,,,,,,,,,,,,,,,,,,,,,,,,,,,,,,,,,,,,,,,,,,,,,,,,,,,,,,,,,,,,,,,,,,,,,,,,,,,,,,,,,,,,,,,,,,,,,,,,,,,,,
,,,,,,2,0,2,0,1,X V Q F H G B L J M P D K C T S W R N Z,612ba6c594a6d54154a88ae7,21,Kobieta,2022-06-25_16h24.21.297,task,2021.1.4,Win32,60.02040694,6299f149e92ead563fba08ef,62b70e3fba0b4763d7a39e76,,,,,,,,,,,,,,,,,,,,,,,,,,,,,,,,,,,,,,,,,,,,,,,,,,,,,,,,,,,,,,,,,,,,,,,,,,,,,,,,,,,,,,,,,,,,,,,,,,,,,
,,,,,,,,,,,,612ba6c594a6d54154a88ae7,21,Kobieta,2022-06-25_16h24.21.297,task,2021.1.4,Win32,60.02040694,6299f149e92ead563fba08ef,62b70e3fba0b4763d7a39e76,gpp,"[""g"",""p"",""p""]","[0.45949999999999136,0.8505000000000109,0.9790000000000134,1.4031000000015013]",1,GPP,4,0,4,0,1,,,,,,,,,,,,,,,,,,,,,,,,,,,,,,,,,,,,,,,,,,,,,,,,,,,,,,,,,,,,,,,,,,,,,,,,,,,,,,,,,,,,,,,,,,,
,,,,,,0,0,0,0,1,X V Q F H G B L J M P D K C T S W R N Z,612ba6c594a6d54154a88ae7,21,Kobieta,2022-06-25_16h24.21.297,task,2021.1.4,Win32,60.02040694,6299f149e92ead563fba08ef,62b70e3fba0b4763d7a39e76,,,,,,,,,,,,,,,,,,,,,,,,,,,,,,,,,,,,,,,,,,,,,,,,,,,,,,,,,,,,,,,,,,,,,,,,,,,,,,,,,,,,,,,,,,,,,,,,,,,,,
,,,,,,1,0,1,0,1,X V Q F H G B L J M P D K C T S W R N Z,612ba6c594a6d54154a88ae7,21,Kobieta,2022-06-25_16h24.21.297,task,2021.1.4,Win32,60.02040694,6299f149e92ead563fba08ef,62b70e3fba0b4763d7a39e76,,,,,,,,,,,,,,,,,,,,,,,,,,,,,,,,,,,,,,,,,,,,,,,,,,,,,,,,,,,,,,,,,,,,,,,,,,,,,,,,,,,,,,,,,,,,,,,,,,,,,
,,,,,,2,0,2,0,1,X V Q F H G B L J M P D K C T S W R N Z,612ba6c594a6d54154a88ae7,21,Kobieta,2022-06-25_16h24.21.297,task,2021.1.4,Win32,60.02040694,6299f149e92ead563fba08ef,62b70e3fba0b4763d7a39e76,,,,,,,,,,,,,,,,,,,,,,,,,,,,,,,,,,,,,,,,,,,,,,,,,,,,,,,,,,,,,,,,,,,,,,,,,,,,,,,,,,,,,,,,,,,,,,,,,,,,,
,,,,,,3,0,3,0,1,X V Q F H G B L J M P D K C T S W R N Z,612ba6c594a6d54154a88ae7,21,Kobieta,2022-06-25_16h24.21.297,task,2021.1.4,Win32,60.02040694,6299f149e92ead563fba08ef,62b70e3fba0b4763d7a39e76,,,,,,,,,,,,,,,,,,,,,,,,,,,,,,,,,,,,,,,,,,,,,,,,,,,,,,,,,,,,,,,,,,,,,,,,,,,,,,,,,,,,,,,,,,,,,,,,,,,,,
,,,,,,,,,,,,612ba6c594a6d54154a88ae7,21,Kobieta,2022-06-25_16h24.21.297,task,2021.1.4,Win32,60.02040694,6299f149e92ead563fba08ef,62b70e3fba0b4763d7a39e76,dxmv,"[""d"",""x"",""m"",""v""]","[0.38349999999999795,0.6030000000000086,1.216600000001506,1.5330000000000155,1.833500000000015]",1,DXMV,5,0,5,0,1,,,,,,,,,,,,,,,,,,,,,,,,,,,,,,,,,,,,,,,,,,,,,,,,,,,,,,,,,,,,,,,,,,,,,,,,,,,,,,,,,,,,,,,,,,,
,,,,,,0,0,0,0,1,X V Q F H G B L J M P D K C T S W R N Z,612ba6c594a6d54154a88ae7,21,Kobieta,2022-06-25_16h24.21.297,task,2021.1.4,Win32,60.02040694,6299f149e92ead563fba08ef,62b70e3fba0b4763d7a39e76,,,,,,,,,,,,,,,,,,,,,,,,,,,,,,,,,,,,,,,,,,,,,,,,,,,,,,,,,,,,,,,,,,,,,,,,,,,,,,,,,,,,,,,,,,,,,,,,,,,,,
,,,,,,1,0,1,0,1,X V Q F H G B L J M P D K C T S W R N Z,612ba6c594a6d54154a88ae7,21,Kobieta,2022-06-25_16h24.21.297,task,2021.1.4,Win32,60.02040694,6299f149e92ead563fba08ef,62b70e3fba0b4763d7a39e76,,,,,,,,,,,,,,,,,,,,,,,,,,,,,,,,,,,,,,,,,,,,,,,,,,,,,,,,,,,,,,,,,,,,,,,,,,,,,,,,,,,,,,,,,,,,,,,,,,,,,
,,,,,,2,0,2,0,1,X V Q F H G B L J M P D K C T S W R N Z,612ba6c594a6d54154a88ae7,21,Kobieta,2022-06-25_16h24.21.297,task,2021.1.4,Win32,60.02040694,6299f149e92ead563fba08ef,62b70e3fba0b4763d7a39e76,,,,,,,,,,,,,,,,,,,,,,,,,,,,,,,,,,,,,,,,,,,,,,,,,,,,,,,,,,,,,,,,,,,,,,,,,,,,,,,,,,,,,,,,,,,,,,,,,,,,,
,,,,,,3,0,3,0,1,X V Q F H G B L J M P D K C T S W R N Z,612ba6c594a6d54154a88ae7,21,Kobieta,2022-06-25_16h24.21.297,task,2021.1.4,Win32,60.02040694,6299f149e92ead563fba08ef,62b70e3fba0b4763d7a39e76,,,,,,,,,,,,,,,,,,,,,,,,,,,,,,,,,,,,,,,,,,,,,,,,,,,,,,,,,,,,,,,,,,,,,,,,,,,,,,,,,,,,,,,,,,,,,,,,,,,,,
,,,,,,,,,,,,612ba6c594a6d54154a88ae7,21,Kobieta,2022-06-25_16h24.21.297,task,2021.1.4,Win32,60.02040694,6299f149e92ead563fba08ef,62b70e3fba0b4763d7a39e76,gflc,"[""g"",""f"",""l"",""c""]","[0.8752999999970257,1.0227999999970336,1.351399999998506,1.7501999999955444,2.022600000001489]",1,GFLC,6,0,6,0,1,,,,,,,,,,,,,,,,,,,,,,,,,,,,,,,,,,,,,,,,,,,,,,,,,,,,,,,,,,,,,,,,,,,,,,,,,,,,,,,,,,,,,,,,,,,
,,,,,,0,0,0,0,1,X V Q F H G B L J M P D K C T S W R N Z,612ba6c594a6d54154a88ae7,21,Kobieta,2022-06-25_16h24.21.297,task,2021.1.4,Win32,60.02040694,6299f149e92ead563fba08ef,62b70e3fba0b4763d7a39e76,,,,,,,,,,,,,,,,,,,,,,,,,,,,,,,,,,,,,,,,,,,,,,,,,,,,,,,,,,,,,,,,,,,,,,,,,,,,,,,,,,,,,,,,,,,,,,,,,,,,,
,,,,,,1,0,1,0,1,X V Q F H G B L J M P D K C T S W R N Z,612ba6c594a6d54154a88ae7,21,Kobieta,2022-06-25_16h24.21.297,task,2021.1.4,Win32,60.02040694,6299f149e92ead563fba08ef,62b70e3fba0b4763d7a39e76,,,,,,,,,,,,,,,,,,,,,,,,,,,,,,,,,,,,,,,,,,,,,,,,,,,,,,,,,,,,,,,,,,,,,,,,,,,,,,,,,,,,,,,,,,,,,,,,,,,,,
,,,,,,2,0,2,0,1,X V Q F H G B L J M P D K C T S W R N Z,612ba6c594a6d54154a88ae7,21,Kobieta,2022-06-25_16h24.21.297,task,2021.1.4,Win32,60.02040694,6299f149e92ead563fba08ef,62b70e3fba0b4763d7a39e76,,,,,,,,,,,,,,,,,,,,,,,,,,,,,,,,,,,,,,,,,,,,,,,,,,,,,,,,,,,,,,,,,,,,,,,,,,,,,,,,,,,,,,,,,,,,,,,,,,,,,
,,,,,,3,0,3,0,1,X V Q F H G B L J M P D K C T S W R N Z,612ba6c594a6d54154a88ae7,21,Kobieta,2022-06-25_16h24.21.297,task,2021.1.4,Win32,60.02040694,6299f149e92ead563fba08ef,62b70e3fba0b4763d7a39e76,,,,,,,,,,,,,,,,,,,,,,,,,,,,,,,,,,,,,,,,,,,,,,,,,,,,,,,,,,,,,,,,,,,,,,,,,,,,,,,,,,,,,,,,,,,,,,,,,,,,,
,,,,,,4,0,4,0,1,X V Q F H G B L J M P D K C T S W R N Z,612ba6c594a6d54154a88ae7,21,Kobieta,2022-06-25_16h24.21.297,task,2021.1.4,Win32,60.02040694,6299f149e92ead563fba08ef,62b70e3fba0b4763d7a39e76,,,,,,,,,,,,,,,,,,,,,,,,,,,,,,,,,,,,,,,,,,,,,,,,,,,,,,,,,,,,,,,,,,,,,,,,,,,,,,,,,,,,,,,,,,,,,,,,,,,,,
,,,,,,,,,,,,612ba6c594a6d54154a88ae7,21,Kobieta,2022-06-25_16h24.21.297,task,2021.1.4,Win32,60.02040694,6299f149e92ead563fba08ef,62b70e3fba0b4763d7a39e76,sqnpr,"[""s"",""q"",""n"",""p"",""r""]","[1.9323999999985233,2.0349999999999966,2.218600000001487,2.3637000000029786,2.567399999998514,2.671899999998516]",1,SQNPR,7,0,7,0,1,,,,,,,,,,,,,,,,,,,,,,,,,,,,,,,,,,,,,,,,,,,,,,,,,,,,,,,,,,,,,,,,,,,,,,,,,,,,,,,,,,,,,,,,,,,
,,,,,,0,0,0,0,1,X V Q F H G B L J M P D K C T S W R N Z,612ba6c594a6d54154a88ae7,21,Kobieta,2022-06-25_16h24.21.297,task,2021.1.4,Win32,60.02040694,6299f149e92ead563fba08ef,62b70e3fba0b4763d7a39e76,,,,,,,,,,,,,,,,,,,,,,,,,,,,,,,,,,,,,,,,,,,,,,,,,,,,,,,,,,,,,,,,,,,,,,,,,,,,,,,,,,,,,,,,,,,,,,,,,,,,,
,,,,,,1,0,1,0,1,X V Q F H G B L J M P D K C T S W R N Z,612ba6c594a6d54154a88ae7,21,Kobieta,2022-06-25_16h24.21.297,task,2021.1.4,Win32,60.02040694,6299f149e92ead563fba08ef,62b70e3fba0b4763d7a39e76,,,,,,,,,,,,,,,,,,,,,,,,,,,,,,,,,,,,,,,,,,,,,,,,,,,,,,,,,,,,,,,,,,,,,,,,,,,,,,,,,,,,,,,,,,,,,,,,,,,,,
,,,,,,2,0,2,0,1,X V Q F H G B L J M P D K C T S W R N Z,612ba6c594a6d54154a88ae7,21,Kobieta,2022-06-25_16h24.21.297,task,2021.1.4,Win32,60.02040694,6299f149e92ead563fba08ef,62b70e3fba0b4763d7a39e76,,,,,,,,,,,,,,,,,,,,,,,,,,,,,,,,,,,,,,,,,,,,,,,,,,,,,,,,,,,,,,,,,,,,,,,,,,,,,,,,,,,,,,,,,,,,,,,,,,,,,
,,,,,,3,0,3,0,1,X V Q F H G B L J M P D K C T S W R N Z,612ba6c594a6d54154a88ae7,21,Kobieta,2022-06-25_16h24.21.297,task,2021.1.4,Win32,60.02040694,6299f149e92ead563fba08ef,62b70e3fba0b4763d7a39e76,,,,,,,,,,,,,,,,,,,,,,,,,,,,,,,,,,,,,,,,,,,,,,,,,,,,,,,,,,,,,,,,,,,,,,,,,,,,,,,,,,,,,,,,,,,,,,,,,,,,,
,,,,,,4,0,4,0,1,X V Q F H G B L J M P D K C T S W R N Z,612ba6c594a6d54154a88ae7,21,Kobieta,2022-06-25_16h24.21.297,task,2021.1.4,Win32,60.02040694,6299f149e92ead563fba08ef,62b70e3fba0b4763d7a39e76,,,,,,,,,,,,,,,,,,,,,,,,,,,,,,,,,,,,,,,,,,,,,,,,,,,,,,,,,,,,,,,,,,,,,,,,,,,,,,,,,,,,,,,,,,,,,,,,,,,,,
,,,,,,,,,,,,612ba6c594a6d54154a88ae7,21,Kobieta,2022-06-25_16h24.21.297,task,2021.1.4,Win32,60.02040694,6299f149e92ead563fba08ef,62b70e3fba0b4763d7a39e76,vrxcn,"[""v"",""r"",""x"",""c"",""n""]","[0.9421000000014885,1.2488000000044792,1.570800000004482,1.874400000005977,2.242600000001488,2.515300000004487]",1,VRXCN,8,0,8,0,1,,,,,,,,,,,,,,,,,,,,,,,,,,,,,,,,,,,,,,,,,,,,,,,,,,,,,,,,,,,,,,,,,,,,,,,,,,,,,,,,,,,,,,,,,,,
,,,,,,0,0,0,0,1,X V Q F H G B L J M P D K C T S W R N Z,612ba6c594a6d54154a88ae7,21,Kobieta,2022-06-25_16h24.21.297,task,2021.1.4,Win32,60.02040694,6299f149e92ead563fba08ef,62b70e3fba0b4763d7a39e76,,,,,,,,,,,,,,,,,,,,,,,,,,,,,,,,,,,,,,,,,,,,,,,,,,,,,,,,,,,,,,,,,,,,,,,,,,,,,,,,,,,,,,,,,,,,,,,,,,,,,
,,,,,,1,0,1,0,1,X V Q F H G B L J M P D K C T S W R N Z,612ba6c594a6d54154a88ae7,21,Kobieta,2022-06-25_16h24.21.297,task,2021.1.4,Win32,60.02040694,6299f149e92ead563fba08ef,62b70e3fba0b4763d7a39e76,,,,,,,,,,,,,,,,,,,,,,,,,,,,,,,,,,,,,,,,,,,,,,,,,,,,,,,,,,,,,,,,,,,,,,,,,,,,,,,,,,,,,,,,,,,,,,,,,,,,,
,,,,,,2,0,2,0,1,X V Q F H G B L J M P D K C T S W R N Z,612ba6c594a6d54154a88ae7,21,Kobieta,2022-06-25_16h24.21.297,task,2021.1.4,Win32,60.02040694,6299f149e92ead563fba08ef,62b70e3fba0b4763d7a39e76,,,,,,,,,,,,,,,,,,,,,,,,,,,,,,,,,,,,,,,,,,,,,,,,,,,,,,,,,,,,,,,,,,,,,,,,,,,,,,,,,,,,,,,,,,,,,,,,,,,,,
,,,,,,3,0,3,0,1,X V Q F H G B L J M P D K C T S W R N Z,612ba6c594a6d54154a88ae7,21,Kobieta,2022-06-25_16h24.21.297,task,2021.1.4,Win32,60.02040694,6299f149e92ead563fba08ef,62b70e3fba0b4763d7a39e76,,,,,,,,,,,,,,,,,,,,,,,,,,,,,,,,,,,,,,,,,,,,,,,,,,,,,,,,,,,,,,,,,,,,,,,,,,,,,,,,,,,,,,,,,,,,,,,,,,,,,
,,,,,,4,0,4,0,1,X V Q F H G B L J M P D K C T S W R N Z,612ba6c594a6d54154a88ae7,21,Kobieta,2022-06-25_16h24.21.297,task,2021.1.4,Win32,60.02040694,6299f149e92ead563fba08ef,62b70e3fba0b4763d7a39e76,,,,,,,,,,,,,,,,,,,,,,,,,,,,,,,,,,,,,,,,,,,,,,,,,,,,,,,,,,,,,,,,,,,,,,,,,,,,,,,,,,,,,,,,,,,,,,,,,,,,,
,,,,,,5,0,5,0,1,X V Q F H G B L J M P D K C T S W R N Z,612ba6c594a6d54154a88ae7,21,Kobieta,2022-06-25_16h24.21.297,task,2021.1.4,Win32,60.02040694,6299f149e92ead563fba08ef,62b70e3fba0b4763d7a39e76,,,,,,,,,,,,,,,,,,,,,,,,,,,,,,,,,,,,,,,,,,,,,,,,,,,,,,,,,,,,,,,,,,,,,,,,,,,,,,,,,,,,,,,,,,,,,,,,,,,,,
,,,,,,,,,,,,612ba6c594a6d54154a88ae7,21,Kobieta,2022-06-25_16h24.21.297,task,2021.1.4,Win32,60.02040694,6299f149e92ead563fba08ef,62b70e3fba0b4763d7a39e76,hmmflf,"[""h"",""m"",""m"",""f"",""l"",""f""]","[0.40429999999702204,0.8755999999940514,1.0258999999985292,1.4567999999970311,1.849399999998525,2.231500000000011,2.520399999998517]",1,HMMFLF,9,0,9,0,1,,,,,,,,,,,,,,,,,,,,,,,,,,,,,,,,,,,,,,,,,,,,,,,,,,,,,,,,,,,,,,,,,,,,,,,,,,,,,,,,,,,,,,,,,,,
,,,,,,0,0,0,0,1,X V Q F H G B L J M P D K C T S W R N Z,612ba6c594a6d54154a88ae7,21,Kobieta,2022-06-25_16h24.21.297,task,2021.1.4,Win32,60.02040694,6299f149e92ead563fba08ef,62b70e3fba0b4763d7a39e76,,,,,,,,,,,,,,,,,,,,,,,,,,,,,,,,,,,,,,,,,,,,,,,,,,,,,,,,,,,,,,,,,,,,,,,,,,,,,,,,,,,,,,,,,,,,,,,,,,,,,
,,,,,,1,0,1,0,1,X V Q F H G B L J M P D K C T S W R N Z,612ba6c594a6d54154a88ae7,21,Kobieta,2022-06-25_16h24.21.297,task,2021.1.4,Win32,60.02040694,6299f149e92ead563fba08ef,62b70e3fba0b4763d7a39e76,,,,,,,,,,,,,,,,,,,,,,,,,,,,,,,,,,,,,,,,,,,,,,,,,,,,,,,,,,,,,,,,,,,,,,,,,,,,,,,,,,,,,,,,,,,,,,,,,,,,,
,,,,,,2,0,2,0,1,X V Q F H G B L J M P D K C T S W R N Z,612ba6c594a6d54154a88ae7,21,Kobieta,2022-06-25_16h24.21.297,task,2021.1.4,Win32,60.02040694,6299f149e92ead563fba08ef,62b70e3fba0b4763d7a39e76,,,,,,,,,,,,,,,,,,,,,,,,,,,,,,,,,,,,,,,,,,,,,,,,,,,,,,,,,,,,,,,,,,,,,,,,,,,,,,,,,,,,,,,,,,,,,,,,,,,,,
,,,,,,3,0,3,0,1,X V Q F H G B L J M P D K C T S W R N Z,612ba6c594a6d54154a88ae7,21,Kobieta,2022-06-25_16h24.21.297,task,2021.1.4,Win32,60.02040694,6299f149e92ead563fba08ef,62b70e3fba0b4763d7a39e76,,,,,,,,,,,,,,,,,,,,,,,,,,,,,,,,,,,,,,,,,,,,,,,,,,,,,,,,,,,,,,,,,,,,,,,,,,,,,,,,,,,,,,,,,,,,,,,,,,,,,
,,,,,,4,0,4,0,1,X V Q F H G B L J M P D K C T S W R N Z,612ba6c594a6d54154a88ae7,21,Kobieta,2022-06-25_16h24.21.297,task,2021.1.4,Win32,60.02040694,6299f149e92ead563fba08ef,62b70e3fba0b4763d7a39e76,,,,,,,,,,,,,,,,,,,,,,,,,,,,,,,,,,,,,,,,,,,,,,,,,,,,,,,,,,,,,,,,,,,,,,,,,,,,,,,,,,,,,,,,,,,,,,,,,,,,,
,,,,,,5,0,5,0,1,X V Q F H G B L J M P D K C T S W R N Z,612ba6c594a6d54154a88ae7,21,Kobieta,2022-06-25_16h24.21.297,task,2021.1.4,Win32,60.02040694,6299f149e92ead563fba08ef,62b70e3fba0b4763d7a39e76,,,,,,,,,,,,,,,,,,,,,,,,,,,,,,,,,,,,,,,,,,,,,,,,,,,,,,,,,,,,,,,,,,,,,,,,,,,,,,,,,,,,,,,,,,,,,,,,,,,,,
,,,,,,,,,,,,612ba6c594a6d54154a88ae7,21,Kobieta,2022-06-25_16h24.21.297,task,2021.1.4,Win32,60.02040694,6299f149e92ead563fba08ef,62b70e3fba0b4763d7a39e76,wvrxtn,"[""w"",""v"",""r"",""x"",""t"",""n""]","[0.37489999999851875,0.5743999999985192,0.8692999999970255,1.1483999999985315,1.2910000000000252,1.748899999998514,511.0547000000029]",0,WVRXTP,10,0,10,0,1,,,,,,,,,,,,,,,,,,,,,,,,,,,,,,,,,,,,,,,,,,,,,,,,,,,,,,,,,,,,,,,,,,,,,,,,,,,,,,,,,,,,,,,,,,,
,,,,,,0,0,0,0,1,X V Q F H G B L J M P D K C T S W R N Z,612ba6c594a6d54154a88ae7,21,Kobieta,2022-06-25_16h24.21.297,task,2021.1.4,Win32,60.02040694,6299f149e92ead563fba08ef,62b70e3fba0b4763d7a39e76,,,,,,,,,,,,,,,,,,,,,,,,,,,,,,,,,,,,,,,,,,,,,,,,,,,,,,,,,,,,,,,,,,,,,,,,,,,,,,,,,,,,,,,,,,,,,,,,,,,,,
,,,,,,1,0,1,0,1,X V Q F H G B L J M P D K C T S W R N Z,612ba6c594a6d54154a88ae7,21,Kobieta,2022-06-25_16h24.21.297,task,2021.1.4,Win32,60.02040694,6299f149e92ead563fba08ef,62b70e3fba0b4763d7a39e76,,,,,,,,,,,,,,,,,,,,,,,,,,,,,,,,,,,,,,,,,,,,,,,,,,,,,,,,,,,,,,,,,,,,,,,,,,,,,,,,,,,,,,,,,,,,,,,,,,,,,
,,,,,,2,0,2,0,1,X V Q F H G B L J M P D K C T S W R N Z,612ba6c594a6d54154a88ae7,21,Kobieta,2022-06-25_16h24.21.297,task,2021.1.4,Win32,60.02040694,6299f149e92ead563fba08ef,62b70e3fba0b4763d7a39e76,,,,,,,,,,,,,,,,,,,,,,,,,,,,,,,,,,,,,,,,,,,,,,,,,,,,,,,,,,,,,,,,,,,,,,,,,,,,,,,,,,,,,,,,,,,,,,,,,,,,,
,,,,,,3,0,3,0,1,X V Q F H G B L J M P D K C T S W R N Z,612ba6c594a6d54154a88ae7,21,Kobieta,2022-06-25_16h24.21.297,task,2021.1.4,Win32,60.02040694,6299f149e92ead563fba08ef,62b70e3fba0b4763d7a39e76,,,,,,,,,,,,,,,,,,,,,,,,,,,,,,,,,,,,,,,,,,,,,,,,,,,,,,,,,,,,,,,,,,,,,,,,,,,,,,,,,,,,,,,,,,,,,,,,,,,,,
,,,,,,4,0,4,0,1,X V Q F H G B L J M P D K C T S W R N Z,612ba6c594a6d54154a88ae7,21,Kobieta,2022-06-25_16h24.21.297,task,2021.1.4,Win32,60.02040694,6299f149e92ead563fba08ef,62b70e3fba0b4763d7a39e76,,,,,,,,,,,,,,,,,,,,,,,,,,,,,,,,,,,,,,,,,,,,,,,,,,,,,,,,,,,,,,,,,,,,,,,,,,,,,,,,,,,,,,,,,,,,,,,,,,,,,
,,,,,,5,0,5,0,1,X V Q F H G B L J M P D K C T S W R N Z,612ba6c594a6d54154a88ae7,21,Kobieta,2022-06-25_16h24.21.297,task,2021.1.4,Win32,60.02040694,6299f149e92ead563fba08ef,62b70e3fba0b4763d7a39e76,,,,,,,,,,,,,,,,,,,,,,,,,,,,,,,,,,,,,,,,,,,,,,,,,,,,,,,,,,,,,,,,,,,,,,,,,,,,,,,,,,,,,,,,,,,,,,,,,,,,,
,,,,,,,,,,,,612ba6c594a6d54154a88ae7,21,Kobieta,2022-06-25_16h24.21.297,task,2021.1.4,Win32,60.02040694,6299f149e92ead563fba08ef,62b70e3fba0b4763d7a39e76,xjpzhd,"[""x"",""j"",""p"",""z"",""h"",""d""]","[0.4083999999985508,0.54849999999999,0.7195000000000391,1.2467000000029884,1.4371000000014647,2.0592999999970516,71.39660000000151]",1,XJPZHD,11,0,11,0,1,,,,,,,,,,,,,,,,,,,,,,,,,,,,,,,,,,,,,,,,,,,,,,,,,,,,,,,,,,,,,,,,,,,,,,,,,,,,,,,,,,,,,,,,,,,
,,,,,,0,0,0,0,1,X V Q F H G B L J M P D K C T S W R N Z,612ba6c594a6d54154a88ae7,21,Kobieta,2022-06-25_16h24.21.297,task,2021.1.4,Win32,60.02040694,6299f149e92ead563fba08ef,62b70e3fba0b4763d7a39e76,,,,,,,,,,,,,,,,,,,,,,,,,,,,,,,,,,,,,,,,,,,,,,,,,,,,,,,,,,,,,,,,,,,,,,,,,,,,,,,,,,,,,,,,,,,,,,,,,,,,,
,,,,,,1,0,1,0,1,X V Q F H G B L J M P D K C T S W R N Z,612ba6c594a6d54154a88ae7,21,Kobieta,2022-06-25_16h24.21.297,task,2021.1.4,Win32,60.02040694,6299f149e92ead563fba08ef,62b70e3fba0b4763d7a39e76,,,,,,,,,,,,,,,,,,,,,,,,,,,,,,,,,,,,,,,,,,,,,,,,,,,,,,,,,,,,,,,,,,,,,,,,,,,,,,,,,,,,,,,,,,,,,,,,,,,,,
,,,,,,2,0,2,0,1,X V Q F H G B L J M P D K C T S W R N Z,612ba6c594a6d54154a88ae7,21,Kobieta,2022-06-25_16h24.21.297,task,2021.1.4,Win32,60.02040694,6299f149e92ead563fba08ef,62b70e3fba0b4763d7a39e76,,,,,,,,,,,,,,,,,,,,,,,,,,,,,,,,,,,,,,,,,,,,,,,,,,,,,,,,,,,,,,,,,,,,,,,,,,,,,,,,,,,,,,,,,,,,,,,,,,,,,
,,,,,,3,0,3,0,1,X V Q F H G B L J M P D K C T S W R N Z,612ba6c594a6d54154a88ae7,21,Kobieta,2022-06-25_16h24.21.297,task,2021.1.4,Win32,60.02040694,6299f149e92ead563fba08ef,62b70e3fba0b4763d7a39e76,,,,,,,,,,,,,,,,,,,,,,,,,,,,,,,,,,,,,,,,,,,,,,,,,,,,,,,,,,,,,,,,,,,,,,,,,,,,,,,,,,,,,,,,,,,,,,,,,,,,,
,,,,,,4,0,4,0,1,X V Q F H G B L J M P D K C T S W R N Z,612ba6c594a6d54154a88ae7,21,Kobieta,2022-06-25_16h24.21.297,task,2021.1.4,Win32,60.02040694,6299f149e92ead563fba08ef,62b70e3fba0b4763d7a39e76,,,,,,,,,,,,,,,,,,,,,,,,,,,,,,,,,,,,,,,,,,,,,,,,,,,,,,,,,,,,,,,,,,,,,,,,,,,,,,,,,,,,,,,,,,,,,,,,,,,,,
,,,,,,5,0,5,0,1,X V Q F H G B L J M P D K C T S W R N Z,612ba6c594a6d54154a88ae7,21,Kobieta,2022-06-25_16h24.21.297,task,2021.1.4,Win32,60.02040694,6299f149e92ead563fba08ef,62b70e3fba0b4763d7a39e76,,,,,,,,,,,,,,,,,,,,,,,,,,,,,,,,,,,,,,,,,,,,,,,,,,,,,,,,,,,,,,,,,,,,,,,,,,,,,,,,,,,,,,,,,,,,,,,,,,,,,
,,,,,,6,0,6,0,1,X V Q F H G B L J M P D K C T S W R N Z,612ba6c594a6d54154a88ae7,21,Kobieta,2022-06-25_16h24.21.297,task,2021.1.4,Win32,60.02040694,6299f149e92ead563fba08ef,62b70e3fba0b4763d7a39e76,,,,,,,,,,,,,,,,,,,,,,,,,,,,,,,,,,,,,,,,,,,,,,,,,,,,,,,,,,,,,,,,,,,,,,,,,,,,,,,,,,,,,,,,,,,,,,,,,,,,,
,,,,,,,,,,,,612ba6c594a6d54154a88ae7,21,Kobieta,2022-06-25_16h24.21.297,task,2021.1.4,Win32,60.02040694,6299f149e92ead563fba08ef,62b70e3fba0b4763d7a39e76,ngfkqr,"[""n"",""g"",""f"",""k"",""q"",""r""]","[0.4173000000045022,0.783700000003023,1.1006000000014637,1.4604000000059614,1.7607000000029984,2.0089000000059514,2.586800000004473]",0,NGFPKQR,12,0,12,0,1,,,,,,,,,,,,,,,,,,,,,,,,,,,,,,,,,,,,,,,,,,,,,,,,,,,,,,,,,,,,,,,,,,,,,,,,,,,,,,,,,,,,,,,,,,,
,,,,,,0,0,0,0,1,X V Q F H G B L J M P D K C T S W R N Z,612ba6c594a6d54154a88ae7,21,Kobieta,2022-06-25_16h24.21.297,task,2021.1.4,Win32,60.02040694,6299f149e92ead563fba08ef,62b70e3fba0b4763d7a39e76,,,,,,,,,,,,,,,,,,,,,,,,,,,,,,,,,,,,,,,,,,,,,,,,,,,,,,,,,,,,,,,,,,,,,,,,,,,,,,,,,,,,,,,,,,,,,,,,,,,,,
,,,,,,1,0,1,0,1,X V Q F H G B L J M P D K C T S W R N Z,612ba6c594a6d54154a88ae7,21,Kobieta,2022-06-25_16h24.21.297,task,2021.1.4,Win32,60.02040694,6299f149e92ead563fba08ef,62b70e3fba0b4763d7a39e76,,,,,,,,,,,,,,,,,,,,,,,,,,,,,,,,,,,,,,,,,,,,,,,,,,,,,,,,,,,,,,,,,,,,,,,,,,,,,,,,,,,,,,,,,,,,,,,,,,,,,
,,,,,,2,0,2,0,1,X V Q F H G B L J M P D K C T S W R N Z,612ba6c594a6d54154a88ae7,21,Kobieta,2022-06-25_16h24.21.297,task,2021.1.4,Win32,60.02040694,6299f149e92ead563fba08ef,62b70e3fba0b4763d7a39e76,,,,,,,,,,,,,,,,,,,,,,,,,,,,,,,,,,,,,,,,,,,,,,,,,,,,,,,,,,,,,,,,,,,,,,,,,,,,,,,,,,,,,,,,,,,,,,,,,,,,,
,,,,,,3,0,3,0,1,X V Q F H G B L J M P D K C T S W R N Z,612ba6c594a6d54154a88ae7,21,Kobieta,2022-06-25_16h24.21.297,task,2021.1.4,Win32,60.02040694,6299f149e92ead563fba08ef,62b70e3fba0b4763d7a39e76,,,,,,,,,,,,,,,,,,,,,,,,,,,,,,,,,,,,,,,,,,,,,,,,,,,,,,,,,,,,,,,,,,,,,,,,,,,,,,,,,,,,,,,,,,,,,,,,,,,,,
,,,,,,4,0,4,0,1,X V Q F H G B L J M P D K C T S W R N Z,612ba6c594a6d54154a88ae7,21,Kobieta,2022-06-25_16h24.21.297,task,2021.1.4,Win32,60.02040694,6299f149e92ead563fba08ef,62b70e3fba0b4763d7a39e76,,,,,,,,,,,,,,,,,,,,,,,,,,,,,,,,,,,,,,,,,,,,,,,,,,,,,,,,,,,,,,,,,,,,,,,,,,,,,,,,,,,,,,,,,,,,,,,,,,,,,
,,,,,,5,0,5,0,1,X V Q F H G B L J M P D K C T S W R N Z,612ba6c594a6d54154a88ae7,21,Kobieta,2022-06-25_16h24.21.297,task,2021.1.4,Win32,60.02040694,6299f149e92ead563fba08ef,62b70e3fba0b4763d7a39e76,,,,,,,,,,,,,,,,,,,,,,,,,,,,,,,,,,,,,,,,,,,,,,,,,,,,,,,,,,,,,,,,,,,,,,,,,,,,,,,,,,,,,,,,,,,,,,,,,,,,,
,,,,,,6,0,6,0,1,X V Q F H G B L J M P D K C T S W R N Z,612ba6c594a6d54154a88ae7,21,Kobieta,2022-06-25_16h24.21.297,task,2021.1.4,Win32,60.02040694,6299f149e92ead563fba08ef,62b70e3fba0b4763d7a39e76,,,,,,,,,,,,,,,,,,,,,,,,,,,,,,,,,,,,,,,,,,,,,,,,,,,,,,,,,,,,,,,,,,,,,,,,,,,,,,,,,,,,,,,,,,,,,,,,,,,,,
,,,,,,,,,,,,612ba6c594a6d54154a88ae7,21,Kobieta,2022-06-25_16h24.21.297,task,2021.1.4,Win32,60.02040694,6299f149e92ead563fba08ef,62b70e3fba0b4763d7a39e76,xjkjj,"[""x"",""j"",""k"",""j"",""j""]","[1.7503999999985353,2.1615000000000464,2.450700000003053,2.767500000000041,4.517100000001506,5.183100000001559]",0,DXJKJJZ,13,0,13,0,1,,,,,,,,,,,,,,,,,,,,,,,,,,,,,,,,,,,,,,,,,,,,,,,,,,,,,,,,,,,,,,,,,,,,,,,,,,,,,,,,,,,,,,,,,,,
,,,,,,0,0,0,0,1,X V Q F H G B L J M P D K C T S W R N Z,612ba6c594a6d54154a88ae7,21,Kobieta,2022-06-25_16h24.21.297,task,2021.1.4,Win32,60.02040694,6299f149e92ead563fba08ef,62b70e3fba0b4763d7a39e76,,,,,,,,,,,,,,,,,,,,,,,,,,,,,,,,,,,,,,,,,,,,,,,,,,,,,,,,,,,,,,,,,,,,,,,,,,,,,,,,,,,,,,,,,,,,,,,,,,,,,
,,,,,,1,0,1,0,1,X V Q F H G B L J M P D K C T S W R N Z,612ba6c594a6d54154a88ae7,21,Kobieta,2022-06-25_16h24.21.297,task,2021.1.4,Win32,60.02040694,6299f149e92ead563fba08ef,62b70e3fba0b4763d7a39e76,,,,,,,,,,,,,,,,,,,,,,,,,,,,,,,,,,,,,,,,,,,,,,,,,,,,,,,,,,,,,,,,,,,,,,,,,,,,,,,,,,,,,,,,,,,,,,,,,,,,,
,,,,,,2,0,2,0,1,X V Q F H G B L J M P D K C T S W R N Z,612ba6c594a6d54154a88ae7,21,Kobieta,2022-06-25_16h24.21.297,task,2021.1.4,Win32,60.02040694,6299f149e92ead563fba08ef,62b70e3fba0b4763d7a39e76,,,,,,,,,,,,,,,,,,,,,,,,,,,,,,,,,,,,,,,,,,,,,,,,,,,,,,,,,,,,,,,,,,,,,,,,,,,,,,,,,,,,,,,,,,,,,,,,,,,,,
,,,,,,3,0,3,0,1,X V Q F H G B L J M P D K C T S W R N Z,612ba6c594a6d54154a88ae7,21,Kobieta,2022-06-25_16h24.21.297,task,2021.1.4,Win32,60.02040694,6299f149e92ead563fba08ef,62b70e3fba0b4763d7a39e76,,,,,,,,,,,,,,,,,,,,,,,,,,,,,,,,,,,,,,,,,,,,,,,,,,,,,,,,,,,,,,,,,,,,,,,,,,,,,,,,,,,,,,,,,,,,,,,,,,,,,
,,,,,,4,0,4,0,1,X V Q F H G B L J M P D K C T S W R N Z,612ba6c594a6d54154a88ae7,21,Kobieta,2022-06-25_16h24.21.297,task,2021.1.4,Win32,60.02040694,6299f149e92ead563fba08ef,62b70e3fba0b4763d7a39e76,,,,,,,,,,,,,,,,,,,,,,,,,,,,,,,,,,,,,,,,,,,,,,,,,,,,,,,,,,,,,,,,,,,,,,,,,,,,,,,,,,,,,,,,,,,,,,,,,,,,,
,,,,,,5,0,5,0,1,X V Q F H G B L J M P D K C T S W R N Z,612ba6c594a6d54154a88ae7,21,Kobieta,2022-06-25_16h24.21.297,task,2021.1.4,Win32,60.02040694,6299f149e92ead563fba08ef,62b70e3fba0b4763d7a39e76,,,,,,,,,,,,,,,,,,,,,,,,,,,,,,,,,,,,,,,,,,,,,,,,,,,,,,,,,,,,,,,,,,,,,,,,,,,,,,,,,,,,,,,,,,,,,,,,,,,,,
,,,,,,6,0,6,0,1,X V Q F H G B L J M P D K C T S W R N Z,612ba6c594a6d54154a88ae7,21,Kobieta,2022-06-25_16h24.21.297,task,2021.1.4,Win32,60.02040694,6299f149e92ead563fba08ef,62b70e3fba0b4763d7a39e76,,,,,,,,,,,,,,,,,,,,,,,,,,,,,,,,,,,,,,,,,,,,,,,,,,,,,,,,,,,,,,,,,,,,,,,,,,,,,,,,,,,,,,,,,,,,,,,,,,,,,
,,,,,,,,,,,,612ba6c594a6d54154a88ae7,21,Kobieta,2022-06-25_16h24.21.297,task,2021.1.4,Win32,60.02040694,6299f149e92ead563fba08ef,62b70e3fba0b4763d7a39e76,pnpldtk,"[""p"",""n"",""p"",""l"",""d"",""t"",""k""]","[1.294200000003002,1.7671000000015056,1.9337000000030002,2.2421000000015283,2.7672000000029584,2.90029999999706,3.283799999997086,3.5833999999985053]",1,PNPLDTK,14,0,14,0,1,,,,,,,,,,,,,,,,,,,,,,,,,,,,,,,,,,,,,,,,,,,,,,,,,,,,,,,,,,,,,,,,,,,,,,,,,,,,,,,,,,,,,,,,,,,
,,,,,,0,0,0,0,1,X V Q F H G B L J M P D K C T S W R N Z,612ba6c594a6d54154a88ae7,21,Kobieta,2022-06-25_16h24.21.297,task,2021.1.4,Win32,60.02040694,6299f149e92ead563fba08ef,62b70e3fba0b4763d7a39e76,,,,,,,,,,,,,,,,,,,,,,,,,,,,,,,,,,,,,,,,,,,,,,,,,,,,,,,,,,,,,,,,,,,,,,,,,,,,,,,,,,,,,,,,,,,,,,,,,,,,,
,,,,,,1,0,1,0,1,X V Q F H G B L J M P D K C T S W R N Z,612ba6c594a6d54154a88ae7,21,Kobieta,2022-06-25_16h24.21.297,task,2021.1.4,Win32,60.02040694,6299f149e92ead563fba08ef,62b70e3fba0b4763d7a39e76,,,,,,,,,,,,,,,,,,,,,,,,,,,,,,,,,,,,,,,,,,,,,,,,,,,,,,,,,,,,,,,,,,,,,,,,,,,,,,,,,,,,,,,,,,,,,,,,,,,,,
,,,,,,2,0,2,0,1,X V Q F H G B L J M P D K C T S W R N Z,612ba6c594a6d54154a88ae7,21,Kobieta,2022-06-25_16h24.21.297,task,2021.1.4,Win32,60.02040694,6299f149e92ead563fba08ef,62b70e3fba0b4763d7a39e76,,,,,,,,,,,,,,,,,,,,,,,,,,,,,,,,,,,,,,,,,,,,,,,,,,,,,,,,,,,,,,,,,,,,,,,,,,,,,,,,,,,,,,,,,,,,,,,,,,,,,
,,,,,,3,0,3,0,1,X V Q F H G B L J M P D K C T S W R N Z,612ba6c594a6d54154a88ae7,21,Kobieta,2022-06-25_16h24.21.297,task,2021.1.4,Win32,60.02040694,6299f149e92ead563fba08ef,62b70e3fba0b4763d7a39e76,,,,,,,,,,,,,,,,,,,,,,,,,,,,,,,,,,,,,,,,,,,,,,,,,,,,,,,,,,,,,,,,,,,,,,,,,,,,,,,,,,,,,,,,,,,,,,,,,,,,,
,,,,,,4,0,4,0,1,X V Q F H G B L J M P D K C T S W R N Z,612ba6c594a6d54154a88ae7,21,Kobieta,2022-06-25_16h24.21.297,task,2021.1.4,Win32,60.02040694,6299f149e92ead563fba08ef,62b70e3fba0b4763d7a39e76,,,,,,,,,,,,,,,,,,,,,,,,,,,,,,,,,,,,,,,,,,,,,,,,,,,,,,,,,,,,,,,,,,,,,,,,,,,,,,,,,,,,,,,,,,,,,,,,,,,,,
,,,,,,5,0,5,0,1,X V Q F H G B L J M P D K C T S W R N Z,612ba6c594a6d54154a88ae7,21,Kobieta,2022-06-25_16h24.21.297,task,2021.1.4,Win32,60.02040694,6299f149e92ead563fba08ef,62b70e3fba0b4763d7a39e76,,,,,,,,,,,,,,,,,,,,,,,,,,,,,,,,,,,,,,,,,,,,,,,,,,,,,,,,,,,,,,,,,,,,,,,,,,,,,,,,,,,,,,,,,,,,,,,,,,,,,
,,,,,,6,0,6,0,1,X V Q F H G B L J M P D K C T S W R N Z,612ba6c594a6d54154a88ae7,21,Kobieta,2022-06-25_16h24.21.297,task,2021.1.4,Win32,60.02040694,6299f149e92ead563fba08ef,62b70e3fba0b4763d7a39e76,,,,,,,,,,,,,,,,,,,,,,,,,,,,,,,,,,,,,,,,,,,,,,,,,,,,,,,,,,,,,,,,,,,,,,,,,,,,,,,,,,,,,,,,,,,,,,,,,,,,,
,,,,,,,,,,,,612ba6c594a6d54154a88ae7,21,Kobieta,2022-06-25_16h24.21.297,task,2021.1.4,Win32,60.02040694,6299f149e92ead563fba08ef,62b70e3fba0b4763d7a39e76,mxkpk,"[""m"",""x"",""k"",""p"",""k""]","[1.8902999999969552,2.314200000002984,2.4652000000029375,2.730600000001459,2.9172000000029357,3.317700000002901]",0,RMKXPHB,15,0,15,0,1,,,,,,,,,,,,,,,,,,,,,,,,,,,,,,,,,,,,,,,,,,,,,,,,,,,,,,,,,,,,,,,,,,,,,,,,,,,,,,,,,,,,,,,,,,,
,,,,,,,,,,,,612ba6c594a6d54154a88ae7,21,Kobieta,2022-06-25_16h24.21.297,task,2021.1.4,Win32,60.02040694,6299f149e92ead563fba08ef,62b70e3fba0b4763d7a39e76,,,,,,,,,,,space,31.229,6,"[""6""]",1,[1.976199999995515],[1.976199999995515],0,0,0,6,1,Practice,7,(25/5) + 1,6,,,,,,,,,,,,,,,,,,,,,,,,,,,,,,,,,,,,,,,,,,,,,,,,,,,,,,,,,,,,,,,,,,,,,,,,,,,
,,,,,,,,,,,,612ba6c594a6d54154a88ae7,21,Kobieta,2022-06-25_16h24.21.297,task,2021.1.4,Win32,60.02040694,6299f149e92ead563fba08ef,62b70e3fba0b4763d7a39e76,,,,,,,,,,,,,8,"[""8""]",1,[1.272700000002942],"[1.976199999995515,1.272700000002942]",0,1,1,8,1,Practice,9,(3x3) - 1,8,,,,,,,,,,,,,,,,,,,,,,,,,,,,,,,,,,,,,,,,,,,,,,,,,,,,,,,,,,,,,,,,,,,,,,,,,,,
,,,,,,,,,,,,612ba6c594a6d54154a88ae7,21,Kobieta,2022-06-25_16h24.21.297,task,2021.1.4,Win32,60.02040694,6299f149e92ead563fba08ef,62b70e3fba0b4763d7a39e76,,,,,,,,,,,,,5,"[""5""]",1,[1.782100000001492],"[1.976199999995515,1.272700000002942,1.782100000001492]",0,2,2,5,1,Practice,6,(4/2) + 3,5,,,,,,,,,,,,,,,,,,,,,,,,,,,,,,,,,,,,,,,,,,,,,,,,,,,,,,,,,,,,,,,,,,,,,,,,,,,
,,,,,,,,,,,,612ba6c594a6d54154a88ae7,21,Kobieta,2022-06-25_16h24.21.297,task,2021.1.4,Win32,60.02040694,6299f149e92ead563fba08ef,62b70e3fba0b4763d7a39e76,,,,,,,,,,,,,7,"[""7""]",1,[1.4156000000015183],"[1.976199999995515,1.272700000002942,1.782100000001492,1.4156000000015183]",0,3,3,7,1,Practice,8,(5x5) - 18,7,,,,,,,,,,,,,,,,,,,,,,,,,,,,,,,,,,,,,,,,,,,,,,,,,,,,,,,,,,,,,,,,,,,,,,,,,,,
,,,,,,,,,,,,612ba6c594a6d54154a88ae7,21,Kobieta,2022-06-25_16h24.21.297,task,2021.1.4,Win32,60.02040694,6299f149e92ead563fba08ef,62b70e3fba0b4763d7a39e76,,,,,,,,,,,,,9,"[""9""]",0,[1.2825000000000273],"[1.976199999995515,1.272700000002942,1.782100000001492,1.4156000000015183,1.2825000000000273]",0,4,4,0,1,Practice,1,(3x3) -  9,0,,,,,,,,,,,,,,,,,,,,,,,,,,,,,,,,,,,,,,,,,,,,,,,,,,,,,,,,,,,,,,,,,,,,,,,,,,,
,,,,,,,,,,,,612ba6c594a6d54154a88ae7,21,Kobieta,2022-06-25_16h24.21.297,task,2021.1.4,Win32,60.02040694,6299f149e92ead563fba08ef,62b70e3fba0b4763d7a39e76,,,,,,,,,,,,,9,"[""9""]",1,[1.3328000000045677],"[1.976199999995515,1.272700000002942,1.782100000001492,1.4156000000015183,1.2825000000000273,1.3328000000045677]",0,5,5,9,1,Practice,10,(20/2) - 1,9,,,,,,,,,,,,,,,,,,,,,,,,,,,,,,,,,,,,,,,,,,,,,,,,,,,,,,,,,,,,,,,,,,,,,,,,,,,
,,,,,,,,,,,,612ba6c594a6d54154a88ae7,21,Kobieta,2022-06-25_16h24.21.297,task,2021.1.4,Win32,60.02040694,6299f149e92ead563fba08ef,62b70e3fba0b4763d7a39e76,,,,,,,,,,,,,2,"[""2""]",1,[1.5154999999999745],"[1.976199999995515,1.272700000002942,1.782100000001492,1.4156000000015183,1.2825000000000273,1.3328000000045677,1.5154999999999745]",0,6,6,2,1,Practice,3,(4x4) - 14,2,,,,,,,,,,,,,,,,,,,,,,,,,,,,,,,,,,,,,,,,,,,,,,,,,,,,,,,,,,,,,,,,,,,,,,,,,,,
,,,,,,,,,,,,612ba6c594a6d54154a88ae7,21,Kobieta,2022-06-25_16h24.21.297,task,2021.1.4,Win32,60.02040694,6299f149e92ead563fba08ef,62b70e3fba0b4763d7a39e76,,,,,,,,,,,,,3,"[""3""]",1,[1.4857999999969707],"[1.976199999995515,1.272700000002942,1.782100000001492,1.4156000000015183,1.2825000000000273,1.3328000000045677,1.5154999999999745,1.4857999999969707]",0,7,7,3,1,Practice,4,(8/4) + 1,3,,,,,,,,,,,,,,,,,,,,,,,,,,,,,,,,,,,,,,,,,,,,,,,,,,,,,,,,,,,,,,,,,,,,,,,,,,,
,,,,,,,,,,,,612ba6c594a6d54154a88ae7,21,Kobieta,2022-06-25_16h24.21.297,task,2021.1.4,Win32,60.02040694,6299f149e92ead563fba08ef,62b70e3fba0b4763d7a39e76,,,,,,,,,,,,,1,"[""1""]",1,[1.4086000000014565],"[1.976199999995515,1.272700000002942,1.782100000001492,1.4156000000015183,1.2825000000000273,1.3328000000045677,1.5154999999999745,1.4857999999969707,1.4086000000014565]",0,8,8,1,1,Practice,2,(4x4) - 15,1,,,,,,,,,,,,,,,,,,,,,,,,,,,,,,,,,,,,,,,,,,,,,,,,,,,,,,,,,,,,,,,,,,,,,,,,,,,
,,,,,,,,,,,,612ba6c594a6d54154a88ae7,21,Kobieta,2022-06-25_16h24.21.297,task,2021.1.4,Win32,60.02040694,6299f149e92ead563fba08ef,62b70e3fba0b4763d7a39e76,,,,,,,,,,,,,4,"[""4""]",1,[2.7972999999969943],"[1.976199999995515,1.272700000002942,1.782100000001492,1.4156000000015183,1.2825000000000273,1.3328000000045677,1.5154999999999745,1.4857999999969707,1.4086000000014565,2.7972999999969943]",0,9,9,4,1,Practice,5,(2x6) - 8,4,,,,,,,,,,,,,,,,,,,,,,,,,,,,,,,,,,,,,,,,,,,,,,,,,,,,,,,,,,,,,,,,,,,,,,,,,,,
,,,,,,,,,,,,612ba6c594a6d54154a88ae7,21,Kobieta,2022-06-25_16h24.21.297,task,2021.1.4,Win32,60.02040694,6299f149e92ead563fba08ef,62b70e3fba0b4763d7a39e76,,,,,,,,,,,,,,,,,,,,,,,,,,,0.9,16.2691,1.084606667,4.912048302,0.572249847,2.561011271,space,1.284,0,0,0,0,1,,,,,,,,,,,,,,,,,,,,,,,,,,,,,,,,,,,,,,,,,,,,,,,,,,,,,,,,,,,,,,
,,,,,,,,,,,,612ba6c594a6d54154a88ae7,21,Kobieta,2022-06-25_16h24.21.297,task,2021.1.4,Win32,60.02040694,6299f149e92ead563fba08ef,62b70e3fba0b4763d7a39e76,,,,,,,,,,,,,6,,,,,,,,,,Practice,7,(25/5) + 1,6,,,,,,,,,,,,,,space,2.8351,"[""6""]",1,[1.1132999999970252],1,0,0,0,6,1,,,,,,,,,,,,,,,,,,,,,,,,,,,,,,,,,,,,,,,,,,,,,,,,,,,
,,,,,,,,,,,X V Q F H G B L J M P D K C T S W R N Z,612ba6c594a6d54154a88ae7,21,Kobieta,2022-06-25_16h24.21.297,task,2021.1.4,Win32,60.02040694,6299f149e92ead563fba08ef,62b70e3fba0b4763d7a39e76,,,,,,,,,,,,,,,,,,,,,,,,,,,,,,,,,,,,,,,,,,,,,,,,,,,0,0,0,0,1,,,,,,,,,,,,,,,,,,,,,,,,,,,,,,,,,,,,,,,,,,,,,,
,,,,,,,,,,,,612ba6c594a6d54154a88ae7,21,Kobieta,2022-06-25_16h24.21.297,task,2021.1.4,Win32,60.02040694,6299f149e92ead563fba08ef,62b70e3fba0b4763d7a39e76,,,,,,,,,,,,,3,,,,,,,,,,Practice,4,(8/4) + 1,3,,,,,,,,,,,,,,,,"[""3""]",1,[1.5161000000014155],1,0,0,0,3,1,,,,,,,,,,,,,,,,,,,,,,,,,,,,,,,,,,,,,,,,,,,,,,,,,,,
,,,,,,,,,,,X V Q F H G B L J M P D K C T S W R N Z,612ba6c594a6d54154a88ae7,21,Kobieta,2022-06-25_16h24.21.297,task,2021.1.4,Win32,60.02040694,6299f149e92ead563fba08ef,62b70e3fba0b4763d7a39e76,,,,,,,,,,,,,,,,,,,,,,,,,,,,,,,,,,,,,,,,,,,,,,,,,,,1,0,1,0,1,,,,,,,,,,,,,,,,,,,,,,,,,,,,,,,,,,,,,,,,,,,,,,
,,,,,,,,,,,,612ba6c594a6d54154a88ae7,21,Kobieta,2022-06-25_16h24.21.297,task,2021.1.4,Win32,60.02040694,6299f149e92ead563fba08ef,62b70e3fba0b4763d7a39e76,,,,,,,,,,,,,,,,,,,,,,,,,,,,,,,,,,,,,,,,,,,,,,,,,,,,,,,,zr,"[""z"",""r""]",0,"[1.3669000000060123,1.4840000000000373,1.860800000004474]",1,0,0,0,0,1,,,,,,,,,,,,,,,,,,,,,,,,,,,,,,,,,,,,
,,,,,,,,,,,,612ba6c594a6d54154a88ae7,21,Kobieta,2022-06-25_16h24.21.297,task,2021.1.4,Win32,60.02040694,6299f149e92ead563fba08ef,62b70e3fba0b4763d7a39e76,,,,,,,,,,,,,2,,,,,,,,,,Practice,3,(4x4) - 14,2,,,,,,,,,,,,,,,,"[""2""]",1,[1.4180000000000064],1,0,0,0,2,1,,,,,,,,,,,,,,,,,,,,,,,,,,,,,,,,,,,,,,,,,,,,,,,,,,,
,,,,,,,,,,,X V Q F H G B L J M P D K C T S W R N Z,612ba6c594a6d54154a88ae7,21,Kobieta,2022-06-25_16h24.21.297,task,2021.1.4,Win32,60.02040694,6299f149e92ead563fba08ef,62b70e3fba0b4763d7a39e76,,,,,,,,,,,,,,,,,,,,,,,,,,,,,,,,,,,,,,,,,,,,,,,,,,,0,0,0,0,1,,,,,,,,,,,,,,,,,,,,,,,,,,,,,,,,,,,,,,,,,,,,,,
,,,,,,,,,,,,612ba6c594a6d54154a88ae7,21,Kobieta,2022-06-25_16h24.21.297,task,2021.1.4,Win32,60.02040694,6299f149e92ead563fba08ef,62b70e3fba0b4763d7a39e76,,,,,,,,,,,,,2,,,,,,,,,,Practice,3,(4x4) - 14,2,,,,,,,,,,,,,,,,"[""2""]",1,[1.11749999999995],1,0,0,0,2,1,,,,,,,,,,,,,,,,,,,,,,,,,,,,,,,,,,,,,,,,,,,,,,,,,,,
,,,,,,,,,,,X V Q F H G B L J M P D K C T S W R N Z,612ba6c594a6d54154a88ae7,21,Kobieta,2022-06-25_16h24.21.297,task,2021.1.4,Win32,60.02040694,6299f149e92ead563fba08ef,62b70e3fba0b4763d7a39e76,,,,,,,,,,,,,,,,,,,,,,,,,,,,,,,,,,,,,,,,,,,,,,,,,,,1,0,1,0,1,,,,,,,,,,,,,,,,,,,,,,,,,,,,,,,,,,,,,,,,,,,,,,
,,,,,,,,,,,,612ba6c594a6d54154a88ae7,21,Kobieta,2022-06-25_16h24.21.297,task,2021.1.4,Win32,60.02040694,6299f149e92ead563fba08ef,62b70e3fba0b4763d7a39e76,,,,,,,,,,,,,,,,,,,,,,,,,,,,,,,,,,,,,,,,,,,,,,,,,,,,,,,,st,"[""s"",""t""]",0,"[1.9167000000029475,1.9707000000030348,2.767300000004525]",1,1,0,1,0,1,,,,,,,,,,,,,,,,,,,,,,,,,,,,,,,,,,,,
,,,,,,,,,,,,612ba6c594a6d54154a88ae7,21,Kobieta,2022-06-25_16h24.21.297,task,2021.1.4,Win32,60.02040694,6299f149e92ead563fba08ef,62b70e3fba0b4763d7a39e76,,,,,,,,,,,,,5,,,,,,,,,,Practice,6,(4/2) + 3,5,,,,,,,,,,,,,,,,"[""5""]",1,[1.6486000000015792],1,0,0,0,5,1,,,,,,,,,,,,,,,,,,,,,,,,,,,,,,,,,,,,,,,,,,,,,,,,,,,
,,,,,,,,,,,X V Q F H G B L J M P D K C T S W R N Z,612ba6c594a6d54154a88ae7,21,Kobieta,2022-06-25_16h24.21.297,task,2021.1.4,Win32,60.02040694,6299f149e92ead563fba08ef,62b70e3fba0b4763d7a39e76,,,,,,,,,,,,,,,,,,,,,,,,,,,,,,,,,,,,,,,,,,,,,,,,,,,0,0,0,0,1,,,,,,,,,,,,,,,,,,,,,,,,,,,,,,,,,,,,,,,,,,,,,,
,,,,,,,,,,,,612ba6c594a6d54154a88ae7,21,Kobieta,2022-06-25_16h24.21.297,task,2021.1.4,Win32,60.02040694,6299f149e92ead563fba08ef,62b70e3fba0b4763d7a39e76,,,,,,,,,,,,,3,,,,,,,,,,Practice,4,(8/4) + 1,3,,,,,,,,,,,,,,,,"[""3""]",1,[1.433800000004453],1,0,0,0,3,1,,,,,,,,,,,,,,,,,,,,,,,,,,,,,,,,,,,,,,,,,,,,,,,,,,,
,,,,,,,,,,,X V Q F H G B L J M P D K C T S W R N Z,612ba6c594a6d54154a88ae7,21,Kobieta,2022-06-25_16h24.21.297,task,2021.1.4,Win32,60.02040694,6299f149e92ead563fba08ef,62b70e3fba0b4763d7a39e76,,,,,,,,,,,,,,,,,,,,,,,,,,,,,,,,,,,,,,,,,,,,,,,,,,,1,0,1,0,1,,,,,,,,,,,,,,,,,,,,,,,,,,,,,,,,,,,,,,,,,,,,,,
,,,,,,,,,,,,612ba6c594a6d54154a88ae7,21,Kobieta,2022-06-25_16h24.21.297,task,2021.1.4,Win32,60.02040694,6299f149e92ead563fba08ef,62b70e3fba0b4763d7a39e76,,,,,,,,,,,,,,,,,,,,,,,,,,,,,,,,,,,,,,,,,,,,,,,,,,,,,,,,zx,"[""z"",""x""]",0,"[1.7842000000028975,1.989900000005946,2.234499999999912]",1,2,0,2,0,1,,,,,,,,,,,,,,,,,,,,,,,,,,,,,,,,,,,,
,,,,,,,,,,,,612ba6c594a6d54154a88ae7,21,Kobieta,2022-06-25_16h24.21.297,task,2021.1.4,Win32,60.02040694,6299f149e92ead563fba08ef,62b70e3fba0b4763d7a39e76,,,,,,,,,,,,,8,,,,,,,,,,Task,39,(5x3) - 7,8,,,,,,,,,,,,,,,,,,,1,,,,,,,,,,,,,,,,,,,,,space,1.7085,"[""8""]",1,[2.3307000000030484],0,0,0,38,1,,,,,,,,,,,,,,,,,,,,,,,,,,
,,,,,,,,,,,X V Q F H G B L J M P D K C T S W R N Z,612ba6c594a6d54154a88ae7,21,Kobieta,2022-06-25_16h24.21.297,task,2021.1.4,Win32,60.02040694,6299f149e92ead563fba08ef,62b70e3fba0b4763d7a39e76,,,,,,,,,,,,,,,,,,,,,,,,,,,,,,,,,,,,,,,,,,,,,,,,,,,,,,,,,,,,,,,,,,,,,,,,,,,,0,0,0,0,1,,,,,,,,,,,,,,,,,,,,,
,,,,,,,,,,,,612ba6c594a6d54154a88ae7,21,Kobieta,2022-06-25_16h24.21.297,task,2021.1.4,Win32,60.02040694,6299f149e92ead563fba08ef,62b70e3fba0b4763d7a39e76,,,,,,,,,,,,,1,,,,,,,,,,Task,9,(3x7) - 20,1,,,,,,,,,,,,,,,,,,,1,,,,,,,,,,,,,,,,,,,,,,,"[""1""]",1,[1.6695000000000846],0,0,0,8,1,,,,,,,,,,,,,,,,,,,,,,,,,,
,,,,,,,,,,,X V Q F H G B L J M P D K C T S W R N Z,612ba6c594a6d54154a88ae7,21,Kobieta,2022-06-25_16h24.21.297,task,2021.1.4,Win32,60.02040694,6299f149e92ead563fba08ef,62b70e3fba0b4763d7a39e76,,,,,,,,,,,,,,,,,,,,,,,,,,,,,,,,,,,,,,,,,,,,,,,,,,,,,,,,,,,,,,,,,,,,,,,,,,,,1,0,1,0,1,,,,,,,,,,,,,,,,,,,,,
,,,,,,,,,,,,612ba6c594a6d54154a88ae7,21,Kobieta,2022-06-25_16h24.21.297,task,2021.1.4,Win32,60.02040694,6299f149e92ead563fba08ef,62b70e3fba0b4763d7a39e76,,,,,,,,,,,,,,,,,,,,,,,,,,,,,,,,,,,,,,,,,,,,,,,,,,,,,,,,,,,,,,,,,,,,,,,,,,,,,,,,,zd,"[""z"",""d""]",0,"[1.553600000001552,2.0670000000000073,2.367800000004536]",1,ZD,0,0,0,0,1,,,,,,,,,,
,,,,,,,,,,,,612ba6c594a6d54154a88ae7,21,Kobieta,2022-06-25_16h24.21.297,task,2021.1.4,Win32,60.02040694,6299f149e92ead563fba08ef,62b70e3fba0b4763d7a39e76,,,,,,,,,,,,,,,,,,,,,,,Task,37,(3/3) + 5,6,,,,,,,,,,,,,,,,,,,0,,,,,,,,,,,,,,,,,,,,,,,,0,,0,0,0,36,1,,,,,,,,,,,,,,,,,,,,,,,,,,
,,,,,,,,,,,,612ba6c594a6d54154a88ae7,21,Kobieta,2022-06-25_16h24.21.297,task,2021.1.4,Win32,60.02040694,6299f149e92ead563fba08ef,62b70e3fba0b4763d7a39e76,,,,,,,,,,,,,,,,,,,,,,,Task,34,(9/3) - 2,1,,,,,,,,,,,,,,,,,,,0,,,,,,,,,,,,,,,,,,,,,,,,0,,0,1,1,33,1,,,,,,,,,,,,,,,,,,,,,,,,,,
,,,,,,,,,,,,612ba6c594a6d54154a88ae7,21,Kobieta,2022-06-25_16h24.21.297,task,2021.1.4,Win32,60.02040694,6299f149e92ead563fba08ef,62b70e3fba0b4763d7a39e76,,,,,,,,,,,,,8,,,,,,,,,,Task,39,(5x3) - 7,8,,,,,,,,,,,,,,,,,,,1,,,,,,,,,,,,,,,,,,,,,,,"[""8""]",1,[1.982499999999959],0,2,2,38,1,,,,,,,,,,,,,,,,,,,,,,,,,,
,,,,,,,,,,,X V Q F H G B L J M P D K C T S W R N Z,612ba6c594a6d54154a88ae7,21,Kobieta,2022-06-25_16h24.21.297,task,2021.1.4,Win32,60.02040694,6299f149e92ead563fba08ef,62b70e3fba0b4763d7a39e76,,,,,,,,,,,,,,,,,,,,,,,,,,,,,,,,,,,,,,,,,,,,,,,,,,,,,,,,,,,,,,,,,,,,,,,,,,,,0,0,0,0,1,,,,,,,,,,,,,,,,,,,,,
,,,,,,,,,,,,612ba6c594a6d54154a88ae7,21,Kobieta,2022-06-25_16h24.21.297,task,2021.1.4,Win32,60.02040694,6299f149e92ead563fba08ef,62b70e3fba0b4763d7a39e76,,,,,,,,,,,,,5,,,,,,,,,,Task,22,(3x1) + 2,5,,,,,,,,,,,,,,,,,,,1,,,,,,,,,,,,,,,,,,,,,,,"[""5""]",1,[1.6066000000014355],0,0,0,21,1,,,,,,,,,,,,,,,,,,,,,,,,,,
,,,,,,,,,,,X V Q F H G B L J M P D K C T S W R N Z,612ba6c594a6d54154a88ae7,21,Kobieta,2022-06-25_16h24.21.297,task,2021.1.4,Win32,60.02040694,6299f149e92ead563fba08ef,62b70e3fba0b4763d7a39e76,,,,,,,,,,,,,,,,,,,,,,,,,,,,,,,,,,,,,,,,,,,,,,,,,,,,,,,,,,,,,,,,,,,,,,,,,,,,1,0,1,0,1,,,,,,,,,,,,,,,,,,,,,
,,,,,,,,,,,,612ba6c594a6d54154a88ae7,21,Kobieta,2022-06-25_16h24.21.297,task,2021.1.4,Win32,60.02040694,6299f149e92ead563fba08ef,62b70e3fba0b4763d7a39e76,,,,,,,,,,,,,4,,,,,,,,,,Task,11,(18/3) - 2,4,,,,,,,,,,,,,,,,,,,1,,,,,,,,,,,,,,,,,,,,,,,"[""4""]",1,[2.182200000002922],0,0,0,10,1,,,,,,,,,,,,,,,,,,,,,,,,,,
,,,,,,,,,,,X V Q F H G B L J M P D K C T S W R N Z,612ba6c594a6d54154a88ae7,21,Kobieta,2022-06-25_16h24.21.297,task,2021.1.4,Win32,60.02040694,6299f149e92ead563fba08ef,62b70e3fba0b4763d7a39e76,,,,,,,,,,,,,,,,,,,,,,,,,,,,,,,,,,,,,,,,,,,,,,,,,,,,,,,,,,,,,,,,,,,,,,,,,,,,2,0,2,0,1,,,,,,,,,,,,,,,,,,,,,
,,,,,,,,,,,,612ba6c594a6d54154a88ae7,21,Kobieta,2022-06-25_16h24.21.297,task,2021.1.4,Win32,60.02040694,6299f149e92ead563fba08ef,62b70e3fba0b4763d7a39e76,,,,,,,,,,,,,,,,,,,,,,,,,,,,,,,,,,,,,,,,,,,,,,,,,,,,,,,,,,,,,,,,,,,,,,,,,,,,,,,,,fhj,"[""f"",""h"",""j""]",0,"[1.0186999999955333,1.1779999999999973,1.500799999996957,2.7881000000014637]",1,FHJ,1,0,1,0,1,,,,,,,,,,
,,,,,,,,,,,,612ba6c594a6d54154a88ae7,21,Kobieta,2022-06-25_16h24.21.297,task,2021.1.4,Win32,60.02040694,6299f149e92ead563fba08ef,62b70e3fba0b4763d7a39e76,,,,,,,,,,,,,2,,,,,,,,,,Task,2,(2x2) - 2,2,,,,,,,,,,,,,,,,,,,1,,,,,,,,,,,,,,,,,,,,,,,"[""2""]",1,[2.0890999999941187],0,0,0,1,1,,,,,,,,,,,,,,,,,,,,,,,,,,
,,,,,,,,,,,X V Q F H G B L J M P D K C T S W R N Z,612ba6c594a6d54154a88ae7,21,Kobieta,2022-06-25_16h24.21.297,task,2021.1.4,Win32,60.02040694,6299f149e92ead563fba08ef,62b70e3fba0b4763d7a39e76,,,,,,,,,,,,,,,,,,,,,,,,,,,,,,,,,,,,,,,,,,,,,,,,,,,,,,,,,,,,,,,,,,,,,,,,,,,,0,0,0,0,1,,,,,,,,,,,,,,,,,,,,,
,,,,,,,,,,,,612ba6c594a6d54154a88ae7,21,Kobieta,2022-06-25_16h24.21.297,task,2021.1.4,Win32,60.02040694,6299f149e92ead563fba08ef,62b70e3fba0b4763d7a39e76,,,,,,,,,,,,,3,,,,,,,,,,Task,20,(18/9) + 1,3,,,,,,,,,,,,,,,,,,,1,,,,,,,,,,,,,,,,,,,,,,,"[""3""]",1,[1.4320000000000164],0,0,0,19,1,,,,,,,,,,,,,,,,,,,,,,,,,,
,,,,,,,,,,,X V Q F H G B L J M P D K C T S W R N Z,612ba6c594a6d54154a88ae7,21,Kobieta,2022-06-25_16h24.21.297,task,2021.1.4,Win32,60.02040694,6299f149e92ead563fba08ef,62b70e3fba0b4763d7a39e76,,,,,,,,,,,,,,,,,,,,,,,,,,,,,,,,,,,,,,,,,,,,,,,,,,,,,,,,,,,,,,,,,,,,,,,,,,,,1,0,1,0,1,,,,,,,,,,,,,,,,,,,,,
,,,,,,,,,,,,612ba6c594a6d54154a88ae7,21,Kobieta,2022-06-25_16h24.21.297,task,2021.1.4,Win32,60.02040694,6299f149e92ead563fba08ef,62b70e3fba0b4763d7a39e76,,,,,,,,,,,,,3,,,,,,,,,,Task,1,(12/6) - 1,1,,,,,,,,,,,,,,,,,,,0,,,,,,,,,,,,,,,,,,,,,,,"[""3""]",0,[1.4822000000029902],0,0,0,0,1,,,,,,,,,,,,,,,,,,,,,,,,,,
,,,,,,,,,,,,612ba6c594a6d54154a88ae7,21,Kobieta,2022-06-25_16h24.21.297,task,2021.1.4,Win32,60.02040694,6299f149e92ead563fba08ef,62b70e3fba0b4763d7a39e76,,,,,,,,,,,,,9,,,,,,,,,,Task,24,(2x2) + 5,9,,,,,,,,,,,,,,,,,,,1,,,,,,,,,,,,,,,,,,,,,,,"[""9""]",1,[1.6656000000014046],0,1,1,23,1,,,,,,,,,,,,,,,,,,,,,,,,,,
,,,,,,,,,,,X V Q F H G B L J M P D K C T S W R N Z,612ba6c594a6d54154a88ae7,21,Kobieta,2022-06-25_16h24.21.297,task,2021.1.4,Win32,60.02040694,6299f149e92ead563fba08ef,62b70e3fba0b4763d7a39e76,,,,,,,,,,,,,,,,,,,,,,,,,,,,,,,,,,,,,,,,,,,,,,,,,,,,,,,,,,,,,,,,,,,,,,,,,,,,2,0,2,0,1,,,,,,,,,,,,,,,,,,,,,
,,,,,,,,,,,,612ba6c594a6d54154a88ae7,21,Kobieta,2022-06-25_16h24.21.297,task,2021.1.4,Win32,60.02040694,6299f149e92ead563fba08ef,62b70e3fba0b4763d7a39e76,,,,,,,,,,,,,3,,,,,,,,,,Task,20,(18/9) + 1,3,,,,,,,,,,,,,,,,,,,1,,,,,,,,,,,,,,,,,,,,,,,"[""3""]",1,[1.5052999999969643],0,0,0,19,1,,,,,,,,,,,,,,,,,,,,,,,,,,
,,,,,,,,,,,X V Q F H G B L J M P D K C T S W R N Z,612ba6c594a6d54154a88ae7,21,Kobieta,2022-06-25_16h24.21.297,task,2021.1.4,Win32,60.02040694,6299f149e92ead563fba08ef,62b70e3fba0b4763d7a39e76,,,,,,,,,,,,,,,,,,,,,,,,,,,,,,,,,,,,,,,,,,,,,,,,,,,,,,,,,,,,,,,,,,,,,,,,,,,,3,0,3,0,1,,,,,,,,,,,,,,,,,,,,,
,,,,,,,,,,,,612ba6c594a6d54154a88ae7,21,Kobieta,2022-06-25_16h24.21.297,task,2021.1.4,Win32,60.02040694,6299f149e92ead563fba08ef,62b70e3fba0b4763d7a39e76,,,,,,,,,,,,,,,,,,,,,,,,,,,,,,,,,,,,,,,,,,,,,,,,,,,,,,,,,,,,,,,,,,,,,,,,,,,,,,,,,sths,"[""s"",""t"",""h"",""s""]",0,"[0.9706000000014683,1.5392000000030066,1.8186000000014246,2.000600000001441,2.3863000000044394]",1,STHS,2,0,2,0,1,,,,,,,,,,
,,,,,,,,,,,,612ba6c594a6d54154a88ae7,21,Kobieta,2022-06-25_16h24.21.297,task,2021.1.4,Win32,60.02040694,6299f149e92ead563fba08ef,62b70e3fba0b4763d7a39e76,,,,,,,,,,,,,7,,,,,,,,,,Task,31,(4/2) + 5,7,,,,,,,,,,,,,,,,,,,1,,,,,,,,,,,,,,,,,,,,,,,"[""7""]",1,[1.6837000000030002],0,0,0,30,1,,,,,,,,,,,,,,,,,,,,,,,,,,
,,,,,,,,,,,X V Q F H G B L J M P D K C T S W R N Z,612ba6c594a6d54154a88ae7,21,Kobieta,2022-06-25_16h24.21.297,task,2021.1.4,Win32,60.02040694,6299f149e92ead563fba08ef,62b70e3fba0b4763d7a39e76,,,,,,,,,,,,,,,,,,,,,,,,,,,,,,,,,,,,,,,,,,,,,,,,,,,,,,,,,,,,,,,,,,,,,,,,,,,,0,0,0,0,1,,,,,,,,,,,,,,,,,,,,,
,,,,,,,,,,,,612ba6c594a6d54154a88ae7,21,Kobieta,2022-06-25_16h24.21.297,task,2021.1.4,Win32,60.02040694,6299f149e92ead563fba08ef,62b70e3fba0b4763d7a39e76,,,,,,,,,,,,,5,,,,,,,,,,Task,22,(3x1) + 2,5,,,,,,,,,,,,,,,,,,,1,,,,,,,,,,,,,,,,,,,,,,,"[""5""]",1,[1.6513000000044258],0,0,0,21,1,,,,,,,,,,,,,,,,,,,,,,,,,,
,,,,,,,,,,,X V Q F H G B L J M P D K C T S W R N Z,612ba6c594a6d54154a88ae7,21,Kobieta,2022-06-25_16h24.21.297,task,2021.1.4,Win32,60.02040694,6299f149e92ead563fba08ef,62b70e3fba0b4763d7a39e76,,,,,,,,,,,,,,,,,,,,,,,,,,,,,,,,,,,,,,,,,,,,,,,,,,,,,,,,,,,,,,,,,,,,,,,,,,,,1,0,1,0,1,,,,,,,,,,,,,,,,,,,,,
,,,,,,,,,,,,612ba6c594a6d54154a88ae7,21,Kobieta,2022-06-25_16h24.21.297,task,2021.1.4,Win32,60.02040694,6299f149e92ead563fba08ef,62b70e3fba0b4763d7a39e76,,,,,,,,,,,,,6,,,,,,,,,,Task,37,(3/3) + 5,6,,,,,,,,,,,,,,,,,,,1,,,,,,,,,,,,,,,,,,,,,,,"[""6""]",1,[2.072099999994066],0,0,0,36,1,,,,,,,,,,,,,,,,,,,,,,,,,,
,,,,,,,,,,,X V Q F H G B L J M P D K C T S W R N Z,612ba6c594a6d54154a88ae7,21,Kobieta,2022-06-25_16h24.21.297,task,2021.1.4,Win32,60.02040694,6299f149e92ead563fba08ef,62b70e3fba0b4763d7a39e76,,,,,,,,,,,,,,,,,,,,,,,,,,,,,,,,,,,,,,,,,,,,,,,,,,,,,,,,,,,,,,,,,,,,,,,,,,,,2,0,2,0,1,,,,,,,,,,,,,,,,,,,,,
,,,,,,,,,,,,612ba6c594a6d54154a88ae7,21,Kobieta,2022-06-25_16h24.21.297,task,2021.1.4,Win32,60.02040694,6299f149e92ead563fba08ef,62b70e3fba0b4763d7a39e76,,,,,,,,,,,,,4,,,,,,,,,,Task,11,(18/3) - 2,4,,,,,,,,,,,,,,,,,,,1,,,,,,,,,,,,,,,,,,,,,,,"[""4""]",1,[1.8887999999969907],0,0,0,10,1,,,,,,,,,,,,,,,,,,,,,,,,,,
,,,,,,,,,,,X V Q F H G B L J M P D K C T S W R N Z,612ba6c594a6d54154a88ae7,21,Kobieta,2022-06-25_16h24.21.297,task,2021.1.4,Win32,60.02040694,6299f149e92ead563fba08ef,62b70e3fba0b4763d7a39e76,,,,,,,,,,,,,,,,,,,,,,,,,,,,,,,,,,,,,,,,,,,,,,,,,,,,,,,,,,,,,,,,,,,,,,,,,,,,3,0,3,0,1,,,,,,,,,,,,,,,,,,,,,
,,,,,,,,,,,,612ba6c594a6d54154a88ae7,21,Kobieta,2022-06-25_16h24.21.297,task,2021.1.4,Win32,60.02040694,6299f149e92ead563fba08ef,62b70e3fba0b4763d7a39e76,,,,,,,,,,,,,4,,,,,,,,,,Task,28,(2x5) - 6,4,,,,,,,,,,,,,,,,,,,1,,,,,,,,,,,,,,,,,,,,,,,"[""4""]",1,[1.9062999999970316],0,0,0,27,1,,,,,,,,,,,,,,,,,,,,,,,,,,
,,,,,,,,,,,X V Q F H G B L J M P D K C T S W R N Z,612ba6c594a6d54154a88ae7,21,Kobieta,2022-06-25_16h24.21.297,task,2021.1.4,Win32,60.02040694,6299f149e92ead563fba08ef,62b70e3fba0b4763d7a39e76,,,,,,,,,,,,,,,,,,,,,,,,,,,,,,,,,,,,,,,,,,,,,,,,,,,,,,,,,,,,,,,,,,,,,,,,,,,,4,0,4,0,1,,,,,,,,,,,,,,,,,,,,,
,,,,,,,,,,,,612ba6c594a6d54154a88ae7,21,Kobieta,2022-06-25_16h24.21.297,task,2021.1.4,Win32,60.02040694,6299f149e92ead563fba08ef,62b70e3fba0b4763d7a39e76,,,,,,,,,,,,,,,,,,,,,,,,,,,,,,,,,,,,,,,,,,,,,,,,,,,,,,,,,,,,,,,,,,,,,,,,,,,,,,,,,xpzhv,"[""x"",""p"",""z"",""h"",""v""]",0,"[1.268000000000029,1.5008000000043467,1.7198999999984608,1.9926000000014028,2.375100000001339,3.0838000000044303]",1,XPZHV,3,0,3,0,1,,,,,,,,,,
,,,,,,,,,,,,612ba6c594a6d54154a88ae7,21,Kobieta,2022-06-25_16h24.21.297,task,2021.1.4,Win32,60.02040694,6299f149e92ead563fba08ef,62b70e3fba0b4763d7a39e76,,,,,,,,,,,,,3,,,,,,,,,,Task,27,(3/3) + 2,3,,,,,,,,,,,,,,,,,,,1,,,,,,,,,,,,,,,,,,,,,,,"[""3""]",1,[2.045400000005884],0,0,0,26,1,,,,,,,,,,,,,,,,,,,,,,,,,,
,,,,,,,,,,,X V Q F H G B L J M P D K C T S W R N Z,612ba6c594a6d54154a88ae7,21,Kobieta,2022-06-25_16h24.21.297,task,2021.1.4,Win32,60.02040694,6299f149e92ead563fba08ef,62b70e3fba0b4763d7a39e76,,,,,,,,,,,,,,,,,,,,,,,,,,,,,,,,,,,,,,,,,,,,,,,,,,,,,,,,,,,,,,,,,,,,,,,,,,,,0,0,0,0,1,,,,,,,,,,,,,,,,,,,,,
,,,,,,,,,,,,612ba6c594a6d54154a88ae7,21,Kobieta,2022-06-25_16h24.21.297,task,2021.1.4,Win32,60.02040694,6299f149e92ead563fba08ef,62b70e3fba0b4763d7a39e76,,,,,,,,,,,,,5,,,,,,,,,,Task,29,(3x8) - 19 ,5,,,,,,,,,,,,,,,,,,,1,,,,,,,,,,,,,,,,,,,,,,,"[""5""]",1,[1.9672000000030039],0,0,0,28,1,,,,,,,,,,,,,,,,,,,,,,,,,,
,,,,,,,,,,,X V Q F H G B L J M P D K C T S W R N Z,612ba6c594a6d54154a88ae7,21,Kobieta,2022-06-25_16h24.21.297,task,2021.1.4,Win32,60.02040694,6299f149e92ead563fba08ef,62b70e3fba0b4763d7a39e76,,,,,,,,,,,,,,,,,,,,,,,,,,,,,,,,,,,,,,,,,,,,,,,,,,,,,,,,,,,,,,,,,,,,,,,,,,,,1,0,1,0,1,,,,,,,,,,,,,,,,,,,,,
,,,,,,,,,,,,612ba6c594a6d54154a88ae7,21,Kobieta,2022-06-25_16h24.21.297,task,2021.1.4,Win32,60.02040694,6299f149e92ead563fba08ef,62b70e3fba0b4763d7a39e76,,,,,,,,,,,,,7,,,,,,,,,,Task,14,(2x2) + 3,7,,,,,,,,,,,,,,,,,,,1,,,,,,,,,,,,,,,,,,,,,,,"[""7""]",1,[1.4821000000015374],0,0,0,13,1,,,,,,,,,,,,,,,,,,,,,,,,,,
,,,,,,,,,,,X V Q F H G B L J M P D K C T S W R N Z,612ba6c594a6d54154a88ae7,21,Kobieta,2022-06-25_16h24.21.297,task,2021.1.4,Win32,60.02040694,6299f149e92ead563fba08ef,62b70e3fba0b4763d7a39e76,,,,,,,,,,,,,,,,,,,,,,,,,,,,,,,,,,,,,,,,,,,,,,,,,,,,,,,,,,,,,,,,,,,,,,,,,,,,2,0,2,0,1,,,,,,,,,,,,,,,,,,,,,
,,,,,,,,,,,,612ba6c594a6d54154a88ae7,21,Kobieta,2022-06-25_16h24.21.297,task,2021.1.4,Win32,60.02040694,6299f149e92ead563fba08ef,62b70e3fba0b4763d7a39e76,,,,,,,,,,,,,6,,,,,,,,,,Task,37,(3/3) + 5,6,,,,,,,,,,,,,,,,,,,1,,,,,,,,,,,,,,,,,,,,,,,"[""6""]",1,[1.7657000000028802],0,0,0,36,1,,,,,,,,,,,,,,,,,,,,,,,,,,
,,,,,,,,,,,X V Q F H G B L J M P D K C T S W R N Z,612ba6c594a6d54154a88ae7,21,Kobieta,2022-06-25_16h24.21.297,task,2021.1.4,Win32,60.02040694,6299f149e92ead563fba08ef,62b70e3fba0b4763d7a39e76,,,,,,,,,,,,,,,,,,,,,,,,,,,,,,,,,,,,,,,,,,,,,,,,,,,,,,,,,,,,,,,,,,,,,,,,,,,,3,0,3,0,1,,,,,,,,,,,,,,,,,,,,,
,,,,,,,,,,,,612ba6c594a6d54154a88ae7,21,Kobieta,2022-06-25_16h24.21.297,task,2021.1.4,Win32,60.02040694,6299f149e92ead563fba08ef,62b70e3fba0b4763d7a39e76,,,,,,,,,,,,,1,,,,,,,,,,Task,18,(16/4) - 3,1,,,,,,,,,,,,,,,,,,,1,,,,,,,,,,,,,,,,,,,,,,,"[""1""]",1,[2.0042000000030384],0,0,0,17,1,,,,,,,,,,,,,,,,,,,,,,,,,,
,,,,,,,,,,,X V Q F H G B L J M P D K C T S W R N Z,612ba6c594a6d54154a88ae7,21,Kobieta,2022-06-25_16h24.21.297,task,2021.1.4,Win32,60.02040694,6299f149e92ead563fba08ef,62b70e3fba0b4763d7a39e76,,,,,,,,,,,,,,,,,,,,,,,,,,,,,,,,,,,,,,,,,,,,,,,,,,,,,,,,,,,,,,,,,,,,,,,,,,,,4,0,4,0,1,,,,,,,,,,,,,,,,,,,,,
,,,,,,,,,,,,612ba6c594a6d54154a88ae7,21,Kobieta,2022-06-25_16h24.21.297,task,2021.1.4,Win32,60.02040694,6299f149e92ead563fba08ef,62b70e3fba0b4763d7a39e76,,,,,,,,,,,,,,,,,,,,,,,Task,34,(9/3) - 2,1,,,,,,,,,,,,,,,,,,,0,,,,,,,,,,,,,,,,,,,,,,,,0,,0,0,0,33,1,,,,,,,,,,,,,,,,,,,,,,,,,,
,,,,,,,,,,,,612ba6c594a6d54154a88ae7,21,Kobieta,2022-06-25_16h24.21.297,task,2021.1.4,Win32,60.02040694,6299f149e92ead563fba08ef,62b70e3fba0b4763d7a39e76,,,,,,,,,,,,,,,,,,,,,,,Task,39,(5x3) - 7,8,,,,,,,,,,,,,,,,,,,0,,,,,,,,,,,,,,,,,,,,,,,,0,,0,1,1,38,1,,,,,,,,,,,,,,,,,,,,,,,,,,
,,,,,,,,,,,,612ba6c594a6d54154a88ae7,21,Kobieta,2022-06-25_16h24.21.297,task,2021.1.4,Win32,60.02040694,6299f149e92ead563fba08ef,62b70e3fba0b4763d7a39e76,,,,,,,,,,,,,1,,,,,,,,,,Task,9,(3x7) - 20,1,,,,,,,,,,,,,,,,,,,1,,,,,,,,,,,,,,,,,,,,,,,"[""1""]",1,[1.2709000000061224],0,2,2,8,1,,,,,,,,,,,,,,,,,,,,,,,,,,
,,,,,,,,,,,X V Q F H G B L J M P D K C T S W R N Z,612ba6c594a6d54154a88ae7,21,Kobieta,2022-06-25_16h24.21.297,task,2021.1.4,Win32,60.02040694,6299f149e92ead563fba08ef,62b70e3fba0b4763d7a39e76,,,,,,,,,,,,,,,,,,,,,,,,,,,,,,,,,,,,,,,,,,,,,,,,,,,,,,,,,,,,,,,,,,,,,,,,,,,,5,0,5,0,1,,,,,,,,,,,,,,,,,,,,,
,,,,,,,,,,,,612ba6c594a6d54154a88ae7,21,Kobieta,2022-06-25_16h24.21.297,task,2021.1.4,Win32,60.02040694,6299f149e92ead563fba08ef,62b70e3fba0b4763d7a39e76,,,,,,,,,,,,,,,,,,,,,,,,,,,,,,,,,,,,,,,,,,,,,,,,,,,,,,,,,,,,,,,,,,,,,,,,,,,,,,,,,lpsfh,"[""l"",""p"",""s"",""f"",""h""]",0,"[1.3841000000013537,1.7249000000058459,2.0674999999998818,2.6012000000030184,3.0341000000014446,4.0437000000029]",0,LPFSPH,4,0,4,0,1,,,,,,,,,,
,,,,,,,,,,,,612ba6c594a6d54154a88ae7,21,Kobieta,2022-06-25_16h24.21.297,task,2021.1.4,Win32,60.02040694,6299f149e92ead563fba08ef,62b70e3fba0b4763d7a39e76,,,,,,,,,,,,,4,,,,,,,,,,Task,4,(1x5) - 1,4,,,,,,,,,,,,,,,,,,,1,,,,,,,,,,,,,,,,,,,,,,,"[""4""]",1,[1.528200000003153],0,0,0,3,1,,,,,,,,,,,,,,,,,,,,,,,,,,
,,,,,,,,,,,X V Q F H G B L J M P D K C T S W R N Z,612ba6c594a6d54154a88ae7,21,Kobieta,2022-06-25_16h24.21.297,task,2021.1.4,Win32,60.02040694,6299f149e92ead563fba08ef,62b70e3fba0b4763d7a39e76,,,,,,,,,,,,,,,,,,,,,,,,,,,,,,,,,,,,,,,,,,,,,,,,,,,,,,,,,,,,,,,,,,,,,,,,,,,,0,0,0,0,1,,,,,,,,,,,,,,,,,,,,,
,,,,,,,,,,,,612ba6c594a6d54154a88ae7,21,Kobieta,2022-06-25_16h24.21.297,task,2021.1.4,Win32,60.02040694,6299f149e92ead563fba08ef,62b70e3fba0b4763d7a39e76,,,,,,,,,,,,,9,,,,,,,,,,Task,24,(2x2) + 5,9,,,,,,,,,,,,,,,,,,,1,,,,,,,,,,,,,,,,,,,,,,,"[""9""]",1,[1.4821999999956006],0,0,0,23,1,,,,,,,,,,,,,,,,,,,,,,,,,,
,,,,,,,,,,,X V Q F H G B L J M P D K C T S W R N Z,612ba6c594a6d54154a88ae7,21,Kobieta,2022-06-25_16h24.21.297,task,2021.1.4,Win32,60.02040694,6299f149e92ead563fba08ef,62b70e3fba0b4763d7a39e76,,,,,,,,,,,,,,,,,,,,,,,,,,,,,,,,,,,,,,,,,,,,,,,,,,,,,,,,,,,,,,,,,,,,,,,,,,,,1,0,1,0,1,,,,,,,,,,,,,,,,,,,,,
,,,,,,,,,,,,612ba6c594a6d54154a88ae7,21,Kobieta,2022-06-25_16h24.21.297,task,2021.1.4,Win32,60.02040694,6299f149e92ead563fba08ef,62b70e3fba0b4763d7a39e76,,,,,,,,,,,,,3,,,,,,,,,,Task,35,(1x2) + 1,3,,,,,,,,,,,,,,,,,,,1,,,,,,,,,,,,,,,,,,,,,,,"[""3""]",1,[1.2985000000001037],0,0,0,34,1,,,,,,,,,,,,,,,,,,,,,,,,,,
,,,,,,,,,,,X V Q F H G B L J M P D K C T S W R N Z,612ba6c594a6d54154a88ae7,21,Kobieta,2022-06-25_16h24.21.297,task,2021.1.4,Win32,60.02040694,6299f149e92ead563fba08ef,62b70e3fba0b4763d7a39e76,,,,,,,,,,,,,,,,,,,,,,,,,,,,,,,,,,,,,,,,,,,,,,,,,,,,,,,,,,,,,,,,,,,,,,,,,,,,2,0,2,0,1,,,,,,,,,,,,,,,,,,,,,
,,,,,,,,,,,,612ba6c594a6d54154a88ae7,21,Kobieta,2022-06-25_16h24.21.297,task,2021.1.4,Win32,60.02040694,6299f149e92ead563fba08ef,62b70e3fba0b4763d7a39e76,,,,,,,,,,,,,1,,,,,,,,,,Task,9,(3x7) - 20,1,,,,,,,,,,,,,,,,,,,1,,,,,,,,,,,,,,,,,,,,,,,"[""1""]",1,[1.2893999999985226],0,0,0,8,1,,,,,,,,,,,,,,,,,,,,,,,,,,
,,,,,,,,,,,X V Q F H G B L J M P D K C T S W R N Z,612ba6c594a6d54154a88ae7,21,Kobieta,2022-06-25_16h24.21.297,task,2021.1.4,Win32,60.02040694,6299f149e92ead563fba08ef,62b70e3fba0b4763d7a39e76,,,,,,,,,,,,,,,,,,,,,,,,,,,,,,,,,,,,,,,,,,,,,,,,,,,,,,,,,,,,,,,,,,,,,,,,,,,,3,0,3,0,1,,,,,,,,,,,,,,,,,,,,,
,,,,,,,,,,,,612ba6c594a6d54154a88ae7,21,Kobieta,2022-06-25_16h24.21.297,task,2021.1.4,Win32,60.02040694,6299f149e92ead563fba08ef,62b70e3fba0b4763d7a39e76,,,,,,,,,,,,,7,,,,,,,,,,Task,14,(2x2) + 3,7,,,,,,,,,,,,,,,,,,,1,,,,,,,,,,,,,,,,,,,,,,,"[""7""]",1,[1.8609999999998763],0,0,0,13,1,,,,,,,,,,,,,,,,,,,,,,,,,,
,,,,,,,,,,,X V Q F H G B L J M P D K C T S W R N Z,612ba6c594a6d54154a88ae7,21,Kobieta,2022-06-25_16h24.21.297,task,2021.1.4,Win32,60.02040694,6299f149e92ead563fba08ef,62b70e3fba0b4763d7a39e76,,,,,,,,,,,,,,,,,,,,,,,,,,,,,,,,,,,,,,,,,,,,,,,,,,,,,,,,,,,,,,,,,,,,,,,,,,,,4,0,4,0,1,,,,,,,,,,,,,,,,,,,,,
,,,,,,,,,,,,612ba6c594a6d54154a88ae7,21,Kobieta,2022-06-25_16h24.21.297,task,2021.1.4,Win32,60.02040694,6299f149e92ead563fba08ef,62b70e3fba0b4763d7a39e76,,,,,,,,,,,,,,,,,,,,,,,Task,7,(3x7) - 12,9,,,,,,,,,,,,,,,,,,,0,,,,,,,,,,,,,,,,,,,,,,,,0,,0,0,0,6,1,,,,,,,,,,,,,,,,,,,,,,,,,,
,,,,,,,,,,,,612ba6c594a6d54154a88ae7,21,Kobieta,2022-06-25_16h24.21.297,task,2021.1.4,Win32,60.02040694,6299f149e92ead563fba08ef,62b70e3fba0b4763d7a39e76,,,,,,,,,,,,,9,,,,,,,,,,Task,32,(8/2) + 4,8,,,,,,,,,,,,,,,,,,,0,,,,,,,,,,,,,,,,,,,,,,,"[""9""]",0,[1.6825000000001182],0,1,1,31,1,,,,,,,,,,,,,,,,,,,,,,,,,,
,,,,,,,,,,,,612ba6c594a6d54154a88ae7,21,Kobieta,2022-06-25_16h24.21.297,task,2021.1.4,Win32,60.02040694,6299f149e92ead563fba08ef,62b70e3fba0b4763d7a39e76,,,,,,,,,,,,,7,,,,,,,,,,Task,6,(12/2) + 1,7,,,,,,,,,,,,,,,,,,,1,,,,,,,,,,,,,,,,,,,,,,,"[""7""]",1,[1.6038000000044121],0,2,2,5,1,,,,,,,,,,,,,,,,,,,,,,,,,,
,,,,,,,,,,,X V Q F H G B L J M P D K C T S W R N Z,612ba6c594a6d54154a88ae7,21,Kobieta,2022-06-25_16h24.21.297,task,2021.1.4,Win32,60.02040694,6299f149e92ead563fba08ef,62b70e3fba0b4763d7a39e76,,,,,,,,,,,,,,,,,,,,,,,,,,,,,,,,,,,,,,,,,,,,,,,,,,,,,,,,,,,,,,,,,,,,,,,,,,,,5,0,5,0,1,,,,,,,,,,,,,,,,,,,,,
,,,,,,,,,,,,612ba6c594a6d54154a88ae7,21,Kobieta,2022-06-25_16h24.21.297,task,2021.1.4,Win32,60.02040694,6299f149e92ead563fba08ef,62b70e3fba0b4763d7a39e76,,,,,,,,,,,,,,,,,,,,,,,,,,,,,,,,,,,,,,,,,,,,,,,,,,,,,,,,,,,,,,,,,,,,,,,,,,,,,,,,,flchq,"[""f"",""l"",""c"",""h"",""q""]",0,"[1.5477999999970962,1.7176999999956024,3.627399999998488,3.90029999999706,4.2171999999955005,5.389100000001463]",0,FLCXHQ,5,0,5,0,1,,,,,,,,,,
,,,,,,,,,,,,612ba6c594a6d54154a88ae7,21,Kobieta,2022-06-25_16h24.21.297,task,2021.1.4,Win32,60.02040694,6299f149e92ead563fba08ef,62b70e3fba0b4763d7a39e76,,,,,,,,,,,,,,,,,,,,,,,,,,,,,,,,,,,,,,,,,,,,,,,,,,,,,,,,,,,,,,,,,,,,,,,,,,,,,,,,,,,,,,,,,,,,"[""comma""]",0,[0.681399999998348],0,0,0,0,1,,
,,,,,,,,,,,,612ba6c594a6d54154a88ae7,21,Kobieta,2022-06-25_16h24.21.297,task,2021.1.4,Win32,60.02040694,6299f149e92ead563fba08ef,62b70e3fba0b4763d7a39e76,,,,,,,,,,,,,,,,,,,,,,,,,,,,,,,,,,,,,,,,,,,,,,,,,,,,,,,,,,,,,,,,,,,,,,,,,,,,,,,,,,,,,,,,,,,,"[""period""]",0,[0.7209000000059405],1,0,1,0,1,,
,,,,,,,,,,,,612ba6c594a6d54154a88ae7,21,Kobieta,2022-06-25_16h24.21.297,task,2021.1.4,Win32,60.02040694,6299f149e92ead563fba08ef,62b70e3fba0b4763d7a39e76,,,,,,,,,,,,,,,,,,,,,,,,,,,,,,,,,,,,,,,,,,,,,,,,,,,,,,,,,,,,,,,,,,,,,,,,,,,,,,,,,,,,,,,,,,,,"[""period""]",0,[0.30969999999570064],2,0,2,0,1,,
,,,,,,,,,,,,612ba6c594a6d54154a88ae7,21,Kobieta,2022-06-25_16h24.21.297,task,2021.1.4,Win32,60.02040694,6299f149e92ead563fba08ef,62b70e3fba0b4763d7a39e76,,,,,,,,,,,,,,,,,,,,,,,,,,,,,,,,,,,,,,,,,,,,,,,,,,,,,,,,,,,,,,,,,,,,,,,,,,,,,,,,,,,,,,,,,,,,"[""comma""]",0,[0.20089999999845531],3,0,3,0,1,,
,,,,,,,,,,,,612ba6c594a6d54154a88ae7,21,Kobieta,2022-06-25_16h24.21.297,task,2021.1.4,Win32,60.02040694,6299f149e92ead563fba08ef,62b70e3fba0b4763d7a39e76,,,,,,,,,,,,,,,,,,,,,,,,,,,,,,,,,,,,,,,,,,,,,,,,,,,,,,,,,,,,,,,,,,,,,,,,,,,,,,,,,,,,,,,,,,,,"[""period"",""comma""]",0,"[0.34229999999706706,1.467299999997067]",4,0,4,0,1,,
,,,,,,,,,,,,612ba6c594a6d54154a88ae7,21,Kobieta,2022-06-25_16h24.21.297,task,2021.1.4,Win32,60.02040694,6299f149e92ead563fba08ef,62b70e3fba0b4763d7a39e76,,,,,,,,,,,,,,,,,,,,,,,,,,,,,,,,,,,,,,,,,,,,,,,,,,,,,,,,,,,,,,,,,,,,,,,,,,,,,,,,,,,,,,,,,,,,"[""period""]",0,[0.1842999999969379],5,0,5,0,1,,
,,,,,,,,,,,,612ba6c594a6d54154a88ae7,21,Kobieta,2022-06-25_16h24.21.297,task,2021.1.4,Win32,60.02040694,6299f149e92ead563fba08ef,62b70e3fba0b4763d7a39e76,,,,,,,,,,,,,,,,,,,,,,,,,,,,,,,,,,,,,,,,,,,,,,,,,,,,,,,,,,,,,,,,,,,,,,,,,,,,,,,,,,,,,,,,,,,,"[""period""]",0,[0.637399999998479],6,0,6,0,1,,
,,,,,,,,,,,,612ba6c594a6d54154a88ae7,21,Kobieta,2022-06-25_16h24.21.297,task,2021.1.4,Win32,60.02040694,6299f149e92ead563fba08ef,62b70e3fba0b4763d7a39e76,,,,,,,,,,,,,,,,,,,,,,,,,,,,,,,,,,,,,,,,,,,,,,,,,,,,,,,,,,,,,,,,,,,,,,,,,,,,,,,,,,,,,,,,,,,,"[""comma""]",0,[0.31799999999998363],7,0,7,0,1,,
,,,,,,,,,,,,612ba6c594a6d54154a88ae7,21,Kobieta,2022-06-25_16h24.21.297,task,2021.1.4,Win32,60.02040694,6299f149e92ead563fba08ef,62b70e3fba0b4763d7a39e76,,,,,,,,,,,,,,,,,,,,,,,,,,,,,,,,,,,,,,,,,,,,,,,,,,,,,,,,,,,,,,,,,,,,,,,,,,,,,,,,,,,,,,,,,,,,"[""comma""]",0,[0.284700000003113],8,0,8,0,1,,
,,,,,,,,,,,,612ba6c594a6d54154a88ae7,21,Kobieta,2022-06-25_16h24.21.297,task,2021.1.4,Win32,60.02040694,6299f149e92ead563fba08ef,62b70e3fba0b4763d7a39e76,,,,,,,,,,,,,,,,,,,,,,,,,,,,,,,,,,,,,,,,,,,,,,,,,,,,,,,,,,,,,,,,,,,,,,,,,,,,,,,,,,,,,,,,,,,,"[""comma""]",0,[0.3343999999985954],9,0,9,0,1,,
,,,,,,,,,,,,612ba6c594a6d54154a88ae7,21,Kobieta,2022-06-25_16h24.21.297,task,2021.1.4,Win32,60.02040694,6299f149e92ead563fba08ef,62b70e3fba0b4763d7a39e76,,,,,,,,,,,,,,,,,,,,,,,,,,,,,,,,,,,,,,,,,,,,,,,,,,,,,,,,,,,,,,,,,,,,,,,,,,,,,,,,,,,,,,,,,,,,"[""period""]",0,[0.35809999999401043],10,0,10,0,1,,
,,,,,,,,,,,,612ba6c594a6d54154a88ae7,21,Kobieta,2022-06-25_16h24.21.297,task,2021.1.4,Win32,60.02040694,6299f149e92ead563fba08ef,62b70e3fba0b4763d7a39e76,,,,,,,,,,,,,,,,,,,,,,,,,,,,,,,,,,,,,,,,,,,,,,,,,,,,,,,,,,,,,,,,,,,,,,,,,,,,,,,,,,,,,,,,,,,,"[""comma""]",0,[0.3218000000044867],11,0,11,0,1,,
,,,,,,,,,,,,612ba6c594a6d54154a88ae7,21,Kobieta,2022-06-25_16h24.21.297,task,2021.1.4,Win32,60.02040694,6299f149e92ead563fba08ef,62b70e3fba0b4763d7a39e76,,,,,,,,,,,,,,,,,,,,,,,,,,,,,,,,,,,,,,,,,,,,,,,,,,,,,,,,,,,,,,,,,,,,,,,,,,,,,,,,,,,,,,,,,,,,"[""comma""]",0,[0.17329999999697066],12,0,12,0,1,,
,,,,,,,,,,,,612ba6c594a6d54154a88ae7,21,Kobieta,2022-06-25_16h24.21.297,task,2021.1.4,Win32,60.02040694,6299f149e92ead563fba08ef,62b70e3fba0b4763d7a39e76,,,,,,,,,,,,,,,,,,,,,,,,,,,,,,,,,,,,,,,,,,,,,,,,,,,,,,,,,,,,,,,,,,,,,,,,,,,,,,,,,,,,,,,,,,,,"[""period""]",0,[0.19369999999548781],13,0,13,0,1,,
,,,,,,,,,,,,612ba6c594a6d54154a88ae7,21,Kobieta,2022-06-25_16h24.21.297,task,2021.1.4,Win32,60.02040694,6299f149e92ead563fba08ef,62b70e3fba0b4763d7a39e76,,,,,,,,,,,,,,,,,,,,,,,,,,,,,,,,,,,,,,,,,,,,,,,,,,,,,,,,,,,,,,,,,,,,,,,,,,,,,,,,,,,,,,,,,,,,"[""period""]",0,[0.25080000000434666],14,0,14,0,1,,
,,,,,,,,,,,,612ba6c594a6d54154a88ae7,21,Kobieta,2022-06-25_16h24.21.297,task,2021.1.4,Win32,60.02040694,6299f149e92ead563fba08ef,62b70e3fba0b4763d7a39e76,,,,,,,,,,,,,,,,,,,,,,,,,,,,,,,,,,,,,,,,,,,,,,,,,,,,,,,,,,,,,,,,,,,,,,,,,,,,,,,,,,,,,,,,,,,,"[""comma""]",0,[0.2892999999969561],15,0,15,0,1,,
,,,,,,,,,,,,612ba6c594a6d54154a88ae7,21,Kobieta,2022-06-25_16h24.21.297,task,2021.1.4,Win32,60.02040694,6299f149e92ead563fba08ef,62b70e3fba0b4763d7a39e76,,,,,,,,,,,,,,,,,,,,,,,,,,,,,,,,,,,,,,,,,,,,,,,,,,,,,,,,,,,,,,,,,,,,,,,,,,,,,,,,,,,,,,,,,,,,"[""period""]",0,[0.23369999999545144],16,0,16,0,1,,
,,,,,,,,,,,,612ba6c594a6d54154a88ae7,21,Kobieta,2022-06-25_16h24.21.297,task,2021.1.4,Win32,60.02040694,6299f149e92ead563fba08ef,62b70e3fba0b4763d7a39e76,,,,,,,,,,,,,,,,,,,,,,,,,,,,,,,,,,,,,,,,,,,,,,,,,,,,,,,,,,,,,,,,,,,,,,,,,,,,,,,,,,,,,,,,,,,,"[""period""]",0,[0.3065000000001419],17,0,17,0,1,,
,,,,,,,,,,,,612ba6c594a6d54154a88ae7,21,Kobieta,2022-06-25_16h24.21.297,task,2021.1.4,Win32,60.02040694,6299f149e92ead563fba08ef,62b70e3fba0b4763d7a39e76,,,,,,,,,,,,,,,,,,,,,,,,,,,,,,,,,,,,,,,,,,,,,,,,,,,,,,,,,,,,,,,,,,,,,,,,,,,,,,,,,,,,,,,,,,,,"[""comma""]",0,[0.27800000000002],18,0,18,0,1,,
,,,,,,,,,,,,612ba6c594a6d54154a88ae7,21,Kobieta,2022-06-25_16h24.21.297,task,2021.1.4,Win32,60.02040694,6299f149e92ead563fba08ef,62b70e3fba0b4763d7a39e76,,,,,,,,,,,,,,,,,,,,,,,,,,,,,,,,,,,,,,,,,,,,,,,,,,,,,,,,,,,,,,,,,,,,,,,,,,,,,,,,,,,,,,,,,,,,"[""period""]",0,[0.2341999999955533],19,0,19,0,1,,
,,,,,,,,,,,,612ba6c594a6d54154a88ae7,21,Kobieta,2022-06-25_16h24.21.297,task,2021.1.4,Win32,60.02040694,6299f149e92ead563fba08ef,62b70e3fba0b4763d7a39e76,,,,,,,,,,,,,,,,,,,,,,,,,,,,,,,,,,,,,,,,,,,,,,,,,,,,,,,,,,,,,,,,,,,,,,,,,,,,,,,,,,,,,,,,,,,,"[""comma"",""comma""]",0,"[0.23739999999861539,1.920399999998608]",20,0,20,0,1,,
,,,,,,,,,,,,612ba6c594a6d54154a88ae7,21,Kobieta,2022-06-25_16h24.21.297,task,2021.1.4,Win32,60.02040694,6299f149e92ead563fba08ef,62b70e3fba0b4763d7a39e76,,,,,,,,,,,,,,,,,,,,,,,,,,,,,,,,,,,,,,,,,,,,,,,,,,,,,,,,,,,,,,,,,,,,,,,,,,,,,,,,,,,,,,,,,,,,,0,,21,0,21,0,1,,
,,,,,,,,,,,,612ba6c594a6d54154a88ae7,21,Kobieta,2022-06-25_16h24.21.297,task,2021.1.4,Win32,60.02040694,6299f149e92ead563fba08ef,62b70e3fba0b4763d7a39e76,,,,,,,,,,,,,,,,,,,,,,,,,,,,,,,,,,,,,,,,,,,,,,,,,,,,,,,,,,,,,,,,,,,,,,,,,,,,,,,,,,,,,,,,,,,,"[""comma""]",0,[0.29349999999999454],22,0,22,0,1,,
,,,,,,,,,,,,612ba6c594a6d54154a88ae7,21,Kobieta,2022-06-25_16h24.21.297,task,2021.1.4,Win32,60.02040694,6299f149e92ead563fba08ef,62b70e3fba0b4763d7a39e76,,,,,,,,,,,,,,,,,,,,,,,,,,,,,,,,,,,,,,,,,,,,,,,,,,,,,,,,,,,,,,,,,,,,,,,,,,,,,,,,,,,,,,,,,,,,"[""period""]",0,[0.25829999999700703],23,0,23,0,1,,
,,,,,,,,,,,,612ba6c594a6d54154a88ae7,21,Kobieta,2022-06-25_16h24.21.297,task,2021.1.4,Win32,60.02040694,6299f149e92ead563fba08ef,62b70e3fba0b4763d7a39e76,,,,,,,,,,,,,,,,,,,,,,,,,,,,,,,,,,,,,,,,,,,,,,,,,,,,,,,,,,,,,,,,,,,,,,,,,,,,,,,,,,,,,,,,,,,,"[""comma"",""period""]",0,"[0.27879999999686333,1.9775999999940268]",24,0,24,0,1,,
,,,,,,,,,,,,612ba6c594a6d54154a88ae7,21,Kobieta,2022-06-25_16h24.21.297,task,2021.1.4,Win32,60.02040694,6299f149e92ead563fba08ef,62b70e3fba0b4763d7a39e76,,,,,,,,,,,,,,,,,,,,,,,,,,,,,,,,,,,,,,,,,,,,,,,,,,,,,,,,,,,,,,,,,,,,,,,,,,,,,,,,,,,,,,,,,,,,,0,,25,0,25,0,1,,
,,,,,,,,,,,,612ba6c594a6d54154a88ae7,21,Kobieta,2022-06-25_16h24.21.297,task,2021.1.4,Win32,60.02040694,6299f149e92ead563fba08ef,62b70e3fba0b4763d7a39e76,,,,,,,,,,,,,,,,,,,,,,,,,,,,,,,,,,,,,,,,,,,,,,,,,,,,,,,,,,,,,,,,,,,,,,,,,,,,,,,,,,,,,,,,,,,,"[""period""]",0,[0.4555000000000291],26,0,26,0,1,,
,,,,,,,,,,,,612ba6c594a6d54154a88ae7,21,Kobieta,2022-06-25_16h24.21.297,task,2021.1.4,Win32,60.02040694,6299f149e92ead563fba08ef,62b70e3fba0b4763d7a39e76,,,,,,,,,,,,,,,,,,,,,,,,,,,,,,,,,,,,,,,,,,,,,,,,,,,,,,,,,,,,,,,,,,,,,,,,,,,,,,,,,,,,,,,,,,,,"[""comma""]",0,[0.30059999999411957],27,0,27,0,1,,
,,,,,,,,,,,,612ba6c594a6d54154a88ae7,21,Kobieta,2022-06-25_16h24.21.297,task,2021.1.4,Win32,60.02040694,6299f149e92ead563fba08ef,62b70e3fba0b4763d7a39e76,,,,,,,,,,,,,,,,,,,,,,,,,,,,,,,,,,,,,,,,,,,,,,,,,,,,,,,,,,,,,,,,,,,,,,,,,,,,,,,,,,,,,,,,,,,,"[""period""]",0,[0.36829999999713436],28,0,28,0,1,,
,,,,,,,,,,,,612ba6c594a6d54154a88ae7,21,Kobieta,2022-06-25_16h24.21.297,task,2021.1.4,Win32,60.02040694,6299f149e92ead563fba08ef,62b70e3fba0b4763d7a39e76,,,,,,,,,,,,,,,,,,,,,,,,,,,,,,,,,,,,,,,,,,,,,,,,,,,,,,,,,,,,,,,,,,,,,,,,,,,,,,,,,,,,,,,,,,,,"[""comma""]",0,[0.5218000000045322],29,0,29,0,1,,
,,,,,,,,,,,,612ba6c594a6d54154a88ae7,21,Kobieta,2022-06-25_16h24.21.297,task,2021.1.4,Win32,60.02040694,6299f149e92ead563fba08ef,62b70e3fba0b4763d7a39e76,,,,,,,,,,,,,,,,,,,,,,,,,,,,,,,,,,,,,,,,,,,,,,,,,,,,,,,,,,,,,,,,,,,,,,,,,,,,,,,,,,,,,,,,,,,,"[""comma""]",0,[0.5682999999969525],30,0,30,0,1,,
,,,,,,,,,,,,612ba6c594a6d54154a88ae7,21,Kobieta,2022-06-25_16h24.21.297,task,2021.1.4,Win32,60.02040694,6299f149e92ead563fba08ef,62b70e3fba0b4763d7a39e76,,,,,,,,,,,,,,,,,,,,,,,,,,,,,,,,,,,,,,,,,,,,,,,,,,,,,,,,,,,,,,,,,,,,,,,,,,,,,,,,,,,,,,,,,,,,"[""period""]",0,[0.8166000000014719],31,0,31,0,1,,
,,,,,,,,,,,,612ba6c594a6d54154a88ae7,21,Kobieta,2022-06-25_16h24.21.297,task,2021.1.4,Win32,60.02040694,6299f149e92ead563fba08ef,62b70e3fba0b4763d7a39e76,,,,,,,,,,,,,,,,,,,,,,,,,,,,,,,,,,,,,,,,,,,,,,,,,,,,,,,,,,,,,,,,,,,,,,,,,,,,,,,,,,,,,,,,,,,,,0,,32,0,32,0,1,,
,,,,,,,,,,,,612ba6c594a6d54154a88ae7,21,Kobieta,2022-06-25_16h24.21.297,task,2021.1.4,Win32,60.02040694,6299f149e92ead563fba08ef,62b70e3fba0b4763d7a39e76,,,,,,,,,,,,,,,,,,,,,,,,,,,,,,,,,,,,,,,,,,,,,,,,,,,,,,,,,,,,,,,,,,,,,,,,,,,,,,,,,,,,,,,,,,,,"[""period""]",0,[0.33460000000150103],33,0,33,0,1,,
,,,,,,,,,,,,612ba6c594a6d54154a88ae7,21,Kobieta,2022-06-25_16h24.21.297,task,2021.1.4,Win32,60.02040694,6299f149e92ead563fba08ef,62b70e3fba0b4763d7a39e76,,,,,,,,,,,,,,,,,,,,,,,,,,,,,,,,,,,,,,,,,,,,,,,,,,,,,,,,,,,,,,,,,,,,,,,,,,,,,,,,,,,,,,,,,,,,"[""comma""]",0,[0.4420000000000073],34,0,34,0,1,,
,,,,,,,,,,,,612ba6c594a6d54154a88ae7,21,Kobieta,2022-06-25_16h24.21.297,task,2021.1.4,Win32,60.02040694,6299f149e92ead563fba08ef,62b70e3fba0b4763d7a39e76,,,,,,,,,,,,,,,,,,,,,,,,,,,,,,,,,,,,,,,,,,,,,,,,,,,,,,,,,,,,,,,,,,,,,,,,,,,,,,,,,,,,,,,,,,,,,0,,35,0,35,0,1,,
,,,,,,,,,,,,612ba6c594a6d54154a88ae7,21,Kobieta,2022-06-25_16h24.21.297,task,2021.1.4,Win32,60.02040694,6299f149e92ead563fba08ef,62b70e3fba0b4763d7a39e76,,,,,,,,,,,,,,,,,,,,,,,,,,,,,,,,,,,,,,,,,,,,,,,,,,,,,,,,,,,,,,,,,,,,,,,,,,,,,,,,,,,,,,,,,,,,"[""period""]",0,[0.3409999999998945],36,0,36,0,1,,
,,,,,,,,,,,,612ba6c594a6d54154a88ae7,21,Kobieta,2022-06-25_16h24.21.297,task,2021.1.4,Win32,60.02040694,6299f149e92ead563fba08ef,62b70e3fba0b4763d7a39e76,,,,,,,,,,,,,,,,,,,,,,,,,,,,,,,,,,,,,,,,,,,,,,,,,,,,,,,,,,,,,,,,,,,,,,,,,,,,,,,,,,,,,,,,,,,,"[""comma""]",0,[0.9601999999956661],37,0,37,0,1,,
,,,,,,,,,,,,612ba6c594a6d54154a88ae7,21,Kobieta,2022-06-25_16h24.21.297,task,2021.1.4,Win32,60.02040694,6299f149e92ead563fba08ef,62b70e3fba0b4763d7a39e76,,,,,,,,,,,,,,,,,,,,,,,,,,,,,,,,,,,,,,,,,,,,,,,,,,,,,,,,,,,,,,,,,,,,,,,,,,,,,,,,,,,,,,,,,,,,"[""period""]",0,[0.8144999999999527],38,0,38,0,1,,
,,,,,,,,,,,,612ba6c594a6d54154a88ae7,21,Kobieta,2022-06-25_16h24.21.297,task,2021.1.4,Win32,60.02040694,6299f149e92ead563fba08ef,62b70e3fba0b4763d7a39e76,,,,,,,,,,,,,,,,,,,,,,,,,,,,,,,,,,,,,,,,,,,,,,,,,,,,,,,,,,,,,,,,,,,,,,,,,,,,,,,,,,,,,,,,,,,,"[""period""]",0,[0.5608999999985826],39,0,39,0,1,,
,,,,,,,,,,,,612ba6c594a6d54154a88ae7,21,Kobieta,2022-06-25_16h24.21.297,task,2021.1.4,Win32,60.02040694,6299f149e92ead563fba08ef,62b70e3fba0b4763d7a39e76,,,,,,,,,,,,,,,,,,,,,,,,,,,,,,,,,,,,,,,,,,,,,,,,,,,,,,,,,,,,,,,,,,,,,,,,,,,,,,,,,,,,,,,,,,,,"[""period""]",0,[0.5567000000030475],40,0,40,0,1,,
,,,,,,,,,,,,612ba6c594a6d54154a88ae7,21,Kobieta,2022-06-25_16h24.21.297,task,2021.1.4,Win32,60.02040694,6299f149e92ead563fba08ef,62b70e3fba0b4763d7a39e76,,,,,,,,,,,,,,,,,,,,,,,,,,,,,,,,,,,,,,,,,,,,,,,,,,,,,,,,,,,,,,,,,,,,,,,,,,,,,,,,,,,,,,,,,,,,"[""comma""]",0,[0.5753999999983535],41,0,41,0,1,,
,,,,,,,,,,,,612ba6c594a6d54154a88ae7,21,Kobieta,2022-06-25_16h24.21.297,task,2021.1.4,Win32,60.02040694,6299f149e92ead563fba08ef,62b70e3fba0b4763d7a39e76,,,,,,,,,,,,,,,,,,,,,,,,,,,,,,,,,,,,,,,,,,,,,,,,,,,,,,,,,,,,,,,,,,,,,,,,,,,,,,,,,,,,,,,,,,,,"[""comma""]",0,[1.2452999999968597],42,0,42,0,1,,
,,,,,,,,,,,,612ba6c594a6d54154a88ae7,21,Kobieta,2022-06-25_16h24.21.297,task,2021.1.4,Win32,60.02040694,6299f149e92ead563fba08ef,62b70e3fba0b4763d7a39e76,,,,,,,,,,,,,,,,,,,,,,,,,,,,,,,,,,,,,,,,,,,,,,,,,,,,,,,,,,,,,,,,,,,,,,,,,,,,,,,,,,,,,,,,,,,,"[""period""]",0,[0.47070000000280743],43,0,43,0,1,,
,,,,,,,,,,,,612ba6c594a6d54154a88ae7,21,Kobieta,2022-06-25_16h24.21.297,task,2021.1.4,Win32,60.02040694,6299f149e92ead563fba08ef,62b70e3fba0b4763d7a39e76,,,,,,,,,,,,,,,,,,,,,,,,,,,,,,,,,,,,,,,,,,,,,,,,,,,,,,,,,,,,,,,,,,,,,,,,,,,,,,,,,,,,,,,,,,,,"[""period""]",0,[0.4034999999998945],44,0,44,0,1,,
,,,,,,,,,,,,612ba6c594a6d54154a88ae7,21,Kobieta,2022-06-25_16h24.21.297,task,2021.1.4,Win32,60.02040694,6299f149e92ead563fba08ef,62b70e3fba0b4763d7a39e76,,,,,,,,,,,,,,,,,,,,,,,,,,,,,,,,,,,,,,,,,,,,,,,,,,,,,,,,,,,,,,,,,,,,,,,,,,,,,,,,,,,,,,,,,,,,"[""comma""]",0,[0.3585000000000491],45,0,45,0,1,,
,,,,,,,,,,,,612ba6c594a6d54154a88ae7,21,Kobieta,2022-06-25_16h24.21.297,task,2021.1.4,Win32,60.02040694,6299f149e92ead563fba08ef,62b70e3fba0b4763d7a39e76,,,,,,,,,,,,,,,,,,,,,,,,,,,,,,,,,,,,,,,,,,,,,,,,,,,,,,,,,,,,,,,,,,,,,,,,,,,,,,,,,,,,,,,,,,,,"[""period""]",0,[0.5007000000027801],46,0,46,0,1,,
,,,,,,,,,,,,612ba6c594a6d54154a88ae7,21,Kobieta,2022-06-25_16h24.21.297,task,2021.1.4,Win32,60.02040694,6299f149e92ead563fba08ef,62b70e3fba0b4763d7a39e76,,,,,,,,,,,,,,,,,,,,,,,,,,,,,,,,,,,,,,,,,,,,,,,,,,,,,,,,,,,,,,,,,,,,,,,,,,,,,,,,,,,,,,,,,,,,"[""comma""]",0,[0.4339999999999691],47,0,47,0,1,,
,,,,,,,,,,,,612ba6c594a6d54154a88ae7,21,Kobieta,2022-06-25_16h24.21.297,task,2021.1.4,Win32,60.02040694,6299f149e92ead563fba08ef,62b70e3fba0b4763d7a39e76,,,,,,,,,,,,,,,,,,,,,,,,,,,,,,,,,,,,,,,,,,,,,,,,,,,,,,,,,,,,,,,,,,,,,,,,,,,,,,,,,,,,,,,,,,,,"[""period""]",0,[0.3080999999940559],48,0,48,0,1,,
,,,,,,,,,,,,612ba6c594a6d54154a88ae7,21,Kobieta,2022-06-25_16h24.21.297,task,2021.1.4,Win32,60.02040694,6299f149e92ead563fba08ef,62b70e3fba0b4763d7a39e76,,,,,,,,,,,,,,,,,,,,,,,,,,,,,,,,,,,,,,,,,,,,,,,,,,,,,,,,,,,,,,,,,,,,,,,,,,,,,,,,,,,,,,,,,,,,"[""period""]",0,[0.2506999999955042],49,0,49,0,1,,
,,,,,,,,,,,,612ba6c594a6d54154a88ae7,21,Kobieta,2022-06-25_16h24.21.297,task,2021.1.4,Win32,60.02040694,6299f149e92ead563fba08ef,62b70e3fba0b4763d7a39e76,,,,,,,,,,,,,,,,,,,,,,,,,,,,,,,,,,,,,,,,,,,,,,,,,,,,,,,,,,,,,,,,,,,,,,,,,,,,,,,,,,,,,,,,,,,,"[""comma""]",0,[0.3856000000014319],50,0,50,0,1,,
,,,,,,,,,,,,612ba6c594a6d54154a88ae7,21,Kobieta,2022-06-25_16h24.21.297,task,2021.1.4,Win32,60.02040694,6299f149e92ead563fba08ef,62b70e3fba0b4763d7a39e76,,,,,,,,,,,,,,,,,,,,,,,,,,,,,,,,,,,,,,,,,,,,,,,,,,,,,,,,,,,,,,,,,,,,,,,,,,,,,,,,,,,,,,,,,,,,"[""comma""]",0,[0.6672000000030494],51,0,51,0,1,,
,,,,,,,,,,,,612ba6c594a6d54154a88ae7,21,Kobieta,2022-06-25_16h24.21.297,task,2021.1.4,Win32,60.02040694,6299f149e92ead563fba08ef,62b70e3fba0b4763d7a39e76,,,,,,,,,,,,,,,,,,,,,,,,,,,,,,,,,,,,,,,,,,,,,,,,,,,,,,,,,,,,,,,,,,,,,,,,,,,,,,,,,,,,,,,,,,,,"[""period""]",0,[0.5724999999999909],52,0,52,0,1,,
,,,,,,,,,,,,612ba6c594a6d54154a88ae7,21,Kobieta,2022-06-25_16h24.21.297,task,2021.1.4,Win32,60.02040694,6299f149e92ead563fba08ef,62b70e3fba0b4763d7a39e76,,,,,,,,,,,,,,,,,,,,,,,,,,,,,,,,,,,,,,,,,,,,,,,,,,,,,,,,,,,,,,,,,,,,,,,,,,,,,,,,,,,,,,,,,,,,"[""period""]",0,[0.9377999999969688],53,0,53,0,1,,
,,,,,,,,,,,,612ba6c594a6d54154a88ae7,21,Kobieta,2022-06-25_16h24.21.297,task,2021.1.4,Win32,60.02040694,6299f149e92ead563fba08ef,62b70e3fba0b4763d7a39e76,,,,,,,,,,,,,,,,,,,,,,,,,,,,,,,,,,,,,,,,,,,,,,,,,,,,,,,,,,,,,,,,,,,,,,,,,,,,,,,,,,,,,,,,,,,,"[""comma""]",0,[0.5242000000030203],54,0,54,0,1,,
,,,,,,,,,,,,612ba6c594a6d54154a88ae7,21,Kobieta,2022-06-25_16h24.21.297,task,2021.1.4,Win32,60.02040694,6299f149e92ead563fba08ef,62b70e3fba0b4763d7a39e76,,,,,,,,,,,,,,,,,,,,,,,,,,,,,,,,,,,,,,,,,,,,,,,,,,,,,,,,,,,,,,,,,,,,,,,,,,,,,,,,,,,,,,,,,,,,"[""period""]",0,[0.3363999999985481],55,0,55,0,1,,
,,,,,,,,,,,,612ba6c594a6d54154a88ae7,21,Kobieta,2022-06-25_16h24.21.297,task,2021.1.4,Win32,60.02040694,6299f149e92ead563fba08ef,62b70e3fba0b4763d7a39e76,,,,,,,,,,,,,,,,,,,,,,,,,,,,,,,,,,,,,,,,,,,,,,,,,,,,,,,,,,,,,,,,,,,,,,,,,,,,,,,,,,,,,,,,,,,,"[""comma""]",0,[0.324500000000171],56,0,56,0,1,,
,,,,,,,,,,,,612ba6c594a6d54154a88ae7,21,Kobieta,2022-06-25_16h24.21.297,task,2021.1.4,Win32,60.02040694,6299f149e92ead563fba08ef,62b70e3fba0b4763d7a39e76,,,,,,,,,,,,,,,,,,,,,,,,,,,,,,,,,,,,,,,,,,,,,,,,,,,,,,,,,,,,,,,,,,,,,,,,,,,,,,,,,,,,,,,,,,,,"[""period""]",0,[0.3049000000060005],57,0,57,0,1,,
,,,,,,,,,,,,612ba6c594a6d54154a88ae7,21,Kobieta,2022-06-25_16h24.21.297,task,2021.1.4,Win32,60.02040694,6299f149e92ead563fba08ef,62b70e3fba0b4763d7a39e76,,,,,,,,,,,,,,,,,,,,,,,,,,,,,,,,,,,,,,,,,,,,,,,,,,,,,,,,,,,,,,,,,,,,,,,,,,,,,,,,,,,,,,,,,,,,"[""period""]",0,[0.29300000000012005],58,0,58,0,1,,
,,,,,,,,,,,,612ba6c594a6d54154a88ae7,21,Kobieta,2022-06-25_16h24.21.297,task,2021.1.4,Win32,60.02040694,6299f149e92ead563fba08ef,62b70e3fba0b4763d7a39e76,,,,,,,,,,,,,,,,,,,,,,,,,,,,,,,,,,,,,,,,,,,,,,,,,,,,,,,,,,,,,,,,,,,,,,,,,,,,,,,,,,,,,,,,,,,,"[""period""]",0,[0.5174999999999272],59,0,59,0,1,,
,,,,,,,,,,,,612ba6c594a6d54154a88ae7,21,Kobieta,2022-06-25_16h24.21.297,task,2021.1.4,Win32,60.02040694,6299f149e92ead563fba08ef,62b70e3fba0b4763d7a39e76,,,,,,,,,,,,,,,,,,,,,,,,,,,,,,,,,,,,,,,,,,,,,,,,,,,,,,,,,,,,,,,,,,,,,,,,,,,,,,,,,,,,,,,,,,,,"[""comma""]",0,[0.8377000000029966],60,0,60,0,1,,
,,,,,,,,,,,,612ba6c594a6d54154a88ae7,21,Kobieta,2022-06-25_16h24.21.297,task,2021.1.4,Win32,60.02040694,6299f149e92ead563fba08ef,62b70e3fba0b4763d7a39e76,,,,,,,,,,,,,,,,,,,,,,,,,,,,,,,,,,,,,,,,,,,,,,,,,,,,,,,,,,,,,,,,,,,,,,,,,,,,,,,,,,,,,,,,,,,,"[""period""]",0,[0.938699999995606],61,0,61,0,1,,
,,,,,,,,,,,,612ba6c594a6d54154a88ae7,21,Kobieta,2022-06-25_16h24.21.297,task,2021.1.4,Win32,60.02040694,6299f149e92ead563fba08ef,62b70e3fba0b4763d7a39e76,,,,,,,,,,,,,,,,,,,,,,,,,,,,,,,,,,,,,,,,,,,,,,,,,,,,,,,,,,,,,,,,,,,,,,,,,,,,,,,,,,,,,,,,,,,,"[""period""]",0,[0.9259999999999309],62,0,62,0,1,,
,,,,,,,,,,,,612ba6c594a6d54154a88ae7,21,Kobieta,2022-06-25_16h24.21.297,task,2021.1.4,Win32,60.02040694,6299f149e92ead563fba08ef,62b70e3fba0b4763d7a39e76,,,,,,,,,,,,,,,,,,,,,,,,,,,,,,,,,,,,,,,,,,,,,,,,,,,,,,,,,,,,,,,,,,,,,,,,,,,,,,,,,,,,,,,,,,,,"[""comma""]",0,[0.6670000000001437],63,0,63,0,1,,
,,,,,,,,,,,,612ba6c594a6d54154a88ae7,21,Kobieta,2022-06-25_16h24.21.297,task,2021.1.4,Win32,60.02040694,6299f149e92ead563fba08ef,62b70e3fba0b4763d7a39e76,,,,,,,,,,,,,,,,,,,,,,,,,,,,,,,,,,,,,,,,,,,,,,,,,,,,,,,,,,,,,,,,,,,,,,,,,,,,,,,,,,,,,,,,,,,,"[""comma""]",0,[0.870300000004363],64,0,64,0,1,,
,,,,,,,,,,,,612ba6c594a6d54154a88ae7,21,Kobieta,2022-06-25_16h24.21.297,task,2021.1.4,Win32,60.02040694,6299f149e92ead563fba08ef,62b70e3fba0b4763d7a39e76,,,,,,,,,,,,,,,,,,,,,,,,,,,,,,,,,,,,,,,,,,,,,,,,,,,,,,,,,,,,,,,,,,,,,,,,,,,,,,,,,,,,,,,,,,,,"[""period""]",0,[0.2889000000059241],65,0,65,0,1,,
,,,,,,,,,,,,612ba6c594a6d54154a88ae7,21,Kobieta,2022-06-25_16h24.21.297,task,2021.1.4,Win32,60.02040694,6299f149e92ead563fba08ef,62b70e3fba0b4763d7a39e76,,,,,,,,,,,,,,,,,,,,,,,,,,,,,,,,,,,,,,,,,,,,,,,,,,,,,,,,,,,,,,,,,,,,,,,,,,,,,,,,,,,,,,,,,,,,"[""comma""]",0,[0.26829999999699794],66,0,66,0,1,,
,,,,,,,,,,,,612ba6c594a6d54154a88ae7,21,Kobieta,2022-06-25_16h24.21.297,task,2021.1.4,Win32,60.02040694,6299f149e92ead563fba08ef,62b70e3fba0b4763d7a39e76,,,,,,,,,,,,,,,,,,,,,,,,,,,,,,,,,,,,,,,,,,,,,,,,,,,,,,,,,,,,,,,,,,,,,,,,,,,,,,,,,,,,,,,,,,,,"[""period""]",0,[0.19310000000155014],67,0,67,0,1,,
,,,,,,,,,,,,612ba6c594a6d54154a88ae7,21,Kobieta,2022-06-25_16h24.21.297,task,2021.1.4,Win32,60.02040694,6299f149e92ead563fba08ef,62b70e3fba0b4763d7a39e76,,,,,,,,,,,,,,,,,,,,,,,,,,,,,,,,,,,,,,,,,,,,,,,,,,,,,,,,,,,,,,,,,,,,,,,,,,,,,,,,,,,,,,,,,,,,"[""comma""]",0,[0.15010000000165746],68,0,68,0,1,,
,,,,,,,,,,,,612ba6c594a6d54154a88ae7,21,Kobieta,2022-06-25_16h24.21.297,task,2021.1.4,Win32,60.02040694,6299f149e92ead563fba08ef,62b70e3fba0b4763d7a39e76,,,,,,,,,,,,,,,,,,,,,,,,,,,,,,,,,,,,,,,,,,,,,,,,,,,,,,,,,,,,,,,,,,,,,,,,,,,,,,,,,,,,,,,,,,,,"[""comma""]",0,[0.20870000000286382],69,0,69,0,1,,
,,,,,,,,,,,,612ba6c594a6d54154a88ae7,21,Kobieta,2022-06-25_16h24.21.297,task,2021.1.4,Win32,60.02040694,6299f149e92ead563fba08ef,62b70e3fba0b4763d7a39e76,,,,,,,,,,,,,,,,,,,,,,,,,,,,,,,,,,,,,,,,,,,,,,,,,,,,,,,,,,,,,,,,,,,,,,,,,,,,,,,,,,,,,,,,,,,,"[""period""]",0,[0.06879999999705433],70,0,70,0,1,,
,,,,,,,,,,,,612ba6c594a6d54154a88ae7,21,Kobieta,2022-06-25_16h24.21.297,task,2021.1.4,Win32,60.02040694,6299f149e92ead563fba08ef,62b70e3fba0b4763d7a39e76,,,,,,,,,,,,,,,,,,,,,,,,,,,,,,,,,,,,,,,,,,,,,,,,,,,,,,,,,,,,,,,,,,,,,,,,,,,,,,,,,,,,,,,,,,,,"[""period""]",0,[0.33689999999864995],71,0,71,0,1,,
,,,,,,,,,,,,612ba6c594a6d54154a88ae7,21,Kobieta,2022-06-25_16h24.21.297,task,2021.1.4,Win32,60.02040694,6299f149e92ead563fba08ef,62b70e3fba0b4763d7a39e76,,,,,,,,,,,,,,,,,,,,,,,,,,,,,,,,,,,,,,,,,,,,,,,,,,,,,,,,,,,,,,,,,,,,,,,,,,,,,,,,,,,,,,,,,,,,"[""comma""]",0,[0.2856000000012955],72,0,72,0,1,,
,,,,,,,,,,,,612ba6c594a6d54154a88ae7,21,Kobieta,2022-06-25_16h24.21.297,task,2021.1.4,Win32,60.02040694,6299f149e92ead563fba08ef,62b70e3fba0b4763d7a39e76,,,,,,,,,,,,,,,,,,,,,,,,,,,,,,,,,,,,,,,,,,,,,,,,,,,,,,,,,,,,,,,,,,,,,,,,,,,,,,,,,,,,,,,,,,,,"[""period""]",0,[0.30089999999836436],73,0,73,0,1,,
,,,,,,,,,,,,612ba6c594a6d54154a88ae7,21,Kobieta,2022-06-25_16h24.21.297,task,2021.1.4,Win32,60.02040694,6299f149e92ead563fba08ef,62b70e3fba0b4763d7a39e76,,,,,,,,,,,,,,,,,,,,,,,,,,,,,,,,,,,,,,,,,,,,,,,,,,,,,,,,,,,,,,,,,,,,,,,,,,,,,,,,,,,,,,,,,,,,"[""comma""]",0,[0.2855999999940195],74,0,74,0,1,,
,,,,,,,,,,,,612ba6c594a6d54154a88ae7,21,Kobieta,2022-06-25_16h24.21.297,task,2021.1.4,Win32,60.02040694,6299f149e92ead563fba08ef,62b70e3fba0b4763d7a39e76,,,,,,,,,,,,,,,,,,,,,,,,,,,,,,,,,,,,,,,,,,,,,,,,,,,,,,,,,,,,,,,,,,,,,,,,,,,,,,,,,,,,,,,,,,,,"[""period""]",0,[0.3382000000028711],75,0,75,0,1,,
,,,,,,,,,,,,612ba6c594a6d54154a88ae7,21,Kobieta,2022-06-25_16h24.21.297,task,2021.1.4,Win32,60.02040694,6299f149e92ead563fba08ef,62b70e3fba0b4763d7a39e76,,,,,,,,,,,,,,,,,,,,,,,,,,,,,,,,,,,,,,,,,,,,,,,,,,,,,,,,,,,,,,,,,,,,,,,,,,,,,,,,,,,,,,,,,,,,"[""period""]",0,[0.32680000000459586],76,0,76,0,1,,
,,,,,,,,,,,,612ba6c594a6d54154a88ae7,21,Kobieta,2022-06-25_16h24.21.297,task,2021.1.4,Win32,60.02040694,6299f149e92ead563fba08ef,62b70e3fba0b4763d7a39e76,,,,,,,,,,,,,,,,,,,,,,,,,,,,,,,,,,,,,,,,,,,,,,,,,,,,,,,,,,,,,,,,,,,,,,,,,,,,,,,,,,,,,,,,,,,,"[""comma""]",0,[0.30010000000152104],77,0,77,0,1,,
,,,,,,,,,,,,612ba6c594a6d54154a88ae7,21,Kobieta,2022-06-25_16h24.21.297,task,2021.1.4,Win32,60.02040694,6299f149e92ead563fba08ef,62b70e3fba0b4763d7a39e76,,,,,,,,,,,,,,,,,,,,,,,,,,,,,,,,,,,,,,,,,,,,,,,,,,,,,,,,,,,,,,,,,,,,,,,,,,,,,,,,,,,,,,,,,,,,"[""period""]",0,[0.2707999999970525],78,0,78,0,1,,
,,,,,,,,,,,,612ba6c594a6d54154a88ae7,21,Kobieta,2022-06-25_16h24.21.297,task,2021.1.4,Win32,60.02040694,6299f149e92ead563fba08ef,62b70e3fba0b4763d7a39e76,,,,,,,,,,,,,,,,,,,,,,,,,,,,,,,,,,,,,,,,,,,,,,,,,,,,,,,,,,,,,,,,,,,,,,,,,,,,,,,,,,,,,,,,,,,,"[""comma"",""comma""]",0,"[0.3176000000014483,1.7836000000015702]",79,0,79,0,1,,
,,,,,,,,,,,,612ba6c594a6d54154a88ae7,21,Kobieta,2022-06-25_16h24.21.297,task,2021.1.4,Win32,60.02040694,6299f149e92ead563fba08ef,62b70e3fba0b4763d7a39e76,,,,,,,,,,,,,,,,,,,,,,,,,,,,,,,,,,,,,,,,,,,,,,,,,,,,,,,,,,,,,,,,,,,,,,,,,,,,,,,,,,,,,,,,,,,,,0,,80,0,80,0,1,,
,,,,,,,,,,,,612ba6c594a6d54154a88ae7,21,Kobieta,2022-06-25_16h24.21.297,task,2021.1.4,Win32,60.02040694,6299f149e92ead563fba08ef,62b70e3fba0b4763d7a39e76,,,,,,,,,,,,,,,,,,,,,,,,,,,,,,,,,,,,,,,,,,,,,,,,,,,,,,,,,,,,,,,,,,,,,,,,,,,,,,,,,,,,,,,,,,,,"[""period""]",0,[0.29099999999994],81,0,81,0,1,,
,,,,,,,,,,,,612ba6c594a6d54154a88ae7,21,Kobieta,2022-06-25_16h24.21.297,task,2021.1.4,Win32,60.02040694,6299f149e92ead563fba08ef,62b70e3fba0b4763d7a39e76,,,,,,,,,,,,,,,,,,,,,,,,,,,,,,,,,,,,,,,,,,,,,,,,,,,,,,,,,,,,,,,,,,,,,,,,,,,,,,,,,,,,,,,,,,,,"[""comma""]",0,[0.3178999999986445],82,0,82,0,1,,
,,,,,,,,,,,,612ba6c594a6d54154a88ae7,21,Kobieta,2022-06-25_16h24.21.297,task,2021.1.4,Win32,60.02040694,6299f149e92ead563fba08ef,62b70e3fba0b4763d7a39e76,,,,,,,,,,,,,,,,,,,,,,,,,,,,,,,,,,,,,,,,,,,,,,,,,,,,,,,,,,,,,,,,,,,,,,,,,,,,,,,,,,,,,,,,,,,,"[""period""]",0,[0.3176000000014483],83,0,83,0,1,,
,,,,,,,,,,,,612ba6c594a6d54154a88ae7,21,Kobieta,2022-06-25_16h24.21.297,task,2021.1.4,Win32,60.02040694,6299f149e92ead563fba08ef,62b70e3fba0b4763d7a39e76,,,,,,,,,,,,,,,,,,,,,,,,,,,,,,,,,,,,,,,,,,,,,,,,,,,,,,,,,,,,,,,,,,,,,,,,,,,,,,,,,,,,,,,,,,,,"[""period""]",0,[0.27829999999698884],84,0,84,0,1,,
,,,,,,,,,,,,612ba6c594a6d54154a88ae7,21,Kobieta,2022-06-25_16h24.21.297,task,2021.1.4,Win32,60.02040694,6299f149e92ead563fba08ef,62b70e3fba0b4763d7a39e76,,,,,,,,,,,,,,,,,,,,,,,,,,,,,,,,,,,,,,,,,,,,,,,,,,,,,,,,,,,,,,,,,,,,,,,,,,,,,,,,,,,,,,,,,,,,"[""comma""]",0,[0.5940999999938867],85,0,85,0,1,,
,,,,,,,,,,,,612ba6c594a6d54154a88ae7,21,Kobieta,2022-06-25_16h24.21.297,task,2021.1.4,Win32,60.02040694,6299f149e92ead563fba08ef,62b70e3fba0b4763d7a39e76,,,,,,,,,,,,,,,,,,,,,,,,,,,,,,,,,,,,,,,,,,,,,,,,,,,,,,,,,,,,,,,,,,,,,,,,,,,,,,,,,,,,,,,,,,,,"[""comma""]",0,[0.4857000000029075],86,0,86,0,1,,
,,,,,,,,,,,,612ba6c594a6d54154a88ae7,21,Kobieta,2022-06-25_16h24.21.297,task,2021.1.4,Win32,60.02040694,6299f149e92ead563fba08ef,62b70e3fba0b4763d7a39e76,,,,,,,,,,,,,,,,,,,,,,,,,,,,,,,,,,,,,,,,,,,,,,,,,,,,,,,,,,,,,,,,,,,,,,,,,,,,,,,,,,,,,,,,,,,,"[""comma""]",0,[0.3205999999941014],87,0,87,0,1,,
,,,,,,,,,,,,612ba6c594a6d54154a88ae7,21,Kobieta,2022-06-25_16h24.21.297,task,2021.1.4,Win32,60.02040694,6299f149e92ead563fba08ef,62b70e3fba0b4763d7a39e76,,,,,,,,,,,,,,,,,,,,,,,,,,,,,,,,,,,,,,,,,,,,,,,,,,,,,,,,,,,,,,,,,,,,,,,,,,,,,,,,,,,,,,,,,,,,"[""period""]",0,[0.26270000000295113],88,0,88,0,1,,
,,,,,,,,,,,,612ba6c594a6d54154a88ae7,21,Kobieta,2022-06-25_16h24.21.297,task,2021.1.4,Win32,60.02040694,6299f149e92ead563fba08ef,62b70e3fba0b4763d7a39e76,,,,,,,,,,,,,,,,,,,,,,,,,,,,,,,,,,,,,,,,,,,,,,,,,,,,,,,,,,,,,,,,,,,,,,,,,,,,,,,,,,,,,,,,,,,,"[""comma""]",0,[-0.01569999999560423],89,0,89,0,1,,
,,,,,,,,,,,,612ba6c594a6d54154a88ae7,21,Kobieta,2022-06-25_16h24.21.297,task,2021.1.4,Win32,60.02040694,6299f149e92ead563fba08ef,62b70e3fba0b4763d7a39e76,,,,,,,,,,,,,,,,,,,,,,,,,,,,,,,,,,,,,,,,,,,,,,,,,,,,,,,,,,,,,,,,,,,,,,,,,,,,,,,,,,,,,,,,,,,,"[""comma""]",0,[0.4853999999984353],90,0,90,0,1,,
,,,,,,,,,,,,612ba6c594a6d54154a88ae7,21,Kobieta,2022-06-25_16h24.21.297,task,2021.1.4,Win32,60.02040694,6299f149e92ead563fba08ef,62b70e3fba0b4763d7a39e76,,,,,,,,,,,,,,,,,,,,,,,,,,,,,,,,,,,,,,,,,,,,,,,,,,,,,,,,,,,,,,,,,,,,,,,,,,,,,,,,,,,,,,,,,,,,"[""period""]",0,[0.3343000000043048],91,0,91,0,1,,
,,,,,,,,,,,,612ba6c594a6d54154a88ae7,21,Kobieta,2022-06-25_16h24.21.297,task,2021.1.4,Win32,60.02040694,6299f149e92ead563fba08ef,62b70e3fba0b4763d7a39e76,,,,,,,,,,,,,,,,,,,,,,,,,,,,,,,,,,,,,,,,,,,,,,,,,,,,,,,,,,,,,,,,,,,,,,,,,,,,,,,,,,,,,,,,,,,,"[""comma""]",0,[0.30080000000452856],92,0,92,0,1,,
,,,,,,,,,,,,612ba6c594a6d54154a88ae7,21,Kobieta,2022-06-25_16h24.21.297,task,2021.1.4,Win32,60.02040694,6299f149e92ead563fba08ef,62b70e3fba0b4763d7a39e76,,,,,,,,,,,,,,,,,,,,,,,,,,,,,,,,,,,,,,,,,,,,,,,,,,,,,,,,,,,,,,,,,,,,,,,,,,,,,,,,,,,,,,,,,,,,"[""period""]",0,[0.25689999999849533],93,0,93,0,1,,
,,,,,,,,,,,,612ba6c594a6d54154a88ae7,21,Kobieta,2022-06-25_16h24.21.297,task,2021.1.4,Win32,60.02040694,6299f149e92ead563fba08ef,62b70e3fba0b4763d7a39e76,,,,,,,,,,,,,,,,,,,,,,,,,,,,,,,,,,,,,,,,,,,,,,,,,,,,,,,,,,,,,,,,,,,,,,,,,,,,,,,,,,,,,,,,,,,,"[""period""]",0,[0.20499999999992724],94,0,94,0,1,,
,,,,,,,,,,,,612ba6c594a6d54154a88ae7,21,Kobieta,2022-06-25_16h24.21.297,task,2021.1.4,Win32,60.02040694,6299f149e92ead563fba08ef,62b70e3fba0b4763d7a39e76,,,,,,,,,,,,,,,,,,,,,,,,,,,,,,,,,,,,,,,,,,,,,,,,,,,,,,,,,,,,,,,,,,,,,,,,,,,,,,,,,,,,,,,,,,,,"[""period""]",0,[0.3171000000015738],95,0,95,0,1,,
,,,,,,,,,,,,612ba6c594a6d54154a88ae7,21,Kobieta,2022-06-25_16h24.21.297,task,2021.1.4,Win32,60.02040694,6299f149e92ead563fba08ef,62b70e3fba0b4763d7a39e76,,,,,,,,,,,,,,,,,,,,,,,,,,,,,,,,,,,,,,,,,,,,,,,,,,,,,,,,,,,,,,,,,,,,,,,,,,,,,,,,,,,,,,,,,,,,"[""comma""]",0,[0.31689999999844076],96,0,96,0,1,,
,,,,,,,,,,,,612ba6c594a6d54154a88ae7,21,Kobieta,2022-06-25_16h24.21.297,task,2021.1.4,Win32,60.02040694,6299f149e92ead563fba08ef,62b70e3fba0b4763d7a39e76,,,,,,,,,,,,,,,,,,,,,,,,,,,,,,,,,,,,,,,,,,,,,,,,,,,,,,,,,,,,,,,,,,,,,,,,,,,,,,,,,,,,,,,,,,,,"[""period""]",0,[0.30070000000296204],97,0,97,0,1,,
,,,,,,,,,,,,612ba6c594a6d54154a88ae7,21,Kobieta,2022-06-25_16h24.21.297,task,2021.1.4,Win32,60.02040694,6299f149e92ead563fba08ef,62b70e3fba0b4763d7a39e76,,,,,,,,,,,,,,,,,,,,,,,,,,,,,,,,,,,,,,,,,,,,,,,,,,,,,,,,,,,,,,,,,,,,,,,,,,,,,,,,,,,,,,,,,,,,"[""comma""]",0,[0.5255999999940286],98,0,98,0,1,,
,,,,,,,,,,,,612ba6c594a6d54154a88ae7,21,Kobieta,2022-06-25_16h24.21.297,task,2021.1.4,Win32,60.02040694,6299f149e92ead563fba08ef,62b70e3fba0b4763d7a39e76,,,,,,,,,,,,,,,,,,,,,,,,,,,,,,,,,,,,,,,,,,,,,,,,,,,,,,,,,,,,,,,,,,,,,,,,,,,,,,,,,,,,,,,,,,,,"[""comma""]",0,[0.36889999999857537],99,0,99,0,1,,
,,,,,,,,,,,,612ba6c594a6d54154a88ae7,21,Kobieta,2022-06-25_16h24.21.297,task,2021.1.4,Win32,60.02040694,6299f149e92ead563fba08ef,62b70e3fba0b4763d7a39e76,,,,,,,,,,,,,,,,,,,,,,,,,,,,,,,,,,,,,,,,,,,,,,,,,,,,,,,,,,,,,,,,,,,,,,,,,,,,,,,,,,,,,,,,,,,,"[""comma""]",0,[0.3084000000060314],100,0,100,0,1,,
,,,,,,,,,,,,612ba6c594a6d54154a88ae7,21,Kobieta,2022-06-25_16h24.21.297,task,2021.1.4,Win32,60.02040694,6299f149e92ead563fba08ef,62b70e3fba0b4763d7a39e76,,,,,,,,,,,,,,,,,,,,,,,,,,,,,,,,,,,,,,,,,,,,,,,,,,,,,,,,,,,,,,,,,,,,,,,,,,,,,,,,,,,,,,,,,,,,"[""comma""]",0,[0.20710000000167383],101,0,101,0,1,,
,,,,,,,,,,,,612ba6c594a6d54154a88ae7,21,Kobieta,2022-06-25_16h24.21.297,task,2021.1.4,Win32,60.02040694,6299f149e92ead563fba08ef,62b70e3fba0b4763d7a39e76,,,,,,,,,,,,,,,,,,,,,,,,,,,,,,,,,,,,,,,,,,,,,,,,,,,,,,,,,,,,,,,,,,,,,,,,,,,,,,,,,,,,,,,,,,,,"[""comma""]",0,[0.18729999999686697],102,0,102,0,1,,
,,,,,,,,,,,,612ba6c594a6d54154a88ae7,21,Kobieta,2022-06-25_16h24.21.297,task,2021.1.4,Win32,60.02040694,6299f149e92ead563fba08ef,62b70e3fba0b4763d7a39e76,,,,,,,,,,,,,,,,,,,,,,,,,,,,,,,,,,,,,,,,,,,,,,,,,,,,,,,,,,,,,,,,,,,,,,,,,,,,,,,,,,,,,,,,,,,,"[""period""]",0,[0.2725000000000364],103,0,103,0,1,,
,,,,,,,,,,,,612ba6c594a6d54154a88ae7,21,Kobieta,2022-06-25_16h24.21.297,task,2021.1.4,Win32,60.02040694,6299f149e92ead563fba08ef,62b70e3fba0b4763d7a39e76,,,,,,,,,,,,,,,,,,,,,,,,,,,,,,,,,,,,,,,,,,,,,,,,,,,,,,,,,,,,,,,,,,,,,,,,,,,,,,,,,,,,,,,,,,,,"[""comma""]",0,[0.3005000000000564],104,0,104,0,1,,
,,,,,,,,,,,,612ba6c594a6d54154a88ae7,21,Kobieta,2022-06-25_16h24.21.297,task,2021.1.4,Win32,60.02040694,6299f149e92ead563fba08ef,62b70e3fba0b4763d7a39e76,,,,,,,,,,,,,,,,,,,,,,,,,,,,,,,,,,,,,,,,,,,,,,,,,,,,,,,,,,,,,,,,,,,,,,,,,,,,,,,,,,,,,,,,,,,,"[""period""]",0,[0.31760000000167565],105,0,105,0,1,,
,,,,,,,,,,,,612ba6c594a6d54154a88ae7,21,Kobieta,2022-06-25_16h24.21.297,task,2021.1.4,Win32,60.02040694,6299f149e92ead563fba08ef,62b70e3fba0b4763d7a39e76,,,,,,,,,,,,,,,,,,,,,,,,,,,,,,,,,,,,,,,,,,,,,,,,,,,,,,,,,,,,,,,,,,,,,,,,,,,,,,,,,,,,,,,,,,,,"[""period""]",0,[0.2684999999999036],106,0,106,0,1,,
,,,,,,,,,,,,612ba6c594a6d54154a88ae7,21,Kobieta,2022-06-25_16h24.21.297,task,2021.1.4,Win32,60.02040694,6299f149e92ead563fba08ef,62b70e3fba0b4763d7a39e76,,,,,,,,,,,,,,,,,,,,,,,,,,,,,,,,,,,,,,,,,,,,,,,,,,,,,,,,,,,,,,,,,,,,,,,,,,,,,,,,,,,,,,,,,,,,"[""period""]",0,[0.3200999999939995],107,0,107,0,1,,
,,,,,,,,,,,,612ba6c594a6d54154a88ae7,21,Kobieta,2022-06-25_16h24.21.297,task,2021.1.4,Win32,60.02040694,6299f149e92ead563fba08ef,62b70e3fba0b4763d7a39e76,,,,,,,,,,,,,,,,,,,,,,,,,,,,,,,,,,,,,,,,,,,,,,,,,,,,,,,,,,,,,,,,,,,,,,,,,,,,,,,,,,,,,,,,,,,,"[""period"",""comma""]",0,"[0.3503999999984444,1.9103999999983898]",108,0,108,0,1,,
,,,,,,,,,,,,612ba6c594a6d54154a88ae7,21,Kobieta,2022-06-25_16h24.21.297,task,2021.1.4,Win32,60.02040694,6299f149e92ead563fba08ef,62b70e3fba0b4763d7a39e76,,,,,,,,,,,,,,,,,,,,,,,,,,,,,,,,,,,,,,,,,,,,,,,,,,,,,,,,,,,,,,,,,,,,,,,,,,,,,,,,,,,,,,,,,,,,,0,,109,0,109,0,1,,
,,,,,,,,,,,,612ba6c594a6d54154a88ae7,21,Kobieta,2022-06-25_16h24.21.297,task,2021.1.4,Win32,60.02040694,6299f149e92ead563fba08ef,62b70e3fba0b4763d7a39e76,,,,,,,,,,,,,,,,,,,,,,,,,,,,,,,,,,,,,,,,,,,,,,,,,,,,,,,,,,,,,,,,,,,,,,,,,,,,,,,,,,,,,,,,,,,,"[""period""]",0,[0.27500000000009095],110,0,110,0,1,,
,,,,,,,,,,,,612ba6c594a6d54154a88ae7,21,Kobieta,2022-06-25_16h24.21.297,task,2021.1.4,Win32,60.02040694,6299f149e92ead563fba08ef,62b70e3fba0b4763d7a39e76,,,,,,,,,,,,,,,,,,,,,,,,,,,,,,,,,,,,,,,,,,,,,,,,,,,,,,,,,,,,,,,,,,,,,,,,,,,,,,,,,,,,,,,,,,,,"[""comma""]",0,[0.2881000000015774],111,0,111,0,1,,
,,,,,,,,,,,,612ba6c594a6d54154a88ae7,21,Kobieta,2022-06-25_16h24.21.297,task,2021.1.4,Win32,60.02040694,6299f149e92ead563fba08ef,62b70e3fba0b4763d7a39e76,,,,,,,,,,,,,,,,,,,,,,,,,,,,,,,,,,,,,,,,,,,,,,,,,,,,,,,,,,,,,,,,,,,,,,,,,,,,,,,,,,,,,,,,,,,,"[""period""]",0,[0.3252999999970143],112,0,112,0,1,,
,,,,,,,,,,,,612ba6c594a6d54154a88ae7,21,Kobieta,2022-06-25_16h24.21.297,task,2021.1.4,Win32,60.02040694,6299f149e92ead563fba08ef,62b70e3fba0b4763d7a39e76,,,,,,,,,,,,,,,,,,,,,,,,,,,,,,,,,,,,,,,,,,,,,,,,,,,,,,,,,,,,,,,,,,,,,,,,,,,,,,,,,,,,,,,,,,,,"[""period""]",0,[0.33400000000006],113,0,113,0,1,,
,,,,,,,,,,,,612ba6c594a6d54154a88ae7,21,Kobieta,2022-06-25_16h24.21.297,task,2021.1.4,Win32,60.02040694,6299f149e92ead563fba08ef,62b70e3fba0b4763d7a39e76,,,,,,,,,,,,,,,,,,,,,,,,,,,,,,,,,,,,,,,,,,,,,,,,,,,,,,,,,,,,,,,,,,,,,,,,,,,,,,,,,,,,,,,,,,,,"[""comma""]",0,[0.48510000000146647],114,0,114,0,1,,
,,,,,,,,,,,,612ba6c594a6d54154a88ae7,21,Kobieta,2022-06-25_16h24.21.297,task,2021.1.4,Win32,60.02040694,6299f149e92ead563fba08ef,62b70e3fba0b4763d7a39e76,,,,,,,,,,,,,,,,,,,,,,,,,,,,,,,,,,,,,,,,,,,,,,,,,,,,,,,,,,,,,,,,,,,,,,,,,,,,,,,,,,,,,,,,,,,,"[""period""]",0,[0.3850999999940541],115,0,115,0,1,,
,,,,,,,,,,,,612ba6c594a6d54154a88ae7,21,Kobieta,2022-06-25_16h24.21.297,task,2021.1.4,Win32,60.02040694,6299f149e92ead563fba08ef,62b70e3fba0b4763d7a39e76,,,,,,,,,,,,,,,,,,,,,,,,,,,,,,,,,,,,,,,,,,,,,,,,,,,,,,,,,,,,,,,,,,,,,,,,,,,,,,,,,,,,,,,,,,,,"[""period""]",0,[0.6537999999970907],116,0,116,0,1,,
,,,,,,,,,,,,612ba6c594a6d54154a88ae7,21,Kobieta,2022-06-25_16h24.21.297,task,2021.1.4,Win32,60.02040694,6299f149e92ead563fba08ef,62b70e3fba0b4763d7a39e76,,,,,,,,,,,,,,,,,,,,,,,,,,,,,,,,,,,,,,,,,,,,,,,,,,,,,,,,,,,,,,,,,,,,,,,,,,,,,,,,,,,,,,,,,,,,"[""comma""]",0,[0.46740000000590953],117,0,117,0,1,,
,,,,,,,,,,,,612ba6c594a6d54154a88ae7,21,Kobieta,2022-06-25_16h24.21.297,task,2021.1.4,Win32,60.02040694,6299f149e92ead563fba08ef,62b70e3fba0b4763d7a39e76,,,,,,,,,,,,,,,,,,,,,,,,,,,,,,,,,,,,,,,,,,,,,,,,,,,,,,,,,,,,,,,,,,,,,,,,,,,,,,,,,,,,,,,,,,,,"[""period""]",0,[0.4375],118,0,118,0,1,,
,,,,,,,,,,,,612ba6c594a6d54154a88ae7,21,Kobieta,2022-06-25_16h24.21.297,task,2021.1.4,Win32,60.02040694,6299f149e92ead563fba08ef,62b70e3fba0b4763d7a39e76,,,,,,,,,,,,,,,,,,,,,,,,,,,,,,,,,,,,,,,,,,,,,,,,,,,,,,,,,,,,,,,,,,,,,,,,,,,,,,,,,,,,,,,,,,,,"[""period""]",0,[0.36150000000020555],119,0,119,0,1,,
,,,,,,,,,,,,612ba6c594a6d54154a88ae7,21,Kobieta,2022-06-25_16h24.21.297,task,2021.1.4,Win32,60.02040694,6299f149e92ead563fba08ef,62b70e3fba0b4763d7a39e76,,,,,,,,,,,,,,,,,,,,,,,,,,,,,,,,,,,,,,,,,,,,,,,,,,,,,,,,,,,,,,,,,,,,,,,,,,,,,,,,,,,,,,,,,,,,,,,,,,,,space,1.5358
