key_resp_15.keys,key_resp_15.rt,key_resp_16.keys,key_resp_16.rt,key_resp_4.keys,key_resp_4.rt,next_letter.thisRepN,next_letter.thisTrialN,next_letter.thisN,next_letter.thisIndex,next_letter.ran,letter,participant,Wiek*,Płeć,date,expName,psychopyVersion,OS,frameRate,study_id,session,simple_recall,key_resp_5.keys,key_resp_5.rt,simple_recall_corr,simple_recall_corrkeys,next_level.thisRepN,next_level.thisTrialN,next_level.thisN,next_level.thisIndex,next_level.ran,key_resp_2.keys,key_resp_2.rt,digit_answer,key_resp.keys,key_resp.corr,key_resp.rt,RT_list,next_equation.thisRepN,next_equation.thisTrialN,next_equation.thisN,next_equation.thisIndex,next_equation.ran,Task,Trial,Problem,Operation_answer,processing_score,sumRT,meanRT,sumdiff,sd,RT,key_resp_3.keys,key_resp_3.rt,repeat_practice.thisRepN,repeat_practice.thisTrialN,repeat_practice.thisN,repeat_practice.thisIndex,repeat_practice.ran,key_resp_6.keys,key_resp_6.rt,key_resp_11.keys,key_resp_11.corr,key_resp_11.rt,operation_correct,repeat_if_wrong_prac.thisRepN,repeat_if_wrong_prac.thisTrialN,repeat_if_wrong_prac.thisN,repeat_if_wrong_prac.thisIndex,repeat_if_wrong_prac.ran,span_size_prac.thisRepN,span_size_prac.thisTrialN,span_size_prac.thisN,span_size_prac.thisIndex,span_size_prac.ran,complex_recall_practice,key_resp_9.keys,key_resp_9.corr,key_resp_9.rt,complex_prac_corr,span_recall_prac.thisRepN,span_recall_prac.thisTrialN,span_recall_prac.thisN,span_recall_prac.thisIndex,span_recall_prac.ran,key_resp_10.keys,key_resp_10.rt,key_resp_7.keys,key_resp_7.corr,key_resp_7.rt,repeat_if_wrong.thisRepN,repeat_if_wrong.thisTrialN,repeat_if_wrong.thisN,repeat_if_wrong.thisIndex,repeat_if_wrong.ran,span_size.thisRepN,span_size.thisTrialN,span_size.thisN,span_size.thisIndex,span_size.ran,complex_recall,key_resp_8.keys,key_resp_8.corr,key_resp_8.rt,complex_recall_corr,complex_recall_corrkeys,span_recall.thisRepN,span_recall.thisTrialN,span_recall.thisN,span_recall.thisIndex,span_recall.ran,key_resp_13.keys,key_resp_13.corr,key_resp_13.rt,random_loop.thisRepN,random_loop.thisTrialN,random_loop.thisN,random_loop.thisIndex,random_loop.ran,key_resp_12.keys,key_resp_12.rt
space,12.8306,space,21.3191,space,5.5243,0,0,0,0,1,X V Q F H G B L J M P D K C T S W R N Z,613867f34e206e4f573bc6ef,20,Mężczyzna,2022-06-11_09h43.09.567,task,2021.1.4,Win32,60.03842459,6299f149e92ead563fba08ef,62a44751b30d3dd6651f6f7d,,,,,,,,,,,,,,,,,,,,,,,,,,,,,,,,,,,,,,,,,,,,,,,,,,,,,,,,,,,,,,,,,,,,,,,,,,,,,,,,,,,,,,,,,,,,,,,,,,,,,
,,,,,,1,0,1,0,1,X V Q F H G B L J M P D K C T S W R N Z,613867f34e206e4f573bc6ef,20,Mężczyzna,2022-06-11_09h43.09.567,task,2021.1.4,Win32,60.03842459,6299f149e92ead563fba08ef,62a44751b30d3dd6651f6f7d,,,,,,,,,,,,,,,,,,,,,,,,,,,,,,,,,,,,,,,,,,,,,,,,,,,,,,,,,,,,,,,,,,,,,,,,,,,,,,,,,,,,,,,,,,,,,,,,,,,,,
,,,,,,,,,,,,613867f34e206e4f573bc6ef,20,Mężczyzna,2022-06-11_09h43.09.567,task,2021.1.4,Win32,60.03842459,6299f149e92ead563fba08ef,62a44751b30d3dd6651f6f7d,zp,"[""z"",""p""]","[2.4557000000476847,3.0888999999761637,3.4388000000715238]",1,ZP,0,0,0,0,1,,,,,,,,,,,,,,,,,,,,,,,,,,,,,,,,,,,,,,,,,,,,,,,,,,,,,,,,,,,,,,,,,,,,,,,,,,,,,,,,,,,,,,,,,,,
,,,,,,0,0,0,0,1,X V Q F H G B L J M P D K C T S W R N Z,613867f34e206e4f573bc6ef,20,Mężczyzna,2022-06-11_09h43.09.567,task,2021.1.4,Win32,60.03842459,6299f149e92ead563fba08ef,62a44751b30d3dd6651f6f7d,,,,,,,,,,,,,,,,,,,,,,,,,,,,,,,,,,,,,,,,,,,,,,,,,,,,,,,,,,,,,,,,,,,,,,,,,,,,,,,,,,,,,,,,,,,,,,,,,,,,,
,,,,,,1,0,1,0,1,X V Q F H G B L J M P D K C T S W R N Z,613867f34e206e4f573bc6ef,20,Mężczyzna,2022-06-11_09h43.09.567,task,2021.1.4,Win32,60.03842459,6299f149e92ead563fba08ef,62a44751b30d3dd6651f6f7d,,,,,,,,,,,,,,,,,,,,,,,,,,,,,,,,,,,,,,,,,,,,,,,,,,,,,,,,,,,,,,,,,,,,,,,,,,,,,,,,,,,,,,,,,,,,,,,,,,,,,
,,,,,,,,,,,,613867f34e206e4f573bc6ef,20,Mężczyzna,2022-06-11_09h43.09.567,task,2021.1.4,Win32,60.03842459,6299f149e92ead563fba08ef,62a44751b30d3dd6651f6f7d,bh,"[""b"",""h""]","[1.6372999999523188,2.035600000023834,2.7169999999999987]",1,BH,1,0,1,0,1,,,,,,,,,,,,,,,,,,,,,,,,,,,,,,,,,,,,,,,,,,,,,,,,,,,,,,,,,,,,,,,,,,,,,,,,,,,,,,,,,,,,,,,,,,,
,,,,,,0,0,0,0,1,X V Q F H G B L J M P D K C T S W R N Z,613867f34e206e4f573bc6ef,20,Mężczyzna,2022-06-11_09h43.09.567,task,2021.1.4,Win32,60.03842459,6299f149e92ead563fba08ef,62a44751b30d3dd6651f6f7d,,,,,,,,,,,,,,,,,,,,,,,,,,,,,,,,,,,,,,,,,,,,,,,,,,,,,,,,,,,,,,,,,,,,,,,,,,,,,,,,,,,,,,,,,,,,,,,,,,,,,
,,,,,,1,0,1,0,1,X V Q F H G B L J M P D K C T S W R N Z,613867f34e206e4f573bc6ef,20,Mężczyzna,2022-06-11_09h43.09.567,task,2021.1.4,Win32,60.03842459,6299f149e92ead563fba08ef,62a44751b30d3dd6651f6f7d,,,,,,,,,,,,,,,,,,,,,,,,,,,,,,,,,,,,,,,,,,,,,,,,,,,,,,,,,,,,,,,,,,,,,,,,,,,,,,,,,,,,,,,,,,,,,,,,,,,,,
,,,,,,2,0,2,0,1,X V Q F H G B L J M P D K C T S W R N Z,613867f34e206e4f573bc6ef,20,Mężczyzna,2022-06-11_09h43.09.567,task,2021.1.4,Win32,60.03842459,6299f149e92ead563fba08ef,62a44751b30d3dd6651f6f7d,,,,,,,,,,,,,,,,,,,,,,,,,,,,,,,,,,,,,,,,,,,,,,,,,,,,,,,,,,,,,,,,,,,,,,,,,,,,,,,,,,,,,,,,,,,,,,,,,,,,,
,,,,,,,,,,,,613867f34e206e4f573bc6ef,20,Mężczyzna,2022-06-11_09h43.09.567,task,2021.1.4,Win32,60.03842459,6299f149e92ead563fba08ef,62a44751b30d3dd6651f6f7d,gpz,"[""g"",""p"",""z""]","[1.6004999999999967,2.1341000000238353,2.750200000047684,3.5209000000953665]",1,GPZ,2,0,2,0,1,,,,,,,,,,,,,,,,,,,,,,,,,,,,,,,,,,,,,,,,,,,,,,,,,,,,,,,,,,,,,,,,,,,,,,,,,,,,,,,,,,,,,,,,,,,
,,,,,,0,0,0,0,1,X V Q F H G B L J M P D K C T S W R N Z,613867f34e206e4f573bc6ef,20,Mężczyzna,2022-06-11_09h43.09.567,task,2021.1.4,Win32,60.03842459,6299f149e92ead563fba08ef,62a44751b30d3dd6651f6f7d,,,,,,,,,,,,,,,,,,,,,,,,,,,,,,,,,,,,,,,,,,,,,,,,,,,,,,,,,,,,,,,,,,,,,,,,,,,,,,,,,,,,,,,,,,,,,,,,,,,,,
,,,,,,1,0,1,0,1,X V Q F H G B L J M P D K C T S W R N Z,613867f34e206e4f573bc6ef,20,Mężczyzna,2022-06-11_09h43.09.567,task,2021.1.4,Win32,60.03842459,6299f149e92ead563fba08ef,62a44751b30d3dd6651f6f7d,,,,,,,,,,,,,,,,,,,,,,,,,,,,,,,,,,,,,,,,,,,,,,,,,,,,,,,,,,,,,,,,,,,,,,,,,,,,,,,,,,,,,,,,,,,,,,,,,,,,,
,,,,,,2,0,2,0,1,X V Q F H G B L J M P D K C T S W R N Z,613867f34e206e4f573bc6ef,20,Mężczyzna,2022-06-11_09h43.09.567,task,2021.1.4,Win32,60.03842459,6299f149e92ead563fba08ef,62a44751b30d3dd6651f6f7d,,,,,,,,,,,,,,,,,,,,,,,,,,,,,,,,,,,,,,,,,,,,,,,,,,,,,,,,,,,,,,,,,,,,,,,,,,,,,,,,,,,,,,,,,,,,,,,,,,,,,
,,,,,,,,,,,,613867f34e206e4f573bc6ef,20,Mężczyzna,2022-06-11_09h43.09.567,task,2021.1.4,Win32,60.03842459,6299f149e92ead563fba08ef,62a44751b30d3dd6651f6f7d,pxt,"[""p"",""x"",""t""]","[2.074799999952319,2.5671999999284765,2.9507999999523236,3.6723999999761645]",1,PXT,3,0,3,0,1,,,,,,,,,,,,,,,,,,,,,,,,,,,,,,,,,,,,,,,,,,,,,,,,,,,,,,,,,,,,,,,,,,,,,,,,,,,,,,,,,,,,,,,,,,,
,,,,,,0,0,0,0,1,X V Q F H G B L J M P D K C T S W R N Z,613867f34e206e4f573bc6ef,20,Mężczyzna,2022-06-11_09h43.09.567,task,2021.1.4,Win32,60.03842459,6299f149e92ead563fba08ef,62a44751b30d3dd6651f6f7d,,,,,,,,,,,,,,,,,,,,,,,,,,,,,,,,,,,,,,,,,,,,,,,,,,,,,,,,,,,,,,,,,,,,,,,,,,,,,,,,,,,,,,,,,,,,,,,,,,,,,
,,,,,,1,0,1,0,1,X V Q F H G B L J M P D K C T S W R N Z,613867f34e206e4f573bc6ef,20,Mężczyzna,2022-06-11_09h43.09.567,task,2021.1.4,Win32,60.03842459,6299f149e92ead563fba08ef,62a44751b30d3dd6651f6f7d,,,,,,,,,,,,,,,,,,,,,,,,,,,,,,,,,,,,,,,,,,,,,,,,,,,,,,,,,,,,,,,,,,,,,,,,,,,,,,,,,,,,,,,,,,,,,,,,,,,,,
,,,,,,2,0,2,0,1,X V Q F H G B L J M P D K C T S W R N Z,613867f34e206e4f573bc6ef,20,Mężczyzna,2022-06-11_09h43.09.567,task,2021.1.4,Win32,60.03842459,6299f149e92ead563fba08ef,62a44751b30d3dd6651f6f7d,,,,,,,,,,,,,,,,,,,,,,,,,,,,,,,,,,,,,,,,,,,,,,,,,,,,,,,,,,,,,,,,,,,,,,,,,,,,,,,,,,,,,,,,,,,,,,,,,,,,,
,,,,,,3,0,3,0,1,X V Q F H G B L J M P D K C T S W R N Z,613867f34e206e4f573bc6ef,20,Mężczyzna,2022-06-11_09h43.09.567,task,2021.1.4,Win32,60.03842459,6299f149e92ead563fba08ef,62a44751b30d3dd6651f6f7d,,,,,,,,,,,,,,,,,,,,,,,,,,,,,,,,,,,,,,,,,,,,,,,,,,,,,,,,,,,,,,,,,,,,,,,,,,,,,,,,,,,,,,,,,,,,,,,,,,,,,
,,,,,,,,,,,,613867f34e206e4f573bc6ef,20,Mężczyzna,2022-06-11_09h43.09.567,task,2021.1.4,Win32,60.03842459,6299f149e92ead563fba08ef,62a44751b30d3dd6651f6f7d,znrf,"[""z"",""n"",""r"",""f""]","[1.2688000000715363,1.9452000000476914,2.4082000000476853,2.652899999976171,3.323399999976175]",1,ZNRF,4,0,4,0,1,,,,,,,,,,,,,,,,,,,,,,,,,,,,,,,,,,,,,,,,,,,,,,,,,,,,,,,,,,,,,,,,,,,,,,,,,,,,,,,,,,,,,,,,,,,
,,,,,,0,0,0,0,1,X V Q F H G B L J M P D K C T S W R N Z,613867f34e206e4f573bc6ef,20,Mężczyzna,2022-06-11_09h43.09.567,task,2021.1.4,Win32,60.03842459,6299f149e92ead563fba08ef,62a44751b30d3dd6651f6f7d,,,,,,,,,,,,,,,,,,,,,,,,,,,,,,,,,,,,,,,,,,,,,,,,,,,,,,,,,,,,,,,,,,,,,,,,,,,,,,,,,,,,,,,,,,,,,,,,,,,,,
,,,,,,1,0,1,0,1,X V Q F H G B L J M P D K C T S W R N Z,613867f34e206e4f573bc6ef,20,Mężczyzna,2022-06-11_09h43.09.567,task,2021.1.4,Win32,60.03842459,6299f149e92ead563fba08ef,62a44751b30d3dd6651f6f7d,,,,,,,,,,,,,,,,,,,,,,,,,,,,,,,,,,,,,,,,,,,,,,,,,,,,,,,,,,,,,,,,,,,,,,,,,,,,,,,,,,,,,,,,,,,,,,,,,,,,,
,,,,,,2,0,2,0,1,X V Q F H G B L J M P D K C T S W R N Z,613867f34e206e4f573bc6ef,20,Mężczyzna,2022-06-11_09h43.09.567,task,2021.1.4,Win32,60.03842459,6299f149e92ead563fba08ef,62a44751b30d3dd6651f6f7d,,,,,,,,,,,,,,,,,,,,,,,,,,,,,,,,,,,,,,,,,,,,,,,,,,,,,,,,,,,,,,,,,,,,,,,,,,,,,,,,,,,,,,,,,,,,,,,,,,,,,
,,,,,,3,0,3,0,1,X V Q F H G B L J M P D K C T S W R N Z,613867f34e206e4f573bc6ef,20,Mężczyzna,2022-06-11_09h43.09.567,task,2021.1.4,Win32,60.03842459,6299f149e92ead563fba08ef,62a44751b30d3dd6651f6f7d,,,,,,,,,,,,,,,,,,,,,,,,,,,,,,,,,,,,,,,,,,,,,,,,,,,,,,,,,,,,,,,,,,,,,,,,,,,,,,,,,,,,,,,,,,,,,,,,,,,,,
,,,,,,,,,,,,613867f34e206e4f573bc6ef,20,Mężczyzna,2022-06-11_09h43.09.567,task,2021.1.4,Win32,60.03842459,6299f149e92ead563fba08ef,62a44751b30d3dd6651f6f7d,pgbk,"[""p"",""g"",""b"",""k""]","[1.5173000000715433,2.0826000000238594,2.4837000000476905,2.9338000000715283,3.6835000000000093]",1,PGBK,5,0,5,0,1,,,,,,,,,,,,,,,,,,,,,,,,,,,,,,,,,,,,,,,,,,,,,,,,,,,,,,,,,,,,,,,,,,,,,,,,,,,,,,,,,,,,,,,,,,,
,,,,,,0,0,0,0,1,X V Q F H G B L J M P D K C T S W R N Z,613867f34e206e4f573bc6ef,20,Mężczyzna,2022-06-11_09h43.09.567,task,2021.1.4,Win32,60.03842459,6299f149e92ead563fba08ef,62a44751b30d3dd6651f6f7d,,,,,,,,,,,,,,,,,,,,,,,,,,,,,,,,,,,,,,,,,,,,,,,,,,,,,,,,,,,,,,,,,,,,,,,,,,,,,,,,,,,,,,,,,,,,,,,,,,,,,
,,,,,,1,0,1,0,1,X V Q F H G B L J M P D K C T S W R N Z,613867f34e206e4f573bc6ef,20,Mężczyzna,2022-06-11_09h43.09.567,task,2021.1.4,Win32,60.03842459,6299f149e92ead563fba08ef,62a44751b30d3dd6651f6f7d,,,,,,,,,,,,,,,,,,,,,,,,,,,,,,,,,,,,,,,,,,,,,,,,,,,,,,,,,,,,,,,,,,,,,,,,,,,,,,,,,,,,,,,,,,,,,,,,,,,,,
,,,,,,2,0,2,0,1,X V Q F H G B L J M P D K C T S W R N Z,613867f34e206e4f573bc6ef,20,Mężczyzna,2022-06-11_09h43.09.567,task,2021.1.4,Win32,60.03842459,6299f149e92ead563fba08ef,62a44751b30d3dd6651f6f7d,,,,,,,,,,,,,,,,,,,,,,,,,,,,,,,,,,,,,,,,,,,,,,,,,,,,,,,,,,,,,,,,,,,,,,,,,,,,,,,,,,,,,,,,,,,,,,,,,,,,,
,,,,,,3,0,3,0,1,X V Q F H G B L J M P D K C T S W R N Z,613867f34e206e4f573bc6ef,20,Mężczyzna,2022-06-11_09h43.09.567,task,2021.1.4,Win32,60.03842459,6299f149e92ead563fba08ef,62a44751b30d3dd6651f6f7d,,,,,,,,,,,,,,,,,,,,,,,,,,,,,,,,,,,,,,,,,,,,,,,,,,,,,,,,,,,,,,,,,,,,,,,,,,,,,,,,,,,,,,,,,,,,,,,,,,,,,
,,,,,,4,0,4,0,1,X V Q F H G B L J M P D K C T S W R N Z,613867f34e206e4f573bc6ef,20,Mężczyzna,2022-06-11_09h43.09.567,task,2021.1.4,Win32,60.03842459,6299f149e92ead563fba08ef,62a44751b30d3dd6651f6f7d,,,,,,,,,,,,,,,,,,,,,,,,,,,,,,,,,,,,,,,,,,,,,,,,,,,,,,,,,,,,,,,,,,,,,,,,,,,,,,,,,,,,,,,,,,,,,,,,,,,,,
,,,,,,,,,,,,613867f34e206e4f573bc6ef,20,Mężczyzna,2022-06-11_09h43.09.567,task,2021.1.4,Win32,60.03842459,6299f149e92ead563fba08ef,62a44751b30d3dd6651f6f7d,lncfh,"[""l"",""n"",""c"",""f"",""h""]","[1.2004999999999768,1.6619999999999777,2.150499999999994,2.5529999999999973,2.934100000023818,3.9831999999284733]",1,LNCFH,6,0,6,0,1,,,,,,,,,,,,,,,,,,,,,,,,,,,,,,,,,,,,,,,,,,,,,,,,,,,,,,,,,,,,,,,,,,,,,,,,,,,,,,,,,,,,,,,,,,,
,,,,,,0,0,0,0,1,X V Q F H G B L J M P D K C T S W R N Z,613867f34e206e4f573bc6ef,20,Mężczyzna,2022-06-11_09h43.09.567,task,2021.1.4,Win32,60.03842459,6299f149e92ead563fba08ef,62a44751b30d3dd6651f6f7d,,,,,,,,,,,,,,,,,,,,,,,,,,,,,,,,,,,,,,,,,,,,,,,,,,,,,,,,,,,,,,,,,,,,,,,,,,,,,,,,,,,,,,,,,,,,,,,,,,,,,
,,,,,,1,0,1,0,1,X V Q F H G B L J M P D K C T S W R N Z,613867f34e206e4f573bc6ef,20,Mężczyzna,2022-06-11_09h43.09.567,task,2021.1.4,Win32,60.03842459,6299f149e92ead563fba08ef,62a44751b30d3dd6651f6f7d,,,,,,,,,,,,,,,,,,,,,,,,,,,,,,,,,,,,,,,,,,,,,,,,,,,,,,,,,,,,,,,,,,,,,,,,,,,,,,,,,,,,,,,,,,,,,,,,,,,,,
,,,,,,2,0,2,0,1,X V Q F H G B L J M P D K C T S W R N Z,613867f34e206e4f573bc6ef,20,Mężczyzna,2022-06-11_09h43.09.567,task,2021.1.4,Win32,60.03842459,6299f149e92ead563fba08ef,62a44751b30d3dd6651f6f7d,,,,,,,,,,,,,,,,,,,,,,,,,,,,,,,,,,,,,,,,,,,,,,,,,,,,,,,,,,,,,,,,,,,,,,,,,,,,,,,,,,,,,,,,,,,,,,,,,,,,,
,,,,,,3,0,3,0,1,X V Q F H G B L J M P D K C T S W R N Z,613867f34e206e4f573bc6ef,20,Mężczyzna,2022-06-11_09h43.09.567,task,2021.1.4,Win32,60.03842459,6299f149e92ead563fba08ef,62a44751b30d3dd6651f6f7d,,,,,,,,,,,,,,,,,,,,,,,,,,,,,,,,,,,,,,,,,,,,,,,,,,,,,,,,,,,,,,,,,,,,,,,,,,,,,,,,,,,,,,,,,,,,,,,,,,,,,
,,,,,,4,0,4,0,1,X V Q F H G B L J M P D K C T S W R N Z,613867f34e206e4f573bc6ef,20,Mężczyzna,2022-06-11_09h43.09.567,task,2021.1.4,Win32,60.03842459,6299f149e92ead563fba08ef,62a44751b30d3dd6651f6f7d,,,,,,,,,,,,,,,,,,,,,,,,,,,,,,,,,,,,,,,,,,,,,,,,,,,,,,,,,,,,,,,,,,,,,,,,,,,,,,,,,,,,,,,,,,,,,,,,,,,,,
,,,,,,,,,,,,613867f34e206e4f573bc6ef,20,Mężczyzna,2022-06-11_09h43.09.567,task,2021.1.4,Win32,60.03842459,6299f149e92ead563fba08ef,62a44751b30d3dd6651f6f7d,vptjf,"[""v"",""p"",""t"",""j"",""f""]","[1.3118999999761627,1.8843000000715335,2.3842000000476844,2.9538999999761586,3.352000000000004,6.497100000023835]",1,VPTJF,7,0,7,0,1,,,,,,,,,,,,,,,,,,,,,,,,,,,,,,,,,,,,,,,,,,,,,,,,,,,,,,,,,,,,,,,,,,,,,,,,,,,,,,,,,,,,,,,,,,,
,,,,,,0,0,0,0,1,X V Q F H G B L J M P D K C T S W R N Z,613867f34e206e4f573bc6ef,20,Mężczyzna,2022-06-11_09h43.09.567,task,2021.1.4,Win32,60.03842459,6299f149e92ead563fba08ef,62a44751b30d3dd6651f6f7d,,,,,,,,,,,,,,,,,,,,,,,,,,,,,,,,,,,,,,,,,,,,,,,,,,,,,,,,,,,,,,,,,,,,,,,,,,,,,,,,,,,,,,,,,,,,,,,,,,,,,
,,,,,,1,0,1,0,1,X V Q F H G B L J M P D K C T S W R N Z,613867f34e206e4f573bc6ef,20,Mężczyzna,2022-06-11_09h43.09.567,task,2021.1.4,Win32,60.03842459,6299f149e92ead563fba08ef,62a44751b30d3dd6651f6f7d,,,,,,,,,,,,,,,,,,,,,,,,,,,,,,,,,,,,,,,,,,,,,,,,,,,,,,,,,,,,,,,,,,,,,,,,,,,,,,,,,,,,,,,,,,,,,,,,,,,,,
,,,,,,2,0,2,0,1,X V Q F H G B L J M P D K C T S W R N Z,613867f34e206e4f573bc6ef,20,Mężczyzna,2022-06-11_09h43.09.567,task,2021.1.4,Win32,60.03842459,6299f149e92ead563fba08ef,62a44751b30d3dd6651f6f7d,,,,,,,,,,,,,,,,,,,,,,,,,,,,,,,,,,,,,,,,,,,,,,,,,,,,,,,,,,,,,,,,,,,,,,,,,,,,,,,,,,,,,,,,,,,,,,,,,,,,,
,,,,,,3,0,3,0,1,X V Q F H G B L J M P D K C T S W R N Z,613867f34e206e4f573bc6ef,20,Mężczyzna,2022-06-11_09h43.09.567,task,2021.1.4,Win32,60.03842459,6299f149e92ead563fba08ef,62a44751b30d3dd6651f6f7d,,,,,,,,,,,,,,,,,,,,,,,,,,,,,,,,,,,,,,,,,,,,,,,,,,,,,,,,,,,,,,,,,,,,,,,,,,,,,,,,,,,,,,,,,,,,,,,,,,,,,
,,,,,,4,0,4,0,1,X V Q F H G B L J M P D K C T S W R N Z,613867f34e206e4f573bc6ef,20,Mężczyzna,2022-06-11_09h43.09.567,task,2021.1.4,Win32,60.03842459,6299f149e92ead563fba08ef,62a44751b30d3dd6651f6f7d,,,,,,,,,,,,,,,,,,,,,,,,,,,,,,,,,,,,,,,,,,,,,,,,,,,,,,,,,,,,,,,,,,,,,,,,,,,,,,,,,,,,,,,,,,,,,,,,,,,,,
,,,,,,5,0,5,0,1,X V Q F H G B L J M P D K C T S W R N Z,613867f34e206e4f573bc6ef,20,Mężczyzna,2022-06-11_09h43.09.567,task,2021.1.4,Win32,60.03842459,6299f149e92ead563fba08ef,62a44751b30d3dd6651f6f7d,,,,,,,,,,,,,,,,,,,,,,,,,,,,,,,,,,,,,,,,,,,,,,,,,,,,,,,,,,,,,,,,,,,,,,,,,,,,,,,,,,,,,,,,,,,,,,,,,,,,,
,,,,,,,,,,,,613867f34e206e4f573bc6ef,20,Mężczyzna,2022-06-11_09h43.09.567,task,2021.1.4,Win32,60.03842459,6299f149e92ead563fba08ef,62a44751b30d3dd6651f6f7d,hzwqrs,"[""h"",""z"",""w"",""q"",""r"",""s""]","[1.2668000000715267,1.7065000000000055,2.075000000000017,3.466000000000008,3.926399999976155,4.199700000047699,5.5660000000000025]",1,HZWQRS,8,0,8,0,1,,,,,,,,,,,,,,,,,,,,,,,,,,,,,,,,,,,,,,,,,,,,,,,,,,,,,,,,,,,,,,,,,,,,,,,,,,,,,,,,,,,,,,,,,,,
,,,,,,0,0,0,0,1,X V Q F H G B L J M P D K C T S W R N Z,613867f34e206e4f573bc6ef,20,Mężczyzna,2022-06-11_09h43.09.567,task,2021.1.4,Win32,60.03842459,6299f149e92ead563fba08ef,62a44751b30d3dd6651f6f7d,,,,,,,,,,,,,,,,,,,,,,,,,,,,,,,,,,,,,,,,,,,,,,,,,,,,,,,,,,,,,,,,,,,,,,,,,,,,,,,,,,,,,,,,,,,,,,,,,,,,,
,,,,,,1,0,1,0,1,X V Q F H G B L J M P D K C T S W R N Z,613867f34e206e4f573bc6ef,20,Mężczyzna,2022-06-11_09h43.09.567,task,2021.1.4,Win32,60.03842459,6299f149e92ead563fba08ef,62a44751b30d3dd6651f6f7d,,,,,,,,,,,,,,,,,,,,,,,,,,,,,,,,,,,,,,,,,,,,,,,,,,,,,,,,,,,,,,,,,,,,,,,,,,,,,,,,,,,,,,,,,,,,,,,,,,,,,
,,,,,,2,0,2,0,1,X V Q F H G B L J M P D K C T S W R N Z,613867f34e206e4f573bc6ef,20,Mężczyzna,2022-06-11_09h43.09.567,task,2021.1.4,Win32,60.03842459,6299f149e92ead563fba08ef,62a44751b30d3dd6651f6f7d,,,,,,,,,,,,,,,,,,,,,,,,,,,,,,,,,,,,,,,,,,,,,,,,,,,,,,,,,,,,,,,,,,,,,,,,,,,,,,,,,,,,,,,,,,,,,,,,,,,,,
,,,,,,3,0,3,0,1,X V Q F H G B L J M P D K C T S W R N Z,613867f34e206e4f573bc6ef,20,Mężczyzna,2022-06-11_09h43.09.567,task,2021.1.4,Win32,60.03842459,6299f149e92ead563fba08ef,62a44751b30d3dd6651f6f7d,,,,,,,,,,,,,,,,,,,,,,,,,,,,,,,,,,,,,,,,,,,,,,,,,,,,,,,,,,,,,,,,,,,,,,,,,,,,,,,,,,,,,,,,,,,,,,,,,,,,,
,,,,,,4,0,4,0,1,X V Q F H G B L J M P D K C T S W R N Z,613867f34e206e4f573bc6ef,20,Mężczyzna,2022-06-11_09h43.09.567,task,2021.1.4,Win32,60.03842459,6299f149e92ead563fba08ef,62a44751b30d3dd6651f6f7d,,,,,,,,,,,,,,,,,,,,,,,,,,,,,,,,,,,,,,,,,,,,,,,,,,,,,,,,,,,,,,,,,,,,,,,,,,,,,,,,,,,,,,,,,,,,,,,,,,,,,
,,,,,,5,0,5,0,1,X V Q F H G B L J M P D K C T S W R N Z,613867f34e206e4f573bc6ef,20,Mężczyzna,2022-06-11_09h43.09.567,task,2021.1.4,Win32,60.03842459,6299f149e92ead563fba08ef,62a44751b30d3dd6651f6f7d,,,,,,,,,,,,,,,,,,,,,,,,,,,,,,,,,,,,,,,,,,,,,,,,,,,,,,,,,,,,,,,,,,,,,,,,,,,,,,,,,,,,,,,,,,,,,,,,,,,,,
,,,,,,,,,,,,613867f34e206e4f573bc6ef,20,Mężczyzna,2022-06-11_09h43.09.567,task,2021.1.4,Win32,60.03842459,6299f149e92ead563fba08ef,62a44751b30d3dd6651f6f7d,fhtsvm,"[""f"",""h"",""t"",""s"",""v"",""m""]","[1.355299999952308,1.8336999999284842,2.236799999952325,2.600399999976162,3.446199999928467,4.451399999976161,5.107600000023837]",1,FHTSVM,9,0,9,0,1,,,,,,,,,,,,,,,,,,,,,,,,,,,,,,,,,,,,,,,,,,,,,,,,,,,,,,,,,,,,,,,,,,,,,,,,,,,,,,,,,,,,,,,,,,,
,,,,,,0,0,0,0,1,X V Q F H G B L J M P D K C T S W R N Z,613867f34e206e4f573bc6ef,20,Mężczyzna,2022-06-11_09h43.09.567,task,2021.1.4,Win32,60.03842459,6299f149e92ead563fba08ef,62a44751b30d3dd6651f6f7d,,,,,,,,,,,,,,,,,,,,,,,,,,,,,,,,,,,,,,,,,,,,,,,,,,,,,,,,,,,,,,,,,,,,,,,,,,,,,,,,,,,,,,,,,,,,,,,,,,,,,
,,,,,,1,0,1,0,1,X V Q F H G B L J M P D K C T S W R N Z,613867f34e206e4f573bc6ef,20,Mężczyzna,2022-06-11_09h43.09.567,task,2021.1.4,Win32,60.03842459,6299f149e92ead563fba08ef,62a44751b30d3dd6651f6f7d,,,,,,,,,,,,,,,,,,,,,,,,,,,,,,,,,,,,,,,,,,,,,,,,,,,,,,,,,,,,,,,,,,,,,,,,,,,,,,,,,,,,,,,,,,,,,,,,,,,,,
,,,,,,2,0,2,0,1,X V Q F H G B L J M P D K C T S W R N Z,613867f34e206e4f573bc6ef,20,Mężczyzna,2022-06-11_09h43.09.567,task,2021.1.4,Win32,60.03842459,6299f149e92ead563fba08ef,62a44751b30d3dd6651f6f7d,,,,,,,,,,,,,,,,,,,,,,,,,,,,,,,,,,,,,,,,,,,,,,,,,,,,,,,,,,,,,,,,,,,,,,,,,,,,,,,,,,,,,,,,,,,,,,,,,,,,,
,,,,,,3,0,3,0,1,X V Q F H G B L J M P D K C T S W R N Z,613867f34e206e4f573bc6ef,20,Mężczyzna,2022-06-11_09h43.09.567,task,2021.1.4,Win32,60.03842459,6299f149e92ead563fba08ef,62a44751b30d3dd6651f6f7d,,,,,,,,,,,,,,,,,,,,,,,,,,,,,,,,,,,,,,,,,,,,,,,,,,,,,,,,,,,,,,,,,,,,,,,,,,,,,,,,,,,,,,,,,,,,,,,,,,,,,
,,,,,,4,0,4,0,1,X V Q F H G B L J M P D K C T S W R N Z,613867f34e206e4f573bc6ef,20,Mężczyzna,2022-06-11_09h43.09.567,task,2021.1.4,Win32,60.03842459,6299f149e92ead563fba08ef,62a44751b30d3dd6651f6f7d,,,,,,,,,,,,,,,,,,,,,,,,,,,,,,,,,,,,,,,,,,,,,,,,,,,,,,,,,,,,,,,,,,,,,,,,,,,,,,,,,,,,,,,,,,,,,,,,,,,,,
,,,,,,5,0,5,0,1,X V Q F H G B L J M P D K C T S W R N Z,613867f34e206e4f573bc6ef,20,Mężczyzna,2022-06-11_09h43.09.567,task,2021.1.4,Win32,60.03842459,6299f149e92ead563fba08ef,62a44751b30d3dd6651f6f7d,,,,,,,,,,,,,,,,,,,,,,,,,,,,,,,,,,,,,,,,,,,,,,,,,,,,,,,,,,,,,,,,,,,,,,,,,,,,,,,,,,,,,,,,,,,,,,,,,,,,,
,,,,,,6,0,6,0,1,X V Q F H G B L J M P D K C T S W R N Z,613867f34e206e4f573bc6ef,20,Mężczyzna,2022-06-11_09h43.09.567,task,2021.1.4,Win32,60.03842459,6299f149e92ead563fba08ef,62a44751b30d3dd6651f6f7d,,,,,,,,,,,,,,,,,,,,,,,,,,,,,,,,,,,,,,,,,,,,,,,,,,,,,,,,,,,,,,,,,,,,,,,,,,,,,,,,,,,,,,,,,,,,,,,,,,,,,
,,,,,,,,,,,,613867f34e206e4f573bc6ef,20,Mężczyzna,2022-06-11_09h43.09.567,task,2021.1.4,Win32,60.03842459,6299f149e92ead563fba08ef,62a44751b30d3dd6651f6f7d,xgzksrg,"[""x"",""g"",""z"",""k"",""s"",""r"",""g""]","[1.7336000000238414,2.308200000047691,2.7171000000238337,3.43360000002383,5.010200000047689,6.5136000000238425,7.249899999976151,7.999399999976163]",0,XGZKRGS,10,0,10,0,1,,,,,,,,,,,,,,,,,,,,,,,,,,,,,,,,,,,,,,,,,,,,,,,,,,,,,,,,,,,,,,,,,,,,,,,,,,,,,,,,,,,,,,,,,,,
,,,,,,0,0,0,0,1,X V Q F H G B L J M P D K C T S W R N Z,613867f34e206e4f573bc6ef,20,Mężczyzna,2022-06-11_09h43.09.567,task,2021.1.4,Win32,60.03842459,6299f149e92ead563fba08ef,62a44751b30d3dd6651f6f7d,,,,,,,,,,,,,,,,,,,,,,,,,,,,,,,,,,,,,,,,,,,,,,,,,,,,,,,,,,,,,,,,,,,,,,,,,,,,,,,,,,,,,,,,,,,,,,,,,,,,,
,,,,,,1,0,1,0,1,X V Q F H G B L J M P D K C T S W R N Z,613867f34e206e4f573bc6ef,20,Mężczyzna,2022-06-11_09h43.09.567,task,2021.1.4,Win32,60.03842459,6299f149e92ead563fba08ef,62a44751b30d3dd6651f6f7d,,,,,,,,,,,,,,,,,,,,,,,,,,,,,,,,,,,,,,,,,,,,,,,,,,,,,,,,,,,,,,,,,,,,,,,,,,,,,,,,,,,,,,,,,,,,,,,,,,,,,
,,,,,,2,0,2,0,1,X V Q F H G B L J M P D K C T S W R N Z,613867f34e206e4f573bc6ef,20,Mężczyzna,2022-06-11_09h43.09.567,task,2021.1.4,Win32,60.03842459,6299f149e92ead563fba08ef,62a44751b30d3dd6651f6f7d,,,,,,,,,,,,,,,,,,,,,,,,,,,,,,,,,,,,,,,,,,,,,,,,,,,,,,,,,,,,,,,,,,,,,,,,,,,,,,,,,,,,,,,,,,,,,,,,,,,,,
,,,,,,3,0,3,0,1,X V Q F H G B L J M P D K C T S W R N Z,613867f34e206e4f573bc6ef,20,Mężczyzna,2022-06-11_09h43.09.567,task,2021.1.4,Win32,60.03842459,6299f149e92ead563fba08ef,62a44751b30d3dd6651f6f7d,,,,,,,,,,,,,,,,,,,,,,,,,,,,,,,,,,,,,,,,,,,,,,,,,,,,,,,,,,,,,,,,,,,,,,,,,,,,,,,,,,,,,,,,,,,,,,,,,,,,,
,,,,,,4,0,4,0,1,X V Q F H G B L J M P D K C T S W R N Z,613867f34e206e4f573bc6ef,20,Mężczyzna,2022-06-11_09h43.09.567,task,2021.1.4,Win32,60.03842459,6299f149e92ead563fba08ef,62a44751b30d3dd6651f6f7d,,,,,,,,,,,,,,,,,,,,,,,,,,,,,,,,,,,,,,,,,,,,,,,,,,,,,,,,,,,,,,,,,,,,,,,,,,,,,,,,,,,,,,,,,,,,,,,,,,,,,
,,,,,,5,0,5,0,1,X V Q F H G B L J M P D K C T S W R N Z,613867f34e206e4f573bc6ef,20,Mężczyzna,2022-06-11_09h43.09.567,task,2021.1.4,Win32,60.03842459,6299f149e92ead563fba08ef,62a44751b30d3dd6651f6f7d,,,,,,,,,,,,,,,,,,,,,,,,,,,,,,,,,,,,,,,,,,,,,,,,,,,,,,,,,,,,,,,,,,,,,,,,,,,,,,,,,,,,,,,,,,,,,,,,,,,,,
,,,,,,6,0,6,0,1,X V Q F H G B L J M P D K C T S W R N Z,613867f34e206e4f573bc6ef,20,Mężczyzna,2022-06-11_09h43.09.567,task,2021.1.4,Win32,60.03842459,6299f149e92ead563fba08ef,62a44751b30d3dd6651f6f7d,,,,,,,,,,,,,,,,,,,,,,,,,,,,,,,,,,,,,,,,,,,,,,,,,,,,,,,,,,,,,,,,,,,,,,,,,,,,,,,,,,,,,,,,,,,,,,,,,,,,,
,,,,,,,,,,,,613867f34e206e4f573bc6ef,20,Mężczyzna,2022-06-11_09h43.09.567,task,2021.1.4,Win32,60.03842459,6299f149e92ead563fba08ef,62a44751b30d3dd6651f6f7d,zmdksvl,"[""z"",""m"",""d"",""k"",""s"",""v"",""l""]","[1.336500000000001,2.1007999999523292,2.650399999976173,3.2946999999284685,3.9963999999761484,4.837599999904626,5.658699999928473,6.38300000000001]",1,ZMDKSVL,11,0,11,0,1,,,,,,,,,,,,,,,,,,,,,,,,,,,,,,,,,,,,,,,,,,,,,,,,,,,,,,,,,,,,,,,,,,,,,,,,,,,,,,,,,,,,,,,,,,,
,,,,,,0,0,0,0,1,X V Q F H G B L J M P D K C T S W R N Z,613867f34e206e4f573bc6ef,20,Mężczyzna,2022-06-11_09h43.09.567,task,2021.1.4,Win32,60.03842459,6299f149e92ead563fba08ef,62a44751b30d3dd6651f6f7d,,,,,,,,,,,,,,,,,,,,,,,,,,,,,,,,,,,,,,,,,,,,,,,,,,,,,,,,,,,,,,,,,,,,,,,,,,,,,,,,,,,,,,,,,,,,,,,,,,,,,
,,,,,,1,0,1,0,1,X V Q F H G B L J M P D K C T S W R N Z,613867f34e206e4f573bc6ef,20,Mężczyzna,2022-06-11_09h43.09.567,task,2021.1.4,Win32,60.03842459,6299f149e92ead563fba08ef,62a44751b30d3dd6651f6f7d,,,,,,,,,,,,,,,,,,,,,,,,,,,,,,,,,,,,,,,,,,,,,,,,,,,,,,,,,,,,,,,,,,,,,,,,,,,,,,,,,,,,,,,,,,,,,,,,,,,,,
,,,,,,2,0,2,0,1,X V Q F H G B L J M P D K C T S W R N Z,613867f34e206e4f573bc6ef,20,Mężczyzna,2022-06-11_09h43.09.567,task,2021.1.4,Win32,60.03842459,6299f149e92ead563fba08ef,62a44751b30d3dd6651f6f7d,,,,,,,,,,,,,,,,,,,,,,,,,,,,,,,,,,,,,,,,,,,,,,,,,,,,,,,,,,,,,,,,,,,,,,,,,,,,,,,,,,,,,,,,,,,,,,,,,,,,,
,,,,,,3,0,3,0,1,X V Q F H G B L J M P D K C T S W R N Z,613867f34e206e4f573bc6ef,20,Mężczyzna,2022-06-11_09h43.09.567,task,2021.1.4,Win32,60.03842459,6299f149e92ead563fba08ef,62a44751b30d3dd6651f6f7d,,,,,,,,,,,,,,,,,,,,,,,,,,,,,,,,,,,,,,,,,,,,,,,,,,,,,,,,,,,,,,,,,,,,,,,,,,,,,,,,,,,,,,,,,,,,,,,,,,,,,
,,,,,,4,0,4,0,1,X V Q F H G B L J M P D K C T S W R N Z,613867f34e206e4f573bc6ef,20,Mężczyzna,2022-06-11_09h43.09.567,task,2021.1.4,Win32,60.03842459,6299f149e92ead563fba08ef,62a44751b30d3dd6651f6f7d,,,,,,,,,,,,,,,,,,,,,,,,,,,,,,,,,,,,,,,,,,,,,,,,,,,,,,,,,,,,,,,,,,,,,,,,,,,,,,,,,,,,,,,,,,,,,,,,,,,,,
,,,,,,5,0,5,0,1,X V Q F H G B L J M P D K C T S W R N Z,613867f34e206e4f573bc6ef,20,Mężczyzna,2022-06-11_09h43.09.567,task,2021.1.4,Win32,60.03842459,6299f149e92ead563fba08ef,62a44751b30d3dd6651f6f7d,,,,,,,,,,,,,,,,,,,,,,,,,,,,,,,,,,,,,,,,,,,,,,,,,,,,,,,,,,,,,,,,,,,,,,,,,,,,,,,,,,,,,,,,,,,,,,,,,,,,,
,,,,,,6,0,6,0,1,X V Q F H G B L J M P D K C T S W R N Z,613867f34e206e4f573bc6ef,20,Mężczyzna,2022-06-11_09h43.09.567,task,2021.1.4,Win32,60.03842459,6299f149e92ead563fba08ef,62a44751b30d3dd6651f6f7d,,,,,,,,,,,,,,,,,,,,,,,,,,,,,,,,,,,,,,,,,,,,,,,,,,,,,,,,,,,,,,,,,,,,,,,,,,,,,,,,,,,,,,,,,,,,,,,,,,,,,
,,,,,,,,,,,,613867f34e206e4f573bc6ef,20,Mężczyzna,2022-06-11_09h43.09.567,task,2021.1.4,Win32,60.03842459,6299f149e92ead563fba08ef,62a44751b30d3dd6651f6f7d,tbdzzsm,"[""t"",""b"",""d"",""z"",""z"",""s"",""m""]","[1.5839000000953547,2.0208000000715174,2.742300000071509,3.4342000000476673,3.5934000000953574,5.504400000095359,6.249800000071531,6.8089999999999975]",0,TDBZZSV,12,0,12,0,1,,,,,,,,,,,,,,,,,,,,,,,,,,,,,,,,,,,,,,,,,,,,,,,,,,,,,,,,,,,,,,,,,,,,,,,,,,,,,,,,,,,,,,,,,,,
,,,,,,0,0,0,0,1,X V Q F H G B L J M P D K C T S W R N Z,613867f34e206e4f573bc6ef,20,Mężczyzna,2022-06-11_09h43.09.567,task,2021.1.4,Win32,60.03842459,6299f149e92ead563fba08ef,62a44751b30d3dd6651f6f7d,,,,,,,,,,,,,,,,,,,,,,,,,,,,,,,,,,,,,,,,,,,,,,,,,,,,,,,,,,,,,,,,,,,,,,,,,,,,,,,,,,,,,,,,,,,,,,,,,,,,,
,,,,,,1,0,1,0,1,X V Q F H G B L J M P D K C T S W R N Z,613867f34e206e4f573bc6ef,20,Mężczyzna,2022-06-11_09h43.09.567,task,2021.1.4,Win32,60.03842459,6299f149e92ead563fba08ef,62a44751b30d3dd6651f6f7d,,,,,,,,,,,,,,,,,,,,,,,,,,,,,,,,,,,,,,,,,,,,,,,,,,,,,,,,,,,,,,,,,,,,,,,,,,,,,,,,,,,,,,,,,,,,,,,,,,,,,
,,,,,,2,0,2,0,1,X V Q F H G B L J M P D K C T S W R N Z,613867f34e206e4f573bc6ef,20,Mężczyzna,2022-06-11_09h43.09.567,task,2021.1.4,Win32,60.03842459,6299f149e92ead563fba08ef,62a44751b30d3dd6651f6f7d,,,,,,,,,,,,,,,,,,,,,,,,,,,,,,,,,,,,,,,,,,,,,,,,,,,,,,,,,,,,,,,,,,,,,,,,,,,,,,,,,,,,,,,,,,,,,,,,,,,,,
,,,,,,3,0,3,0,1,X V Q F H G B L J M P D K C T S W R N Z,613867f34e206e4f573bc6ef,20,Mężczyzna,2022-06-11_09h43.09.567,task,2021.1.4,Win32,60.03842459,6299f149e92ead563fba08ef,62a44751b30d3dd6651f6f7d,,,,,,,,,,,,,,,,,,,,,,,,,,,,,,,,,,,,,,,,,,,,,,,,,,,,,,,,,,,,,,,,,,,,,,,,,,,,,,,,,,,,,,,,,,,,,,,,,,,,,
,,,,,,4,0,4,0,1,X V Q F H G B L J M P D K C T S W R N Z,613867f34e206e4f573bc6ef,20,Mężczyzna,2022-06-11_09h43.09.567,task,2021.1.4,Win32,60.03842459,6299f149e92ead563fba08ef,62a44751b30d3dd6651f6f7d,,,,,,,,,,,,,,,,,,,,,,,,,,,,,,,,,,,,,,,,,,,,,,,,,,,,,,,,,,,,,,,,,,,,,,,,,,,,,,,,,,,,,,,,,,,,,,,,,,,,,
,,,,,,5,0,5,0,1,X V Q F H G B L J M P D K C T S W R N Z,613867f34e206e4f573bc6ef,20,Mężczyzna,2022-06-11_09h43.09.567,task,2021.1.4,Win32,60.03842459,6299f149e92ead563fba08ef,62a44751b30d3dd6651f6f7d,,,,,,,,,,,,,,,,,,,,,,,,,,,,,,,,,,,,,,,,,,,,,,,,,,,,,,,,,,,,,,,,,,,,,,,,,,,,,,,,,,,,,,,,,,,,,,,,,,,,,
,,,,,,6,0,6,0,1,X V Q F H G B L J M P D K C T S W R N Z,613867f34e206e4f573bc6ef,20,Mężczyzna,2022-06-11_09h43.09.567,task,2021.1.4,Win32,60.03842459,6299f149e92ead563fba08ef,62a44751b30d3dd6651f6f7d,,,,,,,,,,,,,,,,,,,,,,,,,,,,,,,,,,,,,,,,,,,,,,,,,,,,,,,,,,,,,,,,,,,,,,,,,,,,,,,,,,,,,,,,,,,,,,,,,,,,,
,,,,,,,,,,,,613867f34e206e4f573bc6ef,20,Mężczyzna,2022-06-11_09h43.09.567,task,2021.1.4,Win32,60.03842459,6299f149e92ead563fba08ef,62a44751b30d3dd6651f6f7d,tpzhlmj,"[""t"",""p"",""z"",""h"",""l"",""m"",""j""]","[1.3744999999999834,2.0834999999999866,2.6572999999523006,3.3401000000238525,4.350799999952301,4.767499999999984,4.950200000047687,5.6784999999999854]",0,TPHLZJH,13,0,13,0,1,,,,,,,,,,,,,,,,,,,,,,,,,,,,,,,,,,,,,,,,,,,,,,,,,,,,,,,,,,,,,,,,,,,,,,,,,,,,,,,,,,,,,,,,,,,
,,,,,,,,,,,,613867f34e206e4f573bc6ef,20,Mężczyzna,2022-06-11_09h43.09.567,task,2021.1.4,Win32,60.03842459,6299f149e92ead563fba08ef,62a44751b30d3dd6651f6f7d,,,,,,,,,,,space,13.7818,5,"[""5""]",1,[3.382299999952295],[3.382299999952295],0,0,0,5,1,Practice,6,(4/2) + 3,5,,,,,,,,,,,,,,,,,,,,,,,,,,,,,,,,,,,,,,,,,,,,,,,,,,,,,,,,,,,,,,,,,,,,,,,,,,,
,,,,,,,,,,,,613867f34e206e4f573bc6ef,20,Mężczyzna,2022-06-11_09h43.09.567,task,2021.1.4,Win32,60.03842459,6299f149e92ead563fba08ef,62a44751b30d3dd6651f6f7d,,,,,,,,,,,,,9,"[""9""]",1,[2.4780000000000086],"[3.382299999952295,2.4780000000000086]",0,1,1,9,1,Practice,10,(20/2) - 1,9,,,,,,,,,,,,,,,,,,,,,,,,,,,,,,,,,,,,,,,,,,,,,,,,,,,,,,,,,,,,,,,,,,,,,,,,,,,
,,,,,,,,,,,,613867f34e206e4f573bc6ef,20,Mężczyzna,2022-06-11_09h43.09.567,task,2021.1.4,Win32,60.03842459,6299f149e92ead563fba08ef,62a44751b30d3dd6651f6f7d,,,,,,,,,,,,,3,"[""3""]",1,[3.420899999976143],"[3.382299999952295,2.4780000000000086,3.420899999976143]",0,2,2,3,1,Practice,4,(8/4) + 1,3,,,,,,,,,,,,,,,,,,,,,,,,,,,,,,,,,,,,,,,,,,,,,,,,,,,,,,,,,,,,,,,,,,,,,,,,,,,
,,,,,,,,,,,,613867f34e206e4f573bc6ef,20,Mężczyzna,2022-06-11_09h43.09.567,task,2021.1.4,Win32,60.03842459,6299f149e92ead563fba08ef,62a44751b30d3dd6651f6f7d,,,,,,,,,,,,,7,"[""7""]",1,[3.086500000000001],"[3.382299999952295,2.4780000000000086,3.420899999976143,3.086500000000001]",0,3,3,7,1,Practice,8,(5x5) - 18,7,,,,,,,,,,,,,,,,,,,,,,,,,,,,,,,,,,,,,,,,,,,,,,,,,,,,,,,,,,,,,,,,,,,,,,,,,,,
,,,,,,,,,,,,613867f34e206e4f573bc6ef,20,Mężczyzna,2022-06-11_09h43.09.567,task,2021.1.4,Win32,60.03842459,6299f149e92ead563fba08ef,62a44751b30d3dd6651f6f7d,,,,,,,,,,,,,1,"[""1""]",1,[2.2847000000476783],"[3.382299999952295,2.4780000000000086,3.420899999976143,3.086500000000001,2.2847000000476783]",0,4,4,1,1,Practice,2,(4x4) - 15,1,,,,,,,,,,,,,,,,,,,,,,,,,,,,,,,,,,,,,,,,,,,,,,,,,,,,,,,,,,,,,,,,,,,,,,,,,,,
,,,,,,,,,,,,613867f34e206e4f573bc6ef,20,Mężczyzna,2022-06-11_09h43.09.567,task,2021.1.4,Win32,60.03842459,6299f149e92ead563fba08ef,62a44751b30d3dd6651f6f7d,,,,,,,,,,,,,8,"[""8""]",1,[2.164799999952322],"[3.382299999952295,2.4780000000000086,3.420899999976143,3.086500000000001,2.2847000000476783,2.164799999952322]",0,5,5,8,1,Practice,9,(3x3) - 1,8,,,,,,,,,,,,,,,,,,,,,,,,,,,,,,,,,,,,,,,,,,,,,,,,,,,,,,,,,,,,,,,,,,,,,,,,,,,
,,,,,,,,,,,,613867f34e206e4f573bc6ef,20,Mężczyzna,2022-06-11_09h43.09.567,task,2021.1.4,Win32,60.03842459,6299f149e92ead563fba08ef,62a44751b30d3dd6651f6f7d,,,,,,,,,,,,,4,"[""4""]",1,[5.759600000023852],"[3.382299999952295,2.4780000000000086,3.420899999976143,3.086500000000001,2.2847000000476783,2.164799999952322,5.759600000023852]",0,6,6,4,1,Practice,5,(2x6) - 8,4,,,,,,,,,,,,,,,,,,,,,,,,,,,,,,,,,,,,,,,,,,,,,,,,,,,,,,,,,,,,,,,,,,,,,,,,,,,
,,,,,,,,,,,,613867f34e206e4f573bc6ef,20,Mężczyzna,2022-06-11_09h43.09.567,task,2021.1.4,Win32,60.03842459,6299f149e92ead563fba08ef,62a44751b30d3dd6651f6f7d,,,,,,,,,,,,,6,"[""6""]",1,[1.897300000071482],"[3.382299999952295,2.4780000000000086,3.420899999976143,3.086500000000001,2.2847000000476783,2.164799999952322,5.759600000023852,1.897300000071482]",0,7,7,6,1,Practice,7,(25/5) + 1,6,,,,,,,,,,,,,,,,,,,,,,,,,,,,,,,,,,,,,,,,,,,,,,,,,,,,,,,,,,,,,,,,,,,,,,,,,,,
,,,,,,,,,,,,613867f34e206e4f573bc6ef,20,Mężczyzna,2022-06-11_09h43.09.567,task,2021.1.4,Win32,60.03842459,6299f149e92ead563fba08ef,62a44751b30d3dd6651f6f7d,,,,,,,,,,,,,2,"[""2""]",1,[1.8462999999523504],"[3.382299999952295,2.4780000000000086,3.420899999976143,3.086500000000001,2.2847000000476783,2.164799999952322,5.759600000023852,1.897300000071482,1.8462999999523504]",0,8,8,2,1,Practice,3,(4x4) - 14,2,,,,,,,,,,,,,,,,,,,,,,,,,,,,,,,,,,,,,,,,,,,,,,,,,,,,,,,,,,,,,,,,,,,,,,,,,,,
,,,,,,,,,,,,613867f34e206e4f573bc6ef,20,Mężczyzna,2022-06-11_09h43.09.567,task,2021.1.4,Win32,60.03842459,6299f149e92ead563fba08ef,62a44751b30d3dd6651f6f7d,,,,,,,,,,,,,0,"[""0""]",1,[2.347799999952315],"[3.382299999952295,2.4780000000000086,3.420899999976143,3.086500000000001,2.2847000000476783,2.164799999952322,5.759600000023852,1.897300000071482,1.8462999999523504,2.347799999952315]",0,9,9,0,1,Practice,1,(3x3) -  9,0,,,,,,,,,,,,,,,,,,,,,,,,,,,,,,,,,,,,,,,,,,,,,,,,,,,,,,,,,,,,,,,,,,,,,,,,,,,
,,,,,,,,,,,,613867f34e206e4f573bc6ef,20,Mężczyzna,2022-06-11_09h43.09.567,task,2021.1.4,Win32,60.03842459,6299f149e92ead563fba08ef,62a44751b30d3dd6651f6f7d,,,,,,,,,,,,,,,,,,,,,,,,,,,1,28.6682,1.911213333,21.35468935,1.193166357,4.989582536,space,1.925,0,0,0,0,1,,,,,,,,,,,,,,,,,,,,,,,,,,,,,,,,,,,,,,,,,,,,,,,,,,,,,,,,,,,,,,
,,,,,,,,,,,,613867f34e206e4f573bc6ef,20,Mężczyzna,2022-06-11_09h43.09.567,task,2021.1.4,Win32,60.03842459,6299f149e92ead563fba08ef,62a44751b30d3dd6651f6f7d,,,,,,,,,,,,,8,,,,,,,,,,Practice,9,(3x3) - 1,8,,,,,,,,,,,,,,space,23.2811,"[""8""]",1,[2.180100000023799],1,0,0,0,8,1,,,,,,,,,,,,,,,,,,,,,,,,,,,,,,,,,,,,,,,,,,,,,,,,,,,
,,,,,,,,,,,X V Q F H G B L J M P D K C T S W R N Z,613867f34e206e4f573bc6ef,20,Mężczyzna,2022-06-11_09h43.09.567,task,2021.1.4,Win32,60.03842459,6299f149e92ead563fba08ef,62a44751b30d3dd6651f6f7d,,,,,,,,,,,,,,,,,,,,,,,,,,,,,,,,,,,,,,,,,,,,,,,,,,,0,0,0,0,1,,,,,,,,,,,,,,,,,,,,,,,,,,,,,,,,,,,,,,,,,,,,,,
,,,,,,,,,,,,613867f34e206e4f573bc6ef,20,Mężczyzna,2022-06-11_09h43.09.567,task,2021.1.4,Win32,60.03842459,6299f149e92ead563fba08ef,62a44751b30d3dd6651f6f7d,,,,,,,,,,,,,5,,,,,,,,,,Practice,6,(4/2) + 3,5,,,,,,,,,,,,,,,,"[""5""]",1,[3.3136000000238255],1,0,0,0,5,1,,,,,,,,,,,,,,,,,,,,,,,,,,,,,,,,,,,,,,,,,,,,,,,,,,,
,,,,,,,,,,,X V Q F H G B L J M P D K C T S W R N Z,613867f34e206e4f573bc6ef,20,Mężczyzna,2022-06-11_09h43.09.567,task,2021.1.4,Win32,60.03842459,6299f149e92ead563fba08ef,62a44751b30d3dd6651f6f7d,,,,,,,,,,,,,,,,,,,,,,,,,,,,,,,,,,,,,,,,,,,,,,,,,,,1,0,1,0,1,,,,,,,,,,,,,,,,,,,,,,,,,,,,,,,,,,,,,,,,,,,,,,
,,,,,,,,,,,,613867f34e206e4f573bc6ef,20,Mężczyzna,2022-06-11_09h43.09.567,task,2021.1.4,Win32,60.03842459,6299f149e92ead563fba08ef,62a44751b30d3dd6651f6f7d,,,,,,,,,,,,,,,,,,,,,,,,,,,,,,,,,,,,,,,,,,,,,,,,,,,,,,,,zc,"[""z"",""c""]",0,"[2.1201000000238537,2.443300000071531,3.070399999976132]",1,0,0,0,0,1,,,,,,,,,,,,,,,,,,,,,,,,,,,,,,,,,,,,
,,,,,,,,,,,,613867f34e206e4f573bc6ef,20,Mężczyzna,2022-06-11_09h43.09.567,task,2021.1.4,Win32,60.03842459,6299f149e92ead563fba08ef,62a44751b30d3dd6651f6f7d,,,,,,,,,,,,,6,,,,,,,,,,Practice,7,(25/5) + 1,6,,,,,,,,,,,,,,,,"[""6""]",1,[2.531000000000006],1,0,0,0,6,1,,,,,,,,,,,,,,,,,,,,,,,,,,,,,,,,,,,,,,,,,,,,,,,,,,,
,,,,,,,,,,,X V Q F H G B L J M P D K C T S W R N Z,613867f34e206e4f573bc6ef,20,Mężczyzna,2022-06-11_09h43.09.567,task,2021.1.4,Win32,60.03842459,6299f149e92ead563fba08ef,62a44751b30d3dd6651f6f7d,,,,,,,,,,,,,,,,,,,,,,,,,,,,,,,,,,,,,,,,,,,,,,,,,,,0,0,0,0,1,,,,,,,,,,,,,,,,,,,,,,,,,,,,,,,,,,,,,,,,,,,,,,
,,,,,,,,,,,,613867f34e206e4f573bc6ef,20,Mężczyzna,2022-06-11_09h43.09.567,task,2021.1.4,Win32,60.03842459,6299f149e92ead563fba08ef,62a44751b30d3dd6651f6f7d,,,,,,,,,,,,,7,,,,,,,,,,Practice,8,(5x5) - 18,7,,,,,,,,,,,,,,,,"[""7""]",1,[2.759100000023807],1,0,0,0,7,1,,,,,,,,,,,,,,,,,,,,,,,,,,,,,,,,,,,,,,,,,,,,,,,,,,,
,,,,,,,,,,,X V Q F H G B L J M P D K C T S W R N Z,613867f34e206e4f573bc6ef,20,Mężczyzna,2022-06-11_09h43.09.567,task,2021.1.4,Win32,60.03842459,6299f149e92ead563fba08ef,62a44751b30d3dd6651f6f7d,,,,,,,,,,,,,,,,,,,,,,,,,,,,,,,,,,,,,,,,,,,,,,,,,,,1,0,1,0,1,,,,,,,,,,,,,,,,,,,,,,,,,,,,,,,,,,,,,,,,,,,,,,
,,,,,,,,,,,,613867f34e206e4f573bc6ef,20,Mężczyzna,2022-06-11_09h43.09.567,task,2021.1.4,Win32,60.03842459,6299f149e92ead563fba08ef,62a44751b30d3dd6651f6f7d,,,,,,,,,,,,,,,,,,,,,,,,,,,,,,,,,,,,,,,,,,,,,,,,,,,,,,,,mw,"[""m"",""w""]",0,"[2.139399999976149,2.6338999999761654,5.817100000023856]",1,1,0,1,0,1,,,,,,,,,,,,,,,,,,,,,,,,,,,,,,,,,,,,
,,,,,,,,,,,,613867f34e206e4f573bc6ef,20,Mężczyzna,2022-06-11_09h43.09.567,task,2021.1.4,Win32,60.03842459,6299f149e92ead563fba08ef,62a44751b30d3dd6651f6f7d,,,,,,,,,,,,,4,,,,,,,,,,Practice,5,(2x6) - 8,4,,,,,,,,,,,,,,,,"[""4""]",1,[4.131500000000017],1,0,0,0,4,1,,,,,,,,,,,,,,,,,,,,,,,,,,,,,,,,,,,,,,,,,,,,,,,,,,,
,,,,,,,,,,,X V Q F H G B L J M P D K C T S W R N Z,613867f34e206e4f573bc6ef,20,Mężczyzna,2022-06-11_09h43.09.567,task,2021.1.4,Win32,60.03842459,6299f149e92ead563fba08ef,62a44751b30d3dd6651f6f7d,,,,,,,,,,,,,,,,,,,,,,,,,,,,,,,,,,,,,,,,,,,,,,,,,,,0,0,0,0,1,,,,,,,,,,,,,,,,,,,,,,,,,,,,,,,,,,,,,,,,,,,,,,
,,,,,,,,,,,,613867f34e206e4f573bc6ef,20,Mężczyzna,2022-06-11_09h43.09.567,task,2021.1.4,Win32,60.03842459,6299f149e92ead563fba08ef,62a44751b30d3dd6651f6f7d,,,,,,,,,,,,,2,,,,,,,,,,Practice,3,(4x4) - 14,2,,,,,,,,,,,,,,,,"[""2""]",1,[1.9768000000714778],1,0,0,0,2,1,,,,,,,,,,,,,,,,,,,,,,,,,,,,,,,,,,,,,,,,,,,,,,,,,,,
,,,,,,,,,,,X V Q F H G B L J M P D K C T S W R N Z,613867f34e206e4f573bc6ef,20,Mężczyzna,2022-06-11_09h43.09.567,task,2021.1.4,Win32,60.03842459,6299f149e92ead563fba08ef,62a44751b30d3dd6651f6f7d,,,,,,,,,,,,,,,,,,,,,,,,,,,,,,,,,,,,,,,,,,,,,,,,,,,1,0,1,0,1,,,,,,,,,,,,,,,,,,,,,,,,,,,,,,,,,,,,,,,,,,,,,,
,,,,,,,,,,,,613867f34e206e4f573bc6ef,20,Mężczyzna,2022-06-11_09h43.09.567,task,2021.1.4,Win32,60.03842459,6299f149e92ead563fba08ef,62a44751b30d3dd6651f6f7d,,,,,,,,,,,,,,,,,,,,,,,,,,,,,,,,,,,,,,,,,,,,,,,,,,,,,,,,wd,"[""w"",""d""]",0,"[1.5588000000715283,1.7927000000477165,2.459399999976199]",1,2,0,2,0,1,,,,,,,,,,,,,,,,,,,,,,,,,,,,,,,,,,,,
,,,,,,,,,,,,613867f34e206e4f573bc6ef,20,Mężczyzna,2022-06-11_09h43.09.567,task,2021.1.4,Win32,60.03842459,6299f149e92ead563fba08ef,62a44751b30d3dd6651f6f7d,,,,,,,,,,,,,4,,,,,,,,,,Task,28,(2x5) - 6,4,,,,,,,,,,,,,,,,,,,1,,,,,,,,,,,,,,,,,,,,,space,11.0327,"[""4""]",1,[3.269999999999982],0,0,0,27,1,,,,,,,,,,,,,,,,,,,,,,,,,,
,,,,,,,,,,,X V Q F H G B L J M P D K C T S W R N Z,613867f34e206e4f573bc6ef,20,Mężczyzna,2022-06-11_09h43.09.567,task,2021.1.4,Win32,60.03842459,6299f149e92ead563fba08ef,62a44751b30d3dd6651f6f7d,,,,,,,,,,,,,,,,,,,,,,,,,,,,,,,,,,,,,,,,,,,,,,,,,,,,,,,,,,,,,,,,,,,,,,,,,,,,0,0,0,0,1,,,,,,,,,,,,,,,,,,,,,
,,,,,,,,,,,,613867f34e206e4f573bc6ef,20,Mężczyzna,2022-06-11_09h43.09.567,task,2021.1.4,Win32,60.03842459,6299f149e92ead563fba08ef,62a44751b30d3dd6651f6f7d,,,,,,,,,,,,,8,,,,,,,,,,Task,39,(5x3) - 7,8,,,,,,,,,,,,,,,,,,,1,,,,,,,,,,,,,,,,,,,,,,,"[""8""]",1,[4.6886000000238255],0,0,0,38,1,,,,,,,,,,,,,,,,,,,,,,,,,,
,,,,,,,,,,,X V Q F H G B L J M P D K C T S W R N Z,613867f34e206e4f573bc6ef,20,Mężczyzna,2022-06-11_09h43.09.567,task,2021.1.4,Win32,60.03842459,6299f149e92ead563fba08ef,62a44751b30d3dd6651f6f7d,,,,,,,,,,,,,,,,,,,,,,,,,,,,,,,,,,,,,,,,,,,,,,,,,,,,,,,,,,,,,,,,,,,,,,,,,,,,1,0,1,0,1,,,,,,,,,,,,,,,,,,,,,
,,,,,,,,,,,,613867f34e206e4f573bc6ef,20,Mężczyzna,2022-06-11_09h43.09.567,task,2021.1.4,Win32,60.03842459,6299f149e92ead563fba08ef,62a44751b30d3dd6651f6f7d,,,,,,,,,,,,,,,,,,,,,,,,,,,,,,,,,,,,,,,,,,,,,,,,,,,,,,,,,,,,,,,,,,,,,,,,,,,,,,,,,zg,"[""z"",""g""]",0,"[2.1222000000476555,2.589999999999975,3.25029999995229]",1,ZG,0,0,0,0,1,,,,,,,,,,
,,,,,,,,,,,,613867f34e206e4f573bc6ef,20,Mężczyzna,2022-06-11_09h43.09.567,task,2021.1.4,Win32,60.03842459,6299f149e92ead563fba08ef,62a44751b30d3dd6651f6f7d,,,,,,,,,,,,,4,,,,,,,,,,Task,28,(2x5) - 6,4,,,,,,,,,,,,,,,,,,,1,,,,,,,,,,,,,,,,,,,,,,,"[""4""]",1,[2.136800000071503],0,0,0,27,1,,,,,,,,,,,,,,,,,,,,,,,,,,
,,,,,,,,,,,X V Q F H G B L J M P D K C T S W R N Z,613867f34e206e4f573bc6ef,20,Mężczyzna,2022-06-11_09h43.09.567,task,2021.1.4,Win32,60.03842459,6299f149e92ead563fba08ef,62a44751b30d3dd6651f6f7d,,,,,,,,,,,,,,,,,,,,,,,,,,,,,,,,,,,,,,,,,,,,,,,,,,,,,,,,,,,,,,,,,,,,,,,,,,,,0,0,0,0,1,,,,,,,,,,,,,,,,,,,,,
,,,,,,,,,,,,613867f34e206e4f573bc6ef,20,Mężczyzna,2022-06-11_09h43.09.567,task,2021.1.4,Win32,60.03842459,6299f149e92ead563fba08ef,62a44751b30d3dd6651f6f7d,,,,,,,,,,,,,4,,,,,,,,,,Task,11,(18/3) - 2,4,,,,,,,,,,,,,,,,,,,1,,,,,,,,,,,,,,,,,,,,,,,"[""4""]",1,[3.331199999928515],0,0,0,10,1,,,,,,,,,,,,,,,,,,,,,,,,,,
,,,,,,,,,,,X V Q F H G B L J M P D K C T S W R N Z,613867f34e206e4f573bc6ef,20,Mężczyzna,2022-06-11_09h43.09.567,task,2021.1.4,Win32,60.03842459,6299f149e92ead563fba08ef,62a44751b30d3dd6651f6f7d,,,,,,,,,,,,,,,,,,,,,,,,,,,,,,,,,,,,,,,,,,,,,,,,,,,,,,,,,,,,,,,,,,,,,,,,,,,,1,0,1,0,1,,,,,,,,,,,,,,,,,,,,,
,,,,,,,,,,,,613867f34e206e4f573bc6ef,20,Mężczyzna,2022-06-11_09h43.09.567,task,2021.1.4,Win32,60.03842459,6299f149e92ead563fba08ef,62a44751b30d3dd6651f6f7d,,,,,,,,,,,,,5,,,,,,,,,,Task,36,(8/4) + 3,5,,,,,,,,,,,,,,,,,,,1,,,,,,,,,,,,,,,,,,,,,,,"[""5""]",1,[2.174799999952313],0,0,0,35,1,,,,,,,,,,,,,,,,,,,,,,,,,,
,,,,,,,,,,,X V Q F H G B L J M P D K C T S W R N Z,613867f34e206e4f573bc6ef,20,Mężczyzna,2022-06-11_09h43.09.567,task,2021.1.4,Win32,60.03842459,6299f149e92ead563fba08ef,62a44751b30d3dd6651f6f7d,,,,,,,,,,,,,,,,,,,,,,,,,,,,,,,,,,,,,,,,,,,,,,,,,,,,,,,,,,,,,,,,,,,,,,,,,,,,2,0,2,0,1,,,,,,,,,,,,,,,,,,,,,
,,,,,,,,,,,,613867f34e206e4f573bc6ef,20,Mężczyzna,2022-06-11_09h43.09.567,task,2021.1.4,Win32,60.03842459,6299f149e92ead563fba08ef,62a44751b30d3dd6651f6f7d,,,,,,,,,,,,,,,,,,,,,,,,,,,,,,,,,,,,,,,,,,,,,,,,,,,,,,,,,,,,,,,,,,,,,,,,,,,,,,,,,pgl,"[""p"",""g"",""l""]",0,"[1.4750000000000227,1.8997000000476874,2.3908999999761704,2.704600000023845]",1,PGL,1,0,1,0,1,,,,,,,,,,
,,,,,,,,,,,,613867f34e206e4f573bc6ef,20,Mężczyzna,2022-06-11_09h43.09.567,task,2021.1.4,Win32,60.03842459,6299f149e92ead563fba08ef,62a44751b30d3dd6651f6f7d,,,,,,,,,,,,,3,,,,,,,,,,Task,20,(18/9) + 1,3,,,,,,,,,,,,,,,,,,,1,,,,,,,,,,,,,,,,,,,,,,,"[""3""]",1,[2.4292000000477287],0,0,0,19,1,,,,,,,,,,,,,,,,,,,,,,,,,,
,,,,,,,,,,,X V Q F H G B L J M P D K C T S W R N Z,613867f34e206e4f573bc6ef,20,Mężczyzna,2022-06-11_09h43.09.567,task,2021.1.4,Win32,60.03842459,6299f149e92ead563fba08ef,62a44751b30d3dd6651f6f7d,,,,,,,,,,,,,,,,,,,,,,,,,,,,,,,,,,,,,,,,,,,,,,,,,,,,,,,,,,,,,,,,,,,,,,,,,,,,0,0,0,0,1,,,,,,,,,,,,,,,,,,,,,
,,,,,,,,,,,,613867f34e206e4f573bc6ef,20,Mężczyzna,2022-06-11_09h43.09.567,task,2021.1.4,Win32,60.03842459,6299f149e92ead563fba08ef,62a44751b30d3dd6651f6f7d,,,,,,,,,,,,,8,,,,,,,,,,Task,15,(3x7) - 13,8,,,,,,,,,,,,,,,,,,,1,,,,,,,,,,,,,,,,,,,,,,,"[""8""]",1,[3.901300000071501],0,0,0,14,1,,,,,,,,,,,,,,,,,,,,,,,,,,
,,,,,,,,,,,X V Q F H G B L J M P D K C T S W R N Z,613867f34e206e4f573bc6ef,20,Mężczyzna,2022-06-11_09h43.09.567,task,2021.1.4,Win32,60.03842459,6299f149e92ead563fba08ef,62a44751b30d3dd6651f6f7d,,,,,,,,,,,,,,,,,,,,,,,,,,,,,,,,,,,,,,,,,,,,,,,,,,,,,,,,,,,,,,,,,,,,,,,,,,,,1,0,1,0,1,,,,,,,,,,,,,,,,,,,,,
,,,,,,,,,,,,613867f34e206e4f573bc6ef,20,Mężczyzna,2022-06-11_09h43.09.567,task,2021.1.4,Win32,60.03842459,6299f149e92ead563fba08ef,62a44751b30d3dd6651f6f7d,,,,,,,,,,,,,,,,,,,,,,,Task,7,(3x7) - 12,9,,,,,,,,,,,,,,,,,,,0,,,,,,,,,,,,,,,,,,,,,,,,0,,0,0,0,6,1,,,,,,,,,,,,,,,,,,,,,,,,,,
,,,,,,,,,,,,613867f34e206e4f573bc6ef,20,Mężczyzna,2022-06-11_09h43.09.567,task,2021.1.4,Win32,60.03842459,6299f149e92ead563fba08ef,62a44751b30d3dd6651f6f7d,,,,,,,,,,,,,4,,,,,,,,,,Task,11,(18/3) - 2,4,,,,,,,,,,,,,,,,,,,1,,,,,,,,,,,,,,,,,,,,,,,"[""4""]",1,[3.9258999999761954],0,1,1,10,1,,,,,,,,,,,,,,,,,,,,,,,,,,
,,,,,,,,,,,X V Q F H G B L J M P D K C T S W R N Z,613867f34e206e4f573bc6ef,20,Mężczyzna,2022-06-11_09h43.09.567,task,2021.1.4,Win32,60.03842459,6299f149e92ead563fba08ef,62a44751b30d3dd6651f6f7d,,,,,,,,,,,,,,,,,,,,,,,,,,,,,,,,,,,,,,,,,,,,,,,,,,,,,,,,,,,,,,,,,,,,,,,,,,,,2,0,2,0,1,,,,,,,,,,,,,,,,,,,,,
,,,,,,,,,,,,613867f34e206e4f573bc6ef,20,Mężczyzna,2022-06-11_09h43.09.567,task,2021.1.4,Win32,60.03842459,6299f149e92ead563fba08ef,62a44751b30d3dd6651f6f7d,,,,,,,,,,,,,6,,,,,,,,,,Task,5,(2x3) + 0,6,,,,,,,,,,,,,,,,,,,1,,,,,,,,,,,,,,,,,,,,,,,"[""6""]",1,[3.20150000000001],0,0,0,4,1,,,,,,,,,,,,,,,,,,,,,,,,,,
,,,,,,,,,,,X V Q F H G B L J M P D K C T S W R N Z,613867f34e206e4f573bc6ef,20,Mężczyzna,2022-06-11_09h43.09.567,task,2021.1.4,Win32,60.03842459,6299f149e92ead563fba08ef,62a44751b30d3dd6651f6f7d,,,,,,,,,,,,,,,,,,,,,,,,,,,,,,,,,,,,,,,,,,,,,,,,,,,,,,,,,,,,,,,,,,,,,,,,,,,,3,0,3,0,1,,,,,,,,,,,,,,,,,,,,,
,,,,,,,,,,,,613867f34e206e4f573bc6ef,20,Mężczyzna,2022-06-11_09h43.09.567,task,2021.1.4,Win32,60.03842459,6299f149e92ead563fba08ef,62a44751b30d3dd6651f6f7d,,,,,,,,,,,,,,,,,,,,,,,,,,,,,,,,,,,,,,,,,,,,,,,,,,,,,,,,,,,,,,,,,,,,,,,,,,,,,,,,,zgct,"[""z"",""g"",""c"",""t""]",0,"[1.4007000000476637,2.0278000000715224,4.367800000071554,4.683499999999981,5.412100000023827]",0,ZGTC,2,0,2,0,1,,,,,,,,,,
,,,,,,,,,,,,613867f34e206e4f573bc6ef,20,Mężczyzna,2022-06-11_09h43.09.567,task,2021.1.4,Win32,60.03842459,6299f149e92ead563fba08ef,62a44751b30d3dd6651f6f7d,,,,,,,,,,,,,4,,,,,,,,,,Task,4,(1x5) - 1,4,,,,,,,,,,,,,,,,,,,1,,,,,,,,,,,,,,,,,,,,,,,"[""4""]",1,[1.7856000000238623],0,0,0,3,1,,,,,,,,,,,,,,,,,,,,,,,,,,
,,,,,,,,,,,X V Q F H G B L J M P D K C T S W R N Z,613867f34e206e4f573bc6ef,20,Mężczyzna,2022-06-11_09h43.09.567,task,2021.1.4,Win32,60.03842459,6299f149e92ead563fba08ef,62a44751b30d3dd6651f6f7d,,,,,,,,,,,,,,,,,,,,,,,,,,,,,,,,,,,,,,,,,,,,,,,,,,,,,,,,,,,,,,,,,,,,,,,,,,,,0,0,0,0,1,,,,,,,,,,,,,,,,,,,,,
,,,,,,,,,,,,613867f34e206e4f573bc6ef,20,Mężczyzna,2022-06-11_09h43.09.567,task,2021.1.4,Win32,60.03842459,6299f149e92ead563fba08ef,62a44751b30d3dd6651f6f7d,,,,,,,,,,,,,0,,,,,,,,,,Task,8,(1x5) - 5,0,,,,,,,,,,,,,,,,,,,1,,,,,,,,,,,,,,,,,,,,,,,"[""0""]",1,[1.9176000000238105],0,0,0,7,1,,,,,,,,,,,,,,,,,,,,,,,,,,
,,,,,,,,,,,X V Q F H G B L J M P D K C T S W R N Z,613867f34e206e4f573bc6ef,20,Mężczyzna,2022-06-11_09h43.09.567,task,2021.1.4,Win32,60.03842459,6299f149e92ead563fba08ef,62a44751b30d3dd6651f6f7d,,,,,,,,,,,,,,,,,,,,,,,,,,,,,,,,,,,,,,,,,,,,,,,,,,,,,,,,,,,,,,,,,,,,,,,,,,,,1,0,1,0,1,,,,,,,,,,,,,,,,,,,,,
,,,,,,,,,,,,613867f34e206e4f573bc6ef,20,Mężczyzna,2022-06-11_09h43.09.567,task,2021.1.4,Win32,60.03842459,6299f149e92ead563fba08ef,62a44751b30d3dd6651f6f7d,,,,,,,,,,,,,0,,,,,,,,,,Task,8,(1x5) - 5,0,,,,,,,,,,,,,,,,,,,1,,,,,,,,,,,,,,,,,,,,,,,"[""0""]",1,[1.9007000000476637],0,0,0,7,1,,,,,,,,,,,,,,,,,,,,,,,,,,
,,,,,,,,,,,X V Q F H G B L J M P D K C T S W R N Z,613867f34e206e4f573bc6ef,20,Mężczyzna,2022-06-11_09h43.09.567,task,2021.1.4,Win32,60.03842459,6299f149e92ead563fba08ef,62a44751b30d3dd6651f6f7d,,,,,,,,,,,,,,,,,,,,,,,,,,,,,,,,,,,,,,,,,,,,,,,,,,,,,,,,,,,,,,,,,,,,,,,,,,,,2,0,2,0,1,,,,,,,,,,,,,,,,,,,,,
,,,,,,,,,,,,613867f34e206e4f573bc6ef,20,Mężczyzna,2022-06-11_09h43.09.567,task,2021.1.4,Win32,60.03842459,6299f149e92ead563fba08ef,62a44751b30d3dd6651f6f7d,,,,,,,,,,,,,0,,,,,,,,,,Task,8,(1x5) - 5,0,,,,,,,,,,,,,,,,,,,1,,,,,,,,,,,,,,,,,,,,,,,"[""0""]",1,[1.5273999999761259],0,0,0,7,1,,,,,,,,,,,,,,,,,,,,,,,,,,
,,,,,,,,,,,X V Q F H G B L J M P D K C T S W R N Z,613867f34e206e4f573bc6ef,20,Mężczyzna,2022-06-11_09h43.09.567,task,2021.1.4,Win32,60.03842459,6299f149e92ead563fba08ef,62a44751b30d3dd6651f6f7d,,,,,,,,,,,,,,,,,,,,,,,,,,,,,,,,,,,,,,,,,,,,,,,,,,,,,,,,,,,,,,,,,,,,,,,,,,,,3,0,3,0,1,,,,,,,,,,,,,,,,,,,,,
,,,,,,,,,,,,613867f34e206e4f573bc6ef,20,Mężczyzna,2022-06-11_09h43.09.567,task,2021.1.4,Win32,60.03842459,6299f149e92ead563fba08ef,62a44751b30d3dd6651f6f7d,,,,,,,,,,,,,,,,,,,,,,,,,,,,,,,,,,,,,,,,,,,,,,,,,,,,,,,,,,,,,,,,,,,,,,,,,,,,,,,,,tkgj,"[""t"",""k"",""g"",""j""]",0,"[1.4952000000477028,1.950700000047675,2.440499999999986,2.7293000000715324,3.6448999999761327]",0,LKGJ,3,0,3,0,1,,,,,,,,,,
,,,,,,,,,,,,613867f34e206e4f573bc6ef,20,Mężczyzna,2022-06-11_09h43.09.567,task,2021.1.4,Win32,60.03842459,6299f149e92ead563fba08ef,62a44751b30d3dd6651f6f7d,,,,,,,,,,,,,,,,,,,,,,,,,,,,,,,,,,,,,,,,,,,,,,,,,,,,,,,,,,,,,,,,,,,,,,,,,,,,,,,,,,,,,,,,,,,,"[""comma""]",0,[1.7218000000715392],0,0,0,0,1,,
,,,,,,,,,,,,613867f34e206e4f573bc6ef,20,Mężczyzna,2022-06-11_09h43.09.567,task,2021.1.4,Win32,60.03842459,6299f149e92ead563fba08ef,62a44751b30d3dd6651f6f7d,,,,,,,,,,,,,,,,,,,,,,,,,,,,,,,,,,,,,,,,,,,,,,,,,,,,,,,,,,,,,,,,,,,,,,,,,,,,,,,,,,,,,,,,,,,,"[""period""]",0,[1.261799999952359],1,0,1,0,1,,
,,,,,,,,,,,,613867f34e206e4f573bc6ef,20,Mężczyzna,2022-06-11_09h43.09.567,task,2021.1.4,Win32,60.03842459,6299f149e92ead563fba08ef,62a44751b30d3dd6651f6f7d,,,,,,,,,,,,,,,,,,,,,,,,,,,,,,,,,,,,,,,,,,,,,,,,,,,,,,,,,,,,,,,,,,,,,,,,,,,,,,,,,,,,,,,,,,,,"[""comma""]",0,[0.7351000000238628],2,0,2,0,1,,
,,,,,,,,,,,,613867f34e206e4f573bc6ef,20,Mężczyzna,2022-06-11_09h43.09.567,task,2021.1.4,Win32,60.03842459,6299f149e92ead563fba08ef,62a44751b30d3dd6651f6f7d,,,,,,,,,,,,,,,,,,,,,,,,,,,,,,,,,,,,,,,,,,,,,,,,,,,,,,,,,,,,,,,,,,,,,,,,,,,,,,,,,,,,,,,,,,,,"[""comma""]",0,[0.8837000000477246],3,0,3,0,1,,
,,,,,,,,,,,,613867f34e206e4f573bc6ef,20,Mężczyzna,2022-06-11_09h43.09.567,task,2021.1.4,Win32,60.03842459,6299f149e92ead563fba08ef,62a44751b30d3dd6651f6f7d,,,,,,,,,,,,,,,,,,,,,,,,,,,,,,,,,,,,,,,,,,,,,,,,,,,,,,,,,,,,,,,,,,,,,,,,,,,,,,,,,,,,,,,,,,,,"[""comma""]",0,[0.7378999999762073],4,0,4,0,1,,
,,,,,,,,,,,,613867f34e206e4f573bc6ef,20,Mężczyzna,2022-06-11_09h43.09.567,task,2021.1.4,Win32,60.03842459,6299f149e92ead563fba08ef,62a44751b30d3dd6651f6f7d,,,,,,,,,,,,,,,,,,,,,,,,,,,,,,,,,,,,,,,,,,,,,,,,,,,,,,,,,,,,,,,,,,,,,,,,,,,,,,,,,,,,,,,,,,,,"[""period""]",0,[0.5799000000954493],5,0,5,0,1,,
,,,,,,,,,,,,613867f34e206e4f573bc6ef,20,Mężczyzna,2022-06-11_09h43.09.567,task,2021.1.4,Win32,60.03842459,6299f149e92ead563fba08ef,62a44751b30d3dd6651f6f7d,,,,,,,,,,,,,,,,,,,,,,,,,,,,,,,,,,,,,,,,,,,,,,,,,,,,,,,,,,,,,,,,,,,,,,,,,,,,,,,,,,,,,,,,,,,,"[""comma""]",0,[0.7793000000715438],6,0,6,0,1,,
,,,,,,,,,,,,613867f34e206e4f573bc6ef,20,Mężczyzna,2022-06-11_09h43.09.567,task,2021.1.4,Win32,60.03842459,6299f149e92ead563fba08ef,62a44751b30d3dd6651f6f7d,,,,,,,,,,,,,,,,,,,,,,,,,,,,,,,,,,,,,,,,,,,,,,,,,,,,,,,,,,,,,,,,,,,,,,,,,,,,,,,,,,,,,,,,,,,,"[""period""]",0,[0.9588000000715056],7,0,7,0,1,,
,,,,,,,,,,,,613867f34e206e4f573bc6ef,20,Mężczyzna,2022-06-11_09h43.09.567,task,2021.1.4,Win32,60.03842459,6299f149e92ead563fba08ef,62a44751b30d3dd6651f6f7d,,,,,,,,,,,,,,,,,,,,,,,,,,,,,,,,,,,,,,,,,,,,,,,,,,,,,,,,,,,,,,,,,,,,,,,,,,,,,,,,,,,,,,,,,,,,"[""comma""]",0,[0.6468999999761991],8,0,8,0,1,,
,,,,,,,,,,,,613867f34e206e4f573bc6ef,20,Mężczyzna,2022-06-11_09h43.09.567,task,2021.1.4,Win32,60.03842459,6299f149e92ead563fba08ef,62a44751b30d3dd6651f6f7d,,,,,,,,,,,,,,,,,,,,,,,,,,,,,,,,,,,,,,,,,,,,,,,,,,,,,,,,,,,,,,,,,,,,,,,,,,,,,,,,,,,,,,,,,,,,"[""comma""]",0,[0.6337999999523163],9,0,9,0,1,,
,,,,,,,,,,,,613867f34e206e4f573bc6ef,20,Mężczyzna,2022-06-11_09h43.09.567,task,2021.1.4,Win32,60.03842459,6299f149e92ead563fba08ef,62a44751b30d3dd6651f6f7d,,,,,,,,,,,,,,,,,,,,,,,,,,,,,,,,,,,,,,,,,,,,,,,,,,,,,,,,,,,,,,,,,,,,,,,,,,,,,,,,,,,,,,,,,,,,"[""comma""]",0,[0.5686999999284126],10,0,10,0,1,,
,,,,,,,,,,,,613867f34e206e4f573bc6ef,20,Mężczyzna,2022-06-11_09h43.09.567,task,2021.1.4,Win32,60.03842459,6299f149e92ead563fba08ef,62a44751b30d3dd6651f6f7d,,,,,,,,,,,,,,,,,,,,,,,,,,,,,,,,,,,,,,,,,,,,,,,,,,,,,,,,,,,,,,,,,,,,,,,,,,,,,,,,,,,,,,,,,,,,"[""comma""]",0,[0.4854000000954102],11,0,11,0,1,,
,,,,,,,,,,,,613867f34e206e4f573bc6ef,20,Mężczyzna,2022-06-11_09h43.09.567,task,2021.1.4,Win32,60.03842459,6299f149e92ead563fba08ef,62a44751b30d3dd6651f6f7d,,,,,,,,,,,,,,,,,,,,,,,,,,,,,,,,,,,,,,,,,,,,,,,,,,,,,,,,,,,,,,,,,,,,,,,,,,,,,,,,,,,,,,,,,,,,"[""comma""]",0,[0.4908999999761363],12,0,12,0,1,,
,,,,,,,,,,,,613867f34e206e4f573bc6ef,20,Mężczyzna,2022-06-11_09h43.09.567,task,2021.1.4,Win32,60.03842459,6299f149e92ead563fba08ef,62a44751b30d3dd6651f6f7d,,,,,,,,,,,,,,,,,,,,,,,,,,,,,,,,,,,,,,,,,,,,,,,,,,,,,,,,,,,,,,,,,,,,,,,,,,,,,,,,,,,,,,,,,,,,"[""period""]",0,[0.4969000000953656],13,0,13,0,1,,
,,,,,,,,,,,,613867f34e206e4f573bc6ef,20,Mężczyzna,2022-06-11_09h43.09.567,task,2021.1.4,Win32,60.03842459,6299f149e92ead563fba08ef,62a44751b30d3dd6651f6f7d,,,,,,,,,,,,,,,,,,,,,,,,,,,,,,,,,,,,,,,,,,,,,,,,,,,,,,,,,,,,,,,,,,,,,,,,,,,,,,,,,,,,,,,,,,,,"[""comma""]",0,[0.45740000009539017],14,0,14,0,1,,
,,,,,,,,,,,,613867f34e206e4f573bc6ef,20,Mężczyzna,2022-06-11_09h43.09.567,task,2021.1.4,Win32,60.03842459,6299f149e92ead563fba08ef,62a44751b30d3dd6651f6f7d,,,,,,,,,,,,,,,,,,,,,,,,,,,,,,,,,,,,,,,,,,,,,,,,,,,,,,,,,,,,,,,,,,,,,,,,,,,,,,,,,,,,,,,,,,,,"[""comma""]",0,[0.383199999928479],15,0,15,0,1,,
,,,,,,,,,,,,613867f34e206e4f573bc6ef,20,Mężczyzna,2022-06-11_09h43.09.567,task,2021.1.4,Win32,60.03842459,6299f149e92ead563fba08ef,62a44751b30d3dd6651f6f7d,,,,,,,,,,,,,,,,,,,,,,,,,,,,,,,,,,,,,,,,,,,,,,,,,,,,,,,,,,,,,,,,,,,,,,,,,,,,,,,,,,,,,,,,,,,,"[""comma""]",0,[0.6696999999285254],16,0,16,0,1,,
,,,,,,,,,,,,613867f34e206e4f573bc6ef,20,Mężczyzna,2022-06-11_09h43.09.567,task,2021.1.4,Win32,60.03842459,6299f149e92ead563fba08ef,62a44751b30d3dd6651f6f7d,,,,,,,,,,,,,,,,,,,,,,,,,,,,,,,,,,,,,,,,,,,,,,,,,,,,,,,,,,,,,,,,,,,,,,,,,,,,,,,,,,,,,,,,,,,,"[""period""]",0,[0.37600000000009004],17,0,17,0,1,,
,,,,,,,,,,,,613867f34e206e4f573bc6ef,20,Mężczyzna,2022-06-11_09h43.09.567,task,2021.1.4,Win32,60.03842459,6299f149e92ead563fba08ef,62a44751b30d3dd6651f6f7d,,,,,,,,,,,,,,,,,,,,,,,,,,,,,,,,,,,,,,,,,,,,,,,,,,,,,,,,,,,,,,,,,,,,,,,,,,,,,,,,,,,,,,,,,,,,"[""period""]",0,[0.38679999995235903],18,0,18,0,1,,
,,,,,,,,,,,,613867f34e206e4f573bc6ef,20,Mężczyzna,2022-06-11_09h43.09.567,task,2021.1.4,Win32,60.03842459,6299f149e92ead563fba08ef,62a44751b30d3dd6651f6f7d,,,,,,,,,,,,,,,,,,,,,,,,,,,,,,,,,,,,,,,,,,,,,,,,,,,,,,,,,,,,,,,,,,,,,,,,,,,,,,,,,,,,,,,,,,,,"[""period""]",0,[0.34319999992851535],19,0,19,0,1,,
,,,,,,,,,,,,613867f34e206e4f573bc6ef,20,Mężczyzna,2022-06-11_09h43.09.567,task,2021.1.4,Win32,60.03842459,6299f149e92ead563fba08ef,62a44751b30d3dd6651f6f7d,,,,,,,,,,,,,,,,,,,,,,,,,,,,,,,,,,,,,,,,,,,,,,,,,,,,,,,,,,,,,,,,,,,,,,,,,,,,,,,,,,,,,,,,,,,,"[""period"",""comma""]",0,"[0.40830000007156286,1.8998999999762418]",20,0,20,0,1,,
,,,,,,,,,,,,613867f34e206e4f573bc6ef,20,Mężczyzna,2022-06-11_09h43.09.567,task,2021.1.4,Win32,60.03842459,6299f149e92ead563fba08ef,62a44751b30d3dd6651f6f7d,,,,,,,,,,,,,,,,,,,,,,,,,,,,,,,,,,,,,,,,,,,,,,,,,,,,,,,,,,,,,,,,,,,,,,,,,,,,,,,,,,,,,,,,,,,,,0,,21,0,21,0,1,,
,,,,,,,,,,,,613867f34e206e4f573bc6ef,20,Mężczyzna,2022-06-11_09h43.09.567,task,2021.1.4,Win32,60.03842459,6299f149e92ead563fba08ef,62a44751b30d3dd6651f6f7d,,,,,,,,,,,,,,,,,,,,,,,,,,,,,,,,,,,,,,,,,,,,,,,,,,,,,,,,,,,,,,,,,,,,,,,,,,,,,,,,,,,,,,,,,,,,"[""comma""]",0,[0.24149999999997362],22,0,22,0,1,,
,,,,,,,,,,,,613867f34e206e4f573bc6ef,20,Mężczyzna,2022-06-11_09h43.09.567,task,2021.1.4,Win32,60.03842459,6299f149e92ead563fba08ef,62a44751b30d3dd6651f6f7d,,,,,,,,,,,,,,,,,,,,,,,,,,,,,,,,,,,,,,,,,,,,,,,,,,,,,,,,,,,,,,,,,,,,,,,,,,,,,,,,,,,,,,,,,,,,"[""comma""]",0,[0.25700000000006185],23,0,23,0,1,,
,,,,,,,,,,,,613867f34e206e4f573bc6ef,20,Mężczyzna,2022-06-11_09h43.09.567,task,2021.1.4,Win32,60.03842459,6299f149e92ead563fba08ef,62a44751b30d3dd6651f6f7d,,,,,,,,,,,,,,,,,,,,,,,,,,,,,,,,,,,,,,,,,,,,,,,,,,,,,,,,,,,,,,,,,,,,,,,,,,,,,,,,,,,,,,,,,,,,"[""comma""]",0,[0.283400000095412],24,0,24,0,1,,
,,,,,,,,,,,,613867f34e206e4f573bc6ef,20,Mężczyzna,2022-06-11_09h43.09.567,task,2021.1.4,Win32,60.03842459,6299f149e92ead563fba08ef,62a44751b30d3dd6651f6f7d,,,,,,,,,,,,,,,,,,,,,,,,,,,,,,,,,,,,,,,,,,,,,,,,,,,,,,,,,,,,,,,,,,,,,,,,,,,,,,,,,,,,,,,,,,,,"[""comma""]",0,[0.27350000000001273],25,0,25,0,1,,
,,,,,,,,,,,,613867f34e206e4f573bc6ef,20,Mężczyzna,2022-06-11_09h43.09.567,task,2021.1.4,Win32,60.03842459,6299f149e92ead563fba08ef,62a44751b30d3dd6651f6f7d,,,,,,,,,,,,,,,,,,,,,,,,,,,,,,,,,,,,,,,,,,,,,,,,,,,,,,,,,,,,,,,,,,,,,,,,,,,,,,,,,,,,,,,,,,,,"[""comma""]",0,[0.2666000000238],26,0,26,0,1,,
,,,,,,,,,,,,613867f34e206e4f573bc6ef,20,Mężczyzna,2022-06-11_09h43.09.567,task,2021.1.4,Win32,60.03842459,6299f149e92ead563fba08ef,62a44751b30d3dd6651f6f7d,,,,,,,,,,,,,,,,,,,,,,,,,,,,,,,,,,,,,,,,,,,,,,,,,,,,,,,,,,,,,,,,,,,,,,,,,,,,,,,,,,,,,,,,,,,,"[""comma""]",0,[0.2865000000000464],27,0,27,0,1,,
,,,,,,,,,,,,613867f34e206e4f573bc6ef,20,Mężczyzna,2022-06-11_09h43.09.567,task,2021.1.4,Win32,60.03842459,6299f149e92ead563fba08ef,62a44751b30d3dd6651f6f7d,,,,,,,,,,,,,,,,,,,,,,,,,,,,,,,,,,,,,,,,,,,,,,,,,,,,,,,,,,,,,,,,,,,,,,,,,,,,,,,,,,,,,,,,,,,,"[""period""]",0,[0.2665000000000646],28,0,28,0,1,,
,,,,,,,,,,,,613867f34e206e4f573bc6ef,20,Mężczyzna,2022-06-11_09h43.09.567,task,2021.1.4,Win32,60.03842459,6299f149e92ead563fba08ef,62a44751b30d3dd6651f6f7d,,,,,,,,,,,,,,,,,,,,,,,,,,,,,,,,,,,,,,,,,,,,,,,,,,,,,,,,,,,,,,,,,,,,,,,,,,,,,,,,,,,,,,,,,,,,"[""period""]",0,[0.25810000002377365],29,0,29,0,1,,
,,,,,,,,,,,,613867f34e206e4f573bc6ef,20,Mężczyzna,2022-06-11_09h43.09.567,task,2021.1.4,Win32,60.03842459,6299f149e92ead563fba08ef,62a44751b30d3dd6651f6f7d,,,,,,,,,,,,,,,,,,,,,,,,,,,,,,,,,,,,,,,,,,,,,,,,,,,,,,,,,,,,,,,,,,,,,,,,,,,,,,,,,,,,,,,,,,,,"[""period""]",0,[0.06890000009536834],30,0,30,0,1,,
,,,,,,,,,,,,613867f34e206e4f573bc6ef,20,Mężczyzna,2022-06-11_09h43.09.567,task,2021.1.4,Win32,60.03842459,6299f149e92ead563fba08ef,62a44751b30d3dd6651f6f7d,,,,,,,,,,,,,,,,,,,,,,,,,,,,,,,,,,,,,,,,,,,,,,,,,,,,,,,,,,,,,,,,,,,,,,,,,,,,,,,,,,,,,,,,,,,,"[""comma""]",0,[0.23580000007143553],31,0,31,0,1,,
,,,,,,,,,,,,613867f34e206e4f573bc6ef,20,Mężczyzna,2022-06-11_09h43.09.567,task,2021.1.4,Win32,60.03842459,6299f149e92ead563fba08ef,62a44751b30d3dd6651f6f7d,,,,,,,,,,,,,,,,,,,,,,,,,,,,,,,,,,,,,,,,,,,,,,,,,,,,,,,,,,,,,,,,,,,,,,,,,,,,,,,,,,,,,,,,,,,,"[""period""]",0,[0.1169999999999618],32,0,32,0,1,,
,,,,,,,,,,,,613867f34e206e4f573bc6ef,20,Mężczyzna,2022-06-11_09h43.09.567,task,2021.1.4,Win32,60.03842459,6299f149e92ead563fba08ef,62a44751b30d3dd6651f6f7d,,,,,,,,,,,,,,,,,,,,,,,,,,,,,,,,,,,,,,,,,,,,,,,,,,,,,,,,,,,,,,,,,,,,,,,,,,,,,,,,,,,,,,,,,,,,"[""comma""]",0,[0.23789999997609357],33,0,33,0,1,,
,,,,,,,,,,,,613867f34e206e4f573bc6ef,20,Mężczyzna,2022-06-11_09h43.09.567,task,2021.1.4,Win32,60.03842459,6299f149e92ead563fba08ef,62a44751b30d3dd6651f6f7d,,,,,,,,,,,,,,,,,,,,,,,,,,,,,,,,,,,,,,,,,,,,,,,,,,,,,,,,,,,,,,,,,,,,,,,,,,,,,,,,,,,,,,,,,,,,"[""comma""]",0,[0.28870000004769736],34,0,34,0,1,,
,,,,,,,,,,,,613867f34e206e4f573bc6ef,20,Mężczyzna,2022-06-11_09h43.09.567,task,2021.1.4,Win32,60.03842459,6299f149e92ead563fba08ef,62a44751b30d3dd6651f6f7d,,,,,,,,,,,,,,,,,,,,,,,,,,,,,,,,,,,,,,,,,,,,,,,,,,,,,,,,,,,,,,,,,,,,,,,,,,,,,,,,,,,,,,,,,,,,"[""comma""]",0,[0.26979999995239723],35,0,35,0,1,,
,,,,,,,,,,,,613867f34e206e4f573bc6ef,20,Mężczyzna,2022-06-11_09h43.09.567,task,2021.1.4,Win32,60.03842459,6299f149e92ead563fba08ef,62a44751b30d3dd6651f6f7d,,,,,,,,,,,,,,,,,,,,,,,,,,,,,,,,,,,,,,,,,,,,,,,,,,,,,,,,,,,,,,,,,,,,,,,,,,,,,,,,,,,,,,,,,,,,"[""comma""]",0,[0.43449999999995725],36,0,36,0,1,,
,,,,,,,,,,,,613867f34e206e4f573bc6ef,20,Mężczyzna,2022-06-11_09h43.09.567,task,2021.1.4,Win32,60.03842459,6299f149e92ead563fba08ef,62a44751b30d3dd6651f6f7d,,,,,,,,,,,,,,,,,,,,,,,,,,,,,,,,,,,,,,,,,,,,,,,,,,,,,,,,,,,,,,,,,,,,,,,,,,,,,,,,,,,,,,,,,,,,"[""period""]",0,[0.2839999999999918],37,0,37,0,1,,
,,,,,,,,,,,,613867f34e206e4f573bc6ef,20,Mężczyzna,2022-06-11_09h43.09.567,task,2021.1.4,Win32,60.03842459,6299f149e92ead563fba08ef,62a44751b30d3dd6651f6f7d,,,,,,,,,,,,,,,,,,,,,,,,,,,,,,,,,,,,,,,,,,,,,,,,,,,,,,,,,,,,,,,,,,,,,,,,,,,,,,,,,,,,,,,,,,,,"[""period""]",0,[0.22749999999996362],38,0,38,0,1,,
,,,,,,,,,,,,613867f34e206e4f573bc6ef,20,Mężczyzna,2022-06-11_09h43.09.567,task,2021.1.4,Win32,60.03842459,6299f149e92ead563fba08ef,62a44751b30d3dd6651f6f7d,,,,,,,,,,,,,,,,,,,,,,,,,,,,,,,,,,,,,,,,,,,,,,,,,,,,,,,,,,,,,,,,,,,,,,,,,,,,,,,,,,,,,,,,,,,,"[""comma""]",0,[0.16789999997615723],39,0,39,0,1,,
,,,,,,,,,,,,613867f34e206e4f573bc6ef,20,Mężczyzna,2022-06-11_09h43.09.567,task,2021.1.4,Win32,60.03842459,6299f149e92ead563fba08ef,62a44751b30d3dd6651f6f7d,,,,,,,,,,,,,,,,,,,,,,,,,,,,,,,,,,,,,,,,,,,,,,,,,,,,,,,,,,,,,,,,,,,,,,,,,,,,,,,,,,,,,,,,,,,,"[""comma""]",0,[0.2508999999761272],40,0,40,0,1,,
,,,,,,,,,,,,613867f34e206e4f573bc6ef,20,Mężczyzna,2022-06-11_09h43.09.567,task,2021.1.4,Win32,60.03842459,6299f149e92ead563fba08ef,62a44751b30d3dd6651f6f7d,,,,,,,,,,,,,,,,,,,,,,,,,,,,,,,,,,,,,,,,,,,,,,,,,,,,,,,,,,,,,,,,,,,,,,,,,,,,,,,,,,,,,,,,,,,,"[""comma""]",0,[0.23450000000002547],41,0,41,0,1,,
,,,,,,,,,,,,613867f34e206e4f573bc6ef,20,Mężczyzna,2022-06-11_09h43.09.567,task,2021.1.4,Win32,60.03842459,6299f149e92ead563fba08ef,62a44751b30d3dd6651f6f7d,,,,,,,,,,,,,,,,,,,,,,,,,,,,,,,,,,,,,,,,,,,,,,,,,,,,,,,,,,,,,,,,,,,,,,,,,,,,,,,,,,,,,,,,,,,,"[""comma""]",0,[0.23679999995238177],42,0,42,0,1,,
,,,,,,,,,,,,613867f34e206e4f573bc6ef,20,Mężczyzna,2022-06-11_09h43.09.567,task,2021.1.4,Win32,60.03842459,6299f149e92ead563fba08ef,62a44751b30d3dd6651f6f7d,,,,,,,,,,,,,,,,,,,,,,,,,,,,,,,,,,,,,,,,,,,,,,,,,,,,,,,,,,,,,,,,,,,,,,,,,,,,,,,,,,,,,,,,,,,,"[""comma""]",0,[0.25119999992841713],43,0,43,0,1,,
,,,,,,,,,,,,613867f34e206e4f573bc6ef,20,Mężczyzna,2022-06-11_09h43.09.567,task,2021.1.4,Win32,60.03842459,6299f149e92ead563fba08ef,62a44751b30d3dd6651f6f7d,,,,,,,,,,,,,,,,,,,,,,,,,,,,,,,,,,,,,,,,,,,,,,,,,,,,,,,,,,,,,,,,,,,,,,,,,,,,,,,,,,,,,,,,,,,,"[""period""]",0,[0.23479999995231537],44,0,44,0,1,,
,,,,,,,,,,,,613867f34e206e4f573bc6ef,20,Mężczyzna,2022-06-11_09h43.09.567,task,2021.1.4,Win32,60.03842459,6299f149e92ead563fba08ef,62a44751b30d3dd6651f6f7d,,,,,,,,,,,,,,,,,,,,,,,,,,,,,,,,,,,,,,,,,,,,,,,,,,,,,,,,,,,,,,,,,,,,,,,,,,,,,,,,,,,,,,,,,,,,"[""period""]",0,[0.4087000000477019],45,0,45,0,1,,
,,,,,,,,,,,,613867f34e206e4f573bc6ef,20,Mężczyzna,2022-06-11_09h43.09.567,task,2021.1.4,Win32,60.03842459,6299f149e92ead563fba08ef,62a44751b30d3dd6651f6f7d,,,,,,,,,,,,,,,,,,,,,,,,,,,,,,,,,,,,,,,,,,,,,,,,,,,,,,,,,,,,,,,,,,,,,,,,,,,,,,,,,,,,,,,,,,,,"[""period""]",0,[0.3843999999761536],46,0,46,0,1,,
,,,,,,,,,,,,613867f34e206e4f573bc6ef,20,Mężczyzna,2022-06-11_09h43.09.567,task,2021.1.4,Win32,60.03842459,6299f149e92ead563fba08ef,62a44751b30d3dd6651f6f7d,,,,,,,,,,,,,,,,,,,,,,,,,,,,,,,,,,,,,,,,,,,,,,,,,,,,,,,,,,,,,,,,,,,,,,,,,,,,,,,,,,,,,,,,,,,,"[""period""]",0,[0.27130000007150556],47,0,47,0,1,,
,,,,,,,,,,,,613867f34e206e4f573bc6ef,20,Mężczyzna,2022-06-11_09h43.09.567,task,2021.1.4,Win32,60.03842459,6299f149e92ead563fba08ef,62a44751b30d3dd6651f6f7d,,,,,,,,,,,,,,,,,,,,,,,,,,,,,,,,,,,,,,,,,,,,,,,,,,,,,,,,,,,,,,,,,,,,,,,,,,,,,,,,,,,,,,,,,,,,"[""period""]",0,[0.28439999997613086],48,0,48,0,1,,
,,,,,,,,,,,,613867f34e206e4f573bc6ef,20,Mężczyzna,2022-06-11_09h43.09.567,task,2021.1.4,Win32,60.03842459,6299f149e92ead563fba08ef,62a44751b30d3dd6651f6f7d,,,,,,,,,,,,,,,,,,,,,,,,,,,,,,,,,,,,,,,,,,,,,,,,,,,,,,,,,,,,,,,,,,,,,,,,,,,,,,,,,,,,,,,,,,,,"[""period""]",0,[0.27360000002386187],49,0,49,0,1,,
,,,,,,,,,,,,613867f34e206e4f573bc6ef,20,Mężczyzna,2022-06-11_09h43.09.567,task,2021.1.4,Win32,60.03842459,6299f149e92ead563fba08ef,62a44751b30d3dd6651f6f7d,,,,,,,,,,,,,,,,,,,,,,,,,,,,,,,,,,,,,,,,,,,,,,,,,,,,,,,,,,,,,,,,,,,,,,,,,,,,,,,,,,,,,,,,,,,,"[""comma""]",0,[0.23389999997607447],50,0,50,0,1,,
,,,,,,,,,,,,613867f34e206e4f573bc6ef,20,Mężczyzna,2022-06-11_09h43.09.567,task,2021.1.4,Win32,60.03842459,6299f149e92ead563fba08ef,62a44751b30d3dd6651f6f7d,,,,,,,,,,,,,,,,,,,,,,,,,,,,,,,,,,,,,,,,,,,,,,,,,,,,,,,,,,,,,,,,,,,,,,,,,,,,,,,,,,,,,,,,,,,,"[""comma""]",0,[0.2339999999999236],51,0,51,0,1,,
,,,,,,,,,,,,613867f34e206e4f573bc6ef,20,Mężczyzna,2022-06-11_09h43.09.567,task,2021.1.4,Win32,60.03842459,6299f149e92ead563fba08ef,62a44751b30d3dd6651f6f7d,,,,,,,,,,,,,,,,,,,,,,,,,,,,,,,,,,,,,,,,,,,,,,,,,,,,,,,,,,,,,,,,,,,,,,,,,,,,,,,,,,,,,,,,,,,,"[""period""]",0,[0.26189999997620816],52,0,52,0,1,,
,,,,,,,,,,,,613867f34e206e4f573bc6ef,20,Mężczyzna,2022-06-11_09h43.09.567,task,2021.1.4,Win32,60.03842459,6299f149e92ead563fba08ef,62a44751b30d3dd6651f6f7d,,,,,,,,,,,,,,,,,,,,,,,,,,,,,,,,,,,,,,,,,,,,,,,,,,,,,,,,,,,,,,,,,,,,,,,,,,,,,,,,,,,,,,,,,,,,"[""comma""]",0,[0.28489999997611903],53,0,53,0,1,,
,,,,,,,,,,,,613867f34e206e4f573bc6ef,20,Mężczyzna,2022-06-11_09h43.09.567,task,2021.1.4,Win32,60.03842459,6299f149e92ead563fba08ef,62a44751b30d3dd6651f6f7d,,,,,,,,,,,,,,,,,,,,,,,,,,,,,,,,,,,,,,,,,,,,,,,,,,,,,,,,,,,,,,,,,,,,,,,,,,,,,,,,,,,,,,,,,,,,"[""period""]",0,[0.11770000004764825],54,0,54,0,1,,
,,,,,,,,,,,,613867f34e206e4f573bc6ef,20,Mężczyzna,2022-06-11_09h43.09.567,task,2021.1.4,Win32,60.03842459,6299f149e92ead563fba08ef,62a44751b30d3dd6651f6f7d,,,,,,,,,,,,,,,,,,,,,,,,,,,,,,,,,,,,,,,,,,,,,,,,,,,,,,,,,,,,,,,,,,,,,,,,,,,,,,,,,,,,,,,,,,,,"[""comma""]",0,[0.13379999995231628],55,0,55,0,1,,
,,,,,,,,,,,,613867f34e206e4f573bc6ef,20,Mężczyzna,2022-06-11_09h43.09.567,task,2021.1.4,Win32,60.03842459,6299f149e92ead563fba08ef,62a44751b30d3dd6651f6f7d,,,,,,,,,,,,,,,,,,,,,,,,,,,,,,,,,,,,,,,,,,,,,,,,,,,,,,,,,,,,,,,,,,,,,,,,,,,,,,,,,,,,,,,,,,,,"[""period""]",0,[0.11760000002379911],56,0,56,0,1,,
,,,,,,,,,,,,613867f34e206e4f573bc6ef,20,Mężczyzna,2022-06-11_09h43.09.567,task,2021.1.4,Win32,60.03842459,6299f149e92ead563fba08ef,62a44751b30d3dd6651f6f7d,,,,,,,,,,,,,,,,,,,,,,,,,,,,,,,,,,,,,,,,,,,,,,,,,,,,,,,,,,,,,,,,,,,,,,,,,,,,,,,,,,,,,,,,,,,,"[""comma""]",0,[0.25079999995239177],57,0,57,0,1,,
,,,,,,,,,,,,613867f34e206e4f573bc6ef,20,Mężczyzna,2022-06-11_09h43.09.567,task,2021.1.4,Win32,60.03842459,6299f149e92ead563fba08ef,62a44751b30d3dd6651f6f7d,,,,,,,,,,,,,,,,,,,,,,,,,,,,,,,,,,,,,,,,,,,,,,,,,,,,,,,,,,,,,,,,,,,,,,,,,,,,,,,,,,,,,,,,,,,,"[""period""]",0,[0.28710000002377],58,0,58,0,1,,
,,,,,,,,,,,,613867f34e206e4f573bc6ef,20,Mężczyzna,2022-06-11_09h43.09.567,task,2021.1.4,Win32,60.03842459,6299f149e92ead563fba08ef,62a44751b30d3dd6651f6f7d,,,,,,,,,,,,,,,,,,,,,,,,,,,,,,,,,,,,,,,,,,,,,,,,,,,,,,,,,,,,,,,,,,,,,,,,,,,,,,,,,,,,,,,,,,,,"[""comma""]",0,[0.26760000002389006],59,0,59,0,1,,
,,,,,,,,,,,,613867f34e206e4f573bc6ef,20,Mężczyzna,2022-06-11_09h43.09.567,task,2021.1.4,Win32,60.03842459,6299f149e92ead563fba08ef,62a44751b30d3dd6651f6f7d,,,,,,,,,,,,,,,,,,,,,,,,,,,,,,,,,,,,,,,,,,,,,,,,,,,,,,,,,,,,,,,,,,,,,,,,,,,,,,,,,,,,,,,,,,,,"[""period""]",0,[0.16000000000008185],60,0,60,0,1,,
,,,,,,,,,,,,613867f34e206e4f573bc6ef,20,Mężczyzna,2022-06-11_09h43.09.567,task,2021.1.4,Win32,60.03842459,6299f149e92ead563fba08ef,62a44751b30d3dd6651f6f7d,,,,,,,,,,,,,,,,,,,,,,,,,,,,,,,,,,,,,,,,,,,,,,,,,,,,,,,,,,,,,,,,,,,,,,,,,,,,,,,,,,,,,,,,,,,,"[""comma""]",0,[0.13429999995230446],61,0,61,0,1,,
,,,,,,,,,,,,613867f34e206e4f573bc6ef,20,Mężczyzna,2022-06-11_09h43.09.567,task,2021.1.4,Win32,60.03842459,6299f149e92ead563fba08ef,62a44751b30d3dd6651f6f7d,,,,,,,,,,,,,,,,,,,,,,,,,,,,,,,,,,,,,,,,,,,,,,,,,,,,,,,,,,,,,,,,,,,,,,,,,,,,,,,,,,,,,,,,,,,,"[""comma""]",0,[0.23439999997617633],62,0,62,0,1,,
,,,,,,,,,,,,613867f34e206e4f573bc6ef,20,Mężczyzna,2022-06-11_09h43.09.567,task,2021.1.4,Win32,60.03842459,6299f149e92ead563fba08ef,62a44751b30d3dd6651f6f7d,,,,,,,,,,,,,,,,,,,,,,,,,,,,,,,,,,,,,,,,,,,,,,,,,,,,,,,,,,,,,,,,,,,,,,,,,,,,,,,,,,,,,,,,,,,,"[""period""]",0,[0.3619000000953747],63,0,63,0,1,,
,,,,,,,,,,,,613867f34e206e4f573bc6ef,20,Mężczyzna,2022-06-11_09h43.09.567,task,2021.1.4,Win32,60.03842459,6299f149e92ead563fba08ef,62a44751b30d3dd6651f6f7d,,,,,,,,,,,,,,,,,,,,,,,,,,,,,,,,,,,,,,,,,,,,,,,,,,,,,,,,,,,,,,,,,,,,,,,,,,,,,,,,,,,,,,,,,,,,"[""period""]",0,[0.23450000000002547],64,0,64,0,1,,
,,,,,,,,,,,,613867f34e206e4f573bc6ef,20,Mężczyzna,2022-06-11_09h43.09.567,task,2021.1.4,Win32,60.03842459,6299f149e92ead563fba08ef,62a44751b30d3dd6651f6f7d,,,,,,,,,,,,,,,,,,,,,,,,,,,,,,,,,,,,,,,,,,,,,,,,,,,,,,,,,,,,,,,,,,,,,,,,,,,,,,,,,,,,,,,,,,,,"[""comma""]",0,[0.2796000000238337],65,0,65,0,1,,
,,,,,,,,,,,,613867f34e206e4f573bc6ef,20,Mężczyzna,2022-06-11_09h43.09.567,task,2021.1.4,Win32,60.03842459,6299f149e92ead563fba08ef,62a44751b30d3dd6651f6f7d,,,,,,,,,,,,,,,,,,,,,,,,,,,,,,,,,,,,,,,,,,,,,,,,,,,,,,,,,,,,,,,,,,,,,,,,,,,,,,,,,,,,,,,,,,,,"[""comma""]",0,[0.3051000000237991],66,0,66,0,1,,
,,,,,,,,,,,,613867f34e206e4f573bc6ef,20,Mężczyzna,2022-06-11_09h43.09.567,task,2021.1.4,Win32,60.03842459,6299f149e92ead563fba08ef,62a44751b30d3dd6651f6f7d,,,,,,,,,,,,,,,,,,,,,,,,,,,,,,,,,,,,,,,,,,,,,,,,,,,,,,,,,,,,,,,,,,,,,,,,,,,,,,,,,,,,,,,,,,,,"[""period""]",0,[0.16739999997616906],67,0,67,0,1,,
,,,,,,,,,,,,613867f34e206e4f573bc6ef,20,Mężczyzna,2022-06-11_09h43.09.567,task,2021.1.4,Win32,60.03842459,6299f149e92ead563fba08ef,62a44751b30d3dd6651f6f7d,,,,,,,,,,,,,,,,,,,,,,,,,,,,,,,,,,,,,,,,,,,,,,,,,,,,,,,,,,,,,,,,,,,,,,,,,,,,,,,,,,,,,,,,,,,,"[""period""]",0,[0.08429999995223625],68,0,68,0,1,,
,,,,,,,,,,,,613867f34e206e4f573bc6ef,20,Mężczyzna,2022-06-11_09h43.09.567,task,2021.1.4,Win32,60.03842459,6299f149e92ead563fba08ef,62a44751b30d3dd6651f6f7d,,,,,,,,,,,,,,,,,,,,,,,,,,,,,,,,,,,,,,,,,,,,,,,,,,,,,,,,,,,,,,,,,,,,,,,,,,,,,,,,,,,,,,,,,,,,"[""comma""]",0,[0.3507999999523008],69,0,69,0,1,,
,,,,,,,,,,,,613867f34e206e4f573bc6ef,20,Mężczyzna,2022-06-11_09h43.09.567,task,2021.1.4,Win32,60.03842459,6299f149e92ead563fba08ef,62a44751b30d3dd6651f6f7d,,,,,,,,,,,,,,,,,,,,,,,,,,,,,,,,,,,,,,,,,,,,,,,,,,,,,,,,,,,,,,,,,,,,,,,,,,,,,,,,,,,,,,,,,,,,"[""comma""]",0,[0.26749999999992724],70,0,70,0,1,,
,,,,,,,,,,,,613867f34e206e4f573bc6ef,20,Mężczyzna,2022-06-11_09h43.09.567,task,2021.1.4,Win32,60.03842459,6299f149e92ead563fba08ef,62a44751b30d3dd6651f6f7d,,,,,,,,,,,,,,,,,,,,,,,,,,,,,,,,,,,,,,,,,,,,,,,,,,,,,,,,,,,,,,,,,,,,,,,,,,,,,,,,,,,,,,,,,,,,"[""comma""]",0,[0.2009000000953165],71,0,71,0,1,,
,,,,,,,,,,,,613867f34e206e4f573bc6ef,20,Mężczyzna,2022-06-11_09h43.09.567,task,2021.1.4,Win32,60.03842459,6299f149e92ead563fba08ef,62a44751b30d3dd6651f6f7d,,,,,,,,,,,,,,,,,,,,,,,,,,,,,,,,,,,,,,,,,,,,,,,,,,,,,,,,,,,,,,,,,,,,,,,,,,,,,,,,,,,,,,,,,,,,"[""period""]",0,[0.18530000007149283],72,0,72,0,1,,
,,,,,,,,,,,,613867f34e206e4f573bc6ef,20,Mężczyzna,2022-06-11_09h43.09.567,task,2021.1.4,Win32,60.03842459,6299f149e92ead563fba08ef,62a44751b30d3dd6651f6f7d,,,,,,,,,,,,,,,,,,,,,,,,,,,,,,,,,,,,,,,,,,,,,,,,,,,,,,,,,,,,,,,,,,,,,,,,,,,,,,,,,,,,,,,,,,,,"[""period""]",0,[0.0511000000238937],73,0,73,0,1,,
,,,,,,,,,,,,613867f34e206e4f573bc6ef,20,Mężczyzna,2022-06-11_09h43.09.567,task,2021.1.4,Win32,60.03842459,6299f149e92ead563fba08ef,62a44751b30d3dd6651f6f7d,,,,,,,,,,,,,,,,,,,,,,,,,,,,,,,,,,,,,,,,,,,,,,,,,,,,,,,,,,,,,,,,,,,,,,,,,,,,,,,,,,,,,,,,,,,,"[""period""]",0,[0.13430000007144827],74,0,74,0,1,,
,,,,,,,,,,,,613867f34e206e4f573bc6ef,20,Mężczyzna,2022-06-11_09h43.09.567,task,2021.1.4,Win32,60.03842459,6299f149e92ead563fba08ef,62a44751b30d3dd6651f6f7d,,,,,,,,,,,,,,,,,,,,,,,,,,,,,,,,,,,,,,,,,,,,,,,,,,,,,,,,,,,,,,,,,,,,,,,,,,,,,,,,,,,,,,,,,,,,"[""comma""]",0,[0.23419999992847806],75,0,75,0,1,,
,,,,,,,,,,,,613867f34e206e4f573bc6ef,20,Mężczyzna,2022-06-11_09h43.09.567,task,2021.1.4,Win32,60.03842459,6299f149e92ead563fba08ef,62a44751b30d3dd6651f6f7d,,,,,,,,,,,,,,,,,,,,,,,,,,,,,,,,,,,,,,,,,,,,,,,,,,,,,,,,,,,,,,,,,,,,,,,,,,,,,,,,,,,,,,,,,,,,"[""period""]",0,[0.1253000000715474],76,0,76,0,1,,
,,,,,,,,,,,,613867f34e206e4f573bc6ef,20,Mężczyzna,2022-06-11_09h43.09.567,task,2021.1.4,Win32,60.03842459,6299f149e92ead563fba08ef,62a44751b30d3dd6651f6f7d,,,,,,,,,,,,,,,,,,,,,,,,,,,,,,,,,,,,,,,,,,,,,,,,,,,,,,,,,,,,,,,,,,,,,,,,,,,,,,,,,,,,,,,,,,,,"[""comma""]",0,[0.2459999999999809],77,0,77,0,1,,
,,,,,,,,,,,,613867f34e206e4f573bc6ef,20,Mężczyzna,2022-06-11_09h43.09.567,task,2021.1.4,Win32,60.03842459,6299f149e92ead563fba08ef,62a44751b30d3dd6651f6f7d,,,,,,,,,,,,,,,,,,,,,,,,,,,,,,,,,,,,,,,,,,,,,,,,,,,,,,,,,,,,,,,,,,,,,,,,,,,,,,,,,,,,,,,,,,,,"[""comma""]",0,[0.07010000002389916],78,0,78,0,1,,
,,,,,,,,,,,,613867f34e206e4f573bc6ef,20,Mężczyzna,2022-06-11_09h43.09.567,task,2021.1.4,Win32,60.03842459,6299f149e92ead563fba08ef,62a44751b30d3dd6651f6f7d,,,,,,,,,,,,,,,,,,,,,,,,,,,,,,,,,,,,,,,,,,,,,,,,,,,,,,,,,,,,,,,,,,,,,,,,,,,,,,,,,,,,,,,,,,,,"[""period"",""period""]",0,"[0.1233000000715947,1.9338000000715283]",79,0,79,0,1,,
,,,,,,,,,,,,613867f34e206e4f573bc6ef,20,Mężczyzna,2022-06-11_09h43.09.567,task,2021.1.4,Win32,60.03842459,6299f149e92ead563fba08ef,62a44751b30d3dd6651f6f7d,,,,,,,,,,,,,,,,,,,,,,,,,,,,,,,,,,,,,,,,,,,,,,,,,,,,,,,,,,,,,,,,,,,,,,,,,,,,,,,,,,,,,,,,,,,,,0,,80,0,80,0,1,,
,,,,,,,,,,,,613867f34e206e4f573bc6ef,20,Mężczyzna,2022-06-11_09h43.09.567,task,2021.1.4,Win32,60.03842459,6299f149e92ead563fba08ef,62a44751b30d3dd6651f6f7d,,,,,,,,,,,,,,,,,,,,,,,,,,,,,,,,,,,,,,,,,,,,,,,,,,,,,,,,,,,,,,,,,,,,,,,,,,,,,,,,,,,,,,,,,,,,"[""comma""]",0,[0.22500000000002274],81,0,81,0,1,,
,,,,,,,,,,,,613867f34e206e4f573bc6ef,20,Mężczyzna,2022-06-11_09h43.09.567,task,2021.1.4,Win32,60.03842459,6299f149e92ead563fba08ef,62a44751b30d3dd6651f6f7d,,,,,,,,,,,,,,,,,,,,,,,,,,,,,,,,,,,,,,,,,,,,,,,,,,,,,,,,,,,,,,,,,,,,,,,,,,,,,,,,,,,,,,,,,,,,"[""period""]",0,[0.15089999997621817],82,0,82,0,1,,
,,,,,,,,,,,,613867f34e206e4f573bc6ef,20,Mężczyzna,2022-06-11_09h43.09.567,task,2021.1.4,Win32,60.03842459,6299f149e92ead563fba08ef,62a44751b30d3dd6651f6f7d,,,,,,,,,,,,,,,,,,,,,,,,,,,,,,,,,,,,,,,,,,,,,,,,,,,,,,,,,,,,,,,,,,,,,,,,,,,,,,,,,,,,,,,,,,,,"[""comma""]",0,[0.27730000007159106],83,0,83,0,1,,
,,,,,,,,,,,,613867f34e206e4f573bc6ef,20,Mężczyzna,2022-06-11_09h43.09.567,task,2021.1.4,Win32,60.03842459,6299f149e92ead563fba08ef,62a44751b30d3dd6651f6f7d,,,,,,,,,,,,,,,,,,,,,,,,,,,,,,,,,,,,,,,,,,,,,,,,,,,,,,,,,,,,,,,,,,,,,,,,,,,,,,,,,,,,,,,,,,,,"[""period""]",0,[0.08849999999995362],84,0,84,0,1,,
,,,,,,,,,,,,613867f34e206e4f573bc6ef,20,Mężczyzna,2022-06-11_09h43.09.567,task,2021.1.4,Win32,60.03842459,6299f149e92ead563fba08ef,62a44751b30d3dd6651f6f7d,,,,,,,,,,,,,,,,,,,,,,,,,,,,,,,,,,,,,,,,,,,,,,,,,,,,,,,,,,,,,,,,,,,,,,,,,,,,,,,,,,,,,,,,,,,,"[""comma""]",0,[0.22980000007146373],85,0,85,0,1,,
,,,,,,,,,,,,613867f34e206e4f573bc6ef,20,Mężczyzna,2022-06-11_09h43.09.567,task,2021.1.4,Win32,60.03842459,6299f149e92ead563fba08ef,62a44751b30d3dd6651f6f7d,,,,,,,,,,,,,,,,,,,,,,,,,,,,,,,,,,,,,,,,,,,,,,,,,,,,,,,,,,,,,,,,,,,,,,,,,,,,,,,,,,,,,,,,,,,,"[""comma""]",0,[0.2212000000477019],86,0,86,0,1,,
,,,,,,,,,,,,613867f34e206e4f573bc6ef,20,Mężczyzna,2022-06-11_09h43.09.567,task,2021.1.4,Win32,60.03842459,6299f149e92ead563fba08ef,62a44751b30d3dd6651f6f7d,,,,,,,,,,,,,,,,,,,,,,,,,,,,,,,,,,,,,,,,,,,,,,,,,,,,,,,,,,,,,,,,,,,,,,,,,,,,,,,,,,,,,,,,,,,,"[""period""]",0,[0.22069999992845624],87,0,87,0,1,,
,,,,,,,,,,,,613867f34e206e4f573bc6ef,20,Mężczyzna,2022-06-11_09h43.09.567,task,2021.1.4,Win32,60.03842459,6299f149e92ead563fba08ef,62a44751b30d3dd6651f6f7d,,,,,,,,,,,,,,,,,,,,,,,,,,,,,,,,,,,,,,,,,,,,,,,,,,,,,,,,,,,,,,,,,,,,,,,,,,,,,,,,,,,,,,,,,,,,"[""period""]",0,[0.2006000000237691],88,0,88,0,1,,
,,,,,,,,,,,,613867f34e206e4f573bc6ef,20,Mężczyzna,2022-06-11_09h43.09.567,task,2021.1.4,Win32,60.03842459,6299f149e92ead563fba08ef,62a44751b30d3dd6651f6f7d,,,,,,,,,,,,,,,,,,,,,,,,,,,,,,,,,,,,,,,,,,,,,,,,,,,,,,,,,,,,,,,,,,,,,,,,,,,,,,,,,,,,,,,,,,,,"[""comma"",""comma""]",0,"[0.05929999995237267,1.9176000000238673]",89,0,89,0,1,,
,,,,,,,,,,,,613867f34e206e4f573bc6ef,20,Mężczyzna,2022-06-11_09h43.09.567,task,2021.1.4,Win32,60.03842459,6299f149e92ead563fba08ef,62a44751b30d3dd6651f6f7d,,,,,,,,,,,,,,,,,,,,,,,,,,,,,,,,,,,,,,,,,,,,,,,,,,,,,,,,,,,,,,,,,,,,,,,,,,,,,,,,,,,,,,,,,,,,,0,,90,0,90,0,1,,
,,,,,,,,,,,,613867f34e206e4f573bc6ef,20,Mężczyzna,2022-06-11_09h43.09.567,task,2021.1.4,Win32,60.03842459,6299f149e92ead563fba08ef,62a44751b30d3dd6651f6f7d,,,,,,,,,,,,,,,,,,,,,,,,,,,,,,,,,,,,,,,,,,,,,,,,,,,,,,,,,,,,,,,,,,,,,,,,,,,,,,,,,,,,,,,,,,,,"[""period""]",0,[0.14490000009527648],91,0,91,0,1,,
,,,,,,,,,,,,613867f34e206e4f573bc6ef,20,Mężczyzna,2022-06-11_09h43.09.567,task,2021.1.4,Win32,60.03842459,6299f149e92ead563fba08ef,62a44751b30d3dd6651f6f7d,,,,,,,,,,,,,,,,,,,,,,,,,,,,,,,,,,,,,,,,,,,,,,,,,,,,,,,,,,,,,,,,,,,,,,,,,,,,,,,,,,,,,,,,,,,,"[""period""]",0,[0.07090000009532105],92,0,92,0,1,,
,,,,,,,,,,,,613867f34e206e4f573bc6ef,20,Mężczyzna,2022-06-11_09h43.09.567,task,2021.1.4,Win32,60.03842459,6299f149e92ead563fba08ef,62a44751b30d3dd6651f6f7d,,,,,,,,,,,,,,,,,,,,,,,,,,,,,,,,,,,,,,,,,,,,,,,,,,,,,,,,,,,,,,,,,,,,,,,,,,,,,,,,,,,,,,,,,,,,"[""comma""]",0,[0.05230000007145463],93,0,93,0,1,,
,,,,,,,,,,,,613867f34e206e4f573bc6ef,20,Mężczyzna,2022-06-11_09h43.09.567,task,2021.1.4,Win32,60.03842459,6299f149e92ead563fba08ef,62a44751b30d3dd6651f6f7d,,,,,,,,,,,,,,,,,,,,,,,,,,,,,,,,,,,,,,,,,,,,,,,,,,,,,,,,,,,,,,,,,,,,,,,,,,,,,,,,,,,,,,,,,,,,"[""comma""]",0,[0.19299999999998363],94,0,94,0,1,,
,,,,,,,,,,,,613867f34e206e4f573bc6ef,20,Mężczyzna,2022-06-11_09h43.09.567,task,2021.1.4,Win32,60.03842459,6299f149e92ead563fba08ef,62a44751b30d3dd6651f6f7d,,,,,,,,,,,,,,,,,,,,,,,,,,,,,,,,,,,,,,,,,,,,,,,,,,,,,,,,,,,,,,,,,,,,,,,,,,,,,,,,,,,,,,,,,,,,"[""comma""]",0,[0.22479999995232447],95,0,95,0,1,,
,,,,,,,,,,,,613867f34e206e4f573bc6ef,20,Mężczyzna,2022-06-11_09h43.09.567,task,2021.1.4,Win32,60.03842459,6299f149e92ead563fba08ef,62a44751b30d3dd6651f6f7d,,,,,,,,,,,,,,,,,,,,,,,,,,,,,,,,,,,,,,,,,,,,,,,,,,,,,,,,,,,,,,,,,,,,,,,,,,,,,,,,,,,,,,,,,,,,"[""period"",""comma""]",0,"[0.0701999999284908,1.9568999999761445]",96,0,96,0,1,,
,,,,,,,,,,,,613867f34e206e4f573bc6ef,20,Mężczyzna,2022-06-11_09h43.09.567,task,2021.1.4,Win32,60.03842459,6299f149e92ead563fba08ef,62a44751b30d3dd6651f6f7d,,,,,,,,,,,,,,,,,,,,,,,,,,,,,,,,,,,,,,,,,,,,,,,,,,,,,,,,,,,,,,,,,,,,,,,,,,,,,,,,,,,,,,,,,,,,"[""period""]",0,[1.7141000000239046],97,0,97,0,1,,
,,,,,,,,,,,,613867f34e206e4f573bc6ef,20,Mężczyzna,2022-06-11_09h43.09.567,task,2021.1.4,Win32,60.03842459,6299f149e92ead563fba08ef,62a44751b30d3dd6651f6f7d,,,,,,,,,,,,,,,,,,,,,,,,,,,,,,,,,,,,,,,,,,,,,,,,,,,,,,,,,,,,,,,,,,,,,,,,,,,,,,,,,,,,,,,,,,,,,0,,98,0,98,0,1,,
,,,,,,,,,,,,613867f34e206e4f573bc6ef,20,Mężczyzna,2022-06-11_09h43.09.567,task,2021.1.4,Win32,60.03842459,6299f149e92ead563fba08ef,62a44751b30d3dd6651f6f7d,,,,,,,,,,,,,,,,,,,,,,,,,,,,,,,,,,,,,,,,,,,,,,,,,,,,,,,,,,,,,,,,,,,,,,,,,,,,,,,,,,,,,,,,,,,,"[""period""]",0,[-0.015799999952264443],99,0,99,0,1,,
,,,,,,,,,,,,613867f34e206e4f573bc6ef,20,Mężczyzna,2022-06-11_09h43.09.567,task,2021.1.4,Win32,60.03842459,6299f149e92ead563fba08ef,62a44751b30d3dd6651f6f7d,,,,,,,,,,,,,,,,,,,,,,,,,,,,,,,,,,,,,,,,,,,,,,,,,,,,,,,,,,,,,,,,,,,,,,,,,,,,,,,,,,,,,,,,,,,,"[""period""]",0,[0.15970000004767826],100,0,100,0,1,,
,,,,,,,,,,,,613867f34e206e4f573bc6ef,20,Mężczyzna,2022-06-11_09h43.09.567,task,2021.1.4,Win32,60.03842459,6299f149e92ead563fba08ef,62a44751b30d3dd6651f6f7d,,,,,,,,,,,,,,,,,,,,,,,,,,,,,,,,,,,,,,,,,,,,,,,,,,,,,,,,,,,,,,,,,,,,,,,,,,,,,,,,,,,,,,,,,,,,"[""comma""]",0,[0.06129999995232538],101,0,101,0,1,,
,,,,,,,,,,,,613867f34e206e4f573bc6ef,20,Mężczyzna,2022-06-11_09h43.09.567,task,2021.1.4,Win32,60.03842459,6299f149e92ead563fba08ef,62a44751b30d3dd6651f6f7d,,,,,,,,,,,,,,,,,,,,,,,,,,,,,,,,,,,,,,,,,,,,,,,,,,,,,,,,,,,,,,,,,,,,,,,,,,,,,,,,,,,,,,,,,,,,"[""comma""]",0,[0.18399999999996908],102,0,102,0,1,,
,,,,,,,,,,,,613867f34e206e4f573bc6ef,20,Mężczyzna,2022-06-11_09h43.09.567,task,2021.1.4,Win32,60.03842459,6299f149e92ead563fba08ef,62a44751b30d3dd6651f6f7d,,,,,,,,,,,,,,,,,,,,,,,,,,,,,,,,,,,,,,,,,,,,,,,,,,,,,,,,,,,,,,,,,,,,,,,,,,,,,,,,,,,,,,,,,,,,"[""comma""]",0,[0.2179999999999609],103,0,103,0,1,,
,,,,,,,,,,,,613867f34e206e4f573bc6ef,20,Mężczyzna,2022-06-11_09h43.09.567,task,2021.1.4,Win32,60.03842459,6299f149e92ead563fba08ef,62a44751b30d3dd6651f6f7d,,,,,,,,,,,,,,,,,,,,,,,,,,,,,,,,,,,,,,,,,,,,,,,,,,,,,,,,,,,,,,,,,,,,,,,,,,,,,,,,,,,,,,,,,,,,"[""period""]",0,[0.2511000000238255],104,0,104,0,1,,
,,,,,,,,,,,,613867f34e206e4f573bc6ef,20,Mężczyzna,2022-06-11_09h43.09.567,task,2021.1.4,Win32,60.03842459,6299f149e92ead563fba08ef,62a44751b30d3dd6651f6f7d,,,,,,,,,,,,,,,,,,,,,,,,,,,,,,,,,,,,,,,,,,,,,,,,,,,,,,,,,,,,,,,,,,,,,,,,,,,,,,,,,,,,,,,,,,,,"[""period""]",0,[0.12080000007154013],105,0,105,0,1,,
,,,,,,,,,,,,613867f34e206e4f573bc6ef,20,Mężczyzna,2022-06-11_09h43.09.567,task,2021.1.4,Win32,60.03842459,6299f149e92ead563fba08ef,62a44751b30d3dd6651f6f7d,,,,,,,,,,,,,,,,,,,,,,,,,,,,,,,,,,,,,,,,,,,,,,,,,,,,,,,,,,,,,,,,,,,,,,,,,,,,,,,,,,,,,,,,,,,,"[""period""]",0,[0.2606000000238282],106,0,106,0,1,,
,,,,,,,,,,,,613867f34e206e4f573bc6ef,20,Mężczyzna,2022-06-11_09h43.09.567,task,2021.1.4,Win32,60.03842459,6299f149e92ead563fba08ef,62a44751b30d3dd6651f6f7d,,,,,,,,,,,,,,,,,,,,,,,,,,,,,,,,,,,,,,,,,,,,,,,,,,,,,,,,,,,,,,,,,,,,,,,,,,,,,,,,,,,,,,,,,,,,"[""comma""]",0,[0.28579999995235994],107,0,107,0,1,,
,,,,,,,,,,,,613867f34e206e4f573bc6ef,20,Mężczyzna,2022-06-11_09h43.09.567,task,2021.1.4,Win32,60.03842459,6299f149e92ead563fba08ef,62a44751b30d3dd6651f6f7d,,,,,,,,,,,,,,,,,,,,,,,,,,,,,,,,,,,,,,,,,,,,,,,,,,,,,,,,,,,,,,,,,,,,,,,,,,,,,,,,,,,,,,,,,,,,"[""period""]",0,[0.15310000002386914],108,0,108,0,1,,
,,,,,,,,,,,,613867f34e206e4f573bc6ef,20,Mężczyzna,2022-06-11_09h43.09.567,task,2021.1.4,Win32,60.03842459,6299f149e92ead563fba08ef,62a44751b30d3dd6651f6f7d,,,,,,,,,,,,,,,,,,,,,,,,,,,,,,,,,,,,,,,,,,,,,,,,,,,,,,,,,,,,,,,,,,,,,,,,,,,,,,,,,,,,,,,,,,,,"[""comma""]",0,[0.18849999999997635],109,0,109,0,1,,
,,,,,,,,,,,,613867f34e206e4f573bc6ef,20,Mężczyzna,2022-06-11_09h43.09.567,task,2021.1.4,Win32,60.03842459,6299f149e92ead563fba08ef,62a44751b30d3dd6651f6f7d,,,,,,,,,,,,,,,,,,,,,,,,,,,,,,,,,,,,,,,,,,,,,,,,,,,,,,,,,,,,,,,,,,,,,,,,,,,,,,,,,,,,,,,,,,,,"[""period""]",0,[0.2738999999761518],110,0,110,0,1,,
,,,,,,,,,,,,613867f34e206e4f573bc6ef,20,Mężczyzna,2022-06-11_09h43.09.567,task,2021.1.4,Win32,60.03842459,6299f149e92ead563fba08ef,62a44751b30d3dd6651f6f7d,,,,,,,,,,,,,,,,,,,,,,,,,,,,,,,,,,,,,,,,,,,,,,,,,,,,,,,,,,,,,,,,,,,,,,,,,,,,,,,,,,,,,,,,,,,,"[""comma""]",0,[0.21009999990462802],111,0,111,0,1,,
,,,,,,,,,,,,613867f34e206e4f573bc6ef,20,Mężczyzna,2022-06-11_09h43.09.567,task,2021.1.4,Win32,60.03842459,6299f149e92ead563fba08ef,62a44751b30d3dd6651f6f7d,,,,,,,,,,,,,,,,,,,,,,,,,,,,,,,,,,,,,,,,,,,,,,,,,,,,,,,,,,,,,,,,,,,,,,,,,,,,,,,,,,,,,,,,,,,,"[""period""]",0,[0.24650000000008276],112,0,112,0,1,,
,,,,,,,,,,,,613867f34e206e4f573bc6ef,20,Mężczyzna,2022-06-11_09h43.09.567,task,2021.1.4,Win32,60.03842459,6299f149e92ead563fba08ef,62a44751b30d3dd6651f6f7d,,,,,,,,,,,,,,,,,,,,,,,,,,,,,,,,,,,,,,,,,,,,,,,,,,,,,,,,,,,,,,,,,,,,,,,,,,,,,,,,,,,,,,,,,,,,"[""comma""]",0,[0.22189999997613086],113,0,113,0,1,,
,,,,,,,,,,,,613867f34e206e4f573bc6ef,20,Mężczyzna,2022-06-11_09h43.09.567,task,2021.1.4,Win32,60.03842459,6299f149e92ead563fba08ef,62a44751b30d3dd6651f6f7d,,,,,,,,,,,,,,,,,,,,,,,,,,,,,,,,,,,,,,,,,,,,,,,,,,,,,,,,,,,,,,,,,,,,,,,,,,,,,,,,,,,,,,,,,,,,"[""period""]",0,[0.2428999999762027],114,0,114,0,1,,
,,,,,,,,,,,,613867f34e206e4f573bc6ef,20,Mężczyzna,2022-06-11_09h43.09.567,task,2021.1.4,Win32,60.03842459,6299f149e92ead563fba08ef,62a44751b30d3dd6651f6f7d,,,,,,,,,,,,,,,,,,,,,,,,,,,,,,,,,,,,,,,,,,,,,,,,,,,,,,,,,,,,,,,,,,,,,,,,,,,,,,,,,,,,,,,,,,,,"[""comma""]",0,[0.15399999999999636],115,0,115,0,1,,
,,,,,,,,,,,,613867f34e206e4f573bc6ef,20,Mężczyzna,2022-06-11_09h43.09.567,task,2021.1.4,Win32,60.03842459,6299f149e92ead563fba08ef,62a44751b30d3dd6651f6f7d,,,,,,,,,,,,,,,,,,,,,,,,,,,,,,,,,,,,,,,,,,,,,,,,,,,,,,,,,,,,,,,,,,,,,,,,,,,,,,,,,,,,,,,,,,,,"[""comma""]",0,[0.2693999999761445],116,0,116,0,1,,
,,,,,,,,,,,,613867f34e206e4f573bc6ef,20,Mężczyzna,2022-06-11_09h43.09.567,task,2021.1.4,Win32,60.03842459,6299f149e92ead563fba08ef,62a44751b30d3dd6651f6f7d,,,,,,,,,,,,,,,,,,,,,,,,,,,,,,,,,,,,,,,,,,,,,,,,,,,,,,,,,,,,,,,,,,,,,,,,,,,,,,,,,,,,,,,,,,,,"[""period""]",0,[0.24560000002384186],117,0,117,0,1,,
,,,,,,,,,,,,613867f34e206e4f573bc6ef,20,Mężczyzna,2022-06-11_09h43.09.567,task,2021.1.4,Win32,60.03842459,6299f149e92ead563fba08ef,62a44751b30d3dd6651f6f7d,,,,,,,,,,,,,,,,,,,,,,,,,,,,,,,,,,,,,,,,,,,,,,,,,,,,,,,,,,,,,,,,,,,,,,,,,,,,,,,,,,,,,,,,,,,,"[""period""]",0,[0.2864999999999327],118,0,118,0,1,,
,,,,,,,,,,,,613867f34e206e4f573bc6ef,20,Mężczyzna,2022-06-11_09h43.09.567,task,2021.1.4,Win32,60.03842459,6299f149e92ead563fba08ef,62a44751b30d3dd6651f6f7d,,,,,,,,,,,,,,,,,,,,,,,,,,,,,,,,,,,,,,,,,,,,,,,,,,,,,,,,,,,,,,,,,,,,,,,,,,,,,,,,,,,,,,,,,,,,"[""period""]",0,[0.25210000002380184],119,0,119,0,1,,
,,,,,,,,,,,,613867f34e206e4f573bc6ef,20,Mężczyzna,2022-06-11_09h43.09.567,task,2021.1.4,Win32,60.03842459,6299f149e92ead563fba08ef,62a44751b30d3dd6651f6f7d,,,,,,,,,,,,,,,,,,,,,,,,,,,,,,,,,,,,,,,,,,,,,,,,,,,,,,,,,,,,,,,,,,,,,,,,,,,,,,,,,,,,,,,,,,,,,,,,,,,,space,1.1874
