key_resp_15.keys,key_resp_15.rt,key_resp_16.keys,key_resp_16.rt,key_resp_4.keys,key_resp_4.rt,next_letter.thisRepN,next_letter.thisTrialN,next_letter.thisN,next_letter.thisIndex,next_letter.ran,letter,participant,Wiek*,Płeć,date,expName,psychopyVersion,OS,frameRate,study_id,session,simple_recall,key_resp_5.keys,key_resp_5.rt,simple_recall_corr,simple_recall_corrkeys,next_level.thisRepN,next_level.thisTrialN,next_level.thisN,next_level.thisIndex,next_level.ran,key_resp_2.keys,key_resp_2.rt,digit_answer,key_resp.keys,key_resp.corr,key_resp.rt,RT_list,next_equation.thisRepN,next_equation.thisTrialN,next_equation.thisN,next_equation.thisIndex,next_equation.ran,Task,Trial,Problem,Operation_answer,processing_score,sumRT,meanRT,sumdiff,sd,RT,key_resp_3.keys,key_resp_3.rt,repeat_practice.thisRepN,repeat_practice.thisTrialN,repeat_practice.thisN,repeat_practice.thisIndex,repeat_practice.ran,key_resp_6.keys,key_resp_6.rt,key_resp_11.keys,key_resp_11.corr,key_resp_11.rt,operation_correct,repeat_if_wrong_prac.thisRepN,repeat_if_wrong_prac.thisTrialN,repeat_if_wrong_prac.thisN,repeat_if_wrong_prac.thisIndex,repeat_if_wrong_prac.ran,span_size_prac.thisRepN,span_size_prac.thisTrialN,span_size_prac.thisN,span_size_prac.thisIndex,span_size_prac.ran,complex_recall_practice,key_resp_9.keys,key_resp_9.corr,key_resp_9.rt,complex_prac_corr,span_recall_prac.thisRepN,span_recall_prac.thisTrialN,span_recall_prac.thisN,span_recall_prac.thisIndex,span_recall_prac.ran,key_resp_10.keys,key_resp_10.rt,key_resp_7.keys,key_resp_7.corr,key_resp_7.rt,repeat_if_wrong.thisRepN,repeat_if_wrong.thisTrialN,repeat_if_wrong.thisN,repeat_if_wrong.thisIndex,repeat_if_wrong.ran,span_size.thisRepN,span_size.thisTrialN,span_size.thisN,span_size.thisIndex,span_size.ran,complex_recall,key_resp_8.keys,key_resp_8.corr,key_resp_8.rt,complex_recall_corr,complex_recall_corrkeys,span_recall.thisRepN,span_recall.thisTrialN,span_recall.thisN,span_recall.thisIndex,span_recall.ran,key_resp_13.keys,key_resp_13.corr,random_loop.thisRepN,random_loop.thisTrialN,random_loop.thisN,random_loop.thisIndex,random_loop.ran,key_resp_13.rt,key_resp_12.keys,key_resp_12.rt
space,13.5234,space,28.1388,space,6.7026,0,0,0,0,1,X V Q F H G B L J M P D K C T S W R N Z,6140a2afeec61853de540a8b,20,Mężczyzna,2022-06-11_09h07.39.170,task,2021.1.4,Win32,60.21194605,6299f149e92ead563fba08ef,62a43f223f462cc8c863bab2,,,,,,,,,,,,,,,,,,,,,,,,,,,,,,,,,,,,,,,,,,,,,,,,,,,,,,,,,,,,,,,,,,,,,,,,,,,,,,,,,,,,,,,,,,,,,,,,,,,,,
,,,,,,1,0,1,0,1,X V Q F H G B L J M P D K C T S W R N Z,6140a2afeec61853de540a8b,20,Mężczyzna,2022-06-11_09h07.39.170,task,2021.1.4,Win32,60.21194605,6299f149e92ead563fba08ef,62a43f223f462cc8c863bab2,,,,,,,,,,,,,,,,,,,,,,,,,,,,,,,,,,,,,,,,,,,,,,,,,,,,,,,,,,,,,,,,,,,,,,,,,,,,,,,,,,,,,,,,,,,,,,,,,,,,,
,,,,,,,,,,,,6140a2afeec61853de540a8b,20,Mężczyzna,2022-06-11_09h07.39.170,task,2021.1.4,Win32,60.21194605,6299f149e92ead563fba08ef,62a43f223f462cc8c863bab2,zd,"[""z"",""d""]","[1.4242000000000132,1.6081000000000074,3.272200000000005]",1,ZD,0,0,0,0,1,,,,,,,,,,,,,,,,,,,,,,,,,,,,,,,,,,,,,,,,,,,,,,,,,,,,,,,,,,,,,,,,,,,,,,,,,,,,,,,,,,,,,,,,,,,
,,,,,,0,0,0,0,1,X V Q F H G B L J M P D K C T S W R N Z,6140a2afeec61853de540a8b,20,Mężczyzna,2022-06-11_09h07.39.170,task,2021.1.4,Win32,60.21194605,6299f149e92ead563fba08ef,62a43f223f462cc8c863bab2,,,,,,,,,,,,,,,,,,,,,,,,,,,,,,,,,,,,,,,,,,,,,,,,,,,,,,,,,,,,,,,,,,,,,,,,,,,,,,,,,,,,,,,,,,,,,,,,,,,,,
,,,,,,1,0,1,0,1,X V Q F H G B L J M P D K C T S W R N Z,6140a2afeec61853de540a8b,20,Mężczyzna,2022-06-11_09h07.39.170,task,2021.1.4,Win32,60.21194605,6299f149e92ead563fba08ef,62a43f223f462cc8c863bab2,,,,,,,,,,,,,,,,,,,,,,,,,,,,,,,,,,,,,,,,,,,,,,,,,,,,,,,,,,,,,,,,,,,,,,,,,,,,,,,,,,,,,,,,,,,,,,,,,,,,,
,,,,,,,,,,,,6140a2afeec61853de540a8b,20,Mężczyzna,2022-06-11_09h07.39.170,task,2021.1.4,Win32,60.21194605,6299f149e92ead563fba08ef,62a43f223f462cc8c863bab2,wr,"[""w"",""r""]","[0.9882999999999811,1.2284999999999968,1.965999999999994]",1,WR,1,0,1,0,1,,,,,,,,,,,,,,,,,,,,,,,,,,,,,,,,,,,,,,,,,,,,,,,,,,,,,,,,,,,,,,,,,,,,,,,,,,,,,,,,,,,,,,,,,,,
,,,,,,0,0,0,0,1,X V Q F H G B L J M P D K C T S W R N Z,6140a2afeec61853de540a8b,20,Mężczyzna,2022-06-11_09h07.39.170,task,2021.1.4,Win32,60.21194605,6299f149e92ead563fba08ef,62a43f223f462cc8c863bab2,,,,,,,,,,,,,,,,,,,,,,,,,,,,,,,,,,,,,,,,,,,,,,,,,,,,,,,,,,,,,,,,,,,,,,,,,,,,,,,,,,,,,,,,,,,,,,,,,,,,,
,,,,,,1,0,1,0,1,X V Q F H G B L J M P D K C T S W R N Z,6140a2afeec61853de540a8b,20,Mężczyzna,2022-06-11_09h07.39.170,task,2021.1.4,Win32,60.21194605,6299f149e92ead563fba08ef,62a43f223f462cc8c863bab2,,,,,,,,,,,,,,,,,,,,,,,,,,,,,,,,,,,,,,,,,,,,,,,,,,,,,,,,,,,,,,,,,,,,,,,,,,,,,,,,,,,,,,,,,,,,,,,,,,,,,
,,,,,,2,0,2,0,1,X V Q F H G B L J M P D K C T S W R N Z,6140a2afeec61853de540a8b,20,Mężczyzna,2022-06-11_09h07.39.170,task,2021.1.4,Win32,60.21194605,6299f149e92ead563fba08ef,62a43f223f462cc8c863bab2,,,,,,,,,,,,,,,,,,,,,,,,,,,,,,,,,,,,,,,,,,,,,,,,,,,,,,,,,,,,,,,,,,,,,,,,,,,,,,,,,,,,,,,,,,,,,,,,,,,,,
,,,,,,,,,,,,6140a2afeec61853de540a8b,20,Mężczyzna,2022-06-11_09h07.39.170,task,2021.1.4,Win32,60.21194605,6299f149e92ead563fba08ef,62a43f223f462cc8c863bab2,kvj,"[""k"",""v"",""j""]","[0.8084999999999951,0.9518999999999949,1.0986000000000047,2.207899999999995]",1,KVJ,2,0,2,0,1,,,,,,,,,,,,,,,,,,,,,,,,,,,,,,,,,,,,,,,,,,,,,,,,,,,,,,,,,,,,,,,,,,,,,,,,,,,,,,,,,,,,,,,,,,,
,,,,,,0,0,0,0,1,X V Q F H G B L J M P D K C T S W R N Z,6140a2afeec61853de540a8b,20,Mężczyzna,2022-06-11_09h07.39.170,task,2021.1.4,Win32,60.21194605,6299f149e92ead563fba08ef,62a43f223f462cc8c863bab2,,,,,,,,,,,,,,,,,,,,,,,,,,,,,,,,,,,,,,,,,,,,,,,,,,,,,,,,,,,,,,,,,,,,,,,,,,,,,,,,,,,,,,,,,,,,,,,,,,,,,
,,,,,,1,0,1,0,1,X V Q F H G B L J M P D K C T S W R N Z,6140a2afeec61853de540a8b,20,Mężczyzna,2022-06-11_09h07.39.170,task,2021.1.4,Win32,60.21194605,6299f149e92ead563fba08ef,62a43f223f462cc8c863bab2,,,,,,,,,,,,,,,,,,,,,,,,,,,,,,,,,,,,,,,,,,,,,,,,,,,,,,,,,,,,,,,,,,,,,,,,,,,,,,,,,,,,,,,,,,,,,,,,,,,,,
,,,,,,2,0,2,0,1,X V Q F H G B L J M P D K C T S W R N Z,6140a2afeec61853de540a8b,20,Mężczyzna,2022-06-11_09h07.39.170,task,2021.1.4,Win32,60.21194605,6299f149e92ead563fba08ef,62a43f223f462cc8c863bab2,,,,,,,,,,,,,,,,,,,,,,,,,,,,,,,,,,,,,,,,,,,,,,,,,,,,,,,,,,,,,,,,,,,,,,,,,,,,,,,,,,,,,,,,,,,,,,,,,,,,,
,,,,,,,,,,,,6140a2afeec61853de540a8b,20,Mężczyzna,2022-06-11_09h07.39.170,task,2021.1.4,Win32,60.21194605,6299f149e92ead563fba08ef,62a43f223f462cc8c863bab2,vqd,"[""v"",""q"",""d""]","[4.34920000000001,5.028700000000015,5.628100000000003,6.091899999999995]",1,VQD,3,0,3,0,1,,,,,,,,,,,,,,,,,,,,,,,,,,,,,,,,,,,,,,,,,,,,,,,,,,,,,,,,,,,,,,,,,,,,,,,,,,,,,,,,,,,,,,,,,,,
,,,,,,0,0,0,0,1,X V Q F H G B L J M P D K C T S W R N Z,6140a2afeec61853de540a8b,20,Mężczyzna,2022-06-11_09h07.39.170,task,2021.1.4,Win32,60.21194605,6299f149e92ead563fba08ef,62a43f223f462cc8c863bab2,,,,,,,,,,,,,,,,,,,,,,,,,,,,,,,,,,,,,,,,,,,,,,,,,,,,,,,,,,,,,,,,,,,,,,,,,,,,,,,,,,,,,,,,,,,,,,,,,,,,,
,,,,,,1,0,1,0,1,X V Q F H G B L J M P D K C T S W R N Z,6140a2afeec61853de540a8b,20,Mężczyzna,2022-06-11_09h07.39.170,task,2021.1.4,Win32,60.21194605,6299f149e92ead563fba08ef,62a43f223f462cc8c863bab2,,,,,,,,,,,,,,,,,,,,,,,,,,,,,,,,,,,,,,,,,,,,,,,,,,,,,,,,,,,,,,,,,,,,,,,,,,,,,,,,,,,,,,,,,,,,,,,,,,,,,
,,,,,,2,0,2,0,1,X V Q F H G B L J M P D K C T S W R N Z,6140a2afeec61853de540a8b,20,Mężczyzna,2022-06-11_09h07.39.170,task,2021.1.4,Win32,60.21194605,6299f149e92ead563fba08ef,62a43f223f462cc8c863bab2,,,,,,,,,,,,,,,,,,,,,,,,,,,,,,,,,,,,,,,,,,,,,,,,,,,,,,,,,,,,,,,,,,,,,,,,,,,,,,,,,,,,,,,,,,,,,,,,,,,,,
,,,,,,3,0,3,0,1,X V Q F H G B L J M P D K C T S W R N Z,6140a2afeec61853de540a8b,20,Mężczyzna,2022-06-11_09h07.39.170,task,2021.1.4,Win32,60.21194605,6299f149e92ead563fba08ef,62a43f223f462cc8c863bab2,,,,,,,,,,,,,,,,,,,,,,,,,,,,,,,,,,,,,,,,,,,,,,,,,,,,,,,,,,,,,,,,,,,,,,,,,,,,,,,,,,,,,,,,,,,,,,,,,,,,,
,,,,,,,,,,,,6140a2afeec61853de540a8b,20,Mężczyzna,2022-06-11_09h07.39.170,task,2021.1.4,Win32,60.21194605,6299f149e92ead563fba08ef,62a43f223f462cc8c863bab2,llgx,"[""l"",""l"",""g"",""x""]","[0.5173000000000201,0.7040000000000077,1.0717000000000212,1.8325000000000102,2.383899999999997]",1,LLGX,4,0,4,0,1,,,,,,,,,,,,,,,,,,,,,,,,,,,,,,,,,,,,,,,,,,,,,,,,,,,,,,,,,,,,,,,,,,,,,,,,,,,,,,,,,,,,,,,,,,,
,,,,,,0,0,0,0,1,X V Q F H G B L J M P D K C T S W R N Z,6140a2afeec61853de540a8b,20,Mężczyzna,2022-06-11_09h07.39.170,task,2021.1.4,Win32,60.21194605,6299f149e92ead563fba08ef,62a43f223f462cc8c863bab2,,,,,,,,,,,,,,,,,,,,,,,,,,,,,,,,,,,,,,,,,,,,,,,,,,,,,,,,,,,,,,,,,,,,,,,,,,,,,,,,,,,,,,,,,,,,,,,,,,,,,
,,,,,,1,0,1,0,1,X V Q F H G B L J M P D K C T S W R N Z,6140a2afeec61853de540a8b,20,Mężczyzna,2022-06-11_09h07.39.170,task,2021.1.4,Win32,60.21194605,6299f149e92ead563fba08ef,62a43f223f462cc8c863bab2,,,,,,,,,,,,,,,,,,,,,,,,,,,,,,,,,,,,,,,,,,,,,,,,,,,,,,,,,,,,,,,,,,,,,,,,,,,,,,,,,,,,,,,,,,,,,,,,,,,,,
,,,,,,2,0,2,0,1,X V Q F H G B L J M P D K C T S W R N Z,6140a2afeec61853de540a8b,20,Mężczyzna,2022-06-11_09h07.39.170,task,2021.1.4,Win32,60.21194605,6299f149e92ead563fba08ef,62a43f223f462cc8c863bab2,,,,,,,,,,,,,,,,,,,,,,,,,,,,,,,,,,,,,,,,,,,,,,,,,,,,,,,,,,,,,,,,,,,,,,,,,,,,,,,,,,,,,,,,,,,,,,,,,,,,,
,,,,,,3,0,3,0,1,X V Q F H G B L J M P D K C T S W R N Z,6140a2afeec61853de540a8b,20,Mężczyzna,2022-06-11_09h07.39.170,task,2021.1.4,Win32,60.21194605,6299f149e92ead563fba08ef,62a43f223f462cc8c863bab2,,,,,,,,,,,,,,,,,,,,,,,,,,,,,,,,,,,,,,,,,,,,,,,,,,,,,,,,,,,,,,,,,,,,,,,,,,,,,,,,,,,,,,,,,,,,,,,,,,,,,
,,,,,,,,,,,,6140a2afeec61853de540a8b,20,Mężczyzna,2022-06-11_09h07.39.170,task,2021.1.4,Win32,60.21194605,6299f149e92ead563fba08ef,62a43f223f462cc8c863bab2,gvjh,"[""g"",""v"",""j"",""h""]","[1.2868999999999886,1.6864999999999952,2.221899999999991,3.3504999999999967,3.886199999999974]",1,GVJH,5,0,5,0,1,,,,,,,,,,,,,,,,,,,,,,,,,,,,,,,,,,,,,,,,,,,,,,,,,,,,,,,,,,,,,,,,,,,,,,,,,,,,,,,,,,,,,,,,,,,
,,,,,,0,0,0,0,1,X V Q F H G B L J M P D K C T S W R N Z,6140a2afeec61853de540a8b,20,Mężczyzna,2022-06-11_09h07.39.170,task,2021.1.4,Win32,60.21194605,6299f149e92ead563fba08ef,62a43f223f462cc8c863bab2,,,,,,,,,,,,,,,,,,,,,,,,,,,,,,,,,,,,,,,,,,,,,,,,,,,,,,,,,,,,,,,,,,,,,,,,,,,,,,,,,,,,,,,,,,,,,,,,,,,,,
,,,,,,1,0,1,0,1,X V Q F H G B L J M P D K C T S W R N Z,6140a2afeec61853de540a8b,20,Mężczyzna,2022-06-11_09h07.39.170,task,2021.1.4,Win32,60.21194605,6299f149e92ead563fba08ef,62a43f223f462cc8c863bab2,,,,,,,,,,,,,,,,,,,,,,,,,,,,,,,,,,,,,,,,,,,,,,,,,,,,,,,,,,,,,,,,,,,,,,,,,,,,,,,,,,,,,,,,,,,,,,,,,,,,,
,,,,,,2,0,2,0,1,X V Q F H G B L J M P D K C T S W R N Z,6140a2afeec61853de540a8b,20,Mężczyzna,2022-06-11_09h07.39.170,task,2021.1.4,Win32,60.21194605,6299f149e92ead563fba08ef,62a43f223f462cc8c863bab2,,,,,,,,,,,,,,,,,,,,,,,,,,,,,,,,,,,,,,,,,,,,,,,,,,,,,,,,,,,,,,,,,,,,,,,,,,,,,,,,,,,,,,,,,,,,,,,,,,,,,
,,,,,,3,0,3,0,1,X V Q F H G B L J M P D K C T S W R N Z,6140a2afeec61853de540a8b,20,Mężczyzna,2022-06-11_09h07.39.170,task,2021.1.4,Win32,60.21194605,6299f149e92ead563fba08ef,62a43f223f462cc8c863bab2,,,,,,,,,,,,,,,,,,,,,,,,,,,,,,,,,,,,,,,,,,,,,,,,,,,,,,,,,,,,,,,,,,,,,,,,,,,,,,,,,,,,,,,,,,,,,,,,,,,,,
,,,,,,4,0,4,0,1,X V Q F H G B L J M P D K C T S W R N Z,6140a2afeec61853de540a8b,20,Mężczyzna,2022-06-11_09h07.39.170,task,2021.1.4,Win32,60.21194605,6299f149e92ead563fba08ef,62a43f223f462cc8c863bab2,,,,,,,,,,,,,,,,,,,,,,,,,,,,,,,,,,,,,,,,,,,,,,,,,,,,,,,,,,,,,,,,,,,,,,,,,,,,,,,,,,,,,,,,,,,,,,,,,,,,,
,,,,,,,,,,,,6140a2afeec61853de540a8b,20,Mężczyzna,2022-06-11_09h07.39.170,task,2021.1.4,Win32,60.21194605,6299f149e92ead563fba08ef,62a43f223f462cc8c863bab2,wddpt,"[""w"",""d"",""d"",""p"",""t""]","[0.9736999999999796,1.2695000000000078,1.48569999999998,2.2856999999999914,2.7017999999999915,3.181600000000003]",1,WDDPT,6,0,6,0,1,,,,,,,,,,,,,,,,,,,,,,,,,,,,,,,,,,,,,,,,,,,,,,,,,,,,,,,,,,,,,,,,,,,,,,,,,,,,,,,,,,,,,,,,,,,
,,,,,,0,0,0,0,1,X V Q F H G B L J M P D K C T S W R N Z,6140a2afeec61853de540a8b,20,Mężczyzna,2022-06-11_09h07.39.170,task,2021.1.4,Win32,60.21194605,6299f149e92ead563fba08ef,62a43f223f462cc8c863bab2,,,,,,,,,,,,,,,,,,,,,,,,,,,,,,,,,,,,,,,,,,,,,,,,,,,,,,,,,,,,,,,,,,,,,,,,,,,,,,,,,,,,,,,,,,,,,,,,,,,,,
,,,,,,1,0,1,0,1,X V Q F H G B L J M P D K C T S W R N Z,6140a2afeec61853de540a8b,20,Mężczyzna,2022-06-11_09h07.39.170,task,2021.1.4,Win32,60.21194605,6299f149e92ead563fba08ef,62a43f223f462cc8c863bab2,,,,,,,,,,,,,,,,,,,,,,,,,,,,,,,,,,,,,,,,,,,,,,,,,,,,,,,,,,,,,,,,,,,,,,,,,,,,,,,,,,,,,,,,,,,,,,,,,,,,,
,,,,,,2,0,2,0,1,X V Q F H G B L J M P D K C T S W R N Z,6140a2afeec61853de540a8b,20,Mężczyzna,2022-06-11_09h07.39.170,task,2021.1.4,Win32,60.21194605,6299f149e92ead563fba08ef,62a43f223f462cc8c863bab2,,,,,,,,,,,,,,,,,,,,,,,,,,,,,,,,,,,,,,,,,,,,,,,,,,,,,,,,,,,,,,,,,,,,,,,,,,,,,,,,,,,,,,,,,,,,,,,,,,,,,
,,,,,,3,0,3,0,1,X V Q F H G B L J M P D K C T S W R N Z,6140a2afeec61853de540a8b,20,Mężczyzna,2022-06-11_09h07.39.170,task,2021.1.4,Win32,60.21194605,6299f149e92ead563fba08ef,62a43f223f462cc8c863bab2,,,,,,,,,,,,,,,,,,,,,,,,,,,,,,,,,,,,,,,,,,,,,,,,,,,,,,,,,,,,,,,,,,,,,,,,,,,,,,,,,,,,,,,,,,,,,,,,,,,,,
,,,,,,4,0,4,0,1,X V Q F H G B L J M P D K C T S W R N Z,6140a2afeec61853de540a8b,20,Mężczyzna,2022-06-11_09h07.39.170,task,2021.1.4,Win32,60.21194605,6299f149e92ead563fba08ef,62a43f223f462cc8c863bab2,,,,,,,,,,,,,,,,,,,,,,,,,,,,,,,,,,,,,,,,,,,,,,,,,,,,,,,,,,,,,,,,,,,,,,,,,,,,,,,,,,,,,,,,,,,,,,,,,,,,,
,,,,,,,,,,,,6140a2afeec61853de540a8b,20,Mężczyzna,2022-06-11_09h07.39.170,task,2021.1.4,Win32,60.21194605,6299f149e92ead563fba08ef,62a43f223f462cc8c863bab2,wqqmz,"[""w"",""q"",""q"",""m"",""z""]","[1.0180000000000007,1.2498999999999825,1.4743000000000137,2.2258999999999816,2.564300000000017,3.066100000000006]",1,WQQMZ,7,0,7,0,1,,,,,,,,,,,,,,,,,,,,,,,,,,,,,,,,,,,,,,,,,,,,,,,,,,,,,,,,,,,,,,,,,,,,,,,,,,,,,,,,,,,,,,,,,,,
,,,,,,0,0,0,0,1,X V Q F H G B L J M P D K C T S W R N Z,6140a2afeec61853de540a8b,20,Mężczyzna,2022-06-11_09h07.39.170,task,2021.1.4,Win32,60.21194605,6299f149e92ead563fba08ef,62a43f223f462cc8c863bab2,,,,,,,,,,,,,,,,,,,,,,,,,,,,,,,,,,,,,,,,,,,,,,,,,,,,,,,,,,,,,,,,,,,,,,,,,,,,,,,,,,,,,,,,,,,,,,,,,,,,,
,,,,,,1,0,1,0,1,X V Q F H G B L J M P D K C T S W R N Z,6140a2afeec61853de540a8b,20,Mężczyzna,2022-06-11_09h07.39.170,task,2021.1.4,Win32,60.21194605,6299f149e92ead563fba08ef,62a43f223f462cc8c863bab2,,,,,,,,,,,,,,,,,,,,,,,,,,,,,,,,,,,,,,,,,,,,,,,,,,,,,,,,,,,,,,,,,,,,,,,,,,,,,,,,,,,,,,,,,,,,,,,,,,,,,
,,,,,,2,0,2,0,1,X V Q F H G B L J M P D K C T S W R N Z,6140a2afeec61853de540a8b,20,Mężczyzna,2022-06-11_09h07.39.170,task,2021.1.4,Win32,60.21194605,6299f149e92ead563fba08ef,62a43f223f462cc8c863bab2,,,,,,,,,,,,,,,,,,,,,,,,,,,,,,,,,,,,,,,,,,,,,,,,,,,,,,,,,,,,,,,,,,,,,,,,,,,,,,,,,,,,,,,,,,,,,,,,,,,,,
,,,,,,3,0,3,0,1,X V Q F H G B L J M P D K C T S W R N Z,6140a2afeec61853de540a8b,20,Mężczyzna,2022-06-11_09h07.39.170,task,2021.1.4,Win32,60.21194605,6299f149e92ead563fba08ef,62a43f223f462cc8c863bab2,,,,,,,,,,,,,,,,,,,,,,,,,,,,,,,,,,,,,,,,,,,,,,,,,,,,,,,,,,,,,,,,,,,,,,,,,,,,,,,,,,,,,,,,,,,,,,,,,,,,,
,,,,,,4,0,4,0,1,X V Q F H G B L J M P D K C T S W R N Z,6140a2afeec61853de540a8b,20,Mężczyzna,2022-06-11_09h07.39.170,task,2021.1.4,Win32,60.21194605,6299f149e92ead563fba08ef,62a43f223f462cc8c863bab2,,,,,,,,,,,,,,,,,,,,,,,,,,,,,,,,,,,,,,,,,,,,,,,,,,,,,,,,,,,,,,,,,,,,,,,,,,,,,,,,,,,,,,,,,,,,,,,,,,,,,
,,,,,,5,0,5,0,1,X V Q F H G B L J M P D K C T S W R N Z,6140a2afeec61853de540a8b,20,Mężczyzna,2022-06-11_09h07.39.170,task,2021.1.4,Win32,60.21194605,6299f149e92ead563fba08ef,62a43f223f462cc8c863bab2,,,,,,,,,,,,,,,,,,,,,,,,,,,,,,,,,,,,,,,,,,,,,,,,,,,,,,,,,,,,,,,,,,,,,,,,,,,,,,,,,,,,,,,,,,,,,,,,,,,,,
,,,,,,,,,,,,6140a2afeec61853de540a8b,20,Mężczyzna,2022-06-11_09h07.39.170,task,2021.1.4,Win32,60.21194605,6299f149e92ead563fba08ef,62a43f223f462cc8c863bab2,dpvze,"[""d"",""p"",""v"",""z"",""e""]","[0.7689000000000021,1.3156999999999925,1.9436999999999784,2.8880000000000052,5.071799999999996,5.344199999999972]",0,DPVZBQ,8,0,8,0,1,,,,,,,,,,,,,,,,,,,,,,,,,,,,,,,,,,,,,,,,,,,,,,,,,,,,,,,,,,,,,,,,,,,,,,,,,,,,,,,,,,,,,,,,,,,
,,,,,,0,0,0,0,1,X V Q F H G B L J M P D K C T S W R N Z,6140a2afeec61853de540a8b,20,Mężczyzna,2022-06-11_09h07.39.170,task,2021.1.4,Win32,60.21194605,6299f149e92ead563fba08ef,62a43f223f462cc8c863bab2,,,,,,,,,,,,,,,,,,,,,,,,,,,,,,,,,,,,,,,,,,,,,,,,,,,,,,,,,,,,,,,,,,,,,,,,,,,,,,,,,,,,,,,,,,,,,,,,,,,,,
,,,,,,1,0,1,0,1,X V Q F H G B L J M P D K C T S W R N Z,6140a2afeec61853de540a8b,20,Mężczyzna,2022-06-11_09h07.39.170,task,2021.1.4,Win32,60.21194605,6299f149e92ead563fba08ef,62a43f223f462cc8c863bab2,,,,,,,,,,,,,,,,,,,,,,,,,,,,,,,,,,,,,,,,,,,,,,,,,,,,,,,,,,,,,,,,,,,,,,,,,,,,,,,,,,,,,,,,,,,,,,,,,,,,,
,,,,,,2,0,2,0,1,X V Q F H G B L J M P D K C T S W R N Z,6140a2afeec61853de540a8b,20,Mężczyzna,2022-06-11_09h07.39.170,task,2021.1.4,Win32,60.21194605,6299f149e92ead563fba08ef,62a43f223f462cc8c863bab2,,,,,,,,,,,,,,,,,,,,,,,,,,,,,,,,,,,,,,,,,,,,,,,,,,,,,,,,,,,,,,,,,,,,,,,,,,,,,,,,,,,,,,,,,,,,,,,,,,,,,
,,,,,,3,0,3,0,1,X V Q F H G B L J M P D K C T S W R N Z,6140a2afeec61853de540a8b,20,Mężczyzna,2022-06-11_09h07.39.170,task,2021.1.4,Win32,60.21194605,6299f149e92ead563fba08ef,62a43f223f462cc8c863bab2,,,,,,,,,,,,,,,,,,,,,,,,,,,,,,,,,,,,,,,,,,,,,,,,,,,,,,,,,,,,,,,,,,,,,,,,,,,,,,,,,,,,,,,,,,,,,,,,,,,,,
,,,,,,4,0,4,0,1,X V Q F H G B L J M P D K C T S W R N Z,6140a2afeec61853de540a8b,20,Mężczyzna,2022-06-11_09h07.39.170,task,2021.1.4,Win32,60.21194605,6299f149e92ead563fba08ef,62a43f223f462cc8c863bab2,,,,,,,,,,,,,,,,,,,,,,,,,,,,,,,,,,,,,,,,,,,,,,,,,,,,,,,,,,,,,,,,,,,,,,,,,,,,,,,,,,,,,,,,,,,,,,,,,,,,,
,,,,,,5,0,5,0,1,X V Q F H G B L J M P D K C T S W R N Z,6140a2afeec61853de540a8b,20,Mężczyzna,2022-06-11_09h07.39.170,task,2021.1.4,Win32,60.21194605,6299f149e92ead563fba08ef,62a43f223f462cc8c863bab2,,,,,,,,,,,,,,,,,,,,,,,,,,,,,,,,,,,,,,,,,,,,,,,,,,,,,,,,,,,,,,,,,,,,,,,,,,,,,,,,,,,,,,,,,,,,,,,,,,,,,
,,,,,,,,,,,,6140a2afeec61853de540a8b,20,Mężczyzna,2022-06-11_09h07.39.170,task,2021.1.4,Win32,60.21194605,6299f149e92ead563fba08ef,62a43f223f462cc8c863bab2,ldgm,"[""l"",""d"",""g"",""m""]","[0.05710000000001969,0.2809000000000026,0.704100000000011,0.8401000000000067,1.2009999999999934]",0,SLDGMX,9,0,9,0,1,,,,,,,,,,,,,,,,,,,,,,,,,,,,,,,,,,,,,,,,,,,,,,,,,,,,,,,,,,,,,,,,,,,,,,,,,,,,,,,,,,,,,,,,,,,
,,,,,,0,0,0,0,1,X V Q F H G B L J M P D K C T S W R N Z,6140a2afeec61853de540a8b,20,Mężczyzna,2022-06-11_09h07.39.170,task,2021.1.4,Win32,60.21194605,6299f149e92ead563fba08ef,62a43f223f462cc8c863bab2,,,,,,,,,,,,,,,,,,,,,,,,,,,,,,,,,,,,,,,,,,,,,,,,,,,,,,,,,,,,,,,,,,,,,,,,,,,,,,,,,,,,,,,,,,,,,,,,,,,,,
,,,,,,1,0,1,0,1,X V Q F H G B L J M P D K C T S W R N Z,6140a2afeec61853de540a8b,20,Mężczyzna,2022-06-11_09h07.39.170,task,2021.1.4,Win32,60.21194605,6299f149e92ead563fba08ef,62a43f223f462cc8c863bab2,,,,,,,,,,,,,,,,,,,,,,,,,,,,,,,,,,,,,,,,,,,,,,,,,,,,,,,,,,,,,,,,,,,,,,,,,,,,,,,,,,,,,,,,,,,,,,,,,,,,,
,,,,,,2,0,2,0,1,X V Q F H G B L J M P D K C T S W R N Z,6140a2afeec61853de540a8b,20,Mężczyzna,2022-06-11_09h07.39.170,task,2021.1.4,Win32,60.21194605,6299f149e92ead563fba08ef,62a43f223f462cc8c863bab2,,,,,,,,,,,,,,,,,,,,,,,,,,,,,,,,,,,,,,,,,,,,,,,,,,,,,,,,,,,,,,,,,,,,,,,,,,,,,,,,,,,,,,,,,,,,,,,,,,,,,
,,,,,,3,0,3,0,1,X V Q F H G B L J M P D K C T S W R N Z,6140a2afeec61853de540a8b,20,Mężczyzna,2022-06-11_09h07.39.170,task,2021.1.4,Win32,60.21194605,6299f149e92ead563fba08ef,62a43f223f462cc8c863bab2,,,,,,,,,,,,,,,,,,,,,,,,,,,,,,,,,,,,,,,,,,,,,,,,,,,,,,,,,,,,,,,,,,,,,,,,,,,,,,,,,,,,,,,,,,,,,,,,,,,,,
,,,,,,4,0,4,0,1,X V Q F H G B L J M P D K C T S W R N Z,6140a2afeec61853de540a8b,20,Mężczyzna,2022-06-11_09h07.39.170,task,2021.1.4,Win32,60.21194605,6299f149e92ead563fba08ef,62a43f223f462cc8c863bab2,,,,,,,,,,,,,,,,,,,,,,,,,,,,,,,,,,,,,,,,,,,,,,,,,,,,,,,,,,,,,,,,,,,,,,,,,,,,,,,,,,,,,,,,,,,,,,,,,,,,,
,,,,,,5,0,5,0,1,X V Q F H G B L J M P D K C T S W R N Z,6140a2afeec61853de540a8b,20,Mężczyzna,2022-06-11_09h07.39.170,task,2021.1.4,Win32,60.21194605,6299f149e92ead563fba08ef,62a43f223f462cc8c863bab2,,,,,,,,,,,,,,,,,,,,,,,,,,,,,,,,,,,,,,,,,,,,,,,,,,,,,,,,,,,,,,,,,,,,,,,,,,,,,,,,,,,,,,,,,,,,,,,,,,,,,
,,,,,,,,,,,,6140a2afeec61853de540a8b,20,Mężczyzna,2022-06-11_09h07.39.170,task,2021.1.4,Win32,60.21194605,6299f149e92ead563fba08ef,62a43f223f462cc8c863bab2,shjrj,"[""s"",""h"",""j"",""r"",""j""]","[5.022999999999996,5.334599999999995,5.718500000000006,7.513200000000012,7.654800000000023,7.8466999999999985]",0,DZMTRJ,10,0,10,0,1,,,,,,,,,,,,,,,,,,,,,,,,,,,,,,,,,,,,,,,,,,,,,,,,,,,,,,,,,,,,,,,,,,,,,,,,,,,,,,,,,,,,,,,,,,,
,,,,,,,,,,,,6140a2afeec61853de540a8b,20,Mężczyzna,2022-06-11_09h07.39.170,task,2021.1.4,Win32,60.21194605,6299f149e92ead563fba08ef,62a43f223f462cc8c863bab2,,,,,,,,,,,space,10.6038,4,"[""4""]",1,[13.780100000000033],[13.780100000000033],0,0,0,4,1,Practice,5,(2x6) - 8,4,,,,,,,,,,,,,,,,,,,,,,,,,,,,,,,,,,,,,,,,,,,,,,,,,,,,,,,,,,,,,,,,,,,,,,,,,,,
,,,,,,,,,,,,6140a2afeec61853de540a8b,20,Mężczyzna,2022-06-11_09h07.39.170,task,2021.1.4,Win32,60.21194605,6299f149e92ead563fba08ef,62a43f223f462cc8c863bab2,,,,,,,,,,,,,8,"[""8""]",1,[4.959099999999978],"[13.780100000000033,4.959099999999978]",0,1,1,8,1,Practice,9,(3x3) - 1,8,,,,,,,,,,,,,,,,,,,,,,,,,,,,,,,,,,,,,,,,,,,,,,,,,,,,,,,,,,,,,,,,,,,,,,,,,,,
,,,,,,,,,,,,6140a2afeec61853de540a8b,20,Mężczyzna,2022-06-11_09h07.39.170,task,2021.1.4,Win32,60.21194605,6299f149e92ead563fba08ef,62a43f223f462cc8c863bab2,,,,,,,,,,,,,7,"[""7""]",1,[3.9839999999999804],"[13.780100000000033,4.959099999999978,3.9839999999999804]",0,2,2,7,1,Practice,8,(5x5) - 18,7,,,,,,,,,,,,,,,,,,,,,,,,,,,,,,,,,,,,,,,,,,,,,,,,,,,,,,,,,,,,,,,,,,,,,,,,,,,
,,,,,,,,,,,,6140a2afeec61853de540a8b,20,Mężczyzna,2022-06-11_09h07.39.170,task,2021.1.4,Win32,60.21194605,6299f149e92ead563fba08ef,62a43f223f462cc8c863bab2,,,,,,,,,,,,,1,"[""1""]",1,[3.9440999999999917],"[13.780100000000033,4.959099999999978,3.9839999999999804,3.9440999999999917]",0,3,3,1,1,Practice,2,(4x4) - 15,1,,,,,,,,,,,,,,,,,,,,,,,,,,,,,,,,,,,,,,,,,,,,,,,,,,,,,,,,,,,,,,,,,,,,,,,,,,,
,,,,,,,,,,,,6140a2afeec61853de540a8b,20,Mężczyzna,2022-06-11_09h07.39.170,task,2021.1.4,Win32,60.21194605,6299f149e92ead563fba08ef,62a43f223f462cc8c863bab2,,,,,,,,,,,,,9,"[""9""]",1,[2.890199999999936],"[13.780100000000033,4.959099999999978,3.9839999999999804,3.9440999999999917,2.890199999999936]",0,4,4,9,1,Practice,10,(20/2) - 1,9,,,,,,,,,,,,,,,,,,,,,,,,,,,,,,,,,,,,,,,,,,,,,,,,,,,,,,,,,,,,,,,,,,,,,,,,,,,
,,,,,,,,,,,,6140a2afeec61853de540a8b,20,Mężczyzna,2022-06-11_09h07.39.170,task,2021.1.4,Win32,60.21194605,6299f149e92ead563fba08ef,62a43f223f462cc8c863bab2,,,,,,,,,,,,,2,"[""2""]",1,[2.845799999999997],"[13.780100000000033,4.959099999999978,3.9839999999999804,3.9440999999999917,2.890199999999936,2.845799999999997]",0,5,5,2,1,Practice,3,(4x4) - 14,2,,,,,,,,,,,,,,,,,,,,,,,,,,,,,,,,,,,,,,,,,,,,,,,,,,,,,,,,,,,,,,,,,,,,,,,,,,,
,,,,,,,,,,,,6140a2afeec61853de540a8b,20,Mężczyzna,2022-06-11_09h07.39.170,task,2021.1.4,Win32,60.21194605,6299f149e92ead563fba08ef,62a43f223f462cc8c863bab2,,,,,,,,,,,,,5,"[""5""]",1,[4.825699999999955],"[13.780100000000033,4.959099999999978,3.9839999999999804,3.9440999999999917,2.890199999999936,2.845799999999997,4.825699999999955]",0,6,6,5,1,Practice,6,(4/2) + 3,5,,,,,,,,,,,,,,,,,,,,,,,,,,,,,,,,,,,,,,,,,,,,,,,,,,,,,,,,,,,,,,,,,,,,,,,,,,,
,,,,,,,,,,,,6140a2afeec61853de540a8b,20,Mężczyzna,2022-06-11_09h07.39.170,task,2021.1.4,Win32,60.21194605,6299f149e92ead563fba08ef,62a43f223f462cc8c863bab2,,,,,,,,,,,,,6,"[""6""]",1,[3.824099999999987],"[13.780100000000033,4.959099999999978,3.9839999999999804,3.9440999999999917,2.890199999999936,2.845799999999997,4.825699999999955,3.824099999999987]",0,7,7,6,1,Practice,7,(25/5) + 1,6,,,,,,,,,,,,,,,,,,,,,,,,,,,,,,,,,,,,,,,,,,,,,,,,,,,,,,,,,,,,,,,,,,,,,,,,,,,
,,,,,,,,,,,,6140a2afeec61853de540a8b,20,Mężczyzna,2022-06-11_09h07.39.170,task,2021.1.4,Win32,60.21194605,6299f149e92ead563fba08ef,62a43f223f462cc8c863bab2,,,,,,,,,,,,,0,"[""0""]",1,[2.956799999999987],"[13.780100000000033,4.959099999999978,3.9839999999999804,3.9440999999999917,2.890199999999936,2.845799999999997,4.825699999999955,3.824099999999987,2.956799999999987]",0,8,8,0,1,Practice,1,(3x3) -  9,0,,,,,,,,,,,,,,,,,,,,,,,,,,,,,,,,,,,,,,,,,,,,,,,,,,,,,,,,,,,,,,,,,,,,,,,,,,,
,,,,,,,,,,,,6140a2afeec61853de540a8b,20,Mężczyzna,2022-06-11_09h07.39.170,task,2021.1.4,Win32,60.21194605,6299f149e92ead563fba08ef,62a43f223f462cc8c863bab2,,,,,,,,,,,,,3,"[""3""]",1,[3.2709999999999866],"[13.780100000000033,4.959099999999978,3.9839999999999804,3.9440999999999917,2.890199999999936,2.845799999999997,4.825699999999955,3.824099999999987,2.956799999999987,3.2709999999999866]",0,9,9,3,1,Practice,4,(8/4) + 1,3,,,,,,,,,,,,,,,,,,,,,,,,,,,,,,,,,,,,,,,,,,,,,,,,,,,,,,,,,,,,,,,,,,,,,,,,,,,
,,,,,,,,,,,,6140a2afeec61853de540a8b,20,Mężczyzna,2022-06-11_09h07.39.170,task,2021.1.4,Win32,60.21194605,6299f149e92ead563fba08ef,62a43f223f462cc8c863bab2,,,,,,,,,,,,,,,,,,,,,,,,,,,1,47.2809,3.15206,121.007427,2.840274951,10.47996937,space,1.813,0,0,0,0,1,,,,,,,,,,,,,,,,,,,,,,,,,,,,,,,,,,,,,,,,,,,,,,,,,,,,,,,,,,,,,,
,,,,,,,,,,,,6140a2afeec61853de540a8b,20,Mężczyzna,2022-06-11_09h07.39.170,task,2021.1.4,Win32,60.21194605,6299f149e92ead563fba08ef,62a43f223f462cc8c863bab2,,,,,,,,,,,,,8,,,,,,,,,,Practice,9,(3x3) - 1,8,,,,,,,,,,,,,,space,15.7437,"[""8""]",1,[5.6440000000000055],1,0,0,0,8,1,,,,,,,,,,,,,,,,,,,,,,,,,,,,,,,,,,,,,,,,,,,,,,,,,,,
,,,,,,,,,,,X V Q F H G B L J M P D K C T S W R N Z,6140a2afeec61853de540a8b,20,Mężczyzna,2022-06-11_09h07.39.170,task,2021.1.4,Win32,60.21194605,6299f149e92ead563fba08ef,62a43f223f462cc8c863bab2,,,,,,,,,,,,,,,,,,,,,,,,,,,,,,,,,,,,,,,,,,,,,,,,,,,0,0,0,0,1,,,,,,,,,,,,,,,,,,,,,,,,,,,,,,,,,,,,,,,,,,,,,,
,,,,,,,,,,,,6140a2afeec61853de540a8b,20,Mężczyzna,2022-06-11_09h07.39.170,task,2021.1.4,Win32,60.21194605,6299f149e92ead563fba08ef,62a43f223f462cc8c863bab2,,,,,,,,,,,,,5,,,,,,,,,,Practice,6,(4/2) + 3,5,,,,,,,,,,,,,,,,"[""5""]",1,[9.132400000000018],1,0,0,0,5,1,,,,,,,,,,,,,,,,,,,,,,,,,,,,,,,,,,,,,,,,,,,,,,,,,,,
,,,,,,,,,,,X V Q F H G B L J M P D K C T S W R N Z,6140a2afeec61853de540a8b,20,Mężczyzna,2022-06-11_09h07.39.170,task,2021.1.4,Win32,60.21194605,6299f149e92ead563fba08ef,62a43f223f462cc8c863bab2,,,,,,,,,,,,,,,,,,,,,,,,,,,,,,,,,,,,,,,,,,,,,,,,,,,1,0,1,0,1,,,,,,,,,,,,,,,,,,,,,,,,,,,,,,,,,,,,,,,,,,,,,,
,,,,,,,,,,,,6140a2afeec61853de540a8b,20,Mężczyzna,2022-06-11_09h07.39.170,task,2021.1.4,Win32,60.21194605,6299f149e92ead563fba08ef,62a43f223f462cc8c863bab2,,,,,,,,,,,,,,,,,,,,,,,,,,,,,,,,,,,,,,,,,,,,,,,,,,,,,,,,zb,"[""z"",""b""]",0,"[1.7199000000000524,1.9758000000000493,2.8000000000000114]",1,0,0,0,0,1,,,,,,,,,,,,,,,,,,,,,,,,,,,,,,,,,,,,
,,,,,,,,,,,,6140a2afeec61853de540a8b,20,Mężczyzna,2022-06-11_09h07.39.170,task,2021.1.4,Win32,60.21194605,6299f149e92ead563fba08ef,62a43f223f462cc8c863bab2,,,,,,,,,,,,,7,,,,,,,,,,Practice,8,(5x5) - 18,7,,,,,,,,,,,,,,,,"[""7""]",1,[4.122299999999882],1,0,0,0,7,1,,,,,,,,,,,,,,,,,,,,,,,,,,,,,,,,,,,,,,,,,,,,,,,,,,,
,,,,,,,,,,,X V Q F H G B L J M P D K C T S W R N Z,6140a2afeec61853de540a8b,20,Mężczyzna,2022-06-11_09h07.39.170,task,2021.1.4,Win32,60.21194605,6299f149e92ead563fba08ef,62a43f223f462cc8c863bab2,,,,,,,,,,,,,,,,,,,,,,,,,,,,,,,,,,,,,,,,,,,,,,,,,,,0,0,0,0,1,,,,,,,,,,,,,,,,,,,,,,,,,,,,,,,,,,,,,,,,,,,,,,
,,,,,,,,,,,,6140a2afeec61853de540a8b,20,Mężczyzna,2022-06-11_09h07.39.170,task,2021.1.4,Win32,60.21194605,6299f149e92ead563fba08ef,62a43f223f462cc8c863bab2,,,,,,,,,,,,,5,,,,,,,,,,Practice,6,(4/2) + 3,5,,,,,,,,,,,,,,,,"[""5""]",1,[3.7374000000000365],1,0,0,0,5,1,,,,,,,,,,,,,,,,,,,,,,,,,,,,,,,,,,,,,,,,,,,,,,,,,,,
,,,,,,,,,,,X V Q F H G B L J M P D K C T S W R N Z,6140a2afeec61853de540a8b,20,Mężczyzna,2022-06-11_09h07.39.170,task,2021.1.4,Win32,60.21194605,6299f149e92ead563fba08ef,62a43f223f462cc8c863bab2,,,,,,,,,,,,,,,,,,,,,,,,,,,,,,,,,,,,,,,,,,,,,,,,,,,1,0,1,0,1,,,,,,,,,,,,,,,,,,,,,,,,,,,,,,,,,,,,,,,,,,,,,,
,,,,,,,,,,,,6140a2afeec61853de540a8b,20,Mężczyzna,2022-06-11_09h07.39.170,task,2021.1.4,Win32,60.21194605,6299f149e92ead563fba08ef,62a43f223f462cc8c863bab2,,,,,,,,,,,,,,,,,,,,,,,,,,,,,,,,,,,,,,,,,,,,,,,,,,,,,,,,fh,"[""f"",""h""]",0,"[1.9034000000000333,2.0632000000000517,2.5674999999999955]",1,1,0,1,0,1,,,,,,,,,,,,,,,,,,,,,,,,,,,,,,,,,,,,
,,,,,,,,,,,,6140a2afeec61853de540a8b,20,Mężczyzna,2022-06-11_09h07.39.170,task,2021.1.4,Win32,60.21194605,6299f149e92ead563fba08ef,62a43f223f462cc8c863bab2,,,,,,,,,,,,,4,,,,,,,,,,Practice,5,(2x6) - 8,4,,,,,,,,,,,,,,,,"[""4""]",1,[6.615400000000022],1,0,0,0,4,1,,,,,,,,,,,,,,,,,,,,,,,,,,,,,,,,,,,,,,,,,,,,,,,,,,,
,,,,,,,,,,,X V Q F H G B L J M P D K C T S W R N Z,6140a2afeec61853de540a8b,20,Mężczyzna,2022-06-11_09h07.39.170,task,2021.1.4,Win32,60.21194605,6299f149e92ead563fba08ef,62a43f223f462cc8c863bab2,,,,,,,,,,,,,,,,,,,,,,,,,,,,,,,,,,,,,,,,,,,,,,,,,,,0,0,0,0,1,,,,,,,,,,,,,,,,,,,,,,,,,,,,,,,,,,,,,,,,,,,,,,
,,,,,,,,,,,,6140a2afeec61853de540a8b,20,Mężczyzna,2022-06-11_09h07.39.170,task,2021.1.4,Win32,60.21194605,6299f149e92ead563fba08ef,62a43f223f462cc8c863bab2,,,,,,,,,,,,,2,,,,,,,,,,Practice,3,(4x4) - 14,2,,,,,,,,,,,,,,,,"[""2""]",1,[3.9138999999999555],1,0,0,0,2,1,,,,,,,,,,,,,,,,,,,,,,,,,,,,,,,,,,,,,,,,,,,,,,,,,,,
,,,,,,,,,,,X V Q F H G B L J M P D K C T S W R N Z,6140a2afeec61853de540a8b,20,Mężczyzna,2022-06-11_09h07.39.170,task,2021.1.4,Win32,60.21194605,6299f149e92ead563fba08ef,62a43f223f462cc8c863bab2,,,,,,,,,,,,,,,,,,,,,,,,,,,,,,,,,,,,,,,,,,,,,,,,,,,1,0,1,0,1,,,,,,,,,,,,,,,,,,,,,,,,,,,,,,,,,,,,,,,,,,,,,,
,,,,,,,,,,,,6140a2afeec61853de540a8b,20,Mężczyzna,2022-06-11_09h07.39.170,task,2021.1.4,Win32,60.21194605,6299f149e92ead563fba08ef,62a43f223f462cc8c863bab2,,,,,,,,,,,,,,,,,,,,,,,,,,,,,,,,,,,,,,,,,,,,,,,,,,,,,,,,mr,"[""m"",""r""]",0,"[1.792199999999923,2.5439999999999827,3.288199999999904]",1,2,0,2,0,1,,,,,,,,,,,,,,,,,,,,,,,,,,,,,,,,,,,,
,,,,,,,,,,,,6140a2afeec61853de540a8b,20,Mężczyzna,2022-06-11_09h07.39.170,task,2021.1.4,Win32,60.21194605,6299f149e92ead563fba08ef,62a43f223f462cc8c863bab2,,,,,,,,,,,,,6,,,,,,,,,,Task,30,(6/3) + 4 ,6,,,,,,,,,,,,,,,,,,,1,,,,,,,,,,,,,,,,,,,,,space,74.7883,"[""6""]",1,[6.401499999999999],0,0,0,29,1,,,,,,,,,,,,,,,,,,,,,,,,,,
,,,,,,,,,,,X V Q F H G B L J M P D K C T S W R N Z,6140a2afeec61853de540a8b,20,Mężczyzna,2022-06-11_09h07.39.170,task,2021.1.4,Win32,60.21194605,6299f149e92ead563fba08ef,62a43f223f462cc8c863bab2,,,,,,,,,,,,,,,,,,,,,,,,,,,,,,,,,,,,,,,,,,,,,,,,,,,,,,,,,,,,,,,,,,,,,,,,,,,,0,0,0,0,1,,,,,,,,,,,,,,,,,,,,,
,,,,,,,,,,,,6140a2afeec61853de540a8b,20,Mężczyzna,2022-06-11_09h07.39.170,task,2021.1.4,Win32,60.21194605,6299f149e92ead563fba08ef,62a43f223f462cc8c863bab2,,,,,,,,,,,,,1,,,,,,,,,,Task,34,(9/3) - 2,1,,,,,,,,,,,,,,,,,,,1,,,,,,,,,,,,,,,,,,,,,,,"[""1""]",1,[7.027899999999988],0,0,0,33,1,,,,,,,,,,,,,,,,,,,,,,,,,,
,,,,,,,,,,,X V Q F H G B L J M P D K C T S W R N Z,6140a2afeec61853de540a8b,20,Mężczyzna,2022-06-11_09h07.39.170,task,2021.1.4,Win32,60.21194605,6299f149e92ead563fba08ef,62a43f223f462cc8c863bab2,,,,,,,,,,,,,,,,,,,,,,,,,,,,,,,,,,,,,,,,,,,,,,,,,,,,,,,,,,,,,,,,,,,,,,,,,,,,1,0,1,0,1,,,,,,,,,,,,,,,,,,,,,
,,,,,,,,,,,,6140a2afeec61853de540a8b,20,Mężczyzna,2022-06-11_09h07.39.170,task,2021.1.4,Win32,60.21194605,6299f149e92ead563fba08ef,62a43f223f462cc8c863bab2,,,,,,,,,,,,,,,,,,,,,,,,,,,,,,,,,,,,,,,,,,,,,,,,,,,,,,,,,,,,,,,,,,,,,,,,,,,,,,,,,zx,"[""z"",""x""]",0,"[1.6854000000000156,1.869199999999978,3.6374000000000137]",1,ZX,0,0,0,0,1,,,,,,,,,,
,,,,,,,,,,,,6140a2afeec61853de540a8b,20,Mężczyzna,2022-06-11_09h07.39.170,task,2021.1.4,Win32,60.21194605,6299f149e92ead563fba08ef,62a43f223f462cc8c863bab2,,,,,,,,,,,,,8,,,,,,,,,,Task,32,(8/2) + 4,8,,,,,,,,,,,,,,,,,,,1,,,,,,,,,,,,,,,,,,,,,,,"[""8""]",1,[5.334400000000073],0,0,0,31,1,,,,,,,,,,,,,,,,,,,,,,,,,,
,,,,,,,,,,,X V Q F H G B L J M P D K C T S W R N Z,6140a2afeec61853de540a8b,20,Mężczyzna,2022-06-11_09h07.39.170,task,2021.1.4,Win32,60.21194605,6299f149e92ead563fba08ef,62a43f223f462cc8c863bab2,,,,,,,,,,,,,,,,,,,,,,,,,,,,,,,,,,,,,,,,,,,,,,,,,,,,,,,,,,,,,,,,,,,,,,,,,,,,0,0,0,0,1,,,,,,,,,,,,,,,,,,,,,
,,,,,,,,,,,,6140a2afeec61853de540a8b,20,Mężczyzna,2022-06-11_09h07.39.170,task,2021.1.4,Win32,60.21194605,6299f149e92ead563fba08ef,62a43f223f462cc8c863bab2,,,,,,,,,,,,,2,,,,,,,,,,Task,26,(2x9) - 16,2,,,,,,,,,,,,,,,,,,,1,,,,,,,,,,,,,,,,,,,,,,,"[""2""]",1,[7.119299999999953],0,0,0,25,1,,,,,,,,,,,,,,,,,,,,,,,,,,
,,,,,,,,,,,X V Q F H G B L J M P D K C T S W R N Z,6140a2afeec61853de540a8b,20,Mężczyzna,2022-06-11_09h07.39.170,task,2021.1.4,Win32,60.21194605,6299f149e92ead563fba08ef,62a43f223f462cc8c863bab2,,,,,,,,,,,,,,,,,,,,,,,,,,,,,,,,,,,,,,,,,,,,,,,,,,,,,,,,,,,,,,,,,,,,,,,,,,,,1,0,1,0,1,,,,,,,,,,,,,,,,,,,,,
,,,,,,,,,,,,6140a2afeec61853de540a8b,20,Mężczyzna,2022-06-11_09h07.39.170,task,2021.1.4,Win32,60.21194605,6299f149e92ead563fba08ef,62a43f223f462cc8c863bab2,,,,,,,,,,,,,2,,,,,,,,,,Task,2,(2x2) - 2,2,,,,,,,,,,,,,,,,,,,1,,,,,,,,,,,,,,,,,,,,,,,"[""2""]",1,[5.364800000000059],0,0,0,1,1,,,,,,,,,,,,,,,,,,,,,,,,,,
,,,,,,,,,,,X V Q F H G B L J M P D K C T S W R N Z,6140a2afeec61853de540a8b,20,Mężczyzna,2022-06-11_09h07.39.170,task,2021.1.4,Win32,60.21194605,6299f149e92ead563fba08ef,62a43f223f462cc8c863bab2,,,,,,,,,,,,,,,,,,,,,,,,,,,,,,,,,,,,,,,,,,,,,,,,,,,,,,,,,,,,,,,,,,,,,,,,,,,,2,0,2,0,1,,,,,,,,,,,,,,,,,,,,,
,,,,,,,,,,,,6140a2afeec61853de540a8b,20,Mężczyzna,2022-06-11_09h07.39.170,task,2021.1.4,Win32,60.21194605,6299f149e92ead563fba08ef,62a43f223f462cc8c863bab2,,,,,,,,,,,,,,,,,,,,,,,,,,,,,,,,,,,,,,,,,,,,,,,,,,,,,,,,,,,,,,,,,,,,,,,,,,,,,,,,,gdj,"[""g"",""d"",""j""]",0,"[1.657199999999932,1.8996999999999389,2.2082999999999515,3.2165999999999713]",1,GDJ,1,0,1,0,1,,,,,,,,,,
,,,,,,,,,,,,6140a2afeec61853de540a8b,20,Mężczyzna,2022-06-11_09h07.39.170,task,2021.1.4,Win32,60.21194605,6299f149e92ead563fba08ef,62a43f223f462cc8c863bab2,,,,,,,,,,,,,0,,,,,,,,,,Task,33,(1/1) - 1,0,,,,,,,,,,,,,,,,,,,1,,,,,,,,,,,,,,,,,,,,,,,"[""0""]",1,[3.592700000000036],0,0,0,32,1,,,,,,,,,,,,,,,,,,,,,,,,,,
,,,,,,,,,,,X V Q F H G B L J M P D K C T S W R N Z,6140a2afeec61853de540a8b,20,Mężczyzna,2022-06-11_09h07.39.170,task,2021.1.4,Win32,60.21194605,6299f149e92ead563fba08ef,62a43f223f462cc8c863bab2,,,,,,,,,,,,,,,,,,,,,,,,,,,,,,,,,,,,,,,,,,,,,,,,,,,,,,,,,,,,,,,,,,,,,,,,,,,,0,0,0,0,1,,,,,,,,,,,,,,,,,,,,,
,,,,,,,,,,,,6140a2afeec61853de540a8b,20,Mężczyzna,2022-06-11_09h07.39.170,task,2021.1.4,Win32,60.21194605,6299f149e92ead563fba08ef,62a43f223f462cc8c863bab2,,,,,,,,,,,,,4,,,,,,,,,,Task,21,(10/2) - 1,4,,,,,,,,,,,,,,,,,,,1,,,,,,,,,,,,,,,,,,,,,,,"[""4""]",1,[4.25670000000008],0,0,0,20,1,,,,,,,,,,,,,,,,,,,,,,,,,,
,,,,,,,,,,,X V Q F H G B L J M P D K C T S W R N Z,6140a2afeec61853de540a8b,20,Mężczyzna,2022-06-11_09h07.39.170,task,2021.1.4,Win32,60.21194605,6299f149e92ead563fba08ef,62a43f223f462cc8c863bab2,,,,,,,,,,,,,,,,,,,,,,,,,,,,,,,,,,,,,,,,,,,,,,,,,,,,,,,,,,,,,,,,,,,,,,,,,,,,1,0,1,0,1,,,,,,,,,,,,,,,,,,,,,
,,,,,,,,,,,,6140a2afeec61853de540a8b,20,Mężczyzna,2022-06-11_09h07.39.170,task,2021.1.4,Win32,60.21194605,6299f149e92ead563fba08ef,62a43f223f462cc8c863bab2,,,,,,,,,,,,,3,,,,,,,,,,Task,20,(18/9) + 1,3,,,,,,,,,,,,,,,,,,,1,,,,,,,,,,,,,,,,,,,,,,,"[""3""]",1,[2.7243000000000848],0,0,0,19,1,,,,,,,,,,,,,,,,,,,,,,,,,,
,,,,,,,,,,,X V Q F H G B L J M P D K C T S W R N Z,6140a2afeec61853de540a8b,20,Mężczyzna,2022-06-11_09h07.39.170,task,2021.1.4,Win32,60.21194605,6299f149e92ead563fba08ef,62a43f223f462cc8c863bab2,,,,,,,,,,,,,,,,,,,,,,,,,,,,,,,,,,,,,,,,,,,,,,,,,,,,,,,,,,,,,,,,,,,,,,,,,,,,2,0,2,0,1,,,,,,,,,,,,,,,,,,,,,
,,,,,,,,,,,,6140a2afeec61853de540a8b,20,Mężczyzna,2022-06-11_09h07.39.170,task,2021.1.4,Win32,60.21194605,6299f149e92ead563fba08ef,62a43f223f462cc8c863bab2,,,,,,,,,,,,,2,,,,,,,,,,Task,19,(6/2) - 1,2,,,,,,,,,,,,,,,,,,,1,,,,,,,,,,,,,,,,,,,,,,,"[""2""]",1,[9.232600000000105],0,0,0,18,1,,,,,,,,,,,,,,,,,,,,,,,,,,
,,,,,,,,,,,X V Q F H G B L J M P D K C T S W R N Z,6140a2afeec61853de540a8b,20,Mężczyzna,2022-06-11_09h07.39.170,task,2021.1.4,Win32,60.21194605,6299f149e92ead563fba08ef,62a43f223f462cc8c863bab2,,,,,,,,,,,,,,,,,,,,,,,,,,,,,,,,,,,,,,,,,,,,,,,,,,,,,,,,,,,,,,,,,,,,,,,,,,,,3,0,3,0,1,,,,,,,,,,,,,,,,,,,,,
,,,,,,,,,,,,6140a2afeec61853de540a8b,20,Mężczyzna,2022-06-11_09h07.39.170,task,2021.1.4,Win32,60.21194605,6299f149e92ead563fba08ef,62a43f223f462cc8c863bab2,,,,,,,,,,,,,,,,,,,,,,,,,,,,,,,,,,,,,,,,,,,,,,,,,,,,,,,,,,,,,,,,,,,,,,,,,,,,,,,,,jhbq,"[""j"",""h"",""b"",""q""]",0,"[1.5493999999998778,2.2426999999999566,2.594699999999932,2.9237999999999147,3.7707999999998947]",1,JHBQ,2,0,2,0,1,,,,,,,,,,
,,,,,,,,,,,,6140a2afeec61853de540a8b,20,Mężczyzna,2022-06-11_09h07.39.170,task,2021.1.4,Win32,60.21194605,6299f149e92ead563fba08ef,62a43f223f462cc8c863bab2,,,,,,,,,,,,,2,,,,,,,,,,Task,2,(2x2) - 2,2,,,,,,,,,,,,,,,,,,,1,,,,,,,,,,,,,,,,,,,,,,,"[""2""]",1,[4.5996000000000095],0,0,0,1,1,,,,,,,,,,,,,,,,,,,,,,,,,,
,,,,,,,,,,,X V Q F H G B L J M P D K C T S W R N Z,6140a2afeec61853de540a8b,20,Mężczyzna,2022-06-11_09h07.39.170,task,2021.1.4,Win32,60.21194605,6299f149e92ead563fba08ef,62a43f223f462cc8c863bab2,,,,,,,,,,,,,,,,,,,,,,,,,,,,,,,,,,,,,,,,,,,,,,,,,,,,,,,,,,,,,,,,,,,,,,,,,,,,0,0,0,0,1,,,,,,,,,,,,,,,,,,,,,
,,,,,,,,,,,,6140a2afeec61853de540a8b,20,Mężczyzna,2022-06-11_09h07.39.170,task,2021.1.4,Win32,60.21194605,6299f149e92ead563fba08ef,62a43f223f462cc8c863bab2,,,,,,,,,,,,,,,,,,,,,,,Task,11,(18/3) - 2,4,,,,,,,,,,,,,,,,,,,0,,,,,,,,,,,,,,,,,,,,,,,,0,,0,0,0,10,1,,,,,,,,,,,,,,,,,,,,,,,,,,
,,,,,,,,,,,,6140a2afeec61853de540a8b,20,Mężczyzna,2022-06-11_09h07.39.170,task,2021.1.4,Win32,60.21194605,6299f149e92ead563fba08ef,62a43f223f462cc8c863bab2,,,,,,,,,,,,,3,,,,,,,,,,Task,3,(2x3) - 3,3,,,,,,,,,,,,,,,,,,,1,,,,,,,,,,,,,,,,,,,,,,,"[""3""]",1,[4.326600000000099],0,1,1,2,1,,,,,,,,,,,,,,,,,,,,,,,,,,
,,,,,,,,,,,X V Q F H G B L J M P D K C T S W R N Z,6140a2afeec61853de540a8b,20,Mężczyzna,2022-06-11_09h07.39.170,task,2021.1.4,Win32,60.21194605,6299f149e92ead563fba08ef,62a43f223f462cc8c863bab2,,,,,,,,,,,,,,,,,,,,,,,,,,,,,,,,,,,,,,,,,,,,,,,,,,,,,,,,,,,,,,,,,,,,,,,,,,,,1,0,1,0,1,,,,,,,,,,,,,,,,,,,,,
,,,,,,,,,,,,6140a2afeec61853de540a8b,20,Mężczyzna,2022-06-11_09h07.39.170,task,2021.1.4,Win32,60.21194605,6299f149e92ead563fba08ef,62a43f223f462cc8c863bab2,,,,,,,,,,,,,0,,,,,,,,,,Task,33,(1/1) - 1,0,,,,,,,,,,,,,,,,,,,1,,,,,,,,,,,,,,,,,,,,,,,"[""0""]",1,[5.5475999999999885],0,0,0,32,1,,,,,,,,,,,,,,,,,,,,,,,,,,
,,,,,,,,,,,X V Q F H G B L J M P D K C T S W R N Z,6140a2afeec61853de540a8b,20,Mężczyzna,2022-06-11_09h07.39.170,task,2021.1.4,Win32,60.21194605,6299f149e92ead563fba08ef,62a43f223f462cc8c863bab2,,,,,,,,,,,,,,,,,,,,,,,,,,,,,,,,,,,,,,,,,,,,,,,,,,,,,,,,,,,,,,,,,,,,,,,,,,,,2,0,2,0,1,,,,,,,,,,,,,,,,,,,,,
,,,,,,,,,,,,6140a2afeec61853de540a8b,20,Mężczyzna,2022-06-11_09h07.39.170,task,2021.1.4,Win32,60.21194605,6299f149e92ead563fba08ef,62a43f223f462cc8c863bab2,,,,,,,,,,,,,,,,,,,,,,,Task,29,(3x8) - 19 ,5,,,,,,,,,,,,,,,,,,,0,,,,,,,,,,,,,,,,,,,,,,,,0,,0,0,0,28,1,,,,,,,,,,,,,,,,,,,,,,,,,,
,,,,,,,,,,,,6140a2afeec61853de540a8b,20,Mężczyzna,2022-06-11_09h07.39.170,task,2021.1.4,Win32,60.21194605,6299f149e92ead563fba08ef,62a43f223f462cc8c863bab2,,,,,,,,,,,,,6,,,,,,,,,,Task,11,(18/3) - 2,4,,,,,,,,,,,,,,,,,,,0,,,,,,,,,,,,,,,,,,,,,,,"[""6""]",0,[4.185999999999922],0,1,1,10,1,,,,,,,,,,,,,,,,,,,,,,,,,,
,,,,,,,,,,,,6140a2afeec61853de540a8b,20,Mężczyzna,2022-06-11_09h07.39.170,task,2021.1.4,Win32,60.21194605,6299f149e92ead563fba08ef,62a43f223f462cc8c863bab2,,,,,,,,,,,,,8,,,,,,,,,,Task,38,(4x6) - 17,7,,,,,,,,,,,,,,,,,,,0,,,,,,,,,,,,,,,,,,,,,,,"[""8""]",0,[10.102800000000116],0,2,2,37,1,,,,,,,,,,,,,,,,,,,,,,,,,,
,,,,,,,,,,,,6140a2afeec61853de540a8b,20,Mężczyzna,2022-06-11_09h07.39.170,task,2021.1.4,Win32,60.21194605,6299f149e92ead563fba08ef,62a43f223f462cc8c863bab2,,,,,,,,,,,,,6,,,,,,,,,,Task,5,(2x3) + 0,6,,,,,,,,,,,,,,,,,,,1,,,,,,,,,,,,,,,,,,,,,,,"[""6""]",1,[6.244500000000016],0,3,3,4,1,,,,,,,,,,,,,,,,,,,,,,,,,,
,,,,,,,,,,,X V Q F H G B L J M P D K C T S W R N Z,6140a2afeec61853de540a8b,20,Mężczyzna,2022-06-11_09h07.39.170,task,2021.1.4,Win32,60.21194605,6299f149e92ead563fba08ef,62a43f223f462cc8c863bab2,,,,,,,,,,,,,,,,,,,,,,,,,,,,,,,,,,,,,,,,,,,,,,,,,,,,,,,,,,,,,,,,,,,,,,,,,,,,3,0,3,0,1,,,,,,,,,,,,,,,,,,,,,
,,,,,,,,,,,,6140a2afeec61853de540a8b,20,Mężczyzna,2022-06-11_09h07.39.170,task,2021.1.4,Win32,60.21194605,6299f149e92ead563fba08ef,62a43f223f462cc8c863bab2,,,,,,,,,,,,,4,,,,,,,,,,Task,27,(3/3) + 2,3,,,,,,,,,,,,,,,,,,,0,,,,,,,,,,,,,,,,,,,,,,,"[""4""]",0,[7.048600000000079],0,0,0,26,1,,,,,,,,,,,,,,,,,,,,,,,,,,
,,,,,,,,,,,,6140a2afeec61853de540a8b,20,Mężczyzna,2022-06-11_09h07.39.170,task,2021.1.4,Win32,60.21194605,6299f149e92ead563fba08ef,62a43f223f462cc8c863bab2,,,,,,,,,,,,,0,,,,,,,,,,Task,17,(2x3) - 6,0,,,,,,,,,,,,,,,,,,,1,,,,,,,,,,,,,,,,,,,,,,,"[""0""]",1,[5.949499999999944],0,1,1,16,1,,,,,,,,,,,,,,,,,,,,,,,,,,
,,,,,,,,,,,X V Q F H G B L J M P D K C T S W R N Z,6140a2afeec61853de540a8b,20,Mężczyzna,2022-06-11_09h07.39.170,task,2021.1.4,Win32,60.21194605,6299f149e92ead563fba08ef,62a43f223f462cc8c863bab2,,,,,,,,,,,,,,,,,,,,,,,,,,,,,,,,,,,,,,,,,,,,,,,,,,,,,,,,,,,,,,,,,,,,,,,,,,,,4,0,4,0,1,,,,,,,,,,,,,,,,,,,,,
,,,,,,,,,,,,6140a2afeec61853de540a8b,20,Mężczyzna,2022-06-11_09h07.39.170,task,2021.1.4,Win32,60.21194605,6299f149e92ead563fba08ef,62a43f223f462cc8c863bab2,,,,,,,,,,,,,,,,,,,,,,,,,,,,,,,,,,,,,,,,,,,,,,,,,,,,,,,,,,,,,,,,,,,,,,,,,,,,,,,,,vhrz,"[""v"",""h"",""r"",""z""]",0,"[2.272199999999998,3.6325999999999112,6.8075999999999794,7.316100000000006,8.649599999999964]",0,VHMRZ,3,0,3,0,1,,,,,,,,,,
,,,,,,,,,,,,6140a2afeec61853de540a8b,20,Mężczyzna,2022-06-11_09h07.39.170,task,2021.1.4,Win32,60.21194605,6299f149e92ead563fba08ef,62a43f223f462cc8c863bab2,,,,,,,,,,,,,8,,,,,,,,,,Task,32,(8/2) + 4,8,,,,,,,,,,,,,,,,,,,1,,,,,,,,,,,,,,,,,,,,,,,"[""8""]",1,[4.4838000000000875],0,0,0,31,1,,,,,,,,,,,,,,,,,,,,,,,,,,
,,,,,,,,,,,X V Q F H G B L J M P D K C T S W R N Z,6140a2afeec61853de540a8b,20,Mężczyzna,2022-06-11_09h07.39.170,task,2021.1.4,Win32,60.21194605,6299f149e92ead563fba08ef,62a43f223f462cc8c863bab2,,,,,,,,,,,,,,,,,,,,,,,,,,,,,,,,,,,,,,,,,,,,,,,,,,,,,,,,,,,,,,,,,,,,,,,,,,,,0,0,0,0,1,,,,,,,,,,,,,,,,,,,,,
,,,,,,,,,,,,6140a2afeec61853de540a8b,20,Mężczyzna,2022-06-11_09h07.39.170,task,2021.1.4,Win32,60.21194605,6299f149e92ead563fba08ef,62a43f223f462cc8c863bab2,,,,,,,,,,,,,0,,,,,,,,,,Task,8,(1x5) - 5,0,,,,,,,,,,,,,,,,,,,1,,,,,,,,,,,,,,,,,,,,,,,"[""0""]",1,[3.508100000000127],0,0,0,7,1,,,,,,,,,,,,,,,,,,,,,,,,,,
,,,,,,,,,,,X V Q F H G B L J M P D K C T S W R N Z,6140a2afeec61853de540a8b,20,Mężczyzna,2022-06-11_09h07.39.170,task,2021.1.4,Win32,60.21194605,6299f149e92ead563fba08ef,62a43f223f462cc8c863bab2,,,,,,,,,,,,,,,,,,,,,,,,,,,,,,,,,,,,,,,,,,,,,,,,,,,,,,,,,,,,,,,,,,,,,,,,,,,,1,0,1,0,1,,,,,,,,,,,,,,,,,,,,,
,,,,,,,,,,,,6140a2afeec61853de540a8b,20,Mężczyzna,2022-06-11_09h07.39.170,task,2021.1.4,Win32,60.21194605,6299f149e92ead563fba08ef,62a43f223f462cc8c863bab2,,,,,,,,,,,,,,,,,,,,,,,Task,38,(4x6) - 17,7,,,,,,,,,,,,,,,,,,,0,,,,,,,,,,,,,,,,,,,,,,,,0,,0,0,0,37,1,,,,,,,,,,,,,,,,,,,,,,,,,,
,,,,,,,,,,,,6140a2afeec61853de540a8b,20,Mężczyzna,2022-06-11_09h07.39.170,task,2021.1.4,Win32,60.21194605,6299f149e92ead563fba08ef,62a43f223f462cc8c863bab2,,,,,,,,,,,,,3,,,,,,,,,,Task,3,(2x3) - 3,3,,,,,,,,,,,,,,,,,,,1,,,,,,,,,,,,,,,,,,,,,,,"[""3""]",1,[4.5149000000000115],0,1,1,2,1,,,,,,,,,,,,,,,,,,,,,,,,,,
,,,,,,,,,,,X V Q F H G B L J M P D K C T S W R N Z,6140a2afeec61853de540a8b,20,Mężczyzna,2022-06-11_09h07.39.170,task,2021.1.4,Win32,60.21194605,6299f149e92ead563fba08ef,62a43f223f462cc8c863bab2,,,,,,,,,,,,,,,,,,,,,,,,,,,,,,,,,,,,,,,,,,,,,,,,,,,,,,,,,,,,,,,,,,,,,,,,,,,,2,0,2,0,1,,,,,,,,,,,,,,,,,,,,,
,,,,,,,,,,,,6140a2afeec61853de540a8b,20,Mężczyzna,2022-06-11_09h07.39.170,task,2021.1.4,Win32,60.21194605,6299f149e92ead563fba08ef,62a43f223f462cc8c863bab2,,,,,,,,,,,,,7,,,,,,,,,,Task,6,(12/2) + 1,7,,,,,,,,,,,,,,,,,,,1,,,,,,,,,,,,,,,,,,,,,,,"[""7""]",1,[3.373800000000074],0,0,0,5,1,,,,,,,,,,,,,,,,,,,,,,,,,,
,,,,,,,,,,,X V Q F H G B L J M P D K C T S W R N Z,6140a2afeec61853de540a8b,20,Mężczyzna,2022-06-11_09h07.39.170,task,2021.1.4,Win32,60.21194605,6299f149e92ead563fba08ef,62a43f223f462cc8c863bab2,,,,,,,,,,,,,,,,,,,,,,,,,,,,,,,,,,,,,,,,,,,,,,,,,,,,,,,,,,,,,,,,,,,,,,,,,,,,3,0,3,0,1,,,,,,,,,,,,,,,,,,,,,
,,,,,,,,,,,,6140a2afeec61853de540a8b,20,Mężczyzna,2022-06-11_09h07.39.170,task,2021.1.4,Win32,60.21194605,6299f149e92ead563fba08ef,62a43f223f462cc8c863bab2,,,,,,,,,,,,,4,,,,,,,,,,Task,11,(18/3) - 2,4,,,,,,,,,,,,,,,,,,,1,,,,,,,,,,,,,,,,,,,,,,,"[""4""]",1,[3.8150000000000546],0,0,0,10,1,,,,,,,,,,,,,,,,,,,,,,,,,,
,,,,,,,,,,,X V Q F H G B L J M P D K C T S W R N Z,6140a2afeec61853de540a8b,20,Mężczyzna,2022-06-11_09h07.39.170,task,2021.1.4,Win32,60.21194605,6299f149e92ead563fba08ef,62a43f223f462cc8c863bab2,,,,,,,,,,,,,,,,,,,,,,,,,,,,,,,,,,,,,,,,,,,,,,,,,,,,,,,,,,,,,,,,,,,,,,,,,,,,4,0,4,0,1,,,,,,,,,,,,,,,,,,,,,
,,,,,,,,,,,,6140a2afeec61853de540a8b,20,Mężczyzna,2022-06-11_09h07.39.170,task,2021.1.4,Win32,60.21194605,6299f149e92ead563fba08ef,62a43f223f462cc8c863bab2,,,,,,,,,,,,,,,,,,,,,,,,,,,,,,,,,,,,,,,,,,,,,,,,,,,,,,,,,,,,,,,,,,,,,,,,,,,,,,,,,vhrhn,"[""v"",""h"",""r"",""h"",""n""]",0,"[1.7549000000000206,2.138400000000047,2.586400000000026,3.1702000000000226,4.026200000000017,5.316400000000044]",1,VHRHN,4,0,4,0,1,,,,,,,,,,
,,,,,,,,,,,,6140a2afeec61853de540a8b,20,Mężczyzna,2022-06-11_09h07.39.170,task,2021.1.4,Win32,60.21194605,6299f149e92ead563fba08ef,62a43f223f462cc8c863bab2,,,,,,,,,,,,,3,,,,,,,,,,Task,35,(1x2) + 1,3,,,,,,,,,,,,,,,,,,,1,,,,,,,,,,,,,,,,,,,,,,,"[""3""]",1,[2.8396999999998798],0,0,0,34,1,,,,,,,,,,,,,,,,,,,,,,,,,,
,,,,,,,,,,,X V Q F H G B L J M P D K C T S W R N Z,6140a2afeec61853de540a8b,20,Mężczyzna,2022-06-11_09h07.39.170,task,2021.1.4,Win32,60.21194605,6299f149e92ead563fba08ef,62a43f223f462cc8c863bab2,,,,,,,,,,,,,,,,,,,,,,,,,,,,,,,,,,,,,,,,,,,,,,,,,,,,,,,,,,,,,,,,,,,,,,,,,,,,0,0,0,0,1,,,,,,,,,,,,,,,,,,,,,
,,,,,,,,,,,,6140a2afeec61853de540a8b,20,Mężczyzna,2022-06-11_09h07.39.170,task,2021.1.4,Win32,60.21194605,6299f149e92ead563fba08ef,62a43f223f462cc8c863bab2,,,,,,,,,,,,,8,,,,,,,,,,Task,32,(8/2) + 4,8,,,,,,,,,,,,,,,,,,,1,,,,,,,,,,,,,,,,,,,,,,,"[""8""]",1,[4.943699999999922],0,0,0,31,1,,,,,,,,,,,,,,,,,,,,,,,,,,
,,,,,,,,,,,X V Q F H G B L J M P D K C T S W R N Z,6140a2afeec61853de540a8b,20,Mężczyzna,2022-06-11_09h07.39.170,task,2021.1.4,Win32,60.21194605,6299f149e92ead563fba08ef,62a43f223f462cc8c863bab2,,,,,,,,,,,,,,,,,,,,,,,,,,,,,,,,,,,,,,,,,,,,,,,,,,,,,,,,,,,,,,,,,,,,,,,,,,,,1,0,1,0,1,,,,,,,,,,,,,,,,,,,,,
,,,,,,,,,,,,6140a2afeec61853de540a8b,20,Mężczyzna,2022-06-11_09h07.39.170,task,2021.1.4,Win32,60.21194605,6299f149e92ead563fba08ef,62a43f223f462cc8c863bab2,,,,,,,,,,,,,8,,,,,,,,,,Task,39,(5x3) - 7,8,,,,,,,,,,,,,,,,,,,1,,,,,,,,,,,,,,,,,,,,,,,"[""8""]",1,[5.636700000000019],0,0,0,38,1,,,,,,,,,,,,,,,,,,,,,,,,,,
,,,,,,,,,,,X V Q F H G B L J M P D K C T S W R N Z,6140a2afeec61853de540a8b,20,Mężczyzna,2022-06-11_09h07.39.170,task,2021.1.4,Win32,60.21194605,6299f149e92ead563fba08ef,62a43f223f462cc8c863bab2,,,,,,,,,,,,,,,,,,,,,,,,,,,,,,,,,,,,,,,,,,,,,,,,,,,,,,,,,,,,,,,,,,,,,,,,,,,,2,0,2,0,1,,,,,,,,,,,,,,,,,,,,,
,,,,,,,,,,,,6140a2afeec61853de540a8b,20,Mężczyzna,2022-06-11_09h07.39.170,task,2021.1.4,Win32,60.21194605,6299f149e92ead563fba08ef,62a43f223f462cc8c863bab2,,,,,,,,,,,,,8,,,,,,,,,,Task,23,(2x3) + 2,8,,,,,,,,,,,,,,,,,,,1,,,,,,,,,,,,,,,,,,,,,,,"[""8""]",1,[3.033700000000067],0,0,0,22,1,,,,,,,,,,,,,,,,,,,,,,,,,,
,,,,,,,,,,,X V Q F H G B L J M P D K C T S W R N Z,6140a2afeec61853de540a8b,20,Mężczyzna,2022-06-11_09h07.39.170,task,2021.1.4,Win32,60.21194605,6299f149e92ead563fba08ef,62a43f223f462cc8c863bab2,,,,,,,,,,,,,,,,,,,,,,,,,,,,,,,,,,,,,,,,,,,,,,,,,,,,,,,,,,,,,,,,,,,,,,,,,,,,3,0,3,0,1,,,,,,,,,,,,,,,,,,,,,
,,,,,,,,,,,,6140a2afeec61853de540a8b,20,Mężczyzna,2022-06-11_09h07.39.170,task,2021.1.4,Win32,60.21194605,6299f149e92ead563fba08ef,62a43f223f462cc8c863bab2,,,,,,,,,,,,,1,,,,,,,,,,Task,18,(16/4) - 3,1,,,,,,,,,,,,,,,,,,,1,,,,,,,,,,,,,,,,,,,,,,,"[""1""]",1,[5.6715999999998985],0,0,0,17,1,,,,,,,,,,,,,,,,,,,,,,,,,,
,,,,,,,,,,,X V Q F H G B L J M P D K C T S W R N Z,6140a2afeec61853de540a8b,20,Mężczyzna,2022-06-11_09h07.39.170,task,2021.1.4,Win32,60.21194605,6299f149e92ead563fba08ef,62a43f223f462cc8c863bab2,,,,,,,,,,,,,,,,,,,,,,,,,,,,,,,,,,,,,,,,,,,,,,,,,,,,,,,,,,,,,,,,,,,,,,,,,,,,4,0,4,0,1,,,,,,,,,,,,,,,,,,,,,
,,,,,,,,,,,,6140a2afeec61853de540a8b,20,Mężczyzna,2022-06-11_09h07.39.170,task,2021.1.4,Win32,60.21194605,6299f149e92ead563fba08ef,62a43f223f462cc8c863bab2,,,,,,,,,,,,,6,,,,,,,,,,Task,30,(6/3) + 4 ,6,,,,,,,,,,,,,,,,,,,1,,,,,,,,,,,,,,,,,,,,,,,"[""6""]",1,[6.102600000000052],0,0,0,29,1,,,,,,,,,,,,,,,,,,,,,,,,,,
,,,,,,,,,,,X V Q F H G B L J M P D K C T S W R N Z,6140a2afeec61853de540a8b,20,Mężczyzna,2022-06-11_09h07.39.170,task,2021.1.4,Win32,60.21194605,6299f149e92ead563fba08ef,62a43f223f462cc8c863bab2,,,,,,,,,,,,,,,,,,,,,,,,,,,,,,,,,,,,,,,,,,,,,,,,,,,,,,,,,,,,,,,,,,,,,,,,,,,,5,0,5,0,1,,,,,,,,,,,,,,,,,,,,,
,,,,,,,,,,,,6140a2afeec61853de540a8b,20,Mężczyzna,2022-06-11_09h07.39.170,task,2021.1.4,Win32,60.21194605,6299f149e92ead563fba08ef,62a43f223f462cc8c863bab2,,,,,,,,,,,,,,,,,,,,,,,,,,,,,,,,,,,,,,,,,,,,,,,,,,,,,,,,,,,,,,,,,,,,,,,,,,,,,,,,,rlptkq,"[""r"",""l"",""p"",""t"",""k"",""q""]",0,"[1.2785000000000082,1.4495000000000573,2.134400000000028,2.6677000000000817,4.5422000000000935,4.867500000000064,5.542500000000018]",0,RLPKTQ,5,0,5,0,1,,,,,,,,,,
,,,,,,,,,,,,6140a2afeec61853de540a8b,20,Mężczyzna,2022-06-11_09h07.39.170,task,2021.1.4,Win32,60.21194605,6299f149e92ead563fba08ef,62a43f223f462cc8c863bab2,,,,,,,,,,,,,5,,,,,,,,,,Task,36,(8/4) + 3,5,,,,,,,,,,,,,,,,,,,1,,,,,,,,,,,,,,,,,,,,,,,"[""5""]",1,[3.8005999999999176],0,0,0,35,1,,,,,,,,,,,,,,,,,,,,,,,,,,
,,,,,,,,,,,X V Q F H G B L J M P D K C T S W R N Z,6140a2afeec61853de540a8b,20,Mężczyzna,2022-06-11_09h07.39.170,task,2021.1.4,Win32,60.21194605,6299f149e92ead563fba08ef,62a43f223f462cc8c863bab2,,,,,,,,,,,,,,,,,,,,,,,,,,,,,,,,,,,,,,,,,,,,,,,,,,,,,,,,,,,,,,,,,,,,,,,,,,,,0,0,0,0,1,,,,,,,,,,,,,,,,,,,,,
,,,,,,,,,,,,6140a2afeec61853de540a8b,20,Mężczyzna,2022-06-11_09h07.39.170,task,2021.1.4,Win32,60.21194605,6299f149e92ead563fba08ef,62a43f223f462cc8c863bab2,,,,,,,,,,,,,4,,,,,,,,,,Task,11,(18/3) - 2,4,,,,,,,,,,,,,,,,,,,1,,,,,,,,,,,,,,,,,,,,,,,"[""4""]",1,[7.54180000000008],0,0,0,10,1,,,,,,,,,,,,,,,,,,,,,,,,,,
,,,,,,,,,,,X V Q F H G B L J M P D K C T S W R N Z,6140a2afeec61853de540a8b,20,Mężczyzna,2022-06-11_09h07.39.170,task,2021.1.4,Win32,60.21194605,6299f149e92ead563fba08ef,62a43f223f462cc8c863bab2,,,,,,,,,,,,,,,,,,,,,,,,,,,,,,,,,,,,,,,,,,,,,,,,,,,,,,,,,,,,,,,,,,,,,,,,,,,,1,0,1,0,1,,,,,,,,,,,,,,,,,,,,,
,,,,,,,,,,,,6140a2afeec61853de540a8b,20,Mężczyzna,2022-06-11_09h07.39.170,task,2021.1.4,Win32,60.21194605,6299f149e92ead563fba08ef,62a43f223f462cc8c863bab2,,,,,,,,,,,,,4,,,,,,,,,,Task,11,(18/3) - 2,4,,,,,,,,,,,,,,,,,,,1,,,,,,,,,,,,,,,,,,,,,,,"[""4""]",1,[5.170699999999897],0,0,0,10,1,,,,,,,,,,,,,,,,,,,,,,,,,,
,,,,,,,,,,,X V Q F H G B L J M P D K C T S W R N Z,6140a2afeec61853de540a8b,20,Mężczyzna,2022-06-11_09h07.39.170,task,2021.1.4,Win32,60.21194605,6299f149e92ead563fba08ef,62a43f223f462cc8c863bab2,,,,,,,,,,,,,,,,,,,,,,,,,,,,,,,,,,,,,,,,,,,,,,,,,,,,,,,,,,,,,,,,,,,,,,,,,,,,2,0,2,0,1,,,,,,,,,,,,,,,,,,,,,
,,,,,,,,,,,,6140a2afeec61853de540a8b,20,Mężczyzna,2022-06-11_09h07.39.170,task,2021.1.4,Win32,60.21194605,6299f149e92ead563fba08ef,62a43f223f462cc8c863bab2,,,,,,,,,,,,,7,,,,,,,,,,Task,14,(2x2) + 3,7,,,,,,,,,,,,,,,,,,,1,,,,,,,,,,,,,,,,,,,,,,,"[""7""]",1,[6.62519999999995],0,0,0,13,1,,,,,,,,,,,,,,,,,,,,,,,,,,
,,,,,,,,,,,X V Q F H G B L J M P D K C T S W R N Z,6140a2afeec61853de540a8b,20,Mężczyzna,2022-06-11_09h07.39.170,task,2021.1.4,Win32,60.21194605,6299f149e92ead563fba08ef,62a43f223f462cc8c863bab2,,,,,,,,,,,,,,,,,,,,,,,,,,,,,,,,,,,,,,,,,,,,,,,,,,,,,,,,,,,,,,,,,,,,,,,,,,,,3,0,3,0,1,,,,,,,,,,,,,,,,,,,,,
,,,,,,,,,,,,6140a2afeec61853de540a8b,20,Mężczyzna,2022-06-11_09h07.39.170,task,2021.1.4,Win32,60.21194605,6299f149e92ead563fba08ef,62a43f223f462cc8c863bab2,,,,,,,,,,,,,2,,,,,,,,,,Task,2,(2x2) - 2,2,,,,,,,,,,,,,,,,,,,1,,,,,,,,,,,,,,,,,,,,,,,"[""2""]",1,[3.2923000000000684],0,0,0,1,1,,,,,,,,,,,,,,,,,,,,,,,,,,
,,,,,,,,,,,X V Q F H G B L J M P D K C T S W R N Z,6140a2afeec61853de540a8b,20,Mężczyzna,2022-06-11_09h07.39.170,task,2021.1.4,Win32,60.21194605,6299f149e92ead563fba08ef,62a43f223f462cc8c863bab2,,,,,,,,,,,,,,,,,,,,,,,,,,,,,,,,,,,,,,,,,,,,,,,,,,,,,,,,,,,,,,,,,,,,,,,,,,,,4,0,4,0,1,,,,,,,,,,,,,,,,,,,,,
,,,,,,,,,,,,6140a2afeec61853de540a8b,20,Mężczyzna,2022-06-11_09h07.39.170,task,2021.1.4,Win32,60.21194605,6299f149e92ead563fba08ef,62a43f223f462cc8c863bab2,,,,,,,,,,,,,4,,,,,,,,,,Task,21,(10/2) - 1,4,,,,,,,,,,,,,,,,,,,1,,,,,,,,,,,,,,,,,,,,,,,"[""4""]",1,[4.849099999999908],0,0,0,20,1,,,,,,,,,,,,,,,,,,,,,,,,,,
,,,,,,,,,,,X V Q F H G B L J M P D K C T S W R N Z,6140a2afeec61853de540a8b,20,Mężczyzna,2022-06-11_09h07.39.170,task,2021.1.4,Win32,60.21194605,6299f149e92ead563fba08ef,62a43f223f462cc8c863bab2,,,,,,,,,,,,,,,,,,,,,,,,,,,,,,,,,,,,,,,,,,,,,,,,,,,,,,,,,,,,,,,,,,,,,,,,,,,,5,0,5,0,1,,,,,,,,,,,,,,,,,,,,,
,,,,,,,,,,,,6140a2afeec61853de540a8b,20,Mężczyzna,2022-06-11_09h07.39.170,task,2021.1.4,Win32,60.21194605,6299f149e92ead563fba08ef,62a43f223f462cc8c863bab2,,,,,,,,,,,,,,,,,,,,,,,,,,,,,,,,,,,,,,,,,,,,,,,,,,,,,,,,,,,,,,,,,,,,,,,,,,,,,,,,,tfpghp,"[""t"",""f"",""p"",""g"",""h"",""p""]",0,"[2.356899999999996,2.924199999999928,3.972499999999968,4.8286999999999125,5.188300000000027,6.789300000000026,10.236099999999965]",0,TFPGHF,6,0,6,0,1,,,,,,,,,,
,,,,,,,,,,,,6140a2afeec61853de540a8b,20,Mężczyzna,2022-06-11_09h07.39.170,task,2021.1.4,Win32,60.21194605,6299f149e92ead563fba08ef,62a43f223f462cc8c863bab2,,,,,,,,,,,,,,,,,,,,,,,,,,,,,,,,,,,,,,,,,,,,,,,,,,,,,,,,,,,,,,,,,,,,,,,,,,,,,,,,,,,,,,,,,,,,,0,0,0,0,0,1,,,
,,,,,,,,,,,,6140a2afeec61853de540a8b,20,Mężczyzna,2022-06-11_09h07.39.170,task,2021.1.4,Win32,60.21194605,6299f149e92ead563fba08ef,62a43f223f462cc8c863bab2,,,,,,,,,,,,,,,,,,,,,,,,,,,,,,,,,,,,,,,,,,,,,,,,,,,,,,,,,,,,,,,,,,,,,,,,,,,,,,,,,,,,,,,,,,,,"[""period""]",0,1,0,1,0,1,[0.5688000000000102],,
,,,,,,,,,,,,6140a2afeec61853de540a8b,20,Mężczyzna,2022-06-11_09h07.39.170,task,2021.1.4,Win32,60.21194605,6299f149e92ead563fba08ef,62a43f223f462cc8c863bab2,,,,,,,,,,,,,,,,,,,,,,,,,,,,,,,,,,,,,,,,,,,,,,,,,,,,,,,,,,,,,,,,,,,,,,,,,,,,,,,,,,,,,,,,,,,,"[""comma""]",0,2,0,2,0,1,[0.5513999999999442],,
,,,,,,,,,,,,6140a2afeec61853de540a8b,20,Mężczyzna,2022-06-11_09h07.39.170,task,2021.1.4,Win32,60.21194605,6299f149e92ead563fba08ef,62a43f223f462cc8c863bab2,,,,,,,,,,,,,,,,,,,,,,,,,,,,,,,,,,,,,,,,,,,,,,,,,,,,,,,,,,,,,,,,,,,,,,,,,,,,,,,,,,,,,,,,,,,,"[""period""]",0,3,0,3,0,1,[0.7529000000000678],,
,,,,,,,,,,,,6140a2afeec61853de540a8b,20,Mężczyzna,2022-06-11_09h07.39.170,task,2021.1.4,Win32,60.21194605,6299f149e92ead563fba08ef,62a43f223f462cc8c863bab2,,,,,,,,,,,,,,,,,,,,,,,,,,,,,,,,,,,,,,,,,,,,,,,,,,,,,,,,,,,,,,,,,,,,,,,,,,,,,,,,,,,,,,,,,,,,"[""period""]",0,4,0,4,0,1,[0.9207999999999856],,
,,,,,,,,,,,,6140a2afeec61853de540a8b,20,Mężczyzna,2022-06-11_09h07.39.170,task,2021.1.4,Win32,60.21194605,6299f149e92ead563fba08ef,62a43f223f462cc8c863bab2,,,,,,,,,,,,,,,,,,,,,,,,,,,,,,,,,,,,,,,,,,,,,,,,,,,,,,,,,,,,,,,,,,,,,,,,,,,,,,,,,,,,,,,,,,,,"[""comma""]",0,5,0,5,0,1,[0.849700000000098],,
,,,,,,,,,,,,6140a2afeec61853de540a8b,20,Mężczyzna,2022-06-11_09h07.39.170,task,2021.1.4,Win32,60.21194605,6299f149e92ead563fba08ef,62a43f223f462cc8c863bab2,,,,,,,,,,,,,,,,,,,,,,,,,,,,,,,,,,,,,,,,,,,,,,,,,,,,,,,,,,,,,,,,,,,,,,,,,,,,,,,,,,,,,,,,,,,,"[""comma""]",0,6,0,6,0,1,[0.8567000000000462],,
,,,,,,,,,,,,6140a2afeec61853de540a8b,20,Mężczyzna,2022-06-11_09h07.39.170,task,2021.1.4,Win32,60.21194605,6299f149e92ead563fba08ef,62a43f223f462cc8c863bab2,,,,,,,,,,,,,,,,,,,,,,,,,,,,,,,,,,,,,,,,,,,,,,,,,,,,,,,,,,,,,,,,,,,,,,,,,,,,,,,,,,,,,,,,,,,,"[""comma""]",0,7,0,7,0,1,[0.7287000000000035],,
,,,,,,,,,,,,6140a2afeec61853de540a8b,20,Mężczyzna,2022-06-11_09h07.39.170,task,2021.1.4,Win32,60.21194605,6299f149e92ead563fba08ef,62a43f223f462cc8c863bab2,,,,,,,,,,,,,,,,,,,,,,,,,,,,,,,,,,,,,,,,,,,,,,,,,,,,,,,,,,,,,,,,,,,,,,,,,,,,,,,,,,,,,,,,,,,,"[""period""]",0,8,0,8,0,1,[0.6005999999999858],,
,,,,,,,,,,,,6140a2afeec61853de540a8b,20,Mężczyzna,2022-06-11_09h07.39.170,task,2021.1.4,Win32,60.21194605,6299f149e92ead563fba08ef,62a43f223f462cc8c863bab2,,,,,,,,,,,,,,,,,,,,,,,,,,,,,,,,,,,,,,,,,,,,,,,,,,,,,,,,,,,,,,,,,,,,,,,,,,,,,,,,,,,,,,,,,,,,"[""period""]",0,9,0,9,0,1,[1.016300000000001],,
,,,,,,,,,,,,6140a2afeec61853de540a8b,20,Mężczyzna,2022-06-11_09h07.39.170,task,2021.1.4,Win32,60.21194605,6299f149e92ead563fba08ef,62a43f223f462cc8c863bab2,,,,,,,,,,,,,,,,,,,,,,,,,,,,,,,,,,,,,,,,,,,,,,,,,,,,,,,,,,,,,,,,,,,,,,,,,,,,,,,,,,,,,,,,,,,,"[""period""]",0,10,0,10,0,1,[0.9611999999999625],,
,,,,,,,,,,,,6140a2afeec61853de540a8b,20,Mężczyzna,2022-06-11_09h07.39.170,task,2021.1.4,Win32,60.21194605,6299f149e92ead563fba08ef,62a43f223f462cc8c863bab2,,,,,,,,,,,,,,,,,,,,,,,,,,,,,,,,,,,,,,,,,,,,,,,,,,,,,,,,,,,,,,,,,,,,,,,,,,,,,,,,,,,,,,,,,,,,"[""comma""]",0,11,0,11,0,1,[0.8840999999999894],,
,,,,,,,,,,,,6140a2afeec61853de540a8b,20,Mężczyzna,2022-06-11_09h07.39.170,task,2021.1.4,Win32,60.21194605,6299f149e92ead563fba08ef,62a43f223f462cc8c863bab2,,,,,,,,,,,,,,,,,,,,,,,,,,,,,,,,,,,,,,,,,,,,,,,,,,,,,,,,,,,,,,,,,,,,,,,,,,,,,,,,,,,,,,,,,,,,"[""period""]",0,12,0,12,0,1,[0.6725999999999885],,
,,,,,,,,,,,,6140a2afeec61853de540a8b,20,Mężczyzna,2022-06-11_09h07.39.170,task,2021.1.4,Win32,60.21194605,6299f149e92ead563fba08ef,62a43f223f462cc8c863bab2,,,,,,,,,,,,,,,,,,,,,,,,,,,,,,,,,,,,,,,,,,,,,,,,,,,,,,,,,,,,,,,,,,,,,,,,,,,,,,,,,,,,,,,,,,,,"[""period""]",0,13,0,13,0,1,[0.7989000000000033],,
,,,,,,,,,,,,6140a2afeec61853de540a8b,20,Mężczyzna,2022-06-11_09h07.39.170,task,2021.1.4,Win32,60.21194605,6299f149e92ead563fba08ef,62a43f223f462cc8c863bab2,,,,,,,,,,,,,,,,,,,,,,,,,,,,,,,,,,,,,,,,,,,,,,,,,,,,,,,,,,,,,,,,,,,,,,,,,,,,,,,,,,,,,,,,,,,,"[""period""]",0,14,0,14,0,1,[0.6724000000000387],,
,,,,,,,,,,,,6140a2afeec61853de540a8b,20,Mężczyzna,2022-06-11_09h07.39.170,task,2021.1.4,Win32,60.21194605,6299f149e92ead563fba08ef,62a43f223f462cc8c863bab2,,,,,,,,,,,,,,,,,,,,,,,,,,,,,,,,,,,,,,,,,,,,,,,,,,,,,,,,,,,,,,,,,,,,,,,,,,,,,,,,,,,,,,,,,,,,"[""comma""]",0,15,0,15,0,1,[0.47250000000008185],,
,,,,,,,,,,,,6140a2afeec61853de540a8b,20,Mężczyzna,2022-06-11_09h07.39.170,task,2021.1.4,Win32,60.21194605,6299f149e92ead563fba08ef,62a43f223f462cc8c863bab2,,,,,,,,,,,,,,,,,,,,,,,,,,,,,,,,,,,,,,,,,,,,,,,,,,,,,,,,,,,,,,,,,,,,,,,,,,,,,,,,,,,,,,,,,,,,"[""comma""]",0,16,0,16,0,1,[0.3926999999999907],,
,,,,,,,,,,,,6140a2afeec61853de540a8b,20,Mężczyzna,2022-06-11_09h07.39.170,task,2021.1.4,Win32,60.21194605,6299f149e92ead563fba08ef,62a43f223f462cc8c863bab2,,,,,,,,,,,,,,,,,,,,,,,,,,,,,,,,,,,,,,,,,,,,,,,,,,,,,,,,,,,,,,,,,,,,,,,,,,,,,,,,,,,,,,,,,,,,"[""comma""]",0,17,0,17,0,1,[0.3508999999999105],,
,,,,,,,,,,,,6140a2afeec61853de540a8b,20,Mężczyzna,2022-06-11_09h07.39.170,task,2021.1.4,Win32,60.21194605,6299f149e92ead563fba08ef,62a43f223f462cc8c863bab2,,,,,,,,,,,,,,,,,,,,,,,,,,,,,,,,,,,,,,,,,,,,,,,,,,,,,,,,,,,,,,,,,,,,,,,,,,,,,,,,,,,,,,,,,,,,"[""period""]",0,18,0,18,0,1,[0.2403999999999087],,
,,,,,,,,,,,,6140a2afeec61853de540a8b,20,Mężczyzna,2022-06-11_09h07.39.170,task,2021.1.4,Win32,60.21194605,6299f149e92ead563fba08ef,62a43f223f462cc8c863bab2,,,,,,,,,,,,,,,,,,,,,,,,,,,,,,,,,,,,,,,,,,,,,,,,,,,,,,,,,,,,,,,,,,,,,,,,,,,,,,,,,,,,,,,,,,,,"[""comma""]",0,19,0,19,0,1,[-0.007599999999911233],,
,,,,,,,,,,,,6140a2afeec61853de540a8b,20,Mężczyzna,2022-06-11_09h07.39.170,task,2021.1.4,Win32,60.21194605,6299f149e92ead563fba08ef,62a43f223f462cc8c863bab2,,,,,,,,,,,,,,,,,,,,,,,,,,,,,,,,,,,,,,,,,,,,,,,,,,,,,,,,,,,,,,,,,,,,,,,,,,,,,,,,,,,,,,,,,,,,"[""period""]",0,20,0,20,0,1,[0.2660000000000764],,
,,,,,,,,,,,,6140a2afeec61853de540a8b,20,Mężczyzna,2022-06-11_09h07.39.170,task,2021.1.4,Win32,60.21194605,6299f149e92ead563fba08ef,62a43f223f462cc8c863bab2,,,,,,,,,,,,,,,,,,,,,,,,,,,,,,,,,,,,,,,,,,,,,,,,,,,,,,,,,,,,,,,,,,,,,,,,,,,,,,,,,,,,,,,,,,,,"[""comma""]",0,21,0,21,0,1,[0.3686999999999898],,
,,,,,,,,,,,,6140a2afeec61853de540a8b,20,Mężczyzna,2022-06-11_09h07.39.170,task,2021.1.4,Win32,60.21194605,6299f149e92ead563fba08ef,62a43f223f462cc8c863bab2,,,,,,,,,,,,,,,,,,,,,,,,,,,,,,,,,,,,,,,,,,,,,,,,,,,,,,,,,,,,,,,,,,,,,,,,,,,,,,,,,,,,,,,,,,,,"[""comma""]",0,22,0,22,0,1,[0.3846999999999525],,
,,,,,,,,,,,,6140a2afeec61853de540a8b,20,Mężczyzna,2022-06-11_09h07.39.170,task,2021.1.4,Win32,60.21194605,6299f149e92ead563fba08ef,62a43f223f462cc8c863bab2,,,,,,,,,,,,,,,,,,,,,,,,,,,,,,,,,,,,,,,,,,,,,,,,,,,,,,,,,,,,,,,,,,,,,,,,,,,,,,,,,,,,,,,,,,,,"[""period""]",0,23,0,23,0,1,[0.30090000000006967],,
,,,,,,,,,,,,6140a2afeec61853de540a8b,20,Mężczyzna,2022-06-11_09h07.39.170,task,2021.1.4,Win32,60.21194605,6299f149e92ead563fba08ef,62a43f223f462cc8c863bab2,,,,,,,,,,,,,,,,,,,,,,,,,,,,,,,,,,,,,,,,,,,,,,,,,,,,,,,,,,,,,,,,,,,,,,,,,,,,,,,,,,,,,,,,,,,,"[""period""]",0,24,0,24,0,1,[0.2826000000000022],,
,,,,,,,,,,,,6140a2afeec61853de540a8b,20,Mężczyzna,2022-06-11_09h07.39.170,task,2021.1.4,Win32,60.21194605,6299f149e92ead563fba08ef,62a43f223f462cc8c863bab2,,,,,,,,,,,,,,,,,,,,,,,,,,,,,,,,,,,,,,,,,,,,,,,,,,,,,,,,,,,,,,,,,,,,,,,,,,,,,,,,,,,,,,,,,,,,"[""period""]",0,25,0,25,0,1,[0.30090000000006967],,
,,,,,,,,,,,,6140a2afeec61853de540a8b,20,Mężczyzna,2022-06-11_09h07.39.170,task,2021.1.4,Win32,60.21194605,6299f149e92ead563fba08ef,62a43f223f462cc8c863bab2,,,,,,,,,,,,,,,,,,,,,,,,,,,,,,,,,,,,,,,,,,,,,,,,,,,,,,,,,,,,,,,,,,,,,,,,,,,,,,,,,,,,,,,,,,,,"[""comma""]",0,26,0,26,0,1,[0.2662000000000262],,
,,,,,,,,,,,,6140a2afeec61853de540a8b,20,Mężczyzna,2022-06-11_09h07.39.170,task,2021.1.4,Win32,60.21194605,6299f149e92ead563fba08ef,62a43f223f462cc8c863bab2,,,,,,,,,,,,,,,,,,,,,,,,,,,,,,,,,,,,,,,,,,,,,,,,,,,,,,,,,,,,,,,,,,,,,,,,,,,,,,,,,,,,,,,,,,,,"[""period""]",0,27,0,27,0,1,[0.2562000000000353],,
,,,,,,,,,,,,6140a2afeec61853de540a8b,20,Mężczyzna,2022-06-11_09h07.39.170,task,2021.1.4,Win32,60.21194605,6299f149e92ead563fba08ef,62a43f223f462cc8c863bab2,,,,,,,,,,,,,,,,,,,,,,,,,,,,,,,,,,,,,,,,,,,,,,,,,,,,,,,,,,,,,,,,,,,,,,,,,,,,,,,,,,,,,,,,,,,,"[""comma""]",0,28,0,28,0,1,[0.282799999999952],,
,,,,,,,,,,,,6140a2afeec61853de540a8b,20,Mężczyzna,2022-06-11_09h07.39.170,task,2021.1.4,Win32,60.21194605,6299f149e92ead563fba08ef,62a43f223f462cc8c863bab2,,,,,,,,,,,,,,,,,,,,,,,,,,,,,,,,,,,,,,,,,,,,,,,,,,,,,,,,,,,,,,,,,,,,,,,,,,,,,,,,,,,,,,,,,,,,"[""period""]",0,29,0,29,0,1,[0.3201000000000249],,
,,,,,,,,,,,,6140a2afeec61853de540a8b,20,Mężczyzna,2022-06-11_09h07.39.170,task,2021.1.4,Win32,60.21194605,6299f149e92ead563fba08ef,62a43f223f462cc8c863bab2,,,,,,,,,,,,,,,,,,,,,,,,,,,,,,,,,,,,,,,,,,,,,,,,,,,,,,,,,,,,,,,,,,,,,,,,,,,,,,,,,,,,,,,,,,,,"[""comma""]",0,30,0,30,0,1,[0.2721000000000231],,
,,,,,,,,,,,,6140a2afeec61853de540a8b,20,Mężczyzna,2022-06-11_09h07.39.170,task,2021.1.4,Win32,60.21194605,6299f149e92ead563fba08ef,62a43f223f462cc8c863bab2,,,,,,,,,,,,,,,,,,,,,,,,,,,,,,,,,,,,,,,,,,,,,,,,,,,,,,,,,,,,,,,,,,,,,,,,,,,,,,,,,,,,,,,,,,,,"[""comma""]",0,31,0,31,0,1,[0.31740000000002055],,
,,,,,,,,,,,,6140a2afeec61853de540a8b,20,Mężczyzna,2022-06-11_09h07.39.170,task,2021.1.4,Win32,60.21194605,6299f149e92ead563fba08ef,62a43f223f462cc8c863bab2,,,,,,,,,,,,,,,,,,,,,,,,,,,,,,,,,,,,,,,,,,,,,,,,,,,,,,,,,,,,,,,,,,,,,,,,,,,,,,,,,,,,,,,,,,,,"[""comma""]",0,32,0,32,0,1,[0.3042000000000371],,
,,,,,,,,,,,,6140a2afeec61853de540a8b,20,Mężczyzna,2022-06-11_09h07.39.170,task,2021.1.4,Win32,60.21194605,6299f149e92ead563fba08ef,62a43f223f462cc8c863bab2,,,,,,,,,,,,,,,,,,,,,,,,,,,,,,,,,,,,,,,,,,,,,,,,,,,,,,,,,,,,,,,,,,,,,,,,,,,,,,,,,,,,,,,,,,,,"[""period""]",0,33,0,33,0,1,[0.2576999999999998],,
,,,,,,,,,,,,6140a2afeec61853de540a8b,20,Mężczyzna,2022-06-11_09h07.39.170,task,2021.1.4,Win32,60.21194605,6299f149e92ead563fba08ef,62a43f223f462cc8c863bab2,,,,,,,,,,,,,,,,,,,,,,,,,,,,,,,,,,,,,,,,,,,,,,,,,,,,,,,,,,,,,,,,,,,,,,,,,,,,,,,,,,,,,,,,,,,,"[""period""]",0,34,0,34,0,1,[0.2826999999999771],,
,,,,,,,,,,,,6140a2afeec61853de540a8b,20,Mężczyzna,2022-06-11_09h07.39.170,task,2021.1.4,Win32,60.21194605,6299f149e92ead563fba08ef,62a43f223f462cc8c863bab2,,,,,,,,,,,,,,,,,,,,,,,,,,,,,,,,,,,,,,,,,,,,,,,,,,,,,,,,,,,,,,,,,,,,,,,,,,,,,,,,,,,,,,,,,,,,"[""comma""]",0,35,0,35,0,1,[0.31769999999994525],,
,,,,,,,,,,,,6140a2afeec61853de540a8b,20,Mężczyzna,2022-06-11_09h07.39.170,task,2021.1.4,Win32,60.21194605,6299f149e92ead563fba08ef,62a43f223f462cc8c863bab2,,,,,,,,,,,,,,,,,,,,,,,,,,,,,,,,,,,,,,,,,,,,,,,,,,,,,,,,,,,,,,,,,,,,,,,,,,,,,,,,,,,,,,,,,,,,"[""period""]",0,36,0,36,0,1,[0.34380000000010114],,
,,,,,,,,,,,,6140a2afeec61853de540a8b,20,Mężczyzna,2022-06-11_09h07.39.170,task,2021.1.4,Win32,60.21194605,6299f149e92ead563fba08ef,62a43f223f462cc8c863bab2,,,,,,,,,,,,,,,,,,,,,,,,,,,,,,,,,,,,,,,,,,,,,,,,,,,,,,,,,,,,,,,,,,,,,,,,,,,,,,,,,,,,,,,,,,,,"[""period""]",0,37,0,37,0,1,[0.3280000000000882],,
,,,,,,,,,,,,6140a2afeec61853de540a8b,20,Mężczyzna,2022-06-11_09h07.39.170,task,2021.1.4,Win32,60.21194605,6299f149e92ead563fba08ef,62a43f223f462cc8c863bab2,,,,,,,,,,,,,,,,,,,,,,,,,,,,,,,,,,,,,,,,,,,,,,,,,,,,,,,,,,,,,,,,,,,,,,,,,,,,,,,,,,,,,,,,,,,,"[""period""]",0,38,0,38,0,1,[0.3202999999999747],,
,,,,,,,,,,,,6140a2afeec61853de540a8b,20,Mężczyzna,2022-06-11_09h07.39.170,task,2021.1.4,Win32,60.21194605,6299f149e92ead563fba08ef,62a43f223f462cc8c863bab2,,,,,,,,,,,,,,,,,,,,,,,,,,,,,,,,,,,,,,,,,,,,,,,,,,,,,,,,,,,,,,,,,,,,,,,,,,,,,,,,,,,,,,,,,,,,"[""period""]",0,39,0,39,0,1,[0.2719000000000733],,
,,,,,,,,,,,,6140a2afeec61853de540a8b,20,Mężczyzna,2022-06-11_09h07.39.170,task,2021.1.4,Win32,60.21194605,6299f149e92ead563fba08ef,62a43f223f462cc8c863bab2,,,,,,,,,,,,,,,,,,,,,,,,,,,,,,,,,,,,,,,,,,,,,,,,,,,,,,,,,,,,,,,,,,,,,,,,,,,,,,,,,,,,,,,,,,,,"[""comma""]",0,40,0,40,0,1,[0.24059999999997217],,
,,,,,,,,,,,,6140a2afeec61853de540a8b,20,Mężczyzna,2022-06-11_09h07.39.170,task,2021.1.4,Win32,60.21194605,6299f149e92ead563fba08ef,62a43f223f462cc8c863bab2,,,,,,,,,,,,,,,,,,,,,,,,,,,,,,,,,,,,,,,,,,,,,,,,,,,,,,,,,,,,,,,,,,,,,,,,,,,,,,,,,,,,,,,,,,,,"[""comma""]",0,41,0,41,0,1,[0.287900000000036],,
,,,,,,,,,,,,6140a2afeec61853de540a8b,20,Mężczyzna,2022-06-11_09h07.39.170,task,2021.1.4,Win32,60.21194605,6299f149e92ead563fba08ef,62a43f223f462cc8c863bab2,,,,,,,,,,,,,,,,,,,,,,,,,,,,,,,,,,,,,,,,,,,,,,,,,,,,,,,,,,,,,,,,,,,,,,,,,,,,,,,,,,,,,,,,,,,,"[""period""]",0,42,0,42,0,1,[0.35180000000013933],,
,,,,,,,,,,,,6140a2afeec61853de540a8b,20,Mężczyzna,2022-06-11_09h07.39.170,task,2021.1.4,Win32,60.21194605,6299f149e92ead563fba08ef,62a43f223f462cc8c863bab2,,,,,,,,,,,,,,,,,,,,,,,,,,,,,,,,,,,,,,,,,,,,,,,,,,,,,,,,,,,,,,,,,,,,,,,,,,,,,,,,,,,,,,,,,,,,"[""comma""]",0,43,0,43,0,1,[0.24950000000001182],,
,,,,,,,,,,,,6140a2afeec61853de540a8b,20,Mężczyzna,2022-06-11_09h07.39.170,task,2021.1.4,Win32,60.21194605,6299f149e92ead563fba08ef,62a43f223f462cc8c863bab2,,,,,,,,,,,,,,,,,,,,,,,,,,,,,,,,,,,,,,,,,,,,,,,,,,,,,,,,,,,,,,,,,,,,,,,,,,,,,,,,,,,,,,,,,,,,"[""period""]",0,44,0,44,0,1,[0.30070000000011987],,
,,,,,,,,,,,,6140a2afeec61853de540a8b,20,Mężczyzna,2022-06-11_09h07.39.170,task,2021.1.4,Win32,60.21194605,6299f149e92ead563fba08ef,62a43f223f462cc8c863bab2,,,,,,,,,,,,,,,,,,,,,,,,,,,,,,,,,,,,,,,,,,,,,,,,,,,,,,,,,,,,,,,,,,,,,,,,,,,,,,,,,,,,,,,,,,,,"[""comma""]",0,45,0,45,0,1,[0.34410000000002583],,
,,,,,,,,,,,,6140a2afeec61853de540a8b,20,Mężczyzna,2022-06-11_09h07.39.170,task,2021.1.4,Win32,60.21194605,6299f149e92ead563fba08ef,62a43f223f462cc8c863bab2,,,,,,,,,,,,,,,,,,,,,,,,,,,,,,,,,,,,,,,,,,,,,,,,,,,,,,,,,,,,,,,,,,,,,,,,,,,,,,,,,,,,,,,,,,,,"[""period""]",0,46,0,46,0,1,[0.1916999999999689],,
,,,,,,,,,,,,6140a2afeec61853de540a8b,20,Mężczyzna,2022-06-11_09h07.39.170,task,2021.1.4,Win32,60.21194605,6299f149e92ead563fba08ef,62a43f223f462cc8c863bab2,,,,,,,,,,,,,,,,,,,,,,,,,,,,,,,,,,,,,,,,,,,,,,,,,,,,,,,,,,,,,,,,,,,,,,,,,,,,,,,,,,,,,,,,,,,,"[""period""]",0,47,0,47,0,1,[0.07159999999998945],,
,,,,,,,,,,,,6140a2afeec61853de540a8b,20,Mężczyzna,2022-06-11_09h07.39.170,task,2021.1.4,Win32,60.21194605,6299f149e92ead563fba08ef,62a43f223f462cc8c863bab2,,,,,,,,,,,,,,,,,,,,,,,,,,,,,,,,,,,,,,,,,,,,,,,,,,,,,,,,,,,,,,,,,,,,,,,,,,,,,,,,,,,,,,,,,,,,"[""period""]",0,48,0,48,0,1,[0.2398000000000593],,
,,,,,,,,,,,,6140a2afeec61853de540a8b,20,Mężczyzna,2022-06-11_09h07.39.170,task,2021.1.4,Win32,60.21194605,6299f149e92ead563fba08ef,62a43f223f462cc8c863bab2,,,,,,,,,,,,,,,,,,,,,,,,,,,,,,,,,,,,,,,,,,,,,,,,,,,,,,,,,,,,,,,,,,,,,,,,,,,,,,,,,,,,,,,,,,,,"[""period""]",0,49,0,49,0,1,[0.2883000000000493],,
,,,,,,,,,,,,6140a2afeec61853de540a8b,20,Mężczyzna,2022-06-11_09h07.39.170,task,2021.1.4,Win32,60.21194605,6299f149e92ead563fba08ef,62a43f223f462cc8c863bab2,,,,,,,,,,,,,,,,,,,,,,,,,,,,,,,,,,,,,,,,,,,,,,,,,,,,,,,,,,,,,,,,,,,,,,,,,,,,,,,,,,,,,,,,,,,,"[""comma""]",0,50,0,50,0,1,[0.3040000000000873],,
,,,,,,,,,,,,6140a2afeec61853de540a8b,20,Mężczyzna,2022-06-11_09h07.39.170,task,2021.1.4,Win32,60.21194605,6299f149e92ead563fba08ef,62a43f223f462cc8c863bab2,,,,,,,,,,,,,,,,,,,,,,,,,,,,,,,,,,,,,,,,,,,,,,,,,,,,,,,,,,,,,,,,,,,,,,,,,,,,,,,,,,,,,,,,,,,,"[""comma""]",0,51,0,51,0,1,[0.30080000000009477],,
,,,,,,,,,,,,6140a2afeec61853de540a8b,20,Mężczyzna,2022-06-11_09h07.39.170,task,2021.1.4,Win32,60.21194605,6299f149e92ead563fba08ef,62a43f223f462cc8c863bab2,,,,,,,,,,,,,,,,,,,,,,,,,,,,,,,,,,,,,,,,,,,,,,,,,,,,,,,,,,,,,,,,,,,,,,,,,,,,,,,,,,,,,,,,,,,,"[""comma""]",0,52,0,52,0,1,[0.35980000000006385],,
,,,,,,,,,,,,6140a2afeec61853de540a8b,20,Mężczyzna,2022-06-11_09h07.39.170,task,2021.1.4,Win32,60.21194605,6299f149e92ead563fba08ef,62a43f223f462cc8c863bab2,,,,,,,,,,,,,,,,,,,,,,,,,,,,,,,,,,,,,,,,,,,,,,,,,,,,,,,,,,,,,,,,,,,,,,,,,,,,,,,,,,,,,,,,,,,,"[""period""]",0,53,0,53,0,1,[0.21639999999990778],,
,,,,,,,,,,,,6140a2afeec61853de540a8b,20,Mężczyzna,2022-06-11_09h07.39.170,task,2021.1.4,Win32,60.21194605,6299f149e92ead563fba08ef,62a43f223f462cc8c863bab2,,,,,,,,,,,,,,,,,,,,,,,,,,,,,,,,,,,,,,,,,,,,,,,,,,,,,,,,,,,,,,,,,,,,,,,,,,,,,,,,,,,,,,,,,,,,"[""comma""]",0,54,0,54,0,1,[0.24919999999997344],,
,,,,,,,,,,,,6140a2afeec61853de540a8b,20,Mężczyzna,2022-06-11_09h07.39.170,task,2021.1.4,Win32,60.21194605,6299f149e92ead563fba08ef,62a43f223f462cc8c863bab2,,,,,,,,,,,,,,,,,,,,,,,,,,,,,,,,,,,,,,,,,,,,,,,,,,,,,,,,,,,,,,,,,,,,,,,,,,,,,,,,,,,,,,,,,,,,"[""period""]",0,55,0,55,0,1,[0.14360000000010587],,
,,,,,,,,,,,,6140a2afeec61853de540a8b,20,Mężczyzna,2022-06-11_09h07.39.170,task,2021.1.4,Win32,60.21194605,6299f149e92ead563fba08ef,62a43f223f462cc8c863bab2,,,,,,,,,,,,,,,,,,,,,,,,,,,,,,,,,,,,,,,,,,,,,,,,,,,,,,,,,,,,,,,,,,,,,,,,,,,,,,,,,,,,,,,,,,,,"[""period""]",0,56,0,56,0,1,[0.3040000000000873],,
,,,,,,,,,,,,6140a2afeec61853de540a8b,20,Mężczyzna,2022-06-11_09h07.39.170,task,2021.1.4,Win32,60.21194605,6299f149e92ead563fba08ef,62a43f223f462cc8c863bab2,,,,,,,,,,,,,,,,,,,,,,,,,,,,,,,,,,,,,,,,,,,,,,,,,,,,,,,,,,,,,,,,,,,,,,,,,,,,,,,,,,,,,,,,,,,,"[""period"",""comma""]",0,57,0,57,0,1,"[0.11969999999996617,1.9605000000000246]",,
,,,,,,,,,,,,6140a2afeec61853de540a8b,20,Mężczyzna,2022-06-11_09h07.39.170,task,2021.1.4,Win32,60.21194605,6299f149e92ead563fba08ef,62a43f223f462cc8c863bab2,,,,,,,,,,,,,,,,,,,,,,,,,,,,,,,,,,,,,,,,,,,,,,,,,,,,,,,,,,,,,,,,,,,,,,,,,,,,,,,,,,,,,,,,,,,,"[""period""]",0,58,0,58,0,1,[1.8325000000000955],,
,,,,,,,,,,,,6140a2afeec61853de540a8b,20,Mężczyzna,2022-06-11_09h07.39.170,task,2021.1.4,Win32,60.21194605,6299f149e92ead563fba08ef,62a43f223f462cc8c863bab2,,,,,,,,,,,,,,,,,,,,,,,,,,,,,,,,,,,,,,,,,,,,,,,,,,,,,,,,,,,,,,,,,,,,,,,,,,,,,,,,,,,,,,,,,,,,,0,59,0,59,0,1,,,
,,,,,,,,,,,,6140a2afeec61853de540a8b,20,Mężczyzna,2022-06-11_09h07.39.170,task,2021.1.4,Win32,60.21194605,6299f149e92ead563fba08ef,62a43f223f462cc8c863bab2,,,,,,,,,,,,,,,,,,,,,,,,,,,,,,,,,,,,,,,,,,,,,,,,,,,,,,,,,,,,,,,,,,,,,,,,,,,,,,,,,,,,,,,,,,,,"[""period""]",0,60,0,60,0,1,[0.28769999999997253],,
,,,,,,,,,,,,6140a2afeec61853de540a8b,20,Mężczyzna,2022-06-11_09h07.39.170,task,2021.1.4,Win32,60.21194605,6299f149e92ead563fba08ef,62a43f223f462cc8c863bab2,,,,,,,,,,,,,,,,,,,,,,,,,,,,,,,,,,,,,,,,,,,,,,,,,,,,,,,,,,,,,,,,,,,,,,,,,,,,,,,,,,,,,,,,,,,,"[""comma""]",0,61,0,61,0,1,[0.30319999999994707],,
,,,,,,,,,,,,6140a2afeec61853de540a8b,20,Mężczyzna,2022-06-11_09h07.39.170,task,2021.1.4,Win32,60.21194605,6299f149e92ead563fba08ef,62a43f223f462cc8c863bab2,,,,,,,,,,,,,,,,,,,,,,,,,,,,,,,,,,,,,,,,,,,,,,,,,,,,,,,,,,,,,,,,,,,,,,,,,,,,,,,,,,,,,,,,,,,,"[""comma""]",0,62,0,62,0,1,[0.37590000000000146],,
,,,,,,,,,,,,6140a2afeec61853de540a8b,20,Mężczyzna,2022-06-11_09h07.39.170,task,2021.1.4,Win32,60.21194605,6299f149e92ead563fba08ef,62a43f223f462cc8c863bab2,,,,,,,,,,,,,,,,,,,,,,,,,,,,,,,,,,,,,,,,,,,,,,,,,,,,,,,,,,,,,,,,,,,,,,,,,,,,,,,,,,,,,,,,,,,,"[""comma""]",0,63,0,63,0,1,[0.3750999999998612],,
,,,,,,,,,,,,6140a2afeec61853de540a8b,20,Mężczyzna,2022-06-11_09h07.39.170,task,2021.1.4,Win32,60.21194605,6299f149e92ead563fba08ef,62a43f223f462cc8c863bab2,,,,,,,,,,,,,,,,,,,,,,,,,,,,,,,,,,,,,,,,,,,,,,,,,,,,,,,,,,,,,,,,,,,,,,,,,,,,,,,,,,,,,,,,,,,,"[""comma""]",0,64,0,64,0,1,[0.300899999999956],,
,,,,,,,,,,,,6140a2afeec61853de540a8b,20,Mężczyzna,2022-06-11_09h07.39.170,task,2021.1.4,Win32,60.21194605,6299f149e92ead563fba08ef,62a43f223f462cc8c863bab2,,,,,,,,,,,,,,,,,,,,,,,,,,,,,,,,,,,,,,,,,,,,,,,,,,,,,,,,,,,,,,,,,,,,,,,,,,,,,,,,,,,,,,,,,,,,"[""period""]",0,65,0,65,0,1,[0.29500000000007276],,
,,,,,,,,,,,,6140a2afeec61853de540a8b,20,Mężczyzna,2022-06-11_09h07.39.170,task,2021.1.4,Win32,60.21194605,6299f149e92ead563fba08ef,62a43f223f462cc8c863bab2,,,,,,,,,,,,,,,,,,,,,,,,,,,,,,,,,,,,,,,,,,,,,,,,,,,,,,,,,,,,,,,,,,,,,,,,,,,,,,,,,,,,,,,,,,,,"[""comma""]",0,66,0,66,0,1,[0.2676000000001295],,
,,,,,,,,,,,,6140a2afeec61853de540a8b,20,Mężczyzna,2022-06-11_09h07.39.170,task,2021.1.4,Win32,60.21194605,6299f149e92ead563fba08ef,62a43f223f462cc8c863bab2,,,,,,,,,,,,,,,,,,,,,,,,,,,,,,,,,,,,,,,,,,,,,,,,,,,,,,,,,,,,,,,,,,,,,,,,,,,,,,,,,,,,,,,,,,,,"[""comma""]",0,67,0,67,0,1,[0.265700000000038],,
,,,,,,,,,,,,6140a2afeec61853de540a8b,20,Mężczyzna,2022-06-11_09h07.39.170,task,2021.1.4,Win32,60.21194605,6299f149e92ead563fba08ef,62a43f223f462cc8c863bab2,,,,,,,,,,,,,,,,,,,,,,,,,,,,,,,,,,,,,,,,,,,,,,,,,,,,,,,,,,,,,,,,,,,,,,,,,,,,,,,,,,,,,,,,,,,,"[""period""]",0,68,0,68,0,1,[0.3120000000000118],,
,,,,,,,,,,,,6140a2afeec61853de540a8b,20,Mężczyzna,2022-06-11_09h07.39.170,task,2021.1.4,Win32,60.21194605,6299f149e92ead563fba08ef,62a43f223f462cc8c863bab2,,,,,,,,,,,,,,,,,,,,,,,,,,,,,,,,,,,,,,,,,,,,,,,,,,,,,,,,,,,,,,,,,,,,,,,,,,,,,,,,,,,,,,,,,,,,"[""period""]",0,69,0,69,0,1,[0.29539999999997235],,
,,,,,,,,,,,,6140a2afeec61853de540a8b,20,Mężczyzna,2022-06-11_09h07.39.170,task,2021.1.4,Win32,60.21194605,6299f149e92ead563fba08ef,62a43f223f462cc8c863bab2,,,,,,,,,,,,,,,,,,,,,,,,,,,,,,,,,,,,,,,,,,,,,,,,,,,,,,,,,,,,,,,,,,,,,,,,,,,,,,,,,,,,,,,,,,,,"[""period""]",0,70,0,70,0,1,[0.31160000000011223],,
,,,,,,,,,,,,6140a2afeec61853de540a8b,20,Mężczyzna,2022-06-11_09h07.39.170,task,2021.1.4,Win32,60.21194605,6299f149e92ead563fba08ef,62a43f223f462cc8c863bab2,,,,,,,,,,,,,,,,,,,,,,,,,,,,,,,,,,,,,,,,,,,,,,,,,,,,,,,,,,,,,,,,,,,,,,,,,,,,,,,,,,,,,,,,,,,,"[""period""]",0,71,0,71,0,1,[0.43259999999986576],,
,,,,,,,,,,,,6140a2afeec61853de540a8b,20,Mężczyzna,2022-06-11_09h07.39.170,task,2021.1.4,Win32,60.21194605,6299f149e92ead563fba08ef,62a43f223f462cc8c863bab2,,,,,,,,,,,,,,,,,,,,,,,,,,,,,,,,,,,,,,,,,,,,,,,,,,,,,,,,,,,,,,,,,,,,,,,,,,,,,,,,,,,,,,,,,,,,"[""period""]",0,72,0,72,0,1,[0.27089999999998327],,
,,,,,,,,,,,,6140a2afeec61853de540a8b,20,Mężczyzna,2022-06-11_09h07.39.170,task,2021.1.4,Win32,60.21194605,6299f149e92ead563fba08ef,62a43f223f462cc8c863bab2,,,,,,,,,,,,,,,,,,,,,,,,,,,,,,,,,,,,,,,,,,,,,,,,,,,,,,,,,,,,,,,,,,,,,,,,,,,,,,,,,,,,,,,,,,,,"[""comma""]",0,73,0,73,0,1,[0.43420000000003256],,
,,,,,,,,,,,,6140a2afeec61853de540a8b,20,Mężczyzna,2022-06-11_09h07.39.170,task,2021.1.4,Win32,60.21194605,6299f149e92ead563fba08ef,62a43f223f462cc8c863bab2,,,,,,,,,,,,,,,,,,,,,,,,,,,,,,,,,,,,,,,,,,,,,,,,,,,,,,,,,,,,,,,,,,,,,,,,,,,,,,,,,,,,,,,,,,,,"[""period""]",0,74,0,74,0,1,[0.5510999999999058],,
,,,,,,,,,,,,6140a2afeec61853de540a8b,20,Mężczyzna,2022-06-11_09h07.39.170,task,2021.1.4,Win32,60.21194605,6299f149e92ead563fba08ef,62a43f223f462cc8c863bab2,,,,,,,,,,,,,,,,,,,,,,,,,,,,,,,,,,,,,,,,,,,,,,,,,,,,,,,,,,,,,,,,,,,,,,,,,,,,,,,,,,,,,,,,,,,,"[""comma""]",0,75,0,75,0,1,[0.375],,
,,,,,,,,,,,,6140a2afeec61853de540a8b,20,Mężczyzna,2022-06-11_09h07.39.170,task,2021.1.4,Win32,60.21194605,6299f149e92ead563fba08ef,62a43f223f462cc8c863bab2,,,,,,,,,,,,,,,,,,,,,,,,,,,,,,,,,,,,,,,,,,,,,,,,,,,,,,,,,,,,,,,,,,,,,,,,,,,,,,,,,,,,,,,,,,,,"[""comma""]",0,76,0,76,0,1,[0.31179999999983465],,
,,,,,,,,,,,,6140a2afeec61853de540a8b,20,Mężczyzna,2022-06-11_09h07.39.170,task,2021.1.4,Win32,60.21194605,6299f149e92ead563fba08ef,62a43f223f462cc8c863bab2,,,,,,,,,,,,,,,,,,,,,,,,,,,,,,,,,,,,,,,,,,,,,,,,,,,,,,,,,,,,,,,,,,,,,,,,,,,,,,,,,,,,,,,,,,,,"[""comma""]",0,77,0,77,0,1,[0.2867999999998574],,
,,,,,,,,,,,,6140a2afeec61853de540a8b,20,Mężczyzna,2022-06-11_09h07.39.170,task,2021.1.4,Win32,60.21194605,6299f149e92ead563fba08ef,62a43f223f462cc8c863bab2,,,,,,,,,,,,,,,,,,,,,,,,,,,,,,,,,,,,,,,,,,,,,,,,,,,,,,,,,,,,,,,,,,,,,,,,,,,,,,,,,,,,,,,,,,,,"[""comma""]",0,78,0,78,0,1,[0.4008000000001175],,
,,,,,,,,,,,,6140a2afeec61853de540a8b,20,Mężczyzna,2022-06-11_09h07.39.170,task,2021.1.4,Win32,60.21194605,6299f149e92ead563fba08ef,62a43f223f462cc8c863bab2,,,,,,,,,,,,,,,,,,,,,,,,,,,,,,,,,,,,,,,,,,,,,,,,,,,,,,,,,,,,,,,,,,,,,,,,,,,,,,,,,,,,,,,,,,,,"[""period""]",0,79,0,79,0,1,[0.6165000000000873],,
,,,,,,,,,,,,6140a2afeec61853de540a8b,20,Mężczyzna,2022-06-11_09h07.39.170,task,2021.1.4,Win32,60.21194605,6299f149e92ead563fba08ef,62a43f223f462cc8c863bab2,,,,,,,,,,,,,,,,,,,,,,,,,,,,,,,,,,,,,,,,,,,,,,,,,,,,,,,,,,,,,,,,,,,,,,,,,,,,,,,,,,,,,,,,,,,,"[""comma""]",0,80,0,80,0,1,[0.5027999999998656],,
,,,,,,,,,,,,6140a2afeec61853de540a8b,20,Mężczyzna,2022-06-11_09h07.39.170,task,2021.1.4,Win32,60.21194605,6299f149e92ead563fba08ef,62a43f223f462cc8c863bab2,,,,,,,,,,,,,,,,,,,,,,,,,,,,,,,,,,,,,,,,,,,,,,,,,,,,,,,,,,,,,,,,,,,,,,,,,,,,,,,,,,,,,,,,,,,,"[""period""]",0,81,0,81,0,1,[0.3348000000000866],,
,,,,,,,,,,,,6140a2afeec61853de540a8b,20,Mężczyzna,2022-06-11_09h07.39.170,task,2021.1.4,Win32,60.21194605,6299f149e92ead563fba08ef,62a43f223f462cc8c863bab2,,,,,,,,,,,,,,,,,,,,,,,,,,,,,,,,,,,,,,,,,,,,,,,,,,,,,,,,,,,,,,,,,,,,,,,,,,,,,,,,,,,,,,,,,,,,"[""comma""]",0,82,0,82,0,1,[0.3027999999998201],,
,,,,,,,,,,,,6140a2afeec61853de540a8b,20,Mężczyzna,2022-06-11_09h07.39.170,task,2021.1.4,Win32,60.21194605,6299f149e92ead563fba08ef,62a43f223f462cc8c863bab2,,,,,,,,,,,,,,,,,,,,,,,,,,,,,,,,,,,,,,,,,,,,,,,,,,,,,,,,,,,,,,,,,,,,,,,,,,,,,,,,,,,,,,,,,,,,"[""period"",""comma""]",0,83,0,83,0,1,"[0.055000000000063665,1.7667000000000144]",,
,,,,,,,,,,,,6140a2afeec61853de540a8b,20,Mężczyzna,2022-06-11_09h07.39.170,task,2021.1.4,Win32,60.21194605,6299f149e92ead563fba08ef,62a43f223f462cc8c863bab2,,,,,,,,,,,,,,,,,,,,,,,,,,,,,,,,,,,,,,,,,,,,,,,,,,,,,,,,,,,,,,,,,,,,,,,,,,,,,,,,,,,,,,,,,,,,"[""period""]",0,84,0,84,0,1,[1.7916000000001304],,
,,,,,,,,,,,,6140a2afeec61853de540a8b,20,Mężczyzna,2022-06-11_09h07.39.170,task,2021.1.4,Win32,60.21194605,6299f149e92ead563fba08ef,62a43f223f462cc8c863bab2,,,,,,,,,,,,,,,,,,,,,,,,,,,,,,,,,,,,,,,,,,,,,,,,,,,,,,,,,,,,,,,,,,,,,,,,,,,,,,,,,,,,,,,,,,,,,0,85,0,85,0,1,,,
,,,,,,,,,,,,6140a2afeec61853de540a8b,20,Mężczyzna,2022-06-11_09h07.39.170,task,2021.1.4,Win32,60.21194605,6299f149e92ead563fba08ef,62a43f223f462cc8c863bab2,,,,,,,,,,,,,,,,,,,,,,,,,,,,,,,,,,,,,,,,,,,,,,,,,,,,,,,,,,,,,,,,,,,,,,,,,,,,,,,,,,,,,,,,,,,,"[""period""]",0,86,0,86,0,1,[0.16679999999985284],,
,,,,,,,,,,,,6140a2afeec61853de540a8b,20,Mężczyzna,2022-06-11_09h07.39.170,task,2021.1.4,Win32,60.21194605,6299f149e92ead563fba08ef,62a43f223f462cc8c863bab2,,,,,,,,,,,,,,,,,,,,,,,,,,,,,,,,,,,,,,,,,,,,,,,,,,,,,,,,,,,,,,,,,,,,,,,,,,,,,,,,,,,,,,,,,,,,,0,87,0,87,0,1,,,
,,,,,,,,,,,,6140a2afeec61853de540a8b,20,Mężczyzna,2022-06-11_09h07.39.170,task,2021.1.4,Win32,60.21194605,6299f149e92ead563fba08ef,62a43f223f462cc8c863bab2,,,,,,,,,,,,,,,,,,,,,,,,,,,,,,,,,,,,,,,,,,,,,,,,,,,,,,,,,,,,,,,,,,,,,,,,,,,,,,,,,,,,,,,,,,,,"[""period"",""comma""]",0,88,0,88,0,1,"[0.9347000000000207,0.9698000000000775]",,
,,,,,,,,,,,,6140a2afeec61853de540a8b,20,Mężczyzna,2022-06-11_09h07.39.170,task,2021.1.4,Win32,60.21194605,6299f149e92ead563fba08ef,62a43f223f462cc8c863bab2,,,,,,,,,,,,,,,,,,,,,,,,,,,,,,,,,,,,,,,,,,,,,,,,,,,,,,,,,,,,,,,,,,,,,,,,,,,,,,,,,,,,,,,,,,,,"[""comma""]",0,89,0,89,0,1,[0.6786999999999352],,
,,,,,,,,,,,,6140a2afeec61853de540a8b,20,Mężczyzna,2022-06-11_09h07.39.170,task,2021.1.4,Win32,60.21194605,6299f149e92ead563fba08ef,62a43f223f462cc8c863bab2,,,,,,,,,,,,,,,,,,,,,,,,,,,,,,,,,,,,,,,,,,,,,,,,,,,,,,,,,,,,,,,,,,,,,,,,,,,,,,,,,,,,,,,,,,,,"[""comma""]",0,90,0,90,0,1,[1.3593000000000757],,
,,,,,,,,,,,,6140a2afeec61853de540a8b,20,Mężczyzna,2022-06-11_09h07.39.170,task,2021.1.4,Win32,60.21194605,6299f149e92ead563fba08ef,62a43f223f462cc8c863bab2,,,,,,,,,,,,,,,,,,,,,,,,,,,,,,,,,,,,,,,,,,,,,,,,,,,,,,,,,,,,,,,,,,,,,,,,,,,,,,,,,,,,,,,,,,,,"[""period""]",0,91,0,91,0,1,[0.6175999999998112],,
,,,,,,,,,,,,6140a2afeec61853de540a8b,20,Mężczyzna,2022-06-11_09h07.39.170,task,2021.1.4,Win32,60.21194605,6299f149e92ead563fba08ef,62a43f223f462cc8c863bab2,,,,,,,,,,,,,,,,,,,,,,,,,,,,,,,,,,,,,,,,,,,,,,,,,,,,,,,,,,,,,,,,,,,,,,,,,,,,,,,,,,,,,,,,,,,,"[""period""]",0,92,0,92,0,1,[0.6070999999997184],,
,,,,,,,,,,,,6140a2afeec61853de540a8b,20,Mężczyzna,2022-06-11_09h07.39.170,task,2021.1.4,Win32,60.21194605,6299f149e92ead563fba08ef,62a43f223f462cc8c863bab2,,,,,,,,,,,,,,,,,,,,,,,,,,,,,,,,,,,,,,,,,,,,,,,,,,,,,,,,,,,,,,,,,,,,,,,,,,,,,,,,,,,,,,,,,,,,"[""comma""]",0,93,0,93,0,1,[0.7747999999996864],,
,,,,,,,,,,,,6140a2afeec61853de540a8b,20,Mężczyzna,2022-06-11_09h07.39.170,task,2021.1.4,Win32,60.21194605,6299f149e92ead563fba08ef,62a43f223f462cc8c863bab2,,,,,,,,,,,,,,,,,,,,,,,,,,,,,,,,,,,,,,,,,,,,,,,,,,,,,,,,,,,,,,,,,,,,,,,,,,,,,,,,,,,,,,,,,,,,"[""period""]",0,94,0,94,0,1,[0.8225999999997384],,
,,,,,,,,,,,,6140a2afeec61853de540a8b,20,Mężczyzna,2022-06-11_09h07.39.170,task,2021.1.4,Win32,60.21194605,6299f149e92ead563fba08ef,62a43f223f462cc8c863bab2,,,,,,,,,,,,,,,,,,,,,,,,,,,,,,,,,,,,,,,,,,,,,,,,,,,,,,,,,,,,,,,,,,,,,,,,,,,,,,,,,,,,,,,,,,,,"[""comma""]",0,95,0,95,0,1,[0.43279999999981555],,
,,,,,,,,,,,,6140a2afeec61853de540a8b,20,Mężczyzna,2022-06-11_09h07.39.170,task,2021.1.4,Win32,60.21194605,6299f149e92ead563fba08ef,62a43f223f462cc8c863bab2,,,,,,,,,,,,,,,,,,,,,,,,,,,,,,,,,,,,,,,,,,,,,,,,,,,,,,,,,,,,,,,,,,,,,,,,,,,,,,,,,,,,,,,,,,,,"[""comma""]",0,96,0,96,0,1,[0.3435999999996966],,
,,,,,,,,,,,,6140a2afeec61853de540a8b,20,Mężczyzna,2022-06-11_09h07.39.170,task,2021.1.4,Win32,60.21194605,6299f149e92ead563fba08ef,62a43f223f462cc8c863bab2,,,,,,,,,,,,,,,,,,,,,,,,,,,,,,,,,,,,,,,,,,,,,,,,,,,,,,,,,,,,,,,,,,,,,,,,,,,,,,,,,,,,,,,,,,,,"[""comma""]",0,97,0,97,0,1,[0.3105999999997948],,
,,,,,,,,,,,,6140a2afeec61853de540a8b,20,Mężczyzna,2022-06-11_09h07.39.170,task,2021.1.4,Win32,60.21194605,6299f149e92ead563fba08ef,62a43f223f462cc8c863bab2,,,,,,,,,,,,,,,,,,,,,,,,,,,,,,,,,,,,,,,,,,,,,,,,,,,,,,,,,,,,,,,,,,,,,,,,,,,,,,,,,,,,,,,,,,,,"[""period""]",0,98,0,98,0,1,[0.4160999999996875],,
,,,,,,,,,,,,6140a2afeec61853de540a8b,20,Mężczyzna,2022-06-11_09h07.39.170,task,2021.1.4,Win32,60.21194605,6299f149e92ead563fba08ef,62a43f223f462cc8c863bab2,,,,,,,,,,,,,,,,,,,,,,,,,,,,,,,,,,,,,,,,,,,,,,,,,,,,,,,,,,,,,,,,,,,,,,,,,,,,,,,,,,,,,,,,,,,,"[""period""]",0,99,0,99,0,1,[0.4496999999998934],,
,,,,,,,,,,,,6140a2afeec61853de540a8b,20,Mężczyzna,2022-06-11_09h07.39.170,task,2021.1.4,Win32,60.21194605,6299f149e92ead563fba08ef,62a43f223f462cc8c863bab2,,,,,,,,,,,,,,,,,,,,,,,,,,,,,,,,,,,,,,,,,,,,,,,,,,,,,,,,,,,,,,,,,,,,,,,,,,,,,,,,,,,,,,,,,,,,"[""comma""]",0,100,0,100,0,1,[0.36669999999980973],,
,,,,,,,,,,,,6140a2afeec61853de540a8b,20,Mężczyzna,2022-06-11_09h07.39.170,task,2021.1.4,Win32,60.21194605,6299f149e92ead563fba08ef,62a43f223f462cc8c863bab2,,,,,,,,,,,,,,,,,,,,,,,,,,,,,,,,,,,,,,,,,,,,,,,,,,,,,,,,,,,,,,,,,,,,,,,,,,,,,,,,,,,,,,,,,,,,"[""period""]",0,101,0,101,0,1,[0.5106999999998152],,
,,,,,,,,,,,,6140a2afeec61853de540a8b,20,Mężczyzna,2022-06-11_09h07.39.170,task,2021.1.4,Win32,60.21194605,6299f149e92ead563fba08ef,62a43f223f462cc8c863bab2,,,,,,,,,,,,,,,,,,,,,,,,,,,,,,,,,,,,,,,,,,,,,,,,,,,,,,,,,,,,,,,,,,,,,,,,,,,,,,,,,,,,,,,,,,,,"[""comma""]",0,102,0,102,0,1,[0.5262999999997646],,
,,,,,,,,,,,,6140a2afeec61853de540a8b,20,Mężczyzna,2022-06-11_09h07.39.170,task,2021.1.4,Win32,60.21194605,6299f149e92ead563fba08ef,62a43f223f462cc8c863bab2,,,,,,,,,,,,,,,,,,,,,,,,,,,,,,,,,,,,,,,,,,,,,,,,,,,,,,,,,,,,,,,,,,,,,,,,,,,,,,,,,,,,,,,,,,,,"[""comma""]",0,103,0,103,0,1,[0.5742999999999938],,
,,,,,,,,,,,,6140a2afeec61853de540a8b,20,Mężczyzna,2022-06-11_09h07.39.170,task,2021.1.4,Win32,60.21194605,6299f149e92ead563fba08ef,62a43f223f462cc8c863bab2,,,,,,,,,,,,,,,,,,,,,,,,,,,,,,,,,,,,,,,,,,,,,,,,,,,,,,,,,,,,,,,,,,,,,,,,,,,,,,,,,,,,,,,,,,,,"[""period""]",0,104,0,104,0,1,[0.650899999999865],,
,,,,,,,,,,,,6140a2afeec61853de540a8b,20,Mężczyzna,2022-06-11_09h07.39.170,task,2021.1.4,Win32,60.21194605,6299f149e92ead563fba08ef,62a43f223f462cc8c863bab2,,,,,,,,,,,,,,,,,,,,,,,,,,,,,,,,,,,,,,,,,,,,,,,,,,,,,,,,,,,,,,,,,,,,,,,,,,,,,,,,,,,,,,,,,,,,"[""period""]",0,105,0,105,0,1,[0.6008999999999105],,
,,,,,,,,,,,,6140a2afeec61853de540a8b,20,Mężczyzna,2022-06-11_09h07.39.170,task,2021.1.4,Win32,60.21194605,6299f149e92ead563fba08ef,62a43f223f462cc8c863bab2,,,,,,,,,,,,,,,,,,,,,,,,,,,,,,,,,,,,,,,,,,,,,,,,,,,,,,,,,,,,,,,,,,,,,,,,,,,,,,,,,,,,,,,,,,,,"[""comma""]",0,106,0,106,0,1,[0.5673999999999069],,
,,,,,,,,,,,,6140a2afeec61853de540a8b,20,Mężczyzna,2022-06-11_09h07.39.170,task,2021.1.4,Win32,60.21194605,6299f149e92ead563fba08ef,62a43f223f462cc8c863bab2,,,,,,,,,,,,,,,,,,,,,,,,,,,,,,,,,,,,,,,,,,,,,,,,,,,,,,,,,,,,,,,,,,,,,,,,,,,,,,,,,,,,,,,,,,,,"[""period""]",0,107,0,107,0,1,[0.6175000000000637],,
,,,,,,,,,,,,6140a2afeec61853de540a8b,20,Mężczyzna,2022-06-11_09h07.39.170,task,2021.1.4,Win32,60.21194605,6299f149e92ead563fba08ef,62a43f223f462cc8c863bab2,,,,,,,,,,,,,,,,,,,,,,,,,,,,,,,,,,,,,,,,,,,,,,,,,,,,,,,,,,,,,,,,,,,,,,,,,,,,,,,,,,,,,,,,,,,,"[""period""]",0,108,0,108,0,1,[0.6382000000000971],,
,,,,,,,,,,,,6140a2afeec61853de540a8b,20,Mężczyzna,2022-06-11_09h07.39.170,task,2021.1.4,Win32,60.21194605,6299f149e92ead563fba08ef,62a43f223f462cc8c863bab2,,,,,,,,,,,,,,,,,,,,,,,,,,,,,,,,,,,,,,,,,,,,,,,,,,,,,,,,,,,,,,,,,,,,,,,,,,,,,,,,,,,,,,,,,,,,"[""comma""]",0,109,0,109,0,1,[0.7739999999998872],,
,,,,,,,,,,,,6140a2afeec61853de540a8b,20,Mężczyzna,2022-06-11_09h07.39.170,task,2021.1.4,Win32,60.21194605,6299f149e92ead563fba08ef,62a43f223f462cc8c863bab2,,,,,,,,,,,,,,,,,,,,,,,,,,,,,,,,,,,,,,,,,,,,,,,,,,,,,,,,,,,,,,,,,,,,,,,,,,,,,,,,,,,,,,,,,,,,"[""comma""]",0,110,0,110,0,1,[0.7259000000001379],,
,,,,,,,,,,,,6140a2afeec61853de540a8b,20,Mężczyzna,2022-06-11_09h07.39.170,task,2021.1.4,Win32,60.21194605,6299f149e92ead563fba08ef,62a43f223f462cc8c863bab2,,,,,,,,,,,,,,,,,,,,,,,,,,,,,,,,,,,,,,,,,,,,,,,,,,,,,,,,,,,,,,,,,,,,,,,,,,,,,,,,,,,,,,,,,,,,"[""period""]",0,111,0,111,0,1,[0.6486999999999625],,
,,,,,,,,,,,,6140a2afeec61853de540a8b,20,Mężczyzna,2022-06-11_09h07.39.170,task,2021.1.4,Win32,60.21194605,6299f149e92ead563fba08ef,62a43f223f462cc8c863bab2,,,,,,,,,,,,,,,,,,,,,,,,,,,,,,,,,,,,,,,,,,,,,,,,,,,,,,,,,,,,,,,,,,,,,,,,,,,,,,,,,,,,,,,,,,,,"[""period""]",0,112,0,112,0,1,[0.6060999999999694],,
,,,,,,,,,,,,6140a2afeec61853de540a8b,20,Mężczyzna,2022-06-11_09h07.39.170,task,2021.1.4,Win32,60.21194605,6299f149e92ead563fba08ef,62a43f223f462cc8c863bab2,,,,,,,,,,,,,,,,,,,,,,,,,,,,,,,,,,,,,,,,,,,,,,,,,,,,,,,,,,,,,,,,,,,,,,,,,,,,,,,,,,,,,,,,,,,,"[""period""]",0,113,0,113,0,1,[0.5261999999997897],,
,,,,,,,,,,,,6140a2afeec61853de540a8b,20,Mężczyzna,2022-06-11_09h07.39.170,task,2021.1.4,Win32,60.21194605,6299f149e92ead563fba08ef,62a43f223f462cc8c863bab2,,,,,,,,,,,,,,,,,,,,,,,,,,,,,,,,,,,,,,,,,,,,,,,,,,,,,,,,,,,,,,,,,,,,,,,,,,,,,,,,,,,,,,,,,,,,"[""comma""]",0,114,0,114,0,1,[0.6340999999999894],,
,,,,,,,,,,,,6140a2afeec61853de540a8b,20,Mężczyzna,2022-06-11_09h07.39.170,task,2021.1.4,Win32,60.21194605,6299f149e92ead563fba08ef,62a43f223f462cc8c863bab2,,,,,,,,,,,,,,,,,,,,,,,,,,,,,,,,,,,,,,,,,,,,,,,,,,,,,,,,,,,,,,,,,,,,,,,,,,,,,,,,,,,,,,,,,,,,"[""comma""]",0,115,0,115,0,1,[0.5675999999998567],,
,,,,,,,,,,,,6140a2afeec61853de540a8b,20,Mężczyzna,2022-06-11_09h07.39.170,task,2021.1.4,Win32,60.21194605,6299f149e92ead563fba08ef,62a43f223f462cc8c863bab2,,,,,,,,,,,,,,,,,,,,,,,,,,,,,,,,,,,,,,,,,,,,,,,,,,,,,,,,,,,,,,,,,,,,,,,,,,,,,,,,,,,,,,,,,,,,"[""comma""]",0,116,0,116,0,1,[0.6795999999999367],,
,,,,,,,,,,,,6140a2afeec61853de540a8b,20,Mężczyzna,2022-06-11_09h07.39.170,task,2021.1.4,Win32,60.21194605,6299f149e92ead563fba08ef,62a43f223f462cc8c863bab2,,,,,,,,,,,,,,,,,,,,,,,,,,,,,,,,,,,,,,,,,,,,,,,,,,,,,,,,,,,,,,,,,,,,,,,,,,,,,,,,,,,,,,,,,,,,"[""period""]",0,117,0,117,0,1,[1.149900000000116],,
,,,,,,,,,,,,6140a2afeec61853de540a8b,20,Mężczyzna,2022-06-11_09h07.39.170,task,2021.1.4,Win32,60.21194605,6299f149e92ead563fba08ef,62a43f223f462cc8c863bab2,,,,,,,,,,,,,,,,,,,,,,,,,,,,,,,,,,,,,,,,,,,,,,,,,,,,,,,,,,,,,,,,,,,,,,,,,,,,,,,,,,,,,,,,,,,,"[""period""]",0,118,0,118,0,1,[0.5261000000000422],,
,,,,,,,,,,,,6140a2afeec61853de540a8b,20,Mężczyzna,2022-06-11_09h07.39.170,task,2021.1.4,Win32,60.21194605,6299f149e92ead563fba08ef,62a43f223f462cc8c863bab2,,,,,,,,,,,,,,,,,,,,,,,,,,,,,,,,,,,,,,,,,,,,,,,,,,,,,,,,,,,,,,,,,,,,,,,,,,,,,,,,,,,,,,,,,,,,"[""comma""]",0,119,0,119,0,1,[0.40609999999992397],,
,,,,,,,,,,,,6140a2afeec61853de540a8b,20,Mężczyzna,2022-06-11_09h07.39.170,task,2021.1.4,Win32,60.21194605,6299f149e92ead563fba08ef,62a43f223f462cc8c863bab2,,,,,,,,,,,,,,,,,,,,,,,,,,,,,,,,,,,,,,,,,,,,,,,,,,,,,,,,,,,,,,,,,,,,,,,,,,,,,,,,,,,,,,,,,,,,,,,,,,,,space,1.6349
