key_resp_15.keys,key_resp_15.rt,key_resp_13.keys,key_resp_13.corr,key_resp_13.rt,ranodm_loop.thisRepN,ranodm_loop.thisTrialN,ranodm_loop.thisN,ranodm_loop.thisIndex,ranodm_loop.ran,participant,Wiek*,Płeć,date,expName,psychopyVersion,OS,frameRate,study_id,session,key_resp_16.keys,key_resp_16.rt,key_resp_4.keys,key_resp_4.rt,next_letter.thisRepN,next_letter.thisTrialN,next_letter.thisN,next_letter.thisIndex,next_letter.ran,letter,simple_recall,key_resp_5.keys,key_resp_5.rt,simple_recall_corr,simple_recall_corrkeys,next_level.thisRepN,next_level.thisTrialN,next_level.thisN,next_level.thisIndex,next_level.ran,key_resp_2.keys,key_resp_2.rt,digit_answer,key_resp.keys,key_resp.corr,key_resp.rt,RT_list,next_equation.thisRepN,next_equation.thisTrialN,next_equation.thisN,next_equation.thisIndex,next_equation.ran,Task,Trial,Problem,Operation_answer,processing_score,sumRT,meanRT,sumdiff,sd,RT,key_resp_3.keys,key_resp_3.rt,repeat_practice.thisRepN,repeat_practice.thisTrialN,repeat_practice.thisN,repeat_practice.thisIndex,repeat_practice.ran,key_resp_6.keys,key_resp_6.rt,key_resp_11.keys,key_resp_11.corr,key_resp_11.rt,operation_correct,repeat_if_wrong_prac.thisRepN,repeat_if_wrong_prac.thisTrialN,repeat_if_wrong_prac.thisN,repeat_if_wrong_prac.thisIndex,repeat_if_wrong_prac.ran,span_size_prac.thisRepN,span_size_prac.thisTrialN,span_size_prac.thisN,span_size_prac.thisIndex,span_size_prac.ran,complex_recall_practice,key_resp_9.keys,key_resp_9.corr,key_resp_9.rt,complex_prac_corr,span_recall_prac.thisRepN,span_recall_prac.thisTrialN,span_recall_prac.thisN,span_recall_prac.thisIndex,span_recall_prac.ran,key_resp_10.keys,key_resp_10.rt,key_resp_7.keys,key_resp_7.corr,key_resp_7.rt,repeat_if_wrong.thisRepN,repeat_if_wrong.thisTrialN,repeat_if_wrong.thisN,repeat_if_wrong.thisIndex,repeat_if_wrong.ran,span_size.thisRepN,span_size.thisTrialN,span_size.thisN,span_size.thisIndex,span_size.ran,complex_recall,key_resp_8.keys,key_resp_8.corr,key_resp_8.rt,complex_recall_corr,complex_recall_corrkeys,span_recall.thisRepN,span_recall.thisTrialN,span_recall.thisN,span_recall.thisIndex,span_recall.ran,key_resp_12.keys,key_resp_12.rt
space,13.386,"[""comma""]",0,[1.0259999999999962],0,0,0,0,1,6155e204cc071b306458dfff,22,Mężczyzna,2022-06-04_08h09.30.683,task,2021.1.4,Win32,60.0240096,628b806c463b948bc644b84f,629af70e3fac47c39a415cdf,,,,,,,,,,,,,,,,,,,,,,,,,,,,,,,,,,,,,,,,,,,,,,,,,,,,,,,,,,,,,,,,,,,,,,,,,,,,,,,,,,,,,,,,,,,,,,,,,,,,,,,
,,"[""period""]",0,[0.6400000000000006],1,0,1,0,1,6155e204cc071b306458dfff,22,Mężczyzna,2022-06-04_08h09.30.683,task,2021.1.4,Win32,60.0240096,628b806c463b948bc644b84f,629af70e3fac47c39a415cdf,,,,,,,,,,,,,,,,,,,,,,,,,,,,,,,,,,,,,,,,,,,,,,,,,,,,,,,,,,,,,,,,,,,,,,,,,,,,,,,,,,,,,,,,,,,,,,,,,,,,,,,
,,"[""comma""]",0,[0.3119999999999976],2,0,2,0,1,6155e204cc071b306458dfff,22,Mężczyzna,2022-06-04_08h09.30.683,task,2021.1.4,Win32,60.0240096,628b806c463b948bc644b84f,629af70e3fac47c39a415cdf,,,,,,,,,,,,,,,,,,,,,,,,,,,,,,,,,,,,,,,,,,,,,,,,,,,,,,,,,,,,,,,,,,,,,,,,,,,,,,,,,,,,,,,,,,,,,,,,,,,,,,,
,,"[""comma""]",0,[0.25199999999999534],3,0,3,0,1,6155e204cc071b306458dfff,22,Mężczyzna,2022-06-04_08h09.30.683,task,2021.1.4,Win32,60.0240096,628b806c463b948bc644b84f,629af70e3fac47c39a415cdf,,,,,,,,,,,,,,,,,,,,,,,,,,,,,,,,,,,,,,,,,,,,,,,,,,,,,,,,,,,,,,,,,,,,,,,,,,,,,,,,,,,,,,,,,,,,,,,,,,,,,,,
,,"[""comma""]",0,[0.48699999999999477],4,0,4,0,1,6155e204cc071b306458dfff,22,Mężczyzna,2022-06-04_08h09.30.683,task,2021.1.4,Win32,60.0240096,628b806c463b948bc644b84f,629af70e3fac47c39a415cdf,,,,,,,,,,,,,,,,,,,,,,,,,,,,,,,,,,,,,,,,,,,,,,,,,,,,,,,,,,,,,,,,,,,,,,,,,,,,,,,,,,,,,,,,,,,,,,,,,,,,,,,
,,"[""period""]",0,[0.2510000000000048],5,0,5,0,1,6155e204cc071b306458dfff,22,Mężczyzna,2022-06-04_08h09.30.683,task,2021.1.4,Win32,60.0240096,628b806c463b948bc644b84f,629af70e3fac47c39a415cdf,,,,,,,,,,,,,,,,,,,,,,,,,,,,,,,,,,,,,,,,,,,,,,,,,,,,,,,,,,,,,,,,,,,,,,,,,,,,,,,,,,,,,,,,,,,,,,,,,,,,,,,
,,"[""comma""]",0,[0.45600000000000307],6,0,6,0,1,6155e204cc071b306458dfff,22,Mężczyzna,2022-06-04_08h09.30.683,task,2021.1.4,Win32,60.0240096,628b806c463b948bc644b84f,629af70e3fac47c39a415cdf,,,,,,,,,,,,,,,,,,,,,,,,,,,,,,,,,,,,,,,,,,,,,,,,,,,,,,,,,,,,,,,,,,,,,,,,,,,,,,,,,,,,,,,,,,,,,,,,,,,,,,,
,,"[""comma""]",0,[0.41800000000000637],7,0,7,0,1,6155e204cc071b306458dfff,22,Mężczyzna,2022-06-04_08h09.30.683,task,2021.1.4,Win32,60.0240096,628b806c463b948bc644b84f,629af70e3fac47c39a415cdf,,,,,,,,,,,,,,,,,,,,,,,,,,,,,,,,,,,,,,,,,,,,,,,,,,,,,,,,,,,,,,,,,,,,,,,,,,,,,,,,,,,,,,,,,,,,,,,,,,,,,,,
,,"[""period""]",0,[0.30299999999999727],8,0,8,0,1,6155e204cc071b306458dfff,22,Mężczyzna,2022-06-04_08h09.30.683,task,2021.1.4,Win32,60.0240096,628b806c463b948bc644b84f,629af70e3fac47c39a415cdf,,,,,,,,,,,,,,,,,,,,,,,,,,,,,,,,,,,,,,,,,,,,,,,,,,,,,,,,,,,,,,,,,,,,,,,,,,,,,,,,,,,,,,,,,,,,,,,,,,,,,,,
,,"[""period""]",0,[0.17499999999999716],9,0,9,0,1,6155e204cc071b306458dfff,22,Mężczyzna,2022-06-04_08h09.30.683,task,2021.1.4,Win32,60.0240096,628b806c463b948bc644b84f,629af70e3fac47c39a415cdf,,,,,,,,,,,,,,,,,,,,,,,,,,,,,,,,,,,,,,,,,,,,,,,,,,,,,,,,,,,,,,,,,,,,,,,,,,,,,,,,,,,,,,,,,,,,,,,,,,,,,,,
,,"[""period"",""comma""]",0,"[0.16899999999999693,1.9690000000000083]",10,0,10,0,1,6155e204cc071b306458dfff,22,Mężczyzna,2022-06-04_08h09.30.683,task,2021.1.4,Win32,60.0240096,628b806c463b948bc644b84f,629af70e3fac47c39a415cdf,,,,,,,,,,,,,,,,,,,,,,,,,,,,,,,,,,,,,,,,,,,,,,,,,,,,,,,,,,,,,,,,,,,,,,,,,,,,,,,,,,,,,,,,,,,,,,,,,,,,,,,
,,,0,,11,0,11,0,1,6155e204cc071b306458dfff,22,Mężczyzna,2022-06-04_08h09.30.683,task,2021.1.4,Win32,60.0240096,628b806c463b948bc644b84f,629af70e3fac47c39a415cdf,,,,,,,,,,,,,,,,,,,,,,,,,,,,,,,,,,,,,,,,,,,,,,,,,,,,,,,,,,,,,,,,,,,,,,,,,,,,,,,,,,,,,,,,,,,,,,,,,,,,,,,
,,"[""comma""]",0,[0.27200000000000557],12,0,12,0,1,6155e204cc071b306458dfff,22,Mężczyzna,2022-06-04_08h09.30.683,task,2021.1.4,Win32,60.0240096,628b806c463b948bc644b84f,629af70e3fac47c39a415cdf,,,,,,,,,,,,,,,,,,,,,,,,,,,,,,,,,,,,,,,,,,,,,,,,,,,,,,,,,,,,,,,,,,,,,,,,,,,,,,,,,,,,,,,,,,,,,,,,,,,,,,,
,,"[""period""]",0,[0.2540000000000049],13,0,13,0,1,6155e204cc071b306458dfff,22,Mężczyzna,2022-06-04_08h09.30.683,task,2021.1.4,Win32,60.0240096,628b806c463b948bc644b84f,629af70e3fac47c39a415cdf,,,,,,,,,,,,,,,,,,,,,,,,,,,,,,,,,,,,,,,,,,,,,,,,,,,,,,,,,,,,,,,,,,,,,,,,,,,,,,,,,,,,,,,,,,,,,,,,,,,,,,,
,,"[""comma"",""period""]",0,"[0.1110000000000042,1.9269999999999925]",14,0,14,0,1,6155e204cc071b306458dfff,22,Mężczyzna,2022-06-04_08h09.30.683,task,2021.1.4,Win32,60.0240096,628b806c463b948bc644b84f,629af70e3fac47c39a415cdf,,,,,,,,,,,,,,,,,,,,,,,,,,,,,,,,,,,,,,,,,,,,,,,,,,,,,,,,,,,,,,,,,,,,,,,,,,,,,,,,,,,,,,,,,,,,,,,,,,,,,,,
,,,0,,15,0,15,0,1,6155e204cc071b306458dfff,22,Mężczyzna,2022-06-04_08h09.30.683,task,2021.1.4,Win32,60.0240096,628b806c463b948bc644b84f,629af70e3fac47c39a415cdf,,,,,,,,,,,,,,,,,,,,,,,,,,,,,,,,,,,,,,,,,,,,,,,,,,,,,,,,,,,,,,,,,,,,,,,,,,,,,,,,,,,,,,,,,,,,,,,,,,,,,,,
,,"[""period""]",0,[0.25499999999999545],16,0,16,0,1,6155e204cc071b306458dfff,22,Mężczyzna,2022-06-04_08h09.30.683,task,2021.1.4,Win32,60.0240096,628b806c463b948bc644b84f,629af70e3fac47c39a415cdf,,,,,,,,,,,,,,,,,,,,,,,,,,,,,,,,,,,,,,,,,,,,,,,,,,,,,,,,,,,,,,,,,,,,,,,,,,,,,,,,,,,,,,,,,,,,,,,,,,,,,,,
,,"[""period""]",0,[0.25199999999999534],17,0,17,0,1,6155e204cc071b306458dfff,22,Mężczyzna,2022-06-04_08h09.30.683,task,2021.1.4,Win32,60.0240096,628b806c463b948bc644b84f,629af70e3fac47c39a415cdf,,,,,,,,,,,,,,,,,,,,,,,,,,,,,,,,,,,,,,,,,,,,,,,,,,,,,,,,,,,,,,,,,,,,,,,,,,,,,,,,,,,,,,,,,,,,,,,,,,,,,,,
,,"[""period""]",0,[0.2710000000000008],18,0,18,0,1,6155e204cc071b306458dfff,22,Mężczyzna,2022-06-04_08h09.30.683,task,2021.1.4,Win32,60.0240096,628b806c463b948bc644b84f,629af70e3fac47c39a415cdf,,,,,,,,,,,,,,,,,,,,,,,,,,,,,,,,,,,,,,,,,,,,,,,,,,,,,,,,,,,,,,,,,,,,,,,,,,,,,,,,,,,,,,,,,,,,,,,,,,,,,,,
,,"[""period""]",0,[0.25499999999999545],19,0,19,0,1,6155e204cc071b306458dfff,22,Mężczyzna,2022-06-04_08h09.30.683,task,2021.1.4,Win32,60.0240096,628b806c463b948bc644b84f,629af70e3fac47c39a415cdf,,,,,,,,,,,,,,,,,,,,,,,,,,,,,,,,,,,,,,,,,,,,,,,,,,,,,,,,,,,,,,,,,,,,,,,,,,,,,,,,,,,,,,,,,,,,,,,,,,,,,,,
,,"[""period""]",0,[0.23900000000000432],20,0,20,0,1,6155e204cc071b306458dfff,22,Mężczyzna,2022-06-04_08h09.30.683,task,2021.1.4,Win32,60.0240096,628b806c463b948bc644b84f,629af70e3fac47c39a415cdf,,,,,,,,,,,,,,,,,,,,,,,,,,,,,,,,,,,,,,,,,,,,,,,,,,,,,,,,,,,,,,,,,,,,,,,,,,,,,,,,,,,,,,,,,,,,,,,,,,,,,,,
,,"[""comma""]",0,[0.3199999999999932],21,0,21,0,1,6155e204cc071b306458dfff,22,Mężczyzna,2022-06-04_08h09.30.683,task,2021.1.4,Win32,60.0240096,628b806c463b948bc644b84f,629af70e3fac47c39a415cdf,,,,,,,,,,,,,,,,,,,,,,,,,,,,,,,,,,,,,,,,,,,,,,,,,,,,,,,,,,,,,,,,,,,,,,,,,,,,,,,,,,,,,,,,,,,,,,,,,,,,,,,
,,"[""comma""]",0,[0.30999999999998806],22,0,22,0,1,6155e204cc071b306458dfff,22,Mężczyzna,2022-06-04_08h09.30.683,task,2021.1.4,Win32,60.0240096,628b806c463b948bc644b84f,629af70e3fac47c39a415cdf,,,,,,,,,,,,,,,,,,,,,,,,,,,,,,,,,,,,,,,,,,,,,,,,,,,,,,,,,,,,,,,,,,,,,,,,,,,,,,,,,,,,,,,,,,,,,,,,,,,,,,,
,,"[""period""]",0,[0.2710000000000008],23,0,23,0,1,6155e204cc071b306458dfff,22,Mężczyzna,2022-06-04_08h09.30.683,task,2021.1.4,Win32,60.0240096,628b806c463b948bc644b84f,629af70e3fac47c39a415cdf,,,,,,,,,,,,,,,,,,,,,,,,,,,,,,,,,,,,,,,,,,,,,,,,,,,,,,,,,,,,,,,,,,,,,,,,,,,,,,,,,,,,,,,,,,,,,,,,,,,,,,,
,,"[""comma""]",0,[0.21999999999999886],24,0,24,0,1,6155e204cc071b306458dfff,22,Mężczyzna,2022-06-04_08h09.30.683,task,2021.1.4,Win32,60.0240096,628b806c463b948bc644b84f,629af70e3fac47c39a415cdf,,,,,,,,,,,,,,,,,,,,,,,,,,,,,,,,,,,,,,,,,,,,,,,,,,,,,,,,,,,,,,,,,,,,,,,,,,,,,,,,,,,,,,,,,,,,,,,,,,,,,,,
,,"[""comma""]",0,[0.27899999999999636],25,0,25,0,1,6155e204cc071b306458dfff,22,Mężczyzna,2022-06-04_08h09.30.683,task,2021.1.4,Win32,60.0240096,628b806c463b948bc644b84f,629af70e3fac47c39a415cdf,,,,,,,,,,,,,,,,,,,,,,,,,,,,,,,,,,,,,,,,,,,,,,,,,,,,,,,,,,,,,,,,,,,,,,,,,,,,,,,,,,,,,,,,,,,,,,,,,,,,,,,
,,"[""comma""]",0,[0.27899999999999636],26,0,26,0,1,6155e204cc071b306458dfff,22,Mężczyzna,2022-06-04_08h09.30.683,task,2021.1.4,Win32,60.0240096,628b806c463b948bc644b84f,629af70e3fac47c39a415cdf,,,,,,,,,,,,,,,,,,,,,,,,,,,,,,,,,,,,,,,,,,,,,,,,,,,,,,,,,,,,,,,,,,,,,,,,,,,,,,,,,,,,,,,,,,,,,,,,,,,,,,,
,,"[""period""]",0,[0.2609999999999957],27,0,27,0,1,6155e204cc071b306458dfff,22,Mężczyzna,2022-06-04_08h09.30.683,task,2021.1.4,Win32,60.0240096,628b806c463b948bc644b84f,629af70e3fac47c39a415cdf,,,,,,,,,,,,,,,,,,,,,,,,,,,,,,,,,,,,,,,,,,,,,,,,,,,,,,,,,,,,,,,,,,,,,,,,,,,,,,,,,,,,,,,,,,,,,,,,,,,,,,,
,,"[""comma""]",0,[0.269999999999996],28,0,28,0,1,6155e204cc071b306458dfff,22,Mężczyzna,2022-06-04_08h09.30.683,task,2021.1.4,Win32,60.0240096,628b806c463b948bc644b84f,629af70e3fac47c39a415cdf,,,,,,,,,,,,,,,,,,,,,,,,,,,,,,,,,,,,,,,,,,,,,,,,,,,,,,,,,,,,,,,,,,,,,,,,,,,,,,,,,,,,,,,,,,,,,,,,,,,,,,,
,,"[""period""]",0,[0.1839999999999975],29,0,29,0,1,6155e204cc071b306458dfff,22,Mężczyzna,2022-06-04_08h09.30.683,task,2021.1.4,Win32,60.0240096,628b806c463b948bc644b84f,629af70e3fac47c39a415cdf,,,,,,,,,,,,,,,,,,,,,,,,,,,,,,,,,,,,,,,,,,,,,,,,,,,,,,,,,,,,,,,,,,,,,,,,,,,,,,,,,,,,,,,,,,,,,,,,,,,,,,,
,,"[""comma""]",0,[0.29000000000000625],30,0,30,0,1,6155e204cc071b306458dfff,22,Mężczyzna,2022-06-04_08h09.30.683,task,2021.1.4,Win32,60.0240096,628b806c463b948bc644b84f,629af70e3fac47c39a415cdf,,,,,,,,,,,,,,,,,,,,,,,,,,,,,,,,,,,,,,,,,,,,,,,,,,,,,,,,,,,,,,,,,,,,,,,,,,,,,,,,,,,,,,,,,,,,,,,,,,,,,,,
,,"[""period""]",0,[0.32500000000001705],31,0,31,0,1,6155e204cc071b306458dfff,22,Mężczyzna,2022-06-04_08h09.30.683,task,2021.1.4,Win32,60.0240096,628b806c463b948bc644b84f,629af70e3fac47c39a415cdf,,,,,,,,,,,,,,,,,,,,,,,,,,,,,,,,,,,,,,,,,,,,,,,,,,,,,,,,,,,,,,,,,,,,,,,,,,,,,,,,,,,,,,,,,,,,,,,,,,,,,,,
,,"[""period""]",0,[0.2610000000000241],32,0,32,0,1,6155e204cc071b306458dfff,22,Mężczyzna,2022-06-04_08h09.30.683,task,2021.1.4,Win32,60.0240096,628b806c463b948bc644b84f,629af70e3fac47c39a415cdf,,,,,,,,,,,,,,,,,,,,,,,,,,,,,,,,,,,,,,,,,,,,,,,,,,,,,,,,,,,,,,,,,,,,,,,,,,,,,,,,,,,,,,,,,,,,,,,,,,,,,,,
,,"[""period""]",0,[0.2550000000000239],33,0,33,0,1,6155e204cc071b306458dfff,22,Mężczyzna,2022-06-04_08h09.30.683,task,2021.1.4,Win32,60.0240096,628b806c463b948bc644b84f,629af70e3fac47c39a415cdf,,,,,,,,,,,,,,,,,,,,,,,,,,,,,,,,,,,,,,,,,,,,,,,,,,,,,,,,,,,,,,,,,,,,,,,,,,,,,,,,,,,,,,,,,,,,,,,,,,,,,,,
,,"[""comma""]",0,[0.23500000000001364],34,0,34,0,1,6155e204cc071b306458dfff,22,Mężczyzna,2022-06-04_08h09.30.683,task,2021.1.4,Win32,60.0240096,628b806c463b948bc644b84f,629af70e3fac47c39a415cdf,,,,,,,,,,,,,,,,,,,,,,,,,,,,,,,,,,,,,,,,,,,,,,,,,,,,,,,,,,,,,,,,,,,,,,,,,,,,,,,,,,,,,,,,,,,,,,,,,,,,,,,
,,"[""period""]",0,[0.24500000000000455],35,0,35,0,1,6155e204cc071b306458dfff,22,Mężczyzna,2022-06-04_08h09.30.683,task,2021.1.4,Win32,60.0240096,628b806c463b948bc644b84f,629af70e3fac47c39a415cdf,,,,,,,,,,,,,,,,,,,,,,,,,,,,,,,,,,,,,,,,,,,,,,,,,,,,,,,,,,,,,,,,,,,,,,,,,,,,,,,,,,,,,,,,,,,,,,,,,,,,,,,
,,"[""comma""]",0,[0.30100000000001614],36,0,36,0,1,6155e204cc071b306458dfff,22,Mężczyzna,2022-06-04_08h09.30.683,task,2021.1.4,Win32,60.0240096,628b806c463b948bc644b84f,629af70e3fac47c39a415cdf,,,,,,,,,,,,,,,,,,,,,,,,,,,,,,,,,,,,,,,,,,,,,,,,,,,,,,,,,,,,,,,,,,,,,,,,,,,,,,,,,,,,,,,,,,,,,,,,,,,,,,,
,,"[""comma""]",0,[0.2530000000000143],37,0,37,0,1,6155e204cc071b306458dfff,22,Mężczyzna,2022-06-04_08h09.30.683,task,2021.1.4,Win32,60.0240096,628b806c463b948bc644b84f,629af70e3fac47c39a415cdf,,,,,,,,,,,,,,,,,,,,,,,,,,,,,,,,,,,,,,,,,,,,,,,,,,,,,,,,,,,,,,,,,,,,,,,,,,,,,,,,,,,,,,,,,,,,,,,,,,,,,,,
,,"[""comma""]",0,[0.25200000000000955],38,0,38,0,1,6155e204cc071b306458dfff,22,Mężczyzna,2022-06-04_08h09.30.683,task,2021.1.4,Win32,60.0240096,628b806c463b948bc644b84f,629af70e3fac47c39a415cdf,,,,,,,,,,,,,,,,,,,,,,,,,,,,,,,,,,,,,,,,,,,,,,,,,,,,,,,,,,,,,,,,,,,,,,,,,,,,,,,,,,,,,,,,,,,,,,,,,,,,,,,
,,"[""period""]",0,[0.30800000000002115],39,0,39,0,1,6155e204cc071b306458dfff,22,Mężczyzna,2022-06-04_08h09.30.683,task,2021.1.4,Win32,60.0240096,628b806c463b948bc644b84f,629af70e3fac47c39a415cdf,,,,,,,,,,,,,,,,,,,,,,,,,,,,,,,,,,,,,,,,,,,,,,,,,,,,,,,,,,,,,,,,,,,,,,,,,,,,,,,,,,,,,,,,,,,,,,,,,,,,,,,
,,"[""comma""]",0,[0.2920000000000016],40,0,40,0,1,6155e204cc071b306458dfff,22,Mężczyzna,2022-06-04_08h09.30.683,task,2021.1.4,Win32,60.0240096,628b806c463b948bc644b84f,629af70e3fac47c39a415cdf,,,,,,,,,,,,,,,,,,,,,,,,,,,,,,,,,,,,,,,,,,,,,,,,,,,,,,,,,,,,,,,,,,,,,,,,,,,,,,,,,,,,,,,,,,,,,,,,,,,,,,,
,,"[""comma""]",0,[0.26900000000000546],41,0,41,0,1,6155e204cc071b306458dfff,22,Mężczyzna,2022-06-04_08h09.30.683,task,2021.1.4,Win32,60.0240096,628b806c463b948bc644b84f,629af70e3fac47c39a415cdf,,,,,,,,,,,,,,,,,,,,,,,,,,,,,,,,,,,,,,,,,,,,,,,,,,,,,,,,,,,,,,,,,,,,,,,,,,,,,,,,,,,,,,,,,,,,,,,,,,,,,,,
,,"[""period""]",0,[0.27600000000001046],42,0,42,0,1,6155e204cc071b306458dfff,22,Mężczyzna,2022-06-04_08h09.30.683,task,2021.1.4,Win32,60.0240096,628b806c463b948bc644b84f,629af70e3fac47c39a415cdf,,,,,,,,,,,,,,,,,,,,,,,,,,,,,,,,,,,,,,,,,,,,,,,,,,,,,,,,,,,,,,,,,,,,,,,,,,,,,,,,,,,,,,,,,,,,,,,,,,,,,,,
,,"[""period""]",0,[0.2600000000000193],43,0,43,0,1,6155e204cc071b306458dfff,22,Mężczyzna,2022-06-04_08h09.30.683,task,2021.1.4,Win32,60.0240096,628b806c463b948bc644b84f,629af70e3fac47c39a415cdf,,,,,,,,,,,,,,,,,,,,,,,,,,,,,,,,,,,,,,,,,,,,,,,,,,,,,,,,,,,,,,,,,,,,,,,,,,,,,,,,,,,,,,,,,,,,,,,,,,,,,,,
,,"[""comma""]",0,[0.28600000000000136],44,0,44,0,1,6155e204cc071b306458dfff,22,Mężczyzna,2022-06-04_08h09.30.683,task,2021.1.4,Win32,60.0240096,628b806c463b948bc644b84f,629af70e3fac47c39a415cdf,,,,,,,,,,,,,,,,,,,,,,,,,,,,,,,,,,,,,,,,,,,,,,,,,,,,,,,,,,,,,,,,,,,,,,,,,,,,,,,,,,,,,,,,,,,,,,,,,,,,,,,
,,"[""period""]",0,[0.27000000000001023],45,0,45,0,1,6155e204cc071b306458dfff,22,Mężczyzna,2022-06-04_08h09.30.683,task,2021.1.4,Win32,60.0240096,628b806c463b948bc644b84f,629af70e3fac47c39a415cdf,,,,,,,,,,,,,,,,,,,,,,,,,,,,,,,,,,,,,,,,,,,,,,,,,,,,,,,,,,,,,,,,,,,,,,,,,,,,,,,,,,,,,,,,,,,,,,,,,,,,,,,
,,"[""period""]",0,[0.12399999999999523],46,0,46,0,1,6155e204cc071b306458dfff,22,Mężczyzna,2022-06-04_08h09.30.683,task,2021.1.4,Win32,60.0240096,628b806c463b948bc644b84f,629af70e3fac47c39a415cdf,,,,,,,,,,,,,,,,,,,,,,,,,,,,,,,,,,,,,,,,,,,,,,,,,,,,,,,,,,,,,,,,,,,,,,,,,,,,,,,,,,,,,,,,,,,,,,,,,,,,,,,
,,"[""period""]",0,[0.15200000000001523],47,0,47,0,1,6155e204cc071b306458dfff,22,Mężczyzna,2022-06-04_08h09.30.683,task,2021.1.4,Win32,60.0240096,628b806c463b948bc644b84f,629af70e3fac47c39a415cdf,,,,,,,,,,,,,,,,,,,,,,,,,,,,,,,,,,,,,,,,,,,,,,,,,,,,,,,,,,,,,,,,,,,,,,,,,,,,,,,,,,,,,,,,,,,,,,,,,,,,,,,
,,"[""period""]",0,[0.2599999999999909],48,0,48,0,1,6155e204cc071b306458dfff,22,Mężczyzna,2022-06-04_08h09.30.683,task,2021.1.4,Win32,60.0240096,628b806c463b948bc644b84f,629af70e3fac47c39a415cdf,,,,,,,,,,,,,,,,,,,,,,,,,,,,,,,,,,,,,,,,,,,,,,,,,,,,,,,,,,,,,,,,,,,,,,,,,,,,,,,,,,,,,,,,,,,,,,,,,,,,,,,
,,"[""period""]",0,[0.3020000000000209],49,0,49,0,1,6155e204cc071b306458dfff,22,Mężczyzna,2022-06-04_08h09.30.683,task,2021.1.4,Win32,60.0240096,628b806c463b948bc644b84f,629af70e3fac47c39a415cdf,,,,,,,,,,,,,,,,,,,,,,,,,,,,,,,,,,,,,,,,,,,,,,,,,,,,,,,,,,,,,,,,,,,,,,,,,,,,,,,,,,,,,,,,,,,,,,,,,,,,,,,
,,"[""period""]",0,[0.3089999999999975],50,0,50,0,1,6155e204cc071b306458dfff,22,Mężczyzna,2022-06-04_08h09.30.683,task,2021.1.4,Win32,60.0240096,628b806c463b948bc644b84f,629af70e3fac47c39a415cdf,,,,,,,,,,,,,,,,,,,,,,,,,,,,,,,,,,,,,,,,,,,,,,,,,,,,,,,,,,,,,,,,,,,,,,,,,,,,,,,,,,,,,,,,,,,,,,,,,,,,,,,
,,"[""period""]",0,[0.38800000000000523],51,0,51,0,1,6155e204cc071b306458dfff,22,Mężczyzna,2022-06-04_08h09.30.683,task,2021.1.4,Win32,60.0240096,628b806c463b948bc644b84f,629af70e3fac47c39a415cdf,,,,,,,,,,,,,,,,,,,,,,,,,,,,,,,,,,,,,,,,,,,,,,,,,,,,,,,,,,,,,,,,,,,,,,,,,,,,,,,,,,,,,,,,,,,,,,,,,,,,,,,
,,"[""comma""]",0,[0.37300000000001887],52,0,52,0,1,6155e204cc071b306458dfff,22,Mężczyzna,2022-06-04_08h09.30.683,task,2021.1.4,Win32,60.0240096,628b806c463b948bc644b84f,629af70e3fac47c39a415cdf,,,,,,,,,,,,,,,,,,,,,,,,,,,,,,,,,,,,,,,,,,,,,,,,,,,,,,,,,,,,,,,,,,,,,,,,,,,,,,,,,,,,,,,,,,,,,,,,,,,,,,,
,,"[""comma""]",0,[0.3689999999999998],53,0,53,0,1,6155e204cc071b306458dfff,22,Mężczyzna,2022-06-04_08h09.30.683,task,2021.1.4,Win32,60.0240096,628b806c463b948bc644b84f,629af70e3fac47c39a415cdf,,,,,,,,,,,,,,,,,,,,,,,,,,,,,,,,,,,,,,,,,,,,,,,,,,,,,,,,,,,,,,,,,,,,,,,,,,,,,,,,,,,,,,,,,,,,,,,,,,,,,,,
,,"[""period""]",0,[0.32500000000001705],54,0,54,0,1,6155e204cc071b306458dfff,22,Mężczyzna,2022-06-04_08h09.30.683,task,2021.1.4,Win32,60.0240096,628b806c463b948bc644b84f,629af70e3fac47c39a415cdf,,,,,,,,,,,,,,,,,,,,,,,,,,,,,,,,,,,,,,,,,,,,,,,,,,,,,,,,,,,,,,,,,,,,,,,,,,,,,,,,,,,,,,,,,,,,,,,,,,,,,,,
,,"[""comma""]",0,[0.2909999999999968],55,0,55,0,1,6155e204cc071b306458dfff,22,Mężczyzna,2022-06-04_08h09.30.683,task,2021.1.4,Win32,60.0240096,628b806c463b948bc644b84f,629af70e3fac47c39a415cdf,,,,,,,,,,,,,,,,,,,,,,,,,,,,,,,,,,,,,,,,,,,,,,,,,,,,,,,,,,,,,,,,,,,,,,,,,,,,,,,,,,,,,,,,,,,,,,,,,,,,,,,
,,"[""comma""]",0,[0.22700000000000387],56,0,56,0,1,6155e204cc071b306458dfff,22,Mężczyzna,2022-06-04_08h09.30.683,task,2021.1.4,Win32,60.0240096,628b806c463b948bc644b84f,629af70e3fac47c39a415cdf,,,,,,,,,,,,,,,,,,,,,,,,,,,,,,,,,,,,,,,,,,,,,,,,,,,,,,,,,,,,,,,,,,,,,,,,,,,,,,,,,,,,,,,,,,,,,,,,,,,,,,,
,,"[""period""]",0,[0.15500000000000114],57,0,57,0,1,6155e204cc071b306458dfff,22,Mężczyzna,2022-06-04_08h09.30.683,task,2021.1.4,Win32,60.0240096,628b806c463b948bc644b84f,629af70e3fac47c39a415cdf,,,,,,,,,,,,,,,,,,,,,,,,,,,,,,,,,,,,,,,,,,,,,,,,,,,,,,,,,,,,,,,,,,,,,,,,,,,,,,,,,,,,,,,,,,,,,,,,,,,,,,,
,,"[""comma""]",0,[0.10699999999999932],58,0,58,0,1,6155e204cc071b306458dfff,22,Mężczyzna,2022-06-04_08h09.30.683,task,2021.1.4,Win32,60.0240096,628b806c463b948bc644b84f,629af70e3fac47c39a415cdf,,,,,,,,,,,,,,,,,,,,,,,,,,,,,,,,,,,,,,,,,,,,,,,,,,,,,,,,,,,,,,,,,,,,,,,,,,,,,,,,,,,,,,,,,,,,,,,,,,,,,,,
,,"[""period""]",0,[0.25899999999998613],59,0,59,0,1,6155e204cc071b306458dfff,22,Mężczyzna,2022-06-04_08h09.30.683,task,2021.1.4,Win32,60.0240096,628b806c463b948bc644b84f,629af70e3fac47c39a415cdf,,,,,,,,,,,,,,,,,,,,,,,,,,,,,,,,,,,,,,,,,,,,,,,,,,,,,,,,,,,,,,,,,,,,,,,,,,,,,,,,,,,,,,,,,,,,,,,,,,,,,,,
,,"[""period""]",0,[0.2839999999999918],60,0,60,0,1,6155e204cc071b306458dfff,22,Mężczyzna,2022-06-04_08h09.30.683,task,2021.1.4,Win32,60.0240096,628b806c463b948bc644b84f,629af70e3fac47c39a415cdf,,,,,,,,,,,,,,,,,,,,,,,,,,,,,,,,,,,,,,,,,,,,,,,,,,,,,,,,,,,,,,,,,,,,,,,,,,,,,,,,,,,,,,,,,,,,,,,,,,,,,,,
,,"[""comma"",""comma""]",0,"[0.2599999999999909,1.936000000000007]",61,0,61,0,1,6155e204cc071b306458dfff,22,Mężczyzna,2022-06-04_08h09.30.683,task,2021.1.4,Win32,60.0240096,628b806c463b948bc644b84f,629af70e3fac47c39a415cdf,,,,,,,,,,,,,,,,,,,,,,,,,,,,,,,,,,,,,,,,,,,,,,,,,,,,,,,,,,,,,,,,,,,,,,,,,,,,,,,,,,,,,,,,,,,,,,,,,,,,,,,
,,,0,,62,0,62,0,1,6155e204cc071b306458dfff,22,Mężczyzna,2022-06-04_08h09.30.683,task,2021.1.4,Win32,60.0240096,628b806c463b948bc644b84f,629af70e3fac47c39a415cdf,,,,,,,,,,,,,,,,,,,,,,,,,,,,,,,,,,,,,,,,,,,,,,,,,,,,,,,,,,,,,,,,,,,,,,,,,,,,,,,,,,,,,,,,,,,,,,,,,,,,,,,
,,"[""comma""]",0,[0.2510000000000048],63,0,63,0,1,6155e204cc071b306458dfff,22,Mężczyzna,2022-06-04_08h09.30.683,task,2021.1.4,Win32,60.0240096,628b806c463b948bc644b84f,629af70e3fac47c39a415cdf,,,,,,,,,,,,,,,,,,,,,,,,,,,,,,,,,,,,,,,,,,,,,,,,,,,,,,,,,,,,,,,,,,,,,,,,,,,,,,,,,,,,,,,,,,,,,,,,,,,,,,,
,,"[""period""]",0,[0.35499999999998977],64,0,64,0,1,6155e204cc071b306458dfff,22,Mężczyzna,2022-06-04_08h09.30.683,task,2021.1.4,Win32,60.0240096,628b806c463b948bc644b84f,629af70e3fac47c39a415cdf,,,,,,,,,,,,,,,,,,,,,,,,,,,,,,,,,,,,,,,,,,,,,,,,,,,,,,,,,,,,,,,,,,,,,,,,,,,,,,,,,,,,,,,,,,,,,,,,,,,,,,,
,,"[""comma""]",0,[0.35499999999998977],65,0,65,0,1,6155e204cc071b306458dfff,22,Mężczyzna,2022-06-04_08h09.30.683,task,2021.1.4,Win32,60.0240096,628b806c463b948bc644b84f,629af70e3fac47c39a415cdf,,,,,,,,,,,,,,,,,,,,,,,,,,,,,,,,,,,,,,,,,,,,,,,,,,,,,,,,,,,,,,,,,,,,,,,,,,,,,,,,,,,,,,,,,,,,,,,,,,,,,,,
,,"[""period""]",0,[0.3189999999999884],66,0,66,0,1,6155e204cc071b306458dfff,22,Mężczyzna,2022-06-04_08h09.30.683,task,2021.1.4,Win32,60.0240096,628b806c463b948bc644b84f,629af70e3fac47c39a415cdf,,,,,,,,,,,,,,,,,,,,,,,,,,,,,,,,,,,,,,,,,,,,,,,,,,,,,,,,,,,,,,,,,,,,,,,,,,,,,,,,,,,,,,,,,,,,,,,,,,,,,,,
,,"[""period""]",0,[0.23599999999999],67,0,67,0,1,6155e204cc071b306458dfff,22,Mężczyzna,2022-06-04_08h09.30.683,task,2021.1.4,Win32,60.0240096,628b806c463b948bc644b84f,629af70e3fac47c39a415cdf,,,,,,,,,,,,,,,,,,,,,,,,,,,,,,,,,,,,,,,,,,,,,,,,,,,,,,,,,,,,,,,,,,,,,,,,,,,,,,,,,,,,,,,,,,,,,,,,,,,,,,,
,,"[""comma""]",0,[0.24199999999999022],68,0,68,0,1,6155e204cc071b306458dfff,22,Mężczyzna,2022-06-04_08h09.30.683,task,2021.1.4,Win32,60.0240096,628b806c463b948bc644b84f,629af70e3fac47c39a415cdf,,,,,,,,,,,,,,,,,,,,,,,,,,,,,,,,,,,,,,,,,,,,,,,,,,,,,,,,,,,,,,,,,,,,,,,,,,,,,,,,,,,,,,,,,,,,,,,,,,,,,,,
,,"[""period""]",0,[0.26900000000000546],69,0,69,0,1,6155e204cc071b306458dfff,22,Mężczyzna,2022-06-04_08h09.30.683,task,2021.1.4,Win32,60.0240096,628b806c463b948bc644b84f,629af70e3fac47c39a415cdf,,,,,,,,,,,,,,,,,,,,,,,,,,,,,,,,,,,,,,,,,,,,,,,,,,,,,,,,,,,,,,,,,,,,,,,,,,,,,,,,,,,,,,,,,,,,,,,,,,,,,,,
,,"[""period""]",0,[0.39400000000000546],70,0,70,0,1,6155e204cc071b306458dfff,22,Mężczyzna,2022-06-04_08h09.30.683,task,2021.1.4,Win32,60.0240096,628b806c463b948bc644b84f,629af70e3fac47c39a415cdf,,,,,,,,,,,,,,,,,,,,,,,,,,,,,,,,,,,,,,,,,,,,,,,,,,,,,,,,,,,,,,,,,,,,,,,,,,,,,,,,,,,,,,,,,,,,,,,,,,,,,,,
,,"[""period""]",0,[0.24199999999999022],71,0,71,0,1,6155e204cc071b306458dfff,22,Mężczyzna,2022-06-04_08h09.30.683,task,2021.1.4,Win32,60.0240096,628b806c463b948bc644b84f,629af70e3fac47c39a415cdf,,,,,,,,,,,,,,,,,,,,,,,,,,,,,,,,,,,,,,,,,,,,,,,,,,,,,,,,,,,,,,,,,,,,,,,,,,,,,,,,,,,,,,,,,,,,,,,,,,,,,,,
,,"[""comma""]",0,[0.18700000000001182],72,0,72,0,1,6155e204cc071b306458dfff,22,Mężczyzna,2022-06-04_08h09.30.683,task,2021.1.4,Win32,60.0240096,628b806c463b948bc644b84f,629af70e3fac47c39a415cdf,,,,,,,,,,,,,,,,,,,,,,,,,,,,,,,,,,,,,,,,,,,,,,,,,,,,,,,,,,,,,,,,,,,,,,,,,,,,,,,,,,,,,,,,,,,,,,,,,,,,,,,
,,"[""comma""]",0,[-0.01500000000001478],73,0,73,0,1,6155e204cc071b306458dfff,22,Mężczyzna,2022-06-04_08h09.30.683,task,2021.1.4,Win32,60.0240096,628b806c463b948bc644b84f,629af70e3fac47c39a415cdf,,,,,,,,,,,,,,,,,,,,,,,,,,,,,,,,,,,,,,,,,,,,,,,,,,,,,,,,,,,,,,,,,,,,,,,,,,,,,,,,,,,,,,,,,,,,,,,,,,,,,,,
,,"[""comma""]",0,[0.17099999999999227],74,0,74,0,1,6155e204cc071b306458dfff,22,Mężczyzna,2022-06-04_08h09.30.683,task,2021.1.4,Win32,60.0240096,628b806c463b948bc644b84f,629af70e3fac47c39a415cdf,,,,,,,,,,,,,,,,,,,,,,,,,,,,,,,,,,,,,,,,,,,,,,,,,,,,,,,,,,,,,,,,,,,,,,,,,,,,,,,,,,,,,,,,,,,,,,,,,,,,,,,
,,"[""comma""]",0,[0.25],75,0,75,0,1,6155e204cc071b306458dfff,22,Mężczyzna,2022-06-04_08h09.30.683,task,2021.1.4,Win32,60.0240096,628b806c463b948bc644b84f,629af70e3fac47c39a415cdf,,,,,,,,,,,,,,,,,,,,,,,,,,,,,,,,,,,,,,,,,,,,,,,,,,,,,,,,,,,,,,,,,,,,,,,,,,,,,,,,,,,,,,,,,,,,,,,,,,,,,,,
,,"[""period""]",0,[0.2259999999999991],76,0,76,0,1,6155e204cc071b306458dfff,22,Mężczyzna,2022-06-04_08h09.30.683,task,2021.1.4,Win32,60.0240096,628b806c463b948bc644b84f,629af70e3fac47c39a415cdf,,,,,,,,,,,,,,,,,,,,,,,,,,,,,,,,,,,,,,,,,,,,,,,,,,,,,,,,,,,,,,,,,,,,,,,,,,,,,,,,,,,,,,,,,,,,,,,,,,,,,,,
,,"[""period""]",0,[0.0689999999999884],77,0,77,0,1,6155e204cc071b306458dfff,22,Mężczyzna,2022-06-04_08h09.30.683,task,2021.1.4,Win32,60.0240096,628b806c463b948bc644b84f,629af70e3fac47c39a415cdf,,,,,,,,,,,,,,,,,,,,,,,,,,,,,,,,,,,,,,,,,,,,,,,,,,,,,,,,,,,,,,,,,,,,,,,,,,,,,,,,,,,,,,,,,,,,,,,,,,,,,,,
,,"[""period""]",0,[0.07399999999998386],78,0,78,0,1,6155e204cc071b306458dfff,22,Mężczyzna,2022-06-04_08h09.30.683,task,2021.1.4,Win32,60.0240096,628b806c463b948bc644b84f,629af70e3fac47c39a415cdf,,,,,,,,,,,,,,,,,,,,,,,,,,,,,,,,,,,,,,,,,,,,,,,,,,,,,,,,,,,,,,,,,,,,,,,,,,,,,,,,,,,,,,,,,,,,,,,,,,,,,,,
,,"[""comma""]",0,[0.20199999999999818],79,0,79,0,1,6155e204cc071b306458dfff,22,Mężczyzna,2022-06-04_08h09.30.683,task,2021.1.4,Win32,60.0240096,628b806c463b948bc644b84f,629af70e3fac47c39a415cdf,,,,,,,,,,,,,,,,,,,,,,,,,,,,,,,,,,,,,,,,,,,,,,,,,,,,,,,,,,,,,,,,,,,,,,,,,,,,,,,,,,,,,,,,,,,,,,,,,,,,,,,
,,"[""period""]",0,[0.23399999999998045],80,0,80,0,1,6155e204cc071b306458dfff,22,Mężczyzna,2022-06-04_08h09.30.683,task,2021.1.4,Win32,60.0240096,628b806c463b948bc644b84f,629af70e3fac47c39a415cdf,,,,,,,,,,,,,,,,,,,,,,,,,,,,,,,,,,,,,,,,,,,,,,,,,,,,,,,,,,,,,,,,,,,,,,,,,,,,,,,,,,,,,,,,,,,,,,,,,,,,,,,
,,"[""comma""]",0,[0.2189999999999941],81,0,81,0,1,6155e204cc071b306458dfff,22,Mężczyzna,2022-06-04_08h09.30.683,task,2021.1.4,Win32,60.0240096,628b806c463b948bc644b84f,629af70e3fac47c39a415cdf,,,,,,,,,,,,,,,,,,,,,,,,,,,,,,,,,,,,,,,,,,,,,,,,,,,,,,,,,,,,,,,,,,,,,,,,,,,,,,,,,,,,,,,,,,,,,,,,,,,,,,,
,,"[""comma""]",0,[0.2839999999999918],82,0,82,0,1,6155e204cc071b306458dfff,22,Mężczyzna,2022-06-04_08h09.30.683,task,2021.1.4,Win32,60.0240096,628b806c463b948bc644b84f,629af70e3fac47c39a415cdf,,,,,,,,,,,,,,,,,,,,,,,,,,,,,,,,,,,,,,,,,,,,,,,,,,,,,,,,,,,,,,,,,,,,,,,,,,,,,,,,,,,,,,,,,,,,,,,,,,,,,,,
,,"[""period""]",0,[0.34600000000000364],83,0,83,0,1,6155e204cc071b306458dfff,22,Mężczyzna,2022-06-04_08h09.30.683,task,2021.1.4,Win32,60.0240096,628b806c463b948bc644b84f,629af70e3fac47c39a415cdf,,,,,,,,,,,,,,,,,,,,,,,,,,,,,,,,,,,,,,,,,,,,,,,,,,,,,,,,,,,,,,,,,,,,,,,,,,,,,,,,,,,,,,,,,,,,,,,,,,,,,,,
,,"[""comma""]",0,[0.3019999999999925],84,0,84,0,1,6155e204cc071b306458dfff,22,Mężczyzna,2022-06-04_08h09.30.683,task,2021.1.4,Win32,60.0240096,628b806c463b948bc644b84f,629af70e3fac47c39a415cdf,,,,,,,,,,,,,,,,,,,,,,,,,,,,,,,,,,,,,,,,,,,,,,,,,,,,,,,,,,,,,,,,,,,,,,,,,,,,,,,,,,,,,,,,,,,,,,,,,,,,,,,
,,"[""period""]",0,[0.28899999999998727],85,0,85,0,1,6155e204cc071b306458dfff,22,Mężczyzna,2022-06-04_08h09.30.683,task,2021.1.4,Win32,60.0240096,628b806c463b948bc644b84f,629af70e3fac47c39a415cdf,,,,,,,,,,,,,,,,,,,,,,,,,,,,,,,,,,,,,,,,,,,,,,,,,,,,,,,,,,,,,,,,,,,,,,,,,,,,,,,,,,,,,,,,,,,,,,,,,,,,,,,
,,"[""period""]",0,[0.5009999999999764],86,0,86,0,1,6155e204cc071b306458dfff,22,Mężczyzna,2022-06-04_08h09.30.683,task,2021.1.4,Win32,60.0240096,628b806c463b948bc644b84f,629af70e3fac47c39a415cdf,,,,,,,,,,,,,,,,,,,,,,,,,,,,,,,,,,,,,,,,,,,,,,,,,,,,,,,,,,,,,,,,,,,,,,,,,,,,,,,,,,,,,,,,,,,,,,,,,,,,,,,
,,"[""comma""]",0,[0.2680000000000007],87,0,87,0,1,6155e204cc071b306458dfff,22,Mężczyzna,2022-06-04_08h09.30.683,task,2021.1.4,Win32,60.0240096,628b806c463b948bc644b84f,629af70e3fac47c39a415cdf,,,,,,,,,,,,,,,,,,,,,,,,,,,,,,,,,,,,,,,,,,,,,,,,,,,,,,,,,,,,,,,,,,,,,,,,,,,,,,,,,,,,,,,,,,,,,,,,,,,,,,,
,,"[""period""]",0,[0.20700000000002206],88,0,88,0,1,6155e204cc071b306458dfff,22,Mężczyzna,2022-06-04_08h09.30.683,task,2021.1.4,Win32,60.0240096,628b806c463b948bc644b84f,629af70e3fac47c39a415cdf,,,,,,,,,,,,,,,,,,,,,,,,,,,,,,,,,,,,,,,,,,,,,,,,,,,,,,,,,,,,,,,,,,,,,,,,,,,,,,,,,,,,,,,,,,,,,,,,,,,,,,,
,,"[""period""]",0,[0.3120000000000118],89,0,89,0,1,6155e204cc071b306458dfff,22,Mężczyzna,2022-06-04_08h09.30.683,task,2021.1.4,Win32,60.0240096,628b806c463b948bc644b84f,629af70e3fac47c39a415cdf,,,,,,,,,,,,,,,,,,,,,,,,,,,,,,,,,,,,,,,,,,,,,,,,,,,,,,,,,,,,,,,,,,,,,,,,,,,,,,,,,,,,,,,,,,,,,,,,,,,,,,,
,,"[""period""]",0,[0.16100000000000136],90,0,90,0,1,6155e204cc071b306458dfff,22,Mężczyzna,2022-06-04_08h09.30.683,task,2021.1.4,Win32,60.0240096,628b806c463b948bc644b84f,629af70e3fac47c39a415cdf,,,,,,,,,,,,,,,,,,,,,,,,,,,,,,,,,,,,,,,,,,,,,,,,,,,,,,,,,,,,,,,,,,,,,,,,,,,,,,,,,,,,,,,,,,,,,,,,,,,,,,,
,,"[""comma""]",0,[0.08700000000001751],91,0,91,0,1,6155e204cc071b306458dfff,22,Mężczyzna,2022-06-04_08h09.30.683,task,2021.1.4,Win32,60.0240096,628b806c463b948bc644b84f,629af70e3fac47c39a415cdf,,,,,,,,,,,,,,,,,,,,,,,,,,,,,,,,,,,,,,,,,,,,,,,,,,,,,,,,,,,,,,,,,,,,,,,,,,,,,,,,,,,,,,,,,,,,,,,,,,,,,,,
,,"[""comma""]",0,[0.1699999999999875],92,0,92,0,1,6155e204cc071b306458dfff,22,Mężczyzna,2022-06-04_08h09.30.683,task,2021.1.4,Win32,60.0240096,628b806c463b948bc644b84f,629af70e3fac47c39a415cdf,,,,,,,,,,,,,,,,,,,,,,,,,,,,,,,,,,,,,,,,,,,,,,,,,,,,,,,,,,,,,,,,,,,,,,,,,,,,,,,,,,,,,,,,,,,,,,,,,,,,,,,
,,"[""comma""]",0,[0.14400000000000546],93,0,93,0,1,6155e204cc071b306458dfff,22,Mężczyzna,2022-06-04_08h09.30.683,task,2021.1.4,Win32,60.0240096,628b806c463b948bc644b84f,629af70e3fac47c39a415cdf,,,,,,,,,,,,,,,,,,,,,,,,,,,,,,,,,,,,,,,,,,,,,,,,,,,,,,,,,,,,,,,,,,,,,,,,,,,,,,,,,,,,,,,,,,,,,,,,,,,,,,,
,,"[""comma""]",0,[0.2560000000000002],94,0,94,0,1,6155e204cc071b306458dfff,22,Mężczyzna,2022-06-04_08h09.30.683,task,2021.1.4,Win32,60.0240096,628b806c463b948bc644b84f,629af70e3fac47c39a415cdf,,,,,,,,,,,,,,,,,,,,,,,,,,,,,,,,,,,,,,,,,,,,,,,,,,,,,,,,,,,,,,,,,,,,,,,,,,,,,,,,,,,,,,,,,,,,,,,,,,,,,,,
,,"[""comma""]",0,[0.26799999999997226],95,0,95,0,1,6155e204cc071b306458dfff,22,Mężczyzna,2022-06-04_08h09.30.683,task,2021.1.4,Win32,60.0240096,628b806c463b948bc644b84f,629af70e3fac47c39a415cdf,,,,,,,,,,,,,,,,,,,,,,,,,,,,,,,,,,,,,,,,,,,,,,,,,,,,,,,,,,,,,,,,,,,,,,,,,,,,,,,,,,,,,,,,,,,,,,,,,,,,,,,
,,"[""period""]",0,[0.2880000000000109],96,0,96,0,1,6155e204cc071b306458dfff,22,Mężczyzna,2022-06-04_08h09.30.683,task,2021.1.4,Win32,60.0240096,628b806c463b948bc644b84f,629af70e3fac47c39a415cdf,,,,,,,,,,,,,,,,,,,,,,,,,,,,,,,,,,,,,,,,,,,,,,,,,,,,,,,,,,,,,,,,,,,,,,,,,,,,,,,,,,,,,,,,,,,,,,,,,,,,,,,
,,"[""period""]",0,[0.2349999999999568],97,0,97,0,1,6155e204cc071b306458dfff,22,Mężczyzna,2022-06-04_08h09.30.683,task,2021.1.4,Win32,60.0240096,628b806c463b948bc644b84f,629af70e3fac47c39a415cdf,,,,,,,,,,,,,,,,,,,,,,,,,,,,,,,,,,,,,,,,,,,,,,,,,,,,,,,,,,,,,,,,,,,,,,,,,,,,,,,,,,,,,,,,,,,,,,,,,,,,,,,
,,"[""comma""]",0,[0.1519999999999868],98,0,98,0,1,6155e204cc071b306458dfff,22,Mężczyzna,2022-06-04_08h09.30.683,task,2021.1.4,Win32,60.0240096,628b806c463b948bc644b84f,629af70e3fac47c39a415cdf,,,,,,,,,,,,,,,,,,,,,,,,,,,,,,,,,,,,,,,,,,,,,,,,,,,,,,,,,,,,,,,,,,,,,,,,,,,,,,,,,,,,,,,,,,,,,,,,,,,,,,,
,,"[""comma""]",0,[0.25200000000000955],99,0,99,0,1,6155e204cc071b306458dfff,22,Mężczyzna,2022-06-04_08h09.30.683,task,2021.1.4,Win32,60.0240096,628b806c463b948bc644b84f,629af70e3fac47c39a415cdf,,,,,,,,,,,,,,,,,,,,,,,,,,,,,,,,,,,,,,,,,,,,,,,,,,,,,,,,,,,,,,,,,,,,,,,,,,,,,,,,,,,,,,,,,,,,,,,,,,,,,,,
,,"[""comma""]",0,[0.2599999999999909],100,0,100,0,1,6155e204cc071b306458dfff,22,Mężczyzna,2022-06-04_08h09.30.683,task,2021.1.4,Win32,60.0240096,628b806c463b948bc644b84f,629af70e3fac47c39a415cdf,,,,,,,,,,,,,,,,,,,,,,,,,,,,,,,,,,,,,,,,,,,,,,,,,,,,,,,,,,,,,,,,,,,,,,,,,,,,,,,,,,,,,,,,,,,,,,,,,,,,,,,
,,"[""period""]",0,[0.12599999999997635],101,0,101,0,1,6155e204cc071b306458dfff,22,Mężczyzna,2022-06-04_08h09.30.683,task,2021.1.4,Win32,60.0240096,628b806c463b948bc644b84f,629af70e3fac47c39a415cdf,,,,,,,,,,,,,,,,,,,,,,,,,,,,,,,,,,,,,,,,,,,,,,,,,,,,,,,,,,,,,,,,,,,,,,,,,,,,,,,,,,,,,,,,,,,,,,,,,,,,,,,
,,"[""period""]",0,[0.11199999999996635],102,0,102,0,1,6155e204cc071b306458dfff,22,Mężczyzna,2022-06-04_08h09.30.683,task,2021.1.4,Win32,60.0240096,628b806c463b948bc644b84f,629af70e3fac47c39a415cdf,,,,,,,,,,,,,,,,,,,,,,,,,,,,,,,,,,,,,,,,,,,,,,,,,,,,,,,,,,,,,,,,,,,,,,,,,,,,,,,,,,,,,,,,,,,,,,,,,,,,,,,
,,"[""comma""]",0,[0.15100000000001046],103,0,103,0,1,6155e204cc071b306458dfff,22,Mężczyzna,2022-06-04_08h09.30.683,task,2021.1.4,Win32,60.0240096,628b806c463b948bc644b84f,629af70e3fac47c39a415cdf,,,,,,,,,,,,,,,,,,,,,,,,,,,,,,,,,,,,,,,,,,,,,,,,,,,,,,,,,,,,,,,,,,,,,,,,,,,,,,,,,,,,,,,,,,,,,,,,,,,,,,,
,,"[""comma""]",0,[0.4350000000000023],104,0,104,0,1,6155e204cc071b306458dfff,22,Mężczyzna,2022-06-04_08h09.30.683,task,2021.1.4,Win32,60.0240096,628b806c463b948bc644b84f,629af70e3fac47c39a415cdf,,,,,,,,,,,,,,,,,,,,,,,,,,,,,,,,,,,,,,,,,,,,,,,,,,,,,,,,,,,,,,,,,,,,,,,,,,,,,,,,,,,,,,,,,,,,,,,,,,,,,,,
,,"[""period""]",0,[0.5179999999999723],105,0,105,0,1,6155e204cc071b306458dfff,22,Mężczyzna,2022-06-04_08h09.30.683,task,2021.1.4,Win32,60.0240096,628b806c463b948bc644b84f,629af70e3fac47c39a415cdf,,,,,,,,,,,,,,,,,,,,,,,,,,,,,,,,,,,,,,,,,,,,,,,,,,,,,,,,,,,,,,,,,,,,,,,,,,,,,,,,,,,,,,,,,,,,,,,,,,,,,,,
,,"[""comma""]",0,[0.2510000000000332],106,0,106,0,1,6155e204cc071b306458dfff,22,Mężczyzna,2022-06-04_08h09.30.683,task,2021.1.4,Win32,60.0240096,628b806c463b948bc644b84f,629af70e3fac47c39a415cdf,,,,,,,,,,,,,,,,,,,,,,,,,,,,,,,,,,,,,,,,,,,,,,,,,,,,,,,,,,,,,,,,,,,,,,,,,,,,,,,,,,,,,,,,,,,,,,,,,,,,,,,
,,"[""period"",""comma""]",0,"[0.09500000000002728,1.9680000000000177]",107,0,107,0,1,6155e204cc071b306458dfff,22,Mężczyzna,2022-06-04_08h09.30.683,task,2021.1.4,Win32,60.0240096,628b806c463b948bc644b84f,629af70e3fac47c39a415cdf,,,,,,,,,,,,,,,,,,,,,,,,,,,,,,,,,,,,,,,,,,,,,,,,,,,,,,,,,,,,,,,,,,,,,,,,,,,,,,,,,,,,,,,,,,,,,,,,,,,,,,,
,,,0,,108,0,108,0,1,6155e204cc071b306458dfff,22,Mężczyzna,2022-06-04_08h09.30.683,task,2021.1.4,Win32,60.0240096,628b806c463b948bc644b84f,629af70e3fac47c39a415cdf,,,,,,,,,,,,,,,,,,,,,,,,,,,,,,,,,,,,,,,,,,,,,,,,,,,,,,,,,,,,,,,,,,,,,,,,,,,,,,,,,,,,,,,,,,,,,,,,,,,,,,,
,,"[""comma""]",0,[0.038000000000010914],109,0,109,0,1,6155e204cc071b306458dfff,22,Mężczyzna,2022-06-04_08h09.30.683,task,2021.1.4,Win32,60.0240096,628b806c463b948bc644b84f,629af70e3fac47c39a415cdf,,,,,,,,,,,,,,,,,,,,,,,,,,,,,,,,,,,,,,,,,,,,,,,,,,,,,,,,,,,,,,,,,,,,,,,,,,,,,,,,,,,,,,,,,,,,,,,,,,,,,,,
,,"[""period""]",0,[0.05099999999998772],110,0,110,0,1,6155e204cc071b306458dfff,22,Mężczyzna,2022-06-04_08h09.30.683,task,2021.1.4,Win32,60.0240096,628b806c463b948bc644b84f,629af70e3fac47c39a415cdf,,,,,,,,,,,,,,,,,,,,,,,,,,,,,,,,,,,,,,,,,,,,,,,,,,,,,,,,,,,,,,,,,,,,,,,,,,,,,,,,,,,,,,,,,,,,,,,,,,,,,,,
,,"[""period""]",0,[0.06299999999998818],111,0,111,0,1,6155e204cc071b306458dfff,22,Mężczyzna,2022-06-04_08h09.30.683,task,2021.1.4,Win32,60.0240096,628b806c463b948bc644b84f,629af70e3fac47c39a415cdf,,,,,,,,,,,,,,,,,,,,,,,,,,,,,,,,,,,,,,,,,,,,,,,,,,,,,,,,,,,,,,,,,,,,,,,,,,,,,,,,,,,,,,,,,,,,,,,,,,,,,,,
,,"[""comma""]",0,[0.3269999999999982],112,0,112,0,1,6155e204cc071b306458dfff,22,Mężczyzna,2022-06-04_08h09.30.683,task,2021.1.4,Win32,60.0240096,628b806c463b948bc644b84f,629af70e3fac47c39a415cdf,,,,,,,,,,,,,,,,,,,,,,,,,,,,,,,,,,,,,,,,,,,,,,,,,,,,,,,,,,,,,,,,,,,,,,,,,,,,,,,,,,,,,,,,,,,,,,,,,,,,,,,
,,"[""comma""]",0,[0.27899999999999636],113,0,113,0,1,6155e204cc071b306458dfff,22,Mężczyzna,2022-06-04_08h09.30.683,task,2021.1.4,Win32,60.0240096,628b806c463b948bc644b84f,629af70e3fac47c39a415cdf,,,,,,,,,,,,,,,,,,,,,,,,,,,,,,,,,,,,,,,,,,,,,,,,,,,,,,,,,,,,,,,,,,,,,,,,,,,,,,,,,,,,,,,,,,,,,,,,,,,,,,,
,,"[""comma"",""comma""]",0,"[0.13400000000001455,1.940999999999974]",114,0,114,0,1,6155e204cc071b306458dfff,22,Mężczyzna,2022-06-04_08h09.30.683,task,2021.1.4,Win32,60.0240096,628b806c463b948bc644b84f,629af70e3fac47c39a415cdf,,,,,,,,,,,,,,,,,,,,,,,,,,,,,,,,,,,,,,,,,,,,,,,,,,,,,,,,,,,,,,,,,,,,,,,,,,,,,,,,,,,,,,,,,,,,,,,,,,,,,,,
,,,0,,115,0,115,0,1,6155e204cc071b306458dfff,22,Mężczyzna,2022-06-04_08h09.30.683,task,2021.1.4,Win32,60.0240096,628b806c463b948bc644b84f,629af70e3fac47c39a415cdf,,,,,,,,,,,,,,,,,,,,,,,,,,,,,,,,,,,,,,,,,,,,,,,,,,,,,,,,,,,,,,,,,,,,,,,,,,,,,,,,,,,,,,,,,,,,,,,,,,,,,,,
,,"[""period""]",0,[0.08599999999995589],116,0,116,0,1,6155e204cc071b306458dfff,22,Mężczyzna,2022-06-04_08h09.30.683,task,2021.1.4,Win32,60.0240096,628b806c463b948bc644b84f,629af70e3fac47c39a415cdf,,,,,,,,,,,,,,,,,,,,,,,,,,,,,,,,,,,,,,,,,,,,,,,,,,,,,,,,,,,,,,,,,,,,,,,,,,,,,,,,,,,,,,,,,,,,,,,,,,,,,,,
,,"[""comma""]",0,[0.2699999999999818],117,0,117,0,1,6155e204cc071b306458dfff,22,Mężczyzna,2022-06-04_08h09.30.683,task,2021.1.4,Win32,60.0240096,628b806c463b948bc644b84f,629af70e3fac47c39a415cdf,,,,,,,,,,,,,,,,,,,,,,,,,,,,,,,,,,,,,,,,,,,,,,,,,,,,,,,,,,,,,,,,,,,,,,,,,,,,,,,,,,,,,,,,,,,,,,,,,,,,,,,
,,"[""period""]",0,[0.28600000000000136],118,0,118,0,1,6155e204cc071b306458dfff,22,Mężczyzna,2022-06-04_08h09.30.683,task,2021.1.4,Win32,60.0240096,628b806c463b948bc644b84f,629af70e3fac47c39a415cdf,,,,,,,,,,,,,,,,,,,,,,,,,,,,,,,,,,,,,,,,,,,,,,,,,,,,,,,,,,,,,,,,,,,,,,,,,,,,,,,,,,,,,,,,,,,,,,,,,,,,,,,
,,"[""comma""]",0,[0.28600000000000136],119,0,119,0,1,6155e204cc071b306458dfff,22,Mężczyzna,2022-06-04_08h09.30.683,task,2021.1.4,Win32,60.0240096,628b806c463b948bc644b84f,629af70e3fac47c39a415cdf,,,,,,,,,,,,,,,,,,,,,,,,,,,,,,,,,,,,,,,,,,,,,,,,,,,,,,,,,,,,,,,,,,,,,,,,,,,,,,,,,,,,,,,,,,,,,,,,,,,,,,,
,,,,,,,,,,6155e204cc071b306458dfff,22,Mężczyzna,2022-06-04_08h09.30.683,task,2021.1.4,Win32,60.0240096,628b806c463b948bc644b84f,629af70e3fac47c39a415cdf,space,51.138,space,5.094,0,0,0,0,1,X V Q F H G B L J M P D K C T S W R N Z,,,,,,,,,,,,,,,,,,,,,,,,,,,,,,,,,,,,,,,,,,,,,,,,,,,,,,,,,,,,,,,,,,,,,,,,,,,,,,,,,,,,,,,,,,,,,
,,,,,,,,,,6155e204cc071b306458dfff,22,Mężczyzna,2022-06-04_08h09.30.683,task,2021.1.4,Win32,60.0240096,628b806c463b948bc644b84f,629af70e3fac47c39a415cdf,,,,,1,0,1,0,1,X V Q F H G B L J M P D K C T S W R N Z,,,,,,,,,,,,,,,,,,,,,,,,,,,,,,,,,,,,,,,,,,,,,,,,,,,,,,,,,,,,,,,,,,,,,,,,,,,,,,,,,,,,,,,,,,,,,
,,,,,,,,,,6155e204cc071b306458dfff,22,Mężczyzna,2022-06-04_08h09.30.683,task,2021.1.4,Win32,60.0240096,628b806c463b948bc644b84f,629af70e3fac47c39a415cdf,,,,,,,,,,,zx,"[""z"",""x""]","[1.2939999999999827,1.6449999999999818,2.238999999999976]",1,ZX,0,0,0,0,1,,,,,,,,,,,,,,,,,,,,,,,,,,,,,,,,,,,,,,,,,,,,,,,,,,,,,,,,,,,,,,,,,,,,,,,,,,,,,,,,,,,
,,,,,,,,,,6155e204cc071b306458dfff,22,Mężczyzna,2022-06-04_08h09.30.683,task,2021.1.4,Win32,60.0240096,628b806c463b948bc644b84f,629af70e3fac47c39a415cdf,,,,,0,0,0,0,1,X V Q F H G B L J M P D K C T S W R N Z,,,,,,,,,,,,,,,,,,,,,,,,,,,,,,,,,,,,,,,,,,,,,,,,,,,,,,,,,,,,,,,,,,,,,,,,,,,,,,,,,,,,,,,,,,,,,
,,,,,,,,,,6155e204cc071b306458dfff,22,Mężczyzna,2022-06-04_08h09.30.683,task,2021.1.4,Win32,60.0240096,628b806c463b948bc644b84f,629af70e3fac47c39a415cdf,,,,,1,0,1,0,1,X V Q F H G B L J M P D K C T S W R N Z,,,,,,,,,,,,,,,,,,,,,,,,,,,,,,,,,,,,,,,,,,,,,,,,,,,,,,,,,,,,,,,,,,,,,,,,,,,,,,,,,,,,,,,,,,,,,
,,,,,,,,,,6155e204cc071b306458dfff,22,Mężczyzna,2022-06-04_08h09.30.683,task,2021.1.4,Win32,60.0240096,628b806c463b948bc644b84f,629af70e3fac47c39a415cdf,,,,,,,,,,,nk,"[""n"",""k""]","[0.75,1.2160000000000082,1.941000000000031]",1,NK,1,0,1,0,1,,,,,,,,,,,,,,,,,,,,,,,,,,,,,,,,,,,,,,,,,,,,,,,,,,,,,,,,,,,,,,,,,,,,,,,,,,,,,,,,,,,
,,,,,,,,,,6155e204cc071b306458dfff,22,Mężczyzna,2022-06-04_08h09.30.683,task,2021.1.4,Win32,60.0240096,628b806c463b948bc644b84f,629af70e3fac47c39a415cdf,,,,,0,0,0,0,1,X V Q F H G B L J M P D K C T S W R N Z,,,,,,,,,,,,,,,,,,,,,,,,,,,,,,,,,,,,,,,,,,,,,,,,,,,,,,,,,,,,,,,,,,,,,,,,,,,,,,,,,,,,,,,,,,,,,
,,,,,,,,,,6155e204cc071b306458dfff,22,Mężczyzna,2022-06-04_08h09.30.683,task,2021.1.4,Win32,60.0240096,628b806c463b948bc644b84f,629af70e3fac47c39a415cdf,,,,,1,0,1,0,1,X V Q F H G B L J M P D K C T S W R N Z,,,,,,,,,,,,,,,,,,,,,,,,,,,,,,,,,,,,,,,,,,,,,,,,,,,,,,,,,,,,,,,,,,,,,,,,,,,,,,,,,,,,,,,,,,,,,
,,,,,,,,,,6155e204cc071b306458dfff,22,Mężczyzna,2022-06-04_08h09.30.683,task,2021.1.4,Win32,60.0240096,628b806c463b948bc644b84f,629af70e3fac47c39a415cdf,,,,,2,0,2,0,1,X V Q F H G B L J M P D K C T S W R N Z,,,,,,,,,,,,,,,,,,,,,,,,,,,,,,,,,,,,,,,,,,,,,,,,,,,,,,,,,,,,,,,,,,,,,,,,,,,,,,,,,,,,,,,,,,,,,
,,,,,,,,,,6155e204cc071b306458dfff,22,Mężczyzna,2022-06-04_08h09.30.683,task,2021.1.4,Win32,60.0240096,628b806c463b948bc644b84f,629af70e3fac47c39a415cdf,,,,,,,,,,,bwb,"[""b"",""w"",""b""]","[0.4329999999999927,0.7229999999999563,1.0159999999999627,1.683999999999969]",1,BWB,2,0,2,0,1,,,,,,,,,,,,,,,,,,,,,,,,,,,,,,,,,,,,,,,,,,,,,,,,,,,,,,,,,,,,,,,,,,,,,,,,,,,,,,,,,,,
,,,,,,,,,,6155e204cc071b306458dfff,22,Mężczyzna,2022-06-04_08h09.30.683,task,2021.1.4,Win32,60.0240096,628b806c463b948bc644b84f,629af70e3fac47c39a415cdf,,,,,0,0,0,0,1,X V Q F H G B L J M P D K C T S W R N Z,,,,,,,,,,,,,,,,,,,,,,,,,,,,,,,,,,,,,,,,,,,,,,,,,,,,,,,,,,,,,,,,,,,,,,,,,,,,,,,,,,,,,,,,,,,,,
,,,,,,,,,,6155e204cc071b306458dfff,22,Mężczyzna,2022-06-04_08h09.30.683,task,2021.1.4,Win32,60.0240096,628b806c463b948bc644b84f,629af70e3fac47c39a415cdf,,,,,1,0,1,0,1,X V Q F H G B L J M P D K C T S W R N Z,,,,,,,,,,,,,,,,,,,,,,,,,,,,,,,,,,,,,,,,,,,,,,,,,,,,,,,,,,,,,,,,,,,,,,,,,,,,,,,,,,,,,,,,,,,,,
,,,,,,,,,,6155e204cc071b306458dfff,22,Mężczyzna,2022-06-04_08h09.30.683,task,2021.1.4,Win32,60.0240096,628b806c463b948bc644b84f,629af70e3fac47c39a415cdf,,,,,2,0,2,0,1,X V Q F H G B L J M P D K C T S W R N Z,,,,,,,,,,,,,,,,,,,,,,,,,,,,,,,,,,,,,,,,,,,,,,,,,,,,,,,,,,,,,,,,,,,,,,,,,,,,,,,,,,,,,,,,,,,,,
,,,,,,,,,,6155e204cc071b306458dfff,22,Mężczyzna,2022-06-04_08h09.30.683,task,2021.1.4,Win32,60.0240096,628b806c463b948bc644b84f,629af70e3fac47c39a415cdf,,,,,,,,,,,gdr,"[""g"",""d"",""r""]","[0.4449999999999932,0.7889999999999873,1.0529999999999973,1.572999999999979]",1,GDR,3,0,3,0,1,,,,,,,,,,,,,,,,,,,,,,,,,,,,,,,,,,,,,,,,,,,,,,,,,,,,,,,,,,,,,,,,,,,,,,,,,,,,,,,,,,,
,,,,,,,,,,6155e204cc071b306458dfff,22,Mężczyzna,2022-06-04_08h09.30.683,task,2021.1.4,Win32,60.0240096,628b806c463b948bc644b84f,629af70e3fac47c39a415cdf,,,,,0,0,0,0,1,X V Q F H G B L J M P D K C T S W R N Z,,,,,,,,,,,,,,,,,,,,,,,,,,,,,,,,,,,,,,,,,,,,,,,,,,,,,,,,,,,,,,,,,,,,,,,,,,,,,,,,,,,,,,,,,,,,,
,,,,,,,,,,6155e204cc071b306458dfff,22,Mężczyzna,2022-06-04_08h09.30.683,task,2021.1.4,Win32,60.0240096,628b806c463b948bc644b84f,629af70e3fac47c39a415cdf,,,,,1,0,1,0,1,X V Q F H G B L J M P D K C T S W R N Z,,,,,,,,,,,,,,,,,,,,,,,,,,,,,,,,,,,,,,,,,,,,,,,,,,,,,,,,,,,,,,,,,,,,,,,,,,,,,,,,,,,,,,,,,,,,,
,,,,,,,,,,6155e204cc071b306458dfff,22,Mężczyzna,2022-06-04_08h09.30.683,task,2021.1.4,Win32,60.0240096,628b806c463b948bc644b84f,629af70e3fac47c39a415cdf,,,,,2,0,2,0,1,X V Q F H G B L J M P D K C T S W R N Z,,,,,,,,,,,,,,,,,,,,,,,,,,,,,,,,,,,,,,,,,,,,,,,,,,,,,,,,,,,,,,,,,,,,,,,,,,,,,,,,,,,,,,,,,,,,,
,,,,,,,,,,6155e204cc071b306458dfff,22,Mężczyzna,2022-06-04_08h09.30.683,task,2021.1.4,Win32,60.0240096,628b806c463b948bc644b84f,629af70e3fac47c39a415cdf,,,,,3,0,3,0,1,X V Q F H G B L J M P D K C T S W R N Z,,,,,,,,,,,,,,,,,,,,,,,,,,,,,,,,,,,,,,,,,,,,,,,,,,,,,,,,,,,,,,,,,,,,,,,,,,,,,,,,,,,,,,,,,,,,,
,,,,,,,,,,6155e204cc071b306458dfff,22,Mężczyzna,2022-06-04_08h09.30.683,task,2021.1.4,Win32,60.0240096,628b806c463b948bc644b84f,629af70e3fac47c39a415cdf,,,,,,,,,,,hccw,"[""h"",""c"",""c"",""w""]","[0.4370000000000118,0.757000000000005,0.9399999999999977,1.1399999999999864,1.6340000000000146]",1,HCCW,4,0,4,0,1,,,,,,,,,,,,,,,,,,,,,,,,,,,,,,,,,,,,,,,,,,,,,,,,,,,,,,,,,,,,,,,,,,,,,,,,,,,,,,,,,,,
,,,,,,,,,,6155e204cc071b306458dfff,22,Mężczyzna,2022-06-04_08h09.30.683,task,2021.1.4,Win32,60.0240096,628b806c463b948bc644b84f,629af70e3fac47c39a415cdf,,,,,0,0,0,0,1,X V Q F H G B L J M P D K C T S W R N Z,,,,,,,,,,,,,,,,,,,,,,,,,,,,,,,,,,,,,,,,,,,,,,,,,,,,,,,,,,,,,,,,,,,,,,,,,,,,,,,,,,,,,,,,,,,,,
,,,,,,,,,,6155e204cc071b306458dfff,22,Mężczyzna,2022-06-04_08h09.30.683,task,2021.1.4,Win32,60.0240096,628b806c463b948bc644b84f,629af70e3fac47c39a415cdf,,,,,1,0,1,0,1,X V Q F H G B L J M P D K C T S W R N Z,,,,,,,,,,,,,,,,,,,,,,,,,,,,,,,,,,,,,,,,,,,,,,,,,,,,,,,,,,,,,,,,,,,,,,,,,,,,,,,,,,,,,,,,,,,,,
,,,,,,,,,,6155e204cc071b306458dfff,22,Mężczyzna,2022-06-04_08h09.30.683,task,2021.1.4,Win32,60.0240096,628b806c463b948bc644b84f,629af70e3fac47c39a415cdf,,,,,2,0,2,0,1,X V Q F H G B L J M P D K C T S W R N Z,,,,,,,,,,,,,,,,,,,,,,,,,,,,,,,,,,,,,,,,,,,,,,,,,,,,,,,,,,,,,,,,,,,,,,,,,,,,,,,,,,,,,,,,,,,,,
,,,,,,,,,,6155e204cc071b306458dfff,22,Mężczyzna,2022-06-04_08h09.30.683,task,2021.1.4,Win32,60.0240096,628b806c463b948bc644b84f,629af70e3fac47c39a415cdf,,,,,3,0,3,0,1,X V Q F H G B L J M P D K C T S W R N Z,,,,,,,,,,,,,,,,,,,,,,,,,,,,,,,,,,,,,,,,,,,,,,,,,,,,,,,,,,,,,,,,,,,,,,,,,,,,,,,,,,,,,,,,,,,,,
,,,,,,,,,,6155e204cc071b306458dfff,22,Mężczyzna,2022-06-04_08h09.30.683,task,2021.1.4,Win32,60.0240096,628b806c463b948bc644b84f,629af70e3fac47c39a415cdf,,,,,,,,,,,dcxf,"[""d"",""c"",""x"",""f""]","[0.5,0.7949999999999591,1.0269999999999868,1.2999999999999545,1.81899999999996]",1,DCXF,5,0,5,0,1,,,,,,,,,,,,,,,,,,,,,,,,,,,,,,,,,,,,,,,,,,,,,,,,,,,,,,,,,,,,,,,,,,,,,,,,,,,,,,,,,,,
,,,,,,,,,,6155e204cc071b306458dfff,22,Mężczyzna,2022-06-04_08h09.30.683,task,2021.1.4,Win32,60.0240096,628b806c463b948bc644b84f,629af70e3fac47c39a415cdf,,,,,0,0,0,0,1,X V Q F H G B L J M P D K C T S W R N Z,,,,,,,,,,,,,,,,,,,,,,,,,,,,,,,,,,,,,,,,,,,,,,,,,,,,,,,,,,,,,,,,,,,,,,,,,,,,,,,,,,,,,,,,,,,,,
,,,,,,,,,,6155e204cc071b306458dfff,22,Mężczyzna,2022-06-04_08h09.30.683,task,2021.1.4,Win32,60.0240096,628b806c463b948bc644b84f,629af70e3fac47c39a415cdf,,,,,1,0,1,0,1,X V Q F H G B L J M P D K C T S W R N Z,,,,,,,,,,,,,,,,,,,,,,,,,,,,,,,,,,,,,,,,,,,,,,,,,,,,,,,,,,,,,,,,,,,,,,,,,,,,,,,,,,,,,,,,,,,,,
,,,,,,,,,,6155e204cc071b306458dfff,22,Mężczyzna,2022-06-04_08h09.30.683,task,2021.1.4,Win32,60.0240096,628b806c463b948bc644b84f,629af70e3fac47c39a415cdf,,,,,2,0,2,0,1,X V Q F H G B L J M P D K C T S W R N Z,,,,,,,,,,,,,,,,,,,,,,,,,,,,,,,,,,,,,,,,,,,,,,,,,,,,,,,,,,,,,,,,,,,,,,,,,,,,,,,,,,,,,,,,,,,,,
,,,,,,,,,,6155e204cc071b306458dfff,22,Mężczyzna,2022-06-04_08h09.30.683,task,2021.1.4,Win32,60.0240096,628b806c463b948bc644b84f,629af70e3fac47c39a415cdf,,,,,3,0,3,0,1,X V Q F H G B L J M P D K C T S W R N Z,,,,,,,,,,,,,,,,,,,,,,,,,,,,,,,,,,,,,,,,,,,,,,,,,,,,,,,,,,,,,,,,,,,,,,,,,,,,,,,,,,,,,,,,,,,,,
,,,,,,,,,,6155e204cc071b306458dfff,22,Mężczyzna,2022-06-04_08h09.30.683,task,2021.1.4,Win32,60.0240096,628b806c463b948bc644b84f,629af70e3fac47c39a415cdf,,,,,4,0,4,0,1,X V Q F H G B L J M P D K C T S W R N Z,,,,,,,,,,,,,,,,,,,,,,,,,,,,,,,,,,,,,,,,,,,,,,,,,,,,,,,,,,,,,,,,,,,,,,,,,,,,,,,,,,,,,,,,,,,,,
,,,,,,,,,,6155e204cc071b306458dfff,22,Mężczyzna,2022-06-04_08h09.30.683,task,2021.1.4,Win32,60.0240096,628b806c463b948bc644b84f,629af70e3fac47c39a415cdf,,,,,,,,,,,wnjdc,"[""w"",""n"",""j"",""d"",""c""]","[0.38400000000001455,0.6940000000000168,1.1100000000000136,1.6689999999999827,1.9420000000000073,2.535000000000025]",1,WNJDC,6,0,6,0,1,,,,,,,,,,,,,,,,,,,,,,,,,,,,,,,,,,,,,,,,,,,,,,,,,,,,,,,,,,,,,,,,,,,,,,,,,,,,,,,,,,,
,,,,,,,,,,6155e204cc071b306458dfff,22,Mężczyzna,2022-06-04_08h09.30.683,task,2021.1.4,Win32,60.0240096,628b806c463b948bc644b84f,629af70e3fac47c39a415cdf,,,,,0,0,0,0,1,X V Q F H G B L J M P D K C T S W R N Z,,,,,,,,,,,,,,,,,,,,,,,,,,,,,,,,,,,,,,,,,,,,,,,,,,,,,,,,,,,,,,,,,,,,,,,,,,,,,,,,,,,,,,,,,,,,,
,,,,,,,,,,6155e204cc071b306458dfff,22,Mężczyzna,2022-06-04_08h09.30.683,task,2021.1.4,Win32,60.0240096,628b806c463b948bc644b84f,629af70e3fac47c39a415cdf,,,,,1,0,1,0,1,X V Q F H G B L J M P D K C T S W R N Z,,,,,,,,,,,,,,,,,,,,,,,,,,,,,,,,,,,,,,,,,,,,,,,,,,,,,,,,,,,,,,,,,,,,,,,,,,,,,,,,,,,,,,,,,,,,,
,,,,,,,,,,6155e204cc071b306458dfff,22,Mężczyzna,2022-06-04_08h09.30.683,task,2021.1.4,Win32,60.0240096,628b806c463b948bc644b84f,629af70e3fac47c39a415cdf,,,,,2,0,2,0,1,X V Q F H G B L J M P D K C T S W R N Z,,,,,,,,,,,,,,,,,,,,,,,,,,,,,,,,,,,,,,,,,,,,,,,,,,,,,,,,,,,,,,,,,,,,,,,,,,,,,,,,,,,,,,,,,,,,,
,,,,,,,,,,6155e204cc071b306458dfff,22,Mężczyzna,2022-06-04_08h09.30.683,task,2021.1.4,Win32,60.0240096,628b806c463b948bc644b84f,629af70e3fac47c39a415cdf,,,,,3,0,3,0,1,X V Q F H G B L J M P D K C T S W R N Z,,,,,,,,,,,,,,,,,,,,,,,,,,,,,,,,,,,,,,,,,,,,,,,,,,,,,,,,,,,,,,,,,,,,,,,,,,,,,,,,,,,,,,,,,,,,,
,,,,,,,,,,6155e204cc071b306458dfff,22,Mężczyzna,2022-06-04_08h09.30.683,task,2021.1.4,Win32,60.0240096,628b806c463b948bc644b84f,629af70e3fac47c39a415cdf,,,,,4,0,4,0,1,X V Q F H G B L J M P D K C T S W R N Z,,,,,,,,,,,,,,,,,,,,,,,,,,,,,,,,,,,,,,,,,,,,,,,,,,,,,,,,,,,,,,,,,,,,,,,,,,,,,,,,,,,,,,,,,,,,,
,,,,,,,,,,6155e204cc071b306458dfff,22,Mężczyzna,2022-06-04_08h09.30.683,task,2021.1.4,Win32,60.0240096,628b806c463b948bc644b84f,629af70e3fac47c39a415cdf,,,,,,,,,,,dprnt,"[""d"",""p"",""r"",""n"",""t""]","[1.3340000000000032,2.033999999999992,2.6499999999999773,2.9329999999999927,3.1859999999999786,3.6569999999999823]",1,DPRNT,7,0,7,0,1,,,,,,,,,,,,,,,,,,,,,,,,,,,,,,,,,,,,,,,,,,,,,,,,,,,,,,,,,,,,,,,,,,,,,,,,,,,,,,,,,,,
,,,,,,,,,,6155e204cc071b306458dfff,22,Mężczyzna,2022-06-04_08h09.30.683,task,2021.1.4,Win32,60.0240096,628b806c463b948bc644b84f,629af70e3fac47c39a415cdf,,,,,0,0,0,0,1,X V Q F H G B L J M P D K C T S W R N Z,,,,,,,,,,,,,,,,,,,,,,,,,,,,,,,,,,,,,,,,,,,,,,,,,,,,,,,,,,,,,,,,,,,,,,,,,,,,,,,,,,,,,,,,,,,,,
,,,,,,,,,,6155e204cc071b306458dfff,22,Mężczyzna,2022-06-04_08h09.30.683,task,2021.1.4,Win32,60.0240096,628b806c463b948bc644b84f,629af70e3fac47c39a415cdf,,,,,1,0,1,0,1,X V Q F H G B L J M P D K C T S W R N Z,,,,,,,,,,,,,,,,,,,,,,,,,,,,,,,,,,,,,,,,,,,,,,,,,,,,,,,,,,,,,,,,,,,,,,,,,,,,,,,,,,,,,,,,,,,,,
,,,,,,,,,,6155e204cc071b306458dfff,22,Mężczyzna,2022-06-04_08h09.30.683,task,2021.1.4,Win32,60.0240096,628b806c463b948bc644b84f,629af70e3fac47c39a415cdf,,,,,2,0,2,0,1,X V Q F H G B L J M P D K C T S W R N Z,,,,,,,,,,,,,,,,,,,,,,,,,,,,,,,,,,,,,,,,,,,,,,,,,,,,,,,,,,,,,,,,,,,,,,,,,,,,,,,,,,,,,,,,,,,,,
,,,,,,,,,,6155e204cc071b306458dfff,22,Mężczyzna,2022-06-04_08h09.30.683,task,2021.1.4,Win32,60.0240096,628b806c463b948bc644b84f,629af70e3fac47c39a415cdf,,,,,3,0,3,0,1,X V Q F H G B L J M P D K C T S W R N Z,,,,,,,,,,,,,,,,,,,,,,,,,,,,,,,,,,,,,,,,,,,,,,,,,,,,,,,,,,,,,,,,,,,,,,,,,,,,,,,,,,,,,,,,,,,,,
,,,,,,,,,,6155e204cc071b306458dfff,22,Mężczyzna,2022-06-04_08h09.30.683,task,2021.1.4,Win32,60.0240096,628b806c463b948bc644b84f,629af70e3fac47c39a415cdf,,,,,4,0,4,0,1,X V Q F H G B L J M P D K C T S W R N Z,,,,,,,,,,,,,,,,,,,,,,,,,,,,,,,,,,,,,,,,,,,,,,,,,,,,,,,,,,,,,,,,,,,,,,,,,,,,,,,,,,,,,,,,,,,,,
,,,,,,,,,,6155e204cc071b306458dfff,22,Mężczyzna,2022-06-04_08h09.30.683,task,2021.1.4,Win32,60.0240096,628b806c463b948bc644b84f,629af70e3fac47c39a415cdf,,,,,5,0,5,0,1,X V Q F H G B L J M P D K C T S W R N Z,,,,,,,,,,,,,,,,,,,,,,,,,,,,,,,,,,,,,,,,,,,,,,,,,,,,,,,,,,,,,,,,,,,,,,,,,,,,,,,,,,,,,,,,,,,,,
,,,,,,,,,,6155e204cc071b306458dfff,22,Mężczyzna,2022-06-04_08h09.30.683,task,2021.1.4,Win32,60.0240096,628b806c463b948bc644b84f,629af70e3fac47c39a415cdf,,,,,,,,,,,qwbwrh,"[""q"",""w"",""b"",""w"",""r"",""h""]","[1.2169999999999845,1.4350000000000023,2.1679999999999495,2.600999999999999,2.8559999999999945,3.1189999999999714,3.558999999999969]",1,QWBWRH,8,0,8,0,1,,,,,,,,,,,,,,,,,,,,,,,,,,,,,,,,,,,,,,,,,,,,,,,,,,,,,,,,,,,,,,,,,,,,,,,,,,,,,,,,,,,
,,,,,,,,,,6155e204cc071b306458dfff,22,Mężczyzna,2022-06-04_08h09.30.683,task,2021.1.4,Win32,60.0240096,628b806c463b948bc644b84f,629af70e3fac47c39a415cdf,,,,,0,0,0,0,1,X V Q F H G B L J M P D K C T S W R N Z,,,,,,,,,,,,,,,,,,,,,,,,,,,,,,,,,,,,,,,,,,,,,,,,,,,,,,,,,,,,,,,,,,,,,,,,,,,,,,,,,,,,,,,,,,,,,
,,,,,,,,,,6155e204cc071b306458dfff,22,Mężczyzna,2022-06-04_08h09.30.683,task,2021.1.4,Win32,60.0240096,628b806c463b948bc644b84f,629af70e3fac47c39a415cdf,,,,,1,0,1,0,1,X V Q F H G B L J M P D K C T S W R N Z,,,,,,,,,,,,,,,,,,,,,,,,,,,,,,,,,,,,,,,,,,,,,,,,,,,,,,,,,,,,,,,,,,,,,,,,,,,,,,,,,,,,,,,,,,,,,
,,,,,,,,,,6155e204cc071b306458dfff,22,Mężczyzna,2022-06-04_08h09.30.683,task,2021.1.4,Win32,60.0240096,628b806c463b948bc644b84f,629af70e3fac47c39a415cdf,,,,,2,0,2,0,1,X V Q F H G B L J M P D K C T S W R N Z,,,,,,,,,,,,,,,,,,,,,,,,,,,,,,,,,,,,,,,,,,,,,,,,,,,,,,,,,,,,,,,,,,,,,,,,,,,,,,,,,,,,,,,,,,,,,
,,,,,,,,,,6155e204cc071b306458dfff,22,Mężczyzna,2022-06-04_08h09.30.683,task,2021.1.4,Win32,60.0240096,628b806c463b948bc644b84f,629af70e3fac47c39a415cdf,,,,,3,0,3,0,1,X V Q F H G B L J M P D K C T S W R N Z,,,,,,,,,,,,,,,,,,,,,,,,,,,,,,,,,,,,,,,,,,,,,,,,,,,,,,,,,,,,,,,,,,,,,,,,,,,,,,,,,,,,,,,,,,,,,
,,,,,,,,,,6155e204cc071b306458dfff,22,Mężczyzna,2022-06-04_08h09.30.683,task,2021.1.4,Win32,60.0240096,628b806c463b948bc644b84f,629af70e3fac47c39a415cdf,,,,,4,0,4,0,1,X V Q F H G B L J M P D K C T S W R N Z,,,,,,,,,,,,,,,,,,,,,,,,,,,,,,,,,,,,,,,,,,,,,,,,,,,,,,,,,,,,,,,,,,,,,,,,,,,,,,,,,,,,,,,,,,,,,
,,,,,,,,,,6155e204cc071b306458dfff,22,Mężczyzna,2022-06-04_08h09.30.683,task,2021.1.4,Win32,60.0240096,628b806c463b948bc644b84f,629af70e3fac47c39a415cdf,,,,,5,0,5,0,1,X V Q F H G B L J M P D K C T S W R N Z,,,,,,,,,,,,,,,,,,,,,,,,,,,,,,,,,,,,,,,,,,,,,,,,,,,,,,,,,,,,,,,,,,,,,,,,,,,,,,,,,,,,,,,,,,,,,
,,,,,,,,,,6155e204cc071b306458dfff,22,Mężczyzna,2022-06-04_08h09.30.683,task,2021.1.4,Win32,60.0240096,628b806c463b948bc644b84f,629af70e3fac47c39a415cdf,,,,,,,,,,,vghgkb,"[""v"",""g"",""h"",""g"",""k"",""b""]","[1.608000000000004,1.8719999999999573,2.1440000000000055,2.391999999999996,2.8389999999999986,3.270999999999958,3.718999999999994]",1,VGHGKB,9,0,9,0,1,,,,,,,,,,,,,,,,,,,,,,,,,,,,,,,,,,,,,,,,,,,,,,,,,,,,,,,,,,,,,,,,,,,,,,,,,,,,,,,,,,,
,,,,,,,,,,6155e204cc071b306458dfff,22,Mężczyzna,2022-06-04_08h09.30.683,task,2021.1.4,Win32,60.0240096,628b806c463b948bc644b84f,629af70e3fac47c39a415cdf,,,,,0,0,0,0,1,X V Q F H G B L J M P D K C T S W R N Z,,,,,,,,,,,,,,,,,,,,,,,,,,,,,,,,,,,,,,,,,,,,,,,,,,,,,,,,,,,,,,,,,,,,,,,,,,,,,,,,,,,,,,,,,,,,,
,,,,,,,,,,6155e204cc071b306458dfff,22,Mężczyzna,2022-06-04_08h09.30.683,task,2021.1.4,Win32,60.0240096,628b806c463b948bc644b84f,629af70e3fac47c39a415cdf,,,,,1,0,1,0,1,X V Q F H G B L J M P D K C T S W R N Z,,,,,,,,,,,,,,,,,,,,,,,,,,,,,,,,,,,,,,,,,,,,,,,,,,,,,,,,,,,,,,,,,,,,,,,,,,,,,,,,,,,,,,,,,,,,,
,,,,,,,,,,6155e204cc071b306458dfff,22,Mężczyzna,2022-06-04_08h09.30.683,task,2021.1.4,Win32,60.0240096,628b806c463b948bc644b84f,629af70e3fac47c39a415cdf,,,,,2,0,2,0,1,X V Q F H G B L J M P D K C T S W R N Z,,,,,,,,,,,,,,,,,,,,,,,,,,,,,,,,,,,,,,,,,,,,,,,,,,,,,,,,,,,,,,,,,,,,,,,,,,,,,,,,,,,,,,,,,,,,,
,,,,,,,,,,6155e204cc071b306458dfff,22,Mężczyzna,2022-06-04_08h09.30.683,task,2021.1.4,Win32,60.0240096,628b806c463b948bc644b84f,629af70e3fac47c39a415cdf,,,,,3,0,3,0,1,X V Q F H G B L J M P D K C T S W R N Z,,,,,,,,,,,,,,,,,,,,,,,,,,,,,,,,,,,,,,,,,,,,,,,,,,,,,,,,,,,,,,,,,,,,,,,,,,,,,,,,,,,,,,,,,,,,,
,,,,,,,,,,6155e204cc071b306458dfff,22,Mężczyzna,2022-06-04_08h09.30.683,task,2021.1.4,Win32,60.0240096,628b806c463b948bc644b84f,629af70e3fac47c39a415cdf,,,,,4,0,4,0,1,X V Q F H G B L J M P D K C T S W R N Z,,,,,,,,,,,,,,,,,,,,,,,,,,,,,,,,,,,,,,,,,,,,,,,,,,,,,,,,,,,,,,,,,,,,,,,,,,,,,,,,,,,,,,,,,,,,,
,,,,,,,,,,6155e204cc071b306458dfff,22,Mężczyzna,2022-06-04_08h09.30.683,task,2021.1.4,Win32,60.0240096,628b806c463b948bc644b84f,629af70e3fac47c39a415cdf,,,,,5,0,5,0,1,X V Q F H G B L J M P D K C T S W R N Z,,,,,,,,,,,,,,,,,,,,,,,,,,,,,,,,,,,,,,,,,,,,,,,,,,,,,,,,,,,,,,,,,,,,,,,,,,,,,,,,,,,,,,,,,,,,,
,,,,,,,,,,6155e204cc071b306458dfff,22,Mężczyzna,2022-06-04_08h09.30.683,task,2021.1.4,Win32,60.0240096,628b806c463b948bc644b84f,629af70e3fac47c39a415cdf,,,,,6,0,6,0,1,X V Q F H G B L J M P D K C T S W R N Z,,,,,,,,,,,,,,,,,,,,,,,,,,,,,,,,,,,,,,,,,,,,,,,,,,,,,,,,,,,,,,,,,,,,,,,,,,,,,,,,,,,,,,,,,,,,,
,,,,,,,,,,6155e204cc071b306458dfff,22,Mężczyzna,2022-06-04_08h09.30.683,task,2021.1.4,Win32,60.0240096,628b806c463b948bc644b84f,629af70e3fac47c39a415cdf,,,,,,,,,,,shjqcrc,"[""s"",""h"",""j"",""q"",""c"",""r"",""c""]","[1.29200000000003,1.5720000000000027,1.9160000000000537,2.6510000000000105,3.048000000000002,3.29200000000003,3.4920000000000186,4.466000000000008]",1,SHJQCRC,10,0,10,0,1,,,,,,,,,,,,,,,,,,,,,,,,,,,,,,,,,,,,,,,,,,,,,,,,,,,,,,,,,,,,,,,,,,,,,,,,,,,,,,,,,,,
,,,,,,,,,,6155e204cc071b306458dfff,22,Mężczyzna,2022-06-04_08h09.30.683,task,2021.1.4,Win32,60.0240096,628b806c463b948bc644b84f,629af70e3fac47c39a415cdf,,,,,0,0,0,0,1,X V Q F H G B L J M P D K C T S W R N Z,,,,,,,,,,,,,,,,,,,,,,,,,,,,,,,,,,,,,,,,,,,,,,,,,,,,,,,,,,,,,,,,,,,,,,,,,,,,,,,,,,,,,,,,,,,,,
,,,,,,,,,,6155e204cc071b306458dfff,22,Mężczyzna,2022-06-04_08h09.30.683,task,2021.1.4,Win32,60.0240096,628b806c463b948bc644b84f,629af70e3fac47c39a415cdf,,,,,1,0,1,0,1,X V Q F H G B L J M P D K C T S W R N Z,,,,,,,,,,,,,,,,,,,,,,,,,,,,,,,,,,,,,,,,,,,,,,,,,,,,,,,,,,,,,,,,,,,,,,,,,,,,,,,,,,,,,,,,,,,,,
,,,,,,,,,,6155e204cc071b306458dfff,22,Mężczyzna,2022-06-04_08h09.30.683,task,2021.1.4,Win32,60.0240096,628b806c463b948bc644b84f,629af70e3fac47c39a415cdf,,,,,2,0,2,0,1,X V Q F H G B L J M P D K C T S W R N Z,,,,,,,,,,,,,,,,,,,,,,,,,,,,,,,,,,,,,,,,,,,,,,,,,,,,,,,,,,,,,,,,,,,,,,,,,,,,,,,,,,,,,,,,,,,,,
,,,,,,,,,,6155e204cc071b306458dfff,22,Mężczyzna,2022-06-04_08h09.30.683,task,2021.1.4,Win32,60.0240096,628b806c463b948bc644b84f,629af70e3fac47c39a415cdf,,,,,3,0,3,0,1,X V Q F H G B L J M P D K C T S W R N Z,,,,,,,,,,,,,,,,,,,,,,,,,,,,,,,,,,,,,,,,,,,,,,,,,,,,,,,,,,,,,,,,,,,,,,,,,,,,,,,,,,,,,,,,,,,,,
,,,,,,,,,,6155e204cc071b306458dfff,22,Mężczyzna,2022-06-04_08h09.30.683,task,2021.1.4,Win32,60.0240096,628b806c463b948bc644b84f,629af70e3fac47c39a415cdf,,,,,4,0,4,0,1,X V Q F H G B L J M P D K C T S W R N Z,,,,,,,,,,,,,,,,,,,,,,,,,,,,,,,,,,,,,,,,,,,,,,,,,,,,,,,,,,,,,,,,,,,,,,,,,,,,,,,,,,,,,,,,,,,,,
,,,,,,,,,,6155e204cc071b306458dfff,22,Mężczyzna,2022-06-04_08h09.30.683,task,2021.1.4,Win32,60.0240096,628b806c463b948bc644b84f,629af70e3fac47c39a415cdf,,,,,5,0,5,0,1,X V Q F H G B L J M P D K C T S W R N Z,,,,,,,,,,,,,,,,,,,,,,,,,,,,,,,,,,,,,,,,,,,,,,,,,,,,,,,,,,,,,,,,,,,,,,,,,,,,,,,,,,,,,,,,,,,,,
,,,,,,,,,,6155e204cc071b306458dfff,22,Mężczyzna,2022-06-04_08h09.30.683,task,2021.1.4,Win32,60.0240096,628b806c463b948bc644b84f,629af70e3fac47c39a415cdf,,,,,6,0,6,0,1,X V Q F H G B L J M P D K C T S W R N Z,,,,,,,,,,,,,,,,,,,,,,,,,,,,,,,,,,,,,,,,,,,,,,,,,,,,,,,,,,,,,,,,,,,,,,,,,,,,,,,,,,,,,,,,,,,,,
,,,,,,,,,,6155e204cc071b306458dfff,22,Mężczyzna,2022-06-04_08h09.30.683,task,2021.1.4,Win32,60.0240096,628b806c463b948bc644b84f,629af70e3fac47c39a415cdf,,,,,,,,,,,chpfjlz,"[""c"",""h"",""p"",""f"",""j"",""l"",""z""]","[1.2010000000000218,1.4680000000000177,1.9850000000000136,2.511000000000024,2.8179999999999836,3.302000000000021,3.775000000000034,4.2690000000000055]",0,CHDFJLZ,11,0,11,0,1,,,,,,,,,,,,,,,,,,,,,,,,,,,,,,,,,,,,,,,,,,,,,,,,,,,,,,,,,,,,,,,,,,,,,,,,,,,,,,,,,,,
,,,,,,,,,,6155e204cc071b306458dfff,22,Mężczyzna,2022-06-04_08h09.30.683,task,2021.1.4,Win32,60.0240096,628b806c463b948bc644b84f,629af70e3fac47c39a415cdf,,,,,0,0,0,0,1,X V Q F H G B L J M P D K C T S W R N Z,,,,,,,,,,,,,,,,,,,,,,,,,,,,,,,,,,,,,,,,,,,,,,,,,,,,,,,,,,,,,,,,,,,,,,,,,,,,,,,,,,,,,,,,,,,,,
,,,,,,,,,,6155e204cc071b306458dfff,22,Mężczyzna,2022-06-04_08h09.30.683,task,2021.1.4,Win32,60.0240096,628b806c463b948bc644b84f,629af70e3fac47c39a415cdf,,,,,1,0,1,0,1,X V Q F H G B L J M P D K C T S W R N Z,,,,,,,,,,,,,,,,,,,,,,,,,,,,,,,,,,,,,,,,,,,,,,,,,,,,,,,,,,,,,,,,,,,,,,,,,,,,,,,,,,,,,,,,,,,,,
,,,,,,,,,,6155e204cc071b306458dfff,22,Mężczyzna,2022-06-04_08h09.30.683,task,2021.1.4,Win32,60.0240096,628b806c463b948bc644b84f,629af70e3fac47c39a415cdf,,,,,2,0,2,0,1,X V Q F H G B L J M P D K C T S W R N Z,,,,,,,,,,,,,,,,,,,,,,,,,,,,,,,,,,,,,,,,,,,,,,,,,,,,,,,,,,,,,,,,,,,,,,,,,,,,,,,,,,,,,,,,,,,,,
,,,,,,,,,,6155e204cc071b306458dfff,22,Mężczyzna,2022-06-04_08h09.30.683,task,2021.1.4,Win32,60.0240096,628b806c463b948bc644b84f,629af70e3fac47c39a415cdf,,,,,3,0,3,0,1,X V Q F H G B L J M P D K C T S W R N Z,,,,,,,,,,,,,,,,,,,,,,,,,,,,,,,,,,,,,,,,,,,,,,,,,,,,,,,,,,,,,,,,,,,,,,,,,,,,,,,,,,,,,,,,,,,,,
,,,,,,,,,,6155e204cc071b306458dfff,22,Mężczyzna,2022-06-04_08h09.30.683,task,2021.1.4,Win32,60.0240096,628b806c463b948bc644b84f,629af70e3fac47c39a415cdf,,,,,4,0,4,0,1,X V Q F H G B L J M P D K C T S W R N Z,,,,,,,,,,,,,,,,,,,,,,,,,,,,,,,,,,,,,,,,,,,,,,,,,,,,,,,,,,,,,,,,,,,,,,,,,,,,,,,,,,,,,,,,,,,,,
,,,,,,,,,,6155e204cc071b306458dfff,22,Mężczyzna,2022-06-04_08h09.30.683,task,2021.1.4,Win32,60.0240096,628b806c463b948bc644b84f,629af70e3fac47c39a415cdf,,,,,5,0,5,0,1,X V Q F H G B L J M P D K C T S W R N Z,,,,,,,,,,,,,,,,,,,,,,,,,,,,,,,,,,,,,,,,,,,,,,,,,,,,,,,,,,,,,,,,,,,,,,,,,,,,,,,,,,,,,,,,,,,,,
,,,,,,,,,,6155e204cc071b306458dfff,22,Mężczyzna,2022-06-04_08h09.30.683,task,2021.1.4,Win32,60.0240096,628b806c463b948bc644b84f,629af70e3fac47c39a415cdf,,,,,6,0,6,0,1,X V Q F H G B L J M P D K C T S W R N Z,,,,,,,,,,,,,,,,,,,,,,,,,,,,,,,,,,,,,,,,,,,,,,,,,,,,,,,,,,,,,,,,,,,,,,,,,,,,,,,,,,,,,,,,,,,,,
,,,,,,,,,,6155e204cc071b306458dfff,22,Mężczyzna,2022-06-04_08h09.30.683,task,2021.1.4,Win32,60.0240096,628b806c463b948bc644b84f,629af70e3fac47c39a415cdf,,,,,,,,,,,gmgfpmn,"[""g"",""m"",""g"",""f"",""p"",""m"",""n""]","[1.2069999999999936,1.5020000000000095,2.933999999999969,3.2350000000000136,3.7269999999999754,4.302999999999997,4.6059999999999945,5.189999999999998]",1,GMGFPMN,12,0,12,0,1,,,,,,,,,,,,,,,,,,,,,,,,,,,,,,,,,,,,,,,,,,,,,,,,,,,,,,,,,,,,,,,,,,,,,,,,,,,,,,,,,,,
,,,,,,,,,,6155e204cc071b306458dfff,22,Mężczyzna,2022-06-04_08h09.30.683,task,2021.1.4,Win32,60.0240096,628b806c463b948bc644b84f,629af70e3fac47c39a415cdf,,,,,0,0,0,0,1,X V Q F H G B L J M P D K C T S W R N Z,,,,,,,,,,,,,,,,,,,,,,,,,,,,,,,,,,,,,,,,,,,,,,,,,,,,,,,,,,,,,,,,,,,,,,,,,,,,,,,,,,,,,,,,,,,,,
,,,,,,,,,,6155e204cc071b306458dfff,22,Mężczyzna,2022-06-04_08h09.30.683,task,2021.1.4,Win32,60.0240096,628b806c463b948bc644b84f,629af70e3fac47c39a415cdf,,,,,1,0,1,0,1,X V Q F H G B L J M P D K C T S W R N Z,,,,,,,,,,,,,,,,,,,,,,,,,,,,,,,,,,,,,,,,,,,,,,,,,,,,,,,,,,,,,,,,,,,,,,,,,,,,,,,,,,,,,,,,,,,,,
,,,,,,,,,,6155e204cc071b306458dfff,22,Mężczyzna,2022-06-04_08h09.30.683,task,2021.1.4,Win32,60.0240096,628b806c463b948bc644b84f,629af70e3fac47c39a415cdf,,,,,2,0,2,0,1,X V Q F H G B L J M P D K C T S W R N Z,,,,,,,,,,,,,,,,,,,,,,,,,,,,,,,,,,,,,,,,,,,,,,,,,,,,,,,,,,,,,,,,,,,,,,,,,,,,,,,,,,,,,,,,,,,,,
,,,,,,,,,,6155e204cc071b306458dfff,22,Mężczyzna,2022-06-04_08h09.30.683,task,2021.1.4,Win32,60.0240096,628b806c463b948bc644b84f,629af70e3fac47c39a415cdf,,,,,3,0,3,0,1,X V Q F H G B L J M P D K C T S W R N Z,,,,,,,,,,,,,,,,,,,,,,,,,,,,,,,,,,,,,,,,,,,,,,,,,,,,,,,,,,,,,,,,,,,,,,,,,,,,,,,,,,,,,,,,,,,,,
,,,,,,,,,,6155e204cc071b306458dfff,22,Mężczyzna,2022-06-04_08h09.30.683,task,2021.1.4,Win32,60.0240096,628b806c463b948bc644b84f,629af70e3fac47c39a415cdf,,,,,4,0,4,0,1,X V Q F H G B L J M P D K C T S W R N Z,,,,,,,,,,,,,,,,,,,,,,,,,,,,,,,,,,,,,,,,,,,,,,,,,,,,,,,,,,,,,,,,,,,,,,,,,,,,,,,,,,,,,,,,,,,,,
,,,,,,,,,,6155e204cc071b306458dfff,22,Mężczyzna,2022-06-04_08h09.30.683,task,2021.1.4,Win32,60.0240096,628b806c463b948bc644b84f,629af70e3fac47c39a415cdf,,,,,5,0,5,0,1,X V Q F H G B L J M P D K C T S W R N Z,,,,,,,,,,,,,,,,,,,,,,,,,,,,,,,,,,,,,,,,,,,,,,,,,,,,,,,,,,,,,,,,,,,,,,,,,,,,,,,,,,,,,,,,,,,,,
,,,,,,,,,,6155e204cc071b306458dfff,22,Mężczyzna,2022-06-04_08h09.30.683,task,2021.1.4,Win32,60.0240096,628b806c463b948bc644b84f,629af70e3fac47c39a415cdf,,,,,6,0,6,0,1,X V Q F H G B L J M P D K C T S W R N Z,,,,,,,,,,,,,,,,,,,,,,,,,,,,,,,,,,,,,,,,,,,,,,,,,,,,,,,,,,,,,,,,,,,,,,,,,,,,,,,,,,,,,,,,,,,,,
,,,,,,,,,,6155e204cc071b306458dfff,22,Mężczyzna,2022-06-04_08h09.30.683,task,2021.1.4,Win32,60.0240096,628b806c463b948bc644b84f,629af70e3fac47c39a415cdf,,,,,7,0,7,0,1,X V Q F H G B L J M P D K C T S W R N Z,,,,,,,,,,,,,,,,,,,,,,,,,,,,,,,,,,,,,,,,,,,,,,,,,,,,,,,,,,,,,,,,,,,,,,,,,,,,,,,,,,,,,,,,,,,,,
,,,,,,,,,,6155e204cc071b306458dfff,22,Mężczyzna,2022-06-04_08h09.30.683,task,2021.1.4,Win32,60.0240096,628b806c463b948bc644b84f,629af70e3fac47c39a415cdf,,,,,,,,,,,dmwmcltf,"[""d"",""m"",""w"",""m"",""c"",""l"",""t"",""f""]","[1.3250000000000455,1.650000000000034,2.0200000000000387,4.253000000000043,5.600000000000023,5.972000000000037,6.633000000000038,6.967000000000041,7.501000000000033]",0,DMWWCLTF,13,0,13,0,1,,,,,,,,,,,,,,,,,,,,,,,,,,,,,,,,,,,,,,,,,,,,,,,,,,,,,,,,,,,,,,,,,,,,,,,,,,,,,,,,,,,
,,,,,,,,,,6155e204cc071b306458dfff,22,Mężczyzna,2022-06-04_08h09.30.683,task,2021.1.4,Win32,60.0240096,628b806c463b948bc644b84f,629af70e3fac47c39a415cdf,,,,,0,0,0,0,1,X V Q F H G B L J M P D K C T S W R N Z,,,,,,,,,,,,,,,,,,,,,,,,,,,,,,,,,,,,,,,,,,,,,,,,,,,,,,,,,,,,,,,,,,,,,,,,,,,,,,,,,,,,,,,,,,,,,
,,,,,,,,,,6155e204cc071b306458dfff,22,Mężczyzna,2022-06-04_08h09.30.683,task,2021.1.4,Win32,60.0240096,628b806c463b948bc644b84f,629af70e3fac47c39a415cdf,,,,,1,0,1,0,1,X V Q F H G B L J M P D K C T S W R N Z,,,,,,,,,,,,,,,,,,,,,,,,,,,,,,,,,,,,,,,,,,,,,,,,,,,,,,,,,,,,,,,,,,,,,,,,,,,,,,,,,,,,,,,,,,,,,
,,,,,,,,,,6155e204cc071b306458dfff,22,Mężczyzna,2022-06-04_08h09.30.683,task,2021.1.4,Win32,60.0240096,628b806c463b948bc644b84f,629af70e3fac47c39a415cdf,,,,,2,0,2,0,1,X V Q F H G B L J M P D K C T S W R N Z,,,,,,,,,,,,,,,,,,,,,,,,,,,,,,,,,,,,,,,,,,,,,,,,,,,,,,,,,,,,,,,,,,,,,,,,,,,,,,,,,,,,,,,,,,,,,
,,,,,,,,,,6155e204cc071b306458dfff,22,Mężczyzna,2022-06-04_08h09.30.683,task,2021.1.4,Win32,60.0240096,628b806c463b948bc644b84f,629af70e3fac47c39a415cdf,,,,,3,0,3,0,1,X V Q F H G B L J M P D K C T S W R N Z,,,,,,,,,,,,,,,,,,,,,,,,,,,,,,,,,,,,,,,,,,,,,,,,,,,,,,,,,,,,,,,,,,,,,,,,,,,,,,,,,,,,,,,,,,,,,
,,,,,,,,,,6155e204cc071b306458dfff,22,Mężczyzna,2022-06-04_08h09.30.683,task,2021.1.4,Win32,60.0240096,628b806c463b948bc644b84f,629af70e3fac47c39a415cdf,,,,,4,0,4,0,1,X V Q F H G B L J M P D K C T S W R N Z,,,,,,,,,,,,,,,,,,,,,,,,,,,,,,,,,,,,,,,,,,,,,,,,,,,,,,,,,,,,,,,,,,,,,,,,,,,,,,,,,,,,,,,,,,,,,
,,,,,,,,,,6155e204cc071b306458dfff,22,Mężczyzna,2022-06-04_08h09.30.683,task,2021.1.4,Win32,60.0240096,628b806c463b948bc644b84f,629af70e3fac47c39a415cdf,,,,,5,0,5,0,1,X V Q F H G B L J M P D K C T S W R N Z,,,,,,,,,,,,,,,,,,,,,,,,,,,,,,,,,,,,,,,,,,,,,,,,,,,,,,,,,,,,,,,,,,,,,,,,,,,,,,,,,,,,,,,,,,,,,
,,,,,,,,,,6155e204cc071b306458dfff,22,Mężczyzna,2022-06-04_08h09.30.683,task,2021.1.4,Win32,60.0240096,628b806c463b948bc644b84f,629af70e3fac47c39a415cdf,,,,,6,0,6,0,1,X V Q F H G B L J M P D K C T S W R N Z,,,,,,,,,,,,,,,,,,,,,,,,,,,,,,,,,,,,,,,,,,,,,,,,,,,,,,,,,,,,,,,,,,,,,,,,,,,,,,,,,,,,,,,,,,,,,
,,,,,,,,,,6155e204cc071b306458dfff,22,Mężczyzna,2022-06-04_08h09.30.683,task,2021.1.4,Win32,60.0240096,628b806c463b948bc644b84f,629af70e3fac47c39a415cdf,,,,,7,0,7,0,1,X V Q F H G B L J M P D K C T S W R N Z,,,,,,,,,,,,,,,,,,,,,,,,,,,,,,,,,,,,,,,,,,,,,,,,,,,,,,,,,,,,,,,,,,,,,,,,,,,,,,,,,,,,,,,,,,,,,
,,,,,,,,,,6155e204cc071b306458dfff,22,Mężczyzna,2022-06-04_08h09.30.683,task,2021.1.4,Win32,60.0240096,628b806c463b948bc644b84f,629af70e3fac47c39a415cdf,,,,,,,,,,,lmxlmkbw,"[""l"",""m"",""x"",""l"",""m"",""k"",""b"",""w""]","[1.6009999999999422,2.238999999999976,2.839999999999975,3.1679999999999495,4.151999999999987,4.503999999999962,4.959000000000003,5.142999999999972,5.550999999999988]",1,LMXLMKBW,14,0,14,0,1,,,,,,,,,,,,,,,,,,,,,,,,,,,,,,,,,,,,,,,,,,,,,,,,,,,,,,,,,,,,,,,,,,,,,,,,,,,,,,,,,,,
,,,,,,,,,,6155e204cc071b306458dfff,22,Mężczyzna,2022-06-04_08h09.30.683,task,2021.1.4,Win32,60.0240096,628b806c463b948bc644b84f,629af70e3fac47c39a415cdf,,,,,0,0,0,0,1,X V Q F H G B L J M P D K C T S W R N Z,,,,,,,,,,,,,,,,,,,,,,,,,,,,,,,,,,,,,,,,,,,,,,,,,,,,,,,,,,,,,,,,,,,,,,,,,,,,,,,,,,,,,,,,,,,,,
,,,,,,,,,,6155e204cc071b306458dfff,22,Mężczyzna,2022-06-04_08h09.30.683,task,2021.1.4,Win32,60.0240096,628b806c463b948bc644b84f,629af70e3fac47c39a415cdf,,,,,1,0,1,0,1,X V Q F H G B L J M P D K C T S W R N Z,,,,,,,,,,,,,,,,,,,,,,,,,,,,,,,,,,,,,,,,,,,,,,,,,,,,,,,,,,,,,,,,,,,,,,,,,,,,,,,,,,,,,,,,,,,,,
,,,,,,,,,,6155e204cc071b306458dfff,22,Mężczyzna,2022-06-04_08h09.30.683,task,2021.1.4,Win32,60.0240096,628b806c463b948bc644b84f,629af70e3fac47c39a415cdf,,,,,2,0,2,0,1,X V Q F H G B L J M P D K C T S W R N Z,,,,,,,,,,,,,,,,,,,,,,,,,,,,,,,,,,,,,,,,,,,,,,,,,,,,,,,,,,,,,,,,,,,,,,,,,,,,,,,,,,,,,,,,,,,,,
,,,,,,,,,,6155e204cc071b306458dfff,22,Mężczyzna,2022-06-04_08h09.30.683,task,2021.1.4,Win32,60.0240096,628b806c463b948bc644b84f,629af70e3fac47c39a415cdf,,,,,3,0,3,0,1,X V Q F H G B L J M P D K C T S W R N Z,,,,,,,,,,,,,,,,,,,,,,,,,,,,,,,,,,,,,,,,,,,,,,,,,,,,,,,,,,,,,,,,,,,,,,,,,,,,,,,,,,,,,,,,,,,,,
,,,,,,,,,,6155e204cc071b306458dfff,22,Mężczyzna,2022-06-04_08h09.30.683,task,2021.1.4,Win32,60.0240096,628b806c463b948bc644b84f,629af70e3fac47c39a415cdf,,,,,4,0,4,0,1,X V Q F H G B L J M P D K C T S W R N Z,,,,,,,,,,,,,,,,,,,,,,,,,,,,,,,,,,,,,,,,,,,,,,,,,,,,,,,,,,,,,,,,,,,,,,,,,,,,,,,,,,,,,,,,,,,,,
,,,,,,,,,,6155e204cc071b306458dfff,22,Mężczyzna,2022-06-04_08h09.30.683,task,2021.1.4,Win32,60.0240096,628b806c463b948bc644b84f,629af70e3fac47c39a415cdf,,,,,5,0,5,0,1,X V Q F H G B L J M P D K C T S W R N Z,,,,,,,,,,,,,,,,,,,,,,,,,,,,,,,,,,,,,,,,,,,,,,,,,,,,,,,,,,,,,,,,,,,,,,,,,,,,,,,,,,,,,,,,,,,,,
,,,,,,,,,,6155e204cc071b306458dfff,22,Mężczyzna,2022-06-04_08h09.30.683,task,2021.1.4,Win32,60.0240096,628b806c463b948bc644b84f,629af70e3fac47c39a415cdf,,,,,6,0,6,0,1,X V Q F H G B L J M P D K C T S W R N Z,,,,,,,,,,,,,,,,,,,,,,,,,,,,,,,,,,,,,,,,,,,,,,,,,,,,,,,,,,,,,,,,,,,,,,,,,,,,,,,,,,,,,,,,,,,,,
,,,,,,,,,,6155e204cc071b306458dfff,22,Mężczyzna,2022-06-04_08h09.30.683,task,2021.1.4,Win32,60.0240096,628b806c463b948bc644b84f,629af70e3fac47c39a415cdf,,,,,7,0,7,0,1,X V Q F H G B L J M P D K C T S W R N Z,,,,,,,,,,,,,,,,,,,,,,,,,,,,,,,,,,,,,,,,,,,,,,,,,,,,,,,,,,,,,,,,,,,,,,,,,,,,,,,,,,,,,,,,,,,,,
,,,,,,,,,,6155e204cc071b306458dfff,22,Mężczyzna,2022-06-04_08h09.30.683,task,2021.1.4,Win32,60.0240096,628b806c463b948bc644b84f,629af70e3fac47c39a415cdf,,,,,,,,,,,jkgsgkxm,"[""j"",""k"",""g"",""s"",""g"",""k"",""x"",""m""]","[1.288000000000011,1.6329999999999245,2.08299999999997,2.3349999999999227,3.0559999999999263,3.52800000000002,4.391999999999939,4.783999999999992,5.183999999999969]",0,JKGSKGXM,15,0,15,0,1,,,,,,,,,,,,,,,,,,,,,,,,,,,,,,,,,,,,,,,,,,,,,,,,,,,,,,,,,,,,,,,,,,,,,,,,,,,,,,,,,,,
,,,,,,,,,,6155e204cc071b306458dfff,22,Mężczyzna,2022-06-04_08h09.30.683,task,2021.1.4,Win32,60.0240096,628b806c463b948bc644b84f,629af70e3fac47c39a415cdf,,,,,0,0,0,0,1,X V Q F H G B L J M P D K C T S W R N Z,,,,,,,,,,,,,,,,,,,,,,,,,,,,,,,,,,,,,,,,,,,,,,,,,,,,,,,,,,,,,,,,,,,,,,,,,,,,,,,,,,,,,,,,,,,,,
,,,,,,,,,,6155e204cc071b306458dfff,22,Mężczyzna,2022-06-04_08h09.30.683,task,2021.1.4,Win32,60.0240096,628b806c463b948bc644b84f,629af70e3fac47c39a415cdf,,,,,1,0,1,0,1,X V Q F H G B L J M P D K C T S W R N Z,,,,,,,,,,,,,,,,,,,,,,,,,,,,,,,,,,,,,,,,,,,,,,,,,,,,,,,,,,,,,,,,,,,,,,,,,,,,,,,,,,,,,,,,,,,,,
,,,,,,,,,,6155e204cc071b306458dfff,22,Mężczyzna,2022-06-04_08h09.30.683,task,2021.1.4,Win32,60.0240096,628b806c463b948bc644b84f,629af70e3fac47c39a415cdf,,,,,2,0,2,0,1,X V Q F H G B L J M P D K C T S W R N Z,,,,,,,,,,,,,,,,,,,,,,,,,,,,,,,,,,,,,,,,,,,,,,,,,,,,,,,,,,,,,,,,,,,,,,,,,,,,,,,,,,,,,,,,,,,,,
,,,,,,,,,,6155e204cc071b306458dfff,22,Mężczyzna,2022-06-04_08h09.30.683,task,2021.1.4,Win32,60.0240096,628b806c463b948bc644b84f,629af70e3fac47c39a415cdf,,,,,3,0,3,0,1,X V Q F H G B L J M P D K C T S W R N Z,,,,,,,,,,,,,,,,,,,,,,,,,,,,,,,,,,,,,,,,,,,,,,,,,,,,,,,,,,,,,,,,,,,,,,,,,,,,,,,,,,,,,,,,,,,,,
,,,,,,,,,,6155e204cc071b306458dfff,22,Mężczyzna,2022-06-04_08h09.30.683,task,2021.1.4,Win32,60.0240096,628b806c463b948bc644b84f,629af70e3fac47c39a415cdf,,,,,4,0,4,0,1,X V Q F H G B L J M P D K C T S W R N Z,,,,,,,,,,,,,,,,,,,,,,,,,,,,,,,,,,,,,,,,,,,,,,,,,,,,,,,,,,,,,,,,,,,,,,,,,,,,,,,,,,,,,,,,,,,,,
,,,,,,,,,,6155e204cc071b306458dfff,22,Mężczyzna,2022-06-04_08h09.30.683,task,2021.1.4,Win32,60.0240096,628b806c463b948bc644b84f,629af70e3fac47c39a415cdf,,,,,5,0,5,0,1,X V Q F H G B L J M P D K C T S W R N Z,,,,,,,,,,,,,,,,,,,,,,,,,,,,,,,,,,,,,,,,,,,,,,,,,,,,,,,,,,,,,,,,,,,,,,,,,,,,,,,,,,,,,,,,,,,,,
,,,,,,,,,,6155e204cc071b306458dfff,22,Mężczyzna,2022-06-04_08h09.30.683,task,2021.1.4,Win32,60.0240096,628b806c463b948bc644b84f,629af70e3fac47c39a415cdf,,,,,6,0,6,0,1,X V Q F H G B L J M P D K C T S W R N Z,,,,,,,,,,,,,,,,,,,,,,,,,,,,,,,,,,,,,,,,,,,,,,,,,,,,,,,,,,,,,,,,,,,,,,,,,,,,,,,,,,,,,,,,,,,,,
,,,,,,,,,,6155e204cc071b306458dfff,22,Mężczyzna,2022-06-04_08h09.30.683,task,2021.1.4,Win32,60.0240096,628b806c463b948bc644b84f,629af70e3fac47c39a415cdf,,,,,7,0,7,0,1,X V Q F H G B L J M P D K C T S W R N Z,,,,,,,,,,,,,,,,,,,,,,,,,,,,,,,,,,,,,,,,,,,,,,,,,,,,,,,,,,,,,,,,,,,,,,,,,,,,,,,,,,,,,,,,,,,,,
,,,,,,,,,,6155e204cc071b306458dfff,22,Mężczyzna,2022-06-04_08h09.30.683,task,2021.1.4,Win32,60.0240096,628b806c463b948bc644b84f,629af70e3fac47c39a415cdf,,,,,,,,,,,hfpjndrb,"[""h"",""f"",""p"",""j"",""n"",""d"",""r"",""b""]","[1.7279999999999518,2.016999999999939,2.7349999999999,3.759999999999991,4.471000000000004,4.883999999999901,5.217999999999961,5.4669999999999845,6.024000000000001]",1,HFPJNDRB,16,0,16,0,1,,,,,,,,,,,,,,,,,,,,,,,,,,,,,,,,,,,,,,,,,,,,,,,,,,,,,,,,,,,,,,,,,,,,,,,,,,,,,,,,,,,
,,,,,,,,,,6155e204cc071b306458dfff,22,Mężczyzna,2022-06-04_08h09.30.683,task,2021.1.4,Win32,60.0240096,628b806c463b948bc644b84f,629af70e3fac47c39a415cdf,,,,,0,0,0,0,1,X V Q F H G B L J M P D K C T S W R N Z,,,,,,,,,,,,,,,,,,,,,,,,,,,,,,,,,,,,,,,,,,,,,,,,,,,,,,,,,,,,,,,,,,,,,,,,,,,,,,,,,,,,,,,,,,,,,
,,,,,,,,,,6155e204cc071b306458dfff,22,Mężczyzna,2022-06-04_08h09.30.683,task,2021.1.4,Win32,60.0240096,628b806c463b948bc644b84f,629af70e3fac47c39a415cdf,,,,,1,0,1,0,1,X V Q F H G B L J M P D K C T S W R N Z,,,,,,,,,,,,,,,,,,,,,,,,,,,,,,,,,,,,,,,,,,,,,,,,,,,,,,,,,,,,,,,,,,,,,,,,,,,,,,,,,,,,,,,,,,,,,
,,,,,,,,,,6155e204cc071b306458dfff,22,Mężczyzna,2022-06-04_08h09.30.683,task,2021.1.4,Win32,60.0240096,628b806c463b948bc644b84f,629af70e3fac47c39a415cdf,,,,,2,0,2,0,1,X V Q F H G B L J M P D K C T S W R N Z,,,,,,,,,,,,,,,,,,,,,,,,,,,,,,,,,,,,,,,,,,,,,,,,,,,,,,,,,,,,,,,,,,,,,,,,,,,,,,,,,,,,,,,,,,,,,
,,,,,,,,,,6155e204cc071b306458dfff,22,Mężczyzna,2022-06-04_08h09.30.683,task,2021.1.4,Win32,60.0240096,628b806c463b948bc644b84f,629af70e3fac47c39a415cdf,,,,,3,0,3,0,1,X V Q F H G B L J M P D K C T S W R N Z,,,,,,,,,,,,,,,,,,,,,,,,,,,,,,,,,,,,,,,,,,,,,,,,,,,,,,,,,,,,,,,,,,,,,,,,,,,,,,,,,,,,,,,,,,,,,
,,,,,,,,,,6155e204cc071b306458dfff,22,Mężczyzna,2022-06-04_08h09.30.683,task,2021.1.4,Win32,60.0240096,628b806c463b948bc644b84f,629af70e3fac47c39a415cdf,,,,,4,0,4,0,1,X V Q F H G B L J M P D K C T S W R N Z,,,,,,,,,,,,,,,,,,,,,,,,,,,,,,,,,,,,,,,,,,,,,,,,,,,,,,,,,,,,,,,,,,,,,,,,,,,,,,,,,,,,,,,,,,,,,
,,,,,,,,,,6155e204cc071b306458dfff,22,Mężczyzna,2022-06-04_08h09.30.683,task,2021.1.4,Win32,60.0240096,628b806c463b948bc644b84f,629af70e3fac47c39a415cdf,,,,,5,0,5,0,1,X V Q F H G B L J M P D K C T S W R N Z,,,,,,,,,,,,,,,,,,,,,,,,,,,,,,,,,,,,,,,,,,,,,,,,,,,,,,,,,,,,,,,,,,,,,,,,,,,,,,,,,,,,,,,,,,,,,
,,,,,,,,,,6155e204cc071b306458dfff,22,Mężczyzna,2022-06-04_08h09.30.683,task,2021.1.4,Win32,60.0240096,628b806c463b948bc644b84f,629af70e3fac47c39a415cdf,,,,,6,0,6,0,1,X V Q F H G B L J M P D K C T S W R N Z,,,,,,,,,,,,,,,,,,,,,,,,,,,,,,,,,,,,,,,,,,,,,,,,,,,,,,,,,,,,,,,,,,,,,,,,,,,,,,,,,,,,,,,,,,,,,
,,,,,,,,,,6155e204cc071b306458dfff,22,Mężczyzna,2022-06-04_08h09.30.683,task,2021.1.4,Win32,60.0240096,628b806c463b948bc644b84f,629af70e3fac47c39a415cdf,,,,,7,0,7,0,1,X V Q F H G B L J M P D K C T S W R N Z,,,,,,,,,,,,,,,,,,,,,,,,,,,,,,,,,,,,,,,,,,,,,,,,,,,,,,,,,,,,,,,,,,,,,,,,,,,,,,,,,,,,,,,,,,,,,
,,,,,,,,,,6155e204cc071b306458dfff,22,Mężczyzna,2022-06-04_08h09.30.683,task,2021.1.4,Win32,60.0240096,628b806c463b948bc644b84f,629af70e3fac47c39a415cdf,,,,,8,0,8,0,1,X V Q F H G B L J M P D K C T S W R N Z,,,,,,,,,,,,,,,,,,,,,,,,,,,,,,,,,,,,,,,,,,,,,,,,,,,,,,,,,,,,,,,,,,,,,,,,,,,,,,,,,,,,,,,,,,,,,
,,,,,,,,,,6155e204cc071b306458dfff,22,Mężczyzna,2022-06-04_08h09.30.683,task,2021.1.4,Win32,60.0240096,628b806c463b948bc644b84f,629af70e3fac47c39a415cdf,,,,,,,,,,,lpwxktmhk,"[""l"",""p"",""w"",""x"",""k"",""t"",""m"",""h"",""k""]","[1.7350000000000136,2.0170000000000528,4.08400000000006,4.569000000000074,5.002000000000066,5.386000000000081,5.690000000000055,6.153999999999996,6.810000000000059,7.426000000000045]",0,LPVXKTMHK,17,0,17,0,1,,,,,,,,,,,,,,,,,,,,,,,,,,,,,,,,,,,,,,,,,,,,,,,,,,,,,,,,,,,,,,,,,,,,,,,,,,,,,,,,,,,
,,,,,,,,,,6155e204cc071b306458dfff,22,Mężczyzna,2022-06-04_08h09.30.683,task,2021.1.4,Win32,60.0240096,628b806c463b948bc644b84f,629af70e3fac47c39a415cdf,,,,,0,0,0,0,1,X V Q F H G B L J M P D K C T S W R N Z,,,,,,,,,,,,,,,,,,,,,,,,,,,,,,,,,,,,,,,,,,,,,,,,,,,,,,,,,,,,,,,,,,,,,,,,,,,,,,,,,,,,,,,,,,,,,
,,,,,,,,,,6155e204cc071b306458dfff,22,Mężczyzna,2022-06-04_08h09.30.683,task,2021.1.4,Win32,60.0240096,628b806c463b948bc644b84f,629af70e3fac47c39a415cdf,,,,,1,0,1,0,1,X V Q F H G B L J M P D K C T S W R N Z,,,,,,,,,,,,,,,,,,,,,,,,,,,,,,,,,,,,,,,,,,,,,,,,,,,,,,,,,,,,,,,,,,,,,,,,,,,,,,,,,,,,,,,,,,,,,
,,,,,,,,,,6155e204cc071b306458dfff,22,Mężczyzna,2022-06-04_08h09.30.683,task,2021.1.4,Win32,60.0240096,628b806c463b948bc644b84f,629af70e3fac47c39a415cdf,,,,,2,0,2,0,1,X V Q F H G B L J M P D K C T S W R N Z,,,,,,,,,,,,,,,,,,,,,,,,,,,,,,,,,,,,,,,,,,,,,,,,,,,,,,,,,,,,,,,,,,,,,,,,,,,,,,,,,,,,,,,,,,,,,
,,,,,,,,,,6155e204cc071b306458dfff,22,Mężczyzna,2022-06-04_08h09.30.683,task,2021.1.4,Win32,60.0240096,628b806c463b948bc644b84f,629af70e3fac47c39a415cdf,,,,,3,0,3,0,1,X V Q F H G B L J M P D K C T S W R N Z,,,,,,,,,,,,,,,,,,,,,,,,,,,,,,,,,,,,,,,,,,,,,,,,,,,,,,,,,,,,,,,,,,,,,,,,,,,,,,,,,,,,,,,,,,,,,
,,,,,,,,,,6155e204cc071b306458dfff,22,Mężczyzna,2022-06-04_08h09.30.683,task,2021.1.4,Win32,60.0240096,628b806c463b948bc644b84f,629af70e3fac47c39a415cdf,,,,,4,0,4,0,1,X V Q F H G B L J M P D K C T S W R N Z,,,,,,,,,,,,,,,,,,,,,,,,,,,,,,,,,,,,,,,,,,,,,,,,,,,,,,,,,,,,,,,,,,,,,,,,,,,,,,,,,,,,,,,,,,,,,
,,,,,,,,,,6155e204cc071b306458dfff,22,Mężczyzna,2022-06-04_08h09.30.683,task,2021.1.4,Win32,60.0240096,628b806c463b948bc644b84f,629af70e3fac47c39a415cdf,,,,,5,0,5,0,1,X V Q F H G B L J M P D K C T S W R N Z,,,,,,,,,,,,,,,,,,,,,,,,,,,,,,,,,,,,,,,,,,,,,,,,,,,,,,,,,,,,,,,,,,,,,,,,,,,,,,,,,,,,,,,,,,,,,
,,,,,,,,,,6155e204cc071b306458dfff,22,Mężczyzna,2022-06-04_08h09.30.683,task,2021.1.4,Win32,60.0240096,628b806c463b948bc644b84f,629af70e3fac47c39a415cdf,,,,,6,0,6,0,1,X V Q F H G B L J M P D K C T S W R N Z,,,,,,,,,,,,,,,,,,,,,,,,,,,,,,,,,,,,,,,,,,,,,,,,,,,,,,,,,,,,,,,,,,,,,,,,,,,,,,,,,,,,,,,,,,,,,
,,,,,,,,,,6155e204cc071b306458dfff,22,Mężczyzna,2022-06-04_08h09.30.683,task,2021.1.4,Win32,60.0240096,628b806c463b948bc644b84f,629af70e3fac47c39a415cdf,,,,,7,0,7,0,1,X V Q F H G B L J M P D K C T S W R N Z,,,,,,,,,,,,,,,,,,,,,,,,,,,,,,,,,,,,,,,,,,,,,,,,,,,,,,,,,,,,,,,,,,,,,,,,,,,,,,,,,,,,,,,,,,,,,
,,,,,,,,,,6155e204cc071b306458dfff,22,Mężczyzna,2022-06-04_08h09.30.683,task,2021.1.4,Win32,60.0240096,628b806c463b948bc644b84f,629af70e3fac47c39a415cdf,,,,,8,0,8,0,1,X V Q F H G B L J M P D K C T S W R N Z,,,,,,,,,,,,,,,,,,,,,,,,,,,,,,,,,,,,,,,,,,,,,,,,,,,,,,,,,,,,,,,,,,,,,,,,,,,,,,,,,,,,,,,,,,,,,
,,,,,,,,,,6155e204cc071b306458dfff,22,Mężczyzna,2022-06-04_08h09.30.683,task,2021.1.4,Win32,60.0240096,628b806c463b948bc644b84f,629af70e3fac47c39a415cdf,,,,,,,,,,,qdgzdhwgj,"[""q"",""d"",""g"",""z"",""d"",""h"",""w"",""g"",""j""]","[1.8489999999999327,2.16599999999994,3.321999999999889,3.617999999999938,3.9529999999999745,4.608999999999924,5.416999999999916,5.753999999999905,6.041999999999916,6.282999999999902]",1,QDGZDHWGJ,18,0,18,0,1,,,,,,,,,,,,,,,,,,,,,,,,,,,,,,,,,,,,,,,,,,,,,,,,,,,,,,,,,,,,,,,,,,,,,,,,,,,,,,,,,,,
,,,,,,,,,,6155e204cc071b306458dfff,22,Mężczyzna,2022-06-04_08h09.30.683,task,2021.1.4,Win32,60.0240096,628b806c463b948bc644b84f,629af70e3fac47c39a415cdf,,,,,0,0,0,0,1,X V Q F H G B L J M P D K C T S W R N Z,,,,,,,,,,,,,,,,,,,,,,,,,,,,,,,,,,,,,,,,,,,,,,,,,,,,,,,,,,,,,,,,,,,,,,,,,,,,,,,,,,,,,,,,,,,,,
,,,,,,,,,,6155e204cc071b306458dfff,22,Mężczyzna,2022-06-04_08h09.30.683,task,2021.1.4,Win32,60.0240096,628b806c463b948bc644b84f,629af70e3fac47c39a415cdf,,,,,1,0,1,0,1,X V Q F H G B L J M P D K C T S W R N Z,,,,,,,,,,,,,,,,,,,,,,,,,,,,,,,,,,,,,,,,,,,,,,,,,,,,,,,,,,,,,,,,,,,,,,,,,,,,,,,,,,,,,,,,,,,,,
,,,,,,,,,,6155e204cc071b306458dfff,22,Mężczyzna,2022-06-04_08h09.30.683,task,2021.1.4,Win32,60.0240096,628b806c463b948bc644b84f,629af70e3fac47c39a415cdf,,,,,2,0,2,0,1,X V Q F H G B L J M P D K C T S W R N Z,,,,,,,,,,,,,,,,,,,,,,,,,,,,,,,,,,,,,,,,,,,,,,,,,,,,,,,,,,,,,,,,,,,,,,,,,,,,,,,,,,,,,,,,,,,,,
,,,,,,,,,,6155e204cc071b306458dfff,22,Mężczyzna,2022-06-04_08h09.30.683,task,2021.1.4,Win32,60.0240096,628b806c463b948bc644b84f,629af70e3fac47c39a415cdf,,,,,3,0,3,0,1,X V Q F H G B L J M P D K C T S W R N Z,,,,,,,,,,,,,,,,,,,,,,,,,,,,,,,,,,,,,,,,,,,,,,,,,,,,,,,,,,,,,,,,,,,,,,,,,,,,,,,,,,,,,,,,,,,,,
,,,,,,,,,,6155e204cc071b306458dfff,22,Mężczyzna,2022-06-04_08h09.30.683,task,2021.1.4,Win32,60.0240096,628b806c463b948bc644b84f,629af70e3fac47c39a415cdf,,,,,4,0,4,0,1,X V Q F H G B L J M P D K C T S W R N Z,,,,,,,,,,,,,,,,,,,,,,,,,,,,,,,,,,,,,,,,,,,,,,,,,,,,,,,,,,,,,,,,,,,,,,,,,,,,,,,,,,,,,,,,,,,,,
,,,,,,,,,,6155e204cc071b306458dfff,22,Mężczyzna,2022-06-04_08h09.30.683,task,2021.1.4,Win32,60.0240096,628b806c463b948bc644b84f,629af70e3fac47c39a415cdf,,,,,5,0,5,0,1,X V Q F H G B L J M P D K C T S W R N Z,,,,,,,,,,,,,,,,,,,,,,,,,,,,,,,,,,,,,,,,,,,,,,,,,,,,,,,,,,,,,,,,,,,,,,,,,,,,,,,,,,,,,,,,,,,,,
,,,,,,,,,,6155e204cc071b306458dfff,22,Mężczyzna,2022-06-04_08h09.30.683,task,2021.1.4,Win32,60.0240096,628b806c463b948bc644b84f,629af70e3fac47c39a415cdf,,,,,6,0,6,0,1,X V Q F H G B L J M P D K C T S W R N Z,,,,,,,,,,,,,,,,,,,,,,,,,,,,,,,,,,,,,,,,,,,,,,,,,,,,,,,,,,,,,,,,,,,,,,,,,,,,,,,,,,,,,,,,,,,,,
,,,,,,,,,,6155e204cc071b306458dfff,22,Mężczyzna,2022-06-04_08h09.30.683,task,2021.1.4,Win32,60.0240096,628b806c463b948bc644b84f,629af70e3fac47c39a415cdf,,,,,7,0,7,0,1,X V Q F H G B L J M P D K C T S W R N Z,,,,,,,,,,,,,,,,,,,,,,,,,,,,,,,,,,,,,,,,,,,,,,,,,,,,,,,,,,,,,,,,,,,,,,,,,,,,,,,,,,,,,,,,,,,,,
,,,,,,,,,,6155e204cc071b306458dfff,22,Mężczyzna,2022-06-04_08h09.30.683,task,2021.1.4,Win32,60.0240096,628b806c463b948bc644b84f,629af70e3fac47c39a415cdf,,,,,8,0,8,0,1,X V Q F H G B L J M P D K C T S W R N Z,,,,,,,,,,,,,,,,,,,,,,,,,,,,,,,,,,,,,,,,,,,,,,,,,,,,,,,,,,,,,,,,,,,,,,,,,,,,,,,,,,,,,,,,,,,,,
,,,,,,,,,,6155e204cc071b306458dfff,22,Mężczyzna,2022-06-04_08h09.30.683,task,2021.1.4,Win32,60.0240096,628b806c463b948bc644b84f,629af70e3fac47c39a415cdf,,,,,,,,,,,gsltrchfc,"[""g"",""s"",""l"",""t"",""r"",""c"",""h"",""f"",""c""]","[1.8179999999999836,2.009999999999991,2.5,3.2329999999999472,3.4669999999999845,3.75,4.016999999999939,4.233999999999924,4.425999999999931,4.905999999999949]",1,GSLTRCHFC,19,0,19,0,1,,,,,,,,,,,,,,,,,,,,,,,,,,,,,,,,,,,,,,,,,,,,,,,,,,,,,,,,,,,,,,,,,,,,,,,,,,,,,,,,,,,
,,,,,,,,,,6155e204cc071b306458dfff,22,Mężczyzna,2022-06-04_08h09.30.683,task,2021.1.4,Win32,60.0240096,628b806c463b948bc644b84f,629af70e3fac47c39a415cdf,,,,,0,0,0,0,1,X V Q F H G B L J M P D K C T S W R N Z,,,,,,,,,,,,,,,,,,,,,,,,,,,,,,,,,,,,,,,,,,,,,,,,,,,,,,,,,,,,,,,,,,,,,,,,,,,,,,,,,,,,,,,,,,,,,
,,,,,,,,,,6155e204cc071b306458dfff,22,Mężczyzna,2022-06-04_08h09.30.683,task,2021.1.4,Win32,60.0240096,628b806c463b948bc644b84f,629af70e3fac47c39a415cdf,,,,,1,0,1,0,1,X V Q F H G B L J M P D K C T S W R N Z,,,,,,,,,,,,,,,,,,,,,,,,,,,,,,,,,,,,,,,,,,,,,,,,,,,,,,,,,,,,,,,,,,,,,,,,,,,,,,,,,,,,,,,,,,,,,
,,,,,,,,,,6155e204cc071b306458dfff,22,Mężczyzna,2022-06-04_08h09.30.683,task,2021.1.4,Win32,60.0240096,628b806c463b948bc644b84f,629af70e3fac47c39a415cdf,,,,,2,0,2,0,1,X V Q F H G B L J M P D K C T S W R N Z,,,,,,,,,,,,,,,,,,,,,,,,,,,,,,,,,,,,,,,,,,,,,,,,,,,,,,,,,,,,,,,,,,,,,,,,,,,,,,,,,,,,,,,,,,,,,
,,,,,,,,,,6155e204cc071b306458dfff,22,Mężczyzna,2022-06-04_08h09.30.683,task,2021.1.4,Win32,60.0240096,628b806c463b948bc644b84f,629af70e3fac47c39a415cdf,,,,,3,0,3,0,1,X V Q F H G B L J M P D K C T S W R N Z,,,,,,,,,,,,,,,,,,,,,,,,,,,,,,,,,,,,,,,,,,,,,,,,,,,,,,,,,,,,,,,,,,,,,,,,,,,,,,,,,,,,,,,,,,,,,
,,,,,,,,,,6155e204cc071b306458dfff,22,Mężczyzna,2022-06-04_08h09.30.683,task,2021.1.4,Win32,60.0240096,628b806c463b948bc644b84f,629af70e3fac47c39a415cdf,,,,,4,0,4,0,1,X V Q F H G B L J M P D K C T S W R N Z,,,,,,,,,,,,,,,,,,,,,,,,,,,,,,,,,,,,,,,,,,,,,,,,,,,,,,,,,,,,,,,,,,,,,,,,,,,,,,,,,,,,,,,,,,,,,
,,,,,,,,,,6155e204cc071b306458dfff,22,Mężczyzna,2022-06-04_08h09.30.683,task,2021.1.4,Win32,60.0240096,628b806c463b948bc644b84f,629af70e3fac47c39a415cdf,,,,,5,0,5,0,1,X V Q F H G B L J M P D K C T S W R N Z,,,,,,,,,,,,,,,,,,,,,,,,,,,,,,,,,,,,,,,,,,,,,,,,,,,,,,,,,,,,,,,,,,,,,,,,,,,,,,,,,,,,,,,,,,,,,
,,,,,,,,,,6155e204cc071b306458dfff,22,Mężczyzna,2022-06-04_08h09.30.683,task,2021.1.4,Win32,60.0240096,628b806c463b948bc644b84f,629af70e3fac47c39a415cdf,,,,,6,0,6,0,1,X V Q F H G B L J M P D K C T S W R N Z,,,,,,,,,,,,,,,,,,,,,,,,,,,,,,,,,,,,,,,,,,,,,,,,,,,,,,,,,,,,,,,,,,,,,,,,,,,,,,,,,,,,,,,,,,,,,
,,,,,,,,,,6155e204cc071b306458dfff,22,Mężczyzna,2022-06-04_08h09.30.683,task,2021.1.4,Win32,60.0240096,628b806c463b948bc644b84f,629af70e3fac47c39a415cdf,,,,,7,0,7,0,1,X V Q F H G B L J M P D K C T S W R N Z,,,,,,,,,,,,,,,,,,,,,,,,,,,,,,,,,,,,,,,,,,,,,,,,,,,,,,,,,,,,,,,,,,,,,,,,,,,,,,,,,,,,,,,,,,,,,
,,,,,,,,,,6155e204cc071b306458dfff,22,Mężczyzna,2022-06-04_08h09.30.683,task,2021.1.4,Win32,60.0240096,628b806c463b948bc644b84f,629af70e3fac47c39a415cdf,,,,,8,0,8,0,1,X V Q F H G B L J M P D K C T S W R N Z,,,,,,,,,,,,,,,,,,,,,,,,,,,,,,,,,,,,,,,,,,,,,,,,,,,,,,,,,,,,,,,,,,,,,,,,,,,,,,,,,,,,,,,,,,,,,
,,,,,,,,,,6155e204cc071b306458dfff,22,Mężczyzna,2022-06-04_08h09.30.683,task,2021.1.4,Win32,60.0240096,628b806c463b948bc644b84f,629af70e3fac47c39a415cdf,,,,,9,0,9,0,1,X V Q F H G B L J M P D K C T S W R N Z,,,,,,,,,,,,,,,,,,,,,,,,,,,,,,,,,,,,,,,,,,,,,,,,,,,,,,,,,,,,,,,,,,,,,,,,,,,,,,,,,,,,,,,,,,,,,
,,,,,,,,,,6155e204cc071b306458dfff,22,Mężczyzna,2022-06-04_08h09.30.683,task,2021.1.4,Win32,60.0240096,628b806c463b948bc644b84f,629af70e3fac47c39a415cdf,,,,,,,,,,,dtqjpdwpm,"[""d"",""t"",""q"",""j"",""p"",""d"",""w"",""p"",""m""]","[1.7180000000000746,1.97300000000007,2.201000000000022,2.4610000000000127,3.0679999999999836,3.86099999999999,4.093000000000075,4.4529999999999745,4.97199999999998,5.341000000000008]",0,PTQJPDDWPM,20,0,20,0,1,,,,,,,,,,,,,,,,,,,,,,,,,,,,,,,,,,,,,,,,,,,,,,,,,,,,,,,,,,,,,,,,,,,,,,,,,,,,,,,,,,,
,,,,,,,,,,6155e204cc071b306458dfff,22,Mężczyzna,2022-06-04_08h09.30.683,task,2021.1.4,Win32,60.0240096,628b806c463b948bc644b84f,629af70e3fac47c39a415cdf,,,,,0,0,0,0,1,X V Q F H G B L J M P D K C T S W R N Z,,,,,,,,,,,,,,,,,,,,,,,,,,,,,,,,,,,,,,,,,,,,,,,,,,,,,,,,,,,,,,,,,,,,,,,,,,,,,,,,,,,,,,,,,,,,,
,,,,,,,,,,6155e204cc071b306458dfff,22,Mężczyzna,2022-06-04_08h09.30.683,task,2021.1.4,Win32,60.0240096,628b806c463b948bc644b84f,629af70e3fac47c39a415cdf,,,,,1,0,1,0,1,X V Q F H G B L J M P D K C T S W R N Z,,,,,,,,,,,,,,,,,,,,,,,,,,,,,,,,,,,,,,,,,,,,,,,,,,,,,,,,,,,,,,,,,,,,,,,,,,,,,,,,,,,,,,,,,,,,,
,,,,,,,,,,6155e204cc071b306458dfff,22,Mężczyzna,2022-06-04_08h09.30.683,task,2021.1.4,Win32,60.0240096,628b806c463b948bc644b84f,629af70e3fac47c39a415cdf,,,,,2,0,2,0,1,X V Q F H G B L J M P D K C T S W R N Z,,,,,,,,,,,,,,,,,,,,,,,,,,,,,,,,,,,,,,,,,,,,,,,,,,,,,,,,,,,,,,,,,,,,,,,,,,,,,,,,,,,,,,,,,,,,,
,,,,,,,,,,6155e204cc071b306458dfff,22,Mężczyzna,2022-06-04_08h09.30.683,task,2021.1.4,Win32,60.0240096,628b806c463b948bc644b84f,629af70e3fac47c39a415cdf,,,,,3,0,3,0,1,X V Q F H G B L J M P D K C T S W R N Z,,,,,,,,,,,,,,,,,,,,,,,,,,,,,,,,,,,,,,,,,,,,,,,,,,,,,,,,,,,,,,,,,,,,,,,,,,,,,,,,,,,,,,,,,,,,,
,,,,,,,,,,6155e204cc071b306458dfff,22,Mężczyzna,2022-06-04_08h09.30.683,task,2021.1.4,Win32,60.0240096,628b806c463b948bc644b84f,629af70e3fac47c39a415cdf,,,,,4,0,4,0,1,X V Q F H G B L J M P D K C T S W R N Z,,,,,,,,,,,,,,,,,,,,,,,,,,,,,,,,,,,,,,,,,,,,,,,,,,,,,,,,,,,,,,,,,,,,,,,,,,,,,,,,,,,,,,,,,,,,,
,,,,,,,,,,6155e204cc071b306458dfff,22,Mężczyzna,2022-06-04_08h09.30.683,task,2021.1.4,Win32,60.0240096,628b806c463b948bc644b84f,629af70e3fac47c39a415cdf,,,,,5,0,5,0,1,X V Q F H G B L J M P D K C T S W R N Z,,,,,,,,,,,,,,,,,,,,,,,,,,,,,,,,,,,,,,,,,,,,,,,,,,,,,,,,,,,,,,,,,,,,,,,,,,,,,,,,,,,,,,,,,,,,,
,,,,,,,,,,6155e204cc071b306458dfff,22,Mężczyzna,2022-06-04_08h09.30.683,task,2021.1.4,Win32,60.0240096,628b806c463b948bc644b84f,629af70e3fac47c39a415cdf,,,,,6,0,6,0,1,X V Q F H G B L J M P D K C T S W R N Z,,,,,,,,,,,,,,,,,,,,,,,,,,,,,,,,,,,,,,,,,,,,,,,,,,,,,,,,,,,,,,,,,,,,,,,,,,,,,,,,,,,,,,,,,,,,,
,,,,,,,,,,6155e204cc071b306458dfff,22,Mężczyzna,2022-06-04_08h09.30.683,task,2021.1.4,Win32,60.0240096,628b806c463b948bc644b84f,629af70e3fac47c39a415cdf,,,,,7,0,7,0,1,X V Q F H G B L J M P D K C T S W R N Z,,,,,,,,,,,,,,,,,,,,,,,,,,,,,,,,,,,,,,,,,,,,,,,,,,,,,,,,,,,,,,,,,,,,,,,,,,,,,,,,,,,,,,,,,,,,,
,,,,,,,,,,6155e204cc071b306458dfff,22,Mężczyzna,2022-06-04_08h09.30.683,task,2021.1.4,Win32,60.0240096,628b806c463b948bc644b84f,629af70e3fac47c39a415cdf,,,,,8,0,8,0,1,X V Q F H G B L J M P D K C T S W R N Z,,,,,,,,,,,,,,,,,,,,,,,,,,,,,,,,,,,,,,,,,,,,,,,,,,,,,,,,,,,,,,,,,,,,,,,,,,,,,,,,,,,,,,,,,,,,,
,,,,,,,,,,6155e204cc071b306458dfff,22,Mężczyzna,2022-06-04_08h09.30.683,task,2021.1.4,Win32,60.0240096,628b806c463b948bc644b84f,629af70e3fac47c39a415cdf,,,,,9,0,9,0,1,X V Q F H G B L J M P D K C T S W R N Z,,,,,,,,,,,,,,,,,,,,,,,,,,,,,,,,,,,,,,,,,,,,,,,,,,,,,,,,,,,,,,,,,,,,,,,,,,,,,,,,,,,,,,,,,,,,,
,,,,,,,,,,6155e204cc071b306458dfff,22,Mężczyzna,2022-06-04_08h09.30.683,task,2021.1.4,Win32,60.0240096,628b806c463b948bc644b84f,629af70e3fac47c39a415cdf,,,,,,,,,,,cqqgpzvkdj,"[""c"",""q"",""q"",""g"",""p"",""z"",""v"",""k"",""d"",""j""]","[1.8540000000000418,2.100999999999999,2.27800000000002,4.500999999999976,5.277000000000044,6.053999999999974,6.404999999999973,6.710000000000036,7.076999999999998,7.310000000000059,7.734000000000037]",1,CQQGPZVKDJ,21,0,21,0,1,,,,,,,,,,,,,,,,,,,,,,,,,,,,,,,,,,,,,,,,,,,,,,,,,,,,,,,,,,,,,,,,,,,,,,,,,,,,,,,,,,,
,,,,,,,,,,6155e204cc071b306458dfff,22,Mężczyzna,2022-06-04_08h09.30.683,task,2021.1.4,Win32,60.0240096,628b806c463b948bc644b84f,629af70e3fac47c39a415cdf,,,,,0,0,0,0,1,X V Q F H G B L J M P D K C T S W R N Z,,,,,,,,,,,,,,,,,,,,,,,,,,,,,,,,,,,,,,,,,,,,,,,,,,,,,,,,,,,,,,,,,,,,,,,,,,,,,,,,,,,,,,,,,,,,,
,,,,,,,,,,6155e204cc071b306458dfff,22,Mężczyzna,2022-06-04_08h09.30.683,task,2021.1.4,Win32,60.0240096,628b806c463b948bc644b84f,629af70e3fac47c39a415cdf,,,,,1,0,1,0,1,X V Q F H G B L J M P D K C T S W R N Z,,,,,,,,,,,,,,,,,,,,,,,,,,,,,,,,,,,,,,,,,,,,,,,,,,,,,,,,,,,,,,,,,,,,,,,,,,,,,,,,,,,,,,,,,,,,,
,,,,,,,,,,6155e204cc071b306458dfff,22,Mężczyzna,2022-06-04_08h09.30.683,task,2021.1.4,Win32,60.0240096,628b806c463b948bc644b84f,629af70e3fac47c39a415cdf,,,,,2,0,2,0,1,X V Q F H G B L J M P D K C T S W R N Z,,,,,,,,,,,,,,,,,,,,,,,,,,,,,,,,,,,,,,,,,,,,,,,,,,,,,,,,,,,,,,,,,,,,,,,,,,,,,,,,,,,,,,,,,,,,,
,,,,,,,,,,6155e204cc071b306458dfff,22,Mężczyzna,2022-06-04_08h09.30.683,task,2021.1.4,Win32,60.0240096,628b806c463b948bc644b84f,629af70e3fac47c39a415cdf,,,,,3,0,3,0,1,X V Q F H G B L J M P D K C T S W R N Z,,,,,,,,,,,,,,,,,,,,,,,,,,,,,,,,,,,,,,,,,,,,,,,,,,,,,,,,,,,,,,,,,,,,,,,,,,,,,,,,,,,,,,,,,,,,,
,,,,,,,,,,6155e204cc071b306458dfff,22,Mężczyzna,2022-06-04_08h09.30.683,task,2021.1.4,Win32,60.0240096,628b806c463b948bc644b84f,629af70e3fac47c39a415cdf,,,,,4,0,4,0,1,X V Q F H G B L J M P D K C T S W R N Z,,,,,,,,,,,,,,,,,,,,,,,,,,,,,,,,,,,,,,,,,,,,,,,,,,,,,,,,,,,,,,,,,,,,,,,,,,,,,,,,,,,,,,,,,,,,,
,,,,,,,,,,6155e204cc071b306458dfff,22,Mężczyzna,2022-06-04_08h09.30.683,task,2021.1.4,Win32,60.0240096,628b806c463b948bc644b84f,629af70e3fac47c39a415cdf,,,,,5,0,5,0,1,X V Q F H G B L J M P D K C T S W R N Z,,,,,,,,,,,,,,,,,,,,,,,,,,,,,,,,,,,,,,,,,,,,,,,,,,,,,,,,,,,,,,,,,,,,,,,,,,,,,,,,,,,,,,,,,,,,,
,,,,,,,,,,6155e204cc071b306458dfff,22,Mężczyzna,2022-06-04_08h09.30.683,task,2021.1.4,Win32,60.0240096,628b806c463b948bc644b84f,629af70e3fac47c39a415cdf,,,,,6,0,6,0,1,X V Q F H G B L J M P D K C T S W R N Z,,,,,,,,,,,,,,,,,,,,,,,,,,,,,,,,,,,,,,,,,,,,,,,,,,,,,,,,,,,,,,,,,,,,,,,,,,,,,,,,,,,,,,,,,,,,,
,,,,,,,,,,6155e204cc071b306458dfff,22,Mężczyzna,2022-06-04_08h09.30.683,task,2021.1.4,Win32,60.0240096,628b806c463b948bc644b84f,629af70e3fac47c39a415cdf,,,,,7,0,7,0,1,X V Q F H G B L J M P D K C T S W R N Z,,,,,,,,,,,,,,,,,,,,,,,,,,,,,,,,,,,,,,,,,,,,,,,,,,,,,,,,,,,,,,,,,,,,,,,,,,,,,,,,,,,,,,,,,,,,,
,,,,,,,,,,6155e204cc071b306458dfff,22,Mężczyzna,2022-06-04_08h09.30.683,task,2021.1.4,Win32,60.0240096,628b806c463b948bc644b84f,629af70e3fac47c39a415cdf,,,,,8,0,8,0,1,X V Q F H G B L J M P D K C T S W R N Z,,,,,,,,,,,,,,,,,,,,,,,,,,,,,,,,,,,,,,,,,,,,,,,,,,,,,,,,,,,,,,,,,,,,,,,,,,,,,,,,,,,,,,,,,,,,,
,,,,,,,,,,6155e204cc071b306458dfff,22,Mężczyzna,2022-06-04_08h09.30.683,task,2021.1.4,Win32,60.0240096,628b806c463b948bc644b84f,629af70e3fac47c39a415cdf,,,,,9,0,9,0,1,X V Q F H G B L J M P D K C T S W R N Z,,,,,,,,,,,,,,,,,,,,,,,,,,,,,,,,,,,,,,,,,,,,,,,,,,,,,,,,,,,,,,,,,,,,,,,,,,,,,,,,,,,,,,,,,,,,,
,,,,,,,,,,6155e204cc071b306458dfff,22,Mężczyzna,2022-06-04_08h09.30.683,task,2021.1.4,Win32,60.0240096,628b806c463b948bc644b84f,629af70e3fac47c39a415cdf,,,,,,,,,,,qlsnvcndm,"[""q"",""l"",""s"",""n"",""v"",""c"",""n"",""d"",""m""]","[2.1720000000000255,2.5570000000000164,3.0529999999999973,3.3729999999999336,3.798000000000002,4.0049999999999955,4.2999999999999545,4.557000000000016,4.999000000000024,5.631999999999948]",0,QLDSNVCNDM,22,0,22,0,1,,,,,,,,,,,,,,,,,,,,,,,,,,,,,,,,,,,,,,,,,,,,,,,,,,,,,,,,,,,,,,,,,,,,,,,,,,,,,,,,,,,
,,,,,,,,,,6155e204cc071b306458dfff,22,Mężczyzna,2022-06-04_08h09.30.683,task,2021.1.4,Win32,60.0240096,628b806c463b948bc644b84f,629af70e3fac47c39a415cdf,,,,,0,0,0,0,1,X V Q F H G B L J M P D K C T S W R N Z,,,,,,,,,,,,,,,,,,,,,,,,,,,,,,,,,,,,,,,,,,,,,,,,,,,,,,,,,,,,,,,,,,,,,,,,,,,,,,,,,,,,,,,,,,,,,
,,,,,,,,,,6155e204cc071b306458dfff,22,Mężczyzna,2022-06-04_08h09.30.683,task,2021.1.4,Win32,60.0240096,628b806c463b948bc644b84f,629af70e3fac47c39a415cdf,,,,,1,0,1,0,1,X V Q F H G B L J M P D K C T S W R N Z,,,,,,,,,,,,,,,,,,,,,,,,,,,,,,,,,,,,,,,,,,,,,,,,,,,,,,,,,,,,,,,,,,,,,,,,,,,,,,,,,,,,,,,,,,,,,
,,,,,,,,,,6155e204cc071b306458dfff,22,Mężczyzna,2022-06-04_08h09.30.683,task,2021.1.4,Win32,60.0240096,628b806c463b948bc644b84f,629af70e3fac47c39a415cdf,,,,,2,0,2,0,1,X V Q F H G B L J M P D K C T S W R N Z,,,,,,,,,,,,,,,,,,,,,,,,,,,,,,,,,,,,,,,,,,,,,,,,,,,,,,,,,,,,,,,,,,,,,,,,,,,,,,,,,,,,,,,,,,,,,
,,,,,,,,,,6155e204cc071b306458dfff,22,Mężczyzna,2022-06-04_08h09.30.683,task,2021.1.4,Win32,60.0240096,628b806c463b948bc644b84f,629af70e3fac47c39a415cdf,,,,,3,0,3,0,1,X V Q F H G B L J M P D K C T S W R N Z,,,,,,,,,,,,,,,,,,,,,,,,,,,,,,,,,,,,,,,,,,,,,,,,,,,,,,,,,,,,,,,,,,,,,,,,,,,,,,,,,,,,,,,,,,,,,
,,,,,,,,,,6155e204cc071b306458dfff,22,Mężczyzna,2022-06-04_08h09.30.683,task,2021.1.4,Win32,60.0240096,628b806c463b948bc644b84f,629af70e3fac47c39a415cdf,,,,,4,0,4,0,1,X V Q F H G B L J M P D K C T S W R N Z,,,,,,,,,,,,,,,,,,,,,,,,,,,,,,,,,,,,,,,,,,,,,,,,,,,,,,,,,,,,,,,,,,,,,,,,,,,,,,,,,,,,,,,,,,,,,
,,,,,,,,,,6155e204cc071b306458dfff,22,Mężczyzna,2022-06-04_08h09.30.683,task,2021.1.4,Win32,60.0240096,628b806c463b948bc644b84f,629af70e3fac47c39a415cdf,,,,,5,0,5,0,1,X V Q F H G B L J M P D K C T S W R N Z,,,,,,,,,,,,,,,,,,,,,,,,,,,,,,,,,,,,,,,,,,,,,,,,,,,,,,,,,,,,,,,,,,,,,,,,,,,,,,,,,,,,,,,,,,,,,
,,,,,,,,,,6155e204cc071b306458dfff,22,Mężczyzna,2022-06-04_08h09.30.683,task,2021.1.4,Win32,60.0240096,628b806c463b948bc644b84f,629af70e3fac47c39a415cdf,,,,,6,0,6,0,1,X V Q F H G B L J M P D K C T S W R N Z,,,,,,,,,,,,,,,,,,,,,,,,,,,,,,,,,,,,,,,,,,,,,,,,,,,,,,,,,,,,,,,,,,,,,,,,,,,,,,,,,,,,,,,,,,,,,
,,,,,,,,,,6155e204cc071b306458dfff,22,Mężczyzna,2022-06-04_08h09.30.683,task,2021.1.4,Win32,60.0240096,628b806c463b948bc644b84f,629af70e3fac47c39a415cdf,,,,,7,0,7,0,1,X V Q F H G B L J M P D K C T S W R N Z,,,,,,,,,,,,,,,,,,,,,,,,,,,,,,,,,,,,,,,,,,,,,,,,,,,,,,,,,,,,,,,,,,,,,,,,,,,,,,,,,,,,,,,,,,,,,
,,,,,,,,,,6155e204cc071b306458dfff,22,Mężczyzna,2022-06-04_08h09.30.683,task,2021.1.4,Win32,60.0240096,628b806c463b948bc644b84f,629af70e3fac47c39a415cdf,,,,,8,0,8,0,1,X V Q F H G B L J M P D K C T S W R N Z,,,,,,,,,,,,,,,,,,,,,,,,,,,,,,,,,,,,,,,,,,,,,,,,,,,,,,,,,,,,,,,,,,,,,,,,,,,,,,,,,,,,,,,,,,,,,
,,,,,,,,,,6155e204cc071b306458dfff,22,Mężczyzna,2022-06-04_08h09.30.683,task,2021.1.4,Win32,60.0240096,628b806c463b948bc644b84f,629af70e3fac47c39a415cdf,,,,,9,0,9,0,1,X V Q F H G B L J M P D K C T S W R N Z,,,,,,,,,,,,,,,,,,,,,,,,,,,,,,,,,,,,,,,,,,,,,,,,,,,,,,,,,,,,,,,,,,,,,,,,,,,,,,,,,,,,,,,,,,,,,
,,,,,,,,,,6155e204cc071b306458dfff,22,Mężczyzna,2022-06-04_08h09.30.683,task,2021.1.4,Win32,60.0240096,628b806c463b948bc644b84f,629af70e3fac47c39a415cdf,,,,,,,,,,,nlpvzxjv,"[""n"",""l"",""p"",""v"",""z"",""x"",""j"",""v""]","[1.7169999999999845,2.052000000000021,2.3719999999999573,3.058999999999969,3.3880000000000337,3.6920000000000073,4.106999999999971,6.116999999999962,6.659999999999968]",0,NLPFVZXJXV,23,0,23,0,1,,,,,,,,,,,,,,,,,,,,,,,,,,,,,,,,,,,,,,,,,,,,,,,,,,,,,,,,,,,,,,,,,,,,,,,,,,,,,,,,,,,
,,,,,,,,,,6155e204cc071b306458dfff,22,Mężczyzna,2022-06-04_08h09.30.683,task,2021.1.4,Win32,60.0240096,628b806c463b948bc644b84f,629af70e3fac47c39a415cdf,,,,,,,,,,,,,,,,,,,,,space,14.405,1,"[""1""]",1,[2.76400000000001],[2.76400000000001],0,0,0,1,1,Practice,2,(4x4) - 15,1,,,,,,,,,,,,,,,,,,,,,,,,,,,,,,,,,,,,,,,,,,,,,,,,,,,,,,,,,,,,,,,,,,,
,,,,,,,,,,6155e204cc071b306458dfff,22,Mężczyzna,2022-06-04_08h09.30.683,task,2021.1.4,Win32,60.0240096,628b806c463b948bc644b84f,629af70e3fac47c39a415cdf,,,,,,,,,,,,,,,,,,,,,,,6,"[""6""]",1,[1.620999999999981],"[2.76400000000001,1.620999999999981]",0,1,1,6,1,Practice,7,(25/5) + 1,6,,,,,,,,,,,,,,,,,,,,,,,,,,,,,,,,,,,,,,,,,,,,,,,,,,,,,,,,,,,,,,,,,,,
,,,,,,,,,,6155e204cc071b306458dfff,22,Mężczyzna,2022-06-04_08h09.30.683,task,2021.1.4,Win32,60.0240096,628b806c463b948bc644b84f,629af70e3fac47c39a415cdf,,,,,,,,,,,,,,,,,,,,,,,2,"[""2""]",1,[1.3680000000000518],"[2.76400000000001,1.620999999999981,1.3680000000000518]",0,2,2,2,1,Practice,3,(4x4) - 14,2,,,,,,,,,,,,,,,,,,,,,,,,,,,,,,,,,,,,,,,,,,,,,,,,,,,,,,,,,,,,,,,,,,,
,,,,,,,,,,6155e204cc071b306458dfff,22,Mężczyzna,2022-06-04_08h09.30.683,task,2021.1.4,Win32,60.0240096,628b806c463b948bc644b84f,629af70e3fac47c39a415cdf,,,,,,,,,,,,,,,,,,,,,,,7,"[""7""]",1,[3.0439999999999827],"[2.76400000000001,1.620999999999981,1.3680000000000518,3.0439999999999827]",0,3,3,7,1,Practice,8,(5x5) - 18,7,,,,,,,,,,,,,,,,,,,,,,,,,,,,,,,,,,,,,,,,,,,,,,,,,,,,,,,,,,,,,,,,,,,
,,,,,,,,,,6155e204cc071b306458dfff,22,Mężczyzna,2022-06-04_08h09.30.683,task,2021.1.4,Win32,60.0240096,628b806c463b948bc644b84f,629af70e3fac47c39a415cdf,,,,,,,,,,,,,,,,,,,,,,,8,"[""8""]",1,[1.393000000000029],"[2.76400000000001,1.620999999999981,1.3680000000000518,3.0439999999999827,1.393000000000029]",0,4,4,8,1,Practice,9,(3x3) - 1,8,,,,,,,,,,,,,,,,,,,,,,,,,,,,,,,,,,,,,,,,,,,,,,,,,,,,,,,,,,,,,,,,,,,
,,,,,,,,,,6155e204cc071b306458dfff,22,Mężczyzna,2022-06-04_08h09.30.683,task,2021.1.4,Win32,60.0240096,628b806c463b948bc644b84f,629af70e3fac47c39a415cdf,,,,,,,,,,,,,,,,,,,,,,,0,"[""0""]",1,[1.5830000000000837],"[2.76400000000001,1.620999999999981,1.3680000000000518,3.0439999999999827,1.393000000000029,1.5830000000000837]",0,5,5,0,1,Practice,1,(3x3) -  9,0,,,,,,,,,,,,,,,,,,,,,,,,,,,,,,,,,,,,,,,,,,,,,,,,,,,,,,,,,,,,,,,,,,,
,,,,,,,,,,6155e204cc071b306458dfff,22,Mężczyzna,2022-06-04_08h09.30.683,task,2021.1.4,Win32,60.0240096,628b806c463b948bc644b84f,629af70e3fac47c39a415cdf,,,,,,,,,,,,,,,,,,,,,,,3,"[""3""]",1,[1.8179999999999836],"[2.76400000000001,1.620999999999981,1.3680000000000518,3.0439999999999827,1.393000000000029,1.5830000000000837,1.8179999999999836]",0,6,6,3,1,Practice,4,(8/4) + 1,3,,,,,,,,,,,,,,,,,,,,,,,,,,,,,,,,,,,,,,,,,,,,,,,,,,,,,,,,,,,,,,,,,,,
