key_resp_15.keys,key_resp_15.rt,key_resp_13.keys,key_resp_13.corr,key_resp_13.rt,ranodm_loop.thisRepN,ranodm_loop.thisTrialN,ranodm_loop.thisN,ranodm_loop.thisIndex,ranodm_loop.ran,participant,Wiek*,Płeć,date,expName,psychopyVersion,OS,frameRate,study_id,session,key_resp_16.keys,key_resp_16.rt,key_resp_4.keys,key_resp_4.rt,next_letter.thisRepN,next_letter.thisTrialN,next_letter.thisN,next_letter.thisIndex,next_letter.ran,letter,simple_recall,key_resp_5.keys,key_resp_5.rt,simple_recall_corr,simple_recall_corrkeys,next_level.thisRepN,next_level.thisTrialN,next_level.thisN,next_level.thisIndex,next_level.ran,key_resp_2.keys,key_resp_2.rt,digit_answer,key_resp.keys,key_resp.corr,key_resp.rt,RT_list,next_equation.thisRepN,next_equation.thisTrialN,next_equation.thisN,next_equation.thisIndex,next_equation.ran,Task,Trial,Problem,Operation_answer,processing_score,sumRT,meanRT,sumdiff,sd,RT,key_resp_3.keys,key_resp_3.rt,repeat_practice.thisRepN,repeat_practice.thisTrialN,repeat_practice.thisN,repeat_practice.thisIndex,repeat_practice.ran,key_resp_6.keys,key_resp_6.rt,key_resp_11.keys,key_resp_11.corr,key_resp_11.rt,operation_correct,repeat_if_wrong_prac.thisRepN,repeat_if_wrong_prac.thisTrialN,repeat_if_wrong_prac.thisN,repeat_if_wrong_prac.thisIndex,repeat_if_wrong_prac.ran,span_size_prac.thisRepN,span_size_prac.thisTrialN,span_size_prac.thisN,span_size_prac.thisIndex,span_size_prac.ran,complex_recall_practice,key_resp_9.keys,key_resp_9.corr,key_resp_9.rt,complex_prac_corr,span_recall_prac.thisRepN,span_recall_prac.thisTrialN,span_recall_prac.thisN,span_recall_prac.thisIndex,span_recall_prac.ran,key_resp_10.keys,key_resp_10.rt,key_resp_7.keys,key_resp_7.corr,repeat_if_wrong.thisRepN,repeat_if_wrong.thisTrialN,repeat_if_wrong.thisN,repeat_if_wrong.thisIndex,repeat_if_wrong.ran,key_resp_7.rt,span_size.thisRepN,span_size.thisTrialN,span_size.thisN,span_size.thisIndex,span_size.ran,complex_recall,key_resp_8.keys,key_resp_8.corr,key_resp_8.rt,complex_recall_corr,complex_recall_corrkeys,span_recall.thisRepN,span_recall.thisTrialN,span_recall.thisN,span_recall.thisIndex,span_recall.ran,key_resp_12.keys,key_resp_12.rt
space,83.0914,"[""comma""]",0,[1.1162999999523322],0,0,0,0,1,615e8d0ac26e9a2f04f94a6f,31,Kobieta,2022-06-04_02h12.36.569,task,2021.1.4,Win32,59.89458553,628b806c463b948bc644b84f,629af6f3871db084a5397aa9,,,,,,,,,,,,,,,,,,,,,,,,,,,,,,,,,,,,,,,,,,,,,,,,,,,,,,,,,,,,,,,,,,,,,,,,,,,,,,,,,,,,,,,,,,,,,,,,,,,,,,,
,,"[""comma""]",0,[0.46900000000005093],1,0,1,0,1,615e8d0ac26e9a2f04f94a6f,31,Kobieta,2022-06-04_02h12.36.569,task,2021.1.4,Win32,59.89458553,628b806c463b948bc644b84f,629af6f3871db084a5397aa9,,,,,,,,,,,,,,,,,,,,,,,,,,,,,,,,,,,,,,,,,,,,,,,,,,,,,,,,,,,,,,,,,,,,,,,,,,,,,,,,,,,,,,,,,,,,,,,,,,,,,,,
,,"[""period""]",0,[0.5687999999523186],2,0,2,0,1,615e8d0ac26e9a2f04f94a6f,31,Kobieta,2022-06-04_02h12.36.569,task,2021.1.4,Win32,59.89458553,628b806c463b948bc644b84f,629af6f3871db084a5397aa9,,,,,,,,,,,,,,,,,,,,,,,,,,,,,,,,,,,,,,,,,,,,,,,,,,,,,,,,,,,,,,,,,,,,,,,,,,,,,,,,,,,,,,,,,,,,,,,,,,,,,,,
,,"[""period""]",0,[0.5022000000477078],3,0,3,0,1,615e8d0ac26e9a2f04f94a6f,31,Kobieta,2022-06-04_02h12.36.569,task,2021.1.4,Win32,59.89458553,628b806c463b948bc644b84f,629af6f3871db084a5397aa9,,,,,,,,,,,,,,,,,,,,,,,,,,,,,,,,,,,,,,,,,,,,,,,,,,,,,,,,,,,,,,,,,,,,,,,,,,,,,,,,,,,,,,,,,,,,,,,,,,,,,,,
,,"[""comma""]",0,[0.5854000000953761],4,0,4,0,1,615e8d0ac26e9a2f04f94a6f,31,Kobieta,2022-06-04_02h12.36.569,task,2021.1.4,Win32,59.89458553,628b806c463b948bc644b84f,629af6f3871db084a5397aa9,,,,,,,,,,,,,,,,,,,,,,,,,,,,,,,,,,,,,,,,,,,,,,,,,,,,,,,,,,,,,,,,,,,,,,,,,,,,,,,,,,,,,,,,,,,,,,,,,,,,,,,
,,"[""comma""]",0,[0.7357999999522917],5,0,5,0,1,615e8d0ac26e9a2f04f94a6f,31,Kobieta,2022-06-04_02h12.36.569,task,2021.1.4,Win32,59.89458553,628b806c463b948bc644b84f,629af6f3871db084a5397aa9,,,,,,,,,,,,,,,,,,,,,,,,,,,,,,,,,,,,,,,,,,,,,,,,,,,,,,,,,,,,,,,,,,,,,,,,,,,,,,,,,,,,,,,,,,,,,,,,,,,,,,,
,,"[""comma""]",0,[0.5699999999999932],6,0,6,0,1,615e8d0ac26e9a2f04f94a6f,31,Kobieta,2022-06-04_02h12.36.569,task,2021.1.4,Win32,59.89458553,628b806c463b948bc644b84f,629af6f3871db084a5397aa9,,,,,,,,,,,,,,,,,,,,,,,,,,,,,,,,,,,,,,,,,,,,,,,,,,,,,,,,,,,,,,,,,,,,,,,,,,,,,,,,,,,,,,,,,,,,,,,,,,,,,,,
,,"[""period""]",0,[0.40179999995228854],7,0,7,0,1,615e8d0ac26e9a2f04f94a6f,31,Kobieta,2022-06-04_02h12.36.569,task,2021.1.4,Win32,59.89458553,628b806c463b948bc644b84f,629af6f3871db084a5397aa9,,,,,,,,,,,,,,,,,,,,,,,,,,,,,,,,,,,,,,,,,,,,,,,,,,,,,,,,,,,,,,,,,,,,,,,,,,,,,,,,,,,,,,,,,,,,,,,,,,,,,,,
,,"[""comma""]",0,[0.9849999999999568],8,0,8,0,1,615e8d0ac26e9a2f04f94a6f,31,Kobieta,2022-06-04_02h12.36.569,task,2021.1.4,Win32,59.89458553,628b806c463b948bc644b84f,629af6f3871db084a5397aa9,,,,,,,,,,,,,,,,,,,,,,,,,,,,,,,,,,,,,,,,,,,,,,,,,,,,,,,,,,,,,,,,,,,,,,,,,,,,,,,,,,,,,,,,,,,,,,,,,,,,,,,
,,"[""period""]",0,[0.5192999999522954],9,0,9,0,1,615e8d0ac26e9a2f04f94a6f,31,Kobieta,2022-06-04_02h12.36.569,task,2021.1.4,Win32,59.89458553,628b806c463b948bc644b84f,629af6f3871db084a5397aa9,,,,,,,,,,,,,,,,,,,,,,,,,,,,,,,,,,,,,,,,,,,,,,,,,,,,,,,,,,,,,,,,,,,,,,,,,,,,,,,,,,,,,,,,,,,,,,,,,,,,,,,
,,"[""period""]",0,[0.6350999999046394],10,0,10,0,1,615e8d0ac26e9a2f04f94a6f,31,Kobieta,2022-06-04_02h12.36.569,task,2021.1.4,Win32,59.89458553,628b806c463b948bc644b84f,629af6f3871db084a5397aa9,,,,,,,,,,,,,,,,,,,,,,,,,,,,,,,,,,,,,,,,,,,,,,,,,,,,,,,,,,,,,,,,,,,,,,,,,,,,,,,,,,,,,,,,,,,,,,,,,,,,,,,
,,"[""comma""]",0,[0.9362999999523254],11,0,11,0,1,615e8d0ac26e9a2f04f94a6f,31,Kobieta,2022-06-04_02h12.36.569,task,2021.1.4,Win32,59.89458553,628b806c463b948bc644b84f,629af6f3871db084a5397aa9,,,,,,,,,,,,,,,,,,,,,,,,,,,,,,,,,,,,,,,,,,,,,,,,,,,,,,,,,,,,,,,,,,,,,,,,,,,,,,,,,,,,,,,,,,,,,,,,,,,,,,,
,,"[""comma""]",0,[0.8014000000953843],12,0,12,0,1,615e8d0ac26e9a2f04f94a6f,31,Kobieta,2022-06-04_02h12.36.569,task,2021.1.4,Win32,59.89458553,628b806c463b948bc644b84f,629af6f3871db084a5397aa9,,,,,,,,,,,,,,,,,,,,,,,,,,,,,,,,,,,,,,,,,,,,,,,,,,,,,,,,,,,,,,,,,,,,,,,,,,,,,,,,,,,,,,,,,,,,,,,,,,,,,,,
,,"[""comma""]",0,[0.45150000000001],13,0,13,0,1,615e8d0ac26e9a2f04f94a6f,31,Kobieta,2022-06-04_02h12.36.569,task,2021.1.4,Win32,59.89458553,628b806c463b948bc644b84f,629af6f3871db084a5397aa9,,,,,,,,,,,,,,,,,,,,,,,,,,,,,,,,,,,,,,,,,,,,,,,,,,,,,,,,,,,,,,,,,,,,,,,,,,,,,,,,,,,,,,,,,,,,,,,,,,,,,,,
,,"[""period""]",0,[0.5025999999045894],14,0,14,0,1,615e8d0ac26e9a2f04f94a6f,31,Kobieta,2022-06-04_02h12.36.569,task,2021.1.4,Win32,59.89458553,628b806c463b948bc644b84f,629af6f3871db084a5397aa9,,,,,,,,,,,,,,,,,,,,,,,,,,,,,,,,,,,,,,,,,,,,,,,,,,,,,,,,,,,,,,,,,,,,,,,,,,,,,,,,,,,,,,,,,,,,,,,,,,,,,,,
,,"[""comma""]",0,[0.38540000009538744],15,0,15,0,1,615e8d0ac26e9a2f04f94a6f,31,Kobieta,2022-06-04_02h12.36.569,task,2021.1.4,Win32,59.89458553,628b806c463b948bc644b84f,629af6f3871db084a5397aa9,,,,,,,,,,,,,,,,,,,,,,,,,,,,,,,,,,,,,,,,,,,,,,,,,,,,,,,,,,,,,,,,,,,,,,,,,,,,,,,,,,,,,,,,,,,,,,,,,,,,,,,
,,"[""period""]",0,[0.13759999990463712],16,0,16,0,1,615e8d0ac26e9a2f04f94a6f,31,Kobieta,2022-06-04_02h12.36.569,task,2021.1.4,Win32,59.89458553,628b806c463b948bc644b84f,629af6f3871db084a5397aa9,,,,,,,,,,,,,,,,,,,,,,,,,,,,,,,,,,,,,,,,,,,,,,,,,,,,,,,,,,,,,,,,,,,,,,,,,,,,,,,,,,,,,,,,,,,,,,,,,,,,,,,
,,"[""comma""]",0,[0.386299999952314],17,0,17,0,1,615e8d0ac26e9a2f04f94a6f,31,Kobieta,2022-06-04_02h12.36.569,task,2021.1.4,Win32,59.89458553,628b806c463b948bc644b84f,629af6f3871db084a5397aa9,,,,,,,,,,,,,,,,,,,,,,,,,,,,,,,,,,,,,,,,,,,,,,,,,,,,,,,,,,,,,,,,,,,,,,,,,,,,,,,,,,,,,,,,,,,,,,,,,,,,,,,
,,"[""comma""]",0,[0.4350999999045939],18,0,18,0,1,615e8d0ac26e9a2f04f94a6f,31,Kobieta,2022-06-04_02h12.36.569,task,2021.1.4,Win32,59.89458553,628b806c463b948bc644b84f,629af6f3871db084a5397aa9,,,,,,,,,,,,,,,,,,,,,,,,,,,,,,,,,,,,,,,,,,,,,,,,,,,,,,,,,,,,,,,,,,,,,,,,,,,,,,,,,,,,,,,,,,,,,,,,,,,,,,,
,,"[""period""]",0,[0.3184000000953233],19,0,19,0,1,615e8d0ac26e9a2f04f94a6f,31,Kobieta,2022-06-04_02h12.36.569,task,2021.1.4,Win32,59.89458553,628b806c463b948bc644b84f,629af6f3871db084a5397aa9,,,,,,,,,,,,,,,,,,,,,,,,,,,,,,,,,,,,,,,,,,,,,,,,,,,,,,,,,,,,,,,,,,,,,,,,,,,,,,,,,,,,,,,,,,,,,,,,,,,,,,,
,,"[""period""]",0,[0.35030000019082763],20,0,20,0,1,615e8d0ac26e9a2f04f94a6f,31,Kobieta,2022-06-04_02h12.36.569,task,2021.1.4,Win32,59.89458553,628b806c463b948bc644b84f,629af6f3871db084a5397aa9,,,,,,,,,,,,,,,,,,,,,,,,,,,,,,,,,,,,,,,,,,,,,,,,,,,,,,,,,,,,,,,,,,,,,,,,,,,,,,,,,,,,,,,,,,,,,,,,,,,,,,,
,,"[""comma""]",0,[0.38490000009539926],21,0,21,0,1,615e8d0ac26e9a2f04f94a6f,31,Kobieta,2022-06-04_02h12.36.569,task,2021.1.4,Win32,59.89458553,628b806c463b948bc644b84f,629af6f3871db084a5397aa9,,,,,,,,,,,,,,,,,,,,,,,,,,,,,,,,,,,,,,,,,,,,,,,,,,,,,,,,,,,,,,,,,,,,,,,,,,,,,,,,,,,,,,,,,,,,,,,,,,,,,,,
,,"[""period""]",0,[0.31779999995228536],22,0,22,0,1,615e8d0ac26e9a2f04f94a6f,31,Kobieta,2022-06-04_02h12.36.569,task,2021.1.4,Win32,59.89458553,628b806c463b948bc644b84f,629af6f3871db084a5397aa9,,,,,,,,,,,,,,,,,,,,,,,,,,,,,,,,,,,,,,,,,,,,,,,,,,,,,,,,,,,,,,,,,,,,,,,,,,,,,,,,,,,,,,,,,,,,,,,,,,,,,,,
,,"[""comma""]",0,[0.5852999999523263],23,0,23,0,1,615e8d0ac26e9a2f04f94a6f,31,Kobieta,2022-06-04_02h12.36.569,task,2021.1.4,Win32,59.89458553,628b806c463b948bc644b84f,629af6f3871db084a5397aa9,,,,,,,,,,,,,,,,,,,,,,,,,,,,,,,,,,,,,,,,,,,,,,,,,,,,,,,,,,,,,,,,,,,,,,,,,,,,,,,,,,,,,,,,,,,,,,,,,,,,,,,
,,"[""comma""]",0,[0.8019999999999072],24,0,24,0,1,615e8d0ac26e9a2f04f94a6f,31,Kobieta,2022-06-04_02h12.36.569,task,2021.1.4,Win32,59.89458553,628b806c463b948bc644b84f,629af6f3871db084a5397aa9,,,,,,,,,,,,,,,,,,,,,,,,,,,,,,,,,,,,,,,,,,,,,,,,,,,,,,,,,,,,,,,,,,,,,,,,,,,,,,,,,,,,,,,,,,,,,,,,,,,,,,,
,,"[""comma""]",0,[0.6525000000000318],25,0,25,0,1,615e8d0ac26e9a2f04f94a6f,31,Kobieta,2022-06-04_02h12.36.569,task,2021.1.4,Win32,59.89458553,628b806c463b948bc644b84f,629af6f3871db084a5397aa9,,,,,,,,,,,,,,,,,,,,,,,,,,,,,,,,,,,,,,,,,,,,,,,,,,,,,,,,,,,,,,,,,,,,,,,,,,,,,,,,,,,,,,,,,,,,,,,,,,,,,,,
,,"[""comma""]",0,[0.6019000000952701],26,0,26,0,1,615e8d0ac26e9a2f04f94a6f,31,Kobieta,2022-06-04_02h12.36.569,task,2021.1.4,Win32,59.89458553,628b806c463b948bc644b84f,629af6f3871db084a5397aa9,,,,,,,,,,,,,,,,,,,,,,,,,,,,,,,,,,,,,,,,,,,,,,,,,,,,,,,,,,,,,,,,,,,,,,,,,,,,,,,,,,,,,,,,,,,,,,,,,,,,,,,
,,"[""period""]",0,[0.5152000000476846],27,0,27,0,1,615e8d0ac26e9a2f04f94a6f,31,Kobieta,2022-06-04_02h12.36.569,task,2021.1.4,Win32,59.89458553,628b806c463b948bc644b84f,629af6f3871db084a5397aa9,,,,,,,,,,,,,,,,,,,,,,,,,,,,,,,,,,,,,,,,,,,,,,,,,,,,,,,,,,,,,,,,,,,,,,,,,,,,,,,,,,,,,,,,,,,,,,,,,,,,,,,
,,"[""period""]",0,[0.5026000001430475],28,0,28,0,1,615e8d0ac26e9a2f04f94a6f,31,Kobieta,2022-06-04_02h12.36.569,task,2021.1.4,Win32,59.89458553,628b806c463b948bc644b84f,629af6f3871db084a5397aa9,,,,,,,,,,,,,,,,,,,,,,,,,,,,,,,,,,,,,,,,,,,,,,,,,,,,,,,,,,,,,,,,,,,,,,,,,,,,,,,,,,,,,,,,,,,,,,,,,,,,,,,
,,"[""period""]",0,[0.7539000000954275],29,0,29,0,1,615e8d0ac26e9a2f04f94a6f,31,Kobieta,2022-06-04_02h12.36.569,task,2021.1.4,Win32,59.89458553,628b806c463b948bc644b84f,629af6f3871db084a5397aa9,,,,,,,,,,,,,,,,,,,,,,,,,,,,,,,,,,,,,,,,,,,,,,,,,,,,,,,,,,,,,,,,,,,,,,,,,,,,,,,,,,,,,,,,,,,,,,,,,,,,,,,
,,"[""comma""]",0,[0.9359999999999218],30,0,30,0,1,615e8d0ac26e9a2f04f94a6f,31,Kobieta,2022-06-04_02h12.36.569,task,2021.1.4,Win32,59.89458553,628b806c463b948bc644b84f,629af6f3871db084a5397aa9,,,,,,,,,,,,,,,,,,,,,,,,,,,,,,,,,,,,,,,,,,,,,,,,,,,,,,,,,,,,,,,,,,,,,,,,,,,,,,,,,,,,,,,,,,,,,,,,,,,,,,,
,,"[""comma""]",0,[0.46529999995232174],31,0,31,0,1,615e8d0ac26e9a2f04f94a6f,31,Kobieta,2022-06-04_02h12.36.569,task,2021.1.4,Win32,59.89458553,628b806c463b948bc644b84f,629af6f3871db084a5397aa9,,,,,,,,,,,,,,,,,,,,,,,,,,,,,,,,,,,,,,,,,,,,,,,,,,,,,,,,,,,,,,,,,,,,,,,,,,,,,,,,,,,,,,,,,,,,,,,,,,,,,,,
,,"[""comma""]",0,[0.36520000004770736],32,0,32,0,1,615e8d0ac26e9a2f04f94a6f,31,Kobieta,2022-06-04_02h12.36.569,task,2021.1.4,Win32,59.89458553,628b806c463b948bc644b84f,629af6f3871db084a5397aa9,,,,,,,,,,,,,,,,,,,,,,,,,,,,,,,,,,,,,,,,,,,,,,,,,,,,,,,,,,,,,,,,,,,,,,,,,,,,,,,,,,,,,,,,,,,,,,,,,,,,,,,
,,"[""comma""]",0,[0.36799999999993815],33,0,33,0,1,615e8d0ac26e9a2f04f94a6f,31,Kobieta,2022-06-04_02h12.36.569,task,2021.1.4,Win32,59.89458553,628b806c463b948bc644b84f,629af6f3871db084a5397aa9,,,,,,,,,,,,,,,,,,,,,,,,,,,,,,,,,,,,,,,,,,,,,,,,,,,,,,,,,,,,,,,,,,,,,,,,,,,,,,,,,,,,,,,,,,,,,,,,,,,,,,,
,,"[""period""]",0,[0.31579999995233266],34,0,34,0,1,615e8d0ac26e9a2f04f94a6f,31,Kobieta,2022-06-04_02h12.36.569,task,2021.1.4,Win32,59.89458553,628b806c463b948bc644b84f,629af6f3871db084a5397aa9,,,,,,,,,,,,,,,,,,,,,,,,,,,,,,,,,,,,,,,,,,,,,,,,,,,,,,,,,,,,,,,,,,,,,,,,,,,,,,,,,,,,,,,,,,,,,,,,,,,,,,,
,,"[""comma""]",0,[0.26870000004771555],35,0,35,0,1,615e8d0ac26e9a2f04f94a6f,31,Kobieta,2022-06-04_02h12.36.569,task,2021.1.4,Win32,59.89458553,628b806c463b948bc644b84f,629af6f3871db084a5397aa9,,,,,,,,,,,,,,,,,,,,,,,,,,,,,,,,,,,,,,,,,,,,,,,,,,,,,,,,,,,,,,,,,,,,,,,,,,,,,,,,,,,,,,,,,,,,,,,,,,,,,,,
,,"[""period""]",0,[0.585100000143143],36,0,36,0,1,615e8d0ac26e9a2f04f94a6f,31,Kobieta,2022-06-04_02h12.36.569,task,2021.1.4,Win32,59.89458553,628b806c463b948bc644b84f,629af6f3871db084a5397aa9,,,,,,,,,,,,,,,,,,,,,,,,,,,,,,,,,,,,,,,,,,,,,,,,,,,,,,,,,,,,,,,,,,,,,,,,,,,,,,,,,,,,,,,,,,,,,,,,,,,,,,,
,,"[""comma""]",0,[0.4017999999523454],37,0,37,0,1,615e8d0ac26e9a2f04f94a6f,31,Kobieta,2022-06-04_02h12.36.569,task,2021.1.4,Win32,59.89458553,628b806c463b948bc644b84f,629af6f3871db084a5397aa9,,,,,,,,,,,,,,,,,,,,,,,,,,,,,,,,,,,,,,,,,,,,,,,,,,,,,,,,,,,,,,,,,,,,,,,,,,,,,,,,,,,,,,,,,,,,,,,,,,,,,,,
,,"[""comma""]",0,[0.8349000000954447],38,0,38,0,1,615e8d0ac26e9a2f04f94a6f,31,Kobieta,2022-06-04_02h12.36.569,task,2021.1.4,Win32,59.89458553,628b806c463b948bc644b84f,629af6f3871db084a5397aa9,,,,,,,,,,,,,,,,,,,,,,,,,,,,,,,,,,,,,,,,,,,,,,,,,,,,,,,,,,,,,,,,,,,,,,,,,,,,,,,,,,,,,,,,,,,,,,,,,,,,,,,
,,"[""comma""]",0,[0.8852000000476892],39,0,39,0,1,615e8d0ac26e9a2f04f94a6f,31,Kobieta,2022-06-04_02h12.36.569,task,2021.1.4,Win32,59.89458553,628b806c463b948bc644b84f,629af6f3871db084a5397aa9,,,,,,,,,,,,,,,,,,,,,,,,,,,,,,,,,,,,,,,,,,,,,,,,,,,,,,,,,,,,,,,,,,,,,,,,,,,,,,,,,,,,,,,,,,,,,,,,,,,,,,,
,,"[""period""]",0,[0.40109999990454526],40,0,40,0,1,615e8d0ac26e9a2f04f94a6f,31,Kobieta,2022-06-04_02h12.36.569,task,2021.1.4,Win32,59.89458553,628b806c463b948bc644b84f,629af6f3871db084a5397aa9,,,,,,,,,,,,,,,,,,,,,,,,,,,,,,,,,,,,,,,,,,,,,,,,,,,,,,,,,,,,,,,,,,,,,,,,,,,,,,,,,,,,,,,,,,,,,,,,,,,,,,,
,,"[""comma""]",0,[0.33579999995231447],41,0,41,0,1,615e8d0ac26e9a2f04f94a6f,31,Kobieta,2022-06-04_02h12.36.569,task,2021.1.4,Win32,59.89458553,628b806c463b948bc644b84f,629af6f3871db084a5397aa9,,,,,,,,,,,,,,,,,,,,,,,,,,,,,,,,,,,,,,,,,,,,,,,,,,,,,,,,,,,,,,,,,,,,,,,,,,,,,,,,,,,,,,,,,,,,,,,,,,,,,,,
,,"[""period""]",0,[0.3355999999047299],42,0,42,0,1,615e8d0ac26e9a2f04f94a6f,31,Kobieta,2022-06-04_02h12.36.569,task,2021.1.4,Win32,59.89458553,628b806c463b948bc644b84f,629af6f3871db084a5397aa9,,,,,,,,,,,,,,,,,,,,,,,,,,,,,,,,,,,,,,,,,,,,,,,,,,,,,,,,,,,,,,,,,,,,,,,,,,,,,,,,,,,,,,,,,,,,,,,,,,,,,,,
,,"[""period""]",0,[0.33490000009533105],43,0,43,0,1,615e8d0ac26e9a2f04f94a6f,31,Kobieta,2022-06-04_02h12.36.569,task,2021.1.4,Win32,59.89458553,628b806c463b948bc644b84f,629af6f3871db084a5397aa9,,,,,,,,,,,,,,,,,,,,,,,,,,,,,,,,,,,,,,,,,,,,,,,,,,,,,,,,,,,,,,,,,,,,,,,,,,,,,,,,,,,,,,,,,,,,,,,,,,,,,,,
,,"[""comma""]",0,[0.3682000000477501],44,0,44,0,1,615e8d0ac26e9a2f04f94a6f,31,Kobieta,2022-06-04_02h12.36.569,task,2021.1.4,Win32,59.89458553,628b806c463b948bc644b84f,629af6f3871db084a5397aa9,,,,,,,,,,,,,,,,,,,,,,,,,,,,,,,,,,,,,,,,,,,,,,,,,,,,,,,,,,,,,,,,,,,,,,,,,,,,,,,,,,,,,,,,,,,,,,,,,,,,,,,
,,"[""comma""]",0,[0.5177999999523308],45,0,45,0,1,615e8d0ac26e9a2f04f94a6f,31,Kobieta,2022-06-04_02h12.36.569,task,2021.1.4,Win32,59.89458553,628b806c463b948bc644b84f,629af6f3871db084a5397aa9,,,,,,,,,,,,,,,,,,,,,,,,,,,,,,,,,,,,,,,,,,,,,,,,,,,,,,,,,,,,,,,,,,,,,,,,,,,,,,,,,,,,,,,,,,,,,,,,,,,,,,,
,,"[""comma""]",0,[0.6682999999522963],46,0,46,0,1,615e8d0ac26e9a2f04f94a6f,31,Kobieta,2022-06-04_02h12.36.569,task,2021.1.4,Win32,59.89458553,628b806c463b948bc644b84f,629af6f3871db084a5397aa9,,,,,,,,,,,,,,,,,,,,,,,,,,,,,,,,,,,,,,,,,,,,,,,,,,,,,,,,,,,,,,,,,,,,,,,,,,,,,,,,,,,,,,,,,,,,,,,,,,,,,,,
,,"[""comma""]",0,[0.7475000000000591],47,0,47,0,1,615e8d0ac26e9a2f04f94a6f,31,Kobieta,2022-06-04_02h12.36.569,task,2021.1.4,Win32,59.89458553,628b806c463b948bc644b84f,629af6f3871db084a5397aa9,,,,,,,,,,,,,,,,,,,,,,,,,,,,,,,,,,,,,,,,,,,,,,,,,,,,,,,,,,,,,,,,,,,,,,,,,,,,,,,,,,,,,,,,,,,,,,,,,,,,,,,
,,"[""period""]",0,[0.6340000000000146],48,0,48,0,1,615e8d0ac26e9a2f04f94a6f,31,Kobieta,2022-06-04_02h12.36.569,task,2021.1.4,Win32,59.89458553,628b806c463b948bc644b84f,629af6f3871db084a5397aa9,,,,,,,,,,,,,,,,,,,,,,,,,,,,,,,,,,,,,,,,,,,,,,,,,,,,,,,,,,,,,,,,,,,,,,,,,,,,,,,,,,,,,,,,,,,,,,,,,,,,,,,
,,"[""comma""]",0,[0.4015000000000555],49,0,49,0,1,615e8d0ac26e9a2f04f94a6f,31,Kobieta,2022-06-04_02h12.36.569,task,2021.1.4,Win32,59.89458553,628b806c463b948bc644b84f,629af6f3871db084a5397aa9,,,,,,,,,,,,,,,,,,,,,,,,,,,,,,,,,,,,,,,,,,,,,,,,,,,,,,,,,,,,,,,,,,,,,,,,,,,,,,,,,,,,,,,,,,,,,,,,,,,,,,,
,,"[""period""]",0,[0.36859999990463166],50,0,50,0,1,615e8d0ac26e9a2f04f94a6f,31,Kobieta,2022-06-04_02h12.36.569,task,2021.1.4,Win32,59.89458553,628b806c463b948bc644b84f,629af6f3871db084a5397aa9,,,,,,,,,,,,,,,,,,,,,,,,,,,,,,,,,,,,,,,,,,,,,,,,,,,,,,,,,,,,,,,,,,,,,,,,,,,,,,,,,,,,,,,,,,,,,,,,,,,,,,,
,,"[""period""]",0,[0.6689999999999827],51,0,51,0,1,615e8d0ac26e9a2f04f94a6f,31,Kobieta,2022-06-04_02h12.36.569,task,2021.1.4,Win32,59.89458553,628b806c463b948bc644b84f,629af6f3871db084a5397aa9,,,,,,,,,,,,,,,,,,,,,,,,,,,,,,,,,,,,,,,,,,,,,,,,,,,,,,,,,,,,,,,,,,,,,,,,,,,,,,,,,,,,,,,,,,,,,,,,,,,,,,,
,,"[""comma""]",0,[0.3182999999523872],52,0,52,0,1,615e8d0ac26e9a2f04f94a6f,31,Kobieta,2022-06-04_02h12.36.569,task,2021.1.4,Win32,59.89458553,628b806c463b948bc644b84f,629af6f3871db084a5397aa9,,,,,,,,,,,,,,,,,,,,,,,,,,,,,,,,,,,,,,,,,,,,,,,,,,,,,,,,,,,,,,,,,,,,,,,,,,,,,,,,,,,,,,,,,,,,,,,,,,,,,,,
,,"[""period""]",0,[0.4850999999046053],53,0,53,0,1,615e8d0ac26e9a2f04f94a6f,31,Kobieta,2022-06-04_02h12.36.569,task,2021.1.4,Win32,59.89458553,628b806c463b948bc644b84f,629af6f3871db084a5397aa9,,,,,,,,,,,,,,,,,,,,,,,,,,,,,,,,,,,,,,,,,,,,,,,,,,,,,,,,,,,,,,,,,,,,,,,,,,,,,,,,,,,,,,,,,,,,,,,,,,,,,,,
,,"[""comma""]",0,[0.469799999952329],54,0,54,0,1,615e8d0ac26e9a2f04f94a6f,31,Kobieta,2022-06-04_02h12.36.569,task,2021.1.4,Win32,59.89458553,628b806c463b948bc644b84f,629af6f3871db084a5397aa9,,,,,,,,,,,,,,,,,,,,,,,,,,,,,,,,,,,,,,,,,,,,,,,,,,,,,,,,,,,,,,,,,,,,,,,,,,,,,,,,,,,,,,,,,,,,,,,,,,,,,,,
,,"[""comma""]",0,[0.3849999999999909],55,0,55,0,1,615e8d0ac26e9a2f04f94a6f,31,Kobieta,2022-06-04_02h12.36.569,task,2021.1.4,Win32,59.89458553,628b806c463b948bc644b84f,629af6f3871db084a5397aa9,,,,,,,,,,,,,,,,,,,,,,,,,,,,,,,,,,,,,,,,,,,,,,,,,,,,,,,,,,,,,,,,,,,,,,,,,,,,,,,,,,,,,,,,,,,,,,,,,,,,,,,
,,"[""comma""]",0,[0.43570000004774556],56,0,56,0,1,615e8d0ac26e9a2f04f94a6f,31,Kobieta,2022-06-04_02h12.36.569,task,2021.1.4,Win32,59.89458553,628b806c463b948bc644b84f,629af6f3871db084a5397aa9,,,,,,,,,,,,,,,,,,,,,,,,,,,,,,,,,,,,,,,,,,,,,,,,,,,,,,,,,,,,,,,,,,,,,,,,,,,,,,,,,,,,,,,,,,,,,,,,,,,,,,,
,,"[""comma""]",0,[0.5856000001430175],57,0,57,0,1,615e8d0ac26e9a2f04f94a6f,31,Kobieta,2022-06-04_02h12.36.569,task,2021.1.4,Win32,59.89458553,628b806c463b948bc644b84f,629af6f3871db084a5397aa9,,,,,,,,,,,,,,,,,,,,,,,,,,,,,,,,,,,,,,,,,,,,,,,,,,,,,,,,,,,,,,,,,,,,,,,,,,,,,,,,,,,,,,,,,,,,,,,,,,,,,,,
,,"[""comma""]",0,[0.6519000000953383],58,0,58,0,1,615e8d0ac26e9a2f04f94a6f,31,Kobieta,2022-06-04_02h12.36.569,task,2021.1.4,Win32,59.89458553,628b806c463b948bc644b84f,629af6f3871db084a5397aa9,,,,,,,,,,,,,,,,,,,,,,,,,,,,,,,,,,,,,,,,,,,,,,,,,,,,,,,,,,,,,,,,,,,,,,,,,,,,,,,,,,,,,,,,,,,,,,,,,,,,,,,
,,"[""period""]",0,[0.4844000000954338],59,0,59,0,1,615e8d0ac26e9a2f04f94a6f,31,Kobieta,2022-06-04_02h12.36.569,task,2021.1.4,Win32,59.89458553,628b806c463b948bc644b84f,629af6f3871db084a5397aa9,,,,,,,,,,,,,,,,,,,,,,,,,,,,,,,,,,,,,,,,,,,,,,,,,,,,,,,,,,,,,,,,,,,,,,,,,,,,,,,,,,,,,,,,,,,,,,,,,,,,,,,
,,"[""comma"",""period""]",0,"[0.16829999995229628,1.9003999998569725]",60,0,60,0,1,615e8d0ac26e9a2f04f94a6f,31,Kobieta,2022-06-04_02h12.36.569,task,2021.1.4,Win32,59.89458553,628b806c463b948bc644b84f,629af6f3871db084a5397aa9,,,,,,,,,,,,,,,,,,,,,,,,,,,,,,,,,,,,,,,,,,,,,,,,,,,,,,,,,,,,,,,,,,,,,,,,,,,,,,,,,,,,,,,,,,,,,,,,,,,,,,,
,,,0,,61,0,61,0,1,615e8d0ac26e9a2f04f94a6f,31,Kobieta,2022-06-04_02h12.36.569,task,2021.1.4,Win32,59.89458553,628b806c463b948bc644b84f,629af6f3871db084a5397aa9,,,,,,,,,,,,,,,,,,,,,,,,,,,,,,,,,,,,,,,,,,,,,,,,,,,,,,,,,,,,,,,,,,,,,,,,,,,,,,,,,,,,,,,,,,,,,,,,,,,,,,,
,,"[""period""]",0,[0.3838999998569079],62,0,62,0,1,615e8d0ac26e9a2f04f94a6f,31,Kobieta,2022-06-04_02h12.36.569,task,2021.1.4,Win32,59.89458553,628b806c463b948bc644b84f,629af6f3871db084a5397aa9,,,,,,,,,,,,,,,,,,,,,,,,,,,,,,,,,,,,,,,,,,,,,,,,,,,,,,,,,,,,,,,,,,,,,,,,,,,,,,,,,,,,,,,,,,,,,,,,,,,,,,,
,,"[""period""]",0,[0.40249999999991815],63,0,63,0,1,615e8d0ac26e9a2f04f94a6f,31,Kobieta,2022-06-04_02h12.36.569,task,2021.1.4,Win32,59.89458553,628b806c463b948bc644b84f,629af6f3871db084a5397aa9,,,,,,,,,,,,,,,,,,,,,,,,,,,,,,,,,,,,,,,,,,,,,,,,,,,,,,,,,,,,,,,,,,,,,,,,,,,,,,,,,,,,,,,,,,,,,,,,,,,,,,,
,,"[""period""]",0,[0.38380000019083127],64,0,64,0,1,615e8d0ac26e9a2f04f94a6f,31,Kobieta,2022-06-04_02h12.36.569,task,2021.1.4,Win32,59.89458553,628b806c463b948bc644b84f,629af6f3871db084a5397aa9,,,,,,,,,,,,,,,,,,,,,,,,,,,,,,,,,,,,,,,,,,,,,,,,,,,,,,,,,,,,,,,,,,,,,,,,,,,,,,,,,,,,,,,,,,,,,,,,,,,,,,,
,,"[""period""]",0,[0.4855000000000018],65,0,65,0,1,615e8d0ac26e9a2f04f94a6f,31,Kobieta,2022-06-04_02h12.36.569,task,2021.1.4,Win32,59.89458553,628b806c463b948bc644b84f,629af6f3871db084a5397aa9,,,,,,,,,,,,,,,,,,,,,,,,,,,,,,,,,,,,,,,,,,,,,,,,,,,,,,,,,,,,,,,,,,,,,,,,,,,,,,,,,,,,,,,,,,,,,,,,,,,,,,,
,,"[""period""]",0,[0.48450000000002547],66,0,66,0,1,615e8d0ac26e9a2f04f94a6f,31,Kobieta,2022-06-04_02h12.36.569,task,2021.1.4,Win32,59.89458553,628b806c463b948bc644b84f,629af6f3871db084a5397aa9,,,,,,,,,,,,,,,,,,,,,,,,,,,,,,,,,,,,,,,,,,,,,,,,,,,,,,,,,,,,,,,,,,,,,,,,,,,,,,,,,,,,,,,,,,,,,,,,,,,,,,,
,,"[""comma""]",0,[0.4849000000953083],67,0,67,0,1,615e8d0ac26e9a2f04f94a6f,31,Kobieta,2022-06-04_02h12.36.569,task,2021.1.4,Win32,59.89458553,628b806c463b948bc644b84f,629af6f3871db084a5397aa9,,,,,,,,,,,,,,,,,,,,,,,,,,,,,,,,,,,,,,,,,,,,,,,,,,,,,,,,,,,,,,,,,,,,,,,,,,,,,,,,,,,,,,,,,,,,,,,,,,,,,,,
,,"[""comma""]",0,[0.35209999990468077],68,0,68,0,1,615e8d0ac26e9a2f04f94a6f,31,Kobieta,2022-06-04_02h12.36.569,task,2021.1.4,Win32,59.89458553,628b806c463b948bc644b84f,629af6f3871db084a5397aa9,,,,,,,,,,,,,,,,,,,,,,,,,,,,,,,,,,,,,,,,,,,,,,,,,,,,,,,,,,,,,,,,,,,,,,,,,,,,,,,,,,,,,,,,,,,,,,,,,,,,,,,
,,"[""period""]",0,[0.3507000000477092],69,0,69,0,1,615e8d0ac26e9a2f04f94a6f,31,Kobieta,2022-06-04_02h12.36.569,task,2021.1.4,Win32,59.89458553,628b806c463b948bc644b84f,629af6f3871db084a5397aa9,,,,,,,,,,,,,,,,,,,,,,,,,,,,,,,,,,,,,,,,,,,,,,,,,,,,,,,,,,,,,,,,,,,,,,,,,,,,,,,,,,,,,,,,,,,,,,,,,,,,,,,
,,"[""comma""]",0,[0.3849999999999909],70,0,70,0,1,615e8d0ac26e9a2f04f94a6f,31,Kobieta,2022-06-04_02h12.36.569,task,2021.1.4,Win32,59.89458553,628b806c463b948bc644b84f,629af6f3871db084a5397aa9,,,,,,,,,,,,,,,,,,,,,,,,,,,,,,,,,,,,,,,,,,,,,,,,,,,,,,,,,,,,,,,,,,,,,,,,,,,,,,,,,,,,,,,,,,,,,,,,,,,,,,,
,,"[""comma""]",0,[0.48530000019070485],71,0,71,0,1,615e8d0ac26e9a2f04f94a6f,31,Kobieta,2022-06-04_02h12.36.569,task,2021.1.4,Win32,59.89458553,628b806c463b948bc644b84f,629af6f3871db084a5397aa9,,,,,,,,,,,,,,,,,,,,,,,,,,,,,,,,,,,,,,,,,,,,,,,,,,,,,,,,,,,,,,,,,,,,,,,,,,,,,,,,,,,,,,,,,,,,,,,,,,,,,,,
,,"[""period""]",0,[0.4035000000000082],72,0,72,0,1,615e8d0ac26e9a2f04f94a6f,31,Kobieta,2022-06-04_02h12.36.569,task,2021.1.4,Win32,59.89458553,628b806c463b948bc644b84f,629af6f3871db084a5397aa9,,,,,,,,,,,,,,,,,,,,,,,,,,,,,,,,,,,,,,,,,,,,,,,,,,,,,,,,,,,,,,,,,,,,,,,,,,,,,,,,,,,,,,,,,,,,,,,,,,,,,,,
,,"[""comma""]",0,[0.4324000000954129],73,0,73,0,1,615e8d0ac26e9a2f04f94a6f,31,Kobieta,2022-06-04_02h12.36.569,task,2021.1.4,Win32,59.89458553,628b806c463b948bc644b84f,629af6f3871db084a5397aa9,,,,,,,,,,,,,,,,,,,,,,,,,,,,,,,,,,,,,,,,,,,,,,,,,,,,,,,,,,,,,,,,,,,,,,,,,,,,,,,,,,,,,,,,,,,,,,,,,,,,,,,
,,"[""period""]",0,[0.40169999980923876],74,0,74,0,1,615e8d0ac26e9a2f04f94a6f,31,Kobieta,2022-06-04_02h12.36.569,task,2021.1.4,Win32,59.89458553,628b806c463b948bc644b84f,629af6f3871db084a5397aa9,,,,,,,,,,,,,,,,,,,,,,,,,,,,,,,,,,,,,,,,,,,,,,,,,,,,,,,,,,,,,,,,,,,,,,,,,,,,,,,,,,,,,,,,,,,,,,,,,,,,,,,
,,"[""comma""]",0,[0.4160999999046453],75,0,75,0,1,615e8d0ac26e9a2f04f94a6f,31,Kobieta,2022-06-04_02h12.36.569,task,2021.1.4,Win32,59.89458553,628b806c463b948bc644b84f,629af6f3871db084a5397aa9,,,,,,,,,,,,,,,,,,,,,,,,,,,,,,,,,,,,,,,,,,,,,,,,,,,,,,,,,,,,,,,,,,,,,,,,,,,,,,,,,,,,,,,,,,,,,,,,,,,,,,,
,,"[""period""]",0,[0.30120000004774283],76,0,76,0,1,615e8d0ac26e9a2f04f94a6f,31,Kobieta,2022-06-04_02h12.36.569,task,2021.1.4,Win32,59.89458553,628b806c463b948bc644b84f,629af6f3871db084a5397aa9,,,,,,,,,,,,,,,,,,,,,,,,,,,,,,,,,,,,,,,,,,,,,,,,,,,,,,,,,,,,,,,,,,,,,,,,,,,,,,,,,,,,,,,,,,,,,,,,,,,,,,,
,,"[""comma""]",0,[0.36579999995240087],77,0,77,0,1,615e8d0ac26e9a2f04f94a6f,31,Kobieta,2022-06-04_02h12.36.569,task,2021.1.4,Win32,59.89458553,628b806c463b948bc644b84f,629af6f3871db084a5397aa9,,,,,,,,,,,,,,,,,,,,,,,,,,,,,,,,,,,,,,,,,,,,,,,,,,,,,,,,,,,,,,,,,,,,,,,,,,,,,,,,,,,,,,,,,,,,,,,,,,,,,,,
,,"[""comma""]",0,[0.3574999999999591],78,0,78,0,1,615e8d0ac26e9a2f04f94a6f,31,Kobieta,2022-06-04_02h12.36.569,task,2021.1.4,Win32,59.89458553,628b806c463b948bc644b84f,629af6f3871db084a5397aa9,,,,,,,,,,,,,,,,,,,,,,,,,,,,,,,,,,,,,,,,,,,,,,,,,,,,,,,,,,,,,,,,,,,,,,,,,,,,,,,,,,,,,,,,,,,,,,,,,,,,,,,
,,"[""comma""]",0,[0.4854000000954102],79,0,79,0,1,615e8d0ac26e9a2f04f94a6f,31,Kobieta,2022-06-04_02h12.36.569,task,2021.1.4,Win32,59.89458553,628b806c463b948bc644b84f,629af6f3871db084a5397aa9,,,,,,,,,,,,,,,,,,,,,,,,,,,,,,,,,,,,,,,,,,,,,,,,,,,,,,,,,,,,,,,,,,,,,,,,,,,,,,,,,,,,,,,,,,,,,,,,,,,,,,,
,,"[""comma""]",0,[0.43509999990465076],80,0,80,0,1,615e8d0ac26e9a2f04f94a6f,31,Kobieta,2022-06-04_02h12.36.569,task,2021.1.4,Win32,59.89458553,628b806c463b948bc644b84f,629af6f3871db084a5397aa9,,,,,,,,,,,,,,,,,,,,,,,,,,,,,,,,,,,,,,,,,,,,,,,,,,,,,,,,,,,,,,,,,,,,,,,,,,,,,,,,,,,,,,,,,,,,,,,,,,,,,,,
,,"[""comma""]",0,[0.50129999995238],81,0,81,0,1,615e8d0ac26e9a2f04f94a6f,31,Kobieta,2022-06-04_02h12.36.569,task,2021.1.4,Win32,59.89458553,628b806c463b948bc644b84f,629af6f3871db084a5397aa9,,,,,,,,,,,,,,,,,,,,,,,,,,,,,,,,,,,,,,,,,,,,,,,,,,,,,,,,,,,,,,,,,,,,,,,,,,,,,,,,,,,,,,,,,,,,,,,,,,,,,,,
,,"[""comma""]",0,[0.44129999995232083],82,0,82,0,1,615e8d0ac26e9a2f04f94a6f,31,Kobieta,2022-06-04_02h12.36.569,task,2021.1.4,Win32,59.89458553,628b806c463b948bc644b84f,629af6f3871db084a5397aa9,,,,,,,,,,,,,,,,,,,,,,,,,,,,,,,,,,,,,,,,,,,,,,,,,,,,,,,,,,,,,,,,,,,,,,,,,,,,,,,,,,,,,,,,,,,,,,,,,,,,,,,
,,"[""comma""]",0,[0.52049999999997],83,0,83,0,1,615e8d0ac26e9a2f04f94a6f,31,Kobieta,2022-06-04_02h12.36.569,task,2021.1.4,Win32,59.89458553,628b806c463b948bc644b84f,629af6f3871db084a5397aa9,,,,,,,,,,,,,,,,,,,,,,,,,,,,,,,,,,,,,,,,,,,,,,,,,,,,,,,,,,,,,,,,,,,,,,,,,,,,,,,,,,,,,,,,,,,,,,,,,,,,,,,
,,"[""comma""]",0,[0.4172000000476146],84,0,84,0,1,615e8d0ac26e9a2f04f94a6f,31,Kobieta,2022-06-04_02h12.36.569,task,2021.1.4,Win32,59.89458553,628b806c463b948bc644b84f,629af6f3871db084a5397aa9,,,,,,,,,,,,,,,,,,,,,,,,,,,,,,,,,,,,,,,,,,,,,,,,,,,,,,,,,,,,,,,,,,,,,,,,,,,,,,,,,,,,,,,,,,,,,,,,,,,,,,,
,,"[""comma""]",0,[0.4517999999522999],85,0,85,0,1,615e8d0ac26e9a2f04f94a6f,31,Kobieta,2022-06-04_02h12.36.569,task,2021.1.4,Win32,59.89458553,628b806c463b948bc644b84f,629af6f3871db084a5397aa9,,,,,,,,,,,,,,,,,,,,,,,,,,,,,,,,,,,,,,,,,,,,,,,,,,,,,,,,,,,,,,,,,,,,,,,,,,,,,,,,,,,,,,,,,,,,,,,,,,,,,,,
,,"[""period""]",0,[0.3016000001430257],86,0,86,0,1,615e8d0ac26e9a2f04f94a6f,31,Kobieta,2022-06-04_02h12.36.569,task,2021.1.4,Win32,59.89458553,628b806c463b948bc644b84f,629af6f3871db084a5397aa9,,,,,,,,,,,,,,,,,,,,,,,,,,,,,,,,,,,,,,,,,,,,,,,,,,,,,,,,,,,,,,,,,,,,,,,,,,,,,,,,,,,,,,,,,,,,,,,,,,,,,,,
,,"[""comma""]",0,[0.3852000000476892],87,0,87,0,1,615e8d0ac26e9a2f04f94a6f,31,Kobieta,2022-06-04_02h12.36.569,task,2021.1.4,Win32,59.89458553,628b806c463b948bc644b84f,629af6f3871db084a5397aa9,,,,,,,,,,,,,,,,,,,,,,,,,,,,,,,,,,,,,,,,,,,,,,,,,,,,,,,,,,,,,,,,,,,,,,,,,,,,,,,,,,,,,,,,,,,,,,,,,,,,,,,
,,"[""period""]",0,[0.23450000000002547],88,0,88,0,1,615e8d0ac26e9a2f04f94a6f,31,Kobieta,2022-06-04_02h12.36.569,task,2021.1.4,Win32,59.89458553,628b806c463b948bc644b84f,629af6f3871db084a5397aa9,,,,,,,,,,,,,,,,,,,,,,,,,,,,,,,,,,,,,,,,,,,,,,,,,,,,,,,,,,,,,,,,,,,,,,,,,,,,,,,,,,,,,,,,,,,,,,,,,,,,,,,
,,"[""period""]",0,[0.34920000004774465],89,0,89,0,1,615e8d0ac26e9a2f04f94a6f,31,Kobieta,2022-06-04_02h12.36.569,task,2021.1.4,Win32,59.89458553,628b806c463b948bc644b84f,629af6f3871db084a5397aa9,,,,,,,,,,,,,,,,,,,,,,,,,,,,,,,,,,,,,,,,,,,,,,,,,,,,,,,,,,,,,,,,,,,,,,,,,,,,,,,,,,,,,,,,,,,,,,,,,,,,,,,
,,"[""period""]",0,[0.35199999999997544],90,0,90,0,1,615e8d0ac26e9a2f04f94a6f,31,Kobieta,2022-06-04_02h12.36.569,task,2021.1.4,Win32,59.89458553,628b806c463b948bc644b84f,629af6f3871db084a5397aa9,,,,,,,,,,,,,,,,,,,,,,,,,,,,,,,,,,,,,,,,,,,,,,,,,,,,,,,,,,,,,,,,,,,,,,,,,,,,,,,,,,,,,,,,,,,,,,,,,,,,,,,
,,"[""period""]",0,[0.40230000019073486],91,0,91,0,1,615e8d0ac26e9a2f04f94a6f,31,Kobieta,2022-06-04_02h12.36.569,task,2021.1.4,Win32,59.89458553,628b806c463b948bc644b84f,629af6f3871db084a5397aa9,,,,,,,,,,,,,,,,,,,,,,,,,,,,,,,,,,,,,,,,,,,,,,,,,,,,,,,,,,,,,,,,,,,,,,,,,,,,,,,,,,,,,,,,,,,,,,,,,,,,,,,
,,"[""period""]",0,[0.53449999999998],92,0,92,0,1,615e8d0ac26e9a2f04f94a6f,31,Kobieta,2022-06-04_02h12.36.569,task,2021.1.4,Win32,59.89458553,628b806c463b948bc644b84f,629af6f3871db084a5397aa9,,,,,,,,,,,,,,,,,,,,,,,,,,,,,,,,,,,,,,,,,,,,,,,,,,,,,,,,,,,,,,,,,,,,,,,,,,,,,,,,,,,,,,,,,,,,,,,,,,,,,,,
,,"[""period""]",0,[0.5520999999046126],93,0,93,0,1,615e8d0ac26e9a2f04f94a6f,31,Kobieta,2022-06-04_02h12.36.569,task,2021.1.4,Win32,59.89458553,628b806c463b948bc644b84f,629af6f3871db084a5397aa9,,,,,,,,,,,,,,,,,,,,,,,,,,,,,,,,,,,,,,,,,,,,,,,,,,,,,,,,,,,,,,,,,,,,,,,,,,,,,,,,,,,,,,,,,,,,,,,,,,,,,,,
,,"[""period""]",0,[0.38429999995230446],94,0,94,0,1,615e8d0ac26e9a2f04f94a6f,31,Kobieta,2022-06-04_02h12.36.569,task,2021.1.4,Win32,59.89458553,628b806c463b948bc644b84f,629af6f3871db084a5397aa9,,,,,,,,,,,,,,,,,,,,,,,,,,,,,,,,,,,,,,,,,,,,,,,,,,,,,,,,,,,,,,,,,,,,,,,,,,,,,,,,,,,,,,,,,,,,,,,,,,,,,,,
,,"[""comma""]",0,[0.36800000000005184],95,0,95,0,1,615e8d0ac26e9a2f04f94a6f,31,Kobieta,2022-06-04_02h12.36.569,task,2021.1.4,Win32,59.89458553,628b806c463b948bc644b84f,629af6f3871db084a5397aa9,,,,,,,,,,,,,,,,,,,,,,,,,,,,,,,,,,,,,,,,,,,,,,,,,,,,,,,,,,,,,,,,,,,,,,,,,,,,,,,,,,,,,,,,,,,,,,,,,,,,,,,
,,"[""comma""]",0,[0.3852000000476892],96,0,96,0,1,615e8d0ac26e9a2f04f94a6f,31,Kobieta,2022-06-04_02h12.36.569,task,2021.1.4,Win32,59.89458553,628b806c463b948bc644b84f,629af6f3871db084a5397aa9,,,,,,,,,,,,,,,,,,,,,,,,,,,,,,,,,,,,,,,,,,,,,,,,,,,,,,,,,,,,,,,,,,,,,,,,,,,,,,,,,,,,,,,,,,,,,,,,,,,,,,,
,,"[""period""]",0,[0.36849999999992633],97,0,97,0,1,615e8d0ac26e9a2f04f94a6f,31,Kobieta,2022-06-04_02h12.36.569,task,2021.1.4,Win32,59.89458553,628b806c463b948bc644b84f,629af6f3871db084a5397aa9,,,,,,,,,,,,,,,,,,,,,,,,,,,,,,,,,,,,,,,,,,,,,,,,,,,,,,,,,,,,,,,,,,,,,,,,,,,,,,,,,,,,,,,,,,,,,,,,,,,,,,,
,,"[""comma""]",0,[0.16939999985697796],98,0,98,0,1,615e8d0ac26e9a2f04f94a6f,31,Kobieta,2022-06-04_02h12.36.569,task,2021.1.4,Win32,59.89458553,628b806c463b948bc644b84f,629af6f3871db084a5397aa9,,,,,,,,,,,,,,,,,,,,,,,,,,,,,,,,,,,,,,,,,,,,,,,,,,,,,,,,,,,,,,,,,,,,,,,,,,,,,,,,,,,,,,,,,,,,,,,,,,,,,,,
,,"[""period""]",0,[0.31460000014305933],99,0,99,0,1,615e8d0ac26e9a2f04f94a6f,31,Kobieta,2022-06-04_02h12.36.569,task,2021.1.4,Win32,59.89458553,628b806c463b948bc644b84f,629af6f3871db084a5397aa9,,,,,,,,,,,,,,,,,,,,,,,,,,,,,,,,,,,,,,,,,,,,,,,,,,,,,,,,,,,,,,,,,,,,,,,,,,,,,,,,,,,,,,,,,,,,,,,,,,,,,,,
,,"[""comma""]",0,[0.4165999999046335],100,0,100,0,1,615e8d0ac26e9a2f04f94a6f,31,Kobieta,2022-06-04_02h12.36.569,task,2021.1.4,Win32,59.89458553,628b806c463b948bc644b84f,629af6f3871db084a5397aa9,,,,,,,,,,,,,,,,,,,,,,,,,,,,,,,,,,,,,,,,,,,,,,,,,,,,,,,,,,,,,,,,,,,,,,,,,,,,,,,,,,,,,,,,,,,,,,,,,,,,,,,
,,"[""period""]",0,[0.317900000095392],101,0,101,0,1,615e8d0ac26e9a2f04f94a6f,31,Kobieta,2022-06-04_02h12.36.569,task,2021.1.4,Win32,59.89458553,628b806c463b948bc644b84f,629af6f3871db084a5397aa9,,,,,,,,,,,,,,,,,,,,,,,,,,,,,,,,,,,,,,,,,,,,,,,,,,,,,,,,,,,,,,,,,,,,,,,,,,,,,,,,,,,,,,,,,,,,,,,,,,,,,,,
,,"[""comma""]",0,[0.3679000000953465],102,0,102,0,1,615e8d0ac26e9a2f04f94a6f,31,Kobieta,2022-06-04_02h12.36.569,task,2021.1.4,Win32,59.89458553,628b806c463b948bc644b84f,629af6f3871db084a5397aa9,,,,,,,,,,,,,,,,,,,,,,,,,,,,,,,,,,,,,,,,,,,,,,,,,,,,,,,,,,,,,,,,,,,,,,,,,,,,,,,,,,,,,,,,,,,,,,,,,,,,,,,
,,"[""comma""]",0,[0.40110000014306024],103,0,103,0,1,615e8d0ac26e9a2f04f94a6f,31,Kobieta,2022-06-04_02h12.36.569,task,2021.1.4,Win32,59.89458553,628b806c463b948bc644b84f,629af6f3871db084a5397aa9,,,,,,,,,,,,,,,,,,,,,,,,,,,,,,,,,,,,,,,,,,,,,,,,,,,,,,,,,,,,,,,,,,,,,,,,,,,,,,,,,,,,,,,,,,,,,,,,,,,,,,,
,,"[""period""]",0,[0.3682000000476364],104,0,104,0,1,615e8d0ac26e9a2f04f94a6f,31,Kobieta,2022-06-04_02h12.36.569,task,2021.1.4,Win32,59.89458553,628b806c463b948bc644b84f,629af6f3871db084a5397aa9,,,,,,,,,,,,,,,,,,,,,,,,,,,,,,,,,,,,,,,,,,,,,,,,,,,,,,,,,,,,,,,,,,,,,,,,,,,,,,,,,,,,,,,,,,,,,,,,,,,,,,,
,,"[""comma""]",0,[0.33239999985698887],105,0,105,0,1,615e8d0ac26e9a2f04f94a6f,31,Kobieta,2022-06-04_02h12.36.569,task,2021.1.4,Win32,59.89458553,628b806c463b948bc644b84f,629af6f3871db084a5397aa9,,,,,,,,,,,,,,,,,,,,,,,,,,,,,,,,,,,,,,,,,,,,,,,,,,,,,,,,,,,,,,,,,,,,,,,,,,,,,,,,,,,,,,,,,,,,,,,,,,,,,,,
,,"[""comma""]",0,[0.3690000000000282],106,0,106,0,1,615e8d0ac26e9a2f04f94a6f,31,Kobieta,2022-06-04_02h12.36.569,task,2021.1.4,Win32,59.89458553,628b806c463b948bc644b84f,629af6f3871db084a5397aa9,,,,,,,,,,,,,,,,,,,,,,,,,,,,,,,,,,,,,,,,,,,,,,,,,,,,,,,,,,,,,,,,,,,,,,,,,,,,,,,,,,,,,,,,,,,,,,,,,,,,,,,
,,"[""comma""]",0,[0.4007000000477774],107,0,107,0,1,615e8d0ac26e9a2f04f94a6f,31,Kobieta,2022-06-04_02h12.36.569,task,2021.1.4,Win32,59.89458553,628b806c463b948bc644b84f,629af6f3871db084a5397aa9,,,,,,,,,,,,,,,,,,,,,,,,,,,,,,,,,,,,,,,,,,,,,,,,,,,,,,,,,,,,,,,,,,,,,,,,,,,,,,,,,,,,,,,,,,,,,,,,,,,,,,,
,,"[""comma""]",0,[0.5367999999523363],108,0,108,0,1,615e8d0ac26e9a2f04f94a6f,31,Kobieta,2022-06-04_02h12.36.569,task,2021.1.4,Win32,59.89458553,628b806c463b948bc644b84f,629af6f3871db084a5397aa9,,,,,,,,,,,,,,,,,,,,,,,,,,,,,,,,,,,,,,,,,,,,,,,,,,,,,,,,,,,,,,,,,,,,,,,,,,,,,,,,,,,,,,,,,,,,,,,,,,,,,,,
,,"[""comma""]",0,[0.5015999999045562],109,0,109,0,1,615e8d0ac26e9a2f04f94a6f,31,Kobieta,2022-06-04_02h12.36.569,task,2021.1.4,Win32,59.89458553,628b806c463b948bc644b84f,629af6f3871db084a5397aa9,,,,,,,,,,,,,,,,,,,,,,,,,,,,,,,,,,,,,,,,,,,,,,,,,,,,,,,,,,,,,,,,,,,,,,,,,,,,,,,,,,,,,,,,,,,,,,,,,,,,,,,
,,"[""period""]",0,[0.302800000190814],110,0,110,0,1,615e8d0ac26e9a2f04f94a6f,31,Kobieta,2022-06-04_02h12.36.569,task,2021.1.4,Win32,59.89458553,628b806c463b948bc644b84f,629af6f3871db084a5397aa9,,,,,,,,,,,,,,,,,,,,,,,,,,,,,,,,,,,,,,,,,,,,,,,,,,,,,,,,,,,,,,,,,,,,,,,,,,,,,,,,,,,,,,,,,,,,,,,,,,,,,,,
,,"[""comma""]",0,[0.3015999999046244],111,0,111,0,1,615e8d0ac26e9a2f04f94a6f,31,Kobieta,2022-06-04_02h12.36.569,task,2021.1.4,Win32,59.89458553,628b806c463b948bc644b84f,629af6f3871db084a5397aa9,,,,,,,,,,,,,,,,,,,,,,,,,,,,,,,,,,,,,,,,,,,,,,,,,,,,,,,,,,,,,,,,,,,,,,,,,,,,,,,,,,,,,,,,,,,,,,,,,,,,,,,
,,"[""comma""]",0,[0.336200000047711],112,0,112,0,1,615e8d0ac26e9a2f04f94a6f,31,Kobieta,2022-06-04_02h12.36.569,task,2021.1.4,Win32,59.89458553,628b806c463b948bc644b84f,629af6f3871db084a5397aa9,,,,,,,,,,,,,,,,,,,,,,,,,,,,,,,,,,,,,,,,,,,,,,,,,,,,,,,,,,,,,,,,,,,,,,,,,,,,,,,,,,,,,,,,,,,,,,,,,,,,,,,
,,"[""comma""]",0,[0.45150000000001],113,0,113,0,1,615e8d0ac26e9a2f04f94a6f,31,Kobieta,2022-06-04_02h12.36.569,task,2021.1.4,Win32,59.89458553,628b806c463b948bc644b84f,629af6f3871db084a5397aa9,,,,,,,,,,,,,,,,,,,,,,,,,,,,,,,,,,,,,,,,,,,,,,,,,,,,,,,,,,,,,,,,,,,,,,,,,,,,,,,,,,,,,,,,,,,,,,,,,,,,,,,
,,"[""comma""]",0,[0.4350000000000591],114,0,114,0,1,615e8d0ac26e9a2f04f94a6f,31,Kobieta,2022-06-04_02h12.36.569,task,2021.1.4,Win32,59.89458553,628b806c463b948bc644b84f,629af6f3871db084a5397aa9,,,,,,,,,,,,,,,,,,,,,,,,,,,,,,,,,,,,,,,,,,,,,,,,,,,,,,,,,,,,,,,,,,,,,,,,,,,,,,,,,,,,,,,,,,,,,,,,,,,,,,,
,,"[""period""]",0,[0.4024000000954402],115,0,115,0,1,615e8d0ac26e9a2f04f94a6f,31,Kobieta,2022-06-04_02h12.36.569,task,2021.1.4,Win32,59.89458553,628b806c463b948bc644b84f,629af6f3871db084a5397aa9,,,,,,,,,,,,,,,,,,,,,,,,,,,,,,,,,,,,,,,,,,,,,,,,,,,,,,,,,,,,,,,,,,,,,,,,,,,,,,,,,,,,,,,,,,,,,,,,,,,,,,,
,,"[""period""]",0,[0.44140000009531377],116,0,116,0,1,615e8d0ac26e9a2f04f94a6f,31,Kobieta,2022-06-04_02h12.36.569,task,2021.1.4,Win32,59.89458553,628b806c463b948bc644b84f,629af6f3871db084a5397aa9,,,,,,,,,,,,,,,,,,,,,,,,,,,,,,,,,,,,,,,,,,,,,,,,,,,,,,,,,,,,,,,,,,,,,,,,,,,,,,,,,,,,,,,,,,,,,,,,,,,,,,,
,,"[""period""]",0,[0.36910000014302113],117,0,117,0,1,615e8d0ac26e9a2f04f94a6f,31,Kobieta,2022-06-04_02h12.36.569,task,2021.1.4,Win32,59.89458553,628b806c463b948bc644b84f,629af6f3871db084a5397aa9,,,,,,,,,,,,,,,,,,,,,,,,,,,,,,,,,,,,,,,,,,,,,,,,,,,,,,,,,,,,,,,,,,,,,,,,,,,,,,,,,,,,,,,,,,,,,,,,,,,,,,,
,,"[""comma""]",0,[0.435299999952349],118,0,118,0,1,615e8d0ac26e9a2f04f94a6f,31,Kobieta,2022-06-04_02h12.36.569,task,2021.1.4,Win32,59.89458553,628b806c463b948bc644b84f,629af6f3871db084a5397aa9,,,,,,,,,,,,,,,,,,,,,,,,,,,,,,,,,,,,,,,,,,,,,,,,,,,,,,,,,,,,,,,,,,,,,,,,,,,,,,,,,,,,,,,,,,,,,,,,,,,,,,,
,,"[""comma""]",0,[0.4357000000476319],119,0,119,0,1,615e8d0ac26e9a2f04f94a6f,31,Kobieta,2022-06-04_02h12.36.569,task,2021.1.4,Win32,59.89458553,628b806c463b948bc644b84f,629af6f3871db084a5397aa9,,,,,,,,,,,,,,,,,,,,,,,,,,,,,,,,,,,,,,,,,,,,,,,,,,,,,,,,,,,,,,,,,,,,,,,,,,,,,,,,,,,,,,,,,,,,,,,,,,,,,,,
,,,,,,,,,,615e8d0ac26e9a2f04f94a6f,31,Kobieta,2022-06-04_02h12.36.569,task,2021.1.4,Win32,59.89458553,628b806c463b948bc644b84f,629af6f3871db084a5397aa9,space,87.1251,space,31.5719,0,0,0,0,1,X V Q F H G B L J M P D K C T S W R N Z,,,,,,,,,,,,,,,,,,,,,,,,,,,,,,,,,,,,,,,,,,,,,,,,,,,,,,,,,,,,,,,,,,,,,,,,,,,,,,,,,,,,,,,,,,,,,
,,,,,,,,,,615e8d0ac26e9a2f04f94a6f,31,Kobieta,2022-06-04_02h12.36.569,task,2021.1.4,Win32,59.89458553,628b806c463b948bc644b84f,629af6f3871db084a5397aa9,,,,,1,0,1,0,1,X V Q F H G B L J M P D K C T S W R N Z,,,,,,,,,,,,,,,,,,,,,,,,,,,,,,,,,,,,,,,,,,,,,,,,,,,,,,,,,,,,,,,,,,,,,,,,,,,,,,,,,,,,,,,,,,,,,
,,,,,,,,,,615e8d0ac26e9a2f04f94a6f,31,Kobieta,2022-06-04_02h12.36.569,task,2021.1.4,Win32,59.89458553,628b806c463b948bc644b84f,629af6f3871db084a5397aa9,,,,,,,,,,,zn,"[""z"",""n""]","[1.9209000000953438,2.3374000000953856,3.6197000000477146]",1,ZN,0,0,0,0,1,,,,,,,,,,,,,,,,,,,,,,,,,,,,,,,,,,,,,,,,,,,,,,,,,,,,,,,,,,,,,,,,,,,,,,,,,,,,,,,,,,,
,,,,,,,,,,615e8d0ac26e9a2f04f94a6f,31,Kobieta,2022-06-04_02h12.36.569,task,2021.1.4,Win32,59.89458553,628b806c463b948bc644b84f,629af6f3871db084a5397aa9,,,,,0,0,0,0,1,X V Q F H G B L J M P D K C T S W R N Z,,,,,,,,,,,,,,,,,,,,,,,,,,,,,,,,,,,,,,,,,,,,,,,,,,,,,,,,,,,,,,,,,,,,,,,,,,,,,,,,,,,,,,,,,,,,,
,,,,,,,,,,615e8d0ac26e9a2f04f94a6f,31,Kobieta,2022-06-04_02h12.36.569,task,2021.1.4,Win32,59.89458553,628b806c463b948bc644b84f,629af6f3871db084a5397aa9,,,,,1,0,1,0,1,X V Q F H G B L J M P D K C T S W R N Z,,,,,,,,,,,,,,,,,,,,,,,,,,,,,,,,,,,,,,,,,,,,,,,,,,,,,,,,,,,,,,,,,,,,,,,,,,,,,,,,,,,,,,,,,,,,,
,,,,,,,,,,615e8d0ac26e9a2f04f94a6f,31,Kobieta,2022-06-04_02h12.36.569,task,2021.1.4,Win32,59.89458553,628b806c463b948bc644b84f,629af6f3871db084a5397aa9,,,,,,,,,,,sj,"[""s"",""j""]","[1.7534999999999172,2.120999999999981,3.6345999999045944]",1,SJ,1,0,1,0,1,,,,,,,,,,,,,,,,,,,,,,,,,,,,,,,,,,,,,,,,,,,,,,,,,,,,,,,,,,,,,,,,,,,,,,,,,,,,,,,,,,,
,,,,,,,,,,615e8d0ac26e9a2f04f94a6f,31,Kobieta,2022-06-04_02h12.36.569,task,2021.1.4,Win32,59.89458553,628b806c463b948bc644b84f,629af6f3871db084a5397aa9,,,,,0,0,0,0,1,X V Q F H G B L J M P D K C T S W R N Z,,,,,,,,,,,,,,,,,,,,,,,,,,,,,,,,,,,,,,,,,,,,,,,,,,,,,,,,,,,,,,,,,,,,,,,,,,,,,,,,,,,,,,,,,,,,,
,,,,,,,,,,615e8d0ac26e9a2f04f94a6f,31,Kobieta,2022-06-04_02h12.36.569,task,2021.1.4,Win32,59.89458553,628b806c463b948bc644b84f,629af6f3871db084a5397aa9,,,,,1,0,1,0,1,X V Q F H G B L J M P D K C T S W R N Z,,,,,,,,,,,,,,,,,,,,,,,,,,,,,,,,,,,,,,,,,,,,,,,,,,,,,,,,,,,,,,,,,,,,,,,,,,,,,,,,,,,,,,,,,,,,,
,,,,,,,,,,615e8d0ac26e9a2f04f94a6f,31,Kobieta,2022-06-04_02h12.36.569,task,2021.1.4,Win32,59.89458553,628b806c463b948bc644b84f,629af6f3871db084a5397aa9,,,,,2,0,2,0,1,X V Q F H G B L J M P D K C T S W R N Z,,,,,,,,,,,,,,,,,,,,,,,,,,,,,,,,,,,,,,,,,,,,,,,,,,,,,,,,,,,,,,,,,,,,,,,,,,,,,,,,,,,,,,,,,,,,,
,,,,,,,,,,615e8d0ac26e9a2f04f94a6f,31,Kobieta,2022-06-04_02h12.36.569,task,2021.1.4,Win32,59.89458553,628b806c463b948bc644b84f,629af6f3871db084a5397aa9,,,,,,,,,,,cnh,"[""c"",""n"",""h""]","[1.3351000001430293,1.9686000001430557,2.2348000001907167,2.86720000004766]",1,CNH,2,0,2,0,1,,,,,,,,,,,,,,,,,,,,,,,,,,,,,,,,,,,,,,,,,,,,,,,,,,,,,,,,,,,,,,,,,,,,,,,,,,,,,,,,,,,
,,,,,,,,,,615e8d0ac26e9a2f04f94a6f,31,Kobieta,2022-06-04_02h12.36.569,task,2021.1.4,Win32,59.89458553,628b806c463b948bc644b84f,629af6f3871db084a5397aa9,,,,,0,0,0,0,1,X V Q F H G B L J M P D K C T S W R N Z,,,,,,,,,,,,,,,,,,,,,,,,,,,,,,,,,,,,,,,,,,,,,,,,,,,,,,,,,,,,,,,,,,,,,,,,,,,,,,,,,,,,,,,,,,,,,
,,,,,,,,,,615e8d0ac26e9a2f04f94a6f,31,Kobieta,2022-06-04_02h12.36.569,task,2021.1.4,Win32,59.89458553,628b806c463b948bc644b84f,629af6f3871db084a5397aa9,,,,,1,0,1,0,1,X V Q F H G B L J M P D K C T S W R N Z,,,,,,,,,,,,,,,,,,,,,,,,,,,,,,,,,,,,,,,,,,,,,,,,,,,,,,,,,,,,,,,,,,,,,,,,,,,,,,,,,,,,,,,,,,,,,
,,,,,,,,,,615e8d0ac26e9a2f04f94a6f,31,Kobieta,2022-06-04_02h12.36.569,task,2021.1.4,Win32,59.89458553,628b806c463b948bc644b84f,629af6f3871db084a5397aa9,,,,,2,0,2,0,1,X V Q F H G B L J M P D K C T S W R N Z,,,,,,,,,,,,,,,,,,,,,,,,,,,,,,,,,,,,,,,,,,,,,,,,,,,,,,,,,,,,,,,,,,,,,,,,,,,,,,,,,,,,,,,,,,,,,
,,,,,,,,,,615e8d0ac26e9a2f04f94a6f,31,Kobieta,2022-06-04_02h12.36.569,task,2021.1.4,Win32,59.89458553,628b806c463b948bc644b84f,629af6f3871db084a5397aa9,,,,,,,,,,,zkm,"[""z"",""k"",""m""]","[1.1713999998569307,1.6030999999045434,1.985699999809185,4.404599999904576]",1,ZKM,3,0,3,0,1,,,,,,,,,,,,,,,,,,,,,,,,,,,,,,,,,,,,,,,,,,,,,,,,,,,,,,,,,,,,,,,,,,,,,,,,,,,,,,,,,,,
,,,,,,,,,,615e8d0ac26e9a2f04f94a6f,31,Kobieta,2022-06-04_02h12.36.569,task,2021.1.4,Win32,59.89458553,628b806c463b948bc644b84f,629af6f3871db084a5397aa9,,,,,0,0,0,0,1,X V Q F H G B L J M P D K C T S W R N Z,,,,,,,,,,,,,,,,,,,,,,,,,,,,,,,,,,,,,,,,,,,,,,,,,,,,,,,,,,,,,,,,,,,,,,,,,,,,,,,,,,,,,,,,,,,,,
,,,,,,,,,,615e8d0ac26e9a2f04f94a6f,31,Kobieta,2022-06-04_02h12.36.569,task,2021.1.4,Win32,59.89458553,628b806c463b948bc644b84f,629af6f3871db084a5397aa9,,,,,1,0,1,0,1,X V Q F H G B L J M P D K C T S W R N Z,,,,,,,,,,,,,,,,,,,,,,,,,,,,,,,,,,,,,,,,,,,,,,,,,,,,,,,,,,,,,,,,,,,,,,,,,,,,,,,,,,,,,,,,,,,,,
,,,,,,,,,,615e8d0ac26e9a2f04f94a6f,31,Kobieta,2022-06-04_02h12.36.569,task,2021.1.4,Win32,59.89458553,628b806c463b948bc644b84f,629af6f3871db084a5397aa9,,,,,2,0,2,0,1,X V Q F H G B L J M P D K C T S W R N Z,,,,,,,,,,,,,,,,,,,,,,,,,,,,,,,,,,,,,,,,,,,,,,,,,,,,,,,,,,,,,,,,,,,,,,,,,,,,,,,,,,,,,,,,,,,,,
,,,,,,,,,,615e8d0ac26e9a2f04f94a6f,31,Kobieta,2022-06-04_02h12.36.569,task,2021.1.4,Win32,59.89458553,628b806c463b948bc644b84f,629af6f3871db084a5397aa9,,,,,3,0,3,0,1,X V Q F H G B L J M P D K C T S W R N Z,,,,,,,,,,,,,,,,,,,,,,,,,,,,,,,,,,,,,,,,,,,,,,,,,,,,,,,,,,,,,,,,,,,,,,,,,,,,,,,,,,,,,,,,,,,,,
,,,,,,,,,,615e8d0ac26e9a2f04f94a6f,31,Kobieta,2022-06-04_02h12.36.569,task,2021.1.4,Win32,59.89458553,628b806c463b948bc644b84f,629af6f3871db084a5397aa9,,,,,,,,,,,sxvw,"[""s"",""x"",""v"",""w""]","[1.0521000001430139,1.3354000000953192,2.3399000000953265,2.8374999999999773,3.453700000047661]",1,SXVW,4,0,4,0,1,,,,,,,,,,,,,,,,,,,,,,,,,,,,,,,,,,,,,,,,,,,,,,,,,,,,,,,,,,,,,,,,,,,,,,,,,,,,,,,,,,,
,,,,,,,,,,615e8d0ac26e9a2f04f94a6f,31,Kobieta,2022-06-04_02h12.36.569,task,2021.1.4,Win32,59.89458553,628b806c463b948bc644b84f,629af6f3871db084a5397aa9,,,,,0,0,0,0,1,X V Q F H G B L J M P D K C T S W R N Z,,,,,,,,,,,,,,,,,,,,,,,,,,,,,,,,,,,,,,,,,,,,,,,,,,,,,,,,,,,,,,,,,,,,,,,,,,,,,,,,,,,,,,,,,,,,,
,,,,,,,,,,615e8d0ac26e9a2f04f94a6f,31,Kobieta,2022-06-04_02h12.36.569,task,2021.1.4,Win32,59.89458553,628b806c463b948bc644b84f,629af6f3871db084a5397aa9,,,,,1,0,1,0,1,X V Q F H G B L J M P D K C T S W R N Z,,,,,,,,,,,,,,,,,,,,,,,,,,,,,,,,,,,,,,,,,,,,,,,,,,,,,,,,,,,,,,,,,,,,,,,,,,,,,,,,,,,,,,,,,,,,,
,,,,,,,,,,615e8d0ac26e9a2f04f94a6f,31,Kobieta,2022-06-04_02h12.36.569,task,2021.1.4,Win32,59.89458553,628b806c463b948bc644b84f,629af6f3871db084a5397aa9,,,,,2,0,2,0,1,X V Q F H G B L J M P D K C T S W R N Z,,,,,,,,,,,,,,,,,,,,,,,,,,,,,,,,,,,,,,,,,,,,,,,,,,,,,,,,,,,,,,,,,,,,,,,,,,,,,,,,,,,,,,,,,,,,,
,,,,,,,,,,615e8d0ac26e9a2f04f94a6f,31,Kobieta,2022-06-04_02h12.36.569,task,2021.1.4,Win32,59.89458553,628b806c463b948bc644b84f,629af6f3871db084a5397aa9,,,,,3,0,3,0,1,X V Q F H G B L J M P D K C T S W R N Z,,,,,,,,,,,,,,,,,,,,,,,,,,,,,,,,,,,,,,,,,,,,,,,,,,,,,,,,,,,,,,,,,,,,,,,,,,,,,,,,,,,,,,,,,,,,,
,,,,,,,,,,615e8d0ac26e9a2f04f94a6f,31,Kobieta,2022-06-04_02h12.36.569,task,2021.1.4,Win32,59.89458553,628b806c463b948bc644b84f,629af6f3871db084a5397aa9,,,,,,,,,,,hjbq,"[""h"",""j"",""b"",""q""]","[1.3846999998092997,2.038000000000011,2.619199999809325,3.604399999857037,4.7193999998569325]",1,HJBQ,5,0,5,0,1,,,,,,,,,,,,,,,,,,,,,,,,,,,,,,,,,,,,,,,,,,,,,,,,,,,,,,,,,,,,,,,,,,,,,,,,,,,,,,,,,,,
,,,,,,,,,,615e8d0ac26e9a2f04f94a6f,31,Kobieta,2022-06-04_02h12.36.569,task,2021.1.4,Win32,59.89458553,628b806c463b948bc644b84f,629af6f3871db084a5397aa9,,,,,0,0,0,0,1,X V Q F H G B L J M P D K C T S W R N Z,,,,,,,,,,,,,,,,,,,,,,,,,,,,,,,,,,,,,,,,,,,,,,,,,,,,,,,,,,,,,,,,,,,,,,,,,,,,,,,,,,,,,,,,,,,,,
,,,,,,,,,,615e8d0ac26e9a2f04f94a6f,31,Kobieta,2022-06-04_02h12.36.569,task,2021.1.4,Win32,59.89458553,628b806c463b948bc644b84f,629af6f3871db084a5397aa9,,,,,1,0,1,0,1,X V Q F H G B L J M P D K C T S W R N Z,,,,,,,,,,,,,,,,,,,,,,,,,,,,,,,,,,,,,,,,,,,,,,,,,,,,,,,,,,,,,,,,,,,,,,,,,,,,,,,,,,,,,,,,,,,,,
,,,,,,,,,,615e8d0ac26e9a2f04f94a6f,31,Kobieta,2022-06-04_02h12.36.569,task,2021.1.4,Win32,59.89458553,628b806c463b948bc644b84f,629af6f3871db084a5397aa9,,,,,2,0,2,0,1,X V Q F H G B L J M P D K C T S W R N Z,,,,,,,,,,,,,,,,,,,,,,,,,,,,,,,,,,,,,,,,,,,,,,,,,,,,,,,,,,,,,,,,,,,,,,,,,,,,,,,,,,,,,,,,,,,,,
,,,,,,,,,,615e8d0ac26e9a2f04f94a6f,31,Kobieta,2022-06-04_02h12.36.569,task,2021.1.4,Win32,59.89458553,628b806c463b948bc644b84f,629af6f3871db084a5397aa9,,,,,3,0,3,0,1,X V Q F H G B L J M P D K C T S W R N Z,,,,,,,,,,,,,,,,,,,,,,,,,,,,,,,,,,,,,,,,,,,,,,,,,,,,,,,,,,,,,,,,,,,,,,,,,,,,,,,,,,,,,,,,,,,,,
,,,,,,,,,,615e8d0ac26e9a2f04f94a6f,31,Kobieta,2022-06-04_02h12.36.569,task,2021.1.4,Win32,59.89458553,628b806c463b948bc644b84f,629af6f3871db084a5397aa9,,,,,4,0,4,0,1,X V Q F H G B L J M P D K C T S W R N Z,,,,,,,,,,,,,,,,,,,,,,,,,,,,,,,,,,,,,,,,,,,,,,,,,,,,,,,,,,,,,,,,,,,,,,,,,,,,,,,,,,,,,,,,,,,,,
,,,,,,,,,,615e8d0ac26e9a2f04f94a6f,31,Kobieta,2022-06-04_02h12.36.569,task,2021.1.4,Win32,59.89458553,628b806c463b948bc644b84f,629af6f3871db084a5397aa9,,,,,,,,,,,mmfsw,"[""m"",""m"",""f"",""s"",""w""]","[0.9686000001430557,1.150100000143084,1.7249000000953174,2.053100000143104,2.337600000143084,3.2717000000476446]",1,MMFSW,6,0,6,0,1,,,,,,,,,,,,,,,,,,,,,,,,,,,,,,,,,,,,,,,,,,,,,,,,,,,,,,,,,,,,,,,,,,,,,,,,,,,,,,,,,,,
,,,,,,,,,,615e8d0ac26e9a2f04f94a6f,31,Kobieta,2022-06-04_02h12.36.569,task,2021.1.4,Win32,59.89458553,628b806c463b948bc644b84f,629af6f3871db084a5397aa9,,,,,0,0,0,0,1,X V Q F H G B L J M P D K C T S W R N Z,,,,,,,,,,,,,,,,,,,,,,,,,,,,,,,,,,,,,,,,,,,,,,,,,,,,,,,,,,,,,,,,,,,,,,,,,,,,,,,,,,,,,,,,,,,,,
,,,,,,,,,,615e8d0ac26e9a2f04f94a6f,31,Kobieta,2022-06-04_02h12.36.569,task,2021.1.4,Win32,59.89458553,628b806c463b948bc644b84f,629af6f3871db084a5397aa9,,,,,1,0,1,0,1,X V Q F H G B L J M P D K C T S W R N Z,,,,,,,,,,,,,,,,,,,,,,,,,,,,,,,,,,,,,,,,,,,,,,,,,,,,,,,,,,,,,,,,,,,,,,,,,,,,,,,,,,,,,,,,,,,,,
,,,,,,,,,,615e8d0ac26e9a2f04f94a6f,31,Kobieta,2022-06-04_02h12.36.569,task,2021.1.4,Win32,59.89458553,628b806c463b948bc644b84f,629af6f3871db084a5397aa9,,,,,2,0,2,0,1,X V Q F H G B L J M P D K C T S W R N Z,,,,,,,,,,,,,,,,,,,,,,,,,,,,,,,,,,,,,,,,,,,,,,,,,,,,,,,,,,,,,,,,,,,,,,,,,,,,,,,,,,,,,,,,,,,,,
,,,,,,,,,,615e8d0ac26e9a2f04f94a6f,31,Kobieta,2022-06-04_02h12.36.569,task,2021.1.4,Win32,59.89458553,628b806c463b948bc644b84f,629af6f3871db084a5397aa9,,,,,3,0,3,0,1,X V Q F H G B L J M P D K C T S W R N Z,,,,,,,,,,,,,,,,,,,,,,,,,,,,,,,,,,,,,,,,,,,,,,,,,,,,,,,,,,,,,,,,,,,,,,,,,,,,,,,,,,,,,,,,,,,,,
,,,,,,,,,,615e8d0ac26e9a2f04f94a6f,31,Kobieta,2022-06-04_02h12.36.569,task,2021.1.4,Win32,59.89458553,628b806c463b948bc644b84f,629af6f3871db084a5397aa9,,,,,4,0,4,0,1,X V Q F H G B L J M P D K C T S W R N Z,,,,,,,,,,,,,,,,,,,,,,,,,,,,,,,,,,,,,,,,,,,,,,,,,,,,,,,,,,,,,,,,,,,,,,,,,,,,,,,,,,,,,,,,,,,,,
,,,,,,,,,,615e8d0ac26e9a2f04f94a6f,31,Kobieta,2022-06-04_02h12.36.569,task,2021.1.4,Win32,59.89458553,628b806c463b948bc644b84f,629af6f3871db084a5397aa9,,,,,,,,,,,tqgsf,"[""t"",""q"",""g"",""s"",""f""]","[1.8644000000954293,2.6012000000476974,3.399800000190794,3.781700000047749,4.135300000190796,7.183800000190786]",0,TQGCF,7,0,7,0,1,,,,,,,,,,,,,,,,,,,,,,,,,,,,,,,,,,,,,,,,,,,,,,,,,,,,,,,,,,,,,,,,,,,,,,,,,,,,,,,,,,,
,,,,,,,,,,615e8d0ac26e9a2f04f94a6f,31,Kobieta,2022-06-04_02h12.36.569,task,2021.1.4,Win32,59.89458553,628b806c463b948bc644b84f,629af6f3871db084a5397aa9,,,,,0,0,0,0,1,X V Q F H G B L J M P D K C T S W R N Z,,,,,,,,,,,,,,,,,,,,,,,,,,,,,,,,,,,,,,,,,,,,,,,,,,,,,,,,,,,,,,,,,,,,,,,,,,,,,,,,,,,,,,,,,,,,,
,,,,,,,,,,615e8d0ac26e9a2f04f94a6f,31,Kobieta,2022-06-04_02h12.36.569,task,2021.1.4,Win32,59.89458553,628b806c463b948bc644b84f,629af6f3871db084a5397aa9,,,,,1,0,1,0,1,X V Q F H G B L J M P D K C T S W R N Z,,,,,,,,,,,,,,,,,,,,,,,,,,,,,,,,,,,,,,,,,,,,,,,,,,,,,,,,,,,,,,,,,,,,,,,,,,,,,,,,,,,,,,,,,,,,,
,,,,,,,,,,615e8d0ac26e9a2f04f94a6f,31,Kobieta,2022-06-04_02h12.36.569,task,2021.1.4,Win32,59.89458553,628b806c463b948bc644b84f,629af6f3871db084a5397aa9,,,,,2,0,2,0,1,X V Q F H G B L J M P D K C T S W R N Z,,,,,,,,,,,,,,,,,,,,,,,,,,,,,,,,,,,,,,,,,,,,,,,,,,,,,,,,,,,,,,,,,,,,,,,,,,,,,,,,,,,,,,,,,,,,,
,,,,,,,,,,615e8d0ac26e9a2f04f94a6f,31,Kobieta,2022-06-04_02h12.36.569,task,2021.1.4,Win32,59.89458553,628b806c463b948bc644b84f,629af6f3871db084a5397aa9,,,,,3,0,3,0,1,X V Q F H G B L J M P D K C T S W R N Z,,,,,,,,,,,,,,,,,,,,,,,,,,,,,,,,,,,,,,,,,,,,,,,,,,,,,,,,,,,,,,,,,,,,,,,,,,,,,,,,,,,,,,,,,,,,,
,,,,,,,,,,615e8d0ac26e9a2f04f94a6f,31,Kobieta,2022-06-04_02h12.36.569,task,2021.1.4,Win32,59.89458553,628b806c463b948bc644b84f,629af6f3871db084a5397aa9,,,,,4,0,4,0,1,X V Q F H G B L J M P D K C T S W R N Z,,,,,,,,,,,,,,,,,,,,,,,,,,,,,,,,,,,,,,,,,,,,,,,,,,,,,,,,,,,,,,,,,,,,,,,,,,,,,,,,,,,,,,,,,,,,,
,,,,,,,,,,615e8d0ac26e9a2f04f94a6f,31,Kobieta,2022-06-04_02h12.36.569,task,2021.1.4,Win32,59.89458553,628b806c463b948bc644b84f,629af6f3871db084a5397aa9,,,,,,,,,,,kwphs,"[""k"",""w"",""p"",""h"",""s""]","[1.3857000000476773,2.0563000001907312,2.653600000143001,3.306600000143021,3.689700000047651,4.686400000095318]",1,KWPHS,8,0,8,0,1,,,,,,,,,,,,,,,,,,,,,,,,,,,,,,,,,,,,,,,,,,,,,,,,,,,,,,,,,,,,,,,,,,,,,,,,,,,,,,,,,,,
,,,,,,,,,,615e8d0ac26e9a2f04f94a6f,31,Kobieta,2022-06-04_02h12.36.569,task,2021.1.4,Win32,59.89458553,628b806c463b948bc644b84f,629af6f3871db084a5397aa9,,,,,0,0,0,0,1,X V Q F H G B L J M P D K C T S W R N Z,,,,,,,,,,,,,,,,,,,,,,,,,,,,,,,,,,,,,,,,,,,,,,,,,,,,,,,,,,,,,,,,,,,,,,,,,,,,,,,,,,,,,,,,,,,,,
,,,,,,,,,,615e8d0ac26e9a2f04f94a6f,31,Kobieta,2022-06-04_02h12.36.569,task,2021.1.4,Win32,59.89458553,628b806c463b948bc644b84f,629af6f3871db084a5397aa9,,,,,1,0,1,0,1,X V Q F H G B L J M P D K C T S W R N Z,,,,,,,,,,,,,,,,,,,,,,,,,,,,,,,,,,,,,,,,,,,,,,,,,,,,,,,,,,,,,,,,,,,,,,,,,,,,,,,,,,,,,,,,,,,,,
,,,,,,,,,,615e8d0ac26e9a2f04f94a6f,31,Kobieta,2022-06-04_02h12.36.569,task,2021.1.4,Win32,59.89458553,628b806c463b948bc644b84f,629af6f3871db084a5397aa9,,,,,2,0,2,0,1,X V Q F H G B L J M P D K C T S W R N Z,,,,,,,,,,,,,,,,,,,,,,,,,,,,,,,,,,,,,,,,,,,,,,,,,,,,,,,,,,,,,,,,,,,,,,,,,,,,,,,,,,,,,,,,,,,,,
,,,,,,,,,,615e8d0ac26e9a2f04f94a6f,31,Kobieta,2022-06-04_02h12.36.569,task,2021.1.4,Win32,59.89458553,628b806c463b948bc644b84f,629af6f3871db084a5397aa9,,,,,3,0,3,0,1,X V Q F H G B L J M P D K C T S W R N Z,,,,,,,,,,,,,,,,,,,,,,,,,,,,,,,,,,,,,,,,,,,,,,,,,,,,,,,,,,,,,,,,,,,,,,,,,,,,,,,,,,,,,,,,,,,,,
,,,,,,,,,,615e8d0ac26e9a2f04f94a6f,31,Kobieta,2022-06-04_02h12.36.569,task,2021.1.4,Win32,59.89458553,628b806c463b948bc644b84f,629af6f3871db084a5397aa9,,,,,4,0,4,0,1,X V Q F H G B L J M P D K C T S W R N Z,,,,,,,,,,,,,,,,,,,,,,,,,,,,,,,,,,,,,,,,,,,,,,,,,,,,,,,,,,,,,,,,,,,,,,,,,,,,,,,,,,,,,,,,,,,,,
,,,,,,,,,,615e8d0ac26e9a2f04f94a6f,31,Kobieta,2022-06-04_02h12.36.569,task,2021.1.4,Win32,59.89458553,628b806c463b948bc644b84f,629af6f3871db084a5397aa9,,,,,5,0,5,0,1,X V Q F H G B L J M P D K C T S W R N Z,,,,,,,,,,,,,,,,,,,,,,,,,,,,,,,,,,,,,,,,,,,,,,,,,,,,,,,,,,,,,,,,,,,,,,,,,,,,,,,,,,,,,,,,,,,,,
,,,,,,,,,,615e8d0ac26e9a2f04f94a6f,31,Kobieta,2022-06-04_02h12.36.569,task,2021.1.4,Win32,59.89458553,628b806c463b948bc644b84f,629af6f3871db084a5397aa9,,,,,,,,,,,hwpz,"[""h"",""w"",""p"",""z""]","[2.153100000143013,3.3202000000476346,4.022900000095319,8.947999999999979,9.555800000190743]",0,HWPZTF,9,0,9,0,1,,,,,,,,,,,,,,,,,,,,,,,,,,,,,,,,,,,,,,,,,,,,,,,,,,,,,,,,,,,,,,,,,,,,,,,,,,,,,,,,,,,
,,,,,,,,,,615e8d0ac26e9a2f04f94a6f,31,Kobieta,2022-06-04_02h12.36.569,task,2021.1.4,Win32,59.89458553,628b806c463b948bc644b84f,629af6f3871db084a5397aa9,,,,,0,0,0,0,1,X V Q F H G B L J M P D K C T S W R N Z,,,,,,,,,,,,,,,,,,,,,,,,,,,,,,,,,,,,,,,,,,,,,,,,,,,,,,,,,,,,,,,,,,,,,,,,,,,,,,,,,,,,,,,,,,,,,
,,,,,,,,,,615e8d0ac26e9a2f04f94a6f,31,Kobieta,2022-06-04_02h12.36.569,task,2021.1.4,Win32,59.89458553,628b806c463b948bc644b84f,629af6f3871db084a5397aa9,,,,,1,0,1,0,1,X V Q F H G B L J M P D K C T S W R N Z,,,,,,,,,,,,,,,,,,,,,,,,,,,,,,,,,,,,,,,,,,,,,,,,,,,,,,,,,,,,,,,,,,,,,,,,,,,,,,,,,,,,,,,,,,,,,
,,,,,,,,,,615e8d0ac26e9a2f04f94a6f,31,Kobieta,2022-06-04_02h12.36.569,task,2021.1.4,Win32,59.89458553,628b806c463b948bc644b84f,629af6f3871db084a5397aa9,,,,,2,0,2,0,1,X V Q F H G B L J M P D K C T S W R N Z,,,,,,,,,,,,,,,,,,,,,,,,,,,,,,,,,,,,,,,,,,,,,,,,,,,,,,,,,,,,,,,,,,,,,,,,,,,,,,,,,,,,,,,,,,,,,
,,,,,,,,,,615e8d0ac26e9a2f04f94a6f,31,Kobieta,2022-06-04_02h12.36.569,task,2021.1.4,Win32,59.89458553,628b806c463b948bc644b84f,629af6f3871db084a5397aa9,,,,,3,0,3,0,1,X V Q F H G B L J M P D K C T S W R N Z,,,,,,,,,,,,,,,,,,,,,,,,,,,,,,,,,,,,,,,,,,,,,,,,,,,,,,,,,,,,,,,,,,,,,,,,,,,,,,,,,,,,,,,,,,,,,
,,,,,,,,,,615e8d0ac26e9a2f04f94a6f,31,Kobieta,2022-06-04_02h12.36.569,task,2021.1.4,Win32,59.89458553,628b806c463b948bc644b84f,629af6f3871db084a5397aa9,,,,,4,0,4,0,1,X V Q F H G B L J M P D K C T S W R N Z,,,,,,,,,,,,,,,,,,,,,,,,,,,,,,,,,,,,,,,,,,,,,,,,,,,,,,,,,,,,,,,,,,,,,,,,,,,,,,,,,,,,,,,,,,,,,
,,,,,,,,,,615e8d0ac26e9a2f04f94a6f,31,Kobieta,2022-06-04_02h12.36.569,task,2021.1.4,Win32,59.89458553,628b806c463b948bc644b84f,629af6f3871db084a5397aa9,,,,,5,0,5,0,1,X V Q F H G B L J M P D K C T S W R N Z,,,,,,,,,,,,,,,,,,,,,,,,,,,,,,,,,,,,,,,,,,,,,,,,,,,,,,,,,,,,,,,,,,,,,,,,,,,,,,,,,,,,,,,,,,,,,
,,,,,,,,,,615e8d0ac26e9a2f04f94a6f,31,Kobieta,2022-06-04_02h12.36.569,task,2021.1.4,Win32,59.89458553,628b806c463b948bc644b84f,629af6f3871db084a5397aa9,,,,,,,,,,,tbltbb,"[""t"",""b"",""l"",""t"",""b"",""b""]","[2.1527999999523217,3.0182000000477274,3.454700000047751,4.189100000143071,5.4907000000476955,6.29170000004774,7.538200000047709]",0,BPLTBB,10,0,10,0,1,,,,,,,,,,,,,,,,,,,,,,,,,,,,,,,,,,,,,,,,,,,,,,,,,,,,,,,,,,,,,,,,,,,,,,,,,,,,,,,,,,,
,,,,,,,,,,615e8d0ac26e9a2f04f94a6f,31,Kobieta,2022-06-04_02h12.36.569,task,2021.1.4,Win32,59.89458553,628b806c463b948bc644b84f,629af6f3871db084a5397aa9,,,,,0,0,0,0,1,X V Q F H G B L J M P D K C T S W R N Z,,,,,,,,,,,,,,,,,,,,,,,,,,,,,,,,,,,,,,,,,,,,,,,,,,,,,,,,,,,,,,,,,,,,,,,,,,,,,,,,,,,,,,,,,,,,,
,,,,,,,,,,615e8d0ac26e9a2f04f94a6f,31,Kobieta,2022-06-04_02h12.36.569,task,2021.1.4,Win32,59.89458553,628b806c463b948bc644b84f,629af6f3871db084a5397aa9,,,,,1,0,1,0,1,X V Q F H G B L J M P D K C T S W R N Z,,,,,,,,,,,,,,,,,,,,,,,,,,,,,,,,,,,,,,,,,,,,,,,,,,,,,,,,,,,,,,,,,,,,,,,,,,,,,,,,,,,,,,,,,,,,,
,,,,,,,,,,615e8d0ac26e9a2f04f94a6f,31,Kobieta,2022-06-04_02h12.36.569,task,2021.1.4,Win32,59.89458553,628b806c463b948bc644b84f,629af6f3871db084a5397aa9,,,,,2,0,2,0,1,X V Q F H G B L J M P D K C T S W R N Z,,,,,,,,,,,,,,,,,,,,,,,,,,,,,,,,,,,,,,,,,,,,,,,,,,,,,,,,,,,,,,,,,,,,,,,,,,,,,,,,,,,,,,,,,,,,,
,,,,,,,,,,615e8d0ac26e9a2f04f94a6f,31,Kobieta,2022-06-04_02h12.36.569,task,2021.1.4,Win32,59.89458553,628b806c463b948bc644b84f,629af6f3871db084a5397aa9,,,,,3,0,3,0,1,X V Q F H G B L J M P D K C T S W R N Z,,,,,,,,,,,,,,,,,,,,,,,,,,,,,,,,,,,,,,,,,,,,,,,,,,,,,,,,,,,,,,,,,,,,,,,,,,,,,,,,,,,,,,,,,,,,,
,,,,,,,,,,615e8d0ac26e9a2f04f94a6f,31,Kobieta,2022-06-04_02h12.36.569,task,2021.1.4,Win32,59.89458553,628b806c463b948bc644b84f,629af6f3871db084a5397aa9,,,,,4,0,4,0,1,X V Q F H G B L J M P D K C T S W R N Z,,,,,,,,,,,,,,,,,,,,,,,,,,,,,,,,,,,,,,,,,,,,,,,,,,,,,,,,,,,,,,,,,,,,,,,,,,,,,,,,,,,,,,,,,,,,,
,,,,,,,,,,615e8d0ac26e9a2f04f94a6f,31,Kobieta,2022-06-04_02h12.36.569,task,2021.1.4,Win32,59.89458553,628b806c463b948bc644b84f,629af6f3871db084a5397aa9,,,,,5,0,5,0,1,X V Q F H G B L J M P D K C T S W R N Z,,,,,,,,,,,,,,,,,,,,,,,,,,,,,,,,,,,,,,,,,,,,,,,,,,,,,,,,,,,,,,,,,,,,,,,,,,,,,,,,,,,,,,,,,,,,,
,,,,,,,,,,615e8d0ac26e9a2f04f94a6f,31,Kobieta,2022-06-04_02h12.36.569,task,2021.1.4,Win32,59.89458553,628b806c463b948bc644b84f,629af6f3871db084a5397aa9,,,,,,,,,,,ghlmpv,"[""g"",""h"",""l"",""m"",""p"",""v""]","[1.5375999999046144,1.9357999999523372,2.3712999999523845,2.8217999999523045,3.139499999999998,3.603700000047752,4.737200000047665]",1,GHLMPV,11,0,11,0,1,,,,,,,,,,,,,,,,,,,,,,,,,,,,,,,,,,,,,,,,,,,,,,,,,,,,,,,,,,,,,,,,,,,,,,,,,,,,,,,,,,,
,,,,,,,,,,615e8d0ac26e9a2f04f94a6f,31,Kobieta,2022-06-04_02h12.36.569,task,2021.1.4,Win32,59.89458553,628b806c463b948bc644b84f,629af6f3871db084a5397aa9,,,,,0,0,0,0,1,X V Q F H G B L J M P D K C T S W R N Z,,,,,,,,,,,,,,,,,,,,,,,,,,,,,,,,,,,,,,,,,,,,,,,,,,,,,,,,,,,,,,,,,,,,,,,,,,,,,,,,,,,,,,,,,,,,,
,,,,,,,,,,615e8d0ac26e9a2f04f94a6f,31,Kobieta,2022-06-04_02h12.36.569,task,2021.1.4,Win32,59.89458553,628b806c463b948bc644b84f,629af6f3871db084a5397aa9,,,,,1,0,1,0,1,X V Q F H G B L J M P D K C T S W R N Z,,,,,,,,,,,,,,,,,,,,,,,,,,,,,,,,,,,,,,,,,,,,,,,,,,,,,,,,,,,,,,,,,,,,,,,,,,,,,,,,,,,,,,,,,,,,,
,,,,,,,,,,615e8d0ac26e9a2f04f94a6f,31,Kobieta,2022-06-04_02h12.36.569,task,2021.1.4,Win32,59.89458553,628b806c463b948bc644b84f,629af6f3871db084a5397aa9,,,,,2,0,2,0,1,X V Q F H G B L J M P D K C T S W R N Z,,,,,,,,,,,,,,,,,,,,,,,,,,,,,,,,,,,,,,,,,,,,,,,,,,,,,,,,,,,,,,,,,,,,,,,,,,,,,,,,,,,,,,,,,,,,,
,,,,,,,,,,615e8d0ac26e9a2f04f94a6f,31,Kobieta,2022-06-04_02h12.36.569,task,2021.1.4,Win32,59.89458553,628b806c463b948bc644b84f,629af6f3871db084a5397aa9,,,,,3,0,3,0,1,X V Q F H G B L J M P D K C T S W R N Z,,,,,,,,,,,,,,,,,,,,,,,,,,,,,,,,,,,,,,,,,,,,,,,,,,,,,,,,,,,,,,,,,,,,,,,,,,,,,,,,,,,,,,,,,,,,,
,,,,,,,,,,615e8d0ac26e9a2f04f94a6f,31,Kobieta,2022-06-04_02h12.36.569,task,2021.1.4,Win32,59.89458553,628b806c463b948bc644b84f,629af6f3871db084a5397aa9,,,,,4,0,4,0,1,X V Q F H G B L J M P D K C T S W R N Z,,,,,,,,,,,,,,,,,,,,,,,,,,,,,,,,,,,,,,,,,,,,,,,,,,,,,,,,,,,,,,,,,,,,,,,,,,,,,,,,,,,,,,,,,,,,,
,,,,,,,,,,615e8d0ac26e9a2f04f94a6f,31,Kobieta,2022-06-04_02h12.36.569,task,2021.1.4,Win32,59.89458553,628b806c463b948bc644b84f,629af6f3871db084a5397aa9,,,,,5,0,5,0,1,X V Q F H G B L J M P D K C T S W R N Z,,,,,,,,,,,,,,,,,,,,,,,,,,,,,,,,,,,,,,,,,,,,,,,,,,,,,,,,,,,,,,,,,,,,,,,,,,,,,,,,,,,,,,,,,,,,,
,,,,,,,,,,615e8d0ac26e9a2f04f94a6f,31,Kobieta,2022-06-04_02h12.36.569,task,2021.1.4,Win32,59.89458553,628b806c463b948bc644b84f,629af6f3871db084a5397aa9,,,,,,,,,,,xvfhxv,"[""x"",""v"",""f"",""h"",""x"",""v""]","[1.2204000000953101,5.789499999999975,6.62370000004762,8.990999999999985,13.529200000047695,14.012900000095328,14.475800000190702]",0,VXSFVX,12,0,12,0,1,,,,,,,,,,,,,,,,,,,,,,,,,,,,,,,,,,,,,,,,,,,,,,,,,,,,,,,,,,,,,,,,,,,,,,,,,,,,,,,,,,,
,,,,,,,,,,615e8d0ac26e9a2f04f94a6f,31,Kobieta,2022-06-04_02h12.36.569,task,2021.1.4,Win32,59.89458553,628b806c463b948bc644b84f,629af6f3871db084a5397aa9,,,,,,,,,,,,,,,,,,,,,space,27.5015,1,"[""1""]",1,[7.40080000019077],[7.40080000019077],0,0,0,1,1,Practice,2,(4x4) - 15,1,,,,,,,,,,,,,,,,,,,,,,,,,,,,,,,,,,,,,,,,,,,,,,,,,,,,,,,,,,,,,,,,,,,
,,,,,,,,,,615e8d0ac26e9a2f04f94a6f,31,Kobieta,2022-06-04_02h12.36.569,task,2021.1.4,Win32,59.89458553,628b806c463b948bc644b84f,629af6f3871db084a5397aa9,,,,,,,,,,,,,,,,,,,,,,,8,"[""8""]",1,[8.83529999995244],"[7.40080000019077,8.83529999995244]",0,1,1,8,1,Practice,9,(3x3) - 1,8,,,,,,,,,,,,,,,,,,,,,,,,,,,,,,,,,,,,,,,,,,,,,,,,,,,,,,,,,,,,,,,,,,,
,,,,,,,,,,615e8d0ac26e9a2f04f94a6f,31,Kobieta,2022-06-04_02h12.36.569,task,2021.1.4,Win32,59.89458553,628b806c463b948bc644b84f,629af6f3871db084a5397aa9,,,,,,,,,,,,,,,,,,,,,,,3,"[""3""]",1,[4.70439999985706],"[7.40080000019077,8.83529999995244,4.70439999985706]",0,2,2,3,1,Practice,4,(8/4) + 1,3,,,,,,,,,,,,,,,,,,,,,,,,,,,,,,,,,,,,,,,,,,,,,,,,,,,,,,,,,,,,,,,,,,,
,,,,,,,,,,615e8d0ac26e9a2f04f94a6f,31,Kobieta,2022-06-04_02h12.36.569,task,2021.1.4,Win32,59.89458553,628b806c463b948bc644b84f,629af6f3871db084a5397aa9,,,,,,,,,,,,,,,,,,,,,,,2,"[""2""]",1,[4.490199999809192],"[7.40080000019077,8.83529999995244,4.70439999985706,4.490199999809192]",0,3,3,2,1,Practice,3,(4x4) - 14,2,,,,,,,,,,,,,,,,,,,,,,,,,,,,,,,,,,,,,,,,,,,,,,,,,,,,,,,,,,,,,,,,,,,
,,,,,,,,,,615e8d0ac26e9a2f04f94a6f,31,Kobieta,2022-06-04_02h12.36.569,task,2021.1.4,Win32,59.89458553,628b806c463b948bc644b84f,629af6f3871db084a5397aa9,,,,,,,,,,,,,,,,,,,,,,,4,"[""4""]",1,[4.406200000047647],"[7.40080000019077,8.83529999995244,4.70439999985706,4.490199999809192,4.406200000047647]",0,4,4,4,1,Practice,5,(2x6) - 8,4,,,,,,,,,,,,,,,,,,,,,,,,,,,,,,,,,,,,,,,,,,,,,,,,,,,,,,,,,,,,,,,,,,,
,,,,,,,,,,615e8d0ac26e9a2f04f94a6f,31,Kobieta,2022-06-04_02h12.36.569,task,2021.1.4,Win32,59.89458553,628b806c463b948bc644b84f,629af6f3871db084a5397aa9,,,,,,,,,,,,,,,,,,,,,,,9,"[""9""]",1,[2.3537999999523436],"[7.40080000019077,8.83529999995244,4.70439999985706,4.490199999809192,4.406200000047647,2.3537999999523436]",0,5,5,9,1,Practice,10,(20/2) - 1,9,,,,,,,,,,,,,,,,,,,,,,,,,,,,,,,,,,,,,,,,,,,,,,,,,,,,,,,,,,,,,,,,,,,
,,,,,,,,,,615e8d0ac26e9a2f04f94a6f,31,Kobieta,2022-06-04_02h12.36.569,task,2021.1.4,Win32,59.89458553,628b806c463b948bc644b84f,629af6f3871db084a5397aa9,,,,,,,,,,,,,,,,,,,,,,,6,"[""6""]",1,[4.02079999995226],"[7.40080000019077,8.83529999995244,4.70439999985706,4.490199999809192,4.406200000047647,2.3537999999523436,4.02079999995226]",0,6,6,6,1,Practice,7,(25/5) + 1,6,,,,,,,,,,,,,,,,,,,,,,,,,,,,,,,,,,,,,,,,,,,,,,,,,,,,,,,,,,,,,,,,,,,
,,,,,,,,,,615e8d0ac26e9a2f04f94a6f,31,Kobieta,2022-06-04_02h12.36.569,task,2021.1.4,Win32,59.89458553,628b806c463b948bc644b84f,629af6f3871db084a5397aa9,,,,,,,,,,,,,,,,,,,,,,,0,"[""0""]",1,[3.453999999999951],"[7.40080000019077,8.83529999995244,4.70439999985706,4.490199999809192,4.406200000047647,2.3537999999523436,4.02079999995226,3.453999999999951]",0,7,7,0,1,Practice,1,(3x3) -  9,0,,,,,,,,,,,,,,,,,,,,,,,,,,,,,,,,,,,,,,,,,,,,,,,,,,,,,,,,,,,,,,,,,,,
,,,,,,,,,,615e8d0ac26e9a2f04f94a6f,31,Kobieta,2022-06-04_02h12.36.569,task,2021.1.4,Win32,59.89458553,628b806c463b948bc644b84f,629af6f3871db084a5397aa9,,,,,,,,,,,,,,,,,,,,,,,5,"[""5""]",1,[2.870399999857],"[7.40080000019077,8.83529999995244,4.70439999985706,4.490199999809192,4.406200000047647,2.3537999999523436,4.02079999995226,3.453999999999951,2.870399999857]",0,8,8,5,1,Practice,6,(4/2) + 3,5,,,,,,,,,,,,,,,,,,,,,,,,,,,,,,,,,,,,,,,,,,,,,,,,,,,,,,,,,,,,,,,,,,,
,,,,,,,,,,615e8d0ac26e9a2f04f94a6f,31,Kobieta,2022-06-04_02h12.36.569,task,2021.1.4,Win32,59.89458553,628b806c463b948bc644b84f,629af6f3871db084a5397aa9,,,,,,,,,,,,,,,,,,,,,,,7,"[""7""]",1,[5.872499999999945],"[7.40080000019077,8.83529999995244,4.70439999985706,4.490199999809192,4.406200000047647,2.3537999999523436,4.02079999995226,3.453999999999951,2.870399999857,5.872499999999945]",0,9,9,7,1,Practice,8,(5x5) - 18,7,,,,,,,,,,,,,,,,,,,,,,,,,,,,,,,,,,,,,,,,,,,,,,,,,,,,,,,,,,,,,,,,,,,
,,,,,,,,,,615e8d0ac26e9a2f04f94a6f,31,Kobieta,2022-06-04_02h12.36.569,task,2021.1.4,Win32,59.89458553,628b806c463b948bc644b84f,629af6f3871db084a5397aa9,,,,,,,,,,,,,,,,,,,,,,,,,,,,,,,,,,,,,1,48.4084,3.227226667,62.6051769,2.042958262,8.498058982,space,2.8869,0,0,0,0,1,,,,,,,,,,,,,,,,,,,,,,,,,,,,,,,,,,,,,,,,,,,,,,,,,,,,,,
,,,,,,,,,,615e8d0ac26e9a2f04f94a6f,31,Kobieta,2022-06-04_02h12.36.569,task,2021.1.4,Win32,59.89458553,628b806c463b948bc644b84f,629af6f3871db084a5397aa9,,,,,,,,,,,,,,,,,,,,,,,8,,,,,,,,,,Practice,9,(3x3) - 1,8,,,,,,,,,,,,,,space,62.0221,"[""8""]",1,[5.40760000014302],1,0,0,0,8,1,,,,,,,,,,,,,,,,,,,,,,,,,,,,,,,,,,,,,,,,,,,
,,,,,,,,,,615e8d0ac26e9a2f04f94a6f,31,Kobieta,2022-06-04_02h12.36.569,task,2021.1.4,Win32,59.89458553,628b806c463b948bc644b84f,629af6f3871db084a5397aa9,,,,,,,,,,X V Q F H G B L J M P D K C T S W R N Z,,,,,,,,,,,,,,,,,,,,,,,,,,,,,,,,,,,,,,,,,,,,,,,,,,,0,0,0,0,1,,,,,,,,,,,,,,,,,,,,,,,,,,,,,,,,,,,,,,
,,,,,,,,,,615e8d0ac26e9a2f04f94a6f,31,Kobieta,2022-06-04_02h12.36.569,task,2021.1.4,Win32,59.89458553,628b806c463b948bc644b84f,629af6f3871db084a5397aa9,,,,,,,,,,,,,,,,,,,,,,,0,,,,,,,,,,Practice,1,(3x3) -  9,0,,,,,,,,,,,,,,,,"[""0""]",1,[3.5039999999999054],1,0,0,0,0,1,,,,,,,,,,,,,,,,,,,,,,,,,,,,,,,,,,,,,,,,,,,
,,,,,,,,,,615e8d0ac26e9a2f04f94a6f,31,Kobieta,2022-06-04_02h12.36.569,task,2021.1.4,Win32,59.89458553,628b806c463b948bc644b84f,629af6f3871db084a5397aa9,,,,,,,,,,X V Q F H G B L J M P D K C T S W R N Z,,,,,,,,,,,,,,,,,,,,,,,,,,,,,,,,,,,,,,,,,,,,,,,,,,,1,0,1,0,1,,,,,,,,,,,,,,,,,,,,,,,,,,,,,,,,,,,,,,
,,,,,,,,,,615e8d0ac26e9a2f04f94a6f,31,Kobieta,2022-06-04_02h12.36.569,task,2021.1.4,Win32,59.89458553,628b806c463b948bc644b84f,629af6f3871db084a5397aa9,,,,,,,,,,,,,,,,,,,,,,,,,,,,,,,,,,,,,,,,,,,,,,,,,,,,,,,,,,,,,,,,,,zn,"[""z"",""n""]",0,"[3.3060999999047453,3.8563999998571035,4.68879999995238]",1,0,0,0,0,1,,,,,,,,,,,,,,,,,,,,,,,,,,,,
,,,,,,,,,,615e8d0ac26e9a2f04f94a6f,31,Kobieta,2022-06-04_02h12.36.569,task,2021.1.4,Win32,59.89458553,628b806c463b948bc644b84f,629af6f3871db084a5397aa9,,,,,,,,,,,,,,,,,,,,,,,5,,,,,,,,,,Practice,6,(4/2) + 3,5,,,,,,,,,,,,,,,,"[""5""]",1,[5.4357999999522235],1,0,0,0,5,1,,,,,,,,,,,,,,,,,,,,,,,,,,,,,,,,,,,,,,,,,,,
,,,,,,,,,,615e8d0ac26e9a2f04f94a6f,31,Kobieta,2022-06-04_02h12.36.569,task,2021.1.4,Win32,59.89458553,628b806c463b948bc644b84f,629af6f3871db084a5397aa9,,,,,,,,,,X V Q F H G B L J M P D K C T S W R N Z,,,,,,,,,,,,,,,,,,,,,,,,,,,,,,,,,,,,,,,,,,,,,,,,,,,0,0,0,0,1,,,,,,,,,,,,,,,,,,,,,,,,,,,,,,,,,,,,,,
,,,,,,,,,,615e8d0ac26e9a2f04f94a6f,31,Kobieta,2022-06-04_02h12.36.569,task,2021.1.4,Win32,59.89458553,628b806c463b948bc644b84f,629af6f3871db084a5397aa9,,,,,,,,,,,,,,,,,,,,,,,6,,,,,,,,,,Practice,7,(25/5) + 1,6,,,,,,,,,,,,,,,,"[""6""]",1,[5.534299999952509],1,0,0,0,6,1,,,,,,,,,,,,,,,,,,,,,,,,,,,,,,,,,,,,,,,,,,,
,,,,,,,,,,615e8d0ac26e9a2f04f94a6f,31,Kobieta,2022-06-04_02h12.36.569,task,2021.1.4,Win32,59.89458553,628b806c463b948bc644b84f,629af6f3871db084a5397aa9,,,,,,,,,,X V Q F H G B L J M P D K C T S W R N Z,,,,,,,,,,,,,,,,,,,,,,,,,,,,,,,,,,,,,,,,,,,,,,,,,,,1,0,1,0,1,,,,,,,,,,,,,,,,,,,,,,,,,,,,,,,,,,,,,,
,,,,,,,,,,615e8d0ac26e9a2f04f94a6f,31,Kobieta,2022-06-04_02h12.36.569,task,2021.1.4,Win32,59.89458553,628b806c463b948bc644b84f,629af6f3871db084a5397aa9,,,,,,,,,,,,,,,,,,,,,,,,,,,,,,,,,,,,,,,,,,,,,,,,,,,,,,,,,,,,,,,,,,wf,"[""w"",""f""]",0,"[1.6340999999047199,2.0742000000477674,2.7330999999046526]",1,1,0,1,0,1,,,,,,,,,,,,,,,,,,,,,,,,,,,,
,,,,,,,,,,615e8d0ac26e9a2f04f94a6f,31,Kobieta,2022-06-04_02h12.36.569,task,2021.1.4,Win32,59.89458553,628b806c463b948bc644b84f,629af6f3871db084a5397aa9,,,,,,,,,,,,,,,,,,,,,,,4,,,,,,,,,,Practice,5,(2x6) - 8,4,,,,,,,,,,,,,,,,"[""4""]",1,[5.9047999999522744],1,0,0,0,4,1,,,,,,,,,,,,,,,,,,,,,,,,,,,,,,,,,,,,,,,,,,,
,,,,,,,,,,615e8d0ac26e9a2f04f94a6f,31,Kobieta,2022-06-04_02h12.36.569,task,2021.1.4,Win32,59.89458553,628b806c463b948bc644b84f,629af6f3871db084a5397aa9,,,,,,,,,,X V Q F H G B L J M P D K C T S W R N Z,,,,,,,,,,,,,,,,,,,,,,,,,,,,,,,,,,,,,,,,,,,,,,,,,,,0,0,0,0,1,,,,,,,,,,,,,,,,,,,,,,,,,,,,,,,,,,,,,,
,,,,,,,,,,615e8d0ac26e9a2f04f94a6f,31,Kobieta,2022-06-04_02h12.36.569,task,2021.1.4,Win32,59.89458553,628b806c463b948bc644b84f,629af6f3871db084a5397aa9,,,,,,,,,,,,,,,,,,,,,,,8,,,,,,,,,,Practice,9,(3x3) - 1,8,,,,,,,,,,,,,,,,"[""8""]",1,[6.352800000190882],1,0,0,0,8,1,,,,,,,,,,,,,,,,,,,,,,,,,,,,,,,,,,,,,,,,,,,
,,,,,,,,,,615e8d0ac26e9a2f04f94a6f,31,Kobieta,2022-06-04_02h12.36.569,task,2021.1.4,Win32,59.89458553,628b806c463b948bc644b84f,629af6f3871db084a5397aa9,,,,,,,,,,X V Q F H G B L J M P D K C T S W R N Z,,,,,,,,,,,,,,,,,,,,,,,,,,,,,,,,,,,,,,,,,,,,,,,,,,,1,0,1,0,1,,,,,,,,,,,,,,,,,,,,,,,,,,,,,,,,,,,,,,
,,,,,,,,,,615e8d0ac26e9a2f04f94a6f,31,Kobieta,2022-06-04_02h12.36.569,task,2021.1.4,Win32,59.89458553,628b806c463b948bc644b84f,629af6f3871db084a5397aa9,,,,,,,,,,,,,,,,,,,,,,,,,,,,,,,,,,,,,,,,,,,,,,,,,,,,,,,,,,,,,,,,,,cs,"[""c"",""s""]",0,"[1.0225999999047417,1.3730999999047526,2.1548999998569798]",1,2,0,2,0,1,,,,,,,,,,,,,,,,,,,,,,,,,,,,
,,,,,,,,,,615e8d0ac26e9a2f04f94a6f,31,Kobieta,2022-06-04_02h12.36.569,task,2021.1.4,Win32,59.89458553,628b806c463b948bc644b84f,629af6f3871db084a5397aa9,,,,,,,,,,,,,,,,,,,,,,,,,,,,,,,,,Task,6,(12/2) + 1,7,,,,,,,,,,,,,,,,,,,0,,,,,,,,,,,,,,,,,,,,,space,55.7219,,0,0,0,0,5,1,,,,,,,,,,,,,,,,,,,
,,,,,,,,,,615e8d0ac26e9a2f04f94a6f,31,Kobieta,2022-06-04_02h12.36.569,task,2021.1.4,Win32,59.89458553,628b806c463b948bc644b84f,629af6f3871db084a5397aa9,,,,,,,,,,,,,,,,,,,,,,,1,,,,,,,,,,Task,1,(12/6) - 1,1,,,,,,,,,,,,,,,,,,,1,,,,,,,,,,,,,,,,,,,,,,,"[""1""]",1,0,1,1,0,1,[6.697599999904696],,,,,,,,,,,,,,,,,,
,,,,,,,,,,615e8d0ac26e9a2f04f94a6f,31,Kobieta,2022-06-04_02h12.36.569,task,2021.1.4,Win32,59.89458553,628b806c463b948bc644b84f,629af6f3871db084a5397aa9,,,,,,,,,,X V Q F H G B L J M P D K C T S W R N Z,,,,,,,,,,,,,,,,,,,,,,,,,,,,,,,,,,,,,,,,,,,,,,,,,,,,,,,,,,,,,,,,,,,,,,,,,,,,0,0,0,0,1,,,,,,,,,,,,,
,,,,,,,,,,615e8d0ac26e9a2f04f94a6f,31,Kobieta,2022-06-04_02h12.36.569,task,2021.1.4,Win32,59.89458553,628b806c463b948bc644b84f,629af6f3871db084a5397aa9,,,,,,,,,,,,,,,,,,,,,,,,,,,,,,,,,Task,14,(2x2) + 3,7,,,,,,,,,,,,,,,,,,,0,,,,,,,,,,,,,,,,,,,,,,,,0,0,0,0,13,1,,,,,,,,,,,,,,,,,,,
,,,,,,,,,,615e8d0ac26e9a2f04f94a6f,31,Kobieta,2022-06-04_02h12.36.569,task,2021.1.4,Win32,59.89458553,628b806c463b948bc644b84f,629af6f3871db084a5397aa9,,,,,,,,,,,,,,,,,,,,,,,4,,,,,,,,,,Task,4,(1x5) - 1,4,,,,,,,,,,,,,,,,,,,1,,,,,,,,,,,,,,,,,,,,,,,"[""4""]",1,0,1,1,3,1,[4.924700000047778],,,,,,,,,,,,,,,,,,
,,,,,,,,,,615e8d0ac26e9a2f04f94a6f,31,Kobieta,2022-06-04_02h12.36.569,task,2021.1.4,Win32,59.89458553,628b806c463b948bc644b84f,629af6f3871db084a5397aa9,,,,,,,,,,X V Q F H G B L J M P D K C T S W R N Z,,,,,,,,,,,,,,,,,,,,,,,,,,,,,,,,,,,,,,,,,,,,,,,,,,,,,,,,,,,,,,,,,,,,,,,,,,,,1,0,1,0,1,,,,,,,,,,,,,
,,,,,,,,,,615e8d0ac26e9a2f04f94a6f,31,Kobieta,2022-06-04_02h12.36.569,task,2021.1.4,Win32,59.89458553,628b806c463b948bc644b84f,629af6f3871db084a5397aa9,,,,,,,,,,,,,,,,,,,,,,,,,,,,,,,,,,,,,,,,,,,,,,,,,,,,,,,,,,,,,,,,,,,,,,,,,,,,,,,,,,,,,,,,,,,zq,"[""z"",""q""]",0,"[2.673300000190693,3.1399999999998727,3.8854999999998654]",1,ZQ,0,0,0,0,1,,
,,,,,,,,,,615e8d0ac26e9a2f04f94a6f,31,Kobieta,2022-06-04_02h12.36.569,task,2021.1.4,Win32,59.89458553,628b806c463b948bc644b84f,629af6f3871db084a5397aa9,,,,,,,,,,,,,,,,,,,,,,,4,,,,,,,,,,Task,4,(1x5) - 1,4,,,,,,,,,,,,,,,,,,,1,,,,,,,,,,,,,,,,,,,,,,,"[""4""]",1,0,0,0,3,1,[3.187100000142891],,,,,,,,,,,,,,,,,,
,,,,,,,,,,615e8d0ac26e9a2f04f94a6f,31,Kobieta,2022-06-04_02h12.36.569,task,2021.1.4,Win32,59.89458553,628b806c463b948bc644b84f,629af6f3871db084a5397aa9,,,,,,,,,,X V Q F H G B L J M P D K C T S W R N Z,,,,,,,,,,,,,,,,,,,,,,,,,,,,,,,,,,,,,,,,,,,,,,,,,,,,,,,,,,,,,,,,,,,,,,,,,,,,0,0,0,0,1,,,,,,,,,,,,,
,,,,,,,,,,615e8d0ac26e9a2f04f94a6f,31,Kobieta,2022-06-04_02h12.36.569,task,2021.1.4,Win32,59.89458553,628b806c463b948bc644b84f,629af6f3871db084a5397aa9,,,,,,,,,,,,,,,,,,,,,,,8,,,,,,,,,,Task,32,(8/2) + 4,8,,,,,,,,,,,,,,,,,,,1,,,,,,,,,,,,,,,,,,,,,,,"[""8""]",1,0,0,0,31,1,[2.5347000000476783],,,,,,,,,,,,,,,,,,
,,,,,,,,,,615e8d0ac26e9a2f04f94a6f,31,Kobieta,2022-06-04_02h12.36.569,task,2021.1.4,Win32,59.89458553,628b806c463b948bc644b84f,629af6f3871db084a5397aa9,,,,,,,,,,X V Q F H G B L J M P D K C T S W R N Z,,,,,,,,,,,,,,,,,,,,,,,,,,,,,,,,,,,,,,,,,,,,,,,,,,,,,,,,,,,,,,,,,,,,,,,,,,,,1,0,1,0,1,,,,,,,,,,,,,
,,,,,,,,,,615e8d0ac26e9a2f04f94a6f,31,Kobieta,2022-06-04_02h12.36.569,task,2021.1.4,Win32,59.89458553,628b806c463b948bc644b84f,629af6f3871db084a5397aa9,,,,,,,,,,,,,,,,,,,,,,,6,,,,,,,,,,Task,37,(3/3) + 5,6,,,,,,,,,,,,,,,,,,,1,,,,,,,,,,,,,,,,,,,,,,,"[""6""]",1,0,0,0,36,1,[3.100700000047709],,,,,,,,,,,,,,,,,,
,,,,,,,,,,615e8d0ac26e9a2f04f94a6f,31,Kobieta,2022-06-04_02h12.36.569,task,2021.1.4,Win32,59.89458553,628b806c463b948bc644b84f,629af6f3871db084a5397aa9,,,,,,,,,,X V Q F H G B L J M P D K C T S W R N Z,,,,,,,,,,,,,,,,,,,,,,,,,,,,,,,,,,,,,,,,,,,,,,,,,,,,,,,,,,,,,,,,,,,,,,,,,,,,2,0,2,0,1,,,,,,,,,,,,,
,,,,,,,,,,615e8d0ac26e9a2f04f94a6f,31,Kobieta,2022-06-04_02h12.36.569,task,2021.1.4,Win32,59.89458553,628b806c463b948bc644b84f,629af6f3871db084a5397aa9,,,,,,,,,,,,,,,,,,,,,,,,,,,,,,,,,,,,,,,,,,,,,,,,,,,,,,,,,,,,,,,,,,,,,,,,,,,,,,,,,,,,,,,,,,,cnv,"[""c"",""n"",""v""]",0,"[1.7541000001428984,2.137200000047642,2.6039000000953365,3.669600000142964]",1,CNV,1,0,1,0,1,,
,,,,,,,,,,615e8d0ac26e9a2f04f94a6f,31,Kobieta,2022-06-04_02h12.36.569,task,2021.1.4,Win32,59.89458553,628b806c463b948bc644b84f,629af6f3871db084a5397aa9,,,,,,,,,,,,,,,,,,,,,,,4,,,,,,,,,,Task,11,(18/3) - 2,4,,,,,,,,,,,,,,,,,,,1,,,,,,,,,,,,,,,,,,,,,,,"[""4""]",1,0,0,0,10,1,[5.8367000000475855],,,,,,,,,,,,,,,,,,
,,,,,,,,,,615e8d0ac26e9a2f04f94a6f,31,Kobieta,2022-06-04_02h12.36.569,task,2021.1.4,Win32,59.89458553,628b806c463b948bc644b84f,629af6f3871db084a5397aa9,,,,,,,,,,X V Q F H G B L J M P D K C T S W R N Z,,,,,,,,,,,,,,,,,,,,,,,,,,,,,,,,,,,,,,,,,,,,,,,,,,,,,,,,,,,,,,,,,,,,,,,,,,,,0,0,0,0,1,,,,,,,,,,,,,
,,,,,,,,,,615e8d0ac26e9a2f04f94a6f,31,Kobieta,2022-06-04_02h12.36.569,task,2021.1.4,Win32,59.89458553,628b806c463b948bc644b84f,629af6f3871db084a5397aa9,,,,,,,,,,,,,,,,,,,,,,,3,,,,,,,,,,Task,20,(18/9) + 1,3,,,,,,,,,,,,,,,,,,,1,,,,,,,,,,,,,,,,,,,,,,,"[""3""]",1,0,0,0,19,1,[2.5530999999048163],,,,,,,,,,,,,,,,,,
,,,,,,,,,,615e8d0ac26e9a2f04f94a6f,31,Kobieta,2022-06-04_02h12.36.569,task,2021.1.4,Win32,59.89458553,628b806c463b948bc644b84f,629af6f3871db084a5397aa9,,,,,,,,,,X V Q F H G B L J M P D K C T S W R N Z,,,,,,,,,,,,,,,,,,,,,,,,,,,,,,,,,,,,,,,,,,,,,,,,,,,,,,,,,,,,,,,,,,,,,,,,,,,,1,0,1,0,1,,,,,,,,,,,,,
,,,,,,,,,,615e8d0ac26e9a2f04f94a6f,31,Kobieta,2022-06-04_02h12.36.569,task,2021.1.4,Win32,59.89458553,628b806c463b948bc644b84f,629af6f3871db084a5397aa9,,,,,,,,,,,,,,,,,,,,,,,3,,,,,,,,,,Task,3,(2x3) - 3,3,,,,,,,,,,,,,,,,,,,1,,,,,,,,,,,,,,,,,,,,,,,"[""3""]",1,0,0,0,2,1,[4.053600000142978],,,,,,,,,,,,,,,,,,
,,,,,,,,,,615e8d0ac26e9a2f04f94a6f,31,Kobieta,2022-06-04_02h12.36.569,task,2021.1.4,Win32,59.89458553,628b806c463b948bc644b84f,629af6f3871db084a5397aa9,,,,,,,,,,X V Q F H G B L J M P D K C T S W R N Z,,,,,,,,,,,,,,,,,,,,,,,,,,,,,,,,,,,,,,,,,,,,,,,,,,,,,,,,,,,,,,,,,,,,,,,,,,,,2,0,2,0,1,,,,,,,,,,,,,
,,,,,,,,,,615e8d0ac26e9a2f04f94a6f,31,Kobieta,2022-06-04_02h12.36.569,task,2021.1.4,Win32,59.89458553,628b806c463b948bc644b84f,629af6f3871db084a5397aa9,,,,,,,,,,,,,,,,,,,,,,,3,,,,,,,,,,Task,35,(1x2) + 1,3,,,,,,,,,,,,,,,,,,,1,,,,,,,,,,,,,,,,,,,,,,,"[""3""]",1,0,0,0,34,1,[3.0024000000953492],,,,,,,,,,,,,,,,,,
,,,,,,,,,,615e8d0ac26e9a2f04f94a6f,31,Kobieta,2022-06-04_02h12.36.569,task,2021.1.4,Win32,59.89458553,628b806c463b948bc644b84f,629af6f3871db084a5397aa9,,,,,,,,,,X V Q F H G B L J M P D K C T S W R N Z,,,,,,,,,,,,,,,,,,,,,,,,,,,,,,,,,,,,,,,,,,,,,,,,,,,,,,,,,,,,,,,,,,,,,,,,,,,,3,0,3,0,1,,,,,,,,,,,,,
,,,,,,,,,,615e8d0ac26e9a2f04f94a6f,31,Kobieta,2022-06-04_02h12.36.569,task,2021.1.4,Win32,59.89458553,628b806c463b948bc644b84f,629af6f3871db084a5397aa9,,,,,,,,,,,,,,,,,,,,,,,,,,,,,,,,,,,,,,,,,,,,,,,,,,,,,,,,,,,,,,,,,,,,,,,,,,,,,,,,,,,,,,,,,,,qnsj,"[""q"",""n"",""s"",""j""]",0,"[2.755999999999858,3.672899999857009,4.54099999999994,5.539499999999862,6.354499999999916]",1,QNSJ,2,0,2,0,1,,
,,,,,,,,,,615e8d0ac26e9a2f04f94a6f,31,Kobieta,2022-06-04_02h12.36.569,task,2021.1.4,Win32,59.89458553,628b806c463b948bc644b84f,629af6f3871db084a5397aa9,,,,,,,,,,,,,,,,,,,,,,,4,,,,,,,,,,Task,4,(1x5) - 1,4,,,,,,,,,,,,,,,,,,,1,,,,,,,,,,,,,,,,,,,,,,,"[""4""]",1,0,0,0,3,1,[2.665299999952367],,,,,,,,,,,,,,,,,,
,,,,,,,,,,615e8d0ac26e9a2f04f94a6f,31,Kobieta,2022-06-04_02h12.36.569,task,2021.1.4,Win32,59.89458553,628b806c463b948bc644b84f,629af6f3871db084a5397aa9,,,,,,,,,,X V Q F H G B L J M P D K C T S W R N Z,,,,,,,,,,,,,,,,,,,,,,,,,,,,,,,,,,,,,,,,,,,,,,,,,,,,,,,,,,,,,,,,,,,,,,,,,,,,0,0,0,0,1,,,,,,,,,,,,,
,,,,,,,,,,615e8d0ac26e9a2f04f94a6f,31,Kobieta,2022-06-04_02h12.36.569,task,2021.1.4,Win32,59.89458553,628b806c463b948bc644b84f,629af6f3871db084a5397aa9,,,,,,,,,,,,,,,,,,,,,,,9,,,,,,,,,,Task,24,(2x2) + 5,9,,,,,,,,,,,,,,,,,,,1,,,,,,,,,,,,,,,,,,,,,,,"[""9""]",1,0,0,0,23,1,[5.185500000000047],,,,,,,,,,,,,,,,,,
,,,,,,,,,,615e8d0ac26e9a2f04f94a6f,31,Kobieta,2022-06-04_02h12.36.569,task,2021.1.4,Win32,59.89458553,628b806c463b948bc644b84f,629af6f3871db084a5397aa9,,,,,,,,,,X V Q F H G B L J M P D K C T S W R N Z,,,,,,,,,,,,,,,,,,,,,,,,,,,,,,,,,,,,,,,,,,,,,,,,,,,,,,,,,,,,,,,,,,,,,,,,,,,,1,0,1,0,1,,,,,,,,,,,,,
,,,,,,,,,,615e8d0ac26e9a2f04f94a6f,31,Kobieta,2022-06-04_02h12.36.569,task,2021.1.4,Win32,59.89458553,628b806c463b948bc644b84f,629af6f3871db084a5397aa9,,,,,,,,,,,,,,,,,,,,,,,4,,,,,,,,,,Task,4,(1x5) - 1,4,,,,,,,,,,,,,,,,,,,1,,,,,,,,,,,,,,,,,,,,,,,"[""4""]",1,0,0,0,3,1,[4.467499999999973],,,,,,,,,,,,,,,,,,
,,,,,,,,,,615e8d0ac26e9a2f04f94a6f,31,Kobieta,2022-06-04_02h12.36.569,task,2021.1.4,Win32,59.89458553,628b806c463b948bc644b84f,629af6f3871db084a5397aa9,,,,,,,,,,X V Q F H G B L J M P D K C T S W R N Z,,,,,,,,,,,,,,,,,,,,,,,,,,,,,,,,,,,,,,,,,,,,,,,,,,,,,,,,,,,,,,,,,,,,,,,,,,,,2,0,2,0,1,,,,,,,,,,,,,
,,,,,,,,,,615e8d0ac26e9a2f04f94a6f,31,Kobieta,2022-06-04_02h12.36.569,task,2021.1.4,Win32,59.89458553,628b806c463b948bc644b84f,629af6f3871db084a5397aa9,,,,,,,,,,,,,,,,,,,,,,,6,,,,,,,,,,Task,37,(3/3) + 5,6,,,,,,,,,,,,,,,,,,,1,,,,,,,,,,,,,,,,,,,,,,,"[""6""]",1,0,0,0,36,1,[2.2674999999999272],,,,,,,,,,,,,,,,,,
,,,,,,,,,,615e8d0ac26e9a2f04f94a6f,31,Kobieta,2022-06-04_02h12.36.569,task,2021.1.4,Win32,59.89458553,628b806c463b948bc644b84f,629af6f3871db084a5397aa9,,,,,,,,,,X V Q F H G B L J M P D K C T S W R N Z,,,,,,,,,,,,,,,,,,,,,,,,,,,,,,,,,,,,,,,,,,,,,,,,,,,,,,,,,,,,,,,,,,,,,,,,,,,,3,0,3,0,1,,,,,,,,,,,,,
,,,,,,,,,,615e8d0ac26e9a2f04f94a6f,31,Kobieta,2022-06-04_02h12.36.569,task,2021.1.4,Win32,59.89458553,628b806c463b948bc644b84f,629af6f3871db084a5397aa9,,,,,,,,,,,,,,,,,,,,,,,1,,,,,,,,,,Task,16,(3x8) - 15,9,,,,,,,,,,,,,,,,,,,0,,,,,,,,,,,,,,,,,,,,,,,"[""1""]",0,0,0,0,15,1,[8.254100000143126],,,,,,,,,,,,,,,,,,
,,,,,,,,,,615e8d0ac26e9a2f04f94a6f,31,Kobieta,2022-06-04_02h12.36.569,task,2021.1.4,Win32,59.89458553,628b806c463b948bc644b84f,629af6f3871db084a5397aa9,,,,,,,,,,,,,,,,,,,,,,,5,,,,,,,,,,Task,19,(6/2) - 1,2,,,,,,,,,,,,,,,,,,,0,,,,,,,,,,,,,,,,,,,,,,,"[""5""]",0,0,1,1,18,1,[6.610599999904707],,,,,,,,,,,,,,,,,,
,,,,,,,,,,615e8d0ac26e9a2f04f94a6f,31,Kobieta,2022-06-04_02h12.36.569,task,2021.1.4,Win32,59.89458553,628b806c463b948bc644b84f,629af6f3871db084a5397aa9,,,,,,,,,,,,,,,,,,,,,,,2,,,,,,,,,,Task,10,(2x5) - 8,2,,,,,,,,,,,,,,,,,,,1,,,,,,,,,,,,,,,,,,,,,,,"[""2""]",1,0,2,2,9,1,[3.482799999952249],,,,,,,,,,,,,,,,,,
,,,,,,,,,,615e8d0ac26e9a2f04f94a6f,31,Kobieta,2022-06-04_02h12.36.569,task,2021.1.4,Win32,59.89458553,628b806c463b948bc644b84f,629af6f3871db084a5397aa9,,,,,,,,,,X V Q F H G B L J M P D K C T S W R N Z,,,,,,,,,,,,,,,,,,,,,,,,,,,,,,,,,,,,,,,,,,,,,,,,,,,,,,,,,,,,,,,,,,,,,,,,,,,,4,0,4,0,1,,,,,,,,,,,,,
,,,,,,,,,,615e8d0ac26e9a2f04f94a6f,31,Kobieta,2022-06-04_02h12.36.569,task,2021.1.4,Win32,59.89458553,628b806c463b948bc644b84f,629af6f3871db084a5397aa9,,,,,,,,,,,,,,,,,,,,,,,,,,,,,,,,,,,,,,,,,,,,,,,,,,,,,,,,,,,,,,,,,,,,,,,,,,,,,,,,,,,,,,,,,,,nxnbg,"[""n"",""x"",""n"",""b"",""g""]",0,"[1.606399999856876,2.7215000000001055,3.2280000000000655,4.6732000000477,5.573200000047791,7.6053999998569]",1,NXNBG,3,0,3,0,1,,
,,,,,,,,,,615e8d0ac26e9a2f04f94a6f,31,Kobieta,2022-06-04_02h12.36.569,task,2021.1.4,Win32,59.89458553,628b806c463b948bc644b84f,629af6f3871db084a5397aa9,,,,,,,,,,,,,,,,,,,,,,,0,,,,,,,,,,Task,8,(1x5) - 5,0,,,,,,,,,,,,,,,,,,,1,,,,,,,,,,,,,,,,,,,,,,,"[""0""]",1,0,0,0,7,1,[2.136500000000069],,,,,,,,,,,,,,,,,,
,,,,,,,,,,615e8d0ac26e9a2f04f94a6f,31,Kobieta,2022-06-04_02h12.36.569,task,2021.1.4,Win32,59.89458553,628b806c463b948bc644b84f,629af6f3871db084a5397aa9,,,,,,,,,,X V Q F H G B L J M P D K C T S W R N Z,,,,,,,,,,,,,,,,,,,,,,,,,,,,,,,,,,,,,,,,,,,,,,,,,,,,,,,,,,,,,,,,,,,,,,,,,,,,0,0,0,0,1,,,,,,,,,,,,,
,,,,,,,,,,615e8d0ac26e9a2f04f94a6f,31,Kobieta,2022-06-04_02h12.36.569,task,2021.1.4,Win32,59.89458553,628b806c463b948bc644b84f,629af6f3871db084a5397aa9,,,,,,,,,,,,,,,,,,,,,,,8,,,,,,,,,,Task,15,(3x7) - 13,8,,,,,,,,,,,,,,,,,,,1,,,,,,,,,,,,,,,,,,,,,,,"[""8""]",1,0,0,0,14,1,[6.284799999952384],,,,,,,,,,,,,,,,,,
,,,,,,,,,,615e8d0ac26e9a2f04f94a6f,31,Kobieta,2022-06-04_02h12.36.569,task,2021.1.4,Win32,59.89458553,628b806c463b948bc644b84f,629af6f3871db084a5397aa9,,,,,,,,,,X V Q F H G B L J M P D K C T S W R N Z,,,,,,,,,,,,,,,,,,,,,,,,,,,,,,,,,,,,,,,,,,,,,,,,,,,,,,,,,,,,,,,,,,,,,,,,,,,,1,0,1,0,1,,,,,,,,,,,,,
,,,,,,,,,,615e8d0ac26e9a2f04f94a6f,31,Kobieta,2022-06-04_02h12.36.569,task,2021.1.4,Win32,59.89458553,628b806c463b948bc644b84f,629af6f3871db084a5397aa9,,,,,,,,,,,,,,,,,,,,,,,6,,,,,,,,,,Task,30,(6/3) + 4 ,6,,,,,,,,,,,,,,,,,,,1,,,,,,,,,,,,,,,,,,,,,,,"[""6""]",1,0,0,0,29,1,[2.53379999995218],,,,,,,,,,,,,,,,,,
,,,,,,,,,,615e8d0ac26e9a2f04f94a6f,31,Kobieta,2022-06-04_02h12.36.569,task,2021.1.4,Win32,59.89458553,628b806c463b948bc644b84f,629af6f3871db084a5397aa9,,,,,,,,,,X V Q F H G B L J M P D K C T S W R N Z,,,,,,,,,,,,,,,,,,,,,,,,,,,,,,,,,,,,,,,,,,,,,,,,,,,,,,,,,,,,,,,,,,,,,,,,,,,,2,0,2,0,1,,,,,,,,,,,,,
,,,,,,,,,,615e8d0ac26e9a2f04f94a6f,31,Kobieta,2022-06-04_02h12.36.569,task,2021.1.4,Win32,59.89458553,628b806c463b948bc644b84f,629af6f3871db084a5397aa9,,,,,,,,,,,,,,,,,,,,,,,7,,,,,,,,,,Task,14,(2x2) + 3,7,,,,,,,,,,,,,,,,,,,1,,,,,,,,,,,,,,,,,,,,,,,"[""7""]",1,0,0,0,13,1,[4.218299999952478],,,,,,,,,,,,,,,,,,
,,,,,,,,,,615e8d0ac26e9a2f04f94a6f,31,Kobieta,2022-06-04_02h12.36.569,task,2021.1.4,Win32,59.89458553,628b806c463b948bc644b84f,629af6f3871db084a5397aa9,,,,,,,,,,X V Q F H G B L J M P D K C T S W R N Z,,,,,,,,,,,,,,,,,,,,,,,,,,,,,,,,,,,,,,,,,,,,,,,,,,,,,,,,,,,,,,,,,,,,,,,,,,,,3,0,3,0,1,,,,,,,,,,,,,
,,,,,,,,,,615e8d0ac26e9a2f04f94a6f,31,Kobieta,2022-06-04_02h12.36.569,task,2021.1.4,Win32,59.89458553,628b806c463b948bc644b84f,629af6f3871db084a5397aa9,,,,,,,,,,,,,,,,,,,,,,,2,,,,,,,,,,Task,2,(2x2) - 2,2,,,,,,,,,,,,,,,,,,,1,,,,,,,,,,,,,,,,,,,,,,,"[""2""]",1,0,0,0,1,1,[2.266799999952127],,,,,,,,,,,,,,,,,,
,,,,,,,,,,615e8d0ac26e9a2f04f94a6f,31,Kobieta,2022-06-04_02h12.36.569,task,2021.1.4,Win32,59.89458553,628b806c463b948bc644b84f,629af6f3871db084a5397aa9,,,,,,,,,,X V Q F H G B L J M P D K C T S W R N Z,,,,,,,,,,,,,,,,,,,,,,,,,,,,,,,,,,,,,,,,,,,,,,,,,,,,,,,,,,,,,,,,,,,,,,,,,,,,4,0,4,0,1,,,,,,,,,,,,,
,,,,,,,,,,615e8d0ac26e9a2f04f94a6f,31,Kobieta,2022-06-04_02h12.36.569,task,2021.1.4,Win32,59.89458553,628b806c463b948bc644b84f,629af6f3871db084a5397aa9,,,,,,,,,,,,,,,,,,,,,,,6,,,,,,,,,,Task,5,(2x3) + 0,6,,,,,,,,,,,,,,,,,,,1,,,,,,,,,,,,,,,,,,,,,,,"[""6""]",1,0,0,0,4,1,[3.0871999998091724],,,,,,,,,,,,,,,,,,
,,,,,,,,,,615e8d0ac26e9a2f04f94a6f,31,Kobieta,2022-06-04_02h12.36.569,task,2021.1.4,Win32,59.89458553,628b806c463b948bc644b84f,629af6f3871db084a5397aa9,,,,,,,,,,X V Q F H G B L J M P D K C T S W R N Z,,,,,,,,,,,,,,,,,,,,,,,,,,,,,,,,,,,,,,,,,,,,,,,,,,,,,,,,,,,,,,,,,,,,,,,,,,,,5,0,5,0,1,,,,,,,,,,,,,
,,,,,,,,,,615e8d0ac26e9a2f04f94a6f,31,Kobieta,2022-06-04_02h12.36.569,task,2021.1.4,Win32,59.89458553,628b806c463b948bc644b84f,629af6f3871db084a5397aa9,,,,,,,,,,,,,,,,,,,,,,,,,,,,,,,,,,,,,,,,,,,,,,,,,,,,,,,,,,,,,,,,,,,,,,,,,,,,,,,,,,,,,,,,,,,jxllck,"[""j"",""x"",""l"",""l"",""c"",""k""]",0,"[2.2037999999522526,3.0039999999999054,3.529499999999871,3.841199999809305,5.091299999952298,5.652399999856925,6.788999999999987]",1,JXLLCK,4,0,4,0,1,,
,,,,,,,,,,615e8d0ac26e9a2f04f94a6f,31,Kobieta,2022-06-04_02h12.36.569,task,2021.1.4,Win32,59.89458553,628b806c463b948bc644b84f,629af6f3871db084a5397aa9,,,,,,,,,,,,,,,,,,,,,,,3,,,,,,,,,,Task,20,(18/9) + 1,3,,,,,,,,,,,,,,,,,,,1,,,,,,,,,,,,,,,,,,,,,,,"[""3""]",1,0,0,0,19,1,[3.99940000009542],,,,,,,,,,,,,,,,,,
,,,,,,,,,,615e8d0ac26e9a2f04f94a6f,31,Kobieta,2022-06-04_02h12.36.569,task,2021.1.4,Win32,59.89458553,628b806c463b948bc644b84f,629af6f3871db084a5397aa9,,,,,,,,,,X V Q F H G B L J M P D K C T S W R N Z,,,,,,,,,,,,,,,,,,,,,,,,,,,,,,,,,,,,,,,,,,,,,,,,,,,,,,,,,,,,,,,,,,,,,,,,,,,,0,0,0,0,1,,,,,,,,,,,,,
,,,,,,,,,,615e8d0ac26e9a2f04f94a6f,31,Kobieta,2022-06-04_02h12.36.569,task,2021.1.4,Win32,59.89458553,628b806c463b948bc644b84f,629af6f3871db084a5397aa9,,,,,,,,,,,,,,,,,,,,,,,6,,,,,,,,,,Task,37,(3/3) + 5,6,,,,,,,,,,,,,,,,,,,1,,,,,,,,,,,,,,,,,,,,,,,"[""6""]",1,0,0,0,36,1,[2.2322000000478965],,,,,,,,,,,,,,,,,,
,,,,,,,,,,615e8d0ac26e9a2f04f94a6f,31,Kobieta,2022-06-04_02h12.36.569,task,2021.1.4,Win32,59.89458553,628b806c463b948bc644b84f,629af6f3871db084a5397aa9,,,,,,,,,,X V Q F H G B L J M P D K C T S W R N Z,,,,,,,,,,,,,,,,,,,,,,,,,,,,,,,,,,,,,,,,,,,,,,,,,,,,,,,,,,,,,,,,,,,,,,,,,,,,1,0,1,0,1,,,,,,,,,,,,,
,,,,,,,,,,615e8d0ac26e9a2f04f94a6f,31,Kobieta,2022-06-04_02h12.36.569,task,2021.1.4,Win32,59.89458553,628b806c463b948bc644b84f,629af6f3871db084a5397aa9,,,,,,,,,,,,,,,,,,,,,,,4,,,,,,,,,,Task,21,(10/2) - 1,4,,,,,,,,,,,,,,,,,,,1,,,,,,,,,,,,,,,,,,,,,,,"[""4""]",1,0,0,0,20,1,[2.2504999999998745],,,,,,,,,,,,,,,,,,
,,,,,,,,,,615e8d0ac26e9a2f04f94a6f,31,Kobieta,2022-06-04_02h12.36.569,task,2021.1.4,Win32,59.89458553,628b806c463b948bc644b84f,629af6f3871db084a5397aa9,,,,,,,,,,X V Q F H G B L J M P D K C T S W R N Z,,,,,,,,,,,,,,,,,,,,,,,,,,,,,,,,,,,,,,,,,,,,,,,,,,,,,,,,,,,,,,,,,,,,,,,,,,,,2,0,2,0,1,,,,,,,,,,,,,
,,,,,,,,,,615e8d0ac26e9a2f04f94a6f,31,Kobieta,2022-06-04_02h12.36.569,task,2021.1.4,Win32,59.89458553,628b806c463b948bc644b84f,629af6f3871db084a5397aa9,,,,,,,,,,,,,,,,,,,,,,,1,,,,,,,,,,Task,16,(3x8) - 15,9,,,,,,,,,,,,,,,,,,,0,,,,,,,,,,,,,,,,,,,,,,,"[""1""]",0,0,0,0,15,1,[3.782299999952329],,,,,,,,,,,,,,,,,,
,,,,,,,,,,615e8d0ac26e9a2f04f94a6f,31,Kobieta,2022-06-04_02h12.36.569,task,2021.1.4,Win32,59.89458553,628b806c463b948bc644b84f,629af6f3871db084a5397aa9,,,,,,,,,,,,,,,,,,,,,,,9,,,,,,,,,,Task,24,(2x2) + 5,9,,,,,,,,,,,,,,,,,,,1,,,,,,,,,,,,,,,,,,,,,,,"[""9""]",1,0,1,1,23,1,[5.383299999952442],,,,,,,,,,,,,,,,,,
,,,,,,,,,,615e8d0ac26e9a2f04f94a6f,31,Kobieta,2022-06-04_02h12.36.569,task,2021.1.4,Win32,59.89458553,628b806c463b948bc644b84f,629af6f3871db084a5397aa9,,,,,,,,,,X V Q F H G B L J M P D K C T S W R N Z,,,,,,,,,,,,,,,,,,,,,,,,,,,,,,,,,,,,,,,,,,,,,,,,,,,,,,,,,,,,,,,,,,,,,,,,,,,,3,0,3,0,1,,,,,,,,,,,,,
,,,,,,,,,,615e8d0ac26e9a2f04f94a6f,31,Kobieta,2022-06-04_02h12.36.569,task,2021.1.4,Win32,59.89458553,628b806c463b948bc644b84f,629af6f3871db084a5397aa9,,,,,,,,,,,,,,,,,,,,,,,1,,,,,,,,,,Task,1,(12/6) - 1,1,,,,,,,,,,,,,,,,,,,1,,,,,,,,,,,,,,,,,,,,,,,"[""1""]",1,0,0,0,0,1,[5.148999999999887],,,,,,,,,,,,,,,,,,
,,,,,,,,,,615e8d0ac26e9a2f04f94a6f,31,Kobieta,2022-06-04_02h12.36.569,task,2021.1.4,Win32,59.89458553,628b806c463b948bc644b84f,629af6f3871db084a5397aa9,,,,,,,,,,X V Q F H G B L J M P D K C T S W R N Z,,,,,,,,,,,,,,,,,,,,,,,,,,,,,,,,,,,,,,,,,,,,,,,,,,,,,,,,,,,,,,,,,,,,,,,,,,,,4,0,4,0,1,,,,,,,,,,,,,
,,,,,,,,,,615e8d0ac26e9a2f04f94a6f,31,Kobieta,2022-06-04_02h12.36.569,task,2021.1.4,Win32,59.89458553,628b806c463b948bc644b84f,629af6f3871db084a5397aa9,,,,,,,,,,,,,,,,,,,,,,,0,,,,,,,,,,Task,2,(2x2) - 2,2,,,,,,,,,,,,,,,,,,,0,,,,,,,,,,,,,,,,,,,,,,,"[""0""]",0,0,0,0,1,1,[2.4501999998092288],,,,,,,,,,,,,,,,,,
,,,,,,,,,,615e8d0ac26e9a2f04f94a6f,31,Kobieta,2022-06-04_02h12.36.569,task,2021.1.4,Win32,59.89458553,628b806c463b948bc644b84f,629af6f3871db084a5397aa9,,,,,,,,,,,,,,,,,,,,,,,5,,,,,,,,,,Task,29,(3x8) - 19 ,5,,,,,,,,,,,,,,,,,,,1,,,,,,,,,,,,,,,,,,,,,,,"[""5""]",1,0,1,1,28,1,[6.822700000047689],,,,,,,,,,,,,,,,,,
,,,,,,,,,,615e8d0ac26e9a2f04f94a6f,31,Kobieta,2022-06-04_02h12.36.569,task,2021.1.4,Win32,59.89458553,628b806c463b948bc644b84f,629af6f3871db084a5397aa9,,,,,,,,,,X V Q F H G B L J M P D K C T S W R N Z,,,,,,,,,,,,,,,,,,,,,,,,,,,,,,,,,,,,,,,,,,,,,,,,,,,,,,,,,,,,,,,,,,,,,,,,,,,,5,0,5,0,1,,,,,,,,,,,,,
,,,,,,,,,,615e8d0ac26e9a2f04f94a6f,31,Kobieta,2022-06-04_02h12.36.569,task,2021.1.4,Win32,59.89458553,628b806c463b948bc644b84f,629af6f3871db084a5397aa9,,,,,,,,,,,,,,,,,,,,,,,4,,,,,,,,,,Task,21,(10/2) - 1,4,,,,,,,,,,,,,,,,,,,1,,,,,,,,,,,,,,,,,,,,,,,"[""4""]",1,0,0,0,20,1,[3.3849000000952856],,,,,,,,,,,,,,,,,,
,,,,,,,,,,615e8d0ac26e9a2f04f94a6f,31,Kobieta,2022-06-04_02h12.36.569,task,2021.1.4,Win32,59.89458553,628b806c463b948bc644b84f,629af6f3871db084a5397aa9,,,,,,,,,,X V Q F H G B L J M P D K C T S W R N Z,,,,,,,,,,,,,,,,,,,,,,,,,,,,,,,,,,,,,,,,,,,,,,,,,,,,,,,,,,,,,,,,,,,,,,,,,,,,6,0,6,0,1,,,,,,,,,,,,,
,,,,,,,,,,615e8d0ac26e9a2f04f94a6f,31,Kobieta,2022-06-04_02h12.36.569,task,2021.1.4,Win32,59.89458553,628b806c463b948bc644b84f,629af6f3871db084a5397aa9,,,,,,,,,,,,,,,,,,,,,,,,,,,,,,,,,,,,,,,,,,,,,,,,,,,,,,,,,,,,,,,,,,,,,,,,,,,,,,,,,,,,,,,,,,,rnhvtx,"[""r"",""n"",""h"",""v"",""t"",""x""]",0,"[1.8864999999998417,2.721199999809187,3.045299999952249,5.856199999809178,6.921899999856805,7.290799999952242,8.856399999856876]",0,RNHVTXZ,5,0,5,0,1,,
,,,,,,,,,,615e8d0ac26e9a2f04f94a6f,31,Kobieta,2022-06-04_02h12.36.569,task,2021.1.4,Win32,59.89458553,628b806c463b948bc644b84f,629af6f3871db084a5397aa9,,,,,,,,,,,,,,,,,,,,,,,1,,,,,,,,,,Task,7,(3x7) - 12,9,,,,,,,,,,,,,,,,,,,0,,,,,,,,,,,,,,,,,,,,,,,"[""1""]",0,0,0,0,6,1,[3.6486999998094234],,,,,,,,,,,,,,,,,,
,,,,,,,,,,615e8d0ac26e9a2f04f94a6f,31,Kobieta,2022-06-04_02h12.36.569,task,2021.1.4,Win32,59.89458553,628b806c463b948bc644b84f,629af6f3871db084a5397aa9,,,,,,,,,,,,,,,,,,,,,,,0,,,,,,,,,,Task,33,(1/1) - 1,0,,,,,,,,,,,,,,,,,,,1,,,,,,,,,,,,,,,,,,,,,,,"[""0""]",1,0,1,1,32,1,[3.5210999999046635],,,,,,,,,,,,,,,,,,
,,,,,,,,,,615e8d0ac26e9a2f04f94a6f,31,Kobieta,2022-06-04_02h12.36.569,task,2021.1.4,Win32,59.89458553,628b806c463b948bc644b84f,629af6f3871db084a5397aa9,,,,,,,,,,X V Q F H G B L J M P D K C T S W R N Z,,,,,,,,,,,,,,,,,,,,,,,,,,,,,,,,,,,,,,,,,,,,,,,,,,,,,,,,,,,,,,,,,,,,,,,,,,,,0,0,0,0,1,,,,,,,,,,,,,
,,,,,,,,,,615e8d0ac26e9a2f04f94a6f,31,Kobieta,2022-06-04_02h12.36.569,task,2021.1.4,Win32,59.89458553,628b806c463b948bc644b84f,629af6f3871db084a5397aa9,,,,,,,,,,,,,,,,,,,,,,,5,,,,,,,,,,Task,12,(4x4) - 11,5,,,,,,,,,,,,,,,,,,,1,,,,,,,,,,,,,,,,,,,,,,,"[""5""]",1,0,0,0,11,1,[5.058900000095491],,,,,,,,,,,,,,,,,,
,,,,,,,,,,615e8d0ac26e9a2f04f94a6f,31,Kobieta,2022-06-04_02h12.36.569,task,2021.1.4,Win32,59.89458553,628b806c463b948bc644b84f,629af6f3871db084a5397aa9,,,,,,,,,,X V Q F H G B L J M P D K C T S W R N Z,,,,,,,,,,,,,,,,,,,,,,,,,,,,,,,,,,,,,,,,,,,,,,,,,,,,,,,,,,,,,,,,,,,,,,,,,,,,1,0,1,0,1,,,,,,,,,,,,,
,,,,,,,,,,615e8d0ac26e9a2f04f94a6f,31,Kobieta,2022-06-04_02h12.36.569,task,2021.1.4,Win32,59.89458553,628b806c463b948bc644b84f,629af6f3871db084a5397aa9,,,,,,,,,,,,,,,,,,,,,,,1,,,,,,,,,,Task,18,(16/4) - 3,1,,,,,,,,,,,,,,,,,,,1,,,,,,,,,,,,,,,,,,,,,,,"[""1""]",1,0,0,0,17,1,[3.0153999998569816],,,,,,,,,,,,,,,,,,
,,,,,,,,,,615e8d0ac26e9a2f04f94a6f,31,Kobieta,2022-06-04_02h12.36.569,task,2021.1.4,Win32,59.89458553,628b806c463b948bc644b84f,629af6f3871db084a5397aa9,,,,,,,,,,X V Q F H G B L J M P D K C T S W R N Z,,,,,,,,,,,,,,,,,,,,,,,,,,,,,,,,,,,,,,,,,,,,,,,,,,,,,,,,,,,,,,,,,,,,,,,,,,,,2,0,2,0,1,,,,,,,,,,,,,
,,,,,,,,,,615e8d0ac26e9a2f04f94a6f,31,Kobieta,2022-06-04_02h12.36.569,task,2021.1.4,Win32,59.89458553,628b806c463b948bc644b84f,629af6f3871db084a5397aa9,,,,,,,,,,,,,,,,,,,,,,,6,,,,,,,,,,Task,30,(6/3) + 4 ,6,,,,,,,,,,,,,,,,,,,1,,,,,,,,,,,,,,,,,,,,,,,"[""6""]",1,0,0,0,29,1,[4.017900000095324],,,,,,,,,,,,,,,,,,
,,,,,,,,,,615e8d0ac26e9a2f04f94a6f,31,Kobieta,2022-06-04_02h12.36.569,task,2021.1.4,Win32,59.89458553,628b806c463b948bc644b84f,629af6f3871db084a5397aa9,,,,,,,,,,X V Q F H G B L J M P D K C T S W R N Z,,,,,,,,,,,,,,,,,,,,,,,,,,,,,,,,,,,,,,,,,,,,,,,,,,,,,,,,,,,,,,,,,,,,,,,,,,,,3,0,3,0,1,,,,,,,,,,,,,
,,,,,,,,,,615e8d0ac26e9a2f04f94a6f,31,Kobieta,2022-06-04_02h12.36.569,task,2021.1.4,Win32,59.89458553,628b806c463b948bc644b84f,629af6f3871db084a5397aa9,,,,,,,,,,,,,,,,,,,,,,,1,,,,,,,,,,Task,34,(9/3) - 2,1,,,,,,,,,,,,,,,,,,,1,,,,,,,,,,,,,,,,,,,,,,,"[""1""]",1,0,0,0,33,1,[3.198899999857076],,,,,,,,,,,,,,,,,,
,,,,,,,,,,615e8d0ac26e9a2f04f94a6f,31,Kobieta,2022-06-04_02h12.36.569,task,2021.1.4,Win32,59.89458553,628b806c463b948bc644b84f,629af6f3871db084a5397aa9,,,,,,,,,,X V Q F H G B L J M P D K C T S W R N Z,,,,,,,,,,,,,,,,,,,,,,,,,,,,,,,,,,,,,,,,,,,,,,,,,,,,,,,,,,,,,,,,,,,,,,,,,,,,4,0,4,0,1,,,,,,,,,,,,,
,,,,,,,,,,615e8d0ac26e9a2f04f94a6f,31,Kobieta,2022-06-04_02h12.36.569,task,2021.1.4,Win32,59.89458553,628b806c463b948bc644b84f,629af6f3871db084a5397aa9,,,,,,,,,,,,,,,,,,,,,,,1,,,,,,,,,,Task,9,(3x7) - 20,1,,,,,,,,,,,,,,,,,,,1,,,,,,,,,,,,,,,,,,,,,,,"[""1""]",1,0,0,0,8,1,[2.4838000001907403],,,,,,,,,,,,,,,,,,
,,,,,,,,,,615e8d0ac26e9a2f04f94a6f,31,Kobieta,2022-06-04_02h12.36.569,task,2021.1.4,Win32,59.89458553,628b806c463b948bc644b84f,629af6f3871db084a5397aa9,,,,,,,,,,X V Q F H G B L J M P D K C T S W R N Z,,,,,,,,,,,,,,,,,,,,,,,,,,,,,,,,,,,,,,,,,,,,,,,,,,,,,,,,,,,,,,,,,,,,,,,,,,,,5,0,5,0,1,,,,,,,,,,,,,
,,,,,,,,,,615e8d0ac26e9a2f04f94a6f,31,Kobieta,2022-06-04_02h12.36.569,task,2021.1.4,Win32,59.89458553,628b806c463b948bc644b84f,629af6f3871db084a5397aa9,,,,,,,,,,,,,,,,,,,,,,,3,,,,,,,,,,Task,19,(6/2) - 1,2,,,,,,,,,,,,,,,,,,,0,,,,,,,,,,,,,,,,,,,,,,,"[""3""]",0,0,0,0,18,1,[5.2323999998568524],,,,,,,,,,,,,,,,,,
,,,,,,,,,,615e8d0ac26e9a2f04f94a6f,31,Kobieta,2022-06-04_02h12.36.569,task,2021.1.4,Win32,59.89458553,628b806c463b948bc644b84f,629af6f3871db084a5397aa9,,,,,,,,,,,,,,,,,,,,,,,7,,,,,,,,,,Task,38,(4x6) - 17,7,,,,,,,,,,,,,,,,,,,1,,,,,,,,,,,,,,,,,,,,,,,"[""7""]",1,0,1,1,37,1,[5.5370999999045125],,,,,,,,,,,,,,,,,,
,,,,,,,,,,615e8d0ac26e9a2f04f94a6f,31,Kobieta,2022-06-04_02h12.36.569,task,2021.1.4,Win32,59.89458553,628b806c463b948bc644b84f,629af6f3871db084a5397aa9,,,,,,,,,,X V Q F H G B L J M P D K C T S W R N Z,,,,,,,,,,,,,,,,,,,,,,,,,,,,,,,,,,,,,,,,,,,,,,,,,,,,,,,,,,,,,,,,,,,,,,,,,,,,6,0,6,0,1,,,,,,,,,,,,,
,,,,,,,,,,615e8d0ac26e9a2f04f94a6f,31,Kobieta,2022-06-04_02h12.36.569,task,2021.1.4,Win32,59.89458553,628b806c463b948bc644b84f,629af6f3871db084a5397aa9,,,,,,,,,,,,,,,,,,,,,,,,,,,,,,,,,,,,,,,,,,,,,,,,,,,,,,,,,,,,,,,,,,,,,,,,,,,,,,,,,,,,,,,,,,,mjxvkdh,"[""m"",""j"",""x"",""v"",""k"",""d"",""h""]",0,"[1.7690999999047108,2.2037000000477747,3.6547999999522744,4.754500000000007,5.655299999952376,6.688499999999976,9.123299999952451,9.971099999904709]",0,MJFXKDB,6,0,6,0,1,,
,,,,,,,,,,615e8d0ac26e9a2f04f94a6f,31,Kobieta,2022-06-04_02h12.36.569,task,2021.1.4,Win32,59.89458553,628b806c463b948bc644b84f,629af6f3871db084a5397aa9,,,,,,,,,,,,,,,,,,,,,,,,,,,,,,,,,,,,,,,,,,,,,,,,,,,,,,,,,,,,,,,,,,,,,,,,,,,,,,,,,,,,,,,,,,,,,,,,,,,,,,space,4.3524
