key_resp_15.keys,key_resp_15.rt,key_resp_13.keys,key_resp_13.corr,ranodm_loop.thisRepN,ranodm_loop.thisTrialN,ranodm_loop.thisN,ranodm_loop.thisIndex,ranodm_loop.ran,participant,Wiek*,Płeć,date,expName,psychopyVersion,OS,frameRate,study_id,session,key_resp_13.rt,key_resp_16.keys,key_resp_16.rt,key_resp_4.keys,key_resp_4.rt,next_letter.thisRepN,next_letter.thisTrialN,next_letter.thisN,next_letter.thisIndex,next_letter.ran,letter,simple_recall,key_resp_5.keys,key_resp_5.rt,simple_recall_corr,simple_recall_corrkeys,next_level.thisRepN,next_level.thisTrialN,next_level.thisN,next_level.thisIndex,next_level.ran,key_resp_2.keys,key_resp_2.rt,digit_answer,key_resp.keys,key_resp.corr,key_resp.rt,RT_list,next_equation.thisRepN,next_equation.thisTrialN,next_equation.thisN,next_equation.thisIndex,next_equation.ran,Task,Trial,Problem,Operation_answer,processing_score,sumRT,meanRT,sumdiff,sd,RT,key_resp_3.keys,key_resp_3.rt,repeat_practice.thisRepN,repeat_practice.thisTrialN,repeat_practice.thisN,repeat_practice.thisIndex,repeat_practice.ran,key_resp_6.keys,key_resp_6.rt,key_resp_11.keys,key_resp_11.corr,key_resp_11.rt,operation_correct,repeat_if_wrong_prac.thisRepN,repeat_if_wrong_prac.thisTrialN,repeat_if_wrong_prac.thisN,repeat_if_wrong_prac.thisIndex,repeat_if_wrong_prac.ran,span_size_prac.thisRepN,span_size_prac.thisTrialN,span_size_prac.thisN,span_size_prac.thisIndex,span_size_prac.ran,complex_recall_practice,key_resp_9.keys,key_resp_9.corr,key_resp_9.rt,complex_prac_corr,span_recall_prac.thisRepN,span_recall_prac.thisTrialN,span_recall_prac.thisN,span_recall_prac.thisIndex,span_recall_prac.ran,key_resp_10.keys,key_resp_10.rt,key_resp_7.keys,key_resp_7.corr,key_resp_7.rt,repeat_if_wrong.thisRepN,repeat_if_wrong.thisTrialN,repeat_if_wrong.thisN,repeat_if_wrong.thisIndex,repeat_if_wrong.ran,span_size.thisRepN,span_size.thisTrialN,span_size.thisN,span_size.thisIndex,span_size.ran,complex_recall,key_resp_8.keys,key_resp_8.corr,key_resp_8.rt,complex_recall_corr,complex_recall_corrkeys,span_recall.thisRepN,span_recall.thisTrialN,span_recall.thisN,span_recall.thisIndex,span_recall.ran,key_resp_12.keys,key_resp_12.rt
space,11.8604,,0,0,0,0,0,1,616d3fe2152e4765cda77ae8,36,Mężczyzna,2022-06-04_08h47.20.713,task,2021.1.4,Win32,144.1337561,628b806c463b948bc644b84f,629afea5ca11e57e234c6f5e,,,,,,,,,,,,,,,,,,,,,,,,,,,,,,,,,,,,,,,,,,,,,,,,,,,,,,,,,,,,,,,,,,,,,,,,,,,,,,,,,,,,,,,,,,,,,,,,,,,,,,,,
,,,0,1,0,1,0,1,616d3fe2152e4765cda77ae8,36,Mężczyzna,2022-06-04_08h47.20.713,task,2021.1.4,Win32,144.1337561,628b806c463b948bc644b84f,629afea5ca11e57e234c6f5e,,,,,,,,,,,,,,,,,,,,,,,,,,,,,,,,,,,,,,,,,,,,,,,,,,,,,,,,,,,,,,,,,,,,,,,,,,,,,,,,,,,,,,,,,,,,,,,,,,,,,,,,
,,"[""period""]",0,2,0,2,0,1,616d3fe2152e4765cda77ae8,36,Mężczyzna,2022-06-04_08h47.20.713,task,2021.1.4,Win32,144.1337561,628b806c463b948bc644b84f,629afea5ca11e57e234c6f5e,[0.38209999990462507],,,,,,,,,,,,,,,,,,,,,,,,,,,,,,,,,,,,,,,,,,,,,,,,,,,,,,,,,,,,,,,,,,,,,,,,,,,,,,,,,,,,,,,,,,,,,,,,,,,,,,,
,,"[""comma""]",0,3,0,3,0,1,616d3fe2152e4765cda77ae8,36,Mężczyzna,2022-06-04_08h47.20.713,task,2021.1.4,Win32,144.1337561,628b806c463b948bc644b84f,629afea5ca11e57e234c6f5e,[0.2016000001430598],,,,,,,,,,,,,,,,,,,,,,,,,,,,,,,,,,,,,,,,,,,,,,,,,,,,,,,,,,,,,,,,,,,,,,,,,,,,,,,,,,,,,,,,,,,,,,,,,,,,,,,
,,"[""comma""]",0,4,0,4,0,1,616d3fe2152e4765cda77ae8,36,Mężczyzna,2022-06-04_08h47.20.713,task,2021.1.4,Win32,144.1337561,628b806c463b948bc644b84f,629afea5ca11e57e234c6f5e,[0.24329999995231333],,,,,,,,,,,,,,,,,,,,,,,,,,,,,,,,,,,,,,,,,,,,,,,,,,,,,,,,,,,,,,,,,,,,,,,,,,,,,,,,,,,,,,,,,,,,,,,,,,,,,,,
,,"[""comma""]",0,5,0,5,0,1,616d3fe2152e4765cda77ae8,36,Mężczyzna,2022-06-04_08h47.20.713,task,2021.1.4,Win32,144.1337561,628b806c463b948bc644b84f,629afea5ca11e57e234c6f5e,[0.2365000000000066],,,,,,,,,,,,,,,,,,,,,,,,,,,,,,,,,,,,,,,,,,,,,,,,,,,,,,,,,,,,,,,,,,,,,,,,,,,,,,,,,,,,,,,,,,,,,,,,,,,,,,,
,,"[""comma""]",0,6,0,6,0,1,616d3fe2152e4765cda77ae8,36,Mężczyzna,2022-06-04_08h47.20.713,task,2021.1.4,Win32,144.1337561,628b806c463b948bc644b84f,629afea5ca11e57e234c6f5e,[0.25720000004768906],,,,,,,,,,,,,,,,,,,,,,,,,,,,,,,,,,,,,,,,,,,,,,,,,,,,,,,,,,,,,,,,,,,,,,,,,,,,,,,,,,,,,,,,,,,,,,,,,,,,,,,
,,"[""period""]",0,7,0,7,0,1,616d3fe2152e4765cda77ae8,36,Mężczyzna,2022-06-04_08h47.20.713,task,2021.1.4,Win32,144.1337561,628b806c463b948bc644b84f,629afea5ca11e57e234c6f5e,[0.2158999998569584],,,,,,,,,,,,,,,,,,,,,,,,,,,,,,,,,,,,,,,,,,,,,,,,,,,,,,,,,,,,,,,,,,,,,,,,,,,,,,,,,,,,,,,,,,,,,,,,,,,,,,,
,,"[""comma""]",0,8,0,8,0,1,616d3fe2152e4765cda77ae8,36,Mężczyzna,2022-06-04_08h47.20.713,task,2021.1.4,Win32,144.1337561,628b806c463b948bc644b84f,629afea5ca11e57e234c6f5e,[0.20359999990463962],,,,,,,,,,,,,,,,,,,,,,,,,,,,,,,,,,,,,,,,,,,,,,,,,,,,,,,,,,,,,,,,,,,,,,,,,,,,,,,,,,,,,,,,,,,,,,,,,,,,,,,
,,"[""period""]",0,9,0,9,0,1,616d3fe2152e4765cda77ae8,36,Mężczyzna,2022-06-04_08h47.20.713,task,2021.1.4,Win32,144.1337561,628b806c463b948bc644b84f,629afea5ca11e57e234c6f5e,[0.21919999980926264],,,,,,,,,,,,,,,,,,,,,,,,,,,,,,,,,,,,,,,,,,,,,,,,,,,,,,,,,,,,,,,,,,,,,,,,,,,,,,,,,,,,,,,,,,,,,,,,,,,,,,,
,,"[""comma""]",0,10,0,10,0,1,616d3fe2152e4765cda77ae8,36,Mężczyzna,2022-06-04_08h47.20.713,task,2021.1.4,Win32,144.1337561,628b806c463b948bc644b84f,629afea5ca11e57e234c6f5e,[0.21079999995231447],,,,,,,,,,,,,,,,,,,,,,,,,,,,,,,,,,,,,,,,,,,,,,,,,,,,,,,,,,,,,,,,,,,,,,,,,,,,,,,,,,,,,,,,,,,,,,,,,,,,,,,
,,"[""period"",""period""]",0,11,0,11,0,1,616d3fe2152e4765cda77ae8,36,Mężczyzna,2022-06-04_08h47.20.713,task,2021.1.4,Win32,144.1337561,628b806c463b948bc644b84f,629afea5ca11e57e234c6f5e,"[0.19089999985695272,1.9127000000476784]",,,,,,,,,,,,,,,,,,,,,,,,,,,,,,,,,,,,,,,,,,,,,,,,,,,,,,,,,,,,,,,,,,,,,,,,,,,,,,,,,,,,,,,,,,,,,,,,,,,,,,,
,,,0,12,0,12,0,1,616d3fe2152e4765cda77ae8,36,Mężczyzna,2022-06-04_08h47.20.713,task,2021.1.4,Win32,144.1337561,628b806c463b948bc644b84f,629afea5ca11e57e234c6f5e,,,,,,,,,,,,,,,,,,,,,,,,,,,,,,,,,,,,,,,,,,,,,,,,,,,,,,,,,,,,,,,,,,,,,,,,,,,,,,,,,,,,,,,,,,,,,,,,,,,,,,,,
,,"[""comma""]",0,13,0,13,0,1,616d3fe2152e4765cda77ae8,36,Mężczyzna,2022-06-04_08h47.20.713,task,2021.1.4,Win32,144.1337561,628b806c463b948bc644b84f,629afea5ca11e57e234c6f5e,[0.2505000000000024],,,,,,,,,,,,,,,,,,,,,,,,,,,,,,,,,,,,,,,,,,,,,,,,,,,,,,,,,,,,,,,,,,,,,,,,,,,,,,,,,,,,,,,,,,,,,,,,,,,,,,,
,,"[""period""]",0,14,0,14,0,1,616d3fe2152e4765cda77ae8,36,Mężczyzna,2022-06-04_08h47.20.713,task,2021.1.4,Win32,144.1337561,628b806c463b948bc644b84f,629afea5ca11e57e234c6f5e,[0.25029999995231833],,,,,,,,,,,,,,,,,,,,,,,,,,,,,,,,,,,,,,,,,,,,,,,,,,,,,,,,,,,,,,,,,,,,,,,,,,,,,,,,,,,,,,,,,,,,,,,,,,,,,,,
,,"[""comma""]",0,15,0,15,0,1,616d3fe2152e4765cda77ae8,36,Mężczyzna,2022-06-04_08h47.20.713,task,2021.1.4,Win32,144.1337561,628b806c463b948bc644b84f,629afea5ca11e57e234c6f5e,[0.27120000004768485],,,,,,,,,,,,,,,,,,,,,,,,,,,,,,,,,,,,,,,,,,,,,,,,,,,,,,,,,,,,,,,,,,,,,,,,,,,,,,,,,,,,,,,,,,,,,,,,,,,,,,,
,,"[""period""]",0,16,0,16,0,1,616d3fe2152e4765cda77ae8,36,Mężczyzna,2022-06-04_08h47.20.713,task,2021.1.4,Win32,144.1337561,628b806c463b948bc644b84f,629afea5ca11e57e234c6f5e,[0.43059999990462927],,,,,,,,,,,,,,,,,,,,,,,,,,,,,,,,,,,,,,,,,,,,,,,,,,,,,,,,,,,,,,,,,,,,,,,,,,,,,,,,,,,,,,,,,,,,,,,,,,,,,,,
,,"[""comma""]",0,17,0,17,0,1,616d3fe2152e4765cda77ae8,36,Mężczyzna,2022-06-04_08h47.20.713,task,2021.1.4,Win32,144.1337561,628b806c463b948bc644b84f,629afea5ca11e57e234c6f5e,[0.2574999999999932],,,,,,,,,,,,,,,,,,,,,,,,,,,,,,,,,,,,,,,,,,,,,,,,,,,,,,,,,,,,,,,,,,,,,,,,,,,,,,,,,,,,,,,,,,,,,,,,,,,,,,,
,,"[""comma""]",0,18,0,18,0,1,616d3fe2152e4765cda77ae8,36,Mężczyzna,2022-06-04_08h47.20.713,task,2021.1.4,Win32,144.1337561,628b806c463b948bc644b84f,629afea5ca11e57e234c6f5e,[0.2941000001430467],,,,,,,,,,,,,,,,,,,,,,,,,,,,,,,,,,,,,,,,,,,,,,,,,,,,,,,,,,,,,,,,,,,,,,,,,,,,,,,,,,,,,,,,,,,,,,,,,,,,,,,
,,"[""period""]",0,19,0,19,0,1,616d3fe2152e4765cda77ae8,36,Mężczyzna,2022-06-04_08h47.20.713,task,2021.1.4,Win32,144.1337561,628b806c463b948bc644b84f,629afea5ca11e57e234c6f5e,[0.23640000009537232],,,,,,,,,,,,,,,,,,,,,,,,,,,,,,,,,,,,,,,,,,,,,,,,,,,,,,,,,,,,,,,,,,,,,,,,,,,,,,,,,,,,,,,,,,,,,,,,,,,,,,,
,,"[""comma""]",0,20,0,20,0,1,616d3fe2152e4765cda77ae8,36,Mężczyzna,2022-06-04_08h47.20.713,task,2021.1.4,Win32,144.1337561,628b806c463b948bc644b84f,629afea5ca11e57e234c6f5e,[0.24309999990464348],,,,,,,,,,,,,,,,,,,,,,,,,,,,,,,,,,,,,,,,,,,,,,,,,,,,,,,,,,,,,,,,,,,,,,,,,,,,,,,,,,,,,,,,,,,,,,,,,,,,,,,
,,"[""period""]",0,21,0,21,0,1,616d3fe2152e4765cda77ae8,36,Mężczyzna,2022-06-04_08h47.20.713,task,2021.1.4,Win32,144.1337561,628b806c463b948bc644b84f,629afea5ca11e57e234c6f5e,[0.25690000009537073],,,,,,,,,,,,,,,,,,,,,,,,,,,,,,,,,,,,,,,,,,,,,,,,,,,,,,,,,,,,,,,,,,,,,,,,,,,,,,,,,,,,,,,,,,,,,,,,,,,,,,,
,,"[""period""]",0,22,0,22,0,1,616d3fe2152e4765cda77ae8,36,Mężczyzna,2022-06-04_08h47.20.713,task,2021.1.4,Win32,144.1337561,628b806c463b948bc644b84f,629afea5ca11e57e234c6f5e,[0.20610000014305285],,,,,,,,,,,,,,,,,,,,,,,,,,,,,,,,,,,,,,,,,,,,,,,,,,,,,,,,,,,,,,,,,,,,,,,,,,,,,,,,,,,,,,,,,,,,,,,,,,,,,,,
,,"[""period""]",0,23,0,23,0,1,616d3fe2152e4765cda77ae8,36,Mężczyzna,2022-06-04_08h47.20.713,task,2021.1.4,Win32,144.1337561,628b806c463b948bc644b84f,629afea5ca11e57e234c6f5e,[0.2245999999046262],,,,,,,,,,,,,,,,,,,,,,,,,,,,,,,,,,,,,,,,,,,,,,,,,,,,,,,,,,,,,,,,,,,,,,,,,,,,,,,,,,,,,,,,,,,,,,,,,,,,,,,
,,"[""comma""]",0,24,0,24,0,1,616d3fe2152e4765cda77ae8,36,Mężczyzna,2022-06-04_08h47.20.713,task,2021.1.4,Win32,144.1337561,628b806c463b948bc644b84f,629afea5ca11e57e234c6f5e,[0.25729999995232333],,,,,,,,,,,,,,,,,,,,,,,,,,,,,,,,,,,,,,,,,,,,,,,,,,,,,,,,,,,,,,,,,,,,,,,,,,,,,,,,,,,,,,,,,,,,,,,,,,,,,,,
,,"[""comma""]",0,25,0,25,0,1,616d3fe2152e4765cda77ae8,36,Mężczyzna,2022-06-04_08h47.20.713,task,2021.1.4,Win32,144.1337561,628b806c463b948bc644b84f,629afea5ca11e57e234c6f5e,[0.265700000047687],,,,,,,,,,,,,,,,,,,,,,,,,,,,,,,,,,,,,,,,,,,,,,,,,,,,,,,,,,,,,,,,,,,,,,,,,,,,,,,,,,,,,,,,,,,,,,,,,,,,,,,
,,"[""period""]",0,26,0,26,0,1,616d3fe2152e4765cda77ae8,36,Mężczyzna,2022-06-04_08h47.20.713,task,2021.1.4,Win32,144.1337561,628b806c463b948bc644b84f,629afea5ca11e57e234c6f5e,[0.23609999990463848],,,,,,,,,,,,,,,,,,,,,,,,,,,,,,,,,,,,,,,,,,,,,,,,,,,,,,,,,,,,,,,,,,,,,,,,,,,,,,,,,,,,,,,,,,,,,,,,,,,,,,,
,,"[""comma""]",0,27,0,27,0,1,616d3fe2152e4765cda77ae8,36,Mężczyzna,2022-06-04_08h47.20.713,task,2021.1.4,Win32,144.1337561,628b806c463b948bc644b84f,629afea5ca11e57e234c6f5e,[0.24029999995232743],,,,,,,,,,,,,,,,,,,,,,,,,,,,,,,,,,,,,,,,,,,,,,,,,,,,,,,,,,,,,,,,,,,,,,,,,,,,,,,,,,,,,,,,,,,,,,,,,,,,,,,
,,"[""comma""]",0,28,0,28,0,1,616d3fe2152e4765cda77ae8,36,Mężczyzna,2022-06-04_08h47.20.713,task,2021.1.4,Win32,144.1337561,628b806c463b948bc644b84f,629afea5ca11e57e234c6f5e,[0.26639999985695795],,,,,,,,,,,,,,,,,,,,,,,,,,,,,,,,,,,,,,,,,,,,,,,,,,,,,,,,,,,,,,,,,,,,,,,,,,,,,,,,,,,,,,,,,,,,,,,,,,,,,,,
,,"[""period""]",0,29,0,29,0,1,616d3fe2152e4765cda77ae8,36,Mężczyzna,2022-06-04_08h47.20.713,task,2021.1.4,Win32,144.1337561,628b806c463b948bc644b84f,629afea5ca11e57e234c6f5e,[0.3199000000953731],,,,,,,,,,,,,,,,,,,,,,,,,,,,,,,,,,,,,,,,,,,,,,,,,,,,,,,,,,,,,,,,,,,,,,,,,,,,,,,,,,,,,,,,,,,,,,,,,,,,,,,
,,"[""comma""]",0,30,0,30,0,1,616d3fe2152e4765cda77ae8,36,Mężczyzna,2022-06-04_08h47.20.713,task,2021.1.4,Win32,144.1337561,628b806c463b948bc644b84f,629afea5ca11e57e234c6f5e,[0.2709000000953665],,,,,,,,,,,,,,,,,,,,,,,,,,,,,,,,,,,,,,,,,,,,,,,,,,,,,,,,,,,,,,,,,,,,,,,,,,,,,,,,,,,,,,,,,,,,,,,,,,,,,,,
,,"[""period""]",0,31,0,31,0,1,616d3fe2152e4765cda77ae8,36,Mężczyzna,2022-06-04_08h47.20.713,task,2021.1.4,Win32,144.1337561,628b806c463b948bc644b84f,629afea5ca11e57e234c6f5e,[0.23670000004769065],,,,,,,,,,,,,,,,,,,,,,,,,,,,,,,,,,,,,,,,,,,,,,,,,,,,,,,,,,,,,,,,,,,,,,,,,,,,,,,,,,,,,,,,,,,,,,,,,,,,,,,
,,"[""comma""]",0,32,0,32,0,1,616d3fe2152e4765cda77ae8,36,Mężczyzna,2022-06-04_08h47.20.713,task,2021.1.4,Win32,144.1337561,628b806c463b948bc644b84f,629afea5ca11e57e234c6f5e,[0.23720000004766462],,,,,,,,,,,,,,,,,,,,,,,,,,,,,,,,,,,,,,,,,,,,,,,,,,,,,,,,,,,,,,,,,,,,,,,,,,,,,,,,,,,,,,,,,,,,,,,,,,,,,,,
,,"[""comma""]",0,33,0,33,0,1,616d3fe2152e4765cda77ae8,36,Mężczyzna,2022-06-04_08h47.20.713,task,2021.1.4,Win32,144.1337561,628b806c463b948bc644b84f,629afea5ca11e57e234c6f5e,[0.2918999998569518],,,,,,,,,,,,,,,,,,,,,,,,,,,,,,,,,,,,,,,,,,,,,,,,,,,,,,,,,,,,,,,,,,,,,,,,,,,,,,,,,,,,,,,,,,,,,,,,,,,,,,,
,,"[""comma""]",0,34,0,34,0,1,616d3fe2152e4765cda77ae8,36,Mężczyzna,2022-06-04_08h47.20.713,task,2021.1.4,Win32,144.1337561,628b806c463b948bc644b84f,629afea5ca11e57e234c6f5e,[0.30790000009537266],,,,,,,,,,,,,,,,,,,,,,,,,,,,,,,,,,,,,,,,,,,,,,,,,,,,,,,,,,,,,,,,,,,,,,,,,,,,,,,,,,,,,,,,,,,,,,,,,,,,,,,
,,"[""period""]",0,35,0,35,0,1,616d3fe2152e4765cda77ae8,36,Mężczyzna,2022-06-04_08h47.20.713,task,2021.1.4,Win32,144.1337561,628b806c463b948bc644b84f,629afea5ca11e57e234c6f5e,[0.23629999995230833],,,,,,,,,,,,,,,,,,,,,,,,,,,,,,,,,,,,,,,,,,,,,,,,,,,,,,,,,,,,,,,,,,,,,,,,,,,,,,,,,,,,,,,,,,,,,,,,,,,,,,,
,,"[""period""]",0,36,0,36,0,1,616d3fe2152e4765cda77ae8,36,Mężczyzna,2022-06-04_08h47.20.713,task,2021.1.4,Win32,144.1337561,628b806c463b948bc644b84f,629afea5ca11e57e234c6f5e,[0.4414999999999907],,,,,,,,,,,,,,,,,,,,,,,,,,,,,,,,,,,,,,,,,,,,,,,,,,,,,,,,,,,,,,,,,,,,,,,,,,,,,,,,,,,,,,,,,,,,,,,,,,,,,,,
,,"[""period""]",0,37,0,37,0,1,616d3fe2152e4765cda77ae8,36,Mężczyzna,2022-06-04_08h47.20.713,task,2021.1.4,Win32,144.1337561,628b806c463b948bc644b84f,629afea5ca11e57e234c6f5e,[0.27899999999999636],,,,,,,,,,,,,,,,,,,,,,,,,,,,,,,,,,,,,,,,,,,,,,,,,,,,,,,,,,,,,,,,,,,,,,,,,,,,,,,,,,,,,,,,,,,,,,,,,,,,,,,
,,"[""comma""]",0,38,0,38,0,1,616d3fe2152e4765cda77ae8,36,Mężczyzna,2022-06-04_08h47.20.713,task,2021.1.4,Win32,144.1337561,628b806c463b948bc644b84f,629afea5ca11e57e234c6f5e,[0.26400000000001],,,,,,,,,,,,,,,,,,,,,,,,,,,,,,,,,,,,,,,,,,,,,,,,,,,,,,,,,,,,,,,,,,,,,,,,,,,,,,,,,,,,,,,,,,,,,,,,,,,,,,,
,,"[""comma""]",0,39,0,39,0,1,616d3fe2152e4765cda77ae8,36,Mężczyzna,2022-06-04_08h47.20.713,task,2021.1.4,Win32,144.1337561,628b806c463b948bc644b84f,629afea5ca11e57e234c6f5e,[0.4653999998569418],,,,,,,,,,,,,,,,,,,,,,,,,,,,,,,,,,,,,,,,,,,,,,,,,,,,,,,,,,,,,,,,,,,,,,,,,,,,,,,,,,,,,,,,,,,,,,,,,,,,,,,
,,"[""period""]",0,40,0,40,0,1,616d3fe2152e4765cda77ae8,36,Mężczyzna,2022-06-04_08h47.20.713,task,2021.1.4,Win32,144.1337561,628b806c463b948bc644b84f,629afea5ca11e57e234c6f5e,[0.22530000019071394],,,,,,,,,,,,,,,,,,,,,,,,,,,,,,,,,,,,,,,,,,,,,,,,,,,,,,,,,,,,,,,,,,,,,,,,,,,,,,,,,,,,,,,,,,,,,,,,,,,,,,,
,,"[""comma""]",0,41,0,41,0,1,616d3fe2152e4765cda77ae8,36,Mężczyzna,2022-06-04_08h47.20.713,task,2021.1.4,Win32,144.1337561,628b806c463b948bc644b84f,629afea5ca11e57e234c6f5e,[0.23609999990463848],,,,,,,,,,,,,,,,,,,,,,,,,,,,,,,,,,,,,,,,,,,,,,,,,,,,,,,,,,,,,,,,,,,,,,,,,,,,,,,,,,,,,,,,,,,,,,,,,,,,,,,
,,"[""period""]",0,42,0,42,0,1,616d3fe2152e4765cda77ae8,36,Mężczyzna,2022-06-04_08h47.20.713,task,2021.1.4,Win32,144.1337561,628b806c463b948bc644b84f,629afea5ca11e57e234c6f5e,[0.237800000190731],,,,,,,,,,,,,,,,,,,,,,,,,,,,,,,,,,,,,,,,,,,,,,,,,,,,,,,,,,,,,,,,,,,,,,,,,,,,,,,,,,,,,,,,,,,,,,,,,,,,,,,
,,"[""period""]",0,43,0,43,0,1,616d3fe2152e4765cda77ae8,36,Mężczyzna,2022-06-04_08h47.20.713,task,2021.1.4,Win32,144.1337561,628b806c463b948bc644b84f,629afea5ca11e57e234c6f5e,[0.2172000000476828],,,,,,,,,,,,,,,,,,,,,,,,,,,,,,,,,,,,,,,,,,,,,,,,,,,,,,,,,,,,,,,,,,,,,,,,,,,,,,,,,,,,,,,,,,,,,,,,,,,,,,,
,,"[""comma""]",0,44,0,44,0,1,616d3fe2152e4765cda77ae8,36,Mężczyzna,2022-06-04_08h47.20.713,task,2021.1.4,Win32,144.1337561,628b806c463b948bc644b84f,629afea5ca11e57e234c6f5e,[0.25],,,,,,,,,,,,,,,,,,,,,,,,,,,,,,,,,,,,,,,,,,,,,,,,,,,,,,,,,,,,,,,,,,,,,,,,,,,,,,,,,,,,,,,,,,,,,,,,,,,,,,,
,,"[""comma""]",0,45,0,45,0,1,616d3fe2152e4765cda77ae8,36,Mężczyzna,2022-06-04_08h47.20.713,task,2021.1.4,Win32,144.1337561,628b806c463b948bc644b84f,629afea5ca11e57e234c6f5e,[0.23310000014305388],,,,,,,,,,,,,,,,,,,,,,,,,,,,,,,,,,,,,,,,,,,,,,,,,,,,,,,,,,,,,,,,,,,,,,,,,,,,,,,,,,,,,,,,,,,,,,,,,,,,,,,
,,"[""comma""]",0,46,0,46,0,1,616d3fe2152e4765cda77ae8,36,Mężczyzna,2022-06-04_08h47.20.713,task,2021.1.4,Win32,144.1337561,628b806c463b948bc644b84f,629afea5ca11e57e234c6f5e,[0.27109999990460665],,,,,,,,,,,,,,,,,,,,,,,,,,,,,,,,,,,,,,,,,,,,,,,,,,,,,,,,,,,,,,,,,,,,,,,,,,,,,,,,,,,,,,,,,,,,,,,,,,,,,,,
,,"[""period""]",0,47,0,47,0,1,616d3fe2152e4765cda77ae8,36,Mężczyzna,2022-06-04_08h47.20.713,task,2021.1.4,Win32,144.1337561,628b806c463b948bc644b84f,629afea5ca11e57e234c6f5e,[0.2393999998569427],,,,,,,,,,,,,,,,,,,,,,,,,,,,,,,,,,,,,,,,,,,,,,,,,,,,,,,,,,,,,,,,,,,,,,,,,,,,,,,,,,,,,,,,,,,,,,,,,,,,,,,
,,"[""comma""]",0,48,0,48,0,1,616d3fe2152e4765cda77ae8,36,Mężczyzna,2022-06-04_08h47.20.713,task,2021.1.4,Win32,144.1337561,628b806c463b948bc644b84f,629afea5ca11e57e234c6f5e,[0.24319999980926355],,,,,,,,,,,,,,,,,,,,,,,,,,,,,,,,,,,,,,,,,,,,,,,,,,,,,,,,,,,,,,,,,,,,,,,,,,,,,,,,,,,,,,,,,,,,,,,,,,,,,,,
,,"[""comma""]",0,49,0,49,0,1,616d3fe2152e4765cda77ae8,36,Mężczyzna,2022-06-04_08h47.20.713,task,2021.1.4,Win32,144.1337561,628b806c463b948bc644b84f,629afea5ca11e57e234c6f5e,[0.2946000001430775],,,,,,,,,,,,,,,,,,,,,,,,,,,,,,,,,,,,,,,,,,,,,,,,,,,,,,,,,,,,,,,,,,,,,,,,,,,,,,,,,,,,,,,,,,,,,,,,,,,,,,,
,,"[""period""]",0,50,0,50,0,1,616d3fe2152e4765cda77ae8,36,Mężczyzna,2022-06-04_08h47.20.713,task,2021.1.4,Win32,144.1337561,628b806c463b948bc644b84f,629afea5ca11e57e234c6f5e,[0.25020000004766985],,,,,,,,,,,,,,,,,,,,,,,,,,,,,,,,,,,,,,,,,,,,,,,,,,,,,,,,,,,,,,,,,,,,,,,,,,,,,,,,,,,,,,,,,,,,,,,,,,,,,,,
,,"[""period""]",0,51,0,51,0,1,616d3fe2152e4765cda77ae8,36,Mężczyzna,2022-06-04_08h47.20.713,task,2021.1.4,Win32,144.1337561,628b806c463b948bc644b84f,629afea5ca11e57e234c6f5e,[0.22130000019072327],,,,,,,,,,,,,,,,,,,,,,,,,,,,,,,,,,,,,,,,,,,,,,,,,,,,,,,,,,,,,,,,,,,,,,,,,,,,,,,,,,,,,,,,,,,,,,,,,,,,,,,
,,"[""period""]",0,52,0,52,0,1,616d3fe2152e4765cda77ae8,36,Mężczyzna,2022-06-04_08h47.20.713,task,2021.1.4,Win32,144.1337561,628b806c463b948bc644b84f,629afea5ca11e57e234c6f5e,[0.2638999998569602],,,,,,,,,,,,,,,,,,,,,,,,,,,,,,,,,,,,,,,,,,,,,,,,,,,,,,,,,,,,,,,,,,,,,,,,,,,,,,,,,,,,,,,,,,,,,,,,,,,,,,,
,,"[""comma""]",0,53,0,53,0,1,616d3fe2152e4765cda77ae8,36,Mężczyzna,2022-06-04_08h47.20.713,task,2021.1.4,Win32,144.1337561,628b806c463b948bc644b84f,629afea5ca11e57e234c6f5e,[0.25070000004768644],,,,,,,,,,,,,,,,,,,,,,,,,,,,,,,,,,,,,,,,,,,,,,,,,,,,,,,,,,,,,,,,,,,,,,,,,,,,,,,,,,,,,,,,,,,,,,,,,,,,,,,
,,"[""comma""]",0,54,0,54,0,1,616d3fe2152e4765cda77ae8,36,Mężczyzna,2022-06-04_08h47.20.713,task,2021.1.4,Win32,144.1337561,628b806c463b948bc644b84f,629afea5ca11e57e234c6f5e,[0.25020000004769827],,,,,,,,,,,,,,,,,,,,,,,,,,,,,,,,,,,,,,,,,,,,,,,,,,,,,,,,,,,,,,,,,,,,,,,,,,,,,,,,,,,,,,,,,,,,,,,,,,,,,,,
,,"[""period""]",0,55,0,55,0,1,616d3fe2152e4765cda77ae8,36,Mężczyzna,2022-06-04_08h47.20.713,task,2021.1.4,Win32,144.1337561,628b806c463b948bc644b84f,629afea5ca11e57e234c6f5e,[0.24729999995233243],,,,,,,,,,,,,,,,,,,,,,,,,,,,,,,,,,,,,,,,,,,,,,,,,,,,,,,,,,,,,,,,,,,,,,,,,,,,,,,,,,,,,,,,,,,,,,,,,,,,,,,
,,"[""comma""]",0,56,0,56,0,1,616d3fe2152e4765cda77ae8,36,Mężczyzna,2022-06-04_08h47.20.713,task,2021.1.4,Win32,144.1337561,628b806c463b948bc644b84f,629afea5ca11e57e234c6f5e,[0.22310000014306297],,,,,,,,,,,,,,,,,,,,,,,,,,,,,,,,,,,,,,,,,,,,,,,,,,,,,,,,,,,,,,,,,,,,,,,,,,,,,,,,,,,,,,,,,,,,,,,,,,,,,,,
,,"[""comma""]",0,57,0,57,0,1,616d3fe2152e4765cda77ae8,36,Mężczyzna,2022-06-04_08h47.20.713,task,2021.1.4,Win32,144.1337561,628b806c463b948bc644b84f,629afea5ca11e57e234c6f5e,[0.2592000000476844],,,,,,,,,,,,,,,,,,,,,,,,,,,,,,,,,,,,,,,,,,,,,,,,,,,,,,,,,,,,,,,,,,,,,,,,,,,,,,,,,,,,,,,,,,,,,,,,,,,,,,,
,,"[""period""]",0,58,0,58,0,1,616d3fe2152e4765cda77ae8,36,Mężczyzna,2022-06-04_08h47.20.713,task,2021.1.4,Win32,144.1337561,628b806c463b948bc644b84f,629afea5ca11e57e234c6f5e,[0.23900000000000432],,,,,,,,,,,,,,,,,,,,,,,,,,,,,,,,,,,,,,,,,,,,,,,,,,,,,,,,,,,,,,,,,,,,,,,,,,,,,,,,,,,,,,,,,,,,,,,,,,,,,,,
,,"[""comma""]",0,59,0,59,0,1,616d3fe2152e4765cda77ae8,36,Mężczyzna,2022-06-04_08h47.20.713,task,2021.1.4,Win32,144.1337561,628b806c463b948bc644b84f,629afea5ca11e57e234c6f5e,[0.264700000047668],,,,,,,,,,,,,,,,,,,,,,,,,,,,,,,,,,,,,,,,,,,,,,,,,,,,,,,,,,,,,,,,,,,,,,,,,,,,,,,,,,,,,,,,,,,,,,,,,,,,,,,
,,"[""comma""]",0,60,0,60,0,1,616d3fe2152e4765cda77ae8,36,Mężczyzna,2022-06-04_08h47.20.713,task,2021.1.4,Win32,144.1337561,628b806c463b948bc644b84f,629afea5ca11e57e234c6f5e,[0.2504999999999882],,,,,,,,,,,,,,,,,,,,,,,,,,,,,,,,,,,,,,,,,,,,,,,,,,,,,,,,,,,,,,,,,,,,,,,,,,,,,,,,,,,,,,,,,,,,,,,,,,,,,,,
,,"[""comma"",""period""]",0,61,0,61,0,1,616d3fe2152e4765cda77ae8,36,Mężczyzna,2022-06-04_08h47.20.713,task,2021.1.4,Win32,144.1337561,628b806c463b948bc644b84f,629afea5ca11e57e234c6f5e,"[0.24310000014304478,1.5214000000953831]",,,,,,,,,,,,,,,,,,,,,,,,,,,,,,,,,,,,,,,,,,,,,,,,,,,,,,,,,,,,,,,,,,,,,,,,,,,,,,,,,,,,,,,,,,,,,,,,,,,,,,,
,,,0,62,0,62,0,1,616d3fe2152e4765cda77ae8,36,Mężczyzna,2022-06-04_08h47.20.713,task,2021.1.4,Win32,144.1337561,628b806c463b948bc644b84f,629afea5ca11e57e234c6f5e,,,,,,,,,,,,,,,,,,,,,,,,,,,,,,,,,,,,,,,,,,,,,,,,,,,,,,,,,,,,,,,,,,,,,,,,,,,,,,,,,,,,,,,,,,,,,,,,,,,,,,,,
,,"[""period""]",0,63,0,63,0,1,616d3fe2152e4765cda77ae8,36,Mężczyzna,2022-06-04_08h47.20.713,task,2021.1.4,Win32,144.1337561,628b806c463b948bc644b84f,629afea5ca11e57e234c6f5e,[0.21699999999998454],,,,,,,,,,,,,,,,,,,,,,,,,,,,,,,,,,,,,,,,,,,,,,,,,,,,,,,,,,,,,,,,,,,,,,,,,,,,,,,,,,,,,,,,,,,,,,,,,,,,,,,
,,"[""comma""]",0,64,0,64,0,1,616d3fe2152e4765cda77ae8,36,Mężczyzna,2022-06-04_08h47.20.713,task,2021.1.4,Win32,144.1337561,628b806c463b948bc644b84f,629afea5ca11e57e234c6f5e,[0.25020000004769827],,,,,,,,,,,,,,,,,,,,,,,,,,,,,,,,,,,,,,,,,,,,,,,,,,,,,,,,,,,,,,,,,,,,,,,,,,,,,,,,,,,,,,,,,,,,,,,,,,,,,,,
,,"[""period""]",0,65,0,65,0,1,616d3fe2152e4765cda77ae8,36,Mężczyzna,2022-06-04_08h47.20.713,task,2021.1.4,Win32,144.1337561,628b806c463b948bc644b84f,629afea5ca11e57e234c6f5e,[0.25020000004769827],,,,,,,,,,,,,,,,,,,,,,,,,,,,,,,,,,,,,,,,,,,,,,,,,,,,,,,,,,,,,,,,,,,,,,,,,,,,,,,,,,,,,,,,,,,,,,,,,,,,,,,
,,"[""comma""]",0,66,0,66,0,1,616d3fe2152e4765cda77ae8,36,Mężczyzna,2022-06-04_08h47.20.713,task,2021.1.4,Win32,144.1337561,628b806c463b948bc644b84f,629afea5ca11e57e234c6f5e,[0.25709999990462507],,,,,,,,,,,,,,,,,,,,,,,,,,,,,,,,,,,,,,,,,,,,,,,,,,,,,,,,,,,,,,,,,,,,,,,,,,,,,,,,,,,,,,,,,,,,,,,,,,,,,,,
,,"[""period""]",0,67,0,67,0,1,616d3fe2152e4765cda77ae8,36,Mężczyzna,2022-06-04_08h47.20.713,task,2021.1.4,Win32,144.1337561,628b806c463b948bc644b84f,629afea5ca11e57e234c6f5e,[0.26420000004767985],,,,,,,,,,,,,,,,,,,,,,,,,,,,,,,,,,,,,,,,,,,,,,,,,,,,,,,,,,,,,,,,,,,,,,,,,,,,,,,,,,,,,,,,,,,,,,,,,,,,,,,
,,"[""comma""]",0,68,0,68,0,1,616d3fe2152e4765cda77ae8,36,Mężczyzna,2022-06-04_08h47.20.713,task,2021.1.4,Win32,144.1337561,628b806c463b948bc644b84f,629afea5ca11e57e234c6f5e,[0.2722000000476896],,,,,,,,,,,,,,,,,,,,,,,,,,,,,,,,,,,,,,,,,,,,,,,,,,,,,,,,,,,,,,,,,,,,,,,,,,,,,,,,,,,,,,,,,,,,,,,,,,,,,,,
,,"[""period""]",0,69,0,69,0,1,616d3fe2152e4765cda77ae8,36,Mężczyzna,2022-06-04_08h47.20.713,task,2021.1.4,Win32,144.1337561,628b806c463b948bc644b84f,629afea5ca11e57e234c6f5e,[0.2515000000000214],,,,,,,,,,,,,,,,,,,,,,,,,,,,,,,,,,,,,,,,,,,,,,,,,,,,,,,,,,,,,,,,,,,,,,,,,,,,,,,,,,,,,,,,,,,,,,,,,,,,,,,
,,"[""comma""]",0,70,0,70,0,1,616d3fe2152e4765cda77ae8,36,Mężczyzna,2022-06-04_08h47.20.713,task,2021.1.4,Win32,144.1337561,628b806c463b948bc644b84f,629afea5ca11e57e234c6f5e,[0.3095000000000141],,,,,,,,,,,,,,,,,,,,,,,,,,,,,,,,,,,,,,,,,,,,,,,,,,,,,,,,,,,,,,,,,,,,,,,,,,,,,,,,,,,,,,,,,,,,,,,,,,,,,,,
,,"[""period""]",0,71,0,71,0,1,616d3fe2152e4765cda77ae8,36,Mężczyzna,2022-06-04_08h47.20.713,task,2021.1.4,Win32,144.1337561,628b806c463b948bc644b84f,629afea5ca11e57e234c6f5e,[0.26420000004770827],,,,,,,,,,,,,,,,,,,,,,,,,,,,,,,,,,,,,,,,,,,,,,,,,,,,,,,,,,,,,,,,,,,,,,,,,,,,,,,,,,,,,,,,,,,,,,,,,,,,,,,
,,"[""comma""]",0,72,0,72,0,1,616d3fe2152e4765cda77ae8,36,Mężczyzna,2022-06-04_08h47.20.713,task,2021.1.4,Win32,144.1337561,628b806c463b948bc644b84f,629afea5ca11e57e234c6f5e,[0.21580000019073964],,,,,,,,,,,,,,,,,,,,,,,,,,,,,,,,,,,,,,,,,,,,,,,,,,,,,,,,,,,,,,,,,,,,,,,,,,,,,,,,,,,,,,,,,,,,,,,,,,,,,,,
,,"[""comma""]",0,73,0,73,0,1,616d3fe2152e4765cda77ae8,36,Mężczyzna,2022-06-04_08h47.20.713,task,2021.1.4,Win32,144.1337561,628b806c463b948bc644b84f,629afea5ca11e57e234c6f5e,[0.3686000001430614],,,,,,,,,,,,,,,,,,,,,,,,,,,,,,,,,,,,,,,,,,,,,,,,,,,,,,,,,,,,,,,,,,,,,,,,,,,,,,,,,,,,,,,,,,,,,,,,,,,,,,,
,,"[""comma""]",0,74,0,74,0,1,616d3fe2152e4765cda77ae8,36,Mężczyzna,2022-06-04_08h47.20.713,task,2021.1.4,Win32,144.1337561,628b806c463b948bc644b84f,629afea5ca11e57e234c6f5e,[0.28479999995232674],,,,,,,,,,,,,,,,,,,,,,,,,,,,,,,,,,,,,,,,,,,,,,,,,,,,,,,,,,,,,,,,,,,,,,,,,,,,,,,,,,,,,,,,,,,,,,,,,,,,,,,
,,"[""period""]",0,75,0,75,0,1,616d3fe2152e4765cda77ae8,36,Mężczyzna,2022-06-04_08h47.20.713,task,2021.1.4,Win32,144.1337561,628b806c463b948bc644b84f,629afea5ca11e57e234c6f5e,[0.2229000000953647],,,,,,,,,,,,,,,,,,,,,,,,,,,,,,,,,,,,,,,,,,,,,,,,,,,,,,,,,,,,,,,,,,,,,,,,,,,,,,,,,,,,,,,,,,,,,,,,,,,,,,,
,,"[""comma""]",0,76,0,76,0,1,616d3fe2152e4765cda77ae8,36,Mężczyzna,2022-06-04_08h47.20.713,task,2021.1.4,Win32,144.1337561,628b806c463b948bc644b84f,629afea5ca11e57e234c6f5e,[0.2987999999523083],,,,,,,,,,,,,,,,,,,,,,,,,,,,,,,,,,,,,,,,,,,,,,,,,,,,,,,,,,,,,,,,,,,,,,,,,,,,,,,,,,,,,,,,,,,,,,,,,,,,,,,
,,"[""period""]",0,77,0,77,0,1,616d3fe2152e4765cda77ae8,36,Mężczyzna,2022-06-04_08h47.20.713,task,2021.1.4,Win32,144.1337561,628b806c463b948bc644b84f,629afea5ca11e57e234c6f5e,[0.31270000004769827],,,,,,,,,,,,,,,,,,,,,,,,,,,,,,,,,,,,,,,,,,,,,,,,,,,,,,,,,,,,,,,,,,,,,,,,,,,,,,,,,,,,,,,,,,,,,,,,,,,,,,,
,,"[""comma""]",0,78,0,78,0,1,616d3fe2152e4765cda77ae8,36,Mężczyzna,2022-06-04_08h47.20.713,task,2021.1.4,Win32,144.1337561,628b806c463b948bc644b84f,629afea5ca11e57e234c6f5e,[0.29170000004768326],,,,,,,,,,,,,,,,,,,,,,,,,,,,,,,,,,,,,,,,,,,,,,,,,,,,,,,,,,,,,,,,,,,,,,,,,,,,,,,,,,,,,,,,,,,,,,,,,,,,,,,
,,"[""comma""]",0,79,0,79,0,1,616d3fe2152e4765cda77ae8,36,Mężczyzna,2022-06-04_08h47.20.713,task,2021.1.4,Win32,144.1337561,628b806c463b948bc644b84f,629afea5ca11e57e234c6f5e,[0.319500000000005],,,,,,,,,,,,,,,,,,,,,,,,,,,,,,,,,,,,,,,,,,,,,,,,,,,,,,,,,,,,,,,,,,,,,,,,,,,,,,,,,,,,,,,,,,,,,,,,,,,,,,,
,,"[""comma""]",0,80,0,80,0,1,616d3fe2152e4765cda77ae8,36,Mężczyzna,2022-06-04_08h47.20.713,task,2021.1.4,Win32,144.1337561,628b806c463b948bc644b84f,629afea5ca11e57e234c6f5e,[0.3477999999523149],,,,,,,,,,,,,,,,,,,,,,,,,,,,,,,,,,,,,,,,,,,,,,,,,,,,,,,,,,,,,,,,,,,,,,,,,,,,,,,,,,,,,,,,,,,,,,,,,,,,,,,
,,"[""comma""]",0,81,0,81,0,1,616d3fe2152e4765cda77ae8,36,Mężczyzna,2022-06-04_08h47.20.713,task,2021.1.4,Win32,144.1337561,628b806c463b948bc644b84f,629afea5ca11e57e234c6f5e,[0.39229999995231424],,,,,,,,,,,,,,,,,,,,,,,,,,,,,,,,,,,,,,,,,,,,,,,,,,,,,,,,,,,,,,,,,,,,,,,,,,,,,,,,,,,,,,,,,,,,,,,,,,,,,,,
,,"[""period""]",0,82,0,82,0,1,616d3fe2152e4765cda77ae8,36,Mężczyzna,2022-06-04_08h47.20.713,task,2021.1.4,Win32,144.1337561,628b806c463b948bc644b84f,629afea5ca11e57e234c6f5e,[0.23920000004767417],,,,,,,,,,,,,,,,,,,,,,,,,,,,,,,,,,,,,,,,,,,,,,,,,,,,,,,,,,,,,,,,,,,,,,,,,,,,,,,,,,,,,,,,,,,,,,,,,,,,,,,
,,"[""period""]",0,83,0,83,0,1,616d3fe2152e4765cda77ae8,36,Mężczyzna,2022-06-04_08h47.20.713,task,2021.1.4,Win32,144.1337561,628b806c463b948bc644b84f,629afea5ca11e57e234c6f5e,[0.37700000000000955],,,,,,,,,,,,,,,,,,,,,,,,,,,,,,,,,,,,,,,,,,,,,,,,,,,,,,,,,,,,,,,,,,,,,,,,,,,,,,,,,,,,,,,,,,,,,,,,,,,,,,,
,,"[""comma""]",0,84,0,84,0,1,616d3fe2152e4765cda77ae8,36,Mężczyzna,2022-06-04_08h47.20.713,task,2021.1.4,Win32,144.1337561,628b806c463b948bc644b84f,629afea5ca11e57e234c6f5e,[0.2849999999999966],,,,,,,,,,,,,,,,,,,,,,,,,,,,,,,,,,,,,,,,,,,,,,,,,,,,,,,,,,,,,,,,,,,,,,,,,,,,,,,,,,,,,,,,,,,,,,,,,,,,,,,
,,"[""period""]",0,85,0,85,0,1,616d3fe2152e4765cda77ae8,36,Mężczyzna,2022-06-04_08h47.20.713,task,2021.1.4,Win32,144.1337561,628b806c463b948bc644b84f,629afea5ca11e57e234c6f5e,[0.32659999990463007],,,,,,,,,,,,,,,,,,,,,,,,,,,,,,,,,,,,,,,,,,,,,,,,,,,,,,,,,,,,,,,,,,,,,,,,,,,,,,,,,,,,,,,,,,,,,,,,,,,,,,,
,,"[""comma""]",0,86,0,86,0,1,616d3fe2152e4765cda77ae8,36,Mężczyzna,2022-06-04_08h47.20.713,task,2021.1.4,Win32,144.1337561,628b806c463b948bc644b84f,629afea5ca11e57e234c6f5e,[0.3266000001430598],,,,,,,,,,,,,,,,,,,,,,,,,,,,,,,,,,,,,,,,,,,,,,,,,,,,,,,,,,,,,,,,,,,,,,,,,,,,,,,,,,,,,,,,,,,,,,,,,,,,,,,
,,"[""period""]",0,87,0,87,0,1,616d3fe2152e4765cda77ae8,36,Mężczyzna,2022-06-04_08h47.20.713,task,2021.1.4,Win32,144.1337561,628b806c463b948bc644b84f,629afea5ca11e57e234c6f5e,[0.29890000009538653],,,,,,,,,,,,,,,,,,,,,,,,,,,,,,,,,,,,,,,,,,,,,,,,,,,,,,,,,,,,,,,,,,,,,,,,,,,,,,,,,,,,,,,,,,,,,,,,,,,,,,,
,,"[""comma""]",0,88,0,88,0,1,616d3fe2152e4765cda77ae8,36,Mężczyzna,2022-06-04_08h47.20.713,task,2021.1.4,Win32,144.1337561,628b806c463b948bc644b84f,629afea5ca11e57e234c6f5e,[0.24349999999998317],,,,,,,,,,,,,,,,,,,,,,,,,,,,,,,,,,,,,,,,,,,,,,,,,,,,,,,,,,,,,,,,,,,,,,,,,,,,,,,,,,,,,,,,,,,,,,,,,,,,,,,
,,"[""comma""]",0,89,0,89,0,1,616d3fe2152e4765cda77ae8,36,Mężczyzna,2022-06-04_08h47.20.713,task,2021.1.4,Win32,144.1337561,628b806c463b948bc644b84f,629afea5ca11e57e234c6f5e,[0.30179999995232265],,,,,,,,,,,,,,,,,,,,,,,,,,,,,,,,,,,,,,,,,,,,,,,,,,,,,,,,,,,,,,,,,,,,,,,,,,,,,,,,,,,,,,,,,,,,,,,,,,,,,,,
,,"[""period""]",0,90,0,90,0,1,616d3fe2152e4765cda77ae8,36,Mężczyzna,2022-06-04_08h47.20.713,task,2021.1.4,Win32,144.1337561,628b806c463b948bc644b84f,629afea5ca11e57e234c6f5e,[0.2600999999046394],,,,,,,,,,,,,,,,,,,,,,,,,,,,,,,,,,,,,,,,,,,,,,,,,,,,,,,,,,,,,,,,,,,,,,,,,,,,,,,,,,,,,,,,,,,,,,,,,,,,,,,
,,"[""comma""]",0,91,0,91,0,1,616d3fe2152e4765cda77ae8,36,Mężczyzna,2022-06-04_08h47.20.713,task,2021.1.4,Win32,144.1337561,628b806c463b948bc644b84f,629afea5ca11e57e234c6f5e,[0.323799999952314],,,,,,,,,,,,,,,,,,,,,,,,,,,,,,,,,,,,,,,,,,,,,,,,,,,,,,,,,,,,,,,,,,,,,,,,,,,,,,,,,,,,,,,,,,,,,,,,,,,,,,,
,,"[""comma""]",0,92,0,92,0,1,616d3fe2152e4765cda77ae8,36,Mężczyzna,2022-06-04_08h47.20.713,task,2021.1.4,Win32,144.1337561,628b806c463b948bc644b84f,629afea5ca11e57e234c6f5e,[0.27129999995233334],,,,,,,,,,,,,,,,,,,,,,,,,,,,,,,,,,,,,,,,,,,,,,,,,,,,,,,,,,,,,,,,,,,,,,,,,,,,,,,,,,,,,,,,,,,,,,,,,,,,,,,
,,"[""comma""]",0,93,0,93,0,1,616d3fe2152e4765cda77ae8,36,Mężczyzna,2022-06-04_08h47.20.713,task,2021.1.4,Win32,144.1337561,628b806c463b948bc644b84f,629afea5ca11e57e234c6f5e,[0.3005999999046196],,,,,,,,,,,,,,,,,,,,,,,,,,,,,,,,,,,,,,,,,,,,,,,,,,,,,,,,,,,,,,,,,,,,,,,,,,,,,,,,,,,,,,,,,,,,,,,,,,,,,,,
,,"[""period""]",0,94,0,94,0,1,616d3fe2152e4765cda77ae8,36,Mężczyzna,2022-06-04_08h47.20.713,task,2021.1.4,Win32,144.1337561,628b806c463b948bc644b84f,629afea5ca11e57e234c6f5e,[0.36870000004768144],,,,,,,,,,,,,,,,,,,,,,,,,,,,,,,,,,,,,,,,,,,,,,,,,,,,,,,,,,,,,,,,,,,,,,,,,,,,,,,,,,,,,,,,,,,,,,,,,,,,,,,
,,"[""period""]",0,95,0,95,0,1,616d3fe2152e4765cda77ae8,36,Mężczyzna,2022-06-04_08h47.20.713,task,2021.1.4,Win32,144.1337561,628b806c463b948bc644b84f,629afea5ca11e57e234c6f5e,[0.26499999999998636],,,,,,,,,,,,,,,,,,,,,,,,,,,,,,,,,,,,,,,,,,,,,,,,,,,,,,,,,,,,,,,,,,,,,,,,,,,,,,,,,,,,,,,,,,,,,,,,,,,,,,,
,,"[""comma""]",0,96,0,96,0,1,616d3fe2152e4765cda77ae8,36,Mężczyzna,2022-06-04_08h47.20.713,task,2021.1.4,Win32,144.1337561,628b806c463b948bc644b84f,629afea5ca11e57e234c6f5e,[0.5180999999046776],,,,,,,,,,,,,,,,,,,,,,,,,,,,,,,,,,,,,,,,,,,,,,,,,,,,,,,,,,,,,,,,,,,,,,,,,,,,,,,,,,,,,,,,,,,,,,,,,,,,,,,
,,"[""period""]",0,97,0,97,0,1,616d3fe2152e4765cda77ae8,36,Mężczyzna,2022-06-04_08h47.20.713,task,2021.1.4,Win32,144.1337561,628b806c463b948bc644b84f,629afea5ca11e57e234c6f5e,[0.5070999999045966],,,,,,,,,,,,,,,,,,,,,,,,,,,,,,,,,,,,,,,,,,,,,,,,,,,,,,,,,,,,,,,,,,,,,,,,,,,,,,,,,,,,,,,,,,,,,,,,,,,,,,,
,,"[""period""]",0,98,0,98,0,1,616d3fe2152e4765cda77ae8,36,Mężczyzna,2022-06-04_08h47.20.713,task,2021.1.4,Win32,144.1337561,628b806c463b948bc644b84f,629afea5ca11e57e234c6f5e,[0.30209999990461256],,,,,,,,,,,,,,,,,,,,,,,,,,,,,,,,,,,,,,,,,,,,,,,,,,,,,,,,,,,,,,,,,,,,,,,,,,,,,,,,,,,,,,,,,,,,,,,,,,,,,,,
,,"[""comma""]",0,99,0,99,0,1,616d3fe2152e4765cda77ae8,36,Mężczyzna,2022-06-04_08h47.20.713,task,2021.1.4,Win32,144.1337561,628b806c463b948bc644b84f,629afea5ca11e57e234c6f5e,[0.22279999995231492],,,,,,,,,,,,,,,,,,,,,,,,,,,,,,,,,,,,,,,,,,,,,,,,,,,,,,,,,,,,,,,,,,,,,,,,,,,,,,,,,,,,,,,,,,,,,,,,,,,,,,,
,,"[""period""]",0,100,0,100,0,1,616d3fe2152e4765cda77ae8,36,Mężczyzna,2022-06-04_08h47.20.713,task,2021.1.4,Win32,144.1337561,628b806c463b948bc644b84f,629afea5ca11e57e234c6f5e,[0.250500000000045],,,,,,,,,,,,,,,,,,,,,,,,,,,,,,,,,,,,,,,,,,,,,,,,,,,,,,,,,,,,,,,,,,,,,,,,,,,,,,,,,,,,,,,,,,,,,,,,,,,,,,,
,,"[""comma""]",0,101,0,101,0,1,616d3fe2152e4765cda77ae8,36,Mężczyzna,2022-06-04_08h47.20.713,task,2021.1.4,Win32,144.1337561,628b806c463b948bc644b84f,629afea5ca11e57e234c6f5e,[0.25690000009541336],,,,,,,,,,,,,,,,,,,,,,,,,,,,,,,,,,,,,,,,,,,,,,,,,,,,,,,,,,,,,,,,,,,,,,,,,,,,,,,,,,,,,,,,,,,,,,,,,,,,,,,
,,"[""period""]",0,102,0,102,0,1,616d3fe2152e4765cda77ae8,36,Mężczyzna,2022-06-04_08h47.20.713,task,2021.1.4,Win32,144.1337561,628b806c463b948bc644b84f,629afea5ca11e57e234c6f5e,[0.4309999999999832],,,,,,,,,,,,,,,,,,,,,,,,,,,,,,,,,,,,,,,,,,,,,,,,,,,,,,,,,,,,,,,,,,,,,,,,,,,,,,,,,,,,,,,,,,,,,,,,,,,,,,,
,,"[""comma""]",0,103,0,103,0,1,616d3fe2152e4765cda77ae8,36,Mężczyzna,2022-06-04_08h47.20.713,task,2021.1.4,Win32,144.1337561,628b806c463b948bc644b84f,629afea5ca11e57e234c6f5e,[0.24679999995231583],,,,,,,,,,,,,,,,,,,,,,,,,,,,,,,,,,,,,,,,,,,,,,,,,,,,,,,,,,,,,,,,,,,,,,,,,,,,,,,,,,,,,,,,,,,,,,,,,,,,,,,
,,"[""period""]",0,104,0,104,0,1,616d3fe2152e4765cda77ae8,36,Mężczyzna,2022-06-04_08h47.20.713,task,2021.1.4,Win32,144.1337561,628b806c463b948bc644b84f,629afea5ca11e57e234c6f5e,[0.26029999995233766],,,,,,,,,,,,,,,,,,,,,,,,,,,,,,,,,,,,,,,,,,,,,,,,,,,,,,,,,,,,,,,,,,,,,,,,,,,,,,,,,,,,,,,,,,,,,,,,,,,,,,,
,,"[""comma""]",0,105,0,105,0,1,616d3fe2152e4765cda77ae8,36,Mężczyzna,2022-06-04_08h47.20.713,task,2021.1.4,Win32,144.1337561,628b806c463b948bc644b84f,629afea5ca11e57e234c6f5e,[0.22209999990462848],,,,,,,,,,,,,,,,,,,,,,,,,,,,,,,,,,,,,,,,,,,,,,,,,,,,,,,,,,,,,,,,,,,,,,,,,,,,,,,,,,,,,,,,,,,,,,,,,,,,,,,
,,"[""period""]",0,106,0,106,0,1,616d3fe2152e4765cda77ae8,36,Mężczyzna,2022-06-04_08h47.20.713,task,2021.1.4,Win32,144.1337561,628b806c463b948bc644b84f,629afea5ca11e57e234c6f5e,[0.26369999980926195],,,,,,,,,,,,,,,,,,,,,,,,,,,,,,,,,,,,,,,,,,,,,,,,,,,,,,,,,,,,,,,,,,,,,,,,,,,,,,,,,,,,,,,,,,,,,,,,,,,,,,,
,,"[""comma""]",0,107,0,107,0,1,616d3fe2152e4765cda77ae8,36,Mężczyzna,2022-06-04_08h47.20.713,task,2021.1.4,Win32,144.1337561,628b806c463b948bc644b84f,629afea5ca11e57e234c6f5e,[0.23229999995231765],,,,,,,,,,,,,,,,,,,,,,,,,,,,,,,,,,,,,,,,,,,,,,,,,,,,,,,,,,,,,,,,,,,,,,,,,,,,,,,,,,,,,,,,,,,,,,,,,,,,,,,
,,"[""period""]",0,108,0,108,0,1,616d3fe2152e4765cda77ae8,36,Mężczyzna,2022-06-04_08h47.20.713,task,2021.1.4,Win32,144.1337561,628b806c463b948bc644b84f,629afea5ca11e57e234c6f5e,[0.2524999999999977],,,,,,,,,,,,,,,,,,,,,,,,,,,,,,,,,,,,,,,,,,,,,,,,,,,,,,,,,,,,,,,,,,,,,,,,,,,,,,,,,,,,,,,,,,,,,,,,,,,,,,,
,,"[""comma""]",0,109,0,109,0,1,616d3fe2152e4765cda77ae8,36,Mężczyzna,2022-06-04_08h47.20.713,task,2021.1.4,Win32,144.1337561,628b806c463b948bc644b84f,629afea5ca11e57e234c6f5e,[0.28779999995231265],,,,,,,,,,,,,,,,,,,,,,,,,,,,,,,,,,,,,,,,,,,,,,,,,,,,,,,,,,,,,,,,,,,,,,,,,,,,,,,,,,,,,,,,,,,,,,,,,,,,,,,
,,"[""period""]",0,110,0,110,0,1,616d3fe2152e4765cda77ae8,36,Mężczyzna,2022-06-04_08h47.20.713,task,2021.1.4,Win32,144.1337561,628b806c463b948bc644b84f,629afea5ca11e57e234c6f5e,[0.23630000019073805],,,,,,,,,,,,,,,,,,,,,,,,,,,,,,,,,,,,,,,,,,,,,,,,,,,,,,,,,,,,,,,,,,,,,,,,,,,,,,,,,,,,,,,,,,,,,,,,,,,,,,,
,,"[""comma""]",0,111,0,111,0,1,616d3fe2152e4765cda77ae8,36,Mężczyzna,2022-06-04_08h47.20.713,task,2021.1.4,Win32,144.1337561,628b806c463b948bc644b84f,629afea5ca11e57e234c6f5e,[0.2570999999046535],,,,,,,,,,,,,,,,,,,,,,,,,,,,,,,,,,,,,,,,,,,,,,,,,,,,,,,,,,,,,,,,,,,,,,,,,,,,,,,,,,,,,,,,,,,,,,,,,,,,,,,
,,"[""period""]",0,112,0,112,0,1,616d3fe2152e4765cda77ae8,36,Mężczyzna,2022-06-04_08h47.20.713,task,2021.1.4,Win32,144.1337561,628b806c463b948bc644b84f,629afea5ca11e57e234c6f5e,[0.2572999999522949],,,,,,,,,,,,,,,,,,,,,,,,,,,,,,,,,,,,,,,,,,,,,,,,,,,,,,,,,,,,,,,,,,,,,,,,,,,,,,,,,,,,,,,,,,,,,,,,,,,,,,,
,,"[""comma""]",0,113,0,113,0,1,616d3fe2152e4765cda77ae8,36,Mężczyzna,2022-06-04_08h47.20.713,task,2021.1.4,Win32,144.1337561,628b806c463b948bc644b84f,629afea5ca11e57e234c6f5e,[0.24459999990466486],,,,,,,,,,,,,,,,,,,,,,,,,,,,,,,,,,,,,,,,,,,,,,,,,,,,,,,,,,,,,,,,,,,,,,,,,,,,,,,,,,,,,,,,,,,,,,,,,,,,,,,
,,"[""period""]",0,114,0,114,0,1,616d3fe2152e4765cda77ae8,36,Mężczyzna,2022-06-04_08h47.20.713,task,2021.1.4,Win32,144.1337561,628b806c463b948bc644b84f,629afea5ca11e57e234c6f5e,[0.22670000004768553],,,,,,,,,,,,,,,,,,,,,,,,,,,,,,,,,,,,,,,,,,,,,,,,,,,,,,,,,,,,,,,,,,,,,,,,,,,,,,,,,,,,,,,,,,,,,,,,,,,,,,,
,,"[""comma""]",0,115,0,115,0,1,616d3fe2152e4765cda77ae8,36,Mężczyzna,2022-06-04_08h47.20.713,task,2021.1.4,Win32,144.1337561,628b806c463b948bc644b84f,629afea5ca11e57e234c6f5e,[0.22260000014301795],,,,,,,,,,,,,,,,,,,,,,,,,,,,,,,,,,,,,,,,,,,,,,,,,,,,,,,,,,,,,,,,,,,,,,,,,,,,,,,,,,,,,,,,,,,,,,,,,,,,,,,
,,"[""period""]",0,116,0,116,0,1,616d3fe2152e4765cda77ae8,36,Mężczyzna,2022-06-04_08h47.20.713,task,2021.1.4,Win32,144.1337561,628b806c463b948bc644b84f,629afea5ca11e57e234c6f5e,[0.23610000014303978],,,,,,,,,,,,,,,,,,,,,,,,,,,,,,,,,,,,,,,,,,,,,,,,,,,,,,,,,,,,,,,,,,,,,,,,,,,,,,,,,,,,,,,,,,,,,,,,,,,,,,,
,,"[""comma""]",0,117,0,117,0,1,616d3fe2152e4765cda77ae8,36,Mężczyzna,2022-06-04_08h47.20.713,task,2021.1.4,Win32,144.1337561,628b806c463b948bc644b84f,629afea5ca11e57e234c6f5e,[0.2432999999522849],,,,,,,,,,,,,,,,,,,,,,,,,,,,,,,,,,,,,,,,,,,,,,,,,,,,,,,,,,,,,,,,,,,,,,,,,,,,,,,,,,,,,,,,,,,,,,,,,,,,,,,
,,"[""period""]",0,118,0,118,0,1,616d3fe2152e4765cda77ae8,36,Mężczyzna,2022-06-04_08h47.20.713,task,2021.1.4,Win32,144.1337561,628b806c463b948bc644b84f,629afea5ca11e57e234c6f5e,[0.2504000000953397],,,,,,,,,,,,,,,,,,,,,,,,,,,,,,,,,,,,,,,,,,,,,,,,,,,,,,,,,,,,,,,,,,,,,,,,,,,,,,,,,,,,,,,,,,,,,,,,,,,,,,,
,,"[""comma""]",0,119,0,119,0,1,616d3fe2152e4765cda77ae8,36,Mężczyzna,2022-06-04_08h47.20.713,task,2021.1.4,Win32,144.1337561,628b806c463b948bc644b84f,629afea5ca11e57e234c6f5e,[0.22949999999997317],,,,,,,,,,,,,,,,,,,,,,,,,,,,,,,,,,,,,,,,,,,,,,,,,,,,,,,,,,,,,,,,,,,,,,,,,,,,,,,,,,,,,,,,,,,,,,,,,,,,,,,
,,,,,,,,,616d3fe2152e4765cda77ae8,36,Mężczyzna,2022-06-04_08h47.20.713,task,2021.1.4,Win32,144.1337561,628b806c463b948bc644b84f,629afea5ca11e57e234c6f5e,,space,19.523,space,8.7281,0,0,0,0,1,X V Q F H G B L J M P D K C T S W R N Z,,,,,,,,,,,,,,,,,,,,,,,,,,,,,,,,,,,,,,,,,,,,,,,,,,,,,,,,,,,,,,,,,,,,,,,,,,,,,,,,,,,,,,,,,,,,,
,,,,,,,,,616d3fe2152e4765cda77ae8,36,Mężczyzna,2022-06-04_08h47.20.713,task,2021.1.4,Win32,144.1337561,628b806c463b948bc644b84f,629afea5ca11e57e234c6f5e,,,,,,1,0,1,0,1,X V Q F H G B L J M P D K C T S W R N Z,,,,,,,,,,,,,,,,,,,,,,,,,,,,,,,,,,,,,,,,,,,,,,,,,,,,,,,,,,,,,,,,,,,,,,,,,,,,,,,,,,,,,,,,,,,,,
,,,,,,,,,616d3fe2152e4765cda77ae8,36,Mężczyzna,2022-06-04_08h47.20.713,task,2021.1.4,Win32,144.1337561,628b806c463b948bc644b84f,629afea5ca11e57e234c6f5e,,,,,,,,,,,,zz,"[""z"",""z""]","[1.5156999998092715,1.8297999999523427,4.039799999952322]",1,ZZ,0,0,0,0,1,,,,,,,,,,,,,,,,,,,,,,,,,,,,,,,,,,,,,,,,,,,,,,,,,,,,,,,,,,,,,,,,,,,,,,,,,,,,,,,,,,,
,,,,,,,,,616d3fe2152e4765cda77ae8,36,Mężczyzna,2022-06-04_08h47.20.713,task,2021.1.4,Win32,144.1337561,628b806c463b948bc644b84f,629afea5ca11e57e234c6f5e,,,,,,0,0,0,0,1,X V Q F H G B L J M P D K C T S W R N Z,,,,,,,,,,,,,,,,,,,,,,,,,,,,,,,,,,,,,,,,,,,,,,,,,,,,,,,,,,,,,,,,,,,,,,,,,,,,,,,,,,,,,,,,,,,,,
,,,,,,,,,616d3fe2152e4765cda77ae8,36,Mężczyzna,2022-06-04_08h47.20.713,task,2021.1.4,Win32,144.1337561,628b806c463b948bc644b84f,629afea5ca11e57e234c6f5e,,,,,,1,0,1,0,1,X V Q F H G B L J M P D K C T S W R N Z,,,,,,,,,,,,,,,,,,,,,,,,,,,,,,,,,,,,,,,,,,,,,,,,,,,,,,,,,,,,,,,,,,,,,,,,,,,,,,,,,,,,,,,,,,,,,
,,,,,,,,,616d3fe2152e4765cda77ae8,36,Mężczyzna,2022-06-04_08h47.20.713,task,2021.1.4,Win32,144.1337561,628b806c463b948bc644b84f,629afea5ca11e57e234c6f5e,,,,,,,,,,,,lb,"[""l"",""b""]","[1.3342000000476446,1.6809999999999832,2.201800000190701]",1,LB,1,0,1,0,1,,,,,,,,,,,,,,,,,,,,,,,,,,,,,,,,,,,,,,,,,,,,,,,,,,,,,,,,,,,,,,,,,,,,,,,,,,,,,,,,,,,
,,,,,,,,,616d3fe2152e4765cda77ae8,36,Mężczyzna,2022-06-04_08h47.20.713,task,2021.1.4,Win32,144.1337561,628b806c463b948bc644b84f,629afea5ca11e57e234c6f5e,,,,,,0,0,0,0,1,X V Q F H G B L J M P D K C T S W R N Z,,,,,,,,,,,,,,,,,,,,,,,,,,,,,,,,,,,,,,,,,,,,,,,,,,,,,,,,,,,,,,,,,,,,,,,,,,,,,,,,,,,,,,,,,,,,,
,,,,,,,,,616d3fe2152e4765cda77ae8,36,Mężczyzna,2022-06-04_08h47.20.713,task,2021.1.4,Win32,144.1337561,628b806c463b948bc644b84f,629afea5ca11e57e234c6f5e,,,,,,1,0,1,0,1,X V Q F H G B L J M P D K C T S W R N Z,,,,,,,,,,,,,,,,,,,,,,,,,,,,,,,,,,,,,,,,,,,,,,,,,,,,,,,,,,,,,,,,,,,,,,,,,,,,,,,,,,,,,,,,,,,,,
,,,,,,,,,616d3fe2152e4765cda77ae8,36,Mężczyzna,2022-06-04_08h47.20.713,task,2021.1.4,Win32,144.1337561,628b806c463b948bc644b84f,629afea5ca11e57e234c6f5e,,,,,,2,0,2,0,1,X V Q F H G B L J M P D K C T S W R N Z,,,,,,,,,,,,,,,,,,,,,,,,,,,,,,,,,,,,,,,,,,,,,,,,,,,,,,,,,,,,,,,,,,,,,,,,,,,,,,,,,,,,,,,,,,,,,
,,,,,,,,,616d3fe2152e4765cda77ae8,36,Mężczyzna,2022-06-04_08h47.20.713,task,2021.1.4,Win32,144.1337561,628b806c463b948bc644b84f,629afea5ca11e57e234c6f5e,,,,,,,,,,,,vff,"[""v"",""f"",""f""]","[1.0175999999046326,1.5073999998569434,1.67349999999999,2.5212000000477133]",1,VFF,2,0,2,0,1,,,,,,,,,,,,,,,,,,,,,,,,,,,,,,,,,,,,,,,,,,,,,,,,,,,,,,,,,,,,,,,,,,,,,,,,,,,,,,,,,,,
,,,,,,,,,616d3fe2152e4765cda77ae8,36,Mężczyzna,2022-06-04_08h47.20.713,task,2021.1.4,Win32,144.1337561,628b806c463b948bc644b84f,629afea5ca11e57e234c6f5e,,,,,,0,0,0,0,1,X V Q F H G B L J M P D K C T S W R N Z,,,,,,,,,,,,,,,,,,,,,,,,,,,,,,,,,,,,,,,,,,,,,,,,,,,,,,,,,,,,,,,,,,,,,,,,,,,,,,,,,,,,,,,,,,,,,
,,,,,,,,,616d3fe2152e4765cda77ae8,36,Mężczyzna,2022-06-04_08h47.20.713,task,2021.1.4,Win32,144.1337561,628b806c463b948bc644b84f,629afea5ca11e57e234c6f5e,,,,,,1,0,1,0,1,X V Q F H G B L J M P D K C T S W R N Z,,,,,,,,,,,,,,,,,,,,,,,,,,,,,,,,,,,,,,,,,,,,,,,,,,,,,,,,,,,,,,,,,,,,,,,,,,,,,,,,,,,,,,,,,,,,,
,,,,,,,,,616d3fe2152e4765cda77ae8,36,Mężczyzna,2022-06-04_08h47.20.713,task,2021.1.4,Win32,144.1337561,628b806c463b948bc644b84f,629afea5ca11e57e234c6f5e,,,,,,2,0,2,0,1,X V Q F H G B L J M P D K C T S W R N Z,,,,,,,,,,,,,,,,,,,,,,,,,,,,,,,,,,,,,,,,,,,,,,,,,,,,,,,,,,,,,,,,,,,,,,,,,,,,,,,,,,,,,,,,,,,,,
,,,,,,,,,616d3fe2152e4765cda77ae8,36,Mężczyzna,2022-06-04_08h47.20.713,task,2021.1.4,Win32,144.1337561,628b806c463b948bc644b84f,629afea5ca11e57e234c6f5e,,,,,,,,,,,,cwg,"[""c"",""w"",""g""]","[1.1742000000476764,1.4805000000000064,2.153799999952298,2.6977999999523377]",1,CWG,3,0,3,0,1,,,,,,,,,,,,,,,,,,,,,,,,,,,,,,,,,,,,,,,,,,,,,,,,,,,,,,,,,,,,,,,,,,,,,,,,,,,,,,,,,,,
,,,,,,,,,616d3fe2152e4765cda77ae8,36,Mężczyzna,2022-06-04_08h47.20.713,task,2021.1.4,Win32,144.1337561,628b806c463b948bc644b84f,629afea5ca11e57e234c6f5e,,,,,,0,0,0,0,1,X V Q F H G B L J M P D K C T S W R N Z,,,,,,,,,,,,,,,,,,,,,,,,,,,,,,,,,,,,,,,,,,,,,,,,,,,,,,,,,,,,,,,,,,,,,,,,,,,,,,,,,,,,,,,,,,,,,
,,,,,,,,,616d3fe2152e4765cda77ae8,36,Mężczyzna,2022-06-04_08h47.20.713,task,2021.1.4,Win32,144.1337561,628b806c463b948bc644b84f,629afea5ca11e57e234c6f5e,,,,,,1,0,1,0,1,X V Q F H G B L J M P D K C T S W R N Z,,,,,,,,,,,,,,,,,,,,,,,,,,,,,,,,,,,,,,,,,,,,,,,,,,,,,,,,,,,,,,,,,,,,,,,,,,,,,,,,,,,,,,,,,,,,,
,,,,,,,,,616d3fe2152e4765cda77ae8,36,Mężczyzna,2022-06-04_08h47.20.713,task,2021.1.4,Win32,144.1337561,628b806c463b948bc644b84f,629afea5ca11e57e234c6f5e,,,,,,2,0,2,0,1,X V Q F H G B L J M P D K C T S W R N Z,,,,,,,,,,,,,,,,,,,,,,,,,,,,,,,,,,,,,,,,,,,,,,,,,,,,,,,,,,,,,,,,,,,,,,,,,,,,,,,,,,,,,,,,,,,,,
,,,,,,,,,616d3fe2152e4765cda77ae8,36,Mężczyzna,2022-06-04_08h47.20.713,task,2021.1.4,Win32,144.1337561,628b806c463b948bc644b84f,629afea5ca11e57e234c6f5e,,,,,,3,0,3,0,1,X V Q F H G B L J M P D K C T S W R N Z,,,,,,,,,,,,,,,,,,,,,,,,,,,,,,,,,,,,,,,,,,,,,,,,,,,,,,,,,,,,,,,,,,,,,,,,,,,,,,,,,,,,,,,,,,,,,
,,,,,,,,,616d3fe2152e4765cda77ae8,36,Mężczyzna,2022-06-04_08h47.20.713,task,2021.1.4,Win32,144.1337561,628b806c463b948bc644b84f,629afea5ca11e57e234c6f5e,,,,,,,,,,,,wkdg,"[""w"",""k"",""d"",""g""]","[1.106899999856978,1.9032999999523668,2.563000000000045,2.723000000000013,3.7091999998093]",1,WKDG,4,0,4,0,1,,,,,,,,,,,,,,,,,,,,,,,,,,,,,,,,,,,,,,,,,,,,,,,,,,,,,,,,,,,,,,,,,,,,,,,,,,,,,,,,,,,
,,,,,,,,,616d3fe2152e4765cda77ae8,36,Mężczyzna,2022-06-04_08h47.20.713,task,2021.1.4,Win32,144.1337561,628b806c463b948bc644b84f,629afea5ca11e57e234c6f5e,,,,,,0,0,0,0,1,X V Q F H G B L J M P D K C T S W R N Z,,,,,,,,,,,,,,,,,,,,,,,,,,,,,,,,,,,,,,,,,,,,,,,,,,,,,,,,,,,,,,,,,,,,,,,,,,,,,,,,,,,,,,,,,,,,,
,,,,,,,,,616d3fe2152e4765cda77ae8,36,Mężczyzna,2022-06-04_08h47.20.713,task,2021.1.4,Win32,144.1337561,628b806c463b948bc644b84f,629afea5ca11e57e234c6f5e,,,,,,1,0,1,0,1,X V Q F H G B L J M P D K C T S W R N Z,,,,,,,,,,,,,,,,,,,,,,,,,,,,,,,,,,,,,,,,,,,,,,,,,,,,,,,,,,,,,,,,,,,,,,,,,,,,,,,,,,,,,,,,,,,,,
,,,,,,,,,616d3fe2152e4765cda77ae8,36,Mężczyzna,2022-06-04_08h47.20.713,task,2021.1.4,Win32,144.1337561,628b806c463b948bc644b84f,629afea5ca11e57e234c6f5e,,,,,,2,0,2,0,1,X V Q F H G B L J M P D K C T S W R N Z,,,,,,,,,,,,,,,,,,,,,,,,,,,,,,,,,,,,,,,,,,,,,,,,,,,,,,,,,,,,,,,,,,,,,,,,,,,,,,,,,,,,,,,,,,,,,
,,,,,,,,,616d3fe2152e4765cda77ae8,36,Mężczyzna,2022-06-04_08h47.20.713,task,2021.1.4,Win32,144.1337561,628b806c463b948bc644b84f,629afea5ca11e57e234c6f5e,,,,,,3,0,3,0,1,X V Q F H G B L J M P D K C T S W R N Z,,,,,,,,,,,,,,,,,,,,,,,,,,,,,,,,,,,,,,,,,,,,,,,,,,,,,,,,,,,,,,,,,,,,,,,,,,,,,,,,,,,,,,,,,,,,,
,,,,,,,,,616d3fe2152e4765cda77ae8,36,Mężczyzna,2022-06-04_08h47.20.713,task,2021.1.4,Win32,144.1337561,628b806c463b948bc644b84f,629afea5ca11e57e234c6f5e,,,,,,,,,,,,hhlg,"[""h"",""h"",""l"",""g""]","[1.251299999952323,1.4209999999999923,2.285500000000013,2.6694000000953793,3.18159999990462]",1,HHLG,5,0,5,0,1,,,,,,,,,,,,,,,,,,,,,,,,,,,,,,,,,,,,,,,,,,,,,,,,,,,,,,,,,,,,,,,,,,,,,,,,,,,,,,,,,,,
,,,,,,,,,616d3fe2152e4765cda77ae8,36,Mężczyzna,2022-06-04_08h47.20.713,task,2021.1.4,Win32,144.1337561,628b806c463b948bc644b84f,629afea5ca11e57e234c6f5e,,,,,,0,0,0,0,1,X V Q F H G B L J M P D K C T S W R N Z,,,,,,,,,,,,,,,,,,,,,,,,,,,,,,,,,,,,,,,,,,,,,,,,,,,,,,,,,,,,,,,,,,,,,,,,,,,,,,,,,,,,,,,,,,,,,
,,,,,,,,,616d3fe2152e4765cda77ae8,36,Mężczyzna,2022-06-04_08h47.20.713,task,2021.1.4,Win32,144.1337561,628b806c463b948bc644b84f,629afea5ca11e57e234c6f5e,,,,,,1,0,1,0,1,X V Q F H G B L J M P D K C T S W R N Z,,,,,,,,,,,,,,,,,,,,,,,,,,,,,,,,,,,,,,,,,,,,,,,,,,,,,,,,,,,,,,,,,,,,,,,,,,,,,,,,,,,,,,,,,,,,,
,,,,,,,,,616d3fe2152e4765cda77ae8,36,Mężczyzna,2022-06-04_08h47.20.713,task,2021.1.4,Win32,144.1337561,628b806c463b948bc644b84f,629afea5ca11e57e234c6f5e,,,,,,2,0,2,0,1,X V Q F H G B L J M P D K C T S W R N Z,,,,,,,,,,,,,,,,,,,,,,,,,,,,,,,,,,,,,,,,,,,,,,,,,,,,,,,,,,,,,,,,,,,,,,,,,,,,,,,,,,,,,,,,,,,,,
,,,,,,,,,616d3fe2152e4765cda77ae8,36,Mężczyzna,2022-06-04_08h47.20.713,task,2021.1.4,Win32,144.1337561,628b806c463b948bc644b84f,629afea5ca11e57e234c6f5e,,,,,,3,0,3,0,1,X V Q F H G B L J M P D K C T S W R N Z,,,,,,,,,,,,,,,,,,,,,,,,,,,,,,,,,,,,,,,,,,,,,,,,,,,,,,,,,,,,,,,,,,,,,,,,,,,,,,,,,,,,,,,,,,,,,
,,,,,,,,,616d3fe2152e4765cda77ae8,36,Mężczyzna,2022-06-04_08h47.20.713,task,2021.1.4,Win32,144.1337561,628b806c463b948bc644b84f,629afea5ca11e57e234c6f5e,,,,,,4,0,4,0,1,X V Q F H G B L J M P D K C T S W R N Z,,,,,,,,,,,,,,,,,,,,,,,,,,,,,,,,,,,,,,,,,,,,,,,,,,,,,,,,,,,,,,,,,,,,,,,,,,,,,,,,,,,,,,,,,,,,,
,,,,,,,,,616d3fe2152e4765cda77ae8,36,Mężczyzna,2022-06-04_08h47.20.713,task,2021.1.4,Win32,144.1337561,628b806c463b948bc644b84f,629afea5ca11e57e234c6f5e,,,,,,,,,,,,xlvdm,"[""x"",""l"",""v"",""d"",""m""]","[1.4927999999522967,2.130399999856934,3.069199999809257,5.360000000000014,6.088999999999999,6.6032999999522985]",1,XLVDM,6,0,6,0,1,,,,,,,,,,,,,,,,,,,,,,,,,,,,,,,,,,,,,,,,,,,,,,,,,,,,,,,,,,,,,,,,,,,,,,,,,,,,,,,,,,,
,,,,,,,,,616d3fe2152e4765cda77ae8,36,Mężczyzna,2022-06-04_08h47.20.713,task,2021.1.4,Win32,144.1337561,628b806c463b948bc644b84f,629afea5ca11e57e234c6f5e,,,,,,0,0,0,0,1,X V Q F H G B L J M P D K C T S W R N Z,,,,,,,,,,,,,,,,,,,,,,,,,,,,,,,,,,,,,,,,,,,,,,,,,,,,,,,,,,,,,,,,,,,,,,,,,,,,,,,,,,,,,,,,,,,,,
,,,,,,,,,616d3fe2152e4765cda77ae8,36,Mężczyzna,2022-06-04_08h47.20.713,task,2021.1.4,Win32,144.1337561,628b806c463b948bc644b84f,629afea5ca11e57e234c6f5e,,,,,,1,0,1,0,1,X V Q F H G B L J M P D K C T S W R N Z,,,,,,,,,,,,,,,,,,,,,,,,,,,,,,,,,,,,,,,,,,,,,,,,,,,,,,,,,,,,,,,,,,,,,,,,,,,,,,,,,,,,,,,,,,,,,
,,,,,,,,,616d3fe2152e4765cda77ae8,36,Mężczyzna,2022-06-04_08h47.20.713,task,2021.1.4,Win32,144.1337561,628b806c463b948bc644b84f,629afea5ca11e57e234c6f5e,,,,,,2,0,2,0,1,X V Q F H G B L J M P D K C T S W R N Z,,,,,,,,,,,,,,,,,,,,,,,,,,,,,,,,,,,,,,,,,,,,,,,,,,,,,,,,,,,,,,,,,,,,,,,,,,,,,,,,,,,,,,,,,,,,,
,,,,,,,,,616d3fe2152e4765cda77ae8,36,Mężczyzna,2022-06-04_08h47.20.713,task,2021.1.4,Win32,144.1337561,628b806c463b948bc644b84f,629afea5ca11e57e234c6f5e,,,,,,3,0,3,0,1,X V Q F H G B L J M P D K C T S W R N Z,,,,,,,,,,,,,,,,,,,,,,,,,,,,,,,,,,,,,,,,,,,,,,,,,,,,,,,,,,,,,,,,,,,,,,,,,,,,,,,,,,,,,,,,,,,,,
,,,,,,,,,616d3fe2152e4765cda77ae8,36,Mężczyzna,2022-06-04_08h47.20.713,task,2021.1.4,Win32,144.1337561,628b806c463b948bc644b84f,629afea5ca11e57e234c6f5e,,,,,,4,0,4,0,1,X V Q F H G B L J M P D K C T S W R N Z,,,,,,,,,,,,,,,,,,,,,,,,,,,,,,,,,,,,,,,,,,,,,,,,,,,,,,,,,,,,,,,,,,,,,,,,,,,,,,,,,,,,,,,,,,,,,
,,,,,,,,,616d3fe2152e4765cda77ae8,36,Mężczyzna,2022-06-04_08h47.20.713,task,2021.1.4,Win32,144.1337561,628b806c463b948bc644b84f,629afea5ca11e57e234c6f5e,,,,,,,,,,,,ptxrc,"[""p"",""t"",""x"",""r"",""c""]","[1.2992000000476764,1.7442000000476696,2.1504999999999654,2.764799999952288,3.243900000095323,3.9454999999999814]",1,PTXRC,7,0,7,0,1,,,,,,,,,,,,,,,,,,,,,,,,,,,,,,,,,,,,,,,,,,,,,,,,,,,,,,,,,,,,,,,,,,,,,,,,,,,,,,,,,,,
,,,,,,,,,616d3fe2152e4765cda77ae8,36,Mężczyzna,2022-06-04_08h47.20.713,task,2021.1.4,Win32,144.1337561,628b806c463b948bc644b84f,629afea5ca11e57e234c6f5e,,,,,,0,0,0,0,1,X V Q F H G B L J M P D K C T S W R N Z,,,,,,,,,,,,,,,,,,,,,,,,,,,,,,,,,,,,,,,,,,,,,,,,,,,,,,,,,,,,,,,,,,,,,,,,,,,,,,,,,,,,,,,,,,,,,
,,,,,,,,,616d3fe2152e4765cda77ae8,36,Mężczyzna,2022-06-04_08h47.20.713,task,2021.1.4,Win32,144.1337561,628b806c463b948bc644b84f,629afea5ca11e57e234c6f5e,,,,,,1,0,1,0,1,X V Q F H G B L J M P D K C T S W R N Z,,,,,,,,,,,,,,,,,,,,,,,,,,,,,,,,,,,,,,,,,,,,,,,,,,,,,,,,,,,,,,,,,,,,,,,,,,,,,,,,,,,,,,,,,,,,,
,,,,,,,,,616d3fe2152e4765cda77ae8,36,Mężczyzna,2022-06-04_08h47.20.713,task,2021.1.4,Win32,144.1337561,628b806c463b948bc644b84f,629afea5ca11e57e234c6f5e,,,,,,2,0,2,0,1,X V Q F H G B L J M P D K C T S W R N Z,,,,,,,,,,,,,,,,,,,,,,,,,,,,,,,,,,,,,,,,,,,,,,,,,,,,,,,,,,,,,,,,,,,,,,,,,,,,,,,,,,,,,,,,,,,,,
,,,,,,,,,616d3fe2152e4765cda77ae8,36,Mężczyzna,2022-06-04_08h47.20.713,task,2021.1.4,Win32,144.1337561,628b806c463b948bc644b84f,629afea5ca11e57e234c6f5e,,,,,,3,0,3,0,1,X V Q F H G B L J M P D K C T S W R N Z,,,,,,,,,,,,,,,,,,,,,,,,,,,,,,,,,,,,,,,,,,,,,,,,,,,,,,,,,,,,,,,,,,,,,,,,,,,,,,,,,,,,,,,,,,,,,
,,,,,,,,,616d3fe2152e4765cda77ae8,36,Mężczyzna,2022-06-04_08h47.20.713,task,2021.1.4,Win32,144.1337561,628b806c463b948bc644b84f,629afea5ca11e57e234c6f5e,,,,,,4,0,4,0,1,X V Q F H G B L J M P D K C T S W R N Z,,,,,,,,,,,,,,,,,,,,,,,,,,,,,,,,,,,,,,,,,,,,,,,,,,,,,,,,,,,,,,,,,,,,,,,,,,,,,,,,,,,,,,,,,,,,,
,,,,,,,,,616d3fe2152e4765cda77ae8,36,Mężczyzna,2022-06-04_08h47.20.713,task,2021.1.4,Win32,144.1337561,628b806c463b948bc644b84f,629afea5ca11e57e234c6f5e,,,,,,5,0,5,0,1,X V Q F H G B L J M P D K C T S W R N Z,,,,,,,,,,,,,,,,,,,,,,,,,,,,,,,,,,,,,,,,,,,,,,,,,,,,,,,,,,,,,,,,,,,,,,,,,,,,,,,,,,,,,,,,,,,,,
,,,,,,,,,616d3fe2152e4765cda77ae8,36,Mężczyzna,2022-06-04_08h47.20.713,task,2021.1.4,Win32,144.1337561,628b806c463b948bc644b84f,629afea5ca11e57e234c6f5e,,,,,,,,,,,,rwqlww,"[""r"",""w"",""q"",""l"",""w"",""w""]","[1.5937000000477042,1.9240999999046267,2.15300000000002,3.0423999998569684,3.7785999999046,3.9314999999999714,4.653500000000008]",1,RWQLWW,8,0,8,0,1,,,,,,,,,,,,,,,,,,,,,,,,,,,,,,,,,,,,,,,,,,,,,,,,,,,,,,,,,,,,,,,,,,,,,,,,,,,,,,,,,,,
,,,,,,,,,616d3fe2152e4765cda77ae8,36,Mężczyzna,2022-06-04_08h47.20.713,task,2021.1.4,Win32,144.1337561,628b806c463b948bc644b84f,629afea5ca11e57e234c6f5e,,,,,,0,0,0,0,1,X V Q F H G B L J M P D K C T S W R N Z,,,,,,,,,,,,,,,,,,,,,,,,,,,,,,,,,,,,,,,,,,,,,,,,,,,,,,,,,,,,,,,,,,,,,,,,,,,,,,,,,,,,,,,,,,,,,
,,,,,,,,,616d3fe2152e4765cda77ae8,36,Mężczyzna,2022-06-04_08h47.20.713,task,2021.1.4,Win32,144.1337561,628b806c463b948bc644b84f,629afea5ca11e57e234c6f5e,,,,,,1,0,1,0,1,X V Q F H G B L J M P D K C T S W R N Z,,,,,,,,,,,,,,,,,,,,,,,,,,,,,,,,,,,,,,,,,,,,,,,,,,,,,,,,,,,,,,,,,,,,,,,,,,,,,,,,,,,,,,,,,,,,,
,,,,,,,,,616d3fe2152e4765cda77ae8,36,Mężczyzna,2022-06-04_08h47.20.713,task,2021.1.4,Win32,144.1337561,628b806c463b948bc644b84f,629afea5ca11e57e234c6f5e,,,,,,2,0,2,0,1,X V Q F H G B L J M P D K C T S W R N Z,,,,,,,,,,,,,,,,,,,,,,,,,,,,,,,,,,,,,,,,,,,,,,,,,,,,,,,,,,,,,,,,,,,,,,,,,,,,,,,,,,,,,,,,,,,,,
,,,,,,,,,616d3fe2152e4765cda77ae8,36,Mężczyzna,2022-06-04_08h47.20.713,task,2021.1.4,Win32,144.1337561,628b806c463b948bc644b84f,629afea5ca11e57e234c6f5e,,,,,,3,0,3,0,1,X V Q F H G B L J M P D K C T S W R N Z,,,,,,,,,,,,,,,,,,,,,,,,,,,,,,,,,,,,,,,,,,,,,,,,,,,,,,,,,,,,,,,,,,,,,,,,,,,,,,,,,,,,,,,,,,,,,
,,,,,,,,,616d3fe2152e4765cda77ae8,36,Mężczyzna,2022-06-04_08h47.20.713,task,2021.1.4,Win32,144.1337561,628b806c463b948bc644b84f,629afea5ca11e57e234c6f5e,,,,,,4,0,4,0,1,X V Q F H G B L J M P D K C T S W R N Z,,,,,,,,,,,,,,,,,,,,,,,,,,,,,,,,,,,,,,,,,,,,,,,,,,,,,,,,,,,,,,,,,,,,,,,,,,,,,,,,,,,,,,,,,,,,,
,,,,,,,,,616d3fe2152e4765cda77ae8,36,Mężczyzna,2022-06-04_08h47.20.713,task,2021.1.4,Win32,144.1337561,628b806c463b948bc644b84f,629afea5ca11e57e234c6f5e,,,,,,5,0,5,0,1,X V Q F H G B L J M P D K C T S W R N Z,,,,,,,,,,,,,,,,,,,,,,,,,,,,,,,,,,,,,,,,,,,,,,,,,,,,,,,,,,,,,,,,,,,,,,,,,,,,,,,,,,,,,,,,,,,,,
,,,,,,,,,616d3fe2152e4765cda77ae8,36,Mężczyzna,2022-06-04_08h47.20.713,task,2021.1.4,Win32,144.1337561,628b806c463b948bc644b84f,629afea5ca11e57e234c6f5e,,,,,,,,,,,,rvwppm,"[""r"",""v"",""w"",""p"",""p"",""m""]","[1.4932999999523418,1.9752999999523126,2.4752999999523126,3.843399999856956,3.9593999998569416,5.139499999999998,5.848000000000013]",0,RVWPPN,9,0,9,0,1,,,,,,,,,,,,,,,,,,,,,,,,,,,,,,,,,,,,,,,,,,,,,,,,,,,,,,,,,,,,,,,,,,,,,,,,,,,,,,,,,,,
,,,,,,,,,616d3fe2152e4765cda77ae8,36,Mężczyzna,2022-06-04_08h47.20.713,task,2021.1.4,Win32,144.1337561,628b806c463b948bc644b84f,629afea5ca11e57e234c6f5e,,,,,,0,0,0,0,1,X V Q F H G B L J M P D K C T S W R N Z,,,,,,,,,,,,,,,,,,,,,,,,,,,,,,,,,,,,,,,,,,,,,,,,,,,,,,,,,,,,,,,,,,,,,,,,,,,,,,,,,,,,,,,,,,,,,
,,,,,,,,,616d3fe2152e4765cda77ae8,36,Mężczyzna,2022-06-04_08h47.20.713,task,2021.1.4,Win32,144.1337561,628b806c463b948bc644b84f,629afea5ca11e57e234c6f5e,,,,,,1,0,1,0,1,X V Q F H G B L J M P D K C T S W R N Z,,,,,,,,,,,,,,,,,,,,,,,,,,,,,,,,,,,,,,,,,,,,,,,,,,,,,,,,,,,,,,,,,,,,,,,,,,,,,,,,,,,,,,,,,,,,,
,,,,,,,,,616d3fe2152e4765cda77ae8,36,Mężczyzna,2022-06-04_08h47.20.713,task,2021.1.4,Win32,144.1337561,628b806c463b948bc644b84f,629afea5ca11e57e234c6f5e,,,,,,2,0,2,0,1,X V Q F H G B L J M P D K C T S W R N Z,,,,,,,,,,,,,,,,,,,,,,,,,,,,,,,,,,,,,,,,,,,,,,,,,,,,,,,,,,,,,,,,,,,,,,,,,,,,,,,,,,,,,,,,,,,,,
,,,,,,,,,616d3fe2152e4765cda77ae8,36,Mężczyzna,2022-06-04_08h47.20.713,task,2021.1.4,Win32,144.1337561,628b806c463b948bc644b84f,629afea5ca11e57e234c6f5e,,,,,,3,0,3,0,1,X V Q F H G B L J M P D K C T S W R N Z,,,,,,,,,,,,,,,,,,,,,,,,,,,,,,,,,,,,,,,,,,,,,,,,,,,,,,,,,,,,,,,,,,,,,,,,,,,,,,,,,,,,,,,,,,,,,
,,,,,,,,,616d3fe2152e4765cda77ae8,36,Mężczyzna,2022-06-04_08h47.20.713,task,2021.1.4,Win32,144.1337561,628b806c463b948bc644b84f,629afea5ca11e57e234c6f5e,,,,,,4,0,4,0,1,X V Q F H G B L J M P D K C T S W R N Z,,,,,,,,,,,,,,,,,,,,,,,,,,,,,,,,,,,,,,,,,,,,,,,,,,,,,,,,,,,,,,,,,,,,,,,,,,,,,,,,,,,,,,,,,,,,,
,,,,,,,,,616d3fe2152e4765cda77ae8,36,Mężczyzna,2022-06-04_08h47.20.713,task,2021.1.4,Win32,144.1337561,628b806c463b948bc644b84f,629afea5ca11e57e234c6f5e,,,,,,5,0,5,0,1,X V Q F H G B L J M P D K C T S W R N Z,,,,,,,,,,,,,,,,,,,,,,,,,,,,,,,,,,,,,,,,,,,,,,,,,,,,,,,,,,,,,,,,,,,,,,,,,,,,,,,,,,,,,,,,,,,,,
,,,,,,,,,616d3fe2152e4765cda77ae8,36,Mężczyzna,2022-06-04_08h47.20.713,task,2021.1.4,Win32,144.1337561,628b806c463b948bc644b84f,629afea5ca11e57e234c6f5e,,,,,,,,,,,,fwmksx,"[""f"",""w"",""m"",""k"",""s"",""x""]","[1.9744999999999777,3.4405999999046344,3.9869999999999663,4.653500000000008,5.382899999856932,5.746599999904618,6.035799999952303]",0,FWKSXM,10,0,10,0,1,,,,,,,,,,,,,,,,,,,,,,,,,,,,,,,,,,,,,,,,,,,,,,,,,,,,,,,,,,,,,,,,,,,,,,,,,,,,,,,,,,,
,,,,,,,,,616d3fe2152e4765cda77ae8,36,Mężczyzna,2022-06-04_08h47.20.713,task,2021.1.4,Win32,144.1337561,628b806c463b948bc644b84f,629afea5ca11e57e234c6f5e,,,,,,0,0,0,0,1,X V Q F H G B L J M P D K C T S W R N Z,,,,,,,,,,,,,,,,,,,,,,,,,,,,,,,,,,,,,,,,,,,,,,,,,,,,,,,,,,,,,,,,,,,,,,,,,,,,,,,,,,,,,,,,,,,,,
,,,,,,,,,616d3fe2152e4765cda77ae8,36,Mężczyzna,2022-06-04_08h47.20.713,task,2021.1.4,Win32,144.1337561,628b806c463b948bc644b84f,629afea5ca11e57e234c6f5e,,,,,,1,0,1,0,1,X V Q F H G B L J M P D K C T S W R N Z,,,,,,,,,,,,,,,,,,,,,,,,,,,,,,,,,,,,,,,,,,,,,,,,,,,,,,,,,,,,,,,,,,,,,,,,,,,,,,,,,,,,,,,,,,,,,
,,,,,,,,,616d3fe2152e4765cda77ae8,36,Mężczyzna,2022-06-04_08h47.20.713,task,2021.1.4,Win32,144.1337561,628b806c463b948bc644b84f,629afea5ca11e57e234c6f5e,,,,,,2,0,2,0,1,X V Q F H G B L J M P D K C T S W R N Z,,,,,,,,,,,,,,,,,,,,,,,,,,,,,,,,,,,,,,,,,,,,,,,,,,,,,,,,,,,,,,,,,,,,,,,,,,,,,,,,,,,,,,,,,,,,,
,,,,,,,,,616d3fe2152e4765cda77ae8,36,Mężczyzna,2022-06-04_08h47.20.713,task,2021.1.4,Win32,144.1337561,628b806c463b948bc644b84f,629afea5ca11e57e234c6f5e,,,,,,3,0,3,0,1,X V Q F H G B L J M P D K C T S W R N Z,,,,,,,,,,,,,,,,,,,,,,,,,,,,,,,,,,,,,,,,,,,,,,,,,,,,,,,,,,,,,,,,,,,,,,,,,,,,,,,,,,,,,,,,,,,,,
,,,,,,,,,616d3fe2152e4765cda77ae8,36,Mężczyzna,2022-06-04_08h47.20.713,task,2021.1.4,Win32,144.1337561,628b806c463b948bc644b84f,629afea5ca11e57e234c6f5e,,,,,,4,0,4,0,1,X V Q F H G B L J M P D K C T S W R N Z,,,,,,,,,,,,,,,,,,,,,,,,,,,,,,,,,,,,,,,,,,,,,,,,,,,,,,,,,,,,,,,,,,,,,,,,,,,,,,,,,,,,,,,,,,,,,
,,,,,,,,,616d3fe2152e4765cda77ae8,36,Mężczyzna,2022-06-04_08h47.20.713,task,2021.1.4,Win32,144.1337561,628b806c463b948bc644b84f,629afea5ca11e57e234c6f5e,,,,,,5,0,5,0,1,X V Q F H G B L J M P D K C T S W R N Z,,,,,,,,,,,,,,,,,,,,,,,,,,,,,,,,,,,,,,,,,,,,,,,,,,,,,,,,,,,,,,,,,,,,,,,,,,,,,,,,,,,,,,,,,,,,,
,,,,,,,,,616d3fe2152e4765cda77ae8,36,Mężczyzna,2022-06-04_08h47.20.713,task,2021.1.4,Win32,144.1337561,628b806c463b948bc644b84f,629afea5ca11e57e234c6f5e,,,,,,,,,,,,tgcqtr,"[""t"",""g"",""c"",""q"",""t"",""r""]","[1.271000000000015,1.5791999998092479,1.9531999998092715,2.8893999998569484,3.2174999999999727,3.435299999952292,4.210599999904616]",1,TGCQTR,11,0,11,0,1,,,,,,,,,,,,,,,,,,,,,,,,,,,,,,,,,,,,,,,,,,,,,,,,,,,,,,,,,,,,,,,,,,,,,,,,,,,,,,,,,,,
,,,,,,,,,616d3fe2152e4765cda77ae8,36,Mężczyzna,2022-06-04_08h47.20.713,task,2021.1.4,Win32,144.1337561,628b806c463b948bc644b84f,629afea5ca11e57e234c6f5e,,,,,,0,0,0,0,1,X V Q F H G B L J M P D K C T S W R N Z,,,,,,,,,,,,,,,,,,,,,,,,,,,,,,,,,,,,,,,,,,,,,,,,,,,,,,,,,,,,,,,,,,,,,,,,,,,,,,,,,,,,,,,,,,,,,
,,,,,,,,,616d3fe2152e4765cda77ae8,36,Mężczyzna,2022-06-04_08h47.20.713,task,2021.1.4,Win32,144.1337561,628b806c463b948bc644b84f,629afea5ca11e57e234c6f5e,,,,,,1,0,1,0,1,X V Q F H G B L J M P D K C T S W R N Z,,,,,,,,,,,,,,,,,,,,,,,,,,,,,,,,,,,,,,,,,,,,,,,,,,,,,,,,,,,,,,,,,,,,,,,,,,,,,,,,,,,,,,,,,,,,,
,,,,,,,,,616d3fe2152e4765cda77ae8,36,Mężczyzna,2022-06-04_08h47.20.713,task,2021.1.4,Win32,144.1337561,628b806c463b948bc644b84f,629afea5ca11e57e234c6f5e,,,,,,2,0,2,0,1,X V Q F H G B L J M P D K C T S W R N Z,,,,,,,,,,,,,,,,,,,,,,,,,,,,,,,,,,,,,,,,,,,,,,,,,,,,,,,,,,,,,,,,,,,,,,,,,,,,,,,,,,,,,,,,,,,,,
,,,,,,,,,616d3fe2152e4765cda77ae8,36,Mężczyzna,2022-06-04_08h47.20.713,task,2021.1.4,Win32,144.1337561,628b806c463b948bc644b84f,629afea5ca11e57e234c6f5e,,,,,,3,0,3,0,1,X V Q F H G B L J M P D K C T S W R N Z,,,,,,,,,,,,,,,,,,,,,,,,,,,,,,,,,,,,,,,,,,,,,,,,,,,,,,,,,,,,,,,,,,,,,,,,,,,,,,,,,,,,,,,,,,,,,
,,,,,,,,,616d3fe2152e4765cda77ae8,36,Mężczyzna,2022-06-04_08h47.20.713,task,2021.1.4,Win32,144.1337561,628b806c463b948bc644b84f,629afea5ca11e57e234c6f5e,,,,,,4,0,4,0,1,X V Q F H G B L J M P D K C T S W R N Z,,,,,,,,,,,,,,,,,,,,,,,,,,,,,,,,,,,,,,,,,,,,,,,,,,,,,,,,,,,,,,,,,,,,,,,,,,,,,,,,,,,,,,,,,,,,,
,,,,,,,,,616d3fe2152e4765cda77ae8,36,Mężczyzna,2022-06-04_08h47.20.713,task,2021.1.4,Win32,144.1337561,628b806c463b948bc644b84f,629afea5ca11e57e234c6f5e,,,,,,5,0,5,0,1,X V Q F H G B L J M P D K C T S W R N Z,,,,,,,,,,,,,,,,,,,,,,,,,,,,,,,,,,,,,,,,,,,,,,,,,,,,,,,,,,,,,,,,,,,,,,,,,,,,,,,,,,,,,,,,,,,,,
,,,,,,,,,616d3fe2152e4765cda77ae8,36,Mężczyzna,2022-06-04_08h47.20.713,task,2021.1.4,Win32,144.1337561,628b806c463b948bc644b84f,629afea5ca11e57e234c6f5e,,,,,,6,0,6,0,1,X V Q F H G B L J M P D K C T S W R N Z,,,,,,,,,,,,,,,,,,,,,,,,,,,,,,,,,,,,,,,,,,,,,,,,,,,,,,,,,,,,,,,,,,,,,,,,,,,,,,,,,,,,,,,,,,,,,
,,,,,,,,,616d3fe2152e4765cda77ae8,36,Mężczyzna,2022-06-04_08h47.20.713,task,2021.1.4,Win32,144.1337561,628b806c463b948bc644b84f,629afea5ca11e57e234c6f5e,,,,,,,,,,,,htfgtfc,"[""h"",""t"",""f"",""g"",""t"",""f"",""c""]","[1.3170000000000073,1.5509000000953392,1.8147999999522995,2.2299000000953697,2.389499999999998,2.8339000000953547,3.3007999999522895,3.9732000000476546]",1,HTFGTFC,12,0,12,0,1,,,,,,,,,,,,,,,,,,,,,,,,,,,,,,,,,,,,,,,,,,,,,,,,,,,,,,,,,,,,,,,,,,,,,,,,,,,,,,,,,,,
,,,,,,,,,616d3fe2152e4765cda77ae8,36,Mężczyzna,2022-06-04_08h47.20.713,task,2021.1.4,Win32,144.1337561,628b806c463b948bc644b84f,629afea5ca11e57e234c6f5e,,,,,,0,0,0,0,1,X V Q F H G B L J M P D K C T S W R N Z,,,,,,,,,,,,,,,,,,,,,,,,,,,,,,,,,,,,,,,,,,,,,,,,,,,,,,,,,,,,,,,,,,,,,,,,,,,,,,,,,,,,,,,,,,,,,
,,,,,,,,,616d3fe2152e4765cda77ae8,36,Mężczyzna,2022-06-04_08h47.20.713,task,2021.1.4,Win32,144.1337561,628b806c463b948bc644b84f,629afea5ca11e57e234c6f5e,,,,,,1,0,1,0,1,X V Q F H G B L J M P D K C T S W R N Z,,,,,,,,,,,,,,,,,,,,,,,,,,,,,,,,,,,,,,,,,,,,,,,,,,,,,,,,,,,,,,,,,,,,,,,,,,,,,,,,,,,,,,,,,,,,,
,,,,,,,,,616d3fe2152e4765cda77ae8,36,Mężczyzna,2022-06-04_08h47.20.713,task,2021.1.4,Win32,144.1337561,628b806c463b948bc644b84f,629afea5ca11e57e234c6f5e,,,,,,2,0,2,0,1,X V Q F H G B L J M P D K C T S W R N Z,,,,,,,,,,,,,,,,,,,,,,,,,,,,,,,,,,,,,,,,,,,,,,,,,,,,,,,,,,,,,,,,,,,,,,,,,,,,,,,,,,,,,,,,,,,,,
,,,,,,,,,616d3fe2152e4765cda77ae8,36,Mężczyzna,2022-06-04_08h47.20.713,task,2021.1.4,Win32,144.1337561,628b806c463b948bc644b84f,629afea5ca11e57e234c6f5e,,,,,,3,0,3,0,1,X V Q F H G B L J M P D K C T S W R N Z,,,,,,,,,,,,,,,,,,,,,,,,,,,,,,,,,,,,,,,,,,,,,,,,,,,,,,,,,,,,,,,,,,,,,,,,,,,,,,,,,,,,,,,,,,,,,
,,,,,,,,,616d3fe2152e4765cda77ae8,36,Mężczyzna,2022-06-04_08h47.20.713,task,2021.1.4,Win32,144.1337561,628b806c463b948bc644b84f,629afea5ca11e57e234c6f5e,,,,,,4,0,4,0,1,X V Q F H G B L J M P D K C T S W R N Z,,,,,,,,,,,,,,,,,,,,,,,,,,,,,,,,,,,,,,,,,,,,,,,,,,,,,,,,,,,,,,,,,,,,,,,,,,,,,,,,,,,,,,,,,,,,,
,,,,,,,,,616d3fe2152e4765cda77ae8,36,Mężczyzna,2022-06-04_08h47.20.713,task,2021.1.4,Win32,144.1337561,628b806c463b948bc644b84f,629afea5ca11e57e234c6f5e,,,,,,5,0,5,0,1,X V Q F H G B L J M P D K C T S W R N Z,,,,,,,,,,,,,,,,,,,,,,,,,,,,,,,,,,,,,,,,,,,,,,,,,,,,,,,,,,,,,,,,,,,,,,,,,,,,,,,,,,,,,,,,,,,,,
,,,,,,,,,616d3fe2152e4765cda77ae8,36,Mężczyzna,2022-06-04_08h47.20.713,task,2021.1.4,Win32,144.1337561,628b806c463b948bc644b84f,629afea5ca11e57e234c6f5e,,,,,,6,0,6,0,1,X V Q F H G B L J M P D K C T S W R N Z,,,,,,,,,,,,,,,,,,,,,,,,,,,,,,,,,,,,,,,,,,,,,,,,,,,,,,,,,,,,,,,,,,,,,,,,,,,,,,,,,,,,,,,,,,,,,
,,,,,,,,,616d3fe2152e4765cda77ae8,36,Mężczyzna,2022-06-04_08h47.20.713,task,2021.1.4,Win32,144.1337561,628b806c463b948bc644b84f,629afea5ca11e57e234c6f5e,,,,,,,,,,,,wzmzzzm,"[""w"",""z"",""m"",""z"",""z"",""z"",""m""]","[1.149799999952279,1.4167000000476833,1.6117000000476764,2.1972999999522926,2.4180000000000064,2.7297000000476714,3.1333999998569197,4.781299999952296]",1,WZMZZZM,13,0,13,0,1,,,,,,,,,,,,,,,,,,,,,,,,,,,,,,,,,,,,,,,,,,,,,,,,,,,,,,,,,,,,,,,,,,,,,,,,,,,,,,,,,,,
,,,,,,,,,616d3fe2152e4765cda77ae8,36,Mężczyzna,2022-06-04_08h47.20.713,task,2021.1.4,Win32,144.1337561,628b806c463b948bc644b84f,629afea5ca11e57e234c6f5e,,,,,,0,0,0,0,1,X V Q F H G B L J M P D K C T S W R N Z,,,,,,,,,,,,,,,,,,,,,,,,,,,,,,,,,,,,,,,,,,,,,,,,,,,,,,,,,,,,,,,,,,,,,,,,,,,,,,,,,,,,,,,,,,,,,
,,,,,,,,,616d3fe2152e4765cda77ae8,36,Mężczyzna,2022-06-04_08h47.20.713,task,2021.1.4,Win32,144.1337561,628b806c463b948bc644b84f,629afea5ca11e57e234c6f5e,,,,,,1,0,1,0,1,X V Q F H G B L J M P D K C T S W R N Z,,,,,,,,,,,,,,,,,,,,,,,,,,,,,,,,,,,,,,,,,,,,,,,,,,,,,,,,,,,,,,,,,,,,,,,,,,,,,,,,,,,,,,,,,,,,,
,,,,,,,,,616d3fe2152e4765cda77ae8,36,Mężczyzna,2022-06-04_08h47.20.713,task,2021.1.4,Win32,144.1337561,628b806c463b948bc644b84f,629afea5ca11e57e234c6f5e,,,,,,2,0,2,0,1,X V Q F H G B L J M P D K C T S W R N Z,,,,,,,,,,,,,,,,,,,,,,,,,,,,,,,,,,,,,,,,,,,,,,,,,,,,,,,,,,,,,,,,,,,,,,,,,,,,,,,,,,,,,,,,,,,,,
,,,,,,,,,616d3fe2152e4765cda77ae8,36,Mężczyzna,2022-06-04_08h47.20.713,task,2021.1.4,Win32,144.1337561,628b806c463b948bc644b84f,629afea5ca11e57e234c6f5e,,,,,,3,0,3,0,1,X V Q F H G B L J M P D K C T S W R N Z,,,,,,,,,,,,,,,,,,,,,,,,,,,,,,,,,,,,,,,,,,,,,,,,,,,,,,,,,,,,,,,,,,,,,,,,,,,,,,,,,,,,,,,,,,,,,
,,,,,,,,,616d3fe2152e4765cda77ae8,36,Mężczyzna,2022-06-04_08h47.20.713,task,2021.1.4,Win32,144.1337561,628b806c463b948bc644b84f,629afea5ca11e57e234c6f5e,,,,,,4,0,4,0,1,X V Q F H G B L J M P D K C T S W R N Z,,,,,,,,,,,,,,,,,,,,,,,,,,,,,,,,,,,,,,,,,,,,,,,,,,,,,,,,,,,,,,,,,,,,,,,,,,,,,,,,,,,,,,,,,,,,,
,,,,,,,,,616d3fe2152e4765cda77ae8,36,Mężczyzna,2022-06-04_08h47.20.713,task,2021.1.4,Win32,144.1337561,628b806c463b948bc644b84f,629afea5ca11e57e234c6f5e,,,,,,5,0,5,0,1,X V Q F H G B L J M P D K C T S W R N Z,,,,,,,,,,,,,,,,,,,,,,,,,,,,,,,,,,,,,,,,,,,,,,,,,,,,,,,,,,,,,,,,,,,,,,,,,,,,,,,,,,,,,,,,,,,,,
,,,,,,,,,616d3fe2152e4765cda77ae8,36,Mężczyzna,2022-06-04_08h47.20.713,task,2021.1.4,Win32,144.1337561,628b806c463b948bc644b84f,629afea5ca11e57e234c6f5e,,,,,,6,0,6,0,1,X V Q F H G B L J M P D K C T S W R N Z,,,,,,,,,,,,,,,,,,,,,,,,,,,,,,,,,,,,,,,,,,,,,,,,,,,,,,,,,,,,,,,,,,,,,,,,,,,,,,,,,,,,,,,,,,,,,
,,,,,,,,,616d3fe2152e4765cda77ae8,36,Mężczyzna,2022-06-04_08h47.20.713,task,2021.1.4,Win32,144.1337561,628b806c463b948bc644b84f,629afea5ca11e57e234c6f5e,,,,,,7,0,7,0,1,X V Q F H G B L J M P D K C T S W R N Z,,,,,,,,,,,,,,,,,,,,,,,,,,,,,,,,,,,,,,,,,,,,,,,,,,,,,,,,,,,,,,,,,,,,,,,,,,,,,,,,,,,,,,,,,,,,,
,,,,,,,,,616d3fe2152e4765cda77ae8,36,Mężczyzna,2022-06-04_08h47.20.713,task,2021.1.4,Win32,144.1337561,628b806c463b948bc644b84f,629afea5ca11e57e234c6f5e,,,,,,,,,,,,gdvpzslm,"[""g"",""d"",""v"",""p"",""z"",""s"",""l"",""m""]","[1.3281000001430243,1.4898000001907121,1.6392000000476514,2.3909999999999627,2.608100000143054,3.4540000000000077,5.800100000143004,8.370300000190696,9.175400000095351]",0,GDVPZSLR,14,0,14,0,1,,,,,,,,,,,,,,,,,,,,,,,,,,,,,,,,,,,,,,,,,,,,,,,,,,,,,,,,,,,,,,,,,,,,,,,,,,,,,,,,,,,
,,,,,,,,,616d3fe2152e4765cda77ae8,36,Mężczyzna,2022-06-04_08h47.20.713,task,2021.1.4,Win32,144.1337561,628b806c463b948bc644b84f,629afea5ca11e57e234c6f5e,,,,,,0,0,0,0,1,X V Q F H G B L J M P D K C T S W R N Z,,,,,,,,,,,,,,,,,,,,,,,,,,,,,,,,,,,,,,,,,,,,,,,,,,,,,,,,,,,,,,,,,,,,,,,,,,,,,,,,,,,,,,,,,,,,,
,,,,,,,,,616d3fe2152e4765cda77ae8,36,Mężczyzna,2022-06-04_08h47.20.713,task,2021.1.4,Win32,144.1337561,628b806c463b948bc644b84f,629afea5ca11e57e234c6f5e,,,,,,1,0,1,0,1,X V Q F H G B L J M P D K C T S W R N Z,,,,,,,,,,,,,,,,,,,,,,,,,,,,,,,,,,,,,,,,,,,,,,,,,,,,,,,,,,,,,,,,,,,,,,,,,,,,,,,,,,,,,,,,,,,,,
,,,,,,,,,616d3fe2152e4765cda77ae8,36,Mężczyzna,2022-06-04_08h47.20.713,task,2021.1.4,Win32,144.1337561,628b806c463b948bc644b84f,629afea5ca11e57e234c6f5e,,,,,,2,0,2,0,1,X V Q F H G B L J M P D K C T S W R N Z,,,,,,,,,,,,,,,,,,,,,,,,,,,,,,,,,,,,,,,,,,,,,,,,,,,,,,,,,,,,,,,,,,,,,,,,,,,,,,,,,,,,,,,,,,,,,
,,,,,,,,,616d3fe2152e4765cda77ae8,36,Mężczyzna,2022-06-04_08h47.20.713,task,2021.1.4,Win32,144.1337561,628b806c463b948bc644b84f,629afea5ca11e57e234c6f5e,,,,,,3,0,3,0,1,X V Q F H G B L J M P D K C T S W R N Z,,,,,,,,,,,,,,,,,,,,,,,,,,,,,,,,,,,,,,,,,,,,,,,,,,,,,,,,,,,,,,,,,,,,,,,,,,,,,,,,,,,,,,,,,,,,,
,,,,,,,,,616d3fe2152e4765cda77ae8,36,Mężczyzna,2022-06-04_08h47.20.713,task,2021.1.4,Win32,144.1337561,628b806c463b948bc644b84f,629afea5ca11e57e234c6f5e,,,,,,4,0,4,0,1,X V Q F H G B L J M P D K C T S W R N Z,,,,,,,,,,,,,,,,,,,,,,,,,,,,,,,,,,,,,,,,,,,,,,,,,,,,,,,,,,,,,,,,,,,,,,,,,,,,,,,,,,,,,,,,,,,,,
,,,,,,,,,616d3fe2152e4765cda77ae8,36,Mężczyzna,2022-06-04_08h47.20.713,task,2021.1.4,Win32,144.1337561,628b806c463b948bc644b84f,629afea5ca11e57e234c6f5e,,,,,,5,0,5,0,1,X V Q F H G B L J M P D K C T S W R N Z,,,,,,,,,,,,,,,,,,,,,,,,,,,,,,,,,,,,,,,,,,,,,,,,,,,,,,,,,,,,,,,,,,,,,,,,,,,,,,,,,,,,,,,,,,,,,
,,,,,,,,,616d3fe2152e4765cda77ae8,36,Mężczyzna,2022-06-04_08h47.20.713,task,2021.1.4,Win32,144.1337561,628b806c463b948bc644b84f,629afea5ca11e57e234c6f5e,,,,,,6,0,6,0,1,X V Q F H G B L J M P D K C T S W R N Z,,,,,,,,,,,,,,,,,,,,,,,,,,,,,,,,,,,,,,,,,,,,,,,,,,,,,,,,,,,,,,,,,,,,,,,,,,,,,,,,,,,,,,,,,,,,,
,,,,,,,,,616d3fe2152e4765cda77ae8,36,Mężczyzna,2022-06-04_08h47.20.713,task,2021.1.4,Win32,144.1337561,628b806c463b948bc644b84f,629afea5ca11e57e234c6f5e,,,,,,7,0,7,0,1,X V Q F H G B L J M P D K C T S W R N Z,,,,,,,,,,,,,,,,,,,,,,,,,,,,,,,,,,,,,,,,,,,,,,,,,,,,,,,,,,,,,,,,,,,,,,,,,,,,,,,,,,,,,,,,,,,,,
,,,,,,,,,616d3fe2152e4765cda77ae8,36,Mężczyzna,2022-06-04_08h47.20.713,task,2021.1.4,Win32,144.1337561,628b806c463b948bc644b84f,629afea5ca11e57e234c6f5e,,,,,,,,,,,,qtmnktm,"[""q"",""t"",""m"",""n"",""k"",""t"",""m""]","[2.764499999999998,3.4450999999046417,3.6192999999522613,4.20190000009535,4.57720000004764,4.969599999904688,5.1185999999046885,29.94320000004774]",0,NQBXTGNK,15,0,15,0,1,,,,,,,,,,,,,,,,,,,,,,,,,,,,,,,,,,,,,,,,,,,,,,,,,,,,,,,,,,,,,,,,,,,,,,,,,,,,,,,,,,,
,,,,,,,,,616d3fe2152e4765cda77ae8,36,Mężczyzna,2022-06-04_08h47.20.713,task,2021.1.4,Win32,144.1337561,628b806c463b948bc644b84f,629afea5ca11e57e234c6f5e,,,,,,0,0,0,0,1,X V Q F H G B L J M P D K C T S W R N Z,,,,,,,,,,,,,,,,,,,,,,,,,,,,,,,,,,,,,,,,,,,,,,,,,,,,,,,,,,,,,,,,,,,,,,,,,,,,,,,,,,,,,,,,,,,,,
,,,,,,,,,616d3fe2152e4765cda77ae8,36,Mężczyzna,2022-06-04_08h47.20.713,task,2021.1.4,Win32,144.1337561,628b806c463b948bc644b84f,629afea5ca11e57e234c6f5e,,,,,,1,0,1,0,1,X V Q F H G B L J M P D K C T S W R N Z,,,,,,,,,,,,,,,,,,,,,,,,,,,,,,,,,,,,,,,,,,,,,,,,,,,,,,,,,,,,,,,,,,,,,,,,,,,,,,,,,,,,,,,,,,,,,
,,,,,,,,,616d3fe2152e4765cda77ae8,36,Mężczyzna,2022-06-04_08h47.20.713,task,2021.1.4,Win32,144.1337561,628b806c463b948bc644b84f,629afea5ca11e57e234c6f5e,,,,,,2,0,2,0,1,X V Q F H G B L J M P D K C T S W R N Z,,,,,,,,,,,,,,,,,,,,,,,,,,,,,,,,,,,,,,,,,,,,,,,,,,,,,,,,,,,,,,,,,,,,,,,,,,,,,,,,,,,,,,,,,,,,,
,,,,,,,,,616d3fe2152e4765cda77ae8,36,Mężczyzna,2022-06-04_08h47.20.713,task,2021.1.4,Win32,144.1337561,628b806c463b948bc644b84f,629afea5ca11e57e234c6f5e,,,,,,3,0,3,0,1,X V Q F H G B L J M P D K C T S W R N Z,,,,,,,,,,,,,,,,,,,,,,,,,,,,,,,,,,,,,,,,,,,,,,,,,,,,,,,,,,,,,,,,,,,,,,,,,,,,,,,,,,,,,,,,,,,,,
,,,,,,,,,616d3fe2152e4765cda77ae8,36,Mężczyzna,2022-06-04_08h47.20.713,task,2021.1.4,Win32,144.1337561,628b806c463b948bc644b84f,629afea5ca11e57e234c6f5e,,,,,,4,0,4,0,1,X V Q F H G B L J M P D K C T S W R N Z,,,,,,,,,,,,,,,,,,,,,,,,,,,,,,,,,,,,,,,,,,,,,,,,,,,,,,,,,,,,,,,,,,,,,,,,,,,,,,,,,,,,,,,,,,,,,
,,,,,,,,,616d3fe2152e4765cda77ae8,36,Mężczyzna,2022-06-04_08h47.20.713,task,2021.1.4,Win32,144.1337561,628b806c463b948bc644b84f,629afea5ca11e57e234c6f5e,,,,,,5,0,5,0,1,X V Q F H G B L J M P D K C T S W R N Z,,,,,,,,,,,,,,,,,,,,,,,,,,,,,,,,,,,,,,,,,,,,,,,,,,,,,,,,,,,,,,,,,,,,,,,,,,,,,,,,,,,,,,,,,,,,,
,,,,,,,,,616d3fe2152e4765cda77ae8,36,Mężczyzna,2022-06-04_08h47.20.713,task,2021.1.4,Win32,144.1337561,628b806c463b948bc644b84f,629afea5ca11e57e234c6f5e,,,,,,6,0,6,0,1,X V Q F H G B L J M P D K C T S W R N Z,,,,,,,,,,,,,,,,,,,,,,,,,,,,,,,,,,,,,,,,,,,,,,,,,,,,,,,,,,,,,,,,,,,,,,,,,,,,,,,,,,,,,,,,,,,,,
,,,,,,,,,616d3fe2152e4765cda77ae8,36,Mężczyzna,2022-06-04_08h47.20.713,task,2021.1.4,Win32,144.1337561,628b806c463b948bc644b84f,629afea5ca11e57e234c6f5e,,,,,,7,0,7,0,1,X V Q F H G B L J M P D K C T S W R N Z,,,,,,,,,,,,,,,,,,,,,,,,,,,,,,,,,,,,,,,,,,,,,,,,,,,,,,,,,,,,,,,,,,,,,,,,,,,,,,,,,,,,,,,,,,,,,
,,,,,,,,,616d3fe2152e4765cda77ae8,36,Mężczyzna,2022-06-04_08h47.20.713,task,2021.1.4,Win32,144.1337561,628b806c463b948bc644b84f,629afea5ca11e57e234c6f5e,,,,,,,,,,,,qvwdtptw,"[""q"",""v"",""w"",""d"",""t"",""p"",""t"",""w""]","[11.43479999995236,12.001400000095373,12.351400000095396,18.66300000000001,18.970799999952305,19.526799999952345,24.9089000000954,25.20529999995233,27.76750000000004]",1,QVWDTPTW,16,0,16,0,1,,,,,,,,,,,,,,,,,,,,,,,,,,,,,,,,,,,,,,,,,,,,,,,,,,,,,,,,,,,,,,,,,,,,,,,,,,,,,,,,,,,
,,,,,,,,,616d3fe2152e4765cda77ae8,36,Mężczyzna,2022-06-04_08h47.20.713,task,2021.1.4,Win32,144.1337561,628b806c463b948bc644b84f,629afea5ca11e57e234c6f5e,,,,,,0,0,0,0,1,X V Q F H G B L J M P D K C T S W R N Z,,,,,,,,,,,,,,,,,,,,,,,,,,,,,,,,,,,,,,,,,,,,,,,,,,,,,,,,,,,,,,,,,,,,,,,,,,,,,,,,,,,,,,,,,,,,,
,,,,,,,,,616d3fe2152e4765cda77ae8,36,Mężczyzna,2022-06-04_08h47.20.713,task,2021.1.4,Win32,144.1337561,628b806c463b948bc644b84f,629afea5ca11e57e234c6f5e,,,,,,1,0,1,0,1,X V Q F H G B L J M P D K C T S W R N Z,,,,,,,,,,,,,,,,,,,,,,,,,,,,,,,,,,,,,,,,,,,,,,,,,,,,,,,,,,,,,,,,,,,,,,,,,,,,,,,,,,,,,,,,,,,,,
,,,,,,,,,616d3fe2152e4765cda77ae8,36,Mężczyzna,2022-06-04_08h47.20.713,task,2021.1.4,Win32,144.1337561,628b806c463b948bc644b84f,629afea5ca11e57e234c6f5e,,,,,,2,0,2,0,1,X V Q F H G B L J M P D K C T S W R N Z,,,,,,,,,,,,,,,,,,,,,,,,,,,,,,,,,,,,,,,,,,,,,,,,,,,,,,,,,,,,,,,,,,,,,,,,,,,,,,,,,,,,,,,,,,,,,
,,,,,,,,,616d3fe2152e4765cda77ae8,36,Mężczyzna,2022-06-04_08h47.20.713,task,2021.1.4,Win32,144.1337561,628b806c463b948bc644b84f,629afea5ca11e57e234c6f5e,,,,,,3,0,3,0,1,X V Q F H G B L J M P D K C T S W R N Z,,,,,,,,,,,,,,,,,,,,,,,,,,,,,,,,,,,,,,,,,,,,,,,,,,,,,,,,,,,,,,,,,,,,,,,,,,,,,,,,,,,,,,,,,,,,,
,,,,,,,,,616d3fe2152e4765cda77ae8,36,Mężczyzna,2022-06-04_08h47.20.713,task,2021.1.4,Win32,144.1337561,628b806c463b948bc644b84f,629afea5ca11e57e234c6f5e,,,,,,4,0,4,0,1,X V Q F H G B L J M P D K C T S W R N Z,,,,,,,,,,,,,,,,,,,,,,,,,,,,,,,,,,,,,,,,,,,,,,,,,,,,,,,,,,,,,,,,,,,,,,,,,,,,,,,,,,,,,,,,,,,,,
,,,,,,,,,616d3fe2152e4765cda77ae8,36,Mężczyzna,2022-06-04_08h47.20.713,task,2021.1.4,Win32,144.1337561,628b806c463b948bc644b84f,629afea5ca11e57e234c6f5e,,,,,,5,0,5,0,1,X V Q F H G B L J M P D K C T S W R N Z,,,,,,,,,,,,,,,,,,,,,,,,,,,,,,,,,,,,,,,,,,,,,,,,,,,,,,,,,,,,,,,,,,,,,,,,,,,,,,,,,,,,,,,,,,,,,
,,,,,,,,,616d3fe2152e4765cda77ae8,36,Mężczyzna,2022-06-04_08h47.20.713,task,2021.1.4,Win32,144.1337561,628b806c463b948bc644b84f,629afea5ca11e57e234c6f5e,,,,,,6,0,6,0,1,X V Q F H G B L J M P D K C T S W R N Z,,,,,,,,,,,,,,,,,,,,,,,,,,,,,,,,,,,,,,,,,,,,,,,,,,,,,,,,,,,,,,,,,,,,,,,,,,,,,,,,,,,,,,,,,,,,,
,,,,,,,,,616d3fe2152e4765cda77ae8,36,Mężczyzna,2022-06-04_08h47.20.713,task,2021.1.4,Win32,144.1337561,628b806c463b948bc644b84f,629afea5ca11e57e234c6f5e,,,,,,7,0,7,0,1,X V Q F H G B L J M P D K C T S W R N Z,,,,,,,,,,,,,,,,,,,,,,,,,,,,,,,,,,,,,,,,,,,,,,,,,,,,,,,,,,,,,,,,,,,,,,,,,,,,,,,,,,,,,,,,,,,,,
,,,,,,,,,616d3fe2152e4765cda77ae8,36,Mężczyzna,2022-06-04_08h47.20.713,task,2021.1.4,Win32,144.1337561,628b806c463b948bc644b84f,629afea5ca11e57e234c6f5e,,,,,,,,,,,,qqnbbttw,"[""q"",""q"",""n"",""b"",""b"",""t"",""t"",""w""]","[1.8756000001430948,2.0284000000954165,2.3862000000476655,3.086200000047711,3.2367000000476764,3.418100000143113,3.896600000143053,4.146700000047645,5.008400000095435]",0,QQNBBTBH,17,0,17,0,1,,,,,,,,,,,,,,,,,,,,,,,,,,,,,,,,,,,,,,,,,,,,,,,,,,,,,,,,,,,,,,,,,,,,,,,,,,,,,,,,,,,
,,,,,,,,,616d3fe2152e4765cda77ae8,36,Mężczyzna,2022-06-04_08h47.20.713,task,2021.1.4,Win32,144.1337561,628b806c463b948bc644b84f,629afea5ca11e57e234c6f5e,,,,,,,,,,,,,,,,,,,,,,space,15.2446,9,"[""9""]",1,[12.323400000095376],[12.323400000095376],0,0,0,9,1,Practice,10,(20/2) - 1,9,,,,,,,,,,,,,,,,,,,,,,,,,,,,,,,,,,,,,,,,,,,,,,,,,,,,,,,,,,,,,,,,,,,
,,,,,,,,,616d3fe2152e4765cda77ae8,36,Mężczyzna,2022-06-04_08h47.20.713,task,2021.1.4,Win32,144.1337561,628b806c463b948bc644b84f,629afea5ca11e57e234c6f5e,,,,,,,,,,,,,,,,,,,,,,,,1,"[""1""]",1,[5.199499999999944],"[12.323400000095376,5.199499999999944]",0,1,1,1,1,Practice,2,(4x4) - 15,1,,,,,,,,,,,,,,,,,,,,,,,,,,,,,,,,,,,,,,,,,,,,,,,,,,,,,,,,,,,,,,,,,,,
,,,,,,,,,616d3fe2152e4765cda77ae8,36,Mężczyzna,2022-06-04_08h47.20.713,task,2021.1.4,Win32,144.1337561,628b806c463b948bc644b84f,629afea5ca11e57e234c6f5e,,,,,,,,,,,,,,,,,,,,,,,,2,"[""2""]",1,[2.594000000000051],"[12.323400000095376,5.199499999999944,2.594000000000051]",0,2,2,2,1,Practice,3,(4x4) - 14,2,,,,,,,,,,,,,,,,,,,,,,,,,,,,,,,,,,,,,,,,,,,,,,,,,,,,,,,,,,,,,,,,,,,
,,,,,,,,,616d3fe2152e4765cda77ae8,36,Mężczyzna,2022-06-04_08h47.20.713,task,2021.1.4,Win32,144.1337561,628b806c463b948bc644b84f,629afea5ca11e57e234c6f5e,,,,,,,,,,,,,,,,,,,,,,,,8,"[""8""]",1,[7.05009999990466],"[12.323400000095376,5.199499999999944,2.594000000000051,7.05009999990466]",0,3,3,8,1,Practice,9,(3x3) - 1,8,,,,,,,,,,,,,,,,,,,,,,,,,,,,,,,,,,,,,,,,,,,,,,,,,,,,,,,,,,,,,,,,,,,
,,,,,,,,,616d3fe2152e4765cda77ae8,36,Mężczyzna,2022-06-04_08h47.20.713,task,2021.1.4,Win32,144.1337561,628b806c463b948bc644b84f,629afea5ca11e57e234c6f5e,,,,,,,,,,,,,,,,,,,,,,,,0,"[""0""]",1,[2.3263999998569034],"[12.323400000095376,5.199499999999944,2.594000000000051,7.05009999990466,2.3263999998569034]",0,4,4,0,1,Practice,1,(3x3) -  9,0,,,,,,,,,,,,,,,,,,,,,,,,,,,,,,,,,,,,,,,,,,,,,,,,,,,,,,,,,,,,,,,,,,,
,,,,,,,,,616d3fe2152e4765cda77ae8,36,Mężczyzna,2022-06-04_08h47.20.713,task,2021.1.4,Win32,144.1337561,628b806c463b948bc644b84f,629afea5ca11e57e234c6f5e,,,,,,,,,,,,,,,,,,,,,,,,5,"[""5""]",1,[3.821700000047599],"[12.323400000095376,5.199499999999944,2.594000000000051,7.05009999990466,2.3263999998569034,3.821700000047599]",0,5,5,5,1,Practice,6,(4/2) + 3,5,,,,,,,,,,,,,,,,,,,,,,,,,,,,,,,,,,,,,,,,,,,,,,,,,,,,,,,,,,,,,,,,,,,
,,,,,,,,,616d3fe2152e4765cda77ae8,36,Mężczyzna,2022-06-04_08h47.20.713,task,2021.1.4,Win32,144.1337561,628b806c463b948bc644b84f,629afea5ca11e57e234c6f5e,,,,,,,,,,,,,,,,,,,,,,,,3,"[""3""]",1,[9.855500000000006],"[12.323400000095376,5.199499999999944,2.594000000000051,7.05009999990466,2.3263999998569034,3.821700000047599,9.855500000000006]",0,6,6,3,1,Practice,4,(8/4) + 1,3,,,,,,,,,,,,,,,,,,,,,,,,,,,,,,,,,,,,,,,,,,,,,,,,,,,,,,,,,,,,,,,,,,,
,,,,,,,,,616d3fe2152e4765cda77ae8,36,Mężczyzna,2022-06-04_08h47.20.713,task,2021.1.4,Win32,144.1337561,628b806c463b948bc644b84f,629afea5ca11e57e234c6f5e,,,,,,,,,,,,,,,,,,,,,,,,6,"[""6""]",1,[3.8839000000953092],"[12.323400000095376,5.199499999999944,2.594000000000051,7.05009999990466,2.3263999998569034,3.821700000047599,9.855500000000006,3.8839000000953092]",0,7,7,6,1,Practice,7,(25/5) + 1,6,,,,,,,,,,,,,,,,,,,,,,,,,,,,,,,,,,,,,,,,,,,,,,,,,,,,,,,,,,,,,,,,,,,
,,,,,,,,,616d3fe2152e4765cda77ae8,36,Mężczyzna,2022-06-04_08h47.20.713,task,2021.1.4,Win32,144.1337561,628b806c463b948bc644b84f,629afea5ca11e57e234c6f5e,,,,,,,,,,,,,,,,,,,,,,,,7,"[""7""]",1,[36.92959999990455],"[12.323400000095376,5.199499999999944,2.594000000000051,7.05009999990466,2.3263999998569034,3.821700000047599,9.855500000000006,3.8839000000953092,36.92959999990455]",0,8,8,7,1,Practice,8,(5x5) - 18,7,,,,,,,,,,,,,,,,,,,,,,,,,,,,,,,,,,,,,,,,,,,,,,,,,,,,,,,,,,,,,,,,,,,
,,,,,,,,,616d3fe2152e4765cda77ae8,36,Mężczyzna,2022-06-04_08h47.20.713,task,2021.1.4,Win32,144.1337561,628b806c463b948bc644b84f,629afea5ca11e57e234c6f5e,,,,,,,,,,,,,,,,,,,,,,,,4,"[""4""]",1,[9.980599999904598],"[12.323400000095376,5.199499999999944,2.594000000000051,7.05009999990466,2.3263999998569034,3.821700000047599,9.855500000000006,3.8839000000953092,36.92959999990455,9.980599999904598]",0,9,9,4,1,Practice,5,(2x6) - 8,4,,,,,,,,,,,,,,,,,,,,,,,,,,,,,,,,,,,,,,,,,,,,,,,,,,,,,,,,,,,,,,,,,,,
,,,,,,,,,616d3fe2152e4765cda77ae8,36,Mężczyzna,2022-06-04_08h47.20.713,task,2021.1.4,Win32,144.1337561,628b806c463b948bc644b84f,629afea5ca11e57e234c6f5e,,,,,,,,,,,,,,,,,,,,,,,,,,,,,,,,,,,,,,1,93.9647,6.264313333,1046.142123,8.351215971,27.81045054,space,6.6606,0,0,0,0,1,,,,,,,,,,,,,,,,,,,,,,,,,,,,,,,,,,,,,,,,,,,,,,,,,,,,,,
,,,,,,,,,616d3fe2152e4765cda77ae8,36,Mężczyzna,2022-06-04_08h47.20.713,task,2021.1.4,Win32,144.1337561,628b806c463b948bc644b84f,629afea5ca11e57e234c6f5e,,,,,,,,,,,,,,,,,,,,,,,,5,,,,,,,,,,Practice,6,(4/2) + 3,5,,,,,,,,,,,,,,space,92.1107,"[""5""]",1,[8.621700000047781],1,0,0,0,5,1,,,,,,,,,,,,,,,,,,,,,,,,,,,,,,,,,,,,,,,,,,,
,,,,,,,,,616d3fe2152e4765cda77ae8,36,Mężczyzna,2022-06-04_08h47.20.713,task,2021.1.4,Win32,144.1337561,628b806c463b948bc644b84f,629afea5ca11e57e234c6f5e,,,,,,,,,,,X V Q F H G B L J M P D K C T S W R N Z,,,,,,,,,,,,,,,,,,,,,,,,,,,,,,,,,,,,,,,,,,,,,,,,,,,0,0,0,0,1,,,,,,,,,,,,,,,,,,,,,,,,,,,,,,,,,,,,,,
,,,,,,,,,616d3fe2152e4765cda77ae8,36,Mężczyzna,2022-06-04_08h47.20.713,task,2021.1.4,Win32,144.1337561,628b806c463b948bc644b84f,629afea5ca11e57e234c6f5e,,,,,,,,,,,,,,,,,,,,,,,,3,,,,,,,,,,Practice,4,(8/4) + 1,3,,,,,,,,,,,,,,,,"[""3""]",1,[10.327599999904578],1,0,0,0,3,1,,,,,,,,,,,,,,,,,,,,,,,,,,,,,,,,,,,,,,,,,,,
,,,,,,,,,616d3fe2152e4765cda77ae8,36,Mężczyzna,2022-06-04_08h47.20.713,task,2021.1.4,Win32,144.1337561,628b806c463b948bc644b84f,629afea5ca11e57e234c6f5e,,,,,,,,,,,X V Q F H G B L J M P D K C T S W R N Z,,,,,,,,,,,,,,,,,,,,,,,,,,,,,,,,,,,,,,,,,,,,,,,,,,,1,0,1,0,1,,,,,,,,,,,,,,,,,,,,,,,,,,,,,,,,,,,,,,
,,,,,,,,,616d3fe2152e4765cda77ae8,36,Mężczyzna,2022-06-04_08h47.20.713,task,2021.1.4,Win32,144.1337561,628b806c463b948bc644b84f,629afea5ca11e57e234c6f5e,,,,,,,,,,,,,,,,,,,,,,,,,,,,,,,,,,,,,,,,,,,,,,,,,,,,,,,,,,,,,,,,,,,zs,"[""z"",""s""]",0,"[6.488700000047743,6.724299999952336,8.625099999904705]",1,0,0,0,0,1,,,,,,,,,,,,,,,,,,,,,,,,,,,,
,,,,,,,,,616d3fe2152e4765cda77ae8,36,Mężczyzna,2022-06-04_08h47.20.713,task,2021.1.4,Win32,144.1337561,628b806c463b948bc644b84f,629afea5ca11e57e234c6f5e,,,,,,,,,,,,,,,,,,,,,,,,7,,,,,,,,,,Practice,8,(5x5) - 18,7,,,,,,,,,,,,,,,,"[""7""]",1,[5.001400000095373],1,0,0,0,7,1,,,,,,,,,,,,,,,,,,,,,,,,,,,,,,,,,,,,,,,,,,,
,,,,,,,,,616d3fe2152e4765cda77ae8,36,Mężczyzna,2022-06-04_08h47.20.713,task,2021.1.4,Win32,144.1337561,628b806c463b948bc644b84f,629afea5ca11e57e234c6f5e,,,,,,,,,,,X V Q F H G B L J M P D K C T S W R N Z,,,,,,,,,,,,,,,,,,,,,,,,,,,,,,,,,,,,,,,,,,,,,,,,,,,0,0,0,0,1,,,,,,,,,,,,,,,,,,,,,,,,,,,,,,,,,,,,,,
,,,,,,,,,616d3fe2152e4765cda77ae8,36,Mężczyzna,2022-06-04_08h47.20.713,task,2021.1.4,Win32,144.1337561,628b806c463b948bc644b84f,629afea5ca11e57e234c6f5e,,,,,,,,,,,,,,,,,,,,,,,,5,,,,,,,,,,Practice,6,(4/2) + 3,5,,,,,,,,,,,,,,,,"[""5""]",1,[10.573899999856962],1,0,0,0,5,1,,,,,,,,,,,,,,,,,,,,,,,,,,,,,,,,,,,,,,,,,,,
,,,,,,,,,616d3fe2152e4765cda77ae8,36,Mężczyzna,2022-06-04_08h47.20.713,task,2021.1.4,Win32,144.1337561,628b806c463b948bc644b84f,629afea5ca11e57e234c6f5e,,,,,,,,,,,X V Q F H G B L J M P D K C T S W R N Z,,,,,,,,,,,,,,,,,,,,,,,,,,,,,,,,,,,,,,,,,,,,,,,,,,,1,0,1,0,1,,,,,,,,,,,,,,,,,,,,,,,,,,,,,,,,,,,,,,
,,,,,,,,,616d3fe2152e4765cda77ae8,36,Mężczyzna,2022-06-04_08h47.20.713,task,2021.1.4,Win32,144.1337561,628b806c463b948bc644b84f,629afea5ca11e57e234c6f5e,,,,,,,,,,,,,,,,,,,,,,,,,,,,,,,,,,,,,,,,,,,,,,,,,,,,,,,,,,,,,,,,,,,xt,"[""x"",""t""]",0,"[2.395600000142963,2.6592999999522817,3.010100000142984]",1,1,0,1,0,1,,,,,,,,,,,,,,,,,,,,,,,,,,,,
,,,,,,,,,616d3fe2152e4765cda77ae8,36,Mężczyzna,2022-06-04_08h47.20.713,task,2021.1.4,Win32,144.1337561,628b806c463b948bc644b84f,629afea5ca11e57e234c6f5e,,,,,,,,,,,,,,,,,,,,,,,,1,,,,,,,,,,Practice,2,(4x4) - 15,1,,,,,,,,,,,,,,,,"[""1""]",1,[2.2877999999523126],1,0,0,0,1,1,,,,,,,,,,,,,,,,,,,,,,,,,,,,,,,,,,,,,,,,,,,
,,,,,,,,,616d3fe2152e4765cda77ae8,36,Mężczyzna,2022-06-04_08h47.20.713,task,2021.1.4,Win32,144.1337561,628b806c463b948bc644b84f,629afea5ca11e57e234c6f5e,,,,,,,,,,,X V Q F H G B L J M P D K C T S W R N Z,,,,,,,,,,,,,,,,,,,,,,,,,,,,,,,,,,,,,,,,,,,,,,,,,,,0,0,0,0,1,,,,,,,,,,,,,,,,,,,,,,,,,,,,,,,,,,,,,,
,,,,,,,,,616d3fe2152e4765cda77ae8,36,Mężczyzna,2022-06-04_08h47.20.713,task,2021.1.4,Win32,144.1337561,628b806c463b948bc644b84f,629afea5ca11e57e234c6f5e,,,,,,,,,,,,,,,,,,,,,,,,8,,,,,,,,,,Practice,9,(3x3) - 1,8,,,,,,,,,,,,,,,,"[""8""]",1,[3.925700000047641],1,0,0,0,8,1,,,,,,,,,,,,,,,,,,,,,,,,,,,,,,,,,,,,,,,,,,,
,,,,,,,,,616d3fe2152e4765cda77ae8,36,Mężczyzna,2022-06-04_08h47.20.713,task,2021.1.4,Win32,144.1337561,628b806c463b948bc644b84f,629afea5ca11e57e234c6f5e,,,,,,,,,,,X V Q F H G B L J M P D K C T S W R N Z,,,,,,,,,,,,,,,,,,,,,,,,,,,,,,,,,,,,,,,,,,,,,,,,,,,1,0,1,0,1,,,,,,,,,,,,,,,,,,,,,,,,,,,,,,,,,,,,,,
,,,,,,,,,616d3fe2152e4765cda77ae8,36,Mężczyzna,2022-06-04_08h47.20.713,task,2021.1.4,Win32,144.1337561,628b806c463b948bc644b84f,629afea5ca11e57e234c6f5e,,,,,,,,,,,,,,,,,,,,,,,,,,,,,,,,,,,,,,,,,,,,,,,,,,,,,,,,,,,,,,,,,,,cf,"[""c"",""f""]",0,"[1.6262000000476746,1.8820999999045398,3.161899999856928]",1,2,0,2,0,1,,,,,,,,,,,,,,,,,,,,,,,,,,,,
,,,,,,,,,616d3fe2152e4765cda77ae8,36,Mężczyzna,2022-06-04_08h47.20.713,task,2021.1.4,Win32,144.1337561,628b806c463b948bc644b84f,629afea5ca11e57e234c6f5e,,,,,,,,,,,,,,,,,,,,,,,,4,,,,,,,,,,Task,2,(2x2) - 2,2,,,,,,,,,,,,,,,,,,,0,,,,,,,,,,,,,,,,,,,,,space,30.2743,"[""4""]",0,[3.8605999999045935],0,0,0,1,1,,,,,,,,,,,,,,,,,,
,,,,,,,,,616d3fe2152e4765cda77ae8,36,Mężczyzna,2022-06-04_08h47.20.713,task,2021.1.4,Win32,144.1337561,628b806c463b948bc644b84f,629afea5ca11e57e234c6f5e,,,,,,,,,,,,,,,,,,,,,,,,6,,,,,,,,,,Task,37,(3/3) + 5,6,,,,,,,,,,,,,,,,,,,1,,,,,,,,,,,,,,,,,,,,,,,"[""6""]",1,[5.974700000047733],0,1,1,36,1,,,,,,,,,,,,,,,,,,
,,,,,,,,,616d3fe2152e4765cda77ae8,36,Mężczyzna,2022-06-04_08h47.20.713,task,2021.1.4,Win32,144.1337561,628b806c463b948bc644b84f,629afea5ca11e57e234c6f5e,,,,,,,,,,,X V Q F H G B L J M P D K C T S W R N Z,,,,,,,,,,,,,,,,,,,,,,,,,,,,,,,,,,,,,,,,,,,,,,,,,,,,,,,,,,,,,,,,,,,,,,,,,,,,0,0,0,0,1,,,,,,,,,,,,,
,,,,,,,,,616d3fe2152e4765cda77ae8,36,Mężczyzna,2022-06-04_08h47.20.713,task,2021.1.4,Win32,144.1337561,628b806c463b948bc644b84f,629afea5ca11e57e234c6f5e,,,,,,,,,,,,,,,,,,,,,,,,4,,,,,,,,,,Task,4,(1x5) - 1,4,,,,,,,,,,,,,,,,,,,1,,,,,,,,,,,,,,,,,,,,,,,"[""4""]",1,[12.558900000095377],0,0,0,3,1,,,,,,,,,,,,,,,,,,
,,,,,,,,,616d3fe2152e4765cda77ae8,36,Mężczyzna,2022-06-04_08h47.20.713,task,2021.1.4,Win32,144.1337561,628b806c463b948bc644b84f,629afea5ca11e57e234c6f5e,,,,,,,,,,,X V Q F H G B L J M P D K C T S W R N Z,,,,,,,,,,,,,,,,,,,,,,,,,,,,,,,,,,,,,,,,,,,,,,,,,,,,,,,,,,,,,,,,,,,,,,,,,,,,1,0,1,0,1,,,,,,,,,,,,,
,,,,,,,,,616d3fe2152e4765cda77ae8,36,Mężczyzna,2022-06-04_08h47.20.713,task,2021.1.4,Win32,144.1337561,628b806c463b948bc644b84f,629afea5ca11e57e234c6f5e,,,,,,,,,,,,,,,,,,,,,,,,,,,,,,,,,,,,,,,,,,,,,,,,,,,,,,,,,,,,,,,,,,,,,,,,,,,,,,,,,,,,,,,,,,,,zx,"[""z"",""x""]",0,"[1.7849000000953765,2.126799999952368,3.565200000047753]",1,ZX,0,0,0,0,1,,
,,,,,,,,,616d3fe2152e4765cda77ae8,36,Mężczyzna,2022-06-04_08h47.20.713,task,2021.1.4,Win32,144.1337561,628b806c463b948bc644b84f,629afea5ca11e57e234c6f5e,,,,,,,,,,,,,,,,,,,,,,,,8,,,,,,,,,,Task,39,(5x3) - 7,8,,,,,,,,,,,,,,,,,,,1,,,,,,,,,,,,,,,,,,,,,,,"[""8""]",1,[23.82279999995228],0,0,0,38,1,,,,,,,,,,,,,,,,,,
,,,,,,,,,616d3fe2152e4765cda77ae8,36,Mężczyzna,2022-06-04_08h47.20.713,task,2021.1.4,Win32,144.1337561,628b806c463b948bc644b84f,629afea5ca11e57e234c6f5e,,,,,,,,,,,X V Q F H G B L J M P D K C T S W R N Z,,,,,,,,,,,,,,,,,,,,,,,,,,,,,,,,,,,,,,,,,,,,,,,,,,,,,,,,,,,,,,,,,,,,,,,,,,,,0,0,0,0,1,,,,,,,,,,,,,
,,,,,,,,,616d3fe2152e4765cda77ae8,36,Mężczyzna,2022-06-04_08h47.20.713,task,2021.1.4,Win32,144.1337561,628b806c463b948bc644b84f,629afea5ca11e57e234c6f5e,,,,,,,,,,,,,,,,,,,,,,,,7,,,,,,,,,,Task,31,(4/2) + 5,7,,,,,,,,,,,,,,,,,,,1,,,,,,,,,,,,,,,,,,,,,,,"[""7""]",1,[5.128700000047729],0,0,0,30,1,,,,,,,,,,,,,,,,,,
,,,,,,,,,616d3fe2152e4765cda77ae8,36,Mężczyzna,2022-06-04_08h47.20.713,task,2021.1.4,Win32,144.1337561,628b806c463b948bc644b84f,629afea5ca11e57e234c6f5e,,,,,,,,,,,X V Q F H G B L J M P D K C T S W R N Z,,,,,,,,,,,,,,,,,,,,,,,,,,,,,,,,,,,,,,,,,,,,,,,,,,,,,,,,,,,,,,,,,,,,,,,,,,,,1,0,1,0,1,,,,,,,,,,,,,
,,,,,,,,,616d3fe2152e4765cda77ae8,36,Mężczyzna,2022-06-04_08h47.20.713,task,2021.1.4,Win32,144.1337561,628b806c463b948bc644b84f,629afea5ca11e57e234c6f5e,,,,,,,,,,,,,,,,,,,,,,,,8,,,,,,,,,,Task,15,(3x7) - 13,8,,,,,,,,,,,,,,,,,,,1,,,,,,,,,,,,,,,,,,,,,,,"[""8""]",1,[15.727499999999964],0,0,0,14,1,,,,,,,,,,,,,,,,,,
,,,,,,,,,616d3fe2152e4765cda77ae8,36,Mężczyzna,2022-06-04_08h47.20.713,task,2021.1.4,Win32,144.1337561,628b806c463b948bc644b84f,629afea5ca11e57e234c6f5e,,,,,,,,,,,X V Q F H G B L J M P D K C T S W R N Z,,,,,,,,,,,,,,,,,,,,,,,,,,,,,,,,,,,,,,,,,,,,,,,,,,,,,,,,,,,,,,,,,,,,,,,,,,,,2,0,2,0,1,,,,,,,,,,,,,
,,,,,,,,,616d3fe2152e4765cda77ae8,36,Mężczyzna,2022-06-04_08h47.20.713,task,2021.1.4,Win32,144.1337561,628b806c463b948bc644b84f,629afea5ca11e57e234c6f5e,,,,,,,,,,,,,,,,,,,,,,,,,,,,,,,,,,,,,,,,,,,,,,,,,,,,,,,,,,,,,,,,,,,,,,,,,,,,,,,,,,,,,,,,,,,,mgs,"[""m"",""g"",""s""]",0,"[2.8612999999523936,3.259899999856998,3.649699999809286,4.785899999856952]",1,MGS,1,0,1,0,1,,
,,,,,,,,,616d3fe2152e4765cda77ae8,36,Mężczyzna,2022-06-04_08h47.20.713,task,2021.1.4,Win32,144.1337561,628b806c463b948bc644b84f,629afea5ca11e57e234c6f5e,,,,,,,,,,,,,,,,,,,,,,,,7,,,,,,,,,,Task,38,(4x6) - 17,7,,,,,,,,,,,,,,,,,,,1,,,,,,,,,,,,,,,,,,,,,,,"[""7""]",1,[20.92080000019064],0,0,0,37,1,,,,,,,,,,,,,,,,,,
,,,,,,,,,616d3fe2152e4765cda77ae8,36,Mężczyzna,2022-06-04_08h47.20.713,task,2021.1.4,Win32,144.1337561,628b806c463b948bc644b84f,629afea5ca11e57e234c6f5e,,,,,,,,,,,X V Q F H G B L J M P D K C T S W R N Z,,,,,,,,,,,,,,,,,,,,,,,,,,,,,,,,,,,,,,,,,,,,,,,,,,,,,,,,,,,,,,,,,,,,,,,,,,,,0,0,0,0,1,,,,,,,,,,,,,
,,,,,,,,,616d3fe2152e4765cda77ae8,36,Mężczyzna,2022-06-04_08h47.20.713,task,2021.1.4,Win32,144.1337561,628b806c463b948bc644b84f,629afea5ca11e57e234c6f5e,,,,,,,,,,,,,,,,,,,,,,,,8,,,,,,,,,,Task,39,(5x3) - 7,8,,,,,,,,,,,,,,,,,,,1,,,,,,,,,,,,,,,,,,,,,,,"[""8""]",1,[8.299799999952484],0,0,0,38,1,,,,,,,,,,,,,,,,,,
,,,,,,,,,616d3fe2152e4765cda77ae8,36,Mężczyzna,2022-06-04_08h47.20.713,task,2021.1.4,Win32,144.1337561,628b806c463b948bc644b84f,629afea5ca11e57e234c6f5e,,,,,,,,,,,X V Q F H G B L J M P D K C T S W R N Z,,,,,,,,,,,,,,,,,,,,,,,,,,,,,,,,,,,,,,,,,,,,,,,,,,,,,,,,,,,,,,,,,,,,,,,,,,,,1,0,1,0,1,,,,,,,,,,,,,
,,,,,,,,,616d3fe2152e4765cda77ae8,36,Mężczyzna,2022-06-04_08h47.20.713,task,2021.1.4,Win32,144.1337561,628b806c463b948bc644b84f,629afea5ca11e57e234c6f5e,,,,,,,,,,,,,,,,,,,,,,,,0,,,,,,,,,,Task,4,(1x5) - 1,4,,,,,,,,,,,,,,,,,,,0,,,,,,,,,,,,,,,,,,,,,,,"[""0""]",0,[2.493199999809349],0,0,0,3,1,,,,,,,,,,,,,,,,,,
,,,,,,,,,616d3fe2152e4765cda77ae8,36,Mężczyzna,2022-06-04_08h47.20.713,task,2021.1.4,Win32,144.1337561,628b806c463b948bc644b84f,629afea5ca11e57e234c6f5e,,,,,,,,,,,,,,,,,,,,,,,,1,,,,,,,,,,Task,34,(9/3) - 2,1,,,,,,,,,,,,,,,,,,,1,,,,,,,,,,,,,,,,,,,,,,,"[""1""]",1,[4.863899999856812],0,1,1,33,1,,,,,,,,,,,,,,,,,,
,,,,,,,,,616d3fe2152e4765cda77ae8,36,Mężczyzna,2022-06-04_08h47.20.713,task,2021.1.4,Win32,144.1337561,628b806c463b948bc644b84f,629afea5ca11e57e234c6f5e,,,,,,,,,,,X V Q F H G B L J M P D K C T S W R N Z,,,,,,,,,,,,,,,,,,,,,,,,,,,,,,,,,,,,,,,,,,,,,,,,,,,,,,,,,,,,,,,,,,,,,,,,,,,,2,0,2,0,1,,,,,,,,,,,,,
,,,,,,,,,616d3fe2152e4765cda77ae8,36,Mężczyzna,2022-06-04_08h47.20.713,task,2021.1.4,Win32,144.1337561,628b806c463b948bc644b84f,629afea5ca11e57e234c6f5e,,,,,,,,,,,,,,,,,,,,,,,,9,,,,,,,,,,Task,40,(7x2) - 5,9,,,,,,,,,,,,,,,,,,,1,,,,,,,,,,,,,,,,,,,,,,,"[""9""]",1,[14.960599999904616],0,0,0,39,1,,,,,,,,,,,,,,,,,,
,,,,,,,,,616d3fe2152e4765cda77ae8,36,Mężczyzna,2022-06-04_08h47.20.713,task,2021.1.4,Win32,144.1337561,628b806c463b948bc644b84f,629afea5ca11e57e234c6f5e,,,,,,,,,,,X V Q F H G B L J M P D K C T S W R N Z,,,,,,,,,,,,,,,,,,,,,,,,,,,,,,,,,,,,,,,,,,,,,,,,,,,,,,,,,,,,,,,,,,,,,,,,,,,,3,0,3,0,1,,,,,,,,,,,,,
,,,,,,,,,616d3fe2152e4765cda77ae8,36,Mężczyzna,2022-06-04_08h47.20.713,task,2021.1.4,Win32,144.1337561,628b806c463b948bc644b84f,629afea5ca11e57e234c6f5e,,,,,,,,,,,,,,,,,,,,,,,,,,,,,,,,,,,,,,,,,,,,,,,,,,,,,,,,,,,,,,,,,,,,,,,,,,,,,,,,,,,,,,,,,,,,jhfh,"[""j"",""h"",""f"",""h""]",0,"[7.828499999999849,8.070399999856818,8.44679999995219,8.619299999952318,9.369299999952318]",0,JFHH,2,0,2,0,1,,
,,,,,,,,,616d3fe2152e4765cda77ae8,36,Mężczyzna,2022-06-04_08h47.20.713,task,2021.1.4,Win32,144.1337561,628b806c463b948bc644b84f,629afea5ca11e57e234c6f5e,,,,,,,,,,,,,,,,,,,,,,,,1,,,,,,,,,,Task,9,(3x7) - 20,1,,,,,,,,,,,,,,,,,,,1,,,,,,,,,,,,,,,,,,,,,,,"[""1""]",1,[7.605599999904598],0,0,0,8,1,,,,,,,,,,,,,,,,,,
,,,,,,,,,616d3fe2152e4765cda77ae8,36,Mężczyzna,2022-06-04_08h47.20.713,task,2021.1.4,Win32,144.1337561,628b806c463b948bc644b84f,629afea5ca11e57e234c6f5e,,,,,,,,,,,X V Q F H G B L J M P D K C T S W R N Z,,,,,,,,,,,,,,,,,,,,,,,,,,,,,,,,,,,,,,,,,,,,,,,,,,,,,,,,,,,,,,,,,,,,,,,,,,,,0,0,0,0,1,,,,,,,,,,,,,
,,,,,,,,,616d3fe2152e4765cda77ae8,36,Mężczyzna,2022-06-04_08h47.20.713,task,2021.1.4,Win32,144.1337561,628b806c463b948bc644b84f,629afea5ca11e57e234c6f5e,,,,,,,,,,,,,,,,,,,,,,,,2,,,,,,,,,,Task,10,(2x5) - 8,2,,,,,,,,,,,,,,,,,,,1,,,,,,,,,,,,,,,,,,,,,,,"[""2""]",1,[4.361700000047676],0,0,0,9,1,,,,,,,,,,,,,,,,,,
,,,,,,,,,616d3fe2152e4765cda77ae8,36,Mężczyzna,2022-06-04_08h47.20.713,task,2021.1.4,Win32,144.1337561,628b806c463b948bc644b84f,629afea5ca11e57e234c6f5e,,,,,,,,,,,X V Q F H G B L J M P D K C T S W R N Z,,,,,,,,,,,,,,,,,,,,,,,,,,,,,,,,,,,,,,,,,,,,,,,,,,,,,,,,,,,,,,,,,,,,,,,,,,,,1,0,1,0,1,,,,,,,,,,,,,
,,,,,,,,,616d3fe2152e4765cda77ae8,36,Mężczyzna,2022-06-04_08h47.20.713,task,2021.1.4,Win32,144.1337561,628b806c463b948bc644b84f,629afea5ca11e57e234c6f5e,,,,,,,,,,,,,,,,,,,,,,,,9,,,,,,,,,,Task,16,(3x8) - 15,9,,,,,,,,,,,,,,,,,,,1,,,,,,,,,,,,,,,,,,,,,,,"[""9""]",1,[21.69110000014325],0,0,0,15,1,,,,,,,,,,,,,,,,,,
,,,,,,,,,616d3fe2152e4765cda77ae8,36,Mężczyzna,2022-06-04_08h47.20.713,task,2021.1.4,Win32,144.1337561,628b806c463b948bc644b84f,629afea5ca11e57e234c6f5e,,,,,,,,,,,X V Q F H G B L J M P D K C T S W R N Z,,,,,,,,,,,,,,,,,,,,,,,,,,,,,,,,,,,,,,,,,,,,,,,,,,,,,,,,,,,,,,,,,,,,,,,,,,,,2,0,2,0,1,,,,,,,,,,,,,
,,,,,,,,,616d3fe2152e4765cda77ae8,36,Mężczyzna,2022-06-04_08h47.20.713,task,2021.1.4,Win32,144.1337561,628b806c463b948bc644b84f,629afea5ca11e57e234c6f5e,,,,,,,,,,,,,,,,,,,,,,,,6,,,,,,,,,,Task,13,(3x4) - 6,6,,,,,,,,,,,,,,,,,,,1,,,,,,,,,,,,,,,,,,,,,,,"[""6""]",1,[8.206700000047704],0,0,0,12,1,,,,,,,,,,,,,,,,,,
,,,,,,,,,616d3fe2152e4765cda77ae8,36,Mężczyzna,2022-06-04_08h47.20.713,task,2021.1.4,Win32,144.1337561,628b806c463b948bc644b84f,629afea5ca11e57e234c6f5e,,,,,,,,,,,X V Q F H G B L J M P D K C T S W R N Z,,,,,,,,,,,,,,,,,,,,,,,,,,,,,,,,,,,,,,,,,,,,,,,,,,,,,,,,,,,,,,,,,,,,,,,,,,,,3,0,3,0,1,,,,,,,,,,,,,
,,,,,,,,,616d3fe2152e4765cda77ae8,36,Mężczyzna,2022-06-04_08h47.20.713,task,2021.1.4,Win32,144.1337561,628b806c463b948bc644b84f,629afea5ca11e57e234c6f5e,,,,,,,,,,,,,,,,,,,,,,,,,,,,,,,,,,,,,,,,,,,,,,,,,,,,,,,,,,,,,,,,,,,,,,,,,,,,,,,,,,,,,,,,,,,,mkcd,"[""m"",""k"",""c"",""d""]",0,"[7.239200000047731,7.391499999999951,7.719599999904631,7.917599999904496,8.863299999952233]",1,MKCD,3,0,3,0,1,,
,,,,,,,,,616d3fe2152e4765cda77ae8,36,Mężczyzna,2022-06-04_08h47.20.713,task,2021.1.4,Win32,144.1337561,628b806c463b948bc644b84f,629afea5ca11e57e234c6f5e,,,,,,,,,,,,,,,,,,,,,,,,0,,,,,,,,,,Task,8,(1x5) - 5,0,,,,,,,,,,,,,,,,,,,1,,,,,,,,,,,,,,,,,,,,,,,"[""0""]",1,[6.529499999999871],0,0,0,7,1,,,,,,,,,,,,,,,,,,
,,,,,,,,,616d3fe2152e4765cda77ae8,36,Mężczyzna,2022-06-04_08h47.20.713,task,2021.1.4,Win32,144.1337561,628b806c463b948bc644b84f,629afea5ca11e57e234c6f5e,,,,,,,,,,,X V Q F H G B L J M P D K C T S W R N Z,,,,,,,,,,,,,,,,,,,,,,,,,,,,,,,,,,,,,,,,,,,,,,,,,,,,,,,,,,,,,,,,,,,,,,,,,,,,0,0,0,0,1,,,,,,,,,,,,,
,,,,,,,,,616d3fe2152e4765cda77ae8,36,Mężczyzna,2022-06-04_08h47.20.713,task,2021.1.4,Win32,144.1337561,628b806c463b948bc644b84f,629afea5ca11e57e234c6f5e,,,,,,,,,,,,,,,,,,,,,,,,6,,,,,,,,,,Task,37,(3/3) + 5,6,,,,,,,,,,,,,,,,,,,1,,,,,,,,,,,,,,,,,,,,,,,"[""6""]",1,[11.828199999809385],0,0,0,36,1,,,,,,,,,,,,,,,,,,
,,,,,,,,,616d3fe2152e4765cda77ae8,36,Mężczyzna,2022-06-04_08h47.20.713,task,2021.1.4,Win32,144.1337561,628b806c463b948bc644b84f,629afea5ca11e57e234c6f5e,,,,,,,,,,,X V Q F H G B L J M P D K C T S W R N Z,,,,,,,,,,,,,,,,,,,,,,,,,,,,,,,,,,,,,,,,,,,,,,,,,,,,,,,,,,,,,,,,,,,,,,,,,,,,1,0,1,0,1,,,,,,,,,,,,,
,,,,,,,,,616d3fe2152e4765cda77ae8,36,Mężczyzna,2022-06-04_08h47.20.713,task,2021.1.4,Win32,144.1337561,628b806c463b948bc644b84f,629afea5ca11e57e234c6f5e,,,,,,,,,,,,,,,,,,,,,,,,0,,,,,,,,,,Task,33,(1/1) - 1,0,,,,,,,,,,,,,,,,,,,1,,,,,,,,,,,,,,,,,,,,,,,"[""0""]",1,[3.573300000190784],0,0,0,32,1,,,,,,,,,,,,,,,,,,
,,,,,,,,,616d3fe2152e4765cda77ae8,36,Mężczyzna,2022-06-04_08h47.20.713,task,2021.1.4,Win32,144.1337561,628b806c463b948bc644b84f,629afea5ca11e57e234c6f5e,,,,,,,,,,,X V Q F H G B L J M P D K C T S W R N Z,,,,,,,,,,,,,,,,,,,,,,,,,,,,,,,,,,,,,,,,,,,,,,,,,,,,,,,,,,,,,,,,,,,,,,,,,,,,2,0,2,0,1,,,,,,,,,,,,,
,,,,,,,,,616d3fe2152e4765cda77ae8,36,Mężczyzna,2022-06-04_08h47.20.713,task,2021.1.4,Win32,144.1337561,628b806c463b948bc644b84f,629afea5ca11e57e234c6f5e,,,,,,,,,,,,,,,,,,,,,,,,7,,,,,,,,,,Task,31,(4/2) + 5,7,,,,,,,,,,,,,,,,,,,1,,,,,,,,,,,,,,,,,,,,,,,"[""7""]",1,[13.14409999990471],0,0,0,30,1,,,,,,,,,,,,,,,,,,
,,,,,,,,,616d3fe2152e4765cda77ae8,36,Mężczyzna,2022-06-04_08h47.20.713,task,2021.1.4,Win32,144.1337561,628b806c463b948bc644b84f,629afea5ca11e57e234c6f5e,,,,,,,,,,,X V Q F H G B L J M P D K C T S W R N Z,,,,,,,,,,,,,,,,,,,,,,,,,,,,,,,,,,,,,,,,,,,,,,,,,,,,,,,,,,,,,,,,,,,,,,,,,,,,3,0,3,0,1,,,,,,,,,,,,,
,,,,,,,,,616d3fe2152e4765cda77ae8,36,Mężczyzna,2022-06-04_08h47.20.713,task,2021.1.4,Win32,144.1337561,628b806c463b948bc644b84f,629afea5ca11e57e234c6f5e,,,,,,,,,,,,,,,,,,,,,,,,3,,,,,,,,,,Task,3,(2x3) - 3,3,,,,,,,,,,,,,,,,,,,1,,,,,,,,,,,,,,,,,,,,,,,"[""3""]",1,[9.75609999990479],0,0,0,2,1,,,,,,,,,,,,,,,,,,
,,,,,,,,,616d3fe2152e4765cda77ae8,36,Mężczyzna,2022-06-04_08h47.20.713,task,2021.1.4,Win32,144.1337561,628b806c463b948bc644b84f,629afea5ca11e57e234c6f5e,,,,,,,,,,,X V Q F H G B L J M P D K C T S W R N Z,,,,,,,,,,,,,,,,,,,,,,,,,,,,,,,,,,,,,,,,,,,,,,,,,,,,,,,,,,,,,,,,,,,,,,,,,,,,4,0,4,0,1,,,,,,,,,,,,,
,,,,,,,,,616d3fe2152e4765cda77ae8,36,Mężczyzna,2022-06-04_08h47.20.713,task,2021.1.4,Win32,144.1337561,628b806c463b948bc644b84f,629afea5ca11e57e234c6f5e,,,,,,,,,,,,,,,,,,,,,,,,,,,,,,,,,,,,,,,,,,,,,,,,,,,,,,,,,,,,,,,,,,,,,,,,,,,,,,,,,,,,,,,,,,,,sdxxw,"[""s"",""d"",""x"",""x"",""w""]",0,"[7.966400000095291,8.414400000095384,8.848900000095455,9.009999999999991,9.265299999952276,10.975799999952415]",1,SDXXW,4,0,4,0,1,,
,,,,,,,,,616d3fe2152e4765cda77ae8,36,Mężczyzna,2022-06-04_08h47.20.713,task,2021.1.4,Win32,144.1337561,628b806c463b948bc644b84f,629afea5ca11e57e234c6f5e,,,,,,,,,,,,,,,,,,,,,,,,6,,,,,,,,,,Task,5,(2x3) + 0,6,,,,,,,,,,,,,,,,,,,1,,,,,,,,,,,,,,,,,,,,,,,"[""6""]",1,[3.7467999999521453],0,0,0,4,1,,,,,,,,,,,,,,,,,,
,,,,,,,,,616d3fe2152e4765cda77ae8,36,Mężczyzna,2022-06-04_08h47.20.713,task,2021.1.4,Win32,144.1337561,628b806c463b948bc644b84f,629afea5ca11e57e234c6f5e,,,,,,,,,,,X V Q F H G B L J M P D K C T S W R N Z,,,,,,,,,,,,,,,,,,,,,,,,,,,,,,,,,,,,,,,,,,,,,,,,,,,,,,,,,,,,,,,,,,,,,,,,,,,,0,0,0,0,1,,,,,,,,,,,,,
,,,,,,,,,616d3fe2152e4765cda77ae8,36,Mężczyzna,2022-06-04_08h47.20.713,task,2021.1.4,Win32,144.1337561,628b806c463b948bc644b84f,629afea5ca11e57e234c6f5e,,,,,,,,,,,,,,,,,,,,,,,,0,,,,,,,,,,Task,8,(1x5) - 5,0,,,,,,,,,,,,,,,,,,,1,,,,,,,,,,,,,,,,,,,,,,,"[""0""]",1,[2.517099999904758],0,0,0,7,1,,,,,,,,,,,,,,,,,,
,,,,,,,,,616d3fe2152e4765cda77ae8,36,Mężczyzna,2022-06-04_08h47.20.713,task,2021.1.4,Win32,144.1337561,628b806c463b948bc644b84f,629afea5ca11e57e234c6f5e,,,,,,,,,,,X V Q F H G B L J M P D K C T S W R N Z,,,,,,,,,,,,,,,,,,,,,,,,,,,,,,,,,,,,,,,,,,,,,,,,,,,,,,,,,,,,,,,,,,,,,,,,,,,,1,0,1,0,1,,,,,,,,,,,,,
,,,,,,,,,616d3fe2152e4765cda77ae8,36,Mężczyzna,2022-06-04_08h47.20.713,task,2021.1.4,Win32,144.1337561,628b806c463b948bc644b84f,629afea5ca11e57e234c6f5e,,,,,,,,,,,,,,,,,,,,,,,,2,,,,,,,,,,Task,10,(2x5) - 8,2,,,,,,,,,,,,,,,,,,,1,,,,,,,,,,,,,,,,,,,,,,,"[""2""]",1,[3.1480000000001382],0,0,0,9,1,,,,,,,,,,,,,,,,,,
,,,,,,,,,616d3fe2152e4765cda77ae8,36,Mężczyzna,2022-06-04_08h47.20.713,task,2021.1.4,Win32,144.1337561,628b806c463b948bc644b84f,629afea5ca11e57e234c6f5e,,,,,,,,,,,X V Q F H G B L J M P D K C T S W R N Z,,,,,,,,,,,,,,,,,,,,,,,,,,,,,,,,,,,,,,,,,,,,,,,,,,,,,,,,,,,,,,,,,,,,,,,,,,,,2,0,2,0,1,,,,,,,,,,,,,
