key_resp_15.keys,key_resp_15.rt,key_resp_16.keys,key_resp_16.rt,key_resp_4.keys,key_resp_4.rt,next_letter.thisRepN,next_letter.thisTrialN,next_letter.thisN,next_letter.thisIndex,next_letter.ran,letter,participant,Wiek*,Płeć,date,expName,psychopyVersion,OS,frameRate,study_id,session,simple_recall,key_resp_5.keys,key_resp_5.rt,simple_recall_corr,simple_recall_corrkeys,next_level.thisRepN,next_level.thisTrialN,next_level.thisN,next_level.thisIndex,next_level.ran,key_resp_2.keys,key_resp_2.rt,digit_answer,key_resp.keys,key_resp.corr,key_resp.rt,RT_list,next_equation.thisRepN,next_equation.thisTrialN,next_equation.thisN,next_equation.thisIndex,next_equation.ran,Task,Trial,Problem,Operation_answer,processing_score,sumRT,meanRT,sumdiff,sd,RT,key_resp_3.keys,key_resp_3.rt,repeat_practice.thisRepN,repeat_practice.thisTrialN,repeat_practice.thisN,repeat_practice.thisIndex,repeat_practice.ran,key_resp_6.keys,key_resp_6.rt,key_resp_11.keys,key_resp_11.corr,key_resp_11.rt,operation_correct,repeat_if_wrong_prac.thisRepN,repeat_if_wrong_prac.thisTrialN,repeat_if_wrong_prac.thisN,repeat_if_wrong_prac.thisIndex,repeat_if_wrong_prac.ran,span_size_prac.thisRepN,span_size_prac.thisTrialN,span_size_prac.thisN,span_size_prac.thisIndex,span_size_prac.ran,complex_recall_practice,key_resp_9.keys,key_resp_9.corr,key_resp_9.rt,complex_prac_corr,span_recall_prac.thisRepN,span_recall_prac.thisTrialN,span_recall_prac.thisN,span_recall_prac.thisIndex,span_recall_prac.ran,key_resp_10.keys,key_resp_10.rt,key_resp_7.keys,key_resp_7.corr,repeat_if_wrong.thisRepN,repeat_if_wrong.thisTrialN,repeat_if_wrong.thisN,repeat_if_wrong.thisIndex,repeat_if_wrong.ran,key_resp_7.rt,span_size.thisRepN,span_size.thisTrialN,span_size.thisN,span_size.thisIndex,span_size.ran,complex_recall,key_resp_8.keys,key_resp_8.corr,key_resp_8.rt,complex_recall_corr,complex_recall_corrkeys,span_recall.thisRepN,span_recall.thisTrialN,span_recall.thisN,span_recall.thisIndex,span_recall.ran,key_resp_13.keys,key_resp_13.corr,key_resp_13.rt,random_loop.thisRepN,random_loop.thisTrialN,random_loop.thisN,random_loop.thisIndex,random_loop.ran,key_resp_12.keys,key_resp_12.rt
space,9.2656,space,12.1991,space,15.6099,0,0,0,0,1,X V Q F H G B L J M P D K C T S W R N Z,61700969dd10e58154ad0448,18,Mężczyzna,2022-06-11_09h14.56.962,task,2021.1.4,Win32,60.09254252,6299f149e92ead563fba08ef,62a440e12e391c1df422f9b0,,,,,,,,,,,,,,,,,,,,,,,,,,,,,,,,,,,,,,,,,,,,,,,,,,,,,,,,,,,,,,,,,,,,,,,,,,,,,,,,,,,,,,,,,,,,,,,,,,,,,
,,,,,,1,0,1,0,1,X V Q F H G B L J M P D K C T S W R N Z,61700969dd10e58154ad0448,18,Mężczyzna,2022-06-11_09h14.56.962,task,2021.1.4,Win32,60.09254252,6299f149e92ead563fba08ef,62a440e12e391c1df422f9b0,,,,,,,,,,,,,,,,,,,,,,,,,,,,,,,,,,,,,,,,,,,,,,,,,,,,,,,,,,,,,,,,,,,,,,,,,,,,,,,,,,,,,,,,,,,,,,,,,,,,,
,,,,,,,,,,,,61700969dd10e58154ad0448,18,Mężczyzna,2022-06-11_09h14.56.962,task,2021.1.4,Win32,60.09254252,6299f149e92ead563fba08ef,62a440e12e391c1df422f9b0,zq,"[""z"",""q""]","[1.4570000000000007,2.0242000000029847,3.912700000002978]",1,ZQ,0,0,0,0,1,,,,,,,,,,,,,,,,,,,,,,,,,,,,,,,,,,,,,,,,,,,,,,,,,,,,,,,,,,,,,,,,,,,,,,,,,,,,,,,,,,,,,,,,,,,
,,,,,,0,0,0,0,1,X V Q F H G B L J M P D K C T S W R N Z,61700969dd10e58154ad0448,18,Mężczyzna,2022-06-11_09h14.56.962,task,2021.1.4,Win32,60.09254252,6299f149e92ead563fba08ef,62a440e12e391c1df422f9b0,,,,,,,,,,,,,,,,,,,,,,,,,,,,,,,,,,,,,,,,,,,,,,,,,,,,,,,,,,,,,,,,,,,,,,,,,,,,,,,,,,,,,,,,,,,,,,,,,,,,,
,,,,,,1,0,1,0,1,X V Q F H G B L J M P D K C T S W R N Z,61700969dd10e58154ad0448,18,Mężczyzna,2022-06-11_09h14.56.962,task,2021.1.4,Win32,60.09254252,6299f149e92ead563fba08ef,62a440e12e391c1df422f9b0,,,,,,,,,,,,,,,,,,,,,,,,,,,,,,,,,,,,,,,,,,,,,,,,,,,,,,,,,,,,,,,,,,,,,,,,,,,,,,,,,,,,,,,,,,,,,,,,,,,,,
,,,,,,,,,,,,61700969dd10e58154ad0448,18,Mężczyzna,2022-06-11_09h14.56.962,task,2021.1.4,Win32,60.09254252,6299f149e92ead563fba08ef,62a440e12e391c1df422f9b0,pk,"[""p"",""k""]","[0.8007999999970181,1.1844999999999999,1.8855000000000004]",1,PK,1,0,1,0,1,,,,,,,,,,,,,,,,,,,,,,,,,,,,,,,,,,,,,,,,,,,,,,,,,,,,,,,,,,,,,,,,,,,,,,,,,,,,,,,,,,,,,,,,,,,
,,,,,,0,0,0,0,1,X V Q F H G B L J M P D K C T S W R N Z,61700969dd10e58154ad0448,18,Mężczyzna,2022-06-11_09h14.56.962,task,2021.1.4,Win32,60.09254252,6299f149e92ead563fba08ef,62a440e12e391c1df422f9b0,,,,,,,,,,,,,,,,,,,,,,,,,,,,,,,,,,,,,,,,,,,,,,,,,,,,,,,,,,,,,,,,,,,,,,,,,,,,,,,,,,,,,,,,,,,,,,,,,,,,,
,,,,,,1,0,1,0,1,X V Q F H G B L J M P D K C T S W R N Z,61700969dd10e58154ad0448,18,Mężczyzna,2022-06-11_09h14.56.962,task,2021.1.4,Win32,60.09254252,6299f149e92ead563fba08ef,62a440e12e391c1df422f9b0,,,,,,,,,,,,,,,,,,,,,,,,,,,,,,,,,,,,,,,,,,,,,,,,,,,,,,,,,,,,,,,,,,,,,,,,,,,,,,,,,,,,,,,,,,,,,,,,,,,,,
,,,,,,2,0,2,0,1,X V Q F H G B L J M P D K C T S W R N Z,61700969dd10e58154ad0448,18,Mężczyzna,2022-06-11_09h14.56.962,task,2021.1.4,Win32,60.09254252,6299f149e92ead563fba08ef,62a440e12e391c1df422f9b0,,,,,,,,,,,,,,,,,,,,,,,,,,,,,,,,,,,,,,,,,,,,,,,,,,,,,,,,,,,,,,,,,,,,,,,,,,,,,,,,,,,,,,,,,,,,,,,,,,,,,
,,,,,,,,,,,,61700969dd10e58154ad0448,18,Mężczyzna,2022-06-11_09h14.56.962,task,2021.1.4,Win32,60.09254252,6299f149e92ead563fba08ef,62a440e12e391c1df422f9b0,rjb,"[""r"",""j"",""b""]","[0.7002999999970143,1.0442999999970084,1.3345999999940403,2.028499999999994]",1,RJB,2,0,2,0,1,,,,,,,,,,,,,,,,,,,,,,,,,,,,,,,,,,,,,,,,,,,,,,,,,,,,,,,,,,,,,,,,,,,,,,,,,,,,,,,,,,,,,,,,,,,
,,,,,,0,0,0,0,1,X V Q F H G B L J M P D K C T S W R N Z,61700969dd10e58154ad0448,18,Mężczyzna,2022-06-11_09h14.56.962,task,2021.1.4,Win32,60.09254252,6299f149e92ead563fba08ef,62a440e12e391c1df422f9b0,,,,,,,,,,,,,,,,,,,,,,,,,,,,,,,,,,,,,,,,,,,,,,,,,,,,,,,,,,,,,,,,,,,,,,,,,,,,,,,,,,,,,,,,,,,,,,,,,,,,,
,,,,,,1,0,1,0,1,X V Q F H G B L J M P D K C T S W R N Z,61700969dd10e58154ad0448,18,Mężczyzna,2022-06-11_09h14.56.962,task,2021.1.4,Win32,60.09254252,6299f149e92ead563fba08ef,62a440e12e391c1df422f9b0,,,,,,,,,,,,,,,,,,,,,,,,,,,,,,,,,,,,,,,,,,,,,,,,,,,,,,,,,,,,,,,,,,,,,,,,,,,,,,,,,,,,,,,,,,,,,,,,,,,,,
,,,,,,2,0,2,0,1,X V Q F H G B L J M P D K C T S W R N Z,61700969dd10e58154ad0448,18,Mężczyzna,2022-06-11_09h14.56.962,task,2021.1.4,Win32,60.09254252,6299f149e92ead563fba08ef,62a440e12e391c1df422f9b0,,,,,,,,,,,,,,,,,,,,,,,,,,,,,,,,,,,,,,,,,,,,,,,,,,,,,,,,,,,,,,,,,,,,,,,,,,,,,,,,,,,,,,,,,,,,,,,,,,,,,
,,,,,,,,,,,,61700969dd10e58154ad0448,18,Mężczyzna,2022-06-11_09h14.56.962,task,2021.1.4,Win32,60.09254252,6299f149e92ead563fba08ef,62a440e12e391c1df422f9b0,cgn,"[""c"",""g"",""n""]","[0.45039999999850977,0.6841999999955277,0.9666999999955408,1.5183999999985076]",1,CGN,3,0,3,0,1,,,,,,,,,,,,,,,,,,,,,,,,,,,,,,,,,,,,,,,,,,,,,,,,,,,,,,,,,,,,,,,,,,,,,,,,,,,,,,,,,,,,,,,,,,,
,,,,,,0,0,0,0,1,X V Q F H G B L J M P D K C T S W R N Z,61700969dd10e58154ad0448,18,Mężczyzna,2022-06-11_09h14.56.962,task,2021.1.4,Win32,60.09254252,6299f149e92ead563fba08ef,62a440e12e391c1df422f9b0,,,,,,,,,,,,,,,,,,,,,,,,,,,,,,,,,,,,,,,,,,,,,,,,,,,,,,,,,,,,,,,,,,,,,,,,,,,,,,,,,,,,,,,,,,,,,,,,,,,,,
,,,,,,1,0,1,0,1,X V Q F H G B L J M P D K C T S W R N Z,61700969dd10e58154ad0448,18,Mężczyzna,2022-06-11_09h14.56.962,task,2021.1.4,Win32,60.09254252,6299f149e92ead563fba08ef,62a440e12e391c1df422f9b0,,,,,,,,,,,,,,,,,,,,,,,,,,,,,,,,,,,,,,,,,,,,,,,,,,,,,,,,,,,,,,,,,,,,,,,,,,,,,,,,,,,,,,,,,,,,,,,,,,,,,
,,,,,,2,0,2,0,1,X V Q F H G B L J M P D K C T S W R N Z,61700969dd10e58154ad0448,18,Mężczyzna,2022-06-11_09h14.56.962,task,2021.1.4,Win32,60.09254252,6299f149e92ead563fba08ef,62a440e12e391c1df422f9b0,,,,,,,,,,,,,,,,,,,,,,,,,,,,,,,,,,,,,,,,,,,,,,,,,,,,,,,,,,,,,,,,,,,,,,,,,,,,,,,,,,,,,,,,,,,,,,,,,,,,,
,,,,,,3,0,3,0,1,X V Q F H G B L J M P D K C T S W R N Z,61700969dd10e58154ad0448,18,Mężczyzna,2022-06-11_09h14.56.962,task,2021.1.4,Win32,60.09254252,6299f149e92ead563fba08ef,62a440e12e391c1df422f9b0,,,,,,,,,,,,,,,,,,,,,,,,,,,,,,,,,,,,,,,,,,,,,,,,,,,,,,,,,,,,,,,,,,,,,,,,,,,,,,,,,,,,,,,,,,,,,,,,,,,,,
,,,,,,,,,,,,61700969dd10e58154ad0448,18,Mężczyzna,2022-06-11_09h14.56.962,task,2021.1.4,Win32,60.09254252,6299f149e92ead563fba08ef,62a440e12e391c1df422f9b0,tbvv,"[""t"",""b"",""v"",""v""]","[0.44020000000297443,0.7335000000000065,0.9333999999985139,1.1196000000014976,1.5336000000014849]",1,TBVV,4,0,4,0,1,,,,,,,,,,,,,,,,,,,,,,,,,,,,,,,,,,,,,,,,,,,,,,,,,,,,,,,,,,,,,,,,,,,,,,,,,,,,,,,,,,,,,,,,,,,
,,,,,,0,0,0,0,1,X V Q F H G B L J M P D K C T S W R N Z,61700969dd10e58154ad0448,18,Mężczyzna,2022-06-11_09h14.56.962,task,2021.1.4,Win32,60.09254252,6299f149e92ead563fba08ef,62a440e12e391c1df422f9b0,,,,,,,,,,,,,,,,,,,,,,,,,,,,,,,,,,,,,,,,,,,,,,,,,,,,,,,,,,,,,,,,,,,,,,,,,,,,,,,,,,,,,,,,,,,,,,,,,,,,,
,,,,,,1,0,1,0,1,X V Q F H G B L J M P D K C T S W R N Z,61700969dd10e58154ad0448,18,Mężczyzna,2022-06-11_09h14.56.962,task,2021.1.4,Win32,60.09254252,6299f149e92ead563fba08ef,62a440e12e391c1df422f9b0,,,,,,,,,,,,,,,,,,,,,,,,,,,,,,,,,,,,,,,,,,,,,,,,,,,,,,,,,,,,,,,,,,,,,,,,,,,,,,,,,,,,,,,,,,,,,,,,,,,,,
,,,,,,2,0,2,0,1,X V Q F H G B L J M P D K C T S W R N Z,61700969dd10e58154ad0448,18,Mężczyzna,2022-06-11_09h14.56.962,task,2021.1.4,Win32,60.09254252,6299f149e92ead563fba08ef,62a440e12e391c1df422f9b0,,,,,,,,,,,,,,,,,,,,,,,,,,,,,,,,,,,,,,,,,,,,,,,,,,,,,,,,,,,,,,,,,,,,,,,,,,,,,,,,,,,,,,,,,,,,,,,,,,,,,
,,,,,,3,0,3,0,1,X V Q F H G B L J M P D K C T S W R N Z,61700969dd10e58154ad0448,18,Mężczyzna,2022-06-11_09h14.56.962,task,2021.1.4,Win32,60.09254252,6299f149e92ead563fba08ef,62a440e12e391c1df422f9b0,,,,,,,,,,,,,,,,,,,,,,,,,,,,,,,,,,,,,,,,,,,,,,,,,,,,,,,,,,,,,,,,,,,,,,,,,,,,,,,,,,,,,,,,,,,,,,,,,,,,,
,,,,,,,,,,,,61700969dd10e58154ad0448,18,Mężczyzna,2022-06-11_09h14.56.962,task,2021.1.4,Win32,60.09254252,6299f149e92ead563fba08ef,62a440e12e391c1df422f9b0,wvcg,"[""w"",""v"",""c"",""g""]","[0.8833999999985025,1.10610000000149,1.3838999999985049,2.233899999998499,2.7006000000014865]",1,WVCG,5,0,5,0,1,,,,,,,,,,,,,,,,,,,,,,,,,,,,,,,,,,,,,,,,,,,,,,,,,,,,,,,,,,,,,,,,,,,,,,,,,,,,,,,,,,,,,,,,,,,
,,,,,,0,0,0,0,1,X V Q F H G B L J M P D K C T S W R N Z,61700969dd10e58154ad0448,18,Mężczyzna,2022-06-11_09h14.56.962,task,2021.1.4,Win32,60.09254252,6299f149e92ead563fba08ef,62a440e12e391c1df422f9b0,,,,,,,,,,,,,,,,,,,,,,,,,,,,,,,,,,,,,,,,,,,,,,,,,,,,,,,,,,,,,,,,,,,,,,,,,,,,,,,,,,,,,,,,,,,,,,,,,,,,,
,,,,,,1,0,1,0,1,X V Q F H G B L J M P D K C T S W R N Z,61700969dd10e58154ad0448,18,Mężczyzna,2022-06-11_09h14.56.962,task,2021.1.4,Win32,60.09254252,6299f149e92ead563fba08ef,62a440e12e391c1df422f9b0,,,,,,,,,,,,,,,,,,,,,,,,,,,,,,,,,,,,,,,,,,,,,,,,,,,,,,,,,,,,,,,,,,,,,,,,,,,,,,,,,,,,,,,,,,,,,,,,,,,,,
,,,,,,2,0,2,0,1,X V Q F H G B L J M P D K C T S W R N Z,61700969dd10e58154ad0448,18,Mężczyzna,2022-06-11_09h14.56.962,task,2021.1.4,Win32,60.09254252,6299f149e92ead563fba08ef,62a440e12e391c1df422f9b0,,,,,,,,,,,,,,,,,,,,,,,,,,,,,,,,,,,,,,,,,,,,,,,,,,,,,,,,,,,,,,,,,,,,,,,,,,,,,,,,,,,,,,,,,,,,,,,,,,,,,
,,,,,,3,0,3,0,1,X V Q F H G B L J M P D K C T S W R N Z,61700969dd10e58154ad0448,18,Mężczyzna,2022-06-11_09h14.56.962,task,2021.1.4,Win32,60.09254252,6299f149e92ead563fba08ef,62a440e12e391c1df422f9b0,,,,,,,,,,,,,,,,,,,,,,,,,,,,,,,,,,,,,,,,,,,,,,,,,,,,,,,,,,,,,,,,,,,,,,,,,,,,,,,,,,,,,,,,,,,,,,,,,,,,,
,,,,,,4,0,4,0,1,X V Q F H G B L J M P D K C T S W R N Z,61700969dd10e58154ad0448,18,Mężczyzna,2022-06-11_09h14.56.962,task,2021.1.4,Win32,60.09254252,6299f149e92ead563fba08ef,62a440e12e391c1df422f9b0,,,,,,,,,,,,,,,,,,,,,,,,,,,,,,,,,,,,,,,,,,,,,,,,,,,,,,,,,,,,,,,,,,,,,,,,,,,,,,,,,,,,,,,,,,,,,,,,,,,,,
,,,,,,,,,,,,61700969dd10e58154ad0448,18,Mężczyzna,2022-06-11_09h14.56.962,task,2021.1.4,Win32,60.09254252,6299f149e92ead563fba08ef,62a440e12e391c1df422f9b0,ndhxz,"[""n"",""d"",""h"",""x"",""z""]","[0.8576999999955177,1.0894999999999868,1.399499999999989,2.00019999999553,2.5502999999970086,2.9500999999940376]",0,NDXHZ,6,0,6,0,1,,,,,,,,,,,,,,,,,,,,,,,,,,,,,,,,,,,,,,,,,,,,,,,,,,,,,,,,,,,,,,,,,,,,,,,,,,,,,,,,,,,,,,,,,,,
,,,,,,0,0,0,0,1,X V Q F H G B L J M P D K C T S W R N Z,61700969dd10e58154ad0448,18,Mężczyzna,2022-06-11_09h14.56.962,task,2021.1.4,Win32,60.09254252,6299f149e92ead563fba08ef,62a440e12e391c1df422f9b0,,,,,,,,,,,,,,,,,,,,,,,,,,,,,,,,,,,,,,,,,,,,,,,,,,,,,,,,,,,,,,,,,,,,,,,,,,,,,,,,,,,,,,,,,,,,,,,,,,,,,
,,,,,,1,0,1,0,1,X V Q F H G B L J M P D K C T S W R N Z,61700969dd10e58154ad0448,18,Mężczyzna,2022-06-11_09h14.56.962,task,2021.1.4,Win32,60.09254252,6299f149e92ead563fba08ef,62a440e12e391c1df422f9b0,,,,,,,,,,,,,,,,,,,,,,,,,,,,,,,,,,,,,,,,,,,,,,,,,,,,,,,,,,,,,,,,,,,,,,,,,,,,,,,,,,,,,,,,,,,,,,,,,,,,,
,,,,,,2,0,2,0,1,X V Q F H G B L J M P D K C T S W R N Z,61700969dd10e58154ad0448,18,Mężczyzna,2022-06-11_09h14.56.962,task,2021.1.4,Win32,60.09254252,6299f149e92ead563fba08ef,62a440e12e391c1df422f9b0,,,,,,,,,,,,,,,,,,,,,,,,,,,,,,,,,,,,,,,,,,,,,,,,,,,,,,,,,,,,,,,,,,,,,,,,,,,,,,,,,,,,,,,,,,,,,,,,,,,,,
,,,,,,3,0,3,0,1,X V Q F H G B L J M P D K C T S W R N Z,61700969dd10e58154ad0448,18,Mężczyzna,2022-06-11_09h14.56.962,task,2021.1.4,Win32,60.09254252,6299f149e92ead563fba08ef,62a440e12e391c1df422f9b0,,,,,,,,,,,,,,,,,,,,,,,,,,,,,,,,,,,,,,,,,,,,,,,,,,,,,,,,,,,,,,,,,,,,,,,,,,,,,,,,,,,,,,,,,,,,,,,,,,,,,
,,,,,,4,0,4,0,1,X V Q F H G B L J M P D K C T S W R N Z,61700969dd10e58154ad0448,18,Mężczyzna,2022-06-11_09h14.56.962,task,2021.1.4,Win32,60.09254252,6299f149e92ead563fba08ef,62a440e12e391c1df422f9b0,,,,,,,,,,,,,,,,,,,,,,,,,,,,,,,,,,,,,,,,,,,,,,,,,,,,,,,,,,,,,,,,,,,,,,,,,,,,,,,,,,,,,,,,,,,,,,,,,,,,,
,,,,,,,,,,,,61700969dd10e58154ad0448,18,Mężczyzna,2022-06-11_09h14.56.962,task,2021.1.4,Win32,60.09254252,6299f149e92ead563fba08ef,62a440e12e391c1df422f9b0,rdzhf,"[""r"",""d"",""z"",""h"",""f""]","[3.917500000000004,4.2335000000000065,4.783400000005969,5.216600000001492,5.583900000005968,6.039600000001499]",1,RDZHF,7,0,7,0,1,,,,,,,,,,,,,,,,,,,,,,,,,,,,,,,,,,,,,,,,,,,,,,,,,,,,,,,,,,,,,,,,,,,,,,,,,,,,,,,,,,,,,,,,,,,
,,,,,,0,0,0,0,1,X V Q F H G B L J M P D K C T S W R N Z,61700969dd10e58154ad0448,18,Mężczyzna,2022-06-11_09h14.56.962,task,2021.1.4,Win32,60.09254252,6299f149e92ead563fba08ef,62a440e12e391c1df422f9b0,,,,,,,,,,,,,,,,,,,,,,,,,,,,,,,,,,,,,,,,,,,,,,,,,,,,,,,,,,,,,,,,,,,,,,,,,,,,,,,,,,,,,,,,,,,,,,,,,,,,,
,,,,,,1,0,1,0,1,X V Q F H G B L J M P D K C T S W R N Z,61700969dd10e58154ad0448,18,Mężczyzna,2022-06-11_09h14.56.962,task,2021.1.4,Win32,60.09254252,6299f149e92ead563fba08ef,62a440e12e391c1df422f9b0,,,,,,,,,,,,,,,,,,,,,,,,,,,,,,,,,,,,,,,,,,,,,,,,,,,,,,,,,,,,,,,,,,,,,,,,,,,,,,,,,,,,,,,,,,,,,,,,,,,,,
,,,,,,2,0,2,0,1,X V Q F H G B L J M P D K C T S W R N Z,61700969dd10e58154ad0448,18,Mężczyzna,2022-06-11_09h14.56.962,task,2021.1.4,Win32,60.09254252,6299f149e92ead563fba08ef,62a440e12e391c1df422f9b0,,,,,,,,,,,,,,,,,,,,,,,,,,,,,,,,,,,,,,,,,,,,,,,,,,,,,,,,,,,,,,,,,,,,,,,,,,,,,,,,,,,,,,,,,,,,,,,,,,,,,
,,,,,,3,0,3,0,1,X V Q F H G B L J M P D K C T S W R N Z,61700969dd10e58154ad0448,18,Mężczyzna,2022-06-11_09h14.56.962,task,2021.1.4,Win32,60.09254252,6299f149e92ead563fba08ef,62a440e12e391c1df422f9b0,,,,,,,,,,,,,,,,,,,,,,,,,,,,,,,,,,,,,,,,,,,,,,,,,,,,,,,,,,,,,,,,,,,,,,,,,,,,,,,,,,,,,,,,,,,,,,,,,,,,,
,,,,,,4,0,4,0,1,X V Q F H G B L J M P D K C T S W R N Z,61700969dd10e58154ad0448,18,Mężczyzna,2022-06-11_09h14.56.962,task,2021.1.4,Win32,60.09254252,6299f149e92ead563fba08ef,62a440e12e391c1df422f9b0,,,,,,,,,,,,,,,,,,,,,,,,,,,,,,,,,,,,,,,,,,,,,,,,,,,,,,,,,,,,,,,,,,,,,,,,,,,,,,,,,,,,,,,,,,,,,,,,,,,,,
,,,,,,,,,,,,61700969dd10e58154ad0448,18,Mężczyzna,2022-06-11_09h14.56.962,task,2021.1.4,Win32,60.09254252,6299f149e92ead563fba08ef,62a440e12e391c1df422f9b0,klsqr,"[""k"",""l"",""s"",""q"",""r""]","[1.0842999999970147,1.7007999999970167,2.166899999998506,2.5346999999955244,3.8186999999955304,4.353399999998501]",0,KLSQL,8,0,8,0,1,,,,,,,,,,,,,,,,,,,,,,,,,,,,,,,,,,,,,,,,,,,,,,,,,,,,,,,,,,,,,,,,,,,,,,,,,,,,,,,,,,,,,,,,,,,
,,,,,,0,0,0,0,1,X V Q F H G B L J M P D K C T S W R N Z,61700969dd10e58154ad0448,18,Mężczyzna,2022-06-11_09h14.56.962,task,2021.1.4,Win32,60.09254252,6299f149e92ead563fba08ef,62a440e12e391c1df422f9b0,,,,,,,,,,,,,,,,,,,,,,,,,,,,,,,,,,,,,,,,,,,,,,,,,,,,,,,,,,,,,,,,,,,,,,,,,,,,,,,,,,,,,,,,,,,,,,,,,,,,,
,,,,,,1,0,1,0,1,X V Q F H G B L J M P D K C T S W R N Z,61700969dd10e58154ad0448,18,Mężczyzna,2022-06-11_09h14.56.962,task,2021.1.4,Win32,60.09254252,6299f149e92ead563fba08ef,62a440e12e391c1df422f9b0,,,,,,,,,,,,,,,,,,,,,,,,,,,,,,,,,,,,,,,,,,,,,,,,,,,,,,,,,,,,,,,,,,,,,,,,,,,,,,,,,,,,,,,,,,,,,,,,,,,,,
,,,,,,2,0,2,0,1,X V Q F H G B L J M P D K C T S W R N Z,61700969dd10e58154ad0448,18,Mężczyzna,2022-06-11_09h14.56.962,task,2021.1.4,Win32,60.09254252,6299f149e92ead563fba08ef,62a440e12e391c1df422f9b0,,,,,,,,,,,,,,,,,,,,,,,,,,,,,,,,,,,,,,,,,,,,,,,,,,,,,,,,,,,,,,,,,,,,,,,,,,,,,,,,,,,,,,,,,,,,,,,,,,,,,
,,,,,,3,0,3,0,1,X V Q F H G B L J M P D K C T S W R N Z,61700969dd10e58154ad0448,18,Mężczyzna,2022-06-11_09h14.56.962,task,2021.1.4,Win32,60.09254252,6299f149e92ead563fba08ef,62a440e12e391c1df422f9b0,,,,,,,,,,,,,,,,,,,,,,,,,,,,,,,,,,,,,,,,,,,,,,,,,,,,,,,,,,,,,,,,,,,,,,,,,,,,,,,,,,,,,,,,,,,,,,,,,,,,,
,,,,,,4,0,4,0,1,X V Q F H G B L J M P D K C T S W R N Z,61700969dd10e58154ad0448,18,Mężczyzna,2022-06-11_09h14.56.962,task,2021.1.4,Win32,60.09254252,6299f149e92ead563fba08ef,62a440e12e391c1df422f9b0,,,,,,,,,,,,,,,,,,,,,,,,,,,,,,,,,,,,,,,,,,,,,,,,,,,,,,,,,,,,,,,,,,,,,,,,,,,,,,,,,,,,,,,,,,,,,,,,,,,,,
,,,,,,,,,,,,61700969dd10e58154ad0448,18,Mężczyzna,2022-06-11_09h14.56.962,task,2021.1.4,Win32,60.09254252,6299f149e92ead563fba08ef,62a440e12e391c1df422f9b0,jnsph,"[""j"",""n"",""s"",""p"",""h""]","[0.8385000000000105,1.0936000000014872,1.4003999999985126,1.749899999998533,3.3333999999985195,4.116800000004488]",1,JNSPH,9,0,9,0,1,,,,,,,,,,,,,,,,,,,,,,,,,,,,,,,,,,,,,,,,,,,,,,,,,,,,,,,,,,,,,,,,,,,,,,,,,,,,,,,,,,,,,,,,,,,
,,,,,,0,0,0,0,1,X V Q F H G B L J M P D K C T S W R N Z,61700969dd10e58154ad0448,18,Mężczyzna,2022-06-11_09h14.56.962,task,2021.1.4,Win32,60.09254252,6299f149e92ead563fba08ef,62a440e12e391c1df422f9b0,,,,,,,,,,,,,,,,,,,,,,,,,,,,,,,,,,,,,,,,,,,,,,,,,,,,,,,,,,,,,,,,,,,,,,,,,,,,,,,,,,,,,,,,,,,,,,,,,,,,,
,,,,,,1,0,1,0,1,X V Q F H G B L J M P D K C T S W R N Z,61700969dd10e58154ad0448,18,Mężczyzna,2022-06-11_09h14.56.962,task,2021.1.4,Win32,60.09254252,6299f149e92ead563fba08ef,62a440e12e391c1df422f9b0,,,,,,,,,,,,,,,,,,,,,,,,,,,,,,,,,,,,,,,,,,,,,,,,,,,,,,,,,,,,,,,,,,,,,,,,,,,,,,,,,,,,,,,,,,,,,,,,,,,,,
,,,,,,2,0,2,0,1,X V Q F H G B L J M P D K C T S W R N Z,61700969dd10e58154ad0448,18,Mężczyzna,2022-06-11_09h14.56.962,task,2021.1.4,Win32,60.09254252,6299f149e92ead563fba08ef,62a440e12e391c1df422f9b0,,,,,,,,,,,,,,,,,,,,,,,,,,,,,,,,,,,,,,,,,,,,,,,,,,,,,,,,,,,,,,,,,,,,,,,,,,,,,,,,,,,,,,,,,,,,,,,,,,,,,
,,,,,,3,0,3,0,1,X V Q F H G B L J M P D K C T S W R N Z,61700969dd10e58154ad0448,18,Mężczyzna,2022-06-11_09h14.56.962,task,2021.1.4,Win32,60.09254252,6299f149e92ead563fba08ef,62a440e12e391c1df422f9b0,,,,,,,,,,,,,,,,,,,,,,,,,,,,,,,,,,,,,,,,,,,,,,,,,,,,,,,,,,,,,,,,,,,,,,,,,,,,,,,,,,,,,,,,,,,,,,,,,,,,,
,,,,,,4,0,4,0,1,X V Q F H G B L J M P D K C T S W R N Z,61700969dd10e58154ad0448,18,Mężczyzna,2022-06-11_09h14.56.962,task,2021.1.4,Win32,60.09254252,6299f149e92ead563fba08ef,62a440e12e391c1df422f9b0,,,,,,,,,,,,,,,,,,,,,,,,,,,,,,,,,,,,,,,,,,,,,,,,,,,,,,,,,,,,,,,,,,,,,,,,,,,,,,,,,,,,,,,,,,,,,,,,,,,,,
,,,,,,5,0,5,0,1,X V Q F H G B L J M P D K C T S W R N Z,61700969dd10e58154ad0448,18,Mężczyzna,2022-06-11_09h14.56.962,task,2021.1.4,Win32,60.09254252,6299f149e92ead563fba08ef,62a440e12e391c1df422f9b0,,,,,,,,,,,,,,,,,,,,,,,,,,,,,,,,,,,,,,,,,,,,,,,,,,,,,,,,,,,,,,,,,,,,,,,,,,,,,,,,,,,,,,,,,,,,,,,,,,,,,
,,,,,,,,,,,,61700969dd10e58154ad0448,18,Mężczyzna,2022-06-11_09h14.56.962,task,2021.1.4,Win32,60.09254252,6299f149e92ead563fba08ef,62a440e12e391c1df422f9b0,hnqzwr,"[""h"",""n"",""q"",""z"",""w"",""r""]","[0.7697999999970193,1.1161999999955299,3.0665999999940254,3.799699999995511,4.704699999995512,5.104799999996999,5.517499999999984]",1,HNQZWR,10,0,10,0,1,,,,,,,,,,,,,,,,,,,,,,,,,,,,,,,,,,,,,,,,,,,,,,,,,,,,,,,,,,,,,,,,,,,,,,,,,,,,,,,,,,,,,,,,,,,
,,,,,,0,0,0,0,1,X V Q F H G B L J M P D K C T S W R N Z,61700969dd10e58154ad0448,18,Mężczyzna,2022-06-11_09h14.56.962,task,2021.1.4,Win32,60.09254252,6299f149e92ead563fba08ef,62a440e12e391c1df422f9b0,,,,,,,,,,,,,,,,,,,,,,,,,,,,,,,,,,,,,,,,,,,,,,,,,,,,,,,,,,,,,,,,,,,,,,,,,,,,,,,,,,,,,,,,,,,,,,,,,,,,,
,,,,,,1,0,1,0,1,X V Q F H G B L J M P D K C T S W R N Z,61700969dd10e58154ad0448,18,Mężczyzna,2022-06-11_09h14.56.962,task,2021.1.4,Win32,60.09254252,6299f149e92ead563fba08ef,62a440e12e391c1df422f9b0,,,,,,,,,,,,,,,,,,,,,,,,,,,,,,,,,,,,,,,,,,,,,,,,,,,,,,,,,,,,,,,,,,,,,,,,,,,,,,,,,,,,,,,,,,,,,,,,,,,,,
,,,,,,2,0,2,0,1,X V Q F H G B L J M P D K C T S W R N Z,61700969dd10e58154ad0448,18,Mężczyzna,2022-06-11_09h14.56.962,task,2021.1.4,Win32,60.09254252,6299f149e92ead563fba08ef,62a440e12e391c1df422f9b0,,,,,,,,,,,,,,,,,,,,,,,,,,,,,,,,,,,,,,,,,,,,,,,,,,,,,,,,,,,,,,,,,,,,,,,,,,,,,,,,,,,,,,,,,,,,,,,,,,,,,
,,,,,,3,0,3,0,1,X V Q F H G B L J M P D K C T S W R N Z,61700969dd10e58154ad0448,18,Mężczyzna,2022-06-11_09h14.56.962,task,2021.1.4,Win32,60.09254252,6299f149e92ead563fba08ef,62a440e12e391c1df422f9b0,,,,,,,,,,,,,,,,,,,,,,,,,,,,,,,,,,,,,,,,,,,,,,,,,,,,,,,,,,,,,,,,,,,,,,,,,,,,,,,,,,,,,,,,,,,,,,,,,,,,,
,,,,,,4,0,4,0,1,X V Q F H G B L J M P D K C T S W R N Z,61700969dd10e58154ad0448,18,Mężczyzna,2022-06-11_09h14.56.962,task,2021.1.4,Win32,60.09254252,6299f149e92ead563fba08ef,62a440e12e391c1df422f9b0,,,,,,,,,,,,,,,,,,,,,,,,,,,,,,,,,,,,,,,,,,,,,,,,,,,,,,,,,,,,,,,,,,,,,,,,,,,,,,,,,,,,,,,,,,,,,,,,,,,,,
,,,,,,5,0,5,0,1,X V Q F H G B L J M P D K C T S W R N Z,61700969dd10e58154ad0448,18,Mężczyzna,2022-06-11_09h14.56.962,task,2021.1.4,Win32,60.09254252,6299f149e92ead563fba08ef,62a440e12e391c1df422f9b0,,,,,,,,,,,,,,,,,,,,,,,,,,,,,,,,,,,,,,,,,,,,,,,,,,,,,,,,,,,,,,,,,,,,,,,,,,,,,,,,,,,,,,,,,,,,,,,,,,,,,
,,,,,,,,,,,,61700969dd10e58154ad0448,18,Mężczyzna,2022-06-11_09h14.56.962,task,2021.1.4,Win32,60.09254252,6299f149e92ead563fba08ef,62a440e12e391c1df422f9b0,hcgchwz,"[""h"",""c"",""g"",""c"",""h"",""w"",""z""]","[0.8003000000044551,1.6198999999984949,2.217500000000001,3.300600000001481,3.9173999999985085,5.067000000000007,5.416700000002976,5.795999999999992]",0,HCGCWX,11,0,11,0,1,,,,,,,,,,,,,,,,,,,,,,,,,,,,,,,,,,,,,,,,,,,,,,,,,,,,,,,,,,,,,,,,,,,,,,,,,,,,,,,,,,,,,,,,,,,
,,,,,,0,0,0,0,1,X V Q F H G B L J M P D K C T S W R N Z,61700969dd10e58154ad0448,18,Mężczyzna,2022-06-11_09h14.56.962,task,2021.1.4,Win32,60.09254252,6299f149e92ead563fba08ef,62a440e12e391c1df422f9b0,,,,,,,,,,,,,,,,,,,,,,,,,,,,,,,,,,,,,,,,,,,,,,,,,,,,,,,,,,,,,,,,,,,,,,,,,,,,,,,,,,,,,,,,,,,,,,,,,,,,,
,,,,,,1,0,1,0,1,X V Q F H G B L J M P D K C T S W R N Z,61700969dd10e58154ad0448,18,Mężczyzna,2022-06-11_09h14.56.962,task,2021.1.4,Win32,60.09254252,6299f149e92ead563fba08ef,62a440e12e391c1df422f9b0,,,,,,,,,,,,,,,,,,,,,,,,,,,,,,,,,,,,,,,,,,,,,,,,,,,,,,,,,,,,,,,,,,,,,,,,,,,,,,,,,,,,,,,,,,,,,,,,,,,,,
,,,,,,2,0,2,0,1,X V Q F H G B L J M P D K C T S W R N Z,61700969dd10e58154ad0448,18,Mężczyzna,2022-06-11_09h14.56.962,task,2021.1.4,Win32,60.09254252,6299f149e92ead563fba08ef,62a440e12e391c1df422f9b0,,,,,,,,,,,,,,,,,,,,,,,,,,,,,,,,,,,,,,,,,,,,,,,,,,,,,,,,,,,,,,,,,,,,,,,,,,,,,,,,,,,,,,,,,,,,,,,,,,,,,
,,,,,,3,0,3,0,1,X V Q F H G B L J M P D K C T S W R N Z,61700969dd10e58154ad0448,18,Mężczyzna,2022-06-11_09h14.56.962,task,2021.1.4,Win32,60.09254252,6299f149e92ead563fba08ef,62a440e12e391c1df422f9b0,,,,,,,,,,,,,,,,,,,,,,,,,,,,,,,,,,,,,,,,,,,,,,,,,,,,,,,,,,,,,,,,,,,,,,,,,,,,,,,,,,,,,,,,,,,,,,,,,,,,,
,,,,,,4,0,4,0,1,X V Q F H G B L J M P D K C T S W R N Z,61700969dd10e58154ad0448,18,Mężczyzna,2022-06-11_09h14.56.962,task,2021.1.4,Win32,60.09254252,6299f149e92ead563fba08ef,62a440e12e391c1df422f9b0,,,,,,,,,,,,,,,,,,,,,,,,,,,,,,,,,,,,,,,,,,,,,,,,,,,,,,,,,,,,,,,,,,,,,,,,,,,,,,,,,,,,,,,,,,,,,,,,,,,,,
,,,,,,5,0,5,0,1,X V Q F H G B L J M P D K C T S W R N Z,61700969dd10e58154ad0448,18,Mężczyzna,2022-06-11_09h14.56.962,task,2021.1.4,Win32,60.09254252,6299f149e92ead563fba08ef,62a440e12e391c1df422f9b0,,,,,,,,,,,,,,,,,,,,,,,,,,,,,,,,,,,,,,,,,,,,,,,,,,,,,,,,,,,,,,,,,,,,,,,,,,,,,,,,,,,,,,,,,,,,,,,,,,,,,
,,,,,,,,,,,,61700969dd10e58154ad0448,18,Mężczyzna,2022-06-11_09h14.56.962,task,2021.1.4,Win32,60.09254252,6299f149e92ead563fba08ef,62a440e12e391c1df422f9b0,njlczw,"[""n"",""j"",""l"",""c"",""z"",""w""]","[0.9508000000044774,1.1833000000044933,1.4837000000029832,1.8666000000015117,2.333100000001508,3.9874000000059766,4.283700000002995]",0,NJKLCQ,12,0,12,0,1,,,,,,,,,,,,,,,,,,,,,,,,,,,,,,,,,,,,,,,,,,,,,,,,,,,,,,,,,,,,,,,,,,,,,,,,,,,,,,,,,,,,,,,,,,,
,,,,,,0,0,0,0,1,X V Q F H G B L J M P D K C T S W R N Z,61700969dd10e58154ad0448,18,Mężczyzna,2022-06-11_09h14.56.962,task,2021.1.4,Win32,60.09254252,6299f149e92ead563fba08ef,62a440e12e391c1df422f9b0,,,,,,,,,,,,,,,,,,,,,,,,,,,,,,,,,,,,,,,,,,,,,,,,,,,,,,,,,,,,,,,,,,,,,,,,,,,,,,,,,,,,,,,,,,,,,,,,,,,,,
,,,,,,1,0,1,0,1,X V Q F H G B L J M P D K C T S W R N Z,61700969dd10e58154ad0448,18,Mężczyzna,2022-06-11_09h14.56.962,task,2021.1.4,Win32,60.09254252,6299f149e92ead563fba08ef,62a440e12e391c1df422f9b0,,,,,,,,,,,,,,,,,,,,,,,,,,,,,,,,,,,,,,,,,,,,,,,,,,,,,,,,,,,,,,,,,,,,,,,,,,,,,,,,,,,,,,,,,,,,,,,,,,,,,
,,,,,,2,0,2,0,1,X V Q F H G B L J M P D K C T S W R N Z,61700969dd10e58154ad0448,18,Mężczyzna,2022-06-11_09h14.56.962,task,2021.1.4,Win32,60.09254252,6299f149e92ead563fba08ef,62a440e12e391c1df422f9b0,,,,,,,,,,,,,,,,,,,,,,,,,,,,,,,,,,,,,,,,,,,,,,,,,,,,,,,,,,,,,,,,,,,,,,,,,,,,,,,,,,,,,,,,,,,,,,,,,,,,,
,,,,,,3,0,3,0,1,X V Q F H G B L J M P D K C T S W R N Z,61700969dd10e58154ad0448,18,Mężczyzna,2022-06-11_09h14.56.962,task,2021.1.4,Win32,60.09254252,6299f149e92ead563fba08ef,62a440e12e391c1df422f9b0,,,,,,,,,,,,,,,,,,,,,,,,,,,,,,,,,,,,,,,,,,,,,,,,,,,,,,,,,,,,,,,,,,,,,,,,,,,,,,,,,,,,,,,,,,,,,,,,,,,,,
,,,,,,4,0,4,0,1,X V Q F H G B L J M P D K C T S W R N Z,61700969dd10e58154ad0448,18,Mężczyzna,2022-06-11_09h14.56.962,task,2021.1.4,Win32,60.09254252,6299f149e92ead563fba08ef,62a440e12e391c1df422f9b0,,,,,,,,,,,,,,,,,,,,,,,,,,,,,,,,,,,,,,,,,,,,,,,,,,,,,,,,,,,,,,,,,,,,,,,,,,,,,,,,,,,,,,,,,,,,,,,,,,,,,
,,,,,,5,0,5,0,1,X V Q F H G B L J M P D K C T S W R N Z,61700969dd10e58154ad0448,18,Mężczyzna,2022-06-11_09h14.56.962,task,2021.1.4,Win32,60.09254252,6299f149e92ead563fba08ef,62a440e12e391c1df422f9b0,,,,,,,,,,,,,,,,,,,,,,,,,,,,,,,,,,,,,,,,,,,,,,,,,,,,,,,,,,,,,,,,,,,,,,,,,,,,,,,,,,,,,,,,,,,,,,,,,,,,,
,,,,,,,,,,,,61700969dd10e58154ad0448,18,Mężczyzna,2022-06-11_09h14.56.962,task,2021.1.4,Win32,60.09254252,6299f149e92ead563fba08ef,62a440e12e391c1df422f9b0,skmcjz,"[""s"",""k"",""m"",""c"",""j"",""z""]","[0.46680000000446853,0.8003999999984899,1.1911000000014837,1.487300000004467,2.2998999999985017,2.767399999998503,3.266999999999996]",0,SKMCJX,13,0,13,0,1,,,,,,,,,,,,,,,,,,,,,,,,,,,,,,,,,,,,,,,,,,,,,,,,,,,,,,,,,,,,,,,,,,,,,,,,,,,,,,,,,,,,,,,,,,,
,,,,,,,,,,,,61700969dd10e58154ad0448,18,Mężczyzna,2022-06-11_09h14.56.962,task,2021.1.4,Win32,60.09254252,6299f149e92ead563fba08ef,62a440e12e391c1df422f9b0,,,,,,,,,,,space,11.6875,5,"[""5""]",1,[8.44929999999701],[8.44929999999701],0,0,0,5,1,Practice,6,(4/2) + 3,5,,,,,,,,,,,,,,,,,,,,,,,,,,,,,,,,,,,,,,,,,,,,,,,,,,,,,,,,,,,,,,,,,,,,,,,,,,,
,,,,,,,,,,,,61700969dd10e58154ad0448,18,Mężczyzna,2022-06-11_09h14.56.962,task,2021.1.4,Win32,60.09254252,6299f149e92ead563fba08ef,62a440e12e391c1df422f9b0,,,,,,,,,,,,,4,"[""4""]",1,[18.981900000005936],"[8.44929999999701,18.981900000005936]",0,1,1,4,1,Practice,5,(2x6) - 8,4,,,,,,,,,,,,,,,,,,,,,,,,,,,,,,,,,,,,,,,,,,,,,,,,,,,,,,,,,,,,,,,,,,,,,,,,,,,
,,,,,,,,,,,,61700969dd10e58154ad0448,18,Mężczyzna,2022-06-11_09h14.56.962,task,2021.1.4,Win32,60.09254252,6299f149e92ead563fba08ef,62a440e12e391c1df422f9b0,,,,,,,,,,,,,1,"[""1""]",0,[12.235500000000002],"[8.44929999999701,18.981900000005936,12.235500000000002]",0,2,2,3,1,Practice,4,(8/4) + 1,3,,,,,,,,,,,,,,,,,,,,,,,,,,,,,,,,,,,,,,,,,,,,,,,,,,,,,,,,,,,,,,,,,,,,,,,,,,,
,,,,,,,,,,,,61700969dd10e58154ad0448,18,Mężczyzna,2022-06-11_09h14.56.962,task,2021.1.4,Win32,60.09254252,6299f149e92ead563fba08ef,62a440e12e391c1df422f9b0,,,,,,,,,,,,,6,"[""6""]",1,[11.209700000002982],"[8.44929999999701,18.981900000005936,12.235500000000002,11.209700000002982]",0,3,3,6,1,Practice,7,(25/5) + 1,6,,,,,,,,,,,,,,,,,,,,,,,,,,,,,,,,,,,,,,,,,,,,,,,,,,,,,,,,,,,,,,,,,,,,,,,,,,,
,,,,,,,,,,,,61700969dd10e58154ad0448,18,Mężczyzna,2022-06-11_09h14.56.962,task,2021.1.4,Win32,60.09254252,6299f149e92ead563fba08ef,62a440e12e391c1df422f9b0,,,,,,,,,,,,,1,"[""1""]",0,[4.687100000001465],"[8.44929999999701,18.981900000005936,12.235500000000002,11.209700000002982,4.687100000001465]",0,4,4,9,1,Practice,10,(20/2) - 1,9,,,,,,,,,,,,,,,,,,,,,,,,,,,,,,,,,,,,,,,,,,,,,,,,,,,,,,,,,,,,,,,,,,,,,,,,,,,
,,,,,,,,,,,,61700969dd10e58154ad0448,18,Mężczyzna,2022-06-11_09h14.56.962,task,2021.1.4,Win32,60.09254252,6299f149e92ead563fba08ef,62a440e12e391c1df422f9b0,,,,,,,,,,,,,0,"[""0""]",1,[5.139700000002961],"[8.44929999999701,18.981900000005936,12.235500000000002,11.209700000002982,4.687100000001465,5.139700000002961]",0,5,5,0,1,Practice,1,(3x3) -  9,0,,,,,,,,,,,,,,,,,,,,,,,,,,,,,,,,,,,,,,,,,,,,,,,,,,,,,,,,,,,,,,,,,,,,,,,,,,,
,,,,,,,,,,,,61700969dd10e58154ad0448,18,Mężczyzna,2022-06-11_09h14.56.962,task,2021.1.4,Win32,60.09254252,6299f149e92ead563fba08ef,62a440e12e391c1df422f9b0,,,,,,,,,,,,,7,"[""7""]",1,[10.470000000000027],"[8.44929999999701,18.981900000005936,12.235500000000002,11.209700000002982,4.687100000001465,5.139700000002961,10.470000000000027]",0,6,6,7,1,Practice,8,(5x5) - 18,7,,,,,,,,,,,,,,,,,,,,,,,,,,,,,,,,,,,,,,,,,,,,,,,,,,,,,,,,,,,,,,,,,,,,,,,,,,,
,,,,,,,,,,,,61700969dd10e58154ad0448,18,Mężczyzna,2022-06-11_09h14.56.962,task,2021.1.4,Win32,60.09254252,6299f149e92ead563fba08ef,62a440e12e391c1df422f9b0,,,,,,,,,,,,,1,"[""1""]",1,[7.250699999995561],"[8.44929999999701,18.981900000005936,12.235500000000002,11.209700000002982,4.687100000001465,5.139700000002961,10.470000000000027,7.250699999995561]",0,7,7,1,1,Practice,2,(4x4) - 15,1,,,,,,,,,,,,,,,,,,,,,,,,,,,,,,,,,,,,,,,,,,,,,,,,,,,,,,,,,,,,,,,,,,,,,,,,,,,
,,,,,,,,,,,,61700969dd10e58154ad0448,18,Mężczyzna,2022-06-11_09h14.56.962,task,2021.1.4,Win32,60.09254252,6299f149e92ead563fba08ef,62a440e12e391c1df422f9b0,,,,,,,,,,,,,2,"[""2""]",1,[3.759200000002977],"[8.44929999999701,18.981900000005936,12.235500000000002,11.209700000002982,4.687100000001465,5.139700000002961,10.470000000000027,7.250699999995561,3.759200000002977]",0,8,8,2,1,Practice,3,(4x4) - 14,2,,,,,,,,,,,,,,,,,,,,,,,,,,,,,,,,,,,,,,,,,,,,,,,,,,,,,,,,,,,,,,,,,,,,,,,,,,,
,,,,,,,,,,,,61700969dd10e58154ad0448,18,Mężczyzna,2022-06-11_09h14.56.962,task,2021.1.4,Win32,60.09254252,6299f149e92ead563fba08ef,62a440e12e391c1df422f9b0,,,,,,,,,,,,,8,"[""8""]",1,[2.8170999999940136],"[8.44929999999701,18.981900000005936,12.235500000000002,11.209700000002982,4.687100000001465,5.139700000002961,10.470000000000027,7.250699999995561,3.759200000002977,2.8170999999940136]",0,9,9,8,1,Practice,9,(3x3) - 1,8,,,,,,,,,,,,,,,,,,,,,,,,,,,,,,,,,,,,,,,,,,,,,,,,,,,,,,,,,,,,,,,,,,,,,,,,,,,
,,,,,,,,,,,,61700969dd10e58154ad0448,18,Mężczyzna,2022-06-11_09h14.56.962,task,2021.1.4,Win32,60.09254252,6299f149e92ead563fba08ef,62a440e12e391c1df422f9b0,,,,,,,,,,,,,,,,,,,,,,,,,,,0.8,85.0002,5.66668,297.489398,4.453383718,17.15640999,space,2.8785,0,0,0,0,1,,,,,,,,,,,,,,,,,,,,,,,,,,,,,,,,,,,,,,,,,,,,,,,,,,,,,,,,,,,,,,
,,,,,,,,,,,,61700969dd10e58154ad0448,18,Mężczyzna,2022-06-11_09h14.56.962,task,2021.1.4,Win32,60.09254252,6299f149e92ead563fba08ef,62a440e12e391c1df422f9b0,,,,,,,,,,,,,0,,,,,,,,,,Practice,1,(3x3) -  9,0,,,,,,,,,,,,,,space,12.151,"[""0""]",1,[3.7629000000059705],1,0,0,0,0,1,,,,,,,,,,,,,,,,,,,,,,,,,,,,,,,,,,,,,,,,,,,,,,,,,,,
,,,,,,,,,,,X V Q F H G B L J M P D K C T S W R N Z,61700969dd10e58154ad0448,18,Mężczyzna,2022-06-11_09h14.56.962,task,2021.1.4,Win32,60.09254252,6299f149e92ead563fba08ef,62a440e12e391c1df422f9b0,,,,,,,,,,,,,,,,,,,,,,,,,,,,,,,,,,,,,,,,,,,,,,,,,,,0,0,0,0,1,,,,,,,,,,,,,,,,,,,,,,,,,,,,,,,,,,,,,,,,,,,,,,
,,,,,,,,,,,,61700969dd10e58154ad0448,18,Mężczyzna,2022-06-11_09h14.56.962,task,2021.1.4,Win32,60.09254252,6299f149e92ead563fba08ef,62a440e12e391c1df422f9b0,,,,,,,,,,,,,,,,,,,,,,,Practice,5,(2x6) - 8,4,,,,,,,,,,,,,,,,,0,,0,0,0,0,4,1,,,,,,,,,,,,,,,,,,,,,,,,,,,,,,,,,,,,,,,,,,,,,,,,,,,
,,,,,,,,,,,,61700969dd10e58154ad0448,18,Mężczyzna,2022-06-11_09h14.56.962,task,2021.1.4,Win32,60.09254252,6299f149e92ead563fba08ef,62a440e12e391c1df422f9b0,,,,,,,,,,,,,5,,,,,,,,,,Practice,7,(25/5) + 1,6,,,,,,,,,,,,,,,,"[""5""]",0,[9.029499999999985],0,0,1,1,6,1,,,,,,,,,,,,,,,,,,,,,,,,,,,,,,,,,,,,,,,,,,,,,,,,,,,
,,,,,,,,,,,,61700969dd10e58154ad0448,18,Mężczyzna,2022-06-11_09h14.56.962,task,2021.1.4,Win32,60.09254252,6299f149e92ead563fba08ef,62a440e12e391c1df422f9b0,,,,,,,,,,,,,2,,,,,,,,,,Practice,3,(4x4) - 14,2,,,,,,,,,,,,,,,,"[""2""]",1,[4.5837000000029775],1,0,2,2,2,1,,,,,,,,,,,,,,,,,,,,,,,,,,,,,,,,,,,,,,,,,,,,,,,,,,,
,,,,,,,,,,,X V Q F H G B L J M P D K C T S W R N Z,61700969dd10e58154ad0448,18,Mężczyzna,2022-06-11_09h14.56.962,task,2021.1.4,Win32,60.09254252,6299f149e92ead563fba08ef,62a440e12e391c1df422f9b0,,,,,,,,,,,,,,,,,,,,,,,,,,,,,,,,,,,,,,,,,,,,,,,,,,,1,0,1,0,1,,,,,,,,,,,,,,,,,,,,,,,,,,,,,,,,,,,,,,,,,,,,,,
,,,,,,,,,,,,61700969dd10e58154ad0448,18,Mężczyzna,2022-06-11_09h14.56.962,task,2021.1.4,Win32,60.09254252,6299f149e92ead563fba08ef,62a440e12e391c1df422f9b0,,,,,,,,,,,,,,,,,,,,,,,,,,,,,,,,,,,,,,,,,,,,,,,,,,,,,,,,zb,"[""z"",""b""]",0,"[2.8846999999955187,3.6576999999954865,4.617699999995523]",1,0,0,0,0,1,,,,,,,,,,,,,,,,,,,,,,,,,,,,,,,,,,,,
,,,,,,,,,,,,61700969dd10e58154ad0448,18,Mężczyzna,2022-06-11_09h14.56.962,task,2021.1.4,Win32,60.09254252,6299f149e92ead563fba08ef,62a440e12e391c1df422f9b0,,,,,,,,,,,,,5,,,,,,,,,,Practice,6,(4/2) + 3,5,,,,,,,,,,,,,,,,"[""5""]",1,[4.020099999994045],1,0,0,0,5,1,,,,,,,,,,,,,,,,,,,,,,,,,,,,,,,,,,,,,,,,,,,,,,,,,,,
,,,,,,,,,,,X V Q F H G B L J M P D K C T S W R N Z,61700969dd10e58154ad0448,18,Mężczyzna,2022-06-11_09h14.56.962,task,2021.1.4,Win32,60.09254252,6299f149e92ead563fba08ef,62a440e12e391c1df422f9b0,,,,,,,,,,,,,,,,,,,,,,,,,,,,,,,,,,,,,,,,,,,,,,,,,,,0,0,0,0,1,,,,,,,,,,,,,,,,,,,,,,,,,,,,,,,,,,,,,,,,,,,,,,
,,,,,,,,,,,,61700969dd10e58154ad0448,18,Mężczyzna,2022-06-11_09h14.56.962,task,2021.1.4,Win32,60.09254252,6299f149e92ead563fba08ef,62a440e12e391c1df422f9b0,,,,,,,,,,,,,6,,,,,,,,,,Practice,8,(5x5) - 18,7,,,,,,,,,,,,,,,,"[""6""]",0,[14.346900000005974],0,0,0,0,7,1,,,,,,,,,,,,,,,,,,,,,,,,,,,,,,,,,,,,,,,,,,,,,,,,,,,
,,,,,,,,,,,,61700969dd10e58154ad0448,18,Mężczyzna,2022-06-11_09h14.56.962,task,2021.1.4,Win32,60.09254252,6299f149e92ead563fba08ef,62a440e12e391c1df422f9b0,,,,,,,,,,,,,5,,,,,,,,,,Practice,6,(4/2) + 3,5,,,,,,,,,,,,,,,,"[""5""]",1,[3.6351999999955638],1,0,1,1,5,1,,,,,,,,,,,,,,,,,,,,,,,,,,,,,,,,,,,,,,,,,,,,,,,,,,,
,,,,,,,,,,,X V Q F H G B L J M P D K C T S W R N Z,61700969dd10e58154ad0448,18,Mężczyzna,2022-06-11_09h14.56.962,task,2021.1.4,Win32,60.09254252,6299f149e92ead563fba08ef,62a440e12e391c1df422f9b0,,,,,,,,,,,,,,,,,,,,,,,,,,,,,,,,,,,,,,,,,,,,,,,,,,,1,0,1,0,1,,,,,,,,,,,,,,,,,,,,,,,,,,,,,,,,,,,,,,,,,,,,,,
,,,,,,,,,,,,61700969dd10e58154ad0448,18,Mężczyzna,2022-06-11_09h14.56.962,task,2021.1.4,Win32,60.09254252,6299f149e92ead563fba08ef,62a440e12e391c1df422f9b0,,,,,,,,,,,,,,,,,,,,,,,,,,,,,,,,,,,,,,,,,,,,,,,,,,,,,,,,xl,"[""x"",""l""]",0,"[1.967700000002992,2.450399999998524,2.8337000000029775]",1,1,0,1,0,1,,,,,,,,,,,,,,,,,,,,,,,,,,,,,,,,,,,,
,,,,,,,,,,,,61700969dd10e58154ad0448,18,Mężczyzna,2022-06-11_09h14.56.962,task,2021.1.4,Win32,60.09254252,6299f149e92ead563fba08ef,62a440e12e391c1df422f9b0,,,,,,,,,,,,,4,,,,,,,,,,Practice,5,(2x6) - 8,4,,,,,,,,,,,,,,,,"[""4""]",1,[11.861299999997016],1,0,0,0,4,1,,,,,,,,,,,,,,,,,,,,,,,,,,,,,,,,,,,,,,,,,,,,,,,,,,,
,,,,,,,,,,,X V Q F H G B L J M P D K C T S W R N Z,61700969dd10e58154ad0448,18,Mężczyzna,2022-06-11_09h14.56.962,task,2021.1.4,Win32,60.09254252,6299f149e92ead563fba08ef,62a440e12e391c1df422f9b0,,,,,,,,,,,,,,,,,,,,,,,,,,,,,,,,,,,,,,,,,,,,,,,,,,,0,0,0,0,1,,,,,,,,,,,,,,,,,,,,,,,,,,,,,,,,,,,,,,,,,,,,,,
,,,,,,,,,,,,61700969dd10e58154ad0448,18,Mężczyzna,2022-06-11_09h14.56.962,task,2021.1.4,Win32,60.09254252,6299f149e92ead563fba08ef,62a440e12e391c1df422f9b0,,,,,,,,,,,,,6,,,,,,,,,,Practice,7,(25/5) + 1,6,,,,,,,,,,,,,,,,"[""6""]",1,[11.1388999999985],1,0,0,0,6,1,,,,,,,,,,,,,,,,,,,,,,,,,,,,,,,,,,,,,,,,,,,,,,,,,,,
,,,,,,,,,,,X V Q F H G B L J M P D K C T S W R N Z,61700969dd10e58154ad0448,18,Mężczyzna,2022-06-11_09h14.56.962,task,2021.1.4,Win32,60.09254252,6299f149e92ead563fba08ef,62a440e12e391c1df422f9b0,,,,,,,,,,,,,,,,,,,,,,,,,,,,,,,,,,,,,,,,,,,,,,,,,,,1,0,1,0,1,,,,,,,,,,,,,,,,,,,,,,,,,,,,,,,,,,,,,,,,,,,,,,
,,,,,,,,,,,,61700969dd10e58154ad0448,18,Mężczyzna,2022-06-11_09h14.56.962,task,2021.1.4,Win32,60.09254252,6299f149e92ead563fba08ef,62a440e12e391c1df422f9b0,,,,,,,,,,,,,,,,,,,,,,,,,,,,,,,,,,,,,,,,,,,,,,,,,,,,,,,,zd,"[""z"",""d""]",0,"[3.250300000004472,3.617800000004479,4.200900000005959]",1,2,0,2,0,1,,,,,,,,,,,,,,,,,,,,,,,,,,,,,,,,,,,,
,,,,,,,,,,,,61700969dd10e58154ad0448,18,Mężczyzna,2022-06-11_09h14.56.962,task,2021.1.4,Win32,60.09254252,6299f149e92ead563fba08ef,62a440e12e391c1df422f9b0,,,,,,,,,,,,,,,,,,,,,,,Task,26,(2x9) - 16,2,,,,,,,,,,,,,,,,,,,0,,,,,,,,,,,,,,,,,,,,,space,10.8401,,0,0,0,0,25,1,,,,,,,,,,,,,,,,,,,,,,,,,,,
,,,,,,,,,,,,61700969dd10e58154ad0448,18,Mężczyzna,2022-06-11_09h14.56.962,task,2021.1.4,Win32,60.09254252,6299f149e92ead563fba08ef,62a440e12e391c1df422f9b0,,,,,,,,,,,,,,,,,,,,,,,Task,7,(3x7) - 12,9,,,,,,,,,,,,,,,,,,,0,,,,,,,,,,,,,,,,,,,,,,,,0,0,1,1,6,1,,,,,,,,,,,,,,,,,,,,,,,,,,,
,,,,,,,,,,,,61700969dd10e58154ad0448,18,Mężczyzna,2022-06-11_09h14.56.962,task,2021.1.4,Win32,60.09254252,6299f149e92ead563fba08ef,62a440e12e391c1df422f9b0,,,,,,,,,,,,,0,,,,,,,,,,Task,8,(1x5) - 5,0,,,,,,,,,,,,,,,,,,,1,,,,,,,,,,,,,,,,,,,,,,,"[""0""]",1,0,2,2,7,1,[2.9816000000014924],,,,,,,,,,,,,,,,,,,,,,,,,,
,,,,,,,,,,,X V Q F H G B L J M P D K C T S W R N Z,61700969dd10e58154ad0448,18,Mężczyzna,2022-06-11_09h14.56.962,task,2021.1.4,Win32,60.09254252,6299f149e92ead563fba08ef,62a440e12e391c1df422f9b0,,,,,,,,,,,,,,,,,,,,,,,,,,,,,,,,,,,,,,,,,,,,,,,,,,,,,,,,,,,,,,,,,,,,,,,,,,,,0,0,0,0,1,,,,,,,,,,,,,,,,,,,,,
,,,,,,,,,,,,61700969dd10e58154ad0448,18,Mężczyzna,2022-06-11_09h14.56.962,task,2021.1.4,Win32,60.09254252,6299f149e92ead563fba08ef,62a440e12e391c1df422f9b0,,,,,,,,,,,,,7,,,,,,,,,,Task,31,(4/2) + 5,7,,,,,,,,,,,,,,,,,,,1,,,,,,,,,,,,,,,,,,,,,,,"[""7""]",1,0,0,0,30,1,[5.293599999994058],,,,,,,,,,,,,,,,,,,,,,,,,,
,,,,,,,,,,,X V Q F H G B L J M P D K C T S W R N Z,61700969dd10e58154ad0448,18,Mężczyzna,2022-06-11_09h14.56.962,task,2021.1.4,Win32,60.09254252,6299f149e92ead563fba08ef,62a440e12e391c1df422f9b0,,,,,,,,,,,,,,,,,,,,,,,,,,,,,,,,,,,,,,,,,,,,,,,,,,,,,,,,,,,,,,,,,,,,,,,,,,,,1,0,1,0,1,,,,,,,,,,,,,,,,,,,,,
,,,,,,,,,,,,61700969dd10e58154ad0448,18,Mężczyzna,2022-06-11_09h14.56.962,task,2021.1.4,Win32,60.09254252,6299f149e92ead563fba08ef,62a440e12e391c1df422f9b0,,,,,,,,,,,,,,,,,,,,,,,,,,,,,,,,,,,,,,,,,,,,,,,,,,,,,,,,,,,,,,,,,,,,,,,,,,,,,,,,,zd,"[""z"",""d""]",0,"[1.661899999998468,2.0341000000014446,2.484999999999957]",1,ZD,0,0,0,0,1,,,,,,,,,,
,,,,,,,,,,,,61700969dd10e58154ad0448,18,Mężczyzna,2022-06-11_09h14.56.962,task,2021.1.4,Win32,60.09254252,6299f149e92ead563fba08ef,62a440e12e391c1df422f9b0,,,,,,,,,,,,,5,,,,,,,,,,Task,12,(4x4) - 11,5,,,,,,,,,,,,,,,,,,,1,,,,,,,,,,,,,,,,,,,,,,,"[""5""]",1,0,0,0,11,1,[4.399700000003008],,,,,,,,,,,,,,,,,,,,,,,,,,
,,,,,,,,,,,X V Q F H G B L J M P D K C T S W R N Z,61700969dd10e58154ad0448,18,Mężczyzna,2022-06-11_09h14.56.962,task,2021.1.4,Win32,60.09254252,6299f149e92ead563fba08ef,62a440e12e391c1df422f9b0,,,,,,,,,,,,,,,,,,,,,,,,,,,,,,,,,,,,,,,,,,,,,,,,,,,,,,,,,,,,,,,,,,,,,,,,,,,,0,0,0,0,1,,,,,,,,,,,,,,,,,,,,,
,,,,,,,,,,,,61700969dd10e58154ad0448,18,Mężczyzna,2022-06-11_09h14.56.962,task,2021.1.4,Win32,60.09254252,6299f149e92ead563fba08ef,62a440e12e391c1df422f9b0,,,,,,,,,,,,,9,,,,,,,,,,Task,7,(3x7) - 12,9,,,,,,,,,,,,,,,,,,,1,,,,,,,,,,,,,,,,,,,,,,,"[""9""]",1,0,0,0,6,1,[11.357999999999947],,,,,,,,,,,,,,,,,,,,,,,,,,
,,,,,,,,,,,X V Q F H G B L J M P D K C T S W R N Z,61700969dd10e58154ad0448,18,Mężczyzna,2022-06-11_09h14.56.962,task,2021.1.4,Win32,60.09254252,6299f149e92ead563fba08ef,62a440e12e391c1df422f9b0,,,,,,,,,,,,,,,,,,,,,,,,,,,,,,,,,,,,,,,,,,,,,,,,,,,,,,,,,,,,,,,,,,,,,,,,,,,,1,0,1,0,1,,,,,,,,,,,,,,,,,,,,,
,,,,,,,,,,,,61700969dd10e58154ad0448,18,Mężczyzna,2022-06-11_09h14.56.962,task,2021.1.4,Win32,60.09254252,6299f149e92ead563fba08ef,62a440e12e391c1df422f9b0,,,,,,,,,,,,,2,,,,,,,,,,Task,19,(6/2) - 1,2,,,,,,,,,,,,,,,,,,,1,,,,,,,,,,,,,,,,,,,,,,,"[""2""]",1,0,0,0,18,1,[6.909299999997074],,,,,,,,,,,,,,,,,,,,,,,,,,
,,,,,,,,,,,X V Q F H G B L J M P D K C T S W R N Z,61700969dd10e58154ad0448,18,Mężczyzna,2022-06-11_09h14.56.962,task,2021.1.4,Win32,60.09254252,6299f149e92ead563fba08ef,62a440e12e391c1df422f9b0,,,,,,,,,,,,,,,,,,,,,,,,,,,,,,,,,,,,,,,,,,,,,,,,,,,,,,,,,,,,,,,,,,,,,,,,,,,,2,0,2,0,1,,,,,,,,,,,,,,,,,,,,,
,,,,,,,,,,,,61700969dd10e58154ad0448,18,Mężczyzna,2022-06-11_09h14.56.962,task,2021.1.4,Win32,60.09254252,6299f149e92ead563fba08ef,62a440e12e391c1df422f9b0,,,,,,,,,,,,,,,,,,,,,,,,,,,,,,,,,,,,,,,,,,,,,,,,,,,,,,,,,,,,,,,,,,,,,,,,,,,,,,,,,brs,"[""b"",""r"",""s""]",0,"[4.317200000003027,4.6174000000060005,4.853300000004538,5.150300000004449]",1,BRS,1,0,1,0,1,,,,,,,,,,
,,,,,,,,,,,,61700969dd10e58154ad0448,18,Mężczyzna,2022-06-11_09h14.56.962,task,2021.1.4,Win32,60.09254252,6299f149e92ead563fba08ef,62a440e12e391c1df422f9b0,,,,,,,,,,,,,5,,,,,,,,,,Task,22,(3x1) + 2,5,,,,,,,,,,,,,,,,,,,1,,,,,,,,,,,,,,,,,,,,,,,"[""5""]",1,0,0,0,21,1,[4.548800000004462],,,,,,,,,,,,,,,,,,,,,,,,,,
,,,,,,,,,,,X V Q F H G B L J M P D K C T S W R N Z,61700969dd10e58154ad0448,18,Mężczyzna,2022-06-11_09h14.56.962,task,2021.1.4,Win32,60.09254252,6299f149e92ead563fba08ef,62a440e12e391c1df422f9b0,,,,,,,,,,,,,,,,,,,,,,,,,,,,,,,,,,,,,,,,,,,,,,,,,,,,,,,,,,,,,,,,,,,,,,,,,,,,0,0,0,0,1,,,,,,,,,,,,,,,,,,,,,
,,,,,,,,,,,,61700969dd10e58154ad0448,18,Mężczyzna,2022-06-11_09h14.56.962,task,2021.1.4,Win32,60.09254252,6299f149e92ead563fba08ef,62a440e12e391c1df422f9b0,,,,,,,,,,,,,1,,,,,,,,,,Task,1,(12/6) - 1,1,,,,,,,,,,,,,,,,,,,1,,,,,,,,,,,,,,,,,,,,,,,"[""1""]",1,0,0,0,0,1,[7.779800000004457],,,,,,,,,,,,,,,,,,,,,,,,,,
,,,,,,,,,,,X V Q F H G B L J M P D K C T S W R N Z,61700969dd10e58154ad0448,18,Mężczyzna,2022-06-11_09h14.56.962,task,2021.1.4,Win32,60.09254252,6299f149e92ead563fba08ef,62a440e12e391c1df422f9b0,,,,,,,,,,,,,,,,,,,,,,,,,,,,,,,,,,,,,,,,,,,,,,,,,,,,,,,,,,,,,,,,,,,,,,,,,,,,1,0,1,0,1,,,,,,,,,,,,,,,,,,,,,
,,,,,,,,,,,,61700969dd10e58154ad0448,18,Mężczyzna,2022-06-11_09h14.56.962,task,2021.1.4,Win32,60.09254252,6299f149e92ead563fba08ef,62a440e12e391c1df422f9b0,,,,,,,,,,,,,3,,,,,,,,,,Task,27,(3/3) + 2,3,,,,,,,,,,,,,,,,,,,1,,,,,,,,,,,,,,,,,,,,,,,"[""3""]",1,0,0,0,26,1,[3.4464000000059514],,,,,,,,,,,,,,,,,,,,,,,,,,
,,,,,,,,,,,X V Q F H G B L J M P D K C T S W R N Z,61700969dd10e58154ad0448,18,Mężczyzna,2022-06-11_09h14.56.962,task,2021.1.4,Win32,60.09254252,6299f149e92ead563fba08ef,62a440e12e391c1df422f9b0,,,,,,,,,,,,,,,,,,,,,,,,,,,,,,,,,,,,,,,,,,,,,,,,,,,,,,,,,,,,,,,,,,,,,,,,,,,,2,0,2,0,1,,,,,,,,,,,,,,,,,,,,,
,,,,,,,,,,,,61700969dd10e58154ad0448,18,Mężczyzna,2022-06-11_09h14.56.962,task,2021.1.4,Win32,60.09254252,6299f149e92ead563fba08ef,62a440e12e391c1df422f9b0,,,,,,,,,,,,,6,,,,,,,,,,Task,13,(3x4) - 6,6,,,,,,,,,,,,,,,,,,,1,,,,,,,,,,,,,,,,,,,,,,,"[""6""]",1,0,0,0,12,1,[14.341199999995524],,,,,,,,,,,,,,,,,,,,,,,,,,
,,,,,,,,,,,X V Q F H G B L J M P D K C T S W R N Z,61700969dd10e58154ad0448,18,Mężczyzna,2022-06-11_09h14.56.962,task,2021.1.4,Win32,60.09254252,6299f149e92ead563fba08ef,62a440e12e391c1df422f9b0,,,,,,,,,,,,,,,,,,,,,,,,,,,,,,,,,,,,,,,,,,,,,,,,,,,,,,,,,,,,,,,,,,,,,,,,,,,,3,0,3,0,1,,,,,,,,,,,,,,,,,,,,,
,,,,,,,,,,,,61700969dd10e58154ad0448,18,Mężczyzna,2022-06-11_09h14.56.962,task,2021.1.4,Win32,60.09254252,6299f149e92ead563fba08ef,62a440e12e391c1df422f9b0,,,,,,,,,,,,,,,,,,,,,,,,,,,,,,,,,,,,,,,,,,,,,,,,,,,,,,,,,,,,,,,,,,,,,,,,,,,,,,,,,fbgv,"[""f"",""b"",""g"",""v""]",0,"[2.784399999998527,4.434100000001536,9.209600000001501,9.513299999997002,10.02529999999706]",1,FBGV,2,0,2,0,1,,,,,,,,,,
,,,,,,,,,,,,61700969dd10e58154ad0448,18,Mężczyzna,2022-06-11_09h14.56.962,task,2021.1.4,Win32,60.09254252,6299f149e92ead563fba08ef,62a440e12e391c1df422f9b0,,,,,,,,,,,,,5,,,,,,,,,,Task,29,(3x8) - 19 ,5,,,,,,,,,,,,,,,,,,,1,,,,,,,,,,,,,,,,,,,,,,,"[""5""]",1,0,0,0,28,1,[10.7866000000015],,,,,,,,,,,,,,,,,,,,,,,,,,
,,,,,,,,,,,X V Q F H G B L J M P D K C T S W R N Z,61700969dd10e58154ad0448,18,Mężczyzna,2022-06-11_09h14.56.962,task,2021.1.4,Win32,60.09254252,6299f149e92ead563fba08ef,62a440e12e391c1df422f9b0,,,,,,,,,,,,,,,,,,,,,,,,,,,,,,,,,,,,,,,,,,,,,,,,,,,,,,,,,,,,,,,,,,,,,,,,,,,,0,0,0,0,1,,,,,,,,,,,,,,,,,,,,,
,,,,,,,,,,,,61700969dd10e58154ad0448,18,Mężczyzna,2022-06-11_09h14.56.962,task,2021.1.4,Win32,60.09254252,6299f149e92ead563fba08ef,62a440e12e391c1df422f9b0,,,,,,,,,,,,,0,,,,,,,,,,Task,33,(1/1) - 1,0,,,,,,,,,,,,,,,,,,,1,,,,,,,,,,,,,,,,,,,,,,,"[""0""]",1,0,0,0,32,1,[2.4633000000044376],,,,,,,,,,,,,,,,,,,,,,,,,,
,,,,,,,,,,,X V Q F H G B L J M P D K C T S W R N Z,61700969dd10e58154ad0448,18,Mężczyzna,2022-06-11_09h14.56.962,task,2021.1.4,Win32,60.09254252,6299f149e92ead563fba08ef,62a440e12e391c1df422f9b0,,,,,,,,,,,,,,,,,,,,,,,,,,,,,,,,,,,,,,,,,,,,,,,,,,,,,,,,,,,,,,,,,,,,,,,,,,,,1,0,1,0,1,,,,,,,,,,,,,,,,,,,,,
,,,,,,,,,,,,61700969dd10e58154ad0448,18,Mężczyzna,2022-06-11_09h14.56.962,task,2021.1.4,Win32,60.09254252,6299f149e92ead563fba08ef,62a440e12e391c1df422f9b0,,,,,,,,,,,,,6,,,,,,,,,,Task,5,(2x3) + 0,6,,,,,,,,,,,,,,,,,,,1,,,,,,,,,,,,,,,,,,,,,,,"[""6""]",1,0,0,0,4,1,[6.916900000005967],,,,,,,,,,,,,,,,,,,,,,,,,,
,,,,,,,,,,,X V Q F H G B L J M P D K C T S W R N Z,61700969dd10e58154ad0448,18,Mężczyzna,2022-06-11_09h14.56.962,task,2021.1.4,Win32,60.09254252,6299f149e92ead563fba08ef,62a440e12e391c1df422f9b0,,,,,,,,,,,,,,,,,,,,,,,,,,,,,,,,,,,,,,,,,,,,,,,,,,,,,,,,,,,,,,,,,,,,,,,,,,,,2,0,2,0,1,,,,,,,,,,,,,,,,,,,,,
,,,,,,,,,,,,61700969dd10e58154ad0448,18,Mężczyzna,2022-06-11_09h14.56.962,task,2021.1.4,Win32,60.09254252,6299f149e92ead563fba08ef,62a440e12e391c1df422f9b0,,,,,,,,,,,,,5,,,,,,,,,,Task,5,(2x3) + 0,6,,,,,,,,,,,,,,,,,,,0,,,,,,,,,,,,,,,,,,,,,,,"[""5""]",0,0,0,0,4,1,[3.2991000000015447],,,,,,,,,,,,,,,,,,,,,,,,,,
,,,,,,,,,,,,61700969dd10e58154ad0448,18,Mężczyzna,2022-06-11_09h14.56.962,task,2021.1.4,Win32,60.09254252,6299f149e92ead563fba08ef,62a440e12e391c1df422f9b0,,,,,,,,,,,,,2,,,,,,,,,,Task,26,(2x9) - 16,2,,,,,,,,,,,,,,,,,,,1,,,,,,,,,,,,,,,,,,,,,,,"[""2""]",1,0,1,1,25,1,[6.422300000004498],,,,,,,,,,,,,,,,,,,,,,,,,,
,,,,,,,,,,,X V Q F H G B L J M P D K C T S W R N Z,61700969dd10e58154ad0448,18,Mężczyzna,2022-06-11_09h14.56.962,task,2021.1.4,Win32,60.09254252,6299f149e92ead563fba08ef,62a440e12e391c1df422f9b0,,,,,,,,,,,,,,,,,,,,,,,,,,,,,,,,,,,,,,,,,,,,,,,,,,,,,,,,,,,,,,,,,,,,,,,,,,,,3,0,3,0,1,,,,,,,,,,,,,,,,,,,,,
,,,,,,,,,,,,61700969dd10e58154ad0448,18,Mężczyzna,2022-06-11_09h14.56.962,task,2021.1.4,Win32,60.09254252,6299f149e92ead563fba08ef,62a440e12e391c1df422f9b0,,,,,,,,,,,,,6,,,,,,,,,,Task,5,(2x3) + 0,6,,,,,,,,,,,,,,,,,,,1,,,,,,,,,,,,,,,,,,,,,,,"[""6""]",1,0,0,0,4,1,[5.8419999999999845],,,,,,,,,,,,,,,,,,,,,,,,,,
,,,,,,,,,,,X V Q F H G B L J M P D K C T S W R N Z,61700969dd10e58154ad0448,18,Mężczyzna,2022-06-11_09h14.56.962,task,2021.1.4,Win32,60.09254252,6299f149e92ead563fba08ef,62a440e12e391c1df422f9b0,,,,,,,,,,,,,,,,,,,,,,,,,,,,,,,,,,,,,,,,,,,,,,,,,,,,,,,,,,,,,,,,,,,,,,,,,,,,4,0,4,0,1,,,,,,,,,,,,,,,,,,,,,
,,,,,,,,,,,,61700969dd10e58154ad0448,18,Mężczyzna,2022-06-11_09h14.56.962,task,2021.1.4,Win32,60.09254252,6299f149e92ead563fba08ef,62a440e12e391c1df422f9b0,,,,,,,,,,,,,,,,,,,,,,,,,,,,,,,,,,,,,,,,,,,,,,,,,,,,,,,,,,,,,,,,,,,,,,,,,,,,,,,,,bjlkl,"[""b"",""j"",""l"",""k"",""l""]",0,"[3.95900000000006,4.38439999999855,14.182700000003024,14.43120000000306,14.73220000000299,15.286899999998582]",1,BJLKL,3,0,3,0,1,,,,,,,,,,
,,,,,,,,,,,,61700969dd10e58154ad0448,18,Mężczyzna,2022-06-11_09h14.56.962,task,2021.1.4,Win32,60.09254252,6299f149e92ead563fba08ef,62a440e12e391c1df422f9b0,,,,,,,,,,,,,7,,,,,,,,,,Task,6,(12/2) + 1,7,,,,,,,,,,,,,,,,,,,1,,,,,,,,,,,,,,,,,,,,,,,"[""7""]",1,0,0,0,5,1,[3.5151999999955024],,,,,,,,,,,,,,,,,,,,,,,,,,
,,,,,,,,,,,X V Q F H G B L J M P D K C T S W R N Z,61700969dd10e58154ad0448,18,Mężczyzna,2022-06-11_09h14.56.962,task,2021.1.4,Win32,60.09254252,6299f149e92ead563fba08ef,62a440e12e391c1df422f9b0,,,,,,,,,,,,,,,,,,,,,,,,,,,,,,,,,,,,,,,,,,,,,,,,,,,,,,,,,,,,,,,,,,,,,,,,,,,,0,0,0,0,1,,,,,,,,,,,,,,,,,,,,,
,,,,,,,,,,,,61700969dd10e58154ad0448,18,Mężczyzna,2022-06-11_09h14.56.962,task,2021.1.4,Win32,60.09254252,6299f149e92ead563fba08ef,62a440e12e391c1df422f9b0,,,,,,,,,,,,,1,,,,,,,,,,Task,1,(12/6) - 1,1,,,,,,,,,,,,,,,,,,,1,,,,,,,,,,,,,,,,,,,,,,,"[""1""]",1,0,0,0,0,1,[7.113399999998478],,,,,,,,,,,,,,,,,,,,,,,,,,
,,,,,,,,,,,X V Q F H G B L J M P D K C T S W R N Z,61700969dd10e58154ad0448,18,Mężczyzna,2022-06-11_09h14.56.962,task,2021.1.4,Win32,60.09254252,6299f149e92ead563fba08ef,62a440e12e391c1df422f9b0,,,,,,,,,,,,,,,,,,,,,,,,,,,,,,,,,,,,,,,,,,,,,,,,,,,,,,,,,,,,,,,,,,,,,,,,,,,,1,0,1,0,1,,,,,,,,,,,,,,,,,,,,,
,,,,,,,,,,,,61700969dd10e58154ad0448,18,Mężczyzna,2022-06-11_09h14.56.962,task,2021.1.4,Win32,60.09254252,6299f149e92ead563fba08ef,62a440e12e391c1df422f9b0,,,,,,,,,,,,,4,,,,,,,,,,Task,4,(1x5) - 1,4,,,,,,,,,,,,,,,,,,,1,,,,,,,,,,,,,,,,,,,,,,,"[""4""]",1,0,0,0,3,1,[4.625499999999988],,,,,,,,,,,,,,,,,,,,,,,,,,
,,,,,,,,,,,X V Q F H G B L J M P D K C T S W R N Z,61700969dd10e58154ad0448,18,Mężczyzna,2022-06-11_09h14.56.962,task,2021.1.4,Win32,60.09254252,6299f149e92ead563fba08ef,62a440e12e391c1df422f9b0,,,,,,,,,,,,,,,,,,,,,,,,,,,,,,,,,,,,,,,,,,,,,,,,,,,,,,,,,,,,,,,,,,,,,,,,,,,,2,0,2,0,1,,,,,,,,,,,,,,,,,,,,,
,,,,,,,,,,,,61700969dd10e58154ad0448,18,Mężczyzna,2022-06-11_09h14.56.962,task,2021.1.4,Win32,60.09254252,6299f149e92ead563fba08ef,62a440e12e391c1df422f9b0,,,,,,,,,,,,,9,,,,,,,,,,Task,24,(2x2) + 5,9,,,,,,,,,,,,,,,,,,,1,,,,,,,,,,,,,,,,,,,,,,,"[""9""]",1,0,0,0,23,1,[3.9683999999984962],,,,,,,,,,,,,,,,,,,,,,,,,,
,,,,,,,,,,,X V Q F H G B L J M P D K C T S W R N Z,61700969dd10e58154ad0448,18,Mężczyzna,2022-06-11_09h14.56.962,task,2021.1.4,Win32,60.09254252,6299f149e92ead563fba08ef,62a440e12e391c1df422f9b0,,,,,,,,,,,,,,,,,,,,,,,,,,,,,,,,,,,,,,,,,,,,,,,,,,,,,,,,,,,,,,,,,,,,,,,,,,,,3,0,3,0,1,,,,,,,,,,,,,,,,,,,,,
,,,,,,,,,,,,61700969dd10e58154ad0448,18,Mężczyzna,2022-06-11_09h14.56.962,task,2021.1.4,Win32,60.09254252,6299f149e92ead563fba08ef,62a440e12e391c1df422f9b0,,,,,,,,,,,,,2,,,,,,,,,,Task,19,(6/2) - 1,2,,,,,,,,,,,,,,,,,,,1,,,,,,,,,,,,,,,,,,,,,,,"[""2""]",1,0,0,0,18,1,[3.9628999999985126],,,,,,,,,,,,,,,,,,,,,,,,,,
,,,,,,,,,,,X V Q F H G B L J M P D K C T S W R N Z,61700969dd10e58154ad0448,18,Mężczyzna,2022-06-11_09h14.56.962,task,2021.1.4,Win32,60.09254252,6299f149e92ead563fba08ef,62a440e12e391c1df422f9b0,,,,,,,,,,,,,,,,,,,,,,,,,,,,,,,,,,,,,,,,,,,,,,,,,,,,,,,,,,,,,,,,,,,,,,,,,,,,4,0,4,0,1,,,,,,,,,,,,,,,,,,,,,
,,,,,,,,,,,,61700969dd10e58154ad0448,18,Mężczyzna,2022-06-11_09h14.56.962,task,2021.1.4,Win32,60.09254252,6299f149e92ead563fba08ef,62a440e12e391c1df422f9b0,,,,,,,,,,,,,6,,,,,,,,,,Task,13,(3x4) - 6,6,,,,,,,,,,,,,,,,,,,1,,,,,,,,,,,,,,,,,,,,,,,"[""6""]",1,0,0,0,12,1,[5.415299999997046],,,,,,,,,,,,,,,,,,,,,,,,,,
,,,,,,,,,,,X V Q F H G B L J M P D K C T S W R N Z,61700969dd10e58154ad0448,18,Mężczyzna,2022-06-11_09h14.56.962,task,2021.1.4,Win32,60.09254252,6299f149e92ead563fba08ef,62a440e12e391c1df422f9b0,,,,,,,,,,,,,,,,,,,,,,,,,,,,,,,,,,,,,,,,,,,,,,,,,,,,,,,,,,,,,,,,,,,,,,,,,,,,5,0,5,0,1,,,,,,,,,,,,,,,,,,,,,
,,,,,,,,,,,,61700969dd10e58154ad0448,18,Mężczyzna,2022-06-11_09h14.56.962,task,2021.1.4,Win32,60.09254252,6299f149e92ead563fba08ef,62a440e12e391c1df422f9b0,,,,,,,,,,,,,,,,,,,,,,,,,,,,,,,,,,,,,,,,,,,,,,,,,,,,,,,,,,,,,,,,,,,,,,,,,,,,,,,,,vptvql,"[""v"",""p"",""t"",""v"",""q"",""l""]",0,"[2.5966000000014446,2.9641000000015083,3.2601000000014437,6.7176000000014255,7.0336000000014565,7.433600000001434,8.167399999998452]",1,VPTVQL,4,0,4,0,1,,,,,,,,,,
,,,,,,,,,,,,61700969dd10e58154ad0448,18,Mężczyzna,2022-06-11_09h14.56.962,task,2021.1.4,Win32,60.09254252,6299f149e92ead563fba08ef,62a440e12e391c1df422f9b0,,,,,,,,,,,,,3,,,,,,,,,,Task,20,(18/9) + 1,3,,,,,,,,,,,,,,,,,,,1,,,,,,,,,,,,,,,,,,,,,,,"[""3""]",1,0,0,0,19,1,[5.88149999999996],,,,,,,,,,,,,,,,,,,,,,,,,,
,,,,,,,,,,,X V Q F H G B L J M P D K C T S W R N Z,61700969dd10e58154ad0448,18,Mężczyzna,2022-06-11_09h14.56.962,task,2021.1.4,Win32,60.09254252,6299f149e92ead563fba08ef,62a440e12e391c1df422f9b0,,,,,,,,,,,,,,,,,,,,,,,,,,,,,,,,,,,,,,,,,,,,,,,,,,,,,,,,,,,,,,,,,,,,,,,,,,,,0,0,0,0,1,,,,,,,,,,,,,,,,,,,,,
,,,,,,,,,,,,61700969dd10e58154ad0448,18,Mężczyzna,2022-06-11_09h14.56.962,task,2021.1.4,Win32,60.09254252,6299f149e92ead563fba08ef,62a440e12e391c1df422f9b0,,,,,,,,,,,,,8,,,,,,,,,,Task,23,(2x3) + 2,8,,,,,,,,,,,,,,,,,,,1,,,,,,,,,,,,,,,,,,,,,,,"[""8""]",1,0,0,0,22,1,[3.9125000000000227],,,,,,,,,,,,,,,,,,,,,,,,,,
,,,,,,,,,,,X V Q F H G B L J M P D K C T S W R N Z,61700969dd10e58154ad0448,18,Mężczyzna,2022-06-11_09h14.56.962,task,2021.1.4,Win32,60.09254252,6299f149e92ead563fba08ef,62a440e12e391c1df422f9b0,,,,,,,,,,,,,,,,,,,,,,,,,,,,,,,,,,,,,,,,,,,,,,,,,,,,,,,,,,,,,,,,,,,,,,,,,,,,1,0,1,0,1,,,,,,,,,,,,,,,,,,,,,
,,,,,,,,,,,,61700969dd10e58154ad0448,18,Mężczyzna,2022-06-11_09h14.56.962,task,2021.1.4,Win32,60.09254252,6299f149e92ead563fba08ef,62a440e12e391c1df422f9b0,,,,,,,,,,,,,2,,,,,,,,,,Task,26,(2x9) - 16,2,,,,,,,,,,,,,,,,,,,1,,,,,,,,,,,,,,,,,,,,,,,"[""2""]",1,0,0,0,25,1,[3.4149999999999636],,,,,,,,,,,,,,,,,,,,,,,,,,
,,,,,,,,,,,X V Q F H G B L J M P D K C T S W R N Z,61700969dd10e58154ad0448,18,Mężczyzna,2022-06-11_09h14.56.962,task,2021.1.4,Win32,60.09254252,6299f149e92ead563fba08ef,62a440e12e391c1df422f9b0,,,,,,,,,,,,,,,,,,,,,,,,,,,,,,,,,,,,,,,,,,,,,,,,,,,,,,,,,,,,,,,,,,,,,,,,,,,,2,0,2,0,1,,,,,,,,,,,,,,,,,,,,,
,,,,,,,,,,,,61700969dd10e58154ad0448,18,Mężczyzna,2022-06-11_09h14.56.962,task,2021.1.4,Win32,60.09254252,6299f149e92ead563fba08ef,62a440e12e391c1df422f9b0,,,,,,,,,,,,,0,,,,,,,,,,Task,17,(2x3) - 6,0,,,,,,,,,,,,,,,,,,,1,,,,,,,,,,,,,,,,,,,,,,,"[""0""]",1,0,0,0,16,1,[2.447999999999979],,,,,,,,,,,,,,,,,,,,,,,,,,
,,,,,,,,,,,X V Q F H G B L J M P D K C T S W R N Z,61700969dd10e58154ad0448,18,Mężczyzna,2022-06-11_09h14.56.962,task,2021.1.4,Win32,60.09254252,6299f149e92ead563fba08ef,62a440e12e391c1df422f9b0,,,,,,,,,,,,,,,,,,,,,,,,,,,,,,,,,,,,,,,,,,,,,,,,,,,,,,,,,,,,,,,,,,,,,,,,,,,,3,0,3,0,1,,,,,,,,,,,,,,,,,,,,,
,,,,,,,,,,,,61700969dd10e58154ad0448,18,Mężczyzna,2022-06-11_09h14.56.962,task,2021.1.4,Win32,60.09254252,6299f149e92ead563fba08ef,62a440e12e391c1df422f9b0,,,,,,,,,,,,,9,,,,,,,,,,Task,40,(7x2) - 5,9,,,,,,,,,,,,,,,,,,,1,,,,,,,,,,,,,,,,,,,,,,,"[""9""]",1,0,0,0,39,1,[16.28010000000154],,,,,,,,,,,,,,,,,,,,,,,,,,
,,,,,,,,,,,X V Q F H G B L J M P D K C T S W R N Z,61700969dd10e58154ad0448,18,Mężczyzna,2022-06-11_09h14.56.962,task,2021.1.4,Win32,60.09254252,6299f149e92ead563fba08ef,62a440e12e391c1df422f9b0,,,,,,,,,,,,,,,,,,,,,,,,,,,,,,,,,,,,,,,,,,,,,,,,,,,,,,,,,,,,,,,,,,,,,,,,,,,,4,0,4,0,1,,,,,,,,,,,,,,,,,,,,,
,,,,,,,,,,,,61700969dd10e58154ad0448,18,Mężczyzna,2022-06-11_09h14.56.962,task,2021.1.4,Win32,60.09254252,6299f149e92ead563fba08ef,62a440e12e391c1df422f9b0,,,,,,,,,,,,,4,,,,,,,,,,Task,28,(2x5) - 6,4,,,,,,,,,,,,,,,,,,,1,,,,,,,,,,,,,,,,,,,,,,,"[""4""]",1,0,0,0,27,1,[5.669600000001424],,,,,,,,,,,,,,,,,,,,,,,,,,
,,,,,,,,,,,X V Q F H G B L J M P D K C T S W R N Z,61700969dd10e58154ad0448,18,Mężczyzna,2022-06-11_09h14.56.962,task,2021.1.4,Win32,60.09254252,6299f149e92ead563fba08ef,62a440e12e391c1df422f9b0,,,,,,,,,,,,,,,,,,,,,,,,,,,,,,,,,,,,,,,,,,,,,,,,,,,,,,,,,,,,,,,,,,,,,,,,,,,,5,0,5,0,1,,,,,,,,,,,,,,,,,,,,,
,,,,,,,,,,,,61700969dd10e58154ad0448,18,Mężczyzna,2022-06-11_09h14.56.962,task,2021.1.4,Win32,60.09254252,6299f149e92ead563fba08ef,62a440e12e391c1df422f9b0,,,,,,,,,,,,,0,,,,,,,,,,Task,33,(1/1) - 1,0,,,,,,,,,,,,,,,,,,,1,,,,,,,,,,,,,,,,,,,,,,,"[""0""]",1,0,0,0,32,1,[1.8471000000015465],,,,,,,,,,,,,,,,,,,,,,,,,,
,,,,,,,,,,,X V Q F H G B L J M P D K C T S W R N Z,61700969dd10e58154ad0448,18,Mężczyzna,2022-06-11_09h14.56.962,task,2021.1.4,Win32,60.09254252,6299f149e92ead563fba08ef,62a440e12e391c1df422f9b0,,,,,,,,,,,,,,,,,,,,,,,,,,,,,,,,,,,,,,,,,,,,,,,,,,,,,,,,,,,,,,,,,,,,,,,,,,,,6,0,6,0,1,,,,,,,,,,,,,,,,,,,,,
,,,,,,,,,,,,61700969dd10e58154ad0448,18,Mężczyzna,2022-06-11_09h14.56.962,task,2021.1.4,Win32,60.09254252,6299f149e92ead563fba08ef,62a440e12e391c1df422f9b0,,,,,,,,,,,,,,,,,,,,,,,,,,,,,,,,,,,,,,,,,,,,,,,,,,,,,,,,,,,,,,,,,,,,,,,,,,,,,,,,,rvjdnxt,"[""r"",""v"",""j"",""d"",""n"",""x"",""t""]",0,"[2.422399999998447,3.355000000000018,3.721899999998527,7.15489999999852,7.600500000000011,8.221699999995508,8.588499999999954,9.155399999998508]",1,RVJDNXT,5,0,5,0,1,,,,,,,,,,
,,,,,,,,,,,,61700969dd10e58154ad0448,18,Mężczyzna,2022-06-11_09h14.56.962,task,2021.1.4,Win32,60.09254252,6299f149e92ead563fba08ef,62a440e12e391c1df422f9b0,,,,,,,,,,,,,3,,,,,,,,,,Task,3,(2x3) - 3,3,,,,,,,,,,,,,,,,,,,1,,,,,,,,,,,,,,,,,,,,,,,"[""3""]",1,0,0,0,2,1,[6.5147000000030175],,,,,,,,,,,,,,,,,,,,,,,,,,
,,,,,,,,,,,X V Q F H G B L J M P D K C T S W R N Z,61700969dd10e58154ad0448,18,Mężczyzna,2022-06-11_09h14.56.962,task,2021.1.4,Win32,60.09254252,6299f149e92ead563fba08ef,62a440e12e391c1df422f9b0,,,,,,,,,,,,,,,,,,,,,,,,,,,,,,,,,,,,,,,,,,,,,,,,,,,,,,,,,,,,,,,,,,,,,,,,,,,,0,0,0,0,1,,,,,,,,,,,,,,,,,,,,,
,,,,,,,,,,,,61700969dd10e58154ad0448,18,Mężczyzna,2022-06-11_09h14.56.962,task,2021.1.4,Win32,60.09254252,6299f149e92ead563fba08ef,62a440e12e391c1df422f9b0,,,,,,,,,,,,,8,,,,,,,,,,Task,39,(5x3) - 7,8,,,,,,,,,,,,,,,,,,,1,,,,,,,,,,,,,,,,,,,,,,,"[""8""]",1,0,0,0,38,1,[9.613299999997025],,,,,,,,,,,,,,,,,,,,,,,,,,
,,,,,,,,,,,X V Q F H G B L J M P D K C T S W R N Z,61700969dd10e58154ad0448,18,Mężczyzna,2022-06-11_09h14.56.962,task,2021.1.4,Win32,60.09254252,6299f149e92ead563fba08ef,62a440e12e391c1df422f9b0,,,,,,,,,,,,,,,,,,,,,,,,,,,,,,,,,,,,,,,,,,,,,,,,,,,,,,,,,,,,,,,,,,,,,,,,,,,,1,0,1,0,1,,,,,,,,,,,,,,,,,,,,,
,,,,,,,,,,,,61700969dd10e58154ad0448,18,Mężczyzna,2022-06-11_09h14.56.962,task,2021.1.4,Win32,60.09254252,6299f149e92ead563fba08ef,62a440e12e391c1df422f9b0,,,,,,,,,,,,,1,,,,,,,,,,Task,9,(3x7) - 20,1,,,,,,,,,,,,,,,,,,,1,,,,,,,,,,,,,,,,,,,,,,,"[""1""]",1,0,0,0,8,1,[9.779999999999973],,,,,,,,,,,,,,,,,,,,,,,,,,
,,,,,,,,,,,X V Q F H G B L J M P D K C T S W R N Z,61700969dd10e58154ad0448,18,Mężczyzna,2022-06-11_09h14.56.962,task,2021.1.4,Win32,60.09254252,6299f149e92ead563fba08ef,62a440e12e391c1df422f9b0,,,,,,,,,,,,,,,,,,,,,,,,,,,,,,,,,,,,,,,,,,,,,,,,,,,,,,,,,,,,,,,,,,,,,,,,,,,,2,0,2,0,1,,,,,,,,,,,,,,,,,,,,,
,,,,,,,,,,,,61700969dd10e58154ad0448,18,Mężczyzna,2022-06-11_09h14.56.962,task,2021.1.4,Win32,60.09254252,6299f149e92ead563fba08ef,62a440e12e391c1df422f9b0,,,,,,,,,,,,,5,,,,,,,,,,Task,36,(8/4) + 3,5,,,,,,,,,,,,,,,,,,,1,,,,,,,,,,,,,,,,,,,,,,,"[""5""]",1,0,0,0,35,1,[3.547899999998549],,,,,,,,,,,,,,,,,,,,,,,,,,
,,,,,,,,,,,X V Q F H G B L J M P D K C T S W R N Z,61700969dd10e58154ad0448,18,Mężczyzna,2022-06-11_09h14.56.962,task,2021.1.4,Win32,60.09254252,6299f149e92ead563fba08ef,62a440e12e391c1df422f9b0,,,,,,,,,,,,,,,,,,,,,,,,,,,,,,,,,,,,,,,,,,,,,,,,,,,,,,,,,,,,,,,,,,,,,,,,,,,,3,0,3,0,1,,,,,,,,,,,,,,,,,,,,,
,,,,,,,,,,,,61700969dd10e58154ad0448,18,Mężczyzna,2022-06-11_09h14.56.962,task,2021.1.4,Win32,60.09254252,6299f149e92ead563fba08ef,62a440e12e391c1df422f9b0,,,,,,,,,,,,,0,,,,,,,,,,Task,33,(1/1) - 1,0,,,,,,,,,,,,,,,,,,,1,,,,,,,,,,,,,,,,,,,,,,,"[""0""]",1,0,0,0,32,1,[1.7131999999954814],,,,,,,,,,,,,,,,,,,,,,,,,,
,,,,,,,,,,,X V Q F H G B L J M P D K C T S W R N Z,61700969dd10e58154ad0448,18,Mężczyzna,2022-06-11_09h14.56.962,task,2021.1.4,Win32,60.09254252,6299f149e92ead563fba08ef,62a440e12e391c1df422f9b0,,,,,,,,,,,,,,,,,,,,,,,,,,,,,,,,,,,,,,,,,,,,,,,,,,,,,,,,,,,,,,,,,,,,,,,,,,,,4,0,4,0,1,,,,,,,,,,,,,,,,,,,,,
,,,,,,,,,,,,61700969dd10e58154ad0448,18,Mężczyzna,2022-06-11_09h14.56.962,task,2021.1.4,Win32,60.09254252,6299f149e92ead563fba08ef,62a440e12e391c1df422f9b0,,,,,,,,,,,,,8,,,,,,,,,,Task,39,(5x3) - 7,8,,,,,,,,,,,,,,,,,,,1,,,,,,,,,,,,,,,,,,,,,,,"[""8""]",1,0,0,0,38,1,[13.28910000000144],,,,,,,,,,,,,,,,,,,,,,,,,,
,,,,,,,,,,,X V Q F H G B L J M P D K C T S W R N Z,61700969dd10e58154ad0448,18,Mężczyzna,2022-06-11_09h14.56.962,task,2021.1.4,Win32,60.09254252,6299f149e92ead563fba08ef,62a440e12e391c1df422f9b0,,,,,,,,,,,,,,,,,,,,,,,,,,,,,,,,,,,,,,,,,,,,,,,,,,,,,,,,,,,,,,,,,,,,,,,,,,,,5,0,5,0,1,,,,,,,,,,,,,,,,,,,,,
,,,,,,,,,,,,61700969dd10e58154ad0448,18,Mężczyzna,2022-06-11_09h14.56.962,task,2021.1.4,Win32,60.09254252,6299f149e92ead563fba08ef,62a440e12e391c1df422f9b0,,,,,,,,,,,,,4,,,,,,,,,,Task,11,(18/3) - 2,4,,,,,,,,,,,,,,,,,,,1,,,,,,,,,,,,,,,,,,,,,,,"[""4""]",1,0,0,0,10,1,[12.111999999999966],,,,,,,,,,,,,,,,,,,,,,,,,,
,,,,,,,,,,,X V Q F H G B L J M P D K C T S W R N Z,61700969dd10e58154ad0448,18,Mężczyzna,2022-06-11_09h14.56.962,task,2021.1.4,Win32,60.09254252,6299f149e92ead563fba08ef,62a440e12e391c1df422f9b0,,,,,,,,,,,,,,,,,,,,,,,,,,,,,,,,,,,,,,,,,,,,,,,,,,,,,,,,,,,,,,,,,,,,,,,,,,,,6,0,6,0,1,,,,,,,,,,,,,,,,,,,,,
,,,,,,,,,,,,61700969dd10e58154ad0448,18,Mężczyzna,2022-06-11_09h14.56.962,task,2021.1.4,Win32,60.09254252,6299f149e92ead563fba08ef,62a440e12e391c1df422f9b0,,,,,,,,,,,,,1,,,,,,,,,,Task,9,(3x7) - 20,1,,,,,,,,,,,,,,,,,,,1,,,,,,,,,,,,,,,,,,,,,,,"[""1""]",1,0,0,0,8,1,[13.245999999999981],,,,,,,,,,,,,,,,,,,,,,,,,,
,,,,,,,,,,,X V Q F H G B L J M P D K C T S W R N Z,61700969dd10e58154ad0448,18,Mężczyzna,2022-06-11_09h14.56.962,task,2021.1.4,Win32,60.09254252,6299f149e92ead563fba08ef,62a440e12e391c1df422f9b0,,,,,,,,,,,,,,,,,,,,,,,,,,,,,,,,,,,,,,,,,,,,,,,,,,,,,,,,,,,,,,,,,,,,,,,,,,,,7,0,7,0,1,,,,,,,,,,,,,,,,,,,,,
,,,,,,,,,,,,61700969dd10e58154ad0448,18,Mężczyzna,2022-06-11_09h14.56.962,task,2021.1.4,Win32,60.09254252,6299f149e92ead563fba08ef,62a440e12e391c1df422f9b0,,,,,,,,,,,,,,,,,,,,,,,,,,,,,,,,,,,,,,,,,,,,,,,,,,,,,,,,,,,,,,,,,,,,,,,,,,,,,,,,,gjrhplq,"[""g"",""j"",""r"",""h"",""p"",""l"",""q""]",0,"[5.163400000005936,5.867800000004422,6.168100000001459,10.80310000000145,11.155100000001426,11.701700000002916,14.36290000000588,15.330800000004388]",0,GJRHPPLQ,6,0,6,0,1,,,,,,,,,,
,,,,,,,,,,,,61700969dd10e58154ad0448,18,Mężczyzna,2022-06-11_09h14.56.962,task,2021.1.4,Win32,60.09254252,6299f149e92ead563fba08ef,62a440e12e391c1df422f9b0,,,,,,,,,,,,,9,,,,,,,,,,Task,24,(2x2) + 5,9,,,,,,,,,,,,,,,,,,,1,,,,,,,,,,,,,,,,,,,,,,,"[""9""]",1,0,0,0,23,1,[4.836999999999989],,,,,,,,,,,,,,,,,,,,,,,,,,
,,,,,,,,,,,X V Q F H G B L J M P D K C T S W R N Z,61700969dd10e58154ad0448,18,Mężczyzna,2022-06-11_09h14.56.962,task,2021.1.4,Win32,60.09254252,6299f149e92ead563fba08ef,62a440e12e391c1df422f9b0,,,,,,,,,,,,,,,,,,,,,,,,,,,,,,,,,,,,,,,,,,,,,,,,,,,,,,,,,,,,,,,,,,,,,,,,,,,,0,0,0,0,1,,,,,,,,,,,,,,,,,,,,,
,,,,,,,,,,,,61700969dd10e58154ad0448,18,Mężczyzna,2022-06-11_09h14.56.962,task,2021.1.4,Win32,60.09254252,6299f149e92ead563fba08ef,62a440e12e391c1df422f9b0,,,,,,,,,,,,,7,,,,,,,,,,Task,6,(12/2) + 1,7,,,,,,,,,,,,,,,,,,,1,,,,,,,,,,,,,,,,,,,,,,,"[""7""]",1,0,0,0,5,1,[3.9961000000015474],,,,,,,,,,,,,,,,,,,,,,,,,,
,,,,,,,,,,,X V Q F H G B L J M P D K C T S W R N Z,61700969dd10e58154ad0448,18,Mężczyzna,2022-06-11_09h14.56.962,task,2021.1.4,Win32,60.09254252,6299f149e92ead563fba08ef,62a440e12e391c1df422f9b0,,,,,,,,,,,,,,,,,,,,,,,,,,,,,,,,,,,,,,,,,,,,,,,,,,,,,,,,,,,,,,,,,,,,,,,,,,,,1,0,1,0,1,,,,,,,,,,,,,,,,,,,,,
,,,,,,,,,,,,61700969dd10e58154ad0448,18,Mężczyzna,2022-06-11_09h14.56.962,task,2021.1.4,Win32,60.09254252,6299f149e92ead563fba08ef,62a440e12e391c1df422f9b0,,,,,,,,,,,,,5,,,,,,,,,,Task,29,(3x8) - 19 ,5,,,,,,,,,,,,,,,,,,,1,,,,,,,,,,,,,,,,,,,,,,,"[""5""]",1,0,0,0,28,1,[15.699500000000057],,,,,,,,,,,,,,,,,,,,,,,,,,
,,,,,,,,,,,X V Q F H G B L J M P D K C T S W R N Z,61700969dd10e58154ad0448,18,Mężczyzna,2022-06-11_09h14.56.962,task,2021.1.4,Win32,60.09254252,6299f149e92ead563fba08ef,62a440e12e391c1df422f9b0,,,,,,,,,,,,,,,,,,,,,,,,,,,,,,,,,,,,,,,,,,,,,,,,,,,,,,,,,,,,,,,,,,,,,,,,,,,,2,0,2,0,1,,,,,,,,,,,,,,,,,,,,,
,,,,,,,,,,,,61700969dd10e58154ad0448,18,Mężczyzna,2022-06-11_09h14.56.962,task,2021.1.4,Win32,60.09254252,6299f149e92ead563fba08ef,62a440e12e391c1df422f9b0,,,,,,,,,,,,,6,,,,,,,,,,Task,37,(3/3) + 5,6,,,,,,,,,,,,,,,,,,,1,,,,,,,,,,,,,,,,,,,,,,,"[""6""]",1,0,0,0,36,1,[6.073899999998503],,,,,,,,,,,,,,,,,,,,,,,,,,
,,,,,,,,,,,X V Q F H G B L J M P D K C T S W R N Z,61700969dd10e58154ad0448,18,Mężczyzna,2022-06-11_09h14.56.962,task,2021.1.4,Win32,60.09254252,6299f149e92ead563fba08ef,62a440e12e391c1df422f9b0,,,,,,,,,,,,,,,,,,,,,,,,,,,,,,,,,,,,,,,,,,,,,,,,,,,,,,,,,,,,,,,,,,,,,,,,,,,,3,0,3,0,1,,,,,,,,,,,,,,,,,,,,,
,,,,,,,,,,,,61700969dd10e58154ad0448,18,Mężczyzna,2022-06-11_09h14.56.962,task,2021.1.4,Win32,60.09254252,6299f149e92ead563fba08ef,62a440e12e391c1df422f9b0,,,,,,,,,,,,,3,,,,,,,,,,Task,3,(2x3) - 3,3,,,,,,,,,,,,,,,,,,,1,,,,,,,,,,,,,,,,,,,,,,,"[""3""]",1,0,0,0,2,1,[2.8808000000045695],,,,,,,,,,,,,,,,,,,,,,,,,,
,,,,,,,,,,,X V Q F H G B L J M P D K C T S W R N Z,61700969dd10e58154ad0448,18,Mężczyzna,2022-06-11_09h14.56.962,task,2021.1.4,Win32,60.09254252,6299f149e92ead563fba08ef,62a440e12e391c1df422f9b0,,,,,,,,,,,,,,,,,,,,,,,,,,,,,,,,,,,,,,,,,,,,,,,,,,,,,,,,,,,,,,,,,,,,,,,,,,,,4,0,4,0,1,,,,,,,,,,,,,,,,,,,,,
,,,,,,,,,,,,61700969dd10e58154ad0448,18,Mężczyzna,2022-06-11_09h14.56.962,task,2021.1.4,Win32,60.09254252,6299f149e92ead563fba08ef,62a440e12e391c1df422f9b0,,,,,,,,,,,,,4,,,,,,,,,,Task,11,(18/3) - 2,4,,,,,,,,,,,,,,,,,,,1,,,,,,,,,,,,,,,,,,,,,,,"[""4""]",1,0,0,0,10,1,[11.791199999995456],,,,,,,,,,,,,,,,,,,,,,,,,,
,,,,,,,,,,,X V Q F H G B L J M P D K C T S W R N Z,61700969dd10e58154ad0448,18,Mężczyzna,2022-06-11_09h14.56.962,task,2021.1.4,Win32,60.09254252,6299f149e92ead563fba08ef,62a440e12e391c1df422f9b0,,,,,,,,,,,,,,,,,,,,,,,,,,,,,,,,,,,,,,,,,,,,,,,,,,,,,,,,,,,,,,,,,,,,,,,,,,,,5,0,5,0,1,,,,,,,,,,,,,,,,,,,,,
,,,,,,,,,,,,61700969dd10e58154ad0448,18,Mężczyzna,2022-06-11_09h14.56.962,task,2021.1.4,Win32,60.09254252,6299f149e92ead563fba08ef,62a440e12e391c1df422f9b0,,,,,,,,,,,,,7,,,,,,,,,,Task,6,(12/2) + 1,7,,,,,,,,,,,,,,,,,,,1,,,,,,,,,,,,,,,,,,,,,,,"[""7""]",1,0,0,0,5,1,[6.083599999994021],,,,,,,,,,,,,,,,,,,,,,,,,,
,,,,,,,,,,,X V Q F H G B L J M P D K C T S W R N Z,61700969dd10e58154ad0448,18,Mężczyzna,2022-06-11_09h14.56.962,task,2021.1.4,Win32,60.09254252,6299f149e92ead563fba08ef,62a440e12e391c1df422f9b0,,,,,,,,,,,,,,,,,,,,,,,,,,,,,,,,,,,,,,,,,,,,,,,,,,,,,,,,,,,,,,,,,,,,,,,,,,,,6,0,6,0,1,,,,,,,,,,,,,,,,,,,,,
,,,,,,,,,,,,61700969dd10e58154ad0448,18,Mężczyzna,2022-06-11_09h14.56.962,task,2021.1.4,Win32,60.09254252,6299f149e92ead563fba08ef,62a440e12e391c1df422f9b0,,,,,,,,,,,,,2,,,,,,,,,,Task,19,(6/2) - 1,2,,,,,,,,,,,,,,,,,,,1,,,,,,,,,,,,,,,,,,,,,,,"[""2""]",1,0,0,0,18,1,[6.992899999998485],,,,,,,,,,,,,,,,,,,,,,,,,,
,,,,,,,,,,,X V Q F H G B L J M P D K C T S W R N Z,61700969dd10e58154ad0448,18,Mężczyzna,2022-06-11_09h14.56.962,task,2021.1.4,Win32,60.09254252,6299f149e92ead563fba08ef,62a440e12e391c1df422f9b0,,,,,,,,,,,,,,,,,,,,,,,,,,,,,,,,,,,,,,,,,,,,,,,,,,,,,,,,,,,,,,,,,,,,,,,,,,,,7,0,7,0,1,,,,,,,,,,,,,,,,,,,,,
,,,,,,,,,,,,61700969dd10e58154ad0448,18,Mężczyzna,2022-06-11_09h14.56.962,task,2021.1.4,Win32,60.09254252,6299f149e92ead563fba08ef,62a440e12e391c1df422f9b0,,,,,,,,,,,,,,,,,,,,,,,,,,,,,,,,,,,,,,,,,,,,,,,,,,,,,,,,,,,,,,,,,,,,,,,,,,,,,,,,,jffszpp,"[""j"",""f"",""f"",""s"",""z"",""p"",""p""]",0,"[3.2671000000015056,3.608600000001502,4.667100000001483,6.728699999995456,6.9998999999984335,8.084199999995462,8.304299999996942,13.867799999997033]",0,JFFSDZPP,7,0,7,0,1,,,,,,,,,,
,,,,,,,,,,,,61700969dd10e58154ad0448,18,Mężczyzna,2022-06-11_09h14.56.962,task,2021.1.4,Win32,60.09254252,6299f149e92ead563fba08ef,62a440e12e391c1df422f9b0,,,,,,,,,,,,,,,,,,,,,,,,,,,,,,,,,,,,,,,,,,,,,,,,,,,,,,,,,,,,,,,,,,,,,,,,,,,,,,,,,,,,,,,,,,,,"[""comma""]",0,[1.7281999999955815],0,0,0,0,1,,
,,,,,,,,,,,,61700969dd10e58154ad0448,18,Mężczyzna,2022-06-11_09h14.56.962,task,2021.1.4,Win32,60.09254252,6299f149e92ead563fba08ef,62a440e12e391c1df422f9b0,,,,,,,,,,,,,,,,,,,,,,,,,,,,,,,,,,,,,,,,,,,,,,,,,,,,,,,,,,,,,,,,,,,,,,,,,,,,,,,,,,,,,,,,,,,,"[""period""]",0,[1.4936000000014928],1,0,1,0,1,,
,,,,,,,,,,,,61700969dd10e58154ad0448,18,Mężczyzna,2022-06-11_09h14.56.962,task,2021.1.4,Win32,60.09254252,6299f149e92ead563fba08ef,62a440e12e391c1df422f9b0,,,,,,,,,,,,,,,,,,,,,,,,,,,,,,,,,,,,,,,,,,,,,,,,,,,,,,,,,,,,,,,,,,,,,,,,,,,,,,,,,,,,,,,,,,,,"[""comma""]",0,[1.6857999999970161],2,0,2,0,1,,
,,,,,,,,,,,,61700969dd10e58154ad0448,18,Mężczyzna,2022-06-11_09h14.56.962,task,2021.1.4,Win32,60.09254252,6299f149e92ead563fba08ef,62a440e12e391c1df422f9b0,,,,,,,,,,,,,,,,,,,,,,,,,,,,,,,,,,,,,,,,,,,,,,,,,,,,,,,,,,,,,,,,,,,,,,,,,,,,,,,,,,,,,,,,,,,,"[""period""]",0,[1.3358999999984462],3,0,3,0,1,,
,,,,,,,,,,,,61700969dd10e58154ad0448,18,Mężczyzna,2022-06-11_09h14.56.962,task,2021.1.4,Win32,60.09254252,6299f149e92ead563fba08ef,62a440e12e391c1df422f9b0,,,,,,,,,,,,,,,,,,,,,,,,,,,,,,,,,,,,,,,,,,,,,,,,,,,,,,,,,,,,,,,,,,,,,,,,,,,,,,,,,,,,,,,,,,,,"[""period""]",0,[1.438100000001441],4,0,4,0,1,,
,,,,,,,,,,,,61700969dd10e58154ad0448,18,Mężczyzna,2022-06-11_09h14.56.962,task,2021.1.4,Win32,60.09254252,6299f149e92ead563fba08ef,62a440e12e391c1df422f9b0,,,,,,,,,,,,,,,,,,,,,,,,,,,,,,,,,,,,,,,,,,,,,,,,,,,,,,,,,,,,,,,,,,,,,,,,,,,,,,,,,,,,,,,,,,,,"[""comma""]",0,[1.1827999999969734],5,0,5,0,1,,
,,,,,,,,,,,,61700969dd10e58154ad0448,18,Mężczyzna,2022-06-11_09h14.56.962,task,2021.1.4,Win32,60.09254252,6299f149e92ead563fba08ef,62a440e12e391c1df422f9b0,,,,,,,,,,,,,,,,,,,,,,,,,,,,,,,,,,,,,,,,,,,,,,,,,,,,,,,,,,,,,,,,,,,,,,,,,,,,,,,,,,,,,,,,,,,,"[""period""]",0,[1.2163999999984298],6,0,6,0,1,,
,,,,,,,,,,,,61700969dd10e58154ad0448,18,Mężczyzna,2022-06-11_09h14.56.962,task,2021.1.4,Win32,60.09254252,6299f149e92ead563fba08ef,62a440e12e391c1df422f9b0,,,,,,,,,,,,,,,,,,,,,,,,,,,,,,,,,,,,,,,,,,,,,,,,,,,,,,,,,,,,,,,,,,,,,,,,,,,,,,,,,,,,,,,,,,,,"[""comma""]",0,[1.0494000000057895],7,0,7,0,1,,
,,,,,,,,,,,,61700969dd10e58154ad0448,18,Mężczyzna,2022-06-11_09h14.56.962,task,2021.1.4,Win32,60.09254252,6299f149e92ead563fba08ef,62a440e12e391c1df422f9b0,,,,,,,,,,,,,,,,,,,,,,,,,,,,,,,,,,,,,,,,,,,,,,,,,,,,,,,,,,,,,,,,,,,,,,,,,,,,,,,,,,,,,,,,,,,,"[""comma""]",0,[1.1672000000030494],8,0,8,0,1,,
,,,,,,,,,,,,61700969dd10e58154ad0448,18,Mężczyzna,2022-06-11_09h14.56.962,task,2021.1.4,Win32,60.09254252,6299f149e92ead563fba08ef,62a440e12e391c1df422f9b0,,,,,,,,,,,,,,,,,,,,,,,,,,,,,,,,,,,,,,,,,,,,,,,,,,,,,,,,,,,,,,,,,,,,,,,,,,,,,,,,,,,,,,,,,,,,"[""period""]",0,[1.0832999999970525],9,0,9,0,1,,
,,,,,,,,,,,,61700969dd10e58154ad0448,18,Mężczyzna,2022-06-11_09h14.56.962,task,2021.1.4,Win32,60.09254252,6299f149e92ead563fba08ef,62a440e12e391c1df422f9b0,,,,,,,,,,,,,,,,,,,,,,,,,,,,,,,,,,,,,,,,,,,,,,,,,,,,,,,,,,,,,,,,,,,,,,,,,,,,,,,,,,,,,,,,,,,,"[""period""]",0,[1.1503000000045631],10,0,10,0,1,,
,,,,,,,,,,,,61700969dd10e58154ad0448,18,Mężczyzna,2022-06-11_09h14.56.962,task,2021.1.4,Win32,60.09254252,6299f149e92ead563fba08ef,62a440e12e391c1df422f9b0,,,,,,,,,,,,,,,,,,,,,,,,,,,,,,,,,,,,,,,,,,,,,,,,,,,,,,,,,,,,,,,,,,,,,,,,,,,,,,,,,,,,,,,,,,,,"[""period""]",0,[1.0169000000057622],11,0,11,0,1,,
,,,,,,,,,,,,61700969dd10e58154ad0448,18,Mężczyzna,2022-06-11_09h14.56.962,task,2021.1.4,Win32,60.09254252,6299f149e92ead563fba08ef,62a440e12e391c1df422f9b0,,,,,,,,,,,,,,,,,,,,,,,,,,,,,,,,,,,,,,,,,,,,,,,,,,,,,,,,,,,,,,,,,,,,,,,,,,,,,,,,,,,,,,,,,,,,"[""comma""]",0,[0.9333000000044649],12,0,12,0,1,,
,,,,,,,,,,,,61700969dd10e58154ad0448,18,Mężczyzna,2022-06-11_09h14.56.962,task,2021.1.4,Win32,60.09254252,6299f149e92ead563fba08ef,62a440e12e391c1df422f9b0,,,,,,,,,,,,,,,,,,,,,,,,,,,,,,,,,,,,,,,,,,,,,,,,,,,,,,,,,,,,,,,,,,,,,,,,,,,,,,,,,,,,,,,,,,,,"[""period""]",0,[1.1496000000015556],13,0,13,0,1,,
,,,,,,,,,,,,61700969dd10e58154ad0448,18,Mężczyzna,2022-06-11_09h14.56.962,task,2021.1.4,Win32,60.09254252,6299f149e92ead563fba08ef,62a440e12e391c1df422f9b0,,,,,,,,,,,,,,,,,,,,,,,,,,,,,,,,,,,,,,,,,,,,,,,,,,,,,,,,,,,,,,,,,,,,,,,,,,,,,,,,,,,,,,,,,,,,"[""comma""]",0,[1.135699999995495],14,0,14,0,1,,
,,,,,,,,,,,,61700969dd10e58154ad0448,18,Mężczyzna,2022-06-11_09h14.56.962,task,2021.1.4,Win32,60.09254252,6299f149e92ead563fba08ef,62a440e12e391c1df422f9b0,,,,,,,,,,,,,,,,,,,,,,,,,,,,,,,,,,,,,,,,,,,,,,,,,,,,,,,,,,,,,,,,,,,,,,,,,,,,,,,,,,,,,,,,,,,,"[""comma""]",0,[1.2000000000000455],15,0,15,0,1,,
,,,,,,,,,,,,61700969dd10e58154ad0448,18,Mężczyzna,2022-06-11_09h14.56.962,task,2021.1.4,Win32,60.09254252,6299f149e92ead563fba08ef,62a440e12e391c1df422f9b0,,,,,,,,,,,,,,,,,,,,,,,,,,,,,,,,,,,,,,,,,,,,,,,,,,,,,,,,,,,,,,,,,,,,,,,,,,,,,,,,,,,,,,,,,,,,"[""comma""]",0,[1.266799999997147],16,0,16,0,1,,
,,,,,,,,,,,,61700969dd10e58154ad0448,18,Mężczyzna,2022-06-11_09h14.56.962,task,2021.1.4,Win32,60.09254252,6299f149e92ead563fba08ef,62a440e12e391c1df422f9b0,,,,,,,,,,,,,,,,,,,,,,,,,,,,,,,,,,,,,,,,,,,,,,,,,,,,,,,,,,,,,,,,,,,,,,,,,,,,,,,,,,,,,,,,,,,,"[""period""]",0,[1.1169999999999618],17,0,17,0,1,,
,,,,,,,,,,,,61700969dd10e58154ad0448,18,Mężczyzna,2022-06-11_09h14.56.962,task,2021.1.4,Win32,60.09254252,6299f149e92ead563fba08ef,62a440e12e391c1df422f9b0,,,,,,,,,,,,,,,,,,,,,,,,,,,,,,,,,,,,,,,,,,,,,,,,,,,,,,,,,,,,,,,,,,,,,,,,,,,,,,,,,,,,,,,,,,,,"[""comma""]",0,[1.1663000000044121],18,0,18,0,1,,
,,,,,,,,,,,,61700969dd10e58154ad0448,18,Mężczyzna,2022-06-11_09h14.56.962,task,2021.1.4,Win32,60.09254252,6299f149e92ead563fba08ef,62a440e12e391c1df422f9b0,,,,,,,,,,,,,,,,,,,,,,,,,,,,,,,,,,,,,,,,,,,,,,,,,,,,,,,,,,,,,,,,,,,,,,,,,,,,,,,,,,,,,,,,,,,,"[""period""]",0,[1.083799999996927],19,0,19,0,1,,
,,,,,,,,,,,,61700969dd10e58154ad0448,18,Mężczyzna,2022-06-11_09h14.56.962,task,2021.1.4,Win32,60.09254252,6299f149e92ead563fba08ef,62a440e12e391c1df422f9b0,,,,,,,,,,,,,,,,,,,,,,,,,,,,,,,,,,,,,,,,,,,,,,,,,,,,,,,,,,,,,,,,,,,,,,,,,,,,,,,,,,,,,,,,,,,,"[""comma""]",0,[1.0833999999983916],20,0,20,0,1,,
,,,,,,,,,,,,61700969dd10e58154ad0448,18,Mężczyzna,2022-06-11_09h14.56.962,task,2021.1.4,Win32,60.09254252,6299f149e92ead563fba08ef,62a440e12e391c1df422f9b0,,,,,,,,,,,,,,,,,,,,,,,,,,,,,,,,,,,,,,,,,,,,,,,,,,,,,,,,,,,,,,,,,,,,,,,,,,,,,,,,,,,,,,,,,,,,"[""period""]",0,[1.0834999999999582],21,0,21,0,1,,
,,,,,,,,,,,,61700969dd10e58154ad0448,18,Mężczyzna,2022-06-11_09h14.56.962,task,2021.1.4,Win32,60.09254252,6299f149e92ead563fba08ef,62a440e12e391c1df422f9b0,,,,,,,,,,,,,,,,,,,,,,,,,,,,,,,,,,,,,,,,,,,,,,,,,,,,,,,,,,,,,,,,,,,,,,,,,,,,,,,,,,,,,,,,,,,,"[""comma""]",0,[1.175100000001521],22,0,22,0,1,,
,,,,,,,,,,,,61700969dd10e58154ad0448,18,Mężczyzna,2022-06-11_09h14.56.962,task,2021.1.4,Win32,60.09254252,6299f149e92ead563fba08ef,62a440e12e391c1df422f9b0,,,,,,,,,,,,,,,,,,,,,,,,,,,,,,,,,,,,,,,,,,,,,,,,,,,,,,,,,,,,,,,,,,,,,,,,,,,,,,,,,,,,,,,,,,,,"[""period""]",0,[1.0997999999970034],23,0,23,0,1,,
,,,,,,,,,,,,61700969dd10e58154ad0448,18,Mężczyzna,2022-06-11_09h14.56.962,task,2021.1.4,Win32,60.09254252,6299f149e92ead563fba08ef,62a440e12e391c1df422f9b0,,,,,,,,,,,,,,,,,,,,,,,,,,,,,,,,,,,,,,,,,,,,,,,,,,,,,,,,,,,,,,,,,,,,,,,,,,,,,,,,,,,,,,,,,,,,"[""comma""]",0,[1.086999999999989],24,0,24,0,1,,
,,,,,,,,,,,,61700969dd10e58154ad0448,18,Mężczyzna,2022-06-11_09h14.56.962,task,2021.1.4,Win32,60.09254252,6299f149e92ead563fba08ef,62a440e12e391c1df422f9b0,,,,,,,,,,,,,,,,,,,,,,,,,,,,,,,,,,,,,,,,,,,,,,,,,,,,,,,,,,,,,,,,,,,,,,,,,,,,,,,,,,,,,,,,,,,,"[""period""]",0,[1.083199999995486],25,0,25,0,1,,
,,,,,,,,,,,,61700969dd10e58154ad0448,18,Mężczyzna,2022-06-11_09h14.56.962,task,2021.1.4,Win32,60.09254252,6299f149e92ead563fba08ef,62a440e12e391c1df422f9b0,,,,,,,,,,,,,,,,,,,,,,,,,,,,,,,,,,,,,,,,,,,,,,,,,,,,,,,,,,,,,,,,,,,,,,,,,,,,,,,,,,,,,,,,,,,,"[""comma""]",0,[1.182799999997087],26,0,26,0,1,,
,,,,,,,,,,,,61700969dd10e58154ad0448,18,Mężczyzna,2022-06-11_09h14.56.962,task,2021.1.4,Win32,60.09254252,6299f149e92ead563fba08ef,62a440e12e391c1df422f9b0,,,,,,,,,,,,,,,,,,,,,,,,,,,,,,,,,,,,,,,,,,,,,,,,,,,,,,,,,,,,,,,,,,,,,,,,,,,,,,,,,,,,,,,,,,,,"[""period""]",0,[1.1263000000044485],27,0,27,0,1,,
,,,,,,,,,,,,61700969dd10e58154ad0448,18,Mężczyzna,2022-06-11_09h14.56.962,task,2021.1.4,Win32,60.09254252,6299f149e92ead563fba08ef,62a440e12e391c1df422f9b0,,,,,,,,,,,,,,,,,,,,,,,,,,,,,,,,,,,,,,,,,,,,,,,,,,,,,,,,,,,,,,,,,,,,,,,,,,,,,,,,,,,,,,,,,,,,"[""comma""]",0,[1.100500000000011],28,0,28,0,1,,
,,,,,,,,,,,,61700969dd10e58154ad0448,18,Mężczyzna,2022-06-11_09h14.56.962,task,2021.1.4,Win32,60.09254252,6299f149e92ead563fba08ef,62a440e12e391c1df422f9b0,,,,,,,,,,,,,,,,,,,,,,,,,,,,,,,,,,,,,,,,,,,,,,,,,,,,,,,,,,,,,,,,,,,,,,,,,,,,,,,,,,,,,,,,,,,,"[""comma""]",0,[1.1997999999969124],29,0,29,0,1,,
,,,,,,,,,,,,61700969dd10e58154ad0448,18,Mężczyzna,2022-06-11_09h14.56.962,task,2021.1.4,Win32,60.09254252,6299f149e92ead563fba08ef,62a440e12e391c1df422f9b0,,,,,,,,,,,,,,,,,,,,,,,,,,,,,,,,,,,,,,,,,,,,,,,,,,,,,,,,,,,,,,,,,,,,,,,,,,,,,,,,,,,,,,,,,,,,"[""period""]",0,[1.1658999999986008],30,0,30,0,1,,
,,,,,,,,,,,,61700969dd10e58154ad0448,18,Mężczyzna,2022-06-11_09h14.56.962,task,2021.1.4,Win32,60.09254252,6299f149e92ead563fba08ef,62a440e12e391c1df422f9b0,,,,,,,,,,,,,,,,,,,,,,,,,,,,,,,,,,,,,,,,,,,,,,,,,,,,,,,,,,,,,,,,,,,,,,,,,,,,,,,,,,,,,,,,,,,,"[""comma""]",0,[1.0999000000060732],31,0,31,0,1,,
,,,,,,,,,,,,61700969dd10e58154ad0448,18,Mężczyzna,2022-06-11_09h14.56.962,task,2021.1.4,Win32,60.09254252,6299f149e92ead563fba08ef,62a440e12e391c1df422f9b0,,,,,,,,,,,,,,,,,,,,,,,,,,,,,,,,,,,,,,,,,,,,,,,,,,,,,,,,,,,,,,,,,,,,,,,,,,,,,,,,,,,,,,,,,,,,"[""comma""]",0,[1.2304000000060569],32,0,32,0,1,,
,,,,,,,,,,,,61700969dd10e58154ad0448,18,Mężczyzna,2022-06-11_09h14.56.962,task,2021.1.4,Win32,60.09254252,6299f149e92ead563fba08ef,62a440e12e391c1df422f9b0,,,,,,,,,,,,,,,,,,,,,,,,,,,,,,,,,,,,,,,,,,,,,,,,,,,,,,,,,,,,,,,,,,,,,,,,,,,,,,,,,,,,,,,,,,,,"[""comma""]",0,[1.150399999998399],33,0,33,0,1,,
,,,,,,,,,,,,61700969dd10e58154ad0448,18,Mężczyzna,2022-06-11_09h14.56.962,task,2021.1.4,Win32,60.09254252,6299f149e92ead563fba08ef,62a440e12e391c1df422f9b0,,,,,,,,,,,,,,,,,,,,,,,,,,,,,,,,,,,,,,,,,,,,,,,,,,,,,,,,,,,,,,,,,,,,,,,,,,,,,,,,,,,,,,,,,,,,"[""period""]",0,[0.9590999999938958],34,0,34,0,1,,
,,,,,,,,,,,,61700969dd10e58154ad0448,18,Mężczyzna,2022-06-11_09h14.56.962,task,2021.1.4,Win32,60.09254252,6299f149e92ead563fba08ef,62a440e12e391c1df422f9b0,,,,,,,,,,,,,,,,,,,,,,,,,,,,,,,,,,,,,,,,,,,,,,,,,,,,,,,,,,,,,,,,,,,,,,,,,,,,,,,,,,,,,,,,,,,,"[""comma""]",0,[1.1188999999985754],35,0,35,0,1,,
,,,,,,,,,,,,61700969dd10e58154ad0448,18,Mężczyzna,2022-06-11_09h14.56.962,task,2021.1.4,Win32,60.09254252,6299f149e92ead563fba08ef,62a440e12e391c1df422f9b0,,,,,,,,,,,,,,,,,,,,,,,,,,,,,,,,,,,,,,,,,,,,,,,,,,,,,,,,,,,,,,,,,,,,,,,,,,,,,,,,,,,,,,,,,,,,"[""comma""]",0,[1.0667999999968742],36,0,36,0,1,,
,,,,,,,,,,,,61700969dd10e58154ad0448,18,Mężczyzna,2022-06-11_09h14.56.962,task,2021.1.4,Win32,60.09254252,6299f149e92ead563fba08ef,62a440e12e391c1df422f9b0,,,,,,,,,,,,,,,,,,,,,,,,,,,,,,,,,,,,,,,,,,,,,,,,,,,,,,,,,,,,,,,,,,,,,,,,,,,,,,,,,,,,,,,,,,,,"[""period""]",0,[1.1272999999969215],37,0,37,0,1,,
,,,,,,,,,,,,61700969dd10e58154ad0448,18,Mężczyzna,2022-06-11_09h14.56.962,task,2021.1.4,Win32,60.09254252,6299f149e92ead563fba08ef,62a440e12e391c1df422f9b0,,,,,,,,,,,,,,,,,,,,,,,,,,,,,,,,,,,,,,,,,,,,,,,,,,,,,,,,,,,,,,,,,,,,,,,,,,,,,,,,,,,,,,,,,,,,"[""comma""]",0,[1.1336999999955424],38,0,38,0,1,,
,,,,,,,,,,,,61700969dd10e58154ad0448,18,Mężczyzna,2022-06-11_09h14.56.962,task,2021.1.4,Win32,60.09254252,6299f149e92ead563fba08ef,62a440e12e391c1df422f9b0,,,,,,,,,,,,,,,,,,,,,,,,,,,,,,,,,,,,,,,,,,,,,,,,,,,,,,,,,,,,,,,,,,,,,,,,,,,,,,,,,,,,,,,,,,,,"[""period""]",0,[1.0992999999969015],39,0,39,0,1,,
,,,,,,,,,,,,61700969dd10e58154ad0448,18,Mężczyzna,2022-06-11_09h14.56.962,task,2021.1.4,Win32,60.09254252,6299f149e92ead563fba08ef,62a440e12e391c1df422f9b0,,,,,,,,,,,,,,,,,,,,,,,,,,,,,,,,,,,,,,,,,,,,,,,,,,,,,,,,,,,,,,,,,,,,,,,,,,,,,,,,,,,,,,,,,,,,"[""comma""]",0,[0.9600000000000364],40,0,40,0,1,,
,,,,,,,,,,,,61700969dd10e58154ad0448,18,Mężczyzna,2022-06-11_09h14.56.962,task,2021.1.4,Win32,60.09254252,6299f149e92ead563fba08ef,62a440e12e391c1df422f9b0,,,,,,,,,,,,,,,,,,,,,,,,,,,,,,,,,,,,,,,,,,,,,,,,,,,,,,,,,,,,,,,,,,,,,,,,,,,,,,,,,,,,,,,,,,,,"[""comma""]",0,[1.066600000001472],41,0,41,0,1,,
,,,,,,,,,,,,61700969dd10e58154ad0448,18,Mężczyzna,2022-06-11_09h14.56.962,task,2021.1.4,Win32,60.09254252,6299f149e92ead563fba08ef,62a440e12e391c1df422f9b0,,,,,,,,,,,,,,,,,,,,,,,,,,,,,,,,,,,,,,,,,,,,,,,,,,,,,,,,,,,,,,,,,,,,,,,,,,,,,,,,,,,,,,,,,,,,"[""period""]",0,[1.0389999999999873],42,0,42,0,1,,
,,,,,,,,,,,,61700969dd10e58154ad0448,18,Mężczyzna,2022-06-11_09h14.56.962,task,2021.1.4,Win32,60.09254252,6299f149e92ead563fba08ef,62a440e12e391c1df422f9b0,,,,,,,,,,,,,,,,,,,,,,,,,,,,,,,,,,,,,,,,,,,,,,,,,,,,,,,,,,,,,,,,,,,,,,,,,,,,,,,,,,,,,,,,,,,,"[""period""]",0,[1.0667000000030384],43,0,43,0,1,,
,,,,,,,,,,,,61700969dd10e58154ad0448,18,Mężczyzna,2022-06-11_09h14.56.962,task,2021.1.4,Win32,60.09254252,6299f149e92ead563fba08ef,62a440e12e391c1df422f9b0,,,,,,,,,,,,,,,,,,,,,,,,,,,,,,,,,,,,,,,,,,,,,,,,,,,,,,,,,,,,,,,,,,,,,,,,,,,,,,,,,,,,,,,,,,,,"[""comma""]",0,[1.1171000000015283],44,0,44,0,1,,
,,,,,,,,,,,,61700969dd10e58154ad0448,18,Mężczyzna,2022-06-11_09h14.56.962,task,2021.1.4,Win32,60.09254252,6299f149e92ead563fba08ef,62a440e12e391c1df422f9b0,,,,,,,,,,,,,,,,,,,,,,,,,,,,,,,,,,,,,,,,,,,,,,,,,,,,,,,,,,,,,,,,,,,,,,,,,,,,,,,,,,,,,,,,,,,,"[""comma""]",0,[1.1353999999985263],45,0,45,0,1,,
,,,,,,,,,,,,61700969dd10e58154ad0448,18,Mężczyzna,2022-06-11_09h14.56.962,task,2021.1.4,Win32,60.09254252,6299f149e92ead563fba08ef,62a440e12e391c1df422f9b0,,,,,,,,,,,,,,,,,,,,,,,,,,,,,,,,,,,,,,,,,,,,,,,,,,,,,,,,,,,,,,,,,,,,,,,,,,,,,,,,,,,,,,,,,,,,"[""period""]",0,[1.0800999999942178],46,0,46,0,1,,
,,,,,,,,,,,,61700969dd10e58154ad0448,18,Mężczyzna,2022-06-11_09h14.56.962,task,2021.1.4,Win32,60.09254252,6299f149e92ead563fba08ef,62a440e12e391c1df422f9b0,,,,,,,,,,,,,,,,,,,,,,,,,,,,,,,,,,,,,,,,,,,,,,,,,,,,,,,,,,,,,,,,,,,,,,,,,,,,,,,,,,,,,,,,,,,,"[""period""]",0,[1.1678000000044904],47,0,47,0,1,,
,,,,,,,,,,,,61700969dd10e58154ad0448,18,Mężczyzna,2022-06-11_09h14.56.962,task,2021.1.4,Win32,60.09254252,6299f149e92ead563fba08ef,62a440e12e391c1df422f9b0,,,,,,,,,,,,,,,,,,,,,,,,,,,,,,,,,,,,,,,,,,,,,,,,,,,,,,,,,,,,,,,,,,,,,,,,,,,,,,,,,,,,,,,,,,,,"[""comma""]",0,[1.099999999999909],48,0,48,0,1,,
,,,,,,,,,,,,61700969dd10e58154ad0448,18,Mężczyzna,2022-06-11_09h14.56.962,task,2021.1.4,Win32,60.09254252,6299f149e92ead563fba08ef,62a440e12e391c1df422f9b0,,,,,,,,,,,,,,,,,,,,,,,,,,,,,,,,,,,,,,,,,,,,,,,,,,,,,,,,,,,,,,,,,,,,,,,,,,,,,,,,,,,,,,,,,,,,"[""comma""]",0,[1.1002999999971053],49,0,49,0,1,,
,,,,,,,,,,,,61700969dd10e58154ad0448,18,Mężczyzna,2022-06-11_09h14.56.962,task,2021.1.4,Win32,60.09254252,6299f149e92ead563fba08ef,62a440e12e391c1df422f9b0,,,,,,,,,,,,,,,,,,,,,,,,,,,,,,,,,,,,,,,,,,,,,,,,,,,,,,,,,,,,,,,,,,,,,,,,,,,,,,,,,,,,,,,,,,,,"[""period""]",0,[0.992300000004434],50,0,50,0,1,,
,,,,,,,,,,,,61700969dd10e58154ad0448,18,Mężczyzna,2022-06-11_09h14.56.962,task,2021.1.4,Win32,60.09254252,6299f149e92ead563fba08ef,62a440e12e391c1df422f9b0,,,,,,,,,,,,,,,,,,,,,,,,,,,,,,,,,,,,,,,,,,,,,,,,,,,,,,,,,,,,,,,,,,,,,,,,,,,,,,,,,,,,,,,,,,,,"[""period""]",0,[1.0499999999999545],51,0,51,0,1,,
,,,,,,,,,,,,61700969dd10e58154ad0448,18,Mężczyzna,2022-06-11_09h14.56.962,task,2021.1.4,Win32,60.09254252,6299f149e92ead563fba08ef,62a440e12e391c1df422f9b0,,,,,,,,,,,,,,,,,,,,,,,,,,,,,,,,,,,,,,,,,,,,,,,,,,,,,,,,,,,,,,,,,,,,,,,,,,,,,,,,,,,,,,,,,,,,"[""comma""]",0,[1.056399999998348],52,0,52,0,1,,
,,,,,,,,,,,,61700969dd10e58154ad0448,18,Mężczyzna,2022-06-11_09h14.56.962,task,2021.1.4,Win32,60.09254252,6299f149e92ead563fba08ef,62a440e12e391c1df422f9b0,,,,,,,,,,,,,,,,,,,,,,,,,,,,,,,,,,,,,,,,,,,,,,,,,,,,,,,,,,,,,,,,,,,,,,,,,,,,,,,,,,,,,,,,,,,,"[""comma""]",0,[1.1006000000015774],53,0,53,0,1,,
,,,,,,,,,,,,61700969dd10e58154ad0448,18,Mężczyzna,2022-06-11_09h14.56.962,task,2021.1.4,Win32,60.09254252,6299f149e92ead563fba08ef,62a440e12e391c1df422f9b0,,,,,,,,,,,,,,,,,,,,,,,,,,,,,,,,,,,,,,,,,,,,,,,,,,,,,,,,,,,,,,,,,,,,,,,,,,,,,,,,,,,,,,,,,,,,"[""period""]",0,[1.2078999999985172],54,0,54,0,1,,
,,,,,,,,,,,,61700969dd10e58154ad0448,18,Mężczyzna,2022-06-11_09h14.56.962,task,2021.1.4,Win32,60.09254252,6299f149e92ead563fba08ef,62a440e12e391c1df422f9b0,,,,,,,,,,,,,,,,,,,,,,,,,,,,,,,,,,,,,,,,,,,,,,,,,,,,,,,,,,,,,,,,,,,,,,,,,,,,,,,,,,,,,,,,,,,,"[""comma""]",0,[1.1001999999955387],55,0,55,0,1,,
,,,,,,,,,,,,61700969dd10e58154ad0448,18,Mężczyzna,2022-06-11_09h14.56.962,task,2021.1.4,Win32,60.09254252,6299f149e92ead563fba08ef,62a440e12e391c1df422f9b0,,,,,,,,,,,,,,,,,,,,,,,,,,,,,,,,,,,,,,,,,,,,,,,,,,,,,,,,,,,,,,,,,,,,,,,,,,,,,,,,,,,,,,,,,,,,"[""period""]",0,[0.9502999999970143],56,0,56,0,1,,
,,,,,,,,,,,,61700969dd10e58154ad0448,18,Mężczyzna,2022-06-11_09h14.56.962,task,2021.1.4,Win32,60.09254252,6299f149e92ead563fba08ef,62a440e12e391c1df422f9b0,,,,,,,,,,,,,,,,,,,,,,,,,,,,,,,,,,,,,,,,,,,,,,,,,,,,,,,,,,,,,,,,,,,,,,,,,,,,,,,,,,,,,,,,,,,,"[""comma""]",0,[1.0242000000030203],57,0,57,0,1,,
,,,,,,,,,,,,61700969dd10e58154ad0448,18,Mężczyzna,2022-06-11_09h14.56.962,task,2021.1.4,Win32,60.09254252,6299f149e92ead563fba08ef,62a440e12e391c1df422f9b0,,,,,,,,,,,,,,,,,,,,,,,,,,,,,,,,,,,,,,,,,,,,,,,,,,,,,,,,,,,,,,,,,,,,,,,,,,,,,,,,,,,,,,,,,,,,"[""comma""]",0,[1.1118999999985135],58,0,58,0,1,,
,,,,,,,,,,,,61700969dd10e58154ad0448,18,Mężczyzna,2022-06-11_09h14.56.962,task,2021.1.4,Win32,60.09254252,6299f149e92ead563fba08ef,62a440e12e391c1df422f9b0,,,,,,,,,,,,,,,,,,,,,,,,,,,,,,,,,,,,,,,,,,,,,,,,,,,,,,,,,,,,,,,,,,,,,,,,,,,,,,,,,,,,,,,,,,,,"[""period""]",0,[1.066800000004605],59,0,59,0,1,,
,,,,,,,,,,,,61700969dd10e58154ad0448,18,Mężczyzna,2022-06-11_09h14.56.962,task,2021.1.4,Win32,60.09254252,6299f149e92ead563fba08ef,62a440e12e391c1df422f9b0,,,,,,,,,,,,,,,,,,,,,,,,,,,,,,,,,,,,,,,,,,,,,,,,,,,,,,,,,,,,,,,,,,,,,,,,,,,,,,,,,,,,,,,,,,,,"[""period""]",0,[1.0498999999986154],60,0,60,0,1,,
,,,,,,,,,,,,61700969dd10e58154ad0448,18,Mężczyzna,2022-06-11_09h14.56.962,task,2021.1.4,Win32,60.09254252,6299f149e92ead563fba08ef,62a440e12e391c1df422f9b0,,,,,,,,,,,,,,,,,,,,,,,,,,,,,,,,,,,,,,,,,,,,,,,,,,,,,,,,,,,,,,,,,,,,,,,,,,,,,,,,,,,,,,,,,,,,"[""comma""]",0,[1.0166000000015174],61,0,61,0,1,,
,,,,,,,,,,,,61700969dd10e58154ad0448,18,Mężczyzna,2022-06-11_09h14.56.962,task,2021.1.4,Win32,60.09254252,6299f149e92ead563fba08ef,62a440e12e391c1df422f9b0,,,,,,,,,,,,,,,,,,,,,,,,,,,,,,,,,,,,,,,,,,,,,,,,,,,,,,,,,,,,,,,,,,,,,,,,,,,,,,,,,,,,,,,,,,,,"[""period""]",0,[1.0831000000014228],62,0,62,0,1,,
,,,,,,,,,,,,61700969dd10e58154ad0448,18,Mężczyzna,2022-06-11_09h14.56.962,task,2021.1.4,Win32,60.09254252,6299f149e92ead563fba08ef,62a440e12e391c1df422f9b0,,,,,,,,,,,,,,,,,,,,,,,,,,,,,,,,,,,,,,,,,,,,,,,,,,,,,,,,,,,,,,,,,,,,,,,,,,,,,,,,,,,,,,,,,,,,"[""comma""]",0,[1.024299999996856],63,0,63,0,1,,
,,,,,,,,,,,,61700969dd10e58154ad0448,18,Mężczyzna,2022-06-11_09h14.56.962,task,2021.1.4,Win32,60.09254252,6299f149e92ead563fba08ef,62a440e12e391c1df422f9b0,,,,,,,,,,,,,,,,,,,,,,,,,,,,,,,,,,,,,,,,,,,,,,,,,,,,,,,,,,,,,,,,,,,,,,,,,,,,,,,,,,,,,,,,,,,,"[""comma""]",0,[1.133299999997007],64,0,64,0,1,,
,,,,,,,,,,,,61700969dd10e58154ad0448,18,Mężczyzna,2022-06-11_09h14.56.962,task,2021.1.4,Win32,60.09254252,6299f149e92ead563fba08ef,62a440e12e391c1df422f9b0,,,,,,,,,,,,,,,,,,,,,,,,,,,,,,,,,,,,,,,,,,,,,,,,,,,,,,,,,,,,,,,,,,,,,,,,,,,,,,,,,,,,,,,,,,,,"[""period""]",0,[1.1505999999940286],65,0,65,0,1,,
,,,,,,,,,,,,61700969dd10e58154ad0448,18,Mężczyzna,2022-06-11_09h14.56.962,task,2021.1.4,Win32,60.09254252,6299f149e92ead563fba08ef,62a440e12e391c1df422f9b0,,,,,,,,,,,,,,,,,,,,,,,,,,,,,,,,,,,,,,,,,,,,,,,,,,,,,,,,,,,,,,,,,,,,,,,,,,,,,,,,,,,,,,,,,,,,"[""comma""]",0,[1.150000000000091],66,0,66,0,1,,
,,,,,,,,,,,,61700969dd10e58154ad0448,18,Mężczyzna,2022-06-11_09h14.56.962,task,2021.1.4,Win32,60.09254252,6299f149e92ead563fba08ef,62a440e12e391c1df422f9b0,,,,,,,,,,,,,,,,,,,,,,,,,,,,,,,,,,,,,,,,,,,,,,,,,,,,,,,,,,,,,,,,,,,,,,,,,,,,,,,,,,,,,,,,,,,,"[""period""]",0,[1.0828999999982898],67,0,67,0,1,,
,,,,,,,,,,,,61700969dd10e58154ad0448,18,Mężczyzna,2022-06-11_09h14.56.962,task,2021.1.4,Win32,60.09254252,6299f149e92ead563fba08ef,62a440e12e391c1df422f9b0,,,,,,,,,,,,,,,,,,,,,,,,,,,,,,,,,,,,,,,,,,,,,,,,,,,,,,,,,,,,,,,,,,,,,,,,,,,,,,,,,,,,,,,,,,,,"[""comma""]",0,[1.0323999999984608],68,0,68,0,1,,
,,,,,,,,,,,,61700969dd10e58154ad0448,18,Mężczyzna,2022-06-11_09h14.56.962,task,2021.1.4,Win32,60.09254252,6299f149e92ead563fba08ef,62a440e12e391c1df422f9b0,,,,,,,,,,,,,,,,,,,,,,,,,,,,,,,,,,,,,,,,,,,,,,,,,,,,,,,,,,,,,,,,,,,,,,,,,,,,,,,,,,,,,,,,,,,,"[""period""]",0,[1.0252000000027692],69,0,69,0,1,,
,,,,,,,,,,,,61700969dd10e58154ad0448,18,Mężczyzna,2022-06-11_09h14.56.962,task,2021.1.4,Win32,60.09254252,6299f149e92ead563fba08ef,62a440e12e391c1df422f9b0,,,,,,,,,,,,,,,,,,,,,,,,,,,,,,,,,,,,,,,,,,,,,,,,,,,,,,,,,,,,,,,,,,,,,,,,,,,,,,,,,,,,,,,,,,,,"[""comma""]",0,[1.1667000000029475],70,0,70,0,1,,
,,,,,,,,,,,,61700969dd10e58154ad0448,18,Mężczyzna,2022-06-11_09h14.56.962,task,2021.1.4,Win32,60.09254252,6299f149e92ead563fba08ef,62a440e12e391c1df422f9b0,,,,,,,,,,,,,,,,,,,,,,,,,,,,,,,,,,,,,,,,,,,,,,,,,,,,,,,,,,,,,,,,,,,,,,,,,,,,,,,,,,,,,,,,,,,,"[""period""]",0,[1.0889999999999418],71,0,71,0,1,,
,,,,,,,,,,,,61700969dd10e58154ad0448,18,Mężczyzna,2022-06-11_09h14.56.962,task,2021.1.4,Win32,60.09254252,6299f149e92ead563fba08ef,62a440e12e391c1df422f9b0,,,,,,,,,,,,,,,,,,,,,,,,,,,,,,,,,,,,,,,,,,,,,,,,,,,,,,,,,,,,,,,,,,,,,,,,,,,,,,,,,,,,,,,,,,,,"[""comma""]",0,[1.0830000000000837],72,0,72,0,1,,
,,,,,,,,,,,,61700969dd10e58154ad0448,18,Mężczyzna,2022-06-11_09h14.56.962,task,2021.1.4,Win32,60.09254252,6299f149e92ead563fba08ef,62a440e12e391c1df422f9b0,,,,,,,,,,,,,,,,,,,,,,,,,,,,,,,,,,,,,,,,,,,,,,,,,,,,,,,,,,,,,,,,,,,,,,,,,,,,,,,,,,,,,,,,,,,,"[""comma""]",0,[1.1655999999941287],73,0,73,0,1,,
,,,,,,,,,,,,61700969dd10e58154ad0448,18,Mężczyzna,2022-06-11_09h14.56.962,task,2021.1.4,Win32,60.09254252,6299f149e92ead563fba08ef,62a440e12e391c1df422f9b0,,,,,,,,,,,,,,,,,,,,,,,,,,,,,,,,,,,,,,,,,,,,,,,,,,,,,,,,,,,,,,,,,,,,,,,,,,,,,,,,,,,,,,,,,,,,"[""period""]",0,[1.1167999999970561],74,0,74,0,1,,
,,,,,,,,,,,,61700969dd10e58154ad0448,18,Mężczyzna,2022-06-11_09h14.56.962,task,2021.1.4,Win32,60.09254252,6299f149e92ead563fba08ef,62a440e12e391c1df422f9b0,,,,,,,,,,,,,,,,,,,,,,,,,,,,,,,,,,,,,,,,,,,,,,,,,,,,,,,,,,,,,,,,,,,,,,,,,,,,,,,,,,,,,,,,,,,,"[""comma""]",0,[1.1497000000028947],75,0,75,0,1,,
,,,,,,,,,,,,61700969dd10e58154ad0448,18,Mężczyzna,2022-06-11_09h14.56.962,task,2021.1.4,Win32,60.09254252,6299f149e92ead563fba08ef,62a440e12e391c1df422f9b0,,,,,,,,,,,,,,,,,,,,,,,,,,,,,,,,,,,,,,,,,,,,,,,,,,,,,,,,,,,,,,,,,,,,,,,,,,,,,,,,,,,,,,,,,,,,"[""comma""]",0,[1.1165000000000873],76,0,76,0,1,,
,,,,,,,,,,,,61700969dd10e58154ad0448,18,Mężczyzna,2022-06-11_09h14.56.962,task,2021.1.4,Win32,60.09254252,6299f149e92ead563fba08ef,62a440e12e391c1df422f9b0,,,,,,,,,,,,,,,,,,,,,,,,,,,,,,,,,,,,,,,,,,,,,,,,,,,,,,,,,,,,,,,,,,,,,,,,,,,,,,,,,,,,,,,,,,,,"[""period""]",0,[0.9333000000044649],77,0,77,0,1,,
,,,,,,,,,,,,61700969dd10e58154ad0448,18,Mężczyzna,2022-06-11_09h14.56.962,task,2021.1.4,Win32,60.09254252,6299f149e92ead563fba08ef,62a440e12e391c1df422f9b0,,,,,,,,,,,,,,,,,,,,,,,,,,,,,,,,,,,,,,,,,,,,,,,,,,,,,,,,,,,,,,,,,,,,,,,,,,,,,,,,,,,,,,,,,,,,"[""period""]",0,[0.9506000000014865],78,0,78,0,1,,
,,,,,,,,,,,,61700969dd10e58154ad0448,18,Mężczyzna,2022-06-11_09h14.56.962,task,2021.1.4,Win32,60.09254252,6299f149e92ead563fba08ef,62a440e12e391c1df422f9b0,,,,,,,,,,,,,,,,,,,,,,,,,,,,,,,,,,,,,,,,,,,,,,,,,,,,,,,,,,,,,,,,,,,,,,,,,,,,,,,,,,,,,,,,,,,,"[""comma""]",0,[1.0253999999986263],79,0,79,0,1,,
,,,,,,,,,,,,61700969dd10e58154ad0448,18,Mężczyzna,2022-06-11_09h14.56.962,task,2021.1.4,Win32,60.09254252,6299f149e92ead563fba08ef,62a440e12e391c1df422f9b0,,,,,,,,,,,,,,,,,,,,,,,,,,,,,,,,,,,,,,,,,,,,,,,,,,,,,,,,,,,,,,,,,,,,,,,,,,,,,,,,,,,,,,,,,,,,"[""comma""]",0,[0.5621000000014647],80,0,80,0,1,,
,,,,,,,,,,,,61700969dd10e58154ad0448,18,Mężczyzna,2022-06-11_09h14.56.962,task,2021.1.4,Win32,60.09254252,6299f149e92ead563fba08ef,62a440e12e391c1df422f9b0,,,,,,,,,,,,,,,,,,,,,,,,,,,,,,,,,,,,,,,,,,,,,,,,,,,,,,,,,,,,,,,,,,,,,,,,,,,,,,,,,,,,,,,,,,,,"[""period""]",0,[1.0671000000015738],81,0,81,0,1,,
,,,,,,,,,,,,61700969dd10e58154ad0448,18,Mężczyzna,2022-06-11_09h14.56.962,task,2021.1.4,Win32,60.09254252,6299f149e92ead563fba08ef,62a440e12e391c1df422f9b0,,,,,,,,,,,,,,,,,,,,,,,,,,,,,,,,,,,,,,,,,,,,,,,,,,,,,,,,,,,,,,,,,,,,,,,,,,,,,,,,,,,,,,,,,,,,"[""comma""]",0,[1.100200000003042],82,0,82,0,1,,
,,,,,,,,,,,,61700969dd10e58154ad0448,18,Mężczyzna,2022-06-11_09h14.56.962,task,2021.1.4,Win32,60.09254252,6299f149e92ead563fba08ef,62a440e12e391c1df422f9b0,,,,,,,,,,,,,,,,,,,,,,,,,,,,,,,,,,,,,,,,,,,,,,,,,,,,,,,,,,,,,,,,,,,,,,,,,,,,,,,,,,,,,,,,,,,,"[""period""]",0,[1.1231999999954496],83,0,83,0,1,,
,,,,,,,,,,,,61700969dd10e58154ad0448,18,Mężczyzna,2022-06-11_09h14.56.962,task,2021.1.4,Win32,60.09254252,6299f149e92ead563fba08ef,62a440e12e391c1df422f9b0,,,,,,,,,,,,,,,,,,,,,,,,,,,,,,,,,,,,,,,,,,,,,,,,,,,,,,,,,,,,,,,,,,,,,,,,,,,,,,,,,,,,,,,,,,,,"[""comma""]",0,[1.1056999999955224],84,0,84,0,1,,
,,,,,,,,,,,,61700969dd10e58154ad0448,18,Mężczyzna,2022-06-11_09h14.56.962,task,2021.1.4,Win32,60.09254252,6299f149e92ead563fba08ef,62a440e12e391c1df422f9b0,,,,,,,,,,,,,,,,,,,,,,,,,,,,,,,,,,,,,,,,,,,,,,,,,,,,,,,,,,,,,,,,,,,,,,,,,,,,,,,,,,,,,,,,,,,,"[""period""]",0,[0.9937999999970089],85,0,85,0,1,,
,,,,,,,,,,,,61700969dd10e58154ad0448,18,Mężczyzna,2022-06-11_09h14.56.962,task,2021.1.4,Win32,60.09254252,6299f149e92ead563fba08ef,62a440e12e391c1df422f9b0,,,,,,,,,,,,,,,,,,,,,,,,,,,,,,,,,,,,,,,,,,,,,,,,,,,,,,,,,,,,,,,,,,,,,,,,,,,,,,,,,,,,,,,,,,,,"[""comma""]",0,[0.8979999999999109],86,0,86,0,1,,
,,,,,,,,,,,,61700969dd10e58154ad0448,18,Mężczyzna,2022-06-11_09h14.56.962,task,2021.1.4,Win32,60.09254252,6299f149e92ead563fba08ef,62a440e12e391c1df422f9b0,,,,,,,,,,,,,,,,,,,,,,,,,,,,,,,,,,,,,,,,,,,,,,,,,,,,,,,,,,,,,,,,,,,,,,,,,,,,,,,,,,,,,,,,,,,,"[""comma""]",0,[1.0098000000045886],87,0,87,0,1,,
,,,,,,,,,,,,61700969dd10e58154ad0448,18,Mężczyzna,2022-06-11_09h14.56.962,task,2021.1.4,Win32,60.09254252,6299f149e92ead563fba08ef,62a440e12e391c1df422f9b0,,,,,,,,,,,,,,,,,,,,,,,,,,,,,,,,,,,,,,,,,,,,,,,,,,,,,,,,,,,,,,,,,,,,,,,,,,,,,,,,,,,,,,,,,,,,"[""period""]",0,[1.001400000006015],88,0,88,0,1,,
,,,,,,,,,,,,61700969dd10e58154ad0448,18,Mężczyzna,2022-06-11_09h14.56.962,task,2021.1.4,Win32,60.09254252,6299f149e92ead563fba08ef,62a440e12e391c1df422f9b0,,,,,,,,,,,,,,,,,,,,,,,,,,,,,,,,,,,,,,,,,,,,,,,,,,,,,,,,,,,,,,,,,,,,,,,,,,,,,,,,,,,,,,,,,,,,"[""period""]",0,[0.9008000000044376],89,0,89,0,1,,
,,,,,,,,,,,,61700969dd10e58154ad0448,18,Mężczyzna,2022-06-11_09h14.56.962,task,2021.1.4,Win32,60.09254252,6299f149e92ead563fba08ef,62a440e12e391c1df422f9b0,,,,,,,,,,,,,,,,,,,,,,,,,,,,,,,,,,,,,,,,,,,,,,,,,,,,,,,,,,,,,,,,,,,,,,,,,,,,,,,,,,,,,,,,,,,,"[""comma""]",0,[1.025700000002871],90,0,90,0,1,,
,,,,,,,,,,,,61700969dd10e58154ad0448,18,Mężczyzna,2022-06-11_09h14.56.962,task,2021.1.4,Win32,60.09254252,6299f149e92ead563fba08ef,62a440e12e391c1df422f9b0,,,,,,,,,,,,,,,,,,,,,,,,,,,,,,,,,,,,,,,,,,,,,,,,,,,,,,,,,,,,,,,,,,,,,,,,,,,,,,,,,,,,,,,,,,,,"[""comma""]",0,[1.1327999999969052],91,0,91,0,1,,
,,,,,,,,,,,,61700969dd10e58154ad0448,18,Mężczyzna,2022-06-11_09h14.56.962,task,2021.1.4,Win32,60.09254252,6299f149e92ead563fba08ef,62a440e12e391c1df422f9b0,,,,,,,,,,,,,,,,,,,,,,,,,,,,,,,,,,,,,,,,,,,,,,,,,,,,,,,,,,,,,,,,,,,,,,,,,,,,,,,,,,,,,,,,,,,,"[""period""]",0,[1.0663000000042757],92,0,92,0,1,,
,,,,,,,,,,,,61700969dd10e58154ad0448,18,Mężczyzna,2022-06-11_09h14.56.962,task,2021.1.4,Win32,60.09254252,6299f149e92ead563fba08ef,62a440e12e391c1df422f9b0,,,,,,,,,,,,,,,,,,,,,,,,,,,,,,,,,,,,,,,,,,,,,,,,,,,,,,,,,,,,,,,,,,,,,,,,,,,,,,,,,,,,,,,,,,,,"[""period""]",0,[1.09050000000002],93,0,93,0,1,,
,,,,,,,,,,,,61700969dd10e58154ad0448,18,Mężczyzna,2022-06-11_09h14.56.962,task,2021.1.4,Win32,60.09254252,6299f149e92ead563fba08ef,62a440e12e391c1df422f9b0,,,,,,,,,,,,,,,,,,,,,,,,,,,,,,,,,,,,,,,,,,,,,,,,,,,,,,,,,,,,,,,,,,,,,,,,,,,,,,,,,,,,,,,,,,,,"[""comma""]",0,[1.0828999999985172],94,0,94,0,1,,
,,,,,,,,,,,,61700969dd10e58154ad0448,18,Mężczyzna,2022-06-11_09h14.56.962,task,2021.1.4,Win32,60.09254252,6299f149e92ead563fba08ef,62a440e12e391c1df422f9b0,,,,,,,,,,,,,,,,,,,,,,,,,,,,,,,,,,,,,,,,,,,,,,,,,,,,,,,,,,,,,,,,,,,,,,,,,,,,,,,,,,,,,,,,,,,,"[""period""]",0,[1.06610000000137],95,0,95,0,1,,
,,,,,,,,,,,,61700969dd10e58154ad0448,18,Mężczyzna,2022-06-11_09h14.56.962,task,2021.1.4,Win32,60.09254252,6299f149e92ead563fba08ef,62a440e12e391c1df422f9b0,,,,,,,,,,,,,,,,,,,,,,,,,,,,,,,,,,,,,,,,,,,,,,,,,,,,,,,,,,,,,,,,,,,,,,,,,,,,,,,,,,,,,,,,,,,,"[""comma""]",0,[1.2828999999983353],96,0,96,0,1,,
,,,,,,,,,,,,61700969dd10e58154ad0448,18,Mężczyzna,2022-06-11_09h14.56.962,task,2021.1.4,Win32,60.09254252,6299f149e92ead563fba08ef,62a440e12e391c1df422f9b0,,,,,,,,,,,,,,,,,,,,,,,,,,,,,,,,,,,,,,,,,,,,,,,,,,,,,,,,,,,,,,,,,,,,,,,,,,,,,,,,,,,,,,,,,,,,"[""period""]",0,[1.1165999999939231],97,0,97,0,1,,
,,,,,,,,,,,,61700969dd10e58154ad0448,18,Mężczyzna,2022-06-11_09h14.56.962,task,2021.1.4,Win32,60.09254252,6299f149e92ead563fba08ef,62a440e12e391c1df422f9b0,,,,,,,,,,,,,,,,,,,,,,,,,,,,,,,,,,,,,,,,,,,,,,,,,,,,,,,,,,,,,,,,,,,,,,,,,,,,,,,,,,,,,,,,,,,,"[""comma""]",0,[1.1066000000014355],98,0,98,0,1,,
,,,,,,,,,,,,61700969dd10e58154ad0448,18,Mężczyzna,2022-06-11_09h14.56.962,task,2021.1.4,Win32,60.09254252,6299f149e92ead563fba08ef,62a440e12e391c1df422f9b0,,,,,,,,,,,,,,,,,,,,,,,,,,,,,,,,,,,,,,,,,,,,,,,,,,,,,,,,,,,,,,,,,,,,,,,,,,,,,,,,,,,,,,,,,,,,"[""period""]",0,[1.1175000000000637],99,0,99,0,1,,
,,,,,,,,,,,,61700969dd10e58154ad0448,18,Mężczyzna,2022-06-11_09h14.56.962,task,2021.1.4,Win32,60.09254252,6299f149e92ead563fba08ef,62a440e12e391c1df422f9b0,,,,,,,,,,,,,,,,,,,,,,,,,,,,,,,,,,,,,,,,,,,,,,,,,,,,,,,,,,,,,,,,,,,,,,,,,,,,,,,,,,,,,,,,,,,,"[""comma""]",0,[1.1333999999985735],100,0,100,0,1,,
,,,,,,,,,,,,61700969dd10e58154ad0448,18,Mężczyzna,2022-06-11_09h14.56.962,task,2021.1.4,Win32,60.09254252,6299f149e92ead563fba08ef,62a440e12e391c1df422f9b0,,,,,,,,,,,,,,,,,,,,,,,,,,,,,,,,,,,,,,,,,,,,,,,,,,,,,,,,,,,,,,,,,,,,,,,,,,,,,,,,,,,,,,,,,,,,"[""period""]",0,[1.1167999999968288],101,0,101,0,1,,
,,,,,,,,,,,,61700969dd10e58154ad0448,18,Mężczyzna,2022-06-11_09h14.56.962,task,2021.1.4,Win32,60.09254252,6299f149e92ead563fba08ef,62a440e12e391c1df422f9b0,,,,,,,,,,,,,,,,,,,,,,,,,,,,,,,,,,,,,,,,,,,,,,,,,,,,,,,,,,,,,,,,,,,,,,,,,,,,,,,,,,,,,,,,,,,,"[""comma""]",0,[1.149799999996958],102,0,102,0,1,,
,,,,,,,,,,,,61700969dd10e58154ad0448,18,Mężczyzna,2022-06-11_09h14.56.962,task,2021.1.4,Win32,60.09254252,6299f149e92ead563fba08ef,62a440e12e391c1df422f9b0,,,,,,,,,,,,,,,,,,,,,,,,,,,,,,,,,,,,,,,,,,,,,,,,,,,,,,,,,,,,,,,,,,,,,,,,,,,,,,,,,,,,,,,,,,,,"[""period""]",0,[1.300100000001521],103,0,103,0,1,,
,,,,,,,,,,,,61700969dd10e58154ad0448,18,Mężczyzna,2022-06-11_09h14.56.962,task,2021.1.4,Win32,60.09254252,6299f149e92ead563fba08ef,62a440e12e391c1df422f9b0,,,,,,,,,,,,,,,,,,,,,,,,,,,,,,,,,,,,,,,,,,,,,,,,,,,,,,,,,,,,,,,,,,,,,,,,,,,,,,,,,,,,,,,,,,,,"[""comma""]",0,[1.148899999998548],104,0,104,0,1,,
,,,,,,,,,,,,61700969dd10e58154ad0448,18,Mężczyzna,2022-06-11_09h14.56.962,task,2021.1.4,Win32,60.09254252,6299f149e92ead563fba08ef,62a440e12e391c1df422f9b0,,,,,,,,,,,,,,,,,,,,,,,,,,,,,,,,,,,,,,,,,,,,,,,,,,,,,,,,,,,,,,,,,,,,,,,,,,,,,,,,,,,,,,,,,,,,"[""period""]",0,[1.0995000000000346],105,0,105,0,1,,
,,,,,,,,,,,,61700969dd10e58154ad0448,18,Mężczyzna,2022-06-11_09h14.56.962,task,2021.1.4,Win32,60.09254252,6299f149e92ead563fba08ef,62a440e12e391c1df422f9b0,,,,,,,,,,,,,,,,,,,,,,,,,,,,,,,,,,,,,,,,,,,,,,,,,,,,,,,,,,,,,,,,,,,,,,,,,,,,,,,,,,,,,,,,,,,,"[""comma""]",0,[1.100500000000011],106,0,106,0,1,,
,,,,,,,,,,,,61700969dd10e58154ad0448,18,Mężczyzna,2022-06-11_09h14.56.962,task,2021.1.4,Win32,60.09254252,6299f149e92ead563fba08ef,62a440e12e391c1df422f9b0,,,,,,,,,,,,,,,,,,,,,,,,,,,,,,,,,,,,,,,,,,,,,,,,,,,,,,,,,,,,,,,,,,,,,,,,,,,,,,,,,,,,,,,,,,,,"[""period""]",0,[1.1704999999999472],107,0,107,0,1,,
,,,,,,,,,,,,61700969dd10e58154ad0448,18,Mężczyzna,2022-06-11_09h14.56.962,task,2021.1.4,Win32,60.09254252,6299f149e92ead563fba08ef,62a440e12e391c1df422f9b0,,,,,,,,,,,,,,,,,,,,,,,,,,,,,,,,,,,,,,,,,,,,,,,,,,,,,,,,,,,,,,,,,,,,,,,,,,,,,,,,,,,,,,,,,,,,"[""comma""]",0,[1.2116000000014537],108,0,108,0,1,,
