key_resp_15.keys,key_resp_15.rt,key_resp_16.keys,key_resp_16.rt,key_resp_4.keys,key_resp_4.rt,next_letter.thisRepN,next_letter.thisTrialN,next_letter.thisN,next_letter.thisIndex,next_letter.ran,letter,participant,Wiek*,Płeć,date,expName,psychopyVersion,OS,frameRate,study_id,session,simple_recall,key_resp_5.keys,key_resp_5.rt,simple_recall_corr,simple_recall_corrkeys,next_level.thisRepN,next_level.thisTrialN,next_level.thisN,next_level.thisIndex,next_level.ran,key_resp_2.keys,key_resp_2.rt,digit_answer,key_resp.keys,key_resp.corr,key_resp.rt,RT_list,next_equation.thisRepN,next_equation.thisTrialN,next_equation.thisN,next_equation.thisIndex,next_equation.ran,Task,Trial,Problem,Operation_answer,processing_score,sumRT,meanRT,sumdiff,sd,RT,key_resp_3.keys,key_resp_3.rt,repeat_practice.thisRepN,repeat_practice.thisTrialN,repeat_practice.thisN,repeat_practice.thisIndex,repeat_practice.ran,key_resp_6.keys,key_resp_6.rt,key_resp_11.keys,key_resp_11.corr,key_resp_11.rt,operation_correct,repeat_if_wrong_prac.thisRepN,repeat_if_wrong_prac.thisTrialN,repeat_if_wrong_prac.thisN,repeat_if_wrong_prac.thisIndex,repeat_if_wrong_prac.ran,span_size_prac.thisRepN,span_size_prac.thisTrialN,span_size_prac.thisN,span_size_prac.thisIndex,span_size_prac.ran,complex_recall_practice,key_resp_9.keys,key_resp_9.corr,key_resp_9.rt,complex_prac_corr,span_recall_prac.thisRepN,span_recall_prac.thisTrialN,span_recall_prac.thisN,span_recall_prac.thisIndex,span_recall_prac.ran,key_resp_10.keys,key_resp_10.rt,key_resp_7.keys,key_resp_7.corr,key_resp_7.rt,repeat_if_wrong.thisRepN,repeat_if_wrong.thisTrialN,repeat_if_wrong.thisN,repeat_if_wrong.thisIndex,repeat_if_wrong.ran,span_size.thisRepN,span_size.thisTrialN,span_size.thisN,span_size.thisIndex,span_size.ran,complex_recall,key_resp_8.keys,key_resp_8.corr,key_resp_8.rt,complex_recall_corr,complex_recall_corrkeys,span_recall.thisRepN,span_recall.thisTrialN,span_recall.thisN,span_recall.thisIndex,span_recall.ran,key_resp_13.keys,key_resp_13.corr,random_loop.thisRepN,random_loop.thisTrialN,random_loop.thisN,random_loop.thisIndex,random_loop.ran,key_resp_13.rt,key_resp_12.keys,key_resp_12.rt
space,14.2023,space,17.4293,space,9.2243,0,0,0,0,1,X V Q F H G B L J M P D K C T S W R N Z,617065189300567757e337a8,20,Mężczyzna,2022-06-11_09h21.14.019,task,2021.1.4,Win32,165.645188,6299f149e92ead563fba08ef,62a44213b3438070802e02cd,,,,,,,,,,,,,,,,,,,,,,,,,,,,,,,,,,,,,,,,,,,,,,,,,,,,,,,,,,,,,,,,,,,,,,,,,,,,,,,,,,,,,,,,,,,,,,,,,,,,,
,,,,,,1,0,1,0,1,X V Q F H G B L J M P D K C T S W R N Z,617065189300567757e337a8,20,Mężczyzna,2022-06-11_09h21.14.019,task,2021.1.4,Win32,165.645188,6299f149e92ead563fba08ef,62a44213b3438070802e02cd,,,,,,,,,,,,,,,,,,,,,,,,,,,,,,,,,,,,,,,,,,,,,,,,,,,,,,,,,,,,,,,,,,,,,,,,,,,,,,,,,,,,,,,,,,,,,,,,,,,,,
,,,,,,,,,,,,617065189300567757e337a8,20,Mężczyzna,2022-06-11_09h21.14.019,task,2021.1.4,Win32,165.645188,6299f149e92ead563fba08ef,62a44213b3438070802e02cd,zb,"[""z"",""b""]","[3.0138999999761538,3.475699999928473,4.763899999976154]",1,ZB,0,0,0,0,1,,,,,,,,,,,,,,,,,,,,,,,,,,,,,,,,,,,,,,,,,,,,,,,,,,,,,,,,,,,,,,,,,,,,,,,,,,,,,,,,,,,,,,,,,,,
,,,,,,0,0,0,0,1,X V Q F H G B L J M P D K C T S W R N Z,617065189300567757e337a8,20,Mężczyzna,2022-06-11_09h21.14.019,task,2021.1.4,Win32,165.645188,6299f149e92ead563fba08ef,62a44213b3438070802e02cd,,,,,,,,,,,,,,,,,,,,,,,,,,,,,,,,,,,,,,,,,,,,,,,,,,,,,,,,,,,,,,,,,,,,,,,,,,,,,,,,,,,,,,,,,,,,,,,,,,,,,
,,,,,,1,0,1,0,1,X V Q F H G B L J M P D K C T S W R N Z,617065189300567757e337a8,20,Mężczyzna,2022-06-11_09h21.14.019,task,2021.1.4,Win32,165.645188,6299f149e92ead563fba08ef,62a44213b3438070802e02cd,,,,,,,,,,,,,,,,,,,,,,,,,,,,,,,,,,,,,,,,,,,,,,,,,,,,,,,,,,,,,,,,,,,,,,,,,,,,,,,,,,,,,,,,,,,,,,,,,,,,,
,,,,,,,,,,,,617065189300567757e337a8,20,Mężczyzna,2022-06-11_09h21.14.019,task,2021.1.4,Win32,165.645188,6299f149e92ead563fba08ef,62a44213b3438070802e02cd,fw,"[""f"",""w""]","[1.5615000000000023,1.981599999904624,2.8177999999523067]",1,FW,1,0,1,0,1,,,,,,,,,,,,,,,,,,,,,,,,,,,,,,,,,,,,,,,,,,,,,,,,,,,,,,,,,,,,,,,,,,,,,,,,,,,,,,,,,,,,,,,,,,,
,,,,,,0,0,0,0,1,X V Q F H G B L J M P D K C T S W R N Z,617065189300567757e337a8,20,Mężczyzna,2022-06-11_09h21.14.019,task,2021.1.4,Win32,165.645188,6299f149e92ead563fba08ef,62a44213b3438070802e02cd,,,,,,,,,,,,,,,,,,,,,,,,,,,,,,,,,,,,,,,,,,,,,,,,,,,,,,,,,,,,,,,,,,,,,,,,,,,,,,,,,,,,,,,,,,,,,,,,,,,,,
,,,,,,1,0,1,0,1,X V Q F H G B L J M P D K C T S W R N Z,617065189300567757e337a8,20,Mężczyzna,2022-06-11_09h21.14.019,task,2021.1.4,Win32,165.645188,6299f149e92ead563fba08ef,62a44213b3438070802e02cd,,,,,,,,,,,,,,,,,,,,,,,,,,,,,,,,,,,,,,,,,,,,,,,,,,,,,,,,,,,,,,,,,,,,,,,,,,,,,,,,,,,,,,,,,,,,,,,,,,,,,
,,,,,,2,0,2,0,1,X V Q F H G B L J M P D K C T S W R N Z,617065189300567757e337a8,20,Mężczyzna,2022-06-11_09h21.14.019,task,2021.1.4,Win32,165.645188,6299f149e92ead563fba08ef,62a44213b3438070802e02cd,,,,,,,,,,,,,,,,,,,,,,,,,,,,,,,,,,,,,,,,,,,,,,,,,,,,,,,,,,,,,,,,,,,,,,,,,,,,,,,,,,,,,,,,,,,,,,,,,,,,,
,,,,,,,,,,,,617065189300567757e337a8,20,Mężczyzna,2022-06-11_09h21.14.019,task,2021.1.4,Win32,165.645188,6299f149e92ead563fba08ef,62a44213b3438070802e02cd,dms,"[""d"",""m"",""s""]","[0.571200000047682,1.2968000000715278,2.054100000023837,5.060500000000005]",1,DMS,2,0,2,0,1,,,,,,,,,,,,,,,,,,,,,,,,,,,,,,,,,,,,,,,,,,,,,,,,,,,,,,,,,,,,,,,,,,,,,,,,,,,,,,,,,,,,,,,,,,,
,,,,,,0,0,0,0,1,X V Q F H G B L J M P D K C T S W R N Z,617065189300567757e337a8,20,Mężczyzna,2022-06-11_09h21.14.019,task,2021.1.4,Win32,165.645188,6299f149e92ead563fba08ef,62a44213b3438070802e02cd,,,,,,,,,,,,,,,,,,,,,,,,,,,,,,,,,,,,,,,,,,,,,,,,,,,,,,,,,,,,,,,,,,,,,,,,,,,,,,,,,,,,,,,,,,,,,,,,,,,,,
,,,,,,1,0,1,0,1,X V Q F H G B L J M P D K C T S W R N Z,617065189300567757e337a8,20,Mężczyzna,2022-06-11_09h21.14.019,task,2021.1.4,Win32,165.645188,6299f149e92ead563fba08ef,62a44213b3438070802e02cd,,,,,,,,,,,,,,,,,,,,,,,,,,,,,,,,,,,,,,,,,,,,,,,,,,,,,,,,,,,,,,,,,,,,,,,,,,,,,,,,,,,,,,,,,,,,,,,,,,,,,
,,,,,,2,0,2,0,1,X V Q F H G B L J M P D K C T S W R N Z,617065189300567757e337a8,20,Mężczyzna,2022-06-11_09h21.14.019,task,2021.1.4,Win32,165.645188,6299f149e92ead563fba08ef,62a44213b3438070802e02cd,,,,,,,,,,,,,,,,,,,,,,,,,,,,,,,,,,,,,,,,,,,,,,,,,,,,,,,,,,,,,,,,,,,,,,,,,,,,,,,,,,,,,,,,,,,,,,,,,,,,,
,,,,,,,,,,,,617065189300567757e337a8,20,Mężczyzna,2022-06-11_09h21.14.019,task,2021.1.4,Win32,165.645188,6299f149e92ead563fba08ef,62a44213b3438070802e02cd,fgn,"[""f"",""g"",""n""]","[2.9382000000476864,3.1868999999761627,3.521200000047685,4.575399999976156]",1,FGN,3,0,3,0,1,,,,,,,,,,,,,,,,,,,,,,,,,,,,,,,,,,,,,,,,,,,,,,,,,,,,,,,,,,,,,,,,,,,,,,,,,,,,,,,,,,,,,,,,,,,
,,,,,,0,0,0,0,1,X V Q F H G B L J M P D K C T S W R N Z,617065189300567757e337a8,20,Mężczyzna,2022-06-11_09h21.14.019,task,2021.1.4,Win32,165.645188,6299f149e92ead563fba08ef,62a44213b3438070802e02cd,,,,,,,,,,,,,,,,,,,,,,,,,,,,,,,,,,,,,,,,,,,,,,,,,,,,,,,,,,,,,,,,,,,,,,,,,,,,,,,,,,,,,,,,,,,,,,,,,,,,,
,,,,,,1,0,1,0,1,X V Q F H G B L J M P D K C T S W R N Z,617065189300567757e337a8,20,Mężczyzna,2022-06-11_09h21.14.019,task,2021.1.4,Win32,165.645188,6299f149e92ead563fba08ef,62a44213b3438070802e02cd,,,,,,,,,,,,,,,,,,,,,,,,,,,,,,,,,,,,,,,,,,,,,,,,,,,,,,,,,,,,,,,,,,,,,,,,,,,,,,,,,,,,,,,,,,,,,,,,,,,,,
,,,,,,2,0,2,0,1,X V Q F H G B L J M P D K C T S W R N Z,617065189300567757e337a8,20,Mężczyzna,2022-06-11_09h21.14.019,task,2021.1.4,Win32,165.645188,6299f149e92ead563fba08ef,62a44213b3438070802e02cd,,,,,,,,,,,,,,,,,,,,,,,,,,,,,,,,,,,,,,,,,,,,,,,,,,,,,,,,,,,,,,,,,,,,,,,,,,,,,,,,,,,,,,,,,,,,,,,,,,,,,
,,,,,,3,0,3,0,1,X V Q F H G B L J M P D K C T S W R N Z,617065189300567757e337a8,20,Mężczyzna,2022-06-11_09h21.14.019,task,2021.1.4,Win32,165.645188,6299f149e92ead563fba08ef,62a44213b3438070802e02cd,,,,,,,,,,,,,,,,,,,,,,,,,,,,,,,,,,,,,,,,,,,,,,,,,,,,,,,,,,,,,,,,,,,,,,,,,,,,,,,,,,,,,,,,,,,,,,,,,,,,,
,,,,,,,,,,,,617065189300567757e337a8,20,Mężczyzna,2022-06-11_09h21.14.019,task,2021.1.4,Win32,165.645188,6299f149e92ead563fba08ef,62a44213b3438070802e02cd,rbbq,"[""r"",""b"",""b"",""q""]","[1.0173999999761492,1.4301000000238417,1.6424999999999983,2.2052999999523166,3.0172999999523142]",1,RBBQ,4,0,4,0,1,,,,,,,,,,,,,,,,,,,,,,,,,,,,,,,,,,,,,,,,,,,,,,,,,,,,,,,,,,,,,,,,,,,,,,,,,,,,,,,,,,,,,,,,,,,
,,,,,,0,0,0,0,1,X V Q F H G B L J M P D K C T S W R N Z,617065189300567757e337a8,20,Mężczyzna,2022-06-11_09h21.14.019,task,2021.1.4,Win32,165.645188,6299f149e92ead563fba08ef,62a44213b3438070802e02cd,,,,,,,,,,,,,,,,,,,,,,,,,,,,,,,,,,,,,,,,,,,,,,,,,,,,,,,,,,,,,,,,,,,,,,,,,,,,,,,,,,,,,,,,,,,,,,,,,,,,,
,,,,,,1,0,1,0,1,X V Q F H G B L J M P D K C T S W R N Z,617065189300567757e337a8,20,Mężczyzna,2022-06-11_09h21.14.019,task,2021.1.4,Win32,165.645188,6299f149e92ead563fba08ef,62a44213b3438070802e02cd,,,,,,,,,,,,,,,,,,,,,,,,,,,,,,,,,,,,,,,,,,,,,,,,,,,,,,,,,,,,,,,,,,,,,,,,,,,,,,,,,,,,,,,,,,,,,,,,,,,,,
,,,,,,2,0,2,0,1,X V Q F H G B L J M P D K C T S W R N Z,617065189300567757e337a8,20,Mężczyzna,2022-06-11_09h21.14.019,task,2021.1.4,Win32,165.645188,6299f149e92ead563fba08ef,62a44213b3438070802e02cd,,,,,,,,,,,,,,,,,,,,,,,,,,,,,,,,,,,,,,,,,,,,,,,,,,,,,,,,,,,,,,,,,,,,,,,,,,,,,,,,,,,,,,,,,,,,,,,,,,,,,
,,,,,,3,0,3,0,1,X V Q F H G B L J M P D K C T S W R N Z,617065189300567757e337a8,20,Mężczyzna,2022-06-11_09h21.14.019,task,2021.1.4,Win32,165.645188,6299f149e92ead563fba08ef,62a44213b3438070802e02cd,,,,,,,,,,,,,,,,,,,,,,,,,,,,,,,,,,,,,,,,,,,,,,,,,,,,,,,,,,,,,,,,,,,,,,,,,,,,,,,,,,,,,,,,,,,,,,,,,,,,,
,,,,,,,,,,,,617065189300567757e337a8,20,Mężczyzna,2022-06-11_09h21.14.019,task,2021.1.4,Win32,165.645188,6299f149e92ead563fba08ef,62a44213b3438070802e02cd,btgs,"[""b"",""t"",""g"",""s""]","[19.404600000023834,19.747600000023837,20.06460000002383,20.638499999999993,21.44560000002383]",0,HGTS,5,0,5,0,1,,,,,,,,,,,,,,,,,,,,,,,,,,,,,,,,,,,,,,,,,,,,,,,,,,,,,,,,,,,,,,,,,,,,,,,,,,,,,,,,,,,,,,,,,,,
,,,,,,0,0,0,0,1,X V Q F H G B L J M P D K C T S W R N Z,617065189300567757e337a8,20,Mężczyzna,2022-06-11_09h21.14.019,task,2021.1.4,Win32,165.645188,6299f149e92ead563fba08ef,62a44213b3438070802e02cd,,,,,,,,,,,,,,,,,,,,,,,,,,,,,,,,,,,,,,,,,,,,,,,,,,,,,,,,,,,,,,,,,,,,,,,,,,,,,,,,,,,,,,,,,,,,,,,,,,,,,
,,,,,,1,0,1,0,1,X V Q F H G B L J M P D K C T S W R N Z,617065189300567757e337a8,20,Mężczyzna,2022-06-11_09h21.14.019,task,2021.1.4,Win32,165.645188,6299f149e92ead563fba08ef,62a44213b3438070802e02cd,,,,,,,,,,,,,,,,,,,,,,,,,,,,,,,,,,,,,,,,,,,,,,,,,,,,,,,,,,,,,,,,,,,,,,,,,,,,,,,,,,,,,,,,,,,,,,,,,,,,,
,,,,,,2,0,2,0,1,X V Q F H G B L J M P D K C T S W R N Z,617065189300567757e337a8,20,Mężczyzna,2022-06-11_09h21.14.019,task,2021.1.4,Win32,165.645188,6299f149e92ead563fba08ef,62a44213b3438070802e02cd,,,,,,,,,,,,,,,,,,,,,,,,,,,,,,,,,,,,,,,,,,,,,,,,,,,,,,,,,,,,,,,,,,,,,,,,,,,,,,,,,,,,,,,,,,,,,,,,,,,,,
,,,,,,3,0,3,0,1,X V Q F H G B L J M P D K C T S W R N Z,617065189300567757e337a8,20,Mężczyzna,2022-06-11_09h21.14.019,task,2021.1.4,Win32,165.645188,6299f149e92ead563fba08ef,62a44213b3438070802e02cd,,,,,,,,,,,,,,,,,,,,,,,,,,,,,,,,,,,,,,,,,,,,,,,,,,,,,,,,,,,,,,,,,,,,,,,,,,,,,,,,,,,,,,,,,,,,,,,,,,,,,
,,,,,,,,,,,,617065189300567757e337a8,20,Mężczyzna,2022-06-11_09h21.14.019,task,2021.1.4,Win32,165.645188,6299f149e92ead563fba08ef,62a44213b3438070802e02cd,swsz,"[""s"",""w"",""s"",""z""]","[0.8733000000715236,1.1823000000715211,1.4796000000238507,2.001800000071526,3.9157000000476927]",1,SWSZ,6,0,6,0,1,,,,,,,,,,,,,,,,,,,,,,,,,,,,,,,,,,,,,,,,,,,,,,,,,,,,,,,,,,,,,,,,,,,,,,,,,,,,,,,,,,,,,,,,,,,
,,,,,,0,0,0,0,1,X V Q F H G B L J M P D K C T S W R N Z,617065189300567757e337a8,20,Mężczyzna,2022-06-11_09h21.14.019,task,2021.1.4,Win32,165.645188,6299f149e92ead563fba08ef,62a44213b3438070802e02cd,,,,,,,,,,,,,,,,,,,,,,,,,,,,,,,,,,,,,,,,,,,,,,,,,,,,,,,,,,,,,,,,,,,,,,,,,,,,,,,,,,,,,,,,,,,,,,,,,,,,,
,,,,,,1,0,1,0,1,X V Q F H G B L J M P D K C T S W R N Z,617065189300567757e337a8,20,Mężczyzna,2022-06-11_09h21.14.019,task,2021.1.4,Win32,165.645188,6299f149e92ead563fba08ef,62a44213b3438070802e02cd,,,,,,,,,,,,,,,,,,,,,,,,,,,,,,,,,,,,,,,,,,,,,,,,,,,,,,,,,,,,,,,,,,,,,,,,,,,,,,,,,,,,,,,,,,,,,,,,,,,,,
,,,,,,2,0,2,0,1,X V Q F H G B L J M P D K C T S W R N Z,617065189300567757e337a8,20,Mężczyzna,2022-06-11_09h21.14.019,task,2021.1.4,Win32,165.645188,6299f149e92ead563fba08ef,62a44213b3438070802e02cd,,,,,,,,,,,,,,,,,,,,,,,,,,,,,,,,,,,,,,,,,,,,,,,,,,,,,,,,,,,,,,,,,,,,,,,,,,,,,,,,,,,,,,,,,,,,,,,,,,,,,
,,,,,,3,0,3,0,1,X V Q F H G B L J M P D K C T S W R N Z,617065189300567757e337a8,20,Mężczyzna,2022-06-11_09h21.14.019,task,2021.1.4,Win32,165.645188,6299f149e92ead563fba08ef,62a44213b3438070802e02cd,,,,,,,,,,,,,,,,,,,,,,,,,,,,,,,,,,,,,,,,,,,,,,,,,,,,,,,,,,,,,,,,,,,,,,,,,,,,,,,,,,,,,,,,,,,,,,,,,,,,,
,,,,,,4,0,4,0,1,X V Q F H G B L J M P D K C T S W R N Z,617065189300567757e337a8,20,Mężczyzna,2022-06-11_09h21.14.019,task,2021.1.4,Win32,165.645188,6299f149e92ead563fba08ef,62a44213b3438070802e02cd,,,,,,,,,,,,,,,,,,,,,,,,,,,,,,,,,,,,,,,,,,,,,,,,,,,,,,,,,,,,,,,,,,,,,,,,,,,,,,,,,,,,,,,,,,,,,,,,,,,,,
,,,,,,,,,,,,617065189300567757e337a8,20,Mężczyzna,2022-06-11_09h21.14.019,task,2021.1.4,Win32,165.645188,6299f149e92ead563fba08ef,62a44213b3438070802e02cd,mtzje,"[""m"",""t"",""z"",""j"",""e""]","[0.5215000000000032,2.735399999976181,5.690899999976153,6.084899999976159,6.92739999997616,8.133299999952328]",0,MZTJL,7,0,7,0,1,,,,,,,,,,,,,,,,,,,,,,,,,,,,,,,,,,,,,,,,,,,,,,,,,,,,,,,,,,,,,,,,,,,,,,,,,,,,,,,,,,,,,,,,,,,
,,,,,,0,0,0,0,1,X V Q F H G B L J M P D K C T S W R N Z,617065189300567757e337a8,20,Mężczyzna,2022-06-11_09h21.14.019,task,2021.1.4,Win32,165.645188,6299f149e92ead563fba08ef,62a44213b3438070802e02cd,,,,,,,,,,,,,,,,,,,,,,,,,,,,,,,,,,,,,,,,,,,,,,,,,,,,,,,,,,,,,,,,,,,,,,,,,,,,,,,,,,,,,,,,,,,,,,,,,,,,,
,,,,,,1,0,1,0,1,X V Q F H G B L J M P D K C T S W R N Z,617065189300567757e337a8,20,Mężczyzna,2022-06-11_09h21.14.019,task,2021.1.4,Win32,165.645188,6299f149e92ead563fba08ef,62a44213b3438070802e02cd,,,,,,,,,,,,,,,,,,,,,,,,,,,,,,,,,,,,,,,,,,,,,,,,,,,,,,,,,,,,,,,,,,,,,,,,,,,,,,,,,,,,,,,,,,,,,,,,,,,,,
,,,,,,2,0,2,0,1,X V Q F H G B L J M P D K C T S W R N Z,617065189300567757e337a8,20,Mężczyzna,2022-06-11_09h21.14.019,task,2021.1.4,Win32,165.645188,6299f149e92ead563fba08ef,62a44213b3438070802e02cd,,,,,,,,,,,,,,,,,,,,,,,,,,,,,,,,,,,,,,,,,,,,,,,,,,,,,,,,,,,,,,,,,,,,,,,,,,,,,,,,,,,,,,,,,,,,,,,,,,,,,
,,,,,,3,0,3,0,1,X V Q F H G B L J M P D K C T S W R N Z,617065189300567757e337a8,20,Mężczyzna,2022-06-11_09h21.14.019,task,2021.1.4,Win32,165.645188,6299f149e92ead563fba08ef,62a44213b3438070802e02cd,,,,,,,,,,,,,,,,,,,,,,,,,,,,,,,,,,,,,,,,,,,,,,,,,,,,,,,,,,,,,,,,,,,,,,,,,,,,,,,,,,,,,,,,,,,,,,,,,,,,,
,,,,,,4,0,4,0,1,X V Q F H G B L J M P D K C T S W R N Z,617065189300567757e337a8,20,Mężczyzna,2022-06-11_09h21.14.019,task,2021.1.4,Win32,165.645188,6299f149e92ead563fba08ef,62a44213b3438070802e02cd,,,,,,,,,,,,,,,,,,,,,,,,,,,,,,,,,,,,,,,,,,,,,,,,,,,,,,,,,,,,,,,,,,,,,,,,,,,,,,,,,,,,,,,,,,,,,,,,,,,,,
,,,,,,,,,,,,617065189300567757e337a8,20,Mężczyzna,2022-06-11_09h21.14.019,task,2021.1.4,Win32,165.645188,6299f149e92ead563fba08ef,62a44213b3438070802e02cd,mpxvq,"[""m"",""p"",""x"",""v"",""q""]","[1.194500000000005,1.636299999952314,2.860699999928471,3.588100000023843,4.127600000023847,5.885000000000019]",0,MXPVQ,8,0,8,0,1,,,,,,,,,,,,,,,,,,,,,,,,,,,,,,,,,,,,,,,,,,,,,,,,,,,,,,,,,,,,,,,,,,,,,,,,,,,,,,,,,,,,,,,,,,,
,,,,,,0,0,0,0,1,X V Q F H G B L J M P D K C T S W R N Z,617065189300567757e337a8,20,Mężczyzna,2022-06-11_09h21.14.019,task,2021.1.4,Win32,165.645188,6299f149e92ead563fba08ef,62a44213b3438070802e02cd,,,,,,,,,,,,,,,,,,,,,,,,,,,,,,,,,,,,,,,,,,,,,,,,,,,,,,,,,,,,,,,,,,,,,,,,,,,,,,,,,,,,,,,,,,,,,,,,,,,,,
,,,,,,1,0,1,0,1,X V Q F H G B L J M P D K C T S W R N Z,617065189300567757e337a8,20,Mężczyzna,2022-06-11_09h21.14.019,task,2021.1.4,Win32,165.645188,6299f149e92ead563fba08ef,62a44213b3438070802e02cd,,,,,,,,,,,,,,,,,,,,,,,,,,,,,,,,,,,,,,,,,,,,,,,,,,,,,,,,,,,,,,,,,,,,,,,,,,,,,,,,,,,,,,,,,,,,,,,,,,,,,
,,,,,,2,0,2,0,1,X V Q F H G B L J M P D K C T S W R N Z,617065189300567757e337a8,20,Mężczyzna,2022-06-11_09h21.14.019,task,2021.1.4,Win32,165.645188,6299f149e92ead563fba08ef,62a44213b3438070802e02cd,,,,,,,,,,,,,,,,,,,,,,,,,,,,,,,,,,,,,,,,,,,,,,,,,,,,,,,,,,,,,,,,,,,,,,,,,,,,,,,,,,,,,,,,,,,,,,,,,,,,,
,,,,,,3,0,3,0,1,X V Q F H G B L J M P D K C T S W R N Z,617065189300567757e337a8,20,Mężczyzna,2022-06-11_09h21.14.019,task,2021.1.4,Win32,165.645188,6299f149e92ead563fba08ef,62a44213b3438070802e02cd,,,,,,,,,,,,,,,,,,,,,,,,,,,,,,,,,,,,,,,,,,,,,,,,,,,,,,,,,,,,,,,,,,,,,,,,,,,,,,,,,,,,,,,,,,,,,,,,,,,,,
,,,,,,4,0,4,0,1,X V Q F H G B L J M P D K C T S W R N Z,617065189300567757e337a8,20,Mężczyzna,2022-06-11_09h21.14.019,task,2021.1.4,Win32,165.645188,6299f149e92ead563fba08ef,62a44213b3438070802e02cd,,,,,,,,,,,,,,,,,,,,,,,,,,,,,,,,,,,,,,,,,,,,,,,,,,,,,,,,,,,,,,,,,,,,,,,,,,,,,,,,,,,,,,,,,,,,,,,,,,,,,
,,,,,,,,,,,,617065189300567757e337a8,20,Mężczyzna,2022-06-11_09h21.14.019,task,2021.1.4,Win32,165.645188,6299f149e92ead563fba08ef,62a44213b3438070802e02cd,gqtjz,"[""g"",""q"",""t"",""j"",""z""]","[2.837100000023838,5.8267999999523,7.177899999976148,7.725600000023832,9.048700000047688,11.240999999999985]",1,GQTJZ,9,0,9,0,1,,,,,,,,,,,,,,,,,,,,,,,,,,,,,,,,,,,,,,,,,,,,,,,,,,,,,,,,,,,,,,,,,,,,,,,,,,,,,,,,,,,,,,,,,,,
,,,,,,0,0,0,0,1,X V Q F H G B L J M P D K C T S W R N Z,617065189300567757e337a8,20,Mężczyzna,2022-06-11_09h21.14.019,task,2021.1.4,Win32,165.645188,6299f149e92ead563fba08ef,62a44213b3438070802e02cd,,,,,,,,,,,,,,,,,,,,,,,,,,,,,,,,,,,,,,,,,,,,,,,,,,,,,,,,,,,,,,,,,,,,,,,,,,,,,,,,,,,,,,,,,,,,,,,,,,,,,
,,,,,,1,0,1,0,1,X V Q F H G B L J M P D K C T S W R N Z,617065189300567757e337a8,20,Mężczyzna,2022-06-11_09h21.14.019,task,2021.1.4,Win32,165.645188,6299f149e92ead563fba08ef,62a44213b3438070802e02cd,,,,,,,,,,,,,,,,,,,,,,,,,,,,,,,,,,,,,,,,,,,,,,,,,,,,,,,,,,,,,,,,,,,,,,,,,,,,,,,,,,,,,,,,,,,,,,,,,,,,,
,,,,,,2,0,2,0,1,X V Q F H G B L J M P D K C T S W R N Z,617065189300567757e337a8,20,Mężczyzna,2022-06-11_09h21.14.019,task,2021.1.4,Win32,165.645188,6299f149e92ead563fba08ef,62a44213b3438070802e02cd,,,,,,,,,,,,,,,,,,,,,,,,,,,,,,,,,,,,,,,,,,,,,,,,,,,,,,,,,,,,,,,,,,,,,,,,,,,,,,,,,,,,,,,,,,,,,,,,,,,,,
,,,,,,3,0,3,0,1,X V Q F H G B L J M P D K C T S W R N Z,617065189300567757e337a8,20,Mężczyzna,2022-06-11_09h21.14.019,task,2021.1.4,Win32,165.645188,6299f149e92ead563fba08ef,62a44213b3438070802e02cd,,,,,,,,,,,,,,,,,,,,,,,,,,,,,,,,,,,,,,,,,,,,,,,,,,,,,,,,,,,,,,,,,,,,,,,,,,,,,,,,,,,,,,,,,,,,,,,,,,,,,
,,,,,,4,0,4,0,1,X V Q F H G B L J M P D K C T S W R N Z,617065189300567757e337a8,20,Mężczyzna,2022-06-11_09h21.14.019,task,2021.1.4,Win32,165.645188,6299f149e92ead563fba08ef,62a44213b3438070802e02cd,,,,,,,,,,,,,,,,,,,,,,,,,,,,,,,,,,,,,,,,,,,,,,,,,,,,,,,,,,,,,,,,,,,,,,,,,,,,,,,,,,,,,,,,,,,,,,,,,,,,,
,,,,,,,,,,,,617065189300567757e337a8,20,Mężczyzna,2022-06-11_09h21.14.019,task,2021.1.4,Win32,165.645188,6299f149e92ead563fba08ef,62a44213b3438070802e02cd,sbqhq,"[""s"",""b"",""q"",""h"",""q""]","[2.5332000000476853,2.9697000000476805,4.23189999997615,5.045600000023825,5.545500000000004,8.678499999999985]",1,SBQHQ,10,0,10,0,1,,,,,,,,,,,,,,,,,,,,,,,,,,,,,,,,,,,,,,,,,,,,,,,,,,,,,,,,,,,,,,,,,,,,,,,,,,,,,,,,,,,,,,,,,,,
,,,,,,0,0,0,0,1,X V Q F H G B L J M P D K C T S W R N Z,617065189300567757e337a8,20,Mężczyzna,2022-06-11_09h21.14.019,task,2021.1.4,Win32,165.645188,6299f149e92ead563fba08ef,62a44213b3438070802e02cd,,,,,,,,,,,,,,,,,,,,,,,,,,,,,,,,,,,,,,,,,,,,,,,,,,,,,,,,,,,,,,,,,,,,,,,,,,,,,,,,,,,,,,,,,,,,,,,,,,,,,
,,,,,,1,0,1,0,1,X V Q F H G B L J M P D K C T S W R N Z,617065189300567757e337a8,20,Mężczyzna,2022-06-11_09h21.14.019,task,2021.1.4,Win32,165.645188,6299f149e92ead563fba08ef,62a44213b3438070802e02cd,,,,,,,,,,,,,,,,,,,,,,,,,,,,,,,,,,,,,,,,,,,,,,,,,,,,,,,,,,,,,,,,,,,,,,,,,,,,,,,,,,,,,,,,,,,,,,,,,,,,,
,,,,,,2,0,2,0,1,X V Q F H G B L J M P D K C T S W R N Z,617065189300567757e337a8,20,Mężczyzna,2022-06-11_09h21.14.019,task,2021.1.4,Win32,165.645188,6299f149e92ead563fba08ef,62a44213b3438070802e02cd,,,,,,,,,,,,,,,,,,,,,,,,,,,,,,,,,,,,,,,,,,,,,,,,,,,,,,,,,,,,,,,,,,,,,,,,,,,,,,,,,,,,,,,,,,,,,,,,,,,,,
,,,,,,3,0,3,0,1,X V Q F H G B L J M P D K C T S W R N Z,617065189300567757e337a8,20,Mężczyzna,2022-06-11_09h21.14.019,task,2021.1.4,Win32,165.645188,6299f149e92ead563fba08ef,62a44213b3438070802e02cd,,,,,,,,,,,,,,,,,,,,,,,,,,,,,,,,,,,,,,,,,,,,,,,,,,,,,,,,,,,,,,,,,,,,,,,,,,,,,,,,,,,,,,,,,,,,,,,,,,,,,
,,,,,,4,0,4,0,1,X V Q F H G B L J M P D K C T S W R N Z,617065189300567757e337a8,20,Mężczyzna,2022-06-11_09h21.14.019,task,2021.1.4,Win32,165.645188,6299f149e92ead563fba08ef,62a44213b3438070802e02cd,,,,,,,,,,,,,,,,,,,,,,,,,,,,,,,,,,,,,,,,,,,,,,,,,,,,,,,,,,,,,,,,,,,,,,,,,,,,,,,,,,,,,,,,,,,,,,,,,,,,,
,,,,,,5,0,5,0,1,X V Q F H G B L J M P D K C T S W R N Z,617065189300567757e337a8,20,Mężczyzna,2022-06-11_09h21.14.019,task,2021.1.4,Win32,165.645188,6299f149e92ead563fba08ef,62a44213b3438070802e02cd,,,,,,,,,,,,,,,,,,,,,,,,,,,,,,,,,,,,,,,,,,,,,,,,,,,,,,,,,,,,,,,,,,,,,,,,,,,,,,,,,,,,,,,,,,,,,,,,,,,,,
,,,,,,,,,,,,617065189300567757e337a8,20,Mężczyzna,2022-06-11_09h21.14.019,task,2021.1.4,Win32,165.645188,6299f149e92ead563fba08ef,62a44213b3438070802e02cd,wgbcfw,"[""w"",""g"",""b"",""c"",""f"",""w""]","[1.5944999999999823,2.2858000000715037,2.7863999999761404,3.655200000047671,7.396300000071506,8.103300000071528,23.78449999999998]",0,WBGCBF,11,0,11,0,1,,,,,,,,,,,,,,,,,,,,,,,,,,,,,,,,,,,,,,,,,,,,,,,,,,,,,,,,,,,,,,,,,,,,,,,,,,,,,,,,,,,,,,,,,,,
,,,,,,0,0,0,0,1,X V Q F H G B L J M P D K C T S W R N Z,617065189300567757e337a8,20,Mężczyzna,2022-06-11_09h21.14.019,task,2021.1.4,Win32,165.645188,6299f149e92ead563fba08ef,62a44213b3438070802e02cd,,,,,,,,,,,,,,,,,,,,,,,,,,,,,,,,,,,,,,,,,,,,,,,,,,,,,,,,,,,,,,,,,,,,,,,,,,,,,,,,,,,,,,,,,,,,,,,,,,,,,
,,,,,,1,0,1,0,1,X V Q F H G B L J M P D K C T S W R N Z,617065189300567757e337a8,20,Mężczyzna,2022-06-11_09h21.14.019,task,2021.1.4,Win32,165.645188,6299f149e92ead563fba08ef,62a44213b3438070802e02cd,,,,,,,,,,,,,,,,,,,,,,,,,,,,,,,,,,,,,,,,,,,,,,,,,,,,,,,,,,,,,,,,,,,,,,,,,,,,,,,,,,,,,,,,,,,,,,,,,,,,,
,,,,,,2,0,2,0,1,X V Q F H G B L J M P D K C T S W R N Z,617065189300567757e337a8,20,Mężczyzna,2022-06-11_09h21.14.019,task,2021.1.4,Win32,165.645188,6299f149e92ead563fba08ef,62a44213b3438070802e02cd,,,,,,,,,,,,,,,,,,,,,,,,,,,,,,,,,,,,,,,,,,,,,,,,,,,,,,,,,,,,,,,,,,,,,,,,,,,,,,,,,,,,,,,,,,,,,,,,,,,,,
,,,,,,3,0,3,0,1,X V Q F H G B L J M P D K C T S W R N Z,617065189300567757e337a8,20,Mężczyzna,2022-06-11_09h21.14.019,task,2021.1.4,Win32,165.645188,6299f149e92ead563fba08ef,62a44213b3438070802e02cd,,,,,,,,,,,,,,,,,,,,,,,,,,,,,,,,,,,,,,,,,,,,,,,,,,,,,,,,,,,,,,,,,,,,,,,,,,,,,,,,,,,,,,,,,,,,,,,,,,,,,
,,,,,,4,0,4,0,1,X V Q F H G B L J M P D K C T S W R N Z,617065189300567757e337a8,20,Mężczyzna,2022-06-11_09h21.14.019,task,2021.1.4,Win32,165.645188,6299f149e92ead563fba08ef,62a44213b3438070802e02cd,,,,,,,,,,,,,,,,,,,,,,,,,,,,,,,,,,,,,,,,,,,,,,,,,,,,,,,,,,,,,,,,,,,,,,,,,,,,,,,,,,,,,,,,,,,,,,,,,,,,,
,,,,,,5,0,5,0,1,X V Q F H G B L J M P D K C T S W R N Z,617065189300567757e337a8,20,Mężczyzna,2022-06-11_09h21.14.019,task,2021.1.4,Win32,165.645188,6299f149e92ead563fba08ef,62a44213b3438070802e02cd,,,,,,,,,,,,,,,,,,,,,,,,,,,,,,,,,,,,,,,,,,,,,,,,,,,,,,,,,,,,,,,,,,,,,,,,,,,,,,,,,,,,,,,,,,,,,,,,,,,,,
,,,,,,,,,,,,617065189300567757e337a8,20,Mężczyzna,2022-06-11_09h21.14.019,task,2021.1.4,Win32,165.645188,6299f149e92ead563fba08ef,62a44213b3438070802e02cd,vgjhgb,"[""v"",""g"",""j"",""h"",""g"",""b""]","[1.4285000000000139,1.8271000000238473,2.390399999976154,2.9904999999999973,8.55639999997615,8.765799999952321,10.86879999995233]",0,HGJVKD,12,0,12,0,1,,,,,,,,,,,,,,,,,,,,,,,,,,,,,,,,,,,,,,,,,,,,,,,,,,,,,,,,,,,,,,,,,,,,,,,,,,,,,,,,,,,,,,,,,,,
,,,,,,0,0,0,0,1,X V Q F H G B L J M P D K C T S W R N Z,617065189300567757e337a8,20,Mężczyzna,2022-06-11_09h21.14.019,task,2021.1.4,Win32,165.645188,6299f149e92ead563fba08ef,62a44213b3438070802e02cd,,,,,,,,,,,,,,,,,,,,,,,,,,,,,,,,,,,,,,,,,,,,,,,,,,,,,,,,,,,,,,,,,,,,,,,,,,,,,,,,,,,,,,,,,,,,,,,,,,,,,
,,,,,,1,0,1,0,1,X V Q F H G B L J M P D K C T S W R N Z,617065189300567757e337a8,20,Mężczyzna,2022-06-11_09h21.14.019,task,2021.1.4,Win32,165.645188,6299f149e92ead563fba08ef,62a44213b3438070802e02cd,,,,,,,,,,,,,,,,,,,,,,,,,,,,,,,,,,,,,,,,,,,,,,,,,,,,,,,,,,,,,,,,,,,,,,,,,,,,,,,,,,,,,,,,,,,,,,,,,,,,,
,,,,,,2,0,2,0,1,X V Q F H G B L J M P D K C T S W R N Z,617065189300567757e337a8,20,Mężczyzna,2022-06-11_09h21.14.019,task,2021.1.4,Win32,165.645188,6299f149e92ead563fba08ef,62a44213b3438070802e02cd,,,,,,,,,,,,,,,,,,,,,,,,,,,,,,,,,,,,,,,,,,,,,,,,,,,,,,,,,,,,,,,,,,,,,,,,,,,,,,,,,,,,,,,,,,,,,,,,,,,,,
,,,,,,3,0,3,0,1,X V Q F H G B L J M P D K C T S W R N Z,617065189300567757e337a8,20,Mężczyzna,2022-06-11_09h21.14.019,task,2021.1.4,Win32,165.645188,6299f149e92ead563fba08ef,62a44213b3438070802e02cd,,,,,,,,,,,,,,,,,,,,,,,,,,,,,,,,,,,,,,,,,,,,,,,,,,,,,,,,,,,,,,,,,,,,,,,,,,,,,,,,,,,,,,,,,,,,,,,,,,,,,
,,,,,,4,0,4,0,1,X V Q F H G B L J M P D K C T S W R N Z,617065189300567757e337a8,20,Mężczyzna,2022-06-11_09h21.14.019,task,2021.1.4,Win32,165.645188,6299f149e92ead563fba08ef,62a44213b3438070802e02cd,,,,,,,,,,,,,,,,,,,,,,,,,,,,,,,,,,,,,,,,,,,,,,,,,,,,,,,,,,,,,,,,,,,,,,,,,,,,,,,,,,,,,,,,,,,,,,,,,,,,,
,,,,,,5,0,5,0,1,X V Q F H G B L J M P D K C T S W R N Z,617065189300567757e337a8,20,Mężczyzna,2022-06-11_09h21.14.019,task,2021.1.4,Win32,165.645188,6299f149e92ead563fba08ef,62a44213b3438070802e02cd,,,,,,,,,,,,,,,,,,,,,,,,,,,,,,,,,,,,,,,,,,,,,,,,,,,,,,,,,,,,,,,,,,,,,,,,,,,,,,,,,,,,,,,,,,,,,,,,,,,,,
,,,,,,,,,,,,617065189300567757e337a8,20,Mężczyzna,2022-06-11_09h21.14.019,task,2021.1.4,Win32,165.645188,6299f149e92ead563fba08ef,62a44213b3438070802e02cd,flmgbh,"[""f"",""l"",""m"",""g"",""b"",""h""]","[3.024499999999989,3.2879999999999825,3.684900000095354,4.248700000047677,5.697100000023823,5.909800000071527,7.248700000047677]",0,MFLGMH,13,0,13,0,1,,,,,,,,,,,,,,,,,,,,,,,,,,,,,,,,,,,,,,,,,,,,,,,,,,,,,,,,,,,,,,,,,,,,,,,,,,,,,,,,,,,,,,,,,,,
,,,,,,,,,,,,617065189300567757e337a8,20,Mężczyzna,2022-06-11_09h21.14.019,task,2021.1.4,Win32,165.645188,6299f149e92ead563fba08ef,62a44213b3438070802e02cd,,,,,,,,,,,space,114.0668,9,"[""9""]",1,[5.41960000002382],[5.41960000002382],0,0,0,9,1,Practice,10,(20/2) - 1,9,,,,,,,,,,,,,,,,,,,,,,,,,,,,,,,,,,,,,,,,,,,,,,,,,,,,,,,,,,,,,,,,,,,,,,,,,,,
,,,,,,,,,,,,617065189300567757e337a8,20,Mężczyzna,2022-06-11_09h21.14.019,task,2021.1.4,Win32,165.645188,6299f149e92ead563fba08ef,62a44213b3438070802e02cd,,,,,,,,,,,,,0,"[""0""]",1,[2.3567999999523295],"[5.41960000002382,2.3567999999523295]",0,1,1,0,1,Practice,1,(3x3) -  9,0,,,,,,,,,,,,,,,,,,,,,,,,,,,,,,,,,,,,,,,,,,,,,,,,,,,,,,,,,,,,,,,,,,,,,,,,,,,
,,,,,,,,,,,,617065189300567757e337a8,20,Mężczyzna,2022-06-11_09h21.14.019,task,2021.1.4,Win32,165.645188,6299f149e92ead563fba08ef,62a44213b3438070802e02cd,,,,,,,,,,,,,1,"[""1""]",1,[2.237700000047653],"[5.41960000002382,2.3567999999523295,2.237700000047653]",0,2,2,1,1,Practice,2,(4x4) - 15,1,,,,,,,,,,,,,,,,,,,,,,,,,,,,,,,,,,,,,,,,,,,,,,,,,,,,,,,,,,,,,,,,,,,,,,,,,,,
,,,,,,,,,,,,617065189300567757e337a8,20,Mężczyzna,2022-06-11_09h21.14.019,task,2021.1.4,Win32,165.645188,6299f149e92ead563fba08ef,62a44213b3438070802e02cd,,,,,,,,,,,,,2,"[""2""]",1,[2.4410999999046794],"[5.41960000002382,2.3567999999523295,2.237700000047653,2.4410999999046794]",0,3,3,2,1,Practice,3,(4x4) - 14,2,,,,,,,,,,,,,,,,,,,,,,,,,,,,,,,,,,,,,,,,,,,,,,,,,,,,,,,,,,,,,,,,,,,,,,,,,,,
,,,,,,,,,,,,617065189300567757e337a8,20,Mężczyzna,2022-06-11_09h21.14.019,task,2021.1.4,Win32,165.645188,6299f149e92ead563fba08ef,62a44213b3438070802e02cd,,,,,,,,,,,,,6,"[""6""]",1,[3.272700000047678],"[5.41960000002382,2.3567999999523295,2.237700000047653,2.4410999999046794,3.272700000047678]",0,4,4,6,1,Practice,7,(25/5) + 1,6,,,,,,,,,,,,,,,,,,,,,,,,,,,,,,,,,,,,,,,,,,,,,,,,,,,,,,,,,,,,,,,,,,,,,,,,,,,
,,,,,,,,,,,,617065189300567757e337a8,20,Mężczyzna,2022-06-11_09h21.14.019,task,2021.1.4,Win32,165.645188,6299f149e92ead563fba08ef,62a44213b3438070802e02cd,,,,,,,,,,,,,5,"[""5""]",1,[3.053299999952287],"[5.41960000002382,2.3567999999523295,2.237700000047653,2.4410999999046794,3.272700000047678,3.053299999952287]",0,5,5,5,1,Practice,6,(4/2) + 3,5,,,,,,,,,,,,,,,,,,,,,,,,,,,,,,,,,,,,,,,,,,,,,,,,,,,,,,,,,,,,,,,,,,,,,,,,,,,
,,,,,,,,,,,,617065189300567757e337a8,20,Mężczyzna,2022-06-11_09h21.14.019,task,2021.1.4,Win32,165.645188,6299f149e92ead563fba08ef,62a44213b3438070802e02cd,,,,,,,,,,,,,8,"[""8""]",1,[2.5342999999523386],"[5.41960000002382,2.3567999999523295,2.237700000047653,2.4410999999046794,3.272700000047678,3.053299999952287,2.5342999999523386]",0,6,6,8,1,Practice,9,(3x3) - 1,8,,,,,,,,,,,,,,,,,,,,,,,,,,,,,,,,,,,,,,,,,,,,,,,,,,,,,,,,,,,,,,,,,,,,,,,,,,,
,,,,,,,,,,,,617065189300567757e337a8,20,Mężczyzna,2022-06-11_09h21.14.019,task,2021.1.4,Win32,165.645188,6299f149e92ead563fba08ef,62a44213b3438070802e02cd,,,,,,,,,,,,,3,"[""3""]",1,[2.0222000000476896],"[5.41960000002382,2.3567999999523295,2.237700000047653,2.4410999999046794,3.272700000047678,3.053299999952287,2.5342999999523386,2.0222000000476896]",0,7,7,3,1,Practice,4,(8/4) + 1,3,,,,,,,,,,,,,,,,,,,,,,,,,,,,,,,,,,,,,,,,,,,,,,,,,,,,,,,,,,,,,,,,,,,,,,,,,,,
,,,,,,,,,,,,617065189300567757e337a8,20,Mężczyzna,2022-06-11_09h21.14.019,task,2021.1.4,Win32,165.645188,6299f149e92ead563fba08ef,62a44213b3438070802e02cd,,,,,,,,,,,,,4,"[""4""]",1,[3.1822999999523063],"[5.41960000002382,2.3567999999523295,2.237700000047653,2.4410999999046794,3.272700000047678,3.053299999952287,2.5342999999523386,2.0222000000476896,3.1822999999523063]",0,8,8,4,1,Practice,5,(2x6) - 8,4,,,,,,,,,,,,,,,,,,,,,,,,,,,,,,,,,,,,,,,,,,,,,,,,,,,,,,,,,,,,,,,,,,,,,,,,,,,
,,,,,,,,,,,,617065189300567757e337a8,20,Mężczyzna,2022-06-11_09h21.14.019,task,2021.1.4,Win32,165.645188,6299f149e92ead563fba08ef,62a44213b3438070802e02cd,,,,,,,,,,,,,7,"[""7""]",1,[3.4135999999046476],"[5.41960000002382,2.3567999999523295,2.237700000047653,2.4410999999046794,3.272700000047678,3.053299999952287,2.5342999999523386,2.0222000000476896,3.1822999999523063,3.4135999999046476]",0,9,9,7,1,Practice,8,(5x5) - 18,7,,,,,,,,,,,,,,,,,,,,,,,,,,,,,,,,,,,,,,,,,,,,,,,,,,,,,,,,,,,,,,,,,,,,,,,,,,,
,,,,,,,,,,,,617065189300567757e337a8,20,Mężczyzna,2022-06-11_09h21.14.019,task,2021.1.4,Win32,165.645188,6299f149e92ead563fba08ef,62a44213b3438070802e02cd,,,,,,,,,,,,,,,,,,,,,,,,,,,1,29.9336,1.995573333,18.57145609,1.112698105,4.866334444,space,7.3416,0,0,0,0,1,,,,,,,,,,,,,,,,,,,,,,,,,,,,,,,,,,,,,,,,,,,,,,,,,,,,,,,,,,,,,,
,,,,,,,,,,,,617065189300567757e337a8,20,Mężczyzna,2022-06-11_09h21.14.019,task,2021.1.4,Win32,165.645188,6299f149e92ead563fba08ef,62a44213b3438070802e02cd,,,,,,,,,,,,,1,,,,,,,,,,Practice,2,(4x4) - 15,1,,,,,,,,,,,,,,space,31.5269,"[""1""]",1,[2.4490000000000123],1,0,0,0,1,1,,,,,,,,,,,,,,,,,,,,,,,,,,,,,,,,,,,,,,,,,,,,,,,,,,,
,,,,,,,,,,,X V Q F H G B L J M P D K C T S W R N Z,617065189300567757e337a8,20,Mężczyzna,2022-06-11_09h21.14.019,task,2021.1.4,Win32,165.645188,6299f149e92ead563fba08ef,62a44213b3438070802e02cd,,,,,,,,,,,,,,,,,,,,,,,,,,,,,,,,,,,,,,,,,,,,,,,,,,,0,0,0,0,1,,,,,,,,,,,,,,,,,,,,,,,,,,,,,,,,,,,,,,,,,,,,,,
,,,,,,,,,,,,617065189300567757e337a8,20,Mężczyzna,2022-06-11_09h21.14.019,task,2021.1.4,Win32,165.645188,6299f149e92ead563fba08ef,62a44213b3438070802e02cd,,,,,,,,,,,,,6,,,,,,,,,,Practice,7,(25/5) + 1,6,,,,,,,,,,,,,,,,"[""6""]",1,[4.485699999928499],1,0,0,0,6,1,,,,,,,,,,,,,,,,,,,,,,,,,,,,,,,,,,,,,,,,,,,,,,,,,,,
,,,,,,,,,,,X V Q F H G B L J M P D K C T S W R N Z,617065189300567757e337a8,20,Mężczyzna,2022-06-11_09h21.14.019,task,2021.1.4,Win32,165.645188,6299f149e92ead563fba08ef,62a44213b3438070802e02cd,,,,,,,,,,,,,,,,,,,,,,,,,,,,,,,,,,,,,,,,,,,,,,,,,,,1,0,1,0,1,,,,,,,,,,,,,,,,,,,,,,,,,,,,,,,,,,,,,,,,,,,,,,
,,,,,,,,,,,,617065189300567757e337a8,20,Mężczyzna,2022-06-11_09h21.14.019,task,2021.1.4,Win32,165.645188,6299f149e92ead563fba08ef,62a44213b3438070802e02cd,,,,,,,,,,,,,,,,,,,,,,,,,,,,,,,,,,,,,,,,,,,,,,,,,,,,,,,,zh,"[""z"",""h""]",0,"[2.8485000000000014,3.0228999999761754,6.062000000000012]",1,0,0,0,0,1,,,,,,,,,,,,,,,,,,,,,,,,,,,,,,,,,,,,
,,,,,,,,,,,,617065189300567757e337a8,20,Mężczyzna,2022-06-11_09h21.14.019,task,2021.1.4,Win32,165.645188,6299f149e92ead563fba08ef,62a44213b3438070802e02cd,,,,,,,,,,,,,9,,,,,,,,,,Practice,10,(20/2) - 1,9,,,,,,,,,,,,,,,,"[""9""]",1,[2.3440999999046426],1,0,0,0,9,1,,,,,,,,,,,,,,,,,,,,,,,,,,,,,,,,,,,,,,,,,,,,,,,,,,,
,,,,,,,,,,,X V Q F H G B L J M P D K C T S W R N Z,617065189300567757e337a8,20,Mężczyzna,2022-06-11_09h21.14.019,task,2021.1.4,Win32,165.645188,6299f149e92ead563fba08ef,62a44213b3438070802e02cd,,,,,,,,,,,,,,,,,,,,,,,,,,,,,,,,,,,,,,,,,,,,,,,,,,,0,0,0,0,1,,,,,,,,,,,,,,,,,,,,,,,,,,,,,,,,,,,,,,,,,,,,,,
,,,,,,,,,,,,617065189300567757e337a8,20,Mężczyzna,2022-06-11_09h21.14.019,task,2021.1.4,Win32,165.645188,6299f149e92ead563fba08ef,62a44213b3438070802e02cd,,,,,,,,,,,,,5,,,,,,,,,,Practice,6,(4/2) + 3,5,,,,,,,,,,,,,,,,"[""5""]",1,[2.141700000047649],1,0,0,0,5,1,,,,,,,,,,,,,,,,,,,,,,,,,,,,,,,,,,,,,,,,,,,,,,,,,,,
,,,,,,,,,,,X V Q F H G B L J M P D K C T S W R N Z,617065189300567757e337a8,20,Mężczyzna,2022-06-11_09h21.14.019,task,2021.1.4,Win32,165.645188,6299f149e92ead563fba08ef,62a44213b3438070802e02cd,,,,,,,,,,,,,,,,,,,,,,,,,,,,,,,,,,,,,,,,,,,,,,,,,,,1,0,1,0,1,,,,,,,,,,,,,,,,,,,,,,,,,,,,,,,,,,,,,,,,,,,,,,
,,,,,,,,,,,,617065189300567757e337a8,20,Mężczyzna,2022-06-11_09h21.14.019,task,2021.1.4,Win32,165.645188,6299f149e92ead563fba08ef,62a44213b3438070802e02cd,,,,,,,,,,,,,,,,,,,,,,,,,,,,,,,,,,,,,,,,,,,,,,,,,,,,,,,,dh,"[""d"",""h""]",0,"[2.006500000000017,2.0916000000238455,3.598000000000013]",1,1,0,1,0,1,,,,,,,,,,,,,,,,,,,,,,,,,,,,,,,,,,,,
,,,,,,,,,,,,617065189300567757e337a8,20,Mężczyzna,2022-06-11_09h21.14.019,task,2021.1.4,Win32,165.645188,6299f149e92ead563fba08ef,62a44213b3438070802e02cd,,,,,,,,,,,,,9,,,,,,,,,,Practice,10,(20/2) - 1,9,,,,,,,,,,,,,,,,"[""9""]",1,[2.225399999976162],1,0,0,0,9,1,,,,,,,,,,,,,,,,,,,,,,,,,,,,,,,,,,,,,,,,,,,,,,,,,,,
,,,,,,,,,,,X V Q F H G B L J M P D K C T S W R N Z,617065189300567757e337a8,20,Mężczyzna,2022-06-11_09h21.14.019,task,2021.1.4,Win32,165.645188,6299f149e92ead563fba08ef,62a44213b3438070802e02cd,,,,,,,,,,,,,,,,,,,,,,,,,,,,,,,,,,,,,,,,,,,,,,,,,,,0,0,0,0,1,,,,,,,,,,,,,,,,,,,,,,,,,,,,,,,,,,,,,,,,,,,,,,
,,,,,,,,,,,,617065189300567757e337a8,20,Mężczyzna,2022-06-11_09h21.14.019,task,2021.1.4,Win32,165.645188,6299f149e92ead563fba08ef,62a44213b3438070802e02cd,,,,,,,,,,,,,5,,,,,,,,,,Practice,6,(4/2) + 3,5,,,,,,,,,,,,,,,,"[""5""]",1,[1.9912000000476837],1,0,0,0,5,1,,,,,,,,,,,,,,,,,,,,,,,,,,,,,,,,,,,,,,,,,,,,,,,,,,,
,,,,,,,,,,,X V Q F H G B L J M P D K C T S W R N Z,617065189300567757e337a8,20,Mężczyzna,2022-06-11_09h21.14.019,task,2021.1.4,Win32,165.645188,6299f149e92ead563fba08ef,62a44213b3438070802e02cd,,,,,,,,,,,,,,,,,,,,,,,,,,,,,,,,,,,,,,,,,,,,,,,,,,,1,0,1,0,1,,,,,,,,,,,,,,,,,,,,,,,,,,,,,,,,,,,,,,,,,,,,,,
,,,,,,,,,,,,617065189300567757e337a8,20,Mężczyzna,2022-06-11_09h21.14.019,task,2021.1.4,Win32,165.645188,6299f149e92ead563fba08ef,62a44213b3438070802e02cd,,,,,,,,,,,,,,,,,,,,,,,,,,,,,,,,,,,,,,,,,,,,,,,,,,,,,,,,pj,"[""p"",""j""]",0,"[1.8168000000715097,2.150900000095362,2.876700000047663]",1,2,0,2,0,1,,,,,,,,,,,,,,,,,,,,,,,,,,,,,,,,,,,,
,,,,,,,,,,,,617065189300567757e337a8,20,Mężczyzna,2022-06-11_09h21.14.019,task,2021.1.4,Win32,165.645188,6299f149e92ead563fba08ef,62a44213b3438070802e02cd,,,,,,,,,,,,,6,,,,,,,,,,Task,5,(2x3) + 0,6,,,,,,,,,,,,,,,,,,,1,,,,,,,,,,,,,,,,,,,,,space,35.4481,"[""6""]",1,[4.213400000095476],0,0,0,4,1,,,,,,,,,,,,,,,,,,,,,,,,,,
,,,,,,,,,,,X V Q F H G B L J M P D K C T S W R N Z,617065189300567757e337a8,20,Mężczyzna,2022-06-11_09h21.14.019,task,2021.1.4,Win32,165.645188,6299f149e92ead563fba08ef,62a44213b3438070802e02cd,,,,,,,,,,,,,,,,,,,,,,,,,,,,,,,,,,,,,,,,,,,,,,,,,,,,,,,,,,,,,,,,,,,,,,,,,,,,0,0,0,0,1,,,,,,,,,,,,,,,,,,,,,
,,,,,,,,,,,,617065189300567757e337a8,20,Mężczyzna,2022-06-11_09h21.14.019,task,2021.1.4,Win32,165.645188,6299f149e92ead563fba08ef,62a44213b3438070802e02cd,,,,,,,,,,,,,2,,,,,,,,,,Task,2,(2x2) - 2,2,,,,,,,,,,,,,,,,,,,1,,,,,,,,,,,,,,,,,,,,,,,"[""2""]",1,[2.5541000000238228],0,0,0,1,1,,,,,,,,,,,,,,,,,,,,,,,,,,
,,,,,,,,,,,X V Q F H G B L J M P D K C T S W R N Z,617065189300567757e337a8,20,Mężczyzna,2022-06-11_09h21.14.019,task,2021.1.4,Win32,165.645188,6299f149e92ead563fba08ef,62a44213b3438070802e02cd,,,,,,,,,,,,,,,,,,,,,,,,,,,,,,,,,,,,,,,,,,,,,,,,,,,,,,,,,,,,,,,,,,,,,,,,,,,,1,0,1,0,1,,,,,,,,,,,,,,,,,,,,,
,,,,,,,,,,,,617065189300567757e337a8,20,Mężczyzna,2022-06-11_09h21.14.019,task,2021.1.4,Win32,165.645188,6299f149e92ead563fba08ef,62a44213b3438070802e02cd,,,,,,,,,,,,,,,,,,,,,,,,,,,,,,,,,,,,,,,,,,,,,,,,,,,,,,,,,,,,,,,,,,,,,,,,,,,,,,,,,zx,"[""z"",""x""]",0,"[1.3939000000954138,2.2062000000477155,3.0529000000954056]",1,ZX,0,0,0,0,1,,,,,,,,,,
,,,,,,,,,,,,617065189300567757e337a8,20,Mężczyzna,2022-06-11_09h21.14.019,task,2021.1.4,Win32,165.645188,6299f149e92ead563fba08ef,62a44213b3438070802e02cd,,,,,,,,,,,,,1,,,,,,,,,,Task,34,(9/3) - 2,1,,,,,,,,,,,,,,,,,,,1,,,,,,,,,,,,,,,,,,,,,,,"[""1""]",1,[3.788200000047709],0,0,0,33,1,,,,,,,,,,,,,,,,,,,,,,,,,,
,,,,,,,,,,,X V Q F H G B L J M P D K C T S W R N Z,617065189300567757e337a8,20,Mężczyzna,2022-06-11_09h21.14.019,task,2021.1.4,Win32,165.645188,6299f149e92ead563fba08ef,62a44213b3438070802e02cd,,,,,,,,,,,,,,,,,,,,,,,,,,,,,,,,,,,,,,,,,,,,,,,,,,,,,,,,,,,,,,,,,,,,,,,,,,,,0,0,0,0,1,,,,,,,,,,,,,,,,,,,,,
,,,,,,,,,,,,617065189300567757e337a8,20,Mężczyzna,2022-06-11_09h21.14.019,task,2021.1.4,Win32,165.645188,6299f149e92ead563fba08ef,62a44213b3438070802e02cd,,,,,,,,,,,,,9,,,,,,,,,,Task,24,(2x2) + 5,9,,,,,,,,,,,,,,,,,,,1,,,,,,,,,,,,,,,,,,,,,,,"[""9""]",1,[2.6787999999522754],0,0,0,23,1,,,,,,,,,,,,,,,,,,,,,,,,,,
,,,,,,,,,,,X V Q F H G B L J M P D K C T S W R N Z,617065189300567757e337a8,20,Mężczyzna,2022-06-11_09h21.14.019,task,2021.1.4,Win32,165.645188,6299f149e92ead563fba08ef,62a44213b3438070802e02cd,,,,,,,,,,,,,,,,,,,,,,,,,,,,,,,,,,,,,,,,,,,,,,,,,,,,,,,,,,,,,,,,,,,,,,,,,,,,1,0,1,0,1,,,,,,,,,,,,,,,,,,,,,
,,,,,,,,,,,,617065189300567757e337a8,20,Mężczyzna,2022-06-11_09h21.14.019,task,2021.1.4,Win32,165.645188,6299f149e92ead563fba08ef,62a44213b3438070802e02cd,,,,,,,,,,,,,,,,,,,,,,,Task,3,(2x3) - 3,3,,,,,,,,,,,,,,,,,,,0,,,,,,,,,,,,,,,,,,,,,,,,0,,0,0,0,2,1,,,,,,,,,,,,,,,,,,,,,,,,,,
,,,,,,,,,,,,617065189300567757e337a8,20,Mężczyzna,2022-06-11_09h21.14.019,task,2021.1.4,Win32,165.645188,6299f149e92ead563fba08ef,62a44213b3438070802e02cd,,,,,,,,,,,,,2,,,,,,,,,,Task,2,(2x2) - 2,2,,,,,,,,,,,,,,,,,,,1,,,,,,,,,,,,,,,,,,,,,,,"[""2""]",1,[2.58949999999993],0,1,1,1,1,,,,,,,,,,,,,,,,,,,,,,,,,,
,,,,,,,,,,,X V Q F H G B L J M P D K C T S W R N Z,617065189300567757e337a8,20,Mężczyzna,2022-06-11_09h21.14.019,task,2021.1.4,Win32,165.645188,6299f149e92ead563fba08ef,62a44213b3438070802e02cd,,,,,,,,,,,,,,,,,,,,,,,,,,,,,,,,,,,,,,,,,,,,,,,,,,,,,,,,,,,,,,,,,,,,,,,,,,,,2,0,2,0,1,,,,,,,,,,,,,,,,,,,,,
,,,,,,,,,,,,617065189300567757e337a8,20,Mężczyzna,2022-06-11_09h21.14.019,task,2021.1.4,Win32,165.645188,6299f149e92ead563fba08ef,62a44213b3438070802e02cd,,,,,,,,,,,,,,,,,,,,,,,,,,,,,,,,,,,,,,,,,,,,,,,,,,,,,,,,,,,,,,,,,,,,,,,,,,,,,,,,,qmh,"[""q"",""m"",""h""]",0,"[2.204200000047649,2.5231000000238737,3.2889999999999873,4.348700000047643]",1,QMH,1,0,1,0,1,,,,,,,,,,
,,,,,,,,,,,,617065189300567757e337a8,20,Mężczyzna,2022-06-11_09h21.14.019,task,2021.1.4,Win32,165.645188,6299f149e92ead563fba08ef,62a44213b3438070802e02cd,,,,,,,,,,,,,8,,,,,,,,,,Task,23,(2x3) + 2,8,,,,,,,,,,,,,,,,,,,1,,,,,,,,,,,,,,,,,,,,,,,"[""8""]",1,[3.6552999999523763],0,0,0,22,1,,,,,,,,,,,,,,,,,,,,,,,,,,
,,,,,,,,,,,X V Q F H G B L J M P D K C T S W R N Z,617065189300567757e337a8,20,Mężczyzna,2022-06-11_09h21.14.019,task,2021.1.4,Win32,165.645188,6299f149e92ead563fba08ef,62a44213b3438070802e02cd,,,,,,,,,,,,,,,,,,,,,,,,,,,,,,,,,,,,,,,,,,,,,,,,,,,,,,,,,,,,,,,,,,,,,,,,,,,,0,0,0,0,1,,,,,,,,,,,,,,,,,,,,,
,,,,,,,,,,,,617065189300567757e337a8,20,Mężczyzna,2022-06-11_09h21.14.019,task,2021.1.4,Win32,165.645188,6299f149e92ead563fba08ef,62a44213b3438070802e02cd,,,,,,,,,,,,,6,,,,,,,,,,Task,30,(6/3) + 4 ,6,,,,,,,,,,,,,,,,,,,1,,,,,,,,,,,,,,,,,,,,,,,"[""6""]",1,[3.033300000071563],0,0,0,29,1,,,,,,,,,,,,,,,,,,,,,,,,,,
,,,,,,,,,,,X V Q F H G B L J M P D K C T S W R N Z,617065189300567757e337a8,20,Mężczyzna,2022-06-11_09h21.14.019,task,2021.1.4,Win32,165.645188,6299f149e92ead563fba08ef,62a44213b3438070802e02cd,,,,,,,,,,,,,,,,,,,,,,,,,,,,,,,,,,,,,,,,,,,,,,,,,,,,,,,,,,,,,,,,,,,,,,,,,,,,1,0,1,0,1,,,,,,,,,,,,,,,,,,,,,
,,,,,,,,,,,,617065189300567757e337a8,20,Mężczyzna,2022-06-11_09h21.14.019,task,2021.1.4,Win32,165.645188,6299f149e92ead563fba08ef,62a44213b3438070802e02cd,,,,,,,,,,,,,2,,,,,,,,,,Task,10,(2x5) - 8,2,,,,,,,,,,,,,,,,,,,1,,,,,,,,,,,,,,,,,,,,,,,"[""2""]",1,[2.4050000000000864],0,0,0,9,1,,,,,,,,,,,,,,,,,,,,,,,,,,
,,,,,,,,,,,X V Q F H G B L J M P D K C T S W R N Z,617065189300567757e337a8,20,Mężczyzna,2022-06-11_09h21.14.019,task,2021.1.4,Win32,165.645188,6299f149e92ead563fba08ef,62a44213b3438070802e02cd,,,,,,,,,,,,,,,,,,,,,,,,,,,,,,,,,,,,,,,,,,,,,,,,,,,,,,,,,,,,,,,,,,,,,,,,,,,,2,0,2,0,1,,,,,,,,,,,,,,,,,,,,,
,,,,,,,,,,,,617065189300567757e337a8,20,Mężczyzna,2022-06-11_09h21.14.019,task,2021.1.4,Win32,165.645188,6299f149e92ead563fba08ef,62a44213b3438070802e02cd,,,,,,,,,,,,,5,,,,,,,,,,Task,22,(3x1) + 2,5,,,,,,,,,,,,,,,,,,,1,,,,,,,,,,,,,,,,,,,,,,,"[""5""]",1,[4.217400000095381],0,0,0,21,1,,,,,,,,,,,,,,,,,,,,,,,,,,
,,,,,,,,,,,X V Q F H G B L J M P D K C T S W R N Z,617065189300567757e337a8,20,Mężczyzna,2022-06-11_09h21.14.019,task,2021.1.4,Win32,165.645188,6299f149e92ead563fba08ef,62a44213b3438070802e02cd,,,,,,,,,,,,,,,,,,,,,,,,,,,,,,,,,,,,,,,,,,,,,,,,,,,,,,,,,,,,,,,,,,,,,,,,,,,,3,0,3,0,1,,,,,,,,,,,,,,,,,,,,,
,,,,,,,,,,,,617065189300567757e337a8,20,Mężczyzna,2022-06-11_09h21.14.019,task,2021.1.4,Win32,165.645188,6299f149e92ead563fba08ef,62a44213b3438070802e02cd,,,,,,,,,,,,,,,,,,,,,,,,,,,,,,,,,,,,,,,,,,,,,,,,,,,,,,,,,,,,,,,,,,,,,,,,,,,,,,,,,hqvc,"[""h"",""q"",""v"",""c""]",0,"[1.8641999999284735,2.560699999928488,3.4992999999523136,4.273000000000025,5.462299999952279]",1,HQVC,2,0,2,0,1,,,,,,,,,,
,,,,,,,,,,,,617065189300567757e337a8,20,Mężczyzna,2022-06-11_09h21.14.019,task,2021.1.4,Win32,165.645188,6299f149e92ead563fba08ef,62a44213b3438070802e02cd,,,,,,,,,,,,,,,,,,,,,,,Task,11,(18/3) - 2,4,,,,,,,,,,,,,,,,,,,0,,,,,,,,,,,,,,,,,,,,,,,,0,,0,0,0,10,1,,,,,,,,,,,,,,,,,,,,,,,,,,
,,,,,,,,,,,,617065189300567757e337a8,20,Mężczyzna,2022-06-11_09h21.14.019,task,2021.1.4,Win32,165.645188,6299f149e92ead563fba08ef,62a44213b3438070802e02cd,,,,,,,,,,,,,6,,,,,,,,,,Task,13,(3x4) - 6,6,,,,,,,,,,,,,,,,,,,1,,,,,,,,,,,,,,,,,,,,,,,"[""6""]",1,[3.1259999999999764],0,1,1,12,1,,,,,,,,,,,,,,,,,,,,,,,,,,
,,,,,,,,,,,X V Q F H G B L J M P D K C T S W R N Z,617065189300567757e337a8,20,Mężczyzna,2022-06-11_09h21.14.019,task,2021.1.4,Win32,165.645188,6299f149e92ead563fba08ef,62a44213b3438070802e02cd,,,,,,,,,,,,,,,,,,,,,,,,,,,,,,,,,,,,,,,,,,,,,,,,,,,,,,,,,,,,,,,,,,,,,,,,,,,,0,0,0,0,1,,,,,,,,,,,,,,,,,,,,,
,,,,,,,,,,,,617065189300567757e337a8,20,Mężczyzna,2022-06-11_09h21.14.019,task,2021.1.4,Win32,165.645188,6299f149e92ead563fba08ef,62a44213b3438070802e02cd,,,,,,,,,,,,,7,,,,,,,,,,Task,14,(2x2) + 3,7,,,,,,,,,,,,,,,,,,,1,,,,,,,,,,,,,,,,,,,,,,,"[""7""]",1,[2.3677999999523536],0,0,0,13,1,,,,,,,,,,,,,,,,,,,,,,,,,,
,,,,,,,,,,,X V Q F H G B L J M P D K C T S W R N Z,617065189300567757e337a8,20,Mężczyzna,2022-06-11_09h21.14.019,task,2021.1.4,Win32,165.645188,6299f149e92ead563fba08ef,62a44213b3438070802e02cd,,,,,,,,,,,,,,,,,,,,,,,,,,,,,,,,,,,,,,,,,,,,,,,,,,,,,,,,,,,,,,,,,,,,,,,,,,,,1,0,1,0,1,,,,,,,,,,,,,,,,,,,,,
,,,,,,,,,,,,617065189300567757e337a8,20,Mężczyzna,2022-06-11_09h21.14.019,task,2021.1.4,Win32,165.645188,6299f149e92ead563fba08ef,62a44213b3438070802e02cd,,,,,,,,,,,,,2,,,,,,,,,,Task,10,(2x5) - 8,2,,,,,,,,,,,,,,,,,,,1,,,,,,,,,,,,,,,,,,,,,,,"[""2""]",1,[1.9388000000715238],0,0,0,9,1,,,,,,,,,,,,,,,,,,,,,,,,,,
,,,,,,,,,,,X V Q F H G B L J M P D K C T S W R N Z,617065189300567757e337a8,20,Mężczyzna,2022-06-11_09h21.14.019,task,2021.1.4,Win32,165.645188,6299f149e92ead563fba08ef,62a44213b3438070802e02cd,,,,,,,,,,,,,,,,,,,,,,,,,,,,,,,,,,,,,,,,,,,,,,,,,,,,,,,,,,,,,,,,,,,,,,,,,,,,2,0,2,0,1,,,,,,,,,,,,,,,,,,,,,
,,,,,,,,,,,,617065189300567757e337a8,20,Mężczyzna,2022-06-11_09h21.14.019,task,2021.1.4,Win32,165.645188,6299f149e92ead563fba08ef,62a44213b3438070802e02cd,,,,,,,,,,,,,0,,,,,,,,,,Task,8,(1x5) - 5,0,,,,,,,,,,,,,,,,,,,1,,,,,,,,,,,,,,,,,,,,,,,"[""0""]",1,[2.2593999999762673],0,0,0,7,1,,,,,,,,,,,,,,,,,,,,,,,,,,
,,,,,,,,,,,X V Q F H G B L J M P D K C T S W R N Z,617065189300567757e337a8,20,Mężczyzna,2022-06-11_09h21.14.019,task,2021.1.4,Win32,165.645188,6299f149e92ead563fba08ef,62a44213b3438070802e02cd,,,,,,,,,,,,,,,,,,,,,,,,,,,,,,,,,,,,,,,,,,,,,,,,,,,,,,,,,,,,,,,,,,,,,,,,,,,,3,0,3,0,1,,,,,,,,,,,,,,,,,,,,,
,,,,,,,,,,,,617065189300567757e337a8,20,Mężczyzna,2022-06-11_09h21.14.019,task,2021.1.4,Win32,165.645188,6299f149e92ead563fba08ef,62a44213b3438070802e02cd,,,,,,,,,,,,,0,,,,,,,,,,Task,33,(1/1) - 1,0,,,,,,,,,,,,,,,,,,,1,,,,,,,,,,,,,,,,,,,,,,,"[""0""]",1,[1.9552999999523308],0,0,0,32,1,,,,,,,,,,,,,,,,,,,,,,,,,,
,,,,,,,,,,,X V Q F H G B L J M P D K C T S W R N Z,617065189300567757e337a8,20,Mężczyzna,2022-06-11_09h21.14.019,task,2021.1.4,Win32,165.645188,6299f149e92ead563fba08ef,62a44213b3438070802e02cd,,,,,,,,,,,,,,,,,,,,,,,,,,,,,,,,,,,,,,,,,,,,,,,,,,,,,,,,,,,,,,,,,,,,,,,,,,,,4,0,4,0,1,,,,,,,,,,,,,,,,,,,,,
,,,,,,,,,,,,617065189300567757e337a8,20,Mężczyzna,2022-06-11_09h21.14.019,task,2021.1.4,Win32,165.645188,6299f149e92ead563fba08ef,62a44213b3438070802e02cd,,,,,,,,,,,,,,,,,,,,,,,,,,,,,,,,,,,,,,,,,,,,,,,,,,,,,,,,,,,,,,,,,,,,,,,,,,,,,,,,,qxbvb,"[""q"",""x"",""b"",""v"",""b""]",0,"[1.456900000095402,6.86850000000004,7.249500000000012,7.638600000023871,7.793800000071542,8.703500000000076]",1,QXBVB,3,0,3,0,1,,,,,,,,,,
,,,,,,,,,,,,617065189300567757e337a8,20,Mężczyzna,2022-06-11_09h21.14.019,task,2021.1.4,Win32,165.645188,6299f149e92ead563fba08ef,62a44213b3438070802e02cd,,,,,,,,,,,,,9,,,,,,,,,,Task,24,(2x2) + 5,9,,,,,,,,,,,,,,,,,,,1,,,,,,,,,,,,,,,,,,,,,,,"[""9""]",1,[2.764799999952288],0,0,0,23,1,,,,,,,,,,,,,,,,,,,,,,,,,,
,,,,,,,,,,,X V Q F H G B L J M P D K C T S W R N Z,617065189300567757e337a8,20,Mężczyzna,2022-06-11_09h21.14.019,task,2021.1.4,Win32,165.645188,6299f149e92ead563fba08ef,62a44213b3438070802e02cd,,,,,,,,,,,,,,,,,,,,,,,,,,,,,,,,,,,,,,,,,,,,,,,,,,,,,,,,,,,,,,,,,,,,,,,,,,,,0,0,0,0,1,,,,,,,,,,,,,,,,,,,,,
,,,,,,,,,,,,617065189300567757e337a8,20,Mężczyzna,2022-06-11_09h21.14.019,task,2021.1.4,Win32,165.645188,6299f149e92ead563fba08ef,62a44213b3438070802e02cd,,,,,,,,,,,,,9,,,,,,,,,,Task,24,(2x2) + 5,9,,,,,,,,,,,,,,,,,,,1,,,,,,,,,,,,,,,,,,,,,,,"[""9""]",1,[1.576100000023871],0,0,0,23,1,,,,,,,,,,,,,,,,,,,,,,,,,,
,,,,,,,,,,,X V Q F H G B L J M P D K C T S W R N Z,617065189300567757e337a8,20,Mężczyzna,2022-06-11_09h21.14.019,task,2021.1.4,Win32,165.645188,6299f149e92ead563fba08ef,62a44213b3438070802e02cd,,,,,,,,,,,,,,,,,,,,,,,,,,,,,,,,,,,,,,,,,,,,,,,,,,,,,,,,,,,,,,,,,,,,,,,,,,,,1,0,1,0,1,,,,,,,,,,,,,,,,,,,,,
,,,,,,,,,,,,617065189300567757e337a8,20,Mężczyzna,2022-06-11_09h21.14.019,task,2021.1.4,Win32,165.645188,6299f149e92ead563fba08ef,62a44213b3438070802e02cd,,,,,,,,,,,,,4,,,,,,,,,,Task,4,(1x5) - 1,4,,,,,,,,,,,,,,,,,,,1,,,,,,,,,,,,,,,,,,,,,,,"[""4""]",1,[2.4612000000475973],0,0,0,3,1,,,,,,,,,,,,,,,,,,,,,,,,,,
,,,,,,,,,,,X V Q F H G B L J M P D K C T S W R N Z,617065189300567757e337a8,20,Mężczyzna,2022-06-11_09h21.14.019,task,2021.1.4,Win32,165.645188,6299f149e92ead563fba08ef,62a44213b3438070802e02cd,,,,,,,,,,,,,,,,,,,,,,,,,,,,,,,,,,,,,,,,,,,,,,,,,,,,,,,,,,,,,,,,,,,,,,,,,,,,2,0,2,0,1,,,,,,,,,,,,,,,,,,,,,
,,,,,,,,,,,,617065189300567757e337a8,20,Mężczyzna,2022-06-11_09h21.14.019,task,2021.1.4,Win32,165.645188,6299f149e92ead563fba08ef,62a44213b3438070802e02cd,,,,,,,,,,,,,9,,,,,,,,,,Task,16,(3x8) - 15,9,,,,,,,,,,,,,,,,,,,1,,,,,,,,,,,,,,,,,,,,,,,"[""9""]",1,[4.614500000000021],0,0,0,15,1,,,,,,,,,,,,,,,,,,,,,,,,,,
,,,,,,,,,,,X V Q F H G B L J M P D K C T S W R N Z,617065189300567757e337a8,20,Mężczyzna,2022-06-11_09h21.14.019,task,2021.1.4,Win32,165.645188,6299f149e92ead563fba08ef,62a44213b3438070802e02cd,,,,,,,,,,,,,,,,,,,,,,,,,,,,,,,,,,,,,,,,,,,,,,,,,,,,,,,,,,,,,,,,,,,,,,,,,,,,3,0,3,0,1,,,,,,,,,,,,,,,,,,,,,
,,,,,,,,,,,,617065189300567757e337a8,20,Mężczyzna,2022-06-11_09h21.14.019,task,2021.1.4,Win32,165.645188,6299f149e92ead563fba08ef,62a44213b3438070802e02cd,,,,,,,,,,,,,6,,,,,,,,,,Task,30,(6/3) + 4 ,6,,,,,,,,,,,,,,,,,,,1,,,,,,,,,,,,,,,,,,,,,,,"[""6""]",1,[3.0719000000952974],0,0,0,29,1,,,,,,,,,,,,,,,,,,,,,,,,,,
,,,,,,,,,,,X V Q F H G B L J M P D K C T S W R N Z,617065189300567757e337a8,20,Mężczyzna,2022-06-11_09h21.14.019,task,2021.1.4,Win32,165.645188,6299f149e92ead563fba08ef,62a44213b3438070802e02cd,,,,,,,,,,,,,,,,,,,,,,,,,,,,,,,,,,,,,,,,,,,,,,,,,,,,,,,,,,,,,,,,,,,,,,,,,,,,4,0,4,0,1,,,,,,,,,,,,,,,,,,,,,
,,,,,,,,,,,,617065189300567757e337a8,20,Mężczyzna,2022-06-11_09h21.14.019,task,2021.1.4,Win32,165.645188,6299f149e92ead563fba08ef,62a44213b3438070802e02cd,,,,,,,,,,,,,3,,,,,,,,,,Task,20,(18/9) + 1,3,,,,,,,,,,,,,,,,,,,1,,,,,,,,,,,,,,,,,,,,,,,"[""3""]",1,[3.8728999999760845],0,0,0,19,1,,,,,,,,,,,,,,,,,,,,,,,,,,
,,,,,,,,,,,X V Q F H G B L J M P D K C T S W R N Z,617065189300567757e337a8,20,Mężczyzna,2022-06-11_09h21.14.019,task,2021.1.4,Win32,165.645188,6299f149e92ead563fba08ef,62a44213b3438070802e02cd,,,,,,,,,,,,,,,,,,,,,,,,,,,,,,,,,,,,,,,,,,,,,,,,,,,,,,,,,,,,,,,,,,,,,,,,,,,,5,0,5,0,1,,,,,,,,,,,,,,,,,,,,,
,,,,,,,,,,,,617065189300567757e337a8,20,Mężczyzna,2022-06-11_09h21.14.019,task,2021.1.4,Win32,165.645188,6299f149e92ead563fba08ef,62a44213b3438070802e02cd,,,,,,,,,,,,,,,,,,,,,,,,,,,,,,,,,,,,,,,,,,,,,,,,,,,,,,,,,,,,,,,,,,,,,,,,,,,,,,,,,svqnmb,"[""s"",""v"",""q"",""n"",""m"",""b""]",0,"[3.1762999999523345,3.6855000000000473,5.243199999928493,6.255299999952285,6.903899999976147,10.370399999976144,13.23369999992849]",0,SVNQMK,4,0,4,0,1,,,,,,,,,,
,,,,,,,,,,,,617065189300567757e337a8,20,Mężczyzna,2022-06-11_09h21.14.019,task,2021.1.4,Win32,165.645188,6299f149e92ead563fba08ef,62a44213b3438070802e02cd,,,,,,,,,,,,,5,,,,,,,,,,Task,12,(4x4) - 11,5,,,,,,,,,,,,,,,,,,,1,,,,,,,,,,,,,,,,,,,,,,,"[""5""]",1,[3.317199999928448],0,0,0,11,1,,,,,,,,,,,,,,,,,,,,,,,,,,
,,,,,,,,,,,X V Q F H G B L J M P D K C T S W R N Z,617065189300567757e337a8,20,Mężczyzna,2022-06-11_09h21.14.019,task,2021.1.4,Win32,165.645188,6299f149e92ead563fba08ef,62a44213b3438070802e02cd,,,,,,,,,,,,,,,,,,,,,,,,,,,,,,,,,,,,,,,,,,,,,,,,,,,,,,,,,,,,,,,,,,,,,,,,,,,,0,0,0,0,1,,,,,,,,,,,,,,,,,,,,,
,,,,,,,,,,,,617065189300567757e337a8,20,Mężczyzna,2022-06-11_09h21.14.019,task,2021.1.4,Win32,165.645188,6299f149e92ead563fba08ef,62a44213b3438070802e02cd,,,,,,,,,,,,,1,,,,,,,,,,Task,9,(3x7) - 20,1,,,,,,,,,,,,,,,,,,,1,,,,,,,,,,,,,,,,,,,,,,,"[""1""]",1,[2.9092999999522817],0,0,0,8,1,,,,,,,,,,,,,,,,,,,,,,,,,,
,,,,,,,,,,,X V Q F H G B L J M P D K C T S W R N Z,617065189300567757e337a8,20,Mężczyzna,2022-06-11_09h21.14.019,task,2021.1.4,Win32,165.645188,6299f149e92ead563fba08ef,62a44213b3438070802e02cd,,,,,,,,,,,,,,,,,,,,,,,,,,,,,,,,,,,,,,,,,,,,,,,,,,,,,,,,,,,,,,,,,,,,,,,,,,,,1,0,1,0,1,,,,,,,,,,,,,,,,,,,,,
,,,,,,,,,,,,617065189300567757e337a8,20,Mężczyzna,2022-06-11_09h21.14.019,task,2021.1.4,Win32,165.645188,6299f149e92ead563fba08ef,62a44213b3438070802e02cd,,,,,,,,,,,,,2,,,,,,,,,,Task,2,(2x2) - 2,2,,,,,,,,,,,,,,,,,,,1,,,,,,,,,,,,,,,,,,,,,,,"[""2""]",1,[1.8047999999523654],0,0,0,1,1,,,,,,,,,,,,,,,,,,,,,,,,,,
,,,,,,,,,,,X V Q F H G B L J M P D K C T S W R N Z,617065189300567757e337a8,20,Mężczyzna,2022-06-11_09h21.14.019,task,2021.1.4,Win32,165.645188,6299f149e92ead563fba08ef,62a44213b3438070802e02cd,,,,,,,,,,,,,,,,,,,,,,,,,,,,,,,,,,,,,,,,,,,,,,,,,,,,,,,,,,,,,,,,,,,,,,,,,,,,2,0,2,0,1,,,,,,,,,,,,,,,,,,,,,
,,,,,,,,,,,,617065189300567757e337a8,20,Mężczyzna,2022-06-11_09h21.14.019,task,2021.1.4,Win32,165.645188,6299f149e92ead563fba08ef,62a44213b3438070802e02cd,,,,,,,,,,,,,6,,,,,,,,,,Task,30,(6/3) + 4 ,6,,,,,,,,,,,,,,,,,,,1,,,,,,,,,,,,,,,,,,,,,,,"[""6""]",1,[2.7278000000716247],0,0,0,29,1,,,,,,,,,,,,,,,,,,,,,,,,,,
,,,,,,,,,,,X V Q F H G B L J M P D K C T S W R N Z,617065189300567757e337a8,20,Mężczyzna,2022-06-11_09h21.14.019,task,2021.1.4,Win32,165.645188,6299f149e92ead563fba08ef,62a44213b3438070802e02cd,,,,,,,,,,,,,,,,,,,,,,,,,,,,,,,,,,,,,,,,,,,,,,,,,,,,,,,,,,,,,,,,,,,,,,,,,,,,3,0,3,0,1,,,,,,,,,,,,,,,,,,,,,
,,,,,,,,,,,,617065189300567757e337a8,20,Mężczyzna,2022-06-11_09h21.14.019,task,2021.1.4,Win32,165.645188,6299f149e92ead563fba08ef,62a44213b3438070802e02cd,,,,,,,,,,,,,1,,,,,,,,,,Task,1,(12/6) - 1,1,,,,,,,,,,,,,,,,,,,1,,,,,,,,,,,,,,,,,,,,,,,"[""1""]",1,[2.38669999992851],0,0,0,0,1,,,,,,,,,,,,,,,,,,,,,,,,,,
,,,,,,,,,,,X V Q F H G B L J M P D K C T S W R N Z,617065189300567757e337a8,20,Mężczyzna,2022-06-11_09h21.14.019,task,2021.1.4,Win32,165.645188,6299f149e92ead563fba08ef,62a44213b3438070802e02cd,,,,,,,,,,,,,,,,,,,,,,,,,,,,,,,,,,,,,,,,,,,,,,,,,,,,,,,,,,,,,,,,,,,,,,,,,,,,4,0,4,0,1,,,,,,,,,,,,,,,,,,,,,
,,,,,,,,,,,,617065189300567757e337a8,20,Mężczyzna,2022-06-11_09h21.14.019,task,2021.1.4,Win32,165.645188,6299f149e92ead563fba08ef,62a44213b3438070802e02cd,,,,,,,,,,,,,7,,,,,,,,,,Task,38,(4x6) - 17,7,,,,,,,,,,,,,,,,,,,1,,,,,,,,,,,,,,,,,,,,,,,"[""7""]",1,[4.679100000023823],0,0,0,37,1,,,,,,,,,,,,,,,,,,,,,,,,,,
,,,,,,,,,,,X V Q F H G B L J M P D K C T S W R N Z,617065189300567757e337a8,20,Mężczyzna,2022-06-11_09h21.14.019,task,2021.1.4,Win32,165.645188,6299f149e92ead563fba08ef,62a44213b3438070802e02cd,,,,,,,,,,,,,,,,,,,,,,,,,,,,,,,,,,,,,,,,,,,,,,,,,,,,,,,,,,,,,,,,,,,,,,,,,,,,5,0,5,0,1,,,,,,,,,,,,,,,,,,,,,
,,,,,,,,,,,,617065189300567757e337a8,20,Mężczyzna,2022-06-11_09h21.14.019,task,2021.1.4,Win32,165.645188,6299f149e92ead563fba08ef,62a44213b3438070802e02cd,,,,,,,,,,,,,,,,,,,,,,,,,,,,,,,,,,,,,,,,,,,,,,,,,,,,,,,,,,,,,,,,,,,,,,,,,,,,,,,,,ntpjdt,"[""n"",""t"",""p"",""j"",""d"",""t""]",0,"[1.9355000000000473,3.167199999928471,4.037599999904614,4.696299999952316,5.490099999904601,7.358299999952351,10.11479999995231]",1,NTPJDT,5,0,5,0,1,,,,,,,,,,
,,,,,,,,,,,,617065189300567757e337a8,20,Mężczyzna,2022-06-11_09h21.14.019,task,2021.1.4,Win32,165.645188,6299f149e92ead563fba08ef,62a44213b3438070802e02cd,,,,,,,,,,,,,5,,,,,,,,,,Task,29,(3x8) - 19 ,5,,,,,,,,,,,,,,,,,,,1,,,,,,,,,,,,,,,,,,,,,,,"[""5""]",1,[4.628500000000031],0,0,0,28,1,,,,,,,,,,,,,,,,,,,,,,,,,,
,,,,,,,,,,,X V Q F H G B L J M P D K C T S W R N Z,617065189300567757e337a8,20,Mężczyzna,2022-06-11_09h21.14.019,task,2021.1.4,Win32,165.645188,6299f149e92ead563fba08ef,62a44213b3438070802e02cd,,,,,,,,,,,,,,,,,,,,,,,,,,,,,,,,,,,,,,,,,,,,,,,,,,,,,,,,,,,,,,,,,,,,,,,,,,,,0,0,0,0,1,,,,,,,,,,,,,,,,,,,,,
,,,,,,,,,,,,617065189300567757e337a8,20,Mężczyzna,2022-06-11_09h21.14.019,task,2021.1.4,Win32,165.645188,6299f149e92ead563fba08ef,62a44213b3438070802e02cd,,,,,,,,,,,,,4,,,,,,,,,,Task,28,(2x5) - 6,4,,,,,,,,,,,,,,,,,,,1,,,,,,,,,,,,,,,,,,,,,,,"[""4""]",1,[1.9101000000238173],0,0,0,27,1,,,,,,,,,,,,,,,,,,,,,,,,,,
,,,,,,,,,,,X V Q F H G B L J M P D K C T S W R N Z,617065189300567757e337a8,20,Mężczyzna,2022-06-11_09h21.14.019,task,2021.1.4,Win32,165.645188,6299f149e92ead563fba08ef,62a44213b3438070802e02cd,,,,,,,,,,,,,,,,,,,,,,,,,,,,,,,,,,,,,,,,,,,,,,,,,,,,,,,,,,,,,,,,,,,,,,,,,,,,1,0,1,0,1,,,,,,,,,,,,,,,,,,,,,
,,,,,,,,,,,,617065189300567757e337a8,20,Mężczyzna,2022-06-11_09h21.14.019,task,2021.1.4,Win32,165.645188,6299f149e92ead563fba08ef,62a44213b3438070802e02cd,,,,,,,,,,,,,4,,,,,,,,,,Task,4,(1x5) - 1,4,,,,,,,,,,,,,,,,,,,1,,,,,,,,,,,,,,,,,,,,,,,"[""4""]",1,[2.4473999999762555],0,0,0,3,1,,,,,,,,,,,,,,,,,,,,,,,,,,
,,,,,,,,,,,X V Q F H G B L J M P D K C T S W R N Z,617065189300567757e337a8,20,Mężczyzna,2022-06-11_09h21.14.019,task,2021.1.4,Win32,165.645188,6299f149e92ead563fba08ef,62a44213b3438070802e02cd,,,,,,,,,,,,,,,,,,,,,,,,,,,,,,,,,,,,,,,,,,,,,,,,,,,,,,,,,,,,,,,,,,,,,,,,,,,,2,0,2,0,1,,,,,,,,,,,,,,,,,,,,,
,,,,,,,,,,,,617065189300567757e337a8,20,Mężczyzna,2022-06-11_09h21.14.019,task,2021.1.4,Win32,165.645188,6299f149e92ead563fba08ef,62a44213b3438070802e02cd,,,,,,,,,,,,,8,,,,,,,,,,Task,15,(3x7) - 13,8,,,,,,,,,,,,,,,,,,,1,,,,,,,,,,,,,,,,,,,,,,,"[""8""]",1,[3.1817000000476128],0,0,0,14,1,,,,,,,,,,,,,,,,,,,,,,,,,,
,,,,,,,,,,,X V Q F H G B L J M P D K C T S W R N Z,617065189300567757e337a8,20,Mężczyzna,2022-06-11_09h21.14.019,task,2021.1.4,Win32,165.645188,6299f149e92ead563fba08ef,62a44213b3438070802e02cd,,,,,,,,,,,,,,,,,,,,,,,,,,,,,,,,,,,,,,,,,,,,,,,,,,,,,,,,,,,,,,,,,,,,,,,,,,,,3,0,3,0,1,,,,,,,,,,,,,,,,,,,,,
,,,,,,,,,,,,617065189300567757e337a8,20,Mężczyzna,2022-06-11_09h21.14.019,task,2021.1.4,Win32,165.645188,6299f149e92ead563fba08ef,62a44213b3438070802e02cd,,,,,,,,,,,,,9,,,,,,,,,,Task,16,(3x8) - 15,9,,,,,,,,,,,,,,,,,,,1,,,,,,,,,,,,,,,,,,,,,,,"[""9""]",1,[4.409600000023829],0,0,0,15,1,,,,,,,,,,,,,,,,,,,,,,,,,,
,,,,,,,,,,,X V Q F H G B L J M P D K C T S W R N Z,617065189300567757e337a8,20,Mężczyzna,2022-06-11_09h21.14.019,task,2021.1.4,Win32,165.645188,6299f149e92ead563fba08ef,62a44213b3438070802e02cd,,,,,,,,,,,,,,,,,,,,,,,,,,,,,,,,,,,,,,,,,,,,,,,,,,,,,,,,,,,,,,,,,,,,,,,,,,,,4,0,4,0,1,,,,,,,,,,,,,,,,,,,,,
,,,,,,,,,,,,617065189300567757e337a8,20,Mężczyzna,2022-06-11_09h21.14.019,task,2021.1.4,Win32,165.645188,6299f149e92ead563fba08ef,62a44213b3438070802e02cd,,,,,,,,,,,,,0,,,,,,,,,,Task,17,(2x3) - 6,0,,,,,,,,,,,,,,,,,,,1,,,,,,,,,,,,,,,,,,,,,,,"[""0""]",1,[3.471600000023841],0,0,0,16,1,,,,,,,,,,,,,,,,,,,,,,,,,,
,,,,,,,,,,,X V Q F H G B L J M P D K C T S W R N Z,617065189300567757e337a8,20,Mężczyzna,2022-06-11_09h21.14.019,task,2021.1.4,Win32,165.645188,6299f149e92ead563fba08ef,62a44213b3438070802e02cd,,,,,,,,,,,,,,,,,,,,,,,,,,,,,,,,,,,,,,,,,,,,,,,,,,,,,,,,,,,,,,,,,,,,,,,,,,,,5,0,5,0,1,,,,,,,,,,,,,,,,,,,,,
,,,,,,,,,,,,617065189300567757e337a8,20,Mężczyzna,2022-06-11_09h21.14.019,task,2021.1.4,Win32,165.645188,6299f149e92ead563fba08ef,62a44213b3438070802e02cd,,,,,,,,,,,,,6,,,,,,,,,,Task,13,(3x4) - 6,6,,,,,,,,,,,,,,,,,,,1,,,,,,,,,,,,,,,,,,,,,,,"[""6""]",1,[3.972499999999968],0,0,0,12,1,,,,,,,,,,,,,,,,,,,,,,,,,,
,,,,,,,,,,,X V Q F H G B L J M P D K C T S W R N Z,617065189300567757e337a8,20,Mężczyzna,2022-06-11_09h21.14.019,task,2021.1.4,Win32,165.645188,6299f149e92ead563fba08ef,62a44213b3438070802e02cd,,,,,,,,,,,,,,,,,,,,,,,,,,,,,,,,,,,,,,,,,,,,,,,,,,,,,,,,,,,,,,,,,,,,,,,,,,,,6,0,6,0,1,,,,,,,,,,,,,,,,,,,,,
,,,,,,,,,,,,617065189300567757e337a8,20,Mężczyzna,2022-06-11_09h21.14.019,task,2021.1.4,Win32,165.645188,6299f149e92ead563fba08ef,62a44213b3438070802e02cd,,,,,,,,,,,,,,,,,,,,,,,,,,,,,,,,,,,,,,,,,,,,,,,,,,,,,,,,,,,,,,,,,,,,,,,,,,,,,,,,,xjxnms,"[""x"",""j"",""x"",""n"",""m"",""s""]",0,"[2.7883000000714446,2.9518000000714437,3.0728000000714246,7.64810000002376,7.7693999999761445,7.921100000023785,10.787600000023758]",0,XJXMMNS,6,0,6,0,1,,,,,,,,,,
,,,,,,,,,,,,617065189300567757e337a8,20,Mężczyzna,2022-06-11_09h21.14.019,task,2021.1.4,Win32,165.645188,6299f149e92ead563fba08ef,62a44213b3438070802e02cd,,,,,,,,,,,,,6,,,,,,,,,,Task,5,(2x3) + 0,6,,,,,,,,,,,,,,,,,,,1,,,,,,,,,,,,,,,,,,,,,,,"[""6""]",1,[3.024600000023838],0,0,0,4,1,,,,,,,,,,,,,,,,,,,,,,,,,,
,,,,,,,,,,,X V Q F H G B L J M P D K C T S W R N Z,617065189300567757e337a8,20,Mężczyzna,2022-06-11_09h21.14.019,task,2021.1.4,Win32,165.645188,6299f149e92ead563fba08ef,62a44213b3438070802e02cd,,,,,,,,,,,,,,,,,,,,,,,,,,,,,,,,,,,,,,,,,,,,,,,,,,,,,,,,,,,,,,,,,,,,,,,,,,,,0,0,0,0,1,,,,,,,,,,,,,,,,,,,,,
,,,,,,,,,,,,617065189300567757e337a8,20,Mężczyzna,2022-06-11_09h21.14.019,task,2021.1.4,Win32,165.645188,6299f149e92ead563fba08ef,62a44213b3438070802e02cd,,,,,,,,,,,,,4,,,,,,,,,,Task,11,(18/3) - 2,4,,,,,,,,,,,,,,,,,,,1,,,,,,,,,,,,,,,,,,,,,,,"[""4""]",1,[3.6307999999522735],0,0,0,10,1,,,,,,,,,,,,,,,,,,,,,,,,,,
,,,,,,,,,,,X V Q F H G B L J M P D K C T S W R N Z,617065189300567757e337a8,20,Mężczyzna,2022-06-11_09h21.14.019,task,2021.1.4,Win32,165.645188,6299f149e92ead563fba08ef,62a44213b3438070802e02cd,,,,,,,,,,,,,,,,,,,,,,,,,,,,,,,,,,,,,,,,,,,,,,,,,,,,,,,,,,,,,,,,,,,,,,,,,,,,1,0,1,0,1,,,,,,,,,,,,,,,,,,,,,
,,,,,,,,,,,,617065189300567757e337a8,20,Mężczyzna,2022-06-11_09h21.14.019,task,2021.1.4,Win32,165.645188,6299f149e92ead563fba08ef,62a44213b3438070802e02cd,,,,,,,,,,,,,7,,,,,,,,,,Task,31,(4/2) + 5,7,,,,,,,,,,,,,,,,,,,1,,,,,,,,,,,,,,,,,,,,,,,"[""7""]",1,[4.235100000023863],0,0,0,30,1,,,,,,,,,,,,,,,,,,,,,,,,,,
,,,,,,,,,,,X V Q F H G B L J M P D K C T S W R N Z,617065189300567757e337a8,20,Mężczyzna,2022-06-11_09h21.14.019,task,2021.1.4,Win32,165.645188,6299f149e92ead563fba08ef,62a44213b3438070802e02cd,,,,,,,,,,,,,,,,,,,,,,,,,,,,,,,,,,,,,,,,,,,,,,,,,,,,,,,,,,,,,,,,,,,,,,,,,,,,2,0,2,0,1,,,,,,,,,,,,,,,,,,,,,
,,,,,,,,,,,,617065189300567757e337a8,20,Mężczyzna,2022-06-11_09h21.14.019,task,2021.1.4,Win32,165.645188,6299f149e92ead563fba08ef,62a44213b3438070802e02cd,,,,,,,,,,,,,,,,,,,,,,,Task,18,(16/4) - 3,1,,,,,,,,,,,,,,,,,,,0,,,,,,,,,,,,,,,,,,,,,,,,0,,0,0,0,17,1,,,,,,,,,,,,,,,,,,,,,,,,,,
,,,,,,,,,,,,617065189300567757e337a8,20,Mężczyzna,2022-06-11_09h21.14.019,task,2021.1.4,Win32,165.645188,6299f149e92ead563fba08ef,62a44213b3438070802e02cd,,,,,,,,,,,,,1,,,,,,,,,,Task,9,(3x7) - 20,1,,,,,,,,,,,,,,,,,,,1,,,,,,,,,,,,,,,,,,,,,,,"[""1""]",1,[1.8738999999761745],0,1,1,8,1,,,,,,,,,,,,,,,,,,,,,,,,,,
,,,,,,,,,,,X V Q F H G B L J M P D K C T S W R N Z,617065189300567757e337a8,20,Mężczyzna,2022-06-11_09h21.14.019,task,2021.1.4,Win32,165.645188,6299f149e92ead563fba08ef,62a44213b3438070802e02cd,,,,,,,,,,,,,,,,,,,,,,,,,,,,,,,,,,,,,,,,,,,,,,,,,,,,,,,,,,,,,,,,,,,,,,,,,,,,3,0,3,0,1,,,,,,,,,,,,,,,,,,,,,
,,,,,,,,,,,,617065189300567757e337a8,20,Mężczyzna,2022-06-11_09h21.14.019,task,2021.1.4,Win32,165.645188,6299f149e92ead563fba08ef,62a44213b3438070802e02cd,,,,,,,,,,,,,6,,,,,,,,,,Task,13,(3x4) - 6,6,,,,,,,,,,,,,,,,,,,1,,,,,,,,,,,,,,,,,,,,,,,"[""6""]",1,[2.689700000047651],0,0,0,12,1,,,,,,,,,,,,,,,,,,,,,,,,,,
,,,,,,,,,,,X V Q F H G B L J M P D K C T S W R N Z,617065189300567757e337a8,20,Mężczyzna,2022-06-11_09h21.14.019,task,2021.1.4,Win32,165.645188,6299f149e92ead563fba08ef,62a44213b3438070802e02cd,,,,,,,,,,,,,,,,,,,,,,,,,,,,,,,,,,,,,,,,,,,,,,,,,,,,,,,,,,,,,,,,,,,,,,,,,,,,4,0,4,0,1,,,,,,,,,,,,,,,,,,,,,
,,,,,,,,,,,,617065189300567757e337a8,20,Mężczyzna,2022-06-11_09h21.14.019,task,2021.1.4,Win32,165.645188,6299f149e92ead563fba08ef,62a44213b3438070802e02cd,,,,,,,,,,,,,7,,,,,,,,,,Task,34,(9/3) - 2,1,,,,,,,,,,,,,,,,,,,0,,,,,,,,,,,,,,,,,,,,,,,"[""7""]",0,[3.194399999976099],0,0,0,33,1,,,,,,,,,,,,,,,,,,,,,,,,,,
,,,,,,,,,,,,617065189300567757e337a8,20,Mężczyzna,2022-06-11_09h21.14.019,task,2021.1.4,Win32,165.645188,6299f149e92ead563fba08ef,62a44213b3438070802e02cd,,,,,,,,,,,,,0,,,,,,,,,,Task,33,(1/1) - 1,0,,,,,,,,,,,,,,,,,,,1,,,,,,,,,,,,,,,,,,,,,,,"[""0""]",1,[3.288499999999999],0,1,1,32,1,,,,,,,,,,,,,,,,,,,,,,,,,,
,,,,,,,,,,,X V Q F H G B L J M P D K C T S W R N Z,617065189300567757e337a8,20,Mężczyzna,2022-06-11_09h21.14.019,task,2021.1.4,Win32,165.645188,6299f149e92ead563fba08ef,62a44213b3438070802e02cd,,,,,,,,,,,,,,,,,,,,,,,,,,,,,,,,,,,,,,,,,,,,,,,,,,,,,,,,,,,,,,,,,,,,,,,,,,,,5,0,5,0,1,,,,,,,,,,,,,,,,,,,,,
,,,,,,,,,,,,617065189300567757e337a8,20,Mężczyzna,2022-06-11_09h21.14.019,task,2021.1.4,Win32,165.645188,6299f149e92ead563fba08ef,62a44213b3438070802e02cd,,,,,,,,,,,,,6,,,,,,,,,,Task,37,(3/3) + 5,6,,,,,,,,,,,,,,,,,,,1,,,,,,,,,,,,,,,,,,,,,,,"[""6""]",1,[2.8761000000238255],0,0,0,36,1,,,,,,,,,,,,,,,,,,,,,,,,,,
,,,,,,,,,,,X V Q F H G B L J M P D K C T S W R N Z,617065189300567757e337a8,20,Mężczyzna,2022-06-11_09h21.14.019,task,2021.1.4,Win32,165.645188,6299f149e92ead563fba08ef,62a44213b3438070802e02cd,,,,,,,,,,,,,,,,,,,,,,,,,,,,,,,,,,,,,,,,,,,,,,,,,,,,,,,,,,,,,,,,,,,,,,,,,,,,6,0,6,0,1,,,,,,,,,,,,,,,,,,,,,
,,,,,,,,,,,,617065189300567757e337a8,20,Mężczyzna,2022-06-11_09h21.14.019,task,2021.1.4,Win32,165.645188,6299f149e92ead563fba08ef,62a44213b3438070802e02cd,,,,,,,,,,,,,,,,,,,,,,,,,,,,,,,,,,,,,,,,,,,,,,,,,,,,,,,,,,,,,,,,,,,,,,,,,,,,,,,,,nfmksp,"[""n"",""f"",""m"",""k"",""s"",""p""]",0,"[2.8070000000000164,3.4981000000238964,4.521699999928501,23.466699999928437,23.60869999992849,24.417799999952308,28.109100000023886]",0,MFWMMXN,7,0,7,0,1,,,,,,,,,,
,,,,,,,,,,,,617065189300567757e337a8,20,Mężczyzna,2022-06-11_09h21.14.019,task,2021.1.4,Win32,165.645188,6299f149e92ead563fba08ef,62a44213b3438070802e02cd,,,,,,,,,,,,,,,,,,,,,,,,,,,,,,,,,,,,,,,,,,,,,,,,,,,,,,,,,,,,,,,,,,,,,,,,,,,,,,,,,,,,,,,,,,,,,0,0,0,0,0,1,,,
,,,,,,,,,,,,617065189300567757e337a8,20,Mężczyzna,2022-06-11_09h21.14.019,task,2021.1.4,Win32,165.645188,6299f149e92ead563fba08ef,62a44213b3438070802e02cd,,,,,,,,,,,,,,,,,,,,,,,,,,,,,,,,,,,,,,,,,,,,,,,,,,,,,,,,,,,,,,,,,,,,,,,,,,,,,,,,,,,,,,,,,,,,"[""comma""]",0,1,0,1,0,1,[0.5232000000476091],,
,,,,,,,,,,,,617065189300567757e337a8,20,Mężczyzna,2022-06-11_09h21.14.019,task,2021.1.4,Win32,165.645188,6299f149e92ead563fba08ef,62a44213b3438070802e02cd,,,,,,,,,,,,,,,,,,,,,,,,,,,,,,,,,,,,,,,,,,,,,,,,,,,,,,,,,,,,,,,,,,,,,,,,,,,,,,,,,,,,,,,,,,,,"[""period""]",0,2,0,2,0,1,[0.5263000000716147],,
,,,,,,,,,,,,617065189300567757e337a8,20,Mężczyzna,2022-06-11_09h21.14.019,task,2021.1.4,Win32,165.645188,6299f149e92ead563fba08ef,62a44213b3438070802e02cd,,,,,,,,,,,,,,,,,,,,,,,,,,,,,,,,,,,,,,,,,,,,,,,,,,,,,,,,,,,,,,,,,,,,,,,,,,,,,,,,,,,,,,,,,,,,"[""comma""]",0,3,0,3,0,1,[0.230599999904598],,
,,,,,,,,,,,,617065189300567757e337a8,20,Mężczyzna,2022-06-11_09h21.14.019,task,2021.1.4,Win32,165.645188,6299f149e92ead563fba08ef,62a44213b3438070802e02cd,,,,,,,,,,,,,,,,,,,,,,,,,,,,,,,,,,,,,,,,,,,,,,,,,,,,,,,,,,,,,,,,,,,,,,,,,,,,,,,,,,,,,,,,,,,,"[""comma""]",0,4,0,4,0,1,[0.23050000000012005],,
,,,,,,,,,,,,617065189300567757e337a8,20,Mężczyzna,2022-06-11_09h21.14.019,task,2021.1.4,Win32,165.645188,6299f149e92ead563fba08ef,62a44213b3438070802e02cd,,,,,,,,,,,,,,,,,,,,,,,,,,,,,,,,,,,,,,,,,,,,,,,,,,,,,,,,,,,,,,,,,,,,,,,,,,,,,,,,,,,,,,,,,,,,"[""period""]",0,5,0,5,0,1,[0.25250000000005457],,
,,,,,,,,,,,,617065189300567757e337a8,20,Mężczyzna,2022-06-11_09h21.14.019,task,2021.1.4,Win32,165.645188,6299f149e92ead563fba08ef,62a44213b3438070802e02cd,,,,,,,,,,,,,,,,,,,,,,,,,,,,,,,,,,,,,,,,,,,,,,,,,,,,,,,,,,,,,,,,,,,,,,,,,,,,,,,,,,,,,,,,,,,,"[""comma""]",0,6,0,6,0,1,[0.35220000004756],,
,,,,,,,,,,,,617065189300567757e337a8,20,Mężczyzna,2022-06-11_09h21.14.019,task,2021.1.4,Win32,165.645188,6299f149e92ead563fba08ef,62a44213b3438070802e02cd,,,,,,,,,,,,,,,,,,,,,,,,,,,,,,,,,,,,,,,,,,,,,,,,,,,,,,,,,,,,,,,,,,,,,,,,,,,,,,,,,,,,,,,,,,,,"[""comma""]",0,7,0,7,0,1,[0.47980000007146373],,
,,,,,,,,,,,,617065189300567757e337a8,20,Mężczyzna,2022-06-11_09h21.14.019,task,2021.1.4,Win32,165.645188,6299f149e92ead563fba08ef,62a44213b3438070802e02cd,,,,,,,,,,,,,,,,,,,,,,,,,,,,,,,,,,,,,,,,,,,,,,,,,,,,,,,,,,,,,,,,,,,,,,,,,,,,,,,,,,,,,,,,,,,,"[""comma""]",0,8,0,8,0,1,[0.2596999999286709],,
,,,,,,,,,,,,617065189300567757e337a8,20,Mężczyzna,2022-06-11_09h21.14.019,task,2021.1.4,Win32,165.645188,6299f149e92ead563fba08ef,62a44213b3438070802e02cd,,,,,,,,,,,,,,,,,,,,,,,,,,,,,,,,,,,,,,,,,,,,,,,,,,,,,,,,,,,,,,,,,,,,,,,,,,,,,,,,,,,,,,,,,,,,"[""period"",""period""]",0,9,0,9,0,1,"[0.12829999995233266,1.8797999999521835]",,
,,,,,,,,,,,,617065189300567757e337a8,20,Mężczyzna,2022-06-11_09h21.14.019,task,2021.1.4,Win32,165.645188,6299f149e92ead563fba08ef,62a44213b3438070802e02cd,,,,,,,,,,,,,,,,,,,,,,,,,,,,,,,,,,,,,,,,,,,,,,,,,,,,,,,,,,,,,,,,,,,,,,,,,,,,,,,,,,,,,,,,,,,,"[""period""]",0,10,0,10,0,1,[1.8209999999999127],,
,,,,,,,,,,,,617065189300567757e337a8,20,Mężczyzna,2022-06-11_09h21.14.019,task,2021.1.4,Win32,165.645188,6299f149e92ead563fba08ef,62a44213b3438070802e02cd,,,,,,,,,,,,,,,,,,,,,,,,,,,,,,,,,,,,,,,,,,,,,,,,,,,,,,,,,,,,,,,,,,,,,,,,,,,,,,,,,,,,,,,,,,,,,0,11,0,11,0,1,,,
,,,,,,,,,,,,617065189300567757e337a8,20,Mężczyzna,2022-06-11_09h21.14.019,task,2021.1.4,Win32,165.645188,6299f149e92ead563fba08ef,62a44213b3438070802e02cd,,,,,,,,,,,,,,,,,,,,,,,,,,,,,,,,,,,,,,,,,,,,,,,,,,,,,,,,,,,,,,,,,,,,,,,,,,,,,,,,,,,,,,,,,,,,"[""comma""]",0,12,0,12,0,1,[0.23070000004759095],,
,,,,,,,,,,,,617065189300567757e337a8,20,Mężczyzna,2022-06-11_09h21.14.019,task,2021.1.4,Win32,165.645188,6299f149e92ead563fba08ef,62a44213b3438070802e02cd,,,,,,,,,,,,,,,,,,,,,,,,,,,,,,,,,,,,,,,,,,,,,,,,,,,,,,,,,,,,,,,,,,,,,,,,,,,,,,,,,,,,,,,,,,,,"[""period""]",0,13,0,13,0,1,[0.21279999995226717],,
,,,,,,,,,,,,617065189300567757e337a8,20,Mężczyzna,2022-06-11_09h21.14.019,task,2021.1.4,Win32,165.645188,6299f149e92ead563fba08ef,62a44213b3438070802e02cd,,,,,,,,,,,,,,,,,,,,,,,,,,,,,,,,,,,,,,,,,,,,,,,,,,,,,,,,,,,,,,,,,,,,,,,,,,,,,,,,,,,,,,,,,,,,"[""comma""]",0,14,0,14,0,1,[0.2146000000238928],,
,,,,,,,,,,,,617065189300567757e337a8,20,Mężczyzna,2022-06-11_09h21.14.019,task,2021.1.4,Win32,165.645188,6299f149e92ead563fba08ef,62a44213b3438070802e02cd,,,,,,,,,,,,,,,,,,,,,,,,,,,,,,,,,,,,,,,,,,,,,,,,,,,,,,,,,,,,,,,,,,,,,,,,,,,,,,,,,,,,,,,,,,,,"[""period"",""period""]",0,15,0,15,0,1,"[0.19080000007147646,1.7859999999998308]",,
,,,,,,,,,,,,617065189300567757e337a8,20,Mężczyzna,2022-06-11_09h21.14.019,task,2021.1.4,Win32,165.645188,6299f149e92ead563fba08ef,62a44213b3438070802e02cd,,,,,,,,,,,,,,,,,,,,,,,,,,,,,,,,,,,,,,,,,,,,,,,,,,,,,,,,,,,,,,,,,,,,,,,,,,,,,,,,,,,,,,,,,,,,,0,16,0,16,0,1,,,
,,,,,,,,,,,,617065189300567757e337a8,20,Mężczyzna,2022-06-11_09h21.14.019,task,2021.1.4,Win32,165.645188,6299f149e92ead563fba08ef,62a44213b3438070802e02cd,,,,,,,,,,,,,,,,,,,,,,,,,,,,,,,,,,,,,,,,,,,,,,,,,,,,,,,,,,,,,,,,,,,,,,,,,,,,,,,,,,,,,,,,,,,,"[""period""]",0,17,0,17,0,1,[0.2166000000238455],,
,,,,,,,,,,,,617065189300567757e337a8,20,Mężczyzna,2022-06-11_09h21.14.019,task,2021.1.4,Win32,165.645188,6299f149e92ead563fba08ef,62a44213b3438070802e02cd,,,,,,,,,,,,,,,,,,,,,,,,,,,,,,,,,,,,,,,,,,,,,,,,,,,,,,,,,,,,,,,,,,,,,,,,,,,,,,,,,,,,,,,,,,,,"[""comma""]",0,18,0,18,0,1,[0.26139999997622],,
,,,,,,,,,,,,617065189300567757e337a8,20,Mężczyzna,2022-06-11_09h21.14.019,task,2021.1.4,Win32,165.645188,6299f149e92ead563fba08ef,62a44213b3438070802e02cd,,,,,,,,,,,,,,,,,,,,,,,,,,,,,,,,,,,,,,,,,,,,,,,,,,,,,,,,,,,,,,,,,,,,,,,,,,,,,,,,,,,,,,,,,,,,"[""comma""]",0,19,0,19,0,1,[0.22480000007158196],,
,,,,,,,,,,,,617065189300567757e337a8,20,Mężczyzna,2022-06-11_09h21.14.019,task,2021.1.4,Win32,165.645188,6299f149e92ead563fba08ef,62a44213b3438070802e02cd,,,,,,,,,,,,,,,,,,,,,,,,,,,,,,,,,,,,,,,,,,,,,,,,,,,,,,,,,,,,,,,,,,,,,,,,,,,,,,,,,,,,,,,,,,,,"[""period""]",0,20,0,20,0,1,[0.2342999999523272],,
,,,,,,,,,,,,617065189300567757e337a8,20,Mężczyzna,2022-06-11_09h21.14.019,task,2021.1.4,Win32,165.645188,6299f149e92ead563fba08ef,62a44213b3438070802e02cd,,,,,,,,,,,,,,,,,,,,,,,,,,,,,,,,,,,,,,,,,,,,,,,,,,,,,,,,,,,,,,,,,,,,,,,,,,,,,,,,,,,,,,,,,,,,"[""comma""]",0,21,0,21,0,1,[0.2249000000954311],,
,,,,,,,,,,,,617065189300567757e337a8,20,Mężczyzna,2022-06-11_09h21.14.019,task,2021.1.4,Win32,165.645188,6299f149e92ead563fba08ef,62a44213b3438070802e02cd,,,,,,,,,,,,,,,,,,,,,,,,,,,,,,,,,,,,,,,,,,,,,,,,,,,,,,,,,,,,,,,,,,,,,,,,,,,,,,,,,,,,,,,,,,,,"[""comma"",""period""]",0,22,0,22,0,1,"[0.2671999999286072,1.5721000000239655]",,
,,,,,,,,,,,,617065189300567757e337a8,20,Mężczyzna,2022-06-11_09h21.14.019,task,2021.1.4,Win32,165.645188,6299f149e92ead563fba08ef,62a44213b3438070802e02cd,,,,,,,,,,,,,,,,,,,,,,,,,,,,,,,,,,,,,,,,,,,,,,,,,,,,,,,,,,,,,,,,,,,,,,,,,,,,,,,,,,,,,,,,,,,,,0,23,0,23,0,1,,,
,,,,,,,,,,,,617065189300567757e337a8,20,Mężczyzna,2022-06-11_09h21.14.019,task,2021.1.4,Win32,165.645188,6299f149e92ead563fba08ef,62a44213b3438070802e02cd,,,,,,,,,,,,,,,,,,,,,,,,,,,,,,,,,,,,,,,,,,,,,,,,,,,,,,,,,,,,,,,,,,,,,,,,,,,,,,,,,,,,,,,,,,,,"[""period""]",0,24,0,24,0,1,[0.2619999999999436],,
,,,,,,,,,,,,617065189300567757e337a8,20,Mężczyzna,2022-06-11_09h21.14.019,task,2021.1.4,Win32,165.645188,6299f149e92ead563fba08ef,62a44213b3438070802e02cd,,,,,,,,,,,,,,,,,,,,,,,,,,,,,,,,,,,,,,,,,,,,,,,,,,,,,,,,,,,,,,,,,,,,,,,,,,,,,,,,,,,,,,,,,,,,"[""comma""]",0,25,0,25,0,1,[0.30529999995246726],,
,,,,,,,,,,,,617065189300567757e337a8,20,Mężczyzna,2022-06-11_09h21.14.019,task,2021.1.4,Win32,165.645188,6299f149e92ead563fba08ef,62a44213b3438070802e02cd,,,,,,,,,,,,,,,,,,,,,,,,,,,,,,,,,,,,,,,,,,,,,,,,,,,,,,,,,,,,,,,,,,,,,,,,,,,,,,,,,,,,,,,,,,,,"[""comma""]",0,26,0,26,0,1,[0.3033999999761363],,
,,,,,,,,,,,,617065189300567757e337a8,20,Mężczyzna,2022-06-11_09h21.14.019,task,2021.1.4,Win32,165.645188,6299f149e92ead563fba08ef,62a44213b3438070802e02cd,,,,,,,,,,,,,,,,,,,,,,,,,,,,,,,,,,,,,,,,,,,,,,,,,,,,,,,,,,,,,,,,,,,,,,,,,,,,,,,,,,,,,,,,,,,,"[""period""]",0,27,0,27,0,1,[0.24979999995230173],,
,,,,,,,,,,,,617065189300567757e337a8,20,Mężczyzna,2022-06-11_09h21.14.019,task,2021.1.4,Win32,165.645188,6299f149e92ead563fba08ef,62a44213b3438070802e02cd,,,,,,,,,,,,,,,,,,,,,,,,,,,,,,,,,,,,,,,,,,,,,,,,,,,,,,,,,,,,,,,,,,,,,,,,,,,,,,,,,,,,,,,,,,,,"[""comma""]",0,28,0,28,0,1,[0.19410000002380912],,
,,,,,,,,,,,,617065189300567757e337a8,20,Mężczyzna,2022-06-11_09h21.14.019,task,2021.1.4,Win32,165.645188,6299f149e92ead563fba08ef,62a44213b3438070802e02cd,,,,,,,,,,,,,,,,,,,,,,,,,,,,,,,,,,,,,,,,,,,,,,,,,,,,,,,,,,,,,,,,,,,,,,,,,,,,,,,,,,,,,,,,,,,,"[""period""]",0,29,0,29,0,1,[0.2082999999522599],,
,,,,,,,,,,,,617065189300567757e337a8,20,Mężczyzna,2022-06-11_09h21.14.019,task,2021.1.4,Win32,165.645188,6299f149e92ead563fba08ef,62a44213b3438070802e02cd,,,,,,,,,,,,,,,,,,,,,,,,,,,,,,,,,,,,,,,,,,,,,,,,,,,,,,,,,,,,,,,,,,,,,,,,,,,,,,,,,,,,,,,,,,,,"[""comma""]",0,30,0,30,0,1,[0.2731000000239874],,
,,,,,,,,,,,,617065189300567757e337a8,20,Mężczyzna,2022-06-11_09h21.14.019,task,2021.1.4,Win32,165.645188,6299f149e92ead563fba08ef,62a44213b3438070802e02cd,,,,,,,,,,,,,,,,,,,,,,,,,,,,,,,,,,,,,,,,,,,,,,,,,,,,,,,,,,,,,,,,,,,,,,,,,,,,,,,,,,,,,,,,,,,,"[""comma"",""period""]",0,31,0,31,0,1,"[0.21260000002394008,1.796600000024]",,
,,,,,,,,,,,,617065189300567757e337a8,20,Mężczyzna,2022-06-11_09h21.14.019,task,2021.1.4,Win32,165.645188,6299f149e92ead563fba08ef,62a44213b3438070802e02cd,,,,,,,,,,,,,,,,,,,,,,,,,,,,,,,,,,,,,,,,,,,,,,,,,,,,,,,,,,,,,,,,,,,,,,,,,,,,,,,,,,,,,,,,,,,,,0,32,0,32,0,1,,,
,,,,,,,,,,,,617065189300567757e337a8,20,Mężczyzna,2022-06-11_09h21.14.019,task,2021.1.4,Win32,165.645188,6299f149e92ead563fba08ef,62a44213b3438070802e02cd,,,,,,,,,,,,,,,,,,,,,,,,,,,,,,,,,,,,,,,,,,,,,,,,,,,,,,,,,,,,,,,,,,,,,,,,,,,,,,,,,,,,,,,,,,,,"[""period""]",0,33,0,33,0,1,[0.24400000000014188],,
,,,,,,,,,,,,617065189300567757e337a8,20,Mężczyzna,2022-06-11_09h21.14.019,task,2021.1.4,Win32,165.645188,6299f149e92ead563fba08ef,62a44213b3438070802e02cd,,,,,,,,,,,,,,,,,,,,,,,,,,,,,,,,,,,,,,,,,,,,,,,,,,,,,,,,,,,,,,,,,,,,,,,,,,,,,,,,,,,,,,,,,,,,"[""period""]",0,34,0,34,0,1,[0.39059999990467986],,
,,,,,,,,,,,,617065189300567757e337a8,20,Mężczyzna,2022-06-11_09h21.14.019,task,2021.1.4,Win32,165.645188,6299f149e92ead563fba08ef,62a44213b3438070802e02cd,,,,,,,,,,,,,,,,,,,,,,,,,,,,,,,,,,,,,,,,,,,,,,,,,,,,,,,,,,,,,,,,,,,,,,,,,,,,,,,,,,,,,,,,,,,,"[""comma""]",0,35,0,35,0,1,[0.39660000002390916],,
,,,,,,,,,,,,617065189300567757e337a8,20,Mężczyzna,2022-06-11_09h21.14.019,task,2021.1.4,Win32,165.645188,6299f149e92ead563fba08ef,62a44213b3438070802e02cd,,,,,,,,,,,,,,,,,,,,,,,,,,,,,,,,,,,,,,,,,,,,,,,,,,,,,,,,,,,,,,,,,,,,,,,,,,,,,,,,,,,,,,,,,,,,"[""comma""]",0,36,0,36,0,1,[0.36539999997603445],,
,,,,,,,,,,,,617065189300567757e337a8,20,Mężczyzna,2022-06-11_09h21.14.019,task,2021.1.4,Win32,165.645188,6299f149e92ead563fba08ef,62a44213b3438070802e02cd,,,,,,,,,,,,,,,,,,,,,,,,,,,,,,,,,,,,,,,,,,,,,,,,,,,,,,,,,,,,,,,,,,,,,,,,,,,,,,,,,,,,,,,,,,,,"[""period"",""comma""]",0,37,0,37,0,1,"[0.20010000002366723,1.8292000000476492]",,
,,,,,,,,,,,,617065189300567757e337a8,20,Mężczyzna,2022-06-11_09h21.14.019,task,2021.1.4,Win32,165.645188,6299f149e92ead563fba08ef,62a44213b3438070802e02cd,,,,,,,,,,,,,,,,,,,,,,,,,,,,,,,,,,,,,,,,,,,,,,,,,,,,,,,,,,,,,,,,,,,,,,,,,,,,,,,,,,,,,,,,,,,,,0,38,0,38,0,1,,,
,,,,,,,,,,,,617065189300567757e337a8,20,Mężczyzna,2022-06-11_09h21.14.019,task,2021.1.4,Win32,165.645188,6299f149e92ead563fba08ef,62a44213b3438070802e02cd,,,,,,,,,,,,,,,,,,,,,,,,,,,,,,,,,,,,,,,,,,,,,,,,,,,,,,,,,,,,,,,,,,,,,,,,,,,,,,,,,,,,,,,,,,,,"[""period""]",0,39,0,39,0,1,[0.20730000007142735],,
,,,,,,,,,,,,617065189300567757e337a8,20,Mężczyzna,2022-06-11_09h21.14.019,task,2021.1.4,Win32,165.645188,6299f149e92ead563fba08ef,62a44213b3438070802e02cd,,,,,,,,,,,,,,,,,,,,,,,,,,,,,,,,,,,,,,,,,,,,,,,,,,,,,,,,,,,,,,,,,,,,,,,,,,,,,,,,,,,,,,,,,,,,"[""comma""]",0,40,0,40,0,1,[0.23749999999995453],,
,,,,,,,,,,,,617065189300567757e337a8,20,Mężczyzna,2022-06-11_09h21.14.019,task,2021.1.4,Win32,165.645188,6299f149e92ead563fba08ef,62a44213b3438070802e02cd,,,,,,,,,,,,,,,,,,,,,,,,,,,,,,,,,,,,,,,,,,,,,,,,,,,,,,,,,,,,,,,,,,,,,,,,,,,,,,,,,,,,,,,,,,,,"[""comma""]",0,41,0,41,0,1,[0.231199999928549],,
,,,,,,,,,,,,617065189300567757e337a8,20,Mężczyzna,2022-06-11_09h21.14.019,task,2021.1.4,Win32,165.645188,6299f149e92ead563fba08ef,62a44213b3438070802e02cd,,,,,,,,,,,,,,,,,,,,,,,,,,,,,,,,,,,,,,,,,,,,,,,,,,,,,,,,,,,,,,,,,,,,,,,,,,,,,,,,,,,,,,,,,,,,"[""period""]",0,42,0,42,0,1,[0.20679999995218168],,
,,,,,,,,,,,,617065189300567757e337a8,20,Mężczyzna,2022-06-11_09h21.14.019,task,2021.1.4,Win32,165.645188,6299f149e92ead563fba08ef,62a44213b3438070802e02cd,,,,,,,,,,,,,,,,,,,,,,,,,,,,,,,,,,,,,,,,,,,,,,,,,,,,,,,,,,,,,,,,,,,,,,,,,,,,,,,,,,,,,,,,,,,,"[""period""]",0,43,0,43,0,1,[0.4855000000000018],,
,,,,,,,,,,,,617065189300567757e337a8,20,Mężczyzna,2022-06-11_09h21.14.019,task,2021.1.4,Win32,165.645188,6299f149e92ead563fba08ef,62a44213b3438070802e02cd,,,,,,,,,,,,,,,,,,,,,,,,,,,,,,,,,,,,,,,,,,,,,,,,,,,,,,,,,,,,,,,,,,,,,,,,,,,,,,,,,,,,,,,,,,,,"[""comma""]",0,44,0,44,0,1,[0.3097000000477692],,
,,,,,,,,,,,,617065189300567757e337a8,20,Mężczyzna,2022-06-11_09h21.14.019,task,2021.1.4,Win32,165.645188,6299f149e92ead563fba08ef,62a44213b3438070802e02cd,,,,,,,,,,,,,,,,,,,,,,,,,,,,,,,,,,,,,,,,,,,,,,,,,,,,,,,,,,,,,,,,,,,,,,,,,,,,,,,,,,,,,,,,,,,,"[""comma""]",0,45,0,45,0,1,[0.28899999999998727],,
,,,,,,,,,,,,617065189300567757e337a8,20,Mężczyzna,2022-06-11_09h21.14.019,task,2021.1.4,Win32,165.645188,6299f149e92ead563fba08ef,62a44213b3438070802e02cd,,,,,,,,,,,,,,,,,,,,,,,,,,,,,,,,,,,,,,,,,,,,,,,,,,,,,,,,,,,,,,,,,,,,,,,,,,,,,,,,,,,,,,,,,,,,"[""comma""]",0,46,0,46,0,1,[0.26360000002387096],,
,,,,,,,,,,,,617065189300567757e337a8,20,Mężczyzna,2022-06-11_09h21.14.019,task,2021.1.4,Win32,165.645188,6299f149e92ead563fba08ef,62a44213b3438070802e02cd,,,,,,,,,,,,,,,,,,,,,,,,,,,,,,,,,,,,,,,,,,,,,,,,,,,,,,,,,,,,,,,,,,,,,,,,,,,,,,,,,,,,,,,,,,,,"[""period""]",0,47,0,47,0,1,[0.23069999992844714],,
,,,,,,,,,,,,617065189300567757e337a8,20,Mężczyzna,2022-06-11_09h21.14.019,task,2021.1.4,Win32,165.645188,6299f149e92ead563fba08ef,62a44213b3438070802e02cd,,,,,,,,,,,,,,,,,,,,,,,,,,,,,,,,,,,,,,,,,,,,,,,,,,,,,,,,,,,,,,,,,,,,,,,,,,,,,,,,,,,,,,,,,,,,"[""period""]",0,48,0,48,0,1,[0.23099999999999454],,
,,,,,,,,,,,,617065189300567757e337a8,20,Mężczyzna,2022-06-11_09h21.14.019,task,2021.1.4,Win32,165.645188,6299f149e92ead563fba08ef,62a44213b3438070802e02cd,,,,,,,,,,,,,,,,,,,,,,,,,,,,,,,,,,,,,,,,,,,,,,,,,,,,,,,,,,,,,,,,,,,,,,,,,,,,,,,,,,,,,,,,,,,,"[""comma""]",0,49,0,49,0,1,[0.2880000000000109],,
,,,,,,,,,,,,617065189300567757e337a8,20,Mężczyzna,2022-06-11_09h21.14.019,task,2021.1.4,Win32,165.645188,6299f149e92ead563fba08ef,62a44213b3438070802e02cd,,,,,,,,,,,,,,,,,,,,,,,,,,,,,,,,,,,,,,,,,,,,,,,,,,,,,,,,,,,,,,,,,,,,,,,,,,,,,,,,,,,,,,,,,,,,"[""period"",""period""]",0,50,0,50,0,1,"[0.06860000002370725,1.961299999952189]",,
,,,,,,,,,,,,617065189300567757e337a8,20,Mężczyzna,2022-06-11_09h21.14.019,task,2021.1.4,Win32,165.645188,6299f149e92ead563fba08ef,62a44213b3438070802e02cd,,,,,,,,,,,,,,,,,,,,,,,,,,,,,,,,,,,,,,,,,,,,,,,,,,,,,,,,,,,,,,,,,,,,,,,,,,,,,,,,,,,,,,,,,,,,"[""comma""]",0,51,0,51,0,1,[1.3281000000238237],,
,,,,,,,,,,,,617065189300567757e337a8,20,Mężczyzna,2022-06-11_09h21.14.019,task,2021.1.4,Win32,165.645188,6299f149e92ead563fba08ef,62a44213b3438070802e02cd,,,,,,,,,,,,,,,,,,,,,,,,,,,,,,,,,,,,,,,,,,,,,,,,,,,,,,,,,,,,,,,,,,,,,,,,,,,,,,,,,,,,,,,,,,,,"[""comma""]",0,52,0,52,0,1,[1.0644999999999527],,
,,,,,,,,,,,,617065189300567757e337a8,20,Mężczyzna,2022-06-11_09h21.14.019,task,2021.1.4,Win32,165.645188,6299f149e92ead563fba08ef,62a44213b3438070802e02cd,,,,,,,,,,,,,,,,,,,,,,,,,,,,,,,,,,,,,,,,,,,,,,,,,,,,,,,,,,,,,,,,,,,,,,,,,,,,,,,,,,,,,,,,,,,,"[""period""]",0,53,0,53,0,1,[0.7580000000000382],,
,,,,,,,,,,,,617065189300567757e337a8,20,Mężczyzna,2022-06-11_09h21.14.019,task,2021.1.4,Win32,165.645188,6299f149e92ead563fba08ef,62a44213b3438070802e02cd,,,,,,,,,,,,,,,,,,,,,,,,,,,,,,,,,,,,,,,,,,,,,,,,,,,,,,,,,,,,,,,,,,,,,,,,,,,,,,,,,,,,,,,,,,,,"[""period""]",0,54,0,54,0,1,[1.9470000000001164],,
,,,,,,,,,,,,617065189300567757e337a8,20,Mężczyzna,2022-06-11_09h21.14.019,task,2021.1.4,Win32,165.645188,6299f149e92ead563fba08ef,62a44213b3438070802e02cd,,,,,,,,,,,,,,,,,,,,,,,,,,,,,,,,,,,,,,,,,,,,,,,,,,,,,,,,,,,,,,,,,,,,,,,,,,,,,,,,,,,,,,,,,,,,,0,55,0,55,0,1,,,
,,,,,,,,,,,,617065189300567757e337a8,20,Mężczyzna,2022-06-11_09h21.14.019,task,2021.1.4,Win32,165.645188,6299f149e92ead563fba08ef,62a44213b3438070802e02cd,,,,,,,,,,,,,,,,,,,,,,,,,,,,,,,,,,,,,,,,,,,,,,,,,,,,,,,,,,,,,,,,,,,,,,,,,,,,,,,,,,,,,,,,,,,,"[""period""]",0,56,0,56,0,1,[0.22649999999998727],,
,,,,,,,,,,,,617065189300567757e337a8,20,Mężczyzna,2022-06-11_09h21.14.019,task,2021.1.4,Win32,165.645188,6299f149e92ead563fba08ef,62a44213b3438070802e02cd,,,,,,,,,,,,,,,,,,,,,,,,,,,,,,,,,,,,,,,,,,,,,,,,,,,,,,,,,,,,,,,,,,,,,,,,,,,,,,,,,,,,,,,,,,,,"[""comma""]",0,57,0,57,0,1,[0.27319999992846533],,
,,,,,,,,,,,,617065189300567757e337a8,20,Mężczyzna,2022-06-11_09h21.14.019,task,2021.1.4,Win32,165.645188,6299f149e92ead563fba08ef,62a44213b3438070802e02cd,,,,,,,,,,,,,,,,,,,,,,,,,,,,,,,,,,,,,,,,,,,,,,,,,,,,,,,,,,,,,,,,,,,,,,,,,,,,,,,,,,,,,,,,,,,,"[""period""]",0,58,0,58,0,1,[0.22909999990474716],,
,,,,,,,,,,,,617065189300567757e337a8,20,Mężczyzna,2022-06-11_09h21.14.019,task,2021.1.4,Win32,165.645188,6299f149e92ead563fba08ef,62a44213b3438070802e02cd,,,,,,,,,,,,,,,,,,,,,,,,,,,,,,,,,,,,,,,,,,,,,,,,,,,,,,,,,,,,,,,,,,,,,,,,,,,,,,,,,,,,,,,,,,,,"[""period""]",0,59,0,59,0,1,[0.2188999999762018],,
,,,,,,,,,,,,617065189300567757e337a8,20,Mężczyzna,2022-06-11_09h21.14.019,task,2021.1.4,Win32,165.645188,6299f149e92ead563fba08ef,62a44213b3438070802e02cd,,,,,,,,,,,,,,,,,,,,,,,,,,,,,,,,,,,,,,,,,,,,,,,,,,,,,,,,,,,,,,,,,,,,,,,,,,,,,,,,,,,,,,,,,,,,"[""comma""]",0,60,0,60,0,1,[0.24519999992844532],,
,,,,,,,,,,,,617065189300567757e337a8,20,Mężczyzna,2022-06-11_09h21.14.019,task,2021.1.4,Win32,165.645188,6299f149e92ead563fba08ef,62a44213b3438070802e02cd,,,,,,,,,,,,,,,,,,,,,,,,,,,,,,,,,,,,,,,,,,,,,,,,,,,,,,,,,,,,,,,,,,,,,,,,,,,,,,,,,,,,,,,,,,,,"[""period""]",0,61,0,61,0,1,[0.2696000000237291],,
,,,,,,,,,,,,617065189300567757e337a8,20,Mężczyzna,2022-06-11_09h21.14.019,task,2021.1.4,Win32,165.645188,6299f149e92ead563fba08ef,62a44213b3438070802e02cd,,,,,,,,,,,,,,,,,,,,,,,,,,,,,,,,,,,,,,,,,,,,,,,,,,,,,,,,,,,,,,,,,,,,,,,,,,,,,,,,,,,,,,,,,,,,"[""comma""]",0,62,0,62,0,1,[0.22820000004753638],,
,,,,,,,,,,,,617065189300567757e337a8,20,Mężczyzna,2022-06-11_09h21.14.019,task,2021.1.4,Win32,165.645188,6299f149e92ead563fba08ef,62a44213b3438070802e02cd,,,,,,,,,,,,,,,,,,,,,,,,,,,,,,,,,,,,,,,,,,,,,,,,,,,,,,,,,,,,,,,,,,,,,,,,,,,,,,,,,,,,,,,,,,,,"[""comma""]",0,63,0,63,0,1,[0.23069999992844714],,
,,,,,,,,,,,,617065189300567757e337a8,20,Mężczyzna,2022-06-11_09h21.14.019,task,2021.1.4,Win32,165.645188,6299f149e92ead563fba08ef,62a44213b3438070802e02cd,,,,,,,,,,,,,,,,,,,,,,,,,,,,,,,,,,,,,,,,,,,,,,,,,,,,,,,,,,,,,,,,,,,,,,,,,,,,,,,,,,,,,,,,,,,,"[""period""]",0,64,0,64,0,1,[0.14539999997623454],,
,,,,,,,,,,,,617065189300567757e337a8,20,Mężczyzna,2022-06-11_09h21.14.019,task,2021.1.4,Win32,165.645188,6299f149e92ead563fba08ef,62a44213b3438070802e02cd,,,,,,,,,,,,,,,,,,,,,,,,,,,,,,,,,,,,,,,,,,,,,,,,,,,,,,,,,,,,,,,,,,,,,,,,,,,,,,,,,,,,,,,,,,,,"[""comma""]",0,65,0,65,0,1,[0.25719999992838893],,
,,,,,,,,,,,,617065189300567757e337a8,20,Mężczyzna,2022-06-11_09h21.14.019,task,2021.1.4,Win32,165.645188,6299f149e92ead563fba08ef,62a44213b3438070802e02cd,,,,,,,,,,,,,,,,,,,,,,,,,,,,,,,,,,,,,,,,,,,,,,,,,,,,,,,,,,,,,,,,,,,,,,,,,,,,,,,,,,,,,,,,,,,,"[""period""]",0,66,0,66,0,1,[0.23669999992853263],,
,,,,,,,,,,,,617065189300567757e337a8,20,Mężczyzna,2022-06-11_09h21.14.019,task,2021.1.4,Win32,165.645188,6299f149e92ead563fba08ef,62a44213b3438070802e02cd,,,,,,,,,,,,,,,,,,,,,,,,,,,,,,,,,,,,,,,,,,,,,,,,,,,,,,,,,,,,,,,,,,,,,,,,,,,,,,,,,,,,,,,,,,,,"[""period""]",0,67,0,67,0,1,[0.3160000000000309],,
,,,,,,,,,,,,617065189300567757e337a8,20,Mężczyzna,2022-06-11_09h21.14.019,task,2021.1.4,Win32,165.645188,6299f149e92ead563fba08ef,62a44213b3438070802e02cd,,,,,,,,,,,,,,,,,,,,,,,,,,,,,,,,,,,,,,,,,,,,,,,,,,,,,,,,,,,,,,,,,,,,,,,,,,,,,,,,,,,,,,,,,,,,"[""period""]",0,68,0,68,0,1,[0.30429999995226353],,
,,,,,,,,,,,,617065189300567757e337a8,20,Mężczyzna,2022-06-11_09h21.14.019,task,2021.1.4,Win32,165.645188,6299f149e92ead563fba08ef,62a44213b3438070802e02cd,,,,,,,,,,,,,,,,,,,,,,,,,,,,,,,,,,,,,,,,,,,,,,,,,,,,,,,,,,,,,,,,,,,,,,,,,,,,,,,,,,,,,,,,,,,,"[""period""]",0,69,0,69,0,1,[0.3236000000238164],,
,,,,,,,,,,,,617065189300567757e337a8,20,Mężczyzna,2022-06-11_09h21.14.019,task,2021.1.4,Win32,165.645188,6299f149e92ead563fba08ef,62a44213b3438070802e02cd,,,,,,,,,,,,,,,,,,,,,,,,,,,,,,,,,,,,,,,,,,,,,,,,,,,,,,,,,,,,,,,,,,,,,,,,,,,,,,,,,,,,,,,,,,,,"[""comma""]",0,70,0,70,0,1,[0.25499999999988177],,
,,,,,,,,,,,,617065189300567757e337a8,20,Mężczyzna,2022-06-11_09h21.14.019,task,2021.1.4,Win32,165.645188,6299f149e92ead563fba08ef,62a44213b3438070802e02cd,,,,,,,,,,,,,,,,,,,,,,,,,,,,,,,,,,,,,,,,,,,,,,,,,,,,,,,,,,,,,,,,,,,,,,,,,,,,,,,,,,,,,,,,,,,,"[""comma""]",0,71,0,71,0,1,[0.25549999999998363],,
,,,,,,,,,,,,617065189300567757e337a8,20,Mężczyzna,2022-06-11_09h21.14.019,task,2021.1.4,Win32,165.645188,6299f149e92ead563fba08ef,62a44213b3438070802e02cd,,,,,,,,,,,,,,,,,,,,,,,,,,,,,,,,,,,,,,,,,,,,,,,,,,,,,,,,,,,,,,,,,,,,,,,,,,,,,,,,,,,,,,,,,,,,"[""period""]",0,72,0,72,0,1,[0.23849999999993088],,
,,,,,,,,,,,,617065189300567757e337a8,20,Mężczyzna,2022-06-11_09h21.14.019,task,2021.1.4,Win32,165.645188,6299f149e92ead563fba08ef,62a44213b3438070802e02cd,,,,,,,,,,,,,,,,,,,,,,,,,,,,,,,,,,,,,,,,,,,,,,,,,,,,,,,,,,,,,,,,,,,,,,,,,,,,,,,,,,,,,,,,,,,,"[""period""]",0,73,0,73,0,1,[0.4148999999761145],,
,,,,,,,,,,,,617065189300567757e337a8,20,Mężczyzna,2022-06-11_09h21.14.019,task,2021.1.4,Win32,165.645188,6299f149e92ead563fba08ef,62a44213b3438070802e02cd,,,,,,,,,,,,,,,,,,,,,,,,,,,,,,,,,,,,,,,,,,,,,,,,,,,,,,,,,,,,,,,,,,,,,,,,,,,,,,,,,,,,,,,,,,,,"[""period""]",0,74,0,74,0,1,[0.3178999999761345],,
,,,,,,,,,,,,617065189300567757e337a8,20,Mężczyzna,2022-06-11_09h21.14.019,task,2021.1.4,Win32,165.645188,6299f149e92ead563fba08ef,62a44213b3438070802e02cd,,,,,,,,,,,,,,,,,,,,,,,,,,,,,,,,,,,,,,,,,,,,,,,,,,,,,,,,,,,,,,,,,,,,,,,,,,,,,,,,,,,,,,,,,,,,"[""period""]",0,75,0,75,0,1,[0.2860000000000582],,
,,,,,,,,,,,,617065189300567757e337a8,20,Mężczyzna,2022-06-11_09h21.14.019,task,2021.1.4,Win32,165.645188,6299f149e92ead563fba08ef,62a44213b3438070802e02cd,,,,,,,,,,,,,,,,,,,,,,,,,,,,,,,,,,,,,,,,,,,,,,,,,,,,,,,,,,,,,,,,,,,,,,,,,,,,,,,,,,,,,,,,,,,,"[""comma""]",0,76,0,76,0,1,[0.49689999997599443],,
,,,,,,,,,,,,617065189300567757e337a8,20,Mężczyzna,2022-06-11_09h21.14.019,task,2021.1.4,Win32,165.645188,6299f149e92ead563fba08ef,62a44213b3438070802e02cd,,,,,,,,,,,,,,,,,,,,,,,,,,,,,,,,,,,,,,,,,,,,,,,,,,,,,,,,,,,,,,,,,,,,,,,,,,,,,,,,,,,,,,,,,,,,"[""comma""]",0,77,0,77,0,1,[0.2692000000477037],,
,,,,,,,,,,,,617065189300567757e337a8,20,Mężczyzna,2022-06-11_09h21.14.019,task,2021.1.4,Win32,165.645188,6299f149e92ead563fba08ef,62a44213b3438070802e02cd,,,,,,,,,,,,,,,,,,,,,,,,,,,,,,,,,,,,,,,,,,,,,,,,,,,,,,,,,,,,,,,,,,,,,,,,,,,,,,,,,,,,,,,,,,,,"[""period""]",0,78,0,78,0,1,[0.2193999999760763],,
,,,,,,,,,,,,617065189300567757e337a8,20,Mężczyzna,2022-06-11_09h21.14.019,task,2021.1.4,Win32,165.645188,6299f149e92ead563fba08ef,62a44213b3438070802e02cd,,,,,,,,,,,,,,,,,,,,,,,,,,,,,,,,,,,,,,,,,,,,,,,,,,,,,,,,,,,,,,,,,,,,,,,,,,,,,,,,,,,,,,,,,,,,"[""comma""]",0,79,0,79,0,1,[0.2561000000239346],,
,,,,,,,,,,,,617065189300567757e337a8,20,Mężczyzna,2022-06-11_09h21.14.019,task,2021.1.4,Win32,165.645188,6299f149e92ead563fba08ef,62a44213b3438070802e02cd,,,,,,,,,,,,,,,,,,,,,,,,,,,,,,,,,,,,,,,,,,,,,,,,,,,,,,,,,,,,,,,,,,,,,,,,,,,,,,,,,,,,,,,,,,,,"[""period""]",0,80,0,80,0,1,[0.25],,
,,,,,,,,,,,,617065189300567757e337a8,20,Mężczyzna,2022-06-11_09h21.14.019,task,2021.1.4,Win32,165.645188,6299f149e92ead563fba08ef,62a44213b3438070802e02cd,,,,,,,,,,,,,,,,,,,,,,,,,,,,,,,,,,,,,,,,,,,,,,,,,,,,,,,,,,,,,,,,,,,,,,,,,,,,,,,,,,,,,,,,,,,,"[""period""]",0,81,0,81,0,1,[0.27870000004759277],,
,,,,,,,,,,,,617065189300567757e337a8,20,Mężczyzna,2022-06-11_09h21.14.019,task,2021.1.4,Win32,165.645188,6299f149e92ead563fba08ef,62a44213b3438070802e02cd,,,,,,,,,,,,,,,,,,,,,,,,,,,,,,,,,,,,,,,,,,,,,,,,,,,,,,,,,,,,,,,,,,,,,,,,,,,,,,,,,,,,,,,,,,,,"[""comma""]",0,82,0,82,0,1,[0.12789999997607993],,
,,,,,,,,,,,,617065189300567757e337a8,20,Mężczyzna,2022-06-11_09h21.14.019,task,2021.1.4,Win32,165.645188,6299f149e92ead563fba08ef,62a44213b3438070802e02cd,,,,,,,,,,,,,,,,,,,,,,,,,,,,,,,,,,,,,,,,,,,,,,,,,,,,,,,,,,,,,,,,,,,,,,,,,,,,,,,,,,,,,,,,,,,,"[""comma""]",0,83,0,83,0,1,[0.22769999992851808],,
,,,,,,,,,,,,617065189300567757e337a8,20,Mężczyzna,2022-06-11_09h21.14.019,task,2021.1.4,Win32,165.645188,6299f149e92ead563fba08ef,62a44213b3438070802e02cd,,,,,,,,,,,,,,,,,,,,,,,,,,,,,,,,,,,,,,,,,,,,,,,,,,,,,,,,,,,,,,,,,,,,,,,,,,,,,,,,,,,,,,,,,,,,"[""period""]",0,84,0,84,0,1,[0.05529999995223989],,
,,,,,,,,,,,,617065189300567757e337a8,20,Mężczyzna,2022-06-11_09h21.14.019,task,2021.1.4,Win32,165.645188,6299f149e92ead563fba08ef,62a44213b3438070802e02cd,,,,,,,,,,,,,,,,,,,,,,,,,,,,,,,,,,,,,,,,,,,,,,,,,,,,,,,,,,,,,,,,,,,,,,,,,,,,,,,,,,,,,,,,,,,,"[""period""]",0,85,0,85,0,1,[0.23710000002392917],,
,,,,,,,,,,,,617065189300567757e337a8,20,Mężczyzna,2022-06-11_09h21.14.019,task,2021.1.4,Win32,165.645188,6299f149e92ead563fba08ef,62a44213b3438070802e02cd,,,,,,,,,,,,,,,,,,,,,,,,,,,,,,,,,,,,,,,,,,,,,,,,,,,,,,,,,,,,,,,,,,,,,,,,,,,,,,,,,,,,,,,,,,,,"[""comma""]",0,86,0,86,0,1,[0.24529999995229446],,
,,,,,,,,,,,,617065189300567757e337a8,20,Mężczyzna,2022-06-11_09h21.14.019,task,2021.1.4,Win32,165.645188,6299f149e92ead563fba08ef,62a44213b3438070802e02cd,,,,,,,,,,,,,,,,,,,,,,,,,,,,,,,,,,,,,,,,,,,,,,,,,,,,,,,,,,,,,,,,,,,,,,,,,,,,,,,,,,,,,,,,,,,,"[""period""]",0,87,0,87,0,1,[0.21949999999992542],,
,,,,,,,,,,,,617065189300567757e337a8,20,Mężczyzna,2022-06-11_09h21.14.019,task,2021.1.4,Win32,165.645188,6299f149e92ead563fba08ef,62a44213b3438070802e02cd,,,,,,,,,,,,,,,,,,,,,,,,,,,,,,,,,,,,,,,,,,,,,,,,,,,,,,,,,,,,,,,,,,,,,,,,,,,,,,,,,,,,,,,,,,,,"[""period""]",0,88,0,88,0,1,[0.2673999999760781],,
,,,,,,,,,,,,617065189300567757e337a8,20,Mężczyzna,2022-06-11_09h21.14.019,task,2021.1.4,Win32,165.645188,6299f149e92ead563fba08ef,62a44213b3438070802e02cd,,,,,,,,,,,,,,,,,,,,,,,,,,,,,,,,,,,,,,,,,,,,,,,,,,,,,,,,,,,,,,,,,,,,,,,,,,,,,,,,,,,,,,,,,,,,"[""comma""]",0,89,0,89,0,1,[0.2306000000237418],,
,,,,,,,,,,,,617065189300567757e337a8,20,Mężczyzna,2022-06-11_09h21.14.019,task,2021.1.4,Win32,165.645188,6299f149e92ead563fba08ef,62a44213b3438070802e02cd,,,,,,,,,,,,,,,,,,,,,,,,,,,,,,,,,,,,,,,,,,,,,,,,,,,,,,,,,,,,,,,,,,,,,,,,,,,,,,,,,,,,,,,,,,,,"[""period"",""period""]",0,90,0,90,0,1,"[0.27949999999987085,1.497099999904549]",,
,,,,,,,,,,,,617065189300567757e337a8,20,Mężczyzna,2022-06-11_09h21.14.019,task,2021.1.4,Win32,165.645188,6299f149e92ead563fba08ef,62a44213b3438070802e02cd,,,,,,,,,,,,,,,,,,,,,,,,,,,,,,,,,,,,,,,,,,,,,,,,,,,,,,,,,,,,,,,,,,,,,,,,,,,,,,,,,,,,,,,,,,,,,0,91,0,91,0,1,,,
,,,,,,,,,,,,617065189300567757e337a8,20,Mężczyzna,2022-06-11_09h21.14.019,task,2021.1.4,Win32,165.645188,6299f149e92ead563fba08ef,62a44213b3438070802e02cd,,,,,,,,,,,,,,,,,,,,,,,,,,,,,,,,,,,,,,,,,,,,,,,,,,,,,,,,,,,,,,,,,,,,,,,,,,,,,,,,,,,,,,,,,,,,"[""period""]",0,92,0,92,0,1,[0.2135000000000673],,
,,,,,,,,,,,,617065189300567757e337a8,20,Mężczyzna,2022-06-11_09h21.14.019,task,2021.1.4,Win32,165.645188,6299f149e92ead563fba08ef,62a44213b3438070802e02cd,,,,,,,,,,,,,,,,,,,,,,,,,,,,,,,,,,,,,,,,,,,,,,,,,,,,,,,,,,,,,,,,,,,,,,,,,,,,,,,,,,,,,,,,,,,,"[""comma""]",0,93,0,93,0,1,[0.24280000007161107],,
,,,,,,,,,,,,617065189300567757e337a8,20,Mężczyzna,2022-06-11_09h21.14.019,task,2021.1.4,Win32,165.645188,6299f149e92ead563fba08ef,62a44213b3438070802e02cd,,,,,,,,,,,,,,,,,,,,,,,,,,,,,,,,,,,,,,,,,,,,,,,,,,,,,,,,,,,,,,,,,,,,,,,,,,,,,,,,,,,,,,,,,,,,"[""period""]",0,94,0,94,0,1,[0.14000000000010004],,
,,,,,,,,,,,,617065189300567757e337a8,20,Mężczyzna,2022-06-11_09h21.14.019,task,2021.1.4,Win32,165.645188,6299f149e92ead563fba08ef,62a44213b3438070802e02cd,,,,,,,,,,,,,,,,,,,,,,,,,,,,,,,,,,,,,,,,,,,,,,,,,,,,,,,,,,,,,,,,,,,,,,,,,,,,,,,,,,,,,,,,,,,,"[""period""]",0,95,0,95,0,1,[0.00670000004765825],,
,,,,,,,,,,,,617065189300567757e337a8,20,Mężczyzna,2022-06-11_09h21.14.019,task,2021.1.4,Win32,165.645188,6299f149e92ead563fba08ef,62a44213b3438070802e02cd,,,,,,,,,,,,,,,,,,,,,,,,,,,,,,,,,,,,,,,,,,,,,,,,,,,,,,,,,,,,,,,,,,,,,,,,,,,,,,,,,,,,,,,,,,,,"[""period""]",0,96,0,96,0,1,[0.2616000000236909],,
,,,,,,,,,,,,617065189300567757e337a8,20,Mężczyzna,2022-06-11_09h21.14.019,task,2021.1.4,Win32,165.645188,6299f149e92ead563fba08ef,62a44213b3438070802e02cd,,,,,,,,,,,,,,,,,,,,,,,,,,,,,,,,,,,,,,,,,,,,,,,,,,,,,,,,,,,,,,,,,,,,,,,,,,,,,,,,,,,,,,,,,,,,"[""comma""]",0,97,0,97,0,1,[0.30949999999984357],,
,,,,,,,,,,,,617065189300567757e337a8,20,Mężczyzna,2022-06-11_09h21.14.019,task,2021.1.4,Win32,165.645188,6299f149e92ead563fba08ef,62a44213b3438070802e02cd,,,,,,,,,,,,,,,,,,,,,,,,,,,,,,,,,,,,,,,,,,,,,,,,,,,,,,,,,,,,,,,,,,,,,,,,,,,,,,,,,,,,,,,,,,,,"[""comma""]",0,98,0,98,0,1,[0.29190000009543837],,
,,,,,,,,,,,,617065189300567757e337a8,20,Mężczyzna,2022-06-11_09h21.14.019,task,2021.1.4,Win32,165.645188,6299f149e92ead563fba08ef,62a44213b3438070802e02cd,,,,,,,,,,,,,,,,,,,,,,,,,,,,,,,,,,,,,,,,,,,,,,,,,,,,,,,,,,,,,,,,,,,,,,,,,,,,,,,,,,,,,,,,,,,,"[""comma""]",0,99,0,99,0,1,[0.5885000000000673],,
,,,,,,,,,,,,617065189300567757e337a8,20,Mężczyzna,2022-06-11_09h21.14.019,task,2021.1.4,Win32,165.645188,6299f149e92ead563fba08ef,62a44213b3438070802e02cd,,,,,,,,,,,,,,,,,,,,,,,,,,,,,,,,,,,,,,,,,,,,,,,,,,,,,,,,,,,,,,,,,,,,,,,,,,,,,,,,,,,,,,,,,,,,"[""period""]",0,100,0,100,0,1,[0.40629999995235266],,
,,,,,,,,,,,,617065189300567757e337a8,20,Mężczyzna,2022-06-11_09h21.14.019,task,2021.1.4,Win32,165.645188,6299f149e92ead563fba08ef,62a44213b3438070802e02cd,,,,,,,,,,,,,,,,,,,,,,,,,,,,,,,,,,,,,,,,,,,,,,,,,,,,,,,,,,,,,,,,,,,,,,,,,,,,,,,,,,,,,,,,,,,,"[""period""]",0,101,0,101,0,1,[0.7260000000001128],,
,,,,,,,,,,,,617065189300567757e337a8,20,Mężczyzna,2022-06-11_09h21.14.019,task,2021.1.4,Win32,165.645188,6299f149e92ead563fba08ef,62a44213b3438070802e02cd,,,,,,,,,,,,,,,,,,,,,,,,,,,,,,,,,,,,,,,,,,,,,,,,,,,,,,,,,,,,,,,,,,,,,,,,,,,,,,,,,,,,,,,,,,,,"[""period""]",0,102,0,102,0,1,[0.6730000000000018],,
,,,,,,,,,,,,617065189300567757e337a8,20,Mężczyzna,2022-06-11_09h21.14.019,task,2021.1.4,Win32,165.645188,6299f149e92ead563fba08ef,62a44213b3438070802e02cd,,,,,,,,,,,,,,,,,,,,,,,,,,,,,,,,,,,,,,,,,,,,,,,,,,,,,,,,,,,,,,,,,,,,,,,,,,,,,,,,,,,,,,,,,,,,"[""comma""]",0,103,0,103,0,1,[0.3523999999761145],,
,,,,,,,,,,,,617065189300567757e337a8,20,Mężczyzna,2022-06-11_09h21.14.019,task,2021.1.4,Win32,165.645188,6299f149e92ead563fba08ef,62a44213b3438070802e02cd,,,,,,,,,,,,,,,,,,,,,,,,,,,,,,,,,,,,,,,,,,,,,,,,,,,,,,,,,,,,,,,,,,,,,,,,,,,,,,,,,,,,,,,,,,,,"[""comma""]",0,104,0,104,0,1,[0.2795000000000982],,
,,,,,,,,,,,,617065189300567757e337a8,20,Mężczyzna,2022-06-11_09h21.14.019,task,2021.1.4,Win32,165.645188,6299f149e92ead563fba08ef,62a44213b3438070802e02cd,,,,,,,,,,,,,,,,,,,,,,,,,,,,,,,,,,,,,,,,,,,,,,,,,,,,,,,,,,,,,,,,,,,,,,,,,,,,,,,,,,,,,,,,,,,,"[""period""]",0,105,0,105,0,1,[0.21879999995235266],,
,,,,,,,,,,,,617065189300567757e337a8,20,Mężczyzna,2022-06-11_09h21.14.019,task,2021.1.4,Win32,165.645188,6299f149e92ead563fba08ef,62a44213b3438070802e02cd,,,,,,,,,,,,,,,,,,,,,,,,,,,,,,,,,,,,,,,,,,,,,,,,,,,,,,,,,,,,,,,,,,,,,,,,,,,,,,,,,,,,,,,,,,,,"[""period""]",0,106,0,106,0,1,[0.5777999999522763],,
,,,,,,,,,,,,617065189300567757e337a8,20,Mężczyzna,2022-06-11_09h21.14.019,task,2021.1.4,Win32,165.645188,6299f149e92ead563fba08ef,62a44213b3438070802e02cd,,,,,,,,,,,,,,,,,,,,,,,,,,,,,,,,,,,,,,,,,,,,,,,,,,,,,,,,,,,,,,,,,,,,,,,,,,,,,,,,,,,,,,,,,,,,"[""comma""]",0,107,0,107,0,1,[0.19429999995236358],,
,,,,,,,,,,,,617065189300567757e337a8,20,Mężczyzna,2022-06-11_09h21.14.019,task,2021.1.4,Win32,165.645188,6299f149e92ead563fba08ef,62a44213b3438070802e02cd,,,,,,,,,,,,,,,,,,,,,,,,,,,,,,,,,,,,,,,,,,,,,,,,,,,,,,,,,,,,,,,,,,,,,,,,,,,,,,,,,,,,,,,,,,,,"[""comma"",""period""]",0,108,0,108,0,1,"[0.20739999997613268,1.8243999999760945]",,
,,,,,,,,,,,,617065189300567757e337a8,20,Mężczyzna,2022-06-11_09h21.14.019,task,2021.1.4,Win32,165.645188,6299f149e92ead563fba08ef,62a44213b3438070802e02cd,,,,,,,,,,,,,,,,,,,,,,,,,,,,,,,,,,,,,,,,,,,,,,,,,,,,,,,,,,,,,,,,,,,,,,,,,,,,,,,,,,,,,,,,,,,,,0,109,0,109,0,1,,,
,,,,,,,,,,,,617065189300567757e337a8,20,Mężczyzna,2022-06-11_09h21.14.019,task,2021.1.4,Win32,165.645188,6299f149e92ead563fba08ef,62a44213b3438070802e02cd,,,,,,,,,,,,,,,,,,,,,,,,,,,,,,,,,,,,,,,,,,,,,,,,,,,,,,,,,,,,,,,,,,,,,,,,,,,,,,,,,,,,,,,,,,,,"[""comma""]",0,110,0,110,0,1,[0.23179999995227263],,
,,,,,,,,,,,,617065189300567757e337a8,20,Mężczyzna,2022-06-11_09h21.14.019,task,2021.1.4,Win32,165.645188,6299f149e92ead563fba08ef,62a44213b3438070802e02cd,,,,,,,,,,,,,,,,,,,,,,,,,,,,,,,,,,,,,,,,,,,,,,,,,,,,,,,,,,,,,,,,,,,,,,,,,,,,,,,,,,,,,,,,,,,,"[""period""]",0,111,0,111,0,1,[0.2797000000477965],,
,,,,,,,,,,,,617065189300567757e337a8,20,Mężczyzna,2022-06-11_09h21.14.019,task,2021.1.4,Win32,165.645188,6299f149e92ead563fba08ef,62a44213b3438070802e02cd,,,,,,,,,,,,,,,,,,,,,,,,,,,,,,,,,,,,,,,,,,,,,,,,,,,,,,,,,,,,,,,,,,,,,,,,,,,,,,,,,,,,,,,,,,,,"[""period""]",0,112,0,112,0,1,[0.26580000007152194],,
,,,,,,,,,,,,617065189300567757e337a8,20,Mężczyzna,2022-06-11_09h21.14.019,task,2021.1.4,Win32,165.645188,6299f149e92ead563fba08ef,62a44213b3438070802e02cd,,,,,,,,,,,,,,,,,,,,,,,,,,,,,,,,,,,,,,,,,,,,,,,,,,,,,,,,,,,,,,,,,,,,,,,,,,,,,,,,,,,,,,,,,,,,"[""comma""]",0,113,0,113,0,1,[0.17929999995226353],,
,,,,,,,,,,,,617065189300567757e337a8,20,Mężczyzna,2022-06-11_09h21.14.019,task,2021.1.4,Win32,165.645188,6299f149e92ead563fba08ef,62a44213b3438070802e02cd,,,,,,,,,,,,,,,,,,,,,,,,,,,,,,,,,,,,,,,,,,,,,,,,,,,,,,,,,,,,,,,,,,,,,,,,,,,,,,,,,,,,,,,,,,,,"[""comma""]",0,114,0,114,0,1,[0.26669999992850535],,
,,,,,,,,,,,,617065189300567757e337a8,20,Mężczyzna,2022-06-11_09h21.14.019,task,2021.1.4,Win32,165.645188,6299f149e92ead563fba08ef,62a44213b3438070802e02cd,,,,,,,,,,,,,,,,,,,,,,,,,,,,,,,,,,,,,,,,,,,,,,,,,,,,,,,,,,,,,,,,,,,,,,,,,,,,,,,,,,,,,,,,,,,,"[""period""]",0,115,0,115,0,1,[0.3058999999761909],,
,,,,,,,,,,,,617065189300567757e337a8,20,Mężczyzna,2022-06-11_09h21.14.019,task,2021.1.4,Win32,165.645188,6299f149e92ead563fba08ef,62a44213b3438070802e02cd,,,,,,,,,,,,,,,,,,,,,,,,,,,,,,,,,,,,,,,,,,,,,,,,,,,,,,,,,,,,,,,,,,,,,,,,,,,,,,,,,,,,,,,,,,,,"[""comma"",""period""]",0,116,0,116,0,1,"[0.23080000007166745,1.9336000000239437]",,
,,,,,,,,,,,,617065189300567757e337a8,20,Mężczyzna,2022-06-11_09h21.14.019,task,2021.1.4,Win32,165.645188,6299f149e92ead563fba08ef,62a44213b3438070802e02cd,,,,,,,,,,,,,,,,,,,,,,,,,,,,,,,,,,,,,,,,,,,,,,,,,,,,,,,,,,,,,,,,,,,,,,,,,,,,,,,,,,,,,,,,,,,,,0,117,0,117,0,1,,,
,,,,,,,,,,,,617065189300567757e337a8,20,Mężczyzna,2022-06-11_09h21.14.019,task,2021.1.4,Win32,165.645188,6299f149e92ead563fba08ef,62a44213b3438070802e02cd,,,,,,,,,,,,,,,,,,,,,,,,,,,,,,,,,,,,,,,,,,,,,,,,,,,,,,,,,,,,,,,,,,,,,,,,,,,,,,,,,,,,,,,,,,,,"[""period""]",0,118,0,118,0,1,[0.20670000004770372],,
,,,,,,,,,,,,617065189300567757e337a8,20,Mężczyzna,2022-06-11_09h21.14.019,task,2021.1.4,Win32,165.645188,6299f149e92ead563fba08ef,62a44213b3438070802e02cd,,,,,,,,,,,,,,,,,,,,,,,,,,,,,,,,,,,,,,,,,,,,,,,,,,,,,,,,,,,,,,,,,,,,,,,,,,,,,,,,,,,,,,,,,,,,"[""comma""]",0,119,0,119,0,1,[0.22450000000003456],,
,,,,,,,,,,,,617065189300567757e337a8,20,Mężczyzna,2022-06-11_09h21.14.019,task,2021.1.4,Win32,165.645188,6299f149e92ead563fba08ef,62a44213b3438070802e02cd,,,,,,,,,,,,,,,,,,,,,,,,,,,,,,,,,,,,,,,,,,,,,,,,,,,,,,,,,,,,,,,,,,,,,,,,,,,,,,,,,,,,,,,,,,,,,,,,,,,,space,2.1955
